welcome_mouse.x,welcome_mouse.y,welcome_mouse.leftButton,welcome_mouse.midButton,welcome_mouse.rightButton,"ID",date,expName,psychopyVersion,OS,frameRate,trainInstr_mouse.x,trainInstr_mouse.y,trainInstr_mouse.leftButton,trainInstr_mouse.midButton,trainInstr_mouse.rightButton,translation_key.keys,translation_key.corr,translation_key.rt,word_rsp.text,trWrd_mouse.x,trWrd_mouse.y,trWrd_mouse.leftButton,trWrd_mouse.midButton,trWrd_mouse.rightButton,train_loop.thisRepN,train_loop.thisTrialN,train_loop.thisN,train_loop.thisIndex,train_loop.ran,nlWrd,brWrd,cbWrd,test,testResp,mouse.x,mouse.y,mouse.leftButton,mouse.midButton,mouse.rightButton,testInstr_mouse.x,testInstr_mouse.y,testInstr_mouse.leftButton,testInstr_mouse.midButton,testInstr_mouse.rightButton,test_mouse.x,test_mouse.y,test_mouse.leftButton,test_mouse.midButton,test_mouse.rightButton,test_response.text,test_loop.thisRepN,test_loop.thisTrialN,test_loop.thisN,test_loop.thisIndex,test_loop.ran
-0.172222208,-0.262037065,1,0,0,00045,2023-10-11_20h43.39.374,vbt_B1_day4,2022.2.4,Win32,60.15037594,,,,,,,,,,,,,,,,,,,,,,,,,,,,,,,,,,,,,,,,,,,,,
,,,,,00045,2023-10-11_20h43.39.374,vbt_B1_day4,2022.2.4,Win32,60.15037594,-0.130555541,-0.309259273,1,0,0,,,,,,,,,,,,,,,,,,,,,,,,,,,,,,,,,,,,,,,,
,,,,,00045,2023-10-11_20h43.39.374,vbt_B1_day4,2022.2.4,Win32,60.15037594,,,,,,down,0,2.4719,,-0.130555541,-0.309259273,1,0,0,0,0,0,33,1,vlek,images/br_vlek.png,images/cb_vlek.png,0,,,,,,,,,,,,,,,,,,,,,,
,,,,,00045,2023-10-11_20h43.39.374,vbt_B1_day4,2022.2.4,Win32,60.15037594,,,,,,down,0,4.8439,,-0.130555541,-0.309259273,1,0,0,0,1,1,29,1,baas,images/br_baas.png,images/cb_baas.png,0,,,,,,,,,,,,,,,,,,,,,,
,,,,,00045,2023-10-11_20h43.39.374,vbt_B1_day4,2022.2.4,Win32,60.15037594,,,,,,down,0,31.3747,,-0.130555541,-0.309259273,1,0,0,0,2,2,134,1,geliefd,images/br_geliefd.png,images/cb_geliefd.png,0,,,,,,,,,,,,,,,,,,,,,,
,,,,,00045,2023-10-11_20h43.39.374,vbt_B1_day4,2022.2.4,Win32,60.15037594,,,,,,down,0,1.9702,,-0.130555541,-0.309259273,1,0,0,0,3,3,196,1,nakijken,images/br_nakijken.png,images/cb_nakijken.png,0,,,,,,,,,,,,,,,,,,,,,,
,,,,,00045,2023-10-11_20h43.39.374,vbt_B1_day4,2022.2.4,Win32,60.15037594,,,,,,down,0,10.0424,,-0.122222194,-0.244444459,1,0,0,0,4,4,135,1,gedicht,images/br_gedicht.png,images/cb_gedicht.png,0,,,,,,,,,,,,,,,,,,,,,,
,,,,,00045,2023-10-11_20h43.39.374,vbt_B1_day4,2022.2.4,Win32,60.15037594,,,,,,down,0,0.1517,,-0.119444459,-0.188888903,1,0,0,0,5,5,16,1,ziek,images/br_ziek.png,images/cb_ziek.png,0,,,,,,,,,,,,,,,,,,,,,,
,,,,,00045,2023-10-11_20h43.39.374,vbt_B1_day4,2022.2.4,Win32,60.15037594,,,,,,down,0,6.3357,,-0.119444459,-0.188888903,1,0,0,0,6,6,50,1,stoom,images/br_stoom.png,images/cb_stoom.png,0,,,,,,,,,,,,,,,,,,,,,,
,,,,,00045,2023-10-11_20h43.39.374,vbt_B1_day4,2022.2.4,Win32,60.15037594,,,,,,down,0,9.0542,,-0.119444459,-0.188888903,1,0,0,0,7,7,80,1,kanjer,images/br_kanjer.png,images/cb_kanjer.png,0,,,,,,,,,,,,,,,,,,,,,,
,,,,,00045,2023-10-11_20h43.39.374,vbt_B1_day4,2022.2.4,Win32,60.15037594,,,,,,down,0,8.0878,,-0.119444459,-0.188888903,1,0,0,0,8,8,183,1,getuigen,images/br_getuigen.png,images/cb_getuigen.png,0,,,,,,,,,,,,,,,,,,,,,,
,,,,,00045,2023-10-11_20h43.39.374,vbt_B1_day4,2022.2.4,Win32,60.15037594,,,,,,down,0,9.9856,,-0.119444459,-0.188888903,1,0,0,0,9,9,6,1,diep,images/br_diep.png,images/cb_diep.png,0,,,,,,,,,,,,,,,,,,,,,,
,,,,,00045,2023-10-11_20h43.39.374,vbt_B1_day4,2022.2.4,Win32,60.15037594,,,,,,down,0,0.3502,,-0.119444459,-0.188888903,1,0,0,0,10,10,8,1,knie,images/br_knie.png,images/cb_knie.png,0,,,,,,,,,,,,,,,,,,,,,,
,,,,,00045,2023-10-11_20h43.39.374,vbt_B1_day4,2022.2.4,Win32,60.15037594,,,,,,down,0,2.5133,,-0.119444459,-0.188888903,1,0,0,0,11,11,181,1,toegeven,images/br_toegeven.png,images/cb_toegeven.png,0,,,,,,,,,,,,,,,,,,,,,,
,,,,,00045,2023-10-11_20h43.39.374,vbt_B1_day4,2022.2.4,Win32,60.15037594,,,,,,down,0,1.2487,,-0.119444459,-0.188888903,1,0,0,0,12,12,174,1,stemming,images/br_stemming.png,images/cb_stemming.png,0,,,,,,,,,,,,,,,,,,,,,,
,,,,,00045,2023-10-11_20h43.39.374,vbt_B1_day4,2022.2.4,Win32,60.15037594,,,,,,down,0,0.1591,,-0.119444459,-0.188888903,1,0,0,0,13,13,68,1,schat,images/br_schat.png,images/cb_schat.png,0,,,,,,,,,,,,,,,,,,,,,,
,,,,,00045,2023-10-11_20h43.39.374,vbt_B1_day4,2022.2.4,Win32,60.15037594,,,,,,down,0,4.4693,,-0.119444459,-0.188888903,1,0,0,0,14,14,162,1,uitdelen,images/br_uitdelen.png,images/cb_uitdelen.png,0,,,,,,,,,,,,,,,,,,,,,,
,,,,,00045,2023-10-11_20h43.39.374,vbt_B1_day4,2022.2.4,Win32,60.15037594,,,,,,down,0,4.6599,,-0.119444459,-0.188888903,1,0,0,0,15,15,124,1,bloeien,images/br_bloeien.png,images/cb_bloeien.png,0,,,,,,,,,,,,,,,,,,,,,,
,,,,,00045,2023-10-11_20h43.39.374,vbt_B1_day4,2022.2.4,Win32,60.15037594,,,,,,down,0,0.2584,,-0.119444459,-0.188888903,1,0,0,0,16,16,70,1,ijdel,images/br_ijdel.png,images/cb_ijdel.png,0,,,,,,,,,,,,,,,,,,,,,,
,,,,,00045,2023-10-11_20h43.39.374,vbt_B1_day4,2022.2.4,Win32,60.15037594,,,,,,down,0,8.5049,,-0.119444459,-0.188888903,1,0,0,0,17,17,20,1,site,images/br_site.png,images/cb_site.png,0,,,,,,,,,,,,,,,,,,,,,,
,,,,,00045,2023-10-11_20h43.39.374,vbt_B1_day4,2022.2.4,Win32,60.15037594,,,,,,down,0,1.8678,,-0.119444459,-0.188888903,1,0,0,0,18,18,125,1,aanzien,images/br_aanzien.png,images/cb_aanzien.png,0,,,,,,,,,,,,,,,,,,,,,,
,,,,,00045,2023-10-11_20h43.39.374,vbt_B1_day4,2022.2.4,Win32,60.15037594,,,,,,down,0,4.2438,,-0.119444459,-0.188888903,1,0,0,0,19,19,78,1,leren,images/br_leren.png,images/cb_leren.png,0,,,,,,,,,,,,,,,,,,,,,,
,,,,,00045,2023-10-11_20h43.39.374,vbt_B1_day4,2022.2.4,Win32,60.15037594,,,,,,down,0,4.7264,,-0.119444459,-0.188888903,1,0,0,0,20,20,139,1,stiekem,images/br_stiekem.png,images/cb_stiekem.png,0,,,,,,,,,,,,,,,,,,,,,,
,,,,,00045,2023-10-11_20h43.39.374,vbt_B1_day4,2022.2.4,Win32,60.15037594,,,,,,down,0,12.0649,,-0.119444459,-0.188888903,1,0,0,0,21,21,105,1,wijlen,images/br_wijlen.png,images/cb_wijlen.png,1,wewijlen,,,,,,,,,,,,,,,,,,,,,
,,,,,00045,2023-10-11_20h43.39.374,vbt_B1_day4,2022.2.4,Win32,60.15037594,,,,,,down,0,18.0993,,-0.119444459,-0.188888903,1,0,0,0,22,22,94,1,oceaan,images/br_oceaan.png,images/cb_oceaan.png,0,,,,,,,,,,,,,,,,,,,,,,
,,,,,00045,2023-10-11_20h43.39.374,vbt_B1_day4,2022.2.4,Win32,60.15037594,,,,,,down,0,31.3834,,-0.119444459,-0.188888903,1,0,0,0,23,23,172,1,weigeren,images/br_weigeren.png,images/cb_weigeren.png,0,,,,,,,,,,,,,,,,,,,,,,
,,,,,00045,2023-10-11_20h43.39.374,vbt_B1_day4,2022.2.4,Win32,60.15037594,,,,,,down,0,27.0087,,-0.119444459,-0.188888903,1,0,0,0,24,24,47,1,kabel,images/br_kabel.png,images/cb_kabel.png,0,,,,,,,,,,,,,,,,,,,,,,
,,,,,00045,2023-10-11_20h43.39.374,vbt_B1_day4,2022.2.4,Win32,60.15037594,,,,,,down,0,2.0306,,-0.119444459,-0.188888903,1,0,0,0,25,25,56,1,traag,images/br_traag.png,images/cb_traag.png,0,,,,,,,,,,,,,,,,,,,,,,
,,,,,00045,2023-10-11_20h43.39.374,vbt_B1_day4,2022.2.4,Win32,60.15037594,,,,,,down,0,4.4858,,-0.119444459,-0.188888903,1,0,0,0,26,26,31,1,poes,images/br_poes.png,images/cb_poes.png,0,,,,,,,,,,,,,,,,,,,,,,
,,,,,00045,2023-10-11_20h43.39.374,vbt_B1_day4,2022.2.4,Win32,60.15037594,,,,,,down,0,15.5998,,-0.119444459,-0.188888903,1,0,0,0,27,27,63,1,flirt,images/br_flirt.png,images/cb_flirt.png,0,,,,,,,,,,,,,,,,,,,,,,
,,,,,00045,2023-10-11_20h43.39.374,vbt_B1_day4,2022.2.4,Win32,60.15037594,,,,,,down,0,4.3659,,-0.119444459,-0.188888903,1,0,0,0,28,28,106,1,zingen,images/br_zingen.png,images/cb_zingen.png,1,zingen,,,,,,,,,,,,,,,,,,,,,
,,,,,00045,2023-10-11_20h43.39.374,vbt_B1_day4,2022.2.4,Win32,60.15037594,,,,,,down,0,0.486,,-0.119444459,-0.188888903,1,0,0,0,29,29,10,1,leek,images/br_leek.png,images/cb_leek.png,0,,,,,,,,,,,,,,,,,,,,,,
,,,,,00045,2023-10-11_20h43.39.374,vbt_B1_day4,2022.2.4,Win32,60.15037594,,,,,,down,0,5.7945,,-0.119444459,-0.188888903,1,0,0,0,30,30,194,1,driemaal,images/br_driemaal.png,images/cb_driemaal.png,0,,,,,,,,,,,,,,,,,,,,,,
,,,,,00045,2023-10-11_20h43.39.374,vbt_B1_day4,2022.2.4,Win32,60.15037594,,,,,,down,0,14.5157,,-0.119444459,-0.188888903,1,0,0,0,31,31,116,1,besmet,images/br_besmet.png,images/cb_besmet.png,0,,,,,,,,,,,,,,,,,,,,,,
,,,,,00045,2023-10-11_20h43.39.374,vbt_B1_day4,2022.2.4,Win32,60.15037594,,,,,,down,0,7.2229,,-0.119444459,-0.188888903,1,0,0,0,32,32,99,1,koffie,images/br_koffie.png,images/cb_koffie.png,0,,,,,,,,,,,,,,,,,,,,,,
,,,,,00045,2023-10-11_20h43.39.374,vbt_B1_day4,2022.2.4,Win32,60.15037594,,,,,,down,0,2.9938,,-0.119444459,-0.188888903,1,0,0,0,33,33,25,1,plek,images/br_plek.png,images/cb_plek.png,1,plek,,,,,,,,,,,,,,,,,,,,,
,,,,,00045,2023-10-11_20h43.39.374,vbt_B1_day4,2022.2.4,Win32,60.15037594,,,,,,down,0,4.8449,,-0.119444459,-0.188888903,1,0,0,0,34,34,44,1,flits,images/br_flits.png,images/cb_flits.png,0,,,,,,,,,,,,,,,,,,,,,,
,,,,,00045,2023-10-11_20h43.39.374,vbt_B1_day4,2022.2.4,Win32,60.15037594,,,,,,down,0,6.9647,,-0.121296282,-0.188888903,1,0,0,0,35,35,43,1,klauw,images/br_klauw.png,images/cb_klauw.png,0,,,,,,,,,,,,,,,,,,,,,,
,,,,,00045,2023-10-11_20h43.39.374,vbt_B1_day4,2022.2.4,Win32,60.15037594,,,,,,down,0,14.0004,,-0.288888861,-0.013888889,1,0,0,0,36,36,179,1,woestijn,images/br_woestijn.png,images/cb_woestijn.png,0,,,,,,,,,,,,,,,,,,,,,,
,,,,,00045,2023-10-11_20h43.39.374,vbt_B1_day4,2022.2.4,Win32,60.15037594,,,,,,down,0,4.6368,,-0.288888861,-0.013888889,1,0,0,0,37,37,131,1,opzicht,images/br_opzicht.png,images/cb_opzicht.png,0,,,,,,,,,,,,,,,,,,,,,,
,,,,,00045,2023-10-11_20h43.39.374,vbt_B1_day4,2022.2.4,Win32,60.15037594,,,,,,down,0,3.0653,,-0.288888861,-0.013888889,1,0,0,0,38,38,61,1,groen,images/br_groen.png,images/cb_groen.png,0,,,,,,,,,,,,,,,,,,,,,,
,,,,,00045,2023-10-11_20h43.39.374,vbt_B1_day4,2022.2.4,Win32,60.15037594,,,,,,down,0,3.9388,,-0.288888861,-0.013888889,1,0,0,0,39,39,144,1,eetlust,images/br_eetlust.png,images/cb_eetlust.png,1,eetlust,,,,,,,,,,,,,,,,,,,,,
,,,,,00045,2023-10-11_20h43.39.374,vbt_B1_day4,2022.2.4,Win32,60.15037594,,,,,,down,0,8.4056,,-0.288888861,-0.013888889,1,0,0,0,40,40,133,1,seizoen,images/br_seizoen.png,images/cb_seizoen.png,0,,,,,,,,,,,,,,,,,,,,,,
,,,,,00045,2023-10-11_20h43.39.374,vbt_B1_day4,2022.2.4,Win32,60.15037594,,,,,,down,0,6.7796,,-0.288888861,-0.013888889,1,0,0,0,41,41,59,1,kring,images/br_kring.png,images/cb_kring.png,0,,,,,,,,,,,,,,,,,,,,,,
,,,,,00045,2023-10-11_20h43.39.374,vbt_B1_day4,2022.2.4,Win32,60.15037594,,,,,,down,0,0.2041,,-0.288888861,-0.013888889,1,0,0,0,42,42,37,1,mijn,images/br_mijn.png,images/cb_mijn.png,0,,,,,,,,,,,,,,,,,,,,,,
,,,,,00045,2023-10-11_20h43.39.374,vbt_B1_day4,2022.2.4,Win32,60.15037594,,,,,,down,0,7.2893,,-0.288888861,-0.013888889,1,0,0,0,43,43,130,1,keihard,images/br_keihard.png,images/cb_keihard.png,0,,,,,,,,,,,,,,,,,,,,,,
,,,,,00045,2023-10-11_20h43.39.374,vbt_B1_day4,2022.2.4,Win32,60.15037594,,,,,,down,0,3.1291,,-0.288888861,-0.013888889,1,0,0,0,44,44,13,1,kaal,images/br_kaal.png,images/cb_kaal.png,0,,,,,,,,,,,,,,,,,,,,,,
,,,,,00045,2023-10-11_20h43.39.374,vbt_B1_day4,2022.2.4,Win32,60.15037594,,,,,,down,0,0.3016,,-0.288888861,-0.013888889,1,0,0,0,45,45,188,1,strekken,images/br_strekken.png,images/cb_strekken.png,0,,,,,,,,,,,,,,,,,,,,,,
,,,,,00045,2023-10-11_20h43.39.374,vbt_B1_day4,2022.2.4,Win32,60.15037594,,,,,,down,0,0.4935,,-0.288888861,-0.013888889,1,0,0,0,46,46,138,1,akkoord,images/br_akkoord.png,images/cb_akkoord.png,0,,,,,,,,,,,,,,,,,,,,,,
,,,,,00045,2023-10-11_20h43.39.374,vbt_B1_day4,2022.2.4,Win32,60.15037594,,,,,,down,0,0.2602,,-0.288888861,-0.013888889,1,0,0,0,47,47,120,1,klimmen,images/br_klimmen.png,images/cb_klimmen.png,0,,,,,,,,,,,,,,,,,,,,,,
,,,,,00045,2023-10-11_20h43.39.374,vbt_B1_day4,2022.2.4,Win32,60.15037594,,,,,,down,0,4.5103,,-0.287962949,-0.009259259,1,0,0,0,48,48,185,1,mijnheer,images/br_mijnheer.png,images/cb_mijnheer.png,1,mijnheer,,,,,,,,,,,,,,,,,,,,,
,,,,,00045,2023-10-11_20h43.39.374,vbt_B1_day4,2022.2.4,Win32,60.15037594,,,,,,down,0,3.6944,,-0.287962949,-0.009259259,1,0,0,0,49,49,182,1,bijkomen,images/br_bijkomen.png,images/cb_bijkomen.png,0,,,,,,,,,,,,,,,,,,,,,,
,,,,,00045,2023-10-11_20h43.39.374,vbt_B1_day4,2022.2.4,Win32,60.15037594,,,,,,down,0,0.3506,,-0.287962949,-0.009259259,1,0,0,0,50,50,74,1,graaf,images/br_graaf.png,images/cb_graaf.png,0,,,,,,,,,,,,,,,,,,,,,,
,,,,,00045,2023-10-11_20h43.39.374,vbt_B1_day4,2022.2.4,Win32,60.15037594,,,,,,down,0,2.1057,,-0.287962949,-0.009259259,1,0,0,0,51,51,49,1,laken,images/br_laken.png,images/cb_laken.png,0,,,,,,,,,,,,,,,,,,,,,,
,,,,,00045,2023-10-11_20h43.39.374,vbt_B1_day4,2022.2.4,Win32,60.15037594,,,,,,down,0,16.733,,-0.287962949,-0.009259259,1,0,0,0,52,52,178,1,huisdier,images/br_huisdier.png,images/cb_huisdier.png,0,,,,,,,,,,,,,,,,,,,,,,
,,,,,00045,2023-10-11_20h43.39.374,vbt_B1_day4,2022.2.4,Win32,60.15037594,,,,,,down,0,2.6468,,-0.287962949,-0.009259259,1,0,0,0,53,53,146,1,opkomen,images/br_opkomen.png,images/cb_opkomen.png,1,opkomen,,,,,,,,,,,,,,,,,,,,,
,,,,,00045,2023-10-11_20h43.39.374,vbt_B1_day4,2022.2.4,Win32,60.15037594,,,,,,down,0,3.545,,-0.287962949,-0.009259259,1,0,0,0,54,54,64,1,wegen,images/br_wegen.png,images/cb_wegen.png,1,zegen,,,,,,,,,,,,,,,,,,,,,
,,,,,00045,2023-10-11_20h43.39.374,vbt_B1_day4,2022.2.4,Win32,60.15037594,,,,,,down,0,7.5791,,-0.287962949,-0.009259259,1,0,0,0,55,55,167,1,eenhoorn,images/br_eenhoorn.png,images/cb_eenhoorn.png,0,,,,,,,,,,,,,,,,,,,,,,
,,,,,00045,2023-10-11_20h43.39.374,vbt_B1_day4,2022.2.4,Win32,60.15037594,,,,,,down,0,2.5472,,-0.287962949,-0.009259259,1,0,0,0,56,56,82,1,muziek,images/br_muziek.png,images/cb_muziek.png,0,,,,,,,,,,,,,,,,,,,,,,
,,,,,00045,2023-10-11_20h43.39.374,vbt_B1_day4,2022.2.4,Win32,60.15037594,,,,,,down,0,6.5069,,-0.287962949,-0.009259259,1,0,0,0,57,57,165,1,feestdag,images/br_feestdag.png,images/cb_feestdag.png,0,,,,,,,,,,,,,,,,,,,,,,
,,,,,00045,2023-10-11_20h43.39.374,vbt_B1_day4,2022.2.4,Win32,60.15037594,,,,,,down,0,3.1188,,-0.287962949,-0.009259259,1,0,0,0,58,58,145,1,invloed,images/br_invloed.png,images/cb_invloed.png,1,invloed,,,,,,,,,,,,,,,,,,,,,
,,,,,00045,2023-10-11_20h43.39.374,vbt_B1_day4,2022.2.4,Win32,60.15037594,,,,,,down,0,1.6482,,-0.287962949,-0.009259259,1,0,0,0,59,59,141,1,knielen,images/br_knielen.png,images/cb_knielen.png,0,,,,,,,,,,,,,,,,,,,,,,
,,,,,00045,2023-10-11_20h43.39.374,vbt_B1_day4,2022.2.4,Win32,60.15037594,,,,,,down,0,2.2194,,-0.287962949,-0.009259259,1,0,0,0,60,60,177,1,maaltijd,images/br_maaltijd.png,images/cb_maaltijd.png,0,,,,,,,,,,,,,,,,,,,,,,
,,,,,00045,2023-10-11_20h43.39.374,vbt_B1_day4,2022.2.4,Win32,60.15037594,,,,,,down,0,11.8213,,-0.287962949,-0.009259259,1,0,0,0,61,61,128,1,prikken,images/br_prikken.png,images/cb_prikken.png,0,,,,,,,,,,,,,,,,,,,,,,
,,,,,00045,2023-10-11_20h43.39.374,vbt_B1_day4,2022.2.4,Win32,60.15037594,,,,,,down,0,0.7328,,-0.287962949,-0.009259259,1,0,0,0,62,62,110,1,zuster,images/br_zuster.png,images/cb_zuster.png,0,,,,,,,,,,,,,,,,,,,,,,
,,,,,00045,2023-10-11_20h43.39.374,vbt_B1_day4,2022.2.4,Win32,60.15037594,,,,,,down,0,4.4937,,-0.287962949,-0.009259259,1,0,0,0,63,63,101,1,staren,images/br_staren.png,images/cb_staren.png,0,,,,,,,,,,,,,,,,,,,,,,
,,,,,00045,2023-10-11_20h43.39.374,vbt_B1_day4,2022.2.4,Win32,60.15037594,,,,,,down,0,2.4968,,-0.287962949,-0.009259259,1,0,0,0,64,64,0,1,slak,images/br_slak.png,images/cb_slak.png,0,,,,,,,,,,,,,,,,,,,,,,
,,,,,00045,2023-10-11_20h43.39.374,vbt_B1_day4,2022.2.4,Win32,60.15037594,,,,,,down,0,44.9779,,-0.287962949,-0.009259259,1,0,0,0,65,65,23,1,zout,images/br_zout.png,images/cb_zout.png,0,,,,,,,,,,,,,,,,,,,,,,
,,,,,00045,2023-10-11_20h43.39.374,vbt_B1_day4,2022.2.4,Win32,60.15037594,,,,,,down,0,8.0284,,-0.287962949,-0.009259259,1,0,0,0,66,66,96,1,slagen,images/br_slagen.png,images/cb_slagen.png,0,,,,,,,,,,,,,,,,,,,,,,
,,,,,00045,2023-10-11_20h43.39.374,vbt_B1_day4,2022.2.4,Win32,60.15037594,,,,,,down,0,0.1835,,-0.287962949,-0.009259259,1,0,0,0,67,67,72,1,strak,images/br_strak.png,images/cb_strak.png,0,,,,,,,,,,,,,,,,,,,,,,
,,,,,00045,2023-10-11_20h43.39.374,vbt_B1_day4,2022.2.4,Win32,60.15037594,,,,,,down,0,7.7229,,-0.287962949,-0.009259259,1,0,0,0,68,68,150,1,gegeven,images/br_gegeven.png,images/cb_gegeven.png,0,,,,,,,,,,,,,,,,,,,,,,
,,,,,00045,2023-10-11_20h43.39.374,vbt_B1_day4,2022.2.4,Win32,60.15037594,,,,,,down,0,0.4332,,-0.287962949,-0.009259259,1,0,0,0,69,69,36,1,vuur,images/br_vuur.png,images/cb_vuur.png,0,,,,,,,,,,,,,,,,,,,,,,
,,,,,00045,2023-10-11_20h43.39.374,vbt_B1_day4,2022.2.4,Win32,60.15037594,,,,,,down,0,1.0253,,-0.287962949,-0.009259259,1,0,0,0,70,70,87,1,toeval,images/br_toeval.png,images/cb_toeval.png,0,,,,,,,,,,,,,,,,,,,,,,
,,,,,00045,2023-10-11_20h43.39.374,vbt_B1_day4,2022.2.4,Win32,60.15037594,,,,,,down,0,2.6997,,-0.287962949,-0.009259259,1,0,0,0,71,71,40,1,schep,images/br_schep.png,images/cb_schep.png,0,,,,,,,,,,,,,,,,,,,,,,
,,,,,00045,2023-10-11_20h43.39.374,vbt_B1_day4,2022.2.4,Win32,60.15037594,,,,,,down,0,19.9456,,-0.287962949,-0.009259259,1,0,0,0,72,72,137,1,trekker,images/br_trekker.png,images/cb_trekker.png,0,,,,,,,,,,,,,,,,,,,,,,
,,,,,00045,2023-10-11_20h43.39.374,vbt_B1_day4,2022.2.4,Win32,60.15037594,,,,,,down,0,1.8577,,-0.287962949,-0.009259259,1,0,0,0,73,73,22,1,stof,images/br_stof.png,images/cb_stof.png,0,,,,,,,,,,,,,,,,,,,,,,
,,,,,00045,2023-10-11_20h43.39.374,vbt_B1_day4,2022.2.4,Win32,60.15037594,,,,,,down,0,4.8929,,-0.287962949,-0.009259259,1,0,0,0,74,74,186,1,voorraad,images/br_voorraad.png,images/cb_voorraad.png,1,voorraad,,,,,,,,,,,,,,,,,,,,,
,,,,,00045,2023-10-11_20h43.39.374,vbt_B1_day4,2022.2.4,Win32,60.15037594,,,,,,down,0,1.5074,,-0.287962949,-0.009259259,1,0,0,0,75,75,154,1,aflopen,images/br_aflopen.png,images/cb_aflopen.png,0,,,,,,,,,,,,,,,,,,,,,,
,,,,,00045,2023-10-11_20h43.39.374,vbt_B1_day4,2022.2.4,Win32,60.15037594,,,,,,down,0,4.5435,,-0.287962949,-0.009259259,1,0,0,0,76,76,108,1,excuus,images/br_excuus.png,images/cb_excuus.png,0,,,,,,,,,,,,,,,,,,,,,,
,,,,,00045,2023-10-11_20h43.39.374,vbt_B1_day4,2022.2.4,Win32,60.15037594,,,,,,down,0,12.6138,,-0.287962949,-0.009259259,1,0,0,0,77,77,176,1,techniek,images/br_techniek.png,images/cb_techniek.png,0,,,,,,,,,,,,,,,,,,,,,,
,,,,,00045,2023-10-11_20h43.39.374,vbt_B1_day4,2022.2.4,Win32,60.15037594,,,,,,down,0,2.8955,,-0.287962949,-0.009259259,1,0,0,0,78,78,180,1,openbaar,images/br_openbaar.png,images/cb_openbaar.png,0,,,,,,,,,,,,,,,,,,,,,,
,,,,,00045,2023-10-11_20h43.39.374,vbt_B1_day4,2022.2.4,Win32,60.15037594,,,,,,down,0,9.4018,,-0.287962949,-0.009259259,1,0,0,0,79,79,199,1,beseffen,images/br_beseffen.png,images/cb_beseffen.png,0,,,,,,,,,,,,,,,,,,,,,,
,,,,,00045,2023-10-11_20h43.39.374,vbt_B1_day4,2022.2.4,Win32,60.15037594,,,,,,down,0,2.027,,-0.287962949,-0.009259259,1,0,0,0,80,80,2,1,jaar,images/br_jaar.png,images/cb_jaar.png,0,,,,,,,,,,,,,,,,,,,,,,
,,,,,00045,2023-10-11_20h43.39.374,vbt_B1_day4,2022.2.4,Win32,60.15037594,,,,,,down,0,0.4272,,-0.287962949,-0.009259259,1,0,0,0,81,81,136,1,waarbij,images/br_waarbij.png,images/cb_waarbij.png,0,,,,,,,,,,,,,,,,,,,,,,
,,,,,00045,2023-10-11_20h43.39.374,vbt_B1_day4,2022.2.4,Win32,60.15037594,,,,,,down,0,2.2349,,-0.287962949,-0.009259259,1,0,0,0,82,82,142,1,snuiven,images/br_snuiven.png,images/cb_snuiven.png,0,,,,,,,,,,,,,,,,,,,,,,
,,,,,00045,2023-10-11_20h43.39.374,vbt_B1_day4,2022.2.4,Win32,60.15037594,,,,,,down,0,2.6687,,-0.287962949,-0.009259259,1,0,0,0,83,83,168,1,bisschop,images/br_bisschop.png,images/cb_bisschop.png,0,,,,,,,,,,,,,,,,,,,,,,
,,,,,00045,2023-10-11_20h43.39.374,vbt_B1_day4,2022.2.4,Win32,60.15037594,,,,,,down,0,4.577,,-0.287962949,-0.009259259,1,0,0,0,84,84,34,1,vorm,images/br_vorm.png,images/cb_vorm.png,0,,,,,,,,,,,,,,,,,,,,,,
,,,,,00045,2023-10-11_20h43.39.374,vbt_B1_day4,2022.2.4,Win32,60.15037594,,,,,,down,0,4.3015,,-0.287962949,-0.009259259,1,0,0,0,85,85,66,1,lever,images/br_lever.png,images/cb_lever.png,1,lever,,,,,,,,,,,,,,,,,,,,,
,,,,,00045,2023-10-11_20h43.39.374,vbt_B1_day4,2022.2.4,Win32,60.15037594,,,,,,down,0,2.1142,,-0.287962949,-0.009259259,1,0,0,0,86,86,12,1,kust,images/br_kust.png,images/cb_kust.png,0,,,,,,,,,,,,,,,,,,,,,,
,,,,,00045,2023-10-11_20h43.39.374,vbt_B1_day4,2022.2.4,Win32,60.15037594,,,,,,down,0,4.9423,,-0.287962949,-0.009259259,1,0,0,0,87,87,79,1,nodig,images/br_nodig.png,images/cb_nodig.png,0,,,,,,,,,,,,,,,,,,,,,,
,,,,,00045,2023-10-11_20h43.39.374,vbt_B1_day4,2022.2.4,Win32,60.15037594,,,,,,down,0,5.2503,,-0.287962949,-0.009259259,1,0,0,0,88,88,86,1,woning,images/br_woning.png,images/cb_woning.png,0,,,,,,,,,,,,,,,,,,,,,,
,,,,,00045,2023-10-11_20h43.39.374,vbt_B1_day4,2022.2.4,Win32,60.15037594,,,,,,down,0,0.4667,,-0.287962949,-0.009259259,1,0,0,0,89,89,126,1,kasteel,images/br_kasteel.png,images/cb_kasteel.png,0,,,,,,,,,,,,,,,,,,,,,,
,,,,,00045,2023-10-11_20h43.39.374,vbt_B1_day4,2022.2.4,Win32,60.15037594,,,,,,down,0,3.312,,-0.287962949,-0.009259259,1,0,0,0,90,90,123,1,hiervan,images/br_hiervan.png,images/cb_hiervan.png,0,,,,,,,,,,,,,,,,,,,,,,
,,,,,00045,2023-10-11_20h43.39.374,vbt_B1_day4,2022.2.4,Win32,60.15037594,,,,,,down,0,0.073,,-0.287962949,-0.009259259,1,0,0,0,91,91,53,1,baron,images/br_baron.png,images/cb_baron.png,0,,,,,,,,,,,,,,,,,,,,,,
,,,,,00045,2023-10-11_20h43.39.374,vbt_B1_day4,2022.2.4,Win32,60.15037594,,,,,,down,0,0.1675,,-0.287962949,-0.009259259,1,0,0,0,92,92,19,1,geit,images/br_geit.png,images/cb_geit.png,0,,,,,,,,,,,,,,,,,,,,,,
,,,,,00045,2023-10-11_20h43.39.374,vbt_B1_day4,2022.2.4,Win32,60.15037594,,,,,,down,0,0.7024,,-0.287962949,-0.009259259,1,0,0,0,93,93,1,1,zaal,images/br_zaal.png,images/cb_zaal.png,0,,,,,,,,,,,,,,,,,,,,,,
,,,,,00045,2023-10-11_20h43.39.374,vbt_B1_day4,2022.2.4,Win32,60.15037594,,,,,,down,0,5.8084,,-0.287962949,-0.009259259,1,0,0,0,94,94,149,1,redding,images/br_redding.png,images/cb_redding.png,0,,,,,,,,,,,,,,,,,,,,,,
,,,,,00045,2023-10-11_20h43.39.374,vbt_B1_day4,2022.2.4,Win32,60.15037594,,,,,,down,0,0.7233,,-0.287962949,-0.009259259,1,0,0,0,95,95,76,1,afval,images/br_afval.png,images/cb_afval.png,0,,,,,,,,,,,,,,,,,,,,,,
,,,,,00045,2023-10-11_20h43.39.374,vbt_B1_day4,2022.2.4,Win32,60.15037594,,,,,,down,0,7.6717,,-0.287962949,-0.009259259,1,0,0,0,96,96,28,1,stal,images/br_stal.png,images/cb_stal.png,0,,,,,,,,,,,,,,,,,,,,,,
,,,,,00045,2023-10-11_20h43.39.374,vbt_B1_day4,2022.2.4,Win32,60.15037594,,,,,,down,0,1.5702,,-0.287962949,-0.009259259,1,0,0,0,97,97,65,1,parel,images/br_parel.png,images/cb_parel.png,1,parel,,,,,,,,,,,,,,,,,,,,,
,,,,,00045,2023-10-11_20h43.39.374,vbt_B1_day4,2022.2.4,Win32,60.15037594,,,,,,down,0,0.1357,,-0.287962949,-0.009259259,1,0,0,0,98,98,48,1,steel,images/br_steel.png,images/cb_steel.png,0,,,,,,,,,,,,,,,,,,,,,,
,,,,,00045,2023-10-11_20h43.39.374,vbt_B1_day4,2022.2.4,Win32,60.15037594,,,,,,down,0,0.7904,,-0.287962949,-0.009259259,1,0,0,0,99,99,190,1,goedkoop,images/br_goedkoop.png,images/cb_goedkoop.png,0,,,,,,,,,,,,,,,,,,,,,,
,,,,,00045,2023-10-11_20h43.39.374,vbt_B1_day4,2022.2.4,Win32,60.15037594,,,,,,down,0,0.4373,,-0.287962949,-0.009259259,1,0,0,0,100,100,5,1,blad,images/br_blad.png,images/cb_blad.png,0,,,,,,,,,,,,,,,,,,,,,,
,,,,,00045,2023-10-11_20h43.39.374,vbt_B1_day4,2022.2.4,Win32,60.15037594,,,,,,down,0,4.5596,,-0.287962949,-0.009259259,1,0,0,0,101,101,103,1,joggen,images/br_joggen.png,images/cb_joggen.png,0,,,,,,,,,,,,,,,,,,,,,,
,,,,,00045,2023-10-11_20h43.39.374,vbt_B1_day4,2022.2.4,Win32,60.15037594,,,,,,down,0,0.4363,,-0.287962949,-0.009259259,1,0,0,0,102,102,91,1,gezond,images/br_gezond.png,images/cb_gezond.png,0,,,,,,,,,,,,,,,,,,,,,,
,,,,,00045,2023-10-11_20h43.39.374,vbt_B1_day4,2022.2.4,Win32,60.15037594,,,,,,down,0,16.6737,,-0.287962949,-0.009259259,1,0,0,0,103,103,164,1,anarchie,images/br_anarchie.png,images/cb_anarchie.png,0,,,,,,,,,,,,,,,,,,,,,,
,,,,,00045,2023-10-11_20h43.39.374,vbt_B1_day4,2022.2.4,Win32,60.15037594,,,,,,down,0,0.0858,,-0.287962949,-0.009259259,1,0,0,0,104,104,90,1,geluid,images/br_geluid.png,images/cb_geluid.png,0,,,,,,,,,,,,,,,,,,,,,,
,,,,,00045,2023-10-11_20h43.39.374,vbt_B1_day4,2022.2.4,Win32,60.15037594,,,,,,down,0,0.7231,,-0.287962949,-0.009259259,1,0,0,0,105,105,41,1,maken,images/br_maken.png,images/cb_maken.png,0,,,,,,,,,,,,,,,,,,,,,,
,,,,,00045,2023-10-11_20h43.39.374,vbt_B1_day4,2022.2.4,Win32,60.15037594,,,,,,down,0,1.9514,,-0.287962949,-0.009259259,1,0,0,0,106,106,132,1,grappen,images/br_grappen.png,images/cb_grappen.png,0,,,,,,,,,,,,,,,,,,,,,,
,,,,,00045,2023-10-11_20h43.39.374,vbt_B1_day4,2022.2.4,Win32,60.15037594,,,,,,down,0,3.9776,,-0.287962949,-0.009259259,1,0,0,0,107,107,152,1,afnemen,images/br_afnemen.png,images/cb_afnemen.png,0,,,,,,,,,,,,,,,,,,,,,,
,,,,,00045,2023-10-11_20h43.39.374,vbt_B1_day4,2022.2.4,Win32,60.15037594,,,,,,down,0,4.643,,-0.287962949,-0.009259259,1,0,0,0,108,108,83,1,mening,images/br_mening.png,images/cb_mening.png,0,,,,,,,,,,,,,,,,,,,,,,
,,,,,00045,2023-10-11_20h43.39.374,vbt_B1_day4,2022.2.4,Win32,60.15037594,,,,,,down,0,21.3497,,-0.287962949,-0.009259259,1,0,0,0,109,109,109,1,totaal,images/br_totaal.png,images/cb_totaal.png,0,,,,,,,,,,,,,,,,,,,,,,
,,,,,00045,2023-10-11_20h43.39.374,vbt_B1_day4,2022.2.4,Win32,60.15037594,,,,,,down,0,0.0546,,-0.287962949,-0.009259259,1,0,0,0,110,110,113,1,koppen,images/br_koppen.png,images/cb_koppen.png,0,,,,,,,,,,,,,,,,,,,,,,
,,,,,00045,2023-10-11_20h43.39.374,vbt_B1_day4,2022.2.4,Win32,60.15037594,,,,,,down,0,0.0212,,-0.287962949,-0.009259259,1,0,0,0,111,111,93,1,waarop,images/br_waarop.png,images/cb_waarop.png,0,,,,,,,,,,,,,,,,,,,,,,
,,,,,00045,2023-10-11_20h43.39.374,vbt_B1_day4,2022.2.4,Win32,60.15037594,,,,,,down,0,9.1209,,-0.287962949,-0.009259259,1,0,0,0,112,112,21,1,mist,images/br_mist.png,images/cb_mist.png,0,,,,,,,,,,,,,,,,,,,,,,
,,,,,00045,2023-10-11_20h43.39.374,vbt_B1_day4,2022.2.4,Win32,60.15037594,,,,,,down,0,2.7133,,-0.287962949,-0.009259259,1,0,0,0,113,113,102,1,legaal,images/br_legaal.png,images/cb_legaal.png,0,,,,,,,,,,,,,,,,,,,,,,
,,,,,00045,2023-10-11_20h43.39.374,vbt_B1_day4,2022.2.4,Win32,60.15037594,,,,,,down,0,4.2607,,-0.287962949,-0.009259259,1,0,0,0,114,114,127,1,doodmoe,images/br_doodmoe.png,images/cb_doodmoe.png,0,,,,,,,,,,,,,,,,,,,,,,
,,,,,00045,2023-10-11_20h43.39.374,vbt_B1_day4,2022.2.4,Win32,60.15037594,,,,,,down,0,3.2546,,-0.287962949,-0.009259259,1,0,0,0,115,115,15,1,soda,images/br_soda.png,images/cb_soda.png,0,,,,,,,,,,,,,,,,,,,,,,
,,,,,00045,2023-10-11_20h43.39.374,vbt_B1_day4,2022.2.4,Win32,60.15037594,,,,,,down,0,0.3174,,-0.287962949,-0.009259259,1,0,0,0,116,116,39,1,laag,images/br_laag.png,images/cb_laag.png,0,,,,,,,,,,,,,,,,,,,,,,
,,,,,00045,2023-10-11_20h43.39.374,vbt_B1_day4,2022.2.4,Win32,60.15037594,,,,,,down,0,1.0674,,-0.287962949,-0.009259259,1,0,0,0,117,117,157,1,uitlaat,images/br_uitlaat.png,images/cb_uitlaat.png,0,,,,,,,,,,,,,,,,,,,,,,
,,,,,00045,2023-10-11_20h43.39.374,vbt_B1_day4,2022.2.4,Win32,60.15037594,,,,,,down,0,3.1552,,-0.287962949,-0.009259259,1,0,0,0,118,118,18,1,blik,images/br_blik.png,images/cb_blik.png,0,,,,,,,,,,,,,,,,,,,,,,
,,,,,00045,2023-10-11_20h43.39.374,vbt_B1_day4,2022.2.4,Win32,60.15037594,,,,,,down,0,4.1771,,-0.287962949,-0.009259259,1,0,0,0,119,119,189,1,aanraden,images/br_aanraden.png,images/cb_aanraden.png,0,,,,,,,,,,,,,,,,,,,,,,
,,,,,00045,2023-10-11_20h43.39.374,vbt_B1_day4,2022.2.4,Win32,60.15037594,,,,,,down,0,2.3505,,-0.287962949,-0.009259259,1,0,0,0,120,120,122,1,waarvan,images/br_waarvan.png,images/cb_waarvan.png,0,,,,,,,,,,,,,,,,,,,,,,
,,,,,00045,2023-10-11_20h43.39.374,vbt_B1_day4,2022.2.4,Win32,60.15037594,,,,,,down,0,0.2837,,-0.287962949,-0.009259259,1,0,0,0,121,121,97,1,loyaal,images/br_loyaal.png,images/cb_loyaal.png,0,,,,,,,,,,,,,,,,,,,,,,
,,,,,00045,2023-10-11_20h43.39.374,vbt_B1_day4,2022.2.4,Win32,60.15037594,,,,,,down,0,4.3344,,-0.287962949,-0.009259259,1,0,0,0,122,122,104,1,zweven,images/br_zweven.png,images/cb_zweven.png,1,zweven,,,,,,,,,,,,,,,,,,,,,
,,,,,00045,2023-10-11_20h43.39.374,vbt_B1_day4,2022.2.4,Win32,60.15037594,,,,,,down,0,6.6067,,-0.287962949,-0.009259259,1,0,0,0,123,123,121,1,twijfel,images/br_twijfel.png,images/cb_twijfel.png,0,,,,,,,,,,,,,,,,,,,,,,
,,,,,00045,2023-10-11_20h43.39.374,vbt_B1_day4,2022.2.4,Win32,60.15037594,,,,,,down,0,2.7799,,-0.287962949,-0.009259259,1,0,0,0,124,124,27,1,dans,images/br_dans.png,images/cb_dans.png,1,dans,,,,,,,,,,,,,,,,,,,,,
,,,,,00045,2023-10-11_20h43.39.374,vbt_B1_day4,2022.2.4,Win32,60.15037594,,,,,,down,0,1.0198,,-0.287962949,-0.009259259,1,0,0,0,125,125,118,1,vinger,images/br_vinger.png,images/cb_vinger.png,0,,,,,,,,,,,,,,,,,,,,,,
,,,,,00045,2023-10-11_20h43.39.374,vbt_B1_day4,2022.2.4,Win32,60.15037594,,,,,,down,0,6.5156,,-0.287962949,-0.009259259,1,0,0,0,126,126,193,1,weeshuis,images/br_weeshuis.png,images/cb_weeshuis.png,0,,,,,,,,,,,,,,,,,,,,,,
,,,,,00045,2023-10-11_20h43.39.374,vbt_B1_day4,2022.2.4,Win32,60.15037594,,,,,,down,0,19.2277,,-0.287962949,-0.009259259,1,0,0,0,127,127,14,1,rijp,images/br_rijp.png,images/cb_rijp.png,0,,,,,,,,,,,,,,,,,,,,,,
,,,,,00045,2023-10-11_20h43.39.374,vbt_B1_day4,2022.2.4,Win32,60.15037594,,,,,,down,0,6.1849,,-0.287037037,-0.009259259,1,0,0,0,128,128,107,1,maling,images/br_maling.png,images/cb_maling.png,1,maling,,,,,,,,,,,,,,,,,,,,,
,,,,,00045,2023-10-11_20h43.39.374,vbt_B1_day4,2022.2.4,Win32,60.15037594,,,,,,down,0,1.7481,,-0.287037037,-0.009259259,1,0,0,0,129,129,67,1,zwart,images/br_zwart.png,images/cb_zwart.png,1,zwart,,,,,,,,,,,,,,,,,,,,,
,,,,,00045,2023-10-11_20h43.39.374,vbt_B1_day4,2022.2.4,Win32,60.15037594,,,,,,down,0,5.4628,,-0.287037037,-0.009259259,1,0,0,0,130,130,81,1,dubbel,images/br_dubbel.png,images/cb_dubbel.png,0,,,,,,,,,,,,,,,,,,,,,,
,,,,,00045,2023-10-11_20h43.39.374,vbt_B1_day4,2022.2.4,Win32,60.15037594,,,,,,down,0,1.9183,,-0.287037037,-0.009259259,1,0,0,0,131,131,7,1,geld,images/br_geld.png,images/cb_geld.png,0,,,,,,,,,,,,,,,,,,,,,,
,,,,,00045,2023-10-11_20h43.39.374,vbt_B1_day4,2022.2.4,Win32,60.15037594,,,,,,down,0,2.6462,,-0.287037037,-0.009259259,1,0,0,0,132,132,129,1,verhaal,images/br_verhaal.png,images/cb_verhaal.png,0,,,,,,,,,,,,,,,,,,,,,,
,,,,,00045,2023-10-11_20h43.39.374,vbt_B1_day4,2022.2.4,Win32,60.15037594,,,,,,down,0,8.2154,,-0.287037037,-0.009259259,1,0,0,0,133,133,147,1,komisch,images/br_komisch.png,images/cb_komisch.png,1,komisch,,,,,,,,,,,,,,,,,,,,,
,,,,,00045,2023-10-11_20h43.39.374,vbt_B1_day4,2022.2.4,Win32,60.15037594,,,,,,down,0,0.3774,,-0.287037037,-0.009259259,1,0,0,0,134,134,57,1,steek,images/br_steek.png,images/cb_steek.png,0,,,,,,,,,,,,,,,,,,,,,,
,,,,,00045,2023-10-11_20h43.39.374,vbt_B1_day4,2022.2.4,Win32,60.15037594,,,,,,down,0,11.6818,,-0.287037037,-0.009259259,1,0,0,0,135,135,115,1,kleren,images/br_kleren.png,images/cb_kleren.png,0,,,,,,,,,,,,,,,,,,,,,,
,,,,,00045,2023-10-11_20h43.39.374,vbt_B1_day4,2022.2.4,Win32,60.15037594,,,,,,down,0,0.1838,,-0.287037037,-0.009259259,1,0,0,0,136,136,9,1,hier,images/br_hier.png,images/cb_hier.png,0,,,,,,,,,,,,,,,,,,,,,,
,,,,,00045,2023-10-11_20h43.39.374,vbt_B1_day4,2022.2.4,Win32,60.15037594,,,,,,down,0,1.1257,,-0.287037037,-0.009259259,1,0,0,0,137,137,75,1,snoep,images/br_snoep.png,images/cb_snoep.png,0,,,,,,,,,,,,,,,,,,,,,,
,,,,,00045,2023-10-11_20h43.39.374,vbt_B1_day4,2022.2.4,Win32,60.15037594,,,,,,down,0,1.416,,-0.287037037,-0.009259259,1,0,0,0,138,138,4,1,moes,images/br_moes.png,images/cb_moes.png,0,,,,,,,,,,,,,,,,,,,,,,
,,,,,00045,2023-10-11_20h43.39.374,vbt_B1_day4,2022.2.4,Win32,60.15037594,,,,,,down,0,4.019,,-0.287037037,-0.009259259,1,0,0,0,139,139,89,1,slapen,images/br_slapen.png,images/cb_slapen.png,0,,,,,,,,,,,,,,,,,,,,,,
,,,,,00045,2023-10-11_20h43.39.374,vbt_B1_day4,2022.2.4,Win32,60.15037594,,,,,,down,0,4.7774,,-0.287037037,-0.009259259,1,0,0,0,140,140,161,1,attentie,images/br_attentie.png,images/cb_attentie.png,0,,,,,,,,,,,,,,,,,,,,,,
,,,,,00045,2023-10-11_20h43.39.374,vbt_B1_day4,2022.2.4,Win32,60.15037594,,,,,,down,0,2.7461,,-0.287037037,-0.009259259,1,0,0,0,141,141,153,1,vervoer,images/br_vervoer.png,images/cb_vervoer.png,0,,,,,,,,,,,,,,,,,,,,,,
,,,,,00045,2023-10-11_20h43.39.374,vbt_B1_day4,2022.2.4,Win32,60.15037594,,,,,,down,0,7.9382,,-0.287037037,-0.009259259,1,0,0,0,142,142,62,1,knaap,images/br_knaap.png,images/cb_knaap.png,0,,,,,,,,,,,,,,,,,,,,,,
,,,,,00045,2023-10-11_20h43.39.374,vbt_B1_day4,2022.2.4,Win32,60.15037594,,,,,,down,0,2.0363,,-0.287037037,-0.009259259,1,0,0,0,143,143,24,1,jurk,images/br_jurk.png,images/cb_jurk.png,1,jurk,,,,,,,,,,,,,,,,,,,,,
,,,,,00045,2023-10-11_20h43.39.374,vbt_B1_day4,2022.2.4,Win32,60.15037594,,,,,,down,0,1.7353,,-0.287037037,-0.009259259,1,0,0,0,144,144,69,1,waken,images/br_waken.png,images/cb_waken.png,0,,,,,,,,,,,,,,,,,,,,,,
,,,,,00045,2023-10-11_20h43.39.374,vbt_B1_day4,2022.2.4,Win32,60.15037594,,,,,,down,0,5.5503,,-0.287037037,-0.009259259,1,0,0,0,145,145,119,1,liefje,images/br_liefje.png,images/cb_liefje.png,0,,,,,,,,,,,,,,,,,,,,,,
,,,,,00045,2023-10-11_20h43.39.374,vbt_B1_day4,2022.2.4,Win32,60.15037594,,,,,,down,0,32.7348,,-0.287037037,-0.009259259,1,0,0,0,146,146,160,1,daarheen,images/br_daarheen.png,images/cb_daarheen.png,0,,,,,,,,,,,,,,,,,,,,,,
,,,,,00045,2023-10-11_20h43.39.374,vbt_B1_day4,2022.2.4,Win32,60.15037594,,,,,,down,0,0.6825,,-0.287037037,-0.009259259,1,0,0,0,147,147,166,1,strikken,images/br_strikken.png,images/cb_strikken.png,0,,,,,,,,,,,,,,,,,,,,,,
,,,,,00045,2023-10-11_20h43.39.374,vbt_B1_day4,2022.2.4,Win32,60.15037594,,,,,,down,0,0.4333,,-0.287037037,-0.009259259,1,0,0,0,148,148,85,1,heilig,images/br_heilig.png,images/cb_heilig.png,0,,,,,,,,,,,,,,,,,,,,,,
,,,,,00045,2023-10-11_20h43.39.374,vbt_B1_day4,2022.2.4,Win32,60.15037594,,,,,,down,0,0.6495,,-0.287037037,-0.009259259,1,0,0,0,149,149,197,1,spanning,images/br_spanning.png,images/cb_spanning.png,0,,,,,,,,,,,,,,,,,,,,,,
,,,,,00045,2023-10-11_20h43.39.374,vbt_B1_day4,2022.2.4,Win32,60.15037594,,,,,,down,0,39.7385,,-0.287037037,-0.009259259,1,0,0,0,150,150,3,1,mand,images/br_mand.png,images/cb_mand.png,0,,,,,,,,,,,,,,,,,,,,,,
,,,,,00045,2023-10-11_20h43.39.374,vbt_B1_day4,2022.2.4,Win32,60.15037594,,,,,,down,0,0.0605,,-0.287037037,-0.009259259,1,0,0,0,151,151,38,1,baai,images/br_baai.png,images/cb_baai.png,0,,,,,,,,,,,,,,,,,,,,,,
,,,,,00045,2023-10-11_20h43.39.374,vbt_B1_day4,2022.2.4,Win32,60.15037594,,,,,,down,0,3.9778,,-0.287037037,-0.009259259,1,0,0,0,152,152,173,1,apparaat,images/br_apparaat.png,images/cb_apparaat.png,0,,,,,,,,,,,,,,,,,,,,,,
,,,,,00045,2023-10-11_20h43.39.374,vbt_B1_day4,2022.2.4,Win32,60.15037594,,,,,,down,0,1.3115,,-0.287037037,-0.009259259,1,0,0,0,153,153,195,1,middelen,images/br_middelen.png,images/cb_middelen.png,0,,,,,,,,,,,,,,,,,,,,,,
,,,,,00045,2023-10-11_20h43.39.374,vbt_B1_day4,2022.2.4,Win32,60.15037594,,,,,,down,0,6.2236,,-0.287037037,-0.009259259,1,0,0,0,154,154,100,1,geduld,images/br_geduld.png,images/cb_geduld.png,0,,,,,,,,,,,,,,,,,,,,,,
,,,,,00045,2023-10-11_20h43.39.374,vbt_B1_day4,2022.2.4,Win32,60.15037594,,,,,,down,0,5.0426,,-0.287037037,-0.009259259,1,0,0,0,155,155,95,1,vreten,images/br_vreten.png,images/cb_vreten.png,0,,,,,,,,,,,,,,,,,,,,,,
,,,,,00045,2023-10-11_20h43.39.374,vbt_B1_day4,2022.2.4,Win32,60.15037594,,,,,,down,0,1.3986,,-0.287037037,-0.009259259,1,0,0,0,156,156,51,1,samen,images/br_samen.png,images/cb_samen.png,0,,,,,,,,,,,,,,,,,,,,,,
,,,,,00045,2023-10-11_20h43.39.374,vbt_B1_day4,2022.2.4,Win32,60.15037594,,,,,,down,0,1.6389,,-0.287037037,-0.009259259,1,0,0,0,157,157,169,1,oprotten,images/br_oprotten.png,images/cb_oprotten.png,0,,,,,,,,,,,,,,,,,,,,,,
,,,,,00045,2023-10-11_20h43.39.374,vbt_B1_day4,2022.2.4,Win32,60.15037594,,,,,,down,0,1.8644,,-0.287037037,-0.009259259,1,0,0,0,158,158,98,1,kreeft,images/br_kreeft.png,images/cb_kreeft.png,0,,,,,,,,,,,,,,,,,,,,,,
,,,,,00045,2023-10-11_20h43.39.374,vbt_B1_day4,2022.2.4,Win32,60.15037594,,,,,,down,0,0.6829,,-0.287037037,-0.009259259,1,0,0,0,159,159,30,1,uien,images/br_uien.png,images/cb_uien.png,0,,,,,,,,,,,,,,,,,,,,,,
,,,,,00045,2023-10-11_20h43.39.374,vbt_B1_day4,2022.2.4,Win32,60.15037594,,,,,,down,0,2.0304,,-0.287037037,-0.009259259,1,0,0,0,160,160,88,1,boeien,images/br_boeien.png,images/cb_boeien.png,0,,,,,,,,,,,,,,,,,,,,,,
,,,,,00045,2023-10-11_20h43.39.374,vbt_B1_day4,2022.2.4,Win32,60.15037594,,,,,,down,0,0.716,,-0.287037037,-0.009259259,1,0,0,0,161,161,71,1,bever,images/br_bever.png,images/cb_bever.png,0,,,,,,,,,,,,,,,,,,,,,,
,,,,,00045,2023-10-11_20h43.39.374,vbt_B1_day4,2022.2.4,Win32,60.15037594,,,,,,down,0,0.5667,,-0.287037037,-0.009259259,1,0,0,0,162,162,112,1,lukken,images/br_lukken.png,images/cb_lukken.png,0,,,,,,,,,,,,,,,,,,,,,,
,,,,,00045,2023-10-11_20h43.39.374,vbt_B1_day4,2022.2.4,Win32,60.15037594,,,,,,down,0,4.702,,-0.287037037,-0.009259259,1,0,0,0,163,163,155,1,gerucht,images/br_gerucht.png,images/cb_gerucht.png,0,,,,,,,,,,,,,,,,,,,,,,
,,,,,00045,2023-10-11_20h43.39.374,vbt_B1_day4,2022.2.4,Win32,60.15037594,,,,,,down,0,33.5125,,-0.287037037,-0.009259259,1,0,0,0,164,164,60,1,jasje,images/br_jasje.png,images/cb_jasje.png,0,,,,,,,,,,,,,,,,,,,,,,
,,,,,00045,2023-10-11_20h43.39.374,vbt_B1_day4,2022.2.4,Win32,60.15037594,,,,,,down,0,4.13,,-0.287037037,-0.009259259,1,0,0,0,165,165,156,1,rechten,images/br_rechten.png,images/cb_rechten.png,0,,,,,,,,,,,,,,,,,,,,,,
,,,,,00045,2023-10-11_20h43.39.374,vbt_B1_day4,2022.2.4,Win32,60.15037594,,,,,,down,0,0.3499,,-0.287037037,-0.009259259,1,0,0,0,166,166,52,1,wagon,images/br_wagon.png,images/cb_wagon.png,0,,,,,,,,,,,,,,,,,,,,,,
,,,,,00045,2023-10-11_20h43.39.374,vbt_B1_day4,2022.2.4,Win32,60.15037594,,,,,,down,0,7.5067,,-0.287037037,-0.009259259,1,0,0,0,167,167,46,1,jagen,images/br_jagen.png,images/cb_jagen.png,0,,,,,,,,,,,,,,,,,,,,,,
,,,,,00045,2023-10-11_20h43.39.374,vbt_B1_day4,2022.2.4,Win32,60.15037594,,,,,,down,0,3.1642,,-0.287037037,-0.009259259,1,0,0,0,168,168,158,1,innemen,images/br_innemen.png,images/cb_innemen.png,0,,,,,,,,,,,,,,,,,,,,,,
,,,,,00045,2023-10-11_20h43.39.374,vbt_B1_day4,2022.2.4,Win32,60.15037594,,,,,,down,0,2.4141,,-0.287037037,-0.009259259,1,0,0,0,169,169,175,1,heengaan,images/br_heengaan.png,images/cb_heengaan.png,0,,,,,,,,,,,,,,,,,,,,,,
,,,,,00045,2023-10-11_20h43.39.374,vbt_B1_day4,2022.2.4,Win32,60.15037594,,,,,,down,0,1.587,,-0.287037037,-0.009259259,1,0,0,0,170,170,114,1,vullen,images/br_vullen.png,images/cb_vullen.png,0,,,,,,,,,,,,,,,,,,,,,,
,,,,,00045,2023-10-11_20h43.39.374,vbt_B1_day4,2022.2.4,Win32,60.15037594,,,,,,down,0,6.69,,-0.287037037,-0.009259259,1,0,0,0,171,171,159,1,sufferd,images/br_sufferd.png,images/cb_sufferd.png,0,,,,,,,,,,,,,,,,,,,,,,
,,,,,00045,2023-10-11_20h43.39.374,vbt_B1_day4,2022.2.4,Win32,60.15037594,,,,,,down,0,1.3487,,-0.287037037,-0.009259259,1,0,0,0,172,172,26,1,leuk,images/br_leuk.png,images/cb_leuk.png,1,leuk,,,,,,,,,,,,,,,,,,,,,
,,,,,00045,2023-10-11_20h43.39.374,vbt_B1_day4,2022.2.4,Win32,60.15037594,,,,,,down,0,6.4787,,-0.287037037,-0.009259259,1,0,0,0,173,173,163,1,schuilen,images/br_schuilen.png,images/cb_schuilen.png,0,,,,,,,,,,,,,,,,,,,,,,
,,,,,00045,2023-10-11_20h43.39.374,vbt_B1_day4,2022.2.4,Win32,60.15037594,,,,,,down,0,2.1307,,-0.287037037,-0.009259259,1,0,0,0,174,174,191,1,opheffen,images/br_opheffen.png,images/cb_opheffen.png,0,,,,,,,,,,,,,,,,,,,,,,
,,,,,00045,2023-10-11_20h43.39.374,vbt_B1_day4,2022.2.4,Win32,60.15037594,,,,,,down,0,0.2702,,-0.287037037,-0.009259259,1,0,0,0,175,175,170,1,schatten,images/br_schatten.png,images/cb_schatten.png,0,,,,,,,,,,,,,,,,,,,,,,
,,,,,00045,2023-10-11_20h43.39.374,vbt_B1_day4,2022.2.4,Win32,60.15037594,,,,,,down,0,2.4031,,-0.287037037,-0.009259259,1,0,0,0,176,176,143,1,hechten,images/br_hechten.png,images/cb_hechten.png,0,,,,,,,,,,,,,,,,,,,,,,
,,,,,00045,2023-10-11_20h43.39.374,vbt_B1_day4,2022.2.4,Win32,60.15037594,,,,,,down,0,1.2157,,-0.287037037,-0.009259259,1,0,0,0,177,177,73,1,volop,images/br_volop.png,images/cb_volop.png,0,,,,,,,,,,,,,,,,,,,,,,
,,,,,00045,2023-10-11_20h43.39.374,vbt_B1_day4,2022.2.4,Win32,60.15037594,,,,,,down,0,0.388,,-0.287037037,-0.009259259,1,0,0,0,178,178,171,1,aarzelen,images/br_aarzelen.png,images/cb_aarzelen.png,0,,,,,,,,,,,,,,,,,,,,,,
,,,,,00045,2023-10-11_20h43.39.374,vbt_B1_day4,2022.2.4,Win32,60.15037594,,,,,,down,0,4.8629,,-0.287037037,-0.009259259,1,0,0,0,179,179,198,1,bedoelen,images/br_bedoelen.png,images/cb_bedoelen.png,0,,,,,,,,,,,,,,,,,,,,,,
,,,,,00045,2023-10-11_20h43.39.374,vbt_B1_day4,2022.2.4,Win32,60.15037594,,,,,,down,0,19.6356,,-0.287037037,-0.009259259,1,0,0,0,180,180,140,1,blijven,images/br_blijven.png,images/cb_blijven.png,0,,,,,,,,,,,,,,,,,,,,,,
,,,,,00045,2023-10-11_20h43.39.374,vbt_B1_day4,2022.2.4,Win32,60.15037594,,,,,,down,0,9.342,,-0.287037037,-0.009259259,1,0,0,0,181,181,111,1,ticket,images/br_ticket.png,images/cb_ticket.png,0,,,,,,,,,,,,,,,,,,,,,,
,,,,,00045,2023-10-11_20h43.39.374,vbt_B1_day4,2022.2.4,Win32,60.15037594,,,,,,down,0,0.8205,,-0.287037037,-0.009259259,1,0,0,0,182,182,151,1,aanzoek,images/br_aanzoek.png,images/cb_aanzoek.png,0,,,,,,,,,,,,,,,,,,,,,,
,,,,,00045,2023-10-11_20h43.39.374,vbt_B1_day4,2022.2.4,Win32,60.15037594,,,,,,down,0,0.2832,,-0.287037037,-0.009259259,1,0,0,0,183,183,42,1,bleek,images/br_bleek.png,images/cb_bleek.png,0,,,,,,,,,,,,,,,,,,,,,,
,,,,,00045,2023-10-11_20h43.39.374,vbt_B1_day4,2022.2.4,Win32,60.15037594,,,,,,down,0,2.2511,,-0.287037037,-0.009259259,1,0,0,0,184,184,58,1,tekst,images/br_tekst.png,images/cb_tekst.png,0,,,,,,,,,,,,,,,,,,,,,,
,,,,,00045,2023-10-11_20h43.39.374,vbt_B1_day4,2022.2.4,Win32,60.15037594,,,,,,down,0,0.0343,,-0.287037037,-0.009259259,1,0,0,0,185,185,11,1,mode,images/br_mode.png,images/cb_mode.png,0,,,,,,,,,,,,,,,,,,,,,,
,,,,,00045,2023-10-11_20h43.39.374,vbt_B1_day4,2022.2.4,Win32,60.15037594,,,,,,down,0,0.0251,,-0.287037037,-0.009259259,1,0,0,0,186,186,32,1,palm,images/br_palm.png,images/cb_palm.png,0,,,,,,,,,,,,,,,,,,,,,,
,,,,,00045,2023-10-11_20h43.39.374,vbt_B1_day4,2022.2.4,Win32,60.15037594,,,,,,down,0,2.4739,,-0.287037037,-0.009259259,1,0,0,0,187,187,184,1,aandelen,images/br_aandelen.png,images/cb_aandelen.png,1,aandelen,,,,,,,,,,,,,,,,,,,,,
,,,,,00045,2023-10-11_20h43.39.374,vbt_B1_day4,2022.2.4,Win32,60.15037594,,,,,,down,0,0.0177,,-0.287037037,-0.009259259,1,0,0,0,188,188,35,1,lust,images/br_lust.png,images/cb_lust.png,0,,,,,,,,,,,,,,,,,,,,,,
,,,,,00045,2023-10-11_20h43.39.374,vbt_B1_day4,2022.2.4,Win32,60.15037594,,,,,,down,0,3.7479,,-0.287037037,-0.009259259,1,0,0,0,189,189,187,1,opkijken,images/br_opkijken.png,images/cb_opkijken.png,1,opkijken,,,,,,,,,,,,,,,,,,,,,
,,,,,00045,2023-10-11_20h43.39.374,vbt_B1_day4,2022.2.4,Win32,60.15037594,,,,,,down,0,0.3017,,-0.287037037,-0.009259259,1,0,0,0,190,190,148,1,smullen,images/br_smullen.png,images/cb_smullen.png,0,,,,,,,,,,,,,,,,,,,,,,
,,,,,00045,2023-10-11_20h43.39.374,vbt_B1_day4,2022.2.4,Win32,60.15037594,,,,,,down,0,0.7495,,-0.287037037,-0.009259259,1,0,0,0,191,191,55,1,praat,images/br_praat.png,images/cb_praat.png,0,,,,,,,,,,,,,,,,,,,,,,
,,,,,00045,2023-10-11_20h43.39.374,vbt_B1_day4,2022.2.4,Win32,60.15037594,,,,,,down,0,2.9169,,-0.287037037,-0.009259259,1,0,0,0,192,192,17,1,taal,images/br_taal.png,images/cb_taal.png,0,,,,,,,,,,,,,,,,,,,,,,
,,,,,00045,2023-10-11_20h43.39.374,vbt_B1_day4,2022.2.4,Win32,60.15037594,,,,,,down,0,20.7509,,-0.287037037,-0.009259259,1,0,0,0,193,193,54,1,gebit,images/br_gebit.png,images/cb_gebit.png,0,,,,,,,,,,,,,,,,,,,,,,
,,,,,00045,2023-10-11_20h43.39.374,vbt_B1_day4,2022.2.4,Win32,60.15037594,,,,,,down,0,0.3276,,-0.287037037,-0.009259259,1,0,0,0,194,194,117,1,kennis,images/br_kennis.png,images/cb_kennis.png,0,,,,,,,,,,,,,,,,,,,,,,
,,,,,00045,2023-10-11_20h43.39.374,vbt_B1_day4,2022.2.4,Win32,60.15037594,,,,,,down,0,5.9245,,-0.287037037,-0.009259259,1,0,0,0,195,195,84,1,lokken,images/br_lokken.png,images/cb_lokken.png,0,,,,,,,,,,,,,,,,,,,,,,
,,,,,00045,2023-10-11_20h43.39.374,vbt_B1_day4,2022.2.4,Win32,60.15037594,,,,,,down,0,5.0259,,-0.287037037,-0.009259259,1,0,0,0,196,196,192,1,schaamte,images/br_schaamte.png,images/cb_schaamte.png,0,,,,,,,,,,,,,,,,,,,,,,
,,,,,00045,2023-10-11_20h43.39.374,vbt_B1_day4,2022.2.4,Win32,60.15037594,,,,,,down,0,3.7865,,-0.287037037,-0.009259259,1,0,0,0,197,197,92,1,geheim,images/br_geheim.png,images/cb_geheim.png,0,,,,,,,,,,,,,,,,,,,,,,
,,,,,00045,2023-10-11_20h43.39.374,vbt_B1_day4,2022.2.4,Win32,60.15037594,,,,,,down,0,18.4594,,-0.287037037,-0.009259259,1,0,0,0,198,198,45,1,piste,images/br_piste.png,images/cb_piste.png,0,,,,,,,,,,,,,,,,,,,,,,
,,,,,00045,2023-10-11_20h43.39.374,vbt_B1_day4,2022.2.4,Win32,60.15037594,,,,,,down,0,2.8459,,-0.287037037,-0.009259259,1,0,0,0,199,199,77,1,woede,images/br_woede.png,images/cb_woede.png,0,,,,,,,,,,,,,,,,,,,,,,
,,,,,00045,2023-10-11_20h43.39.374,vbt_B1_day4,2022.2.4,Win32,60.15037594,,,,,,,,,,,,,,,,,,,,,,,,,-0.287037037,-0.009259259,1,0,0,,,,,,,,,,,,,,,,
,,,,,00045,2023-10-11_20h43.39.374,vbt_B1_day4,2022.2.4,Win32,60.15037594,,,,,,,,,,,,,,,,,,,,,,,,,,,,,,-0.287037037,-0.009259259,1,0,0,,,,,,,,,,,
,,,,,00045,2023-10-11_20h43.39.374,vbt_B1_day4,2022.2.4,Win32,60.15037594,,,,,,,,,,,,,,,,,,,,seizoon,images/br_seizoon.png,images/cb_seizoon.png,,seizoen,,,,,,,,,,,-0.287037037,-0.009259259,1,0,0,seizoen,0,0,0,33,1
,,,,,00045,2023-10-11_20h43.39.374,vbt_B1_day4,2022.2.4,Win32,60.15037594,,,,,,,,,,,,,,,,,,,,drooien,images/br_drooien.png,images/cb_drooien.png,,drooien,,,,,,,,,,,-0.287037037,-0.009259259,1,0,0,drooien,0,1,1,32,1
,,,,,00045,2023-10-11_20h43.39.374,vbt_B1_day4,2022.2.4,Win32,60.15037594,,,,,,,,,,,,,,,,,,,,ezel,images/br_ezel.png,images/cb_ezel.png,,ezel,,,,,,,,,,,-0.287037037,-0.009259259,1,0,0,ezel,0,2,2,42,1
,,,,,00045,2023-10-11_20h43.39.374,vbt_B1_day4,2022.2.4,Win32,60.15037594,,,,,,,,,,,,,,,,,,,,broodje,images/br_broodje.png,images/cb_broodje.png,,broodje,,,,,,,,,,,-0.287037037,-0.009259259,1,0,0,broodje,0,3,3,55,1
,,,,,00045,2023-10-11_20h43.39.374,vbt_B1_day4,2022.2.4,Win32,60.15037594,,,,,,,,,,,,,,,,,,,,pijnlijk,images/br_pijnlijk.png,images/cb_pijnlijk.png,,pijnlijk,,,,,,,,,,,-0.287037037,-0.009259259,1,0,0,pijnlijk,0,4,4,58,1
,,,,,00045,2023-10-11_20h43.39.374,vbt_B1_day4,2022.2.4,Win32,60.15037594,,,,,,,,,,,,,,,,,,,,pittig,images/br_pittig.png,images/cb_pittig.png,,pittig,,,,,,,,,,,-0.287037037,-0.009259259,1,0,0,pittig,0,5,5,51,1
,,,,,00045,2023-10-11_20h43.39.374,vbt_B1_day4,2022.2.4,Win32,60.15037594,,,,,,,,,,,,,,,,,,,,gijf,images/br_gijf.png,images/cb_gijf.png,,gijf,,,,,,,,,,,-0.287037037,-0.009259259,1,0,0,gijf,0,6,6,23,1
,,,,,00045,2023-10-11_20h43.39.374,vbt_B1_day4,2022.2.4,Win32,60.15037594,,,,,,,,,,,,,,,,,,,,rijp,images/br_rijp.png,images/cb_rijp.png,,rijp,,,,,,,,,,,-0.287037037,-0.009259259,1,0,0,rijp,0,7,7,2,1
,,,,,00045,2023-10-11_20h43.39.374,vbt_B1_day4,2022.2.4,Win32,60.15037594,,,,,,,,,,,,,,,,,,,,bisschap,images/br_bisschap.png,images/cb_bisschap.png,,bisschop,,,,,,,,,,,-0.287037037,-0.009259259,1,0,0,bisschop,0,8,8,36,1
,,,,,00045,2023-10-11_20h43.39.374,vbt_B1_day4,2022.2.4,Win32,60.15037594,,,,,,,,,,,,,,,,,,,,aanzwaag,images/br_aanzwaag.png,images/cb_aanzwaag.png,,aanzwaag,,,,,,,,,,,-0.287037037,-0.009259259,1,0,0,aanzwaag,0,9,9,38,1
,,,,,00045,2023-10-11_20h43.39.374,vbt_B1_day4,2022.2.4,Win32,60.15037594,,,,,,,,,,,,,,,,,,,,mekst,images/br_mekst.png,images/cb_mekst.png,,mekst,,,,,,,,,,,-0.287037037,-0.009259259,1,0,0,mekst,0,10,10,27,1
,,,,,00045,2023-10-11_20h43.39.374,vbt_B1_day4,2022.2.4,Win32,60.15037594,,,,,,,,,,,,,,,,,,,,geheim,images/br_geheim.png,images/cb_geheim.png,,geheim,,,,,,,,,,,-0.287037037,-0.009259259,1,0,0,geheim,0,11,11,8,1
,,,,,00045,2023-10-11_20h43.39.374,vbt_B1_day4,2022.2.4,Win32,60.15037594,,,,,,,,,,,,,,,,,,,,stemming,images/br_stemming.png,images/cb_stemming.png,,stemming,,,,,,,,,,,-0.287037037,-0.009259259,1,0,0,stemming,0,12,12,18,1
,,,,,00045,2023-10-11_20h43.39.374,vbt_B1_day4,2022.2.4,Win32,60.15037594,,,,,,,,,,,,,,,,,,,,waarop,images/br_waarop.png,images/cb_waarop.png,,waarop,,,,,,,,,,,-0.287037037,-0.009259259,1,0,0,waarop,0,13,13,9,1
,,,,,00045,2023-10-11_20h43.39.374,vbt_B1_day4,2022.2.4,Win32,60.15037594,,,,,,,,,,,,,,,,,,,,strok,images/br_strok.png,images/cb_strok.png,,strok,,,,,,,,,,,-0.287037037,-0.009259259,1,0,0,strok,0,14,14,25,1
,,,,,00045,2023-10-11_20h43.39.374,vbt_B1_day4,2022.2.4,Win32,60.15037594,,,,,,,,,,,,,,,,,,,,paalbaak,images/br_paalbaak.png,images/cb_paalbaak.png,,paalbaak,,,,,,,,,,,-0.287037037,-0.009259259,1,0,0,paalbaak,0,15,15,39,1
,,,,,00045,2023-10-11_20h43.39.374,vbt_B1_day4,2022.2.4,Win32,60.15037594,,,,,,,,,,,,,,,,,,,,getucht,images/br_getucht.png,images/cb_getucht.png,,getuigen,,,,,,,,,,,-0.287037037,-0.009259259,1,0,0,getuigen,0,16,16,35,1
,,,,,00045,2023-10-11_20h43.39.374,vbt_B1_day4,2022.2.4,Win32,60.15037594,,,,,,,,,,,,,,,,,,,,geliefd,images/br_geliefd.png,images/cb_geliefd.png,,geliefd,,,,,,,,,,,-0.287037037,-0.009259259,1,0,0,geliefd,0,17,17,14,1
,,,,,00045,2023-10-11_20h43.39.374,vbt_B1_day4,2022.2.4,Win32,60.15037594,,,,,,,,,,,,,,,,,,,,eerst,images/br_eerst.png,images/cb_eerst.png,,eerst,,,,,,,,,,,-0.287037037,-0.009259259,1,0,0,eerst,0,18,18,47,1
,,,,,00045,2023-10-11_20h43.39.374,vbt_B1_day4,2022.2.4,Win32,60.15037594,,,,,,,,,,,,,,,,,,,,gebit,images/br_gebit.png,images/cb_gebit.png,,gebit,,,,,,,,,,,-0.287037037,-0.009259259,1,0,0,gebit,0,19,19,6,1
,,,,,00045,2023-10-11_20h43.39.374,vbt_B1_day4,2022.2.4,Win32,60.15037594,,,,,,,,,,,,,,,,,,,,snee,images/br_snee.png,images/cb_snee.png,,snee,,,,,,,,,,,-0.287037037,-0.009259259,1,0,0,snee,0,20,20,40,1
,,,,,00045,2023-10-11_20h43.39.374,vbt_B1_day4,2022.2.4,Win32,60.15037594,,,,,,,,,,,,,,,,,,,,zwek,images/br_zwek.png,images/cb_zwek.png,,zwek,,,,,,,,,,,-0.287037037,-0.009259259,1,0,0,zwek,0,21,21,20,1
,,,,,00045,2023-10-11_20h43.39.374,vbt_B1_day4,2022.2.4,Win32,60.15037594,,,,,,,,,,,,,,,,,,,,noodzaak,images/br_noodzaak.png,images/cb_noodzaak.png,,noodzaak,,,,,,,,,,,-0.287037037,-0.009259259,1,0,0,noodzaak,0,22,22,56,1
,,,,,00045,2023-10-11_20h43.39.374,vbt_B1_day4,2022.2.4,Win32,60.15037594,,,,,,,,,,,,,,,,,,,,tucket,images/br_tucket.png,images/cb_tucket.png,,suc,,,,,,,,,,,-0.287037037,-0.009259259,1,0,0,suc,0,23,23,30,1
,,,,,00045,2023-10-11_20h43.39.374,vbt_B1_day4,2022.2.4,Win32,60.15037594,,,,,,,,,,,,,,,,,,,,baron,images/br_baron.png,images/cb_baron.png,,baron,,,,,,,,,,,-0.287037037,-0.009259259,1,0,0,baron,0,24,24,5,1
,,,,,00045,2023-10-11_20h43.39.374,vbt_B1_day4,2022.2.4,Win32,60.15037594,,,,,,,,,,,,,,,,,,,,schotel,images/br_schotel.png,images/cb_schotel.png,,schotel,,,,,,,,,,,-0.287037037,-0.009259259,1,0,0,schotel,0,25,25,52,1
,,,,,00045,2023-10-11_20h43.39.374,vbt_B1_day4,2022.2.4,Win32,60.15037594,,,,,,,,,,,,,,,,,,,,gebog,images/br_gebog.png,images/cb_gebog.png,,gebog,,,,,,,,,,,-0.287037037,-0.009259259,1,0,0,gebog,0,26,26,24,1
,,,,,00045,2023-10-11_20h43.39.374,vbt_B1_day4,2022.2.4,Win32,60.15037594,,,,,,,,,,,,,,,,,,,,vreten,images/br_vreten.png,images/cb_vreten.png,,vreten,,,,,,,,,,,-0.287037037,-0.009259259,1,0,0,vreten,0,27,27,11,1
,,,,,00045,2023-10-11_20h43.39.374,vbt_B1_day4,2022.2.4,Win32,60.15037594,,,,,,,,,,,,,,,,,,,,soda,images/br_soda.png,images/cb_soda.png,,soda,,,,,,,,,,,-0.287037037,-0.009259259,1,0,0,soda,0,28,28,3,1
,,,,,00045,2023-10-11_20h43.39.374,vbt_B1_day4,2022.2.4,Win32,60.15037594,,,,,,,,,,,,,,,,,,,,midden,images/br_midden.png,images/cb_midden.png,,midden,,,,,,,,,,,-0.287037037,-0.009259259,1,0,0,midden,0,29,29,50,1
,,,,,00045,2023-10-11_20h43.39.374,vbt_B1_day4,2022.2.4,Win32,60.15037594,,,,,,,,,,,,,,,,,,,,apparaat,images/br_apparaat.png,images/cb_apparaat.png,,apparaat,,,,,,,,,,,-0.287037037,-0.009259259,1,0,0,apparaat,0,30,30,17,1
,,,,,00045,2023-10-11_20h43.39.374,vbt_B1_day4,2022.2.4,Win32,60.15037594,,,,,,,,,,,,,,,,,,,,oceaan,images/br_oceaan.png,images/cb_oceaan.png,,oceaan,,,,,,,,,,,-0.287037037,-0.009259259,1,0,0,oceaan,0,31,31,10,1
,,,,,00045,2023-10-11_20h43.39.374,vbt_B1_day4,2022.2.4,Win32,60.15037594,,,,,,,,,,,,,,,,,,,,lappen,images/br_lappen.png,images/cb_lappen.png,,lappen,,,,,,,,,,,-0.287037037,-0.009259259,1,0,0,lappen,0,32,32,49,1
,,,,,00045,2023-10-11_20h43.39.374,vbt_B1_day4,2022.2.4,Win32,60.15037594,,,,,,,,,,,,,,,,,,,,weigeren,images/br_weigeren.png,images/cb_weigeren.png,,weige,,,,,,,,,,,-0.287037037,-0.009259259,1,0,0,weige,0,33,33,16,1
,,,,,00045,2023-10-11_20h43.39.374,vbt_B1_day4,2022.2.4,Win32,60.15037594,,,,,,,,,,,,,,,,,,,,kaal,images/br_kaal.png,images/cb_kaal.png,,kaal,,,,,,,,,,,-0.287037037,-0.009259259,1,0,0,kaal,0,34,34,1,1
,,,,,00045,2023-10-11_20h43.39.374,vbt_B1_day4,2022.2.4,Win32,60.15037594,,,,,,,,,,,,,,,,,,,,dalen,images/br_dalen.png,images/cb_dalen.png,,dalen,,,,,,,,,,,-0.287037037,-0.009259259,1,0,0,dalen,0,35,35,46,1
,,,,,00045,2023-10-11_20h43.39.374,vbt_B1_day4,2022.2.4,Win32,60.15037594,,,,,,,,,,,,,,,,,,,,kust,images/br_kust.png,images/cb_kust.png,,kust,,,,,,,,,,,-0.287037037,-0.009259259,1,0,0,kust,0,36,36,0,1
,,,,,00045,2023-10-11_20h43.39.374,vbt_B1_day4,2022.2.4,Win32,60.15037594,,,,,,,,,,,,,,,,,,,,bruin,images/br_bruin.png,images/cb_bruin.png,,bruin,,,,,,,,,,,-0.287037037,-0.009259259,1,0,0,bruin,0,37,37,45,1
,,,,,00045,2023-10-11_20h43.39.374,vbt_B1_day4,2022.2.4,Win32,60.15037594,,,,,,,,,,,,,,,,,,,,zaalrijk,images/br_zaalrijk.png,images/cb_zaalrijk.png,,zaalri,,,,,,,,,,,-0.287037037,-0.009259259,1,0,0,zaalri,0,38,38,37,1
,,,,,00045,2023-10-11_20h43.39.374,vbt_B1_day4,2022.2.4,Win32,60.15037594,,,,,,,,,,,,,,,,,,,,wozing,images/br_wozing.png,images/cb_wozing.png,,woning,,,,,,,,,,,-0.287037037,-0.009259259,1,0,0,woning,0,39,39,28,1
,,,,,00045,2023-10-11_20h43.39.374,vbt_B1_day4,2022.2.4,Win32,60.15037594,,,,,,,,,,,,,,,,,,,,steen,images/br_steen.png,images/cb_steen.png,,steen,,,,,,,,,,,-0.287037037,-0.009259259,1,0,0,steen,0,40,40,44,1
,,,,,00045,2023-10-11_20h43.39.374,vbt_B1_day4,2022.2.4,Win32,60.15037594,,,,,,,,,,,,,,,,,,,,schenden,images/br_schenden.png,images/cb_schenden.png,,schenden,,,,,,,,,,,-0.287037037,-0.009259259,1,0,0,schenden,0,41,41,57,1
,,,,,00045,2023-10-11_20h43.39.374,vbt_B1_day4,2022.2.4,Win32,60.15037594,,,,,,,,,,,,,,,,,,,,dozijn,images/br_dozijn.png,images/cb_dozijn.png,,dozijn,,,,,,,,,,,-0.287037037,-0.009259259,1,0,0,dozijn,0,42,42,48,1
,,,,,00045,2023-10-11_20h43.39.374,vbt_B1_day4,2022.2.4,Win32,60.15037594,,,,,,,,,,,,,,,,,,,,opkicht,images/br_opkicht.png,images/cb_opkicht.png,,opkicht,,,,,,,,,,,-0.287037037,-0.009259259,1,0,0,opkicht,0,43,43,34,1
,,,,,00045,2023-10-11_20h43.39.374,vbt_B1_day4,2022.2.4,Win32,60.15037594,,,,,,,,,,,,,,,,,,,,drummer,images/br_drummer.png,images/cb_drummer.png,,drummer,,,,,,,,,,,-0.287037037,-0.009259259,1,0,0,drummer,0,44,44,53,1
,,,,,00045,2023-10-11_20h43.39.374,vbt_B1_day4,2022.2.4,Win32,60.15037594,,,,,,,,,,,,,,,,,,,,toevol,images/br_toevol.png,images/cb_toevol.png,,toeval,,,,,,,,,,,-0.287037037,-0.009259259,1,0,0,toeval,0,45,45,29,1
,,,,,00045,2023-10-11_20h43.39.374,vbt_B1_day4,2022.2.4,Win32,60.15037594,,,,,,,,,,,,,,,,,,,,sulbon,images/br_sulbon.png,images/cb_sulbon.png,,sulba,,,,,,,,,,,-0.286111125,-0.009259259,1,0,0,sulba,0,46,46,31,1
,,,,,00045,2023-10-11_20h43.39.374,vbt_B1_day4,2022.2.4,Win32,60.15037594,,,,,,,,,,,,,,,,,,,,wagon,images/br_wagon.png,images/cb_wagon.png,,wagon,,,,,,,,,,,-0.286111125,-0.009259259,1,0,0,wagon,0,47,47,4,1
,,,,,00045,2023-10-11_20h43.39.374,vbt_B1_day4,2022.2.4,Win32,60.15037594,,,,,,,,,,,,,,,,,,,,gaan,images/br_gaan.png,images/cb_gaan.png,,gaan,,,,,,,,,,,-0.286111125,-0.009259259,1,0,0,gaan,0,48,48,41,1
,,,,,00045,2023-10-11_20h43.39.374,vbt_B1_day4,2022.2.4,Win32,60.15037594,,,,,,,,,,,,,,,,,,,,seizoen,images/br_seizoen.png,images/cb_seizoen.png,,seizoen,,,,,,,,,,,-0.286111125,-0.009259259,1,0,0,seizoen,0,49,49,13,1
,,,,,00045,2023-10-11_20h43.39.374,vbt_B1_day4,2022.2.4,Win32,60.15037594,,,,,,,,,,,,,,,,,,,,flippen,images/br_flippen.png,images/cb_flippen.png,,flippen,,,,,,,,,,,-0.286111125,-0.009259259,1,0,0,flippen,0,50,50,54,1
,,,,,00045,2023-10-11_20h43.39.374,vbt_B1_day4,2022.2.4,Win32,60.15037594,,,,,,,,,,,,,,,,,,,,warel,images/br_warel.png,images/cb_warel.png,,warel,,,,,,,,,,,-0.286111125,-0.009259259,1,0,0,warel,0,51,51,26,1
,,,,,00045,2023-10-11_20h43.39.374,vbt_B1_day4,2022.2.4,Win32,60.15037594,,,,,,,,,,,,,,,,,,,,fran,images/br_fran.png,images/cb_fran.png,,fran,,,,,,,,,,,-0.286111125,-0.009259259,1,0,0,fran,0,52,52,22,1
,,,,,00045,2023-10-11_20h43.39.374,vbt_B1_day4,2022.2.4,Win32,60.15037594,,,,,,,,,,,,,,,,,,,,praat,images/br_praat.png,images/cb_praat.png,,praat,,,,,,,,,,,-0.286111125,-0.009259259,1,0,0,praat,0,53,53,7,1
,,,,,00045,2023-10-11_20h43.39.374,vbt_B1_day4,2022.2.4,Win32,60.15037594,,,,,,,,,,,,,,,,,,,,gedicht,images/br_gedicht.png,images/cb_gedicht.png,,gedicht,,,,,,,,,,,-0.286111125,-0.009259259,1,0,0,gedicht,0,54,54,15,1
,,,,,00045,2023-10-11_20h43.39.374,vbt_B1_day4,2022.2.4,Win32,60.15037594,,,,,,,,,,,,,,,,,,,,haza,images/br_haza.png,images/cb_haza.png,,haza,,,,,,,,,,,-0.286111125,-0.009259259,1,0,0,haza,0,55,55,21,1
,,,,,00045,2023-10-11_20h43.39.374,vbt_B1_day4,2022.2.4,Win32,60.15037594,,,,,,,,,,,,,,,,,,,,gaaf,images/br_gaaf.png,images/cb_gaaf.png,,gaaf,,,,,,,,,,,-0.286111125,-0.009259259,1,0,0,gaaf,0,56,56,43,1
,,,,,00045,2023-10-11_20h43.39.374,vbt_B1_day4,2022.2.4,Win32,60.15037594,,,,,,,,,,,,,,,,,,,,heengaan,images/br_heengaan.png,images/cb_heengaan.png,,heengaan,,,,,,,,,,,-0.286111125,-0.009259259,1,0,0,heengaan,0,57,57,19,1
,,,,,00045,2023-10-11_20h43.39.374,vbt_B1_day4,2022.2.4,Win32,60.15037594,,,,,,,,,,,,,,,,,,,,grappen,images/br_grappen.png,images/cb_grappen.png,,grappen,,,,,,,,,,,-0.286111125,-0.009259259,1,0,0,grappen,0,58,58,12,1
,,,,,00045,2023-10-11_20h43.39.374,vbt_B1_day4,2022.2.4,Win32,60.15037594,,,,,,,,,,,,,,,,,,,,opruimen,images/br_opruimen.png,images/cb_opruimen.png,,opruimen,,,,,,,,,,,-0.286111125,-0.009259259,1,0,0,opruimen,0,59,59,59,1
,,,,,00045,2023-10-11_20h43.39.374,vbt_B1_day4,2022.2.4,Win32,60.15037594,,,,,,,,,,,,,,,,,,,,,,,,,,,,,,,,,,,,,,,,,,,,,
