welcome_mouse.x,welcome_mouse.y,welcome_mouse.leftButton,welcome_mouse.midButton,welcome_mouse.rightButton,"ID",date,expName,psychopyVersion,OS,frameRate,trainInstr_mouse.x,trainInstr_mouse.y,trainInstr_mouse.leftButton,trainInstr_mouse.midButton,trainInstr_mouse.rightButton,translation_key.keys,translation_key.corr,translation_key.rt,word_rsp.text,trWrd_mouse.x,trWrd_mouse.y,trWrd_mouse.leftButton,trWrd_mouse.midButton,trWrd_mouse.rightButton,train_loop.thisRepN,train_loop.thisTrialN,train_loop.thisN,train_loop.thisIndex,train_loop.ran,nlWrd,brWrd,cbWrd,test,testResp,mouse.x,mouse.y,mouse.leftButton,mouse.midButton,mouse.rightButton,testInstr_mouse.x,testInstr_mouse.y,testInstr_mouse.leftButton,testInstr_mouse.midButton,testInstr_mouse.rightButton,test_mouse.x,test_mouse.y,test_mouse.leftButton,test_mouse.midButton,test_mouse.rightButton,test_response.text,test_loop.thisRepN,test_loop.thisTrialN,test_loop.thisN,test_loop.thisIndex,test_loop.ran
0.063888903,-0.024074095,1,0,0,00029,2023-09-12_22h43.27.491,vbt_B1_day4,2022.2.4,Win32,29.99130252,,,,,,,,,,,,,,,,,,,,,,,,,,,,,,,,,,,,,,,,,,,,,
,,,,,00029,2023-09-12_22h43.27.491,vbt_B1_day4,2022.2.4,Win32,29.99130252,0.063888903,-0.024074095,1,0,0,,,,,,,,,,,,,,,,,,,,,,,,,,,,,,,,,,,,,,,,
,,,,,00029,2023-09-12_22h43.27.491,vbt_B1_day4,2022.2.4,Win32,29.99130252,,,,,,down,0,0.6193,,0.063888903,-0.024074095,1,0,0,0,0,0,13,1,kaal,images/br_kaal.png,images/cb_kaal.png,0,,,,,,,,,,,,,,,,,,,,,,
,,,,,00029,2023-09-12_22h43.27.491,vbt_B1_day4,2022.2.4,Win32,29.99130252,,,,,,down,0,2.2239,,0.063888903,-0.024074095,1,0,0,0,1,1,6,1,diep,images/br_diep.png,images/cb_diep.png,0,,,,,,,,,,,,,,,,,,,,,,
,,,,,00029,2023-09-12_22h43.27.491,vbt_B1_day4,2022.2.4,Win32,29.99130252,,,,,,down,0,24.8907,,0.063888903,-0.024074095,1,0,0,0,2,2,34,1,vorm,images/br_vorm.png,images/cb_vorm.png,0,,,,,,,,,,,,,,,,,,,,,,
,,,,,00029,2023-09-12_22h43.27.491,vbt_B1_day4,2022.2.4,Win32,29.99130252,,,,,,down,0,0.4773,,0.063888903,-0.024074095,1,0,0,0,3,3,159,1,sufferd,images/br_sufferd.png,images/cb_sufferd.png,0,,,,,,,,,,,,,,,,,,,,,,
,,,,,00029,2023-09-12_22h43.27.491,vbt_B1_day4,2022.2.4,Win32,29.99130252,,,,,,down,0,0.0149,,0.063888903,-0.024074095,1,0,0,0,4,4,194,1,driemaal,images/br_driemaal.png,images/cb_driemaal.png,0,,,,,,,,,,,,,,,,,,,,,,
,,,,,00029,2023-09-12_22h43.27.491,vbt_B1_day4,2022.2.4,Win32,29.99130252,,,,,,down,0,0.4413,,0.063888903,-0.024074095,1,0,0,0,5,5,2,1,jaar,images/br_jaar.png,images/cb_jaar.png,0,,,,,,,,,,,,,,,,,,,,,,
,,,,,00029,2023-09-12_22h43.27.491,vbt_B1_day4,2022.2.4,Win32,29.99130252,,,,,,down,0,1.0893,,0.063888903,-0.024074095,1,0,0,0,6,6,74,1,graaf,images/br_graaf.png,images/cb_graaf.png,0,,,,,,,,,,,,,,,,,,,,,,
,,,,,00029,2023-09-12_22h43.27.491,vbt_B1_day4,2022.2.4,Win32,29.99130252,,,,,,down,0,0.0666,,0.063888903,-0.024074095,1,0,0,0,7,7,143,1,hechten,images/br_hechten.png,images/cb_hechten.png,0,,,,,,,,,,,,,,,,,,,,,,
,,,,,00029,2023-09-12_22h43.27.491,vbt_B1_day4,2022.2.4,Win32,29.99130252,,,,,,down,0,0.1677,,0.063888903,-0.024074095,1,0,0,0,8,8,77,1,woede,images/br_woede.png,images/cb_woede.png,0,,,,,,,,,,,,,,,,,,,,,,
,,,,,00029,2023-09-12_22h43.27.491,vbt_B1_day4,2022.2.4,Win32,29.99130252,,,,,,down,0,0.2658,,0.063888903,-0.024074095,1,0,0,0,9,9,75,1,snoep,images/br_snoep.png,images/cb_snoep.png,0,,,,,,,,,,,,,,,,,,,,,,
,,,,,00029,2023-09-12_22h43.27.491,vbt_B1_day4,2022.2.4,Win32,29.99130252,,,,,,down,0,0.4387,,0.063888903,-0.024074095,1,0,0,0,10,10,112,1,lukken,images/br_lukken.png,images/cb_lukken.png,0,,,,,,,,,,,,,,,,,,,,,,
,,,,,00029,2023-09-12_22h43.27.491,vbt_B1_day4,2022.2.4,Win32,29.99130252,,,,,,down,0,0.3389,,0.063888903,-0.024074095,1,0,0,0,11,11,149,1,redding,images/br_redding.png,images/cb_redding.png,0,,,,,,,,,,,,,,,,,,,,,,
,,,,,00029,2023-09-12_22h43.27.491,vbt_B1_day4,2022.2.4,Win32,29.99130252,,,,,,down,0,0.2589,,0.063888903,-0.024074095,1,0,0,0,12,12,97,1,loyaal,images/br_loyaal.png,images/cb_loyaal.png,0,,,,,,,,,,,,,,,,,,,,,,
,,,,,00029,2023-09-12_22h43.27.491,vbt_B1_day4,2022.2.4,Win32,29.99130252,,,,,,down,0,0.3665,,0.063888903,-0.024074095,1,0,0,0,13,13,33,1,vlek,images/br_vlek.png,images/cb_vlek.png,0,,,,,,,,,,,,,,,,,,,,,,
,,,,,00029,2023-09-12_22h43.27.491,vbt_B1_day4,2022.2.4,Win32,29.99130252,,,,,,down,0,0.234,,0.063888903,-0.024074095,1,0,0,0,14,14,17,1,taal,images/br_taal.png,images/cb_taal.png,0,,,,,,,,,,,,,,,,,,,,,,
,,,,,00029,2023-09-12_22h43.27.491,vbt_B1_day4,2022.2.4,Win32,29.99130252,,,,,,down,0,0.1345,,0.063888903,-0.024074095,1,0,0,0,15,15,140,1,blijven,images/br_blijven.png,images/cb_blijven.png,0,,,,,,,,,,,,,,,,,,,,,,
,,,,,00029,2023-09-12_22h43.27.491,vbt_B1_day4,2022.2.4,Win32,29.99130252,,,,,,down,0,0.4963,,0.063888903,-0.024074095,1,0,0,0,16,16,138,1,akkoord,images/br_akkoord.png,images/cb_akkoord.png,0,,,,,,,,,,,,,,,,,,,,,,
,,,,,00029,2023-09-12_22h43.27.491,vbt_B1_day4,2022.2.4,Win32,29.99130252,,,,,,down,0,0.3443,,0.063888903,-0.024074095,1,0,0,0,17,17,141,1,knielen,images/br_knielen.png,images/cb_knielen.png,0,,,,,,,,,,,,,,,,,,,,,,
,,,,,00029,2023-09-12_22h43.27.491,vbt_B1_day4,2022.2.4,Win32,29.99130252,,,,,,down,0,3.7205,,0.063888903,-0.024074095,1,0,0,0,18,18,19,1,geit,images/br_geit.png,images/cb_geit.png,0,,,,,,,,,,,,,,,,,,,,,,
,,,,,00029,2023-09-12_22h43.27.491,vbt_B1_day4,2022.2.4,Win32,29.99130252,,,,,,down,0,1.3516,,0.063888903,-0.024074095,1,0,0,0,19,19,199,1,beseffen,images/br_beseffen.png,images/cb_beseffen.png,0,,,,,,,,,,,,,,,,,,,,,,
,,,,,00029,2023-09-12_22h43.27.491,vbt_B1_day4,2022.2.4,Win32,29.99130252,,,,,,down,0,0.224,,0.063888903,-0.024074095,1,0,0,0,20,20,30,1,uien,images/br_uien.png,images/cb_uien.png,0,,,,,,,,,,,,,,,,,,,,,,
,,,,,00029,2023-09-12_22h43.27.491,vbt_B1_day4,2022.2.4,Win32,29.99130252,,,,,,down,0,1.4196,,0.063888903,-0.024074095,1,0,0,0,21,21,95,1,vreten,images/br_vreten.png,images/cb_vreten.png,0,,,,,,,,,,,,,,,,,,,,,,
,,,,,00029,2023-09-12_22h43.27.491,vbt_B1_day4,2022.2.4,Win32,29.99130252,,,,,,down,0,0.238,,0.063888903,-0.024074095,1,0,0,0,22,22,167,1,eenhoorn,images/br_eenhoorn.png,images/cb_eenhoorn.png,0,,,,,,,,,,,,,,,,,,,,,,
,,,,,00029,2023-09-12_22h43.27.491,vbt_B1_day4,2022.2.4,Win32,29.99130252,,,,,,down,0,1.4254,,0.063888903,-0.024074095,1,0,0,0,23,23,9,1,hier,images/br_hier.png,images/cb_hier.png,0,,,,,,,,,,,,,,,,,,,,,,
,,,,,00029,2023-09-12_22h43.27.491,vbt_B1_day4,2022.2.4,Win32,29.99130252,,,,,,down,0,0.5331,,0.063888903,-0.024074095,1,0,0,0,24,24,114,1,vullen,images/br_vullen.png,images/cb_vullen.png,0,,,,,,,,,,,,,,,,,,,,,,
,,,,,00029,2023-09-12_22h43.27.491,vbt_B1_day4,2022.2.4,Win32,29.99130252,,,,,,down,0,2.3061,,0.063888903,-0.024074095,1,0,0,0,25,25,120,1,klimmen,images/br_klimmen.png,images/cb_klimmen.png,0,,,,,,,,,,,,,,,,,,,,,,
,,,,,00029,2023-09-12_22h43.27.491,vbt_B1_day4,2022.2.4,Win32,29.99130252,,,,,,down,0,0.4849,,0.063888903,-0.024074095,1,0,0,0,26,26,56,1,traag,images/br_traag.png,images/cb_traag.png,0,,,,,,,,,,,,,,,,,,,,,,
,,,,,00029,2023-09-12_22h43.27.491,vbt_B1_day4,2022.2.4,Win32,29.99130252,,,,,,down,0,1.561,,0.063888903,-0.024074095,1,0,0,0,27,27,43,1,klauw,images/br_klauw.png,images/cb_klauw.png,0,,,,,,,,,,,,,,,,,,,,,,
,,,,,00029,2023-09-12_22h43.27.491,vbt_B1_day4,2022.2.4,Win32,29.99130252,,,,,,down,0,0.0198,,0.063888903,-0.024074095,1,0,0,0,28,28,169,1,oprotten,images/br_oprotten.png,images/cb_oprotten.png,0,,,,,,,,,,,,,,,,,,,,,,
,,,,,00029,2023-09-12_22h43.27.491,vbt_B1_day4,2022.2.4,Win32,29.99130252,,,,,,down,0,0.3019,,0.063888903,-0.024074095,1,0,0,0,29,29,188,1,strekken,images/br_strekken.png,images/cb_strekken.png,0,,,,,,,,,,,,,,,,,,,,,,
,,,,,00029,2023-09-12_22h43.27.491,vbt_B1_day4,2022.2.4,Win32,29.99130252,,,,,,down,0,0.1069,,0.063888903,-0.024074095,1,0,0,0,30,30,128,1,prikken,images/br_prikken.png,images/cb_prikken.png,0,,,,,,,,,,,,,,,,,,,,,,
,,,,,00029,2023-09-12_22h43.27.491,vbt_B1_day4,2022.2.4,Win32,29.99130252,,,,,,down,0,1.1187,,0.063888903,-0.024074095,1,0,0,0,31,31,152,1,afnemen,images/br_afnemen.png,images/cb_afnemen.png,0,,,,,,,,,,,,,,,,,,,,,,
,,,,,00029,2023-09-12_22h43.27.491,vbt_B1_day4,2022.2.4,Win32,29.99130252,,,,,,down,0,0.4668,,0.063888903,-0.024074095,1,0,0,0,32,32,168,1,bisschop,images/br_bisschop.png,images/cb_bisschop.png,0,,,,,,,,,,,,,,,,,,,,,,
,,,,,00029,2023-09-12_22h43.27.491,vbt_B1_day4,2022.2.4,Win32,29.99130252,,,,,,down,0,10.1835,,0.063888903,-0.024074095,1,0,0,0,33,33,64,1,wegen,images/br_wegen.png,images/cb_wegen.png,1,wegen,,,,,,,,,,,,,,,,,,,,,
,,,,,00029,2023-09-12_22h43.27.491,vbt_B1_day4,2022.2.4,Win32,29.99130252,,,,,,down,0,0.9853,,0.063888903,-0.024074095,1,0,0,0,34,34,176,1,techniek,images/br_techniek.png,images/cb_techniek.png,0,,,,,,,,,,,,,,,,,,,,,,
,,,,,00029,2023-09-12_22h43.27.491,vbt_B1_day4,2022.2.4,Win32,29.99130252,,,,,,down,0,0.3503,,0.063888903,-0.024074095,1,0,0,0,35,35,183,1,getuigen,images/br_getuigen.png,images/cb_getuigen.png,0,,,,,,,,,,,,,,,,,,,,,,
,,,,,00029,2023-09-12_22h43.27.491,vbt_B1_day4,2022.2.4,Win32,29.99130252,,,,,,down,0,0.3597,,0.063888903,-0.024074095,1,0,0,0,36,36,3,1,mand,images/br_mand.png,images/cb_mand.png,0,,,,,,,,,,,,,,,,,,,,,,
,,,,,00029,2023-09-12_22h43.27.491,vbt_B1_day4,2022.2.4,Win32,29.99130252,,,,,,down,0,0.0726,,0.063888903,-0.024074095,1,0,0,0,37,37,15,1,soda,images/br_soda.png,images/cb_soda.png,0,,,,,,,,,,,,,,,,,,,,,,
,,,,,00029,2023-09-12_22h43.27.491,vbt_B1_day4,2022.2.4,Win32,29.99130252,,,,,,down,0,0.214,,0.063888903,-0.024074095,1,0,0,0,38,38,166,1,strikken,images/br_strikken.png,images/cb_strikken.png,0,,,,,,,,,,,,,,,,,,,,,,
,,,,,00029,2023-09-12_22h43.27.491,vbt_B1_day4,2022.2.4,Win32,29.99130252,,,,,,down,0,1.3314,,0.063888903,-0.024074095,1,0,0,0,39,39,123,1,hiervan,images/br_hiervan.png,images/cb_hiervan.png,0,,,,,,,,,,,,,,,,,,,,,,
,,,,,00029,2023-09-12_22h43.27.491,vbt_B1_day4,2022.2.4,Win32,29.99130252,,,,,,down,0,27.5381,,0.063888903,-0.024074095,1,0,0,0,40,40,186,1,voorraad,images/br_voorraad.png,images/cb_voorraad.png,1,...rraa.,,,,,,,,,,,,,,,,,,,,,
,,,,,00029,2023-09-12_22h43.27.491,vbt_B1_day4,2022.2.4,Win32,29.99130252,,,,,,down,0,0.3921,,0.063888903,-0.024074095,1,0,0,0,41,41,175,1,heengaan,images/br_heengaan.png,images/cb_heengaan.png,0,,,,,,,,,,,,,,,,,,,,,,
,,,,,00029,2023-09-12_22h43.27.491,vbt_B1_day4,2022.2.4,Win32,29.99130252,,,,,,down,0,0.2011,,0.063888903,-0.024074095,1,0,0,0,42,42,48,1,steel,images/br_steel.png,images/cb_steel.png,0,,,,,,,,,,,,,,,,,,,,,,
,,,,,00029,2023-09-12_22h43.27.491,vbt_B1_day4,2022.2.4,Win32,29.99130252,,,,,,down,0,0.739,,0.063888903,-0.024074095,1,0,0,0,43,43,165,1,feestdag,images/br_feestdag.png,images/cb_feestdag.png,0,,,,,,,,,,,,,,,,,,,,,,
,,,,,00029,2023-09-12_22h43.27.491,vbt_B1_day4,2022.2.4,Win32,29.99130252,,,,,,down,0,7.9685,,0.063888903,-0.024074095,1,0,0,0,44,44,65,1,parel,images/br_parel.png,images/cb_parel.png,1,varel,,,,,,,,,,,,,,,,,,,,,
,,,,,00029,2023-09-12_22h43.27.491,vbt_B1_day4,2022.2.4,Win32,29.99130252,,,,,,down,0,0.2514,,0.063888903,-0.024074095,1,0,0,0,45,45,90,1,geluid,images/br_geluid.png,images/cb_geluid.png,0,,,,,,,,,,,,,,,,,,,,,,
,,,,,00029,2023-09-12_22h43.27.491,vbt_B1_day4,2022.2.4,Win32,29.99130252,,,,,,down,0,1.1732,,0.063888903,-0.024074095,1,0,0,0,46,46,88,1,boeien,images/br_boeien.png,images/cb_boeien.png,0,,,,,,,,,,,,,,,,,,,,,,
,,,,,00029,2023-09-12_22h43.27.491,vbt_B1_day4,2022.2.4,Win32,29.99130252,,,,,,down,0,1.7907,,0.063888903,-0.024074095,1,0,0,0,47,47,163,1,schuilen,images/br_schuilen.png,images/cb_schuilen.png,0,,,,,,,,,,,,,,,,,,,,,,
,,,,,00029,2023-09-12_22h43.27.491,vbt_B1_day4,2022.2.4,Win32,29.99130252,,,,,,down,0,0.5581,,0.063888903,-0.024074095,1,0,0,0,48,48,41,1,maken,images/br_maken.png,images/cb_maken.png,0,,,,,,,,,,,,,,,,,,,,,,
,,,,,00029,2023-09-12_22h43.27.491,vbt_B1_day4,2022.2.4,Win32,29.99130252,,,,,,down,0,0.7087,,0.063888903,-0.024074095,1,0,0,0,49,49,131,1,opzicht,images/br_opzicht.png,images/cb_opzicht.png,0,,,,,,,,,,,,,,,,,,,,,,
,,,,,00029,2023-09-12_22h43.27.491,vbt_B1_day4,2022.2.4,Win32,29.99130252,,,,,,down,0,1.3625,,0.063888903,-0.024074095,1,0,0,0,50,50,142,1,snuiven,images/br_snuiven.png,images/cb_snuiven.png,0,,,,,,,,,,,,,,,,,,,,,,
,,,,,00029,2023-09-12_22h43.27.491,vbt_B1_day4,2022.2.4,Win32,29.99130252,,,,,,down,0,0.2576,,0.063888903,-0.024074095,1,0,0,0,51,51,73,1,volop,images/br_volop.png,images/cb_volop.png,0,,,,,,,,,,,,,,,,,,,,,,
,,,,,00029,2023-09-12_22h43.27.491,vbt_B1_day4,2022.2.4,Win32,29.99130252,,,,,,down,0,0.5575,,0.063888903,-0.024074095,1,0,0,0,52,52,177,1,maaltijd,images/br_maaltijd.png,images/cb_maaltijd.png,0,,,,,,,,,,,,,,,,,,,,,,
,,,,,00029,2023-09-12_22h43.27.491,vbt_B1_day4,2022.2.4,Win32,29.99130252,,,,,,down,0,18.666,,0.063888903,-0.024074095,1,0,0,0,53,53,105,1,wijlen,images/br_wijlen.png,images/cb_wijlen.png,1,.i.len,,,,,,,,,,,,,,,,,,,,,
,,,,,00029,2023-09-12_22h43.27.491,vbt_B1_day4,2022.2.4,Win32,29.99130252,,,,,,down,0,1.7251,,0.063888903,-0.024074095,1,0,0,0,54,54,155,1,gerucht,images/br_gerucht.png,images/cb_gerucht.png,0,,,,,,,,,,,,,,,,,,,,,,
,,,,,00029,2023-09-12_22h43.27.491,vbt_B1_day4,2022.2.4,Win32,29.99130252,,,,,,down,0,0.5245,,0.063888903,-0.024074095,1,0,0,0,55,55,190,1,goedkoop,images/br_goedkoop.png,images/cb_goedkoop.png,0,,,,,,,,,,,,,,,,,,,,,,
,,,,,00029,2023-09-12_22h43.27.491,vbt_B1_day4,2022.2.4,Win32,29.99130252,,,,,,down,0,15.9729,,0.063888903,-0.024074095,1,0,0,0,56,56,27,1,dans,images/br_dans.png,images/cb_dans.png,1,.an. ,,,,,,,,,,,,,,,,,,,,,
,,,,,00029,2023-09-12_22h43.27.491,vbt_B1_day4,2022.2.4,Win32,29.99130252,,,,,,down,0,10.8156,,0.063888903,-0.024074095,1,0,0,0,57,57,106,1,zingen,images/br_zingen.png,images/cb_zingen.png,1,dingen,,,,,,,,,,,,,,,,,,,,,
,,,,,00029,2023-09-12_22h43.27.491,vbt_B1_day4,2022.2.4,Win32,29.99130252,,,,,,down,0,10.1239,,0.063888903,-0.024074095,1,0,0,0,58,58,26,1,leuk,images/br_leuk.png,images/cb_leuk.png,1,link,,,,,,,,,,,,,,,,,,,,,
,,,,,00029,2023-09-12_22h43.27.491,vbt_B1_day4,2022.2.4,Win32,29.99130252,,,,,,down,0,0.4099,,0.063888903,-0.024074095,1,0,0,0,59,59,42,1,bleek,images/br_bleek.png,images/cb_bleek.png,0,,,,,,,,,,,,,,,,,,,,,,
,,,,,00029,2023-09-12_22h43.27.491,vbt_B1_day4,2022.2.4,Win32,29.99130252,,,,,,down,0,4.7917,,0.051851838,-0.029629637,1,0,0,0,60,60,25,1,plek,images/br_plek.png,images/cb_plek.png,1,olek,,,,,,,,,,,,,,,,,,,,,
,,,,,00029,2023-09-12_22h43.27.491,vbt_B1_day4,2022.2.4,Win32,29.99130252,,,,,,down,0,0.4848,,0.051851838,-0.029629637,1,0,0,0,61,61,174,1,stemming,images/br_stemming.png,images/cb_stemming.png,0,,,,,,,,,,,,,,,,,,,,,,
,,,,,00029,2023-09-12_22h43.27.491,vbt_B1_day4,2022.2.4,Win32,29.99130252,,,,,,down,0,0.6187,,0.051851838,-0.029629637,1,0,0,0,62,62,107,1,maling,images/br_maling.png,images/cb_maling.png,1,,,,,,,,,,,,,,,,,,,,,,
,,,,,00029,2023-09-12_22h43.27.491,vbt_B1_day4,2022.2.4,Win32,29.99130252,,,,,,down,0,0.6643,,0.051851838,-0.029629637,1,0,0,0,63,63,68,1,schat,images/br_schat.png,images/cb_schat.png,0,,,,,,,,,,,,,,,,,,,,,,
,,,,,00029,2023-09-12_22h43.27.491,vbt_B1_day4,2022.2.4,Win32,29.99130252,,,,,,down,0,0.1724,,0.051851838,-0.029629637,1,0,0,0,64,64,83,1,mening,images/br_mening.png,images/cb_mening.png,0,,,,,,,,,,,,,,,,,,,,,,
,,,,,00029,2023-09-12_22h43.27.491,vbt_B1_day4,2022.2.4,Win32,29.99130252,,,,,,down,0,0.3647,,0.051851838,-0.029629637,1,0,0,0,65,65,125,1,aanzien,images/br_aanzien.png,images/cb_aanzien.png,0,,,,,,,,,,,,,,,,,,,,,,
,,,,,00029,2023-09-12_22h43.27.491,vbt_B1_day4,2022.2.4,Win32,29.99130252,,,,,,down,0,1.0693,,0.051851838,-0.029629637,1,0,0,0,66,66,117,1,kennis,images/br_kennis.png,images/cb_kennis.png,0,,,,,,,,,,,,,,,,,,,,,,
,,,,,00029,2023-09-12_22h43.27.491,vbt_B1_day4,2022.2.4,Win32,29.99130252,,,,,,down,0,0.0433,,0.051851838,-0.029629637,1,0,0,0,67,67,181,1,toegeven,images/br_toegeven.png,images/cb_toegeven.png,0,,,,,,,,,,,,,,,,,,,,,,
,,,,,00029,2023-09-12_22h43.27.491,vbt_B1_day4,2022.2.4,Win32,29.99130252,,,,,,down,0,1.7175,,0.051851838,-0.029629637,1,0,0,0,68,68,87,1,toeval,images/br_toeval.png,images/cb_toeval.png,0,,,,,,,,,,,,,,,,,,,,,,
,,,,,00029,2023-09-12_22h43.27.491,vbt_B1_day4,2022.2.4,Win32,29.99130252,,,,,,down,0,2.3062,,0.051851838,-0.029629637,1,0,0,0,69,69,136,1,waarbij,images/br_waarbij.png,images/cb_waarbij.png,0,,,,,,,,,,,,,,,,,,,,,,
,,,,,00029,2023-09-12_22h43.27.491,vbt_B1_day4,2022.2.4,Win32,29.99130252,,,,,,down,0,0.1666,,0.051851838,-0.029629637,1,0,0,0,70,70,82,1,muziek,images/br_muziek.png,images/cb_muziek.png,0,,,,,,,,,,,,,,,,,,,,,,
,,,,,00029,2023-09-12_22h43.27.491,vbt_B1_day4,2022.2.4,Win32,29.99130252,,,,,,down,0,0.7176,,0.051851838,-0.029629637,1,0,0,0,71,71,60,1,jasje,images/br_jasje.png,images/cb_jasje.png,0,,,,,,,,,,,,,,,,,,,,,,
,,,,,00029,2023-09-12_22h43.27.491,vbt_B1_day4,2022.2.4,Win32,29.99130252,,,,,,down,0,0.0007,,0.051851838,-0.029629637,1,0,0,0,72,72,115,1,kleren,images/br_kleren.png,images/cb_kleren.png,0,,,,,,,,,,,,,,,,,,,,,,
,,,,,00029,2023-09-12_22h43.27.491,vbt_B1_day4,2022.2.4,Win32,29.99130252,,,,,,down,0,0.1124,,0.051851838,-0.029629637,1,0,0,0,73,73,72,1,strak,images/br_strak.png,images/cb_strak.png,0,,,,,,,,,,,,,,,,,,,,,,
,,,,,00029,2023-09-12_22h43.27.491,vbt_B1_day4,2022.2.4,Win32,29.99130252,,,,,,down,0,1.8955,,0.051851838,-0.029629637,1,0,0,0,74,74,35,1,lust,images/br_lust.png,images/cb_lust.png,0,,,,,,,,,,,,,,,,,,,,,,
,,,,,00029,2023-09-12_22h43.27.491,vbt_B1_day4,2022.2.4,Win32,29.99130252,,,,,,down,0,1.7176,,0.051851838,-0.029629637,1,0,0,0,75,75,118,1,vinger,images/br_vinger.png,images/cb_vinger.png,0,,,,,,,,,,,,,,,,,,,,,,
,,,,,00029,2023-09-12_22h43.27.491,vbt_B1_day4,2022.2.4,Win32,29.99130252,,,,,,down,0,1.0414,,0.051851838,-0.029629637,1,0,0,0,76,76,192,1,schaamte,images/br_schaamte.png,images/cb_schaamte.png,0,,,,,,,,,,,,,,,,,,,,,,
,,,,,00029,2023-09-12_22h43.27.491,vbt_B1_day4,2022.2.4,Win32,29.99130252,,,,,,down,0,2.3338,,0.051851838,-0.029629637,1,0,0,0,77,77,109,1,totaal,images/br_totaal.png,images/cb_totaal.png,0,,,,,,,,,,,,,,,,,,,,,,
,,,,,00029,2023-09-12_22h43.27.491,vbt_B1_day4,2022.2.4,Win32,29.99130252,,,,,,down,0,0.4032,,0.051851838,-0.029629637,1,0,0,0,78,78,196,1,nakijken,images/br_nakijken.png,images/cb_nakijken.png,0,,,,,,,,,,,,,,,,,,,,,,
,,,,,00029,2023-09-12_22h43.27.491,vbt_B1_day4,2022.2.4,Win32,29.99130252,,,,,,down,0,0.6456,,0.051851838,-0.029629637,1,0,0,0,79,79,139,1,stiekem,images/br_stiekem.png,images/cb_stiekem.png,0,,,,,,,,,,,,,,,,,,,,,,
,,,,,00029,2023-09-12_22h43.27.491,vbt_B1_day4,2022.2.4,Win32,29.99130252,,,,,,down,0,0.4367,,0.051851838,-0.029629637,1,0,0,0,80,80,182,1,bijkomen,images/br_bijkomen.png,images/cb_bijkomen.png,0,,,,,,,,,,,,,,,,,,,,,,
,,,,,00029,2023-09-12_22h43.27.491,vbt_B1_day4,2022.2.4,Win32,29.99130252,,,,,,down,0,0.2722,,0.051851838,-0.029629637,1,0,0,0,81,81,20,1,site,images/br_site.png,images/cb_site.png,0,,,,,,,,,,,,,,,,,,,,,,
,,,,,00029,2023-09-12_22h43.27.491,vbt_B1_day4,2022.2.4,Win32,29.99130252,,,,,,down,0,0.6907,,0.051851838,-0.029629637,1,0,0,0,82,82,63,1,flirt,images/br_flirt.png,images/cb_flirt.png,0,,,,,,,,,,,,,,,,,,,,,,
,,,,,00029,2023-09-12_22h43.27.491,vbt_B1_day4,2022.2.4,Win32,29.99130252,,,,,,down,0,0.445,,0.051851838,-0.029629637,1,0,0,0,83,83,129,1,verhaal,images/br_verhaal.png,images/cb_verhaal.png,0,,,,,,,,,,,,,,,,,,,,,,
,,,,,00029,2023-09-12_22h43.27.491,vbt_B1_day4,2022.2.4,Win32,29.99130252,,,,,,down,0,0.0683,,0.051851838,-0.029629637,1,0,0,0,84,84,32,1,palm,images/br_palm.png,images/cb_palm.png,0,,,,,,,,,,,,,,,,,,,,,,
,,,,,00029,2023-09-12_22h43.27.491,vbt_B1_day4,2022.2.4,Win32,29.99130252,,,,,,down,0,0.0801,,0.051851838,-0.029629637,1,0,0,0,85,85,133,1,seizoen,images/br_seizoen.png,images/cb_seizoen.png,0,,,,,,,,,,,,,,,,,,,,,,
,,,,,00029,2023-09-12_22h43.27.491,vbt_B1_day4,2022.2.4,Win32,29.99130252,,,,,,down,0,1.2776,,0.051851838,-0.029629637,1,0,0,0,86,86,189,1,aanraden,images/br_aanraden.png,images/cb_aanraden.png,0,,,,,,,,,,,,,,,,,,,,,,
,,,,,00029,2023-09-12_22h43.27.491,vbt_B1_day4,2022.2.4,Win32,29.99130252,,,,,,down,0,0.0774,,0.051851838,-0.029629637,1,0,0,0,87,87,28,1,stal,images/br_stal.png,images/cb_stal.png,0,,,,,,,,,,,,,,,,,,,,,,
,,,,,00029,2023-09-12_22h43.27.491,vbt_B1_day4,2022.2.4,Win32,29.99130252,,,,,,down,0,0.0009,,0.051851838,-0.029629637,1,0,0,0,88,88,78,1,leren,images/br_leren.png,images/cb_leren.png,0,,,,,,,,,,,,,,,,,,,,,,
,,,,,00029,2023-09-12_22h43.27.491,vbt_B1_day4,2022.2.4,Win32,29.99130252,,,,,,down,0,0.8524,,0.051851838,-0.029629637,1,0,0,0,89,89,69,1,waken,images/br_waken.png,images/cb_waken.png,0,,,,,,,,,,,,,,,,,,,,,,
,,,,,00029,2023-09-12_22h43.27.491,vbt_B1_day4,2022.2.4,Win32,29.99130252,,,,,,down,0,0.0952,,0.051851838,-0.029629637,1,0,0,0,90,90,180,1,openbaar,images/br_openbaar.png,images/cb_openbaar.png,0,,,,,,,,,,,,,,,,,,,,,,
,,,,,00029,2023-09-12_22h43.27.491,vbt_B1_day4,2022.2.4,Win32,29.99130252,,,,,,down,0,0.2746,,0.051851838,-0.029629637,1,0,0,0,91,91,55,1,praat,images/br_praat.png,images/cb_praat.png,0,,,,,,,,,,,,,,,,,,,,,,
,,,,,00029,2023-09-12_22h43.27.491,vbt_B1_day4,2022.2.4,Win32,29.99130252,,,,,,down,0,0.0739,,0.051851838,-0.029629637,1,0,0,0,92,92,132,1,grappen,images/br_grappen.png,images/cb_grappen.png,0,,,,,,,,,,,,,,,,,,,,,,
,,,,,00029,2023-09-12_22h43.27.491,vbt_B1_day4,2022.2.4,Win32,29.99130252,,,,,,down,0,0.3611,,0.051851838,-0.029629637,1,0,0,0,93,93,126,1,kasteel,images/br_kasteel.png,images/cb_kasteel.png,0,,,,,,,,,,,,,,,,,,,,,,
,,,,,00029,2023-09-12_22h43.27.491,vbt_B1_day4,2022.2.4,Win32,29.99130252,,,,,,down,0,0.1061,,0.051851838,-0.029629637,1,0,0,0,94,94,58,1,tekst,images/br_tekst.png,images/cb_tekst.png,0,,,,,,,,,,,,,,,,,,,,,,
,,,,,00029,2023-09-12_22h43.27.491,vbt_B1_day4,2022.2.4,Win32,29.99130252,,,,,,down,0,1.1664,,0.051851838,-0.029629637,1,0,0,0,95,95,162,1,uitdelen,images/br_uitdelen.png,images/cb_uitdelen.png,0,,,,,,,,,,,,,,,,,,,,,,
,,,,,00029,2023-09-12_22h43.27.491,vbt_B1_day4,2022.2.4,Win32,29.99130252,,,,,,down,0,0.1624,,0.051851838,-0.029629637,1,0,0,0,96,96,93,1,waarop,images/br_waarop.png,images/cb_waarop.png,0,,,,,,,,,,,,,,,,,,,,,,
,,,,,00029,2023-09-12_22h43.27.491,vbt_B1_day4,2022.2.4,Win32,29.99130252,,,,,,down,0,0.6664,,0.051851838,-0.029629637,1,0,0,0,97,97,57,1,steek,images/br_steek.png,images/cb_steek.png,0,,,,,,,,,,,,,,,,,,,,,,
,,,,,00029,2023-09-12_22h43.27.491,vbt_B1_day4,2022.2.4,Win32,29.99130252,,,,,,down,0,0.585,,0.051851838,-0.029629637,1,0,0,0,98,98,81,1,dubbel,images/br_dubbel.png,images/cb_dubbel.png,0,,,,,,,,,,,,,,,,,,,,,,
,,,,,00029,2023-09-12_22h43.27.491,vbt_B1_day4,2022.2.4,Win32,29.99130252,,,,,,down,0,0.0509,,0.051851838,-0.029629637,1,0,0,0,99,99,50,1,stoom,images/br_stoom.png,images/cb_stoom.png,0,,,,,,,,,,,,,,,,,,,,,,
,,,,,00029,2023-09-12_22h43.27.491,vbt_B1_day4,2022.2.4,Win32,29.99130252,,,,,,down,0,0.2343,,0.083333333,-0.055555556,1,0,0,0,100,100,61,1,groen,images/br_groen.png,images/cb_groen.png,0,,,,,,,,,,,,,,,,,,,,,,
,,,,,00029,2023-09-12_22h43.27.491,vbt_B1_day4,2022.2.4,Win32,29.99130252,,,,,,down,0,0.6507,,0.083333333,-0.055555556,1,0,0,0,101,101,62,1,knaap,images/br_knaap.png,images/cb_knaap.png,0,,,,,,,,,,,,,,,,,,,,,,
,,,,,00029,2023-09-12_22h43.27.491,vbt_B1_day4,2022.2.4,Win32,29.99130252,,,,,,down,0,0.5838,,0.083333333,-0.055555556,1,0,0,0,102,102,193,1,weeshuis,images/br_weeshuis.png,images/cb_weeshuis.png,0,,,,,,,,,,,,,,,,,,,,,,
,,,,,00029,2023-09-12_22h43.27.491,vbt_B1_day4,2022.2.4,Win32,29.99130252,,,,,,down,0,3.4848,,0.083333333,-0.055555556,1,0,0,0,103,103,135,1,gedicht,images/br_gedicht.png,images/cb_gedicht.png,0,,,,,,,,,,,,,,,,,,,,,,
,,,,,00029,2023-09-12_22h43.27.491,vbt_B1_day4,2022.2.4,Win32,29.99130252,,,,,,down,0,2.1963,,0.083333333,-0.055555556,1,0,0,0,104,104,98,1,kreeft,images/br_kreeft.png,images/cb_kreeft.png,0,,,,,,,,,,,,,,,,,,,,,,
,,,,,00029,2023-09-12_22h43.27.491,vbt_B1_day4,2022.2.4,Win32,29.99130252,,,,,,down,0,0.341,,0.083333333,-0.055555556,1,0,0,0,105,105,157,1,uitlaat,images/br_uitlaat.png,images/cb_uitlaat.png,0,,,,,,,,,,,,,,,,,,,,,,
,,,,,00029,2023-09-12_22h43.27.491,vbt_B1_day4,2022.2.4,Win32,29.99130252,,,,,,down,0,0.7134,,0.083333333,-0.055555556,1,0,0,0,106,106,21,1,mist,images/br_mist.png,images/cb_mist.png,0,,,,,,,,,,,,,,,,,,,,,,
,,,,,00029,2023-09-12_22h43.27.491,vbt_B1_day4,2022.2.4,Win32,29.99130252,,,,,,down,0,2.4082,,0.083333333,-0.055555556,1,0,0,0,107,107,52,1,wagon,images/br_wagon.png,images/cb_wagon.png,0,,,,,,,,,,,,,,,,,,,,,,
,,,,,00029,2023-09-12_22h43.27.491,vbt_B1_day4,2022.2.4,Win32,29.99130252,,,,,,down,0,3.4898,,0.083333333,-0.055555556,1,0,0,0,108,108,160,1,daarheen,images/br_daarheen.png,images/cb_daarheen.png,0,,,,,,,,,,,,,,,,,,,,,,
,,,,,00029,2023-09-12_22h43.27.491,vbt_B1_day4,2022.2.4,Win32,29.99130252,,,,,,down,0,0.0992,,0.083333333,-0.055555556,1,0,0,0,109,109,191,1,opheffen,images/br_opheffen.png,images/cb_opheffen.png,0,,,,,,,,,,,,,,,,,,,,,,
,,,,,00029,2023-09-12_22h43.27.491,vbt_B1_day4,2022.2.4,Win32,29.99130252,,,,,,down,0,2.3807,,0.083333333,-0.056481503,1,0,0,0,110,110,8,1,knie,images/br_knie.png,images/cb_knie.png,0,,,,,,,,,,,,,,,,,,,,,,
,,,,,00029,2023-09-12_22h43.27.491,vbt_B1_day4,2022.2.4,Win32,29.99130252,,,,,,down,0,1.629,,0.083333333,-0.056481503,1,0,0,0,111,111,179,1,woestijn,images/br_woestijn.png,images/cb_woestijn.png,0,,,,,,,,,,,,,,,,,,,,,,
,,,,,00029,2023-09-12_22h43.27.491,vbt_B1_day4,2022.2.4,Win32,29.99130252,,,,,,down,0,0.3476,,0.083333333,-0.056481503,1,0,0,0,112,112,10,1,leek,images/br_leek.png,images/cb_leek.png,0,,,,,,,,,,,,,,,,,,,,,,
,,,,,00029,2023-09-12_22h43.27.491,vbt_B1_day4,2022.2.4,Win32,29.99130252,,,,,,down,0,1.8642,,0.083333333,-0.056481503,1,0,0,0,113,113,94,1,oceaan,images/br_oceaan.png,images/cb_oceaan.png,0,,,,,,,,,,,,,,,,,,,,,,
,,,,,00029,2023-09-12_22h43.27.491,vbt_B1_day4,2022.2.4,Win32,29.99130252,,,,,,down,0,0.0337,,0.083333333,-0.056481503,1,0,0,0,114,114,111,1,ticket,images/br_ticket.png,images/cb_ticket.png,0,,,,,,,,,,,,,,,,,,,,,,
,,,,,00029,2023-09-12_22h43.27.491,vbt_B1_day4,2022.2.4,Win32,29.99130252,,,,,,down,0,0.2603,,0.083333333,-0.056481503,1,0,0,0,115,115,148,1,smullen,images/br_smullen.png,images/cb_smullen.png,0,,,,,,,,,,,,,,,,,,,,,,
,,,,,00029,2023-09-12_22h43.27.491,vbt_B1_day4,2022.2.4,Win32,29.99130252,,,,,,down,0,0.3197,,0.083333333,-0.056481503,1,0,0,0,116,116,113,1,koppen,images/br_koppen.png,images/cb_koppen.png,0,,,,,,,,,,,,,,,,,,,,,,
,,,,,00029,2023-09-12_22h43.27.491,vbt_B1_day4,2022.2.4,Win32,29.99130252,,,,,,down,0,0.125,,0.083333333,-0.056481503,1,0,0,0,117,117,119,1,liefje,images/br_liefje.png,images/cb_liefje.png,0,,,,,,,,,,,,,,,,,,,,,,
,,,,,00029,2023-09-12_22h43.27.491,vbt_B1_day4,2022.2.4,Win32,29.99130252,,,,,,down,0,1.1248,,0.083333333,-0.056481503,1,0,0,0,118,118,79,1,nodig,images/br_nodig.png,images/cb_nodig.png,0,,,,,,,,,,,,,,,,,,,,,,
,,,,,00029,2023-09-12_22h43.27.491,vbt_B1_day4,2022.2.4,Win32,29.99130252,,,,,,down,0,1.6888,,0.083333333,-0.056481503,1,0,0,0,119,119,12,1,kust,images/br_kust.png,images/cb_kust.png,0,,,,,,,,,,,,,,,,,,,,,,
,,,,,00029,2023-09-12_22h43.27.491,vbt_B1_day4,2022.2.4,Win32,29.99130252,,,,,,down,0,4.8804,,0.083333333,-0.056481503,1,0,0,0,120,120,86,1,woning,images/br_woning.png,images/cb_woning.png,0,,,,,,,,,,,,,,,,,,,,,,
,,,,,00029,2023-09-12_22h43.27.491,vbt_B1_day4,2022.2.4,Win32,29.99130252,,,,,,down,0,0.6472,,0.083333333,-0.056481503,1,0,0,0,121,121,7,1,geld,images/br_geld.png,images/cb_geld.png,0,,,,,,,,,,,,,,,,,,,,,,
,,,,,00029,2023-09-12_22h43.27.491,vbt_B1_day4,2022.2.4,Win32,29.99130252,,,,,,down,0,0.2435,,0.083333333,-0.056481503,1,0,0,0,122,122,134,1,geliefd,images/br_geliefd.png,images/cb_geliefd.png,0,,,,,,,,,,,,,,,,,,,,,,
,,,,,00029,2023-09-12_22h43.27.491,vbt_B1_day4,2022.2.4,Win32,29.99130252,,,,,,down,0,0.1195,,0.083333333,-0.056481503,1,0,0,0,123,123,11,1,mode,images/br_mode.png,images/cb_mode.png,0,,,,,,,,,,,,,,,,,,,,,,
,,,,,00029,2023-09-12_22h43.27.491,vbt_B1_day4,2022.2.4,Win32,29.99130252,,,,,,down,0,2.5386,,0.083333333,-0.056481503,1,0,0,0,124,124,158,1,innemen,images/br_innemen.png,images/cb_innemen.png,0,,,,,,,,,,,,,,,,,,,,,,
,,,,,00029,2023-09-12_22h43.27.491,vbt_B1_day4,2022.2.4,Win32,29.99130252,,,,,,down,0,0.9083,,0.083333333,-0.056481503,1,0,0,0,125,125,185,1,mijnheer,images/br_mijnheer.png,images/cb_mijnheer.png,1,,,,,,,,,,,,,,,,,,,,,,
,,,,,00029,2023-09-12_22h43.27.491,vbt_B1_day4,2022.2.4,Win32,29.99130252,,,,,,down,0,0.4876,,0.083333333,-0.056481503,1,0,0,0,126,126,150,1,gegeven,images/br_gegeven.png,images/cb_gegeven.png,0,,,,,,,,,,,,,,,,,,,,,,
,,,,,00029,2023-09-12_22h43.27.491,vbt_B1_day4,2022.2.4,Win32,29.99130252,,,,,,down,0,3.0538,,0.083333333,-0.056481503,1,0,0,0,127,127,198,1,bedoelen,images/br_bedoelen.png,images/cb_bedoelen.png,0,,,,,,,,,,,,,,,,,,,,,,
,,,,,00029,2023-09-12_22h43.27.491,vbt_B1_day4,2022.2.4,Win32,29.99130252,,,,,,down,0,1.0152,,0.083333333,-0.056481503,1,0,0,0,128,128,71,1,bever,images/br_bever.png,images/cb_bever.png,0,,,,,,,,,,,,,,,,,,,,,,
,,,,,00029,2023-09-12_22h43.27.491,vbt_B1_day4,2022.2.4,Win32,29.99130252,,,,,,down,0,0.3492,,0.083333333,-0.056481503,1,0,0,0,129,129,70,1,ijdel,images/br_ijdel.png,images/cb_ijdel.png,0,,,,,,,,,,,,,,,,,,,,,,
,,,,,00029,2023-09-12_22h43.27.491,vbt_B1_day4,2022.2.4,Win32,29.99130252,,,,,,down,0,1.4609,,0.083333333,-0.056481503,1,0,0,0,130,130,99,1,koffie,images/br_koffie.png,images/cb_koffie.png,0,,,,,,,,,,,,,,,,,,,,,,
,,,,,00029,2023-09-12_22h43.27.491,vbt_B1_day4,2022.2.4,Win32,29.99130252,,,,,,down,0,0.1943,,0.083333333,-0.056481503,1,0,0,0,131,131,44,1,flits,images/br_flits.png,images/cb_flits.png,0,,,,,,,,,,,,,,,,,,,,,,
,,,,,00029,2023-09-12_22h43.27.491,vbt_B1_day4,2022.2.4,Win32,29.99130252,,,,,,down,0,39.8834,,0.083333333,-0.056481503,1,0,0,0,132,132,146,1,opkomen,images/br_opkomen.png,images/cb_opkomen.png,1,omkopen,,,,,,,,,,,,,,,,,,,,,
,,,,,00029,2023-09-12_22h43.27.491,vbt_B1_day4,2022.2.4,Win32,29.99130252,,,,,,down,0,0.6333,,0.083333333,-0.056481503,1,0,0,0,133,133,22,1,stof,images/br_stof.png,images/cb_stof.png,0,,,,,,,,,,,,,,,,,,,,,,
,,,,,00029,2023-09-12_22h43.27.491,vbt_B1_day4,2022.2.4,Win32,29.99130252,,,,,,down,0,1.8964,,0.083333333,-0.056481503,1,0,0,0,134,134,161,1,attentie,images/br_attentie.png,images/cb_attentie.png,0,,,,,,,,,,,,,,,,,,,,,,
,,,,,00029,2023-09-12_22h43.27.491,vbt_B1_day4,2022.2.4,Win32,29.99130252,,,,,,down,0,0.0262,,0.083333333,-0.056481503,1,0,0,0,135,135,18,1,blik,images/br_blik.png,images/cb_blik.png,0,,,,,,,,,,,,,,,,,,,,,,
,,,,,00029,2023-09-12_22h43.27.491,vbt_B1_day4,2022.2.4,Win32,29.99130252,,,,,,down,0,0.8907,,0.083333333,-0.056481503,1,0,0,0,136,136,103,1,joggen,images/br_joggen.png,images/cb_joggen.png,0,,,,,,,,,,,,,,,,,,,,,,
,,,,,00029,2023-09-12_22h43.27.491,vbt_B1_day4,2022.2.4,Win32,29.99130252,,,,,,down,0,1.2277,,0.083333333,-0.056481503,1,0,0,0,137,137,31,1,poes,images/br_poes.png,images/cb_poes.png,0,,,,,,,,,,,,,,,,,,,,,,
,,,,,00029,2023-09-12_22h43.27.491,vbt_B1_day4,2022.2.4,Win32,29.99130252,,,,,,down,0,0.8551,,0.083333333,-0.056481503,1,0,0,0,138,138,172,1,weigeren,images/br_weigeren.png,images/cb_weigeren.png,0,,,,,,,,,,,,,,,,,,,,,,
,,,,,00029,2023-09-12_22h43.27.491,vbt_B1_day4,2022.2.4,Win32,29.99130252,,,,,,down,0,0.4528,,0.083333333,-0.056481503,1,0,0,0,139,139,54,1,gebit,images/br_gebit.png,images/cb_gebit.png,0,,,,,,,,,,,,,,,,,,,,,,
,,,,,00029,2023-09-12_22h43.27.491,vbt_B1_day4,2022.2.4,Win32,29.99130252,,,,,,down,0,1.9512,,0.083333333,-0.056481503,1,0,0,0,140,140,39,1,laag,images/br_laag.png,images/cb_laag.png,0,,,,,,,,,,,,,,,,,,,,,,
,,,,,00029,2023-09-12_22h43.27.491,vbt_B1_day4,2022.2.4,Win32,29.99130252,,,,,,down,0,1.1492,,0.083333333,-0.056481503,1,0,0,0,141,141,130,1,keihard,images/br_keihard.png,images/cb_keihard.png,0,,,,,,,,,,,,,,,,,,,,,,
,,,,,00029,2023-09-12_22h43.27.491,vbt_B1_day4,2022.2.4,Win32,29.99130252,,,,,,down,0,0.152,,0.083333333,-0.056481503,1,0,0,0,142,142,46,1,jagen,images/br_jagen.png,images/cb_jagen.png,0,,,,,,,,,,,,,,,,,,,,,,
,,,,,00029,2023-09-12_22h43.27.491,vbt_B1_day4,2022.2.4,Win32,29.99130252,,,,,,down,0,0.329,,0.083333333,-0.056481503,1,0,0,0,143,143,38,1,baai,images/br_baai.png,images/cb_baai.png,0,,,,,,,,,,,,,,,,,,,,,,
,,,,,00029,2023-09-12_22h43.27.491,vbt_B1_day4,2022.2.4,Win32,29.99130252,,,,,,down,0,0.134,,0.083333333,-0.056481503,1,0,0,0,144,144,197,1,spanning,images/br_spanning.png,images/cb_spanning.png,0,,,,,,,,,,,,,,,,,,,,,,
,,,,,00029,2023-09-12_22h43.27.491,vbt_B1_day4,2022.2.4,Win32,29.99130252,,,,,,down,0,0.6367,,0.083333333,-0.056481503,1,0,0,0,145,145,101,1,staren,images/br_staren.png,images/cb_staren.png,0,,,,,,,,,,,,,,,,,,,,,,
,,,,,00029,2023-09-12_22h43.27.491,vbt_B1_day4,2022.2.4,Win32,29.99130252,,,,,,down,0,0.299,,0.083333333,-0.056481503,1,0,0,0,146,146,5,1,blad,images/br_blad.png,images/cb_blad.png,0,,,,,,,,,,,,,,,,,,,,,,
,,,,,00029,2023-09-12_22h43.27.491,vbt_B1_day4,2022.2.4,Win32,29.99130252,,,,,,down,0,1.7758,,0.083333333,-0.056481503,1,0,0,0,147,147,102,1,legaal,images/br_legaal.png,images/cb_legaal.png,0,,,,,,,,,,,,,,,,,,,,,,
,,,,,00029,2023-09-12_22h43.27.491,vbt_B1_day4,2022.2.4,Win32,29.99130252,,,,,,down,0,2.3011,,0.083333333,-0.056481503,1,0,0,0,148,148,122,1,waarvan,images/br_waarvan.png,images/cb_waarvan.png,0,,,,,,,,,,,,,,,,,,,,,,
,,,,,00029,2023-09-12_22h43.27.491,vbt_B1_day4,2022.2.4,Win32,29.99130252,,,,,,down,0,0.2356,,0.083333333,-0.056481503,1,0,0,0,149,149,151,1,aanzoek,images/br_aanzoek.png,images/cb_aanzoek.png,0,,,,,,,,,,,,,,,,,,,,,,
,,,,,00029,2023-09-12_22h43.27.491,vbt_B1_day4,2022.2.4,Win32,29.99130252,,,,,,down,0,0.9689,,0.083333333,-0.056481503,1,0,0,0,150,150,47,1,kabel,images/br_kabel.png,images/cb_kabel.png,0,,,,,,,,,,,,,,,,,,,,,,
,,,,,00029,2023-09-12_22h43.27.491,vbt_B1_day4,2022.2.4,Win32,29.99130252,,,,,,down,0,5.954,,0.083333333,-0.056481503,1,0,0,0,151,151,144,1,eetlust,images/br_eetlust.png,images/cb_eetlust.png,1,eetlust,,,,,,,,,,,,,,,,,,,,,
,,,,,00029,2023-09-12_22h43.27.491,vbt_B1_day4,2022.2.4,Win32,29.99130252,,,,,,down,0,0.1106,,0.083333333,-0.056481503,1,0,0,0,152,152,110,1,zuster,images/br_zuster.png,images/cb_zuster.png,0,,,,,,,,,,,,,,,,,,,,,,
,,,,,00029,2023-09-12_22h43.27.491,vbt_B1_day4,2022.2.4,Win32,29.99130252,,,,,,down,0,0.7531,,0.083333333,-0.056481503,1,0,0,0,153,153,37,1,mijn,images/br_mijn.png,images/cb_mijn.png,0,,,,,,,,,,,,,,,,,,,,,,
,,,,,00029,2023-09-12_22h43.27.491,vbt_B1_day4,2022.2.4,Win32,29.99130252,,,,,,down,0,0.3655,,0.083333333,-0.056481503,1,0,0,0,154,154,89,1,slapen,images/br_slapen.png,images/cb_slapen.png,0,,,,,,,,,,,,,,,,,,,,,,
,,,,,00029,2023-09-12_22h43.27.491,vbt_B1_day4,2022.2.4,Win32,29.99130252,,,,,,down,0,2.0193,,0.083333333,-0.056481503,1,0,0,0,155,155,29,1,baas,images/br_baas.png,images/cb_baas.png,0,,,,,,,,,,,,,,,,,,,,,,
,,,,,00029,2023-09-12_22h43.27.491,vbt_B1_day4,2022.2.4,Win32,29.99130252,,,,,,down,0,3.9826,,0.083333333,-0.056481503,1,0,0,0,156,156,127,1,doodmoe,images/br_doodmoe.png,images/cb_doodmoe.png,0,,,,,,,,,,,,,,,,,,,,,,
,,,,,00029,2023-09-12_22h43.27.491,vbt_B1_day4,2022.2.4,Win32,29.99130252,,,,,,down,0,1.476,,0.083333333,-0.056481503,1,0,0,0,157,157,154,1,aflopen,images/br_aflopen.png,images/cb_aflopen.png,0,,,,,,,,,,,,,,,,,,,,,,
,,,,,00029,2023-09-12_22h43.27.491,vbt_B1_day4,2022.2.4,Win32,29.99130252,,,,,,down,0,1.1533,,0.083333333,-0.056481503,1,0,0,0,158,158,171,1,aarzelen,images/br_aarzelen.png,images/cb_aarzelen.png,0,,,,,,,,,,,,,,,,,,,,,,
,,,,,00029,2023-09-12_22h43.27.491,vbt_B1_day4,2022.2.4,Win32,29.99130252,,,,,,down,0,0.7214,,0.083333333,-0.056481503,1,0,0,0,159,159,40,1,schep,images/br_schep.png,images/cb_schep.png,0,,,,,,,,,,,,,,,,,,,,,,
,,,,,00029,2023-09-12_22h43.27.491,vbt_B1_day4,2022.2.4,Win32,29.99130252,,,,,,down,0,6.1341,,0.083333333,-0.056481503,1,0,0,0,160,160,24,1,jurk,images/br_jurk.png,images/cb_jurk.png,1,werk,,,,,,,,,,,,,,,,,,,,,
,,,,,00029,2023-09-12_22h43.27.491,vbt_B1_day4,2022.2.4,Win32,29.99130252,,,,,,down,0,0.0775,,0.083333333,-0.056481503,1,0,0,0,161,161,96,1,slagen,images/br_slagen.png,images/cb_slagen.png,0,,,,,,,,,,,,,,,,,,,,,,
,,,,,00029,2023-09-12_22h43.27.491,vbt_B1_day4,2022.2.4,Win32,29.99130252,,,,,,down,0,0.4117,,0.083333333,-0.056481503,1,0,0,0,162,162,153,1,vervoer,images/br_vervoer.png,images/cb_vervoer.png,0,,,,,,,,,,,,,,,,,,,,,,
,,,,,00029,2023-09-12_22h43.27.491,vbt_B1_day4,2022.2.4,Win32,29.99130252,,,,,,down,0,0.2687,,0.083333333,-0.056481503,1,0,0,0,163,163,4,1,moes,images/br_moes.png,images/cb_moes.png,0,,,,,,,,,,,,,,,,,,,,,,
,,,,,00029,2023-09-12_22h43.27.491,vbt_B1_day4,2022.2.4,Win32,29.99130252,,,,,,down,0,0.3625,,0.083333333,-0.056481503,1,0,0,0,164,164,187,1,opkijken,images/br_opkijken.png,images/cb_opkijken.png,1,,,,,,,,,,,,,,,,,,,,,,
,,,,,00029,2023-09-12_22h43.27.491,vbt_B1_day4,2022.2.4,Win32,29.99130252,,,,,,down,0,0.6771,,0.083333333,-0.056481503,1,0,0,0,165,165,170,1,schatten,images/br_schatten.png,images/cb_schatten.png,0,,,,,,,,,,,,,,,,,,,,,,
,,,,,00029,2023-09-12_22h43.27.491,vbt_B1_day4,2022.2.4,Win32,29.99130252,,,,,,down,0,1.2845,,0.083333333,-0.056481503,1,0,0,0,166,166,195,1,middelen,images/br_middelen.png,images/cb_middelen.png,0,,,,,,,,,,,,,,,,,,,,,,
,,,,,00029,2023-09-12_22h43.27.491,vbt_B1_day4,2022.2.4,Win32,29.99130252,,,,,,down,0,0.3867,,0.083333333,-0.056481503,1,0,0,0,167,167,80,1,kanjer,images/br_kanjer.png,images/cb_kanjer.png,0,,,,,,,,,,,,,,,,,,,,,,
,,,,,00029,2023-09-12_22h43.27.491,vbt_B1_day4,2022.2.4,Win32,29.99130252,,,,,,down,0,1.7638,,0.083333333,-0.056481503,1,0,0,0,168,168,0,1,slak,images/br_slak.png,images/cb_slak.png,0,,,,,,,,,,,,,,,,,,,,,,
,,,,,00029,2023-09-12_22h43.27.491,vbt_B1_day4,2022.2.4,Win32,29.99130252,,,,,,down,0,0.2176,,0.083333333,-0.056481503,1,0,0,0,169,169,16,1,ziek,images/br_ziek.png,images/cb_ziek.png,0,,,,,,,,,,,,,,,,,,,,,,
,,,,,00029,2023-09-12_22h43.27.491,vbt_B1_day4,2022.2.4,Win32,29.99130252,,,,,,down,0,0.283,,0.083333333,-0.056481503,1,0,0,0,170,170,23,1,zout,images/br_zout.png,images/cb_zout.png,0,,,,,,,,,,,,,,,,,,,,,,
,,,,,00029,2023-09-12_22h43.27.491,vbt_B1_day4,2022.2.4,Win32,29.99130252,,,,,,down,0,0.3741,,0.083333333,-0.056481503,1,0,0,0,171,171,173,1,apparaat,images/br_apparaat.png,images/cb_apparaat.png,0,,,,,,,,,,,,,,,,,,,,,,
,,,,,00029,2023-09-12_22h43.27.491,vbt_B1_day4,2022.2.4,Win32,29.99130252,,,,,,down,0,2.3092,,0.083333333,-0.056481503,1,0,0,0,172,172,92,1,geheim,images/br_geheim.png,images/cb_geheim.png,0,,,,,,,,,,,,,,,,,,,,,,
,,,,,00029,2023-09-12_22h43.27.491,vbt_B1_day4,2022.2.4,Win32,29.99130252,,,,,,down,0,15.9198,,0.083333333,-0.056481503,1,0,0,0,173,173,184,1,aandelen,images/br_aandelen.png,images/cb_aandelen.png,1,aanbelen,,,,,,,,,,,,,,,,,,,,,
,,,,,00029,2023-09-12_22h43.27.491,vbt_B1_day4,2022.2.4,Win32,29.99130252,,,,,,down,0,0.3925,,0.09629631,-0.067592586,1,0,0,0,174,174,45,1,piste,images/br_piste.png,images/cb_piste.png,0,,,,,,,,,,,,,,,,,,,,,,
,,,,,00029,2023-09-12_22h43.27.491,vbt_B1_day4,2022.2.4,Win32,29.99130252,,,,,,down,0,0.6031,,0.09629631,-0.067592586,1,0,0,0,175,175,85,1,heilig,images/br_heilig.png,images/cb_heilig.png,0,,,,,,,,,,,,,,,,,,,,,,
,,,,,00029,2023-09-12_22h43.27.491,vbt_B1_day4,2022.2.4,Win32,29.99130252,,,,,,down,0,0.4667,,0.09629631,-0.067592586,1,0,0,0,176,176,51,1,samen,images/br_samen.png,images/cb_samen.png,0,,,,,,,,,,,,,,,,,,,,,,
,,,,,00029,2023-09-12_22h43.27.491,vbt_B1_day4,2022.2.4,Win32,29.99130252,,,,,,down,0,0.2149,,0.09629631,-0.067592586,1,0,0,0,177,177,178,1,huisdier,images/br_huisdier.png,images/cb_huisdier.png,0,,,,,,,,,,,,,,,,,,,,,,
,,,,,00029,2023-09-12_22h43.27.491,vbt_B1_day4,2022.2.4,Win32,29.99130252,,,,,,down,0,0.199,,0.09629631,-0.067592586,1,0,0,0,178,178,49,1,laken,images/br_laken.png,images/cb_laken.png,0,,,,,,,,,,,,,,,,,,,,,,
,,,,,00029,2023-09-12_22h43.27.491,vbt_B1_day4,2022.2.4,Win32,29.99130252,,,,,,down,0,0.0373,,0.09629631,-0.067592586,1,0,0,0,179,179,164,1,anarchie,images/br_anarchie.png,images/cb_anarchie.png,0,,,,,,,,,,,,,,,,,,,,,,
,,,,,00029,2023-09-12_22h43.27.491,vbt_B1_day4,2022.2.4,Win32,29.99130252,,,,,,down,0,0.3612,,0.09629631,-0.067592586,1,0,0,0,180,180,108,1,excuus,images/br_excuus.png,images/cb_excuus.png,0,,,,,,,,,,,,,,,,,,,,,,
,,,,,00029,2023-09-12_22h43.27.491,vbt_B1_day4,2022.2.4,Win32,29.99130252,,,,,,down,0,0.8586,,0.09629631,-0.067592586,1,0,0,0,181,181,137,1,trekker,images/br_trekker.png,images/cb_trekker.png,0,,,,,,,,,,,,,,,,,,,,,,
,,,,,00029,2023-09-12_22h43.27.491,vbt_B1_day4,2022.2.4,Win32,29.99130252,,,,,,down,0,1.4505,,0.09629631,-0.067592586,1,0,0,0,182,182,76,1,afval,images/br_afval.png,images/cb_afval.png,0,,,,,,,,,,,,,,,,,,,,,,
,,,,,00029,2023-09-12_22h43.27.491,vbt_B1_day4,2022.2.4,Win32,29.99130252,,,,,,down,0,0.2001,,0.09629631,-0.067592586,1,0,0,0,183,183,36,1,vuur,images/br_vuur.png,images/cb_vuur.png,0,,,,,,,,,,,,,,,,,,,,,,
,,,,,00029,2023-09-12_22h43.27.491,vbt_B1_day4,2022.2.4,Win32,29.99130252,,,,,,down,0,2.0281,,0.09629631,-0.067592586,1,0,0,0,184,184,1,1,zaal,images/br_zaal.png,images/cb_zaal.png,0,,,,,,,,,,,,,,,,,,,,,,
,,,,,00029,2023-09-12_22h43.27.491,vbt_B1_day4,2022.2.4,Win32,29.99130252,,,,,,down,0,1.2957,,0.09629631,-0.067592586,1,0,0,0,185,185,116,1,besmet,images/br_besmet.png,images/cb_besmet.png,0,,,,,,,,,,,,,,,,,,,,,,
,,,,,00029,2023-09-12_22h43.27.491,vbt_B1_day4,2022.2.4,Win32,29.99130252,,,,,,down,0,12.1522,,0.09629631,-0.067592586,1,0,0,0,186,186,104,1,zweven,images/br_zweven.png,images/cb_zweven.png,1,nuipen,,,,,,,,,,,,,,,,,,,,,
,,,,,00029,2023-09-12_22h43.27.491,vbt_B1_day4,2022.2.4,Win32,29.99130252,,,,,,down,0,0.3424,,0.09629631,-0.067592586,1,0,0,0,187,187,14,1,rijp,images/br_rijp.png,images/cb_rijp.png,0,,,,,,,,,,,,,,,,,,,,,,
,,,,,00029,2023-09-12_22h43.27.491,vbt_B1_day4,2022.2.4,Win32,29.99130252,,,,,,down,0,0.3991,,0.09629631,-0.067592586,1,0,0,0,188,188,91,1,gezond,images/br_gezond.png,images/cb_gezond.png,0,,,,,,,,,,,,,,,,,,,,,,
,,,,,00029,2023-09-12_22h43.27.491,vbt_B1_day4,2022.2.4,Win32,29.99130252,,,,,,down,0,10.3365,,0.09629631,-0.067592586,1,0,0,0,189,189,145,1,invloed,images/br_invloed.png,images/cb_invloed.png,1,,,,,,,,,,,,,,,,,,,,,,
,,,,,00029,2023-09-12_22h43.27.491,vbt_B1_day4,2022.2.4,Win32,29.99130252,,,,,,down,0,0.5685,,0.09629631,-0.067592586,1,0,0,0,190,190,121,1,twijfel,images/br_twijfel.png,images/cb_twijfel.png,0,,,,,,,,,,,,,,,,,,,,,,
,,,,,00029,2023-09-12_22h43.27.491,vbt_B1_day4,2022.2.4,Win32,29.99130252,,,,,,down,0,15.3242,,0.09629631,-0.067592586,1,0,0,0,191,191,147,1,komisch,images/br_komisch.png,images/cb_komisch.png,1,k..e.,,,,,,,,,,,,,,,,,,,,,
,,,,,00029,2023-09-12_22h43.27.491,vbt_B1_day4,2022.2.4,Win32,29.99130252,,,,,,down,0,0.2265,,0.09629631,-0.067592586,1,0,0,0,192,192,53,1,baron,images/br_baron.png,images/cb_baron.png,0,,,,,,,,,,,,,,,,,,,,,,
,,,,,00029,2023-09-12_22h43.27.491,vbt_B1_day4,2022.2.4,Win32,29.99130252,,,,,,down,0,0.5661,,0.09629631,-0.067592586,1,0,0,0,193,193,124,1,bloeien,images/br_bloeien.png,images/cb_bloeien.png,0,,,,,,,,,,,,,,,,,,,,,,
,,,,,00029,2023-09-12_22h43.27.491,vbt_B1_day4,2022.2.4,Win32,29.99130252,,,,,,down,0,19.5927,,0.09629631,-0.067592586,1,0,0,0,194,194,67,1,zwart,images/br_zwart.png,images/cb_zwart.png,1,zwart,,,,,,,,,,,,,,,,,,,,,
,,,,,00029,2023-09-12_22h43.27.491,vbt_B1_day4,2022.2.4,Win32,29.99130252,,,,,,down,0,0.1585,,0.09629631,-0.067592586,1,0,0,0,195,195,84,1,lokken,images/br_lokken.png,images/cb_lokken.png,0,,,,,,,,,,,,,,,,,,,,,,
,,,,,00029,2023-09-12_22h43.27.491,vbt_B1_day4,2022.2.4,Win32,29.99130252,,,,,,down,0,11.483,,0.09629631,-0.067592586,1,0,0,0,196,196,66,1,lever,images/br_lever.png,images/cb_lever.png,1,ladar,,,,,,,,,,,,,,,,,,,,,
,,,,,00029,2023-09-12_22h43.27.491,vbt_B1_day4,2022.2.4,Win32,29.99130252,,,,,,down,0,0.5312,,0.09629631,-0.067592586,1,0,0,0,197,197,100,1,geduld,images/br_geduld.png,images/cb_geduld.png,0,,,,,,,,,,,,,,,,,,,,,,
,,,,,00029,2023-09-12_22h43.27.491,vbt_B1_day4,2022.2.4,Win32,29.99130252,,,,,,down,0,0.4162,,0.09629631,-0.067592586,1,0,0,0,198,198,59,1,kring,images/br_kring.png,images/cb_kring.png,0,,,,,,,,,,,,,,,,,,,,,,
,,,,,00029,2023-09-12_22h43.27.491,vbt_B1_day4,2022.2.4,Win32,29.99130252,,,,,,down,0,0.0734,,0.09629631,-0.067592586,1,0,0,0,199,199,156,1,rechten,images/br_rechten.png,images/cb_rechten.png,0,,,,,,,,,,,,,,,,,,,,,,
,,,,,00029,2023-09-12_22h43.27.491,vbt_B1_day4,2022.2.4,Win32,29.99130252,,,,,,,,,,,,,,,,,,,,,,,,,0.09629631,-0.067592586,1,0,0,,,,,,,,,,,,,,,,
,,,,,00029,2023-09-12_22h43.27.491,vbt_B1_day4,2022.2.4,Win32,29.99130252,,,,,,,,,,,,,,,,,,,,,,,,,,,,,,0.09629631,-0.067592586,1,0,0,,,,,,,,,,,
,,,,,00029,2023-09-12_22h43.27.491,vbt_B1_day4,2022.2.4,Win32,29.99130252,,,,,,,,,,,,,,,,,,,,grappen,images/br_grappen.png,images/cb_grappen.png,,,,,,,,,,,,,0.09629631,-0.067592586,1,0,0,,0,0,0,12,1
,,,,,00029,2023-09-12_22h43.27.491,vbt_B1_day4,2022.2.4,Win32,29.99130252,,,,,,,,,,,,,,,,,,,,geliefd,images/br_geliefd.png,images/cb_geliefd.png,,geliefd,,,,,,,,,,,0.09629631,-0.067592586,1,0,0,geliefd,0,1,1,14,1
,,,,,00029,2023-09-12_22h43.27.491,vbt_B1_day4,2022.2.4,Win32,29.99130252,,,,,,,,,,,,,,,,,,,,ezel,images/br_ezel.png,images/cb_ezel.png,,enel,,,,,,,,,,,0.09629631,-0.067592586,1,0,0,enel,0,2,2,42,1
,,,,,00029,2023-09-12_22h43.27.491,vbt_B1_day4,2022.2.4,Win32,29.99130252,,,,,,,,,,,,,,,,,,,,tucket,images/br_tucket.png,images/cb_tucket.png,,traket,,,,,,,,,,,0.09629631,-0.067592586,1,0,0,traket,0,3,3,30,1
,,,,,00029,2023-09-12_22h43.27.491,vbt_B1_day4,2022.2.4,Win32,29.99130252,,,,,,,,,,,,,,,,,,,,snee,images/br_snee.png,images/cb_snee.png,,pnee,,,,,,,,,,,0.09629631,-0.067592586,1,0,0,pnee,0,4,4,40,1
,,,,,00029,2023-09-12_22h43.27.491,vbt_B1_day4,2022.2.4,Win32,29.99130252,,,,,,,,,,,,,,,,,,,,zaalrijk,images/br_zaalrijk.png,images/cb_zaalrijk.png,,,,,,,,,,,,,0.09629631,-0.067592586,1,0,0,,0,5,5,37,1
,,,,,00029,2023-09-12_22h43.27.491,vbt_B1_day4,2022.2.4,Win32,29.99130252,,,,,,,,,,,,,,,,,,,,dalen,images/br_dalen.png,images/cb_dalen.png,,palin,,,,,,,,,,,0.09629631,-0.067592586,1,0,0,palin,0,6,6,46,1
,,,,,00029,2023-09-12_22h43.27.491,vbt_B1_day4,2022.2.4,Win32,29.99130252,,,,,,,,,,,,,,,,,,,,gaan,images/br_gaan.png,images/cb_gaan.png,,gaan,,,,,,,,,,,0.09629631,-0.067592586,1,0,0,gaan,0,7,7,41,1
,,,,,00029,2023-09-12_22h43.27.491,vbt_B1_day4,2022.2.4,Win32,29.99130252,,,,,,,,,,,,,,,,,,,,apparaat,images/br_apparaat.png,images/cb_apparaat.png,,apparaat,,,,,,,,,,,0.09629631,-0.067592586,1,0,0,apparaat,0,8,8,17,1
,,,,,00029,2023-09-12_22h43.27.491,vbt_B1_day4,2022.2.4,Win32,29.99130252,,,,,,,,,,,,,,,,,,,,sulbon,images/br_sulbon.png,images/cb_sulbon.png,,,,,,,,,,,,,0.09629631,-0.067592586,1,0,0,,0,9,9,31,1
,,,,,00029,2023-09-12_22h43.27.491,vbt_B1_day4,2022.2.4,Win32,29.99130252,,,,,,,,,,,,,,,,,,,,geheim,images/br_geheim.png,images/cb_geheim.png,,gelied,,,,,,,,,,,0.09629631,-0.067592586,1,0,0,gelied,0,10,10,8,1
,,,,,00029,2023-09-12_22h43.27.491,vbt_B1_day4,2022.2.4,Win32,29.99130252,,,,,,,,,,,,,,,,,,,,stemming,images/br_stemming.png,images/cb_stemming.png,,,,,,,,,,,,,0.09629631,-0.067592586,1,0,0,,0,11,11,18,1
,,,,,00029,2023-09-12_22h43.27.491,vbt_B1_day4,2022.2.4,Win32,29.99130252,,,,,,,,,,,,,,,,,,,,wagon,images/br_wagon.png,images/cb_wagon.png,,kagen,,,,,,,,,,,0.09629631,-0.067592586,1,0,0,kagen,0,12,12,4,1
,,,,,00029,2023-09-12_22h43.27.491,vbt_B1_day4,2022.2.4,Win32,29.99130252,,,,,,,,,,,,,,,,,,,,schenden,images/br_schenden.png,images/cb_schenden.png,,,,,,,,,,,,,0.09629631,-0.067592586,1,0,0,,0,13,13,57,1
,,,,,00029,2023-09-12_22h43.27.491,vbt_B1_day4,2022.2.4,Win32,29.99130252,,,,,,,,,,,,,,,,,,,,bisschap,images/br_bisschap.png,images/cb_bisschap.png,,,,,,,,,,,,,0.09629631,-0.067592586,1,0,0,,0,14,14,36,1
,,,,,00029,2023-09-12_22h43.27.491,vbt_B1_day4,2022.2.4,Win32,29.99130252,,,,,,,,,,,,,,,,,,,,paalbaak,images/br_paalbaak.png,images/cb_paalbaak.png,,paal..,,,,,,,,,,,0.09629631,-0.067592586,1,0,0,paal..,0,15,15,39,1
,,,,,00029,2023-09-12_22h43.27.491,vbt_B1_day4,2022.2.4,Win32,29.99130252,,,,,,,,,,,,,,,,,,,,seizoon,images/br_seizoon.png,images/cb_seizoon.png,,,,,,,,,,,,,0.09629631,-0.067592586,1,0,0,,0,16,16,33,1
,,,,,00029,2023-09-12_22h43.27.491,vbt_B1_day4,2022.2.4,Win32,29.99130252,,,,,,,,,,,,,,,,,,,,mekst,images/br_mekst.png,images/cb_mekst.png,,,,,,,,,,,,,0.09629631,-0.067592586,1,0,0,,0,17,17,27,1
,,,,,00029,2023-09-12_22h43.27.491,vbt_B1_day4,2022.2.4,Win32,29.99130252,,,,,,,,,,,,,,,,,,,,seizoen,images/br_seizoen.png,images/cb_seizoen.png,,,,,,,,,,,,,0.09629631,-0.067592586,1,0,0,,0,18,18,13,1
,,,,,00029,2023-09-12_22h43.27.491,vbt_B1_day4,2022.2.4,Win32,29.99130252,,,,,,,,,,,,,,,,,,,,broodje,images/br_broodje.png,images/cb_broodje.png,,,,,,,,,,,,,0.09629631,-0.067592586,1,0,0,,0,19,19,55,1
,,,,,00029,2023-09-12_22h43.27.491,vbt_B1_day4,2022.2.4,Win32,29.99130252,,,,,,,,,,,,,,,,,,,,pijnlijk,images/br_pijnlijk.png,images/cb_pijnlijk.png,,...lek,,,,,,,,,,,0.09629631,-0.067592586,1,0,0,...lek,0,20,20,58,1
,,,,,00029,2023-09-12_22h43.27.491,vbt_B1_day4,2022.2.4,Win32,29.99130252,,,,,,,,,,,,,,,,,,,,gebog,images/br_gebog.png,images/cb_gebog.png,,gechg,,,,,,,,,,,0.09629631,-0.067592586,1,0,0,gechg,0,21,21,24,1
,,,,,00029,2023-09-12_22h43.27.491,vbt_B1_day4,2022.2.4,Win32,29.99130252,,,,,,,,,,,,,,,,,,,,toevol,images/br_toevol.png,images/cb_toevol.png,,t....l,,,,,,,,,,,0.09629631,-0.067592586,1,0,0,t....l,0,22,22,29,1
,,,,,00029,2023-09-12_22h43.27.491,vbt_B1_day4,2022.2.4,Win32,29.99130252,,,,,,,,,,,,,,,,,,,,drooien,images/br_drooien.png,images/cb_drooien.png,,,,,,,,,,,,,0.09629631,-0.067592586,1,0,0,,0,23,23,32,1
,,,,,00029,2023-09-12_22h43.27.491,vbt_B1_day4,2022.2.4,Win32,29.99130252,,,,,,,,,,,,,,,,,,,,zwek,images/br_zwek.png,images/cb_zwek.png,,,,,,,,,,,,,0.09629631,-0.067592586,1,0,0,,0,24,24,20,1
,,,,,00029,2023-09-12_22h43.27.491,vbt_B1_day4,2022.2.4,Win32,29.99130252,,,,,,,,,,,,,,,,,,,,rijp,images/br_rijp.png,images/cb_rijp.png,,rijp,,,,,,,,,,,0.09629631,-0.067592586,1,0,0,rijp,0,25,25,2,1
,,,,,00029,2023-09-12_22h43.27.491,vbt_B1_day4,2022.2.4,Win32,29.99130252,,,,,,,,,,,,,,,,,,,,eerst,images/br_eerst.png,images/cb_eerst.png,,eerst,,,,,,,,,,,0.09629631,-0.067592586,1,0,0,eerst,0,26,26,47,1
,,,,,00029,2023-09-12_22h43.27.491,vbt_B1_day4,2022.2.4,Win32,29.99130252,,,,,,,,,,,,,,,,,,,,midden,images/br_midden.png,images/cb_midden.png,,,,,,,,,,,,,0.09629631,-0.067592586,1,0,0,,0,27,27,50,1
,,,,,00029,2023-09-12_22h43.27.491,vbt_B1_day4,2022.2.4,Win32,29.99130252,,,,,,,,,,,,,,,,,,,,wozing,images/br_wozing.png,images/cb_wozing.png,,kreng,,,,,,,,,,,0.09629631,-0.067592586,1,0,0,kreng,0,28,28,28,1
,,,,,00029,2023-09-12_22h43.27.491,vbt_B1_day4,2022.2.4,Win32,29.99130252,,,,,,,,,,,,,,,,,,,,praat,images/br_praat.png,images/cb_praat.png,,praat,,,,,,,,,,,0.09629631,-0.067592586,1,0,0,praat,0,29,29,7,1
,,,,,00029,2023-09-12_22h43.27.491,vbt_B1_day4,2022.2.4,Win32,29.99130252,,,,,,,,,,,,,,,,,,,,soda,images/br_soda.png,images/cb_soda.png,,,,,,,,,,,,,0.09629631,-0.067592586,1,0,0,,0,30,30,3,1
,,,,,00029,2023-09-12_22h43.27.491,vbt_B1_day4,2022.2.4,Win32,29.99130252,,,,,,,,,,,,,,,,,,,,bruin,images/br_bruin.png,images/cb_bruin.png,,,,,,,,,,,,,0.09629631,-0.067592586,1,0,0,,0,31,31,45,1
,,,,,00029,2023-09-12_22h43.27.491,vbt_B1_day4,2022.2.4,Win32,29.99130252,,,,,,,,,,,,,,,,,,,,gedicht,images/br_gedicht.png,images/cb_gedicht.png,,geliefde,,,,,,,,,,,0.09629631,-0.067592586,1,0,0,geliefde,0,32,32,15,1
,,,,,00029,2023-09-12_22h43.27.491,vbt_B1_day4,2022.2.4,Win32,29.99130252,,,,,,,,,,,,,,,,,,,,drummer,images/br_drummer.png,images/cb_drummer.png,,a...a,,,,,,,,,,,0.09629631,-0.067592586,1,0,0,a...a,0,33,33,53,1
,,,,,00029,2023-09-12_22h43.27.491,vbt_B1_day4,2022.2.4,Win32,29.99130252,,,,,,,,,,,,,,,,,,,,dozijn,images/br_dozijn.png,images/cb_dozijn.png,,,,,,,,,,,,,0.09629631,-0.067592586,1,0,0,,0,34,34,48,1
,,,,,00029,2023-09-12_22h43.27.491,vbt_B1_day4,2022.2.4,Win32,29.99130252,,,,,,,,,,,,,,,,,,,,warel,images/br_warel.png,images/cb_warel.png,,parel,,,,,,,,,,,0.09629631,-0.067592586,1,0,0,parel,0,35,35,26,1
,,,,,00029,2023-09-12_22h43.27.491,vbt_B1_day4,2022.2.4,Win32,29.99130252,,,,,,,,,,,,,,,,,,,,baron,images/br_baron.png,images/cb_baron.png,,baron,,,,,,,,,,,0.09629631,-0.067592586,1,0,0,baron,0,36,36,5,1
,,,,,00029,2023-09-12_22h43.27.491,vbt_B1_day4,2022.2.4,Win32,29.99130252,,,,,,,,,,,,,,,,,,,,gijf,images/br_gijf.png,images/cb_gijf.png,,geld,,,,,,,,,,,0.09629631,-0.067592586,1,0,0,geld,0,37,37,23,1
,,,,,00029,2023-09-12_22h43.27.491,vbt_B1_day4,2022.2.4,Win32,29.99130252,,,,,,,,,,,,,,,,,,,,noodzaak,images/br_noodzaak.png,images/cb_noodzaak.png,,,,,,,,,,,,,0.09629631,-0.067592586,1,0,0,,0,38,38,56,1
,,,,,00029,2023-09-12_22h43.27.491,vbt_B1_day4,2022.2.4,Win32,29.99130252,,,,,,,,,,,,,,,,,,,,lappen,images/br_lappen.png,images/cb_lappen.png,,lappen,,,,,,,,,,,0.09629631,-0.067592586,1,0,0,lappen,0,39,39,49,1
,,,,,00029,2023-09-12_22h43.27.491,vbt_B1_day4,2022.2.4,Win32,29.99130252,,,,,,,,,,,,,,,,,,,,gebit,images/br_gebit.png,images/cb_gebit.png,,,,,,,,,,,,,0.09629631,-0.067592586,1,0,0,,0,40,40,6,1
,,,,,00029,2023-09-12_22h43.27.491,vbt_B1_day4,2022.2.4,Win32,29.99130252,,,,,,,,,,,,,,,,,,,,aanzwaag,images/br_aanzwaag.png,images/cb_aanzwaag.png,,aantaag,,,,,,,,,,,0.09629631,-0.067592586,1,0,0,aantaag,0,41,41,38,1
,,,,,00029,2023-09-12_22h43.27.491,vbt_B1_day4,2022.2.4,Win32,29.99130252,,,,,,,,,,,,,,,,,,,,haza,images/br_haza.png,images/cb_haza.png,,nama,,,,,,,,,,,0.09629631,-0.067592586,1,0,0,nama,0,42,42,21,1
,,,,,00029,2023-09-12_22h43.27.491,vbt_B1_day4,2022.2.4,Win32,29.99130252,,,,,,,,,,,,,,,,,,,,fran,images/br_fran.png,images/cb_fran.png,,barn,,,,,,,,,,,0.09629631,-0.067592586,1,0,0,barn,0,43,43,22,1
,,,,,00029,2023-09-12_22h43.27.491,vbt_B1_day4,2022.2.4,Win32,29.99130252,,,,,,,,,,,,,,,,,,,,strok,images/br_strok.png,images/cb_strok.png,,,,,,,,,,,,,0.09629631,-0.067592586,1,0,0,,0,44,44,25,1
,,,,,00029,2023-09-12_22h43.27.491,vbt_B1_day4,2022.2.4,Win32,29.99130252,,,,,,,,,,,,,,,,,,,,gaaf,images/br_gaaf.png,images/cb_gaaf.png,,gaap,,,,,,,,,,,0.09629631,-0.067592586,1,0,0,gaap,0,45,45,43,1
,,,,,00029,2023-09-12_22h43.27.491,vbt_B1_day4,2022.2.4,Win32,29.99130252,,,,,,,,,,,,,,,,,,,,opkicht,images/br_opkicht.png,images/cb_opkicht.png,,,,,,,,,,,,,0.09629631,-0.067592586,1,0,0,,0,46,46,34,1
,,,,,00029,2023-09-12_22h43.27.491,vbt_B1_day4,2022.2.4,Win32,29.99130252,,,,,,,,,,,,,,,,,,,,oceaan,images/br_oceaan.png,images/cb_oceaan.png,,,,,,,,,,,,,0.267592607,-0.499074088,1,0,0,,0,47,47,10,1
,,,,,00029,2023-09-12_22h43.27.491,vbt_B1_day4,2022.2.4,Win32,29.99130252,,,,,,,,,,,,,,,,,,,,pittig,images/br_pittig.png,images/cb_pittig.png,,,,,,,,,,,,,0.267592607,-0.499074088,1,0,0,,0,48,48,51,1
,,,,,00029,2023-09-12_22h43.27.491,vbt_B1_day4,2022.2.4,Win32,29.99130252,,,,,,,,,,,,,,,,,,,,kaal,images/br_kaal.png,images/cb_kaal.png,,,,,,,,,,,,,0.267592607,-0.499074088,1,0,0,,0,49,49,1,1
,,,,,00029,2023-09-12_22h43.27.491,vbt_B1_day4,2022.2.4,Win32,29.99130252,,,,,,,,,,,,,,,,,,,,flippen,images/br_flippen.png,images/cb_flippen.png,,lpen,,,,,,,,,,,0.267592607,-0.499074088,1,0,0,lpen,0,50,50,54,1
,,,,,00029,2023-09-12_22h43.27.491,vbt_B1_day4,2022.2.4,Win32,29.99130252,,,,,,,,,,,,,,,,,,,,weigeren,images/br_weigeren.png,images/cb_weigeren.png,,keigen,,,,,,,,,,,0.267592607,-0.499074088,1,0,0,keigen,0,51,51,16,1
,,,,,00029,2023-09-12_22h43.27.491,vbt_B1_day4,2022.2.4,Win32,29.99130252,,,,,,,,,,,,,,,,,,,,opruimen,images/br_opruimen.png,images/cb_opruimen.png,,,,,,,,,,,,,0.267592607,-0.499074088,1,0,0,,0,52,52,59,1
,,,,,00029,2023-09-12_22h43.27.491,vbt_B1_day4,2022.2.4,Win32,29.99130252,,,,,,,,,,,,,,,,,,,,heengaan,images/br_heengaan.png,images/cb_heengaan.png,,,,,,,,,,,,,0.266666695,-0.499074088,1,0,0,,0,53,53,19,1
,,,,,00029,2023-09-12_22h43.27.491,vbt_B1_day4,2022.2.4,Win32,29.99130252,,,,,,,,,,,,,,,,,,,,vreten,images/br_vreten.png,images/cb_vreten.png,,,,,,,,,,,,,0.266666695,-0.499074088,1,0,0,,0,54,54,11,1
,,,,,00029,2023-09-12_22h43.27.491,vbt_B1_day4,2022.2.4,Win32,29.99130252,,,,,,,,,,,,,,,,,,,,getucht,images/br_getucht.png,images/cb_getucht.png,,,,,,,,,,,,,0.266666695,-0.499074088,1,0,0,,0,55,55,35,1
,,,,,00029,2023-09-12_22h43.27.491,vbt_B1_day4,2022.2.4,Win32,29.99130252,,,,,,,,,,,,,,,,,,,,waarop,images/br_waarop.png,images/cb_waarop.png,,kaar..,,,,,,,,,,,0.266666695,-0.499074088,1,0,0,kaar..,0,56,56,9,1
,,,,,00029,2023-09-12_22h43.27.491,vbt_B1_day4,2022.2.4,Win32,29.99130252,,,,,,,,,,,,,,,,,,,,steen,images/br_steen.png,images/cb_steen.png,,taan,,,,,,,,,,,0.266666695,-0.499074088,1,0,0,taan,0,57,57,44,1
,,,,,00029,2023-09-12_22h43.27.491,vbt_B1_day4,2022.2.4,Win32,29.99130252,,,,,,,,,,,,,,,,,,,,schotel,images/br_schotel.png,images/cb_schotel.png,,,,,,,,,,,,,0.266666695,-0.499074088,1,0,0,,0,58,58,52,1
,,,,,00029,2023-09-12_22h43.27.491,vbt_B1_day4,2022.2.4,Win32,29.99130252,,,,,,,,,,,,,,,,,,,,kust,images/br_kust.png,images/cb_kust.png,,kelt,,,,,,,,,,,0.266666695,-0.499074088,1,0,0,kelt,0,59,59,0,1
,,,,,00029,2023-09-12_22h43.27.491,vbt_B1_day4,2022.2.4,Win32,29.99130252,,,,,,,,,,,,,,,,,,,,,,,,,,,,,,,,,,,,,,,,,,,,,
