welcome_mouse.x,welcome_mouse.y,welcome_mouse.leftButton,welcome_mouse.midButton,welcome_mouse.rightButton,"ID",date,expName,psychopyVersion,OS,frameRate,participant,trainInstr_mouse.x,trainInstr_mouse.y,trainInstr_mouse.leftButton,trainInstr_mouse.midButton,trainInstr_mouse.rightButton,translation_key.keys,translation_key.corr,translation_key.rt,word_rsp.text,trWrd_mouse.x,trWrd_mouse.y,trWrd_mouse.leftButton,trWrd_mouse.midButton,trWrd_mouse.rightButton,train_loop.thisRepN,train_loop.thisTrialN,train_loop.thisN,train_loop.thisIndex,train_loop.ran,nlWrd,brWrd,cbWrd,test,testResp,mouse.x,mouse.y,mouse.leftButton,mouse.midButton,mouse.rightButton,testInstr_mouse.x,testInstr_mouse.y,testInstr_mouse.leftButton,testInstr_mouse.midButton,testInstr_mouse.rightButton,test_mouse.x,test_mouse.y,test_mouse.leftButton,test_mouse.midButton,test_mouse.rightButton,test_response.text,test_loop.thisRepN,test_loop.thisTrialN,test_loop.thisN,test_loop.thisIndex,test_loop.ran
0.032407407,-0.136111153,1,0,0,55009,2023-07-31_13h39.06.007,vbt_B1_day4,2022.2.4,Win32,59.96282305,55009,,,,,,,,,,,,,,,,,,,,,,,,,,,,,,,,,,,,,,,,,,,,,
,,,,,55009,2023-07-31_13h39.06.007,vbt_B1_day4,2022.2.4,Win32,59.96282305,55009,0.01944443,0.14444443,1,0,0,,,,,,,,,,,,,,,,,,,,,,,,,,,,,,,,,,,,,,,,
,,,,,55009,2023-07-31_13h39.06.007,vbt_B1_day4,2022.2.4,Win32,59.96282305,55009,,,,,,down,0,0.2035,,0.015740783,-0.034259266,1,0,0,0,0,0,128,1,prikken,images/br_prikken.png,images/cb_prikken.png,0,,,,,,,,,,,,,,,,,,,,,,
,,,,,55009,2023-07-31_13h39.06.007,vbt_B1_day4,2022.2.4,Win32,59.96282305,55009,,,,,,down,0,0.2315,,-0.025925884,0.026851831,1,0,0,0,1,1,66,1,lever,images/br_lever.png,images/cb_lever.png,1,leven,,,,,,,,,,,,,,,,,,,,,
,,,,,55009,2023-07-31_13h39.06.007,vbt_B1_day4,2022.2.4,Win32,59.96282305,55009,,,,,,down,0,12.2916,,-0.252777735,-0.112037023,1,0,0,0,2,2,121,1,twijfel,images/br_twijfel.png,images/cb_twijfel.png,0,,,,,,,,,,,,,,,,,,,,,,
,,,,,55009,2023-07-31_13h39.06.007,vbt_B1_day4,2022.2.4,Win32,59.96282305,55009,,,,,,down,0,3.7771,,-0.292592578,-0.107407393,1,0,0,0,3,3,107,1,maling,images/br_maling.png,images/cb_maling.png,1,maling,,,,,,,,,,,,,,,,,,,,,
,,,,,55009,2023-07-31_13h39.06.007,vbt_B1_day4,2022.2.4,Win32,59.96282305,55009,,,,,,down,0,18.0679,,-0.12962963,0.208333333,1,0,0,0,4,4,41,1,maken,images/br_maken.png,images/cb_maken.png,0,,,,,,,,,,,,,,,,,,,,,,
,,,,,55009,2023-07-31_13h39.06.007,vbt_B1_day4,2022.2.4,Win32,59.96282305,55009,,,,,,down,0,0.7325,,-0.14444443,0.178703697,1,0,0,0,5,5,100,1,geduld,images/br_geduld.png,images/cb_geduld.png,0,,,,,,,,,,,,,,,,,,,,,,
,,,,,55009,2023-07-31_13h39.06.007,vbt_B1_day4,2022.2.4,Win32,59.96282305,55009,,,,,,down,0,8.4088,,-0.137036995,0.170370349,1,0,0,0,6,6,142,1,snuiven,images/br_snuiven.png,images/cb_snuiven.png,0,,,,,,,,,,,,,,,,,,,,,,
,,,,,55009,2023-07-31_13h39.06.007,vbt_B1_day4,2022.2.4,Win32,59.96282305,55009,,,,,,down,0,0.0413,,-0.137962977,0.162962949,1,0,0,0,7,7,120,1,klimmen,images/br_klimmen.png,images/cb_klimmen.png,0,,,,,,,,,,,,,,,,,,,,,,
,,,,,55009,2023-07-31_13h39.06.007,vbt_B1_day4,2022.2.4,Win32,59.96282305,55009,,,,,,down,0,2.2174,,-0.137036995,0.14444443,1,0,0,0,8,8,67,1,zwart,images/br_zwart.png,images/cb_zwart.png,1,zwart,,,,,,,,,,,,,,,,,,,,,
,,,,,55009,2023-07-31_13h39.06.007,vbt_B1_day4,2022.2.4,Win32,59.96282305,55009,,,,,,down,0,12.3001,,0.015740783,0.003703683,1,0,0,0,9,9,169,1,oprotten,images/br_oprotten.png,images/cb_oprotten.png,0,,,,,,,,,,,,,,,,,,,,,,
,,,,,55009,2023-07-31_13h39.06.007,vbt_B1_day4,2022.2.4,Win32,59.96282305,55009,,,,,,down,0,0.2515,,0.035185213,0.001851859,1,0,0,0,10,10,16,1,ziek,images/br_ziek.png,images/cb_ziek.png,0,,,,,,,,,,,,,,,,,,,,,,
,,,,,55009,2023-07-31_13h39.06.007,vbt_B1_day4,2022.2.4,Win32,59.96282305,55009,,,,,,down,0,1.6576,,0.036111125,0.003703683,1,0,0,0,11,11,144,1,eetlust,images/br_eetlust.png,images/cb_eetlust.png,1,eetlust,,,,,,,,,,,,,,,,,,,,,
,,,,,55009,2023-07-31_13h39.06.007,vbt_B1_day4,2022.2.4,Win32,59.96282305,55009,,,,,,down,0,0.8504,,0.102777764,0.021296289,1,0,0,0,12,12,192,1,schaamte,images/br_schaamte.png,images/cb_schaamte.png,0,,,,,,,,,,,,,,,,,,,,,,
,,,,,55009,2023-07-31_13h39.06.007,vbt_B1_day4,2022.2.4,Win32,59.96282305,55009,,,,,,down,0,1.4831,,0.108333376,0.03148146,1,0,0,0,13,13,123,1,hiervan,images/br_hiervan.png,images/cb_hiervan.png,0,,,,,,,,,,,,,,,,,,,,,,
,,,,,55009,2023-07-31_13h39.06.007,vbt_B1_day4,2022.2.4,Win32,59.96282305,55009,,,,,,down,0,11.1706,,0.112963005,0.01203703,1,0,0,0,14,14,199,1,beseffen,images/br_beseffen.png,images/cb_beseffen.png,0,,,,,,,,,,,,,,,,,,,,,,
,,,,,55009,2023-07-31_13h39.06.007,vbt_B1_day4,2022.2.4,Win32,59.96282305,55009,,,,,,down,0,0.8827,,0.112963005,0.01203703,1,0,0,0,15,15,85,1,heilig,images/br_heilig.png,images/cb_heilig.png,0,,,,,,,,,,,,,,,,,,,,,,
,,,,,55009,2023-07-31_13h39.06.007,vbt_B1_day4,2022.2.4,Win32,59.96282305,55009,,,,,,down,0,0.7342,,0.112963005,0.01203703,1,0,0,0,16,16,110,1,zuster,images/br_zuster.png,images/cb_zuster.png,0,,,,,,,,,,,,,,,,,,,,,,
,,,,,55009,2023-07-31_13h39.06.007,vbt_B1_day4,2022.2.4,Win32,59.96282305,55009,,,,,,down,0,1.2445,,0.112963005,0.010185171,1,0,0,0,17,17,198,1,bedoelen,images/br_bedoelen.png,images/cb_bedoelen.png,0,,,,,,,,,,,,,,,,,,,,,,
,,,,,55009,2023-07-31_13h39.06.007,vbt_B1_day4,2022.2.4,Win32,59.96282305,55009,,,,,,down,0,0.5876,,0.114814829,-0.001851859,1,0,0,0,18,18,39,1,laag,images/br_laag.png,images/cb_laag.png,0,,,,,,,,,,,,,,,,,,,,,,
,,,,,55009,2023-07-31_13h39.06.007,vbt_B1_day4,2022.2.4,Win32,59.96282305,55009,,,,,,down,0,1.7178,,0.114814829,-0.001851859,1,0,0,0,19,19,153,1,vervoer,images/br_vervoer.png,images/cb_vervoer.png,0,,,,,,,,,,,,,,,,,,,,,,
,,,,,55009,2023-07-31_13h39.06.007,vbt_B1_day4,2022.2.4,Win32,59.96282305,55009,,,,,,down,0,6.4927,,0.114814829,0.020370377,1,0,0,0,20,20,149,1,redding,images/br_redding.png,images/cb_redding.png,0,,,,,,,,,,,,,,,,,,,,,,
,,,,,55009,2023-07-31_13h39.06.007,vbt_B1_day4,2022.2.4,Win32,59.96282305,55009,,,,,,down,0,1.0221,,0.01944443,-0.023148148,1,0,0,0,21,21,75,1,snoep,images/br_snoep.png,images/cb_snoep.png,0,,,,,,,,,,,,,,,,,,,,,,
,,,,,55009,2023-07-31_13h39.06.007,vbt_B1_day4,2022.2.4,Win32,59.96282305,55009,,,,,,down,0,3.4846,,0.020370413,-0.025925919,1,0,0,0,22,22,183,1,getuigen,images/br_getuigen.png,images/cb_getuigen.png,0,,,,,,,,,,,,,,,,,,,,,,
,,,,,55009,2023-07-31_13h39.06.007,vbt_B1_day4,2022.2.4,Win32,59.96282305,55009,,,,,,down,0,25.9373,,0.043518561,-0.021296289,1,0,0,0,23,23,63,1,flirt,images/br_flirt.png,images/cb_flirt.png,0,,,,,,,,,,,,,,,,,,,,,,
,,,,,55009,2023-07-31_13h39.06.007,vbt_B1_day4,2022.2.4,Win32,59.96282305,55009,,,,,,down,0,0.5721,,0.050925926,-0.013888889,1,0,0,0,24,24,93,1,waarop,images/br_waarop.png,images/cb_waarop.png,0,,,,,,,,,,,,,,,,,,,,,,
,,,,,55009,2023-07-31_13h39.06.007,vbt_B1_day4,2022.2.4,Win32,59.96282305,55009,,,,,,down,0,2.1175,,0.07222225,-0.001851859,1,0,0,0,25,25,155,1,gerucht,images/br_gerucht.png,images/cb_gerucht.png,0,,,,,,,,,,,,,,,,,,,,,,
,,,,,55009,2023-07-31_13h39.06.007,vbt_B1_day4,2022.2.4,Win32,59.96282305,55009,,,,,,down,0,0.5849,,0.071296339,-0.01203703,1,0,0,0,26,26,32,1,palm,images/br_palm.png,images/cb_palm.png,0,,,,,,,,,,,,,,,,,,,,,,
,,,,,55009,2023-07-31_13h39.06.007,vbt_B1_day4,2022.2.4,Win32,59.96282305,55009,,,,,,down,0,3.1066,,0.071296339,-0.01203703,1,0,0,0,27,27,24,1,jurk,images/br_jurk.png,images/cb_jurk.png,1,jurk,,,,,,,,,,,,,,,,,,,,,
,,,,,55009,2023-07-31_13h39.06.007,vbt_B1_day4,2022.2.4,Win32,59.96282305,55009,,,,,,down,0,1.0927,,0.041666667,-0.028703725,1,0,0,0,28,28,3,1,mand,images/br_mand.png,images/cb_mand.png,0,,,,,,,,,,,,,,,,,,,,,,
,,,,,55009,2023-07-31_13h39.06.007,vbt_B1_day4,2022.2.4,Win32,59.96282305,55009,,,,,,down,0,3.592,,0.043518561,-0.032407407,1,0,0,0,29,29,130,1,keihard,images/br_keihard.png,images/cb_keihard.png,0,,,,,,,,,,,,,,,,,,,,,,
,,,,,55009,2023-07-31_13h39.06.007,vbt_B1_day4,2022.2.4,Win32,59.96282305,55009,,,,,,down,0,0.0095,,0.044444473,-0.037037037,1,0,0,0,30,30,18,1,blik,images/br_blik.png,images/cb_blik.png,0,,,,,,,,,,,,,,,,,,,,,,
,,,,,55009,2023-07-31_13h39.06.007,vbt_B1_day4,2022.2.4,Win32,59.96282305,55009,,,,,,down,0,0.5522,,0.046296296,-0.041666667,1,0,0,0,31,31,133,1,seizoen,images/br_seizoen.png,images/cb_seizoen.png,0,,,,,,,,,,,,,,,,,,,,,,
,,,,,55009,2023-07-31_13h39.06.007,vbt_B1_day4,2022.2.4,Win32,59.96282305,55009,,,,,,down,0,0.4991,,0.051851838,-0.039814808,1,0,0,0,32,32,2,1,jaar,images/br_jaar.png,images/cb_jaar.png,0,,,,,,,,,,,,,,,,,,,,,,
,,,,,55009,2023-07-31_13h39.06.007,vbt_B1_day4,2022.2.4,Win32,59.96282305,55009,,,,,,down,0,2.4891,,0.051851838,-0.039814808,1,0,0,0,33,33,186,1,voorraad,images/br_voorraad.png,images/cb_voorraad.png,1,voorraad,,,,,,,,,,,,,,,,,,,,,
,,,,,55009,2023-07-31_13h39.06.007,vbt_B1_day4,2022.2.4,Win32,59.96282305,55009,,,,,,down,0,9.1725,,0.051851838,-0.039814808,1,0,0,0,34,34,134,1,geliefd,images/br_geliefd.png,images/cb_geliefd.png,0,,,,,,,,,,,,,,,,,,,,,,
,,,,,55009,2023-07-31_13h39.06.007,vbt_B1_day4,2022.2.4,Win32,59.96282305,55009,,,,,,down,0,6.2591,,0.112037023,0.002777771,1,0,0,0,35,35,168,1,bisschop,images/br_bisschop.png,images/cb_bisschop.png,0,,,,,,,,,,,,,,,,,,,,,,
,,,,,55009,2023-07-31_13h39.06.007,vbt_B1_day4,2022.2.4,Win32,59.96282305,55009,,,,,,down,0,0.3546,,0.110185199,-0.006481489,1,0,0,0,36,36,74,1,graaf,images/br_graaf.png,images/cb_graaf.png,0,,,,,,,,,,,,,,,,,,,,,,
,,,,,55009,2023-07-31_13h39.06.007,vbt_B1_day4,2022.2.4,Win32,59.96282305,55009,,,,,,down,0,0.6664,,0.110185199,-0.006481489,1,0,0,0,37,37,7,1,geld,images/br_geld.png,images/cb_geld.png,0,,,,,,,,,,,,,,,,,,,,,,
,,,,,55009,2023-07-31_13h39.06.007,vbt_B1_day4,2022.2.4,Win32,59.96282305,55009,,,,,,down,0,1.1142,,0.110185199,-0.006481489,1,0,0,0,38,38,154,1,aflopen,images/br_aflopen.png,images/cb_aflopen.png,0,,,,,,,,,,,,,,,,,,,,,,
,,,,,55009,2023-07-31_13h39.06.007,vbt_B1_day4,2022.2.4,Win32,59.96282305,55009,,,,,,down,0,0.2411,,0.162037037,-0.00462963,1,0,0,0,39,39,87,1,toeval,images/br_toeval.png,images/cb_toeval.png,0,,,,,,,,,,,,,,,,,,,,,,
,,,,,55009,2023-07-31_13h39.06.007,vbt_B1_day4,2022.2.4,Win32,59.96282305,55009,,,,,,down,0,2.4336,,0.162037037,-0.00462963,1,0,0,0,40,40,181,1,toegeven,images/br_toegeven.png,images/cb_toegeven.png,0,,,,,,,,,,,,,,,,,,,,,,
,,,,,55009,2023-07-31_13h39.06.007,vbt_B1_day4,2022.2.4,Win32,59.96282305,55009,,,,,,down,0,0.116,,0.162962949,-0.005555577,1,0,0,0,41,41,115,1,kleren,images/br_kleren.png,images/cb_kleren.png,0,,,,,,,,,,,,,,,,,,,,,,
,,,,,55009,2023-07-31_13h39.06.007,vbt_B1_day4,2022.2.4,Win32,59.96282305,55009,,,,,,down,0,0.1855,,0.162962949,-0.005555577,1,0,0,0,42,42,42,1,bleek,images/br_bleek.png,images/cb_bleek.png,0,,,,,,,,,,,,,,,,,,,,,,
,,,,,55009,2023-07-31_13h39.06.007,vbt_B1_day4,2022.2.4,Win32,59.96282305,55009,,,,,,down,0,4.1269,,0.156481496,-0.014814836,1,0,0,0,43,43,165,1,feestdag,images/br_feestdag.png,images/cb_feestdag.png,0,,,,,,,,,,,,,,,,,,,,,,
,,,,,55009,2023-07-31_13h39.06.007,vbt_B1_day4,2022.2.4,Win32,59.96282305,55009,,,,,,down,0,0.9667,,0.122222265,-0.025925919,1,0,0,0,44,44,86,1,woning,images/br_woning.png,images/cb_woning.png,0,,,,,,,,,,,,,,,,,,,,,,
,,,,,55009,2023-07-31_13h39.06.007,vbt_B1_day4,2022.2.4,Win32,59.96282305,55009,,,,,,down,0,0.6728,,0.122222265,-0.026851866,1,0,0,0,45,45,11,1,mode,images/br_mode.png,images/cb_mode.png,0,,,,,,,,,,,,,,,,,,,,,,
,,,,,55009,2023-07-31_13h39.06.007,vbt_B1_day4,2022.2.4,Win32,59.96282305,55009,,,,,,down,0,2.1117,,0.125,-0.027777778,1,0,0,0,46,46,196,1,nakijken,images/br_nakijken.png,images/cb_nakijken.png,0,,,,,,,,,,,,,,,,,,,,,,
,,,,,55009,2023-07-31_13h39.06.007,vbt_B1_day4,2022.2.4,Win32,59.96282305,55009,,,,,,down,0,0.0847,,0.125,-0.027777778,1,0,0,0,47,47,84,1,lokken,images/br_lokken.png,images/cb_lokken.png,0,,,,,,,,,,,,,,,,,,,,,,
,,,,,55009,2023-07-31_13h39.06.007,vbt_B1_day4,2022.2.4,Win32,59.96282305,55009,,,,,,down,0,7.2992,,0.126851894,-0.027777778,1,0,0,0,48,48,157,1,uitlaat,images/br_uitlaat.png,images/cb_uitlaat.png,0,,,,,,,,,,,,,,,,,,,,,,
,,,,,55009,2023-07-31_13h39.06.007,vbt_B1_day4,2022.2.4,Win32,59.96282305,55009,,,,,,down,0,1.0944,,0.128703718,-0.029629637,1,0,0,0,49,49,58,1,tekst,images/br_tekst.png,images/cb_tekst.png,0,,,,,,,,,,,,,,,,,,,,,,
,,,,,55009,2023-07-31_13h39.06.007,vbt_B1_day4,2022.2.4,Win32,59.96282305,55009,,,,,,down,0,1.7767,,0.083333333,0.00462963,1,0,0,0,50,50,136,1,waarbij,images/br_waarbij.png,images/cb_waarbij.png,0,,,,,,,,,,,,,,,,,,,,,,
,,,,,55009,2023-07-31_13h39.06.007,vbt_B1_day4,2022.2.4,Win32,59.96282305,55009,,,,,,down,0,2.2741,,0.098148134,-0.025000007,1,0,0,0,51,51,167,1,eenhoorn,images/br_eenhoorn.png,images/cb_eenhoorn.png,0,,,,,,,,,,,,,,,,,,,,,,
,,,,,55009,2023-07-31_13h39.06.007,vbt_B1_day4,2022.2.4,Win32,59.96282305,55009,,,,,,down,0,7.0432,,0.083333333,-0.027777778,1,0,0,0,52,52,80,1,kanjer,images/br_kanjer.png,images/cb_kanjer.png,0,,,,,,,,,,,,,,,,,,,,,,
,,,,,55009,2023-07-31_13h39.06.007,vbt_B1_day4,2022.2.4,Win32,59.96282305,55009,,,,,,down,0,0.1528,,0.08148151,-0.029629637,1,0,0,0,53,53,141,1,knielen,images/br_knielen.png,images/cb_knielen.png,0,,,,,,,,,,,,,,,,,,,,,,
,,,,,55009,2023-07-31_13h39.06.007,vbt_B1_day4,2022.2.4,Win32,59.96282305,55009,,,,,,down,0,2.5007,,0.062962991,-0.050925926,1,0,0,0,54,54,156,1,rechten,images/br_rechten.png,images/cb_rechten.png,0,,,,,,,,,,,,,,,,,,,,,,
,,,,,55009,2023-07-31_13h39.06.007,vbt_B1_day4,2022.2.4,Win32,59.96282305,55009,,,,,,down,0,3.2087,,0.061111097,-0.056481503,1,0,0,0,55,55,124,1,bloeien,images/br_bloeien.png,images/cb_bloeien.png,0,,,,,,,,,,,,,,,,,,,,,,
,,,,,55009,2023-07-31_13h39.06.007,vbt_B1_day4,2022.2.4,Win32,59.96282305,55009,,,,,,down,0,0.628,,0.05277782,-0.056481503,1,0,0,0,56,56,47,1,kabel,images/br_kabel.png,images/cb_kabel.png,0,,,,,,,,,,,,,,,,,,,,,,
,,,,,55009,2023-07-31_13h39.06.007,vbt_B1_day4,2022.2.4,Win32,59.96282305,55009,,,,,,down,0,2.4271,,0.158333319,-0.052777785,1,0,0,0,57,57,179,1,woestijn,images/br_woestijn.png,images/cb_woestijn.png,0,,,,,,,,,,,,,,,,,,,,,,
,,,,,55009,2023-07-31_13h39.06.007,vbt_B1_day4,2022.2.4,Win32,59.96282305,55009,,,,,,down,0,0.7751,,0.158333319,-0.052777785,1,0,0,0,58,58,102,1,legaal,images/br_legaal.png,images/cb_legaal.png,0,,,,,,,,,,,,,,,,,,,,,,
,,,,,55009,2023-07-31_13h39.06.007,vbt_B1_day4,2022.2.4,Win32,59.96282305,55009,,,,,,down,0,2.8846,,0.15370369,-0.053703697,1,0,0,0,59,59,26,1,leuk,images/br_leuk.png,images/cb_leuk.png,1,leuk,,,,,,,,,,,,,,,,,,,,,
,,,,,55009,2023-07-31_13h39.06.007,vbt_B1_day4,2022.2.4,Win32,59.96282305,55009,,,,,,down,0,1.3544,,0.151851866,-0.094444487,1,0,0,0,60,60,65,1,parel,images/br_parel.png,images/cb_parel.png,1,parel,,,,,,,,,,,,,,,,,,,,,
,,,,,55009,2023-07-31_13h39.06.007,vbt_B1_day4,2022.2.4,Win32,59.96282305,55009,,,,,,down,0,6.5734,,0.012962977,-0.014814836,1,0,0,0,61,61,190,1,goedkoop,images/br_goedkoop.png,images/cb_goedkoop.png,0,,,,,,,,,,,,,,,,,,,,,,
,,,,,55009,2023-07-31_13h39.06.007,vbt_B1_day4,2022.2.4,Win32,59.96282305,55009,,,,,,down,0,0.1695,,0.046296296,-0.037962984,1,0,0,0,62,62,91,1,gezond,images/br_gezond.png,images/cb_gezond.png,0,,,,,,,,,,,,,,,,,,,,,,
,,,,,55009,2023-07-31_13h39.06.007,vbt_B1_day4,2022.2.4,Win32,59.96282305,55009,,,,,,down,0,9.5762,,0.046296296,-0.037962984,1,0,0,0,63,63,187,1,opkijken,images/br_opkijken.png,images/cb_opkijken.png,1,opkijken,,,,,,,,,,,,,,,,,,,,,
,,,,,55009,2023-07-31_13h39.06.007,vbt_B1_day4,2022.2.4,Win32,59.96282305,55009,,,,,,down,0,1.802,,0.041666667,-0.040740755,1,0,0,0,64,64,189,1,aanraden,images/br_aanraden.png,images/cb_aanraden.png,0,,,,,,,,,,,,,,,,,,,,,,
,,,,,55009,2023-07-31_13h39.06.007,vbt_B1_day4,2022.2.4,Win32,59.96282305,55009,,,,,,down,0,0.1871,,0.041666667,-0.042592614,1,0,0,0,65,65,46,1,jagen,images/br_jagen.png,images/cb_jagen.png,0,,,,,,,,,,,,,,,,,,,,,,
,,,,,55009,2023-07-31_13h39.06.007,vbt_B1_day4,2022.2.4,Win32,59.96282305,55009,,,,,,down,0,0.4215,,0.041666667,-0.042592614,1,0,0,0,66,66,57,1,steek,images/br_steek.png,images/cb_steek.png,0,,,,,,,,,,,,,,,,,,,,,,
,,,,,55009,2023-07-31_13h39.06.007,vbt_B1_day4,2022.2.4,Win32,59.96282305,55009,,,,,,down,0,2.011,,0.041666667,-0.044444437,1,0,0,0,67,67,159,1,sufferd,images/br_sufferd.png,images/cb_sufferd.png,0,,,,,,,,,,,,,,,,,,,,,,
,,,,,55009,2023-07-31_13h39.06.007,vbt_B1_day4,2022.2.4,Win32,59.96282305,55009,,,,,,down,0,1.0776,,0.041666667,-0.044444437,1,0,0,0,68,68,60,1,jasje,images/br_jasje.png,images/cb_jasje.png,0,,,,,,,,,,,,,,,,,,,,,,
,,,,,55009,2023-07-31_13h39.06.007,vbt_B1_day4,2022.2.4,Win32,59.96282305,55009,,,,,,down,0,0.6382,,0.042592578,-0.044444437,1,0,0,0,69,69,71,1,bever,images/br_bever.png,images/cb_bever.png,0,,,,,,,,,,,,,,,,,,,,,,
,,,,,55009,2023-07-31_13h39.06.007,vbt_B1_day4,2022.2.4,Win32,59.96282305,55009,,,,,,down,0,30.0833,,0.095370399,-0.042592614,1,0,0,0,70,70,94,1,oceaan,images/br_oceaan.png,images/cb_oceaan.png,0,,,,,,,,,,,,,,,,,,,,,,
,,,,,55009,2023-07-31_13h39.06.007,vbt_B1_day4,2022.2.4,Win32,59.96282305,55009,,,,,,down,0,1.7559,,0.097222222,-0.046296296,1,0,0,0,71,71,37,1,mijn,images/br_mijn.png,images/cb_mijn.png,0,,,,,,,,,,,,,,,,,,,,,,
,,,,,55009,2023-07-31_13h39.06.007,vbt_B1_day4,2022.2.4,Win32,59.96282305,55009,,,,,,down,0,2.6055,,0.100000028,-0.048148155,1,0,0,0,72,72,166,1,strikken,images/br_strikken.png,images/cb_strikken.png,0,,,,,,,,,,,,,,,,,,,,,,
,,,,,55009,2023-07-31_13h39.06.007,vbt_B1_day4,2022.2.4,Win32,59.96282305,55009,,,,,,down,0,1.9319,,0.101851852,-0.050000014,1,0,0,0,73,73,4,1,moes,images/br_moes.png,images/cb_moes.png,0,,,,,,,,,,,,,,,,,,,,,,
,,,,,55009,2023-07-31_13h39.06.007,vbt_B1_day4,2022.2.4,Win32,59.96282305,55009,,,,,,down,0,23.785,,0.074074074,-0.019444466,1,0,0,0,74,74,143,1,hechten,images/br_hechten.png,images/cb_hechten.png,0,,,,,,,,,,,,,,,,,,,,,,
,,,,,55009,2023-07-31_13h39.06.007,vbt_B1_day4,2022.2.4,Win32,59.96282305,55009,,,,,,down,0,0.1079,,0.070370356,-0.040740755,1,0,0,0,75,75,17,1,taal,images/br_taal.png,images/cb_taal.png,0,,,,,,,,,,,,,,,,,,,,,,
,,,,,55009,2023-07-31_13h39.06.007,vbt_B1_day4,2022.2.4,Win32,59.96282305,55009,,,,,,down,0,0.9676,,0.064814815,-0.070370392,1,0,0,0,76,76,90,1,geluid,images/br_geluid.png,images/cb_geluid.png,0,,,,,,,,,,,,,,,,,,,,,,
,,,,,55009,2023-07-31_13h39.06.007,vbt_B1_day4,2022.2.4,Win32,59.96282305,55009,,,,,,down,0,0.1645,,0.054629644,-0.065740762,1,0,0,0,77,77,36,1,vuur,images/br_vuur.png,images/cb_vuur.png,0,,,,,,,,,,,,,,,,,,,,,,
,,,,,55009,2023-07-31_13h39.06.007,vbt_B1_day4,2022.2.4,Win32,59.96282305,55009,,,,,,down,0,0.804,,0.116666653,-0.099074116,1,0,0,0,78,78,62,1,knaap,images/br_knaap.png,images/cb_knaap.png,0,,,,,,,,,,,,,,,,,,,,,,
,,,,,55009,2023-07-31_13h39.06.007,vbt_B1_day4,2022.2.4,Win32,59.96282305,55009,,,,,,down,0,1.1988,,0.116666653,-0.099074116,1,0,0,0,79,79,140,1,blijven,images/br_blijven.png,images/cb_blijven.png,0,,,,,,,,,,,,,,,,,,,,,,
,,,,,55009,2023-07-31_13h39.06.007,vbt_B1_day4,2022.2.4,Win32,59.96282305,55009,,,,,,down,0,4.5984,,0.142592607,-0.130555541,1,0,0,0,80,80,44,1,flits,images/br_flits.png,images/cb_flits.png,0,,,,,,,,,,,,,,,,,,,,,,
,,,,,55009,2023-07-31_13h39.06.007,vbt_B1_day4,2022.2.4,Win32,59.96282305,55009,,,,,,down,0,1.3775,,0.14444443,-0.020370377,1,0,0,0,81,81,182,1,bijkomen,images/br_bijkomen.png,images/cb_bijkomen.png,0,,,,,,,,,,,,,,,,,,,,,,
,,,,,55009,2023-07-31_13h39.06.007,vbt_B1_day4,2022.2.4,Win32,59.96282305,55009,,,,,,down,0,0.8228,,0.069444444,-0.041666667,1,0,0,0,82,82,108,1,excuus,images/br_excuus.png,images/cb_excuus.png,0,,,,,,,,,,,,,,,,,,,,,,
,,,,,55009,2023-07-31_13h39.06.007,vbt_B1_day4,2022.2.4,Win32,59.96282305,55009,,,,,,down,0,0.4121,,0.071296339,-0.045370384,1,0,0,0,83,83,50,1,stoom,images/br_stoom.png,images/cb_stoom.png,0,,,,,,,,,,,,,,,,,,,,,,
,,,,,55009,2023-07-31_13h39.06.007,vbt_B1_day4,2022.2.4,Win32,59.96282305,55009,,,,,,down,0,0.6389,,0.079629616,-0.042592614,1,0,0,0,84,84,29,1,baas,images/br_baas.png,images/cb_baas.png,0,,,,,,,,,,,,,,,,,,,,,,
,,,,,55009,2023-07-31_13h39.06.007,vbt_B1_day4,2022.2.4,Win32,59.96282305,55009,,,,,,down,0,1.3165,,0.048148191,-0.025000007,1,0,0,0,85,85,127,1,doodmoe,images/br_doodmoe.png,images/cb_doodmoe.png,0,,,,,,,,,,,,,,,,,,,,,,
,,,,,55009,2023-07-31_13h39.06.007,vbt_B1_day4,2022.2.4,Win32,59.96282305,55009,,,,,,down,0,0.5682,,0.056481467,-0.041666667,1,0,0,0,86,86,89,1,slapen,images/br_slapen.png,images/cb_slapen.png,0,,,,,,,,,,,,,,,,,,,,,,
,,,,,55009,2023-07-31_13h39.06.007,vbt_B1_day4,2022.2.4,Win32,59.96282305,55009,,,,,,down,0,0.8439,,0.061111097,-0.042592614,1,0,0,0,87,87,25,1,plek,images/br_plek.png,images/cb_plek.png,1,plek,,,,,,,,,,,,,,,,,,,,,
,,,,,55009,2023-07-31_13h39.06.007,vbt_B1_day4,2022.2.4,Win32,59.96282305,55009,,,,,,down,0,0.8713,,0.068518533,0.074999986,1,0,0,0,88,88,59,1,kring,images/br_kring.png,images/cb_kring.png,0,,,,,,,,,,,,,,,,,,,,,,
,,,,,55009,2023-07-31_13h39.06.007,vbt_B1_day4,2022.2.4,Win32,59.96282305,55009,,,,,,down,0,5.3238,,0.068518533,0.071296303,1,0,0,0,89,89,9,1,hier,images/br_hier.png,images/cb_hier.png,0,,,,,,,,,,,,,,,,,,,,,,
,,,,,55009,2023-07-31_13h39.06.007,vbt_B1_day4,2022.2.4,Win32,59.96282305,55009,,,,,,down,0,3.7782,,0.071296339,0.069444444,1,0,0,0,90,90,158,1,innemen,images/br_innemen.png,images/cb_innemen.png,0,,,,,,,,,,,,,,,,,,,,,,
,,,,,55009,2023-07-31_13h39.06.007,vbt_B1_day4,2022.2.4,Win32,59.96282305,55009,,,,,,down,0,10.9387,,0.125925912,-0.047222243,1,0,0,0,91,91,178,1,huisdier,images/br_huisdier.png,images/cb_huisdier.png,0,,,,,,,,,,,,,,,,,,,,,,
,,,,,55009,2023-07-31_13h39.06.007,vbt_B1_day4,2022.2.4,Win32,59.96282305,55009,,,,,,down,0,3.8853,,-0.062037009,-0.011111118,1,0,0,0,92,92,30,1,uien,images/br_uien.png,images/cb_uien.png,0,,,,,,,,,,,,,,,,,,,,,,
,,,,,55009,2023-07-31_13h39.06.007,vbt_B1_day4,2022.2.4,Win32,59.96282305,55009,,,,,,down,0,7.6351,,-0.024999972,-0.008333347,1,0,0,0,93,93,174,1,stemming,images/br_stemming.png,images/cb_stemming.png,0,,,,,,,,,,,,,,,,,,,,,,
,,,,,55009,2023-07-31_13h39.06.007,vbt_B1_day4,2022.2.4,Win32,59.96282305,55009,,,,,,down,0,0.2589,,0.067592621,-0.008333347,1,0,0,0,94,94,116,1,besmet,images/br_besmet.png,images/cb_besmet.png,0,,,,,,,,,,,,,,,,,,,,,,
,,,,,55009,2023-07-31_13h39.06.007,vbt_B1_day4,2022.2.4,Win32,59.96282305,55009,,,,,,down,0,3.3839,,0.064814815,-0.011111118,1,0,0,0,95,95,98,1,kreeft,images/br_kreeft.png,images/cb_kreeft.png,0,,,,,,,,,,,,,,,,,,,,,,
,,,,,55009,2023-07-31_13h39.06.007,vbt_B1_day4,2022.2.4,Win32,59.96282305,55009,,,,,,down,0,2.3282,,0.045370384,-0.033333355,1,0,0,0,96,96,151,1,aanzoek,images/br_aanzoek.png,images/cb_aanzoek.png,0,,,,,,,,,,,,,,,,,,,,,,
,,,,,55009,2023-07-31_13h39.06.007,vbt_B1_day4,2022.2.4,Win32,59.96282305,55009,,,,,,down,0,0.1141,,0.025925954,-0.068518533,1,0,0,0,97,97,114,1,vullen,images/br_vullen.png,images/cb_vullen.png,0,,,,,,,,,,,,,,,,,,,,,,
,,,,,55009,2023-07-31_13h39.06.007,vbt_B1_day4,2022.2.4,Win32,59.96282305,55009,,,,,,down,0,4.1007,,0.01944443,-0.062037044,1,0,0,0,98,98,111,1,ticket,images/br_ticket.png,images/cb_ticket.png,0,,,,,,,,,,,,,,,,,,,,,,
,,,,,55009,2023-07-31_13h39.06.007,vbt_B1_day4,2022.2.4,Win32,59.96282305,55009,,,,,,down,0,0.8014,,0.01944443,-0.064814815,1,0,0,0,99,99,48,1,steel,images/br_steel.png,images/cb_steel.png,0,,,,,,,,,,,,,,,,,,,,,,
,,,,,55009,2023-07-31_13h39.06.007,vbt_B1_day4,2022.2.4,Win32,59.96282305,55009,,,,,,down,0,0.2507,,0.017592607,-0.064814815,1,0,0,0,100,100,99,1,koffie,images/br_koffie.png,images/cb_koffie.png,0,,,,,,,,,,,,,,,,,,,,,,
,,,,,55009,2023-07-31_13h39.06.007,vbt_B1_day4,2022.2.4,Win32,59.96282305,55009,,,,,,down,0,3.0881,,0.017592607,-0.064814815,1,0,0,0,101,101,164,1,anarchie,images/br_anarchie.png,images/cb_anarchie.png,0,,,,,,,,,,,,,,,,,,,,,,
,,,,,55009,2023-07-31_13h39.06.007,vbt_B1_day4,2022.2.4,Win32,59.96282305,55009,,,,,,down,0,4.9469,,0.017592607,-0.064814815,1,0,0,0,102,102,161,1,attentie,images/br_attentie.png,images/cb_attentie.png,0,,,,,,,,,,,,,,,,,,,,,,
,,,,,55009,2023-07-31_13h39.06.007,vbt_B1_day4,2022.2.4,Win32,59.96282305,55009,,,,,,down,0,0.7102,,0.073148162,-0.011111118,1,0,0,0,103,103,191,1,opheffen,images/br_opheffen.png,images/cb_opheffen.png,0,,,,,,,,,,,,,,,,,,,,,,
,,,,,55009,2023-07-31_13h39.06.007,vbt_B1_day4,2022.2.4,Win32,59.96282305,55009,,,,,,down,0,0.1448,,0.141666695,-0.044444437,1,0,0,0,104,104,172,1,weigeren,images/br_weigeren.png,images/cb_weigeren.png,0,,,,,,,,,,,,,,,,,,,,,,
,,,,,55009,2023-07-31_13h39.06.007,vbt_B1_day4,2022.2.4,Win32,59.96282305,55009,,,,,,down,0,0.0308,,0.045370384,-0.057407414,1,0,0,0,105,105,69,1,waken,images/br_waken.png,images/cb_waken.png,0,,,,,,,,,,,,,,,,,,,,,,
,,,,,55009,2023-07-31_13h39.06.007,vbt_B1_day4,2022.2.4,Win32,59.96282305,55009,,,,,,down,0,3.5805,,0.142592607,-0.019444466,1,0,0,0,106,106,105,1,wijlen,images/br_wijlen.png,images/cb_wijlen.png,1,wijlen,,,,,,,,,,,,,,,,,,,,,
,,,,,55009,2023-07-31_13h39.06.007,vbt_B1_day4,2022.2.4,Win32,59.96282305,55009,,,,,,down,0,0.8009,,0.051851838,-0.090740734,1,0,0,0,107,107,13,1,kaal,images/br_kaal.png,images/cb_kaal.png,0,,,,,,,,,,,,,,,,,,,,,,
,,,,,55009,2023-07-31_13h39.06.007,vbt_B1_day4,2022.2.4,Win32,59.96282305,55009,,,,,,down,0,8.6353,,0.103703746,-0.099074116,1,0,0,0,108,108,195,1,middelen,images/br_middelen.png,images/cb_middelen.png,0,,,,,,,,,,,,,,,,,,,,,,
,,,,,55009,2023-07-31_13h39.06.007,vbt_B1_day4,2022.2.4,Win32,59.96282305,55009,,,,,,down,0,0.2888,,-0.021296254,-0.036111125,1,0,0,0,109,109,81,1,dubbel,images/br_dubbel.png,images/cb_dubbel.png,0,,,,,,,,,,,,,,,,,,,,,,
,,,,,55009,2023-07-31_13h39.06.007,vbt_B1_day4,2022.2.4,Win32,59.96282305,55009,,,,,,down,0,0.4906,,0.069444444,-0.013888889,1,0,0,0,110,110,35,1,lust,images/br_lust.png,images/cb_lust.png,0,,,,,,,,,,,,,,,,,,,,,,
,,,,,55009,2023-07-31_13h39.06.007,vbt_B1_day4,2022.2.4,Win32,59.96282305,55009,,,,,,down,0,3.3175,,0.069444444,-0.015740748,1,0,0,0,111,111,180,1,openbaar,images/br_openbaar.png,images/cb_openbaar.png,0,,,,,,,,,,,,,,,,,,,,,,
,,,,,55009,2023-07-31_13h39.06.007,vbt_B1_day4,2022.2.4,Win32,59.96282305,55009,,,,,,down,0,1.2053,,0.063888903,-0.013888889,1,0,0,0,112,112,73,1,volop,images/br_volop.png,images/cb_volop.png,0,,,,,,,,,,,,,,,,,,,,,,
,,,,,55009,2023-07-31_13h39.06.007,vbt_B1_day4,2022.2.4,Win32,59.96282305,55009,,,,,,down,0,2.772,,0.049074102,-0.029629637,1,0,0,0,113,113,55,1,praat,images/br_praat.png,images/cb_praat.png,0,,,,,,,,,,,,,,,,,,,,,,
,,,,,55009,2023-07-31_13h39.06.007,vbt_B1_day4,2022.2.4,Win32,59.96282305,55009,,,,,,down,0,1.9079,,0.049074102,-0.029629637,1,0,0,0,114,114,64,1,wegen,images/br_wegen.png,images/cb_wegen.png,1,wegen,,,,,,,,,,,,,,,,,,,,,
,,,,,55009,2023-07-31_13h39.06.007,vbt_B1_day4,2022.2.4,Win32,59.96282305,55009,,,,,,down,0,0.6671,,0.036111125,0.04074072,1,0,0,0,115,115,53,1,baron,images/br_baron.png,images/cb_baron.png,0,,,,,,,,,,,,,,,,,,,,,,
,,,,,55009,2023-07-31_13h39.06.007,vbt_B1_day4,2022.2.4,Win32,59.96282305,55009,,,,,,down,0,1.6077,,0.045370384,-0.024074095,1,0,0,0,116,116,160,1,daarheen,images/br_daarheen.png,images/cb_daarheen.png,0,,,,,,,,,,,,,,,,,,,,,,
,,,,,55009,2023-07-31_13h39.06.007,vbt_B1_day4,2022.2.4,Win32,59.96282305,55009,,,,,,down,0,0.6846,,0.045370384,-0.024074095,1,0,0,0,117,117,96,1,slagen,images/br_slagen.png,images/cb_slagen.png,0,,,,,,,,,,,,,,,,,,,,,,
,,,,,55009,2023-07-31_13h39.06.007,vbt_B1_day4,2022.2.4,Win32,59.96282305,55009,,,,,,down,0,0.2104,,0.045370384,-0.024074095,1,0,0,0,118,118,1,1,zaal,images/br_zaal.png,images/cb_zaal.png,0,,,,,,,,,,,,,,,,,,,,,,
,,,,,55009,2023-07-31_13h39.06.007,vbt_B1_day4,2022.2.4,Win32,59.96282305,55009,,,,,,down,0,0.8092,,0.053703732,-0.047222243,1,0,0,0,119,119,175,1,heengaan,images/br_heengaan.png,images/cb_heengaan.png,0,,,,,,,,,,,,,,,,,,,,,,
,,,,,55009,2023-07-31_13h39.06.007,vbt_B1_day4,2022.2.4,Win32,59.96282305,55009,,,,,,down,0,2.1399,,0.142592607,-0.199074074,1,0,0,0,120,120,68,1,schat,images/br_schat.png,images/cb_schat.png,0,,,,,,,,,,,,,,,,,,,,,,
,,,,,55009,2023-07-31_13h39.06.007,vbt_B1_day4,2022.2.4,Win32,59.96282305,55009,,,,,,down,0,0.2512,,0.118518547,0.051851838,1,0,0,0,121,121,88,1,boeien,images/br_boeien.png,images/cb_boeien.png,0,,,,,,,,,,,,,,,,,,,,,,
,,,,,55009,2023-07-31_13h39.06.007,vbt_B1_day4,2022.2.4,Win32,59.96282305,55009,,,,,,down,0,4.8216,,0.118518547,0.050925926,1,0,0,0,122,122,113,1,koppen,images/br_koppen.png,images/cb_koppen.png,0,,,,,,,,,,,,,,,,,,,,,,
,,,,,55009,2023-07-31_13h39.06.007,vbt_B1_day4,2022.2.4,Win32,59.96282305,55009,,,,,,down,0,2.4364,,0.127777806,-0.001851859,1,0,0,0,123,123,173,1,apparaat,images/br_apparaat.png,images/cb_apparaat.png,0,,,,,,,,,,,,,,,,,,,,,,
,,,,,55009,2023-07-31_13h39.06.007,vbt_B1_day4,2022.2.4,Win32,59.96282305,55009,,,,,,down,0,0.7503,,0.10092594,-0.019444466,1,0,0,0,124,124,20,1,site,images/br_site.png,images/cb_site.png,0,,,,,,,,,,,,,,,,,,,,,,
,,,,,55009,2023-07-31_13h39.06.007,vbt_B1_day4,2022.2.4,Win32,59.96282305,55009,,,,,,down,0,0.4084,,0.099074116,-0.023148148,1,0,0,0,125,125,132,1,grappen,images/br_grappen.png,images/cb_grappen.png,0,,,,,,,,,,,,,,,,,,,,,,
,,,,,55009,2023-07-31_13h39.06.007,vbt_B1_day4,2022.2.4,Win32,59.96282305,55009,,,,,,down,0,0.4714,,0.099074116,-0.023148148,1,0,0,0,126,126,112,1,lukken,images/br_lukken.png,images/cb_lukken.png,0,,,,,,,,,,,,,,,,,,,,,,
,,,,,55009,2023-07-31_13h39.06.007,vbt_B1_day4,2022.2.4,Win32,59.96282305,55009,,,,,,down,0,0.5212,,0.099074116,-0.023148148,1,0,0,0,127,127,72,1,strak,images/br_strak.png,images/cb_strak.png,0,,,,,,,,,,,,,,,,,,,,,,
,,,,,55009,2023-07-31_13h39.06.007,vbt_B1_day4,2022.2.4,Win32,59.96282305,55009,,,,,,down,0,0.1511,,0.098148134,-0.024074095,1,0,0,0,128,128,171,1,aarzelen,images/br_aarzelen.png,images/cb_aarzelen.png,0,,,,,,,,,,,,,,,,,,,,,,
,,,,,55009,2023-07-31_13h39.06.007,vbt_B1_day4,2022.2.4,Win32,59.96282305,55009,,,,,,down,0,5.2398,,0.141666695,-0.014814836,1,0,0,0,129,129,176,1,techniek,images/br_techniek.png,images/cb_techniek.png,0,,,,,,,,,,,,,,,,,,,,,,
,,,,,55009,2023-07-31_13h39.06.007,vbt_B1_day4,2022.2.4,Win32,59.96282305,55009,,,,,,down,0,0.4109,,0.12037037,-0.031481496,1,0,0,0,130,130,34,1,vorm,images/br_vorm.png,images/cb_vorm.png,0,,,,,,,,,,,,,,,,,,,,,,
,,,,,55009,2023-07-31_13h39.06.007,vbt_B1_day4,2022.2.4,Win32,59.96282305,55009,,,,,,down,0,0.661,,0.12037037,-0.031481496,1,0,0,0,131,131,97,1,loyaal,images/br_loyaal.png,images/cb_loyaal.png,0,,,,,,,,,,,,,,,,,,,,,,
,,,,,55009,2023-07-31_13h39.06.007,vbt_B1_day4,2022.2.4,Win32,59.96282305,55009,,,,,,down,0,6.4616,,0.12037037,-0.031481496,1,0,0,0,132,132,184,1,aandelen,images/br_aandelen.png,images/cb_aandelen.png,1,aandelen,,,,,,,,,,,,,,,,,,,,,
,,,,,55009,2023-07-31_13h39.06.007,vbt_B1_day4,2022.2.4,Win32,59.96282305,55009,,,,,,down,0,1.4601,,0.19722225,0.060185185,1,0,0,0,133,133,5,1,blad,images/br_blad.png,images/cb_blad.png,0,,,,,,,,,,,,,,,,,,,,,,
,,,,,55009,2023-07-31_13h39.06.007,vbt_B1_day4,2022.2.4,Win32,59.96282305,55009,,,,,,down,0,2.0257,,0.223148134,-0.020370377,1,0,0,0,134,134,129,1,verhaal,images/br_verhaal.png,images/cb_verhaal.png,0,,,,,,,,,,,,,,,,,,,,,,
,,,,,55009,2023-07-31_13h39.06.007,vbt_B1_day4,2022.2.4,Win32,59.96282305,55009,,,,,,down,0,2.2917,,0.222222222,-0.034259266,1,0,0,0,135,135,193,1,weeshuis,images/br_weeshuis.png,images/cb_weeshuis.png,0,,,,,,,,,,,,,,,,,,,,,,
,,,,,55009,2023-07-31_13h39.06.007,vbt_B1_day4,2022.2.4,Win32,59.96282305,55009,,,,,,down,0,0.5675,,0.22129631,-0.037962984,1,0,0,0,136,136,109,1,totaal,images/br_totaal.png,images/cb_totaal.png,0,,,,,,,,,,,,,,,,,,,,,,
,,,,,55009,2023-07-31_13h39.06.007,vbt_B1_day4,2022.2.4,Win32,59.96282305,55009,,,,,,down,0,0.6282,,0.22129631,-0.037962984,1,0,0,0,137,137,70,1,ijdel,images/br_ijdel.png,images/cb_ijdel.png,0,,,,,,,,,,,,,,,,,,,,,,
,,,,,55009,2023-07-31_13h39.06.007,vbt_B1_day4,2022.2.4,Win32,59.96282305,55009,,,,,,down,0,0.4508,,0.22129631,-0.037962984,1,0,0,0,138,138,139,1,stiekem,images/br_stiekem.png,images/cb_stiekem.png,0,,,,,,,,,,,,,,,,,,,,,,
,,,,,55009,2023-07-31_13h39.06.007,vbt_B1_day4,2022.2.4,Win32,59.96282305,55009,,,,,,down,0,3.2183,,0.220370399,-0.040740755,1,0,0,0,139,139,170,1,schatten,images/br_schatten.png,images/cb_schatten.png,0,,,,,,,,,,,,,,,,,,,,,,
,,,,,55009,2023-07-31_13h39.06.007,vbt_B1_day4,2022.2.4,Win32,59.96282305,55009,,,,,,down,0,1.8424,,0.220370399,-0.040740755,1,0,0,0,140,140,27,1,dans,images/br_dans.png,images/cb_dans.png,1,dans,,,,,,,,,,,,,,,,,,,,,
,,,,,55009,2023-07-31_13h39.06.007,vbt_B1_day4,2022.2.4,Win32,59.96282305,55009,,,,,,down,0,1.2683,,0.184259273,-0.058333326,1,0,0,0,141,141,52,1,wagon,images/br_wagon.png,images/cb_wagon.png,0,,,,,,,,,,,,,,,,,,,,,,
,,,,,55009,2023-07-31_13h39.06.007,vbt_B1_day4,2022.2.4,Win32,59.96282305,55009,,,,,,down,0,2.0176,,0.184259273,-0.058333326,1,0,0,0,142,142,33,1,vlek,images/br_vlek.png,images/cb_vlek.png,0,,,,,,,,,,,,,,,,,,,,,,
,,,,,55009,2023-07-31_13h39.06.007,vbt_B1_day4,2022.2.4,Win32,59.96282305,55009,,,,,,down,0,2.1508,,0.183333362,-0.058333326,1,0,0,0,143,143,76,1,afval,images/br_afval.png,images/cb_afval.png,0,,,,,,,,,,,,,,,,,,,,,,
,,,,,55009,2023-07-31_13h39.06.007,vbt_B1_day4,2022.2.4,Win32,59.96282305,55009,,,,,,down,0,0.772,,0.181481467,-0.059259273,1,0,0,0,144,144,79,1,nodig,images/br_nodig.png,images/cb_nodig.png,0,,,,,,,,,,,,,,,,,,,,,,
,,,,,55009,2023-07-31_13h39.06.007,vbt_B1_day4,2022.2.4,Win32,59.96282305,55009,,,,,,down,0,0.4394,,0.181481467,-0.059259273,1,0,0,0,145,145,148,1,smullen,images/br_smullen.png,images/cb_smullen.png,0,,,,,,,,,,,,,,,,,,,,,,
,,,,,55009,2023-07-31_13h39.06.007,vbt_B1_day4,2022.2.4,Win32,59.96282305,55009,,,,,,down,0,0.6341,,0.180555556,-0.060185185,1,0,0,0,146,146,126,1,kasteel,images/br_kasteel.png,images/cb_kasteel.png,0,,,,,,,,,,,,,,,,,,,,,,
,,,,,55009,2023-07-31_13h39.06.007,vbt_B1_day4,2022.2.4,Win32,59.96282305,55009,,,,,,down,0,0.9918,,0.180555556,-0.060185185,1,0,0,0,147,147,162,1,uitdelen,images/br_uitdelen.png,images/cb_uitdelen.png,0,,,,,,,,,,,,,,,,,,,,,,
,,,,,55009,2023-07-31_13h39.06.007,vbt_B1_day4,2022.2.4,Win32,59.96282305,55009,,,,,,down,0,1.1007,,0.180555556,-0.060185185,1,0,0,0,148,148,54,1,gebit,images/br_gebit.png,images/cb_gebit.png,0,,,,,,,,,,,,,,,,,,,,,,
,,,,,55009,2023-07-31_13h39.06.007,vbt_B1_day4,2022.2.4,Win32,59.96282305,55009,,,,,,down,0,0.4932,,0.17777782,-0.062962956,1,0,0,0,149,149,38,1,baai,images/br_baai.png,images/cb_baai.png,0,,,,,,,,,,,,,,,,,,,,,,
,,,,,55009,2023-07-31_13h39.06.007,vbt_B1_day4,2022.2.4,Win32,59.96282305,55009,,,,,,down,0,0.5319,,0.17777782,-0.062962956,1,0,0,0,150,150,6,1,diep,images/br_diep.png,images/cb_diep.png,0,,,,,,,,,,,,,,,,,,,,,,
,,,,,55009,2023-07-31_13h39.06.007,vbt_B1_day4,2022.2.4,Win32,59.96282305,55009,,,,,,down,0,2.1536,,0.17777782,-0.062962956,1,0,0,0,151,151,138,1,akkoord,images/br_akkoord.png,images/cb_akkoord.png,0,,,,,,,,,,,,,,,,,,,,,,
,,,,,55009,2023-07-31_13h39.06.007,vbt_B1_day4,2022.2.4,Win32,59.96282305,55009,,,,,,down,0,0.4998,,0.175925926,-0.065740762,1,0,0,0,152,152,150,1,gegeven,images/br_gegeven.png,images/cb_gegeven.png,0,,,,,,,,,,,,,,,,,,,,,,
,,,,,55009,2023-07-31_13h39.06.007,vbt_B1_day4,2022.2.4,Win32,59.96282305,55009,,,,,,down,0,1.069,,0.156481496,-0.060185185,1,0,0,0,153,153,135,1,gedicht,images/br_gedicht.png,images/cb_gedicht.png,0,,,,,,,,,,,,,,,,,,,,,,
,,,,,55009,2023-07-31_13h39.06.007,vbt_B1_day4,2022.2.4,Win32,59.96282305,55009,,,,,,down,0,0.4243,,0.156481496,-0.060185185,1,0,0,0,154,154,131,1,opzicht,images/br_opzicht.png,images/cb_opzicht.png,0,,,,,,,,,,,,,,,,,,,,,,
,,,,,55009,2023-07-31_13h39.06.007,vbt_B1_day4,2022.2.4,Win32,59.96282305,55009,,,,,,down,0,18.4642,,0.065740727,-0.005555577,1,0,0,0,155,155,122,1,waarvan,images/br_waarvan.png,images/cb_waarvan.png,0,,,,,,,,,,,,,,,,,,,,,,
,,,,,55009,2023-07-31_13h39.06.007,vbt_B1_day4,2022.2.4,Win32,59.96282305,55009,,,,,,down,0,4.5313,,0.065740727,-0.01666666,1,0,0,0,156,156,185,1,mijnheer,images/br_mijnheer.png,images/cb_mijnheer.png,1,mijnheer,,,,,,,,,,,,,,,,,,,,,
,,,,,55009,2023-07-31_13h39.06.007,vbt_B1_day4,2022.2.4,Win32,59.96282305,55009,,,,,,down,0,0.6835,,0.069444444,-0.012962977,1,0,0,0,157,157,0,1,slak,images/br_slak.png,images/cb_slak.png,0,,,,,,,,,,,,,,,,,,,,,,
,,,,,55009,2023-07-31_13h39.06.007,vbt_B1_day4,2022.2.4,Win32,59.96282305,55009,,,,,,down,0,16.2376,,0.065740727,0.041666667,1,0,0,0,158,158,56,1,traag,images/br_traag.png,images/cb_traag.png,0,,,,,,,,,,,,,,,,,,,,,,
,,,,,55009,2023-07-31_13h39.06.007,vbt_B1_day4,2022.2.4,Win32,59.96282305,55009,,,,,,down,0,0.1531,,0.075925968,-0.028703725,1,0,0,0,159,159,10,1,leek,images/br_leek.png,images/cb_leek.png,0,,,,,,,,,,,,,,,,,,,,,,
,,,,,55009,2023-07-31_13h39.06.007,vbt_B1_day4,2022.2.4,Win32,59.96282305,55009,,,,,,down,0,2.9887,,0.089814857,-0.048148155,1,0,0,0,160,160,152,1,afnemen,images/br_afnemen.png,images/cb_afnemen.png,0,,,,,,,,,,,,,,,,,,,,,,
,,,,,55009,2023-07-31_13h39.06.007,vbt_B1_day4,2022.2.4,Win32,59.96282305,55009,,,,,,down,0,1.4241,,0.085185228,-0.031481496,1,0,0,0,161,161,106,1,zingen,images/br_zingen.png,images/cb_zingen.png,1,zingen,,,,,,,,,,,,,,,,,,,,,
,,,,,55009,2023-07-31_13h39.06.007,vbt_B1_day4,2022.2.4,Win32,59.96282305,55009,,,,,,down,0,0.7878,,0.020370413,-0.068518533,1,0,0,0,162,162,12,1,kust,images/br_kust.png,images/cb_kust.png,0,,,,,,,,,,,,,,,,,,,,,,
,,,,,55009,2023-07-31_13h39.06.007,vbt_B1_day4,2022.2.4,Win32,59.96282305,55009,,,,,,down,0,3.9168,,0.020370413,-0.068518533,1,0,0,0,163,163,147,1,komisch,images/br_komisch.png,images/cb_komisch.png,1,komisch,,,,,,,,,,,,,,,,,,,,,
,,,,,55009,2023-07-31_13h39.06.007,vbt_B1_day4,2022.2.4,Win32,59.96282305,55009,,,,,,down,0,0.7862,,0.029629672,-0.024074095,1,0,0,0,164,164,95,1,vreten,images/br_vreten.png,images/cb_vreten.png,0,,,,,,,,,,,,,,,,,,,,,,
,,,,,55009,2023-07-31_13h39.06.007,vbt_B1_day4,2022.2.4,Win32,59.96282305,55009,,,,,,down,0,2.223,,0.068518533,-0.036111125,1,0,0,0,165,165,146,1,opkomen,images/br_opkomen.png,images/cb_opkomen.png,1,opkomen,,,,,,,,,,,,,,,,,,,,,
,,,,,55009,2023-07-31_13h39.06.007,vbt_B1_day4,2022.2.4,Win32,59.96282305,55009,,,,,,down,0,0.8177,,0.044444473,-0.018518519,1,0,0,0,166,166,77,1,woede,images/br_woede.png,images/cb_woede.png,0,,,,,,,,,,,,,,,,,,,,,,
,,,,,55009,2023-07-31_13h39.06.007,vbt_B1_day4,2022.2.4,Win32,59.96282305,55009,,,,,,down,0,0.4331,,0.026851866,-0.037962984,1,0,0,0,167,167,8,1,knie,images/br_knie.png,images/cb_knie.png,0,,,,,,,,,,,,,,,,,,,,,,
,,,,,55009,2023-07-31_13h39.06.007,vbt_B1_day4,2022.2.4,Win32,59.96282305,55009,,,,,,down,0,1.9504,,0.025925954,-0.015740748,1,0,0,0,168,168,137,1,trekker,images/br_trekker.png,images/cb_trekker.png,0,,,,,,,,,,,,,,,,,,,,,,
,,,,,55009,2023-07-31_13h39.06.007,vbt_B1_day4,2022.2.4,Win32,59.96282305,55009,,,,,,down,0,1.3885,,0.026851866,0.010185171,1,0,0,0,169,169,194,1,driemaal,images/br_driemaal.png,images/cb_driemaal.png,0,,,,,,,,,,,,,,,,,,,,,,
,,,,,55009,2023-07-31_13h39.06.007,vbt_B1_day4,2022.2.4,Win32,59.96282305,55009,,,,,,down,0,0.3339,,0.033333319,0.01203703,1,0,0,0,170,170,49,1,laken,images/br_laken.png,images/cb_laken.png,0,,,,,,,,,,,,,,,,,,,,,,
,,,,,55009,2023-07-31_13h39.06.007,vbt_B1_day4,2022.2.4,Win32,59.96282305,55009,,,,,,down,0,1.3058,,0.032407407,0.01203703,1,0,0,0,171,171,118,1,vinger,images/br_vinger.png,images/cb_vinger.png,0,,,,,,,,,,,,,,,,,,,,,,
,,,,,55009,2023-07-31_13h39.06.007,vbt_B1_day4,2022.2.4,Win32,59.96282305,55009,,,,,,down,0,0.5405,,0.025000042,0.005555541,1,0,0,0,172,172,19,1,geit,images/br_geit.png,images/cb_geit.png,0,,,,,,,,,,,,,,,,,,,,,,
,,,,,55009,2023-07-31_13h39.06.007,vbt_B1_day4,2022.2.4,Win32,59.96282305,55009,,,,,,down,0,0.1697,,0.023148148,0.001851859,1,0,0,0,173,173,78,1,leren,images/br_leren.png,images/cb_leren.png,0,,,,,,,,,,,,,,,,,,,,,,
,,,,,55009,2023-07-31_13h39.06.007,vbt_B1_day4,2022.2.4,Win32,59.96282305,55009,,,,,,down,0,0.8839,,0.022222236,0,1,0,0,0,174,174,188,1,strekken,images/br_strekken.png,images/cb_strekken.png,0,,,,,,,,,,,,,,,,,,,,,,
,,,,,55009,2023-07-31_13h39.06.007,vbt_B1_day4,2022.2.4,Win32,59.96282305,55009,,,,,,down,0,1.4781,,0.025925954,-0.002777771,1,0,0,0,175,175,14,1,rijp,images/br_rijp.png,images/cb_rijp.png,0,,,,,,,,,,,,,,,,,,,,,,
,,,,,55009,2023-07-31_13h39.06.007,vbt_B1_day4,2022.2.4,Win32,59.96282305,55009,,,,,,down,0,2.3847,,0.02870369,-0.038888896,1,0,0,0,176,176,23,1,zout,images/br_zout.png,images/cb_zout.png,0,,,,,,,,,,,,,,,,,,,,,,
,,,,,55009,2023-07-31_13h39.06.007,vbt_B1_day4,2022.2.4,Win32,59.96282305,55009,,,,,,down,0,0.4844,,0.062037079,-0.087037051,1,0,0,0,177,177,119,1,liefje,images/br_liefje.png,images/cb_liefje.png,0,,,,,,,,,,,,,,,,,,,,,,
,,,,,55009,2023-07-31_13h39.06.007,vbt_B1_day4,2022.2.4,Win32,59.96282305,55009,,,,,,down,0,12.901,,0.015740783,-0.043518526,1,0,0,0,178,178,21,1,mist,images/br_mist.png,images/cb_mist.png,0,,,,,,,,,,,,,,,,,,,,,,
,,,,,55009,2023-07-31_13h39.06.007,vbt_B1_day4,2022.2.4,Win32,59.96282305,55009,,,,,,down,0,2.7284,,0.07222225,-0.034259266,1,0,0,0,179,179,43,1,klauw,images/br_klauw.png,images/cb_klauw.png,0,,,,,,,,,,,,,,,,,,,,,,
,,,,,55009,2023-07-31_13h39.06.007,vbt_B1_day4,2022.2.4,Win32,59.96282305,55009,,,,,,down,0,0.2449,,0.061111097,-0.086111104,1,0,0,0,180,180,28,1,stal,images/br_stal.png,images/cb_stal.png,0,,,,,,,,,,,,,,,,,,,,,,
,,,,,55009,2023-07-31_13h39.06.007,vbt_B1_day4,2022.2.4,Win32,59.96282305,55009,,,,,,down,0,2.7949,,0.032407407,-0.003703718,1,0,0,0,181,181,82,1,muziek,images/br_muziek.png,images/cb_muziek.png,0,,,,,,,,,,,,,,,,,,,,,,
,,,,,55009,2023-07-31_13h39.06.007,vbt_B1_day4,2022.2.4,Win32,59.96282305,55009,,,,,,down,0,1.7085,,-0.015740712,-0.010185206,1,0,0,0,182,182,177,1,maaltijd,images/br_maaltijd.png,images/cb_maaltijd.png,0,,,,,,,,,,,,,,,,,,,,,,
,,,,,55009,2023-07-31_13h39.06.007,vbt_B1_day4,2022.2.4,Win32,59.96282305,55009,,,,,,down,0,2.5207,,-0.016666624,-0.009259259,1,0,0,0,183,183,92,1,geheim,images/br_geheim.png,images/cb_geheim.png,0,,,,,,,,,,,,,,,,,,,,,,
,,,,,55009,2023-07-31_13h39.06.007,vbt_B1_day4,2022.2.4,Win32,59.96282305,55009,,,,,,down,0,0.4851,,-0.018518519,-0.015740748,1,0,0,0,184,184,125,1,aanzien,images/br_aanzien.png,images/cb_aanzien.png,0,,,,,,,,,,,,,,,,,,,,,,
,,,,,55009,2023-07-31_13h39.06.007,vbt_B1_day4,2022.2.4,Win32,59.96282305,55009,,,,,,down,0,0.2501,,-0.020370342,-0.012962977,1,0,0,0,185,185,117,1,kennis,images/br_kennis.png,images/cb_kennis.png,0,,,,,,,,,,,,,,,,,,,,,,
,,,,,55009,2023-07-31_13h39.06.007,vbt_B1_day4,2022.2.4,Win32,59.96282305,55009,,,,,,down,0,4.4678,,0.002777806,-0.021296289,1,0,0,0,186,186,145,1,invloed,images/br_invloed.png,images/cb_invloed.png,1,invloed,,,,,,,,,,,,,,,,,,,,,
,,,,,55009,2023-07-31_13h39.06.007,vbt_B1_day4,2022.2.4,Win32,59.96282305,55009,,,,,,down,0,0.4005,,0.009259259,-0.018518519,1,0,0,0,187,187,61,1,groen,images/br_groen.png,images/cb_groen.png,0,,,,,,,,,,,,,,,,,,,,,,
,,,,,55009,2023-07-31_13h39.06.007,vbt_B1_day4,2022.2.4,Win32,59.96282305,55009,,,,,,down,0,1.4008,,-0.013888889,-0.073148162,1,0,0,0,188,188,51,1,samen,images/br_samen.png,images/cb_samen.png,0,,,,,,,,,,,,,,,,,,,,,,
,,,,,55009,2023-07-31_13h39.06.007,vbt_B1_day4,2022.2.4,Win32,59.96282305,55009,,,,,,down,0,0.6238,,-0.013888889,-0.071296303,1,0,0,0,189,189,22,1,stof,images/br_stof.png,images/cb_stof.png,0,,,,,,,,,,,,,,,,,,,,,,
,,,,,55009,2023-07-31_13h39.06.007,vbt_B1_day4,2022.2.4,Win32,59.96282305,55009,,,,,,down,0,2.3781,,-0.000925912,-0.062037044,1,0,0,0,190,190,104,1,zweven,images/br_zweven.png,images/cb_zweven.png,1,zweven,,,,,,,,,,,,,,,,,,,,,
,,,,,55009,2023-07-31_13h39.06.007,vbt_B1_day4,2022.2.4,Win32,59.96282305,55009,,,,,,down,0,3.5108,,-0.020370342,0.065740727,1,0,0,0,191,191,163,1,schuilen,images/br_schuilen.png,images/cb_schuilen.png,0,,,,,,,,,,,,,,,,,,,,,,
,,,,,55009,2023-07-31_13h39.06.007,vbt_B1_day4,2022.2.4,Win32,59.96282305,55009,,,,,,down,0,45.9721,,-0.030555513,0.026851831,1,0,0,0,192,192,197,1,spanning,images/br_spanning.png,images/cb_spanning.png,0,,,,,,,,,,,,,,,,,,,,,,
,,,,,55009,2023-07-31_13h39.06.007,vbt_B1_day4,2022.2.4,Win32,59.96282305,55009,,,,,,down,0,0.6105,,-0.023148148,0.056481467,1,0,0,0,193,193,15,1,soda,images/br_soda.png,images/cb_soda.png,0,,,,,,,,,,,,,,,,,,,,,,
,,,,,55009,2023-07-31_13h39.06.007,vbt_B1_day4,2022.2.4,Win32,59.96282305,55009,,,,,,down,0,0.2208,,-0.029629601,0.062037044,1,0,0,0,194,194,101,1,staren,images/br_staren.png,images/cb_staren.png,0,,,,,,,,,,,,,,,,,,,,,,
,,,,,55009,2023-07-31_13h39.06.007,vbt_B1_day4,2022.2.4,Win32,59.96282305,55009,,,,,,down,0,1.7876,,-0.029629601,0.061111097,1,0,0,0,195,195,83,1,mening,images/br_mening.png,images/cb_mening.png,0,,,,,,,,,,,,,,,,,,,,,,
,,,,,55009,2023-07-31_13h39.06.007,vbt_B1_day4,2022.2.4,Win32,59.96282305,55009,,,,,,down,0,0.0877,,-0.032407407,0.062962956,1,0,0,0,196,196,31,1,poes,images/br_poes.png,images/cb_poes.png,0,,,,,,,,,,,,,,,,,,,,,,
,,,,,55009,2023-07-31_13h39.06.007,vbt_B1_day4,2022.2.4,Win32,59.96282305,55009,,,,,,down,0,1.5761,,0.062962991,0.063888868,1,0,0,0,197,197,103,1,joggen,images/br_joggen.png,images/cb_joggen.png,0,,,,,,,,,,,,,,,,,,,,,,
,,,,,55009,2023-07-31_13h39.06.007,vbt_B1_day4,2022.2.4,Win32,59.96282305,55009,,,,,,down,0,0.2339,,0.056481467,0.049999979,1,0,0,0,198,198,45,1,piste,images/br_piste.png,images/cb_piste.png,0,,,,,,,,,,,,,,,,,,,,,,
,,,,,55009,2023-07-31_13h39.06.007,vbt_B1_day4,2022.2.4,Win32,59.96282305,55009,,,,,,down,0,0.3503,,0.054629644,0.047222208,1,0,0,0,199,199,40,1,schep,images/br_schep.png,images/cb_schep.png,0,,,,,,,,,,,,,,,,,,,,,,
,,,,,55009,2023-07-31_13h39.06.007,vbt_B1_day4,2022.2.4,Win32,59.96282305,55009,,,,,,,,,,,,,,,,,,,,,,,,,0.196296339,0.037037037,1,0,0,,,,,,,,,,,,,,,,
,,,,,55009,2023-07-31_13h39.06.007,vbt_B1_day4,2022.2.4,Win32,59.96282305,55009,,,,,,,,,,,,,,,,,,,,,,,,,,,,,,0.252777806,0.160185178,1,0,0,,,,,,,,,,,
,,,,,55009,2023-07-31_13h39.06.007,vbt_B1_day4,2022.2.4,Win32,59.96282305,55009,,,,,,,,,,,,,,,,,,,,midden,images/br_midden.png,images/cb_midden.png,,meddog,,,,,,,,,,,0.258333347,0.15648146,1,0,0,meddog,0,0,0,50,1
,,,,,55009,2023-07-31_13h39.06.007,vbt_B1_day4,2022.2.4,Win32,59.96282305,55009,,,,,,,,,,,,,,,,,,,,wagon,images/br_wagon.png,images/cb_wagon.png,,wagon,,,,,,,,,,,0.258333347,0.15648146,1,0,0,wagon,0,1,1,4,1
,,,,,55009,2023-07-31_13h39.06.007,vbt_B1_day4,2022.2.4,Win32,59.96282305,55009,,,,,,,,,,,,,,,,,,,,lappen,images/br_lappen.png,images/cb_lappen.png,,lappen,,,,,,,,,,,0.255555541,0.15648146,1,0,0,lappen,0,2,2,49,1
,,,,,55009,2023-07-31_13h39.06.007,vbt_B1_day4,2022.2.4,Win32,59.96282305,55009,,,,,,,,,,,,,,,,,,,,waarop,images/br_waarop.png,images/cb_waarop.png,,waarop,,,,,,,,,,,0.255555541,0.15648146,1,0,0,waarop,0,3,3,9,1
,,,,,55009,2023-07-31_13h39.06.007,vbt_B1_day4,2022.2.4,Win32,59.96282305,55009,,,,,,,,,,,,,,,,,,,,snee,images/br_snee.png,images/cb_snee.png,,snee,,,,,,,,,,,0.25,0.15648146,1,0,0,snee,0,4,4,40,1
,,,,,55009,2023-07-31_13h39.06.007,vbt_B1_day4,2022.2.4,Win32,59.96282305,55009,,,,,,,,,,,,,,,,,,,,apparaat,images/br_apparaat.png,images/cb_apparaat.png,,apparaat,,,,,,,,,,,0.208333333,0.073148127,1,0,0,apparaat,0,5,5,17,1
,,,,,55009,2023-07-31_13h39.06.007,vbt_B1_day4,2022.2.4,Win32,59.96282305,55009,,,,,,,,,,,,,,,,,,,,strok,images/br_strok.png,images/cb_strok.png,,strok,,,,,,,,,,,0.208333333,0.073148127,1,0,0,strok,0,6,6,25,1
,,,,,55009,2023-07-31_13h39.06.007,vbt_B1_day4,2022.2.4,Win32,59.96282305,55009,,,,,,,,,,,,,,,,,,,,weigeren,images/br_weigeren.png,images/cb_weigeren.png,,weigeren,,,,,,,,,,,0.208333333,0.073148127,1,0,0,weigeren,0,7,7,16,1
,,,,,55009,2023-07-31_13h39.06.007,vbt_B1_day4,2022.2.4,Win32,59.96282305,55009,,,,,,,,,,,,,,,,,,,,kust,images/br_kust.png,images/cb_kust.png,,kust,,,,,,,,,,,0.187037079,0.074999986,1,0,0,kust,0,8,8,0,1
,,,,,55009,2023-07-31_13h39.06.007,vbt_B1_day4,2022.2.4,Win32,59.96282305,55009,,,,,,,,,,,,,,,,,,,,dozijn,images/br_dozijn.png,images/cb_dozijn.png,,dozijn,,,,,,,,,,,0.187037079,0.074999986,1,0,0,dozijn,0,9,9,48,1
,,,,,55009,2023-07-31_13h39.06.007,vbt_B1_day4,2022.2.4,Win32,59.96282305,55009,,,,,,,,,,,,,,,,,,,,geliefd,images/br_geliefd.png,images/cb_geliefd.png,,geliefd,,,,,,,,,,,0.187037079,0.074999986,1,0,0,geliefd,0,10,10,14,1
,,,,,55009,2023-07-31_13h39.06.007,vbt_B1_day4,2022.2.4,Win32,59.96282305,55009,,,,,,,,,,,,,,,,,,,,flippen,images/br_flippen.png,images/cb_flippen.png,,flippen,,,,,,,,,,,0.187037079,0.074999986,1,0,0,flippen,0,11,11,54,1
,,,,,55009,2023-07-31_13h39.06.007,vbt_B1_day4,2022.2.4,Win32,59.96282305,55009,,,,,,,,,,,,,,,,,,,,mekst,images/br_mekst.png,images/cb_mekst.png,,mekst,,,,,,,,,,,0.187037079,0.074999986,1,0,0,mekst,0,12,12,27,1
,,,,,55009,2023-07-31_13h39.06.007,vbt_B1_day4,2022.2.4,Win32,59.96282305,55009,,,,,,,,,,,,,,,,,,,,drooien,images/br_drooien.png,images/cb_drooien.png,,drooein,,,,,,,,,,,0.187037079,0.074999986,1,0,0,drooein,0,13,13,32,1
,,,,,55009,2023-07-31_13h39.06.007,vbt_B1_day4,2022.2.4,Win32,59.96282305,55009,,,,,,,,,,,,,,,,,,,,heengaan,images/br_heengaan.png,images/cb_heengaan.png,,heengaan,,,,,,,,,,,0.187037079,0.074999986,1,0,0,heengaan,0,14,14,19,1
,,,,,55009,2023-07-31_13h39.06.007,vbt_B1_day4,2022.2.4,Win32,59.96282305,55009,,,,,,,,,,,,,,,,,,,,haza,images/br_haza.png,images/cb_haza.png,,haza,,,,,,,,,,,0.187037079,0.074999986,1,0,0,haza,0,15,15,21,1
,,,,,55009,2023-07-31_13h39.06.007,vbt_B1_day4,2022.2.4,Win32,59.96282305,55009,,,,,,,,,,,,,,,,,,,,fran,images/br_fran.png,images/cb_fran.png,,fran,,,,,,,,,,,0.187037079,0.074999986,1,0,0,fran,0,16,16,22,1
,,,,,55009,2023-07-31_13h39.06.007,vbt_B1_day4,2022.2.4,Win32,59.96282305,55009,,,,,,,,,,,,,,,,,,,,drummer,images/br_drummer.png,images/cb_drummer.png,,drummer,,,,,,,,,,,0.187037079,0.074999986,1,0,0,drummer,0,17,17,53,1
,,,,,55009,2023-07-31_13h39.06.007,vbt_B1_day4,2022.2.4,Win32,59.96282305,55009,,,,,,,,,,,,,,,,,,,,getucht,images/br_getucht.png,images/cb_getucht.png,,getuihn,,,,,,,,,,,0.187037079,0.074999986,1,0,0,getuihn,0,18,18,35,1
,,,,,55009,2023-07-31_13h39.06.007,vbt_B1_day4,2022.2.4,Win32,59.96282305,55009,,,,,,,,,,,,,,,,,,,,dalen,images/br_dalen.png,images/cb_dalen.png,,dalen,,,,,,,,,,,0.187037079,0.074999986,1,0,0,dalen,0,19,19,46,1
,,,,,55009,2023-07-31_13h39.06.007,vbt_B1_day4,2022.2.4,Win32,59.96282305,55009,,,,,,,,,,,,,,,,,,,,oceaan,images/br_oceaan.png,images/cb_oceaan.png,,oceaan,,,,,,,,,,,0.187037079,0.074999986,1,0,0,oceaan,0,20,20,10,1
,,,,,55009,2023-07-31_13h39.06.007,vbt_B1_day4,2022.2.4,Win32,59.96282305,55009,,,,,,,,,,,,,,,,,,,,toevol,images/br_toevol.png,images/cb_toevol.png,,toevol,,,,,,,,,,,0.187037079,0.074999986,1,0,0,toevol,0,21,21,29,1
,,,,,55009,2023-07-31_13h39.06.007,vbt_B1_day4,2022.2.4,Win32,59.96282305,55009,,,,,,,,,,,,,,,,,,,,ezel,images/br_ezel.png,images/cb_ezel.png,,ezel,,,,,,,,,,,0.187037079,0.074999986,1,0,0,ezel,0,22,22,42,1
,,,,,55009,2023-07-31_13h39.06.007,vbt_B1_day4,2022.2.4,Win32,59.96282305,55009,,,,,,,,,,,,,,,,,,,,aanzwaag,images/br_aanzwaag.png,images/cb_aanzwaag.png,,aanzwaag,,,,,,,,,,,0.187037079,0.076851845,1,0,0,aanzwaag,0,23,23,38,1
,,,,,55009,2023-07-31_13h39.06.007,vbt_B1_day4,2022.2.4,Win32,59.96282305,55009,,,,,,,,,,,,,,,,,,,,steen,images/br_steen.png,images/cb_steen.png,,steen,,,,,,,,,,,0.187037079,0.076851845,1,0,0,steen,0,24,24,44,1
,,,,,55009,2023-07-31_13h39.06.007,vbt_B1_day4,2022.2.4,Win32,59.96282305,55009,,,,,,,,,,,,,,,,,,,,soda,images/br_soda.png,images/cb_soda.png,,soda,,,,,,,,,,,0.187037079,0.071296303,1,0,0,soda,0,25,25,3,1
,,,,,55009,2023-07-31_13h39.06.007,vbt_B1_day4,2022.2.4,Win32,59.96282305,55009,,,,,,,,,,,,,,,,,,,,geheim,images/br_geheim.png,images/cb_geheim.png,,geheim,,,,,,,,,,,0.187037079,0.071296303,1,0,0,geheim,0,26,26,8,1
,,,,,55009,2023-07-31_13h39.06.007,vbt_B1_day4,2022.2.4,Win32,59.96282305,55009,,,,,,,,,,,,,,,,,,,,broodje,images/br_broodje.png,images/cb_broodje.png,,broodje,,,,,,,,,,,0.187037079,0.071296303,1,0,0,broodje,0,27,27,55,1
,,,,,55009,2023-07-31_13h39.06.007,vbt_B1_day4,2022.2.4,Win32,59.96282305,55009,,,,,,,,,,,,,,,,,,,,gedicht,images/br_gedicht.png,images/cb_gedicht.png,,gedicht,,,,,,,,,,,0.187037079,0.071296303,1,0,0,gedicht,0,28,28,15,1
,,,,,55009,2023-07-31_13h39.06.007,vbt_B1_day4,2022.2.4,Win32,59.96282305,55009,,,,,,,,,,,,,,,,,,,,zwek,images/br_zwek.png,images/cb_zwek.png,,zwek,,,,,,,,,,,0.187037079,0.071296303,1,0,0,zwek,0,29,29,20,1
,,,,,55009,2023-07-31_13h39.06.007,vbt_B1_day4,2022.2.4,Win32,59.96282305,55009,,,,,,,,,,,,,,,,,,,,opruimen,images/br_opruimen.png,images/cb_opruimen.png,,opkuimer,,,,,,,,,,,0.187037079,0.071296303,1,0,0,opkuimer,0,30,30,59,1
,,,,,55009,2023-07-31_13h39.06.007,vbt_B1_day4,2022.2.4,Win32,59.96282305,55009,,,,,,,,,,,,,,,,,,,,seizoon,images/br_seizoon.png,images/cb_seizoon.png,,seizoon,,,,,,,,,,,0.187037079,0.071296303,1,0,0,seizoon,0,31,31,33,1
,,,,,55009,2023-07-31_13h39.06.007,vbt_B1_day4,2022.2.4,Win32,59.96282305,55009,,,,,,,,,,,,,,,,,,,,sulbon,images/br_sulbon.png,images/cb_sulbon.png,,sulbon,,,,,,,,,,,0.187037079,0.071296303,1,0,0,sulbon,0,32,32,31,1
,,,,,55009,2023-07-31_13h39.06.007,vbt_B1_day4,2022.2.4,Win32,59.96282305,55009,,,,,,,,,,,,,,,,,,,,wozing,images/br_wozing.png,images/cb_wozing.png,,wozing,,,,,,,,,,,0.187037079,0.071296303,1,0,0,wozing,0,33,33,28,1
,,,,,55009,2023-07-31_13h39.06.007,vbt_B1_day4,2022.2.4,Win32,59.96282305,55009,,,,,,,,,,,,,,,,,,,,seizoen,images/br_seizoen.png,images/cb_seizoen.png,,seizoen,,,,,,,,,,,0.187037079,0.071296303,1,0,0,seizoen,0,34,34,13,1
,,,,,55009,2023-07-31_13h39.06.007,vbt_B1_day4,2022.2.4,Win32,59.96282305,55009,,,,,,,,,,,,,,,,,,,,pijnlijk,images/br_pijnlijk.png,images/cb_pijnlijk.png,,pijnlijk,,,,,,,,,,,0.187037079,0.071296303,1,0,0,pijnlijk,0,35,35,58,1
,,,,,55009,2023-07-31_13h39.06.007,vbt_B1_day4,2022.2.4,Win32,59.96282305,55009,,,,,,,,,,,,,,,,,,,,schenden,images/br_schenden.png,images/cb_schenden.png,,schenden,,,,,,,,,,,0.187037079,0.071296303,1,0,0,schenden,0,36,36,57,1
,,,,,55009,2023-07-31_13h39.06.007,vbt_B1_day4,2022.2.4,Win32,59.96282305,55009,,,,,,,,,,,,,,,,,,,,gaan,images/br_gaan.png,images/cb_gaan.png,,gaan,,,,,,,,,,,0.187037079,0.071296303,1,0,0,gaan,0,37,37,41,1
,,,,,55009,2023-07-31_13h39.06.007,vbt_B1_day4,2022.2.4,Win32,59.96282305,55009,,,,,,,,,,,,,,,,,,,,baron,images/br_baron.png,images/cb_baron.png,,baron,,,,,,,,,,,0.187037079,0.071296303,1,0,0,baron,0,38,38,5,1
,,,,,55009,2023-07-31_13h39.06.007,vbt_B1_day4,2022.2.4,Win32,59.96282305,55009,,,,,,,,,,,,,,,,,,,,stemming,images/br_stemming.png,images/cb_stemming.png,,stemming,,,,,,,,,,,0.187037079,0.071296303,1,0,0,stemming,0,39,39,18,1
,,,,,55009,2023-07-31_13h39.06.007,vbt_B1_day4,2022.2.4,Win32,59.96282305,55009,,,,,,,,,,,,,,,,,,,,bisschap,images/br_bisschap.png,images/cb_bisschap.png,,bisschop,,,,,,,,,,,0.187037079,0.071296303,1,0,0,bisschop,0,40,40,36,1
,,,,,55009,2023-07-31_13h39.06.007,vbt_B1_day4,2022.2.4,Win32,59.96282305,55009,,,,,,,,,,,,,,,,,,,,tucket,images/br_tucket.png,images/cb_tucket.png,,sucken,,,,,,,,,,,0.187037079,0.071296303,1,0,0,sucken,0,41,41,30,1
,,,,,55009,2023-07-31_13h39.06.007,vbt_B1_day4,2022.2.4,Win32,59.96282305,55009,,,,,,,,,,,,,,,,,,,,bruin,images/br_bruin.png,images/cb_bruin.png,,bruin,,,,,,,,,,,0.187037079,0.071296303,1,0,0,bruin,0,42,42,45,1
,,,,,55009,2023-07-31_13h39.06.007,vbt_B1_day4,2022.2.4,Win32,59.96282305,55009,,,,,,,,,,,,,,,,,,,,gijf,images/br_gijf.png,images/cb_gijf.png,,gijf,,,,,,,,,,,0.187037079,0.071296303,1,0,0,gijf,0,43,43,23,1
,,,,,55009,2023-07-31_13h39.06.007,vbt_B1_day4,2022.2.4,Win32,59.96282305,55009,,,,,,,,,,,,,,,,,,,,paalbaak,images/br_paalbaak.png,images/cb_paalbaak.png,,paalbaa.,,,,,,,,,,,0.187037079,0.071296303,1,0,0,paalbaa.,0,44,44,39,1
,,,,,55009,2023-07-31_13h39.06.007,vbt_B1_day4,2022.2.4,Win32,59.96282305,55009,,,,,,,,,,,,,,,,,,,,gaaf,images/br_gaaf.png,images/cb_gaaf.png,,gaaf,,,,,,,,,,,0.187037079,0.071296303,1,0,0,gaaf,0,45,45,43,1
,,,,,55009,2023-07-31_13h39.06.007,vbt_B1_day4,2022.2.4,Win32,59.96282305,55009,,,,,,,,,,,,,,,,,,,,warel,images/br_warel.png,images/cb_warel.png,,warel,,,,,,,,,,,0.187037079,0.071296303,1,0,0,warel,0,46,46,26,1
,,,,,55009,2023-07-31_13h39.06.007,vbt_B1_day4,2022.2.4,Win32,59.96282305,55009,,,,,,,,,,,,,,,,,,,,pittig,images/br_pittig.png,images/cb_pittig.png,,pittig,,,,,,,,,,,0.187037079,0.071296303,1,0,0,pittig,0,47,47,51,1
,,,,,55009,2023-07-31_13h39.06.007,vbt_B1_day4,2022.2.4,Win32,59.96282305,55009,,,,,,,,,,,,,,,,,,,,noodzaak,images/br_noodzaak.png,images/cb_noodzaak.png,,noodzaak,,,,,,,,,,,0.187037079,0.071296303,1,0,0,noodzaak,0,48,48,56,1
,,,,,55009,2023-07-31_13h39.06.007,vbt_B1_day4,2022.2.4,Win32,59.96282305,55009,,,,,,,,,,,,,,,,,,,,opkicht,images/br_opkicht.png,images/cb_opkicht.png,,opkicht,,,,,,,,,,,0.187037079,0.071296303,1,0,0,opkicht,0,49,49,34,1
,,,,,55009,2023-07-31_13h39.06.007,vbt_B1_day4,2022.2.4,Win32,59.96282305,55009,,,,,,,,,,,,,,,,,,,,schotel,images/br_schotel.png,images/cb_schotel.png,,schotel,,,,,,,,,,,0.187037079,0.071296303,1,0,0,schotel,0,50,50,52,1
,,,,,55009,2023-07-31_13h39.06.007,vbt_B1_day4,2022.2.4,Win32,59.96282305,55009,,,,,,,,,,,,,,,,,,,,eerst,images/br_eerst.png,images/cb_eerst.png,,eerst,,,,,,,,,,,0.158333319,-0.066666674,1,0,0,eerst,0,51,51,47,1
,,,,,55009,2023-07-31_13h39.06.007,vbt_B1_day4,2022.2.4,Win32,59.96282305,55009,,,,,,,,,,,,,,,,,,,,zaalrijk,images/br_zaalrijk.png,images/cb_zaalrijk.png,,zaalrijk,,,,,,,,,,,0.158333319,-0.066666674,1,0,0,zaalrijk,0,52,52,37,1
,,,,,55009,2023-07-31_13h39.06.007,vbt_B1_day4,2022.2.4,Win32,59.96282305,55009,,,,,,,,,,,,,,,,,,,,kaal,images/br_kaal.png,images/cb_kaal.png,,kaal,,,,,,,,,,,0.158333319,-0.066666674,1,0,0,kaal,0,53,53,1,1
,,,,,55009,2023-07-31_13h39.06.007,vbt_B1_day4,2022.2.4,Win32,59.96282305,55009,,,,,,,,,,,,,,,,,,,,praat,images/br_praat.png,images/cb_praat.png,,praat,,,,,,,,,,,0.158333319,-0.066666674,1,0,0,praat,0,54,54,7,1
,,,,,55009,2023-07-31_13h39.06.007,vbt_B1_day4,2022.2.4,Win32,59.96282305,55009,,,,,,,,,,,,,,,,,,,,gebit,images/br_gebit.png,images/cb_gebit.png,,gebit,,,,,,,,,,,0.158333319,-0.066666674,1,0,0,gebit,0,55,55,6,1
,,,,,55009,2023-07-31_13h39.06.007,vbt_B1_day4,2022.2.4,Win32,59.96282305,55009,,,,,,,,,,,,,,,,,,,,gebog,images/br_gebog.png,images/cb_gebog.png,,gebog,,,,,,,,,,,0.158333319,-0.066666674,1,0,0,gebog,0,56,56,24,1
,,,,,55009,2023-07-31_13h39.06.007,vbt_B1_day4,2022.2.4,Win32,59.96282305,55009,,,,,,,,,,,,,,,,,,,,rijp,images/br_rijp.png,images/cb_rijp.png,,rijp,,,,,,,,,,,0.158333319,-0.066666674,1,0,0,rijp,0,57,57,2,1
,,,,,55009,2023-07-31_13h39.06.007,vbt_B1_day4,2022.2.4,Win32,59.96282305,55009,,,,,,,,,,,,,,,,,,,,vreten,images/br_vreten.png,images/cb_vreten.png,,vreten,,,,,,,,,,,0.158333319,-0.066666674,1,0,0,vreten,0,58,58,11,1
,,,,,55009,2023-07-31_13h39.06.007,vbt_B1_day4,2022.2.4,Win32,59.96282305,55009,,,,,,,,,,,,,,,,,,,,grappen,images/br_grappen.png,images/cb_grappen.png,,grappen,,,,,,,,,,,0.158333319,-0.066666674,1,0,0,grappen,0,59,59,12,1
,,,,,55009,2023-07-31_13h39.06.007,vbt_B1_day4,2022.2.4,Win32,59.96282305,55009,,,,,,,,,,,,,,,,,,,,,,,,,,,,,,,,,,,,,,,,,,,,,
