welcome_mouse.x,welcome_mouse.y,welcome_mouse.leftButton,welcome_mouse.midButton,welcome_mouse.rightButton,"ID",date,expName,psychopyVersion,OS,frameRate,trainInstr_mouse.x,trainInstr_mouse.y,trainInstr_mouse.leftButton,trainInstr_mouse.midButton,trainInstr_mouse.rightButton,translation_key.keys,translation_key.corr,translation_key.rt,word_rsp.text,trWrd_mouse.x,trWrd_mouse.y,trWrd_mouse.leftButton,trWrd_mouse.midButton,trWrd_mouse.rightButton,train_loop.thisRepN,train_loop.thisTrialN,train_loop.thisN,train_loop.thisIndex,train_loop.ran,nlWrd,brWrd,cbWrd,test,testResp,mouse.x,mouse.y,mouse.leftButton,mouse.midButton,mouse.rightButton,testInstr_mouse.x,testInstr_mouse.y,testInstr_mouse.leftButton,testInstr_mouse.midButton,testInstr_mouse.rightButton,test_mouse.x,test_mouse.y,test_mouse.leftButton,test_mouse.midButton,test_mouse.rightButton,test_response.text,test_loop.thisRepN,test_loop.thisTrialN,test_loop.thisN,test_loop.thisIndex,test_loop.ran
-0.163888861,-0.237963005,1,0,0,00084,2023-10-25_18h10.03.366,vbt_B1_day4,2022.2.4,Win32,59.79073244,,,,,,,,,,,,,,,,,,,,,,,,,,,,,,,,,,,,,,,,,,,,,
,,,,,00084,2023-10-25_18h10.03.366,vbt_B1_day4,2022.2.4,Win32,59.79073244,-0.163888861,-0.237963005,1,0,0,,,,,,,,,,,,,,,,,,,,,,,,,,,,,,,,,,,,,,,,
,,,,,00084,2023-10-25_18h10.03.366,vbt_B1_day4,2022.2.4,Win32,59.79073244,,,,,,down,0,0.0815,,0.287037037,-0.0074074,1,0,0,0,0,0,89,1,slapen,images/br_slapen.png,images/cb_slapen.png,0,,,,,,,,,,,,,,,,,,,,,,
,,,,,00084,2023-10-25_18h10.03.366,vbt_B1_day4,2022.2.4,Win32,59.79073244,,,,,,down,0,0.3745,,0.287037037,-0.0074074,1,0,0,0,1,1,18,1,blik,images/br_blik.png,images/cb_blik.png,0,,,,,,,,,,,,,,,,,,,,,,
,,,,,00084,2023-10-25_18h10.03.366,vbt_B1_day4,2022.2.4,Win32,59.79073244,,,,,,down,0,0.9186,,0.287037037,-0.0074074,1,0,0,0,2,2,79,1,nodig,images/br_nodig.png,images/cb_nodig.png,0,,,,,,,,,,,,,,,,,,,,,,
,,,,,00084,2023-10-25_18h10.03.366,vbt_B1_day4,2022.2.4,Win32,59.79073244,,,,,,down,0,1.3247,,0.562037009,0.197222215,1,0,0,0,3,3,193,1,weeshuis,images/br_weeshuis.png,images/cb_weeshuis.png,0,,,,,,,,,,,,,,,,,,,,,,
,,,,,00084,2023-10-25_18h10.03.366,vbt_B1_day4,2022.2.4,Win32,59.79073244,,,,,,down,0,5.21,,0.562037009,0.197222215,1,0,0,0,4,4,113,1,koppen,images/br_koppen.png,images/cb_koppen.png,0,,,,,,,,,,,,,,,,,,,,,,
,,,,,00084,2023-10-25_18h10.03.366,vbt_B1_day4,2022.2.4,Win32,59.79073244,,,,,,down,0,13.1762,,0.562037009,0.197222215,1,0,0,0,5,5,25,1,plek,images/br_plek.png,images/cb_plek.png,1,plek,,,,,,,,,,,,,,,,,,,,,
,,,,,00084,2023-10-25_18h10.03.366,vbt_B1_day4,2022.2.4,Win32,59.79073244,,,,,,down,0,11.3151,,0.562037009,0.197222215,1,0,0,0,6,6,184,1,aandelen,images/br_aandelen.png,images/cb_aandelen.png,1,aandelen,,,,,,,,,,,,,,,,,,,,,
,,,,,00084,2023-10-25_18h10.03.366,vbt_B1_day4,2022.2.4,Win32,59.79073244,,,,,,down,0,10.3068,,0.562037009,0.197222215,1,0,0,0,7,7,194,1,driemaal,images/br_driemaal.png,images/cb_driemaal.png,0,,,,,,,,,,,,,,,,,,,,,,
,,,,,00084,2023-10-25_18h10.03.366,vbt_B1_day4,2022.2.4,Win32,59.79073244,,,,,,down,0,5.0247,,0.562037009,0.197222215,1,0,0,0,8,8,60,1,jasje,images/br_jasje.png,images/cb_jasje.png,0,,,,,,,,,,,,,,,,,,,,,,
,,,,,00084,2023-10-25_18h10.03.366,vbt_B1_day4,2022.2.4,Win32,59.79073244,,,,,,down,0,1.5682,,0.562037009,0.197222215,1,0,0,0,9,9,163,1,schuilen,images/br_schuilen.png,images/cb_schuilen.png,0,,,,,,,,,,,,,,,,,,,,,,
,,,,,00084,2023-10-25_18h10.03.366,vbt_B1_day4,2022.2.4,Win32,59.79073244,,,,,,down,0,3.8729,,0.562037009,0.197222215,1,0,0,0,10,10,115,1,kleren,images/br_kleren.png,images/cb_kleren.png,0,,,,,,,,,,,,,,,,,,,,,,
,,,,,00084,2023-10-25_18h10.03.366,vbt_B1_day4,2022.2.4,Win32,59.79073244,,,,,,down,0,3.4348,,0.562037009,0.197222215,1,0,0,0,11,11,82,1,muziek,images/br_muziek.png,images/cb_muziek.png,0,,,,,,,,,,,,,,,,,,,,,,
,,,,,00084,2023-10-25_18h10.03.366,vbt_B1_day4,2022.2.4,Win32,59.79073244,,,,,,down,0,6.7538,,0.562037009,0.197222215,1,0,0,0,12,12,35,1,lust,images/br_lust.png,images/cb_lust.png,0,,,,,,,,,,,,,,,,,,,,,,
,,,,,00084,2023-10-25_18h10.03.366,vbt_B1_day4,2022.2.4,Win32,59.79073244,,,,,,down,0,7.1589,,0.562037009,0.197222215,1,0,0,0,13,13,158,1,innemen,images/br_innemen.png,images/cb_innemen.png,0,,,,,,,,,,,,,,,,,,,,,,
,,,,,00084,2023-10-25_18h10.03.366,vbt_B1_day4,2022.2.4,Win32,59.79073244,,,,,,down,0,19.3267,,0.562037009,0.197222215,1,0,0,0,14,14,167,1,eenhoorn,images/br_eenhoorn.png,images/cb_eenhoorn.png,0,,,,,,,,,,,,,,,,,,,,,,
,,,,,00084,2023-10-25_18h10.03.366,vbt_B1_day4,2022.2.4,Win32,59.79073244,,,,,,down,0,4.653,,0.562037009,0.197222215,1,0,0,0,15,15,175,1,heengaan,images/br_heengaan.png,images/cb_heengaan.png,0,,,,,,,,,,,,,,,,,,,,,,
,,,,,00084,2023-10-25_18h10.03.366,vbt_B1_day4,2022.2.4,Win32,59.79073244,,,,,,down,0,16.4411,,0.562037009,0.197222215,1,0,0,0,16,16,104,1,zweven,images/br_zweven.png,images/cb_zweven.png,1,zweven,,,,,,,,,,,,,,,,,,,,,
,,,,,00084,2023-10-25_18h10.03.366,vbt_B1_day4,2022.2.4,Win32,59.79073244,,,,,,down,0,0.4501,,0.562037009,0.197222215,1,0,0,0,17,17,36,1,vuur,images/br_vuur.png,images/cb_vuur.png,0,,,,,,,,,,,,,,,,,,,,,,
,,,,,00084,2023-10-25_18h10.03.366,vbt_B1_day4,2022.2.4,Win32,59.79073244,,,,,,down,0,2.807,,0.562037009,0.197222215,1,0,0,0,18,18,42,1,bleek,images/br_bleek.png,images/cb_bleek.png,0,,,,,,,,,,,,,,,,,,,,,,
,,,,,00084,2023-10-25_18h10.03.366,vbt_B1_day4,2022.2.4,Win32,59.79073244,,,,,,down,0,10.1746,,0.562037009,0.197222215,1,0,0,0,19,19,47,1,kabel,images/br_kabel.png,images/cb_kabel.png,0,,,,,,,,,,,,,,,,,,,,,,
,,,,,00084,2023-10-25_18h10.03.366,vbt_B1_day4,2022.2.4,Win32,59.79073244,,,,,,down,0,3.5028,,0.562037009,0.197222215,1,0,0,0,20,20,132,1,grappen,images/br_grappen.png,images/cb_grappen.png,0,,,,,,,,,,,,,,,,,,,,,,
,,,,,00084,2023-10-25_18h10.03.366,vbt_B1_day4,2022.2.4,Win32,59.79073244,,,,,,down,0,8.7212,,0.562037009,0.197222215,1,0,0,0,21,21,187,1,opkijken,images/br_opkijken.png,images/cb_opkijken.png,1,opkijken,,,,,,,,,,,,,,,,,,,,,
,,,,,00084,2023-10-25_18h10.03.366,vbt_B1_day4,2022.2.4,Win32,59.79073244,,,,,,down,0,8.2652,,0.562037009,0.197222215,1,0,0,0,22,22,105,1,wijlen,images/br_wijlen.png,images/cb_wijlen.png,1,wijlen,,,,,,,,,,,,,,,,,,,,,
,,,,,00084,2023-10-25_18h10.03.366,vbt_B1_day4,2022.2.4,Win32,59.79073244,,,,,,down,0,0.4742,,0.562037009,0.197222215,1,0,0,0,23,23,171,1,aarzelen,images/br_aarzelen.png,images/cb_aarzelen.png,0,,,,,,,,,,,,,,,,,,,,,,
,,,,,00084,2023-10-25_18h10.03.366,vbt_B1_day4,2022.2.4,Win32,59.79073244,,,,,,down,0,0.4425,,0.562037009,0.197222215,1,0,0,0,24,24,59,1,kring,images/br_kring.png,images/cb_kring.png,0,,,,,,,,,,,,,,,,,,,,,,
,,,,,00084,2023-10-25_18h10.03.366,vbt_B1_day4,2022.2.4,Win32,59.79073244,,,,,,down,0,5.903,,0.562037009,0.197222215,1,0,0,0,25,25,81,1,dubbel,images/br_dubbel.png,images/cb_dubbel.png,0,,,,,,,,,,,,,,,,,,,,,,
,,,,,00084,2023-10-25_18h10.03.366,vbt_B1_day4,2022.2.4,Win32,59.79073244,,,,,,down,0,3.0786,,0.562037009,0.197222215,1,0,0,0,26,26,117,1,kennis,images/br_kennis.png,images/cb_kennis.png,0,,,,,,,,,,,,,,,,,,,,,,
,,,,,00084,2023-10-25_18h10.03.366,vbt_B1_day4,2022.2.4,Win32,59.79073244,,,,,,down,0,1.1933,,0.562037009,0.197222215,1,0,0,0,27,27,190,1,goedkoop,images/br_goedkoop.png,images/cb_goedkoop.png,0,,,,,,,,,,,,,,,,,,,,,,
,,,,,00084,2023-10-25_18h10.03.366,vbt_B1_day4,2022.2.4,Win32,59.79073244,,,,,,down,0,7.6059,,0.562037009,0.197222215,1,0,0,0,28,28,63,1,flirt,images/br_flirt.png,images/cb_flirt.png,0,,,,,,,,,,,,,,,,,,,,,,
,,,,,00084,2023-10-25_18h10.03.366,vbt_B1_day4,2022.2.4,Win32,59.79073244,,,,,,down,0,3.4914,,0.562037009,0.197222215,1,0,0,0,29,29,120,1,klimmen,images/br_klimmen.png,images/cb_klimmen.png,0,,,,,,,,,,,,,,,,,,,,,,
,,,,,00084,2023-10-25_18h10.03.366,vbt_B1_day4,2022.2.4,Win32,59.79073244,,,,,,down,0,11.2277,,0.562037009,0.197222215,1,0,0,0,30,30,98,1,kreeft,images/br_kreeft.png,images/cb_kreeft.png,0,,,,,,,,,,,,,,,,,,,,,,
,,,,,00084,2023-10-25_18h10.03.366,vbt_B1_day4,2022.2.4,Win32,59.79073244,,,,,,down,0,1.935,,0.562037009,0.197222215,1,0,0,0,31,31,29,1,baas,images/br_baas.png,images/cb_baas.png,0,,,,,,,,,,,,,,,,,,,,,,
,,,,,00084,2023-10-25_18h10.03.366,vbt_B1_day4,2022.2.4,Win32,59.79073244,,,,,,down,0,5.0873,,0.562037009,0.197222215,1,0,0,0,32,32,22,1,stof,images/br_stof.png,images/cb_stof.png,0,,,,,,,,,,,,,,,,,,,,,,
,,,,,00084,2023-10-25_18h10.03.366,vbt_B1_day4,2022.2.4,Win32,59.79073244,,,,,,down,0,2.3575,,0.562037009,0.197222215,1,0,0,0,33,33,162,1,uitdelen,images/br_uitdelen.png,images/cb_uitdelen.png,0,,,,,,,,,,,,,,,,,,,,,,
,,,,,00084,2023-10-25_18h10.03.366,vbt_B1_day4,2022.2.4,Win32,59.79073244,,,,,,down,0,11.724,,0.562037009,0.197222215,1,0,0,0,34,34,27,1,dans,images/br_dans.png,images/cb_dans.png,1,dans,,,,,,,,,,,,,,,,,,,,,
,,,,,00084,2023-10-25_18h10.03.366,vbt_B1_day4,2022.2.4,Win32,59.79073244,,,,,,down,0,3.2265,,0.562037009,0.197222215,1,0,0,0,35,35,188,1,strekken,images/br_strekken.png,images/cb_strekken.png,0,,,,,,,,,,,,,,,,,,,,,,
,,,,,00084,2023-10-25_18h10.03.366,vbt_B1_day4,2022.2.4,Win32,59.79073244,,,,,,down,0,4.0324,,0.562037009,0.197222215,1,0,0,0,36,36,0,1,slak,images/br_slak.png,images/cb_slak.png,0,,,,,,,,,,,,,,,,,,,,,,
,,,,,00084,2023-10-25_18h10.03.366,vbt_B1_day4,2022.2.4,Win32,59.79073244,,,,,,down,0,3.8586,,0.562037009,0.197222215,1,0,0,0,37,37,77,1,woede,images/br_woede.png,images/cb_woede.png,0,,,,,,,,,,,,,,,,,,,,,,
,,,,,00084,2023-10-25_18h10.03.366,vbt_B1_day4,2022.2.4,Win32,59.79073244,,,,,,down,0,12.3717,,0.562037009,0.197222215,1,0,0,0,38,38,106,1,zingen,images/br_zingen.png,images/cb_zingen.png,1,zingen,,,,,,,,,,,,,,,,,,,,,
,,,,,00084,2023-10-25_18h10.03.366,vbt_B1_day4,2022.2.4,Win32,59.79073244,,,,,,down,0,0.4336,,0.562037009,0.197222215,1,0,0,0,39,39,112,1,lukken,images/br_lukken.png,images/cb_lukken.png,0,,,,,,,,,,,,,,,,,,,,,,
,,,,,00084,2023-10-25_18h10.03.366,vbt_B1_day4,2022.2.4,Win32,59.79073244,,,,,,down,0,14.3136,,0.562037009,0.197222215,1,0,0,0,40,40,183,1,getuigen,images/br_getuigen.png,images/cb_getuigen.png,0,,,,,,,,,,,,,,,,,,,,,,
,,,,,00084,2023-10-25_18h10.03.366,vbt_B1_day4,2022.2.4,Win32,59.79073244,,,,,,down,0,14.0829,,0.562037009,0.197222215,1,0,0,0,41,41,127,1,doodmoe,images/br_doodmoe.png,images/cb_doodmoe.png,0,,,,,,,,,,,,,,,,,,,,,,
,,,,,00084,2023-10-25_18h10.03.366,vbt_B1_day4,2022.2.4,Win32,59.79073244,,,,,,down,0,9.5051,,0.562037009,0.197222215,1,0,0,0,42,42,155,1,gerucht,images/br_gerucht.png,images/cb_gerucht.png,0,,,,,,,,,,,,,,,,,,,,,,
,,,,,00084,2023-10-25_18h10.03.366,vbt_B1_day4,2022.2.4,Win32,59.79073244,,,,,,down,0,5.2419,,0.562037009,0.197222215,1,0,0,0,43,43,72,1,strak,images/br_strak.png,images/cb_strak.png,0,,,,,,,,,,,,,,,,,,,,,,
,,,,,00084,2023-10-25_18h10.03.366,vbt_B1_day4,2022.2.4,Win32,59.79073244,,,,,,down,0,1.0025,,0.562037009,0.197222215,1,0,0,0,44,44,101,1,staren,images/br_staren.png,images/cb_staren.png,0,,,,,,,,,,,,,,,,,,,,,,
,,,,,00084,2023-10-25_18h10.03.366,vbt_B1_day4,2022.2.4,Win32,59.79073244,,,,,,down,0,16.3485,,0.562037009,0.197222215,1,0,0,0,45,45,5,1,blad,images/br_blad.png,images/cb_blad.png,0,,,,,,,,,,,,,,,,,,,,,,
,,,,,00084,2023-10-25_18h10.03.366,vbt_B1_day4,2022.2.4,Win32,59.79073244,,,,,,down,0,10.4083,,0.562037009,0.197222215,1,0,0,0,46,46,146,1,opkomen,images/br_opkomen.png,images/cb_opkomen.png,1,opkomen,,,,,,,,,,,,,,,,,,,,,
,,,,,00084,2023-10-25_18h10.03.366,vbt_B1_day4,2022.2.4,Win32,59.79073244,,,,,,down,0,11.9897,,0.562037009,0.197222215,1,0,0,0,47,47,80,1,kanjer,images/br_kanjer.png,images/cb_kanjer.png,0,,,,,,,,,,,,,,,,,,,,,,
,,,,,00084,2023-10-25_18h10.03.366,vbt_B1_day4,2022.2.4,Win32,59.79073244,,,,,,down,0,3.8853,,0.562037009,0.197222215,1,0,0,0,48,48,39,1,laag,images/br_laag.png,images/cb_laag.png,0,,,,,,,,,,,,,,,,,,,,,,
,,,,,00084,2023-10-25_18h10.03.366,vbt_B1_day4,2022.2.4,Win32,59.79073244,,,,,,down,0,4.6024,,0.562037009,0.197222215,1,0,0,0,49,49,32,1,palm,images/br_palm.png,images/cb_palm.png,0,,,,,,,,,,,,,,,,,,,,,,
,,,,,00084,2023-10-25_18h10.03.366,vbt_B1_day4,2022.2.4,Win32,59.79073244,,,,,,down,0,4.7186,,0.562037009,0.197222215,1,0,0,0,50,50,12,1,kust,images/br_kust.png,images/cb_kust.png,0,,,,,,,,,,,,,,,,,,,,,,
,,,,,00084,2023-10-25_18h10.03.366,vbt_B1_day4,2022.2.4,Win32,59.79073244,,,,,,down,0,0.8284,,0.562037009,0.197222215,1,0,0,0,51,51,20,1,site,images/br_site.png,images/cb_site.png,0,,,,,,,,,,,,,,,,,,,,,,
,,,,,00084,2023-10-25_18h10.03.366,vbt_B1_day4,2022.2.4,Win32,59.79073244,,,,,,down,0,3.9354,,0.562037009,0.197222215,1,0,0,0,52,52,196,1,nakijken,images/br_nakijken.png,images/cb_nakijken.png,0,,,,,,,,,,,,,,,,,,,,,,
,,,,,00084,2023-10-25_18h10.03.366,vbt_B1_day4,2022.2.4,Win32,59.79073244,,,,,,down,0,3.6035,,0.562037009,0.197222215,1,0,0,0,53,53,11,1,mode,images/br_mode.png,images/cb_mode.png,0,,,,,,,,,,,,,,,,,,,,,,
,,,,,00084,2023-10-25_18h10.03.366,vbt_B1_day4,2022.2.4,Win32,59.79073244,,,,,,down,0,2.2019,,0.562037009,0.197222215,1,0,0,0,54,54,134,1,geliefd,images/br_geliefd.png,images/cb_geliefd.png,0,,,,,,,,,,,,,,,,,,,,,,
,,,,,00084,2023-10-25_18h10.03.366,vbt_B1_day4,2022.2.4,Win32,59.79073244,,,,,,down,0,3.8362,,0.562037009,0.197222215,1,0,0,0,55,55,3,1,mand,images/br_mand.png,images/cb_mand.png,0,,,,,,,,,,,,,,,,,,,,,,
,,,,,00084,2023-10-25_18h10.03.366,vbt_B1_day4,2022.2.4,Win32,59.79073244,,,,,,down,0,1.1336,,0.562037009,0.197222215,1,0,0,0,56,56,141,1,knielen,images/br_knielen.png,images/cb_knielen.png,0,,,,,,,,,,,,,,,,,,,,,,
,,,,,00084,2023-10-25_18h10.03.366,vbt_B1_day4,2022.2.4,Win32,59.79073244,,,,,,down,0,5.5247,,0.562037009,0.197222215,1,0,0,0,57,57,189,1,aanraden,images/br_aanraden.png,images/cb_aanraden.png,0,,,,,,,,,,,,,,,,,,,,,,
,,,,,00084,2023-10-25_18h10.03.366,vbt_B1_day4,2022.2.4,Win32,59.79073244,,,,,,down,0,1.7657,,0.562037009,0.197222215,1,0,0,0,58,58,49,1,laken,images/br_laken.png,images/cb_laken.png,0,,,,,,,,,,,,,,,,,,,,,,
,,,,,00084,2023-10-25_18h10.03.366,vbt_B1_day4,2022.2.4,Win32,59.79073244,,,,,,down,0,0.319,,0.562037009,0.197222215,1,0,0,0,59,59,165,1,feestdag,images/br_feestdag.png,images/cb_feestdag.png,0,,,,,,,,,,,,,,,,,,,,,,
,,,,,00084,2023-10-25_18h10.03.366,vbt_B1_day4,2022.2.4,Win32,59.79073244,,,,,,down,0,1.2855,,0.562037009,0.197222215,1,0,0,0,60,60,129,1,verhaal,images/br_verhaal.png,images/cb_verhaal.png,0,,,,,,,,,,,,,,,,,,,,,,
,,,,,00084,2023-10-25_18h10.03.366,vbt_B1_day4,2022.2.4,Win32,59.79073244,,,,,,down,0,1.9592,,0.562037009,0.197222215,1,0,0,0,61,61,176,1,techniek,images/br_techniek.png,images/cb_techniek.png,0,,,,,,,,,,,,,,,,,,,,,,
,,,,,00084,2023-10-25_18h10.03.366,vbt_B1_day4,2022.2.4,Win32,59.79073244,,,,,,down,0,0.3427,,0.562037009,0.197222215,1,0,0,0,62,62,86,1,woning,images/br_woning.png,images/cb_woning.png,0,,,,,,,,,,,,,,,,,,,,,,
,,,,,00084,2023-10-25_18h10.03.366,vbt_B1_day4,2022.2.4,Win32,59.79073244,,,,,,down,0,2.4789,,0.562037009,0.197222215,1,0,0,0,63,63,137,1,trekker,images/br_trekker.png,images/cb_trekker.png,0,,,,,,,,,,,,,,,,,,,,,,
,,,,,00084,2023-10-25_18h10.03.366,vbt_B1_day4,2022.2.4,Win32,59.79073244,,,,,,down,0,6.3703,,0.562037009,0.197222215,1,0,0,0,64,64,46,1,jagen,images/br_jagen.png,images/cb_jagen.png,0,,,,,,,,,,,,,,,,,,,,,,
,,,,,00084,2023-10-25_18h10.03.366,vbt_B1_day4,2022.2.4,Win32,59.79073244,,,,,,down,0,6.1118,,0.562037009,0.197222215,1,0,0,0,65,65,191,1,opheffen,images/br_opheffen.png,images/cb_opheffen.png,0,,,,,,,,,,,,,,,,,,,,,,
,,,,,00084,2023-10-25_18h10.03.366,vbt_B1_day4,2022.2.4,Win32,59.79073244,,,,,,down,0,9.5376,,0.562037009,0.197222215,1,0,0,0,66,66,182,1,bijkomen,images/br_bijkomen.png,images/cb_bijkomen.png,0,,,,,,,,,,,,,,,,,,,,,,
,,,,,00084,2023-10-25_18h10.03.366,vbt_B1_day4,2022.2.4,Win32,59.79073244,,,,,,down,0,5.6634,,0.562037009,0.197222215,1,0,0,0,67,67,121,1,twijfel,images/br_twijfel.png,images/cb_twijfel.png,0,,,,,,,,,,,,,,,,,,,,,,
,,,,,00084,2023-10-25_18h10.03.366,vbt_B1_day4,2022.2.4,Win32,59.79073244,,,,,,down,0,7.0914,,0.562037009,0.197222215,1,0,0,0,68,68,93,1,waarop,images/br_waarop.png,images/cb_waarop.png,0,,,,,,,,,,,,,,,,,,,,,,
,,,,,00084,2023-10-25_18h10.03.366,vbt_B1_day4,2022.2.4,Win32,59.79073244,,,,,,down,0,3.101,,0.562037009,0.197222215,1,0,0,0,69,69,140,1,blijven,images/br_blijven.png,images/cb_blijven.png,0,,,,,,,,,,,,,,,,,,,,,,
,,,,,00084,2023-10-25_18h10.03.366,vbt_B1_day4,2022.2.4,Win32,59.79073244,,,,,,down,0,2.6385,,0.562037009,0.197222215,1,0,0,0,70,70,170,1,schatten,images/br_schatten.png,images/cb_schatten.png,0,,,,,,,,,,,,,,,,,,,,,,
,,,,,00084,2023-10-25_18h10.03.366,vbt_B1_day4,2022.2.4,Win32,59.79073244,,,,,,down,0,11.8084,,0.562037009,0.197222215,1,0,0,0,71,71,138,1,akkoord,images/br_akkoord.png,images/cb_akkoord.png,0,,,,,,,,,,,,,,,,,,,,,,
,,,,,00084,2023-10-25_18h10.03.366,vbt_B1_day4,2022.2.4,Win32,59.79073244,,,,,,down,0,0.2537,,0.562037009,0.197222215,1,0,0,0,72,72,58,1,tekst,images/br_tekst.png,images/cb_tekst.png,0,,,,,,,,,,,,,,,,,,,,,,
,,,,,00084,2023-10-25_18h10.03.366,vbt_B1_day4,2022.2.4,Win32,59.79073244,,,,,,down,0,1.9099,,0.562037009,0.197222215,1,0,0,0,73,73,164,1,anarchie,images/br_anarchie.png,images/cb_anarchie.png,0,,,,,,,,,,,,,,,,,,,,,,
,,,,,00084,2023-10-25_18h10.03.366,vbt_B1_day4,2022.2.4,Win32,59.79073244,,,,,,down,0,2.0841,,0.562037009,0.197222215,1,0,0,0,74,74,53,1,baron,images/br_baron.png,images/cb_baron.png,0,,,,,,,,,,,,,,,,,,,,,,
,,,,,00084,2023-10-25_18h10.03.366,vbt_B1_day4,2022.2.4,Win32,59.79073244,,,,,,down,0,3.2027,,0.562037009,0.197222215,1,0,0,0,75,75,198,1,bedoelen,images/br_bedoelen.png,images/cb_bedoelen.png,0,,,,,,,,,,,,,,,,,,,,,,
,,,,,00084,2023-10-25_18h10.03.366,vbt_B1_day4,2022.2.4,Win32,59.79073244,,,,,,down,0,1.3182,,0.562037009,0.197222215,1,0,0,0,76,76,4,1,moes,images/br_moes.png,images/cb_moes.png,0,,,,,,,,,,,,,,,,,,,,,,
,,,,,00084,2023-10-25_18h10.03.366,vbt_B1_day4,2022.2.4,Win32,59.79073244,,,,,,down,0,1.5213,,0.562037009,0.197222215,1,0,0,0,77,77,166,1,strikken,images/br_strikken.png,images/cb_strikken.png,0,,,,,,,,,,,,,,,,,,,,,,
,,,,,00084,2023-10-25_18h10.03.366,vbt_B1_day4,2022.2.4,Win32,59.79073244,,,,,,down,0,0.71,,0.518518519,0.164814808,1,0,0,0,78,78,92,1,geheim,images/br_geheim.png,images/cb_geheim.png,0,,,,,,,,,,,,,,,,,,,,,,
,,,,,00084,2023-10-25_18h10.03.366,vbt_B1_day4,2022.2.4,Win32,59.79073244,,,,,,down,0,5.0033,,0.518518519,0.164814808,1,0,0,0,79,79,161,1,attentie,images/br_attentie.png,images/cb_attentie.png,0,,,,,,,,,,,,,,,,,,,,,,
,,,,,00084,2023-10-25_18h10.03.366,vbt_B1_day4,2022.2.4,Win32,59.79073244,,,,,,down,0,32.7038,,0.518518519,0.164814808,1,0,0,0,80,80,147,1,komisch,images/br_komisch.png,images/cb_komisch.png,1,komisch,,,,,,,,,,,,,,,,,,,,,
,,,,,00084,2023-10-25_18h10.03.366,vbt_B1_day4,2022.2.4,Win32,59.79073244,,,,,,down,0,0.9503,,0.518518519,0.164814808,1,0,0,0,81,81,136,1,waarbij,images/br_waarbij.png,images/cb_waarbij.png,0,,,,,,,,,,,,,,,,,,,,,,
,,,,,00084,2023-10-25_18h10.03.366,vbt_B1_day4,2022.2.4,Win32,59.79073244,,,,,,down,0,0.4675,,0.518518519,0.164814808,1,0,0,0,82,82,197,1,spanning,images/br_spanning.png,images/cb_spanning.png,0,,,,,,,,,,,,,,,,,,,,,,
,,,,,00084,2023-10-25_18h10.03.366,vbt_B1_day4,2022.2.4,Win32,59.79073244,,,,,,down,0,0.6018,,0.518518519,0.164814808,1,0,0,0,83,83,110,1,zuster,images/br_zuster.png,images/cb_zuster.png,0,,,,,,,,,,,,,,,,,,,,,,
,,,,,00084,2023-10-25_18h10.03.366,vbt_B1_day4,2022.2.4,Win32,59.79073244,,,,,,down,0,1.2872,,0.518518519,0.164814808,1,0,0,0,84,84,119,1,liefje,images/br_liefje.png,images/cb_liefje.png,0,,,,,,,,,,,,,,,,,,,,,,
,,,,,00084,2023-10-25_18h10.03.366,vbt_B1_day4,2022.2.4,Win32,59.79073244,,,,,,down,0,2.4679,,0.518518519,0.164814808,1,0,0,0,85,85,122,1,waarvan,images/br_waarvan.png,images/cb_waarvan.png,0,,,,,,,,,,,,,,,,,,,,,,
,,,,,00084,2023-10-25_18h10.03.366,vbt_B1_day4,2022.2.4,Win32,59.79073244,,,,,,down,0,1.0931,,0.518518519,0.164814808,1,0,0,0,86,86,159,1,sufferd,images/br_sufferd.png,images/cb_sufferd.png,0,,,,,,,,,,,,,,,,,,,,,,
,,,,,00084,2023-10-25_18h10.03.366,vbt_B1_day4,2022.2.4,Win32,59.79073244,,,,,,down,0,2.6684,,0.518518519,0.164814808,1,0,0,0,87,87,62,1,knaap,images/br_knaap.png,images/cb_knaap.png,0,,,,,,,,,,,,,,,,,,,,,,
,,,,,00084,2023-10-25_18h10.03.366,vbt_B1_day4,2022.2.4,Win32,59.79073244,,,,,,down,0,0.4513,,0.518518519,0.164814808,1,0,0,0,88,88,154,1,aflopen,images/br_aflopen.png,images/cb_aflopen.png,0,,,,,,,,,,,,,,,,,,,,,,
,,,,,00084,2023-10-25_18h10.03.366,vbt_B1_day4,2022.2.4,Win32,59.79073244,,,,,,down,0,4.5847,,0.518518519,0.164814808,1,0,0,0,89,89,64,1,wegen,images/br_wegen.png,images/cb_wegen.png,1,wegen,,,,,,,,,,,,,,,,,,,,,
,,,,,00084,2023-10-25_18h10.03.366,vbt_B1_day4,2022.2.4,Win32,59.79073244,,,,,,down,0,0.2848,,0.518518519,0.164814808,1,0,0,0,90,90,68,1,schat,images/br_schat.png,images/cb_schat.png,0,,,,,,,,,,,,,,,,,,,,,,
,,,,,00084,2023-10-25_18h10.03.366,vbt_B1_day4,2022.2.4,Win32,59.79073244,,,,,,down,0,8.8544,,0.514814871,0.128703683,1,0,0,0,91,91,181,1,toegeven,images/br_toegeven.png,images/cb_toegeven.png,0,,,,,,,,,,,,,,,,,,,,,,
,,,,,00084,2023-10-25_18h10.03.366,vbt_B1_day4,2022.2.4,Win32,59.79073244,,,,,,down,0,3.1386,,0.514814871,0.128703683,1,0,0,0,92,92,100,1,geduld,images/br_geduld.png,images/cb_geduld.png,0,,,,,,,,,,,,,,,,,,,,,,
,,,,,00084,2023-10-25_18h10.03.366,vbt_B1_day4,2022.2.4,Win32,59.79073244,,,,,,down,0,1.9181,,0.514814871,0.128703683,1,0,0,0,93,93,38,1,baai,images/br_baai.png,images/cb_baai.png,0,,,,,,,,,,,,,,,,,,,,,,
,,,,,00084,2023-10-25_18h10.03.366,vbt_B1_day4,2022.2.4,Win32,59.79073244,,,,,,down,0,3.302,,0.514814871,0.128703683,1,0,0,0,94,94,97,1,loyaal,images/br_loyaal.png,images/cb_loyaal.png,0,,,,,,,,,,,,,,,,,,,,,,
,,,,,00084,2023-10-25_18h10.03.366,vbt_B1_day4,2022.2.4,Win32,59.79073244,,,,,,down,0,1.9845,,0.514814871,0.128703683,1,0,0,0,95,95,199,1,beseffen,images/br_beseffen.png,images/cb_beseffen.png,0,,,,,,,,,,,,,,,,,,,,,,
,,,,,00084,2023-10-25_18h10.03.366,vbt_B1_day4,2022.2.4,Win32,59.79073244,,,,,,down,0,5.6913,,0.514814871,0.128703683,1,0,0,0,96,96,44,1,flits,images/br_flits.png,images/cb_flits.png,0,,,,,,,,,,,,,,,,,,,,,,
,,,,,00084,2023-10-25_18h10.03.366,vbt_B1_day4,2022.2.4,Win32,59.79073244,,,,,,down,0,0.2014,,0.514814871,0.128703683,1,0,0,0,97,97,152,1,afnemen,images/br_afnemen.png,images/cb_afnemen.png,0,,,,,,,,,,,,,,,,,,,,,,
,,,,,00084,2023-10-25_18h10.03.366,vbt_B1_day4,2022.2.4,Win32,59.79073244,,,,,,down,0,2.6193,,0.514814871,0.128703683,1,0,0,0,98,98,180,1,openbaar,images/br_openbaar.png,images/cb_openbaar.png,0,,,,,,,,,,,,,,,,,,,,,,
,,,,,00084,2023-10-25_18h10.03.366,vbt_B1_day4,2022.2.4,Win32,59.79073244,,,,,,down,0,4.5608,,0.514814871,0.128703683,1,0,0,0,99,99,85,1,heilig,images/br_heilig.png,images/cb_heilig.png,0,,,,,,,,,,,,,,,,,,,,,,
,,,,,00084,2023-10-25_18h10.03.366,vbt_B1_day4,2022.2.4,Win32,59.79073244,,,,,,down,0,0.8881,,0.514814871,0.128703683,1,0,0,0,100,100,148,1,smullen,images/br_smullen.png,images/cb_smullen.png,0,,,,,,,,,,,,,,,,,,,,,,
,,,,,00084,2023-10-25_18h10.03.366,vbt_B1_day4,2022.2.4,Win32,59.79073244,,,,,,down,0,1.2675,,0.514814871,0.128703683,1,0,0,0,101,101,30,1,uien,images/br_uien.png,images/cb_uien.png,0,,,,,,,,,,,,,,,,,,,,,,
,,,,,00084,2023-10-25_18h10.03.366,vbt_B1_day4,2022.2.4,Win32,59.79073244,,,,,,down,0,0.4848,,0.514814871,0.128703683,1,0,0,0,102,102,160,1,daarheen,images/br_daarheen.png,images/cb_daarheen.png,0,,,,,,,,,,,,,,,,,,,,,,
,,,,,00084,2023-10-25_18h10.03.366,vbt_B1_day4,2022.2.4,Win32,59.79073244,,,,,,down,0,2.5707,,0.514814871,0.128703683,1,0,0,0,103,103,116,1,besmet,images/br_besmet.png,images/cb_besmet.png,0,,,,,,,,,,,,,,,,,,,,,,
,,,,,00084,2023-10-25_18h10.03.366,vbt_B1_day4,2022.2.4,Win32,59.79073244,,,,,,down,0,3.6361,,0.514814871,0.128703683,1,0,0,0,104,104,142,1,snuiven,images/br_snuiven.png,images/cb_snuiven.png,0,,,,,,,,,,,,,,,,,,,,,,
,,,,,00084,2023-10-25_18h10.03.366,vbt_B1_day4,2022.2.4,Win32,59.79073244,,,,,,down,0,3.0518,,0.514814871,0.128703683,1,0,0,0,105,105,71,1,bever,images/br_bever.png,images/cb_bever.png,0,,,,,,,,,,,,,,,,,,,,,,
,,,,,00084,2023-10-25_18h10.03.366,vbt_B1_day4,2022.2.4,Win32,59.79073244,,,,,,down,0,0.3921,,0.514814871,0.128703683,1,0,0,0,106,106,192,1,schaamte,images/br_schaamte.png,images/cb_schaamte.png,0,,,,,,,,,,,,,,,,,,,,,,
,,,,,00084,2023-10-25_18h10.03.366,vbt_B1_day4,2022.2.4,Win32,59.79073244,,,,,,down,0,4.6863,,0.514814871,0.128703683,1,0,0,0,107,107,37,1,mijn,images/br_mijn.png,images/cb_mijn.png,0,,,,,,,,,,,,,,,,,,,,,,
,,,,,00084,2023-10-25_18h10.03.366,vbt_B1_day4,2022.2.4,Win32,59.79073244,,,,,,down,0,7.0368,,0.514814871,0.128703683,1,0,0,0,108,108,10,1,leek,images/br_leek.png,images/cb_leek.png,0,,,,,,,,,,,,,,,,,,,,,,
,,,,,00084,2023-10-25_18h10.03.366,vbt_B1_day4,2022.2.4,Win32,59.79073244,,,,,,down,0,0.8676,,0.514814871,0.128703683,1,0,0,0,109,109,16,1,ziek,images/br_ziek.png,images/cb_ziek.png,0,,,,,,,,,,,,,,,,,,,,,,
,,,,,00084,2023-10-25_18h10.03.366,vbt_B1_day4,2022.2.4,Win32,59.79073244,,,,,,down,0,0.4042,,0.514814871,0.128703683,1,0,0,0,110,110,109,1,totaal,images/br_totaal.png,images/cb_totaal.png,0,,,,,,,,,,,,,,,,,,,,,,
,,,,,00084,2023-10-25_18h10.03.366,vbt_B1_day4,2022.2.4,Win32,59.79073244,,,,,,down,0,1.0786,,0.514814871,0.128703683,1,0,0,0,111,111,8,1,knie,images/br_knie.png,images/cb_knie.png,0,,,,,,,,,,,,,,,,,,,,,,
,,,,,00084,2023-10-25_18h10.03.366,vbt_B1_day4,2022.2.4,Win32,59.79073244,,,,,,down,0,1.6015,,0.514814871,0.128703683,1,0,0,0,112,112,13,1,kaal,images/br_kaal.png,images/cb_kaal.png,0,,,,,,,,,,,,,,,,,,,,,,
,,,,,00084,2023-10-25_18h10.03.366,vbt_B1_day4,2022.2.4,Win32,59.79073244,,,,,,down,0,3.7349,,0.514814871,0.128703683,1,0,0,0,113,113,94,1,oceaan,images/br_oceaan.png,images/cb_oceaan.png,0,,,,,,,,,,,,,,,,,,,,,,
,,,,,00084,2023-10-25_18h10.03.366,vbt_B1_day4,2022.2.4,Win32,59.79073244,,,,,,down,0,10.6453,,0.514814871,0.128703683,1,0,0,0,114,114,145,1,invloed,images/br_invloed.png,images/cb_invloed.png,1,invloed,,,,,,,,,,,,,,,,,,,,,
,,,,,00084,2023-10-25_18h10.03.366,vbt_B1_day4,2022.2.4,Win32,59.79073244,,,,,,down,0,0.1028,,0.514814871,0.128703683,1,0,0,0,115,115,130,1,keihard,images/br_keihard.png,images/cb_keihard.png,0,,,,,,,,,,,,,,,,,,,,,,
,,,,,00084,2023-10-25_18h10.03.366,vbt_B1_day4,2022.2.4,Win32,59.79073244,,,,,,down,0,4.4027,,0.514814871,0.128703683,1,0,0,0,116,116,179,1,woestijn,images/br_woestijn.png,images/cb_woestijn.png,0,,,,,,,,,,,,,,,,,,,,,,
,,,,,00084,2023-10-25_18h10.03.366,vbt_B1_day4,2022.2.4,Win32,59.79073244,,,,,,down,0,0.4243,,0.514814871,0.128703683,1,0,0,0,117,117,139,1,stiekem,images/br_stiekem.png,images/cb_stiekem.png,0,,,,,,,,,,,,,,,,,,,,,,
,,,,,00084,2023-10-25_18h10.03.366,vbt_B1_day4,2022.2.4,Win32,59.79073244,,,,,,down,0,2.0839,,0.514814871,0.128703683,1,0,0,0,118,118,28,1,stal,images/br_stal.png,images/cb_stal.png,0,,,,,,,,,,,,,,,,,,,,,,
,,,,,00084,2023-10-25_18h10.03.366,vbt_B1_day4,2022.2.4,Win32,59.79073244,,,,,,down,0,2.6944,,0.514814871,0.128703683,1,0,0,0,119,119,177,1,maaltijd,images/br_maaltijd.png,images/cb_maaltijd.png,0,,,,,,,,,,,,,,,,,,,,,,
,,,,,00084,2023-10-25_18h10.03.366,vbt_B1_day4,2022.2.4,Win32,59.79073244,,,,,,down,0,2.9674,,0.514814871,0.128703683,1,0,0,0,120,120,131,1,opzicht,images/br_opzicht.png,images/cb_opzicht.png,0,,,,,,,,,,,,,,,,,,,,,,
,,,,,00084,2023-10-25_18h10.03.366,vbt_B1_day4,2022.2.4,Win32,59.79073244,,,,,,down,0,1.6224,,0.514814871,0.128703683,1,0,0,0,121,121,172,1,weigeren,images/br_weigeren.png,images/cb_weigeren.png,0,,,,,,,,,,,,,,,,,,,,,,
,,,,,00084,2023-10-25_18h10.03.366,vbt_B1_day4,2022.2.4,Win32,59.79073244,,,,,,down,0,0.5897,,0.19722225,-0.025925919,1,0,0,0,122,122,70,1,ijdel,images/br_ijdel.png,images/cb_ijdel.png,0,,,,,,,,,,,,,,,,,,,,,,
,,,,,00084,2023-10-25_18h10.03.366,vbt_B1_day4,2022.2.4,Win32,59.79073244,,,,,,down,0,9.7378,,0.19722225,-0.025925919,1,0,0,0,123,123,24,1,jurk,images/br_jurk.png,images/cb_jurk.png,1,jurk,,,,,,,,,,,,,,,,,,,,,
,,,,,00084,2023-10-25_18h10.03.366,vbt_B1_day4,2022.2.4,Win32,59.79073244,,,,,,down,0,0.942,,0.19722225,-0.025925919,1,0,0,0,124,124,43,1,klauw,images/br_klauw.png,images/cb_klauw.png,0,,,,,,,,,,,,,,,,,,,,,,
,,,,,00084,2023-10-25_18h10.03.366,vbt_B1_day4,2022.2.4,Win32,59.79073244,,,,,,down,0,8.6228,,0.19722225,-0.025925919,1,0,0,0,125,125,186,1,voorraad,images/br_voorraad.png,images/cb_voorraad.png,1,voorraad,,,,,,,,,,,,,,,,,,,,,
,,,,,00084,2023-10-25_18h10.03.366,vbt_B1_day4,2022.2.4,Win32,59.79073244,,,,,,down,0,0.5219,,0.19722225,-0.025925919,1,0,0,0,126,126,14,1,rijp,images/br_rijp.png,images/cb_rijp.png,0,,,,,,,,,,,,,,,,,,,,,,
,,,,,00084,2023-10-25_18h10.03.366,vbt_B1_day4,2022.2.4,Win32,59.79073244,,,,,,down,0,11.0983,,0.19722225,-0.025925919,1,0,0,0,127,127,9,1,hier,images/br_hier.png,images/cb_hier.png,0,,,,,,,,,,,,,,,,,,,,,,
,,,,,00084,2023-10-25_18h10.03.366,vbt_B1_day4,2022.2.4,Win32,59.79073244,,,,,,down,0,2.5595,,0.212037051,-0.068518533,1,0,0,0,128,128,90,1,geluid,images/br_geluid.png,images/cb_geluid.png,0,,,,,,,,,,,,,,,,,,,,,,
,,,,,00084,2023-10-25_18h10.03.366,vbt_B1_day4,2022.2.4,Win32,59.79073244,,,,,,down,0,4.0213,,0.212037051,-0.068518533,1,0,0,0,129,129,178,1,huisdier,images/br_huisdier.png,images/cb_huisdier.png,0,,,,,,,,,,,,,,,,,,,,,,
,,,,,00084,2023-10-25_18h10.03.366,vbt_B1_day4,2022.2.4,Win32,59.79073244,,,,,,down,0,1.4676,,0.212037051,-0.068518533,1,0,0,0,130,130,156,1,rechten,images/br_rechten.png,images/cb_rechten.png,0,,,,,,,,,,,,,,,,,,,,,,
,,,,,00084,2023-10-25_18h10.03.366,vbt_B1_day4,2022.2.4,Win32,59.79073244,,,,,,down,0,3.0133,,0.212037051,-0.068518533,1,0,0,0,131,131,124,1,bloeien,images/br_bloeien.png,images/cb_bloeien.png,0,,,,,,,,,,,,,,,,,,,,,,
,,,,,00084,2023-10-25_18h10.03.366,vbt_B1_day4,2022.2.4,Win32,59.79073244,,,,,,down,0,0.2351,,0.212037051,-0.068518533,1,0,0,0,132,132,135,1,gedicht,images/br_gedicht.png,images/cb_gedicht.png,0,,,,,,,,,,,,,,,,,,,,,,
,,,,,00084,2023-10-25_18h10.03.366,vbt_B1_day4,2022.2.4,Win32,59.79073244,,,,,,down,0,3.8162,,0.212037051,-0.068518533,1,0,0,0,133,133,174,1,stemming,images/br_stemming.png,images/cb_stemming.png,0,,,,,,,,,,,,,,,,,,,,,,
,,,,,00084,2023-10-25_18h10.03.366,vbt_B1_day4,2022.2.4,Win32,59.79073244,,,,,,down,0,1.1675,,0.212037051,-0.068518533,1,0,0,0,134,134,133,1,seizoen,images/br_seizoen.png,images/cb_seizoen.png,0,,,,,,,,,,,,,,,,,,,,,,
,,,,,00084,2023-10-25_18h10.03.366,vbt_B1_day4,2022.2.4,Win32,59.79073244,,,,,,down,0,0.0204,,0.212037051,-0.068518533,1,0,0,0,135,135,91,1,gezond,images/br_gezond.png,images/cb_gezond.png,0,,,,,,,,,,,,,,,,,,,,,,
,,,,,00084,2023-10-25_18h10.03.366,vbt_B1_day4,2022.2.4,Win32,59.79073244,,,,,,down,0,0.3004,,0.212037051,-0.068518533,1,0,0,0,136,136,74,1,graaf,images/br_graaf.png,images/cb_graaf.png,0,,,,,,,,,,,,,,,,,,,,,,
,,,,,00084,2023-10-25_18h10.03.366,vbt_B1_day4,2022.2.4,Win32,59.79073244,,,,,,down,0,0.9039,,0.212037051,-0.068518533,1,0,0,0,137,137,96,1,slagen,images/br_slagen.png,images/cb_slagen.png,0,,,,,,,,,,,,,,,,,,,,,,
,,,,,00084,2023-10-25_18h10.03.366,vbt_B1_day4,2022.2.4,Win32,59.79073244,,,,,,down,0,3.0385,,0.212037051,-0.068518533,1,0,0,0,138,138,88,1,boeien,images/br_boeien.png,images/cb_boeien.png,0,,,,,,,,,,,,,,,,,,,,,,
,,,,,00084,2023-10-25_18h10.03.366,vbt_B1_day4,2022.2.4,Win32,59.79073244,,,,,,down,0,0.5518,,0.212037051,-0.068518533,1,0,0,0,139,139,21,1,mist,images/br_mist.png,images/cb_mist.png,0,,,,,,,,,,,,,,,,,,,,,,
,,,,,00084,2023-10-25_18h10.03.366,vbt_B1_day4,2022.2.4,Win32,59.79073244,,,,,,down,0,0.494,,0.212037051,-0.068518533,1,0,0,0,140,140,73,1,volop,images/br_volop.png,images/cb_volop.png,0,,,,,,,,,,,,,,,,,,,,,,
,,,,,00084,2023-10-25_18h10.03.366,vbt_B1_day4,2022.2.4,Win32,59.79073244,,,,,,down,0,1.9693,,0.212037051,-0.068518533,1,0,0,0,141,141,61,1,groen,images/br_groen.png,images/cb_groen.png,0,,,,,,,,,,,,,,,,,,,,,,
,,,,,00084,2023-10-25_18h10.03.366,vbt_B1_day4,2022.2.4,Win32,59.79073244,,,,,,down,0,10.7722,,0.212037051,-0.068518533,1,0,0,0,142,142,144,1,eetlust,images/br_eetlust.png,images/cb_eetlust.png,1,eetlust,,,,,,,,,,,,,,,,,,,,,
,,,,,00084,2023-10-25_18h10.03.366,vbt_B1_day4,2022.2.4,Win32,59.79073244,,,,,,down,0,2.1223,,0.212037051,-0.068518533,1,0,0,0,143,143,19,1,geit,images/br_geit.png,images/cb_geit.png,0,,,,,,,,,,,,,,,,,,,,,,
,,,,,00084,2023-10-25_18h10.03.366,vbt_B1_day4,2022.2.4,Win32,59.79073244,,,,,,down,0,8.938,,0.212037051,-0.068518533,1,0,0,0,144,144,173,1,apparaat,images/br_apparaat.png,images/cb_apparaat.png,0,,,,,,,,,,,,,,,,,,,,,,
,,,,,00084,2023-10-25_18h10.03.366,vbt_B1_day4,2022.2.4,Win32,59.79073244,,,,,,down,0,3.0839,,0.212037051,-0.068518533,1,0,0,0,145,145,153,1,vervoer,images/br_vervoer.png,images/cb_vervoer.png,0,,,,,,,,,,,,,,,,,,,,,,
,,,,,00084,2023-10-25_18h10.03.366,vbt_B1_day4,2022.2.4,Win32,59.79073244,,,,,,down,0,3.1736,,0.212037051,-0.068518533,1,0,0,0,146,146,123,1,hiervan,images/br_hiervan.png,images/cb_hiervan.png,0,,,,,,,,,,,,,,,,,,,,,,
,,,,,00084,2023-10-25_18h10.03.366,vbt_B1_day4,2022.2.4,Win32,59.79073244,,,,,,down,0,3.1851,,0.212037051,-0.068518533,1,0,0,0,147,147,51,1,samen,images/br_samen.png,images/cb_samen.png,0,,,,,,,,,,,,,,,,,,,,,,
,,,,,00084,2023-10-25_18h10.03.366,vbt_B1_day4,2022.2.4,Win32,59.79073244,,,,,,down,0,1.6259,,0.212037051,-0.068518533,1,0,0,0,148,148,87,1,toeval,images/br_toeval.png,images/cb_toeval.png,0,,,,,,,,,,,,,,,,,,,,,,
,,,,,00084,2023-10-25_18h10.03.366,vbt_B1_day4,2022.2.4,Win32,59.79073244,,,,,,down,0,0.8665,,0.212037051,-0.068518533,1,0,0,0,149,149,6,1,diep,images/br_diep.png,images/cb_diep.png,0,,,,,,,,,,,,,,,,,,,,,,
,,,,,00084,2023-10-25_18h10.03.366,vbt_B1_day4,2022.2.4,Win32,59.79073244,,,,,,down,0,0.6176,,0.212037051,-0.068518533,1,0,0,0,150,150,75,1,snoep,images/br_snoep.png,images/cb_snoep.png,0,,,,,,,,,,,,,,,,,,,,,,
,,,,,00084,2023-10-25_18h10.03.366,vbt_B1_day4,2022.2.4,Win32,59.79073244,,,,,,down,0,2.0403,,0.212037051,-0.068518533,1,0,0,0,151,151,31,1,poes,images/br_poes.png,images/cb_poes.png,0,,,,,,,,,,,,,,,,,,,,,,
,,,,,00084,2023-10-25_18h10.03.366,vbt_B1_day4,2022.2.4,Win32,59.79073244,,,,,,down,0,1.2019,,0.212037051,-0.068518533,1,0,0,0,152,152,17,1,taal,images/br_taal.png,images/cb_taal.png,0,,,,,,,,,,,,,,,,,,,,,,
,,,,,00084,2023-10-25_18h10.03.366,vbt_B1_day4,2022.2.4,Win32,59.79073244,,,,,,down,0,7.6092,,0.20185188,-0.070370392,1,0,0,0,153,153,65,1,parel,images/br_parel.png,images/cb_parel.png,1,parel,,,,,,,,,,,,,,,,,,,,,
,,,,,00084,2023-10-25_18h10.03.366,vbt_B1_day4,2022.2.4,Win32,59.79073244,,,,,,down,0,0.5239,,0.20185188,-0.070370392,1,0,0,0,154,154,56,1,traag,images/br_traag.png,images/cb_traag.png,0,,,,,,,,,,,,,,,,,,,,,,
,,,,,00084,2023-10-25_18h10.03.366,vbt_B1_day4,2022.2.4,Win32,59.79073244,,,,,,down,0,3.6236,,0.20185188,-0.070370392,1,0,0,0,155,155,126,1,kasteel,images/br_kasteel.png,images/cb_kasteel.png,0,,,,,,,,,,,,,,,,,,,,,,
,,,,,00084,2023-10-25_18h10.03.366,vbt_B1_day4,2022.2.4,Win32,59.79073244,,,,,,down,0,0.9004,,0.20185188,-0.070370392,1,0,0,0,156,156,102,1,legaal,images/br_legaal.png,images/cb_legaal.png,0,,,,,,,,,,,,,,,,,,,,,,
,,,,,00084,2023-10-25_18h10.03.366,vbt_B1_day4,2022.2.4,Win32,59.79073244,,,,,,down,0,14.6916,,0.20185188,-0.070370392,1,0,0,0,157,157,99,1,koffie,images/br_koffie.png,images/cb_koffie.png,0,,,,,,,,,,,,,,,,,,,,,,
,,,,,00084,2023-10-25_18h10.03.366,vbt_B1_day4,2022.2.4,Win32,59.79073244,,,,,,down,0,9.8254,,0.20185188,-0.070370392,1,0,0,0,158,158,107,1,maling,images/br_maling.png,images/cb_maling.png,1,maling,,,,,,,,,,,,,,,,,,,,,
,,,,,00084,2023-10-25_18h10.03.366,vbt_B1_day4,2022.2.4,Win32,59.79073244,,,,,,down,0,0.8429,,0.20185188,-0.070370392,1,0,0,0,159,159,78,1,leren,images/br_leren.png,images/cb_leren.png,0,,,,,,,,,,,,,,,,,,,,,,
,,,,,00084,2023-10-25_18h10.03.366,vbt_B1_day4,2022.2.4,Win32,59.79073244,,,,,,down,0,4.3185,,0.20185188,-0.070370392,1,0,0,0,160,160,149,1,redding,images/br_redding.png,images/cb_redding.png,0,,,,,,,,,,,,,,,,,,,,,,
,,,,,00084,2023-10-25_18h10.03.366,vbt_B1_day4,2022.2.4,Win32,59.79073244,,,,,,down,0,1.2068,,0.20185188,-0.070370392,1,0,0,0,161,161,57,1,steek,images/br_steek.png,images/cb_steek.png,0,,,,,,,,,,,,,,,,,,,,,,
,,,,,00084,2023-10-25_18h10.03.366,vbt_B1_day4,2022.2.4,Win32,59.79073244,,,,,,down,0,0.4561,,0.20185188,-0.070370392,1,0,0,0,162,162,114,1,vullen,images/br_vullen.png,images/cb_vullen.png,0,,,,,,,,,,,,,,,,,,,,,,
,,,,,00084,2023-10-25_18h10.03.366,vbt_B1_day4,2022.2.4,Win32,59.79073244,,,,,,down,0,1.227,,0.20185188,-0.070370392,1,0,0,0,163,163,52,1,wagon,images/br_wagon.png,images/cb_wagon.png,0,,,,,,,,,,,,,,,,,,,,,,
,,,,,00084,2023-10-25_18h10.03.366,vbt_B1_day4,2022.2.4,Win32,59.79073244,,,,,,down,0,2.1682,,0.20185188,-0.070370392,1,0,0,0,164,164,83,1,mening,images/br_mening.png,images/cb_mening.png,0,,,,,,,,,,,,,,,,,,,,,,
,,,,,00084,2023-10-25_18h10.03.366,vbt_B1_day4,2022.2.4,Win32,59.79073244,,,,,,down,0,1.7734,,0.20185188,-0.070370392,1,0,0,0,165,165,69,1,waken,images/br_waken.png,images/cb_waken.png,0,,,,,,,,,,,,,,,,,,,,,,
,,,,,00084,2023-10-25_18h10.03.366,vbt_B1_day4,2022.2.4,Win32,59.79073244,,,,,,down,0,0.5787,,0.20185188,-0.070370392,1,0,0,0,166,166,151,1,aanzoek,images/br_aanzoek.png,images/cb_aanzoek.png,0,,,,,,,,,,,,,,,,,,,,,,
,,,,,00084,2023-10-25_18h10.03.366,vbt_B1_day4,2022.2.4,Win32,59.79073244,,,,,,down,0,1.7455,,0.20185188,-0.070370392,1,0,0,0,167,167,128,1,prikken,images/br_prikken.png,images/cb_prikken.png,0,,,,,,,,,,,,,,,,,,,,,,
,,,,,00084,2023-10-25_18h10.03.366,vbt_B1_day4,2022.2.4,Win32,59.79073244,,,,,,down,0,0.5727,,0.20185188,-0.070370392,1,0,0,0,168,168,103,1,joggen,images/br_joggen.png,images/cb_joggen.png,0,,,,,,,,,,,,,,,,,,,,,,
,,,,,00084,2023-10-25_18h10.03.366,vbt_B1_day4,2022.2.4,Win32,59.79073244,,,,,,down,0,0.517,,0.20185188,-0.070370392,1,0,0,0,169,169,45,1,piste,images/br_piste.png,images/cb_piste.png,0,,,,,,,,,,,,,,,,,,,,,,
,,,,,00084,2023-10-25_18h10.03.366,vbt_B1_day4,2022.2.4,Win32,59.79073244,,,,,,down,0,2.9038,,0.20185188,-0.070370392,1,0,0,0,170,170,169,1,oprotten,images/br_oprotten.png,images/cb_oprotten.png,0,,,,,,,,,,,,,,,,,,,,,,
,,,,,00084,2023-10-25_18h10.03.366,vbt_B1_day4,2022.2.4,Win32,59.79073244,,,,,,down,0,1.1419,,0.20185188,-0.070370392,1,0,0,0,171,171,195,1,middelen,images/br_middelen.png,images/cb_middelen.png,0,,,,,,,,,,,,,,,,,,,,,,
,,,,,00084,2023-10-25_18h10.03.366,vbt_B1_day4,2022.2.4,Win32,59.79073244,,,,,,down,0,0.1564,,0.20185188,-0.070370392,1,0,0,0,172,172,7,1,geld,images/br_geld.png,images/cb_geld.png,0,,,,,,,,,,,,,,,,,,,,,,
,,,,,00084,2023-10-25_18h10.03.366,vbt_B1_day4,2022.2.4,Win32,59.79073244,,,,,,down,0,1.3446,,0.20185188,-0.070370392,1,0,0,0,173,173,150,1,gegeven,images/br_gegeven.png,images/cb_gegeven.png,0,,,,,,,,,,,,,,,,,,,,,,
,,,,,00084,2023-10-25_18h10.03.366,vbt_B1_day4,2022.2.4,Win32,59.79073244,,,,,,down,0,29.7063,,0.20185188,-0.070370392,1,0,0,0,174,174,185,1,mijnheer,images/br_mijnheer.png,images/cb_mijnheer.png,1,mijnheer,,,,,,,,,,,,,,,,,,,,,
,,,,,00084,2023-10-25_18h10.03.366,vbt_B1_day4,2022.2.4,Win32,59.79073244,,,,,,down,0,1.3431,,0.20185188,-0.070370392,1,0,0,0,175,175,55,1,praat,images/br_praat.png,images/cb_praat.png,0,,,,,,,,,,,,,,,,,,,,,,
,,,,,00084,2023-10-25_18h10.03.366,vbt_B1_day4,2022.2.4,Win32,59.79073244,,,,,,down,0,2.6171,,0.20185188,-0.070370392,1,0,0,0,176,176,2,1,jaar,images/br_jaar.png,images/cb_jaar.png,0,,,,,,,,,,,,,,,,,,,,,,
,,,,,00084,2023-10-25_18h10.03.366,vbt_B1_day4,2022.2.4,Win32,59.79073244,,,,,,down,0,4.1549,,0.20185188,-0.070370392,1,0,0,0,177,177,40,1,schep,images/br_schep.png,images/cb_schep.png,0,,,,,,,,,,,,,,,,,,,,,,
,,,,,00084,2023-10-25_18h10.03.366,vbt_B1_day4,2022.2.4,Win32,59.79073244,,,,,,down,0,5.0718,,0.20185188,-0.070370392,1,0,0,0,178,178,15,1,soda,images/br_soda.png,images/cb_soda.png,0,,,,,,,,,,,,,,,,,,,,,,
,,,,,00084,2023-10-25_18h10.03.366,vbt_B1_day4,2022.2.4,Win32,59.79073244,,,,,,down,0,6.777,,0.20185188,-0.070370392,1,0,0,0,179,179,66,1,lever,images/br_lever.png,images/cb_lever.png,1,lever,,,,,,,,,,,,,,,,,,,,,
,,,,,00084,2023-10-25_18h10.03.366,vbt_B1_day4,2022.2.4,Win32,59.79073244,,,,,,down,0,13.9076,,0.20185188,-0.070370392,1,0,0,0,180,180,67,1,zwart,images/br_zwart.png,images/cb_zwart.png,1,zwart,,,,,,,,,,,,,,,,,,,,,
,,,,,00084,2023-10-25_18h10.03.366,vbt_B1_day4,2022.2.4,Win32,59.79073244,,,,,,down,0,3.67,,0.20185188,-0.070370392,1,0,0,0,181,181,54,1,gebit,images/br_gebit.png,images/cb_gebit.png,0,,,,,,,,,,,,,,,,,,,,,,
,,,,,00084,2023-10-25_18h10.03.366,vbt_B1_day4,2022.2.4,Win32,59.79073244,,,,,,down,0,6.2035,,0.20185188,-0.070370392,1,0,0,0,182,182,111,1,ticket,images/br_ticket.png,images/cb_ticket.png,0,,,,,,,,,,,,,,,,,,,,,,
,,,,,00084,2023-10-25_18h10.03.366,vbt_B1_day4,2022.2.4,Win32,59.79073244,,,,,,down,0,1.8933,,0.20185188,-0.070370392,1,0,0,0,183,183,143,1,hechten,images/br_hechten.png,images/cb_hechten.png,0,,,,,,,,,,,,,,,,,,,,,,
,,,,,00084,2023-10-25_18h10.03.366,vbt_B1_day4,2022.2.4,Win32,59.79073244,,,,,,down,0,1.5939,,0.20185188,-0.070370392,1,0,0,0,184,184,50,1,stoom,images/br_stoom.png,images/cb_stoom.png,0,,,,,,,,,,,,,,,,,,,,,,
,,,,,00084,2023-10-25_18h10.03.366,vbt_B1_day4,2022.2.4,Win32,59.79073244,,,,,,down,0,1.1025,,0.20185188,-0.070370392,1,0,0,0,185,185,34,1,vorm,images/br_vorm.png,images/cb_vorm.png,0,,,,,,,,,,,,,,,,,,,,,,
,,,,,00084,2023-10-25_18h10.03.366,vbt_B1_day4,2022.2.4,Win32,59.79073244,,,,,,down,0,4.1377,,0.20185188,-0.070370392,1,0,0,0,186,186,168,1,bisschop,images/br_bisschop.png,images/cb_bisschop.png,0,,,,,,,,,,,,,,,,,,,,,,
,,,,,00084,2023-10-25_18h10.03.366,vbt_B1_day4,2022.2.4,Win32,59.79073244,,,,,,down,0,9.9389,,0.20185188,-0.070370392,1,0,0,0,187,187,26,1,leuk,images/br_leuk.png,images/cb_leuk.png,1,leuk,,,,,,,,,,,,,,,,,,,,,
,,,,,00084,2023-10-25_18h10.03.366,vbt_B1_day4,2022.2.4,Win32,59.79073244,,,,,,down,0,1.4698,,0.20185188,-0.070370392,1,0,0,0,188,188,41,1,maken,images/br_maken.png,images/cb_maken.png,0,,,,,,,,,,,,,,,,,,,,,,
,,,,,00084,2023-10-25_18h10.03.366,vbt_B1_day4,2022.2.4,Win32,59.79073244,,,,,,down,0,1.9589,,0.20185188,-0.070370392,1,0,0,0,189,189,48,1,steel,images/br_steel.png,images/cb_steel.png,0,,,,,,,,,,,,,,,,,,,,,,
,,,,,00084,2023-10-25_18h10.03.366,vbt_B1_day4,2022.2.4,Win32,59.79073244,,,,,,down,0,0.9846,,0.20185188,-0.070370392,1,0,0,0,190,190,95,1,vreten,images/br_vreten.png,images/cb_vreten.png,0,,,,,,,,,,,,,,,,,,,,,,
,,,,,00084,2023-10-25_18h10.03.366,vbt_B1_day4,2022.2.4,Win32,59.79073244,,,,,,down,0,0.5229,,0.20185188,-0.070370392,1,0,0,0,191,191,1,1,zaal,images/br_zaal.png,images/cb_zaal.png,0,,,,,,,,,,,,,,,,,,,,,,
,,,,,00084,2023-10-25_18h10.03.366,vbt_B1_day4,2022.2.4,Win32,59.79073244,,,,,,down,0,2.1517,,0.20185188,-0.070370392,1,0,0,0,192,192,108,1,excuus,images/br_excuus.png,images/cb_excuus.png,0,,,,,,,,,,,,,,,,,,,,,,
,,,,,00084,2023-10-25_18h10.03.366,vbt_B1_day4,2022.2.4,Win32,59.79073244,,,,,,down,0,0.8054,,0.20185188,-0.070370392,1,0,0,0,193,193,84,1,lokken,images/br_lokken.png,images/cb_lokken.png,0,,,,,,,,,,,,,,,,,,,,,,
,,,,,00084,2023-10-25_18h10.03.366,vbt_B1_day4,2022.2.4,Win32,59.79073244,,,,,,down,0,3.4174,,0.20185188,-0.070370392,1,0,0,0,194,194,118,1,vinger,images/br_vinger.png,images/cb_vinger.png,0,,,,,,,,,,,,,,,,,,,,,,
,,,,,00084,2023-10-25_18h10.03.366,vbt_B1_day4,2022.2.4,Win32,59.79073244,,,,,,down,0,0.6713,,0.20185188,-0.070370392,1,0,0,0,195,195,125,1,aanzien,images/br_aanzien.png,images/cb_aanzien.png,0,,,,,,,,,,,,,,,,,,,,,,
,,,,,00084,2023-10-25_18h10.03.366,vbt_B1_day4,2022.2.4,Win32,59.79073244,,,,,,down,0,5.2695,,0.20185188,-0.070370392,1,0,0,0,196,196,23,1,zout,images/br_zout.png,images/cb_zout.png,0,,,,,,,,,,,,,,,,,,,,,,
,,,,,00084,2023-10-25_18h10.03.366,vbt_B1_day4,2022.2.4,Win32,59.79073244,,,,,,down,0,0.1842,,0.20185188,-0.070370392,1,0,0,0,197,197,157,1,uitlaat,images/br_uitlaat.png,images/cb_uitlaat.png,0,,,,,,,,,,,,,,,,,,,,,,
,,,,,00084,2023-10-25_18h10.03.366,vbt_B1_day4,2022.2.4,Win32,59.79073244,,,,,,down,0,0.2684,,0.20185188,-0.070370392,1,0,0,0,198,198,76,1,afval,images/br_afval.png,images/cb_afval.png,0,,,,,,,,,,,,,,,,,,,,,,
,,,,,00084,2023-10-25_18h10.03.366,vbt_B1_day4,2022.2.4,Win32,59.79073244,,,,,,down,0,5.5057,,0.20185188,-0.070370392,1,0,0,0,199,199,33,1,vlek,images/br_vlek.png,images/cb_vlek.png,0,,,,,,,,,,,,,,,,,,,,,,
,,,,,00084,2023-10-25_18h10.03.366,vbt_B1_day4,2022.2.4,Win32,59.79073244,,,,,,,,,,,,,,,,,,,,,,,,,0.20185188,-0.070370392,1,0,0,,,,,,,,,,,,,,,,
,,,,,00084,2023-10-25_18h10.03.366,vbt_B1_day4,2022.2.4,Win32,59.79073244,,,,,,,,,,,,,,,,,,,,,,,,,,,,,,0.20185188,-0.070370392,1,0,0,,,,,,,,,,,
,,,,,00084,2023-10-25_18h10.03.366,vbt_B1_day4,2022.2.4,Win32,59.79073244,,,,,,,,,,,,,,,,,,,,kust,images/br_kust.png,images/cb_kust.png,,kust,,,,,,,,,,,0.20185188,-0.070370392,1,0,0,kust,0,0,0,0,1
,,,,,00084,2023-10-25_18h10.03.366,vbt_B1_day4,2022.2.4,Win32,59.79073244,,,,,,,,,,,,,,,,,,,,gaan,images/br_gaan.png,images/cb_gaan.png,,gaan,,,,,,,,,,,0.20185188,-0.070370392,1,0,0,gaan,0,1,1,41,1
,,,,,00084,2023-10-25_18h10.03.366,vbt_B1_day4,2022.2.4,Win32,59.79073244,,,,,,,,,,,,,,,,,,,,waarop,images/br_waarop.png,images/cb_waarop.png,,waarop,,,,,,,,,,,0.20185188,-0.070370392,1,0,0,waarop,0,2,2,9,1
,,,,,00084,2023-10-25_18h10.03.366,vbt_B1_day4,2022.2.4,Win32,59.79073244,,,,,,,,,,,,,,,,,,,,wagon,images/br_wagon.png,images/cb_wagon.png,,wagon,,,,,,,,,,,0.346296381,-0.499074088,1,0,0,wagon,0,3,3,4,1
,,,,,00084,2023-10-25_18h10.03.366,vbt_B1_day4,2022.2.4,Win32,59.79073244,,,,,,,,,,,,,,,,,,,,pijnlijk,images/br_pijnlijk.png,images/cb_pijnlijk.png,,pij,,,,,,,,,,,0.346296381,-0.499074088,1,0,0,pij,0,4,4,58,1
,,,,,00084,2023-10-25_18h10.03.366,vbt_B1_day4,2022.2.4,Win32,59.79073244,,,,,,,,,,,,,,,,,,,,dalen,images/br_dalen.png,images/cb_dalen.png,,dalen,,,,,,,,,,,0.346296381,-0.499074088,1,0,0,dalen,0,5,5,46,1
,,,,,00084,2023-10-25_18h10.03.366,vbt_B1_day4,2022.2.4,Win32,59.79073244,,,,,,,,,,,,,,,,,,,,seizoen,images/br_seizoen.png,images/cb_seizoen.png,,sei,,,,,,,,,,,0.346296381,-0.499074088,1,0,0,sei,0,6,6,13,1
,,,,,00084,2023-10-25_18h10.03.366,vbt_B1_day4,2022.2.4,Win32,59.79073244,,,,,,,,,,,,,,,,,,,,geheim,images/br_geheim.png,images/cb_geheim.png,,geheim,,,,,,,,,,,0.337037122,-0.041666667,1,0,0,geheim,0,7,7,8,1
,,,,,00084,2023-10-25_18h10.03.366,vbt_B1_day4,2022.2.4,Win32,59.79073244,,,,,,,,,,,,,,,,,,,,schotel,images/br_schotel.png,images/cb_schotel.png,,sch,,,,,,,,,,,0.337037122,-0.041666667,1,0,0,sch,0,8,8,52,1
,,,,,00084,2023-10-25_18h10.03.366,vbt_B1_day4,2022.2.4,Win32,59.79073244,,,,,,,,,,,,,,,,,,,,toevol,images/br_toevol.png,images/cb_toevol.png,,toevol,,,,,,,,,,,0.337037122,-0.041666667,1,0,0,toevol,0,9,9,29,1
,,,,,00084,2023-10-25_18h10.03.366,vbt_B1_day4,2022.2.4,Win32,59.79073244,,,,,,,,,,,,,,,,,,,,zaalrijk,images/br_zaalrijk.png,images/cb_zaalrijk.png,,zaal,,,,,,,,,,,0.337037122,-0.041666667,1,0,0,zaal,0,10,10,37,1
,,,,,00084,2023-10-25_18h10.03.366,vbt_B1_day4,2022.2.4,Win32,59.79073244,,,,,,,,,,,,,,,,,,,,gaaf,images/br_gaaf.png,images/cb_gaaf.png,,gaaf,,,,,,,,,,,0.337037122,-0.041666667,1,0,0,gaaf,0,11,11,43,1
,,,,,00084,2023-10-25_18h10.03.366,vbt_B1_day4,2022.2.4,Win32,59.79073244,,,,,,,,,,,,,,,,,,,,baron,images/br_baron.png,images/cb_baron.png,,baron,,,,,,,,,,,0.337037122,-0.041666667,1,0,0,baron,0,12,12,5,1
,,,,,00084,2023-10-25_18h10.03.366,vbt_B1_day4,2022.2.4,Win32,59.79073244,,,,,,,,,,,,,,,,,,,,warel,images/br_warel.png,images/cb_warel.png,,warel,,,,,,,,,,,0.337037122,-0.041666667,1,0,0,warel,0,13,13,26,1
,,,,,00084,2023-10-25_18h10.03.366,vbt_B1_day4,2022.2.4,Win32,59.79073244,,,,,,,,,,,,,,,,,,,,grappen,images/br_grappen.png,images/cb_grappen.png,,grappen,,,,,,,,,,,0.337037122,-0.041666667,1,0,0,grappen,0,14,14,12,1
,,,,,00084,2023-10-25_18h10.03.366,vbt_B1_day4,2022.2.4,Win32,59.79073244,,,,,,,,,,,,,,,,,,,,zwek,images/br_zwek.png,images/cb_zwek.png,,zwek,,,,,,,,,,,0.337037122,-0.041666667,1,0,0,zwek,0,15,15,20,1
,,,,,00084,2023-10-25_18h10.03.366,vbt_B1_day4,2022.2.4,Win32,59.79073244,,,,,,,,,,,,,,,,,,,,ezel,images/br_ezel.png,images/cb_ezel.png,,ezel,,,,,,,,,,,0.337037122,-0.041666667,1,0,0,ezel,0,16,16,42,1
,,,,,00084,2023-10-25_18h10.03.366,vbt_B1_day4,2022.2.4,Win32,59.79073244,,,,,,,,,,,,,,,,,,,,haza,images/br_haza.png,images/cb_haza.png,,haza,,,,,,,,,,,0.337037122,-0.041666667,1,0,0,haza,0,17,17,21,1
,,,,,00084,2023-10-25_18h10.03.366,vbt_B1_day4,2022.2.4,Win32,59.79073244,,,,,,,,,,,,,,,,,,,,drooien,images/br_drooien.png,images/cb_drooien.png,,drooie,,,,,,,,,,,0.337037122,-0.041666667,1,0,0,drooie,0,18,18,32,1
,,,,,00084,2023-10-25_18h10.03.366,vbt_B1_day4,2022.2.4,Win32,59.79073244,,,,,,,,,,,,,,,,,,,,drummer,images/br_drummer.png,images/cb_drummer.png,,dru,,,,,,,,,,,0.337037122,-0.041666667,1,0,0,dru,0,19,19,53,1
,,,,,00084,2023-10-25_18h10.03.366,vbt_B1_day4,2022.2.4,Win32,59.79073244,,,,,,,,,,,,,,,,,,,,flippen,images/br_flippen.png,images/cb_flippen.png,,flipp,,,,,,,,,,,0.337037122,-0.041666667,1,0,0,flipp,0,20,20,54,1
,,,,,00084,2023-10-25_18h10.03.366,vbt_B1_day4,2022.2.4,Win32,59.79073244,,,,,,,,,,,,,,,,,,,,mekst,images/br_mekst.png,images/cb_mekst.png,,me,,,,,,,,,,,0.337037122,-0.041666667,1,0,0,me,0,21,21,27,1
,,,,,00084,2023-10-25_18h10.03.366,vbt_B1_day4,2022.2.4,Win32,59.79073244,,,,,,,,,,,,,,,,,,,,weigeren,images/br_weigeren.png,images/cb_weigeren.png,,weigeren,,,,,,,,,,,0.337037122,-0.041666667,1,0,0,weigeren,0,22,22,16,1
,,,,,00084,2023-10-25_18h10.03.366,vbt_B1_day4,2022.2.4,Win32,59.79073244,,,,,,,,,,,,,,,,,,,,gedicht,images/br_gedicht.png,images/cb_gedicht.png,,gedic,,,,,,,,,,,0.337037122,-0.041666667,1,0,0,gedic,0,23,23,15,1
,,,,,00084,2023-10-25_18h10.03.366,vbt_B1_day4,2022.2.4,Win32,59.79073244,,,,,,,,,,,,,,,,,,,,oceaan,images/br_oceaan.png,images/cb_oceaan.png,,oceaan,,,,,,,,,,,0.337037122,-0.041666667,1,0,0,oceaan,0,24,24,10,1
,,,,,00084,2023-10-25_18h10.03.366,vbt_B1_day4,2022.2.4,Win32,59.79073244,,,,,,,,,,,,,,,,,,,,sulbon,images/br_sulbon.png,images/cb_sulbon.png,,sulb,,,,,,,,,,,0.337037122,-0.041666667,1,0,0,sulb,0,25,25,31,1
,,,,,00084,2023-10-25_18h10.03.366,vbt_B1_day4,2022.2.4,Win32,59.79073244,,,,,,,,,,,,,,,,,,,,kaal,images/br_kaal.png,images/cb_kaal.png,,kaal,,,,,,,,,,,0.337037122,-0.041666667,1,0,0,kaal,0,26,26,1,1
,,,,,00084,2023-10-25_18h10.03.366,vbt_B1_day4,2022.2.4,Win32,59.79073244,,,,,,,,,,,,,,,,,,,,midden,images/br_midden.png,images/cb_midden.png,,midden,,,,,,,,,,,0.337037122,-0.041666667,1,0,0,midden,0,27,27,50,1
,,,,,00084,2023-10-25_18h10.03.366,vbt_B1_day4,2022.2.4,Win32,59.79073244,,,,,,,,,,,,,,,,,,,,opkicht,images/br_opkicht.png,images/cb_opkicht.png,,opki,,,,,,,,,,,0.337037122,-0.041666667,1,0,0,opki,0,28,28,34,1
,,,,,00084,2023-10-25_18h10.03.366,vbt_B1_day4,2022.2.4,Win32,59.79073244,,,,,,,,,,,,,,,,,,,,seizoon,images/br_seizoon.png,images/cb_seizoon.png,,seizoo,,,,,,,,,,,0.337037122,-0.041666667,1,0,0,seizoo,0,29,29,33,1
,,,,,00084,2023-10-25_18h10.03.366,vbt_B1_day4,2022.2.4,Win32,59.79073244,,,,,,,,,,,,,,,,,,,,gijf,images/br_gijf.png,images/cb_gijf.png,,gijh,,,,,,,,,,,0.337037122,-0.041666667,1,0,0,gijh,0,30,30,23,1
,,,,,00084,2023-10-25_18h10.03.366,vbt_B1_day4,2022.2.4,Win32,59.79073244,,,,,,,,,,,,,,,,,,,,vreten,images/br_vreten.png,images/cb_vreten.png,,vreten,,,,,,,,,,,0.337037122,-0.041666667,1,0,0,vreten,0,31,31,11,1
,,,,,00084,2023-10-25_18h10.03.366,vbt_B1_day4,2022.2.4,Win32,59.79073244,,,,,,,,,,,,,,,,,,,,aanzwaag,images/br_aanzwaag.png,images/cb_aanzwaag.png,,aanz,,,,,,,,,,,0.337037122,-0.041666667,1,0,0,aanz,0,32,32,38,1
,,,,,00084,2023-10-25_18h10.03.366,vbt_B1_day4,2022.2.4,Win32,59.79073244,,,,,,,,,,,,,,,,,,,,apparaat,images/br_apparaat.png,images/cb_apparaat.png,,apparaat,,,,,,,,,,,0.337037122,-0.041666667,1,0,0,apparaat,0,33,33,17,1
,,,,,00084,2023-10-25_18h10.03.366,vbt_B1_day4,2022.2.4,Win32,59.79073244,,,,,,,,,,,,,,,,,,,,paalbaak,images/br_paalbaak.png,images/cb_paalbaak.png,,paalbaa,,,,,,,,,,,0.337037122,-0.041666667,1,0,0,paalbaa,0,34,34,39,1
,,,,,00084,2023-10-25_18h10.03.366,vbt_B1_day4,2022.2.4,Win32,59.79073244,,,,,,,,,,,,,,,,,,,,opruimen,images/br_opruimen.png,images/cb_opruimen.png,,opru,,,,,,,,,,,0.337037122,-0.041666667,1,0,0,opru,0,35,35,59,1
,,,,,00084,2023-10-25_18h10.03.366,vbt_B1_day4,2022.2.4,Win32,59.79073244,,,,,,,,,,,,,,,,,,,,broodje,images/br_broodje.png,images/cb_broodje.png,,brood,,,,,,,,,,,0.337037122,-0.041666667,1,0,0,brood,0,36,36,55,1
,,,,,00084,2023-10-25_18h10.03.366,vbt_B1_day4,2022.2.4,Win32,59.79073244,,,,,,,,,,,,,,,,,,,,lappen,images/br_lappen.png,images/cb_lappen.png,,lappen,,,,,,,,,,,0.337037122,-0.041666667,1,0,0,lappen,0,37,37,49,1
,,,,,00084,2023-10-25_18h10.03.366,vbt_B1_day4,2022.2.4,Win32,59.79073244,,,,,,,,,,,,,,,,,,,,bisschap,images/br_bisschap.png,images/cb_bisschap.png,,bissch,,,,,,,,,,,0.337037122,-0.041666667,1,0,0,bissch,0,38,38,36,1
,,,,,00084,2023-10-25_18h10.03.366,vbt_B1_day4,2022.2.4,Win32,59.79073244,,,,,,,,,,,,,,,,,,,,gebog,images/br_gebog.png,images/cb_gebog.png,,gebog,,,,,,,,,,,0.337037122,-0.041666667,1,0,0,gebog,0,39,39,24,1
,,,,,00084,2023-10-25_18h10.03.366,vbt_B1_day4,2022.2.4,Win32,59.79073244,,,,,,,,,,,,,,,,,,,,schenden,images/br_schenden.png,images/cb_schenden.png,,schen,,,,,,,,,,,0.337037122,-0.041666667,1,0,0,schen,0,40,40,57,1
,,,,,00084,2023-10-25_18h10.03.366,vbt_B1_day4,2022.2.4,Win32,59.79073244,,,,,,,,,,,,,,,,,,,,tucket,images/br_tucket.png,images/cb_tucket.png,,tuck,,,,,,,,,,,0.337037122,-0.041666667,1,0,0,tuck,0,41,41,30,1
,,,,,00084,2023-10-25_18h10.03.366,vbt_B1_day4,2022.2.4,Win32,59.79073244,,,,,,,,,,,,,,,,,,,,steen,images/br_steen.png,images/cb_steen.png,,steen,,,,,,,,,,,0.337037122,-0.040740755,1,0,0,steen,0,42,42,44,1
,,,,,00084,2023-10-25_18h10.03.366,vbt_B1_day4,2022.2.4,Win32,59.79073244,,,,,,,,,,,,,,,,,,,,bruin,images/br_bruin.png,images/cb_bruin.png,,bruin,,,,,,,,,,,0.337037122,-0.040740755,1,0,0,bruin,0,43,43,45,1
,,,,,00084,2023-10-25_18h10.03.366,vbt_B1_day4,2022.2.4,Win32,59.79073244,,,,,,,,,,,,,,,,,,,,getucht,images/br_getucht.png,images/cb_getucht.png,,getuc,,,,,,,,,,,0.337037122,-0.040740755,1,0,0,getuc,0,44,44,35,1
,,,,,00084,2023-10-25_18h10.03.366,vbt_B1_day4,2022.2.4,Win32,59.79073244,,,,,,,,,,,,,,,,,,,,snee,images/br_snee.png,images/cb_snee.png,,snee,,,,,,,,,,,0.337037122,-0.040740755,1,0,0,snee,0,45,45,40,1
,,,,,00084,2023-10-25_18h10.03.366,vbt_B1_day4,2022.2.4,Win32,59.79073244,,,,,,,,,,,,,,,,,,,,rijp,images/br_rijp.png,images/cb_rijp.png,,rej,,,,,,,,,,,0.337037122,-0.040740755,1,0,0,rej,0,46,46,2,1
,,,,,00084,2023-10-25_18h10.03.366,vbt_B1_day4,2022.2.4,Win32,59.79073244,,,,,,,,,,,,,,,,,,,,eerst,images/br_eerst.png,images/cb_eerst.png,,eerst,,,,,,,,,,,0.337037122,-0.040740755,1,0,0,eerst,0,47,47,47,1
,,,,,00084,2023-10-25_18h10.03.366,vbt_B1_day4,2022.2.4,Win32,59.79073244,,,,,,,,,,,,,,,,,,,,noodzaak,images/br_noodzaak.png,images/cb_noodzaak.png,,n,,,,,,,,,,,0.337037122,-0.040740755,1,0,0,n,0,48,48,56,1
,,,,,00084,2023-10-25_18h10.03.366,vbt_B1_day4,2022.2.4,Win32,59.79073244,,,,,,,,,,,,,,,,,,,,praat,images/br_praat.png,images/cb_praat.png,,praat,,,,,,,,,,,0.337037122,-0.040740755,1,0,0,praat,0,49,49,7,1
,,,,,00084,2023-10-25_18h10.03.366,vbt_B1_day4,2022.2.4,Win32,59.79073244,,,,,,,,,,,,,,,,,,,,soda,images/br_soda.png,images/cb_soda.png,,soda,,,,,,,,,,,0.337037122,-0.040740755,1,0,0,soda,0,50,50,3,1
,,,,,00084,2023-10-25_18h10.03.366,vbt_B1_day4,2022.2.4,Win32,59.79073244,,,,,,,,,,,,,,,,,,,,wozing,images/br_wozing.png,images/cb_wozing.png,,woz,,,,,,,,,,,0.337037122,-0.040740755,1,0,0,woz,0,51,51,28,1
,,,,,00084,2023-10-25_18h10.03.366,vbt_B1_day4,2022.2.4,Win32,59.79073244,,,,,,,,,,,,,,,,,,,,fran,images/br_fran.png,images/cb_fran.png,,fran,,,,,,,,,,,0.337037122,-0.040740755,1,0,0,fran,0,52,52,22,1
,,,,,00084,2023-10-25_18h10.03.366,vbt_B1_day4,2022.2.4,Win32,59.79073244,,,,,,,,,,,,,,,,,,,,geliefd,images/br_geliefd.png,images/cb_geliefd.png,,geliefd,,,,,,,,,,,0.337037122,-0.040740755,1,0,0,geliefd,0,53,53,14,1
,,,,,00084,2023-10-25_18h10.03.366,vbt_B1_day4,2022.2.4,Win32,59.79073244,,,,,,,,,,,,,,,,,,,,strok,images/br_strok.png,images/cb_strok.png,,strok,,,,,,,,,,,0.337037122,-0.040740755,1,0,0,strok,0,54,54,25,1
,,,,,00084,2023-10-25_18h10.03.366,vbt_B1_day4,2022.2.4,Win32,59.79073244,,,,,,,,,,,,,,,,,,,,dozijn,images/br_dozijn.png,images/cb_dozijn.png,,dozijn,,,,,,,,,,,0.337037122,-0.040740755,1,0,0,dozijn,0,55,55,48,1
,,,,,00084,2023-10-25_18h10.03.366,vbt_B1_day4,2022.2.4,Win32,59.79073244,,,,,,,,,,,,,,,,,,,,gebit,images/br_gebit.png,images/cb_gebit.png,,gebit,,,,,,,,,,,0.337037122,-0.040740755,1,0,0,gebit,0,56,56,6,1
,,,,,00084,2023-10-25_18h10.03.366,vbt_B1_day4,2022.2.4,Win32,59.79073244,,,,,,,,,,,,,,,,,,,,heengaan,images/br_heengaan.png,images/cb_heengaan.png,,heen,,,,,,,,,,,0.337037122,-0.040740755,1,0,0,heen,0,57,57,19,1
,,,,,00084,2023-10-25_18h10.03.366,vbt_B1_day4,2022.2.4,Win32,59.79073244,,,,,,,,,,,,,,,,,,,,stemming,images/br_stemming.png,images/cb_stemming.png,,stemming,,,,,,,,,,,0.337037122,-0.040740755,1,0,0,stemming,0,58,58,18,1
,,,,,00084,2023-10-25_18h10.03.366,vbt_B1_day4,2022.2.4,Win32,59.79073244,,,,,,,,,,,,,,,,,,,,pittig,images/br_pittig.png,images/cb_pittig.png,,pittig,,,,,,,,,,,0.337037122,-0.040740755,1,0,0,pittig,0,59,59,51,1
,,,,,00084,2023-10-25_18h10.03.366,vbt_B1_day4,2022.2.4,Win32,59.79073244,,,,,,,,,,,,,,,,,,,,,,,,,,,,,,,,,,,,,,,,,,,,,
