welcome_mouse.x,welcome_mouse.y,welcome_mouse.leftButton,welcome_mouse.midButton,welcome_mouse.rightButton,"ID",date,expName,psychopyVersion,OS,frameRate,trainInstr_mouse.x,trainInstr_mouse.y,trainInstr_mouse.leftButton,trainInstr_mouse.midButton,trainInstr_mouse.rightButton,translation_key.keys,translation_key.corr,translation_key.rt,word_rsp.text,trWrd_mouse.x,trWrd_mouse.y,trWrd_mouse.leftButton,trWrd_mouse.midButton,trWrd_mouse.rightButton,train_loop.thisRepN,train_loop.thisTrialN,train_loop.thisN,train_loop.thisIndex,train_loop.ran,nlWrd,brWrd,cbWrd,test,testResp,mouse.x,mouse.y,mouse.leftButton,mouse.midButton,mouse.rightButton,testInstr_mouse.x,testInstr_mouse.y,testInstr_mouse.leftButton,testInstr_mouse.midButton,testInstr_mouse.rightButton,test_mouse.x,test_mouse.y,test_mouse.leftButton,test_mouse.midButton,test_mouse.rightButton,test_response.text,test_loop.thisRepN,test_loop.thisTrialN,test_loop.thisN,test_loop.thisIndex,test_loop.ran
-0.106481481,-0.069444444,1,0,0,00080,2023-10-27_08h32.14.777,vbt_B1_day4,2022.2.4,Win32,60.02040694,,,,,,,,,,,,,,,,,,,,,,,,,,,,,,,,,,,,,,,,,,,,,
,,,,,00080,2023-10-27_08h32.14.777,vbt_B1_day4,2022.2.4,Win32,60.02040694,-0.106481481,-0.069444444,1,0,0,,,,,,,,,,,,,,,,,,,,,,,,,,,,,,,,,,,,,,,,
,,,,,00080,2023-10-27_08h32.14.777,vbt_B1_day4,2022.2.4,Win32,60.02040694,,,,,,down,0,2.7134,,-0.051851838,-0.053703697,1,0,0,0,0,0,79,1,nodig,images/br_nodig.png,images/cb_nodig.png,0,,,,,,,,,,,,,,,,,,,,,,
,,,,,00080,2023-10-27_08h32.14.777,vbt_B1_day4,2022.2.4,Win32,60.02040694,,,,,,down,0,3.8138,,-0.020370342,-0.057407414,1,0,0,0,1,1,66,1,lever,images/br_lever.png,images/cb_lever.png,1,lever,,,,,,,,,,,,,,,,,,,,,
,,,,,00080,2023-10-27_08h32.14.777,vbt_B1_day4,2022.2.4,Win32,60.02040694,,,,,,down,0,6.5994,,0.020370413,-0.046296296,1,0,0,0,2,2,160,1,daarheen,images/br_daarheen.png,images/cb_daarheen.png,0,,,,,,,,,,,,,,,,,,,,,,
,,,,,00080,2023-10-27_08h32.14.777,vbt_B1_day4,2022.2.4,Win32,60.02040694,,,,,,down,0,12.9819,,0.102777764,0.000925912,1,0,0,0,3,3,186,1,voorraad,images/br_voorraad.png,images/cb_voorraad.png,1,voorraad,,,,,,,,,,,,,,,,,,,,,
,,,,,00080,2023-10-27_08h32.14.777,vbt_B1_day4,2022.2.4,Win32,60.02040694,,,,,,down,0,6.9619,,0.104629658,0.000925912,1,0,0,0,4,4,178,1,huisdier,images/br_huisdier.png,images/cb_huisdier.png,0,,,,,,,,,,,,,,,,,,,,,,
,,,,,00080,2023-10-27_08h32.14.777,vbt_B1_day4,2022.2.4,Win32,60.02040694,,,,,,down,0,8.6473,,0.104629658,0.000925912,1,0,0,0,5,5,106,1,zingen,images/br_zingen.png,images/cb_zingen.png,1,zingen,,,,,,,,,,,,,,,,,,,,,
,,,,,00080,2023-10-27_08h32.14.777,vbt_B1_day4,2022.2.4,Win32,60.02040694,,,,,,down,0,0.9749,,0.281481496,0.033333319,1,0,0,0,6,6,83,1,mening,images/br_mening.png,images/cb_mening.png,0,,,,,,,,,,,,,,,,,,,,,,
,,,,,00080,2023-10-27_08h32.14.777,vbt_B1_day4,2022.2.4,Win32,60.02040694,,,,,,down,0,0.7668,,0.19722225,0.049074067,1,0,0,0,7,7,77,1,woede,images/br_woede.png,images/cb_woede.png,0,,,,,,,,,,,,,,,,,,,,,,
,,,,,00080,2023-10-27_08h32.14.777,vbt_B1_day4,2022.2.4,Win32,60.02040694,,,,,,down,0,0.3503,,0.19722225,0.049999979,1,0,0,0,8,8,28,1,stal,images/br_stal.png,images/cb_stal.png,0,,,,,,,,,,,,,,,,,,,,,,
,,,,,00080,2023-10-27_08h32.14.777,vbt_B1_day4,2022.2.4,Win32,60.02040694,,,,,,down,0,2.4596,,0.19722225,0.049999979,1,0,0,0,9,9,172,1,weigeren,images/br_weigeren.png,images/cb_weigeren.png,0,,,,,,,,,,,,,,,,,,,,,,
,,,,,00080,2023-10-27_08h32.14.777,vbt_B1_day4,2022.2.4,Win32,60.02040694,,,,,,down,0,1.3916,,0.19722225,0.049999979,1,0,0,0,10,10,155,1,gerucht,images/br_gerucht.png,images/cb_gerucht.png,0,,,,,,,,,,,,,,,,,,,,,,
,,,,,00080,2023-10-27_08h32.14.777,vbt_B1_day4,2022.2.4,Win32,60.02040694,,,,,,down,0,3.1493,,0.19722225,0.049999979,1,0,0,0,11,11,51,1,samen,images/br_samen.png,images/cb_samen.png,0,,,,,,,,,,,,,,,,,,,,,,
,,,,,00080,2023-10-27_08h32.14.777,vbt_B1_day4,2022.2.4,Win32,60.02040694,,,,,,down,0,0.1956,,0.211111139,0.049999979,1,0,0,0,12,12,103,1,joggen,images/br_joggen.png,images/cb_joggen.png,0,,,,,,,,,,,,,,,,,,,,,,
,,,,,00080,2023-10-27_08h32.14.777,vbt_B1_day4,2022.2.4,Win32,60.02040694,,,,,,down,0,2.6995,,0.211111139,0.049999979,1,0,0,0,13,13,92,1,geheim,images/br_geheim.png,images/cb_geheim.png,0,,,,,,,,,,,,,,,,,,,,,,
,,,,,00080,2023-10-27_08h32.14.777,vbt_B1_day4,2022.2.4,Win32,60.02040694,,,,,,down,0,1.6499,,0.211111139,0.049999979,1,0,0,0,14,14,25,1,plek,images/br_plek.png,images/cb_plek.png,1,plek,,,,,,,,,,,,,,,,,,,,,
,,,,,00080,2023-10-27_08h32.14.777,vbt_B1_day4,2022.2.4,Win32,60.02040694,,,,,,down,0,5.1657,,0.212037051,0.046296296,1,0,0,0,15,15,177,1,maaltijd,images/br_maaltijd.png,images/cb_maaltijd.png,0,,,,,,,,,,,,,,,,,,,,,,
,,,,,00080,2023-10-27_08h32.14.777,vbt_B1_day4,2022.2.4,Win32,60.02040694,,,,,,down,0,5.1654,,0.20185188,0.055555556,1,0,0,0,16,16,150,1,gegeven,images/br_gegeven.png,images/cb_gegeven.png,0,,,,,,,,,,,,,,,,,,,,,,
,,,,,00080,2023-10-27_08h32.14.777,vbt_B1_day4,2022.2.4,Win32,60.02040694,,,,,,down,0,2.7785,,0.232407393,0.041666667,1,0,0,0,17,17,89,1,slapen,images/br_slapen.png,images/cb_slapen.png,0,,,,,,,,,,,,,,,,,,,,,,
,,,,,00080,2023-10-27_08h32.14.777,vbt_B1_day4,2022.2.4,Win32,60.02040694,,,,,,down,0,5.8609,,0.228703746,0.048148155,1,0,0,0,18,18,104,1,zweven,images/br_zweven.png,images/cb_zweven.png,1,zweven,,,,,,,,,,,,,,,,,,,,,
,,,,,00080,2023-10-27_08h32.14.777,vbt_B1_day4,2022.2.4,Win32,60.02040694,,,,,,down,0,0.8003,,0.267592607,0.049074067,1,0,0,0,19,19,171,1,aarzelen,images/br_aarzelen.png,images/cb_aarzelen.png,0,,,,,,,,,,,,,,,,,,,,,,
,,,,,00080,2023-10-27_08h32.14.777,vbt_B1_day4,2022.2.4,Win32,60.02040694,,,,,,down,0,0.5166,,0.268518519,0.049074067,1,0,0,0,20,20,112,1,lukken,images/br_lukken.png,images/cb_lukken.png,0,,,,,,,,,,,,,,,,,,,,,,
,,,,,00080,2023-10-27_08h32.14.777,vbt_B1_day4,2022.2.4,Win32,60.02040694,,,,,,down,0,0.073,,0.268518519,0.049074067,1,0,0,0,21,21,58,1,tekst,images/br_tekst.png,images/cb_tekst.png,0,,,,,,,,,,,,,,,,,,,,,,
,,,,,00080,2023-10-27_08h32.14.777,vbt_B1_day4,2022.2.4,Win32,60.02040694,,,,,,down,0,1.622,,0.292592578,0.061111097,1,0,0,0,22,22,137,1,trekker,images/br_trekker.png,images/cb_trekker.png,0,,,,,,,,,,,,,,,,,,,,,,
,,,,,00080,2023-10-27_08h32.14.777,vbt_B1_day4,2022.2.4,Win32,60.02040694,,,,,,down,0,0.3503,,0.293518561,0.058333326,1,0,0,0,23,23,109,1,totaal,images/br_totaal.png,images/cb_totaal.png,0,,,,,,,,,,,,,,,,,,,,,,
,,,,,00080,2023-10-27_08h32.14.777,vbt_B1_day4,2022.2.4,Win32,60.02040694,,,,,,down,0,3.2326,,0.294444473,0.056481467,1,0,0,0,24,24,179,1,woestijn,images/br_woestijn.png,images/cb_woestijn.png,0,,,,,,,,,,,,,,,,,,,,,,
,,,,,00080,2023-10-27_08h32.14.777,vbt_B1_day4,2022.2.4,Win32,60.02040694,,,,,,down,0,1.8703,,0.294444473,0.056481467,1,0,0,0,25,25,14,1,rijp,images/br_rijp.png,images/cb_rijp.png,0,,,,,,,,,,,,,,,,,,,,,,
,,,,,00080,2023-10-27_08h32.14.777,vbt_B1_day4,2022.2.4,Win32,60.02040694,,,,,,down,0,0.0504,,0.294444473,0.056481467,1,0,0,0,26,26,30,1,uien,images/br_uien.png,images/cb_uien.png,0,,,,,,,,,,,,,,,,,,,,,,
,,,,,00080,2023-10-27_08h32.14.777,vbt_B1_day4,2022.2.4,Win32,60.02040694,,,,,,down,0,1.6999,,0.294444473,0.056481467,1,0,0,0,27,27,80,1,kanjer,images/br_kanjer.png,images/cb_kanjer.png,0,,,,,,,,,,,,,,,,,,,,,,
,,,,,00080,2023-10-27_08h32.14.777,vbt_B1_day4,2022.2.4,Win32,60.02040694,,,,,,down,0,2.4219,,0.294444473,0.056481467,1,0,0,0,28,28,197,1,spanning,images/br_spanning.png,images/cb_spanning.png,0,,,,,,,,,,,,,,,,,,,,,,
,,,,,00080,2023-10-27_08h32.14.777,vbt_B1_day4,2022.2.4,Win32,60.02040694,,,,,,down,0,1.8669,,0.294444473,0.056481467,1,0,0,0,29,29,26,1,leuk,images/br_leuk.png,images/cb_leuk.png,1,leuk,,,,,,,,,,,,,,,,,,,,,
,,,,,00080,2023-10-27_08h32.14.777,vbt_B1_day4,2022.2.4,Win32,60.02040694,,,,,,down,0,2.0129,,0.294444473,0.056481467,1,0,0,0,30,30,188,1,strekken,images/br_strekken.png,images/cb_strekken.png,0,,,,,,,,,,,,,,,,,,,,,,
,,,,,00080,2023-10-27_08h32.14.777,vbt_B1_day4,2022.2.4,Win32,60.02040694,,,,,,down,0,2.5277,,0.296296296,0.056481467,1,0,0,0,31,31,149,1,redding,images/br_redding.png,images/cb_redding.png,0,,,,,,,,,,,,,,,,,,,,,,
,,,,,00080,2023-10-27_08h32.14.777,vbt_B1_day4,2022.2.4,Win32,60.02040694,,,,,,down,0,2.1189,,0.275000042,0.043518526,1,0,0,0,32,32,29,1,baas,images/br_baas.png,images/cb_baas.png,0,,,,,,,,,,,,,,,,,,,,,,
,,,,,00080,2023-10-27_08h32.14.777,vbt_B1_day4,2022.2.4,Win32,60.02040694,,,,,,down,0,0.4347,,0.275000042,0.043518526,1,0,0,0,33,33,139,1,stiekem,images/br_stiekem.png,images/cb_stiekem.png,0,,,,,,,,,,,,,,,,,,,,,,
,,,,,00080,2023-10-27_08h32.14.777,vbt_B1_day4,2022.2.4,Win32,60.02040694,,,,,,down,0,0.0532,,0.275000042,0.043518526,1,0,0,0,34,34,46,1,jagen,images/br_jagen.png,images/cb_jagen.png,0,,,,,,,,,,,,,,,,,,,,,,
,,,,,00080,2023-10-27_08h32.14.777,vbt_B1_day4,2022.2.4,Win32,60.02040694,,,,,,down,0,1.3009,,0.275000042,0.043518526,1,0,0,0,35,35,37,1,mijn,images/br_mijn.png,images/cb_mijn.png,0,,,,,,,,,,,,,,,,,,,,,,
,,,,,00080,2023-10-27_08h32.14.777,vbt_B1_day4,2022.2.4,Win32,60.02040694,,,,,,down,0,2.1523,,0.275000042,0.043518526,1,0,0,0,36,36,127,1,doodmoe,images/br_doodmoe.png,images/cb_doodmoe.png,0,,,,,,,,,,,,,,,,,,,,,,
,,,,,00080,2023-10-27_08h32.14.777,vbt_B1_day4,2022.2.4,Win32,60.02040694,,,,,,down,0,0.2823,,0.275000042,0.043518526,1,0,0,0,37,37,82,1,muziek,images/br_muziek.png,images/cb_muziek.png,0,,,,,,,,,,,,,,,,,,,,,,
,,,,,00080,2023-10-27_08h32.14.777,vbt_B1_day4,2022.2.4,Win32,60.02040694,,,,,,down,0,1.0364,,0.275000042,0.043518526,1,0,0,0,38,38,125,1,aanzien,images/br_aanzien.png,images/cb_aanzien.png,0,,,,,,,,,,,,,,,,,,,,,,
,,,,,00080,2023-10-27_08h32.14.777,vbt_B1_day4,2022.2.4,Win32,60.02040694,,,,,,down,0,0.4838,,0.275000042,0.043518526,1,0,0,0,39,39,13,1,kaal,images/br_kaal.png,images/cb_kaal.png,0,,,,,,,,,,,,,,,,,,,,,,
,,,,,00080,2023-10-27_08h32.14.777,vbt_B1_day4,2022.2.4,Win32,60.02040694,,,,,,down,0,1.8593,,0.275000042,0.043518526,1,0,0,0,40,40,54,1,gebit,images/br_gebit.png,images/cb_gebit.png,0,,,,,,,,,,,,,,,,,,,,,,
,,,,,00080,2023-10-27_08h32.14.777,vbt_B1_day4,2022.2.4,Win32,60.02040694,,,,,,down,0,2.0517,,0.275000042,0.043518526,1,0,0,0,41,41,168,1,bisschop,images/br_bisschop.png,images/cb_bisschop.png,0,,,,,,,,,,,,,,,,,,,,,,
,,,,,00080,2023-10-27_08h32.14.777,vbt_B1_day4,2022.2.4,Win32,60.02040694,,,,,,down,0,0.5879,,0.275000042,0.043518526,1,0,0,0,42,42,56,1,traag,images/br_traag.png,images/cb_traag.png,0,,,,,,,,,,,,,,,,,,,,,,
,,,,,00080,2023-10-27_08h32.14.777,vbt_B1_day4,2022.2.4,Win32,60.02040694,,,,,,down,0,1.4334,,0.275000042,0.043518526,1,0,0,0,43,43,116,1,besmet,images/br_besmet.png,images/cb_besmet.png,0,,,,,,,,,,,,,,,,,,,,,,
,,,,,00080,2023-10-27_08h32.14.777,vbt_B1_day4,2022.2.4,Win32,60.02040694,,,,,,down,0,1.8331,,0.275000042,0.043518526,1,0,0,0,44,44,87,1,toeval,images/br_toeval.png,images/cb_toeval.png,0,,,,,,,,,,,,,,,,,,,,,,
,,,,,00080,2023-10-27_08h32.14.777,vbt_B1_day4,2022.2.4,Win32,60.02040694,,,,,,down,0,7.098,,0.275000042,0.043518526,1,0,0,0,45,45,107,1,maling,images/br_maling.png,images/cb_maling.png,1,maling,,,,,,,,,,,,,,,,,,,,,
,,,,,00080,2023-10-27_08h32.14.777,vbt_B1_day4,2022.2.4,Win32,60.02040694,,,,,,down,0,10.0351,,0.275000042,0.043518526,1,0,0,0,46,46,198,1,bedoelen,images/br_bedoelen.png,images/cb_bedoelen.png,0,,,,,,,,,,,,,,,,,,,,,,
,,,,,00080,2023-10-27_08h32.14.777,vbt_B1_day4,2022.2.4,Win32,60.02040694,,,,,,down,0,4.6491,,0.275000042,0.043518526,1,0,0,0,47,47,180,1,openbaar,images/br_openbaar.png,images/cb_openbaar.png,0,,,,,,,,,,,,,,,,,,,,,,
,,,,,00080,2023-10-27_08h32.14.777,vbt_B1_day4,2022.2.4,Win32,60.02040694,,,,,,down,0,0.5334,,0.275000042,0.043518526,1,0,0,0,48,48,124,1,bloeien,images/br_bloeien.png,images/cb_bloeien.png,0,,,,,,,,,,,,,,,,,,,,,,
,,,,,00080,2023-10-27_08h32.14.777,vbt_B1_day4,2022.2.4,Win32,60.02040694,,,,,,down,0,0.0838,,0.275000042,0.043518526,1,0,0,0,49,49,33,1,vlek,images/br_vlek.png,images/cb_vlek.png,0,,,,,,,,,,,,,,,,,,,,,,
,,,,,00080,2023-10-27_08h32.14.777,vbt_B1_day4,2022.2.4,Win32,60.02040694,,,,,,down,0,0.4003,,0.275000042,0.043518526,1,0,0,0,50,50,129,1,verhaal,images/br_verhaal.png,images/cb_verhaal.png,0,,,,,,,,,,,,,,,,,,,,,,
,,,,,00080,2023-10-27_08h32.14.777,vbt_B1_day4,2022.2.4,Win32,60.02040694,,,,,,down,0,0.4584,,0.275000042,0.043518526,1,0,0,0,51,51,114,1,vullen,images/br_vullen.png,images/cb_vullen.png,0,,,,,,,,,,,,,,,,,,,,,,
,,,,,00080,2023-10-27_08h32.14.777,vbt_B1_day4,2022.2.4,Win32,60.02040694,,,,,,down,0,0.5337,,0.275000042,0.043518526,1,0,0,0,52,52,102,1,legaal,images/br_legaal.png,images/cb_legaal.png,0,,,,,,,,,,,,,,,,,,,,,,
,,,,,00080,2023-10-27_08h32.14.777,vbt_B1_day4,2022.2.4,Win32,60.02040694,,,,,,down,0,0.4678,,0.275000042,0.043518526,1,0,0,0,53,53,167,1,eenhoorn,images/br_eenhoorn.png,images/cb_eenhoorn.png,0,,,,,,,,,,,,,,,,,,,,,,
,,,,,00080,2023-10-27_08h32.14.777,vbt_B1_day4,2022.2.4,Win32,60.02040694,,,,,,down,0,0.5336,,0.275000042,0.043518526,1,0,0,0,54,54,17,1,taal,images/br_taal.png,images/cb_taal.png,0,,,,,,,,,,,,,,,,,,,,,,
,,,,,00080,2023-10-27_08h32.14.777,vbt_B1_day4,2022.2.4,Win32,60.02040694,,,,,,down,0,0.4501,,0.275000042,0.043518526,1,0,0,0,55,55,74,1,graaf,images/br_graaf.png,images/cb_graaf.png,0,,,,,,,,,,,,,,,,,,,,,,
,,,,,00080,2023-10-27_08h32.14.777,vbt_B1_day4,2022.2.4,Win32,60.02040694,,,,,,down,0,0.1004,,0.275000042,0.043518526,1,0,0,0,56,56,2,1,jaar,images/br_jaar.png,images/cb_jaar.png,0,,,,,,,,,,,,,,,,,,,,,,
,,,,,00080,2023-10-27_08h32.14.777,vbt_B1_day4,2022.2.4,Win32,60.02040694,,,,,,down,0,1.981,,0.275000042,0.043518526,1,0,0,0,57,57,40,1,schep,images/br_schep.png,images/cb_schep.png,0,,,,,,,,,,,,,,,,,,,,,,
,,,,,00080,2023-10-27_08h32.14.777,vbt_B1_day4,2022.2.4,Win32,60.02040694,,,,,,down,0,1.4808,,0.275000042,0.043518526,1,0,0,0,58,58,132,1,grappen,images/br_grappen.png,images/cb_grappen.png,0,,,,,,,,,,,,,,,,,,,,,,
,,,,,00080,2023-10-27_08h32.14.777,vbt_B1_day4,2022.2.4,Win32,60.02040694,,,,,,down,0,5.932,,0.275000042,0.043518526,1,0,0,0,59,59,173,1,apparaat,images/br_apparaat.png,images/cb_apparaat.png,0,,,,,,,,,,,,,,,,,,,,,,
,,,,,00080,2023-10-27_08h32.14.777,vbt_B1_day4,2022.2.4,Win32,60.02040694,,,,,,down,0,1.3167,,0.275000042,0.043518526,1,0,0,0,60,60,15,1,soda,images/br_soda.png,images/cb_soda.png,0,,,,,,,,,,,,,,,,,,,,,,
,,,,,00080,2023-10-27_08h32.14.777,vbt_B1_day4,2022.2.4,Win32,60.02040694,,,,,,down,0,5.8066,,0.275000042,0.043518526,1,0,0,0,61,61,199,1,beseffen,images/br_beseffen.png,images/cb_beseffen.png,0,,,,,,,,,,,,,,,,,,,,,,
,,,,,00080,2023-10-27_08h32.14.777,vbt_B1_day4,2022.2.4,Win32,60.02040694,,,,,,down,0,0.6488,,0.275000042,0.043518526,1,0,0,0,62,62,151,1,aanzoek,images/br_aanzoek.png,images/cb_aanzoek.png,0,,,,,,,,,,,,,,,,,,,,,,
,,,,,00080,2023-10-27_08h32.14.777,vbt_B1_day4,2022.2.4,Win32,60.02040694,,,,,,down,0,0.3395,,0.275000042,0.043518526,1,0,0,0,63,63,48,1,steel,images/br_steel.png,images/cb_steel.png,0,,,,,,,,,,,,,,,,,,,,,,
,,,,,00080,2023-10-27_08h32.14.777,vbt_B1_day4,2022.2.4,Win32,60.02040694,,,,,,down,0,0.7193,,0.275000042,0.043518526,1,0,0,0,64,64,174,1,stemming,images/br_stemming.png,images/cb_stemming.png,0,,,,,,,,,,,,,,,,,,,,,,
,,,,,00080,2023-10-27_08h32.14.777,vbt_B1_day4,2022.2.4,Win32,60.02040694,,,,,,down,0,2.6213,,0.275000042,0.043518526,1,0,0,0,65,65,189,1,aanraden,images/br_aanraden.png,images/cb_aanraden.png,0,,,,,,,,,,,,,,,,,,,,,,
,,,,,00080,2023-10-27_08h32.14.777,vbt_B1_day4,2022.2.4,Win32,60.02040694,,,,,,down,0,0.6307,,0.275000042,0.043518526,1,0,0,0,66,66,78,1,leren,images/br_leren.png,images/cb_leren.png,0,,,,,,,,,,,,,,,,,,,,,,
,,,,,00080,2023-10-27_08h32.14.777,vbt_B1_day4,2022.2.4,Win32,60.02040694,,,,,,down,0,0.9257,,0.275000042,0.043518526,1,0,0,0,67,67,117,1,kennis,images/br_kennis.png,images/cb_kennis.png,0,,,,,,,,,,,,,,,,,,,,,,
,,,,,00080,2023-10-27_08h32.14.777,vbt_B1_day4,2022.2.4,Win32,60.02040694,,,,,,down,0,0.5809,,0.275000042,0.043518526,1,0,0,0,68,68,101,1,staren,images/br_staren.png,images/cb_staren.png,0,,,,,,,,,,,,,,,,,,,,,,
,,,,,00080,2023-10-27_08h32.14.777,vbt_B1_day4,2022.2.4,Win32,60.02040694,,,,,,down,0,1.7639,,0.275000042,0.043518526,1,0,0,0,69,69,161,1,attentie,images/br_attentie.png,images/cb_attentie.png,0,,,,,,,,,,,,,,,,,,,,,,
,,,,,00080,2023-10-27_08h32.14.777,vbt_B1_day4,2022.2.4,Win32,60.02040694,,,,,,down,0,5.4652,,0.275000042,0.043518526,1,0,0,0,70,70,181,1,toegeven,images/br_toegeven.png,images/cb_toegeven.png,0,,,,,,,,,,,,,,,,,,,,,,
,,,,,00080,2023-10-27_08h32.14.777,vbt_B1_day4,2022.2.4,Win32,60.02040694,,,,,,down,0,0.3501,,0.275000042,0.043518526,1,0,0,0,71,71,43,1,klauw,images/br_klauw.png,images/cb_klauw.png,0,,,,,,,,,,,,,,,,,,,,,,
,,,,,00080,2023-10-27_08h32.14.777,vbt_B1_day4,2022.2.4,Win32,60.02040694,,,,,,down,0,2.01,,0.275000042,0.043518526,1,0,0,0,72,72,194,1,driemaal,images/br_driemaal.png,images/cb_driemaal.png,0,,,,,,,,,,,,,,,,,,,,,,
,,,,,00080,2023-10-27_08h32.14.777,vbt_B1_day4,2022.2.4,Win32,60.02040694,,,,,,down,0,0.9165,,0.275000042,0.043518526,1,0,0,0,73,73,71,1,bever,images/br_bever.png,images/cb_bever.png,0,,,,,,,,,,,,,,,,,,,,,,
,,,,,00080,2023-10-27_08h32.14.777,vbt_B1_day4,2022.2.4,Win32,60.02040694,,,,,,down,0,0.3311,,0.275000042,0.043518526,1,0,0,0,74,74,140,1,blijven,images/br_blijven.png,images/cb_blijven.png,0,,,,,,,,,,,,,,,,,,,,,,
,,,,,00080,2023-10-27_08h32.14.777,vbt_B1_day4,2022.2.4,Win32,60.02040694,,,,,,down,0,3.588,,0.275000042,0.043518526,1,0,0,0,75,75,159,1,sufferd,images/br_sufferd.png,images/cb_sufferd.png,0,,,,,,,,,,,,,,,,,,,,,,
,,,,,00080,2023-10-27_08h32.14.777,vbt_B1_day4,2022.2.4,Win32,60.02040694,,,,,,down,0,2.275,,0.275000042,0.043518526,1,0,0,0,76,76,9,1,hier,images/br_hier.png,images/cb_hier.png,0,,,,,,,,,,,,,,,,,,,,,,
,,,,,00080,2023-10-27_08h32.14.777,vbt_B1_day4,2022.2.4,Win32,60.02040694,,,,,,down,0,1.1668,,0.275000042,0.043518526,1,0,0,0,77,77,91,1,gezond,images/br_gezond.png,images/cb_gezond.png,0,,,,,,,,,,,,,,,,,,,,,,
,,,,,00080,2023-10-27_08h32.14.777,vbt_B1_day4,2022.2.4,Win32,60.02040694,,,,,,down,0,0.067,,0.275000042,0.043518526,1,0,0,0,78,78,55,1,praat,images/br_praat.png,images/cb_praat.png,0,,,,,,,,,,,,,,,,,,,,,,
,,,,,00080,2023-10-27_08h32.14.777,vbt_B1_day4,2022.2.4,Win32,60.02040694,,,,,,down,0,0.2169,,0.275000042,0.043518526,1,0,0,0,79,79,19,1,geit,images/br_geit.png,images/cb_geit.png,0,,,,,,,,,,,,,,,,,,,,,,
,,,,,00080,2023-10-27_08h32.14.777,vbt_B1_day4,2022.2.4,Win32,60.02040694,,,,,,down,0,2.6162,,0.275000042,0.043518526,1,0,0,0,80,80,163,1,schuilen,images/br_schuilen.png,images/cb_schuilen.png,0,,,,,,,,,,,,,,,,,,,,,,
,,,,,00080,2023-10-27_08h32.14.777,vbt_B1_day4,2022.2.4,Win32,60.02040694,,,,,,down,0,0.6834,,0.275000042,0.043518526,1,0,0,0,81,81,118,1,vinger,images/br_vinger.png,images/cb_vinger.png,0,,,,,,,,,,,,,,,,,,,,,,
,,,,,00080,2023-10-27_08h32.14.777,vbt_B1_day4,2022.2.4,Win32,60.02040694,,,,,,down,0,0.3012,,0.275000042,0.043518526,1,0,0,0,82,82,68,1,schat,images/br_schat.png,images/cb_schat.png,0,,,,,,,,,,,,,,,,,,,,,,
,,,,,00080,2023-10-27_08h32.14.777,vbt_B1_day4,2022.2.4,Win32,60.02040694,,,,,,down,0,1.0668,,0.275000042,0.043518526,1,0,0,0,83,83,195,1,middelen,images/br_middelen.png,images/cb_middelen.png,0,,,,,,,,,,,,,,,,,,,,,,
,,,,,00080,2023-10-27_08h32.14.777,vbt_B1_day4,2022.2.4,Win32,60.02040694,,,,,,down,0,1.9027,,0.275000042,0.043518526,1,0,0,0,84,84,157,1,uitlaat,images/br_uitlaat.png,images/cb_uitlaat.png,0,,,,,,,,,,,,,,,,,,,,,,
,,,,,00080,2023-10-27_08h32.14.777,vbt_B1_day4,2022.2.4,Win32,60.02040694,,,,,,down,0,2.1889,,0.187037079,-0.052777785,1,0,0,0,85,85,183,1,getuigen,images/br_getuigen.png,images/cb_getuigen.png,0,,,,,,,,,,,,,,,,,,,,,,
,,,,,00080,2023-10-27_08h32.14.777,vbt_B1_day4,2022.2.4,Win32,60.02040694,,,,,,down,0,3.4394,,0.187037079,-0.054629644,1,0,0,0,86,86,143,1,hechten,images/br_hechten.png,images/cb_hechten.png,0,,,,,,,,,,,,,,,,,,,,,,
,,,,,00080,2023-10-27_08h32.14.777,vbt_B1_day4,2022.2.4,Win32,60.02040694,,,,,,down,0,0.0382,,0.186111097,-0.054629644,1,0,0,0,87,87,49,1,laken,images/br_laken.png,images/cb_laken.png,0,,,,,,,,,,,,,,,,,,,,,,
,,,,,00080,2023-10-27_08h32.14.777,vbt_B1_day4,2022.2.4,Win32,60.02040694,,,,,,down,0,0.4711,,0.186111097,-0.054629644,1,0,0,0,88,88,86,1,woning,images/br_woning.png,images/cb_woning.png,0,,,,,,,,,,,,,,,,,,,,,,
,,,,,00080,2023-10-27_08h32.14.777,vbt_B1_day4,2022.2.4,Win32,60.02040694,,,,,,down,0,2.2012,,0.180555556,-0.046296296,1,0,0,0,89,89,169,1,oprotten,images/br_oprotten.png,images/cb_oprotten.png,0,,,,,,,,,,,,,,,,,,,,,,
,,,,,00080,2023-10-27_08h32.14.777,vbt_B1_day4,2022.2.4,Win32,60.02040694,,,,,,down,0,1.3999,,0.180555556,-0.046296296,1,0,0,0,90,90,90,1,geluid,images/br_geluid.png,images/cb_geluid.png,0,,,,,,,,,,,,,,,,,,,,,,
,,,,,00080,2023-10-27_08h32.14.777,vbt_B1_day4,2022.2.4,Win32,60.02040694,,,,,,down,0,0.75,,0.172222208,-0.041666667,1,0,0,0,91,91,164,1,anarchie,images/br_anarchie.png,images/cb_anarchie.png,0,,,,,,,,,,,,,,,,,,,,,,
,,,,,00080,2023-10-27_08h32.14.777,vbt_B1_day4,2022.2.4,Win32,60.02040694,,,,,,down,0,0.1865,,0.172222208,-0.041666667,1,0,0,0,92,92,69,1,waken,images/br_waken.png,images/cb_waken.png,0,,,,,,,,,,,,,,,,,,,,,,
,,,,,00080,2023-10-27_08h32.14.777,vbt_B1_day4,2022.2.4,Win32,60.02040694,,,,,,down,0,2.0619,,0.172222208,-0.041666667,1,0,0,0,93,93,136,1,waarbij,images/br_waarbij.png,images/cb_waarbij.png,0,,,,,,,,,,,,,,,,,,,,,,
,,,,,00080,2023-10-27_08h32.14.777,vbt_B1_day4,2022.2.4,Win32,60.02040694,,,,,,down,0,5.8609,,0.172222208,-0.041666667,1,0,0,0,94,94,65,1,parel,images/br_parel.png,images/cb_parel.png,1,parel,,,,,,,,,,,,,,,,,,,,,
,,,,,00080,2023-10-27_08h32.14.777,vbt_B1_day4,2022.2.4,Win32,60.02040694,,,,,,down,0,5.6817,,0.172222208,-0.041666667,1,0,0,0,95,95,64,1,wegen,images/br_wegen.png,images/cb_wegen.png,1,wegen,,,,,,,,,,,,,,,,,,,,,
,,,,,00080,2023-10-27_08h32.14.777,vbt_B1_day4,2022.2.4,Win32,60.02040694,,,,,,down,0,8.0125,,0.189814815,-0.046296296,1,0,0,0,96,96,88,1,boeien,images/br_boeien.png,images/cb_boeien.png,0,,,,,,,,,,,,,,,,,,,,,,
,,,,,00080,2023-10-27_08h32.14.777,vbt_B1_day4,2022.2.4,Win32,60.02040694,,,,,,down,0,3.0782,,0.186111097,-0.042592614,1,0,0,0,97,97,148,1,smullen,images/br_smullen.png,images/cb_smullen.png,0,,,,,,,,,,,,,,,,,,,,,,
,,,,,00080,2023-10-27_08h32.14.777,vbt_B1_day4,2022.2.4,Win32,60.02040694,,,,,,down,0,9.6184,,0.180555556,-0.041666667,1,0,0,0,98,98,70,1,ijdel,images/br_ijdel.png,images/cb_ijdel.png,0,,,,,,,,,,,,,,,,,,,,,,
,,,,,00080,2023-10-27_08h32.14.777,vbt_B1_day4,2022.2.4,Win32,60.02040694,,,,,,down,0,0.8034,,0.180555556,-0.041666667,1,0,0,0,99,99,126,1,kasteel,images/br_kasteel.png,images/cb_kasteel.png,0,,,,,,,,,,,,,,,,,,,,,,
,,,,,00080,2023-10-27_08h32.14.777,vbt_B1_day4,2022.2.4,Win32,60.02040694,,,,,,down,0,1.2292,,0.180555556,-0.041666667,1,0,0,0,100,100,142,1,snuiven,images/br_snuiven.png,images/cb_snuiven.png,0,,,,,,,,,,,,,,,,,,,,,,
,,,,,00080,2023-10-27_08h32.14.777,vbt_B1_day4,2022.2.4,Win32,60.02040694,,,,,,down,0,7.595,,0.180555556,-0.041666667,1,0,0,0,101,101,85,1,heilig,images/br_heilig.png,images/cb_heilig.png,0,,,,,,,,,,,,,,,,,,,,,,
,,,,,00080,2023-10-27_08h32.14.777,vbt_B1_day4,2022.2.4,Win32,60.02040694,,,,,,down,0,0.2839,,0.180555556,-0.041666667,1,0,0,0,102,102,39,1,laag,images/br_laag.png,images/cb_laag.png,0,,,,,,,,,,,,,,,,,,,,,,
,,,,,00080,2023-10-27_08h32.14.777,vbt_B1_day4,2022.2.4,Win32,60.02040694,,,,,,down,0,0.6681,,0.180555556,-0.041666667,1,0,0,0,103,103,100,1,geduld,images/br_geduld.png,images/cb_geduld.png,0,,,,,,,,,,,,,,,,,,,,,,
,,,,,00080,2023-10-27_08h32.14.777,vbt_B1_day4,2022.2.4,Win32,60.02040694,,,,,,down,0,1.1334,,0.180555556,-0.041666667,1,0,0,0,104,104,60,1,jasje,images/br_jasje.png,images/cb_jasje.png,0,,,,,,,,,,,,,,,,,,,,,,
,,,,,00080,2023-10-27_08h32.14.777,vbt_B1_day4,2022.2.4,Win32,60.02040694,,,,,,down,0,2.9053,,0.180555556,-0.041666667,1,0,0,0,105,105,162,1,uitdelen,images/br_uitdelen.png,images/cb_uitdelen.png,0,,,,,,,,,,,,,,,,,,,,,,
,,,,,00080,2023-10-27_08h32.14.777,vbt_B1_day4,2022.2.4,Win32,60.02040694,,,,,,down,0,6.3602,,0.180555556,-0.041666667,1,0,0,0,106,106,146,1,opkomen,images/br_opkomen.png,images/cb_opkomen.png,1,opkomen,,,,,,,,,,,,,,,,,,,,,
,,,,,00080,2023-10-27_08h32.14.777,vbt_B1_day4,2022.2.4,Win32,60.02040694,,,,,,down,0,1.2668,,0.175925926,-0.040740755,1,0,0,0,107,107,131,1,opzicht,images/br_opzicht.png,images/cb_opzicht.png,0,,,,,,,,,,,,,,,,,,,,,,
,,,,,00080,2023-10-27_08h32.14.777,vbt_B1_day4,2022.2.4,Win32,60.02040694,,,,,,down,0,0.4564,,0.15370369,-0.054629644,1,0,0,0,108,108,36,1,vuur,images/br_vuur.png,images/cb_vuur.png,0,,,,,,,,,,,,,,,,,,,,,,
,,,,,00080,2023-10-27_08h32.14.777,vbt_B1_day4,2022.2.4,Win32,60.02040694,,,,,,down,0,4.0156,,0.15370369,-0.054629644,1,0,0,0,109,109,190,1,goedkoop,images/br_goedkoop.png,images/cb_goedkoop.png,0,,,,,,,,,,,,,,,,,,,,,,
,,,,,00080,2023-10-27_08h32.14.777,vbt_B1_day4,2022.2.4,Win32,60.02040694,,,,,,down,0,0.4791,,0.15370369,-0.054629644,1,0,0,0,110,110,10,1,leek,images/br_leek.png,images/cb_leek.png,0,,,,,,,,,,,,,,,,,,,,,,
,,,,,00080,2023-10-27_08h32.14.777,vbt_B1_day4,2022.2.4,Win32,60.02040694,,,,,,down,0,0.2568,,0.15370369,-0.054629644,1,0,0,0,111,111,113,1,koppen,images/br_koppen.png,images/cb_koppen.png,0,,,,,,,,,,,,,,,,,,,,,,
,,,,,00080,2023-10-27_08h32.14.777,vbt_B1_day4,2022.2.4,Win32,60.02040694,,,,,,down,0,1.1168,,0.164814843,-0.058333326,1,0,0,0,112,112,76,1,afval,images/br_afval.png,images/cb_afval.png,0,,,,,,,,,,,,,,,,,,,,,,
,,,,,00080,2023-10-27_08h32.14.777,vbt_B1_day4,2022.2.4,Win32,60.02040694,,,,,,down,0,0.7209,,0.164814843,-0.058333326,1,0,0,0,113,113,97,1,loyaal,images/br_loyaal.png,images/cb_loyaal.png,0,,,,,,,,,,,,,,,,,,,,,,
,,,,,00080,2023-10-27_08h32.14.777,vbt_B1_day4,2022.2.4,Win32,60.02040694,,,,,,down,0,1.683,,0.164814843,-0.058333326,1,0,0,0,114,114,182,1,bijkomen,images/br_bijkomen.png,images/cb_bijkomen.png,0,,,,,,,,,,,,,,,,,,,,,,
,,,,,00080,2023-10-27_08h32.14.777,vbt_B1_day4,2022.2.4,Win32,60.02040694,,,,,,down,0,0.7823,,0.164814843,-0.058333326,1,0,0,0,115,115,12,1,kust,images/br_kust.png,images/cb_kust.png,0,,,,,,,,,,,,,,,,,,,,,,
,,,,,00080,2023-10-27_08h32.14.777,vbt_B1_day4,2022.2.4,Win32,60.02040694,,,,,,down,0,8.9641,,0.168518561,-0.067592586,1,0,0,0,116,116,123,1,hiervan,images/br_hiervan.png,images/cb_hiervan.png,0,,,,,,,,,,,,,,,,,,,,,,
,,,,,00080,2023-10-27_08h32.14.777,vbt_B1_day4,2022.2.4,Win32,60.02040694,,,,,,down,0,3.7159,,0.170370384,-0.067592586,1,0,0,0,117,117,187,1,opkijken,images/br_opkijken.png,images/cb_opkijken.png,1,opkijken,,,,,,,,,,,,,,,,,,,,,
,,,,,00080,2023-10-27_08h32.14.777,vbt_B1_day4,2022.2.4,Win32,60.02040694,,,,,,down,0,2.1999,,0.170370384,-0.067592586,1,0,0,0,118,118,119,1,liefje,images/br_liefje.png,images/cb_liefje.png,0,,,,,,,,,,,,,,,,,,,,,,
,,,,,00080,2023-10-27_08h32.14.777,vbt_B1_day4,2022.2.4,Win32,60.02040694,,,,,,down,0,3.4158,,0.170370384,-0.067592586,1,0,0,0,119,119,63,1,flirt,images/br_flirt.png,images/cb_flirt.png,0,,,,,,,,,,,,,,,,,,,,,,
,,,,,00080,2023-10-27_08h32.14.777,vbt_B1_day4,2022.2.4,Win32,60.02040694,,,,,,down,0,1.2824,,0.164814843,-0.081481474,1,0,0,0,120,120,59,1,kring,images/br_kring.png,images/cb_kring.png,0,,,,,,,,,,,,,,,,,,,,,,
,,,,,00080,2023-10-27_08h32.14.777,vbt_B1_day4,2022.2.4,Win32,60.02040694,,,,,,down,0,4.2156,,0.164814843,-0.081481474,1,0,0,0,121,121,122,1,waarvan,images/br_waarvan.png,images/cb_waarvan.png,0,,,,,,,,,,,,,,,,,,,,,,
,,,,,00080,2023-10-27_08h32.14.777,vbt_B1_day4,2022.2.4,Win32,60.02040694,,,,,,down,0,0.5793,,0.164814843,-0.081481474,1,0,0,0,122,122,22,1,stof,images/br_stof.png,images/cb_stof.png,0,,,,,,,,,,,,,,,,,,,,,,
,,,,,00080,2023-10-27_08h32.14.777,vbt_B1_day4,2022.2.4,Win32,60.02040694,,,,,,down,0,0.1015,,0.164814843,-0.081481474,1,0,0,0,123,123,52,1,wagon,images/br_wagon.png,images/cb_wagon.png,0,,,,,,,,,,,,,,,,,,,,,,
,,,,,00080,2023-10-27_08h32.14.777,vbt_B1_day4,2022.2.4,Win32,60.02040694,,,,,,down,0,4.2316,,0.164814843,-0.081481474,1,0,0,0,124,124,94,1,oceaan,images/br_oceaan.png,images/cb_oceaan.png,0,,,,,,,,,,,,,,,,,,,,,,
,,,,,00080,2023-10-27_08h32.14.777,vbt_B1_day4,2022.2.4,Win32,60.02040694,,,,,,down,0,0.4512,,0.164814843,-0.081481474,1,0,0,0,125,125,31,1,poes,images/br_poes.png,images/cb_poes.png,0,,,,,,,,,,,,,,,,,,,,,,
,,,,,00080,2023-10-27_08h32.14.777,vbt_B1_day4,2022.2.4,Win32,60.02040694,,,,,,down,0,1.2457,,0.164814843,-0.081481474,1,0,0,0,126,126,72,1,strak,images/br_strak.png,images/cb_strak.png,0,,,,,,,,,,,,,,,,,,,,,,
,,,,,00080,2023-10-27_08h32.14.777,vbt_B1_day4,2022.2.4,Win32,60.02040694,,,,,,down,0,0.3983,,0.164814843,-0.081481474,1,0,0,0,127,127,120,1,klimmen,images/br_klimmen.png,images/cb_klimmen.png,0,,,,,,,,,,,,,,,,,,,,,,
,,,,,00080,2023-10-27_08h32.14.777,vbt_B1_day4,2022.2.4,Win32,60.02040694,,,,,,down,0,0.4504,,0.164814843,-0.081481474,1,0,0,0,128,128,62,1,knaap,images/br_knaap.png,images/cb_knaap.png,0,,,,,,,,,,,,,,,,,,,,,,
,,,,,00080,2023-10-27_08h32.14.777,vbt_B1_day4,2022.2.4,Win32,60.02040694,,,,,,down,0,3.3449,,0.164814843,-0.081481474,1,0,0,0,129,129,0,1,slak,images/br_slak.png,images/cb_slak.png,0,,,,,,,,,,,,,,,,,,,,,,
,,,,,00080,2023-10-27_08h32.14.777,vbt_B1_day4,2022.2.4,Win32,60.02040694,,,,,,down,0,19.6603,,0.256481524,-0.099074116,1,0,0,0,130,130,145,1,invloed,images/br_invloed.png,images/cb_invloed.png,1,invloed,,,,,,,,,,,,,,,,,,,,,
,,,,,00080,2023-10-27_08h32.14.777,vbt_B1_day4,2022.2.4,Win32,60.02040694,,,,,,down,0,4.1449,,0.256481524,-0.099074116,1,0,0,0,131,131,166,1,strikken,images/br_strikken.png,images/cb_strikken.png,0,,,,,,,,,,,,,,,,,,,,,,
,,,,,00080,2023-10-27_08h32.14.777,vbt_B1_day4,2022.2.4,Win32,60.02040694,,,,,,down,0,0.4578,,0.256481524,-0.099074116,1,0,0,0,132,132,98,1,kreeft,images/br_kreeft.png,images/cb_kreeft.png,0,,,,,,,,,,,,,,,,,,,,,,
,,,,,00080,2023-10-27_08h32.14.777,vbt_B1_day4,2022.2.4,Win32,60.02040694,,,,,,down,0,0.5294,,0.256481524,-0.099074116,1,0,0,0,133,133,18,1,blik,images/br_blik.png,images/cb_blik.png,0,,,,,,,,,,,,,,,,,,,,,,
,,,,,00080,2023-10-27_08h32.14.777,vbt_B1_day4,2022.2.4,Win32,60.02040694,,,,,,down,0,1,,0.255555541,-0.101851852,1,0,0,0,134,134,11,1,mode,images/br_mode.png,images/cb_mode.png,0,,,,,,,,,,,,,,,,,,,,,,
,,,,,00080,2023-10-27_08h32.14.777,vbt_B1_day4,2022.2.4,Win32,60.02040694,,,,,,down,0,2.2331,,0.234259288,-0.10092594,1,0,0,0,135,135,38,1,baai,images/br_baai.png,images/cb_baai.png,0,,,,,,,,,,,,,,,,,,,,,,
,,,,,00080,2023-10-27_08h32.14.777,vbt_B1_day4,2022.2.4,Win32,60.02040694,,,,,,down,0,0.6253,,0.234259288,-0.10092594,1,0,0,0,136,136,16,1,ziek,images/br_ziek.png,images/cb_ziek.png,0,,,,,,,,,,,,,,,,,,,,,,
,,,,,00080,2023-10-27_08h32.14.777,vbt_B1_day4,2022.2.4,Win32,60.02040694,,,,,,down,0,0.3124,,0.234259288,-0.10092594,1,0,0,0,137,137,128,1,prikken,images/br_prikken.png,images/cb_prikken.png,0,,,,,,,,,,,,,,,,,,,,,,
,,,,,00080,2023-10-27_08h32.14.777,vbt_B1_day4,2022.2.4,Win32,60.02040694,,,,,,down,0,0.3221,,0.234259288,-0.10092594,1,0,0,0,138,138,44,1,flits,images/br_flits.png,images/cb_flits.png,0,,,,,,,,,,,,,,,,,,,,,,
,,,,,00080,2023-10-27_08h32.14.777,vbt_B1_day4,2022.2.4,Win32,60.02040694,,,,,,down,0,1.8497,,0.234259288,-0.10092594,1,0,0,0,139,139,133,1,seizoen,images/br_seizoen.png,images/cb_seizoen.png,0,,,,,,,,,,,,,,,,,,,,,,
,,,,,00080,2023-10-27_08h32.14.777,vbt_B1_day4,2022.2.4,Win32,60.02040694,,,,,,down,0,1.1333,,0.234259288,-0.10092594,1,0,0,0,140,140,8,1,knie,images/br_knie.png,images/cb_knie.png,0,,,,,,,,,,,,,,,,,,,,,,
,,,,,00080,2023-10-27_08h32.14.777,vbt_B1_day4,2022.2.4,Win32,60.02040694,,,,,,down,0,2.5162,,0.233333376,-0.09629631,1,0,0,0,141,141,154,1,aflopen,images/br_aflopen.png,images/cb_aflopen.png,0,,,,,,,,,,,,,,,,,,,,,,
,,,,,00080,2023-10-27_08h32.14.777,vbt_B1_day4,2022.2.4,Win32,60.02040694,,,,,,down,0,7.1777,,0.233333376,-0.09629631,1,0,0,0,142,142,105,1,wijlen,images/br_wijlen.png,images/cb_wijlen.png,1,wijlen,,,,,,,,,,,,,,,,,,,,,
,,,,,00080,2023-10-27_08h32.14.777,vbt_B1_day4,2022.2.4,Win32,60.02040694,,,,,,down,0,2.5496,,0.314814815,-0.072222215,1,0,0,0,143,143,53,1,baron,images/br_baron.png,images/cb_baron.png,0,,,,,,,,,,,,,,,,,,,,,,
,,,,,00080,2023-10-27_08h32.14.777,vbt_B1_day4,2022.2.4,Win32,60.02040694,,,,,,down,0,5.6816,,0.30277775,-0.077777792,1,0,0,0,144,144,121,1,twijfel,images/br_twijfel.png,images/cb_twijfel.png,0,,,,,,,,,,,,,,,,,,,,,,
,,,,,00080,2023-10-27_08h32.14.777,vbt_B1_day4,2022.2.4,Win32,60.02040694,,,,,,down,0,3.466,,0.308333362,-0.061111132,1,0,0,0,145,145,134,1,geliefd,images/br_geliefd.png,images/cb_geliefd.png,0,,,,,,,,,,,,,,,,,,,,,,
,,,,,00080,2023-10-27_08h32.14.777,vbt_B1_day4,2022.2.4,Win32,60.02040694,,,,,,down,0,8.8808,,0.308333362,-0.061111132,1,0,0,0,146,146,185,1,mijnheer,images/br_mijnheer.png,images/cb_mijnheer.png,1,mijnheer,,,,,,,,,,,,,,,,,,,,,
,,,,,00080,2023-10-27_08h32.14.777,vbt_B1_day4,2022.2.4,Win32,60.02040694,,,,,,down,0,0.2299,,0.365740741,-0.070370392,1,0,0,0,147,147,41,1,maken,images/br_maken.png,images/cb_maken.png,0,,,,,,,,,,,,,,,,,,,,,,
,,,,,00080,2023-10-27_08h32.14.777,vbt_B1_day4,2022.2.4,Win32,60.02040694,,,,,,down,0,1.5175,,0.365740741,-0.070370392,1,0,0,0,148,148,95,1,vreten,images/br_vreten.png,images/cb_vreten.png,0,,,,,,,,,,,,,,,,,,,,,,
,,,,,00080,2023-10-27_08h32.14.777,vbt_B1_day4,2022.2.4,Win32,60.02040694,,,,,,down,0,2.2828,,0.365740741,-0.070370392,1,0,0,0,149,149,108,1,excuus,images/br_excuus.png,images/cb_excuus.png,0,,,,,,,,,,,,,,,,,,,,,,
,,,,,00080,2023-10-27_08h32.14.777,vbt_B1_day4,2022.2.4,Win32,60.02040694,,,,,,down,0,0.3004,,0.365740741,-0.070370392,1,0,0,0,150,150,115,1,kleren,images/br_kleren.png,images/cb_kleren.png,0,,,,,,,,,,,,,,,,,,,,,,
,,,,,00080,2023-10-27_08h32.14.777,vbt_B1_day4,2022.2.4,Win32,60.02040694,,,,,,down,0,3.2412,,0.365740741,-0.070370392,1,0,0,0,151,151,24,1,jurk,images/br_jurk.png,images/cb_jurk.png,1,jurk,,,,,,,,,,,,,,,,,,,,,
,,,,,00080,2023-10-27_08h32.14.777,vbt_B1_day4,2022.2.4,Win32,60.02040694,,,,,,down,0,0.4127,,0.365740741,-0.070370392,1,0,0,0,152,152,50,1,stoom,images/br_stoom.png,images/cb_stoom.png,0,,,,,,,,,,,,,,,,,,,,,,
,,,,,00080,2023-10-27_08h32.14.777,vbt_B1_day4,2022.2.4,Win32,60.02040694,,,,,,down,0,0.9141,,0.365740741,-0.070370392,1,0,0,0,153,153,175,1,heengaan,images/br_heengaan.png,images/cb_heengaan.png,0,,,,,,,,,,,,,,,,,,,,,,
,,,,,00080,2023-10-27_08h32.14.777,vbt_B1_day4,2022.2.4,Win32,60.02040694,,,,,,down,0,0.2171,,0.365740741,-0.070370392,1,0,0,0,154,154,5,1,blad,images/br_blad.png,images/cb_blad.png,0,,,,,,,,,,,,,,,,,,,,,,
,,,,,00080,2023-10-27_08h32.14.777,vbt_B1_day4,2022.2.4,Win32,60.02040694,,,,,,down,0,1.7384,,0.365740741,-0.070370392,1,0,0,0,155,155,23,1,zout,images/br_zout.png,images/cb_zout.png,0,,,,,,,,,,,,,,,,,,,,,,
,,,,,00080,2023-10-27_08h32.14.777,vbt_B1_day4,2022.2.4,Win32,60.02040694,,,,,,down,0,2.8252,,0.365740741,-0.070370392,1,0,0,0,156,156,165,1,feestdag,images/br_feestdag.png,images/cb_feestdag.png,0,,,,,,,,,,,,,,,,,,,,,,
,,,,,00080,2023-10-27_08h32.14.777,vbt_B1_day4,2022.2.4,Win32,60.02040694,,,,,,down,0,2.8493,,0.347222222,-0.089814822,1,0,0,0,157,157,144,1,eetlust,images/br_eetlust.png,images/cb_eetlust.png,1,eetlust,,,,,,,,,,,,,,,,,,,,,
,,,,,00080,2023-10-27_08h32.14.777,vbt_B1_day4,2022.2.4,Win32,60.02040694,,,,,,down,0,0.4502,,0.347222222,-0.089814822,1,0,0,0,158,158,73,1,volop,images/br_volop.png,images/cb_volop.png,0,,,,,,,,,,,,,,,,,,,,,,
,,,,,00080,2023-10-27_08h32.14.777,vbt_B1_day4,2022.2.4,Win32,60.02040694,,,,,,down,0,4.0782,,0.347222222,-0.089814822,1,0,0,0,159,159,27,1,dans,images/br_dans.png,images/cb_dans.png,1,dans,,,,,,,,,,,,,,,,,,,,,
,,,,,00080,2023-10-27_08h32.14.777,vbt_B1_day4,2022.2.4,Win32,60.02040694,,,,,,down,0,3.8223,,0.347222222,-0.089814822,1,0,0,0,160,160,156,1,rechten,images/br_rechten.png,images/cb_rechten.png,0,,,,,,,,,,,,,,,,,,,,,,
,,,,,00080,2023-10-27_08h32.14.777,vbt_B1_day4,2022.2.4,Win32,60.02040694,,,,,,down,0,8.3065,,0.347222222,-0.089814822,1,0,0,0,161,161,147,1,komisch,images/br_komisch.png,images/cb_komisch.png,1,komisch,,,,,,,,,,,,,,,,,,,,,
,,,,,00080,2023-10-27_08h32.14.777,vbt_B1_day4,2022.2.4,Win32,60.02040694,,,,,,down,0,0.8336,,0.347222222,-0.089814822,1,0,0,0,162,162,4,1,moes,images/br_moes.png,images/cb_moes.png,0,,,,,,,,,,,,,,,,,,,,,,
,,,,,00080,2023-10-27_08h32.14.777,vbt_B1_day4,2022.2.4,Win32,60.02040694,,,,,,down,0,10.8466,,0.155555584,-0.222222222,1,0,0,0,163,163,42,1,bleek,images/br_bleek.png,images/cb_bleek.png,0,,,,,,,,,,,,,,,,,,,,,,
,,,,,00080,2023-10-27_08h32.14.777,vbt_B1_day4,2022.2.4,Win32,60.02040694,,,,,,down,0,0.3053,,0.233333376,-0.049074067,1,0,0,0,164,164,61,1,groen,images/br_groen.png,images/cb_groen.png,0,,,,,,,,,,,,,,,,,,,,,,
,,,,,00080,2023-10-27_08h32.14.777,vbt_B1_day4,2022.2.4,Win32,60.02040694,,,,,,down,0,0.1559,,0.233333376,-0.049074067,1,0,0,0,165,165,7,1,geld,images/br_geld.png,images/cb_geld.png,0,,,,,,,,,,,,,,,,,,,,,,
,,,,,00080,2023-10-27_08h32.14.777,vbt_B1_day4,2022.2.4,Win32,60.02040694,,,,,,down,0,1.5333,,0.233333376,-0.049074067,1,0,0,0,166,166,45,1,piste,images/br_piste.png,images/cb_piste.png,0,,,,,,,,,,,,,,,,,,,,,,
,,,,,00080,2023-10-27_08h32.14.777,vbt_B1_day4,2022.2.4,Win32,60.02040694,,,,,,down,0,0.8097,,0.233333376,-0.049074067,1,0,0,0,167,167,32,1,palm,images/br_palm.png,images/cb_palm.png,0,,,,,,,,,,,,,,,,,,,,,,
,,,,,00080,2023-10-27_08h32.14.777,vbt_B1_day4,2022.2.4,Win32,60.02040694,,,,,,down,0,0.0998,,0.233333376,-0.049074067,1,0,0,0,168,168,1,1,zaal,images/br_zaal.png,images/cb_zaal.png,0,,,,,,,,,,,,,,,,,,,,,,
,,,,,00080,2023-10-27_08h32.14.777,vbt_B1_day4,2022.2.4,Win32,60.02040694,,,,,,down,0,0.2337,,0.233333376,-0.049074067,1,0,0,0,169,169,34,1,vorm,images/br_vorm.png,images/cb_vorm.png,0,,,,,,,,,,,,,,,,,,,,,,
,,,,,00080,2023-10-27_08h32.14.777,vbt_B1_day4,2022.2.4,Win32,60.02040694,,,,,,down,0,0.4469,,0.233333376,-0.049074067,1,0,0,0,170,170,57,1,steek,images/br_steek.png,images/cb_steek.png,0,,,,,,,,,,,,,,,,,,,,,,
,,,,,00080,2023-10-27_08h32.14.777,vbt_B1_day4,2022.2.4,Win32,60.02040694,,,,,,down,0,0.5815,,0.233333376,-0.049074067,1,0,0,0,171,171,47,1,kabel,images/br_kabel.png,images/cb_kabel.png,0,,,,,,,,,,,,,,,,,,,,,,
,,,,,00080,2023-10-27_08h32.14.777,vbt_B1_day4,2022.2.4,Win32,60.02040694,,,,,,down,0,2.5293,,0.233333376,-0.049074067,1,0,0,0,172,172,170,1,schatten,images/br_schatten.png,images/cb_schatten.png,0,,,,,,,,,,,,,,,,,,,,,,
,,,,,00080,2023-10-27_08h32.14.777,vbt_B1_day4,2022.2.4,Win32,60.02040694,,,,,,down,0,0.638,,0.233333376,-0.049074067,1,0,0,0,173,173,20,1,site,images/br_site.png,images/cb_site.png,0,,,,,,,,,,,,,,,,,,,,,,
,,,,,00080,2023-10-27_08h32.14.777,vbt_B1_day4,2022.2.4,Win32,60.02040694,,,,,,down,0,0.4761,,0.233333376,-0.049074067,1,0,0,0,174,174,84,1,lokken,images/br_lokken.png,images/cb_lokken.png,0,,,,,,,,,,,,,,,,,,,,,,
,,,,,00080,2023-10-27_08h32.14.777,vbt_B1_day4,2022.2.4,Win32,60.02040694,,,,,,down,0,0.3474,,0.233333376,-0.049074067,1,0,0,0,175,175,35,1,lust,images/br_lust.png,images/cb_lust.png,0,,,,,,,,,,,,,,,,,,,,,,
,,,,,00080,2023-10-27_08h32.14.777,vbt_B1_day4,2022.2.4,Win32,60.02040694,,,,,,down,0,0.5012,,0.233333376,-0.049074067,1,0,0,0,176,176,141,1,knielen,images/br_knielen.png,images/cb_knielen.png,0,,,,,,,,,,,,,,,,,,,,,,
,,,,,00080,2023-10-27_08h32.14.777,vbt_B1_day4,2022.2.4,Win32,60.02040694,,,,,,down,0,2.6993,,0.233333376,-0.049074067,1,0,0,0,177,177,158,1,innemen,images/br_innemen.png,images/cb_innemen.png,0,,,,,,,,,,,,,,,,,,,,,,
,,,,,00080,2023-10-27_08h32.14.777,vbt_B1_day4,2022.2.4,Win32,60.02040694,,,,,,down,0,5.1677,,0.233333376,-0.049074067,1,0,0,0,178,178,191,1,opheffen,images/br_opheffen.png,images/cb_opheffen.png,0,,,,,,,,,,,,,,,,,,,,,,
,,,,,00080,2023-10-27_08h32.14.777,vbt_B1_day4,2022.2.4,Win32,60.02040694,,,,,,down,0,9.1373,,0.233333376,-0.049074067,1,0,0,0,179,179,67,1,zwart,images/br_zwart.png,images/cb_zwart.png,1,zwart,,,,,,,,,,,,,,,,,,,,,
,,,,,00080,2023-10-27_08h32.14.777,vbt_B1_day4,2022.2.4,Win32,60.02040694,,,,,,down,0,0.6627,,0.233333376,-0.049074067,1,0,0,0,180,180,176,1,techniek,images/br_techniek.png,images/cb_techniek.png,0,,,,,,,,,,,,,,,,,,,,,,
,,,,,00080,2023-10-27_08h32.14.777,vbt_B1_day4,2022.2.4,Win32,60.02040694,,,,,,down,0,0.7098,,0.233333376,-0.049074067,1,0,0,0,181,181,96,1,slagen,images/br_slagen.png,images/cb_slagen.png,0,,,,,,,,,,,,,,,,,,,,,,
,,,,,00080,2023-10-27_08h32.14.777,vbt_B1_day4,2022.2.4,Win32,60.02040694,,,,,,down,0,0.9503,,0.233333376,-0.049074067,1,0,0,0,182,182,75,1,snoep,images/br_snoep.png,images/cb_snoep.png,0,,,,,,,,,,,,,,,,,,,,,,
,,,,,00080,2023-10-27_08h32.14.777,vbt_B1_day4,2022.2.4,Win32,60.02040694,,,,,,down,0,1.443,,0.179629644,-0.08425928,1,0,0,0,183,183,193,1,weeshuis,images/br_weeshuis.png,images/cb_weeshuis.png,0,,,,,,,,,,,,,,,,,,,,,,
,,,,,00080,2023-10-27_08h32.14.777,vbt_B1_day4,2022.2.4,Win32,60.02040694,,,,,,down,0,2.4499,,0.164814843,-0.107407393,1,0,0,0,184,184,153,1,vervoer,images/br_vervoer.png,images/cb_vervoer.png,0,,,,,,,,,,,,,,,,,,,,,,
,,,,,00080,2023-10-27_08h32.14.777,vbt_B1_day4,2022.2.4,Win32,60.02040694,,,,,,down,0,4.1281,,0.162037037,-0.107407393,1,0,0,0,185,185,184,1,aandelen,images/br_aandelen.png,images/cb_aandelen.png,1,aandelen,,,,,,,,,,,,,,,,,,,,,
,,,,,00080,2023-10-27_08h32.14.777,vbt_B1_day4,2022.2.4,Win32,60.02040694,,,,,,down,0,0.667,,0.162037037,-0.107407393,1,0,0,0,186,186,99,1,koffie,images/br_koffie.png,images/cb_koffie.png,0,,,,,,,,,,,,,,,,,,,,,,
,,,,,00080,2023-10-27_08h32.14.777,vbt_B1_day4,2022.2.4,Win32,60.02040694,,,,,,down,0,0.8334,,0.162037037,-0.107407393,1,0,0,0,187,187,196,1,nakijken,images/br_nakijken.png,images/cb_nakijken.png,0,,,,,,,,,,,,,,,,,,,,,,
,,,,,00080,2023-10-27_08h32.14.777,vbt_B1_day4,2022.2.4,Win32,60.02040694,,,,,,down,0,1.6213,,0.162037037,-0.107407393,1,0,0,0,188,188,6,1,diep,images/br_diep.png,images/cb_diep.png,0,,,,,,,,,,,,,,,,,,,,,,
,,,,,00080,2023-10-27_08h32.14.777,vbt_B1_day4,2022.2.4,Win32,60.02040694,,,,,,down,0,5.2567,,0.176851838,-0.132407436,1,0,0,0,189,189,135,1,gedicht,images/br_gedicht.png,images/cb_gedicht.png,0,,,,,,,,,,,,,,,,,,,,,,
,,,,,00080,2023-10-27_08h32.14.777,vbt_B1_day4,2022.2.4,Win32,60.02040694,,,,,,down,0,1.7998,,0.17777782,-0.127777806,1,0,0,0,190,190,110,1,zuster,images/br_zuster.png,images/cb_zuster.png,0,,,,,,,,,,,,,,,,,,,,,,
,,,,,00080,2023-10-27_08h32.14.777,vbt_B1_day4,2022.2.4,Win32,60.02040694,,,,,,down,0,7.2334,,0.190740727,-0.089814822,1,0,0,0,191,191,3,1,mand,images/br_mand.png,images/cb_mand.png,0,,,,,,,,,,,,,,,,,,,,,,
,,,,,00080,2023-10-27_08h32.14.777,vbt_B1_day4,2022.2.4,Win32,60.02040694,,,,,,down,0,1.7831,,0.184259273,-0.086111104,1,0,0,0,192,192,152,1,afnemen,images/br_afnemen.png,images/cb_afnemen.png,0,,,,,,,,,,,,,,,,,,,,,,
,,,,,00080,2023-10-27_08h32.14.777,vbt_B1_day4,2022.2.4,Win32,60.02040694,,,,,,down,0,1.0333,,0.184259273,-0.086111104,1,0,0,0,193,193,93,1,waarop,images/br_waarop.png,images/cb_waarop.png,0,,,,,,,,,,,,,,,,,,,,,,
,,,,,00080,2023-10-27_08h32.14.777,vbt_B1_day4,2022.2.4,Win32,60.02040694,,,,,,down,0,2.5161,,0.187037079,-0.121296282,1,0,0,0,194,194,111,1,ticket,images/br_ticket.png,images/cb_ticket.png,0,,,,,,,,,,,,,,,,,,,,,,
,,,,,00080,2023-10-27_08h32.14.777,vbt_B1_day4,2022.2.4,Win32,60.02040694,,,,,,down,0,0.4169,,0.185185185,-0.121296282,1,0,0,0,195,195,138,1,akkoord,images/br_akkoord.png,images/cb_akkoord.png,0,,,,,,,,,,,,,,,,,,,,,,
,,,,,00080,2023-10-27_08h32.14.777,vbt_B1_day4,2022.2.4,Win32,60.02040694,,,,,,down,0,2.7867,,0.185185185,-0.121296282,1,0,0,0,196,196,130,1,keihard,images/br_keihard.png,images/cb_keihard.png,0,,,,,,,,,,,,,,,,,,,,,,
,,,,,00080,2023-10-27_08h32.14.777,vbt_B1_day4,2022.2.4,Win32,60.02040694,,,,,,down,0,1.1648,,0.175925926,-0.123148176,1,0,0,0,197,197,21,1,mist,images/br_mist.png,images/cb_mist.png,0,,,,,,,,,,,,,,,,,,,,,,
,,,,,00080,2023-10-27_08h32.14.777,vbt_B1_day4,2022.2.4,Win32,60.02040694,,,,,,down,0,1.9497,,0.15370369,-0.125925912,1,0,0,0,198,198,81,1,dubbel,images/br_dubbel.png,images/cb_dubbel.png,0,,,,,,,,,,,,,,,,,,,,,,
,,,,,00080,2023-10-27_08h32.14.777,vbt_B1_day4,2022.2.4,Win32,60.02040694,,,,,,down,0,1.5582,,0.152777778,-0.122222265,1,0,0,0,199,199,192,1,schaamte,images/br_schaamte.png,images/cb_schaamte.png,0,,,,,,,,,,,,,,,,,,,,,,
,,,,,00080,2023-10-27_08h32.14.777,vbt_B1_day4,2022.2.4,Win32,60.02040694,,,,,,,,,,,,,,,,,,,,,,,,,0.108333376,-0.137037065,1,0,0,,,,,,,,,,,,,,,,
,,,,,00080,2023-10-27_08h32.14.777,vbt_B1_day4,2022.2.4,Win32,60.02040694,,,,,,,,,,,,,,,,,,,,,,,,,,,,,,0.104629658,-0.145370413,1,0,0,,,,,,,,,,,
,,,,,00080,2023-10-27_08h32.14.777,vbt_B1_day4,2022.2.4,Win32,60.02040694,,,,,,,,,,,,,,,,,,,,aanzwaag,images/br_aanzwaag.png,images/cb_aanzwaag.png,,aanzkaag,,,,,,,,,,,0.161111125,-0.024074095,1,0,0,aanzkaag,0,0,0,38,1
,,,,,00080,2023-10-27_08h32.14.777,vbt_B1_day4,2022.2.4,Win32,60.02040694,,,,,,,,,,,,,,,,,,,,grappen,images/br_grappen.png,images/cb_grappen.png,,grappen,,,,,,,,,,,0.09629631,-0.037037037,1,0,0,grappen,0,1,1,12,1
,,,,,00080,2023-10-27_08h32.14.777,vbt_B1_day4,2022.2.4,Win32,60.02040694,,,,,,,,,,,,,,,,,,,,gedicht,images/br_gedicht.png,images/cb_gedicht.png,,gedicht,,,,,,,,,,,0.09629631,-0.037037037,1,0,0,gedicht,0,2,2,15,1
,,,,,00080,2023-10-27_08h32.14.777,vbt_B1_day4,2022.2.4,Win32,60.02040694,,,,,,,,,,,,,,,,,,,,weigeren,images/br_weigeren.png,images/cb_weigeren.png,,weigeren,,,,,,,,,,,0.189814815,-0.024074095,1,0,0,weigeren,0,3,3,16,1
,,,,,00080,2023-10-27_08h32.14.777,vbt_B1_day4,2022.2.4,Win32,60.02040694,,,,,,,,,,,,,,,,,,,,waarop,images/br_waarop.png,images/cb_waarop.png,,waarop,,,,,,,,,,,0.062962991,-0.071296303,1,0,0,waarop,0,4,4,9,1
,,,,,00080,2023-10-27_08h32.14.777,vbt_B1_day4,2022.2.4,Win32,60.02040694,,,,,,,,,,,,,,,,,,,,drummer,images/br_drummer.png,images/cb_drummer.png,,drummer,,,,,,,,,,,0.126851894,-0.035185178,1,0,0,drummer,0,5,5,53,1
,,,,,00080,2023-10-27_08h32.14.777,vbt_B1_day4,2022.2.4,Win32,60.02040694,,,,,,,,,,,,,,,,,,,,toevol,images/br_toevol.png,images/cb_toevol.png,,toevol,,,,,,,,,,,0.016666695,-0.058333326,1,0,0,toevol,0,6,6,29,1
,,,,,00080,2023-10-27_08h32.14.777,vbt_B1_day4,2022.2.4,Win32,60.02040694,,,,,,,,,,,,,,,,,,,,gaaf,images/br_gaaf.png,images/cb_gaaf.png,,gaaf,,,,,,,,,,,0.085185228,-0.035185178,1,0,0,gaaf,0,7,7,43,1
,,,,,00080,2023-10-27_08h32.14.777,vbt_B1_day4,2022.2.4,Win32,60.02040694,,,,,,,,,,,,,,,,,,,,gaan,images/br_gaan.png,images/cb_gaan.png,,gaan,,,,,,,,,,,-0.013888889,-0.051851873,1,0,0,gaan,0,8,8,41,1
,,,,,00080,2023-10-27_08h32.14.777,vbt_B1_day4,2022.2.4,Win32,60.02040694,,,,,,,,,,,,,,,,,,,,wozing,images/br_wozing.png,images/cb_wozing.png,,wozing,,,,,,,,,,,0.030555584,-0.034259266,1,0,0,wozing,0,9,9,28,1
,,,,,00080,2023-10-27_08h32.14.777,vbt_B1_day4,2022.2.4,Win32,60.02040694,,,,,,,,,,,,,,,,,,,,paalbaak,images/br_paalbaak.png,images/cb_paalbaak.png,,paalbaak,,,,,,,,,,,0.010185171,-0.022222236,1,0,0,paalbaak,0,10,10,39,1
,,,,,00080,2023-10-27_08h32.14.777,vbt_B1_day4,2022.2.4,Win32,60.02040694,,,,,,,,,,,,,,,,,,,,flippen,images/br_flippen.png,images/cb_flippen.png,,flippen,,,,,,,,,,,0.114814829,-0.062962956,1,0,0,flippen,0,11,11,54,1
,,,,,00080,2023-10-27_08h32.14.777,vbt_B1_day4,2022.2.4,Win32,60.02040694,,,,,,,,,,,,,,,,,,,,rijp,images/br_rijp.png,images/cb_rijp.png,,rijp,,,,,,,,,,,-0.000925912,-0.037037037,1,0,0,rijp,0,12,12,2,1
,,,,,00080,2023-10-27_08h32.14.777,vbt_B1_day4,2022.2.4,Win32,60.02040694,,,,,,,,,,,,,,,,,,,,stemming,images/br_stemming.png,images/cb_stemming.png,,stemming,,,,,,,,,,,-0.176851838,-0.089814822,1,0,0,stemming,0,13,13,18,1
,,,,,00080,2023-10-27_08h32.14.777,vbt_B1_day4,2022.2.4,Win32,60.02040694,,,,,,,,,,,,,,,,,,,,snee,images/br_snee.png,images/cb_snee.png,,snee,,,,,,,,,,,-0.062037009,-0.046296296,1,0,0,snee,0,14,14,40,1
,,,,,00080,2023-10-27_08h32.14.777,vbt_B1_day4,2022.2.4,Win32,60.02040694,,,,,,,,,,,,,,,,,,,,zwek,images/br_zwek.png,images/cb_zwek.png,,zwek,,,,,,,,,,,-0.041666667,-0.01666666,1,0,0,zwek,0,15,15,20,1
,,,,,00080,2023-10-27_08h32.14.777,vbt_B1_day4,2022.2.4,Win32,60.02040694,,,,,,,,,,,,,,,,,,,,mekst,images/br_mekst.png,images/cb_mekst.png,,mekst,,,,,,,,,,,0.039814843,-0.046296296,1,0,0,mekst,0,16,16,27,1
,,,,,00080,2023-10-27_08h32.14.777,vbt_B1_day4,2022.2.4,Win32,60.02040694,,,,,,,,,,,,,,,,,,,,drooien,images/br_drooien.png,images/cb_drooien.png,,drooien,,,,,,,,,,,0.108333376,-0.050925926,1,0,0,drooien,0,17,17,32,1
,,,,,00080,2023-10-27_08h32.14.777,vbt_B1_day4,2022.2.4,Win32,60.02040694,,,,,,,,,,,,,,,,,,,,oceaan,images/br_oceaan.png,images/cb_oceaan.png,,oceaan,,,,,,,,,,,-0.050925926,-0.001851859,1,0,0,oceaan,0,18,18,10,1
,,,,,00080,2023-10-27_08h32.14.777,vbt_B1_day4,2022.2.4,Win32,60.02040694,,,,,,,,,,,,,,,,,,,,dozijn,images/br_dozijn.png,images/cb_dozijn.png,,dozijn,,,,,,,,,,,0.035185213,-0.058333326,1,0,0,dozijn,0,19,19,48,1
,,,,,00080,2023-10-27_08h32.14.777,vbt_B1_day4,2022.2.4,Win32,60.02040694,,,,,,,,,,,,,,,,,,,,soda,images/br_soda.png,images/cb_soda.png,,soda,,,,,,,,,,,0.069444444,-0.017592607,1,0,0,soda,0,20,20,3,1
,,,,,00080,2023-10-27_08h32.14.777,vbt_B1_day4,2022.2.4,Win32,60.02040694,,,,,,,,,,,,,,,,,,,,fran,images/br_fran.png,images/cb_fran.png,,fran,,,,,,,,,,,0.029629672,-0.011111118,1,0,0,fran,0,21,21,22,1
,,,,,00080,2023-10-27_08h32.14.777,vbt_B1_day4,2022.2.4,Win32,60.02040694,,,,,,,,,,,,,,,,,,,,broodje,images/br_broodje.png,images/cb_broodje.png,,broodje,,,,,,,,,,,0.133333347,-0.01203703,1,0,0,broodje,0,22,22,55,1
,,,,,00080,2023-10-27_08h32.14.777,vbt_B1_day4,2022.2.4,Win32,60.02040694,,,,,,,,,,,,,,,,,,,,sulbon,images/br_sulbon.png,images/cb_sulbon.png,,sulbon,,,,,,,,,,,0.032407407,-0.032407407,1,0,0,sulbon,0,23,23,31,1
,,,,,00080,2023-10-27_08h32.14.777,vbt_B1_day4,2022.2.4,Win32,60.02040694,,,,,,,,,,,,,,,,,,,,midden,images/br_midden.png,images/cb_midden.png,,midden,,,,,,,,,,,0.018518519,-0.031481496,1,0,0,midden,0,24,24,50,1
,,,,,00080,2023-10-27_08h32.14.777,vbt_B1_day4,2022.2.4,Win32,60.02040694,,,,,,,,,,,,,,,,,,,,gijf,images/br_gijf.png,images/cb_gijf.png,,gijf,,,,,,,,,,,0.064814815,-0.017592607,1,0,0,gijf,0,25,25,23,1
,,,,,00080,2023-10-27_08h32.14.777,vbt_B1_day4,2022.2.4,Win32,60.02040694,,,,,,,,,,,,,,,,,,,,lappen,images/br_lappen.png,images/cb_lappen.png,,lappen,,,,,,,,,,,0.005555541,-0.037037037,1,0,0,lappen,0,26,26,49,1
,,,,,00080,2023-10-27_08h32.14.777,vbt_B1_day4,2022.2.4,Win32,60.02040694,,,,,,,,,,,,,,,,,,,,schenden,images/br_schenden.png,images/cb_schenden.png,,schenden,,,,,,,,,,,0.125,-0.017592607,1,0,0,schenden,0,27,27,57,1
,,,,,00080,2023-10-27_08h32.14.777,vbt_B1_day4,2022.2.4,Win32,60.02040694,,,,,,,,,,,,,,,,,,,,steen,images/br_steen.png,images/cb_steen.png,,steen,,,,,,,,,,,0.065740727,-0.018518519,1,0,0,steen,0,28,28,44,1
,,,,,00080,2023-10-27_08h32.14.777,vbt_B1_day4,2022.2.4,Win32,60.02040694,,,,,,,,,,,,,,,,,,,,praat,images/br_praat.png,images/cb_praat.png,,praat,,,,,,,,,,,-0.107407393,-0.009259259,1,0,0,praat,0,29,29,7,1
,,,,,00080,2023-10-27_08h32.14.777,vbt_B1_day4,2022.2.4,Win32,60.02040694,,,,,,,,,,,,,,,,,,,,baron,images/br_baron.png,images/cb_baron.png,,baron,,,,,,,,,,,0.062962991,-0.025000007,1,0,0,baron,0,30,30,5,1
,,,,,00080,2023-10-27_08h32.14.777,vbt_B1_day4,2022.2.4,Win32,60.02040694,,,,,,,,,,,,,,,,,,,,opkicht,images/br_opkicht.png,images/cb_opkicht.png,,opkicht,,,,,,,,,,,0.021296325,-0.042592614,1,0,0,opkicht,0,31,31,34,1
,,,,,00080,2023-10-27_08h32.14.777,vbt_B1_day4,2022.2.4,Win32,60.02040694,,,,,,,,,,,,,,,,,,,,haza,images/br_haza.png,images/cb_haza.png,,haza,,,,,,,,,,,-0.026851866,-0.012962977,1,0,0,haza,0,32,32,21,1
,,,,,00080,2023-10-27_08h32.14.777,vbt_B1_day4,2022.2.4,Win32,60.02040694,,,,,,,,,,,,,,,,,,,,geheim,images/br_geheim.png,images/cb_geheim.png,,geheim,,,,,,,,,,,0.003703718,-0.036111125,1,0,0,geheim,0,33,33,8,1
,,,,,00080,2023-10-27_08h32.14.777,vbt_B1_day4,2022.2.4,Win32,60.02040694,,,,,,,,,,,,,,,,,,,,pittig,images/br_pittig.png,images/cb_pittig.png,,pittig,,,,,,,,,,,0.114814829,-0.017592607,1,0,0,pittig,0,34,34,51,1
,,,,,00080,2023-10-27_08h32.14.777,vbt_B1_day4,2022.2.4,Win32,60.02040694,,,,,,,,,,,,,,,,,,,,strok,images/br_strok.png,images/cb_strok.png,,strok,,,,,,,,,,,0.012037065,-0.032407407,1,0,0,strok,0,35,35,25,1
,,,,,00080,2023-10-27_08h32.14.777,vbt_B1_day4,2022.2.4,Win32,60.02040694,,,,,,,,,,,,,,,,,,,,ezel,images/br_ezel.png,images/cb_ezel.png,,ezel,,,,,,,,,,,-0.107407393,-0.024074095,1,0,0,ezel,0,36,36,42,1
,,,,,00080,2023-10-27_08h32.14.777,vbt_B1_day4,2022.2.4,Win32,60.02040694,,,,,,,,,,,,,,,,,,,,kaal,images/br_kaal.png,images/cb_kaal.png,,kaal,,,,,,,,,,,-0.04814812,-0.014814836,1,0,0,kaal,0,37,37,1,1
,,,,,00080,2023-10-27_08h32.14.777,vbt_B1_day4,2022.2.4,Win32,60.02040694,,,,,,,,,,,,,,,,,,,,getucht,images/br_getucht.png,images/cb_getucht.png,,getucht,,,,,,,,,,,-0.130555541,-0.026851866,1,0,0,getucht,0,38,38,35,1
,,,,,00080,2023-10-27_08h32.14.777,vbt_B1_day4,2022.2.4,Win32,60.02040694,,,,,,,,,,,,,,,,,,,,bisschap,images/br_bisschap.png,images/cb_bisschap.png,,bisschap,,,,,,,,,,,0.135185171,-0.049074067,1,0,0,bisschap,0,39,39,36,1
,,,,,00080,2023-10-27_08h32.14.777,vbt_B1_day4,2022.2.4,Win32,60.02040694,,,,,,,,,,,,,,,,,,,,pijnlijk,images/br_pijnlijk.png,images/cb_pijnlijk.png,,pijnlijk,,,,,,,,,,,0.155555584,0.058333326,1,0,0,pijnlijk,0,40,40,58,1
,,,,,00080,2023-10-27_08h32.14.777,vbt_B1_day4,2022.2.4,Win32,60.02040694,,,,,,,,,,,,,,,,,,,,noodzaak,images/br_noodzaak.png,images/cb_noodzaak.png,,noodzaak,,,,,,,,,,,0.031481496,-0.012962977,1,0,0,noodzaak,0,41,41,56,1
,,,,,00080,2023-10-27_08h32.14.777,vbt_B1_day4,2022.2.4,Win32,60.02040694,,,,,,,,,,,,,,,,,,,,kust,images/br_kust.png,images/cb_kust.png,,kust,,,,,,,,,,,-0.085185157,-0.01666666,1,0,0,kust,0,42,42,0,1
,,,,,00080,2023-10-27_08h32.14.777,vbt_B1_day4,2022.2.4,Win32,60.02040694,,,,,,,,,,,,,,,,,,,,eerst,images/br_eerst.png,images/cb_eerst.png,,eerst,,,,,,,,,,,-0.10092594,-0.040740755,1,0,0,eerst,0,43,43,47,1
,,,,,00080,2023-10-27_08h32.14.777,vbt_B1_day4,2022.2.4,Win32,60.02040694,,,,,,,,,,,,,,,,,,,,seizoon,images/br_seizoon.png,images/cb_seizoon.png,,seizoon,,,,,,,,,,,0.071296339,-0.027777778,1,0,0,seizoon,0,44,44,33,1
,,,,,00080,2023-10-27_08h32.14.777,vbt_B1_day4,2022.2.4,Win32,60.02040694,,,,,,,,,,,,,,,,,,,,seizoen,images/br_seizoen.png,images/cb_seizoen.png,,seizoen,,,,,,,,,,,0.077777792,-0.034259266,1,0,0,seizoen,0,45,45,13,1
,,,,,00080,2023-10-27_08h32.14.777,vbt_B1_day4,2022.2.4,Win32,60.02040694,,,,,,,,,,,,,,,,,,,,vreten,images/br_vreten.png,images/cb_vreten.png,,vreten,,,,,,,,,,,0.053703732,-0.01203703,1,0,0,vreten,0,46,46,11,1
,,,,,00080,2023-10-27_08h32.14.777,vbt_B1_day4,2022.2.4,Win32,60.02040694,,,,,,,,,,,,,,,,,,,,warel,images/br_warel.png,images/cb_warel.png,,warel,,,,,,,,,,,0.045370384,-0.01666666,1,0,0,warel,0,47,47,26,1
,,,,,00080,2023-10-27_08h32.14.777,vbt_B1_day4,2022.2.4,Win32,60.02040694,,,,,,,,,,,,,,,,,,,,tucket,images/br_tucket.png,images/cb_tucket.png,,tucket,,,,,,,,,,,0.068518533,-0.030555548,1,0,0,tucket,0,48,48,30,1
,,,,,00080,2023-10-27_08h32.14.777,vbt_B1_day4,2022.2.4,Win32,60.02040694,,,,,,,,,,,,,,,,,,,,geliefd,images/br_geliefd.png,images/cb_geliefd.png,,geliefd,,,,,,,,,,,-0.014814801,-0.012962977,1,0,0,geliefd,0,49,49,14,1
,,,,,00080,2023-10-27_08h32.14.777,vbt_B1_day4,2022.2.4,Win32,60.02040694,,,,,,,,,,,,,,,,,,,,gebit,images/br_gebit.png,images/cb_gebit.png,,gebit,,,,,,,,,,,0.045370384,-0.011111118,1,0,0,gebit,0,50,50,6,1
,,,,,00080,2023-10-27_08h32.14.777,vbt_B1_day4,2022.2.4,Win32,60.02040694,,,,,,,,,,,,,,,,,,,,opruimen,images/br_opruimen.png,images/cb_opruimen.png,,opruimen,,,,,,,,,,,-0.02407406,-0.051851873,1,0,0,opruimen,0,51,51,59,1
,,,,,00080,2023-10-27_08h32.14.777,vbt_B1_day4,2022.2.4,Win32,60.02040694,,,,,,,,,,,,,,,,,,,,heengaan,images/br_heengaan.png,images/cb_heengaan.png,,heengaan,,,,,,,,,,,0.122222265,0.010185171,1,0,0,heengaan,0,52,52,19,1
,,,,,00080,2023-10-27_08h32.14.777,vbt_B1_day4,2022.2.4,Win32,60.02040694,,,,,,,,,,,,,,,,,,,,dalen,images/br_dalen.png,images/cb_dalen.png,,dalen,,,,,,,,,,,0.070370356,-0.01203703,1,0,0,dalen,0,53,53,46,1
,,,,,00080,2023-10-27_08h32.14.777,vbt_B1_day4,2022.2.4,Win32,60.02040694,,,,,,,,,,,,,,,,,,,,bruin,images/br_bruin.png,images/cb_bruin.png,,bruin,,,,,,,,,,,0.027777778,-0.026851866,1,0,0,bruin,0,54,54,45,1
,,,,,00080,2023-10-27_08h32.14.777,vbt_B1_day4,2022.2.4,Win32,60.02040694,,,,,,,,,,,,,,,,,,,,wagon,images/br_wagon.png,images/cb_wagon.png,,wagon,,,,,,,,,,,-0.049074032,0.01944443,1,0,0,wagon,0,55,55,4,1
,,,,,00080,2023-10-27_08h32.14.777,vbt_B1_day4,2022.2.4,Win32,60.02040694,,,,,,,,,,,,,,,,,,,,apparaat,images/br_apparaat.png,images/cb_apparaat.png,,apparaat,,,,,,,,,,,0.136111153,-0.011111118,1,0,0,apparaat,0,56,56,17,1
,,,,,00080,2023-10-27_08h32.14.777,vbt_B1_day4,2022.2.4,Win32,60.02040694,,,,,,,,,,,,,,,,,,,,schotel,images/br_schotel.png,images/cb_schotel.png,,schotel,,,,,,,,,,,0.126851894,-0.00462963,1,0,0,schotel,0,57,57,52,1
,,,,,00080,2023-10-27_08h32.14.777,vbt_B1_day4,2022.2.4,Win32,60.02040694,,,,,,,,,,,,,,,,,,,,gebog,images/br_gebog.png,images/cb_gebog.png,,gebog,,,,,,,,,,,-0.001851824,0.005555541,1,0,0,gebog,0,58,58,24,1
,,,,,00080,2023-10-27_08h32.14.777,vbt_B1_day4,2022.2.4,Win32,60.02040694,,,,,,,,,,,,,,,,,,,,zaalrijk,images/br_zaalrijk.png,images/cb_zaalrijk.png,,zaalrijk,,,,,,,,,,,0.021296325,-0.024074095,1,0,0,zaalrijk,0,59,59,37,1
,,,,,00080,2023-10-27_08h32.14.777,vbt_B1_day4,2022.2.4,Win32,60.02040694,,,,,,,,,,,,,,,,,,,,,,,,,,,,,,,,,,,,,,,,,,,,,
