welcome_mouse.x,welcome_mouse.y,welcome_mouse.leftButton,welcome_mouse.midButton,welcome_mouse.rightButton,"ID",date,expName,psychopyVersion,OS,frameRate,participant,trainInstr_mouse.x,trainInstr_mouse.y,trainInstr_mouse.leftButton,trainInstr_mouse.midButton,trainInstr_mouse.rightButton,translation_key.keys,translation_key.corr,translation_key.rt,word_rsp.text,trWrd_mouse.x,trWrd_mouse.y,trWrd_mouse.leftButton,trWrd_mouse.midButton,trWrd_mouse.rightButton,train_loop.thisRepN,train_loop.thisTrialN,train_loop.thisN,train_loop.thisIndex,train_loop.ran,nlWrd,brWrd,cbWrd,test,testResp,mouse.x,mouse.y,mouse.leftButton,mouse.midButton,mouse.rightButton,testInstr_mouse.x,testInstr_mouse.y,testInstr_mouse.leftButton,testInstr_mouse.midButton,testInstr_mouse.rightButton,test_mouse.x,test_mouse.y,test_mouse.leftButton,test_mouse.midButton,test_mouse.rightButton,test_response.text,test_loop.thisRepN,test_loop.thisTrialN,test_loop.thisN,test_loop.thisIndex,test_loop.ran
-0.155555556,-0.244444444,1,0,0,,2023-09-28_09h09.19.941,vbt_B1_day4,2022.2.4,MacIntel,62.6566416,55918,,,,,,,,,,,,,,,,,,,,,,,,,,,,,,,,,,,,,,,,,,,,,
,,,,,,2023-09-28_09h09.19.941,vbt_B1_day4,2022.2.4,MacIntel,62.6566416,55918,-0.194444444,-0.36,1,0,0,,,,,,,,,,,,,,,,,,,,,,,,,,,,,,,,,,,,,,,,
,,,,,,2023-09-28_09h09.19.941,vbt_B1_day4,2022.2.4,MacIntel,62.6566416,55918,,,,,,down,0,1.94,,-0.8,-0.181111111,1,0,0,0,0,0,148,1,smullen,images/br_smullen.png,images/cb_smullen.png,0,,,,,,,,,,,,,,,,,,,,,,
,,,,,,2023-09-28_09h09.19.941,vbt_B1_day4,2022.2.4,MacIntel,62.6566416,55918,,,,,,down,0,2.171,,-0.8,-0.181111111,1,0,0,0,1,1,44,1,flits,images/br_flits.png,images/cb_flits.png,0,,,,,,,,,,,,,,,,,,,,,,
,,,,,,2023-09-28_09h09.19.941,vbt_B1_day4,2022.2.4,MacIntel,62.6566416,55918,,,,,,down,0,1.02,,-0.8,-0.181111111,1,0,0,0,2,2,25,1,plek,images/br_plek.png,images/cb_plek.png,1,plek,,,,,,,,,,,,,,,,,,,,,
,,,,,,2023-09-28_09h09.19.941,vbt_B1_day4,2022.2.4,MacIntel,62.6566416,55918,,,,,,down,0,6.301,,-0.8,-0.181111111,1,0,0,0,3,3,198,1,bedoelen,images/br_bedoelen.png,images/cb_bedoelen.png,0,,,,,,,,,,,,,,,,,,,,,,
,,,,,,2023-09-28_09h09.19.941,vbt_B1_day4,2022.2.4,MacIntel,62.6566416,55918,,,,,,down,0,0.934,,-0.8,-0.181111111,1,0,0,0,4,4,88,1,boeien,images/br_boeien.png,images/cb_boeien.png,0,,,,,,,,,,,,,,,,,,,,,,
,,,,,,2023-09-28_09h09.19.941,vbt_B1_day4,2022.2.4,MacIntel,62.6566416,55918,,,,,,down,0,1.257,,-0.8,-0.181111111,1,0,0,0,5,5,61,1,groen,images/br_groen.png,images/cb_groen.png,0,,,,,,,,,,,,,,,,,,,,,,
,,,,,,2023-09-28_09h09.19.941,vbt_B1_day4,2022.2.4,MacIntel,62.6566416,55918,,,,,,down,0,2.802,,-0.8,-0.181111111,1,0,0,0,6,6,156,1,rechten,images/br_rechten.png,images/cb_rechten.png,0,,,,,,,,,,,,,,,,,,,,,,
,,,,,,2023-09-28_09h09.19.941,vbt_B1_day4,2022.2.4,MacIntel,62.6566416,55918,,,,,,down,0,3.051,,-0.8,-0.181111111,1,0,0,0,7,7,74,1,graaf,images/br_graaf.png,images/cb_graaf.png,0,,,,,,,,,,,,,,,,,,,,,,
,,,,,,2023-09-28_09h09.19.941,vbt_B1_day4,2022.2.4,MacIntel,62.6566416,55918,,,,,,down,0,0.441,,-0.8,-0.181111111,1,0,0,0,8,8,132,1,grappen,images/br_grappen.png,images/cb_grappen.png,0,,,,,,,,,,,,,,,,,,,,,,
,,,,,,2023-09-28_09h09.19.941,vbt_B1_day4,2022.2.4,MacIntel,62.6566416,55918,,,,,,down,0,9.473,,-0.8,-0.181111111,1,0,0,0,9,9,142,1,snuiven,images/br_snuiven.png,images/cb_snuiven.png,0,,,,,,,,,,,,,,,,,,,,,,
,,,,,,2023-09-28_09h09.19.941,vbt_B1_day4,2022.2.4,MacIntel,62.6566416,55918,,,,,,down,0,0.037,,-0.8,-0.181111111,1,0,0,0,10,10,91,1,gezond,images/br_gezond.png,images/cb_gezond.png,0,,,,,,,,,,,,,,,,,,,,,,
,,,,,,2023-09-28_09h09.19.941,vbt_B1_day4,2022.2.4,MacIntel,62.6566416,55918,,,,,,down,0,2.625,,-0.8,-0.181111111,1,0,0,0,11,11,106,1,zingen,images/br_zingen.png,images/cb_zingen.png,1,,,,,,,,,,,,,,,,,,,,,,
,,,,,,2023-09-28_09h09.19.941,vbt_B1_day4,2022.2.4,MacIntel,62.6566416,55918,,,,,,down,0,16.206,,-0.8,-0.171111111,1,0,0,0,12,12,196,1,nakijken,images/br_nakijken.png,images/cb_nakijken.png,0,,,,,,,,,,,,,,,,,,,,,,
,,,,,,2023-09-28_09h09.19.941,vbt_B1_day4,2022.2.4,MacIntel,62.6566416,55918,,,,,,down,0,0.676,,-0.8,-0.171111111,1,0,0,0,13,13,54,1,gebit,images/br_gebit.png,images/cb_gebit.png,0,,,,,,,,,,,,,,,,,,,,,,
,,,,,,2023-09-28_09h09.19.941,vbt_B1_day4,2022.2.4,MacIntel,62.6566416,55918,,,,,,down,0,5.009,,-0.8,-0.171111111,1,0,0,0,14,14,119,1,liefje,images/br_liefje.png,images/cb_liefje.png,0,,,,,,,,,,,,,,,,,,,,,,
,,,,,,2023-09-28_09h09.19.941,vbt_B1_day4,2022.2.4,MacIntel,62.6566416,55918,,,,,,down,0,59.231,,-0.8,-0.171111111,1,0,0,0,15,15,194,1,driemaal,images/br_driemaal.png,images/cb_driemaal.png,0,,,,,,,,,,,,,,,,,,,,,,
,,,,,,2023-09-28_09h09.19.941,vbt_B1_day4,2022.2.4,MacIntel,62.6566416,55918,,,,,,down,0,1.753,,-0.8,-0.171111111,1,0,0,0,16,16,23,1,zout,images/br_zout.png,images/cb_zout.png,0,,,,,,,,,,,,,,,,,,,,,,
,,,,,,2023-09-28_09h09.19.941,vbt_B1_day4,2022.2.4,MacIntel,62.6566416,55918,,,,,,down,0,1.623,,-0.8,-0.171111111,1,0,0,0,17,17,70,1,ijdel,images/br_ijdel.png,images/cb_ijdel.png,0,,,,,,,,,,,,,,,,,,,,,,
,,,,,,2023-09-28_09h09.19.941,vbt_B1_day4,2022.2.4,MacIntel,62.6566416,55918,,,,,,down,0,8.009,,-0.8,-0.171111111,1,0,0,0,18,18,185,1,mijnheer,images/br_mijnheer.png,images/cb_mijnheer.png,1,mijnheer,,,,,,,,,,,,,,,,,,,,,
,,,,,,2023-09-28_09h09.19.941,vbt_B1_day4,2022.2.4,MacIntel,62.6566416,55918,,,,,,down,0,2.309,,-0.8,-0.171111111,1,0,0,0,19,19,3,1,mand,images/br_mand.png,images/cb_mand.png,0,,,,,,,,,,,,,,,,,,,,,,
,,,,,,2023-09-28_09h09.19.941,vbt_B1_day4,2022.2.4,MacIntel,62.6566416,55918,,,,,,down,0,1.105,,-0.8,-0.171111111,1,0,0,0,20,20,123,1,hiervan,images/br_hiervan.png,images/cb_hiervan.png,0,,,,,,,,,,,,,,,,,,,,,,
,,,,,,2023-09-28_09h09.19.941,vbt_B1_day4,2022.2.4,MacIntel,62.6566416,55918,,,,,,down,0,2.374,,-0.8,-0.171111111,1,0,0,0,21,21,85,1,heilig,images/br_heilig.png,images/cb_heilig.png,0,,,,,,,,,,,,,,,,,,,,,,
,,,,,,2023-09-28_09h09.19.941,vbt_B1_day4,2022.2.4,MacIntel,62.6566416,55918,,,,,,down,0,4.091,,-0.8,-0.171111111,1,0,0,0,22,22,81,1,dubbel,images/br_dubbel.png,images/cb_dubbel.png,0,,,,,,,,,,,,,,,,,,,,,,
,,,,,,2023-09-28_09h09.19.941,vbt_B1_day4,2022.2.4,MacIntel,62.6566416,55918,,,,,,down,0,2.493,,-0.8,-0.171111111,1,0,0,0,23,23,93,1,waarop,images/br_waarop.png,images/cb_waarop.png,0,,,,,,,,,,,,,,,,,,,,,,
,,,,,,2023-09-28_09h09.19.941,vbt_B1_day4,2022.2.4,MacIntel,62.6566416,55918,,,,,,down,0,2.402,,-0.8,-0.171111111,1,0,0,0,24,24,199,1,beseffen,images/br_beseffen.png,images/cb_beseffen.png,0,,,,,,,,,,,,,,,,,,,,,,
,,,,,,2023-09-28_09h09.19.941,vbt_B1_day4,2022.2.4,MacIntel,62.6566416,55918,,,,,,down,0,6.391,,-0.8,-0.171111111,1,0,0,0,25,25,49,1,laken,images/br_laken.png,images/cb_laken.png,0,,,,,,,,,,,,,,,,,,,,,,
,,,,,,2023-09-28_09h09.19.941,vbt_B1_day4,2022.2.4,MacIntel,62.6566416,55918,,,,,,down,0,13.142,,-0.8,-0.171111111,1,0,0,0,26,26,15,1,soda,images/br_soda.png,images/cb_soda.png,0,,,,,,,,,,,,,,,,,,,,,,
,,,,,,2023-09-28_09h09.19.941,vbt_B1_day4,2022.2.4,MacIntel,62.6566416,55918,,,,,,down,0,2.225,,-0.8,-0.171111111,1,0,0,0,27,27,86,1,woning,images/br_woning.png,images/cb_woning.png,0,,,,,,,,,,,,,,,,,,,,,,
,,,,,,2023-09-28_09h09.19.941,vbt_B1_day4,2022.2.4,MacIntel,62.6566416,55918,,,,,,down,0,6,,-0.8,-0.171111111,1,0,0,0,28,28,105,1,wijlen,images/br_wijlen.png,images/cb_wijlen.png,1,wijlen,,,,,,,,,,,,,,,,,,,,,
,,,,,,2023-09-28_09h09.19.941,vbt_B1_day4,2022.2.4,MacIntel,62.6566416,55918,,,,,,down,0,1.172,,-0.8,-0.171111111,1,0,0,0,29,29,82,1,muziek,images/br_muziek.png,images/cb_muziek.png,0,,,,,,,,,,,,,,,,,,,,,,
,,,,,,2023-09-28_09h09.19.941,vbt_B1_day4,2022.2.4,MacIntel,62.6566416,55918,,,,,,down,0,1.703,,-0.8,-0.171111111,1,0,0,0,30,30,141,1,knielen,images/br_knielen.png,images/cb_knielen.png,0,,,,,,,,,,,,,,,,,,,,,,
,,,,,,2023-09-28_09h09.19.941,vbt_B1_day4,2022.2.4,MacIntel,62.6566416,55918,,,,,,down,0,2.522,,-0.8,-0.171111111,1,0,0,0,31,31,155,1,gerucht,images/br_gerucht.png,images/cb_gerucht.png,0,,,,,,,,,,,,,,,,,,,,,,
,,,,,,2023-09-28_09h09.19.941,vbt_B1_day4,2022.2.4,MacIntel,62.6566416,55918,,,,,,down,0,39.896,,-0.8,-0.171111111,1,0,0,0,32,32,27,1,dans,images/br_dans.png,images/cb_dans.png,1,dans,,,,,,,,,,,,,,,,,,,,,
,,,,,,2023-09-28_09h09.19.941,vbt_B1_day4,2022.2.4,MacIntel,62.6566416,55918,,,,,,down,0,4.237,,-0.8,-0.171111111,1,0,0,0,33,33,158,1,innemen,images/br_innemen.png,images/cb_innemen.png,0,,,,,,,,,,,,,,,,,,,,,,
,,,,,,2023-09-28_09h09.19.941,vbt_B1_day4,2022.2.4,MacIntel,62.6566416,55918,,,,,,down,0,0.927,,-0.8,-0.171111111,1,0,0,0,34,34,7,1,geld,images/br_geld.png,images/cb_geld.png,0,,,,,,,,,,,,,,,,,,,,,,
,,,,,,2023-09-28_09h09.19.941,vbt_B1_day4,2022.2.4,MacIntel,62.6566416,55918,,,,,,down,0,0.54,,-0.8,-0.171111111,1,0,0,0,35,35,55,1,praat,images/br_praat.png,images/cb_praat.png,0,,,,,,,,,,,,,,,,,,,,,,
,,,,,,2023-09-28_09h09.19.941,vbt_B1_day4,2022.2.4,MacIntel,62.6566416,55918,,,,,,down,0,1.005,,-0.8,-0.171111111,1,0,0,0,36,36,73,1,volop,images/br_volop.png,images/cb_volop.png,0,,,,,,,,,,,,,,,,,,,,,,
,,,,,,2023-09-28_09h09.19.941,vbt_B1_day4,2022.2.4,MacIntel,62.6566416,55918,,,,,,down,0,4.071,,-0.8,-0.171111111,1,0,0,0,37,37,154,1,aflopen,images/br_aflopen.png,images/cb_aflopen.png,0,,,,,,,,,,,,,,,,,,,,,,
,,,,,,2023-09-28_09h09.19.941,vbt_B1_day4,2022.2.4,MacIntel,62.6566416,55918,,,,,,down,0,0.073,,-0.8,-0.171111111,1,0,0,0,38,38,10,1,leek,images/br_leek.png,images/cb_leek.png,0,,,,,,,,,,,,,,,,,,,,,,
,,,,,,2023-09-28_09h09.19.941,vbt_B1_day4,2022.2.4,MacIntel,62.6566416,55918,,,,,,down,0,1.002,,-0.771111111,-0.137777778,1,0,0,0,39,39,188,1,strekken,images/br_strekken.png,images/cb_strekken.png,0,,,,,,,,,,,,,,,,,,,,,,
,,,,,,2023-09-28_09h09.19.941,vbt_B1_day4,2022.2.4,MacIntel,62.6566416,55918,,,,,,down,0,5.142,,-0.771111111,-0.137777778,1,0,0,0,40,40,164,1,anarchie,images/br_anarchie.png,images/cb_anarchie.png,0,,,,,,,,,,,,,,,,,,,,,,
,,,,,,2023-09-28_09h09.19.941,vbt_B1_day4,2022.2.4,MacIntel,62.6566416,55918,,,,,,down,0,30.22,,-0.771111111,-0.137777778,1,0,0,0,41,41,37,1,mijn,images/br_mijn.png,images/cb_mijn.png,0,,,,,,,,,,,,,,,,,,,,,,
,,,,,,2023-09-28_09h09.19.941,vbt_B1_day4,2022.2.4,MacIntel,62.6566416,55918,,,,,,down,0,47.205,,-0.755555556,-0.13,1,0,0,0,42,42,134,1,geliefd,images/br_geliefd.png,images/cb_geliefd.png,0,,,,,,,,,,,,,,,,,,,,,,
,,,,,,2023-09-28_09h09.19.941,vbt_B1_day4,2022.2.4,MacIntel,62.6566416,55918,,,,,,down,0,0.776,,-0.755555556,-0.13,1,0,0,0,43,43,22,1,stof,images/br_stof.png,images/cb_stof.png,0,,,,,,,,,,,,,,,,,,,,,,
,,,,,,2023-09-28_09h09.19.941,vbt_B1_day4,2022.2.4,MacIntel,62.6566416,55918,,,,,,down,0,5.736,,-0.755555556,-0.13,1,0,0,0,44,44,181,1,toegeven,images/br_toegeven.png,images/cb_toegeven.png,0,,,,,,,,,,,,,,,,,,,,,,
,,,,,,2023-09-28_09h09.19.941,vbt_B1_day4,2022.2.4,MacIntel,62.6566416,55918,,,,,,down,0,22.738,,-0.755555556,-0.13,1,0,0,0,45,45,151,1,aanzoek,images/br_aanzoek.png,images/cb_aanzoek.png,0,,,,,,,,,,,,,,,,,,,,,,
,,,,,,2023-09-28_09h09.19.941,vbt_B1_day4,2022.2.4,MacIntel,62.6566416,55918,,,,,,down,0,32.064,,-0.755555556,-0.13,1,0,0,0,46,46,183,1,getuigen,images/br_getuigen.png,images/cb_getuigen.png,0,,,,,,,,,,,,,,,,,,,,,,
,,,,,,2023-09-28_09h09.19.941,vbt_B1_day4,2022.2.4,MacIntel,62.6566416,55918,,,,,,down,0,2.7,,-0.755555556,-0.13,1,0,0,0,47,47,67,1,zwart,images/br_zwart.png,images/cb_zwart.png,1,zwart,,,,,,,,,,,,,,,,,,,,,
,,,,,,2023-09-28_09h09.19.941,vbt_B1_day4,2022.2.4,MacIntel,62.6566416,55918,,,,,,down,0,0.103,,-0.755555556,-0.13,1,0,0,0,48,48,115,1,kleren,images/br_kleren.png,images/cb_kleren.png,0,,,,,,,,,,,,,,,,,,,,,,
,,,,,,2023-09-28_09h09.19.941,vbt_B1_day4,2022.2.4,MacIntel,62.6566416,55918,,,,,,down,0,0.407,,-0.755555556,-0.13,1,0,0,0,49,49,69,1,waken,images/br_waken.png,images/cb_waken.png,0,,,,,,,,,,,,,,,,,,,,,,
,,,,,,2023-09-28_09h09.19.941,vbt_B1_day4,2022.2.4,MacIntel,62.6566416,55918,,,,,,down,0,0.824,,-0.755555556,-0.13,1,0,0,0,50,50,125,1,aanzien,images/br_aanzien.png,images/cb_aanzien.png,0,,,,,,,,,,,,,,,,,,,,,,
,,,,,,2023-09-28_09h09.19.941,vbt_B1_day4,2022.2.4,MacIntel,62.6566416,55918,,,,,,down,0,0.143,,-0.755555556,-0.13,1,0,0,0,51,51,174,1,stemming,images/br_stemming.png,images/cb_stemming.png,0,,,,,,,,,,,,,,,,,,,,,,
,,,,,,2023-09-28_09h09.19.941,vbt_B1_day4,2022.2.4,MacIntel,62.6566416,55918,,,,,,down,0,0.709,,-0.755555556,-0.13,1,0,0,0,52,52,108,1,excuus,images/br_excuus.png,images/cb_excuus.png,0,,,,,,,,,,,,,,,,,,,,,,
,,,,,,2023-09-28_09h09.19.941,vbt_B1_day4,2022.2.4,MacIntel,62.6566416,55918,,,,,,down,0,4.477,,-0.755555556,-0.13,1,0,0,0,53,53,180,1,openbaar,images/br_openbaar.png,images/cb_openbaar.png,0,,,,,,,,,,,,,,,,,,,,,,
,,,,,,2023-09-28_09h09.19.941,vbt_B1_day4,2022.2.4,MacIntel,62.6566416,55918,,,,,,down,0,0.335,,-0.755555556,-0.13,1,0,0,0,54,54,166,1,strikken,images/br_strikken.png,images/cb_strikken.png,0,,,,,,,,,,,,,,,,,,,,,,
,,,,,,2023-09-28_09h09.19.941,vbt_B1_day4,2022.2.4,MacIntel,62.6566416,55918,,,,,,down,0,0.422,,-0.755555556,-0.13,1,0,0,0,55,55,45,1,piste,images/br_piste.png,images/cb_piste.png,0,,,,,,,,,,,,,,,,,,,,,,
,,,,,,2023-09-28_09h09.19.941,vbt_B1_day4,2022.2.4,MacIntel,62.6566416,55918,,,,,,down,0,8.944,,-0.755555556,-0.13,1,0,0,0,56,56,131,1,opzicht,images/br_opzicht.png,images/cb_opzicht.png,0,,,,,,,,,,,,,,,,,,,,,,
,,,,,,2023-09-28_09h09.19.941,vbt_B1_day4,2022.2.4,MacIntel,62.6566416,55918,,,,,,down,0,10.753,,-0.755555556,-0.13,1,0,0,0,57,57,191,1,opheffen,images/br_opheffen.png,images/cb_opheffen.png,0,,,,,,,,,,,,,,,,,,,,,,
,,,,,,2023-09-28_09h09.19.941,vbt_B1_day4,2022.2.4,MacIntel,62.6566416,55918,,,,,,down,0,212.059,,-0.755555556,-0.13,1,0,0,0,58,58,153,1,vervoer,images/br_vervoer.png,images/cb_vervoer.png,0,,,,,,,,,,,,,,,,,,,,,,
,,,,,,2023-09-28_09h09.19.941,vbt_B1_day4,2022.2.4,MacIntel,62.6566416,55918,,,,,,down,0,4.256,,-0.755555556,-0.13,1,0,0,0,59,59,184,1,aandelen,images/br_aandelen.png,images/cb_aandelen.png,1,aandelen,,,,,,,,,,,,,,,,,,,,,
,,,,,,2023-09-28_09h09.19.941,vbt_B1_day4,2022.2.4,MacIntel,62.6566416,55918,,,,,,down,0,3.659,,-0.755555556,-0.13,1,0,0,0,60,60,64,1,wegen,images/br_wegen.png,images/cb_wegen.png,1,wegen,,,,,,,,,,,,,,,,,,,,,
,,,,,,2023-09-28_09h09.19.941,vbt_B1_day4,2022.2.4,MacIntel,62.6566416,55918,,,,,,down,0,0.069,,-0.758888889,-0.138888889,1,0,0,0,61,61,51,1,samen,images/br_samen.png,images/cb_samen.png,0,,,,,,,,,,,,,,,,,,,,,,
,,,,,,2023-09-28_09h09.19.941,vbt_B1_day4,2022.2.4,MacIntel,62.6566416,55918,,,,,,down,0,8.271,,-0.758888889,-0.138888889,1,0,0,0,62,62,136,1,waarbij,images/br_waarbij.png,images/cb_waarbij.png,0,,,,,,,,,,,,,,,,,,,,,,
,,,,,,2023-09-28_09h09.19.941,vbt_B1_day4,2022.2.4,MacIntel,62.6566416,55918,,,,,,down,0,6.619,,-0.758888889,-0.138888889,1,0,0,0,63,63,165,1,feestdag,images/br_feestdag.png,images/cb_feestdag.png,0,,,,,,,,,,,,,,,,,,,,,,
,,,,,,2023-09-28_09h09.19.941,vbt_B1_day4,2022.2.4,MacIntel,62.6566416,55918,,,,,,down,0,3.239,,-0.758888889,-0.138888889,1,0,0,0,64,64,118,1,vinger,images/br_vinger.png,images/cb_vinger.png,0,,,,,,,,,,,,,,,,,,,,,,
,,,,,,2023-09-28_09h09.19.941,vbt_B1_day4,2022.2.4,MacIntel,62.6566416,55918,,,,,,down,0,56.231,,-0.758888889,-0.138888889,1,0,0,0,65,65,143,1,hechten,images/br_hechten.png,images/cb_hechten.png,0,,,,,,,,,,,,,,,,,,,,,,
,,,,,,2023-09-28_09h09.19.941,vbt_B1_day4,2022.2.4,MacIntel,62.6566416,55918,,,,,,down,0,0.169,,-0.703333333,-0.176666667,1,0,0,0,66,66,113,1,koppen,images/br_koppen.png,images/cb_koppen.png,0,,,,,,,,,,,,,,,,,,,,,,
,,,,,,2023-09-28_09h09.19.941,vbt_B1_day4,2022.2.4,MacIntel,62.6566416,55918,,,,,,down,0,1.923,,-0.703333333,-0.176666667,1,0,0,0,67,67,104,1,zweven,images/br_zweven.png,images/cb_zweven.png,1,zweven,,,,,,,,,,,,,,,,,,,,,
,,,,,,2023-09-28_09h09.19.941,vbt_B1_day4,2022.2.4,MacIntel,62.6566416,55918,,,,,,down,0,4.203,,-0.703333333,-0.176666667,1,0,0,0,68,68,150,1,gegeven,images/br_gegeven.png,images/cb_gegeven.png,0,,,,,,,,,,,,,,,,,,,,,,
,,,,,,2023-09-28_09h09.19.941,vbt_B1_day4,2022.2.4,MacIntel,62.6566416,55918,,,,,,down,0,8.354,,-0.703333333,-0.176666667,1,0,0,0,69,69,167,1,eenhoorn,images/br_eenhoorn.png,images/cb_eenhoorn.png,0,,,,,,,,,,,,,,,,,,,,,,
,,,,,,2023-09-28_09h09.19.941,vbt_B1_day4,2022.2.4,MacIntel,62.6566416,55918,,,,,,down,0,0.619,,-0.703333333,-0.176666667,1,0,0,0,70,70,39,1,laag,images/br_laag.png,images/cb_laag.png,0,,,,,,,,,,,,,,,,,,,,,,
,,,,,,2023-09-28_09h09.19.941,vbt_B1_day4,2022.2.4,MacIntel,62.6566416,55918,,,,,,down,0,3.925,,-0.702222222,-0.177777778,1,0,0,0,71,71,190,1,goedkoop,images/br_goedkoop.png,images/cb_goedkoop.png,0,,,,,,,,,,,,,,,,,,,,,,
,,,,,,2023-09-28_09h09.19.941,vbt_B1_day4,2022.2.4,MacIntel,62.6566416,55918,,,,,,down,0,11.043,,-0.702222222,-0.177777778,1,0,0,0,72,72,171,1,aarzelen,images/br_aarzelen.png,images/cb_aarzelen.png,0,,,,,,,,,,,,,,,,,,,,,,
,,,,,,2023-09-28_09h09.19.941,vbt_B1_day4,2022.2.4,MacIntel,62.6566416,55918,,,,,,down,0,20.508,,-0.702222222,-0.177777778,1,0,0,0,73,73,71,1,bever,images/br_bever.png,images/cb_bever.png,0,,,,,,,,,,,,,,,,,,,,,,
,,,,,,2023-09-28_09h09.19.941,vbt_B1_day4,2022.2.4,MacIntel,62.6566416,55918,,,,,,down,0,2.909,,-0.702222222,-0.177777778,1,0,0,0,74,74,68,1,schat,images/br_schat.png,images/cb_schat.png,0,,,,,,,,,,,,,,,,,,,,,,
,,,,,,2023-09-28_09h09.19.941,vbt_B1_day4,2022.2.4,MacIntel,62.6566416,55918,,,,,,down,0,1.154,,-0.702222222,-0.177777778,1,0,0,0,75,75,2,1,jaar,images/br_jaar.png,images/cb_jaar.png,0,,,,,,,,,,,,,,,,,,,,,,
,,,,,,2023-09-28_09h09.19.941,vbt_B1_day4,2022.2.4,MacIntel,62.6566416,55918,,,,,,down,0,0.239,,-0.702222222,-0.177777778,1,0,0,0,76,76,173,1,apparaat,images/br_apparaat.png,images/cb_apparaat.png,0,,,,,,,,,,,,,,,,,,,,,,
,,,,,,2023-09-28_09h09.19.941,vbt_B1_day4,2022.2.4,MacIntel,62.6566416,55918,,,,,,down,0,0.737,,-0.702222222,-0.177777778,1,0,0,0,77,77,109,1,totaal,images/br_totaal.png,images/cb_totaal.png,0,,,,,,,,,,,,,,,,,,,,,,
,,,,,,2023-09-28_09h09.19.941,vbt_B1_day4,2022.2.4,MacIntel,62.6566416,55918,,,,,,down,0,1.319,,-0.701111111,-0.177777778,1,0,0,0,78,78,80,1,kanjer,images/br_kanjer.png,images/cb_kanjer.png,0,,,,,,,,,,,,,,,,,,,,,,
,,,,,,2023-09-28_09h09.19.941,vbt_B1_day4,2022.2.4,MacIntel,62.6566416,55918,,,,,,down,0,4.341,,-0.701111111,-0.177777778,1,0,0,0,79,79,189,1,aanraden,images/br_aanraden.png,images/cb_aanraden.png,0,,,,,,,,,,,,,,,,,,,,,,
,,,,,,2023-09-28_09h09.19.941,vbt_B1_day4,2022.2.4,MacIntel,62.6566416,55918,,,,,,down,0,0.289,,-0.701111111,-0.177777778,1,0,0,0,80,80,101,1,staren,images/br_staren.png,images/cb_staren.png,0,,,,,,,,,,,,,,,,,,,,,,
,,,,,,2023-09-28_09h09.19.941,vbt_B1_day4,2022.2.4,MacIntel,62.6566416,55918,,,,,,down,0,0.211,,-0.701111111,-0.177777778,1,0,0,0,81,81,0,1,slak,images/br_slak.png,images/cb_slak.png,0,,,,,,,,,,,,,,,,,,,,,,
,,,,,,2023-09-28_09h09.19.941,vbt_B1_day4,2022.2.4,MacIntel,62.6566416,55918,,,,,,down,0,53.679,,-0.541111111,-0.138888889,1,0,0,0,82,82,157,1,uitlaat,images/br_uitlaat.png,images/cb_uitlaat.png,0,,,,,,,,,,,,,,,,,,,,,,
,,,,,,2023-09-28_09h09.19.941,vbt_B1_day4,2022.2.4,MacIntel,62.6566416,55918,,,,,,down,0,59.825,,-0.541111111,-0.138888889,1,0,0,0,83,83,130,1,keihard,images/br_keihard.png,images/cb_keihard.png,0,,,,,,,,,,,,,,,,,,,,,,
,,,,,,2023-09-28_09h09.19.941,vbt_B1_day4,2022.2.4,MacIntel,62.6566416,55918,,,,,,down,0,6.038,,-0.541111111,-0.138888889,1,0,0,0,84,84,146,1,opkomen,images/br_opkomen.png,images/cb_opkomen.png,1,opkomen,,,,,,,,,,,,,,,,,,,,,
,,,,,,2023-09-28_09h09.19.941,vbt_B1_day4,2022.2.4,MacIntel,62.6566416,55918,,,,,,down,0,1.258,,-0.541111111,-0.138888889,1,0,0,0,85,85,98,1,kreeft,images/br_kreeft.png,images/cb_kreeft.png,0,,,,,,,,,,,,,,,,,,,,,,
,,,,,,2023-09-28_09h09.19.941,vbt_B1_day4,2022.2.4,MacIntel,62.6566416,55918,,,,,,down,0,1.308,,-0.538888889,-0.137777778,1,0,0,0,86,86,129,1,verhaal,images/br_verhaal.png,images/cb_verhaal.png,0,,,,,,,,,,,,,,,,,,,,,,
,,,,,,2023-09-28_09h09.19.941,vbt_B1_day4,2022.2.4,MacIntel,62.6566416,55918,,,,,,down,0,0.492,,-0.536666667,-0.137777778,1,0,0,0,87,87,47,1,kabel,images/br_kabel.png,images/cb_kabel.png,0,,,,,,,,,,,,,,,,,,,,,,
,,,,,,2023-09-28_09h09.19.941,vbt_B1_day4,2022.2.4,MacIntel,62.6566416,55918,,,,,,down,0,3.435,,-0.536666667,-0.137777778,1,0,0,0,88,88,110,1,zuster,images/br_zuster.png,images/cb_zuster.png,0,,,,,,,,,,,,,,,,,,,,,,
,,,,,,2023-09-28_09h09.19.941,vbt_B1_day4,2022.2.4,MacIntel,62.6566416,55918,,,,,,down,0,0.397,,-0.536666667,-0.137777778,1,0,0,0,89,89,59,1,kring,images/br_kring.png,images/cb_kring.png,0,,,,,,,,,,,,,,,,,,,,,,
,,,,,,2023-09-28_09h09.19.941,vbt_B1_day4,2022.2.4,MacIntel,62.6566416,55918,,,,,,down,0,0.52,,-0.53,-0.124444444,1,0,0,0,90,90,13,1,kaal,images/br_kaal.png,images/cb_kaal.png,0,,,,,,,,,,,,,,,,,,,,,,
,,,,,,2023-09-28_09h09.19.941,vbt_B1_day4,2022.2.4,MacIntel,62.6566416,55918,,,,,,down,0,2.106,,-0.527777778,-0.104444444,1,0,0,0,91,91,176,1,techniek,images/br_techniek.png,images/cb_techniek.png,0,,,,,,,,,,,,,,,,,,,,,,
,,,,,,2023-09-28_09h09.19.941,vbt_B1_day4,2022.2.4,MacIntel,62.6566416,55918,,,,,,down,0,0.685,,-0.527777778,-0.104444444,1,0,0,0,92,92,62,1,knaap,images/br_knaap.png,images/cb_knaap.png,0,,,,,,,,,,,,,,,,,,,,,,
,,,,,,2023-09-28_09h09.19.941,vbt_B1_day4,2022.2.4,MacIntel,62.6566416,55918,,,,,,down,0,0.903,,-0.527777778,-0.104444444,1,0,0,0,93,93,42,1,bleek,images/br_bleek.png,images/cb_bleek.png,0,,,,,,,,,,,,,,,,,,,,,,
,,,,,,2023-09-28_09h09.19.941,vbt_B1_day4,2022.2.4,MacIntel,62.6566416,55918,,,,,,down,0,0.606,,-0.527777778,-0.104444444,1,0,0,0,94,94,17,1,taal,images/br_taal.png,images/cb_taal.png,0,,,,,,,,,,,,,,,,,,,,,,
,,,,,,2023-09-28_09h09.19.941,vbt_B1_day4,2022.2.4,MacIntel,62.6566416,55918,,,,,,down,0,0.227,,-0.527777778,-0.104444444,1,0,0,0,95,95,12,1,kust,images/br_kust.png,images/cb_kust.png,0,,,,,,,,,,,,,,,,,,,,,,
,,,,,,2023-09-28_09h09.19.941,vbt_B1_day4,2022.2.4,MacIntel,62.6566416,55918,,,,,,down,0,0.441,,-0.527777778,-0.104444444,1,0,0,0,96,96,87,1,toeval,images/br_toeval.png,images/cb_toeval.png,0,,,,,,,,,,,,,,,,,,,,,,
,,,,,,2023-09-28_09h09.19.941,vbt_B1_day4,2022.2.4,MacIntel,62.6566416,55918,,,,,,down,0,85.515,,-0.527777778,-0.104444444,1,0,0,0,97,97,159,1,sufferd,images/br_sufferd.png,images/cb_sufferd.png,0,,,,,,,,,,,,,,,,,,,,,,
,,,,,,2023-09-28_09h09.19.941,vbt_B1_day4,2022.2.4,MacIntel,62.6566416,55918,,,,,,down,0,0.705,,-0.527777778,-0.104444444,1,0,0,0,98,98,120,1,klimmen,images/br_klimmen.png,images/cb_klimmen.png,0,,,,,,,,,,,,,,,,,,,,,,
,,,,,,2023-09-28_09h09.19.941,vbt_B1_day4,2022.2.4,MacIntel,62.6566416,55918,,,,,,down,0,0.177,,-0.527777778,-0.104444444,1,0,0,0,99,99,33,1,vlek,images/br_vlek.png,images/cb_vlek.png,0,,,,,,,,,,,,,,,,,,,,,,
,,,,,,2023-09-28_09h09.19.941,vbt_B1_day4,2022.2.4,MacIntel,62.6566416,55918,,,,,,down,0,7.333,,-0.527777778,-0.104444444,1,0,0,0,100,100,26,1,leuk,images/br_leuk.png,images/cb_leuk.png,1,leuk,,,,,,,,,,,,,,,,,,,,,
,,,,,,2023-09-28_09h09.19.941,vbt_B1_day4,2022.2.4,MacIntel,62.6566416,55918,,,,,,down,0,0.508,,-0.527777778,-0.104444444,1,0,0,0,101,101,169,1,oprotten,images/br_oprotten.png,images/cb_oprotten.png,0,,,,,,,,,,,,,,,,,,,,,,
,,,,,,2023-09-28_09h09.19.941,vbt_B1_day4,2022.2.4,MacIntel,62.6566416,55918,,,,,,down,0,6.823,,-0.527777778,-0.104444444,1,0,0,0,102,102,60,1,jasje,images/br_jasje.png,images/cb_jasje.png,0,,,,,,,,,,,,,,,,,,,,,,
,,,,,,2023-09-28_09h09.19.941,vbt_B1_day4,2022.2.4,MacIntel,62.6566416,55918,,,,,,down,0,4.92,,-0.527777778,-0.104444444,1,0,0,0,103,103,92,1,geheim,images/br_geheim.png,images/cb_geheim.png,0,,,,,,,,,,,,,,,,,,,,,,
,,,,,,2023-09-28_09h09.19.941,vbt_B1_day4,2022.2.4,MacIntel,62.6566416,55918,,,,,,down,0,1.256,,-0.527777778,-0.104444444,1,0,0,0,104,104,38,1,baai,images/br_baai.png,images/cb_baai.png,0,,,,,,,,,,,,,,,,,,,,,,
,,,,,,2023-09-28_09h09.19.941,vbt_B1_day4,2022.2.4,MacIntel,62.6566416,55918,,,,,,down,0,5.555,,-0.527777778,-0.104444444,1,0,0,0,105,105,147,1,komisch,images/br_komisch.png,images/cb_komisch.png,1,komisch,,,,,,,,,,,,,,,,,,,,,
,,,,,,2023-09-28_09h09.19.941,vbt_B1_day4,2022.2.4,MacIntel,62.6566416,55918,,,,,,down,0,0.705,,-0.527777778,-0.104444444,1,0,0,0,106,106,53,1,baron,images/br_baron.png,images/cb_baron.png,0,,,,,,,,,,,,,,,,,,,,,,
,,,,,,2023-09-28_09h09.19.941,vbt_B1_day4,2022.2.4,MacIntel,62.6566416,55918,,,,,,down,0,15.053,,-0.527777778,-0.104444444,1,0,0,0,107,107,77,1,woede,images/br_woede.png,images/cb_woede.png,0,,,,,,,,,,,,,,,,,,,,,,
,,,,,,2023-09-28_09h09.19.941,vbt_B1_day4,2022.2.4,MacIntel,62.6566416,55918,,,,,,down,0,7.374,,-0.527777778,-0.104444444,1,0,0,0,108,108,178,1,huisdier,images/br_huisdier.png,images/cb_huisdier.png,0,,,,,,,,,,,,,,,,,,,,,,
,,,,,,2023-09-28_09h09.19.941,vbt_B1_day4,2022.2.4,MacIntel,62.6566416,55918,,,,,,down,0,1.504,,-0.527777778,-0.104444444,1,0,0,0,109,109,66,1,lever,images/br_lever.png,images/cb_lever.png,1,lever,,,,,,,,,,,,,,,,,,,,,
,,,,,,2023-09-28_09h09.19.941,vbt_B1_day4,2022.2.4,MacIntel,62.6566416,55918,,,,,,down,0,0.104,,-0.527777778,-0.104444444,1,0,0,0,110,110,16,1,ziek,images/br_ziek.png,images/cb_ziek.png,0,,,,,,,,,,,,,,,,,,,,,,
,,,,,,2023-09-28_09h09.19.941,vbt_B1_day4,2022.2.4,MacIntel,62.6566416,55918,,,,,,down,0,87.006,,-0.527777778,-0.104444444,1,0,0,0,111,111,41,1,maken,images/br_maken.png,images/cb_maken.png,0,,,,,,,,,,,,,,,,,,,,,,
,,,,,,2023-09-28_09h09.19.941,vbt_B1_day4,2022.2.4,MacIntel,62.6566416,55918,,,,,,down,0,1.688,,-0.527777778,-0.104444444,1,0,0,0,112,112,1,1,zaal,images/br_zaal.png,images/cb_zaal.png,0,,,,,,,,,,,,,,,,,,,,,,
,,,,,,2023-09-28_09h09.19.941,vbt_B1_day4,2022.2.4,MacIntel,62.6566416,55918,,,,,,down,0,0.594,,-0.527777778,-0.104444444,1,0,0,0,113,113,139,1,stiekem,images/br_stiekem.png,images/cb_stiekem.png,0,,,,,,,,,,,,,,,,,,,,,,
,,,,,,2023-09-28_09h09.19.941,vbt_B1_day4,2022.2.4,MacIntel,62.6566416,55918,,,,,,down,0,0.122,,-0.527777778,-0.104444444,1,0,0,0,114,114,112,1,lukken,images/br_lukken.png,images/cb_lukken.png,0,,,,,,,,,,,,,,,,,,,,,,
,,,,,,2023-09-28_09h09.19.941,vbt_B1_day4,2022.2.4,MacIntel,62.6566416,55918,,,,,,down,0,0.936,,-0.527777778,-0.104444444,1,0,0,0,115,115,144,1,eetlust,images/br_eetlust.png,images/cb_eetlust.png,1,eetlust,,,,,,,,,,,,,,,,,,,,,
,,,,,,2023-09-28_09h09.19.941,vbt_B1_day4,2022.2.4,MacIntel,62.6566416,55918,,,,,,down,0,2.285,,-0.527777778,-0.104444444,1,0,0,0,116,116,170,1,schatten,images/br_schatten.png,images/cb_schatten.png,0,,,,,,,,,,,,,,,,,,,,,,
,,,,,,2023-09-28_09h09.19.941,vbt_B1_day4,2022.2.4,MacIntel,62.6566416,55918,,,,,,down,0,0.135,,-0.527777778,-0.104444444,1,0,0,0,117,117,36,1,vuur,images/br_vuur.png,images/cb_vuur.png,0,,,,,,,,,,,,,,,,,,,,,,
,,,,,,2023-09-28_09h09.19.941,vbt_B1_day4,2022.2.4,MacIntel,62.6566416,55918,,,,,,down,0,4.254,,-0.527777778,-0.104444444,1,0,0,0,118,118,34,1,vorm,images/br_vorm.png,images/cb_vorm.png,0,,,,,,,,,,,,,,,,,,,,,,
,,,,,,2023-09-28_09h09.19.941,vbt_B1_day4,2022.2.4,MacIntel,62.6566416,55918,,,,,,down,0,2.574,,-0.527777778,-0.104444444,1,0,0,0,119,119,32,1,palm,images/br_palm.png,images/cb_palm.png,0,,,,,,,,,,,,,,,,,,,,,,
,,,,,,2023-09-28_09h09.19.941,vbt_B1_day4,2022.2.4,MacIntel,62.6566416,55918,,,,,,down,0,8.039,,-0.527777778,-0.104444444,1,0,0,0,120,120,103,1,joggen,images/br_joggen.png,images/cb_joggen.png,0,,,,,,,,,,,,,,,,,,,,,,
,,,,,,2023-09-28_09h09.19.941,vbt_B1_day4,2022.2.4,MacIntel,62.6566416,55918,,,,,,down,0,0.219,,-0.516666667,-0.104444444,1,0,0,0,121,121,102,1,legaal,images/br_legaal.png,images/cb_legaal.png,0,,,,,,,,,,,,,,,,,,,,,,
,,,,,,2023-09-28_09h09.19.941,vbt_B1_day4,2022.2.4,MacIntel,62.6566416,55918,,,,,,down,0,109.026,,-0.516666667,-0.104444444,1,0,0,0,122,122,11,1,mode,images/br_mode.png,images/cb_mode.png,0,,,,,,,,,,,,,,,,,,,,,,
,,,,,,2023-09-28_09h09.19.941,vbt_B1_day4,2022.2.4,MacIntel,62.6566416,55918,,,,,,down,0,0.358,,-0.516666667,-0.104444444,1,0,0,0,123,123,96,1,slagen,images/br_slagen.png,images/cb_slagen.png,0,,,,,,,,,,,,,,,,,,,,,,
,,,,,,2023-09-28_09h09.19.941,vbt_B1_day4,2022.2.4,MacIntel,62.6566416,55918,,,,,,down,0,12.971,,-0.516666667,-0.093333333,1,0,0,0,124,124,50,1,stoom,images/br_stoom.png,images/cb_stoom.png,0,,,,,,,,,,,,,,,,,,,,,,
,,,,,,2023-09-28_09h09.19.941,vbt_B1_day4,2022.2.4,MacIntel,62.6566416,55918,,,,,,down,0,1.735,,-0.516666667,-0.093333333,1,0,0,0,125,125,192,1,schaamte,images/br_schaamte.png,images/cb_schaamte.png,0,,,,,,,,,,,,,,,,,,,,,,
,,,,,,2023-09-28_09h09.19.941,vbt_B1_day4,2022.2.4,MacIntel,62.6566416,55918,,,,,,down,0,1.209,,-0.516666667,-0.093333333,1,0,0,0,126,126,197,1,spanning,images/br_spanning.png,images/cb_spanning.png,0,,,,,,,,,,,,,,,,,,,,,,
,,,,,,2023-09-28_09h09.19.941,vbt_B1_day4,2022.2.4,MacIntel,62.6566416,55918,,,,,,down,0,2.918,,-0.516666667,-0.093333333,1,0,0,0,127,127,75,1,snoep,images/br_snoep.png,images/cb_snoep.png,0,,,,,,,,,,,,,,,,,,,,,,
,,,,,,2023-09-28_09h09.19.941,vbt_B1_day4,2022.2.4,MacIntel,62.6566416,55918,,,,,,down,0,4.102,,-0.516666667,-0.093333333,1,0,0,0,128,128,187,1,opkijken,images/br_opkijken.png,images/cb_opkijken.png,1,opkijken,,,,,,,,,,,,,,,,,,,,,
,,,,,,2023-09-28_09h09.19.941,vbt_B1_day4,2022.2.4,MacIntel,62.6566416,55918,,,,,,down,0,7.407,,-0.516666667,-0.093333333,1,0,0,0,129,129,76,1,afval,images/br_afval.png,images/cb_afval.png,0,,,,,,,,,,,,,,,,,,,,,,
,,,,,,2023-09-28_09h09.19.941,vbt_B1_day4,2022.2.4,MacIntel,62.6566416,55918,,,,,,down,0,57.809,,-0.516666667,-0.093333333,1,0,0,0,130,130,83,1,mening,images/br_mening.png,images/cb_mening.png,0,,,,,,,,,,,,,,,,,,,,,,
,,,,,,2023-09-28_09h09.19.941,vbt_B1_day4,2022.2.4,MacIntel,62.6566416,55918,,,,,,down,0,2.103,,-0.516666667,-0.093333333,1,0,0,0,131,131,24,1,jurk,images/br_jurk.png,images/cb_jurk.png,1,jurk,,,,,,,,,,,,,,,,,,,,,
,,,,,,2023-09-28_09h09.19.941,vbt_B1_day4,2022.2.4,MacIntel,62.6566416,55918,,,,,,down,0,26.826,,-0.516666667,-0.093333333,1,0,0,0,132,132,195,1,middelen,images/br_middelen.png,images/cb_middelen.png,0,,,,,,,,,,,,,,,,,,,,,,
,,,,,,2023-09-28_09h09.19.941,vbt_B1_day4,2022.2.4,MacIntel,62.6566416,55918,,,,,,down,0,2.309,,-0.516666667,-0.093333333,1,0,0,0,133,133,160,1,daarheen,images/br_daarheen.png,images/cb_daarheen.png,0,,,,,,,,,,,,,,,,,,,,,,
,,,,,,2023-09-28_09h09.19.941,vbt_B1_day4,2022.2.4,MacIntel,62.6566416,55918,,,,,,down,0,1.924,,-0.516666667,-0.093333333,1,0,0,0,134,134,149,1,redding,images/br_redding.png,images/cb_redding.png,0,,,,,,,,,,,,,,,,,,,,,,
,,,,,,2023-09-28_09h09.19.941,vbt_B1_day4,2022.2.4,MacIntel,62.6566416,55918,,,,,,down,0,3.823,,-0.516666667,-0.093333333,1,0,0,0,135,135,111,1,ticket,images/br_ticket.png,images/cb_ticket.png,0,,,,,,,,,,,,,,,,,,,,,,
,,,,,,2023-09-28_09h09.19.941,vbt_B1_day4,2022.2.4,MacIntel,62.6566416,55918,,,,,,down,0,4.225,,-0.516666667,-0.093333333,1,0,0,0,136,136,161,1,attentie,images/br_attentie.png,images/cb_attentie.png,0,,,,,,,,,,,,,,,,,,,,,,
,,,,,,2023-09-28_09h09.19.941,vbt_B1_day4,2022.2.4,MacIntel,62.6566416,55918,,,,,,down,0,0.119,,-0.516666667,-0.093333333,1,0,0,0,137,137,72,1,strak,images/br_strak.png,images/cb_strak.png,0,,,,,,,,,,,,,,,,,,,,,,
,,,,,,2023-09-28_09h09.19.941,vbt_B1_day4,2022.2.4,MacIntel,62.6566416,55918,,,,,,down,0,3.51,,-0.516666667,-0.093333333,1,0,0,0,138,138,78,1,leren,images/br_leren.png,images/cb_leren.png,0,,,,,,,,,,,,,,,,,,,,,,
,,,,,,2023-09-28_09h09.19.941,vbt_B1_day4,2022.2.4,MacIntel,62.6566416,55918,,,,,,down,0,37.046,,-0.516666667,-0.093333333,1,0,0,0,139,139,31,1,poes,images/br_poes.png,images/cb_poes.png,0,,,,,,,,,,,,,,,,,,,,,,
,,,,,,2023-09-28_09h09.19.941,vbt_B1_day4,2022.2.4,MacIntel,62.6566416,55918,,,,,,down,0,3.924,,-0.516666667,-0.093333333,1,0,0,0,140,140,63,1,flirt,images/br_flirt.png,images/cb_flirt.png,0,,,,,,,,,,,,,,,,,,,,,,
,,,,,,2023-09-28_09h09.19.941,vbt_B1_day4,2022.2.4,MacIntel,62.6566416,55918,,,,,,down,0,1.655,,-0.517777778,-0.106666667,1,0,0,0,141,141,193,1,weeshuis,images/br_weeshuis.png,images/cb_weeshuis.png,0,,,,,,,,,,,,,,,,,,,,,,
,,,,,,2023-09-28_09h09.19.941,vbt_B1_day4,2022.2.4,MacIntel,62.6566416,55918,,,,,,down,0,12.945,,-0.501111111,-0.116666667,1,0,0,0,142,142,43,1,klauw,images/br_klauw.png,images/cb_klauw.png,0,,,,,,,,,,,,,,,,,,,,,,
,,,,,,2023-09-28_09h09.19.941,vbt_B1_day4,2022.2.4,MacIntel,62.6566416,55918,,,,,,down,0,2.626,,-0.502222222,-0.116666667,1,0,0,0,143,143,5,1,blad,images/br_blad.png,images/cb_blad.png,0,,,,,,,,,,,,,,,,,,,,,,
,,,,,,2023-09-28_09h09.19.941,vbt_B1_day4,2022.2.4,MacIntel,62.6566416,55918,,,,,,down,0,0.152,,-0.502222222,-0.116666667,1,0,0,0,144,144,48,1,steel,images/br_steel.png,images/cb_steel.png,0,,,,,,,,,,,,,,,,,,,,,,
,,,,,,2023-09-28_09h09.19.941,vbt_B1_day4,2022.2.4,MacIntel,62.6566416,55918,,,,,,down,0,0.368,,-0.502222222,-0.116666667,1,0,0,0,145,145,114,1,vullen,images/br_vullen.png,images/cb_vullen.png,0,,,,,,,,,,,,,,,,,,,,,,
,,,,,,2023-09-28_09h09.19.941,vbt_B1_day4,2022.2.4,MacIntel,62.6566416,55918,,,,,,down,0,21.402,,-0.502222222,-0.116666667,1,0,0,0,146,146,162,1,uitdelen,images/br_uitdelen.png,images/cb_uitdelen.png,0,,,,,,,,,,,,,,,,,,,,,,
,,,,,,2023-09-28_09h09.19.941,vbt_B1_day4,2022.2.4,MacIntel,62.6566416,55918,,,,,,down,0,18.888,,-0.502222222,-0.116666667,1,0,0,0,147,147,175,1,heengaan,images/br_heengaan.png,images/cb_heengaan.png,0,,,,,,,,,,,,,,,,,,,,,,
,,,,,,2023-09-28_09h09.19.941,vbt_B1_day4,2022.2.4,MacIntel,62.6566416,55918,,,,,,down,0,3.222,,-0.502222222,-0.116666667,1,0,0,0,148,148,30,1,uien,images/br_uien.png,images/cb_uien.png,0,,,,,,,,,,,,,,,,,,,,,,
,,,,,,2023-09-28_09h09.19.941,vbt_B1_day4,2022.2.4,MacIntel,62.6566416,55918,,,,,,down,0,12.53,,-0.512222222,-0.115555556,1,0,0,0,149,149,21,1,mist,images/br_mist.png,images/cb_mist.png,0,,,,,,,,,,,,,,,,,,,,,,
,,,,,,2023-09-28_09h09.19.941,vbt_B1_day4,2022.2.4,MacIntel,62.6566416,55918,,,,,,down,0,57.724,,-0.512222222,-0.115555556,1,0,0,0,150,150,168,1,bisschop,images/br_bisschop.png,images/cb_bisschop.png,0,,,,,,,,,,,,,,,,,,,,,,
,,,,,,2023-09-28_09h09.19.941,vbt_B1_day4,2022.2.4,MacIntel,62.6566416,55918,,,,,,down,0,1.459,,-0.512222222,-0.115555556,1,0,0,0,151,151,4,1,moes,images/br_moes.png,images/cb_moes.png,0,,,,,,,,,,,,,,,,,,,,,,
,,,,,,2023-09-28_09h09.19.941,vbt_B1_day4,2022.2.4,MacIntel,62.6566416,55918,,,,,,down,0,0.841,,-0.512222222,-0.115555556,1,0,0,0,152,152,117,1,kennis,images/br_kennis.png,images/cb_kennis.png,0,,,,,,,,,,,,,,,,,,,,,,
,,,,,,2023-09-28_09h09.19.941,vbt_B1_day4,2022.2.4,MacIntel,62.6566416,55918,,,,,,down,0,3.604,,-0.512222222,-0.115555556,1,0,0,0,153,153,172,1,weigeren,images/br_weigeren.png,images/cb_weigeren.png,0,,,,,,,,,,,,,,,,,,,,,,
,,,,,,2023-09-28_09h09.19.941,vbt_B1_day4,2022.2.4,MacIntel,62.6566416,55918,,,,,,down,0,2.806,,-0.512222222,-0.115555556,1,0,0,0,154,154,140,1,blijven,images/br_blijven.png,images/cb_blijven.png,0,,,,,,,,,,,,,,,,,,,,,,
,,,,,,2023-09-28_09h09.19.941,vbt_B1_day4,2022.2.4,MacIntel,62.6566416,55918,,,,,,down,0,2.11,,-0.512222222,-0.115555556,1,0,0,0,155,155,57,1,steek,images/br_steek.png,images/cb_steek.png,0,,,,,,,,,,,,,,,,,,,,,,
,,,,,,2023-09-28_09h09.19.941,vbt_B1_day4,2022.2.4,MacIntel,62.6566416,55918,,,,,,down,0,0.458,,-0.512222222,-0.115555556,1,0,0,0,156,156,56,1,traag,images/br_traag.png,images/cb_traag.png,0,,,,,,,,,,,,,,,,,,,,,,
,,,,,,2023-09-28_09h09.19.941,vbt_B1_day4,2022.2.4,MacIntel,62.6566416,55918,,,,,,down,0,1.559,,-0.516666667,-0.118888889,1,0,0,0,157,157,19,1,geit,images/br_geit.png,images/cb_geit.png,0,,,,,,,,,,,,,,,,,,,,,,
,,,,,,2023-09-28_09h09.19.941,vbt_B1_day4,2022.2.4,MacIntel,62.6566416,55918,,,,,,down,0,0.426,,-0.522222222,-0.118888889,1,0,0,0,158,158,89,1,slapen,images/br_slapen.png,images/cb_slapen.png,0,,,,,,,,,,,,,,,,,,,,,,
,,,,,,2023-09-28_09h09.19.941,vbt_B1_day4,2022.2.4,MacIntel,62.6566416,55918,,,,,,down,0,18.795,,-0.527777778,-0.118888889,1,0,0,0,159,159,6,1,diep,images/br_diep.png,images/cb_diep.png,0,,,,,,,,,,,,,,,,,,,,,,
,,,,,,2023-09-28_09h09.19.941,vbt_B1_day4,2022.2.4,MacIntel,62.6566416,55918,,,,,,down,0,5.335,,-0.524444444,-0.115555556,1,0,0,0,160,160,133,1,seizoen,images/br_seizoen.png,images/cb_seizoen.png,0,,,,,,,,,,,,,,,,,,,,,,
,,,,,,2023-09-28_09h09.19.941,vbt_B1_day4,2022.2.4,MacIntel,62.6566416,55918,,,,,,down,0,0.959,,-0.524444444,-0.115555556,1,0,0,0,161,161,90,1,geluid,images/br_geluid.png,images/cb_geluid.png,0,,,,,,,,,,,,,,,,,,,,,,
,,,,,,2023-09-28_09h09.19.941,vbt_B1_day4,2022.2.4,MacIntel,62.6566416,55918,,,,,,down,0,10.156,,-0.524444444,-0.115555556,1,0,0,0,162,162,121,1,twijfel,images/br_twijfel.png,images/cb_twijfel.png,0,,,,,,,,,,,,,,,,,,,,,,
,,,,,,2023-09-28_09h09.19.941,vbt_B1_day4,2022.2.4,MacIntel,62.6566416,55918,,,,,,down,0,26.554,,-0.524444444,-0.115555556,1,0,0,0,163,163,145,1,invloed,images/br_invloed.png,images/cb_invloed.png,1,invloed,,,,,,,,,,,,,,,,,,,,,
,,,,,,2023-09-28_09h09.19.941,vbt_B1_day4,2022.2.4,MacIntel,62.6566416,55918,,,,,,down,0,2.808,,-0.524444444,-0.115555556,1,0,0,0,164,164,79,1,nodig,images/br_nodig.png,images/cb_nodig.png,0,,,,,,,,,,,,,,,,,,,,,,
,,,,,,2023-09-28_09h09.19.941,vbt_B1_day4,2022.2.4,MacIntel,62.6566416,55918,,,,,,down,0,1.007,,-0.524444444,-0.115555556,1,0,0,0,165,165,116,1,besmet,images/br_besmet.png,images/cb_besmet.png,0,,,,,,,,,,,,,,,,,,,,,,
,,,,,,2023-09-28_09h09.19.941,vbt_B1_day4,2022.2.4,MacIntel,62.6566416,55918,,,,,,down,0,0.023,,-0.524444444,-0.115555556,1,0,0,0,166,166,95,1,vreten,images/br_vreten.png,images/cb_vreten.png,0,,,,,,,,,,,,,,,,,,,,,,
,,,,,,2023-09-28_09h09.19.941,vbt_B1_day4,2022.2.4,MacIntel,62.6566416,55918,,,,,,down,0,1.958,,-0.524444444,-0.115555556,1,0,0,0,167,167,138,1,akkoord,images/br_akkoord.png,images/cb_akkoord.png,0,,,,,,,,,,,,,,,,,,,,,,
,,,,,,2023-09-28_09h09.19.941,vbt_B1_day4,2022.2.4,MacIntel,62.6566416,55918,,,,,,down,0,6.571,,-0.524444444,-0.115555556,1,0,0,0,168,168,179,1,woestijn,images/br_woestijn.png,images/cb_woestijn.png,0,,,,,,,,,,,,,,,,,,,,,,
,,,,,,2023-09-28_09h09.19.941,vbt_B1_day4,2022.2.4,MacIntel,62.6566416,55918,,,,,,down,0,0.442,,-0.524444444,-0.115555556,1,0,0,0,169,169,127,1,doodmoe,images/br_doodmoe.png,images/cb_doodmoe.png,0,,,,,,,,,,,,,,,,,,,,,,
,,,,,,2023-09-28_09h09.19.941,vbt_B1_day4,2022.2.4,MacIntel,62.6566416,55918,,,,,,down,0,0.04,,-0.524444444,-0.115555556,1,0,0,0,170,170,122,1,waarvan,images/br_waarvan.png,images/cb_waarvan.png,0,,,,,,,,,,,,,,,,,,,,,,
,,,,,,2023-09-28_09h09.19.941,vbt_B1_day4,2022.2.4,MacIntel,62.6566416,55918,,,,,,down,0,4.672,,-0.524444444,-0.115555556,1,0,0,0,171,171,65,1,parel,images/br_parel.png,images/cb_parel.png,1,parel,,,,,,,,,,,,,,,,,,,,,
,,,,,,2023-09-28_09h09.19.941,vbt_B1_day4,2022.2.4,MacIntel,62.6566416,55918,,,,,,down,0,3.82,,-0.524444444,-0.115555556,1,0,0,0,172,172,135,1,gedicht,images/br_gedicht.png,images/cb_gedicht.png,0,,,,,,,,,,,,,,,,,,,,,,
,,,,,,2023-09-28_09h09.19.941,vbt_B1_day4,2022.2.4,MacIntel,62.6566416,55918,,,,,,down,0,0.719,,-0.524444444,-0.115555556,1,0,0,0,173,173,29,1,baas,images/br_baas.png,images/cb_baas.png,0,,,,,,,,,,,,,,,,,,,,,,
,,,,,,2023-09-28_09h09.19.941,vbt_B1_day4,2022.2.4,MacIntel,62.6566416,55918,,,,,,down,0,4.701,,-0.524444444,-0.115555556,1,0,0,0,174,174,163,1,schuilen,images/br_schuilen.png,images/cb_schuilen.png,0,,,,,,,,,,,,,,,,,,,,,,
,,,,,,2023-09-28_09h09.19.941,vbt_B1_day4,2022.2.4,MacIntel,62.6566416,55918,,,,,,down,0,9.026,,-0.517777778,-0.111111111,1,0,0,0,175,175,182,1,bijkomen,images/br_bijkomen.png,images/cb_bijkomen.png,0,,,,,,,,,,,,,,,,,,,,,,
,,,,,,2023-09-28_09h09.19.941,vbt_B1_day4,2022.2.4,MacIntel,62.6566416,55918,,,,,,down,0,9.311,,-0.517777778,-0.111111111,1,0,0,0,176,176,107,1,maling,images/br_maling.png,images/cb_maling.png,1,maling,,,,,,,,,,,,,,,,,,,,,
,,,,,,2023-09-28_09h09.19.941,vbt_B1_day4,2022.2.4,MacIntel,62.6566416,55918,,,,,,down,0,1.151,,-0.517777778,-0.111111111,1,0,0,0,177,177,97,1,loyaal,images/br_loyaal.png,images/cb_loyaal.png,0,,,,,,,,,,,,,,,,,,,,,,
,,,,,,2023-09-28_09h09.19.941,vbt_B1_day4,2022.2.4,MacIntel,62.6566416,55918,,,,,,down,0,12.221,,-0.517777778,-0.111111111,1,0,0,0,178,178,94,1,oceaan,images/br_oceaan.png,images/cb_oceaan.png,0,,,,,,,,,,,,,,,,,,,,,,
,,,,,,2023-09-28_09h09.19.941,vbt_B1_day4,2022.2.4,MacIntel,62.6566416,55918,,,,,,down,0,1.619,,-0.517777778,-0.111111111,1,0,0,0,179,179,40,1,schep,images/br_schep.png,images/cb_schep.png,0,,,,,,,,,,,,,,,,,,,,,,
,,,,,,2023-09-28_09h09.19.941,vbt_B1_day4,2022.2.4,MacIntel,62.6566416,55918,,,,,,down,0,0.311,,-0.517777778,-0.111111111,1,0,0,0,180,180,8,1,knie,images/br_knie.png,images/cb_knie.png,0,,,,,,,,,,,,,,,,,,,,,,
,,,,,,2023-09-28_09h09.19.941,vbt_B1_day4,2022.2.4,MacIntel,62.6566416,55918,,,,,,down,0,0.187,,-0.512222222,-0.093333333,1,0,0,0,181,181,84,1,lokken,images/br_lokken.png,images/cb_lokken.png,0,,,,,,,,,,,,,,,,,,,,,,
,,,,,,2023-09-28_09h09.19.941,vbt_B1_day4,2022.2.4,MacIntel,62.6566416,55918,,,,,,down,0,3.885,,-0.512222222,-0.093333333,1,0,0,0,182,182,128,1,prikken,images/br_prikken.png,images/cb_prikken.png,0,,,,,,,,,,,,,,,,,,,,,,
,,,,,,2023-09-28_09h09.19.941,vbt_B1_day4,2022.2.4,MacIntel,62.6566416,55918,,,,,,down,0,1.244,,-0.512222222,-0.093333333,1,0,0,0,183,183,100,1,geduld,images/br_geduld.png,images/cb_geduld.png,0,,,,,,,,,,,,,,,,,,,,,,
,,,,,,2023-09-28_09h09.19.941,vbt_B1_day4,2022.2.4,MacIntel,62.6566416,55918,,,,,,down,0,2.272,,-0.512222222,-0.093333333,1,0,0,0,184,184,28,1,stal,images/br_stal.png,images/cb_stal.png,0,,,,,,,,,,,,,,,,,,,,,,
,,,,,,2023-09-28_09h09.19.941,vbt_B1_day4,2022.2.4,MacIntel,62.6566416,55918,,,,,,down,0,2.491,,-0.512222222,-0.093333333,1,0,0,0,185,185,177,1,maaltijd,images/br_maaltijd.png,images/cb_maaltijd.png,0,,,,,,,,,,,,,,,,,,,,,,
,,,,,,2023-09-28_09h09.19.941,vbt_B1_day4,2022.2.4,MacIntel,62.6566416,55918,,,,,,down,0,3.31,,-0.512222222,-0.093333333,1,0,0,0,186,186,99,1,koffie,images/br_koffie.png,images/cb_koffie.png,0,,,,,,,,,,,,,,,,,,,,,,
,,,,,,2023-09-28_09h09.19.941,vbt_B1_day4,2022.2.4,MacIntel,62.6566416,55918,,,,,,down,0,6.47,,-0.512222222,-0.093333333,1,0,0,0,187,187,20,1,site,images/br_site.png,images/cb_site.png,0,,,,,,,,,,,,,,,,,,,,,,
,,,,,,2023-09-28_09h09.19.941,vbt_B1_day4,2022.2.4,MacIntel,62.6566416,55918,,,,,,down,0,0.758,,-0.512222222,-0.093333333,1,0,0,0,188,188,124,1,bloeien,images/br_bloeien.png,images/cb_bloeien.png,0,,,,,,,,,,,,,,,,,,,,,,
,,,,,,2023-09-28_09h09.19.941,vbt_B1_day4,2022.2.4,MacIntel,62.6566416,55918,,,,,,down,0,4.157,,-0.512222222,-0.093333333,1,0,0,0,189,189,58,1,tekst,images/br_tekst.png,images/cb_tekst.png,0,,,,,,,,,,,,,,,,,,,,,,
,,,,,,2023-09-28_09h09.19.941,vbt_B1_day4,2022.2.4,MacIntel,62.6566416,55918,,,,,,down,0,0.785,,-0.512222222,-0.093333333,1,0,0,0,190,190,14,1,rijp,images/br_rijp.png,images/cb_rijp.png,0,,,,,,,,,,,,,,,,,,,,,,
,,,,,,2023-09-28_09h09.19.941,vbt_B1_day4,2022.2.4,MacIntel,62.6566416,55918,,,,,,down,0,25.176,,-0.512222222,-0.093333333,1,0,0,0,191,191,137,1,trekker,images/br_trekker.png,images/cb_trekker.png,0,,,,,,,,,,,,,,,,,,,,,,
,,,,,,2023-09-28_09h09.19.941,vbt_B1_day4,2022.2.4,MacIntel,62.6566416,55918,,,,,,down,0,10.624,,-0.512222222,-0.093333333,1,0,0,0,192,192,46,1,jagen,images/br_jagen.png,images/cb_jagen.png,0,,,,,,,,,,,,,,,,,,,,,,
,,,,,,2023-09-28_09h09.19.941,vbt_B1_day4,2022.2.4,MacIntel,62.6566416,55918,,,,,,down,0,0.955,,-0.512222222,-0.091111111,1,0,0,0,193,193,52,1,wagon,images/br_wagon.png,images/cb_wagon.png,0,,,,,,,,,,,,,,,,,,,,,,
,,,,,,2023-09-28_09h09.19.941,vbt_B1_day4,2022.2.4,MacIntel,62.6566416,55918,,,,,,down,0,0.109,,-0.512222222,-0.091111111,1,0,0,0,194,194,126,1,kasteel,images/br_kasteel.png,images/cb_kasteel.png,0,,,,,,,,,,,,,,,,,,,,,,
,,,,,,2023-09-28_09h09.19.941,vbt_B1_day4,2022.2.4,MacIntel,62.6566416,55918,,,,,,down,0,9.043,,-0.512222222,-0.091111111,1,0,0,0,195,195,186,1,voorraad,images/br_voorraad.png,images/cb_voorraad.png,1,voorraad,,,,,,,,,,,,,,,,,,,,,
,,,,,,2023-09-28_09h09.19.941,vbt_B1_day4,2022.2.4,MacIntel,62.6566416,55918,,,,,,down,0,15.458,,-0.512222222,-0.091111111,1,0,0,0,196,196,9,1,hier,images/br_hier.png,images/cb_hier.png,0,,,,,,,,,,,,,,,,,,,,,,
,,,,,,2023-09-28_09h09.19.941,vbt_B1_day4,2022.2.4,MacIntel,62.6566416,55918,,,,,,down,0,0.439,,-0.512222222,-0.091111111,1,0,0,0,197,197,35,1,lust,images/br_lust.png,images/cb_lust.png,0,,,,,,,,,,,,,,,,,,,,,,
,,,,,,2023-09-28_09h09.19.941,vbt_B1_day4,2022.2.4,MacIntel,62.6566416,55918,,,,,,down,0,15.188,,-0.512222222,-0.091111111,1,0,0,0,198,198,152,1,afnemen,images/br_afnemen.png,images/cb_afnemen.png,0,,,,,,,,,,,,,,,,,,,,,,
,,,,,,2023-09-28_09h09.19.941,vbt_B1_day4,2022.2.4,MacIntel,62.6566416,55918,,,,,,down,0,2.125,,-0.512222222,-0.091111111,1,0,0,0,199,199,18,1,blik,images/br_blik.png,images/cb_blik.png,0,,,,,,,,,,,,,,,,,,,,,,
,,,,,,2023-09-28_09h09.19.941,vbt_B1_day4,2022.2.4,MacIntel,62.6566416,55918,,,,,,,,,,,,,,,,,,,,,,,,,-0.512222222,-0.091111111,1,0,0,,,,,,,,,,,,,,,,
,,,,,,2023-09-28_09h09.19.941,vbt_B1_day4,2022.2.4,MacIntel,62.6566416,55918,,,,,,,,,,,,,,,,,,,,,,,,,,,,,,-0.512222222,-0.091111111,1,0,0,,,,,,,,,,,
,,,,,,2023-09-28_09h09.19.941,vbt_B1_day4,2022.2.4,MacIntel,62.6566416,55918,,,,,,,,,,,,,,,,,,,,kaal,images/br_kaal.png,images/cb_kaal.png,,kaal,,,,,,,,,,,-0.512222222,-0.091111111,1,0,0,kaal,0,0,0,1,1
,,,,,,2023-09-28_09h09.19.941,vbt_B1_day4,2022.2.4,MacIntel,62.6566416,55918,,,,,,,,,,,,,,,,,,,,baron,images/br_baron.png,images/cb_baron.png,,baron,,,,,,,,,,,-0.512222222,-0.091111111,1,0,0,baron,0,1,1,5,1
,,,,,,2023-09-28_09h09.19.941,vbt_B1_day4,2022.2.4,MacIntel,62.6566416,55918,,,,,,,,,,,,,,,,,,,,toevol,images/br_toevol.png,images/cb_toevol.png,,toevol,,,,,,,,,,,-0.512222222,-0.091111111,1,0,0,toevol,0,2,2,29,1
,,,,,,2023-09-28_09h09.19.941,vbt_B1_day4,2022.2.4,MacIntel,62.6566416,55918,,,,,,,,,,,,,,,,,,,,gebog,images/br_gebog.png,images/cb_gebog.png,,gebog,,,,,,,,,,,-0.512222222,-0.091111111,1,0,0,gebog,0,3,3,24,1
,,,,,,2023-09-28_09h09.19.941,vbt_B1_day4,2022.2.4,MacIntel,62.6566416,55918,,,,,,,,,,,,,,,,,,,,geliefd,images/br_geliefd.png,images/cb_geliefd.png,,geliefd,,,,,,,,,,,-0.512222222,-0.091111111,1,0,0,geliefd,0,4,4,14,1
,,,,,,2023-09-28_09h09.19.941,vbt_B1_day4,2022.2.4,MacIntel,62.6566416,55918,,,,,,,,,,,,,,,,,,,,snee,images/br_snee.png,images/cb_snee.png,,snee,,,,,,,,,,,-0.512222222,-0.091111111,1,0,0,snee,0,5,5,40,1
,,,,,,2023-09-28_09h09.19.941,vbt_B1_day4,2022.2.4,MacIntel,62.6566416,55918,,,,,,,,,,,,,,,,,,,,warel,images/br_warel.png,images/cb_warel.png,,warel,,,,,,,,,,,-0.512222222,-0.091111111,1,0,0,warel,0,6,6,26,1
,,,,,,2023-09-28_09h09.19.941,vbt_B1_day4,2022.2.4,MacIntel,62.6566416,55918,,,,,,,,,,,,,,,,,,,,grappen,images/br_grappen.png,images/cb_grappen.png,,grappen,,,,,,,,,,,-0.512222222,-0.091111111,1,0,0,grappen,0,7,7,12,1
,,,,,,2023-09-28_09h09.19.941,vbt_B1_day4,2022.2.4,MacIntel,62.6566416,55918,,,,,,,,,,,,,,,,,,,,praat,images/br_praat.png,images/cb_praat.png,,vraat,,,,,,,,,,,-0.512222222,-0.091111111,1,0,0,vraat,0,8,8,7,1
,,,,,,2023-09-28_09h09.19.941,vbt_B1_day4,2022.2.4,MacIntel,62.6566416,55918,,,,,,,,,,,,,,,,,,,,waarop,images/br_waarop.png,images/cb_waarop.png,,waarop,,,,,,,,,,,-0.512222222,-0.091111111,1,0,0,waarop,0,9,9,9,1
,,,,,,2023-09-28_09h09.19.941,vbt_B1_day4,2022.2.4,MacIntel,62.6566416,55918,,,,,,,,,,,,,,,,,,,,mekst,images/br_mekst.png,images/cb_mekst.png,,mekst,,,,,,,,,,,-0.512222222,-0.091111111,1,0,0,mekst,0,10,10,27,1
,,,,,,2023-09-28_09h09.19.941,vbt_B1_day4,2022.2.4,MacIntel,62.6566416,55918,,,,,,,,,,,,,,,,,,,,drummer,images/br_drummer.png,images/cb_drummer.png,,drummer,,,,,,,,,,,-0.503333333,-0.097777778,1,0,0,drummer,0,11,11,53,1
,,,,,,2023-09-28_09h09.19.941,vbt_B1_day4,2022.2.4,MacIntel,62.6566416,55918,,,,,,,,,,,,,,,,,,,,seizoen,images/br_seizoen.png,images/cb_seizoen.png,,seizoen,,,,,,,,,,,-0.503333333,-0.097777778,1,0,0,seizoen,0,12,12,13,1
,,,,,,2023-09-28_09h09.19.941,vbt_B1_day4,2022.2.4,MacIntel,62.6566416,55918,,,,,,,,,,,,,,,,,,,,sulbon,images/br_sulbon.png,images/cb_sulbon.png,,sulbon,,,,,,,,,,,-0.503333333,-0.097777778,1,0,0,sulbon,0,13,13,31,1
,,,,,,2023-09-28_09h09.19.941,vbt_B1_day4,2022.2.4,MacIntel,62.6566416,55918,,,,,,,,,,,,,,,,,,,,gaan,images/br_gaan.png,images/cb_gaan.png,,gaan,,,,,,,,,,,-0.503333333,-0.097777778,1,0,0,gaan,0,14,14,41,1
,,,,,,2023-09-28_09h09.19.941,vbt_B1_day4,2022.2.4,MacIntel,62.6566416,55918,,,,,,,,,,,,,,,,,,,,strok,images/br_strok.png,images/cb_strok.png,,strok,,,,,,,,,,,-0.503333333,-0.097777778,1,0,0,strok,0,15,15,25,1
,,,,,,2023-09-28_09h09.19.941,vbt_B1_day4,2022.2.4,MacIntel,62.6566416,55918,,,,,,,,,,,,,,,,,,,,dozijn,images/br_dozijn.png,images/cb_dozijn.png,,dozijn,,,,,,,,,,,-0.503333333,-0.097777778,1,0,0,dozijn,0,16,16,48,1
,,,,,,2023-09-28_09h09.19.941,vbt_B1_day4,2022.2.4,MacIntel,62.6566416,55918,,,,,,,,,,,,,,,,,,,,apparaat,images/br_apparaat.png,images/cb_apparaat.png,,apparaat,,,,,,,,,,,-0.503333333,-0.097777778,1,0,0,apparaat,0,17,17,17,1
,,,,,,2023-09-28_09h09.19.941,vbt_B1_day4,2022.2.4,MacIntel,62.6566416,55918,,,,,,,,,,,,,,,,,,,,noodzaak,images/br_noodzaak.png,images/cb_noodzaak.png,,noodzaak,,,,,,,,,,,-0.503333333,-0.097777778,1,0,0,noodzaak,0,18,18,56,1
,,,,,,2023-09-28_09h09.19.941,vbt_B1_day4,2022.2.4,MacIntel,62.6566416,55918,,,,,,,,,,,,,,,,,,,,ezel,images/br_ezel.png,images/cb_ezel.png,,ezel,,,,,,,,,,,-0.503333333,-0.097777778,1,0,0,ezel,0,19,19,42,1
,,,,,,2023-09-28_09h09.19.941,vbt_B1_day4,2022.2.4,MacIntel,62.6566416,55918,,,,,,,,,,,,,,,,,,,,gijf,images/br_gijf.png,images/cb_gijf.png,,gijf,,,,,,,,,,,-0.503333333,-0.097777778,1,0,0,gijf,0,20,20,23,1
,,,,,,2023-09-28_09h09.19.941,vbt_B1_day4,2022.2.4,MacIntel,62.6566416,55918,,,,,,,,,,,,,,,,,,,,heengaan,images/br_heengaan.png,images/cb_heengaan.png,,heengaan,,,,,,,,,,,-0.503333333,-0.097777778,1,0,0,heengaan,0,21,21,19,1
,,,,,,2023-09-28_09h09.19.941,vbt_B1_day4,2022.2.4,MacIntel,62.6566416,55918,,,,,,,,,,,,,,,,,,,,gebit,images/br_gebit.png,images/cb_gebit.png,,gebit,,,,,,,,,,,-0.503333333,-0.097777778,1,0,0,gebit,0,22,22,6,1
,,,,,,2023-09-28_09h09.19.941,vbt_B1_day4,2022.2.4,MacIntel,62.6566416,55918,,,,,,,,,,,,,,,,,,,,drooien,images/br_drooien.png,images/cb_drooien.png,,drooien,,,,,,,,,,,-0.503333333,-0.097777778,1,0,0,drooien,0,23,23,32,1
,,,,,,2023-09-28_09h09.19.941,vbt_B1_day4,2022.2.4,MacIntel,62.6566416,55918,,,,,,,,,,,,,,,,,,,,stemming,images/br_stemming.png,images/cb_stemming.png,,stemming,,,,,,,,,,,-0.503333333,-0.097777778,1,0,0,stemming,0,24,24,18,1
,,,,,,2023-09-28_09h09.19.941,vbt_B1_day4,2022.2.4,MacIntel,62.6566416,55918,,,,,,,,,,,,,,,,,,,,lappen,images/br_lappen.png,images/cb_lappen.png,,lappen,,,,,,,,,,,-0.503333333,-0.097777778,1,0,0,lappen,0,25,25,49,1
,,,,,,2023-09-28_09h09.19.941,vbt_B1_day4,2022.2.4,MacIntel,62.6566416,55918,,,,,,,,,,,,,,,,,,,,oceaan,images/br_oceaan.png,images/cb_oceaan.png,,oceaan,,,,,,,,,,,-0.503333333,-0.097777778,1,0,0,oceaan,0,26,26,10,1
,,,,,,2023-09-28_09h09.19.941,vbt_B1_day4,2022.2.4,MacIntel,62.6566416,55918,,,,,,,,,,,,,,,,,,,,opkicht,images/br_opkicht.png,images/cb_opkicht.png,,opceht,,,,,,,,,,,-0.503333333,-0.097777778,1,0,0,opceht,0,27,27,34,1
,,,,,,2023-09-28_09h09.19.941,vbt_B1_day4,2022.2.4,MacIntel,62.6566416,55918,,,,,,,,,,,,,,,,,,,,wozing,images/br_wozing.png,images/cb_wozing.png,,wozing,,,,,,,,,,,-0.503333333,-0.097777778,1,0,0,wozing,0,28,28,28,1
,,,,,,2023-09-28_09h09.19.941,vbt_B1_day4,2022.2.4,MacIntel,62.6566416,55918,,,,,,,,,,,,,,,,,,,,haza,images/br_haza.png,images/cb_haza.png,,haza,,,,,,,,,,,-0.503333333,-0.097777778,1,0,0,haza,0,29,29,21,1
,,,,,,2023-09-28_09h09.19.941,vbt_B1_day4,2022.2.4,MacIntel,62.6566416,55918,,,,,,,,,,,,,,,,,,,,zwek,images/br_zwek.png,images/cb_zwek.png,,zwek,,,,,,,,,,,-0.503333333,-0.097777778,1,0,0,zwek,0,30,30,20,1
,,,,,,2023-09-28_09h09.19.941,vbt_B1_day4,2022.2.4,MacIntel,62.6566416,55918,,,,,,,,,,,,,,,,,,,,eerst,images/br_eerst.png,images/cb_eerst.png,,eerst,,,,,,,,,,,-0.503333333,-0.097777778,1,0,0,eerst,0,31,31,47,1
,,,,,,2023-09-28_09h09.19.941,vbt_B1_day4,2022.2.4,MacIntel,62.6566416,55918,,,,,,,,,,,,,,,,,,,,steen,images/br_steen.png,images/cb_steen.png,,steen,,,,,,,,,,,-0.503333333,-0.097777778,1,0,0,steen,0,32,32,44,1
,,,,,,2023-09-28_09h09.19.941,vbt_B1_day4,2022.2.4,MacIntel,62.6566416,55918,,,,,,,,,,,,,,,,,,,,zaalrijk,images/br_zaalrijk.png,images/cb_zaalrijk.png,,zaalrijk,,,,,,,,,,,-0.503333333,-0.097777778,1,0,0,zaalrijk,0,33,33,37,1
,,,,,,2023-09-28_09h09.19.941,vbt_B1_day4,2022.2.4,MacIntel,62.6566416,55918,,,,,,,,,,,,,,,,,,,,flippen,images/br_flippen.png,images/cb_flippen.png,,flippen,,,,,,,,,,,-0.503333333,-0.097777778,1,0,0,flippen,0,34,34,54,1
,,,,,,2023-09-28_09h09.19.941,vbt_B1_day4,2022.2.4,MacIntel,62.6566416,55918,,,,,,,,,,,,,,,,,,,,opruimen,images/br_opruimen.png,images/cb_opruimen.png,,opruimen,,,,,,,,,,,-0.503333333,-0.097777778,1,0,0,opruimen,0,35,35,59,1
,,,,,,2023-09-28_09h09.19.941,vbt_B1_day4,2022.2.4,MacIntel,62.6566416,55918,,,,,,,,,,,,,,,,,,,,getucht,images/br_getucht.png,images/cb_getucht.png,,getucht,,,,,,,,,,,-0.503333333,-0.097777778,1,0,0,getucht,0,36,36,35,1
,,,,,,2023-09-28_09h09.19.941,vbt_B1_day4,2022.2.4,MacIntel,62.6566416,55918,,,,,,,,,,,,,,,,,,,,bruin,images/br_bruin.png,images/cb_bruin.png,,bruin,,,,,,,,,,,-0.503333333,-0.097777778,1,0,0,bruin,0,37,37,45,1
,,,,,,2023-09-28_09h09.19.941,vbt_B1_day4,2022.2.4,MacIntel,62.6566416,55918,,,,,,,,,,,,,,,,,,,,vreten,images/br_vreten.png,images/cb_vreten.png,,vreten,,,,,,,,,,,-0.503333333,-0.097777778,1,0,0,vreten,0,38,38,11,1
,,,,,,2023-09-28_09h09.19.941,vbt_B1_day4,2022.2.4,MacIntel,62.6566416,55918,,,,,,,,,,,,,,,,,,,,pijnlijk,images/br_pijnlijk.png,images/cb_pijnlijk.png,,vijling,,,,,,,,,,,-0.503333333,-0.097777778,1,0,0,vijling,0,39,39,58,1
,,,,,,2023-09-28_09h09.19.941,vbt_B1_day4,2022.2.4,MacIntel,62.6566416,55918,,,,,,,,,,,,,,,,,,,,seizoon,images/br_seizoon.png,images/cb_seizoon.png,,seizoon,,,,,,,,,,,-0.503333333,-0.097777778,1,0,0,seizoon,0,40,40,33,1
,,,,,,2023-09-28_09h09.19.941,vbt_B1_day4,2022.2.4,MacIntel,62.6566416,55918,,,,,,,,,,,,,,,,,,,,gedicht,images/br_gedicht.png,images/cb_gedicht.png,,geji..,,,,,,,,,,,-0.503333333,-0.097777778,1,0,0,geji..,0,41,41,15,1
,,,,,,2023-09-28_09h09.19.941,vbt_B1_day4,2022.2.4,MacIntel,62.6566416,55918,,,,,,,,,,,,,,,,,,,,dalen,images/br_dalen.png,images/cb_dalen.png,,dalen,,,,,,,,,,,-0.503333333,-0.097777778,1,0,0,dalen,0,42,42,46,1
,,,,,,2023-09-28_09h09.19.941,vbt_B1_day4,2022.2.4,MacIntel,62.6566416,55918,,,,,,,,,,,,,,,,,,,,kust,images/br_kust.png,images/cb_kust.png,,kust,,,,,,,,,,,-0.503333333,-0.097777778,1,0,0,kust,0,43,43,0,1
,,,,,,2023-09-28_09h09.19.941,vbt_B1_day4,2022.2.4,MacIntel,62.6566416,55918,,,,,,,,,,,,,,,,,,,,pittig,images/br_pittig.png,images/cb_pittig.png,,vitting,,,,,,,,,,,-0.503333333,-0.097777778,1,0,0,vitting,0,44,44,51,1
,,,,,,2023-09-28_09h09.19.941,vbt_B1_day4,2022.2.4,MacIntel,62.6566416,55918,,,,,,,,,,,,,,,,,,,,schenden,images/br_schenden.png,images/cb_schenden.png,,schenden,,,,,,,,,,,-0.503333333,-0.097777778,1,0,0,schenden,0,45,45,57,1
,,,,,,2023-09-28_09h09.19.941,vbt_B1_day4,2022.2.4,MacIntel,62.6566416,55918,,,,,,,,,,,,,,,,,,,,tucket,images/br_tucket.png,images/cb_tucket.png,,ticket,,,,,,,,,,,-0.503333333,-0.097777778,1,0,0,ticket,0,46,46,30,1
,,,,,,2023-09-28_09h09.19.941,vbt_B1_day4,2022.2.4,MacIntel,62.6566416,55918,,,,,,,,,,,,,,,,,,,,fran,images/br_fran.png,images/cb_fran.png,,fran,,,,,,,,,,,-0.503333333,-0.097777778,1,0,0,fran,0,47,47,22,1
,,,,,,2023-09-28_09h09.19.941,vbt_B1_day4,2022.2.4,MacIntel,62.6566416,55918,,,,,,,,,,,,,,,,,,,,wagon,images/br_wagon.png,images/cb_wagon.png,,wagon,,,,,,,,,,,-0.503333333,-0.097777778,1,0,0,wagon,0,48,48,4,1
,,,,,,2023-09-28_09h09.19.941,vbt_B1_day4,2022.2.4,MacIntel,62.6566416,55918,,,,,,,,,,,,,,,,,,,,weigeren,images/br_weigeren.png,images/cb_weigeren.png,,weigeren,,,,,,,,,,,-0.503333333,-0.097777778,1,0,0,weigeren,0,49,49,16,1
,,,,,,2023-09-28_09h09.19.941,vbt_B1_day4,2022.2.4,MacIntel,62.6566416,55918,,,,,,,,,,,,,,,,,,,,midden,images/br_midden.png,images/cb_midden.png,,midden,,,,,,,,,,,-0.503333333,-0.097777778,1,0,0,midden,0,50,50,50,1
,,,,,,2023-09-28_09h09.19.941,vbt_B1_day4,2022.2.4,MacIntel,62.6566416,55918,,,,,,,,,,,,,,,,,,,,broodje,images/br_broodje.png,images/cb_broodje.png,,broodje,,,,,,,,,,,-0.503333333,-0.097777778,1,0,0,broodje,0,51,51,55,1
,,,,,,2023-09-28_09h09.19.941,vbt_B1_day4,2022.2.4,MacIntel,62.6566416,55918,,,,,,,,,,,,,,,,,,,,paalbaak,images/br_paalbaak.png,images/cb_paalbaak.png,,paalbaar,,,,,,,,,,,-0.503333333,-0.097777778,1,0,0,paalbaar,0,52,52,39,1
,,,,,,2023-09-28_09h09.19.941,vbt_B1_day4,2022.2.4,MacIntel,62.6566416,55918,,,,,,,,,,,,,,,,,,,,gaaf,images/br_gaaf.png,images/cb_gaaf.png,,gaaf,,,,,,,,,,,-0.503333333,-0.097777778,1,0,0,gaaf,0,53,53,43,1
,,,,,,2023-09-28_09h09.19.941,vbt_B1_day4,2022.2.4,MacIntel,62.6566416,55918,,,,,,,,,,,,,,,,,,,,aanzwaag,images/br_aanzwaag.png,images/cb_aanzwaag.png,,aanzwaag,,,,,,,,,,,-0.503333333,-0.097777778,1,0,0,aanzwaag,0,54,54,38,1
,,,,,,2023-09-28_09h09.19.941,vbt_B1_day4,2022.2.4,MacIntel,62.6566416,55918,,,,,,,,,,,,,,,,,,,,rijp,images/br_rijp.png,images/cb_rijp.png,,rijp,,,,,,,,,,,-0.503333333,-0.097777778,1,0,0,rijp,0,55,55,2,1
,,,,,,2023-09-28_09h09.19.941,vbt_B1_day4,2022.2.4,MacIntel,62.6566416,55918,,,,,,,,,,,,,,,,,,,,geheim,images/br_geheim.png,images/cb_geheim.png,,geheim,,,,,,,,,,,-0.503333333,-0.097777778,1,0,0,geheim,0,56,56,8,1
,,,,,,2023-09-28_09h09.19.941,vbt_B1_day4,2022.2.4,MacIntel,62.6566416,55918,,,,,,,,,,,,,,,,,,,,soda,images/br_soda.png,images/cb_soda.png,,soda,,,,,,,,,,,-0.503333333,-0.097777778,1,0,0,soda,0,57,57,3,1
,,,,,,2023-09-28_09h09.19.941,vbt_B1_day4,2022.2.4,MacIntel,62.6566416,55918,,,,,,,,,,,,,,,,,,,,bisschap,images/br_bisschap.png,images/cb_bisschap.png,,bisschop,,,,,,,,,,,-0.503333333,-0.097777778,1,0,0,bisschop,0,58,58,36,1
,,,,,,2023-09-28_09h09.19.941,vbt_B1_day4,2022.2.4,MacIntel,62.6566416,55918,,,,,,,,,,,,,,,,,,,,schotel,images/br_schotel.png,images/cb_schotel.png,,schotel,,,,,,,,,,,-0.503333333,-0.097777778,1,0,0,schotel,0,59,59,52,1
,,,,,,2023-09-28_09h09.19.941,vbt_B1_day4,2022.2.4,MacIntel,62.6566416,55918,,,,,,,,,,,,,,,,,,,,,,,,,,,,,,,,,,,,,,,,,,,,,
