welcome_mouse.x,welcome_mouse.y,welcome_mouse.leftButton,welcome_mouse.midButton,welcome_mouse.rightButton,"ID",date,expName,psychopyVersion,OS,frameRate,trainInstr_mouse.x,trainInstr_mouse.y,trainInstr_mouse.leftButton,trainInstr_mouse.midButton,trainInstr_mouse.rightButton,translation_key.keys,translation_key.corr,translation_key.rt,word_rsp.text,trWrd_mouse.x,trWrd_mouse.y,trWrd_mouse.leftButton,trWrd_mouse.midButton,trWrd_mouse.rightButton,train_loop.thisRepN,train_loop.thisTrialN,train_loop.thisN,train_loop.thisIndex,train_loop.ran,nlWrd,brWrd,cbWrd,test,testResp,mouse.x,mouse.y,mouse.leftButton,mouse.midButton,mouse.rightButton,testInstr_mouse.x,testInstr_mouse.y,testInstr_mouse.leftButton,testInstr_mouse.midButton,testInstr_mouse.rightButton,test_mouse.x,test_mouse.y,test_mouse.leftButton,test_mouse.midButton,test_mouse.rightButton,test_response.text,test_loop.thisRepN,test_loop.thisTrialN,test_loop.thisN,test_loop.thisIndex,test_loop.ran
0.501219512,-0.157317073,1,0,0,00065,2023-10-19_12h02.43.498,vbt_B1_day4,2022.2.4,MacIntel,50,,,,,,,,,,,,,,,,,,,,,,,,,,,,,,,,,,,,,,,,,,,,,
,,,,,00065,2023-10-19_12h02.43.498,vbt_B1_day4,2022.2.4,MacIntel,50,0.537804878,-0.093902439,1,0,0,,,,,,,,,,,,,,,,,,,,,,,,,,,,,,,,,,,,,,,,
,,,,,00065,2023-10-19_12h02.43.498,vbt_B1_day4,2022.2.4,MacIntel,50,,,,,,down,0,3.673,,0.487804878,-0.082926829,1,0,0,0,0,0,151,1,aanzoek,images/br_aanzoek.png,images/cb_aanzoek.png,0,,,,,,,,,,,,,,,,,,,,,,
,,,,,00065,2023-10-19_12h02.43.498,vbt_B1_day4,2022.2.4,MacIntel,50,,,,,,down,0,0.578,,0.465853659,-0.073170732,1,0,0,0,1,1,45,1,piste,images/br_piste.png,images/cb_piste.png,0,,,,,,,,,,,,,,,,,,,,,,
,,,,,00065,2023-10-19_12h02.43.498,vbt_B1_day4,2022.2.4,MacIntel,50,,,,,,down,0,5.845,,0.470731707,-0.067073171,1,0,0,0,2,2,182,1,bijkomen,images/br_bijkomen.png,images/cb_bijkomen.png,0,,,,,,,,,,,,,,,,,,,,,,
,,,,,00065,2023-10-19_12h02.43.498,vbt_B1_day4,2022.2.4,MacIntel,50,,,,,,down,0,0.827,,0.451219512,-0.037804878,1,0,0,0,3,3,112,1,lukken,images/br_lukken.png,images/cb_lukken.png,0,,,,,,,,,,,,,,,,,,,,,,
,,,,,00065,2023-10-19_12h02.43.498,vbt_B1_day4,2022.2.4,MacIntel,50,,,,,,down,0,1.494,,0.470731707,-0.107317073,1,0,0,0,4,4,33,1,vlek,images/br_vlek.png,images/cb_vlek.png,0,,,,,,,,,,,,,,,,,,,,,,
,,,,,00065,2023-10-19_12h02.43.498,vbt_B1_day4,2022.2.4,MacIntel,50,,,,,,down,0,0.928,,0.424390244,-0.119512195,1,0,0,0,5,5,138,1,akkoord,images/br_akkoord.png,images/cb_akkoord.png,0,,,,,,,,,,,,,,,,,,,,,,
,,,,,00065,2023-10-19_12h02.43.498,vbt_B1_day4,2022.2.4,MacIntel,50,,,,,,down,0,1.045,,0.436585366,-0.136585366,1,0,0,0,6,6,5,1,blad,images/br_blad.png,images/cb_blad.png,0,,,,,,,,,,,,,,,,,,,,,,
,,,,,00065,2023-10-19_12h02.43.498,vbt_B1_day4,2022.2.4,MacIntel,50,,,,,,down,0,0.862,,0.379268293,-0.106097561,1,0,0,0,7,7,17,1,taal,images/br_taal.png,images/cb_taal.png,0,,,,,,,,,,,,,,,,,,,,,,
,,,,,00065,2023-10-19_12h02.43.498,vbt_B1_day4,2022.2.4,MacIntel,50,,,,,,down,0,5.211,,0.481707317,-0.07804878,1,0,0,0,8,8,191,1,opheffen,images/br_opheffen.png,images/cb_opheffen.png,0,,,,,,,,,,,,,,,,,,,,,,
,,,,,00065,2023-10-19_12h02.43.498,vbt_B1_day4,2022.2.4,MacIntel,50,,,,,,down,0,0.778,,0.442682927,-0.125609756,1,0,0,0,9,9,41,1,maken,images/br_maken.png,images/cb_maken.png,0,,,,,,,,,,,,,,,,,,,,,,
,,,,,00065,2023-10-19_12h02.43.498,vbt_B1_day4,2022.2.4,MacIntel,50,,,,,,down,0,2.995,,0.495121951,-0.148780488,1,0,0,0,10,10,168,1,bisschop,images/br_bisschop.png,images/cb_bisschop.png,0,,,,,,,,,,,,,,,,,,,,,,
,,,,,00065,2023-10-19_12h02.43.498,vbt_B1_day4,2022.2.4,MacIntel,50,,,,,,down,0,3.995,,-0.457223001,0.122720898,1,0,0,0,11,11,144,1,eetlust,images/br_eetlust.png,images/cb_eetlust.png,1,Eetlust,,,,,,,,,,,,,,,,,,,,,
,,,,,00065,2023-10-19_12h02.43.498,vbt_B1_day4,2022.2.4,MacIntel,50,,,,,,down,0,4.655,,0.50631136,-0.013323983,1,0,0,0,12,12,136,1,waarbij,images/br_waarbij.png,images/cb_waarbij.png,0,,,,,,,,,,,,,,,,,,,,,,
,,,,,00065,2023-10-19_12h02.43.498,vbt_B1_day4,2022.2.4,MacIntel,50,,,,,,down,0,1.879,,-0.467040673,0.041374474,1,0,0,0,13,13,65,1,parel,images/br_parel.png,images/cb_parel.png,1,Parel,,,,,,,,,,,,,,,,,,,,,
,,,,,00065,2023-10-19_12h02.43.498,vbt_B1_day4,2022.2.4,MacIntel,50,,,,,,down,0,3.288,,-0.58345021,0.014726508,1,0,0,0,14,14,52,1,wagon,images/br_wagon.png,images/cb_wagon.png,0,,,,,,,,,,,,,,,,,,,,,,
,,,,,00065,2023-10-19_12h02.43.498,vbt_B1_day4,2022.2.4,MacIntel,50,,,,,,down,0,2.561,,-0.530154278,0.032959327,1,0,0,0,15,15,77,1,woede,images/br_woede.png,images/cb_woede.png,0,,,,,,,,,,,,,,,,,,,,,,
,,,,,00065,2023-10-19_12h02.43.498,vbt_B1_day4,2022.2.4,MacIntel,50,,,,,,down,0,4.962,,-0.516129032,-0.042776999,1,0,0,0,16,16,70,1,ijdel,images/br_ijdel.png,images/cb_ijdel.png,0,,,,,,,,,,,,,,,,,,,,,,
,,,,,00065,2023-10-19_12h02.43.498,vbt_B1_day4,2022.2.4,MacIntel,50,,,,,,down,0,0.78,,-0.575035063,0.011921459,1,0,0,0,17,17,14,1,rijp,images/br_rijp.png,images/cb_rijp.png,0,,,,,,,,,,,,,,,,,,,,,,
,,,,,00065,2023-10-19_12h02.43.498,vbt_B1_day4,2022.2.4,MacIntel,50,,,,,,down,0,1.995,,-0.591865358,0.045582048,1,0,0,0,18,18,86,1,woning,images/br_woning.png,images/cb_woning.png,0,,,,,,,,,,,,,,,,,,,,,,
,,,,,00065,2023-10-19_12h02.43.498,vbt_B1_day4,2022.2.4,MacIntel,50,,,,,,down,0,2.796,,-0.600280505,0.010518934,1,0,0,0,19,19,177,1,maaltijd,images/br_maaltijd.png,images/cb_maaltijd.png,0,,,,,,,,,,,,,,,,,,,,,,
,,,,,00065,2023-10-19_12h02.43.498,vbt_B1_day4,2022.2.4,MacIntel,50,,,,,,down,0,1.578,,0.46002805,-0.063814867,1,0,0,0,20,20,34,1,vorm,images/br_vorm.png,images/cb_vorm.png,0,,,,,,,,,,,,,,,,,,,,,,
,,,,,00065,2023-10-19_12h02.43.498,vbt_B1_day4,2022.2.4,MacIntel,50,,,,,,down,0,2.695,,-0.388499299,0.097475456,1,0,0,0,21,21,54,1,gebit,images/br_gebit.png,images/cb_gebit.png,0,,,,,,,,,,,,,,,,,,,,,,
,,,,,00065,2023-10-19_12h02.43.498,vbt_B1_day4,2022.2.4,MacIntel,50,,,,,,down,0,1.361,,-0.47826087,0.110098177,1,0,0,0,22,22,120,1,klimmen,images/br_klimmen.png,images/cb_klimmen.png,0,,,,,,,,,,,,,,,,,,,,,,
,,,,,00065,2023-10-19_12h02.43.498,vbt_B1_day4,2022.2.4,MacIntel,50,,,,,,down,0,3.562,,-0.50911641,0.146563815,1,0,0,0,23,23,124,1,bloeien,images/br_bloeien.png,images/cb_bloeien.png,0,,,,,,,,,,,,,,,,,,,,,,
,,,,,00065,2023-10-19_12h02.43.498,vbt_B1_day4,2022.2.4,MacIntel,50,,,,,,down,0,1.612,,-0.50631136,0.139551192,1,0,0,0,24,24,137,1,trekker,images/br_trekker.png,images/cb_trekker.png,0,,,,,,,,,,,,,,,,,,,,,,
,,,,,00065,2023-10-19_12h02.43.498,vbt_B1_day4,2022.2.4,MacIntel,50,,,,,,down,0,2.546,,-0.502103787,0.131136045,1,0,0,0,25,25,71,1,bever,images/br_bever.png,images/cb_bever.png,0,,,,,,,,,,,,,,,,,,,,,,
,,,,,00065,2023-10-19_12h02.43.498,vbt_B1_day4,2022.2.4,MacIntel,50,,,,,,down,0,1.695,,-0.441795231,-0.020336606,1,0,0,0,26,26,19,1,geit,images/br_geit.png,images/cb_geit.png,0,,,,,,,,,,,,,,,,,,,,,,
,,,,,00065,2023-10-19_12h02.43.498,vbt_B1_day4,2022.2.4,MacIntel,50,,,,,,down,0,2.729,,-0.544179523,0.093267882,1,0,0,0,27,27,157,1,uitlaat,images/br_uitlaat.png,images/cb_uitlaat.png,0,,,,,,,,,,,,,,,,,,,,,,
,,,,,00065,2023-10-19_12h02.43.498,vbt_B1_day4,2022.2.4,MacIntel,50,,,,,,down,0,2.579,,-0.532959327,0.055399719,1,0,0,0,28,28,190,1,goedkoop,images/br_goedkoop.png,images/cb_goedkoop.png,0,,,,,,,,,,,,,,,,,,,,,,
,,,,,00065,2023-10-19_12h02.43.498,vbt_B1_day4,2022.2.4,MacIntel,50,,,,,,down,0,0.53,,-0.50631136,0.00911641,1,0,0,0,29,29,61,1,groen,images/br_groen.png,images/cb_groen.png,0,,,,,,,,,,,,,,,,,,,,,,
,,,,,00065,2023-10-19_12h02.43.498,vbt_B1_day4,2022.2.4,MacIntel,50,,,,,,down,0,0.561,,-0.531556802,0.056802244,1,0,0,0,30,30,109,1,totaal,images/br_totaal.png,images/cb_totaal.png,0,,,,,,,,,,,,,,,,,,,,,,
,,,,,00065,2023-10-19_12h02.43.498,vbt_B1_day4,2022.2.4,MacIntel,50,,,,,,down,0,0.162,,-0.586255259,0.055399719,1,0,0,0,31,31,11,1,mode,images/br_mode.png,images/cb_mode.png,0,,,,,,,,,,,,,,,,,,,,,,
,,,,,00065,2023-10-19_12h02.43.498,vbt_B1_day4,2022.2.4,MacIntel,50,,,,,,down,0,1.395,,-0.590462833,0.038569425,1,0,0,0,32,32,173,1,apparaat,images/br_apparaat.png,images/cb_apparaat.png,0,,,,,,,,,,,,,,,,,,,,,,
,,,,,00065,2023-10-19_12h02.43.498,vbt_B1_day4,2022.2.4,MacIntel,50,,,,,,down,0,1.551,,-0.52454418,-0.013323983,1,0,0,0,33,33,139,1,stiekem,images/br_stiekem.png,images/cb_stiekem.png,0,,,,,,,,,,,,,,,,,,,,,,
,,,,,00065,2023-10-19_12h02.43.498,vbt_B1_day4,2022.2.4,MacIntel,50,,,,,,down,0,0.728,,-0.587657784,-0.023141655,1,0,0,0,34,34,57,1,steek,images/br_steek.png,images/cb_steek.png,0,,,,,,,,,,,,,,,,,,,,,,
,,,,,00065,2023-10-19_12h02.43.498,vbt_B1_day4,2022.2.4,MacIntel,50,,,,,,down,0,3.213,,-0.601683029,0.038569425,1,0,0,0,35,35,129,1,verhaal,images/br_verhaal.png,images/cb_verhaal.png,0,,,,,,,,,,,,,,,,,,,,,,
,,,,,00065,2023-10-19_12h02.43.498,vbt_B1_day4,2022.2.4,MacIntel,50,,,,,,down,0,0.345,,-0.572230014,0.017531557,1,0,0,0,36,36,35,1,lust,images/br_lust.png,images/cb_lust.png,0,,,,,,,,,,,,,,,,,,,,,,
,,,,,00065,2023-10-19_12h02.43.498,vbt_B1_day4,2022.2.4,MacIntel,50,,,,,,down,0,4.145,,-0.534361851,0.02173913,1,0,0,0,37,37,60,1,jasje,images/br_jasje.png,images/cb_jasje.png,0,,,,,,,,,,,,,,,,,,,,,,
,,,,,00065,2023-10-19_12h02.43.498,vbt_B1_day4,2022.2.4,MacIntel,50,,,,,,down,0,2.378,,-0.437587658,0.188639551,1,0,0,0,38,38,188,1,strekken,images/br_strekken.png,images/cb_strekken.png,0,,,,,,,,,,,,,,,,,,,,,,
,,,,,00065,2023-10-19_12h02.43.498,vbt_B1_day4,2022.2.4,MacIntel,50,,,,,,down,0,0.711,,-0.530154278,0.119915849,1,0,0,0,39,39,93,1,waarop,images/br_waarop.png,images/cb_waarop.png,0,,,,,,,,,,,,,,,,,,,,,,
,,,,,00065,2023-10-19_12h02.43.498,vbt_B1_day4,2022.2.4,MacIntel,50,,,,,,down,0,2.545,,-0.549789621,0.065217391,1,0,0,0,40,40,194,1,driemaal,images/br_driemaal.png,images/cb_driemaal.png,0,,,,,,,,,,,,,,,,,,,,,,
,,,,,00065,2023-10-19_12h02.43.498,vbt_B1_day4,2022.2.4,MacIntel,50,,,,,,down,0,4.744,,-0.572230014,0.09887798,1,0,0,0,41,41,162,1,uitdelen,images/br_uitdelen.png,images/cb_uitdelen.png,0,,,,,,,,,,,,,,,,,,,,,,
,,,,,00065,2023-10-19_12h02.43.498,vbt_B1_day4,2022.2.4,MacIntel,50,,,,,,down,0,1.661,,-0.551192146,0.041374474,1,0,0,0,42,42,3,1,mand,images/br_mand.png,images/cb_mand.png,0,,,,,,,,,,,,,,,,,,,,,,
,,,,,00065,2023-10-19_12h02.43.498,vbt_B1_day4,2022.2.4,MacIntel,50,,,,,,down,0,0.146,,-0.626928471,0.062412342,1,0,0,0,43,43,21,1,mist,images/br_mist.png,images/cb_mist.png,0,,,,,,,,,,,,,,,,,,,,,,
,,,,,00065,2023-10-19_12h02.43.498,vbt_B1_day4,2022.2.4,MacIntel,50,,,,,,down,0,0.478,,-0.558204769,0.082047686,1,0,0,0,44,44,1,1,zaal,images/br_zaal.png,images/cb_zaal.png,0,,,,,,,,,,,,,,,,,,,,,,
,,,,,00065,2023-10-19_12h02.43.498,vbt_B1_day4,2022.2.4,MacIntel,50,,,,,,down,0,3.296,,-0.607293128,0.09887798,1,0,0,0,45,45,180,1,openbaar,images/br_openbaar.png,images/cb_openbaar.png,0,,,,,,,,,,,,,,,,,,,,,,
,,,,,00065,2023-10-19_12h02.43.498,vbt_B1_day4,2022.2.4,MacIntel,50,,,,,,down,0,0.912,,-0.572230014,0.101683029,1,0,0,0,46,46,108,1,excuus,images/br_excuus.png,images/cb_excuus.png,0,,,,,,,,,,,,,,,,,,,,,,
,,,,,00065,2023-10-19_12h02.43.498,vbt_B1_day4,2022.2.4,MacIntel,50,,,,,,down,0,0.761,,-0.608695652,0.066619916,1,0,0,0,47,47,36,1,vuur,images/br_vuur.png,images/cb_vuur.png,0,,,,,,,,,,,,,,,,,,,,,,
,,,,,00065,2023-10-19_12h02.43.498,vbt_B1_day4,2022.2.4,MacIntel,50,,,,,,down,0,1.046,,-0.59887798,0.112903226,1,0,0,0,48,48,125,1,aanzien,images/br_aanzien.png,images/cb_aanzien.png,0,,,,,,,,,,,,,,,,,,,,,,
,,,,,00065,2023-10-19_12h02.43.498,vbt_B1_day4,2022.2.4,MacIntel,50,,,,,,down,0,0.628,,-0.551192146,0.066619916,1,0,0,0,49,49,75,1,snoep,images/br_snoep.png,images/cb_snoep.png,0,,,,,,,,,,,,,,,,,,,,,,
,,,,,00065,2023-10-19_12h02.43.498,vbt_B1_day4,2022.2.4,MacIntel,50,,,,,,down,0,3.146,,-0.496493689,0.002103787,1,0,0,0,50,50,104,1,zweven,images/br_zweven.png,images/cb_zweven.png,1,Zweven,,,,,,,,,,,,,,,,,,,,,
,,,,,00065,2023-10-19_12h02.43.498,vbt_B1_day4,2022.2.4,MacIntel,50,,,,,,down,0,3.833,,-0.4628331,-0.05259467,1,0,0,0,51,51,27,1,dans,images/br_dans.png,images/cb_dans.png,1,Dans,,,,,,,,,,,,,,,,,,,,,
,,,,,00065,2023-10-19_12h02.43.498,vbt_B1_day4,2022.2.4,MacIntel,50,,,,,,down,0,3.738,,-0.594670407,-0.066619916,1,0,0,0,52,52,123,1,hiervan,images/br_hiervan.png,images/cb_hiervan.png,0,,,,,,,,,,,,,,,,,,,,,,
,,,,,00065,2023-10-19_12h02.43.498,vbt_B1_day4,2022.2.4,MacIntel,50,,,,,,down,0,7.511,,-0.504908836,0.002103787,1,0,0,0,53,53,154,1,aflopen,images/br_aflopen.png,images/cb_aflopen.png,0,,,,,,,,,,,,,,,,,,,,,,
,,,,,00065,2023-10-19_12h02.43.498,vbt_B1_day4,2022.2.4,MacIntel,50,,,,,,down,0,1.028,,-0.50631136,0.048387097,1,0,0,0,54,54,6,1,diep,images/br_diep.png,images/cb_diep.png,0,,,,,,,,,,,,,,,,,,,,,,
,,,,,00065,2023-10-19_12h02.43.498,vbt_B1_day4,2022.2.4,MacIntel,50,,,,,,down,0,2.529,,-0.563814867,0.020336606,1,0,0,0,55,55,189,1,aanraden,images/br_aanraden.png,images/cb_aanraden.png,0,,,,,,,,,,,,,,,,,,,,,,
,,,,,00065,2023-10-19_12h02.43.498,vbt_B1_day4,2022.2.4,MacIntel,50,,,,,,down,0,2.879,,-0.577840112,0.02173913,1,0,0,0,56,56,94,1,oceaan,images/br_oceaan.png,images/cb_oceaan.png,0,,,,,,,,,,,,,,,,,,,,,,
,,,,,00065,2023-10-19_12h02.43.498,vbt_B1_day4,2022.2.4,MacIntel,50,,,,,,down,0,2.978,,-0.56802244,0.05259467,1,0,0,0,57,57,91,1,gezond,images/br_gezond.png,images/cb_gezond.png,0,,,,,,,,,,,,,,,,,,,,,,
,,,,,00065,2023-10-19_12h02.43.498,vbt_B1_day4,2022.2.4,MacIntel,50,,,,,,down,0,1.399,,-0.527349229,0.136746143,1,0,0,0,58,58,66,1,lever,images/br_lever.png,images/cb_lever.png,1,Lever,,,,,,,,,,,,,,,,,,,,,
,,,,,00065,2023-10-19_12h02.43.498,vbt_B1_day4,2022.2.4,MacIntel,50,,,,,,down,0,1.94,,-0.448807854,0.107293128,1,0,0,0,59,59,22,1,stof,images/br_stof.png,images/cb_stof.png,0,,,,,,,,,,,,,,,,,,,,,,
,,,,,00065,2023-10-19_12h02.43.498,vbt_B1_day4,2022.2.4,MacIntel,50,,,,,,down,0,3.595,,-0.53997195,-0.00911641,1,0,0,0,60,60,147,1,komisch,images/br_komisch.png,images/cb_komisch.png,1,Komisch,,,,,,,,,,,,,,,,,,,,,
,,,,,00065,2023-10-19_12h02.43.498,vbt_B1_day4,2022.2.4,MacIntel,50,,,,,,down,0,1.272,,-0.5371669,0.003506311,1,0,0,0,61,61,88,1,boeien,images/br_boeien.png,images/cb_boeien.png,0,,,,,,,,,,,,,,,,,,,,,,
,,,,,00065,2023-10-19_12h02.43.498,vbt_B1_day4,2022.2.4,MacIntel,50,,,,,,down,0,0.127,,-0.593267882,0.055399719,1,0,0,0,62,62,171,1,aarzelen,images/br_aarzelen.png,images/cb_aarzelen.png,0,,,,,,,,,,,,,,,,,,,,,,
,,,,,00065,2023-10-19_12h02.43.498,vbt_B1_day4,2022.2.4,MacIntel,50,,,,,,down,0,0.395,,-0.520336606,0.06802244,1,0,0,0,63,63,42,1,bleek,images/br_bleek.png,images/cb_bleek.png,0,,,,,,,,,,,,,,,,,,,,,,
,,,,,00065,2023-10-19_12h02.43.498,vbt_B1_day4,2022.2.4,MacIntel,50,,,,,,down,0,9.761,,-0.551192146,0.153576438,1,0,0,0,64,64,128,1,prikken,images/br_prikken.png,images/cb_prikken.png,0,,,,,,,,,,,,,,,,,,,,,,
,,,,,00065,2023-10-19_12h02.43.498,vbt_B1_day4,2022.2.4,MacIntel,50,,,,,,down,0,2.412,,-0.50911641,0.065217391,1,0,0,0,65,65,64,1,wegen,images/br_wegen.png,images/cb_wegen.png,1,Wegen,,,,,,,,,,,,,,,,,,,,,
,,,,,00065,2023-10-19_12h02.43.498,vbt_B1_day4,2022.2.4,MacIntel,50,,,,,,down,0,3.24,,-0.503506311,0.147966339,1,0,0,0,66,66,149,1,redding,images/br_redding.png,images/cb_redding.png,0,,,,,,,,,,,,,,,,,,,,,,
,,,,,00065,2023-10-19_12h02.43.498,vbt_B1_day4,2022.2.4,MacIntel,50,,,,,,down,0,0.745,,-0.483870968,0.065217391,1,0,0,0,67,67,48,1,steel,images/br_steel.png,images/cb_steel.png,0,,,,,,,,,,,,,,,,,,,,,,
,,,,,00065,2023-10-19_12h02.43.498,vbt_B1_day4,2022.2.4,MacIntel,50,,,,,,down,0,4.179,,-0.570827489,0.06802244,1,0,0,0,68,68,92,1,geheim,images/br_geheim.png,images/cb_geheim.png,0,,,,,,,,,,,,,,,,,,,,,,
,,,,,00065,2023-10-19_12h02.43.498,vbt_B1_day4,2022.2.4,MacIntel,50,,,,,,down,0,3.245,,-0.549789621,0.069424965,1,0,0,0,69,69,134,1,geliefd,images/br_geliefd.png,images/cb_geliefd.png,0,,,,,,,,,,,,,,,,,,,,,,
,,,,,00065,2023-10-19_12h02.43.498,vbt_B1_day4,2022.2.4,MacIntel,50,,,,,,down,0,7.943,,-0.58345021,-0.004908836,1,0,0,0,70,70,185,1,mijnheer,images/br_mijnheer.png,images/cb_mijnheer.png,1,Mijnheer,,,,,,,,,,,,,,,,,,,,,
,,,,,00065,2023-10-19_12h02.43.498,vbt_B1_day4,2022.2.4,MacIntel,50,,,,,,down,0,4.024,,-0.535764376,0.119915849,1,0,0,0,71,71,85,1,heilig,images/br_heilig.png,images/cb_heilig.png,0,,,,,,,,,,,,,,,,,,,,,,
,,,,,00065,2023-10-19_12h02.43.498,vbt_B1_day4,2022.2.4,MacIntel,50,,,,,,down,0,0.228,,-0.53997195,0.065217391,1,0,0,0,72,72,29,1,baas,images/br_baas.png,images/cb_baas.png,0,,,,,,,,,,,,,,,,,,,,,,
,,,,,00065,2023-10-19_12h02.43.498,vbt_B1_day4,2022.2.4,MacIntel,50,,,,,,down,0,3.128,,-0.47826087,0.08345021,1,0,0,0,73,73,183,1,getuigen,images/br_getuigen.png,images/cb_getuigen.png,0,,,,,,,,,,,,,,,,,,,,,,
,,,,,00065,2023-10-19_12h02.43.498,vbt_B1_day4,2022.2.4,MacIntel,50,,,,,,down,0,4.311,,-0.586255259,0.017531557,1,0,0,0,74,74,24,1,jurk,images/br_jurk.png,images/cb_jurk.png,1,Jurk,,,,,,,,,,,,,,,,,,,,,
,,,,,00065,2023-10-19_12h02.43.498,vbt_B1_day4,2022.2.4,MacIntel,50,,,,,,down,0,3.126,,-0.56802244,0.0371669,1,0,0,0,75,75,156,1,rechten,images/br_rechten.png,images/cb_rechten.png,0,,,,,,,,,,,,,,,,,,,,,,
,,,,,00065,2023-10-19_12h02.43.498,vbt_B1_day4,2022.2.4,MacIntel,50,,,,,,down,0,2.112,,-0.5371669,-0.05259467,1,0,0,0,76,76,23,1,zout,images/br_zout.png,images/cb_zout.png,0,,,,,,,,,,,,,,,,,,,,,,
,,,,,00065,2023-10-19_12h02.43.498,vbt_B1_day4,2022.2.4,MacIntel,50,,,,,,down,0,0.412,,-0.514726508,0.107293128,1,0,0,0,77,77,100,1,geduld,images/br_geduld.png,images/cb_geduld.png,0,,,,,,,,,,,,,,,,,,,,,,
,,,,,00065,2023-10-19_12h02.43.498,vbt_B1_day4,2022.2.4,MacIntel,50,,,,,,down,0,3.629,,-0.507713885,0.140953717,1,0,0,0,78,78,186,1,voorraad,images/br_voorraad.png,images/cb_voorraad.png,1,Voorraad,,,,,,,,,,,,,,,,,,,,,
,,,,,00065,2023-10-19_12h02.43.498,vbt_B1_day4,2022.2.4,MacIntel,50,,,,,,down,0,1.755,,-0.455820477,0.180224404,1,0,0,0,79,79,63,1,flirt,images/br_flirt.png,images/cb_flirt.png,0,,,,,,,,,,,,,,,,,,,,,,
,,,,,00065,2023-10-19_12h02.43.498,vbt_B1_day4,2022.2.4,MacIntel,50,,,,,,down,0,1.645,,-0.488078541,0.185834502,1,0,0,0,80,80,118,1,vinger,images/br_vinger.png,images/cb_vinger.png,0,,,,,,,,,,,,,,,,,,,,,,
,,,,,00065,2023-10-19_12h02.43.498,vbt_B1_day4,2022.2.4,MacIntel,50,,,,,,down,0,1.712,,-0.52173913,0.171809257,1,0,0,0,81,81,195,1,middelen,images/br_middelen.png,images/cb_middelen.png,0,,,,,,,,,,,,,,,,,,,,,,
,,,,,00065,2023-10-19_12h02.43.498,vbt_B1_day4,2022.2.4,MacIntel,50,,,,,,down,0,0.495,,-0.5371669,0.089060309,1,0,0,0,82,82,115,1,kleren,images/br_kleren.png,images/cb_kleren.png,0,,,,,,,,,,,,,,,,,,,,,,
,,,,,00065,2023-10-19_12h02.43.498,vbt_B1_day4,2022.2.4,MacIntel,50,,,,,,down,0,0.329,,-0.555399719,0.117110799,1,0,0,0,83,83,59,1,kring,images/br_kring.png,images/cb_kring.png,0,,,,,,,,,,,,,,,,,,,,,,
,,,,,00065,2023-10-19_12h02.43.498,vbt_B1_day4,2022.2.4,MacIntel,50,,,,,,down,0,3.979,,-0.530154278,0.08345021,1,0,0,0,84,84,179,1,woestijn,images/br_woestijn.png,images/cb_woestijn.png,0,,,,,,,,,,,,,,,,,,,,,,
,,,,,00065,2023-10-19_12h02.43.498,vbt_B1_day4,2022.2.4,MacIntel,50,,,,,,down,0,2.262,,-0.542776999,0.070827489,1,0,0,0,85,85,161,1,attentie,images/br_attentie.png,images/cb_attentie.png,0,,,,,,,,,,,,,,,,,,,,,,
,,,,,00065,2023-10-19_12h02.43.498,vbt_B1_day4,2022.2.4,MacIntel,50,,,,,,down,0,1.594,,-0.527349229,0.055399719,1,0,0,0,86,86,169,1,oprotten,images/br_oprotten.png,images/cb_oprotten.png,0,,,,,,,,,,,,,,,,,,,,,,
,,,,,00065,2023-10-19_12h02.43.498,vbt_B1_day4,2022.2.4,MacIntel,50,,,,,,down,0,0.162,,-0.570827489,0.167601683,1,0,0,0,87,87,78,1,leren,images/br_leren.png,images/cb_leren.png,0,,,,,,,,,,,,,,,,,,,,,,
,,,,,00065,2023-10-19_12h02.43.498,vbt_B1_day4,2022.2.4,MacIntel,50,,,,,,down,0,4.228,,-0.514726508,0.06802244,1,0,0,0,88,88,165,1,feestdag,images/br_feestdag.png,images/cb_feestdag.png,0,,,,,,,,,,,,,,,,,,,,,,
,,,,,00065,2023-10-19_12h02.43.498,vbt_B1_day4,2022.2.4,MacIntel,50,,,,,,down,0,2.729,,-0.497896213,0.156381487,1,0,0,0,89,89,81,1,dubbel,images/br_dubbel.png,images/cb_dubbel.png,0,,,,,,,,,,,,,,,,,,,,,,
,,,,,00065,2023-10-19_12h02.43.498,vbt_B1_day4,2022.2.4,MacIntel,50,,,,,,down,0,3.328,,-0.455820477,0.118513324,1,0,0,0,90,90,167,1,eenhoorn,images/br_eenhoorn.png,images/cb_eenhoorn.png,0,,,,,,,,,,,,,,,,,,,,,,
,,,,,00065,2023-10-19_12h02.43.498,vbt_B1_day4,2022.2.4,MacIntel,50,,,,,,down,0,0.162,,-0.453015428,0.201262272,1,0,0,0,91,91,47,1,kabel,images/br_kabel.png,images/cb_kabel.png,0,,,,,,,,,,,,,,,,,,,,,,
,,,,,00065,2023-10-19_12h02.43.498,vbt_B1_day4,2022.2.4,MacIntel,50,,,,,,down,0,0.028,,-0.472650771,0.121318373,1,0,0,0,92,92,4,1,moes,images/br_moes.png,images/cb_moes.png,0,,,,,,,,,,,,,,,,,,,,,,
,,,,,00065,2023-10-19_12h02.43.498,vbt_B1_day4,2022.2.4,MacIntel,50,,,,,,down,0,1.428,,-0.479663394,0.170406732,1,0,0,0,93,93,163,1,schuilen,images/br_schuilen.png,images/cb_schuilen.png,0,,,,,,,,,,,,,,,,,,,,,,
,,,,,00065,2023-10-19_12h02.43.498,vbt_B1_day4,2022.2.4,MacIntel,50,,,,,,down,0,0.029,,-0.513323983,0.192847125,1,0,0,0,94,94,10,1,leek,images/br_leek.png,images/cb_leek.png,0,,,,,,,,,,,,,,,,,,,,,,
,,,,,00065,2023-10-19_12h02.43.498,vbt_B1_day4,2022.2.4,MacIntel,50,,,,,,down,0,0.562,,-0.49088359,0.166199158,1,0,0,0,95,95,7,1,geld,images/br_geld.png,images/cb_geld.png,0,,,,,,,,,,,,,,,,,,,,,,
,,,,,00065,2023-10-19_12h02.43.498,vbt_B1_day4,2022.2.4,MacIntel,50,,,,,,down,0,0.696,,-0.43197756,0.163394109,1,0,0,0,96,96,74,1,graaf,images/br_graaf.png,images/cb_graaf.png,0,,,,,,,,,,,,,,,,,,,,,,
,,,,,00065,2023-10-19_12h02.43.498,vbt_B1_day4,2022.2.4,MacIntel,50,,,,,,down,0,5.028,,-0.504908836,0.023141655,1,0,0,0,97,97,15,1,soda,images/br_soda.png,images/cb_soda.png,0,,,,,,,,,,,,,,,,,,,,,,
,,,,,00065,2023-10-19_12h02.43.498,vbt_B1_day4,2022.2.4,MacIntel,50,,,,,,down,0,0.995,,-0.572230014,0.02454418,1,0,0,0,98,98,68,1,schat,images/br_schat.png,images/cb_schat.png,0,,,,,,,,,,,,,,,,,,,,,,
,,,,,00065,2023-10-19_12h02.43.498,vbt_B1_day4,2022.2.4,MacIntel,50,,,,,,down,0,2.262,,-0.575035063,0.002103787,1,0,0,0,99,99,121,1,twijfel,images/br_twijfel.png,images/cb_twijfel.png,0,,,,,,,,,,,,,,,,,,,,,,
,,,,,00065,2023-10-19_12h02.43.498,vbt_B1_day4,2022.2.4,MacIntel,50,,,,,,down,0,2.13,,-0.622720898,0.030154278,1,0,0,0,100,100,110,1,zuster,images/br_zuster.png,images/cb_zuster.png,0,,,,,,,,,,,,,,,,,,,,,,
,,,,,00065,2023-10-19_12h02.43.498,vbt_B1_day4,2022.2.4,MacIntel,50,,,,,,down,0,0.813,,-0.593267882,0.00631136,1,0,0,0,101,101,98,1,kreeft,images/br_kreeft.png,images/cb_kreeft.png,0,,,,,,,,,,,,,,,,,,,,,,
,,,,,00065,2023-10-19_12h02.43.498,vbt_B1_day4,2022.2.4,MacIntel,50,,,,,,down,0,2.429,,-0.64516129,0.031556802,1,0,0,0,102,102,83,1,mening,images/br_mening.png,images/cb_mening.png,0,,,,,,,,,,,,,,,,,,,,,,
,,,,,00065,2023-10-19_12h02.43.498,vbt_B1_day4,2022.2.4,MacIntel,50,,,,,,down,0,4.679,,0.49368864,-0.004908836,1,0,0,0,103,103,152,1,afnemen,images/br_afnemen.png,images/cb_afnemen.png,0,,,,,,,,,,,,,,,,,,,,,,
,,,,,00065,2023-10-19_12h02.43.498,vbt_B1_day4,2022.2.4,MacIntel,50,,,,,,down,0,6.328,,-0.605890603,-0.096072931,1,0,0,0,104,104,150,1,gegeven,images/br_gegeven.png,images/cb_gegeven.png,0,,,,,,,,,,,,,,,,,,,,,,
,,,,,00065,2023-10-19_12h02.43.498,vbt_B1_day4,2022.2.4,MacIntel,50,,,,,,down,0,0.495,,-0.638148668,-0.09887798,1,0,0,0,105,105,132,1,grappen,images/br_grappen.png,images/cb_grappen.png,0,,,,,,,,,,,,,,,,,,,,,,
,,,,,00065,2023-10-19_12h02.43.498,vbt_B1_day4,2022.2.4,MacIntel,50,,,,,,down,0,0.03,,-0.624123422,-0.080645161,1,0,0,0,106,106,101,1,staren,images/br_staren.png,images/cb_staren.png,0,,,,,,,,,,,,,,,,,,,,,,
,,,,,00065,2023-10-19_12h02.43.498,vbt_B1_day4,2022.2.4,MacIntel,50,,,,,,down,0,0.529,,-0.670406732,-0.051192146,1,0,0,0,107,107,2,1,jaar,images/br_jaar.png,images/cb_jaar.png,0,,,,,,,,,,,,,,,,,,,,,,
,,,,,00065,2023-10-19_12h02.43.498,vbt_B1_day4,2022.2.4,MacIntel,50,,,,,,down,0,1.478,,-0.569424965,-0.089060309,1,0,0,0,108,108,76,1,afval,images/br_afval.png,images/cb_afval.png,0,,,,,,,,,,,,,,,,,,,,,,
,,,,,00065,2023-10-19_12h02.43.498,vbt_B1_day4,2022.2.4,MacIntel,50,,,,,,down,0,2.23,,-0.639551192,-0.062412342,1,0,0,0,109,109,58,1,tekst,images/br_tekst.png,images/cb_tekst.png,0,,,,,,,,,,,,,,,,,,,,,,
,,,,,00065,2023-10-19_12h02.43.498,vbt_B1_day4,2022.2.4,MacIntel,50,,,,,,down,0,1.061,,-0.674614306,-0.062412342,1,0,0,0,110,110,37,1,mijn,images/br_mijn.png,images/cb_mijn.png,0,,,,,,,,,,,,,,,,,,,,,,
,,,,,00065,2023-10-19_12h02.43.498,vbt_B1_day4,2022.2.4,MacIntel,50,,,,,,down,0,0.362,,-0.719495091,-0.049789621,1,0,0,0,111,111,55,1,praat,images/br_praat.png,images/cb_praat.png,0,,,,,,,,,,,,,,,,,,,,,,
,,,,,00065,2023-10-19_12h02.43.498,vbt_B1_day4,2022.2.4,MacIntel,50,,,,,,down,0,1.79,,-0.711079944,-0.056802244,1,0,0,0,112,112,16,1,ziek,images/br_ziek.png,images/cb_ziek.png,0,,,,,,,,,,,,,,,,,,,,,,
,,,,,00065,2023-10-19_12h02.43.498,vbt_B1_day4,2022.2.4,MacIntel,50,,,,,,down,0,1.628,,-0.643758766,-0.059607293,1,0,0,0,113,113,172,1,weigeren,images/br_weigeren.png,images/cb_weigeren.png,0,,,,,,,,,,,,,,,,,,,,,,
,,,,,00065,2023-10-19_12h02.43.498,vbt_B1_day4,2022.2.4,MacIntel,50,,,,,,down,0,1.446,,-0.610098177,-0.076437588,1,0,0,0,114,114,116,1,besmet,images/br_besmet.png,images/cb_besmet.png,0,,,,,,,,,,,,,,,,,,,,,,
,,,,,00065,2023-10-19_12h02.43.498,vbt_B1_day4,2022.2.4,MacIntel,50,,,,,,down,0,7.145,,-0.544179523,-0.05259467,1,0,0,0,115,115,160,1,daarheen,images/br_daarheen.png,images/cb_daarheen.png,0,,,,,,,,,,,,,,,,,,,,,,
,,,,,00065,2023-10-19_12h02.43.498,vbt_B1_day4,2022.2.4,MacIntel,50,,,,,,down,0,0.628,,-0.56802244,0.00631136,1,0,0,0,116,116,97,1,loyaal,images/br_loyaal.png,images/cb_loyaal.png,0,,,,,,,,,,,,,,,,,,,,,,
,,,,,00065,2023-10-19_12h02.43.498,vbt_B1_day4,2022.2.4,MacIntel,50,,,,,,down,0,0.695,,-0.549789621,0.023141655,1,0,0,0,117,117,53,1,baron,images/br_baron.png,images/cb_baron.png,0,,,,,,,,,,,,,,,,,,,,,,
,,,,,00065,2023-10-19_12h02.43.498,vbt_B1_day4,2022.2.4,MacIntel,50,,,,,,down,0,4.428,,-0.624123422,-0.046984572,1,0,0,0,118,118,178,1,huisdier,images/br_huisdier.png,images/cb_huisdier.png,0,,,,,,,,,,,,,,,,,,,,,,
,,,,,00065,2023-10-19_12h02.43.498,vbt_B1_day4,2022.2.4,MacIntel,50,,,,,,down,0,0.662,,-0.631136045,0.007713885,1,0,0,0,119,119,73,1,volop,images/br_volop.png,images/cb_volop.png,0,,,,,,,,,,,,,,,,,,,,,,
,,,,,00065,2023-10-19_12h02.43.498,vbt_B1_day4,2022.2.4,MacIntel,50,,,,,,down,0,0.712,,-0.59887798,-0.016129032,1,0,0,0,120,120,13,1,kaal,images/br_kaal.png,images/cb_kaal.png,0,,,,,,,,,,,,,,,,,,,,,,
,,,,,00065,2023-10-19_12h02.43.498,vbt_B1_day4,2022.2.4,MacIntel,50,,,,,,down,0,0.311,,-0.62973352,-0.023141655,1,0,0,0,121,121,40,1,schep,images/br_schep.png,images/cb_schep.png,0,,,,,,,,,,,,,,,,,,,,,,
,,,,,00065,2023-10-19_12h02.43.498,vbt_B1_day4,2022.2.4,MacIntel,50,,,,,,down,0,1.462,,-0.622720898,-0.061009818,1,0,0,0,122,122,166,1,strikken,images/br_strikken.png,images/cb_strikken.png,0,,,,,,,,,,,,,,,,,,,,,,
,,,,,00065,2023-10-19_12h02.43.498,vbt_B1_day4,2022.2.4,MacIntel,50,,,,,,down,0,11.212,,-0.591865358,0.00911641,1,0,0,0,123,123,133,1,seizoen,images/br_seizoen.png,images/cb_seizoen.png,0,,,,,,,,,,,,,,,,,,,,,,
,,,,,00065,2023-10-19_12h02.43.498,vbt_B1_day4,2022.2.4,MacIntel,50,,,,,,down,0,0.462,,-0.591865358,0.007713885,1,0,0,0,124,124,0,1,slak,images/br_slak.png,images/cb_slak.png,0,,,,,,,,,,,,,,,,,,,,,,
,,,,,00065,2023-10-19_12h02.43.498,vbt_B1_day4,2022.2.4,MacIntel,50,,,,,,down,0,0.628,,-0.586255259,-0.00631136,1,0,0,0,125,125,12,1,kust,images/br_kust.png,images/cb_kust.png,0,,,,,,,,,,,,,,,,,,,,,,
,,,,,00065,2023-10-19_12h02.43.498,vbt_B1_day4,2022.2.4,MacIntel,50,,,,,,down,0,0.446,,-0.59887798,0.00911641,1,0,0,0,126,126,72,1,strak,images/br_strak.png,images/cb_strak.png,0,,,,,,,,,,,,,,,,,,,,,,
,,,,,00065,2023-10-19_12h02.43.498,vbt_B1_day4,2022.2.4,MacIntel,50,,,,,,down,0,0.329,,-0.597475456,0.013323983,1,0,0,0,127,127,96,1,slagen,images/br_slagen.png,images/cb_slagen.png,0,,,,,,,,,,,,,,,,,,,,,,
,,,,,00065,2023-10-19_12h02.43.498,vbt_B1_day4,2022.2.4,MacIntel,50,,,,,,down,0,0.346,,-0.628330996,0.031556802,1,0,0,0,128,128,69,1,waken,images/br_waken.png,images/cb_waken.png,0,,,,,,,,,,,,,,,,,,,,,,
,,,,,00065,2023-10-19_12h02.43.498,vbt_B1_day4,2022.2.4,MacIntel,50,,,,,,down,0,1.911,,-0.66058906,0.045582048,1,0,0,0,129,129,82,1,muziek,images/br_muziek.png,images/cb_muziek.png,0,,,,,,,,,,,,,,,,,,,,,,
,,,,,00065,2023-10-19_12h02.43.498,vbt_B1_day4,2022.2.4,MacIntel,50,,,,,,down,0,1.212,,-0.633941094,0.032959327,1,0,0,0,130,130,8,1,knie,images/br_knie.png,images/cb_knie.png,0,,,,,,,,,,,,,,,,,,,,,,
,,,,,00065,2023-10-19_12h02.43.498,vbt_B1_day4,2022.2.4,MacIntel,50,,,,,,down,0,0.779,,-0.635343619,0.053997195,1,0,0,0,131,131,197,1,spanning,images/br_spanning.png,images/cb_spanning.png,0,,,,,,,,,,,,,,,,,,,,,,
,,,,,00065,2023-10-19_12h02.43.498,vbt_B1_day4,2022.2.4,MacIntel,50,,,,,,down,0,1.545,,-0.587657784,0.059607293,1,0,0,0,132,132,44,1,flits,images/br_flits.png,images/cb_flits.png,0,,,,,,,,,,,,,,,,,,,,,,
,,,,,00065,2023-10-19_12h02.43.498,vbt_B1_day4,2022.2.4,MacIntel,50,,,,,,down,0,2.811,,-0.538569425,0.075035063,1,0,0,0,133,133,79,1,nodig,images/br_nodig.png,images/cb_nodig.png,0,,,,,,,,,,,,,,,,,,,,,,
,,,,,00065,2023-10-19_12h02.43.498,vbt_B1_day4,2022.2.4,MacIntel,50,,,,,,down,0,2.945,,-0.481065919,0.02454418,1,0,0,0,134,134,25,1,plek,images/br_plek.png,images/cb_plek.png,1,Plek,,,,,,,,,,,,,,,,,,,,,
,,,,,00065,2023-10-19_12h02.43.498,vbt_B1_day4,2022.2.4,MacIntel,50,,,,,,down,0,0.002,,-0.49368864,0.126928471,1,0,0,0,135,135,62,1,knaap,images/br_knaap.png,images/cb_knaap.png,0,,,,,,,,,,,,,,,,,,,,,,
,,,,,00065,2023-10-19_12h02.43.498,vbt_B1_day4,2022.2.4,MacIntel,50,,,,,,down,0,2.261,,-0.49088359,0.09887798,1,0,0,0,136,136,176,1,techniek,images/br_techniek.png,images/cb_techniek.png,0,,,,,,,,,,,,,,,,,,,,,,
,,,,,00065,2023-10-19_12h02.43.498,vbt_B1_day4,2022.2.4,MacIntel,50,,,,,,down,0,4.578,,-0.441795231,0.066619916,1,0,0,0,137,137,43,1,klauw,images/br_klauw.png,images/cb_klauw.png,0,,,,,,,,,,,,,,,,,,,,,,
,,,,,00065,2023-10-19_12h02.43.498,vbt_B1_day4,2022.2.4,MacIntel,50,,,,,,down,0,0.145,,-0.518934081,0.136746143,1,0,0,0,138,138,31,1,poes,images/br_poes.png,images/cb_poes.png,0,,,,,,,,,,,,,,,,,,,,,,
,,,,,00065,2023-10-19_12h02.43.498,vbt_B1_day4,2022.2.4,MacIntel,50,,,,,,down,0,1.645,,-0.528751753,0.180224404,1,0,0,0,139,139,135,1,gedicht,images/br_gedicht.png,images/cb_gedicht.png,0,,,,,,,,,,,,,,,,,,,,,,
,,,,,00065,2023-10-19_12h02.43.498,vbt_B1_day4,2022.2.4,MacIntel,50,,,,,,down,0,2.328,,-0.562412342,0.178821879,1,0,0,0,140,140,126,1,kasteel,images/br_kasteel.png,images/cb_kasteel.png,0,,,,,,,,,,,,,,,,,,,,,,
,,,,,00065,2023-10-19_12h02.43.498,vbt_B1_day4,2022.2.4,MacIntel,50,,,,,,down,0,3.128,,-0.594670407,0.11430575,1,0,0,0,141,141,164,1,anarchie,images/br_anarchie.png,images/cb_anarchie.png,0,,,,,,,,,,,,,,,,,,,,,,
,,,,,00065,2023-10-19_12h02.43.498,vbt_B1_day4,2022.2.4,MacIntel,50,,,,,,down,0,0.227,,-0.601683029,0.112903226,1,0,0,0,142,142,9,1,hier,images/br_hier.png,images/cb_hier.png,0,,,,,,,,,,,,,,,,,,,,,,
,,,,,00065,2023-10-19_12h02.43.498,vbt_B1_day4,2022.2.4,MacIntel,50,,,,,,down,0,5.478,,-0.573632539,0.108695652,1,0,0,0,143,143,187,1,opkijken,images/br_opkijken.png,images/cb_opkijken.png,1,Opkijken,,,,,,,,,,,,,,,,,,,,,
,,,,,00065,2023-10-19_12h02.43.498,vbt_B1_day4,2022.2.4,MacIntel,50,,,,,,down,0,6.255,,-0.472650771,0.020336606,1,0,0,0,144,144,114,1,vullen,images/br_vullen.png,images/cb_vullen.png,0,,,,,,,,,,,,,,,,,,,,,,
,,,,,00065,2023-10-19_12h02.43.498,vbt_B1_day4,2022.2.4,MacIntel,50,,,,,,down,0,2.413,,-0.482468443,0.174614306,1,0,0,0,145,145,143,1,hechten,images/br_hechten.png,images/cb_hechten.png,0,,,,,,,,,,,,,,,,,,,,,,
,,,,,00065,2023-10-19_12h02.43.498,vbt_B1_day4,2022.2.4,MacIntel,50,,,,,,down,0,0.912,,-0.441795231,0.167601683,1,0,0,0,146,146,127,1,doodmoe,images/br_doodmoe.png,images/cb_doodmoe.png,0,,,,,,,,,,,,,,,,,,,,,,
,,,,,00065,2023-10-19_12h02.43.498,vbt_B1_day4,2022.2.4,MacIntel,50,,,,,,down,0,0.744,,-0.396914446,0.119915849,1,0,0,0,147,147,111,1,ticket,images/br_ticket.png,images/cb_ticket.png,0,,,,,,,,,,,,,,,,,,,,,,
,,,,,00065,2023-10-19_12h02.43.498,vbt_B1_day4,2022.2.4,MacIntel,50,,,,,,down,0,1.544,,-0.530154278,0.154978962,1,0,0,0,148,148,102,1,legaal,images/br_legaal.png,images/cb_legaal.png,0,,,,,,,,,,,,,,,,,,,,,,
,,,,,00065,2023-10-19_12h02.43.498,vbt_B1_day4,2022.2.4,MacIntel,50,,,,,,down,0,3.062,,-0.570827489,0.161991585,1,0,0,0,149,149,199,1,beseffen,images/br_beseffen.png,images/cb_beseffen.png,0,,,,,,,,,,,,,,,,,,,,,,
,,,,,00065,2023-10-19_12h02.43.498,vbt_B1_day4,2022.2.4,MacIntel,50,,,,,,down,0,1.363,,-0.544179523,0.139551192,1,0,0,0,150,150,170,1,schatten,images/br_schatten.png,images/cb_schatten.png,0,,,,,,,,,,,,,,,,,,,,,,
,,,,,00065,2023-10-19_12h02.43.498,vbt_B1_day4,2022.2.4,MacIntel,50,,,,,,down,0,1.663,,-0.548387097,0.131136045,1,0,0,0,151,151,140,1,blijven,images/br_blijven.png,images/cb_blijven.png,0,,,,,,,,,,,,,,,,,,,,,,
,,,,,00065,2023-10-19_12h02.43.498,vbt_B1_day4,2022.2.4,MacIntel,50,,,,,,down,0,3.162,,-0.523141655,0.105890603,1,0,0,0,152,152,184,1,aandelen,images/br_aandelen.png,images/cb_aandelen.png,1,Aandelen,,,,,,,,,,,,,,,,,,,,,
,,,,,00065,2023-10-19_12h02.43.498,vbt_B1_day4,2022.2.4,MacIntel,50,,,,,,down,0,2.207,,-0.5371669,0.143758766,1,0,0,0,153,153,193,1,weeshuis,images/br_weeshuis.png,images/cb_weeshuis.png,0,,,,,,,,,,,,,,,,,,,,,,
,,,,,00065,2023-10-19_12h02.43.498,vbt_B1_day4,2022.2.4,MacIntel,50,,,,,,down,0,6.228,,-0.465638149,0.112903226,1,0,0,0,154,154,80,1,kanjer,images/br_kanjer.png,images/cb_kanjer.png,0,,,,,,,,,,,,,,,,,,,,,,
,,,,,00065,2023-10-19_12h02.43.498,vbt_B1_day4,2022.2.4,MacIntel,50,,,,,,down,0,12.511,,0.499298738,-0.058204769,1,0,0,0,155,155,196,1,nakijken,images/br_nakijken.png,images/cb_nakijken.png,0,,,,,,,,,,,,,,,,,,,,,,
,,,,,00065,2023-10-19_12h02.43.498,vbt_B1_day4,2022.2.4,MacIntel,50,,,,,,down,0,2.578,,0.465638149,-0.013323983,1,0,0,0,156,156,51,1,samen,images/br_samen.png,images/cb_samen.png,0,,,,,,,,,,,,,,,,,,,,,,
,,,,,00065,2023-10-19_12h02.43.498,vbt_B1_day4,2022.2.4,MacIntel,50,,,,,,down,0,0.296,,0.47545582,-0.023141655,1,0,0,0,157,157,90,1,geluid,images/br_geluid.png,images/cb_geluid.png,0,,,,,,,,,,,,,,,,,,,,,,
,,,,,00065,2023-10-19_12h02.43.498,vbt_B1_day4,2022.2.4,MacIntel,50,,,,,,down,0,0.78,,0.457223001,-0.119915849,1,0,0,0,158,158,175,1,heengaan,images/br_heengaan.png,images/cb_heengaan.png,0,,,,,,,,,,,,,,,,,,,,,,
,,,,,00065,2023-10-19_12h02.43.498,vbt_B1_day4,2022.2.4,MacIntel,50,,,,,,down,0,0.729,,0.530154278,-0.101683029,1,0,0,0,159,159,131,1,opzicht,images/br_opzicht.png,images/cb_opzicht.png,0,,,,,,,,,,,,,,,,,,,,,,
,,,,,00065,2023-10-19_12h02.43.498,vbt_B1_day4,2022.2.4,MacIntel,50,,,,,,down,0,3.828,,-0.488078541,0.041374474,1,0,0,0,160,160,26,1,leuk,images/br_leuk.png,images/cb_leuk.png,1,Leuk,,,,,,,,,,,,,,,,,,,,,
,,,,,00065,2023-10-19_12h02.43.498,vbt_B1_day4,2022.2.4,MacIntel,50,,,,,,down,0,3.306,,-0.55259467,0.119915849,1,0,0,0,161,161,198,1,bedoelen,images/br_bedoelen.png,images/cb_bedoelen.png,0,,,,,,,,,,,,,,,,,,,,,,
,,,,,00065,2023-10-19_12h02.43.498,vbt_B1_day4,2022.2.4,MacIntel,50,,,,,,down,0,3.211,,0.523141655,-0.087657784,1,0,0,0,162,162,174,1,stemming,images/br_stemming.png,images/cb_stemming.png,0,,,,,,,,,,,,,,,,,,,,,,
,,,,,00065,2023-10-19_12h02.43.498,vbt_B1_day4,2022.2.4,MacIntel,50,,,,,,down,0,2.978,,0.513323983,-0.125525947,1,0,0,0,163,163,192,1,schaamte,images/br_schaamte.png,images/cb_schaamte.png,0,,,,,,,,,,,,,,,,,,,,,,
,,,,,00065,2023-10-19_12h02.43.498,vbt_B1_day4,2022.2.4,MacIntel,50,,,,,,down,0,0.961,,0.534361851,-0.128330996,1,0,0,0,164,164,181,1,toegeven,images/br_toegeven.png,images/cb_toegeven.png,0,,,,,,,,,,,,,,,,,,,,,,
,,,,,00065,2023-10-19_12h02.43.498,vbt_B1_day4,2022.2.4,MacIntel,50,,,,,,down,0,1.446,,0.541374474,-0.09887798,1,0,0,0,165,165,30,1,uien,images/br_uien.png,images/cb_uien.png,0,,,,,,,,,,,,,,,,,,,,,,
,,,,,00065,2023-10-19_12h02.43.498,vbt_B1_day4,2022.2.4,MacIntel,50,,,,,,down,0,1.729,,0.49368864,-0.0371669,1,0,0,0,166,166,148,1,smullen,images/br_smullen.png,images/cb_smullen.png,0,,,,,,,,,,,,,,,,,,,,,,
,,,,,00065,2023-10-19_12h02.43.498,vbt_B1_day4,2022.2.4,MacIntel,50,,,,,,down,0,0.628,,0.531556802,-0.09887798,1,0,0,0,167,167,20,1,site,images/br_site.png,images/cb_site.png,0,,,,,,,,,,,,,,,,,,,,,,
,,,,,00065,2023-10-19_12h02.43.498,vbt_B1_day4,2022.2.4,MacIntel,50,,,,,,down,0,0.445,,0.476858345,-0.03997195,1,0,0,0,168,168,28,1,stal,images/br_stal.png,images/cb_stal.png,0,,,,,,,,,,,,,,,,,,,,,,
,,,,,00065,2023-10-19_12h02.43.498,vbt_B1_day4,2022.2.4,MacIntel,50,,,,,,down,0,3.262,,-0.497896213,0.007713885,1,0,0,0,169,169,107,1,maling,images/br_maling.png,images/cb_maling.png,1,Maling,,,,,,,,,,,,,,,,,,,,,
,,,,,00065,2023-10-19_12h02.43.498,vbt_B1_day4,2022.2.4,MacIntel,50,,,,,,down,0,3.121,,0.50631136,-0.138148668,1,0,0,0,170,170,158,1,innemen,images/br_innemen.png,images/cb_innemen.png,0,,,,,,,,,,,,,,,,,,,,,,
,,,,,00065,2023-10-19_12h02.43.498,vbt_B1_day4,2022.2.4,MacIntel,50,,,,,,down,0,3.744,,-0.544179523,0.003506311,1,0,0,0,171,171,159,1,sufferd,images/br_sufferd.png,images/cb_sufferd.png,0,,,,,,,,,,,,,,,,,,,,,,
,,,,,00065,2023-10-19_12h02.43.498,vbt_B1_day4,2022.2.4,MacIntel,50,,,,,,down,0,0.946,,-0.612903226,0.073632539,1,0,0,0,172,172,49,1,laken,images/br_laken.png,images/cb_laken.png,0,,,,,,,,,,,,,,,,,,,,,,
,,,,,00065,2023-10-19_12h02.43.498,vbt_B1_day4,2022.2.4,MacIntel,50,,,,,,down,0,5.077,,0.593267882,-0.013323983,1,0,0,0,173,173,153,1,vervoer,images/br_vervoer.png,images/cb_vervoer.png,0,,,,,,,,,,,,,,,,,,,,,,
,,,,,00065,2023-10-19_12h02.43.498,vbt_B1_day4,2022.2.4,MacIntel,50,,,,,,down,0,2.712,,-0.503506311,-0.025946704,1,0,0,0,174,174,103,1,joggen,images/br_joggen.png,images/cb_joggen.png,0,,,,,,,,,,,,,,,,,,,,,,
,,,,,00065,2023-10-19_12h02.43.498,vbt_B1_day4,2022.2.4,MacIntel,50,,,,,,down,0,0.512,,-0.53997195,0.122720898,1,0,0,0,175,175,32,1,palm,images/br_palm.png,images/cb_palm.png,0,,,,,,,,,,,,,,,,,,,,,,
,,,,,00065,2023-10-19_12h02.43.498,vbt_B1_day4,2022.2.4,MacIntel,50,,,,,,down,0,0.495,,-0.548387097,0.0371669,1,0,0,0,176,176,56,1,traag,images/br_traag.png,images/cb_traag.png,0,,,,,,,,,,,,,,,,,,,,,,
,,,,,00065,2023-10-19_12h02.43.498,vbt_B1_day4,2022.2.4,MacIntel,50,,,,,,down,0,4.911,,-0.603085554,0.017531557,1,0,0,0,177,177,105,1,wijlen,images/br_wijlen.png,images/cb_wijlen.png,1,Wijlen,,,,,,,,,,,,,,,,,,,,,
,,,,,00065,2023-10-19_12h02.43.498,vbt_B1_day4,2022.2.4,MacIntel,50,,,,,,down,0,4.423,,-0.619915849,-0.063814867,1,0,0,0,178,178,130,1,keihard,images/br_keihard.png,images/cb_keihard.png,0,,,,,,,,,,,,,,,,,,,,,,
,,,,,00065,2023-10-19_12h02.43.498,vbt_B1_day4,2022.2.4,MacIntel,50,,,,,,down,0,2.246,,-0.663394109,-0.059607293,1,0,0,0,179,179,146,1,opkomen,images/br_opkomen.png,images/cb_opkomen.png,1,Opkomen,,,,,,,,,,,,,,,,,,,,,
,,,,,00065,2023-10-19_12h02.43.498,vbt_B1_day4,2022.2.4,MacIntel,50,,,,,,down,0,0.412,,-0.618513324,-0.090462833,1,0,0,0,180,180,39,1,laag,images/br_laag.png,images/cb_laag.png,0,,,,,,,,,,,,,,,,,,,,,,
,,,,,00065,2023-10-19_12h02.43.498,vbt_B1_day4,2022.2.4,MacIntel,50,,,,,,down,0,0.145,,-0.639551192,-0.061009818,1,0,0,0,181,181,84,1,lokken,images/br_lokken.png,images/cb_lokken.png,0,,,,,,,,,,,,,,,,,,,,,,
,,,,,00065,2023-10-19_12h02.43.498,vbt_B1_day4,2022.2.4,MacIntel,50,,,,,,down,0,0.295,,-0.677419355,-0.025946704,1,0,0,0,182,182,113,1,koppen,images/br_koppen.png,images/cb_koppen.png,0,,,,,,,,,,,,,,,,,,,,,,
,,,,,00065,2023-10-19_12h02.43.498,vbt_B1_day4,2022.2.4,MacIntel,50,,,,,,down,0,0.996,,-0.661991585,-0.027349229,1,0,0,0,183,183,141,1,knielen,images/br_knielen.png,images/cb_knielen.png,0,,,,,,,,,,,,,,,,,,,,,,
,,,,,00065,2023-10-19_12h02.43.498,vbt_B1_day4,2022.2.4,MacIntel,50,,,,,,down,0,0.928,,-0.66058906,-0.041374474,1,0,0,0,184,184,87,1,toeval,images/br_toeval.png,images/cb_toeval.png,0,,,,,,,,,,,,,,,,,,,,,,
,,,,,00065,2023-10-19_12h02.43.498,vbt_B1_day4,2022.2.4,MacIntel,50,,,,,,down,0,1.593,,-0.47826087,0.004908836,1,0,0,0,185,185,18,1,blik,images/br_blik.png,images/cb_blik.png,0,,,,,,,,,,,,,,,,,,,,,,
,,,,,00065,2023-10-19_12h02.43.498,vbt_B1_day4,2022.2.4,MacIntel,50,,,,,,down,0,3.062,,-0.663394109,0.00631136,1,0,0,0,186,186,67,1,zwart,images/br_zwart.png,images/cb_zwart.png,1,Zwart,,,,,,,,,,,,,,,,,,,,,
,,,,,00065,2023-10-19_12h02.43.498,vbt_B1_day4,2022.2.4,MacIntel,50,,,,,,down,0,0.528,,-0.631136045,-0.154978962,1,0,0,0,187,187,50,1,stoom,images/br_stoom.png,images/cb_stoom.png,0,,,,,,,,,,,,,,,,,,,,,,
,,,,,00065,2023-10-19_12h02.43.498,vbt_B1_day4,2022.2.4,MacIntel,50,,,,,,down,0,5.478,,-0.685834502,-0.010518934,1,0,0,0,188,188,145,1,invloed,images/br_invloed.png,images/cb_invloed.png,1,Invloed,,,,,,,,,,,,,,,,,,,,,
,,,,,00065,2023-10-19_12h02.43.498,vbt_B1_day4,2022.2.4,MacIntel,50,,,,,,down,0,1.838,,-0.622720898,-0.142356241,1,0,0,0,189,189,89,1,slapen,images/br_slapen.png,images/cb_slapen.png,0,,,,,,,,,,,,,,,,,,,,,,
,,,,,00065,2023-10-19_12h02.43.498,vbt_B1_day4,2022.2.4,MacIntel,50,,,,,,down,0,0.044,,-0.589060309,-0.094670407,1,0,0,0,190,190,117,1,kennis,images/br_kennis.png,images/cb_kennis.png,0,,,,,,,,,,,,,,,,,,,,,,
,,,,,00065,2023-10-19_12h02.43.498,vbt_B1_day4,2022.2.4,MacIntel,50,,,,,,down,0,2.744,,-0.565217391,-0.128330996,1,0,0,0,191,191,95,1,vreten,images/br_vreten.png,images/cb_vreten.png,0,,,,,,,,,,,,,,,,,,,,,,
,,,,,00065,2023-10-19_12h02.43.498,vbt_B1_day4,2022.2.4,MacIntel,50,,,,,,down,0,2.362,,-0.542776999,-0.089060309,1,0,0,0,192,192,142,1,snuiven,images/br_snuiven.png,images/cb_snuiven.png,0,,,,,,,,,,,,,,,,,,,,,,
,,,,,00065,2023-10-19_12h02.43.498,vbt_B1_day4,2022.2.4,MacIntel,50,,,,,,down,0,0.228,,-0.591865358,-0.079242637,1,0,0,0,193,193,38,1,baai,images/br_baai.png,images/cb_baai.png,0,,,,,,,,,,,,,,,,,,,,,,
,,,,,00065,2023-10-19_12h02.43.498,vbt_B1_day4,2022.2.4,MacIntel,50,,,,,,down,0,0.445,,-0.58345021,-0.091865358,1,0,0,0,194,194,99,1,koffie,images/br_koffie.png,images/cb_koffie.png,0,,,,,,,,,,,,,,,,,,,,,,
,,,,,00065,2023-10-19_12h02.43.498,vbt_B1_day4,2022.2.4,MacIntel,50,,,,,,down,0,2.528,,-0.586255259,-0.090462833,1,0,0,0,195,195,122,1,waarvan,images/br_waarvan.png,images/cb_waarvan.png,0,,,,,,,,,,,,,,,,,,,,,,
,,,,,00065,2023-10-19_12h02.43.498,vbt_B1_day4,2022.2.4,MacIntel,50,,,,,,down,0,1.229,,-0.532959327,-0.045582048,1,0,0,0,196,196,119,1,liefje,images/br_liefje.png,images/cb_liefje.png,0,,,,,,,,,,,,,,,,,,,,,,
,,,,,00065,2023-10-19_12h02.43.498,vbt_B1_day4,2022.2.4,MacIntel,50,,,,,,down,0,8.861,,-0.556802244,0.004908836,1,0,0,0,197,197,155,1,gerucht,images/br_gerucht.png,images/cb_gerucht.png,0,,,,,,,,,,,,,,,,,,,,,,
,,,,,00065,2023-10-19_12h02.43.498,vbt_B1_day4,2022.2.4,MacIntel,50,,,,,,down,0,2.894,,-0.559607293,0.000701262,1,0,0,0,198,198,46,1,jagen,images/br_jagen.png,images/cb_jagen.png,0,,,,,,,,,,,,,,,,,,,,,,
,,,,,00065,2023-10-19_12h02.43.498,vbt_B1_day4,2022.2.4,MacIntel,50,,,,,,down,0,2.479,,-0.639551192,-0.018934081,1,0,0,0,199,199,106,1,zingen,images/br_zingen.png,images/cb_zingen.png,1,Zingen,,,,,,,,,,,,,,,,,,,,,
,,,,,00065,2023-10-19_12h02.43.498,vbt_B1_day4,2022.2.4,MacIntel,50,,,,,,,,,,,,,,,,,,,,,,,,,0.55259467,-0.177419355,1,0,0,,,,,,,,,,,,,,,,
,,,,,00065,2023-10-19_12h02.43.498,vbt_B1_day4,2022.2.4,MacIntel,50,,,,,,,,,,,,,,,,,,,,,,,,,,,,,,0.649368864,-0.272791024,1,0,0,,,,,,,,,,,
,,,,,00065,2023-10-19_12h02.43.498,vbt_B1_day4,2022.2.4,MacIntel,50,,,,,,,,,,,,,,,,,,,,schenden,images/br_schenden.png,images/cb_schenden.png,,Schenden,,,,,,,,,,,0.621318373,-0.150771388,1,0,0,Schenden,0,0,0,57,1
,,,,,00065,2023-10-19_12h02.43.498,vbt_B1_day4,2022.2.4,MacIntel,50,,,,,,,,,,,,,,,,,,,,rijp,images/br_rijp.png,images/cb_rijp.png,,Rijp,,,,,,,,,,,0.619915849,-0.154978962,1,0,0,Rijp,0,1,1,2,1
,,,,,00065,2023-10-19_12h02.43.498,vbt_B1_day4,2022.2.4,MacIntel,50,,,,,,,,,,,,,,,,,,,,mekst,images/br_mekst.png,images/cb_mekst.png,,Mekst ,,,,,,,,,,,0.619915849,-0.112903226,1,0,0,Mekst ,0,2,2,27,1
,,,,,00065,2023-10-19_12h02.43.498,vbt_B1_day4,2022.2.4,MacIntel,50,,,,,,,,,,,,,,,,,,,,eerst,images/br_eerst.png,images/cb_eerst.png,,Eerst,,,,,,,,,,,0.638148668,-0.046984572,1,0,0,Eerst,0,3,3,47,1
,,,,,00065,2023-10-19_12h02.43.498,vbt_B1_day4,2022.2.4,MacIntel,50,,,,,,,,,,,,,,,,,,,,snee,images/br_snee.png,images/cb_snee.png,,Snee,,,,,,,,,,,0.671809257,-0.149368864,1,0,0,Snee,0,4,4,40,1
,,,,,00065,2023-10-19_12h02.43.498,vbt_B1_day4,2022.2.4,MacIntel,50,,,,,,,,,,,,,,,,,,,,drummer,images/br_drummer.png,images/cb_drummer.png,,Drummer,,,,,,,,,,,0.628330996,-0.128330996,1,0,0,Drummer,0,5,5,53,1
,,,,,00065,2023-10-19_12h02.43.498,vbt_B1_day4,2022.2.4,MacIntel,50,,,,,,,,,,,,,,,,,,,,gaaf,images/br_gaaf.png,images/cb_gaaf.png,,Gaaf,,,,,,,,,,,0.643758766,-0.063814867,1,0,0,Gaaf,0,6,6,43,1
,,,,,00065,2023-10-19_12h02.43.498,vbt_B1_day4,2022.2.4,MacIntel,50,,,,,,,,,,,,,,,,,,,,praat,images/br_praat.png,images/cb_praat.png,,Praat,,,,,,,,,,,0.555399719,-0.11430575,1,0,0,Praat,0,7,7,7,1
,,,,,00065,2023-10-19_12h02.43.498,vbt_B1_day4,2022.2.4,MacIntel,50,,,,,,,,,,,,,,,,,,,,broodje,images/br_broodje.png,images/cb_broodje.png,,Broodje,,,,,,,,,,,0.639551192,-0.105890603,1,0,0,Broodje,0,8,8,55,1
,,,,,00065,2023-10-19_12h02.43.498,vbt_B1_day4,2022.2.4,MacIntel,50,,,,,,,,,,,,,,,,,,,,seizoen,images/br_seizoen.png,images/cb_seizoen.png,,Seizoen,,,,,,,,,,,0.611500701,-0.104488079,1,0,0,Seizoen,0,9,9,13,1
,,,,,00065,2023-10-19_12h02.43.498,vbt_B1_day4,2022.2.4,MacIntel,50,,,,,,,,,,,,,,,,,,,,dozijn,images/br_dozijn.png,images/cb_dozijn.png,,Donijn ,,,,,,,,,,,0.555399719,0.028751753,1,0,0,Donijn ,0,10,10,48,1
,,,,,00065,2023-10-19_12h02.43.498,vbt_B1_day4,2022.2.4,MacIntel,50,,,,,,,,,,,,,,,,,,,,geheim,images/br_geheim.png,images/cb_geheim.png,,Geheim,,,,,,,,,,,0.692847125,-0.163394109,1,0,0,Geheim,0,11,11,8,1
,,,,,00065,2023-10-19_12h02.43.498,vbt_B1_day4,2022.2.4,MacIntel,50,,,,,,,,,,,,,,,,,,,,paalbaak,images/br_paalbaak.png,images/cb_paalbaak.png,,Paalbaak ,,,,,,,,,,,0.621318373,-0.086255259,1,0,0,Paalbaak ,0,12,12,39,1
,,,,,00065,2023-10-19_12h02.43.498,vbt_B1_day4,2022.2.4,MacIntel,50,,,,,,,,,,,,,,,,,,,,midden,images/br_midden.png,images/cb_midden.png,,Midden,,,,,,,,,,,0.64516129,-0.125525947,1,0,0,Midden,0,13,13,50,1
,,,,,00065,2023-10-19_12h02.43.498,vbt_B1_day4,2022.2.4,MacIntel,50,,,,,,,,,,,,,,,,,,,,wozing,images/br_wozing.png,images/cb_wozing.png,,Woning,,,,,,,,,,,0.667601683,-0.104488079,1,0,0,Woning,0,14,14,28,1
,,,,,00065,2023-10-19_12h02.43.498,vbt_B1_day4,2022.2.4,MacIntel,50,,,,,,,,,,,,,,,,,,,,zaalrijk,images/br_zaalrijk.png,images/cb_zaalrijk.png,,Zaalrijk ,,,,,,,,,,,0.586255259,-0.075035063,1,0,0,Zaalrijk ,0,15,15,37,1
,,,,,00065,2023-10-19_12h02.43.498,vbt_B1_day4,2022.2.4,MacIntel,50,,,,,,,,,,,,,,,,,,,,ezel,images/br_ezel.png,images/cb_ezel.png,,Ezel,,,,,,,,,,,0.601683029,-0.153576438,1,0,0,Ezel,0,16,16,42,1
,,,,,00065,2023-10-19_12h02.43.498,vbt_B1_day4,2022.2.4,MacIntel,50,,,,,,,,,,,,,,,,,,,,aanzwaag,images/br_aanzwaag.png,images/cb_aanzwaag.png,,Aanzwaag ,,,,,,,,,,,0.624123422,-0.136746143,1,0,0,Aanzwaag ,0,17,17,38,1
,,,,,00065,2023-10-19_12h02.43.498,vbt_B1_day4,2022.2.4,MacIntel,50,,,,,,,,,,,,,,,,,,,,toevol,images/br_toevol.png,images/cb_toevol.png,,Toevol ,,,,,,,,,,,0.601683029,-0.167601683,1,0,0,Toevol ,0,18,18,29,1
,,,,,00065,2023-10-19_12h02.43.498,vbt_B1_day4,2022.2.4,MacIntel,50,,,,,,,,,,,,,,,,,,,,pittig,images/br_pittig.png,images/cb_pittig.png,,Pittig,,,,,,,,,,,0.604488079,-0.108695652,1,0,0,Pittig,0,19,19,51,1
,,,,,00065,2023-10-19_12h02.43.498,vbt_B1_day4,2022.2.4,MacIntel,50,,,,,,,,,,,,,,,,,,,,drooien,images/br_drooien.png,images/cb_drooien.png,,Drooien ,,,,,,,,,,,0.572230014,-0.066619916,1,0,0,Drooien ,0,20,20,32,1
,,,,,00065,2023-10-19_12h02.43.498,vbt_B1_day4,2022.2.4,MacIntel,50,,,,,,,,,,,,,,,,,,,,gijf,images/br_gijf.png,images/cb_gijf.png,,Gijf ,,,,,,,,,,,0.503506311,-0.059607293,1,0,0,Gijf ,0,21,21,23,1
,,,,,00065,2023-10-19_12h02.43.498,vbt_B1_day4,2022.2.4,MacIntel,50,,,,,,,,,,,,,,,,,,,,gebog,images/br_gebog.png,images/cb_gebog.png,,Gebog ,,,,,,,,,,,0.561009818,-0.11430575,1,0,0,Gebog ,0,22,22,24,1
,,,,,00065,2023-10-19_12h02.43.498,vbt_B1_day4,2022.2.4,MacIntel,50,,,,,,,,,,,,,,,,,,,,vreten,images/br_vreten.png,images/cb_vreten.png,,Vreten,,,,,,,,,,,0.624123422,-0.049789621,1,0,0,Vreten,0,23,23,11,1
,,,,,00065,2023-10-19_12h02.43.498,vbt_B1_day4,2022.2.4,MacIntel,50,,,,,,,,,,,,,,,,,,,,kaal,images/br_kaal.png,images/cb_kaal.png,,Kaal,,,,,,,,,,,0.617110799,-0.044179523,1,0,0,Kaal,0,24,24,1,1
,,,,,00065,2023-10-19_12h02.43.498,vbt_B1_day4,2022.2.4,MacIntel,50,,,,,,,,,,,,,,,,,,,,heengaan,images/br_heengaan.png,images/cb_heengaan.png,,Heengaan,,,,,,,,,,,0.681626928,-0.110098177,1,0,0,Heengaan,0,25,25,19,1
,,,,,00065,2023-10-19_12h02.43.498,vbt_B1_day4,2022.2.4,MacIntel,50,,,,,,,,,,,,,,,,,,,,weigeren,images/br_weigeren.png,images/cb_weigeren.png,,Weigeren,,,,,,,,,,,0.681626928,-0.069424965,1,0,0,Weigeren,0,26,26,16,1
,,,,,00065,2023-10-19_12h02.43.498,vbt_B1_day4,2022.2.4,MacIntel,50,,,,,,,,,,,,,,,,,,,,opkicht,images/br_opkicht.png,images/cb_opkicht.png,,Opkicht ,,,,,,,,,,,0.621318373,-0.076437588,1,0,0,Opkicht ,0,27,27,34,1
,,,,,00065,2023-10-19_12h02.43.498,vbt_B1_day4,2022.2.4,MacIntel,50,,,,,,,,,,,,,,,,,,,,seizoon,images/br_seizoon.png,images/cb_seizoon.png,,Seinoon ,,,,,,,,,,,0.663394109,-0.167601683,1,0,0,Seinoon ,0,28,28,33,1
,,,,,00065,2023-10-19_12h02.43.498,vbt_B1_day4,2022.2.4,MacIntel,50,,,,,,,,,,,,,,,,,,,,sulbon,images/br_sulbon.png,images/cb_sulbon.png,,Sulb..,,,,,,,,,,,-0.538569425,0.093267882,1,0,0,Sulb..,0,29,29,31,1
,,,,,00065,2023-10-19_12h02.43.498,vbt_B1_day4,2022.2.4,MacIntel,50,,,,,,,,,,,,,,,,,,,,flippen,images/br_flippen.png,images/cb_flippen.png,,Flippen ,,,,,,,,,,,0.575035063,-0.086255259,1,0,0,Flippen ,0,30,30,54,1
,,,,,00065,2023-10-19_12h02.43.498,vbt_B1_day4,2022.2.4,MacIntel,50,,,,,,,,,,,,,,,,,,,,geliefd,images/br_geliefd.png,images/cb_geliefd.png,,Geliefd,,,,,,,,,,,0.647966339,-0.147966339,1,0,0,Geliefd,0,31,31,14,1
,,,,,00065,2023-10-19_12h02.43.498,vbt_B1_day4,2022.2.4,MacIntel,50,,,,,,,,,,,,,,,,,,,,gebit,images/br_gebit.png,images/cb_gebit.png,,Gebit,,,,,,,,,,,0.632538569,-0.105890603,1,0,0,Gebit,0,32,32,6,1
,,,,,00065,2023-10-19_12h02.43.498,vbt_B1_day4,2022.2.4,MacIntel,50,,,,,,,,,,,,,,,,,,,,haza,images/br_haza.png,images/cb_haza.png,,Haza ,,,,,,,,,,,0.597475456,0.03997195,1,0,0,Haza ,0,33,33,21,1
,,,,,00065,2023-10-19_12h02.43.498,vbt_B1_day4,2022.2.4,MacIntel,50,,,,,,,,,,,,,,,,,,,,bruin,images/br_bruin.png,images/cb_bruin.png,,Bruin,,,,,,,,,,,0.705469846,-0.211079944,1,0,0,Bruin,0,34,34,45,1
,,,,,00065,2023-10-19_12h02.43.498,vbt_B1_day4,2022.2.4,MacIntel,50,,,,,,,,,,,,,,,,,,,,oceaan,images/br_oceaan.png,images/cb_oceaan.png,,Oceaan,,,,,,,,,,,0.704067321,-0.16058906,1,0,0,Oceaan,0,35,35,10,1
,,,,,00065,2023-10-19_12h02.43.498,vbt_B1_day4,2022.2.4,MacIntel,50,,,,,,,,,,,,,,,,,,,,kust,images/br_kust.png,images/cb_kust.png,,Kust,,,,,,,,,,,0.646563815,-0.11430575,1,0,0,Kust,0,36,36,0,1
,,,,,00065,2023-10-19_12h02.43.498,vbt_B1_day4,2022.2.4,MacIntel,50,,,,,,,,,,,,,,,,,,,,zwek,images/br_zwek.png,images/cb_zwek.png,,Zwek ,,,,,,,,,,,0.580645161,-0.031556802,1,0,0,Zwek ,0,37,37,20,1
,,,,,00065,2023-10-19_12h02.43.498,vbt_B1_day4,2022.2.4,MacIntel,50,,,,,,,,,,,,,,,,,,,,lappen,images/br_lappen.png,images/cb_lappen.png,,Lappen,,,,,,,,,,,0.697054698,-0.132538569,1,0,0,Lappen,0,38,38,49,1
,,,,,00065,2023-10-19_12h02.43.498,vbt_B1_day4,2022.2.4,MacIntel,50,,,,,,,,,,,,,,,,,,,,tucket,images/br_tucket.png,images/cb_tucket.png,,Tugket ,,,,,,,,,,,0.661991585,-0.105890603,1,0,0,Tugket ,0,39,39,30,1
,,,,,00065,2023-10-19_12h02.43.498,vbt_B1_day4,2022.2.4,MacIntel,50,,,,,,,,,,,,,,,,,,,,steen,images/br_steen.png,images/cb_steen.png,,Steen,,,,,,,,,,,0.6914446,-0.14516129,1,0,0,Steen,0,40,40,44,1
,,,,,00065,2023-10-19_12h02.43.498,vbt_B1_day4,2022.2.4,MacIntel,50,,,,,,,,,,,,,,,,,,,,baron,images/br_baron.png,images/cb_baron.png,,Baron,,,,,,,,,,,0.701262272,-0.122720898,1,0,0,Baron,0,41,41,5,1
,,,,,00065,2023-10-19_12h02.43.498,vbt_B1_day4,2022.2.4,MacIntel,50,,,,,,,,,,,,,,,,,,,,grappen,images/br_grappen.png,images/cb_grappen.png,,Grappen,,,,,,,,,,,0.720897616,-0.105890603,1,0,0,Grappen,0,42,42,12,1
,,,,,00065,2023-10-19_12h02.43.498,vbt_B1_day4,2022.2.4,MacIntel,50,,,,,,,,,,,,,,,,,,,,gaan,images/br_gaan.png,images/cb_gaan.png,,Gaan,,,,,,,,,,,0.713884993,-0.185834502,1,0,0,Gaan,0,43,43,41,1
,,,,,00065,2023-10-19_12h02.43.498,vbt_B1_day4,2022.2.4,MacIntel,50,,,,,,,,,,,,,,,,,,,,apparaat,images/br_apparaat.png,images/cb_apparaat.png,,Apparaat,,,,,,,,,,,0.760168303,-0.227910238,1,0,0,Apparaat,0,44,44,17,1
,,,,,00065,2023-10-19_12h02.43.498,vbt_B1_day4,2022.2.4,MacIntel,50,,,,,,,,,,,,,,,,,,,,getucht,images/br_getucht.png,images/cb_getucht.png,,Getuht ,,,,,,,,,,,0.62973352,-0.117110799,1,0,0,Getuht ,0,45,45,35,1
,,,,,00065,2023-10-19_12h02.43.498,vbt_B1_day4,2022.2.4,MacIntel,50,,,,,,,,,,,,,,,,,,,,strok,images/br_strok.png,images/cb_strok.png,,Strok ,,,,,,,,,,,0.626928471,-0.062412342,1,0,0,Strok ,0,46,46,25,1
,,,,,00065,2023-10-19_12h02.43.498,vbt_B1_day4,2022.2.4,MacIntel,50,,,,,,,,,,,,,,,,,,,,dalen,images/br_dalen.png,images/cb_dalen.png,,Dalen,,,,,,,,,,,0.594670407,-0.010518934,1,0,0,Dalen,0,47,47,46,1
,,,,,00065,2023-10-19_12h02.43.498,vbt_B1_day4,2022.2.4,MacIntel,50,,,,,,,,,,,,,,,,,,,,schotel,images/br_schotel.png,images/cb_schotel.png,,Schotel,,,,,,,,,,,0.711079944,-0.204067321,1,0,0,Schotel,0,48,48,52,1
,,,,,00065,2023-10-19_12h02.43.498,vbt_B1_day4,2022.2.4,MacIntel,50,,,,,,,,,,,,,,,,,,,,pijnlijk,images/br_pijnlijk.png,images/cb_pijnlijk.png,,Pijnlijk,,,,,,,,,,,0.639551192,-0.046984572,1,0,0,Pijnlijk,0,49,49,58,1
,,,,,00065,2023-10-19_12h02.43.498,vbt_B1_day4,2022.2.4,MacIntel,50,,,,,,,,,,,,,,,,,,,,waarop,images/br_waarop.png,images/cb_waarop.png,,Waarop,,,,,,,,,,,0.661991585,-0.152173913,1,0,0,Waarop,0,50,50,9,1
,,,,,00065,2023-10-19_12h02.43.498,vbt_B1_day4,2022.2.4,MacIntel,50,,,,,,,,,,,,,,,,,,,,wagon,images/br_wagon.png,images/cb_wagon.png,,Wagon,,,,,,,,,,,0.688639551,-0.132538569,1,0,0,Wagon,0,51,51,4,1
,,,,,00065,2023-10-19_12h02.43.498,vbt_B1_day4,2022.2.4,MacIntel,50,,,,,,,,,,,,,,,,,,,,warel,images/br_warel.png,images/cb_warel.png,,Warel ,,,,,,,,,,,0.685834502,-0.058204769,1,0,0,Warel ,0,52,52,26,1
,,,,,00065,2023-10-19_12h02.43.498,vbt_B1_day4,2022.2.4,MacIntel,50,,,,,,,,,,,,,,,,,,,,fran,images/br_fran.png,images/cb_fran.png,,Fran ,,,,,,,,,,,0.643758766,-0.133941094,1,0,0,Fran ,0,53,53,22,1
,,,,,00065,2023-10-19_12h02.43.498,vbt_B1_day4,2022.2.4,MacIntel,50,,,,,,,,,,,,,,,,,,,,gedicht,images/br_gedicht.png,images/cb_gedicht.png,,Gedicht,,,,,,,,,,,0.661991585,-0.142356241,1,0,0,Gedicht,0,54,54,15,1
,,,,,00065,2023-10-19_12h02.43.498,vbt_B1_day4,2022.2.4,MacIntel,50,,,,,,,,,,,,,,,,,,,,soda,images/br_soda.png,images/cb_soda.png,,Soda,,,,,,,,,,,0.617110799,-0.135343619,1,0,0,Soda,0,55,55,3,1
,,,,,00065,2023-10-19_12h02.43.498,vbt_B1_day4,2022.2.4,MacIntel,50,,,,,,,,,,,,,,,,,,,,noodzaak,images/br_noodzaak.png,images/cb_noodzaak.png,,Noodzaak,,,,,,,,,,,0.664796634,-0.188639551,1,0,0,Noodzaak,0,56,56,56,1
,,,,,00065,2023-10-19_12h02.43.498,vbt_B1_day4,2022.2.4,MacIntel,50,,,,,,,,,,,,,,,,,,,,stemming,images/br_stemming.png,images/cb_stemming.png,,Stemming,,,,,,,,,,,0.726507714,-0.204067321,1,0,0,Stemming,0,57,57,18,1
,,,,,00065,2023-10-19_12h02.43.498,vbt_B1_day4,2022.2.4,MacIntel,50,,,,,,,,,,,,,,,,,,,,bisschap,images/br_bisschap.png,images/cb_bisschap.png,,Bisschap ,,,,,,,,,,,0.677419355,-0.181626928,1,0,0,Bisschap ,0,58,58,36,1
,,,,,00065,2023-10-19_12h02.43.498,vbt_B1_day4,2022.2.4,MacIntel,50,,,,,,,,,,,,,,,,,,,,opruimen,images/br_opruimen.png,images/cb_opruimen.png,,Opruimen,,,,,,,,,,,0.716690042,-0.16058906,1,0,0,Opruimen,0,59,59,59,1
,,,,,00065,2023-10-19_12h02.43.498,vbt_B1_day4,2022.2.4,MacIntel,50,,,,,,,,,,,,,,,,,,,,,,,,,,,,,,,,,,,,,,,,,,,,,
