welcome_mouse.x,welcome_mouse.y,welcome_mouse.leftButton,welcome_mouse.midButton,welcome_mouse.rightButton,"ID",date,expName,psychopyVersion,OS,frameRate,participant,trainInstr_mouse.x,trainInstr_mouse.y,trainInstr_mouse.leftButton,trainInstr_mouse.midButton,trainInstr_mouse.rightButton,translation_key.keys,translation_key.corr,translation_key.rt,word_rsp.text,trWrd_mouse.x,trWrd_mouse.y,trWrd_mouse.leftButton,trWrd_mouse.midButton,trWrd_mouse.rightButton,train_loop.thisRepN,train_loop.thisTrialN,train_loop.thisN,train_loop.thisIndex,train_loop.ran,nlWrd,brWrd,cbWrd,test,testResp,mouse.x,mouse.y,mouse.leftButton,mouse.midButton,mouse.rightButton,testInstr_mouse.x,testInstr_mouse.y,testInstr_mouse.leftButton,testInstr_mouse.midButton,testInstr_mouse.rightButton,test_mouse.x,test_mouse.y,test_mouse.leftButton,test_mouse.midButton,test_mouse.rightButton,test_response.text,test_loop.thisRepN,test_loop.thisTrialN,test_loop.thisN,test_loop.thisIndex,test_loop.ran
-0.165740755,-0.224074116,1,0,0,51175,2023-07-23_13h29.32.492,vbt_B1_day4,2022.2.4,Win32,59.52735282,51175,,,,,,,,,,,,,,,,,,,,,,,,,,,,,,,,,,,,,,,,,,,,,
,,,,,51175,2023-07-23_13h29.32.492,vbt_B1_day4,2022.2.4,Win32,59.52735282,51175,-0.165740755,-0.224074116,1,0,0,,,,,,,,,,,,,,,,,,,,,,,,,,,,,,,,,,,,,,,,
,,,,,51175,2023-07-23_13h29.32.492,vbt_B1_day4,2022.2.4,Win32,59.52735282,51175,,,,,,down,0,0.313,,-0.165740755,-0.224074116,1,0,0,0,0,0,191,1,opheffen,images/br_opheffen.png,images/cb_opheffen.png,0,,,,,,,,,,,,,,,,,,,,,,
,,,,,51175,2023-07-23_13h29.32.492,vbt_B1_day4,2022.2.4,Win32,59.52735282,51175,,,,,,down,0,0.9228,,-0.165740755,-0.224074116,1,0,0,0,1,1,29,1,baas,images/br_baas.png,images/cb_baas.png,0,,,,,,,,,,,,,,,,,,,,,,
,,,,,51175,2023-07-23_13h29.32.492,vbt_B1_day4,2022.2.4,Win32,59.52735282,51175,,,,,,down,0,3.2027,,-0.165740755,-0.224074116,1,0,0,0,2,2,64,1,wegen,images/br_wegen.png,images/cb_wegen.png,1,wegen,,,,,,,,,,,,,,,,,,,,,
,,,,,51175,2023-07-23_13h29.32.492,vbt_B1_day4,2022.2.4,Win32,59.52735282,51175,,,,,,down,0,2.0282,,-0.453703704,-0.35092594,1,0,0,0,3,3,119,1,liefje,images/br_liefje.png,images/cb_liefje.png,0,,,,,,,,,,,,,,,,,,,,,,
,,,,,51175,2023-07-23_13h29.32.492,vbt_B1_day4,2022.2.4,Win32,59.52735282,51175,,,,,,down,0,0.5902,,-0.453703704,-0.35092594,1,0,0,0,4,4,3,1,mand,images/br_mand.png,images/cb_mand.png,0,,,,,,,,,,,,,,,,,,,,,,
,,,,,51175,2023-07-23_13h29.32.492,vbt_B1_day4,2022.2.4,Win32,59.52735282,51175,,,,,,down,0,2.468,,-0.453703704,-0.35092594,1,0,0,0,5,5,94,1,oceaan,images/br_oceaan.png,images/cb_oceaan.png,0,,,,,,,,,,,,,,,,,,,,,,
,,,,,51175,2023-07-23_13h29.32.492,vbt_B1_day4,2022.2.4,Win32,59.52735282,51175,,,,,,down,0,10.3341,,-0.453703704,-0.35092594,1,0,0,0,6,6,66,1,lever,images/br_lever.png,images/cb_lever.png,1,lever,,,,,,,,,,,,,,,,,,,,,
,,,,,51175,2023-07-23_13h29.32.492,vbt_B1_day4,2022.2.4,Win32,59.52735282,51175,,,,,,down,0,2.8247,,-0.453703704,-0.35092594,1,0,0,0,7,7,45,1,piste,images/br_piste.png,images/cb_piste.png,0,,,,,,,,,,,,,,,,,,,,,,
,,,,,51175,2023-07-23_13h29.32.492,vbt_B1_day4,2022.2.4,Win32,59.52735282,51175,,,,,,down,0,2.6047,,-0.453703704,-0.35092594,1,0,0,0,8,8,47,1,kabel,images/br_kabel.png,images/cb_kabel.png,0,,,,,,,,,,,,,,,,,,,,,,
,,,,,51175,2023-07-23_13h29.32.492,vbt_B1_day4,2022.2.4,Win32,59.52735282,51175,,,,,,down,0,1.6504,,-0.453703704,-0.35092594,1,0,0,0,9,9,23,1,zout,images/br_zout.png,images/cb_zout.png,0,,,,,,,,,,,,,,,,,,,,,,
,,,,,51175,2023-07-23_13h29.32.492,vbt_B1_day4,2022.2.4,Win32,59.52735282,51175,,,,,,down,0,3.1266,,-0.453703704,-0.35092594,1,0,0,0,10,10,169,1,oprotten,images/br_oprotten.png,images/cb_oprotten.png,0,,,,,,,,,,,,,,,,,,,,,,
,,,,,51175,2023-07-23_13h29.32.492,vbt_B1_day4,2022.2.4,Win32,59.52735282,51175,,,,,,down,0,1.2219,,-0.453703704,-0.35092594,1,0,0,0,11,11,21,1,mist,images/br_mist.png,images/cb_mist.png,0,,,,,,,,,,,,,,,,,,,,,,
,,,,,51175,2023-07-23_13h29.32.492,vbt_B1_day4,2022.2.4,Win32,59.52735282,51175,,,,,,down,0,1.4206,,-0.453703704,-0.35092594,1,0,0,0,12,12,99,1,koffie,images/br_koffie.png,images/cb_koffie.png,0,,,,,,,,,,,,,,,,,,,,,,
,,,,,51175,2023-07-23_13h29.32.492,vbt_B1_day4,2022.2.4,Win32,59.52735282,51175,,,,,,down,0,1.8693,,-0.453703704,-0.35092594,1,0,0,0,13,13,182,1,bijkomen,images/br_bijkomen.png,images/cb_bijkomen.png,0,,,,,,,,,,,,,,,,,,,,,,
,,,,,51175,2023-07-23_13h29.32.492,vbt_B1_day4,2022.2.4,Win32,59.52735282,51175,,,,,,down,0,2.4517,,-0.453703704,-0.35092594,1,0,0,0,14,14,128,1,prikken,images/br_prikken.png,images/cb_prikken.png,0,,,,,,,,,,,,,,,,,,,,,,
,,,,,51175,2023-07-23_13h29.32.492,vbt_B1_day4,2022.2.4,Win32,59.52735282,51175,,,,,,down,0,6.3322,,-0.453703704,-0.35092594,1,0,0,0,15,15,26,1,leuk,images/br_leuk.png,images/cb_leuk.png,1,leuk,,,,,,,,,,,,,,,,,,,,,
,,,,,51175,2023-07-23_13h29.32.492,vbt_B1_day4,2022.2.4,Win32,59.52735282,51175,,,,,,down,0,2.0197,,-0.453703704,-0.35092594,1,0,0,0,16,16,121,1,twijfel,images/br_twijfel.png,images/cb_twijfel.png,0,,,,,,,,,,,,,,,,,,,,,,
,,,,,51175,2023-07-23_13h29.32.492,vbt_B1_day4,2022.2.4,Win32,59.52735282,51175,,,,,,down,0,6.1156,,-0.453703704,-0.35092594,1,0,0,0,17,17,176,1,techniek,images/br_techniek.png,images/cb_techniek.png,0,,,,,,,,,,,,,,,,,,,,,,
,,,,,51175,2023-07-23_13h29.32.492,vbt_B1_day4,2022.2.4,Win32,59.52735282,51175,,,,,,down,0,3.1931,,-0.453703704,-0.35092594,1,0,0,0,18,18,5,1,blad,images/br_blad.png,images/cb_blad.png,0,,,,,,,,,,,,,,,,,,,,,,
,,,,,51175,2023-07-23_13h29.32.492,vbt_B1_day4,2022.2.4,Win32,59.52735282,51175,,,,,,down,0,1.018,,-0.453703704,-0.35092594,1,0,0,0,19,19,22,1,stof,images/br_stof.png,images/cb_stof.png,0,,,,,,,,,,,,,,,,,,,,,,
,,,,,51175,2023-07-23_13h29.32.492,vbt_B1_day4,2022.2.4,Win32,59.52735282,51175,,,,,,down,0,3.8357,,-0.453703704,-0.35092594,1,0,0,0,20,20,98,1,kreeft,images/br_kreeft.png,images/cb_kreeft.png,0,,,,,,,,,,,,,,,,,,,,,,
,,,,,51175,2023-07-23_13h29.32.492,vbt_B1_day4,2022.2.4,Win32,59.52735282,51175,,,,,,down,0,1.6014,,-0.453703704,-0.35092594,1,0,0,0,21,21,6,1,diep,images/br_diep.png,images/cb_diep.png,0,,,,,,,,,,,,,,,,,,,,,,
,,,,,51175,2023-07-23_13h29.32.492,vbt_B1_day4,2022.2.4,Win32,59.52735282,51175,,,,,,down,0,5.8809,,-0.453703704,-0.35092594,1,0,0,0,22,22,16,1,ziek,images/br_ziek.png,images/cb_ziek.png,0,,,,,,,,,,,,,,,,,,,,,,
,,,,,51175,2023-07-23_13h29.32.492,vbt_B1_day4,2022.2.4,Win32,59.52735282,51175,,,,,,down,0,1.1874,,-0.453703704,-0.35092594,1,0,0,0,23,23,102,1,legaal,images/br_legaal.png,images/cb_legaal.png,0,,,,,,,,,,,,,,,,,,,,,,
,,,,,51175,2023-07-23_13h29.32.492,vbt_B1_day4,2022.2.4,Win32,59.52735282,51175,,,,,,down,0,15.0547,,-0.457407386,-0.35092594,1,0,0,0,24,24,171,1,aarzelen,images/br_aarzelen.png,images/cb_aarzelen.png,0,,,,,,,,,,,,,,,,,,,,,,
,,,,,51175,2023-07-23_13h29.32.492,vbt_B1_day4,2022.2.4,Win32,59.52735282,51175,,,,,,down,0,3.9859,,-0.457407386,-0.35092594,1,0,0,0,25,25,10,1,leek,images/br_leek.png,images/cb_leek.png,0,,,,,,,,,,,,,,,,,,,,,,
,,,,,51175,2023-07-23_13h29.32.492,vbt_B1_day4,2022.2.4,Win32,59.52735282,51175,,,,,,down,0,2.8377,,-0.457407386,-0.35092594,1,0,0,0,26,26,108,1,excuus,images/br_excuus.png,images/cb_excuus.png,0,,,,,,,,,,,,,,,,,,,,,,
,,,,,51175,2023-07-23_13h29.32.492,vbt_B1_day4,2022.2.4,Win32,59.52735282,51175,,,,,,down,0,1.3706,,-0.457407386,-0.35092594,1,0,0,0,27,27,197,1,spanning,images/br_spanning.png,images/cb_spanning.png,0,,,,,,,,,,,,,,,,,,,,,,
,,,,,51175,2023-07-23_13h29.32.492,vbt_B1_day4,2022.2.4,Win32,59.52735282,51175,,,,,,down,0,6.8309,,-0.457407386,-0.35092594,1,0,0,0,28,28,195,1,middelen,images/br_middelen.png,images/cb_middelen.png,0,,,,,,,,,,,,,,,,,,,,,,
,,,,,51175,2023-07-23_13h29.32.492,vbt_B1_day4,2022.2.4,Win32,59.52735282,51175,,,,,,down,0,2.094,,-0.457407386,-0.35092594,1,0,0,0,29,29,24,1,jurk,images/br_jurk.png,images/cb_jurk.png,1,jurk,,,,,,,,,,,,,,,,,,,,,
,,,,,51175,2023-07-23_13h29.32.492,vbt_B1_day4,2022.2.4,Win32,59.52735282,51175,,,,,,down,0,3.389,,-0.457407386,-0.35092594,1,0,0,0,30,30,150,1,gegeven,images/br_gegeven.png,images/cb_gegeven.png,0,,,,,,,,,,,,,,,,,,,,,,
,,,,,51175,2023-07-23_13h29.32.492,vbt_B1_day4,2022.2.4,Win32,59.52735282,51175,,,,,,down,0,1.7017,,-0.457407386,-0.35092594,1,0,0,0,31,31,70,1,ijdel,images/br_ijdel.png,images/cb_ijdel.png,0,,,,,,,,,,,,,,,,,,,,,,
,,,,,51175,2023-07-23_13h29.32.492,vbt_B1_day4,2022.2.4,Win32,59.52735282,51175,,,,,,down,0,2.451,,-0.457407386,-0.35092594,1,0,0,0,32,32,56,1,traag,images/br_traag.png,images/cb_traag.png,0,,,,,,,,,,,,,,,,,,,,,,
,,,,,51175,2023-07-23_13h29.32.492,vbt_B1_day4,2022.2.4,Win32,59.52735282,51175,,,,,,down,0,16.3193,,-0.457407386,-0.35092594,1,0,0,0,33,33,147,1,komisch,images/br_komisch.png,images/cb_komisch.png,1,komisch,,,,,,,,,,,,,,,,,,,,,
,,,,,51175,2023-07-23_13h29.32.492,vbt_B1_day4,2022.2.4,Win32,59.52735282,51175,,,,,,down,0,5.6853,,-0.457407386,-0.35092594,1,0,0,0,34,34,81,1,dubbel,images/br_dubbel.png,images/cb_dubbel.png,0,,,,,,,,,,,,,,,,,,,,,,
,,,,,51175,2023-07-23_13h29.32.492,vbt_B1_day4,2022.2.4,Win32,59.52735282,51175,,,,,,down,0,0.7709,,-0.457407386,-0.35092594,1,0,0,0,35,35,133,1,seizoen,images/br_seizoen.png,images/cb_seizoen.png,0,,,,,,,,,,,,,,,,,,,,,,
,,,,,51175,2023-07-23_13h29.32.492,vbt_B1_day4,2022.2.4,Win32,59.52735282,51175,,,,,,down,0,1.5017,,-0.457407386,-0.35092594,1,0,0,0,36,36,63,1,flirt,images/br_flirt.png,images/cb_flirt.png,0,,,,,,,,,,,,,,,,,,,,,,
,,,,,51175,2023-07-23_13h29.32.492,vbt_B1_day4,2022.2.4,Win32,59.52735282,51175,,,,,,down,0,2.8189,,-0.457407386,-0.35092594,1,0,0,0,37,37,79,1,nodig,images/br_nodig.png,images/cb_nodig.png,0,,,,,,,,,,,,,,,,,,,,,,
,,,,,51175,2023-07-23_13h29.32.492,vbt_B1_day4,2022.2.4,Win32,59.52735282,51175,,,,,,down,0,2.7683,,-0.457407386,-0.35092594,1,0,0,0,38,38,4,1,moes,images/br_moes.png,images/cb_moes.png,0,,,,,,,,,,,,,,,,,,,,,,
,,,,,51175,2023-07-23_13h29.32.492,vbt_B1_day4,2022.2.4,Win32,59.52735282,51175,,,,,,down,0,1.0848,,-0.457407386,-0.35092594,1,0,0,0,39,39,39,1,laag,images/br_laag.png,images/cb_laag.png,0,,,,,,,,,,,,,,,,,,,,,,
,,,,,51175,2023-07-23_13h29.32.492,vbt_B1_day4,2022.2.4,Win32,59.52735282,51175,,,,,,down,0,5.1712,,-0.457407386,-0.35092594,1,0,0,0,40,40,184,1,aandelen,images/br_aandelen.png,images/cb_aandelen.png,1,aandelen,,,,,,,,,,,,,,,,,,,,,
,,,,,51175,2023-07-23_13h29.32.492,vbt_B1_day4,2022.2.4,Win32,59.52735282,51175,,,,,,down,0,4.7664,,-0.457407386,-0.35092594,1,0,0,0,41,41,67,1,zwart,images/br_zwart.png,images/cb_zwart.png,1,zwart,,,,,,,,,,,,,,,,,,,,,
,,,,,51175,2023-07-23_13h29.32.492,vbt_B1_day4,2022.2.4,Win32,59.52735282,51175,,,,,,down,0,1.6518,,-0.457407386,-0.35092594,1,0,0,0,42,42,52,1,wagon,images/br_wagon.png,images/cb_wagon.png,0,,,,,,,,,,,,,,,,,,,,,,
,,,,,51175,2023-07-23_13h29.32.492,vbt_B1_day4,2022.2.4,Win32,59.52735282,51175,,,,,,down,0,2.7508,,-0.457407386,-0.35092594,1,0,0,0,43,43,37,1,mijn,images/br_mijn.png,images/cb_mijn.png,0,,,,,,,,,,,,,,,,,,,,,,
,,,,,51175,2023-07-23_13h29.32.492,vbt_B1_day4,2022.2.4,Win32,59.52735282,51175,,,,,,down,0,4.2999,,-0.457407386,-0.35092594,1,0,0,0,44,44,91,1,gezond,images/br_gezond.png,images/cb_gezond.png,0,,,,,,,,,,,,,,,,,,,,,,
,,,,,51175,2023-07-23_13h29.32.492,vbt_B1_day4,2022.2.4,Win32,59.52735282,51175,,,,,,down,0,1.3847,,-0.457407386,-0.35092594,1,0,0,0,45,45,62,1,knaap,images/br_knaap.png,images/cb_knaap.png,0,,,,,,,,,,,,,,,,,,,,,,
,,,,,51175,2023-07-23_13h29.32.492,vbt_B1_day4,2022.2.4,Win32,59.52735282,51175,,,,,,down,0,2.8183,,-0.457407386,-0.35092594,1,0,0,0,46,46,143,1,hechten,images/br_hechten.png,images/cb_hechten.png,0,,,,,,,,,,,,,,,,,,,,,,
,,,,,51175,2023-07-23_13h29.32.492,vbt_B1_day4,2022.2.4,Win32,59.52735282,51175,,,,,,down,0,5.603,,-0.457407386,-0.35092594,1,0,0,0,47,47,170,1,schatten,images/br_schatten.png,images/cb_schatten.png,0,,,,,,,,,,,,,,,,,,,,,,
,,,,,51175,2023-07-23_13h29.32.492,vbt_B1_day4,2022.2.4,Win32,59.52735282,51175,,,,,,down,0,3.3349,,-0.457407386,-0.35092594,1,0,0,0,48,48,156,1,rechten,images/br_rechten.png,images/cb_rechten.png,0,,,,,,,,,,,,,,,,,,,,,,
,,,,,51175,2023-07-23_13h29.32.492,vbt_B1_day4,2022.2.4,Win32,59.52735282,51175,,,,,,down,0,3.5934,,-0.457407386,-0.35092594,1,0,0,0,49,49,154,1,aflopen,images/br_aflopen.png,images/cb_aflopen.png,0,,,,,,,,,,,,,,,,,,,,,,
,,,,,51175,2023-07-23_13h29.32.492,vbt_B1_day4,2022.2.4,Win32,59.52735282,51175,,,,,,down,0,4.1885,,-0.457407386,-0.35092594,1,0,0,0,50,50,137,1,trekker,images/br_trekker.png,images/cb_trekker.png,0,,,,,,,,,,,,,,,,,,,,,,
,,,,,51175,2023-07-23_13h29.32.492,vbt_B1_day4,2022.2.4,Win32,59.52735282,51175,,,,,,down,0,2.4517,,-0.457407386,-0.35092594,1,0,0,0,51,51,87,1,toeval,images/br_toeval.png,images/cb_toeval.png,0,,,,,,,,,,,,,,,,,,,,,,
,,,,,51175,2023-07-23_13h29.32.492,vbt_B1_day4,2022.2.4,Win32,59.52735282,51175,,,,,,down,0,8.1508,,-0.457407386,-0.35092594,1,0,0,0,52,52,136,1,waarbij,images/br_waarbij.png,images/cb_waarbij.png,0,,,,,,,,,,,,,,,,,,,,,,
,,,,,51175,2023-07-23_13h29.32.492,vbt_B1_day4,2022.2.4,Win32,59.52735282,51175,,,,,,down,0,2.6038,,-0.457407386,-0.35092594,1,0,0,0,53,53,11,1,mode,images/br_mode.png,images/cb_mode.png,0,,,,,,,,,,,,,,,,,,,,,,
,,,,,51175,2023-07-23_13h29.32.492,vbt_B1_day4,2022.2.4,Win32,59.52735282,51175,,,,,,down,0,0.9516,,-0.457407386,-0.35092594,1,0,0,0,54,54,101,1,staren,images/br_staren.png,images/cb_staren.png,0,,,,,,,,,,,,,,,,,,,,,,
,,,,,51175,2023-07-23_13h29.32.492,vbt_B1_day4,2022.2.4,Win32,59.52735282,51175,,,,,,down,0,6.9682,,-0.457407386,-0.35092594,1,0,0,0,55,55,130,1,keihard,images/br_keihard.png,images/cb_keihard.png,0,,,,,,,,,,,,,,,,,,,,,,
,,,,,51175,2023-07-23_13h29.32.492,vbt_B1_day4,2022.2.4,Win32,59.52735282,51175,,,,,,down,0,8.9004,,-0.457407386,-0.35092594,1,0,0,0,56,56,125,1,aanzien,images/br_aanzien.png,images/cb_aanzien.png,0,,,,,,,,,,,,,,,,,,,,,,
,,,,,51175,2023-07-23_13h29.32.492,vbt_B1_day4,2022.2.4,Win32,59.52735282,51175,,,,,,down,0,4.1218,,-0.457407386,-0.35092594,1,0,0,0,57,57,122,1,waarvan,images/br_waarvan.png,images/cb_waarvan.png,0,,,,,,,,,,,,,,,,,,,,,,
,,,,,51175,2023-07-23_13h29.32.492,vbt_B1_day4,2022.2.4,Win32,59.52735282,51175,,,,,,down,0,7.1016,,-0.457407386,-0.35092594,1,0,0,0,58,58,188,1,strekken,images/br_strekken.png,images/cb_strekken.png,0,,,,,,,,,,,,,,,,,,,,,,
,,,,,51175,2023-07-23_13h29.32.492,vbt_B1_day4,2022.2.4,Win32,59.52735282,51175,,,,,,down,0,4.8637,,-0.457407386,-0.35092594,1,0,0,0,59,59,165,1,feestdag,images/br_feestdag.png,images/cb_feestdag.png,0,,,,,,,,,,,,,,,,,,,,,,
,,,,,51175,2023-07-23_13h29.32.492,vbt_B1_day4,2022.2.4,Win32,59.52735282,51175,,,,,,down,0,3.686,,-0.457407386,-0.35092594,1,0,0,0,60,60,109,1,totaal,images/br_totaal.png,images/cb_totaal.png,0,,,,,,,,,,,,,,,,,,,,,,
,,,,,51175,2023-07-23_13h29.32.492,vbt_B1_day4,2022.2.4,Win32,59.52735282,51175,,,,,,down,0,3.5179,,-0.457407386,-0.35092594,1,0,0,0,61,61,193,1,weeshuis,images/br_weeshuis.png,images/cb_weeshuis.png,0,,,,,,,,,,,,,,,,,,,,,,
,,,,,51175,2023-07-23_13h29.32.492,vbt_B1_day4,2022.2.4,Win32,59.52735282,51175,,,,,,down,0,3.7341,,-0.457407386,-0.35092594,1,0,0,0,62,62,120,1,klimmen,images/br_klimmen.png,images/cb_klimmen.png,0,,,,,,,,,,,,,,,,,,,,,,
,,,,,51175,2023-07-23_13h29.32.492,vbt_B1_day4,2022.2.4,Win32,59.52735282,51175,,,,,,down,0,4.9037,,-0.457407386,-0.35092594,1,0,0,0,63,63,173,1,apparaat,images/br_apparaat.png,images/cb_apparaat.png,0,,,,,,,,,,,,,,,,,,,,,,
,,,,,51175,2023-07-23_13h29.32.492,vbt_B1_day4,2022.2.4,Win32,59.52735282,51175,,,,,,down,0,2.8132,,-0.457407386,-0.35092594,1,0,0,0,64,64,50,1,stoom,images/br_stoom.png,images/cb_stoom.png,0,,,,,,,,,,,,,,,,,,,,,,
,,,,,51175,2023-07-23_13h29.32.492,vbt_B1_day4,2022.2.4,Win32,59.52735282,51175,,,,,,down,0,7.1027,,-0.457407386,-0.35092594,1,0,0,0,65,65,117,1,kennis,images/br_kennis.png,images/cb_kennis.png,0,,,,,,,,,,,,,,,,,,,,,,
,,,,,51175,2023-07-23_13h29.32.492,vbt_B1_day4,2022.2.4,Win32,59.52735282,51175,,,,,,down,0,5.7657,,-0.457407386,-0.35092594,1,0,0,0,66,66,89,1,slapen,images/br_slapen.png,images/cb_slapen.png,0,,,,,,,,,,,,,,,,,,,,,,
,,,,,51175,2023-07-23_13h29.32.492,vbt_B1_day4,2022.2.4,Win32,59.52735282,51175,,,,,,down,0,4.1849,,-0.457407386,-0.35092594,1,0,0,0,67,67,2,1,jaar,images/br_jaar.png,images/cb_jaar.png,0,,,,,,,,,,,,,,,,,,,,,,
,,,,,51175,2023-07-23_13h29.32.492,vbt_B1_day4,2022.2.4,Win32,59.52735282,51175,,,,,,down,0,0.1357,,-0.457407386,-0.35092594,1,0,0,0,68,68,17,1,taal,images/br_taal.png,images/cb_taal.png,0,,,,,,,,,,,,,,,,,,,,,,
,,,,,51175,2023-07-23_13h29.32.492,vbt_B1_day4,2022.2.4,Win32,59.52735282,51175,,,,,,down,0,8.1511,,-0.457407386,-0.35092594,1,0,0,0,69,69,185,1,mijnheer,images/br_mijnheer.png,images/cb_mijnheer.png,1,mijnheer,,,,,,,,,,,,,,,,,,,,,
,,,,,51175,2023-07-23_13h29.32.492,vbt_B1_day4,2022.2.4,Win32,59.52735282,51175,,,,,,down,0,0.697,,-0.457407386,-0.35092594,1,0,0,0,70,70,97,1,loyaal,images/br_loyaal.png,images/cb_loyaal.png,0,,,,,,,,,,,,,,,,,,,,,,
,,,,,51175,2023-07-23_13h29.32.492,vbt_B1_day4,2022.2.4,Win32,59.52735282,51175,,,,,,down,0,6.1353,,-0.457407386,-0.35092594,1,0,0,0,71,71,124,1,bloeien,images/br_bloeien.png,images/cb_bloeien.png,0,,,,,,,,,,,,,,,,,,,,,,
,,,,,51175,2023-07-23_13h29.32.492,vbt_B1_day4,2022.2.4,Win32,59.52735282,51175,,,,,,down,0,4.3669,,-0.457407386,-0.35092594,1,0,0,0,72,72,82,1,muziek,images/br_muziek.png,images/cb_muziek.png,0,,,,,,,,,,,,,,,,,,,,,,
,,,,,51175,2023-07-23_13h29.32.492,vbt_B1_day4,2022.2.4,Win32,59.52735282,51175,,,,,,down,0,2.8184,,-0.457407386,-0.35092594,1,0,0,0,73,73,28,1,stal,images/br_stal.png,images/cb_stal.png,0,,,,,,,,,,,,,,,,,,,,,,
,,,,,51175,2023-07-23_13h29.32.492,vbt_B1_day4,2022.2.4,Win32,59.52735282,51175,,,,,,down,0,2.8517,,-0.457407386,-0.35092594,1,0,0,0,74,74,86,1,woning,images/br_woning.png,images/cb_woning.png,0,,,,,,,,,,,,,,,,,,,,,,
,,,,,51175,2023-07-23_13h29.32.492,vbt_B1_day4,2022.2.4,Win32,59.52735282,51175,,,,,,down,0,2.9183,,-0.457407386,-0.35092594,1,0,0,0,75,75,46,1,jagen,images/br_jagen.png,images/cb_jagen.png,0,,,,,,,,,,,,,,,,,,,,,,
,,,,,51175,2023-07-23_13h29.32.492,vbt_B1_day4,2022.2.4,Win32,59.52735282,51175,,,,,,down,0,5.0001,,-0.457407386,-0.35092594,1,0,0,0,76,76,140,1,blijven,images/br_blijven.png,images/cb_blijven.png,0,,,,,,,,,,,,,,,,,,,,,,
,,,,,51175,2023-07-23_13h29.32.492,vbt_B1_day4,2022.2.4,Win32,59.52735282,51175,,,,,,down,0,5.6187,,-0.457407386,-0.35092594,1,0,0,0,77,77,198,1,bedoelen,images/br_bedoelen.png,images/cb_bedoelen.png,0,,,,,,,,,,,,,,,,,,,,,,
,,,,,51175,2023-07-23_13h29.32.492,vbt_B1_day4,2022.2.4,Win32,59.52735282,51175,,,,,,down,0,4.4181,,-0.457407386,-0.35092594,1,0,0,0,78,78,192,1,schaamte,images/br_schaamte.png,images/cb_schaamte.png,0,,,,,,,,,,,,,,,,,,,,,,
,,,,,51175,2023-07-23_13h29.32.492,vbt_B1_day4,2022.2.4,Win32,59.52735282,51175,,,,,,down,0,5.2693,,-0.457407386,-0.35092594,1,0,0,0,79,79,163,1,schuilen,images/br_schuilen.png,images/cb_schuilen.png,0,,,,,,,,,,,,,,,,,,,,,,
,,,,,51175,2023-07-23_13h29.32.492,vbt_B1_day4,2022.2.4,Win32,59.52735282,51175,,,,,,down,0,1.4042,,-0.457407386,-0.35092594,1,0,0,0,80,80,25,1,plek,images/br_plek.png,images/cb_plek.png,1,plek,,,,,,,,,,,,,,,,,,,,,
,,,,,51175,2023-07-23_13h29.32.492,vbt_B1_day4,2022.2.4,Win32,59.52735282,51175,,,,,,down,0,0.1721,,-0.457407386,-0.35092594,1,0,0,0,81,81,14,1,rijp,images/br_rijp.png,images/cb_rijp.png,0,,,,,,,,,,,,,,,,,,,,,,
,,,,,51175,2023-07-23_13h29.32.492,vbt_B1_day4,2022.2.4,Win32,59.52735282,51175,,,,,,down,0,3.5354,,-0.457407386,-0.35092594,1,0,0,0,82,82,27,1,dans,images/br_dans.png,images/cb_dans.png,1,dans,,,,,,,,,,,,,,,,,,,,,
,,,,,51175,2023-07-23_13h29.32.492,vbt_B1_day4,2022.2.4,Win32,59.52735282,51175,,,,,,down,0,2.6792,,-0.457407386,-0.35092594,1,0,0,0,83,83,60,1,jasje,images/br_jasje.png,images/cb_jasje.png,0,,,,,,,,,,,,,,,,,,,,,,
,,,,,51175,2023-07-23_13h29.32.492,vbt_B1_day4,2022.2.4,Win32,59.52735282,51175,,,,,,down,0,1.8199,,-0.457407386,-0.35092594,1,0,0,0,84,84,68,1,schat,images/br_schat.png,images/cb_schat.png,0,,,,,,,,,,,,,,,,,,,,,,
,,,,,51175,2023-07-23_13h29.32.492,vbt_B1_day4,2022.2.4,Win32,59.52735282,51175,,,,,,down,0,3.3502,,-0.457407386,-0.35092594,1,0,0,0,85,85,183,1,getuigen,images/br_getuigen.png,images/cb_getuigen.png,0,,,,,,,,,,,,,,,,,,,,,,
,,,,,51175,2023-07-23_13h29.32.492,vbt_B1_day4,2022.2.4,Win32,59.52735282,51175,,,,,,down,0,8.0484,,-0.457407386,-0.35092594,1,0,0,0,86,86,189,1,aanraden,images/br_aanraden.png,images/cb_aanraden.png,0,,,,,,,,,,,,,,,,,,,,,,
,,,,,51175,2023-07-23_13h29.32.492,vbt_B1_day4,2022.2.4,Win32,59.52735282,51175,,,,,,down,0,3.3926,,-0.457407386,-0.35092594,1,0,0,0,87,87,131,1,opzicht,images/br_opzicht.png,images/cb_opzicht.png,0,,,,,,,,,,,,,,,,,,,,,,
,,,,,51175,2023-07-23_13h29.32.492,vbt_B1_day4,2022.2.4,Win32,59.52735282,51175,,,,,,down,0,6.084,,-0.457407386,-0.35092594,1,0,0,0,88,88,161,1,attentie,images/br_attentie.png,images/cb_attentie.png,0,,,,,,,,,,,,,,,,,,,,,,
,,,,,51175,2023-07-23_13h29.32.492,vbt_B1_day4,2022.2.4,Win32,59.52735282,51175,,,,,,down,0,0.452,,-0.457407386,-0.35092594,1,0,0,0,89,89,48,1,steel,images/br_steel.png,images/cb_steel.png,0,,,,,,,,,,,,,,,,,,,,,,
,,,,,51175,2023-07-23_13h29.32.492,vbt_B1_day4,2022.2.4,Win32,59.52735282,51175,,,,,,down,0,5.0521,,-0.457407386,-0.35092594,1,0,0,0,90,90,190,1,goedkoop,images/br_goedkoop.png,images/cb_goedkoop.png,0,,,,,,,,,,,,,,,,,,,,,,
,,,,,51175,2023-07-23_13h29.32.492,vbt_B1_day4,2022.2.4,Win32,59.52735282,51175,,,,,,down,0,3.5341,,-0.457407386,-0.35092594,1,0,0,0,91,91,166,1,strikken,images/br_strikken.png,images/cb_strikken.png,0,,,,,,,,,,,,,,,,,,,,,,
,,,,,51175,2023-07-23_13h29.32.492,vbt_B1_day4,2022.2.4,Win32,59.52735282,51175,,,,,,down,0,5.7017,,-0.457407386,-0.35092594,1,0,0,0,92,92,199,1,beseffen,images/br_beseffen.png,images/cb_beseffen.png,0,,,,,,,,,,,,,,,,,,,,,,
,,,,,51175,2023-07-23_13h29.32.492,vbt_B1_day4,2022.2.4,Win32,59.52735282,51175,,,,,,down,0,6.273,,-0.457407386,-0.35092594,1,0,0,0,93,93,159,1,sufferd,images/br_sufferd.png,images/cb_sufferd.png,0,,,,,,,,,,,,,,,,,,,,,,
,,,,,51175,2023-07-23_13h29.32.492,vbt_B1_day4,2022.2.4,Win32,59.52735282,51175,,,,,,down,0,2.8073,,-0.457407386,-0.35092594,1,0,0,0,94,94,141,1,knielen,images/br_knielen.png,images/cb_knielen.png,0,,,,,,,,,,,,,,,,,,,,,,
,,,,,51175,2023-07-23_13h29.32.492,vbt_B1_day4,2022.2.4,Win32,59.52735282,51175,,,,,,down,0,4.2172,,-0.457407386,-0.35092594,1,0,0,0,95,95,164,1,anarchie,images/br_anarchie.png,images/cb_anarchie.png,0,,,,,,,,,,,,,,,,,,,,,,
,,,,,51175,2023-07-23_13h29.32.492,vbt_B1_day4,2022.2.4,Win32,59.52735282,51175,,,,,,down,0,6.0894,,-0.457407386,-0.35092594,1,0,0,0,96,96,32,1,palm,images/br_palm.png,images/cb_palm.png,0,,,,,,,,,,,,,,,,,,,,,,
,,,,,51175,2023-07-23_13h29.32.492,vbt_B1_day4,2022.2.4,Win32,59.52735282,51175,,,,,,down,0,7.2219,,-0.457407386,-0.35092594,1,0,0,0,97,97,93,1,waarop,images/br_waarop.png,images/cb_waarop.png,0,,,,,,,,,,,,,,,,,,,,,,
,,,,,51175,2023-07-23_13h29.32.492,vbt_B1_day4,2022.2.4,Win32,59.52735282,51175,,,,,,down,0,2.5358,,-0.457407386,-0.35092594,1,0,0,0,98,98,129,1,verhaal,images/br_verhaal.png,images/cb_verhaal.png,0,,,,,,,,,,,,,,,,,,,,,,
,,,,,51175,2023-07-23_13h29.32.492,vbt_B1_day4,2022.2.4,Win32,59.52735282,51175,,,,,,down,0,0.3363,,-0.457407386,-0.35092594,1,0,0,0,99,99,78,1,leren,images/br_leren.png,images/cb_leren.png,0,,,,,,,,,,,,,,,,,,,,,,
,,,,,51175,2023-07-23_13h29.32.492,vbt_B1_day4,2022.2.4,Win32,59.52735282,51175,,,,,,down,0,8.2165,,-0.457407386,-0.35092594,1,0,0,0,100,100,115,1,kleren,images/br_kleren.png,images/cb_kleren.png,0,,,,,,,,,,,,,,,,,,,,,,
,,,,,51175,2023-07-23_13h29.32.492,vbt_B1_day4,2022.2.4,Win32,59.52735282,51175,,,,,,down,0,2.5689,,-0.457407386,-0.35092594,1,0,0,0,101,101,148,1,smullen,images/br_smullen.png,images/cb_smullen.png,0,,,,,,,,,,,,,,,,,,,,,,
,,,,,51175,2023-07-23_13h29.32.492,vbt_B1_day4,2022.2.4,Win32,59.52735282,51175,,,,,,down,0,5.2393,,-0.457407386,-0.35092594,1,0,0,0,102,102,116,1,besmet,images/br_besmet.png,images/cb_besmet.png,0,,,,,,,,,,,,,,,,,,,,,,
,,,,,51175,2023-07-23_13h29.32.492,vbt_B1_day4,2022.2.4,Win32,59.52735282,51175,,,,,,down,0,2.6505,,-0.457407386,-0.35092594,1,0,0,0,103,103,73,1,volop,images/br_volop.png,images/cb_volop.png,0,,,,,,,,,,,,,,,,,,,,,,
,,,,,51175,2023-07-23_13h29.32.492,vbt_B1_day4,2022.2.4,Win32,59.52735282,51175,,,,,,down,0,0.0015,,-0.457407386,-0.35092594,1,0,0,0,104,104,41,1,maken,images/br_maken.png,images/cb_maken.png,0,,,,,,,,,,,,,,,,,,,,,,
,,,,,51175,2023-07-23_13h29.32.492,vbt_B1_day4,2022.2.4,Win32,59.52735282,51175,,,,,,down,0,3.3011,,-0.457407386,-0.35092594,1,0,0,0,105,105,105,1,wijlen,images/br_wijlen.png,images/cb_wijlen.png,1,wijlen,,,,,,,,,,,,,,,,,,,,,
,,,,,51175,2023-07-23_13h29.32.492,vbt_B1_day4,2022.2.4,Win32,59.52735282,51175,,,,,,down,0,2.2765,,-0.457407386,-0.35092594,1,0,0,0,106,106,123,1,hiervan,images/br_hiervan.png,images/cb_hiervan.png,0,,,,,,,,,,,,,,,,,,,,,,
,,,,,51175,2023-07-23_13h29.32.492,vbt_B1_day4,2022.2.4,Win32,59.52735282,51175,,,,,,down,0,2.2364,,-0.457407386,-0.35092594,1,0,0,0,107,107,90,1,geluid,images/br_geluid.png,images/cb_geluid.png,0,,,,,,,,,,,,,,,,,,,,,,
,,,,,51175,2023-07-23_13h29.32.492,vbt_B1_day4,2022.2.4,Win32,59.52735282,51175,,,,,,down,0,2.5064,,-0.457407386,-0.35092594,1,0,0,0,108,108,12,1,kust,images/br_kust.png,images/cb_kust.png,0,,,,,,,,,,,,,,,,,,,,,,
,,,,,51175,2023-07-23_13h29.32.492,vbt_B1_day4,2022.2.4,Win32,59.52735282,51175,,,,,,down,0,1.7512,,-0.457407386,-0.35092594,1,0,0,0,109,109,135,1,gedicht,images/br_gedicht.png,images/cb_gedicht.png,0,,,,,,,,,,,,,,,,,,,,,,
,,,,,51175,2023-07-23_13h29.32.492,vbt_B1_day4,2022.2.4,Win32,59.52735282,51175,,,,,,down,0,3.6254,,-0.457407386,-0.35092594,1,0,0,0,110,110,167,1,eenhoorn,images/br_eenhoorn.png,images/cb_eenhoorn.png,0,,,,,,,,,,,,,,,,,,,,,,
,,,,,51175,2023-07-23_13h29.32.492,vbt_B1_day4,2022.2.4,Win32,59.52735282,51175,,,,,,down,0,0.4025,,-0.457407386,-0.35092594,1,0,0,0,111,111,44,1,flits,images/br_flits.png,images/cb_flits.png,0,,,,,,,,,,,,,,,,,,,,,,
,,,,,51175,2023-07-23_13h29.32.492,vbt_B1_day4,2022.2.4,Win32,59.52735282,51175,,,,,,down,0,0.6018,,-0.457407386,-0.35092594,1,0,0,0,112,112,34,1,vorm,images/br_vorm.png,images/cb_vorm.png,0,,,,,,,,,,,,,,,,,,,,,,
,,,,,51175,2023-07-23_13h29.32.492,vbt_B1_day4,2022.2.4,Win32,59.52735282,51175,,,,,,down,0,0.5026,,-0.457407386,-0.35092594,1,0,0,0,113,113,51,1,samen,images/br_samen.png,images/cb_samen.png,0,,,,,,,,,,,,,,,,,,,,,,
,,,,,51175,2023-07-23_13h29.32.492,vbt_B1_day4,2022.2.4,Win32,59.52735282,51175,,,,,,down,0,2.7911,,-0.457407386,-0.35092594,1,0,0,0,114,114,181,1,toegeven,images/br_toegeven.png,images/cb_toegeven.png,0,,,,,,,,,,,,,,,,,,,,,,
,,,,,51175,2023-07-23_13h29.32.492,vbt_B1_day4,2022.2.4,Win32,59.52735282,51175,,,,,,down,0,2.5674,,-0.457407386,-0.35092594,1,0,0,0,115,115,77,1,woede,images/br_woede.png,images/cb_woede.png,0,,,,,,,,,,,,,,,,,,,,,,
,,,,,51175,2023-07-23_13h29.32.492,vbt_B1_day4,2022.2.4,Win32,59.52735282,51175,,,,,,down,0,2.1859,,-0.457407386,-0.35092594,1,0,0,0,116,116,55,1,praat,images/br_praat.png,images/cb_praat.png,0,,,,,,,,,,,,,,,,,,,,,,
,,,,,51175,2023-07-23_13h29.32.492,vbt_B1_day4,2022.2.4,Win32,59.52735282,51175,,,,,,down,0,4.2354,,-0.457407386,-0.35092594,1,0,0,0,117,117,149,1,redding,images/br_redding.png,images/cb_redding.png,0,,,,,,,,,,,,,,,,,,,,,,
,,,,,51175,2023-07-23_13h29.32.492,vbt_B1_day4,2022.2.4,Win32,59.52735282,51175,,,,,,down,0,1.6848,,-0.457407386,-0.35092594,1,0,0,0,118,118,103,1,joggen,images/br_joggen.png,images/cb_joggen.png,0,,,,,,,,,,,,,,,,,,,,,,
,,,,,51175,2023-07-23_13h29.32.492,vbt_B1_day4,2022.2.4,Win32,59.52735282,51175,,,,,,down,0,1.8682,,-0.457407386,-0.35092594,1,0,0,0,119,119,132,1,grappen,images/br_grappen.png,images/cb_grappen.png,0,,,,,,,,,,,,,,,,,,,,,,
,,,,,51175,2023-07-23_13h29.32.492,vbt_B1_day4,2022.2.4,Win32,59.52735282,51175,,,,,,down,0,0.2556,,-0.457407386,-0.35092594,1,0,0,0,120,120,30,1,uien,images/br_uien.png,images/cb_uien.png,0,,,,,,,,,,,,,,,,,,,,,,
,,,,,51175,2023-07-23_13h29.32.492,vbt_B1_day4,2022.2.4,Win32,59.52735282,51175,,,,,,down,0,0.5345,,-0.457407386,-0.35092594,1,0,0,0,121,121,38,1,baai,images/br_baai.png,images/cb_baai.png,0,,,,,,,,,,,,,,,,,,,,,,
,,,,,51175,2023-07-23_13h29.32.492,vbt_B1_day4,2022.2.4,Win32,59.52735282,51175,,,,,,down,0,7.8683,,-0.457407386,-0.35092594,1,0,0,0,122,122,145,1,invloed,images/br_invloed.png,images/cb_invloed.png,1,invloed,,,,,,,,,,,,,,,,,,,,,
,,,,,51175,2023-07-23_13h29.32.492,vbt_B1_day4,2022.2.4,Win32,59.52735282,51175,,,,,,down,0,3.3198,,-0.457407386,-0.35092594,1,0,0,0,123,123,179,1,woestijn,images/br_woestijn.png,images/cb_woestijn.png,0,,,,,,,,,,,,,,,,,,,,,,
,,,,,51175,2023-07-23_13h29.32.492,vbt_B1_day4,2022.2.4,Win32,59.52735282,51175,,,,,,down,0,4.4845,,-0.457407386,-0.35092594,1,0,0,0,124,124,186,1,voorraad,images/br_voorraad.png,images/cb_voorraad.png,1,voorraad,,,,,,,,,,,,,,,,,,,,,
,,,,,51175,2023-07-23_13h29.32.492,vbt_B1_day4,2022.2.4,Win32,59.52735282,51175,,,,,,down,0,7.7357,,-0.457407386,-0.35092594,1,0,0,0,125,125,18,1,blik,images/br_blik.png,images/cb_blik.png,0,,,,,,,,,,,,,,,,,,,,,,
,,,,,51175,2023-07-23_13h29.32.492,vbt_B1_day4,2022.2.4,Win32,59.52735282,51175,,,,,,down,0,2.3361,,-0.457407386,-0.35092594,1,0,0,0,126,126,95,1,vreten,images/br_vreten.png,images/cb_vreten.png,0,,,,,,,,,,,,,,,,,,,,,,
,,,,,51175,2023-07-23_13h29.32.492,vbt_B1_day4,2022.2.4,Win32,59.52735282,51175,,,,,,down,0,1.819,,-0.457407386,-0.35092594,1,0,0,0,127,127,80,1,kanjer,images/br_kanjer.png,images/cb_kanjer.png,0,,,,,,,,,,,,,,,,,,,,,,
,,,,,51175,2023-07-23_13h29.32.492,vbt_B1_day4,2022.2.4,Win32,59.52735282,51175,,,,,,down,0,6.538,,-0.457407386,-0.35092594,1,0,0,0,128,128,114,1,vullen,images/br_vullen.png,images/cb_vullen.png,0,,,,,,,,,,,,,,,,,,,,,,
,,,,,51175,2023-07-23_13h29.32.492,vbt_B1_day4,2022.2.4,Win32,59.52735282,51175,,,,,,down,0,2.8354,,-0.457407386,-0.35092594,1,0,0,0,129,129,134,1,geliefd,images/br_geliefd.png,images/cb_geliefd.png,0,,,,,,,,,,,,,,,,,,,,,,
,,,,,51175,2023-07-23_13h29.32.492,vbt_B1_day4,2022.2.4,Win32,59.52735282,51175,,,,,,down,0,2.5677,,-0.457407386,-0.35092594,1,0,0,0,130,130,96,1,slagen,images/br_slagen.png,images/cb_slagen.png,0,,,,,,,,,,,,,,,,,,,,,,
,,,,,51175,2023-07-23_13h29.32.492,vbt_B1_day4,2022.2.4,Win32,59.52735282,51175,,,,,,down,0,1.1527,,-0.457407386,-0.35092594,1,0,0,0,131,131,49,1,laken,images/br_laken.png,images/cb_laken.png,0,,,,,,,,,,,,,,,,,,,,,,
,,,,,51175,2023-07-23_13h29.32.492,vbt_B1_day4,2022.2.4,Win32,59.52735282,51175,,,,,,down,0,1.0181,,-0.457407386,-0.35092594,1,0,0,0,132,132,15,1,soda,images/br_soda.png,images/cb_soda.png,0,,,,,,,,,,,,,,,,,,,,,,
,,,,,51175,2023-07-23_13h29.32.492,vbt_B1_day4,2022.2.4,Win32,59.52735282,51175,,,,,,down,0,1.9846,,-0.457407386,-0.35092594,1,0,0,0,133,133,118,1,vinger,images/br_vinger.png,images/cb_vinger.png,0,,,,,,,,,,,,,,,,,,,,,,
,,,,,51175,2023-07-23_13h29.32.492,vbt_B1_day4,2022.2.4,Win32,59.52735282,51175,,,,,,down,0,2.101,,-0.457407386,-0.35092594,1,0,0,0,134,134,57,1,steek,images/br_steek.png,images/cb_steek.png,0,,,,,,,,,,,,,,,,,,,,,,
,,,,,51175,2023-07-23_13h29.32.492,vbt_B1_day4,2022.2.4,Win32,59.52735282,51175,,,,,,down,0,0.8048,,-0.457407386,-0.35092594,1,0,0,0,135,135,8,1,knie,images/br_knie.png,images/cb_knie.png,0,,,,,,,,,,,,,,,,,,,,,,
,,,,,51175,2023-07-23_13h29.32.492,vbt_B1_day4,2022.2.4,Win32,59.52735282,51175,,,,,,down,0,2.2396,,-0.457407386,-0.35092594,1,0,0,0,136,136,177,1,maaltijd,images/br_maaltijd.png,images/cb_maaltijd.png,0,,,,,,,,,,,,,,,,,,,,,,
,,,,,51175,2023-07-23_13h29.32.492,vbt_B1_day4,2022.2.4,Win32,59.52735282,51175,,,,,,down,0,3.0984,,-0.457407386,-0.35092594,1,0,0,0,137,137,160,1,daarheen,images/br_daarheen.png,images/cb_daarheen.png,0,,,,,,,,,,,,,,,,,,,,,,
,,,,,51175,2023-07-23_13h29.32.492,vbt_B1_day4,2022.2.4,Win32,59.52735282,51175,,,,,,down,0,0.5523,,-0.457407386,-0.35092594,1,0,0,0,138,138,19,1,geit,images/br_geit.png,images/cb_geit.png,0,,,,,,,,,,,,,,,,,,,,,,
,,,,,51175,2023-07-23_13h29.32.492,vbt_B1_day4,2022.2.4,Win32,59.52735282,51175,,,,,,down,0,0.8677,,-0.457407386,-0.35092594,1,0,0,0,139,139,31,1,poes,images/br_poes.png,images/cb_poes.png,0,,,,,,,,,,,,,,,,,,,,,,
,,,,,51175,2023-07-23_13h29.32.492,vbt_B1_day4,2022.2.4,Win32,59.52735282,51175,,,,,,down,0,4.2346,,-0.457407386,-0.35092594,1,0,0,0,140,140,142,1,snuiven,images/br_snuiven.png,images/cb_snuiven.png,0,,,,,,,,,,,,,,,,,,,,,,
,,,,,51175,2023-07-23_13h29.32.492,vbt_B1_day4,2022.2.4,Win32,59.52735282,51175,,,,,,down,0,4.4263,,-0.457407386,-0.35092594,1,0,0,0,141,141,7,1,geld,images/br_geld.png,images/cb_geld.png,0,,,,,,,,,,,,,,,,,,,,,,
,,,,,51175,2023-07-23_13h29.32.492,vbt_B1_day4,2022.2.4,Win32,59.52735282,51175,,,,,,down,0,9.1832,,-0.457407386,-0.35092594,1,0,0,0,142,142,83,1,mening,images/br_mening.png,images/cb_mening.png,0,,,,,,,,,,,,,,,,,,,,,,
,,,,,51175,2023-07-23_13h29.32.492,vbt_B1_day4,2022.2.4,Win32,59.52735282,51175,,,,,,down,0,1.8833,,-0.457407386,-0.35092594,1,0,0,0,143,143,53,1,baron,images/br_baron.png,images/cb_baron.png,0,,,,,,,,,,,,,,,,,,,,,,
,,,,,51175,2023-07-23_13h29.32.492,vbt_B1_day4,2022.2.4,Win32,59.52735282,51175,,,,,,down,0,1.3686,,-0.457407386,-0.35092594,1,0,0,0,144,144,9,1,hier,images/br_hier.png,images/cb_hier.png,0,,,,,,,,,,,,,,,,,,,,,,
,,,,,51175,2023-07-23_13h29.32.492,vbt_B1_day4,2022.2.4,Win32,59.52735282,51175,,,,,,down,0,0.2685,,-0.457407386,-0.35092594,1,0,0,0,145,145,152,1,afnemen,images/br_afnemen.png,images/cb_afnemen.png,0,,,,,,,,,,,,,,,,,,,,,,
,,,,,51175,2023-07-23_13h29.32.492,vbt_B1_day4,2022.2.4,Win32,59.52735282,51175,,,,,,down,0,13.3483,,-0.457407386,-0.35092594,1,0,0,0,146,146,144,1,eetlust,images/br_eetlust.png,images/cb_eetlust.png,1,eetlust,,,,,,,,,,,,,,,,,,,,,
,,,,,51175,2023-07-23_13h29.32.492,vbt_B1_day4,2022.2.4,Win32,59.52735282,51175,,,,,,down,0,4.0854,,-0.457407386,-0.35092594,1,0,0,0,147,147,72,1,strak,images/br_strak.png,images/cb_strak.png,0,,,,,,,,,,,,,,,,,,,,,,
,,,,,51175,2023-07-23_13h29.32.492,vbt_B1_day4,2022.2.4,Win32,59.52735282,51175,,,,,,down,0,2.968,,-0.457407386,-0.35092594,1,0,0,0,148,148,71,1,bever,images/br_bever.png,images/cb_bever.png,0,,,,,,,,,,,,,,,,,,,,,,
,,,,,51175,2023-07-23_13h29.32.492,vbt_B1_day4,2022.2.4,Win32,59.52735282,51175,,,,,,down,0,3.8003,,-0.457407386,-0.35092594,1,0,0,0,149,149,138,1,akkoord,images/br_akkoord.png,images/cb_akkoord.png,0,,,,,,,,,,,,,,,,,,,,,,
,,,,,51175,2023-07-23_13h29.32.492,vbt_B1_day4,2022.2.4,Win32,59.52735282,51175,,,,,,down,0,4.1488,,-0.457407386,-0.35092594,1,0,0,0,150,150,151,1,aanzoek,images/br_aanzoek.png,images/cb_aanzoek.png,0,,,,,,,,,,,,,,,,,,,,,,
,,,,,51175,2023-07-23_13h29.32.492,vbt_B1_day4,2022.2.4,Win32,59.52735282,51175,,,,,,down,0,4.8144,,-0.457407386,-0.35092594,1,0,0,0,151,151,174,1,stemming,images/br_stemming.png,images/cb_stemming.png,0,,,,,,,,,,,,,,,,,,,,,,
,,,,,51175,2023-07-23_13h29.32.492,vbt_B1_day4,2022.2.4,Win32,59.52735282,51175,,,,,,down,0,1.7884,,-0.457407386,-0.35092594,1,0,0,0,152,152,168,1,bisschop,images/br_bisschop.png,images/cb_bisschop.png,0,,,,,,,,,,,,,,,,,,,,,,
,,,,,51175,2023-07-23_13h29.32.492,vbt_B1_day4,2022.2.4,Win32,59.52735282,51175,,,,,,down,0,0.7187,,-0.457407386,-0.35092594,1,0,0,0,153,153,126,1,kasteel,images/br_kasteel.png,images/cb_kasteel.png,0,,,,,,,,,,,,,,,,,,,,,,
,,,,,51175,2023-07-23_13h29.32.492,vbt_B1_day4,2022.2.4,Win32,59.52735282,51175,,,,,,down,0,0.752,,-0.457407386,-0.35092594,1,0,0,0,154,154,196,1,nakijken,images/br_nakijken.png,images/cb_nakijken.png,0,,,,,,,,,,,,,,,,,,,,,,
,,,,,51175,2023-07-23_13h29.32.492,vbt_B1_day4,2022.2.4,Win32,59.52735282,51175,,,,,,down,0,0.1616,,-0.457407386,-0.35092594,1,0,0,0,155,155,113,1,koppen,images/br_koppen.png,images/cb_koppen.png,0,,,,,,,,,,,,,,,,,,,,,,
,,,,,51175,2023-07-23_13h29.32.492,vbt_B1_day4,2022.2.4,Win32,59.52735282,51175,,,,,,down,0,5.2833,,-0.457407386,-0.35092594,1,0,0,0,156,156,146,1,opkomen,images/br_opkomen.png,images/cb_opkomen.png,1,opkomen,,,,,,,,,,,,,,,,,,,,,
,,,,,51175,2023-07-23_13h29.32.492,vbt_B1_day4,2022.2.4,Win32,59.52735282,51175,,,,,,down,0,2.6351,,-0.457407386,-0.35092594,1,0,0,0,157,157,20,1,site,images/br_site.png,images/cb_site.png,0,,,,,,,,,,,,,,,,,,,,,,
,,,,,51175,2023-07-23_13h29.32.492,vbt_B1_day4,2022.2.4,Win32,59.52735282,51175,,,,,,down,0,0.7601,,-0.457407386,-0.35092594,1,0,0,0,158,158,100,1,geduld,images/br_geduld.png,images/cb_geduld.png,0,,,,,,,,,,,,,,,,,,,,,,
,,,,,51175,2023-07-23_13h29.32.492,vbt_B1_day4,2022.2.4,Win32,59.52735282,51175,,,,,,down,0,0.6701,,-0.457407386,-0.35092594,1,0,0,0,159,159,155,1,gerucht,images/br_gerucht.png,images/cb_gerucht.png,0,,,,,,,,,,,,,,,,,,,,,,
,,,,,51175,2023-07-23_13h29.32.492,vbt_B1_day4,2022.2.4,Win32,59.52735282,51175,,,,,,down,0,0.4681,,-0.457407386,-0.35092594,1,0,0,0,160,160,84,1,lokken,images/br_lokken.png,images/cb_lokken.png,0,,,,,,,,,,,,,,,,,,,,,,
,,,,,51175,2023-07-23_13h29.32.492,vbt_B1_day4,2022.2.4,Win32,59.52735282,51175,,,,,,down,0,3.1514,,-0.457407386,-0.35092594,1,0,0,0,161,161,158,1,innemen,images/br_innemen.png,images/cb_innemen.png,0,,,,,,,,,,,,,,,,,,,,,,
,,,,,51175,2023-07-23_13h29.32.492,vbt_B1_day4,2022.2.4,Win32,59.52735282,51175,,,,,,down,0,1.4363,,-0.457407386,-0.35092594,1,0,0,0,162,162,54,1,gebit,images/br_gebit.png,images/cb_gebit.png,0,,,,,,,,,,,,,,,,,,,,,,
,,,,,51175,2023-07-23_13h29.32.492,vbt_B1_day4,2022.2.4,Win32,59.52735282,51175,,,,,,down,0,1.4819,,-0.457407386,-0.35092594,1,0,0,0,163,163,74,1,graaf,images/br_graaf.png,images/cb_graaf.png,0,,,,,,,,,,,,,,,,,,,,,,
,,,,,51175,2023-07-23_13h29.32.492,vbt_B1_day4,2022.2.4,Win32,59.52735282,51175,,,,,,down,0,1.8852,,-0.457407386,-0.35092594,1,0,0,0,164,164,0,1,slak,images/br_slak.png,images/cb_slak.png,0,,,,,,,,,,,,,,,,,,,,,,
,,,,,51175,2023-07-23_13h29.32.492,vbt_B1_day4,2022.2.4,Win32,59.52735282,51175,,,,,,down,0,0.8688,,-0.457407386,-0.35092594,1,0,0,0,165,165,13,1,kaal,images/br_kaal.png,images/cb_kaal.png,0,,,,,,,,,,,,,,,,,,,,,,
,,,,,51175,2023-07-23_13h29.32.492,vbt_B1_day4,2022.2.4,Win32,59.52735282,51175,,,,,,down,0,2.9353,,-0.457407386,-0.35092594,1,0,0,0,166,166,42,1,bleek,images/br_bleek.png,images/cb_bleek.png,0,,,,,,,,,,,,,,,,,,,,,,
,,,,,51175,2023-07-23_13h29.32.492,vbt_B1_day4,2022.2.4,Win32,59.52735282,51175,,,,,,down,0,2.1176,,-0.457407386,-0.35092594,1,0,0,0,167,167,35,1,lust,images/br_lust.png,images/cb_lust.png,0,,,,,,,,,,,,,,,,,,,,,,
,,,,,51175,2023-07-23_13h29.32.492,vbt_B1_day4,2022.2.4,Win32,59.52735282,51175,,,,,,down,0,3.3823,,-0.457407386,-0.35092594,1,0,0,0,168,168,76,1,afval,images/br_afval.png,images/cb_afval.png,0,,,,,,,,,,,,,,,,,,,,,,
,,,,,51175,2023-07-23_13h29.32.492,vbt_B1_day4,2022.2.4,Win32,59.52735282,51175,,,,,,down,0,7.0492,,-0.457407386,-0.35092594,1,0,0,0,169,169,180,1,openbaar,images/br_openbaar.png,images/cb_openbaar.png,0,,,,,,,,,,,,,,,,,,,,,,
,,,,,51175,2023-07-23_13h29.32.492,vbt_B1_day4,2022.2.4,Win32,59.52735282,51175,,,,,,down,0,2.3186,,-0.457407386,-0.35092594,1,0,0,0,170,170,88,1,boeien,images/br_boeien.png,images/cb_boeien.png,0,,,,,,,,,,,,,,,,,,,,,,
,,,,,51175,2023-07-23_13h29.32.492,vbt_B1_day4,2022.2.4,Win32,59.52735282,51175,,,,,,down,0,2.052,,-0.457407386,-0.35092594,1,0,0,0,171,171,175,1,heengaan,images/br_heengaan.png,images/cb_heengaan.png,0,,,,,,,,,,,,,,,,,,,,,,
,,,,,51175,2023-07-23_13h29.32.492,vbt_B1_day4,2022.2.4,Win32,59.52735282,51175,,,,,,down,0,1.1186,,-0.457407386,-0.35092594,1,0,0,0,172,172,157,1,uitlaat,images/br_uitlaat.png,images/cb_uitlaat.png,0,,,,,,,,,,,,,,,,,,,,,,
,,,,,51175,2023-07-23_13h29.32.492,vbt_B1_day4,2022.2.4,Win32,59.52735282,51175,,,,,,down,0,2.6679,,-0.457407386,-0.35092594,1,0,0,0,173,173,178,1,huisdier,images/br_huisdier.png,images/cb_huisdier.png,0,,,,,,,,,,,,,,,,,,,,,,
,,,,,51175,2023-07-23_13h29.32.492,vbt_B1_day4,2022.2.4,Win32,59.52735282,51175,,,,,,down,0,0.7515,,-0.457407386,-0.35092594,1,0,0,0,174,174,111,1,ticket,images/br_ticket.png,images/cb_ticket.png,0,,,,,,,,,,,,,,,,,,,,,,
,,,,,51175,2023-07-23_13h29.32.492,vbt_B1_day4,2022.2.4,Win32,59.52735282,51175,,,,,,down,0,0.7515,,-0.457407386,-0.35092594,1,0,0,0,175,175,92,1,geheim,images/br_geheim.png,images/cb_geheim.png,0,,,,,,,,,,,,,,,,,,,,,,
,,,,,51175,2023-07-23_13h29.32.492,vbt_B1_day4,2022.2.4,Win32,59.52735282,51175,,,,,,down,0,0.0246,,-0.457407386,-0.35092594,1,0,0,0,176,176,36,1,vuur,images/br_vuur.png,images/cb_vuur.png,0,,,,,,,,,,,,,,,,,,,,,,
,,,,,51175,2023-07-23_13h29.32.492,vbt_B1_day4,2022.2.4,Win32,59.52735282,51175,,,,,,down,0,6.0018,,-0.457407386,-0.35092594,1,0,0,0,177,177,187,1,opkijken,images/br_opkijken.png,images/cb_opkijken.png,1,opkijken,,,,,,,,,,,,,,,,,,,,,
,,,,,51175,2023-07-23_13h29.32.492,vbt_B1_day4,2022.2.4,Win32,59.52735282,51175,,,,,,down,0,1.118,,-0.457407386,-0.35092594,1,0,0,0,178,178,61,1,groen,images/br_groen.png,images/cb_groen.png,0,,,,,,,,,,,,,,,,,,,,,,
,,,,,51175,2023-07-23_13h29.32.492,vbt_B1_day4,2022.2.4,Win32,59.52735282,51175,,,,,,down,0,2.5898,,-0.457407386,-0.35092594,1,0,0,0,179,179,112,1,lukken,images/br_lukken.png,images/cb_lukken.png,0,,,,,,,,,,,,,,,,,,,,,,
,,,,,51175,2023-07-23_13h29.32.492,vbt_B1_day4,2022.2.4,Win32,59.52735282,51175,,,,,,down,0,0.3175,,-0.457407386,-0.35092594,1,0,0,0,180,180,33,1,vlek,images/br_vlek.png,images/cb_vlek.png,0,,,,,,,,,,,,,,,,,,,,,,
,,,,,51175,2023-07-23_13h29.32.492,vbt_B1_day4,2022.2.4,Win32,59.52735282,51175,,,,,,down,0,3.2687,,-0.457407386,-0.35092594,1,0,0,0,181,181,139,1,stiekem,images/br_stiekem.png,images/cb_stiekem.png,0,,,,,,,,,,,,,,,,,,,,,,
,,,,,51175,2023-07-23_13h29.32.492,vbt_B1_day4,2022.2.4,Win32,59.52735282,51175,,,,,,down,0,1.1192,,-0.457407386,-0.35092594,1,0,0,0,182,182,40,1,schep,images/br_schep.png,images/cb_schep.png,0,,,,,,,,,,,,,,,,,,,,,,
,,,,,51175,2023-07-23_13h29.32.492,vbt_B1_day4,2022.2.4,Win32,59.52735282,51175,,,,,,down,0,3.7685,,-0.457407386,-0.35092594,1,0,0,0,183,183,172,1,weigeren,images/br_weigeren.png,images/cb_weigeren.png,0,,,,,,,,,,,,,,,,,,,,,,
,,,,,51175,2023-07-23_13h29.32.492,vbt_B1_day4,2022.2.4,Win32,59.52735282,51175,,,,,,down,0,3.0834,,-0.457407386,-0.35092594,1,0,0,0,184,184,153,1,vervoer,images/br_vervoer.png,images/cb_vervoer.png,0,,,,,,,,,,,,,,,,,,,,,,
,,,,,51175,2023-07-23_13h29.32.492,vbt_B1_day4,2022.2.4,Win32,59.52735282,51175,,,,,,down,0,3.7349,,-0.457407386,-0.35092594,1,0,0,0,185,185,1,1,zaal,images/br_zaal.png,images/cb_zaal.png,0,,,,,,,,,,,,,,,,,,,,,,
,,,,,51175,2023-07-23_13h29.32.492,vbt_B1_day4,2022.2.4,Win32,59.52735282,51175,,,,,,down,0,5.0516,,-0.457407386,-0.35092594,1,0,0,0,186,186,106,1,zingen,images/br_zingen.png,images/cb_zingen.png,1,zingen,,,,,,,,,,,,,,,,,,,,,
,,,,,51175,2023-07-23_13h29.32.492,vbt_B1_day4,2022.2.4,Win32,59.52735282,51175,,,,,,down,0,4.5514,,-0.457407386,-0.35092594,1,0,0,0,187,187,75,1,snoep,images/br_snoep.png,images/cb_snoep.png,0,,,,,,,,,,,,,,,,,,,,,,
,,,,,51175,2023-07-23_13h29.32.492,vbt_B1_day4,2022.2.4,Win32,59.52735282,51175,,,,,,down,0,2.1519,,-0.457407386,-0.35092594,1,0,0,0,188,188,65,1,parel,images/br_parel.png,images/cb_parel.png,1,parel,,,,,,,,,,,,,,,,,,,,,
,,,,,51175,2023-07-23_13h29.32.492,vbt_B1_day4,2022.2.4,Win32,59.52735282,51175,,,,,,down,0,0.2185,,-0.457407386,-0.35092594,1,0,0,0,189,189,58,1,tekst,images/br_tekst.png,images/cb_tekst.png,0,,,,,,,,,,,,,,,,,,,,,,
,,,,,51175,2023-07-23_13h29.32.492,vbt_B1_day4,2022.2.4,Win32,59.52735282,51175,,,,,,down,0,0.7039,,-0.457407386,-0.35092594,1,0,0,0,190,190,69,1,waken,images/br_waken.png,images/cb_waken.png,0,,,,,,,,,,,,,,,,,,,,,,
,,,,,51175,2023-07-23_13h29.32.492,vbt_B1_day4,2022.2.4,Win32,59.52735282,51175,,,,,,down,0,5.6669,,-0.457407386,-0.35092594,1,0,0,0,191,191,107,1,maling,images/br_maling.png,images/cb_maling.png,1,maling,,,,,,,,,,,,,,,,,,,,,
,,,,,51175,2023-07-23_13h29.32.492,vbt_B1_day4,2022.2.4,Win32,59.52735282,51175,,,,,,down,0,0.8865,,-0.457407386,-0.35092594,1,0,0,0,192,192,59,1,kring,images/br_kring.png,images/cb_kring.png,0,,,,,,,,,,,,,,,,,,,,,,
,,,,,51175,2023-07-23_13h29.32.492,vbt_B1_day4,2022.2.4,Win32,59.52735282,51175,,,,,,down,0,1.6738,,-0.457407386,-0.35092594,1,0,0,0,193,193,162,1,uitdelen,images/br_uitdelen.png,images/cb_uitdelen.png,0,,,,,,,,,,,,,,,,,,,,,,
,,,,,51175,2023-07-23_13h29.32.492,vbt_B1_day4,2022.2.4,Win32,59.52735282,51175,,,,,,down,0,1.2004,,-0.457407386,-0.35092594,1,0,0,0,194,194,127,1,doodmoe,images/br_doodmoe.png,images/cb_doodmoe.png,0,,,,,,,,,,,,,,,,,,,,,,
,,,,,51175,2023-07-23_13h29.32.492,vbt_B1_day4,2022.2.4,Win32,59.52735282,51175,,,,,,down,0,0.6705,,-0.457407386,-0.35092594,1,0,0,0,195,195,110,1,zuster,images/br_zuster.png,images/cb_zuster.png,0,,,,,,,,,,,,,,,,,,,,,,
,,,,,51175,2023-07-23_13h29.32.492,vbt_B1_day4,2022.2.4,Win32,59.52735282,51175,,,,,,down,0,4.6181,,-0.457407386,-0.35092594,1,0,0,0,196,196,104,1,zweven,images/br_zweven.png,images/cb_zweven.png,1,zweven,,,,,,,,,,,,,,,,,,,,,
,,,,,51175,2023-07-23_13h29.32.492,vbt_B1_day4,2022.2.4,Win32,59.52735282,51175,,,,,,down,0,0.4168,,-0.457407386,-0.35092594,1,0,0,0,197,197,85,1,heilig,images/br_heilig.png,images/cb_heilig.png,0,,,,,,,,,,,,,,,,,,,,,,
,,,,,51175,2023-07-23_13h29.32.492,vbt_B1_day4,2022.2.4,Win32,59.52735282,51175,,,,,,down,0,2.7852,,-0.457407386,-0.35092594,1,0,0,0,198,198,43,1,klauw,images/br_klauw.png,images/cb_klauw.png,0,,,,,,,,,,,,,,,,,,,,,,
,,,,,51175,2023-07-23_13h29.32.492,vbt_B1_day4,2022.2.4,Win32,59.52735282,51175,,,,,,down,0,2.6191,,-0.457407386,-0.35092594,1,0,0,0,199,199,194,1,driemaal,images/br_driemaal.png,images/cb_driemaal.png,0,,,,,,,,,,,,,,,,,,,,,,
,,,,,51175,2023-07-23_13h29.32.492,vbt_B1_day4,2022.2.4,Win32,59.52735282,51175,,,,,,,,,,,,,,,,,,,,,,,,,-0.457407386,-0.35092594,1,0,0,,,,,,,,,,,,,,,,
,,,,,51175,2023-07-23_13h29.32.492,vbt_B1_day4,2022.2.4,Win32,59.52735282,51175,,,,,,,,,,,,,,,,,,,,,,,,,,,,,,-0.457407386,-0.35092594,1,0,0,,,,,,,,,,,
,,,,,51175,2023-07-23_13h29.32.492,vbt_B1_day4,2022.2.4,Win32,59.52735282,51175,,,,,,,,,,,,,,,,,,,,strok,images/br_strok.png,images/cb_strok.png,,strok,,,,,,,,,,,-0.457407386,-0.35092594,1,0,0,strok,0,0,0,25,1
,,,,,51175,2023-07-23_13h29.32.492,vbt_B1_day4,2022.2.4,Win32,59.52735282,51175,,,,,,,,,,,,,,,,,,,,rijp,images/br_rijp.png,images/cb_rijp.png,,rijp,,,,,,,,,,,-0.457407386,-0.35092594,1,0,0,rijp,0,1,1,2,1
,,,,,51175,2023-07-23_13h29.32.492,vbt_B1_day4,2022.2.4,Win32,59.52735282,51175,,,,,,,,,,,,,,,,,,,,bruin,images/br_bruin.png,images/cb_bruin.png,,bruin,,,,,,,,,,,-0.457407386,-0.35092594,1,0,0,bruin,0,2,2,45,1
,,,,,51175,2023-07-23_13h29.32.492,vbt_B1_day4,2022.2.4,Win32,59.52735282,51175,,,,,,,,,,,,,,,,,,,,broodje,images/br_broodje.png,images/cb_broodje.png,,brood,,,,,,,,,,,-0.457407386,-0.35092594,1,0,0,brood,0,3,3,55,1
,,,,,51175,2023-07-23_13h29.32.492,vbt_B1_day4,2022.2.4,Win32,59.52735282,51175,,,,,,,,,,,,,,,,,,,,dozijn,images/br_dozijn.png,images/cb_dozijn.png,,dozijn,,,,,,,,,,,-0.457407386,-0.35092594,1,0,0,dozijn,0,4,4,48,1
,,,,,51175,2023-07-23_13h29.32.492,vbt_B1_day4,2022.2.4,Win32,59.52735282,51175,,,,,,,,,,,,,,,,,,,,paalbaak,images/br_paalbaak.png,images/cb_paalbaak.png,,paalbaak,,,,,,,,,,,-0.457407386,-0.35092594,1,0,0,paalbaak,0,5,5,39,1
,,,,,51175,2023-07-23_13h29.32.492,vbt_B1_day4,2022.2.4,Win32,59.52735282,51175,,,,,,,,,,,,,,,,,,,,drooien,images/br_drooien.png,images/cb_drooien.png,,drooi,,,,,,,,,,,-0.457407386,-0.35092594,1,0,0,drooi,0,6,6,32,1
,,,,,51175,2023-07-23_13h29.32.492,vbt_B1_day4,2022.2.4,Win32,59.52735282,51175,,,,,,,,,,,,,,,,,,,,praat,images/br_praat.png,images/cb_praat.png,,praat,,,,,,,,,,,-0.457407386,-0.35092594,1,0,0,praat,0,7,7,7,1
,,,,,51175,2023-07-23_13h29.32.492,vbt_B1_day4,2022.2.4,Win32,59.52735282,51175,,,,,,,,,,,,,,,,,,,,tucket,images/br_tucket.png,images/cb_tucket.png,,tuck,,,,,,,,,,,-0.457407386,-0.35092594,1,0,0,tuck,0,8,8,30,1
,,,,,51175,2023-07-23_13h29.32.492,vbt_B1_day4,2022.2.4,Win32,59.52735282,51175,,,,,,,,,,,,,,,,,,,,geheim,images/br_geheim.png,images/cb_geheim.png,,geheim,,,,,,,,,,,-0.457407386,-0.35092594,1,0,0,geheim,0,9,9,8,1
,,,,,51175,2023-07-23_13h29.32.492,vbt_B1_day4,2022.2.4,Win32,59.52735282,51175,,,,,,,,,,,,,,,,,,,,waarop,images/br_waarop.png,images/cb_waarop.png,,waarop,,,,,,,,,,,-0.457407386,-0.35092594,1,0,0,waarop,0,10,10,9,1
,,,,,51175,2023-07-23_13h29.32.492,vbt_B1_day4,2022.2.4,Win32,59.52735282,51175,,,,,,,,,,,,,,,,,,,,warel,images/br_warel.png,images/cb_warel.png,,warel,,,,,,,,,,,-0.457407386,-0.35092594,1,0,0,warel,0,11,11,26,1
,,,,,51175,2023-07-23_13h29.32.492,vbt_B1_day4,2022.2.4,Win32,59.52735282,51175,,,,,,,,,,,,,,,,,,,,lappen,images/br_lappen.png,images/cb_lappen.png,,lappen,,,,,,,,,,,-0.457407386,-0.35092594,1,0,0,lappen,0,12,12,49,1
,,,,,51175,2023-07-23_13h29.32.492,vbt_B1_day4,2022.2.4,Win32,59.52735282,51175,,,,,,,,,,,,,,,,,,,,oceaan,images/br_oceaan.png,images/cb_oceaan.png,,oceaan,,,,,,,,,,,-0.457407386,-0.35092594,1,0,0,oceaan,0,13,13,10,1
,,,,,51175,2023-07-23_13h29.32.492,vbt_B1_day4,2022.2.4,Win32,59.52735282,51175,,,,,,,,,,,,,,,,,,,,apparaat,images/br_apparaat.png,images/cb_apparaat.png,,apparaat,,,,,,,,,,,-0.457407386,-0.35092594,1,0,0,apparaat,0,14,14,17,1
,,,,,51175,2023-07-23_13h29.32.492,vbt_B1_day4,2022.2.4,Win32,59.52735282,51175,,,,,,,,,,,,,,,,,,,,getucht,images/br_getucht.png,images/cb_getucht.png,,getuih,,,,,,,,,,,-0.457407386,-0.35092594,1,0,0,getuih,0,15,15,35,1
,,,,,51175,2023-07-23_13h29.32.492,vbt_B1_day4,2022.2.4,Win32,59.52735282,51175,,,,,,,,,,,,,,,,,,,,eerst,images/br_eerst.png,images/cb_eerst.png,,eerst,,,,,,,,,,,-0.457407386,-0.35092594,1,0,0,eerst,0,16,16,47,1
,,,,,51175,2023-07-23_13h29.32.492,vbt_B1_day4,2022.2.4,Win32,59.52735282,51175,,,,,,,,,,,,,,,,,,,,pittig,images/br_pittig.png,images/cb_pittig.png,,pittig,,,,,,,,,,,-0.457407386,-0.35092594,1,0,0,pittig,0,17,17,51,1
,,,,,51175,2023-07-23_13h29.32.492,vbt_B1_day4,2022.2.4,Win32,59.52735282,51175,,,,,,,,,,,,,,,,,,,,kust,images/br_kust.png,images/cb_kust.png,,kust,,,,,,,,,,,-0.457407386,-0.35092594,1,0,0,kust,0,18,18,0,1
,,,,,51175,2023-07-23_13h29.32.492,vbt_B1_day4,2022.2.4,Win32,59.52735282,51175,,,,,,,,,,,,,,,,,,,,snee,images/br_snee.png,images/cb_snee.png,,snee,,,,,,,,,,,-0.457407386,-0.35092594,1,0,0,snee,0,19,19,40,1
,,,,,51175,2023-07-23_13h29.32.492,vbt_B1_day4,2022.2.4,Win32,59.52735282,51175,,,,,,,,,,,,,,,,,,,,schenden,images/br_schenden.png,images/cb_schenden.png,,schenken,,,,,,,,,,,-0.457407386,-0.35092594,1,0,0,schenken,0,20,20,57,1
,,,,,51175,2023-07-23_13h29.32.492,vbt_B1_day4,2022.2.4,Win32,59.52735282,51175,,,,,,,,,,,,,,,,,,,,vreten,images/br_vreten.png,images/cb_vreten.png,,vreten,,,,,,,,,,,-0.457407386,-0.35092594,1,0,0,vreten,0,21,21,11,1
,,,,,51175,2023-07-23_13h29.32.492,vbt_B1_day4,2022.2.4,Win32,59.52735282,51175,,,,,,,,,,,,,,,,,,,,gaaf,images/br_gaaf.png,images/cb_gaaf.png,,gaaf,,,,,,,,,,,-0.457407386,-0.35092594,1,0,0,gaaf,0,22,22,43,1
,,,,,51175,2023-07-23_13h29.32.492,vbt_B1_day4,2022.2.4,Win32,59.52735282,51175,,,,,,,,,,,,,,,,,,,,opruimen,images/br_opruimen.png,images/cb_opruimen.png,,opruimen,,,,,,,,,,,-0.457407386,-0.35092594,1,0,0,opruimen,0,23,23,59,1
,,,,,51175,2023-07-23_13h29.32.492,vbt_B1_day4,2022.2.4,Win32,59.52735282,51175,,,,,,,,,,,,,,,,,,,,wagon,images/br_wagon.png,images/cb_wagon.png,,wagon,,,,,,,,,,,-0.457407386,-0.35092594,1,0,0,wagon,0,24,24,4,1
,,,,,51175,2023-07-23_13h29.32.492,vbt_B1_day4,2022.2.4,Win32,59.52735282,51175,,,,,,,,,,,,,,,,,,,,kaal,images/br_kaal.png,images/cb_kaal.png,,kaal,,,,,,,,,,,-0.457407386,-0.35092594,1,0,0,kaal,0,25,25,1,1
,,,,,51175,2023-07-23_13h29.32.492,vbt_B1_day4,2022.2.4,Win32,59.52735282,51175,,,,,,,,,,,,,,,,,,,,schotel,images/br_schotel.png,images/cb_schotel.png,,schotel,,,,,,,,,,,-0.457407386,-0.35092594,1,0,0,schotel,0,26,26,52,1
,,,,,51175,2023-07-23_13h29.32.492,vbt_B1_day4,2022.2.4,Win32,59.52735282,51175,,,,,,,,,,,,,,,,,,,,zwek,images/br_zwek.png,images/cb_zwek.png,,zwek,,,,,,,,,,,-0.457407386,-0.35092594,1,0,0,zwek,0,27,27,20,1
,,,,,51175,2023-07-23_13h29.32.492,vbt_B1_day4,2022.2.4,Win32,59.52735282,51175,,,,,,,,,,,,,,,,,,,,steen,images/br_steen.png,images/cb_steen.png,,steen,,,,,,,,,,,-0.457407386,-0.35092594,1,0,0,steen,0,28,28,44,1
,,,,,51175,2023-07-23_13h29.32.492,vbt_B1_day4,2022.2.4,Win32,59.52735282,51175,,,,,,,,,,,,,,,,,,,,heengaan,images/br_heengaan.png,images/cb_heengaan.png,,heengaan,,,,,,,,,,,-0.457407386,-0.35092594,1,0,0,heengaan,0,29,29,19,1
,,,,,51175,2023-07-23_13h29.32.492,vbt_B1_day4,2022.2.4,Win32,59.52735282,51175,,,,,,,,,,,,,,,,,,,,gebit,images/br_gebit.png,images/cb_gebit.png,,gebit,,,,,,,,,,,-0.457407386,-0.35092594,1,0,0,gebit,0,30,30,6,1
,,,,,51175,2023-07-23_13h29.32.492,vbt_B1_day4,2022.2.4,Win32,59.52735282,51175,,,,,,,,,,,,,,,,,,,,midden,images/br_midden.png,images/cb_midden.png,,midden,,,,,,,,,,,-0.457407386,-0.35092594,1,0,0,midden,0,31,31,50,1
,,,,,51175,2023-07-23_13h29.32.492,vbt_B1_day4,2022.2.4,Win32,59.52735282,51175,,,,,,,,,,,,,,,,,,,,noodzaak,images/br_noodzaak.png,images/cb_noodzaak.png,,nood,,,,,,,,,,,-0.457407386,-0.35092594,1,0,0,nood,0,32,32,56,1
,,,,,51175,2023-07-23_13h29.32.492,vbt_B1_day4,2022.2.4,Win32,59.52735282,51175,,,,,,,,,,,,,,,,,,,,ezel,images/br_ezel.png,images/cb_ezel.png,,ezel,,,,,,,,,,,-0.457407386,-0.35092594,1,0,0,ezel,0,33,33,42,1
,,,,,51175,2023-07-23_13h29.32.492,vbt_B1_day4,2022.2.4,Win32,59.52735282,51175,,,,,,,,,,,,,,,,,,,,stemming,images/br_stemming.png,images/cb_stemming.png,,stemming,,,,,,,,,,,-0.457407386,-0.35092594,1,0,0,stemming,0,34,34,18,1
,,,,,51175,2023-07-23_13h29.32.492,vbt_B1_day4,2022.2.4,Win32,59.52735282,51175,,,,,,,,,,,,,,,,,,,,gaan,images/br_gaan.png,images/cb_gaan.png,,gaan,,,,,,,,,,,-0.457407386,-0.35092594,1,0,0,gaan,0,35,35,41,1
,,,,,51175,2023-07-23_13h29.32.492,vbt_B1_day4,2022.2.4,Win32,59.52735282,51175,,,,,,,,,,,,,,,,,,,,soda,images/br_soda.png,images/cb_soda.png,,soda,,,,,,,,,,,-0.457407386,-0.35092594,1,0,0,soda,0,36,36,3,1
,,,,,51175,2023-07-23_13h29.32.492,vbt_B1_day4,2022.2.4,Win32,59.52735282,51175,,,,,,,,,,,,,,,,,,,,sulbon,images/br_sulbon.png,images/cb_sulbon.png,,sulboo,,,,,,,,,,,-0.458333333,-0.35092594,1,0,0,sulboo,0,37,37,31,1
,,,,,51175,2023-07-23_13h29.32.492,vbt_B1_day4,2022.2.4,Win32,59.52735282,51175,,,,,,,,,,,,,,,,,,,,mekst,images/br_mekst.png,images/cb_mekst.png,,mekst,,,,,,,,,,,-0.458333333,-0.35092594,1,0,0,mekst,0,38,38,27,1
,,,,,51175,2023-07-23_13h29.32.492,vbt_B1_day4,2022.2.4,Win32,59.52735282,51175,,,,,,,,,,,,,,,,,,,,seizoon,images/br_seizoon.png,images/cb_seizoon.png,,seizoen,,,,,,,,,,,-0.458333333,-0.35092594,1,0,0,seizoen,0,39,39,33,1
,,,,,51175,2023-07-23_13h29.32.492,vbt_B1_day4,2022.2.4,Win32,59.52735282,51175,,,,,,,,,,,,,,,,,,,,geliefd,images/br_geliefd.png,images/cb_geliefd.png,,geliefd,,,,,,,,,,,-0.458333333,-0.35092594,1,0,0,geliefd,0,40,40,14,1
,,,,,51175,2023-07-23_13h29.32.492,vbt_B1_day4,2022.2.4,Win32,59.52735282,51175,,,,,,,,,,,,,,,,,,,,weigeren,images/br_weigeren.png,images/cb_weigeren.png,,wiegeren,,,,,,,,,,,-0.458333333,-0.35092594,1,0,0,wiegeren,0,41,41,16,1
,,,,,51175,2023-07-23_13h29.32.492,vbt_B1_day4,2022.2.4,Win32,59.52735282,51175,,,,,,,,,,,,,,,,,,,,gebog,images/br_gebog.png,images/cb_gebog.png,,gebog,,,,,,,,,,,-0.458333333,-0.35092594,1,0,0,gebog,0,42,42,24,1
,,,,,51175,2023-07-23_13h29.32.492,vbt_B1_day4,2022.2.4,Win32,59.52735282,51175,,,,,,,,,,,,,,,,,,,,pijnlijk,images/br_pijnlijk.png,images/cb_pijnlijk.png,,pijnlijk,,,,,,,,,,,-0.458333333,-0.35092594,1,0,0,pijnlijk,0,43,43,58,1
,,,,,51175,2023-07-23_13h29.32.492,vbt_B1_day4,2022.2.4,Win32,59.52735282,51175,,,,,,,,,,,,,,,,,,,,gijf,images/br_gijf.png,images/cb_gijf.png,,,,,,,,,,,,,-0.458333333,-0.35092594,1,0,0,,0,44,44,23,1
,,,,,51175,2023-07-23_13h29.32.492,vbt_B1_day4,2022.2.4,Win32,59.52735282,51175,,,,,,,,,,,,,,,,,,,,bisschap,images/br_bisschap.png,images/cb_bisschap.png,,bisch,,,,,,,,,,,-0.458333333,-0.35092594,1,0,0,bisch,0,45,45,36,1
,,,,,51175,2023-07-23_13h29.32.492,vbt_B1_day4,2022.2.4,Win32,59.52735282,51175,,,,,,,,,,,,,,,,,,,,baron,images/br_baron.png,images/cb_baron.png,,baron,,,,,,,,,,,-0.458333333,-0.35092594,1,0,0,baron,0,46,46,5,1
,,,,,51175,2023-07-23_13h29.32.492,vbt_B1_day4,2022.2.4,Win32,59.52735282,51175,,,,,,,,,,,,,,,,,,,,seizoen,images/br_seizoen.png,images/cb_seizoen.png,,seizoen,,,,,,,,,,,-0.458333333,-0.35092594,1,0,0,seizoen,0,47,47,13,1
,,,,,51175,2023-07-23_13h29.32.492,vbt_B1_day4,2022.2.4,Win32,59.52735282,51175,,,,,,,,,,,,,,,,,,,,zaalrijk,images/br_zaalrijk.png,images/cb_zaalrijk.png,,zaalrijk,,,,,,,,,,,-0.458333333,-0.35092594,1,0,0,zaalrijk,0,48,48,37,1
,,,,,51175,2023-07-23_13h29.32.492,vbt_B1_day4,2022.2.4,Win32,59.52735282,51175,,,,,,,,,,,,,,,,,,,,gedicht,images/br_gedicht.png,images/cb_gedicht.png,,gedicht,,,,,,,,,,,-0.459259245,-0.35092594,1,0,0,gedicht,0,49,49,15,1
,,,,,51175,2023-07-23_13h29.32.492,vbt_B1_day4,2022.2.4,Win32,59.52735282,51175,,,,,,,,,,,,,,,,,,,,wozing,images/br_wozing.png,images/cb_wozing.png,,wozing,,,,,,,,,,,-0.459259245,-0.35092594,1,0,0,wozing,0,50,50,28,1
,,,,,51175,2023-07-23_13h29.32.492,vbt_B1_day4,2022.2.4,Win32,59.52735282,51175,,,,,,,,,,,,,,,,,,,,drummer,images/br_drummer.png,images/cb_drummer.png,,drumm,,,,,,,,,,,-0.459259245,-0.35092594,1,0,0,drumm,0,51,51,53,1
,,,,,51175,2023-07-23_13h29.32.492,vbt_B1_day4,2022.2.4,Win32,59.52735282,51175,,,,,,,,,,,,,,,,,,,,dalen,images/br_dalen.png,images/cb_dalen.png,,dalen,,,,,,,,,,,-0.459259245,-0.35092594,1,0,0,dalen,0,52,52,46,1
,,,,,51175,2023-07-23_13h29.32.492,vbt_B1_day4,2022.2.4,Win32,59.52735282,51175,,,,,,,,,,,,,,,,,,,,toevol,images/br_toevol.png,images/cb_toevol.png,,toevol,,,,,,,,,,,-0.459259245,-0.35092594,1,0,0,toevol,0,53,53,29,1
,,,,,51175,2023-07-23_13h29.32.492,vbt_B1_day4,2022.2.4,Win32,59.52735282,51175,,,,,,,,,,,,,,,,,,,,opkicht,images/br_opkicht.png,images/cb_opkicht.png,,opkic,,,,,,,,,,,-0.459259245,-0.35092594,1,0,0,opkic,0,54,54,34,1
,,,,,51175,2023-07-23_13h29.32.492,vbt_B1_day4,2022.2.4,Win32,59.52735282,51175,,,,,,,,,,,,,,,,,,,,grappen,images/br_grappen.png,images/cb_grappen.png,,grappig,,,,,,,,,,,-0.459259245,-0.35092594,1,0,0,grappig,0,55,55,12,1
,,,,,51175,2023-07-23_13h29.32.492,vbt_B1_day4,2022.2.4,Win32,59.52735282,51175,,,,,,,,,,,,,,,,,,,,flippen,images/br_flippen.png,images/cb_flippen.png,,flippen,,,,,,,,,,,-0.459259245,-0.35092594,1,0,0,flippen,0,56,56,54,1
,,,,,51175,2023-07-23_13h29.32.492,vbt_B1_day4,2022.2.4,Win32,59.52735282,51175,,,,,,,,,,,,,,,,,,,,fran,images/br_fran.png,images/cb_fran.png,,fran,,,,,,,,,,,-0.459259245,-0.35092594,1,0,0,fran,0,57,57,22,1
,,,,,51175,2023-07-23_13h29.32.492,vbt_B1_day4,2022.2.4,Win32,59.52735282,51175,,,,,,,,,,,,,,,,,,,,haza,images/br_haza.png,images/cb_haza.png,,haza,,,,,,,,,,,-0.459259245,-0.35092594,1,0,0,haza,0,58,58,21,1
,,,,,51175,2023-07-23_13h29.32.492,vbt_B1_day4,2022.2.4,Win32,59.52735282,51175,,,,,,,,,,,,,,,,,,,,aanzwaag,images/br_aanzwaag.png,images/cb_aanzwaag.png,,aanzwaag,,,,,,,,,,,-0.459259245,-0.35092594,1,0,0,aanzwaag,0,59,59,38,1
,,,,,51175,2023-07-23_13h29.32.492,vbt_B1_day4,2022.2.4,Win32,59.52735282,51175,,,,,,,,,,,,,,,,,,,,,,,,,,,,,,,,,,,,,,,,,,,,,
