welcome_mouse.x,welcome_mouse.y,welcome_mouse.leftButton,welcome_mouse.midButton,welcome_mouse.rightButton,"ID",date,expName,psychopyVersion,OS,frameRate,trainInstr_mouse.x,trainInstr_mouse.y,trainInstr_mouse.leftButton,trainInstr_mouse.midButton,trainInstr_mouse.rightButton,translation_key.keys,translation_key.corr,translation_key.rt,word_rsp.text,trWrd_mouse.x,trWrd_mouse.y,trWrd_mouse.leftButton,trWrd_mouse.midButton,trWrd_mouse.rightButton,train_loop.thisRepN,train_loop.thisTrialN,train_loop.thisN,train_loop.thisIndex,train_loop.ran,nlWrd,brWrd,cbWrd,test,testResp,mouse.x,mouse.y,mouse.leftButton,mouse.midButton,mouse.rightButton,testInstr_mouse.x,testInstr_mouse.y,testInstr_mouse.leftButton,testInstr_mouse.midButton,testInstr_mouse.rightButton,test_mouse.x,test_mouse.y,test_mouse.leftButton,test_mouse.midButton,test_mouse.rightButton,test_response.text,test_loop.thisRepN,test_loop.thisTrialN,test_loop.thisN,test_loop.thisIndex,test_loop.ran
-0.134882813,-0.269166667,1,0,0,00008,2023-07-27_23h02.34.226,vbt_B1_day4,2022.2.4,MacIntel,60.0024001,,,,,,,,,,,,,,,,,,,,,,,,,,,,,,,,,,,,,,,,,,,,,
,,,,,00008,2023-07-27_23h02.34.226,vbt_B1_day4,2022.2.4,MacIntel,60.0024001,-0.134882813,-0.269166667,1,0,0,,,,,,,,,,,,,,,,,,,,,,,,,,,,,,,,,,,,,,,,
,,,,,00008,2023-07-27_23h02.34.226,vbt_B1_day4,2022.2.4,MacIntel,60.0024001,,,,,,down,0,0.5402,,-0.134882813,-0.269166667,1,0,0,0,0,0,43,1,klauw,images/br_klauw.png,images/cb_klauw.png,0,,,,,,,,,,,,,,,,,,,,,,
,,,,,00008,2023-07-27_23h02.34.226,vbt_B1_day4,2022.2.4,MacIntel,60.0024001,,,,,,down,0,1.6999,,-0.134882813,-0.269166667,1,0,0,0,1,1,100,1,geduld,images/br_geduld.png,images/cb_geduld.png,0,,,,,,,,,,,,,,,,,,,,,,
,,,,,00008,2023-07-27_23h02.34.226,vbt_B1_day4,2022.2.4,MacIntel,60.0024001,,,,,,down,0,3.1506,,-0.134882813,-0.269166667,1,0,0,0,2,2,159,1,sufferd,images/br_sufferd.png,images/cb_sufferd.png,0,,,,,,,,,,,,,,,,,,,,,,
,,,,,00008,2023-07-27_23h02.34.226,vbt_B1_day4,2022.2.4,MacIntel,60.0024001,,,,,,down,0,0.7498,,-0.134882813,-0.269166667,1,0,0,0,3,3,6,1,diep,images/br_diep.png,images/cb_diep.png,0,,,,,,,,,,,,,,,,,,,,,,
,,,,,00008,2023-07-27_23h02.34.226,vbt_B1_day4,2022.2.4,MacIntel,60.0024001,,,,,,down,0,1.7341,,-0.134882813,-0.269166667,1,0,0,0,4,4,192,1,schaamte,images/br_schaamte.png,images/cb_schaamte.png,0,,,,,,,,,,,,,,,,,,,,,,
,,,,,00008,2023-07-27_23h02.34.226,vbt_B1_day4,2022.2.4,MacIntel,60.0024001,,,,,,down,0,2.4336,,-0.155321181,-0.269166667,1,0,0,0,5,5,3,1,mand,images/br_mand.png,images/cb_mand.png,0,,,,,,,,,,,,,,,,,,,,,,
,,,,,00008,2023-07-27_23h02.34.226,vbt_B1_day4,2022.2.4,MacIntel,60.0024001,,,,,,down,0,3.0751,,-0.155321181,-0.269166667,1,0,0,0,6,6,34,1,vorm,images/br_vorm.png,images/cb_vorm.png,0,,,,,,,,,,,,,,,,,,,,,,
,,,,,00008,2023-07-27_23h02.34.226,vbt_B1_day4,2022.2.4,MacIntel,60.0024001,,,,,,down,0,7.8527,,-0.155321181,-0.269166667,1,0,0,0,7,7,179,1,woestijn,images/br_woestijn.png,images/cb_woestijn.png,0,,,,,,,,,,,,,,,,,,,,,,
,,,,,00008,2023-07-27_23h02.34.226,vbt_B1_day4,2022.2.4,MacIntel,60.0024001,,,,,,down,0,1.2645,,-0.155321181,-0.269166667,1,0,0,0,8,8,191,1,opheffen,images/br_opheffen.png,images/cb_opheffen.png,0,,,,,,,,,,,,,,,,,,,,,,
,,,,,00008,2023-07-27_23h02.34.226,vbt_B1_day4,2022.2.4,MacIntel,60.0024001,,,,,,down,0,1.8525,,-0.155321181,-0.269166667,1,0,0,0,9,9,21,1,mist,images/br_mist.png,images/cb_mist.png,0,,,,,,,,,,,,,,,,,,,,,,
,,,,,00008,2023-07-27_23h02.34.226,vbt_B1_day4,2022.2.4,MacIntel,60.0024001,,,,,,down,0,19.3858,,-0.155321181,-0.269166667,1,0,0,0,10,10,163,1,schuilen,images/br_schuilen.png,images/cb_schuilen.png,0,,,,,,,,,,,,,,,,,,,,,,
,,,,,00008,2023-07-27_23h02.34.226,vbt_B1_day4,2022.2.4,MacIntel,60.0024001,,,,,,down,0,92.7373,,-0.155321181,-0.269166667,1,0,0,0,11,11,107,1,maling,images/br_maling.png,images/cb_maling.png,1,maling,,,,,,,,,,,,,,,,,,,,,
,,,,,00008,2023-07-27_23h02.34.226,vbt_B1_day4,2022.2.4,MacIntel,60.0024001,,,,,,down,0,2.59,,-0.155321181,-0.269166667,1,0,0,0,12,12,144,1,eetlust,images/br_eetlust.png,images/cb_eetlust.png,1,eetlust,,,,,,,,,,,,,,,,,,,,,
,,,,,00008,2023-07-27_23h02.34.226,vbt_B1_day4,2022.2.4,MacIntel,60.0024001,,,,,,down,0,2.3332,,-0.155321181,-0.269166667,1,0,0,0,13,13,33,1,vlek,images/br_vlek.png,images/cb_vlek.png,0,,,,,,,,,,,,,,,,,,,,,,
,,,,,00008,2023-07-27_23h02.34.226,vbt_B1_day4,2022.2.4,MacIntel,60.0024001,,,,,,down,0,4.3,,-0.155321181,-0.269166667,1,0,0,0,14,14,71,1,bever,images/br_bever.png,images/cb_bever.png,0,,,,,,,,,,,,,,,,,,,,,,
,,,,,00008,2023-07-27_23h02.34.226,vbt_B1_day4,2022.2.4,MacIntel,60.0024001,,,,,,down,0,18.369,,-0.155321181,-0.269166667,1,0,0,0,15,15,67,1,zwart,images/br_zwart.png,images/cb_zwart.png,1,zwart,,,,,,,,,,,,,,,,,,,,,
,,,,,00008,2023-07-27_23h02.34.226,vbt_B1_day4,2022.2.4,MacIntel,60.0024001,,,,,,down,0,10.4342,,-0.155321181,-0.269166667,1,0,0,0,16,16,103,1,joggen,images/br_joggen.png,images/cb_joggen.png,0,,,,,,,,,,,,,,,,,,,,,,
,,,,,00008,2023-07-27_23h02.34.226,vbt_B1_day4,2022.2.4,MacIntel,60.0024001,,,,,,down,0,0.7503,,-0.155321181,-0.269166667,1,0,0,0,17,17,189,1,aanraden,images/br_aanraden.png,images/cb_aanraden.png,0,,,,,,,,,,,,,,,,,,,,,,
,,,,,00008,2023-07-27_23h02.34.226,vbt_B1_day4,2022.2.4,MacIntel,60.0024001,,,,,,down,0,30.3173,,-0.155321181,-0.269166667,1,0,0,0,18,18,185,1,mijnheer,images/br_mijnheer.png,images/cb_mijnheer.png,1,mijnheer,,,,,,,,,,,,,,,,,,,,,
,,,,,00008,2023-07-27_23h02.34.226,vbt_B1_day4,2022.2.4,MacIntel,60.0024001,,,,,,down,0,0.0249,,-0.155321181,-0.269166667,1,0,0,0,19,19,81,1,dubbel,images/br_dubbel.png,images/cb_dubbel.png,0,,,,,,,,,,,,,,,,,,,,,,
,,,,,00008,2023-07-27_23h02.34.226,vbt_B1_day4,2022.2.4,MacIntel,60.0024001,,,,,,down,0,8.4914,,-0.155321181,-0.269166667,1,0,0,0,20,20,17,1,taal,images/br_taal.png,images/cb_taal.png,0,,,,,,,,,,,,,,,,,,,,,,
,,,,,00008,2023-07-27_23h02.34.226,vbt_B1_day4,2022.2.4,MacIntel,60.0024001,,,,,,down,0,2.0499,,-0.155321181,-0.269166667,1,0,0,0,21,21,199,1,beseffen,images/br_beseffen.png,images/cb_beseffen.png,0,,,,,,,,,,,,,,,,,,,,,,
,,,,,00008,2023-07-27_23h02.34.226,vbt_B1_day4,2022.2.4,MacIntel,60.0024001,,,,,,down,0,1.8332,,-0.157508681,-0.267855903,1,0,0,0,22,22,84,1,lokken,images/br_lokken.png,images/cb_lokken.png,0,,,,,,,,,,,,,,,,,,,,,,
,,,,,00008,2023-07-27_23h02.34.226,vbt_B1_day4,2022.2.4,MacIntel,60.0024001,,,,,,down,0,0.5166,,-0.159965278,-0.26750434,1,0,0,0,23,23,28,1,stal,images/br_stal.png,images/cb_stal.png,0,,,,,,,,,,,,,,,,,,,,,,
,,,,,00008,2023-07-27_23h02.34.226,vbt_B1_day4,2022.2.4,MacIntel,60.0024001,,,,,,down,0,0.8516,,-0.161671007,-0.268025174,1,0,0,0,24,24,80,1,kanjer,images/br_kanjer.png,images/cb_kanjer.png,0,,,,,,,,,,,,,,,,,,,,,,
,,,,,00008,2023-07-27_23h02.34.226,vbt_B1_day4,2022.2.4,MacIntel,60.0024001,,,,,,down,0,0.0515,,-0.164210069,-0.266770833,1,0,0,0,25,25,32,1,palm,images/br_palm.png,images/cb_palm.png,0,,,,,,,,,,,,,,,,,,,,,,
,,,,,00008,2023-07-27_23h02.34.226,vbt_B1_day4,2022.2.4,MacIntel,60.0024001,,,,,,down,0,9.1198,,-0.164210069,-0.266770833,1,0,0,0,26,26,146,1,opkomen,images/br_opkomen.png,images/cb_opkomen.png,1,opkomen,,,,,,,,,,,,,,,,,,,,,
,,,,,00008,2023-07-27_23h02.34.226,vbt_B1_day4,2022.2.4,MacIntel,60.0024001,,,,,,down,0,0.9852,,-0.164210069,-0.266770833,1,0,0,0,27,27,89,1,slapen,images/br_slapen.png,images/cb_slapen.png,0,,,,,,,,,,,,,,,,,,,,,,
,,,,,00008,2023-07-27_23h02.34.226,vbt_B1_day4,2022.2.4,MacIntel,60.0024001,,,,,,down,0,11.3845,,-0.164210069,-0.266770833,1,0,0,0,28,28,186,1,voorraad,images/br_voorraad.png,images/cb_voorraad.png,1,voorraad,,,,,,,,,,,,,,,,,,,,,
,,,,,00008,2023-07-27_23h02.34.226,vbt_B1_day4,2022.2.4,MacIntel,60.0024001,,,,,,down,0,2.9678,,-0.164210069,-0.266770833,1,0,0,0,29,29,51,1,samen,images/br_samen.png,images/cb_samen.png,0,,,,,,,,,,,,,,,,,,,,,,
,,,,,00008,2023-07-27_23h02.34.226,vbt_B1_day4,2022.2.4,MacIntel,60.0024001,,,,,,down,0,4.7505,,-0.164210069,-0.266770833,1,0,0,0,30,30,27,1,dans,images/br_dans.png,images/cb_dans.png,1,dans,,,,,,,,,,,,,,,,,,,,,
,,,,,00008,2023-07-27_23h02.34.226,vbt_B1_day4,2022.2.4,MacIntel,60.0024001,,,,,,down,0,2.0501,,-0.164210069,-0.266770833,1,0,0,0,31,31,176,1,techniek,images/br_techniek.png,images/cb_techniek.png,0,,,,,,,,,,,,,,,,,,,,,,
,,,,,00008,2023-07-27_23h02.34.226,vbt_B1_day4,2022.2.4,MacIntel,60.0024001,,,,,,down,0,0.8503,,-0.164210069,-0.266770833,1,0,0,0,32,32,25,1,plek,images/br_plek.png,images/cb_plek.png,1,plek,,,,,,,,,,,,,,,,,,,,,
,,,,,00008,2023-07-27_23h02.34.226,vbt_B1_day4,2022.2.4,MacIntel,60.0024001,,,,,,down,0,2.7012,,-0.164210069,-0.266770833,1,0,0,0,33,33,149,1,redding,images/br_redding.png,images/cb_redding.png,0,,,,,,,,,,,,,,,,,,,,,,
,,,,,00008,2023-07-27_23h02.34.226,vbt_B1_day4,2022.2.4,MacIntel,60.0024001,,,,,,down,0,2.5374,,-0.164210069,-0.266770833,1,0,0,0,34,34,50,1,stoom,images/br_stoom.png,images/cb_stoom.png,0,,,,,,,,,,,,,,,,,,,,,,
,,,,,00008,2023-07-27_23h02.34.226,vbt_B1_day4,2022.2.4,MacIntel,60.0024001,,,,,,down,0,5.7895,,-0.165842014,-0.266770833,1,0,0,0,35,35,147,1,komisch,images/br_komisch.png,images/cb_komisch.png,1,komisch,,,,,,,,,,,,,,,,,,,,,
,,,,,00008,2023-07-27_23h02.34.226,vbt_B1_day4,2022.2.4,MacIntel,60.0024001,,,,,,down,0,0.783,,-0.165842014,-0.266770833,1,0,0,0,36,36,177,1,maaltijd,images/br_maaltijd.png,images/cb_maaltijd.png,0,,,,,,,,,,,,,,,,,,,,,,
,,,,,00008,2023-07-27_23h02.34.226,vbt_B1_day4,2022.2.4,MacIntel,60.0024001,,,,,,down,0,2.2384,,-0.165842014,-0.266770833,1,0,0,0,37,37,5,1,blad,images/br_blad.png,images/cb_blad.png,0,,,,,,,,,,,,,,,,,,,,,,
,,,,,00008,2023-07-27_23h02.34.226,vbt_B1_day4,2022.2.4,MacIntel,60.0024001,,,,,,down,0,0.1333,,-0.165842014,-0.266770833,1,0,0,0,38,38,37,1,mijn,images/br_mijn.png,images/cb_mijn.png,0,,,,,,,,,,,,,,,,,,,,,,
,,,,,00008,2023-07-27_23h02.34.226,vbt_B1_day4,2022.2.4,MacIntel,60.0024001,,,,,,down,0,1.4833,,-0.165842014,-0.266770833,1,0,0,0,39,39,61,1,groen,images/br_groen.png,images/cb_groen.png,0,,,,,,,,,,,,,,,,,,,,,,
,,,,,00008,2023-07-27_23h02.34.226,vbt_B1_day4,2022.2.4,MacIntel,60.0024001,,,,,,down,0,15.934,,-0.165842014,-0.266770833,1,0,0,0,40,40,48,1,steel,images/br_steel.png,images/cb_steel.png,0,,,,,,,,,,,,,,,,,,,,,,
,,,,,00008,2023-07-27_23h02.34.226,vbt_B1_day4,2022.2.4,MacIntel,60.0024001,,,,,,down,0,2.5851,,-0.165842014,-0.266770833,1,0,0,0,41,41,4,1,moes,images/br_moes.png,images/cb_moes.png,0,,,,,,,,,,,,,,,,,,,,,,
,,,,,00008,2023-07-27_23h02.34.226,vbt_B1_day4,2022.2.4,MacIntel,60.0024001,,,,,,down,0,6.0224,,-0.165842014,-0.266770833,1,0,0,0,42,42,165,1,feestdag,images/br_feestdag.png,images/cb_feestdag.png,0,,,,,,,,,,,,,,,,,,,,,,
,,,,,00008,2023-07-27_23h02.34.226,vbt_B1_day4,2022.2.4,MacIntel,60.0024001,,,,,,down,0,5.1341,,-0.163537326,-0.265850694,1,0,0,0,43,43,44,1,flits,images/br_flits.png,images/cb_flits.png,0,,,,,,,,,,,,,,,,,,,,,,
,,,,,00008,2023-07-27_23h02.34.226,vbt_B1_day4,2022.2.4,MacIntel,60.0024001,,,,,,down,0,1.6327,,-0.163537326,-0.265850694,1,0,0,0,44,44,49,1,laken,images/br_laken.png,images/cb_laken.png,0,,,,,,,,,,,,,,,,,,,,,,
,,,,,00008,2023-07-27_23h02.34.226,vbt_B1_day4,2022.2.4,MacIntel,60.0024001,,,,,,down,0,4.0041,,-0.163537326,-0.265850694,1,0,0,0,45,45,113,1,koppen,images/br_koppen.png,images/cb_koppen.png,0,,,,,,,,,,,,,,,,,,,,,,
,,,,,00008,2023-07-27_23h02.34.226,vbt_B1_day4,2022.2.4,MacIntel,60.0024001,,,,,,down,0,2.6145,,-0.163537326,-0.265850694,1,0,0,0,46,46,35,1,lust,images/br_lust.png,images/cb_lust.png,0,,,,,,,,,,,,,,,,,,,,,,
,,,,,00008,2023-07-27_23h02.34.226,vbt_B1_day4,2022.2.4,MacIntel,60.0024001,,,,,,down,0,4.5185,,-0.163537326,-0.265850694,1,0,0,0,47,47,85,1,heilig,images/br_heilig.png,images/cb_heilig.png,0,,,,,,,,,,,,,,,,,,,,,,
,,,,,00008,2023-07-27_23h02.34.226,vbt_B1_day4,2022.2.4,MacIntel,60.0024001,,,,,,down,0,0.9927,,-0.163537326,-0.265850694,1,0,0,0,48,48,91,1,gezond,images/br_gezond.png,images/cb_gezond.png,0,,,,,,,,,,,,,,,,,,,,,,
,,,,,00008,2023-07-27_23h02.34.226,vbt_B1_day4,2022.2.4,MacIntel,60.0024001,,,,,,down,0,6.542,,-0.162756076,-0.265850694,1,0,0,0,49,49,99,1,koffie,images/br_koffie.png,images/cb_koffie.png,0,,,,,,,,,,,,,,,,,,,,,,
,,,,,00008,2023-07-27_23h02.34.226,vbt_B1_day4,2022.2.4,MacIntel,60.0024001,,,,,,down,0,3.0003,,-0.162756076,-0.265850694,1,0,0,0,50,50,73,1,volop,images/br_volop.png,images/cb_volop.png,0,,,,,,,,,,,,,,,,,,,,,,
,,,,,00008,2023-07-27_23h02.34.226,vbt_B1_day4,2022.2.4,MacIntel,60.0024001,,,,,,down,0,2.6559,,-0.162756076,-0.265850694,1,0,0,0,51,51,152,1,afnemen,images/br_afnemen.png,images/cb_afnemen.png,0,,,,,,,,,,,,,,,,,,,,,,
,,,,,00008,2023-07-27_23h02.34.226,vbt_B1_day4,2022.2.4,MacIntel,60.0024001,,,,,,down,0,1.2198,,-0.162756076,-0.265850694,1,0,0,0,52,52,132,1,grappen,images/br_grappen.png,images/cb_grappen.png,0,,,,,,,,,,,,,,,,,,,,,,
,,,,,00008,2023-07-27_23h02.34.226,vbt_B1_day4,2022.2.4,MacIntel,60.0024001,,,,,,down,0,0.3693,,-0.162756076,-0.265850694,1,0,0,0,53,53,1,1,zaal,images/br_zaal.png,images/cb_zaal.png,0,,,,,,,,,,,,,,,,,,,,,,
,,,,,00008,2023-07-27_23h02.34.226,vbt_B1_day4,2022.2.4,MacIntel,60.0024001,,,,,,down,0,0.6664,,-0.162756076,-0.265850694,1,0,0,0,54,54,86,1,woning,images/br_woning.png,images/cb_woning.png,0,,,,,,,,,,,,,,,,,,,,,,
,,,,,00008,2023-07-27_23h02.34.226,vbt_B1_day4,2022.2.4,MacIntel,60.0024001,,,,,,down,0,2.6682,,-0.162756076,-0.265850694,1,0,0,0,55,55,138,1,akkoord,images/br_akkoord.png,images/cb_akkoord.png,0,,,,,,,,,,,,,,,,,,,,,,
,,,,,00008,2023-07-27_23h02.34.226,vbt_B1_day4,2022.2.4,MacIntel,60.0024001,,,,,,down,0,1.6673,,-0.162756076,-0.265850694,1,0,0,0,56,56,8,1,knie,images/br_knie.png,images/cb_knie.png,0,,,,,,,,,,,,,,,,,,,,,,
,,,,,00008,2023-07-27_23h02.34.226,vbt_B1_day4,2022.2.4,MacIntel,60.0024001,,,,,,down,0,2.2171,,-0.162756076,-0.265850694,1,0,0,0,57,57,65,1,parel,images/br_parel.png,images/cb_parel.png,1,parel,,,,,,,,,,,,,,,,,,,,,
,,,,,00008,2023-07-27_23h02.34.226,vbt_B1_day4,2022.2.4,MacIntel,60.0024001,,,,,,down,0,0.8564,,-0.162756076,-0.265850694,1,0,0,0,58,58,74,1,graaf,images/br_graaf.png,images/cb_graaf.png,0,,,,,,,,,,,,,,,,,,,,,,
,,,,,00008,2023-07-27_23h02.34.226,vbt_B1_day4,2022.2.4,MacIntel,60.0024001,,,,,,down,0,1.2239,,-0.162756076,-0.265850694,1,0,0,0,59,59,15,1,soda,images/br_soda.png,images/cb_soda.png,0,,,,,,,,,,,,,,,,,,,,,,
,,,,,00008,2023-07-27_23h02.34.226,vbt_B1_day4,2022.2.4,MacIntel,60.0024001,,,,,,down,0,2.322,,-0.162756076,-0.265850694,1,0,0,0,60,60,111,1,ticket,images/br_ticket.png,images/cb_ticket.png,0,,,,,,,,,,,,,,,,,,,,,,
,,,,,00008,2023-07-27_23h02.34.226,vbt_B1_day4,2022.2.4,MacIntel,60.0024001,,,,,,down,0,0.9185,,-0.162756076,-0.265850694,1,0,0,0,61,61,175,1,heengaan,images/br_heengaan.png,images/cb_heengaan.png,0,,,,,,,,,,,,,,,,,,,,,,
,,,,,00008,2023-07-27_23h02.34.226,vbt_B1_day4,2022.2.4,MacIntel,60.0024001,,,,,,down,0,2.4756,,-0.162756076,-0.265850694,1,0,0,0,62,62,193,1,weeshuis,images/br_weeshuis.png,images/cb_weeshuis.png,0,,,,,,,,,,,,,,,,,,,,,,
,,,,,00008,2023-07-27_23h02.34.226,vbt_B1_day4,2022.2.4,MacIntel,60.0024001,,,,,,down,0,2.2352,,-0.162756076,-0.265850694,1,0,0,0,63,63,196,1,nakijken,images/br_nakijken.png,images/cb_nakijken.png,0,,,,,,,,,,,,,,,,,,,,,,
,,,,,00008,2023-07-27_23h02.34.226,vbt_B1_day4,2022.2.4,MacIntel,60.0024001,,,,,,down,0,0.5541,,-0.162756076,-0.265850694,1,0,0,0,64,64,41,1,maken,images/br_maken.png,images/cb_maken.png,0,,,,,,,,,,,,,,,,,,,,,,
,,,,,00008,2023-07-27_23h02.34.226,vbt_B1_day4,2022.2.4,MacIntel,60.0024001,,,,,,down,0,1.4522,,-0.162756076,-0.265850694,1,0,0,0,65,65,102,1,legaal,images/br_legaal.png,images/cb_legaal.png,0,,,,,,,,,,,,,,,,,,,,,,
,,,,,00008,2023-07-27_23h02.34.226,vbt_B1_day4,2022.2.4,MacIntel,60.0024001,,,,,,down,0,3.3685,,-0.162756076,-0.265850694,1,0,0,0,66,66,160,1,daarheen,images/br_daarheen.png,images/cb_daarheen.png,0,,,,,,,,,,,,,,,,,,,,,,
,,,,,00008,2023-07-27_23h02.34.226,vbt_B1_day4,2022.2.4,MacIntel,60.0024001,,,,,,down,0,0.1088,,-0.162756076,-0.265850694,1,0,0,0,67,67,72,1,strak,images/br_strak.png,images/cb_strak.png,0,,,,,,,,,,,,,,,,,,,,,,
,,,,,00008,2023-07-27_23h02.34.226,vbt_B1_day4,2022.2.4,MacIntel,60.0024001,,,,,,down,0,1.4508,,-0.162756076,-0.265850694,1,0,0,0,68,68,87,1,toeval,images/br_toeval.png,images/cb_toeval.png,0,,,,,,,,,,,,,,,,,,,,,,
,,,,,00008,2023-07-27_23h02.34.226,vbt_B1_day4,2022.2.4,MacIntel,60.0024001,,,,,,down,0,2.884,,-0.162756076,-0.265850694,1,0,0,0,69,69,38,1,baai,images/br_baai.png,images/cb_baai.png,0,,,,,,,,,,,,,,,,,,,,,,
,,,,,00008,2023-07-27_23h02.34.226,vbt_B1_day4,2022.2.4,MacIntel,60.0024001,,,,,,down,0,9.6014,,-0.162756076,-0.265850694,1,0,0,0,70,70,26,1,leuk,images/br_leuk.png,images/cb_leuk.png,1,leuk,,,,,,,,,,,,,,,,,,,,,
,,,,,00008,2023-07-27_23h02.34.226,vbt_B1_day4,2022.2.4,MacIntel,60.0024001,,,,,,down,0,2.9336,,-0.162756076,-0.265850694,1,0,0,0,71,71,139,1,stiekem,images/br_stiekem.png,images/cb_stiekem.png,0,,,,,,,,,,,,,,,,,,,,,,
,,,,,00008,2023-07-27_23h02.34.226,vbt_B1_day4,2022.2.4,MacIntel,60.0024001,,,,,,down,0,0.97,,-0.162756076,-0.265850694,1,0,0,0,72,72,13,1,kaal,images/br_kaal.png,images/cb_kaal.png,0,,,,,,,,,,,,,,,,,,,,,,
,,,,,00008,2023-07-27_23h02.34.226,vbt_B1_day4,2022.2.4,MacIntel,60.0024001,,,,,,down,0,2.9168,,-0.162213542,-0.265594618,1,0,0,0,73,73,55,1,praat,images/br_praat.png,images/cb_praat.png,0,,,,,,,,,,,,,,,,,,,,,,
,,,,,00008,2023-07-27_23h02.34.226,vbt_B1_day4,2022.2.4,MacIntel,60.0024001,,,,,,down,0,12.354,,-0.162213542,-0.265594618,1,0,0,0,74,74,187,1,opkijken,images/br_opkijken.png,images/cb_opkijken.png,1,opkijken,,,,,,,,,,,,,,,,,,,,,
,,,,,00008,2023-07-27_23h02.34.226,vbt_B1_day4,2022.2.4,MacIntel,60.0024001,,,,,,down,0,2.9377,,-0.162213542,-0.265594618,1,0,0,0,75,75,195,1,middelen,images/br_middelen.png,images/cb_middelen.png,0,,,,,,,,,,,,,,,,,,,,,,
,,,,,00008,2023-07-27_23h02.34.226,vbt_B1_day4,2022.2.4,MacIntel,60.0024001,,,,,,down,0,3.7057,,-0.162469618,-0.264813368,1,0,0,0,76,76,77,1,woede,images/br_woede.png,images/cb_woede.png,0,,,,,,,,,,,,,,,,,,,,,,
,,,,,00008,2023-07-27_23h02.34.226,vbt_B1_day4,2022.2.4,MacIntel,60.0024001,,,,,,down,0,4.4215,,-0.162469618,-0.264813368,1,0,0,0,77,77,66,1,lever,images/br_lever.png,images/cb_lever.png,1,lever,,,,,,,,,,,,,,,,,,,,,
,,,,,00008,2023-07-27_23h02.34.226,vbt_B1_day4,2022.2.4,MacIntel,60.0024001,,,,,,down,0,1.6522,,-0.162469618,-0.264813368,1,0,0,0,78,78,131,1,opzicht,images/br_opzicht.png,images/cb_opzicht.png,0,,,,,,,,,,,,,,,,,,,,,,
,,,,,00008,2023-07-27_23h02.34.226,vbt_B1_day4,2022.2.4,MacIntel,60.0024001,,,,,,down,0,4.8669,,-0.162469618,-0.264813368,1,0,0,0,79,79,7,1,geld,images/br_geld.png,images/cb_geld.png,0,,,,,,,,,,,,,,,,,,,,,,
,,,,,00008,2023-07-27_23h02.34.226,vbt_B1_day4,2022.2.4,MacIntel,60.0024001,,,,,,down,0,2.7653,,-0.162469618,-0.264813368,1,0,0,0,80,80,45,1,piste,images/br_piste.png,images/cb_piste.png,0,,,,,,,,,,,,,,,,,,,,,,
,,,,,00008,2023-07-27_23h02.34.226,vbt_B1_day4,2022.2.4,MacIntel,60.0024001,,,,,,down,0,2.8585,,-0.162469618,-0.264813368,1,0,0,0,81,81,143,1,hechten,images/br_hechten.png,images/cb_hechten.png,0,,,,,,,,,,,,,,,,,,,,,,
,,,,,00008,2023-07-27_23h02.34.226,vbt_B1_day4,2022.2.4,MacIntel,60.0024001,,,,,,down,0,1.2576,,-0.162469618,-0.264813368,1,0,0,0,82,82,171,1,aarzelen,images/br_aarzelen.png,images/cb_aarzelen.png,0,,,,,,,,,,,,,,,,,,,,,,
,,,,,00008,2023-07-27_23h02.34.226,vbt_B1_day4,2022.2.4,MacIntel,60.0024001,,,,,,down,0,4.3028,,-0.162469618,-0.264813368,1,0,0,0,83,83,166,1,strikken,images/br_strikken.png,images/cb_strikken.png,0,,,,,,,,,,,,,,,,,,,,,,
,,,,,00008,2023-07-27_23h02.34.226,vbt_B1_day4,2022.2.4,MacIntel,60.0024001,,,,,,down,0,2.3511,,-0.162469618,-0.264813368,1,0,0,0,84,84,126,1,kasteel,images/br_kasteel.png,images/cb_kasteel.png,0,,,,,,,,,,,,,,,,,,,,,,
,,,,,00008,2023-07-27_23h02.34.226,vbt_B1_day4,2022.2.4,MacIntel,60.0024001,,,,,,down,0,0.6747,,-0.162469618,-0.264813368,1,0,0,0,85,85,190,1,goedkoop,images/br_goedkoop.png,images/cb_goedkoop.png,0,,,,,,,,,,,,,,,,,,,,,,
,,,,,00008,2023-07-27_23h02.34.226,vbt_B1_day4,2022.2.4,MacIntel,60.0024001,,,,,,down,0,0.2833,,-0.162469618,-0.264813368,1,0,0,0,86,86,182,1,bijkomen,images/br_bijkomen.png,images/cb_bijkomen.png,0,,,,,,,,,,,,,,,,,,,,,,
,,,,,00008,2023-07-27_23h02.34.226,vbt_B1_day4,2022.2.4,MacIntel,60.0024001,,,,,,down,0,0.733,,-0.162469618,-0.264813368,1,0,0,0,87,87,110,1,zuster,images/br_zuster.png,images/cb_zuster.png,0,,,,,,,,,,,,,,,,,,,,,,
,,,,,00008,2023-07-27_23h02.34.226,vbt_B1_day4,2022.2.4,MacIntel,60.0024001,,,,,,down,0,9.6183,,-0.162469618,-0.264813368,1,0,0,0,88,88,24,1,jurk,images/br_jurk.png,images/cb_jurk.png,1,jurk,,,,,,,,,,,,,,,,,,,,,
,,,,,00008,2023-07-27_23h02.34.226,vbt_B1_day4,2022.2.4,MacIntel,60.0024001,,,,,,down,0,1.5696,,-0.162469618,-0.264813368,1,0,0,0,89,89,10,1,leek,images/br_leek.png,images/cb_leek.png,0,,,,,,,,,,,,,,,,,,,,,,
,,,,,00008,2023-07-27_23h02.34.226,vbt_B1_day4,2022.2.4,MacIntel,60.0024001,,,,,,down,0,1.5679,,-0.162738715,-0.263480903,1,0,0,0,90,90,115,1,kleren,images/br_kleren.png,images/cb_kleren.png,0,,,,,,,,,,,,,,,,,,,,,,
,,,,,00008,2023-07-27_23h02.34.226,vbt_B1_day4,2022.2.4,MacIntel,60.0024001,,,,,,down,0,5.4525,,-0.162738715,-0.263480903,1,0,0,0,91,91,130,1,keihard,images/br_keihard.png,images/cb_keihard.png,0,,,,,,,,,,,,,,,,,,,,,,
,,,,,00008,2023-07-27_23h02.34.226,vbt_B1_day4,2022.2.4,MacIntel,60.0024001,,,,,,down,0,2.1186,,-0.163537326,-0.263211806,1,0,0,0,92,92,172,1,weigeren,images/br_weigeren.png,images/cb_weigeren.png,0,,,,,,,,,,,,,,,,,,,,,,
,,,,,00008,2023-07-27_23h02.34.226,vbt_B1_day4,2022.2.4,MacIntel,60.0024001,,,,,,down,0,0.6919,,-0.163537326,-0.263211806,1,0,0,0,93,93,123,1,hiervan,images/br_hiervan.png,images/cb_hiervan.png,0,,,,,,,,,,,,,,,,,,,,,,
,,,,,00008,2023-07-27_23h02.34.226,vbt_B1_day4,2022.2.4,MacIntel,60.0024001,,,,,,down,0,4.8837,,-0.163537326,-0.262955729,1,0,0,0,94,94,168,1,bisschop,images/br_bisschop.png,images/cb_bisschop.png,0,,,,,,,,,,,,,,,,,,,,,,
,,,,,00008,2023-07-27_23h02.34.226,vbt_B1_day4,2022.2.4,MacIntel,60.0024001,,,,,,down,0,2.8023,,-0.163537326,-0.262955729,1,0,0,0,95,95,75,1,snoep,images/br_snoep.png,images/cb_snoep.png,0,,,,,,,,,,,,,,,,,,,,,,
,,,,,00008,2023-07-27_23h02.34.226,vbt_B1_day4,2022.2.4,MacIntel,60.0024001,,,,,,down,0,5.5172,,-0.163537326,-0.262955729,1,0,0,0,96,96,79,1,nodig,images/br_nodig.png,images/cb_nodig.png,0,,,,,,,,,,,,,,,,,,,,,,
,,,,,00008,2023-07-27_23h02.34.226,vbt_B1_day4,2022.2.4,MacIntel,60.0024001,,,,,,down,0,2.7032,,-0.163537326,-0.262955729,1,0,0,0,97,97,69,1,waken,images/br_waken.png,images/cb_waken.png,0,,,,,,,,,,,,,,,,,,,,,,
,,,,,00008,2023-07-27_23h02.34.226,vbt_B1_day4,2022.2.4,MacIntel,60.0024001,,,,,,down,0,3.3332,,-0.163537326,-0.262955729,1,0,0,0,98,98,57,1,steek,images/br_steek.png,images/cb_steek.png,0,,,,,,,,,,,,,,,,,,,,,,
,,,,,00008,2023-07-27_23h02.34.226,vbt_B1_day4,2022.2.4,MacIntel,60.0024001,,,,,,down,0,0.5173,,-0.163537326,-0.262955729,1,0,0,0,99,99,188,1,strekken,images/br_strekken.png,images/cb_strekken.png,0,,,,,,,,,,,,,,,,,,,,,,
,,,,,00008,2023-07-27_23h02.34.226,vbt_B1_day4,2022.2.4,MacIntel,60.0024001,,,,,,down,0,1.45,,-0.155147569,-0.264101562,1,0,0,0,100,100,129,1,verhaal,images/br_verhaal.png,images/cb_verhaal.png,0,,,,,,,,,,,,,,,,,,,,,,
,,,,,00008,2023-07-27_23h02.34.226,vbt_B1_day4,2022.2.4,MacIntel,60.0024001,,,,,,down,0,3.4723,,-0.155434028,-0.261623264,1,0,0,0,101,101,70,1,ijdel,images/br_ijdel.png,images/cb_ijdel.png,0,,,,,,,,,,,,,,,,,,,,,,
,,,,,00008,2023-07-27_23h02.34.226,vbt_B1_day4,2022.2.4,MacIntel,60.0024001,,,,,,down,0,2.1036,,-0.153185764,-0.262256944,1,0,0,0,102,102,90,1,geluid,images/br_geluid.png,images/cb_geluid.png,0,,,,,,,,,,,,,,,,,,,,,,
,,,,,00008,2023-07-27_23h02.34.226,vbt_B1_day4,2022.2.4,MacIntel,60.0024001,,,,,,down,0,12.5342,,-0.153715278,-0.26171441,1,0,0,0,103,103,105,1,wijlen,images/br_wijlen.png,images/cb_wijlen.png,1,wijlen,,,,,,,,,,,,,,,,,,,,,
,,,,,00008,2023-07-27_23h02.34.226,vbt_B1_day4,2022.2.4,MacIntel,60.0024001,,,,,,down,0,1.084,,-0.153715278,-0.26171441,1,0,0,0,104,104,16,1,ziek,images/br_ziek.png,images/cb_ziek.png,0,,,,,,,,,,,,,,,,,,,,,,
,,,,,00008,2023-07-27_23h02.34.226,vbt_B1_day4,2022.2.4,MacIntel,60.0024001,,,,,,down,0,2.9371,,-0.153715278,-0.26171441,1,0,0,0,105,105,94,1,oceaan,images/br_oceaan.png,images/cb_oceaan.png,0,,,,,,,,,,,,,,,,,,,,,,
,,,,,00008,2023-07-27_23h02.34.226,vbt_B1_day4,2022.2.4,MacIntel,60.0024001,,,,,,down,0,1.0704,,-0.153715278,-0.261458333,1,0,0,0,106,106,167,1,eenhoorn,images/br_eenhoorn.png,images/cb_eenhoorn.png,0,,,,,,,,,,,,,,,,,,,,,,
,,,,,00008,2023-07-27_23h02.34.226,vbt_B1_day4,2022.2.4,MacIntel,60.0024001,,,,,,down,0,1.6003,,-0.153715278,-0.261458333,1,0,0,0,107,107,12,1,kust,images/br_kust.png,images/cb_kust.png,0,,,,,,,,,,,,,,,,,,,,,,
,,,,,00008,2023-07-27_23h02.34.226,vbt_B1_day4,2022.2.4,MacIntel,60.0024001,,,,,,down,0,2.5498,,-0.153715278,-0.261458333,1,0,0,0,108,108,92,1,geheim,images/br_geheim.png,images/cb_geheim.png,0,,,,,,,,,,,,,,,,,,,,,,
,,,,,00008,2023-07-27_23h02.34.226,vbt_B1_day4,2022.2.4,MacIntel,60.0024001,,,,,,down,0,7.2538,,-0.153715278,-0.261458333,1,0,0,0,109,109,125,1,aanzien,images/br_aanzien.png,images/cb_aanzien.png,0,,,,,,,,,,,,,,,,,,,,,,
,,,,,00008,2023-07-27_23h02.34.226,vbt_B1_day4,2022.2.4,MacIntel,60.0024001,,,,,,down,0,2.3031,,-0.153715278,-0.261458333,1,0,0,0,110,110,169,1,oprotten,images/br_oprotten.png,images/cb_oprotten.png,0,,,,,,,,,,,,,,,,,,,,,,
,,,,,00008,2023-07-27_23h02.34.226,vbt_B1_day4,2022.2.4,MacIntel,60.0024001,,,,,,down,0,2.6854,,-0.153715278,-0.261458333,1,0,0,0,111,111,121,1,twijfel,images/br_twijfel.png,images/cb_twijfel.png,0,,,,,,,,,,,,,,,,,,,,,,
,,,,,00008,2023-07-27_23h02.34.226,vbt_B1_day4,2022.2.4,MacIntel,60.0024001,,,,,,down,0,0.8675,,-0.153715278,-0.261458333,1,0,0,0,112,112,46,1,jagen,images/br_jagen.png,images/cb_jagen.png,0,,,,,,,,,,,,,,,,,,,,,,
,,,,,00008,2023-07-27_23h02.34.226,vbt_B1_day4,2022.2.4,MacIntel,60.0024001,,,,,,down,0,2.281,,-0.153715278,-0.261458333,1,0,0,0,113,113,170,1,schatten,images/br_schatten.png,images/cb_schatten.png,0,,,,,,,,,,,,,,,,,,,,,,
,,,,,00008,2023-07-27_23h02.34.226,vbt_B1_day4,2022.2.4,MacIntel,60.0024001,,,,,,down,0,0.7417,,-0.153715278,-0.261458333,1,0,0,0,114,114,178,1,huisdier,images/br_huisdier.png,images/cb_huisdier.png,0,,,,,,,,,,,,,,,,,,,,,,
,,,,,00008,2023-07-27_23h02.34.226,vbt_B1_day4,2022.2.4,MacIntel,60.0024001,,,,,,down,0,3.5669,,-0.153715278,-0.261458333,1,0,0,0,115,115,53,1,baron,images/br_baron.png,images/cb_baron.png,0,,,,,,,,,,,,,,,,,,,,,,
,,,,,00008,2023-07-27_23h02.34.226,vbt_B1_day4,2022.2.4,MacIntel,60.0024001,,,,,,down,0,8.7343,,-0.153715278,-0.261458333,1,0,0,0,116,116,145,1,invloed,images/br_invloed.png,images/cb_invloed.png,1,invloed,,,,,,,,,,,,,,,,,,,,,
,,,,,00008,2023-07-27_23h02.34.226,vbt_B1_day4,2022.2.4,MacIntel,60.0024001,,,,,,down,0,0.667,,-0.158033854,-0.257000868,1,0,0,0,117,117,164,1,anarchie,images/br_anarchie.png,images/cb_anarchie.png,0,,,,,,,,,,,,,,,,,,,,,,
,,,,,00008,2023-07-27_23h02.34.226,vbt_B1_day4,2022.2.4,MacIntel,60.0024001,,,,,,down,0,2.9189,,-0.160238715,-0.256440972,1,0,0,0,118,118,19,1,geit,images/br_geit.png,images/cb_geit.png,0,,,,,,,,,,,,,,,,,,,,,,
,,,,,00008,2023-07-27_23h02.34.226,vbt_B1_day4,2022.2.4,MacIntel,60.0024001,,,,,,down,0,0.0499,,-0.161028646,-0.256992188,1,0,0,0,119,119,109,1,totaal,images/br_totaal.png,images/cb_totaal.png,0,,,,,,,,,,,,,,,,,,,,,,
,,,,,00008,2023-07-27_23h02.34.226,vbt_B1_day4,2022.2.4,MacIntel,60.0024001,,,,,,down,0,1.2385,,-0.161549479,-0.256992188,1,0,0,0,120,120,62,1,knaap,images/br_knaap.png,images/cb_knaap.png,0,,,,,,,,,,,,,,,,,,,,,,
,,,,,00008,2023-07-27_23h02.34.226,vbt_B1_day4,2022.2.4,MacIntel,60.0024001,,,,,,down,0,1.516,,-0.161549479,-0.256992188,1,0,0,0,121,121,158,1,innemen,images/br_innemen.png,images/cb_innemen.png,0,,,,,,,,,,,,,,,,,,,,,,
,,,,,00008,2023-07-27_23h02.34.226,vbt_B1_day4,2022.2.4,MacIntel,60.0024001,,,,,,down,0,0.7066,,-0.161549479,-0.256992188,1,0,0,0,122,122,108,1,excuus,images/br_excuus.png,images/cb_excuus.png,0,,,,,,,,,,,,,,,,,,,,,,
,,,,,00008,2023-07-27_23h02.34.226,vbt_B1_day4,2022.2.4,MacIntel,60.0024001,,,,,,down,0,0.7674,,-0.161549479,-0.256992188,1,0,0,0,123,123,0,1,slak,images/br_slak.png,images/cb_slak.png,0,,,,,,,,,,,,,,,,,,,,,,
,,,,,00008,2023-07-27_23h02.34.226,vbt_B1_day4,2022.2.4,MacIntel,60.0024001,,,,,,down,0,0.809,,-0.161549479,-0.256992188,1,0,0,0,124,124,140,1,blijven,images/br_blijven.png,images/cb_blijven.png,0,,,,,,,,,,,,,,,,,,,,,,
,,,,,00008,2023-07-27_23h02.34.226,vbt_B1_day4,2022.2.4,MacIntel,60.0024001,,,,,,down,0,1.9648,,-0.161549479,-0.256992188,1,0,0,0,125,125,96,1,slagen,images/br_slagen.png,images/cb_slagen.png,0,,,,,,,,,,,,,,,,,,,,,,
,,,,,00008,2023-07-27_23h02.34.226,vbt_B1_day4,2022.2.4,MacIntel,60.0024001,,,,,,down,0,1.8321,,-0.161549479,-0.256992188,1,0,0,0,126,126,47,1,kabel,images/br_kabel.png,images/cb_kabel.png,0,,,,,,,,,,,,,,,,,,,,,,
,,,,,00008,2023-07-27_23h02.34.226,vbt_B1_day4,2022.2.4,MacIntel,60.0024001,,,,,,down,0,1.6529,,-0.161549479,-0.256992188,1,0,0,0,127,127,183,1,getuigen,images/br_getuigen.png,images/cb_getuigen.png,0,,,,,,,,,,,,,,,,,,,,,,
,,,,,00008,2023-07-27_23h02.34.226,vbt_B1_day4,2022.2.4,MacIntel,60.0024001,,,,,,down,0,0.9176,,-0.161549479,-0.258302951,1,0,0,0,128,128,137,1,trekker,images/br_trekker.png,images/cb_trekker.png,0,,,,,,,,,,,,,,,,,,,,,,
,,,,,00008,2023-07-27_23h02.34.226,vbt_B1_day4,2022.2.4,MacIntel,60.0024001,,,,,,down,0,1.9337,,-0.161814236,-0.261006944,1,0,0,0,129,129,22,1,stof,images/br_stof.png,images/cb_stof.png,0,,,,,,,,,,,,,,,,,,,,,,
,,,,,00008,2023-07-27_23h02.34.226,vbt_B1_day4,2022.2.4,MacIntel,60.0024001,,,,,,down,0,3.9812,,-0.161814236,-0.261006944,1,0,0,0,130,130,180,1,openbaar,images/br_openbaar.png,images/cb_openbaar.png,0,,,,,,,,,,,,,,,,,,,,,,
,,,,,00008,2023-07-27_23h02.34.226,vbt_B1_day4,2022.2.4,MacIntel,60.0024001,,,,,,down,0,0.5708,,-0.161814236,-0.261006944,1,0,0,0,131,131,124,1,bloeien,images/br_bloeien.png,images/cb_bloeien.png,0,,,,,,,,,,,,,,,,,,,,,,
,,,,,00008,2023-07-27_23h02.34.226,vbt_B1_day4,2022.2.4,MacIntel,60.0024001,,,,,,down,0,1.1191,,-0.161814236,-0.261006944,1,0,0,0,132,132,101,1,staren,images/br_staren.png,images/cb_staren.png,0,,,,,,,,,,,,,,,,,,,,,,
,,,,,00008,2023-07-27_23h02.34.226,vbt_B1_day4,2022.2.4,MacIntel,60.0024001,,,,,,down,0,1.2045,,-0.161814236,-0.261006944,1,0,0,0,133,133,122,1,waarvan,images/br_waarvan.png,images/cb_waarvan.png,0,,,,,,,,,,,,,,,,,,,,,,
,,,,,00008,2023-07-27_23h02.34.226,vbt_B1_day4,2022.2.4,MacIntel,60.0024001,,,,,,down,0,0.6669,,-0.161814236,-0.261006944,1,0,0,0,134,134,134,1,geliefd,images/br_geliefd.png,images/cb_geliefd.png,0,,,,,,,,,,,,,,,,,,,,,,
,,,,,00008,2023-07-27_23h02.34.226,vbt_B1_day4,2022.2.4,MacIntel,60.0024001,,,,,,down,0,1.5692,,-0.161814236,-0.261006944,1,0,0,0,135,135,93,1,waarop,images/br_waarop.png,images/cb_waarop.png,0,,,,,,,,,,,,,,,,,,,,,,
,,,,,00008,2023-07-27_23h02.34.226,vbt_B1_day4,2022.2.4,MacIntel,60.0024001,,,,,,down,0,3.1176,,-0.161814236,-0.261006944,1,0,0,0,136,136,23,1,zout,images/br_zout.png,images/cb_zout.png,0,,,,,,,,,,,,,,,,,,,,,,
,,,,,00008,2023-07-27_23h02.34.226,vbt_B1_day4,2022.2.4,MacIntel,60.0024001,,,,,,down,0,3.1514,,-0.162361111,-0.273407118,1,0,0,0,137,137,2,1,jaar,images/br_jaar.png,images/cb_jaar.png,0,,,,,,,,,,,,,,,,,,,,,,
,,,,,00008,2023-07-27_23h02.34.226,vbt_B1_day4,2022.2.4,MacIntel,60.0024001,,,,,,down,0,0.3366,,-0.162361111,-0.273407118,0,0,1,0,138,138,52,1,wagon,images/br_wagon.png,images/cb_wagon.png,0,,,,,,,,,,,,,,,,,,,,,,
,,,,,00008,2023-07-27_23h02.34.226,vbt_B1_day4,2022.2.4,MacIntel,60.0024001,,,,,,down,0,0.7405,,-0.173081597,-0.189895833,1,0,1,0,139,139,9,1,hier,images/br_hier.png,images/cb_hier.png,0,,,,,,,,,,,,,,,,,,,,,,
,,,,,00008,2023-07-27_23h02.34.226,vbt_B1_day4,2022.2.4,MacIntel,60.0024001,,,,,,down,0,0.2841,,-0.173081597,-0.189895833,1,0,1,0,140,140,117,1,kennis,images/br_kennis.png,images/cb_kennis.png,0,,,,,,,,,,,,,,,,,,,,,,
,,,,,00008,2023-07-27_23h02.34.226,vbt_B1_day4,2022.2.4,MacIntel,60.0024001,,,,,,down,0,2.2838,,-0.173355035,-0.187508681,1,0,1,0,141,141,133,1,seizoen,images/br_seizoen.png,images/cb_seizoen.png,0,,,,,,,,,,,,,,,,,,,,,,
,,,,,00008,2023-07-27_23h02.34.226,vbt_B1_day4,2022.2.4,MacIntel,60.0024001,,,,,,down,0,23.5838,,-0.173355035,-0.187508681,1,0,1,0,142,142,118,1,vinger,images/br_vinger.png,images/cb_vinger.png,0,,,,,,,,,,,,,,,,,,,,,,
,,,,,00008,2023-07-27_23h02.34.226,vbt_B1_day4,2022.2.4,MacIntel,60.0024001,,,,,,down,0,20.5904,,-0.173355035,-0.187508681,1,0,1,0,143,143,29,1,baas,images/br_baas.png,images/cb_baas.png,0,,,,,,,,,,,,,,,,,,,,,,
,,,,,00008,2023-07-27_23h02.34.226,vbt_B1_day4,2022.2.4,MacIntel,60.0024001,,,,,,down,0,21.6998,,-0.173355035,-0.185481771,1,0,1,0,144,144,104,1,zweven,images/br_zweven.png,images/cb_zweven.png,1,zweven,,,,,,,,,,,,,,,,,,,,,
,,,,,00008,2023-07-27_23h02.34.226,vbt_B1_day4,2022.2.4,MacIntel,60.0024001,,,,,,down,0,1.5505,,-0.173355035,-0.185481771,1,0,1,0,145,145,174,1,stemming,images/br_stemming.png,images/cb_stemming.png,0,,,,,,,,,,,,,,,,,,,,,,
,,,,,00008,2023-07-27_23h02.34.226,vbt_B1_day4,2022.2.4,MacIntel,60.0024001,,,,,,down,0,5.8687,,-0.173355035,-0.185481771,1,0,1,0,146,146,154,1,aflopen,images/br_aflopen.png,images/cb_aflopen.png,0,,,,,,,,,,,,,,,,,,,,,,
,,,,,00008,2023-07-27_23h02.34.226,vbt_B1_day4,2022.2.4,MacIntel,60.0024001,,,,,,down,0,0.4006,,-0.173355035,-0.185481771,1,0,1,0,147,147,162,1,uitdelen,images/br_uitdelen.png,images/cb_uitdelen.png,0,,,,,,,,,,,,,,,,,,,,,,
,,,,,00008,2023-07-27_23h02.34.226,vbt_B1_day4,2022.2.4,MacIntel,60.0024001,,,,,,down,0,0.5024,,-0.173355035,-0.185481771,1,0,1,0,148,148,14,1,rijp,images/br_rijp.png,images/cb_rijp.png,0,,,,,,,,,,,,,,,,,,,,,,
,,,,,00008,2023-07-27_23h02.34.226,vbt_B1_day4,2022.2.4,MacIntel,60.0024001,,,,,,down,0,6.3713,,-0.173355035,-0.185481771,1,0,1,0,149,149,58,1,tekst,images/br_tekst.png,images/cb_tekst.png,0,,,,,,,,,,,,,,,,,,,,,,
,,,,,00008,2023-07-27_23h02.34.226,vbt_B1_day4,2022.2.4,MacIntel,60.0024001,,,,,,down,0,7.7578,,-0.173355035,-0.185481771,1,0,1,0,150,150,106,1,zingen,images/br_zingen.png,images/cb_zingen.png,1,zingen,,,,,,,,,,,,,,,,,,,,,
,,,,,00008,2023-07-27_23h02.34.226,vbt_B1_day4,2022.2.4,MacIntel,60.0024001,,,,,,down,0,0.6664,,-0.173355035,-0.185481771,1,0,1,0,151,151,127,1,doodmoe,images/br_doodmoe.png,images/cb_doodmoe.png,0,,,,,,,,,,,,,,,,,,,,,,
,,,,,00008,2023-07-27_23h02.34.226,vbt_B1_day4,2022.2.4,MacIntel,60.0024001,,,,,,down,0,2.8827,,-0.173355035,-0.185225694,1,0,1,0,152,152,141,1,knielen,images/br_knielen.png,images/cb_knielen.png,0,,,,,,,,,,,,,,,,,,,,,,
,,,,,00008,2023-07-27_23h02.34.226,vbt_B1_day4,2022.2.4,MacIntel,60.0024001,,,,,,down,0,0.1839,,-0.173355035,-0.185225694,1,0,1,0,153,153,148,1,smullen,images/br_smullen.png,images/cb_smullen.png,0,,,,,,,,,,,,,,,,,,,,,,
,,,,,00008,2023-07-27_23h02.34.226,vbt_B1_day4,2022.2.4,MacIntel,60.0024001,,,,,,down,0,0.9843,,-0.173355035,-0.185225694,1,0,1,0,154,154,76,1,afval,images/br_afval.png,images/cb_afval.png,0,,,,,,,,,,,,,,,,,,,,,,
,,,,,00008,2023-07-27_23h02.34.226,vbt_B1_day4,2022.2.4,MacIntel,60.0024001,,,,,,down,0,1.0685,,-0.173355035,-0.185225694,1,0,1,0,155,155,60,1,jasje,images/br_jasje.png,images/cb_jasje.png,0,,,,,,,,,,,,,,,,,,,,,,
,,,,,00008,2023-07-27_23h02.34.226,vbt_B1_day4,2022.2.4,MacIntel,60.0024001,,,,,,down,0,0.9176,,-0.173355035,-0.184431424,1,0,1,0,156,156,197,1,spanning,images/br_spanning.png,images/cb_spanning.png,0,,,,,,,,,,,,,,,,,,,,,,
,,,,,00008,2023-07-27_23h02.34.226,vbt_B1_day4,2022.2.4,MacIntel,60.0024001,,,,,,down,0,1.6253,,-0.174149306,-0.18469184,1,0,1,0,157,157,153,1,vervoer,images/br_vervoer.png,images/cb_vervoer.png,0,,,,,,,,,,,,,,,,,,,,,,
,,,,,00008,2023-07-27_23h02.34.226,vbt_B1_day4,2022.2.4,MacIntel,60.0024001,,,,,,down,0,0.6725,,-0.174665799,-0.18469184,1,0,1,0,158,158,54,1,gebit,images/br_gebit.png,images/cb_gebit.png,0,,,,,,,,,,,,,,,,,,,,,,
,,,,,00008,2023-07-27_23h02.34.226,vbt_B1_day4,2022.2.4,MacIntel,60.0024001,,,,,,down,0,0.2183,,-0.174665799,-0.18469184,1,0,1,0,159,159,36,1,vuur,images/br_vuur.png,images/cb_vuur.png,0,,,,,,,,,,,,,,,,,,,,,,
,,,,,00008,2023-07-27_23h02.34.226,vbt_B1_day4,2022.2.4,MacIntel,60.0024001,,,,,,down,0,2.3027,,-0.174665799,-0.18469184,1,0,1,0,160,160,78,1,leren,images/br_leren.png,images/cb_leren.png,0,,,,,,,,,,,,,,,,,,,,,,
,,,,,00008,2023-07-27_23h02.34.226,vbt_B1_day4,2022.2.4,MacIntel,60.0024001,,,,,,down,0,0.2328,,-0.175217014,-0.183888889,1,0,1,0,161,161,56,1,traag,images/br_traag.png,images/cb_traag.png,0,,,,,,,,,,,,,,,,,,,,,,
,,,,,00008,2023-07-27_23h02.34.226,vbt_B1_day4,2022.2.4,MacIntel,60.0024001,,,,,,down,0,0.5341,,-0.173611111,-0.182795139,1,0,1,0,162,162,63,1,flirt,images/br_flirt.png,images/cb_flirt.png,0,,,,,,,,,,,,,,,,,,,,,,
,,,,,00008,2023-07-27_23h02.34.226,vbt_B1_day4,2022.2.4,MacIntel,60.0024001,,,,,,down,0,3.1839,,-0.173420139,-0.184930556,1,0,1,0,163,163,30,1,uien,images/br_uien.png,images/cb_uien.png,0,,,,,,,,,,,,,,,,,,,,,,
,,,,,00008,2023-07-27_23h02.34.226,vbt_B1_day4,2022.2.4,MacIntel,60.0024001,,,,,,down,0,3.6675,,-0.173420139,-0.184930556,1,0,1,0,164,164,142,1,snuiven,images/br_snuiven.png,images/cb_snuiven.png,0,,,,,,,,,,,,,,,,,,,,,,
,,,,,00008,2023-07-27_23h02.34.226,vbt_B1_day4,2022.2.4,MacIntel,60.0024001,,,,,,down,0,0.0739,,-0.173949653,-0.184322917,1,0,1,0,165,165,173,1,apparaat,images/br_apparaat.png,images/cb_apparaat.png,0,,,,,,,,,,,,,,,,,,,,,,
,,,,,00008,2023-07-27_23h02.34.226,vbt_B1_day4,2022.2.4,MacIntel,60.0024001,,,,,,down,0,5.833,,-0.168363715,-0.194722222,1,0,1,0,166,166,83,1,mening,images/br_mening.png,images/cb_mening.png,0,,,,,,,,,,,,,,,,,,,,,,
,,,,,00008,2023-07-27_23h02.34.226,vbt_B1_day4,2022.2.4,MacIntel,60.0024001,,,,,,down,0,6.9992,,-0.168363715,-0.194722222,1,0,1,0,167,167,181,1,toegeven,images/br_toegeven.png,images/cb_toegeven.png,0,,,,,,,,,,,,,,,,,,,,,,
,,,,,00008,2023-07-27_23h02.34.226,vbt_B1_day4,2022.2.4,MacIntel,60.0024001,,,,,,down,0,1.4342,,-0.168363715,-0.194722222,1,0,1,0,168,168,59,1,kring,images/br_kring.png,images/cb_kring.png,0,,,,,,,,,,,,,,,,,,,,,,
,,,,,00008,2023-07-27_23h02.34.226,vbt_B1_day4,2022.2.4,MacIntel,60.0024001,,,,,,down,0,5.4564,,-0.168363715,-0.194722222,1,0,1,0,169,169,64,1,wegen,images/br_wegen.png,images/cb_wegen.png,1,wegen,,,,,,,,,,,,,,,,,,,,,
,,,,,00008,2023-07-27_23h02.34.226,vbt_B1_day4,2022.2.4,MacIntel,60.0024001,,,,,,down,0,2.1063,,-0.168363715,-0.194722222,1,0,1,0,170,170,161,1,attentie,images/br_attentie.png,images/cb_attentie.png,0,,,,,,,,,,,,,,,,,,,,,,
,,,,,00008,2023-07-27_23h02.34.226,vbt_B1_day4,2022.2.4,MacIntel,60.0024001,,,,,,down,0,70.0411,,-0.168363715,-0.194722222,1,0,1,0,171,171,98,1,kreeft,images/br_kreeft.png,images/cb_kreeft.png,0,,,,,,,,,,,,,,,,,,,,,,
,,,,,00008,2023-07-27_23h02.34.226,vbt_B1_day4,2022.2.4,MacIntel,60.0024001,,,,,,down,0,0.2699,,-0.168363715,-0.194722222,1,0,1,0,172,172,156,1,rechten,images/br_rechten.png,images/cb_rechten.png,0,,,,,,,,,,,,,,,,,,,,,,
,,,,,00008,2023-07-27_23h02.34.226,vbt_B1_day4,2022.2.4,MacIntel,60.0024001,,,,,,down,0,0.8468,,-0.168363715,-0.194722222,1,0,1,0,173,173,39,1,laag,images/br_laag.png,images/cb_laag.png,0,,,,,,,,,,,,,,,,,,,,,,
,,,,,00008,2023-07-27_23h02.34.226,vbt_B1_day4,2022.2.4,MacIntel,60.0024001,,,,,,down,0,0.6337,,-0.168363715,-0.194722222,1,0,1,0,174,174,18,1,blik,images/br_blik.png,images/cb_blik.png,0,,,,,,,,,,,,,,,,,,,,,,
,,,,,00008,2023-07-27_23h02.34.226,vbt_B1_day4,2022.2.4,MacIntel,60.0024001,,,,,,down,0,0.2642,,-0.168363715,-0.194722222,1,0,1,0,175,175,97,1,loyaal,images/br_loyaal.png,images/cb_loyaal.png,0,,,,,,,,,,,,,,,,,,,,,,
,,,,,00008,2023-07-27_23h02.34.226,vbt_B1_day4,2022.2.4,MacIntel,60.0024001,,,,,,down,0,3.536,,-0.168363715,-0.194722222,1,0,1,0,176,176,112,1,lukken,images/br_lukken.png,images/cb_lukken.png,0,,,,,,,,,,,,,,,,,,,,,,
,,,,,00008,2023-07-27_23h02.34.226,vbt_B1_day4,2022.2.4,MacIntel,60.0024001,,,,,,down,0,0.5471,,-0.168363715,-0.194722222,1,0,1,0,177,177,68,1,schat,images/br_schat.png,images/cb_schat.png,0,,,,,,,,,,,,,,,,,,,,,,
,,,,,00008,2023-07-27_23h02.34.226,vbt_B1_day4,2022.2.4,MacIntel,60.0024001,,,,,,down,0,0.6225,,-0.168363715,-0.194722222,1,0,1,0,178,178,194,1,driemaal,images/br_driemaal.png,images/cb_driemaal.png,0,,,,,,,,,,,,,,,,,,,,,,
,,,,,00008,2023-07-27_23h02.34.226,vbt_B1_day4,2022.2.4,MacIntel,60.0024001,,,,,,down,0,12.6732,,-0.174739583,-0.189782986,1,0,1,0,179,179,136,1,waarbij,images/br_waarbij.png,images/cb_waarbij.png,0,,,,,,,,,,,,,,,,,,,,,,
,,,,,00008,2023-07-27_23h02.34.226,vbt_B1_day4,2022.2.4,MacIntel,60.0024001,,,,,,down,0,8.0645,,-0.174739583,-0.189782986,1,0,1,0,180,180,31,1,poes,images/br_poes.png,images/cb_poes.png,0,,,,,,,,,,,,,,,,,,,,,,
,,,,,00008,2023-07-27_23h02.34.226,vbt_B1_day4,2022.2.4,MacIntel,60.0024001,,,,,,down,0,0.5204,,-0.174739583,-0.189782986,1,0,1,0,181,181,11,1,mode,images/br_mode.png,images/cb_mode.png,0,,,,,,,,,,,,,,,,,,,,,,
,,,,,00008,2023-07-27_23h02.34.226,vbt_B1_day4,2022.2.4,MacIntel,60.0024001,,,,,,down,0,4.6911,,-0.174739583,-0.189782986,1,0,1,0,182,182,40,1,schep,images/br_schep.png,images/cb_schep.png,0,,,,,,,,,,,,,,,,,,,,,,
,,,,,00008,2023-07-27_23h02.34.226,vbt_B1_day4,2022.2.4,MacIntel,60.0024001,,,,,,down,0,0.9181,,-0.174739583,-0.189782986,1,0,1,0,183,183,198,1,bedoelen,images/br_bedoelen.png,images/cb_bedoelen.png,0,,,,,,,,,,,,,,,,,,,,,,
,,,,,00008,2023-07-27_23h02.34.226,vbt_B1_day4,2022.2.4,MacIntel,60.0024001,,,,,,down,0,0.8165,,-0.174739583,-0.189782986,1,0,1,0,184,184,88,1,boeien,images/br_boeien.png,images/cb_boeien.png,0,,,,,,,,,,,,,,,,,,,,,,
,,,,,00008,2023-07-27_23h02.34.226,vbt_B1_day4,2022.2.4,MacIntel,60.0024001,,,,,,down,0,1.4838,,-0.175538194,-0.189782986,1,0,1,0,185,185,116,1,besmet,images/br_besmet.png,images/cb_besmet.png,0,,,,,,,,,,,,,,,,,,,,,,
,,,,,00008,2023-07-27_23h02.34.226,vbt_B1_day4,2022.2.4,MacIntel,60.0024001,,,,,,down,0,1.1348,,-0.176059028,-0.190043403,1,0,1,0,186,186,20,1,site,images/br_site.png,images/cb_site.png,0,,,,,,,,,,,,,,,,,,,,,,
,,,,,00008,2023-07-27_23h02.34.226,vbt_B1_day4,2022.2.4,MacIntel,60.0024001,,,,,,down,0,2.8111,,-0.17687066,-0.192855903,1,0,1,0,187,187,157,1,uitlaat,images/br_uitlaat.png,images/cb_uitlaat.png,0,,,,,,,,,,,,,,,,,,,,,,
,,,,,00008,2023-07-27_23h02.34.226,vbt_B1_day4,2022.2.4,MacIntel,60.0024001,,,,,,down,0,1.004,,-0.177404514,-0.193394097,1,0,1,0,188,188,95,1,vreten,images/br_vreten.png,images/cb_vreten.png,0,,,,,,,,,,,,,,,,,,,,,,
,,,,,00008,2023-07-27_23h02.34.226,vbt_B1_day4,2022.2.4,MacIntel,60.0024001,,,,,,down,0,0.4312,,-0.178185764,-0.193394097,1,0,1,0,189,189,155,1,gerucht,images/br_gerucht.png,images/cb_gerucht.png,0,,,,,,,,,,,,,,,,,,,,,,
,,,,,00008,2023-07-27_23h02.34.226,vbt_B1_day4,2022.2.4,MacIntel,60.0024001,,,,,,down,0,0.8,,-0.178185764,-0.193394097,1,0,1,0,190,190,135,1,gedicht,images/br_gedicht.png,images/cb_gedicht.png,0,,,,,,,,,,,,,,,,,,,,,,
,,,,,00008,2023-07-27_23h02.34.226,vbt_B1_day4,2022.2.4,MacIntel,60.0024001,,,,,,down,0,2.1181,,-0.178185764,-0.193394097,1,0,1,0,191,191,128,1,prikken,images/br_prikken.png,images/cb_prikken.png,0,,,,,,,,,,,,,,,,,,,,,,
,,,,,00008,2023-07-27_23h02.34.226,vbt_B1_day4,2022.2.4,MacIntel,60.0024001,,,,,,down,0,0.954,,-0.178185764,-0.191527778,1,0,1,0,192,192,151,1,aanzoek,images/br_aanzoek.png,images/cb_aanzoek.png,0,,,,,,,,,,,,,,,,,,,,,,
,,,,,00008,2023-07-27_23h02.34.226,vbt_B1_day4,2022.2.4,MacIntel,60.0024001,,,,,,down,0,0.9247,,-0.178767361,-0.188463542,1,0,1,0,193,193,120,1,klimmen,images/br_klimmen.png,images/cb_klimmen.png,0,,,,,,,,,,,,,,,,,,,,,,
,,,,,00008,2023-07-27_23h02.34.226,vbt_B1_day4,2022.2.4,MacIntel,60.0024001,,,,,,down,0,0.2542,,-0.178767361,-0.187912326,1,0,1,0,194,194,150,1,gegeven,images/br_gegeven.png,images/cb_gegeven.png,0,,,,,,,,,,,,,,,,,,,,,,
,,,,,00008,2023-07-27_23h02.34.226,vbt_B1_day4,2022.2.4,MacIntel,60.0024001,,,,,,down,0,10.8524,,-0.178767361,-0.187912326,1,0,1,0,195,195,114,1,vullen,images/br_vullen.png,images/cb_vullen.png,0,,,,,,,,,,,,,,,,,,,,,,
,,,,,00008,2023-07-27_23h02.34.226,vbt_B1_day4,2022.2.4,MacIntel,60.0024001,,,,,,down,0,2.2504,,-0.184105903,-0.184605035,1,0,1,0,196,196,82,1,muziek,images/br_muziek.png,images/cb_muziek.png,0,,,,,,,,,,,,,,,,,,,,,,
,,,,,00008,2023-07-27_23h02.34.226,vbt_B1_day4,2022.2.4,MacIntel,60.0024001,,,,,,down,0,0.4878,,-0.184665799,-0.183007813,1,0,1,0,197,197,119,1,liefje,images/br_liefje.png,images/cb_liefje.png,0,,,,,,,,,,,,,,,,,,,,,,
,,,,,00008,2023-07-27_23h02.34.226,vbt_B1_day4,2022.2.4,MacIntel,60.0024001,,,,,,down,0,0.767,,-0.184665799,-0.183007813,1,0,1,0,198,198,42,1,bleek,images/br_bleek.png,images/cb_bleek.png,0,,,,,,,,,,,,,,,,,,,,,,
,,,,,00008,2023-07-27_23h02.34.226,vbt_B1_day4,2022.2.4,MacIntel,60.0024001,,,,,,down,0,13.4178,,-0.184665799,-0.184405382,1,0,1,0,199,199,184,1,aandelen,images/br_aandelen.png,images/cb_aandelen.png,1,aandelen,,,,,,,,,,,,,,,,,,,,,
,,,,,00008,2023-07-27_23h02.34.226,vbt_B1_day4,2022.2.4,MacIntel,60.0024001,,,,,,,,,,,,,,,,,,,,,,,,,-0.184665799,-0.184405382,0,0,1,,,,,,,,,,,,,,,,
,,,,,00008,2023-07-27_23h02.34.226,vbt_B1_day4,2022.2.4,MacIntel,60.0024001,,,,,,,,,,,,,,,,,,,,,,,,,,,,,,-0.186597222,-0.18171875,1,0,1,,,,,,,,,,,
,,,,,00008,2023-07-27_23h02.34.226,vbt_B1_day4,2022.2.4,MacIntel,60.0024001,,,,,,,,,,,,,,,,,,,,dalen,images/br_dalen.png,images/cb_dalen.png,,daling,,,,,,,,,,,-0.186597222,-0.181974826,1,0,1,daling,0,0,0,46,1
,,,,,00008,2023-07-27_23h02.34.226,vbt_B1_day4,2022.2.4,MacIntel,60.0024001,,,,,,,,,,,,,,,,,,,,zaalrijk,images/br_zaalrijk.png,images/cb_zaalrijk.png,,.aanred.n,,,,,,,,,,,-0.186597222,-0.181974826,1,0,1,.aanred.n,0,1,1,37,1
,,,,,00008,2023-07-27_23h02.34.226,vbt_B1_day4,2022.2.4,MacIntel,60.0024001,,,,,,,,,,,,,,,,,,,,gaan,images/br_gaan.png,images/cb_gaan.png,,gaan,,,,,,,,,,,-0.186597222,-0.181974826,1,0,1,gaan,0,2,2,41,1
,,,,,00008,2023-07-27_23h02.34.226,vbt_B1_day4,2022.2.4,MacIntel,60.0024001,,,,,,,,,,,,,,,,,,,,gebit,images/br_gebit.png,images/cb_gebit.png,,gebit,,,,,,,,,,,-0.186597222,-0.181974826,1,0,1,gebit,0,3,3,6,1
,,,,,00008,2023-07-27_23h02.34.226,vbt_B1_day4,2022.2.4,MacIntel,60.0024001,,,,,,,,,,,,,,,,,,,,gebog,images/br_gebog.png,images/cb_gebog.png,,gebog,,,,,,,,,,,-0.186597222,-0.181974826,1,0,1,gebog,0,4,4,24,1
,,,,,00008,2023-07-27_23h02.34.226,vbt_B1_day4,2022.2.4,MacIntel,60.0024001,,,,,,,,,,,,,,,,,,,,mekst,images/br_mekst.png,images/cb_mekst.png,,mekist,,,,,,,,,,,0.075846354,-0.344787326,1,0,1,mekist,0,5,5,27,1
,,,,,00008,2023-07-27_23h02.34.226,vbt_B1_day4,2022.2.4,MacIntel,60.0024001,,,,,,,,,,,,,,,,,,,,flippen,images/br_flippen.png,images/cb_flippen.png,,.lippen,,,,,,,,,,,0.075846354,-0.344787326,1,0,1,.lippen,0,6,6,54,1
,,,,,00008,2023-07-27_23h02.34.226,vbt_B1_day4,2022.2.4,MacIntel,60.0024001,,,,,,,,,,,,,,,,,,,,opruimen,images/br_opruimen.png,images/cb_opruimen.png,,opro....,,,,,,,,,,,0.075846354,-0.344787326,1,0,1,opro....,0,7,7,59,1
,,,,,00008,2023-07-27_23h02.34.226,vbt_B1_day4,2022.2.4,MacIntel,60.0024001,,,,,,,,,,,,,,,,,,,,geliefd,images/br_geliefd.png,images/cb_geliefd.png,,gelei..,,,,,,,,,,,0.075846354,-0.344787326,1,0,1,gelei..,0,8,8,14,1
,,,,,00008,2023-07-27_23h02.34.226,vbt_B1_day4,2022.2.4,MacIntel,60.0024001,,,,,,,,,,,,,,,,,,,,ezel,images/br_ezel.png,images/cb_ezel.png,,ezel,,,,,,,,,,,0.075846354,-0.344787326,1,0,1,ezel,0,9,9,42,1
,,,,,00008,2023-07-27_23h02.34.226,vbt_B1_day4,2022.2.4,MacIntel,60.0024001,,,,,,,,,,,,,,,,,,,,seizoon,images/br_seizoon.png,images/cb_seizoon.png,,zei.oo.,,,,,,,,,,,0.075846354,-0.344787326,1,0,1,zei.oo.,0,10,10,33,1
,,,,,00008,2023-07-27_23h02.34.226,vbt_B1_day4,2022.2.4,MacIntel,60.0024001,,,,,,,,,,,,,,,,,,,,praat,images/br_praat.png,images/cb_praat.png,,praat,,,,,,,,,,,0.075846354,-0.345039062,1,0,1,praat,0,11,11,7,1
,,,,,00008,2023-07-27_23h02.34.226,vbt_B1_day4,2022.2.4,MacIntel,60.0024001,,,,,,,,,,,,,,,,,,,,dozijn,images/br_dozijn.png,images/cb_dozijn.png,,doni...,,,,,,,,,,,0.075846354,-0.345039062,1,0,1,doni...,0,12,12,48,1
,,,,,00008,2023-07-27_23h02.34.226,vbt_B1_day4,2022.2.4,MacIntel,60.0024001,,,,,,,,,,,,,,,,,,,,sulbon,images/br_sulbon.png,images/cb_sulbon.png,,s.lb...,,,,,,,,,,,0.075846354,-0.345039062,1,0,1,s.lb...,0,13,13,31,1
,,,,,00008,2023-07-27_23h02.34.226,vbt_B1_day4,2022.2.4,MacIntel,60.0024001,,,,,,,,,,,,,,,,,,,,toevol,images/br_toevol.png,images/cb_toevol.png,,toe.ol,,,,,,,,,,,0.083298611,-0.337430556,1,0,1,toe.ol,0,14,14,29,1
,,,,,00008,2023-07-27_23h02.34.226,vbt_B1_day4,2022.2.4,MacIntel,60.0024001,,,,,,,,,,,,,,,,,,,,drooien,images/br_drooien.png,images/cb_drooien.png,,.rooien,,,,,,,,,,,0.083298611,-0.337430556,1,0,1,.rooien,0,15,15,32,1
,,,,,00008,2023-07-27_23h02.34.226,vbt_B1_day4,2022.2.4,MacIntel,60.0024001,,,,,,,,,,,,,,,,,,,,pijnlijk,images/br_pijnlijk.png,images/cb_pijnlijk.png,,pe.ln...,,,,,,,,,,,0.083298611,-0.337430556,1,0,1,pe.ln...,0,16,16,58,1
,,,,,00008,2023-07-27_23h02.34.226,vbt_B1_day4,2022.2.4,MacIntel,60.0024001,,,,,,,,,,,,,,,,,,,,fran,images/br_fran.png,images/cb_fran.png,,.ar.,,,,,,,,,,,0.0840625,-0.337430556,1,0,1,.ar.,0,17,17,22,1
,,,,,00008,2023-07-27_23h02.34.226,vbt_B1_day4,2022.2.4,MacIntel,60.0024001,,,,,,,,,,,,,,,,,,,,pittig,images/br_pittig.png,images/cb_pittig.png,,pittin,,,,,,,,,,,0.083003472,-0.337430556,1,0,1,pittin,0,18,18,51,1
,,,,,00008,2023-07-27_23h02.34.226,vbt_B1_day4,2022.2.4,MacIntel,60.0024001,,,,,,,,,,,,,,,,,,,,seizoen,images/br_seizoen.png,images/cb_seizoen.png,,seizoen,,,,,,,,,,,0.091067708,-0.317764757,1,0,1,seizoen,0,19,19,13,1
,,,,,00008,2023-07-27_23h02.34.226,vbt_B1_day4,2022.2.4,MacIntel,60.0024001,,,,,,,,,,,,,,,,,,,,schotel,images/br_schotel.png,images/cb_schotel.png,,sc.os..,,,,,,,,,,,0.091067708,-0.317764757,1,0,1,sc.os..,0,20,20,52,1
,,,,,00008,2023-07-27_23h02.34.226,vbt_B1_day4,2022.2.4,MacIntel,60.0024001,,,,,,,,,,,,,,,,,,,,bisschap,images/br_bisschap.png,images/cb_bisschap.png,,bisschop,,,,,,,,,,,0.091067708,-0.317764757,1,0,1,bisschop,0,21,21,36,1
,,,,,00008,2023-07-27_23h02.34.226,vbt_B1_day4,2022.2.4,MacIntel,60.0024001,,,,,,,,,,,,,,,,,,,,baron,images/br_baron.png,images/cb_baron.png,,baron,,,,,,,,,,,0.091067708,-0.317764757,1,0,1,baron,0,22,22,5,1
,,,,,00008,2023-07-27_23h02.34.226,vbt_B1_day4,2022.2.4,MacIntel,60.0024001,,,,,,,,,,,,,,,,,,,,aanzwaag,images/br_aanzwaag.png,images/cb_aanzwaag.png,,aanzwaag,,,,,,,,,,,0.091067708,-0.317764757,1,0,1,aanzwaag,0,23,23,38,1
,,,,,00008,2023-07-27_23h02.34.226,vbt_B1_day4,2022.2.4,MacIntel,60.0024001,,,,,,,,,,,,,,,,,,,,noodzaak,images/br_noodzaak.png,images/cb_noodzaak.png,,naa.....,,,,,,,,,,,0.091067708,-0.317764757,1,0,1,naa.....,0,24,24,56,1
,,,,,00008,2023-07-27_23h02.34.226,vbt_B1_day4,2022.2.4,MacIntel,60.0024001,,,,,,,,,,,,,,,,,,,,opkicht,images/br_opkicht.png,images/cb_opkicht.png,,opki...,,,,,,,,,,,0.091067708,-0.317764757,1,0,1,opki...,0,25,25,34,1
,,,,,00008,2023-07-27_23h02.34.226,vbt_B1_day4,2022.2.4,MacIntel,60.0024001,,,,,,,,,,,,,,,,,,,,grappen,images/br_grappen.png,images/cb_grappen.png,,grappen,,,,,,,,,,,0.091067708,-0.317764757,1,0,1,grappen,0,26,26,12,1
,,,,,00008,2023-07-27_23h02.34.226,vbt_B1_day4,2022.2.4,MacIntel,60.0024001,,,,,,,,,,,,,,,,,,,,gedicht,images/br_gedicht.png,images/cb_gedicht.png,,gedicht,,,,,,,,,,,0.091067708,-0.319822049,1,0,1,gedicht,0,27,27,15,1
,,,,,00008,2023-07-27_23h02.34.226,vbt_B1_day4,2022.2.4,MacIntel,60.0024001,,,,,,,,,,,,,,,,,,,,tucket,images/br_tucket.png,images/cb_tucket.png,,d.....,,,,,,,,,,,0.091067708,-0.319822049,1,0,1,d.....,0,28,28,30,1
,,,,,00008,2023-07-27_23h02.34.226,vbt_B1_day4,2022.2.4,MacIntel,60.0024001,,,,,,,,,,,,,,,,,,,,lappen,images/br_lappen.png,images/cb_lappen.png,,lappen,,,,,,,,,,,0.091067708,-0.319822049,1,0,1,lappen,0,29,29,49,1
,,,,,00008,2023-07-27_23h02.34.226,vbt_B1_day4,2022.2.4,MacIntel,60.0024001,,,,,,,,,,,,,,,,,,,,stemming,images/br_stemming.png,images/cb_stemming.png,,stammen,,,,,,,,,,,0.091067708,-0.319822049,1,0,1,stammen,0,30,30,18,1
,,,,,00008,2023-07-27_23h02.34.226,vbt_B1_day4,2022.2.4,MacIntel,60.0024001,,,,,,,,,,,,,,,,,,,,soda,images/br_soda.png,images/cb_soda.png,,som.,,,,,,,,,,,0.091067708,-0.319822049,1,0,1,som.,0,31,31,3,1
,,,,,00008,2023-07-27_23h02.34.226,vbt_B1_day4,2022.2.4,MacIntel,60.0024001,,,,,,,,,,,,,,,,,,,,waarop,images/br_waarop.png,images/cb_waarop.png,,waarom,,,,,,,,,,,0.091067708,-0.319822049,1,0,1,waarom,0,32,32,9,1
,,,,,00008,2023-07-27_23h02.34.226,vbt_B1_day4,2022.2.4,MacIntel,60.0024001,,,,,,,,,,,,,,,,,,,,gaaf,images/br_gaaf.png,images/cb_gaaf.png,,gaa.,,,,,,,,,,,0.091067708,-0.319822049,1,0,1,gaa.,0,33,33,43,1
,,,,,00008,2023-07-27_23h02.34.226,vbt_B1_day4,2022.2.4,MacIntel,60.0024001,,,,,,,,,,,,,,,,,,,,wagon,images/br_wagon.png,images/cb_wagon.png,,wagon,,,,,,,,,,,0.091067708,-0.319822049,1,0,1,wagon,0,34,34,4,1
,,,,,00008,2023-07-27_23h02.34.226,vbt_B1_day4,2022.2.4,MacIntel,60.0024001,,,,,,,,,,,,,,,,,,,,steen,images/br_steen.png,images/cb_steen.png,,steen,,,,,,,,,,,0.091067708,-0.319822049,1,0,1,steen,0,35,35,44,1
,,,,,00008,2023-07-27_23h02.34.226,vbt_B1_day4,2022.2.4,MacIntel,60.0024001,,,,,,,,,,,,,,,,,,,,zwek,images/br_zwek.png,images/cb_zwek.png,,.weg,,,,,,,,,,,0.091067708,-0.319822049,1,0,1,.weg,0,36,36,20,1
,,,,,00008,2023-07-27_23h02.34.226,vbt_B1_day4,2022.2.4,MacIntel,60.0024001,,,,,,,,,,,,,,,,,,,,drummer,images/br_drummer.png,images/cb_drummer.png,,.r.mm..,,,,,,,,,,,0.091067708,-0.319822049,1,0,1,.r.mm..,0,37,37,53,1
,,,,,00008,2023-07-27_23h02.34.226,vbt_B1_day4,2022.2.4,MacIntel,60.0024001,,,,,,,,,,,,,,,,,,,,kust,images/br_kust.png,images/cb_kust.png,,kust,,,,,,,,,,,0.091067708,-0.319822049,1,0,1,kust,0,38,38,0,1
,,,,,00008,2023-07-27_23h02.34.226,vbt_B1_day4,2022.2.4,MacIntel,60.0024001,,,,,,,,,,,,,,,,,,,,rijp,images/br_rijp.png,images/cb_rijp.png,,riept,,,,,,,,,,,0.094822049,-0.305920139,1,0,1,riept,0,39,39,2,1
,,,,,00008,2023-07-27_23h02.34.226,vbt_B1_day4,2022.2.4,MacIntel,60.0024001,,,,,,,,,,,,,,,,,,,,midden,images/br_midden.png,images/cb_midden.png,,.....,,,,,,,,,,,0.094822049,-0.305920139,1,0,1,.....,0,40,40,50,1
,,,,,00008,2023-07-27_23h02.34.226,vbt_B1_day4,2022.2.4,MacIntel,60.0024001,,,,,,,,,,,,,,,,,,,,heengaan,images/br_heengaan.png,images/cb_heengaan.png,,.eengo.,,,,,,,,,,,0.094822049,-0.305920139,1,0,1,.eengo.,0,41,41,19,1
,,,,,00008,2023-07-27_23h02.34.226,vbt_B1_day4,2022.2.4,MacIntel,60.0024001,,,,,,,,,,,,,,,,,,,,warel,images/br_warel.png,images/cb_warel.png,,warel,,,,,,,,,,,0.098923611,-0.299431424,1,0,1,warel,0,42,42,26,1
,,,,,00008,2023-07-27_23h02.34.226,vbt_B1_day4,2022.2.4,MacIntel,60.0024001,,,,,,,,,,,,,,,,,,,,schenden,images/br_schenden.png,images/cb_schenden.png,,sch....,,,,,,,,,,,0.098667535,-0.299431424,1,0,1,sch....,0,43,43,57,1
,,,,,00008,2023-07-27_23h02.34.226,vbt_B1_day4,2022.2.4,MacIntel,60.0024001,,,,,,,,,,,,,,,,,,,,haza,images/br_haza.png,images/cb_haza.png,,.a..r,,,,,,,,,,,0.101848958,-0.293498264,1,0,1,.a..r,0,44,44,21,1
,,,,,00008,2023-07-27_23h02.34.226,vbt_B1_day4,2022.2.4,MacIntel,60.0024001,,,,,,,,,,,,,,,,,,,,eerst,images/br_eerst.png,images/cb_eerst.png,,aarst,,,,,,,,,,,0.095477431,-0.301124132,1,0,1,aarst,0,45,45,47,1
,,,,,00008,2023-07-27_23h02.34.226,vbt_B1_day4,2022.2.4,MacIntel,60.0024001,,,,,,,,,,,,,,,,,,,,apparaat,images/br_apparaat.png,images/cb_apparaat.png,,apparaat,,,,,,,,,,,0.094700521,-0.301124132,1,0,1,apparaat,0,46,46,17,1
,,,,,00008,2023-07-27_23h02.34.226,vbt_B1_day4,2022.2.4,MacIntel,60.0024001,,,,,,,,,,,,,,,,,,,,paalbaak,images/br_paalbaak.png,images/cb_paalbaak.png,,paalbaak,,,,,,,,,,,0.094700521,-0.301124132,1,0,1,paalbaak,0,47,47,39,1
,,,,,00008,2023-07-27_23h02.34.226,vbt_B1_day4,2022.2.4,MacIntel,60.0024001,,,,,,,,,,,,,,,,,,,,vreten,images/br_vreten.png,images/cb_vreten.png,,ure...,,,,,,,,,,,0.094700521,-0.301124132,1,0,1,ure...,0,48,48,11,1
,,,,,00008,2023-07-27_23h02.34.226,vbt_B1_day4,2022.2.4,MacIntel,60.0024001,,,,,,,,,,,,,,,,,,,,oceaan,images/br_oceaan.png,images/cb_oceaan.png,,oceaan,,,,,,,,,,,0.094700521,-0.301124132,1,0,1,oceaan,0,49,49,10,1
,,,,,00008,2023-07-27_23h02.34.226,vbt_B1_day4,2022.2.4,MacIntel,60.0024001,,,,,,,,,,,,,,,,,,,,geheim,images/br_geheim.png,images/cb_geheim.png,,ge.ei.,,,,,,,,,,,0.094700521,-0.301124132,1,0,1,ge.ei.,0,50,50,8,1
,,,,,00008,2023-07-27_23h02.34.226,vbt_B1_day4,2022.2.4,MacIntel,60.0024001,,,,,,,,,,,,,,,,,,,,kaal,images/br_kaal.png,images/cb_kaal.png,,kaal,,,,,,,,,,,0.094700521,-0.301124132,1,0,1,kaal,0,51,51,1,1
,,,,,00008,2023-07-27_23h02.34.226,vbt_B1_day4,2022.2.4,MacIntel,60.0024001,,,,,,,,,,,,,,,,,,,,getucht,images/br_getucht.png,images/cb_getucht.png,,getu...,,,,,,,,,,,0.094700521,-0.301124132,1,0,1,getu...,0,52,52,35,1
,,,,,00008,2023-07-27_23h02.34.226,vbt_B1_day4,2022.2.4,MacIntel,60.0024001,,,,,,,,,,,,,,,,,,,,strok,images/br_strok.png,images/cb_strok.png,,strok,,,,,,,,,,,0.094700521,-0.301124132,1,0,1,strok,0,53,53,25,1
,,,,,00008,2023-07-27_23h02.34.226,vbt_B1_day4,2022.2.4,MacIntel,60.0024001,,,,,,,,,,,,,,,,,,,,snee,images/br_snee.png,images/cb_snee.png,,snee,,,,,,,,,,,0.094700521,-0.301124132,1,0,1,snee,0,54,54,40,1
,,,,,00008,2023-07-27_23h02.34.226,vbt_B1_day4,2022.2.4,MacIntel,60.0024001,,,,,,,,,,,,,,,,,,,,bruin,images/br_bruin.png,images/cb_bruin.png,,bruin,,,,,,,,,,,0.094700521,-0.301124132,1,0,1,bruin,0,55,55,45,1
,,,,,00008,2023-07-27_23h02.34.226,vbt_B1_day4,2022.2.4,MacIntel,60.0024001,,,,,,,,,,,,,,,,,,,,broodje,images/br_broodje.png,images/cb_broodje.png,,broodje,,,,,,,,,,,0.094700521,-0.301124132,1,0,1,broodje,0,56,56,55,1
,,,,,00008,2023-07-27_23h02.34.226,vbt_B1_day4,2022.2.4,MacIntel,60.0024001,,,,,,,,,,,,,,,,,,,,weigeren,images/br_weigeren.png,images/cb_weigeren.png,,wijgeren,,,,,,,,,,,0.094700521,-0.301124132,1,0,1,wijgeren,0,57,57,16,1
,,,,,00008,2023-07-27_23h02.34.226,vbt_B1_day4,2022.2.4,MacIntel,60.0024001,,,,,,,,,,,,,,,,,,,,gijf,images/br_gijf.png,images/cb_gijf.png,,ge..,,,,,,,,,,,0.094700521,-0.301124132,1,0,1,ge..,0,58,58,23,1
,,,,,00008,2023-07-27_23h02.34.226,vbt_B1_day4,2022.2.4,MacIntel,60.0024001,,,,,,,,,,,,,,,,,,,,wozing,images/br_wozing.png,images/cb_wozing.png,,wozi..,,,,,,,,,,,0.094700521,-0.301124132,1,0,1,wozi..,0,59,59,28,1
,,,,,00008,2023-07-27_23h02.34.226,vbt_B1_day4,2022.2.4,MacIntel,60.0024001,,,,,,,,,,,,,,,,,,,,,,,,,,,,,,,,,,,,,,,,,,,,,
