welcome_mouse.x,welcome_mouse.y,welcome_mouse.leftButton,welcome_mouse.midButton,welcome_mouse.rightButton,"ID",date,expName,psychopyVersion,OS,frameRate,trainInstr_mouse.x,trainInstr_mouse.y,trainInstr_mouse.leftButton,trainInstr_mouse.midButton,trainInstr_mouse.rightButton,translation_key.keys,translation_key.corr,translation_key.rt,word_rsp.text,trWrd_mouse.x,trWrd_mouse.y,trWrd_mouse.leftButton,trWrd_mouse.midButton,trWrd_mouse.rightButton,train_loop.thisRepN,train_loop.thisTrialN,train_loop.thisN,train_loop.thisIndex,train_loop.ran,nlWrd,brWrd,cbWrd,test,testResp,mouse.x,mouse.y,mouse.leftButton,mouse.midButton,mouse.rightButton,testInstr_mouse.x,testInstr_mouse.y,testInstr_mouse.leftButton,testInstr_mouse.midButton,testInstr_mouse.rightButton,test_mouse.x,test_mouse.y,test_mouse.leftButton,test_mouse.midButton,test_mouse.rightButton,test_response.text,test_loop.thisRepN,test_loop.thisTrialN,test_loop.thisN,test_loop.thisIndex,test_loop.ran
0.222222222,-0.136111153,1,0,0,00076,2023-10-21_19h02.45.023,vbt_B1_day4,2022.2.4,Win32,30.00480077,,,,,,,,,,,,,,,,,,,,,,,,,,,,,,,,,,,,,,,,,,,,,
,,,,,00076,2023-10-21_19h02.45.023,vbt_B1_day4,2022.2.4,Win32,30.00480077,0.222222222,-0.136111153,1,0,0,,,,,,,,,,,,,,,,,,,,,,,,,,,,,,,,,,,,,,,,
,,,,,00076,2023-10-21_19h02.45.023,vbt_B1_day4,2022.2.4,Win32,30.00480077,,,,,,down,0,0.3052,,0.382407436,-0.099074116,1,0,0,0,0,0,75,1,snoep,images/br_snoep.png,images/cb_snoep.png,0,,,,,,,,,,,,,,,,,,,,,,
,,,,,00076,2023-10-21_19h02.45.023,vbt_B1_day4,2022.2.4,Win32,30.00480077,,,,,,down,0,0.1015,,0.382407436,-0.099074116,1,0,0,0,1,1,97,1,loyaal,images/br_loyaal.png,images/cb_loyaal.png,0,,,,,,,,,,,,,,,,,,,,,,
,,,,,00076,2023-10-21_19h02.45.023,vbt_B1_day4,2022.2.4,Win32,30.00480077,,,,,,down,0,2.3328,,0.382407436,-0.099074116,1,0,0,0,2,2,184,1,aandelen,images/br_aandelen.png,images/cb_aandelen.png,1,aandelen,,,,,,,,,,,,,,,,,,,,,
,,,,,00076,2023-10-21_19h02.45.023,vbt_B1_day4,2022.2.4,Win32,30.00480077,,,,,,down,0,1.2501,,0.375925982,-0.087037051,1,0,0,0,3,3,167,1,eenhoorn,images/br_eenhoorn.png,images/cb_eenhoorn.png,0,,,,,,,,,,,,,,,,,,,,,,
,,,,,00076,2023-10-21_19h02.45.023,vbt_B1_day4,2022.2.4,Win32,30.00480077,,,,,,down,0,0.3049,,0.375925982,-0.087037051,1,0,0,0,4,4,15,1,soda,images/br_soda.png,images/cb_soda.png,0,,,,,,,,,,,,,,,,,,,,,,
,,,,,00076,2023-10-21_19h02.45.023,vbt_B1_day4,2022.2.4,Win32,30.00480077,,,,,,down,0,15.3652,,0.375925982,-0.087037051,1,0,0,0,5,5,33,1,vlek,images/br_vlek.png,images/cb_vlek.png,0,,,,,,,,,,,,,,,,,,,,,,
,,,,,00076,2023-10-21_19h02.45.023,vbt_B1_day4,2022.2.4,Win32,30.00480077,,,,,,down,0,7.4549,,0.156481496,-0.125,1,0,0,0,6,6,101,1,staren,images/br_staren.png,images/cb_staren.png,0,,,,,,,,,,,,,,,,,,,,,,
,,,,,00076,2023-10-21_19h02.45.023,vbt_B1_day4,2022.2.4,Win32,30.00480077,,,,,,down,0,3.9328,,0.156481496,-0.125,1,0,0,0,7,7,58,1,tekst,images/br_tekst.png,images/cb_tekst.png,0,,,,,,,,,,,,,,,,,,,,,,
,,,,,00076,2023-10-21_19h02.45.023,vbt_B1_day4,2022.2.4,Win32,30.00480077,,,,,,down,0,4.1401,,0.819444444,-0.160185213,1,0,0,0,8,8,66,1,lever,images/br_lever.png,images/cb_lever.png,1,lever,,,,,,,,,,,,,,,,,,,,,
,,,,,00076,2023-10-21_19h02.45.023,vbt_B1_day4,2022.2.4,Win32,30.00480077,,,,,,down,0,3.2199,,0.819444444,-0.160185213,1,0,0,0,9,9,22,1,stof,images/br_stof.png,images/cb_stof.png,0,,,,,,,,,,,,,,,,,,,,,,
,,,,,00076,2023-10-21_19h02.45.023,vbt_B1_day4,2022.2.4,Win32,30.00480077,,,,,,down,0,1.1343,,0.819444444,-0.160185213,1,0,0,0,10,10,123,1,hiervan,images/br_hiervan.png,images/cb_hiervan.png,0,,,,,,,,,,,,,,,,,,,,,,
,,,,,00076,2023-10-21_19h02.45.023,vbt_B1_day4,2022.2.4,Win32,30.00480077,,,,,,down,0,0.5185,,0.819444444,-0.160185213,1,0,0,0,11,11,134,1,geliefd,images/br_geliefd.png,images/cb_geliefd.png,0,,,,,,,,,,,,,,,,,,,,,,
,,,,,00076,2023-10-21_19h02.45.023,vbt_B1_day4,2022.2.4,Win32,30.00480077,,,,,,down,0,1.0678,,0.819444444,-0.160185213,1,0,0,0,12,12,193,1,weeshuis,images/br_weeshuis.png,images/cb_weeshuis.png,0,,,,,,,,,,,,,,,,,,,,,,
,,,,,00076,2023-10-21_19h02.45.023,vbt_B1_day4,2022.2.4,Win32,30.00480077,,,,,,down,0,7.0076,,0.819444444,-0.160185213,1,0,0,0,13,13,172,1,weigeren,images/br_weigeren.png,images/cb_weigeren.png,0,,,,,,,,,,,,,,,,,,,,,,
,,,,,00076,2023-10-21_19h02.45.023,vbt_B1_day4,2022.2.4,Win32,30.00480077,,,,,,down,0,0.4012,,0.819444444,-0.160185213,1,0,0,0,14,14,13,1,kaal,images/br_kaal.png,images/cb_kaal.png,0,,,,,,,,,,,,,,,,,,,,,,
,,,,,00076,2023-10-21_19h02.45.023,vbt_B1_day4,2022.2.4,Win32,30.00480077,,,,,,down,0,2.0071,,0.819444444,-0.160185213,1,0,0,0,15,15,124,1,bloeien,images/br_bloeien.png,images/cb_bloeien.png,0,,,,,,,,,,,,,,,,,,,,,,
,,,,,00076,2023-10-21_19h02.45.023,vbt_B1_day4,2022.2.4,Win32,30.00480077,,,,,,down,0,1.2066,,0.819444444,-0.160185213,1,0,0,0,16,16,131,1,opzicht,images/br_opzicht.png,images/cb_opzicht.png,0,,,,,,,,,,,,,,,,,,,,,,
,,,,,00076,2023-10-21_19h02.45.023,vbt_B1_day4,2022.2.4,Win32,30.00480077,,,,,,down,0,2.8506,,0.824074074,-0.168518561,1,0,0,0,17,17,96,1,slagen,images/br_slagen.png,images/cb_slagen.png,0,,,,,,,,,,,,,,,,,,,,,,
,,,,,00076,2023-10-21_19h02.45.023,vbt_B1_day4,2022.2.4,Win32,30.00480077,,,,,,down,0,0.8185,,0.824074074,-0.168518561,1,0,0,0,18,18,106,1,zingen,images/br_zingen.png,images/cb_zingen.png,1,,,,,,,,,,,,,,,,,,,,,,
,,,,,00076,2023-10-21_19h02.45.023,vbt_B1_day4,2022.2.4,Win32,30.00480077,,,,,,down,0,5.718,,0.824074074,-0.168518561,1,0,0,0,19,19,157,1,uitlaat,images/br_uitlaat.png,images/cb_uitlaat.png,0,,,,,,,,,,,,,,,,,,,,,,
,,,,,00076,2023-10-21_19h02.45.023,vbt_B1_day4,2022.2.4,Win32,30.00480077,,,,,,down,0,9.3905,,0.824074074,-0.168518561,1,0,0,0,20,20,187,1,opkijken,images/br_opkijken.png,images/cb_opkijken.png,1,opkijken,,,,,,,,,,,,,,,,,,,,,
,,,,,00076,2023-10-21_19h02.45.023,vbt_B1_day4,2022.2.4,Win32,30.00480077,,,,,,down,0,2.9093,,0.866666723,-0.207407422,1,0,0,0,21,21,154,1,aflopen,images/br_aflopen.png,images/cb_aflopen.png,0,,,,,,,,,,,,,,,,,,,,,,
,,,,,00076,2023-10-21_19h02.45.023,vbt_B1_day4,2022.2.4,Win32,30.00480077,,,,,,down,0,1.3107,,0.866666723,-0.207407422,1,0,0,0,22,22,143,1,hechten,images/br_hechten.png,images/cb_hechten.png,0,,,,,,,,,,,,,,,,,,,,,,
,,,,,00076,2023-10-21_19h02.45.023,vbt_B1_day4,2022.2.4,Win32,30.00480077,,,,,,down,0,0.2531,,0.866666723,-0.207407422,1,0,0,0,23,23,152,1,afnemen,images/br_afnemen.png,images/cb_afnemen.png,0,,,,,,,,,,,,,,,,,,,,,,
,,,,,00076,2023-10-21_19h02.45.023,vbt_B1_day4,2022.2.4,Win32,30.00480077,,,,,,down,0,4.2284,,0.866666723,-0.207407422,1,0,0,0,24,24,85,1,heilig,images/br_heilig.png,images/cb_heilig.png,0,,,,,,,,,,,,,,,,,,,,,,
,,,,,00076,2023-10-21_19h02.45.023,vbt_B1_day4,2022.2.4,Win32,30.00480077,,,,,,down,0,0.1645,,0.866666723,-0.207407422,1,0,0,0,25,25,163,1,schuilen,images/br_schuilen.png,images/cb_schuilen.png,0,,,,,,,,,,,,,,,,,,,,,,
,,,,,00076,2023-10-21_19h02.45.023,vbt_B1_day4,2022.2.4,Win32,30.00480077,,,,,,down,0,0.9421,,0.866666723,-0.207407422,1,0,0,0,26,26,83,1,mening,images/br_mening.png,images/cb_mening.png,0,,,,,,,,,,,,,,,,,,,,,,
,,,,,00076,2023-10-21_19h02.45.023,vbt_B1_day4,2022.2.4,Win32,30.00480077,,,,,,down,0,0.4034,,0.866666723,-0.207407422,1,0,0,0,27,27,31,1,poes,images/br_poes.png,images/cb_poes.png,0,,,,,,,,,,,,,,,,,,,,,,
,,,,,00076,2023-10-21_19h02.45.023,vbt_B1_day4,2022.2.4,Win32,30.00480077,,,,,,down,0,1.2512,,0.866666723,-0.207407422,1,0,0,0,28,28,18,1,blik,images/br_blik.png,images/cb_blik.png,0,,,,,,,,,,,,,,,,,,,,,,
,,,,,00076,2023-10-21_19h02.45.023,vbt_B1_day4,2022.2.4,Win32,30.00480077,,,,,,down,0,2.6005,,0.866666723,-0.207407422,1,0,0,0,29,29,69,1,waken,images/br_waken.png,images/cb_waken.png,0,,,,,,,,,,,,,,,,,,,,,,
,,,,,00076,2023-10-21_19h02.45.023,vbt_B1_day4,2022.2.4,Win32,30.00480077,,,,,,down,0,0.423,,0.866666723,-0.207407422,1,0,0,0,30,30,76,1,afval,images/br_afval.png,images/cb_afval.png,0,,,,,,,,,,,,,,,,,,,,,,
,,,,,00076,2023-10-21_19h02.45.023,vbt_B1_day4,2022.2.4,Win32,30.00480077,,,,,,down,0,0.3845,,0.866666723,-0.207407422,1,0,0,0,31,31,77,1,woede,images/br_woede.png,images/cb_woede.png,0,,,,,,,,,,,,,,,,,,,,,,
,,,,,00076,2023-10-21_19h02.45.023,vbt_B1_day4,2022.2.4,Win32,30.00480077,,,,,,down,0,0.8777,,0.866666723,-0.207407422,1,0,0,0,32,32,86,1,woning,images/br_woning.png,images/cb_woning.png,0,,,,,,,,,,,,,,,,,,,,,,
,,,,,00076,2023-10-21_19h02.45.023,vbt_B1_day4,2022.2.4,Win32,30.00480077,,,,,,down,0,3.7332,,0.866666723,-0.207407422,1,0,0,0,33,33,183,1,getuigen,images/br_getuigen.png,images/cb_getuigen.png,0,,,,,,,,,,,,,,,,,,,,,,
,,,,,00076,2023-10-21_19h02.45.023,vbt_B1_day4,2022.2.4,Win32,30.00480077,,,,,,down,0,8.9463,,0.876851824,-0.20185188,1,0,0,0,34,34,108,1,excuus,images/br_excuus.png,images/cb_excuus.png,0,,,,,,,,,,,,,,,,,,,,,,
,,,,,00076,2023-10-21_19h02.45.023,vbt_B1_day4,2022.2.4,Win32,30.00480077,,,,,,down,0,0.8656,,0.876851824,-0.20185188,1,0,0,0,35,35,130,1,keihard,images/br_keihard.png,images/cb_keihard.png,0,,,,,,,,,,,,,,,,,,,,,,
,,,,,00076,2023-10-21_19h02.45.023,vbt_B1_day4,2022.2.4,Win32,30.00480077,,,,,,down,0,3.4653,,0.876851824,-0.20185188,1,0,0,0,36,36,186,1,voorraad,images/br_voorraad.png,images/cb_voorraad.png,1,,,,,,,,,,,,,,,,,,,,,,
,,,,,00076,2023-10-21_19h02.45.023,vbt_B1_day4,2022.2.4,Win32,30.00480077,,,,,,down,0,1.4197,,0.876851824,-0.20185188,1,0,0,0,37,37,16,1,ziek,images/br_ziek.png,images/cb_ziek.png,0,,,,,,,,,,,,,,,,,,,,,,
,,,,,00076,2023-10-21_19h02.45.023,vbt_B1_day4,2022.2.4,Win32,30.00480077,,,,,,down,0,2.0086,,0.876851824,-0.20185188,1,0,0,0,38,38,70,1,ijdel,images/br_ijdel.png,images/cb_ijdel.png,0,,,,,,,,,,,,,,,,,,,,,,
,,,,,00076,2023-10-21_19h02.45.023,vbt_B1_day4,2022.2.4,Win32,30.00480077,,,,,,down,0,3.3192,,0.835185157,-0.250925912,1,0,0,0,39,39,11,1,mode,images/br_mode.png,images/cb_mode.png,0,,,,,,,,,,,,,,,,,,,,,,
,,,,,00076,2023-10-21_19h02.45.023,vbt_B1_day4,2022.2.4,Win32,30.00480077,,,,,,down,0,3.1839,,0.835185157,-0.250925912,1,0,0,0,40,40,54,1,gebit,images/br_gebit.png,images/cb_gebit.png,0,,,,,,,,,,,,,,,,,,,,,,
,,,,,00076,2023-10-21_19h02.45.023,vbt_B1_day4,2022.2.4,Win32,30.00480077,,,,,,down,0,1.8193,,0.835185157,-0.250925912,1,0,0,0,41,41,55,1,praat,images/br_praat.png,images/cb_praat.png,0,,,,,,,,,,,,,,,,,,,,,,
,,,,,00076,2023-10-21_19h02.45.023,vbt_B1_day4,2022.2.4,Win32,30.00480077,,,,,,down,0,2.3715,,0.835185157,-0.250925912,1,0,0,0,42,42,197,1,spanning,images/br_spanning.png,images/cb_spanning.png,0,,,,,,,,,,,,,,,,,,,,,,
,,,,,00076,2023-10-21_19h02.45.023,vbt_B1_day4,2022.2.4,Win32,30.00480077,,,,,,down,0,9.3694,,0.835185157,-0.250925912,1,0,0,0,43,43,26,1,leuk,images/br_leuk.png,images/cb_leuk.png,1,leuk,,,,,,,,,,,,,,,,,,,,,
,,,,,00076,2023-10-21_19h02.45.023,vbt_B1_day4,2022.2.4,Win32,30.00480077,,,,,,down,0,0.7165,,0.835185157,-0.250925912,1,0,0,0,44,44,4,1,moes,images/br_moes.png,images/cb_moes.png,0,,,,,,,,,,,,,,,,,,,,,,
,,,,,00076,2023-10-21_19h02.45.023,vbt_B1_day4,2022.2.4,Win32,30.00480077,,,,,,down,0,3.4339,,0.835185157,-0.250925912,1,0,0,0,45,45,102,1,legaal,images/br_legaal.png,images/cb_legaal.png,0,,,,,,,,,,,,,,,,,,,,,,
,,,,,00076,2023-10-21_19h02.45.023,vbt_B1_day4,2022.2.4,Win32,30.00480077,,,,,,down,0,3.2348,,0.835185157,-0.250925912,1,0,0,0,46,46,50,1,stoom,images/br_stoom.png,images/cb_stoom.png,0,,,,,,,,,,,,,,,,,,,,,,
,,,,,00076,2023-10-21_19h02.45.023,vbt_B1_day4,2022.2.4,Win32,30.00480077,,,,,,down,0,0.0033,,0.835185157,-0.250925912,1,0,0,0,47,47,170,1,schatten,images/br_schatten.png,images/cb_schatten.png,0,,,,,,,,,,,,,,,,,,,,,,
,,,,,00076,2023-10-21_19h02.45.023,vbt_B1_day4,2022.2.4,Win32,30.00480077,,,,,,down,0,0.353,,0.835185157,-0.250925912,1,0,0,0,48,48,40,1,schep,images/br_schep.png,images/cb_schep.png,0,,,,,,,,,,,,,,,,,,,,,,
,,,,,00076,2023-10-21_19h02.45.023,vbt_B1_day4,2022.2.4,Win32,30.00480077,,,,,,down,0,1.0991,,0.835185157,-0.250925912,1,0,0,0,49,49,23,1,zout,images/br_zout.png,images/cb_zout.png,0,,,,,,,,,,,,,,,,,,,,,,
,,,,,00076,2023-10-21_19h02.45.023,vbt_B1_day4,2022.2.4,Win32,30.00480077,,,,,,down,0,3.5737,,0.835185157,-0.250925912,1,0,0,0,50,50,63,1,flirt,images/br_flirt.png,images/cb_flirt.png,0,,,,,,,,,,,,,,,,,,,,,,
,,,,,00076,2023-10-21_19h02.45.023,vbt_B1_day4,2022.2.4,Win32,30.00480077,,,,,,down,0,2.2591,,0.835185157,-0.250925912,1,0,0,0,51,51,142,1,snuiven,images/br_snuiven.png,images/cb_snuiven.png,0,,,,,,,,,,,,,,,,,,,,,,
,,,,,00076,2023-10-21_19h02.45.023,vbt_B1_day4,2022.2.4,Win32,30.00480077,,,,,,down,0,6151.0072,,0.585185157,-0.073148162,1,0,0,0,52,52,122,1,waarvan,images/br_waarvan.png,images/cb_waarvan.png,0,,,,,,,,,,,,,,,,,,,,,,
,,,,,00076,2023-10-21_19h02.45.023,vbt_B1_day4,2022.2.4,Win32,30.00480077,,,,,,down,0,5.1718,,0.585185157,-0.073148162,1,0,0,0,53,53,115,1,kleren,images/br_kleren.png,images/cb_kleren.png,0,,,,,,,,,,,,,,,,,,,,,,
,,,,,00076,2023-10-21_19h02.45.023,vbt_B1_day4,2022.2.4,Win32,30.00480077,,,,,,down,0,4.7641,,0.585185157,-0.073148162,1,0,0,0,54,54,100,1,geduld,images/br_geduld.png,images/cb_geduld.png,0,,,,,,,,,,,,,,,,,,,,,,
,,,,,00076,2023-10-21_19h02.45.023,vbt_B1_day4,2022.2.4,Win32,30.00480077,,,,,,down,0,1.154,,0.585185157,-0.073148162,1,0,0,0,55,55,89,1,slapen,images/br_slapen.png,images/cb_slapen.png,0,,,,,,,,,,,,,,,,,,,,,,
,,,,,00076,2023-10-21_19h02.45.023,vbt_B1_day4,2022.2.4,Win32,30.00480077,,,,,,down,0,0.5616,,0.585185157,-0.073148162,1,0,0,0,56,56,59,1,kring,images/br_kring.png,images/cb_kring.png,0,,,,,,,,,,,,,,,,,,,,,,
,,,,,00076,2023-10-21_19h02.45.023,vbt_B1_day4,2022.2.4,Win32,30.00480077,,,,,,down,0,0.384,,0.585185157,-0.073148162,1,0,0,0,57,57,17,1,taal,images/br_taal.png,images/cb_taal.png,0,,,,,,,,,,,,,,,,,,,,,,
,,,,,00076,2023-10-21_19h02.45.023,vbt_B1_day4,2022.2.4,Win32,30.00480077,,,,,,down,0,1.1858,,0.585185157,-0.073148162,1,0,0,0,58,58,5,1,blad,images/br_blad.png,images/cb_blad.png,0,,,,,,,,,,,,,,,,,,,,,,
,,,,,00076,2023-10-21_19h02.45.023,vbt_B1_day4,2022.2.4,Win32,30.00480077,,,,,,down,0,0.9771,,0.585185157,-0.073148162,1,0,0,0,59,59,95,1,vreten,images/br_vreten.png,images/cb_vreten.png,0,,,,,,,,,,,,,,,,,,,,,,
,,,,,00076,2023-10-21_19h02.45.023,vbt_B1_day4,2022.2.4,Win32,30.00480077,,,,,,down,0,3.017,,0.585185157,-0.073148162,1,0,0,0,60,60,199,1,beseffen,images/br_beseffen.png,images/cb_beseffen.png,0,,,,,,,,,,,,,,,,,,,,,,
,,,,,00076,2023-10-21_19h02.45.023,vbt_B1_day4,2022.2.4,Win32,30.00480077,,,,,,down,0,3.0501,,0.585185157,-0.073148162,1,0,0,0,61,61,191,1,opheffen,images/br_opheffen.png,images/cb_opheffen.png,0,,,,,,,,,,,,,,,,,,,,,,
,,,,,00076,2023-10-21_19h02.45.023,vbt_B1_day4,2022.2.4,Win32,30.00480077,,,,,,down,0,0.4377,,0.585185157,-0.073148162,1,0,0,0,62,62,158,1,innemen,images/br_innemen.png,images/cb_innemen.png,0,,,,,,,,,,,,,,,,,,,,,,
,,,,,00076,2023-10-21_19h02.45.023,vbt_B1_day4,2022.2.4,Win32,30.00480077,,,,,,down,0,8.1475,,0.585185157,-0.073148162,1,0,0,0,63,63,185,1,mijnheer,images/br_mijnheer.png,images/cb_mijnheer.png,1,mijnheer,,,,,,,,,,,,,,,,,,,,,
,,,,,00076,2023-10-21_19h02.45.023,vbt_B1_day4,2022.2.4,Win32,30.00480077,,,,,,down,0,2.3455,,0.585185157,-0.073148162,1,0,0,0,64,64,144,1,eetlust,images/br_eetlust.png,images/cb_eetlust.png,1,eetlust,,,,,,,,,,,,,,,,,,,,,
,,,,,00076,2023-10-21_19h02.45.023,vbt_B1_day4,2022.2.4,Win32,30.00480077,,,,,,down,0,0.8356,,0.585185157,-0.073148162,1,0,0,0,65,65,117,1,kennis,images/br_kennis.png,images/cb_kennis.png,0,,,,,,,,,,,,,,,,,,,,,,
,,,,,00076,2023-10-21_19h02.45.023,vbt_B1_day4,2022.2.4,Win32,30.00480077,,,,,,down,0,4.4216,,0.585185157,-0.073148162,1,0,0,0,66,66,64,1,wegen,images/br_wegen.png,images/cb_wegen.png,1,wegen,,,,,,,,,,,,,,,,,,,,,
,,,,,00076,2023-10-21_19h02.45.023,vbt_B1_day4,2022.2.4,Win32,30.00480077,,,,,,down,0,0.081,,0.585185157,-0.073148162,1,0,0,0,67,67,161,1,attentie,images/br_attentie.png,images/cb_attentie.png,0,,,,,,,,,,,,,,,,,,,,,,
,,,,,00076,2023-10-21_19h02.45.023,vbt_B1_day4,2022.2.4,Win32,30.00480077,,,,,,down,0,0.0514,,0.585185157,-0.073148162,1,0,0,0,68,68,43,1,klauw,images/br_klauw.png,images/cb_klauw.png,0,,,,,,,,,,,,,,,,,,,,,,
,,,,,00076,2023-10-21_19h02.45.023,vbt_B1_day4,2022.2.4,Win32,30.00480077,,,,,,down,0,0.5793,,0.585185157,-0.073148162,1,0,0,0,69,69,194,1,driemaal,images/br_driemaal.png,images/cb_driemaal.png,0,,,,,,,,,,,,,,,,,,,,,,
,,,,,00076,2023-10-21_19h02.45.023,vbt_B1_day4,2022.2.4,Win32,30.00480077,,,,,,down,0,0.4775,,0.585185157,-0.073148162,1,0,0,0,70,70,56,1,traag,images/br_traag.png,images/cb_traag.png,0,,,,,,,,,,,,,,,,,,,,,,
,,,,,00076,2023-10-21_19h02.45.023,vbt_B1_day4,2022.2.4,Win32,30.00480077,,,,,,down,0,1.3725,,0.585185157,-0.073148162,1,0,0,0,71,71,32,1,palm,images/br_palm.png,images/cb_palm.png,0,,,,,,,,,,,,,,,,,,,,,,
,,,,,00076,2023-10-21_19h02.45.023,vbt_B1_day4,2022.2.4,Win32,30.00480077,,,,,,down,0,0.6504,,0.585185157,-0.073148162,1,0,0,0,72,72,68,1,schat,images/br_schat.png,images/cb_schat.png,0,,,,,,,,,,,,,,,,,,,,,,
,,,,,00076,2023-10-21_19h02.45.023,vbt_B1_day4,2022.2.4,Win32,30.00480077,,,,,,down,0,0.1121,,0.585185157,-0.073148162,1,0,0,0,73,73,12,1,kust,images/br_kust.png,images/cb_kust.png,0,,,,,,,,,,,,,,,,,,,,,,
,,,,,00076,2023-10-21_19h02.45.023,vbt_B1_day4,2022.2.4,Win32,30.00480077,,,,,,down,0,1.9946,,0.585185157,-0.073148162,1,0,0,0,74,74,84,1,lokken,images/br_lokken.png,images/cb_lokken.png,0,,,,,,,,,,,,,,,,,,,,,,
,,,,,00076,2023-10-21_19h02.45.023,vbt_B1_day4,2022.2.4,Win32,30.00480077,,,,,,down,0,5.5109,,0.585185157,-0.073148162,1,0,0,0,75,75,139,1,stiekem,images/br_stiekem.png,images/cb_stiekem.png,0,,,,,,,,,,,,,,,,,,,,,,
,,,,,00076,2023-10-21_19h02.45.023,vbt_B1_day4,2022.2.4,Win32,30.00480077,,,,,,down,0,6.1184,,0.585185157,-0.073148162,1,0,0,0,76,76,112,1,lukken,images/br_lukken.png,images/cb_lukken.png,0,,,,,,,,,,,,,,,,,,,,,,
,,,,,00076,2023-10-21_19h02.45.023,vbt_B1_day4,2022.2.4,Win32,30.00480077,,,,,,down,0,0.301,,0.585185157,-0.073148162,1,0,0,0,77,77,73,1,volop,images/br_volop.png,images/cb_volop.png,0,,,,,,,,,,,,,,,,,,,,,,
,,,,,00076,2023-10-21_19h02.45.023,vbt_B1_day4,2022.2.4,Win32,30.00480077,,,,,,down,0,0.1575,,0.585185157,-0.073148162,1,0,0,0,78,78,135,1,gedicht,images/br_gedicht.png,images/cb_gedicht.png,0,,,,,,,,,,,,,,,,,,,,,,
,,,,,00076,2023-10-21_19h02.45.023,vbt_B1_day4,2022.2.4,Win32,30.00480077,,,,,,down,0,0.4901,,0.585185157,-0.073148162,1,0,0,0,79,79,166,1,strikken,images/br_strikken.png,images/cb_strikken.png,0,,,,,,,,,,,,,,,,,,,,,,
,,,,,00076,2023-10-21_19h02.45.023,vbt_B1_day4,2022.2.4,Win32,30.00480077,,,,,,down,0,0.6197,,0.585185157,-0.073148162,1,0,0,0,80,80,82,1,muziek,images/br_muziek.png,images/cb_muziek.png,0,,,,,,,,,,,,,,,,,,,,,,
,,,,,00076,2023-10-21_19h02.45.023,vbt_B1_day4,2022.2.4,Win32,30.00480077,,,,,,down,0,1.3203,,0.585185157,-0.073148162,1,0,0,0,81,81,103,1,joggen,images/br_joggen.png,images/cb_joggen.png,0,,,,,,,,,,,,,,,,,,,,,,
,,,,,00076,2023-10-21_19h02.45.023,vbt_B1_day4,2022.2.4,Win32,30.00480077,,,,,,down,0,1.3189,,0.585185157,-0.073148162,1,0,0,0,82,82,118,1,vinger,images/br_vinger.png,images/cb_vinger.png,0,,,,,,,,,,,,,,,,,,,,,,
,,,,,00076,2023-10-21_19h02.45.023,vbt_B1_day4,2022.2.4,Win32,30.00480077,,,,,,down,0,0.2678,,0.585185157,-0.073148162,1,0,0,0,83,83,126,1,kasteel,images/br_kasteel.png,images/cb_kasteel.png,0,,,,,,,,,,,,,,,,,,,,,,
,,,,,00076,2023-10-21_19h02.45.023,vbt_B1_day4,2022.2.4,Win32,30.00480077,,,,,,down,0,0.9506,,0.53333339,-0.097222222,1,0,0,0,84,84,133,1,seizoen,images/br_seizoen.png,images/cb_seizoen.png,0,,,,,,,,,,,,,,,,,,,,,,
,,,,,00076,2023-10-21_19h02.45.023,vbt_B1_day4,2022.2.4,Win32,30.00480077,,,,,,down,0,2.5545,,0.53333339,-0.097222222,1,0,0,0,85,85,93,1,waarop,images/br_waarop.png,images/cb_waarop.png,0,,,,,,,,,,,,,,,,,,,,,,
,,,,,00076,2023-10-21_19h02.45.023,vbt_B1_day4,2022.2.4,Win32,30.00480077,,,,,,down,0,4.2315,,0.53333339,-0.097222222,1,0,0,0,86,86,113,1,koppen,images/br_koppen.png,images/cb_koppen.png,0,,,,,,,,,,,,,,,,,,,,,,
,,,,,00076,2023-10-21_19h02.45.023,vbt_B1_day4,2022.2.4,Win32,30.00480077,,,,,,down,0,0.4677,,0.53333339,-0.097222222,1,0,0,0,87,87,37,1,mijn,images/br_mijn.png,images/cb_mijn.png,0,,,,,,,,,,,,,,,,,,,,,,
,,,,,00076,2023-10-21_19h02.45.023,vbt_B1_day4,2022.2.4,Win32,30.00480077,,,,,,down,0,0.2006,,0.53333339,-0.097222222,1,0,0,0,88,88,99,1,koffie,images/br_koffie.png,images/cb_koffie.png,0,,,,,,,,,,,,,,,,,,,,,,
,,,,,00076,2023-10-21_19h02.45.023,vbt_B1_day4,2022.2.4,Win32,30.00480077,,,,,,down,0,0.1242,,0.531481566,-0.099074116,1,0,0,0,89,89,94,1,oceaan,images/br_oceaan.png,images/cb_oceaan.png,0,,,,,,,,,,,,,,,,,,,,,,
,,,,,00076,2023-10-21_19h02.45.023,vbt_B1_day4,2022.2.4,Win32,30.00480077,,,,,,down,0,6.1718,,0.531481566,-0.099074116,1,0,0,0,90,90,174,1,stemming,images/br_stemming.png,images/cb_stemming.png,0,,,,,,,,,,,,,,,,,,,,,,
,,,,,00076,2023-10-21_19h02.45.023,vbt_B1_day4,2022.2.4,Win32,30.00480077,,,,,,down,0,4.005,,0.531481566,-0.099074116,1,0,0,0,91,91,62,1,knaap,images/br_knaap.png,images/cb_knaap.png,0,,,,,,,,,,,,,,,,,,,,,,
,,,,,00076,2023-10-21_19h02.45.023,vbt_B1_day4,2022.2.4,Win32,30.00480077,,,,,,down,0,11.401,,0.531481566,-0.099074116,1,0,0,0,92,92,38,1,baai,images/br_baai.png,images/cb_baai.png,0,,,,,,,,,,,,,,,,,,,,,,
,,,,,00076,2023-10-21_19h02.45.023,vbt_B1_day4,2022.2.4,Win32,30.00480077,,,,,,down,0,0.873,,0.531481566,-0.099074116,1,0,0,0,93,93,7,1,geld,images/br_geld.png,images/cb_geld.png,0,,,,,,,,,,,,,,,,,,,,,,
,,,,,00076,2023-10-21_19h02.45.023,vbt_B1_day4,2022.2.4,Win32,30.00480077,,,,,,down,0,8.6173,,0.531481566,-0.099074116,1,0,0,0,94,94,107,1,maling,images/br_maling.png,images/cb_maling.png,1,maling,,,,,,,,,,,,,,,,,,,,,
,,,,,00076,2023-10-21_19h02.45.023,vbt_B1_day4,2022.2.4,Win32,30.00480077,,,,,,down,0,3.6537,,0.531481566,-0.099074116,1,0,0,0,95,95,91,1,gezond,images/br_gezond.png,images/cb_gezond.png,0,,,,,,,,,,,,,,,,,,,,,,
,,,,,00076,2023-10-21_19h02.45.023,vbt_B1_day4,2022.2.4,Win32,30.00480077,,,,,,down,0,0.0243,,0.525925954,-0.094444487,1,0,0,0,96,96,121,1,twijfel,images/br_twijfel.png,images/cb_twijfel.png,0,,,,,,,,,,,,,,,,,,,,,,
,,,,,00076,2023-10-21_19h02.45.023,vbt_B1_day4,2022.2.4,Win32,30.00480077,,,,,,down,0,8.3978,,0.525925954,-0.094444487,1,0,0,0,97,97,2,1,jaar,images/br_jaar.png,images/cb_jaar.png,0,,,,,,,,,,,,,,,,,,,,,,
,,,,,00076,2023-10-21_19h02.45.023,vbt_B1_day4,2022.2.4,Win32,30.00480077,,,,,,down,0,0.4663,,0.525925954,-0.094444487,1,0,0,0,98,98,119,1,liefje,images/br_liefje.png,images/cb_liefje.png,0,,,,,,,,,,,,,,,,,,,,,,
,,,,,00076,2023-10-21_19h02.45.023,vbt_B1_day4,2022.2.4,Win32,30.00480077,,,,,,down,0,0.8382,,0.525925954,-0.094444487,1,0,0,0,99,99,47,1,kabel,images/br_kabel.png,images/cb_kabel.png,0,,,,,,,,,,,,,,,,,,,,,,
,,,,,00076,2023-10-21_19h02.45.023,vbt_B1_day4,2022.2.4,Win32,30.00480077,,,,,,down,0,3.9589,,0.525925954,-0.094444487,1,0,0,0,100,100,104,1,zweven,images/br_zweven.png,images/cb_zweven.png,1,zweven,,,,,,,,,,,,,,,,,,,,,
,,,,,00076,2023-10-21_19h02.45.023,vbt_B1_day4,2022.2.4,Win32,30.00480077,,,,,,down,0,0.704,,0.525925954,-0.094444487,1,0,0,0,101,101,160,1,daarheen,images/br_daarheen.png,images/cb_daarheen.png,0,,,,,,,,,,,,,,,,,,,,,,
,,,,,00076,2023-10-21_19h02.45.023,vbt_B1_day4,2022.2.4,Win32,30.00480077,,,,,,down,0,0.4675,,0.525925954,-0.094444487,1,0,0,0,102,102,60,1,jasje,images/br_jasje.png,images/cb_jasje.png,0,,,,,,,,,,,,,,,,,,,,,,
,,,,,00076,2023-10-21_19h02.45.023,vbt_B1_day4,2022.2.4,Win32,30.00480077,,,,,,down,0,2.6789,,0.525925954,-0.094444487,1,0,0,0,103,103,71,1,bever,images/br_bever.png,images/cb_bever.png,0,,,,,,,,,,,,,,,,,,,,,,
,,,,,00076,2023-10-21_19h02.45.023,vbt_B1_day4,2022.2.4,Win32,30.00480077,,,,,,down,0,2.5609,,0.525925954,-0.094444487,1,0,0,0,104,104,146,1,opkomen,images/br_opkomen.png,images/cb_opkomen.png,1,opkomen,,,,,,,,,,,,,,,,,,,,,
,,,,,00076,2023-10-21_19h02.45.023,vbt_B1_day4,2022.2.4,Win32,30.00480077,,,,,,down,0,0.0672,,0.525925954,-0.094444487,1,0,0,0,105,105,151,1,aanzoek,images/br_aanzoek.png,images/cb_aanzoek.png,0,,,,,,,,,,,,,,,,,,,,,,
,,,,,00076,2023-10-21_19h02.45.023,vbt_B1_day4,2022.2.4,Win32,30.00480077,,,,,,down,0,0.5675,,0.525925954,-0.094444487,1,0,0,0,106,106,150,1,gegeven,images/br_gegeven.png,images/cb_gegeven.png,0,,,,,,,,,,,,,,,,,,,,,,
,,,,,00076,2023-10-21_19h02.45.023,vbt_B1_day4,2022.2.4,Win32,30.00480077,,,,,,down,0,1.5845,,0.525925954,-0.094444487,1,0,0,0,107,107,179,1,woestijn,images/br_woestijn.png,images/cb_woestijn.png,0,,,,,,,,,,,,,,,,,,,,,,
,,,,,00076,2023-10-21_19h02.45.023,vbt_B1_day4,2022.2.4,Win32,30.00480077,,,,,,down,0,0.3516,,0.525925954,-0.094444487,1,0,0,0,108,108,190,1,goedkoop,images/br_goedkoop.png,images/cb_goedkoop.png,0,,,,,,,,,,,,,,,,,,,,,,
,,,,,00076,2023-10-21_19h02.45.023,vbt_B1_day4,2022.2.4,Win32,30.00480077,,,,,,down,0,1.3361,,0.525925954,-0.094444487,1,0,0,0,109,109,128,1,prikken,images/br_prikken.png,images/cb_prikken.png,0,,,,,,,,,,,,,,,,,,,,,,
,,,,,00076,2023-10-21_19h02.45.023,vbt_B1_day4,2022.2.4,Win32,30.00480077,,,,,,down,0,0.1126,,0.525925954,-0.094444487,1,0,0,0,110,110,61,1,groen,images/br_groen.png,images/cb_groen.png,0,,,,,,,,,,,,,,,,,,,,,,
,,,,,00076,2023-10-21_19h02.45.023,vbt_B1_day4,2022.2.4,Win32,30.00480077,,,,,,down,0,9.8252,,0.525925954,-0.094444487,1,0,0,0,111,111,141,1,knielen,images/br_knielen.png,images/cb_knielen.png,0,,,,,,,,,,,,,,,,,,,,,,
,,,,,00076,2023-10-21_19h02.45.023,vbt_B1_day4,2022.2.4,Win32,30.00480077,,,,,,down,0,0.1349,,0.525925954,-0.094444487,1,0,0,0,112,112,155,1,gerucht,images/br_gerucht.png,images/cb_gerucht.png,0,,,,,,,,,,,,,,,,,,,,,,
,,,,,00076,2023-10-21_19h02.45.023,vbt_B1_day4,2022.2.4,Win32,30.00480077,,,,,,down,0,1.084,,0.346296381,-0.175925926,1,0,0,0,113,113,171,1,aarzelen,images/br_aarzelen.png,images/cb_aarzelen.png,0,,,,,,,,,,,,,,,,,,,,,,
,,,,,00076,2023-10-21_19h02.45.023,vbt_B1_day4,2022.2.4,Win32,30.00480077,,,,,,down,0,0.5009,,0.346296381,-0.175925926,1,0,0,0,114,114,165,1,feestdag,images/br_feestdag.png,images/cb_feestdag.png,0,,,,,,,,,,,,,,,,,,,,,,
,,,,,00076,2023-10-21_19h02.45.023,vbt_B1_day4,2022.2.4,Win32,30.00480077,,,,,,down,0,6.9493,,0.252777806,-0.22592594,1,0,0,0,115,115,25,1,plek,images/br_plek.png,images/cb_plek.png,1,plek,,,,,,,,,,,,,,,,,,,,,
,,,,,00076,2023-10-21_19h02.45.023,vbt_B1_day4,2022.2.4,Win32,30.00480077,,,,,,down,0,6.3676,,-0.302777785,-0.26944443,1,0,0,0,116,116,46,1,jagen,images/br_jagen.png,images/cb_jagen.png,0,,,,,,,,,,,,,,,,,,,,,,
,,,,,00076,2023-10-21_19h02.45.023,vbt_B1_day4,2022.2.4,Win32,30.00480077,,,,,,down,0,1.4791,,-0.302777785,-0.26944443,1,0,0,0,117,117,65,1,parel,images/br_parel.png,images/cb_parel.png,1,parel,,,,,,,,,,,,,,,,,,,,,
,,,,,00076,2023-10-21_19h02.45.023,vbt_B1_day4,2022.2.4,Win32,30.00480077,,,,,,down,0,1.263,,-0.302777785,-0.26944443,1,0,0,0,118,118,8,1,knie,images/br_knie.png,images/cb_knie.png,0,,,,,,,,,,,,,,,,,,,,,,
,,,,,00076,2023-10-21_19h02.45.023,vbt_B1_day4,2022.2.4,Win32,30.00480077,,,,,,down,0,6.7971,,-0.302777785,-0.26944443,1,0,0,0,119,119,147,1,komisch,images/br_komisch.png,images/cb_komisch.png,1,komisch,,,,,,,,,,,,,,,,,,,,,
,,,,,00076,2023-10-21_19h02.45.023,vbt_B1_day4,2022.2.4,Win32,30.00480077,,,,,,down,0,0.2624,,-0.302777785,-0.26944443,1,0,0,0,120,120,10,1,leek,images/br_leek.png,images/cb_leek.png,0,,,,,,,,,,,,,,,,,,,,,,
,,,,,00076,2023-10-21_19h02.45.023,vbt_B1_day4,2022.2.4,Win32,30.00480077,,,,,,down,0,0.0008,,-0.302777785,-0.26944443,1,0,0,0,121,121,74,1,graaf,images/br_graaf.png,images/cb_graaf.png,0,,,,,,,,,,,,,,,,,,,,,,
,,,,,00076,2023-10-21_19h02.45.023,vbt_B1_day4,2022.2.4,Win32,30.00480077,,,,,,down,0,4.8323,,-0.302777785,-0.26944443,1,0,0,0,122,122,110,1,zuster,images/br_zuster.png,images/cb_zuster.png,0,,,,,,,,,,,,,,,,,,,,,,
,,,,,00076,2023-10-21_19h02.45.023,vbt_B1_day4,2022.2.4,Win32,30.00480077,,,,,,down,0,0.3337,,-0.302777785,-0.26944443,1,0,0,0,123,123,53,1,baron,images/br_baron.png,images/cb_baron.png,0,,,,,,,,,,,,,,,,,,,,,,
,,,,,00076,2023-10-21_19h02.45.023,vbt_B1_day4,2022.2.4,Win32,30.00480077,,,,,,down,0,0.4398,,-0.302777785,-0.26944443,1,0,0,0,124,124,88,1,boeien,images/br_boeien.png,images/cb_boeien.png,0,,,,,,,,,,,,,,,,,,,,,,
,,,,,00076,2023-10-21_19h02.45.023,vbt_B1_day4,2022.2.4,Win32,30.00480077,,,,,,down,0,0.2505,,-0.302777785,-0.26944443,1,0,0,0,125,125,195,1,middelen,images/br_middelen.png,images/cb_middelen.png,0,,,,,,,,,,,,,,,,,,,,,,
,,,,,00076,2023-10-21_19h02.45.023,vbt_B1_day4,2022.2.4,Win32,30.00480077,,,,,,down,0,2.1988,,-0.302777785,-0.26944443,1,0,0,0,126,126,136,1,waarbij,images/br_waarbij.png,images/cb_waarbij.png,0,,,,,,,,,,,,,,,,,,,,,,
,,,,,00076,2023-10-21_19h02.45.023,vbt_B1_day4,2022.2.4,Win32,30.00480077,,,,,,down,0,0.2581,,-0.302777785,-0.26944443,1,0,0,0,127,127,127,1,doodmoe,images/br_doodmoe.png,images/cb_doodmoe.png,0,,,,,,,,,,,,,,,,,,,,,,
,,,,,00076,2023-10-21_19h02.45.023,vbt_B1_day4,2022.2.4,Win32,30.00480077,,,,,,down,0,0.0434,,-0.302777785,-0.26944443,1,0,0,0,128,128,45,1,piste,images/br_piste.png,images/cb_piste.png,0,,,,,,,,,,,,,,,,,,,,,,
,,,,,00076,2023-10-21_19h02.45.023,vbt_B1_day4,2022.2.4,Win32,30.00480077,,,,,,down,0,0.5455,,-0.336111104,-0.286111125,1,0,0,0,129,129,87,1,toeval,images/br_toeval.png,images/cb_toeval.png,0,,,,,,,,,,,,,,,,,,,,,,
,,,,,00076,2023-10-21_19h02.45.023,vbt_B1_day4,2022.2.4,Win32,30.00480077,,,,,,down,0,0.1707,,-0.336111104,-0.286111125,1,0,0,0,130,130,78,1,leren,images/br_leren.png,images/cb_leren.png,0,,,,,,,,,,,,,,,,,,,,,,
,,,,,00076,2023-10-21_19h02.45.023,vbt_B1_day4,2022.2.4,Win32,30.00480077,,,,,,down,0,2.1186,,-0.336111104,-0.286111125,1,0,0,0,131,131,148,1,smullen,images/br_smullen.png,images/cb_smullen.png,0,,,,,,,,,,,,,,,,,,,,,,
,,,,,00076,2023-10-21_19h02.45.023,vbt_B1_day4,2022.2.4,Win32,30.00480077,,,,,,down,0,0.7835,,-0.336111104,-0.286111125,1,0,0,0,132,132,28,1,stal,images/br_stal.png,images/cb_stal.png,0,,,,,,,,,,,,,,,,,,,,,,
,,,,,00076,2023-10-21_19h02.45.023,vbt_B1_day4,2022.2.4,Win32,30.00480077,,,,,,down,0,0.9176,,-0.336111104,-0.286111125,1,0,0,0,133,133,173,1,apparaat,images/br_apparaat.png,images/cb_apparaat.png,0,,,,,,,,,,,,,,,,,,,,,,
,,,,,00076,2023-10-21_19h02.45.023,vbt_B1_day4,2022.2.4,Win32,30.00480077,,,,,,down,0,0.5645,,-0.336111104,-0.286111125,1,0,0,0,134,134,49,1,laken,images/br_laken.png,images/cb_laken.png,0,,,,,,,,,,,,,,,,,,,,,,
,,,,,00076,2023-10-21_19h02.45.023,vbt_B1_day4,2022.2.4,Win32,30.00480077,,,,,,down,0,3.4692,,-0.336111104,-0.286111125,1,0,0,0,135,135,176,1,techniek,images/br_techniek.png,images/cb_techniek.png,0,,,,,,,,,,,,,,,,,,,,,,
,,,,,00076,2023-10-21_19h02.45.023,vbt_B1_day4,2022.2.4,Win32,30.00480077,,,,,,down,0,0.1692,,-0.39907406,-0.080555563,1,0,0,0,136,136,9,1,hier,images/br_hier.png,images/cb_hier.png,0,,,,,,,,,,,,,,,,,,,,,,
,,,,,00076,2023-10-21_19h02.45.023,vbt_B1_day4,2022.2.4,Win32,30.00480077,,,,,,down,0,0.7284,,-0.402777778,-0.082407422,1,0,0,0,137,137,156,1,rechten,images/br_rechten.png,images/cb_rechten.png,0,,,,,,,,,,,,,,,,,,,,,,
,,,,,00076,2023-10-21_19h02.45.023,vbt_B1_day4,2022.2.4,Win32,30.00480077,,,,,,down,0,0.6864,,-0.402777778,-0.082407422,1,0,0,0,138,138,90,1,geluid,images/br_geluid.png,images/cb_geluid.png,0,,,,,,,,,,,,,,,,,,,,,,
,,,,,00076,2023-10-21_19h02.45.023,vbt_B1_day4,2022.2.4,Win32,30.00480077,,,,,,down,0,7.7505,,-0.402777778,-0.082407422,1,0,0,0,139,139,14,1,rijp,images/br_rijp.png,images/cb_rijp.png,0,,,,,,,,,,,,,,,,,,,,,,
,,,,,00076,2023-10-21_19h02.45.023,vbt_B1_day4,2022.2.4,Win32,30.00480077,,,,,,down,0,1.0053,,-0.402777778,-0.082407422,1,0,0,0,140,140,48,1,steel,images/br_steel.png,images/cb_steel.png,0,,,,,,,,,,,,,,,,,,,,,,
,,,,,00076,2023-10-21_19h02.45.023,vbt_B1_day4,2022.2.4,Win32,30.00480077,,,,,,down,0,7.2999,,-0.402777778,-0.082407422,1,0,0,0,141,141,169,1,oprotten,images/br_oprotten.png,images/cb_oprotten.png,0,,,,,,,,,,,,,,,,,,,,,,
,,,,,00076,2023-10-21_19h02.45.023,vbt_B1_day4,2022.2.4,Win32,30.00480077,,,,,,down,0,0.8725,,-0.402777778,-0.082407422,1,0,0,0,142,142,189,1,aanraden,images/br_aanraden.png,images/cb_aanraden.png,0,,,,,,,,,,,,,,,,,,,,,,
,,,,,00076,2023-10-21_19h02.45.023,vbt_B1_day4,2022.2.4,Win32,30.00480077,,,,,,down,0,0.9894,,-0.402777778,-0.082407422,1,0,0,0,143,143,149,1,redding,images/br_redding.png,images/cb_redding.png,0,,,,,,,,,,,,,,,,,,,,,,
,,,,,00076,2023-10-21_19h02.45.023,vbt_B1_day4,2022.2.4,Win32,30.00480077,,,,,,down,0,4.3866,,-0.402777778,-0.082407422,1,0,0,0,144,144,92,1,geheim,images/br_geheim.png,images/cb_geheim.png,0,,,,,,,,,,,,,,,,,,,,,,
,,,,,00076,2023-10-21_19h02.45.023,vbt_B1_day4,2022.2.4,Win32,30.00480077,,,,,,down,0,1.7833,,-0.402777778,-0.082407422,1,0,0,0,145,145,188,1,strekken,images/br_strekken.png,images/cb_strekken.png,0,,,,,,,,,,,,,,,,,,,,,,
,,,,,00076,2023-10-21_19h02.45.023,vbt_B1_day4,2022.2.4,Win32,30.00480077,,,,,,down,0,0.2495,,-0.402777778,-0.082407422,1,0,0,0,146,146,39,1,laag,images/br_laag.png,images/cb_laag.png,0,,,,,,,,,,,,,,,,,,,,,,
,,,,,00076,2023-10-21_19h02.45.023,vbt_B1_day4,2022.2.4,Win32,30.00480077,,,,,,down,0,5.3623,,-0.402777778,-0.082407422,1,0,0,0,147,147,24,1,jurk,images/br_jurk.png,images/cb_jurk.png,1,jurk,,,,,,,,,,,,,,,,,,,,,
,,,,,00076,2023-10-21_19h02.45.023,vbt_B1_day4,2022.2.4,Win32,30.00480077,,,,,,down,0,12.1815,,-0.402777778,-0.082407422,1,0,0,0,148,148,145,1,invloed,images/br_invloed.png,images/cb_invloed.png,1,invloed,,,,,,,,,,,,,,,,,,,,,
,,,,,00076,2023-10-21_19h02.45.023,vbt_B1_day4,2022.2.4,Win32,30.00480077,,,,,,down,0,0.7723,,-0.402777778,-0.082407422,1,0,0,0,149,149,20,1,site,images/br_site.png,images/cb_site.png,0,,,,,,,,,,,,,,,,,,,,,,
,,,,,00076,2023-10-21_19h02.45.023,vbt_B1_day4,2022.2.4,Win32,30.00480077,,,,,,down,0,1.7848,,-0.402777778,-0.082407422,1,0,0,0,150,150,192,1,schaamte,images/br_schaamte.png,images/cb_schaamte.png,0,,,,,,,,,,,,,,,,,,,,,,
,,,,,00076,2023-10-21_19h02.45.023,vbt_B1_day4,2022.2.4,Win32,30.00480077,,,,,,down,0,1.8502,,-0.402777778,-0.082407422,1,0,0,0,151,151,79,1,nodig,images/br_nodig.png,images/cb_nodig.png,0,,,,,,,,,,,,,,,,,,,,,,
,,,,,00076,2023-10-21_19h02.45.023,vbt_B1_day4,2022.2.4,Win32,30.00480077,,,,,,down,0,3.0811,,-0.402777778,-0.082407422,1,0,0,0,152,152,67,1,zwart,images/br_zwart.png,images/cb_zwart.png,1,zwart,,,,,,,,,,,,,,,,,,,,,
,,,,,00076,2023-10-21_19h02.45.023,vbt_B1_day4,2022.2.4,Win32,30.00480077,,,,,,down,0,0.8522,,-0.402777778,-0.082407422,1,0,0,0,153,153,180,1,openbaar,images/br_openbaar.png,images/cb_openbaar.png,0,,,,,,,,,,,,,,,,,,,,,,
,,,,,00076,2023-10-21_19h02.45.023,vbt_B1_day4,2022.2.4,Win32,30.00480077,,,,,,down,0,1.423,,-0.402777778,-0.082407422,1,0,0,0,154,154,27,1,dans,images/br_dans.png,images/cb_dans.png,1,dans,,,,,,,,,,,,,,,,,,,,,
,,,,,00076,2023-10-21_19h02.45.023,vbt_B1_day4,2022.2.4,Win32,30.00480077,,,,,,down,0,3.6341,,-0.402777778,-0.082407422,1,0,0,0,155,155,164,1,anarchie,images/br_anarchie.png,images/cb_anarchie.png,0,,,,,,,,,,,,,,,,,,,,,,
,,,,,00076,2023-10-21_19h02.45.023,vbt_B1_day4,2022.2.4,Win32,30.00480077,,,,,,down,0,4.8019,,-0.402777778,-0.082407422,1,0,0,0,156,156,129,1,verhaal,images/br_verhaal.png,images/cb_verhaal.png,0,,,,,,,,,,,,,,,,,,,,,,
,,,,,00076,2023-10-21_19h02.45.023,vbt_B1_day4,2022.2.4,Win32,30.00480077,,,,,,down,0,1.5662,,-0.402777778,-0.082407422,1,0,0,0,157,157,36,1,vuur,images/br_vuur.png,images/cb_vuur.png,0,,,,,,,,,,,,,,,,,,,,,,
,,,,,00076,2023-10-21_19h02.45.023,vbt_B1_day4,2022.2.4,Win32,30.00480077,,,,,,down,0,8.7408,,-0.402777778,-0.082407422,1,0,0,0,158,158,41,1,maken,images/br_maken.png,images/cb_maken.png,0,,,,,,,,,,,,,,,,,,,,,,
,,,,,00076,2023-10-21_19h02.45.023,vbt_B1_day4,2022.2.4,Win32,30.00480077,,,,,,down,0,2.7367,,-0.402777778,-0.082407422,1,0,0,0,159,159,98,1,kreeft,images/br_kreeft.png,images/cb_kreeft.png,0,,,,,,,,,,,,,,,,,,,,,,
,,,,,00076,2023-10-21_19h02.45.023,vbt_B1_day4,2022.2.4,Win32,30.00480077,,,,,,down,0,5.0157,,-0.402777778,-0.082407422,1,0,0,0,160,160,57,1,steek,images/br_steek.png,images/cb_steek.png,0,,,,,,,,,,,,,,,,,,,,,,
,,,,,00076,2023-10-21_19h02.45.023,vbt_B1_day4,2022.2.4,Win32,30.00480077,,,,,,down,0,1.7026,,-0.375925912,-0.08425928,1,0,0,0,161,161,109,1,totaal,images/br_totaal.png,images/cb_totaal.png,0,,,,,,,,,,,,,,,,,,,,,,
,,,,,00076,2023-10-21_19h02.45.023,vbt_B1_day4,2022.2.4,Win32,30.00480077,,,,,,down,0,0.0688,,-0.440740727,-0.125,1,0,0,0,162,162,111,1,ticket,images/br_ticket.png,images/cb_ticket.png,0,,,,,,,,,,,,,,,,,,,,,,
,,,,,00076,2023-10-21_19h02.45.023,vbt_B1_day4,2022.2.4,Win32,30.00480077,,,,,,down,0,0.9168,,-0.440740727,-0.125,1,0,0,0,163,163,34,1,vorm,images/br_vorm.png,images/cb_vorm.png,0,,,,,,,,,,,,,,,,,,,,,,
,,,,,00076,2023-10-21_19h02.45.023,vbt_B1_day4,2022.2.4,Win32,30.00480077,,,,,,down,0,2.5663,,-0.440740727,-0.125,1,0,0,0,164,164,44,1,flits,images/br_flits.png,images/cb_flits.png,0,,,,,,,,,,,,,,,,,,,,,,
,,,,,00076,2023-10-21_19h02.45.023,vbt_B1_day4,2022.2.4,Win32,30.00480077,,,,,,down,0,0.0513,,-0.455555563,-0.160185213,1,0,0,0,165,165,1,1,zaal,images/br_zaal.png,images/cb_zaal.png,0,,,,,,,,,,,,,,,,,,,,,,
,,,,,00076,2023-10-21_19h02.45.023,vbt_B1_day4,2022.2.4,Win32,30.00480077,,,,,,down,0,7.7019,,-0.508333312,-0.18240745,1,0,0,0,166,166,159,1,sufferd,images/br_sufferd.png,images/cb_sufferd.png,0,,,,,,,,,,,,,,,,,,,,,,
,,,,,00076,2023-10-21_19h02.45.023,vbt_B1_day4,2022.2.4,Win32,30.00480077,,,,,,down,0,1.9161,,-0.573148127,-0.223148134,1,0,0,0,167,167,181,1,toegeven,images/br_toegeven.png,images/cb_toegeven.png,0,,,,,,,,,,,,,,,,,,,,,,
,,,,,00076,2023-10-21_19h02.45.023,vbt_B1_day4,2022.2.4,Win32,30.00480077,,,,,,down,0,4.3327,,-0.582407386,-0.224074116,1,0,0,0,168,168,105,1,wijlen,images/br_wijlen.png,images/cb_wijlen.png,1,wijlen,,,,,,,,,,,,,,,,,,,,,
,,,,,00076,2023-10-21_19h02.45.023,vbt_B1_day4,2022.2.4,Win32,30.00480077,,,,,,down,0,3.3848,,-0.582407386,-0.224074116,1,0,0,0,169,169,132,1,grappen,images/br_grappen.png,images/cb_grappen.png,0,,,,,,,,,,,,,,,,,,,,,,
,,,,,00076,2023-10-21_19h02.45.023,vbt_B1_day4,2022.2.4,Win32,30.00480077,,,,,,down,0,2.1864,,-0.582407386,-0.224074116,1,0,0,0,170,170,198,1,bedoelen,images/br_bedoelen.png,images/cb_bedoelen.png,0,,,,,,,,,,,,,,,,,,,,,,
,,,,,00076,2023-10-21_19h02.45.023,vbt_B1_day4,2022.2.4,Win32,30.00480077,,,,,,down,0,8.575,,-0.582407386,-0.224074116,1,0,0,0,171,171,21,1,mist,images/br_mist.png,images/cb_mist.png,0,,,,,,,,,,,,,,,,,,,,,,
,,,,,00076,2023-10-21_19h02.45.023,vbt_B1_day4,2022.2.4,Win32,30.00480077,,,,,,down,0,0.1938,,-0.582407386,-0.224074116,1,0,0,0,172,172,138,1,akkoord,images/br_akkoord.png,images/cb_akkoord.png,0,,,,,,,,,,,,,,,,,,,,,,
,,,,,00076,2023-10-21_19h02.45.023,vbt_B1_day4,2022.2.4,Win32,30.00480077,,,,,,down,0,2.9084,,-0.582407386,-0.224074116,1,0,0,0,173,173,72,1,strak,images/br_strak.png,images/cb_strak.png,0,,,,,,,,,,,,,,,,,,,,,,
,,,,,00076,2023-10-21_19h02.45.023,vbt_B1_day4,2022.2.4,Win32,30.00480077,,,,,,down,0,0.1843,,-0.582407386,-0.224074116,1,0,0,0,174,174,196,1,nakijken,images/br_nakijken.png,images/cb_nakijken.png,0,,,,,,,,,,,,,,,,,,,,,,
,,,,,00076,2023-10-21_19h02.45.023,vbt_B1_day4,2022.2.4,Win32,30.00480077,,,,,,down,0,4.4326,,-0.582407386,-0.224074116,1,0,0,0,175,175,51,1,samen,images/br_samen.png,images/cb_samen.png,0,,,,,,,,,,,,,,,,,,,,,,
,,,,,00076,2023-10-21_19h02.45.023,vbt_B1_day4,2022.2.4,Win32,30.00480077,,,,,,down,0,0.2678,,-0.582407386,-0.224074116,1,0,0,0,176,176,81,1,dubbel,images/br_dubbel.png,images/cb_dubbel.png,0,,,,,,,,,,,,,,,,,,,,,,
,,,,,00076,2023-10-21_19h02.45.023,vbt_B1_day4,2022.2.4,Win32,30.00480077,,,,,,down,0,0.742,,-0.582407386,-0.224074116,1,0,0,0,177,177,175,1,heengaan,images/br_heengaan.png,images/cb_heengaan.png,0,,,,,,,,,,,,,,,,,,,,,,
,,,,,00076,2023-10-21_19h02.45.023,vbt_B1_day4,2022.2.4,Win32,30.00480077,,,,,,down,0,1.1613,,-0.582407386,-0.224074116,1,0,0,0,178,178,114,1,vullen,images/br_vullen.png,images/cb_vullen.png,0,,,,,,,,,,,,,,,,,,,,,,
,,,,,00076,2023-10-21_19h02.45.023,vbt_B1_day4,2022.2.4,Win32,30.00480077,,,,,,down,0,2.1665,,-0.582407386,-0.224074116,1,0,0,0,179,179,137,1,trekker,images/br_trekker.png,images/cb_trekker.png,0,,,,,,,,,,,,,,,,,,,,,,
,,,,,00076,2023-10-21_19h02.45.023,vbt_B1_day4,2022.2.4,Win32,30.00480077,,,,,,down,0,2.3655,,-0.582407386,-0.224074116,1,0,0,0,180,180,182,1,bijkomen,images/br_bijkomen.png,images/cb_bijkomen.png,0,,,,,,,,,,,,,,,,,,,,,,
,,,,,00076,2023-10-21_19h02.45.023,vbt_B1_day4,2022.2.4,Win32,30.00480077,,,,,,down,0,0.378,,-0.582407386,-0.224074116,1,0,0,0,181,181,6,1,diep,images/br_diep.png,images/cb_diep.png,0,,,,,,,,,,,,,,,,,,,,,,
,,,,,00076,2023-10-21_19h02.45.023,vbt_B1_day4,2022.2.4,Win32,30.00480077,,,,,,down,0,2.6778,,-0.582407386,-0.224074116,1,0,0,0,182,182,29,1,baas,images/br_baas.png,images/cb_baas.png,0,,,,,,,,,,,,,,,,,,,,,,
,,,,,00076,2023-10-21_19h02.45.023,vbt_B1_day4,2022.2.4,Win32,30.00480077,,,,,,down,0,0.9492,,-0.582407386,-0.224074116,1,0,0,0,183,183,140,1,blijven,images/br_blijven.png,images/cb_blijven.png,0,,,,,,,,,,,,,,,,,,,,,,
,,,,,00076,2023-10-21_19h02.45.023,vbt_B1_day4,2022.2.4,Win32,30.00480077,,,,,,down,0,0.634,,-0.582407386,-0.224074116,1,0,0,0,184,184,116,1,besmet,images/br_besmet.png,images/cb_besmet.png,0,,,,,,,,,,,,,,,,,,,,,,
,,,,,00076,2023-10-21_19h02.45.023,vbt_B1_day4,2022.2.4,Win32,30.00480077,,,,,,down,0,0.3008,,-0.498148141,-0.229629658,1,0,0,0,185,185,168,1,bisschop,images/br_bisschop.png,images/cb_bisschop.png,0,,,,,,,,,,,,,,,,,,,,,,
,,,,,00076,2023-10-21_19h02.45.023,vbt_B1_day4,2022.2.4,Win32,30.00480077,,,,,,down,0,0.0503,,-0.498148141,-0.229629658,1,0,0,0,186,186,178,1,huisdier,images/br_huisdier.png,images/cb_huisdier.png,0,,,,,,,,,,,,,,,,,,,,,,
,,,,,00076,2023-10-21_19h02.45.023,vbt_B1_day4,2022.2.4,Win32,30.00480077,,,,,,down,0,0.585,,-0.498148141,-0.229629658,1,0,0,0,187,187,30,1,uien,images/br_uien.png,images/cb_uien.png,0,,,,,,,,,,,,,,,,,,,,,,
,,,,,00076,2023-10-21_19h02.45.023,vbt_B1_day4,2022.2.4,Win32,30.00480077,,,,,,down,0,0.9972,,-0.498148141,-0.229629658,1,0,0,0,188,188,42,1,bleek,images/br_bleek.png,images/cb_bleek.png,0,,,,,,,,,,,,,,,,,,,,,,
,,,,,00076,2023-10-21_19h02.45.023,vbt_B1_day4,2022.2.4,Win32,30.00480077,,,,,,down,0,9.0949,,-0.498148141,-0.229629658,1,0,0,0,189,189,120,1,klimmen,images/br_klimmen.png,images/cb_klimmen.png,0,,,,,,,,,,,,,,,,,,,,,,
,,,,,00076,2023-10-21_19h02.45.023,vbt_B1_day4,2022.2.4,Win32,30.00480077,,,,,,down,0,0.4002,,-0.498148141,-0.229629658,1,0,0,0,190,190,3,1,mand,images/br_mand.png,images/cb_mand.png,0,,,,,,,,,,,,,,,,,,,,,,
,,,,,00076,2023-10-21_19h02.45.023,vbt_B1_day4,2022.2.4,Win32,30.00480077,,,,,,down,0,4.5853,,-0.675925926,-0.173148191,1,0,0,0,191,191,80,1,kanjer,images/br_kanjer.png,images/cb_kanjer.png,0,,,,,,,,,,,,,,,,,,,,,,
,,,,,00076,2023-10-21_19h02.45.023,vbt_B1_day4,2022.2.4,Win32,30.00480077,,,,,,down,0,2.0111,,-0.675925926,-0.173148191,1,0,0,0,192,192,125,1,aanzien,images/br_aanzien.png,images/cb_aanzien.png,0,,,,,,,,,,,,,,,,,,,,,,
,,,,,00076,2023-10-21_19h02.45.023,vbt_B1_day4,2022.2.4,Win32,30.00480077,,,,,,down,0,3.6485,,-0.675925926,-0.173148191,1,0,0,0,193,193,153,1,vervoer,images/br_vervoer.png,images/cb_vervoer.png,0,,,,,,,,,,,,,,,,,,,,,,
,,,,,00076,2023-10-21_19h02.45.023,vbt_B1_day4,2022.2.4,Win32,30.00480077,,,,,,down,0,2.3501,,-0.675925926,-0.173148191,1,0,0,0,194,194,35,1,lust,images/br_lust.png,images/cb_lust.png,0,,,,,,,,,,,,,,,,,,,,,,
,,,,,00076,2023-10-21_19h02.45.023,vbt_B1_day4,2022.2.4,Win32,30.00480077,,,,,,down,0,3.6665,,-0.675925926,-0.173148191,1,0,0,0,195,195,0,1,slak,images/br_slak.png,images/cb_slak.png,0,,,,,,,,,,,,,,,,,,,,,,
,,,,,00076,2023-10-21_19h02.45.023,vbt_B1_day4,2022.2.4,Win32,30.00480077,,,,,,down,0,1.6795,,-0.675925926,-0.173148191,1,0,0,0,196,196,177,1,maaltijd,images/br_maaltijd.png,images/cb_maaltijd.png,0,,,,,,,,,,,,,,,,,,,,,,
,,,,,00076,2023-10-21_19h02.45.023,vbt_B1_day4,2022.2.4,Win32,30.00480077,,,,,,down,0,0.5505,,-0.675925926,-0.173148191,1,0,0,0,197,197,52,1,wagon,images/br_wagon.png,images/cb_wagon.png,0,,,,,,,,,,,,,,,,,,,,,,
,,,,,00076,2023-10-21_19h02.45.023,vbt_B1_day4,2022.2.4,Win32,30.00480077,,,,,,down,0,0.0572,,-0.675925926,-0.173148191,1,0,0,0,198,198,19,1,geit,images/br_geit.png,images/cb_geit.png,0,,,,,,,,,,,,,,,,,,,,,,
,,,,,00076,2023-10-21_19h02.45.023,vbt_B1_day4,2022.2.4,Win32,30.00480077,,,,,,down,0,1.8019,,-0.675925926,-0.173148191,1,0,0,0,199,199,162,1,uitdelen,images/br_uitdelen.png,images/cb_uitdelen.png,0,,,,,,,,,,,,,,,,,,,,,,
,,,,,00076,2023-10-21_19h02.45.023,vbt_B1_day4,2022.2.4,Win32,30.00480077,,,,,,,,,,,,,,,,,,,,,,,,,-0.675925926,-0.173148191,1,0,0,,,,,,,,,,,,,,,,
,,,,,00076,2023-10-21_19h02.45.023,vbt_B1_day4,2022.2.4,Win32,30.00480077,,,,,,,,,,,,,,,,,,,,,,,,,,,,,,-0.675925926,-0.183333362,1,0,0,,,,,,,,,,,
,,,,,00076,2023-10-21_19h02.45.023,vbt_B1_day4,2022.2.4,Win32,30.00480077,,,,,,,,,,,,,,,,,,,,baron,images/br_baron.png,images/cb_baron.png,,baron,,,,,,,,,,,-0.675925926,-0.183333362,1,0,0,baron,0,0,0,5,1
,,,,,00076,2023-10-21_19h02.45.023,vbt_B1_day4,2022.2.4,Win32,30.00480077,,,,,,,,,,,,,,,,,,,,drooien,images/br_drooien.png,images/cb_drooien.png,,draaien,,,,,,,,,,,-0.675925926,-0.183333362,1,0,0,draaien,0,1,1,32,1
,,,,,00076,2023-10-21_19h02.45.023,vbt_B1_day4,2022.2.4,Win32,30.00480077,,,,,,,,,,,,,,,,,,,,pijnlijk,images/br_pijnlijk.png,images/cb_pijnlijk.png,,pijnlijjk,,,,,,,,,,,-0.675925926,-0.183333362,1,0,0,pijnlijjk,0,2,2,58,1
,,,,,00076,2023-10-21_19h02.45.023,vbt_B1_day4,2022.2.4,Win32,30.00480077,,,,,,,,,,,,,,,,,,,,kaal,images/br_kaal.png,images/cb_kaal.png,,kaal,,,,,,,,,,,-0.675925926,-0.183333362,1,0,0,kaal,0,3,3,1,1
,,,,,00076,2023-10-21_19h02.45.023,vbt_B1_day4,2022.2.4,Win32,30.00480077,,,,,,,,,,,,,,,,,,,,pittig,images/br_pittig.png,images/cb_pittig.png,,pittig,,,,,,,,,,,-0.675925926,-0.183333362,1,0,0,pittig,0,4,4,51,1
,,,,,00076,2023-10-21_19h02.45.023,vbt_B1_day4,2022.2.4,Win32,30.00480077,,,,,,,,,,,,,,,,,,,,bisschap,images/br_bisschap.png,images/cb_bisschap.png,,bisschop,,,,,,,,,,,-0.675925926,-0.183333362,1,0,0,bisschop,0,5,5,36,1
,,,,,00076,2023-10-21_19h02.45.023,vbt_B1_day4,2022.2.4,Win32,30.00480077,,,,,,,,,,,,,,,,,,,,steen,images/br_steen.png,images/cb_steen.png,,steen,,,,,,,,,,,-0.3675926,0.268518519,1,0,0,steen,0,6,6,44,1
,,,,,00076,2023-10-21_19h02.45.023,vbt_B1_day4,2022.2.4,Win32,30.00480077,,,,,,,,,,,,,,,,,,,,mekst,images/br_mekst.png,images/cb_mekst.png,,kust,,,,,,,,,,,-0.3675926,0.268518519,1,0,0,kust,0,7,7,27,1
,,,,,00076,2023-10-21_19h02.45.023,vbt_B1_day4,2022.2.4,Win32,30.00480077,,,,,,,,,,,,,,,,,,,,geheim,images/br_geheim.png,images/cb_geheim.png,,gefier,,,,,,,,,,,-0.3675926,0.268518519,1,0,0,gefier,0,8,8,8,1
,,,,,00076,2023-10-21_19h02.45.023,vbt_B1_day4,2022.2.4,Win32,30.00480077,,,,,,,,,,,,,,,,,,,,broodje,images/br_broodje.png,images/cb_broodje.png,,brood,,,,,,,,,,,-0.3675926,0.268518519,1,0,0,brood,0,9,9,55,1
,,,,,00076,2023-10-21_19h02.45.023,vbt_B1_day4,2022.2.4,Win32,30.00480077,,,,,,,,,,,,,,,,,,,,flippen,images/br_flippen.png,images/cb_flippen.png,,flippen,,,,,,,,,,,-0.3675926,0.268518519,1,0,0,flippen,0,10,10,54,1
,,,,,00076,2023-10-21_19h02.45.023,vbt_B1_day4,2022.2.4,Win32,30.00480077,,,,,,,,,,,,,,,,,,,,noodzaak,images/br_noodzaak.png,images/cb_noodzaak.png,,noodzaak,,,,,,,,,,,-0.3675926,0.268518519,1,0,0,noodzaak,0,11,11,56,1
,,,,,00076,2023-10-21_19h02.45.023,vbt_B1_day4,2022.2.4,Win32,30.00480077,,,,,,,,,,,,,,,,,,,,gebit,images/br_gebit.png,images/cb_gebit.png,,gebit,,,,,,,,,,,-0.3675926,0.268518519,1,0,0,gebit,0,12,12,6,1
,,,,,00076,2023-10-21_19h02.45.023,vbt_B1_day4,2022.2.4,Win32,30.00480077,,,,,,,,,,,,,,,,,,,,praat,images/br_praat.png,images/cb_praat.png,,praat,,,,,,,,,,,-0.3675926,0.268518519,1,0,0,praat,0,13,13,7,1
,,,,,00076,2023-10-21_19h02.45.023,vbt_B1_day4,2022.2.4,Win32,30.00480077,,,,,,,,,,,,,,,,,,,,soda,images/br_soda.png,images/cb_soda.png,,soda,,,,,,,,,,,-0.3675926,0.268518519,1,0,0,soda,0,14,14,3,1
,,,,,00076,2023-10-21_19h02.45.023,vbt_B1_day4,2022.2.4,Win32,30.00480077,,,,,,,,,,,,,,,,,,,,gedicht,images/br_gedicht.png,images/cb_gedicht.png,,gedicht,,,,,,,,,,,-0.3675926,0.268518519,1,0,0,gedicht,0,15,15,15,1
,,,,,00076,2023-10-21_19h02.45.023,vbt_B1_day4,2022.2.4,Win32,30.00480077,,,,,,,,,,,,,,,,,,,,gaaf,images/br_gaaf.png,images/cb_gaaf.png,,gaaf,,,,,,,,,,,-0.3675926,0.268518519,1,0,0,gaaf,0,16,16,43,1
,,,,,00076,2023-10-21_19h02.45.023,vbt_B1_day4,2022.2.4,Win32,30.00480077,,,,,,,,,,,,,,,,,,,,snee,images/br_snee.png,images/cb_snee.png,,snee,,,,,,,,,,,-0.3675926,0.268518519,1,0,0,snee,0,17,17,40,1
,,,,,00076,2023-10-21_19h02.45.023,vbt_B1_day4,2022.2.4,Win32,30.00480077,,,,,,,,,,,,,,,,,,,,haza,images/br_haza.png,images/cb_haza.png,,haza,,,,,,,,,,,-0.3675926,0.268518519,1,0,0,haza,0,18,18,21,1
,,,,,00076,2023-10-21_19h02.45.023,vbt_B1_day4,2022.2.4,Win32,30.00480077,,,,,,,,,,,,,,,,,,,,rijp,images/br_rijp.png,images/cb_rijp.png,,rijd,,,,,,,,,,,-0.3675926,0.268518519,1,0,0,rijd,0,19,19,2,1
,,,,,00076,2023-10-21_19h02.45.023,vbt_B1_day4,2022.2.4,Win32,30.00480077,,,,,,,,,,,,,,,,,,,,geliefd,images/br_geliefd.png,images/cb_geliefd.png,,geliefd,,,,,,,,,,,-0.3675926,0.268518519,1,0,0,geliefd,0,20,20,14,1
,,,,,00076,2023-10-21_19h02.45.023,vbt_B1_day4,2022.2.4,Win32,30.00480077,,,,,,,,,,,,,,,,,,,,stemming,images/br_stemming.png,images/cb_stemming.png,,stemming,,,,,,,,,,,-0.3675926,0.268518519,1,0,0,stemming,0,21,21,18,1
,,,,,00076,2023-10-21_19h02.45.023,vbt_B1_day4,2022.2.4,Win32,30.00480077,,,,,,,,,,,,,,,,,,,,zwek,images/br_zwek.png,images/cb_zwek.png,,zwek,,,,,,,,,,,-0.130555541,0.311111115,1,0,0,zwek,0,22,22,20,1
,,,,,00076,2023-10-21_19h02.45.023,vbt_B1_day4,2022.2.4,Win32,30.00480077,,,,,,,,,,,,,,,,,,,,tucket,images/br_tucket.png,images/cb_tucket.png,,tuck,,,,,,,,,,,-0.130555541,0.311111115,1,0,0,tuck,0,23,23,30,1
,,,,,00076,2023-10-21_19h02.45.023,vbt_B1_day4,2022.2.4,Win32,30.00480077,,,,,,,,,,,,,,,,,,,,apparaat,images/br_apparaat.png,images/cb_apparaat.png,,apparaat,,,,,,,,,,,-0.130555541,0.311111115,1,0,0,apparaat,0,24,24,17,1
,,,,,00076,2023-10-21_19h02.45.023,vbt_B1_day4,2022.2.4,Win32,30.00480077,,,,,,,,,,,,,,,,,,,,opkicht,images/br_opkicht.png,images/cb_opkicht.png,,opkocht,,,,,,,,,,,-0.130555541,0.311111115,1,0,0,opkocht,0,25,25,34,1
,,,,,00076,2023-10-21_19h02.45.023,vbt_B1_day4,2022.2.4,Win32,30.00480077,,,,,,,,,,,,,,,,,,,,oceaan,images/br_oceaan.png,images/cb_oceaan.png,,oceaan,,,,,,,,,,,-0.130555541,0.311111115,1,0,0,oceaan,0,26,26,10,1
,,,,,00076,2023-10-21_19h02.45.023,vbt_B1_day4,2022.2.4,Win32,30.00480077,,,,,,,,,,,,,,,,,,,,kust,images/br_kust.png,images/cb_kust.png,,kust,,,,,,,,,,,-0.130555541,0.311111115,1,0,0,kust,0,27,27,0,1
,,,,,00076,2023-10-21_19h02.45.023,vbt_B1_day4,2022.2.4,Win32,30.00480077,,,,,,,,,,,,,,,,,,,,opruimen,images/br_opruimen.png,images/cb_opruimen.png,,opruimen,,,,,,,,,,,-0.130555541,0.311111115,1,0,0,opruimen,0,28,28,59,1
,,,,,00076,2023-10-21_19h02.45.023,vbt_B1_day4,2022.2.4,Win32,30.00480077,,,,,,,,,,,,,,,,,,,,wagon,images/br_wagon.png,images/cb_wagon.png,,wagon,,,,,,,,,,,-0.130555541,0.311111115,1,0,0,wagon,0,29,29,4,1
,,,,,00076,2023-10-21_19h02.45.023,vbt_B1_day4,2022.2.4,Win32,30.00480077,,,,,,,,,,,,,,,,,,,,sulbon,images/br_sulbon.png,images/cb_sulbon.png,,sul,,,,,,,,,,,-0.130555541,0.311111115,1,0,0,sul,0,30,30,31,1
,,,,,00076,2023-10-21_19h02.45.023,vbt_B1_day4,2022.2.4,Win32,30.00480077,,,,,,,,,,,,,,,,,,,,grappen,images/br_grappen.png,images/cb_grappen.png,,grappen,,,,,,,,,,,-0.130555541,0.311111115,1,0,0,grappen,0,31,31,12,1
,,,,,00076,2023-10-21_19h02.45.023,vbt_B1_day4,2022.2.4,Win32,30.00480077,,,,,,,,,,,,,,,,,,,,schotel,images/br_schotel.png,images/cb_schotel.png,,schotel,,,,,,,,,,,-0.130555541,0.311111115,1,0,0,schotel,0,32,32,52,1
,,,,,00076,2023-10-21_19h02.45.023,vbt_B1_day4,2022.2.4,Win32,30.00480077,,,,,,,,,,,,,,,,,,,,dalen,images/br_dalen.png,images/cb_dalen.png,,dalen,,,,,,,,,,,-0.130555541,0.311111115,1,0,0,dalen,0,33,33,46,1
,,,,,00076,2023-10-21_19h02.45.023,vbt_B1_day4,2022.2.4,Win32,30.00480077,,,,,,,,,,,,,,,,,,,,schenden,images/br_schenden.png,images/cb_schenden.png,,schenden,,,,,,,,,,,-0.130555541,0.311111115,1,0,0,schenden,0,34,34,57,1
,,,,,00076,2023-10-21_19h02.45.023,vbt_B1_day4,2022.2.4,Win32,30.00480077,,,,,,,,,,,,,,,,,,,,getucht,images/br_getucht.png,images/cb_getucht.png,,gedicht,,,,,,,,,,,-0.130555541,0.311111115,1,0,0,gedicht,0,35,35,35,1
,,,,,00076,2023-10-21_19h02.45.023,vbt_B1_day4,2022.2.4,Win32,30.00480077,,,,,,,,,,,,,,,,,,,,heengaan,images/br_heengaan.png,images/cb_heengaan.png,,heengaan,,,,,,,,,,,-0.130555541,0.311111115,1,0,0,heengaan,0,36,36,19,1
,,,,,00076,2023-10-21_19h02.45.023,vbt_B1_day4,2022.2.4,Win32,30.00480077,,,,,,,,,,,,,,,,,,,,strok,images/br_strok.png,images/cb_strok.png,,strok,,,,,,,,,,,-0.130555541,0.311111115,1,0,0,strok,0,37,37,25,1
,,,,,00076,2023-10-21_19h02.45.023,vbt_B1_day4,2022.2.4,Win32,30.00480077,,,,,,,,,,,,,,,,,,,,weigeren,images/br_weigeren.png,images/cb_weigeren.png,,weigeren,,,,,,,,,,,-0.130555541,0.311111115,1,0,0,weigeren,0,38,38,16,1
,,,,,00076,2023-10-21_19h02.45.023,vbt_B1_day4,2022.2.4,Win32,30.00480077,,,,,,,,,,,,,,,,,,,,seizoon,images/br_seizoon.png,images/cb_seizoon.png,,seizoen,,,,,,,,,,,-0.130555541,0.311111115,1,0,0,seizoen,0,39,39,33,1
,,,,,00076,2023-10-21_19h02.45.023,vbt_B1_day4,2022.2.4,Win32,30.00480077,,,,,,,,,,,,,,,,,,,,wozing,images/br_wozing.png,images/cb_wozing.png,,wozing,,,,,,,,,,,-0.130555541,0.311111115,1,0,0,wozing,0,40,40,28,1
,,,,,00076,2023-10-21_19h02.45.023,vbt_B1_day4,2022.2.4,Win32,30.00480077,,,,,,,,,,,,,,,,,,,,ezel,images/br_ezel.png,images/cb_ezel.png,,ezel,,,,,,,,,,,-0.130555541,0.311111115,1,0,0,ezel,0,41,41,42,1
,,,,,00076,2023-10-21_19h02.45.023,vbt_B1_day4,2022.2.4,Win32,30.00480077,,,,,,,,,,,,,,,,,,,,warel,images/br_warel.png,images/cb_warel.png,,warel,,,,,,,,,,,-0.130555541,0.311111115,1,0,0,warel,0,42,42,26,1
,,,,,00076,2023-10-21_19h02.45.023,vbt_B1_day4,2022.2.4,Win32,30.00480077,,,,,,,,,,,,,,,,,,,,gijf,images/br_gijf.png,images/cb_gijf.png,,gidf,,,,,,,,,,,-0.130555541,0.311111115,1,0,0,gidf,0,43,43,23,1
,,,,,00076,2023-10-21_19h02.45.023,vbt_B1_day4,2022.2.4,Win32,30.00480077,,,,,,,,,,,,,,,,,,,,toevol,images/br_toevol.png,images/cb_toevol.png,,toeval,,,,,,,,,,,-0.130555541,0.311111115,1,0,0,toeval,0,44,44,29,1
,,,,,00076,2023-10-21_19h02.45.023,vbt_B1_day4,2022.2.4,Win32,30.00480077,,,,,,,,,,,,,,,,,,,,midden,images/br_midden.png,images/cb_midden.png,,middel,,,,,,,,,,,-0.130555541,0.311111115,1,0,0,middel,0,45,45,50,1
,,,,,00076,2023-10-21_19h02.45.023,vbt_B1_day4,2022.2.4,Win32,30.00480077,,,,,,,,,,,,,,,,,,,,eerst,images/br_eerst.png,images/cb_eerst.png,,eerst,,,,,,,,,,,-0.130555541,0.311111115,1,0,0,eerst,0,46,46,47,1
,,,,,00076,2023-10-21_19h02.45.023,vbt_B1_day4,2022.2.4,Win32,30.00480077,,,,,,,,,,,,,,,,,,,,gebog,images/br_gebog.png,images/cb_gebog.png,,gebog,,,,,,,,,,,-0.130555541,0.311111115,1,0,0,gebog,0,47,47,24,1
,,,,,00076,2023-10-21_19h02.45.023,vbt_B1_day4,2022.2.4,Win32,30.00480077,,,,,,,,,,,,,,,,,,,,vreten,images/br_vreten.png,images/cb_vreten.png,,vreten,,,,,,,,,,,-0.130555541,0.311111115,1,0,0,vreten,0,48,48,11,1
,,,,,00076,2023-10-21_19h02.45.023,vbt_B1_day4,2022.2.4,Win32,30.00480077,,,,,,,,,,,,,,,,,,,,paalbaak,images/br_paalbaak.png,images/cb_paalbaak.png,,paalbaak,,,,,,,,,,,-0.130555541,0.311111115,1,0,0,paalbaak,0,49,49,39,1
,,,,,00076,2023-10-21_19h02.45.023,vbt_B1_day4,2022.2.4,Win32,30.00480077,,,,,,,,,,,,,,,,,,,,drummer,images/br_drummer.png,images/cb_drummer.png,,drummen,,,,,,,,,,,-0.130555541,0.311111115,1,0,0,drummen,0,50,50,53,1
,,,,,00076,2023-10-21_19h02.45.023,vbt_B1_day4,2022.2.4,Win32,30.00480077,,,,,,,,,,,,,,,,,,,,dozijn,images/br_dozijn.png,images/cb_dozijn.png,,dozijn,,,,,,,,,,,-0.130555541,0.311111115,1,0,0,dozijn,0,51,51,48,1
,,,,,00076,2023-10-21_19h02.45.023,vbt_B1_day4,2022.2.4,Win32,30.00480077,,,,,,,,,,,,,,,,,,,,waarop,images/br_waarop.png,images/cb_waarop.png,,waarop,,,,,,,,,,,-0.130555541,0.311111115,1,0,0,waarop,0,52,52,9,1
,,,,,00076,2023-10-21_19h02.45.023,vbt_B1_day4,2022.2.4,Win32,30.00480077,,,,,,,,,,,,,,,,,,,,zaalrijk,images/br_zaalrijk.png,images/cb_zaalrijk.png,,zaalrijk,,,,,,,,,,,-0.130555541,0.311111115,1,0,0,zaalrijk,0,53,53,37,1
,,,,,00076,2023-10-21_19h02.45.023,vbt_B1_day4,2022.2.4,Win32,30.00480077,,,,,,,,,,,,,,,,,,,,bruin,images/br_bruin.png,images/cb_bruin.png,,bruin,,,,,,,,,,,-0.130555541,0.311111115,1,0,0,bruin,0,54,54,45,1
,,,,,00076,2023-10-21_19h02.45.023,vbt_B1_day4,2022.2.4,Win32,30.00480077,,,,,,,,,,,,,,,,,,,,seizoen,images/br_seizoen.png,images/cb_seizoen.png,,seizoen,,,,,,,,,,,-0.130555541,0.311111115,1,0,0,seizoen,0,55,55,13,1
,,,,,00076,2023-10-21_19h02.45.023,vbt_B1_day4,2022.2.4,Win32,30.00480077,,,,,,,,,,,,,,,,,,,,gaan,images/br_gaan.png,images/cb_gaan.png,,gaan,,,,,,,,,,,-0.130555541,0.311111115,1,0,0,gaan,0,56,56,41,1
,,,,,00076,2023-10-21_19h02.45.023,vbt_B1_day4,2022.2.4,Win32,30.00480077,,,,,,,,,,,,,,,,,,,,fran,images/br_fran.png,images/cb_fran.png,,fran,,,,,,,,,,,-0.130555541,0.311111115,1,0,0,fran,0,57,57,22,1
,,,,,00076,2023-10-21_19h02.45.023,vbt_B1_day4,2022.2.4,Win32,30.00480077,,,,,,,,,,,,,,,,,,,,lappen,images/br_lappen.png,images/cb_lappen.png,,lappen,,,,,,,,,,,-0.130555541,0.311111115,1,0,0,lappen,0,58,58,49,1
,,,,,00076,2023-10-21_19h02.45.023,vbt_B1_day4,2022.2.4,Win32,30.00480077,,,,,,,,,,,,,,,,,,,,aanzwaag,images/br_aanzwaag.png,images/cb_aanzwaag.png,,aanzwaag,,,,,,,,,,,-0.130555541,0.311111115,1,0,0,aanzwaag,0,59,59,38,1
,,,,,00076,2023-10-21_19h02.45.023,vbt_B1_day4,2022.2.4,Win32,30.00480077,,,,,,,,,,,,,,,,,,,,,,,,,,,,,,,,,,,,,,,,,,,,,
