welcome_mouse.x,welcome_mouse.y,welcome_mouse.leftButton,welcome_mouse.midButton,welcome_mouse.rightButton,"ID",date,expName,psychopyVersion,OS,frameRate,trainInstr_mouse.x,trainInstr_mouse.y,trainInstr_mouse.leftButton,trainInstr_mouse.midButton,trainInstr_mouse.rightButton,translation_key.keys,translation_key.corr,translation_key.rt,word_rsp.text,trWrd_mouse.x,trWrd_mouse.y,trWrd_mouse.leftButton,trWrd_mouse.midButton,trWrd_mouse.rightButton,train_loop.thisRepN,train_loop.thisTrialN,train_loop.thisN,train_loop.thisIndex,train_loop.ran,nlWrd,brWrd,cbWrd,test,testResp,mouse.x,mouse.y,mouse.leftButton,mouse.midButton,mouse.rightButton,testInstr_mouse.x,testInstr_mouse.y,testInstr_mouse.leftButton,testInstr_mouse.midButton,testInstr_mouse.rightButton,test_mouse.x,test_mouse.y,test_mouse.leftButton,test_mouse.midButton,test_mouse.rightButton,test_response.text,test_loop.thisRepN,test_loop.thisTrialN,test_loop.thisN,test_loop.thisIndex,test_loop.ran
-0.045442708,-0.212699653,1,0,0,00108,2023-11-28_18h25.22.968,vbt_B1_day4,2022.2.4,MacIntel,60.0024001,,,,,,,,,,,,,,,,,,,,,,,,,,,,,,,,,,,,,,,,,,,,,
,,,,,00108,2023-11-28_18h25.22.968,vbt_B1_day4,2022.2.4,MacIntel,60.0024001,-0.026657986,-0.409088542,1,0,0,,,,,,,,,,,,,,,,,,,,,,,,,,,,,,,,,,,,,,,,
,,,,,00108,2023-11-28_18h25.22.968,vbt_B1_day4,2022.2.4,MacIntel,60.0024001,,,,,,down,0,3.2175,,-0.026657986,-0.409088542,1,0,0,0,0,0,34,1,vorm,images/br_vorm.png,images/cb_vorm.png,0,,,,,,,,,,,,,,,,,,,,,,
,,,,,00108,2023-11-28_18h25.22.968,vbt_B1_day4,2022.2.4,MacIntel,60.0024001,,,,,,down,0,5.9652,,-0.026657986,-0.409088542,1,0,0,0,1,1,123,1,hiervan,images/br_hiervan.png,images/cb_hiervan.png,0,,,,,,,,,,,,,,,,,,,,,,
,,,,,00108,2023-11-28_18h25.22.968,vbt_B1_day4,2022.2.4,MacIntel,60.0024001,,,,,,down,0,1.816,,-0.026657986,-0.409088542,1,0,0,0,2,2,46,1,jagen,images/br_jagen.png,images/cb_jagen.png,0,,,,,,,,,,,,,,,,,,,,,,
,,,,,00108,2023-11-28_18h25.22.968,vbt_B1_day4,2022.2.4,MacIntel,60.0024001,,,,,,down,0,1.701,,-0.026657986,-0.409088542,1,0,0,0,3,3,55,1,praat,images/br_praat.png,images/cb_praat.png,0,,,,,,,,,,,,,,,,,,,,,,
,,,,,00108,2023-11-28_18h25.22.968,vbt_B1_day4,2022.2.4,MacIntel,60.0024001,,,,,,down,0,1.6073,,-0.026657986,-0.409088542,1,0,0,0,4,4,51,1,samen,images/br_samen.png,images/cb_samen.png,0,,,,,,,,,,,,,,,,,,,,,,
,,,,,00108,2023-11-28_18h25.22.968,vbt_B1_day4,2022.2.4,MacIntel,60.0024001,,,,,,down,0,0.8847,,-0.026657986,-0.409088542,1,0,0,0,5,5,96,1,slagen,images/br_slagen.png,images/cb_slagen.png,0,,,,,,,,,,,,,,,,,,,,,,
,,,,,00108,2023-11-28_18h25.22.968,vbt_B1_day4,2022.2.4,MacIntel,60.0024001,,,,,,down,0,1.4659,,0.267894965,-0.211393229,1,0,0,0,6,6,39,1,laag,images/br_laag.png,images/cb_laag.png,0,,,,,,,,,,,,,,,,,,,,,,
,,,,,00108,2023-11-28_18h25.22.968,vbt_B1_day4,2022.2.4,MacIntel,60.0024001,,,,,,down,0,12.5226,,0.267894965,-0.211393229,1,0,0,0,7,7,135,1,gedicht,images/br_gedicht.png,images/cb_gedicht.png,0,,,,,,,,,,,,,,,,,,,,,,
,,,,,00108,2023-11-28_18h25.22.968,vbt_B1_day4,2022.2.4,MacIntel,60.0024001,,,,,,down,0,0.1368,,0.267894965,-0.211393229,1,0,0,0,8,8,29,1,baas,images/br_baas.png,images/cb_baas.png,0,,,,,,,,,,,,,,,,,,,,,,
,,,,,00108,2023-11-28_18h25.22.968,vbt_B1_day4,2022.2.4,MacIntel,60.0024001,,,,,,down,0,0.2999,,0.267894965,-0.211393229,1,0,0,0,9,9,10,1,leek,images/br_leek.png,images/cb_leek.png,0,,,,,,,,,,,,,,,,,,,,,,
,,,,,00108,2023-11-28_18h25.22.968,vbt_B1_day4,2022.2.4,MacIntel,60.0024001,,,,,,down,0,10.517,,0.267894965,-0.211393229,1,0,0,0,10,10,180,1,openbaar,images/br_openbaar.png,images/cb_openbaar.png,0,,,,,,,,,,,,,,,,,,,,,,
,,,,,00108,2023-11-28_18h25.22.968,vbt_B1_day4,2022.2.4,MacIntel,60.0024001,,,,,,down,0,0.4322,,0.267894965,-0.211393229,1,0,0,0,11,11,171,1,aarzelen,images/br_aarzelen.png,images/cb_aarzelen.png,0,,,,,,,,,,,,,,,,,,,,,,
,,,,,00108,2023-11-28_18h25.22.968,vbt_B1_day4,2022.2.4,MacIntel,60.0024001,,,,,,down,0,0.3196,,0.267894965,-0.211393229,1,0,0,0,12,12,89,1,slapen,images/br_slapen.png,images/cb_slapen.png,0,,,,,,,,,,,,,,,,,,,,,,
,,,,,00108,2023-11-28_18h25.22.968,vbt_B1_day4,2022.2.4,MacIntel,60.0024001,,,,,,down,0,1.6504,,0.267894965,-0.211393229,1,0,0,0,13,13,114,1,vullen,images/br_vullen.png,images/cb_vullen.png,0,,,,,,,,,,,,,,,,,,,,,,
,,,,,00108,2023-11-28_18h25.22.968,vbt_B1_day4,2022.2.4,MacIntel,60.0024001,,,,,,down,0,1.0332,,0.267894965,-0.211393229,1,0,0,0,14,14,72,1,strak,images/br_strak.png,images/cb_strak.png,0,,,,,,,,,,,,,,,,,,,,,,
,,,,,00108,2023-11-28_18h25.22.968,vbt_B1_day4,2022.2.4,MacIntel,60.0024001,,,,,,down,0,1.9746,,0.267894965,-0.211393229,1,0,0,0,15,15,102,1,legaal,images/br_legaal.png,images/cb_legaal.png,0,,,,,,,,,,,,,,,,,,,,,,
,,,,,00108,2023-11-28_18h25.22.968,vbt_B1_day4,2022.2.4,MacIntel,60.0024001,,,,,,down,0,6.3682,,0.267894965,-0.211393229,1,0,0,0,16,16,119,1,liefje,images/br_liefje.png,images/cb_liefje.png,0,,,,,,,,,,,,,,,,,,,,,,
,,,,,00108,2023-11-28_18h25.22.968,vbt_B1_day4,2022.2.4,MacIntel,60.0024001,,,,,,down,0,1.5027,,0.267894965,-0.211393229,1,0,0,0,17,17,115,1,kleren,images/br_kleren.png,images/cb_kleren.png,0,,,,,,,,,,,,,,,,,,,,,,
,,,,,00108,2023-11-28_18h25.22.968,vbt_B1_day4,2022.2.4,MacIntel,60.0024001,,,,,,down,0,2.4378,,0.267894965,-0.211393229,1,0,0,0,18,18,129,1,verhaal,images/br_verhaal.png,images/cb_verhaal.png,0,,,,,,,,,,,,,,,,,,,,,,
,,,,,00108,2023-11-28_18h25.22.968,vbt_B1_day4,2022.2.4,MacIntel,60.0024001,,,,,,down,0,2.9979,,0.267894965,-0.211393229,1,0,0,0,19,19,90,1,geluid,images/br_geluid.png,images/cb_geluid.png,0,,,,,,,,,,,,,,,,,,,,,,
,,,,,00108,2023-11-28_18h25.22.968,vbt_B1_day4,2022.2.4,MacIntel,60.0024001,,,,,,down,0,0.2712,,0.267894965,-0.211393229,1,0,0,0,20,20,28,1,stal,images/br_stal.png,images/cb_stal.png,0,,,,,,,,,,,,,,,,,,,,,,
,,,,,00108,2023-11-28_18h25.22.968,vbt_B1_day4,2022.2.4,MacIntel,60.0024001,,,,,,down,0,4.2996,,0.267894965,-0.211393229,1,0,0,0,21,21,104,1,zweven,images/br_zweven.png,images/cb_zweven.png,1,zweven,,,,,,,,,,,,,,,,,,,,,
,,,,,00108,2023-11-28_18h25.22.968,vbt_B1_day4,2022.2.4,MacIntel,60.0024001,,,,,,down,0,13.7684,,-0.044835069,-0.299409722,1,0,0,0,22,22,145,1,invloed,images/br_invloed.png,images/cb_invloed.png,1,invloed,,,,,,,,,,,,,,,,,,,,,
,,,,,00108,2023-11-28_18h25.22.968,vbt_B1_day4,2022.2.4,MacIntel,60.0024001,,,,,,down,0,1.9836,,-0.044835069,-0.299409722,1,0,0,0,23,23,99,1,koffie,images/br_koffie.png,images/cb_koffie.png,0,,,,,,,,,,,,,,,,,,,,,,
,,,,,00108,2023-11-28_18h25.22.968,vbt_B1_day4,2022.2.4,MacIntel,60.0024001,,,,,,down,0,7.2495,,-0.044835069,-0.299409722,1,0,0,0,24,24,21,1,mist,images/br_mist.png,images/cb_mist.png,0,,,,,,,,,,,,,,,,,,,,,,
,,,,,00108,2023-11-28_18h25.22.968,vbt_B1_day4,2022.2.4,MacIntel,60.0024001,,,,,,down,0,0.091,,-0.044835069,-0.299409722,1,0,0,0,25,25,16,1,ziek,images/br_ziek.png,images/cb_ziek.png,0,,,,,,,,,,,,,,,,,,,,,,
,,,,,00108,2023-11-28_18h25.22.968,vbt_B1_day4,2022.2.4,MacIntel,60.0024001,,,,,,down,0,3.1434,,-0.044835069,-0.299409722,1,0,0,0,26,26,120,1,klimmen,images/br_klimmen.png,images/cb_klimmen.png,0,,,,,,,,,,,,,,,,,,,,,,
,,,,,00108,2023-11-28_18h25.22.968,vbt_B1_day4,2022.2.4,MacIntel,60.0024001,,,,,,down,0,5.8165,,-0.044835069,-0.299409722,1,0,0,0,27,27,197,1,spanning,images/br_spanning.png,images/cb_spanning.png,0,,,,,,,,,,,,,,,,,,,,,,
,,,,,00108,2023-11-28_18h25.22.968,vbt_B1_day4,2022.2.4,MacIntel,60.0024001,,,,,,down,0,1.9675,,-0.044835069,-0.299409722,1,0,0,0,28,28,178,1,huisdier,images/br_huisdier.png,images/cb_huisdier.png,0,,,,,,,,,,,,,,,,,,,,,,
,,,,,00108,2023-11-28_18h25.22.968,vbt_B1_day4,2022.2.4,MacIntel,60.0024001,,,,,,down,0,2.75,,-0.044835069,-0.299409722,1,0,0,0,29,29,112,1,lukken,images/br_lukken.png,images/cb_lukken.png,0,,,,,,,,,,,,,,,,,,,,,,
,,,,,00108,2023-11-28_18h25.22.968,vbt_B1_day4,2022.2.4,MacIntel,60.0024001,,,,,,down,0,2.2158,,-0.044835069,-0.299409722,1,0,0,0,30,30,103,1,joggen,images/br_joggen.png,images/cb_joggen.png,0,,,,,,,,,,,,,,,,,,,,,,
,,,,,00108,2023-11-28_18h25.22.968,vbt_B1_day4,2022.2.4,MacIntel,60.0024001,,,,,,down,0,0.1967,,-0.044835069,-0.299409722,1,0,0,0,31,31,9,1,hier,images/br_hier.png,images/cb_hier.png,0,,,,,,,,,,,,,,,,,,,,,,
,,,,,00108,2023-11-28_18h25.22.968,vbt_B1_day4,2022.2.4,MacIntel,60.0024001,,,,,,down,0,6.6304,,-0.044835069,-0.299409722,1,0,0,0,32,32,194,1,driemaal,images/br_driemaal.png,images/cb_driemaal.png,0,,,,,,,,,,,,,,,,,,,,,,
,,,,,00108,2023-11-28_18h25.22.968,vbt_B1_day4,2022.2.4,MacIntel,60.0024001,,,,,,down,0,3.6355,,-0.044835069,-0.299409722,1,0,0,0,33,33,162,1,uitdelen,images/br_uitdelen.png,images/cb_uitdelen.png,0,,,,,,,,,,,,,,,,,,,,,,
,,,,,00108,2023-11-28_18h25.22.968,vbt_B1_day4,2022.2.4,MacIntel,60.0024001,,,,,,down,0,0.3527,,-0.044835069,-0.299409722,1,0,0,0,34,34,0,1,slak,images/br_slak.png,images/cb_slak.png,0,,,,,,,,,,,,,,,,,,,,,,
,,,,,00108,2023-11-28_18h25.22.968,vbt_B1_day4,2022.2.4,MacIntel,60.0024001,,,,,,down,0,12.8039,,-0.044835069,-0.299409722,1,0,0,0,35,35,191,1,opheffen,images/br_opheffen.png,images/cb_opheffen.png,0,,,,,,,,,,,,,,,,,,,,,,
,,,,,00108,2023-11-28_18h25.22.968,vbt_B1_day4,2022.2.4,MacIntel,60.0024001,,,,,,down,0,0.7581,,-0.044835069,-0.299409722,1,0,0,0,36,36,75,1,snoep,images/br_snoep.png,images/cb_snoep.png,0,,,,,,,,,,,,,,,,,,,,,,
,,,,,00108,2023-11-28_18h25.22.968,vbt_B1_day4,2022.2.4,MacIntel,60.0024001,,,,,,down,0,30.1714,,-0.044835069,-0.299409722,1,0,0,0,37,37,175,1,heengaan,images/br_heengaan.png,images/cb_heengaan.png,0,,,,,,,,,,,,,,,,,,,,,,
,,,,,00108,2023-11-28_18h25.22.968,vbt_B1_day4,2022.2.4,MacIntel,60.0024001,,,,,,down,0,73.7709,,-0.044835069,-0.299409722,1,0,0,0,38,38,198,1,bedoelen,images/br_bedoelen.png,images/cb_bedoelen.png,0,,,,,,,,,,,,,,,,,,,,,,
,,,,,00108,2023-11-28_18h25.22.968,vbt_B1_day4,2022.2.4,MacIntel,60.0024001,,,,,,down,0,1.5998,,-0.044835069,-0.299409722,1,0,0,0,39,39,184,1,aandelen,images/br_aandelen.png,images/cb_aandelen.png,1,aandelen,,,,,,,,,,,,,,,,,,,,,
,,,,,00108,2023-11-28_18h25.22.968,vbt_B1_day4,2022.2.4,MacIntel,60.0024001,,,,,,down,0,7.9488,,-0.044835069,-0.299409722,1,0,0,0,40,40,67,1,zwart,images/br_zwart.png,images/cb_zwart.png,1,zwart,,,,,,,,,,,,,,,,,,,,,
,,,,,00108,2023-11-28_18h25.22.968,vbt_B1_day4,2022.2.4,MacIntel,60.0024001,,,,,,down,0,3.5665,,-0.044835069,-0.299409722,1,0,0,0,41,41,151,1,aanzoek,images/br_aanzoek.png,images/cb_aanzoek.png,0,,,,,,,,,,,,,,,,,,,,,,
,,,,,00108,2023-11-28_18h25.22.968,vbt_B1_day4,2022.2.4,MacIntel,60.0024001,,,,,,down,0,0.5859,,-0.044835069,-0.299409722,1,0,0,0,42,42,50,1,stoom,images/br_stoom.png,images/cb_stoom.png,0,,,,,,,,,,,,,,,,,,,,,,
,,,,,00108,2023-11-28_18h25.22.968,vbt_B1_day4,2022.2.4,MacIntel,60.0024001,,,,,,down,0,1.7316,,-0.044835069,-0.299409722,1,0,0,0,43,43,70,1,ijdel,images/br_ijdel.png,images/cb_ijdel.png,0,,,,,,,,,,,,,,,,,,,,,,
,,,,,00108,2023-11-28_18h25.22.968,vbt_B1_day4,2022.2.4,MacIntel,60.0024001,,,,,,down,0,3.0558,,-0.044583333,-0.29953559,1,0,0,0,44,44,108,1,excuus,images/br_excuus.png,images/cb_excuus.png,0,,,,,,,,,,,,,,,,,,,,,,
,,,,,00108,2023-11-28_18h25.22.968,vbt_B1_day4,2022.2.4,MacIntel,60.0024001,,,,,,down,0,1.7504,,-0.043472222,-0.300091146,1,0,0,0,45,45,17,1,taal,images/br_taal.png,images/cb_taal.png,0,,,,,,,,,,,,,,,,,,,,,,
,,,,,00108,2023-11-28_18h25.22.968,vbt_B1_day4,2022.2.4,MacIntel,60.0024001,,,,,,down,0,4.118,,-0.043472222,-0.300091146,1,0,0,0,46,46,56,1,traag,images/br_traag.png,images/cb_traag.png,0,,,,,,,,,,,,,,,,,,,,,,
,,,,,00108,2023-11-28_18h25.22.968,vbt_B1_day4,2022.2.4,MacIntel,60.0024001,,,,,,down,0,0.889,,-0.043472222,-0.300091146,1,0,0,0,47,47,69,1,waken,images/br_waken.png,images/cb_waken.png,0,,,,,,,,,,,,,,,,,,,,,,
,,,,,00108,2023-11-28_18h25.22.968,vbt_B1_day4,2022.2.4,MacIntel,60.0024001,,,,,,down,0,1.6479,,-0.043472222,-0.300091146,1,0,0,0,48,48,86,1,woning,images/br_woning.png,images/cb_woning.png,0,,,,,,,,,,,,,,,,,,,,,,
,,,,,00108,2023-11-28_18h25.22.968,vbt_B1_day4,2022.2.4,MacIntel,60.0024001,,,,,,down,0,4.7702,,-0.043472222,-0.300091146,1,0,0,0,49,49,130,1,keihard,images/br_keihard.png,images/cb_keihard.png,0,,,,,,,,,,,,,,,,,,,,,,
,,,,,00108,2023-11-28_18h25.22.968,vbt_B1_day4,2022.2.4,MacIntel,60.0024001,,,,,,down,0,2.6753,,-0.043472222,-0.300091146,1,0,0,0,50,50,24,1,jurk,images/br_jurk.png,images/cb_jurk.png,1,jurk,,,,,,,,,,,,,,,,,,,,,
,,,,,00108,2023-11-28_18h25.22.968,vbt_B1_day4,2022.2.4,MacIntel,60.0024001,,,,,,down,0,4.1312,,-0.043472222,-0.300091146,1,0,0,0,51,51,4,1,moes,images/br_moes.png,images/cb_moes.png,0,,,,,,,,,,,,,,,,,,,,,,
,,,,,00108,2023-11-28_18h25.22.968,vbt_B1_day4,2022.2.4,MacIntel,60.0024001,,,,,,down,0,4.7913,,-0.043472222,-0.300091146,1,0,0,0,52,52,124,1,bloeien,images/br_bloeien.png,images/cb_bloeien.png,0,,,,,,,,,,,,,,,,,,,,,,
,,,,,00108,2023-11-28_18h25.22.968,vbt_B1_day4,2022.2.4,MacIntel,60.0024001,,,,,,down,0,1.7837,,-0.043472222,-0.300091146,1,0,0,0,53,53,177,1,maaltijd,images/br_maaltijd.png,images/cb_maaltijd.png,0,,,,,,,,,,,,,,,,,,,,,,
,,,,,00108,2023-11-28_18h25.22.968,vbt_B1_day4,2022.2.4,MacIntel,60.0024001,,,,,,down,0,2.3092,,-0.043472222,-0.300091146,1,0,0,0,54,54,65,1,parel,images/br_parel.png,images/cb_parel.png,1,parel,,,,,,,,,,,,,,,,,,,,,
,,,,,00108,2023-11-28_18h25.22.968,vbt_B1_day4,2022.2.4,MacIntel,60.0024001,,,,,,down,0,5.254,,-0.043472222,-0.300091146,1,0,0,0,55,55,195,1,middelen,images/br_middelen.png,images/cb_middelen.png,0,,,,,,,,,,,,,,,,,,,,,,
,,,,,00108,2023-11-28_18h25.22.968,vbt_B1_day4,2022.2.4,MacIntel,60.0024001,,,,,,down,0,1.6344,,-0.043472222,-0.300091146,1,0,0,0,56,56,122,1,waarvan,images/br_waarvan.png,images/cb_waarvan.png,0,,,,,,,,,,,,,,,,,,,,,,
,,,,,00108,2023-11-28_18h25.22.968,vbt_B1_day4,2022.2.4,MacIntel,60.0024001,,,,,,down,0,8.5978,,-0.043472222,-0.300091146,1,0,0,0,57,57,126,1,kasteel,images/br_kasteel.png,images/cb_kasteel.png,0,,,,,,,,,,,,,,,,,,,,,,
,,,,,00108,2023-11-28_18h25.22.968,vbt_B1_day4,2022.2.4,MacIntel,60.0024001,,,,,,down,0,9.634,,0.043072917,-0.295646701,1,0,0,0,58,58,146,1,opkomen,images/br_opkomen.png,images/cb_opkomen.png,1,opkomen,,,,,,,,,,,,,,,,,,,,,
,,,,,00108,2023-11-28_18h25.22.968,vbt_B1_day4,2022.2.4,MacIntel,60.0024001,,,,,,down,0,0.1062,,0.044392361,-0.307400174,1,0,0,0,59,59,150,1,gegeven,images/br_gegeven.png,images/cb_gegeven.png,0,,,,,,,,,,,,,,,,,,,,,,
,,,,,00108,2023-11-28_18h25.22.968,vbt_B1_day4,2022.2.4,MacIntel,60.0024001,,,,,,down,0,4.8168,,0.522400174,0.182217882,1,0,0,0,60,60,156,1,rechten,images/br_rechten.png,images/cb_rechten.png,0,,,,,,,,,,,,,,,,,,,,,,
,,,,,00108,2023-11-28_18h25.22.968,vbt_B1_day4,2022.2.4,MacIntel,60.0024001,,,,,,down,0,2.5422,,0.522400174,0.182217882,1,0,0,0,61,61,186,1,voorraad,images/br_voorraad.png,images/cb_voorraad.png,1,voorraad,,,,,,,,,,,,,,,,,,,,,
,,,,,00108,2023-11-28_18h25.22.968,vbt_B1_day4,2022.2.4,MacIntel,60.0024001,,,,,,down,0,5.2431,,0.522400174,0.182217882,1,0,0,0,62,62,182,1,bijkomen,images/br_bijkomen.png,images/cb_bijkomen.png,0,,,,,,,,,,,,,,,,,,,,,,
,,,,,00108,2023-11-28_18h25.22.968,vbt_B1_day4,2022.2.4,MacIntel,60.0024001,,,,,,down,0,41.0197,,0.522400174,0.182217882,1,0,0,0,63,63,125,1,aanzien,images/br_aanzien.png,images/cb_aanzien.png,0,,,,,,,,,,,,,,,,,,,,,,
,,,,,00108,2023-11-28_18h25.22.968,vbt_B1_day4,2022.2.4,MacIntel,60.0024001,,,,,,down,0,34.2406,,0.522400174,0.182217882,1,0,0,0,64,64,14,1,rijp,images/br_rijp.png,images/cb_rijp.png,0,,,,,,,,,,,,,,,,,,,,,,
,,,,,00108,2023-11-28_18h25.22.968,vbt_B1_day4,2022.2.4,MacIntel,60.0024001,,,,,,down,0,1.5118,,0.518059896,0.18,1,0,0,0,65,65,110,1,zuster,images/br_zuster.png,images/cb_zuster.png,0,,,,,,,,,,,,,,,,,,,,,,
,,,,,00108,2023-11-28_18h25.22.968,vbt_B1_day4,2022.2.4,MacIntel,60.0024001,,,,,,down,0,3.5007,,0.518563368,0.18,1,0,0,0,66,66,116,1,besmet,images/br_besmet.png,images/cb_besmet.png,0,,,,,,,,,,,,,,,,,,,,,,
,,,,,00108,2023-11-28_18h25.22.968,vbt_B1_day4,2022.2.4,MacIntel,60.0024001,,,,,,down,0,0.6027,,0.518563368,0.18,1,0,0,0,67,67,97,1,loyaal,images/br_loyaal.png,images/cb_loyaal.png,0,,,,,,,,,,,,,,,,,,,,,,
,,,,,00108,2023-11-28_18h25.22.968,vbt_B1_day4,2022.2.4,MacIntel,60.0024001,,,,,,down,0,1.651,,0.518563368,0.18,1,0,0,0,68,68,66,1,lever,images/br_lever.png,images/cb_lever.png,1,lever,,,,,,,,,,,,,,,,,,,,,
,,,,,00108,2023-11-28_18h25.22.968,vbt_B1_day4,2022.2.4,MacIntel,60.0024001,,,,,,down,0,0.7349,,0.518563368,0.18,1,0,0,0,69,69,73,1,volop,images/br_volop.png,images/cb_volop.png,0,,,,,,,,,,,,,,,,,,,,,,
,,,,,00108,2023-11-28_18h25.22.968,vbt_B1_day4,2022.2.4,MacIntel,60.0024001,,,,,,down,0,5.5848,,0.518563368,0.18,1,0,0,0,70,70,93,1,waarop,images/br_waarop.png,images/cb_waarop.png,0,,,,,,,,,,,,,,,,,,,,,,
,,,,,00108,2023-11-28_18h25.22.968,vbt_B1_day4,2022.2.4,MacIntel,60.0024001,,,,,,down,0,2.0935,,0.518563368,0.18,1,0,0,0,71,71,87,1,toeval,images/br_toeval.png,images/cb_toeval.png,0,,,,,,,,,,,,,,,,,,,,,,
,,,,,00108,2023-11-28_18h25.22.968,vbt_B1_day4,2022.2.4,MacIntel,60.0024001,,,,,,down,0,88.7409,,0.518563368,0.18,1,0,0,0,72,72,153,1,vervoer,images/br_vervoer.png,images/cb_vervoer.png,0,,,,,,,,,,,,,,,,,,,,,,
,,,,,00108,2023-11-28_18h25.22.968,vbt_B1_day4,2022.2.4,MacIntel,60.0024001,,,,,,down,0,1.4871,,0.518563368,0.18,1,0,0,0,73,73,95,1,vreten,images/br_vreten.png,images/cb_vreten.png,0,,,,,,,,,,,,,,,,,,,,,,
,,,,,00108,2023-11-28_18h25.22.968,vbt_B1_day4,2022.2.4,MacIntel,60.0024001,,,,,,down,0,2.1354,,0.518563368,0.18,1,0,0,0,74,74,173,1,apparaat,images/br_apparaat.png,images/cb_apparaat.png,0,,,,,,,,,,,,,,,,,,,,,,
,,,,,00108,2023-11-28_18h25.22.968,vbt_B1_day4,2022.2.4,MacIntel,60.0024001,,,,,,down,0,2.016,,0.518563368,0.18,1,0,0,0,75,75,47,1,kabel,images/br_kabel.png,images/cb_kabel.png,0,,,,,,,,,,,,,,,,,,,,,,
,,,,,00108,2023-11-28_18h25.22.968,vbt_B1_day4,2022.2.4,MacIntel,60.0024001,,,,,,down,0,0.7077,,0.518563368,0.18,1,0,0,0,76,76,7,1,geld,images/br_geld.png,images/cb_geld.png,0,,,,,,,,,,,,,,,,,,,,,,
,,,,,00108,2023-11-28_18h25.22.968,vbt_B1_day4,2022.2.4,MacIntel,60.0024001,,,,,,down,0,0.7736,,0.518563368,0.18,1,0,0,0,77,77,18,1,blik,images/br_blik.png,images/cb_blik.png,0,,,,,,,,,,,,,,,,,,,,,,
,,,,,00108,2023-11-28_18h25.22.968,vbt_B1_day4,2022.2.4,MacIntel,60.0024001,,,,,,down,0,1.2748,,0.518563368,0.18,1,0,0,0,78,78,98,1,kreeft,images/br_kreeft.png,images/cb_kreeft.png,0,,,,,,,,,,,,,,,,,,,,,,
,,,,,00108,2023-11-28_18h25.22.968,vbt_B1_day4,2022.2.4,MacIntel,60.0024001,,,,,,down,0,0.3844,,0.518563368,0.18,1,0,0,0,79,79,52,1,wagon,images/br_wagon.png,images/cb_wagon.png,0,,,,,,,,,,,,,,,,,,,,,,
,,,,,00108,2023-11-28_18h25.22.968,vbt_B1_day4,2022.2.4,MacIntel,60.0024001,,,,,,down,0,14.7872,,0.518563368,0.18,1,0,0,0,80,80,117,1,kennis,images/br_kennis.png,images/cb_kennis.png,0,,,,,,,,,,,,,,,,,,,,,,
,,,,,00108,2023-11-28_18h25.22.968,vbt_B1_day4,2022.2.4,MacIntel,60.0024001,,,,,,down,0,3.1998,,0.518563368,0.18,1,0,0,0,81,81,144,1,eetlust,images/br_eetlust.png,images/cb_eetlust.png,1,eetlust,,,,,,,,,,,,,,,,,,,,,
,,,,,00108,2023-11-28_18h25.22.968,vbt_B1_day4,2022.2.4,MacIntel,60.0024001,,,,,,down,0,3.8703,,0.518563368,0.18,1,0,0,0,82,82,172,1,weigeren,images/br_weigeren.png,images/cb_weigeren.png,0,,,,,,,,,,,,,,,,,,,,,,
,,,,,00108,2023-11-28_18h25.22.968,vbt_B1_day4,2022.2.4,MacIntel,60.0024001,,,,,,down,0,3.3734,,0.518563368,0.18,1,0,0,0,83,83,183,1,getuigen,images/br_getuigen.png,images/cb_getuigen.png,0,,,,,,,,,,,,,,,,,,,,,,
,,,,,00108,2023-11-28_18h25.22.968,vbt_B1_day4,2022.2.4,MacIntel,60.0024001,,,,,,down,0,1.1011,,0.462361111,0.075842014,1,0,0,0,84,84,5,1,blad,images/br_blad.png,images/cb_blad.png,0,,,,,,,,,,,,,,,,,,,,,,
,,,,,00108,2023-11-28_18h25.22.968,vbt_B1_day4,2022.2.4,MacIntel,60.0024001,,,,,,down,0,2.1512,,0.462361111,0.075842014,1,0,0,0,85,85,105,1,wijlen,images/br_wijlen.png,images/cb_wijlen.png,1,wijlen,,,,,,,,,,,,,,,,,,,,,
,,,,,00108,2023-11-28_18h25.22.968,vbt_B1_day4,2022.2.4,MacIntel,60.0024001,,,,,,down,0,2.625,,0.458971354,0.070377604,1,0,0,0,86,86,48,1,steel,images/br_steel.png,images/cb_steel.png,0,,,,,,,,,,,,,,,,,,,,,,
,,,,,00108,2023-11-28_18h25.22.968,vbt_B1_day4,2022.2.4,MacIntel,60.0024001,,,,,,down,0,10.4877,,0.525247396,0.088893229,1,0,0,0,87,87,136,1,waarbij,images/br_waarbij.png,images/cb_waarbij.png,0,,,,,,,,,,,,,,,,,,,,,,
,,,,,00108,2023-11-28_18h25.22.968,vbt_B1_day4,2022.2.4,MacIntel,60.0024001,,,,,,down,0,0.0005,,0.525247396,0.088893229,1,0,0,0,88,88,2,1,jaar,images/br_jaar.png,images/cb_jaar.png,0,,,,,,,,,,,,,,,,,,,,,,
,,,,,00108,2023-11-28_18h25.22.968,vbt_B1_day4,2022.2.4,MacIntel,60.0024001,,,,,,down,0,105.5376,,0.525247396,0.088893229,1,0,0,0,89,89,181,1,toegeven,images/br_toegeven.png,images/cb_toegeven.png,0,,,,,,,,,,,,,,,,,,,,,,
,,,,,00108,2023-11-28_18h25.22.968,vbt_B1_day4,2022.2.4,MacIntel,60.0024001,,,,,,down,0,8.6016,,0.525247396,0.088893229,1,0,0,0,90,90,167,1,eenhoorn,images/br_eenhoorn.png,images/cb_eenhoorn.png,0,,,,,,,,,,,,,,,,,,,,,,
,,,,,00108,2023-11-28_18h25.22.968,vbt_B1_day4,2022.2.4,MacIntel,60.0024001,,,,,,down,0,1.421,,0.525247396,0.088893229,1,0,0,0,91,91,41,1,maken,images/br_maken.png,images/cb_maken.png,0,,,,,,,,,,,,,,,,,,,,,,
,,,,,00108,2023-11-28_18h25.22.968,vbt_B1_day4,2022.2.4,MacIntel,60.0024001,,,,,,down,0,93.6909,,0.525247396,0.088893229,1,0,0,0,92,92,80,1,kanjer,images/br_kanjer.png,images/cb_kanjer.png,0,,,,,,,,,,,,,,,,,,,,,,
,,,,,00108,2023-11-28_18h25.22.968,vbt_B1_day4,2022.2.4,MacIntel,60.0024001,,,,,,down,0,23.953,,0.525247396,0.088893229,1,0,0,0,93,93,128,1,prikken,images/br_prikken.png,images/cb_prikken.png,0,,,,,,,,,,,,,,,,,,,,,,
,,,,,00108,2023-11-28_18h25.22.968,vbt_B1_day4,2022.2.4,MacIntel,60.0024001,,,,,,down,0,1.2522,,0.132204861,-0.049166667,1,0,0,0,94,94,8,1,knie,images/br_knie.png,images/cb_knie.png,0,,,,,,,,,,,,,,,,,,,,,,
,,,,,00108,2023-11-28_18h25.22.968,vbt_B1_day4,2022.2.4,MacIntel,60.0024001,,,,,,down,0,3.3677,,-0.086176215,-0.008645833,1,0,0,0,95,95,71,1,bever,images/br_bever.png,images/cb_bever.png,0,,,,,,,,,,,,,,,,,,,,,,
,,,,,00108,2023-11-28_18h25.22.968,vbt_B1_day4,2022.2.4,MacIntel,60.0024001,,,,,,down,0,1.7166,,0.19453559,-0.027699653,1,0,0,0,96,96,169,1,oprotten,images/br_oprotten.png,images/cb_oprotten.png,0,,,,,,,,,,,,,,,,,,,,,,
,,,,,00108,2023-11-28_18h25.22.968,vbt_B1_day4,2022.2.4,MacIntel,60.0024001,,,,,,down,0,1.1879,,-0.132751736,-0.029704861,1,0,0,0,97,97,42,1,bleek,images/br_bleek.png,images/cb_bleek.png,0,,,,,,,,,,,,,,,,,,,,,,
,,,,,00108,2023-11-28_18h25.22.968,vbt_B1_day4,2022.2.4,MacIntel,60.0024001,,,,,,down,0,1.7089,,-0.132751736,-0.029704861,1,0,0,0,98,98,187,1,opkijken,images/br_opkijken.png,images/cb_opkijken.png,1,opkijken,,,,,,,,,,,,,,,,,,,,,
,,,,,00108,2023-11-28_18h25.22.968,vbt_B1_day4,2022.2.4,MacIntel,60.0024001,,,,,,down,0,4.8078,,-0.182196181,-0.057018229,1,0,0,0,99,99,88,1,boeien,images/br_boeien.png,images/cb_boeien.png,0,,,,,,,,,,,,,,,,,,,,,,
,,,,,00108,2023-11-28_18h25.22.968,vbt_B1_day4,2022.2.4,MacIntel,60.0024001,,,,,,down,0,1.548,,-0.182751736,-0.057018229,1,0,0,0,100,100,74,1,graaf,images/br_graaf.png,images/cb_graaf.png,0,,,,,,,,,,,,,,,,,,,,,,
,,,,,00108,2023-11-28_18h25.22.968,vbt_B1_day4,2022.2.4,MacIntel,60.0024001,,,,,,down,0,1.2687,,-0.182751736,-0.057018229,1,0,0,0,101,101,94,1,oceaan,images/br_oceaan.png,images/cb_oceaan.png,0,,,,,,,,,,,,,,,,,,,,,,
,,,,,00108,2023-11-28_18h25.22.968,vbt_B1_day4,2022.2.4,MacIntel,60.0024001,,,,,,down,0,7.7511,,-0.182751736,-0.057018229,1,0,0,0,102,102,174,1,stemming,images/br_stemming.png,images/cb_stemming.png,0,,,,,,,,,,,,,,,,,,,,,,
,,,,,00108,2023-11-28_18h25.22.968,vbt_B1_day4,2022.2.4,MacIntel,60.0024001,,,,,,down,0,90.5042,,-0.204930556,-0.014162326,1,0,0,0,103,103,137,1,trekker,images/br_trekker.png,images/cb_trekker.png,0,,,,,,,,,,,,,,,,,,,,,,
,,,,,00108,2023-11-28_18h25.22.968,vbt_B1_day4,2022.2.4,MacIntel,60.0024001,,,,,,down,0,11.2558,,-0.158697917,-0.002152778,1,0,0,0,104,104,82,1,muziek,images/br_muziek.png,images/cb_muziek.png,0,,,,,,,,,,,,,,,,,,,,,,
,,,,,00108,2023-11-28_18h25.22.968,vbt_B1_day4,2022.2.4,MacIntel,60.0024001,,,,,,down,0,2.8428,,-0.004292535,-0.025351563,1,0,0,0,105,105,179,1,woestijn,images/br_woestijn.png,images/cb_woestijn.png,0,,,,,,,,,,,,,,,,,,,,,,
,,,,,00108,2023-11-28_18h25.22.968,vbt_B1_day4,2022.2.4,MacIntel,60.0024001,,,,,,down,0,24.0705,,0.006323785,-0.044166667,1,0,0,0,106,106,63,1,flirt,images/br_flirt.png,images/cb_flirt.png,0,,,,,,,,,,,,,,,,,,,,,,
,,,,,00108,2023-11-28_18h25.22.968,vbt_B1_day4,2022.2.4,MacIntel,60.0024001,,,,,,down,0,5.1999,,0.006323785,-0.044166667,1,0,0,0,107,107,147,1,komisch,images/br_komisch.png,images/cb_komisch.png,1,komisch,,,,,,,,,,,,,,,,,,,,,
,,,,,00108,2023-11-28_18h25.22.968,vbt_B1_day4,2022.2.4,MacIntel,60.0024001,,,,,,down,0,4.0021,,0.006323785,-0.044166667,1,0,0,0,108,108,133,1,seizoen,images/br_seizoen.png,images/cb_seizoen.png,0,,,,,,,,,,,,,,,,,,,,,,
,,,,,00108,2023-11-28_18h25.22.968,vbt_B1_day4,2022.2.4,MacIntel,60.0024001,,,,,,down,0,18.936,,0.006323785,-0.044166667,1,0,0,0,109,109,164,1,anarchie,images/br_anarchie.png,images/cb_anarchie.png,0,,,,,,,,,,,,,,,,,,,,,,
,,,,,00108,2023-11-28_18h25.22.968,vbt_B1_day4,2022.2.4,MacIntel,60.0024001,,,,,,down,0,2.7481,,0.006323785,-0.044166667,1,0,0,0,110,110,158,1,innemen,images/br_innemen.png,images/cb_innemen.png,0,,,,,,,,,,,,,,,,,,,,,,
,,,,,00108,2023-11-28_18h25.22.968,vbt_B1_day4,2022.2.4,MacIntel,60.0024001,,,,,,down,0,1.8369,,0.006323785,-0.044166667,1,0,0,0,111,111,142,1,snuiven,images/br_snuiven.png,images/cb_snuiven.png,0,,,,,,,,,,,,,,,,,,,,,,
,,,,,00108,2023-11-28_18h25.22.968,vbt_B1_day4,2022.2.4,MacIntel,60.0024001,,,,,,down,0,12.8008,,0.062473958,-0.013467882,1,0,0,0,112,112,127,1,doodmoe,images/br_doodmoe.png,images/cb_doodmoe.png,0,,,,,,,,,,,,,,,,,,,,,,
,,,,,00108,2023-11-28_18h25.22.968,vbt_B1_day4,2022.2.4,MacIntel,60.0024001,,,,,,down,0,2.5022,,0.077825521,-0.176106771,1,0,0,0,113,113,168,1,bisschop,images/br_bisschop.png,images/cb_bisschop.png,0,,,,,,,,,,,,,,,,,,,,,,
,,,,,00108,2023-11-28_18h25.22.968,vbt_B1_day4,2022.2.4,MacIntel,60.0024001,,,,,,down,0,2.0654,,0.077825521,-0.176106771,1,0,0,0,114,114,91,1,gezond,images/br_gezond.png,images/cb_gezond.png,0,,,,,,,,,,,,,,,,,,,,,,
,,,,,00108,2023-11-28_18h25.22.968,vbt_B1_day4,2022.2.4,MacIntel,60.0024001,,,,,,down,0,3.4178,,0.081315104,-0.033676215,1,0,0,0,115,115,121,1,twijfel,images/br_twijfel.png,images/cb_twijfel.png,0,,,,,,,,,,,,,,,,,,,,,,
,,,,,00108,2023-11-28_18h25.22.968,vbt_B1_day4,2022.2.4,MacIntel,60.0024001,,,,,,down,0,1.9145,,0.078398438,-0.033893229,1,0,0,0,116,116,59,1,kring,images/br_kring.png,images/cb_kring.png,0,,,,,,,,,,,,,,,,,,,,,,
,,,,,00108,2023-11-28_18h25.22.968,vbt_B1_day4,2022.2.4,MacIntel,60.0024001,,,,,,down,0,10.6327,,-0.067582465,0.003806424,1,0,0,0,117,117,40,1,schep,images/br_schep.png,images/cb_schep.png,0,,,,,,,,,,,,,,,,,,,,,,
,,,,,00108,2023-11-28_18h25.22.968,vbt_B1_day4,2022.2.4,MacIntel,60.0024001,,,,,,down,0,3.2686,,0.014908854,-0.027578125,1,0,0,0,118,118,118,1,vinger,images/br_vinger.png,images/cb_vinger.png,0,,,,,,,,,,,,,,,,,,,,,,
,,,,,00108,2023-11-28_18h25.22.968,vbt_B1_day4,2022.2.4,MacIntel,60.0024001,,,,,,down,0,3.0057,,0.014908854,-0.027578125,1,0,0,0,119,119,154,1,aflopen,images/br_aflopen.png,images/cb_aflopen.png,0,,,,,,,,,,,,,,,,,,,,,,
,,,,,00108,2023-11-28_18h25.22.968,vbt_B1_day4,2022.2.4,MacIntel,60.0024001,,,,,,down,0,1.6876,,0.025876736,-0.042052951,1,0,0,0,120,120,155,1,gerucht,images/br_gerucht.png,images/cb_gerucht.png,0,,,,,,,,,,,,,,,,,,,,,,
,,,,,00108,2023-11-28_18h25.22.968,vbt_B1_day4,2022.2.4,MacIntel,60.0024001,,,,,,down,0,0.5048,,0.000581597,-0.055928819,1,0,0,0,121,121,49,1,laken,images/br_laken.png,images/cb_laken.png,0,,,,,,,,,,,,,,,,,,,,,,
,,,,,00108,2023-11-28_18h25.22.968,vbt_B1_day4,2022.2.4,MacIntel,60.0024001,,,,,,down,0,0.7264,,0.000581597,-0.055928819,1,0,0,0,122,122,26,1,leuk,images/br_leuk.png,images/cb_leuk.png,1,leuk,,,,,,,,,,,,,,,,,,,,,
,,,,,00108,2023-11-28_18h25.22.968,vbt_B1_day4,2022.2.4,MacIntel,60.0024001,,,,,,down,0,0.5997,,-0.002157118,-0.055928819,1,0,0,0,123,123,54,1,gebit,images/br_gebit.png,images/cb_gebit.png,0,,,,,,,,,,,,,,,,,,,,,,
,,,,,00108,2023-11-28_18h25.22.968,vbt_B1_day4,2022.2.4,MacIntel,60.0024001,,,,,,down,0,6.5409,,-0.002157118,-0.055928819,1,0,0,0,124,124,111,1,ticket,images/br_ticket.png,images/cb_ticket.png,0,,,,,,,,,,,,,,,,,,,,,,
,,,,,00108,2023-11-28_18h25.22.968,vbt_B1_day4,2022.2.4,MacIntel,60.0024001,,,,,,down,0,0.2845,,-0.002157118,-0.055928819,1,0,0,0,125,125,101,1,staren,images/br_staren.png,images/cb_staren.png,0,,,,,,,,,,,,,,,,,,,,,,
,,,,,00108,2023-11-28_18h25.22.968,vbt_B1_day4,2022.2.4,MacIntel,60.0024001,,,,,,down,0,1.956,,-0.096614583,0.004813368,1,0,0,0,126,126,81,1,dubbel,images/br_dubbel.png,images/cb_dubbel.png,0,,,,,,,,,,,,,,,,,,,,,,
,,,,,00108,2023-11-28_18h25.22.968,vbt_B1_day4,2022.2.4,MacIntel,60.0024001,,,,,,down,0,0.7996,,1.30208E-05,-0.128420139,1,0,0,0,127,127,141,1,knielen,images/br_knielen.png,images/cb_knielen.png,0,,,,,,,,,,,,,,,,,,,,,,
,,,,,00108,2023-11-28_18h25.22.968,vbt_B1_day4,2022.2.4,MacIntel,60.0024001,,,,,,down,0,0.1992,,1.30208E-05,-0.128420139,1,0,0,0,128,128,11,1,mode,images/br_mode.png,images/cb_mode.png,0,,,,,,,,,,,,,,,,,,,,,,
,,,,,00108,2023-11-28_18h25.22.968,vbt_B1_day4,2022.2.4,MacIntel,60.0024001,,,,,,down,0,1.3864,,1.30208E-05,-0.128420139,1,0,0,0,129,129,32,1,palm,images/br_palm.png,images/cb_palm.png,0,,,,,,,,,,,,,,,,,,,,,,
,,,,,00108,2023-11-28_18h25.22.968,vbt_B1_day4,2022.2.4,MacIntel,60.0024001,,,,,,down,0,3.4071,,1.30208E-05,-0.128420139,1,0,0,0,130,130,107,1,maling,images/br_maling.png,images/cb_maling.png,1,maling,,,,,,,,,,,,,,,,,,,,,
,,,,,00108,2023-11-28_18h25.22.968,vbt_B1_day4,2022.2.4,MacIntel,60.0024001,,,,,,down,0,4.6357,,0.162543403,-0.037890625,1,0,0,0,131,131,143,1,hechten,images/br_hechten.png,images/cb_hechten.png,0,,,,,,,,,,,,,,,,,,,,,,
,,,,,00108,2023-11-28_18h25.22.968,vbt_B1_day4,2022.2.4,MacIntel,60.0024001,,,,,,down,0,10.0915,,0.018572049,-0.026046007,1,0,0,0,132,132,160,1,daarheen,images/br_daarheen.png,images/cb_daarheen.png,0,,,,,,,,,,,,,,,,,,,,,,
,,,,,00108,2023-11-28_18h25.22.968,vbt_B1_day4,2022.2.4,MacIntel,60.0024001,,,,,,down,0,1.1116,,0.018572049,-0.026046007,1,0,0,0,133,133,134,1,geliefd,images/br_geliefd.png,images/cb_geliefd.png,0,,,,,,,,,,,,,,,,,,,,,,
,,,,,00108,2023-11-28_18h25.22.968,vbt_B1_day4,2022.2.4,MacIntel,60.0024001,,,,,,down,0,0.4509,,0.018572049,-0.026046007,1,0,0,0,134,134,35,1,lust,images/br_lust.png,images/cb_lust.png,0,,,,,,,,,,,,,,,,,,,,,,
,,,,,00108,2023-11-28_18h25.22.968,vbt_B1_day4,2022.2.4,MacIntel,60.0024001,,,,,,down,0,11.6883,,0.034874132,-0.022148437,1,0,0,0,135,135,157,1,uitlaat,images/br_uitlaat.png,images/cb_uitlaat.png,0,,,,,,,,,,,,,,,,,,,,,,
,,,,,00108,2023-11-28_18h25.22.968,vbt_B1_day4,2022.2.4,MacIntel,60.0024001,,,,,,down,0,1.4732,,-0.071701389,-0.017374132,1,0,0,0,136,136,92,1,geheim,images/br_geheim.png,images/cb_geheim.png,0,,,,,,,,,,,,,,,,,,,,,,
,,,,,00108,2023-11-28_18h25.22.968,vbt_B1_day4,2022.2.4,MacIntel,60.0024001,,,,,,down,0,8.3194,,-0.240559896,-0.019934896,1,0,0,0,137,137,138,1,akkoord,images/br_akkoord.png,images/cb_akkoord.png,0,,,,,,,,,,,,,,,,,,,,,,
,,,,,00108,2023-11-28_18h25.22.968,vbt_B1_day4,2022.2.4,MacIntel,60.0024001,,,,,,down,0,3.1369,,-0.038585069,-0.002795139,1,0,0,0,138,138,159,1,sufferd,images/br_sufferd.png,images/cb_sufferd.png,0,,,,,,,,,,,,,,,,,,,,,,
,,,,,00108,2023-11-28_18h25.22.968,vbt_B1_day4,2022.2.4,MacIntel,60.0024001,,,,,,down,0,0.6835,,0.065811632,-0.006506076,1,0,0,0,139,139,68,1,schat,images/br_schat.png,images/cb_schat.png,0,,,,,,,,,,,,,,,,,,,,,,
,,,,,00108,2023-11-28_18h25.22.968,vbt_B1_day4,2022.2.4,MacIntel,60.0024001,,,,,,down,0,3.6569,,-0.056653646,-0.007977431,1,0,0,0,140,140,30,1,uien,images/br_uien.png,images/cb_uien.png,0,,,,,,,,,,,,,,,,,,,,,,
,,,,,00108,2023-11-28_18h25.22.968,vbt_B1_day4,2022.2.4,MacIntel,60.0024001,,,,,,down,0,1.2394,,-0.030069444,-0.12640625,1,0,0,0,141,141,31,1,poes,images/br_poes.png,images/cb_poes.png,0,,,,,,,,,,,,,,,,,,,,,,
,,,,,00108,2023-11-28_18h25.22.968,vbt_B1_day4,2022.2.4,MacIntel,60.0024001,,,,,,down,0,3.7012,,-0.030069444,-0.12640625,1,0,0,0,142,142,78,1,leren,images/br_leren.png,images/cb_leren.png,0,,,,,,,,,,,,,,,,,,,,,,
,,,,,00108,2023-11-28_18h25.22.968,vbt_B1_day4,2022.2.4,MacIntel,60.0024001,,,,,,down,0,3.8173,,0.104887153,-0.036449653,1,0,0,0,143,143,193,1,weeshuis,images/br_weeshuis.png,images/cb_weeshuis.png,0,,,,,,,,,,,,,,,,,,,,,,
,,,,,00108,2023-11-28_18h25.22.968,vbt_B1_day4,2022.2.4,MacIntel,60.0024001,,,,,,down,0,1.2585,,0.099722222,-0.011315104,1,0,0,0,144,144,77,1,woede,images/br_woede.png,images/cb_woede.png,0,,,,,,,,,,,,,,,,,,,,,,
,,,,,00108,2023-11-28_18h25.22.968,vbt_B1_day4,2022.2.4,MacIntel,60.0024001,,,,,,down,0,0.4192,,0.099722222,-0.011905382,1,0,0,0,145,145,25,1,plek,images/br_plek.png,images/cb_plek.png,1,plek,,,,,,,,,,,,,,,,,,,,,
,,,,,00108,2023-11-28_18h25.22.968,vbt_B1_day4,2022.2.4,MacIntel,60.0024001,,,,,,down,0,0.6353,,0.002131076,-0.037842882,1,0,0,0,146,146,44,1,flits,images/br_flits.png,images/cb_flits.png,0,,,,,,,,,,,,,,,,,,,,,,
,,,,,00108,2023-11-28_18h25.22.968,vbt_B1_day4,2022.2.4,MacIntel,60.0024001,,,,,,down,0,6.5187,,0.002131076,-0.037842882,1,0,0,0,147,147,76,1,afval,images/br_afval.png,images/cb_afval.png,0,,,,,,,,,,,,,,,,,,,,,,
,,,,,00108,2023-11-28_18h25.22.968,vbt_B1_day4,2022.2.4,MacIntel,60.0024001,,,,,,down,0,1.2326,,0.179179687,-0.032105035,1,0,0,0,148,148,148,1,smullen,images/br_smullen.png,images/cb_smullen.png,0,,,,,,,,,,,,,,,,,,,,,,
,,,,,00108,2023-11-28_18h25.22.968,vbt_B1_day4,2022.2.4,MacIntel,60.0024001,,,,,,down,0,2.1091,,0.186362847,-0.063389757,1,0,0,0,149,149,163,1,schuilen,images/br_schuilen.png,images/cb_schuilen.png,0,,,,,,,,,,,,,,,,,,,,,,
,,,,,00108,2023-11-28_18h25.22.968,vbt_B1_day4,2022.2.4,MacIntel,60.0024001,,,,,,down,0,3.5332,,-0.046080729,-0.110325521,1,0,0,0,150,150,190,1,goedkoop,images/br_goedkoop.png,images/cb_goedkoop.png,0,,,,,,,,,,,,,,,,,,,,,,
,,,,,00108,2023-11-28_18h25.22.968,vbt_B1_day4,2022.2.4,MacIntel,60.0024001,,,,,,down,0,0.7421,,0.022365451,-0.023880208,1,0,0,0,151,151,132,1,grappen,images/br_grappen.png,images/cb_grappen.png,0,,,,,,,,,,,,,,,,,,,,,,
,,,,,00108,2023-11-28_18h25.22.968,vbt_B1_day4,2022.2.4,MacIntel,60.0024001,,,,,,down,0,1.9004,,-0.037300347,-0.00296875,1,0,0,0,152,152,188,1,strekken,images/br_strekken.png,images/cb_strekken.png,0,,,,,,,,,,,,,,,,,,,,,,
,,,,,00108,2023-11-28_18h25.22.968,vbt_B1_day4,2022.2.4,MacIntel,60.0024001,,,,,,down,0,69.7907,,-0.061427951,-0.237096354,1,0,0,0,153,153,131,1,opzicht,images/br_opzicht.png,images/cb_opzicht.png,0,,,,,,,,,,,,,,,,,,,,,,
,,,,,00108,2023-11-28_18h25.22.968,vbt_B1_day4,2022.2.4,MacIntel,60.0024001,,,,,,down,0,0.9369,,0.011028646,-0.037686632,1,0,0,0,154,154,45,1,piste,images/br_piste.png,images/cb_piste.png,0,,,,,,,,,,,,,,,,,,,,,,
,,,,,00108,2023-11-28_18h25.22.968,vbt_B1_day4,2022.2.4,MacIntel,60.0024001,,,,,,down,0,3.0161,,0.034943576,-0.026215278,1,0,0,0,155,155,85,1,heilig,images/br_heilig.png,images/cb_heilig.png,0,,,,,,,,,,,,,,,,,,,,,,
,,,,,00108,2023-11-28_18h25.22.968,vbt_B1_day4,2022.2.4,MacIntel,60.0024001,,,,,,down,0,10.1531,,0.269127604,0.124952257,1,0,0,0,156,156,27,1,dans,images/br_dans.png,images/cb_dans.png,1,dans,,,,,,,,,,,,,,,,,,,,,
,,,,,00108,2023-11-28_18h25.22.968,vbt_B1_day4,2022.2.4,MacIntel,60.0024001,,,,,,down,0,8.0355,,0.086992187,-0.064578993,1,0,0,0,157,157,196,1,nakijken,images/br_nakijken.png,images/cb_nakijken.png,0,,,,,,,,,,,,,,,,,,,,,,
,,,,,00108,2023-11-28_18h25.22.968,vbt_B1_day4,2022.2.4,MacIntel,60.0024001,,,,,,down,0,0.6526,,-0.030203993,-0.024735243,1,0,0,0,158,158,37,1,mijn,images/br_mijn.png,images/cb_mijn.png,0,,,,,,,,,,,,,,,,,,,,,,
,,,,,00108,2023-11-28_18h25.22.968,vbt_B1_day4,2022.2.4,MacIntel,60.0024001,,,,,,down,0,3.4348,,0.042829861,-0.007196181,1,0,0,0,159,159,189,1,aanraden,images/br_aanraden.png,images/cb_aanraden.png,0,,,,,,,,,,,,,,,,,,,,,,
,,,,,00108,2023-11-28_18h25.22.968,vbt_B1_day4,2022.2.4,MacIntel,60.0024001,,,,,,down,0,0.4185,,0.042274306,-0.007196181,1,0,0,0,160,160,64,1,wegen,images/br_wegen.png,images/cb_wegen.png,1,wegen,,,,,,,,,,,,,,,,,,,,,
,,,,,00108,2023-11-28_18h25.22.968,vbt_B1_day4,2022.2.4,MacIntel,60.0024001,,,,,,down,0,8.4336,,0.042274306,-0.007196181,1,0,0,0,161,161,57,1,steek,images/br_steek.png,images/cb_steek.png,0,,,,,,,,,,,,,,,,,,,,,,
,,,,,00108,2023-11-28_18h25.22.968,vbt_B1_day4,2022.2.4,MacIntel,60.0024001,,,,,,down,0,3.0872,,0.097426215,-0.011597222,1,0,0,0,162,162,22,1,stof,images/br_stof.png,images/cb_stof.png,0,,,,,,,,,,,,,,,,,,,,,,
,,,,,00108,2023-11-28_18h25.22.968,vbt_B1_day4,2022.2.4,MacIntel,60.0024001,,,,,,down,0,0.9852,,0.031792535,-0.011206597,1,0,0,0,163,163,53,1,baron,images/br_baron.png,images/cb_baron.png,0,,,,,,,,,,,,,,,,,,,,,,
,,,,,00108,2023-11-28_18h25.22.968,vbt_B1_day4,2022.2.4,MacIntel,60.0024001,,,,,,down,0,4.7237,,-0.027907986,0.000668403,1,0,0,0,164,164,79,1,nodig,images/br_nodig.png,images/cb_nodig.png,0,,,,,,,,,,,,,,,,,,,,,,
,,,,,00108,2023-11-28_18h25.22.968,vbt_B1_day4,2022.2.4,MacIntel,60.0024001,,,,,,down,0,2.5548,,0.080347222,-0.013038194,1,0,0,0,165,165,149,1,redding,images/br_redding.png,images/cb_redding.png,0,,,,,,,,,,,,,,,,,,,,,,
,,,,,00108,2023-11-28_18h25.22.968,vbt_B1_day4,2022.2.4,MacIntel,60.0024001,,,,,,down,0,0.8589,,0.020325521,-0.021280382,1,0,0,0,166,166,33,1,vlek,images/br_vlek.png,images/cb_vlek.png,0,,,,,,,,,,,,,,,,,,,,,,
,,,,,00108,2023-11-28_18h25.22.968,vbt_B1_day4,2022.2.4,MacIntel,60.0024001,,,,,,down,0,3.1741,,0.082881944,-0.018710938,1,0,0,0,167,167,100,1,geduld,images/br_geduld.png,images/cb_geduld.png,0,,,,,,,,,,,,,,,,,,,,,,
,,,,,00108,2023-11-28_18h25.22.968,vbt_B1_day4,2022.2.4,MacIntel,60.0024001,,,,,,down,0,18.8839,,-0.140512153,0.007669271,1,0,0,0,168,168,199,1,beseffen,images/br_beseffen.png,images/cb_beseffen.png,0,,,,,,,,,,,,,,,,,,,,,,
,,,,,00108,2023-11-28_18h25.22.968,vbt_B1_day4,2022.2.4,MacIntel,60.0024001,,,,,,down,0,0.403,,-0.183168403,-0.023255208,1,0,0,0,169,169,113,1,koppen,images/br_koppen.png,images/cb_koppen.png,0,,,,,,,,,,,,,,,,,,,,,,
,,,,,00108,2023-11-28_18h25.22.968,vbt_B1_day4,2022.2.4,MacIntel,60.0024001,,,,,,down,0,19.8853,,0.205351563,-0.139552951,1,0,0,0,170,170,106,1,zingen,images/br_zingen.png,images/cb_zingen.png,1,zingen,,,,,,,,,,,,,,,,,,,,,
,,,,,00108,2023-11-28_18h25.22.968,vbt_B1_day4,2022.2.4,MacIntel,60.0024001,,,,,,down,0,7.726,,-0.008624132,-0.011966146,1,0,0,0,171,171,170,1,schatten,images/br_schatten.png,images/cb_schatten.png,0,,,,,,,,,,,,,,,,,,,,,,
,,,,,00108,2023-11-28_18h25.22.968,vbt_B1_day4,2022.2.4,MacIntel,60.0024001,,,,,,down,0,10.4058,,-0.096041667,-0.024874132,1,0,0,0,172,172,12,1,kust,images/br_kust.png,images/cb_kust.png,0,,,,,,,,,,,,,,,,,,,,,,
,,,,,00108,2023-11-28_18h25.22.968,vbt_B1_day4,2022.2.4,MacIntel,60.0024001,,,,,,down,0,2.039,,-0.024296875,-0.000551215,1,0,0,0,173,173,15,1,soda,images/br_soda.png,images/cb_soda.png,0,,,,,,,,,,,,,,,,,,,,,,
,,,,,00108,2023-11-28_18h25.22.968,vbt_B1_day4,2022.2.4,MacIntel,60.0024001,,,,,,down,0,3.8822,,0.107960069,-0.061679687,1,0,0,0,174,174,152,1,afnemen,images/br_afnemen.png,images/cb_afnemen.png,0,,,,,,,,,,,,,,,,,,,,,,
,,,,,00108,2023-11-28_18h25.22.968,vbt_B1_day4,2022.2.4,MacIntel,60.0024001,,,,,,down,0,1.0863,,0.106545139,-0.062382813,1,0,0,0,175,175,62,1,knaap,images/br_knaap.png,images/cb_knaap.png,0,,,,,,,,,,,,,,,,,,,,,,
,,,,,00108,2023-11-28_18h25.22.968,vbt_B1_day4,2022.2.4,MacIntel,60.0024001,,,,,,down,0,2.5184,,0.106545139,-0.062382813,1,0,0,0,176,176,139,1,stiekem,images/br_stiekem.png,images/cb_stiekem.png,0,,,,,,,,,,,,,,,,,,,,,,
,,,,,00108,2023-11-28_18h25.22.968,vbt_B1_day4,2022.2.4,MacIntel,60.0024001,,,,,,down,0,3.7418,,-0.021284722,0.005546875,1,0,0,0,177,177,43,1,klauw,images/br_klauw.png,images/cb_klauw.png,0,,,,,,,,,,,,,,,,,,,,,,
,,,,,00108,2023-11-28_18h25.22.968,vbt_B1_day4,2022.2.4,MacIntel,60.0024001,,,,,,down,0,0.9364,,-0.031931424,-0.011150174,1,0,0,0,178,178,61,1,groen,images/br_groen.png,images/cb_groen.png,0,,,,,,,,,,,,,,,,,,,,,,
,,,,,00108,2023-11-28_18h25.22.968,vbt_B1_day4,2022.2.4,MacIntel,60.0024001,,,,,,down,0,3.4169,,0.16016059,-0.039144965,1,0,0,0,179,179,20,1,site,images/br_site.png,images/cb_site.png,0,,,,,,,,,,,,,,,,,,,,,,
,,,,,00108,2023-11-28_18h25.22.968,vbt_B1_day4,2022.2.4,MacIntel,60.0024001,,,,,,down,0,1.1039,,0.018958333,-0.03422309,1,0,0,0,180,180,36,1,vuur,images/br_vuur.png,images/cb_vuur.png,0,,,,,,,,,,,,,,,,,,,,,,
,,,,,00108,2023-11-28_18h25.22.968,vbt_B1_day4,2022.2.4,MacIntel,60.0024001,,,,,,down,0,11.1367,,-0.109006076,-0.012864583,1,0,0,0,181,181,83,1,mening,images/br_mening.png,images/cb_mening.png,0,,,,,,,,,,,,,,,,,,,,,,
,,,,,00108,2023-11-28_18h25.22.968,vbt_B1_day4,2022.2.4,MacIntel,60.0024001,,,,,,down,0,7.4838,,-0.263923611,-0.040998264,1,0,0,0,182,182,166,1,strikken,images/br_strikken.png,images/cb_strikken.png,0,,,,,,,,,,,,,,,,,,,,,,
,,,,,00108,2023-11-28_18h25.22.968,vbt_B1_day4,2022.2.4,MacIntel,60.0024001,,,,,,down,0,2.9179,,-0.173537326,-0.051927083,1,0,0,0,183,183,109,1,totaal,images/br_totaal.png,images/cb_totaal.png,0,,,,,,,,,,,,,,,,,,,,,,
,,,,,00108,2023-11-28_18h25.22.968,vbt_B1_day4,2022.2.4,MacIntel,60.0024001,,,,,,down,0,5.9712,,-0.173537326,-0.052482639,1,0,0,0,184,184,60,1,jasje,images/br_jasje.png,images/cb_jasje.png,0,,,,,,,,,,,,,,,,,,,,,,
,,,,,00108,2023-11-28_18h25.22.968,vbt_B1_day4,2022.2.4,MacIntel,60.0024001,,,,,,down,0,1.1858,,-0.173537326,-0.052482639,1,0,0,0,185,185,1,1,zaal,images/br_zaal.png,images/cb_zaal.png,0,,,,,,,,,,,,,,,,,,,,,,
,,,,,00108,2023-11-28_18h25.22.968,vbt_B1_day4,2022.2.4,MacIntel,60.0024001,,,,,,down,0,6.4327,,-0.005381944,-0.031853299,1,0,0,0,186,186,161,1,attentie,images/br_attentie.png,images/cb_attentie.png,0,,,,,,,,,,,,,,,,,,,,,,
,,,,,00108,2023-11-28_18h25.22.968,vbt_B1_day4,2022.2.4,MacIntel,60.0024001,,,,,,down,0,9.3843,,0.104774306,-0.013498264,1,0,0,0,187,187,165,1,feestdag,images/br_feestdag.png,images/cb_feestdag.png,0,,,,,,,,,,,,,,,,,,,,,,
,,,,,00108,2023-11-28_18h25.22.968,vbt_B1_day4,2022.2.4,MacIntel,60.0024001,,,,,,down,0,0.5262,,0.104774306,-0.013498264,1,0,0,0,188,188,13,1,kaal,images/br_kaal.png,images/cb_kaal.png,0,,,,,,,,,,,,,,,,,,,,,,
,,,,,00108,2023-11-28_18h25.22.968,vbt_B1_day4,2022.2.4,MacIntel,60.0024001,,,,,,down,0,262.5276,,-0.002087674,-0.040277778,1,0,0,0,189,189,58,1,tekst,images/br_tekst.png,images/cb_tekst.png,0,,,,,,,,,,,,,,,,,,,,,,
,,,,,00108,2023-11-28_18h25.22.968,vbt_B1_day4,2022.2.4,MacIntel,60.0024001,,,,,,down,0,2.5715,,0.075112847,-0.019778646,1,0,0,0,190,190,38,1,baai,images/br_baai.png,images/cb_baai.png,0,,,,,,,,,,,,,,,,,,,,,,
,,,,,00108,2023-11-28_18h25.22.968,vbt_B1_day4,2022.2.4,MacIntel,60.0024001,,,,,,down,0,3.7692,,0.244179687,-0.036918403,1,0,0,0,191,191,192,1,schaamte,images/br_schaamte.png,images/cb_schaamte.png,0,,,,,,,,,,,,,,,,,,,,,,
,,,,,00108,2023-11-28_18h25.22.968,vbt_B1_day4,2022.2.4,MacIntel,60.0024001,,,,,,down,0,62.9164,,-0.182482639,0.009179688,1,0,0,0,192,192,185,1,mijnheer,images/br_mijnheer.png,images/cb_mijnheer.png,1,mijnheer,,,,,,,,,,,,,,,,,,,,,
,,,,,00108,2023-11-28_18h25.22.968,vbt_B1_day4,2022.2.4,MacIntel,60.0024001,,,,,,down,0,0.34,,0.029657118,-0.033016493,1,0,0,0,193,193,23,1,zout,images/br_zout.png,images/cb_zout.png,0,,,,,,,,,,,,,,,,,,,,,,
,,,,,00108,2023-11-28_18h25.22.968,vbt_B1_day4,2022.2.4,MacIntel,60.0024001,,,,,,down,0,2.2702,,0.060590278,0.039874132,1,0,0,0,194,194,6,1,diep,images/br_diep.png,images/cb_diep.png,0,,,,,,,,,,,,,,,,,,,,,,
,,,,,00108,2023-11-28_18h25.22.968,vbt_B1_day4,2022.2.4,MacIntel,60.0024001,,,,,,down,0,5.4389,,-0.067039931,-0.001050347,1,0,0,0,195,195,3,1,mand,images/br_mand.png,images/cb_mand.png,0,,,,,,,,,,,,,,,,,,,,,,
,,,,,00108,2023-11-28_18h25.22.968,vbt_B1_day4,2022.2.4,MacIntel,60.0024001,,,,,,down,0,0.6687,,0.04984809,-0.021358507,1,0,0,0,196,196,140,1,blijven,images/br_blijven.png,images/cb_blijven.png,0,,,,,,,,,,,,,,,,,,,,,,
,,,,,00108,2023-11-28_18h25.22.968,vbt_B1_day4,2022.2.4,MacIntel,60.0024001,,,,,,down,0,1.3998,,-0.088051215,-0.001688368,1,0,0,0,197,197,19,1,geit,images/br_geit.png,images/cb_geit.png,0,,,,,,,,,,,,,,,,,,,,,,
,,,,,00108,2023-11-28_18h25.22.968,vbt_B1_day4,2022.2.4,MacIntel,60.0024001,,,,,,down,0,1.0174,,-0.110611979,-0.022022569,1,0,0,0,198,198,84,1,lokken,images/br_lokken.png,images/cb_lokken.png,0,,,,,,,,,,,,,,,,,,,,,,
,,,,,00108,2023-11-28_18h25.22.968,vbt_B1_day4,2022.2.4,MacIntel,60.0024001,,,,,,down,0,10.2856,,-0.110434028,0.015716146,1,0,0,0,199,199,176,1,techniek,images/br_techniek.png,images/cb_techniek.png,0,,,,,,,,,,,,,,,,,,,,,,
,,,,,00108,2023-11-28_18h25.22.968,vbt_B1_day4,2022.2.4,MacIntel,60.0024001,,,,,,,,,,,,,,,,,,,,,,,,,-0.110434028,0.015716146,1,0,0,,,,,,,,,,,,,,,,
,,,,,00108,2023-11-28_18h25.22.968,vbt_B1_day4,2022.2.4,MacIntel,60.0024001,,,,,,,,,,,,,,,,,,,,,,,,,,,,,,-0.110434028,0.015716146,1,0,0,,,,,,,,,,,
,,,,,00108,2023-11-28_18h25.22.968,vbt_B1_day4,2022.2.4,MacIntel,60.0024001,,,,,,,,,,,,,,,,,,,,lappen,images/br_lappen.png,images/cb_lappen.png,,lappen,,,,,,,,,,,-0.110434028,0.015716146,1,0,0,lappen,0,0,0,49,1
,,,,,00108,2023-11-28_18h25.22.968,vbt_B1_day4,2022.2.4,MacIntel,60.0024001,,,,,,,,,,,,,,,,,,,,dalen,images/br_dalen.png,images/cb_dalen.png,,dalen,,,,,,,,,,,0.113155382,0.033576389,1,0,0,dalen,0,1,1,46,1
,,,,,00108,2023-11-28_18h25.22.968,vbt_B1_day4,2022.2.4,MacIntel,60.0024001,,,,,,,,,,,,,,,,,,,,eerst,images/br_eerst.png,images/cb_eerst.png,,eerst,,,,,,,,,,,0.121848958,0.022912326,1,0,0,eerst,0,2,2,47,1
,,,,,00108,2023-11-28_18h25.22.968,vbt_B1_day4,2022.2.4,MacIntel,60.0024001,,,,,,,,,,,,,,,,,,,,drummer,images/br_drummer.png,images/cb_drummer.png,,drummer,,,,,,,,,,,0.360212674,-0.004622396,1,0,0,drummer,0,3,3,53,1
,,,,,00108,2023-11-28_18h25.22.968,vbt_B1_day4,2022.2.4,MacIntel,60.0024001,,,,,,,,,,,,,,,,,,,,aanzwaag,images/br_aanzwaag.png,images/cb_aanzwaag.png,,aanzwa,,,,,,,,,,,0.379301215,-0.044019097,1,0,0,aanzwa,0,4,4,38,1
,,,,,00108,2023-11-28_18h25.22.968,vbt_B1_day4,2022.2.4,MacIntel,60.0024001,,,,,,,,,,,,,,,,,,,,geheim,images/br_geheim.png,images/cb_geheim.png,,geheim,,,,,,,,,,,0.233198785,0.009366319,1,0,0,geheim,0,5,5,8,1
,,,,,00108,2023-11-28_18h25.22.968,vbt_B1_day4,2022.2.4,MacIntel,60.0024001,,,,,,,,,,,,,,,,,,,,bruin,images/br_bruin.png,images/cb_bruin.png,,bruin,,,,,,,,,,,0.590286458,-0.12640191,1,0,0,bruin,0,6,6,45,1
,,,,,00108,2023-11-28_18h25.22.968,vbt_B1_day4,2022.2.4,MacIntel,60.0024001,,,,,,,,,,,,,,,,,,,,gebog,images/br_gebog.png,images/cb_gebog.png,,gebog,,,,,,,,,,,0.301523437,-0.142513021,1,0,0,gebog,0,7,7,24,1
,,,,,00108,2023-11-28_18h25.22.968,vbt_B1_day4,2022.2.4,MacIntel,60.0024001,,,,,,,,,,,,,,,,,,,,flippen,images/br_flippen.png,images/cb_flippen.png,,flippen,,,,,,,,,,,0.196315104,-0.065112847,1,0,0,flippen,0,8,8,54,1
,,,,,00108,2023-11-28_18h25.22.968,vbt_B1_day4,2022.2.4,MacIntel,60.0024001,,,,,,,,,,,,,,,,,,,,toevol,images/br_toevol.png,images/cb_toevol.png,,toeval,,,,,,,,,,,0.445538194,-0.062942708,1,0,0,toeval,0,9,9,29,1
,,,,,00108,2023-11-28_18h25.22.968,vbt_B1_day4,2022.2.4,MacIntel,60.0024001,,,,,,,,,,,,,,,,,,,,pijnlijk,images/br_pijnlijk.png,images/cb_pijnlijk.png,,pijnlijk,,,,,,,,,,,0.792569444,-0.115325521,1,0,0,pijnlijk,0,10,10,58,1
,,,,,00108,2023-11-28_18h25.22.968,vbt_B1_day4,2022.2.4,MacIntel,60.0024001,,,,,,,,,,,,,,,,,,,,dozijn,images/br_dozijn.png,images/cb_dozijn.png,,dozijn,,,,,,,,,,,0.344457465,-0.061358507,1,0,0,dozijn,0,11,11,48,1
,,,,,00108,2023-11-28_18h25.22.968,vbt_B1_day4,2022.2.4,MacIntel,60.0024001,,,,,,,,,,,,,,,,,,,,waarop,images/br_waarop.png,images/cb_waarop.png,,daarop,,,,,,,,,,,0.4325,-0.122717014,1,0,0,daarop,0,12,12,9,1
,,,,,00108,2023-11-28_18h25.22.968,vbt_B1_day4,2022.2.4,MacIntel,60.0024001,,,,,,,,,,,,,,,,,,,,tucket,images/br_tucket.png,images/cb_tucket.png,,tucket,,,,,,,,,,,0.557465278,-0.165438368,1,0,0,tucket,0,13,13,30,1
,,,,,00108,2023-11-28_18h25.22.968,vbt_B1_day4,2022.2.4,MacIntel,60.0024001,,,,,,,,,,,,,,,,,,,,schenden,images/br_schenden.png,images/cb_schenden.png,,schenden,,,,,,,,,,,0.307782118,-0.031970486,1,0,0,schenden,0,14,14,57,1
,,,,,00108,2023-11-28_18h25.22.968,vbt_B1_day4,2022.2.4,MacIntel,60.0024001,,,,,,,,,,,,,,,,,,,,praat,images/br_praat.png,images/cb_praat.png,,praat,,,,,,,,,,,0.277105035,-0.059822049,1,0,0,praat,0,15,15,7,1
,,,,,00108,2023-11-28_18h25.22.968,vbt_B1_day4,2022.2.4,MacIntel,60.0024001,,,,,,,,,,,,,,,,,,,,midden,images/br_midden.png,images/cb_midden.png,,midden,,,,,,,,,,,0.221944444,-0.000638021,1,0,0,midden,0,16,16,50,1
,,,,,00108,2023-11-28_18h25.22.968,vbt_B1_day4,2022.2.4,MacIntel,60.0024001,,,,,,,,,,,,,,,,,,,,warel,images/br_warel.png,images/cb_warel.png,,warel,,,,,,,,,,,0.44233941,-0.101111111,1,0,0,warel,0,17,17,26,1
,,,,,00108,2023-11-28_18h25.22.968,vbt_B1_day4,2022.2.4,MacIntel,60.0024001,,,,,,,,,,,,,,,,,,,,gedicht,images/br_gedicht.png,images/cb_gedicht.png,,gedicht,,,,,,,,,,,0.480095486,-0.087569444,1,0,0,gedicht,0,18,18,15,1
,,,,,00108,2023-11-28_18h25.22.968,vbt_B1_day4,2022.2.4,MacIntel,60.0024001,,,,,,,,,,,,,,,,,,,,stemming,images/br_stemming.png,images/cb_stemming.png,,stemming,,,,,,,,,,,0.601536458,-0.088480903,1,0,0,stemming,0,19,19,18,1
,,,,,00108,2023-11-28_18h25.22.968,vbt_B1_day4,2022.2.4,MacIntel,60.0024001,,,,,,,,,,,,,,,,,,,,sulbon,images/br_sulbon.png,images/cb_sulbon.png,,sulcho,,,,,,,,,,,0.013359375,-0.010212674,1,0,0,sulcho,0,20,20,31,1
,,,,,00108,2023-11-28_18h25.22.968,vbt_B1_day4,2022.2.4,MacIntel,60.0024001,,,,,,,,,,,,,,,,,,,,snee,images/br_snee.png,images/cb_snee.png,,snee,,,,,,,,,,,0.243715278,-0.018988715,1,0,0,snee,0,21,21,40,1
,,,,,00108,2023-11-28_18h25.22.968,vbt_B1_day4,2022.2.4,MacIntel,60.0024001,,,,,,,,,,,,,,,,,,,,oceaan,images/br_oceaan.png,images/cb_oceaan.png,,oceaan,,,,,,,,,,,0.187526042,-0.068467882,1,0,0,oceaan,0,22,22,10,1
,,,,,00108,2023-11-28_18h25.22.968,vbt_B1_day4,2022.2.4,MacIntel,60.0024001,,,,,,,,,,,,,,,,,,,,gebit,images/br_gebit.png,images/cb_gebit.png,,gebit,,,,,,,,,,,-0.012591146,-0.048289931,1,0,0,gebit,0,23,23,6,1
,,,,,00108,2023-11-28_18h25.22.968,vbt_B1_day4,2022.2.4,MacIntel,60.0024001,,,,,,,,,,,,,,,,,,,,ezel,images/br_ezel.png,images/cb_ezel.png,,ezel,,,,,,,,,,,0.156462674,-0.098975694,1,0,0,ezel,0,24,24,42,1
,,,,,00108,2023-11-28_18h25.22.968,vbt_B1_day4,2022.2.4,MacIntel,60.0024001,,,,,,,,,,,,,,,,,,,,strok,images/br_strok.png,images/cb_strok.png,,strok,,,,,,,,,,,0.156462674,-0.098975694,1,0,0,strok,0,25,25,25,1
,,,,,00108,2023-11-28_18h25.22.968,vbt_B1_day4,2022.2.4,MacIntel,60.0024001,,,,,,,,,,,,,,,,,,,,schotel,images/br_schotel.png,images/cb_schotel.png,,schonel,,,,,,,,,,,0.207269965,-0.002369792,1,0,0,schonel,0,26,26,52,1
,,,,,00108,2023-11-28_18h25.22.968,vbt_B1_day4,2022.2.4,MacIntel,60.0024001,,,,,,,,,,,,,,,,,,,,opkicht,images/br_opkicht.png,images/cb_opkicht.png,,opkicht,,,,,,,,,,,-0.011115451,-0.2090625,1,0,0,opkicht,0,27,27,34,1
,,,,,00108,2023-11-28_18h25.22.968,vbt_B1_day4,2022.2.4,MacIntel,60.0024001,,,,,,,,,,,,,,,,,,,,geliefd,images/br_geliefd.png,images/cb_geliefd.png,,geliefd,,,,,,,,,,,0.014071181,-0.029210069,1,0,0,geliefd,0,28,28,14,1
,,,,,00108,2023-11-28_18h25.22.968,vbt_B1_day4,2022.2.4,MacIntel,60.0024001,,,,,,,,,,,,,,,,,,,,grappen,images/br_grappen.png,images/cb_grappen.png,,grappen,,,,,,,,,,,-0.052673611,-0.011423611,1,0,0,grappen,0,29,29,12,1
,,,,,00108,2023-11-28_18h25.22.968,vbt_B1_day4,2022.2.4,MacIntel,60.0024001,,,,,,,,,,,,,,,,,,,,zaalrijk,images/br_zaalrijk.png,images/cb_zaalrijk.png,,zaalrijk,,,,,,,,,,,0.096996528,-0.016835937,1,0,0,zaalrijk,0,30,30,37,1
,,,,,00108,2023-11-28_18h25.22.968,vbt_B1_day4,2022.2.4,MacIntel,60.0024001,,,,,,,,,,,,,,,,,,,,gaaf,images/br_gaaf.png,images/cb_gaaf.png,,gaaf,,,,,,,,,,,-0.069053819,-0.014887153,1,0,0,gaaf,0,31,31,43,1
,,,,,00108,2023-11-28_18h25.22.968,vbt_B1_day4,2022.2.4,MacIntel,60.0024001,,,,,,,,,,,,,,,,,,,,steen,images/br_steen.png,images/cb_steen.png,,steen,,,,,,,,,,,0.067677951,-0.016258681,1,0,0,steen,0,32,32,44,1
,,,,,00108,2023-11-28_18h25.22.968,vbt_B1_day4,2022.2.4,MacIntel,60.0024001,,,,,,,,,,,,,,,,,,,,seizoen,images/br_seizoen.png,images/cb_seizoen.png,,seizoen,,,,,,,,,,,-0.019887153,-0.027460938,1,0,0,seizoen,0,33,33,13,1
,,,,,00108,2023-11-28_18h25.22.968,vbt_B1_day4,2022.2.4,MacIntel,60.0024001,,,,,,,,,,,,,,,,,,,,wagon,images/br_wagon.png,images/cb_wagon.png,,wagon,,,,,,,,,,,-0.02015625,-0.017330729,1,0,0,wagon,0,34,34,4,1
,,,,,00108,2023-11-28_18h25.22.968,vbt_B1_day4,2022.2.4,MacIntel,60.0024001,,,,,,,,,,,,,,,,,,,,broodje,images/br_broodje.png,images/cb_broodje.png,,brooje,,,,,,,,,,,0.094835069,-0.016501736,1,0,0,brooje,0,35,35,55,1
,,,,,00108,2023-11-28_18h25.22.968,vbt_B1_day4,2022.2.4,MacIntel,60.0024001,,,,,,,,,,,,,,,,,,,,heengaan,images/br_heengaan.png,images/cb_heengaan.png,,heengaan,,,,,,,,,,,0.045698785,-0.018776042,1,0,0,heengaan,0,36,36,19,1
,,,,,00108,2023-11-28_18h25.22.968,vbt_B1_day4,2022.2.4,MacIntel,60.0024001,,,,,,,,,,,,,,,,,,,,weigeren,images/br_weigeren.png,images/cb_weigeren.png,,weigeren,,,,,,,,,,,0.159192708,-0.044583333,1,0,0,weigeren,0,37,37,16,1
,,,,,00108,2023-11-28_18h25.22.968,vbt_B1_day4,2022.2.4,MacIntel,60.0024001,,,,,,,,,,,,,,,,,,,,getucht,images/br_getucht.png,images/cb_getucht.png,,getuij,,,,,,,,,,,0.011493056,-0.030164931,1,0,0,getuij,0,38,38,35,1
,,,,,00108,2023-11-28_18h25.22.968,vbt_B1_day4,2022.2.4,MacIntel,60.0024001,,,,,,,,,,,,,,,,,,,,paalbaak,images/br_paalbaak.png,images/cb_paalbaak.png,,paalbaak,,,,,,,,,,,0.012886285,0.002669271,1,0,0,paalbaak,0,39,39,39,1
,,,,,00108,2023-11-28_18h25.22.968,vbt_B1_day4,2022.2.4,MacIntel,60.0024001,,,,,,,,,,,,,,,,,,,,gaan,images/br_gaan.png,images/cb_gaan.png,,gaan,,,,,,,,,,,0.194735243,-0.085447049,1,0,0,gaan,0,40,40,41,1
,,,,,00108,2023-11-28_18h25.22.968,vbt_B1_day4,2022.2.4,MacIntel,60.0024001,,,,,,,,,,,,,,,,,,,,noodzaak,images/br_noodzaak.png,images/cb_noodzaak.png,,noodzaak,,,,,,,,,,,0.121323785,-0.031883681,1,0,0,noodzaak,0,41,41,56,1
,,,,,00108,2023-11-28_18h25.22.968,vbt_B1_day4,2022.2.4,MacIntel,60.0024001,,,,,,,,,,,,,,,,,,,,opruimen,images/br_opruimen.png,images/cb_opruimen.png,,opruimen,,,,,,,,,,,-0.030763889,-0.030525174,1,0,0,opruimen,0,42,42,59,1
,,,,,00108,2023-11-28_18h25.22.968,vbt_B1_day4,2022.2.4,MacIntel,60.0024001,,,,,,,,,,,,,,,,,,,,drooien,images/br_drooien.png,images/cb_drooien.png,,drooien,,,,,,,,,,,-0.085247396,-0.008450521,1,0,0,drooien,0,43,43,32,1
,,,,,00108,2023-11-28_18h25.22.968,vbt_B1_day4,2022.2.4,MacIntel,60.0024001,,,,,,,,,,,,,,,,,,,,vreten,images/br_vreten.png,images/cb_vreten.png,,vreten,,,,,,,,,,,0.193294271,0.016137153,1,0,0,vreten,0,44,44,11,1
,,,,,00108,2023-11-28_18h25.22.968,vbt_B1_day4,2022.2.4,MacIntel,60.0024001,,,,,,,,,,,,,,,,,,,,baron,images/br_baron.png,images/cb_baron.png,,baton,,,,,,,,,,,-0.029674479,-0.031692708,1,0,0,baton,0,45,45,5,1
,,,,,00108,2023-11-28_18h25.22.968,vbt_B1_day4,2022.2.4,MacIntel,60.0024001,,,,,,,,,,,,,,,,,,,,wozing,images/br_wozing.png,images/cb_wozing.png,,wozing,,,,,,,,,,,0.043250868,0.004748264,1,0,0,wozing,0,46,46,28,1
,,,,,00108,2023-11-28_18h25.22.968,vbt_B1_day4,2022.2.4,MacIntel,60.0024001,,,,,,,,,,,,,,,,,,,,gijf,images/br_gijf.png,images/cb_gijf.png,,geif,,,,,,,,,,,0.052612847,0.013971354,1,0,0,geif,0,47,47,23,1
,,,,,00108,2023-11-28_18h25.22.968,vbt_B1_day4,2022.2.4,MacIntel,60.0024001,,,,,,,,,,,,,,,,,,,,fran,images/br_fran.png,images/cb_fran.png,,fran,,,,,,,,,,,-0.07515625,-0.008103299,1,0,0,fran,0,48,48,22,1
,,,,,00108,2023-11-28_18h25.22.968,vbt_B1_day4,2022.2.4,MacIntel,60.0024001,,,,,,,,,,,,,,,,,,,,zwek,images/br_zwek.png,images/cb_zwek.png,,zwek,,,,,,,,,,,-0.050746528,-0.023663194,1,0,0,zwek,0,49,49,20,1
,,,,,00108,2023-11-28_18h25.22.968,vbt_B1_day4,2022.2.4,MacIntel,60.0024001,,,,,,,,,,,,,,,,,,,,soda,images/br_soda.png,images/cb_soda.png,,soda,,,,,,,,,,,-0.045299479,-0.018094618,1,0,0,soda,0,50,50,3,1
,,,,,00108,2023-11-28_18h25.22.968,vbt_B1_day4,2022.2.4,MacIntel,60.0024001,,,,,,,,,,,,,,,,,,,,pittig,images/br_pittig.png,images/cb_pittig.png,,pinnig,,,,,,,,,,,0.043407118,-0.025203993,1,0,0,pinnig,0,51,51,51,1
,,,,,00108,2023-11-28_18h25.22.968,vbt_B1_day4,2022.2.4,MacIntel,60.0024001,,,,,,,,,,,,,,,,,,,,rijp,images/br_rijp.png,images/cb_rijp.png,,kijk,,,,,,,,,,,0.043407118,-0.025203993,1,0,0,kijk,0,52,52,2,1
,,,,,00108,2023-11-28_18h25.22.968,vbt_B1_day4,2022.2.4,MacIntel,60.0024001,,,,,,,,,,,,,,,,,,,,kaal,images/br_kaal.png,images/cb_kaal.png,,kaal,,,,,,,,,,,0.043407118,-0.025203993,1,0,0,kaal,0,53,53,1,1
,,,,,00108,2023-11-28_18h25.22.968,vbt_B1_day4,2022.2.4,MacIntel,60.0024001,,,,,,,,,,,,,,,,,,,,mekst,images/br_mekst.png,images/cb_mekst.png,,mikst,,,,,,,,,,,0.039592014,-0.025203993,1,0,0,mikst,0,54,54,27,1
,,,,,00108,2023-11-28_18h25.22.968,vbt_B1_day4,2022.2.4,MacIntel,60.0024001,,,,,,,,,,,,,,,,,,,,haza,images/br_haza.png,images/cb_haza.png,,hade,,,,,,,,,,,-0.060681424,-0.113376736,1,0,0,hade,0,55,55,21,1
,,,,,00108,2023-11-28_18h25.22.968,vbt_B1_day4,2022.2.4,MacIntel,60.0024001,,,,,,,,,,,,,,,,,,,,bisschap,images/br_bisschap.png,images/cb_bisschap.png,,besche,,,,,,,,,,,0.069826389,-0.022829861,1,0,0,besche,0,56,56,36,1
,,,,,00108,2023-11-28_18h25.22.968,vbt_B1_day4,2022.2.4,MacIntel,60.0024001,,,,,,,,,,,,,,,,,,,,apparaat,images/br_apparaat.png,images/cb_apparaat.png,,apparaat,,,,,,,,,,,0.020208333,-0.022057292,1,0,0,apparaat,0,57,57,17,1
,,,,,00108,2023-11-28_18h25.22.968,vbt_B1_day4,2022.2.4,MacIntel,60.0024001,,,,,,,,,,,,,,,,,,,,kust,images/br_kust.png,images/cb_kust.png,,kust,,,,,,,,,,,0.018624132,-0.022864583,1,0,0,kust,0,58,58,0,1
,,,,,00108,2023-11-28_18h25.22.968,vbt_B1_day4,2022.2.4,MacIntel,60.0024001,,,,,,,,,,,,,,,,,,,,seizoon,images/br_seizoon.png,images/cb_seizoon.png,,teizaan,,,,,,,,,,,-0.012886285,-0.035868056,1,0,0,teizaan,0,59,59,33,1
,,,,,00108,2023-11-28_18h25.22.968,vbt_B1_day4,2022.2.4,MacIntel,60.0024001,,,,,,,,,,,,,,,,,,,,,,,,,,,,,,,,,,,,,,,,,,,,,
