welcome_mouse.x,welcome_mouse.y,welcome_mouse.leftButton,welcome_mouse.midButton,welcome_mouse.rightButton,"ID",date,expName,psychopyVersion,OS,frameRate,participant,trainInstr_mouse.x,trainInstr_mouse.y,trainInstr_mouse.leftButton,trainInstr_mouse.midButton,trainInstr_mouse.rightButton,translation_key.keys,translation_key.corr,translation_key.rt,word_rsp.text,trWrd_mouse.x,trWrd_mouse.y,trWrd_mouse.leftButton,trWrd_mouse.midButton,trWrd_mouse.rightButton,train_loop.thisRepN,train_loop.thisTrialN,train_loop.thisN,train_loop.thisIndex,train_loop.ran,nlWrd,brWrd,cbWrd,test,testResp,mouse.x,mouse.y,mouse.leftButton,mouse.midButton,mouse.rightButton,testInstr_mouse.x,testInstr_mouse.y,testInstr_mouse.leftButton,testInstr_mouse.midButton,testInstr_mouse.rightButton,test_mouse.x,test_mouse.y,test_mouse.leftButton,test_mouse.midButton,test_mouse.rightButton,test_response.text,test_loop.thisRepN,test_loop.thisTrialN,test_loop.thisN,test_loop.thisIndex,test_loop.ran
-0.144565217,-0.235869565,1,0,0,,2023-09-27_13h08.36.792,vbt_B1_day4,2022.2.4,MacIntel,55.55555556,55879,,,,,,,,,,,,,,,,,,,,,,,,,,,,,,,,,,,,,,,,,,,,,
,,,,,,2023-09-27_13h08.36.792,vbt_B1_day4,2022.2.4,MacIntel,55.55555556,55879,0.336956522,-0.12173913,1,0,0,,,,,,,,,,,,,,,,,,,,,,,,,,,,,,,,,,,,,,,,
,,,,,,2023-09-27_13h08.36.792,vbt_B1_day4,2022.2.4,MacIntel,55.55555556,55879,,,,,,down,0,3.925,,0.336956522,-0.12173913,1,0,0,0,0,0,40,1,schep,images/br_schep.png,images/cb_schep.png,0,,,,,,,,,,,,,,,,,,,,,,
,,,,,,2023-09-27_13h08.36.792,vbt_B1_day4,2022.2.4,MacIntel,55.55555556,55879,,,,,,down,0,0.543,,0.336956522,-0.12173913,1,0,0,0,1,1,132,1,grappen,images/br_grappen.png,images/cb_grappen.png,0,,,,,,,,,,,,,,,,,,,,,,
,,,,,,2023-09-27_13h08.36.792,vbt_B1_day4,2022.2.4,MacIntel,55.55555556,55879,,,,,,down,0,0.202,,0.336956522,-0.12173913,1,0,0,0,2,2,63,1,flirt,images/br_flirt.png,images/cb_flirt.png,0,,,,,,,,,,,,,,,,,,,,,,
,,,,,,2023-09-27_13h08.36.792,vbt_B1_day4,2022.2.4,MacIntel,55.55555556,55879,,,,,,down,0,0.408,,0.336956522,-0.12173913,1,0,0,0,3,3,91,1,gezond,images/br_gezond.png,images/cb_gezond.png,0,,,,,,,,,,,,,,,,,,,,,,
,,,,,,2023-09-27_13h08.36.792,vbt_B1_day4,2022.2.4,MacIntel,55.55555556,55879,,,,,,down,0,0.021,,0.336956522,-0.12173913,1,0,0,0,4,4,2,1,jaar,images/br_jaar.png,images/cb_jaar.png,0,,,,,,,,,,,,,,,,,,,,,,
,,,,,,2023-09-27_13h08.36.792,vbt_B1_day4,2022.2.4,MacIntel,55.55555556,55879,,,,,,down,0,0.439,,0.336956522,-0.12173913,1,0,0,0,5,5,92,1,geheim,images/br_geheim.png,images/cb_geheim.png,0,,,,,,,,,,,,,,,,,,,,,,
,,,,,,2023-09-27_13h08.36.792,vbt_B1_day4,2022.2.4,MacIntel,55.55555556,55879,,,,,,down,0,0.9,,0.336956522,-0.12173913,1,0,0,0,6,6,1,1,zaal,images/br_zaal.png,images/cb_zaal.png,0,,,,,,,,,,,,,,,,,,,,,,
,,,,,,2023-09-27_13h08.36.792,vbt_B1_day4,2022.2.4,MacIntel,55.55555556,55879,,,,,,down,0,0.15,,0.336956522,-0.12173913,1,0,0,0,7,7,87,1,toeval,images/br_toeval.png,images/cb_toeval.png,0,,,,,,,,,,,,,,,,,,,,,,
,,,,,,2023-09-27_13h08.36.792,vbt_B1_day4,2022.2.4,MacIntel,55.55555556,55879,,,,,,down,0,0.333,,0.336956522,-0.12173913,1,0,0,0,8,8,196,1,nakijken,images/br_nakijken.png,images/cb_nakijken.png,0,,,,,,,,,,,,,,,,,,,,,,
,,,,,,2023-09-27_13h08.36.792,vbt_B1_day4,2022.2.4,MacIntel,55.55555556,55879,,,,,,down,0,0.116,,0.336956522,-0.12173913,1,0,0,0,9,9,78,1,leren,images/br_leren.png,images/cb_leren.png,0,,,,,,,,,,,,,,,,,,,,,,
,,,,,,2023-09-27_13h08.36.792,vbt_B1_day4,2022.2.4,MacIntel,55.55555556,55879,,,,,,down,0,1.266,,0.336956522,-0.12173913,1,0,0,0,10,10,191,1,opheffen,images/br_opheffen.png,images/cb_opheffen.png,0,,,,,,,,,,,,,,,,,,,,,,
,,,,,,2023-09-27_13h08.36.792,vbt_B1_day4,2022.2.4,MacIntel,55.55555556,55879,,,,,,down,0,0.266,,0.336956522,-0.12173913,1,0,0,0,11,11,169,1,oprotten,images/br_oprotten.png,images/cb_oprotten.png,0,,,,,,,,,,,,,,,,,,,,,,
,,,,,,2023-09-27_13h08.36.792,vbt_B1_day4,2022.2.4,MacIntel,55.55555556,55879,,,,,,down,0,0.017,,0.336956522,-0.12173913,1,0,0,0,12,12,48,1,steel,images/br_steel.png,images/cb_steel.png,0,,,,,,,,,,,,,,,,,,,,,,
,,,,,,2023-09-27_13h08.36.792,vbt_B1_day4,2022.2.4,MacIntel,55.55555556,55879,,,,,,down,0,0.277,,0.336956522,-0.12173913,1,0,0,0,13,13,164,1,anarchie,images/br_anarchie.png,images/cb_anarchie.png,0,,,,,,,,,,,,,,,,,,,,,,
,,,,,,2023-09-27_13h08.36.792,vbt_B1_day4,2022.2.4,MacIntel,55.55555556,55879,,,,,,down,0,6.623,,0.336956522,-0.12173913,1,0,0,0,14,14,185,1,mijnheer,images/br_mijnheer.png,images/cb_mijnheer.png,1,mijnheer,,,,,,,,,,,,,,,,,,,,,
,,,,,,2023-09-27_13h08.36.792,vbt_B1_day4,2022.2.4,MacIntel,55.55555556,55879,,,,,,down,0,0.794,,0.336956522,-0.12173913,1,0,0,0,15,15,82,1,muziek,images/br_muziek.png,images/cb_muziek.png,0,,,,,,,,,,,,,,,,,,,,,,
,,,,,,2023-09-27_13h08.36.792,vbt_B1_day4,2022.2.4,MacIntel,55.55555556,55879,,,,,,down,0,0.992,,0.336956522,-0.12173913,1,0,0,0,16,16,144,1,eetlust,images/br_eetlust.png,images/cb_eetlust.png,1,eetlust,,,,,,,,,,,,,,,,,,,,,
,,,,,,2023-09-27_13h08.36.792,vbt_B1_day4,2022.2.4,MacIntel,55.55555556,55879,,,,,,down,0,0.556,,0.336956522,-0.12173913,1,0,0,0,17,17,103,1,joggen,images/br_joggen.png,images/cb_joggen.png,0,,,,,,,,,,,,,,,,,,,,,,
,,,,,,2023-09-27_13h08.36.792,vbt_B1_day4,2022.2.4,MacIntel,55.55555556,55879,,,,,,down,0,3.54,,0.336956522,-0.12173913,1,0,0,0,18,18,155,1,gerucht,images/br_gerucht.png,images/cb_gerucht.png,0,,,,,,,,,,,,,,,,,,,,,,
,,,,,,2023-09-27_13h08.36.792,vbt_B1_day4,2022.2.4,MacIntel,55.55555556,55879,,,,,,down,0,0.683,,0.336956522,-0.12173913,1,0,0,0,19,19,21,1,mist,images/br_mist.png,images/cb_mist.png,0,,,,,,,,,,,,,,,,,,,,,,
,,,,,,2023-09-27_13h08.36.792,vbt_B1_day4,2022.2.4,MacIntel,55.55555556,55879,,,,,,down,0,0.524,,0.336956522,-0.12173913,1,0,0,0,20,20,111,1,ticket,images/br_ticket.png,images/cb_ticket.png,0,,,,,,,,,,,,,,,,,,,,,,
,,,,,,2023-09-27_13h08.36.792,vbt_B1_day4,2022.2.4,MacIntel,55.55555556,55879,,,,,,down,0,0.215,,0.336956522,-0.12173913,1,0,0,0,21,21,13,1,kaal,images/br_kaal.png,images/cb_kaal.png,0,,,,,,,,,,,,,,,,,,,,,,
,,,,,,2023-09-27_13h08.36.792,vbt_B1_day4,2022.2.4,MacIntel,55.55555556,55879,,,,,,down,0,4.184,,0.336956522,-0.12173913,1,0,0,0,22,22,79,1,nodig,images/br_nodig.png,images/cb_nodig.png,0,,,,,,,,,,,,,,,,,,,,,,
,,,,,,2023-09-27_13h08.36.792,vbt_B1_day4,2022.2.4,MacIntel,55.55555556,55879,,,,,,down,0,0.518,,0.336956522,-0.12173913,1,0,0,0,23,23,81,1,dubbel,images/br_dubbel.png,images/cb_dubbel.png,0,,,,,,,,,,,,,,,,,,,,,,
,,,,,,2023-09-27_13h08.36.792,vbt_B1_day4,2022.2.4,MacIntel,55.55555556,55879,,,,,,down,0,3.641,,0.336956522,-0.12173913,1,0,0,0,24,24,94,1,oceaan,images/br_oceaan.png,images/cb_oceaan.png,0,,,,,,,,,,,,,,,,,,,,,,
,,,,,,2023-09-27_13h08.36.792,vbt_B1_day4,2022.2.4,MacIntel,55.55555556,55879,,,,,,down,0,5.816,,0.336956522,-0.12173913,1,0,0,0,25,25,101,1,staren,images/br_staren.png,images/cb_staren.png,0,,,,,,,,,,,,,,,,,,,,,,
,,,,,,2023-09-27_13h08.36.792,vbt_B1_day4,2022.2.4,MacIntel,55.55555556,55879,,,,,,down,0,0.056,,0.336956522,-0.12173913,1,0,0,0,26,26,151,1,aanzoek,images/br_aanzoek.png,images/cb_aanzoek.png,0,,,,,,,,,,,,,,,,,,,,,,
,,,,,,2023-09-27_13h08.36.792,vbt_B1_day4,2022.2.4,MacIntel,55.55555556,55879,,,,,,down,0,0.522,,0.336956522,-0.12173913,1,0,0,0,27,27,77,1,woede,images/br_woede.png,images/cb_woede.png,0,,,,,,,,,,,,,,,,,,,,,,
,,,,,,2023-09-27_13h08.36.792,vbt_B1_day4,2022.2.4,MacIntel,55.55555556,55879,,,,,,down,0,0.286,,0.336956522,-0.12173913,1,0,0,0,28,28,98,1,kreeft,images/br_kreeft.png,images/cb_kreeft.png,0,,,,,,,,,,,,,,,,,,,,,,
,,,,,,2023-09-27_13h08.36.792,vbt_B1_day4,2022.2.4,MacIntel,55.55555556,55879,,,,,,down,0,0.634,,0.336956522,-0.12173913,1,0,0,0,29,29,76,1,afval,images/br_afval.png,images/cb_afval.png,0,,,,,,,,,,,,,,,,,,,,,,
,,,,,,2023-09-27_13h08.36.792,vbt_B1_day4,2022.2.4,MacIntel,55.55555556,55879,,,,,,down,0,1.425,,0.336956522,-0.12173913,1,0,0,0,30,30,18,1,blik,images/br_blik.png,images/cb_blik.png,0,,,,,,,,,,,,,,,,,,,,,,
,,,,,,2023-09-27_13h08.36.792,vbt_B1_day4,2022.2.4,MacIntel,55.55555556,55879,,,,,,down,0,0.467,,0.336956522,-0.12173913,1,0,0,0,31,31,84,1,lokken,images/br_lokken.png,images/cb_lokken.png,0,,,,,,,,,,,,,,,,,,,,,,
,,,,,,2023-09-27_13h08.36.792,vbt_B1_day4,2022.2.4,MacIntel,55.55555556,55879,,,,,,down,0,0.669,,0.336956522,-0.12173913,1,0,0,0,32,32,97,1,loyaal,images/br_loyaal.png,images/cb_loyaal.png,0,,,,,,,,,,,,,,,,,,,,,,
,,,,,,2023-09-27_13h08.36.792,vbt_B1_day4,2022.2.4,MacIntel,55.55555556,55879,,,,,,down,0,0.22,,0.336956522,-0.12173913,1,0,0,0,33,33,28,1,stal,images/br_stal.png,images/cb_stal.png,0,,,,,,,,,,,,,,,,,,,,,,
,,,,,,2023-09-27_13h08.36.792,vbt_B1_day4,2022.2.4,MacIntel,55.55555556,55879,,,,,,down,0,1.934,,0.336956522,-0.12173913,1,0,0,0,34,34,198,1,bedoelen,images/br_bedoelen.png,images/cb_bedoelen.png,0,,,,,,,,,,,,,,,,,,,,,,
,,,,,,2023-09-27_13h08.36.792,vbt_B1_day4,2022.2.4,MacIntel,55.55555556,55879,,,,,,down,0,2.617,,0.336956522,-0.12173913,1,0,0,0,35,35,11,1,mode,images/br_mode.png,images/cb_mode.png,0,,,,,,,,,,,,,,,,,,,,,,
,,,,,,2023-09-27_13h08.36.792,vbt_B1_day4,2022.2.4,MacIntel,55.55555556,55879,,,,,,down,0,0.017,,0.336956522,-0.12173913,1,0,0,0,36,36,152,1,afnemen,images/br_afnemen.png,images/cb_afnemen.png,0,,,,,,,,,,,,,,,,,,,,,,
,,,,,,2023-09-27_13h08.36.792,vbt_B1_day4,2022.2.4,MacIntel,55.55555556,55879,,,,,,down,0,2.401,,0.336956522,-0.12173913,1,0,0,0,37,37,163,1,schuilen,images/br_schuilen.png,images/cb_schuilen.png,0,,,,,,,,,,,,,,,,,,,,,,
,,,,,,2023-09-27_13h08.36.792,vbt_B1_day4,2022.2.4,MacIntel,55.55555556,55879,,,,,,down,0,1.622,,0.336956522,-0.12173913,1,0,0,0,38,38,44,1,flits,images/br_flits.png,images/cb_flits.png,0,,,,,,,,,,,,,,,,,,,,,,
,,,,,,2023-09-27_13h08.36.792,vbt_B1_day4,2022.2.4,MacIntel,55.55555556,55879,,,,,,down,0,2.967,,0.336956522,-0.12173913,1,0,0,0,39,39,176,1,techniek,images/br_techniek.png,images/cb_techniek.png,0,,,,,,,,,,,,,,,,,,,,,,
,,,,,,2023-09-27_13h08.36.792,vbt_B1_day4,2022.2.4,MacIntel,55.55555556,55879,,,,,,down,0,0.383,,0.336956522,-0.12173913,1,0,0,0,40,40,114,1,vullen,images/br_vullen.png,images/cb_vullen.png,0,,,,,,,,,,,,,,,,,,,,,,
,,,,,,2023-09-27_13h08.36.792,vbt_B1_day4,2022.2.4,MacIntel,55.55555556,55879,,,,,,down,0,5.203,,0.336956522,-0.12173913,1,0,0,0,41,41,14,1,rijp,images/br_rijp.png,images/cb_rijp.png,0,,,,,,,,,,,,,,,,,,,,,,
,,,,,,2023-09-27_13h08.36.792,vbt_B1_day4,2022.2.4,MacIntel,55.55555556,55879,,,,,,down,0,1.954,,0.37173913,-0.104347826,1,0,0,0,42,42,187,1,opkijken,images/br_opkijken.png,images/cb_opkijken.png,1,opkijken,,,,,,,,,,,,,,,,,,,,,
,,,,,,2023-09-27_13h08.36.792,vbt_B1_day4,2022.2.4,MacIntel,55.55555556,55879,,,,,,down,0,0.739,,0.37173913,-0.104347826,1,0,0,0,43,43,118,1,vinger,images/br_vinger.png,images/cb_vinger.png,0,,,,,,,,,,,,,,,,,,,,,,
,,,,,,2023-09-27_13h08.36.792,vbt_B1_day4,2022.2.4,MacIntel,55.55555556,55879,,,,,,down,0,2.884,,0.37173913,-0.104347826,1,0,0,0,44,44,137,1,trekker,images/br_trekker.png,images/cb_trekker.png,0,,,,,,,,,,,,,,,,,,,,,,
,,,,,,2023-09-27_13h08.36.792,vbt_B1_day4,2022.2.4,MacIntel,55.55555556,55879,,,,,,down,0,0.704,,0.37173913,-0.104347826,1,0,0,0,45,45,7,1,geld,images/br_geld.png,images/cb_geld.png,0,,,,,,,,,,,,,,,,,,,,,,
,,,,,,2023-09-27_13h08.36.792,vbt_B1_day4,2022.2.4,MacIntel,55.55555556,55879,,,,,,down,0,0.336,,0.37173913,-0.104347826,1,0,0,0,46,46,62,1,knaap,images/br_knaap.png,images/cb_knaap.png,0,,,,,,,,,,,,,,,,,,,,,,
,,,,,,2023-09-27_13h08.36.792,vbt_B1_day4,2022.2.4,MacIntel,55.55555556,55879,,,,,,down,0,1.784,,0.37173913,-0.104347826,1,0,0,0,47,47,181,1,toegeven,images/br_toegeven.png,images/cb_toegeven.png,0,,,,,,,,,,,,,,,,,,,,,,
,,,,,,2023-09-27_13h08.36.792,vbt_B1_day4,2022.2.4,MacIntel,55.55555556,55879,,,,,,down,0,0.401,,0.37173913,-0.104347826,1,0,0,0,48,48,96,1,slagen,images/br_slagen.png,images/cb_slagen.png,0,,,,,,,,,,,,,,,,,,,,,,
,,,,,,2023-09-27_13h08.36.792,vbt_B1_day4,2022.2.4,MacIntel,55.55555556,55879,,,,,,down,0,10.517,,0.37173913,-0.104347826,1,0,0,0,49,49,85,1,heilig,images/br_heilig.png,images/cb_heilig.png,0,,,,,,,,,,,,,,,,,,,,,,
,,,,,,2023-09-27_13h08.36.792,vbt_B1_day4,2022.2.4,MacIntel,55.55555556,55879,,,,,,down,0,8.068,,0.37173913,-0.104347826,1,0,0,0,50,50,184,1,aandelen,images/br_aandelen.png,images/cb_aandelen.png,1,aandelen,,,,,,,,,,,,,,,,,,,,,
,,,,,,2023-09-27_13h08.36.792,vbt_B1_day4,2022.2.4,MacIntel,55.55555556,55879,,,,,,down,0,10.69,,0.37173913,-0.104347826,1,0,0,0,51,51,145,1,invloed,images/br_invloed.png,images/cb_invloed.png,1,invloed,,,,,,,,,,,,,,,,,,,,,
,,,,,,2023-09-27_13h08.36.792,vbt_B1_day4,2022.2.4,MacIntel,55.55555556,55879,,,,,,down,0,2.743,,0.37173913,-0.104347826,1,0,0,0,52,52,125,1,aanzien,images/br_aanzien.png,images/cb_aanzien.png,0,,,,,,,,,,,,,,,,,,,,,,
,,,,,,2023-09-27_13h08.36.792,vbt_B1_day4,2022.2.4,MacIntel,55.55555556,55879,,,,,,down,0,0.501,,0.37173913,-0.10326087,1,0,0,0,53,53,56,1,traag,images/br_traag.png,images/cb_traag.png,0,,,,,,,,,,,,,,,,,,,,,,
,,,,,,2023-09-27_13h08.36.792,vbt_B1_day4,2022.2.4,MacIntel,55.55555556,55879,,,,,,down,0,2.703,,0.37173913,-0.10326087,1,0,0,0,54,54,86,1,woning,images/br_woning.png,images/cb_woning.png,0,,,,,,,,,,,,,,,,,,,,,,
,,,,,,2023-09-27_13h08.36.792,vbt_B1_day4,2022.2.4,MacIntel,55.55555556,55879,,,,,,down,0,26.3,,0.37173913,-0.10326087,1,0,0,0,55,55,102,1,legaal,images/br_legaal.png,images/cb_legaal.png,0,,,,,,,,,,,,,,,,,,,,,,
,,,,,,2023-09-27_13h08.36.792,vbt_B1_day4,2022.2.4,MacIntel,55.55555556,55879,,,,,,down,0,2.617,,0.37173913,-0.10326087,1,0,0,0,56,56,193,1,weeshuis,images/br_weeshuis.png,images/cb_weeshuis.png,0,,,,,,,,,,,,,,,,,,,,,,
,,,,,,2023-09-27_13h08.36.792,vbt_B1_day4,2022.2.4,MacIntel,55.55555556,55879,,,,,,down,0,0.725,,0.37173913,-0.10326087,1,0,0,0,57,57,57,1,steek,images/br_steek.png,images/cb_steek.png,0,,,,,,,,,,,,,,,,,,,,,,
,,,,,,2023-09-27_13h08.36.792,vbt_B1_day4,2022.2.4,MacIntel,55.55555556,55879,,,,,,down,0,1.917,,0.37173913,-0.10326087,1,0,0,0,58,58,153,1,vervoer,images/br_vervoer.png,images/cb_vervoer.png,0,,,,,,,,,,,,,,,,,,,,,,
,,,,,,2023-09-27_13h08.36.792,vbt_B1_day4,2022.2.4,MacIntel,55.55555556,55879,,,,,,down,0,0.576,,0.37173913,-0.10326087,1,0,0,0,59,59,95,1,vreten,images/br_vreten.png,images/cb_vreten.png,0,,,,,,,,,,,,,,,,,,,,,,
,,,,,,2023-09-27_13h08.36.792,vbt_B1_day4,2022.2.4,MacIntel,55.55555556,55879,,,,,,down,0,0.3,,0.37173913,-0.102173913,1,0,0,0,60,60,52,1,wagon,images/br_wagon.png,images/cb_wagon.png,0,,,,,,,,,,,,,,,,,,,,,,
,,,,,,2023-09-27_13h08.36.792,vbt_B1_day4,2022.2.4,MacIntel,55.55555556,55879,,,,,,down,0,0.82,,0.37173913,-0.101086957,1,0,0,0,61,61,120,1,klimmen,images/br_klimmen.png,images/cb_klimmen.png,0,,,,,,,,,,,,,,,,,,,,,,
,,,,,,2023-09-27_13h08.36.792,vbt_B1_day4,2022.2.4,MacIntel,55.55555556,55879,,,,,,down,0,1.533,,0.37173913,-0.101086957,1,0,0,0,62,62,130,1,keihard,images/br_keihard.png,images/cb_keihard.png,0,,,,,,,,,,,,,,,,,,,,,,
,,,,,,2023-09-27_13h08.36.792,vbt_B1_day4,2022.2.4,MacIntel,55.55555556,55879,,,,,,down,0,1.023,,0.37173913,-0.101086957,1,0,0,0,63,63,59,1,kring,images/br_kring.png,images/cb_kring.png,0,,,,,,,,,,,,,,,,,,,,,,
,,,,,,2023-09-27_13h08.36.792,vbt_B1_day4,2022.2.4,MacIntel,55.55555556,55879,,,,,,down,0,0.722,,0.37173913,-0.1,1,0,0,0,64,64,188,1,strekken,images/br_strekken.png,images/cb_strekken.png,0,,,,,,,,,,,,,,,,,,,,,,
,,,,,,2023-09-27_13h08.36.792,vbt_B1_day4,2022.2.4,MacIntel,55.55555556,55879,,,,,,down,0,1.334,,0.37173913,-0.1,1,0,0,0,65,65,22,1,stof,images/br_stof.png,images/cb_stof.png,0,,,,,,,,,,,,,,,,,,,,,,
,,,,,,2023-09-27_13h08.36.792,vbt_B1_day4,2022.2.4,MacIntel,55.55555556,55879,,,,,,down,0,0.4,,0.372826087,-0.098913043,1,0,0,0,66,66,42,1,bleek,images/br_bleek.png,images/cb_bleek.png,0,,,,,,,,,,,,,,,,,,,,,,
,,,,,,2023-09-27_13h08.36.792,vbt_B1_day4,2022.2.4,MacIntel,55.55555556,55879,,,,,,down,0,0.167,,0.372826087,-0.098913043,1,0,0,0,67,67,55,1,praat,images/br_praat.png,images/cb_praat.png,0,,,,,,,,,,,,,,,,,,,,,,
,,,,,,2023-09-27_13h08.36.792,vbt_B1_day4,2022.2.4,MacIntel,55.55555556,55879,,,,,,down,0,0.084,,0.372826087,-0.097826087,1,0,0,0,68,68,16,1,ziek,images/br_ziek.png,images/cb_ziek.png,0,,,,,,,,,,,,,,,,,,,,,,
,,,,,,2023-09-27_13h08.36.792,vbt_B1_day4,2022.2.4,MacIntel,55.55555556,55879,,,,,,down,0,1.123,,0.372826087,-0.097826087,1,0,0,0,69,69,99,1,koffie,images/br_koffie.png,images/cb_koffie.png,0,,,,,,,,,,,,,,,,,,,,,,
,,,,,,2023-09-27_13h08.36.792,vbt_B1_day4,2022.2.4,MacIntel,55.55555556,55879,,,,,,down,0,1.933,,0.372826087,-0.09673913,1,0,0,0,70,70,182,1,bijkomen,images/br_bijkomen.png,images/cb_bijkomen.png,0,,,,,,,,,,,,,,,,,,,,,,
,,,,,,2023-09-27_13h08.36.792,vbt_B1_day4,2022.2.4,MacIntel,55.55555556,55879,,,,,,down,0,0.4,,0.373913043,-0.09673913,1,0,0,0,71,71,68,1,schat,images/br_schat.png,images/cb_schat.png,0,,,,,,,,,,,,,,,,,,,,,,
,,,,,,2023-09-27_13h08.36.792,vbt_B1_day4,2022.2.4,MacIntel,55.55555556,55879,,,,,,down,0,6.3,,0.373913043,-0.09673913,1,0,0,0,72,72,131,1,opzicht,images/br_opzicht.png,images/cb_opzicht.png,0,,,,,,,,,,,,,,,,,,,,,,
,,,,,,2023-09-27_13h08.36.792,vbt_B1_day4,2022.2.4,MacIntel,55.55555556,55879,,,,,,down,0,0.317,,0.373913043,-0.09673913,1,0,0,0,73,73,197,1,spanning,images/br_spanning.png,images/cb_spanning.png,0,,,,,,,,,,,,,,,,,,,,,,
,,,,,,2023-09-27_13h08.36.792,vbt_B1_day4,2022.2.4,MacIntel,55.55555556,55879,,,,,,down,0,2.81,,0.373913043,-0.095652174,1,0,0,0,74,74,60,1,jasje,images/br_jasje.png,images/cb_jasje.png,0,,,,,,,,,,,,,,,,,,,,,,
,,,,,,2023-09-27_13h08.36.792,vbt_B1_day4,2022.2.4,MacIntel,55.55555556,55879,,,,,,down,0,0.259,,0.373913043,-0.095652174,1,0,0,0,75,75,109,1,totaal,images/br_totaal.png,images/cb_totaal.png,0,,,,,,,,,,,,,,,,,,,,,,
,,,,,,2023-09-27_13h08.36.792,vbt_B1_day4,2022.2.4,MacIntel,55.55555556,55879,,,,,,down,0,0.6,,0.373913043,-0.095652174,1,0,0,0,76,76,6,1,diep,images/br_diep.png,images/cb_diep.png,0,,,,,,,,,,,,,,,,,,,,,,
,,,,,,2023-09-27_13h08.36.792,vbt_B1_day4,2022.2.4,MacIntel,55.55555556,55879,,,,,,down,0,1.034,,0.373913043,-0.095652174,1,0,0,0,77,77,121,1,twijfel,images/br_twijfel.png,images/cb_twijfel.png,0,,,,,,,,,,,,,,,,,,,,,,
,,,,,,2023-09-27_13h08.36.792,vbt_B1_day4,2022.2.4,MacIntel,55.55555556,55879,,,,,,down,0,0.544,,0.373913043,-0.095652174,1,0,0,0,78,78,126,1,kasteel,images/br_kasteel.png,images/cb_kasteel.png,0,,,,,,,,,,,,,,,,,,,,,,
,,,,,,2023-09-27_13h08.36.792,vbt_B1_day4,2022.2.4,MacIntel,55.55555556,55879,,,,,,down,0,15.367,,0.373913043,-0.095652174,1,0,0,0,79,79,154,1,aflopen,images/br_aflopen.png,images/cb_aflopen.png,0,,,,,,,,,,,,,,,,,,,,,,
,,,,,,2023-09-27_13h08.36.792,vbt_B1_day4,2022.2.4,MacIntel,55.55555556,55879,,,,,,down,0,5.871,,0.373913043,-0.095652174,1,0,0,0,80,80,36,1,vuur,images/br_vuur.png,images/cb_vuur.png,0,,,,,,,,,,,,,,,,,,,,,,
,,,,,,2023-09-27_13h08.36.792,vbt_B1_day4,2022.2.4,MacIntel,55.55555556,55879,,,,,,down,0,0.385,,0.373913043,-0.095652174,1,0,0,0,81,81,34,1,vorm,images/br_vorm.png,images/cb_vorm.png,0,,,,,,,,,,,,,,,,,,,,,,
,,,,,,2023-09-27_13h08.36.792,vbt_B1_day4,2022.2.4,MacIntel,55.55555556,55879,,,,,,down,0,0.319,,0.373913043,-0.095652174,1,0,0,0,82,82,50,1,stoom,images/br_stoom.png,images/cb_stoom.png,0,,,,,,,,,,,,,,,,,,,,,,
,,,,,,2023-09-27_13h08.36.792,vbt_B1_day4,2022.2.4,MacIntel,55.55555556,55879,,,,,,down,0,0.607,,0.373913043,-0.095652174,1,0,0,0,83,83,30,1,uien,images/br_uien.png,images/cb_uien.png,0,,,,,,,,,,,,,,,,,,,,,,
,,,,,,2023-09-27_13h08.36.792,vbt_B1_day4,2022.2.4,MacIntel,55.55555556,55879,,,,,,down,0,0.857,,0.373913043,-0.095652174,1,0,0,0,84,84,80,1,kanjer,images/br_kanjer.png,images/cb_kanjer.png,0,,,,,,,,,,,,,,,,,,,,,,
,,,,,,2023-09-27_13h08.36.792,vbt_B1_day4,2022.2.4,MacIntel,55.55555556,55879,,,,,,down,0,0.208,,0.373913043,-0.095652174,1,0,0,0,85,85,61,1,groen,images/br_groen.png,images/cb_groen.png,0,,,,,,,,,,,,,,,,,,,,,,
,,,,,,2023-09-27_13h08.36.792,vbt_B1_day4,2022.2.4,MacIntel,55.55555556,55879,,,,,,down,0,1.719,,0.373913043,-0.095652174,1,0,0,0,86,86,160,1,daarheen,images/br_daarheen.png,images/cb_daarheen.png,0,,,,,,,,,,,,,,,,,,,,,,
,,,,,,2023-09-27_13h08.36.792,vbt_B1_day4,2022.2.4,MacIntel,55.55555556,55879,,,,,,down,0,0.685,,0.373913043,-0.095652174,1,0,0,0,87,87,75,1,snoep,images/br_snoep.png,images/cb_snoep.png,0,,,,,,,,,,,,,,,,,,,,,,
,,,,,,2023-09-27_13h08.36.792,vbt_B1_day4,2022.2.4,MacIntel,55.55555556,55879,,,,,,down,0,1.906,,0.373913043,-0.095652174,1,0,0,0,88,88,104,1,zweven,images/br_zweven.png,images/cb_zweven.png,1,zweven,,,,,,,,,,,,,,,,,,,,,
,,,,,,2023-09-27_13h08.36.792,vbt_B1_day4,2022.2.4,MacIntel,55.55555556,55879,,,,,,down,0,0.537,,0.373913043,-0.095652174,1,0,0,0,89,89,183,1,getuigen,images/br_getuigen.png,images/cb_getuigen.png,0,,,,,,,,,,,,,,,,,,,,,,
,,,,,,2023-09-27_13h08.36.792,vbt_B1_day4,2022.2.4,MacIntel,55.55555556,55879,,,,,,down,0,0.484,,0.373913043,-0.094565217,1,0,0,0,90,90,122,1,waarvan,images/br_waarvan.png,images/cb_waarvan.png,0,,,,,,,,,,,,,,,,,,,,,,
,,,,,,2023-09-27_13h08.36.792,vbt_B1_day4,2022.2.4,MacIntel,55.55555556,55879,,,,,,down,0,0.634,,0.373913043,-0.094565217,1,0,0,0,91,91,20,1,site,images/br_site.png,images/cb_site.png,0,,,,,,,,,,,,,,,,,,,,,,
,,,,,,2023-09-27_13h08.36.792,vbt_B1_day4,2022.2.4,MacIntel,55.55555556,55879,,,,,,down,0,0.067,,0.373913043,-0.094565217,1,0,0,0,92,92,106,1,zingen,images/br_zingen.png,images/cb_zingen.png,1,zingen,,,,,,,,,,,,,,,,,,,,,
,,,,,,2023-09-27_13h08.36.792,vbt_B1_day4,2022.2.4,MacIntel,55.55555556,55879,,,,,,down,0,1.567,,0.373913043,-0.094565217,1,0,0,0,93,93,199,1,beseffen,images/br_beseffen.png,images/cb_beseffen.png,0,,,,,,,,,,,,,,,,,,,,,,
,,,,,,2023-09-27_13h08.36.792,vbt_B1_day4,2022.2.4,MacIntel,55.55555556,55879,,,,,,down,0,0.417,,0.373913043,-0.094565217,1,0,0,0,94,94,12,1,kust,images/br_kust.png,images/cb_kust.png,0,,,,,,,,,,,,,,,,,,,,,,
,,,,,,2023-09-27_13h08.36.792,vbt_B1_day4,2022.2.4,MacIntel,55.55555556,55879,,,,,,down,0,1.486,,0.373913043,-0.094565217,1,0,0,0,95,95,29,1,baas,images/br_baas.png,images/cb_baas.png,0,,,,,,,,,,,,,,,,,,,,,,
,,,,,,2023-09-27_13h08.36.792,vbt_B1_day4,2022.2.4,MacIntel,55.55555556,55879,,,,,,down,0,0.01,,0.373913043,-0.094565217,1,0,0,0,96,96,90,1,geluid,images/br_geluid.png,images/cb_geluid.png,0,,,,,,,,,,,,,,,,,,,,,,
,,,,,,2023-09-27_13h08.36.792,vbt_B1_day4,2022.2.4,MacIntel,55.55555556,55879,,,,,,down,0,3.757,,0.373913043,-0.094565217,1,0,0,0,97,97,162,1,uitdelen,images/br_uitdelen.png,images/cb_uitdelen.png,0,,,,,,,,,,,,,,,,,,,,,,
,,,,,,2023-09-27_13h08.36.792,vbt_B1_day4,2022.2.4,MacIntel,55.55555556,55879,,,,,,down,0,0.7,,0.373913043,-0.093478261,1,0,0,0,98,98,117,1,kennis,images/br_kennis.png,images/cb_kennis.png,0,,,,,,,,,,,,,,,,,,,,,,
,,,,,,2023-09-27_13h08.36.792,vbt_B1_day4,2022.2.4,MacIntel,55.55555556,55879,,,,,,down,0,0.267,,0.375,-0.093478261,1,0,0,0,99,99,73,1,volop,images/br_volop.png,images/cb_volop.png,0,,,,,,,,,,,,,,,,,,,,,,
,,,,,,2023-09-27_13h08.36.792,vbt_B1_day4,2022.2.4,MacIntel,55.55555556,55879,,,,,,down,0,1.051,,0.375,-0.093478261,1,0,0,0,100,100,141,1,knielen,images/br_knielen.png,images/cb_knielen.png,0,,,,,,,,,,,,,,,,,,,,,,
,,,,,,2023-09-27_13h08.36.792,vbt_B1_day4,2022.2.4,MacIntel,55.55555556,55879,,,,,,down,0,1.4,,0.375,-0.093478261,1,0,0,0,101,101,192,1,schaamte,images/br_schaamte.png,images/cb_schaamte.png,0,,,,,,,,,,,,,,,,,,,,,,
,,,,,,2023-09-27_13h08.36.792,vbt_B1_day4,2022.2.4,MacIntel,55.55555556,55879,,,,,,down,0,2.187,,0.375,-0.093478261,1,0,0,0,102,102,165,1,feestdag,images/br_feestdag.png,images/cb_feestdag.png,0,,,,,,,,,,,,,,,,,,,,,,
,,,,,,2023-09-27_13h08.36.792,vbt_B1_day4,2022.2.4,MacIntel,55.55555556,55879,,,,,,down,0,0.484,,0.375,-0.092391304,1,0,0,0,103,103,35,1,lust,images/br_lust.png,images/cb_lust.png,0,,,,,,,,,,,,,,,,,,,,,,
,,,,,,2023-09-27_13h08.36.792,vbt_B1_day4,2022.2.4,MacIntel,55.55555556,55879,,,,,,down,0,0.375,,0.375,-0.092391304,1,0,0,0,104,104,167,1,eenhoorn,images/br_eenhoorn.png,images/cb_eenhoorn.png,0,,,,,,,,,,,,,,,,,,,,,,
,,,,,,2023-09-27_13h08.36.792,vbt_B1_day4,2022.2.4,MacIntel,55.55555556,55879,,,,,,down,0,0.534,,0.375,-0.092391304,1,0,0,0,105,105,72,1,strak,images/br_strak.png,images/cb_strak.png,0,,,,,,,,,,,,,,,,,,,,,,
,,,,,,2023-09-27_13h08.36.792,vbt_B1_day4,2022.2.4,MacIntel,55.55555556,55879,,,,,,down,0,0.173,,0.375,-0.092391304,1,0,0,0,106,106,123,1,hiervan,images/br_hiervan.png,images/cb_hiervan.png,0,,,,,,,,,,,,,,,,,,,,,,
,,,,,,2023-09-27_13h08.36.792,vbt_B1_day4,2022.2.4,MacIntel,55.55555556,55879,,,,,,down,0,0.007,,0.375,-0.092391304,1,0,0,0,107,107,100,1,geduld,images/br_geduld.png,images/cb_geduld.png,0,,,,,,,,,,,,,,,,,,,,,,
,,,,,,2023-09-27_13h08.36.792,vbt_B1_day4,2022.2.4,MacIntel,55.55555556,55879,,,,,,down,0,0.787,,0.375,-0.092391304,1,0,0,0,108,108,46,1,jagen,images/br_jagen.png,images/cb_jagen.png,0,,,,,,,,,,,,,,,,,,,,,,
,,,,,,2023-09-27_13h08.36.792,vbt_B1_day4,2022.2.4,MacIntel,55.55555556,55879,,,,,,down,0,0.021,,0.375,-0.092391304,1,0,0,0,109,109,128,1,prikken,images/br_prikken.png,images/cb_prikken.png,0,,,,,,,,,,,,,,,,,,,,,,
,,,,,,2023-09-27_13h08.36.792,vbt_B1_day4,2022.2.4,MacIntel,55.55555556,55879,,,,,,down,0,0.287,,0.375,-0.092391304,1,0,0,0,110,110,17,1,taal,images/br_taal.png,images/cb_taal.png,0,,,,,,,,,,,,,,,,,,,,,,
,,,,,,2023-09-27_13h08.36.792,vbt_B1_day4,2022.2.4,MacIntel,55.55555556,55879,,,,,,down,0,0.74,,0.375,-0.092391304,1,0,0,0,111,111,150,1,gegeven,images/br_gegeven.png,images/cb_gegeven.png,0,,,,,,,,,,,,,,,,,,,,,,
,,,,,,2023-09-27_13h08.36.792,vbt_B1_day4,2022.2.4,MacIntel,55.55555556,55879,,,,,,down,0,0.517,,0.375,-0.092391304,1,0,0,0,112,112,115,1,kleren,images/br_kleren.png,images/cb_kleren.png,0,,,,,,,,,,,,,,,,,,,,,,
,,,,,,2023-09-27_13h08.36.792,vbt_B1_day4,2022.2.4,MacIntel,55.55555556,55879,,,,,,down,0,6.557,,0.375,-0.092391304,1,0,0,0,113,113,159,1,sufferd,images/br_sufferd.png,images/cb_sufferd.png,0,,,,,,,,,,,,,,,,,,,,,,
,,,,,,2023-09-27_13h08.36.792,vbt_B1_day4,2022.2.4,MacIntel,55.55555556,55879,,,,,,down,0,0.201,,0.375,-0.092391304,1,0,0,0,114,114,65,1,parel,images/br_parel.png,images/cb_parel.png,1,parel,,,,,,,,,,,,,,,,,,,,,
,,,,,,2023-09-27_13h08.36.792,vbt_B1_day4,2022.2.4,MacIntel,55.55555556,55879,,,,,,down,0,7.384,,0.375,-0.092391304,1,0,0,0,115,115,147,1,komisch,images/br_komisch.png,images/cb_komisch.png,1,komisch,,,,,,,,,,,,,,,,,,,,,
,,,,,,2023-09-27_13h08.36.792,vbt_B1_day4,2022.2.4,MacIntel,55.55555556,55879,,,,,,down,0,0.993,,0.375,-0.093478261,1,0,0,0,116,116,64,1,wegen,images/br_wegen.png,images/cb_wegen.png,1,wegen,,,,,,,,,,,,,,,,,,,,,
,,,,,,2023-09-27_13h08.36.792,vbt_B1_day4,2022.2.4,MacIntel,55.55555556,55879,,,,,,down,0,0.637,,0.375,-0.093478261,1,0,0,0,117,117,58,1,tekst,images/br_tekst.png,images/cb_tekst.png,0,,,,,,,,,,,,,,,,,,,,,,
,,,,,,2023-09-27_13h08.36.792,vbt_B1_day4,2022.2.4,MacIntel,55.55555556,55879,,,,,,down,0,5.043,,0.375,-0.093478261,1,0,0,0,118,118,19,1,geit,images/br_geit.png,images/cb_geit.png,0,,,,,,,,,,,,,,,,,,,,,,
,,,,,,2023-09-27_13h08.36.792,vbt_B1_day4,2022.2.4,MacIntel,55.55555556,55879,,,,,,down,0,0.451,,0.375,-0.093478261,1,0,0,0,119,119,139,1,stiekem,images/br_stiekem.png,images/cb_stiekem.png,0,,,,,,,,,,,,,,,,,,,,,,
,,,,,,2023-09-27_13h08.36.792,vbt_B1_day4,2022.2.4,MacIntel,55.55555556,55879,,,,,,down,0,0.702,,0.375,-0.093478261,1,0,0,0,120,120,39,1,laag,images/br_laag.png,images/cb_laag.png,0,,,,,,,,,,,,,,,,,,,,,,
,,,,,,2023-09-27_13h08.36.792,vbt_B1_day4,2022.2.4,MacIntel,55.55555556,55879,,,,,,down,0,0.55,,0.375,-0.093478261,1,0,0,0,121,121,5,1,blad,images/br_blad.png,images/cb_blad.png,0,,,,,,,,,,,,,,,,,,,,,,
,,,,,,2023-09-27_13h08.36.792,vbt_B1_day4,2022.2.4,MacIntel,55.55555556,55879,,,,,,down,0,2.417,,0.375,-0.093478261,1,0,0,0,122,122,156,1,rechten,images/br_rechten.png,images/cb_rechten.png,0,,,,,,,,,,,,,,,,,,,,,,
,,,,,,2023-09-27_13h08.36.792,vbt_B1_day4,2022.2.4,MacIntel,55.55555556,55879,,,,,,down,0,0.42,,0.375,-0.093478261,1,0,0,0,123,123,148,1,smullen,images/br_smullen.png,images/cb_smullen.png,0,,,,,,,,,,,,,,,,,,,,,,
,,,,,,2023-09-27_13h08.36.792,vbt_B1_day4,2022.2.4,MacIntel,55.55555556,55879,,,,,,down,0,0.183,,0.375,-0.093478261,1,0,0,0,124,124,10,1,leek,images/br_leek.png,images/cb_leek.png,0,,,,,,,,,,,,,,,,,,,,,,
,,,,,,2023-09-27_13h08.36.792,vbt_B1_day4,2022.2.4,MacIntel,55.55555556,55879,,,,,,down,0,0.934,,0.375,-0.093478261,1,0,0,0,125,125,124,1,bloeien,images/br_bloeien.png,images/cb_bloeien.png,0,,,,,,,,,,,,,,,,,,,,,,
,,,,,,2023-09-27_13h08.36.792,vbt_B1_day4,2022.2.4,MacIntel,55.55555556,55879,,,,,,down,0,0.205,,0.375,-0.093478261,1,0,0,0,126,126,136,1,waarbij,images/br_waarbij.png,images/cb_waarbij.png,0,,,,,,,,,,,,,,,,,,,,,,
,,,,,,2023-09-27_13h08.36.792,vbt_B1_day4,2022.2.4,MacIntel,55.55555556,55879,,,,,,down,0,0.338,,0.375,-0.093478261,1,0,0,0,127,127,135,1,gedicht,images/br_gedicht.png,images/cb_gedicht.png,0,,,,,,,,,,,,,,,,,,,,,,
,,,,,,2023-09-27_13h08.36.792,vbt_B1_day4,2022.2.4,MacIntel,55.55555556,55879,,,,,,down,0,0.041,,0.375,-0.093478261,1,0,0,0,128,128,168,1,bisschop,images/br_bisschop.png,images/cb_bisschop.png,0,,,,,,,,,,,,,,,,,,,,,,
,,,,,,2023-09-27_13h08.36.792,vbt_B1_day4,2022.2.4,MacIntel,55.55555556,55879,,,,,,down,0,0.602,,0.375,-0.093478261,1,0,0,0,129,129,166,1,strikken,images/br_strikken.png,images/cb_strikken.png,0,,,,,,,,,,,,,,,,,,,,,,
,,,,,,2023-09-27_13h08.36.792,vbt_B1_day4,2022.2.4,MacIntel,55.55555556,55879,,,,,,down,0,0.67,,0.375,-0.093478261,1,0,0,0,130,130,105,1,wijlen,images/br_wijlen.png,images/cb_wijlen.png,1,wijlen,,,,,,,,,,,,,,,,,,,,,
,,,,,,2023-09-27_13h08.36.792,vbt_B1_day4,2022.2.4,MacIntel,55.55555556,55879,,,,,,down,0,0.977,,0.375,-0.093478261,1,0,0,0,131,131,178,1,huisdier,images/br_huisdier.png,images/cb_huisdier.png,0,,,,,,,,,,,,,,,,,,,,,,
,,,,,,2023-09-27_13h08.36.792,vbt_B1_day4,2022.2.4,MacIntel,55.55555556,55879,,,,,,down,0,0.051,,0.375,-0.093478261,1,0,0,0,132,132,180,1,openbaar,images/br_openbaar.png,images/cb_openbaar.png,0,,,,,,,,,,,,,,,,,,,,,,
,,,,,,2023-09-27_13h08.36.792,vbt_B1_day4,2022.2.4,MacIntel,55.55555556,55879,,,,,,down,0,0.35,,0.375,-0.093478261,1,0,0,0,133,133,71,1,bever,images/br_bever.png,images/cb_bever.png,0,,,,,,,,,,,,,,,,,,,,,,
,,,,,,2023-09-27_13h08.36.792,vbt_B1_day4,2022.2.4,MacIntel,55.55555556,55879,,,,,,down,0,0.111,,0.375,-0.093478261,1,0,0,0,134,134,89,1,slapen,images/br_slapen.png,images/cb_slapen.png,0,,,,,,,,,,,,,,,,,,,,,,
,,,,,,2023-09-27_13h08.36.792,vbt_B1_day4,2022.2.4,MacIntel,55.55555556,55879,,,,,,down,0,0.627,,0.375,-0.093478261,1,0,0,0,135,135,149,1,redding,images/br_redding.png,images/cb_redding.png,0,,,,,,,,,,,,,,,,,,,,,,
,,,,,,2023-09-27_13h08.36.792,vbt_B1_day4,2022.2.4,MacIntel,55.55555556,55879,,,,,,down,0,0.851,,0.375,-0.093478261,1,0,0,0,136,136,66,1,lever,images/br_lever.png,images/cb_lever.png,1,lever,,,,,,,,,,,,,,,,,,,,,
,,,,,,2023-09-27_13h08.36.792,vbt_B1_day4,2022.2.4,MacIntel,55.55555556,55879,,,,,,down,0,0.686,,0.375,-0.092391304,1,0,0,0,137,137,69,1,waken,images/br_waken.png,images/cb_waken.png,0,,,,,,,,,,,,,,,,,,,,,,
,,,,,,2023-09-27_13h08.36.792,vbt_B1_day4,2022.2.4,MacIntel,55.55555556,55879,,,,,,down,0,0.417,,0.375,-0.092391304,1,0,0,0,138,138,54,1,gebit,images/br_gebit.png,images/cb_gebit.png,0,,,,,,,,,,,,,,,,,,,,,,
,,,,,,2023-09-27_13h08.36.792,vbt_B1_day4,2022.2.4,MacIntel,55.55555556,55879,,,,,,down,0,0.067,,0.376086957,-0.092391304,1,0,0,0,139,139,129,1,verhaal,images/br_verhaal.png,images/cb_verhaal.png,0,,,,,,,,,,,,,,,,,,,,,,
,,,,,,2023-09-27_13h08.36.792,vbt_B1_day4,2022.2.4,MacIntel,55.55555556,55879,,,,,,down,0,0.125,,0.376086957,-0.092391304,1,0,0,0,140,140,38,1,baai,images/br_baai.png,images/cb_baai.png,0,,,,,,,,,,,,,,,,,,,,,,
,,,,,,2023-09-27_13h08.36.792,vbt_B1_day4,2022.2.4,MacIntel,55.55555556,55879,,,,,,down,0,0.767,,0.376086957,-0.091304348,1,0,0,0,141,141,49,1,laken,images/br_laken.png,images/cb_laken.png,0,,,,,,,,,,,,,,,,,,,,,,
,,,,,,2023-09-27_13h08.36.792,vbt_B1_day4,2022.2.4,MacIntel,55.55555556,55879,,,,,,down,0,3.302,,0.376086957,-0.091304348,1,0,0,0,142,142,186,1,voorraad,images/br_voorraad.png,images/cb_voorraad.png,1,voorraad,,,,,,,,,,,,,,,,,,,,,
,,,,,,2023-09-27_13h08.36.792,vbt_B1_day4,2022.2.4,MacIntel,55.55555556,55879,,,,,,down,0,0.184,,0.376086957,-0.091304348,1,0,0,0,143,143,108,1,excuus,images/br_excuus.png,images/cb_excuus.png,0,,,,,,,,,,,,,,,,,,,,,,
,,,,,,2023-09-27_13h08.36.792,vbt_B1_day4,2022.2.4,MacIntel,55.55555556,55879,,,,,,down,0,0.504,,0.376086957,-0.090217391,1,0,0,0,144,144,170,1,schatten,images/br_schatten.png,images/cb_schatten.png,0,,,,,,,,,,,,,,,,,,,,,,
,,,,,,2023-09-27_13h08.36.792,vbt_B1_day4,2022.2.4,MacIntel,55.55555556,55879,,,,,,down,0,0.275,,0.376086957,-0.090217391,1,0,0,0,145,145,33,1,vlek,images/br_vlek.png,images/cb_vlek.png,0,,,,,,,,,,,,,,,,,,,,,,
,,,,,,2023-09-27_13h08.36.792,vbt_B1_day4,2022.2.4,MacIntel,55.55555556,55879,,,,,,down,0,0.223,,0.376086957,-0.090217391,1,0,0,0,146,146,93,1,waarop,images/br_waarop.png,images/cb_waarop.png,0,,,,,,,,,,,,,,,,,,,,,,
,,,,,,2023-09-27_13h08.36.792,vbt_B1_day4,2022.2.4,MacIntel,55.55555556,55879,,,,,,down,0,0.117,,0.377173913,-0.089130435,1,0,0,0,147,147,9,1,hier,images/br_hier.png,images/cb_hier.png,0,,,,,,,,,,,,,,,,,,,,,,
,,,,,,2023-09-27_13h08.36.792,vbt_B1_day4,2022.2.4,MacIntel,55.55555556,55879,,,,,,down,0,0.161,,0.377173913,-0.089130435,1,0,0,0,148,148,112,1,lukken,images/br_lukken.png,images/cb_lukken.png,0,,,,,,,,,,,,,,,,,,,,,,
,,,,,,2023-09-27_13h08.36.792,vbt_B1_day4,2022.2.4,MacIntel,55.55555556,55879,,,,,,down,0,1.107,,0.377173913,-0.089130435,1,0,0,0,149,149,24,1,jurk,images/br_jurk.png,images/cb_jurk.png,1,jurk,,,,,,,,,,,,,,,,,,,,,
,,,,,,2023-09-27_13h08.36.792,vbt_B1_day4,2022.2.4,MacIntel,55.55555556,55879,,,,,,down,0,1.077,,0.377173913,-0.089130435,1,0,0,0,150,150,138,1,akkoord,images/br_akkoord.png,images/cb_akkoord.png,0,,,,,,,,,,,,,,,,,,,,,,
,,,,,,2023-09-27_13h08.36.792,vbt_B1_day4,2022.2.4,MacIntel,55.55555556,55879,,,,,,down,0,0.355,,0.377173913,-0.088043478,1,0,0,0,151,151,88,1,boeien,images/br_boeien.png,images/cb_boeien.png,0,,,,,,,,,,,,,,,,,,,,,,
,,,,,,2023-09-27_13h08.36.792,vbt_B1_day4,2022.2.4,MacIntel,55.55555556,55879,,,,,,down,0,0.466,,0.377173913,-0.088043478,1,0,0,0,152,152,53,1,baron,images/br_baron.png,images/cb_baron.png,0,,,,,,,,,,,,,,,,,,,,,,
,,,,,,2023-09-27_13h08.36.792,vbt_B1_day4,2022.2.4,MacIntel,55.55555556,55879,,,,,,down,0,0.269,,0.377173913,-0.088043478,1,0,0,0,153,153,133,1,seizoen,images/br_seizoen.png,images/cb_seizoen.png,0,,,,,,,,,,,,,,,,,,,,,,
,,,,,,2023-09-27_13h08.36.792,vbt_B1_day4,2022.2.4,MacIntel,55.55555556,55879,,,,,,down,0,0.066,,0.377173913,-0.088043478,1,0,0,0,154,154,4,1,moes,images/br_moes.png,images/cb_moes.png,0,,,,,,,,,,,,,,,,,,,,,,
,,,,,,2023-09-27_13h08.36.792,vbt_B1_day4,2022.2.4,MacIntel,55.55555556,55879,,,,,,down,0,0.45,,0.377173913,-0.088043478,1,0,0,0,155,155,158,1,innemen,images/br_innemen.png,images/cb_innemen.png,0,,,,,,,,,,,,,,,,,,,,,,
,,,,,,2023-09-27_13h08.36.792,vbt_B1_day4,2022.2.4,MacIntel,55.55555556,55879,,,,,,down,0,0.058,,0.377173913,-0.088043478,1,0,0,0,156,156,26,1,leuk,images/br_leuk.png,images/cb_leuk.png,1,leuk,,,,,,,,,,,,,,,,,,,,,
,,,,,,2023-09-27_13h08.36.792,vbt_B1_day4,2022.2.4,MacIntel,55.55555556,55879,,,,,,down,0,0.553,,0.377173913,-0.088043478,1,0,0,0,157,157,119,1,liefje,images/br_liefje.png,images/cb_liefje.png,0,,,,,,,,,,,,,,,,,,,,,,
,,,,,,2023-09-27_13h08.36.792,vbt_B1_day4,2022.2.4,MacIntel,55.55555556,55879,,,,,,down,0,0.833,,0.377173913,-0.088043478,1,0,0,0,158,158,134,1,geliefd,images/br_geliefd.png,images/cb_geliefd.png,0,,,,,,,,,,,,,,,,,,,,,,
,,,,,,2023-09-27_13h08.36.792,vbt_B1_day4,2022.2.4,MacIntel,55.55555556,55879,,,,,,down,0,2.493,,0.377173913,-0.088043478,1,0,0,0,159,159,83,1,mening,images/br_mening.png,images/cb_mening.png,0,,,,,,,,,,,,,,,,,,,,,,
,,,,,,2023-09-27_13h08.36.792,vbt_B1_day4,2022.2.4,MacIntel,55.55555556,55879,,,,,,down,0,0.377,,0.377173913,-0.086956522,1,0,0,0,160,160,157,1,uitlaat,images/br_uitlaat.png,images/cb_uitlaat.png,0,,,,,,,,,,,,,,,,,,,,,,
,,,,,,2023-09-27_13h08.36.792,vbt_B1_day4,2022.2.4,MacIntel,55.55555556,55879,,,,,,down,0,0.659,,0.377173913,-0.086956522,1,0,0,0,161,161,41,1,maken,images/br_maken.png,images/cb_maken.png,0,,,,,,,,,,,,,,,,,,,,,,
,,,,,,2023-09-27_13h08.36.792,vbt_B1_day4,2022.2.4,MacIntel,55.55555556,55879,,,,,,down,0,0.237,,0.377173913,-0.086956522,1,0,0,0,162,162,51,1,samen,images/br_samen.png,images/cb_samen.png,0,,,,,,,,,,,,,,,,,,,,,,
,,,,,,2023-09-27_13h08.36.792,vbt_B1_day4,2022.2.4,MacIntel,55.55555556,55879,,,,,,down,0,0.97,,0.377173913,-0.086956522,1,0,0,0,163,163,146,1,opkomen,images/br_opkomen.png,images/cb_opkomen.png,1,opkomen,,,,,,,,,,,,,,,,,,,,,
,,,,,,2023-09-27_13h08.36.792,vbt_B1_day4,2022.2.4,MacIntel,55.55555556,55879,,,,,,down,0,0.128,,0.377173913,-0.086956522,1,0,0,0,164,164,31,1,poes,images/br_poes.png,images/cb_poes.png,0,,,,,,,,,,,,,,,,,,,,,,
,,,,,,2023-09-27_13h08.36.792,vbt_B1_day4,2022.2.4,MacIntel,55.55555556,55879,,,,,,down,0,1.15,,0.377173913,-0.085869565,1,0,0,0,165,165,171,1,aarzelen,images/br_aarzelen.png,images/cb_aarzelen.png,0,,,,,,,,,,,,,,,,,,,,,,
,,,,,,2023-09-27_13h08.36.792,vbt_B1_day4,2022.2.4,MacIntel,55.55555556,55879,,,,,,down,0,1.505,,0.377173913,-0.084782609,1,0,0,0,166,166,15,1,soda,images/br_soda.png,images/cb_soda.png,0,,,,,,,,,,,,,,,,,,,,,,
,,,,,,2023-09-27_13h08.36.792,vbt_B1_day4,2022.2.4,MacIntel,55.55555556,55879,,,,,,down,0,2.084,,0.377173913,-0.084782609,1,0,0,0,167,167,25,1,plek,images/br_plek.png,images/cb_plek.png,1,plek,,,,,,,,,,,,,,,,,,,,,
,,,,,,2023-09-27_13h08.36.792,vbt_B1_day4,2022.2.4,MacIntel,55.55555556,55879,,,,,,down,0,0.868,,0.377173913,-0.084782609,1,0,0,0,168,168,189,1,aanraden,images/br_aanraden.png,images/cb_aanraden.png,0,,,,,,,,,,,,,,,,,,,,,,
,,,,,,2023-09-27_13h08.36.792,vbt_B1_day4,2022.2.4,MacIntel,55.55555556,55879,,,,,,down,0,1.543,,0.377173913,-0.084782609,1,0,0,0,169,169,45,1,piste,images/br_piste.png,images/cb_piste.png,0,,,,,,,,,,,,,,,,,,,,,,
,,,,,,2023-09-27_13h08.36.792,vbt_B1_day4,2022.2.4,MacIntel,55.55555556,55879,,,,,,down,0,2.739,,0.377173913,-0.084782609,1,0,0,0,170,170,194,1,driemaal,images/br_driemaal.png,images/cb_driemaal.png,0,,,,,,,,,,,,,,,,,,,,,,
,,,,,,2023-09-27_13h08.36.792,vbt_B1_day4,2022.2.4,MacIntel,55.55555556,55879,,,,,,down,0,0.769,,0.377173913,-0.083695652,1,0,0,0,171,171,116,1,besmet,images/br_besmet.png,images/cb_besmet.png,0,,,,,,,,,,,,,,,,,,,,,,
,,,,,,2023-09-27_13h08.36.792,vbt_B1_day4,2022.2.4,MacIntel,55.55555556,55879,,,,,,down,0,0.512,,0.37826087,-0.083695652,1,0,0,0,172,172,142,1,snuiven,images/br_snuiven.png,images/cb_snuiven.png,0,,,,,,,,,,,,,,,,,,,,,,
,,,,,,2023-09-27_13h08.36.792,vbt_B1_day4,2022.2.4,MacIntel,55.55555556,55879,,,,,,down,0,0.334,,0.37826087,-0.082608696,1,0,0,0,173,173,23,1,zout,images/br_zout.png,images/cb_zout.png,0,,,,,,,,,,,,,,,,,,,,,,
,,,,,,2023-09-27_13h08.36.792,vbt_B1_day4,2022.2.4,MacIntel,55.55555556,55879,,,,,,down,0,0.417,,0.37826087,-0.082608696,1,0,0,0,174,174,0,1,slak,images/br_slak.png,images/cb_slak.png,0,,,,,,,,,,,,,,,,,,,,,,
,,,,,,2023-09-27_13h08.36.792,vbt_B1_day4,2022.2.4,MacIntel,55.55555556,55879,,,,,,down,0,0.684,,0.37826087,-0.082608696,1,0,0,0,175,175,127,1,doodmoe,images/br_doodmoe.png,images/cb_doodmoe.png,0,,,,,,,,,,,,,,,,,,,,,,
,,,,,,2023-09-27_13h08.36.792,vbt_B1_day4,2022.2.4,MacIntel,55.55555556,55879,,,,,,down,0,1.043,,0.379347826,-0.081521739,1,0,0,0,176,176,113,1,koppen,images/br_koppen.png,images/cb_koppen.png,0,,,,,,,,,,,,,,,,,,,,,,
,,,,,,2023-09-27_13h08.36.792,vbt_B1_day4,2022.2.4,MacIntel,55.55555556,55879,,,,,,down,0,2.416,,0.379347826,-0.080434783,1,0,0,0,177,177,179,1,woestijn,images/br_woestijn.png,images/cb_woestijn.png,0,,,,,,,,,,,,,,,,,,,,,,
,,,,,,2023-09-27_13h08.36.792,vbt_B1_day4,2022.2.4,MacIntel,55.55555556,55879,,,,,,down,0,0.117,,0.379347826,-0.080434783,1,0,0,0,178,178,43,1,klauw,images/br_klauw.png,images/cb_klauw.png,0,,,,,,,,,,,,,,,,,,,,,,
,,,,,,2023-09-27_13h08.36.792,vbt_B1_day4,2022.2.4,MacIntel,55.55555556,55879,,,,,,down,0,0.118,,0.380434783,-0.079347826,1,0,0,0,179,179,161,1,attentie,images/br_attentie.png,images/cb_attentie.png,0,,,,,,,,,,,,,,,,,,,,,,
,,,,,,2023-09-27_13h08.36.792,vbt_B1_day4,2022.2.4,MacIntel,55.55555556,55879,,,,,,down,0,0.367,,0.380434783,-0.079347826,1,0,0,0,180,180,8,1,knie,images/br_knie.png,images/cb_knie.png,0,,,,,,,,,,,,,,,,,,,,,,
,,,,,,2023-09-27_13h08.36.792,vbt_B1_day4,2022.2.4,MacIntel,55.55555556,55879,,,,,,down,0,0.71,,0.380434783,-0.079347826,1,0,0,0,181,181,175,1,heengaan,images/br_heengaan.png,images/cb_heengaan.png,0,,,,,,,,,,,,,,,,,,,,,,
,,,,,,2023-09-27_13h08.36.792,vbt_B1_day4,2022.2.4,MacIntel,55.55555556,55879,,,,,,down,0,0.017,,0.380434783,-0.07826087,1,0,0,0,182,182,110,1,zuster,images/br_zuster.png,images/cb_zuster.png,0,,,,,,,,,,,,,,,,,,,,,,
,,,,,,2023-09-27_13h08.36.792,vbt_B1_day4,2022.2.4,MacIntel,55.55555556,55879,,,,,,down,0,0.267,,0.381521739,-0.077173913,1,0,0,0,183,183,190,1,goedkoop,images/br_goedkoop.png,images/cb_goedkoop.png,0,,,,,,,,,,,,,,,,,,,,,,
,,,,,,2023-09-27_13h08.36.792,vbt_B1_day4,2022.2.4,MacIntel,55.55555556,55879,,,,,,down,0,0.118,,0.381521739,-0.077173913,1,0,0,0,184,184,107,1,maling,images/br_maling.png,images/cb_maling.png,1,maling,,,,,,,,,,,,,,,,,,,,,
,,,,,,2023-09-27_13h08.36.792,vbt_B1_day4,2022.2.4,MacIntel,55.55555556,55879,,,,,,down,0,0.017,,0.381521739,-0.076086957,1,0,0,0,185,185,172,1,weigeren,images/br_weigeren.png,images/cb_weigeren.png,0,,,,,,,,,,,,,,,,,,,,,,
,,,,,,2023-09-27_13h08.36.792,vbt_B1_day4,2022.2.4,MacIntel,55.55555556,55879,,,,,,down,0,0.337,,0.381521739,-0.076086957,1,0,0,0,186,186,32,1,palm,images/br_palm.png,images/cb_palm.png,0,,,,,,,,,,,,,,,,,,,,,,
,,,,,,2023-09-27_13h08.36.792,vbt_B1_day4,2022.2.4,MacIntel,55.55555556,55879,,,,,,down,0,0.084,,0.381521739,-0.076086957,1,0,0,0,187,187,143,1,hechten,images/br_hechten.png,images/cb_hechten.png,0,,,,,,,,,,,,,,,,,,,,,,
,,,,,,2023-09-27_13h08.36.792,vbt_B1_day4,2022.2.4,MacIntel,55.55555556,55879,,,,,,down,0,0.667,,0.382608696,-0.073913043,1,0,0,0,188,188,47,1,kabel,images/br_kabel.png,images/cb_kabel.png,0,,,,,,,,,,,,,,,,,,,,,,
,,,,,,2023-09-27_13h08.36.792,vbt_B1_day4,2022.2.4,MacIntel,55.55555556,55879,,,,,,down,0,0.203,,0.382608696,-0.072826087,1,0,0,0,189,189,70,1,ijdel,images/br_ijdel.png,images/cb_ijdel.png,0,,,,,,,,,,,,,,,,,,,,,,
,,,,,,2023-09-27_13h08.36.792,vbt_B1_day4,2022.2.4,MacIntel,55.55555556,55879,,,,,,down,0,0,,0.383695652,-0.072826087,1,0,0,0,190,190,173,1,apparaat,images/br_apparaat.png,images/cb_apparaat.png,0,,,,,,,,,,,,,,,,,,,,,,
,,,,,,2023-09-27_13h08.36.792,vbt_B1_day4,2022.2.4,MacIntel,55.55555556,55879,,,,,,down,0,0.26,,0.383695652,-0.07173913,1,0,0,0,191,191,177,1,maaltijd,images/br_maaltijd.png,images/cb_maaltijd.png,0,,,,,,,,,,,,,,,,,,,,,,
,,,,,,2023-09-27_13h08.36.792,vbt_B1_day4,2022.2.4,MacIntel,55.55555556,55879,,,,,,down,0,0.337,,0.383695652,-0.07173913,1,0,0,0,192,192,67,1,zwart,images/br_zwart.png,images/cb_zwart.png,1,zwart,,,,,,,,,,,,,,,,,,,,,
,,,,,,2023-09-27_13h08.36.792,vbt_B1_day4,2022.2.4,MacIntel,55.55555556,55879,,,,,,down,0,0.367,,0.383695652,-0.07173913,1,0,0,0,193,193,3,1,mand,images/br_mand.png,images/cb_mand.png,0,,,,,,,,,,,,,,,,,,,,,,
,,,,,,2023-09-27_13h08.36.792,vbt_B1_day4,2022.2.4,MacIntel,55.55555556,55879,,,,,,down,0,0.186,,0.383695652,-0.07173913,1,0,0,0,194,194,27,1,dans,images/br_dans.png,images/cb_dans.png,1,dans,,,,,,,,,,,,,,,,,,,,,
,,,,,,2023-09-27_13h08.36.792,vbt_B1_day4,2022.2.4,MacIntel,55.55555556,55879,,,,,,down,0,0.667,,0.383695652,-0.076086957,1,0,0,0,195,195,195,1,middelen,images/br_middelen.png,images/cb_middelen.png,0,,,,,,,,,,,,,,,,,,,,,,
,,,,,,2023-09-27_13h08.36.792,vbt_B1_day4,2022.2.4,MacIntel,55.55555556,55879,,,,,,down,0,0.088,,0.383695652,-0.076086957,1,0,0,0,196,196,37,1,mijn,images/br_mijn.png,images/cb_mijn.png,0,,,,,,,,,,,,,,,,,,,,,,
,,,,,,2023-09-27_13h08.36.792,vbt_B1_day4,2022.2.4,MacIntel,55.55555556,55879,,,,,,down,0,0.025,,0.383695652,-0.076086957,1,0,0,0,197,197,140,1,blijven,images/br_blijven.png,images/cb_blijven.png,0,,,,,,,,,,,,,,,,,,,,,,
,,,,,,2023-09-27_13h08.36.792,vbt_B1_day4,2022.2.4,MacIntel,55.55555556,55879,,,,,,down,0,0.337,,0.383695652,-0.076086957,1,0,0,0,198,198,174,1,stemming,images/br_stemming.png,images/cb_stemming.png,0,,,,,,,,,,,,,,,,,,,,,,
,,,,,,2023-09-27_13h08.36.792,vbt_B1_day4,2022.2.4,MacIntel,55.55555556,55879,,,,,,down,0,0.133,,0.383695652,-0.076086957,1,0,0,0,199,199,74,1,graaf,images/br_graaf.png,images/cb_graaf.png,0,,,,,,,,,,,,,,,,,,,,,,
,,,,,,2023-09-27_13h08.36.792,vbt_B1_day4,2022.2.4,MacIntel,55.55555556,55879,,,,,,,,,,,,,,,,,,,,,,,,,0.383695652,-0.076086957,1,0,0,,,,,,,,,,,,,,,,
,,,,,,2023-09-27_13h08.36.792,vbt_B1_day4,2022.2.4,MacIntel,55.55555556,55879,,,,,,,,,,,,,,,,,,,,,,,,,,,,,,0.383695652,-0.076086957,1,0,0,,,,,,,,,,,
,,,,,,2023-09-27_13h08.36.792,vbt_B1_day4,2022.2.4,MacIntel,55.55555556,55879,,,,,,,,,,,,,,,,,,,,rijp,images/br_rijp.png,images/cb_rijp.png,,rijp,,,,,,,,,,,0.383695652,-0.076086957,1,0,0,rijp,0,0,0,2,1
,,,,,,2023-09-27_13h08.36.792,vbt_B1_day4,2022.2.4,MacIntel,55.55555556,55879,,,,,,,,,,,,,,,,,,,,gebog,images/br_gebog.png,images/cb_gebog.png,,gebit,,,,,,,,,,,0.383695652,-0.076086957,1,0,0,gebit,0,1,1,24,1
,,,,,,2023-09-27_13h08.36.792,vbt_B1_day4,2022.2.4,MacIntel,55.55555556,55879,,,,,,,,,,,,,,,,,,,,drooien,images/br_drooien.png,images/cb_drooien.png,,drooien,,,,,,,,,,,0.383695652,-0.076086957,1,0,0,drooien,0,2,2,32,1
,,,,,,2023-09-27_13h08.36.792,vbt_B1_day4,2022.2.4,MacIntel,55.55555556,55879,,,,,,,,,,,,,,,,,,,,wozing,images/br_wozing.png,images/cb_wozing.png,,wozing,,,,,,,,,,,0.383695652,-0.076086957,1,0,0,wozing,0,3,3,28,1
,,,,,,2023-09-27_13h08.36.792,vbt_B1_day4,2022.2.4,MacIntel,55.55555556,55879,,,,,,,,,,,,,,,,,,,,weigeren,images/br_weigeren.png,images/cb_weigeren.png,,weigeren,,,,,,,,,,,0.383695652,-0.076086957,1,0,0,weigeren,0,4,4,16,1
,,,,,,2023-09-27_13h08.36.792,vbt_B1_day4,2022.2.4,MacIntel,55.55555556,55879,,,,,,,,,,,,,,,,,,,,schenden,images/br_schenden.png,images/cb_schenden.png,,schenden,,,,,,,,,,,0.383695652,-0.076086957,1,0,0,schenden,0,5,5,57,1
,,,,,,2023-09-27_13h08.36.792,vbt_B1_day4,2022.2.4,MacIntel,55.55555556,55879,,,,,,,,,,,,,,,,,,,,paalbaak,images/br_paalbaak.png,images/cb_paalbaak.png,,paalbeek,,,,,,,,,,,0.383695652,-0.076086957,1,0,0,paalbeek,0,6,6,39,1
,,,,,,2023-09-27_13h08.36.792,vbt_B1_day4,2022.2.4,MacIntel,55.55555556,55879,,,,,,,,,,,,,,,,,,,,strok,images/br_strok.png,images/cb_strok.png,,strok,,,,,,,,,,,0.383695652,-0.076086957,1,0,0,strok,0,7,7,25,1
,,,,,,2023-09-27_13h08.36.792,vbt_B1_day4,2022.2.4,MacIntel,55.55555556,55879,,,,,,,,,,,,,,,,,,,,pittig,images/br_pittig.png,images/cb_pittig.png,,pitten,,,,,,,,,,,0.383695652,-0.076086957,1,0,0,pitten,0,8,8,51,1
,,,,,,2023-09-27_13h08.36.792,vbt_B1_day4,2022.2.4,MacIntel,55.55555556,55879,,,,,,,,,,,,,,,,,,,,mekst,images/br_mekst.png,images/cb_mekst.png,,mekst,,,,,,,,,,,0.383695652,-0.076086957,1,0,0,mekst,0,9,9,27,1
,,,,,,2023-09-27_13h08.36.792,vbt_B1_day4,2022.2.4,MacIntel,55.55555556,55879,,,,,,,,,,,,,,,,,,,,fran,images/br_fran.png,images/cb_fran.png,,fran,,,,,,,,,,,0.382608696,-0.076086957,1,0,0,fran,0,10,10,22,1
,,,,,,2023-09-27_13h08.36.792,vbt_B1_day4,2022.2.4,MacIntel,55.55555556,55879,,,,,,,,,,,,,,,,,,,,seizoen,images/br_seizoen.png,images/cb_seizoen.png,,seizoen,,,,,,,,,,,0.382608696,-0.076086957,1,0,0,seizoen,0,11,11,13,1
,,,,,,2023-09-27_13h08.36.792,vbt_B1_day4,2022.2.4,MacIntel,55.55555556,55879,,,,,,,,,,,,,,,,,,,,aanzwaag,images/br_aanzwaag.png,images/cb_aanzwaag.png,,aanzwaag,,,,,,,,,,,0.382608696,-0.076086957,1,0,0,aanzwaag,0,12,12,38,1
,,,,,,2023-09-27_13h08.36.792,vbt_B1_day4,2022.2.4,MacIntel,55.55555556,55879,,,,,,,,,,,,,,,,,,,,kaal,images/br_kaal.png,images/cb_kaal.png,,kaal,,,,,,,,,,,0.381521739,-0.076086957,1,0,0,kaal,0,13,13,1,1
,,,,,,2023-09-27_13h08.36.792,vbt_B1_day4,2022.2.4,MacIntel,55.55555556,55879,,,,,,,,,,,,,,,,,,,,apparaat,images/br_apparaat.png,images/cb_apparaat.png,,apparaat,,,,,,,,,,,0.381521739,-0.076086957,1,0,0,apparaat,0,14,14,17,1
,,,,,,2023-09-27_13h08.36.792,vbt_B1_day4,2022.2.4,MacIntel,55.55555556,55879,,,,,,,,,,,,,,,,,,,,haza,images/br_haza.png,images/cb_haza.png,,haza,,,,,,,,,,,0.381521739,-0.076086957,1,0,0,haza,0,15,15,21,1
,,,,,,2023-09-27_13h08.36.792,vbt_B1_day4,2022.2.4,MacIntel,55.55555556,55879,,,,,,,,,,,,,,,,,,,,toevol,images/br_toevol.png,images/cb_toevol.png,,toevol,,,,,,,,,,,0.381521739,-0.076086957,1,0,0,toevol,0,16,16,29,1
,,,,,,2023-09-27_13h08.36.792,vbt_B1_day4,2022.2.4,MacIntel,55.55555556,55879,,,,,,,,,,,,,,,,,,,,dalen,images/br_dalen.png,images/cb_dalen.png,,dalen,,,,,,,,,,,0.381521739,-0.076086957,1,0,0,dalen,0,17,17,46,1
,,,,,,2023-09-27_13h08.36.792,vbt_B1_day4,2022.2.4,MacIntel,55.55555556,55879,,,,,,,,,,,,,,,,,,,,baron,images/br_baron.png,images/cb_baron.png,,baron,,,,,,,,,,,0.381521739,-0.076086957,1,0,0,baron,0,18,18,5,1
,,,,,,2023-09-27_13h08.36.792,vbt_B1_day4,2022.2.4,MacIntel,55.55555556,55879,,,,,,,,,,,,,,,,,,,,kust,images/br_kust.png,images/cb_kust.png,,kust,,,,,,,,,,,0.381521739,-0.076086957,1,0,0,kust,0,19,19,0,1
,,,,,,2023-09-27_13h08.36.792,vbt_B1_day4,2022.2.4,MacIntel,55.55555556,55879,,,,,,,,,,,,,,,,,,,,lappen,images/br_lappen.png,images/cb_lappen.png,,lappen,,,,,,,,,,,0.381521739,-0.076086957,1,0,0,lappen,0,20,20,49,1
,,,,,,2023-09-27_13h08.36.792,vbt_B1_day4,2022.2.4,MacIntel,55.55555556,55879,,,,,,,,,,,,,,,,,,,,geheim,images/br_geheim.png,images/cb_geheim.png,,geheim,,,,,,,,,,,0.381521739,-0.076086957,1,0,0,geheim,0,21,21,8,1
,,,,,,2023-09-27_13h08.36.792,vbt_B1_day4,2022.2.4,MacIntel,55.55555556,55879,,,,,,,,,,,,,,,,,,,,sulbon,images/br_sulbon.png,images/cb_sulbon.png,,sulbon,,,,,,,,,,,0.381521739,-0.076086957,1,0,0,sulbon,0,22,22,31,1
,,,,,,2023-09-27_13h08.36.792,vbt_B1_day4,2022.2.4,MacIntel,55.55555556,55879,,,,,,,,,,,,,,,,,,,,seizoon,images/br_seizoon.png,images/cb_seizoon.png,,seizoon,,,,,,,,,,,0.381521739,-0.076086957,1,0,0,seizoon,0,23,23,33,1
,,,,,,2023-09-27_13h08.36.792,vbt_B1_day4,2022.2.4,MacIntel,55.55555556,55879,,,,,,,,,,,,,,,,,,,,stemming,images/br_stemming.png,images/cb_stemming.png,,stemming,,,,,,,,,,,0.381521739,-0.076086957,1,0,0,stemming,0,24,24,18,1
,,,,,,2023-09-27_13h08.36.792,vbt_B1_day4,2022.2.4,MacIntel,55.55555556,55879,,,,,,,,,,,,,,,,,,,,flippen,images/br_flippen.png,images/cb_flippen.png,,flippen,,,,,,,,,,,0.381521739,-0.076086957,1,0,0,flippen,0,25,25,54,1
,,,,,,2023-09-27_13h08.36.792,vbt_B1_day4,2022.2.4,MacIntel,55.55555556,55879,,,,,,,,,,,,,,,,,,,,eerst,images/br_eerst.png,images/cb_eerst.png,,eerst,,,,,,,,,,,0.381521739,-0.077173913,1,0,0,eerst,0,26,26,47,1
,,,,,,2023-09-27_13h08.36.792,vbt_B1_day4,2022.2.4,MacIntel,55.55555556,55879,,,,,,,,,,,,,,,,,,,,soda,images/br_soda.png,images/cb_soda.png,,sode,,,,,,,,,,,0.381521739,-0.077173913,1,0,0,sode,0,27,27,3,1
,,,,,,2023-09-27_13h08.36.792,vbt_B1_day4,2022.2.4,MacIntel,55.55555556,55879,,,,,,,,,,,,,,,,,,,,gijf,images/br_gijf.png,images/cb_gijf.png,,gijf,,,,,,,,,,,0.381521739,-0.077173913,1,0,0,gijf,0,28,28,23,1
,,,,,,2023-09-27_13h08.36.792,vbt_B1_day4,2022.2.4,MacIntel,55.55555556,55879,,,,,,,,,,,,,,,,,,,,zaalrijk,images/br_zaalrijk.png,images/cb_zaalrijk.png,,zaalrijk,,,,,,,,,,,0.381521739,-0.077173913,1,0,0,zaalrijk,0,29,29,37,1
,,,,,,2023-09-27_13h08.36.792,vbt_B1_day4,2022.2.4,MacIntel,55.55555556,55879,,,,,,,,,,,,,,,,,,,,heengaan,images/br_heengaan.png,images/cb_heengaan.png,,heengaan,,,,,,,,,,,0.381521739,-0.077173913,1,0,0,heengaan,0,30,30,19,1
,,,,,,2023-09-27_13h08.36.792,vbt_B1_day4,2022.2.4,MacIntel,55.55555556,55879,,,,,,,,,,,,,,,,,,,,pijnlijk,images/br_pijnlijk.png,images/cb_pijnlijk.png,,pijnlijk,,,,,,,,,,,0.381521739,-0.093478261,1,0,0,pijnlijk,0,31,31,58,1
,,,,,,2023-09-27_13h08.36.792,vbt_B1_day4,2022.2.4,MacIntel,55.55555556,55879,,,,,,,,,,,,,,,,,,,,geliefd,images/br_geliefd.png,images/cb_geliefd.png,,geliefd,,,,,,,,,,,0.381521739,-0.093478261,1,0,0,geliefd,0,32,32,14,1
,,,,,,2023-09-27_13h08.36.792,vbt_B1_day4,2022.2.4,MacIntel,55.55555556,55879,,,,,,,,,,,,,,,,,,,,praat,images/br_praat.png,images/cb_praat.png,,praat,,,,,,,,,,,0.381521739,-0.093478261,1,0,0,praat,0,33,33,7,1
,,,,,,2023-09-27_13h08.36.792,vbt_B1_day4,2022.2.4,MacIntel,55.55555556,55879,,,,,,,,,,,,,,,,,,,,gedicht,images/br_gedicht.png,images/cb_gedicht.png,,gedicht,,,,,,,,,,,0.381521739,-0.093478261,1,0,0,gedicht,0,34,34,15,1
,,,,,,2023-09-27_13h08.36.792,vbt_B1_day4,2022.2.4,MacIntel,55.55555556,55879,,,,,,,,,,,,,,,,,,,,drummer,images/br_drummer.png,images/cb_drummer.png,,drummer,,,,,,,,,,,0.381521739,-0.093478261,1,0,0,drummer,0,35,35,53,1
,,,,,,2023-09-27_13h08.36.792,vbt_B1_day4,2022.2.4,MacIntel,55.55555556,55879,,,,,,,,,,,,,,,,,,,,getucht,images/br_getucht.png,images/cb_getucht.png,,getuh.,,,,,,,,,,,0.381521739,-0.093478261,1,0,0,getuh.,0,36,36,35,1
,,,,,,2023-09-27_13h08.36.792,vbt_B1_day4,2022.2.4,MacIntel,55.55555556,55879,,,,,,,,,,,,,,,,,,,,warel,images/br_warel.png,images/cb_warel.png,,warel,,,,,,,,,,,0.381521739,-0.093478261,1,0,0,warel,0,37,37,26,1
,,,,,,2023-09-27_13h08.36.792,vbt_B1_day4,2022.2.4,MacIntel,55.55555556,55879,,,,,,,,,,,,,,,,,,,,dozijn,images/br_dozijn.png,images/cb_dozijn.png,,dozijn,,,,,,,,,,,0.381521739,-0.093478261,1,0,0,dozijn,0,38,38,48,1
,,,,,,2023-09-27_13h08.36.792,vbt_B1_day4,2022.2.4,MacIntel,55.55555556,55879,,,,,,,,,,,,,,,,,,,,oceaan,images/br_oceaan.png,images/cb_oceaan.png,,oceaa.,,,,,,,,,,,0.381521739,-0.093478261,1,0,0,oceaa.,0,39,39,10,1
,,,,,,2023-09-27_13h08.36.792,vbt_B1_day4,2022.2.4,MacIntel,55.55555556,55879,,,,,,,,,,,,,,,,,,,,noodzaak,images/br_noodzaak.png,images/cb_noodzaak.png,,noodzaak,,,,,,,,,,,0.381521739,-0.093478261,1,0,0,noodzaak,0,40,40,56,1
,,,,,,2023-09-27_13h08.36.792,vbt_B1_day4,2022.2.4,MacIntel,55.55555556,55879,,,,,,,,,,,,,,,,,,,,zwek,images/br_zwek.png,images/cb_zwek.png,,zwek,,,,,,,,,,,0.381521739,-0.093478261,1,0,0,zwek,0,41,41,20,1
,,,,,,2023-09-27_13h08.36.792,vbt_B1_day4,2022.2.4,MacIntel,55.55555556,55879,,,,,,,,,,,,,,,,,,,,opruimen,images/br_opruimen.png,images/cb_opruimen.png,,opru...,,,,,,,,,,,0.381521739,-0.093478261,1,0,0,opru...,0,42,42,59,1
,,,,,,2023-09-27_13h08.36.792,vbt_B1_day4,2022.2.4,MacIntel,55.55555556,55879,,,,,,,,,,,,,,,,,,,,broodje,images/br_broodje.png,images/cb_broodje.png,,broodje,,,,,,,,,,,0.381521739,-0.093478261,1,0,0,broodje,0,43,43,55,1
,,,,,,2023-09-27_13h08.36.792,vbt_B1_day4,2022.2.4,MacIntel,55.55555556,55879,,,,,,,,,,,,,,,,,,,,wagon,images/br_wagon.png,images/cb_wagon.png,,wagon,,,,,,,,,,,0.381521739,-0.093478261,1,0,0,wagon,0,44,44,4,1
,,,,,,2023-09-27_13h08.36.792,vbt_B1_day4,2022.2.4,MacIntel,55.55555556,55879,,,,,,,,,,,,,,,,,,,,gebit,images/br_gebit.png,images/cb_gebit.png,,gebit,,,,,,,,,,,0.381521739,-0.093478261,1,0,0,gebit,0,45,45,6,1
,,,,,,2023-09-27_13h08.36.792,vbt_B1_day4,2022.2.4,MacIntel,55.55555556,55879,,,,,,,,,,,,,,,,,,,,schotel,images/br_schotel.png,images/cb_schotel.png,,schotel,,,,,,,,,,,0.381521739,-0.093478261,1,0,0,schotel,0,46,46,52,1
,,,,,,2023-09-27_13h08.36.792,vbt_B1_day4,2022.2.4,MacIntel,55.55555556,55879,,,,,,,,,,,,,,,,,,,,gaaf,images/br_gaaf.png,images/cb_gaaf.png,,gaaf,,,,,,,,,,,0.381521739,-0.093478261,1,0,0,gaaf,0,47,47,43,1
,,,,,,2023-09-27_13h08.36.792,vbt_B1_day4,2022.2.4,MacIntel,55.55555556,55879,,,,,,,,,,,,,,,,,,,,bruin,images/br_bruin.png,images/cb_bruin.png,,bruin,,,,,,,,,,,0.381521739,-0.093478261,1,0,0,bruin,0,48,48,45,1
,,,,,,2023-09-27_13h08.36.792,vbt_B1_day4,2022.2.4,MacIntel,55.55555556,55879,,,,,,,,,,,,,,,,,,,,midden,images/br_midden.png,images/cb_midden.png,,midden,,,,,,,,,,,0.381521739,-0.093478261,1,0,0,midden,0,49,49,50,1
,,,,,,2023-09-27_13h08.36.792,vbt_B1_day4,2022.2.4,MacIntel,55.55555556,55879,,,,,,,,,,,,,,,,,,,,tucket,images/br_tucket.png,images/cb_tucket.png,,tucket,,,,,,,,,,,0.381521739,-0.093478261,1,0,0,tucket,0,50,50,30,1
,,,,,,2023-09-27_13h08.36.792,vbt_B1_day4,2022.2.4,MacIntel,55.55555556,55879,,,,,,,,,,,,,,,,,,,,opkicht,images/br_opkicht.png,images/cb_opkicht.png,,opkicht,,,,,,,,,,,0.381521739,-0.093478261,1,0,0,opkicht,0,51,51,34,1
,,,,,,2023-09-27_13h08.36.792,vbt_B1_day4,2022.2.4,MacIntel,55.55555556,55879,,,,,,,,,,,,,,,,,,,,gaan,images/br_gaan.png,images/cb_gaan.png,,gaan,,,,,,,,,,,0.381521739,-0.093478261,1,0,0,gaan,0,52,52,41,1
,,,,,,2023-09-27_13h08.36.792,vbt_B1_day4,2022.2.4,MacIntel,55.55555556,55879,,,,,,,,,,,,,,,,,,,,steen,images/br_steen.png,images/cb_steen.png,,steen,,,,,,,,,,,0.381521739,-0.093478261,1,0,0,steen,0,53,53,44,1
,,,,,,2023-09-27_13h08.36.792,vbt_B1_day4,2022.2.4,MacIntel,55.55555556,55879,,,,,,,,,,,,,,,,,,,,bisschap,images/br_bisschap.png,images/cb_bisschap.png,,bisschop,,,,,,,,,,,0.35,-0.102173913,1,0,0,bisschop,0,54,54,36,1
,,,,,,2023-09-27_13h08.36.792,vbt_B1_day4,2022.2.4,MacIntel,55.55555556,55879,,,,,,,,,,,,,,,,,,,,vreten,images/br_vreten.png,images/cb_vreten.png,,vreten,,,,,,,,,,,0.35,-0.102173913,1,0,0,vreten,0,55,55,11,1
,,,,,,2023-09-27_13h08.36.792,vbt_B1_day4,2022.2.4,MacIntel,55.55555556,55879,,,,,,,,,,,,,,,,,,,,snee,images/br_snee.png,images/cb_snee.png,,snee,,,,,,,,,,,0.35,-0.102173913,1,0,0,snee,0,56,56,40,1
,,,,,,2023-09-27_13h08.36.792,vbt_B1_day4,2022.2.4,MacIntel,55.55555556,55879,,,,,,,,,,,,,,,,,,,,grappen,images/br_grappen.png,images/cb_grappen.png,,grappen,,,,,,,,,,,0.35,-0.102173913,1,0,0,grappen,0,57,57,12,1
,,,,,,2023-09-27_13h08.36.792,vbt_B1_day4,2022.2.4,MacIntel,55.55555556,55879,,,,,,,,,,,,,,,,,,,,ezel,images/br_ezel.png,images/cb_ezel.png,,ezel,,,,,,,,,,,0.35,-0.102173913,1,0,0,ezel,0,58,58,42,1
,,,,,,2023-09-27_13h08.36.792,vbt_B1_day4,2022.2.4,MacIntel,55.55555556,55879,,,,,,,,,,,,,,,,,,,,waarop,images/br_waarop.png,images/cb_waarop.png,,waarop,,,,,,,,,,,0.35,-0.102173913,1,0,0,waarop,0,59,59,9,1
,,,,,,2023-09-27_13h08.36.792,vbt_B1_day4,2022.2.4,MacIntel,55.55555556,55879,,,,,,,,,,,,,,,,,,,,,,,,,,,,,,,,,,,,,,,,,,,,,
