welcome_mouse.x,welcome_mouse.y,welcome_mouse.leftButton,welcome_mouse.midButton,welcome_mouse.rightButton,"ID",date,expName,psychopyVersion,OS,frameRate,participant,trainInstr_mouse.x,trainInstr_mouse.y,trainInstr_mouse.leftButton,trainInstr_mouse.midButton,trainInstr_mouse.rightButton,translation_key.keys,translation_key.corr,translation_key.rt,word_rsp.text,trWrd_mouse.x,trWrd_mouse.y,trWrd_mouse.leftButton,trWrd_mouse.midButton,trWrd_mouse.rightButton,train_loop.thisRepN,train_loop.thisTrialN,train_loop.thisN,train_loop.thisIndex,train_loop.ran,nlWrd,brWrd,cbWrd,test,testResp,mouse.x,mouse.y,mouse.leftButton,mouse.midButton,mouse.rightButton,testInstr_mouse.x,testInstr_mouse.y,testInstr_mouse.leftButton,testInstr_mouse.midButton,testInstr_mouse.rightButton,test_mouse.x,test_mouse.y,test_mouse.leftButton,test_mouse.midButton,test_mouse.rightButton,test_response.text,test_loop.thisRepN,test_loop.thisTrialN,test_loop.thisN,test_loop.thisIndex,test_loop.ran
-0.22592594,-0.32222225,1,0,0,53500,2023-07-22_21h36.25.279,vbt_B1_day4,2022.2.4,Win32,59.95203837,53500,,,,,,,,,,,,,,,,,,,,,,,,,,,,,,,,,,,,,,,,,,,,,
,,,,,53500,2023-07-22_21h36.25.279,vbt_B1_day4,2022.2.4,Win32,59.95203837,53500,-0.22592594,-0.32222225,1,0,0,,,,,,,,,,,,,,,,,,,,,,,,,,,,,,,,,,,,,,,,
,,,,,53500,2023-07-22_21h36.25.279,vbt_B1_day4,2022.2.4,Win32,59.95203837,53500,,,,,,down,0,13.8104,,0.296296296,-0.225000028,1,0,0,0,0,0,84,1,lokken,images/br_lokken.png,images/cb_lokken.png,0,,,,,,,,,,,,,,,,,,,,,,
,,,,,53500,2023-07-22_21h36.25.279,vbt_B1_day4,2022.2.4,Win32,59.95203837,53500,,,,,,down,0,18.2044,,0.214814857,-0.239814829,1,0,0,0,1,1,196,1,nakijken,images/br_nakijken.png,images/cb_nakijken.png,0,,,,,,,,,,,,,,,,,,,,,,
,,,,,53500,2023-07-22_21h36.25.279,vbt_B1_day4,2022.2.4,Win32,59.95203837,53500,,,,,,down,0,20.4675,,0.214814857,-0.241666653,1,0,0,0,2,2,109,1,totaal,images/br_totaal.png,images/cb_totaal.png,0,,,,,,,,,,,,,,,,,,,,,,
,,,,,53500,2023-07-22_21h36.25.279,vbt_B1_day4,2022.2.4,Win32,59.95203837,53500,,,,,,down,0,10.5255,,0.218518504,-0.24537037,1,0,0,0,3,3,75,1,snoep,images/br_snoep.png,images/cb_snoep.png,0,,,,,,,,,,,,,,,,,,,,,,
,,,,,53500,2023-07-22_21h36.25.279,vbt_B1_day4,2022.2.4,Win32,59.95203837,53500,,,,,,down,0,9.2748,,0.228703746,-0.255555541,1,0,0,0,4,4,59,1,kring,images/br_kring.png,images/cb_kring.png,0,,,,,,,,,,,,,,,,,,,,,,
,,,,,53500,2023-07-22_21h36.25.279,vbt_B1_day4,2022.2.4,Win32,59.95203837,53500,,,,,,down,0,13.6224,,0.350926011,-0.236111111,1,0,0,0,5,5,145,1,invloed,images/br_invloed.png,images/cb_invloed.png,1,invloed,,,,,,,,,,,,,,,,,,,,,
,,,,,53500,2023-07-22_21h36.25.279,vbt_B1_day4,2022.2.4,Win32,59.95203837,53500,,,,,,down,0,4.0836,,0.567592621,-0.235185199,1,0,0,0,6,6,33,1,vlek,images/br_vlek.png,images/cb_vlek.png,0,,,,,,,,,,,,,,,,,,,,,,
,,,,,53500,2023-07-22_21h36.25.279,vbt_B1_day4,2022.2.4,Win32,59.95203837,53500,,,,,,down,0,8.8922,,0.567592621,-0.235185199,1,0,0,0,7,7,49,1,laken,images/br_laken.png,images/cb_laken.png,0,,,,,,,,,,,,,,,,,,,,,,
,,,,,53500,2023-07-22_21h36.25.279,vbt_B1_day4,2022.2.4,Win32,59.95203837,53500,,,,,,down,0,19.7033,,0.567592621,-0.235185199,1,0,0,0,8,8,127,1,doodmoe,images/br_doodmoe.png,images/cb_doodmoe.png,0,,,,,,,,,,,,,,,,,,,,,,
,,,,,53500,2023-07-22_21h36.25.279,vbt_B1_day4,2022.2.4,Win32,59.95203837,53500,,,,,,down,0,16.3435,,0.567592621,-0.235185199,1,0,0,0,9,9,195,1,middelen,images/br_middelen.png,images/cb_middelen.png,0,,,,,,,,,,,,,,,,,,,,,,
,,,,,53500,2023-07-22_21h36.25.279,vbt_B1_day4,2022.2.4,Win32,59.95203837,53500,,,,,,down,0,9.8855,,0.567592621,-0.235185199,1,0,0,0,10,10,50,1,stoom,images/br_stoom.png,images/cb_stoom.png,0,,,,,,,,,,,,,,,,,,,,,,
,,,,,53500,2023-07-22_21h36.25.279,vbt_B1_day4,2022.2.4,Win32,59.95203837,53500,,,,,,down,0,6.8408,,0.567592621,-0.235185199,1,0,0,0,11,11,69,1,waken,images/br_waken.png,images/cb_waken.png,0,,,,,,,,,,,,,,,,,,,,,,
,,,,,53500,2023-07-22_21h36.25.279,vbt_B1_day4,2022.2.4,Win32,59.95203837,53500,,,,,,down,0,13.5196,,0.575000057,-0.217592593,1,0,0,0,12,12,153,1,vervoer,images/br_vervoer.png,images/cb_vervoer.png,0,,,,,,,,,,,,,,,,,,,,,,
,,,,,53500,2023-07-22_21h36.25.279,vbt_B1_day4,2022.2.4,Win32,59.95203837,53500,,,,,,down,0,17.4341,,0.575000057,-0.217592593,1,0,0,0,13,13,137,1,trekker,images/br_trekker.png,images/cb_trekker.png,0,,,,,,,,,,,,,,,,,,,,,,
,,,,,53500,2023-07-22_21h36.25.279,vbt_B1_day4,2022.2.4,Win32,59.95203837,53500,,,,,,down,0,7.3941,,0.575000057,-0.217592593,1,0,0,0,14,14,172,1,weigeren,images/br_weigeren.png,images/cb_weigeren.png,0,,,,,,,,,,,,,,,,,,,,,,
,,,,,53500,2023-07-22_21h36.25.279,vbt_B1_day4,2022.2.4,Win32,59.95203837,53500,,,,,,down,0,8.5509,,0.575000057,-0.217592593,1,0,0,0,15,15,141,1,knielen,images/br_knielen.png,images/cb_knielen.png,0,,,,,,,,,,,,,,,,,,,,,,
,,,,,53500,2023-07-22_21h36.25.279,vbt_B1_day4,2022.2.4,Win32,59.95203837,53500,,,,,,down,0,6.6048,,0.406481566,-0.158333319,1,0,0,0,16,16,26,1,leuk,images/br_leuk.png,images/cb_leuk.png,1,leuk,,,,,,,,,,,,,,,,,,,,,
,,,,,53500,2023-07-22_21h36.25.279,vbt_B1_day4,2022.2.4,Win32,59.95203837,53500,,,,,,down,0,13.924,,0.406481566,-0.158333319,1,0,0,0,17,17,37,1,mijn,images/br_mijn.png,images/cb_mijn.png,0,,,,,,,,,,,,,,,,,,,,,,
,,,,,53500,2023-07-22_21h36.25.279,vbt_B1_day4,2022.2.4,Win32,59.95203837,53500,,,,,,down,0,8.8557,,0.406481566,-0.158333319,1,0,0,0,18,18,126,1,kasteel,images/br_kasteel.png,images/cb_kasteel.png,0,,,,,,,,,,,,,,,,,,,,,,
,,,,,53500,2023-07-22_21h36.25.279,vbt_B1_day4,2022.2.4,Win32,59.95203837,53500,,,,,,down,0,5.8438,,0.406481566,-0.158333319,1,0,0,0,19,19,117,1,kennis,images/br_kennis.png,images/cb_kennis.png,0,,,,,,,,,,,,,,,,,,,,,,
,,,,,53500,2023-07-22_21h36.25.279,vbt_B1_day4,2022.2.4,Win32,59.95203837,53500,,,,,,down,0,12.6844,,0.396296325,-0.161111125,1,0,0,0,20,20,124,1,bloeien,images/br_bloeien.png,images/cb_bloeien.png,0,,,,,,,,,,,,,,,,,,,,,,
,,,,,53500,2023-07-22_21h36.25.279,vbt_B1_day4,2022.2.4,Win32,59.95203837,53500,,,,,,down,0,5.9708,,0.396296325,-0.161111125,1,0,0,0,21,21,31,1,poes,images/br_poes.png,images/cb_poes.png,0,,,,,,,,,,,,,,,,,,,,,,
,,,,,53500,2023-07-22_21h36.25.279,vbt_B1_day4,2022.2.4,Win32,59.95203837,53500,,,,,,down,0,16.4276,,0.396296325,-0.167592578,1,0,0,0,22,22,105,1,wijlen,images/br_wijlen.png,images/cb_wijlen.png,1,wijlen,,,,,,,,,,,,,,,,,,,,,
,,,,,53500,2023-07-22_21h36.25.279,vbt_B1_day4,2022.2.4,Win32,59.95203837,53500,,,,,,down,0,7.9192,,0.396296325,-0.167592578,1,0,0,0,23,23,148,1,smullen,images/br_smullen.png,images/cb_smullen.png,0,,,,,,,,,,,,,,,,,,,,,,
,,,,,53500,2023-07-22_21h36.25.279,vbt_B1_day4,2022.2.4,Win32,59.95203837,53500,,,,,,down,0,27.9248,,0.142592607,-0.166666667,1,0,0,0,24,24,67,1,zwart,images/br_zwart.png,images/cb_zwart.png,1,zwart,,,,,,,,,,,,,,,,,,,,,
,,,,,53500,2023-07-22_21h36.25.279,vbt_B1_day4,2022.2.4,Win32,59.95203837,53500,,,,,,down,0,19.9727,,0.142592607,-0.166666667,1,0,0,0,25,25,197,1,spanning,images/br_spanning.png,images/cb_spanning.png,0,,,,,,,,,,,,,,,,,,,,,,
,,,,,53500,2023-07-22_21h36.25.279,vbt_B1_day4,2022.2.4,Win32,59.95203837,53500,,,,,,down,0,6.655,,0.142592607,-0.166666667,1,0,0,0,26,26,32,1,palm,images/br_palm.png,images/cb_palm.png,0,,,,,,,,,,,,,,,,,,,,,,
,,,,,53500,2023-07-22_21h36.25.279,vbt_B1_day4,2022.2.4,Win32,59.95203837,53500,,,,,,down,0,14.0557,,0.141666695,-0.166666667,1,0,0,0,27,27,94,1,oceaan,images/br_oceaan.png,images/cb_oceaan.png,0,,,,,,,,,,,,,,,,,,,,,,
,,,,,53500,2023-07-22_21h36.25.279,vbt_B1_day4,2022.2.4,Win32,59.95203837,53500,,,,,,down,0,6.7685,,0.118518547,-0.183333362,1,0,0,0,28,28,129,1,verhaal,images/br_verhaal.png,images/cb_verhaal.png,0,,,,,,,,,,,,,,,,,,,,,,
,,,,,53500,2023-07-22_21h36.25.279,vbt_B1_day4,2022.2.4,Win32,59.95203837,53500,,,,,,down,0,9.8015,,0.10092594,-0.169444473,1,0,0,0,29,29,43,1,klauw,images/br_klauw.png,images/cb_klauw.png,0,,,,,,,,,,,,,,,,,,,,,,
,,,,,53500,2023-07-22_21h36.25.279,vbt_B1_day4,2022.2.4,Win32,59.95203837,53500,,,,,,down,0,11.4189,,0.10092594,-0.169444473,1,0,0,0,30,30,149,1,redding,images/br_redding.png,images/cb_redding.png,0,,,,,,,,,,,,,,,,,,,,,,
,,,,,53500,2023-07-22_21h36.25.279,vbt_B1_day4,2022.2.4,Win32,59.95203837,53500,,,,,,down,0,13.8883,,0.352777834,-0.175000014,1,0,0,0,31,31,187,1,opkijken,images/br_opkijken.png,images/cb_opkijken.png,1,opkijken,,,,,,,,,,,,,,,,,,,,,
,,,,,53500,2023-07-22_21h36.25.279,vbt_B1_day4,2022.2.4,Win32,59.95203837,53500,,,,,,down,0,5.1534,,0.352777834,-0.175000014,1,0,0,0,32,32,64,1,wegen,images/br_wegen.png,images/cb_wegen.png,1,wegen,,,,,,,,,,,,,,,,,,,,,
,,,,,53500,2023-07-22_21h36.25.279,vbt_B1_day4,2022.2.4,Win32,59.95203837,53500,,,,,,down,0,31.2098,,0.394444501,-0.114814829,1,0,0,0,33,33,147,1,komisch,images/br_komisch.png,images/cb_komisch.png,1,komi.ch,,,,,,,,,,,,,,,,,,,,,
,,,,,53500,2023-07-22_21h36.25.279,vbt_B1_day4,2022.2.4,Win32,59.95203837,53500,,,,,,down,0,5.9897,,0.323148233,-0.25,1,0,0,0,34,34,62,1,knaap,images/br_knaap.png,images/cb_knaap.png,0,,,,,,,,,,,,,,,,,,,,,,
,,,,,53500,2023-07-22_21h36.25.279,vbt_B1_day4,2022.2.4,Win32,59.95203837,53500,,,,,,down,0,3.7017,,0.323148233,-0.25,1,0,0,0,35,35,17,1,taal,images/br_taal.png,images/cb_taal.png,0,,,,,,,,,,,,,,,,,,,,,,
,,,,,53500,2023-07-22_21h36.25.279,vbt_B1_day4,2022.2.4,Win32,59.95203837,53500,,,,,,down,0,10.3197,,0.323148233,-0.25,1,0,0,0,36,36,113,1,koppen,images/br_koppen.png,images/cb_koppen.png,0,,,,,,,,,,,,,,,,,,,,,,
,,,,,53500,2023-07-22_21h36.25.279,vbt_B1_day4,2022.2.4,Win32,59.95203837,53500,,,,,,down,0,8.2188,,0.323148233,-0.25,1,0,0,0,37,37,119,1,liefje,images/br_liefje.png,images/cb_liefje.png,0,,,,,,,,,,,,,,,,,,,,,,
,,,,,53500,2023-07-22_21h36.25.279,vbt_B1_day4,2022.2.4,Win32,59.95203837,53500,,,,,,down,0,8.0223,,0.24537037,-0.191666709,1,0,0,0,38,38,36,1,vuur,images/br_vuur.png,images/cb_vuur.png,0,,,,,,,,,,,,,,,,,,,,,,
,,,,,53500,2023-07-22_21h36.25.279,vbt_B1_day4,2022.2.4,Win32,59.95203837,53500,,,,,,down,0,1.736,,0.24537037,-0.191666709,1,0,0,0,39,39,1,1,zaal,images/br_zaal.png,images/cb_zaal.png,0,,,,,,,,,,,,,,,,,,,,,,
,,,,,53500,2023-07-22_21h36.25.279,vbt_B1_day4,2022.2.4,Win32,59.95203837,53500,,,,,,down,0,3.6074,,0.24537037,-0.191666709,1,0,0,0,40,40,103,1,joggen,images/br_joggen.png,images/cb_joggen.png,0,,,,,,,,,,,,,,,,,,,,,,
,,,,,53500,2023-07-22_21h36.25.279,vbt_B1_day4,2022.2.4,Win32,59.95203837,53500,,,,,,down,0,3.2361,,0.24537037,-0.189814815,1,0,0,0,41,41,108,1,excuus,images/br_excuus.png,images/cb_excuus.png,0,,,,,,,,,,,,,,,,,,,,,,
,,,,,53500,2023-07-22_21h36.25.279,vbt_B1_day4,2022.2.4,Win32,59.95203837,53500,,,,,,down,0,4.6348,,0.24537037,-0.189814815,1,0,0,0,42,42,98,1,kreeft,images/br_kreeft.png,images/cb_kreeft.png,0,,,,,,,,,,,,,,,,,,,,,,
,,,,,53500,2023-07-22_21h36.25.279,vbt_B1_day4,2022.2.4,Win32,59.95203837,53500,,,,,,down,0,9.0588,,0.246296282,-0.189814815,1,0,0,0,43,43,40,1,schep,images/br_schep.png,images/cb_schep.png,0,,,,,,,,,,,,,,,,,,,,,,
,,,,,53500,2023-07-22_21h36.25.279,vbt_B1_day4,2022.2.4,Win32,59.95203837,53500,,,,,,down,0,6.8697,,0.247222265,-0.192592621,1,0,0,0,44,44,9,1,hier,images/br_hier.png,images/cb_hier.png,0,,,,,,,,,,,,,,,,,,,,,,
,,,,,53500,2023-07-22_21h36.25.279,vbt_B1_day4,2022.2.4,Win32,59.95203837,53500,,,,,,down,0,22.235,,0.247222265,-0.192592621,1,0,0,0,45,45,146,1,opkomen,images/br_opkomen.png,images/cb_opkomen.png,1,opko.en,,,,,,,,,,,,,,,,,,,,,
,,,,,53500,2023-07-22_21h36.25.279,vbt_B1_day4,2022.2.4,Win32,59.95203837,53500,,,,,,down,0,11.434,,0.247222265,-0.192592621,1,0,0,0,46,46,131,1,opzicht,images/br_opzicht.png,images/cb_opzicht.png,0,,,,,,,,,,,,,,,,,,,,,,
,,,,,53500,2023-07-22_21h36.25.279,vbt_B1_day4,2022.2.4,Win32,59.95203837,53500,,,,,,down,0,4.9003,,0.247222265,-0.192592621,1,0,0,0,47,47,132,1,grappen,images/br_grappen.png,images/cb_grappen.png,0,,,,,,,,,,,,,,,,,,,,,,
,,,,,53500,2023-07-22_21h36.25.279,vbt_B1_day4,2022.2.4,Win32,59.95203837,53500,,,,,,down,0,3.8673,,0.247222265,-0.192592621,1,0,0,0,48,48,48,1,steel,images/br_steel.png,images/cb_steel.png,0,,,,,,,,,,,,,,,,,,,,,,
,,,,,53500,2023-07-22_21h36.25.279,vbt_B1_day4,2022.2.4,Win32,59.95203837,53500,,,,,,down,0,15.3576,,0.247222265,-0.192592621,1,0,0,0,49,49,143,1,hechten,images/br_hechten.png,images/cb_hechten.png,0,,,,,,,,,,,,,,,,,,,,,,
,,,,,53500,2023-07-22_21h36.25.279,vbt_B1_day4,2022.2.4,Win32,59.95203837,53500,,,,,,down,0,3.3748,,0.247222265,-0.192592621,1,0,0,0,50,50,14,1,rijp,images/br_rijp.png,images/cb_rijp.png,0,,,,,,,,,,,,,,,,,,,,,,
,,,,,53500,2023-07-22_21h36.25.279,vbt_B1_day4,2022.2.4,Win32,59.95203837,53500,,,,,,down,0,17.8426,,0.247222265,-0.192592621,1,0,0,0,51,51,169,1,oprotten,images/br_oprotten.png,images/cb_oprotten.png,0,,,,,,,,,,,,,,,,,,,,,,
,,,,,53500,2023-07-22_21h36.25.279,vbt_B1_day4,2022.2.4,Win32,59.95203837,53500,,,,,,down,0,11.6181,,0.25,-0.192592621,1,0,0,0,52,52,163,1,schuilen,images/br_schuilen.png,images/cb_schuilen.png,0,,,,,,,,,,,,,,,,,,,,,,
,,,,,53500,2023-07-22_21h36.25.279,vbt_B1_day4,2022.2.4,Win32,59.95203837,53500,,,,,,down,0,6.6269,,0.25,-0.192592621,1,0,0,0,53,53,46,1,jagen,images/br_jagen.png,images/cb_jagen.png,0,,,,,,,,,,,,,,,,,,,,,,
,,,,,53500,2023-07-22_21h36.25.279,vbt_B1_day4,2022.2.4,Win32,59.95203837,53500,,,,,,down,0,5.9858,,0.25,-0.192592621,1,0,0,0,54,54,4,1,moes,images/br_moes.png,images/cb_moes.png,0,,,,,,,,,,,,,,,,,,,,,,
,,,,,53500,2023-07-22_21h36.25.279,vbt_B1_day4,2022.2.4,Win32,59.95203837,53500,,,,,,down,0,1.6932,,0.25,-0.192592621,1,0,0,0,55,55,39,1,laag,images/br_laag.png,images/cb_laag.png,0,,,,,,,,,,,,,,,,,,,,,,
,,,,,53500,2023-07-22_21h36.25.279,vbt_B1_day4,2022.2.4,Win32,59.95203837,53500,,,,,,down,0,5.1215,,0.226851852,-0.213888875,1,0,0,0,56,56,123,1,hiervan,images/br_hiervan.png,images/cb_hiervan.png,0,,,,,,,,,,,,,,,,,,,,,,
,,,,,53500,2023-07-22_21h36.25.279,vbt_B1_day4,2022.2.4,Win32,59.95203837,53500,,,,,,down,0,4.8022,,0.226851852,-0.213888875,1,0,0,0,57,57,134,1,geliefd,images/br_geliefd.png,images/cb_geliefd.png,0,,,,,,,,,,,,,,,,,,,,,,
,,,,,53500,2023-07-22_21h36.25.279,vbt_B1_day4,2022.2.4,Win32,59.95203837,53500,,,,,,down,0,4.2346,,0.226851852,-0.213888875,1,0,0,0,58,58,166,1,strikken,images/br_strikken.png,images/cb_strikken.png,0,,,,,,,,,,,,,,,,,,,,,,
,,,,,53500,2023-07-22_21h36.25.279,vbt_B1_day4,2022.2.4,Win32,59.95203837,53500,,,,,,down,0,6.6778,,0.226851852,-0.213888875,1,0,0,0,59,59,136,1,waarbij,images/br_waarbij.png,images/cb_waarbij.png,0,,,,,,,,,,,,,,,,,,,,,,
,,,,,53500,2023-07-22_21h36.25.279,vbt_B1_day4,2022.2.4,Win32,59.95203837,53500,,,,,,down,0,6.6243,,0.226851852,-0.030555548,1,0,0,0,60,60,21,1,mist,images/br_mist.png,images/cb_mist.png,0,,,,,,,,,,,,,,,,,,,,,,
,,,,,53500,2023-07-22_21h36.25.279,vbt_B1_day4,2022.2.4,Win32,59.95203837,53500,,,,,,down,0,4.8363,,0.226851852,-0.030555548,1,0,0,0,61,61,90,1,geluid,images/br_geluid.png,images/cb_geluid.png,0,,,,,,,,,,,,,,,,,,,,,,
,,,,,53500,2023-07-22_21h36.25.279,vbt_B1_day4,2022.2.4,Win32,59.95203837,53500,,,,,,down,0,4.8932,,0.226851852,-0.030555548,1,0,0,0,62,62,99,1,koffie,images/br_koffie.png,images/cb_koffie.png,0,,,,,,,,,,,,,,,,,,,,,,
,,,,,53500,2023-07-22_21h36.25.279,vbt_B1_day4,2022.2.4,Win32,59.95203837,53500,,,,,,down,0,13.3344,,0.191666709,-0.175000014,1,0,0,0,63,63,151,1,aanzoek,images/br_aanzoek.png,images/cb_aanzoek.png,0,,,,,,,,,,,,,,,,,,,,,,
,,,,,53500,2023-07-22_21h36.25.279,vbt_B1_day4,2022.2.4,Win32,59.95203837,53500,,,,,,down,0,9.6512,,0.195370356,-0.178703732,1,0,0,0,64,64,34,1,vorm,images/br_vorm.png,images/cb_vorm.png,0,,,,,,,,,,,,,,,,,,,,,,
,,,,,53500,2023-07-22_21h36.25.279,vbt_B1_day4,2022.2.4,Win32,59.95203837,53500,,,,,,down,0,11.0868,,0.195370356,-0.178703732,1,0,0,0,65,65,80,1,kanjer,images/br_kanjer.png,images/cb_kanjer.png,0,,,,,,,,,,,,,,,,,,,,,,
,,,,,53500,2023-07-22_21h36.25.279,vbt_B1_day4,2022.2.4,Win32,59.95203837,53500,,,,,,down,0,10.0347,,0.195370356,-0.178703732,1,0,0,0,66,66,168,1,bisschop,images/br_bisschop.png,images/cb_bisschop.png,0,,,,,,,,,,,,,,,,,,,,,,
,,,,,53500,2023-07-22_21h36.25.279,vbt_B1_day4,2022.2.4,Win32,59.95203837,53500,,,,,,down,0,7.1594,,0.195370356,-0.178703732,1,0,0,0,67,67,24,1,jurk,images/br_jurk.png,images/cb_jurk.png,1,jurk,,,,,,,,,,,,,,,,,,,,,
,,,,,53500,2023-07-22_21h36.25.279,vbt_B1_day4,2022.2.4,Win32,59.95203837,53500,,,,,,down,0,5.491,,0.195370356,-0.178703732,1,0,0,0,68,68,180,1,openbaar,images/br_openbaar.png,images/cb_openbaar.png,0,,,,,,,,,,,,,,,,,,,,,,
,,,,,53500,2023-07-22_21h36.25.279,vbt_B1_day4,2022.2.4,Win32,59.95203837,53500,,,,,,down,0,7.3354,,0.195370356,-0.178703732,1,0,0,0,69,69,160,1,daarheen,images/br_daarheen.png,images/cb_daarheen.png,0,,,,,,,,,,,,,,,,,,,,,,
,,,,,53500,2023-07-22_21h36.25.279,vbt_B1_day4,2022.2.4,Win32,59.95203837,53500,,,,,,down,0,4.0684,,0.127777806,-0.226851852,1,0,0,0,70,70,41,1,maken,images/br_maken.png,images/cb_maken.png,0,,,,,,,,,,,,,,,,,,,,,,
,,,,,53500,2023-07-22_21h36.25.279,vbt_B1_day4,2022.2.4,Win32,59.95203837,53500,,,,,,down,0,6.5555,,0.127777806,-0.226851852,1,0,0,0,71,71,125,1,aanzien,images/br_aanzien.png,images/cb_aanzien.png,0,,,,,,,,,,,,,,,,,,,,,,
,,,,,53500,2023-07-22_21h36.25.279,vbt_B1_day4,2022.2.4,Win32,59.95203837,53500,,,,,,down,0,2.4402,,0.127777806,-0.226851852,1,0,0,0,72,72,6,1,diep,images/br_diep.png,images/cb_diep.png,0,,,,,,,,,,,,,,,,,,,,,,
,,,,,53500,2023-07-22_21h36.25.279,vbt_B1_day4,2022.2.4,Win32,59.95203837,53500,,,,,,down,0,2.6021,,0.127777806,-0.226851852,1,0,0,0,73,73,38,1,baai,images/br_baai.png,images/cb_baai.png,0,,,,,,,,,,,,,,,,,,,,,,
,,,,,53500,2023-07-22_21h36.25.279,vbt_B1_day4,2022.2.4,Win32,59.95203837,53500,,,,,,down,0,0.9211,,0.127777806,-0.226851852,1,0,0,0,74,74,19,1,geit,images/br_geit.png,images/cb_geit.png,0,,,,,,,,,,,,,,,,,,,,,,
,,,,,53500,2023-07-22_21h36.25.279,vbt_B1_day4,2022.2.4,Win32,59.95203837,53500,,,,,,down,0,3.3338,,0.127777806,-0.226851852,1,0,0,0,75,75,192,1,schaamte,images/br_schaamte.png,images/cb_schaamte.png,0,,,,,,,,,,,,,,,,,,,,,,
,,,,,53500,2023-07-22_21h36.25.279,vbt_B1_day4,2022.2.4,Win32,59.95203837,53500,,,,,,down,0,1.7753,,0.127777806,-0.226851852,1,0,0,0,76,76,164,1,anarchie,images/br_anarchie.png,images/cb_anarchie.png,0,,,,,,,,,,,,,,,,,,,,,,
,,,,,53500,2023-07-22_21h36.25.279,vbt_B1_day4,2022.2.4,Win32,59.95203837,53500,,,,,,down,0,4.4025,,0.127777806,-0.226851852,1,0,0,0,77,77,171,1,aarzelen,images/br_aarzelen.png,images/cb_aarzelen.png,0,,,,,,,,,,,,,,,,,,,,,,
,,,,,53500,2023-07-22_21h36.25.279,vbt_B1_day4,2022.2.4,Win32,59.95203837,53500,,,,,,down,0,1.1681,,0.127777806,-0.226851852,1,0,0,0,78,78,0,1,slak,images/br_slak.png,images/cb_slak.png,0,,,,,,,,,,,,,,,,,,,,,,
,,,,,53500,2023-07-22_21h36.25.279,vbt_B1_day4,2022.2.4,Win32,59.95203837,53500,,,,,,down,0,3.7677,,0.127777806,-0.226851852,1,0,0,0,79,79,170,1,schatten,images/br_schatten.png,images/cb_schatten.png,0,,,,,,,,,,,,,,,,,,,,,,
,,,,,53500,2023-07-22_21h36.25.279,vbt_B1_day4,2022.2.4,Win32,59.95203837,53500,,,,,,down,0,0.2373,,0.127777806,-0.226851852,1,0,0,0,80,80,92,1,geheim,images/br_geheim.png,images/cb_geheim.png,0,,,,,,,,,,,,,,,,,,,,,,
,,,,,53500,2023-07-22_21h36.25.279,vbt_B1_day4,2022.2.4,Win32,59.95203837,53500,,,,,,down,0,2.0866,,0.303703732,-0.082407422,1,0,0,0,81,81,179,1,woestijn,images/br_woestijn.png,images/cb_woestijn.png,0,,,,,,,,,,,,,,,,,,,,,,
,,,,,53500,2023-07-22_21h36.25.279,vbt_B1_day4,2022.2.4,Win32,59.95203837,53500,,,,,,down,0,2.121,,0.303703732,-0.082407422,1,0,0,0,82,82,12,1,kust,images/br_kust.png,images/cb_kust.png,0,,,,,,,,,,,,,,,,,,,,,,
,,,,,53500,2023-07-22_21h36.25.279,vbt_B1_day4,2022.2.4,Win32,59.95203837,53500,,,,,,down,0,5.6173,,0.268518519,-0.073148162,1,0,0,0,83,83,42,1,bleek,images/br_bleek.png,images/cb_bleek.png,0,,,,,,,,,,,,,,,,,,,,,,
,,,,,53500,2023-07-22_21h36.25.279,vbt_B1_day4,2022.2.4,Win32,59.95203837,53500,,,,,,down,0,1.6524,,0.268518519,-0.073148162,1,0,0,0,84,84,85,1,heilig,images/br_heilig.png,images/cb_heilig.png,0,,,,,,,,,,,,,,,,,,,,,,
,,,,,53500,2023-07-22_21h36.25.279,vbt_B1_day4,2022.2.4,Win32,59.95203837,53500,,,,,,down,0,10.1348,,0.268518519,-0.073148162,1,0,0,0,85,85,191,1,opheffen,images/br_opheffen.png,images/cb_opheffen.png,0,,,,,,,,,,,,,,,,,,,,,,
,,,,,53500,2023-07-22_21h36.25.279,vbt_B1_day4,2022.2.4,Win32,59.95203837,53500,,,,,,down,0,8.8901,,0.268518519,-0.073148162,1,0,0,0,86,86,60,1,jasje,images/br_jasje.png,images/cb_jasje.png,0,,,,,,,,,,,,,,,,,,,,,,
,,,,,53500,2023-07-22_21h36.25.279,vbt_B1_day4,2022.2.4,Win32,59.95203837,53500,,,,,,down,0,3.3176,,0.223148134,-0.098148134,1,0,0,0,87,87,194,1,driemaal,images/br_driemaal.png,images/cb_driemaal.png,0,,,,,,,,,,,,,,,,,,,,,,
,,,,,53500,2023-07-22_21h36.25.279,vbt_B1_day4,2022.2.4,Win32,59.95203837,53500,,,,,,down,0,3.7344,,0.223148134,-0.098148134,1,0,0,0,88,88,25,1,plek,images/br_plek.png,images/cb_plek.png,1,plek,,,,,,,,,,,,,,,,,,,,,
,,,,,53500,2023-07-22_21h36.25.279,vbt_B1_day4,2022.2.4,Win32,59.95203837,53500,,,,,,down,0,6.6382,,0.223148134,-0.098148134,1,0,0,0,89,89,156,1,rechten,images/br_rechten.png,images/cb_rechten.png,0,,,,,,,,,,,,,,,,,,,,,,
,,,,,53500,2023-07-22_21h36.25.279,vbt_B1_day4,2022.2.4,Win32,59.95203837,53500,,,,,,down,0,9.524,,0.223148134,-0.098148134,1,0,0,0,90,90,154,1,aflopen,images/br_aflopen.png,images/cb_aflopen.png,0,,,,,,,,,,,,,,,,,,,,,,
,,,,,53500,2023-07-22_21h36.25.279,vbt_B1_day4,2022.2.4,Win32,59.95203837,53500,,,,,,down,0,6.3843,,0.222222222,-0.098148134,1,0,0,0,91,91,162,1,uitdelen,images/br_uitdelen.png,images/cb_uitdelen.png,0,,,,,,,,,,,,,,,,,,,,,,
,,,,,53500,2023-07-22_21h36.25.279,vbt_B1_day4,2022.2.4,Win32,59.95203837,53500,,,,,,down,0,1.7093,,0.222222222,-0.098148134,1,0,0,0,92,92,23,1,zout,images/br_zout.png,images/cb_zout.png,0,,,,,,,,,,,,,,,,,,,,,,
,,,,,53500,2023-07-22_21h36.25.279,vbt_B1_day4,2022.2.4,Win32,59.95203837,53500,,,,,,down,0,3.384,,0.222222222,-0.098148134,1,0,0,0,93,93,61,1,groen,images/br_groen.png,images/cb_groen.png,0,,,,,,,,,,,,,,,,,,,,,,
,,,,,53500,2023-07-22_21h36.25.279,vbt_B1_day4,2022.2.4,Win32,59.95203837,53500,,,,,,down,0,3.9691,,0.222222222,-0.098148134,1,0,0,0,94,94,114,1,vullen,images/br_vullen.png,images/cb_vullen.png,0,,,,,,,,,,,,,,,,,,,,,,
,,,,,53500,2023-07-22_21h36.25.279,vbt_B1_day4,2022.2.4,Win32,59.95203837,53500,,,,,,down,0,4.0026,,0.222222222,-0.098148134,1,0,0,0,95,95,86,1,woning,images/br_woning.png,images/cb_woning.png,0,,,,,,,,,,,,,,,,,,,,,,
,,,,,53500,2023-07-22_21h36.25.279,vbt_B1_day4,2022.2.4,Win32,59.95203837,53500,,,,,,down,0,5.8394,,0.222222222,-0.098148134,1,0,0,0,96,96,63,1,flirt,images/br_flirt.png,images/cb_flirt.png,0,,,,,,,,,,,,,,,,,,,,,,
,,,,,53500,2023-07-22_21h36.25.279,vbt_B1_day4,2022.2.4,Win32,59.95203837,53500,,,,,,down,0,4.5006,,0.211111139,-0.099074116,1,0,0,0,97,97,189,1,aanraden,images/br_aanraden.png,images/cb_aanraden.png,0,,,,,,,,,,,,,,,,,,,,,,
,,,,,53500,2023-07-22_21h36.25.279,vbt_B1_day4,2022.2.4,Win32,59.95203837,53500,,,,,,down,0,3.7013,,0.211111139,-0.099074116,1,0,0,0,98,98,82,1,muziek,images/br_muziek.png,images/cb_muziek.png,0,,,,,,,,,,,,,,,,,,,,,,
,,,,,53500,2023-07-22_21h36.25.279,vbt_B1_day4,2022.2.4,Win32,59.95203837,53500,,,,,,down,0,3.819,,0.229629658,-0.205555598,1,0,0,0,99,99,55,1,praat,images/br_praat.png,images/cb_praat.png,0,,,,,,,,,,,,,,,,,,,,,,
,,,,,53500,2023-07-22_21h36.25.279,vbt_B1_day4,2022.2.4,Win32,59.95203837,53500,,,,,,down,0,20.0107,,0.432407379,-0.034259266,1,0,0,0,100,100,27,1,dans,images/br_dans.png,images/cb_dans.png,1,dans,,,,,,,,,,,,,,,,,,,,,
,,,,,53500,2023-07-22_21h36.25.279,vbt_B1_day4,2022.2.4,Win32,59.95203837,53500,,,,,,down,0,6.6999,,0.432407379,-0.034259266,1,0,0,0,101,101,152,1,afnemen,images/br_afnemen.png,images/cb_afnemen.png,0,,,,,,,,,,,,,,,,,,,,,,
,,,,,53500,2023-07-22_21h36.25.279,vbt_B1_day4,2022.2.4,Win32,59.95203837,53500,,,,,,down,0,7.485,,0.432407379,-0.034259266,1,0,0,0,102,102,7,1,geld,images/br_geld.png,images/cb_geld.png,0,,,,,,,,,,,,,,,,,,,,,,
,,,,,53500,2023-07-22_21h36.25.279,vbt_B1_day4,2022.2.4,Win32,59.95203837,53500,,,,,,down,0,9.1732,,0.432407379,-0.034259266,1,0,0,0,103,103,150,1,gegeven,images/br_gegeven.png,images/cb_gegeven.png,0,,,,,,,,,,,,,,,,,,,,,,
,,,,,53500,2023-07-22_21h36.25.279,vbt_B1_day4,2022.2.4,Win32,59.95203837,53500,,,,,,down,0,12.0179,,0.432407379,-0.034259266,1,0,0,0,104,104,70,1,ijdel,images/br_ijdel.png,images/cb_ijdel.png,0,,,,,,,,,,,,,,,,,,,,,,
,,,,,53500,2023-07-22_21h36.25.279,vbt_B1_day4,2022.2.4,Win32,59.95203837,53500,,,,,,down,0,3.3352,,0.350926011,-0.025925919,1,0,0,0,105,105,28,1,stal,images/br_stal.png,images/cb_stal.png,0,,,,,,,,,,,,,,,,,,,,,,
,,,,,53500,2023-07-22_21h36.25.279,vbt_B1_day4,2022.2.4,Win32,59.95203837,53500,,,,,,down,0,3.65,,0.350926011,-0.025925919,1,0,0,0,106,106,95,1,vreten,images/br_vreten.png,images/cb_vreten.png,0,,,,,,,,,,,,,,,,,,,,,,
,,,,,53500,2023-07-22_21h36.25.279,vbt_B1_day4,2022.2.4,Win32,59.95203837,53500,,,,,,down,0,3.2846,,0.350926011,-0.025925919,1,0,0,0,107,107,165,1,feestdag,images/br_feestdag.png,images/cb_feestdag.png,0,,,,,,,,,,,,,,,,,,,,,,
,,,,,53500,2023-07-22_21h36.25.279,vbt_B1_day4,2022.2.4,Win32,59.95203837,53500,,,,,,down,0,3.7544,,0.350926011,-0.025925919,1,0,0,0,108,108,5,1,blad,images/br_blad.png,images/cb_blad.png,0,,,,,,,,,,,,,,,,,,,,,,
,,,,,53500,2023-07-22_21h36.25.279,vbt_B1_day4,2022.2.4,Win32,59.95203837,53500,,,,,,down,0,3.1841,,0.350926011,-0.025925919,1,0,0,0,109,109,159,1,sufferd,images/br_sufferd.png,images/cb_sufferd.png,0,,,,,,,,,,,,,,,,,,,,,,
,,,,,53500,2023-07-22_21h36.25.279,vbt_B1_day4,2022.2.4,Win32,59.95203837,53500,,,,,,down,0,1.0241,,0.350926011,-0.025925919,1,0,0,0,110,110,79,1,nodig,images/br_nodig.png,images/cb_nodig.png,0,,,,,,,,,,,,,,,,,,,,,,
,,,,,53500,2023-07-22_21h36.25.279,vbt_B1_day4,2022.2.4,Win32,59.95203837,53500,,,,,,down,0,4.4921,,0.350926011,-0.025925919,1,0,0,0,111,111,68,1,schat,images/br_schat.png,images/cb_schat.png,0,,,,,,,,,,,,,,,,,,,,,,
,,,,,53500,2023-07-22_21h36.25.279,vbt_B1_day4,2022.2.4,Win32,59.95203837,53500,,,,,,down,0,5.7669,,0.350926011,-0.025925919,1,0,0,0,112,112,120,1,klimmen,images/br_klimmen.png,images/cb_klimmen.png,0,,,,,,,,,,,,,,,,,,,,,,
,,,,,53500,2023-07-22_21h36.25.279,vbt_B1_day4,2022.2.4,Win32,59.95203837,53500,,,,,,down,0,5.2672,,0.27407406,-0.162962949,1,0,0,0,113,113,138,1,akkoord,images/br_akkoord.png,images/cb_akkoord.png,0,,,,,,,,,,,,,,,,,,,,,,
,,,,,53500,2023-07-22_21h36.25.279,vbt_B1_day4,2022.2.4,Win32,59.95203837,53500,,,,,,down,0,20.8677,,0.162037037,-0.140740783,1,0,0,0,114,114,104,1,zweven,images/br_zweven.png,images/cb_zweven.png,1,zweven,,,,,,,,,,,,,,,,,,,,,
,,,,,53500,2023-07-22_21h36.25.279,vbt_B1_day4,2022.2.4,Win32,59.95203837,53500,,,,,,down,0,4.5842,,0.162037037,-0.140740783,1,0,0,0,115,115,81,1,dubbel,images/br_dubbel.png,images/cb_dubbel.png,0,,,,,,,,,,,,,,,,,,,,,,
,,,,,53500,2023-07-22_21h36.25.279,vbt_B1_day4,2022.2.4,Win32,59.95203837,53500,,,,,,down,0,3.3848,,0.162037037,-0.140740783,1,0,0,0,116,116,3,1,mand,images/br_mand.png,images/cb_mand.png,0,,,,,,,,,,,,,,,,,,,,,,
,,,,,53500,2023-07-22_21h36.25.279,vbt_B1_day4,2022.2.4,Win32,59.95203837,53500,,,,,,down,0,1.444,,0.162037037,-0.140740783,1,0,0,0,117,117,182,1,bijkomen,images/br_bijkomen.png,images/cb_bijkomen.png,0,,,,,,,,,,,,,,,,,,,,,,
,,,,,53500,2023-07-22_21h36.25.279,vbt_B1_day4,2022.2.4,Win32,59.95203837,53500,,,,,,down,0,2.7676,,0.162037037,-0.140740783,1,0,0,0,118,118,121,1,twijfel,images/br_twijfel.png,images/cb_twijfel.png,0,,,,,,,,,,,,,,,,,,,,,,
,,,,,53500,2023-07-22_21h36.25.279,vbt_B1_day4,2022.2.4,Win32,59.95203837,53500,,,,,,down,0,18.0033,,0.162037037,-0.140740783,1,0,0,0,119,119,185,1,mijnheer,images/br_mijnheer.png,images/cb_mijnheer.png,1,mijnheer,,,,,,,,,,,,,,,,,,,,,
,,,,,53500,2023-07-22_21h36.25.279,vbt_B1_day4,2022.2.4,Win32,59.95203837,53500,,,,,,down,0,5.5209,,0.12037037,-0.152777778,1,0,0,0,120,120,93,1,waarop,images/br_waarop.png,images/cb_waarop.png,0,,,,,,,,,,,,,,,,,,,,,,
,,,,,53500,2023-07-22_21h36.25.279,vbt_B1_day4,2022.2.4,Win32,59.95203837,53500,,,,,,down,0,1.8769,,0.12037037,-0.152777778,1,0,0,0,121,121,54,1,gebit,images/br_gebit.png,images/cb_gebit.png,0,,,,,,,,,,,,,,,,,,,,,,
,,,,,53500,2023-07-22_21h36.25.279,vbt_B1_day4,2022.2.4,Win32,59.95203837,53500,,,,,,down,0,1.6174,,0.12037037,-0.152777778,1,0,0,0,122,122,87,1,toeval,images/br_toeval.png,images/cb_toeval.png,0,,,,,,,,,,,,,,,,,,,,,,
,,,,,53500,2023-07-22_21h36.25.279,vbt_B1_day4,2022.2.4,Win32,59.95203837,53500,,,,,,down,0,2.753,,0.12037037,-0.152777778,1,0,0,0,123,123,142,1,snuiven,images/br_snuiven.png,images/cb_snuiven.png,0,,,,,,,,,,,,,,,,,,,,,,
,,,,,53500,2023-07-22_21h36.25.279,vbt_B1_day4,2022.2.4,Win32,59.95203837,53500,,,,,,down,0,3.8333,,0.12037037,-0.152777778,1,0,0,0,124,124,115,1,kleren,images/br_kleren.png,images/cb_kleren.png,0,,,,,,,,,,,,,,,,,,,,,,
,,,,,53500,2023-07-22_21h36.25.279,vbt_B1_day4,2022.2.4,Win32,59.95203837,53500,,,,,,down,0,2.8003,,0.12037037,-0.152777778,1,0,0,0,125,125,78,1,leren,images/br_leren.png,images/cb_leren.png,0,,,,,,,,,,,,,,,,,,,,,,
,,,,,53500,2023-07-22_21h36.25.279,vbt_B1_day4,2022.2.4,Win32,59.95203837,53500,,,,,,down,0,3.7337,,0.12037037,-0.152777778,1,0,0,0,126,126,176,1,techniek,images/br_techniek.png,images/cb_techniek.png,0,,,,,,,,,,,,,,,,,,,,,,
,,,,,53500,2023-07-22_21h36.25.279,vbt_B1_day4,2022.2.4,Win32,59.95203837,53500,,,,,,down,0,0.7021,,0.12037037,-0.152777778,1,0,0,0,127,127,157,1,uitlaat,images/br_uitlaat.png,images/cb_uitlaat.png,0,,,,,,,,,,,,,,,,,,,,,,
,,,,,53500,2023-07-22_21h36.25.279,vbt_B1_day4,2022.2.4,Win32,59.95203837,53500,,,,,,down,0,4.5569,,0.12037037,-0.152777778,1,0,0,0,128,128,83,1,mening,images/br_mening.png,images/cb_mening.png,0,,,,,,,,,,,,,,,,,,,,,,
,,,,,53500,2023-07-22_21h36.25.279,vbt_B1_day4,2022.2.4,Win32,59.95203837,53500,,,,,,down,0,6.7077,,0.12037037,-0.15370369,1,0,0,0,129,129,65,1,parel,images/br_parel.png,images/cb_parel.png,1,parel,,,,,,,,,,,,,,,,,,,,,
,,,,,53500,2023-07-22_21h36.25.279,vbt_B1_day4,2022.2.4,Win32,59.95203837,53500,,,,,,down,0,0.388,,0.12037037,-0.15370369,1,0,0,0,130,130,177,1,maaltijd,images/br_maaltijd.png,images/cb_maaltijd.png,0,,,,,,,,,,,,,,,,,,,,,,
,,,,,53500,2023-07-22_21h36.25.279,vbt_B1_day4,2022.2.4,Win32,59.95203837,53500,,,,,,down,0,2.8737,,0.349074046,-0.069444444,1,0,0,0,131,131,56,1,traag,images/br_traag.png,images/cb_traag.png,0,,,,,,,,,,,,,,,,,,,,,,
,,,,,53500,2023-07-22_21h36.25.279,vbt_B1_day4,2022.2.4,Win32,59.95203837,53500,,,,,,down,0,1.3881,,0.349074046,-0.069444444,1,0,0,0,132,132,118,1,vinger,images/br_vinger.png,images/cb_vinger.png,0,,,,,,,,,,,,,,,,,,,,,,
,,,,,53500,2023-07-22_21h36.25.279,vbt_B1_day4,2022.2.4,Win32,59.95203837,53500,,,,,,down,0,3.5872,,0.328703704,-0.146296325,1,0,0,0,133,133,91,1,gezond,images/br_gezond.png,images/cb_gezond.png,0,,,,,,,,,,,,,,,,,,,,,,
,,,,,53500,2023-07-22_21h36.25.279,vbt_B1_day4,2022.2.4,Win32,59.95203837,53500,,,,,,down,0,8.559,,0.330555527,-0.143518519,1,0,0,0,134,134,110,1,zuster,images/br_zuster.png,images/cb_zuster.png,0,,,,,,,,,,,,,,,,,,,,,,
,,,,,53500,2023-07-22_21h36.25.279,vbt_B1_day4,2022.2.4,Win32,59.95203837,53500,,,,,,down,0,4.1901,,0.338888945,-0.14907406,1,0,0,0,135,135,47,1,kabel,images/br_kabel.png,images/cb_kabel.png,0,,,,,,,,,,,,,,,,,,,,,,
,,,,,53500,2023-07-22_21h36.25.279,vbt_B1_day4,2022.2.4,Win32,59.95203837,53500,,,,,,down,0,4.8697,,0.338888945,-0.14907406,1,0,0,0,136,136,135,1,gedicht,images/br_gedicht.png,images/cb_gedicht.png,0,,,,,,,,,,,,,,,,,,,,,,
,,,,,53500,2023-07-22_21h36.25.279,vbt_B1_day4,2022.2.4,Win32,59.95203837,53500,,,,,,down,0,1.6506,,0.337962963,-0.151851866,1,0,0,0,137,137,173,1,apparaat,images/br_apparaat.png,images/cb_apparaat.png,0,,,,,,,,,,,,,,,,,,,,,,
,,,,,53500,2023-07-22_21h36.25.279,vbt_B1_day4,2022.2.4,Win32,59.95203837,53500,,,,,,down,0,3.7868,,0.337962963,-0.151851866,1,0,0,0,138,138,161,1,attentie,images/br_attentie.png,images/cb_attentie.png,0,,,,,,,,,,,,,,,,,,,,,,
,,,,,53500,2023-07-22_21h36.25.279,vbt_B1_day4,2022.2.4,Win32,59.95203837,53500,,,,,,down,0,4.9859,,0.340740769,-0.154629672,1,0,0,0,139,139,102,1,legaal,images/br_legaal.png,images/cb_legaal.png,0,,,,,,,,,,,,,,,,,,,,,,
,,,,,53500,2023-07-22_21h36.25.279,vbt_B1_day4,2022.2.4,Win32,59.95203837,53500,,,,,,down,0,7.342,,0.248148176,-0.087962963,1,0,0,0,140,140,167,1,eenhoorn,images/br_eenhoorn.png,images/cb_eenhoorn.png,0,,,,,,,,,,,,,,,,,,,,,,
,,,,,53500,2023-07-22_21h36.25.279,vbt_B1_day4,2022.2.4,Win32,59.95203837,53500,,,,,,down,0,8.4869,,0.27870369,-0.131481524,1,0,0,0,141,141,144,1,eetlust,images/br_eetlust.png,images/cb_eetlust.png,1,eetlust,,,,,,,,,,,,,,,,,,,,,
,,,,,53500,2023-07-22_21h36.25.279,vbt_B1_day4,2022.2.4,Win32,59.95203837,53500,,,,,,down,0,1.5215,,0.27870369,-0.131481524,1,0,0,0,142,142,193,1,weeshuis,images/br_weeshuis.png,images/cb_weeshuis.png,0,,,,,,,,,,,,,,,,,,,,,,
,,,,,53500,2023-07-22_21h36.25.279,vbt_B1_day4,2022.2.4,Win32,59.95203837,53500,,,,,,down,0,9.3563,,0.126851894,-0.124074088,1,0,0,0,143,143,106,1,zingen,images/br_zingen.png,images/cb_zingen.png,1,zingen,,,,,,,,,,,,,,,,,,,,,
,,,,,53500,2023-07-22_21h36.25.279,vbt_B1_day4,2022.2.4,Win32,59.95203837,53500,,,,,,down,0,2.6511,,0.126851894,-0.124074088,1,0,0,0,144,144,116,1,besmet,images/br_besmet.png,images/cb_besmet.png,0,,,,,,,,,,,,,,,,,,,,,,
,,,,,53500,2023-07-22_21h36.25.279,vbt_B1_day4,2022.2.4,Win32,59.95203837,53500,,,,,,down,0,6.9007,,0.126851894,-0.124074088,1,0,0,0,145,145,101,1,staren,images/br_staren.png,images/cb_staren.png,0,,,,,,,,,,,,,,,,,,,,,,
,,,,,53500,2023-07-22_21h36.25.279,vbt_B1_day4,2022.2.4,Win32,59.95203837,53500,,,,,,down,0,3.2417,,0.107407393,-0.163888931,1,0,0,0,146,146,15,1,soda,images/br_soda.png,images/cb_soda.png,0,,,,,,,,,,,,,,,,,,,,,,
,,,,,53500,2023-07-22_21h36.25.279,vbt_B1_day4,2022.2.4,Win32,59.95203837,53500,,,,,,down,0,2.7344,,0.101851852,-0.173148191,1,0,0,0,147,147,18,1,blik,images/br_blik.png,images/cb_blik.png,0,,,,,,,,,,,,,,,,,,,,,,
,,,,,53500,2023-07-22_21h36.25.279,vbt_B1_day4,2022.2.4,Win32,59.95203837,53500,,,,,,down,0,3.7442,,-0.00462963,-0.10092594,1,0,0,0,148,148,139,1,stiekem,images/br_stiekem.png,images/cb_stiekem.png,0,,,,,,,,,,,,,,,,,,,,,,
,,,,,53500,2023-07-22_21h36.25.279,vbt_B1_day4,2022.2.4,Win32,59.95203837,53500,,,,,,down,0,2.4031,,-0.00462963,-0.10092594,1,0,0,0,149,149,45,1,piste,images/br_piste.png,images/cb_piste.png,0,,,,,,,,,,,,,,,,,,,,,,
,,,,,53500,2023-07-22_21h36.25.279,vbt_B1_day4,2022.2.4,Win32,59.95203837,53500,,,,,,down,0,5.8414,,-0.00462963,-0.10092594,1,0,0,0,150,150,100,1,geduld,images/br_geduld.png,images/cb_geduld.png,0,,,,,,,,,,,,,,,,,,,,,,
,,,,,53500,2023-07-22_21h36.25.279,vbt_B1_day4,2022.2.4,Win32,59.95203837,53500,,,,,,down,0,3.6234,,-0.00462963,-0.10092594,1,0,0,0,151,151,76,1,afval,images/br_afval.png,images/cb_afval.png,0,,,,,,,,,,,,,,,,,,,,,,
,,,,,53500,2023-07-22_21h36.25.279,vbt_B1_day4,2022.2.4,Win32,59.95203837,53500,,,,,,down,0,7.0357,,-0.005555541,-0.101851852,1,0,0,0,152,152,140,1,blijven,images/br_blijven.png,images/cb_blijven.png,0,,,,,,,,,,,,,,,,,,,,,,
,,,,,53500,2023-07-22_21h36.25.279,vbt_B1_day4,2022.2.4,Win32,59.95203837,53500,,,,,,down,0,4.5916,,-0.005555541,-0.101851852,1,0,0,0,153,153,111,1,ticket,images/br_ticket.png,images/cb_ticket.png,0,,,,,,,,,,,,,,,,,,,,,,
,,,,,53500,2023-07-22_21h36.25.279,vbt_B1_day4,2022.2.4,Win32,59.95203837,53500,,,,,,down,0,2.7516,,-0.005555541,-0.101851852,1,0,0,0,154,154,188,1,strekken,images/br_strekken.png,images/cb_strekken.png,0,,,,,,,,,,,,,,,,,,,,,,
,,,,,53500,2023-07-22_21h36.25.279,vbt_B1_day4,2022.2.4,Win32,59.95203837,53500,,,,,,down,0,2.6879,,-0.005555541,-0.101851852,1,0,0,0,155,155,52,1,wagon,images/br_wagon.png,images/cb_wagon.png,0,,,,,,,,,,,,,,,,,,,,,,
,,,,,53500,2023-07-22_21h36.25.279,vbt_B1_day4,2022.2.4,Win32,59.95203837,53500,,,,,,down,0,1.0086,,-0.005555541,-0.101851852,1,0,0,0,156,156,175,1,heengaan,images/br_heengaan.png,images/cb_heengaan.png,0,,,,,,,,,,,,,,,,,,,,,,
,,,,,53500,2023-07-22_21h36.25.279,vbt_B1_day4,2022.2.4,Win32,59.95203837,53500,,,,,,down,0,9.6948,,-0.005555541,-0.101851852,1,0,0,0,157,157,174,1,stemming,images/br_stemming.png,images/cb_stemming.png,0,,,,,,,,,,,,,,,,,,,,,,
,,,,,53500,2023-07-22_21h36.25.279,vbt_B1_day4,2022.2.4,Win32,59.95203837,53500,,,,,,down,0,0.7242,,-0.005555541,-0.101851852,1,0,0,0,158,158,71,1,bever,images/br_bever.png,images/cb_bever.png,0,,,,,,,,,,,,,,,,,,,,,,
,,,,,53500,2023-07-22_21h36.25.279,vbt_B1_day4,2022.2.4,Win32,59.95203837,53500,,,,,,down,0,1.2259,,-0.005555541,-0.101851852,1,0,0,0,159,159,178,1,huisdier,images/br_huisdier.png,images/cb_huisdier.png,0,,,,,,,,,,,,,,,,,,,,,,
,,,,,53500,2023-07-22_21h36.25.279,vbt_B1_day4,2022.2.4,Win32,59.95203837,53500,,,,,,down,0,2.6378,,0.216666681,-0.175925926,1,0,0,0,160,160,181,1,toegeven,images/br_toegeven.png,images/cb_toegeven.png,0,,,,,,,,,,,,,,,,,,,,,,
,,,,,53500,2023-07-22_21h36.25.279,vbt_B1_day4,2022.2.4,Win32,59.95203837,53500,,,,,,down,0,1.2589,,0.216666681,-0.175925926,1,0,0,0,161,161,16,1,ziek,images/br_ziek.png,images/cb_ziek.png,0,,,,,,,,,,,,,,,,,,,,,,
,,,,,53500,2023-07-22_21h36.25.279,vbt_B1_day4,2022.2.4,Win32,59.95203837,53500,,,,,,down,0,2.8506,,0.216666681,-0.175925926,1,0,0,0,162,162,199,1,beseffen,images/br_beseffen.png,images/cb_beseffen.png,0,,,,,,,,,,,,,,,,,,,,,,
,,,,,53500,2023-07-22_21h36.25.279,vbt_B1_day4,2022.2.4,Win32,59.95203837,53500,,,,,,down,0,2.6852,,0.216666681,-0.175925926,1,0,0,0,163,163,158,1,innemen,images/br_innemen.png,images/cb_innemen.png,0,,,,,,,,,,,,,,,,,,,,,,
,,,,,53500,2023-07-22_21h36.25.279,vbt_B1_day4,2022.2.4,Win32,59.95203837,53500,,,,,,down,0,3.2173,,0.216666681,-0.175925926,1,0,0,0,164,164,198,1,bedoelen,images/br_bedoelen.png,images/cb_bedoelen.png,0,,,,,,,,,,,,,,,,,,,,,,
,,,,,53500,2023-07-22_21h36.25.279,vbt_B1_day4,2022.2.4,Win32,59.95203837,53500,,,,,,down,0,3.384,,0.216666681,-0.175925926,1,0,0,0,165,165,20,1,site,images/br_site.png,images/cb_site.png,0,,,,,,,,,,,,,,,,,,,,,,
,,,,,53500,2023-07-22_21h36.25.279,vbt_B1_day4,2022.2.4,Win32,59.95203837,53500,,,,,,down,0,5.0283,,0.069444444,-0.157407407,1,0,0,0,166,166,44,1,flits,images/br_flits.png,images/cb_flits.png,0,,,,,,,,,,,,,,,,,,,,,,
,,,,,53500,2023-07-22_21h36.25.279,vbt_B1_day4,2022.2.4,Win32,59.95203837,53500,,,,,,down,0,2.235,,0.069444444,-0.157407407,1,0,0,0,167,167,130,1,keihard,images/br_keihard.png,images/cb_keihard.png,0,,,,,,,,,,,,,,,,,,,,,,
,,,,,53500,2023-07-22_21h36.25.279,vbt_B1_day4,2022.2.4,Win32,59.95203837,53500,,,,,,down,0,1.5725,,0.069444444,-0.157407407,1,0,0,0,168,168,10,1,leek,images/br_leek.png,images/cb_leek.png,0,,,,,,,,,,,,,,,,,,,,,,
,,,,,53500,2023-07-22_21h36.25.279,vbt_B1_day4,2022.2.4,Win32,59.95203837,53500,,,,,,down,0,5.0847,,0.069444444,-0.157407407,1,0,0,0,169,169,183,1,getuigen,images/br_getuigen.png,images/cb_getuigen.png,0,,,,,,,,,,,,,,,,,,,,,,
,,,,,53500,2023-07-22_21h36.25.279,vbt_B1_day4,2022.2.4,Win32,59.95203837,53500,,,,,,down,0,3.2735,,0.058333362,-0.236111111,1,0,0,0,170,170,122,1,waarvan,images/br_waarvan.png,images/cb_waarvan.png,0,,,,,,,,,,,,,,,,,,,,,,
,,,,,53500,2023-07-22_21h36.25.279,vbt_B1_day4,2022.2.4,Win32,59.95203837,53500,,,,,,down,0,4.3937,,0.05740745,-0.243518547,1,0,0,0,171,171,53,1,baron,images/br_baron.png,images/cb_baron.png,0,,,,,,,,,,,,,,,,,,,,,,
,,,,,53500,2023-07-22_21h36.25.279,vbt_B1_day4,2022.2.4,Win32,59.95203837,53500,,,,,,down,0,5.66,,0.05277782,-0.290740755,1,0,0,0,172,172,73,1,volop,images/br_volop.png,images/cb_volop.png,0,,,,,,,,,,,,,,,,,,,,,,
,,,,,53500,2023-07-22_21h36.25.279,vbt_B1_day4,2022.2.4,Win32,59.95203837,53500,,,,,,down,0,14.6031,,0.301851908,-0.162962949,1,0,0,0,173,173,107,1,maling,images/br_maling.png,images/cb_maling.png,1,.aling,,,,,,,,,,,,,,,,,,,,,
,,,,,53500,2023-07-22_21h36.25.279,vbt_B1_day4,2022.2.4,Win32,59.95203837,53500,,,,,,down,0,3.083,,0.305555556,-0.154629672,1,0,0,0,174,174,155,1,gerucht,images/br_gerucht.png,images/cb_gerucht.png,0,,,,,,,,,,,,,,,,,,,,,,
,,,,,53500,2023-07-22_21h36.25.279,vbt_B1_day4,2022.2.4,Win32,59.95203837,53500,,,,,,down,0,4.0015,,0.305555556,-0.154629672,1,0,0,0,175,175,11,1,mode,images/br_mode.png,images/cb_mode.png,0,,,,,,,,,,,,,,,,,,,,,,
,,,,,53500,2023-07-22_21h36.25.279,vbt_B1_day4,2022.2.4,Win32,59.95203837,53500,,,,,,down,0,0.0191,,0.371296353,-0.022222236,1,0,0,0,176,176,51,1,samen,images/br_samen.png,images/cb_samen.png,0,,,,,,,,,,,,,,,,,,,,,,
,,,,,53500,2023-07-22_21h36.25.279,vbt_B1_day4,2022.2.4,Win32,59.95203837,53500,,,,,,down,0,0.6071,,0.371296353,-0.022222236,1,0,0,0,177,177,35,1,lust,images/br_lust.png,images/cb_lust.png,0,,,,,,,,,,,,,,,,,,,,,,
,,,,,53500,2023-07-22_21h36.25.279,vbt_B1_day4,2022.2.4,Win32,59.95203837,53500,,,,,,down,0,11.0433,,0.338888945,-0.229629658,1,0,0,0,178,178,66,1,lever,images/br_lever.png,images/cb_lever.png,1,lever,,,,,,,,,,,,,,,,,,,,,
,,,,,53500,2023-07-22_21h36.25.279,vbt_B1_day4,2022.2.4,Win32,59.95203837,53500,,,,,,down,0,1.2535,,0.339814787,-0.238888917,1,0,0,0,179,179,30,1,uien,images/br_uien.png,images/cb_uien.png,0,,,,,,,,,,,,,,,,,,,,,,
,,,,,53500,2023-07-22_21h36.25.279,vbt_B1_day4,2022.2.4,Win32,59.95203837,53500,,,,,,down,0,6.044,,0.339814787,-0.238888917,1,0,0,0,180,180,96,1,slagen,images/br_slagen.png,images/cb_slagen.png,0,,,,,,,,,,,,,,,,,,,,,,
,,,,,53500,2023-07-22_21h36.25.279,vbt_B1_day4,2022.2.4,Win32,59.95203837,53500,,,,,,down,0,2.7608,,0.305555556,-0.261111153,1,0,0,0,181,181,72,1,strak,images/br_strak.png,images/cb_strak.png,0,,,,,,,,,,,,,,,,,,,,,,
,,,,,53500,2023-07-22_21h36.25.279,vbt_B1_day4,2022.2.4,Win32,59.95203837,53500,,,,,,down,0,1.0228,,0.305555556,-0.261111153,1,0,0,0,182,182,190,1,goedkoop,images/br_goedkoop.png,images/cb_goedkoop.png,0,,,,,,,,,,,,,,,,,,,,,,
,,,,,53500,2023-07-22_21h36.25.279,vbt_B1_day4,2022.2.4,Win32,59.95203837,53500,,,,,,down,0,10.4176,,0.534259231,-0.074074074,1,0,0,0,183,183,186,1,voorraad,images/br_voorraad.png,images/cb_voorraad.png,1,voorraad,,,,,,,,,,,,,,,,,,,,,
,,,,,53500,2023-07-22_21h36.25.279,vbt_B1_day4,2022.2.4,Win32,59.95203837,53500,,,,,,down,0,2.2776,,0.185185185,-0.310185185,1,0,0,0,184,184,77,1,woede,images/br_woede.png,images/cb_woede.png,0,,,,,,,,,,,,,,,,,,,,,,
,,,,,53500,2023-07-22_21h36.25.279,vbt_B1_day4,2022.2.4,Win32,59.95203837,53500,,,,,,down,0,2.056,,0.250925912,-0.186111097,1,0,0,0,185,185,89,1,slapen,images/br_slapen.png,images/cb_slapen.png,0,,,,,,,,,,,,,,,,,,,,,,
,,,,,53500,2023-07-22_21h36.25.279,vbt_B1_day4,2022.2.4,Win32,59.95203837,53500,,,,,,down,0,0.6932,,0.250925912,-0.18240745,1,0,0,0,186,186,2,1,jaar,images/br_jaar.png,images/cb_jaar.png,0,,,,,,,,,,,,,,,,,,,,,,
,,,,,53500,2023-07-22_21h36.25.279,vbt_B1_day4,2022.2.4,Win32,59.95203837,53500,,,,,,down,0,1.0551,,0.237037023,-0.18240745,1,0,0,0,187,187,88,1,boeien,images/br_boeien.png,images/cb_boeien.png,0,,,,,,,,,,,,,,,,,,,,,,
,,,,,53500,2023-07-22_21h36.25.279,vbt_B1_day4,2022.2.4,Win32,59.95203837,53500,,,,,,down,0,1.5582,,0.247222265,-0.174074102,1,0,0,0,188,188,13,1,kaal,images/br_kaal.png,images/cb_kaal.png,0,,,,,,,,,,,,,,,,,,,,,,
,,,,,53500,2023-07-22_21h36.25.279,vbt_B1_day4,2022.2.4,Win32,59.95203837,53500,,,,,,down,0,12.9841,,0.319444444,-0.262037065,1,0,0,0,189,189,184,1,aandelen,images/br_aandelen.png,images/cb_aandelen.png,1,aandelen,,,,,,,,,,,,,,,,,,,,,
,,,,,53500,2023-07-22_21h36.25.279,vbt_B1_day4,2022.2.4,Win32,59.95203837,53500,,,,,,down,0,3.7172,,0.319444444,-0.262037065,1,0,0,0,190,190,58,1,tekst,images/br_tekst.png,images/cb_tekst.png,0,,,,,,,,,,,,,,,,,,,,,,
,,,,,53500,2023-07-22_21h36.25.279,vbt_B1_day4,2022.2.4,Win32,59.95203837,53500,,,,,,down,0,3.3039,,0.319444444,-0.262037065,1,0,0,0,191,191,8,1,knie,images/br_knie.png,images/cb_knie.png,0,,,,,,,,,,,,,,,,,,,,,,
,,,,,53500,2023-07-22_21h36.25.279,vbt_B1_day4,2022.2.4,Win32,59.95203837,53500,,,,,,down,0,2.001,,0.301851908,-0.301851838,1,0,0,0,192,192,22,1,stof,images/br_stof.png,images/cb_stof.png,0,,,,,,,,,,,,,,,,,,,,,,
,,,,,53500,2023-07-22_21h36.25.279,vbt_B1_day4,2022.2.4,Win32,59.95203837,53500,,,,,,down,0,3.1028,,0.301851908,-0.300925926,1,0,0,0,193,193,112,1,lukken,images/br_lukken.png,images/cb_lukken.png,0,,,,,,,,,,,,,,,,,,,,,,
,,,,,53500,2023-07-22_21h36.25.279,vbt_B1_day4,2022.2.4,Win32,59.95203837,53500,,,,,,down,0,2.36,,0.301851908,-0.300925926,1,0,0,0,194,194,97,1,loyaal,images/br_loyaal.png,images/cb_loyaal.png,0,,,,,,,,,,,,,,,,,,,,,,
,,,,,53500,2023-07-22_21h36.25.279,vbt_B1_day4,2022.2.4,Win32,59.95203837,53500,,,,,,down,0,0.3167,,0.301851908,-0.300925926,1,0,0,0,195,195,29,1,baas,images/br_baas.png,images/cb_baas.png,0,,,,,,,,,,,,,,,,,,,,,,
,,,,,53500,2023-07-22_21h36.25.279,vbt_B1_day4,2022.2.4,Win32,59.95203837,53500,,,,,,down,0,18.9877,,0.301851908,-0.300925926,1,0,0,0,196,196,128,1,prikken,images/br_prikken.png,images/cb_prikken.png,0,,,,,,,,,,,,,,,,,,,,,,
,,,,,53500,2023-07-22_21h36.25.279,vbt_B1_day4,2022.2.4,Win32,59.95203837,53500,,,,,,down,0,0.2567,,0.301851908,-0.300925926,1,0,0,0,197,197,57,1,steek,images/br_steek.png,images/cb_steek.png,0,,,,,,,,,,,,,,,,,,,,,,
,,,,,53500,2023-07-22_21h36.25.279,vbt_B1_day4,2022.2.4,Win32,59.95203837,53500,,,,,,down,0,1.2659,,0.301851908,-0.300925926,1,0,0,0,198,198,133,1,seizoen,images/br_seizoen.png,images/cb_seizoen.png,0,,,,,,,,,,,,,,,,,,,,,,
,,,,,53500,2023-07-22_21h36.25.279,vbt_B1_day4,2022.2.4,Win32,59.95203837,53500,,,,,,down,0,1.42,,0.301851908,-0.300925926,1,0,0,0,199,199,74,1,graaf,images/br_graaf.png,images/cb_graaf.png,0,,,,,,,,,,,,,,,,,,,,,,
,,,,,53500,2023-07-22_21h36.25.279,vbt_B1_day4,2022.2.4,Win32,59.95203837,53500,,,,,,,,,,,,,,,,,,,,,,,,,-0.314814815,-0.239814829,1,0,0,,,,,,,,,,,,,,,,
,,,,,53500,2023-07-22_21h36.25.279,vbt_B1_day4,2022.2.4,Win32,59.95203837,53500,,,,,,,,,,,,,,,,,,,,,,,,,,,,,,-0.429629608,-0.240740741,1,0,0,,,,,,,,,,,
,,,,,53500,2023-07-22_21h36.25.279,vbt_B1_day4,2022.2.4,Win32,59.95203837,53500,,,,,,,,,,,,,,,,,,,,kaal,images/br_kaal.png,images/cb_kaal.png,,kaal,,,,,,,,,,,0.424074102,-0.122222265,1,0,0,kaal,0,0,0,1,1
,,,,,53500,2023-07-22_21h36.25.279,vbt_B1_day4,2022.2.4,Win32,59.95203837,53500,,,,,,,,,,,,,,,,,,,,broodje,images/br_broodje.png,images/cb_broodje.png,,broodje,,,,,,,,,,,0.487037094,-0.015740748,1,0,0,broodje,0,1,1,55,1
,,,,,53500,2023-07-22_21h36.25.279,vbt_B1_day4,2022.2.4,Win32,59.95203837,53500,,,,,,,,,,,,,,,,,,,,dalen,images/br_dalen.png,images/cb_dalen.png,,Dalen,,,,,,,,,,,0.435185185,-0.001851859,1,0,0,Dalen,0,2,2,46,1
,,,,,53500,2023-07-22_21h36.25.279,vbt_B1_day4,2022.2.4,Win32,59.95203837,53500,,,,,,,,,,,,,,,,,,,,fran,images/br_fran.png,images/cb_fran.png,,fran,,,,,,,,,,,0.435185185,-0.003703718,1,0,0,fran,0,3,3,22,1
,,,,,53500,2023-07-22_21h36.25.279,vbt_B1_day4,2022.2.4,Win32,59.95203837,53500,,,,,,,,,,,,,,,,,,,,seizoon,images/br_seizoon.png,images/cb_seizoon.png,,.izoon,,,,,,,,,,,0.236111111,0.048148155,1,0,0,.izoon,0,4,4,33,1
,,,,,53500,2023-07-22_21h36.25.279,vbt_B1_day4,2022.2.4,Win32,59.95203837,53500,,,,,,,,,,,,,,,,,,,,midden,images/br_midden.png,images/cb_midden.png,,midden,,,,,,,,,,,0.386111083,-0.19722225,1,0,0,midden,0,5,5,50,1
,,,,,53500,2023-07-22_21h36.25.279,vbt_B1_day4,2022.2.4,Win32,59.95203837,53500,,,,,,,,,,,,,,,,,,,,bisschap,images/br_bisschap.png,images/cb_bisschap.png,,bisschop,,,,,,,,,,,0.398148148,-0.212962963,1,0,0,bisschop,0,6,6,36,1
,,,,,53500,2023-07-22_21h36.25.279,vbt_B1_day4,2022.2.4,Win32,59.95203837,53500,,,,,,,,,,,,,,,,,,,,warel,images/br_warel.png,images/cb_warel.png,,warel,,,,,,,,,,,0.222222222,-0.043518526,1,0,0,warel,0,7,7,26,1
,,,,,53500,2023-07-22_21h36.25.279,vbt_B1_day4,2022.2.4,Win32,59.95203837,53500,,,,,,,,,,,,,,,,,,,,pijnlijk,images/br_pijnlijk.png,images/cb_pijnlijk.png,,pijnlijk,,,,,,,,,,,0.448148233,0.030555548,1,0,0,pijnlijk,0,8,8,58,1
,,,,,53500,2023-07-22_21h36.25.279,vbt_B1_day4,2022.2.4,Win32,59.95203837,53500,,,,,,,,,,,,,,,,,,,,rijp,images/br_rijp.png,images/cb_rijp.png,,rijp,,,,,,,,,,,0.350000028,0.009259259,1,0,0,rijp,0,9,9,2,1
,,,,,53500,2023-07-22_21h36.25.279,vbt_B1_day4,2022.2.4,Win32,59.95203837,53500,,,,,,,,,,,,,,,,,,,,paalbaak,images/br_paalbaak.png,images/cb_paalbaak.png,,paal.aak,,,,,,,,,,,0.318518603,0.046296296,1,0,0,paal.aak,0,10,10,39,1
,,,,,53500,2023-07-22_21h36.25.279,vbt_B1_day4,2022.2.4,Win32,59.95203837,53500,,,,,,,,,,,,,,,,,,,,gedicht,images/br_gedicht.png,images/cb_gedicht.png,,gedicht,,,,,,,,,,,0.440740797,-0.065740762,1,0,0,gedicht,0,11,11,15,1
,,,,,53500,2023-07-22_21h36.25.279,vbt_B1_day4,2022.2.4,Win32,59.95203837,53500,,,,,,,,,,,,,,,,,,,,kust,images/br_kust.png,images/cb_kust.png,,ku.t,,,,,,,,,,,0.440740797,-0.072222215,1,0,0,ku.t,0,12,12,0,1
,,,,,53500,2023-07-22_21h36.25.279,vbt_B1_day4,2022.2.4,Win32,59.95203837,53500,,,,,,,,,,,,,,,,,,,,strok,images/br_strok.png,images/cb_strok.png,,strok,,,,,,,,,,,0.547222279,-0.059259273,1,0,0,strok,0,13,13,25,1
,,,,,53500,2023-07-22_21h36.25.279,vbt_B1_day4,2022.2.4,Win32,59.95203837,53500,,,,,,,,,,,,,,,,,,,,noodzaak,images/br_noodzaak.png,images/cb_noodzaak.png,,noodzaak,,,,,,,,,,,0.335185157,-0.123148176,1,0,0,noodzaak,0,14,14,56,1
,,,,,53500,2023-07-22_21h36.25.279,vbt_B1_day4,2022.2.4,Win32,59.95203837,53500,,,,,,,,,,,,,,,,,,,,opkicht,images/br_opkicht.png,images/cb_opkicht.png,,opkicht,,,,,,,,,,,0.378703788,-0.146296325,1,0,0,opkicht,0,15,15,34,1
,,,,,53500,2023-07-22_21h36.25.279,vbt_B1_day4,2022.2.4,Win32,59.95203837,53500,,,,,,,,,,,,,,,,,,,,soda,images/br_soda.png,images/cb_soda.png,,soda,,,,,,,,,,,0.361111111,-0.164814843,1,0,0,soda,0,16,16,3,1
,,,,,53500,2023-07-22_21h36.25.279,vbt_B1_day4,2022.2.4,Win32,59.95203837,53500,,,,,,,,,,,,,,,,,,,,stemming,images/br_stemming.png,images/cb_stemming.png,,ste........,,,,,,,,,,,0.361111111,-0.164814843,1,0,0,ste........,0,17,17,18,1
,,,,,53500,2023-07-22_21h36.25.279,vbt_B1_day4,2022.2.4,Win32,59.95203837,53500,,,,,,,,,,,,,,,,,,,,geliefd,images/br_geliefd.png,images/cb_geliefd.png,,geliefd,,,,,,,,,,,0.368518547,-0.191666709,1,0,0,geliefd,0,18,18,14,1
,,,,,53500,2023-07-22_21h36.25.279,vbt_B1_day4,2022.2.4,Win32,59.95203837,53500,,,,,,,,,,,,,,,,,,,,flippen,images/br_flippen.png,images/cb_flippen.png,,flippen,,,,,,,,,,,0.35555564,-0.170370384,1,0,0,flippen,0,19,19,54,1
,,,,,53500,2023-07-22_21h36.25.279,vbt_B1_day4,2022.2.4,Win32,59.95203837,53500,,,,,,,,,,,,,,,,,,,,baron,images/br_baron.png,images/cb_baron.png,,baron,,,,,,,,,,,0.521296325,-0.082407422,1,0,0,baron,0,20,20,5,1
,,,,,53500,2023-07-22_21h36.25.279,vbt_B1_day4,2022.2.4,Win32,59.95203837,53500,,,,,,,,,,,,,,,,,,,,apparaat,images/br_apparaat.png,images/cb_apparaat.png,,apparaat,,,,,,,,,,,0.323148233,-0.09629631,1,0,0,apparaat,0,21,21,17,1
,,,,,53500,2023-07-22_21h36.25.279,vbt_B1_day4,2022.2.4,Win32,59.95203837,53500,,,,,,,,,,,,,,,,,,,,sulbon,images/br_sulbon.png,images/cb_sulbon.png,,s......,,,,,,,,,,,0.312037009,-0.101851852,1,0,0,s......,0,22,22,31,1
,,,,,53500,2023-07-22_21h36.25.279,vbt_B1_day4,2022.2.4,Win32,59.95203837,53500,,,,,,,,,,,,,,,,,,,,gebit,images/br_gebit.png,images/cb_gebit.png,,gebit,,,,,,,,,,,0.311111168,-0.082407422,1,0,0,gebit,0,23,23,6,1
,,,,,53500,2023-07-22_21h36.25.279,vbt_B1_day4,2022.2.4,Win32,59.95203837,53500,,,,,,,,,,,,,,,,,,,,haza,images/br_haza.png,images/cb_haza.png,,ha..,,,,,,,,,,,0.288888931,-0.073148162,1,0,0,ha..,0,24,24,21,1
,,,,,53500,2023-07-22_21h36.25.279,vbt_B1_day4,2022.2.4,Win32,59.95203837,53500,,,,,,,,,,,,,,,,,,,,bruin,images/br_bruin.png,images/cb_bruin.png,,bruin,,,,,,,,,,,0.493518547,-0.08888891,1,0,0,bruin,0,25,25,45,1
,,,,,53500,2023-07-22_21h36.25.279,vbt_B1_day4,2022.2.4,Win32,59.95203837,53500,,,,,,,,,,,,,,,,,,,,vreten,images/br_vreten.png,images/cb_vreten.png,,vreten,,,,,,,,,,,0.604629658,-0.179629644,1,0,0,vreten,0,26,26,11,1
,,,,,53500,2023-07-22_21h36.25.279,vbt_B1_day4,2022.2.4,Win32,59.95203837,53500,,,,,,,,,,,,,,,,,,,,gebog,images/br_gebog.png,images/cb_gebog.png,,gebog,,,,,,,,,,,0.595370399,-0.190740727,1,0,0,gebog,0,27,27,24,1
,,,,,53500,2023-07-22_21h36.25.279,vbt_B1_day4,2022.2.4,Win32,59.95203837,53500,,,,,,,,,,,,,,,,,,,,seizoen,images/br_seizoen.png,images/cb_seizoen.png,,sezoen,,,,,,,,,,,0.595370399,-0.190740727,1,0,0,sezoen,0,28,28,13,1
,,,,,53500,2023-07-22_21h36.25.279,vbt_B1_day4,2022.2.4,Win32,59.95203837,53500,,,,,,,,,,,,,,,,,,,,tucket,images/br_tucket.png,images/cb_tucket.png,,ticket,,,,,,,,,,,0.405555584,-0.060185185,1,0,0,ticket,0,29,29,30,1
,,,,,53500,2023-07-22_21h36.25.279,vbt_B1_day4,2022.2.4,Win32,59.95203837,53500,,,,,,,,,,,,,,,,,,,,wozing,images/br_wozing.png,images/cb_wozing.png,,woning,,,,,,,,,,,0.358333305,0.018518519,1,0,0,woning,0,30,30,28,1
,,,,,53500,2023-07-22_21h36.25.279,vbt_B1_day4,2022.2.4,Win32,59.95203837,53500,,,,,,,,,,,,,,,,,,,,ezel,images/br_ezel.png,images/cb_ezel.png,,ezel,,,,,,,,,,,0.529629601,-0.00462963,1,0,0,ezel,0,31,31,42,1
,,,,,53500,2023-07-22_21h36.25.279,vbt_B1_day4,2022.2.4,Win32,59.95203837,53500,,,,,,,,,,,,,,,,,,,,gaaf,images/br_gaaf.png,images/cb_gaaf.png,,gaaf,,,,,,,,,,,0.33148151,-0.057407414,1,0,0,gaaf,0,32,32,43,1
,,,,,53500,2023-07-22_21h36.25.279,vbt_B1_day4,2022.2.4,Win32,59.95203837,53500,,,,,,,,,,,,,,,,,,,,schenden,images/br_schenden.png,images/cb_schenden.png,,........,,,,,,,,,,,0.55277775,0.059259238,1,0,0,........,0,33,33,57,1
,,,,,53500,2023-07-22_21h36.25.279,vbt_B1_day4,2022.2.4,Win32,59.95203837,53500,,,,,,,,,,,,,,,,,,,,zwek,images/br_zwek.png,images/cb_zwek.png,,zwak,,,,,,,,,,,0.155555584,-0.087962963,1,0,0,zwak,0,34,34,20,1
,,,,,53500,2023-07-22_21h36.25.279,vbt_B1_day4,2022.2.4,Win32,59.95203837,53500,,,,,,,,,,,,,,,,,,,,oceaan,images/br_oceaan.png,images/cb_oceaan.png,,oceaan,,,,,,,,,,,0.275925954,-0.046296296,1,0,0,oceaan,0,35,35,10,1
,,,,,53500,2023-07-22_21h36.25.279,vbt_B1_day4,2022.2.4,Win32,59.95203837,53500,,,,,,,,,,,,,,,,,,,,waarop,images/br_waarop.png,images/cb_waarop.png,,waarom,,,,,,,,,,,0.524074131,-0.12962963,1,0,0,waarom,0,36,36,9,1
,,,,,53500,2023-07-22_21h36.25.279,vbt_B1_day4,2022.2.4,Win32,59.95203837,53500,,,,,,,,,,,,,,,,,,,,mekst,images/br_mekst.png,images/cb_mekst.png,,fek...,,,,,,,,,,,0.499074159,-0.141666695,1,0,0,fek...,0,37,37,27,1
,,,,,53500,2023-07-22_21h36.25.279,vbt_B1_day4,2022.2.4,Win32,59.95203837,53500,,,,,,,,,,,,,,,,,,,,gaan,images/br_gaan.png,images/cb_gaan.png,,gaan,,,,,,,,,,,0.468518575,-0.018518519,1,0,0,gaan,0,38,38,41,1
,,,,,53500,2023-07-22_21h36.25.279,vbt_B1_day4,2022.2.4,Win32,59.95203837,53500,,,,,,,,,,,,,,,,,,,,steen,images/br_steen.png,images/cb_steen.png,,staan,,,,,,,,,,,0.471296381,-0.042592614,1,0,0,staan,0,39,39,44,1
,,,,,53500,2023-07-22_21h36.25.279,vbt_B1_day4,2022.2.4,Win32,59.95203837,53500,,,,,,,,,,,,,,,,,,,,dozijn,images/br_dozijn.png,images/cb_dozijn.png,,da....,,,,,,,,,,,0.471296381,-0.042592614,1,0,0,da....,0,40,40,48,1
,,,,,53500,2023-07-22_21h36.25.279,vbt_B1_day4,2022.2.4,Win32,59.95203837,53500,,,,,,,,,,,,,,,,,,,,drooien,images/br_drooien.png,images/cb_drooien.png,,drooien,,,,,,,,,,,0.471296381,-0.043518526,1,0,0,drooien,0,41,41,32,1
,,,,,53500,2023-07-22_21h36.25.279,vbt_B1_day4,2022.2.4,Win32,59.95203837,53500,,,,,,,,,,,,,,,,,,,,geheim,images/br_geheim.png,images/cb_geheim.png,,geheim,,,,,,,,,,,0.471296381,-0.043518526,1,0,0,geheim,0,42,42,8,1
,,,,,53500,2023-07-22_21h36.25.279,vbt_B1_day4,2022.2.4,Win32,59.95203837,53500,,,,,,,,,,,,,,,,,,,,zaalrijk,images/br_zaalrijk.png,images/cb_zaalrijk.png,,zaal....,,,,,,,,,,,0.473148205,-0.002777771,1,0,0,zaal....,0,43,43,37,1
,,,,,53500,2023-07-22_21h36.25.279,vbt_B1_day4,2022.2.4,Win32,59.95203837,53500,,,,,,,,,,,,,,,,,,,,getucht,images/br_getucht.png,images/cb_getucht.png,,get....,,,,,,,,,,,0.393518519,-0.080555563,1,0,0,get....,0,44,44,35,1
,,,,,53500,2023-07-22_21h36.25.279,vbt_B1_day4,2022.2.4,Win32,59.95203837,53500,,,,,,,,,,,,,,,,,,,,wagon,images/br_wagon.png,images/cb_wagon.png,,wagon,,,,,,,,,,,0.40370376,-0.112037023,1,0,0,wagon,0,45,45,4,1
,,,,,53500,2023-07-22_21h36.25.279,vbt_B1_day4,2022.2.4,Win32,59.95203837,53500,,,,,,,,,,,,,,,,,,,,heengaan,images/br_heengaan.png,images/cb_heengaan.png,,heengaan,,,,,,,,,,,0.40370376,-0.112037023,1,0,0,heengaan,0,46,46,19,1
,,,,,53500,2023-07-22_21h36.25.279,vbt_B1_day4,2022.2.4,Win32,59.95203837,53500,,,,,,,,,,,,,,,,,,,,grappen,images/br_grappen.png,images/cb_grappen.png,,grappig,,,,,,,,,,,0.40370376,-0.108333376,1,0,0,grappig,0,47,47,12,1
,,,,,53500,2023-07-22_21h36.25.279,vbt_B1_day4,2022.2.4,Win32,59.95203837,53500,,,,,,,,,,,,,,,,,,,,eerst,images/br_eerst.png,images/cb_eerst.png,,eerst,,,,,,,,,,,0.400925954,-0.119444459,1,0,0,eerst,0,48,48,47,1
,,,,,53500,2023-07-22_21h36.25.279,vbt_B1_day4,2022.2.4,Win32,59.95203837,53500,,,,,,,,,,,,,,,,,,,,praat,images/br_praat.png,images/cb_praat.png,,praat,,,,,,,,,,,0.400925954,-0.119444459,1,0,0,praat,0,49,49,7,1
,,,,,53500,2023-07-22_21h36.25.279,vbt_B1_day4,2022.2.4,Win32,59.95203837,53500,,,,,,,,,,,,,,,,,,,,pittig,images/br_pittig.png,images/cb_pittig.png,,pittig,,,,,,,,,,,0.400925954,-0.119444459,1,0,0,pittig,0,50,50,51,1
,,,,,53500,2023-07-22_21h36.25.279,vbt_B1_day4,2022.2.4,Win32,59.95203837,53500,,,,,,,,,,,,,,,,,,,,schotel,images/br_schotel.png,images/cb_schotel.png,,schotel,,,,,,,,,,,0.400925954,-0.121296282,1,0,0,schotel,0,51,51,52,1
,,,,,53500,2023-07-22_21h36.25.279,vbt_B1_day4,2022.2.4,Win32,59.95203837,53500,,,,,,,,,,,,,,,,,,,,toevol,images/br_toevol.png,images/cb_toevol.png,,toeval,,,,,,,,,,,0.400925954,-0.124074088,1,0,0,toeval,0,52,52,29,1
,,,,,53500,2023-07-22_21h36.25.279,vbt_B1_day4,2022.2.4,Win32,59.95203837,53500,,,,,,,,,,,,,,,,,,,,aanzwaag,images/br_aanzwaag.png,images/cb_aanzwaag.png,,aa..........,,,,,,,,,,,0.400925954,-0.124074088,1,0,0,aa..........,0,53,53,38,1
,,,,,53500,2023-07-22_21h36.25.279,vbt_B1_day4,2022.2.4,Win32,59.95203837,53500,,,,,,,,,,,,,,,,,,,,gijf,images/br_gijf.png,images/cb_gijf.png,,gij.,,,,,,,,,,,0.400925954,-0.124074088,1,0,0,gij.,0,54,54,23,1
,,,,,53500,2023-07-22_21h36.25.279,vbt_B1_day4,2022.2.4,Win32,59.95203837,53500,,,,,,,,,,,,,,,,,,,,drummer,images/br_drummer.png,images/cb_drummer.png,,dr......,,,,,,,,,,,0.400925954,-0.124074088,1,0,0,dr......,0,55,55,53,1
,,,,,53500,2023-07-22_21h36.25.279,vbt_B1_day4,2022.2.4,Win32,59.95203837,53500,,,,,,,,,,,,,,,,,,,,opruimen,images/br_opruimen.png,images/cb_opruimen.png,,opr....,,,,,,,,,,,0.400925954,-0.123148176,1,0,0,opr....,0,56,56,59,1
,,,,,53500,2023-07-22_21h36.25.279,vbt_B1_day4,2022.2.4,Win32,59.95203837,53500,,,,,,,,,,,,,,,,,,,,lappen,images/br_lappen.png,images/cb_lappen.png,,lappen,,,,,,,,,,,0.400925954,-0.123148176,1,0,0,lappen,0,57,57,49,1
,,,,,53500,2023-07-22_21h36.25.279,vbt_B1_day4,2022.2.4,Win32,59.95203837,53500,,,,,,,,,,,,,,,,,,,,snee,images/br_snee.png,images/cb_snee.png,,snee,,,,,,,,,,,0.400925954,-0.123148176,1,0,0,snee,0,58,58,40,1
,,,,,53500,2023-07-22_21h36.25.279,vbt_B1_day4,2022.2.4,Win32,59.95203837,53500,,,,,,,,,,,,,,,,,,,,weigeren,images/br_weigeren.png,images/cb_weigeren.png,,weigeren,,,,,,,,,,,0.400925954,-0.123148176,1,0,0,weigeren,0,59,59,16,1
,,,,,53500,2023-07-22_21h36.25.279,vbt_B1_day4,2022.2.4,Win32,59.95203837,53500,,,,,,,,,,,,,,,,,,,,,,,,,,,,,,,,,,,,,,,,,,,,,
