welcome_mouse.x,welcome_mouse.y,welcome_mouse.leftButton,welcome_mouse.midButton,welcome_mouse.rightButton,"ID",date,expName,psychopyVersion,OS,frameRate,trainInstr_mouse.x,trainInstr_mouse.y,trainInstr_mouse.leftButton,trainInstr_mouse.midButton,trainInstr_mouse.rightButton,translation_key.keys,translation_key.corr,translation_key.rt,word_rsp.text,trWrd_mouse.x,trWrd_mouse.y,trWrd_mouse.leftButton,trWrd_mouse.midButton,trWrd_mouse.rightButton,train_loop.thisRepN,train_loop.thisTrialN,train_loop.thisN,train_loop.thisIndex,train_loop.ran,nlWrd,brWrd,cbWrd,test,testResp,mouse.x,mouse.y,mouse.leftButton,mouse.midButton,mouse.rightButton,testInstr_mouse.x,testInstr_mouse.y,testInstr_mouse.leftButton,testInstr_mouse.midButton,testInstr_mouse.rightButton,test_mouse.x,test_mouse.y,test_mouse.leftButton,test_mouse.midButton,test_mouse.rightButton,test_response.text,test_loop.thisRepN,test_loop.thisTrialN,test_loop.thisN,test_loop.thisIndex,test_loop.ran
-0.174074032,-0.218518504,1,0,0,00088,2023-10-26_16h59.08.671,vbt_B1_day4,2022.2.4,Win32,60.18295619,,,,,,,,,,,,,,,,,,,,,,,,,,,,,,,,,,,,,,,,,,,,,
,,,,,00088,2023-10-26_16h59.08.671,vbt_B1_day4,2022.2.4,Win32,60.18295619,-0.295370384,-0.262962977,1,0,0,,,,,,,,,,,,,,,,,,,,,,,,,,,,,,,,,,,,,,,,
,,,,,00088,2023-10-26_16h59.08.671,vbt_B1_day4,2022.2.4,Win32,60.18295619,,,,,,down,0,11.2846,,-0.295370384,-0.262962977,1,0,0,0,0,0,149,1,redding,images/br_redding.png,images/cb_redding.png,0,,,,,,,,,,,,,,,,,,,,,,
,,,,,00088,2023-10-26_16h59.08.671,vbt_B1_day4,2022.2.4,Win32,60.18295619,,,,,,down,0,1.9672,,-0.295370384,-0.262962977,1,0,0,0,1,1,123,1,hiervan,images/br_hiervan.png,images/cb_hiervan.png,0,,,,,,,,,,,,,,,,,,,,,,
,,,,,00088,2023-10-26_16h59.08.671,vbt_B1_day4,2022.2.4,Win32,60.18295619,,,,,,down,0,19.755,,-0.295370384,-0.262962977,1,0,0,0,2,2,83,1,mening,images/br_mening.png,images/cb_mening.png,0,,,,,,,,,,,,,,,,,,,,,,
,,,,,00088,2023-10-26_16h59.08.671,vbt_B1_day4,2022.2.4,Win32,60.18295619,,,,,,down,0,1.8724,,-0.295370384,-0.262962977,1,0,0,0,3,3,17,1,taal,images/br_taal.png,images/cb_taal.png,0,,,,,,,,,,,,,,,,,,,,,,
,,,,,00088,2023-10-26_16h59.08.671,vbt_B1_day4,2022.2.4,Win32,60.18295619,,,,,,down,0,7.0244,,-0.295370384,-0.262962977,1,0,0,0,4,4,90,1,geluid,images/br_geluid.png,images/cb_geluid.png,0,,,,,,,,,,,,,,,,,,,,,,
,,,,,00088,2023-10-26_16h59.08.671,vbt_B1_day4,2022.2.4,Win32,60.18295619,,,,,,down,0,2.5606,,-0.295370384,-0.262962977,1,0,0,0,5,5,52,1,wagon,images/br_wagon.png,images/cb_wagon.png,0,,,,,,,,,,,,,,,,,,,,,,
,,,,,00088,2023-10-26_16h59.08.671,vbt_B1_day4,2022.2.4,Win32,60.18295619,,,,,,down,0,1.8084,,-0.295370384,-0.262962977,1,0,0,0,6,6,107,1,maling,images/br_maling.png,images/cb_maling.png,1,maling,,,,,,,,,,,,,,,,,,,,,
,,,,,00088,2023-10-26_16h59.08.671,vbt_B1_day4,2022.2.4,Win32,60.18295619,,,,,,down,0,2.7219,,-0.295370384,-0.262962977,1,0,0,0,7,7,58,1,tekst,images/br_tekst.png,images/cb_tekst.png,0,,,,,,,,,,,,,,,,,,,,,,
,,,,,00088,2023-10-26_16h59.08.671,vbt_B1_day4,2022.2.4,Win32,60.18295619,,,,,,down,0,0.7608,,-0.295370384,-0.262962977,1,0,0,0,8,8,86,1,woning,images/br_woning.png,images/cb_woning.png,0,,,,,,,,,,,,,,,,,,,,,,
,,,,,00088,2023-10-26_16h59.08.671,vbt_B1_day4,2022.2.4,Win32,60.18295619,,,,,,down,0,1.1171,,-0.295370384,-0.262962977,1,0,0,0,9,9,117,1,kennis,images/br_kennis.png,images/cb_kennis.png,0,,,,,,,,,,,,,,,,,,,,,,
,,,,,00088,2023-10-26_16h59.08.671,vbt_B1_day4,2022.2.4,Win32,60.18295619,,,,,,down,0,15.1867,,-0.295370384,-0.262962977,1,0,0,0,10,10,156,1,rechten,images/br_rechten.png,images/cb_rechten.png,0,,,,,,,,,,,,,,,,,,,,,,
,,,,,00088,2023-10-26_16h59.08.671,vbt_B1_day4,2022.2.4,Win32,60.18295619,,,,,,down,0,0.0006,,-0.295370384,-0.262962977,1,0,0,0,11,11,0,1,slak,images/br_slak.png,images/cb_slak.png,0,,,,,,,,,,,,,,,,,,,,,,
,,,,,00088,2023-10-26_16h59.08.671,vbt_B1_day4,2022.2.4,Win32,60.18295619,,,,,,down,0,3.0584,,-0.295370384,-0.262962977,1,0,0,0,12,12,34,1,vorm,images/br_vorm.png,images/cb_vorm.png,0,,,,,,,,,,,,,,,,,,,,,,
,,,,,00088,2023-10-26_16h59.08.671,vbt_B1_day4,2022.2.4,Win32,60.18295619,,,,,,down,0,0.0424,,-0.295370384,-0.262962977,1,0,0,0,13,13,99,1,koffie,images/br_koffie.png,images/cb_koffie.png,0,,,,,,,,,,,,,,,,,,,,,,
,,,,,00088,2023-10-26_16h59.08.671,vbt_B1_day4,2022.2.4,Win32,60.18295619,,,,,,down,0,2.574,,-0.295370384,-0.262962977,1,0,0,0,14,14,30,1,uien,images/br_uien.png,images/cb_uien.png,0,,,,,,,,,,,,,,,,,,,,,,
,,,,,00088,2023-10-26_16h59.08.671,vbt_B1_day4,2022.2.4,Win32,60.18295619,,,,,,down,0,3.6053,,-0.295370384,-0.262962977,1,0,0,0,15,15,153,1,vervoer,images/br_vervoer.png,images/cb_vervoer.png,0,,,,,,,,,,,,,,,,,,,,,,
,,,,,00088,2023-10-26_16h59.08.671,vbt_B1_day4,2022.2.4,Win32,60.18295619,,,,,,down,0,6.4801,,-0.295370384,-0.262962977,1,0,0,0,16,16,23,1,zout,images/br_zout.png,images/cb_zout.png,0,,,,,,,,,,,,,,,,,,,,,,
,,,,,00088,2023-10-26_16h59.08.671,vbt_B1_day4,2022.2.4,Win32,60.18295619,,,,,,down,0,1.4391,,-0.295370384,-0.262962977,1,0,0,0,17,17,132,1,grappen,images/br_grappen.png,images/cb_grappen.png,0,,,,,,,,,,,,,,,,,,,,,,
,,,,,00088,2023-10-26_16h59.08.671,vbt_B1_day4,2022.2.4,Win32,60.18295619,,,,,,down,0,3.0001,,-0.295370384,-0.262962977,1,0,0,0,18,18,169,1,oprotten,images/br_oprotten.png,images/cb_oprotten.png,0,,,,,,,,,,,,,,,,,,,,,,
,,,,,00088,2023-10-26_16h59.08.671,vbt_B1_day4,2022.2.4,Win32,60.18295619,,,,,,down,0,6.7849,,-0.295370384,-0.262962977,1,0,0,0,19,19,191,1,opheffen,images/br_opheffen.png,images/cb_opheffen.png,0,,,,,,,,,,,,,,,,,,,,,,
,,,,,00088,2023-10-26_16h59.08.671,vbt_B1_day4,2022.2.4,Win32,60.18295619,,,,,,down,0,8.7421,,-0.143518519,-0.196296339,1,0,0,0,20,20,106,1,zingen,images/br_zingen.png,images/cb_zingen.png,1,zingen,,,,,,,,,,,,,,,,,,,,,
,,,,,00088,2023-10-26_16h59.08.671,vbt_B1_day4,2022.2.4,Win32,60.18295619,,,,,,down,0,5.4719,,-0.143518519,-0.196296339,1,0,0,0,21,21,43,1,klauw,images/br_klauw.png,images/cb_klauw.png,0,,,,,,,,,,,,,,,,,,,,,,
,,,,,00088,2023-10-26_16h59.08.671,vbt_B1_day4,2022.2.4,Win32,60.18295619,,,,,,down,0,0.3694,,-0.143518519,-0.196296339,1,0,0,0,22,22,48,1,steel,images/br_steel.png,images/cb_steel.png,0,,,,,,,,,,,,,,,,,,,,,,
,,,,,00088,2023-10-26_16h59.08.671,vbt_B1_day4,2022.2.4,Win32,60.18295619,,,,,,down,0,2.1926,,-0.143518519,-0.196296339,1,0,0,0,23,23,74,1,graaf,images/br_graaf.png,images/cb_graaf.png,0,,,,,,,,,,,,,,,,,,,,,,
,,,,,00088,2023-10-26_16h59.08.671,vbt_B1_day4,2022.2.4,Win32,60.18295619,,,,,,down,0,10.2418,,-0.268518519,-0.192592621,1,0,0,0,24,24,101,1,staren,images/br_staren.png,images/cb_staren.png,0,,,,,,,,,,,,,,,,,,,,,,
,,,,,00088,2023-10-26_16h59.08.671,vbt_B1_day4,2022.2.4,Win32,60.18295619,,,,,,down,0,0.5177,,-0.268518519,-0.192592621,1,0,0,0,25,25,42,1,bleek,images/br_bleek.png,images/cb_bleek.png,0,,,,,,,,,,,,,,,,,,,,,,
,,,,,00088,2023-10-26_16h59.08.671,vbt_B1_day4,2022.2.4,Win32,60.18295619,,,,,,down,0,1.6606,,-0.268518519,-0.192592621,1,0,0,0,26,26,144,1,eetlust,images/br_eetlust.png,images/cb_eetlust.png,1,eetlust,,,,,,,,,,,,,,,,,,,,,
,,,,,00088,2023-10-26_16h59.08.671,vbt_B1_day4,2022.2.4,Win32,60.18295619,,,,,,down,0,0.4668,,-0.268518519,-0.192592621,1,0,0,0,27,27,167,1,eenhoorn,images/br_eenhoorn.png,images/cb_eenhoorn.png,0,,,,,,,,,,,,,,,,,,,,,,
,,,,,00088,2023-10-26_16h59.08.671,vbt_B1_day4,2022.2.4,Win32,60.18295619,,,,,,down,0,9.4258,,-0.268518519,-0.192592621,1,0,0,0,28,28,185,1,mijnheer,images/br_mijnheer.png,images/cb_mijnheer.png,1,mijnheer,,,,,,,,,,,,,,,,,,,,,
,,,,,00088,2023-10-26_16h59.08.671,vbt_B1_day4,2022.2.4,Win32,60.18295619,,,,,,down,0,0.2841,,-0.268518519,-0.192592621,1,0,0,0,29,29,19,1,geit,images/br_geit.png,images/cb_geit.png,0,,,,,,,,,,,,,,,,,,,,,,
,,,,,00088,2023-10-26_16h59.08.671,vbt_B1_day4,2022.2.4,Win32,60.18295619,,,,,,down,0,4.9045,,-0.268518519,-0.192592621,1,0,0,0,30,30,184,1,aandelen,images/br_aandelen.png,images/cb_aandelen.png,1,aandelen,,,,,,,,,,,,,,,,,,,,,
,,,,,00088,2023-10-26_16h59.08.671,vbt_B1_day4,2022.2.4,Win32,60.18295619,,,,,,down,0,13.1741,,-0.268518519,-0.192592621,1,0,0,0,31,31,193,1,weeshuis,images/br_weeshuis.png,images/cb_weeshuis.png,0,,,,,,,,,,,,,,,,,,,,,,
,,,,,00088,2023-10-26_16h59.08.671,vbt_B1_day4,2022.2.4,Win32,60.18295619,,,,,,down,0,10.4787,,-0.268518519,-0.192592621,1,0,0,0,32,32,137,1,trekker,images/br_trekker.png,images/cb_trekker.png,0,,,,,,,,,,,,,,,,,,,,,,
,,,,,00088,2023-10-26_16h59.08.671,vbt_B1_day4,2022.2.4,Win32,60.18295619,,,,,,down,0,0.0737,,-0.268518519,-0.192592621,1,0,0,0,33,33,16,1,ziek,images/br_ziek.png,images/cb_ziek.png,0,,,,,,,,,,,,,,,,,,,,,,
,,,,,00088,2023-10-26_16h59.08.671,vbt_B1_day4,2022.2.4,Win32,60.18295619,,,,,,down,0,1.6633,,-0.268518519,-0.192592621,1,0,0,0,34,34,73,1,volop,images/br_volop.png,images/cb_volop.png,0,,,,,,,,,,,,,,,,,,,,,,
,,,,,00088,2023-10-26_16h59.08.671,vbt_B1_day4,2022.2.4,Win32,60.18295619,,,,,,down,0,5.6344,,-0.268518519,-0.192592621,1,0,0,0,35,35,142,1,snuiven,images/br_snuiven.png,images/cb_snuiven.png,0,,,,,,,,,,,,,,,,,,,,,,
,,,,,00088,2023-10-26_16h59.08.671,vbt_B1_day4,2022.2.4,Win32,60.18295619,,,,,,down,0,2.7209,,-0.268518519,-0.192592621,1,0,0,0,36,36,161,1,attentie,images/br_attentie.png,images/cb_attentie.png,0,,,,,,,,,,,,,,,,,,,,,,
,,,,,00088,2023-10-26_16h59.08.671,vbt_B1_day4,2022.2.4,Win32,60.18295619,,,,,,down,0,9.251,,-0.268518519,-0.192592621,1,0,0,0,37,37,159,1,sufferd,images/br_sufferd.png,images/cb_sufferd.png,0,,,,,,,,,,,,,,,,,,,,,,
,,,,,00088,2023-10-26_16h59.08.671,vbt_B1_day4,2022.2.4,Win32,60.18295619,,,,,,down,0,3.808,,-0.268518519,-0.192592621,1,0,0,0,38,38,122,1,waarvan,images/br_waarvan.png,images/cb_waarvan.png,0,,,,,,,,,,,,,,,,,,,,,,
,,,,,00088,2023-10-26_16h59.08.671,vbt_B1_day4,2022.2.4,Win32,60.18295619,,,,,,down,0,9.8738,,-0.268518519,-0.192592621,1,0,0,0,39,39,130,1,keihard,images/br_keihard.png,images/cb_keihard.png,0,,,,,,,,,,,,,,,,,,,,,,
,,,,,00088,2023-10-26_16h59.08.671,vbt_B1_day4,2022.2.4,Win32,60.18295619,,,,,,down,0,1.2619,,-0.268518519,-0.192592621,1,0,0,0,40,40,66,1,lever,images/br_lever.png,images/cb_lever.png,1,lever,,,,,,,,,,,,,,,,,,,,,
,,,,,00088,2023-10-26_16h59.08.671,vbt_B1_day4,2022.2.4,Win32,60.18295619,,,,,,down,0,7.2518,,-0.268518519,-0.192592621,1,0,0,0,41,41,178,1,huisdier,images/br_huisdier.png,images/cb_huisdier.png,0,,,,,,,,,,,,,,,,,,,,,,
,,,,,00088,2023-10-26_16h59.08.671,vbt_B1_day4,2022.2.4,Win32,60.18295619,,,,,,down,0,4.9498,,-0.268518519,-0.192592621,1,0,0,0,42,42,51,1,samen,images/br_samen.png,images/cb_samen.png,0,,,,,,,,,,,,,,,,,,,,,,
,,,,,00088,2023-10-26_16h59.08.671,vbt_B1_day4,2022.2.4,Win32,60.18295619,,,,,,down,0,0.0943,,-0.268518519,-0.192592621,1,0,0,0,43,43,14,1,rijp,images/br_rijp.png,images/cb_rijp.png,0,,,,,,,,,,,,,,,,,,,,,,
,,,,,00088,2023-10-26_16h59.08.671,vbt_B1_day4,2022.2.4,Win32,60.18295619,,,,,,down,0,1.8342,,-0.268518519,-0.192592621,1,0,0,0,44,44,91,1,gezond,images/br_gezond.png,images/cb_gezond.png,0,,,,,,,,,,,,,,,,,,,,,,
,,,,,00088,2023-10-26_16h59.08.671,vbt_B1_day4,2022.2.4,Win32,60.18295619,,,,,,down,0,0.1334,,-0.268518519,-0.192592621,1,0,0,0,45,45,150,1,gegeven,images/br_gegeven.png,images/cb_gegeven.png,0,,,,,,,,,,,,,,,,,,,,,,
,,,,,00088,2023-10-26_16h59.08.671,vbt_B1_day4,2022.2.4,Win32,60.18295619,,,,,,down,0,1.3939,,-0.268518519,-0.192592621,1,0,0,0,46,46,71,1,bever,images/br_bever.png,images/cb_bever.png,0,,,,,,,,,,,,,,,,,,,,,,
,,,,,00088,2023-10-26_16h59.08.671,vbt_B1_day4,2022.2.4,Win32,60.18295619,,,,,,down,0,6.1702,,-0.268518519,-0.192592621,1,0,0,0,47,47,128,1,prikken,images/br_prikken.png,images/cb_prikken.png,0,,,,,,,,,,,,,,,,,,,,,,
,,,,,00088,2023-10-26_16h59.08.671,vbt_B1_day4,2022.2.4,Win32,60.18295619,,,,,,down,0,3.4144,,-0.268518519,-0.192592621,1,0,0,0,48,48,151,1,aanzoek,images/br_aanzoek.png,images/cb_aanzoek.png,0,,,,,,,,,,,,,,,,,,,,,,
,,,,,00088,2023-10-26_16h59.08.671,vbt_B1_day4,2022.2.4,Win32,60.18295619,,,,,,down,0,11.7673,,-0.268518519,-0.192592621,1,0,0,0,49,49,76,1,afval,images/br_afval.png,images/cb_afval.png,0,,,,,,,,,,,,,,,,,,,,,,
,,,,,00088,2023-10-26_16h59.08.671,vbt_B1_day4,2022.2.4,Win32,60.18295619,,,,,,down,0,1.5722,,-0.268518519,-0.192592621,1,0,0,0,50,50,118,1,vinger,images/br_vinger.png,images/cb_vinger.png,0,,,,,,,,,,,,,,,,,,,,,,
,,,,,00088,2023-10-26_16h59.08.671,vbt_B1_day4,2022.2.4,Win32,60.18295619,,,,,,down,0,0.3572,,-0.268518519,-0.192592621,1,0,0,0,51,51,103,1,joggen,images/br_joggen.png,images/cb_joggen.png,0,,,,,,,,,,,,,,,,,,,,,,
,,,,,00088,2023-10-26_16h59.08.671,vbt_B1_day4,2022.2.4,Win32,60.18295619,,,,,,down,0,6.3001,,-0.268518519,-0.192592621,1,0,0,0,52,52,60,1,jasje,images/br_jasje.png,images/cb_jasje.png,0,,,,,,,,,,,,,,,,,,,,,,
,,,,,00088,2023-10-26_16h59.08.671,vbt_B1_day4,2022.2.4,Win32,60.18295619,,,,,,down,0,1.8727,,-0.268518519,-0.192592621,1,0,0,0,53,53,89,1,slapen,images/br_slapen.png,images/cb_slapen.png,0,,,,,,,,,,,,,,,,,,,,,,
,,,,,00088,2023-10-26_16h59.08.671,vbt_B1_day4,2022.2.4,Win32,60.18295619,,,,,,down,0,0.4056,,-0.268518519,-0.192592621,1,0,0,0,54,54,124,1,bloeien,images/br_bloeien.png,images/cb_bloeien.png,0,,,,,,,,,,,,,,,,,,,,,,
,,,,,00088,2023-10-26_16h59.08.671,vbt_B1_day4,2022.2.4,Win32,60.18295619,,,,,,down,0,2.1402,,-0.268518519,-0.192592621,1,0,0,0,55,55,50,1,stoom,images/br_stoom.png,images/cb_stoom.png,0,,,,,,,,,,,,,,,,,,,,,,
,,,,,00088,2023-10-26_16h59.08.671,vbt_B1_day4,2022.2.4,Win32,60.18295619,,,,,,down,0,5.5831,,-0.268518519,-0.192592621,1,0,0,0,56,56,53,1,baron,images/br_baron.png,images/cb_baron.png,0,,,,,,,,,,,,,,,,,,,,,,
,,,,,00088,2023-10-26_16h59.08.671,vbt_B1_day4,2022.2.4,Win32,60.18295619,,,,,,down,0,1.429,,-0.268518519,-0.192592621,1,0,0,0,57,57,68,1,schat,images/br_schat.png,images/cb_schat.png,0,,,,,,,,,,,,,,,,,,,,,,
,,,,,00088,2023-10-26_16h59.08.671,vbt_B1_day4,2022.2.4,Win32,60.18295619,,,,,,down,0,5.02,,-0.268518519,-0.192592621,1,0,0,0,58,58,82,1,muziek,images/br_muziek.png,images/cb_muziek.png,0,,,,,,,,,,,,,,,,,,,,,,
,,,,,00088,2023-10-26_16h59.08.671,vbt_B1_day4,2022.2.4,Win32,60.18295619,,,,,,down,0,1.2187,,-0.268518519,-0.192592621,1,0,0,0,59,59,4,1,moes,images/br_moes.png,images/cb_moes.png,0,,,,,,,,,,,,,,,,,,,,,,
,,,,,00088,2023-10-26_16h59.08.671,vbt_B1_day4,2022.2.4,Win32,60.18295619,,,,,,down,0,2.5628,,-0.268518519,-0.192592621,1,0,0,0,60,60,67,1,zwart,images/br_zwart.png,images/cb_zwart.png,1,zwart,,,,,,,,,,,,,,,,,,,,,
,,,,,00088,2023-10-26_16h59.08.671,vbt_B1_day4,2022.2.4,Win32,60.18295619,,,,,,down,0,3.9565,,-0.268518519,-0.192592621,1,0,0,0,61,61,11,1,mode,images/br_mode.png,images/cb_mode.png,0,,,,,,,,,,,,,,,,,,,,,,
,,,,,00088,2023-10-26_16h59.08.671,vbt_B1_day4,2022.2.4,Win32,60.18295619,,,,,,down,0,0.8176,,-0.268518519,-0.192592621,1,0,0,0,62,62,3,1,mand,images/br_mand.png,images/cb_mand.png,0,,,,,,,,,,,,,,,,,,,,,,
,,,,,00088,2023-10-26_16h59.08.671,vbt_B1_day4,2022.2.4,Win32,60.18295619,,,,,,down,0,18.4602,,-0.268518519,-0.192592621,1,0,0,0,63,63,81,1,dubbel,images/br_dubbel.png,images/cb_dubbel.png,0,,,,,,,,,,,,,,,,,,,,,,
,,,,,00088,2023-10-26_16h59.08.671,vbt_B1_day4,2022.2.4,Win32,60.18295619,,,,,,down,0,5.6872,,-0.268518519,-0.192592621,1,0,0,0,64,64,157,1,uitlaat,images/br_uitlaat.png,images/cb_uitlaat.png,0,,,,,,,,,,,,,,,,,,,,,,
,,,,,00088,2023-10-26_16h59.08.671,vbt_B1_day4,2022.2.4,Win32,60.18295619,,,,,,down,0,0.8462,,-0.268518519,-0.192592621,1,0,0,0,65,65,5,1,blad,images/br_blad.png,images/cb_blad.png,0,,,,,,,,,,,,,,,,,,,,,,
,,,,,00088,2023-10-26_16h59.08.671,vbt_B1_day4,2022.2.4,Win32,60.18295619,,,,,,down,0,1.4638,,-0.268518519,-0.192592621,1,0,0,0,66,66,64,1,wegen,images/br_wegen.png,images/cb_wegen.png,1,wegen,,,,,,,,,,,,,,,,,,,,,
,,,,,00088,2023-10-26_16h59.08.671,vbt_B1_day4,2022.2.4,Win32,60.18295619,,,,,,down,0,2.0305,,-0.268518519,-0.192592621,1,0,0,0,67,67,79,1,nodig,images/br_nodig.png,images/cb_nodig.png,0,,,,,,,,,,,,,,,,,,,,,,
,,,,,00088,2023-10-26_16h59.08.671,vbt_B1_day4,2022.2.4,Win32,60.18295619,,,,,,down,0,0.8236,,-0.268518519,-0.192592621,1,0,0,0,68,68,28,1,stal,images/br_stal.png,images/cb_stal.png,0,,,,,,,,,,,,,,,,,,,,,,
,,,,,00088,2023-10-26_16h59.08.671,vbt_B1_day4,2022.2.4,Win32,60.18295619,,,,,,down,0,0.4234,,-0.268518519,-0.192592621,1,0,0,0,69,69,100,1,geduld,images/br_geduld.png,images/cb_geduld.png,0,,,,,,,,,,,,,,,,,,,,,,
,,,,,00088,2023-10-26_16h59.08.671,vbt_B1_day4,2022.2.4,Win32,60.18295619,,,,,,down,0,0.4001,,-0.268518519,-0.192592621,1,0,0,0,70,70,10,1,leek,images/br_leek.png,images/cb_leek.png,0,,,,,,,,,,,,,,,,,,,,,,
,,,,,00088,2023-10-26_16h59.08.671,vbt_B1_day4,2022.2.4,Win32,60.18295619,,,,,,down,0,0.4133,,-0.268518519,-0.192592621,1,0,0,0,71,71,57,1,steek,images/br_steek.png,images/cb_steek.png,0,,,,,,,,,,,,,,,,,,,,,,
,,,,,00088,2023-10-26_16h59.08.671,vbt_B1_day4,2022.2.4,Win32,60.18295619,,,,,,down,0,6.9454,,-0.268518519,-0.192592621,1,0,0,0,72,72,136,1,waarbij,images/br_waarbij.png,images/cb_waarbij.png,0,,,,,,,,,,,,,,,,,,,,,,
,,,,,00088,2023-10-26_16h59.08.671,vbt_B1_day4,2022.2.4,Win32,60.18295619,,,,,,down,0,6.3452,,-0.268518519,-0.192592621,1,0,0,0,73,73,168,1,bisschop,images/br_bisschop.png,images/cb_bisschop.png,0,,,,,,,,,,,,,,,,,,,,,,
,,,,,00088,2023-10-26_16h59.08.671,vbt_B1_day4,2022.2.4,Win32,60.18295619,,,,,,down,0,8.6464,,-0.268518519,-0.192592621,1,0,0,0,74,74,135,1,gedicht,images/br_gedicht.png,images/cb_gedicht.png,0,,,,,,,,,,,,,,,,,,,,,,
,,,,,00088,2023-10-26_16h59.08.671,vbt_B1_day4,2022.2.4,Win32,60.18295619,,,,,,down,0,0.8175,,-0.268518519,-0.192592621,1,0,0,0,75,75,92,1,geheim,images/br_geheim.png,images/cb_geheim.png,0,,,,,,,,,,,,,,,,,,,,,,
,,,,,00088,2023-10-26_16h59.08.671,vbt_B1_day4,2022.2.4,Win32,60.18295619,,,,,,down,0,0.7352,,-0.268518519,-0.192592621,1,0,0,0,76,76,8,1,knie,images/br_knie.png,images/cb_knie.png,0,,,,,,,,,,,,,,,,,,,,,,
,,,,,00088,2023-10-26_16h59.08.671,vbt_B1_day4,2022.2.4,Win32,60.18295619,,,,,,down,0,3.4774,,-0.268518519,-0.192592621,1,0,0,0,77,77,145,1,invloed,images/br_invloed.png,images/cb_invloed.png,1,invloed,,,,,,,,,,,,,,,,,,,,,
,,,,,00088,2023-10-26_16h59.08.671,vbt_B1_day4,2022.2.4,Win32,60.18295619,,,,,,down,0,6.0673,,-0.268518519,-0.192592621,1,0,0,0,78,78,121,1,twijfel,images/br_twijfel.png,images/cb_twijfel.png,0,,,,,,,,,,,,,,,,,,,,,,
,,,,,00088,2023-10-26_16h59.08.671,vbt_B1_day4,2022.2.4,Win32,60.18295619,,,,,,down,0,7.1839,,-0.268518519,-0.192592621,1,0,0,0,79,79,47,1,kabel,images/br_kabel.png,images/cb_kabel.png,0,,,,,,,,,,,,,,,,,,,,,,
,,,,,00088,2023-10-26_16h59.08.671,vbt_B1_day4,2022.2.4,Win32,60.18295619,,,,,,down,0,1.533,,-0.268518519,-0.192592621,1,0,0,0,80,80,194,1,driemaal,images/br_driemaal.png,images/cb_driemaal.png,0,,,,,,,,,,,,,,,,,,,,,,
,,,,,00088,2023-10-26_16h59.08.671,vbt_B1_day4,2022.2.4,Win32,60.18295619,,,,,,down,0,6.1015,,-0.268518519,-0.192592621,1,0,0,0,81,81,41,1,maken,images/br_maken.png,images/cb_maken.png,0,,,,,,,,,,,,,,,,,,,,,,
,,,,,00088,2023-10-26_16h59.08.671,vbt_B1_day4,2022.2.4,Win32,60.18295619,,,,,,down,0,14.2312,,-0.215740698,-0.219444487,1,0,0,0,82,82,65,1,parel,images/br_parel.png,images/cb_parel.png,1,varel,,,,,,,,,,,,,,,,,,,,,
,,,,,00088,2023-10-26_16h59.08.671,vbt_B1_day4,2022.2.4,Win32,60.18295619,,,,,,down,0,2.1905,,-0.215740698,-0.219444487,1,0,0,0,83,83,196,1,nakijken,images/br_nakijken.png,images/cb_nakijken.png,0,,,,,,,,,,,,,,,,,,,,,,
,,,,,00088,2023-10-26_16h59.08.671,vbt_B1_day4,2022.2.4,Win32,60.18295619,,,,,,down,0,15.136,,-0.215740698,-0.219444487,1,0,0,0,84,84,26,1,leuk,images/br_leuk.png,images/cb_leuk.png,1,leuk,,,,,,,,,,,,,,,,,,,,,
,,,,,00088,2023-10-26_16h59.08.671,vbt_B1_day4,2022.2.4,Win32,60.18295619,,,,,,down,0,4.6725,,-0.215740698,-0.219444487,1,0,0,0,85,85,158,1,innemen,images/br_innemen.png,images/cb_innemen.png,0,,,,,,,,,,,,,,,,,,,,,,
,,,,,00088,2023-10-26_16h59.08.671,vbt_B1_day4,2022.2.4,Win32,60.18295619,,,,,,down,0,3.12,,-0.215740698,-0.219444487,1,0,0,0,86,86,109,1,totaal,images/br_totaal.png,images/cb_totaal.png,0,,,,,,,,,,,,,,,,,,,,,,
,,,,,00088,2023-10-26_16h59.08.671,vbt_B1_day4,2022.2.4,Win32,60.18295619,,,,,,down,0,0.081,,-0.215740698,-0.219444487,1,0,0,0,87,87,13,1,kaal,images/br_kaal.png,images/cb_kaal.png,0,,,,,,,,,,,,,,,,,,,,,,
,,,,,00088,2023-10-26_16h59.08.671,vbt_B1_day4,2022.2.4,Win32,60.18295619,,,,,,down,0,0.6902,,-0.215740698,-0.219444487,1,0,0,0,88,88,9,1,hier,images/br_hier.png,images/cb_hier.png,0,,,,,,,,,,,,,,,,,,,,,,
,,,,,00088,2023-10-26_16h59.08.671,vbt_B1_day4,2022.2.4,Win32,60.18295619,,,,,,down,0,2.3013,,-0.215740698,-0.219444487,1,0,0,0,89,89,174,1,stemming,images/br_stemming.png,images/cb_stemming.png,0,,,,,,,,,,,,,,,,,,,,,,
,,,,,00088,2023-10-26_16h59.08.671,vbt_B1_day4,2022.2.4,Win32,60.18295619,,,,,,down,0,8.3168,,-0.215740698,-0.219444487,1,0,0,0,90,90,160,1,daarheen,images/br_daarheen.png,images/cb_daarheen.png,0,,,,,,,,,,,,,,,,,,,,,,
,,,,,00088,2023-10-26_16h59.08.671,vbt_B1_day4,2022.2.4,Win32,60.18295619,,,,,,down,0,1.364,,-0.215740698,-0.219444487,1,0,0,0,91,91,115,1,kleren,images/br_kleren.png,images/cb_kleren.png,0,,,,,,,,,,,,,,,,,,,,,,
,,,,,00088,2023-10-26_16h59.08.671,vbt_B1_day4,2022.2.4,Win32,60.18295619,,,,,,down,0,0.302,,-0.215740698,-0.219444487,1,0,0,0,92,92,46,1,jagen,images/br_jagen.png,images/cb_jagen.png,0,,,,,,,,,,,,,,,,,,,,,,
,,,,,00088,2023-10-26_16h59.08.671,vbt_B1_day4,2022.2.4,Win32,60.18295619,,,,,,down,0,0.1294,,-0.215740698,-0.219444487,1,0,0,0,93,93,33,1,vlek,images/br_vlek.png,images/cb_vlek.png,0,,,,,,,,,,,,,,,,,,,,,,
,,,,,00088,2023-10-26_16h59.08.671,vbt_B1_day4,2022.2.4,Win32,60.18295619,,,,,,down,0,6.0547,,-0.215740698,-0.219444487,1,0,0,0,94,94,180,1,openbaar,images/br_openbaar.png,images/cb_openbaar.png,0,,,,,,,,,,,,,,,,,,,,,,
,,,,,00088,2023-10-26_16h59.08.671,vbt_B1_day4,2022.2.4,Win32,60.18295619,,,,,,down,0,1.4791,,-0.215740698,-0.219444487,1,0,0,0,95,95,192,1,schaamte,images/br_schaamte.png,images/cb_schaamte.png,0,,,,,,,,,,,,,,,,,,,,,,
,,,,,00088,2023-10-26_16h59.08.671,vbt_B1_day4,2022.2.4,Win32,60.18295619,,,,,,down,0,4.7833,,-0.215740698,-0.219444487,1,0,0,0,96,96,181,1,toegeven,images/br_toegeven.png,images/cb_toegeven.png,0,,,,,,,,,,,,,,,,,,,,,,
,,,,,00088,2023-10-26_16h59.08.671,vbt_B1_day4,2022.2.4,Win32,60.18295619,,,,,,down,0,11.6395,,-0.213888875,-0.17777782,1,0,0,0,97,97,146,1,opkomen,images/br_opkomen.png,images/cb_opkomen.png,1,opkomen,,,,,,,,,,,,,,,,,,,,,
,,,,,00088,2023-10-26_16h59.08.671,vbt_B1_day4,2022.2.4,Win32,60.18295619,,,,,,down,0,3.6401,,-0.213888875,-0.17777782,1,0,0,0,98,98,138,1,akkoord,images/br_akkoord.png,images/cb_akkoord.png,0,,,,,,,,,,,,,,,,,,,,,,
,,,,,00088,2023-10-26_16h59.08.671,vbt_B1_day4,2022.2.4,Win32,60.18295619,,,,,,down,0,0.7721,,-0.213888875,-0.17777782,1,0,0,0,99,99,12,1,kust,images/br_kust.png,images/cb_kust.png,0,,,,,,,,,,,,,,,,,,,,,,
,,,,,00088,2023-10-26_16h59.08.671,vbt_B1_day4,2022.2.4,Win32,60.18295619,,,,,,down,0,5.3009,,-0.213888875,-0.17777782,1,0,0,0,100,100,140,1,blijven,images/br_blijven.png,images/cb_blijven.png,0,,,,,,,,,,,,,,,,,,,,,,
,,,,,00088,2023-10-26_16h59.08.671,vbt_B1_day4,2022.2.4,Win32,60.18295619,,,,,,down,0,4.7239,,-0.213888875,-0.17777782,1,0,0,0,101,101,96,1,slagen,images/br_slagen.png,images/cb_slagen.png,0,,,,,,,,,,,,,,,,,,,,,,
,,,,,00088,2023-10-26_16h59.08.671,vbt_B1_day4,2022.2.4,Win32,60.18295619,,,,,,down,0,2.3096,,-0.213888875,-0.17777782,1,0,0,0,102,102,198,1,bedoelen,images/br_bedoelen.png,images/cb_bedoelen.png,0,,,,,,,,,,,,,,,,,,,,,,
,,,,,00088,2023-10-26_16h59.08.671,vbt_B1_day4,2022.2.4,Win32,60.18295619,,,,,,down,0,2.382,,-0.213888875,-0.17777782,1,0,0,0,103,103,87,1,toeval,images/br_toeval.png,images/cb_toeval.png,0,,,,,,,,,,,,,,,,,,,,,,
,,,,,00088,2023-10-26_16h59.08.671,vbt_B1_day4,2022.2.4,Win32,60.18295619,,,,,,down,0,18.1848,,-0.349999993,-0.217592593,1,0,0,0,104,104,147,1,komisch,images/br_komisch.png,images/cb_komisch.png,1,konisch,,,,,,,,,,,,,,,,,,,,,
,,,,,00088,2023-10-26_16h59.08.671,vbt_B1_day4,2022.2.4,Win32,60.18295619,,,,,,down,0,2.9673,,-0.349999993,-0.217592593,1,0,0,0,105,105,18,1,blik,images/br_blik.png,images/cb_blik.png,0,,,,,,,,,,,,,,,,,,,,,,
,,,,,00088,2023-10-26_16h59.08.671,vbt_B1_day4,2022.2.4,Win32,60.18295619,,,,,,down,0,5.8565,,-0.349999993,-0.217592593,1,0,0,0,106,106,172,1,weigeren,images/br_weigeren.png,images/cb_weigeren.png,0,,,,,,,,,,,,,,,,,,,,,,
,,,,,00088,2023-10-26_16h59.08.671,vbt_B1_day4,2022.2.4,Win32,60.18295619,,,,,,down,0,12.5739,,-0.349999993,-0.217592593,1,0,0,0,107,107,195,1,middelen,images/br_middelen.png,images/cb_middelen.png,0,,,,,,,,,,,,,,,,,,,,,,
,,,,,00088,2023-10-26_16h59.08.671,vbt_B1_day4,2022.2.4,Win32,60.18295619,,,,,,down,0,4.9109,,-0.349999993,-0.217592593,1,0,0,0,108,108,187,1,opkijken,images/br_opkijken.png,images/cb_opkijken.png,1,opkijken,,,,,,,,,,,,,,,,,,,,,
,,,,,00088,2023-10-26_16h59.08.671,vbt_B1_day4,2022.2.4,Win32,60.18295619,,,,,,down,0,1.8723,,-0.349999993,-0.217592593,1,0,0,0,109,109,143,1,hechten,images/br_hechten.png,images/cb_hechten.png,0,,,,,,,,,,,,,,,,,,,,,,
,,,,,00088,2023-10-26_16h59.08.671,vbt_B1_day4,2022.2.4,Win32,60.18295619,,,,,,down,0,0.7838,,-0.349999993,-0.217592593,1,0,0,0,110,110,77,1,woede,images/br_woede.png,images/cb_woede.png,0,,,,,,,,,,,,,,,,,,,,,,
,,,,,00088,2023-10-26_16h59.08.671,vbt_B1_day4,2022.2.4,Win32,60.18295619,,,,,,down,0,4.6902,,-0.349999993,-0.217592593,1,0,0,0,111,111,176,1,techniek,images/br_techniek.png,images/cb_techniek.png,0,,,,,,,,,,,,,,,,,,,,,,
,,,,,00088,2023-10-26_16h59.08.671,vbt_B1_day4,2022.2.4,Win32,60.18295619,,,,,,down,0,5.3336,,-0.349999993,-0.217592593,1,0,0,0,112,112,197,1,spanning,images/br_spanning.png,images/cb_spanning.png,0,,,,,,,,,,,,,,,,,,,,,,
,,,,,00088,2023-10-26_16h59.08.671,vbt_B1_day4,2022.2.4,Win32,60.18295619,,,,,,down,0,0.7472,,-0.349999993,-0.217592593,1,0,0,0,113,113,102,1,legaal,images/br_legaal.png,images/cb_legaal.png,0,,,,,,,,,,,,,,,,,,,,,,
,,,,,00088,2023-10-26_16h59.08.671,vbt_B1_day4,2022.2.4,Win32,60.18295619,,,,,,down,0,5.9164,,-0.349999993,-0.217592593,1,0,0,0,114,114,183,1,getuigen,images/br_getuigen.png,images/cb_getuigen.png,0,,,,,,,,,,,,,,,,,,,,,,
,,,,,00088,2023-10-26_16h59.08.671,vbt_B1_day4,2022.2.4,Win32,60.18295619,,,,,,down,0,8.2274,,-0.349999993,-0.217592593,1,0,0,0,115,115,111,1,ticket,images/br_ticket.png,images/cb_ticket.png,0,,,,,,,,,,,,,,,,,,,,,,
,,,,,00088,2023-10-26_16h59.08.671,vbt_B1_day4,2022.2.4,Win32,60.18295619,,,,,,down,0,10.0092,,-0.349999993,-0.217592593,1,0,0,0,116,116,63,1,flirt,images/br_flirt.png,images/cb_flirt.png,0,,,,,,,,,,,,,,,,,,,,,,
,,,,,00088,2023-10-26_16h59.08.671,vbt_B1_day4,2022.2.4,Win32,60.18295619,,,,,,down,0,1.3006,,-0.349999993,-0.217592593,1,0,0,0,117,117,134,1,geliefd,images/br_geliefd.png,images/cb_geliefd.png,0,,,,,,,,,,,,,,,,,,,,,,
,,,,,00088,2023-10-26_16h59.08.671,vbt_B1_day4,2022.2.4,Win32,60.18295619,,,,,,down,0,2.4071,,-0.349999993,-0.217592593,1,0,0,0,118,118,104,1,zweven,images/br_zweven.png,images/cb_zweven.png,1,zweven,,,,,,,,,,,,,,,,,,,,,
,,,,,00088,2023-10-26_16h59.08.671,vbt_B1_day4,2022.2.4,Win32,60.18295619,,,,,,down,0,0.7587,,-0.349999993,-0.217592593,1,0,0,0,119,119,62,1,knaap,images/br_knaap.png,images/cb_knaap.png,0,,,,,,,,,,,,,,,,,,,,,,
,,,,,00088,2023-10-26_16h59.08.671,vbt_B1_day4,2022.2.4,Win32,60.18295619,,,,,,down,0,1.0376,,-0.349999993,-0.217592593,1,0,0,0,120,120,126,1,kasteel,images/br_kasteel.png,images/cb_kasteel.png,0,,,,,,,,,,,,,,,,,,,,,,
,,,,,00088,2023-10-26_16h59.08.671,vbt_B1_day4,2022.2.4,Win32,60.18295619,,,,,,down,0,2.1404,,-0.349999993,-0.217592593,1,0,0,0,121,121,112,1,lukken,images/br_lukken.png,images/cb_lukken.png,0,,,,,,,,,,,,,,,,,,,,,,
,,,,,00088,2023-10-26_16h59.08.671,vbt_B1_day4,2022.2.4,Win32,60.18295619,,,,,,down,0,0.9842,,-0.349999993,-0.217592593,1,0,0,0,122,122,39,1,laag,images/br_laag.png,images/cb_laag.png,0,,,,,,,,,,,,,,,,,,,,,,
,,,,,00088,2023-10-26_16h59.08.671,vbt_B1_day4,2022.2.4,Win32,60.18295619,,,,,,down,0,5.0108,,-0.349999993,-0.217592593,1,0,0,0,123,123,37,1,mijn,images/br_mijn.png,images/cb_mijn.png,0,,,,,,,,,,,,,,,,,,,,,,
,,,,,00088,2023-10-26_16h59.08.671,vbt_B1_day4,2022.2.4,Win32,60.18295619,,,,,,down,0,3.7853,,-0.349999993,-0.217592593,1,0,0,0,124,124,56,1,traag,images/br_traag.png,images/cb_traag.png,0,,,,,,,,,,,,,,,,,,,,,,
,,,,,00088,2023-10-26_16h59.08.671,vbt_B1_day4,2022.2.4,Win32,60.18295619,,,,,,down,0,1.9911,,-0.349999993,-0.217592593,1,0,0,0,125,125,93,1,waarop,images/br_waarop.png,images/cb_waarop.png,0,,,,,,,,,,,,,,,,,,,,,,
,,,,,00088,2023-10-26_16h59.08.671,vbt_B1_day4,2022.2.4,Win32,60.18295619,,,,,,down,0,2.6644,,-0.349999993,-0.217592593,1,0,0,0,126,126,131,1,opzicht,images/br_opzicht.png,images/cb_opzicht.png,0,,,,,,,,,,,,,,,,,,,,,,
,,,,,00088,2023-10-26_16h59.08.671,vbt_B1_day4,2022.2.4,Win32,60.18295619,,,,,,down,0,4.4177,,-0.349999993,-0.217592593,1,0,0,0,127,127,95,1,vreten,images/br_vreten.png,images/cb_vreten.png,0,,,,,,,,,,,,,,,,,,,,,,
,,,,,00088,2023-10-26_16h59.08.671,vbt_B1_day4,2022.2.4,Win32,60.18295619,,,,,,down,0,6.5616,,-0.349999993,-0.217592593,1,0,0,0,128,128,127,1,doodmoe,images/br_doodmoe.png,images/cb_doodmoe.png,0,,,,,,,,,,,,,,,,,,,,,,
,,,,,00088,2023-10-26_16h59.08.671,vbt_B1_day4,2022.2.4,Win32,60.18295619,,,,,,down,0,1.3106,,-0.349999993,-0.217592593,1,0,0,0,129,129,72,1,strak,images/br_strak.png,images/cb_strak.png,0,,,,,,,,,,,,,,,,,,,,,,
,,,,,00088,2023-10-26_16h59.08.671,vbt_B1_day4,2022.2.4,Win32,60.18295619,,,,,,down,0,0.9506,,-0.349999993,-0.217592593,1,0,0,0,130,130,173,1,apparaat,images/br_apparaat.png,images/cb_apparaat.png,0,,,,,,,,,,,,,,,,,,,,,,
,,,,,00088,2023-10-26_16h59.08.671,vbt_B1_day4,2022.2.4,Win32,60.18295619,,,,,,down,0,1.8968,,-0.349999993,-0.217592593,1,0,0,0,131,131,38,1,baai,images/br_baai.png,images/cb_baai.png,0,,,,,,,,,,,,,,,,,,,,,,
,,,,,00088,2023-10-26_16h59.08.671,vbt_B1_day4,2022.2.4,Win32,60.18295619,,,,,,down,0,3.345,,-0.349999993,-0.217592593,1,0,0,0,132,132,15,1,soda,images/br_soda.png,images/cb_soda.png,0,,,,,,,,,,,,,,,,,,,,,,
,,,,,00088,2023-10-26_16h59.08.671,vbt_B1_day4,2022.2.4,Win32,60.18295619,,,,,,down,0,0.4379,,-0.349999993,-0.217592593,1,0,0,0,133,133,25,1,plek,images/br_plek.png,images/cb_plek.png,1,plek,,,,,,,,,,,,,,,,,,,,,
,,,,,00088,2023-10-26_16h59.08.671,vbt_B1_day4,2022.2.4,Win32,60.18295619,,,,,,down,0,1.0174,,-0.349999993,-0.217592593,1,0,0,0,134,134,98,1,kreeft,images/br_kreeft.png,images/cb_kreeft.png,0,,,,,,,,,,,,,,,,,,,,,,
,,,,,00088,2023-10-26_16h59.08.671,vbt_B1_day4,2022.2.4,Win32,60.18295619,,,,,,down,0,3.0168,,-0.349999993,-0.217592593,1,0,0,0,135,135,116,1,besmet,images/br_besmet.png,images/cb_besmet.png,0,,,,,,,,,,,,,,,,,,,,,,
,,,,,00088,2023-10-26_16h59.08.671,vbt_B1_day4,2022.2.4,Win32,60.18295619,,,,,,down,0,0.5228,,-0.349999993,-0.217592593,1,0,0,0,136,136,49,1,laken,images/br_laken.png,images/cb_laken.png,0,,,,,,,,,,,,,,,,,,,,,,
,,,,,00088,2023-10-26_16h59.08.671,vbt_B1_day4,2022.2.4,Win32,60.18295619,,,,,,down,0,0.4052,,-0.349999993,-0.217592593,1,0,0,0,137,137,36,1,vuur,images/br_vuur.png,images/cb_vuur.png,0,,,,,,,,,,,,,,,,,,,,,,
,,,,,00088,2023-10-26_16h59.08.671,vbt_B1_day4,2022.2.4,Win32,60.18295619,,,,,,down,0,0.4134,,-0.349999993,-0.217592593,1,0,0,0,138,138,199,1,beseffen,images/br_beseffen.png,images/cb_beseffen.png,0,,,,,,,,,,,,,,,,,,,,,,
,,,,,00088,2023-10-26_16h59.08.671,vbt_B1_day4,2022.2.4,Win32,60.18295619,,,,,,down,0,15.3944,,-0.349999993,-0.217592593,1,0,0,0,139,139,125,1,aanzien,images/br_aanzien.png,images/cb_aanzien.png,0,,,,,,,,,,,,,,,,,,,,,,
,,,,,00088,2023-10-26_16h59.08.671,vbt_B1_day4,2022.2.4,Win32,60.18295619,,,,,,down,0,0.2802,,-0.349999993,-0.217592593,1,0,0,0,140,140,1,1,zaal,images/br_zaal.png,images/cb_zaal.png,0,,,,,,,,,,,,,,,,,,,,,,
,,,,,00088,2023-10-26_16h59.08.671,vbt_B1_day4,2022.2.4,Win32,60.18295619,,,,,,down,0,0.6387,,-0.349999993,-0.217592593,1,0,0,0,141,141,31,1,poes,images/br_poes.png,images/cb_poes.png,0,,,,,,,,,,,,,,,,,,,,,,
,,,,,00088,2023-10-26_16h59.08.671,vbt_B1_day4,2022.2.4,Win32,60.18295619,,,,,,down,0,1.181,,-0.349999993,-0.217592593,1,0,0,0,142,142,119,1,liefje,images/br_liefje.png,images/cb_liefje.png,0,,,,,,,,,,,,,,,,,,,,,,
,,,,,00088,2023-10-26_16h59.08.671,vbt_B1_day4,2022.2.4,Win32,60.18295619,,,,,,down,0,1.5898,,-0.349999993,-0.217592593,1,0,0,0,143,143,85,1,heilig,images/br_heilig.png,images/cb_heilig.png,0,,,,,,,,,,,,,,,,,,,,,,
,,,,,00088,2023-10-26_16h59.08.671,vbt_B1_day4,2022.2.4,Win32,60.18295619,,,,,,down,0,1.4454,,-0.349999993,-0.217592593,1,0,0,0,144,144,154,1,aflopen,images/br_aflopen.png,images/cb_aflopen.png,0,,,,,,,,,,,,,,,,,,,,,,
,,,,,00088,2023-10-26_16h59.08.671,vbt_B1_day4,2022.2.4,Win32,60.18295619,,,,,,down,0,2.222,,-0.349999993,-0.217592593,1,0,0,0,145,145,155,1,gerucht,images/br_gerucht.png,images/cb_gerucht.png,0,,,,,,,,,,,,,,,,,,,,,,
,,,,,00088,2023-10-26_16h59.08.671,vbt_B1_day4,2022.2.4,Win32,60.18295619,,,,,,down,0,0.4091,,-0.349999993,-0.217592593,1,0,0,0,146,146,2,1,jaar,images/br_jaar.png,images/cb_jaar.png,0,,,,,,,,,,,,,,,,,,,,,,
,,,,,00088,2023-10-26_16h59.08.671,vbt_B1_day4,2022.2.4,Win32,60.18295619,,,,,,down,0,4.5995,,-0.349999993,-0.217592593,1,0,0,0,147,147,108,1,excuus,images/br_excuus.png,images/cb_excuus.png,0,,,,,,,,,,,,,,,,,,,,,,
,,,,,00088,2023-10-26_16h59.08.671,vbt_B1_day4,2022.2.4,Win32,60.18295619,,,,,,down,0,2.3622,,-0.349999993,-0.217592593,1,0,0,0,148,148,70,1,ijdel,images/br_ijdel.png,images/cb_ijdel.png,0,,,,,,,,,,,,,,,,,,,,,,
,,,,,00088,2023-10-26_16h59.08.671,vbt_B1_day4,2022.2.4,Win32,60.18295619,,,,,,down,0,0.8891,,-0.349999993,-0.217592593,1,0,0,0,149,149,189,1,aanraden,images/br_aanraden.png,images/cb_aanraden.png,0,,,,,,,,,,,,,,,,,,,,,,
,,,,,00088,2023-10-26_16h59.08.671,vbt_B1_day4,2022.2.4,Win32,60.18295619,,,,,,down,0,0.829,,-0.349999993,-0.217592593,1,0,0,0,150,150,88,1,boeien,images/br_boeien.png,images/cb_boeien.png,0,,,,,,,,,,,,,,,,,,,,,,
,,,,,00088,2023-10-26_16h59.08.671,vbt_B1_day4,2022.2.4,Win32,60.18295619,,,,,,down,0,6.2101,,-0.349999993,-0.217592593,1,0,0,0,151,151,69,1,waken,images/br_waken.png,images/cb_waken.png,0,,,,,,,,,,,,,,,,,,,,,,
,,,,,00088,2023-10-26_16h59.08.671,vbt_B1_day4,2022.2.4,Win32,60.18295619,,,,,,down,0,3.1796,,-0.349999993,-0.217592593,1,0,0,0,152,152,59,1,kring,images/br_kring.png,images/cb_kring.png,0,,,,,,,,,,,,,,,,,,,,,,
,,,,,00088,2023-10-26_16h59.08.671,vbt_B1_day4,2022.2.4,Win32,60.18295619,,,,,,down,0,3.7777,,-0.349999993,-0.217592593,1,0,0,0,153,153,182,1,bijkomen,images/br_bijkomen.png,images/cb_bijkomen.png,0,,,,,,,,,,,,,,,,,,,,,,
,,,,,00088,2023-10-26_16h59.08.671,vbt_B1_day4,2022.2.4,Win32,60.18295619,,,,,,down,0,1.7751,,-0.349999993,-0.217592593,1,0,0,0,154,154,6,1,diep,images/br_diep.png,images/cb_diep.png,0,,,,,,,,,,,,,,,,,,,,,,
,,,,,00088,2023-10-26_16h59.08.671,vbt_B1_day4,2022.2.4,Win32,60.18295619,,,,,,down,0,2.0876,,-0.349999993,-0.217592593,1,0,0,0,155,155,35,1,lust,images/br_lust.png,images/cb_lust.png,0,,,,,,,,,,,,,,,,,,,,,,
,,,,,00088,2023-10-26_16h59.08.671,vbt_B1_day4,2022.2.4,Win32,60.18295619,,,,,,down,0,0.3402,,-0.349999993,-0.217592593,1,0,0,0,156,156,29,1,baas,images/br_baas.png,images/cb_baas.png,0,,,,,,,,,,,,,,,,,,,,,,
,,,,,00088,2023-10-26_16h59.08.671,vbt_B1_day4,2022.2.4,Win32,60.18295619,,,,,,down,0,0.1196,,-0.349999993,-0.217592593,1,0,0,0,157,157,21,1,mist,images/br_mist.png,images/cb_mist.png,0,,,,,,,,,,,,,,,,,,,,,,
,,,,,00088,2023-10-26_16h59.08.671,vbt_B1_day4,2022.2.4,Win32,60.18295619,,,,,,down,0,0.5215,,-0.349999993,-0.217592593,1,0,0,0,158,158,7,1,geld,images/br_geld.png,images/cb_geld.png,0,,,,,,,,,,,,,,,,,,,,,,
,,,,,00088,2023-10-26_16h59.08.671,vbt_B1_day4,2022.2.4,Win32,60.18295619,,,,,,down,0,1.8923,,-0.349999993,-0.217592593,1,0,0,0,159,159,80,1,kanjer,images/br_kanjer.png,images/cb_kanjer.png,0,,,,,,,,,,,,,,,,,,,,,,
,,,,,00088,2023-10-26_16h59.08.671,vbt_B1_day4,2022.2.4,Win32,60.18295619,,,,,,down,0,9.4177,,-0.349999993,-0.217592593,1,0,0,0,160,160,165,1,feestdag,images/br_feestdag.png,images/cb_feestdag.png,0,,,,,,,,,,,,,,,,,,,,,,
,,,,,00088,2023-10-26_16h59.08.671,vbt_B1_day4,2022.2.4,Win32,60.18295619,,,,,,down,0,2.3159,,-0.349999993,-0.217592593,1,0,0,0,161,161,179,1,woestijn,images/br_woestijn.png,images/cb_woestijn.png,0,,,,,,,,,,,,,,,,,,,,,,
,,,,,00088,2023-10-26_16h59.08.671,vbt_B1_day4,2022.2.4,Win32,60.18295619,,,,,,down,0,3.6348,,-0.349999993,-0.217592593,1,0,0,0,162,162,44,1,flits,images/br_flits.png,images/cb_flits.png,0,,,,,,,,,,,,,,,,,,,,,,
,,,,,00088,2023-10-26_16h59.08.671,vbt_B1_day4,2022.2.4,Win32,60.18295619,,,,,,down,0,3.5084,,-0.349999993,-0.217592593,1,0,0,0,163,163,162,1,uitdelen,images/br_uitdelen.png,images/cb_uitdelen.png,0,,,,,,,,,,,,,,,,,,,,,,
,,,,,00088,2023-10-26_16h59.08.671,vbt_B1_day4,2022.2.4,Win32,60.18295619,,,,,,down,0,5.251,,-0.349999993,-0.217592593,1,0,0,0,164,164,78,1,leren,images/br_leren.png,images/cb_leren.png,0,,,,,,,,,,,,,,,,,,,,,,
,,,,,00088,2023-10-26_16h59.08.671,vbt_B1_day4,2022.2.4,Win32,60.18295619,,,,,,down,0,0.4838,,-0.349999993,-0.217592593,1,0,0,0,165,165,84,1,lokken,images/br_lokken.png,images/cb_lokken.png,0,,,,,,,,,,,,,,,,,,,,,,
,,,,,00088,2023-10-26_16h59.08.671,vbt_B1_day4,2022.2.4,Win32,60.18295619,,,,,,down,0,1.87,,-0.349999993,-0.217592593,1,0,0,0,166,166,120,1,klimmen,images/br_klimmen.png,images/cb_klimmen.png,0,,,,,,,,,,,,,,,,,,,,,,
,,,,,00088,2023-10-26_16h59.08.671,vbt_B1_day4,2022.2.4,Win32,60.18295619,,,,,,down,0,2.6176,,-0.349999993,-0.217592593,1,0,0,0,167,167,175,1,heengaan,images/br_heengaan.png,images/cb_heengaan.png,0,,,,,,,,,,,,,,,,,,,,,,
,,,,,00088,2023-10-26_16h59.08.671,vbt_B1_day4,2022.2.4,Win32,60.18295619,,,,,,down,0,0.8719,,-0.349999993,-0.217592593,1,0,0,0,168,168,129,1,verhaal,images/br_verhaal.png,images/cb_verhaal.png,0,,,,,,,,,,,,,,,,,,,,,,
,,,,,00088,2023-10-26_16h59.08.671,vbt_B1_day4,2022.2.4,Win32,60.18295619,,,,,,down,0,2.9719,,-0.349999993,-0.217592593,1,0,0,0,169,169,166,1,strikken,images/br_strikken.png,images/cb_strikken.png,0,,,,,,,,,,,,,,,,,,,,,,
,,,,,00088,2023-10-26_16h59.08.671,vbt_B1_day4,2022.2.4,Win32,60.18295619,,,,,,down,0,1.0552,,-0.349999993,-0.217592593,1,0,0,0,170,170,113,1,koppen,images/br_koppen.png,images/cb_koppen.png,0,,,,,,,,,,,,,,,,,,,,,,
,,,,,00088,2023-10-26_16h59.08.671,vbt_B1_day4,2022.2.4,Win32,60.18295619,,,,,,down,0,2.2474,,-0.349999993,-0.217592593,1,0,0,0,171,171,94,1,oceaan,images/br_oceaan.png,images/cb_oceaan.png,0,,,,,,,,,,,,,,,,,,,,,,
,,,,,00088,2023-10-26_16h59.08.671,vbt_B1_day4,2022.2.4,Win32,60.18295619,,,,,,down,0,3.4477,,-0.349999993,-0.217592593,1,0,0,0,172,172,164,1,anarchie,images/br_anarchie.png,images/cb_anarchie.png,0,,,,,,,,,,,,,,,,,,,,,,
,,,,,00088,2023-10-26_16h59.08.671,vbt_B1_day4,2022.2.4,Win32,60.18295619,,,,,,down,0,3.2705,,-0.349999993,-0.217592593,1,0,0,0,173,173,27,1,dans,images/br_dans.png,images/cb_dans.png,1,dans,,,,,,,,,,,,,,,,,,,,,
,,,,,00088,2023-10-26_16h59.08.671,vbt_B1_day4,2022.2.4,Win32,60.18295619,,,,,,down,0,0.0956,,-0.349999993,-0.217592593,1,0,0,0,174,174,133,1,seizoen,images/br_seizoen.png,images/cb_seizoen.png,0,,,,,,,,,,,,,,,,,,,,,,
,,,,,00088,2023-10-26_16h59.08.671,vbt_B1_day4,2022.2.4,Win32,60.18295619,,,,,,down,0,0.3037,,-0.349999993,-0.217592593,1,0,0,0,175,175,54,1,gebit,images/br_gebit.png,images/cb_gebit.png,0,,,,,,,,,,,,,,,,,,,,,,
,,,,,00088,2023-10-26_16h59.08.671,vbt_B1_day4,2022.2.4,Win32,60.18295619,,,,,,down,0,3.1234,,-0.349999993,-0.217592593,1,0,0,0,176,176,163,1,schuilen,images/br_schuilen.png,images/cb_schuilen.png,0,,,,,,,,,,,,,,,,,,,,,,
,,,,,00088,2023-10-26_16h59.08.671,vbt_B1_day4,2022.2.4,Win32,60.18295619,,,,,,down,0,0.8833,,-0.349999993,-0.217592593,1,0,0,0,177,177,97,1,loyaal,images/br_loyaal.png,images/cb_loyaal.png,0,,,,,,,,,,,,,,,,,,,,,,
,,,,,00088,2023-10-26_16h59.08.671,vbt_B1_day4,2022.2.4,Win32,60.18295619,,,,,,down,0,7.0448,,-0.349999993,-0.217592593,1,0,0,0,178,178,105,1,wijlen,images/br_wijlen.png,images/cb_wijlen.png,1,wijlen,,,,,,,,,,,,,,,,,,,,,
,,,,,00088,2023-10-26_16h59.08.671,vbt_B1_day4,2022.2.4,Win32,60.18295619,,,,,,down,0,0.9585,,-0.349999993,-0.217592593,1,0,0,0,179,179,22,1,stof,images/br_stof.png,images/cb_stof.png,0,,,,,,,,,,,,,,,,,,,,,,
,,,,,00088,2023-10-26_16h59.08.671,vbt_B1_day4,2022.2.4,Win32,60.18295619,,,,,,down,0,2.6998,,-0.349999993,-0.217592593,1,0,0,0,180,180,32,1,palm,images/br_palm.png,images/cb_palm.png,0,,,,,,,,,,,,,,,,,,,,,,
,,,,,00088,2023-10-26_16h59.08.671,vbt_B1_day4,2022.2.4,Win32,60.18295619,,,,,,down,0,9.9847,,-0.349999993,-0.217592593,1,0,0,0,181,181,186,1,voorraad,images/br_voorraad.png,images/cb_voorraad.png,1,loorraad,,,,,,,,,,,,,,,,,,,,,
,,,,,00088,2023-10-26_16h59.08.671,vbt_B1_day4,2022.2.4,Win32,60.18295619,,,,,,down,0,0.6173,,-0.349999993,-0.217592593,1,0,0,0,182,182,139,1,stiekem,images/br_stiekem.png,images/cb_stiekem.png,0,,,,,,,,,,,,,,,,,,,,,,
,,,,,00088,2023-10-26_16h59.08.671,vbt_B1_day4,2022.2.4,Win32,60.18295619,,,,,,down,0,4.0044,,-0.349999993,-0.217592593,1,0,0,0,183,183,75,1,snoep,images/br_snoep.png,images/cb_snoep.png,0,,,,,,,,,,,,,,,,,,,,,,
,,,,,00088,2023-10-26_16h59.08.671,vbt_B1_day4,2022.2.4,Win32,60.18295619,,,,,,down,0,0.6012,,-0.349999993,-0.217592593,1,0,0,0,184,184,171,1,aarzelen,images/br_aarzelen.png,images/cb_aarzelen.png,0,,,,,,,,,,,,,,,,,,,,,,
,,,,,00088,2023-10-26_16h59.08.671,vbt_B1_day4,2022.2.4,Win32,60.18295619,,,,,,down,0,5.8891,,-0.349999993,-0.217592593,1,0,0,0,185,185,188,1,strekken,images/br_strekken.png,images/cb_strekken.png,0,,,,,,,,,,,,,,,,,,,,,,
,,,,,00088,2023-10-26_16h59.08.671,vbt_B1_day4,2022.2.4,Win32,60.18295619,,,,,,down,0,0.1185,,-0.349999993,-0.217592593,1,0,0,0,186,186,152,1,afnemen,images/br_afnemen.png,images/cb_afnemen.png,0,,,,,,,,,,,,,,,,,,,,,,
,,,,,00088,2023-10-26_16h59.08.671,vbt_B1_day4,2022.2.4,Win32,60.18295619,,,,,,down,0,4.9208,,-0.349999993,-0.217592593,1,0,0,0,187,187,24,1,jurk,images/br_jurk.png,images/cb_jurk.png,1,jurk,,,,,,,,,,,,,,,,,,,,,
,,,,,00088,2023-10-26_16h59.08.671,vbt_B1_day4,2022.2.4,Win32,60.18295619,,,,,,down,0,5.5558,,-0.349999993,-0.217592593,1,0,0,0,188,188,170,1,schatten,images/br_schatten.png,images/cb_schatten.png,0,,,,,,,,,,,,,,,,,,,,,,
,,,,,00088,2023-10-26_16h59.08.671,vbt_B1_day4,2022.2.4,Win32,60.18295619,,,,,,down,0,3.4551,,-0.349999993,-0.217592593,1,0,0,0,189,189,141,1,knielen,images/br_knielen.png,images/cb_knielen.png,0,,,,,,,,,,,,,,,,,,,,,,
,,,,,00088,2023-10-26_16h59.08.671,vbt_B1_day4,2022.2.4,Win32,60.18295619,,,,,,down,0,0.2379,,-0.349999993,-0.217592593,1,0,0,0,190,190,114,1,vullen,images/br_vullen.png,images/cb_vullen.png,0,,,,,,,,,,,,,,,,,,,,,,
,,,,,00088,2023-10-26_16h59.08.671,vbt_B1_day4,2022.2.4,Win32,60.18295619,,,,,,down,0,0.6018,,-0.349999993,-0.217592593,1,0,0,0,191,191,55,1,praat,images/br_praat.png,images/cb_praat.png,0,,,,,,,,,,,,,,,,,,,,,,
,,,,,00088,2023-10-26_16h59.08.671,vbt_B1_day4,2022.2.4,Win32,60.18295619,,,,,,down,0,4.6131,,-0.349999993,-0.217592593,1,0,0,0,192,192,148,1,smullen,images/br_smullen.png,images/cb_smullen.png,0,,,,,,,,,,,,,,,,,,,,,,
,,,,,00088,2023-10-26_16h59.08.671,vbt_B1_day4,2022.2.4,Win32,60.18295619,,,,,,down,0,4.3209,,-0.349999993,-0.217592593,1,0,0,0,193,193,20,1,site,images/br_site.png,images/cb_site.png,0,,,,,,,,,,,,,,,,,,,,,,
,,,,,00088,2023-10-26_16h59.08.671,vbt_B1_day4,2022.2.4,Win32,60.18295619,,,,,,down,0,0.5703,,-0.349999993,-0.217592593,1,0,0,0,194,194,40,1,schep,images/br_schep.png,images/cb_schep.png,0,,,,,,,,,,,,,,,,,,,,,,
,,,,,00088,2023-10-26_16h59.08.671,vbt_B1_day4,2022.2.4,Win32,60.18295619,,,,,,down,0,2.1535,,-0.349999993,-0.217592593,1,0,0,0,195,195,190,1,goedkoop,images/br_goedkoop.png,images/cb_goedkoop.png,0,,,,,,,,,,,,,,,,,,,,,,
,,,,,00088,2023-10-26_16h59.08.671,vbt_B1_day4,2022.2.4,Win32,60.18295619,,,,,,down,0,0.9667,,-0.349999993,-0.217592593,1,0,0,0,196,196,177,1,maaltijd,images/br_maaltijd.png,images/cb_maaltijd.png,0,,,,,,,,,,,,,,,,,,,,,,
,,,,,00088,2023-10-26_16h59.08.671,vbt_B1_day4,2022.2.4,Win32,60.18295619,,,,,,down,0,2.6697,,-0.349999993,-0.217592593,1,0,0,0,197,197,45,1,piste,images/br_piste.png,images/cb_piste.png,0,,,,,,,,,,,,,,,,,,,,,,
,,,,,00088,2023-10-26_16h59.08.671,vbt_B1_day4,2022.2.4,Win32,60.18295619,,,,,,down,0,2.1051,,-0.349999993,-0.217592593,1,0,0,0,198,198,61,1,groen,images/br_groen.png,images/cb_groen.png,0,,,,,,,,,,,,,,,,,,,,,,
,,,,,00088,2023-10-26_16h59.08.671,vbt_B1_day4,2022.2.4,Win32,60.18295619,,,,,,down,0,2.5496,,-0.349999993,-0.217592593,1,0,0,0,199,199,110,1,zuster,images/br_zuster.png,images/cb_zuster.png,0,,,,,,,,,,,,,,,,,,,,,,
,,,,,00088,2023-10-26_16h59.08.671,vbt_B1_day4,2022.2.4,Win32,60.18295619,,,,,,,,,,,,,,,,,,,,,,,,,-0.349999993,-0.217592593,1,0,0,,,,,,,,,,,,,,,,
,,,,,00088,2023-10-26_16h59.08.671,vbt_B1_day4,2022.2.4,Win32,60.18295619,,,,,,,,,,,,,,,,,,,,,,,,,,,,,,-0.349999993,-0.217592593,1,0,0,,,,,,,,,,,
,,,,,00088,2023-10-26_16h59.08.671,vbt_B1_day4,2022.2.4,Win32,60.18295619,,,,,,,,,,,,,,,,,,,,gaan,images/br_gaan.png,images/cb_gaan.png,,gaan,,,,,,,,,,,-0.349999993,-0.217592593,1,0,0,gaan,0,0,0,41,1
,,,,,00088,2023-10-26_16h59.08.671,vbt_B1_day4,2022.2.4,Win32,60.18295619,,,,,,,,,,,,,,,,,,,,oceaan,images/br_oceaan.png,images/cb_oceaan.png,,ocirrn,,,,,,,,,,,-0.349999993,-0.217592593,1,0,0,ocirrn,0,1,1,10,1
,,,,,00088,2023-10-26_16h59.08.671,vbt_B1_day4,2022.2.4,Win32,60.18295619,,,,,,,,,,,,,,,,,,,,lappen,images/br_lappen.png,images/cb_lappen.png,,lappen,,,,,,,,,,,-0.349999993,-0.217592593,1,0,0,lappen,0,2,2,49,1
,,,,,00088,2023-10-26_16h59.08.671,vbt_B1_day4,2022.2.4,Win32,60.18295619,,,,,,,,,,,,,,,,,,,,waarop,images/br_waarop.png,images/cb_waarop.png,,kaarop,,,,,,,,,,,-0.349999993,-0.217592593,1,0,0,kaarop,0,3,3,9,1
,,,,,00088,2023-10-26_16h59.08.671,vbt_B1_day4,2022.2.4,Win32,60.18295619,,,,,,,,,,,,,,,,,,,,seizoon,images/br_seizoon.png,images/cb_seizoon.png,,seizoon,,,,,,,,,,,-0.349999993,-0.217592593,1,0,0,seizoon,0,4,4,33,1
,,,,,00088,2023-10-26_16h59.08.671,vbt_B1_day4,2022.2.4,Win32,60.18295619,,,,,,,,,,,,,,,,,,,,snee,images/br_snee.png,images/cb_snee.png,,snee,,,,,,,,,,,-0.349999993,-0.217592593,1,0,0,snee,0,5,5,40,1
,,,,,00088,2023-10-26_16h59.08.671,vbt_B1_day4,2022.2.4,Win32,60.18295619,,,,,,,,,,,,,,,,,,,,geliefd,images/br_geliefd.png,images/cb_geliefd.png,,geliefd,,,,,,,,,,,-0.349999993,-0.217592593,1,0,0,geliefd,0,6,6,14,1
,,,,,00088,2023-10-26_16h59.08.671,vbt_B1_day4,2022.2.4,Win32,60.18295619,,,,,,,,,,,,,,,,,,,,wozing,images/br_wozing.png,images/cb_wozing.png,,kozing,,,,,,,,,,,-0.349999993,-0.217592593,1,0,0,kozing,0,7,7,28,1
,,,,,00088,2023-10-26_16h59.08.671,vbt_B1_day4,2022.2.4,Win32,60.18295619,,,,,,,,,,,,,,,,,,,,rijp,images/br_rijp.png,images/cb_rijp.png,,riep,,,,,,,,,,,-0.349999993,-0.217592593,1,0,0,riep,0,8,8,2,1
,,,,,00088,2023-10-26_16h59.08.671,vbt_B1_day4,2022.2.4,Win32,60.18295619,,,,,,,,,,,,,,,,,,,,kaal,images/br_kaal.png,images/cb_kaal.png,,kaal,,,,,,,,,,,-0.374074053,-0.12037037,1,0,0,kaal,0,9,9,1,1
,,,,,00088,2023-10-26_16h59.08.671,vbt_B1_day4,2022.2.4,Win32,60.18295619,,,,,,,,,,,,,,,,,,,,schotel,images/br_schotel.png,images/cb_schotel.png,,schotel,,,,,,,,,,,-0.374074053,-0.12037037,1,0,0,schotel,0,10,10,52,1
,,,,,00088,2023-10-26_16h59.08.671,vbt_B1_day4,2022.2.4,Win32,60.18295619,,,,,,,,,,,,,,,,,,,,midden,images/br_midden.png,images/cb_midden.png,,medd,,,,,,,,,,,-0.374074053,-0.12037037,1,0,0,medd,0,11,11,50,1
,,,,,00088,2023-10-26_16h59.08.671,vbt_B1_day4,2022.2.4,Win32,60.18295619,,,,,,,,,,,,,,,,,,,,broodje,images/br_broodje.png,images/cb_broodje.png,,broodje,,,,,,,,,,,-0.374074053,-0.12037037,1,0,0,broodje,0,12,12,55,1
,,,,,00088,2023-10-26_16h59.08.671,vbt_B1_day4,2022.2.4,Win32,60.18295619,,,,,,,,,,,,,,,,,,,,geheim,images/br_geheim.png,images/cb_geheim.png,,geheim,,,,,,,,,,,-0.374074053,-0.12037037,1,0,0,geheim,0,13,13,8,1
,,,,,00088,2023-10-26_16h59.08.671,vbt_B1_day4,2022.2.4,Win32,60.18295619,,,,,,,,,,,,,,,,,,,,kust,images/br_kust.png,images/cb_kust.png,,kust,,,,,,,,,,,-0.374074053,-0.12037037,1,0,0,kust,0,14,14,0,1
,,,,,00088,2023-10-26_16h59.08.671,vbt_B1_day4,2022.2.4,Win32,60.18295619,,,,,,,,,,,,,,,,,,,,dalen,images/br_dalen.png,images/cb_dalen.png,,dalen,,,,,,,,,,,-0.374074053,-0.12037037,1,0,0,dalen,0,15,15,46,1
,,,,,00088,2023-10-26_16h59.08.671,vbt_B1_day4,2022.2.4,Win32,60.18295619,,,,,,,,,,,,,,,,,,,,seizoen,images/br_seizoen.png,images/cb_seizoen.png,,seizoen,,,,,,,,,,,-0.374074053,-0.12037037,1,0,0,seizoen,0,16,16,13,1
,,,,,00088,2023-10-26_16h59.08.671,vbt_B1_day4,2022.2.4,Win32,60.18295619,,,,,,,,,,,,,,,,,,,,vreten,images/br_vreten.png,images/cb_vreten.png,,vreten,,,,,,,,,,,-0.374074053,-0.12037037,1,0,0,vreten,0,17,17,11,1
,,,,,00088,2023-10-26_16h59.08.671,vbt_B1_day4,2022.2.4,Win32,60.18295619,,,,,,,,,,,,,,,,,,,,schenden,images/br_schenden.png,images/cb_schenden.png,,schin,,,,,,,,,,,-0.374074053,-0.12037037,1,0,0,schin,0,18,18,57,1
,,,,,00088,2023-10-26_16h59.08.671,vbt_B1_day4,2022.2.4,Win32,60.18295619,,,,,,,,,,,,,,,,,,,,stemming,images/br_stemming.png,images/cb_stemming.png,,stemming,,,,,,,,,,,-0.374074053,-0.12037037,1,0,0,stemming,0,19,19,18,1
,,,,,00088,2023-10-26_16h59.08.671,vbt_B1_day4,2022.2.4,Win32,60.18295619,,,,,,,,,,,,,,,,,,,,heengaan,images/br_heengaan.png,images/cb_heengaan.png,,heengaan,,,,,,,,,,,-0.374074053,-0.12037037,1,0,0,heengaan,0,20,20,19,1
,,,,,00088,2023-10-26_16h59.08.671,vbt_B1_day4,2022.2.4,Win32,60.18295619,,,,,,,,,,,,,,,,,,,,steen,images/br_steen.png,images/cb_steen.png,,steen,,,,,,,,,,,-0.374074053,-0.12037037,1,0,0,steen,0,21,21,44,1
,,,,,00088,2023-10-26_16h59.08.671,vbt_B1_day4,2022.2.4,Win32,60.18295619,,,,,,,,,,,,,,,,,,,,opkicht,images/br_opkicht.png,images/cb_opkicht.png,,opzicht,,,,,,,,,,,-0.374074053,-0.12037037,1,0,0,opzicht,0,22,22,34,1
,,,,,00088,2023-10-26_16h59.08.671,vbt_B1_day4,2022.2.4,Win32,60.18295619,,,,,,,,,,,,,,,,,,,,mekst,images/br_mekst.png,images/cb_mekst.png,,mekst,,,,,,,,,,,-0.374074053,-0.12037037,1,0,0,mekst,0,23,23,27,1
,,,,,00088,2023-10-26_16h59.08.671,vbt_B1_day4,2022.2.4,Win32,60.18295619,,,,,,,,,,,,,,,,,,,,opruimen,images/br_opruimen.png,images/cb_opruimen.png,,opkuisen,,,,,,,,,,,-0.374074053,-0.12037037,1,0,0,opkuisen,0,24,24,59,1
,,,,,00088,2023-10-26_16h59.08.671,vbt_B1_day4,2022.2.4,Win32,60.18295619,,,,,,,,,,,,,,,,,,,,dozijn,images/br_dozijn.png,images/cb_dozijn.png,,dozend,,,,,,,,,,,-0.374074053,-0.12037037,1,0,0,dozend,0,25,25,48,1
,,,,,00088,2023-10-26_16h59.08.671,vbt_B1_day4,2022.2.4,Win32,60.18295619,,,,,,,,,,,,,,,,,,,,noodzaak,images/br_noodzaak.png,images/cb_noodzaak.png,,noodzaak,,,,,,,,,,,-0.374074053,-0.12037037,1,0,0,noodzaak,0,26,26,56,1
,,,,,00088,2023-10-26_16h59.08.671,vbt_B1_day4,2022.2.4,Win32,60.18295619,,,,,,,,,,,,,,,,,,,,fran,images/br_fran.png,images/cb_fran.png,,fra,,,,,,,,,,,-0.374074053,-0.12037037,1,0,0,fra,0,27,27,22,1
,,,,,00088,2023-10-26_16h59.08.671,vbt_B1_day4,2022.2.4,Win32,60.18295619,,,,,,,,,,,,,,,,,,,,haza,images/br_haza.png,images/cb_haza.png,,haza,,,,,,,,,,,-0.374074053,-0.12037037,1,0,0,haza,0,28,28,21,1
,,,,,00088,2023-10-26_16h59.08.671,vbt_B1_day4,2022.2.4,Win32,60.18295619,,,,,,,,,,,,,,,,,,,,zaalrijk,images/br_zaalrijk.png,images/cb_zaalrijk.png,,zaalr,,,,,,,,,,,-0.374074053,-0.12037037,1,0,0,zaalr,0,29,29,37,1
,,,,,00088,2023-10-26_16h59.08.671,vbt_B1_day4,2022.2.4,Win32,60.18295619,,,,,,,,,,,,,,,,,,,,pittig,images/br_pittig.png,images/cb_pittig.png,,pittig,,,,,,,,,,,-0.374074053,-0.12037037,1,0,0,pittig,0,30,30,51,1
,,,,,00088,2023-10-26_16h59.08.671,vbt_B1_day4,2022.2.4,Win32,60.18295619,,,,,,,,,,,,,,,,,,,,paalbaak,images/br_paalbaak.png,images/cb_paalbaak.png,,paalbaak,,,,,,,,,,,-0.374074053,-0.12037037,1,0,0,paalbaak,0,31,31,39,1
,,,,,00088,2023-10-26_16h59.08.671,vbt_B1_day4,2022.2.4,Win32,60.18295619,,,,,,,,,,,,,,,,,,,,bruin,images/br_bruin.png,images/cb_bruin.png,,bazig,,,,,,,,,,,-0.374074053,-0.12037037,1,0,0,bazig,0,32,32,45,1
,,,,,00088,2023-10-26_16h59.08.671,vbt_B1_day4,2022.2.4,Win32,60.18295619,,,,,,,,,,,,,,,,,,,,gaaf,images/br_gaaf.png,images/cb_gaaf.png,,gaaf,,,,,,,,,,,-0.374074053,-0.12037037,1,0,0,gaaf,0,33,33,43,1
,,,,,00088,2023-10-26_16h59.08.671,vbt_B1_day4,2022.2.4,Win32,60.18295619,,,,,,,,,,,,,,,,,,,,toevol,images/br_toevol.png,images/cb_toevol.png,,toeval,,,,,,,,,,,-0.374074053,-0.12037037,1,0,0,toeval,0,34,34,29,1
,,,,,00088,2023-10-26_16h59.08.671,vbt_B1_day4,2022.2.4,Win32,60.18295619,,,,,,,,,,,,,,,,,,,,warel,images/br_warel.png,images/cb_warel.png,,kroel,,,,,,,,,,,-0.374074053,-0.12037037,1,0,0,kroel,0,35,35,26,1
,,,,,00088,2023-10-26_16h59.08.671,vbt_B1_day4,2022.2.4,Win32,60.18295619,,,,,,,,,,,,,,,,,,,,bisschap,images/br_bisschap.png,images/cb_bisschap.png,,bessh,,,,,,,,,,,-0.374074053,-0.12037037,1,0,0,bessh,0,36,36,36,1
,,,,,00088,2023-10-26_16h59.08.671,vbt_B1_day4,2022.2.4,Win32,60.18295619,,,,,,,,,,,,,,,,,,,,ezel,images/br_ezel.png,images/cb_ezel.png,,ezel,,,,,,,,,,,-0.374074053,-0.12037037,1,0,0,ezel,0,37,37,42,1
,,,,,00088,2023-10-26_16h59.08.671,vbt_B1_day4,2022.2.4,Win32,60.18295619,,,,,,,,,,,,,,,,,,,,strok,images/br_strok.png,images/cb_strok.png,,strok,,,,,,,,,,,-0.374074053,-0.12037037,1,0,0,strok,0,38,38,25,1
,,,,,00088,2023-10-26_16h59.08.671,vbt_B1_day4,2022.2.4,Win32,60.18295619,,,,,,,,,,,,,,,,,,,,apparaat,images/br_apparaat.png,images/cb_apparaat.png,,apparaat,,,,,,,,,,,-0.374074053,-0.12037037,1,0,0,apparaat,0,39,39,17,1
,,,,,00088,2023-10-26_16h59.08.671,vbt_B1_day4,2022.2.4,Win32,60.18295619,,,,,,,,,,,,,,,,,,,,weigeren,images/br_weigeren.png,images/cb_weigeren.png,,weigeren,,,,,,,,,,,-0.374074053,-0.12037037,1,0,0,weigeren,0,40,40,16,1
,,,,,00088,2023-10-26_16h59.08.671,vbt_B1_day4,2022.2.4,Win32,60.18295619,,,,,,,,,,,,,,,,,,,,aanzwaag,images/br_aanzwaag.png,images/cb_aanzwaag.png,,aan k ag,,,,,,,,,,,-0.374074053,-0.12037037,1,0,0,aan k ag,0,41,41,38,1
,,,,,00088,2023-10-26_16h59.08.671,vbt_B1_day4,2022.2.4,Win32,60.18295619,,,,,,,,,,,,,,,,,,,,flippen,images/br_flippen.png,images/cb_flippen.png,,flippen,,,,,,,,,,,-0.374074053,-0.12037037,1,0,0,flippen,0,42,42,54,1
,,,,,00088,2023-10-26_16h59.08.671,vbt_B1_day4,2022.2.4,Win32,60.18295619,,,,,,,,,,,,,,,,,,,,getucht,images/br_getucht.png,images/cb_getucht.png,,getui t,,,,,,,,,,,-0.374074053,-0.12037037,1,0,0,getui t,0,43,43,35,1
,,,,,00088,2023-10-26_16h59.08.671,vbt_B1_day4,2022.2.4,Win32,60.18295619,,,,,,,,,,,,,,,,,,,,gijf,images/br_gijf.png,images/cb_gijf.png,,gijf,,,,,,,,,,,-0.374074053,-0.12037037,1,0,0,gijf,0,44,44,23,1
,,,,,00088,2023-10-26_16h59.08.671,vbt_B1_day4,2022.2.4,Win32,60.18295619,,,,,,,,,,,,,,,,,,,,gebog,images/br_gebog.png,images/cb_gebog.png,,gebog,,,,,,,,,,,-0.374074053,-0.12037037,1,0,0,gebog,0,45,45,24,1
,,,,,00088,2023-10-26_16h59.08.671,vbt_B1_day4,2022.2.4,Win32,60.18295619,,,,,,,,,,,,,,,,,,,,tucket,images/br_tucket.png,images/cb_tucket.png,,tuck t,,,,,,,,,,,-0.374074053,-0.12037037,1,0,0,tuck t,0,46,46,30,1
,,,,,00088,2023-10-26_16h59.08.671,vbt_B1_day4,2022.2.4,Win32,60.18295619,,,,,,,,,,,,,,,,,,,,gedicht,images/br_gedicht.png,images/cb_gedicht.png,,gedicht,,,,,,,,,,,-0.374074053,-0.12037037,1,0,0,gedicht,0,47,47,15,1
,,,,,00088,2023-10-26_16h59.08.671,vbt_B1_day4,2022.2.4,Win32,60.18295619,,,,,,,,,,,,,,,,,,,,praat,images/br_praat.png,images/cb_praat.png,,praat,,,,,,,,,,,-0.374074053,-0.12037037,1,0,0,praat,0,48,48,7,1
,,,,,00088,2023-10-26_16h59.08.671,vbt_B1_day4,2022.2.4,Win32,60.18295619,,,,,,,,,,,,,,,,,,,,eerst,images/br_eerst.png,images/cb_eerst.png,,eerst,,,,,,,,,,,-0.374074053,-0.12037037,1,0,0,eerst,0,49,49,47,1
,,,,,00088,2023-10-26_16h59.08.671,vbt_B1_day4,2022.2.4,Win32,60.18295619,,,,,,,,,,,,,,,,,,,,zwek,images/br_zwek.png,images/cb_zwek.png,,zwek,,,,,,,,,,,-0.374074053,-0.12037037,1,0,0,zwek,0,50,50,20,1
,,,,,00088,2023-10-26_16h59.08.671,vbt_B1_day4,2022.2.4,Win32,60.18295619,,,,,,,,,,,,,,,,,,,,drummer,images/br_drummer.png,images/cb_drummer.png,,drumm,,,,,,,,,,,-0.374074053,-0.12037037,1,0,0,drumm,0,51,51,53,1
,,,,,00088,2023-10-26_16h59.08.671,vbt_B1_day4,2022.2.4,Win32,60.18295619,,,,,,,,,,,,,,,,,,,,gebit,images/br_gebit.png,images/cb_gebit.png,,gebit,,,,,,,,,,,-0.374074053,-0.12037037,1,0,0,gebit,0,52,52,6,1
,,,,,00088,2023-10-26_16h59.08.671,vbt_B1_day4,2022.2.4,Win32,60.18295619,,,,,,,,,,,,,,,,,,,,baron,images/br_baron.png,images/cb_baron.png,,baron,,,,,,,,,,,-0.374074053,-0.12037037,1,0,0,baron,0,53,53,5,1
,,,,,00088,2023-10-26_16h59.08.671,vbt_B1_day4,2022.2.4,Win32,60.18295619,,,,,,,,,,,,,,,,,,,,grappen,images/br_grappen.png,images/cb_grappen.png,,grappen,,,,,,,,,,,-0.374074053,-0.12037037,1,0,0,grappen,0,54,54,12,1
,,,,,00088,2023-10-26_16h59.08.671,vbt_B1_day4,2022.2.4,Win32,60.18295619,,,,,,,,,,,,,,,,,,,,pijnlijk,images/br_pijnlijk.png,images/cb_pijnlijk.png,,pijnlijk,,,,,,,,,,,-0.374074053,-0.12037037,1,0,0,pijnlijk,0,55,55,58,1
,,,,,00088,2023-10-26_16h59.08.671,vbt_B1_day4,2022.2.4,Win32,60.18295619,,,,,,,,,,,,,,,,,,,,sulbon,images/br_sulbon.png,images/cb_sulbon.png,,sulbo,,,,,,,,,,,-0.374074053,-0.12037037,1,0,0,sulbo,0,56,56,31,1
,,,,,00088,2023-10-26_16h59.08.671,vbt_B1_day4,2022.2.4,Win32,60.18295619,,,,,,,,,,,,,,,,,,,,wagon,images/br_wagon.png,images/cb_wagon.png,,wagon,,,,,,,,,,,-0.374074053,-0.12037037,1,0,0,wagon,0,57,57,4,1
,,,,,00088,2023-10-26_16h59.08.671,vbt_B1_day4,2022.2.4,Win32,60.18295619,,,,,,,,,,,,,,,,,,,,drooien,images/br_drooien.png,images/cb_drooien.png,,drooien,,,,,,,,,,,-0.374074053,-0.12037037,1,0,0,drooien,0,58,58,32,1
,,,,,00088,2023-10-26_16h59.08.671,vbt_B1_day4,2022.2.4,Win32,60.18295619,,,,,,,,,,,,,,,,,,,,soda,images/br_soda.png,images/cb_soda.png,,soda,,,,,,,,,,,-0.374074053,-0.12037037,1,0,0,soda,0,59,59,3,1
,,,,,00088,2023-10-26_16h59.08.671,vbt_B1_day4,2022.2.4,Win32,60.18295619,,,,,,,,,,,,,,,,,,,,,,,,,,,,,,,,,,,,,,,,,,,,,
