welcome_mouse.x,welcome_mouse.y,welcome_mouse.leftButton,welcome_mouse.midButton,welcome_mouse.rightButton,"ID",date,expName,psychopyVersion,OS,frameRate,trainInstr_mouse.x,trainInstr_mouse.y,trainInstr_mouse.leftButton,trainInstr_mouse.midButton,trainInstr_mouse.rightButton,translation_key.keys,translation_key.corr,translation_key.rt,word_rsp.text,trWrd_mouse.x,trWrd_mouse.y,trWrd_mouse.leftButton,trWrd_mouse.midButton,trWrd_mouse.rightButton,train_loop.thisRepN,train_loop.thisTrialN,train_loop.thisN,train_loop.thisIndex,train_loop.ran,nlWrd,brWrd,cbWrd,test,testResp,mouse.x,mouse.y,mouse.leftButton,mouse.midButton,mouse.rightButton,testInstr_mouse.x,testInstr_mouse.y,testInstr_mouse.leftButton,testInstr_mouse.midButton,testInstr_mouse.rightButton,test_mouse.x,test_mouse.y,test_mouse.leftButton,test_mouse.midButton,test_mouse.rightButton,test_response.text,test_loop.thisRepN,test_loop.thisTrialN,test_loop.thisN,test_loop.thisIndex,test_loop.ran
-0.136950005,-0.221011963,1,0,0,00100,2023-11-11_15h14.32.029,vbt_B1_day4,2022.2.4,MacIntel,60.0024001,,,,,,,,,,,,,,,,,,,,,,,,,,,,,,,,,,,,,,,,,,,,,
,,,,,00100,2023-11-11_15h14.32.029,vbt_B1_day4,2022.2.4,MacIntel,60.0024001,-0.136950005,-0.220774536,1,0,0,,,,,,,,,,,,,,,,,,,,,,,,,,,,,,,,,,,,,,,,
,,,,,00100,2023-11-11_15h14.32.029,vbt_B1_day4,2022.2.4,MacIntel,60.0024001,,,,,,down,0,2.3424,,0.098084785,-0.152276544,1,0,0,0,0,0,90,1,geluid,images/br_geluid.png,images/cb_geluid.png,0,,,,,,,,,,,,,,,,,,,,,,
,,,,,00100,2023-11-11_15h14.32.029,vbt_B1_day4,2022.2.4,MacIntel,60.0024001,,,,,,down,0,2.5813,,0.098084785,-0.152276544,1,0,0,0,1,1,192,1,schaamte,images/br_schaamte.png,images/cb_schaamte.png,0,,,,,,,,,,,,,,,,,,,,,,
,,,,,00100,2023-11-11_15h14.32.029,vbt_B1_day4,2022.2.4,MacIntel,60.0024001,,,,,,down,0,0.1201,,0.098084785,-0.152276544,1,0,0,0,2,2,22,1,stof,images/br_stof.png,images/cb_stof.png,0,,,,,,,,,,,,,,,,,,,,,,
,,,,,00100,2023-11-11_15h14.32.029,vbt_B1_day4,2022.2.4,MacIntel,60.0024001,,,,,,down,0,0.7409,,0.098084785,-0.152276544,1,0,0,0,3,3,61,1,groen,images/br_groen.png,images/cb_groen.png,0,,,,,,,,,,,,,,,,,,,,,,
,,,,,00100,2023-11-11_15h14.32.029,vbt_B1_day4,2022.2.4,MacIntel,60.0024001,,,,,,down,0,0.093,,0.098084785,-0.152276544,1,0,0,0,4,4,23,1,zout,images/br_zout.png,images/cb_zout.png,0,,,,,,,,,,,,,,,,,,,,,,
,,,,,00100,2023-11-11_15h14.32.029,vbt_B1_day4,2022.2.4,MacIntel,60.0024001,,,,,,down,0,0.8841,,0.098084785,-0.152276544,1,0,0,0,5,5,41,1,maken,images/br_maken.png,images/cb_maken.png,0,,,,,,,,,,,,,,,,,,,,,,
,,,,,00100,2023-11-11_15h14.32.029,vbt_B1_day4,2022.2.4,MacIntel,60.0024001,,,,,,down,0,1.1368,,0.098084785,-0.152276544,1,0,0,0,6,6,110,1,zuster,images/br_zuster.png,images/cb_zuster.png,0,,,,,,,,,,,,,,,,,,,,,,
,,,,,00100,2023-11-11_15h14.32.029,vbt_B1_day4,2022.2.4,MacIntel,60.0024001,,,,,,down,0,6.1011,,0.098084785,-0.152276544,1,0,0,0,7,7,115,1,kleren,images/br_kleren.png,images/cb_kleren.png,0,,,,,,,,,,,,,,,,,,,,,,
,,,,,00100,2023-11-11_15h14.32.029,vbt_B1_day4,2022.2.4,MacIntel,60.0024001,,,,,,down,0,5.8833,,0.098084785,-0.152276544,1,0,0,0,8,8,176,1,techniek,images/br_techniek.png,images/cb_techniek.png,0,,,,,,,,,,,,,,,,,,,,,,
,,,,,00100,2023-11-11_15h14.32.029,vbt_B1_day4,2022.2.4,MacIntel,60.0024001,,,,,,down,0,3.3007,,0.356566976,-0.042997165,1,0,0,0,9,9,138,1,akkoord,images/br_akkoord.png,images/cb_akkoord.png,0,,,,,,,,,,,,,,,,,,,,,,
,,,,,00100,2023-11-11_15h14.32.029,vbt_B1_day4,2022.2.4,MacIntel,60.0024001,,,,,,down,0,1.3806,,0.356566976,-0.042997165,1,0,0,0,10,10,180,1,openbaar,images/br_openbaar.png,images/cb_openbaar.png,0,,,,,,,,,,,,,,,,,,,,,,
,,,,,00100,2023-11-11_15h14.32.029,vbt_B1_day4,2022.2.4,MacIntel,60.0024001,,,,,,down,0,0.8533,,0.356566976,-0.042997165,1,0,0,0,11,11,73,1,volop,images/br_volop.png,images/cb_volop.png,0,,,,,,,,,,,,,,,,,,,,,,
,,,,,00100,2023-11-11_15h14.32.029,vbt_B1_day4,2022.2.4,MacIntel,60.0024001,,,,,,down,0,2.3752,,0.356566976,-0.042997165,1,0,0,0,12,12,105,1,wijlen,images/br_wijlen.png,images/cb_wijlen.png,1,wijlen,,,,,,,,,,,,,,,,,,,,,
,,,,,00100,2023-11-11_15h14.32.029,vbt_B1_day4,2022.2.4,MacIntel,60.0024001,,,,,,down,0,3.6857,,0.356566976,-0.042997165,1,0,0,0,13,13,123,1,hiervan,images/br_hiervan.png,images/cb_hiervan.png,0,,,,,,,,,,,,,,,,,,,,,,
,,,,,00100,2023-11-11_15h14.32.029,vbt_B1_day4,2022.2.4,MacIntel,60.0024001,,,,,,down,0,10.3564,,0.356566976,-0.042997165,1,0,0,0,14,14,88,1,boeien,images/br_boeien.png,images/cb_boeien.png,0,,,,,,,,,,,,,,,,,,,,,,
,,,,,00100,2023-11-11_15h14.32.029,vbt_B1_day4,2022.2.4,MacIntel,60.0024001,,,,,,down,0,9.9867,,0.356566976,-0.042997165,1,0,0,0,15,15,49,1,laken,images/br_laken.png,images/cb_laken.png,0,,,,,,,,,,,,,,,,,,,,,,
,,,,,00100,2023-11-11_15h14.32.029,vbt_B1_day4,2022.2.4,MacIntel,60.0024001,,,,,,down,0,2.0017,,0.352463515,-0.042720981,1,0,0,0,16,16,80,1,kanjer,images/br_kanjer.png,images/cb_kanjer.png,0,,,,,,,,,,,,,,,,,,,,,,
,,,,,00100,2023-11-11_15h14.32.029,vbt_B1_day4,2022.2.4,MacIntel,60.0024001,,,,,,down,0,2.2996,,0.352463515,-0.042720981,1,0,0,0,17,17,155,1,gerucht,images/br_gerucht.png,images/cb_gerucht.png,0,,,,,,,,,,,,,,,,,,,,,,
,,,,,00100,2023-11-11_15h14.32.029,vbt_B1_day4,2022.2.4,MacIntel,60.0024001,,,,,,down,0,0.8834,,0.352463515,-0.042720981,1,0,0,0,18,18,10,1,leek,images/br_leek.png,images/cb_leek.png,0,,,,,,,,,,,,,,,,,,,,,,
,,,,,00100,2023-11-11_15h14.32.029,vbt_B1_day4,2022.2.4,MacIntel,60.0024001,,,,,,down,0,6.8497,,0.352463515,-0.042720981,1,0,0,0,19,19,148,1,smullen,images/br_smullen.png,images/cb_smullen.png,0,,,,,,,,,,,,,,,,,,,,,,
,,,,,00100,2023-11-11_15h14.32.029,vbt_B1_day4,2022.2.4,MacIntel,60.0024001,,,,,,down,0,0.9542,,0.352463515,-0.042720981,1,0,0,0,20,20,29,1,baas,images/br_baas.png,images/cb_baas.png,0,,,,,,,,,,,,,,,,,,,,,,
,,,,,00100,2023-11-11_15h14.32.029,vbt_B1_day4,2022.2.4,MacIntel,60.0024001,,,,,,down,0,4.6355,,0.561421577,0.234481574,1,0,0,0,21,21,92,1,geheim,images/br_geheim.png,images/cb_geheim.png,0,,,,,,,,,,,,,,,,,,,,,,
,,,,,00100,2023-11-11_15h14.32.029,vbt_B1_day4,2022.2.4,MacIntel,60.0024001,,,,,,down,0,1.082,,0.561658936,0.234481574,1,0,0,0,22,22,116,1,besmet,images/br_besmet.png,images/cb_besmet.png,0,,,,,,,,,,,,,,,,,,,,,,
,,,,,00100,2023-11-11_15h14.32.029,vbt_B1_day4,2022.2.4,MacIntel,60.0024001,,,,,,down,0,1.2083,,0.561915961,0.23424391,1,0,0,0,23,23,33,1,vlek,images/br_vlek.png,images/cb_vlek.png,0,,,,,,,,,,,,,,,,,,,,,,
,,,,,00100,2023-11-11_15h14.32.029,vbt_B1_day4,2022.2.4,MacIntel,60.0024001,,,,,,down,0,0.5661,,0.561678467,0.234718984,1,0,0,0,24,24,151,1,aanzoek,images/br_aanzoek.png,images/cb_aanzoek.png,0,,,,,,,,,,,,,,,,,,,,,,
,,,,,00100,2023-11-11_15h14.32.029,vbt_B1_day4,2022.2.4,MacIntel,60.0024001,,,,,,down,0,5.8058,,0.561991374,0.237367757,1,0,0,0,25,25,100,1,geduld,images/br_geduld.png,images/cb_geduld.png,0,,,,,,,,,,,,,,,,,,,,,,
,,,,,00100,2023-11-11_15h14.32.029,vbt_B1_day4,2022.2.4,MacIntel,60.0024001,,,,,,down,0,1.4875,,0.561991374,0.237367757,1,0,0,0,26,26,131,1,opzicht,images/br_opzicht.png,images/cb_opzicht.png,0,,,,,,,,,,,,,,,,,,,,,,
,,,,,00100,2023-11-11_15h14.32.029,vbt_B1_day4,2022.2.4,MacIntel,60.0024001,,,,,,down,0,0.8214,,0.561991374,0.237367757,1,0,0,0,27,27,193,1,weeshuis,images/br_weeshuis.png,images/cb_weeshuis.png,0,,,,,,,,,,,,,,,,,,,,,,
,,,,,00100,2023-11-11_15h14.32.029,vbt_B1_day4,2022.2.4,MacIntel,60.0024001,,,,,,down,0,1.117,,0.561991374,0.238095635,1,0,0,0,28,28,35,1,lust,images/br_lust.png,images/cb_lust.png,0,,,,,,,,,,,,,,,,,,,,,,
,,,,,00100,2023-11-11_15h14.32.029,vbt_B1_day4,2022.2.4,MacIntel,60.0024001,,,,,,down,0,0.3372,,0.561991374,0.238095635,1,0,0,0,29,29,56,1,traag,images/br_traag.png,images/cb_traag.png,0,,,,,,,,,,,,,,,,,,,,,,
,,,,,00100,2023-11-11_15h14.32.029,vbt_B1_day4,2022.2.4,MacIntel,60.0024001,,,,,,down,0,11.1676,,0.561991374,0.238821869,1,0,0,0,30,30,190,1,goedkoop,images/br_goedkoop.png,images/cb_goedkoop.png,0,,,,,,,,,,,,,,,,,,,,,,
,,,,,00100,2023-11-11_15h14.32.029,vbt_B1_day4,2022.2.4,MacIntel,60.0024001,,,,,,down,0,0.953,,0.561991374,0.238821869,1,0,0,0,31,31,57,1,steek,images/br_steek.png,images/cb_steek.png,0,,,,,,,,,,,,,,,,,,,,,,
,,,,,00100,2023-11-11_15h14.32.029,vbt_B1_day4,2022.2.4,MacIntel,60.0024001,,,,,,down,0,4.3396,,0.554562446,0.260562931,1,0,0,0,32,32,44,1,flits,images/br_flits.png,images/cb_flits.png,0,,,,,,,,,,,,,,,,,,,,,,
,,,,,00100,2023-11-11_15h14.32.029,vbt_B1_day4,2022.2.4,MacIntel,60.0024001,,,,,,down,0,4.6554,,0.554562446,0.260562931,1,0,0,0,33,33,179,1,woestijn,images/br_woestijn.png,images/cb_woestijn.png,0,,,,,,,,,,,,,,,,,,,,,,
,,,,,00100,2023-11-11_15h14.32.029,vbt_B1_day4,2022.2.4,MacIntel,60.0024001,,,,,,down,0,4.7051,,0.561561144,0.259179382,1,0,0,0,34,34,196,1,nakijken,images/br_nakijken.png,images/cb_nakijken.png,0,,,,,,,,,,,,,,,,,,,,,,
,,,,,00100,2023-11-11_15h14.32.029,vbt_B1_day4,2022.2.4,MacIntel,60.0024001,,,,,,down,0,1.0364,,0.561561144,0.259179382,1,0,0,0,35,35,93,1,waarop,images/br_waarop.png,images/cb_waarop.png,0,,,,,,,,,,,,,,,,,,,,,,
,,,,,00100,2023-11-11_15h14.32.029,vbt_B1_day4,2022.2.4,MacIntel,60.0024001,,,,,,down,0,1.7682,,0.561561144,0.259179382,1,0,0,0,36,36,27,1,dans,images/br_dans.png,images/cb_dans.png,1,dans,,,,,,,,,,,,,,,,,,,,,
,,,,,00100,2023-11-11_15h14.32.029,vbt_B1_day4,2022.2.4,MacIntel,60.0024001,,,,,,down,0,0.839,,0.561561144,0.257861735,1,0,0,0,37,37,68,1,schat,images/br_schat.png,images/cb_schat.png,0,,,,,,,,,,,,,,,,,,,,,,
,,,,,00100,2023-11-11_15h14.32.029,vbt_B1_day4,2022.2.4,MacIntel,60.0024001,,,,,,down,0,2.0986,,0.561679687,0.258676131,1,0,0,0,38,38,111,1,ticket,images/br_ticket.png,images/cb_ticket.png,0,,,,,,,,,,,,,,,,,,,,,,
,,,,,00100,2023-11-11_15h14.32.029,vbt_B1_day4,2022.2.4,MacIntel,60.0024001,,,,,,down,0,1.2231,,0.545371772,0.286538662,1,0,0,0,39,39,97,1,loyaal,images/br_loyaal.png,images/cb_loyaal.png,0,,,,,,,,,,,,,,,,,,,,,,
,,,,,00100,2023-11-11_15h14.32.029,vbt_B1_day4,2022.2.4,MacIntel,60.0024001,,,,,,down,0,1.0522,,0.545371772,0.285983107,1,0,0,0,40,40,15,1,soda,images/br_soda.png,images/cb_soda.png,0,,,,,,,,,,,,,,,,,,,,,,
,,,,,00100,2023-11-11_15h14.32.029,vbt_B1_day4,2022.2.4,MacIntel,60.0024001,,,,,,down,0,1.5048,,0.545371772,0.285983107,1,0,0,0,41,41,39,1,laag,images/br_laag.png,images/cb_laag.png,0,,,,,,,,,,,,,,,,,,,,,,
,,,,,00100,2023-11-11_15h14.32.029,vbt_B1_day4,2022.2.4,MacIntel,60.0024001,,,,,,down,0,0.789,,0.545371772,0.285983107,1,0,0,0,42,42,134,1,geliefd,images/br_geliefd.png,images/cb_geliefd.png,0,,,,,,,,,,,,,,,,,,,,,,
,,,,,00100,2023-11-11_15h14.32.029,vbt_B1_day4,2022.2.4,MacIntel,60.0024001,,,,,,down,0,2.0358,,0.545371772,0.285983107,1,0,0,0,43,43,141,1,knielen,images/br_knielen.png,images/cb_knielen.png,0,,,,,,,,,,,,,,,,,,,,,,
,,,,,00100,2023-11-11_15h14.32.029,vbt_B1_day4,2022.2.4,MacIntel,60.0024001,,,,,,down,0,4.9483,,0.545371772,0.285983107,1,0,0,0,44,44,164,1,anarchie,images/br_anarchie.png,images/cb_anarchie.png,0,,,,,,,,,,,,,,,,,,,,,,
,,,,,00100,2023-11-11_15h14.32.029,vbt_B1_day4,2022.2.4,MacIntel,60.0024001,,,,,,down,0,3.5729,,0.545371772,0.285983107,1,0,0,0,45,45,42,1,bleek,images/br_bleek.png,images/cb_bleek.png,0,,,,,,,,,,,,,,,,,,,,,,
,,,,,00100,2023-11-11_15h14.32.029,vbt_B1_day4,2022.2.4,MacIntel,60.0024001,,,,,,down,0,0.551,,0.545371772,0.285983107,1,0,0,0,46,46,63,1,flirt,images/br_flirt.png,images/cb_flirt.png,0,,,,,,,,,,,,,,,,,,,,,,
,,,,,00100,2023-11-11_15h14.32.029,vbt_B1_day4,2022.2.4,MacIntel,60.0024001,,,,,,down,0,1.4032,,0.545371772,0.285983107,1,0,0,0,47,47,177,1,maaltijd,images/br_maaltijd.png,images/cb_maaltijd.png,0,,,,,,,,,,,,,,,,,,,,,,
,,,,,00100,2023-11-11_15h14.32.029,vbt_B1_day4,2022.2.4,MacIntel,60.0024001,,,,,,down,0,0.9066,,0.545371772,0.285983107,1,0,0,0,48,48,118,1,vinger,images/br_vinger.png,images/cb_vinger.png,0,,,,,,,,,,,,,,,,,,,,,,
,,,,,00100,2023-11-11_15h14.32.029,vbt_B1_day4,2022.2.4,MacIntel,60.0024001,,,,,,down,0,0.0161,,0.545371772,0.285983107,1,0,0,0,49,49,5,1,blad,images/br_blad.png,images/cb_blad.png,0,,,,,,,,,,,,,,,,,,,,,,
,,,,,00100,2023-11-11_15h14.32.029,vbt_B1_day4,2022.2.4,MacIntel,60.0024001,,,,,,down,0,0.9553,,0.545371772,0.285983107,1,0,0,0,50,50,53,1,baron,images/br_baron.png,images/cb_baron.png,0,,,,,,,,,,,,,,,,,,,,,,
,,,,,00100,2023-11-11_15h14.32.029,vbt_B1_day4,2022.2.4,MacIntel,60.0024001,,,,,,down,0,1.2382,,0.545371772,0.285745782,1,0,0,0,51,51,101,1,staren,images/br_staren.png,images/cb_staren.png,0,,,,,,,,,,,,,,,,,,,,,,
,,,,,00100,2023-11-11_15h14.32.029,vbt_B1_day4,2022.2.4,MacIntel,60.0024001,,,,,,down,0,3.4921,,0.545371772,0.286235809,1,0,0,0,52,52,140,1,blijven,images/br_blijven.png,images/cb_blijven.png,0,,,,,,,,,,,,,,,,,,,,,,
,,,,,00100,2023-11-11_15h14.32.029,vbt_B1_day4,2022.2.4,MacIntel,60.0024001,,,,,,down,0,3.7048,,0.545371772,0.286235809,1,0,0,0,53,53,172,1,weigeren,images/br_weigeren.png,images/cb_weigeren.png,0,,,,,,,,,,,,,,,,,,,,,,
,,,,,00100,2023-11-11_15h14.32.029,vbt_B1_day4,2022.2.4,MacIntel,60.0024001,,,,,,down,0,2.5156,,0.545371772,0.286235809,1,0,0,0,54,54,137,1,trekker,images/br_trekker.png,images/cb_trekker.png,0,,,,,,,,,,,,,,,,,,,,,,
,,,,,00100,2023-11-11_15h14.32.029,vbt_B1_day4,2022.2.4,MacIntel,60.0024001,,,,,,down,0,1.6212,,0.545371772,0.286235809,1,0,0,0,55,55,168,1,bisschop,images/br_bisschop.png,images/cb_bisschop.png,0,,,,,,,,,,,,,,,,,,,,,,
,,,,,00100,2023-11-11_15h14.32.029,vbt_B1_day4,2022.2.4,MacIntel,60.0024001,,,,,,down,0,0.7195,,0.545371772,0.286235809,1,0,0,0,56,56,64,1,wegen,images/br_wegen.png,images/cb_wegen.png,1,wegen,,,,,,,,,,,,,,,,,,,,,
,,,,,00100,2023-11-11_15h14.32.029,vbt_B1_day4,2022.2.4,MacIntel,60.0024001,,,,,,down,0,1.5405,,0.545371772,0.286235809,1,0,0,0,57,57,144,1,eetlust,images/br_eetlust.png,images/cb_eetlust.png,1,eetlust,,,,,,,,,,,,,,,,,,,,,
,,,,,00100,2023-11-11_15h14.32.029,vbt_B1_day4,2022.2.4,MacIntel,60.0024001,,,,,,down,0,0.6212,,0.520772163,0.253887838,1,0,0,0,58,58,20,1,site,images/br_site.png,images/cb_site.png,0,,,,,,,,,,,,,,,,,,,,,,
,,,,,00100,2023-11-11_15h14.32.029,vbt_B1_day4,2022.2.4,MacIntel,60.0024001,,,,,,down,0,2.777,,0.523581814,0.253887838,1,0,0,0,59,59,152,1,afnemen,images/br_afnemen.png,images/cb_afnemen.png,0,,,,,,,,,,,,,,,,,,,,,,
,,,,,00100,2023-11-11_15h14.32.029,vbt_B1_day4,2022.2.4,MacIntel,60.0024001,,,,,,down,0,1.7239,,0.523581814,0.253887838,1,0,0,0,60,60,104,1,zweven,images/br_zweven.png,images/cb_zweven.png,1,zweven,,,,,,,,,,,,,,,,,,,,,
,,,,,00100,2023-11-11_15h14.32.029,vbt_B1_day4,2022.2.4,MacIntel,60.0024001,,,,,,down,0,0.9584,,0.523581814,0.253887838,1,0,0,0,61,61,66,1,lever,images/br_lever.png,images/cb_lever.png,1,lever,,,,,,,,,,,,,,,,,,,,,
,,,,,00100,2023-11-11_15h14.32.029,vbt_B1_day4,2022.2.4,MacIntel,60.0024001,,,,,,down,0,5.9206,,0.523581814,0.253887838,1,0,0,0,62,62,153,1,vervoer,images/br_vervoer.png,images/cb_vervoer.png,0,,,,,,,,,,,,,,,,,,,,,,
,,,,,00100,2023-11-11_15h14.32.029,vbt_B1_day4,2022.2.4,MacIntel,60.0024001,,,,,,down,0,1.4528,,0.458250732,0.205531006,1,0,0,0,63,63,31,1,poes,images/br_poes.png,images/cb_poes.png,0,,,,,,,,,,,,,,,,,,,,,,
,,,,,00100,2023-11-11_15h14.32.029,vbt_B1_day4,2022.2.4,MacIntel,60.0024001,,,,,,down,0,0.7324,,0.458250732,0.205531006,1,0,0,0,64,64,175,1,heengaan,images/br_heengaan.png,images/cb_heengaan.png,0,,,,,,,,,,,,,,,,,,,,,,
,,,,,00100,2023-11-11_15h14.32.029,vbt_B1_day4,2022.2.4,MacIntel,60.0024001,,,,,,down,0,0.2904,,0.458013238,0.205531006,1,0,0,0,65,65,114,1,vullen,images/br_vullen.png,images/cb_vullen.png,0,,,,,,,,,,,,,,,,,,,,,,
,,,,,00100,2023-11-11_15h14.32.029,vbt_B1_day4,2022.2.4,MacIntel,60.0024001,,,,,,down,0,0.7016,,0.458013238,0.205531006,1,0,0,0,66,66,26,1,leuk,images/br_leuk.png,images/cb_leuk.png,1,leuk,,,,,,,,,,,,,,,,,,,,,
,,,,,00100,2023-11-11_15h14.32.029,vbt_B1_day4,2022.2.4,MacIntel,60.0024001,,,,,,down,0,2.7823,,0.458013238,0.205531006,1,0,0,0,67,67,174,1,stemming,images/br_stemming.png,images/cb_stemming.png,0,,,,,,,,,,,,,,,,,,,,,,
,,,,,00100,2023-11-11_15h14.32.029,vbt_B1_day4,2022.2.4,MacIntel,60.0024001,,,,,,down,0,0.3831,,0.458013238,0.205531006,1,0,0,0,68,68,0,1,slak,images/br_slak.png,images/cb_slak.png,0,,,,,,,,,,,,,,,,,,,,,,
,,,,,00100,2023-11-11_15h14.32.029,vbt_B1_day4,2022.2.4,MacIntel,60.0024001,,,,,,down,0,1.6014,,0.458013238,0.205531006,1,0,0,0,69,69,160,1,daarheen,images/br_daarheen.png,images/cb_daarheen.png,0,,,,,,,,,,,,,,,,,,,,,,
,,,,,00100,2023-11-11_15h14.32.029,vbt_B1_day4,2022.2.4,MacIntel,60.0024001,,,,,,down,0,0.3202,,0.458013238,0.205531006,1,0,0,0,70,70,65,1,parel,images/br_parel.png,images/cb_parel.png,1,parel,,,,,,,,,,,,,,,,,,,,,
,,,,,00100,2023-11-11_15h14.32.029,vbt_B1_day4,2022.2.4,MacIntel,60.0024001,,,,,,down,0,0.4999,,0.458013238,0.205531006,1,0,0,0,71,71,17,1,taal,images/br_taal.png,images/cb_taal.png,0,,,,,,,,,,,,,,,,,,,,,,
,,,,,00100,2023-11-11_15h14.32.029,vbt_B1_day4,2022.2.4,MacIntel,60.0024001,,,,,,down,0,3.1735,,0.458013238,0.205531006,1,0,0,0,72,72,71,1,bever,images/br_bever.png,images/cb_bever.png,0,,,,,,,,,,,,,,,,,,,,,,
,,,,,00100,2023-11-11_15h14.32.029,vbt_B1_day4,2022.2.4,MacIntel,60.0024001,,,,,,down,0,0.5371,,0.458013238,0.205531006,1,0,0,0,73,73,126,1,kasteel,images/br_kasteel.png,images/cb_kasteel.png,0,,,,,,,,,,,,,,,,,,,,,,
,,,,,00100,2023-11-11_15h14.32.029,vbt_B1_day4,2022.2.4,MacIntel,60.0024001,,,,,,down,0,3.8501,,0.458013238,0.205531006,1,0,0,0,74,74,154,1,aflopen,images/br_aflopen.png,images/cb_aflopen.png,0,,,,,,,,,,,,,,,,,,,,,,
,,,,,00100,2023-11-11_15h14.32.029,vbt_B1_day4,2022.2.4,MacIntel,60.0024001,,,,,,down,0,0.1475,,0.458013238,0.205531006,1,0,0,0,75,75,28,1,stal,images/br_stal.png,images/cb_stal.png,0,,,,,,,,,,,,,,,,,,,,,,
,,,,,00100,2023-11-11_15h14.32.029,vbt_B1_day4,2022.2.4,MacIntel,60.0024001,,,,,,down,0,2.0831,,0.458013238,0.205531006,1,0,0,0,76,76,40,1,schep,images/br_schep.png,images/cb_schep.png,0,,,,,,,,,,,,,,,,,,,,,,
,,,,,00100,2023-11-11_15h14.32.029,vbt_B1_day4,2022.2.4,MacIntel,60.0024001,,,,,,down,0,0.9162,,0.458013238,0.205531006,1,0,0,0,77,77,169,1,oprotten,images/br_oprotten.png,images/cb_oprotten.png,0,,,,,,,,,,,,,,,,,,,,,,
,,,,,00100,2023-11-11_15h14.32.029,vbt_B1_day4,2022.2.4,MacIntel,60.0024001,,,,,,down,0,3.8364,,0.458013238,0.205531006,1,0,0,0,78,78,173,1,apparaat,images/br_apparaat.png,images/cb_apparaat.png,0,,,,,,,,,,,,,,,,,,,,,,
,,,,,00100,2023-11-11_15h14.32.029,vbt_B1_day4,2022.2.4,MacIntel,60.0024001,,,,,,down,0,4.0873,,0.458514811,0.206537679,1,0,0,0,79,79,108,1,excuus,images/br_excuus.png,images/cb_excuus.png,0,,,,,,,,,,,,,,,,,,,,,,
,,,,,00100,2023-11-11_15h14.32.029,vbt_B1_day4,2022.2.4,MacIntel,60.0024001,,,,,,down,0,2.3197,,0.458514811,0.206537679,1,0,0,0,80,80,107,1,maling,images/br_maling.png,images/cb_maling.png,1,maling,,,,,,,,,,,,,,,,,,,,,
,,,,,00100,2023-11-11_15h14.32.029,vbt_B1_day4,2022.2.4,MacIntel,60.0024001,,,,,,down,0,1.0356,,0.458514811,0.206537679,1,0,0,0,81,81,182,1,bijkomen,images/br_bijkomen.png,images/cb_bijkomen.png,0,,,,,,,,,,,,,,,,,,,,,,
,,,,,00100,2023-11-11_15h14.32.029,vbt_B1_day4,2022.2.4,MacIntel,60.0024001,,,,,,down,0,0.2389,,0.734913737,0.262655233,1,0,0,0,82,82,149,1,redding,images/br_redding.png,images/cb_redding.png,0,,,,,,,,,,,,,,,,,,,,,,
,,,,,00100,2023-11-11_15h14.32.029,vbt_B1_day4,2022.2.4,MacIntel,60.0024001,,,,,,down,0,0.3689,,0.734913737,0.262655233,1,0,0,0,83,83,189,1,aanraden,images/br_aanraden.png,images/cb_aanraden.png,0,,,,,,,,,,,,,,,,,,,,,,
,,,,,00100,2023-11-11_15h14.32.029,vbt_B1_day4,2022.2.4,MacIntel,60.0024001,,,,,,down,0,0.1624,,0.734676378,0.262893372,1,0,0,0,84,84,102,1,legaal,images/br_legaal.png,images/cb_legaal.png,0,,,,,,,,,,,,,,,,,,,,,,
,,,,,00100,2023-11-11_15h14.32.029,vbt_B1_day4,2022.2.4,MacIntel,60.0024001,,,,,,down,0,0.3037,,0.733897569,0.261600901,1,0,0,0,85,85,14,1,rijp,images/br_rijp.png,images/cb_rijp.png,0,,,,,,,,,,,,,,,,,,,,,,
,,,,,00100,2023-11-11_15h14.32.029,vbt_B1_day4,2022.2.4,MacIntel,60.0024001,,,,,,down,0,0.0453,,0.733342014,0.261045346,1,0,0,0,86,86,7,1,geld,images/br_geld.png,images/cb_geld.png,0,,,,,,,,,,,,,,,,,,,,,,
,,,,,00100,2023-11-11_15h14.32.029,vbt_B1_day4,2022.2.4,MacIntel,60.0024001,,,,,,down,0,0.1852,,0.733342014,0.261045346,1,0,0,0,87,87,50,1,stoom,images/br_stoom.png,images/cb_stoom.png,0,,,,,,,,,,,,,,,,,,,,,,
,,,,,00100,2023-11-11_15h14.32.029,vbt_B1_day4,2022.2.4,MacIntel,60.0024001,,,,,,down,0,0.0833,,0.733342014,0.261045346,1,0,0,0,88,88,45,1,piste,images/br_piste.png,images/cb_piste.png,0,,,,,,,,,,,,,,,,,,,,,,
,,,,,00100,2023-11-11_15h14.32.029,vbt_B1_day4,2022.2.4,MacIntel,60.0024001,,,,,,down,0,1.4845,,0.733342014,0.261045346,1,0,0,0,89,89,119,1,liefje,images/br_liefje.png,images/cb_liefje.png,0,,,,,,,,,,,,,,,,,,,,,,
,,,,,00100,2023-11-11_15h14.32.029,vbt_B1_day4,2022.2.4,MacIntel,60.0024001,,,,,,down,0,0.2723,,0.733342014,0.261045346,1,0,0,0,90,90,38,1,baai,images/br_baai.png,images/cb_baai.png,0,,,,,,,,,,,,,,,,,,,,,,
,,,,,00100,2023-11-11_15h14.32.029,vbt_B1_day4,2022.2.4,MacIntel,60.0024001,,,,,,down,0,2.2221,,0.733342014,0.261045346,1,0,0,0,91,91,166,1,strikken,images/br_strikken.png,images/cb_strikken.png,0,,,,,,,,,,,,,,,,,,,,,,
,,,,,00100,2023-11-11_15h14.32.029,vbt_B1_day4,2022.2.4,MacIntel,60.0024001,,,,,,down,0,4.6842,,0.733342014,0.261045346,1,0,0,0,92,92,161,1,attentie,images/br_attentie.png,images/cb_attentie.png,0,,,,,,,,,,,,,,,,,,,,,,
,,,,,00100,2023-11-11_15h14.32.029,vbt_B1_day4,2022.2.4,MacIntel,60.0024001,,,,,,down,0,2.2188,,0.733342014,0.261045346,1,0,0,0,93,93,128,1,prikken,images/br_prikken.png,images/cb_prikken.png,0,,,,,,,,,,,,,,,,,,,,,,
,,,,,00100,2023-11-11_15h14.32.029,vbt_B1_day4,2022.2.4,MacIntel,60.0024001,,,,,,down,0,0.9192,,0.733342014,0.261045346,1,0,0,0,94,94,120,1,klimmen,images/br_klimmen.png,images/cb_klimmen.png,0,,,,,,,,,,,,,,,,,,,,,,
,,,,,00100,2023-11-11_15h14.32.029,vbt_B1_day4,2022.2.4,MacIntel,60.0024001,,,,,,down,0,4.8878,,0.733342014,0.261045346,1,0,0,0,95,95,62,1,knaap,images/br_knaap.png,images/cb_knaap.png,0,,,,,,,,,,,,,,,,,,,,,,
,,,,,00100,2023-11-11_15h14.32.029,vbt_B1_day4,2022.2.4,MacIntel,60.0024001,,,,,,down,0,4.9525,,0.733342014,0.261045346,1,0,0,0,96,96,36,1,vuur,images/br_vuur.png,images/cb_vuur.png,0,,,,,,,,,,,,,,,,,,,,,,
,,,,,00100,2023-11-11_15h14.32.029,vbt_B1_day4,2022.2.4,MacIntel,60.0024001,,,,,,down,0,0.2675,,0.733342014,0.261045346,1,0,0,0,97,97,109,1,totaal,images/br_totaal.png,images/cb_totaal.png,0,,,,,,,,,,,,,,,,,,,,,,
,,,,,00100,2023-11-11_15h14.32.029,vbt_B1_day4,2022.2.4,MacIntel,60.0024001,,,,,,down,0,0.4229,,0.733342014,0.261045346,1,0,0,0,98,98,84,1,lokken,images/br_lokken.png,images/cb_lokken.png,0,,,,,,,,,,,,,,,,,,,,,,
,,,,,00100,2023-11-11_15h14.32.029,vbt_B1_day4,2022.2.4,MacIntel,60.0024001,,,,,,down,0,3.4689,,0.733342014,0.261045346,1,0,0,0,99,99,112,1,lukken,images/br_lukken.png,images/cb_lukken.png,0,,,,,,,,,,,,,,,,,,,,,,
,,,,,00100,2023-11-11_15h14.32.029,vbt_B1_day4,2022.2.4,MacIntel,60.0024001,,,,,,down,0,1.6666,,0.733342014,0.261045346,1,0,0,0,100,100,43,1,klauw,images/br_klauw.png,images/cb_klauw.png,0,,,,,,,,,,,,,,,,,,,,,,
,,,,,00100,2023-11-11_15h14.32.029,vbt_B1_day4,2022.2.4,MacIntel,60.0024001,,,,,,down,0,1.0507,,0.733342014,0.261045346,1,0,0,0,101,101,99,1,koffie,images/br_koffie.png,images/cb_koffie.png,0,,,,,,,,,,,,,,,,,,,,,,
,,,,,00100,2023-11-11_15h14.32.029,vbt_B1_day4,2022.2.4,MacIntel,60.0024001,,,,,,down,0,0.655,,0.733342014,0.261045346,1,0,0,0,102,102,58,1,tekst,images/br_tekst.png,images/cb_tekst.png,0,,,,,,,,,,,,,,,,,,,,,,
,,,,,00100,2023-11-11_15h14.32.029,vbt_B1_day4,2022.2.4,MacIntel,60.0024001,,,,,,down,0,2.9373,,0.735505914,0.26598131,1,0,0,0,103,103,3,1,mand,images/br_mand.png,images/cb_mand.png,0,,,,,,,,,,,,,,,,,,,,,,
,,,,,00100,2023-11-11_15h14.32.029,vbt_B1_day4,2022.2.4,MacIntel,60.0024001,,,,,,down,0,0.3717,,0.697136502,0.371624773,1,0,0,0,104,104,34,1,vorm,images/br_vorm.png,images/cb_vorm.png,0,,,,,,,,,,,,,,,,,,,,,,
,,,,,00100,2023-11-11_15h14.32.029,vbt_B1_day4,2022.2.4,MacIntel,60.0024001,,,,,,down,0,0.3155,,0.697136502,0.371624773,1,0,0,0,105,105,55,1,praat,images/br_praat.png,images/cb_praat.png,0,,,,,,,,,,,,,,,,,,,,,,
,,,,,00100,2023-11-11_15h14.32.029,vbt_B1_day4,2022.2.4,MacIntel,60.0024001,,,,,,down,0,1.8331,,0.697136502,0.371624773,1,0,0,0,106,106,77,1,woede,images/br_woede.png,images/cb_woede.png,0,,,,,,,,,,,,,,,,,,,,,,
,,,,,00100,2023-11-11_15h14.32.029,vbt_B1_day4,2022.2.4,MacIntel,60.0024001,,,,,,down,0,7.3528,,0.697136502,0.371624773,1,0,0,0,107,107,195,1,middelen,images/br_middelen.png,images/cb_middelen.png,0,,,,,,,,,,,,,,,,,,,,,,
,,,,,00100,2023-11-11_15h14.32.029,vbt_B1_day4,2022.2.4,MacIntel,60.0024001,,,,,,down,0,6.4075,,0.697136502,0.371624773,1,0,0,0,108,108,132,1,grappen,images/br_grappen.png,images/cb_grappen.png,0,,,,,,,,,,,,,,,,,,,,,,
,,,,,00100,2023-11-11_15h14.32.029,vbt_B1_day4,2022.2.4,MacIntel,60.0024001,,,,,,down,0,1.9857,,0.697611762,0.3713119,1,0,0,0,109,109,130,1,keihard,images/br_keihard.png,images/cb_keihard.png,0,,,,,,,,,,,,,,,,,,,,,,
,,,,,00100,2023-11-11_15h14.32.029,vbt_B1_day4,2022.2.4,MacIntel,60.0024001,,,,,,down,0,1.2292,,0.697611762,0.3713119,1,0,0,0,110,110,125,1,aanzien,images/br_aanzien.png,images/cb_aanzien.png,0,,,,,,,,,,,,,,,,,,,,,,
,,,,,00100,2023-11-11_15h14.32.029,vbt_B1_day4,2022.2.4,MacIntel,60.0024001,,,,,,down,0,1.639,,0.697334934,0.370484806,1,0,0,0,111,111,162,1,uitdelen,images/br_uitdelen.png,images/cb_uitdelen.png,0,,,,,,,,,,,,,,,,,,,,,,
,,,,,00100,2023-11-11_15h14.32.029,vbt_B1_day4,2022.2.4,MacIntel,60.0024001,,,,,,down,0,2.3914,,0.697334934,0.368724891,1,0,0,0,112,112,135,1,gedicht,images/br_gedicht.png,images/cb_gedicht.png,0,,,,,,,,,,,,,,,,,,,,,,
,,,,,00100,2023-11-11_15h14.32.029,vbt_B1_day4,2022.2.4,MacIntel,60.0024001,,,,,,down,0,4.9379,,0.697334934,0.368724891,1,0,0,0,113,113,187,1,opkijken,images/br_opkijken.png,images/cb_opkijken.png,1,opkijken,,,,,,,,,,,,,,,,,,,,,
,,,,,00100,2023-11-11_15h14.32.029,vbt_B1_day4,2022.2.4,MacIntel,60.0024001,,,,,,down,0,2.3681,,0.697334934,0.368724891,1,0,0,0,114,114,146,1,opkomen,images/br_opkomen.png,images/cb_opkomen.png,1,opkomen,,,,,,,,,,,,,,,,,,,,,
,,,,,00100,2023-11-11_15h14.32.029,vbt_B1_day4,2022.2.4,MacIntel,60.0024001,,,,,,down,0,2.5501,,0.697334934,0.368724891,1,0,0,0,115,115,122,1,waarvan,images/br_waarvan.png,images/cb_waarvan.png,0,,,,,,,,,,,,,,,,,,,,,,
,,,,,00100,2023-11-11_15h14.32.029,vbt_B1_day4,2022.2.4,MacIntel,60.0024001,,,,,,down,0,1.9821,,0.799982639,0.324707998,1,0,0,0,116,116,117,1,kennis,images/br_kennis.png,images/cb_kennis.png,0,,,,,,,,,,,,,,,,,,,,,,
,,,,,00100,2023-11-11_15h14.32.029,vbt_B1_day4,2022.2.4,MacIntel,60.0024001,,,,,,down,0,0.505,,0.799982639,0.324707998,1,0,0,0,117,117,51,1,samen,images/br_samen.png,images/cb_samen.png,0,,,,,,,,,,,,,,,,,,,,,,
,,,,,00100,2023-11-11_15h14.32.029,vbt_B1_day4,2022.2.4,MacIntel,60.0024001,,,,,,down,0,3.2735,,0.799499376,0.328272925,1,0,0,0,118,118,145,1,invloed,images/br_invloed.png,images/cb_invloed.png,1,invloed,,,,,,,,,,,,,,,,,,,,,
,,,,,00100,2023-11-11_15h14.32.029,vbt_B1_day4,2022.2.4,MacIntel,60.0024001,,,,,,down,0,2.184,,0.799499376,0.328272925,1,0,0,0,119,119,70,1,ijdel,images/br_ijdel.png,images/cb_ijdel.png,0,,,,,,,,,,,,,,,,,,,,,,
,,,,,00100,2023-11-11_15h14.32.029,vbt_B1_day4,2022.2.4,MacIntel,60.0024001,,,,,,down,0,2.3259,,0.799499376,0.328272925,1,0,0,0,120,120,184,1,aandelen,images/br_aandelen.png,images/cb_aandelen.png,1,aandelen,,,,,,,,,,,,,,,,,,,,,
,,,,,00100,2023-11-11_15h14.32.029,vbt_B1_day4,2022.2.4,MacIntel,60.0024001,,,,,,down,0,0.4817,,0.77444024,0.206066928,1,0,0,0,121,121,113,1,koppen,images/br_koppen.png,images/cb_koppen.png,0,,,,,,,,,,,,,,,,,,,,,,
,,,,,00100,2023-11-11_15h14.32.029,vbt_B1_day4,2022.2.4,MacIntel,60.0024001,,,,,,down,0,2.6179,,0.77444024,0.205511373,1,0,0,0,122,122,13,1,kaal,images/br_kaal.png,images/cb_kaal.png,0,,,,,,,,,,,,,,,,,,,,,,
,,,,,00100,2023-11-11_15h14.32.029,vbt_B1_day4,2022.2.4,MacIntel,60.0024001,,,,,,down,0,1.435,,0.77444024,0.205511373,1,0,0,0,123,123,198,1,bedoelen,images/br_bedoelen.png,images/cb_bedoelen.png,0,,,,,,,,,,,,,,,,,,,,,,
,,,,,00100,2023-11-11_15h14.32.029,vbt_B1_day4,2022.2.4,MacIntel,60.0024001,,,,,,down,0,2.172,,0.756629096,0.196175842,1,0,0,0,124,124,21,1,mist,images/br_mist.png,images/cb_mist.png,0,,,,,,,,,,,,,,,,,,,,,,
,,,,,00100,2023-11-11_15h14.32.029,vbt_B1_day4,2022.2.4,MacIntel,60.0024001,,,,,,down,0,0.2238,,0.756629096,0.196175842,1,0,0,0,125,125,82,1,muziek,images/br_muziek.png,images/cb_muziek.png,0,,,,,,,,,,,,,,,,,,,,,,
,,,,,00100,2023-11-11_15h14.32.029,vbt_B1_day4,2022.2.4,MacIntel,60.0024001,,,,,,down,0,0.7722,,0.756629096,0.196175842,1,0,0,0,126,126,2,1,jaar,images/br_jaar.png,images/cb_jaar.png,0,,,,,,,,,,,,,,,,,,,,,,
,,,,,00100,2023-11-11_15h14.32.029,vbt_B1_day4,2022.2.4,MacIntel,60.0024001,,,,,,down,0,1.289,,0.756629096,0.196175842,1,0,0,0,127,127,52,1,wagon,images/br_wagon.png,images/cb_wagon.png,0,,,,,,,,,,,,,,,,,,,,,,
,,,,,00100,2023-11-11_15h14.32.029,vbt_B1_day4,2022.2.4,MacIntel,60.0024001,,,,,,down,0,3.9513,,0.756629096,0.196175842,1,0,0,0,128,128,47,1,kabel,images/br_kabel.png,images/cb_kabel.png,0,,,,,,,,,,,,,,,,,,,,,,
,,,,,00100,2023-11-11_15h14.32.029,vbt_B1_day4,2022.2.4,MacIntel,60.0024001,,,,,,down,0,2.1189,,0.756629096,0.196175842,1,0,0,0,129,129,24,1,jurk,images/br_jurk.png,images/cb_jurk.png,1,jurk,,,,,,,,,,,,,,,,,,,,,
,,,,,00100,2023-11-11_15h14.32.029,vbt_B1_day4,2022.2.4,MacIntel,60.0024001,,,,,,down,0,1.0003,,0.756629096,0.196175842,1,0,0,0,130,130,1,1,zaal,images/br_zaal.png,images/cb_zaal.png,0,,,,,,,,,,,,,,,,,,,,,,
,,,,,00100,2023-11-11_15h14.32.029,vbt_B1_day4,2022.2.4,MacIntel,60.0024001,,,,,,down,0,2.7577,,0.799982639,0.265029975,1,0,0,0,131,131,72,1,strak,images/br_strak.png,images/cb_strak.png,0,,,,,,,,,,,,,,,,,,,,,,
,,,,,00100,2023-11-11_15h14.32.029,vbt_B1_day4,2022.2.4,MacIntel,60.0024001,,,,,,down,0,3.2578,,0.799982639,0.265029975,1,0,0,0,132,132,83,1,mening,images/br_mening.png,images/cb_mening.png,0,,,,,,,,,,,,,,,,,,,,,,
,,,,,00100,2023-11-11_15h14.32.029,vbt_B1_day4,2022.2.4,MacIntel,60.0024001,,,,,,down,0,0.4228,,0.799982639,0.265029975,1,0,0,0,133,133,89,1,slapen,images/br_slapen.png,images/cb_slapen.png,0,,,,,,,,,,,,,,,,,,,,,,
,,,,,00100,2023-11-11_15h14.32.029,vbt_B1_day4,2022.2.4,MacIntel,60.0024001,,,,,,down,0,3.3394,,0.799982639,0.264829458,1,0,0,0,134,134,158,1,innemen,images/br_innemen.png,images/cb_innemen.png,0,,,,,,,,,,,,,,,,,,,,,,
,,,,,00100,2023-11-11_15h14.32.029,vbt_B1_day4,2022.2.4,MacIntel,60.0024001,,,,,,down,0,0.1415,,0.799982639,0.264829458,1,0,0,0,135,135,197,1,spanning,images/br_spanning.png,images/cb_spanning.png,0,,,,,,,,,,,,,,,,,,,,,,
,,,,,00100,2023-11-11_15h14.32.029,vbt_B1_day4,2022.2.4,MacIntel,60.0024001,,,,,,down,0,1.2015,,0.799982639,0.265562507,1,0,0,0,136,136,181,1,toegeven,images/br_toegeven.png,images/cb_toegeven.png,0,,,,,,,,,,,,,,,,,,,,,,
,,,,,00100,2023-11-11_15h14.32.029,vbt_B1_day4,2022.2.4,MacIntel,60.0024001,,,,,,down,0,1.3679,,0.799982639,0.264755571,1,0,0,0,137,137,74,1,graaf,images/br_graaf.png,images/cb_graaf.png,0,,,,,,,,,,,,,,,,,,,,,,
,,,,,00100,2023-11-11_15h14.32.029,vbt_B1_day4,2022.2.4,MacIntel,60.0024001,,,,,,down,0,1.2295,,0.799982639,0.266696099,1,0,0,0,138,138,81,1,dubbel,images/br_dubbel.png,images/cb_dubbel.png,0,,,,,,,,,,,,,,,,,,,,,,
,,,,,00100,2023-11-11_15h14.32.029,vbt_B1_day4,2022.2.4,MacIntel,60.0024001,,,,,,down,0,0.315,,0.799982639,0.266696099,1,0,0,0,139,139,37,1,mijn,images/br_mijn.png,images/cb_mijn.png,0,,,,,,,,,,,,,,,,,,,,,,
,,,,,00100,2023-11-11_15h14.32.029,vbt_B1_day4,2022.2.4,MacIntel,60.0024001,,,,,,down,0,1.7718,,0.799982639,0.266696099,1,0,0,0,140,140,96,1,slagen,images/br_slagen.png,images/cb_slagen.png,0,,,,,,,,,,,,,,,,,,,,,,
,,,,,00100,2023-11-11_15h14.32.029,vbt_B1_day4,2022.2.4,MacIntel,60.0024001,,,,,,down,0,0.806,,0.799982639,0.284169498,1,0,0,0,141,141,159,1,sufferd,images/br_sufferd.png,images/cb_sufferd.png,0,,,,,,,,,,,,,,,,,,,,,,
,,,,,00100,2023-11-11_15h14.32.029,vbt_B1_day4,2022.2.4,MacIntel,60.0024001,,,,,,down,0,0.3543,,0.799982639,0.283404744,1,0,0,0,142,142,163,1,schuilen,images/br_schuilen.png,images/cb_schuilen.png,0,,,,,,,,,,,,,,,,,,,,,,
,,,,,00100,2023-11-11_15h14.32.029,vbt_B1_day4,2022.2.4,MacIntel,60.0024001,,,,,,down,0,5.1528,,0.799982639,0.283642188,1,0,0,0,143,143,124,1,bloeien,images/br_bloeien.png,images/cb_bloeien.png,0,,,,,,,,,,,,,,,,,,,,,,
,,,,,00100,2023-11-11_15h14.32.029,vbt_B1_day4,2022.2.4,MacIntel,60.0024001,,,,,,down,0,1.509,,0.799732259,0.283181169,1,0,0,0,144,144,76,1,afval,images/br_afval.png,images/cb_afval.png,0,,,,,,,,,,,,,,,,,,,,,,
,,,,,00100,2023-11-11_15h14.32.029,vbt_B1_day4,2022.2.4,MacIntel,60.0024001,,,,,,down,0,5.4683,,0.799732259,0.282943776,1,0,0,0,145,145,194,1,driemaal,images/br_driemaal.png,images/cb_driemaal.png,0,,,,,,,,,,,,,,,,,,,,,,
,,,,,00100,2023-11-11_15h14.32.029,vbt_B1_day4,2022.2.4,MacIntel,60.0024001,,,,,,down,0,2.5826,,0.799732259,0.282250943,1,0,0,0,146,146,60,1,jasje,images/br_jasje.png,images/cb_jasje.png,0,,,,,,,,,,,,,,,,,,,,,,
,,,,,00100,2023-11-11_15h14.32.029,vbt_B1_day4,2022.2.4,MacIntel,60.0024001,,,,,,down,0,0.8527,,0.799732259,0.282250943,1,0,0,0,147,147,25,1,plek,images/br_plek.png,images/cb_plek.png,1,plek,,,,,,,,,,,,,,,,,,,,,
,,,,,00100,2023-11-11_15h14.32.029,vbt_B1_day4,2022.2.4,MacIntel,60.0024001,,,,,,down,0,12.9449,,0.076492716,-0.149693129,1,0,0,0,148,148,147,1,komisch,images/br_komisch.png,images/cb_komisch.png,1,komisch,,,,,,,,,,,,,,,,,,,,,
,,,,,00100,2023-11-11_15h14.32.029,vbt_B1_day4,2022.2.4,MacIntel,60.0024001,,,,,,down,0,2.6838,,0.076492716,-0.149693129,1,0,0,0,149,149,75,1,snoep,images/br_snoep.png,images/cb_snoep.png,0,,,,,,,,,,,,,,,,,,,,,,
,,,,,00100,2023-11-11_15h14.32.029,vbt_B1_day4,2022.2.4,MacIntel,60.0024001,,,,,,down,0,0.6698,,0.076492716,-0.149693129,1,0,0,0,150,150,95,1,vreten,images/br_vreten.png,images/cb_vreten.png,0,,,,,,,,,,,,,,,,,,,,,,
,,,,,00100,2023-11-11_15h14.32.029,vbt_B1_day4,2022.2.4,MacIntel,60.0024001,,,,,,down,0,1.6398,,0.076492716,-0.149693129,1,0,0,0,151,151,98,1,kreeft,images/br_kreeft.png,images/cb_kreeft.png,0,,,,,,,,,,,,,,,,,,,,,,
,,,,,00100,2023-11-11_15h14.32.029,vbt_B1_day4,2022.2.4,MacIntel,60.0024001,,,,,,down,0,3.4856,,0.076492716,-0.149693129,1,0,0,0,152,152,156,1,rechten,images/br_rechten.png,images/cb_rechten.png,0,,,,,,,,,,,,,,,,,,,,,,
,,,,,00100,2023-11-11_15h14.32.029,vbt_B1_day4,2022.2.4,MacIntel,60.0024001,,,,,,down,0,1.5526,,0.076492716,-0.149693129,1,0,0,0,153,153,67,1,zwart,images/br_zwart.png,images/cb_zwart.png,1,zwart,,,,,,,,,,,,,,,,,,,,,
,,,,,00100,2023-11-11_15h14.32.029,vbt_B1_day4,2022.2.4,MacIntel,60.0024001,,,,,,down,0,1.107,,0.076492716,-0.149693129,1,0,0,0,154,154,79,1,nodig,images/br_nodig.png,images/cb_nodig.png,0,,,,,,,,,,,,,,,,,,,,,,
,,,,,00100,2023-11-11_15h14.32.029,vbt_B1_day4,2022.2.4,MacIntel,60.0024001,,,,,,down,0,0.3066,,0.076492716,-0.149693129,1,0,0,0,155,155,8,1,knie,images/br_knie.png,images/cb_knie.png,0,,,,,,,,,,,,,,,,,,,,,,
,,,,,00100,2023-11-11_15h14.32.029,vbt_B1_day4,2022.2.4,MacIntel,60.0024001,,,,,,down,0,2.7016,,0.076492716,-0.149693129,1,0,0,0,156,156,167,1,eenhoorn,images/br_eenhoorn.png,images/cb_eenhoorn.png,0,,,,,,,,,,,,,,,,,,,,,,
,,,,,00100,2023-11-11_15h14.32.029,vbt_B1_day4,2022.2.4,MacIntel,60.0024001,,,,,,down,0,1.7989,,0.076492716,-0.149693129,1,0,0,0,157,157,150,1,gegeven,images/br_gegeven.png,images/cb_gegeven.png,0,,,,,,,,,,,,,,,,,,,,,,
,,,,,00100,2023-11-11_15h14.32.029,vbt_B1_day4,2022.2.4,MacIntel,60.0024001,,,,,,down,0,4.0226,,0.076492716,-0.149693129,1,0,0,0,158,158,106,1,zingen,images/br_zingen.png,images/cb_zingen.png,1,zingen,,,,,,,,,,,,,,,,,,,,,
,,,,,00100,2023-11-11_15h14.32.029,vbt_B1_day4,2022.2.4,MacIntel,60.0024001,,,,,,down,0,5.1724,,0.076492716,-0.149693129,1,0,0,0,159,159,170,1,schatten,images/br_schatten.png,images/cb_schatten.png,0,,,,,,,,,,,,,,,,,,,,,,
,,,,,00100,2023-11-11_15h14.32.029,vbt_B1_day4,2022.2.4,MacIntel,60.0024001,,,,,,down,0,0.9507,,0.680725369,0.206819288,1,0,0,0,160,160,178,1,huisdier,images/br_huisdier.png,images/cb_huisdier.png,0,,,,,,,,,,,,,,,,,,,,,,
,,,,,00100,2023-11-11_15h14.32.029,vbt_B1_day4,2022.2.4,MacIntel,60.0024001,,,,,,down,0,0.1552,,0.680725369,0.206819288,1,0,0,0,161,161,6,1,diep,images/br_diep.png,images/cb_diep.png,0,,,,,,,,,,,,,,,,,,,,,,
,,,,,00100,2023-11-11_15h14.32.029,vbt_B1_day4,2022.2.4,MacIntel,60.0024001,,,,,,down,0,2.203,,0.680725369,0.206819288,1,0,0,0,162,162,133,1,seizoen,images/br_seizoen.png,images/cb_seizoen.png,0,,,,,,,,,,,,,,,,,,,,,,
,,,,,00100,2023-11-11_15h14.32.029,vbt_B1_day4,2022.2.4,MacIntel,60.0024001,,,,,,down,0,1.9706,,0.680725369,0.206819288,1,0,0,0,163,163,94,1,oceaan,images/br_oceaan.png,images/cb_oceaan.png,0,,,,,,,,,,,,,,,,,,,,,,
,,,,,00100,2023-11-11_15h14.32.029,vbt_B1_day4,2022.2.4,MacIntel,60.0024001,,,,,,down,0,0.6706,,0.680725369,0.206819288,1,0,0,0,164,164,157,1,uitlaat,images/br_uitlaat.png,images/cb_uitlaat.png,0,,,,,,,,,,,,,,,,,,,,,,
,,,,,00100,2023-11-11_15h14.32.029,vbt_B1_day4,2022.2.4,MacIntel,60.0024001,,,,,,down,0,1.5955,,0.680725369,0.206819288,1,0,0,0,165,165,30,1,uien,images/br_uien.png,images/cb_uien.png,0,,,,,,,,,,,,,,,,,,,,,,
,,,,,00100,2023-11-11_15h14.32.029,vbt_B1_day4,2022.2.4,MacIntel,60.0024001,,,,,,down,0,5.9253,,0.680725369,0.206819288,1,0,0,0,166,166,136,1,waarbij,images/br_waarbij.png,images/cb_waarbij.png,0,,,,,,,,,,,,,,,,,,,,,,
,,,,,00100,2023-11-11_15h14.32.029,vbt_B1_day4,2022.2.4,MacIntel,60.0024001,,,,,,down,0,0.5714,,0.680725369,0.206819288,1,0,0,0,167,167,69,1,waken,images/br_waken.png,images/cb_waken.png,0,,,,,,,,,,,,,,,,,,,,,,
,,,,,00100,2023-11-11_15h14.32.029,vbt_B1_day4,2022.2.4,MacIntel,60.0024001,,,,,,down,0,3.1717,,0.680725369,0.206819288,1,0,0,0,168,168,78,1,leren,images/br_leren.png,images/cb_leren.png,0,,,,,,,,,,,,,,,,,,,,,,
,,,,,00100,2023-11-11_15h14.32.029,vbt_B1_day4,2022.2.4,MacIntel,60.0024001,,,,,,down,0,10.0199,,0.684558241,0.210567932,1,0,0,0,169,169,165,1,feestdag,images/br_feestdag.png,images/cb_feestdag.png,0,,,,,,,,,,,,,,,,,,,,,,
,,,,,00100,2023-11-11_15h14.32.029,vbt_B1_day4,2022.2.4,MacIntel,60.0024001,,,,,,down,0,3.236,,0.684558241,0.210012377,1,0,0,0,170,170,185,1,mijnheer,images/br_mijnheer.png,images/cb_mijnheer.png,1,mijnheer,,,,,,,,,,,,,,,,,,,,,
,,,,,00100,2023-11-11_15h14.32.029,vbt_B1_day4,2022.2.4,MacIntel,60.0024001,,,,,,down,0,15.1554,,0.684558241,0.210012377,1,0,0,0,171,171,11,1,mode,images/br_mode.png,images/cb_mode.png,0,,,,,,,,,,,,,,,,,,,,,,
,,,,,00100,2023-11-11_15h14.32.029,vbt_B1_day4,2022.2.4,MacIntel,60.0024001,,,,,,down,0,1.8346,,0.684558241,0.210012377,1,0,0,0,172,172,19,1,geit,images/br_geit.png,images/cb_geit.png,0,,,,,,,,,,,,,,,,,,,,,,
,,,,,00100,2023-11-11_15h14.32.029,vbt_B1_day4,2022.2.4,MacIntel,60.0024001,,,,,,down,0,0.318,,0.789431966,0.260708296,1,0,0,0,173,173,18,1,blik,images/br_blik.png,images/cb_blik.png,0,,,,,,,,,,,,,,,,,,,,,,
,,,,,00100,2023-11-11_15h14.32.029,vbt_B1_day4,2022.2.4,MacIntel,60.0024001,,,,,,down,0,2.1676,,0.789431966,0.260708296,1,0,0,0,174,174,16,1,ziek,images/br_ziek.png,images/cb_ziek.png,0,,,,,,,,,,,,,,,,,,,,,,
,,,,,00100,2023-11-11_15h14.32.029,vbt_B1_day4,2022.2.4,MacIntel,60.0024001,,,,,,down,0,0.7874,,0.789431966,0.260708296,1,0,0,0,175,175,91,1,gezond,images/br_gezond.png,images/cb_gezond.png,0,,,,,,,,,,,,,,,,,,,,,,
,,,,,00100,2023-11-11_15h14.32.029,vbt_B1_day4,2022.2.4,MacIntel,60.0024001,,,,,,down,0,3.4167,,0.789431966,0.260708296,1,0,0,0,176,176,199,1,beseffen,images/br_beseffen.png,images/cb_beseffen.png,0,,,,,,,,,,,,,,,,,,,,,,
,,,,,00100,2023-11-11_15h14.32.029,vbt_B1_day4,2022.2.4,MacIntel,60.0024001,,,,,,down,0,7.7394,,0.789431966,0.260708296,1,0,0,0,177,177,59,1,kring,images/br_kring.png,images/cb_kring.png,0,,,,,,,,,,,,,,,,,,,,,,
,,,,,00100,2023-11-11_15h14.32.029,vbt_B1_day4,2022.2.4,MacIntel,60.0024001,,,,,,down,0,2.7841,,0.789431966,0.260708296,1,0,0,0,178,178,186,1,voorraad,images/br_voorraad.png,images/cb_voorraad.png,1,voorraad,,,,,,,,,,,,,,,,,,,,,
,,,,,00100,2023-11-11_15h14.32.029,vbt_B1_day4,2022.2.4,MacIntel,60.0024001,,,,,,down,0,1.0305,,0.789431966,0.260708296,1,0,0,0,179,179,139,1,stiekem,images/br_stiekem.png,images/cb_stiekem.png,0,,,,,,,,,,,,,,,,,,,,,,
,,,,,00100,2023-11-11_15h14.32.029,vbt_B1_day4,2022.2.4,MacIntel,60.0024001,,,,,,down,0,3.2238,,0.791515299,0.262414381,1,0,0,0,180,180,188,1,strekken,images/br_strekken.png,images/cb_strekken.png,0,,,,,,,,,,,,,,,,,,,,,,
,,,,,00100,2023-11-11_15h14.32.029,vbt_B1_day4,2022.2.4,MacIntel,60.0024001,,,,,,down,0,0.469,,0.791515299,0.262414381,1,0,0,0,181,181,142,1,snuiven,images/br_snuiven.png,images/cb_snuiven.png,0,,,,,,,,,,,,,,,,,,,,,,
,,,,,00100,2023-11-11_15h14.32.029,vbt_B1_day4,2022.2.4,MacIntel,60.0024001,,,,,,down,0,0.0162,,0.791906467,0.261119724,1,0,0,0,182,182,127,1,doodmoe,images/br_doodmoe.png,images/cb_doodmoe.png,0,,,,,,,,,,,,,,,,,,,,,,
,,,,,00100,2023-11-11_15h14.32.029,vbt_B1_day4,2022.2.4,MacIntel,60.0024001,,,,,,down,0,3.0984,,0.793805067,0.26355601,1,0,0,0,183,183,12,1,kust,images/br_kust.png,images/cb_kust.png,0,,,,,,,,,,,,,,,,,,,,,,
,,,,,00100,2023-11-11_15h14.32.029,vbt_B1_day4,2022.2.4,MacIntel,60.0024001,,,,,,down,0,0.6251,,0.787578668,0.324989726,1,0,0,0,184,184,87,1,toeval,images/br_toeval.png,images/cb_toeval.png,0,,,,,,,,,,,,,,,,,,,,,,
,,,,,00100,2023-11-11_15h14.32.029,vbt_B1_day4,2022.2.4,MacIntel,60.0024001,,,,,,down,0,1.2532,,0.787578668,0.324989726,1,0,0,0,185,185,129,1,verhaal,images/br_verhaal.png,images/cb_verhaal.png,0,,,,,,,,,,,,,,,,,,,,,,
,,,,,00100,2023-11-11_15h14.32.029,vbt_B1_day4,2022.2.4,MacIntel,60.0024001,,,,,,down,0,2.0343,,0.787578668,0.324989726,1,0,0,0,186,186,46,1,jagen,images/br_jagen.png,images/cb_jagen.png,0,,,,,,,,,,,,,,,,,,,,,,
,,,,,00100,2023-11-11_15h14.32.029,vbt_B1_day4,2022.2.4,MacIntel,60.0024001,,,,,,down,0,5.5669,,0.787578668,0.324989726,1,0,0,0,187,187,143,1,hechten,images/br_hechten.png,images/cb_hechten.png,0,,,,,,,,,,,,,,,,,,,,,,
,,,,,00100,2023-11-11_15h14.32.029,vbt_B1_day4,2022.2.4,MacIntel,60.0024001,,,,,,down,0,3.3678,,0.787578668,0.324989726,1,0,0,0,188,188,32,1,palm,images/br_palm.png,images/cb_palm.png,0,,,,,,,,,,,,,,,,,,,,,,
,,,,,00100,2023-11-11_15h14.32.029,vbt_B1_day4,2022.2.4,MacIntel,60.0024001,,,,,,down,0,0.4503,,0.787578668,0.324989726,1,0,0,0,189,189,9,1,hier,images/br_hier.png,images/cb_hier.png,0,,,,,,,,,,,,,,,,,,,,,,
,,,,,00100,2023-11-11_15h14.32.029,vbt_B1_day4,2022.2.4,MacIntel,60.0024001,,,,,,down,0,1.0701,,0.787578668,0.324989726,1,0,0,0,190,190,171,1,aarzelen,images/br_aarzelen.png,images/cb_aarzelen.png,0,,,,,,,,,,,,,,,,,,,,,,
,,,,,00100,2023-11-11_15h14.32.029,vbt_B1_day4,2022.2.4,MacIntel,60.0024001,,,,,,down,0,0.7502,,0.787578668,0.324989726,1,0,0,0,191,191,85,1,heilig,images/br_heilig.png,images/cb_heilig.png,0,,,,,,,,,,,,,,,,,,,,,,
,,,,,00100,2023-11-11_15h14.32.029,vbt_B1_day4,2022.2.4,MacIntel,60.0024001,,,,,,down,0,0.3368,,0.787578668,0.324989726,1,0,0,0,192,192,183,1,getuigen,images/br_getuigen.png,images/cb_getuigen.png,0,,,,,,,,,,,,,,,,,,,,,,
,,,,,00100,2023-11-11_15h14.32.029,vbt_B1_day4,2022.2.4,MacIntel,60.0024001,,,,,,down,0,0.771,,0.787578668,0.324989726,1,0,0,0,193,193,48,1,steel,images/br_steel.png,images/cb_steel.png,0,,,,,,,,,,,,,,,,,,,,,,
,,,,,00100,2023-11-11_15h14.32.029,vbt_B1_day4,2022.2.4,MacIntel,60.0024001,,,,,,down,0,2.958,,0.787578668,0.324989726,1,0,0,0,194,194,4,1,moes,images/br_moes.png,images/cb_moes.png,0,,,,,,,,,,,,,,,,,,,,,,
,,,,,00100,2023-11-11_15h14.32.029,vbt_B1_day4,2022.2.4,MacIntel,60.0024001,,,,,,down,0,3.8025,,0.787578668,0.324989726,1,0,0,0,195,195,191,1,opheffen,images/br_opheffen.png,images/cb_opheffen.png,0,,,,,,,,,,,,,,,,,,,,,,
,,,,,00100,2023-11-11_15h14.32.029,vbt_B1_day4,2022.2.4,MacIntel,60.0024001,,,,,,down,0,1.7213,,0.787578668,0.324989726,1,0,0,0,196,196,121,1,twijfel,images/br_twijfel.png,images/cb_twijfel.png,0,,,,,,,,,,,,,,,,,,,,,,
,,,,,00100,2023-11-11_15h14.32.029,vbt_B1_day4,2022.2.4,MacIntel,60.0024001,,,,,,down,0,2.0381,,0.787578668,0.324989726,1,0,0,0,197,197,54,1,gebit,images/br_gebit.png,images/cb_gebit.png,0,,,,,,,,,,,,,,,,,,,,,,
,,,,,00100,2023-11-11_15h14.32.029,vbt_B1_day4,2022.2.4,MacIntel,60.0024001,,,,,,down,0,2.1717,,0.787578668,0.324989726,1,0,0,0,198,198,86,1,woning,images/br_woning.png,images/cb_woning.png,0,,,,,,,,,,,,,,,,,,,,,,
,,,,,00100,2023-11-11_15h14.32.029,vbt_B1_day4,2022.2.4,MacIntel,60.0024001,,,,,,down,0,0.4582,,0.787578668,0.324989726,1,0,0,0,199,199,103,1,joggen,images/br_joggen.png,images/cb_joggen.png,0,,,,,,,,,,,,,,,,,,,,,,
,,,,,00100,2023-11-11_15h14.32.029,vbt_B1_day4,2022.2.4,MacIntel,60.0024001,,,,,,,,,,,,,,,,,,,,,,,,,0.316591458,0.154734768,1,0,0,,,,,,,,,,,,,,,,
,,,,,00100,2023-11-11_15h14.32.029,vbt_B1_day4,2022.2.4,MacIntel,60.0024001,,,,,,,,,,,,,,,,,,,,,,,,,,,,,,0.210006375,-0.113480157,1,0,0,,,,,,,,,,,
,,,,,00100,2023-11-11_15h14.32.029,vbt_B1_day4,2022.2.4,MacIntel,60.0024001,,,,,,,,,,,,,,,,,,,,broodje,images/br_broodje.png,images/cb_broodje.png,,broodje,,,,,,,,,,,0.110155233,-0.076708103,1,0,0,broodje,0,0,0,55,1
,,,,,00100,2023-11-11_15h14.32.029,vbt_B1_day4,2022.2.4,MacIntel,60.0024001,,,,,,,,,,,,,,,,,,,,tucket,images/br_tucket.png,images/cb_tucket.png,,tucket,,,,,,,,,,,0.101564602,-0.062833489,1,0,0,tucket,0,1,1,30,1
,,,,,00100,2023-11-11_15h14.32.029,vbt_B1_day4,2022.2.4,MacIntel,60.0024001,,,,,,,,,,,,,,,,,,,,geliefd,images/br_geliefd.png,images/cb_geliefd.png,,geliefd,,,,,,,,,,,0.040932753,-0.07571445,1,0,0,geliefd,0,2,2,14,1
,,,,,00100,2023-11-11_15h14.32.029,vbt_B1_day4,2022.2.4,MacIntel,60.0024001,,,,,,,,,,,,,,,,,,,,zwek,images/br_zwek.png,images/cb_zwek.png,,zwek,,,,,,,,,,,0.223538751,-0.043713447,1,0,0,zwek,0,3,3,20,1
,,,,,00100,2023-11-11_15h14.32.029,vbt_B1_day4,2022.2.4,MacIntel,60.0024001,,,,,,,,,,,,,,,,,,,,oceaan,images/br_oceaan.png,images/cb_oceaan.png,,oceaan,,,,,,,,,,,0.223538751,-0.043713447,1,0,0,oceaan,0,4,4,10,1
,,,,,00100,2023-11-11_15h14.32.029,vbt_B1_day4,2022.2.4,MacIntel,60.0024001,,,,,,,,,,,,,,,,,,,,opkicht,images/br_opkicht.png,images/cb_opkicht.png,,opkicht,,,,,,,,,,,0.357202284,-0.006888089,1,0,0,opkicht,0,5,5,34,1
,,,,,00100,2023-11-11_15h14.32.029,vbt_B1_day4,2022.2.4,MacIntel,60.0024001,,,,,,,,,,,,,,,,,,,,geheim,images/br_geheim.png,images/cb_geheim.png,,geheim,,,,,,,,,,,0.554042833,0.043246596,1,0,0,geheim,0,6,6,8,1
,,,,,00100,2023-11-11_15h14.32.029,vbt_B1_day4,2022.2.4,MacIntel,60.0024001,,,,,,,,,,,,,,,,,,,,lappen,images/br_lappen.png,images/cb_lappen.png,,lappen,,,,,,,,,,,0.554042833,0.043246596,1,0,0,lappen,0,7,7,49,1
,,,,,00100,2023-11-11_15h14.32.029,vbt_B1_day4,2022.2.4,MacIntel,60.0024001,,,,,,,,,,,,,,,,,,,,kust,images/br_kust.png,images/cb_kust.png,,kust,,,,,,,,,,,0.554042833,0.043246596,1,0,0,kust,0,8,8,0,1
,,,,,00100,2023-11-11_15h14.32.029,vbt_B1_day4,2022.2.4,MacIntel,60.0024001,,,,,,,,,,,,,,,,,,,,wagon,images/br_wagon.png,images/cb_wagon.png,,wagon,,,,,,,,,,,0.554042833,0.043246596,1,0,0,wagon,0,9,9,4,1
,,,,,00100,2023-11-11_15h14.32.029,vbt_B1_day4,2022.2.4,MacIntel,60.0024001,,,,,,,,,,,,,,,,,,,,stemming,images/br_stemming.png,images/cb_stemming.png,,stemming,,,,,,,,,,,0.554042833,0.043246596,1,0,0,stemming,0,10,10,18,1
,,,,,00100,2023-11-11_15h14.32.029,vbt_B1_day4,2022.2.4,MacIntel,60.0024001,,,,,,,,,,,,,,,,,,,,seizoen,images/br_seizoen.png,images/cb_seizoen.png,,seizoen,,,,,,,,,,,0.554042833,0.043246596,1,0,0,seizoen,0,11,11,13,1
,,,,,00100,2023-11-11_15h14.32.029,vbt_B1_day4,2022.2.4,MacIntel,60.0024001,,,,,,,,,,,,,,,,,,,,warel,images/br_warel.png,images/cb_warel.png,,warel,,,,,,,,,,,0.554042833,0.043246596,1,0,0,warel,0,12,12,26,1
,,,,,00100,2023-11-11_15h14.32.029,vbt_B1_day4,2022.2.4,MacIntel,60.0024001,,,,,,,,,,,,,,,,,,,,drooien,images/br_drooien.png,images/cb_drooien.png,,drooien,,,,,,,,,,,0.554042833,0.043246596,1,0,0,drooien,0,13,13,32,1
,,,,,00100,2023-11-11_15h14.32.029,vbt_B1_day4,2022.2.4,MacIntel,60.0024001,,,,,,,,,,,,,,,,,,,,gijf,images/br_gijf.png,images/cb_gijf.png,,gijf,,,,,,,,,,,0.554042833,0.043246596,1,0,0,gijf,0,14,14,23,1
,,,,,00100,2023-11-11_15h14.32.029,vbt_B1_day4,2022.2.4,MacIntel,60.0024001,,,,,,,,,,,,,,,,,,,,gaaf,images/br_gaaf.png,images/cb_gaaf.png,,gaaf,,,,,,,,,,,0.554042833,0.043246596,1,0,0,gaaf,0,15,15,43,1
,,,,,00100,2023-11-11_15h14.32.029,vbt_B1_day4,2022.2.4,MacIntel,60.0024001,,,,,,,,,,,,,,,,,,,,bisschap,images/br_bisschap.png,images/cb_bisschap.png,,bisschop,,,,,,,,,,,0.554042833,0.043246596,1,0,0,bisschop,0,16,16,36,1
,,,,,00100,2023-11-11_15h14.32.029,vbt_B1_day4,2022.2.4,MacIntel,60.0024001,,,,,,,,,,,,,,,,,,,,heengaan,images/br_heengaan.png,images/cb_heengaan.png,,heengaan,,,,,,,,,,,0.554042833,0.043246596,1,0,0,heengaan,0,17,17,19,1
,,,,,00100,2023-11-11_15h14.32.029,vbt_B1_day4,2022.2.4,MacIntel,60.0024001,,,,,,,,,,,,,,,,,,,,dozijn,images/br_dozijn.png,images/cb_dozijn.png,,dozijn,,,,,,,,,,,0.554042833,0.043246596,1,0,0,dozijn,0,18,18,48,1
,,,,,00100,2023-11-11_15h14.32.029,vbt_B1_day4,2022.2.4,MacIntel,60.0024001,,,,,,,,,,,,,,,,,,,,gaan,images/br_gaan.png,images/cb_gaan.png,,gaan,,,,,,,,,,,0.554042833,0.043246596,1,0,0,gaan,0,19,19,41,1
,,,,,00100,2023-11-11_15h14.32.029,vbt_B1_day4,2022.2.4,MacIntel,60.0024001,,,,,,,,,,,,,,,,,,,,vreten,images/br_vreten.png,images/cb_vreten.png,,vreten,,,,,,,,,,,0.554042833,0.043246596,1,0,0,vreten,0,20,20,11,1
,,,,,00100,2023-11-11_15h14.32.029,vbt_B1_day4,2022.2.4,MacIntel,60.0024001,,,,,,,,,,,,,,,,,,,,zaalrijk,images/br_zaalrijk.png,images/cb_zaalrijk.png,,zaalr...,,,,,,,,,,,0.554042833,0.043246596,1,0,0,zaalr...,0,21,21,37,1
,,,,,00100,2023-11-11_15h14.32.029,vbt_B1_day4,2022.2.4,MacIntel,60.0024001,,,,,,,,,,,,,,,,,,,,pijnlijk,images/br_pijnlijk.png,images/cb_pijnlijk.png,,pijnlijk,,,,,,,,,,,0.554042833,0.043246596,1,0,0,pijnlijk,0,22,22,58,1
,,,,,00100,2023-11-11_15h14.32.029,vbt_B1_day4,2022.2.4,MacIntel,60.0024001,,,,,,,,,,,,,,,,,,,,drummer,images/br_drummer.png,images/cb_drummer.png,,frummer,,,,,,,,,,,0.475928684,0.043246596,1,0,0,frummer,0,23,23,53,1
,,,,,00100,2023-11-11_15h14.32.029,vbt_B1_day4,2022.2.4,MacIntel,60.0024001,,,,,,,,,,,,,,,,,,,,kaal,images/br_kaal.png,images/cb_kaal.png,,kaal,,,,,,,,,,,0.491482747,0.089890306,1,0,0,kaal,0,24,24,1,1
,,,,,00100,2023-11-11_15h14.32.029,vbt_B1_day4,2022.2.4,MacIntel,60.0024001,,,,,,,,,,,,,,,,,,,,haza,images/br_haza.png,images/cb_haza.png,,haza,,,,,,,,,,,0.491482747,0.089890306,1,0,0,haza,0,25,25,21,1
,,,,,00100,2023-11-11_15h14.32.029,vbt_B1_day4,2022.2.4,MacIntel,60.0024001,,,,,,,,,,,,,,,,,,,,eerst,images/br_eerst.png,images/cb_eerst.png,,eerst,,,,,,,,,,,0.506660156,0.140689121,1,0,0,eerst,0,26,26,47,1
,,,,,00100,2023-11-11_15h14.32.029,vbt_B1_day4,2022.2.4,MacIntel,60.0024001,,,,,,,,,,,,,,,,,,,,flippen,images/br_flippen.png,images/cb_flippen.png,,flippen,,,,,,,,,,,0.506660156,0.140689121,1,0,0,flippen,0,27,27,54,1
,,,,,00100,2023-11-11_15h14.32.029,vbt_B1_day4,2022.2.4,MacIntel,60.0024001,,,,,,,,,,,,,,,,,,,,bruin,images/br_bruin.png,images/cb_bruin.png,,bruin,,,,,,,,,,,0.506660156,0.140689121,1,0,0,bruin,0,28,28,45,1
,,,,,00100,2023-11-11_15h14.32.029,vbt_B1_day4,2022.2.4,MacIntel,60.0024001,,,,,,,,,,,,,,,,,,,,opruimen,images/br_opruimen.png,images/cb_opruimen.png,,opruimen,,,,,,,,,,,0.506660156,0.140689121,1,0,0,opruimen,0,29,29,59,1
,,,,,00100,2023-11-11_15h14.32.029,vbt_B1_day4,2022.2.4,MacIntel,60.0024001,,,,,,,,,,,,,,,,,,,,baron,images/br_baron.png,images/cb_baron.png,,baron,,,,,,,,,,,0.506660156,0.140689121,1,0,0,baron,0,30,30,5,1
,,,,,00100,2023-11-11_15h14.32.029,vbt_B1_day4,2022.2.4,MacIntel,60.0024001,,,,,,,,,,,,,,,,,,,,sulbon,images/br_sulbon.png,images/cb_sulbon.png,,sulbon,,,,,,,,,,,0.506660156,0.140689121,1,0,0,sulbon,0,31,31,31,1
,,,,,00100,2023-11-11_15h14.32.029,vbt_B1_day4,2022.2.4,MacIntel,60.0024001,,,,,,,,,,,,,,,,,,,,waarop,images/br_waarop.png,images/cb_waarop.png,,waarop,,,,,,,,,,,0.506660156,0.140303853,1,0,0,waarop,0,32,32,9,1
,,,,,00100,2023-11-11_15h14.32.029,vbt_B1_day4,2022.2.4,MacIntel,60.0024001,,,,,,,,,,,,,,,,,,,,steen,images/br_steen.png,images/cb_steen.png,,steen,,,,,,,,,,,0.506660156,0.144296943,1,0,0,steen,0,33,33,44,1
,,,,,00100,2023-11-11_15h14.32.029,vbt_B1_day4,2022.2.4,MacIntel,60.0024001,,,,,,,,,,,,,,,,,,,,fran,images/br_fran.png,images/cb_fran.png,,fran,,,,,,,,,,,0.506660156,0.144296943,1,0,0,fran,0,34,34,22,1
,,,,,00100,2023-11-11_15h14.32.029,vbt_B1_day4,2022.2.4,MacIntel,60.0024001,,,,,,,,,,,,,,,,,,,,rijp,images/br_rijp.png,images/cb_rijp.png,,rijp,,,,,,,,,,,0.506660156,0.144296943,1,0,0,rijp,0,35,35,2,1
,,,,,00100,2023-11-11_15h14.32.029,vbt_B1_day4,2022.2.4,MacIntel,60.0024001,,,,,,,,,,,,,,,,,,,,ezel,images/br_ezel.png,images/cb_ezel.png,,ezel,,,,,,,,,,,0.510214979,0.171914673,1,0,0,ezel,0,36,36,42,1
,,,,,00100,2023-11-11_15h14.32.029,vbt_B1_day4,2022.2.4,MacIntel,60.0024001,,,,,,,,,,,,,,,,,,,,weigeren,images/br_weigeren.png,images/cb_weigeren.png,,weigeren,,,,,,,,,,,0.510214979,0.171914673,1,0,0,weigeren,0,37,37,16,1
,,,,,00100,2023-11-11_15h14.32.029,vbt_B1_day4,2022.2.4,MacIntel,60.0024001,,,,,,,,,,,,,,,,,,,,getucht,images/br_getucht.png,images/cb_getucht.png,,getucht,,,,,,,,,,,0.510214979,0.171914673,1,0,0,getucht,0,38,38,35,1
,,,,,00100,2023-11-11_15h14.32.029,vbt_B1_day4,2022.2.4,MacIntel,60.0024001,,,,,,,,,,,,,,,,,,,,toevol,images/br_toevol.png,images/cb_toevol.png,,toevol,,,,,,,,,,,0.510214979,0.171914673,1,0,0,toevol,0,39,39,29,1
,,,,,00100,2023-11-11_15h14.32.029,vbt_B1_day4,2022.2.4,MacIntel,60.0024001,,,,,,,,,,,,,,,,,,,,strok,images/br_strok.png,images/cb_strok.png,,strok,,,,,,,,,,,0.510214979,0.171914673,1,0,0,strok,0,40,40,25,1
,,,,,00100,2023-11-11_15h14.32.029,vbt_B1_day4,2022.2.4,MacIntel,60.0024001,,,,,,,,,,,,,,,,,,,,dalen,images/br_dalen.png,images/cb_dalen.png,,dalen,,,,,,,,,,,0.510214979,0.171914673,1,0,0,dalen,0,41,41,46,1
,,,,,00100,2023-11-11_15h14.32.029,vbt_B1_day4,2022.2.4,MacIntel,60.0024001,,,,,,,,,,,,,,,,,,,,soda,images/br_soda.png,images/cb_soda.png,,soda,,,,,,,,,,,0.510214979,0.171914673,1,0,0,soda,0,42,42,3,1
,,,,,00100,2023-11-11_15h14.32.029,vbt_B1_day4,2022.2.4,MacIntel,60.0024001,,,,,,,,,,,,,,,,,,,,wozing,images/br_wozing.png,images/cb_wozing.png,,wozing,,,,,,,,,,,0.434903293,0.149498223,1,0,0,wozing,0,43,43,28,1
,,,,,00100,2023-11-11_15h14.32.029,vbt_B1_day4,2022.2.4,MacIntel,60.0024001,,,,,,,,,,,,,,,,,,,,grappen,images/br_grappen.png,images/cb_grappen.png,,grappen,,,,,,,,,,,0.434903293,0.149498223,1,0,0,grappen,0,44,44,12,1
,,,,,00100,2023-11-11_15h14.32.029,vbt_B1_day4,2022.2.4,MacIntel,60.0024001,,,,,,,,,,,,,,,,,,,,pittig,images/br_pittig.png,images/cb_pittig.png,,pittig,,,,,,,,,,,0.433197293,0.158101332,1,0,0,pittig,0,45,45,51,1
,,,,,00100,2023-11-11_15h14.32.029,vbt_B1_day4,2022.2.4,MacIntel,60.0024001,,,,,,,,,,,,,,,,,,,,aanzwaag,images/br_aanzwaag.png,images/cb_aanzwaag.png,,aanzwaag,,,,,,,,,,,0.433197293,0.15989329,1,0,0,aanzwaag,0,46,46,38,1
,,,,,00100,2023-11-11_15h14.32.029,vbt_B1_day4,2022.2.4,MacIntel,60.0024001,,,,,,,,,,,,,,,,,,,,schotel,images/br_schotel.png,images/cb_schotel.png,,schotel,,,,,,,,,,,0.431174181,0.175195313,1,0,0,schotel,0,47,47,52,1
,,,,,00100,2023-11-11_15h14.32.029,vbt_B1_day4,2022.2.4,MacIntel,60.0024001,,,,,,,,,,,,,,,,,,,,gedicht,images/br_gedicht.png,images/cb_gedicht.png,,gedicht,,,,,,,,,,,0.431174181,0.175195313,1,0,0,gedicht,0,48,48,15,1
,,,,,00100,2023-11-11_15h14.32.029,vbt_B1_day4,2022.2.4,MacIntel,60.0024001,,,,,,,,,,,,,,,,,,,,noodzaak,images/br_noodzaak.png,images/cb_noodzaak.png,,noodzaak,,,,,,,,,,,0.431174181,0.175195313,1,0,0,noodzaak,0,49,49,56,1
,,,,,00100,2023-11-11_15h14.32.029,vbt_B1_day4,2022.2.4,MacIntel,60.0024001,,,,,,,,,,,,,,,,,,,,praat,images/br_praat.png,images/cb_praat.png,,praat,,,,,,,,,,,0.431174181,0.175195313,1,0,0,praat,0,50,50,7,1
,,,,,00100,2023-11-11_15h14.32.029,vbt_B1_day4,2022.2.4,MacIntel,60.0024001,,,,,,,,,,,,,,,,,,,,snee,images/br_snee.png,images/cb_snee.png,,snee,,,,,,,,,,,0.431174181,0.175195313,1,0,0,snee,0,51,51,40,1
,,,,,00100,2023-11-11_15h14.32.029,vbt_B1_day4,2022.2.4,MacIntel,60.0024001,,,,,,,,,,,,,,,,,,,,mekst,images/br_mekst.png,images/cb_mekst.png,,mekst,,,,,,,,,,,0.431174181,0.174681634,1,0,0,mekst,0,52,52,27,1
,,,,,00100,2023-11-11_15h14.32.029,vbt_B1_day4,2022.2.4,MacIntel,60.0024001,,,,,,,,,,,,,,,,,,,,apparaat,images/br_apparaat.png,images/cb_apparaat.png,,apparaat,,,,,,,,,,,0.38917806,-0.031301778,1,0,0,apparaat,0,53,53,17,1
,,,,,00100,2023-11-11_15h14.32.029,vbt_B1_day4,2022.2.4,MacIntel,60.0024001,,,,,,,,,,,,,,,,,,,,gebog,images/br_gebog.png,images/cb_gebog.png,,gecog,,,,,,,,,,,0.38917806,-0.031301778,1,0,0,gecog,0,54,54,24,1
,,,,,00100,2023-11-11_15h14.32.029,vbt_B1_day4,2022.2.4,MacIntel,60.0024001,,,,,,,,,,,,,,,,,,,,paalbaak,images/br_paalbaak.png,images/cb_paalbaak.png,,paalbaak,,,,,,,,,,,0.381973877,-0.050708347,1,0,0,paalbaak,0,55,55,39,1
,,,,,00100,2023-11-11_15h14.32.029,vbt_B1_day4,2022.2.4,MacIntel,60.0024001,,,,,,,,,,,,,,,,,,,,midden,images/br_midden.png,images/cb_midden.png,,midden,,,,,,,,,,,0.090839844,-0.0185633,1,0,0,midden,0,56,56,50,1
,,,,,00100,2023-11-11_15h14.32.029,vbt_B1_day4,2022.2.4,MacIntel,60.0024001,,,,,,,,,,,,,,,,,,,,gebit,images/br_gebit.png,images/cb_gebit.png,,gebit,,,,,,,,,,,0.090839844,-0.0185633,1,0,0,gebit,0,57,57,6,1
,,,,,00100,2023-11-11_15h14.32.029,vbt_B1_day4,2022.2.4,MacIntel,60.0024001,,,,,,,,,,,,,,,,,,,,schenden,images/br_schenden.png,images/cb_schenden.png,,schin...,,,,,,,,,,,0.008420885,-0.035562202,1,0,0,schin...,0,58,58,57,1
,,,,,00100,2023-11-11_15h14.32.029,vbt_B1_day4,2022.2.4,MacIntel,60.0024001,,,,,,,,,,,,,,,,,,,,seizoon,images/br_seizoon.png,images/cb_seizoon.png,,seinaan,,,,,,,,,,,0.174063314,0.00088362,1,0,0,seinaan,0,59,59,33,1
,,,,,00100,2023-11-11_15h14.32.029,vbt_B1_day4,2022.2.4,MacIntel,60.0024001,,,,,,,,,,,,,,,,,,,,,,,,,,,,,,,,,,,,,,,,,,,,,
