welcome_mouse.x,welcome_mouse.y,welcome_mouse.leftButton,welcome_mouse.midButton,welcome_mouse.rightButton,"ID",date,expName,psychopyVersion,OS,frameRate,trainInstr_mouse.x,trainInstr_mouse.y,trainInstr_mouse.leftButton,trainInstr_mouse.midButton,trainInstr_mouse.rightButton,translation_key.keys,translation_key.corr,translation_key.rt,word_rsp.text,trWrd_mouse.x,trWrd_mouse.y,trWrd_mouse.leftButton,trWrd_mouse.midButton,trWrd_mouse.rightButton,train_loop.thisRepN,train_loop.thisTrialN,train_loop.thisN,train_loop.thisIndex,train_loop.ran,nlWrd,brWrd,cbWrd,test,testResp,mouse.x,mouse.y,mouse.leftButton,mouse.midButton,mouse.rightButton,testInstr_mouse.x,testInstr_mouse.y,testInstr_mouse.leftButton,testInstr_mouse.midButton,testInstr_mouse.rightButton,test_mouse.x,test_mouse.y,test_mouse.leftButton,test_mouse.midButton,test_mouse.rightButton,test_response.text,test_loop.thisRepN,test_loop.thisTrialN,test_loop.thisN,test_loop.thisIndex,test_loop.ran
0.048909844,-0.171930881,1,0,0,00020,2023-08-21_11h27.03.198,vbt_B1_day4,2022.2.4,MacIntel,60.0024001,,,,,,,,,,,,,,,,,,,,,,,,,,,,,,,,,,,,,,,,,,,,,
,,,,,00020,2023-08-21_11h27.03.198,vbt_B1_day4,2022.2.4,MacIntel,60.0024001,0.048909844,-0.171674873,1,0,0,,,,,,,,,,,,,,,,,,,,,,,,,,,,,,,,,,,,,,,,
,,,,,00020,2023-08-21_11h27.03.198,vbt_B1_day4,2022.2.4,MacIntel,60.0024001,,,,,,down,0,0.6508,,0.048909844,-0.171674873,1,0,0,0,0,0,86,1,woning,images/br_woning.png,images/cb_woning.png,0,,,,,,,,,,,,,,,,,,,,,,
,,,,,00020,2023-08-21_11h27.03.198,vbt_B1_day4,2022.2.4,MacIntel,60.0024001,,,,,,down,0,2.15,,0.048909844,-0.171674873,1,0,0,0,1,1,14,1,rijp,images/br_rijp.png,images/cb_rijp.png,0,,,,,,,,,,,,,,,,,,,,,,
,,,,,00020,2023-08-21_11h27.03.198,vbt_B1_day4,2022.2.4,MacIntel,60.0024001,,,,,,down,0,1.3834,,0.048909844,-0.171674873,1,0,0,0,2,2,130,1,keihard,images/br_keihard.png,images/cb_keihard.png,0,,,,,,,,,,,,,,,,,,,,,,
,,,,,00020,2023-08-21_11h27.03.198,vbt_B1_day4,2022.2.4,MacIntel,60.0024001,,,,,,down,0,2.4349,,0.048909844,-0.171674873,1,0,0,0,3,3,198,1,bedoelen,images/br_bedoelen.png,images/cb_bedoelen.png,0,,,,,,,,,,,,,,,,,,,,,,
,,,,,00020,2023-08-21_11h27.03.198,vbt_B1_day4,2022.2.4,MacIntel,60.0024001,,,,,,down,0,1.9659,,0.048909844,-0.171674873,1,0,0,0,4,4,103,1,joggen,images/br_joggen.png,images/cb_joggen.png,0,,,,,,,,,,,,,,,,,,,,,,
,,,,,00020,2023-08-21_11h27.03.198,vbt_B1_day4,2022.2.4,MacIntel,60.0024001,,,,,,down,0,1.0841,,0.04364624,-0.108266398,1,0,0,0,5,5,64,1,wegen,images/br_wegen.png,images/cb_wegen.png,1,wegen,,,,,,,,,,,,,,,,,,,,,
,,,,,00020,2023-08-21_11h27.03.198,vbt_B1_day4,2022.2.4,MacIntel,60.0024001,,,,,,down,0,1.6009,,0.04364624,-0.108266398,1,0,0,0,6,6,61,1,groen,images/br_groen.png,images/cb_groen.png,0,,,,,,,,,,,,,,,,,,,,,,
,,,,,00020,2023-08-21_11h27.03.198,vbt_B1_day4,2022.2.4,MacIntel,60.0024001,,,,,,down,0,0.0841,,0.04364624,-0.108266398,1,0,0,0,7,7,28,1,stal,images/br_stal.png,images/cb_stal.png,0,,,,,,,,,,,,,,,,,,,,,,
,,,,,00020,2023-08-21_11h27.03.198,vbt_B1_day4,2022.2.4,MacIntel,60.0024001,,,,,,down,0,0.0868,,0.04364624,-0.108266398,1,0,0,0,8,8,41,1,maken,images/br_maken.png,images/cb_maken.png,0,,,,,,,,,,,,,,,,,,,,,,
,,,,,00020,2023-08-21_11h27.03.198,vbt_B1_day4,2022.2.4,MacIntel,60.0024001,,,,,,down,0,0.0508,,0.04364624,-0.108266398,1,0,0,0,9,9,40,1,schep,images/br_schep.png,images/cb_schep.png,0,,,,,,,,,,,,,,,,,,,,,,
,,,,,00020,2023-08-21_11h27.03.198,vbt_B1_day4,2022.2.4,MacIntel,60.0024001,,,,,,down,0,0.9506,,0.04364624,-0.108266398,1,0,0,0,10,10,80,1,kanjer,images/br_kanjer.png,images/cb_kanjer.png,0,,,,,,,,,,,,,,,,,,,,,,
,,,,,00020,2023-08-21_11h27.03.198,vbt_B1_day4,2022.2.4,MacIntel,60.0024001,,,,,,down,0,0.8334,,0.04364624,-0.108266398,1,0,0,0,11,11,68,1,schat,images/br_schat.png,images/cb_schat.png,0,,,,,,,,,,,,,,,,,,,,,,
,,,,,00020,2023-08-21_11h27.03.198,vbt_B1_day4,2022.2.4,MacIntel,60.0024001,,,,,,down,0,1.9335,,0.04364624,-0.108266398,1,0,0,0,12,12,95,1,vreten,images/br_vreten.png,images/cb_vreten.png,0,,,,,,,,,,,,,,,,,,,,,,
,,,,,00020,2023-08-21_11h27.03.198,vbt_B1_day4,2022.2.4,MacIntel,60.0024001,,,,,,down,0,4.7999,,0.04364624,-0.108266398,1,0,0,0,13,13,60,1,jasje,images/br_jasje.png,images/cb_jasje.png,0,,,,,,,,,,,,,,,,,,,,,,
,,,,,00020,2023-08-21_11h27.03.198,vbt_B1_day4,2022.2.4,MacIntel,60.0024001,,,,,,down,0,0.3503,,0.04364624,-0.11392551,1,0,0,0,14,14,164,1,anarchie,images/br_anarchie.png,images/cb_anarchie.png,0,,,,,,,,,,,,,,,,,,,,,,
,,,,,00020,2023-08-21_11h27.03.198,vbt_B1_day4,2022.2.4,MacIntel,60.0024001,,,,,,down,0,0.1503,,0.04364624,-0.11392551,1,0,0,0,15,15,101,1,staren,images/br_staren.png,images/cb_staren.png,0,,,,,,,,,,,,,,,,,,,,,,
,,,,,00020,2023-08-21_11h27.03.198,vbt_B1_day4,2022.2.4,MacIntel,60.0024001,,,,,,down,0,3.4512,,0.04364624,-0.11392551,1,0,0,0,16,16,157,1,uitlaat,images/br_uitlaat.png,images/cb_uitlaat.png,0,,,,,,,,,,,,,,,,,,,,,,
,,,,,00020,2023-08-21_11h27.03.198,vbt_B1_day4,2022.2.4,MacIntel,60.0024001,,,,,,down,0,5.017,,0.04364624,-0.11392551,1,0,0,0,17,17,183,1,getuigen,images/br_getuigen.png,images/cb_getuigen.png,0,,,,,,,,,,,,,,,,,,,,,,
,,,,,00020,2023-08-21_11h27.03.198,vbt_B1_day4,2022.2.4,MacIntel,60.0024001,,,,,,down,0,1.8179,,0.04364624,-0.11392551,1,0,0,0,18,18,120,1,klimmen,images/br_klimmen.png,images/cb_klimmen.png,0,,,,,,,,,,,,,,,,,,,,,,
,,,,,00020,2023-08-21_11h27.03.198,vbt_B1_day4,2022.2.4,MacIntel,60.0024001,,,,,,down,0,2.0047,,0.04364624,-0.11392551,1,0,0,0,19,19,175,1,heengaan,images/br_heengaan.png,images/cb_heengaan.png,0,,,,,,,,,,,,,,,,,,,,,,
,,,,,00020,2023-08-21_11h27.03.198,vbt_B1_day4,2022.2.4,MacIntel,60.0024001,,,,,,down,0,0.9713,,0.04364624,-0.11392551,1,0,0,0,20,20,62,1,knaap,images/br_knaap.png,images/cb_knaap.png,0,,,,,,,,,,,,,,,,,,,,,,
,,,,,00020,2023-08-21_11h27.03.198,vbt_B1_day4,2022.2.4,MacIntel,60.0024001,,,,,,down,0,2.1837,,0.04364624,-0.11392551,1,0,0,0,21,21,182,1,bijkomen,images/br_bijkomen.png,images/cb_bijkomen.png,0,,,,,,,,,,,,,,,,,,,,,,
,,,,,00020,2023-08-21_11h27.03.198,vbt_B1_day4,2022.2.4,MacIntel,60.0024001,,,,,,down,0,0.6167,,0.04364624,-0.11392551,1,0,0,0,22,22,22,1,stof,images/br_stof.png,images/cb_stof.png,0,,,,,,,,,,,,,,,,,,,,,,
,,,,,00020,2023-08-21_11h27.03.198,vbt_B1_day4,2022.2.4,MacIntel,60.0024001,,,,,,down,0,0.6161,,0.04364624,-0.11392551,1,0,0,0,23,23,134,1,geliefd,images/br_geliefd.png,images/cb_geliefd.png,0,,,,,,,,,,,,,,,,,,,,,,
,,,,,00020,2023-08-21_11h27.03.198,vbt_B1_day4,2022.2.4,MacIntel,60.0024001,,,,,,down,0,0.8507,,0.04364624,-0.11392551,1,0,0,0,24,24,177,1,maaltijd,images/br_maaltijd.png,images/cb_maaltijd.png,0,,,,,,,,,,,,,,,,,,,,,,
,,,,,00020,2023-08-21_11h27.03.198,vbt_B1_day4,2022.2.4,MacIntel,60.0024001,,,,,,down,0,1.4506,,0.04364624,-0.11392551,1,0,0,0,25,25,152,1,afnemen,images/br_afnemen.png,images/cb_afnemen.png,0,,,,,,,,,,,,,,,,,,,,,,
,,,,,00020,2023-08-21_11h27.03.198,vbt_B1_day4,2022.2.4,MacIntel,60.0024001,,,,,,down,0,0.6158,,0.04364624,-0.11392551,1,0,0,0,26,26,149,1,redding,images/br_redding.png,images/cb_redding.png,0,,,,,,,,,,,,,,,,,,,,,,
,,,,,00020,2023-08-21_11h27.03.198,vbt_B1_day4,2022.2.4,MacIntel,60.0024001,,,,,,down,0,0.4673,,0.04364624,-0.11392551,1,0,0,0,27,27,150,1,gegeven,images/br_gegeven.png,images/cb_gegeven.png,0,,,,,,,,,,,,,,,,,,,,,,
,,,,,00020,2023-08-21_11h27.03.198,vbt_B1_day4,2022.2.4,MacIntel,60.0024001,,,,,,down,0,0.1509,,0.04364624,-0.11392551,1,0,0,0,28,28,18,1,blik,images/br_blik.png,images/cb_blik.png,0,,,,,,,,,,,,,,,,,,,,,,
,,,,,00020,2023-08-21_11h27.03.198,vbt_B1_day4,2022.2.4,MacIntel,60.0024001,,,,,,down,0,19.0508,,0.04364624,-0.11392551,1,0,0,0,29,29,5,1,blad,images/br_blad.png,images/cb_blad.png,0,,,,,,,,,,,,,,,,,,,,,,
,,,,,00020,2023-08-21_11h27.03.198,vbt_B1_day4,2022.2.4,MacIntel,60.0024001,,,,,,down,0,8.5504,,0.04364624,-0.11392551,1,0,0,0,30,30,174,1,stemming,images/br_stemming.png,images/cb_stemming.png,0,,,,,,,,,,,,,,,,,,,,,,
,,,,,00020,2023-08-21_11h27.03.198,vbt_B1_day4,2022.2.4,MacIntel,60.0024001,,,,,,down,0,1.7679,,0.04364624,-0.11392551,1,0,0,0,31,31,0,1,slak,images/br_slak.png,images/cb_slak.png,0,,,,,,,,,,,,,,,,,,,,,,
,,,,,00020,2023-08-21_11h27.03.198,vbt_B1_day4,2022.2.4,MacIntel,60.0024001,,,,,,down,0,0.0515,,0.04364624,-0.11392551,1,0,0,0,32,32,58,1,tekst,images/br_tekst.png,images/cb_tekst.png,0,,,,,,,,,,,,,,,,,,,,,,
,,,,,00020,2023-08-21_11h27.03.198,vbt_B1_day4,2022.2.4,MacIntel,60.0024001,,,,,,down,0,0.3005,,0.04364624,-0.11392551,1,0,0,0,33,33,33,1,vlek,images/br_vlek.png,images/cb_vlek.png,0,,,,,,,,,,,,,,,,,,,,,,
,,,,,00020,2023-08-21_11h27.03.198,vbt_B1_day4,2022.2.4,MacIntel,60.0024001,,,,,,down,0,0.3663,,0.04364624,-0.11392551,1,0,0,0,34,34,49,1,laken,images/br_laken.png,images/cb_laken.png,0,,,,,,,,,,,,,,,,,,,,,,
,,,,,00020,2023-08-21_11h27.03.198,vbt_B1_day4,2022.2.4,MacIntel,60.0024001,,,,,,down,0,1.3683,,0.04364624,-0.11392551,1,0,0,0,35,35,131,1,opzicht,images/br_opzicht.png,images/cb_opzicht.png,0,,,,,,,,,,,,,,,,,,,,,,
,,,,,00020,2023-08-21_11h27.03.198,vbt_B1_day4,2022.2.4,MacIntel,60.0024001,,,,,,down,0,0.1175,,0.04364624,-0.11392551,1,0,0,0,36,36,160,1,daarheen,images/br_daarheen.png,images/cb_daarheen.png,0,,,,,,,,,,,,,,,,,,,,,,
,,,,,00020,2023-08-21_11h27.03.198,vbt_B1_day4,2022.2.4,MacIntel,60.0024001,,,,,,down,0,0.4175,,0.04364624,-0.11392551,1,0,0,0,37,37,98,1,kreeft,images/br_kreeft.png,images/cb_kreeft.png,0,,,,,,,,,,,,,,,,,,,,,,
,,,,,00020,2023-08-21_11h27.03.198,vbt_B1_day4,2022.2.4,MacIntel,60.0024001,,,,,,down,0,0.9181,,0.04364624,-0.11392551,1,0,0,0,38,38,27,1,dans,images/br_dans.png,images/cb_dans.png,1,dans,,,,,,,,,,,,,,,,,,,,,
,,,,,00020,2023-08-21_11h27.03.198,vbt_B1_day4,2022.2.4,MacIntel,60.0024001,,,,,,down,0,7.5504,,0.04364624,-0.11392551,1,0,0,0,39,39,79,1,nodig,images/br_nodig.png,images/cb_nodig.png,0,,,,,,,,,,,,,,,,,,,,,,
,,,,,00020,2023-08-21_11h27.03.198,vbt_B1_day4,2022.2.4,MacIntel,60.0024001,,,,,,down,0,0.47,,0.04364624,-0.11392551,1,0,0,0,40,40,126,1,kasteel,images/br_kasteel.png,images/cb_kasteel.png,0,,,,,,,,,,,,,,,,,,,,,,
,,,,,00020,2023-08-21_11h27.03.198,vbt_B1_day4,2022.2.4,MacIntel,60.0024001,,,,,,down,0,0.3509,,0.04364624,-0.11392551,1,0,0,0,41,41,72,1,strak,images/br_strak.png,images/cb_strak.png,0,,,,,,,,,,,,,,,,,,,,,,
,,,,,00020,2023-08-21_11h27.03.198,vbt_B1_day4,2022.2.4,MacIntel,60.0024001,,,,,,down,0,0.9005,,0.04364624,-0.11392551,1,0,0,0,42,42,78,1,leren,images/br_leren.png,images/cb_leren.png,0,,,,,,,,,,,,,,,,,,,,,,
,,,,,00020,2023-08-21_11h27.03.198,vbt_B1_day4,2022.2.4,MacIntel,60.0024001,,,,,,down,0,0.2008,,0.04364624,-0.11392551,1,0,0,0,43,43,163,1,schuilen,images/br_schuilen.png,images/cb_schuilen.png,0,,,,,,,,,,,,,,,,,,,,,,
,,,,,00020,2023-08-21_11h27.03.198,vbt_B1_day4,2022.2.4,MacIntel,60.0024001,,,,,,down,0,0.6499,,0.04364624,-0.11392551,1,0,0,0,44,44,158,1,innemen,images/br_innemen.png,images/cb_innemen.png,0,,,,,,,,,,,,,,,,,,,,,,
,,,,,00020,2023-08-21_11h27.03.198,vbt_B1_day4,2022.2.4,MacIntel,60.0024001,,,,,,down,0,0.3524,,0.04364624,-0.11392551,1,0,0,0,45,45,136,1,waarbij,images/br_waarbij.png,images/cb_waarbij.png,0,,,,,,,,,,,,,,,,,,,,,,
,,,,,00020,2023-08-21_11h27.03.198,vbt_B1_day4,2022.2.4,MacIntel,60.0024001,,,,,,down,0,13.1526,,0.04364624,-0.11392551,1,0,0,0,46,46,185,1,mijnheer,images/br_mijnheer.png,images/cb_mijnheer.png,1,mijnheer,,,,,,,,,,,,,,,,,,,,,
,,,,,00020,2023-08-21_11h27.03.198,vbt_B1_day4,2022.2.4,MacIntel,60.0024001,,,,,,down,0,0.1666,,0.04364624,-0.11392551,1,0,0,0,47,47,53,1,baron,images/br_baron.png,images/cb_baron.png,0,,,,,,,,,,,,,,,,,,,,,,
,,,,,00020,2023-08-21_11h27.03.198,vbt_B1_day4,2022.2.4,MacIntel,60.0024001,,,,,,down,0,0.2678,,0.04364624,-0.11392551,1,0,0,0,48,48,34,1,vorm,images/br_vorm.png,images/cb_vorm.png,0,,,,,,,,,,,,,,,,,,,,,,
,,,,,00020,2023-08-21_11h27.03.198,vbt_B1_day4,2022.2.4,MacIntel,60.0024001,,,,,,down,0,0.9688,,0.04364624,-0.11392551,1,0,0,0,49,49,109,1,totaal,images/br_totaal.png,images/cb_totaal.png,0,,,,,,,,,,,,,,,,,,,,,,
,,,,,00020,2023-08-21_11h27.03.198,vbt_B1_day4,2022.2.4,MacIntel,60.0024001,,,,,,down,0,0.6627,,0.04364624,-0.11392551,1,0,0,0,50,50,65,1,parel,images/br_parel.png,images/cb_parel.png,1,parel,,,,,,,,,,,,,,,,,,,,,
,,,,,00020,2023-08-21_11h27.03.198,vbt_B1_day4,2022.2.4,MacIntel,60.0024001,,,,,,down,0,0.0006,,0.04364624,-0.11392551,1,0,0,0,51,51,25,1,plek,images/br_plek.png,images/cb_plek.png,1,plek,,,,,,,,,,,,,,,,,,,,,
,,,,,00020,2023-08-21_11h27.03.198,vbt_B1_day4,2022.2.4,MacIntel,60.0024001,,,,,,down,0,0.2519,,0.04364624,-0.11392551,1,0,0,0,52,52,90,1,geluid,images/br_geluid.png,images/cb_geluid.png,0,,,,,,,,,,,,,,,,,,,,,,
,,,,,00020,2023-08-21_11h27.03.198,vbt_B1_day4,2022.2.4,MacIntel,60.0024001,,,,,,down,0,0.7835,,0.04364624,-0.11392551,1,0,0,0,53,53,188,1,strekken,images/br_strekken.png,images/cb_strekken.png,0,,,,,,,,,,,,,,,,,,,,,,
,,,,,00020,2023-08-21_11h27.03.198,vbt_B1_day4,2022.2.4,MacIntel,60.0024001,,,,,,down,0,0.7172,,0.04364624,-0.11392551,1,0,0,0,54,54,51,1,samen,images/br_samen.png,images/cb_samen.png,0,,,,,,,,,,,,,,,,,,,,,,
,,,,,00020,2023-08-21_11h27.03.198,vbt_B1_day4,2022.2.4,MacIntel,60.0024001,,,,,,down,0,1.0337,,0.04364624,-0.11392551,1,0,0,0,55,55,173,1,apparaat,images/br_apparaat.png,images/cb_apparaat.png,0,,,,,,,,,,,,,,,,,,,,,,
,,,,,00020,2023-08-21_11h27.03.198,vbt_B1_day4,2022.2.4,MacIntel,60.0024001,,,,,,down,0,2.0325,,0.04364624,-0.11392551,1,0,0,0,56,56,82,1,muziek,images/br_muziek.png,images/cb_muziek.png,0,,,,,,,,,,,,,,,,,,,,,,
,,,,,00020,2023-08-21_11h27.03.198,vbt_B1_day4,2022.2.4,MacIntel,60.0024001,,,,,,down,0,0.5339,,0.04364624,-0.11392551,1,0,0,0,57,57,117,1,kennis,images/br_kennis.png,images/cb_kennis.png,0,,,,,,,,,,,,,,,,,,,,,,
,,,,,00020,2023-08-21_11h27.03.198,vbt_B1_day4,2022.2.4,MacIntel,60.0024001,,,,,,down,0,0.2351,,0.04364624,-0.11392551,1,0,0,0,58,58,96,1,slagen,images/br_slagen.png,images/cb_slagen.png,0,,,,,,,,,,,,,,,,,,,,,,
,,,,,00020,2023-08-21_11h27.03.198,vbt_B1_day4,2022.2.4,MacIntel,60.0024001,,,,,,down,0,2.8171,,0.04364624,-0.11392551,1,0,0,0,59,59,162,1,uitdelen,images/br_uitdelen.png,images/cb_uitdelen.png,0,,,,,,,,,,,,,,,,,,,,,,
,,,,,00020,2023-08-21_11h27.03.198,vbt_B1_day4,2022.2.4,MacIntel,60.0024001,,,,,,down,0,1.2351,,0.04364624,-0.11392551,1,0,0,0,60,60,16,1,ziek,images/br_ziek.png,images/cb_ziek.png,0,,,,,,,,,,,,,,,,,,,,,,
,,,,,00020,2023-08-21_11h27.03.198,vbt_B1_day4,2022.2.4,MacIntel,60.0024001,,,,,,down,0,1.1293,,0.04364624,-0.11392551,1,0,0,0,61,61,154,1,aflopen,images/br_aflopen.png,images/cb_aflopen.png,0,,,,,,,,,,,,,,,,,,,,,,
,,,,,00020,2023-08-21_11h27.03.198,vbt_B1_day4,2022.2.4,MacIntel,60.0024001,,,,,,down,0,1.0009,,0.04364624,-0.11392551,1,0,0,0,62,62,31,1,poes,images/br_poes.png,images/cb_poes.png,0,,,,,,,,,,,,,,,,,,,,,,
,,,,,00020,2023-08-21_11h27.03.198,vbt_B1_day4,2022.2.4,MacIntel,60.0024001,,,,,,down,0,0.2666,,0.04364624,-0.11392551,1,0,0,0,63,63,138,1,akkoord,images/br_akkoord.png,images/cb_akkoord.png,0,,,,,,,,,,,,,,,,,,,,,,
,,,,,00020,2023-08-21_11h27.03.198,vbt_B1_day4,2022.2.4,MacIntel,60.0024001,,,,,,down,0,0.3016,,0.04364624,-0.11392551,1,0,0,0,64,64,191,1,opheffen,images/br_opheffen.png,images/cb_opheffen.png,0,,,,,,,,,,,,,,,,,,,,,,
,,,,,00020,2023-08-21_11h27.03.198,vbt_B1_day4,2022.2.4,MacIntel,60.0024001,,,,,,down,0,3.451,,0.04364624,-0.11392551,1,0,0,0,65,65,87,1,toeval,images/br_toeval.png,images/cb_toeval.png,0,,,,,,,,,,,,,,,,,,,,,,
,,,,,00020,2023-08-21_11h27.03.198,vbt_B1_day4,2022.2.4,MacIntel,60.0024001,,,,,,down,0,2.084,,0.04364624,-0.11392551,1,0,0,0,66,66,192,1,schaamte,images/br_schaamte.png,images/cb_schaamte.png,0,,,,,,,,,,,,,,,,,,,,,,
,,,,,00020,2023-08-21_11h27.03.198,vbt_B1_day4,2022.2.4,MacIntel,60.0024001,,,,,,down,0,8.5658,,-0.060622355,-0.294700928,1,0,0,0,67,67,145,1,invloed,images/br_invloed.png,images/cb_invloed.png,1,invloed,,,,,,,,,,,,,,,,,,,,,
,,,,,00020,2023-08-21_11h27.03.198,vbt_B1_day4,2022.2.4,MacIntel,60.0024001,,,,,,down,0,0.0171,,-0.060622355,-0.294700928,1,0,0,0,68,68,148,1,smullen,images/br_smullen.png,images/cb_smullen.png,0,,,,,,,,,,,,,,,,,,,,,,
,,,,,00020,2023-08-21_11h27.03.198,vbt_B1_day4,2022.2.4,MacIntel,60.0024001,,,,,,down,0,1.1016,,0.176321682,-0.152812771,1,0,0,0,69,69,186,1,voorraad,images/br_voorraad.png,images/cb_voorraad.png,1,voorraad,,,,,,,,,,,,,,,,,,,,,
,,,,,00020,2023-08-21_11h27.03.198,vbt_B1_day4,2022.2.4,MacIntel,60.0024001,,,,,,down,0,0.2336,,0.176321682,-0.152812771,1,0,0,0,70,70,91,1,gezond,images/br_gezond.png,images/cb_gezond.png,0,,,,,,,,,,,,,,,,,,,,,,
,,,,,00020,2023-08-21_11h27.03.198,vbt_B1_day4,2022.2.4,MacIntel,60.0024001,,,,,,down,0,0.3503,,0.176321682,-0.152812771,1,0,0,0,71,71,11,1,mode,images/br_mode.png,images/cb_mode.png,0,,,,,,,,,,,,,,,,,,,,,,
,,,,,00020,2023-08-21_11h27.03.198,vbt_B1_day4,2022.2.4,MacIntel,60.0024001,,,,,,down,0,1.4174,,0.176321682,-0.152812771,1,0,0,0,72,72,24,1,jurk,images/br_jurk.png,images/cb_jurk.png,1,jurk,,,,,,,,,,,,,,,,,,,,,
,,,,,00020,2023-08-21_11h27.03.198,vbt_B1_day4,2022.2.4,MacIntel,60.0024001,,,,,,down,0,1.6505,,0.176321682,-0.152812771,1,0,0,0,73,73,70,1,ijdel,images/br_ijdel.png,images/cb_ijdel.png,0,,,,,,,,,,,,,,,,,,,,,,
,,,,,00020,2023-08-21_11h27.03.198,vbt_B1_day4,2022.2.4,MacIntel,60.0024001,,,,,,down,0,0.2004,,0.176321682,-0.152812771,1,0,0,0,74,74,89,1,slapen,images/br_slapen.png,images/cb_slapen.png,0,,,,,,,,,,,,,,,,,,,,,,
,,,,,00020,2023-08-21_11h27.03.198,vbt_B1_day4,2022.2.4,MacIntel,60.0024001,,,,,,down,0,0.0884,,0.176321682,-0.152812771,1,0,0,0,75,75,15,1,soda,images/br_soda.png,images/cb_soda.png,0,,,,,,,,,,,,,,,,,,,,,,
,,,,,00020,2023-08-21_11h27.03.198,vbt_B1_day4,2022.2.4,MacIntel,60.0024001,,,,,,down,0,3.0005,,0.176321682,-0.152812771,1,0,0,0,76,76,123,1,hiervan,images/br_hiervan.png,images/cb_hiervan.png,0,,,,,,,,,,,,,,,,,,,,,,
,,,,,00020,2023-08-21_11h27.03.198,vbt_B1_day4,2022.2.4,MacIntel,60.0024001,,,,,,down,0,0.7345,,0.176321682,-0.152812771,1,0,0,0,77,77,193,1,weeshuis,images/br_weeshuis.png,images/cb_weeshuis.png,0,,,,,,,,,,,,,,,,,,,,,,
,,,,,00020,2023-08-21_11h27.03.198,vbt_B1_day4,2022.2.4,MacIntel,60.0024001,,,,,,down,0,0.7338,,0.176321682,-0.152812771,1,0,0,0,78,78,137,1,trekker,images/br_trekker.png,images/cb_trekker.png,0,,,,,,,,,,,,,,,,,,,,,,
,,,,,00020,2023-08-21_11h27.03.198,vbt_B1_day4,2022.2.4,MacIntel,60.0024001,,,,,,down,0,1.1835,,0.176321682,-0.152812771,1,0,0,0,79,79,93,1,waarop,images/br_waarop.png,images/cb_waarop.png,0,,,,,,,,,,,,,,,,,,,,,,
,,,,,00020,2023-08-21_11h27.03.198,vbt_B1_day4,2022.2.4,MacIntel,60.0024001,,,,,,down,0,3.2883,,0.176321682,-0.152812771,1,0,0,0,80,80,94,1,oceaan,images/br_oceaan.png,images/cb_oceaan.png,0,,,,,,,,,,,,,,,,,,,,,,
,,,,,00020,2023-08-21_11h27.03.198,vbt_B1_day4,2022.2.4,MacIntel,60.0024001,,,,,,down,0,2.6516,,0.176321682,-0.152812771,1,0,0,0,81,81,156,1,rechten,images/br_rechten.png,images/cb_rechten.png,0,,,,,,,,,,,,,,,,,,,,,,
,,,,,00020,2023-08-21_11h27.03.198,vbt_B1_day4,2022.2.4,MacIntel,60.0024001,,,,,,down,0,0.017,,0.176321682,-0.152812771,1,0,0,0,82,82,169,1,oprotten,images/br_oprotten.png,images/cb_oprotten.png,0,,,,,,,,,,,,,,,,,,,,,,
,,,,,00020,2023-08-21_11h27.03.198,vbt_B1_day4,2022.2.4,MacIntel,60.0024001,,,,,,down,0,1.0877,,0.176321682,-0.152812771,1,0,0,0,83,83,179,1,woestijn,images/br_woestijn.png,images/cb_woestijn.png,0,,,,,,,,,,,,,,,,,,,,,,
,,,,,00020,2023-08-21_11h27.03.198,vbt_B1_day4,2022.2.4,MacIntel,60.0024001,,,,,,down,0,0.3192,,0.176321682,-0.152812771,1,0,0,0,84,84,55,1,praat,images/br_praat.png,images/cb_praat.png,0,,,,,,,,,,,,,,,,,,,,,,
,,,,,00020,2023-08-21_11h27.03.198,vbt_B1_day4,2022.2.4,MacIntel,60.0024001,,,,,,down,0,3.189,,0.176321682,-0.152812771,1,0,0,0,85,85,194,1,driemaal,images/br_driemaal.png,images/cb_driemaal.png,0,,,,,,,,,,,,,,,,,,,,,,
,,,,,00020,2023-08-21_11h27.03.198,vbt_B1_day4,2022.2.4,MacIntel,60.0024001,,,,,,down,0,1.1834,,0.224875014,-0.101047635,1,0,0,0,86,86,196,1,nakijken,images/br_nakijken.png,images/cb_nakijken.png,0,,,,,,,,,,,,,,,,,,,,,,
,,,,,00020,2023-08-21_11h27.03.198,vbt_B1_day4,2022.2.4,MacIntel,60.0024001,,,,,,down,0,1.417,,0.224875014,-0.101047635,1,0,0,0,87,87,108,1,excuus,images/br_excuus.png,images/cb_excuus.png,0,,,,,,,,,,,,,,,,,,,,,,
,,,,,00020,2023-08-21_11h27.03.198,vbt_B1_day4,2022.2.4,MacIntel,60.0024001,,,,,,down,0,0.1036,,0.224875014,-0.101047635,1,0,0,0,88,88,9,1,hier,images/br_hier.png,images/cb_hier.png,0,,,,,,,,,,,,,,,,,,,,,,
,,,,,00020,2023-08-21_11h27.03.198,vbt_B1_day4,2022.2.4,MacIntel,60.0024001,,,,,,down,0,0.7208,,0.224875014,-0.101047635,1,0,0,0,89,89,44,1,flits,images/br_flits.png,images/cb_flits.png,0,,,,,,,,,,,,,,,,,,,,,,
,,,,,00020,2023-08-21_11h27.03.198,vbt_B1_day4,2022.2.4,MacIntel,60.0024001,,,,,,down,0,0.7044,,0.224875014,-0.101047635,1,0,0,0,90,90,30,1,uien,images/br_uien.png,images/cb_uien.png,0,,,,,,,,,,,,,,,,,,,,,,
,,,,,00020,2023-08-21_11h27.03.198,vbt_B1_day4,2022.2.4,MacIntel,60.0024001,,,,,,down,0,0.5835,,0.224875014,-0.101047635,1,0,0,0,91,91,135,1,gedicht,images/br_gedicht.png,images/cb_gedicht.png,0,,,,,,,,,,,,,,,,,,,,,,
,,,,,00020,2023-08-21_11h27.03.198,vbt_B1_day4,2022.2.4,MacIntel,60.0024001,,,,,,down,0,0.7347,,0.224875014,-0.101047635,1,0,0,0,92,92,1,1,zaal,images/br_zaal.png,images/cb_zaal.png,0,,,,,,,,,,,,,,,,,,,,,,
,,,,,00020,2023-08-21_11h27.03.198,vbt_B1_day4,2022.2.4,MacIntel,60.0024001,,,,,,down,0,0.0006,,0.224875014,-0.101047635,1,0,0,0,93,93,74,1,graaf,images/br_graaf.png,images/cb_graaf.png,0,,,,,,,,,,,,,,,,,,,,,,
,,,,,00020,2023-08-21_11h27.03.198,vbt_B1_day4,2022.2.4,MacIntel,60.0024001,,,,,,down,0,0.3343,,0.224875014,-0.101047635,1,0,0,0,94,94,21,1,mist,images/br_mist.png,images/cb_mist.png,0,,,,,,,,,,,,,,,,,,,,,,
,,,,,00020,2023-08-21_11h27.03.198,vbt_B1_day4,2022.2.4,MacIntel,60.0024001,,,,,,down,0,2.4041,,0.224875014,-0.101047635,1,0,0,0,95,95,190,1,goedkoop,images/br_goedkoop.png,images/cb_goedkoop.png,0,,,,,,,,,,,,,,,,,,,,,,
,,,,,00020,2023-08-21_11h27.03.198,vbt_B1_day4,2022.2.4,MacIntel,60.0024001,,,,,,down,0,0.5344,,0.224875014,-0.101047635,1,0,0,0,96,96,2,1,jaar,images/br_jaar.png,images/cb_jaar.png,0,,,,,,,,,,,,,,,,,,,,,,
,,,,,00020,2023-08-21_11h27.03.198,vbt_B1_day4,2022.2.4,MacIntel,60.0024001,,,,,,down,0,0.3062,,0.224875014,-0.101047635,1,0,0,0,97,97,140,1,blijven,images/br_blijven.png,images/cb_blijven.png,0,,,,,,,,,,,,,,,,,,,,,,
,,,,,00020,2023-08-21_11h27.03.198,vbt_B1_day4,2022.2.4,MacIntel,60.0024001,,,,,,down,0,0.4339,,0.224875014,-0.101047635,1,0,0,0,98,98,142,1,snuiven,images/br_snuiven.png,images/cb_snuiven.png,0,,,,,,,,,,,,,,,,,,,,,,
,,,,,00020,2023-08-21_11h27.03.198,vbt_B1_day4,2022.2.4,MacIntel,60.0024001,,,,,,down,0,5.3531,,0.224875014,-0.101047635,1,0,0,0,99,99,85,1,heilig,images/br_heilig.png,images/cb_heilig.png,0,,,,,,,,,,,,,,,,,,,,,,
,,,,,00020,2023-08-21_11h27.03.198,vbt_B1_day4,2022.2.4,MacIntel,60.0024001,,,,,,down,0,0.1349,,0.224875014,-0.101047635,1,0,0,0,100,100,52,1,wagon,images/br_wagon.png,images/cb_wagon.png,0,,,,,,,,,,,,,,,,,,,,,,
,,,,,00020,2023-08-21_11h27.03.198,vbt_B1_day4,2022.2.4,MacIntel,60.0024001,,,,,,down,0,0.7505,,0.224875014,-0.101047635,1,0,0,0,101,101,59,1,kring,images/br_kring.png,images/cb_kring.png,0,,,,,,,,,,,,,,,,,,,,,,
,,,,,00020,2023-08-21_11h27.03.198,vbt_B1_day4,2022.2.4,MacIntel,60.0024001,,,,,,down,0,1.2842,,0.224875014,-0.101047635,1,0,0,0,102,102,63,1,flirt,images/br_flirt.png,images/cb_flirt.png,0,,,,,,,,,,,,,,,,,,,,,,
,,,,,00020,2023-08-21_11h27.03.198,vbt_B1_day4,2022.2.4,MacIntel,60.0024001,,,,,,down,0,6.6501,,0.224875014,-0.101047635,1,0,0,0,103,103,111,1,ticket,images/br_ticket.png,images/cb_ticket.png,0,,,,,,,,,,,,,,,,,,,,,,
,,,,,00020,2023-08-21_11h27.03.198,vbt_B1_day4,2022.2.4,MacIntel,60.0024001,,,,,,down,0,0.5346,,0.224875014,-0.101047635,1,0,0,0,104,104,56,1,traag,images/br_traag.png,images/cb_traag.png,0,,,,,,,,,,,,,,,,,,,,,,
,,,,,00020,2023-08-21_11h27.03.198,vbt_B1_day4,2022.2.4,MacIntel,60.0024001,,,,,,down,0,3.4842,,0.224875014,-0.101047635,1,0,0,0,105,105,199,1,beseffen,images/br_beseffen.png,images/cb_beseffen.png,0,,,,,,,,,,,,,,,,,,,,,,
,,,,,00020,2023-08-21_11h27.03.198,vbt_B1_day4,2022.2.4,MacIntel,60.0024001,,,,,,down,0,0.4672,,0.224875014,-0.101047635,1,0,0,0,106,106,3,1,mand,images/br_mand.png,images/cb_mand.png,0,,,,,,,,,,,,,,,,,,,,,,
,,,,,00020,2023-08-21_11h27.03.198,vbt_B1_day4,2022.2.4,MacIntel,60.0024001,,,,,,down,0,1.0021,,0.224875014,-0.101047635,1,0,0,0,107,107,133,1,seizoen,images/br_seizoen.png,images/cb_seizoen.png,0,,,,,,,,,,,,,,,,,,,,,,
,,,,,00020,2023-08-21_11h27.03.198,vbt_B1_day4,2022.2.4,MacIntel,60.0024001,,,,,,down,0,4.9665,,0.224875014,-0.101047635,1,0,0,0,108,108,184,1,aandelen,images/br_aandelen.png,images/cb_aandelen.png,1,aandelen,,,,,,,,,,,,,,,,,,,,,
,,,,,00020,2023-08-21_11h27.03.198,vbt_B1_day4,2022.2.4,MacIntel,60.0024001,,,,,,down,0,0.0683,,0.224875014,-0.101047635,1,0,0,0,109,109,124,1,bloeien,images/br_bloeien.png,images/cb_bloeien.png,0,,,,,,,,,,,,,,,,,,,,,,
,,,,,00020,2023-08-21_11h27.03.198,vbt_B1_day4,2022.2.4,MacIntel,60.0024001,,,,,,down,0,0.4188,,0.224875014,-0.101047635,1,0,0,0,110,110,128,1,prikken,images/br_prikken.png,images/cb_prikken.png,0,,,,,,,,,,,,,,,,,,,,,,
,,,,,00020,2023-08-21_11h27.03.198,vbt_B1_day4,2022.2.4,MacIntel,60.0024001,,,,,,down,0,1.0169,,0.224875014,-0.101047635,1,0,0,0,111,111,8,1,knie,images/br_knie.png,images/cb_knie.png,0,,,,,,,,,,,,,,,,,,,,,,
,,,,,00020,2023-08-21_11h27.03.198,vbt_B1_day4,2022.2.4,MacIntel,60.0024001,,,,,,down,0,0.3213,,0.224875014,-0.101047635,1,0,0,0,112,112,50,1,stoom,images/br_stoom.png,images/cb_stoom.png,0,,,,,,,,,,,,,,,,,,,,,,
,,,,,00020,2023-08-21_11h27.03.198,vbt_B1_day4,2022.2.4,MacIntel,60.0024001,,,,,,down,0,8.6842,,0.224875014,-0.101047635,1,0,0,0,113,113,159,1,sufferd,images/br_sufferd.png,images/cb_sufferd.png,0,,,,,,,,,,,,,,,,,,,,,,
,,,,,00020,2023-08-21_11h27.03.198,vbt_B1_day4,2022.2.4,MacIntel,60.0024001,,,,,,down,0,2.8003,,0.224875014,-0.101047635,1,0,0,0,114,114,105,1,wijlen,images/br_wijlen.png,images/cb_wijlen.png,1,wijlen,,,,,,,,,,,,,,,,,,,,,
,,,,,00020,2023-08-21_11h27.03.198,vbt_B1_day4,2022.2.4,MacIntel,60.0024001,,,,,,down,0,0.3382,,0.224875014,-0.101047635,1,0,0,0,115,115,43,1,klauw,images/br_klauw.png,images/cb_klauw.png,0,,,,,,,,,,,,,,,,,,,,,,
,,,,,00020,2023-08-21_11h27.03.198,vbt_B1_day4,2022.2.4,MacIntel,60.0024001,,,,,,down,0,0.0552,,0.224875014,-0.101047635,1,0,0,0,116,116,75,1,snoep,images/br_snoep.png,images/cb_snoep.png,0,,,,,,,,,,,,,,,,,,,,,,
,,,,,00020,2023-08-21_11h27.03.198,vbt_B1_day4,2022.2.4,MacIntel,60.0024001,,,,,,down,0,0.1666,,0.224875014,-0.101047635,1,0,0,0,117,117,170,1,schatten,images/br_schatten.png,images/cb_schatten.png,0,,,,,,,,,,,,,,,,,,,,,,
,,,,,00020,2023-08-21_11h27.03.198,vbt_B1_day4,2022.2.4,MacIntel,60.0024001,,,,,,down,0,1.5995,,0.224875014,-0.101047635,1,0,0,0,118,118,106,1,zingen,images/br_zingen.png,images/cb_zingen.png,1,zingen,,,,,,,,,,,,,,,,,,,,,
,,,,,00020,2023-08-21_11h27.03.198,vbt_B1_day4,2022.2.4,MacIntel,60.0024001,,,,,,down,0,0.0833,,0.224875014,-0.101047635,1,0,0,0,119,119,112,1,lukken,images/br_lukken.png,images/cb_lukken.png,0,,,,,,,,,,,,,,,,,,,,,,
,,,,,00020,2023-08-21_11h27.03.198,vbt_B1_day4,2022.2.4,MacIntel,60.0024001,,,,,,down,0,0.9168,,0.224875014,-0.101047635,1,0,0,0,120,120,13,1,kaal,images/br_kaal.png,images/cb_kaal.png,0,,,,,,,,,,,,,,,,,,,,,,
,,,,,00020,2023-08-21_11h27.03.198,vbt_B1_day4,2022.2.4,MacIntel,60.0024001,,,,,,down,0,0.8513,,0.224875014,-0.101047635,1,0,0,0,121,121,155,1,gerucht,images/br_gerucht.png,images/cb_gerucht.png,0,,,,,,,,,,,,,,,,,,,,,,
,,,,,00020,2023-08-21_11h27.03.198,vbt_B1_day4,2022.2.4,MacIntel,60.0024001,,,,,,down,0,2.0202,,0.224875014,-0.101047635,1,0,0,0,122,122,165,1,feestdag,images/br_feestdag.png,images/cb_feestdag.png,0,,,,,,,,,,,,,,,,,,,,,,
,,,,,00020,2023-08-21_11h27.03.198,vbt_B1_day4,2022.2.4,MacIntel,60.0024001,,,,,,down,0,1.0331,,0.224875014,-0.101047635,1,0,0,0,123,123,12,1,kust,images/br_kust.png,images/cb_kust.png,0,,,,,,,,,,,,,,,,,,,,,,
,,,,,00020,2023-08-21_11h27.03.198,vbt_B1_day4,2022.2.4,MacIntel,60.0024001,,,,,,down,0,0.667,,0.224875014,-0.101047635,1,0,0,0,124,124,122,1,waarvan,images/br_waarvan.png,images/cb_waarvan.png,0,,,,,,,,,,,,,,,,,,,,,,
,,,,,00020,2023-08-21_11h27.03.198,vbt_B1_day4,2022.2.4,MacIntel,60.0024001,,,,,,down,0,2.0167,,0.224875014,-0.101047635,1,0,0,0,125,125,6,1,diep,images/br_diep.png,images/cb_diep.png,0,,,,,,,,,,,,,,,,,,,,,,
,,,,,00020,2023-08-21_11h27.03.198,vbt_B1_day4,2022.2.4,MacIntel,60.0024001,,,,,,down,0,2.65,,0.224875014,-0.101047635,1,0,0,0,126,126,7,1,geld,images/br_geld.png,images/cb_geld.png,0,,,,,,,,,,,,,,,,,,,,,,
,,,,,00020,2023-08-21_11h27.03.198,vbt_B1_day4,2022.2.4,MacIntel,60.0024001,,,,,,down,0,1.3831,,0.224875014,-0.101047635,1,0,0,0,127,127,67,1,zwart,images/br_zwart.png,images/cb_zwart.png,1,zwart,,,,,,,,,,,,,,,,,,,,,
,,,,,00020,2023-08-21_11h27.03.198,vbt_B1_day4,2022.2.4,MacIntel,60.0024001,,,,,,down,0,0.2178,,0.224875014,-0.101047635,1,0,0,0,128,128,102,1,legaal,images/br_legaal.png,images/cb_legaal.png,0,,,,,,,,,,,,,,,,,,,,,,
,,,,,00020,2023-08-21_11h27.03.198,vbt_B1_day4,2022.2.4,MacIntel,60.0024001,,,,,,down,0,2.8859,,0.224875014,-0.101047635,1,0,0,0,129,129,23,1,zout,images/br_zout.png,images/cb_zout.png,0,,,,,,,,,,,,,,,,,,,,,,
,,,,,00020,2023-08-21_11h27.03.198,vbt_B1_day4,2022.2.4,MacIntel,60.0024001,,,,,,down,0,1.8503,,0.224875014,-0.101047635,1,0,0,0,130,130,181,1,toegeven,images/br_toegeven.png,images/cb_toegeven.png,0,,,,,,,,,,,,,,,,,,,,,,
,,,,,00020,2023-08-21_11h27.03.198,vbt_B1_day4,2022.2.4,MacIntel,60.0024001,,,,,,down,0,0.5701,,0.224875014,-0.101047635,1,0,0,0,131,131,73,1,volop,images/br_volop.png,images/cb_volop.png,0,,,,,,,,,,,,,,,,,,,,,,
,,,,,00020,2023-08-21_11h27.03.198,vbt_B1_day4,2022.2.4,MacIntel,60.0024001,,,,,,down,0,0.6839,,0.224875014,-0.101047635,1,0,0,0,132,132,4,1,moes,images/br_moes.png,images/cb_moes.png,0,,,,,,,,,,,,,,,,,,,,,,
,,,,,00020,2023-08-21_11h27.03.198,vbt_B1_day4,2022.2.4,MacIntel,60.0024001,,,,,,down,0,0.1344,,0.224875014,-0.101047635,1,0,0,0,133,133,10,1,leek,images/br_leek.png,images/cb_leek.png,0,,,,,,,,,,,,,,,,,,,,,,
,,,,,00020,2023-08-21_11h27.03.198,vbt_B1_day4,2022.2.4,MacIntel,60.0024001,,,,,,down,0,1.2388,,0.224875014,-0.101047635,1,0,0,0,134,134,197,1,spanning,images/br_spanning.png,images/cb_spanning.png,0,,,,,,,,,,,,,,,,,,,,,,
,,,,,00020,2023-08-21_11h27.03.198,vbt_B1_day4,2022.2.4,MacIntel,60.0024001,,,,,,down,0,1.8346,,0.224875014,-0.101047635,1,0,0,0,135,135,99,1,koffie,images/br_koffie.png,images/cb_koffie.png,0,,,,,,,,,,,,,,,,,,,,,,
,,,,,00020,2023-08-21_11h27.03.198,vbt_B1_day4,2022.2.4,MacIntel,60.0024001,,,,,,down,0,1.7006,,0.224875014,-0.101047635,1,0,0,0,136,136,66,1,lever,images/br_lever.png,images/cb_lever.png,1,lever,,,,,,,,,,,,,,,,,,,,,
,,,,,00020,2023-08-21_11h27.03.198,vbt_B1_day4,2022.2.4,MacIntel,60.0024001,,,,,,down,0,2.0676,,0.224875014,-0.101047635,1,0,0,0,137,137,88,1,boeien,images/br_boeien.png,images/cb_boeien.png,0,,,,,,,,,,,,,,,,,,,,,,
,,,,,00020,2023-08-21_11h27.03.198,vbt_B1_day4,2022.2.4,MacIntel,60.0024001,,,,,,down,0,0.2341,,0.224875014,-0.101047635,1,0,0,0,138,138,125,1,aanzien,images/br_aanzien.png,images/cb_aanzien.png,0,,,,,,,,,,,,,,,,,,,,,,
,,,,,00020,2023-08-21_11h27.03.198,vbt_B1_day4,2022.2.4,MacIntel,60.0024001,,,,,,down,0,0.0542,,0.224875014,-0.101047635,1,0,0,0,139,139,38,1,baai,images/br_baai.png,images/cb_baai.png,0,,,,,,,,,,,,,,,,,,,,,,
,,,,,00020,2023-08-21_11h27.03.198,vbt_B1_day4,2022.2.4,MacIntel,60.0024001,,,,,,down,0,1.1687,,0.224875014,-0.101047635,1,0,0,0,140,140,29,1,baas,images/br_baas.png,images/cb_baas.png,0,,,,,,,,,,,,,,,,,,,,,,
,,,,,00020,2023-08-21_11h27.03.198,vbt_B1_day4,2022.2.4,MacIntel,60.0024001,,,,,,down,0,2.167,,0.224875014,-0.101047635,1,0,0,0,141,141,47,1,kabel,images/br_kabel.png,images/cb_kabel.png,0,,,,,,,,,,,,,,,,,,,,,,
,,,,,00020,2023-08-21_11h27.03.198,vbt_B1_day4,2022.2.4,MacIntel,60.0024001,,,,,,down,0,1.1176,,0.224875014,-0.101047635,1,0,0,0,142,142,114,1,vullen,images/br_vullen.png,images/cb_vullen.png,0,,,,,,,,,,,,,,,,,,,,,,
,,,,,00020,2023-08-21_11h27.03.198,vbt_B1_day4,2022.2.4,MacIntel,60.0024001,,,,,,down,0,0.7671,,0.224875014,-0.101047635,1,0,0,0,143,143,127,1,doodmoe,images/br_doodmoe.png,images/cb_doodmoe.png,0,,,,,,,,,,,,,,,,,,,,,,
,,,,,00020,2023-08-21_11h27.03.198,vbt_B1_day4,2022.2.4,MacIntel,60.0024001,,,,,,down,0,1.3501,,0.224875014,-0.101047635,1,0,0,0,144,144,171,1,aarzelen,images/br_aarzelen.png,images/cb_aarzelen.png,0,,,,,,,,,,,,,,,,,,,,,,
,,,,,00020,2023-08-21_11h27.03.198,vbt_B1_day4,2022.2.4,MacIntel,60.0024001,,,,,,down,0,1.4173,,0.224875014,-0.101047635,1,0,0,0,145,145,97,1,loyaal,images/br_loyaal.png,images/cb_loyaal.png,0,,,,,,,,,,,,,,,,,,,,,,
,,,,,00020,2023-08-21_11h27.03.198,vbt_B1_day4,2022.2.4,MacIntel,60.0024001,,,,,,down,0,2.0539,,0.224875014,-0.100277981,1,0,0,0,146,146,172,1,weigeren,images/br_weigeren.png,images/cb_weigeren.png,0,,,,,,,,,,,,,,,,,,,,,,
,,,,,00020,2023-08-21_11h27.03.198,vbt_B1_day4,2022.2.4,MacIntel,60.0024001,,,,,,down,0,0.201,,0.224875014,-0.100277981,1,0,0,0,147,147,48,1,steel,images/br_steel.png,images/cb_steel.png,0,,,,,,,,,,,,,,,,,,,,,,
,,,,,00020,2023-08-21_11h27.03.198,vbt_B1_day4,2022.2.4,MacIntel,60.0024001,,,,,,down,0,3.1837,,0.224875014,-0.100277981,1,0,0,0,148,148,104,1,zweven,images/br_zweven.png,images/cb_zweven.png,1,zweven,,,,,,,,,,,,,,,,,,,,,
,,,,,00020,2023-08-21_11h27.03.198,vbt_B1_day4,2022.2.4,MacIntel,60.0024001,,,,,,down,0,4.7176,,0.274511719,-0.046658936,1,0,0,0,149,149,187,1,opkijken,images/br_opkijken.png,images/cb_opkijken.png,1,opkijken,,,,,,,,,,,,,,,,,,,,,
,,,,,00020,2023-08-21_11h27.03.198,vbt_B1_day4,2022.2.4,MacIntel,60.0024001,,,,,,down,0,4.1551,,0.195920003,-0.081634793,1,0,0,0,150,150,119,1,liefje,images/br_liefje.png,images/cb_liefje.png,0,,,,,,,,,,,,,,,,,,,,,,
,,,,,00020,2023-08-21_11h27.03.198,vbt_B1_day4,2022.2.4,MacIntel,60.0024001,,,,,,down,0,0.3,,0.267106934,-0.092238837,1,0,0,0,151,151,81,1,dubbel,images/br_dubbel.png,images/cb_dubbel.png,0,,,,,,,,,,,,,,,,,,,,,,
,,,,,00020,2023-08-21_11h27.03.198,vbt_B1_day4,2022.2.4,MacIntel,60.0024001,,,,,,down,0,1.5667,,0.267106934,-0.092238837,1,0,0,0,152,152,45,1,piste,images/br_piste.png,images/cb_piste.png,0,,,,,,,,,,,,,,,,,,,,,,
,,,,,00020,2023-08-21_11h27.03.198,vbt_B1_day4,2022.2.4,MacIntel,60.0024001,,,,,,down,0,0.218,,0.267106934,-0.092238837,1,0,0,0,153,153,69,1,waken,images/br_waken.png,images/cb_waken.png,0,,,,,,,,,,,,,,,,,,,,,,
,,,,,00020,2023-08-21_11h27.03.198,vbt_B1_day4,2022.2.4,MacIntel,60.0024001,,,,,,down,0,0.3838,,0.267106934,-0.092238837,1,0,0,0,154,154,54,1,gebit,images/br_gebit.png,images/cb_gebit.png,0,,,,,,,,,,,,,,,,,,,,,,
,,,,,00020,2023-08-21_11h27.03.198,vbt_B1_day4,2022.2.4,MacIntel,60.0024001,,,,,,down,0,0.6003,,0.267106934,-0.092238837,1,0,0,0,155,155,168,1,bisschop,images/br_bisschop.png,images/cb_bisschop.png,0,,,,,,,,,,,,,,,,,,,,,,
,,,,,00020,2023-08-21_11h27.03.198,vbt_B1_day4,2022.2.4,MacIntel,60.0024001,,,,,,down,0,0.4508,,0.267106934,-0.092238837,1,0,0,0,156,156,151,1,aanzoek,images/br_aanzoek.png,images/cb_aanzoek.png,0,,,,,,,,,,,,,,,,,,,,,,
,,,,,00020,2023-08-21_11h27.03.198,vbt_B1_day4,2022.2.4,MacIntel,60.0024001,,,,,,down,0,0.6677,,0.267106934,-0.092238837,1,0,0,0,157,157,20,1,site,images/br_site.png,images/cb_site.png,0,,,,,,,,,,,,,,,,,,,,,,
,,,,,00020,2023-08-21_11h27.03.198,vbt_B1_day4,2022.2.4,MacIntel,60.0024001,,,,,,down,0,1.9166,,0.267106934,-0.092238837,1,0,0,0,158,158,71,1,bever,images/br_bever.png,images/cb_bever.png,0,,,,,,,,,,,,,,,,,,,,,,
,,,,,00020,2023-08-21_11h27.03.198,vbt_B1_day4,2022.2.4,MacIntel,60.0024001,,,,,,down,0,0.617,,0.267106934,-0.092238837,1,0,0,0,159,159,35,1,lust,images/br_lust.png,images/cb_lust.png,0,,,,,,,,,,,,,,,,,,,,,,
,,,,,00020,2023-08-21_11h27.03.198,vbt_B1_day4,2022.2.4,MacIntel,60.0024001,,,,,,down,0,0.267,,0.267106934,-0.092238837,1,0,0,0,160,160,167,1,eenhoorn,images/br_eenhoorn.png,images/cb_eenhoorn.png,0,,,,,,,,,,,,,,,,,,,,,,
,,,,,00020,2023-08-21_11h27.03.198,vbt_B1_day4,2022.2.4,MacIntel,60.0024001,,,,,,down,0,0.5002,,0.267106934,-0.092238837,1,0,0,0,161,161,115,1,kleren,images/br_kleren.png,images/cb_kleren.png,0,,,,,,,,,,,,,,,,,,,,,,
,,,,,00020,2023-08-21_11h27.03.198,vbt_B1_day4,2022.2.4,MacIntel,60.0024001,,,,,,down,0,0.7998,,0.267106934,-0.092238837,1,0,0,0,162,162,76,1,afval,images/br_afval.png,images/cb_afval.png,0,,,,,,,,,,,,,,,,,,,,,,
,,,,,00020,2023-08-21_11h27.03.198,vbt_B1_day4,2022.2.4,MacIntel,60.0024001,,,,,,down,0,0.3507,,0.267106934,-0.092238837,1,0,0,0,163,163,19,1,geit,images/br_geit.png,images/cb_geit.png,0,,,,,,,,,,,,,,,,,,,,,,
,,,,,00020,2023-08-21_11h27.03.198,vbt_B1_day4,2022.2.4,MacIntel,60.0024001,,,,,,down,0,2.9508,,0.267106934,-0.092238837,1,0,0,0,164,164,147,1,komisch,images/br_komisch.png,images/cb_komisch.png,1,komisch,,,,,,,,,,,,,,,,,,,,,
,,,,,00020,2023-08-21_11h27.03.198,vbt_B1_day4,2022.2.4,MacIntel,60.0024001,,,,,,down,0,0.336,,0.267106934,-0.092238837,1,0,0,0,165,165,26,1,leuk,images/br_leuk.png,images/cb_leuk.png,1,leuk,,,,,,,,,,,,,,,,,,,,,
,,,,,00020,2023-08-21_11h27.03.198,vbt_B1_day4,2022.2.4,MacIntel,60.0024001,,,,,,down,0,5.0019,,0.267106934,-0.092238837,1,0,0,0,166,166,153,1,vervoer,images/br_vervoer.png,images/cb_vervoer.png,0,,,,,,,,,,,,,,,,,,,,,,
,,,,,00020,2023-08-21_11h27.03.198,vbt_B1_day4,2022.2.4,MacIntel,60.0024001,,,,,,down,0,0.083,,0.267106934,-0.092238837,1,0,0,0,167,167,57,1,steek,images/br_steek.png,images/cb_steek.png,0,,,,,,,,,,,,,,,,,,,,,,
,,,,,00020,2023-08-21_11h27.03.198,vbt_B1_day4,2022.2.4,MacIntel,60.0024001,,,,,,down,0,0.3669,,0.267106934,-0.092238837,1,0,0,0,168,168,37,1,mijn,images/br_mijn.png,images/cb_mijn.png,0,,,,,,,,,,,,,,,,,,,,,,
,,,,,00020,2023-08-21_11h27.03.198,vbt_B1_day4,2022.2.4,MacIntel,60.0024001,,,,,,down,0,0.6999,,0.267106934,-0.092238837,1,0,0,0,169,169,110,1,zuster,images/br_zuster.png,images/cb_zuster.png,0,,,,,,,,,,,,,,,,,,,,,,
,,,,,00020,2023-08-21_11h27.03.198,vbt_B1_day4,2022.2.4,MacIntel,60.0024001,,,,,,down,0,0.9997,,0.267106934,-0.092238837,1,0,0,0,170,170,161,1,attentie,images/br_attentie.png,images/cb_attentie.png,0,,,,,,,,,,,,,,,,,,,,,,
,,,,,00020,2023-08-21_11h27.03.198,vbt_B1_day4,2022.2.4,MacIntel,60.0024001,,,,,,down,0,3.3884,,0.267106934,-0.092238837,1,0,0,0,171,171,143,1,hechten,images/br_hechten.png,images/cb_hechten.png,0,,,,,,,,,,,,,,,,,,,,,,
,,,,,00020,2023-08-21_11h27.03.198,vbt_B1_day4,2022.2.4,MacIntel,60.0024001,,,,,,down,0,0.7691,,0.267106934,-0.092238837,1,0,0,0,172,172,195,1,middelen,images/br_middelen.png,images/cb_middelen.png,0,,,,,,,,,,,,,,,,,,,,,,
,,,,,00020,2023-08-21_11h27.03.198,vbt_B1_day4,2022.2.4,MacIntel,60.0024001,,,,,,down,0,1.8673,,0.267106934,-0.092238837,1,0,0,0,173,173,180,1,openbaar,images/br_openbaar.png,images/cb_openbaar.png,0,,,,,,,,,,,,,,,,,,,,,,
,,,,,00020,2023-08-21_11h27.03.198,vbt_B1_day4,2022.2.4,MacIntel,60.0024001,,,,,,down,0,0.3338,,0.267106934,-0.092238837,1,0,0,0,174,174,166,1,strikken,images/br_strikken.png,images/cb_strikken.png,0,,,,,,,,,,,,,,,,,,,,,,
,,,,,00020,2023-08-21_11h27.03.198,vbt_B1_day4,2022.2.4,MacIntel,60.0024001,,,,,,down,0,0.6497,,0.267106934,-0.092238837,1,0,0,0,175,175,132,1,grappen,images/br_grappen.png,images/cb_grappen.png,0,,,,,,,,,,,,,,,,,,,,,,
,,,,,00020,2023-08-21_11h27.03.198,vbt_B1_day4,2022.2.4,MacIntel,60.0024001,,,,,,down,0,2.0022,,0.267106934,-0.092238837,1,0,0,0,176,176,146,1,opkomen,images/br_opkomen.png,images/cb_opkomen.png,1,opkomen,,,,,,,,,,,,,,,,,,,,,
,,,,,00020,2023-08-21_11h27.03.198,vbt_B1_day4,2022.2.4,MacIntel,60.0024001,,,,,,down,0,3.6002,,0.267106934,-0.092238837,1,0,0,0,177,177,107,1,maling,images/br_maling.png,images/cb_maling.png,1,maling,,,,,,,,,,,,,,,,,,,,,
,,,,,00020,2023-08-21_11h27.03.198,vbt_B1_day4,2022.2.4,MacIntel,60.0024001,,,,,,down,0,0.0502,,0.267106934,-0.092238837,1,0,0,0,178,178,39,1,laag,images/br_laag.png,images/cb_laag.png,0,,,,,,,,,,,,,,,,,,,,,,
,,,,,00020,2023-08-21_11h27.03.198,vbt_B1_day4,2022.2.4,MacIntel,60.0024001,,,,,,down,0,0.5325,,0.267106934,-0.092238837,1,0,0,0,179,179,141,1,knielen,images/br_knielen.png,images/cb_knielen.png,0,,,,,,,,,,,,,,,,,,,,,,
,,,,,00020,2023-08-21_11h27.03.198,vbt_B1_day4,2022.2.4,MacIntel,60.0024001,,,,,,down,0,0.3169,,0.267106934,-0.092238837,1,0,0,0,180,180,121,1,twijfel,images/br_twijfel.png,images/cb_twijfel.png,0,,,,,,,,,,,,,,,,,,,,,,
,,,,,00020,2023-08-21_11h27.03.198,vbt_B1_day4,2022.2.4,MacIntel,60.0024001,,,,,,down,0,0.2007,,0.267106934,-0.092238837,1,0,0,0,181,181,77,1,woede,images/br_woede.png,images/cb_woede.png,0,,,,,,,,,,,,,,,,,,,,,,
,,,,,00020,2023-08-21_11h27.03.198,vbt_B1_day4,2022.2.4,MacIntel,60.0024001,,,,,,down,0,1.9652,,0.267106934,-0.092238837,1,0,0,0,182,182,46,1,jagen,images/br_jagen.png,images/cb_jagen.png,0,,,,,,,,,,,,,,,,,,,,,,
,,,,,00020,2023-08-21_11h27.03.198,vbt_B1_day4,2022.2.4,MacIntel,60.0024001,,,,,,down,0,2.3187,,0.267106934,-0.09171068,1,0,0,0,183,183,129,1,verhaal,images/br_verhaal.png,images/cb_verhaal.png,0,,,,,,,,,,,,,,,,,,,,,,
,,,,,00020,2023-08-21_11h27.03.198,vbt_B1_day4,2022.2.4,MacIntel,60.0024001,,,,,,down,0,0.0834,,0.267106934,-0.09171068,1,0,0,0,184,184,100,1,geduld,images/br_geduld.png,images/cb_geduld.png,0,,,,,,,,,,,,,,,,,,,,,,
,,,,,00020,2023-08-21_11h27.03.198,vbt_B1_day4,2022.2.4,MacIntel,60.0024001,,,,,,down,0,0.4669,,0.267106934,-0.09171068,1,0,0,0,185,185,84,1,lokken,images/br_lokken.png,images/cb_lokken.png,0,,,,,,,,,,,,,,,,,,,,,,
,,,,,00020,2023-08-21_11h27.03.198,vbt_B1_day4,2022.2.4,MacIntel,60.0024001,,,,,,down,0,0.3684,,0.267106934,-0.09171068,1,0,0,0,186,186,83,1,mening,images/br_mening.png,images/cb_mening.png,0,,,,,,,,,,,,,,,,,,,,,,
,,,,,00020,2023-08-21_11h27.03.198,vbt_B1_day4,2022.2.4,MacIntel,60.0024001,,,,,,down,0,0.2506,,0.267106934,-0.09171068,1,0,0,0,187,187,176,1,techniek,images/br_techniek.png,images/cb_techniek.png,0,,,,,,,,,,,,,,,,,,,,,,
,,,,,00020,2023-08-21_11h27.03.198,vbt_B1_day4,2022.2.4,MacIntel,60.0024001,,,,,,down,0,0.834,,0.267106934,-0.09171068,1,0,0,0,188,188,139,1,stiekem,images/br_stiekem.png,images/cb_stiekem.png,0,,,,,,,,,,,,,,,,,,,,,,
,,,,,00020,2023-08-21_11h27.03.198,vbt_B1_day4,2022.2.4,MacIntel,60.0024001,,,,,,down,0,0.1291,,0.267106934,-0.091454671,1,0,0,0,189,189,118,1,vinger,images/br_vinger.png,images/cb_vinger.png,0,,,,,,,,,,,,,,,,,,,,,,
,,,,,00020,2023-08-21_11h27.03.198,vbt_B1_day4,2022.2.4,MacIntel,60.0024001,,,,,,down,0,1.7676,,0.267106934,-0.091454671,1,0,0,0,190,190,189,1,aanraden,images/br_aanraden.png,images/cb_aanraden.png,0,,,,,,,,,,,,,,,,,,,,,,
,,,,,00020,2023-08-21_11h27.03.198,vbt_B1_day4,2022.2.4,MacIntel,60.0024001,,,,,,down,0,4.6324,,0.267106934,-0.091454671,1,0,0,0,191,191,178,1,huisdier,images/br_huisdier.png,images/cb_huisdier.png,0,,,,,,,,,,,,,,,,,,,,,,
,,,,,00020,2023-08-21_11h27.03.198,vbt_B1_day4,2022.2.4,MacIntel,60.0024001,,,,,,down,0,0.6835,,0.267106934,-0.091454671,1,0,0,0,192,192,42,1,bleek,images/br_bleek.png,images/cb_bleek.png,0,,,,,,,,,,,,,,,,,,,,,,
,,,,,00020,2023-08-21_11h27.03.198,vbt_B1_day4,2022.2.4,MacIntel,60.0024001,,,,,,down,0,1.7508,,0.289282633,-0.076838243,1,0,0,0,193,193,144,1,eetlust,images/br_eetlust.png,images/cb_eetlust.png,1,eetlust,,,,,,,,,,,,,,,,,,,,,
,,,,,00020,2023-08-21_11h27.03.198,vbt_B1_day4,2022.2.4,MacIntel,60.0024001,,,,,,down,0,1.1165,,0.289282633,-0.076838243,1,0,0,0,194,194,17,1,taal,images/br_taal.png,images/cb_taal.png,0,,,,,,,,,,,,,,,,,,,,,,
,,,,,00020,2023-08-21_11h27.03.198,vbt_B1_day4,2022.2.4,MacIntel,60.0024001,,,,,,down,0,0.9166,,0.289282633,-0.076838243,1,0,0,0,195,195,92,1,geheim,images/br_geheim.png,images/cb_geheim.png,0,,,,,,,,,,,,,,,,,,,,,,
,,,,,00020,2023-08-21_11h27.03.198,vbt_B1_day4,2022.2.4,MacIntel,60.0024001,,,,,,down,0,0.834,,0.289282633,-0.076838243,1,0,0,0,196,196,36,1,vuur,images/br_vuur.png,images/cb_vuur.png,0,,,,,,,,,,,,,,,,,,,,,,
,,,,,00020,2023-08-21_11h27.03.198,vbt_B1_day4,2022.2.4,MacIntel,60.0024001,,,,,,down,0,0.5039,,0.289282633,-0.076838243,1,0,0,0,197,197,113,1,koppen,images/br_koppen.png,images/cb_koppen.png,0,,,,,,,,,,,,,,,,,,,,,,
,,,,,00020,2023-08-21_11h27.03.198,vbt_B1_day4,2022.2.4,MacIntel,60.0024001,,,,,,down,0,1.0007,,0.289282633,-0.076838243,1,0,0,0,198,198,32,1,palm,images/br_palm.png,images/cb_palm.png,0,,,,,,,,,,,,,,,,,,,,,,
,,,,,00020,2023-08-21_11h27.03.198,vbt_B1_day4,2022.2.4,MacIntel,60.0024001,,,,,,down,0,0.4503,,0.289282633,-0.076838243,1,0,0,0,199,199,116,1,besmet,images/br_besmet.png,images/cb_besmet.png,0,,,,,,,,,,,,,,,,,,,,,,
,,,,,00020,2023-08-21_11h27.03.198,vbt_B1_day4,2022.2.4,MacIntel,60.0024001,,,,,,,,,,,,,,,,,,,,,,,,,0.191297268,0.011159329,1,0,0,,,,,,,,,,,,,,,,
,,,,,00020,2023-08-21_11h27.03.198,vbt_B1_day4,2022.2.4,MacIntel,60.0024001,,,,,,,,,,,,,,,,,,,,,,,,,,,,,,0.19429952,0.024194675,1,0,0,,,,,,,,,,,
,,,,,00020,2023-08-21_11h27.03.198,vbt_B1_day4,2022.2.4,MacIntel,60.0024001,,,,,,,,,,,,,,,,,,,,geliefd,images/br_geliefd.png,images/cb_geliefd.png,,geliefd,,,,,,,,,,,0.185280355,0.028115641,1,0,0,geliefd,0,0,0,14,1
,,,,,00020,2023-08-21_11h27.03.198,vbt_B1_day4,2022.2.4,MacIntel,60.0024001,,,,,,,,,,,,,,,,,,,,tucket,images/br_tucket.png,images/cb_tucket.png,,ticket,,,,,,,,,,,0.336139594,-0.037206387,1,0,0,ticket,0,1,1,30,1
,,,,,00020,2023-08-21_11h27.03.198,vbt_B1_day4,2022.2.4,MacIntel,60.0024001,,,,,,,,,,,,,,,,,,,,getucht,images/br_getucht.png,images/cb_getucht.png,,getucht,,,,,,,,,,,0.163051419,-0.154460856,1,0,0,getucht,0,2,2,35,1
,,,,,00020,2023-08-21_11h27.03.198,vbt_B1_day4,2022.2.4,MacIntel,60.0024001,,,,,,,,,,,,,,,,,,,,bruin,images/br_bruin.png,images/cb_bruin.png,,bruin,,,,,,,,,,,0.163051419,-0.154460856,1,0,0,bruin,0,3,3,45,1
,,,,,00020,2023-08-21_11h27.03.198,vbt_B1_day4,2022.2.4,MacIntel,60.0024001,,,,,,,,,,,,,,,,,,,,zwek,images/br_zwek.png,images/cb_zwek.png,,zwek,,,,,,,,,,,0.217148573,0.03448527,1,0,0,zwek,0,4,4,20,1
,,,,,00020,2023-08-21_11h27.03.198,vbt_B1_day4,2022.2.4,MacIntel,60.0024001,,,,,,,,,,,,,,,,,,,,steen,images/br_steen.png,images/cb_steen.png,,steen,,,,,,,,,,,0.217148573,0.03448527,1,0,0,steen,0,5,5,44,1
,,,,,00020,2023-08-21_11h27.03.198,vbt_B1_day4,2022.2.4,MacIntel,60.0024001,,,,,,,,,,,,,,,,,,,,oceaan,images/br_oceaan.png,images/cb_oceaan.png,,oceaan,,,,,,,,,,,0.217148573,0.03448527,1,0,0,oceaan,0,6,6,10,1
,,,,,00020,2023-08-21_11h27.03.198,vbt_B1_day4,2022.2.4,MacIntel,60.0024001,,,,,,,,,,,,,,,,,,,,paalbaak,images/br_paalbaak.png,images/cb_paalbaak.png,,paalbaak,,,,,,,,,,,0.356402452,0.008210347,1,0,0,paalbaak,0,7,7,39,1
,,,,,00020,2023-08-21_11h27.03.198,vbt_B1_day4,2022.2.4,MacIntel,60.0024001,,,,,,,,,,,,,,,,,,,,heengaan,images/br_heengaan.png,images/cb_heengaan.png,,heengaan,,,,,,,,,,,0.100986192,-0.117810398,1,0,0,heengaan,0,8,8,19,1
,,,,,00020,2023-08-21_11h27.03.198,vbt_B1_day4,2022.2.4,MacIntel,60.0024001,,,,,,,,,,,,,,,,,,,,apparaat,images/br_apparaat.png,images/cb_apparaat.png,,apparaat,,,,,,,,,,,0.033623725,-0.041674466,1,0,0,apparaat,0,9,9,17,1
,,,,,00020,2023-08-21_11h27.03.198,vbt_B1_day4,2022.2.4,MacIntel,60.0024001,,,,,,,,,,,,,,,,,,,,broodje,images/br_broodje.png,images/cb_broodje.png,,broodje,,,,,,,,,,,0.131324327,-0.040361735,1,0,0,broodje,0,10,10,55,1
,,,,,00020,2023-08-21_11h27.03.198,vbt_B1_day4,2022.2.4,MacIntel,60.0024001,,,,,,,,,,,,,,,,,,,,pijnlijk,images/br_pijnlijk.png,images/cb_pijnlijk.png,,pijnlijk,,,,,,,,,,,0.015524835,-0.073946058,1,0,0,pijnlijk,0,11,11,58,1
,,,,,00020,2023-08-21_11h27.03.198,vbt_B1_day4,2022.2.4,MacIntel,60.0024001,,,,,,,,,,,,,,,,,,,,noodzaak,images/br_noodzaak.png,images/cb_noodzaak.png,,noodzaak,,,,,,,,,,,0.039674818,-0.037183634,1,0,0,noodzaak,0,12,12,56,1
,,,,,00020,2023-08-21_11h27.03.198,vbt_B1_day4,2022.2.4,MacIntel,60.0024001,,,,,,,,,,,,,,,,,,,,gaaf,images/br_gaaf.png,images/cb_gaaf.png,,gaaf,,,,,,,,,,,0.079447293,-0.023800083,1,0,0,gaaf,0,13,13,43,1
,,,,,00020,2023-08-21_11h27.03.198,vbt_B1_day4,2022.2.4,MacIntel,60.0024001,,,,,,,,,,,,,,,,,,,,pittig,images/br_pittig.png,images/cb_pittig.png,,pittig,,,,,,,,,,,0.079447293,-0.023800083,1,0,0,pittig,0,14,14,51,1
,,,,,00020,2023-08-21_11h27.03.198,vbt_B1_day4,2022.2.4,MacIntel,60.0024001,,,,,,,,,,,,,,,,,,,,aanzwaag,images/br_aanzwaag.png,images/cb_aanzwaag.png,,aanzwaag,,,,,,,,,,,0.211020169,-0.03644416,1,0,0,aanzwaag,0,15,15,38,1
,,,,,00020,2023-08-21_11h27.03.198,vbt_B1_day4,2022.2.4,MacIntel,60.0024001,,,,,,,,,,,,,,,,,,,,rijp,images/br_rijp.png,images/cb_rijp.png,,rijp,,,,,,,,,,,0.04410258,0.00633294,1,0,0,rijp,0,16,16,2,1
,,,,,00020,2023-08-21_11h27.03.198,vbt_B1_day4,2022.2.4,MacIntel,60.0024001,,,,,,,,,,,,,,,,,,,,lappen,images/br_lappen.png,images/cb_lappen.png,,lappen,,,,,,,,,,,0.063838976,-0.059931166,1,0,0,lappen,0,17,17,49,1
,,,,,00020,2023-08-21_11h27.03.198,vbt_B1_day4,2022.2.4,MacIntel,60.0024001,,,,,,,,,,,,,,,,,,,,toevol,images/br_toevol.png,images/cb_toevol.png,,toevol,,,,,,,,,,,0.07625807,-0.069580214,1,0,0,toevol,0,18,18,29,1
,,,,,00020,2023-08-21_11h27.03.198,vbt_B1_day4,2022.2.4,MacIntel,60.0024001,,,,,,,,,,,,,,,,,,,,opruimen,images/br_opruimen.png,images/cb_opruimen.png,,opruimen,,,,,,,,,,,0.099429864,-0.026827969,1,0,0,opruimen,0,19,19,59,1
,,,,,00020,2023-08-21_11h27.03.198,vbt_B1_day4,2022.2.4,MacIntel,60.0024001,,,,,,,,,,,,,,,,,,,,schotel,images/br_schotel.png,images/cb_schotel.png,,schotel,,,,,,,,,,,0.083665568,-0.057636719,1,0,0,schotel,0,20,20,52,1
,,,,,00020,2023-08-21_11h27.03.198,vbt_B1_day4,2022.2.4,MacIntel,60.0024001,,,,,,,,,,,,,,,,,,,,haza,images/br_haza.png,images/cb_haza.png,,haza,,,,,,,,,,,0.107142131,-0.080984429,1,0,0,haza,0,21,21,21,1
,,,,,00020,2023-08-21_11h27.03.198,vbt_B1_day4,2022.2.4,MacIntel,60.0024001,,,,,,,,,,,,,,,,,,,,midden,images/br_midden.png,images/cb_midden.png,,midden,,,,,,,,,,,0.070257026,-0.06064365,1,0,0,midden,0,22,22,50,1
,,,,,00020,2023-08-21_11h27.03.198,vbt_B1_day4,2022.2.4,MacIntel,60.0024001,,,,,,,,,,,,,,,,,,,,grappen,images/br_grappen.png,images/cb_grappen.png,,grappen,,,,,,,,,,,-0.061970011,-0.022931247,1,0,0,grappen,0,23,23,12,1
,,,,,00020,2023-08-21_11h27.03.198,vbt_B1_day4,2022.2.4,MacIntel,60.0024001,,,,,,,,,,,,,,,,,,,,flippen,images/br_flippen.png,images/cb_flippen.png,,flippen,,,,,,,,,,,0.025309516,-0.027603828,1,0,0,flippen,0,24,24,54,1
,,,,,00020,2023-08-21_11h27.03.198,vbt_B1_day4,2022.2.4,MacIntel,60.0024001,,,,,,,,,,,,,,,,,,,,waarop,images/br_waarop.png,images/cb_waarop.png,,waarop,,,,,,,,,,,0.106017795,-0.051728177,1,0,0,waarop,0,25,25,9,1
,,,,,00020,2023-08-21_11h27.03.198,vbt_B1_day4,2022.2.4,MacIntel,60.0024001,,,,,,,,,,,,,,,,,,,,kust,images/br_kust.png,images/cb_kust.png,,kust,,,,,,,,,,,0.095170627,-0.069444038,1,0,0,kust,0,26,26,0,1
,,,,,00020,2023-08-21_11h27.03.198,vbt_B1_day4,2022.2.4,MacIntel,60.0024001,,,,,,,,,,,,,,,,,,,,seizoon,images/br_seizoon.png,images/cb_seizoon.png,,seizoon,,,,,,,,,,,0.006856554,-0.024350043,1,0,0,seizoon,0,27,27,33,1
,,,,,00020,2023-08-21_11h27.03.198,vbt_B1_day4,2022.2.4,MacIntel,60.0024001,,,,,,,,,,,,,,,,,,,,strok,images/br_strok.png,images/cb_strok.png,,strok,,,,,,,,,,,0.078080241,-0.076249186,1,0,0,strok,0,28,28,25,1
,,,,,00020,2023-08-21_11h27.03.198,vbt_B1_day4,2022.2.4,MacIntel,60.0024001,,,,,,,,,,,,,,,,,,,,soda,images/br_soda.png,images/cb_soda.png,,soda,,,,,,,,,,,0.038281453,-0.000386183,1,0,0,soda,0,29,29,3,1
,,,,,00020,2023-08-21_11h27.03.198,vbt_B1_day4,2022.2.4,MacIntel,60.0024001,,,,,,,,,,,,,,,,,,,,fran,images/br_fran.png,images/cb_fran.png,,fran,,,,,,,,,,,0.024231093,-0.048887533,1,0,0,fran,0,30,30,22,1
,,,,,00020,2023-08-21_11h27.03.198,vbt_B1_day4,2022.2.4,MacIntel,60.0024001,,,,,,,,,,,,,,,,,,,,gaan,images/br_gaan.png,images/cb_gaan.png,,gaan,,,,,,,,,,,0.089474013,-0.046790975,1,0,0,gaan,0,31,31,41,1
,,,,,00020,2023-08-21_11h27.03.198,vbt_B1_day4,2022.2.4,MacIntel,60.0024001,,,,,,,,,,,,,,,,,,,,dalen,images/br_dalen.png,images/cb_dalen.png,,dalen,,,,,,,,,,,0.081115587,-0.107766791,1,0,0,dalen,0,32,32,46,1
,,,,,00020,2023-08-21_11h27.03.198,vbt_B1_day4,2022.2.4,MacIntel,60.0024001,,,,,,,,,,,,,,,,,,,,gebog,images/br_gebog.png,images/cb_gebog.png,,gebog,,,,,,,,,,,0.272591485,-0.017801446,1,0,0,gebog,0,33,33,24,1
,,,,,00020,2023-08-21_11h27.03.198,vbt_B1_day4,2022.2.4,MacIntel,60.0024001,,,,,,,,,,,,,,,,,,,,bisschap,images/br_bisschap.png,images/cb_bisschap.png,,besschap,,,,,,,,,,,0.154446886,-0.097952881,1,0,0,besschap,0,34,34,36,1
,,,,,00020,2023-08-21_11h27.03.198,vbt_B1_day4,2022.2.4,MacIntel,60.0024001,,,,,,,,,,,,,,,,,,,,seizoen,images/br_seizoen.png,images/cb_seizoen.png,,seizoen,,,,,,,,,,,0.201190864,-0.037731459,1,0,0,seizoen,0,35,35,13,1
,,,,,00020,2023-08-21_11h27.03.198,vbt_B1_day4,2022.2.4,MacIntel,60.0024001,,,,,,,,,,,,,,,,,,,,kaal,images/br_kaal.png,images/cb_kaal.png,,kaal,,,,,,,,,,,0.19589091,-0.038734741,1,0,0,kaal,0,36,36,1,1
,,,,,00020,2023-08-21_11h27.03.198,vbt_B1_day4,2022.2.4,MacIntel,60.0024001,,,,,,,,,,,,,,,,,,,,eerst,images/br_eerst.png,images/cb_eerst.png,,eerst,,,,,,,,,,,0.098244629,-0.02497718,1,0,0,eerst,0,37,37,47,1
,,,,,00020,2023-08-21_11h27.03.198,vbt_B1_day4,2022.2.4,MacIntel,60.0024001,,,,,,,,,,,,,,,,,,,,stemming,images/br_stemming.png,images/cb_stemming.png,,stemming,,,,,,,,,,,0.043411255,-0.06520674,1,0,0,stemming,0,38,38,18,1
,,,,,00020,2023-08-21_11h27.03.198,vbt_B1_day4,2022.2.4,MacIntel,60.0024001,,,,,,,,,,,,,,,,,,,,wagon,images/br_wagon.png,images/cb_wagon.png,,wagon,,,,,,,,,,,0.05176846,-0.094565023,1,0,0,wagon,0,39,39,4,1
,,,,,00020,2023-08-21_11h27.03.198,vbt_B1_day4,2022.2.4,MacIntel,60.0024001,,,,,,,,,,,,,,,,,,,,warel,images/br_warel.png,images/cb_warel.png,,warel,,,,,,,,,,,0.191808743,-0.06679501,1,0,0,warel,0,40,40,26,1
,,,,,00020,2023-08-21_11h27.03.198,vbt_B1_day4,2022.2.4,MacIntel,60.0024001,,,,,,,,,,,,,,,,,,,,wozing,images/br_wozing.png,images/cb_wozing.png,,wozing,,,,,,,,,,,0.125946248,-0.033416612,1,0,0,wozing,0,41,41,28,1
,,,,,00020,2023-08-21_11h27.03.198,vbt_B1_day4,2022.2.4,MacIntel,60.0024001,,,,,,,,,,,,,,,,,,,,snee,images/br_snee.png,images/cb_snee.png,,snee,,,,,,,,,,,0.045775892,-0.061348334,1,0,0,snee,0,42,42,40,1
,,,,,00020,2023-08-21_11h27.03.198,vbt_B1_day4,2022.2.4,MacIntel,60.0024001,,,,,,,,,,,,,,,,,,,,zaalrijk,images/br_zaalrijk.png,images/cb_zaalrijk.png,,zaalrijk,,,,,,,,,,,0.112552897,-0.167344835,1,0,0,zaalrijk,0,43,43,37,1
,,,,,00020,2023-08-21_11h27.03.198,vbt_B1_day4,2022.2.4,MacIntel,60.0024001,,,,,,,,,,,,,,,,,,,,vreten,images/br_vreten.png,images/cb_vreten.png,,vreten,,,,,,,,,,,0.028595513,-0.029867689,1,0,0,vreten,0,44,44,11,1
,,,,,00020,2023-08-21_11h27.03.198,vbt_B1_day4,2022.2.4,MacIntel,60.0024001,,,,,,,,,,,,,,,,,,,,ezel,images/br_ezel.png,images/cb_ezel.png,,ezel,,,,,,,,,,,0.066761814,-0.05475942,1,0,0,ezel,0,45,45,42,1
,,,,,00020,2023-08-21_11h27.03.198,vbt_B1_day4,2022.2.4,MacIntel,60.0024001,,,,,,,,,,,,,,,,,,,,mekst,images/br_mekst.png,images/cb_mekst.png,,mekst,,,,,,,,,,,0.06710829,-0.083522678,1,0,0,mekst,0,46,46,27,1
,,,,,00020,2023-08-21_11h27.03.198,vbt_B1_day4,2022.2.4,MacIntel,60.0024001,,,,,,,,,,,,,,,,,,,,drummer,images/br_drummer.png,images/cb_drummer.png,,drummer,,,,,,,,,,,0.121825629,-0.009106513,1,0,0,drummer,0,47,47,53,1
,,,,,00020,2023-08-21_11h27.03.198,vbt_B1_day4,2022.2.4,MacIntel,60.0024001,,,,,,,,,,,,,,,,,,,,praat,images/br_praat.png,images/cb_praat.png,,praat,,,,,,,,,,,0.160991347,-0.038788045,1,0,0,praat,0,48,48,7,1
,,,,,00020,2023-08-21_11h27.03.198,vbt_B1_day4,2022.2.4,MacIntel,60.0024001,,,,,,,,,,,,,,,,,,,,geheim,images/br_geheim.png,images/cb_geheim.png,,geheim,,,,,,,,,,,0.30507487,-0.050299513,1,0,0,geheim,0,49,49,8,1
,,,,,00020,2023-08-21_11h27.03.198,vbt_B1_day4,2022.2.4,MacIntel,60.0024001,,,,,,,,,,,,,,,,,,,,dozijn,images/br_dozijn.png,images/cb_dozijn.png,,dozijn,,,,,,,,,,,0.109069282,0.000166829,1,0,0,dozijn,0,50,50,48,1
,,,,,00020,2023-08-21_11h27.03.198,vbt_B1_day4,2022.2.4,MacIntel,60.0024001,,,,,,,,,,,,,,,,,,,,drooien,images/br_drooien.png,images/cb_drooien.png,,drooien,,,,,,,,,,,0.148696425,-0.063881497,1,0,0,drooien,0,51,51,32,1
,,,,,00020,2023-08-21_11h27.03.198,vbt_B1_day4,2022.2.4,MacIntel,60.0024001,,,,,,,,,,,,,,,,,,,,schenden,images/br_schenden.png,images/cb_schenden.png,,schendin,,,,,,,,,,,0.176177368,-0.025597602,1,0,0,schendin,0,52,52,57,1
,,,,,00020,2023-08-21_11h27.03.198,vbt_B1_day4,2022.2.4,MacIntel,60.0024001,,,,,,,,,,,,,,,,,,,,gijf,images/br_gijf.png,images/cb_gijf.png,,gijf,,,,,,,,,,,0.130071275,-0.062117988,1,0,0,gijf,0,53,53,23,1
,,,,,00020,2023-08-21_11h27.03.198,vbt_B1_day4,2022.2.4,MacIntel,60.0024001,,,,,,,,,,,,,,,,,,,,opkicht,images/br_opkicht.png,images/cb_opkicht.png,,opkicht,,,,,,,,,,,0.212410143,-0.109182129,1,0,0,opkicht,0,54,54,34,1
,,,,,00020,2023-08-21_11h27.03.198,vbt_B1_day4,2022.2.4,MacIntel,60.0024001,,,,,,,,,,,,,,,,,,,,gedicht,images/br_gedicht.png,images/cb_gedicht.png,,gedicht,,,,,,,,,,,0.106480781,-0.092954848,1,0,0,gedicht,0,55,55,15,1
,,,,,00020,2023-08-21_11h27.03.198,vbt_B1_day4,2022.2.4,MacIntel,60.0024001,,,,,,,,,,,,,,,,,,,,baron,images/br_baron.png,images/cb_baron.png,,baron,,,,,,,,,,,0.106480781,-0.092954848,1,0,0,baron,0,56,56,5,1
,,,,,00020,2023-08-21_11h27.03.198,vbt_B1_day4,2022.2.4,MacIntel,60.0024001,,,,,,,,,,,,,,,,,,,,gebit,images/br_gebit.png,images/cb_gebit.png,,gebit,,,,,,,,,,,0.165419651,-0.137816433,1,0,0,gebit,0,57,57,6,1
,,,,,00020,2023-08-21_11h27.03.198,vbt_B1_day4,2022.2.4,MacIntel,60.0024001,,,,,,,,,,,,,,,,,,,,sulbon,images/br_sulbon.png,images/cb_sulbon.png,,sulbon,,,,,,,,,,,0.142760281,-0.113140869,1,0,0,sulbon,0,58,58,31,1
,,,,,00020,2023-08-21_11h27.03.198,vbt_B1_day4,2022.2.4,MacIntel,60.0024001,,,,,,,,,,,,,,,,,,,,weigeren,images/br_weigeren.png,images/cb_weigeren.png,,weigeren,,,,,,,,,,,0.045910848,0.013047248,1,0,0,weigeren,0,59,59,16,1
,,,,,00020,2023-08-21_11h27.03.198,vbt_B1_day4,2022.2.4,MacIntel,60.0024001,,,,,,,,,,,,,,,,,,,,,,,,,,,,,,,,,,,,,,,,,,,,,
