welcome_mouse.x,welcome_mouse.y,welcome_mouse.leftButton,welcome_mouse.midButton,welcome_mouse.rightButton,"ID",date,expName,psychopyVersion,OS,frameRate,trainInstr_mouse.x,trainInstr_mouse.y,trainInstr_mouse.leftButton,trainInstr_mouse.midButton,trainInstr_mouse.rightButton,translation_key.keys,translation_key.corr,translation_key.rt,word_rsp.text,trWrd_mouse.x,trWrd_mouse.y,trWrd_mouse.leftButton,trWrd_mouse.midButton,trWrd_mouse.rightButton,train_loop.thisRepN,train_loop.thisTrialN,train_loop.thisN,train_loop.thisIndex,train_loop.ran,nlWrd,brWrd,cbWrd,test,testResp,mouse.x,mouse.y,mouse.leftButton,mouse.midButton,mouse.rightButton,testInstr_mouse.x,testInstr_mouse.y,testInstr_mouse.leftButton,testInstr_mouse.midButton,testInstr_mouse.rightButton,test_mouse.x,test_mouse.y,test_mouse.leftButton,test_mouse.midButton,test_mouse.rightButton,test_response.text,test_loop.thisRepN,test_loop.thisTrialN,test_loop.thisN,test_loop.thisIndex,test_loop.ran
-0.17870369,-0.273148176,1,0,0,00086,2023-10-26_18h57.30.577,vbt_B1_day4,2022.2.4,Win32,59.08070424,,,,,,,,,,,,,,,,,,,,,,,,,,,,,,,,,,,,,,,,,,,,,
,,,,,00086,2023-10-26_18h57.30.577,vbt_B1_day4,2022.2.4,Win32,59.08070424,-0.17870369,-0.273148176,1,0,0,,,,,,,,,,,,,,,,,,,,,,,,,,,,,,,,,,,,,,,,
,,,,,00086,2023-10-26_18h57.30.577,vbt_B1_day4,2022.2.4,Win32,59.08070424,,,,,,down,0,3.3157,,-0.17870369,-0.273148176,1,0,0,0,0,0,5,1,blad,images/br_blad.png,images/cb_blad.png,0,,,,,,,,,,,,,,,,,,,,,,
,,,,,00086,2023-10-26_18h57.30.577,vbt_B1_day4,2022.2.4,Win32,59.08070424,,,,,,down,0,0.3018,,-0.17870369,-0.273148176,1,0,0,0,1,1,132,1,grappen,images/br_grappen.png,images/cb_grappen.png,0,,,,,,,,,,,,,,,,,,,,,,
,,,,,00086,2023-10-26_18h57.30.577,vbt_B1_day4,2022.2.4,Win32,59.08070424,,,,,,down,0,4.3683,,-0.17870369,-0.273148176,1,0,0,0,2,2,91,1,gezond,images/br_gezond.png,images/cb_gezond.png,0,,,,,,,,,,,,,,,,,,,,,,
,,,,,00086,2023-10-26_18h57.30.577,vbt_B1_day4,2022.2.4,Win32,59.08070424,,,,,,down,0,1.9072,,-0.17870369,-0.273148176,1,0,0,0,3,3,99,1,koffie,images/br_koffie.png,images/cb_koffie.png,0,,,,,,,,,,,,,,,,,,,,,,
,,,,,00086,2023-10-26_18h57.30.577,vbt_B1_day4,2022.2.4,Win32,59.08070424,,,,,,down,0,0.6519,,-0.17870369,-0.273148176,1,0,0,0,4,4,28,1,stal,images/br_stal.png,images/cb_stal.png,0,,,,,,,,,,,,,,,,,,,,,,
,,,,,00086,2023-10-26_18h57.30.577,vbt_B1_day4,2022.2.4,Win32,59.08070424,,,,,,down,0,4.0143,,-0.17870369,-0.273148176,1,0,0,0,5,5,142,1,snuiven,images/br_snuiven.png,images/cb_snuiven.png,0,,,,,,,,,,,,,,,,,,,,,,
,,,,,00086,2023-10-26_18h57.30.577,vbt_B1_day4,2022.2.4,Win32,59.08070424,,,,,,down,0,1.4411,,-0.17870369,-0.273148176,1,0,0,0,6,6,127,1,doodmoe,images/br_doodmoe.png,images/cb_doodmoe.png,0,,,,,,,,,,,,,,,,,,,,,,
,,,,,00086,2023-10-26_18h57.30.577,vbt_B1_day4,2022.2.4,Win32,59.08070424,,,,,,down,0,1.1995,,-0.17870369,-0.273148176,1,0,0,0,7,7,188,1,strekken,images/br_strekken.png,images/cb_strekken.png,0,,,,,,,,,,,,,,,,,,,,,,
,,,,,00086,2023-10-26_18h57.30.577,vbt_B1_day4,2022.2.4,Win32,59.08070424,,,,,,down,0,1.2641,,-0.17870369,-0.273148176,1,0,0,0,8,8,96,1,slagen,images/br_slagen.png,images/cb_slagen.png,0,,,,,,,,,,,,,,,,,,,,,,
,,,,,00086,2023-10-26_18h57.30.577,vbt_B1_day4,2022.2.4,Win32,59.08070424,,,,,,down,0,1.6028,,-0.17870369,-0.273148176,1,0,0,0,9,9,110,1,zuster,images/br_zuster.png,images/cb_zuster.png,0,,,,,,,,,,,,,,,,,,,,,,
,,,,,00086,2023-10-26_18h57.30.577,vbt_B1_day4,2022.2.4,Win32,59.08070424,,,,,,down,0,0.0876,,-0.17870369,-0.273148176,1,0,0,0,10,10,50,1,stoom,images/br_stoom.png,images/cb_stoom.png,0,,,,,,,,,,,,,,,,,,,,,,
,,,,,00086,2023-10-26_18h57.30.577,vbt_B1_day4,2022.2.4,Win32,59.08070424,,,,,,down,0,1.8511,,-0.181481467,-0.277777778,1,0,0,0,11,11,192,1,schaamte,images/br_schaamte.png,images/cb_schaamte.png,0,,,,,,,,,,,,,,,,,,,,,,
,,,,,00086,2023-10-26_18h57.30.577,vbt_B1_day4,2022.2.4,Win32,59.08070424,,,,,,down,0,3.3802,,-0.177777778,-0.271296353,1,0,0,0,12,12,95,1,vreten,images/br_vreten.png,images/cb_vreten.png,0,,,,,,,,,,,,,,,,,,,,,,
,,,,,00086,2023-10-26_18h57.30.577,vbt_B1_day4,2022.2.4,Win32,59.08070424,,,,,,down,0,3.5715,,-0.186111111,-0.284259288,1,0,0,0,13,13,152,1,afnemen,images/br_afnemen.png,images/cb_afnemen.png,0,,,,,,,,,,,,,,,,,,,,,,
,,,,,00086,2023-10-26_18h57.30.577,vbt_B1_day4,2022.2.4,Win32,59.08070424,,,,,,down,0,0.0018,,-0.179629601,-0.277777778,1,0,0,0,14,14,73,1,volop,images/br_volop.png,images/cb_volop.png,0,,,,,,,,,,,,,,,,,,,,,,
,,,,,00086,2023-10-26_18h57.30.577,vbt_B1_day4,2022.2.4,Win32,59.08070424,,,,,,down,0,5.4381,,-0.175925869,-0.278703732,1,0,0,0,15,15,130,1,keihard,images/br_keihard.png,images/cb_keihard.png,0,,,,,,,,,,,,,,,,,,,,,,
,,,,,00086,2023-10-26_18h57.30.577,vbt_B1_day4,2022.2.4,Win32,59.08070424,,,,,,down,0,0.5953,,-0.176851824,-0.275925954,1,0,0,0,16,16,14,1,rijp,images/br_rijp.png,images/cb_rijp.png,0,,,,,,,,,,,,,,,,,,,,,,
,,,,,00086,2023-10-26_18h57.30.577,vbt_B1_day4,2022.2.4,Win32,59.08070424,,,,,,down,0,0.5617,,-0.180555556,-0.279629686,1,0,0,0,17,17,90,1,geluid,images/br_geluid.png,images/cb_geluid.png,0,,,,,,,,,,,,,,,,,,,,,,
,,,,,00086,2023-10-26_18h57.30.577,vbt_B1_day4,2022.2.4,Win32,59.08070424,,,,,,down,0,2.4846,,-0.176851824,-0.279629686,1,0,0,0,18,18,154,1,aflopen,images/br_aflopen.png,images/cb_aflopen.png,0,,,,,,,,,,,,,,,,,,,,,,
,,,,,00086,2023-10-26_18h57.30.577,vbt_B1_day4,2022.2.4,Win32,59.08070424,,,,,,down,0,6.6597,,-0.176851824,-0.279629686,1,0,0,0,19,19,164,1,anarchie,images/br_anarchie.png,images/cb_anarchie.png,0,,,,,,,,,,,,,,,,,,,,,,
,,,,,00086,2023-10-26_18h57.30.577,vbt_B1_day4,2022.2.4,Win32,59.08070424,,,,,,down,0,1.6799,,-0.176851824,-0.279629686,1,0,0,0,20,20,134,1,geliefd,images/br_geliefd.png,images/cb_geliefd.png,0,,,,,,,,,,,,,,,,,,,,,,
,,,,,00086,2023-10-26_18h57.30.577,vbt_B1_day4,2022.2.4,Win32,59.08070424,,,,,,down,0,6.9644,,-0.176851824,-0.279629686,1,0,0,0,21,21,38,1,baai,images/br_baai.png,images/cb_baai.png,0,,,,,,,,,,,,,,,,,,,,,,
,,,,,00086,2023-10-26_18h57.30.577,vbt_B1_day4,2022.2.4,Win32,59.08070424,,,,,,down,0,4.4218,,-0.176851824,-0.279629686,1,0,0,0,22,22,196,1,nakijken,images/br_nakijken.png,images/cb_nakijken.png,0,,,,,,,,,,,,,,,,,,,,,,
,,,,,00086,2023-10-26_18h57.30.577,vbt_B1_day4,2022.2.4,Win32,59.08070424,,,,,,down,0,1.9852,,-0.176851824,-0.279629686,1,0,0,0,23,23,92,1,geheim,images/br_geheim.png,images/cb_geheim.png,0,,,,,,,,,,,,,,,,,,,,,,
,,,,,00086,2023-10-26_18h57.30.577,vbt_B1_day4,2022.2.4,Win32,59.08070424,,,,,,down,0,4.9361,,-0.176851824,-0.279629686,1,0,0,0,24,24,3,1,mand,images/br_mand.png,images/cb_mand.png,0,,,,,,,,,,,,,,,,,,,,,,
,,,,,00086,2023-10-26_18h57.30.577,vbt_B1_day4,2022.2.4,Win32,59.08070424,,,,,,down,0,0.3007,,-0.176851824,-0.279629686,1,0,0,0,25,25,56,1,traag,images/br_traag.png,images/cb_traag.png,0,,,,,,,,,,,,,,,,,,,,,,
,,,,,00086,2023-10-26_18h57.30.577,vbt_B1_day4,2022.2.4,Win32,59.08070424,,,,,,down,0,0.3922,,-0.176851824,-0.279629686,1,0,0,0,26,26,8,1,knie,images/br_knie.png,images/cb_knie.png,0,,,,,,,,,,,,,,,,,,,,,,
,,,,,00086,2023-10-26_18h57.30.577,vbt_B1_day4,2022.2.4,Win32,59.08070424,,,,,,down,0,1.4372,,-0.176851824,-0.279629686,1,0,0,0,27,27,17,1,taal,images/br_taal.png,images/cb_taal.png,0,,,,,,,,,,,,,,,,,,,,,,
,,,,,00086,2023-10-26_18h57.30.577,vbt_B1_day4,2022.2.4,Win32,59.08070424,,,,,,down,0,0.441,,-0.176851824,-0.279629686,1,0,0,0,28,28,52,1,wagon,images/br_wagon.png,images/cb_wagon.png,0,,,,,,,,,,,,,,,,,,,,,,
,,,,,00086,2023-10-26_18h57.30.577,vbt_B1_day4,2022.2.4,Win32,59.08070424,,,,,,down,0,2.319,,-0.176851824,-0.279629686,1,0,0,0,29,29,198,1,bedoelen,images/br_bedoelen.png,images/cb_bedoelen.png,0,,,,,,,,,,,,,,,,,,,,,,
,,,,,00086,2023-10-26_18h57.30.577,vbt_B1_day4,2022.2.4,Win32,59.08070424,,,,,,down,0,2.997,,-0.176851824,-0.279629686,1,0,0,0,30,30,63,1,flirt,images/br_flirt.png,images/cb_flirt.png,0,,,,,,,,,,,,,,,,,,,,,,
,,,,,00086,2023-10-26_18h57.30.577,vbt_B1_day4,2022.2.4,Win32,59.08070424,,,,,,down,0,7.6269,,-0.034259203,-0.137037065,1,0,0,0,31,31,185,1,mijnheer,images/br_mijnheer.png,images/cb_mijnheer.png,1,mijnheer,,,,,,,,,,,,,,,,,,,,,
,,,,,00086,2023-10-26_18h57.30.577,vbt_B1_day4,2022.2.4,Win32,59.08070424,,,,,,down,0,2.5689,,-0.034259203,-0.137037065,1,0,0,0,32,32,146,1,opkomen,images/br_opkomen.png,images/cb_opkomen.png,1,opkomen,,,,,,,,,,,,,,,,,,,,,
,,,,,00086,2023-10-26_18h57.30.577,vbt_B1_day4,2022.2.4,Win32,59.08070424,,,,,,down,0,2.6171,,-0.034259203,-0.137037065,1,0,0,0,33,33,101,1,staren,images/br_staren.png,images/cb_staren.png,0,,,,,,,,,,,,,,,,,,,,,,
,,,,,00086,2023-10-26_18h57.30.577,vbt_B1_day4,2022.2.4,Win32,59.08070424,,,,,,down,0,3.6558,,-0.034259203,-0.137037065,1,0,0,0,34,34,173,1,apparaat,images/br_apparaat.png,images/cb_apparaat.png,0,,,,,,,,,,,,,,,,,,,,,,
,,,,,00086,2023-10-26_18h57.30.577,vbt_B1_day4,2022.2.4,Win32,59.08070424,,,,,,down,0,2.4677,,-0.034259203,-0.137037065,1,0,0,0,35,35,44,1,flits,images/br_flits.png,images/cb_flits.png,0,,,,,,,,,,,,,,,,,,,,,,
,,,,,00086,2023-10-26_18h57.30.577,vbt_B1_day4,2022.2.4,Win32,59.08070424,,,,,,down,0,0.1345,,-0.034259203,-0.137037065,1,0,0,0,36,36,11,1,mode,images/br_mode.png,images/cb_mode.png,0,,,,,,,,,,,,,,,,,,,,,,
,,,,,00086,2023-10-26_18h57.30.577,vbt_B1_day4,2022.2.4,Win32,59.08070424,,,,,,down,0,0.6675,,-0.034259203,-0.137037065,1,0,0,0,37,37,12,1,kust,images/br_kust.png,images/cb_kust.png,0,,,,,,,,,,,,,,,,,,,,,,
,,,,,00086,2023-10-26_18h57.30.577,vbt_B1_day4,2022.2.4,Win32,59.08070424,,,,,,down,0,0.0385,,-0.034259203,-0.137037065,1,0,0,0,38,38,30,1,uien,images/br_uien.png,images/cb_uien.png,0,,,,,,,,,,,,,,,,,,,,,,
,,,,,00086,2023-10-26_18h57.30.577,vbt_B1_day4,2022.2.4,Win32,59.08070424,,,,,,down,0,0.1005,,-0.034259203,-0.137037065,1,0,0,0,39,39,75,1,snoep,images/br_snoep.png,images/cb_snoep.png,0,,,,,,,,,,,,,,,,,,,,,,
,,,,,00086,2023-10-26_18h57.30.577,vbt_B1_day4,2022.2.4,Win32,59.08070424,,,,,,down,0,0.4348,,-0.034259203,-0.137037065,1,0,0,0,40,40,6,1,diep,images/br_diep.png,images/cb_diep.png,0,,,,,,,,,,,,,,,,,,,,,,
,,,,,00086,2023-10-26_18h57.30.577,vbt_B1_day4,2022.2.4,Win32,59.08070424,,,,,,down,0,1.1004,,-0.034259203,-0.137037065,1,0,0,0,41,41,37,1,mijn,images/br_mijn.png,images/cb_mijn.png,0,,,,,,,,,,,,,,,,,,,,,,
,,,,,00086,2023-10-26_18h57.30.577,vbt_B1_day4,2022.2.4,Win32,59.08070424,,,,,,down,0,0.4358,,-0.034259203,-0.137037065,1,0,0,0,42,42,36,1,vuur,images/br_vuur.png,images/cb_vuur.png,0,,,,,,,,,,,,,,,,,,,,,,
,,,,,00086,2023-10-26_18h57.30.577,vbt_B1_day4,2022.2.4,Win32,59.08070424,,,,,,down,0,3.8839,,-0.034259203,-0.137037065,1,0,0,0,43,43,60,1,jasje,images/br_jasje.png,images/cb_jasje.png,0,,,,,,,,,,,,,,,,,,,,,,
,,,,,00086,2023-10-26_18h57.30.577,vbt_B1_day4,2022.2.4,Win32,59.08070424,,,,,,down,0,5.7199,,-0.034259203,-0.137037065,1,0,0,0,44,44,165,1,feestdag,images/br_feestdag.png,images/cb_feestdag.png,0,,,,,,,,,,,,,,,,,,,,,,
,,,,,00086,2023-10-26_18h57.30.577,vbt_B1_day4,2022.2.4,Win32,59.08070424,,,,,,down,0,2.0689,,-0.034259203,-0.137037065,1,0,0,0,45,45,171,1,aarzelen,images/br_aarzelen.png,images/cb_aarzelen.png,0,,,,,,,,,,,,,,,,,,,,,,
,,,,,00086,2023-10-26_18h57.30.577,vbt_B1_day4,2022.2.4,Win32,59.08070424,,,,,,down,0,3.4746,,-0.034259203,-0.137037065,1,0,0,0,46,46,163,1,schuilen,images/br_schuilen.png,images/cb_schuilen.png,0,,,,,,,,,,,,,,,,,,,,,,
,,,,,00086,2023-10-26_18h57.30.577,vbt_B1_day4,2022.2.4,Win32,59.08070424,,,,,,down,0,1.6399,,-0.034259203,-0.137037065,1,0,0,0,47,47,108,1,excuus,images/br_excuus.png,images/cb_excuus.png,0,,,,,,,,,,,,,,,,,,,,,,
,,,,,00086,2023-10-26_18h57.30.577,vbt_B1_day4,2022.2.4,Win32,59.08070424,,,,,,down,0,4.2523,,-0.034259203,-0.137037065,1,0,0,0,48,48,104,1,zweven,images/br_zweven.png,images/cb_zweven.png,1,zweven,,,,,,,,,,,,,,,,,,,,,
,,,,,00086,2023-10-26_18h57.30.577,vbt_B1_day4,2022.2.4,Win32,59.08070424,,,,,,down,0,0.0014,,-0.034259203,-0.137037065,1,0,0,0,49,49,102,1,legaal,images/br_legaal.png,images/cb_legaal.png,0,,,,,,,,,,,,,,,,,,,,,,
,,,,,00086,2023-10-26_18h57.30.577,vbt_B1_day4,2022.2.4,Win32,59.08070424,,,,,,down,0,1.4925,,-0.034259203,-0.137037065,1,0,0,0,50,50,129,1,verhaal,images/br_verhaal.png,images/cb_verhaal.png,0,,,,,,,,,,,,,,,,,,,,,,
,,,,,00086,2023-10-26_18h57.30.577,vbt_B1_day4,2022.2.4,Win32,59.08070424,,,,,,down,0,0.1545,,-0.034259203,-0.137037065,1,0,0,0,51,51,16,1,ziek,images/br_ziek.png,images/cb_ziek.png,0,,,,,,,,,,,,,,,,,,,,,,
,,,,,00086,2023-10-26_18h57.30.577,vbt_B1_day4,2022.2.4,Win32,59.08070424,,,,,,down,0,0.5646,,-0.034259203,-0.137037065,1,0,0,0,52,52,199,1,beseffen,images/br_beseffen.png,images/cb_beseffen.png,0,,,,,,,,,,,,,,,,,,,,,,
,,,,,00086,2023-10-26_18h57.30.577,vbt_B1_day4,2022.2.4,Win32,59.08070424,,,,,,down,0,6.2049,,-0.034259203,-0.137037065,1,0,0,0,53,53,195,1,middelen,images/br_middelen.png,images/cb_middelen.png,0,,,,,,,,,,,,,,,,,,,,,,
,,,,,00086,2023-10-26_18h57.30.577,vbt_B1_day4,2022.2.4,Win32,59.08070424,,,,,,down,0,1.0339,,-0.034259203,-0.137037065,1,0,0,0,54,54,1,1,zaal,images/br_zaal.png,images/cb_zaal.png,0,,,,,,,,,,,,,,,,,,,,,,
,,,,,00086,2023-10-26_18h57.30.577,vbt_B1_day4,2022.2.4,Win32,59.08070424,,,,,,down,0,1.6977,,-0.034259203,-0.137037065,1,0,0,0,55,55,158,1,innemen,images/br_innemen.png,images/cb_innemen.png,0,,,,,,,,,,,,,,,,,,,,,,
,,,,,00086,2023-10-26_18h57.30.577,vbt_B1_day4,2022.2.4,Win32,59.08070424,,,,,,down,0,2.5839,,-0.034259203,-0.137037065,1,0,0,0,56,56,162,1,uitdelen,images/br_uitdelen.png,images/cb_uitdelen.png,0,,,,,,,,,,,,,,,,,,,,,,
,,,,,00086,2023-10-26_18h57.30.577,vbt_B1_day4,2022.2.4,Win32,59.08070424,,,,,,down,0,0.0349,,-0.034259203,-0.137037065,1,0,0,0,57,57,139,1,stiekem,images/br_stiekem.png,images/cb_stiekem.png,0,,,,,,,,,,,,,,,,,,,,,,
,,,,,00086,2023-10-26_18h57.30.577,vbt_B1_day4,2022.2.4,Win32,59.08070424,,,,,,down,0,0.5193,,-0.034259203,-0.137037065,1,0,0,0,58,58,31,1,poes,images/br_poes.png,images/cb_poes.png,0,,,,,,,,,,,,,,,,,,,,,,
,,,,,00086,2023-10-26_18h57.30.577,vbt_B1_day4,2022.2.4,Win32,59.08070424,,,,,,down,0,0.5779,,-0.034259203,-0.137037065,1,0,0,0,59,59,128,1,prikken,images/br_prikken.png,images/cb_prikken.png,0,,,,,,,,,,,,,,,,,,,,,,
,,,,,00086,2023-10-26_18h57.30.577,vbt_B1_day4,2022.2.4,Win32,59.08070424,,,,,,down,0,1.5623,,-0.034259203,-0.137037065,1,0,0,0,60,60,191,1,opheffen,images/br_opheffen.png,images/cb_opheffen.png,0,,,,,,,,,,,,,,,,,,,,,,
,,,,,00086,2023-10-26_18h57.30.577,vbt_B1_day4,2022.2.4,Win32,59.08070424,,,,,,down,0,0.388,,-0.034259203,-0.137037065,1,0,0,0,61,61,89,1,slapen,images/br_slapen.png,images/cb_slapen.png,0,,,,,,,,,,,,,,,,,,,,,,
,,,,,00086,2023-10-26_18h57.30.577,vbt_B1_day4,2022.2.4,Win32,59.08070424,,,,,,down,0,1.2673,,-0.034259203,-0.137037065,1,0,0,0,62,62,180,1,openbaar,images/br_openbaar.png,images/cb_openbaar.png,0,,,,,,,,,,,,,,,,,,,,,,
,,,,,00086,2023-10-26_18h57.30.577,vbt_B1_day4,2022.2.4,Win32,59.08070424,,,,,,down,0,5.0141,,-0.034259203,-0.137037065,1,0,0,0,63,63,159,1,sufferd,images/br_sufferd.png,images/cb_sufferd.png,0,,,,,,,,,,,,,,,,,,,,,,
,,,,,00086,2023-10-26_18h57.30.577,vbt_B1_day4,2022.2.4,Win32,59.08070424,,,,,,down,0,3.4682,,-0.034259203,-0.137037065,1,0,0,0,64,64,94,1,oceaan,images/br_oceaan.png,images/cb_oceaan.png,0,,,,,,,,,,,,,,,,,,,,,,
,,,,,00086,2023-10-26_18h57.30.577,vbt_B1_day4,2022.2.4,Win32,59.08070424,,,,,,down,0,2.5345,,-0.034259203,-0.137037065,1,0,0,0,65,65,149,1,redding,images/br_redding.png,images/cb_redding.png,0,,,,,,,,,,,,,,,,,,,,,,
,,,,,00086,2023-10-26_18h57.30.577,vbt_B1_day4,2022.2.4,Win32,59.08070424,,,,,,down,0,0.3847,,-0.034259203,-0.137037065,1,0,0,0,66,66,137,1,trekker,images/br_trekker.png,images/cb_trekker.png,0,,,,,,,,,,,,,,,,,,,,,,
,,,,,00086,2023-10-26_18h57.30.577,vbt_B1_day4,2022.2.4,Win32,59.08070424,,,,,,down,0,1.8948,,-0.034259203,-0.137037065,1,0,0,0,67,67,138,1,akkoord,images/br_akkoord.png,images/cb_akkoord.png,0,,,,,,,,,,,,,,,,,,,,,,
,,,,,00086,2023-10-26_18h57.30.577,vbt_B1_day4,2022.2.4,Win32,59.08070424,,,,,,down,0,0.6716,,-0.034259203,-0.137037065,1,0,0,0,68,68,172,1,weigeren,images/br_weigeren.png,images/cb_weigeren.png,0,,,,,,,,,,,,,,,,,,,,,,
,,,,,00086,2023-10-26_18h57.30.577,vbt_B1_day4,2022.2.4,Win32,59.08070424,,,,,,down,0,1.4947,,-0.034259203,-0.137037065,1,0,0,0,69,69,176,1,techniek,images/br_techniek.png,images/cb_techniek.png,0,,,,,,,,,,,,,,,,,,,,,,
,,,,,00086,2023-10-26_18h57.30.577,vbt_B1_day4,2022.2.4,Win32,59.08070424,,,,,,down,0,0.2501,,-0.034259203,-0.137037065,1,0,0,0,70,70,77,1,woede,images/br_woede.png,images/cb_woede.png,0,,,,,,,,,,,,,,,,,,,,,,
,,,,,00086,2023-10-26_18h57.30.577,vbt_B1_day4,2022.2.4,Win32,59.08070424,,,,,,down,0,0.7613,,-0.034259203,-0.137037065,1,0,0,0,71,71,41,1,maken,images/br_maken.png,images/cb_maken.png,0,,,,,,,,,,,,,,,,,,,,,,
,,,,,00086,2023-10-26_18h57.30.577,vbt_B1_day4,2022.2.4,Win32,59.08070424,,,,,,down,0,5.0757,,-0.034259203,-0.137037065,1,0,0,0,72,72,26,1,leuk,images/br_leuk.png,images/cb_leuk.png,1,leuk,,,,,,,,,,,,,,,,,,,,,
,,,,,00086,2023-10-26_18h57.30.577,vbt_B1_day4,2022.2.4,Win32,59.08070424,,,,,,down,0,7.7011,,-0.034259203,-0.137037065,1,0,0,0,73,73,145,1,invloed,images/br_invloed.png,images/cb_invloed.png,1,invloed,,,,,,,,,,,,,,,,,,,,,
,,,,,00086,2023-10-26_18h57.30.577,vbt_B1_day4,2022.2.4,Win32,59.08070424,,,,,,down,0,1.5275,,-0.034259203,-0.137037065,1,0,0,0,74,74,111,1,ticket,images/br_ticket.png,images/cb_ticket.png,0,,,,,,,,,,,,,,,,,,,,,,
,,,,,00086,2023-10-26_18h57.30.577,vbt_B1_day4,2022.2.4,Win32,59.08070424,,,,,,down,0,2.7015,,-0.034259203,-0.137037065,1,0,0,0,75,75,54,1,gebit,images/br_gebit.png,images/cb_gebit.png,0,,,,,,,,,,,,,,,,,,,,,,
,,,,,00086,2023-10-26_18h57.30.577,vbt_B1_day4,2022.2.4,Win32,59.08070424,,,,,,down,0,0.3675,,-0.034259203,-0.137037065,0,0,1,0,76,76,93,1,waarop,images/br_waarop.png,images/cb_waarop.png,0,,,,,,,,,,,,,,,,,,,,,,
,,,,,00086,2023-10-26_18h57.30.577,vbt_B1_day4,2022.2.4,Win32,59.08070424,,,,,,down,0,2.6534,,-0.265740712,-0.109259288,0,0,1,0,77,77,197,1,spanning,images/br_spanning.png,images/cb_spanning.png,0,,,,,,,,,,,,,,,,,,,,,,
,,,,,00086,2023-10-26_18h57.30.577,vbt_B1_day4,2022.2.4,Win32,59.08070424,,,,,,down,0,3.5133,,-0.089814758,0.048148134,1,0,0,0,78,78,121,1,twijfel,images/br_twijfel.png,images/cb_twijfel.png,0,,,,,,,,,,,,,,,,,,,,,,
,,,,,00086,2023-10-26_18h57.30.577,vbt_B1_day4,2022.2.4,Win32,59.08070424,,,,,,down,0,0.9227,,-0.089814758,0.048148134,1,0,0,0,79,79,109,1,totaal,images/br_totaal.png,images/cb_totaal.png,0,,,,,,,,,,,,,,,,,,,,,,
,,,,,00086,2023-10-26_18h57.30.577,vbt_B1_day4,2022.2.4,Win32,59.08070424,,,,,,down,0,0.5576,,-0.089814758,0.048148134,1,0,0,0,80,80,103,1,joggen,images/br_joggen.png,images/cb_joggen.png,0,,,,,,,,,,,,,,,,,,,,,,
,,,,,00086,2023-10-26_18h57.30.577,vbt_B1_day4,2022.2.4,Win32,59.08070424,,,,,,down,0,0.4784,,-0.089814758,0.048148134,1,0,0,0,81,81,174,1,stemming,images/br_stemming.png,images/cb_stemming.png,0,,,,,,,,,,,,,,,,,,,,,,
,,,,,00086,2023-10-26_18h57.30.577,vbt_B1_day4,2022.2.4,Win32,59.08070424,,,,,,down,0,3.2174,,-0.089814758,0.048148134,1,0,0,0,82,82,189,1,aanraden,images/br_aanraden.png,images/cb_aanraden.png,0,,,,,,,,,,,,,,,,,,,,,,
,,,,,00086,2023-10-26_18h57.30.577,vbt_B1_day4,2022.2.4,Win32,59.08070424,,,,,,down,0,1.5896,,-0.089814758,0.048148134,1,0,0,0,83,83,183,1,getuigen,images/br_getuigen.png,images/cb_getuigen.png,0,,,,,,,,,,,,,,,,,,,,,,
,,,,,00086,2023-10-26_18h57.30.577,vbt_B1_day4,2022.2.4,Win32,59.08070424,,,,,,down,0,0.8846,,-0.089814758,0.048148134,1,0,0,0,84,84,34,1,vorm,images/br_vorm.png,images/cb_vorm.png,0,,,,,,,,,,,,,,,,,,,,,,
,,,,,00086,2023-10-26_18h57.30.577,vbt_B1_day4,2022.2.4,Win32,59.08070424,,,,,,down,0,1.7849,,-0.254629601,0.070370356,1,0,0,0,85,85,27,1,dans,images/br_dans.png,images/cb_dans.png,1,dans,,,,,,,,,,,,,,,,,,,,,
,,,,,00086,2023-10-26_18h57.30.577,vbt_B1_day4,2022.2.4,Win32,59.08070424,,,,,,down,0,0.1838,,-0.254629601,0.070370356,1,0,0,0,86,86,113,1,koppen,images/br_koppen.png,images/cb_koppen.png,0,,,,,,,,,,,,,,,,,,,,,,
,,,,,00086,2023-10-26_18h57.30.577,vbt_B1_day4,2022.2.4,Win32,59.08070424,,,,,,down,0,0.7182,,-0.254629601,0.070370356,1,0,0,0,87,87,136,1,waarbij,images/br_waarbij.png,images/cb_waarbij.png,0,,,,,,,,,,,,,,,,,,,,,,
,,,,,00086,2023-10-26_18h57.30.577,vbt_B1_day4,2022.2.4,Win32,59.08070424,,,,,,down,0,3.3183,,-0.254629601,0.070370356,1,0,0,0,88,88,47,1,kabel,images/br_kabel.png,images/cb_kabel.png,0,,,,,,,,,,,,,,,,,,,,,,
,,,,,00086,2023-10-26_18h57.30.577,vbt_B1_day4,2022.2.4,Win32,59.08070424,,,,,,down,0,0.303,,-0.254629601,0.070370356,1,0,0,0,89,89,4,1,moes,images/br_moes.png,images/cb_moes.png,0,,,,,,,,,,,,,,,,,,,,,,
,,,,,00086,2023-10-26_18h57.30.577,vbt_B1_day4,2022.2.4,Win32,59.08070424,,,,,,down,0,0.3077,,-0.254629601,0.070370356,1,0,0,0,90,90,0,1,slak,images/br_slak.png,images/cb_slak.png,0,,,,,,,,,,,,,,,,,,,,,,
,,,,,00086,2023-10-26_18h57.30.577,vbt_B1_day4,2022.2.4,Win32,59.08070424,,,,,,down,0,0.3014,,-0.254629601,0.070370356,1,0,0,0,91,91,20,1,site,images/br_site.png,images/cb_site.png,0,,,,,,,,,,,,,,,,,,,,,,
,,,,,00086,2023-10-26_18h57.30.577,vbt_B1_day4,2022.2.4,Win32,59.08070424,,,,,,down,0,0.634,,-0.254629601,0.070370356,1,0,0,0,92,92,150,1,gegeven,images/br_gegeven.png,images/cb_gegeven.png,0,,,,,,,,,,,,,,,,,,,,,,
,,,,,00086,2023-10-26_18h57.30.577,vbt_B1_day4,2022.2.4,Win32,59.08070424,,,,,,down,0,0.6027,,-0.254629601,0.070370356,1,0,0,0,93,93,148,1,smullen,images/br_smullen.png,images/cb_smullen.png,0,,,,,,,,,,,,,,,,,,,,,,
,,,,,00086,2023-10-26_18h57.30.577,vbt_B1_day4,2022.2.4,Win32,59.08070424,,,,,,down,0,0.1134,,-0.254629601,0.070370356,1,0,0,0,94,94,117,1,kennis,images/br_kennis.png,images/cb_kennis.png,0,,,,,,,,,,,,,,,,,,,,,,
,,,,,00086,2023-10-26_18h57.30.577,vbt_B1_day4,2022.2.4,Win32,59.08070424,,,,,,down,0,1.6848,,-0.254629601,0.070370356,1,0,0,0,95,95,65,1,parel,images/br_parel.png,images/cb_parel.png,1,parel,,,,,,,,,,,,,,,,,,,,,
,,,,,00086,2023-10-26_18h57.30.577,vbt_B1_day4,2022.2.4,Win32,59.08070424,,,,,,down,0,1.1108,,0.147222222,-0.127777778,1,0,0,0,96,96,119,1,liefje,images/br_liefje.png,images/cb_liefje.png,0,,,,,,,,,,,,,,,,,,,,,,
,,,,,00086,2023-10-26_18h57.30.577,vbt_B1_day4,2022.2.4,Win32,59.08070424,,,,,,down,0,0.1108,,0.147222222,-0.127777778,1,0,0,0,97,97,53,1,baron,images/br_baron.png,images/cb_baron.png,0,,,,,,,,,,,,,,,,,,,,,,
,,,,,00086,2023-10-26_18h57.30.577,vbt_B1_day4,2022.2.4,Win32,59.08070424,,,,,,down,0,1.933,,0.147222222,-0.127777778,1,0,0,0,98,98,83,1,mening,images/br_mening.png,images/cb_mening.png,0,,,,,,,,,,,,,,,,,,,,,,
,,,,,00086,2023-10-26_18h57.30.577,vbt_B1_day4,2022.2.4,Win32,59.08070424,,,,,,down,0,0.1501,,0.147222222,-0.127777778,1,0,0,0,99,99,125,1,aanzien,images/br_aanzien.png,images/cb_aanzien.png,0,,,,,,,,,,,,,,,,,,,,,,
,,,,,00086,2023-10-26_18h57.30.577,vbt_B1_day4,2022.2.4,Win32,59.08070424,,,,,,down,0,0.0454,,0.147222222,-0.127777778,1,0,0,0,100,100,21,1,mist,images/br_mist.png,images/cb_mist.png,0,,,,,,,,,,,,,,,,,,,,,,
,,,,,00086,2023-10-26_18h57.30.577,vbt_B1_day4,2022.2.4,Win32,59.08070424,,,,,,down,0,1.8524,,0.147222222,-0.127777778,1,0,0,0,101,101,155,1,gerucht,images/br_gerucht.png,images/cb_gerucht.png,0,,,,,,,,,,,,,,,,,,,,,,
,,,,,00086,2023-10-26_18h57.30.577,vbt_B1_day4,2022.2.4,Win32,59.08070424,,,,,,down,0,0.2453,,0.147222222,-0.127777778,1,0,0,0,102,102,46,1,jagen,images/br_jagen.png,images/cb_jagen.png,0,,,,,,,,,,,,,,,,,,,,,,
,,,,,00086,2023-10-26_18h57.30.577,vbt_B1_day4,2022.2.4,Win32,59.08070424,,,,,,down,0,0.8438,,0.147222222,-0.127777778,1,0,0,0,103,103,39,1,laag,images/br_laag.png,images/cb_laag.png,0,,,,,,,,,,,,,,,,,,,,,,
,,,,,00086,2023-10-26_18h57.30.577,vbt_B1_day4,2022.2.4,Win32,59.08070424,,,,,,down,0,0.1097,,0.147222222,-0.127777778,1,0,0,0,104,104,69,1,waken,images/br_waken.png,images/cb_waken.png,0,,,,,,,,,,,,,,,,,,,,,,
,,,,,00086,2023-10-26_18h57.30.577,vbt_B1_day4,2022.2.4,Win32,59.08070424,,,,,,down,0,2.7286,,0.147222222,-0.127777778,1,0,0,0,105,105,114,1,vullen,images/br_vullen.png,images/cb_vullen.png,0,,,,,,,,,,,,,,,,,,,,,,
,,,,,00086,2023-10-26_18h57.30.577,vbt_B1_day4,2022.2.4,Win32,59.08070424,,,,,,down,0,0.4336,,0.147222222,-0.127777778,1,0,0,0,106,106,61,1,groen,images/br_groen.png,images/cb_groen.png,0,,,,,,,,,,,,,,,,,,,,,,
,,,,,00086,2023-10-26_18h57.30.577,vbt_B1_day4,2022.2.4,Win32,59.08070424,,,,,,down,0,0.6026,,0.147222222,-0.127777778,1,0,0,0,107,107,42,1,bleek,images/br_bleek.png,images/cb_bleek.png,0,,,,,,,,,,,,,,,,,,,,,,
,,,,,00086,2023-10-26_18h57.30.577,vbt_B1_day4,2022.2.4,Win32,59.08070424,,,,,,down,0,0.5604,,0.147222222,-0.127777778,1,0,0,0,108,108,29,1,baas,images/br_baas.png,images/cb_baas.png,0,,,,,,,,,,,,,,,,,,,,,,
,,,,,00086,2023-10-26_18h57.30.577,vbt_B1_day4,2022.2.4,Win32,59.08070424,,,,,,down,0,0.9847,,0.147222222,-0.127777778,1,0,0,0,109,109,62,1,knaap,images/br_knaap.png,images/cb_knaap.png,0,,,,,,,,,,,,,,,,,,,,,,
,,,,,00086,2023-10-26_18h57.30.577,vbt_B1_day4,2022.2.4,Win32,59.08070424,,,,,,down,0,5.4577,,0.147222222,-0.127777778,1,0,0,0,110,110,40,1,schep,images/br_schep.png,images/cb_schep.png,0,,,,,,,,,,,,,,,,,,,,,,
,,,,,00086,2023-10-26_18h57.30.577,vbt_B1_day4,2022.2.4,Win32,59.08070424,,,,,,down,0,3.0016,,0.147222222,-0.127777778,1,0,0,0,111,111,116,1,besmet,images/br_besmet.png,images/cb_besmet.png,0,,,,,,,,,,,,,,,,,,,,,,
,,,,,00086,2023-10-26_18h57.30.577,vbt_B1_day4,2022.2.4,Win32,59.08070424,,,,,,down,0,0.4011,,0.147222222,-0.127777778,1,0,0,0,112,112,169,1,oprotten,images/br_oprotten.png,images/cb_oprotten.png,0,,,,,,,,,,,,,,,,,,,,,,
,,,,,00086,2023-10-26_18h57.30.577,vbt_B1_day4,2022.2.4,Win32,59.08070424,,,,,,down,0,1.256,,0.147222222,-0.127777778,1,0,0,0,113,113,71,1,bever,images/br_bever.png,images/cb_bever.png,0,,,,,,,,,,,,,,,,,,,,,,
,,,,,00086,2023-10-26_18h57.30.577,vbt_B1_day4,2022.2.4,Win32,59.08070424,,,,,,down,0,1.3283,,0.147222222,-0.127777778,1,0,0,0,114,114,144,1,eetlust,images/br_eetlust.png,images/cb_eetlust.png,1,eetlust,,,,,,,,,,,,,,,,,,,,,
,,,,,00086,2023-10-26_18h57.30.577,vbt_B1_day4,2022.2.4,Win32,59.08070424,,,,,,down,0,1.2271,,0.117592621,-0.170370399,1,0,0,0,115,115,97,1,loyaal,images/br_loyaal.png,images/cb_loyaal.png,0,,,,,,,,,,,,,,,,,,,,,,
,,,,,00086,2023-10-26_18h57.30.577,vbt_B1_day4,2022.2.4,Win32,59.08070424,,,,,,down,0,6.636,,0.117592621,-0.170370399,1,0,0,0,116,116,105,1,wijlen,images/br_wijlen.png,images/cb_wijlen.png,1,wijlen,,,,,,,,,,,,,,,,,,,,,
,,,,,00086,2023-10-26_18h57.30.577,vbt_B1_day4,2022.2.4,Win32,59.08070424,,,,,,down,0,1.1516,,0.117592621,-0.170370399,1,0,0,0,117,117,79,1,nodig,images/br_nodig.png,images/cb_nodig.png,0,,,,,,,,,,,,,,,,,,,,,,
,,,,,00086,2023-10-26_18h57.30.577,vbt_B1_day4,2022.2.4,Win32,59.08070424,,,,,,down,0,0.1119,,0.117592621,-0.170370399,1,0,0,0,118,118,177,1,maaltijd,images/br_maaltijd.png,images/cb_maaltijd.png,0,,,,,,,,,,,,,,,,,,,,,,
,,,,,00086,2023-10-26_18h57.30.577,vbt_B1_day4,2022.2.4,Win32,59.08070424,,,,,,down,0,4.0212,,0.117592621,-0.170370399,1,0,0,0,119,119,45,1,piste,images/br_piste.png,images/cb_piste.png,0,,,,,,,,,,,,,,,,,,,,,,
,,,,,00086,2023-10-26_18h57.30.577,vbt_B1_day4,2022.2.4,Win32,59.08070424,,,,,,down,0,3.3639,,0.117592621,-0.170370399,0,0,1,0,120,120,72,1,strak,images/br_strak.png,images/cb_strak.png,0,,,,,,,,,,,,,,,,,,,,,,
,,,,,00086,2023-10-26_18h57.30.577,vbt_B1_day4,2022.2.4,Win32,59.08070424,,,,,,down,0,3.4507,,-0.258333333,-0.045370399,1,0,0,0,121,121,43,1,klauw,images/br_klauw.png,images/cb_klauw.png,0,,,,,,,,,,,,,,,,,,,,,,
,,,,,00086,2023-10-26_18h57.30.577,vbt_B1_day4,2022.2.4,Win32,59.08070424,,,,,,down,0,1.1176,,-0.258333333,-0.045370399,1,0,0,0,122,122,179,1,woestijn,images/br_woestijn.png,images/cb_woestijn.png,0,,,,,,,,,,,,,,,,,,,,,,
,,,,,00086,2023-10-26_18h57.30.577,vbt_B1_day4,2022.2.4,Win32,59.08070424,,,,,,down,0,0.4778,,-0.258333333,-0.045370399,1,0,0,0,123,123,87,1,toeval,images/br_toeval.png,images/cb_toeval.png,0,,,,,,,,,,,,,,,,,,,,,,
,,,,,00086,2023-10-26_18h57.30.577,vbt_B1_day4,2022.2.4,Win32,59.08070424,,,,,,down,0,0.5564,,-0.258333333,-0.045370399,1,0,0,0,124,124,48,1,steel,images/br_steel.png,images/cb_steel.png,0,,,,,,,,,,,,,,,,,,,,,,
,,,,,00086,2023-10-26_18h57.30.577,vbt_B1_day4,2022.2.4,Win32,59.08070424,,,,,,down,0,1.0108,,-0.258333333,-0.045370399,1,0,0,0,125,125,141,1,knielen,images/br_knielen.png,images/cb_knielen.png,0,,,,,,,,,,,,,,,,,,,,,,
,,,,,00086,2023-10-26_18h57.30.577,vbt_B1_day4,2022.2.4,Win32,59.08070424,,,,,,down,0,1.0883,,-0.258333333,-0.045370399,1,0,0,0,126,126,66,1,lever,images/br_lever.png,images/cb_lever.png,1,lever,,,,,,,,,,,,,,,,,,,,,
,,,,,00086,2023-10-26_18h57.30.577,vbt_B1_day4,2022.2.4,Win32,59.08070424,,,,,,down,0,5.9821,,-0.025,-0.134259288,1,0,0,0,127,127,160,1,daarheen,images/br_daarheen.png,images/cb_daarheen.png,0,,,,,,,,,,,,,,,,,,,,,,
,,,,,00086,2023-10-26_18h57.30.577,vbt_B1_day4,2022.2.4,Win32,59.08070424,,,,,,down,0,1.3781,,-0.025,-0.134259288,1,0,0,0,128,128,80,1,kanjer,images/br_kanjer.png,images/cb_kanjer.png,0,,,,,,,,,,,,,,,,,,,,,,
,,,,,00086,2023-10-26_18h57.30.577,vbt_B1_day4,2022.2.4,Win32,59.08070424,,,,,,down,0,1.0836,,-0.025,-0.134259288,1,0,0,0,129,129,115,1,kleren,images/br_kleren.png,images/cb_kleren.png,0,,,,,,,,,,,,,,,,,,,,,,
,,,,,00086,2023-10-26_18h57.30.577,vbt_B1_day4,2022.2.4,Win32,59.08070424,,,,,,down,0,0.5684,,-0.025,-0.134259288,1,0,0,0,130,130,74,1,graaf,images/br_graaf.png,images/cb_graaf.png,0,,,,,,,,,,,,,,,,,,,,,,
,,,,,00086,2023-10-26_18h57.30.577,vbt_B1_day4,2022.2.4,Win32,59.08070424,,,,,,down,0,0.3012,,-0.025,-0.134259288,1,0,0,0,131,131,135,1,gedicht,images/br_gedicht.png,images/cb_gedicht.png,0,,,,,,,,,,,,,,,,,,,,,,
,,,,,00086,2023-10-26_18h57.30.577,vbt_B1_day4,2022.2.4,Win32,59.08070424,,,,,,down,0,0.5509,,-0.025,-0.134259288,1,0,0,0,132,132,18,1,blik,images/br_blik.png,images/cb_blik.png,0,,,,,,,,,,,,,,,,,,,,,,
,,,,,00086,2023-10-26_18h57.30.577,vbt_B1_day4,2022.2.4,Win32,59.08070424,,,,,,down,0,1.6274,,-0.025,-0.134259288,1,0,0,0,133,133,33,1,vlek,images/br_vlek.png,images/cb_vlek.png,0,,,,,,,,,,,,,,,,,,,,,,
,,,,,00086,2023-10-26_18h57.30.577,vbt_B1_day4,2022.2.4,Win32,59.08070424,,,,,,down,0,0.5568,,-0.025,-0.134259288,1,0,0,0,134,134,170,1,schatten,images/br_schatten.png,images/cb_schatten.png,0,,,,,,,,,,,,,,,,,,,,,,
,,,,,00086,2023-10-26_18h57.30.577,vbt_B1_day4,2022.2.4,Win32,59.08070424,,,,,,down,0,0.7281,,-0.025,-0.134259288,1,0,0,0,135,135,181,1,toegeven,images/br_toegeven.png,images/cb_toegeven.png,0,,,,,,,,,,,,,,,,,,,,,,
,,,,,00086,2023-10-26_18h57.30.577,vbt_B1_day4,2022.2.4,Win32,59.08070424,,,,,,down,0,2.6849,,-0.025,-0.134259288,1,0,0,0,136,136,67,1,zwart,images/br_zwart.png,images/cb_zwart.png,1,zwart,,,,,,,,,,,,,,,,,,,,,
,,,,,00086,2023-10-26_18h57.30.577,vbt_B1_day4,2022.2.4,Win32,59.08070424,,,,,,down,0,1.6708,,-0.025,-0.134259288,1,0,0,0,137,137,23,1,zout,images/br_zout.png,images/cb_zout.png,0,,,,,,,,,,,,,,,,,,,,,,
,,,,,00086,2023-10-26_18h57.30.577,vbt_B1_day4,2022.2.4,Win32,59.08070424,,,,,,down,0,3.1721,,-0.025,-0.134259288,1,0,0,0,138,138,187,1,opkijken,images/br_opkijken.png,images/cb_opkijken.png,1,opkijken,,,,,,,,,,,,,,,,,,,,,
,,,,,00086,2023-10-26_18h57.30.577,vbt_B1_day4,2022.2.4,Win32,59.08070424,,,,,,down,0,5.3517,,-0.025,-0.134259288,1,0,0,0,139,139,133,1,seizoen,images/br_seizoen.png,images/cb_seizoen.png,0,,,,,,,,,,,,,,,,,,,,,,
,,,,,00086,2023-10-26_18h57.30.577,vbt_B1_day4,2022.2.4,Win32,59.08070424,,,,,,down,0,5.343,,-0.025,-0.134259288,1,0,0,0,140,140,143,1,hechten,images/br_hechten.png,images/cb_hechten.png,0,,,,,,,,,,,,,,,,,,,,,,
,,,,,00086,2023-10-26_18h57.30.577,vbt_B1_day4,2022.2.4,Win32,59.08070424,,,,,,down,0,6.4174,,-0.025,-0.134259288,1,0,0,0,141,141,107,1,maling,images/br_maling.png,images/cb_maling.png,1,maling,,,,,,,,,,,,,,,,,,,,,
,,,,,00086,2023-10-26_18h57.30.577,vbt_B1_day4,2022.2.4,Win32,59.08070424,,,,,,down,0,5.6039,,-0.025,-0.134259288,1,0,0,0,142,142,106,1,zingen,images/br_zingen.png,images/cb_zingen.png,1,zingen,,,,,,,,,,,,,,,,,,,,,
,,,,,00086,2023-10-26_18h57.30.577,vbt_B1_day4,2022.2.4,Win32,59.08070424,,,,,,down,0,2.3446,,-0.025,-0.134259288,1,0,0,0,143,143,122,1,waarvan,images/br_waarvan.png,images/cb_waarvan.png,0,,,,,,,,,,,,,,,,,,,,,,
,,,,,00086,2023-10-26_18h57.30.577,vbt_B1_day4,2022.2.4,Win32,59.08070424,,,,,,down,0,4.4848,,-0.025,-0.134259288,1,0,0,0,144,144,140,1,blijven,images/br_blijven.png,images/cb_blijven.png,0,,,,,,,,,,,,,,,,,,,,,,
,,,,,00086,2023-10-26_18h57.30.577,vbt_B1_day4,2022.2.4,Win32,59.08070424,,,,,,down,0,3.7078,,-0.025,-0.134259288,1,0,0,0,145,145,70,1,ijdel,images/br_ijdel.png,images/cb_ijdel.png,0,,,,,,,,,,,,,,,,,,,,,,
,,,,,00086,2023-10-26_18h57.30.577,vbt_B1_day4,2022.2.4,Win32,59.08070424,,,,,,down,0,0.4521,,-0.025,-0.134259288,1,0,0,0,146,146,84,1,lokken,images/br_lokken.png,images/cb_lokken.png,0,,,,,,,,,,,,,,,,,,,,,,
,,,,,00086,2023-10-26_18h57.30.577,vbt_B1_day4,2022.2.4,Win32,59.08070424,,,,,,down,0,0.477,,-0.025,-0.134259288,1,0,0,0,147,147,22,1,stof,images/br_stof.png,images/cb_stof.png,0,,,,,,,,,,,,,,,,,,,,,,
,,,,,00086,2023-10-26_18h57.30.577,vbt_B1_day4,2022.2.4,Win32,59.08070424,,,,,,down,0,1.9067,,-0.025,-0.134259288,1,0,0,0,148,148,190,1,goedkoop,images/br_goedkoop.png,images/cb_goedkoop.png,0,,,,,,,,,,,,,,,,,,,,,,
,,,,,00086,2023-10-26_18h57.30.577,vbt_B1_day4,2022.2.4,Win32,59.08070424,,,,,,down,0,0.0836,,-0.025,-0.134259288,1,0,0,0,149,149,59,1,kring,images/br_kring.png,images/cb_kring.png,0,,,,,,,,,,,,,,,,,,,,,,
,,,,,00086,2023-10-26_18h57.30.577,vbt_B1_day4,2022.2.4,Win32,59.08070424,,,,,,down,0,0.0899,,-0.025,-0.134259288,1,0,0,0,150,150,9,1,hier,images/br_hier.png,images/cb_hier.png,0,,,,,,,,,,,,,,,,,,,,,,
,,,,,00086,2023-10-26_18h57.30.577,vbt_B1_day4,2022.2.4,Win32,59.08070424,,,,,,down,0,0.5473,,-0.025,-0.134259288,1,0,0,0,151,151,25,1,plek,images/br_plek.png,images/cb_plek.png,1,plek,,,,,,,,,,,,,,,,,,,,,
,,,,,00086,2023-10-26_18h57.30.577,vbt_B1_day4,2022.2.4,Win32,59.08070424,,,,,,down,0,3.33,,-0.025,-0.134259288,1,0,0,0,152,152,186,1,voorraad,images/br_voorraad.png,images/cb_voorraad.png,1,voorraad,,,,,,,,,,,,,,,,,,,,,
,,,,,00086,2023-10-26_18h57.30.577,vbt_B1_day4,2022.2.4,Win32,59.08070424,,,,,,down,0,2.7574,,-0.025,-0.134259288,1,0,0,0,153,153,32,1,palm,images/br_palm.png,images/cb_palm.png,0,,,,,,,,,,,,,,,,,,,,,,
,,,,,00086,2023-10-26_18h57.30.577,vbt_B1_day4,2022.2.4,Win32,59.08070424,,,,,,down,0,5.1676,,-0.025,-0.134259288,1,0,0,0,154,154,131,1,opzicht,images/br_opzicht.png,images/cb_opzicht.png,0,,,,,,,,,,,,,,,,,,,,,,
,,,,,00086,2023-10-26_18h57.30.577,vbt_B1_day4,2022.2.4,Win32,59.08070424,,,,,,down,0,0.7385,,-0.025,-0.134259288,1,0,0,0,155,155,85,1,heilig,images/br_heilig.png,images/cb_heilig.png,0,,,,,,,,,,,,,,,,,,,,,,
,,,,,00086,2023-10-26_18h57.30.577,vbt_B1_day4,2022.2.4,Win32,59.08070424,,,,,,down,0,4.3766,,-0.025,-0.134259288,1,0,0,0,156,156,147,1,komisch,images/br_komisch.png,images/cb_komisch.png,1,komisch,,,,,,,,,,,,,,,,,,,,,
,,,,,00086,2023-10-26_18h57.30.577,vbt_B1_day4,2022.2.4,Win32,59.08070424,,,,,,down,0,3.6515,,-0.025,-0.134259288,1,0,0,0,157,157,156,1,rechten,images/br_rechten.png,images/cb_rechten.png,0,,,,,,,,,,,,,,,,,,,,,,
,,,,,00086,2023-10-26_18h57.30.577,vbt_B1_day4,2022.2.4,Win32,59.08070424,,,,,,down,0,0.1212,,-0.025,-0.134259288,1,0,0,0,158,158,7,1,geld,images/br_geld.png,images/cb_geld.png,0,,,,,,,,,,,,,,,,,,,,,,
,,,,,00086,2023-10-26_18h57.30.577,vbt_B1_day4,2022.2.4,Win32,59.08070424,,,,,,down,0,0.3504,,-0.025,-0.134259288,1,0,0,0,159,159,124,1,bloeien,images/br_bloeien.png,images/cb_bloeien.png,0,,,,,,,,,,,,,,,,,,,,,,
,,,,,00086,2023-10-26_18h57.30.577,vbt_B1_day4,2022.2.4,Win32,59.08070424,,,,,,down,0,0.488,,-0.025,-0.134259288,1,0,0,0,160,160,166,1,strikken,images/br_strikken.png,images/cb_strikken.png,0,,,,,,,,,,,,,,,,,,,,,,
,,,,,00086,2023-10-26_18h57.30.577,vbt_B1_day4,2022.2.4,Win32,59.08070424,,,,,,down,0,1.2625,,-0.025,-0.134259288,1,0,0,0,161,161,168,1,bisschop,images/br_bisschop.png,images/cb_bisschop.png,0,,,,,,,,,,,,,,,,,,,,,,
,,,,,00086,2023-10-26_18h57.30.577,vbt_B1_day4,2022.2.4,Win32,59.08070424,,,,,,down,0,0.4044,,-0.025,-0.134259288,1,0,0,0,162,162,112,1,lukken,images/br_lukken.png,images/cb_lukken.png,0,,,,,,,,,,,,,,,,,,,,,,
,,,,,00086,2023-10-26_18h57.30.577,vbt_B1_day4,2022.2.4,Win32,59.08070424,,,,,,down,0,0.412,,-0.025,-0.134259288,1,0,0,0,163,163,86,1,woning,images/br_woning.png,images/cb_woning.png,0,,,,,,,,,,,,,,,,,,,,,,
,,,,,00086,2023-10-26_18h57.30.577,vbt_B1_day4,2022.2.4,Win32,59.08070424,,,,,,down,0,0.1182,,-0.025,-0.134259288,1,0,0,0,164,164,13,1,kaal,images/br_kaal.png,images/cb_kaal.png,0,,,,,,,,,,,,,,,,,,,,,,
,,,,,00086,2023-10-26_18h57.30.577,vbt_B1_day4,2022.2.4,Win32,59.08070424,,,,,,down,0,3.228,,-0.025925869,-0.137962977,1,0,0,0,165,165,153,1,vervoer,images/br_vervoer.png,images/cb_vervoer.png,0,,,,,,,,,,,,,,,,,,,,,,
,,,,,00086,2023-10-26_18h57.30.577,vbt_B1_day4,2022.2.4,Win32,59.08070424,,,,,,down,0,1.1598,,-0.030555556,-0.138888889,1,0,0,0,166,166,118,1,vinger,images/br_vinger.png,images/cb_vinger.png,0,,,,,,,,,,,,,,,,,,,,,,
,,,,,00086,2023-10-26_18h57.30.577,vbt_B1_day4,2022.2.4,Win32,59.08070424,,,,,,down,0,2.577,,-0.030555556,-0.138888889,1,0,0,0,167,167,88,1,boeien,images/br_boeien.png,images/cb_boeien.png,0,,,,,,,,,,,,,,,,,,,,,,
,,,,,00086,2023-10-26_18h57.30.577,vbt_B1_day4,2022.2.4,Win32,59.08070424,,,,,,down,0,7.0999,,-0.030555556,-0.138888889,1,0,0,0,168,168,123,1,hiervan,images/br_hiervan.png,images/cb_hiervan.png,0,,,,,,,,,,,,,,,,,,,,,,
,,,,,00086,2023-10-26_18h57.30.577,vbt_B1_day4,2022.2.4,Win32,59.08070424,,,,,,down,0,0.8217,,-0.030555556,-0.138888889,1,0,0,0,169,169,126,1,kasteel,images/br_kasteel.png,images/cb_kasteel.png,0,,,,,,,,,,,,,,,,,,,,,,
,,,,,00086,2023-10-26_18h57.30.577,vbt_B1_day4,2022.2.4,Win32,59.08070424,,,,,,down,0,0.7021,,-0.030555556,-0.138888889,1,0,0,0,170,170,2,1,jaar,images/br_jaar.png,images/cb_jaar.png,0,,,,,,,,,,,,,,,,,,,,,,
,,,,,00086,2023-10-26_18h57.30.577,vbt_B1_day4,2022.2.4,Win32,59.08070424,,,,,,down,0,0.8136,,-0.030555556,-0.138888889,1,0,0,0,171,171,151,1,aanzoek,images/br_aanzoek.png,images/cb_aanzoek.png,0,,,,,,,,,,,,,,,,,,,,,,
,,,,,00086,2023-10-26_18h57.30.577,vbt_B1_day4,2022.2.4,Win32,59.08070424,,,,,,down,0,0.4677,,-0.030555556,-0.138888889,1,0,0,0,172,172,193,1,weeshuis,images/br_weeshuis.png,images/cb_weeshuis.png,0,,,,,,,,,,,,,,,,,,,,,,
,,,,,00086,2023-10-26_18h57.30.577,vbt_B1_day4,2022.2.4,Win32,59.08070424,,,,,,down,0,1.5678,,-0.030555556,-0.138888889,1,0,0,0,173,173,35,1,lust,images/br_lust.png,images/cb_lust.png,0,,,,,,,,,,,,,,,,,,,,,,
,,,,,00086,2023-10-26_18h57.30.577,vbt_B1_day4,2022.2.4,Win32,59.08070424,,,,,,down,0,3.134,,-0.030555556,-0.138888889,1,0,0,0,174,174,15,1,soda,images/br_soda.png,images/cb_soda.png,0,,,,,,,,,,,,,,,,,,,,,,
,,,,,00086,2023-10-26_18h57.30.577,vbt_B1_day4,2022.2.4,Win32,59.08070424,,,,,,down,0,4.8338,,-0.030555556,-0.138888889,1,0,0,0,175,175,55,1,praat,images/br_praat.png,images/cb_praat.png,0,,,,,,,,,,,,,,,,,,,,,,
,,,,,00086,2023-10-26_18h57.30.577,vbt_B1_day4,2022.2.4,Win32,59.08070424,,,,,,down,0,0.6351,,-0.030555556,-0.138888889,1,0,0,0,176,176,57,1,steek,images/br_steek.png,images/cb_steek.png,0,,,,,,,,,,,,,,,,,,,,,,
,,,,,00086,2023-10-26_18h57.30.577,vbt_B1_day4,2022.2.4,Win32,59.08070424,,,,,,down,0,0.1181,,-0.030555556,-0.138888889,1,0,0,0,177,177,120,1,klimmen,images/br_klimmen.png,images/cb_klimmen.png,0,,,,,,,,,,,,,,,,,,,,,,
,,,,,00086,2023-10-26_18h57.30.577,vbt_B1_day4,2022.2.4,Win32,59.08070424,,,,,,down,0,2.0679,,-0.030555556,-0.138888889,1,0,0,0,178,178,24,1,jurk,images/br_jurk.png,images/cb_jurk.png,1,jurk,,,,,,,,,,,,,,,,,,,,,
,,,,,00086,2023-10-26_18h57.30.577,vbt_B1_day4,2022.2.4,Win32,59.08070424,,,,,,down,0,0.1571,,-0.030555556,-0.138888889,1,0,0,0,179,179,82,1,muziek,images/br_muziek.png,images/cb_muziek.png,0,,,,,,,,,,,,,,,,,,,,,,
,,,,,00086,2023-10-26_18h57.30.577,vbt_B1_day4,2022.2.4,Win32,59.08070424,,,,,,down,0,0.6018,,-0.030555556,-0.138888889,1,0,0,0,180,180,68,1,schat,images/br_schat.png,images/cb_schat.png,0,,,,,,,,,,,,,,,,,,,,,,
,,,,,00086,2023-10-26_18h57.30.577,vbt_B1_day4,2022.2.4,Win32,59.08070424,,,,,,down,0,0.1495,,-0.030555556,-0.138888889,1,0,0,0,181,181,19,1,geit,images/br_geit.png,images/cb_geit.png,0,,,,,,,,,,,,,,,,,,,,,,
,,,,,00086,2023-10-26_18h57.30.577,vbt_B1_day4,2022.2.4,Win32,59.08070424,,,,,,down,0,5.8001,,-0.016666667,-0.129629644,1,0,0,0,182,182,161,1,attentie,images/br_attentie.png,images/cb_attentie.png,0,,,,,,,,,,,,,,,,,,,,,,
,,,,,00086,2023-10-26_18h57.30.577,vbt_B1_day4,2022.2.4,Win32,59.08070424,,,,,,down,0,2.218,,-0.016666667,-0.129629644,1,0,0,0,183,183,175,1,heengaan,images/br_heengaan.png,images/cb_heengaan.png,0,,,,,,,,,,,,,,,,,,,,,,
,,,,,00086,2023-10-26_18h57.30.577,vbt_B1_day4,2022.2.4,Win32,59.08070424,,,,,,down,0,2.2098,,-0.016666667,-0.129629644,1,0,0,0,184,184,184,1,aandelen,images/br_aandelen.png,images/cb_aandelen.png,1,aandelen,,,,,,,,,,,,,,,,,,,,,
,,,,,00086,2023-10-26_18h57.30.577,vbt_B1_day4,2022.2.4,Win32,59.08070424,,,,,,down,0,1.0396,,-0.016666667,-0.129629644,1,0,0,0,185,185,64,1,wegen,images/br_wegen.png,images/cb_wegen.png,1,wegen,,,,,,,,,,,,,,,,,,,,,
,,,,,00086,2023-10-26_18h57.30.577,vbt_B1_day4,2022.2.4,Win32,59.08070424,,,,,,down,0,0.4457,,-0.016666667,-0.129629644,1,0,0,0,186,186,98,1,kreeft,images/br_kreeft.png,images/cb_kreeft.png,0,,,,,,,,,,,,,,,,,,,,,,
,,,,,00086,2023-10-26_18h57.30.577,vbt_B1_day4,2022.2.4,Win32,59.08070424,,,,,,down,0,0.2511,,-0.016666667,-0.129629644,1,0,0,0,187,187,10,1,leek,images/br_leek.png,images/cb_leek.png,0,,,,,,,,,,,,,,,,,,,,,,
,,,,,00086,2023-10-26_18h57.30.577,vbt_B1_day4,2022.2.4,Win32,59.08070424,,,,,,down,0,9.4866,,-0.016666667,-0.129629644,1,0,0,0,188,188,76,1,afval,images/br_afval.png,images/cb_afval.png,0,,,,,,,,,,,,,,,,,,,,,,
,,,,,00086,2023-10-26_18h57.30.577,vbt_B1_day4,2022.2.4,Win32,59.08070424,,,,,,down,0,0.5677,,-0.016666667,-0.129629644,1,0,0,0,189,189,49,1,laken,images/br_laken.png,images/cb_laken.png,0,,,,,,,,,,,,,,,,,,,,,,
,,,,,00086,2023-10-26_18h57.30.577,vbt_B1_day4,2022.2.4,Win32,59.08070424,,,,,,down,0,1.4845,,-0.016666667,-0.129629644,1,0,0,0,190,190,51,1,samen,images/br_samen.png,images/cb_samen.png,0,,,,,,,,,,,,,,,,,,,,,,
,,,,,00086,2023-10-26_18h57.30.577,vbt_B1_day4,2022.2.4,Win32,59.08070424,,,,,,down,0,4.3519,,-0.016666667,-0.129629644,1,0,0,0,191,191,182,1,bijkomen,images/br_bijkomen.png,images/cb_bijkomen.png,0,,,,,,,,,,,,,,,,,,,,,,
,,,,,00086,2023-10-26_18h57.30.577,vbt_B1_day4,2022.2.4,Win32,59.08070424,,,,,,down,0,2.4517,,-0.016666667,-0.129629644,1,0,0,0,192,192,194,1,driemaal,images/br_driemaal.png,images/cb_driemaal.png,0,,,,,,,,,,,,,,,,,,,,,,
,,,,,00086,2023-10-26_18h57.30.577,vbt_B1_day4,2022.2.4,Win32,59.08070424,,,,,,down,0,2.9174,,-0.016666667,-0.129629644,1,0,0,0,193,193,157,1,uitlaat,images/br_uitlaat.png,images/cb_uitlaat.png,0,,,,,,,,,,,,,,,,,,,,,,
,,,,,00086,2023-10-26_18h57.30.577,vbt_B1_day4,2022.2.4,Win32,59.08070424,,,,,,down,0,2.3625,,-0.016666667,-0.129629644,1,0,0,0,194,194,178,1,huisdier,images/br_huisdier.png,images/cb_huisdier.png,0,,,,,,,,,,,,,,,,,,,,,,
,,,,,00086,2023-10-26_18h57.30.577,vbt_B1_day4,2022.2.4,Win32,59.08070424,,,,,,down,0,1.1732,,-0.016666667,-0.129629644,1,0,0,0,195,195,167,1,eenhoorn,images/br_eenhoorn.png,images/cb_eenhoorn.png,0,,,,,,,,,,,,,,,,,,,,,,
,,,,,00086,2023-10-26_18h57.30.577,vbt_B1_day4,2022.2.4,Win32,59.08070424,,,,,,down,0,0.7523,,-0.016666667,-0.129629644,1,0,0,0,196,196,58,1,tekst,images/br_tekst.png,images/cb_tekst.png,0,,,,,,,,,,,,,,,,,,,,,,
,,,,,00086,2023-10-26_18h57.30.577,vbt_B1_day4,2022.2.4,Win32,59.08070424,,,,,,down,0,1.9211,,-0.016666667,-0.129629644,1,0,0,0,197,197,100,1,geduld,images/br_geduld.png,images/cb_geduld.png,0,,,,,,,,,,,,,,,,,,,,,,
,,,,,00086,2023-10-26_18h57.30.577,vbt_B1_day4,2022.2.4,Win32,59.08070424,,,,,,down,0,0.334,,-0.016666667,-0.129629644,1,0,0,0,198,198,81,1,dubbel,images/br_dubbel.png,images/cb_dubbel.png,0,,,,,,,,,,,,,,,,,,,,,,
,,,,,00086,2023-10-26_18h57.30.577,vbt_B1_day4,2022.2.4,Win32,59.08070424,,,,,,down,0,0.0013,,-0.016666667,-0.129629644,1,0,0,0,199,199,78,1,leren,images/br_leren.png,images/cb_leren.png,0,,,,,,,,,,,,,,,,,,,,,,
,,,,,00086,2023-10-26_18h57.30.577,vbt_B1_day4,2022.2.4,Win32,59.08070424,,,,,,,,,,,,,,,,,,,,,,,,,-0.071296268,0.002777778,1,0,0,,,,,,,,,,,,,,,,
,,,,,00086,2023-10-26_18h57.30.577,vbt_B1_day4,2022.2.4,Win32,59.08070424,,,,,,,,,,,,,,,,,,,,,,,,,,,,,,0.104629686,0.141666667,1,0,0,,,,,,,,,,,
,,,,,00086,2023-10-26_18h57.30.577,vbt_B1_day4,2022.2.4,Win32,59.08070424,,,,,,,,,,,,,,,,,,,,rijp,images/br_rijp.png,images/cb_rijp.png,,rijp,,,,,,,,,,,-0.078703647,-0.038888889,1,0,0,rijp,0,0,0,2,1
,,,,,00086,2023-10-26_18h57.30.577,vbt_B1_day4,2022.2.4,Win32,59.08070424,,,,,,,,,,,,,,,,,,,,mekst,images/br_mekst.png,images/cb_mekst.png,,mekst,,,,,,,,,,,-0.184259245,-0.00648151,1,0,0,mekst,0,1,1,27,1
,,,,,00086,2023-10-26_18h57.30.577,vbt_B1_day4,2022.2.4,Win32,59.08070424,,,,,,,,,,,,,,,,,,,,ezel,images/br_ezel.png,images/cb_ezel.png,,ezel,,,,,,,,,,,-0.080555556,0.004629601,1,0,0,ezel,0,2,2,42,1
,,,,,00086,2023-10-26_18h57.30.577,vbt_B1_day4,2022.2.4,Win32,59.08070424,,,,,,,,,,,,,,,,,,,,fran,images/br_fran.png,images/cb_fran.png,,fran,,,,,,,,,,,-0.258333333,-0.068518533,1,0,0,fran,0,3,3,22,1
,,,,,00086,2023-10-26_18h57.30.577,vbt_B1_day4,2022.2.4,Win32,59.08070424,,,,,,,,,,,,,,,,,,,,waarop,images/br_waarop.png,images/cb_waarop.png,,waarop,,,,,,,,,,,-0.114814758,0.026851824,1,0,0,waarop,0,4,4,9,1
,,,,,00086,2023-10-26_18h57.30.577,vbt_B1_day4,2022.2.4,Win32,59.08070424,,,,,,,,,,,,,,,,,,,,apparaat,images/br_apparaat.png,images/cb_apparaat.png,,apparaat,,,,,,,,,,,-0.128703647,-0.078703732,1,0,0,apparaat,0,5,5,17,1
,,,,,00086,2023-10-26_18h57.30.577,vbt_B1_day4,2022.2.4,Win32,59.08070424,,,,,,,,,,,,,,,,,,,,geliefd,images/br_geliefd.png,images/cb_geliefd.png,,geliefd,,,,,,,,,,,-0.107407379,-0.078703732,1,0,0,geliefd,0,6,6,14,1
,,,,,00086,2023-10-26_18h57.30.577,vbt_B1_day4,2022.2.4,Win32,59.08070424,,,,,,,,,,,,,,,,,,,,noodzaak,images/br_noodzaak.png,images/cb_noodzaak.png,,noodzaak,,,,,,,,,,,-0.15,-0.015740755,1,0,0,noodzaak,0,7,7,56,1
,,,,,00086,2023-10-26_18h57.30.577,vbt_B1_day4,2022.2.4,Win32,59.08070424,,,,,,,,,,,,,,,,,,,,gedicht,images/br_gedicht.png,images/cb_gedicht.png,,gedicht,,,,,,,,,,,-0.123148092,-0.020370399,1,0,0,gedicht,0,8,8,15,1
,,,,,00086,2023-10-26_18h57.30.577,vbt_B1_day4,2022.2.4,Win32,59.08070424,,,,,,,,,,,,,,,,,,,,soda,images/br_soda.png,images/cb_soda.png,,soda,,,,,,,,,,,-0.266666667,-0.037962977,1,0,0,soda,0,9,9,3,1
,,,,,00086,2023-10-26_18h57.30.577,vbt_B1_day4,2022.2.4,Win32,59.08070424,,,,,,,,,,,,,,,,,,,,zwek,images/br_zwek.png,images/cb_zwek.png,,zwek,,,,,,,,,,,-0.008333333,0.060185157,1,0,0,zwek,0,10,10,20,1
,,,,,00086,2023-10-26_18h57.30.577,vbt_B1_day4,2022.2.4,Win32,59.08070424,,,,,,,,,,,,,,,,,,,,oceaan,images/br_oceaan.png,images/cb_oceaan.png,,oceaan,,,,,,,,,,,-0.279629601,-0.07129631,1,0,0,oceaan,0,11,11,10,1
,,,,,00086,2023-10-26_18h57.30.577,vbt_B1_day4,2022.2.4,Win32,59.08070424,,,,,,,,,,,,,,,,,,,,kust,images/br_kust.png,images/cb_kust.png,,kust,,,,,,,,,,,-0.082407379,-0.007407422,1,0,0,kust,0,12,12,0,1
,,,,,00086,2023-10-26_18h57.30.577,vbt_B1_day4,2022.2.4,Win32,59.08070424,,,,,,,,,,,,,,,,,,,,paalbaak,images/br_paalbaak.png,images/cb_paalbaak.png,,paalbak,,,,,,,,,,,-0.308333333,-0.100925954,1,0,0,paalbak,0,13,13,39,1
,,,,,00086,2023-10-26_18h57.30.577,vbt_B1_day4,2022.2.4,Win32,59.08070424,,,,,,,,,,,,,,,,,,,,eerst,images/br_eerst.png,images/cb_eerst.png,,eerst,,,,,,,,,,,-0.074074046,0.036111111,1,0,0,eerst,0,14,14,47,1
,,,,,00086,2023-10-26_18h57.30.577,vbt_B1_day4,2022.2.4,Win32,59.08070424,,,,,,,,,,,,,,,,,,,,gijf,images/br_gijf.png,images/cb_gijf.png,,geif,,,,,,,,,,,-0.149074046,-0.138888889,1,0,0,geif,0,15,15,23,1
,,,,,00086,2023-10-26_18h57.30.577,vbt_B1_day4,2022.2.4,Win32,59.08070424,,,,,,,,,,,,,,,,,,,,gaan,images/br_gaan.png,images/cb_gaan.png,,gaan,,,,,,,,,,,-0.355555556,-0.069444444,1,0,0,gaan,0,16,16,41,1
,,,,,00086,2023-10-26_18h57.30.577,vbt_B1_day4,2022.2.4,Win32,59.08070424,,,,,,,,,,,,,,,,,,,,drummer,images/br_drummer.png,images/cb_drummer.png,,drummer,,,,,,,,,,,-0.312962935,-0.091666667,1,0,0,drummer,0,17,17,53,1
,,,,,00086,2023-10-26_18h57.30.577,vbt_B1_day4,2022.2.4,Win32,59.08070424,,,,,,,,,,,,,,,,,,,,aanzwaag,images/br_aanzwaag.png,images/cb_aanzwaag.png,,aanzwaag,,,,,,,,,,,-0.167592536,-0.035185199,1,0,0,aanzwaag,0,18,18,38,1
,,,,,00086,2023-10-26_18h57.30.577,vbt_B1_day4,2022.2.4,Win32,59.08070424,,,,,,,,,,,,,,,,,,,,steen,images/br_steen.png,images/cb_steen.png,,steen,,,,,,,,,,,-0.335185157,-0.061111111,1,0,0,steen,0,19,19,44,1
,,,,,00086,2023-10-26_18h57.30.577,vbt_B1_day4,2022.2.4,Win32,59.08070424,,,,,,,,,,,,,,,,,,,,bisschap,images/br_bisschap.png,images/cb_bisschap.png,,bisschop,,,,,,,,,,,-0.161111111,-0.010185199,1,0,0,bisschop,0,20,20,36,1
,,,,,00086,2023-10-26_18h57.30.577,vbt_B1_day4,2022.2.4,Win32,59.08070424,,,,,,,,,,,,,,,,,,,,heengaan,images/br_heengaan.png,images/cb_heengaan.png,,heengaan,,,,,,,,,,,-0.35,-0.117592621,1,0,0,heengaan,0,21,21,19,1
,,,,,00086,2023-10-26_18h57.30.577,vbt_B1_day4,2022.2.4,Win32,59.08070424,,,,,,,,,,,,,,,,,,,,snee,images/br_snee.png,images/cb_snee.png,,snee,,,,,,,,,,,-0.320370356,-0.073148176,1,0,0,snee,0,22,22,40,1
,,,,,00086,2023-10-26_18h57.30.577,vbt_B1_day4,2022.2.4,Win32,59.08070424,,,,,,,,,,,,,,,,,,,,lappen,images/br_lappen.png,images/cb_lappen.png,,lappen,,,,,,,,,,,-0.320370356,-0.073148176,1,0,0,lappen,0,23,23,49,1
,,,,,00086,2023-10-26_18h57.30.577,vbt_B1_day4,2022.2.4,Win32,59.08070424,,,,,,,,,,,,,,,,,,,,dalen,images/br_dalen.png,images/cb_dalen.png,,dalen,,,,,,,,,,,-0.320370356,-0.073148176,1,0,0,dalen,0,24,24,46,1
,,,,,00086,2023-10-26_18h57.30.577,vbt_B1_day4,2022.2.4,Win32,59.08070424,,,,,,,,,,,,,,,,,,,,sulbon,images/br_sulbon.png,images/cb_sulbon.png,,sulbon,,,,,,,,,,,-0.052777778,0.019444444,1,0,0,sulbon,0,25,25,31,1
,,,,,00086,2023-10-26_18h57.30.577,vbt_B1_day4,2022.2.4,Win32,59.08070424,,,,,,,,,,,,,,,,,,,,opkicht,images/br_opkicht.png,images/cb_opkicht.png,,opkicht,,,,,,,,,,,-0.375,-0.135185199,1,0,0,opkicht,0,26,26,34,1
,,,,,00086,2023-10-26_18h57.30.577,vbt_B1_day4,2022.2.4,Win32,59.08070424,,,,,,,,,,,,,,,,,,,,schenden,images/br_schenden.png,images/cb_schenden.png,,schenden,,,,,,,,,,,-0.217592578,-0.111111111,1,0,0,schenden,0,27,27,57,1
,,,,,00086,2023-10-26_18h57.30.577,vbt_B1_day4,2022.2.4,Win32,59.08070424,,,,,,,,,,,,,,,,,,,,pittig,images/br_pittig.png,images/cb_pittig.png,,pikkig,,,,,,,,,,,-0.257407379,0.042592578,1,0,0,pikkig,0,28,28,51,1
,,,,,00086,2023-10-26_18h57.30.577,vbt_B1_day4,2022.2.4,Win32,59.08070424,,,,,,,,,,,,,,,,,,,,gebit,images/br_gebit.png,images/cb_gebit.png,,gebit,,,,,,,,,,,-0.30370369,-0.097222222,1,0,0,gebit,0,29,29,6,1
,,,,,00086,2023-10-26_18h57.30.577,vbt_B1_day4,2022.2.4,Win32,59.08070424,,,,,,,,,,,,,,,,,,,,geheim,images/br_geheim.png,images/cb_geheim.png,,geheim,,,,,,,,,,,-0.307407379,-0.055555556,1,0,0,geheim,0,30,30,8,1
,,,,,00086,2023-10-26_18h57.30.577,vbt_B1_day4,2022.2.4,Win32,59.08070424,,,,,,,,,,,,,,,,,,,,haza,images/br_haza.png,images/cb_haza.png,,haza,,,,,,,,,,,-0.257407379,-0.051851866,1,0,0,haza,0,31,31,21,1
,,,,,00086,2023-10-26_18h57.30.577,vbt_B1_day4,2022.2.4,Win32,59.08070424,,,,,,,,,,,,,,,,,,,,stemming,images/br_stemming.png,images/cb_stemming.png,,stemming,,,,,,,,,,,-0.319444444,-0.117592621,1,0,0,stemming,0,32,32,18,1
,,,,,00086,2023-10-26_18h57.30.577,vbt_B1_day4,2022.2.4,Win32,59.08070424,,,,,,,,,,,,,,,,,,,,seizoen,images/br_seizoen.png,images/cb_seizoen.png,,seizoen,,,,,,,,,,,-0.245370356,-0.089814843,1,0,0,seizoen,0,33,33,13,1
,,,,,00086,2023-10-26_18h57.30.577,vbt_B1_day4,2022.2.4,Win32,59.08070424,,,,,,,,,,,,,,,,,,,,dozijn,images/br_dozijn.png,images/cb_dozijn.png,,dozijn,,,,,,,,,,,-0.223148134,-0.090740755,1,0,0,dozijn,0,34,34,48,1
,,,,,00086,2023-10-26_18h57.30.577,vbt_B1_day4,2022.2.4,Win32,59.08070424,,,,,,,,,,,,,,,,,,,,flippen,images/br_flippen.png,images/cb_flippen.png,,flippen,,,,,,,,,,,-0.223148134,-0.090740755,1,0,0,flippen,0,35,35,54,1
,,,,,00086,2023-10-26_18h57.30.577,vbt_B1_day4,2022.2.4,Win32,59.08070424,,,,,,,,,,,,,,,,,,,,weigeren,images/br_weigeren.png,images/cb_weigeren.png,,weigeren,,,,,,,,,,,-0.223148134,-0.090740755,1,0,0,weigeren,0,36,36,16,1
,,,,,00086,2023-10-26_18h57.30.577,vbt_B1_day4,2022.2.4,Win32,59.08070424,,,,,,,,,,,,,,,,,,,,seizoon,images/br_seizoon.png,images/cb_seizoon.png,,seizoon,,,,,,,,,,,-0.138888889,-0.079629644,1,0,0,seizoon,0,37,37,33,1
,,,,,00086,2023-10-26_18h57.30.577,vbt_B1_day4,2022.2.4,Win32,59.08070424,,,,,,,,,,,,,,,,,,,,strok,images/br_strok.png,images/cb_strok.png,,strok,,,,,,,,,,,-0.138888889,-0.079629644,1,0,0,strok,0,38,38,25,1
,,,,,00086,2023-10-26_18h57.30.577,vbt_B1_day4,2022.2.4,Win32,59.08070424,,,,,,,,,,,,,,,,,,,,broodje,images/br_broodje.png,images/cb_broodje.png,,broodje,,,,,,,,,,,-0.138888889,-0.079629644,1,0,0,broodje,0,39,39,55,1
,,,,,00086,2023-10-26_18h57.30.577,vbt_B1_day4,2022.2.4,Win32,59.08070424,,,,,,,,,,,,,,,,,,,,bruin,images/br_bruin.png,images/cb_bruin.png,,bruin,,,,,,,,,,,-0.153703647,-0.109259288,1,0,0,bruin,0,40,40,45,1
,,,,,00086,2023-10-26_18h57.30.577,vbt_B1_day4,2022.2.4,Win32,59.08070424,,,,,,,,,,,,,,,,,,,,gaaf,images/br_gaaf.png,images/cb_gaaf.png,,gaaf,,,,,,,,,,,-0.153703647,-0.109259288,1,0,0,gaaf,0,41,41,43,1
,,,,,00086,2023-10-26_18h57.30.577,vbt_B1_day4,2022.2.4,Win32,59.08070424,,,,,,,,,,,,,,,,,,,,wagon,images/br_wagon.png,images/cb_wagon.png,,zagon,,,,,,,,,,,-0.075925869,-0.093518533,1,0,0,zagon,0,42,42,4,1
,,,,,00086,2023-10-26_18h57.30.577,vbt_B1_day4,2022.2.4,Win32,59.08070424,,,,,,,,,,,,,,,,,,,,vreten,images/br_vreten.png,images/cb_vreten.png,,vreten,,,,,,,,,,,-0.208333333,-0.043518533,1,0,0,vreten,0,43,43,11,1
,,,,,00086,2023-10-26_18h57.30.577,vbt_B1_day4,2022.2.4,Win32,59.08070424,,,,,,,,,,,,,,,,,,,,pijnlijk,images/br_pijnlijk.png,images/cb_pijnlijk.png,,p.jnl...,,,,,,,,,,,-0.122222222,-0.072222222,1,0,0,p.jnl...,0,44,44,58,1
,,,,,00086,2023-10-26_18h57.30.577,vbt_B1_day4,2022.2.4,Win32,59.08070424,,,,,,,,,,,,,,,,,,,,zaalrijk,images/br_zaalrijk.png,images/cb_zaalrijk.png,,zaalrijk,,,,,,,,,,,-0.122222222,-0.072222222,1,0,0,zaalrijk,0,45,45,37,1
,,,,,00086,2023-10-26_18h57.30.577,vbt_B1_day4,2022.2.4,Win32,59.08070424,,,,,,,,,,,,,,,,,,,,praat,images/br_praat.png,images/cb_praat.png,,praat,,,,,,,,,,,-0.104629601,-0.087962977,1,0,0,praat,0,46,46,7,1
,,,,,00086,2023-10-26_18h57.30.577,vbt_B1_day4,2022.2.4,Win32,59.08070424,,,,,,,,,,,,,,,,,,,,wozing,images/br_wozing.png,images/cb_wozing.png,,woning,,,,,,,,,,,-0.131481425,-0.054629644,1,0,0,woning,0,47,47,28,1
,,,,,00086,2023-10-26_18h57.30.577,vbt_B1_day4,2022.2.4,Win32,59.08070424,,,,,,,,,,,,,,,,,,,,baron,images/br_baron.png,images/cb_baron.png,,baron,,,,,,,,,,,-0.095370314,-0.022222222,1,0,0,baron,0,48,48,5,1
,,,,,00086,2023-10-26_18h57.30.577,vbt_B1_day4,2022.2.4,Win32,59.08070424,,,,,,,,,,,,,,,,,,,,kaal,images/br_kaal.png,images/cb_kaal.png,,kaal,,,,,,,,,,,-0.079629601,-0.095370399,1,0,0,kaal,0,49,49,1,1
,,,,,00086,2023-10-26_18h57.30.577,vbt_B1_day4,2022.2.4,Win32,59.08070424,,,,,,,,,,,,,,,,,,,,toevol,images/br_toevol.png,images/cb_toevol.png,,toevol,,,,,,,,,,,-0.087036981,-0.043518533,1,0,0,toevol,0,50,50,29,1
,,,,,00086,2023-10-26_18h57.30.577,vbt_B1_day4,2022.2.4,Win32,59.08070424,,,,,,,,,,,,,,,,,,,,grappen,images/br_grappen.png,images/cb_grappen.png,,grappen,,,,,,,,,,,-0.052777778,-0.054629644,1,0,0,grappen,0,51,51,12,1
,,,,,00086,2023-10-26_18h57.30.577,vbt_B1_day4,2022.2.4,Win32,59.08070424,,,,,,,,,,,,,,,,,,,,midden,images/br_midden.png,images/cb_midden.png,,midden,,,,,,,,,,,-0.036111111,-0.069444444,1,0,0,midden,0,52,52,50,1
,,,,,00086,2023-10-26_18h57.30.577,vbt_B1_day4,2022.2.4,Win32,59.08070424,,,,,,,,,,,,,,,,,,,,tucket,images/br_tucket.png,images/cb_tucket.png,,tucket,,,,,,,,,,,-0.175,-0.043518533,1,0,0,tucket,0,53,53,30,1
,,,,,00086,2023-10-26_18h57.30.577,vbt_B1_day4,2022.2.4,Win32,59.08070424,,,,,,,,,,,,,,,,,,,,schotel,images/br_schotel.png,images/cb_schotel.png,,schotel,,,,,,,,,,,-0.148148092,-0.075925954,1,0,0,schotel,0,54,54,52,1
,,,,,00086,2023-10-26_18h57.30.577,vbt_B1_day4,2022.2.4,Win32,59.08070424,,,,,,,,,,,,,,,,,,,,getucht,images/br_getucht.png,images/cb_getucht.png,,getucht,,,,,,,,,,,-0.037962935,-0.07129631,1,0,0,getucht,0,55,55,35,1
,,,,,00086,2023-10-26_18h57.30.577,vbt_B1_day4,2022.2.4,Win32,59.08070424,,,,,,,,,,,,,,,,,,,,warel,images/br_warel.png,images/cb_warel.png,,warel,,,,,,,,,,,-0.061111111,-0.062962977,1,0,0,warel,0,56,56,26,1
,,,,,00086,2023-10-26_18h57.30.577,vbt_B1_day4,2022.2.4,Win32,59.08070424,,,,,,,,,,,,,,,,,,,,gebog,images/br_gebog.png,images/cb_gebog.png,,gebog,,,,,,,,,,,-0.087036981,-0.100925954,1,0,0,gebog,0,57,57,24,1
,,,,,00086,2023-10-26_18h57.30.577,vbt_B1_day4,2022.2.4,Win32,59.08070424,,,,,,,,,,,,,,,,,,,,opruimen,images/br_opruimen.png,images/cb_opruimen.png,,opruimen,,,,,,,,,,,-0.213888889,-0.095370399,1,0,0,opruimen,0,58,58,59,1
,,,,,00086,2023-10-26_18h57.30.577,vbt_B1_day4,2022.2.4,Win32,59.08070424,,,,,,,,,,,,,,,,,,,,drooien,images/br_drooien.png,images/cb_drooien.png,,drooien,,,,,,,,,,,-0.067592536,-0.035185199,1,0,0,drooien,0,59,59,32,1
,,,,,00086,2023-10-26_18h57.30.577,vbt_B1_day4,2022.2.4,Win32,59.08070424,,,,,,,,,,,,,,,,,,,,,,,,,,,,,,,,,,,,,,,,,,,,,
