welcome_mouse.x,welcome_mouse.y,welcome_mouse.leftButton,welcome_mouse.midButton,welcome_mouse.rightButton,"ID",date,expName,psychopyVersion,OS,frameRate,trainInstr_mouse.x,trainInstr_mouse.y,trainInstr_mouse.leftButton,trainInstr_mouse.midButton,trainInstr_mouse.rightButton,translation_key.keys,translation_key.corr,translation_key.rt,word_rsp.text,trWrd_mouse.x,trWrd_mouse.y,trWrd_mouse.leftButton,trWrd_mouse.midButton,trWrd_mouse.rightButton,train_loop.thisRepN,train_loop.thisTrialN,train_loop.thisN,train_loop.thisIndex,train_loop.ran,nlWrd,brWrd,cbWrd,test,testResp,mouse.x,mouse.y,mouse.leftButton,mouse.midButton,mouse.rightButton,testInstr_mouse.x,testInstr_mouse.y,testInstr_mouse.leftButton,testInstr_mouse.midButton,testInstr_mouse.rightButton,test_mouse.x,test_mouse.y,test_mouse.leftButton,test_mouse.midButton,test_mouse.rightButton,test_response.text,test_loop.thisRepN,test_loop.thisTrialN,test_loop.thisN,test_loop.thisIndex,test_loop.ran
0.052222222,-0.032222222,1,0,0,00026,2023-09-06_11h25.23.261,vbt_B1_day4,2022.2.4,MacIntel,5.747126437,,,,,,,,,,,,,,,,,,,,,,,,,,,,,,,,,,,,,,,,,,,,,
,,,,,00026,2023-09-06_11h25.23.261,vbt_B1_day4,2022.2.4,MacIntel,5.747126437,0.076666667,-0.037777778,1,0,0,,,,,,,,,,,,,,,,,,,,,,,,,,,,,,,,,,,,,,,,
,,,,,00026,2023-09-06_11h25.23.261,vbt_B1_day4,2022.2.4,MacIntel,5.747126437,,,,,,down,0,1.902,,0.034444444,-0.046666667,1,0,0,0,0,0,195,1,middelen,images/br_middelen.png,images/cb_middelen.png,0,,,,,,,,,,,,,,,,,,,,,,
,,,,,00026,2023-09-06_11h25.23.261,vbt_B1_day4,2022.2.4,MacIntel,5.747126437,,,,,,down,0,5.71,,0.034444444,-0.046666667,1,0,0,0,1,1,117,1,kennis,images/br_kennis.png,images/cb_kennis.png,0,,,,,,,,,,,,,,,,,,,,,,
,,,,,00026,2023-09-06_11h25.23.261,vbt_B1_day4,2022.2.4,MacIntel,5.747126437,,,,,,down,0,0.675,,0.016666667,-0.017777778,1,0,0,0,2,2,156,1,rechten,images/br_rechten.png,images/cb_rechten.png,0,,,,,,,,,,,,,,,,,,,,,,
,,,,,00026,2023-09-06_11h25.23.261,vbt_B1_day4,2022.2.4,MacIntel,5.747126437,,,,,,down,0,0.283,,0.098888889,-0.066666667,1,0,0,0,3,3,130,1,keihard,images/br_keihard.png,images/cb_keihard.png,0,,,,,,,,,,,,,,,,,,,,,,
,,,,,00026,2023-09-06_11h25.23.261,vbt_B1_day4,2022.2.4,MacIntel,5.747126437,,,,,,down,0,18.154,,0.015555556,-0.217777778,1,0,0,0,4,4,185,1,mijnheer,images/br_mijnheer.png,images/cb_mijnheer.png,1,mijnheer,,,,,,,,,,,,,,,,,,,,,
,,,,,00026,2023-09-06_11h25.23.261,vbt_B1_day4,2022.2.4,MacIntel,5.747126437,,,,,,down,0,0.044,,0.036666667,-0.127777778,1,0,0,0,5,5,15,1,soda,images/br_soda.png,images/cb_soda.png,0,,,,,,,,,,,,,,,,,,,,,,
,,,,,00026,2023-09-06_11h25.23.261,vbt_B1_day4,2022.2.4,MacIntel,5.747126437,,,,,,down,0,1.398,,0.068888889,-0.098888889,1,0,0,0,6,6,110,1,zuster,images/br_zuster.png,images/cb_zuster.png,0,,,,,,,,,,,,,,,,,,,,,,
,,,,,00026,2023-09-06_11h25.23.261,vbt_B1_day4,2022.2.4,MacIntel,5.747126437,,,,,,down,0,105.045,,0.068888889,-0.096666667,1,0,0,0,7,7,194,1,driemaal,images/br_driemaal.png,images/cb_driemaal.png,0,,,,,,,,,,,,,,,,,,,,,,
,,,,,00026,2023-09-06_11h25.23.261,vbt_B1_day4,2022.2.4,MacIntel,5.747126437,,,,,,down,0,48.127,,0.044444444,-0.104444444,1,0,0,0,8,8,38,1,baai,images/br_baai.png,images/cb_baai.png,0,,,,,,,,,,,,,,,,,,,,,,
,,,,,00026,2023-09-06_11h25.23.261,vbt_B1_day4,2022.2.4,MacIntel,5.747126437,,,,,,down,0,0.068,,0.044444444,-0.102222222,1,0,0,0,9,9,71,1,bever,images/br_bever.png,images/cb_bever.png,0,,,,,,,,,,,,,,,,,,,,,,
,,,,,00026,2023-09-06_11h25.23.261,vbt_B1_day4,2022.2.4,MacIntel,5.747126437,,,,,,down,0,1.493,,0.044444444,-0.102222222,1,0,0,0,10,10,113,1,koppen,images/br_koppen.png,images/cb_koppen.png,0,,,,,,,,,,,,,,,,,,,,,,
,,,,,00026,2023-09-06_11h25.23.261,vbt_B1_day4,2022.2.4,MacIntel,5.747126437,,,,,,down,0,3.092,,0.046666667,-0.097777778,1,0,0,0,11,11,148,1,smullen,images/br_smullen.png,images/cb_smullen.png,0,,,,,,,,,,,,,,,,,,,,,,
,,,,,00026,2023-09-06_11h25.23.261,vbt_B1_day4,2022.2.4,MacIntel,5.747126437,,,,,,down,0,0.473,,0.046666667,-0.092222222,1,0,0,0,12,12,197,1,spanning,images/br_spanning.png,images/cb_spanning.png,0,,,,,,,,,,,,,,,,,,,,,,
,,,,,00026,2023-09-06_11h25.23.261,vbt_B1_day4,2022.2.4,MacIntel,5.747126437,,,,,,down,0,0.542,,0.047777778,-0.09,1,0,0,0,13,13,143,1,hechten,images/br_hechten.png,images/cb_hechten.png,0,,,,,,,,,,,,,,,,,,,,,,
,,,,,00026,2023-09-06_11h25.23.261,vbt_B1_day4,2022.2.4,MacIntel,5.747126437,,,,,,down,0,0.216,,0.021111111,-0.121111111,1,0,0,0,14,14,125,1,aanzien,images/br_aanzien.png,images/cb_aanzien.png,0,,,,,,,,,,,,,,,,,,,,,,
,,,,,00026,2023-09-06_11h25.23.261,vbt_B1_day4,2022.2.4,MacIntel,5.747126437,,,,,,down,0,5.101,,0.021111111,-0.12,1,0,0,0,15,15,159,1,sufferd,images/br_sufferd.png,images/cb_sufferd.png,0,,,,,,,,,,,,,,,,,,,,,,
,,,,,00026,2023-09-06_11h25.23.261,vbt_B1_day4,2022.2.4,MacIntel,5.747126437,,,,,,down,0,0.126,,0.047777778,-0.123333333,1,0,0,0,16,16,75,1,snoep,images/br_snoep.png,images/cb_snoep.png,0,,,,,,,,,,,,,,,,,,,,,,
,,,,,00026,2023-09-06_11h25.23.261,vbt_B1_day4,2022.2.4,MacIntel,5.747126437,,,,,,down,0,37.611,,0.047777778,-0.121111111,1,0,0,0,17,17,127,1,doodmoe,images/br_doodmoe.png,images/cb_doodmoe.png,0,,,,,,,,,,,,,,,,,,,,,,
,,,,,00026,2023-09-06_11h25.23.261,vbt_B1_day4,2022.2.4,MacIntel,5.747126437,,,,,,down,0,0.141,,0.052222222,-0.122222222,1,0,0,0,18,18,22,1,stof,images/br_stof.png,images/cb_stof.png,0,,,,,,,,,,,,,,,,,,,,,,
,,,,,00026,2023-09-06_11h25.23.261,vbt_B1_day4,2022.2.4,MacIntel,5.747126437,,,,,,down,0,15.868,,0.13,-0.005555556,1,0,0,0,19,19,105,1,wijlen,images/br_wijlen.png,images/cb_wijlen.png,1,wijlen,,,,,,,,,,,,,,,,,,,,,
,,,,,00026,2023-09-06_11h25.23.261,vbt_B1_day4,2022.2.4,MacIntel,5.747126437,,,,,,down,0,0.433,,0.092222222,-0.096666667,1,0,0,0,20,20,4,1,moes,images/br_moes.png,images/cb_moes.png,0,,,,,,,,,,,,,,,,,,,,,,
,,,,,00026,2023-09-06_11h25.23.261,vbt_B1_day4,2022.2.4,MacIntel,5.747126437,,,,,,down,0,0.151,,0.092222222,-0.096666667,1,0,0,0,21,21,90,1,geluid,images/br_geluid.png,images/cb_geluid.png,0,,,,,,,,,,,,,,,,,,,,,,
,,,,,00026,2023-09-06_11h25.23.261,vbt_B1_day4,2022.2.4,MacIntel,5.747126437,,,,,,down,0,0.578,,0.093333333,-0.095555556,1,0,0,0,22,22,8,1,knie,images/br_knie.png,images/cb_knie.png,0,,,,,,,,,,,,,,,,,,,,,,
,,,,,00026,2023-09-06_11h25.23.261,vbt_B1_day4,2022.2.4,MacIntel,5.747126437,,,,,,down,0,1.568,,0.093333333,-0.095555556,1,0,0,0,23,23,16,1,ziek,images/br_ziek.png,images/cb_ziek.png,0,,,,,,,,,,,,,,,,,,,,,,
,,,,,00026,2023-09-06_11h25.23.261,vbt_B1_day4,2022.2.4,MacIntel,5.747126437,,,,,,down,0,2.259,,0.097777778,-0.097777778,1,0,0,0,24,24,19,1,geit,images/br_geit.png,images/cb_geit.png,0,,,,,,,,,,,,,,,,,,,,,,
,,,,,00026,2023-09-06_11h25.23.261,vbt_B1_day4,2022.2.4,MacIntel,5.747126437,,,,,,down,0,1.208,,0.116666667,-0.107777778,1,0,0,0,25,25,170,1,schatten,images/br_schatten.png,images/cb_schatten.png,0,,,,,,,,,,,,,,,,,,,,,,
,,,,,00026,2023-09-06_11h25.23.261,vbt_B1_day4,2022.2.4,MacIntel,5.747126437,,,,,,down,0,16.483,,0.041111111,-0.138888889,1,0,0,0,26,26,66,1,lever,images/br_lever.png,images/cb_lever.png,1,lever,,,,,,,,,,,,,,,,,,,,,
,,,,,00026,2023-09-06_11h25.23.261,vbt_B1_day4,2022.2.4,MacIntel,5.747126437,,,,,,down,0,1.069,,0.051111111,-0.134444444,1,0,0,0,27,27,94,1,oceaan,images/br_oceaan.png,images/cb_oceaan.png,0,,,,,,,,,,,,,,,,,,,,,,
,,,,,00026,2023-09-06_11h25.23.261,vbt_B1_day4,2022.2.4,MacIntel,5.747126437,,,,,,down,0,1.134,,0.064444444,-0.103333333,1,0,0,0,28,28,168,1,bisschop,images/br_bisschop.png,images/cb_bisschop.png,0,,,,,,,,,,,,,,,,,,,,,,
,,,,,00026,2023-09-06_11h25.23.261,vbt_B1_day4,2022.2.4,MacIntel,5.747126437,,,,,,down,0,0.37,,0.066666667,-0.095555556,1,0,0,0,29,29,20,1,site,images/br_site.png,images/cb_site.png,0,,,,,,,,,,,,,,,,,,,,,,
,,,,,00026,2023-09-06_11h25.23.261,vbt_B1_day4,2022.2.4,MacIntel,5.747126437,,,,,,down,0,1.485,,0.066666667,-0.093333333,1,0,0,0,30,30,103,1,joggen,images/br_joggen.png,images/cb_joggen.png,0,,,,,,,,,,,,,,,,,,,,,,
,,,,,00026,2023-09-06_11h25.23.261,vbt_B1_day4,2022.2.4,MacIntel,5.747126437,,,,,,down,0,0.8,,0.064444444,-0.091111111,1,0,0,0,31,31,50,1,stoom,images/br_stoom.png,images/cb_stoom.png,0,,,,,,,,,,,,,,,,,,,,,,
,,,,,00026,2023-09-06_11h25.23.261,vbt_B1_day4,2022.2.4,MacIntel,5.747126437,,,,,,down,0,0.093,,0.064444444,-0.09,1,0,0,0,32,32,57,1,steek,images/br_steek.png,images/cb_steek.png,0,,,,,,,,,,,,,,,,,,,,,,
,,,,,00026,2023-09-06_11h25.23.261,vbt_B1_day4,2022.2.4,MacIntel,5.747126437,,,,,,down,0,5.972,,0.065555556,-0.09,1,0,0,0,33,33,86,1,woning,images/br_woning.png,images/cb_woning.png,0,,,,,,,,,,,,,,,,,,,,,,
,,,,,00026,2023-09-06_11h25.23.261,vbt_B1_day4,2022.2.4,MacIntel,5.747126437,,,,,,down,0,5.472,,0.048888889,-0.186666667,1,0,0,0,34,34,106,1,zingen,images/br_zingen.png,images/cb_zingen.png,1,zingen,,,,,,,,,,,,,,,,,,,,,
,,,,,00026,2023-09-06_11h25.23.261,vbt_B1_day4,2022.2.4,MacIntel,5.747126437,,,,,,down,0,2.299,,0.048888889,-0.186666667,1,0,0,0,35,35,23,1,zout,images/br_zout.png,images/cb_zout.png,0,,,,,,,,,,,,,,,,,,,,,,
,,,,,00026,2023-09-06_11h25.23.261,vbt_B1_day4,2022.2.4,MacIntel,5.747126437,,,,,,down,0,1.592,,0.055555556,-0.178888889,1,0,0,0,36,36,29,1,baas,images/br_baas.png,images/cb_baas.png,0,,,,,,,,,,,,,,,,,,,,,,
,,,,,00026,2023-09-06_11h25.23.261,vbt_B1_day4,2022.2.4,MacIntel,5.747126437,,,,,,down,0,1.219,,0.164444444,-0.093333333,1,0,0,0,37,37,154,1,aflopen,images/br_aflopen.png,images/cb_aflopen.png,0,,,,,,,,,,,,,,,,,,,,,,
,,,,,00026,2023-09-06_11h25.23.261,vbt_B1_day4,2022.2.4,MacIntel,5.747126437,,,,,,down,0,76.587,,0.17,-0.096666667,1,0,0,0,38,38,36,1,vuur,images/br_vuur.png,images/cb_vuur.png,0,,,,,,,,,,,,,,,,,,,,,,
,,,,,00026,2023-09-06_11h25.23.261,vbt_B1_day4,2022.2.4,MacIntel,5.747126437,,,,,,down,0,3.667,,0.17,-0.095555556,1,0,0,0,39,39,47,1,kabel,images/br_kabel.png,images/cb_kabel.png,0,,,,,,,,,,,,,,,,,,,,,,
,,,,,00026,2023-09-06_11h25.23.261,vbt_B1_day4,2022.2.4,MacIntel,5.747126437,,,,,,down,0,0.4,,0.17,-0.094444444,1,0,0,0,40,40,84,1,lokken,images/br_lokken.png,images/cb_lokken.png,0,,,,,,,,,,,,,,,,,,,,,,
,,,,,00026,2023-09-06_11h25.23.261,vbt_B1_day4,2022.2.4,MacIntel,5.747126437,,,,,,down,0,0.389,,0.168888889,-0.092222222,1,0,0,0,41,41,160,1,daarheen,images/br_daarheen.png,images/cb_daarheen.png,0,,,,,,,,,,,,,,,,,,,,,,
,,,,,00026,2023-09-06_11h25.23.261,vbt_B1_day4,2022.2.4,MacIntel,5.747126437,,,,,,down,0,1.751,,0.168888889,-0.091111111,1,0,0,0,42,42,14,1,rijp,images/br_rijp.png,images/cb_rijp.png,0,,,,,,,,,,,,,,,,,,,,,,
,,,,,00026,2023-09-06_11h25.23.261,vbt_B1_day4,2022.2.4,MacIntel,5.747126437,,,,,,down,0,2.55,,0.168888889,-0.09,1,0,0,0,43,43,118,1,vinger,images/br_vinger.png,images/cb_vinger.png,0,,,,,,,,,,,,,,,,,,,,,,
,,,,,00026,2023-09-06_11h25.23.261,vbt_B1_day4,2022.2.4,MacIntel,5.747126437,,,,,,down,0,0.322,,0.168888889,-0.09,1,0,0,0,44,44,33,1,vlek,images/br_vlek.png,images/cb_vlek.png,0,,,,,,,,,,,,,,,,,,,,,,
,,,,,00026,2023-09-06_11h25.23.261,vbt_B1_day4,2022.2.4,MacIntel,5.747126437,,,,,,down,0,1.18,,0.168888889,-0.087777778,1,0,0,0,45,45,11,1,mode,images/br_mode.png,images/cb_mode.png,0,,,,,,,,,,,,,,,,,,,,,,
,,,,,00026,2023-09-06_11h25.23.261,vbt_B1_day4,2022.2.4,MacIntel,5.747126437,,,,,,down,0,0.1,,0.167777778,-0.083333333,1,0,0,0,46,46,142,1,snuiven,images/br_snuiven.png,images/cb_snuiven.png,0,,,,,,,,,,,,,,,,,,,,,,
,,,,,00026,2023-09-06_11h25.23.261,vbt_B1_day4,2022.2.4,MacIntel,5.747126437,,,,,,down,0,17.979,,0.166666667,-0.081111111,1,0,0,0,47,47,133,1,seizoen,images/br_seizoen.png,images/cb_seizoen.png,0,,,,,,,,,,,,,,,,,,,,,,
,,,,,00026,2023-09-06_11h25.23.261,vbt_B1_day4,2022.2.4,MacIntel,5.747126437,,,,,,down,0,0.242,,0.182222222,-0.084444444,1,0,0,0,48,48,9,1,hier,images/br_hier.png,images/cb_hier.png,0,,,,,,,,,,,,,,,,,,,,,,
,,,,,00026,2023-09-06_11h25.23.261,vbt_B1_day4,2022.2.4,MacIntel,5.747126437,,,,,,down,0,0.236,,0.155555556,-0.09,1,0,0,0,49,49,161,1,attentie,images/br_attentie.png,images/cb_attentie.png,0,,,,,,,,,,,,,,,,,,,,,,
,,,,,00026,2023-09-06_11h25.23.261,vbt_B1_day4,2022.2.4,MacIntel,5.747126437,,,,,,down,0,4.551,,0.106666667,-0.155555556,1,0,0,0,50,50,2,1,jaar,images/br_jaar.png,images/cb_jaar.png,0,,,,,,,,,,,,,,,,,,,,,,
,,,,,00026,2023-09-06_11h25.23.261,vbt_B1_day4,2022.2.4,MacIntel,5.747126437,,,,,,down,0,0.818,,0.1,-0.188888889,1,0,0,0,51,51,37,1,mijn,images/br_mijn.png,images/cb_mijn.png,0,,,,,,,,,,,,,,,,,,,,,,
,,,,,00026,2023-09-06_11h25.23.261,vbt_B1_day4,2022.2.4,MacIntel,5.747126437,,,,,,down,0,0.86,,0.156666667,-0.121111111,1,0,0,0,52,52,80,1,kanjer,images/br_kanjer.png,images/cb_kanjer.png,0,,,,,,,,,,,,,,,,,,,,,,
,,,,,00026,2023-09-06_11h25.23.261,vbt_B1_day4,2022.2.4,MacIntel,5.747126437,,,,,,down,0,4.77,,0.156666667,-0.121111111,1,0,0,0,53,53,182,1,bijkomen,images/br_bijkomen.png,images/cb_bijkomen.png,0,,,,,,,,,,,,,,,,,,,,,,
,,,,,00026,2023-09-06_11h25.23.261,vbt_B1_day4,2022.2.4,MacIntel,5.747126437,,,,,,down,0,3.677,,0.166666667,-0.108888889,1,0,0,0,54,54,166,1,strikken,images/br_strikken.png,images/cb_strikken.png,0,,,,,,,,,,,,,,,,,,,,,,
,,,,,00026,2023-09-06_11h25.23.261,vbt_B1_day4,2022.2.4,MacIntel,5.747126437,,,,,,down,0,3.376,,0.17,-0.116666667,1,0,0,0,55,55,7,1,geld,images/br_geld.png,images/cb_geld.png,0,,,,,,,,,,,,,,,,,,,,,,
,,,,,00026,2023-09-06_11h25.23.261,vbt_B1_day4,2022.2.4,MacIntel,5.747126437,,,,,,down,0,1.89,,0.17,-0.116666667,1,0,0,0,56,56,3,1,mand,images/br_mand.png,images/cb_mand.png,0,,,,,,,,,,,,,,,,,,,,,,
,,,,,00026,2023-09-06_11h25.23.261,vbt_B1_day4,2022.2.4,MacIntel,5.747126437,,,,,,down,0,0.134,,0.168888889,-0.11,1,0,0,0,57,57,17,1,taal,images/br_taal.png,images/cb_taal.png,0,,,,,,,,,,,,,,,,,,,,,,
,,,,,00026,2023-09-06_11h25.23.261,vbt_B1_day4,2022.2.4,MacIntel,5.747126437,,,,,,down,0,0.352,,0.187777778,-0.101111111,1,0,0,0,58,58,82,1,muziek,images/br_muziek.png,images/cb_muziek.png,0,,,,,,,,,,,,,,,,,,,,,,
,,,,,00026,2023-09-06_11h25.23.261,vbt_B1_day4,2022.2.4,MacIntel,5.747126437,,,,,,down,0,0.168,,0.186666667,-0.097777778,1,0,0,0,59,59,12,1,kust,images/br_kust.png,images/cb_kust.png,0,,,,,,,,,,,,,,,,,,,,,,
,,,,,00026,2023-09-06_11h25.23.261,vbt_B1_day4,2022.2.4,MacIntel,5.747126437,,,,,,down,0,5.934,,0.186666667,-0.097777778,1,0,0,0,60,60,108,1,excuus,images/br_excuus.png,images/cb_excuus.png,0,,,,,,,,,,,,,,,,,,,,,,
,,,,,00026,2023-09-06_11h25.23.261,vbt_B1_day4,2022.2.4,MacIntel,5.747126437,,,,,,down,0,3.687,,0.186666667,-0.096666667,1,0,0,0,61,61,62,1,knaap,images/br_knaap.png,images/cb_knaap.png,0,,,,,,,,,,,,,,,,,,,,,,
,,,,,00026,2023-09-06_11h25.23.261,vbt_B1_day4,2022.2.4,MacIntel,5.747126437,,,,,,down,0,0.641,,0.167777778,-0.143333333,1,0,0,0,62,62,78,1,leren,images/br_leren.png,images/cb_leren.png,0,,,,,,,,,,,,,,,,,,,,,,
,,,,,00026,2023-09-06_11h25.23.261,vbt_B1_day4,2022.2.4,MacIntel,5.747126437,,,,,,down,0,2.326,,0.128888889,-0.176666667,1,0,0,0,63,63,114,1,vullen,images/br_vullen.png,images/cb_vullen.png,0,,,,,,,,,,,,,,,,,,,,,,
,,,,,00026,2023-09-06_11h25.23.261,vbt_B1_day4,2022.2.4,MacIntel,5.747126437,,,,,,down,0,14.693,,0.127777778,-0.173333333,1,0,0,0,64,64,155,1,gerucht,images/br_gerucht.png,images/cb_gerucht.png,0,,,,,,,,,,,,,,,,,,,,,,
,,,,,00026,2023-09-06_11h25.23.261,vbt_B1_day4,2022.2.4,MacIntel,5.747126437,,,,,,down,0,6.143,,0.136666667,-0.145555556,1,0,0,0,65,65,152,1,afnemen,images/br_afnemen.png,images/cb_afnemen.png,0,,,,,,,,,,,,,,,,,,,,,,
,,,,,00026,2023-09-06_11h25.23.261,vbt_B1_day4,2022.2.4,MacIntel,5.747126437,,,,,,down,0,0.334,,0.027777778,-0.444444444,1,0,0,0,66,66,83,1,mening,images/br_mening.png,images/cb_mening.png,0,,,,,,,,,,,,,,,,,,,,,,
,,,,,00026,2023-09-06_11h25.23.261,vbt_B1_day4,2022.2.4,MacIntel,5.747126437,,,,,,down,0,0.75,,0.128888889,-0.151111111,1,0,0,0,67,67,88,1,boeien,images/br_boeien.png,images/cb_boeien.png,0,,,,,,,,,,,,,,,,,,,,,,
,,,,,00026,2023-09-06_11h25.23.261,vbt_B1_day4,2022.2.4,MacIntel,5.747126437,,,,,,down,0,1.428,,0.131111111,-0.13,1,0,0,0,68,68,157,1,uitlaat,images/br_uitlaat.png,images/cb_uitlaat.png,0,,,,,,,,,,,,,,,,,,,,,,
,,,,,00026,2023-09-06_11h25.23.261,vbt_B1_day4,2022.2.4,MacIntel,5.747126437,,,,,,down,0,58.27,,0.131111111,-0.13,1,0,0,0,69,69,131,1,opzicht,images/br_opzicht.png,images/cb_opzicht.png,0,,,,,,,,,,,,,,,,,,,,,,
,,,,,00026,2023-09-06_11h25.23.261,vbt_B1_day4,2022.2.4,MacIntel,5.747126437,,,,,,down,0,18.977,,0.131111111,-0.13,1,0,0,0,70,70,18,1,blik,images/br_blik.png,images/cb_blik.png,0,,,,,,,,,,,,,,,,,,,,,,
,,,,,00026,2023-09-06_11h25.23.261,vbt_B1_day4,2022.2.4,MacIntel,5.747126437,,,,,,down,0,10.154,,0.148888889,-0.045555556,1,0,0,0,71,71,186,1,voorraad,images/br_voorraad.png,images/cb_voorraad.png,1,voorraad,,,,,,,,,,,,,,,,,,,,,
,,,,,00026,2023-09-06_11h25.23.261,vbt_B1_day4,2022.2.4,MacIntel,5.747126437,,,,,,down,0,50.688,,0.158888889,-0.048888889,1,0,0,0,72,72,98,1,kreeft,images/br_kreeft.png,images/cb_kreeft.png,0,,,,,,,,,,,,,,,,,,,,,,
,,,,,00026,2023-09-06_11h25.23.261,vbt_B1_day4,2022.2.4,MacIntel,5.747126437,,,,,,down,0,0.552,,0.258888889,-0.017777778,1,0,0,0,73,73,137,1,trekker,images/br_trekker.png,images/cb_trekker.png,0,,,,,,,,,,,,,,,,,,,,,,
,,,,,00026,2023-09-06_11h25.23.261,vbt_B1_day4,2022.2.4,MacIntel,5.747126437,,,,,,down,0,3.044,,0.273333333,-0.007777778,1,0,0,0,74,74,138,1,akkoord,images/br_akkoord.png,images/cb_akkoord.png,0,,,,,,,,,,,,,,,,,,,,,,
,,,,,00026,2023-09-06_11h25.23.261,vbt_B1_day4,2022.2.4,MacIntel,5.747126437,,,,,,down,0,1.203,,0.191111111,-0.042222222,1,0,0,0,75,75,116,1,besmet,images/br_besmet.png,images/cb_besmet.png,0,,,,,,,,,,,,,,,,,,,,,,
,,,,,00026,2023-09-06_11h25.23.261,vbt_B1_day4,2022.2.4,MacIntel,5.747126437,,,,,,down,0,9.716,,0.274444444,-0.051111111,1,0,0,0,76,76,162,1,uitdelen,images/br_uitdelen.png,images/cb_uitdelen.png,0,,,,,,,,,,,,,,,,,,,,,,
,,,,,00026,2023-09-06_11h25.23.261,vbt_B1_day4,2022.2.4,MacIntel,5.747126437,,,,,,down,0,6.686,,0.164444444,-0.097777778,1,0,0,0,77,77,183,1,getuigen,images/br_getuigen.png,images/cb_getuigen.png,0,,,,,,,,,,,,,,,,,,,,,,
,,,,,00026,2023-09-06_11h25.23.261,vbt_B1_day4,2022.2.4,MacIntel,5.747126437,,,,,,down,0,0.017,,0.164444444,-0.097777778,1,0,0,0,78,78,149,1,redding,images/br_redding.png,images/cb_redding.png,0,,,,,,,,,,,,,,,,,,,,,,
,,,,,00026,2023-09-06_11h25.23.261,vbt_B1_day4,2022.2.4,MacIntel,5.747126437,,,,,,down,0,2.867,,0.164444444,-0.097777778,1,0,0,0,79,79,61,1,groen,images/br_groen.png,images/cb_groen.png,0,,,,,,,,,,,,,,,,,,,,,,
,,,,,00026,2023-09-06_11h25.23.261,vbt_B1_day4,2022.2.4,MacIntel,5.747126437,,,,,,down,0,15.786,,0.027777778,-0.113333333,1,0,0,0,80,80,145,1,invloed,images/br_invloed.png,images/cb_invloed.png,1,invloed,,,,,,,,,,,,,,,,,,,,,
,,,,,00026,2023-09-06_11h25.23.261,vbt_B1_day4,2022.2.4,MacIntel,5.747126437,,,,,,down,0,6.959,,0.038888889,-0.234444444,1,0,0,0,81,81,104,1,zweven,images/br_zweven.png,images/cb_zweven.png,1,zweven,,,,,,,,,,,,,,,,,,,,,
,,,,,00026,2023-09-06_11h25.23.261,vbt_B1_day4,2022.2.4,MacIntel,5.747126437,,,,,,down,0,0.244,,0.102222222,-0.165555556,1,0,0,0,82,82,59,1,kring,images/br_kring.png,images/cb_kring.png,0,,,,,,,,,,,,,,,,,,,,,,
,,,,,00026,2023-09-06_11h25.23.261,vbt_B1_day4,2022.2.4,MacIntel,5.747126437,,,,,,down,0,4.059,,0.217777778,-0.103333333,1,0,0,0,83,83,189,1,aanraden,images/br_aanraden.png,images/cb_aanraden.png,0,,,,,,,,,,,,,,,,,,,,,,
,,,,,00026,2023-09-06_11h25.23.261,vbt_B1_day4,2022.2.4,MacIntel,5.747126437,,,,,,down,0,1.351,,0.217777778,-0.103333333,1,0,0,0,84,84,191,1,opheffen,images/br_opheffen.png,images/cb_opheffen.png,0,,,,,,,,,,,,,,,,,,,,,,
,,,,,00026,2023-09-06_11h25.23.261,vbt_B1_day4,2022.2.4,MacIntel,5.747126437,,,,,,down,0,1.17,,0.196666667,-0.073333333,1,0,0,0,85,85,31,1,poes,images/br_poes.png,images/cb_poes.png,0,,,,,,,,,,,,,,,,,,,,,,
,,,,,00026,2023-09-06_11h25.23.261,vbt_B1_day4,2022.2.4,MacIntel,5.747126437,,,,,,down,0,15.019,,0.197777778,-0.07,1,0,0,0,86,86,180,1,openbaar,images/br_openbaar.png,images/cb_openbaar.png,0,,,,,,,,,,,,,,,,,,,,,,
,,,,,00026,2023-09-06_11h25.23.261,vbt_B1_day4,2022.2.4,MacIntel,5.747126437,,,,,,down,0,1.208,,0.162222222,-0.053333333,1,0,0,0,87,87,181,1,toegeven,images/br_toegeven.png,images/cb_toegeven.png,0,,,,,,,,,,,,,,,,,,,,,,
,,,,,00026,2023-09-06_11h25.23.261,vbt_B1_day4,2022.2.4,MacIntel,5.747126437,,,,,,down,0,1.225,,0.151111111,-0.04,1,0,0,0,88,88,32,1,palm,images/br_palm.png,images/cb_palm.png,0,,,,,,,,,,,,,,,,,,,,,,
,,,,,00026,2023-09-06_11h25.23.261,vbt_B1_day4,2022.2.4,MacIntel,5.747126437,,,,,,down,0,0.219,,0.114444444,-0.058888889,1,0,0,0,89,89,126,1,kasteel,images/br_kasteel.png,images/cb_kasteel.png,0,,,,,,,,,,,,,,,,,,,,,,
,,,,,00026,2023-09-06_11h25.23.261,vbt_B1_day4,2022.2.4,MacIntel,5.747126437,,,,,,down,0,4.481,,0.128888889,-0.061111111,1,0,0,0,90,90,112,1,lukken,images/br_lukken.png,images/cb_lukken.png,0,,,,,,,,,,,,,,,,,,,,,,
,,,,,00026,2023-09-06_11h25.23.261,vbt_B1_day4,2022.2.4,MacIntel,5.747126437,,,,,,down,0,3.9,,0.18,-0.067777778,1,0,0,0,91,91,85,1,heilig,images/br_heilig.png,images/cb_heilig.png,0,,,,,,,,,,,,,,,,,,,,,,
,,,,,00026,2023-09-06_11h25.23.261,vbt_B1_day4,2022.2.4,MacIntel,5.747126437,,,,,,down,0,4.318,,0.202222222,-0.025555556,1,0,0,0,92,92,192,1,schaamte,images/br_schaamte.png,images/cb_schaamte.png,0,,,,,,,,,,,,,,,,,,,,,,
,,,,,00026,2023-09-06_11h25.23.261,vbt_B1_day4,2022.2.4,MacIntel,5.747126437,,,,,,down,0,9.336,,0.202222222,-0.022222222,1,0,0,0,93,93,1,1,zaal,images/br_zaal.png,images/cb_zaal.png,0,,,,,,,,,,,,,,,,,,,,,,
,,,,,00026,2023-09-06_11h25.23.261,vbt_B1_day4,2022.2.4,MacIntel,5.747126437,,,,,,down,0,11.474,,0.245555556,-0.09,1,0,0,0,94,94,115,1,kleren,images/br_kleren.png,images/cb_kleren.png,0,,,,,,,,,,,,,,,,,,,,,,
,,,,,00026,2023-09-06_11h25.23.261,vbt_B1_day4,2022.2.4,MacIntel,5.747126437,,,,,,down,0,0.185,,0.237777778,-0.017777778,1,0,0,0,95,95,35,1,lust,images/br_lust.png,images/cb_lust.png,0,,,,,,,,,,,,,,,,,,,,,,
,,,,,00026,2023-09-06_11h25.23.261,vbt_B1_day4,2022.2.4,MacIntel,5.747126437,,,,,,down,0,0.65,,0.242222222,-0.058888889,1,0,0,0,96,96,81,1,dubbel,images/br_dubbel.png,images/cb_dubbel.png,0,,,,,,,,,,,,,,,,,,,,,,
,,,,,00026,2023-09-06_11h25.23.261,vbt_B1_day4,2022.2.4,MacIntel,5.747126437,,,,,,down,0,7.567,,0.442222222,-0.082222222,1,0,0,0,97,97,134,1,geliefd,images/br_geliefd.png,images/cb_geliefd.png,0,,,,,,,,,,,,,,,,,,,,,,
,,,,,00026,2023-09-06_11h25.23.261,vbt_B1_day4,2022.2.4,MacIntel,5.747126437,,,,,,down,0,7.375,,0.386666667,-0.106666667,1,0,0,0,98,98,150,1,gegeven,images/br_gegeven.png,images/cb_gegeven.png,0,,,,,,,,,,,,,,,,,,,,,,
,,,,,00026,2023-09-06_11h25.23.261,vbt_B1_day4,2022.2.4,MacIntel,5.747126437,,,,,,down,0,1.669,,0.386666667,-0.106666667,1,0,0,0,99,99,153,1,vervoer,images/br_vervoer.png,images/cb_vervoer.png,0,,,,,,,,,,,,,,,,,,,,,,
,,,,,00026,2023-09-06_11h25.23.261,vbt_B1_day4,2022.2.4,MacIntel,5.747126437,,,,,,down,0,4.784,,0.437777778,-0.184444444,1,0,0,0,100,100,176,1,techniek,images/br_techniek.png,images/cb_techniek.png,0,,,,,,,,,,,,,,,,,,,,,,
,,,,,00026,2023-09-06_11h25.23.261,vbt_B1_day4,2022.2.4,MacIntel,5.747126437,,,,,,down,0,0.059,,0.437777778,-0.184444444,1,0,0,0,101,101,30,1,uien,images/br_uien.png,images/cb_uien.png,0,,,,,,,,,,,,,,,,,,,,,,
,,,,,00026,2023-09-06_11h25.23.261,vbt_B1_day4,2022.2.4,MacIntel,5.747126437,,,,,,down,0,0.048,,0.437777778,-0.186666667,1,0,0,0,102,102,132,1,grappen,images/br_grappen.png,images/cb_grappen.png,0,,,,,,,,,,,,,,,,,,,,,,
,,,,,00026,2023-09-06_11h25.23.261,vbt_B1_day4,2022.2.4,MacIntel,5.747126437,,,,,,down,0,0.269,,0.437777778,-0.186666667,1,0,0,0,103,103,129,1,verhaal,images/br_verhaal.png,images/cb_verhaal.png,0,,,,,,,,,,,,,,,,,,,,,,
,,,,,00026,2023-09-06_11h25.23.261,vbt_B1_day4,2022.2.4,MacIntel,5.747126437,,,,,,down,0,28.685,,0.246666667,-0.181111111,1,0,0,0,104,104,26,1,leuk,images/br_leuk.png,images/cb_leuk.png,1,legt,,,,,,,,,,,,,,,,,,,,,
,,,,,00026,2023-09-06_11h25.23.261,vbt_B1_day4,2022.2.4,MacIntel,5.747126437,,,,,,down,0,0.85,,0.225555556,-0.182222222,1,0,0,0,105,105,72,1,strak,images/br_strak.png,images/cb_strak.png,0,,,,,,,,,,,,,,,,,,,,,,
,,,,,00026,2023-09-06_11h25.23.261,vbt_B1_day4,2022.2.4,MacIntel,5.747126437,,,,,,down,0,2.519,,0.167777778,-0.073333333,1,0,0,0,106,106,102,1,legaal,images/br_legaal.png,images/cb_legaal.png,0,,,,,,,,,,,,,,,,,,,,,,
,,,,,00026,2023-09-06_11h25.23.261,vbt_B1_day4,2022.2.4,MacIntel,5.747126437,,,,,,down,0,1.905,,0.218888889,-0.056666667,1,0,0,0,107,107,58,1,tekst,images/br_tekst.png,images/cb_tekst.png,0,,,,,,,,,,,,,,,,,,,,,,
,,,,,00026,2023-09-06_11h25.23.261,vbt_B1_day4,2022.2.4,MacIntel,5.747126437,,,,,,down,0,0.832,,0.14,-0.106666667,1,0,0,0,108,108,121,1,twijfel,images/br_twijfel.png,images/cb_twijfel.png,0,,,,,,,,,,,,,,,,,,,,,,
,,,,,00026,2023-09-06_11h25.23.261,vbt_B1_day4,2022.2.4,MacIntel,5.747126437,,,,,,down,0,5.257,,0.135555556,-0.141111111,1,0,0,0,109,109,177,1,maaltijd,images/br_maaltijd.png,images/cb_maaltijd.png,0,,,,,,,,,,,,,,,,,,,,,,
,,,,,00026,2023-09-06_11h25.23.261,vbt_B1_day4,2022.2.4,MacIntel,5.747126437,,,,,,down,0,0.284,,0.136666667,-0.141111111,1,0,0,0,110,110,128,1,prikken,images/br_prikken.png,images/cb_prikken.png,0,,,,,,,,,,,,,,,,,,,,,,
,,,,,00026,2023-09-06_11h25.23.261,vbt_B1_day4,2022.2.4,MacIntel,5.747126437,,,,,,down,0,0.017,,0.136666667,-0.135555556,1,0,0,0,111,111,95,1,vreten,images/br_vreten.png,images/cb_vreten.png,0,,,,,,,,,,,,,,,,,,,,,,
,,,,,00026,2023-09-06_11h25.23.261,vbt_B1_day4,2022.2.4,MacIntel,5.747126437,,,,,,down,0,1.75,,0.138888889,-0.14,1,0,0,0,112,112,199,1,beseffen,images/br_beseffen.png,images/cb_beseffen.png,0,,,,,,,,,,,,,,,,,,,,,,
,,,,,00026,2023-09-06_11h25.23.261,vbt_B1_day4,2022.2.4,MacIntel,5.747126437,,,,,,down,0,6.233,,0.138888889,-0.14,1,0,0,0,113,113,79,1,nodig,images/br_nodig.png,images/cb_nodig.png,0,,,,,,,,,,,,,,,,,,,,,,
,,,,,00026,2023-09-06_11h25.23.261,vbt_B1_day4,2022.2.4,MacIntel,5.747126437,,,,,,down,0,0.108,,0.138888889,-0.14,1,0,0,0,114,114,10,1,leek,images/br_leek.png,images/cb_leek.png,0,,,,,,,,,,,,,,,,,,,,,,
,,,,,00026,2023-09-06_11h25.23.261,vbt_B1_day4,2022.2.4,MacIntel,5.747126437,,,,,,down,0,0.124,,0.037777778,-0.112222222,1,0,0,0,115,115,174,1,stemming,images/br_stemming.png,images/cb_stemming.png,0,,,,,,,,,,,,,,,,,,,,,,
,,,,,00026,2023-09-06_11h25.23.261,vbt_B1_day4,2022.2.4,MacIntel,5.747126437,,,,,,down,0,11.209,,0.166666667,-0.126666667,1,0,0,0,116,116,136,1,waarbij,images/br_waarbij.png,images/cb_waarbij.png,0,,,,,,,,,,,,,,,,,,,,,,
,,,,,00026,2023-09-06_11h25.23.261,vbt_B1_day4,2022.2.4,MacIntel,5.747126437,,,,,,down,0,0.4,,0.174444444,-0.125555556,1,0,0,0,117,117,139,1,stiekem,images/br_stiekem.png,images/cb_stiekem.png,0,,,,,,,,,,,,,,,,,,,,,,
,,,,,00026,2023-09-06_11h25.23.261,vbt_B1_day4,2022.2.4,MacIntel,5.747126437,,,,,,down,0,5.466,,0.18,-0.116666667,1,0,0,0,118,118,119,1,liefje,images/br_liefje.png,images/cb_liefje.png,0,,,,,,,,,,,,,,,,,,,,,,
,,,,,00026,2023-09-06_11h25.23.261,vbt_B1_day4,2022.2.4,MacIntel,5.747126437,,,,,,down,0,2.35,,0.18,-0.116666667,1,0,0,0,119,119,92,1,geheim,images/br_geheim.png,images/cb_geheim.png,0,,,,,,,,,,,,,,,,,,,,,,
,,,,,00026,2023-09-06_11h25.23.261,vbt_B1_day4,2022.2.4,MacIntel,5.747126437,,,,,,down,0,0.217,,0.18,-0.113333333,1,0,0,0,120,120,100,1,geduld,images/br_geduld.png,images/cb_geduld.png,0,,,,,,,,,,,,,,,,,,,,,,
,,,,,00026,2023-09-06_11h25.23.261,vbt_B1_day4,2022.2.4,MacIntel,5.747126437,,,,,,down,0,5.226,,0.026666667,-0.278888889,1,0,0,0,121,121,25,1,plek,images/br_plek.png,images/cb_plek.png,1,plek,,,,,,,,,,,,,,,,,,,,,
,,,,,00026,2023-09-06_11h25.23.261,vbt_B1_day4,2022.2.4,MacIntel,5.747126437,,,,,,down,0,0.186,,0.04,-0.266666667,1,0,0,0,122,122,111,1,ticket,images/br_ticket.png,images/cb_ticket.png,0,,,,,,,,,,,,,,,,,,,,,,
,,,,,00026,2023-09-06_11h25.23.261,vbt_B1_day4,2022.2.4,MacIntel,5.747126437,,,,,,down,0,0.2,,0.017777778,-0.156666667,1,0,0,0,123,123,51,1,samen,images/br_samen.png,images/cb_samen.png,0,,,,,,,,,,,,,,,,,,,,,,
,,,,,00026,2023-09-06_11h25.23.261,vbt_B1_day4,2022.2.4,MacIntel,5.747126437,,,,,,down,0,5.358,,0.023333333,-0.156666667,1,0,0,0,124,124,56,1,traag,images/br_traag.png,images/cb_traag.png,0,,,,,,,,,,,,,,,,,,,,,,
,,,,,00026,2023-09-06_11h25.23.261,vbt_B1_day4,2022.2.4,MacIntel,5.747126437,,,,,,down,0,1.5,,0.145555556,-0.016666667,1,0,0,0,125,125,49,1,laken,images/br_laken.png,images/cb_laken.png,0,,,,,,,,,,,,,,,,,,,,,,
,,,,,00026,2023-09-06_11h25.23.261,vbt_B1_day4,2022.2.4,MacIntel,5.747126437,,,,,,down,0,53.802,,0.138888889,-0.047777778,1,0,0,0,126,126,169,1,oprotten,images/br_oprotten.png,images/cb_oprotten.png,0,,,,,,,,,,,,,,,,,,,,,,
,,,,,00026,2023-09-06_11h25.23.261,vbt_B1_day4,2022.2.4,MacIntel,5.747126437,,,,,,down,0,19.952,,0.157777778,-0.007777778,1,0,0,0,127,127,96,1,slagen,images/br_slagen.png,images/cb_slagen.png,0,,,,,,,,,,,,,,,,,,,,,,
,,,,,00026,2023-09-06_11h25.23.261,vbt_B1_day4,2022.2.4,MacIntel,5.747126437,,,,,,down,0,2.977,,0.272222222,-0.027777778,1,0,0,0,128,128,53,1,baron,images/br_baron.png,images/cb_baron.png,0,,,,,,,,,,,,,,,,,,,,,,
,,,,,00026,2023-09-06_11h25.23.261,vbt_B1_day4,2022.2.4,MacIntel,5.747126437,,,,,,down,0,2.923,,0.278888889,-0.027777778,1,0,0,0,129,129,89,1,slapen,images/br_slapen.png,images/cb_slapen.png,0,,,,,,,,,,,,,,,,,,,,,,
,,,,,00026,2023-09-06_11h25.23.261,vbt_B1_day4,2022.2.4,MacIntel,5.747126437,,,,,,down,0,10.317,,0.276666667,0.064444444,1,0,0,0,130,130,87,1,toeval,images/br_toeval.png,images/cb_toeval.png,0,,,,,,,,,,,,,,,,,,,,,,
,,,,,00026,2023-09-06_11h25.23.261,vbt_B1_day4,2022.2.4,MacIntel,5.747126437,,,,,,down,0,0.343,,0.426666667,0.145555556,1,0,0,0,131,131,42,1,bleek,images/br_bleek.png,images/cb_bleek.png,0,,,,,,,,,,,,,,,,,,,,,,
,,,,,00026,2023-09-06_11h25.23.261,vbt_B1_day4,2022.2.4,MacIntel,5.747126437,,,,,,down,0,1.007,,0.247777778,-0.001111111,1,0,0,0,132,132,178,1,huisdier,images/br_huisdier.png,images/cb_huisdier.png,0,,,,,,,,,,,,,,,,,,,,,,
,,,,,00026,2023-09-06_11h25.23.261,vbt_B1_day4,2022.2.4,MacIntel,5.747126437,,,,,,down,0,3.193,,0.226666667,-0.028888889,1,0,0,0,133,133,120,1,klimmen,images/br_klimmen.png,images/cb_klimmen.png,0,,,,,,,,,,,,,,,,,,,,,,
,,,,,00026,2023-09-06_11h25.23.261,vbt_B1_day4,2022.2.4,MacIntel,5.747126437,,,,,,down,0,3.94,,0.173333333,0.007777778,1,0,0,0,134,134,64,1,wegen,images/br_wegen.png,images/cb_wegen.png,1,wegen,,,,,,,,,,,,,,,,,,,,,
,,,,,00026,2023-09-06_11h25.23.261,vbt_B1_day4,2022.2.4,MacIntel,5.747126437,,,,,,down,0,1.21,,0.166666667,-0.106666667,1,0,0,0,135,135,141,1,knielen,images/br_knielen.png,images/cb_knielen.png,0,,,,,,,,,,,,,,,,,,,,,,
,,,,,00026,2023-09-06_11h25.23.261,vbt_B1_day4,2022.2.4,MacIntel,5.747126437,,,,,,down,0,1.649,,0.233333333,-0.103333333,1,0,0,0,136,136,99,1,koffie,images/br_koffie.png,images/cb_koffie.png,0,,,,,,,,,,,,,,,,,,,,,,
,,,,,00026,2023-09-06_11h25.23.261,vbt_B1_day4,2022.2.4,MacIntel,5.747126437,,,,,,down,0,4.424,,0.294444444,-0.095555556,1,0,0,0,137,137,41,1,maken,images/br_maken.png,images/cb_maken.png,0,,,,,,,,,,,,,,,,,,,,,,
,,,,,00026,2023-09-06_11h25.23.261,vbt_B1_day4,2022.2.4,MacIntel,5.747126437,,,,,,down,0,0.041,,0.39,-0.175555556,1,0,0,0,138,138,165,1,feestdag,images/br_feestdag.png,images/cb_feestdag.png,0,,,,,,,,,,,,,,,,,,,,,,
,,,,,00026,2023-09-06_11h25.23.261,vbt_B1_day4,2022.2.4,MacIntel,5.747126437,,,,,,down,0,0.081,,0.414444444,-0.134444444,1,0,0,0,139,139,0,1,slak,images/br_slak.png,images/cb_slak.png,0,,,,,,,,,,,,,,,,,,,,,,
,,,,,00026,2023-09-06_11h25.23.261,vbt_B1_day4,2022.2.4,MacIntel,5.747126437,,,,,,down,0,65.236,,0.378888889,-0.054444444,1,0,0,0,140,140,147,1,komisch,images/br_komisch.png,images/cb_komisch.png,1,ko.esc.,,,,,,,,,,,,,,,,,,,,,
,,,,,00026,2023-09-06_11h25.23.261,vbt_B1_day4,2022.2.4,MacIntel,5.747126437,,,,,,down,0,1.956,,0.211111111,-0.095555556,1,0,0,0,141,141,164,1,anarchie,images/br_anarchie.png,images/cb_anarchie.png,0,,,,,,,,,,,,,,,,,,,,,,
,,,,,00026,2023-09-06_11h25.23.261,vbt_B1_day4,2022.2.4,MacIntel,5.747126437,,,,,,down,0,0.324,,0.211111111,-0.095555556,1,0,0,0,142,142,172,1,weigeren,images/br_weigeren.png,images/cb_weigeren.png,0,,,,,,,,,,,,,,,,,,,,,,
,,,,,00026,2023-09-06_11h25.23.261,vbt_B1_day4,2022.2.4,MacIntel,5.747126437,,,,,,down,0,60.235,,0.123333333,-0.055555556,1,0,0,0,143,143,27,1,dans,images/br_dans.png,images/cb_dans.png,1,dans,,,,,,,,,,,,,,,,,,,,,
,,,,,00026,2023-09-06_11h25.23.261,vbt_B1_day4,2022.2.4,MacIntel,5.747126437,,,,,,down,0,4.758,,0.123333333,-0.055555556,1,0,0,0,144,144,188,1,strekken,images/br_strekken.png,images/cb_strekken.png,0,,,,,,,,,,,,,,,,,,,,,,
,,,,,00026,2023-09-06_11h25.23.261,vbt_B1_day4,2022.2.4,MacIntel,5.747126437,,,,,,down,0,3.633,,0.205555556,-0.173333333,1,0,0,0,145,145,107,1,maling,images/br_maling.png,images/cb_maling.png,1,maling,,,,,,,,,,,,,,,,,,,,,
,,,,,00026,2023-09-06_11h25.23.261,vbt_B1_day4,2022.2.4,MacIntel,5.747126437,,,,,,down,0,4.774,,0.048888889,-0.141111111,1,0,0,0,146,146,144,1,eetlust,images/br_eetlust.png,images/cb_eetlust.png,1,eetlust,,,,,,,,,,,,,,,,,,,,,
,,,,,00026,2023-09-06_11h25.23.261,vbt_B1_day4,2022.2.4,MacIntel,5.747126437,,,,,,down,0,0.652,,0.068888889,-0.103333333,1,0,0,0,147,147,77,1,woede,images/br_woede.png,images/cb_woede.png,0,,,,,,,,,,,,,,,,,,,,,,
,,,,,00026,2023-09-06_11h25.23.261,vbt_B1_day4,2022.2.4,MacIntel,5.747126437,,,,,,down,0,13.798,,0.008888889,-0.215555556,1,0,0,0,148,148,171,1,aarzelen,images/br_aarzelen.png,images/cb_aarzelen.png,0,,,,,,,,,,,,,,,,,,,,,,
,,,,,00026,2023-09-06_11h25.23.261,vbt_B1_day4,2022.2.4,MacIntel,5.747126437,,,,,,down,0,1.134,,0.015555556,-0.212222222,1,0,0,0,149,149,196,1,nakijken,images/br_nakijken.png,images/cb_nakijken.png,0,,,,,,,,,,,,,,,,,,,,,,
,,,,,00026,2023-09-06_11h25.23.261,vbt_B1_day4,2022.2.4,MacIntel,5.747126437,,,,,,down,0,1.411,,0.083333333,-0.062222222,1,0,0,0,150,150,46,1,jagen,images/br_jagen.png,images/cb_jagen.png,0,,,,,,,,,,,,,,,,,,,,,,
,,,,,00026,2023-09-06_11h25.23.261,vbt_B1_day4,2022.2.4,MacIntel,5.747126437,,,,,,down,0,6.723,,0.18,-0.162222222,1,0,0,0,151,151,163,1,schuilen,images/br_schuilen.png,images/cb_schuilen.png,0,,,,,,,,,,,,,,,,,,,,,,
,,,,,00026,2023-09-06_11h25.23.261,vbt_B1_day4,2022.2.4,MacIntel,5.747126437,,,,,,down,0,4.435,,-0.033333333,-0.273333333,1,0,0,0,152,152,187,1,opkijken,images/br_opkijken.png,images/cb_opkijken.png,1,opkijken,,,,,,,,,,,,,,,,,,,,,
,,,,,00026,2023-09-06_11h25.23.261,vbt_B1_day4,2022.2.4,MacIntel,5.747126437,,,,,,down,0,11.306,,-0.04,-0.147777778,1,0,0,0,153,153,67,1,zwart,images/br_zwart.png,images/cb_zwart.png,1,zwart,,,,,,,,,,,,,,,,,,,,,
,,,,,00026,2023-09-06_11h25.23.261,vbt_B1_day4,2022.2.4,MacIntel,5.747126437,,,,,,down,0,8.159,,0.09,-0.224444444,1,0,0,0,154,154,151,1,aanzoek,images/br_aanzoek.png,images/cb_aanzoek.png,0,,,,,,,,,,,,,,,,,,,,,,
,,,,,00026,2023-09-06_11h25.23.261,vbt_B1_day4,2022.2.4,MacIntel,5.747126437,,,,,,down,0,0.736,,0.09,-0.141111111,1,0,0,0,155,155,40,1,schep,images/br_schep.png,images/cb_schep.png,0,,,,,,,,,,,,,,,,,,,,,,
,,,,,00026,2023-09-06_11h25.23.261,vbt_B1_day4,2022.2.4,MacIntel,5.747126437,,,,,,down,0,4.825,,0.051111111,-0.217777778,1,0,0,0,156,156,184,1,aandelen,images/br_aandelen.png,images/cb_aandelen.png,1,aandelen,,,,,,,,,,,,,,,,,,,,,
,,,,,00026,2023-09-06_11h25.23.261,vbt_B1_day4,2022.2.4,MacIntel,5.747126437,,,,,,down,0,41.651,,0.193333333,-0.101111111,1,0,0,0,157,157,44,1,flits,images/br_flits.png,images/cb_flits.png,0,,,,,,,,,,,,,,,,,,,,,,
,,,,,00026,2023-09-06_11h25.23.261,vbt_B1_day4,2022.2.4,MacIntel,5.747126437,,,,,,down,0,0.518,,0.252222222,-0.142222222,1,0,0,0,158,158,39,1,laag,images/br_laag.png,images/cb_laag.png,0,,,,,,,,,,,,,,,,,,,,,,
,,,,,00026,2023-09-06_11h25.23.261,vbt_B1_day4,2022.2.4,MacIntel,5.747126437,,,,,,down,0,17.357,,0.252222222,-0.142222222,1,0,0,0,159,159,175,1,heengaan,images/br_heengaan.png,images/cb_heengaan.png,0,,,,,,,,,,,,,,,,,,,,,,
,,,,,00026,2023-09-06_11h25.23.261,vbt_B1_day4,2022.2.4,MacIntel,5.747126437,,,,,,down,0,0.719,,0.252222222,-0.142222222,1,0,0,0,160,160,6,1,diep,images/br_diep.png,images/cb_diep.png,0,,,,,,,,,,,,,,,,,,,,,,
,,,,,00026,2023-09-06_11h25.23.261,vbt_B1_day4,2022.2.4,MacIntel,5.747126437,,,,,,down,0,20.818,,0.233333333,-0.177777778,1,0,0,0,161,161,68,1,schat,images/br_schat.png,images/cb_schat.png,0,,,,,,,,,,,,,,,,,,,,,,
,,,,,00026,2023-09-06_11h25.23.261,vbt_B1_day4,2022.2.4,MacIntel,5.747126437,,,,,,down,0,29.953,,0.126666667,-0.128888889,1,0,0,0,162,162,135,1,gedicht,images/br_gedicht.png,images/cb_gedicht.png,0,,,,,,,,,,,,,,,,,,,,,,
,,,,,00026,2023-09-06_11h25.23.261,vbt_B1_day4,2022.2.4,MacIntel,5.747126437,,,,,,down,0,10.018,,0.132222222,-0.127777778,1,0,0,0,163,163,48,1,steel,images/br_steel.png,images/cb_steel.png,0,,,,,,,,,,,,,,,,,,,,,,
,,,,,00026,2023-09-06_11h25.23.261,vbt_B1_day4,2022.2.4,MacIntel,5.747126437,,,,,,down,0,1.407,,0.035555556,-0.19,1,0,0,0,164,164,65,1,parel,images/br_parel.png,images/cb_parel.png,1,parel,,,,,,,,,,,,,,,,,,,,,
,,,,,00026,2023-09-06_11h25.23.261,vbt_B1_day4,2022.2.4,MacIntel,5.747126437,,,,,,down,0,0.341,,0.035555556,-0.19,1,0,0,0,165,165,28,1,stal,images/br_stal.png,images/cb_stal.png,0,,,,,,,,,,,,,,,,,,,,,,
,,,,,00026,2023-09-06_11h25.23.261,vbt_B1_day4,2022.2.4,MacIntel,5.747126437,,,,,,down,0,0.535,,0.035555556,-0.19,1,0,0,0,166,166,124,1,bloeien,images/br_bloeien.png,images/cb_bloeien.png,0,,,,,,,,,,,,,,,,,,,,,,
,,,,,00026,2023-09-06_11h25.23.261,vbt_B1_day4,2022.2.4,MacIntel,5.747126437,,,,,,down,0,0.886,,0.038888889,-0.186666667,1,0,0,0,167,167,21,1,mist,images/br_mist.png,images/cb_mist.png,0,,,,,,,,,,,,,,,,,,,,,,
,,,,,00026,2023-09-06_11h25.23.261,vbt_B1_day4,2022.2.4,MacIntel,5.747126437,,,,,,down,0,0.283,,0.043333333,-0.174444444,1,0,0,0,168,168,91,1,gezond,images/br_gezond.png,images/cb_gezond.png,0,,,,,,,,,,,,,,,,,,,,,,
,,,,,00026,2023-09-06_11h25.23.261,vbt_B1_day4,2022.2.4,MacIntel,5.747126437,,,,,,down,0,6.285,,0.084444444,-0.15,1,0,0,0,169,169,93,1,waarop,images/br_waarop.png,images/cb_waarop.png,0,,,,,,,,,,,,,,,,,,,,,,
,,,,,00026,2023-09-06_11h25.23.261,vbt_B1_day4,2022.2.4,MacIntel,5.747126437,,,,,,down,0,10.42,,0.084444444,-0.15,1,0,0,0,170,170,140,1,blijven,images/br_blijven.png,images/cb_blijven.png,0,,,,,,,,,,,,,,,,,,,,,,
,,,,,00026,2023-09-06_11h25.23.261,vbt_B1_day4,2022.2.4,MacIntel,5.747126437,,,,,,down,0,3.624,,0.084444444,-0.15,1,0,0,0,171,171,34,1,vorm,images/br_vorm.png,images/cb_vorm.png,0,,,,,,,,,,,,,,,,,,,,,,
,,,,,00026,2023-09-06_11h25.23.261,vbt_B1_day4,2022.2.4,MacIntel,5.747126437,,,,,,down,0,0.435,,0.115555556,-0.191111111,1,0,0,0,172,172,52,1,wagon,images/br_wagon.png,images/cb_wagon.png,0,,,,,,,,,,,,,,,,,,,,,,
,,,,,00026,2023-09-06_11h25.23.261,vbt_B1_day4,2022.2.4,MacIntel,5.747126437,,,,,,down,0,0.902,,0.118888889,-0.112222222,1,0,0,0,173,173,179,1,woestijn,images/br_woestijn.png,images/cb_woestijn.png,0,,,,,,,,,,,,,,,,,,,,,,
,,,,,00026,2023-09-06_11h25.23.261,vbt_B1_day4,2022.2.4,MacIntel,5.747126437,,,,,,down,0,13.391,,0.244444444,-0.077777778,1,0,0,0,174,174,74,1,graaf,images/br_graaf.png,images/cb_graaf.png,0,,,,,,,,,,,,,,,,,,,,,,
,,,,,00026,2023-09-06_11h25.23.261,vbt_B1_day4,2022.2.4,MacIntel,5.747126437,,,,,,down,0,6.952,,0.061111111,-0.068888889,1,0,0,0,175,175,146,1,opkomen,images/br_opkomen.png,images/cb_opkomen.png,1,opkomen,,,,,,,,,,,,,,,,,,,,,
,,,,,00026,2023-09-06_11h25.23.261,vbt_B1_day4,2022.2.4,MacIntel,5.747126437,,,,,,down,0,18.885,,0.098888889,-0.073333333,1,0,0,0,176,176,69,1,waken,images/br_waken.png,images/cb_waken.png,0,,,,,,,,,,,,,,,,,,,,,,
,,,,,00026,2023-09-06_11h25.23.261,vbt_B1_day4,2022.2.4,MacIntel,5.747126437,,,,,,down,0,12.99,,0.167777778,-0.126666667,1,0,0,0,177,177,70,1,ijdel,images/br_ijdel.png,images/cb_ijdel.png,0,,,,,,,,,,,,,,,,,,,,,,
,,,,,00026,2023-09-06_11h25.23.261,vbt_B1_day4,2022.2.4,MacIntel,5.747126437,,,,,,down,0,6.591,,0.167777778,-0.124444444,1,0,0,0,178,178,198,1,bedoelen,images/br_bedoelen.png,images/cb_bedoelen.png,0,,,,,,,,,,,,,,,,,,,,,,
,,,,,00026,2023-09-06_11h25.23.261,vbt_B1_day4,2022.2.4,MacIntel,5.747126437,,,,,,down,0,3.069,,0.167777778,-0.124444444,1,0,0,0,179,179,123,1,hiervan,images/br_hiervan.png,images/cb_hiervan.png,0,,,,,,,,,,,,,,,,,,,,,,
,,,,,00026,2023-09-06_11h25.23.261,vbt_B1_day4,2022.2.4,MacIntel,5.747126437,,,,,,down,0,0.217,,0.167777778,-0.124444444,1,0,0,0,180,180,76,1,afval,images/br_afval.png,images/cb_afval.png,0,,,,,,,,,,,,,,,,,,,,,,
,,,,,00026,2023-09-06_11h25.23.261,vbt_B1_day4,2022.2.4,MacIntel,5.747126437,,,,,,down,0,0.707,,0.167777778,-0.124444444,1,0,0,0,181,181,158,1,innemen,images/br_innemen.png,images/cb_innemen.png,0,,,,,,,,,,,,,,,,,,,,,,
,,,,,00026,2023-09-06_11h25.23.261,vbt_B1_day4,2022.2.4,MacIntel,5.747126437,,,,,,down,0,7.101,,0.07,-0.113333333,1,0,0,0,182,182,5,1,blad,images/br_blad.png,images/cb_blad.png,0,,,,,,,,,,,,,,,,,,,,,,
,,,,,00026,2023-09-06_11h25.23.261,vbt_B1_day4,2022.2.4,MacIntel,5.747126437,,,,,,down,0,0.333,,0.07,-0.108888889,1,0,0,0,183,183,13,1,kaal,images/br_kaal.png,images/cb_kaal.png,0,,,,,,,,,,,,,,,,,,,,,,
,,,,,00026,2023-09-06_11h25.23.261,vbt_B1_day4,2022.2.4,MacIntel,5.747126437,,,,,,down,0,9.892,,0.07,-0.108888889,1,0,0,0,184,184,63,1,flirt,images/br_flirt.png,images/cb_flirt.png,0,,,,,,,,,,,,,,,,,,,,,,
,,,,,00026,2023-09-06_11h25.23.261,vbt_B1_day4,2022.2.4,MacIntel,5.747126437,,,,,,down,0,3.817,,0.07,-0.108888889,1,0,0,0,185,185,54,1,gebit,images/br_gebit.png,images/cb_gebit.png,0,,,,,,,,,,,,,,,,,,,,,,
,,,,,00026,2023-09-06_11h25.23.261,vbt_B1_day4,2022.2.4,MacIntel,5.747126437,,,,,,down,0,0.693,,0.11,-0.117777778,1,0,0,0,186,186,73,1,volop,images/br_volop.png,images/cb_volop.png,0,,,,,,,,,,,,,,,,,,,,,,
,,,,,00026,2023-09-06_11h25.23.261,vbt_B1_day4,2022.2.4,MacIntel,5.747126437,,,,,,down,0,0.167,,0.107777778,-0.148888889,1,0,0,0,187,187,97,1,loyaal,images/br_loyaal.png,images/cb_loyaal.png,0,,,,,,,,,,,,,,,,,,,,,,
,,,,,00026,2023-09-06_11h25.23.261,vbt_B1_day4,2022.2.4,MacIntel,5.747126437,,,,,,down,0,6.433,,0.076666667,-0.191111111,1,0,0,0,188,188,167,1,eenhoorn,images/br_eenhoorn.png,images/cb_eenhoorn.png,0,,,,,,,,,,,,,,,,,,,,,,
,,,,,00026,2023-09-06_11h25.23.261,vbt_B1_day4,2022.2.4,MacIntel,5.747126437,,,,,,down,0,7.811,,0.104444444,-0.191111111,1,0,0,0,189,189,60,1,jasje,images/br_jasje.png,images/cb_jasje.png,0,,,,,,,,,,,,,,,,,,,,,,
,,,,,00026,2023-09-06_11h25.23.261,vbt_B1_day4,2022.2.4,MacIntel,5.747126437,,,,,,down,0,11.118,,-0.003333333,-0.013333333,1,0,0,0,190,190,43,1,klauw,images/br_klauw.png,images/cb_klauw.png,0,,,,,,,,,,,,,,,,,,,,,,
,,,,,00026,2023-09-06_11h25.23.261,vbt_B1_day4,2022.2.4,MacIntel,5.747126437,,,,,,down,0,8.534,,0.003333333,0.006666667,1,0,0,0,191,191,101,1,staren,images/br_staren.png,images/cb_staren.png,0,,,,,,,,,,,,,,,,,,,,,,
,,,,,00026,2023-09-06_11h25.23.261,vbt_B1_day4,2022.2.4,MacIntel,5.747126437,,,,,,down,0,0.659,,0.012222222,0.022222222,1,0,0,0,192,192,193,1,weeshuis,images/br_weeshuis.png,images/cb_weeshuis.png,0,,,,,,,,,,,,,,,,,,,,,,
,,,,,00026,2023-09-06_11h25.23.261,vbt_B1_day4,2022.2.4,MacIntel,5.747126437,,,,,,down,0,0.192,,0.012222222,0.022222222,1,0,0,0,193,193,122,1,waarvan,images/br_waarvan.png,images/cb_waarvan.png,0,,,,,,,,,,,,,,,,,,,,,,
,,,,,00026,2023-09-06_11h25.23.261,vbt_B1_day4,2022.2.4,MacIntel,5.747126437,,,,,,down,0,0.318,,0.012222222,0.022222222,1,0,0,0,194,194,190,1,goedkoop,images/br_goedkoop.png,images/cb_goedkoop.png,0,,,,,,,,,,,,,,,,,,,,,,
,,,,,00026,2023-09-06_11h25.23.261,vbt_B1_day4,2022.2.4,MacIntel,5.747126437,,,,,,down,0,2.235,,0.02,0.023333333,1,0,0,0,195,195,109,1,totaal,images/br_totaal.png,images/cb_totaal.png,0,,,,,,,,,,,,,,,,,,,,,,
,,,,,00026,2023-09-06_11h25.23.261,vbt_B1_day4,2022.2.4,MacIntel,5.747126437,,,,,,down,0,3.509,,0.024444444,0.016666667,1,0,0,0,196,196,45,1,piste,images/br_piste.png,images/cb_piste.png,0,,,,,,,,,,,,,,,,,,,,,,
,,,,,00026,2023-09-06_11h25.23.261,vbt_B1_day4,2022.2.4,MacIntel,5.747126437,,,,,,down,0,0.032,,0.033333333,0.027777778,1,0,0,0,197,197,55,1,praat,images/br_praat.png,images/cb_praat.png,0,,,,,,,,,,,,,,,,,,,,,,
,,,,,00026,2023-09-06_11h25.23.261,vbt_B1_day4,2022.2.4,MacIntel,5.747126437,,,,,,down,0,13.143,,0.135555556,-0.015555556,1,0,0,0,198,198,173,1,apparaat,images/br_apparaat.png,images/cb_apparaat.png,0,,,,,,,,,,,,,,,,,,,,,,
,,,,,00026,2023-09-06_11h25.23.261,vbt_B1_day4,2022.2.4,MacIntel,5.747126437,,,,,,down,0,9.045,,0.104444444,-0.251111111,1,0,0,0,199,199,24,1,jurk,images/br_jurk.png,images/cb_jurk.png,1,jurk,,,,,,,,,,,,,,,,,,,,,
,,,,,00026,2023-09-06_11h25.23.261,vbt_B1_day4,2022.2.4,MacIntel,5.747126437,,,,,,,,,,,,,,,,,,,,,,,,,0.131111111,-0.017777778,1,0,0,,,,,,,,,,,,,,,,
,,,,,00026,2023-09-06_11h25.23.261,vbt_B1_day4,2022.2.4,MacIntel,5.747126437,,,,,,,,,,,,,,,,,,,,,,,,,,,,,,0.245555556,-0.027777778,1,0,0,,,,,,,,,,,
,,,,,00026,2023-09-06_11h25.23.261,vbt_B1_day4,2022.2.4,MacIntel,5.747126437,,,,,,,,,,,,,,,,,,,,fran,images/br_fran.png,images/cb_fran.png,,.ran,,,,,,,,,,,0.234444444,0.058888889,1,0,0,.ran,0,0,0,22,1
,,,,,00026,2023-09-06_11h25.23.261,vbt_B1_day4,2022.2.4,MacIntel,5.747126437,,,,,,,,,,,,,,,,,,,,ezel,images/br_ezel.png,images/cb_ezel.png,,ezel,,,,,,,,,,,0.141111111,0.043333333,1,0,0,ezel,0,1,1,42,1
,,,,,00026,2023-09-06_11h25.23.261,vbt_B1_day4,2022.2.4,MacIntel,5.747126437,,,,,,,,,,,,,,,,,,,,getucht,images/br_getucht.png,images/cb_getucht.png,,get.ck.t,,,,,,,,,,,0.067777778,-0.085555556,1,0,0,get.ck.t,0,2,2,35,1
,,,,,00026,2023-09-06_11h25.23.261,vbt_B1_day4,2022.2.4,MacIntel,5.747126437,,,,,,,,,,,,,,,,,,,,pijnlijk,images/br_pijnlijk.png,images/cb_pijnlijk.png,,pijnl....,,,,,,,,,,,0.071111111,0.058888889,1,0,0,pijnl....,0,3,3,58,1
,,,,,00026,2023-09-06_11h25.23.261,vbt_B1_day4,2022.2.4,MacIntel,5.747126437,,,,,,,,,,,,,,,,,,,,mekst,images/br_mekst.png,images/cb_mekst.png,,,,,,,,,,,,,0.06,-0.207777778,1,0,0,,0,4,4,27,1
,,,,,00026,2023-09-06_11h25.23.261,vbt_B1_day4,2022.2.4,MacIntel,5.747126437,,,,,,,,,,,,,,,,,,,,baron,images/br_baron.png,images/cb_baron.png,,baron,,,,,,,,,,,-0.081111111,0.105555556,1,0,0,baron,0,5,5,5,1
,,,,,00026,2023-09-06_11h25.23.261,vbt_B1_day4,2022.2.4,MacIntel,5.747126437,,,,,,,,,,,,,,,,,,,,vreten,images/br_vreten.png,images/cb_vreten.png,,vreten,,,,,,,,,,,0,0.17,1,0,0,vreten,0,6,6,11,1
,,,,,00026,2023-09-06_11h25.23.261,vbt_B1_day4,2022.2.4,MacIntel,5.747126437,,,,,,,,,,,,,,,,,,,,schotel,images/br_schotel.png,images/cb_schotel.png,,schotel,,,,,,,,,,,0.054444444,0.06,1,0,0,schotel,0,7,7,52,1
,,,,,00026,2023-09-06_11h25.23.261,vbt_B1_day4,2022.2.4,MacIntel,5.747126437,,,,,,,,,,,,,,,,,,,,kust,images/br_kust.png,images/cb_kust.png,,kust,,,,,,,,,,,0.036666667,0.013333333,1,0,0,kust,0,8,8,0,1
,,,,,00026,2023-09-06_11h25.23.261,vbt_B1_day4,2022.2.4,MacIntel,5.747126437,,,,,,,,,,,,,,,,,,,,wozing,images/br_wozing.png,images/cb_wozing.png,,wozi...,,,,,,,,,,,0.052222222,0.021111111,1,0,0,wozi...,0,9,9,28,1
,,,,,00026,2023-09-06_11h25.23.261,vbt_B1_day4,2022.2.4,MacIntel,5.747126437,,,,,,,,,,,,,,,,,,,,grappen,images/br_grappen.png,images/cb_grappen.png,,grappen,,,,,,,,,,,-0.102222222,0.072222222,1,0,0,grappen,0,10,10,12,1
,,,,,00026,2023-09-06_11h25.23.261,vbt_B1_day4,2022.2.4,MacIntel,5.747126437,,,,,,,,,,,,,,,,,,,,gebit,images/br_gebit.png,images/cb_gebit.png,,gelit,,,,,,,,,,,0.034444444,-0.077777778,1,0,0,gelit,0,11,11,6,1
,,,,,00026,2023-09-06_11h25.23.261,vbt_B1_day4,2022.2.4,MacIntel,5.747126437,,,,,,,,,,,,,,,,,,,,stemming,images/br_stemming.png,images/cb_stemming.png,,stelling,,,,,,,,,,,0.161111111,0.075555556,1,0,0,stelling,0,12,12,18,1
,,,,,00026,2023-09-06_11h25.23.261,vbt_B1_day4,2022.2.4,MacIntel,5.747126437,,,,,,,,,,,,,,,,,,,,oceaan,images/br_oceaan.png,images/cb_oceaan.png,,oceaan,,,,,,,,,,,0.077777778,-0.091111111,1,0,0,oceaan,0,13,13,10,1
,,,,,00026,2023-09-06_11h25.23.261,vbt_B1_day4,2022.2.4,MacIntel,5.747126437,,,,,,,,,,,,,,,,,,,,gijf,images/br_gijf.png,images/cb_gijf.png,,gij.,,,,,,,,,,,0.081111111,0.038888889,1,0,0,gij.,0,14,14,23,1
,,,,,00026,2023-09-06_11h25.23.261,vbt_B1_day4,2022.2.4,MacIntel,5.747126437,,,,,,,,,,,,,,,,,,,,paalbaak,images/br_paalbaak.png,images/cb_paalbaak.png,,paalbaak,,,,,,,,,,,0.048888889,-0.08,1,0,0,paalbaak,0,15,15,39,1
,,,,,00026,2023-09-06_11h25.23.261,vbt_B1_day4,2022.2.4,MacIntel,5.747126437,,,,,,,,,,,,,,,,,,,,bisschap,images/br_bisschap.png,images/cb_bisschap.png,,biscuit,,,,,,,,,,,0.01,-0.248888889,1,0,0,biscuit,0,16,16,36,1
,,,,,00026,2023-09-06_11h25.23.261,vbt_B1_day4,2022.2.4,MacIntel,5.747126437,,,,,,,,,,,,,,,,,,,,sulbon,images/br_sulbon.png,images/cb_sulbon.png,,s.lbon,,,,,,,,,,,0.06,0.003333333,1,0,0,s.lbon,0,17,17,31,1
,,,,,00026,2023-09-06_11h25.23.261,vbt_B1_day4,2022.2.4,MacIntel,5.747126437,,,,,,,,,,,,,,,,,,,,opruimen,images/br_opruimen.png,images/cb_opruimen.png,,apr.....,,,,,,,,,,,0.148888889,-0.032222222,1,0,0,apr.....,0,18,18,59,1
,,,,,00026,2023-09-06_11h25.23.261,vbt_B1_day4,2022.2.4,MacIntel,5.747126437,,,,,,,,,,,,,,,,,,,,noodzaak,images/br_noodzaak.png,images/cb_noodzaak.png,,.oo......,,,,,,,,,,,0.13,-0.032222222,1,0,0,.oo......,0,19,19,56,1
,,,,,00026,2023-09-06_11h25.23.261,vbt_B1_day4,2022.2.4,MacIntel,5.747126437,,,,,,,,,,,,,,,,,,,,wagon,images/br_wagon.png,images/cb_wagon.png,,wagon,,,,,,,,,,,0.053333333,0.016666667,1,0,0,wagon,0,20,20,4,1
,,,,,00026,2023-09-06_11h25.23.261,vbt_B1_day4,2022.2.4,MacIntel,5.747126437,,,,,,,,,,,,,,,,,,,,broodje,images/br_broodje.png,images/cb_broodje.png,,bro.je,,,,,,,,,,,0.005555556,-0.045555556,1,0,0,bro.je,0,21,21,55,1
,,,,,00026,2023-09-06_11h25.23.261,vbt_B1_day4,2022.2.4,MacIntel,5.747126437,,,,,,,,,,,,,,,,,,,,bruin,images/br_bruin.png,images/cb_bruin.png,,br.in,,,,,,,,,,,0.044444444,0.035555556,1,0,0,br.in,0,22,22,45,1
,,,,,00026,2023-09-06_11h25.23.261,vbt_B1_day4,2022.2.4,MacIntel,5.747126437,,,,,,,,,,,,,,,,,,,,dozijn,images/br_dozijn.png,images/cb_dozijn.png,,.ozi..,,,,,,,,,,,0.038888889,-0.078888889,1,0,0,.ozi..,0,23,23,48,1
,,,,,00026,2023-09-06_11h25.23.261,vbt_B1_day4,2022.2.4,MacIntel,5.747126437,,,,,,,,,,,,,,,,,,,,zaalrijk,images/br_zaalrijk.png,images/cb_zaalrijk.png,,zaalrijk,,,,,,,,,,,0.145555556,0.014444444,1,0,0,zaalrijk,0,24,24,37,1
,,,,,00026,2023-09-06_11h25.23.261,vbt_B1_day4,2022.2.4,MacIntel,5.747126437,,,,,,,,,,,,,,,,,,,,haza,images/br_haza.png,images/cb_haza.png,,.ana,,,,,,,,,,,-0.021111111,-0.003333333,1,0,0,.ana,0,25,25,21,1
,,,,,00026,2023-09-06_11h25.23.261,vbt_B1_day4,2022.2.4,MacIntel,5.747126437,,,,,,,,,,,,,,,,,,,,seizoon,images/br_seizoon.png,images/cb_seizoon.png,,seizoen,,,,,,,,,,,0.156666667,0.007777778,1,0,0,seizoen,0,26,26,33,1
,,,,,00026,2023-09-06_11h25.23.261,vbt_B1_day4,2022.2.4,MacIntel,5.747126437,,,,,,,,,,,,,,,,,,,,waarop,images/br_waarop.png,images/cb_waarop.png,,waarop,,,,,,,,,,,0.002222222,-0.003333333,1,0,0,waarop,0,27,27,9,1
,,,,,00026,2023-09-06_11h25.23.261,vbt_B1_day4,2022.2.4,MacIntel,5.747126437,,,,,,,,,,,,,,,,,,,,tucket,images/br_tucket.png,images/cb_tucket.png,,s.t...,,,,,,,,,,,-0.035555556,-0.155555556,1,0,0,s.t...,0,28,28,30,1
,,,,,00026,2023-09-06_11h25.23.261,vbt_B1_day4,2022.2.4,MacIntel,5.747126437,,,,,,,,,,,,,,,,,,,,gebog,images/br_gebog.png,images/cb_gebog.png,,gedog,,,,,,,,,,,0.006666667,-0.034444444,1,0,0,gedog,0,29,29,24,1
,,,,,00026,2023-09-06_11h25.23.261,vbt_B1_day4,2022.2.4,MacIntel,5.747126437,,,,,,,,,,,,,,,,,,,,schenden,images/br_schenden.png,images/cb_schenden.png,,sc.en...,,,,,,,,,,,0.031111111,0.055555556,1,0,0,sc.en...,0,30,30,57,1
,,,,,00026,2023-09-06_11h25.23.261,vbt_B1_day4,2022.2.4,MacIntel,5.747126437,,,,,,,,,,,,,,,,,,,,weigeren,images/br_weigeren.png,images/cb_weigeren.png,,weigeren,,,,,,,,,,,0.195555556,0.008888889,1,0,0,weigeren,0,31,31,16,1
,,,,,00026,2023-09-06_11h25.23.261,vbt_B1_day4,2022.2.4,MacIntel,5.747126437,,,,,,,,,,,,,,,,,,,,toevol,images/br_toevol.png,images/cb_toevol.png,,toe.ol,,,,,,,,,,,0.074444444,-0.012222222,1,0,0,toe.ol,0,32,32,29,1
,,,,,00026,2023-09-06_11h25.23.261,vbt_B1_day4,2022.2.4,MacIntel,5.747126437,,,,,,,,,,,,,,,,,,,,flippen,images/br_flippen.png,images/cb_flippen.png,,flippen,,,,,,,,,,,0.138888889,0.068888889,1,0,0,flippen,0,33,33,54,1
,,,,,00026,2023-09-06_11h25.23.261,vbt_B1_day4,2022.2.4,MacIntel,5.747126437,,,,,,,,,,,,,,,,,,,,dalen,images/br_dalen.png,images/cb_dalen.png,,......,,,,,,,,,,,-0.023333333,-0.034444444,1,0,0,......,0,34,34,46,1
,,,,,00026,2023-09-06_11h25.23.261,vbt_B1_day4,2022.2.4,MacIntel,5.747126437,,,,,,,,,,,,,,,,,,,,zwek,images/br_zwek.png,images/cb_zwek.png,,zwek,,,,,,,,,,,0.021111111,-0.015555556,1,0,0,zwek,0,35,35,20,1
,,,,,00026,2023-09-06_11h25.23.261,vbt_B1_day4,2022.2.4,MacIntel,5.747126437,,,,,,,,,,,,,,,,,,,,seizoen,images/br_seizoen.png,images/cb_seizoen.png,,seizoen,,,,,,,,,,,0.116666667,0.017777778,1,0,0,seizoen,0,36,36,13,1
,,,,,00026,2023-09-06_11h25.23.261,vbt_B1_day4,2022.2.4,MacIntel,5.747126437,,,,,,,,,,,,,,,,,,,,lappen,images/br_lappen.png,images/cb_lappen.png,,lappen,,,,,,,,,,,0.068888889,0.135555556,1,0,0,lappen,0,37,37,49,1
,,,,,00026,2023-09-06_11h25.23.261,vbt_B1_day4,2022.2.4,MacIntel,5.747126437,,,,,,,,,,,,,,,,,,,,heengaan,images/br_heengaan.png,images/cb_heengaan.png,,......,,,,,,,,,,,0.154444444,0.141111111,1,0,0,......,0,38,38,19,1
,,,,,00026,2023-09-06_11h25.23.261,vbt_B1_day4,2022.2.4,MacIntel,5.747126437,,,,,,,,,,,,,,,,,,,,geliefd,images/br_geliefd.png,images/cb_geliefd.png,,geliefd,,,,,,,,,,,0.111111111,0.031111111,1,0,0,geliefd,0,39,39,14,1
,,,,,00026,2023-09-06_11h25.23.261,vbt_B1_day4,2022.2.4,MacIntel,5.747126437,,,,,,,,,,,,,,,,,,,,snee,images/br_snee.png,images/cb_snee.png,,snee,,,,,,,,,,,-0.031111111,0.022222222,1,0,0,snee,0,40,40,40,1
,,,,,00026,2023-09-06_11h25.23.261,vbt_B1_day4,2022.2.4,MacIntel,5.747126437,,,,,,,,,,,,,,,,,,,,opkicht,images/br_opkicht.png,images/cb_opkicht.png,,opki...,,,,,,,,,,,0.102222222,0.057777778,1,0,0,opki...,0,41,41,34,1
,,,,,00026,2023-09-06_11h25.23.261,vbt_B1_day4,2022.2.4,MacIntel,5.747126437,,,,,,,,,,,,,,,,,,,,warel,images/br_warel.png,images/cb_warel.png,,waril,,,,,,,,,,,0.228888889,-0.09,1,0,0,waril,0,42,42,26,1
,,,,,00026,2023-09-06_11h25.23.261,vbt_B1_day4,2022.2.4,MacIntel,5.747126437,,,,,,,,,,,,,,,,,,,,praat,images/br_praat.png,images/cb_praat.png,,praat,,,,,,,,,,,0.12,0.104444444,1,0,0,praat,0,43,43,7,1
,,,,,00026,2023-09-06_11h25.23.261,vbt_B1_day4,2022.2.4,MacIntel,5.747126437,,,,,,,,,,,,,,,,,,,,kaal,images/br_kaal.png,images/cb_kaal.png,,kaal,,,,,,,,,,,0.066666667,0.028888889,1,0,0,kaal,0,44,44,1,1
,,,,,00026,2023-09-06_11h25.23.261,vbt_B1_day4,2022.2.4,MacIntel,5.747126437,,,,,,,,,,,,,,,,,,,,steen,images/br_steen.png,images/cb_steen.png,,steen,,,,,,,,,,,0.058888889,-0.027777778,1,0,0,steen,0,45,45,44,1
,,,,,00026,2023-09-06_11h25.23.261,vbt_B1_day4,2022.2.4,MacIntel,5.747126437,,,,,,,,,,,,,,,,,,,,rijp,images/br_rijp.png,images/cb_rijp.png,,rijp,,,,,,,,,,,0.08,-0.116666667,1,0,0,rijp,0,46,46,2,1
,,,,,00026,2023-09-06_11h25.23.261,vbt_B1_day4,2022.2.4,MacIntel,5.747126437,,,,,,,,,,,,,,,,,,,,strok,images/br_strok.png,images/cb_strok.png,,strok,,,,,,,,,,,0.068888889,-0.092222222,1,0,0,strok,0,47,47,25,1
,,,,,00026,2023-09-06_11h25.23.261,vbt_B1_day4,2022.2.4,MacIntel,5.747126437,,,,,,,,,,,,,,,,,,,,midden,images/br_midden.png,images/cb_midden.png,,.i..en,,,,,,,,,,,0.122222222,0.037777778,1,0,0,.i..en,0,48,48,50,1
,,,,,00026,2023-09-06_11h25.23.261,vbt_B1_day4,2022.2.4,MacIntel,5.747126437,,,,,,,,,,,,,,,,,,,,gedicht,images/br_gedicht.png,images/cb_gedicht.png,,ge.i....,,,,,,,,,,,-0.021111111,0,1,0,0,ge.i....,0,49,49,15,1
,,,,,00026,2023-09-06_11h25.23.261,vbt_B1_day4,2022.2.4,MacIntel,5.747126437,,,,,,,,,,,,,,,,,,,,drooien,images/br_drooien.png,images/cb_drooien.png,,.rooien,,,,,,,,,,,0.105555556,-0.095555556,1,0,0,.rooien,0,50,50,32,1
,,,,,00026,2023-09-06_11h25.23.261,vbt_B1_day4,2022.2.4,MacIntel,5.747126437,,,,,,,,,,,,,,,,,,,,apparaat,images/br_apparaat.png,images/cb_apparaat.png,,apparaat,,,,,,,,,,,0.165555556,-0.051111111,1,0,0,apparaat,0,51,51,17,1
,,,,,00026,2023-09-06_11h25.23.261,vbt_B1_day4,2022.2.4,MacIntel,5.747126437,,,,,,,,,,,,,,,,,,,,soda,images/br_soda.png,images/cb_soda.png,,sofa,,,,,,,,,,,0.075555556,0,1,0,0,sofa,0,52,52,3,1
,,,,,00026,2023-09-06_11h25.23.261,vbt_B1_day4,2022.2.4,MacIntel,5.747126437,,,,,,,,,,,,,,,,,,,,drummer,images/br_drummer.png,images/cb_drummer.png,,fr....,,,,,,,,,,,0.013333333,0.05,1,0,0,fr....,0,53,53,53,1
,,,,,00026,2023-09-06_11h25.23.261,vbt_B1_day4,2022.2.4,MacIntel,5.747126437,,,,,,,,,,,,,,,,,,,,pittig,images/br_pittig.png,images/cb_pittig.png,,pittig,,,,,,,,,,,0.112222222,0.073333333,1,0,0,pittig,0,54,54,51,1
,,,,,00026,2023-09-06_11h25.23.261,vbt_B1_day4,2022.2.4,MacIntel,5.747126437,,,,,,,,,,,,,,,,,,,,gaan,images/br_gaan.png,images/cb_gaan.png,,gaan,,,,,,,,,,,0.028888889,-0.081111111,1,0,0,gaan,0,55,55,41,1
,,,,,00026,2023-09-06_11h25.23.261,vbt_B1_day4,2022.2.4,MacIntel,5.747126437,,,,,,,,,,,,,,,,,,,,gaaf,images/br_gaaf.png,images/cb_gaaf.png,,gaa.,,,,,,,,,,,0.132222222,-0.011111111,1,0,0,gaa.,0,56,56,43,1
,,,,,00026,2023-09-06_11h25.23.261,vbt_B1_day4,2022.2.4,MacIntel,5.747126437,,,,,,,,,,,,,,,,,,,,eerst,images/br_eerst.png,images/cb_eerst.png,,eerst,,,,,,,,,,,0.187777778,-0.022222222,1,0,0,eerst,0,57,57,47,1
,,,,,00026,2023-09-06_11h25.23.261,vbt_B1_day4,2022.2.4,MacIntel,5.747126437,,,,,,,,,,,,,,,,,,,,geheim,images/br_geheim.png,images/cb_geheim.png,,gi.ei.,,,,,,,,,,,0.058888889,-0.011111111,1,0,0,gi.ei.,0,58,58,8,1
,,,,,00026,2023-09-06_11h25.23.261,vbt_B1_day4,2022.2.4,MacIntel,5.747126437,,,,,,,,,,,,,,,,,,,,aanzwaag,images/br_aanzwaag.png,images/cb_aanzwaag.png,,aanzwaag,,,,,,,,,,,0.293333333,0.115555556,1,0,0,aanzwaag,0,59,59,38,1
,,,,,00026,2023-09-06_11h25.23.261,vbt_B1_day4,2022.2.4,MacIntel,5.747126437,,,,,,,,,,,,,,,,,,,,,,,,,,,,,,,,,,,,,,,,,,,,,
