welcome_mouse.x,welcome_mouse.y,welcome_mouse.leftButton,welcome_mouse.midButton,welcome_mouse.rightButton,"ID",date,expName,psychopyVersion,OS,frameRate,trainInstr_mouse.x,trainInstr_mouse.y,trainInstr_mouse.leftButton,trainInstr_mouse.midButton,trainInstr_mouse.rightButton,translation_key.keys,translation_key.corr,translation_key.rt,word_rsp.text,trWrd_mouse.x,trWrd_mouse.y,trWrd_mouse.leftButton,trWrd_mouse.midButton,trWrd_mouse.rightButton,train_loop.thisRepN,train_loop.thisTrialN,train_loop.thisN,train_loop.thisIndex,train_loop.ran,nlWrd,brWrd,cbWrd,test,testResp,mouse.x,mouse.y,mouse.leftButton,mouse.midButton,mouse.rightButton,testInstr_mouse.x,testInstr_mouse.y,testInstr_mouse.leftButton,testInstr_mouse.midButton,testInstr_mouse.rightButton,test_mouse.x,test_mouse.y,test_mouse.leftButton,test_mouse.midButton,test_mouse.rightButton,test_response.text,test_loop.thisRepN,test_loop.thisTrialN,test_loop.thisN,test_loop.thisIndex,test_loop.ran
0.14907406,-0.202777792,1,0,0,00062,2023-10-13_15h00.07.420,vbt_B1_day4,2022.2.4,Win32,59.95922773,,,,,,,,,,,,,,,,,,,,,,,,,,,,,,,,,,,,,,,,,,,,,
,,,,,00062,2023-10-13_15h00.07.420,vbt_B1_day4,2022.2.4,Win32,59.95922773,0.14907406,-0.202777792,1,0,0,,,,,,,,,,,,,,,,,,,,,,,,,,,,,,,,,,,,,,,,
,,,,,00062,2023-10-13_15h00.07.420,vbt_B1_day4,2022.2.4,Win32,59.95922773,,,,,,down,0,1.1178,,0.14907406,-0.202777792,1,0,0,0,0,0,3,1,mand,images/br_mand.png,images/cb_mand.png,0,,,,,,,,,,,,,,,,,,,,,,
,,,,,00062,2023-10-13_15h00.07.420,vbt_B1_day4,2022.2.4,Win32,59.95922773,,,,,,down,0,0.1369,,0.14907406,-0.202777792,1,0,0,0,1,1,170,1,schatten,images/br_schatten.png,images/cb_schatten.png,0,,,,,,,,,,,,,,,,,,,,,,
,,,,,00062,2023-10-13_15h00.07.420,vbt_B1_day4,2022.2.4,Win32,59.95922773,,,,,,down,0,0.4411,,0.14907406,-0.202777792,1,0,0,0,2,2,2,1,jaar,images/br_jaar.png,images/cb_jaar.png,0,,,,,,,,,,,,,,,,,,,,,,
,,,,,00062,2023-10-13_15h00.07.420,vbt_B1_day4,2022.2.4,Win32,59.95922773,,,,,,down,0,0.6012,,0.14907406,-0.202777792,1,0,0,0,3,3,95,1,vreten,images/br_vreten.png,images/cb_vreten.png,0,,,,,,,,,,,,,,,,,,,,,,
,,,,,00062,2023-10-13_15h00.07.420,vbt_B1_day4,2022.2.4,Win32,59.95922773,,,,,,down,0,0.0215,,0.14907406,-0.202777792,1,0,0,0,4,4,135,1,gedicht,images/br_gedicht.png,images/cb_gedicht.png,0,,,,,,,,,,,,,,,,,,,,,,
,,,,,00062,2023-10-13_15h00.07.420,vbt_B1_day4,2022.2.4,Win32,59.95922773,,,,,,down,0,0.5013,,0.14907406,-0.202777792,1,0,0,0,5,5,173,1,apparaat,images/br_apparaat.png,images/cb_apparaat.png,0,,,,,,,,,,,,,,,,,,,,,,
,,,,,00062,2023-10-13_15h00.07.420,vbt_B1_day4,2022.2.4,Win32,59.95922773,,,,,,down,0,0.2589,,0.14907406,-0.202777792,1,0,0,0,6,6,176,1,techniek,images/br_techniek.png,images/cb_techniek.png,0,,,,,,,,,,,,,,,,,,,,,,
,,,,,00062,2023-10-13_15h00.07.420,vbt_B1_day4,2022.2.4,Win32,59.95922773,,,,,,down,0,0.1753,,0.14907406,-0.202777792,1,0,0,0,7,7,22,1,stof,images/br_stof.png,images/cb_stof.png,0,,,,,,,,,,,,,,,,,,,,,,
,,,,,00062,2023-10-13_15h00.07.420,vbt_B1_day4,2022.2.4,Win32,59.95922773,,,,,,down,0,2.2521,,0.14907406,-0.202777792,1,0,0,0,8,8,25,1,plek,images/br_plek.png,images/cb_plek.png,1,plek,,,,,,,,,,,,,,,,,,,,,
,,,,,00062,2023-10-13_15h00.07.420,vbt_B1_day4,2022.2.4,Win32,59.95922773,,,,,,down,0,8.2421,,0.14907406,-0.202777792,1,0,0,0,9,9,11,1,mode,images/br_mode.png,images/cb_mode.png,0,,,,,,,,,,,,,,,,,,,,,,
,,,,,00062,2023-10-13_15h00.07.420,vbt_B1_day4,2022.2.4,Win32,59.95922773,,,,,,down,0,0.6513,,0.14907406,-0.202777792,1,0,0,0,10,10,189,1,aanraden,images/br_aanraden.png,images/cb_aanraden.png,0,,,,,,,,,,,,,,,,,,,,,,
,,,,,00062,2023-10-13_15h00.07.420,vbt_B1_day4,2022.2.4,Win32,59.95922773,,,,,,down,0,4.3327,,0.14907406,-0.202777792,1,0,0,0,11,11,29,1,baas,images/br_baas.png,images/cb_baas.png,0,,,,,,,,,,,,,,,,,,,,,,
,,,,,00062,2023-10-13_15h00.07.420,vbt_B1_day4,2022.2.4,Win32,59.95922773,,,,,,down,0,0.7703,,0.14907406,-0.202777792,1,0,0,0,12,12,62,1,knaap,images/br_knaap.png,images/cb_knaap.png,0,,,,,,,,,,,,,,,,,,,,,,
,,,,,00062,2023-10-13_15h00.07.420,vbt_B1_day4,2022.2.4,Win32,59.95922773,,,,,,down,0,1.4343,,0.14907406,-0.202777792,1,0,0,0,13,13,30,1,uien,images/br_uien.png,images/cb_uien.png,0,,,,,,,,,,,,,,,,,,,,,,
,,,,,00062,2023-10-13_15h00.07.420,vbt_B1_day4,2022.2.4,Win32,59.95922773,,,,,,down,0,2.4865,,0.14907406,-0.202777792,1,0,0,0,14,14,179,1,woestijn,images/br_woestijn.png,images/cb_woestijn.png,0,,,,,,,,,,,,,,,,,,,,,,
,,,,,00062,2023-10-13_15h00.07.420,vbt_B1_day4,2022.2.4,Win32,59.95922773,,,,,,down,0,6.8198,,0.14907406,-0.202777792,1,0,0,0,15,15,180,1,openbaar,images/br_openbaar.png,images/cb_openbaar.png,0,,,,,,,,,,,,,,,,,,,,,,
,,,,,00062,2023-10-13_15h00.07.420,vbt_B1_day4,2022.2.4,Win32,59.95922773,,,,,,down,0,0.9766,,0.14907406,-0.202777792,1,0,0,0,16,16,191,1,opheffen,images/br_opheffen.png,images/cb_opheffen.png,0,,,,,,,,,,,,,,,,,,,,,,
,,,,,00062,2023-10-13_15h00.07.420,vbt_B1_day4,2022.2.4,Win32,59.95922773,,,,,,down,0,0.8205,,0.14907406,-0.202777792,1,0,0,0,17,17,103,1,joggen,images/br_joggen.png,images/cb_joggen.png,0,,,,,,,,,,,,,,,,,,,,,,
,,,,,00062,2023-10-13_15h00.07.420,vbt_B1_day4,2022.2.4,Win32,59.95922773,,,,,,down,0,1.7021,,0.14907406,-0.202777792,1,0,0,0,18,18,138,1,akkoord,images/br_akkoord.png,images/cb_akkoord.png,0,,,,,,,,,,,,,,,,,,,,,,
,,,,,00062,2023-10-13_15h00.07.420,vbt_B1_day4,2022.2.4,Win32,59.95922773,,,,,,down,0,5.1861,,0.14907406,-0.202777792,1,0,0,0,19,19,32,1,palm,images/br_palm.png,images/cb_palm.png,0,,,,,,,,,,,,,,,,,,,,,,
,,,,,00062,2023-10-13_15h00.07.420,vbt_B1_day4,2022.2.4,Win32,59.95922773,,,,,,down,0,2.1091,,0.14907406,-0.202777792,1,0,0,0,20,20,122,1,waarvan,images/br_waarvan.png,images/cb_waarvan.png,0,,,,,,,,,,,,,,,,,,,,,,
,,,,,00062,2023-10-13_15h00.07.420,vbt_B1_day4,2022.2.4,Win32,59.95922773,,,,,,down,0,3.3193,,0.14907406,-0.202777792,1,0,0,0,21,21,143,1,hechten,images/br_hechten.png,images/cb_hechten.png,0,,,,,,,,,,,,,,,,,,,,,,
,,,,,00062,2023-10-13_15h00.07.420,vbt_B1_day4,2022.2.4,Win32,59.95922773,,,,,,down,0,2.0516,,0.14907406,-0.202777792,1,0,0,0,22,22,168,1,bisschop,images/br_bisschop.png,images/cb_bisschop.png,0,,,,,,,,,,,,,,,,,,,,,,
,,,,,00062,2023-10-13_15h00.07.420,vbt_B1_day4,2022.2.4,Win32,59.95922773,,,,,,down,0,7.7216,,0.14907406,-0.202777792,1,0,0,0,23,23,72,1,strak,images/br_strak.png,images/cb_strak.png,0,,,,,,,,,,,,,,,,,,,,,,
,,,,,00062,2023-10-13_15h00.07.420,vbt_B1_day4,2022.2.4,Win32,59.95922773,,,,,,down,0,3.5856,,0.14907406,-0.202777792,1,0,0,0,24,24,93,1,waarop,images/br_waarop.png,images/cb_waarop.png,0,,,,,,,,,,,,,,,,,,,,,,
,,,,,00062,2023-10-13_15h00.07.420,vbt_B1_day4,2022.2.4,Win32,59.95922773,,,,,,down,0,3.4188,,0.14907406,-0.202777792,1,0,0,0,25,25,35,1,lust,images/br_lust.png,images/cb_lust.png,0,,,,,,,,,,,,,,,,,,,,,,
,,,,,00062,2023-10-13_15h00.07.420,vbt_B1_day4,2022.2.4,Win32,59.95922773,,,,,,down,0,2.4252,,0.14907406,-0.202777792,1,0,0,0,26,26,98,1,kreeft,images/br_kreeft.png,images/cb_kreeft.png,0,,,,,,,,,,,,,,,,,,,,,,
,,,,,00062,2023-10-13_15h00.07.420,vbt_B1_day4,2022.2.4,Win32,59.95922773,,,,,,down,0,2.1854,,0.14907406,-0.202777792,1,0,0,0,27,27,94,1,oceaan,images/br_oceaan.png,images/cb_oceaan.png,0,,,,,,,,,,,,,,,,,,,,,,
,,,,,00062,2023-10-13_15h00.07.420,vbt_B1_day4,2022.2.4,Win32,59.95922773,,,,,,down,0,9.2572,,0.14907406,-0.202777792,1,0,0,0,28,28,147,1,komisch,images/br_komisch.png,images/cb_komisch.png,1,komese,,,,,,,,,,,,,,,,,,,,,
,,,,,00062,2023-10-13_15h00.07.420,vbt_B1_day4,2022.2.4,Win32,59.95922773,,,,,,down,0,0.3675,,0.14907406,-0.202777792,1,0,0,0,29,29,18,1,blik,images/br_blik.png,images/cb_blik.png,0,,,,,,,,,,,,,,,,,,,,,,
,,,,,00062,2023-10-13_15h00.07.420,vbt_B1_day4,2022.2.4,Win32,59.95922773,,,,,,down,0,8.0062,,0.14907406,-0.202777792,1,0,0,0,30,30,54,1,gebit,images/br_gebit.png,images/cb_gebit.png,0,,,,,,,,,,,,,,,,,,,,,,
,,,,,00062,2023-10-13_15h00.07.420,vbt_B1_day4,2022.2.4,Win32,59.95922773,,,,,,down,0,0.1342,,0.14907406,-0.202777792,1,0,0,0,31,31,129,1,verhaal,images/br_verhaal.png,images/cb_verhaal.png,0,,,,,,,,,,,,,,,,,,,,,,
,,,,,00062,2023-10-13_15h00.07.420,vbt_B1_day4,2022.2.4,Win32,59.95922773,,,,,,down,0,8.7713,,0.14907406,-0.202777792,1,0,0,0,32,32,58,1,tekst,images/br_tekst.png,images/cb_tekst.png,0,,,,,,,,,,,,,,,,,,,,,,
,,,,,00062,2023-10-13_15h00.07.420,vbt_B1_day4,2022.2.4,Win32,59.95922773,,,,,,down,0,2.6525,,0.14907406,-0.202777792,1,0,0,0,33,33,23,1,zout,images/br_zout.png,images/cb_zout.png,0,,,,,,,,,,,,,,,,,,,,,,
,,,,,00062,2023-10-13_15h00.07.420,vbt_B1_day4,2022.2.4,Win32,59.95922773,,,,,,down,0,12.1558,,0.14907406,-0.202777792,1,0,0,0,34,34,139,1,stiekem,images/br_stiekem.png,images/cb_stiekem.png,0,,,,,,,,,,,,,,,,,,,,,,
,,,,,00062,2023-10-13_15h00.07.420,vbt_B1_day4,2022.2.4,Win32,59.95922773,,,,,,down,0,18.1624,,0.14907406,-0.202777792,1,0,0,0,35,35,186,1,voorraad,images/br_voorraad.png,images/cb_voorraad.png,1,voorraad,,,,,,,,,,,,,,,,,,,,,
,,,,,00062,2023-10-13_15h00.07.420,vbt_B1_day4,2022.2.4,Win32,59.95922773,,,,,,down,0,0.8344,,0.14907406,-0.202777792,1,0,0,0,36,36,52,1,wagon,images/br_wagon.png,images/cb_wagon.png,0,,,,,,,,,,,,,,,,,,,,,,
,,,,,00062,2023-10-13_15h00.07.420,vbt_B1_day4,2022.2.4,Win32,59.95922773,,,,,,down,0,0.1706,,0.14907406,-0.202777792,1,0,0,0,37,37,17,1,taal,images/br_taal.png,images/cb_taal.png,0,,,,,,,,,,,,,,,,,,,,,,
,,,,,00062,2023-10-13_15h00.07.420,vbt_B1_day4,2022.2.4,Win32,59.95922773,,,,,,down,0,0.4682,,0.14907406,-0.202777792,1,0,0,0,38,38,137,1,trekker,images/br_trekker.png,images/cb_trekker.png,0,,,,,,,,,,,,,,,,,,,,,,
,,,,,00062,2023-10-13_15h00.07.420,vbt_B1_day4,2022.2.4,Win32,59.95922773,,,,,,down,0,0.8938,,0.14907406,-0.202777792,1,0,0,0,39,39,40,1,schep,images/br_schep.png,images/cb_schep.png,0,,,,,,,,,,,,,,,,,,,,,,
,,,,,00062,2023-10-13_15h00.07.420,vbt_B1_day4,2022.2.4,Win32,59.95922773,,,,,,down,0,0.2566,,0.14907406,-0.202777792,1,0,0,0,40,40,123,1,hiervan,images/br_hiervan.png,images/cb_hiervan.png,0,,,,,,,,,,,,,,,,,,,,,,
,,,,,00062,2023-10-13_15h00.07.420,vbt_B1_day4,2022.2.4,Win32,59.95922773,,,,,,down,0,0.1756,,0.14907406,-0.202777792,1,0,0,0,41,41,92,1,geheim,images/br_geheim.png,images/cb_geheim.png,0,,,,,,,,,,,,,,,,,,,,,,
,,,,,00062,2023-10-13_15h00.07.420,vbt_B1_day4,2022.2.4,Win32,59.95922773,,,,,,down,0,0.7677,,0.14907406,-0.202777792,1,0,0,0,42,42,74,1,graaf,images/br_graaf.png,images/cb_graaf.png,0,,,,,,,,,,,,,,,,,,,,,,
,,,,,00062,2023-10-13_15h00.07.420,vbt_B1_day4,2022.2.4,Win32,59.95922773,,,,,,down,0,0.5853,,0.14907406,-0.202777792,1,0,0,0,43,43,192,1,schaamte,images/br_schaamte.png,images/cb_schaamte.png,0,,,,,,,,,,,,,,,,,,,,,,
,,,,,00062,2023-10-13_15h00.07.420,vbt_B1_day4,2022.2.4,Win32,59.95922773,,,,,,down,0,4.4412,,0.14907406,-0.202777792,1,0,0,0,44,44,44,1,flits,images/br_flits.png,images/cb_flits.png,0,,,,,,,,,,,,,,,,,,,,,,
,,,,,00062,2023-10-13_15h00.07.420,vbt_B1_day4,2022.2.4,Win32,59.95922773,,,,,,down,0,6.537,,0.14907406,-0.202777792,1,0,0,0,45,45,104,1,zweven,images/br_zweven.png,images/cb_zweven.png,1,zweven,,,,,,,,,,,,,,,,,,,,,
,,,,,00062,2023-10-13_15h00.07.420,vbt_B1_day4,2022.2.4,Win32,59.95922773,,,,,,down,0,0.8849,,0.14907406,-0.202777792,1,0,0,0,46,46,166,1,strikken,images/br_strikken.png,images/cb_strikken.png,0,,,,,,,,,,,,,,,,,,,,,,
,,,,,00062,2023-10-13_15h00.07.420,vbt_B1_day4,2022.2.4,Win32,59.95922773,,,,,,down,0,9.9049,,0.14907406,-0.202777792,1,0,0,0,47,47,12,1,kust,images/br_kust.png,images/cb_kust.png,0,,,,,,,,,,,,,,,,,,,,,,
,,,,,00062,2023-10-13_15h00.07.420,vbt_B1_day4,2022.2.4,Win32,59.95922773,,,,,,down,0,1.3954,,0.14907406,-0.202777792,1,0,0,0,48,48,114,1,vullen,images/br_vullen.png,images/cb_vullen.png,0,,,,,,,,,,,,,,,,,,,,,,
,,,,,00062,2023-10-13_15h00.07.420,vbt_B1_day4,2022.2.4,Win32,59.95922773,,,,,,down,0,2.1055,,0.14907406,-0.202777792,1,0,0,0,49,49,55,1,praat,images/br_praat.png,images/cb_praat.png,0,,,,,,,,,,,,,,,,,,,,,,
,,,,,00062,2023-10-13_15h00.07.420,vbt_B1_day4,2022.2.4,Win32,59.95922773,,,,,,down,0,1.4679,,0.157407407,-0.208333333,1,0,0,0,50,50,31,1,poes,images/br_poes.png,images/cb_poes.png,0,,,,,,,,,,,,,,,,,,,,,,
,,,,,00062,2023-10-13_15h00.07.420,vbt_B1_day4,2022.2.4,Win32,59.95922773,,,,,,down,0,0.259,,0.157407407,-0.208333333,1,0,0,0,51,51,46,1,jagen,images/br_jagen.png,images/cb_jagen.png,0,,,,,,,,,,,,,,,,,,,,,,
,,,,,00062,2023-10-13_15h00.07.420,vbt_B1_day4,2022.2.4,Win32,59.95922773,,,,,,down,0,0.7433,,0.157407407,-0.208333333,1,0,0,0,52,52,49,1,laken,images/br_laken.png,images/cb_laken.png,0,,,,,,,,,,,,,,,,,,,,,,
,,,,,00062,2023-10-13_15h00.07.420,vbt_B1_day4,2022.2.4,Win32,59.95922773,,,,,,down,0,0.2018,,0.157407407,-0.208333333,1,0,0,0,53,53,160,1,daarheen,images/br_daarheen.png,images/cb_daarheen.png,0,,,,,,,,,,,,,,,,,,,,,,
,,,,,00062,2023-10-13_15h00.07.420,vbt_B1_day4,2022.2.4,Win32,59.95922773,,,,,,down,0,7.6549,,0.157407407,-0.208333333,1,0,0,0,54,54,14,1,rijp,images/br_rijp.png,images/cb_rijp.png,0,,,,,,,,,,,,,,,,,,,,,,
,,,,,00062,2023-10-13_15h00.07.420,vbt_B1_day4,2022.2.4,Win32,59.95922773,,,,,,down,0,2.9264,,0.157407407,-0.208333333,1,0,0,0,55,55,7,1,geld,images/br_geld.png,images/cb_geld.png,0,,,,,,,,,,,,,,,,,,,,,,
,,,,,00062,2023-10-13_15h00.07.420,vbt_B1_day4,2022.2.4,Win32,59.95922773,,,,,,down,0,2.3361,,0.157407407,-0.208333333,1,0,0,0,56,56,162,1,uitdelen,images/br_uitdelen.png,images/cb_uitdelen.png,0,,,,,,,,,,,,,,,,,,,,,,
,,,,,00062,2023-10-13_15h00.07.420,vbt_B1_day4,2022.2.4,Win32,59.95922773,,,,,,down,0,0.9335,,0.157407407,-0.208333333,1,0,0,0,57,57,130,1,keihard,images/br_keihard.png,images/cb_keihard.png,0,,,,,,,,,,,,,,,,,,,,,,
,,,,,00062,2023-10-13_15h00.07.420,vbt_B1_day4,2022.2.4,Win32,59.95922773,,,,,,down,0,0.9243,,0.157407407,-0.208333333,1,0,0,0,58,58,41,1,maken,images/br_maken.png,images/cb_maken.png,0,,,,,,,,,,,,,,,,,,,,,,
,,,,,00062,2023-10-13_15h00.07.420,vbt_B1_day4,2022.2.4,Win32,59.95922773,,,,,,down,0,0.6674,,0.157407407,-0.208333333,1,0,0,0,59,59,33,1,vlek,images/br_vlek.png,images/cb_vlek.png,0,,,,,,,,,,,,,,,,,,,,,,
,,,,,00062,2023-10-13_15h00.07.420,vbt_B1_day4,2022.2.4,Win32,59.95922773,,,,,,down,0,0.7349,,0.157407407,-0.208333333,1,0,0,0,60,60,85,1,heilig,images/br_heilig.png,images/cb_heilig.png,0,,,,,,,,,,,,,,,,,,,,,,
,,,,,00062,2023-10-13_15h00.07.420,vbt_B1_day4,2022.2.4,Win32,59.95922773,,,,,,down,0,1.0349,,0.157407407,-0.208333333,1,0,0,0,61,61,159,1,sufferd,images/br_sufferd.png,images/cb_sufferd.png,0,,,,,,,,,,,,,,,,,,,,,,
,,,,,00062,2023-10-13_15h00.07.420,vbt_B1_day4,2022.2.4,Win32,59.95922773,,,,,,down,0,0.3563,,0.157407407,-0.208333333,1,0,0,0,62,62,140,1,blijven,images/br_blijven.png,images/cb_blijven.png,0,,,,,,,,,,,,,,,,,,,,,,
,,,,,00062,2023-10-13_15h00.07.420,vbt_B1_day4,2022.2.4,Win32,59.95922773,,,,,,down,0,0.539,,0.157407407,-0.208333333,1,0,0,0,63,63,77,1,woede,images/br_woede.png,images/cb_woede.png,0,,,,,,,,,,,,,,,,,,,,,,
,,,,,00062,2023-10-13_15h00.07.420,vbt_B1_day4,2022.2.4,Win32,59.95922773,,,,,,down,0,0.4722,,0.157407407,-0.208333333,1,0,0,0,64,64,42,1,bleek,images/br_bleek.png,images/cb_bleek.png,0,,,,,,,,,,,,,,,,,,,,,,
,,,,,00062,2023-10-13_15h00.07.420,vbt_B1_day4,2022.2.4,Win32,59.95922773,,,,,,down,0,0.1725,,0.157407407,-0.208333333,1,0,0,0,65,65,87,1,toeval,images/br_toeval.png,images/cb_toeval.png,0,,,,,,,,,,,,,,,,,,,,,,
,,,,,00062,2023-10-13_15h00.07.420,vbt_B1_day4,2022.2.4,Win32,59.95922773,,,,,,down,0,0.9218,,0.157407407,-0.208333333,1,0,0,0,66,66,156,1,rechten,images/br_rechten.png,images/cb_rechten.png,0,,,,,,,,,,,,,,,,,,,,,,
,,,,,00062,2023-10-13_15h00.07.420,vbt_B1_day4,2022.2.4,Win32,59.95922773,,,,,,down,0,0.2038,,0.157407407,-0.208333333,1,0,0,0,67,67,39,1,laag,images/br_laag.png,images/cb_laag.png,0,,,,,,,,,,,,,,,,,,,,,,
,,,,,00062,2023-10-13_15h00.07.420,vbt_B1_day4,2022.2.4,Win32,59.95922773,,,,,,down,0,1.269,,0.157407407,-0.208333333,1,0,0,0,68,68,100,1,geduld,images/br_geduld.png,images/cb_geduld.png,0,,,,,,,,,,,,,,,,,,,,,,
,,,,,00062,2023-10-13_15h00.07.420,vbt_B1_day4,2022.2.4,Win32,59.95922773,,,,,,down,0,0.1763,,0.157407407,-0.208333333,1,0,0,0,69,69,28,1,stal,images/br_stal.png,images/cb_stal.png,0,,,,,,,,,,,,,,,,,,,,,,
,,,,,00062,2023-10-13_15h00.07.420,vbt_B1_day4,2022.2.4,Win32,59.95922773,,,,,,down,0,2.0719,,0.157407407,-0.208333333,1,0,0,0,70,70,110,1,zuster,images/br_zuster.png,images/cb_zuster.png,0,,,,,,,,,,,,,,,,,,,,,,
,,,,,00062,2023-10-13_15h00.07.420,vbt_B1_day4,2022.2.4,Win32,59.95922773,,,,,,down,0,2.6225,,0.157407407,-0.208333333,1,0,0,0,71,71,63,1,flirt,images/br_flirt.png,images/cb_flirt.png,0,,,,,,,,,,,,,,,,,,,,,,
,,,,,00062,2023-10-13_15h00.07.420,vbt_B1_day4,2022.2.4,Win32,59.95922773,,,,,,down,0,1.6325,,0.157407407,-0.208333333,1,0,0,0,72,72,6,1,diep,images/br_diep.png,images/cb_diep.png,0,,,,,,,,,,,,,,,,,,,,,,
,,,,,00062,2023-10-13_15h00.07.420,vbt_B1_day4,2022.2.4,Win32,59.95922773,,,,,,down,0,0.3284,,0.157407407,-0.208333333,1,0,0,0,73,73,43,1,klauw,images/br_klauw.png,images/cb_klauw.png,0,,,,,,,,,,,,,,,,,,,,,,
,,,,,00062,2023-10-13_15h00.07.420,vbt_B1_day4,2022.2.4,Win32,59.95922773,,,,,,down,0,0.6745,,0.157407407,-0.208333333,1,0,0,0,74,74,89,1,slapen,images/br_slapen.png,images/cb_slapen.png,0,,,,,,,,,,,,,,,,,,,,,,
,,,,,00062,2023-10-13_15h00.07.420,vbt_B1_day4,2022.2.4,Win32,59.95922773,,,,,,down,0,0.8672,,0.157407407,-0.208333333,1,0,0,0,75,75,37,1,mijn,images/br_mijn.png,images/cb_mijn.png,0,,,,,,,,,,,,,,,,,,,,,,
,,,,,00062,2023-10-13_15h00.07.420,vbt_B1_day4,2022.2.4,Win32,59.95922773,,,,,,down,0,0.3842,,0.157407407,-0.208333333,1,0,0,0,76,76,167,1,eenhoorn,images/br_eenhoorn.png,images/cb_eenhoorn.png,0,,,,,,,,,,,,,,,,,,,,,,
,,,,,00062,2023-10-13_15h00.07.420,vbt_B1_day4,2022.2.4,Win32,59.95922773,,,,,,down,0,0.952,,0.159259302,-0.208333333,1,0,0,0,77,77,83,1,mening,images/br_mening.png,images/cb_mening.png,0,,,,,,,,,,,,,,,,,,,,,,
,,,,,00062,2023-10-13_15h00.07.420,vbt_B1_day4,2022.2.4,Win32,59.95922773,,,,,,down,0,0.7892,,0.159259302,-0.208333333,1,0,0,0,78,78,69,1,waken,images/br_waken.png,images/cb_waken.png,0,,,,,,,,,,,,,,,,,,,,,,
,,,,,00062,2023-10-13_15h00.07.420,vbt_B1_day4,2022.2.4,Win32,59.95922773,,,,,,down,0,2.3716,,0.159259302,-0.208333333,1,0,0,0,79,79,151,1,aanzoek,images/br_aanzoek.png,images/cb_aanzoek.png,0,,,,,,,,,,,,,,,,,,,,,,
,,,,,00062,2023-10-13_15h00.07.420,vbt_B1_day4,2022.2.4,Win32,59.95922773,,,,,,down,0,8.6528,,0.159259302,-0.208333333,1,0,0,0,80,80,24,1,jurk,images/br_jurk.png,images/cb_jurk.png,1,jurk,,,,,,,,,,,,,,,,,,,,,
,,,,,00062,2023-10-13_15h00.07.420,vbt_B1_day4,2022.2.4,Win32,59.95922773,,,,,,down,0,3.0339,,0.159259302,-0.208333333,1,0,0,0,81,81,27,1,dans,images/br_dans.png,images/cb_dans.png,1,dans,,,,,,,,,,,,,,,,,,,,,
,,,,,00062,2023-10-13_15h00.07.420,vbt_B1_day4,2022.2.4,Win32,59.95922773,,,,,,down,0,0.5179,,0.159259302,-0.208333333,1,0,0,0,82,82,136,1,waarbij,images/br_waarbij.png,images/cb_waarbij.png,0,,,,,,,,,,,,,,,,,,,,,,
,,,,,00062,2023-10-13_15h00.07.420,vbt_B1_day4,2022.2.4,Win32,59.95922773,,,,,,down,0,0.9019,,0.159259302,-0.208333333,1,0,0,0,83,83,51,1,samen,images/br_samen.png,images/cb_samen.png,0,,,,,,,,,,,,,,,,,,,,,,
,,,,,00062,2023-10-13_15h00.07.420,vbt_B1_day4,2022.2.4,Win32,59.95922773,,,,,,down,0,0.8738,,0.159259302,-0.208333333,1,0,0,0,84,84,165,1,feestdag,images/br_feestdag.png,images/cb_feestdag.png,0,,,,,,,,,,,,,,,,,,,,,,
,,,,,00062,2023-10-13_15h00.07.420,vbt_B1_day4,2022.2.4,Win32,59.95922773,,,,,,down,0,0.7511,,0.159259302,-0.208333333,1,0,0,0,85,85,117,1,kennis,images/br_kennis.png,images/cb_kennis.png,0,,,,,,,,,,,,,,,,,,,,,,
,,,,,00062,2023-10-13_15h00.07.420,vbt_B1_day4,2022.2.4,Win32,59.95922773,,,,,,down,0,0.8519,,0.159259302,-0.208333333,1,0,0,0,86,86,132,1,grappen,images/br_grappen.png,images/cb_grappen.png,0,,,,,,,,,,,,,,,,,,,,,,
,,,,,00062,2023-10-13_15h00.07.420,vbt_B1_day4,2022.2.4,Win32,59.95922773,,,,,,down,0,0.4034,,0.159259302,-0.208333333,1,0,0,0,87,87,178,1,huisdier,images/br_huisdier.png,images/cb_huisdier.png,0,,,,,,,,,,,,,,,,,,,,,,
,,,,,00062,2023-10-13_15h00.07.420,vbt_B1_day4,2022.2.4,Win32,59.95922773,,,,,,down,0,0.0678,,0.159259302,-0.208333333,1,0,0,0,88,88,90,1,geluid,images/br_geluid.png,images/cb_geluid.png,0,,,,,,,,,,,,,,,,,,,,,,
,,,,,00062,2023-10-13_15h00.07.420,vbt_B1_day4,2022.2.4,Win32,59.95922773,,,,,,down,0,0.0379,,0.159259302,-0.208333333,1,0,0,0,89,89,34,1,vorm,images/br_vorm.png,images/cb_vorm.png,0,,,,,,,,,,,,,,,,,,,,,,
,,,,,00062,2023-10-13_15h00.07.420,vbt_B1_day4,2022.2.4,Win32,59.95922773,,,,,,down,0,0.0023,,0.159259302,-0.208333333,1,0,0,0,90,90,195,1,middelen,images/br_middelen.png,images/cb_middelen.png,0,,,,,,,,,,,,,,,,,,,,,,
,,,,,00062,2023-10-13_15h00.07.420,vbt_B1_day4,2022.2.4,Win32,59.95922773,,,,,,down,0,0.3328,,0.159259302,-0.208333333,1,0,0,0,91,91,109,1,totaal,images/br_totaal.png,images/cb_totaal.png,0,,,,,,,,,,,,,,,,,,,,,,
,,,,,00062,2023-10-13_15h00.07.420,vbt_B1_day4,2022.2.4,Win32,59.95922773,,,,,,down,0,0.0011,,0.159259302,-0.208333333,1,0,0,0,92,92,118,1,vinger,images/br_vinger.png,images/cb_vinger.png,0,,,,,,,,,,,,,,,,,,,,,,
,,,,,00062,2023-10-13_15h00.07.420,vbt_B1_day4,2022.2.4,Win32,59.95922773,,,,,,down,0,0.5566,,0.159259302,-0.208333333,1,0,0,0,93,93,16,1,ziek,images/br_ziek.png,images/cb_ziek.png,0,,,,,,,,,,,,,,,,,,,,,,
,,,,,00062,2023-10-13_15h00.07.420,vbt_B1_day4,2022.2.4,Win32,59.95922773,,,,,,down,0,0.2011,,0.159259302,-0.208333333,1,0,0,0,94,94,15,1,soda,images/br_soda.png,images/cb_soda.png,0,,,,,,,,,,,,,,,,,,,,,,
,,,,,00062,2023-10-13_15h00.07.420,vbt_B1_day4,2022.2.4,Win32,59.95922773,,,,,,down,0,0.1044,,0.159259302,-0.208333333,1,0,0,0,95,95,108,1,excuus,images/br_excuus.png,images/cb_excuus.png,0,,,,,,,,,,,,,,,,,,,,,,
,,,,,00062,2023-10-13_15h00.07.420,vbt_B1_day4,2022.2.4,Win32,59.95922773,,,,,,down,0,1.6377,,0.159259302,-0.208333333,1,0,0,0,96,96,75,1,snoep,images/br_snoep.png,images/cb_snoep.png,0,,,,,,,,,,,,,,,,,,,,,,
,,,,,00062,2023-10-13_15h00.07.420,vbt_B1_day4,2022.2.4,Win32,59.95922773,,,,,,down,0,8.2544,,0.159259302,-0.208333333,1,0,0,0,97,97,144,1,eetlust,images/br_eetlust.png,images/cb_eetlust.png,1,eetlust,,,,,,,,,,,,,,,,,,,,,
,,,,,00062,2023-10-13_15h00.07.420,vbt_B1_day4,2022.2.4,Win32,59.95922773,,,,,,down,0,0.7756,,0.159259302,-0.208333333,1,0,0,0,98,98,8,1,knie,images/br_knie.png,images/cb_knie.png,0,,,,,,,,,,,,,,,,,,,,,,
,,,,,00062,2023-10-13_15h00.07.420,vbt_B1_day4,2022.2.4,Win32,59.95922773,,,,,,down,0,0.5934,,0.159259302,-0.208333333,1,0,0,0,99,99,56,1,traag,images/br_traag.png,images/cb_traag.png,0,,,,,,,,,,,,,,,,,,,,,,
,,,,,00062,2023-10-13_15h00.07.420,vbt_B1_day4,2022.2.4,Win32,59.95922773,,,,,,down,0,0.7797,,0.159259302,-0.208333333,1,0,0,0,100,100,154,1,aflopen,images/br_aflopen.png,images/cb_aflopen.png,0,,,,,,,,,,,,,,,,,,,,,,
,,,,,00062,2023-10-13_15h00.07.420,vbt_B1_day4,2022.2.4,Win32,59.95922773,,,,,,down,0,0.2844,,0.159259302,-0.208333333,1,0,0,0,101,101,190,1,goedkoop,images/br_goedkoop.png,images/cb_goedkoop.png,0,,,,,,,,,,,,,,,,,,,,,,
,,,,,00062,2023-10-13_15h00.07.420,vbt_B1_day4,2022.2.4,Win32,59.95922773,,,,,,down,0,0.101,,0.159259302,-0.208333333,1,0,0,0,102,102,158,1,innemen,images/br_innemen.png,images/cb_innemen.png,0,,,,,,,,,,,,,,,,,,,,,,
,,,,,00062,2023-10-13_15h00.07.420,vbt_B1_day4,2022.2.4,Win32,59.95922773,,,,,,down,0,1.2177,,0.159259302,-0.208333333,1,0,0,0,103,103,193,1,weeshuis,images/br_weeshuis.png,images/cb_weeshuis.png,0,,,,,,,,,,,,,,,,,,,,,,
,,,,,00062,2023-10-13_15h00.07.420,vbt_B1_day4,2022.2.4,Win32,59.95922773,,,,,,down,0,0.4159,,0.159259302,-0.208333333,1,0,0,0,104,104,152,1,afnemen,images/br_afnemen.png,images/cb_afnemen.png,0,,,,,,,,,,,,,,,,,,,,,,
,,,,,00062,2023-10-13_15h00.07.420,vbt_B1_day4,2022.2.4,Win32,59.95922773,,,,,,down,0,1.7582,,0.159259302,-0.208333333,1,0,0,0,105,105,183,1,getuigen,images/br_getuigen.png,images/cb_getuigen.png,0,,,,,,,,,,,,,,,,,,,,,,
,,,,,00062,2023-10-13_15h00.07.420,vbt_B1_day4,2022.2.4,Win32,59.95922773,,,,,,down,0,14.1938,,0.159259302,-0.208333333,1,0,0,0,106,106,184,1,aandelen,images/br_aandelen.png,images/cb_aandelen.png,1,aandelen,,,,,,,,,,,,,,,,,,,,,
,,,,,00062,2023-10-13_15h00.07.420,vbt_B1_day4,2022.2.4,Win32,59.95922773,,,,,,down,0,0.8764,,0.159259302,-0.208333333,1,0,0,0,107,107,19,1,geit,images/br_geit.png,images/cb_geit.png,0,,,,,,,,,,,,,,,,,,,,,,
,,,,,00062,2023-10-13_15h00.07.420,vbt_B1_day4,2022.2.4,Win32,59.95922773,,,,,,down,0,0.643,,0.159259302,-0.208333333,1,0,0,0,108,108,80,1,kanjer,images/br_kanjer.png,images/cb_kanjer.png,0,,,,,,,,,,,,,,,,,,,,,,
,,,,,00062,2023-10-13_15h00.07.420,vbt_B1_day4,2022.2.4,Win32,59.95922773,,,,,,down,0,7.7204,,0.159259302,-0.208333333,1,0,0,0,109,109,187,1,opkijken,images/br_opkijken.png,images/cb_opkijken.png,1,opkijken,,,,,,,,,,,,,,,,,,,,,
,,,,,00062,2023-10-13_15h00.07.420,vbt_B1_day4,2022.2.4,Win32,59.95922773,,,,,,down,0,0.251,,0.159259302,-0.208333333,1,0,0,0,110,110,76,1,afval,images/br_afval.png,images/cb_afval.png,0,,,,,,,,,,,,,,,,,,,,,,
,,,,,00062,2023-10-13_15h00.07.420,vbt_B1_day4,2022.2.4,Win32,59.95922773,,,,,,down,0,0.5702,,0.159259302,-0.208333333,1,0,0,0,111,111,50,1,stoom,images/br_stoom.png,images/cb_stoom.png,0,,,,,,,,,,,,,,,,,,,,,,
,,,,,00062,2023-10-13_15h00.07.420,vbt_B1_day4,2022.2.4,Win32,59.95922773,,,,,,down,0,0.7736,,0.159259302,-0.208333333,1,0,0,0,112,112,119,1,liefje,images/br_liefje.png,images/cb_liefje.png,0,,,,,,,,,,,,,,,,,,,,,,
,,,,,00062,2023-10-13_15h00.07.420,vbt_B1_day4,2022.2.4,Win32,59.95922773,,,,,,down,0,0.4359,,0.159259302,-0.208333333,1,0,0,0,113,113,157,1,uitlaat,images/br_uitlaat.png,images/cb_uitlaat.png,0,,,,,,,,,,,,,,,,,,,,,,
,,,,,00062,2023-10-13_15h00.07.420,vbt_B1_day4,2022.2.4,Win32,59.95922773,,,,,,down,0,0.5918,,0.159259302,-0.208333333,1,0,0,0,114,114,57,1,steek,images/br_steek.png,images/cb_steek.png,0,,,,,,,,,,,,,,,,,,,,,,
,,,,,00062,2023-10-13_15h00.07.420,vbt_B1_day4,2022.2.4,Win32,59.95922773,,,,,,down,0,0.5678,,0.159259302,-0.208333333,1,0,0,0,115,115,188,1,strekken,images/br_strekken.png,images/cb_strekken.png,0,,,,,,,,,,,,,,,,,,,,,,
,,,,,00062,2023-10-13_15h00.07.420,vbt_B1_day4,2022.2.4,Win32,59.95922773,,,,,,down,0,0.6058,,0.159259302,-0.208333333,1,0,0,0,116,116,198,1,bedoelen,images/br_bedoelen.png,images/cb_bedoelen.png,0,,,,,,,,,,,,,,,,,,,,,,
,,,,,00062,2023-10-13_15h00.07.420,vbt_B1_day4,2022.2.4,Win32,59.95922773,,,,,,down,0,0.6845,,0.159259302,-0.208333333,1,0,0,0,117,117,78,1,leren,images/br_leren.png,images/cb_leren.png,0,,,,,,,,,,,,,,,,,,,,,,
,,,,,00062,2023-10-13_15h00.07.420,vbt_B1_day4,2022.2.4,Win32,59.95922773,,,,,,down,0,0.7995,,0.159259302,-0.208333333,1,0,0,0,118,118,141,1,knielen,images/br_knielen.png,images/cb_knielen.png,0,,,,,,,,,,,,,,,,,,,,,,
,,,,,00062,2023-10-13_15h00.07.420,vbt_B1_day4,2022.2.4,Win32,59.95922773,,,,,,down,0,1.1566,,0.159259302,-0.208333333,1,0,0,0,119,119,97,1,loyaal,images/br_loyaal.png,images/cb_loyaal.png,0,,,,,,,,,,,,,,,,,,,,,,
,,,,,00062,2023-10-13_15h00.07.420,vbt_B1_day4,2022.2.4,Win32,59.95922773,,,,,,down,0,0.9222,,0.159259302,-0.208333333,1,0,0,0,120,120,155,1,gerucht,images/br_gerucht.png,images/cb_gerucht.png,0,,,,,,,,,,,,,,,,,,,,,,
,,,,,00062,2023-10-13_15h00.07.420,vbt_B1_day4,2022.2.4,Win32,59.95922773,,,,,,down,0,1.1014,,0.159259302,-0.208333333,1,0,0,0,121,121,73,1,volop,images/br_volop.png,images/cb_volop.png,0,,,,,,,,,,,,,,,,,,,,,,
,,,,,00062,2023-10-13_15h00.07.420,vbt_B1_day4,2022.2.4,Win32,59.95922773,,,,,,down,0,1.2895,,0.159259302,-0.208333333,1,0,0,0,122,122,128,1,prikken,images/br_prikken.png,images/cb_prikken.png,0,,,,,,,,,,,,,,,,,,,,,,
,,,,,00062,2023-10-13_15h00.07.420,vbt_B1_day4,2022.2.4,Win32,59.95922773,,,,,,down,0,0.2175,,0.159259302,-0.208333333,1,0,0,0,123,123,116,1,besmet,images/br_besmet.png,images/cb_besmet.png,0,,,,,,,,,,,,,,,,,,,,,,
,,,,,00062,2023-10-13_15h00.07.420,vbt_B1_day4,2022.2.4,Win32,59.95922773,,,,,,down,0,1.1682,,0.159259302,-0.208333333,1,0,0,0,124,124,60,1,jasje,images/br_jasje.png,images/cb_jasje.png,0,,,,,,,,,,,,,,,,,,,,,,
,,,,,00062,2023-10-13_15h00.07.420,vbt_B1_day4,2022.2.4,Win32,59.95922773,,,,,,down,0,0.6012,,0.159259302,-0.208333333,1,0,0,0,125,125,9,1,hier,images/br_hier.png,images/cb_hier.png,0,,,,,,,,,,,,,,,,,,,,,,
,,,,,00062,2023-10-13_15h00.07.420,vbt_B1_day4,2022.2.4,Win32,59.95922773,,,,,,down,0,1.572,,0.159259302,-0.208333333,1,0,0,0,126,126,125,1,aanzien,images/br_aanzien.png,images/cb_aanzien.png,0,,,,,,,,,,,,,,,,,,,,,,
,,,,,00062,2023-10-13_15h00.07.420,vbt_B1_day4,2022.2.4,Win32,59.95922773,,,,,,down,0,9.5426,,0.159259302,-0.208333333,1,0,0,0,127,127,145,1,invloed,images/br_invloed.png,images/cb_invloed.png,1,invloed,,,,,,,,,,,,,,,,,,,,,
,,,,,00062,2023-10-13_15h00.07.420,vbt_B1_day4,2022.2.4,Win32,59.95922773,,,,,,down,0,0.0557,,0.159259302,-0.208333333,1,0,0,0,128,128,1,1,zaal,images/br_zaal.png,images/cb_zaal.png,0,,,,,,,,,,,,,,,,,,,,,,
,,,,,00062,2023-10-13_15h00.07.420,vbt_B1_day4,2022.2.4,Win32,59.95922773,,,,,,down,0,0.2839,,0.159259302,-0.208333333,1,0,0,0,129,129,71,1,bever,images/br_bever.png,images/cb_bever.png,0,,,,,,,,,,,,,,,,,,,,,,
,,,,,00062,2023-10-13_15h00.07.420,vbt_B1_day4,2022.2.4,Win32,59.95922773,,,,,,down,0,0.173,,0.159259302,-0.208333333,1,0,0,0,130,130,175,1,heengaan,images/br_heengaan.png,images/cb_heengaan.png,0,,,,,,,,,,,,,,,,,,,,,,
,,,,,00062,2023-10-13_15h00.07.420,vbt_B1_day4,2022.2.4,Win32,59.95922773,,,,,,down,0,1.8598,,0.159259302,-0.208333333,1,0,0,0,131,131,172,1,weigeren,images/br_weigeren.png,images/cb_weigeren.png,0,,,,,,,,,,,,,,,,,,,,,,
,,,,,00062,2023-10-13_15h00.07.420,vbt_B1_day4,2022.2.4,Win32,59.95922773,,,,,,down,0,6.621,,0.159259302,-0.208333333,1,0,0,0,132,132,65,1,parel,images/br_parel.png,images/cb_parel.png,1,parel,,,,,,,,,,,,,,,,,,,,,
,,,,,00062,2023-10-13_15h00.07.420,vbt_B1_day4,2022.2.4,Win32,59.95922773,,,,,,down,0,0.1848,,0.159259302,-0.208333333,1,0,0,0,133,133,5,1,blad,images/br_blad.png,images/cb_blad.png,0,,,,,,,,,,,,,,,,,,,,,,
,,,,,00062,2023-10-13_15h00.07.420,vbt_B1_day4,2022.2.4,Win32,59.95922773,,,,,,down,0,0.1179,,0.159259302,-0.208333333,1,0,0,0,134,134,47,1,kabel,images/br_kabel.png,images/cb_kabel.png,0,,,,,,,,,,,,,,,,,,,,,,
,,,,,00062,2023-10-13_15h00.07.420,vbt_B1_day4,2022.2.4,Win32,59.95922773,,,,,,down,0,0.0559,,0.159259302,-0.208333333,1,0,0,0,135,135,10,1,leek,images/br_leek.png,images/cb_leek.png,0,,,,,,,,,,,,,,,,,,,,,,
,,,,,00062,2023-10-13_15h00.07.420,vbt_B1_day4,2022.2.4,Win32,59.95922773,,,,,,down,0,0.16,,0.159259302,-0.208333333,1,0,0,0,136,136,161,1,attentie,images/br_attentie.png,images/cb_attentie.png,0,,,,,,,,,,,,,,,,,,,,,,
,,,,,00062,2023-10-13_15h00.07.420,vbt_B1_day4,2022.2.4,Win32,59.95922773,,,,,,down,0,0.1279,,0.159259302,-0.208333333,1,0,0,0,137,137,150,1,gegeven,images/br_gegeven.png,images/cb_gegeven.png,0,,,,,,,,,,,,,,,,,,,,,,
,,,,,00062,2023-10-13_15h00.07.420,vbt_B1_day4,2022.2.4,Win32,59.95922773,,,,,,down,0,0.2023,,0.159259302,-0.208333333,1,0,0,0,138,138,148,1,smullen,images/br_smullen.png,images/cb_smullen.png,0,,,,,,,,,,,,,,,,,,,,,,
,,,,,00062,2023-10-13_15h00.07.420,vbt_B1_day4,2022.2.4,Win32,59.95922773,,,,,,down,0,0.2987,,0.159259302,-0.208333333,1,0,0,0,139,139,169,1,oprotten,images/br_oprotten.png,images/cb_oprotten.png,0,,,,,,,,,,,,,,,,,,,,,,
,,,,,00062,2023-10-13_15h00.07.420,vbt_B1_day4,2022.2.4,Win32,59.95922773,,,,,,down,0,0.0923,,0.159259302,-0.208333333,1,0,0,0,140,140,133,1,seizoen,images/br_seizoen.png,images/cb_seizoen.png,0,,,,,,,,,,,,,,,,,,,,,,
,,,,,00062,2023-10-13_15h00.07.420,vbt_B1_day4,2022.2.4,Win32,59.95922773,,,,,,down,0,0.1561,,0.159259302,-0.208333333,1,0,0,0,141,141,197,1,spanning,images/br_spanning.png,images/cb_spanning.png,0,,,,,,,,,,,,,,,,,,,,,,
,,,,,00062,2023-10-13_15h00.07.420,vbt_B1_day4,2022.2.4,Win32,59.95922773,,,,,,down,0,4.1596,,0.159259302,-0.208333333,1,0,0,0,142,142,66,1,lever,images/br_lever.png,images/cb_lever.png,1,lever,,,,,,,,,,,,,,,,,,,,,
,,,,,00062,2023-10-13_15h00.07.420,vbt_B1_day4,2022.2.4,Win32,59.95922773,,,,,,down,0,0.5194,,0.159259302,-0.208333333,1,0,0,0,143,143,0,1,slak,images/br_slak.png,images/cb_slak.png,0,,,,,,,,,,,,,,,,,,,,,,
,,,,,00062,2023-10-13_15h00.07.420,vbt_B1_day4,2022.2.4,Win32,59.95922773,,,,,,down,0,0.4837,,0.159259302,-0.208333333,1,0,0,0,144,144,131,1,opzicht,images/br_opzicht.png,images/cb_opzicht.png,0,,,,,,,,,,,,,,,,,,,,,,
,,,,,00062,2023-10-13_15h00.07.420,vbt_B1_day4,2022.2.4,Win32,59.95922773,,,,,,down,0,0.5554,,0.159259302,-0.208333333,1,0,0,0,145,145,45,1,piste,images/br_piste.png,images/cb_piste.png,0,,,,,,,,,,,,,,,,,,,,,,
,,,,,00062,2023-10-13_15h00.07.420,vbt_B1_day4,2022.2.4,Win32,59.95922773,,,,,,down,0,1.0886,,0.159259302,-0.208333333,1,0,0,0,146,146,86,1,woning,images/br_woning.png,images/cb_woning.png,0,,,,,,,,,,,,,,,,,,,,,,
,,,,,00062,2023-10-13_15h00.07.420,vbt_B1_day4,2022.2.4,Win32,59.95922773,,,,,,down,0,10.1381,,0.159259302,-0.208333333,1,0,0,0,147,147,64,1,wegen,images/br_wegen.png,images/cb_wegen.png,1,wegen,,,,,,,,,,,,,,,,,,,,,
,,,,,00062,2023-10-13_15h00.07.420,vbt_B1_day4,2022.2.4,Win32,59.95922773,,,,,,down,0,8.3427,,0.159259302,-0.208333333,1,0,0,0,148,148,67,1,zwart,images/br_zwart.png,images/cb_zwart.png,1,zwart,,,,,,,,,,,,,,,,,,,,,
,,,,,00062,2023-10-13_15h00.07.420,vbt_B1_day4,2022.2.4,Win32,59.95922773,,,,,,down,0,1.2768,,0.159259302,-0.208333333,1,0,0,0,149,149,48,1,steel,images/br_steel.png,images/cb_steel.png,0,,,,,,,,,,,,,,,,,,,,,,
,,,,,00062,2023-10-13_15h00.07.420,vbt_B1_day4,2022.2.4,Win32,59.95922773,,,,,,down,0,6.5535,,0.159259302,-0.208333333,1,0,0,0,150,150,107,1,maling,images/br_maling.png,images/cb_maling.png,1,maling,,,,,,,,,,,,,,,,,,,,,
,,,,,00062,2023-10-13_15h00.07.420,vbt_B1_day4,2022.2.4,Win32,59.95922773,,,,,,down,0,0.084,,0.159259302,-0.208333333,1,0,0,0,151,151,142,1,snuiven,images/br_snuiven.png,images/cb_snuiven.png,0,,,,,,,,,,,,,,,,,,,,,,
,,,,,00062,2023-10-13_15h00.07.420,vbt_B1_day4,2022.2.4,Win32,59.95922773,,,,,,down,0,11.2726,,0.159259302,-0.208333333,1,0,0,0,152,152,81,1,dubbel,images/br_dubbel.png,images/cb_dubbel.png,0,,,,,,,,,,,,,,,,,,,,,,
,,,,,00062,2023-10-13_15h00.07.420,vbt_B1_day4,2022.2.4,Win32,59.95922773,,,,,,down,0,0.9025,,0.159259302,-0.208333333,1,0,0,0,153,153,99,1,koffie,images/br_koffie.png,images/cb_koffie.png,0,,,,,,,,,,,,,,,,,,,,,,
,,,,,00062,2023-10-13_15h00.07.420,vbt_B1_day4,2022.2.4,Win32,59.95922773,,,,,,down,0,1.1391,,0.159259302,-0.208333333,1,0,0,0,154,154,153,1,vervoer,images/br_vervoer.png,images/cb_vervoer.png,0,,,,,,,,,,,,,,,,,,,,,,
,,,,,00062,2023-10-13_15h00.07.420,vbt_B1_day4,2022.2.4,Win32,59.95922773,,,,,,down,0,0.0243,,0.159259302,-0.208333333,1,0,0,0,155,155,21,1,mist,images/br_mist.png,images/cb_mist.png,0,,,,,,,,,,,,,,,,,,,,,,
,,,,,00062,2023-10-13_15h00.07.420,vbt_B1_day4,2022.2.4,Win32,59.95922773,,,,,,down,0,0.6349,,0.159259302,-0.208333333,1,0,0,0,156,156,59,1,kring,images/br_kring.png,images/cb_kring.png,0,,,,,,,,,,,,,,,,,,,,,,
,,,,,00062,2023-10-13_15h00.07.420,vbt_B1_day4,2022.2.4,Win32,59.95922773,,,,,,down,0,0.8684,,0.159259302,-0.208333333,1,0,0,0,157,157,84,1,lokken,images/br_lokken.png,images/cb_lokken.png,0,,,,,,,,,,,,,,,,,,,,,,
,,,,,00062,2023-10-13_15h00.07.420,vbt_B1_day4,2022.2.4,Win32,59.95922773,,,,,,down,0,0.7922,,0.159259302,-0.208333333,1,0,0,0,158,158,88,1,boeien,images/br_boeien.png,images/cb_boeien.png,0,,,,,,,,,,,,,,,,,,,,,,
,,,,,00062,2023-10-13_15h00.07.420,vbt_B1_day4,2022.2.4,Win32,59.95922773,,,,,,down,0,0.374,,0.159259302,-0.208333333,1,0,0,0,159,159,101,1,staren,images/br_staren.png,images/cb_staren.png,0,,,,,,,,,,,,,,,,,,,,,,
,,,,,00062,2023-10-13_15h00.07.420,vbt_B1_day4,2022.2.4,Win32,59.95922773,,,,,,down,0,0.188,,0.159259302,-0.208333333,1,0,0,0,160,160,199,1,beseffen,images/br_beseffen.png,images/cb_beseffen.png,0,,,,,,,,,,,,,,,,,,,,,,
,,,,,00062,2023-10-13_15h00.07.420,vbt_B1_day4,2022.2.4,Win32,59.95922773,,,,,,down,0,0.3582,,0.159259302,-0.208333333,1,0,0,0,161,161,102,1,legaal,images/br_legaal.png,images/cb_legaal.png,0,,,,,,,,,,,,,,,,,,,,,,
,,,,,00062,2023-10-13_15h00.07.420,vbt_B1_day4,2022.2.4,Win32,59.95922773,,,,,,down,0,18.4082,,0.159259302,-0.208333333,1,0,0,0,162,162,185,1,mijnheer,images/br_mijnheer.png,images/cb_mijnheer.png,1,mijnheer,,,,,,,,,,,,,,,,,,,,,
,,,,,00062,2023-10-13_15h00.07.420,vbt_B1_day4,2022.2.4,Win32,59.95922773,,,,,,down,0,0.7729,,0.159259302,-0.208333333,1,0,0,0,163,163,124,1,bloeien,images/br_bloeien.png,images/cb_bloeien.png,0,,,,,,,,,,,,,,,,,,,,,,
,,,,,00062,2023-10-13_15h00.07.420,vbt_B1_day4,2022.2.4,Win32,59.95922773,,,,,,down,0,0.4346,,0.159259302,-0.208333333,1,0,0,0,164,164,149,1,redding,images/br_redding.png,images/cb_redding.png,0,,,,,,,,,,,,,,,,,,,,,,
,,,,,00062,2023-10-13_15h00.07.420,vbt_B1_day4,2022.2.4,Win32,59.95922773,,,,,,down,0,0.6559,,0.159259302,-0.208333333,1,0,0,0,165,165,177,1,maaltijd,images/br_maaltijd.png,images/cb_maaltijd.png,0,,,,,,,,,,,,,,,,,,,,,,
,,,,,00062,2023-10-13_15h00.07.420,vbt_B1_day4,2022.2.4,Win32,59.95922773,,,,,,down,0,7.037,,0.159259302,-0.208333333,1,0,0,0,166,166,105,1,wijlen,images/br_wijlen.png,images/cb_wijlen.png,1,wijlen,,,,,,,,,,,,,,,,,,,,,
,,,,,00062,2023-10-13_15h00.07.420,vbt_B1_day4,2022.2.4,Win32,59.95922773,,,,,,down,0,0.151,,0.159259302,-0.208333333,1,0,0,0,167,167,111,1,ticket,images/br_ticket.png,images/cb_ticket.png,0,,,,,,,,,,,,,,,,,,,,,,
,,,,,00062,2023-10-13_15h00.07.420,vbt_B1_day4,2022.2.4,Win32,59.95922773,,,,,,down,0,1.7022,,0.159259302,-0.208333333,1,0,0,0,168,168,96,1,slagen,images/br_slagen.png,images/cb_slagen.png,0,,,,,,,,,,,,,,,,,,,,,,
,,,,,00062,2023-10-13_15h00.07.420,vbt_B1_day4,2022.2.4,Win32,59.95922773,,,,,,down,0,4.5196,,0.159259302,-0.208333333,1,0,0,0,169,169,26,1,leuk,images/br_leuk.png,images/cb_leuk.png,1,leuk,,,,,,,,,,,,,,,,,,,,,
,,,,,00062,2023-10-13_15h00.07.420,vbt_B1_day4,2022.2.4,Win32,59.95922773,,,,,,down,0,0.6513,,0.159259302,-0.208333333,1,0,0,0,170,170,134,1,geliefd,images/br_geliefd.png,images/cb_geliefd.png,0,,,,,,,,,,,,,,,,,,,,,,
,,,,,00062,2023-10-13_15h00.07.420,vbt_B1_day4,2022.2.4,Win32,59.95922773,,,,,,down,0,0.7009,,0.159259302,-0.208333333,1,0,0,0,171,171,112,1,lukken,images/br_lukken.png,images/cb_lukken.png,0,,,,,,,,,,,,,,,,,,,,,,
,,,,,00062,2023-10-13_15h00.07.420,vbt_B1_day4,2022.2.4,Win32,59.95922773,,,,,,down,0,0.9052,,0.159259302,-0.208333333,1,0,0,0,172,172,61,1,groen,images/br_groen.png,images/cb_groen.png,0,,,,,,,,,,,,,,,,,,,,,,
,,,,,00062,2023-10-13_15h00.07.420,vbt_B1_day4,2022.2.4,Win32,59.95922773,,,,,,down,0,0.368,,0.159259302,-0.208333333,1,0,0,0,173,173,82,1,muziek,images/br_muziek.png,images/cb_muziek.png,0,,,,,,,,,,,,,,,,,,,,,,
,,,,,00062,2023-10-13_15h00.07.420,vbt_B1_day4,2022.2.4,Win32,59.95922773,,,,,,down,0,0.1192,,0.159259302,-0.208333333,1,0,0,0,174,174,91,1,gezond,images/br_gezond.png,images/cb_gezond.png,0,,,,,,,,,,,,,,,,,,,,,,
,,,,,00062,2023-10-13_15h00.07.420,vbt_B1_day4,2022.2.4,Win32,59.95922773,,,,,,down,0,1.409,,0.159259302,-0.208333333,1,0,0,0,175,175,70,1,ijdel,images/br_ijdel.png,images/cb_ijdel.png,0,,,,,,,,,,,,,,,,,,,,,,
,,,,,00062,2023-10-13_15h00.07.420,vbt_B1_day4,2022.2.4,Win32,59.95922773,,,,,,down,0,1.7198,,0.159259302,-0.208333333,1,0,0,0,176,176,79,1,nodig,images/br_nodig.png,images/cb_nodig.png,0,,,,,,,,,,,,,,,,,,,,,,
,,,,,00062,2023-10-13_15h00.07.420,vbt_B1_day4,2022.2.4,Win32,59.95922773,,,,,,down,0,0.2372,,0.159259302,-0.208333333,1,0,0,0,177,177,115,1,kleren,images/br_kleren.png,images/cb_kleren.png,0,,,,,,,,,,,,,,,,,,,,,,
,,,,,00062,2023-10-13_15h00.07.420,vbt_B1_day4,2022.2.4,Win32,59.95922773,,,,,,down,0,7.6559,,0.168518561,-0.209259245,1,0,0,0,178,178,106,1,zingen,images/br_zingen.png,images/cb_zingen.png,1,zingen,,,,,,,,,,,,,,,,,,,,,
,,,,,00062,2023-10-13_15h00.07.420,vbt_B1_day4,2022.2.4,Win32,59.95922773,,,,,,down,0,0.0683,,0.168518561,-0.209259245,1,0,0,0,179,179,164,1,anarchie,images/br_anarchie.png,images/cb_anarchie.png,0,,,,,,,,,,,,,,,,,,,,,,
,,,,,00062,2023-10-13_15h00.07.420,vbt_B1_day4,2022.2.4,Win32,59.95922773,,,,,,down,0,0.1336,,0.168518561,-0.209259245,1,0,0,0,180,180,113,1,koppen,images/br_koppen.png,images/cb_koppen.png,0,,,,,,,,,,,,,,,,,,,,,,
,,,,,00062,2023-10-13_15h00.07.420,vbt_B1_day4,2022.2.4,Win32,59.95922773,,,,,,down,0,0.8513,,0.168518561,-0.209259245,1,0,0,0,181,181,38,1,baai,images/br_baai.png,images/cb_baai.png,0,,,,,,,,,,,,,,,,,,,,,,
,,,,,00062,2023-10-13_15h00.07.420,vbt_B1_day4,2022.2.4,Win32,59.95922773,,,,,,down,0,0.0506,,0.168518561,-0.209259245,1,0,0,0,182,182,194,1,driemaal,images/br_driemaal.png,images/cb_driemaal.png,0,,,,,,,,,,,,,,,,,,,,,,
,,,,,00062,2023-10-13_15h00.07.420,vbt_B1_day4,2022.2.4,Win32,59.95922773,,,,,,down,0,0.7406,,0.168518561,-0.209259245,1,0,0,0,183,183,120,1,klimmen,images/br_klimmen.png,images/cb_klimmen.png,0,,,,,,,,,,,,,,,,,,,,,,
,,,,,00062,2023-10-13_15h00.07.420,vbt_B1_day4,2022.2.4,Win32,59.95922773,,,,,,down,0,0.202,,0.168518561,-0.209259245,1,0,0,0,184,184,181,1,toegeven,images/br_toegeven.png,images/cb_toegeven.png,0,,,,,,,,,,,,,,,,,,,,,,
,,,,,00062,2023-10-13_15h00.07.420,vbt_B1_day4,2022.2.4,Win32,59.95922773,,,,,,down,0,1.0741,,0.168518561,-0.209259245,1,0,0,0,185,185,36,1,vuur,images/br_vuur.png,images/cb_vuur.png,0,,,,,,,,,,,,,,,,,,,,,,
,,,,,00062,2023-10-13_15h00.07.420,vbt_B1_day4,2022.2.4,Win32,59.95922773,,,,,,down,0,0.2535,,0.168518561,-0.209259245,1,0,0,0,186,186,20,1,site,images/br_site.png,images/cb_site.png,0,,,,,,,,,,,,,,,,,,,,,,
,,,,,00062,2023-10-13_15h00.07.420,vbt_B1_day4,2022.2.4,Win32,59.95922773,,,,,,down,0,0.1848,,0.168518561,-0.209259245,1,0,0,0,187,187,126,1,kasteel,images/br_kasteel.png,images/cb_kasteel.png,0,,,,,,,,,,,,,,,,,,,,,,
,,,,,00062,2023-10-13_15h00.07.420,vbt_B1_day4,2022.2.4,Win32,59.95922773,,,,,,down,0,1.6074,,0.168518561,-0.209259245,1,0,0,0,188,188,171,1,aarzelen,images/br_aarzelen.png,images/cb_aarzelen.png,0,,,,,,,,,,,,,,,,,,,,,,
,,,,,00062,2023-10-13_15h00.07.420,vbt_B1_day4,2022.2.4,Win32,59.95922773,,,,,,down,0,0.3862,,0.168518561,-0.209259245,1,0,0,0,189,189,53,1,baron,images/br_baron.png,images/cb_baron.png,0,,,,,,,,,,,,,,,,,,,,,,
,,,,,00062,2023-10-13_15h00.07.420,vbt_B1_day4,2022.2.4,Win32,59.95922773,,,,,,down,0,0.5571,,0.168518561,-0.209259245,1,0,0,0,190,190,4,1,moes,images/br_moes.png,images/cb_moes.png,0,,,,,,,,,,,,,,,,,,,,,,
,,,,,00062,2023-10-13_15h00.07.420,vbt_B1_day4,2022.2.4,Win32,59.95922773,,,,,,down,0,0.0857,,0.168518561,-0.209259245,1,0,0,0,191,191,196,1,nakijken,images/br_nakijken.png,images/cb_nakijken.png,0,,,,,,,,,,,,,,,,,,,,,,
,,,,,00062,2023-10-13_15h00.07.420,vbt_B1_day4,2022.2.4,Win32,59.95922773,,,,,,down,0,2.4046,,0.168518561,-0.209259245,1,0,0,0,192,192,127,1,doodmoe,images/br_doodmoe.png,images/cb_doodmoe.png,0,,,,,,,,,,,,,,,,,,,,,,
,,,,,00062,2023-10-13_15h00.07.420,vbt_B1_day4,2022.2.4,Win32,59.95922773,,,,,,down,0,0.4532,,0.168518561,-0.209259245,1,0,0,0,193,193,121,1,twijfel,images/br_twijfel.png,images/cb_twijfel.png,0,,,,,,,,,,,,,,,,,,,,,,
,,,,,00062,2023-10-13_15h00.07.420,vbt_B1_day4,2022.2.4,Win32,59.95922773,,,,,,down,0,2.3069,,0.168518561,-0.209259245,1,0,0,0,194,194,163,1,schuilen,images/br_schuilen.png,images/cb_schuilen.png,0,,,,,,,,,,,,,,,,,,,,,,
,,,,,00062,2023-10-13_15h00.07.420,vbt_B1_day4,2022.2.4,Win32,59.95922773,,,,,,down,0,0.3379,,0.168518561,-0.209259245,1,0,0,0,195,195,174,1,stemming,images/br_stemming.png,images/cb_stemming.png,0,,,,,,,,,,,,,,,,,,,,,,
,,,,,00062,2023-10-13_15h00.07.420,vbt_B1_day4,2022.2.4,Win32,59.95922773,,,,,,down,0,12.356,,0.168518561,-0.209259245,1,0,0,0,196,196,146,1,opkomen,images/br_opkomen.png,images/cb_opkomen.png,1,opkomen,,,,,,,,,,,,,,,,,,,,,
,,,,,00062,2023-10-13_15h00.07.420,vbt_B1_day4,2022.2.4,Win32,59.95922773,,,,,,down,0,0.8741,,0.168518561,-0.209259245,1,0,0,0,197,197,13,1,kaal,images/br_kaal.png,images/cb_kaal.png,0,,,,,,,,,,,,,,,,,,,,,,
,,,,,00062,2023-10-13_15h00.07.420,vbt_B1_day4,2022.2.4,Win32,59.95922773,,,,,,down,0,1.1347,,0.168518561,-0.209259245,1,0,0,0,198,198,182,1,bijkomen,images/br_bijkomen.png,images/cb_bijkomen.png,0,,,,,,,,,,,,,,,,,,,,,,
,,,,,00062,2023-10-13_15h00.07.420,vbt_B1_day4,2022.2.4,Win32,59.95922773,,,,,,down,0,0.2179,,0.168518561,-0.209259245,1,0,0,0,199,199,68,1,schat,images/br_schat.png,images/cb_schat.png,0,,,,,,,,,,,,,,,,,,,,,,
,,,,,00062,2023-10-13_15h00.07.420,vbt_B1_day4,2022.2.4,Win32,59.95922773,,,,,,,,,,,,,,,,,,,,,,,,,0.168518561,-0.209259245,1,0,0,,,,,,,,,,,,,,,,
,,,,,00062,2023-10-13_15h00.07.420,vbt_B1_day4,2022.2.4,Win32,59.95922773,,,,,,,,,,,,,,,,,,,,,,,,,,,,,,0.168518561,-0.209259245,1,0,0,,,,,,,,,,,
,,,,,00062,2023-10-13_15h00.07.420,vbt_B1_day4,2022.2.4,Win32,59.95922773,,,,,,,,,,,,,,,,,,,,grappen,images/br_grappen.png,images/cb_grappen.png,,grappen,,,,,,,,,,,0.168518561,-0.209259245,1,0,0,grappen,0,0,0,12,1
,,,,,00062,2023-10-13_15h00.07.420,vbt_B1_day4,2022.2.4,Win32,59.95922773,,,,,,,,,,,,,,,,,,,,haza,images/br_haza.png,images/cb_haza.png,,haza,,,,,,,,,,,0.168518561,-0.209259245,1,0,0,haza,0,1,1,21,1
,,,,,00062,2023-10-13_15h00.07.420,vbt_B1_day4,2022.2.4,Win32,59.95922773,,,,,,,,,,,,,,,,,,,,gaan,images/br_gaan.png,images/cb_gaan.png,,gaan,,,,,,,,,,,0.168518561,-0.209259245,1,0,0,gaan,0,2,2,41,1
,,,,,00062,2023-10-13_15h00.07.420,vbt_B1_day4,2022.2.4,Win32,59.95922773,,,,,,,,,,,,,,,,,,,,praat,images/br_praat.png,images/cb_praat.png,,praat,,,,,,,,,,,0.168518561,-0.209259245,1,0,0,praat,0,3,3,7,1
,,,,,00062,2023-10-13_15h00.07.420,vbt_B1_day4,2022.2.4,Win32,59.95922773,,,,,,,,,,,,,,,,,,,,schenden,images/br_schenden.png,images/cb_schenden.png,,schenden,,,,,,,,,,,0.168518561,-0.209259245,1,0,0,schenden,0,4,4,57,1
,,,,,00062,2023-10-13_15h00.07.420,vbt_B1_day4,2022.2.4,Win32,59.95922773,,,,,,,,,,,,,,,,,,,,geheim,images/br_geheim.png,images/cb_geheim.png,,geheim,,,,,,,,,,,0.15370369,-0.288888931,1,0,0,geheim,0,5,5,8,1
,,,,,00062,2023-10-13_15h00.07.420,vbt_B1_day4,2022.2.4,Win32,59.95922773,,,,,,,,,,,,,,,,,,,,drummer,images/br_drummer.png,images/cb_drummer.png,,drummer,,,,,,,,,,,0.15370369,-0.288888931,1,0,0,drummer,0,6,6,53,1
,,,,,00062,2023-10-13_15h00.07.420,vbt_B1_day4,2022.2.4,Win32,59.95922773,,,,,,,,,,,,,,,,,,,,weigeren,images/br_weigeren.png,images/cb_weigeren.png,,weigeren,,,,,,,,,,,0.15370369,-0.288888931,1,0,0,weigeren,0,7,7,16,1
,,,,,00062,2023-10-13_15h00.07.420,vbt_B1_day4,2022.2.4,Win32,59.95922773,,,,,,,,,,,,,,,,,,,,paalbaak,images/br_paalbaak.png,images/cb_paalbaak.png,,palbaak,,,,,,,,,,,0.15370369,-0.288888931,1,0,0,palbaak,0,8,8,39,1
,,,,,00062,2023-10-13_15h00.07.420,vbt_B1_day4,2022.2.4,Win32,59.95922773,,,,,,,,,,,,,,,,,,,,ezel,images/br_ezel.png,images/cb_ezel.png,,ezel,,,,,,,,,,,0.15370369,-0.288888931,1,0,0,ezel,0,9,9,42,1
,,,,,00062,2023-10-13_15h00.07.420,vbt_B1_day4,2022.2.4,Win32,59.95922773,,,,,,,,,,,,,,,,,,,,oceaan,images/br_oceaan.png,images/cb_oceaan.png,,oceaan,,,,,,,,,,,0.15370369,-0.288888931,1,0,0,oceaan,0,10,10,10,1
,,,,,00062,2023-10-13_15h00.07.420,vbt_B1_day4,2022.2.4,Win32,59.95922773,,,,,,,,,,,,,,,,,,,,drooien,images/br_drooien.png,images/cb_drooien.png,,drooien,,,,,,,,,,,0.152777778,-0.280555584,1,0,0,drooien,0,11,11,32,1
,,,,,00062,2023-10-13_15h00.07.420,vbt_B1_day4,2022.2.4,Win32,59.95922773,,,,,,,,,,,,,,,,,,,,pittig,images/br_pittig.png,images/cb_pittig.png,,pittig,,,,,,,,,,,0.152777778,-0.280555584,1,0,0,pittig,0,12,12,51,1
,,,,,00062,2023-10-13_15h00.07.420,vbt_B1_day4,2022.2.4,Win32,59.95922773,,,,,,,,,,,,,,,,,,,,toevol,images/br_toevol.png,images/cb_toevol.png,,toevol,,,,,,,,,,,0.152777778,-0.280555584,1,0,0,toevol,0,13,13,29,1
,,,,,00062,2023-10-13_15h00.07.420,vbt_B1_day4,2022.2.4,Win32,59.95922773,,,,,,,,,,,,,,,,,,,,eerst,images/br_eerst.png,images/cb_eerst.png,,eerst,,,,,,,,,,,0.152777778,-0.280555584,1,0,0,eerst,0,14,14,47,1
,,,,,00062,2023-10-13_15h00.07.420,vbt_B1_day4,2022.2.4,Win32,59.95922773,,,,,,,,,,,,,,,,,,,,flippen,images/br_flippen.png,images/cb_flippen.png,,flippen,,,,,,,,,,,0.152777778,-0.280555584,1,0,0,flippen,0,15,15,54,1
,,,,,00062,2023-10-13_15h00.07.420,vbt_B1_day4,2022.2.4,Win32,59.95922773,,,,,,,,,,,,,,,,,,,,broodje,images/br_broodje.png,images/cb_broodje.png,,broodig,,,,,,,,,,,0.152777778,-0.280555584,1,0,0,broodig,0,16,16,55,1
,,,,,00062,2023-10-13_15h00.07.420,vbt_B1_day4,2022.2.4,Win32,59.95922773,,,,,,,,,,,,,,,,,,,,waarop,images/br_waarop.png,images/cb_waarop.png,,waarop,,,,,,,,,,,0.152777778,-0.280555584,1,0,0,waarop,0,17,17,9,1
,,,,,00062,2023-10-13_15h00.07.420,vbt_B1_day4,2022.2.4,Win32,59.95922773,,,,,,,,,,,,,,,,,,,,opruimen,images/br_opruimen.png,images/cb_opruimen.png,,opruimen,,,,,,,,,,,0.152777778,-0.280555584,1,0,0,opruimen,0,18,18,59,1
,,,,,00062,2023-10-13_15h00.07.420,vbt_B1_day4,2022.2.4,Win32,59.95922773,,,,,,,,,,,,,,,,,,,,mekst,images/br_mekst.png,images/cb_mekst.png,,mekst,,,,,,,,,,,0.152777778,-0.280555584,1,0,0,mekst,0,19,19,27,1
,,,,,00062,2023-10-13_15h00.07.420,vbt_B1_day4,2022.2.4,Win32,59.95922773,,,,,,,,,,,,,,,,,,,,stemming,images/br_stemming.png,images/cb_stemming.png,,stemming,,,,,,,,,,,0.152777778,-0.280555584,1,0,0,stemming,0,20,20,18,1
,,,,,00062,2023-10-13_15h00.07.420,vbt_B1_day4,2022.2.4,Win32,59.95922773,,,,,,,,,,,,,,,,,,,,noodzaak,images/br_noodzaak.png,images/cb_noodzaak.png,,noodoplossing,,,,,,,,,,,0.15370369,-0.273148148,1,0,0,noodoplossing,0,21,21,56,1
,,,,,00062,2023-10-13_15h00.07.420,vbt_B1_day4,2022.2.4,Win32,59.95922773,,,,,,,,,,,,,,,,,,,,apparaat,images/br_apparaat.png,images/cb_apparaat.png,,apraraat,,,,,,,,,,,-0.021296254,-0.199999986,1,0,0,apraraat,0,22,22,17,1
,,,,,00062,2023-10-13_15h00.07.420,vbt_B1_day4,2022.2.4,Win32,59.95922773,,,,,,,,,,,,,,,,,,,,dozijn,images/br_dozijn.png,images/cb_dozijn.png,,oasis,,,,,,,,,,,-0.021296254,-0.199999986,1,0,0,oasis,0,23,23,48,1
,,,,,00062,2023-10-13_15h00.07.420,vbt_B1_day4,2022.2.4,Win32,59.95922773,,,,,,,,,,,,,,,,,,,,baron,images/br_baron.png,images/cb_baron.png,,baron,,,,,,,,,,,-0.021296254,-0.199999986,1,0,0,baron,0,24,24,5,1
,,,,,00062,2023-10-13_15h00.07.420,vbt_B1_day4,2022.2.4,Win32,59.95922773,,,,,,,,,,,,,,,,,,,,strok,images/br_strok.png,images/cb_strok.png,,strok,,,,,,,,,,,-0.021296254,-0.199999986,1,0,0,strok,0,25,25,25,1
,,,,,00062,2023-10-13_15h00.07.420,vbt_B1_day4,2022.2.4,Win32,59.95922773,,,,,,,,,,,,,,,,,,,,fran,images/br_fran.png,images/cb_fran.png,,fran,,,,,,,,,,,-0.021296254,-0.199999986,1,0,0,fran,0,26,26,22,1
,,,,,00062,2023-10-13_15h00.07.420,vbt_B1_day4,2022.2.4,Win32,59.95922773,,,,,,,,,,,,,,,,,,,,rijp,images/br_rijp.png,images/cb_rijp.png,,rijk,,,,,,,,,,,-0.021296254,-0.199999986,1,0,0,rijk,0,27,27,2,1
,,,,,00062,2023-10-13_15h00.07.420,vbt_B1_day4,2022.2.4,Win32,59.95922773,,,,,,,,,,,,,,,,,,,,zwek,images/br_zwek.png,images/cb_zwek.png,,zkek,,,,,,,,,,,-0.021296254,-0.199999986,1,0,0,zkek,0,28,28,20,1
,,,,,00062,2023-10-13_15h00.07.420,vbt_B1_day4,2022.2.4,Win32,59.95922773,,,,,,,,,,,,,,,,,,,,gebog,images/br_gebog.png,images/cb_gebog.png,,gebog,,,,,,,,,,,-0.047222208,-0.264814801,1,0,0,gebog,0,29,29,24,1
,,,,,00062,2023-10-13_15h00.07.420,vbt_B1_day4,2022.2.4,Win32,59.95922773,,,,,,,,,,,,,,,,,,,,sulbon,images/br_sulbon.png,images/cb_sulbon.png,,sulbon,,,,,,,,,,,-0.04814812,-0.261111153,1,0,0,sulbon,0,30,30,31,1
,,,,,00062,2023-10-13_15h00.07.420,vbt_B1_day4,2022.2.4,Win32,59.95922773,,,,,,,,,,,,,,,,,,,,wagon,images/br_wagon.png,images/cb_wagon.png,,wagon,,,,,,,,,,,-0.04814812,-0.261111153,1,0,0,wagon,0,31,31,4,1
,,,,,00062,2023-10-13_15h00.07.420,vbt_B1_day4,2022.2.4,Win32,59.95922773,,,,,,,,,,,,,,,,,,,,getucht,images/br_getucht.png,images/cb_getucht.png,,getubt,,,,,,,,,,,-0.04814812,-0.261111153,1,0,0,getubt,0,32,32,35,1
,,,,,00062,2023-10-13_15h00.07.420,vbt_B1_day4,2022.2.4,Win32,59.95922773,,,,,,,,,,,,,,,,,,,,vreten,images/br_vreten.png,images/cb_vreten.png,,vreten,,,,,,,,,,,-0.04814812,-0.261111153,1,0,0,vreten,0,33,33,11,1
,,,,,00062,2023-10-13_15h00.07.420,vbt_B1_day4,2022.2.4,Win32,59.95922773,,,,,,,,,,,,,,,,,,,,lappen,images/br_lappen.png,images/cb_lappen.png,,lappen,,,,,,,,,,,-0.04814812,-0.261111153,1,0,0,lappen,0,34,34,49,1
,,,,,00062,2023-10-13_15h00.07.420,vbt_B1_day4,2022.2.4,Win32,59.95922773,,,,,,,,,,,,,,,,,,,,wozing,images/br_wozing.png,images/cb_wozing.png,,woning,,,,,,,,,,,-0.04814812,-0.261111153,1,0,0,woning,0,35,35,28,1
,,,,,00062,2023-10-13_15h00.07.420,vbt_B1_day4,2022.2.4,Win32,59.95922773,,,,,,,,,,,,,,,,,,,,steen,images/br_steen.png,images/cb_steen.png,,staan,,,,,,,,,,,-0.04814812,-0.261111153,1,0,0,staan,0,36,36,44,1
,,,,,00062,2023-10-13_15h00.07.420,vbt_B1_day4,2022.2.4,Win32,59.95922773,,,,,,,,,,,,,,,,,,,,schotel,images/br_schotel.png,images/cb_schotel.png,,sbuiten,,,,,,,,,,,-0.04814812,-0.261111153,1,0,0,sbuiten,0,37,37,52,1
,,,,,00062,2023-10-13_15h00.07.420,vbt_B1_day4,2022.2.4,Win32,59.95922773,,,,,,,,,,,,,,,,,,,,seizoon,images/br_seizoon.png,images/cb_seizoon.png,,seizaar,,,,,,,,,,,-0.049074032,-0.261111153,1,0,0,seizaar,0,38,38,33,1
,,,,,00062,2023-10-13_15h00.07.420,vbt_B1_day4,2022.2.4,Win32,59.95922773,,,,,,,,,,,,,,,,,,,,gedicht,images/br_gedicht.png,images/cb_gedicht.png,,gedib..,,,,,,,,,,,-0.049074032,-0.261111153,1,0,0,gedib..,0,39,39,15,1
,,,,,00062,2023-10-13_15h00.07.420,vbt_B1_day4,2022.2.4,Win32,59.95922773,,,,,,,,,,,,,,,,,,,,zaalrijk,images/br_zaalrijk.png,images/cb_zaalrijk.png,,zaalrijk,,,,,,,,,,,-0.049074032,-0.261111153,1,0,0,zaalrijk,0,40,40,37,1
,,,,,00062,2023-10-13_15h00.07.420,vbt_B1_day4,2022.2.4,Win32,59.95922773,,,,,,,,,,,,,,,,,,,,pijnlijk,images/br_pijnlijk.png,images/cb_pijnlijk.png,,pijnlijk,,,,,,,,,,,-0.049074032,-0.261111153,1,0,0,pijnlijk,0,41,41,58,1
,,,,,00062,2023-10-13_15h00.07.420,vbt_B1_day4,2022.2.4,Win32,59.95922773,,,,,,,,,,,,,,,,,,,,snee,images/br_snee.png,images/cb_snee.png,,snee,,,,,,,,,,,-0.049074032,-0.261111153,1,0,0,snee,0,42,42,40,1
,,,,,00062,2023-10-13_15h00.07.420,vbt_B1_day4,2022.2.4,Win32,59.95922773,,,,,,,,,,,,,,,,,,,,midden,images/br_midden.png,images/cb_midden.png,,midden,,,,,,,,,,,-0.049074032,-0.261111153,1,0,0,midden,0,43,43,50,1
,,,,,00062,2023-10-13_15h00.07.420,vbt_B1_day4,2022.2.4,Win32,59.95922773,,,,,,,,,,,,,,,,,,,,seizoen,images/br_seizoen.png,images/cb_seizoen.png,,seizoen,,,,,,,,,,,-0.049074032,-0.261111153,1,0,0,seizoen,0,44,44,13,1
,,,,,00062,2023-10-13_15h00.07.420,vbt_B1_day4,2022.2.4,Win32,59.95922773,,,,,,,,,,,,,,,,,,,,kust,images/br_kust.png,images/cb_kust.png,,kust,,,,,,,,,,,-0.049074032,-0.261111153,1,0,0,kust,0,45,45,0,1
,,,,,00062,2023-10-13_15h00.07.420,vbt_B1_day4,2022.2.4,Win32,59.95922773,,,,,,,,,,,,,,,,,,,,gijf,images/br_gijf.png,images/cb_gijf.png,,gijf,,,,,,,,,,,-0.049074032,-0.261111153,1,0,0,gijf,0,46,46,23,1
,,,,,00062,2023-10-13_15h00.07.420,vbt_B1_day4,2022.2.4,Win32,59.95922773,,,,,,,,,,,,,,,,,,,,dalen,images/br_dalen.png,images/cb_dalen.png,,dalen,,,,,,,,,,,-0.049074032,-0.261111153,1,0,0,dalen,0,47,47,46,1
,,,,,00062,2023-10-13_15h00.07.420,vbt_B1_day4,2022.2.4,Win32,59.95922773,,,,,,,,,,,,,,,,,,,,warel,images/br_warel.png,images/cb_warel.png,,warel,,,,,,,,,,,-0.049074032,-0.261111153,1,0,0,warel,0,48,48,26,1
,,,,,00062,2023-10-13_15h00.07.420,vbt_B1_day4,2022.2.4,Win32,59.95922773,,,,,,,,,,,,,,,,,,,,opkicht,images/br_opkicht.png,images/cb_opkicht.png,,opkib..,,,,,,,,,,,-0.054629644,-0.25,1,0,0,opkib..,0,49,49,34,1
,,,,,00062,2023-10-13_15h00.07.420,vbt_B1_day4,2022.2.4,Win32,59.95922773,,,,,,,,,,,,,,,,,,,,bisschap,images/br_bisschap.png,images/cb_bisschap.png,,bisschop,,,,,,,,,,,-0.054629644,-0.25,1,0,0,bisschop,0,50,50,36,1
,,,,,00062,2023-10-13_15h00.07.420,vbt_B1_day4,2022.2.4,Win32,59.95922773,,,,,,,,,,,,,,,,,,,,gebit,images/br_gebit.png,images/cb_gebit.png,,gebit,,,,,,,,,,,-0.054629644,-0.25,1,0,0,gebit,0,51,51,6,1
,,,,,00062,2023-10-13_15h00.07.420,vbt_B1_day4,2022.2.4,Win32,59.95922773,,,,,,,,,,,,,,,,,,,,gaaf,images/br_gaaf.png,images/cb_gaaf.png,,gaaf,,,,,,,,,,,-0.054629644,-0.25,1,0,0,gaaf,0,52,52,43,1
,,,,,00062,2023-10-13_15h00.07.420,vbt_B1_day4,2022.2.4,Win32,59.95922773,,,,,,,,,,,,,,,,,,,,heengaan,images/br_heengaan.png,images/cb_heengaan.png,,heengaan,,,,,,,,,,,-0.054629644,-0.25,1,0,0,heengaan,0,53,53,19,1
,,,,,00062,2023-10-13_15h00.07.420,vbt_B1_day4,2022.2.4,Win32,59.95922773,,,,,,,,,,,,,,,,,,,,geliefd,images/br_geliefd.png,images/cb_geliefd.png,,geliefd,,,,,,,,,,,-0.054629644,-0.25,1,0,0,geliefd,0,54,54,14,1
,,,,,00062,2023-10-13_15h00.07.420,vbt_B1_day4,2022.2.4,Win32,59.95922773,,,,,,,,,,,,,,,,,,,,aanzwaag,images/br_aanzwaag.png,images/cb_aanzwaag.png,,aanwaag,,,,,,,,,,,-0.054629644,-0.25,1,0,0,aanwaag,0,55,55,38,1
,,,,,00062,2023-10-13_15h00.07.420,vbt_B1_day4,2022.2.4,Win32,59.95922773,,,,,,,,,,,,,,,,,,,,soda,images/br_soda.png,images/cb_soda.png,,soda,,,,,,,,,,,-0.054629644,-0.25,1,0,0,soda,0,56,56,3,1
,,,,,00062,2023-10-13_15h00.07.420,vbt_B1_day4,2022.2.4,Win32,59.95922773,,,,,,,,,,,,,,,,,,,,kaal,images/br_kaal.png,images/cb_kaal.png,,kaal,,,,,,,,,,,-0.054629644,-0.25,1,0,0,kaal,0,57,57,1,1
,,,,,00062,2023-10-13_15h00.07.420,vbt_B1_day4,2022.2.4,Win32,59.95922773,,,,,,,,,,,,,,,,,,,,tucket,images/br_tucket.png,images/cb_tucket.png,,tucht,,,,,,,,,,,-0.054629644,-0.25,1,0,0,tucht,0,58,58,30,1
,,,,,00062,2023-10-13_15h00.07.420,vbt_B1_day4,2022.2.4,Win32,59.95922773,,,,,,,,,,,,,,,,,,,,bruin,images/br_bruin.png,images/cb_bruin.png,,bruin,,,,,,,,,,,-0.054629644,-0.25,1,0,0,bruin,0,59,59,45,1
,,,,,00062,2023-10-13_15h00.07.420,vbt_B1_day4,2022.2.4,Win32,59.95922773,,,,,,,,,,,,,,,,,,,,,,,,,,,,,,,,,,,,,,,,,,,,,
