welcome_mouse.x,welcome_mouse.y,welcome_mouse.leftButton,welcome_mouse.midButton,welcome_mouse.rightButton,"ID",date,expName,psychopyVersion,OS,frameRate,trainInstr_mouse.x,trainInstr_mouse.y,trainInstr_mouse.leftButton,trainInstr_mouse.midButton,trainInstr_mouse.rightButton,translation_key.keys,translation_key.corr,translation_key.rt,word_rsp.text,trWrd_mouse.x,trWrd_mouse.y,trWrd_mouse.leftButton,trWrd_mouse.midButton,trWrd_mouse.rightButton,train_loop.thisRepN,train_loop.thisTrialN,train_loop.thisN,train_loop.thisIndex,train_loop.ran,nlWrd,brWrd,cbWrd,test,testResp,mouse.x,mouse.y,mouse.leftButton,mouse.midButton,mouse.rightButton,testInstr_mouse.x,testInstr_mouse.y,testInstr_mouse.leftButton,testInstr_mouse.midButton,testInstr_mouse.rightButton,test_mouse.x,test_mouse.y,test_mouse.leftButton,test_mouse.midButton,test_mouse.rightButton,test_response.text,test_loop.thisRepN,test_loop.thisTrialN,test_loop.thisN,test_loop.thisIndex,test_loop.ran
0.143518519,-0.150000042,1,0,0,00060,2023-10-13_19h27.34.315,vbt_B1_day4,2022.2.4,Win32,60.18295619,,,,,,,,,,,,,,,,,,,,,,,,,,,,,,,,,,,,,,,,,,,,,
,,,,,00060,2023-10-13_19h27.34.315,vbt_B1_day4,2022.2.4,Win32,60.18295619,0.400925954,-0.078703704,1,0,0,,,,,,,,,,,,,,,,,,,,,,,,,,,,,,,,,,,,,,,,
,,,,,00060,2023-10-13_19h27.34.315,vbt_B1_day4,2022.2.4,Win32,60.18295619,,,,,,down,0,44.9918,,0.434259344,-0.075000021,1,0,0,0,0,0,89,1,slapen,images/br_slapen.png,images/cb_slapen.png,0,,,,,,,,,,,,,,,,,,,,,,
,,,,,00060,2023-10-13_19h27.34.315,vbt_B1_day4,2022.2.4,Win32,60.18295619,,,,,,down,0,6.9992,,0.406481566,-0.071296303,1,0,0,0,1,1,185,1,mijnheer,images/br_mijnheer.png,images/cb_mijnheer.png,1,mijnheer,,,,,,,,,,,,,,,,,,,,,
,,,,,00060,2023-10-13_19h27.34.315,vbt_B1_day4,2022.2.4,Win32,60.18295619,,,,,,down,0,3.071,,0.365740741,-0.091666681,1,0,0,0,2,2,157,1,uitlaat,images/br_uitlaat.png,images/cb_uitlaat.png,0,,,,,,,,,,,,,,,,,,,,,,
,,,,,00060,2023-10-13_19h27.34.315,vbt_B1_day4,2022.2.4,Win32,60.18295619,,,,,,down,0,1.7004,,0.325925898,-0.103703746,1,0,0,0,3,3,161,1,attentie,images/br_attentie.png,images/cb_attentie.png,0,,,,,,,,,,,,,,,,,,,,,,
,,,,,00060,2023-10-13_19h27.34.315,vbt_B1_day4,2022.2.4,Win32,60.18295619,,,,,,down,0,0.4192,,0.325925898,-0.103703746,1,0,0,0,4,4,75,1,snoep,images/br_snoep.png,images/cb_snoep.png,0,,,,,,,,,,,,,,,,,,,,,,
,,,,,00060,2023-10-13_19h27.34.315,vbt_B1_day4,2022.2.4,Win32,60.18295619,,,,,,down,0,3.9265,,0.295370384,-0.124074088,1,0,0,0,5,5,155,1,gerucht,images/br_gerucht.png,images/cb_gerucht.png,0,,,,,,,,,,,,,,,,,,,,,,
,,,,,00060,2023-10-13_19h27.34.315,vbt_B1_day4,2022.2.4,Win32,60.18295619,,,,,,down,0,0.2177,,0.211111139,-0.14444443,1,0,0,0,6,6,103,1,joggen,images/br_joggen.png,images/cb_joggen.png,0,,,,,,,,,,,,,,,,,,,,,,
,,,,,00060,2023-10-13_19h27.34.315,vbt_B1_day4,2022.2.4,Win32,60.18295619,,,,,,down,0,1.8719,,0.236111111,-0.12037037,1,0,0,0,7,7,44,1,flits,images/br_flits.png,images/cb_flits.png,0,,,,,,,,,,,,,,,,,,,,,,
,,,,,00060,2023-10-13_19h27.34.315,vbt_B1_day4,2022.2.4,Win32,60.18295619,,,,,,down,0,0.8013,,0.231481481,-0.116666653,1,0,0,0,8,8,95,1,vreten,images/br_vreten.png,images/cb_vreten.png,0,,,,,,,,,,,,,,,,,,,,,,
,,,,,00060,2023-10-13_19h27.34.315,vbt_B1_day4,2022.2.4,Win32,60.18295619,,,,,,down,0,3.5872,,0.229629658,-0.117592635,1,0,0,0,9,9,153,1,vervoer,images/br_vervoer.png,images/cb_vervoer.png,0,,,,,,,,,,,,,,,,,,,,,,
,,,,,00060,2023-10-13_19h27.34.315,vbt_B1_day4,2022.2.4,Win32,60.18295619,,,,,,down,0,0.3104,,0.227777764,-0.117592635,1,0,0,0,10,10,60,1,jasje,images/br_jasje.png,images/cb_jasje.png,0,,,,,,,,,,,,,,,,,,,,,,
,,,,,00060,2023-10-13_19h27.34.315,vbt_B1_day4,2022.2.4,Win32,60.18295619,,,,,,down,0,0.4398,,0.227777764,-0.117592635,1,0,0,0,11,11,21,1,mist,images/br_mist.png,images/cb_mist.png,0,,,,,,,,,,,,,,,,,,,,,,
,,,,,00060,2023-10-13_19h27.34.315,vbt_B1_day4,2022.2.4,Win32,60.18295619,,,,,,down,0,1.6681,,0.226851852,-0.117592635,1,0,0,0,12,12,63,1,flirt,images/br_flirt.png,images/cb_flirt.png,0,,,,,,,,,,,,,,,,,,,,,,
,,,,,00060,2023-10-13_19h27.34.315,vbt_B1_day4,2022.2.4,Win32,60.18295619,,,,,,down,0,1.7258,,0.351851852,-0.119444459,1,0,0,0,13,13,106,1,zingen,images/br_zingen.png,images/cb_zingen.png,1,zingen,,,,,,,,,,,,,,,,,,,,,
,,,,,00060,2023-10-13_19h27.34.315,vbt_B1_day4,2022.2.4,Win32,60.18295619,,,,,,down,0,0.2848,,0.328703704,-0.10092594,1,0,0,0,14,14,56,1,traag,images/br_traag.png,images/cb_traag.png,0,,,,,,,,,,,,,,,,,,,,,,
,,,,,00060,2023-10-13_19h27.34.315,vbt_B1_day4,2022.2.4,Win32,60.18295619,,,,,,down,0,1.1414,,0.328703704,-0.10092594,1,0,0,0,15,15,76,1,afval,images/br_afval.png,images/cb_afval.png,0,,,,,,,,,,,,,,,,,,,,,,
,,,,,00060,2023-10-13_19h27.34.315,vbt_B1_day4,2022.2.4,Win32,60.18295619,,,,,,down,0,1.6045,,0.328703704,-0.10092594,1,0,0,0,16,16,186,1,voorraad,images/br_voorraad.png,images/cb_voorraad.png,1,voorraad,,,,,,,,,,,,,,,,,,,,,
,,,,,00060,2023-10-13_19h27.34.315,vbt_B1_day4,2022.2.4,Win32,60.18295619,,,,,,down,0,1.25,,0.32685188,-0.08888891,1,0,0,0,17,17,131,1,opzicht,images/br_opzicht.png,images/cb_opzicht.png,0,,,,,,,,,,,,,,,,,,,,,,
,,,,,00060,2023-10-13_19h27.34.315,vbt_B1_day4,2022.2.4,Win32,60.18295619,,,,,,down,0,6.649,,0.275000042,-0.082407422,1,0,0,0,18,18,176,1,techniek,images/br_techniek.png,images/cb_techniek.png,0,,,,,,,,,,,,,,,,,,,,,,
,,,,,00060,2023-10-13_19h27.34.315,vbt_B1_day4,2022.2.4,Win32,60.18295619,,,,,,down,0,0.1931,,0.247222265,-0.133333347,1,0,0,0,19,19,114,1,vullen,images/br_vullen.png,images/cb_vullen.png,0,,,,,,,,,,,,,,,,,,,,,,
,,,,,00060,2023-10-13_19h27.34.315,vbt_B1_day4,2022.2.4,Win32,60.18295619,,,,,,down,0,2.0577,,0.238888917,-0.136111153,1,0,0,0,20,20,162,1,uitdelen,images/br_uitdelen.png,images/cb_uitdelen.png,0,,,,,,,,,,,,,,,,,,,,,,
,,,,,00060,2023-10-13_19h27.34.315,vbt_B1_day4,2022.2.4,Win32,60.18295619,,,,,,down,0,0.4527,,0.237963005,-0.135185171,1,0,0,0,21,21,119,1,liefje,images/br_liefje.png,images/cb_liefje.png,0,,,,,,,,,,,,,,,,,,,,,,
,,,,,00060,2023-10-13_19h27.34.315,vbt_B1_day4,2022.2.4,Win32,60.18295619,,,,,,down,0,19.0209,,0.187037079,-0.155555584,1,0,0,0,22,22,77,1,woede,images/br_woede.png,images/cb_woede.png,0,,,,,,,,,,,,,,,,,,,,,,
,,,,,00060,2023-10-13_19h27.34.315,vbt_B1_day4,2022.2.4,Win32,60.18295619,,,,,,down,0,2.2871,,0.381481453,-0.156481496,1,0,0,0,23,23,25,1,plek,images/br_plek.png,images/cb_plek.png,1,plek,,,,,,,,,,,,,,,,,,,,,
,,,,,00060,2023-10-13_19h27.34.315,vbt_B1_day4,2022.2.4,Win32,60.18295619,,,,,,down,0,1.0335,,0.374074159,-0.151851866,1,0,0,0,24,24,171,1,aarzelen,images/br_aarzelen.png,images/cb_aarzelen.png,0,,,,,,,,,,,,,,,,,,,,,,
,,,,,00060,2023-10-13_19h27.34.315,vbt_B1_day4,2022.2.4,Win32,60.18295619,,,,,,down,0,1.067,,0.359259288,-0.130555541,1,0,0,0,25,25,41,1,maken,images/br_maken.png,images/cb_maken.png,0,,,,,,,,,,,,,,,,,,,,,,
,,,,,00060,2023-10-13_19h27.34.315,vbt_B1_day4,2022.2.4,Win32,60.18295619,,,,,,down,0,0.913,,0.352777834,-0.132407436,1,0,0,0,26,26,22,1,stof,images/br_stof.png,images/cb_stof.png,0,,,,,,,,,,,,,,,,,,,,,,
,,,,,00060,2023-10-13_19h27.34.315,vbt_B1_day4,2022.2.4,Win32,60.18295619,,,,,,down,0,3.2795,,0.352777834,-0.134259259,1,0,0,0,27,27,188,1,strekken,images/br_strekken.png,images/cb_strekken.png,0,,,,,,,,,,,,,,,,,,,,,,
,,,,,00060,2023-10-13_19h27.34.315,vbt_B1_day4,2022.2.4,Win32,60.18295619,,,,,,down,0,2.1285,,0.335185157,-0.12962963,1,0,0,0,28,28,163,1,schuilen,images/br_schuilen.png,images/cb_schuilen.png,0,,,,,,,,,,,,,,,,,,,,,,
,,,,,00060,2023-10-13_19h27.34.315,vbt_B1_day4,2022.2.4,Win32,60.18295619,,,,,,down,0,0.7033,,0.335185157,-0.12962963,1,0,0,0,29,29,135,1,gedicht,images/br_gedicht.png,images/cb_gedicht.png,0,,,,,,,,,,,,,,,,,,,,,,
,,,,,00060,2023-10-13_19h27.34.315,vbt_B1_day4,2022.2.4,Win32,60.18295619,,,,,,down,0,0.4551,,0.335185157,-0.12962963,1,0,0,0,30,30,169,1,oprotten,images/br_oprotten.png,images/cb_oprotten.png,0,,,,,,,,,,,,,,,,,,,,,,
,,,,,00060,2023-10-13_19h27.34.315,vbt_B1_day4,2022.2.4,Win32,60.18295619,,,,,,down,0,0.0758,,0.335185157,-0.12962963,1,0,0,0,31,31,10,1,leek,images/br_leek.png,images/cb_leek.png,0,,,,,,,,,,,,,,,,,,,,,,
,,,,,00060,2023-10-13_19h27.34.315,vbt_B1_day4,2022.2.4,Win32,60.18295619,,,,,,down,0,0.1404,,0.335185157,-0.12962963,1,0,0,0,32,32,49,1,laken,images/br_laken.png,images/cb_laken.png,0,,,,,,,,,,,,,,,,,,,,,,
,,,,,00060,2023-10-13_19h27.34.315,vbt_B1_day4,2022.2.4,Win32,60.18295619,,,,,,down,0,2.0337,,0.321296268,-0.122222265,1,0,0,0,33,33,136,1,waarbij,images/br_waarbij.png,images/cb_waarbij.png,0,,,,,,,,,,,,,,,,,,,,,,
,,,,,00060,2023-10-13_19h27.34.315,vbt_B1_day4,2022.2.4,Win32,60.18295619,,,,,,down,0,4.4922,,0.321296268,-0.122222265,1,0,0,0,34,34,145,1,invloed,images/br_invloed.png,images/cb_invloed.png,1,invloed,,,,,,,,,,,,,,,,,,,,,
,,,,,00060,2023-10-13_19h27.34.315,vbt_B1_day4,2022.2.4,Win32,60.18295619,,,,,,down,0,0.9024,,0.300000085,-0.15370369,1,0,0,0,35,35,199,1,beseffen,images/br_beseffen.png,images/cb_beseffen.png,0,,,,,,,,,,,,,,,,,,,,,,
,,,,,00060,2023-10-13_19h27.34.315,vbt_B1_day4,2022.2.4,Win32,60.18295619,,,,,,down,0,2.1212,,0.26944443,-0.175925926,1,0,0,0,36,36,133,1,seizoen,images/br_seizoen.png,images/cb_seizoen.png,0,,,,,,,,,,,,,,,,,,,,,,
,,,,,00060,2023-10-13_19h27.34.315,vbt_B1_day4,2022.2.4,Win32,60.18295619,,,,,,down,0,1.7158,,0.255555541,-0.199074074,1,0,0,0,37,37,31,1,poes,images/br_poes.png,images/cb_poes.png,0,,,,,,,,,,,,,,,,,,,,,,
,,,,,00060,2023-10-13_19h27.34.315,vbt_B1_day4,2022.2.4,Win32,60.18295619,,,,,,down,0,3.9776,,0.250925912,-0.19722225,1,0,0,0,38,38,3,1,mand,images/br_mand.png,images/cb_mand.png,0,,,,,,,,,,,,,,,,,,,,,,
,,,,,00060,2023-10-13_19h27.34.315,vbt_B1_day4,2022.2.4,Win32,60.18295619,,,,,,down,0,0.3662,,0.25,-0.19722225,1,0,0,0,39,39,54,1,gebit,images/br_gebit.png,images/cb_gebit.png,0,,,,,,,,,,,,,,,,,,,,,,
,,,,,00060,2023-10-13_19h27.34.315,vbt_B1_day4,2022.2.4,Win32,60.18295619,,,,,,down,0,2.3676,,0.272222236,-0.181481467,1,0,0,0,40,40,104,1,zweven,images/br_zweven.png,images/cb_zweven.png,1,zweven,,,,,,,,,,,,,,,,,,,,,
,,,,,00060,2023-10-13_19h27.34.315,vbt_B1_day4,2022.2.4,Win32,60.18295619,,,,,,down,0,2.0656,,0.259259259,-0.172222208,1,0,0,0,41,41,156,1,rechten,images/br_rechten.png,images/cb_rechten.png,0,,,,,,,,,,,,,,,,,,,,,,
,,,,,00060,2023-10-13_19h27.34.315,vbt_B1_day4,2022.2.4,Win32,60.18295619,,,,,,down,0,1.3906,,0.259259259,-0.172222208,1,0,0,0,42,42,164,1,anarchie,images/br_anarchie.png,images/cb_anarchie.png,0,,,,,,,,,,,,,,,,,,,,,,
,,,,,00060,2023-10-13_19h27.34.315,vbt_B1_day4,2022.2.4,Win32,60.18295619,,,,,,down,0,0.0997,,0.270370413,-0.170370384,1,0,0,0,43,43,72,1,strak,images/br_strak.png,images/cb_strak.png,0,,,,,,,,,,,,,,,,,,,,,,
,,,,,00060,2023-10-13_19h27.34.315,vbt_B1_day4,2022.2.4,Win32,60.18295619,,,,,,down,0,0.4182,,0.231481481,-0.150000042,1,0,0,0,44,44,5,1,blad,images/br_blad.png,images/cb_blad.png,0,,,,,,,,,,,,,,,,,,,,,,
,,,,,00060,2023-10-13_19h27.34.315,vbt_B1_day4,2022.2.4,Win32,60.18295619,,,,,,down,0,1.4664,,0.231481481,-0.150000042,1,0,0,0,45,45,146,1,opkomen,images/br_opkomen.png,images/cb_opkomen.png,1,opkomen,,,,,,,,,,,,,,,,,,,,,
,,,,,00060,2023-10-13_19h27.34.315,vbt_B1_day4,2022.2.4,Win32,60.18295619,,,,,,down,0,0.7218,,0.231481481,-0.150000042,1,0,0,0,46,46,64,1,wegen,images/br_wegen.png,images/cb_wegen.png,1,wegen,,,,,,,,,,,,,,,,,,,,,
,,,,,00060,2023-10-13_19h27.34.315,vbt_B1_day4,2022.2.4,Win32,60.18295619,,,,,,down,0,0.5003,,0.218518504,-0.121296282,1,0,0,0,47,47,37,1,mijn,images/br_mijn.png,images/cb_mijn.png,0,,,,,,,,,,,,,,,,,,,,,,
,,,,,00060,2023-10-13_19h27.34.315,vbt_B1_day4,2022.2.4,Win32,60.18295619,,,,,,down,0,4.0548,,0.194444444,-0.14444443,1,0,0,0,48,48,112,1,lukken,images/br_lukken.png,images/cb_lukken.png,0,,,,,,,,,,,,,,,,,,,,,,
,,,,,00060,2023-10-13_19h27.34.315,vbt_B1_day4,2022.2.4,Win32,60.18295619,,,,,,down,0,0.2526,,0.178703732,-0.169444473,1,0,0,0,49,49,16,1,ziek,images/br_ziek.png,images/cb_ziek.png,0,,,,,,,,,,,,,,,,,,,,,,
,,,,,00060,2023-10-13_19h27.34.315,vbt_B1_day4,2022.2.4,Win32,60.18295619,,,,,,down,0,0.5332,,0.160185213,-0.191666709,1,0,0,0,50,50,125,1,aanzien,images/br_aanzien.png,images/cb_aanzien.png,0,,,,,,,,,,,,,,,,,,,,,,
,,,,,00060,2023-10-13_19h27.34.315,vbt_B1_day4,2022.2.4,Win32,60.18295619,,,,,,down,0,1.6027,,0.160185213,-0.191666709,1,0,0,0,51,51,129,1,verhaal,images/br_verhaal.png,images/cb_verhaal.png,0,,,,,,,,,,,,,,,,,,,,,,
,,,,,00060,2023-10-13_19h27.34.315,vbt_B1_day4,2022.2.4,Win32,60.18295619,,,,,,down,0,0.2561,,0.188888903,-0.186111097,1,0,0,0,52,52,50,1,stoom,images/br_stoom.png,images/cb_stoom.png,0,,,,,,,,,,,,,,,,,,,,,,
,,,,,00060,2023-10-13_19h27.34.315,vbt_B1_day4,2022.2.4,Win32,60.18295619,,,,,,down,0,0.5509,,0.183333362,-0.181481467,1,0,0,0,53,53,71,1,bever,images/br_bever.png,images/cb_bever.png,0,,,,,,,,,,,,,,,,,,,,,,
,,,,,00060,2023-10-13_19h27.34.315,vbt_B1_day4,2022.2.4,Win32,60.18295619,,,,,,down,0,1.4546,,0.301851908,-0.196296339,1,0,0,0,54,54,184,1,aandelen,images/br_aandelen.png,images/cb_aandelen.png,1,aandelen,,,,,,,,,,,,,,,,,,,,,
,,,,,00060,2023-10-13_19h27.34.315,vbt_B1_day4,2022.2.4,Win32,60.18295619,,,,,,down,0,2.3954,,0.301851908,-0.196296339,1,0,0,0,55,55,66,1,lever,images/br_lever.png,images/cb_lever.png,1,lever,,,,,,,,,,,,,,,,,,,,,
,,,,,00060,2023-10-13_19h27.34.315,vbt_B1_day4,2022.2.4,Win32,60.18295619,,,,,,down,0,0.2369,,0.306481538,-0.193518533,1,0,0,0,56,56,116,1,besmet,images/br_besmet.png,images/cb_besmet.png,0,,,,,,,,,,,,,,,,,,,,,,
,,,,,00060,2023-10-13_19h27.34.315,vbt_B1_day4,2022.2.4,Win32,60.18295619,,,,,,down,0,0.0179,,0.25,-0.180555556,1,0,0,0,57,57,28,1,stal,images/br_stal.png,images/cb_stal.png,0,,,,,,,,,,,,,,,,,,,,,,
,,,,,00060,2023-10-13_19h27.34.315,vbt_B1_day4,2022.2.4,Win32,60.18295619,,,,,,down,0,1.5524,,0.25,-0.159259302,0,0,1,0,58,58,190,1,goedkoop,images/br_goedkoop.png,images/cb_goedkoop.png,0,,,,,,,,,,,,,,,,,,,,,,
,,,,,00060,2023-10-13_19h27.34.315,vbt_B1_day4,2022.2.4,Win32,60.18295619,,,,,,down,0,6.5323,,0.18240745,-0.126851894,1,0,0,0,59,59,160,1,daarheen,images/br_daarheen.png,images/cb_daarheen.png,0,,,,,,,,,,,,,,,,,,,,,,
,,,,,00060,2023-10-13_19h27.34.315,vbt_B1_day4,2022.2.4,Win32,60.18295619,,,,,,down,0,0.4463,,0.122222265,-0.155555584,1,0,0,0,60,60,6,1,diep,images/br_diep.png,images/cb_diep.png,0,,,,,,,,,,,,,,,,,,,,,,
,,,,,00060,2023-10-13_19h27.34.315,vbt_B1_day4,2022.2.4,Win32,60.18295619,,,,,,down,0,0.5344,,0.151851866,-0.185185185,1,0,0,0,61,61,189,1,aanraden,images/br_aanraden.png,images/cb_aanraden.png,0,,,,,,,,,,,,,,,,,,,,,,
,,,,,00060,2023-10-13_19h27.34.315,vbt_B1_day4,2022.2.4,Win32,60.18295619,,,,,,down,0,0.1164,,0.143518519,-0.173148191,1,0,0,0,62,62,117,1,kennis,images/br_kennis.png,images/cb_kennis.png,0,,,,,,,,,,,,,,,,,,,,,,
,,,,,00060,2023-10-13_19h27.34.315,vbt_B1_day4,2022.2.4,Win32,60.18295619,,,,,,down,0,0.1026,,0.143518519,-0.172222208,1,0,0,0,63,63,128,1,prikken,images/br_prikken.png,images/cb_prikken.png,0,,,,,,,,,,,,,,,,,,,,,,
,,,,,00060,2023-10-13_19h27.34.315,vbt_B1_day4,2022.2.4,Win32,60.18295619,,,,,,down,0,0.3398,,0.143518519,-0.172222208,1,0,0,0,64,64,19,1,geit,images/br_geit.png,images/cb_geit.png,0,,,,,,,,,,,,,,,,,,,,,,
,,,,,00060,2023-10-13_19h27.34.315,vbt_B1_day4,2022.2.4,Win32,60.18295619,,,,,,down,0,1.52,,0.140740783,-0.175925926,1,0,0,0,65,65,121,1,twijfel,images/br_twijfel.png,images/cb_twijfel.png,0,,,,,,,,,,,,,,,,,,,,,,
,,,,,00060,2023-10-13_19h27.34.315,vbt_B1_day4,2022.2.4,Win32,60.18295619,,,,,,down,0,0.9788,,0.140740783,-0.125925912,1,0,0,0,66,66,113,1,koppen,images/br_koppen.png,images/cb_koppen.png,0,,,,,,,,,,,,,,,,,,,,,,
,,,,,00060,2023-10-13_19h27.34.315,vbt_B1_day4,2022.2.4,Win32,60.18295619,,,,,,down,0,1.2008,,0.174074102,-0.168518561,1,0,0,0,67,67,23,1,zout,images/br_zout.png,images/cb_zout.png,0,,,,,,,,,,,,,,,,,,,,,,
,,,,,00060,2023-10-13_19h27.34.315,vbt_B1_day4,2022.2.4,Win32,60.18295619,,,,,,down,0,2.6178,,0.068518533,-0.18240745,1,0,0,0,68,68,15,1,soda,images/br_soda.png,images/cb_soda.png,0,,,,,,,,,,,,,,,,,,,,,,
,,,,,00060,2023-10-13_19h27.34.315,vbt_B1_day4,2022.2.4,Win32,60.18295619,,,,,,down,0,1.0695,,0.112963005,-0.164814843,1,0,0,0,69,69,126,1,kasteel,images/br_kasteel.png,images/cb_kasteel.png,0,,,,,,,,,,,,,,,,,,,,,,
,,,,,00060,2023-10-13_19h27.34.315,vbt_B1_day4,2022.2.4,Win32,60.18295619,,,,,,down,0,1.3207,,0.200925968,-0.157407407,1,0,0,0,70,70,178,1,huisdier,images/br_huisdier.png,images/cb_huisdier.png,0,,,,,,,,,,,,,,,,,,,,,,
,,,,,00060,2023-10-13_19h27.34.315,vbt_B1_day4,2022.2.4,Win32,60.18295619,,,,,,down,0,0.1513,,0.198148162,-0.157407407,1,0,0,0,71,71,1,1,zaal,images/br_zaal.png,images/cb_zaal.png,0,,,,,,,,,,,,,,,,,,,,,,
,,,,,00060,2023-10-13_19h27.34.315,vbt_B1_day4,2022.2.4,Win32,60.18295619,,,,,,down,0,1.0882,,0.198148162,-0.156481496,1,0,0,0,72,72,11,1,mode,images/br_mode.png,images/cb_mode.png,0,,,,,,,,,,,,,,,,,,,,,,
,,,,,00060,2023-10-13_19h27.34.315,vbt_B1_day4,2022.2.4,Win32,60.18295619,,,,,,down,0,0.866,,0.198148162,-0.156481496,1,0,0,0,73,73,74,1,graaf,images/br_graaf.png,images/cb_graaf.png,0,,,,,,,,,,,,,,,,,,,,,,
,,,,,00060,2023-10-13_19h27.34.315,vbt_B1_day4,2022.2.4,Win32,60.18295619,,,,,,down,0,3.0525,,0.198148162,-0.156481496,1,0,0,0,74,74,187,1,opkijken,images/br_opkijken.png,images/cb_opkijken.png,1,opkijken,,,,,,,,,,,,,,,,,,,,,
,,,,,00060,2023-10-13_19h27.34.315,vbt_B1_day4,2022.2.4,Win32,60.18295619,,,,,,down,0,0.7063,,0.257407436,-0.133333347,1,0,0,0,75,75,9,1,hier,images/br_hier.png,images/cb_hier.png,0,,,,,,,,,,,,,,,,,,,,,,
,,,,,00060,2023-10-13_19h27.34.315,vbt_B1_day4,2022.2.4,Win32,60.18295619,,,,,,down,0,0.8511,,0.224074116,-0.150925954,1,0,0,0,76,76,118,1,vinger,images/br_vinger.png,images/cb_vinger.png,0,,,,,,,,,,,,,,,,,,,,,,
,,,,,00060,2023-10-13_19h27.34.315,vbt_B1_day4,2022.2.4,Win32,60.18295619,,,,,,down,0,0.4512,,0.224074116,-0.174074102,1,0,0,0,77,77,98,1,kreeft,images/br_kreeft.png,images/cb_kreeft.png,0,,,,,,,,,,,,,,,,,,,,,,
,,,,,00060,2023-10-13_19h27.34.315,vbt_B1_day4,2022.2.4,Win32,60.18295619,,,,,,down,0,1.0336,,0.214814857,-0.180555556,1,0,0,0,78,78,68,1,schat,images/br_schat.png,images/cb_schat.png,0,,,,,,,,,,,,,,,,,,,,,,
,,,,,00060,2023-10-13_19h27.34.315,vbt_B1_day4,2022.2.4,Win32,60.18295619,,,,,,down,0,0.0197,,0.215740769,-0.180555556,1,0,0,0,79,79,33,1,vlek,images/br_vlek.png,images/cb_vlek.png,0,,,,,,,,,,,,,,,,,,,,,,
,,,,,00060,2023-10-13_19h27.34.315,vbt_B1_day4,2022.2.4,Win32,60.18295619,,,,,,down,0,2.699,,0.204629616,-0.191666709,1,0,0,0,80,80,198,1,bedoelen,images/br_bedoelen.png,images/cb_bedoelen.png,0,,,,,,,,,,,,,,,,,,,,,,
,,,,,00060,2023-10-13_19h27.34.315,vbt_B1_day4,2022.2.4,Win32,60.18295619,,,,,,down,0,1.254,,0.200925968,-0.198148162,1,0,0,0,81,81,94,1,oceaan,images/br_oceaan.png,images/cb_oceaan.png,0,,,,,,,,,,,,,,,,,,,,,,
,,,,,00060,2023-10-13_19h27.34.315,vbt_B1_day4,2022.2.4,Win32,60.18295619,,,,,,down,0,3.1495,,0.210185228,-0.187037079,1,0,0,0,82,82,165,1,feestdag,images/br_feestdag.png,images/cb_feestdag.png,0,,,,,,,,,,,,,,,,,,,,,,
,,,,,00060,2023-10-13_19h27.34.315,vbt_B1_day4,2022.2.4,Win32,60.18295619,,,,,,down,0,14.6063,,0.240740741,-0.159259302,1,0,0,0,83,83,12,1,kust,images/br_kust.png,images/cb_kust.png,0,,,,,,,,,,,,,,,,,,,,,,
,,,,,00060,2023-10-13_19h27.34.315,vbt_B1_day4,2022.2.4,Win32,60.18295619,,,,,,down,0,0.1998,,0.237963005,-0.136111153,1,0,0,0,84,84,150,1,gegeven,images/br_gegeven.png,images/cb_gegeven.png,0,,,,,,,,,,,,,,,,,,,,,,
,,,,,00060,2023-10-13_19h27.34.315,vbt_B1_day4,2022.2.4,Win32,60.18295619,,,,,,down,0,0.3861,,0.194444444,-0.139814801,1,0,0,0,85,85,61,1,groen,images/br_groen.png,images/cb_groen.png,0,,,,,,,,,,,,,,,,,,,,,,
,,,,,00060,2023-10-13_19h27.34.315,vbt_B1_day4,2022.2.4,Win32,60.18295619,,,,,,down,0,0.552,,0.192592621,-0.138888889,1,0,0,0,86,86,53,1,baron,images/br_baron.png,images/cb_baron.png,0,,,,,,,,,,,,,,,,,,,,,,
,,,,,00060,2023-10-13_19h27.34.315,vbt_B1_day4,2022.2.4,Win32,60.18295619,,,,,,down,0,2.8207,,0.192592621,-0.138888889,1,0,0,0,87,87,152,1,afnemen,images/br_afnemen.png,images/cb_afnemen.png,0,,,,,,,,,,,,,,,,,,,,,,
,,,,,00060,2023-10-13_19h27.34.315,vbt_B1_day4,2022.2.4,Win32,60.18295619,,,,,,down,0,2.2856,,0.192592621,-0.138888889,1,0,0,0,88,88,93,1,waarop,images/br_waarop.png,images/cb_waarop.png,0,,,,,,,,,,,,,,,,,,,,,,
,,,,,00060,2023-10-13_19h27.34.315,vbt_B1_day4,2022.2.4,Win32,60.18295619,,,,,,down,0,0.9688,,0.181481467,-0.150000042,1,0,0,0,89,89,181,1,toegeven,images/br_toegeven.png,images/cb_toegeven.png,0,,,,,,,,,,,,,,,,,,,,,,
,,,,,00060,2023-10-13_19h27.34.315,vbt_B1_day4,2022.2.4,Win32,60.18295619,,,,,,down,0,3.9037,,0.175925926,-0.14444443,1,0,0,0,90,90,85,1,heilig,images/br_heilig.png,images/cb_heilig.png,0,,,,,,,,,,,,,,,,,,,,,,
,,,,,00060,2023-10-13_19h27.34.315,vbt_B1_day4,2022.2.4,Win32,60.18295619,,,,,,down,0,2.9879,,0.175925926,-0.147222236,1,0,0,0,91,91,144,1,eetlust,images/br_eetlust.png,images/cb_eetlust.png,1,eetlust,,,,,,,,,,,,,,,,,,,,,
,,,,,00060,2023-10-13_19h27.34.315,vbt_B1_day4,2022.2.4,Win32,60.18295619,,,,,,down,0,1.5667,,0.253703718,-0.181481467,1,0,0,0,92,92,32,1,palm,images/br_palm.png,images/cb_palm.png,0,,,,,,,,,,,,,,,,,,,,,,
,,,,,00060,2023-10-13_19h27.34.315,vbt_B1_day4,2022.2.4,Win32,60.18295619,,,,,,down,0,1.1716,,0.217592593,-0.181481467,1,0,0,0,93,93,138,1,akkoord,images/br_akkoord.png,images/cb_akkoord.png,0,,,,,,,,,,,,,,,,,,,,,,
,,,,,00060,2023-10-13_19h27.34.315,vbt_B1_day4,2022.2.4,Win32,60.18295619,,,,,,down,0,7.233,,0.287962949,-0.184259273,1,0,0,0,94,94,147,1,komisch,images/br_komisch.png,images/cb_komisch.png,1,komisch,,,,,,,,,,,,,,,,,,,,,
,,,,,00060,2023-10-13_19h27.34.315,vbt_B1_day4,2022.2.4,Win32,60.18295619,,,,,,down,0,0.302,,0.275000042,-0.174074102,1,0,0,0,95,95,8,1,knie,images/br_knie.png,images/cb_knie.png,0,,,,,,,,,,,,,,,,,,,,,,
,,,,,00060,2023-10-13_19h27.34.315,vbt_B1_day4,2022.2.4,Win32,60.18295619,,,,,,down,0,1.2449,,0.262037065,-0.162037037,1,0,0,0,96,96,58,1,tekst,images/br_tekst.png,images/cb_tekst.png,0,,,,,,,,,,,,,,,,,,,,,,
,,,,,00060,2023-10-13_19h27.34.315,vbt_B1_day4,2022.2.4,Win32,60.18295619,,,,,,down,0,2.4574,,0.260185171,-0.175000014,1,0,0,0,97,97,195,1,middelen,images/br_middelen.png,images/cb_middelen.png,0,,,,,,,,,,,,,,,,,,,,,,
,,,,,00060,2023-10-13_19h27.34.315,vbt_B1_day4,2022.2.4,Win32,60.18295619,,,,,,down,0,0.9165,,0.249074088,-0.17777782,1,0,0,0,98,98,177,1,maaltijd,images/br_maaltijd.png,images/cb_maaltijd.png,0,,,,,,,,,,,,,,,,,,,,,,
,,,,,00060,2023-10-13_19h27.34.315,vbt_B1_day4,2022.2.4,Win32,60.18295619,,,,,,down,0,2.5004,,0.264814801,-0.20185188,1,0,0,0,99,99,83,1,mening,images/br_mening.png,images/cb_mening.png,0,,,,,,,,,,,,,,,,,,,,,,
,,,,,00060,2023-10-13_19h27.34.315,vbt_B1_day4,2022.2.4,Win32,60.18295619,,,,,,down,0,4.1994,,0.257407436,-0.200925968,1,0,0,0,100,100,109,1,totaal,images/br_totaal.png,images/cb_totaal.png,0,,,,,,,,,,,,,,,,,,,,,,
,,,,,00060,2023-10-13_19h27.34.315,vbt_B1_day4,2022.2.4,Win32,60.18295619,,,,,,down,0,2.1342,,0.224074116,-0.199074074,1,0,0,0,101,101,82,1,muziek,images/br_muziek.png,images/cb_muziek.png,0,,,,,,,,,,,,,,,,,,,,,,
,,,,,00060,2023-10-13_19h27.34.315,vbt_B1_day4,2022.2.4,Win32,60.18295619,,,,,,down,0,1.5864,,0.240740741,-0.171296296,1,0,0,0,102,102,122,1,waarvan,images/br_waarvan.png,images/cb_waarvan.png,0,,,,,,,,,,,,,,,,,,,,,,
,,,,,00060,2023-10-13_19h27.34.315,vbt_B1_day4,2022.2.4,Win32,60.18295619,,,,,,down,0,0.6145,,0.228703746,-0.178703732,1,0,0,0,103,103,7,1,geld,images/br_geld.png,images/cb_geld.png,0,,,,,,,,,,,,,,,,,,,,,,
,,,,,00060,2023-10-13_19h27.34.315,vbt_B1_day4,2022.2.4,Win32,60.18295619,,,,,,down,0,0.7521,,0.235185199,-0.179629644,1,0,0,0,104,104,35,1,lust,images/br_lust.png,images/cb_lust.png,0,,,,,,,,,,,,,,,,,,,,,,
,,,,,00060,2023-10-13_19h27.34.315,vbt_B1_day4,2022.2.4,Win32,60.18295619,,,,,,down,0,1.3877,,0.23055557,-0.18240745,1,0,0,0,105,105,57,1,steek,images/br_steek.png,images/cb_steek.png,0,,,,,,,,,,,,,,,,,,,,,,
,,,,,00060,2023-10-13_19h27.34.315,vbt_B1_day4,2022.2.4,Win32,60.18295619,,,,,,down,0,0.6152,,0.219444487,-0.195370356,1,0,0,0,106,106,127,1,doodmoe,images/br_doodmoe.png,images/cb_doodmoe.png,0,,,,,,,,,,,,,,,,,,,,,,
,,,,,00060,2023-10-13_19h27.34.315,vbt_B1_day4,2022.2.4,Win32,60.18295619,,,,,,down,0,0.1016,,0.217592593,-0.19722225,1,0,0,0,107,107,40,1,schep,images/br_schep.png,images/cb_schep.png,0,,,,,,,,,,,,,,,,,,,,,,
,,,,,00060,2023-10-13_19h27.34.315,vbt_B1_day4,2022.2.4,Win32,60.18295619,,,,,,down,0,0.2502,,0.199074074,-0.189814815,1,0,0,0,108,108,99,1,koffie,images/br_koffie.png,images/cb_koffie.png,0,,,,,,,,,,,,,,,,,,,,,,
,,,,,00060,2023-10-13_19h27.34.315,vbt_B1_day4,2022.2.4,Win32,60.18295619,,,,,,down,0,0.5171,,0.199074074,-0.189814815,1,0,0,0,109,109,193,1,weeshuis,images/br_weeshuis.png,images/cb_weeshuis.png,0,,,,,,,,,,,,,,,,,,,,,,
,,,,,00060,2023-10-13_19h27.34.315,vbt_B1_day4,2022.2.4,Win32,60.18295619,,,,,,down,0,0.4584,,0.19722225,-0.189814815,1,0,0,0,110,110,47,1,kabel,images/br_kabel.png,images/cb_kabel.png,0,,,,,,,,,,,,,,,,,,,,,,
,,,,,00060,2023-10-13_19h27.34.315,vbt_B1_day4,2022.2.4,Win32,60.18295619,,,,,,down,0,1.0997,,0.19722225,-0.189814815,1,0,0,0,111,111,137,1,trekker,images/br_trekker.png,images/cb_trekker.png,0,,,,,,,,,,,,,,,,,,,,,,
,,,,,00060,2023-10-13_19h27.34.315,vbt_B1_day4,2022.2.4,Win32,60.18295619,,,,,,down,0,1.2385,,0.19722225,-0.189814815,1,0,0,0,112,112,115,1,kleren,images/br_kleren.png,images/cb_kleren.png,0,,,,,,,,,,,,,,,,,,,,,,
,,,,,00060,2023-10-13_19h27.34.315,vbt_B1_day4,2022.2.4,Win32,60.18295619,,,,,,down,0,0.2355,,0.19722225,-0.189814815,1,0,0,0,113,113,123,1,hiervan,images/br_hiervan.png,images/cb_hiervan.png,0,,,,,,,,,,,,,,,,,,,,,,
,,,,,00060,2023-10-13_19h27.34.315,vbt_B1_day4,2022.2.4,Win32,60.18295619,,,,,,down,0,0.309,,0.19722225,-0.189814815,1,0,0,0,114,114,51,1,samen,images/br_samen.png,images/cb_samen.png,0,,,,,,,,,,,,,,,,,,,,,,
,,,,,00060,2023-10-13_19h27.34.315,vbt_B1_day4,2022.2.4,Win32,60.18295619,,,,,,down,0,1.3795,,0.179629644,-0.191666709,1,0,0,0,115,115,172,1,weigeren,images/br_weigeren.png,images/cb_weigeren.png,0,,,,,,,,,,,,,,,,,,,,,,
,,,,,00060,2023-10-13_19h27.34.315,vbt_B1_day4,2022.2.4,Win32,60.18295619,,,,,,down,0,0.4116,,0.179629644,-0.190740727,1,0,0,0,116,116,17,1,taal,images/br_taal.png,images/cb_taal.png,0,,,,,,,,,,,,,,,,,,,,,,
,,,,,00060,2023-10-13_19h27.34.315,vbt_B1_day4,2022.2.4,Win32,60.18295619,,,,,,down,0,0.2727,,0.179629644,-0.190740727,1,0,0,0,117,117,2,1,jaar,images/br_jaar.png,images/cb_jaar.png,0,,,,,,,,,,,,,,,,,,,,,,
,,,,,00060,2023-10-13_19h27.34.315,vbt_B1_day4,2022.2.4,Win32,60.18295619,,,,,,down,0,0.1502,,0.179629644,-0.194444444,1,0,0,0,118,118,86,1,woning,images/br_woning.png,images/cb_woning.png,0,,,,,,,,,,,,,,,,,,,,,,
,,,,,00060,2023-10-13_19h27.34.315,vbt_B1_day4,2022.2.4,Win32,60.18295619,,,,,,down,0,0.187,,0.179629644,-0.194444444,1,0,0,0,119,119,13,1,kaal,images/br_kaal.png,images/cb_kaal.png,0,,,,,,,,,,,,,,,,,,,,,,
,,,,,00060,2023-10-13_19h27.34.315,vbt_B1_day4,2022.2.4,Win32,60.18295619,,,,,,down,0,1.9835,,0.17777782,-0.193518533,1,0,0,0,120,120,194,1,driemaal,images/br_driemaal.png,images/cb_driemaal.png,0,,,,,,,,,,,,,,,,,,,,,,
,,,,,00060,2023-10-13_19h27.34.315,vbt_B1_day4,2022.2.4,Win32,60.18295619,,,,,,down,0,0.2586,,0.175925926,-0.194444444,1,0,0,0,121,121,96,1,slagen,images/br_slagen.png,images/cb_slagen.png,0,,,,,,,,,,,,,,,,,,,,,,
,,,,,00060,2023-10-13_19h27.34.315,vbt_B1_day4,2022.2.4,Win32,60.18295619,,,,,,down,0,0.4878,,0.175925926,-0.196296339,1,0,0,0,122,122,100,1,geduld,images/br_geduld.png,images/cb_geduld.png,0,,,,,,,,,,,,,,,,,,,,,,
,,,,,00060,2023-10-13_19h27.34.315,vbt_B1_day4,2022.2.4,Win32,60.18295619,,,,,,down,0,1.1848,,0.171296296,-0.195370356,1,0,0,0,123,123,0,1,slak,images/br_slak.png,images/cb_slak.png,0,,,,,,,,,,,,,,,,,,,,,,
,,,,,00060,2023-10-13_19h27.34.315,vbt_B1_day4,2022.2.4,Win32,60.18295619,,,,,,down,0,0.6218,,0.171296296,-0.195370356,1,0,0,0,124,124,139,1,stiekem,images/br_stiekem.png,images/cb_stiekem.png,0,,,,,,,,,,,,,,,,,,,,,,
,,,,,00060,2023-10-13_19h27.34.315,vbt_B1_day4,2022.2.4,Win32,60.18295619,,,,,,down,0,4.3337,,0.171296296,-0.19722225,1,0,0,0,125,125,166,1,strikken,images/br_strikken.png,images/cb_strikken.png,0,,,,,,,,,,,,,,,,,,,,,,
,,,,,00060,2023-10-13_19h27.34.315,vbt_B1_day4,2022.2.4,Win32,60.18295619,,,,,,down,0,2.3173,,0.146296325,-0.199074074,1,0,0,0,126,126,192,1,schaamte,images/br_schaamte.png,images/cb_schaamte.png,0,,,,,,,,,,,,,,,,,,,,,,
,,,,,00060,2023-10-13_19h27.34.315,vbt_B1_day4,2022.2.4,Win32,60.18295619,,,,,,down,0,1.0746,,0.143518519,-0.212962963,1,0,0,0,127,127,110,1,zuster,images/br_zuster.png,images/cb_zuster.png,0,,,,,,,,,,,,,,,,,,,,,,
,,,,,00060,2023-10-13_19h27.34.315,vbt_B1_day4,2022.2.4,Win32,60.18295619,,,,,,down,0,0.0925,,0.162037037,-0.205555598,1,0,0,0,128,128,46,1,jagen,images/br_jagen.png,images/cb_jagen.png,0,,,,,,,,,,,,,,,,,,,,,,
,,,,,00060,2023-10-13_19h27.34.315,vbt_B1_day4,2022.2.4,Win32,60.18295619,,,,,,down,0,1.4164,,0.160185213,-0.205555598,1,0,0,0,129,129,55,1,praat,images/br_praat.png,images/cb_praat.png,0,,,,,,,,,,,,,,,,,,,,,,
,,,,,00060,2023-10-13_19h27.34.315,vbt_B1_day4,2022.2.4,Win32,60.18295619,,,,,,down,0,12.1193,,0.160185213,-0.205555598,1,0,0,0,130,130,148,1,smullen,images/br_smullen.png,images/cb_smullen.png,0,,,,,,,,,,,,,,,,,,,,,,
,,,,,00060,2023-10-13_19h27.34.315,vbt_B1_day4,2022.2.4,Win32,60.18295619,,,,,,down,0,2.7831,,0.155555584,-0.226851852,1,0,0,0,131,131,30,1,uien,images/br_uien.png,images/cb_uien.png,0,,,,,,,,,,,,,,,,,,,,,,
,,,,,00060,2023-10-13_19h27.34.315,vbt_B1_day4,2022.2.4,Win32,60.18295619,,,,,,down,0,1.5519,,0.25462963,-0.195370356,1,0,0,0,132,132,67,1,zwart,images/br_zwart.png,images/cb_zwart.png,1,zwart,,,,,,,,,,,,,,,,,,,,,
,,,,,00060,2023-10-13_19h27.34.315,vbt_B1_day4,2022.2.4,Win32,60.18295619,,,,,,down,0,1.4494,,0.203703704,-0.216666681,1,0,0,0,133,133,197,1,spanning,images/br_spanning.png,images/cb_spanning.png,0,,,,,,,,,,,,,,,,,,,,,,
,,,,,00060,2023-10-13_19h27.34.315,vbt_B1_day4,2022.2.4,Win32,60.18295619,,,,,,down,0,0.0341,,0.203703704,-0.22592594,1,0,0,0,134,134,91,1,gezond,images/br_gezond.png,images/cb_gezond.png,0,,,,,,,,,,,,,,,,,,,,,,
,,,,,00060,2023-10-13_19h27.34.315,vbt_B1_day4,2022.2.4,Win32,60.18295619,,,,,,down,0,2.1207,,0.203703704,-0.22592594,1,0,0,0,135,135,105,1,wijlen,images/br_wijlen.png,images/cb_wijlen.png,1,wijlen,,,,,,,,,,,,,,,,,,,,,
,,,,,00060,2023-10-13_19h27.34.315,vbt_B1_day4,2022.2.4,Win32,60.18295619,,,,,,down,0,2.5762,,0.218518504,-0.260185171,1,0,0,0,136,136,18,1,blik,images/br_blik.png,images/cb_blik.png,0,,,,,,,,,,,,,,,,,,,,,,
,,,,,00060,2023-10-13_19h27.34.315,vbt_B1_day4,2022.2.4,Win32,60.18295619,,,,,,down,0,2.3726,,0.223148134,-0.194444444,1,0,0,0,137,137,130,1,keihard,images/br_keihard.png,images/cb_keihard.png,0,,,,,,,,,,,,,,,,,,,,,,
,,,,,00060,2023-10-13_19h27.34.315,vbt_B1_day4,2022.2.4,Win32,60.18295619,,,,,,down,0,0.8008,,0.190740727,-0.213888875,1,0,0,0,138,138,170,1,schatten,images/br_schatten.png,images/cb_schatten.png,0,,,,,,,,,,,,,,,,,,,,,,
,,,,,00060,2023-10-13_19h27.34.315,vbt_B1_day4,2022.2.4,Win32,60.18295619,,,,,,down,0,1.9755,,0.190740727,-0.213888875,1,0,0,0,139,139,26,1,leuk,images/br_leuk.png,images/cb_leuk.png,1,leuk,,,,,,,,,,,,,,,,,,,,,
,,,,,00060,2023-10-13_19h27.34.315,vbt_B1_day4,2022.2.4,Win32,60.18295619,,,,,,down,0,0.7198,,0.311111168,-0.143518519,1,0,0,0,140,140,132,1,grappen,images/br_grappen.png,images/cb_grappen.png,0,,,,,,,,,,,,,,,,,,,,,,
,,,,,00060,2023-10-13_19h27.34.315,vbt_B1_day4,2022.2.4,Win32,60.18295619,,,,,,down,0,0.9418,,0.251851894,-0.15370369,1,0,0,0,141,141,73,1,volop,images/br_volop.png,images/cb_volop.png,0,,,,,,,,,,,,,,,,,,,,,,
,,,,,00060,2023-10-13_19h27.34.315,vbt_B1_day4,2022.2.4,Win32,60.18295619,,,,,,down,0,0.0575,,0.257407436,-0.159259302,1,0,0,0,142,142,167,1,eenhoorn,images/br_eenhoorn.png,images/cb_eenhoorn.png,0,,,,,,,,,,,,,,,,,,,,,,
,,,,,00060,2023-10-13_19h27.34.315,vbt_B1_day4,2022.2.4,Win32,60.18295619,,,,,,down,0,3.7195,,0.262037065,-0.163888931,1,0,0,0,143,143,173,1,apparaat,images/br_apparaat.png,images/cb_apparaat.png,0,,,,,,,,,,,,,,,,,,,,,,
,,,,,00060,2023-10-13_19h27.34.315,vbt_B1_day4,2022.2.4,Win32,60.18295619,,,,,,down,0,0.6088,,0.252777806,-0.168518561,1,0,0,0,144,144,134,1,geliefd,images/br_geliefd.png,images/cb_geliefd.png,0,,,,,,,,,,,,,,,,,,,,,,
,,,,,00060,2023-10-13_19h27.34.315,vbt_B1_day4,2022.2.4,Win32,60.18295619,,,,,,down,0,0.0508,,0.250925912,-0.165740755,1,0,0,0,145,145,39,1,laag,images/br_laag.png,images/cb_laag.png,0,,,,,,,,,,,,,,,,,,,,,,
,,,,,00060,2023-10-13_19h27.34.315,vbt_B1_day4,2022.2.4,Win32,60.18295619,,,,,,down,0,4.1332,,0.250925912,-0.164814843,1,0,0,0,146,146,142,1,snuiven,images/br_snuiven.png,images/cb_snuiven.png,0,,,,,,,,,,,,,,,,,,,,,,
,,,,,00060,2023-10-13_19h27.34.315,vbt_B1_day4,2022.2.4,Win32,60.18295619,,,,,,down,0,2.1153,,0.237963005,-0.185185185,1,0,0,0,147,147,14,1,rijp,images/br_rijp.png,images/cb_rijp.png,0,,,,,,,,,,,,,,,,,,,,,,
,,,,,00060,2023-10-13_19h27.34.315,vbt_B1_day4,2022.2.4,Win32,60.18295619,,,,,,down,0,2.868,,0.241666653,-0.196296339,1,0,0,0,148,148,81,1,dubbel,images/br_dubbel.png,images/cb_dubbel.png,0,,,,,,,,,,,,,,,,,,,,,,
,,,,,00060,2023-10-13_19h27.34.315,vbt_B1_day4,2022.2.4,Win32,60.18295619,,,,,,down,0,2.6876,,0.22129631,-0.224074116,1,0,0,0,149,149,101,1,staren,images/br_staren.png,images/cb_staren.png,0,,,,,,,,,,,,,,,,,,,,,,
,,,,,00060,2023-10-13_19h27.34.315,vbt_B1_day4,2022.2.4,Win32,60.18295619,,,,,,down,0,0.3332,,0.217592593,-0.228703746,1,0,0,0,150,150,69,1,waken,images/br_waken.png,images/cb_waken.png,0,,,,,,,,,,,,,,,,,,,,,,
,,,,,00060,2023-10-13_19h27.34.315,vbt_B1_day4,2022.2.4,Win32,60.18295619,,,,,,down,0,3.0954,,0.214814857,-0.225000028,1,0,0,0,151,151,174,1,stemming,images/br_stemming.png,images/cb_stemming.png,0,,,,,,,,,,,,,,,,,,,,,,
,,,,,00060,2023-10-13_19h27.34.315,vbt_B1_day4,2022.2.4,Win32,60.18295619,,,,,,down,0,3.2712,,0.218518504,-0.224074116,1,0,0,0,152,152,180,1,openbaar,images/br_openbaar.png,images/cb_openbaar.png,0,,,,,,,,,,,,,,,,,,,,,,
,,,,,00060,2023-10-13_19h27.34.315,vbt_B1_day4,2022.2.4,Win32,60.18295619,,,,,,down,0,0.2369,,0.20648151,-0.222222222,1,0,0,0,153,153,29,1,baas,images/br_baas.png,images/cb_baas.png,0,,,,,,,,,,,,,,,,,,,,,,
,,,,,00060,2023-10-13_19h27.34.315,vbt_B1_day4,2022.2.4,Win32,60.18295619,,,,,,down,0,0.3704,,0.207407422,-0.226851852,1,0,0,0,154,154,87,1,toeval,images/br_toeval.png,images/cb_toeval.png,0,,,,,,,,,,,,,,,,,,,,,,
,,,,,00060,2023-10-13_19h27.34.315,vbt_B1_day4,2022.2.4,Win32,60.18295619,,,,,,down,0,0.2206,,0.209259245,-0.224074116,1,0,0,0,155,155,36,1,vuur,images/br_vuur.png,images/cb_vuur.png,0,,,,,,,,,,,,,,,,,,,,,,
,,,,,00060,2023-10-13_19h27.34.315,vbt_B1_day4,2022.2.4,Win32,60.18295619,,,,,,down,0,6.0694,,0.20185188,-0.227777764,1,0,0,0,156,156,168,1,bisschop,images/br_bisschop.png,images/cb_bisschop.png,0,,,,,,,,,,,,,,,,,,,,,,
,,,,,00060,2023-10-13_19h27.34.315,vbt_B1_day4,2022.2.4,Win32,60.18295619,,,,,,down,0,0.5065,,0.166666667,-0.229629658,1,0,0,0,157,157,70,1,ijdel,images/br_ijdel.png,images/cb_ijdel.png,0,,,,,,,,,,,,,,,,,,,,,,
,,,,,00060,2023-10-13_19h27.34.315,vbt_B1_day4,2022.2.4,Win32,60.18295619,,,,,,down,0,0.2336,,0.164814843,-0.233333376,1,0,0,0,158,158,97,1,loyaal,images/br_loyaal.png,images/cb_loyaal.png,0,,,,,,,,,,,,,,,,,,,,,,
,,,,,00060,2023-10-13_19h27.34.315,vbt_B1_day4,2022.2.4,Win32,60.18295619,,,,,,down,0,0.2899,,0.160185213,-0.236111111,1,0,0,0,159,159,62,1,knaap,images/br_knaap.png,images/cb_knaap.png,0,,,,,,,,,,,,,,,,,,,,,,
,,,,,00060,2023-10-13_19h27.34.315,vbt_B1_day4,2022.2.4,Win32,60.18295619,,,,,,down,0,2.2854,,0.160185213,-0.237037023,1,0,0,0,160,160,80,1,kanjer,images/br_kanjer.png,images/cb_kanjer.png,0,,,,,,,,,,,,,,,,,,,,,,
,,,,,00060,2023-10-13_19h27.34.315,vbt_B1_day4,2022.2.4,Win32,60.18295619,,,,,,down,0,3.4494,,0.161111125,-0.235185199,1,0,0,0,161,161,179,1,woestijn,images/br_woestijn.png,images/cb_woestijn.png,0,,,,,,,,,,,,,,,,,,,,,,
,,,,,00060,2023-10-13_19h27.34.315,vbt_B1_day4,2022.2.4,Win32,60.18295619,,,,,,down,0,0.0094,,0.198148162,-0.246296282,1,0,0,0,162,162,34,1,vorm,images/br_vorm.png,images/cb_vorm.png,0,,,,,,,,,,,,,,,,,,,,,,
,,,,,00060,2023-10-13_19h27.34.315,vbt_B1_day4,2022.2.4,Win32,60.18295619,,,,,,down,0,0.4873,,0.196296339,-0.24537037,1,0,0,0,163,163,79,1,nodig,images/br_nodig.png,images/cb_nodig.png,0,,,,,,,,,,,,,,,,,,,,,,
,,,,,00060,2023-10-13_19h27.34.315,vbt_B1_day4,2022.2.4,Win32,60.18295619,,,,,,down,0,7.5155,,0.191666709,-0.244444459,1,0,0,0,164,164,4,1,moes,images/br_moes.png,images/cb_moes.png,0,,,,,,,,,,,,,,,,,,,,,,
,,,,,00060,2023-10-13_19h27.34.315,vbt_B1_day4,2022.2.4,Win32,60.18295619,,,,,,down,0,0.1144,,0.19722225,-0.255555541,1,0,0,0,165,165,151,1,aanzoek,images/br_aanzoek.png,images/cb_aanzoek.png,0,,,,,,,,,,,,,,,,,,,,,,
,,,,,00060,2023-10-13_19h27.34.315,vbt_B1_day4,2022.2.4,Win32,60.18295619,,,,,,down,0,1.416,,0.192592621,-0.258333347,1,0,0,0,166,166,196,1,nakijken,images/br_nakijken.png,images/cb_nakijken.png,0,,,,,,,,,,,,,,,,,,,,,,
,,,,,00060,2023-10-13_19h27.34.315,vbt_B1_day4,2022.2.4,Win32,60.18295619,,,,,,down,0,2.5991,,0.200925968,-0.258333347,1,0,0,0,167,167,140,1,blijven,images/br_blijven.png,images/cb_blijven.png,0,,,,,,,,,,,,,,,,,,,,,,
,,,,,00060,2023-10-13_19h27.34.315,vbt_B1_day4,2022.2.4,Win32,60.18295619,,,,,,down,0,2.5321,,0.199999986,-0.256481524,1,0,0,0,168,168,102,1,legaal,images/br_legaal.png,images/cb_legaal.png,0,,,,,,,,,,,,,,,,,,,,,,
,,,,,00060,2023-10-13_19h27.34.315,vbt_B1_day4,2022.2.4,Win32,60.18295619,,,,,,down,0,0.5909,,0.198148162,-0.261111153,1,0,0,0,169,169,43,1,klauw,images/br_klauw.png,images/cb_klauw.png,0,,,,,,,,,,,,,,,,,,,,,,
,,,,,00060,2023-10-13_19h27.34.315,vbt_B1_day4,2022.2.4,Win32,60.18295619,,,,,,down,0,1.4176,,0.238888917,-0.212962963,1,0,0,0,170,170,24,1,jurk,images/br_jurk.png,images/cb_jurk.png,1,jurk,,,,,,,,,,,,,,,,,,,,,
,,,,,00060,2023-10-13_19h27.34.315,vbt_B1_day4,2022.2.4,Win32,60.18295619,,,,,,down,0,2.5474,,0.246296282,-0.199074074,1,0,0,0,171,171,65,1,parel,images/br_parel.png,images/cb_parel.png,1,parel,,,,,,,,,,,,,,,,,,,,,
,,,,,00060,2023-10-13_19h27.34.315,vbt_B1_day4,2022.2.4,Win32,60.18295619,,,,,,down,0,2.2746,,0.237963005,-0.209259245,1,0,0,0,172,172,158,1,innemen,images/br_innemen.png,images/cb_innemen.png,0,,,,,,,,,,,,,,,,,,,,,,
,,,,,00060,2023-10-13_19h27.34.315,vbt_B1_day4,2022.2.4,Win32,60.18295619,,,,,,down,0,3.506,,0.276851866,-0.217592593,1,0,0,0,173,173,107,1,maling,images/br_maling.png,images/cb_maling.png,1,maling,,,,,,,,,,,,,,,,,,,,,
,,,,,00060,2023-10-13_19h27.34.315,vbt_B1_day4,2022.2.4,Win32,60.18295619,,,,,,down,0,2.7424,,0.26944443,-0.212962963,1,0,0,0,174,174,111,1,ticket,images/br_ticket.png,images/cb_ticket.png,0,,,,,,,,,,,,,,,,,,,,,,
,,,,,00060,2023-10-13_19h27.34.315,vbt_B1_day4,2022.2.4,Win32,60.18295619,,,,,,down,0,3.7067,,0.367592564,-0.203703704,1,0,0,0,175,175,88,1,boeien,images/br_boeien.png,images/cb_boeien.png,0,,,,,,,,,,,,,,,,,,,,,,
,,,,,00060,2023-10-13_19h27.34.315,vbt_B1_day4,2022.2.4,Win32,60.18295619,,,,,,down,0,2.999,,0.346296381,-0.210185228,1,0,0,0,176,176,90,1,geluid,images/br_geluid.png,images/cb_geluid.png,0,,,,,,,,,,,,,,,,,,,,,,
,,,,,00060,2023-10-13_19h27.34.315,vbt_B1_day4,2022.2.4,Win32,60.18295619,,,,,,down,0,2.2534,,0.318518603,-0.222222222,1,0,0,0,177,177,183,1,getuigen,images/br_getuigen.png,images/cb_getuigen.png,0,,,,,,,,,,,,,,,,,,,,,,
,,,,,00060,2023-10-13_19h27.34.315,vbt_B1_day4,2022.2.4,Win32,60.18295619,,,,,,down,0,1.7017,,0.294444473,-0.220370399,1,0,0,0,178,178,154,1,aflopen,images/br_aflopen.png,images/cb_aflopen.png,0,,,,,,,,,,,,,,,,,,,,,,
,,,,,00060,2023-10-13_19h27.34.315,vbt_B1_day4,2022.2.4,Win32,60.18295619,,,,,,down,0,7.1001,,0.263888889,-0.224074116,1,0,0,0,179,179,141,1,knielen,images/br_knielen.png,images/cb_knielen.png,0,,,,,,,,,,,,,,,,,,,,,,
,,,,,00060,2023-10-13_19h27.34.315,vbt_B1_day4,2022.2.4,Win32,60.18295619,,,,,,down,0,0.3217,,0.227777764,-0.220370399,1,0,0,0,180,180,52,1,wagon,images/br_wagon.png,images/cb_wagon.png,0,,,,,,,,,,,,,,,,,,,,,,
,,,,,00060,2023-10-13_19h27.34.315,vbt_B1_day4,2022.2.4,Win32,60.18295619,,,,,,down,0,4.0358,,0.229629658,-0.168518561,1,0,0,0,181,181,143,1,hechten,images/br_hechten.png,images/cb_hechten.png,0,,,,,,,,,,,,,,,,,,,,,,
,,,,,00060,2023-10-13_19h27.34.315,vbt_B1_day4,2022.2.4,Win32,60.18295619,,,,,,down,0,1.1191,,0.214814857,-0.095370399,1,0,0,0,182,182,159,1,sufferd,images/br_sufferd.png,images/cb_sufferd.png,0,,,,,,,,,,,,,,,,,,,,,,
,,,,,00060,2023-10-13_19h27.34.315,vbt_B1_day4,2022.2.4,Win32,60.18295619,,,,,,down,0,1.1549,,0.214814857,-0.095370399,1,0,0,0,183,183,108,1,excuus,images/br_excuus.png,images/cb_excuus.png,0,,,,,,,,,,,,,,,,,,,,,,
,,,,,00060,2023-10-13_19h27.34.315,vbt_B1_day4,2022.2.4,Win32,60.18295619,,,,,,down,0,7.2027,,0.247222265,-0.117592635,1,0,0,0,184,184,92,1,geheim,images/br_geheim.png,images/cb_geheim.png,0,,,,,,,,,,,,,,,,,,,,,,
,,,,,00060,2023-10-13_19h27.34.315,vbt_B1_day4,2022.2.4,Win32,60.18295619,,,,,,down,0,0.8338,,0.25462963,-0.121296282,1,0,0,0,185,185,191,1,opheffen,images/br_opheffen.png,images/cb_opheffen.png,0,,,,,,,,,,,,,,,,,,,,,,
,,,,,00060,2023-10-13_19h27.34.315,vbt_B1_day4,2022.2.4,Win32,60.18295619,,,,,,down,0,0.2714,,0.266666695,-0.127777806,1,0,0,0,186,186,124,1,bloeien,images/br_bloeien.png,images/cb_bloeien.png,0,,,,,,,,,,,,,,,,,,,,,,
,,,,,00060,2023-10-13_19h27.34.315,vbt_B1_day4,2022.2.4,Win32,60.18295619,,,,,,down,0,2.705,,0.25462963,-0.157407407,1,0,0,0,187,187,182,1,bijkomen,images/br_bijkomen.png,images/cb_bijkomen.png,0,,,,,,,,,,,,,,,,,,,,,,
,,,,,00060,2023-10-13_19h27.34.315,vbt_B1_day4,2022.2.4,Win32,60.18295619,,,,,,down,0,0.3852,,0.272222236,-0.175925926,1,0,0,0,188,188,48,1,steel,images/br_steel.png,images/cb_steel.png,0,,,,,,,,,,,,,,,,,,,,,,
,,,,,00060,2023-10-13_19h27.34.315,vbt_B1_day4,2022.2.4,Win32,60.18295619,,,,,,down,0,3.2914,,0.295370384,-0.175925926,1,0,0,0,189,189,27,1,dans,images/br_dans.png,images/cb_dans.png,1,dans,,,,,,,,,,,,,,,,,,,,,
,,,,,00060,2023-10-13_19h27.34.315,vbt_B1_day4,2022.2.4,Win32,60.18295619,,,,,,down,0,0.1045,,0.267592607,-0.162962949,1,0,0,0,190,190,42,1,bleek,images/br_bleek.png,images/cb_bleek.png,0,,,,,,,,,,,,,,,,,,,,,,
,,,,,00060,2023-10-13_19h27.34.315,vbt_B1_day4,2022.2.4,Win32,60.18295619,,,,,,down,0,0.6381,,0.266666695,-0.155555584,1,0,0,0,191,191,120,1,klimmen,images/br_klimmen.png,images/cb_klimmen.png,0,,,,,,,,,,,,,,,,,,,,,,
,,,,,00060,2023-10-13_19h27.34.315,vbt_B1_day4,2022.2.4,Win32,60.18295619,,,,,,down,0,0.2663,,0.266666695,-0.156481496,1,0,0,0,192,192,84,1,lokken,images/br_lokken.png,images/cb_lokken.png,0,,,,,,,,,,,,,,,,,,,,,,
,,,,,00060,2023-10-13_19h27.34.315,vbt_B1_day4,2022.2.4,Win32,60.18295619,,,,,,down,0,0.7895,,0.239814829,-0.154629672,1,0,0,0,193,193,45,1,piste,images/br_piste.png,images/cb_piste.png,0,,,,,,,,,,,,,,,,,,,,,,
,,,,,00060,2023-10-13_19h27.34.315,vbt_B1_day4,2022.2.4,Win32,60.18295619,,,,,,down,0,0.2332,,0.23055557,-0.150000042,1,0,0,0,194,194,38,1,baai,images/br_baai.png,images/cb_baai.png,0,,,,,,,,,,,,,,,,,,,,,,
,,,,,00060,2023-10-13_19h27.34.315,vbt_B1_day4,2022.2.4,Win32,60.18295619,,,,,,down,0,1.2685,,0.191666709,-0.163888931,1,0,0,0,195,195,149,1,redding,images/br_redding.png,images/cb_redding.png,0,,,,,,,,,,,,,,,,,,,,,,
,,,,,00060,2023-10-13_19h27.34.315,vbt_B1_day4,2022.2.4,Win32,60.18295619,,,,,,down,0,1.6641,,0.191666709,-0.167592578,1,0,0,0,196,196,175,1,heengaan,images/br_heengaan.png,images/cb_heengaan.png,0,,,,,,,,,,,,,,,,,,,,,,
,,,,,00060,2023-10-13_19h27.34.315,vbt_B1_day4,2022.2.4,Win32,60.18295619,,,,,,down,0,0.3162,,0.191666709,-0.169444473,1,0,0,0,197,197,78,1,leren,images/br_leren.png,images/cb_leren.png,0,,,,,,,,,,,,,,,,,,,,,,
,,,,,00060,2023-10-13_19h27.34.315,vbt_B1_day4,2022.2.4,Win32,60.18295619,,,,,,down,0,0.2663,,0.237037023,-0.158333319,1,0,0,0,198,198,20,1,site,images/br_site.png,images/cb_site.png,0,,,,,,,,,,,,,,,,,,,,,,
,,,,,00060,2023-10-13_19h27.34.315,vbt_B1_day4,2022.2.4,Win32,60.18295619,,,,,,down,0,0.2363,,0.237037023,-0.158333319,1,0,0,0,199,199,59,1,kring,images/br_kring.png,images/cb_kring.png,0,,,,,,,,,,,,,,,,,,,,,,
,,,,,00060,2023-10-13_19h27.34.315,vbt_B1_day4,2022.2.4,Win32,60.18295619,,,,,,,,,,,,,,,,,,,,,,,,,0.393518519,-0.166666667,1,0,0,,,,,,,,,,,,,,,,
,,,,,00060,2023-10-13_19h27.34.315,vbt_B1_day4,2022.2.4,Win32,60.18295619,,,,,,,,,,,,,,,,,,,,,,,,,,,,,,0.36018527,-0.102777764,1,0,0,,,,,,,,,,,
,,,,,00060,2023-10-13_19h27.34.315,vbt_B1_day4,2022.2.4,Win32,60.18295619,,,,,,,,,,,,,,,,,,,,apparaat,images/br_apparaat.png,images/cb_apparaat.png,,apparaat,,,,,,,,,,,0.263888889,-0.072222215,1,0,0,apparaat,0,0,0,17,1
,,,,,00060,2023-10-13_19h27.34.315,vbt_B1_day4,2022.2.4,Win32,60.18295619,,,,,,,,,,,,,,,,,,,,gedicht,images/br_gedicht.png,images/cb_gedicht.png,,gedicht,,,,,,,,,,,0.350000028,-0.065740762,1,0,0,gedicht,0,1,1,15,1
,,,,,00060,2023-10-13_19h27.34.315,vbt_B1_day4,2022.2.4,Win32,60.18295619,,,,,,,,,,,,,,,,,,,,eerst,images/br_eerst.png,images/cb_eerst.png,,eerst,,,,,,,,,,,0.260185171,-0.053703697,1,0,0,eerst,0,2,2,47,1
,,,,,00060,2023-10-13_19h27.34.315,vbt_B1_day4,2022.2.4,Win32,60.18295619,,,,,,,,,,,,,,,,,,,,grappen,images/br_grappen.png,images/cb_grappen.png,,grappen,,,,,,,,,,,0.323148233,-0.091666681,1,0,0,grappen,0,3,3,12,1
,,,,,00060,2023-10-13_19h27.34.315,vbt_B1_day4,2022.2.4,Win32,60.18295619,,,,,,,,,,,,,,,,,,,,zaalrijk,images/br_zaalrijk.png,images/cb_zaalrijk.png,,zaalrijk,,,,,,,,,,,0.244444459,-0.036111125,1,0,0,zaalrijk,0,4,4,37,1
,,,,,00060,2023-10-13_19h27.34.315,vbt_B1_day4,2022.2.4,Win32,60.18295619,,,,,,,,,,,,,,,,,,,,midden,images/br_midden.png,images/cb_midden.png,,midden,,,,,,,,,,,0.285185213,-0.057407414,1,0,0,midden,0,5,5,50,1
,,,,,00060,2023-10-13_19h27.34.315,vbt_B1_day4,2022.2.4,Win32,60.18295619,,,,,,,,,,,,,,,,,,,,dalen,images/br_dalen.png,images/cb_dalen.png,,dalen,,,,,,,,,,,0.304629714,-0.035185178,1,0,0,dalen,0,6,6,46,1
,,,,,00060,2023-10-13_19h27.34.315,vbt_B1_day4,2022.2.4,Win32,60.18295619,,,,,,,,,,,,,,,,,,,,soda,images/br_soda.png,images/cb_soda.png,,soda,,,,,,,,,,,0.226851852,-0.045370384,1,0,0,soda,0,7,7,3,1
,,,,,00060,2023-10-13_19h27.34.315,vbt_B1_day4,2022.2.4,Win32,60.18295619,,,,,,,,,,,,,,,,,,,,sulbon,images/br_sulbon.png,images/cb_sulbon.png,,sulbon,,,,,,,,,,,0.085185228,-0.063888903,1,0,0,sulbon,0,8,8,31,1
,,,,,00060,2023-10-13_19h27.34.315,vbt_B1_day4,2022.2.4,Win32,60.18295619,,,,,,,,,,,,,,,,,,,,waarop,images/br_waarop.png,images/cb_waarop.png,,waarop,,,,,,,,,,,0.310185185,-0.101851852,1,0,0,waarop,0,9,9,9,1
,,,,,00060,2023-10-13_19h27.34.315,vbt_B1_day4,2022.2.4,Win32,60.18295619,,,,,,,,,,,,,,,,,,,,gaaf,images/br_gaaf.png,images/cb_gaaf.png,,gaaf,,,,,,,,,,,0.295370384,-0.103703746,1,0,0,gaaf,0,10,10,43,1
,,,,,00060,2023-10-13_19h27.34.315,vbt_B1_day4,2022.2.4,Win32,60.18295619,,,,,,,,,,,,,,,,,,,,haza,images/br_haza.png,images/cb_haza.png,,hazr,,,,,,,,,,,0.220370399,-0.078703704,1,0,0,hazr,0,11,11,21,1
,,,,,00060,2023-10-13_19h27.34.315,vbt_B1_day4,2022.2.4,Win32,60.18295619,,,,,,,,,,,,,,,,,,,,schotel,images/br_schotel.png,images/cb_schotel.png,,schotel,,,,,,,,,,,0.399074131,-0.061111132,1,0,0,schotel,0,12,12,52,1
,,,,,00060,2023-10-13_19h27.34.315,vbt_B1_day4,2022.2.4,Win32,60.18295619,,,,,,,,,,,,,,,,,,,,kust,images/br_kust.png,images/cb_kust.png,,kust,,,,,,,,,,,0.316666638,-0.08425928,1,0,0,kust,0,13,13,0,1
,,,,,00060,2023-10-13_19h27.34.315,vbt_B1_day4,2022.2.4,Win32,60.18295619,,,,,,,,,,,,,,,,,,,,stemming,images/br_stemming.png,images/cb_stemming.png,,stemming,,,,,,,,,,,0.350000028,-0.100000028,1,0,0,stemming,0,14,14,18,1
,,,,,00060,2023-10-13_19h27.34.315,vbt_B1_day4,2022.2.4,Win32,60.18295619,,,,,,,,,,,,,,,,,,,,lappen,images/br_lappen.png,images/cb_lappen.png,,lappen,,,,,,,,,,,0.318518603,-0.094444487,1,0,0,lappen,0,15,15,49,1
,,,,,00060,2023-10-13_19h27.34.315,vbt_B1_day4,2022.2.4,Win32,60.18295619,,,,,,,,,,,,,,,,,,,,mekst,images/br_mekst.png,images/cb_mekst.png,,mekst,,,,,,,,,,,0.292592578,-0.09629631,1,0,0,mekst,0,16,16,27,1
,,,,,00060,2023-10-13_19h27.34.315,vbt_B1_day4,2022.2.4,Win32,60.18295619,,,,,,,,,,,,,,,,,,,,broodje,images/br_broodje.png,images/cb_broodje.png,,broodje,,,,,,,,,,,0.320370427,-0.109259288,1,0,0,broodje,0,17,17,55,1
,,,,,00060,2023-10-13_19h27.34.315,vbt_B1_day4,2022.2.4,Win32,60.18295619,,,,,,,,,,,,,,,,,,,,rijp,images/br_rijp.png,images/cb_rijp.png,,rijp,,,,,,,,,,,0.27870369,-0.141666695,1,0,0,rijp,0,18,18,2,1
,,,,,00060,2023-10-13_19h27.34.315,vbt_B1_day4,2022.2.4,Win32,60.18295619,,,,,,,,,,,,,,,,,,,,bruin,images/br_bruin.png,images/cb_bruin.png,,bruin,,,,,,,,,,,0.273148148,-0.156481496,1,0,0,bruin,0,19,19,45,1
,,,,,00060,2023-10-13_19h27.34.315,vbt_B1_day4,2022.2.4,Win32,60.18295619,,,,,,,,,,,,,,,,,,,,getucht,images/br_getucht.png,images/cb_getucht.png,,getuiht,,,,,,,,,,,0.33148151,-0.145370413,1,0,0,getuiht,0,20,20,35,1
,,,,,00060,2023-10-13_19h27.34.315,vbt_B1_day4,2022.2.4,Win32,60.18295619,,,,,,,,,,,,,,,,,,,,aanzwaag,images/br_aanzwaag.png,images/cb_aanzwaag.png,,aanzwaag,,,,,,,,,,,0.27870369,-0.137037065,1,0,0,aanzwaag,0,21,21,38,1
,,,,,00060,2023-10-13_19h27.34.315,vbt_B1_day4,2022.2.4,Win32,60.18295619,,,,,,,,,,,,,,,,,,,,tucket,images/br_tucket.png,images/cb_tucket.png,,tucket,,,,,,,,,,,0.449074074,-0.099074116,1,0,0,tucket,0,22,22,30,1
,,,,,00060,2023-10-13_19h27.34.315,vbt_B1_day4,2022.2.4,Win32,60.18295619,,,,,,,,,,,,,,,,,,,,geliefd,images/br_geliefd.png,images/cb_geliefd.png,,geliefd,,,,,,,,,,,0.453703704,-0.10092594,1,0,0,geliefd,0,23,23,14,1
,,,,,00060,2023-10-13_19h27.34.315,vbt_B1_day4,2022.2.4,Win32,60.18295619,,,,,,,,,,,,,,,,,,,,steen,images/br_steen.png,images/cb_steen.png,,steen,,,,,,,,,,,0.347222222,-0.123148176,1,0,0,steen,0,24,24,44,1
,,,,,00060,2023-10-13_19h27.34.315,vbt_B1_day4,2022.2.4,Win32,60.18295619,,,,,,,,,,,,,,,,,,,,gebit,images/br_gebit.png,images/cb_gebit.png,,gebit,,,,,,,,,,,0.338888945,-0.104629658,1,0,0,gebit,0,25,25,6,1
,,,,,00060,2023-10-13_19h27.34.315,vbt_B1_day4,2022.2.4,Win32,60.18295619,,,,,,,,,,,,,,,,,,,,opkicht,images/br_opkicht.png,images/cb_opkicht.png,,opkicht,,,,,,,,,,,0.450925898,-0.070370392,1,0,0,opkicht,0,26,26,34,1
,,,,,00060,2023-10-13_19h27.34.315,vbt_B1_day4,2022.2.4,Win32,60.18295619,,,,,,,,,,,,,,,,,,,,zwek,images/br_zwek.png,images/cb_zwek.png,,zwek,,,,,,,,,,,0.443518603,-0.063888903,1,0,0,zwek,0,27,27,20,1
,,,,,00060,2023-10-13_19h27.34.315,vbt_B1_day4,2022.2.4,Win32,60.18295619,,,,,,,,,,,,,,,,,,,,drooien,images/br_drooien.png,images/cb_drooien.png,,drooien,,,,,,,,,,,0.419444473,-0.057407414,1,0,0,drooien,0,28,28,32,1
,,,,,00060,2023-10-13_19h27.34.315,vbt_B1_day4,2022.2.4,Win32,60.18295619,,,,,,,,,,,,,,,,,,,,wagon,images/br_wagon.png,images/cb_wagon.png,,wagen,,,,,,,,,,,0.389814871,-0.08888891,1,0,0,wagen,0,29,29,4,1
,,,,,00060,2023-10-13_19h27.34.315,vbt_B1_day4,2022.2.4,Win32,60.18295619,,,,,,,,,,,,,,,,,,,,bisschap,images/br_bisschap.png,images/cb_bisschap.png,,bisschop,,,,,,,,,,,0.407407407,-0.076851845,1,0,0,bisschop,0,30,30,36,1
,,,,,00060,2023-10-13_19h27.34.315,vbt_B1_day4,2022.2.4,Win32,60.18295619,,,,,,,,,,,,,,,,,,,,dozijn,images/br_dozijn.png,images/cb_dozijn.png,,dozijn,,,,,,,,,,,0.399074131,-0.124074088,1,0,0,dozijn,0,31,31,48,1
,,,,,00060,2023-10-13_19h27.34.315,vbt_B1_day4,2022.2.4,Win32,60.18295619,,,,,,,,,,,,,,,,,,,,baron,images/br_baron.png,images/cb_baron.png,,baron,,,,,,,,,,,0.400925954,-0.112037023,1,0,0,baron,0,32,32,5,1
,,,,,00060,2023-10-13_19h27.34.315,vbt_B1_day4,2022.2.4,Win32,60.18295619,,,,,,,,,,,,,,,,,,,,flippen,images/br_flippen.png,images/cb_flippen.png,,flippen,,,,,,,,,,,0.362037094,-0.116666653,1,0,0,flippen,0,33,33,54,1
,,,,,00060,2023-10-13_19h27.34.315,vbt_B1_day4,2022.2.4,Win32,60.18295619,,,,,,,,,,,,,,,,,,,,pijnlijk,images/br_pijnlijk.png,images/cb_pijnlijk.png,,vijnlijk,,,,,,,,,,,0.392592677,-0.125,1,0,0,vijnlijk,0,34,34,58,1
,,,,,00060,2023-10-13_19h27.34.315,vbt_B1_day4,2022.2.4,Win32,60.18295619,,,,,,,,,,,,,,,,,,,,seizoon,images/br_seizoon.png,images/cb_seizoon.png,,seizoon,,,,,,,,,,,0.411111196,-0.10092594,1,0,0,seizoon,0,35,35,33,1
,,,,,00060,2023-10-13_19h27.34.315,vbt_B1_day4,2022.2.4,Win32,60.18295619,,,,,,,,,,,,,,,,,,,,opruimen,images/br_opruimen.png,images/cb_opruimen.png,,opruimen,,,,,,,,,,,0.391666695,-0.089814822,1,0,0,opruimen,0,36,36,59,1
,,,,,00060,2023-10-13_19h27.34.315,vbt_B1_day4,2022.2.4,Win32,60.18295619,,,,,,,,,,,,,,,,,,,,snee,images/br_snee.png,images/cb_snee.png,,snee,,,,,,,,,,,0.397222307,-0.083333333,1,0,0,snee,0,37,37,40,1
,,,,,00060,2023-10-13_19h27.34.315,vbt_B1_day4,2022.2.4,Win32,60.18295619,,,,,,,,,,,,,,,,,,,,vreten,images/br_vreten.png,images/cb_vreten.png,,vreten,,,,,,,,,,,0.407407407,-0.063888903,1,0,0,vreten,0,38,38,11,1
,,,,,00060,2023-10-13_19h27.34.315,vbt_B1_day4,2022.2.4,Win32,60.18295619,,,,,,,,,,,,,,,,,,,,geheim,images/br_geheim.png,images/cb_geheim.png,,geheim,,,,,,,,,,,0.414814843,-0.092592593,1,0,0,geheim,0,39,39,8,1
,,,,,00060,2023-10-13_19h27.34.315,vbt_B1_day4,2022.2.4,Win32,60.18295619,,,,,,,,,,,,,,,,,,,,gijf,images/br_gijf.png,images/cb_gijf.png,,gijf,,,,,,,,,,,0.3648149,-0.10555557,1,0,0,gijf,0,40,40,23,1
,,,,,00060,2023-10-13_19h27.34.315,vbt_B1_day4,2022.2.4,Win32,60.18295619,,,,,,,,,,,,,,,,,,,,strok,images/br_strok.png,images/cb_strok.png,,strak,,,,,,,,,,,0.366666723,-0.100000028,1,0,0,strak,0,41,41,25,1
,,,,,00060,2023-10-13_19h27.34.315,vbt_B1_day4,2022.2.4,Win32,60.18295619,,,,,,,,,,,,,,,,,,,,oceaan,images/br_oceaan.png,images/cb_oceaan.png,,oceaan,,,,,,,,,,,0.345370399,-0.138888889,1,0,0,oceaan,0,42,42,10,1
,,,,,00060,2023-10-13_19h27.34.315,vbt_B1_day4,2022.2.4,Win32,60.18295619,,,,,,,,,,,,,,,,,,,,kaal,images/br_kaal.png,images/cb_kaal.png,,kaal,,,,,,,,,,,0.350000028,-0.125925912,1,0,0,kaal,0,43,43,1,1
,,,,,00060,2023-10-13_19h27.34.315,vbt_B1_day4,2022.2.4,Win32,60.18295619,,,,,,,,,,,,,,,,,,,,paalbaak,images/br_paalbaak.png,images/cb_paalbaak.png,,paalbaak,,,,,,,,,,,0.338888945,-0.106481481,1,0,0,paalbaak,0,44,44,39,1
,,,,,00060,2023-10-13_19h27.34.315,vbt_B1_day4,2022.2.4,Win32,60.18295619,,,,,,,,,,,,,,,,,,,,gaan,images/br_gaan.png,images/cb_gaan.png,,gaan,,,,,,,,,,,0.362962935,-0.075000021,1,0,0,gaan,0,45,45,41,1
,,,,,00060,2023-10-13_19h27.34.315,vbt_B1_day4,2022.2.4,Win32,60.18295619,,,,,,,,,,,,,,,,,,,,drummer,images/br_drummer.png,images/cb_drummer.png,,drummea,,,,,,,,,,,0.407407407,-0.134259259,1,0,0,drummea,0,46,46,53,1
,,,,,00060,2023-10-13_19h27.34.315,vbt_B1_day4,2022.2.4,Win32,60.18295619,,,,,,,,,,,,,,,,,,,,pittig,images/br_pittig.png,images/cb_pittig.png,,pittig,,,,,,,,,,,0.353703675,-0.124074088,1,0,0,pittig,0,47,47,51,1
,,,,,00060,2023-10-13_19h27.34.315,vbt_B1_day4,2022.2.4,Win32,60.18295619,,,,,,,,,,,,,,,,,,,,fran,images/br_fran.png,images/cb_fran.png,,fran,,,,,,,,,,,0.325925898,-0.116666653,1,0,0,fran,0,48,48,22,1
,,,,,00060,2023-10-13_19h27.34.315,vbt_B1_day4,2022.2.4,Win32,60.18295619,,,,,,,,,,,,,,,,,,,,heengaan,images/br_heengaan.png,images/cb_heengaan.png,,heengaan,,,,,,,,,,,0.356481481,-0.114814829,1,0,0,heengaan,0,49,49,19,1
,,,,,00060,2023-10-13_19h27.34.315,vbt_B1_day4,2022.2.4,Win32,60.18295619,,,,,,,,,,,,,,,,,,,,weigeren,images/br_weigeren.png,images/cb_weigeren.png,,weigeren,,,,,,,,,,,0.341666751,-0.121296282,1,0,0,weigeren,0,50,50,16,1
,,,,,00060,2023-10-13_19h27.34.315,vbt_B1_day4,2022.2.4,Win32,60.18295619,,,,,,,,,,,,,,,,,,,,ezel,images/br_ezel.png,images/cb_ezel.png,,ezel,,,,,,,,,,,0.320370427,-0.112037023,1,0,0,ezel,0,51,51,42,1
,,,,,00060,2023-10-13_19h27.34.315,vbt_B1_day4,2022.2.4,Win32,60.18295619,,,,,,,,,,,,,,,,,,,,seizoen,images/br_seizoen.png,images/cb_seizoen.png,,seizoen,,,,,,,,,,,0.344444416,-0.097222222,1,0,0,seizoen,0,52,52,13,1
,,,,,00060,2023-10-13_19h27.34.315,vbt_B1_day4,2022.2.4,Win32,60.18295619,,,,,,,,,,,,,,,,,,,,wozing,images/br_wozing.png,images/cb_wozing.png,,wozing,,,,,,,,,,,0.343518575,-0.117592635,1,0,0,wozing,0,53,53,28,1
,,,,,00060,2023-10-13_19h27.34.315,vbt_B1_day4,2022.2.4,Win32,60.18295619,,,,,,,,,,,,,,,,,,,,gebog,images/br_gebog.png,images/cb_gebog.png,,gebog,,,,,,,,,,,0.339814787,-0.094444487,1,0,0,gebog,0,54,54,24,1
,,,,,00060,2023-10-13_19h27.34.315,vbt_B1_day4,2022.2.4,Win32,60.18295619,,,,,,,,,,,,,,,,,,,,noodzaak,images/br_noodzaak.png,images/cb_noodzaak.png,,noodzaak,,,,,,,,,,,0.346296381,-0.150000042,1,0,0,noodzaak,0,55,55,56,1
,,,,,00060,2023-10-13_19h27.34.315,vbt_B1_day4,2022.2.4,Win32,60.18295619,,,,,,,,,,,,,,,,,,,,toevol,images/br_toevol.png,images/cb_toevol.png,,toevol,,,,,,,,,,,0.476851852,-0.126851894,1,0,0,toevol,0,56,56,29,1
,,,,,00060,2023-10-13_19h27.34.315,vbt_B1_day4,2022.2.4,Win32,60.18295619,,,,,,,,,,,,,,,,,,,,praat,images/br_praat.png,images/cb_praat.png,,praat,,,,,,,,,,,0.460185157,-0.115740741,1,0,0,praat,0,57,57,7,1
,,,,,00060,2023-10-13_19h27.34.315,vbt_B1_day4,2022.2.4,Win32,60.18295619,,,,,,,,,,,,,,,,,,,,schenden,images/br_schenden.png,images/cb_schenden.png,,schenden,,,,,,,,,,,0.399999972,-0.123148176,1,0,0,schenden,0,58,58,57,1
,,,,,00060,2023-10-13_19h27.34.315,vbt_B1_day4,2022.2.4,Win32,60.18295619,,,,,,,,,,,,,,,,,,,,warel,images/br_warel.png,images/cb_warel.png,,warel,,,,,,,,,,,0.380555612,-0.102777764,1,0,0,warel,0,59,59,26,1
,,,,,00060,2023-10-13_19h27.34.315,vbt_B1_day4,2022.2.4,Win32,60.18295619,,,,,,,,,,,,,,,,,,,,,,,,,,,,,,,,,,,,,,,,,,,,,
