welcome_mouse.x,welcome_mouse.y,welcome_mouse.leftButton,welcome_mouse.midButton,welcome_mouse.rightButton,"ID",date,expName,psychopyVersion,OS,frameRate,trainInstr_mouse.x,trainInstr_mouse.y,trainInstr_mouse.leftButton,trainInstr_mouse.midButton,trainInstr_mouse.rightButton,translation_key.keys,translation_key.corr,translation_key.rt,word_rsp.text,trWrd_mouse.x,trWrd_mouse.y,trWrd_mouse.leftButton,trWrd_mouse.midButton,trWrd_mouse.rightButton,train_loop.thisRepN,train_loop.thisTrialN,train_loop.thisN,train_loop.thisIndex,train_loop.ran,nlWrd,brWrd,cbWrd,test,testResp,mouse.x,mouse.y,mouse.leftButton,mouse.midButton,mouse.rightButton,testInstr_mouse.x,testInstr_mouse.y,testInstr_mouse.leftButton,testInstr_mouse.midButton,testInstr_mouse.rightButton,test_mouse.x,test_mouse.y,test_mouse.leftButton,test_mouse.midButton,test_mouse.rightButton,test_response.text,test_loop.thisRepN,test_loop.thisTrialN,test_loop.thisN,test_loop.thisIndex,test_loop.ran
-0.006666667,-0.183333333,1,0,0,00089,2023-10-27_15h36.28.489,vbt_B1_day4,2022.2.4,MacIntel,58.82352941,,,,,,,,,,,,,,,,,,,,,,,,,,,,,,,,,,,,,,,,,,,,,
,,,,,00089,2023-10-27_15h36.28.489,vbt_B1_day4,2022.2.4,MacIntel,58.82352941,-0.003333333,-0.158888889,1,0,0,,,,,,,,,,,,,,,,,,,,,,,,,,,,,,,,,,,,,,,,
,,,,,00089,2023-10-27_15h36.28.489,vbt_B1_day4,2022.2.4,MacIntel,58.82352941,,,,,,down,0,2.342,,-0.003333333,-0.158888889,1,0,0,0,0,0,117,1,kennis,images/br_kennis.png,images/cb_kennis.png,0,,,,,,,,,,,,,,,,,,,,,,
,,,,,00089,2023-10-27_15h36.28.489,vbt_B1_day4,2022.2.4,MacIntel,58.82352941,,,,,,down,0,2.6,,-0.004444444,-0.161111111,1,0,0,0,1,1,71,1,bever,images/br_bever.png,images/cb_bever.png,0,,,,,,,,,,,,,,,,,,,,,,
,,,,,00089,2023-10-27_15h36.28.489,vbt_B1_day4,2022.2.4,MacIntel,58.82352941,,,,,,down,0,3.551,,0.051111111,-0.143333333,1,0,0,0,2,2,25,1,plek,images/br_plek.png,images/cb_plek.png,1,plek,,,,,,,,,,,,,,,,,,,,,
,,,,,00089,2023-10-27_15h36.28.489,vbt_B1_day4,2022.2.4,MacIntel,58.82352941,,,,,,down,0,4.934,,0.046666667,-0.14,1,0,0,0,3,3,126,1,kasteel,images/br_kasteel.png,images/cb_kasteel.png,0,,,,,,,,,,,,,,,,,,,,,,
,,,,,00089,2023-10-27_15h36.28.489,vbt_B1_day4,2022.2.4,MacIntel,58.82352941,,,,,,down,0,14.585,,0.061111111,-0.14,1,0,0,0,4,4,70,1,ijdel,images/br_ijdel.png,images/cb_ijdel.png,0,,,,,,,,,,,,,,,,,,,,,,
,,,,,00089,2023-10-27_15h36.28.489,vbt_B1_day4,2022.2.4,MacIntel,58.82352941,,,,,,down,0,3.417,,0.065555556,-0.137777778,1,0,0,0,5,5,110,1,zuster,images/br_zuster.png,images/cb_zuster.png,0,,,,,,,,,,,,,,,,,,,,,,
,,,,,00089,2023-10-27_15h36.28.489,vbt_B1_day4,2022.2.4,MacIntel,58.82352941,,,,,,down,0,9.423,,0.031111111,-0.141111111,1,0,0,0,6,6,115,1,kleren,images/br_kleren.png,images/cb_kleren.png,0,,,,,,,,,,,,,,,,,,,,,,
,,,,,00089,2023-10-27_15h36.28.489,vbt_B1_day4,2022.2.4,MacIntel,58.82352941,,,,,,down,0,1.334,,0.031111111,-0.142222222,1,0,0,0,7,7,116,1,besmet,images/br_besmet.png,images/cb_besmet.png,0,,,,,,,,,,,,,,,,,,,,,,
,,,,,00089,2023-10-27_15h36.28.489,vbt_B1_day4,2022.2.4,MacIntel,58.82352941,,,,,,down,0,2.837,,0.03,-0.142222222,1,0,0,0,8,8,58,1,tekst,images/br_tekst.png,images/cb_tekst.png,0,,,,,,,,,,,,,,,,,,,,,,
,,,,,00089,2023-10-27_15h36.28.489,vbt_B1_day4,2022.2.4,MacIntel,58.82352941,,,,,,down,0,0.87,,0.03,-0.142222222,1,0,0,0,9,9,171,1,aarzelen,images/br_aarzelen.png,images/cb_aarzelen.png,0,,,,,,,,,,,,,,,,,,,,,,
,,,,,00089,2023-10-27_15h36.28.489,vbt_B1_day4,2022.2.4,MacIntel,58.82352941,,,,,,down,0,1.403,,0.032222222,-0.144444444,1,0,0,0,10,10,1,1,zaal,images/br_zaal.png,images/cb_zaal.png,0,,,,,,,,,,,,,,,,,,,,,,
,,,,,00089,2023-10-27_15h36.28.489,vbt_B1_day4,2022.2.4,MacIntel,58.82352941,,,,,,down,0,0.584,,0.032222222,-0.145555556,1,0,0,0,11,11,112,1,lukken,images/br_lukken.png,images/cb_lukken.png,0,,,,,,,,,,,,,,,,,,,,,,
,,,,,00089,2023-10-27_15h36.28.489,vbt_B1_day4,2022.2.4,MacIntel,58.82352941,,,,,,down,0,1.322,,0.032222222,-0.145555556,1,0,0,0,12,12,20,1,site,images/br_site.png,images/cb_site.png,0,,,,,,,,,,,,,,,,,,,,,,
,,,,,00089,2023-10-27_15h36.28.489,vbt_B1_day4,2022.2.4,MacIntel,58.82352941,,,,,,down,0,7.767,,0.032222222,-0.145555556,1,0,0,0,13,13,194,1,driemaal,images/br_driemaal.png,images/cb_driemaal.png,0,,,,,,,,,,,,,,,,,,,,,,
,,,,,00089,2023-10-27_15h36.28.489,vbt_B1_day4,2022.2.4,MacIntel,58.82352941,,,,,,down,0,2.652,,0.032222222,-0.145555556,1,0,0,0,14,14,2,1,jaar,images/br_jaar.png,images/cb_jaar.png,0,,,,,,,,,,,,,,,,,,,,,,
,,,,,00089,2023-10-27_15h36.28.489,vbt_B1_day4,2022.2.4,MacIntel,58.82352941,,,,,,down,0,6.918,,0.143333333,-0.068888889,1,0,0,0,15,15,40,1,schep,images/br_schep.png,images/cb_schep.png,0,,,,,,,,,,,,,,,,,,,,,,
,,,,,00089,2023-10-27_15h36.28.489,vbt_B1_day4,2022.2.4,MacIntel,58.82352941,,,,,,down,0,29.334,,0.143333333,-0.068888889,1,0,0,0,16,16,72,1,strak,images/br_strak.png,images/cb_strak.png,0,,,,,,,,,,,,,,,,,,,,,,
,,,,,00089,2023-10-27_15h36.28.489,vbt_B1_day4,2022.2.4,MacIntel,58.82352941,,,,,,down,0,2.036,,0.143333333,-0.068888889,1,0,0,0,17,17,61,1,groen,images/br_groen.png,images/cb_groen.png,0,,,,,,,,,,,,,,,,,,,,,,
,,,,,00089,2023-10-27_15h36.28.489,vbt_B1_day4,2022.2.4,MacIntel,58.82352941,,,,,,down,0,1.701,,0.143333333,-0.068888889,1,0,0,0,18,18,141,1,knielen,images/br_knielen.png,images/cb_knielen.png,0,,,,,,,,,,,,,,,,,,,,,,
,,,,,00089,2023-10-27_15h36.28.489,vbt_B1_day4,2022.2.4,MacIntel,58.82352941,,,,,,down,0,0.568,,0.143333333,-0.068888889,1,0,0,0,19,19,102,1,legaal,images/br_legaal.png,images/cb_legaal.png,0,,,,,,,,,,,,,,,,,,,,,,
,,,,,00089,2023-10-27_15h36.28.489,vbt_B1_day4,2022.2.4,MacIntel,58.82352941,,,,,,down,0,9.669,,0.143333333,-0.068888889,1,0,0,0,20,20,179,1,woestijn,images/br_woestijn.png,images/cb_woestijn.png,0,,,,,,,,,,,,,,,,,,,,,,
,,,,,00089,2023-10-27_15h36.28.489,vbt_B1_day4,2022.2.4,MacIntel,58.82352941,,,,,,down,0,2.541,,0.143333333,-0.068888889,1,0,0,0,21,21,69,1,waken,images/br_waken.png,images/cb_waken.png,0,,,,,,,,,,,,,,,,,,,,,,
,,,,,00089,2023-10-27_15h36.28.489,vbt_B1_day4,2022.2.4,MacIntel,58.82352941,,,,,,down,0,0.868,,0.143333333,-0.068888889,1,0,0,0,22,22,35,1,lust,images/br_lust.png,images/cb_lust.png,0,,,,,,,,,,,,,,,,,,,,,,
,,,,,00089,2023-10-27_15h36.28.489,vbt_B1_day4,2022.2.4,MacIntel,58.82352941,,,,,,down,0,0.649,,0.143333333,-0.068888889,1,0,0,0,23,23,53,1,baron,images/br_baron.png,images/cb_baron.png,0,,,,,,,,,,,,,,,,,,,,,,
,,,,,00089,2023-10-27_15h36.28.489,vbt_B1_day4,2022.2.4,MacIntel,58.82352941,,,,,,down,0,3.134,,0.143333333,-0.068888889,1,0,0,0,24,24,175,1,heengaan,images/br_heengaan.png,images/cb_heengaan.png,0,,,,,,,,,,,,,,,,,,,,,,
,,,,,00089,2023-10-27_15h36.28.489,vbt_B1_day4,2022.2.4,MacIntel,58.82352941,,,,,,down,0,2.372,,0.143333333,-0.068888889,1,0,0,0,25,25,6,1,diep,images/br_diep.png,images/cb_diep.png,0,,,,,,,,,,,,,,,,,,,,,,
,,,,,00089,2023-10-27_15h36.28.489,vbt_B1_day4,2022.2.4,MacIntel,58.82352941,,,,,,down,0,5.252,,0.143333333,-0.068888889,1,0,0,0,26,26,164,1,anarchie,images/br_anarchie.png,images/cb_anarchie.png,0,,,,,,,,,,,,,,,,,,,,,,
,,,,,00089,2023-10-27_15h36.28.489,vbt_B1_day4,2022.2.4,MacIntel,58.82352941,,,,,,down,0,5.502,,0.143333333,-0.068888889,1,0,0,0,27,27,176,1,techniek,images/br_techniek.png,images/cb_techniek.png,0,,,,,,,,,,,,,,,,,,,,,,
,,,,,00089,2023-10-27_15h36.28.489,vbt_B1_day4,2022.2.4,MacIntel,58.82352941,,,,,,down,0,10.124,,0.143333333,-0.068888889,1,0,0,0,28,28,162,1,uitdelen,images/br_uitdelen.png,images/cb_uitdelen.png,0,,,,,,,,,,,,,,,,,,,,,,
,,,,,00089,2023-10-27_15h36.28.489,vbt_B1_day4,2022.2.4,MacIntel,58.82352941,,,,,,down,0,0.751,,0.143333333,-0.068888889,1,0,0,0,29,29,51,1,samen,images/br_samen.png,images/cb_samen.png,0,,,,,,,,,,,,,,,,,,,,,,
,,,,,00089,2023-10-27_15h36.28.489,vbt_B1_day4,2022.2.4,MacIntel,58.82352941,,,,,,down,0,4.819,,0.143333333,-0.068888889,1,0,0,0,30,30,111,1,ticket,images/br_ticket.png,images/cb_ticket.png,0,,,,,,,,,,,,,,,,,,,,,,
,,,,,00089,2023-10-27_15h36.28.489,vbt_B1_day4,2022.2.4,MacIntel,58.82352941,,,,,,down,0,4.051,,0.143333333,-0.068888889,1,0,0,0,31,31,121,1,twijfel,images/br_twijfel.png,images/cb_twijfel.png,0,,,,,,,,,,,,,,,,,,,,,,
,,,,,00089,2023-10-27_15h36.28.489,vbt_B1_day4,2022.2.4,MacIntel,58.82352941,,,,,,down,0,9.983,,0.143333333,-0.068888889,1,0,0,0,32,32,153,1,vervoer,images/br_vervoer.png,images/cb_vervoer.png,0,,,,,,,,,,,,,,,,,,,,,,
,,,,,00089,2023-10-27_15h36.28.489,vbt_B1_day4,2022.2.4,MacIntel,58.82352941,,,,,,down,0,18.292,,0.143333333,-0.068888889,1,0,0,0,33,33,29,1,baas,images/br_baas.png,images/cb_baas.png,0,,,,,,,,,,,,,,,,,,,,,,
,,,,,00089,2023-10-27_15h36.28.489,vbt_B1_day4,2022.2.4,MacIntel,58.82352941,,,,,,down,0,1.372,,0.143333333,-0.068888889,1,0,0,0,34,34,52,1,wagon,images/br_wagon.png,images/cb_wagon.png,0,,,,,,,,,,,,,,,,,,,,,,
,,,,,00089,2023-10-27_15h36.28.489,vbt_B1_day4,2022.2.4,MacIntel,58.82352941,,,,,,down,0,0.317,,0.143333333,-0.068888889,1,0,0,0,35,35,54,1,gebit,images/br_gebit.png,images/cb_gebit.png,0,,,,,,,,,,,,,,,,,,,,,,
,,,,,00089,2023-10-27_15h36.28.489,vbt_B1_day4,2022.2.4,MacIntel,58.82352941,,,,,,down,0,0.5,,0.143333333,-0.068888889,1,0,0,0,36,36,199,1,beseffen,images/br_beseffen.png,images/cb_beseffen.png,0,,,,,,,,,,,,,,,,,,,,,,
,,,,,00089,2023-10-27_15h36.28.489,vbt_B1_day4,2022.2.4,MacIntel,58.82352941,,,,,,down,0,0.036,,0.143333333,-0.068888889,1,0,0,0,37,37,88,1,boeien,images/br_boeien.png,images/cb_boeien.png,0,,,,,,,,,,,,,,,,,,,,,,
,,,,,00089,2023-10-27_15h36.28.489,vbt_B1_day4,2022.2.4,MacIntel,58.82352941,,,,,,down,0,3.016,,0.143333333,-0.068888889,1,0,0,0,38,38,22,1,stof,images/br_stof.png,images/cb_stof.png,0,,,,,,,,,,,,,,,,,,,,,,
,,,,,00089,2023-10-27_15h36.28.489,vbt_B1_day4,2022.2.4,MacIntel,58.82352941,,,,,,down,0,1.884,,0.143333333,-0.068888889,1,0,0,0,39,39,150,1,gegeven,images/br_gegeven.png,images/cb_gegeven.png,0,,,,,,,,,,,,,,,,,,,,,,
,,,,,00089,2023-10-27_15h36.28.489,vbt_B1_day4,2022.2.4,MacIntel,58.82352941,,,,,,down,0,2.069,,0.143333333,-0.068888889,1,0,0,0,40,40,159,1,sufferd,images/br_sufferd.png,images/cb_sufferd.png,0,,,,,,,,,,,,,,,,,,,,,,
,,,,,00089,2023-10-27_15h36.28.489,vbt_B1_day4,2022.2.4,MacIntel,58.82352941,,,,,,down,0,3,,0.143333333,-0.068888889,1,0,0,0,41,41,128,1,prikken,images/br_prikken.png,images/cb_prikken.png,0,,,,,,,,,,,,,,,,,,,,,,
,,,,,00089,2023-10-27_15h36.28.489,vbt_B1_day4,2022.2.4,MacIntel,58.82352941,,,,,,down,0,2.336,,0.143333333,-0.068888889,1,0,0,0,42,42,154,1,aflopen,images/br_aflopen.png,images/cb_aflopen.png,0,,,,,,,,,,,,,,,,,,,,,,
,,,,,00089,2023-10-27_15h36.28.489,vbt_B1_day4,2022.2.4,MacIntel,58.82352941,,,,,,down,0,0.269,,0.143333333,-0.068888889,1,0,0,0,43,43,172,1,weigeren,images/br_weigeren.png,images/cb_weigeren.png,0,,,,,,,,,,,,,,,,,,,,,,
,,,,,00089,2023-10-27_15h36.28.489,vbt_B1_day4,2022.2.4,MacIntel,58.82352941,,,,,,down,0,0.839,,0.143333333,-0.068888889,1,0,0,0,44,44,16,1,ziek,images/br_ziek.png,images/cb_ziek.png,0,,,,,,,,,,,,,,,,,,,,,,
,,,,,00089,2023-10-27_15h36.28.489,vbt_B1_day4,2022.2.4,MacIntel,58.82352941,,,,,,down,0,1.792,,0.143333333,-0.068888889,1,0,0,0,45,45,134,1,geliefd,images/br_geliefd.png,images/cb_geliefd.png,0,,,,,,,,,,,,,,,,,,,,,,
,,,,,00089,2023-10-27_15h36.28.489,vbt_B1_day4,2022.2.4,MacIntel,58.82352941,,,,,,down,0,1.252,,0.143333333,-0.068888889,1,0,0,0,46,46,43,1,klauw,images/br_klauw.png,images/cb_klauw.png,0,,,,,,,,,,,,,,,,,,,,,,
,,,,,00089,2023-10-27_15h36.28.489,vbt_B1_day4,2022.2.4,MacIntel,58.82352941,,,,,,down,0,0.098,,0.143333333,-0.068888889,1,0,0,0,47,47,78,1,leren,images/br_leren.png,images/cb_leren.png,0,,,,,,,,,,,,,,,,,,,,,,
,,,,,00089,2023-10-27_15h36.28.489,vbt_B1_day4,2022.2.4,MacIntel,58.82352941,,,,,,down,0,4.285,,0.143333333,-0.068888889,1,0,0,0,48,48,119,1,liefje,images/br_liefje.png,images/cb_liefje.png,0,,,,,,,,,,,,,,,,,,,,,,
,,,,,00089,2023-10-27_15h36.28.489,vbt_B1_day4,2022.2.4,MacIntel,58.82352941,,,,,,down,0,10.554,,0.143333333,-0.068888889,1,0,0,0,49,49,103,1,joggen,images/br_joggen.png,images/cb_joggen.png,0,,,,,,,,,,,,,,,,,,,,,,
,,,,,00089,2023-10-27_15h36.28.489,vbt_B1_day4,2022.2.4,MacIntel,58.82352941,,,,,,down,0,3.584,,0.143333333,-0.068888889,1,0,0,0,50,50,59,1,kring,images/br_kring.png,images/cb_kring.png,0,,,,,,,,,,,,,,,,,,,,,,
,,,,,00089,2023-10-27_15h36.28.489,vbt_B1_day4,2022.2.4,MacIntel,58.82352941,,,,,,down,0,0.073,,0.143333333,-0.068888889,1,0,0,0,51,51,158,1,innemen,images/br_innemen.png,images/cb_innemen.png,0,,,,,,,,,,,,,,,,,,,,,,
,,,,,00089,2023-10-27_15h36.28.489,vbt_B1_day4,2022.2.4,MacIntel,58.82352941,,,,,,down,0,5.234,,0.098888889,-0.042222222,1,0,0,0,52,52,34,1,vorm,images/br_vorm.png,images/cb_vorm.png,0,,,,,,,,,,,,,,,,,,,,,,
,,,,,00089,2023-10-27_15h36.28.489,vbt_B1_day4,2022.2.4,MacIntel,58.82352941,,,,,,down,0,0.384,,0.094444444,-0.042222222,1,0,0,0,53,53,166,1,strikken,images/br_strikken.png,images/cb_strikken.png,0,,,,,,,,,,,,,,,,,,,,,,
,,,,,00089,2023-10-27_15h36.28.489,vbt_B1_day4,2022.2.4,MacIntel,58.82352941,,,,,,down,0,8.852,,0.136666667,-0.033333333,1,0,0,0,54,54,187,1,opkijken,images/br_opkijken.png,images/cb_opkijken.png,1,opkijken,,,,,,,,,,,,,,,,,,,,,
,,,,,00089,2023-10-27_15h36.28.489,vbt_B1_day4,2022.2.4,MacIntel,58.82352941,,,,,,down,0,1.616,,0.098888889,-0.081111111,1,0,0,0,55,55,90,1,geluid,images/br_geluid.png,images/cb_geluid.png,0,,,,,,,,,,,,,,,,,,,,,,
,,,,,00089,2023-10-27_15h36.28.489,vbt_B1_day4,2022.2.4,MacIntel,58.82352941,,,,,,down,0,25.484,,0.034444444,-0.057777778,1,0,0,0,56,56,80,1,kanjer,images/br_kanjer.png,images/cb_kanjer.png,0,,,,,,,,,,,,,,,,,,,,,,
,,,,,00089,2023-10-27_15h36.28.489,vbt_B1_day4,2022.2.4,MacIntel,58.82352941,,,,,,down,0,3.249,,0.053333333,-0.042222222,1,0,0,0,57,57,94,1,oceaan,images/br_oceaan.png,images/cb_oceaan.png,0,,,,,,,,,,,,,,,,,,,,,,
,,,,,00089,2023-10-27_15h36.28.489,vbt_B1_day4,2022.2.4,MacIntel,58.82352941,,,,,,down,0,3.34,,0.04,-0.036666667,1,0,0,0,58,58,161,1,attentie,images/br_attentie.png,images/cb_attentie.png,0,,,,,,,,,,,,,,,,,,,,,,
,,,,,00089,2023-10-27_15h36.28.489,vbt_B1_day4,2022.2.4,MacIntel,58.82352941,,,,,,down,0,0.301,,0.038888889,-0.036666667,1,0,0,0,59,59,49,1,laken,images/br_laken.png,images/cb_laken.png,0,,,,,,,,,,,,,,,,,,,,,,
,,,,,00089,2023-10-27_15h36.28.489,vbt_B1_day4,2022.2.4,MacIntel,58.82352941,,,,,,down,0,1.916,,0.038888889,-0.036666667,1,0,0,0,60,60,100,1,geduld,images/br_geduld.png,images/cb_geduld.png,0,,,,,,,,,,,,,,,,,,,,,,
,,,,,00089,2023-10-27_15h36.28.489,vbt_B1_day4,2022.2.4,MacIntel,58.82352941,,,,,,down,0,0.139,,0.038888889,-0.036666667,1,0,0,0,61,61,170,1,schatten,images/br_schatten.png,images/cb_schatten.png,0,,,,,,,,,,,,,,,,,,,,,,
,,,,,00089,2023-10-27_15h36.28.489,vbt_B1_day4,2022.2.4,MacIntel,58.82352941,,,,,,down,0,1.903,,0.038888889,-0.036666667,1,0,0,0,62,62,18,1,blik,images/br_blik.png,images/cb_blik.png,0,,,,,,,,,,,,,,,,,,,,,,
,,,,,00089,2023-10-27_15h36.28.489,vbt_B1_day4,2022.2.4,MacIntel,58.82352941,,,,,,down,0,4.884,,0.038888889,-0.036666667,1,0,0,0,63,63,125,1,aanzien,images/br_aanzien.png,images/cb_aanzien.png,0,,,,,,,,,,,,,,,,,,,,,,
,,,,,00089,2023-10-27_15h36.28.489,vbt_B1_day4,2022.2.4,MacIntel,58.82352941,,,,,,down,0,2.433,,0.038888889,-0.036666667,1,0,0,0,64,64,108,1,excuus,images/br_excuus.png,images/cb_excuus.png,0,,,,,,,,,,,,,,,,,,,,,,
,,,,,00089,2023-10-27_15h36.28.489,vbt_B1_day4,2022.2.4,MacIntel,58.82352941,,,,,,down,0,15.544,,0.038888889,-0.036666667,1,0,0,0,65,65,45,1,piste,images/br_piste.png,images/cb_piste.png,0,,,,,,,,,,,,,,,,,,,,,,
,,,,,00089,2023-10-27_15h36.28.489,vbt_B1_day4,2022.2.4,MacIntel,58.82352941,,,,,,down,0,0.051,,0.038888889,-0.036666667,1,0,0,0,66,66,174,1,stemming,images/br_stemming.png,images/cb_stemming.png,0,,,,,,,,,,,,,,,,,,,,,,
,,,,,00089,2023-10-27_15h36.28.489,vbt_B1_day4,2022.2.4,MacIntel,58.82352941,,,,,,down,0,10.358,,0.038888889,-0.036666667,1,0,0,0,67,67,85,1,heilig,images/br_heilig.png,images/cb_heilig.png,0,,,,,,,,,,,,,,,,,,,,,,
,,,,,00089,2023-10-27_15h36.28.489,vbt_B1_day4,2022.2.4,MacIntel,58.82352941,,,,,,down,0,0.001,,0.038888889,-0.036666667,1,0,0,0,68,68,191,1,opheffen,images/br_opheffen.png,images/cb_opheffen.png,0,,,,,,,,,,,,,,,,,,,,,,
,,,,,00089,2023-10-27_15h36.28.489,vbt_B1_day4,2022.2.4,MacIntel,58.82352941,,,,,,down,0,4,,0.038888889,-0.036666667,1,0,0,0,69,69,140,1,blijven,images/br_blijven.png,images/cb_blijven.png,0,,,,,,,,,,,,,,,,,,,,,,
,,,,,00089,2023-10-27_15h36.28.489,vbt_B1_day4,2022.2.4,MacIntel,58.82352941,,,,,,down,0,4.002,,0.038888889,-0.036666667,1,0,0,0,70,70,142,1,snuiven,images/br_snuiven.png,images/cb_snuiven.png,0,,,,,,,,,,,,,,,,,,,,,,
,,,,,00089,2023-10-27_15h36.28.489,vbt_B1_day4,2022.2.4,MacIntel,58.82352941,,,,,,down,0,12.087,,0.23,-0.038888889,1,0,0,0,71,71,185,1,mijnheer,images/br_mijnheer.png,images/cb_mijnheer.png,1,mijnheer,,,,,,,,,,,,,,,,,,,,,
,,,,,00089,2023-10-27_15h36.28.489,vbt_B1_day4,2022.2.4,MacIntel,58.82352941,,,,,,down,0,3.204,,0.23,-0.038888889,1,0,0,0,72,72,91,1,gezond,images/br_gezond.png,images/cb_gezond.png,0,,,,,,,,,,,,,,,,,,,,,,
,,,,,00089,2023-10-27_15h36.28.489,vbt_B1_day4,2022.2.4,MacIntel,58.82352941,,,,,,down,0,10.717,,0.23,-0.038888889,1,0,0,0,73,73,60,1,jasje,images/br_jasje.png,images/cb_jasje.png,0,,,,,,,,,,,,,,,,,,,,,,
,,,,,00089,2023-10-27_15h36.28.489,vbt_B1_day4,2022.2.4,MacIntel,58.82352941,,,,,,down,0,0.005,,0.23,-0.038888889,1,0,0,0,74,74,10,1,leek,images/br_leek.png,images/cb_leek.png,0,,,,,,,,,,,,,,,,,,,,,,
,,,,,00089,2023-10-27_15h36.28.489,vbt_B1_day4,2022.2.4,MacIntel,58.82352941,,,,,,down,0,0.683,,0.225555556,-0.04,1,0,0,0,75,75,33,1,vlek,images/br_vlek.png,images/cb_vlek.png,0,,,,,,,,,,,,,,,,,,,,,,
,,,,,00089,2023-10-27_15h36.28.489,vbt_B1_day4,2022.2.4,MacIntel,58.82352941,,,,,,down,0,13.035,,-0.047777778,-0.022222222,1,0,0,0,76,76,44,1,flits,images/br_flits.png,images/cb_flits.png,0,,,,,,,,,,,,,,,,,,,,,,
,,,,,00089,2023-10-27_15h36.28.489,vbt_B1_day4,2022.2.4,MacIntel,58.82352941,,,,,,down,0,3.851,,-0.112222222,0.015555556,1,0,0,0,77,77,5,1,blad,images/br_blad.png,images/cb_blad.png,0,,,,,,,,,,,,,,,,,,,,,,
,,,,,00089,2023-10-27_15h36.28.489,vbt_B1_day4,2022.2.4,MacIntel,58.82352941,,,,,,down,0,0.837,,-0.112222222,0.015555556,1,0,0,0,78,78,197,1,spanning,images/br_spanning.png,images/cb_spanning.png,0,,,,,,,,,,,,,,,,,,,,,,
,,,,,00089,2023-10-27_15h36.28.489,vbt_B1_day4,2022.2.4,MacIntel,58.82352941,,,,,,down,0,0.252,,-0.112222222,0.015555556,1,0,0,0,79,79,8,1,knie,images/br_knie.png,images/cb_knie.png,0,,,,,,,,,,,,,,,,,,,,,,
,,,,,00089,2023-10-27_15h36.28.489,vbt_B1_day4,2022.2.4,MacIntel,58.82352941,,,,,,down,0,0.185,,-0.112222222,0.015555556,1,0,0,0,80,80,36,1,vuur,images/br_vuur.png,images/cb_vuur.png,0,,,,,,,,,,,,,,,,,,,,,,
,,,,,00089,2023-10-27_15h36.28.489,vbt_B1_day4,2022.2.4,MacIntel,58.82352941,,,,,,down,0,1.333,,-0.121111111,-0.032222222,1,0,0,0,81,81,167,1,eenhoorn,images/br_eenhoorn.png,images/cb_eenhoorn.png,0,,,,,,,,,,,,,,,,,,,,,,
,,,,,00089,2023-10-27_15h36.28.489,vbt_B1_day4,2022.2.4,MacIntel,58.82352941,,,,,,down,0,7.253,,-0.065555556,-0.002222222,1,0,0,0,82,82,106,1,zingen,images/br_zingen.png,images/cb_zingen.png,1,zingen,,,,,,,,,,,,,,,,,,,,,
,,,,,00089,2023-10-27_15h36.28.489,vbt_B1_day4,2022.2.4,MacIntel,58.82352941,,,,,,down,0,6.801,,-0.081111111,-0.047777778,1,0,0,0,83,83,144,1,eetlust,images/br_eetlust.png,images/cb_eetlust.png,1,eetlust,,,,,,,,,,,,,,,,,,,,,
,,,,,00089,2023-10-27_15h36.28.489,vbt_B1_day4,2022.2.4,MacIntel,58.82352941,,,,,,down,0,4.651,,-0.082222222,-0.047777778,1,0,0,0,84,84,151,1,aanzoek,images/br_aanzoek.png,images/cb_aanzoek.png,0,,,,,,,,,,,,,,,,,,,,,,
,,,,,00089,2023-10-27_15h36.28.489,vbt_B1_day4,2022.2.4,MacIntel,58.82352941,,,,,,down,0,3.959,,-0.083333333,-0.047777778,1,0,0,0,85,85,63,1,flirt,images/br_flirt.png,images/cb_flirt.png,0,,,,,,,,,,,,,,,,,,,,,,
,,,,,00089,2023-10-27_15h36.28.489,vbt_B1_day4,2022.2.4,MacIntel,58.82352941,,,,,,down,0,3.134,,-0.083333333,-0.047777778,1,0,0,0,86,86,81,1,dubbel,images/br_dubbel.png,images/cb_dubbel.png,0,,,,,,,,,,,,,,,,,,,,,,
,,,,,00089,2023-10-27_15h36.28.489,vbt_B1_day4,2022.2.4,MacIntel,58.82352941,,,,,,down,0,4.523,,-0.083333333,-0.047777778,1,0,0,0,87,87,135,1,gedicht,images/br_gedicht.png,images/cb_gedicht.png,0,,,,,,,,,,,,,,,,,,,,,,
,,,,,00089,2023-10-27_15h36.28.489,vbt_B1_day4,2022.2.4,MacIntel,58.82352941,,,,,,down,0,1.371,,-0.083333333,-0.047777778,1,0,0,0,88,88,156,1,rechten,images/br_rechten.png,images/cb_rechten.png,0,,,,,,,,,,,,,,,,,,,,,,
,,,,,00089,2023-10-27_15h36.28.489,vbt_B1_day4,2022.2.4,MacIntel,58.82352941,,,,,,down,0,3.588,,-0.095555556,-0.053333333,1,0,0,0,89,89,129,1,verhaal,images/br_verhaal.png,images/cb_verhaal.png,0,,,,,,,,,,,,,,,,,,,,,,
,,,,,00089,2023-10-27_15h36.28.489,vbt_B1_day4,2022.2.4,MacIntel,58.82352941,,,,,,down,0,0.134,,-0.095555556,-0.053333333,1,0,0,0,90,90,131,1,opzicht,images/br_opzicht.png,images/cb_opzicht.png,0,,,,,,,,,,,,,,,,,,,,,,
,,,,,00089,2023-10-27_15h36.28.489,vbt_B1_day4,2022.2.4,MacIntel,58.82352941,,,,,,down,0,4.319,,0.068888889,-0.064444444,1,0,0,0,91,91,65,1,parel,images/br_parel.png,images/cb_parel.png,1,parel,,,,,,,,,,,,,,,,,,,,,
,,,,,00089,2023-10-27_15h36.28.489,vbt_B1_day4,2022.2.4,MacIntel,58.82352941,,,,,,down,0,0.351,,0.067777778,-0.064444444,1,0,0,0,92,92,163,1,schuilen,images/br_schuilen.png,images/cb_schuilen.png,0,,,,,,,,,,,,,,,,,,,,,,
,,,,,00089,2023-10-27_15h36.28.489,vbt_B1_day4,2022.2.4,MacIntel,58.82352941,,,,,,down,0,8.834,,0.068888889,-0.065555556,1,0,0,0,93,93,196,1,nakijken,images/br_nakijken.png,images/cb_nakijken.png,0,,,,,,,,,,,,,,,,,,,,,,
,,,,,00089,2023-10-27_15h36.28.489,vbt_B1_day4,2022.2.4,MacIntel,58.82352941,,,,,,down,0,4.918,,0.07,-0.066666667,1,0,0,0,94,94,82,1,muziek,images/br_muziek.png,images/cb_muziek.png,0,,,,,,,,,,,,,,,,,,,,,,
,,,,,00089,2023-10-27_15h36.28.489,vbt_B1_day4,2022.2.4,MacIntel,58.82352941,,,,,,down,0,1.218,,0.07,-0.066666667,1,0,0,0,95,95,99,1,koffie,images/br_koffie.png,images/cb_koffie.png,0,,,,,,,,,,,,,,,,,,,,,,
,,,,,00089,2023-10-27_15h36.28.489,vbt_B1_day4,2022.2.4,MacIntel,58.82352941,,,,,,down,0,0.368,,0.068888889,-0.067777778,1,0,0,0,96,96,188,1,strekken,images/br_strekken.png,images/cb_strekken.png,0,,,,,,,,,,,,,,,,,,,,,,
,,,,,00089,2023-10-27_15h36.28.489,vbt_B1_day4,2022.2.4,MacIntel,58.82352941,,,,,,down,0,1.267,,0.068888889,-0.067777778,1,0,0,0,97,97,183,1,getuigen,images/br_getuigen.png,images/cb_getuigen.png,0,,,,,,,,,,,,,,,,,,,,,,
,,,,,00089,2023-10-27_15h36.28.489,vbt_B1_day4,2022.2.4,MacIntel,58.82352941,,,,,,down,0,1.855,,0.07,-0.068888889,1,0,0,0,98,98,98,1,kreeft,images/br_kreeft.png,images/cb_kreeft.png,0,,,,,,,,,,,,,,,,,,,,,,
,,,,,00089,2023-10-27_15h36.28.489,vbt_B1_day4,2022.2.4,MacIntel,58.82352941,,,,,,down,0,0.451,,0.071111111,-0.07,1,0,0,0,99,99,84,1,lokken,images/br_lokken.png,images/cb_lokken.png,0,,,,,,,,,,,,,,,,,,,,,,
,,,,,00089,2023-10-27_15h36.28.489,vbt_B1_day4,2022.2.4,MacIntel,58.82352941,,,,,,down,0,1.733,,0.072222222,-0.07,1,0,0,0,100,100,77,1,woede,images/br_woede.png,images/cb_woede.png,0,,,,,,,,,,,,,,,,,,,,,,
,,,,,00089,2023-10-27_15h36.28.489,vbt_B1_day4,2022.2.4,MacIntel,58.82352941,,,,,,down,0,0.72,,0.072222222,-0.07,1,0,0,0,101,101,76,1,afval,images/br_afval.png,images/cb_afval.png,0,,,,,,,,,,,,,,,,,,,,,,
,,,,,00089,2023-10-27_15h36.28.489,vbt_B1_day4,2022.2.4,MacIntel,58.82352941,,,,,,down,0,7.05,,0.072222222,-0.07,1,0,0,0,102,102,73,1,volop,images/br_volop.png,images/cb_volop.png,0,,,,,,,,,,,,,,,,,,,,,,
,,,,,00089,2023-10-27_15h36.28.489,vbt_B1_day4,2022.2.4,MacIntel,58.82352941,,,,,,down,0,7.635,,0.072222222,-0.07,1,0,0,0,103,103,15,1,soda,images/br_soda.png,images/cb_soda.png,0,,,,,,,,,,,,,,,,,,,,,,
,,,,,00089,2023-10-27_15h36.28.489,vbt_B1_day4,2022.2.4,MacIntel,58.82352941,,,,,,down,0,6.057,,0.072222222,-0.07,1,0,0,0,104,104,101,1,staren,images/br_staren.png,images/cb_staren.png,0,,,,,,,,,,,,,,,,,,,,,,
,,,,,00089,2023-10-27_15h36.28.489,vbt_B1_day4,2022.2.4,MacIntel,58.82352941,,,,,,down,0,5.352,,0.214444444,0.097777778,1,0,0,0,105,105,184,1,aandelen,images/br_aandelen.png,images/cb_aandelen.png,1,aandelen,,,,,,,,,,,,,,,,,,,,,
,,,,,00089,2023-10-27_15h36.28.489,vbt_B1_day4,2022.2.4,MacIntel,58.82352941,,,,,,down,0,2.421,,0.117777778,0.128888889,1,0,0,0,106,106,67,1,zwart,images/br_zwart.png,images/cb_zwart.png,1,zwart,,,,,,,,,,,,,,,,,,,,,
,,,,,00089,2023-10-27_15h36.28.489,vbt_B1_day4,2022.2.4,MacIntel,58.82352941,,,,,,down,0,0.869,,0.026666667,0.068888889,1,0,0,0,107,107,178,1,huisdier,images/br_huisdier.png,images/cb_huisdier.png,0,,,,,,,,,,,,,,,,,,,,,,
,,,,,00089,2023-10-27_15h36.28.489,vbt_B1_day4,2022.2.4,MacIntel,58.82352941,,,,,,down,0,2.687,,0.027777778,0.067777778,1,0,0,0,108,108,66,1,lever,images/br_lever.png,images/cb_lever.png,1,lever,,,,,,,,,,,,,,,,,,,,,
,,,,,00089,2023-10-27_15h36.28.489,vbt_B1_day4,2022.2.4,MacIntel,58.82352941,,,,,,down,0,2.019,,0.027777778,0.067777778,1,0,0,0,109,109,137,1,trekker,images/br_trekker.png,images/cb_trekker.png,0,,,,,,,,,,,,,,,,,,,,,,
,,,,,00089,2023-10-27_15h36.28.489,vbt_B1_day4,2022.2.4,MacIntel,58.82352941,,,,,,down,0,2.368,,0.027777778,0.067777778,1,0,0,0,110,110,19,1,geit,images/br_geit.png,images/cb_geit.png,0,,,,,,,,,,,,,,,,,,,,,,
,,,,,00089,2023-10-27_15h36.28.489,vbt_B1_day4,2022.2.4,MacIntel,58.82352941,,,,,,down,0,3.508,,0.026666667,0.067777778,1,0,0,0,111,111,7,1,geld,images/br_geld.png,images/cb_geld.png,0,,,,,,,,,,,,,,,,,,,,,,
,,,,,00089,2023-10-27_15h36.28.489,vbt_B1_day4,2022.2.4,MacIntel,58.82352941,,,,,,down,0,1.067,,0.026666667,0.067777778,1,0,0,0,112,112,181,1,toegeven,images/br_toegeven.png,images/cb_toegeven.png,0,,,,,,,,,,,,,,,,,,,,,,
,,,,,00089,2023-10-27_15h36.28.489,vbt_B1_day4,2022.2.4,MacIntel,58.82352941,,,,,,down,0,0.705,,0.026666667,0.067777778,1,0,0,0,113,113,23,1,zout,images/br_zout.png,images/cb_zout.png,0,,,,,,,,,,,,,,,,,,,,,,
,,,,,00089,2023-10-27_15h36.28.489,vbt_B1_day4,2022.2.4,MacIntel,58.82352941,,,,,,down,0,3.351,,0.177777778,0.101111111,1,0,0,0,114,114,64,1,wegen,images/br_wegen.png,images/cb_wegen.png,1,wegen,,,,,,,,,,,,,,,,,,,,,
,,,,,00089,2023-10-27_15h36.28.489,vbt_B1_day4,2022.2.4,MacIntel,58.82352941,,,,,,down,0,4.353,,0.177777778,0.106666667,1,0,0,0,115,115,24,1,jurk,images/br_jurk.png,images/cb_jurk.png,1,jurk,,,,,,,,,,,,,,,,,,,,,
,,,,,00089,2023-10-27_15h36.28.489,vbt_B1_day4,2022.2.4,MacIntel,58.82352941,,,,,,down,0,0.052,,0.175555556,0.107777778,1,0,0,0,116,116,127,1,doodmoe,images/br_doodmoe.png,images/cb_doodmoe.png,0,,,,,,,,,,,,,,,,,,,,,,
,,,,,00089,2023-10-27_15h36.28.489,vbt_B1_day4,2022.2.4,MacIntel,58.82352941,,,,,,down,0,3.055,,0.175555556,0.107777778,1,0,0,0,117,117,155,1,gerucht,images/br_gerucht.png,images/cb_gerucht.png,0,,,,,,,,,,,,,,,,,,,,,,
,,,,,00089,2023-10-27_15h36.28.489,vbt_B1_day4,2022.2.4,MacIntel,58.82352941,,,,,,down,0,1,,0.175555556,0.107777778,1,0,0,0,118,118,152,1,afnemen,images/br_afnemen.png,images/cb_afnemen.png,0,,,,,,,,,,,,,,,,,,,,,,
,,,,,00089,2023-10-27_15h36.28.489,vbt_B1_day4,2022.2.4,MacIntel,58.82352941,,,,,,down,0,18.02,,0.175555556,0.107777778,1,0,0,0,119,119,180,1,openbaar,images/br_openbaar.png,images/cb_openbaar.png,0,,,,,,,,,,,,,,,,,,,,,,
,,,,,00089,2023-10-27_15h36.28.489,vbt_B1_day4,2022.2.4,MacIntel,58.82352941,,,,,,down,0,8.138,,0.004444444,-0.005555556,1,0,0,0,120,120,21,1,mist,images/br_mist.png,images/cb_mist.png,0,,,,,,,,,,,,,,,,,,,,,,
,,,,,00089,2023-10-27_15h36.28.489,vbt_B1_day4,2022.2.4,MacIntel,58.82352941,,,,,,down,0,0.64,,-0.008888889,-0.003333333,1,0,0,0,121,121,31,1,poes,images/br_poes.png,images/cb_poes.png,0,,,,,,,,,,,,,,,,,,,,,,
,,,,,00089,2023-10-27_15h36.28.489,vbt_B1_day4,2022.2.4,MacIntel,58.82352941,,,,,,down,0,4.632,,-0.008888889,-0.003333333,1,0,0,0,122,122,37,1,mijn,images/br_mijn.png,images/cb_mijn.png,0,,,,,,,,,,,,,,,,,,,,,,
,,,,,00089,2023-10-27_15h36.28.489,vbt_B1_day4,2022.2.4,MacIntel,58.82352941,,,,,,down,0,3.701,,-0.005555556,-0.033333333,1,0,0,0,123,123,190,1,goedkoop,images/br_goedkoop.png,images/cb_goedkoop.png,0,,,,,,,,,,,,,,,,,,,,,,
,,,,,00089,2023-10-27_15h36.28.489,vbt_B1_day4,2022.2.4,MacIntel,58.82352941,,,,,,down,0,5.623,,-0.005555556,-0.033333333,1,0,0,0,124,124,198,1,bedoelen,images/br_bedoelen.png,images/cb_bedoelen.png,0,,,,,,,,,,,,,,,,,,,,,,
,,,,,00089,2023-10-27_15h36.28.489,vbt_B1_day4,2022.2.4,MacIntel,58.82352941,,,,,,down,0,0.358,,-0.005555556,-0.033333333,1,0,0,0,125,125,97,1,loyaal,images/br_loyaal.png,images/cb_loyaal.png,0,,,,,,,,,,,,,,,,,,,,,,
,,,,,00089,2023-10-27_15h36.28.489,vbt_B1_day4,2022.2.4,MacIntel,58.82352941,,,,,,down,0,15.433,,0.162222222,-0.024444444,1,0,0,0,126,126,123,1,hiervan,images/br_hiervan.png,images/cb_hiervan.png,0,,,,,,,,,,,,,,,,,,,,,,
,,,,,00089,2023-10-27_15h36.28.489,vbt_B1_day4,2022.2.4,MacIntel,58.82352941,,,,,,down,0,5.967,,0.162222222,-0.028888889,1,0,0,0,127,127,74,1,graaf,images/br_graaf.png,images/cb_graaf.png,0,,,,,,,,,,,,,,,,,,,,,,
,,,,,00089,2023-10-27_15h36.28.489,vbt_B1_day4,2022.2.4,MacIntel,58.82352941,,,,,,down,0,4.702,,0.242222222,-0.026666667,1,0,0,0,128,128,147,1,komisch,images/br_komisch.png,images/cb_komisch.png,1,komisch,,,,,,,,,,,,,,,,,,,,,
,,,,,00089,2023-10-27_15h36.28.489,vbt_B1_day4,2022.2.4,MacIntel,58.82352941,,,,,,down,0,1.121,,0.134444444,-0.14,1,0,0,0,129,129,41,1,maken,images/br_maken.png,images/cb_maken.png,0,,,,,,,,,,,,,,,,,,,,,,
,,,,,00089,2023-10-27_15h36.28.489,vbt_B1_day4,2022.2.4,MacIntel,58.82352941,,,,,,down,0,1.705,,0.134444444,-0.14,1,0,0,0,130,130,12,1,kust,images/br_kust.png,images/cb_kust.png,0,,,,,,,,,,,,,,,,,,,,,,
,,,,,00089,2023-10-27_15h36.28.489,vbt_B1_day4,2022.2.4,MacIntel,58.82352941,,,,,,down,0,1.141,,0.134444444,-0.14,1,0,0,0,131,131,165,1,feestdag,images/br_feestdag.png,images/cb_feestdag.png,0,,,,,,,,,,,,,,,,,,,,,,
,,,,,00089,2023-10-27_15h36.28.489,vbt_B1_day4,2022.2.4,MacIntel,58.82352941,,,,,,down,0,5.285,,0.133333333,-0.141111111,1,0,0,0,132,132,148,1,smullen,images/br_smullen.png,images/cb_smullen.png,0,,,,,,,,,,,,,,,,,,,,,,
,,,,,00089,2023-10-27_15h36.28.489,vbt_B1_day4,2022.2.4,MacIntel,58.82352941,,,,,,down,0,8.459,,0.296666667,-0.12,1,0,0,0,133,133,145,1,invloed,images/br_invloed.png,images/cb_invloed.png,1,invloed,,,,,,,,,,,,,,,,,,,,,
,,,,,00089,2023-10-27_15h36.28.489,vbt_B1_day4,2022.2.4,MacIntel,58.82352941,,,,,,down,0,1.668,,0.296666667,-0.118888889,1,0,0,0,134,134,48,1,steel,images/br_steel.png,images/cb_steel.png,0,,,,,,,,,,,,,,,,,,,,,,
,,,,,00089,2023-10-27_15h36.28.489,vbt_B1_day4,2022.2.4,MacIntel,58.82352941,,,,,,down,0,3.601,,0.296666667,-0.12,1,0,0,0,135,135,95,1,vreten,images/br_vreten.png,images/cb_vreten.png,0,,,,,,,,,,,,,,,,,,,,,,
,,,,,00089,2023-10-27_15h36.28.489,vbt_B1_day4,2022.2.4,MacIntel,58.82352941,,,,,,down,0,1.156,,0.296666667,-0.12,1,0,0,0,136,136,122,1,waarvan,images/br_waarvan.png,images/cb_waarvan.png,0,,,,,,,,,,,,,,,,,,,,,,
,,,,,00089,2023-10-27_15h36.28.489,vbt_B1_day4,2022.2.4,MacIntel,58.82352941,,,,,,down,0,0.439,,0.296666667,-0.12,1,0,0,0,137,137,4,1,moes,images/br_moes.png,images/cb_moes.png,0,,,,,,,,,,,,,,,,,,,,,,
,,,,,00089,2023-10-27_15h36.28.489,vbt_B1_day4,2022.2.4,MacIntel,58.82352941,,,,,,down,0,1.85,,0.296666667,-0.12,1,0,0,0,138,138,50,1,stoom,images/br_stoom.png,images/cb_stoom.png,0,,,,,,,,,,,,,,,,,,,,,,
,,,,,00089,2023-10-27_15h36.28.489,vbt_B1_day4,2022.2.4,MacIntel,58.82352941,,,,,,down,0,2.004,,0.295555556,-0.12,1,0,0,0,139,139,189,1,aanraden,images/br_aanraden.png,images/cb_aanraden.png,0,,,,,,,,,,,,,,,,,,,,,,
,,,,,00089,2023-10-27_15h36.28.489,vbt_B1_day4,2022.2.4,MacIntel,58.82352941,,,,,,down,0,5.267,,0.295555556,-0.12,1,0,0,0,140,140,160,1,daarheen,images/br_daarheen.png,images/cb_daarheen.png,0,,,,,,,,,,,,,,,,,,,,,,
,,,,,00089,2023-10-27_15h36.28.489,vbt_B1_day4,2022.2.4,MacIntel,58.82352941,,,,,,down,0,0.271,,0.295555556,-0.12,1,0,0,0,141,141,39,1,laag,images/br_laag.png,images/cb_laag.png,0,,,,,,,,,,,,,,,,,,,,,,
,,,,,00089,2023-10-27_15h36.28.489,vbt_B1_day4,2022.2.4,MacIntel,58.82352941,,,,,,down,0,3.234,,0.295555556,-0.12,1,0,0,0,142,142,182,1,bijkomen,images/br_bijkomen.png,images/cb_bijkomen.png,0,,,,,,,,,,,,,,,,,,,,,,
,,,,,00089,2023-10-27_15h36.28.489,vbt_B1_day4,2022.2.4,MacIntel,58.82352941,,,,,,down,0,5.918,,0.295555556,-0.12,1,0,0,0,143,143,149,1,redding,images/br_redding.png,images/cb_redding.png,0,,,,,,,,,,,,,,,,,,,,,,
,,,,,00089,2023-10-27_15h36.28.489,vbt_B1_day4,2022.2.4,MacIntel,58.82352941,,,,,,down,0,0.254,,0.295555556,-0.12,1,0,0,0,144,144,14,1,rijp,images/br_rijp.png,images/cb_rijp.png,0,,,,,,,,,,,,,,,,,,,,,,
,,,,,00089,2023-10-27_15h36.28.489,vbt_B1_day4,2022.2.4,MacIntel,58.82352941,,,,,,down,0,2.068,,0.295555556,-0.12,1,0,0,0,145,145,28,1,stal,images/br_stal.png,images/cb_stal.png,0,,,,,,,,,,,,,,,,,,,,,,
,,,,,00089,2023-10-27_15h36.28.489,vbt_B1_day4,2022.2.4,MacIntel,58.82352941,,,,,,down,0,0.223,,0.295555556,-0.12,1,0,0,0,146,146,120,1,klimmen,images/br_klimmen.png,images/cb_klimmen.png,0,,,,,,,,,,,,,,,,,,,,,,
,,,,,00089,2023-10-27_15h36.28.489,vbt_B1_day4,2022.2.4,MacIntel,58.82352941,,,,,,down,0,2.582,,0.295555556,-0.12,1,0,0,0,147,147,195,1,middelen,images/br_middelen.png,images/cb_middelen.png,0,,,,,,,,,,,,,,,,,,,,,,
,,,,,00089,2023-10-27_15h36.28.489,vbt_B1_day4,2022.2.4,MacIntel,58.82352941,,,,,,down,0,0.45,,0.295555556,-0.12,1,0,0,0,148,148,139,1,stiekem,images/br_stiekem.png,images/cb_stiekem.png,0,,,,,,,,,,,,,,,,,,,,,,
,,,,,00089,2023-10-27_15h36.28.489,vbt_B1_day4,2022.2.4,MacIntel,58.82352941,,,,,,down,0,18.723,,0.038888889,-0.006666667,1,0,0,0,149,149,193,1,weeshuis,images/br_weeshuis.png,images/cb_weeshuis.png,0,,,,,,,,,,,,,,,,,,,,,,
,,,,,00089,2023-10-27_15h36.28.489,vbt_B1_day4,2022.2.4,MacIntel,58.82352941,,,,,,down,0,1.558,,0.038888889,-0.006666667,1,0,0,0,150,150,132,1,grappen,images/br_grappen.png,images/cb_grappen.png,0,,,,,,,,,,,,,,,,,,,,,,
,,,,,00089,2023-10-27_15h36.28.489,vbt_B1_day4,2022.2.4,MacIntel,58.82352941,,,,,,down,0,0.252,,0.038888889,-0.006666667,1,0,0,0,151,151,86,1,woning,images/br_woning.png,images/cb_woning.png,0,,,,,,,,,,,,,,,,,,,,,,
,,,,,00089,2023-10-27_15h36.28.489,vbt_B1_day4,2022.2.4,MacIntel,58.82352941,,,,,,down,0,0.223,,0.038888889,-0.006666667,1,0,0,0,152,152,0,1,slak,images/br_slak.png,images/cb_slak.png,0,,,,,,,,,,,,,,,,,,,,,,
,,,,,00089,2023-10-27_15h36.28.489,vbt_B1_day4,2022.2.4,MacIntel,58.82352941,,,,,,down,0,1.184,,0.038888889,-0.006666667,1,0,0,0,153,153,133,1,seizoen,images/br_seizoen.png,images/cb_seizoen.png,0,,,,,,,,,,,,,,,,,,,,,,
,,,,,00089,2023-10-27_15h36.28.489,vbt_B1_day4,2022.2.4,MacIntel,58.82352941,,,,,,down,0,4.067,,0.038888889,-0.006666667,1,0,0,0,154,154,68,1,schat,images/br_schat.png,images/cb_schat.png,0,,,,,,,,,,,,,,,,,,,,,,
,,,,,00089,2023-10-27_15h36.28.489,vbt_B1_day4,2022.2.4,MacIntel,58.82352941,,,,,,down,0,1.636,,0.145555556,0.036666667,1,0,0,0,155,155,146,1,opkomen,images/br_opkomen.png,images/cb_opkomen.png,1,opkomen,,,,,,,,,,,,,,,,,,,,,
,,,,,00089,2023-10-27_15h36.28.489,vbt_B1_day4,2022.2.4,MacIntel,58.82352941,,,,,,down,0,3.9,,0.068888889,-0.018888889,1,0,0,0,156,156,168,1,bisschop,images/br_bisschop.png,images/cb_bisschop.png,0,,,,,,,,,,,,,,,,,,,,,,
,,,,,00089,2023-10-27_15h36.28.489,vbt_B1_day4,2022.2.4,MacIntel,58.82352941,,,,,,down,0,2.335,,0.07,-0.018888889,1,0,0,0,157,157,93,1,waarop,images/br_waarop.png,images/cb_waarop.png,0,,,,,,,,,,,,,,,,,,,,,,
,,,,,00089,2023-10-27_15h36.28.489,vbt_B1_day4,2022.2.4,MacIntel,58.82352941,,,,,,down,0,2.619,,0.068888889,-0.02,1,0,0,0,158,158,96,1,slagen,images/br_slagen.png,images/cb_slagen.png,0,,,,,,,,,,,,,,,,,,,,,,
,,,,,00089,2023-10-27_15h36.28.489,vbt_B1_day4,2022.2.4,MacIntel,58.82352941,,,,,,down,0,3.969,,0.233333333,-0.006666667,1,0,0,0,159,159,107,1,maling,images/br_maling.png,images/cb_maling.png,1,maling,,,,,,,,,,,,,,,,,,,,,
,,,,,00089,2023-10-27_15h36.28.489,vbt_B1_day4,2022.2.4,MacIntel,58.82352941,,,,,,down,0,3.501,,0.136666667,-0.12,1,0,0,0,160,160,138,1,akkoord,images/br_akkoord.png,images/cb_akkoord.png,0,,,,,,,,,,,,,,,,,,,,,,
,,,,,00089,2023-10-27_15h36.28.489,vbt_B1_day4,2022.2.4,MacIntel,58.82352941,,,,,,down,0,6.408,,0.1,-0.106666667,1,0,0,0,161,161,157,1,uitlaat,images/br_uitlaat.png,images/cb_uitlaat.png,0,,,,,,,,,,,,,,,,,,,,,,
,,,,,00089,2023-10-27_15h36.28.489,vbt_B1_day4,2022.2.4,MacIntel,58.82352941,,,,,,down,0,12.753,,0.102222222,-0.106666667,1,0,0,0,162,162,105,1,wijlen,images/br_wijlen.png,images/cb_wijlen.png,1,wijlen,,,,,,,,,,,,,,,,,,,,,
,,,,,00089,2023-10-27_15h36.28.489,vbt_B1_day4,2022.2.4,MacIntel,58.82352941,,,,,,down,0,0.354,,0.102222222,-0.106666667,1,0,0,0,163,163,124,1,bloeien,images/br_bloeien.png,images/cb_bloeien.png,0,,,,,,,,,,,,,,,,,,,,,,
,,,,,00089,2023-10-27_15h36.28.489,vbt_B1_day4,2022.2.4,MacIntel,58.82352941,,,,,,down,0,1.324,,0.102222222,-0.106666667,1,0,0,0,164,164,177,1,maaltijd,images/br_maaltijd.png,images/cb_maaltijd.png,0,,,,,,,,,,,,,,,,,,,,,,
,,,,,00089,2023-10-27_15h36.28.489,vbt_B1_day4,2022.2.4,MacIntel,58.82352941,,,,,,down,0,8.6,,0.102222222,-0.106666667,1,0,0,0,165,165,83,1,mening,images/br_mening.png,images/cb_mening.png,0,,,,,,,,,,,,,,,,,,,,,,
,,,,,00089,2023-10-27_15h36.28.489,vbt_B1_day4,2022.2.4,MacIntel,58.82352941,,,,,,down,0,9.066,,0.102222222,-0.106666667,1,0,0,0,166,166,136,1,waarbij,images/br_waarbij.png,images/cb_waarbij.png,0,,,,,,,,,,,,,,,,,,,,,,
,,,,,00089,2023-10-27_15h36.28.489,vbt_B1_day4,2022.2.4,MacIntel,58.82352941,,,,,,down,0,0.551,,0.102222222,-0.106666667,1,0,0,0,167,167,32,1,palm,images/br_palm.png,images/cb_palm.png,0,,,,,,,,,,,,,,,,,,,,,,
,,,,,00089,2023-10-27_15h36.28.489,vbt_B1_day4,2022.2.4,MacIntel,58.82352941,,,,,,down,0,4.415,,0.102222222,-0.106666667,1,0,0,0,168,168,192,1,schaamte,images/br_schaamte.png,images/cb_schaamte.png,0,,,,,,,,,,,,,,,,,,,,,,
,,,,,00089,2023-10-27_15h36.28.489,vbt_B1_day4,2022.2.4,MacIntel,58.82352941,,,,,,down,0,0.79,,0.102222222,-0.106666667,1,0,0,0,169,169,46,1,jagen,images/br_jagen.png,images/cb_jagen.png,0,,,,,,,,,,,,,,,,,,,,,,
,,,,,00089,2023-10-27_15h36.28.489,vbt_B1_day4,2022.2.4,MacIntel,58.82352941,,,,,,down,0,0.234,,0.102222222,-0.106666667,1,0,0,0,170,170,55,1,praat,images/br_praat.png,images/cb_praat.png,0,,,,,,,,,,,,,,,,,,,,,,
,,,,,00089,2023-10-27_15h36.28.489,vbt_B1_day4,2022.2.4,MacIntel,58.82352941,,,,,,down,0,0.042,,0.102222222,-0.106666667,1,0,0,0,171,171,42,1,bleek,images/br_bleek.png,images/cb_bleek.png,0,,,,,,,,,,,,,,,,,,,,,,
,,,,,00089,2023-10-27_15h36.28.489,vbt_B1_day4,2022.2.4,MacIntel,58.82352941,,,,,,down,0,2.256,,0.102222222,-0.106666667,1,0,0,0,172,172,26,1,leuk,images/br_leuk.png,images/cb_leuk.png,1,leuk,,,,,,,,,,,,,,,,,,,,,
,,,,,00089,2023-10-27_15h36.28.489,vbt_B1_day4,2022.2.4,MacIntel,58.82352941,,,,,,down,0,0.838,,0.102222222,-0.106666667,1,0,0,0,173,173,56,1,traag,images/br_traag.png,images/cb_traag.png,0,,,,,,,,,,,,,,,,,,,,,,
,,,,,00089,2023-10-27_15h36.28.489,vbt_B1_day4,2022.2.4,MacIntel,58.82352941,,,,,,down,0,4.301,,0.121111111,-0.106666667,1,0,0,0,174,174,143,1,hechten,images/br_hechten.png,images/cb_hechten.png,0,,,,,,,,,,,,,,,,,,,,,,
,,,,,00089,2023-10-27_15h36.28.489,vbt_B1_day4,2022.2.4,MacIntel,58.82352941,,,,,,down,0,1.701,,0.121111111,-0.106666667,1,0,0,0,175,175,109,1,totaal,images/br_totaal.png,images/cb_totaal.png,0,,,,,,,,,,,,,,,,,,,,,,
,,,,,00089,2023-10-27_15h36.28.489,vbt_B1_day4,2022.2.4,MacIntel,58.82352941,,,,,,down,0,1.536,,0.121111111,-0.106666667,1,0,0,0,176,176,75,1,snoep,images/br_snoep.png,images/cb_snoep.png,0,,,,,,,,,,,,,,,,,,,,,,
,,,,,00089,2023-10-27_15h36.28.489,vbt_B1_day4,2022.2.4,MacIntel,58.82352941,,,,,,down,0,4.667,,0.117777778,-0.11,1,0,0,0,177,177,3,1,mand,images/br_mand.png,images/cb_mand.png,0,,,,,,,,,,,,,,,,,,,,,,
,,,,,00089,2023-10-27_15h36.28.489,vbt_B1_day4,2022.2.4,MacIntel,58.82352941,,,,,,down,0,0.422,,0.116666667,-0.11,1,0,0,0,178,178,130,1,keihard,images/br_keihard.png,images/cb_keihard.png,0,,,,,,,,,,,,,,,,,,,,,,
,,,,,00089,2023-10-27_15h36.28.489,vbt_B1_day4,2022.2.4,MacIntel,58.82352941,,,,,,down,0,2.456,,0.116666667,-0.11,1,0,0,0,179,179,87,1,toeval,images/br_toeval.png,images/cb_toeval.png,0,,,,,,,,,,,,,,,,,,,,,,
,,,,,00089,2023-10-27_15h36.28.489,vbt_B1_day4,2022.2.4,MacIntel,58.82352941,,,,,,down,0,0.551,,0.116666667,-0.11,1,0,0,0,180,180,38,1,baai,images/br_baai.png,images/cb_baai.png,0,,,,,,,,,,,,,,,,,,,,,,
,,,,,00089,2023-10-27_15h36.28.489,vbt_B1_day4,2022.2.4,MacIntel,58.82352941,,,,,,down,0,2.839,,0.116666667,-0.11,1,0,0,0,181,181,173,1,apparaat,images/br_apparaat.png,images/cb_apparaat.png,0,,,,,,,,,,,,,,,,,,,,,,
,,,,,00089,2023-10-27_15h36.28.489,vbt_B1_day4,2022.2.4,MacIntel,58.82352941,,,,,,down,0,8.4,,0.116666667,-0.11,1,0,0,0,182,182,57,1,steek,images/br_steek.png,images/cb_steek.png,0,,,,,,,,,,,,,,,,,,,,,,
,,,,,00089,2023-10-27_15h36.28.489,vbt_B1_day4,2022.2.4,MacIntel,58.82352941,,,,,,down,0,0.535,,0.116666667,-0.11,1,0,0,0,183,183,9,1,hier,images/br_hier.png,images/cb_hier.png,0,,,,,,,,,,,,,,,,,,,,,,
,,,,,00089,2023-10-27_15h36.28.489,vbt_B1_day4,2022.2.4,MacIntel,58.82352941,,,,,,down,0,0.338,,0.116666667,-0.11,1,0,0,0,184,184,13,1,kaal,images/br_kaal.png,images/cb_kaal.png,0,,,,,,,,,,,,,,,,,,,,,,
,,,,,00089,2023-10-27_15h36.28.489,vbt_B1_day4,2022.2.4,MacIntel,58.82352941,,,,,,down,0,1.539,,0.116666667,-0.11,1,0,0,0,185,185,169,1,oprotten,images/br_oprotten.png,images/cb_oprotten.png,0,,,,,,,,,,,,,,,,,,,,,,
,,,,,00089,2023-10-27_15h36.28.489,vbt_B1_day4,2022.2.4,MacIntel,58.82352941,,,,,,down,0,4.141,,0.116666667,-0.11,1,0,0,0,186,186,27,1,dans,images/br_dans.png,images/cb_dans.png,1,dans,,,,,,,,,,,,,,,,,,,,,
,,,,,00089,2023-10-27_15h36.28.489,vbt_B1_day4,2022.2.4,MacIntel,58.82352941,,,,,,down,0,0.433,,0.116666667,-0.11,1,0,0,0,187,187,89,1,slapen,images/br_slapen.png,images/cb_slapen.png,0,,,,,,,,,,,,,,,,,,,,,,
,,,,,00089,2023-10-27_15h36.28.489,vbt_B1_day4,2022.2.4,MacIntel,58.82352941,,,,,,down,0,0.216,,0.116666667,-0.11,1,0,0,0,188,188,47,1,kabel,images/br_kabel.png,images/cb_kabel.png,0,,,,,,,,,,,,,,,,,,,,,,
,,,,,00089,2023-10-27_15h36.28.489,vbt_B1_day4,2022.2.4,MacIntel,58.82352941,,,,,,down,0,1.767,,0.116666667,-0.11,1,0,0,0,189,189,11,1,mode,images/br_mode.png,images/cb_mode.png,0,,,,,,,,,,,,,,,,,,,,,,
,,,,,00089,2023-10-27_15h36.28.489,vbt_B1_day4,2022.2.4,MacIntel,58.82352941,,,,,,down,0,3.301,,0.116666667,-0.11,1,0,0,0,190,190,113,1,koppen,images/br_koppen.png,images/cb_koppen.png,0,,,,,,,,,,,,,,,,,,,,,,
,,,,,00089,2023-10-27_15h36.28.489,vbt_B1_day4,2022.2.4,MacIntel,58.82352941,,,,,,down,0,3.904,,0.116666667,-0.11,1,0,0,0,191,191,79,1,nodig,images/br_nodig.png,images/cb_nodig.png,0,,,,,,,,,,,,,,,,,,,,,,
,,,,,00089,2023-10-27_15h36.28.489,vbt_B1_day4,2022.2.4,MacIntel,58.82352941,,,,,,down,0,12.252,,0.083333333,-0.022222222,1,0,0,0,192,192,118,1,vinger,images/br_vinger.png,images/cb_vinger.png,0,,,,,,,,,,,,,,,,,,,,,,
,,,,,00089,2023-10-27_15h36.28.489,vbt_B1_day4,2022.2.4,MacIntel,58.82352941,,,,,,down,0,3.869,,0.083333333,-0.022222222,1,0,0,0,193,193,104,1,zweven,images/br_zweven.png,images/cb_zweven.png,1,zweven,,,,,,,,,,,,,,,,,,,,,
,,,,,00089,2023-10-27_15h36.28.489,vbt_B1_day4,2022.2.4,MacIntel,58.82352941,,,,,,down,0,5.253,,0.078888889,-0.021111111,1,0,0,0,194,194,186,1,voorraad,images/br_voorraad.png,images/cb_voorraad.png,1,voorraad,,,,,,,,,,,,,,,,,,,,,
,,,,,00089,2023-10-27_15h36.28.489,vbt_B1_day4,2022.2.4,MacIntel,58.82352941,,,,,,down,0,0.001,,0.078888889,-0.022222222,1,0,0,0,195,195,92,1,geheim,images/br_geheim.png,images/cb_geheim.png,0,,,,,,,,,,,,,,,,,,,,,,
,,,,,00089,2023-10-27_15h36.28.489,vbt_B1_day4,2022.2.4,MacIntel,58.82352941,,,,,,down,0,0.288,,0.078888889,-0.022222222,1,0,0,0,196,196,62,1,knaap,images/br_knaap.png,images/cb_knaap.png,0,,,,,,,,,,,,,,,,,,,,,,
,,,,,00089,2023-10-27_15h36.28.489,vbt_B1_day4,2022.2.4,MacIntel,58.82352941,,,,,,down,0,1.483,,0.078888889,-0.022222222,1,0,0,0,197,197,114,1,vullen,images/br_vullen.png,images/cb_vullen.png,0,,,,,,,,,,,,,,,,,,,,,,
,,,,,00089,2023-10-27_15h36.28.489,vbt_B1_day4,2022.2.4,MacIntel,58.82352941,,,,,,down,0,0.001,,0.078888889,-0.022222222,1,0,0,0,198,198,30,1,uien,images/br_uien.png,images/cb_uien.png,0,,,,,,,,,,,,,,,,,,,,,,
,,,,,00089,2023-10-27_15h36.28.489,vbt_B1_day4,2022.2.4,MacIntel,58.82352941,,,,,,down,0,0.04,,0.078888889,-0.022222222,1,0,0,0,199,199,17,1,taal,images/br_taal.png,images/cb_taal.png,0,,,,,,,,,,,,,,,,,,,,,,
,,,,,00089,2023-10-27_15h36.28.489,vbt_B1_day4,2022.2.4,MacIntel,58.82352941,,,,,,,,,,,,,,,,,,,,,,,,,0.027777778,0.005555556,1,0,0,,,,,,,,,,,,,,,,
,,,,,00089,2023-10-27_15h36.28.489,vbt_B1_day4,2022.2.4,MacIntel,58.82352941,,,,,,,,,,,,,,,,,,,,,,,,,,,,,,0.034444444,0.014444444,1,0,0,,,,,,,,,,,
,,,,,00089,2023-10-27_15h36.28.489,vbt_B1_day4,2022.2.4,MacIntel,58.82352941,,,,,,,,,,,,,,,,,,,,rijp,images/br_rijp.png,images/cb_rijp.png,,rijp,,,,,,,,,,,0.105555556,-0.034444444,1,0,0,rijp,0,0,0,2,1
,,,,,00089,2023-10-27_15h36.28.489,vbt_B1_day4,2022.2.4,MacIntel,58.82352941,,,,,,,,,,,,,,,,,,,,opkicht,images/br_opkicht.png,images/cb_opkicht.png,,opkicht,,,,,,,,,,,-0.031111111,-0.06,1,0,0,opkicht,0,1,1,34,1
,,,,,00089,2023-10-27_15h36.28.489,vbt_B1_day4,2022.2.4,MacIntel,58.82352941,,,,,,,,,,,,,,,,,,,,kust,images/br_kust.png,images/cb_kust.png,,kust,,,,,,,,,,,-0.023333333,-0.024444444,1,0,0,kust,0,2,2,0,1
,,,,,00089,2023-10-27_15h36.28.489,vbt_B1_day4,2022.2.4,MacIntel,58.82352941,,,,,,,,,,,,,,,,,,,,tucket,images/br_tucket.png,images/cb_tucket.png,,tucket,,,,,,,,,,,0.14,-0.276666667,1,0,0,tucket,0,3,3,30,1
,,,,,00089,2023-10-27_15h36.28.489,vbt_B1_day4,2022.2.4,MacIntel,58.82352941,,,,,,,,,,,,,,,,,,,,wozing,images/br_wozing.png,images/cb_wozing.png,,woning,,,,,,,,,,,0.187777778,-0.305555556,1,0,0,woning,0,4,4,28,1
,,,,,00089,2023-10-27_15h36.28.489,vbt_B1_day4,2022.2.4,MacIntel,58.82352941,,,,,,,,,,,,,,,,,,,,gedicht,images/br_gedicht.png,images/cb_gedicht.png,,gedicht,,,,,,,,,,,0.207777778,-0.314444444,1,0,0,gedicht,0,5,5,15,1
,,,,,00089,2023-10-27_15h36.28.489,vbt_B1_day4,2022.2.4,MacIntel,58.82352941,,,,,,,,,,,,,,,,,,,,opruimen,images/br_opruimen.png,images/cb_opruimen.png,,"opku,,,,",,,,,,,,,,,0.08,-0.27,1,0,0,"opku,,,,",0,6,6,59,1
,,,,,00089,2023-10-27_15h36.28.489,vbt_B1_day4,2022.2.4,MacIntel,58.82352941,,,,,,,,,,,,,,,,,,,,paalbaak,images/br_paalbaak.png,images/cb_paalbaak.png,,paalbaak,,,,,,,,,,,0.075555556,-0.288888889,1,0,0,paalbaak,0,7,7,39,1
,,,,,00089,2023-10-27_15h36.28.489,vbt_B1_day4,2022.2.4,MacIntel,58.82352941,,,,,,,,,,,,,,,,,,,,gaan,images/br_gaan.png,images/cb_gaan.png,,gaan,,,,,,,,,,,0.094444444,-0.285555556,1,0,0,gaan,0,8,8,41,1
,,,,,00089,2023-10-27_15h36.28.489,vbt_B1_day4,2022.2.4,MacIntel,58.82352941,,,,,,,,,,,,,,,,,,,,baron,images/br_baron.png,images/cb_baron.png,,baron,,,,,,,,,,,0.253333333,-0.107777778,1,0,0,baron,0,9,9,5,1
,,,,,00089,2023-10-27_15h36.28.489,vbt_B1_day4,2022.2.4,MacIntel,58.82352941,,,,,,,,,,,,,,,,,,,,bruin,images/br_bruin.png,images/cb_bruin.png,,bruin,,,,,,,,,,,0.363333333,-0.102222222,1,0,0,bruin,0,10,10,45,1
,,,,,00089,2023-10-27_15h36.28.489,vbt_B1_day4,2022.2.4,MacIntel,58.82352941,,,,,,,,,,,,,,,,,,,,grappen,images/br_grappen.png,images/cb_grappen.png,,grappen,,,,,,,,,,,0.328888889,-0.064444444,1,0,0,grappen,0,11,11,12,1
,,,,,00089,2023-10-27_15h36.28.489,vbt_B1_day4,2022.2.4,MacIntel,58.82352941,,,,,,,,,,,,,,,,,,,,dozijn,images/br_dozijn.png,images/cb_dozijn.png,,"gozi,,",,,,,,,,,,,0.385555556,-0.058888889,1,0,0,"gozi,,",0,12,12,48,1
,,,,,00089,2023-10-27_15h36.28.489,vbt_B1_day4,2022.2.4,MacIntel,58.82352941,,,,,,,,,,,,,,,,,,,,heengaan,images/br_heengaan.png,images/cb_heengaan.png,,"deen,,,,",,,,,,,,,,,0.157777778,-0.118888889,1,0,0,"deen,,,,",0,13,13,19,1
,,,,,00089,2023-10-27_15h36.28.489,vbt_B1_day4,2022.2.4,MacIntel,58.82352941,,,,,,,,,,,,,,,,,,,,waarop,images/br_waarop.png,images/cb_waarop.png,,waarop,,,,,,,,,,,0.148888889,-0.11,1,0,0,waarop,0,14,14,9,1
,,,,,00089,2023-10-27_15h36.28.489,vbt_B1_day4,2022.2.4,MacIntel,58.82352941,,,,,,,,,,,,,,,,,,,,geheim,images/br_geheim.png,images/cb_geheim.png,,gedein,,,,,,,,,,,0.087777778,-0.251111111,1,0,0,gedein,0,15,15,8,1
,,,,,00089,2023-10-27_15h36.28.489,vbt_B1_day4,2022.2.4,MacIntel,58.82352941,,,,,,,,,,,,,,,,,,,,wagon,images/br_wagon.png,images/cb_wagon.png,,wagon,,,,,,,,,,,0.311111111,-0.263333333,1,0,0,wagon,0,16,16,4,1
,,,,,00089,2023-10-27_15h36.28.489,vbt_B1_day4,2022.2.4,MacIntel,58.82352941,,,,,,,,,,,,,,,,,,,,ezel,images/br_ezel.png,images/cb_ezel.png,,ezel,,,,,,,,,,,0.248888889,-0.197777778,1,0,0,ezel,0,17,17,42,1
,,,,,00089,2023-10-27_15h36.28.489,vbt_B1_day4,2022.2.4,MacIntel,58.82352941,,,,,,,,,,,,,,,,,,,,praat,images/br_praat.png,images/cb_praat.png,,praat,,,,,,,,,,,0.318888889,-0.217777778,1,0,0,praat,0,18,18,7,1
,,,,,00089,2023-10-27_15h36.28.489,vbt_B1_day4,2022.2.4,MacIntel,58.82352941,,,,,,,,,,,,,,,,,,,,broodje,images/br_broodje.png,images/cb_broodje.png,,broodje,,,,,,,,,,,0.32,-0.212222222,1,0,0,broodje,0,19,19,55,1
,,,,,00089,2023-10-27_15h36.28.489,vbt_B1_day4,2022.2.4,MacIntel,58.82352941,,,,,,,,,,,,,,,,,,,,drooien,images/br_drooien.png,images/cb_drooien.png,,drooien,,,,,,,,,,,0.05,-0.273333333,1,0,0,drooien,0,20,20,32,1
,,,,,00089,2023-10-27_15h36.28.489,vbt_B1_day4,2022.2.4,MacIntel,58.82352941,,,,,,,,,,,,,,,,,,,,pijnlijk,images/br_pijnlijk.png,images/cb_pijnlijk.png,,"pij,,,,",,,,,,,,,,,0.044444444,-0.297777778,1,0,0,"pij,,,,",0,21,21,58,1
,,,,,00089,2023-10-27_15h36.28.489,vbt_B1_day4,2022.2.4,MacIntel,58.82352941,,,,,,,,,,,,,,,,,,,,geliefd,images/br_geliefd.png,images/cb_geliefd.png,,geliefd,,,,,,,,,,,0.128888889,-0.272222222,1,0,0,geliefd,0,22,22,14,1
,,,,,00089,2023-10-27_15h36.28.489,vbt_B1_day4,2022.2.4,MacIntel,58.82352941,,,,,,,,,,,,,,,,,,,,dalen,images/br_dalen.png,images/cb_dalen.png,,dalen,,,,,,,,,,,0.053333333,-0.113333333,1,0,0,dalen,0,23,23,46,1
,,,,,00089,2023-10-27_15h36.28.489,vbt_B1_day4,2022.2.4,MacIntel,58.82352941,,,,,,,,,,,,,,,,,,,,gebit,images/br_gebit.png,images/cb_gebit.png,,gebit,,,,,,,,,,,0.087777778,-0.081111111,1,0,0,gebit,0,24,24,6,1
,,,,,00089,2023-10-27_15h36.28.489,vbt_B1_day4,2022.2.4,MacIntel,58.82352941,,,,,,,,,,,,,,,,,,,,apparaat,images/br_apparaat.png,images/cb_apparaat.png,,apparaat,,,,,,,,,,,0.046666667,-0.056666667,1,0,0,apparaat,0,25,25,17,1
,,,,,00089,2023-10-27_15h36.28.489,vbt_B1_day4,2022.2.4,MacIntel,58.82352941,,,,,,,,,,,,,,,,,,,,strok,images/br_strok.png,images/cb_strok.png,,strok,,,,,,,,,,,-0.116666667,-0.014444444,1,0,0,strok,0,26,26,25,1
,,,,,00089,2023-10-27_15h36.28.489,vbt_B1_day4,2022.2.4,MacIntel,58.82352941,,,,,,,,,,,,,,,,,,,,warel,images/br_warel.png,images/cb_warel.png,,warel,,,,,,,,,,,-0.168888889,0.016666667,1,0,0,warel,0,27,27,26,1
,,,,,00089,2023-10-27_15h36.28.489,vbt_B1_day4,2022.2.4,MacIntel,58.82352941,,,,,,,,,,,,,,,,,,,,drummer,images/br_drummer.png,images/cb_drummer.png,,drummet,,,,,,,,,,,0.038888889,-0.325555556,1,0,0,drummet,0,28,28,53,1
,,,,,00089,2023-10-27_15h36.28.489,vbt_B1_day4,2022.2.4,MacIntel,58.82352941,,,,,,,,,,,,,,,,,,,,bisschap,images/br_bisschap.png,images/cb_bisschap.png,,bisschop,,,,,,,,,,,-0.011111111,-0.281111111,1,0,0,bisschop,0,29,29,36,1
,,,,,00089,2023-10-27_15h36.28.489,vbt_B1_day4,2022.2.4,MacIntel,58.82352941,,,,,,,,,,,,,,,,,,,,soda,images/br_soda.png,images/cb_soda.png,,soda,,,,,,,,,,,-0.016666667,-0.29,1,0,0,soda,0,30,30,3,1
,,,,,00089,2023-10-27_15h36.28.489,vbt_B1_day4,2022.2.4,MacIntel,58.82352941,,,,,,,,,,,,,,,,,,,,aanzwaag,images/br_aanzwaag.png,images/cb_aanzwaag.png,,aanzwaag,,,,,,,,,,,0.004444444,-0.304444444,1,0,0,aanzwaag,0,31,31,38,1
,,,,,00089,2023-10-27_15h36.28.489,vbt_B1_day4,2022.2.4,MacIntel,58.82352941,,,,,,,,,,,,,,,,,,,,gijf,images/br_gijf.png,images/cb_gijf.png,,gidf,,,,,,,,,,,0.031111111,-0.292222222,1,0,0,gidf,0,32,32,23,1
,,,,,00089,2023-10-27_15h36.28.489,vbt_B1_day4,2022.2.4,MacIntel,58.82352941,,,,,,,,,,,,,,,,,,,,gebog,images/br_gebog.png,images/cb_gebog.png,,gebog,,,,,,,,,,,0.015555556,-0.281111111,1,0,0,gebog,0,33,33,24,1
,,,,,00089,2023-10-27_15h36.28.489,vbt_B1_day4,2022.2.4,MacIntel,58.82352941,,,,,,,,,,,,,,,,,,,,haza,images/br_haza.png,images/cb_haza.png,,gaza,,,,,,,,,,,-0.091111111,-0.262222222,1,0,0,gaza,0,34,34,21,1
,,,,,00089,2023-10-27_15h36.28.489,vbt_B1_day4,2022.2.4,MacIntel,58.82352941,,,,,,,,,,,,,,,,,,,,getucht,images/br_getucht.png,images/cb_getucht.png,,"getuc,,,",,,,,,,,,,,-0.03,-0.3,1,0,0,"getuc,,,",0,35,35,35,1
,,,,,00089,2023-10-27_15h36.28.489,vbt_B1_day4,2022.2.4,MacIntel,58.82352941,,,,,,,,,,,,,,,,,,,,seizoon,images/br_seizoon.png,images/cb_seizoon.png,,seizoon,,,,,,,,,,,0.012222222,-0.275555556,1,0,0,seizoon,0,36,36,33,1
,,,,,00089,2023-10-27_15h36.28.489,vbt_B1_day4,2022.2.4,MacIntel,58.82352941,,,,,,,,,,,,,,,,,,,,vreten,images/br_vreten.png,images/cb_vreten.png,,vreten,,,,,,,,,,,0.007777778,-0.325555556,1,0,0,vreten,0,37,37,11,1
,,,,,00089,2023-10-27_15h36.28.489,vbt_B1_day4,2022.2.4,MacIntel,58.82352941,,,,,,,,,,,,,,,,,,,,flippen,images/br_flippen.png,images/cb_flippen.png,,flippen,,,,,,,,,,,-0.013333333,-0.351111111,1,0,0,flippen,0,38,38,54,1
,,,,,00089,2023-10-27_15h36.28.489,vbt_B1_day4,2022.2.4,MacIntel,58.82352941,,,,,,,,,,,,,,,,,,,,noodzaak,images/br_noodzaak.png,images/cb_noodzaak.png,,"noodza,,,",,,,,,,,,,,-0.064444444,-0.351111111,1,0,0,"noodza,,,",0,39,39,56,1
,,,,,00089,2023-10-27_15h36.28.489,vbt_B1_day4,2022.2.4,MacIntel,58.82352941,,,,,,,,,,,,,,,,,,,,snee,images/br_snee.png,images/cb_snee.png,,snee,,,,,,,,,,,-0.086666667,-0.348888889,1,0,0,snee,0,40,40,40,1
,,,,,00089,2023-10-27_15h36.28.489,vbt_B1_day4,2022.2.4,MacIntel,58.82352941,,,,,,,,,,,,,,,,,,,,pittig,images/br_pittig.png,images/cb_pittig.png,,pittig,,,,,,,,,,,-0.286666667,-0.243333333,1,0,0,pittig,0,41,41,51,1
,,,,,00089,2023-10-27_15h36.28.489,vbt_B1_day4,2022.2.4,MacIntel,58.82352941,,,,,,,,,,,,,,,,,,,,lappen,images/br_lappen.png,images/cb_lappen.png,,lappen,,,,,,,,,,,-0.367777778,-0.106666667,1,0,0,lappen,0,42,42,49,1
,,,,,00089,2023-10-27_15h36.28.489,vbt_B1_day4,2022.2.4,MacIntel,58.82352941,,,,,,,,,,,,,,,,,,,,zwek,images/br_zwek.png,images/cb_zwek.png,,zwek,,,,,,,,,,,-0.061111111,-0.322222222,1,0,0,zwek,0,43,43,20,1
,,,,,00089,2023-10-27_15h36.28.489,vbt_B1_day4,2022.2.4,MacIntel,58.82352941,,,,,,,,,,,,,,,,,,,,toevol,images/br_toevol.png,images/cb_toevol.png,,toevol,,,,,,,,,,,-0.068888889,-0.347777778,1,0,0,toevol,0,44,44,29,1
,,,,,00089,2023-10-27_15h36.28.489,vbt_B1_day4,2022.2.4,MacIntel,58.82352941,,,,,,,,,,,,,,,,,,,,eerst,images/br_eerst.png,images/cb_eerst.png,,eerst,,,,,,,,,,,-0.078888889,-0.357777778,1,0,0,eerst,0,45,45,47,1
,,,,,00089,2023-10-27_15h36.28.489,vbt_B1_day4,2022.2.4,MacIntel,58.82352941,,,,,,,,,,,,,,,,,,,,midden,images/br_midden.png,images/cb_midden.png,,midden,,,,,,,,,,,-0.113333333,-0.351111111,1,0,0,midden,0,46,46,50,1
,,,,,00089,2023-10-27_15h36.28.489,vbt_B1_day4,2022.2.4,MacIntel,58.82352941,,,,,,,,,,,,,,,,,,,,kaal,images/br_kaal.png,images/cb_kaal.png,,kaal,,,,,,,,,,,0.02,-0.348888889,1,0,0,kaal,0,47,47,1,1
,,,,,00089,2023-10-27_15h36.28.489,vbt_B1_day4,2022.2.4,MacIntel,58.82352941,,,,,,,,,,,,,,,,,,,,schenden,images/br_schenden.png,images/cb_schenden.png,,"schen,,,",,,,,,,,,,,-0.026666667,-0.377777778,1,0,0,"schen,,,",0,48,48,57,1
,,,,,00089,2023-10-27_15h36.28.489,vbt_B1_day4,2022.2.4,MacIntel,58.82352941,,,,,,,,,,,,,,,,,,,,stemming,images/br_stemming.png,images/cb_stemming.png,,stemming,,,,,,,,,,,-0.06,-0.384444444,1,0,0,stemming,0,49,49,18,1
,,,,,00089,2023-10-27_15h36.28.489,vbt_B1_day4,2022.2.4,MacIntel,58.82352941,,,,,,,,,,,,,,,,,,,,schotel,images/br_schotel.png,images/cb_schotel.png,,schotel,,,,,,,,,,,-0.148888889,-0.387777778,1,0,0,schotel,0,50,50,52,1
,,,,,00089,2023-10-27_15h36.28.489,vbt_B1_day4,2022.2.4,MacIntel,58.82352941,,,,,,,,,,,,,,,,,,,,seizoen,images/br_seizoen.png,images/cb_seizoen.png,,seinon,,,,,,,,,,,0.008888889,-0.284444444,1,0,0,seinon,0,51,51,13,1
,,,,,00089,2023-10-27_15h36.28.489,vbt_B1_day4,2022.2.4,MacIntel,58.82352941,,,,,,,,,,,,,,,,,,,,oceaan,images/br_oceaan.png,images/cb_oceaan.png,,oceaan,,,,,,,,,,,-0.007777778,-0.294444444,1,0,0,oceaan,0,52,52,10,1
,,,,,00089,2023-10-27_15h36.28.489,vbt_B1_day4,2022.2.4,MacIntel,58.82352941,,,,,,,,,,,,,,,,,,,,sulbon,images/br_sulbon.png,images/cb_sulbon.png,,sulbon,,,,,,,,,,,0.026666667,-0.308888889,1,0,0,sulbon,0,53,53,31,1
,,,,,00089,2023-10-27_15h36.28.489,vbt_B1_day4,2022.2.4,MacIntel,58.82352941,,,,,,,,,,,,,,,,,,,,weigeren,images/br_weigeren.png,images/cb_weigeren.png,,"weiger,,,",,,,,,,,,,,-0.004444444,-0.331111111,1,0,0,"weiger,,,",0,54,54,16,1
,,,,,00089,2023-10-27_15h36.28.489,vbt_B1_day4,2022.2.4,MacIntel,58.82352941,,,,,,,,,,,,,,,,,,,,fran,images/br_fran.png,images/cb_fran.png,,fran,,,,,,,,,,,-0.103333333,-0.34,1,0,0,fran,0,55,55,22,1
,,,,,00089,2023-10-27_15h36.28.489,vbt_B1_day4,2022.2.4,MacIntel,58.82352941,,,,,,,,,,,,,,,,,,,,gaaf,images/br_gaaf.png,images/cb_gaaf.png,,gaaf,,,,,,,,,,,-0.097777778,-0.332222222,1,0,0,gaaf,0,56,56,43,1
,,,,,00089,2023-10-27_15h36.28.489,vbt_B1_day4,2022.2.4,MacIntel,58.82352941,,,,,,,,,,,,,,,,,,,,zaalrijk,images/br_zaalrijk.png,images/cb_zaalrijk.png,,zaalkijk,,,,,,,,,,,-0.075555556,-0.338888889,1,0,0,zaalkijk,0,57,57,37,1
,,,,,00089,2023-10-27_15h36.28.489,vbt_B1_day4,2022.2.4,MacIntel,58.82352941,,,,,,,,,,,,,,,,,,,,steen,images/br_steen.png,images/cb_steen.png,,steen,,,,,,,,,,,-0.054444444,-0.372222222,1,0,0,steen,0,58,58,44,1
,,,,,00089,2023-10-27_15h36.28.489,vbt_B1_day4,2022.2.4,MacIntel,58.82352941,,,,,,,,,,,,,,,,,,,,mekst,images/br_mekst.png,images/cb_mekst.png,,"meks,",,,,,,,,,,,-0.055555556,-0.391111111,1,0,0,"meks,",0,59,59,27,1
,,,,,00089,2023-10-27_15h36.28.489,vbt_B1_day4,2022.2.4,MacIntel,58.82352941,,,,,,,,,,,,,,,,,,,,,,,,,,,,,,,,,,,,,,,,,,,,,
