welcome_mouse.x,welcome_mouse.y,welcome_mouse.leftButton,welcome_mouse.midButton,welcome_mouse.rightButton,"ID",date,expName,psychopyVersion,OS,frameRate,trainInstr_mouse.x,trainInstr_mouse.y,trainInstr_mouse.leftButton,trainInstr_mouse.midButton,trainInstr_mouse.rightButton,translation_key.keys,translation_key.corr,translation_key.rt,word_rsp.text,trWrd_mouse.x,trWrd_mouse.y,trWrd_mouse.leftButton,trWrd_mouse.midButton,trWrd_mouse.rightButton,train_loop.thisRepN,train_loop.thisTrialN,train_loop.thisN,train_loop.thisIndex,train_loop.ran,nlWrd,brWrd,cbWrd,test,testResp,mouse.x,mouse.y,mouse.leftButton,mouse.midButton,mouse.rightButton,testInstr_mouse.x,testInstr_mouse.y,testInstr_mouse.leftButton,testInstr_mouse.midButton,testInstr_mouse.rightButton,test_mouse.x,test_mouse.y,test_mouse.leftButton,test_mouse.midButton,test_mouse.rightButton,test_response.text,test_loop.thisRepN,test_loop.thisTrialN,test_loop.thisN,test_loop.thisIndex,test_loop.ran
-0.155555556,-0.265555556,1,0,0,00083,2023-10-26_10h51.42.878,vbt_B1_day4,2022.2.4,MacIntel,125,,,,,,,,,,,,,,,,,,,,,,,,,,,,,,,,,,,,,,,,,,,,,
,,,,,00083,2023-10-26_10h51.42.878,vbt_B1_day4,2022.2.4,MacIntel,125,-0.015555556,-0.232222222,1,0,0,,,,,,,,,,,,,,,,,,,,,,,,,,,,,,,,,,,,,,,,
,,,,,00083,2023-10-26_10h51.42.878,vbt_B1_day4,2022.2.4,MacIntel,125,,,,,,down,0,1005.509,,0.326666667,0.145555556,1,0,0,0,0,0,19,1,geit,images/br_geit.png,images/cb_geit.png,0,,,,,,,,,,,,,,,,,,,,,,
,,,,,00083,2023-10-26_10h51.42.878,vbt_B1_day4,2022.2.4,MacIntel,125,,,,,,down,0,0.915,,0.323333333,0.144444444,1,0,0,0,1,1,98,1,kreeft,images/br_kreeft.png,images/cb_kreeft.png,0,,,,,,,,,,,,,,,,,,,,,,
,,,,,00083,2023-10-26_10h51.42.878,vbt_B1_day4,2022.2.4,MacIntel,125,,,,,,down,0,3.022,,0.322222222,0.144444444,1,0,0,0,2,2,195,1,middelen,images/br_middelen.png,images/cb_middelen.png,0,,,,,,,,,,,,,,,,,,,,,,
,,,,,00083,2023-10-26_10h51.42.878,vbt_B1_day4,2022.2.4,MacIntel,125,,,,,,down,0,0.485,,0.322222222,0.144444444,1,0,0,0,3,3,128,1,prikken,images/br_prikken.png,images/cb_prikken.png,0,,,,,,,,,,,,,,,,,,,,,,
,,,,,00083,2023-10-26_10h51.42.878,vbt_B1_day4,2022.2.4,MacIntel,125,,,,,,down,0,0.386,,0.322222222,0.144444444,1,0,0,0,4,4,59,1,kring,images/br_kring.png,images/cb_kring.png,0,,,,,,,,,,,,,,,,,,,,,,
,,,,,00083,2023-10-26_10h51.42.878,vbt_B1_day4,2022.2.4,MacIntel,125,,,,,,down,0,0.235,,0.322222222,0.144444444,1,0,0,0,5,5,123,1,hiervan,images/br_hiervan.png,images/cb_hiervan.png,0,,,,,,,,,,,,,,,,,,,,,,
,,,,,00083,2023-10-26_10h51.42.878,vbt_B1_day4,2022.2.4,MacIntel,125,,,,,,down,0,1.352,,0.322222222,0.144444444,1,0,0,0,6,6,106,1,zingen,images/br_zingen.png,images/cb_zingen.png,1,zingen,,,,,,,,,,,,,,,,,,,,,
,,,,,00083,2023-10-26_10h51.42.878,vbt_B1_day4,2022.2.4,MacIntel,125,,,,,,down,0,2.053,,0.295555556,0.133333333,1,0,0,0,7,7,170,1,schatten,images/br_schatten.png,images/cb_schatten.png,0,,,,,,,,,,,,,,,,,,,,,,
,,,,,00083,2023-10-26_10h51.42.878,vbt_B1_day4,2022.2.4,MacIntel,125,,,,,,down,0,0.683,,0.295555556,0.133333333,1,0,0,0,8,8,39,1,laag,images/br_laag.png,images/cb_laag.png,0,,,,,,,,,,,,,,,,,,,,,,
,,,,,00083,2023-10-26_10h51.42.878,vbt_B1_day4,2022.2.4,MacIntel,125,,,,,,down,0,4.901,,0.295555556,0.133333333,1,0,0,0,9,9,159,1,sufferd,images/br_sufferd.png,images/cb_sufferd.png,0,,,,,,,,,,,,,,,,,,,,,,
,,,,,00083,2023-10-26_10h51.42.878,vbt_B1_day4,2022.2.4,MacIntel,125,,,,,,down,0,0.684,,0.295555556,0.133333333,1,0,0,0,10,10,56,1,traag,images/br_traag.png,images/cb_traag.png,0,,,,,,,,,,,,,,,,,,,,,,
,,,,,00083,2023-10-26_10h51.42.878,vbt_B1_day4,2022.2.4,MacIntel,125,,,,,,down,0,2.204,,0.295555556,0.133333333,1,0,0,0,11,11,193,1,weeshuis,images/br_weeshuis.png,images/cb_weeshuis.png,0,,,,,,,,,,,,,,,,,,,,,,
,,,,,00083,2023-10-26_10h51.42.878,vbt_B1_day4,2022.2.4,MacIntel,125,,,,,,down,0,0.868,,0.295555556,0.133333333,1,0,0,0,12,12,52,1,wagon,images/br_wagon.png,images/cb_wagon.png,0,,,,,,,,,,,,,,,,,,,,,,
,,,,,00083,2023-10-26_10h51.42.878,vbt_B1_day4,2022.2.4,MacIntel,125,,,,,,down,0,0.001,,0.295555556,0.133333333,1,0,0,0,13,13,10,1,leek,images/br_leek.png,images/cb_leek.png,0,,,,,,,,,,,,,,,,,,,,,,
,,,,,00083,2023-10-26_10h51.42.878,vbt_B1_day4,2022.2.4,MacIntel,125,,,,,,down,0,0.056,,0.295555556,0.133333333,1,0,0,0,14,14,15,1,soda,images/br_soda.png,images/cb_soda.png,0,,,,,,,,,,,,,,,,,,,,,,
,,,,,00083,2023-10-26_10h51.42.878,vbt_B1_day4,2022.2.4,MacIntel,125,,,,,,down,0,1.057,,0.295555556,0.133333333,1,0,0,0,15,15,66,1,lever,images/br_lever.png,images/cb_lever.png,1,lever,,,,,,,,,,,,,,,,,,,,,
,,,,,00083,2023-10-26_10h51.42.878,vbt_B1_day4,2022.2.4,MacIntel,125,,,,,,down,0,2.601,,0.295555556,0.133333333,1,0,0,0,16,16,173,1,apparaat,images/br_apparaat.png,images/cb_apparaat.png,0,,,,,,,,,,,,,,,,,,,,,,
,,,,,00083,2023-10-26_10h51.42.878,vbt_B1_day4,2022.2.4,MacIntel,125,,,,,,down,0,0.637,,0.295555556,0.133333333,1,0,0,0,17,17,86,1,woning,images/br_woning.png,images/cb_woning.png,0,,,,,,,,,,,,,,,,,,,,,,
,,,,,00083,2023-10-26_10h51.42.878,vbt_B1_day4,2022.2.4,MacIntel,125,,,,,,down,0,9.518,,0.295555556,0.133333333,1,0,0,0,18,18,168,1,bisschop,images/br_bisschop.png,images/cb_bisschop.png,0,,,,,,,,,,,,,,,,,,,,,,
,,,,,00083,2023-10-26_10h51.42.878,vbt_B1_day4,2022.2.4,MacIntel,125,,,,,,down,0,7.291,,0.295555556,0.133333333,1,0,0,0,19,19,180,1,openbaar,images/br_openbaar.png,images/cb_openbaar.png,0,,,,,,,,,,,,,,,,,,,,,,
,,,,,00083,2023-10-26_10h51.42.878,vbt_B1_day4,2022.2.4,MacIntel,125,,,,,,down,0,0.644,,0.295555556,0.133333333,1,0,0,0,20,20,9,1,hier,images/br_hier.png,images/cb_hier.png,0,,,,,,,,,,,,,,,,,,,,,,
,,,,,00083,2023-10-26_10h51.42.878,vbt_B1_day4,2022.2.4,MacIntel,125,,,,,,down,0,0.036,,0.295555556,0.133333333,1,0,0,0,21,21,93,1,waarop,images/br_waarop.png,images/cb_waarop.png,0,,,,,,,,,,,,,,,,,,,,,,
,,,,,00083,2023-10-26_10h51.42.878,vbt_B1_day4,2022.2.4,MacIntel,125,,,,,,down,0,0.693,,0.295555556,0.133333333,1,0,0,0,22,22,28,1,stal,images/br_stal.png,images/cb_stal.png,0,,,,,,,,,,,,,,,,,,,,,,
,,,,,00083,2023-10-26_10h51.42.878,vbt_B1_day4,2022.2.4,MacIntel,125,,,,,,down,0,4.416,,0.295555556,0.133333333,1,0,0,0,23,23,119,1,liefje,images/br_liefje.png,images/cb_liefje.png,0,,,,,,,,,,,,,,,,,,,,,,
,,,,,00083,2023-10-26_10h51.42.878,vbt_B1_day4,2022.2.4,MacIntel,125,,,,,,down,0,1.272,,0.295555556,0.133333333,1,0,0,0,24,24,179,1,woestijn,images/br_woestijn.png,images/cb_woestijn.png,0,,,,,,,,,,,,,,,,,,,,,,
,,,,,00083,2023-10-26_10h51.42.878,vbt_B1_day4,2022.2.4,MacIntel,125,,,,,,down,0,0.817,,0.295555556,0.133333333,1,0,0,0,25,25,143,1,hechten,images/br_hechten.png,images/cb_hechten.png,0,,,,,,,,,,,,,,,,,,,,,,
,,,,,00083,2023-10-26_10h51.42.878,vbt_B1_day4,2022.2.4,MacIntel,125,,,,,,down,0,0.553,,0.295555556,0.133333333,1,0,0,0,26,26,23,1,zout,images/br_zout.png,images/cb_zout.png,0,,,,,,,,,,,,,,,,,,,,,,
,,,,,00083,2023-10-26_10h51.42.878,vbt_B1_day4,2022.2.4,MacIntel,125,,,,,,down,0,1.187,,0.295555556,0.133333333,1,0,0,0,27,27,189,1,aanraden,images/br_aanraden.png,images/cb_aanraden.png,0,,,,,,,,,,,,,,,,,,,,,,
,,,,,00083,2023-10-26_10h51.42.878,vbt_B1_day4,2022.2.4,MacIntel,125,,,,,,down,0,7.149,,0.295555556,0.133333333,1,0,0,0,28,28,111,1,ticket,images/br_ticket.png,images/cb_ticket.png,0,,,,,,,,,,,,,,,,,,,,,,
,,,,,00083,2023-10-26_10h51.42.878,vbt_B1_day4,2022.2.4,MacIntel,125,,,,,,down,0,0.816,,0.295555556,0.133333333,1,0,0,0,29,29,122,1,waarvan,images/br_waarvan.png,images/cb_waarvan.png,0,,,,,,,,,,,,,,,,,,,,,,
,,,,,00083,2023-10-26_10h51.42.878,vbt_B1_day4,2022.2.4,MacIntel,125,,,,,,down,0,2.799,,0.295555556,0.133333333,1,0,0,0,30,30,83,1,mening,images/br_mening.png,images/cb_mening.png,0,,,,,,,,,,,,,,,,,,,,,,
,,,,,00083,2023-10-26_10h51.42.878,vbt_B1_day4,2022.2.4,MacIntel,125,,,,,,down,0,15.309,,0.295555556,0.133333333,1,0,0,0,31,31,17,1,taal,images/br_taal.png,images/cb_taal.png,0,,,,,,,,,,,,,,,,,,,,,,
,,,,,00083,2023-10-26_10h51.42.878,vbt_B1_day4,2022.2.4,MacIntel,125,,,,,,down,0,2.537,,0.287777778,0.133333333,1,0,0,0,32,32,188,1,strekken,images/br_strekken.png,images/cb_strekken.png,0,,,,,,,,,,,,,,,,,,,,,,
,,,,,00083,2023-10-26_10h51.42.878,vbt_B1_day4,2022.2.4,MacIntel,125,,,,,,down,0,0.907,,0.287777778,0.133333333,1,0,0,0,33,33,18,1,blik,images/br_blik.png,images/cb_blik.png,0,,,,,,,,,,,,,,,,,,,,,,
,,,,,00083,2023-10-26_10h51.42.878,vbt_B1_day4,2022.2.4,MacIntel,125,,,,,,down,0,0.57,,0.287777778,0.133333333,1,0,0,0,34,34,87,1,toeval,images/br_toeval.png,images/cb_toeval.png,0,,,,,,,,,,,,,,,,,,,,,,
,,,,,00083,2023-10-26_10h51.42.878,vbt_B1_day4,2022.2.4,MacIntel,125,,,,,,down,0,0.633,,0.284444444,0.133333333,1,0,0,0,35,35,46,1,jagen,images/br_jagen.png,images/cb_jagen.png,0,,,,,,,,,,,,,,,,,,,,,,
,,,,,00083,2023-10-26_10h51.42.878,vbt_B1_day4,2022.2.4,MacIntel,125,,,,,,down,0,1.806,,0.283333333,0.132222222,1,0,0,0,36,36,67,1,zwart,images/br_zwart.png,images/cb_zwart.png,1,zwart,,,,,,,,,,,,,,,,,,,,,
,,,,,00083,2023-10-26_10h51.42.878,vbt_B1_day4,2022.2.4,MacIntel,125,,,,,,down,0,4.599,,0.276666667,0.122222222,1,0,0,0,37,37,184,1,aandelen,images/br_aandelen.png,images/cb_aandelen.png,1,aandelen,,,,,,,,,,,,,,,,,,,,,
,,,,,00083,2023-10-26_10h51.42.878,vbt_B1_day4,2022.2.4,MacIntel,125,,,,,,down,0,1.552,,0.311111111,0.143333333,1,0,0,0,38,38,91,1,gezond,images/br_gezond.png,images/cb_gezond.png,0,,,,,,,,,,,,,,,,,,,,,,
,,,,,00083,2023-10-26_10h51.42.878,vbt_B1_day4,2022.2.4,MacIntel,125,,,,,,down,0,14.334,,0.311111111,0.143333333,1,0,0,0,39,39,199,1,beseffen,images/br_beseffen.png,images/cb_beseffen.png,0,,,,,,,,,,,,,,,,,,,,,,
,,,,,00083,2023-10-26_10h51.42.878,vbt_B1_day4,2022.2.4,MacIntel,125,,,,,,down,0,2.731,,0.311111111,0.143333333,1,0,0,0,40,40,30,1,uien,images/br_uien.png,images/cb_uien.png,0,,,,,,,,,,,,,,,,,,,,,,
,,,,,00083,2023-10-26_10h51.42.878,vbt_B1_day4,2022.2.4,MacIntel,125,,,,,,down,0,0.137,,0.311111111,0.143333333,1,0,0,0,41,41,150,1,gegeven,images/br_gegeven.png,images/cb_gegeven.png,0,,,,,,,,,,,,,,,,,,,,,,
,,,,,00083,2023-10-26_10h51.42.878,vbt_B1_day4,2022.2.4,MacIntel,125,,,,,,down,0,1.922,,0.311111111,0.143333333,1,0,0,0,42,42,172,1,weigeren,images/br_weigeren.png,images/cb_weigeren.png,0,,,,,,,,,,,,,,,,,,,,,,
,,,,,00083,2023-10-26_10h51.42.878,vbt_B1_day4,2022.2.4,MacIntel,125,,,,,,down,0,0.239,,0.311111111,0.143333333,1,0,0,0,43,43,34,1,vorm,images/br_vorm.png,images/cb_vorm.png,0,,,,,,,,,,,,,,,,,,,,,,
,,,,,00083,2023-10-26_10h51.42.878,vbt_B1_day4,2022.2.4,MacIntel,125,,,,,,down,0,1.835,,0.311111111,0.143333333,1,0,0,0,44,44,153,1,vervoer,images/br_vervoer.png,images/cb_vervoer.png,0,,,,,,,,,,,,,,,,,,,,,,
,,,,,00083,2023-10-26_10h51.42.878,vbt_B1_day4,2022.2.4,MacIntel,125,,,,,,down,0,0.305,,0.311111111,0.143333333,1,0,0,0,45,45,0,1,slak,images/br_slak.png,images/cb_slak.png,0,,,,,,,,,,,,,,,,,,,,,,
,,,,,00083,2023-10-26_10h51.42.878,vbt_B1_day4,2022.2.4,MacIntel,125,,,,,,down,0,3.872,,0.311111111,0.143333333,1,0,0,0,46,46,174,1,stemming,images/br_stemming.png,images/cb_stemming.png,0,,,,,,,,,,,,,,,,,,,,,,
,,,,,00083,2023-10-26_10h51.42.878,vbt_B1_day4,2022.2.4,MacIntel,125,,,,,,down,0,0.906,,0.311111111,0.143333333,1,0,0,0,47,47,7,1,geld,images/br_geld.png,images/cb_geld.png,0,,,,,,,,,,,,,,,,,,,,,,
,,,,,00083,2023-10-26_10h51.42.878,vbt_B1_day4,2022.2.4,MacIntel,125,,,,,,down,0,2.05,,0.311111111,0.143333333,1,0,0,0,48,48,182,1,bijkomen,images/br_bijkomen.png,images/cb_bijkomen.png,0,,,,,,,,,,,,,,,,,,,,,,
,,,,,00083,2023-10-26_10h51.42.878,vbt_B1_day4,2022.2.4,MacIntel,125,,,,,,down,0,0.075,,0.311111111,0.143333333,1,0,0,0,49,49,74,1,graaf,images/br_graaf.png,images/cb_graaf.png,0,,,,,,,,,,,,,,,,,,,,,,
,,,,,00083,2023-10-26_10h51.42.878,vbt_B1_day4,2022.2.4,MacIntel,125,,,,,,down,0,2.106,,0.311111111,0.143333333,1,0,0,0,50,50,101,1,staren,images/br_staren.png,images/cb_staren.png,0,,,,,,,,,,,,,,,,,,,,,,
,,,,,00083,2023-10-26_10h51.42.878,vbt_B1_day4,2022.2.4,MacIntel,125,,,,,,down,0,2.466,,0.311111111,0.143333333,1,0,0,0,51,51,100,1,geduld,images/br_geduld.png,images/cb_geduld.png,0,,,,,,,,,,,,,,,,,,,,,,
,,,,,00083,2023-10-26_10h51.42.878,vbt_B1_day4,2022.2.4,MacIntel,125,,,,,,down,0,0.05,,0.31,0.143333333,1,0,0,0,52,52,124,1,bloeien,images/br_bloeien.png,images/cb_bloeien.png,0,,,,,,,,,,,,,,,,,,,,,,
,,,,,00083,2023-10-26_10h51.42.878,vbt_B1_day4,2022.2.4,MacIntel,125,,,,,,down,0,0.299,,0.29,0.144444444,1,0,0,0,53,53,8,1,knie,images/br_knie.png,images/cb_knie.png,0,,,,,,,,,,,,,,,,,,,,,,
,,,,,00083,2023-10-26_10h51.42.878,vbt_B1_day4,2022.2.4,MacIntel,125,,,,,,down,0,3.036,,0.286666667,0.144444444,1,0,0,0,54,54,161,1,attentie,images/br_attentie.png,images/cb_attentie.png,0,,,,,,,,,,,,,,,,,,,,,,
,,,,,00083,2023-10-26_10h51.42.878,vbt_B1_day4,2022.2.4,MacIntel,125,,,,,,down,0,1.733,,0.348888889,0.246666667,1,0,0,0,55,55,25,1,plek,images/br_plek.png,images/cb_plek.png,1,plek,,,,,,,,,,,,,,,,,,,,,
,,,,,00083,2023-10-26_10h51.42.878,vbt_B1_day4,2022.2.4,MacIntel,125,,,,,,down,0,1.789,,0.17,0.035555556,1,0,0,0,56,56,95,1,vreten,images/br_vreten.png,images/cb_vreten.png,0,,,,,,,,,,,,,,,,,,,,,,
,,,,,00083,2023-10-26_10h51.42.878,vbt_B1_day4,2022.2.4,MacIntel,125,,,,,,down,0,8.133,,0.253333333,0.087777778,1,0,0,0,57,57,178,1,huisdier,images/br_huisdier.png,images/cb_huisdier.png,0,,,,,,,,,,,,,,,,,,,,,,
,,,,,00083,2023-10-26_10h51.42.878,vbt_B1_day4,2022.2.4,MacIntel,125,,,,,,down,0,0.051,,0.253333333,0.087777778,1,0,0,0,58,58,22,1,stof,images/br_stof.png,images/cb_stof.png,0,,,,,,,,,,,,,,,,,,,,,,
,,,,,00083,2023-10-26_10h51.42.878,vbt_B1_day4,2022.2.4,MacIntel,125,,,,,,down,0,0.52,,0.253333333,0.087777778,1,0,0,0,59,59,80,1,kanjer,images/br_kanjer.png,images/cb_kanjer.png,0,,,,,,,,,,,,,,,,,,,,,,
,,,,,00083,2023-10-26_10h51.42.878,vbt_B1_day4,2022.2.4,MacIntel,125,,,,,,down,0,0.301,,0.231111111,0.092222222,1,0,0,0,60,60,65,1,parel,images/br_parel.png,images/cb_parel.png,1,parel,,,,,,,,,,,,,,,,,,,,,
,,,,,00083,2023-10-26_10h51.42.878,vbt_B1_day4,2022.2.4,MacIntel,125,,,,,,down,0,0.201,,0.231111111,0.092222222,1,0,0,0,61,61,113,1,koppen,images/br_koppen.png,images/cb_koppen.png,0,,,,,,,,,,,,,,,,,,,,,,
,,,,,00083,2023-10-26_10h51.42.878,vbt_B1_day4,2022.2.4,MacIntel,125,,,,,,down,0,2.389,,0.231111111,0.092222222,1,0,0,0,62,62,129,1,verhaal,images/br_verhaal.png,images/cb_verhaal.png,0,,,,,,,,,,,,,,,,,,,,,,
,,,,,00083,2023-10-26_10h51.42.878,vbt_B1_day4,2022.2.4,MacIntel,125,,,,,,down,0,1.303,,0.224444444,0.092222222,1,0,0,0,63,63,146,1,opkomen,images/br_opkomen.png,images/cb_opkomen.png,1,opkomen,,,,,,,,,,,,,,,,,,,,,
,,,,,00083,2023-10-26_10h51.42.878,vbt_B1_day4,2022.2.4,MacIntel,125,,,,,,down,0,0.784,,0.215555556,0.083333333,1,0,0,0,64,64,169,1,oprotten,images/br_oprotten.png,images/cb_oprotten.png,0,,,,,,,,,,,,,,,,,,,,,,
,,,,,00083,2023-10-26_10h51.42.878,vbt_B1_day4,2022.2.4,MacIntel,125,,,,,,down,0,2,,0.224444444,0.086666667,1,0,0,0,65,65,88,1,boeien,images/br_boeien.png,images/cb_boeien.png,0,,,,,,,,,,,,,,,,,,,,,,
,,,,,00083,2023-10-26_10h51.42.878,vbt_B1_day4,2022.2.4,MacIntel,125,,,,,,down,0,0.59,,0.224444444,0.086666667,1,0,0,0,66,66,69,1,waken,images/br_waken.png,images/cb_waken.png,0,,,,,,,,,,,,,,,,,,,,,,
,,,,,00083,2023-10-26_10h51.42.878,vbt_B1_day4,2022.2.4,MacIntel,125,,,,,,down,0,0.419,,0.221111111,0.085555556,1,0,0,0,67,67,110,1,zuster,images/br_zuster.png,images/cb_zuster.png,0,,,,,,,,,,,,,,,,,,,,,,
,,,,,00083,2023-10-26_10h51.42.878,vbt_B1_day4,2022.2.4,MacIntel,125,,,,,,down,0,2.639,,0.208888889,0.082222222,1,0,0,0,68,68,162,1,uitdelen,images/br_uitdelen.png,images/cb_uitdelen.png,0,,,,,,,,,,,,,,,,,,,,,,
,,,,,00083,2023-10-26_10h51.42.878,vbt_B1_day4,2022.2.4,MacIntel,125,,,,,,down,0,0.122,,0.208888889,0.082222222,1,0,0,0,69,69,49,1,laken,images/br_laken.png,images/cb_laken.png,0,,,,,,,,,,,,,,,,,,,,,,
,,,,,00083,2023-10-26_10h51.42.878,vbt_B1_day4,2022.2.4,MacIntel,125,,,,,,down,0,1.218,,0.208888889,0.082222222,1,0,0,0,70,70,154,1,aflopen,images/br_aflopen.png,images/cb_aflopen.png,0,,,,,,,,,,,,,,,,,,,,,,
,,,,,00083,2023-10-26_10h51.42.878,vbt_B1_day4,2022.2.4,MacIntel,125,,,,,,down,0,1.507,,0.208888889,0.082222222,1,0,0,0,71,71,81,1,dubbel,images/br_dubbel.png,images/cb_dubbel.png,0,,,,,,,,,,,,,,,,,,,,,,
,,,,,00083,2023-10-26_10h51.42.878,vbt_B1_day4,2022.2.4,MacIntel,125,,,,,,down,0,1.5,,0.175555556,0.055555556,1,0,0,0,72,72,181,1,toegeven,images/br_toegeven.png,images/cb_toegeven.png,0,,,,,,,,,,,,,,,,,,,,,,
,,,,,00083,2023-10-26_10h51.42.878,vbt_B1_day4,2022.2.4,MacIntel,125,,,,,,down,0,0.838,,0.174444444,0.055555556,1,0,0,0,73,73,89,1,slapen,images/br_slapen.png,images/cb_slapen.png,0,,,,,,,,,,,,,,,,,,,,,,
,,,,,00083,2023-10-26_10h51.42.878,vbt_B1_day4,2022.2.4,MacIntel,125,,,,,,down,0,3.382,,0.171111111,0.055555556,1,0,0,0,74,74,138,1,akkoord,images/br_akkoord.png,images/cb_akkoord.png,0,,,,,,,,,,,,,,,,,,,,,,
,,,,,00083,2023-10-26_10h51.42.878,vbt_B1_day4,2022.2.4,MacIntel,125,,,,,,down,0,0.723,,0.171111111,0.055555556,1,0,0,0,75,75,45,1,piste,images/br_piste.png,images/cb_piste.png,0,,,,,,,,,,,,,,,,,,,,,,
,,,,,00083,2023-10-26_10h51.42.878,vbt_B1_day4,2022.2.4,MacIntel,125,,,,,,down,0,1.934,,0.171111111,0.055555556,1,0,0,0,76,76,149,1,redding,images/br_redding.png,images/cb_redding.png,0,,,,,,,,,,,,,,,,,,,,,,
,,,,,00083,2023-10-26_10h51.42.878,vbt_B1_day4,2022.2.4,MacIntel,125,,,,,,down,0,2.257,,0.171111111,0.055555556,1,0,0,0,77,77,58,1,tekst,images/br_tekst.png,images/cb_tekst.png,0,,,,,,,,,,,,,,,,,,,,,,
,,,,,00083,2023-10-26_10h51.42.878,vbt_B1_day4,2022.2.4,MacIntel,125,,,,,,down,0,1.216,,0.171111111,0.055555556,1,0,0,0,78,78,166,1,strikken,images/br_strikken.png,images/cb_strikken.png,0,,,,,,,,,,,,,,,,,,,,,,
,,,,,00083,2023-10-26_10h51.42.878,vbt_B1_day4,2022.2.4,MacIntel,125,,,,,,down,0,4.848,,0.171111111,0.055555556,1,0,0,0,79,79,158,1,innemen,images/br_innemen.png,images/cb_innemen.png,0,,,,,,,,,,,,,,,,,,,,,,
,,,,,00083,2023-10-26_10h51.42.878,vbt_B1_day4,2022.2.4,MacIntel,125,,,,,,down,0,1.42,,0.171111111,0.055555556,1,0,0,0,80,80,51,1,samen,images/br_samen.png,images/cb_samen.png,0,,,,,,,,,,,,,,,,,,,,,,
,,,,,00083,2023-10-26_10h51.42.878,vbt_B1_day4,2022.2.4,MacIntel,125,,,,,,down,0,0.268,,0.171111111,0.055555556,1,0,0,0,81,81,16,1,ziek,images/br_ziek.png,images/cb_ziek.png,0,,,,,,,,,,,,,,,,,,,,,,
,,,,,00083,2023-10-26_10h51.42.878,vbt_B1_day4,2022.2.4,MacIntel,125,,,,,,down,0,0.47,,0.16,0.051111111,1,0,0,0,82,82,190,1,goedkoop,images/br_goedkoop.png,images/cb_goedkoop.png,0,,,,,,,,,,,,,,,,,,,,,,
,,,,,00083,2023-10-26_10h51.42.878,vbt_B1_day4,2022.2.4,MacIntel,125,,,,,,down,0,0.14,,0.155555556,0.048888889,1,0,0,0,83,83,102,1,legaal,images/br_legaal.png,images/cb_legaal.png,0,,,,,,,,,,,,,,,,,,,,,,
,,,,,00083,2023-10-26_10h51.42.878,vbt_B1_day4,2022.2.4,MacIntel,125,,,,,,down,0,1.002,,0.155555556,0.048888889,1,0,0,0,84,84,152,1,afnemen,images/br_afnemen.png,images/cb_afnemen.png,0,,,,,,,,,,,,,,,,,,,,,,
,,,,,00083,2023-10-26_10h51.42.878,vbt_B1_day4,2022.2.4,MacIntel,125,,,,,,down,0,0.149,,0.155555556,0.048888889,1,0,0,0,85,85,71,1,bever,images/br_bever.png,images/cb_bever.png,0,,,,,,,,,,,,,,,,,,,,,,
,,,,,00083,2023-10-26_10h51.42.878,vbt_B1_day4,2022.2.4,MacIntel,125,,,,,,down,0,1.251,,0.155555556,0.048888889,1,0,0,0,86,86,70,1,ijdel,images/br_ijdel.png,images/cb_ijdel.png,0,,,,,,,,,,,,,,,,,,,,,,
,,,,,00083,2023-10-26_10h51.42.878,vbt_B1_day4,2022.2.4,MacIntel,125,,,,,,down,0,5.097,,0.155555556,0.048888889,1,0,0,0,87,87,194,1,driemaal,images/br_driemaal.png,images/cb_driemaal.png,0,,,,,,,,,,,,,,,,,,,,,,
,,,,,00083,2023-10-26_10h51.42.878,vbt_B1_day4,2022.2.4,MacIntel,125,,,,,,down,0,0.126,,0.144444444,0.045555556,1,0,0,0,88,88,151,1,aanzoek,images/br_aanzoek.png,images/cb_aanzoek.png,0,,,,,,,,,,,,,,,,,,,,,,
,,,,,00083,2023-10-26_10h51.42.878,vbt_B1_day4,2022.2.4,MacIntel,125,,,,,,down,0,1.055,,0.143333333,0.045555556,1,0,0,0,89,89,54,1,gebit,images/br_gebit.png,images/cb_gebit.png,0,,,,,,,,,,,,,,,,,,,,,,
,,,,,00083,2023-10-26_10h51.42.878,vbt_B1_day4,2022.2.4,MacIntel,125,,,,,,down,0,0.687,,0.143333333,0.045555556,1,0,0,0,90,90,2,1,jaar,images/br_jaar.png,images/cb_jaar.png,0,,,,,,,,,,,,,,,,,,,,,,
,,,,,00083,2023-10-26_10h51.42.878,vbt_B1_day4,2022.2.4,MacIntel,125,,,,,,down,0,3.017,,0.143333333,0.045555556,1,0,0,0,91,91,4,1,moes,images/br_moes.png,images/cb_moes.png,0,,,,,,,,,,,,,,,,,,,,,,
,,,,,00083,2023-10-26_10h51.42.878,vbt_B1_day4,2022.2.4,MacIntel,125,,,,,,down,0,0.493,,0.143333333,0.045555556,1,0,0,0,92,92,36,1,vuur,images/br_vuur.png,images/cb_vuur.png,0,,,,,,,,,,,,,,,,,,,,,,
,,,,,00083,2023-10-26_10h51.42.878,vbt_B1_day4,2022.2.4,MacIntel,125,,,,,,down,0,0.983,,0.141111111,0.045555556,1,0,0,0,93,93,76,1,afval,images/br_afval.png,images/cb_afval.png,0,,,,,,,,,,,,,,,,,,,,,,
,,,,,00083,2023-10-26_10h51.42.878,vbt_B1_day4,2022.2.4,MacIntel,125,,,,,,down,0,2.72,,0.141111111,0.045555556,1,0,0,0,94,94,198,1,bedoelen,images/br_bedoelen.png,images/cb_bedoelen.png,0,,,,,,,,,,,,,,,,,,,,,,
,,,,,00083,2023-10-26_10h51.42.878,vbt_B1_day4,2022.2.4,MacIntel,125,,,,,,down,0,5.387,,0.141111111,0.045555556,1,0,0,0,95,95,79,1,nodig,images/br_nodig.png,images/cb_nodig.png,0,,,,,,,,,,,,,,,,,,,,,,
,,,,,00083,2023-10-26_10h51.42.878,vbt_B1_day4,2022.2.4,MacIntel,125,,,,,,down,0,1.488,,0.141111111,0.045555556,1,0,0,0,96,96,156,1,rechten,images/br_rechten.png,images/cb_rechten.png,0,,,,,,,,,,,,,,,,,,,,,,
,,,,,00083,2023-10-26_10h51.42.878,vbt_B1_day4,2022.2.4,MacIntel,125,,,,,,down,0,0.721,,0.141111111,0.045555556,1,0,0,0,97,97,13,1,kaal,images/br_kaal.png,images/cb_kaal.png,0,,,,,,,,,,,,,,,,,,,,,,
,,,,,00083,2023-10-26_10h51.42.878,vbt_B1_day4,2022.2.4,MacIntel,125,,,,,,down,0,2.965,,0.141111111,0.045555556,1,0,0,0,98,98,3,1,mand,images/br_mand.png,images/cb_mand.png,0,,,,,,,,,,,,,,,,,,,,,,
,,,,,00083,2023-10-26_10h51.42.878,vbt_B1_day4,2022.2.4,MacIntel,125,,,,,,down,0,0.352,,0.138888889,0.045555556,1,0,0,0,99,99,126,1,kasteel,images/br_kasteel.png,images/cb_kasteel.png,0,,,,,,,,,,,,,,,,,,,,,,
,,,,,00083,2023-10-26_10h51.42.878,vbt_B1_day4,2022.2.4,MacIntel,125,,,,,,down,0,4.715,,0.131111111,0.045555556,1,0,0,0,100,100,130,1,keihard,images/br_keihard.png,images/cb_keihard.png,0,,,,,,,,,,,,,,,,,,,,,,
,,,,,00083,2023-10-26_10h51.42.878,vbt_B1_day4,2022.2.4,MacIntel,125,,,,,,down,0,9.313,,0.113333333,0.023333333,1,0,0,0,101,101,191,1,opheffen,images/br_opheffen.png,images/cb_opheffen.png,0,,,,,,,,,,,,,,,,,,,,,,
,,,,,00083,2023-10-26_10h51.42.878,vbt_B1_day4,2022.2.4,MacIntel,125,,,,,,down,0,0.639,,0.111111111,0.022222222,1,0,0,0,102,102,50,1,stoom,images/br_stoom.png,images/cb_stoom.png,0,,,,,,,,,,,,,,,,,,,,,,
,,,,,00083,2023-10-26_10h51.42.878,vbt_B1_day4,2022.2.4,MacIntel,125,,,,,,down,0,11.23,,0.111111111,0.022222222,1,0,0,0,103,103,112,1,lukken,images/br_lukken.png,images/cb_lukken.png,0,,,,,,,,,,,,,,,,,,,,,,
,,,,,00083,2023-10-26_10h51.42.878,vbt_B1_day4,2022.2.4,MacIntel,125,,,,,,down,0,0.034,,0.075555556,0.041111111,1,0,0,0,104,104,186,1,voorraad,images/br_voorraad.png,images/cb_voorraad.png,1,voorraad,,,,,,,,,,,,,,,,,,,,,
,,,,,00083,2023-10-26_10h51.42.878,vbt_B1_day4,2022.2.4,MacIntel,125,,,,,,down,0,0.443,,0.225555556,-0.045555556,1,0,0,0,105,105,33,1,vlek,images/br_vlek.png,images/cb_vlek.png,0,,,,,,,,,,,,,,,,,,,,,,
,,,,,00083,2023-10-26_10h51.42.878,vbt_B1_day4,2022.2.4,MacIntel,125,,,,,,down,0,0.418,,0.225555556,-0.045555556,1,0,0,0,106,106,38,1,baai,images/br_baai.png,images/cb_baai.png,0,,,,,,,,,,,,,,,,,,,,,,
,,,,,00083,2023-10-26_10h51.42.878,vbt_B1_day4,2022.2.4,MacIntel,125,,,,,,down,0,0.134,,0.225555556,-0.045555556,1,0,0,0,107,107,42,1,bleek,images/br_bleek.png,images/cb_bleek.png,0,,,,,,,,,,,,,,,,,,,,,,
,,,,,00083,2023-10-26_10h51.42.878,vbt_B1_day4,2022.2.4,MacIntel,125,,,,,,down,0,3.431,,0.225555556,-0.045555556,1,0,0,0,108,108,163,1,schuilen,images/br_schuilen.png,images/cb_schuilen.png,0,,,,,,,,,,,,,,,,,,,,,,
,,,,,00083,2023-10-26_10h51.42.878,vbt_B1_day4,2022.2.4,MacIntel,125,,,,,,down,0,0.204,,0.225555556,-0.045555556,1,0,0,0,109,109,1,1,zaal,images/br_zaal.png,images/cb_zaal.png,0,,,,,,,,,,,,,,,,,,,,,,
,,,,,00083,2023-10-26_10h51.42.878,vbt_B1_day4,2022.2.4,MacIntel,125,,,,,,down,0,0.404,,0.225555556,-0.045555556,1,0,0,0,110,110,35,1,lust,images/br_lust.png,images/cb_lust.png,0,,,,,,,,,,,,,,,,,,,,,,
,,,,,00083,2023-10-26_10h51.42.878,vbt_B1_day4,2022.2.4,MacIntel,125,,,,,,down,0,0.824,,0.225555556,-0.045555556,1,0,0,0,111,111,116,1,besmet,images/br_besmet.png,images/cb_besmet.png,0,,,,,,,,,,,,,,,,,,,,,,
,,,,,00083,2023-10-26_10h51.42.878,vbt_B1_day4,2022.2.4,MacIntel,125,,,,,,down,0,1.588,,0.225555556,-0.045555556,1,0,0,0,112,112,31,1,poes,images/br_poes.png,images/cb_poes.png,0,,,,,,,,,,,,,,,,,,,,,,
,,,,,00083,2023-10-26_10h51.42.878,vbt_B1_day4,2022.2.4,MacIntel,125,,,,,,down,0,2.731,,0.18,-0.055555556,1,0,0,0,113,113,85,1,heilig,images/br_heilig.png,images/cb_heilig.png,0,,,,,,,,,,,,,,,,,,,,,,
,,,,,00083,2023-10-26_10h51.42.878,vbt_B1_day4,2022.2.4,MacIntel,125,,,,,,down,0,1,,0.18,-0.054444444,1,0,0,0,114,114,103,1,joggen,images/br_joggen.png,images/cb_joggen.png,0,,,,,,,,,,,,,,,,,,,,,,
,,,,,00083,2023-10-26_10h51.42.878,vbt_B1_day4,2022.2.4,MacIntel,125,,,,,,down,0,4.521,,0.18,-0.054444444,1,0,0,0,115,115,141,1,knielen,images/br_knielen.png,images/cb_knielen.png,0,,,,,,,,,,,,,,,,,,,,,,
,,,,,00083,2023-10-26_10h51.42.878,vbt_B1_day4,2022.2.4,MacIntel,125,,,,,,down,0,7.804,,0.18,-0.054444444,1,0,0,0,116,116,160,1,daarheen,images/br_daarheen.png,images/cb_daarheen.png,0,,,,,,,,,,,,,,,,,,,,,,
,,,,,00083,2023-10-26_10h51.42.878,vbt_B1_day4,2022.2.4,MacIntel,125,,,,,,down,0,1.836,,0.39,0.014444444,1,0,0,0,117,117,107,1,maling,images/br_maling.png,images/cb_maling.png,1,maling,,,,,,,,,,,,,,,,,,,,,
,,,,,00083,2023-10-26_10h51.42.878,vbt_B1_day4,2022.2.4,MacIntel,125,,,,,,down,0,1.452,,0.426666667,0.02,1,0,0,0,118,118,144,1,eetlust,images/br_eetlust.png,images/cb_eetlust.png,1,eetlust,,,,,,,,,,,,,,,,,,,,,
,,,,,00083,2023-10-26_10h51.42.878,vbt_B1_day4,2022.2.4,MacIntel,125,,,,,,down,0,1.791,,0.423333333,0.02,1,0,0,0,119,119,165,1,feestdag,images/br_feestdag.png,images/cb_feestdag.png,0,,,,,,,,,,,,,,,,,,,,,,
,,,,,00083,2023-10-26_10h51.42.878,vbt_B1_day4,2022.2.4,MacIntel,125,,,,,,down,0,2.005,,0.423333333,0.02,1,0,0,0,120,120,185,1,mijnheer,images/br_mijnheer.png,images/cb_mijnheer.png,1,mijnheer,,,,,,,,,,,,,,,,,,,,,
,,,,,00083,2023-10-26_10h51.42.878,vbt_B1_day4,2022.2.4,MacIntel,125,,,,,,down,0,4.166,,0.423333333,0.02,1,0,0,0,121,121,192,1,schaamte,images/br_schaamte.png,images/cb_schaamte.png,0,,,,,,,,,,,,,,,,,,,,,,
,,,,,00083,2023-10-26_10h51.42.878,vbt_B1_day4,2022.2.4,MacIntel,125,,,,,,down,0,2.769,,0.423333333,0.02,1,0,0,0,122,122,92,1,geheim,images/br_geheim.png,images/cb_geheim.png,0,,,,,,,,,,,,,,,,,,,,,,
,,,,,00083,2023-10-26_10h51.42.878,vbt_B1_day4,2022.2.4,MacIntel,125,,,,,,down,0,0.618,,0.423333333,0.02,1,0,0,0,123,123,120,1,klimmen,images/br_klimmen.png,images/cb_klimmen.png,0,,,,,,,,,,,,,,,,,,,,,,
,,,,,00083,2023-10-26_10h51.42.878,vbt_B1_day4,2022.2.4,MacIntel,125,,,,,,down,0,3.239,,0.423333333,0.02,1,0,0,0,124,124,142,1,snuiven,images/br_snuiven.png,images/cb_snuiven.png,0,,,,,,,,,,,,,,,,,,,,,,
,,,,,00083,2023-10-26_10h51.42.878,vbt_B1_day4,2022.2.4,MacIntel,125,,,,,,down,0,0.949,,0.423333333,0.02,1,0,0,0,125,125,84,1,lokken,images/br_lokken.png,images/cb_lokken.png,0,,,,,,,,,,,,,,,,,,,,,,
,,,,,00083,2023-10-26_10h51.42.878,vbt_B1_day4,2022.2.4,MacIntel,125,,,,,,down,0,12.294,,0.423333333,0.02,1,0,0,0,126,126,196,1,nakijken,images/br_nakijken.png,images/cb_nakijken.png,0,,,,,,,,,,,,,,,,,,,,,,
,,,,,00083,2023-10-26_10h51.42.878,vbt_B1_day4,2022.2.4,MacIntel,125,,,,,,down,0,0.233,,0.423333333,0.02,1,0,0,0,127,127,6,1,diep,images/br_diep.png,images/cb_diep.png,0,,,,,,,,,,,,,,,,,,,,,,
,,,,,00083,2023-10-26_10h51.42.878,vbt_B1_day4,2022.2.4,MacIntel,125,,,,,,down,0,0.4,,0.423333333,0.02,1,0,0,0,128,128,72,1,strak,images/br_strak.png,images/cb_strak.png,0,,,,,,,,,,,,,,,,,,,,,,
,,,,,00083,2023-10-26_10h51.42.878,vbt_B1_day4,2022.2.4,MacIntel,125,,,,,,down,0,0.376,,0.423333333,0.02,1,0,0,0,129,129,48,1,steel,images/br_steel.png,images/cb_steel.png,0,,,,,,,,,,,,,,,,,,,,,,
,,,,,00083,2023-10-26_10h51.42.878,vbt_B1_day4,2022.2.4,MacIntel,125,,,,,,down,0,1.748,,0.423333333,0.02,1,0,0,0,130,130,77,1,woede,images/br_woede.png,images/cb_woede.png,0,,,,,,,,,,,,,,,,,,,,,,
,,,,,00083,2023-10-26_10h51.42.878,vbt_B1_day4,2022.2.4,MacIntel,125,,,,,,down,0,0.234,,0.423333333,0.02,1,0,0,0,131,131,61,1,groen,images/br_groen.png,images/cb_groen.png,0,,,,,,,,,,,,,,,,,,,,,,
,,,,,00083,2023-10-26_10h51.42.878,vbt_B1_day4,2022.2.4,MacIntel,125,,,,,,down,0,0.938,,0.423333333,0.02,1,0,0,0,132,132,104,1,zweven,images/br_zweven.png,images/cb_zweven.png,1,zweven,,,,,,,,,,,,,,,,,,,,,
,,,,,00083,2023-10-26_10h51.42.878,vbt_B1_day4,2022.2.4,MacIntel,125,,,,,,down,0,0.403,,0.423333333,0.02,1,0,0,0,133,133,21,1,mist,images/br_mist.png,images/cb_mist.png,0,,,,,,,,,,,,,,,,,,,,,,
,,,,,00083,2023-10-26_10h51.42.878,vbt_B1_day4,2022.2.4,MacIntel,125,,,,,,down,0,0.626,,0.423333333,0.02,1,0,0,0,134,134,32,1,palm,images/br_palm.png,images/cb_palm.png,0,,,,,,,,,,,,,,,,,,,,,,
,,,,,00083,2023-10-26_10h51.42.878,vbt_B1_day4,2022.2.4,MacIntel,125,,,,,,down,0,0.568,,0.423333333,0.02,1,0,0,0,135,135,109,1,totaal,images/br_totaal.png,images/cb_totaal.png,0,,,,,,,,,,,,,,,,,,,,,,
,,,,,00083,2023-10-26_10h51.42.878,vbt_B1_day4,2022.2.4,MacIntel,125,,,,,,down,0,1.085,,0.423333333,0.02,1,0,0,0,136,136,63,1,flirt,images/br_flirt.png,images/cb_flirt.png,0,,,,,,,,,,,,,,,,,,,,,,
,,,,,00083,2023-10-26_10h51.42.878,vbt_B1_day4,2022.2.4,MacIntel,125,,,,,,down,0,3.318,,0.423333333,0.02,1,0,0,0,137,137,183,1,getuigen,images/br_getuigen.png,images/cb_getuigen.png,0,,,,,,,,,,,,,,,,,,,,,,
,,,,,00083,2023-10-26_10h51.42.878,vbt_B1_day4,2022.2.4,MacIntel,125,,,,,,down,0,0.301,,0.423333333,0.02,1,0,0,0,138,138,64,1,wegen,images/br_wegen.png,images/cb_wegen.png,1,,,,,,,,,,,,,,,,,,,,,,
,,,,,00083,2023-10-26_10h51.42.878,vbt_B1_day4,2022.2.4,MacIntel,125,,,,,,down,0,2.599,,0.423333333,0.02,1,0,0,0,139,139,108,1,excuus,images/br_excuus.png,images/cb_excuus.png,0,,,,,,,,,,,,,,,,,,,,,,
,,,,,00083,2023-10-26_10h51.42.878,vbt_B1_day4,2022.2.4,MacIntel,125,,,,,,down,0,1.54,,0.423333333,0.02,1,0,0,0,140,140,177,1,maaltijd,images/br_maaltijd.png,images/cb_maaltijd.png,0,,,,,,,,,,,,,,,,,,,,,,
,,,,,00083,2023-10-26_10h51.42.878,vbt_B1_day4,2022.2.4,MacIntel,125,,,,,,down,0,0.22,,0.423333333,0.02,1,0,0,0,141,141,121,1,twijfel,images/br_twijfel.png,images/cb_twijfel.png,0,,,,,,,,,,,,,,,,,,,,,,
,,,,,00083,2023-10-26_10h51.42.878,vbt_B1_day4,2022.2.4,MacIntel,125,,,,,,down,0,0.01,,0.423333333,0.02,1,0,0,0,142,142,175,1,heengaan,images/br_heengaan.png,images/cb_heengaan.png,0,,,,,,,,,,,,,,,,,,,,,,
,,,,,00083,2023-10-26_10h51.42.878,vbt_B1_day4,2022.2.4,MacIntel,125,,,,,,down,0,4.728,,0.423333333,0.02,1,0,0,0,143,143,131,1,opzicht,images/br_opzicht.png,images/cb_opzicht.png,0,,,,,,,,,,,,,,,,,,,,,,
,,,,,00083,2023-10-26_10h51.42.878,vbt_B1_day4,2022.2.4,MacIntel,125,,,,,,down,0,1.555,,0.423333333,0.02,1,0,0,0,144,144,148,1,smullen,images/br_smullen.png,images/cb_smullen.png,0,,,,,,,,,,,,,,,,,,,,,,
,,,,,00083,2023-10-26_10h51.42.878,vbt_B1_day4,2022.2.4,MacIntel,125,,,,,,down,0,2.233,,0.423333333,0.02,1,0,0,0,145,145,117,1,kennis,images/br_kennis.png,images/cb_kennis.png,0,,,,,,,,,,,,,,,,,,,,,,
,,,,,00083,2023-10-26_10h51.42.878,vbt_B1_day4,2022.2.4,MacIntel,125,,,,,,down,0,1.536,,0.423333333,0.02,1,0,0,0,146,146,135,1,gedicht,images/br_gedicht.png,images/cb_gedicht.png,0,,,,,,,,,,,,,,,,,,,,,,
,,,,,00083,2023-10-26_10h51.42.878,vbt_B1_day4,2022.2.4,MacIntel,125,,,,,,down,0,4.131,,0.423333333,0.02,1,0,0,0,147,147,136,1,waarbij,images/br_waarbij.png,images/cb_waarbij.png,0,,,,,,,,,,,,,,,,,,,,,,
,,,,,00083,2023-10-26_10h51.42.878,vbt_B1_day4,2022.2.4,MacIntel,125,,,,,,down,0,1.818,,0.423333333,0.02,1,0,0,0,148,148,26,1,leuk,images/br_leuk.png,images/cb_leuk.png,1,leuk,,,,,,,,,,,,,,,,,,,,,
,,,,,00083,2023-10-26_10h51.42.878,vbt_B1_day4,2022.2.4,MacIntel,125,,,,,,down,0,0.401,,0.423333333,0.02,1,0,0,0,149,149,75,1,snoep,images/br_snoep.png,images/cb_snoep.png,0,,,,,,,,,,,,,,,,,,,,,,
,,,,,00083,2023-10-26_10h51.42.878,vbt_B1_day4,2022.2.4,MacIntel,125,,,,,,down,0,0.339,,0.488888889,0.257777778,1,0,0,0,150,150,68,1,schat,images/br_schat.png,images/cb_schat.png,0,,,,,,,,,,,,,,,,,,,,,,
,,,,,00083,2023-10-26_10h51.42.878,vbt_B1_day4,2022.2.4,MacIntel,125,,,,,,down,0,0.251,,0.488888889,0.257777778,1,0,0,0,151,151,114,1,vullen,images/br_vullen.png,images/cb_vullen.png,0,,,,,,,,,,,,,,,,,,,,,,
,,,,,00083,2023-10-26_10h51.42.878,vbt_B1_day4,2022.2.4,MacIntel,125,,,,,,down,0,0.675,,0.488888889,0.257777778,1,0,0,0,152,152,164,1,anarchie,images/br_anarchie.png,images/cb_anarchie.png,0,,,,,,,,,,,,,,,,,,,,,,
,,,,,00083,2023-10-26_10h51.42.878,vbt_B1_day4,2022.2.4,MacIntel,125,,,,,,down,0,0.383,,0.488888889,0.257777778,1,0,0,0,153,153,73,1,volop,images/br_volop.png,images/cb_volop.png,0,,,,,,,,,,,,,,,,,,,,,,
,,,,,00083,2023-10-26_10h51.42.878,vbt_B1_day4,2022.2.4,MacIntel,125,,,,,,down,0,2.237,,0.488888889,0.257777778,1,0,0,0,154,154,167,1,eenhoorn,images/br_eenhoorn.png,images/cb_eenhoorn.png,0,,,,,,,,,,,,,,,,,,,,,,
,,,,,00083,2023-10-26_10h51.42.878,vbt_B1_day4,2022.2.4,MacIntel,125,,,,,,down,0,0.119,,0.488888889,0.257777778,1,0,0,0,155,155,5,1,blad,images/br_blad.png,images/cb_blad.png,0,,,,,,,,,,,,,,,,,,,,,,
,,,,,00083,2023-10-26_10h51.42.878,vbt_B1_day4,2022.2.4,MacIntel,125,,,,,,down,0,0.735,,0.488888889,0.257777778,1,0,0,0,156,156,37,1,mijn,images/br_mijn.png,images/cb_mijn.png,0,,,,,,,,,,,,,,,,,,,,,,
,,,,,00083,2023-10-26_10h51.42.878,vbt_B1_day4,2022.2.4,MacIntel,125,,,,,,down,0,0.884,,0.488888889,0.257777778,1,0,0,0,157,157,139,1,stiekem,images/br_stiekem.png,images/cb_stiekem.png,0,,,,,,,,,,,,,,,,,,,,,,
,,,,,00083,2023-10-26_10h51.42.878,vbt_B1_day4,2022.2.4,MacIntel,125,,,,,,down,0,0.318,,0.488888889,0.257777778,1,0,0,0,158,158,140,1,blijven,images/br_blijven.png,images/cb_blijven.png,0,,,,,,,,,,,,,,,,,,,,,,
,,,,,00083,2023-10-26_10h51.42.878,vbt_B1_day4,2022.2.4,MacIntel,125,,,,,,down,0,2.085,,0.488888889,0.257777778,1,0,0,0,159,159,43,1,klauw,images/br_klauw.png,images/cb_klauw.png,0,,,,,,,,,,,,,,,,,,,,,,
,,,,,00083,2023-10-26_10h51.42.878,vbt_B1_day4,2022.2.4,MacIntel,125,,,,,,down,0,0.136,,0.488888889,0.257777778,1,0,0,0,160,160,53,1,baron,images/br_baron.png,images/cb_baron.png,0,,,,,,,,,,,,,,,,,,,,,,
,,,,,00083,2023-10-26_10h51.42.878,vbt_B1_day4,2022.2.4,MacIntel,125,,,,,,down,0,0.619,,0.488888889,0.257777778,1,0,0,0,161,161,137,1,trekker,images/br_trekker.png,images/cb_trekker.png,0,,,,,,,,,,,,,,,,,,,,,,
,,,,,00083,2023-10-26_10h51.42.878,vbt_B1_day4,2022.2.4,MacIntel,125,,,,,,down,0,6.567,,0.488888889,0.257777778,1,0,0,0,162,162,176,1,techniek,images/br_techniek.png,images/cb_techniek.png,0,,,,,,,,,,,,,,,,,,,,,,
,,,,,00083,2023-10-26_10h51.42.878,vbt_B1_day4,2022.2.4,MacIntel,125,,,,,,down,0,6.623,,0.486666667,0.257777778,1,0,0,0,163,163,197,1,spanning,images/br_spanning.png,images/cb_spanning.png,0,,,,,,,,,,,,,,,,,,,,,,
,,,,,00083,2023-10-26_10h51.42.878,vbt_B1_day4,2022.2.4,MacIntel,125,,,,,,down,0,0.838,,0.484444444,0.257777778,1,0,0,0,164,164,155,1,gerucht,images/br_gerucht.png,images/cb_gerucht.png,0,,,,,,,,,,,,,,,,,,,,,,
,,,,,00083,2023-10-26_10h51.42.878,vbt_B1_day4,2022.2.4,MacIntel,125,,,,,,down,0,0.567,,0.484444444,0.257777778,1,0,0,0,165,165,132,1,grappen,images/br_grappen.png,images/cb_grappen.png,0,,,,,,,,,,,,,,,,,,,,,,
,,,,,00083,2023-10-26_10h51.42.878,vbt_B1_day4,2022.2.4,MacIntel,125,,,,,,down,0,0.522,,0.484444444,0.257777778,1,0,0,0,166,166,171,1,aarzelen,images/br_aarzelen.png,images/cb_aarzelen.png,0,,,,,,,,,,,,,,,,,,,,,,
,,,,,00083,2023-10-26_10h51.42.878,vbt_B1_day4,2022.2.4,MacIntel,125,,,,,,down,0,0.476,,0.484444444,0.257777778,1,0,0,0,167,167,44,1,flits,images/br_flits.png,images/cb_flits.png,0,,,,,,,,,,,,,,,,,,,,,,
,,,,,00083,2023-10-26_10h51.42.878,vbt_B1_day4,2022.2.4,MacIntel,125,,,,,,down,0,3.665,,0.484444444,0.257777778,1,0,0,0,168,168,20,1,site,images/br_site.png,images/cb_site.png,0,,,,,,,,,,,,,,,,,,,,,,
,,,,,00083,2023-10-26_10h51.42.878,vbt_B1_day4,2022.2.4,MacIntel,125,,,,,,down,0,6.704,,0.484444444,0.257777778,1,0,0,0,169,169,82,1,muziek,images/br_muziek.png,images/cb_muziek.png,0,,,,,,,,,,,,,,,,,,,,,,
,,,,,00083,2023-10-26_10h51.42.878,vbt_B1_day4,2022.2.4,MacIntel,125,,,,,,down,0,0.741,,0.484444444,0.257777778,1,0,0,0,170,170,78,1,leren,images/br_leren.png,images/cb_leren.png,0,,,,,,,,,,,,,,,,,,,,,,
,,,,,00083,2023-10-26_10h51.42.878,vbt_B1_day4,2022.2.4,MacIntel,125,,,,,,down,0,9.966,,0.524444444,0.136666667,1,0,0,0,171,171,105,1,wijlen,images/br_wijlen.png,images/cb_wijlen.png,1,wijlen,,,,,,,,,,,,,,,,,,,,,
,,,,,00083,2023-10-26_10h51.42.878,vbt_B1_day4,2022.2.4,MacIntel,125,,,,,,down,0,7.869,,0.517777778,0.105555556,1,0,0,0,172,172,147,1,komisch,images/br_komisch.png,images/cb_komisch.png,1,,,,,,,,,,,,,,,,,,,,,,
,,,,,00083,2023-10-26_10h51.42.878,vbt_B1_day4,2022.2.4,MacIntel,125,,,,,,down,0,3.568,,0.517777778,0.105555556,1,0,0,0,173,173,157,1,uitlaat,images/br_uitlaat.png,images/cb_uitlaat.png,0,,,,,,,,,,,,,,,,,,,,,,
,,,,,00083,2023-10-26_10h51.42.878,vbt_B1_day4,2022.2.4,MacIntel,125,,,,,,down,0,0.468,,0.517777778,0.105555556,1,0,0,0,174,174,115,1,kleren,images/br_kleren.png,images/cb_kleren.png,0,,,,,,,,,,,,,,,,,,,,,,
,,,,,00083,2023-10-26_10h51.42.878,vbt_B1_day4,2022.2.4,MacIntel,125,,,,,,down,0,2.936,,0.517777778,0.105555556,1,0,0,0,175,175,27,1,dans,images/br_dans.png,images/cb_dans.png,1,dans,,,,,,,,,,,,,,,,,,,,,
,,,,,00083,2023-10-26_10h51.42.878,vbt_B1_day4,2022.2.4,MacIntel,125,,,,,,down,0,1.358,,0.517777778,0.105555556,1,0,0,0,176,176,41,1,maken,images/br_maken.png,images/cb_maken.png,0,,,,,,,,,,,,,,,,,,,,,,
,,,,,00083,2023-10-26_10h51.42.878,vbt_B1_day4,2022.2.4,MacIntel,125,,,,,,down,0,0.899,,0.376666667,0.185555556,1,0,0,0,177,177,127,1,doodmoe,images/br_doodmoe.png,images/cb_doodmoe.png,0,,,,,,,,,,,,,,,,,,,,,,
,,,,,00083,2023-10-26_10h51.42.878,vbt_B1_day4,2022.2.4,MacIntel,125,,,,,,down,0,0.913,,0.376666667,0.185555556,1,0,0,0,178,178,90,1,geluid,images/br_geluid.png,images/cb_geluid.png,0,,,,,,,,,,,,,,,,,,,,,,
,,,,,00083,2023-10-26_10h51.42.878,vbt_B1_day4,2022.2.4,MacIntel,125,,,,,,down,0,1.256,,0.376666667,0.185555556,1,0,0,0,179,179,60,1,jasje,images/br_jasje.png,images/cb_jasje.png,0,,,,,,,,,,,,,,,,,,,,,,
,,,,,00083,2023-10-26_10h51.42.878,vbt_B1_day4,2022.2.4,MacIntel,125,,,,,,down,0,0.57,,0.376666667,0.185555556,1,0,0,0,180,180,24,1,jurk,images/br_jurk.png,images/cb_jurk.png,1,,,,,,,,,,,,,,,,,,,,,,
,,,,,00083,2023-10-26_10h51.42.878,vbt_B1_day4,2022.2.4,MacIntel,125,,,,,,down,0,5.133,,0.458888889,0.17,1,0,0,0,181,181,187,1,opkijken,images/br_opkijken.png,images/cb_opkijken.png,1,opkijken,,,,,,,,,,,,,,,,,,,,,
,,,,,00083,2023-10-26_10h51.42.878,vbt_B1_day4,2022.2.4,MacIntel,125,,,,,,down,0,1.304,,0.458888889,0.17,1,0,0,0,182,182,133,1,seizoen,images/br_seizoen.png,images/cb_seizoen.png,0,,,,,,,,,,,,,,,,,,,,,,
,,,,,00083,2023-10-26_10h51.42.878,vbt_B1_day4,2022.2.4,MacIntel,125,,,,,,down,0,1.07,,0.458888889,0.17,1,0,0,0,183,183,96,1,slagen,images/br_slagen.png,images/cb_slagen.png,0,,,,,,,,,,,,,,,,,,,,,,
,,,,,00083,2023-10-26_10h51.42.878,vbt_B1_day4,2022.2.4,MacIntel,125,,,,,,down,0,0.475,,0.451111111,0.17,1,0,0,0,184,184,99,1,koffie,images/br_koffie.png,images/cb_koffie.png,0,,,,,,,,,,,,,,,,,,,,,,
,,,,,00083,2023-10-26_10h51.42.878,vbt_B1_day4,2022.2.4,MacIntel,125,,,,,,down,0,1.244,,0.45,0.17,1,0,0,0,185,185,125,1,aanzien,images/br_aanzien.png,images/cb_aanzien.png,0,,,,,,,,,,,,,,,,,,,,,,
,,,,,00083,2023-10-26_10h51.42.878,vbt_B1_day4,2022.2.4,MacIntel,125,,,,,,down,0,1.982,,0.441111111,0.168888889,1,0,0,0,186,186,118,1,vinger,images/br_vinger.png,images/cb_vinger.png,0,,,,,,,,,,,,,,,,,,,,,,
,,,,,00083,2023-10-26_10h51.42.878,vbt_B1_day4,2022.2.4,MacIntel,125,,,,,,down,0,0.017,,0.441111111,0.168888889,1,0,0,0,187,187,55,1,praat,images/br_praat.png,images/cb_praat.png,0,,,,,,,,,,,,,,,,,,,,,,
,,,,,00083,2023-10-26_10h51.42.878,vbt_B1_day4,2022.2.4,MacIntel,125,,,,,,down,0,1.167,,0.44,0.168888889,1,0,0,0,188,188,11,1,mode,images/br_mode.png,images/cb_mode.png,0,,,,,,,,,,,,,,,,,,,,,,
,,,,,00083,2023-10-26_10h51.42.878,vbt_B1_day4,2022.2.4,MacIntel,125,,,,,,down,0,0.292,,0.437777778,0.168888889,1,0,0,0,189,189,29,1,baas,images/br_baas.png,images/cb_baas.png,0,,,,,,,,,,,,,,,,,,,,,,
,,,,,00083,2023-10-26_10h51.42.878,vbt_B1_day4,2022.2.4,MacIntel,125,,,,,,down,0,0.872,,0.437777778,0.168888889,1,0,0,0,190,190,40,1,schep,images/br_schep.png,images/cb_schep.png,0,,,,,,,,,,,,,,,,,,,,,,
,,,,,00083,2023-10-26_10h51.42.878,vbt_B1_day4,2022.2.4,MacIntel,125,,,,,,down,0,0.222,,0.437777778,0.168888889,1,0,0,0,191,191,47,1,kabel,images/br_kabel.png,images/cb_kabel.png,0,,,,,,,,,,,,,,,,,,,,,,
,,,,,00083,2023-10-26_10h51.42.878,vbt_B1_day4,2022.2.4,MacIntel,125,,,,,,down,0,0.335,,0.442222222,0.177777778,1,0,0,0,192,192,57,1,steek,images/br_steek.png,images/cb_steek.png,0,,,,,,,,,,,,,,,,,,,,,,
,,,,,00083,2023-10-26_10h51.42.878,vbt_B1_day4,2022.2.4,MacIntel,125,,,,,,down,0,5.813,,0.212222222,0.14,1,0,0,0,193,193,145,1,invloed,images/br_invloed.png,images/cb_invloed.png,1,invloed,,,,,,,,,,,,,,,,,,,,,
,,,,,00083,2023-10-26_10h51.42.878,vbt_B1_day4,2022.2.4,MacIntel,125,,,,,,down,0,1.236,,0.523333333,0.148888889,1,0,0,0,194,194,14,1,rijp,images/br_rijp.png,images/cb_rijp.png,0,,,,,,,,,,,,,,,,,,,,,,
,,,,,00083,2023-10-26_10h51.42.878,vbt_B1_day4,2022.2.4,MacIntel,125,,,,,,down,0,5.263,,0.523333333,0.148888889,1,0,0,0,195,195,134,1,geliefd,images/br_geliefd.png,images/cb_geliefd.png,0,,,,,,,,,,,,,,,,,,,,,,
,,,,,00083,2023-10-26_10h51.42.878,vbt_B1_day4,2022.2.4,MacIntel,125,,,,,,down,0,0.133,,0.523333333,0.148888889,1,0,0,0,196,196,97,1,loyaal,images/br_loyaal.png,images/cb_loyaal.png,0,,,,,,,,,,,,,,,,,,,,,,
,,,,,00083,2023-10-26_10h51.42.878,vbt_B1_day4,2022.2.4,MacIntel,125,,,,,,down,0,2.372,,0.523333333,0.148888889,1,0,0,0,197,197,94,1,oceaan,images/br_oceaan.png,images/cb_oceaan.png,0,,,,,,,,,,,,,,,,,,,,,,
,,,,,00083,2023-10-26_10h51.42.878,vbt_B1_day4,2022.2.4,MacIntel,125,,,,,,down,0,0.521,,0.523333333,0.148888889,1,0,0,0,198,198,62,1,knaap,images/br_knaap.png,images/cb_knaap.png,0,,,,,,,,,,,,,,,,,,,,,,
,,,,,00083,2023-10-26_10h51.42.878,vbt_B1_day4,2022.2.4,MacIntel,125,,,,,,down,0,0.484,,0.523333333,0.148888889,1,0,0,0,199,199,12,1,kust,images/br_kust.png,images/cb_kust.png,0,,,,,,,,,,,,,,,,,,,,,,
,,,,,00083,2023-10-26_10h51.42.878,vbt_B1_day4,2022.2.4,MacIntel,125,,,,,,,,,,,,,,,,,,,,,,,,,0.16,-0.104444444,1,0,0,,,,,,,,,,,,,,,,
,,,,,00083,2023-10-26_10h51.42.878,vbt_B1_day4,2022.2.4,MacIntel,125,,,,,,,,,,,,,,,,,,,,,,,,,,,,,,0.262222222,-0.051111111,1,0,0,,,,,,,,,,,
,,,,,00083,2023-10-26_10h51.42.878,vbt_B1_day4,2022.2.4,MacIntel,125,,,,,,,,,,,,,,,,,,,,wozing,images/br_wozing.png,images/cb_wozing.png,,wozing,,,,,,,,,,,0.31,0.004444444,1,0,0,wozing,0,0,0,28,1
,,,,,00083,2023-10-26_10h51.42.878,vbt_B1_day4,2022.2.4,MacIntel,125,,,,,,,,,,,,,,,,,,,,seizoon,images/br_seizoon.png,images/cb_seizoon.png,,seizoon,,,,,,,,,,,0.261111111,0.005555556,1,0,0,seizoon,0,1,1,33,1
,,,,,00083,2023-10-26_10h51.42.878,vbt_B1_day4,2022.2.4,MacIntel,125,,,,,,,,,,,,,,,,,,,,dozijn,images/br_dozijn.png,images/cb_dozijn.png,,dozijn,,,,,,,,,,,0.203333333,-0.003333333,1,0,0,dozijn,0,2,2,48,1
,,,,,00083,2023-10-26_10h51.42.878,vbt_B1_day4,2022.2.4,MacIntel,125,,,,,,,,,,,,,,,,,,,,eerst,images/br_eerst.png,images/cb_eerst.png,,eerst,,,,,,,,,,,0.203333333,-0.003333333,1,0,0,eerst,0,3,3,47,1
,,,,,00083,2023-10-26_10h51.42.878,vbt_B1_day4,2022.2.4,MacIntel,125,,,,,,,,,,,,,,,,,,,,aanzwaag,images/br_aanzwaag.png,images/cb_aanzwaag.png,,aanzwaag,,,,,,,,,,,0.203333333,0.015555556,1,0,0,aanzwaag,0,4,4,38,1
,,,,,00083,2023-10-26_10h51.42.878,vbt_B1_day4,2022.2.4,MacIntel,125,,,,,,,,,,,,,,,,,,,,ezel,images/br_ezel.png,images/cb_ezel.png,,ezel,,,,,,,,,,,0.203333333,0.015555556,1,0,0,ezel,0,5,5,42,1
,,,,,00083,2023-10-26_10h51.42.878,vbt_B1_day4,2022.2.4,MacIntel,125,,,,,,,,,,,,,,,,,,,,paalbaak,images/br_paalbaak.png,images/cb_paalbaak.png,,paalbaak,,,,,,,,,,,0.203333333,0.015555556,1,0,0,paalbaak,0,6,6,39,1
,,,,,00083,2023-10-26_10h51.42.878,vbt_B1_day4,2022.2.4,MacIntel,125,,,,,,,,,,,,,,,,,,,,gijf,images/br_gijf.png,images/cb_gijf.png,,gijf,,,,,,,,,,,0.203333333,0.015555556,1,0,0,gijf,0,7,7,23,1
,,,,,00083,2023-10-26_10h51.42.878,vbt_B1_day4,2022.2.4,MacIntel,125,,,,,,,,,,,,,,,,,,,,vreten,images/br_vreten.png,images/cb_vreten.png,,vreten,,,,,,,,,,,0.2,-0.01,1,0,0,vreten,0,8,8,11,1
,,,,,00083,2023-10-26_10h51.42.878,vbt_B1_day4,2022.2.4,MacIntel,125,,,,,,,,,,,,,,,,,,,,drummer,images/br_drummer.png,images/cb_drummer.png,,drummer,,,,,,,,,,,0.2,-0.01,1,0,0,drummer,0,9,9,53,1
,,,,,00083,2023-10-26_10h51.42.878,vbt_B1_day4,2022.2.4,MacIntel,125,,,,,,,,,,,,,,,,,,,,midden,images/br_midden.png,images/cb_midden.png,,midden,,,,,,,,,,,0.265555556,0.014444444,1,0,0,midden,0,10,10,50,1
,,,,,00083,2023-10-26_10h51.42.878,vbt_B1_day4,2022.2.4,MacIntel,125,,,,,,,,,,,,,,,,,,,,wagon,images/br_wagon.png,images/cb_wagon.png,,wagon,,,,,,,,,,,0.265555556,0.014444444,1,0,0,wagon,0,11,11,4,1
,,,,,00083,2023-10-26_10h51.42.878,vbt_B1_day4,2022.2.4,MacIntel,125,,,,,,,,,,,,,,,,,,,,strok,images/br_strok.png,images/cb_strok.png,,strok,,,,,,,,,,,0.265555556,0.014444444,1,0,0,strok,0,12,12,25,1
,,,,,00083,2023-10-26_10h51.42.878,vbt_B1_day4,2022.2.4,MacIntel,125,,,,,,,,,,,,,,,,,,,,apparaat,images/br_apparaat.png,images/cb_apparaat.png,,apparaat,,,,,,,,,,,0.265555556,0.014444444,1,0,0,apparaat,0,13,13,17,1
,,,,,00083,2023-10-26_10h51.42.878,vbt_B1_day4,2022.2.4,MacIntel,125,,,,,,,,,,,,,,,,,,,,stemming,images/br_stemming.png,images/cb_stemming.png,,stemming,,,,,,,,,,,0.265555556,0.014444444,1,0,0,stemming,0,14,14,18,1
,,,,,00083,2023-10-26_10h51.42.878,vbt_B1_day4,2022.2.4,MacIntel,125,,,,,,,,,,,,,,,,,,,,oceaan,images/br_oceaan.png,images/cb_oceaan.png,,oceaan,,,,,,,,,,,0.265555556,0.014444444,1,0,0,oceaan,0,15,15,10,1
,,,,,00083,2023-10-26_10h51.42.878,vbt_B1_day4,2022.2.4,MacIntel,125,,,,,,,,,,,,,,,,,,,,haza,images/br_haza.png,images/cb_haza.png,,haza,,,,,,,,,,,0.265555556,0.014444444,1,0,0,haza,0,16,16,21,1
,,,,,00083,2023-10-26_10h51.42.878,vbt_B1_day4,2022.2.4,MacIntel,125,,,,,,,,,,,,,,,,,,,,sulbon,images/br_sulbon.png,images/cb_sulbon.png,,sulbon,,,,,,,,,,,0.265555556,0.014444444,1,0,0,sulbon,0,17,17,31,1
,,,,,00083,2023-10-26_10h51.42.878,vbt_B1_day4,2022.2.4,MacIntel,125,,,,,,,,,,,,,,,,,,,,waarop,images/br_waarop.png,images/cb_waarop.png,,waarop,,,,,,,,,,,0.265555556,0.014444444,1,0,0,waarop,0,18,18,9,1
,,,,,00083,2023-10-26_10h51.42.878,vbt_B1_day4,2022.2.4,MacIntel,125,,,,,,,,,,,,,,,,,,,,getucht,images/br_getucht.png,images/cb_getucht.png,,getucht,,,,,,,,,,,0.265555556,0.014444444,1,0,0,getucht,0,19,19,35,1
,,,,,00083,2023-10-26_10h51.42.878,vbt_B1_day4,2022.2.4,MacIntel,125,,,,,,,,,,,,,,,,,,,,geheim,images/br_geheim.png,images/cb_geheim.png,,geheim,,,,,,,,,,,0.265555556,0.014444444,1,0,0,geheim,0,20,20,8,1
,,,,,00083,2023-10-26_10h51.42.878,vbt_B1_day4,2022.2.4,MacIntel,125,,,,,,,,,,,,,,,,,,,,kaal,images/br_kaal.png,images/cb_kaal.png,,kaal,,,,,,,,,,,0.265555556,0.014444444,1,0,0,kaal,0,21,21,1,1
,,,,,00083,2023-10-26_10h51.42.878,vbt_B1_day4,2022.2.4,MacIntel,125,,,,,,,,,,,,,,,,,,,,kust,images/br_kust.png,images/cb_kust.png,,kust,,,,,,,,,,,0.265555556,0.014444444,1,0,0,kust,0,22,22,0,1
,,,,,00083,2023-10-26_10h51.42.878,vbt_B1_day4,2022.2.4,MacIntel,125,,,,,,,,,,,,,,,,,,,,zwek,images/br_zwek.png,images/cb_zwek.png,,zwek,,,,,,,,,,,0.265555556,0.014444444,1,0,0,zwek,0,23,23,20,1
,,,,,00083,2023-10-26_10h51.42.878,vbt_B1_day4,2022.2.4,MacIntel,125,,,,,,,,,,,,,,,,,,,,flippen,images/br_flippen.png,images/cb_flippen.png,,flipper,,,,,,,,,,,0.265555556,0.014444444,1,0,0,flipper,0,24,24,54,1
,,,,,00083,2023-10-26_10h51.42.878,vbt_B1_day4,2022.2.4,MacIntel,125,,,,,,,,,,,,,,,,,,,,grappen,images/br_grappen.png,images/cb_grappen.png,,grappen,,,,,,,,,,,0.265555556,0.014444444,1,0,0,grappen,0,25,25,12,1
,,,,,00083,2023-10-26_10h51.42.878,vbt_B1_day4,2022.2.4,MacIntel,125,,,,,,,,,,,,,,,,,,,,heengaan,images/br_heengaan.png,images/cb_heengaan.png,,heengaan,,,,,,,,,,,0.265555556,0.014444444,1,0,0,heengaan,0,26,26,19,1
,,,,,00083,2023-10-26_10h51.42.878,vbt_B1_day4,2022.2.4,MacIntel,125,,,,,,,,,,,,,,,,,,,,geliefd,images/br_geliefd.png,images/cb_geliefd.png,,geliefd,,,,,,,,,,,0.265555556,0.014444444,1,0,0,geliefd,0,27,27,14,1
,,,,,00083,2023-10-26_10h51.42.878,vbt_B1_day4,2022.2.4,MacIntel,125,,,,,,,,,,,,,,,,,,,,bisschap,images/br_bisschap.png,images/cb_bisschap.png,,bisschap,,,,,,,,,,,0.265555556,0.014444444,1,0,0,bisschap,0,28,28,36,1
,,,,,00083,2023-10-26_10h51.42.878,vbt_B1_day4,2022.2.4,MacIntel,125,,,,,,,,,,,,,,,,,,,,steen,images/br_steen.png,images/cb_steen.png,,steen,,,,,,,,,,,0.265555556,0.014444444,1,0,0,steen,0,29,29,44,1
,,,,,00083,2023-10-26_10h51.42.878,vbt_B1_day4,2022.2.4,MacIntel,125,,,,,,,,,,,,,,,,,,,,toevol,images/br_toevol.png,images/cb_toevol.png,,toevol,,,,,,,,,,,0.265555556,0.014444444,1,0,0,toevol,0,30,30,29,1
,,,,,00083,2023-10-26_10h51.42.878,vbt_B1_day4,2022.2.4,MacIntel,125,,,,,,,,,,,,,,,,,,,,opruimen,images/br_opruimen.png,images/cb_opruimen.png,,opruimen,,,,,,,,,,,0.265555556,0.014444444,1,0,0,opruimen,0,31,31,59,1
,,,,,00083,2023-10-26_10h51.42.878,vbt_B1_day4,2022.2.4,MacIntel,125,,,,,,,,,,,,,,,,,,,,noodzaak,images/br_noodzaak.png,images/cb_noodzaak.png,,noodzaak,,,,,,,,,,,0.265555556,0.014444444,1,0,0,noodzaak,0,32,32,56,1
,,,,,00083,2023-10-26_10h51.42.878,vbt_B1_day4,2022.2.4,MacIntel,125,,,,,,,,,,,,,,,,,,,,soda,images/br_soda.png,images/cb_soda.png,,soda,,,,,,,,,,,0.265555556,0.014444444,1,0,0,soda,0,33,33,3,1
,,,,,00083,2023-10-26_10h51.42.878,vbt_B1_day4,2022.2.4,MacIntel,125,,,,,,,,,,,,,,,,,,,,dalen,images/br_dalen.png,images/cb_dalen.png,,dalen,,,,,,,,,,,0.265555556,0.014444444,1,0,0,dalen,0,34,34,46,1
,,,,,00083,2023-10-26_10h51.42.878,vbt_B1_day4,2022.2.4,MacIntel,125,,,,,,,,,,,,,,,,,,,,rijp,images/br_rijp.png,images/cb_rijp.png,,rijp,,,,,,,,,,,0.265555556,0.014444444,1,0,0,rijp,0,35,35,2,1
,,,,,00083,2023-10-26_10h51.42.878,vbt_B1_day4,2022.2.4,MacIntel,125,,,,,,,,,,,,,,,,,,,,praat,images/br_praat.png,images/cb_praat.png,,praat,,,,,,,,,,,0.265555556,0.014444444,1,0,0,praat,0,36,36,7,1
,,,,,00083,2023-10-26_10h51.42.878,vbt_B1_day4,2022.2.4,MacIntel,125,,,,,,,,,,,,,,,,,,,,mekst,images/br_mekst.png,images/cb_mekst.png,,mekst,,,,,,,,,,,0.265555556,0.014444444,1,0,0,mekst,0,37,37,27,1
,,,,,00083,2023-10-26_10h51.42.878,vbt_B1_day4,2022.2.4,MacIntel,125,,,,,,,,,,,,,,,,,,,,warel,images/br_warel.png,images/cb_warel.png,,warel,,,,,,,,,,,0.253333333,0.013333333,1,0,0,warel,0,38,38,26,1
,,,,,00083,2023-10-26_10h51.42.878,vbt_B1_day4,2022.2.4,MacIntel,125,,,,,,,,,,,,,,,,,,,,drooien,images/br_drooien.png,images/cb_drooien.png,,drooien,,,,,,,,,,,0.202222222,0.01,1,0,0,drooien,0,39,39,32,1
,,,,,00083,2023-10-26_10h51.42.878,vbt_B1_day4,2022.2.4,MacIntel,125,,,,,,,,,,,,,,,,,,,,opkicht,images/br_opkicht.png,images/cb_opkicht.png,,opkicht,,,,,,,,,,,0.213333333,0.035555556,1,0,0,opkicht,0,40,40,34,1
,,,,,00083,2023-10-26_10h51.42.878,vbt_B1_day4,2022.2.4,MacIntel,125,,,,,,,,,,,,,,,,,,,,bruin,images/br_bruin.png,images/cb_bruin.png,,bruin,,,,,,,,,,,0.195555556,0.012222222,1,0,0,bruin,0,41,41,45,1
,,,,,00083,2023-10-26_10h51.42.878,vbt_B1_day4,2022.2.4,MacIntel,125,,,,,,,,,,,,,,,,,,,,gaaf,images/br_gaaf.png,images/cb_gaaf.png,,gaaf,,,,,,,,,,,0.195555556,0.012222222,1,0,0,gaaf,0,42,42,43,1
,,,,,00083,2023-10-26_10h51.42.878,vbt_B1_day4,2022.2.4,MacIntel,125,,,,,,,,,,,,,,,,,,,,fran,images/br_fran.png,images/cb_fran.png,,fran,,,,,,,,,,,0.195555556,0.012222222,1,0,0,fran,0,43,43,22,1
,,,,,00083,2023-10-26_10h51.42.878,vbt_B1_day4,2022.2.4,MacIntel,125,,,,,,,,,,,,,,,,,,,,zaalrijk,images/br_zaalrijk.png,images/cb_zaalrijk.png,,zaalrijk,,,,,,,,,,,0.176666667,0.028888889,1,0,0,zaalrijk,0,44,44,37,1
,,,,,00083,2023-10-26_10h51.42.878,vbt_B1_day4,2022.2.4,MacIntel,125,,,,,,,,,,,,,,,,,,,,gaan,images/br_gaan.png,images/cb_gaan.png,,gaan,,,,,,,,,,,0.176666667,0.028888889,1,0,0,gaan,0,45,45,41,1
,,,,,00083,2023-10-26_10h51.42.878,vbt_B1_day4,2022.2.4,MacIntel,125,,,,,,,,,,,,,,,,,,,,gedicht,images/br_gedicht.png,images/cb_gedicht.png,,gedicht,,,,,,,,,,,0.176666667,0.028888889,1,0,0,gedicht,0,46,46,15,1
,,,,,00083,2023-10-26_10h51.42.878,vbt_B1_day4,2022.2.4,MacIntel,125,,,,,,,,,,,,,,,,,,,,lappen,images/br_lappen.png,images/cb_lappen.png,,lappen,,,,,,,,,,,0.176666667,0.028888889,1,0,0,lappen,0,47,47,49,1
,,,,,00083,2023-10-26_10h51.42.878,vbt_B1_day4,2022.2.4,MacIntel,125,,,,,,,,,,,,,,,,,,,,schenden,images/br_schenden.png,images/cb_schenden.png,,schenden,,,,,,,,,,,0.434444444,0.042222222,1,0,0,schenden,0,48,48,57,1
,,,,,00083,2023-10-26_10h51.42.878,vbt_B1_day4,2022.2.4,MacIntel,125,,,,,,,,,,,,,,,,,,,,tucket,images/br_tucket.png,images/cb_tucket.png,,tuchen,,,,,,,,,,,0.284444444,0.058888889,1,0,0,tuchen,0,49,49,30,1
,,,,,00083,2023-10-26_10h51.42.878,vbt_B1_day4,2022.2.4,MacIntel,125,,,,,,,,,,,,,,,,,,,,broodje,images/br_broodje.png,images/cb_broodje.png,,broodje,,,,,,,,,,,0.284444444,0.058888889,1,0,0,broodje,0,50,50,55,1
,,,,,00083,2023-10-26_10h51.42.878,vbt_B1_day4,2022.2.4,MacIntel,125,,,,,,,,,,,,,,,,,,,,weigeren,images/br_weigeren.png,images/cb_weigeren.png,,weigeren,,,,,,,,,,,0.284444444,0.058888889,1,0,0,weigeren,0,51,51,16,1
,,,,,00083,2023-10-26_10h51.42.878,vbt_B1_day4,2022.2.4,MacIntel,125,,,,,,,,,,,,,,,,,,,,pittig,images/br_pittig.png,images/cb_pittig.png,,pittig,,,,,,,,,,,0.284444444,0.058888889,1,0,0,pittig,0,52,52,51,1
,,,,,00083,2023-10-26_10h51.42.878,vbt_B1_day4,2022.2.4,MacIntel,125,,,,,,,,,,,,,,,,,,,,snee,images/br_snee.png,images/cb_snee.png,,snee,,,,,,,,,,,0.284444444,0.058888889,1,0,0,snee,0,53,53,40,1
,,,,,00083,2023-10-26_10h51.42.878,vbt_B1_day4,2022.2.4,MacIntel,125,,,,,,,,,,,,,,,,,,,,baron,images/br_baron.png,images/cb_baron.png,,baron,,,,,,,,,,,0.284444444,0.058888889,1,0,0,baron,0,54,54,5,1
,,,,,00083,2023-10-26_10h51.42.878,vbt_B1_day4,2022.2.4,MacIntel,125,,,,,,,,,,,,,,,,,,,,schotel,images/br_schotel.png,images/cb_schotel.png,,schotel,,,,,,,,,,,0.284444444,0.058888889,1,0,0,schotel,0,55,55,52,1
,,,,,00083,2023-10-26_10h51.42.878,vbt_B1_day4,2022.2.4,MacIntel,125,,,,,,,,,,,,,,,,,,,,seizoen,images/br_seizoen.png,images/cb_seizoen.png,,seizoen,,,,,,,,,,,0.284444444,0.058888889,1,0,0,seizoen,0,56,56,13,1
,,,,,00083,2023-10-26_10h51.42.878,vbt_B1_day4,2022.2.4,MacIntel,125,,,,,,,,,,,,,,,,,,,,pijnlijk,images/br_pijnlijk.png,images/cb_pijnlijk.png,,pijnlijk,,,,,,,,,,,0.284444444,0.058888889,1,0,0,pijnlijk,0,57,57,58,1
,,,,,00083,2023-10-26_10h51.42.878,vbt_B1_day4,2022.2.4,MacIntel,125,,,,,,,,,,,,,,,,,,,,gebog,images/br_gebog.png,images/cb_gebog.png,,gebog,,,,,,,,,,,0.218888889,0.038888889,1,0,0,gebog,0,58,58,24,1
,,,,,00083,2023-10-26_10h51.42.878,vbt_B1_day4,2022.2.4,MacIntel,125,,,,,,,,,,,,,,,,,,,,gebit,images/br_gebit.png,images/cb_gebit.png,,gebit,,,,,,,,,,,0.218888889,0.038888889,1,0,0,gebit,0,59,59,6,1
,,,,,00083,2023-10-26_10h51.42.878,vbt_B1_day4,2022.2.4,MacIntel,125,,,,,,,,,,,,,,,,,,,,,,,,,,,,,,,,,,,,,,,,,,,,,
