welcome_mouse.x,welcome_mouse.y,welcome_mouse.leftButton,welcome_mouse.midButton,welcome_mouse.rightButton,"ID",date,expName,psychopyVersion,OS,frameRate,trainInstr_mouse.x,trainInstr_mouse.y,trainInstr_mouse.leftButton,trainInstr_mouse.midButton,trainInstr_mouse.rightButton,translation_key.keys,translation_key.corr,translation_key.rt,word_rsp.text,trWrd_mouse.x,trWrd_mouse.y,trWrd_mouse.leftButton,trWrd_mouse.midButton,trWrd_mouse.rightButton,train_loop.thisRepN,train_loop.thisTrialN,train_loop.thisN,train_loop.thisIndex,train_loop.ran,nlWrd,brWrd,cbWrd,test,testResp,mouse.x,mouse.y,mouse.leftButton,mouse.midButton,mouse.rightButton,testInstr_mouse.x,testInstr_mouse.y,testInstr_mouse.leftButton,testInstr_mouse.midButton,testInstr_mouse.rightButton,test_mouse.x,test_mouse.y,test_mouse.leftButton,test_mouse.midButton,test_mouse.rightButton,test_response.text,test_loop.thisRepN,test_loop.thisTrialN,test_loop.thisN,test_loop.thisIndex,test_loop.ran
0.064814815,-0.051851873,1,0,0,00082,2023-10-24_13h19.14.355,vbt_B1_day4,2022.2.4,Win32,59.84798612,,,,,,,,,,,,,,,,,,,,,,,,,,,,,,,,,,,,,,,,,,,,,
,,,,,00082,2023-10-24_13h19.14.355,vbt_B1_day4,2022.2.4,Win32,59.84798612,0.075925968,-0.052777785,1,0,0,,,,,,,,,,,,,,,,,,,,,,,,,,,,,,,,,,,,,,,,
,,,,,00082,2023-10-24_13h19.14.355,vbt_B1_day4,2022.2.4,Win32,59.84798612,,,,,,down,0,6.2261,,0.078703704,-0.044444437,1,0,0,0,0,0,131,1,opzicht,images/br_opzicht.png,images/cb_opzicht.png,0,,,,,,,,,,,,,,,,,,,,,,
,,,,,00082,2023-10-24_13h19.14.355,vbt_B1_day4,2022.2.4,Win32,59.84798612,,,,,,down,0,0.5388,,0.156481496,-0.00462963,1,0,0,0,1,1,3,1,mand,images/br_mand.png,images/cb_mand.png,0,,,,,,,,,,,,,,,,,,,,,,
,,,,,00082,2023-10-24_13h19.14.355,vbt_B1_day4,2022.2.4,Win32,59.84798612,,,,,,down,0,5.2214,,-0.52870369,0.077777757,1,0,0,0,2,2,192,1,schaamte,images/br_schaamte.png,images/cb_schaamte.png,0,,,,,,,,,,,,,,,,,,,,,,
,,,,,00082,2023-10-24_13h19.14.355,vbt_B1_day4,2022.2.4,Win32,59.84798612,,,,,,down,0,12.7388,,0.209259245,0.213888892,1,0,0,0,3,3,158,1,innemen,images/br_innemen.png,images/cb_innemen.png,0,,,,,,,,,,,,,,,,,,,,,,
,,,,,00082,2023-10-24_13h19.14.355,vbt_B1_day4,2022.2.4,Win32,59.84798612,,,,,,down,0,2.2839,,0.140740783,0.128703683,1,0,0,0,4,4,111,1,ticket,images/br_ticket.png,images/cb_ticket.png,0,,,,,,,,,,,,,,,,,,,,,,
,,,,,00082,2023-10-24_13h19.14.355,vbt_B1_day4,2022.2.4,Win32,59.84798612,,,,,,down,0,3.5288,,0.140740783,0.128703683,1,0,0,0,5,5,175,1,heengaan,images/br_heengaan.png,images/cb_heengaan.png,0,,,,,,,,,,,,,,,,,,,,,,
,,,,,00082,2023-10-24_13h19.14.355,vbt_B1_day4,2022.2.4,Win32,59.84798612,,,,,,down,0,0.7563,,0.308333362,0.146296289,1,0,0,0,6,6,97,1,loyaal,images/br_loyaal.png,images/cb_loyaal.png,0,,,,,,,,,,,,,,,,,,,,,,
,,,,,00082,2023-10-24_13h19.14.355,vbt_B1_day4,2022.2.4,Win32,59.84798612,,,,,,down,0,1.082,,0.301851908,0.152777778,1,0,0,0,7,7,177,1,maaltijd,images/br_maaltijd.png,images/cb_maaltijd.png,0,,,,,,,,,,,,,,,,,,,,,,
,,,,,00082,2023-10-24_13h19.14.355,vbt_B1_day4,2022.2.4,Win32,59.84798612,,,,,,down,0,0.1034,,0.300000085,0.152777778,1,0,0,0,8,8,194,1,driemaal,images/br_driemaal.png,images/cb_driemaal.png,0,,,,,,,,,,,,,,,,,,,,,,
,,,,,00082,2023-10-24_13h19.14.355,vbt_B1_day4,2022.2.4,Win32,59.84798612,,,,,,down,0,1.1035,,0.315740797,0.15370369,1,0,0,0,9,9,64,1,wegen,images/br_wegen.png,images/cb_wegen.png,1,wegen,,,,,,,,,,,,,,,,,,,,,
,,,,,00082,2023-10-24_13h19.14.355,vbt_B1_day4,2022.2.4,Win32,59.84798612,,,,,,down,0,0.6496,,0.056481467,0.175925926,1,0,0,0,10,10,62,1,knaap,images/br_knaap.png,images/cb_knaap.png,0,,,,,,,,,,,,,,,,,,,,,,
,,,,,00082,2023-10-24_13h19.14.355,vbt_B1_day4,2022.2.4,Win32,59.84798612,,,,,,down,0,1.1982,,0.310185185,0.168518526,1,0,0,0,11,11,73,1,volop,images/br_volop.png,images/cb_volop.png,0,,,,,,,,,,,,,,,,,,,,,,
,,,,,00082,2023-10-24_13h19.14.355,vbt_B1_day4,2022.2.4,Win32,59.84798612,,,,,,down,0,0.848,,0.308333362,0.029629637,1,0,0,0,12,12,72,1,strak,images/br_strak.png,images/cb_strak.png,0,,,,,,,,,,,,,,,,,,,,,,
,,,,,00082,2023-10-24_13h19.14.355,vbt_B1_day4,2022.2.4,Win32,59.84798612,,,,,,down,0,6.01,,0.325925898,0.039814808,1,0,0,0,13,13,199,1,beseffen,images/br_beseffen.png,images/cb_beseffen.png,0,,,,,,,,,,,,,,,,,,,,,,
,,,,,00082,2023-10-24_13h19.14.355,vbt_B1_day4,2022.2.4,Win32,59.84798612,,,,,,down,0,1.8505,,0.324074074,0.039814808,1,0,0,0,14,14,196,1,nakijken,images/br_nakijken.png,images/cb_nakijken.png,0,,,,,,,,,,,,,,,,,,,,,,
,,,,,00082,2023-10-24_13h19.14.355,vbt_B1_day4,2022.2.4,Win32,59.84798612,,,,,,down,0,0.6008,,-0.031481496,0.053703697,1,0,0,0,15,15,102,1,legaal,images/br_legaal.png,images/cb_legaal.png,0,,,,,,,,,,,,,,,,,,,,,,
,,,,,00082,2023-10-24_13h19.14.355,vbt_B1_day4,2022.2.4,Win32,59.84798612,,,,,,down,0,0.5705,,-0.031481496,0.053703697,1,0,0,0,16,16,60,1,jasje,images/br_jasje.png,images/cb_jasje.png,0,,,,,,,,,,,,,,,,,,,,,,
,,,,,00082,2023-10-24_13h19.14.355,vbt_B1_day4,2022.2.4,Win32,59.84798612,,,,,,down,0,0.3386,,-0.031481496,0.053703697,1,0,0,0,17,17,86,1,woning,images/br_woning.png,images/cb_woning.png,0,,,,,,,,,,,,,,,,,,,,,,
,,,,,00082,2023-10-24_13h19.14.355,vbt_B1_day4,2022.2.4,Win32,59.84798612,,,,,,down,0,2.5632,,-0.031481496,0.053703697,1,0,0,0,18,18,146,1,opkomen,images/br_opkomen.png,images/cb_opkomen.png,1,opkomen,,,,,,,,,,,,,,,,,,,,,
,,,,,00082,2023-10-24_13h19.14.355,vbt_B1_day4,2022.2.4,Win32,59.84798612,,,,,,down,0,1.2186,,-0.031481496,0.053703697,1,0,0,0,19,19,142,1,snuiven,images/br_snuiven.png,images/cb_snuiven.png,0,,,,,,,,,,,,,,,,,,,,,,
,,,,,00082,2023-10-24_13h19.14.355,vbt_B1_day4,2022.2.4,Win32,59.84798612,,,,,,down,0,0.0006,,-0.031481496,0.053703697,1,0,0,0,20,20,172,1,weigeren,images/br_weigeren.png,images/cb_weigeren.png,0,,,,,,,,,,,,,,,,,,,,,,
,,,,,00082,2023-10-24_13h19.14.355,vbt_B1_day4,2022.2.4,Win32,59.84798612,,,,,,down,0,0.704,,-0.031481496,0.053703697,1,0,0,0,21,21,46,1,jagen,images/br_jagen.png,images/cb_jagen.png,0,,,,,,,,,,,,,,,,,,,,,,
,,,,,00082,2023-10-24_13h19.14.355,vbt_B1_day4,2022.2.4,Win32,59.84798612,,,,,,down,0,0.0218,,-0.031481496,0.053703697,1,0,0,0,22,22,155,1,gerucht,images/br_gerucht.png,images/cb_gerucht.png,0,,,,,,,,,,,,,,,,,,,,,,
,,,,,00082,2023-10-24_13h19.14.355,vbt_B1_day4,2022.2.4,Win32,59.84798612,,,,,,down,0,7.515,,-0.031481496,0.053703697,1,0,0,0,23,23,106,1,zingen,images/br_zingen.png,images/cb_zingen.png,1,zingen,,,,,,,,,,,,,,,,,,,,,
,,,,,00082,2023-10-24_13h19.14.355,vbt_B1_day4,2022.2.4,Win32,59.84798612,,,,,,down,0,1.2905,,-0.031481496,0.053703697,1,0,0,0,24,24,125,1,aanzien,images/br_aanzien.png,images/cb_aanzien.png,0,,,,,,,,,,,,,,,,,,,,,,
,,,,,00082,2023-10-24_13h19.14.355,vbt_B1_day4,2022.2.4,Win32,59.84798612,,,,,,down,0,9.3726,,-0.031481496,0.053703697,1,0,0,0,25,25,28,1,stal,images/br_stal.png,images/cb_stal.png,0,,,,,,,,,,,,,,,,,,,,,,
,,,,,00082,2023-10-24_13h19.14.355,vbt_B1_day4,2022.2.4,Win32,59.84798612,,,,,,down,0,1.304,,-0.031481496,0.053703697,1,0,0,0,26,26,33,1,vlek,images/br_vlek.png,images/cb_vlek.png,0,,,,,,,,,,,,,,,,,,,,,,
,,,,,00082,2023-10-24_13h19.14.355,vbt_B1_day4,2022.2.4,Win32,59.84798612,,,,,,down,0,6.9474,,-0.031481496,0.053703697,1,0,0,0,27,27,109,1,totaal,images/br_totaal.png,images/cb_totaal.png,0,,,,,,,,,,,,,,,,,,,,,,
,,,,,00082,2023-10-24_13h19.14.355,vbt_B1_day4,2022.2.4,Win32,59.84798612,,,,,,down,0,1.0904,,-0.031481496,0.053703697,1,0,0,0,28,28,42,1,bleek,images/br_bleek.png,images/cb_bleek.png,0,,,,,,,,,,,,,,,,,,,,,,
,,,,,00082,2023-10-24_13h19.14.355,vbt_B1_day4,2022.2.4,Win32,59.84798612,,,,,,down,0,5.5091,,-0.02870369,0.061111097,1,0,0,0,29,29,147,1,komisch,images/br_komisch.png,images/cb_komisch.png,1,komisch,,,,,,,,,,,,,,,,,,,,,
,,,,,00082,2023-10-24_13h19.14.355,vbt_B1_day4,2022.2.4,Win32,59.84798612,,,,,,down,0,0.9238,,0.517592677,0.042592578,1,0,0,0,30,30,1,1,zaal,images/br_zaal.png,images/cb_zaal.png,0,,,,,,,,,,,,,,,,,,,,,,
,,,,,00082,2023-10-24_13h19.14.355,vbt_B1_day4,2022.2.4,Win32,59.84798612,,,,,,down,0,0.6972,,0.477777834,0.121296282,1,0,0,0,31,31,157,1,uitlaat,images/br_uitlaat.png,images/cb_uitlaat.png,0,,,,,,,,,,,,,,,,,,,,,,
,,,,,00082,2023-10-24_13h19.14.355,vbt_B1_day4,2022.2.4,Win32,59.84798612,,,,,,down,0,4.4215,,0.238888917,0.134259259,1,0,0,0,32,32,122,1,waarvan,images/br_waarvan.png,images/cb_waarvan.png,0,,,,,,,,,,,,,,,,,,,,,,
,,,,,00082,2023-10-24_13h19.14.355,vbt_B1_day4,2022.2.4,Win32,59.84798612,,,,,,down,0,1.4741,,-0.386111118,0.084259245,1,0,0,0,33,33,90,1,geluid,images/br_geluid.png,images/cb_geluid.png,0,,,,,,,,,,,,,,,,,,,,,,
,,,,,00082,2023-10-24_13h19.14.355,vbt_B1_day4,2022.2.4,Win32,59.84798612,,,,,,down,0,0.6159,,-0.111111111,0.026851831,1,0,0,0,34,34,118,1,vinger,images/br_vinger.png,images/cb_vinger.png,0,,,,,,,,,,,,,,,,,,,,,,
,,,,,00082,2023-10-24_13h19.14.355,vbt_B1_day4,2022.2.4,Win32,59.84798612,,,,,,down,0,60.208,,0.003703718,-0.271296325,1,0,0,0,35,35,26,1,leuk,images/br_leuk.png,images/cb_leuk.png,1,leuk,,,,,,,,,,,,,,,,,,,,,
,,,,,00082,2023-10-24_13h19.14.355,vbt_B1_day4,2022.2.4,Win32,59.84798612,,,,,,down,0,0.2206,,0.111111111,0.11296297,1,0,0,0,36,36,20,1,site,images/br_site.png,images/cb_site.png,0,,,,,,,,,,,,,,,,,,,,,,
,,,,,00082,2023-10-24_13h19.14.355,vbt_B1_day4,2022.2.4,Win32,59.84798612,,,,,,down,0,5.3282,,0.112037023,0.1175926,1,0,0,0,37,37,186,1,voorraad,images/br_voorraad.png,images/cb_voorraad.png,1,voorraad,,,,,,,,,,,,,,,,,,,,,
,,,,,00082,2023-10-24_13h19.14.355,vbt_B1_day4,2022.2.4,Win32,59.84798612,,,,,,down,0,1.7367,,0.187037079,0.216666663,1,0,0,0,38,38,77,1,woede,images/br_woede.png,images/cb_woede.png,0,,,,,,,,,,,,,,,,,,,,,,
,,,,,00082,2023-10-24_13h19.14.355,vbt_B1_day4,2022.2.4,Win32,59.84798612,,,,,,down,0,2.7695,,0.20185188,0.210185175,1,0,0,0,39,39,75,1,snoep,images/br_snoep.png,images/cb_snoep.png,0,,,,,,,,,,,,,,,,,,,,,,
,,,,,00082,2023-10-24_13h19.14.355,vbt_B1_day4,2022.2.4,Win32,59.84798612,,,,,,down,0,1.5324,,0.350000028,0.162037037,1,0,0,0,40,40,23,1,zout,images/br_zout.png,images/cb_zout.png,0,,,,,,,,,,,,,,,,,,,,,,
,,,,,00082,2023-10-24_13h19.14.355,vbt_B1_day4,2022.2.4,Win32,59.84798612,,,,,,down,0,3.4238,,0.025000042,0.02407406,1,0,0,0,41,41,116,1,besmet,images/br_besmet.png,images/cb_besmet.png,0,,,,,,,,,,,,,,,,,,,,,,
,,,,,00082,2023-10-24_13h19.14.355,vbt_B1_day4,2022.2.4,Win32,59.84798612,,,,,,down,0,0.1266,,0.021296325,0.023148148,1,0,0,0,42,42,115,1,kleren,images/br_kleren.png,images/cb_kleren.png,0,,,,,,,,,,,,,,,,,,,,,,
,,,,,00082,2023-10-24_13h19.14.355,vbt_B1_day4,2022.2.4,Win32,59.84798612,,,,,,down,0,3.8303,,-0.013888889,0.017592571,1,0,0,0,43,43,167,1,eenhoorn,images/br_eenhoorn.png,images/cb_eenhoorn.png,0,,,,,,,,,,,,,,,,,,,,,,
,,,,,00082,2023-10-24_13h19.14.355,vbt_B1_day4,2022.2.4,Win32,59.84798612,,,,,,down,0,0.4742,,-0.022222236,0.013888889,1,0,0,0,44,44,150,1,gegeven,images/br_gegeven.png,images/cb_gegeven.png,0,,,,,,,,,,,,,,,,,,,,,,
,,,,,00082,2023-10-24_13h19.14.355,vbt_B1_day4,2022.2.4,Win32,59.84798612,,,,,,down,0,1.9722,,-0.033333319,0.010185171,1,0,0,0,45,45,162,1,uitdelen,images/br_uitdelen.png,images/cb_uitdelen.png,0,,,,,,,,,,,,,,,,,,,,,,
,,,,,00082,2023-10-24_13h19.14.355,vbt_B1_day4,2022.2.4,Win32,59.84798612,,,,,,down,0,0.2036,,-0.040740755,0.008333312,1,0,0,0,46,46,96,1,slagen,images/br_slagen.png,images/cb_slagen.png,0,,,,,,,,,,,,,,,,,,,,,,
,,,,,00082,2023-10-24_13h19.14.355,vbt_B1_day4,2022.2.4,Win32,59.84798612,,,,,,down,0,0.483,,0.231481481,0.080555563,1,0,0,0,47,47,43,1,klauw,images/br_klauw.png,images/cb_klauw.png,0,,,,,,,,,,,,,,,,,,,,,,
,,,,,00082,2023-10-24_13h19.14.355,vbt_B1_day4,2022.2.4,Win32,59.84798612,,,,,,down,0,2.0489,,0.203703704,0.194444444,1,0,0,0,48,48,76,1,afval,images/br_afval.png,images/cb_afval.png,0,,,,,,,,,,,,,,,,,,,,,,
,,,,,00082,2023-10-24_13h19.14.355,vbt_B1_day4,2022.2.4,Win32,59.84798612,,,,,,down,0,1.5591,,0.104629658,0.191666674,1,0,0,0,49,49,152,1,afnemen,images/br_afnemen.png,images/cb_afnemen.png,0,,,,,,,,,,,,,,,,,,,,,,
,,,,,00082,2023-10-24_13h19.14.355,vbt_B1_day4,2022.2.4,Win32,59.84798612,,,,,,down,0,0.3503,,-0.055555556,0.088888875,1,0,0,0,50,50,141,1,knielen,images/br_knielen.png,images/cb_knielen.png,0,,,,,,,,,,,,,,,,,,,,,,
,,,,,00082,2023-10-24_13h19.14.355,vbt_B1_day4,2022.2.4,Win32,59.84798612,,,,,,down,0,0.7324,,0.37962963,-0.053703697,1,0,0,0,51,51,197,1,spanning,images/br_spanning.png,images/cb_spanning.png,0,,,,,,,,,,,,,,,,,,,,,,
,,,,,00082,2023-10-24_13h19.14.355,vbt_B1_day4,2022.2.4,Win32,59.84798612,,,,,,down,0,2.7624,,0.378703788,-0.053703697,1,0,0,0,52,52,112,1,lukken,images/br_lukken.png,images/cb_lukken.png,0,,,,,,,,,,,,,,,,,,,,,,
,,,,,00082,2023-10-24_13h19.14.355,vbt_B1_day4,2022.2.4,Win32,59.84798612,,,,,,down,0,2.5012,,0.378703788,-0.053703697,1,0,0,0,53,53,119,1,liefje,images/br_liefje.png,images/cb_liefje.png,0,,,,,,,,,,,,,,,,,,,,,,
,,,,,00082,2023-10-24_13h19.14.355,vbt_B1_day4,2022.2.4,Win32,59.84798612,,,,,,down,0,1.649,,0.184259273,0.039814808,1,0,0,0,54,54,180,1,openbaar,images/br_openbaar.png,images/cb_openbaar.png,0,,,,,,,,,,,,,,,,,,,,,,
,,,,,00082,2023-10-24_13h19.14.355,vbt_B1_day4,2022.2.4,Win32,59.84798612,,,,,,down,0,0.4239,,0.05277782,0.084259245,1,0,0,0,55,55,121,1,twijfel,images/br_twijfel.png,images/cb_twijfel.png,0,,,,,,,,,,,,,,,,,,,,,,
,,,,,00082,2023-10-24_13h19.14.355,vbt_B1_day4,2022.2.4,Win32,59.84798612,,,,,,down,0,3.2167,,0.046296296,0.0074074,1,0,0,0,56,56,148,1,smullen,images/br_smullen.png,images/cb_smullen.png,0,,,,,,,,,,,,,,,,,,,,,,
,,,,,00082,2023-10-24_13h19.14.355,vbt_B1_day4,2022.2.4,Win32,59.84798612,,,,,,down,0,2.5191,,0.046296296,0.0074074,1,0,0,0,57,57,38,1,baai,images/br_baai.png,images/cb_baai.png,0,,,,,,,,,,,,,,,,,,,,,,
,,,,,00082,2023-10-24_13h19.14.355,vbt_B1_day4,2022.2.4,Win32,59.84798612,,,,,,down,0,8.4105,,0.238888917,0.183333326,1,0,0,0,58,58,83,1,mening,images/br_mening.png,images/cb_mening.png,0,,,,,,,,,,,,,,,,,,,,,,
,,,,,00082,2023-10-24_13h19.14.355,vbt_B1_day4,2022.2.4,Win32,59.84798612,,,,,,down,0,6.5784,,0.375,-0.033333355,1,0,0,0,59,59,10,1,leek,images/br_leek.png,images/cb_leek.png,0,,,,,,,,,,,,,,,,,,,,,,
,,,,,00082,2023-10-24_13h19.14.355,vbt_B1_day4,2022.2.4,Win32,59.84798612,,,,,,down,0,0.3799,,0.151851866,-0.087037051,1,0,0,0,60,60,140,1,blijven,images/br_blijven.png,images/cb_blijven.png,0,,,,,,,,,,,,,,,,,,,,,,
,,,,,00082,2023-10-24_13h19.14.355,vbt_B1_day4,2022.2.4,Win32,59.84798612,,,,,,down,0,0.6145,,0.148148148,-0.085185192,1,0,0,0,61,61,137,1,trekker,images/br_trekker.png,images/cb_trekker.png,0,,,,,,,,,,,,,,,,,,,,,,
,,,,,00082,2023-10-24_13h19.14.355,vbt_B1_day4,2022.2.4,Win32,59.84798612,,,,,,down,0,20.6291,,0.376851824,-0.065740762,1,0,0,0,62,62,185,1,mijnheer,images/br_mijnheer.png,images/cb_mijnheer.png,1,mijnheer,,,,,,,,,,,,,,,,,,,,,
,,,,,00082,2023-10-24_13h19.14.355,vbt_B1_day4,2022.2.4,Win32,59.84798612,,,,,,down,0,1.1858,,0.365740741,-0.021296289,1,0,0,0,63,63,59,1,kring,images/br_kring.png,images/cb_kring.png,0,,,,,,,,,,,,,,,,,,,,,,
,,,,,00082,2023-10-24_13h19.14.355,vbt_B1_day4,2022.2.4,Win32,59.84798612,,,,,,down,0,11.2557,,-0.031481496,-0.268518519,1,0,0,0,64,64,25,1,plek,images/br_plek.png,images/cb_plek.png,1,plek,,,,,,,,,,,,,,,,,,,,,
,,,,,00082,2023-10-24_13h19.14.355,vbt_B1_day4,2022.2.4,Win32,59.84798612,,,,,,down,0,1.9955,,0.597222222,0.009259259,1,0,0,0,65,65,93,1,waarop,images/br_waarop.png,images/cb_waarop.png,0,,,,,,,,,,,,,,,,,,,,,,
,,,,,00082,2023-10-24_13h19.14.355,vbt_B1_day4,2022.2.4,Win32,59.84798612,,,,,,down,0,0.2056,,0.541666667,0.054629608,1,0,0,0,66,66,51,1,samen,images/br_samen.png,images/cb_samen.png,0,,,,,,,,,,,,,,,,,,,,,,
,,,,,00082,2023-10-24_13h19.14.355,vbt_B1_day4,2022.2.4,Win32,59.84798612,,,,,,down,0,3.6302,,0.541666667,0.054629608,1,0,0,0,67,67,188,1,strekken,images/br_strekken.png,images/cb_strekken.png,0,,,,,,,,,,,,,,,,,,,,,,
,,,,,00082,2023-10-24_13h19.14.355,vbt_B1_day4,2022.2.4,Win32,59.84798612,,,,,,down,0,1.2996,,0.538888861,0.055555556,1,0,0,0,68,68,101,1,staren,images/br_staren.png,images/cb_staren.png,0,,,,,,,,,,,,,,,,,,,,,,
,,,,,00082,2023-10-24_13h19.14.355,vbt_B1_day4,2022.2.4,Win32,59.84798612,,,,,,down,0,0.598,,0.537963019,0.055555556,1,0,0,0,69,69,11,1,mode,images/br_mode.png,images/cb_mode.png,0,,,,,,,,,,,,,,,,,,,,,,
,,,,,00082,2023-10-24_13h19.14.355,vbt_B1_day4,2022.2.4,Win32,59.84798612,,,,,,down,0,0.2837,,0.537963019,0.055555556,1,0,0,0,70,70,128,1,prikken,images/br_prikken.png,images/cb_prikken.png,0,,,,,,,,,,,,,,,,,,,,,,
,,,,,00082,2023-10-24_13h19.14.355,vbt_B1_day4,2022.2.4,Win32,59.84798612,,,,,,down,0,5.3317,,-0.090740698,0.060185185,1,0,0,0,71,71,6,1,diep,images/br_diep.png,images/cb_diep.png,0,,,,,,,,,,,,,,,,,,,,,,
,,,,,00082,2023-10-24_13h19.14.355,vbt_B1_day4,2022.2.4,Win32,59.84798612,,,,,,down,0,1.6345,,-0.095370328,0.054629608,1,0,0,0,72,72,87,1,toeval,images/br_toeval.png,images/cb_toeval.png,0,,,,,,,,,,,,,,,,,,,,,,
,,,,,00082,2023-10-24_13h19.14.355,vbt_B1_day4,2022.2.4,Win32,59.84798612,,,,,,down,0,1.241,,-0.097222222,0.051851838,1,0,0,0,73,73,176,1,techniek,images/br_techniek.png,images/cb_techniek.png,0,,,,,,,,,,,,,,,,,,,,,,
,,,,,00082,2023-10-24_13h19.14.355,vbt_B1_day4,2022.2.4,Win32,59.84798612,,,,,,down,0,1.6363,,-0.097222222,0.051851838,1,0,0,0,74,74,191,1,opheffen,images/br_opheffen.png,images/cb_opheffen.png,0,,,,,,,,,,,,,,,,,,,,,,
,,,,,00082,2023-10-24_13h19.14.355,vbt_B1_day4,2022.2.4,Win32,59.84798612,,,,,,down,0,4.0042,,-0.054629644,0.034259266,1,0,0,0,75,75,74,1,graaf,images/br_graaf.png,images/cb_graaf.png,0,,,,,,,,,,,,,,,,,,,,,,
,,,,,00082,2023-10-24_13h19.14.355,vbt_B1_day4,2022.2.4,Win32,59.84798612,,,,,,down,0,3.0735,,-0.194444444,0.023148148,1,0,0,0,76,76,149,1,redding,images/br_redding.png,images/cb_redding.png,0,,,,,,,,,,,,,,,,,,,,,,
,,,,,00082,2023-10-24_13h19.14.355,vbt_B1_day4,2022.2.4,Win32,59.84798612,,,,,,down,0,0.5994,,0.249074088,0.219444434,1,0,0,0,77,77,153,1,vervoer,images/br_vervoer.png,images/cb_vervoer.png,0,,,,,,,,,,,,,,,,,,,,,,
,,,,,00082,2023-10-24_13h19.14.355,vbt_B1_day4,2022.2.4,Win32,59.84798612,,,,,,down,0,23.3933,,0.247222265,0.350925922,1,0,0,0,78,78,91,1,gezond,images/br_gezond.png,images/cb_gezond.png,0,,,,,,,,,,,,,,,,,,,,,,
,,,,,00082,2023-10-24_13h19.14.355,vbt_B1_day4,2022.2.4,Win32,59.84798612,,,,,,down,0,0.6905,,0.161111125,0.035185178,1,0,0,0,79,79,189,1,aanraden,images/br_aanraden.png,images/cb_aanraden.png,0,,,,,,,,,,,,,,,,,,,,,,
,,,,,00082,2023-10-24_13h19.14.355,vbt_B1_day4,2022.2.4,Win32,59.84798612,,,,,,down,0,0.1171,,0.049074102,0.087037016,1,0,0,0,80,80,193,1,weeshuis,images/br_weeshuis.png,images/cb_weeshuis.png,0,,,,,,,,,,,,,,,,,,,,,,
,,,,,00082,2023-10-24_13h19.14.355,vbt_B1_day4,2022.2.4,Win32,59.84798612,,,,,,down,0,0.1916,,-0.215740698,0.172222208,1,0,0,0,81,81,179,1,woestijn,images/br_woestijn.png,images/cb_woestijn.png,0,,,,,,,,,,,,,,,,,,,,,,
,,,,,00082,2023-10-24_13h19.14.355,vbt_B1_day4,2022.2.4,Win32,59.84798612,,,,,,down,0,0.1267,,-0.273148148,0.106481481,1,0,0,0,82,82,22,1,stof,images/br_stof.png,images/cb_stof.png,0,,,,,,,,,,,,,,,,,,,,,,
,,,,,00082,2023-10-24_13h19.14.355,vbt_B1_day4,2022.2.4,Win32,59.84798612,,,,,,down,0,0.1886,,0.073148162,0.100925905,1,0,0,0,83,83,34,1,vorm,images/br_vorm.png,images/cb_vorm.png,0,,,,,,,,,,,,,,,,,,,,,,
,,,,,00082,2023-10-24_13h19.14.355,vbt_B1_day4,2022.2.4,Win32,59.84798612,,,,,,down,0,3.5974,,-0.134259259,-0.32685188,1,0,0,0,84,84,24,1,jurk,images/br_jurk.png,images/cb_jurk.png,1,jurk,,,,,,,,,,,,,,,,,,,,,
,,,,,00082,2023-10-24_13h19.14.355,vbt_B1_day4,2022.2.4,Win32,59.84798612,,,,,,down,0,1.0994,,0.284259302,0.025925919,1,0,0,0,85,85,81,1,dubbel,images/br_dubbel.png,images/cb_dubbel.png,0,,,,,,,,,,,,,,,,,,,,,,
,,,,,00082,2023-10-24_13h19.14.355,vbt_B1_day4,2022.2.4,Win32,59.84798612,,,,,,down,0,1.8588,,0.285185213,0.030555548,1,0,0,0,86,86,95,1,vreten,images/br_vreten.png,images/cb_vreten.png,0,,,,,,,,,,,,,,,,,,,,,,
,,,,,00082,2023-10-24_13h19.14.355,vbt_B1_day4,2022.2.4,Win32,59.84798612,,,,,,down,0,3.3143,,0.29814812,0.065740727,1,0,0,0,87,87,32,1,palm,images/br_palm.png,images/cb_palm.png,0,,,,,,,,,,,,,,,,,,,,,,
,,,,,00082,2023-10-24_13h19.14.355,vbt_B1_day4,2022.2.4,Win32,59.84798612,,,,,,down,0,4.0016,,0.078703704,0.174999979,1,0,0,0,88,88,178,1,huisdier,images/br_huisdier.png,images/cb_huisdier.png,0,,,,,,,,,,,,,,,,,,,,,,
,,,,,00082,2023-10-24_13h19.14.355,vbt_B1_day4,2022.2.4,Win32,59.84798612,,,,,,down,0,6.244,,0.475926011,0.150000007,1,0,0,0,89,89,136,1,waarbij,images/br_waarbij.png,images/cb_waarbij.png,0,,,,,,,,,,,,,,,,,,,,,,
,,,,,00082,2023-10-24_13h19.14.355,vbt_B1_day4,2022.2.4,Win32,59.84798612,,,,,,down,0,4.618,,-0.164814772,-0.039814808,1,0,0,0,90,90,89,1,slapen,images/br_slapen.png,images/cb_slapen.png,0,,,,,,,,,,,,,,,,,,,,,,
,,,,,00082,2023-10-24_13h19.14.355,vbt_B1_day4,2022.2.4,Win32,59.84798612,,,,,,down,0,1.1163,,-0.208333333,0.172222208,1,0,0,0,91,91,2,1,jaar,images/br_jaar.png,images/cb_jaar.png,0,,,,,,,,,,,,,,,,,,,,,,
,,,,,00082,2023-10-24_13h19.14.355,vbt_B1_day4,2022.2.4,Win32,59.84798612,,,,,,down,0,4.8159,,0.431481538,-0.01203703,1,0,0,0,92,92,13,1,kaal,images/br_kaal.png,images/cb_kaal.png,0,,,,,,,,,,,,,,,,,,,,,,
,,,,,00082,2023-10-24_13h19.14.355,vbt_B1_day4,2022.2.4,Win32,59.84798612,,,,,,down,0,2.829,,0.253703718,0.053703697,1,0,0,0,93,93,151,1,aanzoek,images/br_aanzoek.png,images/cb_aanzoek.png,0,,,,,,,,,,,,,,,,,,,,,,
,,,,,00082,2023-10-24_13h19.14.355,vbt_B1_day4,2022.2.4,Win32,59.84798612,,,,,,down,0,1.2962,,0.062962991,-0.034259266,1,0,0,0,94,94,124,1,bloeien,images/br_bloeien.png,images/cb_bloeien.png,0,,,,,,,,,,,,,,,,,,,,,,
,,,,,00082,2023-10-24_13h19.14.355,vbt_B1_day4,2022.2.4,Win32,59.84798612,,,,,,down,0,0.468,,0.064814815,-0.043518526,1,0,0,0,95,95,16,1,ziek,images/br_ziek.png,images/cb_ziek.png,0,,,,,,,,,,,,,,,,,,,,,,
,,,,,00082,2023-10-24_13h19.14.355,vbt_B1_day4,2022.2.4,Win32,59.84798612,,,,,,down,0,0.5171,,0.207407422,-0.043518526,1,0,0,0,96,96,63,1,flirt,images/br_flirt.png,images/cb_flirt.png,0,,,,,,,,,,,,,,,,,,,,,,
,,,,,00082,2023-10-24_13h19.14.355,vbt_B1_day4,2022.2.4,Win32,59.84798612,,,,,,down,0,0.8435,,-0.216666681,0.061111097,1,0,0,0,97,97,70,1,ijdel,images/br_ijdel.png,images/cb_ijdel.png,0,,,,,,,,,,,,,,,,,,,,,,
,,,,,00082,2023-10-24_13h19.14.355,vbt_B1_day4,2022.2.4,Win32,59.84798612,,,,,,down,0,16.2971,,0.399074131,-0.023148148,1,0,0,0,98,98,44,1,flits,images/br_flits.png,images/cb_flits.png,0,,,,,,,,,,,,,,,,,,,,,,
,,,,,00082,2023-10-24_13h19.14.355,vbt_B1_day4,2022.2.4,Win32,59.84798612,,,,,,down,0,1.3309,,0.253703718,-0.202777792,1,0,0,0,99,99,190,1,goedkoop,images/br_goedkoop.png,images/cb_goedkoop.png,0,,,,,,,,,,,,,,,,,,,,,,
,,,,,00082,2023-10-24_13h19.14.355,vbt_B1_day4,2022.2.4,Win32,59.84798612,,,,,,down,0,0.3358,,0.025925954,0.268518519,1,0,0,0,100,100,103,1,joggen,images/br_joggen.png,images/cb_joggen.png,0,,,,,,,,,,,,,,,,,,,,,,
,,,,,00082,2023-10-24_13h19.14.355,vbt_B1_day4,2022.2.4,Win32,59.84798612,,,,,,down,0,8.2708,,-0.02407406,-0.015740748,1,0,0,0,101,101,84,1,lokken,images/br_lokken.png,images/cb_lokken.png,0,,,,,,,,,,,,,,,,,,,,,,
,,,,,00082,2023-10-24_13h19.14.355,vbt_B1_day4,2022.2.4,Win32,59.84798612,,,,,,down,0,5.1279,,0.109259288,-0.050925926,1,0,0,0,102,102,100,1,geduld,images/br_geduld.png,images/cb_geduld.png,0,,,,,,,,,,,,,,,,,,,,,,
,,,,,00082,2023-10-24_13h19.14.355,vbt_B1_day4,2022.2.4,Win32,59.84798612,,,,,,down,0,0.674,,0.349074046,0.218518522,1,0,0,0,103,103,40,1,schep,images/br_schep.png,images/cb_schep.png,0,,,,,,,,,,,,,,,,,,,,,,
,,,,,00082,2023-10-24_13h19.14.355,vbt_B1_day4,2022.2.4,Win32,59.84798612,,,,,,down,0,3.4033,,0.550925926,0.15648146,1,0,0,0,104,104,55,1,praat,images/br_praat.png,images/cb_praat.png,0,,,,,,,,,,,,,,,,,,,,,,
,,,,,00082,2023-10-24_13h19.14.355,vbt_B1_day4,2022.2.4,Win32,59.84798612,,,,,,down,0,7.0667,,-0.034259231,-0.215740769,1,0,0,0,105,105,104,1,zweven,images/br_zweven.png,images/cb_zweven.png,1,zweven,,,,,,,,,,,,,,,,,,,,,
,,,,,00082,2023-10-24_13h19.14.355,vbt_B1_day4,2022.2.4,Win32,59.84798612,,,,,,down,0,0.7523,,0.512963048,-0.012962977,1,0,0,0,106,106,68,1,schat,images/br_schat.png,images/cb_schat.png,0,,,,,,,,,,,,,,,,,,,,,,
,,,,,00082,2023-10-24_13h19.14.355,vbt_B1_day4,2022.2.4,Win32,59.84798612,,,,,,down,0,0.9215,,0.505555612,-0.013888889,1,0,0,0,107,107,39,1,laag,images/br_laag.png,images/cb_laag.png,0,,,,,,,,,,,,,,,,,,,,,,
,,,,,00082,2023-10-24_13h19.14.355,vbt_B1_day4,2022.2.4,Win32,59.84798612,,,,,,down,0,1.5929,,0.467592593,-0.026851866,1,0,0,0,108,108,69,1,waken,images/br_waken.png,images/cb_waken.png,0,,,,,,,,,,,,,,,,,,,,,,
,,,,,00082,2023-10-24_13h19.14.355,vbt_B1_day4,2022.2.4,Win32,59.84798612,,,,,,down,0,1.135,,0.467592593,-0.025000007,1,0,0,0,109,109,56,1,traag,images/br_traag.png,images/cb_traag.png,0,,,,,,,,,,,,,,,,,,,,,,
,,,,,00082,2023-10-24_13h19.14.355,vbt_B1_day4,2022.2.4,Win32,59.84798612,,,,,,down,0,0.3667,,0.471296381,-0.023148148,1,0,0,0,110,110,129,1,verhaal,images/br_verhaal.png,images/cb_verhaal.png,0,,,,,,,,,,,,,,,,,,,,,,
,,,,,00082,2023-10-24_13h19.14.355,vbt_B1_day4,2022.2.4,Win32,59.84798612,,,,,,down,0,1.7263,,0.467592593,-0.023148148,1,0,0,0,111,111,78,1,leren,images/br_leren.png,images/cb_leren.png,0,,,,,,,,,,,,,,,,,,,,,,
,,,,,00082,2023-10-24_13h19.14.355,vbt_B1_day4,2022.2.4,Win32,59.84798612,,,,,,down,0,6.3701,,-0.020370342,0.210185175,1,0,0,0,112,112,174,1,stemming,images/br_stemming.png,images/cb_stemming.png,0,,,,,,,,,,,,,,,,,,,,,,
,,,,,00082,2023-10-24_13h19.14.355,vbt_B1_day4,2022.2.4,Win32,59.84798612,,,,,,down,0,2.2818,,-0.031481496,0.155555548,1,0,0,0,113,113,113,1,koppen,images/br_koppen.png,images/cb_koppen.png,0,,,,,,,,,,,,,,,,,,,,,,
,,,,,00082,2023-10-24_13h19.14.355,vbt_B1_day4,2022.2.4,Win32,59.84798612,,,,,,down,0,1.399,,-0.033333319,0.154629637,1,0,0,0,114,114,181,1,toegeven,images/br_toegeven.png,images/cb_toegeven.png,0,,,,,,,,,,,,,,,,,,,,,,
,,,,,00082,2023-10-24_13h19.14.355,vbt_B1_day4,2022.2.4,Win32,59.84798612,,,,,,down,0,3.3782,,-0.035185143,0.150925919,1,0,0,0,115,115,58,1,tekst,images/br_tekst.png,images/cb_tekst.png,0,,,,,,,,,,,,,,,,,,,,,,
,,,,,00082,2023-10-24_13h19.14.355,vbt_B1_day4,2022.2.4,Win32,59.84798612,,,,,,down,0,2.4651,,-0.036111125,0.148148148,1,0,0,0,116,116,7,1,geld,images/br_geld.png,images/cb_geld.png,0,,,,,,,,,,,,,,,,,,,,,,
,,,,,00082,2023-10-24_13h19.14.355,vbt_B1_day4,2022.2.4,Win32,59.84798612,,,,,,down,0,1.4658,,-0.014814801,0.181481467,1,0,0,0,117,117,183,1,getuigen,images/br_getuigen.png,images/cb_getuigen.png,0,,,,,,,,,,,,,,,,,,,,,,
,,,,,00082,2023-10-24_13h19.14.355,vbt_B1_day4,2022.2.4,Win32,59.84798612,,,,,,down,0,1.6022,,-0.017592607,0.180555556,1,0,0,0,118,118,54,1,gebit,images/br_gebit.png,images/cb_gebit.png,0,,,,,,,,,,,,,,,,,,,,,,
,,,,,00082,2023-10-24_13h19.14.355,vbt_B1_day4,2022.2.4,Win32,59.84798612,,,,,,down,0,8.2771,,-0.082407422,0.145370377,1,0,0,0,119,119,12,1,kust,images/br_kust.png,images/cb_kust.png,0,,,,,,,,,,,,,,,,,,,,,,
,,,,,00082,2023-10-24_13h19.14.355,vbt_B1_day4,2022.2.4,Win32,59.84798612,,,,,,down,0,0.4028,,-0.082407422,0.139814801,1,0,0,0,120,120,52,1,wagon,images/br_wagon.png,images/cb_wagon.png,0,,,,,,,,,,,,,,,,,,,,,,
,,,,,00082,2023-10-24_13h19.14.355,vbt_B1_day4,2022.2.4,Win32,59.84798612,,,,,,down,0,0.3162,,-0.082407422,0.13703703,1,0,0,0,121,121,114,1,vullen,images/br_vullen.png,images/cb_vullen.png,0,,,,,,,,,,,,,,,,,,,,,,
,,,,,00082,2023-10-24_13h19.14.355,vbt_B1_day4,2022.2.4,Win32,59.84798612,,,,,,down,0,4.6995,,0.055555556,0.25462963,1,0,0,0,122,122,50,1,stoom,images/br_stoom.png,images/cb_stoom.png,0,,,,,,,,,,,,,,,,,,,,,,
,,,,,00082,2023-10-24_13h19.14.355,vbt_B1_day4,2022.2.4,Win32,59.84798612,,,,,,down,0,5.1262,,0.033333319,0.25462963,1,0,0,0,123,123,94,1,oceaan,images/br_oceaan.png,images/cb_oceaan.png,0,,,,,,,,,,,,,,,,,,,,,,
,,,,,00082,2023-10-24_13h19.14.355,vbt_B1_day4,2022.2.4,Win32,59.84798612,,,,,,down,0,11.7296,,0.012037065,0.224999993,1,0,0,0,124,124,27,1,dans,images/br_dans.png,images/cb_dans.png,1,dans,,,,,,,,,,,,,,,,,,,,,
,,,,,00082,2023-10-24_13h19.14.355,vbt_B1_day4,2022.2.4,Win32,59.84798612,,,,,,down,0,2.2244,,0.012962977,0.224074063,1,0,0,0,125,125,85,1,heilig,images/br_heilig.png,images/cb_heilig.png,0,,,,,,,,,,,,,,,,,,,,,,
,,,,,00082,2023-10-24_13h19.14.355,vbt_B1_day4,2022.2.4,Win32,59.84798612,,,,,,down,0,0.0363,,0.022222236,0.203703704,1,0,0,0,126,126,18,1,blik,images/br_blik.png,images/cb_blik.png,0,,,,,,,,,,,,,,,,,,,,,,
,,,,,00082,2023-10-24_13h19.14.355,vbt_B1_day4,2022.2.4,Win32,59.84798612,,,,,,down,0,1.0843,,0.043518561,0.196296303,1,0,0,0,127,127,15,1,soda,images/br_soda.png,images/cb_soda.png,0,,,,,,,,,,,,,,,,,,,,,,
,,,,,00082,2023-10-24_13h19.14.355,vbt_B1_day4,2022.2.4,Win32,59.84798612,,,,,,down,0,1.8006,,0.027777778,0.155555548,1,0,0,0,128,128,169,1,oprotten,images/br_oprotten.png,images/cb_oprotten.png,0,,,,,,,,,,,,,,,,,,,,,,
,,,,,00082,2023-10-24_13h19.14.355,vbt_B1_day4,2022.2.4,Win32,59.84798612,,,,,,down,0,0.253,,0.027777778,0.155555548,1,0,0,0,129,129,35,1,lust,images/br_lust.png,images/cb_lust.png,0,,,,,,,,,,,,,,,,,,,,,,
,,,,,00082,2023-10-24_13h19.14.355,vbt_B1_day4,2022.2.4,Win32,59.84798612,,,,,,down,0,3.4638,,0.027777778,0.155555548,1,0,0,0,130,130,49,1,laken,images/br_laken.png,images/cb_laken.png,0,,,,,,,,,,,,,,,,,,,,,,
,,,,,00082,2023-10-24_13h19.14.355,vbt_B1_day4,2022.2.4,Win32,59.84798612,,,,,,down,0,0.1328,,0.027777778,0.155555548,1,0,0,0,131,131,88,1,boeien,images/br_boeien.png,images/cb_boeien.png,0,,,,,,,,,,,,,,,,,,,,,,
,,,,,00082,2023-10-24_13h19.14.355,vbt_B1_day4,2022.2.4,Win32,59.84798612,,,,,,down,0,0.2304,,0.027777778,0.155555548,1,0,0,0,132,132,168,1,bisschop,images/br_bisschop.png,images/cb_bisschop.png,0,,,,,,,,,,,,,,,,,,,,,,
,,,,,00082,2023-10-24_13h19.14.355,vbt_B1_day4,2022.2.4,Win32,59.84798612,,,,,,down,0,1.6825,,0.017592607,0.127777771,1,0,0,0,133,133,170,1,schatten,images/br_schatten.png,images/cb_schatten.png,0,,,,,,,,,,,,,,,,,,,,,,
,,,,,00082,2023-10-24_13h19.14.355,vbt_B1_day4,2022.2.4,Win32,59.84798612,,,,,,down,0,0.1676,,0.001851894,0.127777771,1,0,0,0,134,134,31,1,poes,images/br_poes.png,images/cb_poes.png,0,,,,,,,,,,,,,,,,,,,,,,
,,,,,00082,2023-10-24_13h19.14.355,vbt_B1_day4,2022.2.4,Win32,59.84798612,,,,,,down,0,0.0524,,0.257407436,-0.021296289,1,0,0,0,135,135,132,1,grappen,images/br_grappen.png,images/cb_grappen.png,0,,,,,,,,,,,,,,,,,,,,,,
,,,,,00082,2023-10-24_13h19.14.355,vbt_B1_day4,2022.2.4,Win32,59.84798612,,,,,,down,0,1.1508,,0.170370384,0.023148148,1,0,0,0,136,136,108,1,excuus,images/br_excuus.png,images/cb_excuus.png,0,,,,,,,,,,,,,,,,,,,,,,
,,,,,00082,2023-10-24_13h19.14.355,vbt_B1_day4,2022.2.4,Win32,59.84798612,,,,,,down,0,3.8635,,0.122222265,0.049999979,1,0,0,0,137,137,120,1,klimmen,images/br_klimmen.png,images/cb_klimmen.png,0,,,,,,,,,,,,,,,,,,,,,,
,,,,,00082,2023-10-24_13h19.14.355,vbt_B1_day4,2022.2.4,Win32,59.84798612,,,,,,down,0,0.197,,0.100000028,0.050925926,1,0,0,0,138,138,166,1,strikken,images/br_strikken.png,images/cb_strikken.png,0,,,,,,,,,,,,,,,,,,,,,,
,,,,,00082,2023-10-24_13h19.14.355,vbt_B1_day4,2022.2.4,Win32,59.84798612,,,,,,down,0,0.1593,,0.062037079,0.044444437,1,0,0,0,139,139,79,1,nodig,images/br_nodig.png,images/cb_nodig.png,0,,,,,,,,,,,,,,,,,,,,,,
,,,,,00082,2023-10-24_13h19.14.355,vbt_B1_day4,2022.2.4,Win32,59.84798612,,,,,,down,0,1.3436,,0.062037079,0.044444437,1,0,0,0,140,140,80,1,kanjer,images/br_kanjer.png,images/cb_kanjer.png,0,,,,,,,,,,,,,,,,,,,,,,
,,,,,00082,2023-10-24_13h19.14.355,vbt_B1_day4,2022.2.4,Win32,59.84798612,,,,,,down,0,1.8842,,0.301851908,0.072222215,1,0,0,0,141,141,163,1,schuilen,images/br_schuilen.png,images/cb_schuilen.png,0,,,,,,,,,,,,,,,,,,,,,,
,,,,,00082,2023-10-24_13h19.14.355,vbt_B1_day4,2022.2.4,Win32,59.84798612,,,,,,down,0,0.3026,,0.301851908,0.072222215,1,0,0,0,142,142,154,1,aflopen,images/br_aflopen.png,images/cb_aflopen.png,0,,,,,,,,,,,,,,,,,,,,,,
,,,,,00082,2023-10-24_13h19.14.355,vbt_B1_day4,2022.2.4,Win32,59.84798612,,,,,,down,0,1.1166,,0.301851908,0.072222215,1,0,0,0,143,143,67,1,zwart,images/br_zwart.png,images/cb_zwart.png,1,,,,,,,,,,,,,,,,,,,,,,
,,,,,00082,2023-10-24_13h19.14.355,vbt_B1_day4,2022.2.4,Win32,59.84798612,,,,,,down,0,0.3674,,0.301851908,0.072222215,1,0,0,0,144,144,98,1,kreeft,images/br_kreeft.png,images/cb_kreeft.png,0,,,,,,,,,,,,,,,,,,,,,,
,,,,,00082,2023-10-24_13h19.14.355,vbt_B1_day4,2022.2.4,Win32,59.84798612,,,,,,down,0,1.0337,,0.301851908,0.072222215,1,0,0,0,145,145,45,1,piste,images/br_piste.png,images/cb_piste.png,0,,,,,,,,,,,,,,,,,,,,,,
,,,,,00082,2023-10-24_13h19.14.355,vbt_B1_day4,2022.2.4,Win32,59.84798612,,,,,,down,0,0.1546,,0.301851908,0.072222215,1,0,0,0,146,146,8,1,knie,images/br_knie.png,images/cb_knie.png,0,,,,,,,,,,,,,,,,,,,,,,
,,,,,00082,2023-10-24_13h19.14.355,vbt_B1_day4,2022.2.4,Win32,59.84798612,,,,,,down,0,0.1374,,0.255555541,0.058333326,1,0,0,0,147,147,160,1,daarheen,images/br_daarheen.png,images/cb_daarheen.png,0,,,,,,,,,,,,,,,,,,,,,,
,,,,,00082,2023-10-24_13h19.14.355,vbt_B1_day4,2022.2.4,Win32,59.84798612,,,,,,down,0,3.907,,0.259259259,0.061111097,1,0,0,0,148,148,144,1,eetlust,images/br_eetlust.png,images/cb_eetlust.png,1,eetlust,,,,,,,,,,,,,,,,,,,,,
,,,,,00082,2023-10-24_13h19.14.355,vbt_B1_day4,2022.2.4,Win32,59.84798612,,,,,,down,0,9.2771,,0.246296282,0.071296303,1,0,0,0,149,149,19,1,geit,images/br_geit.png,images/cb_geit.png,0,,,,,,,,,,,,,,,,,,,,,,
,,,,,00082,2023-10-24_13h19.14.355,vbt_B1_day4,2022.2.4,Win32,59.84798612,,,,,,down,0,1.1849,,0.271296325,0.086111104,1,0,0,0,150,150,135,1,gedicht,images/br_gedicht.png,images/cb_gedicht.png,0,,,,,,,,,,,,,,,,,,,,,,
,,,,,00082,2023-10-24_13h19.14.355,vbt_B1_day4,2022.2.4,Win32,59.84798612,,,,,,down,0,4.7292,,0.32222225,0.107407393,1,0,0,0,151,151,145,1,invloed,images/br_invloed.png,images/cb_invloed.png,1,invloed,,,,,,,,,,,,,,,,,,,,,
,,,,,00082,2023-10-24_13h19.14.355,vbt_B1_day4,2022.2.4,Win32,59.84798612,,,,,,down,0,10.7307,,-0.068518533,0.169444437,1,0,0,0,152,152,82,1,muziek,images/br_muziek.png,images/cb_muziek.png,0,,,,,,,,,,,,,,,,,,,,,,
,,,,,00082,2023-10-24_13h19.14.355,vbt_B1_day4,2022.2.4,Win32,59.84798612,,,,,,down,0,1.6435,,-0.079629616,0.157407407,1,0,0,0,153,153,171,1,aarzelen,images/br_aarzelen.png,images/cb_aarzelen.png,0,,,,,,,,,,,,,,,,,,,,,,
,,,,,00082,2023-10-24_13h19.14.355,vbt_B1_day4,2022.2.4,Win32,59.84798612,,,,,,down,0,0.45,,-0.078703704,0.154629637,1,0,0,0,154,154,47,1,kabel,images/br_kabel.png,images/cb_kabel.png,0,,,,,,,,,,,,,,,,,,,,,,
,,,,,00082,2023-10-24_13h19.14.355,vbt_B1_day4,2022.2.4,Win32,59.84798612,,,,,,down,0,2.9463,,-0.088888875,0.148148148,1,0,0,0,155,155,173,1,apparaat,images/br_apparaat.png,images/cb_apparaat.png,0,,,,,,,,,,,,,,,,,,,,,,
,,,,,00082,2023-10-24_13h19.14.355,vbt_B1_day4,2022.2.4,Win32,59.84798612,,,,,,down,0,0.1207,,0.232407393,0.074074074,1,0,0,0,156,156,5,1,blad,images/br_blad.png,images/cb_blad.png,0,,,,,,,,,,,,,,,,,,,,,,
,,,,,00082,2023-10-24_13h19.14.355,vbt_B1_day4,2022.2.4,Win32,59.84798612,,,,,,down,0,1.7481,,0.218518504,0.067592586,1,0,0,0,157,157,48,1,steel,images/br_steel.png,images/cb_steel.png,0,,,,,,,,,,,,,,,,,,,,,,
,,,,,00082,2023-10-24_13h19.14.355,vbt_B1_day4,2022.2.4,Win32,59.84798612,,,,,,down,0,1.3081,,-0.141666624,-0.077777792,1,0,0,0,158,158,123,1,hiervan,images/br_hiervan.png,images/cb_hiervan.png,0,,,,,,,,,,,,,,,,,,,,,,
,,,,,00082,2023-10-24_13h19.14.355,vbt_B1_day4,2022.2.4,Win32,59.84798612,,,,,,down,0,1.2615,,0.479629658,-0.022222236,1,0,0,0,159,159,130,1,keihard,images/br_keihard.png,images/cb_keihard.png,0,,,,,,,,,,,,,,,,,,,,,,
,,,,,00082,2023-10-24_13h19.14.355,vbt_B1_day4,2022.2.4,Win32,59.84798612,,,,,,down,0,0.1168,,0.479629658,0.026851831,1,0,0,0,160,160,161,1,attentie,images/br_attentie.png,images/cb_attentie.png,0,,,,,,,,,,,,,,,,,,,,,,
,,,,,00082,2023-10-24_13h19.14.355,vbt_B1_day4,2022.2.4,Win32,59.84798612,,,,,,down,0,0.184,,0.453703704,0.101851852,1,0,0,0,161,161,139,1,stiekem,images/br_stiekem.png,images/cb_stiekem.png,0,,,,,,,,,,,,,,,,,,,,,,
,,,,,00082,2023-10-24_13h19.14.355,vbt_B1_day4,2022.2.4,Win32,59.84798612,,,,,,down,0,0.6617,,0.453703704,0.102777764,1,0,0,0,162,162,17,1,taal,images/br_taal.png,images/cb_taal.png,0,,,,,,,,,,,,,,,,,,,,,,
,,,,,00082,2023-10-24_13h19.14.355,vbt_B1_day4,2022.2.4,Win32,59.84798612,,,,,,down,0,0.6342,,0.472222222,0.093518504,1,0,0,0,163,163,71,1,bever,images/br_bever.png,images/cb_bever.png,0,,,,,,,,,,,,,,,,,,,,,,
,,,,,00082,2023-10-24_13h19.14.355,vbt_B1_day4,2022.2.4,Win32,59.84798612,,,,,,down,0,0.0904,,0.470370399,0.093518504,1,0,0,0,164,164,0,1,slak,images/br_slak.png,images/cb_slak.png,0,,,,,,,,,,,,,,,,,,,,,,
,,,,,00082,2023-10-24_13h19.14.355,vbt_B1_day4,2022.2.4,Win32,59.84798612,,,,,,down,0,6.3506,,0.443518603,0.052777785,1,0,0,0,165,165,66,1,lever,images/br_lever.png,images/cb_lever.png,1,lever,,,,,,,,,,,,,,,,,,,,,
,,,,,00082,2023-10-24_13h19.14.355,vbt_B1_day4,2022.2.4,Win32,59.84798612,,,,,,down,0,3.9017,,0.361111111,0.034259266,1,0,0,0,166,166,133,1,seizoen,images/br_seizoen.png,images/cb_seizoen.png,0,,,,,,,,,,,,,,,,,,,,,,
,,,,,00082,2023-10-24_13h19.14.355,vbt_B1_day4,2022.2.4,Win32,59.84798612,,,,,,down,0,2.6849,,0.359259288,0.03148146,1,0,0,0,167,167,53,1,baron,images/br_baron.png,images/cb_baron.png,0,,,,,,,,,,,,,,,,,,,,,,
,,,,,00082,2023-10-24_13h19.14.355,vbt_B1_day4,2022.2.4,Win32,59.84798612,,,,,,down,0,1.2379,,0.35555564,0.018518519,1,0,0,0,168,168,61,1,groen,images/br_groen.png,images/cb_groen.png,0,,,,,,,,,,,,,,,,,,,,,,
,,,,,00082,2023-10-24_13h19.14.355,vbt_B1_day4,2022.2.4,Win32,59.84798612,,,,,,down,0,4.2062,,0.358333305,0.018518519,1,0,0,0,169,169,105,1,wijlen,images/br_wijlen.png,images/cb_wijlen.png,1,wijlen,,,,,,,,,,,,,,,,,,,,,
,,,,,00082,2023-10-24_13h19.14.355,vbt_B1_day4,2022.2.4,Win32,59.84798612,,,,,,down,0,1.6133,,0.358333305,0.018518519,1,0,0,0,170,170,30,1,uien,images/br_uien.png,images/cb_uien.png,0,,,,,,,,,,,,,,,,,,,,,,
,,,,,00082,2023-10-24_13h19.14.355,vbt_B1_day4,2022.2.4,Win32,59.84798612,,,,,,down,0,1.0237,,0.358333305,0.018518519,1,0,0,0,171,171,156,1,rechten,images/br_rechten.png,images/cb_rechten.png,0,,,,,,,,,,,,,,,,,,,,,,
,,,,,00082,2023-10-24_13h19.14.355,vbt_B1_day4,2022.2.4,Win32,59.84798612,,,,,,down,0,1.4025,,0.358333305,0.018518519,1,0,0,0,172,172,159,1,sufferd,images/br_sufferd.png,images/cb_sufferd.png,0,,,,,,,,,,,,,,,,,,,,,,
,,,,,00082,2023-10-24_13h19.14.355,vbt_B1_day4,2022.2.4,Win32,59.84798612,,,,,,down,0,1.0835,,0.358333305,0.018518519,1,0,0,0,173,173,36,1,vuur,images/br_vuur.png,images/cb_vuur.png,0,,,,,,,,,,,,,,,,,,,,,,
,,,,,00082,2023-10-24_13h19.14.355,vbt_B1_day4,2022.2.4,Win32,59.84798612,,,,,,down,0,0.7585,,0.358333305,0.018518519,1,0,0,0,174,174,99,1,koffie,images/br_koffie.png,images/cb_koffie.png,0,,,,,,,,,,,,,,,,,,,,,,
,,,,,00082,2023-10-24_13h19.14.355,vbt_B1_day4,2022.2.4,Win32,59.84798612,,,,,,down,0,0.3667,,0.358333305,0.018518519,1,0,0,0,175,175,4,1,moes,images/br_moes.png,images/cb_moes.png,0,,,,,,,,,,,,,,,,,,,,,,
,,,,,00082,2023-10-24_13h19.14.355,vbt_B1_day4,2022.2.4,Win32,59.84798612,,,,,,down,0,5.7862,,0.358333305,0.018518519,1,0,0,0,176,176,184,1,aandelen,images/br_aandelen.png,images/cb_aandelen.png,1,aandelen,,,,,,,,,,,,,,,,,,,,,
,,,,,00082,2023-10-24_13h19.14.355,vbt_B1_day4,2022.2.4,Win32,59.84798612,,,,,,down,0,4.3058,,0.586111139,0.128703683,1,0,0,0,177,177,165,1,feestdag,images/br_feestdag.png,images/cb_feestdag.png,0,,,,,,,,,,,,,,,,,,,,,,
,,,,,00082,2023-10-24_13h19.14.355,vbt_B1_day4,2022.2.4,Win32,59.84798612,,,,,,down,0,0.419,,0.586111139,0.131481489,1,0,0,0,178,178,127,1,doodmoe,images/br_doodmoe.png,images/cb_doodmoe.png,0,,,,,,,,,,,,,,,,,,,,,,
,,,,,00082,2023-10-24_13h19.14.355,vbt_B1_day4,2022.2.4,Win32,59.84798612,,,,,,down,0,4.366,,0.49537037,0.106481481,1,0,0,0,179,179,107,1,maling,images/br_maling.png,images/cb_maling.png,1,maling,,,,,,,,,,,,,,,,,,,,,
,,,,,00082,2023-10-24_13h19.14.355,vbt_B1_day4,2022.2.4,Win32,59.84798612,,,,,,down,0,4.3474,,0.497222194,0.099074081,1,0,0,0,180,180,164,1,anarchie,images/br_anarchie.png,images/cb_anarchie.png,0,,,,,,,,,,,,,,,,,,,,,,
,,,,,00082,2023-10-24_13h19.14.355,vbt_B1_day4,2022.2.4,Win32,59.84798612,,,,,,down,0,3.3355,,0.497222194,0.099074081,1,0,0,0,181,181,29,1,baas,images/br_baas.png,images/cb_baas.png,0,,,,,,,,,,,,,,,,,,,,,,
,,,,,00082,2023-10-24_13h19.14.355,vbt_B1_day4,2022.2.4,Win32,59.84798612,,,,,,down,0,5.3382,,0.497222194,0.099074081,1,0,0,0,182,182,195,1,middelen,images/br_middelen.png,images/cb_middelen.png,0,,,,,,,,,,,,,,,,,,,,,,
,,,,,00082,2023-10-24_13h19.14.355,vbt_B1_day4,2022.2.4,Win32,59.84798612,,,,,,down,0,15.6992,,0.497222194,0.099074081,1,0,0,0,183,183,187,1,opkijken,images/br_opkijken.png,images/cb_opkijken.png,1,opkijken,,,,,,,,,,,,,,,,,,,,,
,,,,,00082,2023-10-24_13h19.14.355,vbt_B1_day4,2022.2.4,Win32,59.84798612,,,,,,down,0,0.0012,,0.497222194,0.099074081,1,0,0,0,184,184,138,1,akkoord,images/br_akkoord.png,images/cb_akkoord.png,0,,,,,,,,,,,,,,,,,,,,,,
,,,,,00082,2023-10-24_13h19.14.355,vbt_B1_day4,2022.2.4,Win32,59.84798612,,,,,,down,0,6.8915,,0.497222194,0.099074081,1,0,0,0,185,185,65,1,parel,images/br_parel.png,images/cb_parel.png,1,parel,,,,,,,,,,,,,,,,,,,,,
,,,,,00082,2023-10-24_13h19.14.355,vbt_B1_day4,2022.2.4,Win32,59.84798612,,,,,,down,0,0.1672,,0.497222194,0.099074081,1,0,0,0,186,186,198,1,bedoelen,images/br_bedoelen.png,images/cb_bedoelen.png,0,,,,,,,,,,,,,,,,,,,,,,
,,,,,00082,2023-10-24_13h19.14.355,vbt_B1_day4,2022.2.4,Win32,59.84798612,,,,,,down,0,1.6512,,0.497222194,0.099074081,1,0,0,0,187,187,143,1,hechten,images/br_hechten.png,images/cb_hechten.png,0,,,,,,,,,,,,,,,,,,,,,,
,,,,,00082,2023-10-24_13h19.14.355,vbt_B1_day4,2022.2.4,Win32,59.84798612,,,,,,down,0,2.2201,,0.497222194,0.099074081,1,0,0,0,188,188,134,1,geliefd,images/br_geliefd.png,images/cb_geliefd.png,0,,,,,,,,,,,,,,,,,,,,,,
,,,,,00082,2023-10-24_13h19.14.355,vbt_B1_day4,2022.2.4,Win32,59.84798612,,,,,,down,0,1.3375,,0.497222194,0.099074081,1,0,0,0,189,189,92,1,geheim,images/br_geheim.png,images/cb_geheim.png,0,,,,,,,,,,,,,,,,,,,,,,
,,,,,00082,2023-10-24_13h19.14.355,vbt_B1_day4,2022.2.4,Win32,59.84798612,,,,,,down,0,1.6169,,0.490740741,0.109259252,1,0,0,0,190,190,117,1,kennis,images/br_kennis.png,images/cb_kennis.png,0,,,,,,,,,,,,,,,,,,,,,,
,,,,,00082,2023-10-24_13h19.14.355,vbt_B1_day4,2022.2.4,Win32,59.84798612,,,,,,down,0,2.3694,,0.490740741,0.109259252,1,0,0,0,191,191,9,1,hier,images/br_hier.png,images/cb_hier.png,0,,,,,,,,,,,,,,,,,,,,,,
,,,,,00082,2023-10-24_13h19.14.355,vbt_B1_day4,2022.2.4,Win32,59.84798612,,,,,,down,0,7.253,,0.464814787,0.095370363,1,0,0,0,192,192,14,1,rijp,images/br_rijp.png,images/cb_rijp.png,0,,,,,,,,,,,,,,,,,,,,,,
,,,,,00082,2023-10-24_13h19.14.355,vbt_B1_day4,2022.2.4,Win32,59.84798612,,,,,,down,0,3.9839,,0.464814787,0.095370363,1,0,0,0,193,193,182,1,bijkomen,images/br_bijkomen.png,images/cb_bijkomen.png,0,,,,,,,,,,,,,,,,,,,,,,
,,,,,00082,2023-10-24_13h19.14.355,vbt_B1_day4,2022.2.4,Win32,59.84798612,,,,,,down,0,4.8215,,0.464814787,0.095370363,1,0,0,0,194,194,57,1,steek,images/br_steek.png,images/cb_steek.png,0,,,,,,,,,,,,,,,,,,,,,,
,,,,,00082,2023-10-24_13h19.14.355,vbt_B1_day4,2022.2.4,Win32,59.84798612,,,,,,down,0,2.6674,,0.464814787,0.095370363,1,0,0,0,195,195,126,1,kasteel,images/br_kasteel.png,images/cb_kasteel.png,0,,,,,,,,,,,,,,,,,,,,,,
,,,,,00082,2023-10-24_13h19.14.355,vbt_B1_day4,2022.2.4,Win32,59.84798612,,,,,,down,0,3.187,,0.464814787,0.095370363,1,0,0,0,196,196,37,1,mijn,images/br_mijn.png,images/cb_mijn.png,0,,,,,,,,,,,,,,,,,,,,,,
,,,,,00082,2023-10-24_13h19.14.355,vbt_B1_day4,2022.2.4,Win32,59.84798612,,,,,,down,0,1.4865,,0.464814787,0.095370363,1,0,0,0,197,197,41,1,maken,images/br_maken.png,images/cb_maken.png,0,,,,,,,,,,,,,,,,,,,,,,
,,,,,00082,2023-10-24_13h19.14.355,vbt_B1_day4,2022.2.4,Win32,59.84798612,,,,,,down,0,1.3766,,0.464814787,0.095370363,1,0,0,0,198,198,110,1,zuster,images/br_zuster.png,images/cb_zuster.png,0,,,,,,,,,,,,,,,,,,,,,,
,,,,,00082,2023-10-24_13h19.14.355,vbt_B1_day4,2022.2.4,Win32,59.84798612,,,,,,down,0,3.7524,,0.199999986,-0.14907406,1,0,0,0,199,199,21,1,mist,images/br_mist.png,images/cb_mist.png,0,,,,,,,,,,,,,,,,,,,,,,
,,,,,00082,2023-10-24_13h19.14.355,vbt_B1_day4,2022.2.4,Win32,59.84798612,,,,,,,,,,,,,,,,,,,,,,,,,0.029629672,-0.062962956,1,0,0,,,,,,,,,,,,,,,,
,,,,,00082,2023-10-24_13h19.14.355,vbt_B1_day4,2022.2.4,Win32,59.84798612,,,,,,,,,,,,,,,,,,,,,,,,,,,,,,0.53333339,0.026851831,1,0,0,,,,,,,,,,,
,,,,,00082,2023-10-24_13h19.14.355,vbt_B1_day4,2022.2.4,Win32,59.84798612,,,,,,,,,,,,,,,,,,,,drummer,images/br_drummer.png,images/cb_drummer.png,,drummer,,,,,,,,,,,0.042592578,-0.062037044,1,0,0,drummer,0,0,0,53,1
,,,,,00082,2023-10-24_13h19.14.355,vbt_B1_day4,2022.2.4,Win32,59.84798612,,,,,,,,,,,,,,,,,,,,drooien,images/br_drooien.png,images/cb_drooien.png,,draaien,,,,,,,,,,,0.042592578,-0.062037044,1,0,0,draaien,0,1,1,32,1
,,,,,00082,2023-10-24_13h19.14.355,vbt_B1_day4,2022.2.4,Win32,59.84798612,,,,,,,,,,,,,,,,,,,,schotel,images/br_schotel.png,images/cb_schotel.png,,schotel,,,,,,,,,,,0.042592578,-0.062037044,1,0,0,schotel,0,2,2,52,1
,,,,,00082,2023-10-24_13h19.14.355,vbt_B1_day4,2022.2.4,Win32,59.84798612,,,,,,,,,,,,,,,,,,,,geliefd,images/br_geliefd.png,images/cb_geliefd.png,,geliefd,,,,,,,,,,,0.042592578,-0.062037044,1,0,0,geliefd,0,3,3,14,1
,,,,,00082,2023-10-24_13h19.14.355,vbt_B1_day4,2022.2.4,Win32,59.84798612,,,,,,,,,,,,,,,,,,,,bisschap,images/br_bisschap.png,images/cb_bisschap.png,,bisschop,,,,,,,,,,,0.042592578,-0.062037044,1,0,0,bisschop,0,4,4,36,1
,,,,,00082,2023-10-24_13h19.14.355,vbt_B1_day4,2022.2.4,Win32,59.84798612,,,,,,,,,,,,,,,,,,,,kust,images/br_kust.png,images/cb_kust.png,,kust,,,,,,,,,,,0.042592578,-0.062037044,1,0,0,kust,0,5,5,0,1
,,,,,00082,2023-10-24_13h19.14.355,vbt_B1_day4,2022.2.4,Win32,59.84798612,,,,,,,,,,,,,,,,,,,,gaan,images/br_gaan.png,images/cb_gaan.png,,gaan,,,,,,,,,,,0.042592578,-0.062037044,1,0,0,gaan,0,6,6,41,1
,,,,,00082,2023-10-24_13h19.14.355,vbt_B1_day4,2022.2.4,Win32,59.84798612,,,,,,,,,,,,,,,,,,,,ezel,images/br_ezel.png,images/cb_ezel.png,,ezel,,,,,,,,,,,0.042592578,-0.062037044,1,0,0,ezel,0,7,7,42,1
,,,,,00082,2023-10-24_13h19.14.355,vbt_B1_day4,2022.2.4,Win32,59.84798612,,,,,,,,,,,,,,,,,,,,sulbon,images/br_sulbon.png,images/cb_sulbon.png,,sulbon,,,,,,,,,,,0.050925926,-0.058333326,1,0,0,sulbon,0,8,8,31,1
,,,,,00082,2023-10-24_13h19.14.355,vbt_B1_day4,2022.2.4,Win32,59.84798612,,,,,,,,,,,,,,,,,,,,fran,images/br_fran.png,images/cb_fran.png,,fran,,,,,,,,,,,0.050925926,-0.058333326,1,0,0,fran,0,9,9,22,1
,,,,,00082,2023-10-24_13h19.14.355,vbt_B1_day4,2022.2.4,Win32,59.84798612,,,,,,,,,,,,,,,,,,,,noodzaak,images/br_noodzaak.png,images/cb_noodzaak.png,,noodzaak,,,,,,,,,,,0.110185199,-0.054629644,1,0,0,noodzaak,0,10,10,56,1
,,,,,00082,2023-10-24_13h19.14.355,vbt_B1_day4,2022.2.4,Win32,59.84798612,,,,,,,,,,,,,,,,,,,,warel,images/br_warel.png,images/cb_warel.png,,warel,,,,,,,,,,,0.110185199,-0.054629644,1,0,0,warel,0,11,11,26,1
,,,,,00082,2023-10-24_13h19.14.355,vbt_B1_day4,2022.2.4,Win32,59.84798612,,,,,,,,,,,,,,,,,,,,lappen,images/br_lappen.png,images/cb_lappen.png,,lappen,,,,,,,,,,,0.110185199,-0.054629644,1,0,0,lappen,0,12,12,49,1
,,,,,00082,2023-10-24_13h19.14.355,vbt_B1_day4,2022.2.4,Win32,59.84798612,,,,,,,,,,,,,,,,,,,,eerst,images/br_eerst.png,images/cb_eerst.png,,eerst,,,,,,,,,,,0.110185199,-0.054629644,1,0,0,eerst,0,13,13,47,1
,,,,,00082,2023-10-24_13h19.14.355,vbt_B1_day4,2022.2.4,Win32,59.84798612,,,,,,,,,,,,,,,,,,,,flippen,images/br_flippen.png,images/cb_flippen.png,,flippen,,,,,,,,,,,0.110185199,-0.054629644,1,0,0,flippen,0,14,14,54,1
,,,,,00082,2023-10-24_13h19.14.355,vbt_B1_day4,2022.2.4,Win32,59.84798612,,,,,,,,,,,,,,,,,,,,seizoen,images/br_seizoen.png,images/cb_seizoen.png,,seizoen,,,,,,,,,,,0.110185199,-0.054629644,1,0,0,seizoen,0,15,15,13,1
,,,,,00082,2023-10-24_13h19.14.355,vbt_B1_day4,2022.2.4,Win32,59.84798612,,,,,,,,,,,,,,,,,,,,gebit,images/br_gebit.png,images/cb_gebit.png,,gebit,,,,,,,,,,,0.110185199,-0.054629644,1,0,0,gebit,0,16,16,6,1
,,,,,00082,2023-10-24_13h19.14.355,vbt_B1_day4,2022.2.4,Win32,59.84798612,,,,,,,,,,,,,,,,,,,,tucket,images/br_tucket.png,images/cb_tucket.png,,tucken,,,,,,,,,,,0.139814801,-0.037037037,1,0,0,tucken,0,17,17,30,1
,,,,,00082,2023-10-24_13h19.14.355,vbt_B1_day4,2022.2.4,Win32,59.84798612,,,,,,,,,,,,,,,,,,,,opruimen,images/br_opruimen.png,images/cb_opruimen.png,,opruimen,,,,,,,,,,,0.139814801,-0.037037037,1,0,0,opruimen,0,18,18,59,1
,,,,,00082,2023-10-24_13h19.14.355,vbt_B1_day4,2022.2.4,Win32,59.84798612,,,,,,,,,,,,,,,,,,,,gedicht,images/br_gedicht.png,images/cb_gedicht.png,,gedacht,,,,,,,,,,,0.139814801,-0.037037037,1,0,0,gedacht,0,19,19,15,1
,,,,,00082,2023-10-24_13h19.14.355,vbt_B1_day4,2022.2.4,Win32,59.84798612,,,,,,,,,,,,,,,,,,,,apparaat,images/br_apparaat.png,images/cb_apparaat.png,,apparaat,,,,,,,,,,,0.139814801,-0.037037037,1,0,0,apparaat,0,20,20,17,1
,,,,,00082,2023-10-24_13h19.14.355,vbt_B1_day4,2022.2.4,Win32,59.84798612,,,,,,,,,,,,,,,,,,,,gijf,images/br_gijf.png,images/cb_gijf.png,,gijf,,,,,,,,,,,0.143518519,-0.041666667,1,0,0,gijf,0,21,21,23,1
,,,,,00082,2023-10-24_13h19.14.355,vbt_B1_day4,2022.2.4,Win32,59.84798612,,,,,,,,,,,,,,,,,,,,gaaf,images/br_gaaf.png,images/cb_gaaf.png,,gaaf,,,,,,,,,,,0.143518519,-0.041666667,1,0,0,gaaf,0,22,22,43,1
,,,,,00082,2023-10-24_13h19.14.355,vbt_B1_day4,2022.2.4,Win32,59.84798612,,,,,,,,,,,,,,,,,,,,geheim,images/br_geheim.png,images/cb_geheim.png,,geheim,,,,,,,,,,,0.140740783,-0.042592614,1,0,0,geheim,0,23,23,8,1
,,,,,00082,2023-10-24_13h19.14.355,vbt_B1_day4,2022.2.4,Win32,59.84798612,,,,,,,,,,,,,,,,,,,,strok,images/br_strok.png,images/cb_strok.png,,strok,,,,,,,,,,,0.140740783,-0.042592614,1,0,0,strok,0,24,24,25,1
,,,,,00082,2023-10-24_13h19.14.355,vbt_B1_day4,2022.2.4,Win32,59.84798612,,,,,,,,,,,,,,,,,,,,zwek,images/br_zwek.png,images/cb_zwek.png,,zwek,,,,,,,,,,,0.140740783,-0.042592614,1,0,0,zwek,0,25,25,20,1
,,,,,00082,2023-10-24_13h19.14.355,vbt_B1_day4,2022.2.4,Win32,59.84798612,,,,,,,,,,,,,,,,,,,,waarop,images/br_waarop.png,images/cb_waarop.png,,waarop,,,,,,,,,,,0.140740783,-0.042592614,1,0,0,waarop,0,26,26,9,1
,,,,,00082,2023-10-24_13h19.14.355,vbt_B1_day4,2022.2.4,Win32,59.84798612,,,,,,,,,,,,,,,,,,,,broodje,images/br_broodje.png,images/cb_broodje.png,,broodje,,,,,,,,,,,0.140740783,-0.042592614,1,0,0,broodje,0,27,27,55,1
,,,,,00082,2023-10-24_13h19.14.355,vbt_B1_day4,2022.2.4,Win32,59.84798612,,,,,,,,,,,,,,,,,,,,vreten,images/br_vreten.png,images/cb_vreten.png,,vreten,,,,,,,,,,,0.140740783,-0.042592614,1,0,0,vreten,0,28,28,11,1
,,,,,00082,2023-10-24_13h19.14.355,vbt_B1_day4,2022.2.4,Win32,59.84798612,,,,,,,,,,,,,,,,,,,,toevol,images/br_toevol.png,images/cb_toevol.png,,toevol,,,,,,,,,,,0.140740783,-0.042592614,1,0,0,toevol,0,29,29,29,1
,,,,,00082,2023-10-24_13h19.14.355,vbt_B1_day4,2022.2.4,Win32,59.84798612,,,,,,,,,,,,,,,,,,,,soda,images/br_soda.png,images/cb_soda.png,,soda,,,,,,,,,,,0.140740783,-0.042592614,1,0,0,soda,0,30,30,3,1
,,,,,00082,2023-10-24_13h19.14.355,vbt_B1_day4,2022.2.4,Win32,59.84798612,,,,,,,,,,,,,,,,,,,,kaal,images/br_kaal.png,images/cb_kaal.png,,kaal,,,,,,,,,,,0.140740783,-0.042592614,1,0,0,kaal,0,31,31,1,1
,,,,,00082,2023-10-24_13h19.14.355,vbt_B1_day4,2022.2.4,Win32,59.84798612,,,,,,,,,,,,,,,,,,,,wozing,images/br_wozing.png,images/cb_wozing.png,,wozing,,,,,,,,,,,0.140740783,-0.042592614,1,0,0,wozing,0,32,32,28,1
,,,,,00082,2023-10-24_13h19.14.355,vbt_B1_day4,2022.2.4,Win32,59.84798612,,,,,,,,,,,,,,,,,,,,mekst,images/br_mekst.png,images/cb_mekst.png,,mekst,,,,,,,,,,,0.162962949,-0.028703725,1,0,0,mekst,0,33,33,27,1
,,,,,00082,2023-10-24_13h19.14.355,vbt_B1_day4,2022.2.4,Win32,59.84798612,,,,,,,,,,,,,,,,,,,,seizoon,images/br_seizoon.png,images/cb_seizoon.png,,seizoon,,,,,,,,,,,0.162037037,-0.015740748,1,0,0,seizoon,0,34,34,33,1
,,,,,00082,2023-10-24_13h19.14.355,vbt_B1_day4,2022.2.4,Win32,59.84798612,,,,,,,,,,,,,,,,,,,,wagon,images/br_wagon.png,images/cb_wagon.png,,wagon,,,,,,,,,,,0.162037037,-0.015740748,1,0,0,wagon,0,35,35,4,1
,,,,,00082,2023-10-24_13h19.14.355,vbt_B1_day4,2022.2.4,Win32,59.84798612,,,,,,,,,,,,,,,,,,,,bruin,images/br_bruin.png,images/cb_bruin.png,,brui.,,,,,,,,,,,0.162037037,-0.015740748,1,0,0,brui.,0,36,36,45,1
,,,,,00082,2023-10-24_13h19.14.355,vbt_B1_day4,2022.2.4,Win32,59.84798612,,,,,,,,,,,,,,,,,,,,aanzwaag,images/br_aanzwaag.png,images/cb_aanzwaag.png,,aanzk...,,,,,,,,,,,0.162037037,-0.015740748,1,0,0,aanzk...,0,37,37,38,1
,,,,,00082,2023-10-24_13h19.14.355,vbt_B1_day4,2022.2.4,Win32,59.84798612,,,,,,,,,,,,,,,,,,,,dalen,images/br_dalen.png,images/cb_dalen.png,,dalen,,,,,,,,,,,0.162037037,-0.015740748,1,0,0,dalen,0,38,38,46,1
,,,,,00082,2023-10-24_13h19.14.355,vbt_B1_day4,2022.2.4,Win32,59.84798612,,,,,,,,,,,,,,,,,,,,opkicht,images/br_opkicht.png,images/cb_opkicht.png,,opkicht,,,,,,,,,,,0.162962949,-0.013888889,1,0,0,opkicht,0,39,39,34,1
,,,,,00082,2023-10-24_13h19.14.355,vbt_B1_day4,2022.2.4,Win32,59.84798612,,,,,,,,,,,,,,,,,,,,paalbaak,images/br_paalbaak.png,images/cb_paalbaak.png,,paalbaak,,,,,,,,,,,0.164814843,-0.015740748,1,0,0,paalbaak,0,40,40,39,1
,,,,,00082,2023-10-24_13h19.14.355,vbt_B1_day4,2022.2.4,Win32,59.84798612,,,,,,,,,,,,,,,,,,,,stemming,images/br_stemming.png,images/cb_stemming.png,,stemming,,,,,,,,,,,0.164814843,-0.015740748,1,0,0,stemming,0,41,41,18,1
,,,,,00082,2023-10-24_13h19.14.355,vbt_B1_day4,2022.2.4,Win32,59.84798612,,,,,,,,,,,,,,,,,,,,praat,images/br_praat.png,images/cb_praat.png,,praat,,,,,,,,,,,0.210185228,-0.155555584,1,0,0,praat,0,42,42,7,1
,,,,,00082,2023-10-24_13h19.14.355,vbt_B1_day4,2022.2.4,Win32,59.84798612,,,,,,,,,,,,,,,,,,,,rijp,images/br_rijp.png,images/cb_rijp.png,,rijp,,,,,,,,,,,0.210185228,-0.155555584,1,0,0,rijp,0,43,43,2,1
,,,,,00082,2023-10-24_13h19.14.355,vbt_B1_day4,2022.2.4,Win32,59.84798612,,,,,,,,,,,,,,,,,,,,schenden,images/br_schenden.png,images/cb_schenden.png,,schenden,,,,,,,,,,,0.210185228,-0.155555584,1,0,0,schenden,0,44,44,57,1
,,,,,00082,2023-10-24_13h19.14.355,vbt_B1_day4,2022.2.4,Win32,59.84798612,,,,,,,,,,,,,,,,,,,,snee,images/br_snee.png,images/cb_snee.png,,snee,,,,,,,,,,,0.210185228,-0.155555584,1,0,0,snee,0,45,45,40,1
,,,,,00082,2023-10-24_13h19.14.355,vbt_B1_day4,2022.2.4,Win32,59.84798612,,,,,,,,,,,,,,,,,,,,haza,images/br_haza.png,images/cb_haza.png,,haza,,,,,,,,,,,0.236111111,-0.126851894,1,0,0,haza,0,46,46,21,1
,,,,,00082,2023-10-24_13h19.14.355,vbt_B1_day4,2022.2.4,Win32,59.84798612,,,,,,,,,,,,,,,,,,,,grappen,images/br_grappen.png,images/cb_grappen.png,,grappen,,,,,,,,,,,0.237963005,-0.127777806,1,0,0,grappen,0,47,47,12,1
,,,,,00082,2023-10-24_13h19.14.355,vbt_B1_day4,2022.2.4,Win32,59.84798612,,,,,,,,,,,,,,,,,,,,gebog,images/br_gebog.png,images/cb_gebog.png,,gebog,,,,,,,,,,,0.279629672,-0.117592635,1,0,0,gebog,0,48,48,24,1
,,,,,00082,2023-10-24_13h19.14.355,vbt_B1_day4,2022.2.4,Win32,59.84798612,,,,,,,,,,,,,,,,,,,,dozijn,images/br_dozijn.png,images/cb_dozijn.png,,dozijn,,,,,,,,,,,0.279629672,-0.117592635,1,0,0,dozijn,0,49,49,48,1
,,,,,00082,2023-10-24_13h19.14.355,vbt_B1_day4,2022.2.4,Win32,59.84798612,,,,,,,,,,,,,,,,,,,,midden,images/br_midden.png,images/cb_midden.png,,midden,,,,,,,,,,,0.279629672,-0.117592635,1,0,0,midden,0,50,50,50,1
,,,,,00082,2023-10-24_13h19.14.355,vbt_B1_day4,2022.2.4,Win32,59.84798612,,,,,,,,,,,,,,,,,,,,getucht,images/br_getucht.png,images/cb_getucht.png,,getucht,,,,,,,,,,,0.279629672,-0.117592635,1,0,0,getucht,0,51,51,35,1
,,,,,00082,2023-10-24_13h19.14.355,vbt_B1_day4,2022.2.4,Win32,59.84798612,,,,,,,,,,,,,,,,,,,,pijnlijk,images/br_pijnlijk.png,images/cb_pijnlijk.png,,pijnlijk,,,,,,,,,,,0.279629672,-0.117592635,1,0,0,pijnlijk,0,52,52,58,1
,,,,,00082,2023-10-24_13h19.14.355,vbt_B1_day4,2022.2.4,Win32,59.84798612,,,,,,,,,,,,,,,,,,,,zaalrijk,images/br_zaalrijk.png,images/cb_zaalrijk.png,,zaalrij.,,,,,,,,,,,0.287037037,-0.112037023,1,0,0,zaalrij.,0,53,53,37,1
,,,,,00082,2023-10-24_13h19.14.355,vbt_B1_day4,2022.2.4,Win32,59.84798612,,,,,,,,,,,,,,,,,,,,weigeren,images/br_weigeren.png,images/cb_weigeren.png,,weigeren,,,,,,,,,,,0.287037037,-0.112037023,1,0,0,weigeren,0,54,54,16,1
,,,,,00082,2023-10-24_13h19.14.355,vbt_B1_day4,2022.2.4,Win32,59.84798612,,,,,,,,,,,,,,,,,,,,pittig,images/br_pittig.png,images/cb_pittig.png,,pittig,,,,,,,,,,,0.287037037,-0.112037023,1,0,0,pittig,0,55,55,51,1
,,,,,00082,2023-10-24_13h19.14.355,vbt_B1_day4,2022.2.4,Win32,59.84798612,,,,,,,,,,,,,,,,,,,,baron,images/br_baron.png,images/cb_baron.png,,baron,,,,,,,,,,,0.287037037,-0.112037023,1,0,0,baron,0,56,56,5,1
,,,,,00082,2023-10-24_13h19.14.355,vbt_B1_day4,2022.2.4,Win32,59.84798612,,,,,,,,,,,,,,,,,,,,heengaan,images/br_heengaan.png,images/cb_heengaan.png,,heengaan,,,,,,,,,,,0.287037037,-0.112037023,1,0,0,heengaan,0,57,57,19,1
,,,,,00082,2023-10-24_13h19.14.355,vbt_B1_day4,2022.2.4,Win32,59.84798612,,,,,,,,,,,,,,,,,,,,steen,images/br_steen.png,images/cb_steen.png,,steen,,,,,,,,,,,0.287037037,-0.112037023,1,0,0,steen,0,58,58,44,1
,,,,,00082,2023-10-24_13h19.14.355,vbt_B1_day4,2022.2.4,Win32,59.84798612,,,,,,,,,,,,,,,,,,,,oceaan,images/br_oceaan.png,images/cb_oceaan.png,,oceaan,,,,,,,,,,,0.287037037,-0.112037023,1,0,0,oceaan,0,59,59,10,1
,,,,,00082,2023-10-24_13h19.14.355,vbt_B1_day4,2022.2.4,Win32,59.84798612,,,,,,,,,,,,,,,,,,,,,,,,,,,,,,,,,,,,,,,,,,,,,
