welcome_mouse.x,welcome_mouse.y,welcome_mouse.leftButton,welcome_mouse.midButton,welcome_mouse.rightButton,"ID",date,expName,psychopyVersion,OS,frameRate,participant,trainInstr_mouse.x,trainInstr_mouse.y,trainInstr_mouse.leftButton,trainInstr_mouse.midButton,trainInstr_mouse.rightButton,translation_key.keys,translation_key.corr,translation_key.rt,word_rsp.text,trWrd_mouse.x,trWrd_mouse.y,trWrd_mouse.leftButton,trWrd_mouse.midButton,trWrd_mouse.rightButton,train_loop.thisRepN,train_loop.thisTrialN,train_loop.thisN,train_loop.thisIndex,train_loop.ran,nlWrd,brWrd,cbWrd,test,testResp,mouse.x,mouse.y,mouse.leftButton,mouse.midButton,mouse.rightButton,testInstr_mouse.x,testInstr_mouse.y,testInstr_mouse.leftButton,testInstr_mouse.midButton,testInstr_mouse.rightButton,test_mouse.x,test_mouse.y,test_mouse.leftButton,test_mouse.midButton,test_mouse.rightButton,test_response.text,test_loop.thisRepN,test_loop.thisTrialN,test_loop.thisN,test_loop.thisIndex,test_loop.ran
0.140740783,-0.216666681,1,0,0,55891,2023-09-27_08h50.33.852,vbt_B1_day4,2022.2.4,Win32,59.95563283,55891,,,,,,,,,,,,,,,,,,,,,,,,,,,,,,,,,,,,,,,,,,,,,
,,,,,55891,2023-09-27_08h50.33.852,vbt_B1_day4,2022.2.4,Win32,59.95563283,55891,0.519444501,-0.187037079,1,0,0,,,,,,,,,,,,,,,,,,,,,,,,,,,,,,,,,,,,,,,,
,,,,,55891,2023-09-27_08h50.33.852,vbt_B1_day4,2022.2.4,Win32,59.95563283,55891,,,,,,down,0,3.4005,,0.519444501,-0.187037079,1,0,0,0,0,0,124,1,bloeien,images/br_bloeien.png,images/cb_bloeien.png,0,,,,,,,,,,,,,,,,,,,,,,
,,,,,55891,2023-09-27_08h50.33.852,vbt_B1_day4,2022.2.4,Win32,59.95563283,55891,,,,,,down,0,3.3976,,0.519444501,-0.187037079,1,0,0,0,1,1,107,1,maling,images/br_maling.png,images/cb_maling.png,1,maling,,,,,,,,,,,,,,,,,,,,,
,,,,,55891,2023-09-27_08h50.33.852,vbt_B1_day4,2022.2.4,Win32,59.95563283,55891,,,,,,down,0,1.6461,,0.519444501,-0.187037079,1,0,0,0,2,2,138,1,akkoord,images/br_akkoord.png,images/cb_akkoord.png,0,,,,,,,,,,,,,,,,,,,,,,
,,,,,55891,2023-09-27_08h50.33.852,vbt_B1_day4,2022.2.4,Win32,59.95563283,55891,,,,,,down,0,0.7,,0.519444501,-0.187037079,1,0,0,0,3,3,119,1,liefje,images/br_liefje.png,images/cb_liefje.png,0,,,,,,,,,,,,,,,,,,,,,,
,,,,,55891,2023-09-27_08h50.33.852,vbt_B1_day4,2022.2.4,Win32,59.95563283,55891,,,,,,down,0,0.1291,,0.519444501,-0.187037079,1,0,0,0,4,4,77,1,woede,images/br_woede.png,images/cb_woede.png,0,,,,,,,,,,,,,,,,,,,,,,
,,,,,55891,2023-09-27_08h50.33.852,vbt_B1_day4,2022.2.4,Win32,59.95563283,55891,,,,,,down,0,1.6643,,0.519444501,-0.187037079,1,0,0,0,5,5,67,1,zwart,images/br_zwart.png,images/cb_zwart.png,1,zwart,,,,,,,,,,,,,,,,,,,,,
,,,,,55891,2023-09-27_08h50.33.852,vbt_B1_day4,2022.2.4,Win32,59.95563283,55891,,,,,,down,0,0.3829,,0.519444501,-0.187037079,1,0,0,0,6,6,4,1,moes,images/br_moes.png,images/cb_moes.png,0,,,,,,,,,,,,,,,,,,,,,,
,,,,,55891,2023-09-27_08h50.33.852,vbt_B1_day4,2022.2.4,Win32,59.95563283,55891,,,,,,down,0,0.0499,,0.519444501,-0.187037079,1,0,0,0,7,7,56,1,traag,images/br_traag.png,images/cb_traag.png,0,,,,,,,,,,,,,,,,,,,,,,
,,,,,55891,2023-09-27_08h50.33.852,vbt_B1_day4,2022.2.4,Win32,59.95563283,55891,,,,,,down,0,6.4749,,0.519444501,-0.187037079,1,0,0,0,8,8,147,1,komisch,images/br_komisch.png,images/cb_komisch.png,1,komisch,,,,,,,,,,,,,,,,,,,,,
,,,,,55891,2023-09-27_08h50.33.852,vbt_B1_day4,2022.2.4,Win32,59.95563283,55891,,,,,,down,0,0.7992,,0.519444501,-0.187037079,1,0,0,0,9,9,183,1,getuigen,images/br_getuigen.png,images/cb_getuigen.png,0,,,,,,,,,,,,,,,,,,,,,,
,,,,,55891,2023-09-27_08h50.33.852,vbt_B1_day4,2022.2.4,Win32,59.95563283,55891,,,,,,down,0,0.4,,0.519444501,-0.187037079,1,0,0,0,10,10,173,1,apparaat,images/br_apparaat.png,images/cb_apparaat.png,0,,,,,,,,,,,,,,,,,,,,,,
,,,,,55891,2023-09-27_08h50.33.852,vbt_B1_day4,2022.2.4,Win32,59.95563283,55891,,,,,,down,0,0.044,,0.519444501,-0.187037079,1,0,0,0,11,11,16,1,ziek,images/br_ziek.png,images/cb_ziek.png,0,,,,,,,,,,,,,,,,,,,,,,
,,,,,55891,2023-09-27_08h50.33.852,vbt_B1_day4,2022.2.4,Win32,59.95563283,55891,,,,,,down,0,0.9528,,0.519444501,-0.187037079,1,0,0,0,12,12,14,1,rijp,images/br_rijp.png,images/cb_rijp.png,0,,,,,,,,,,,,,,,,,,,,,,
,,,,,55891,2023-09-27_08h50.33.852,vbt_B1_day4,2022.2.4,Win32,59.95563283,55891,,,,,,down,0,0.477,,0.519444501,-0.187037079,1,0,0,0,13,13,25,1,plek,images/br_plek.png,images/cb_plek.png,1,plek,,,,,,,,,,,,,,,,,,,,,
,,,,,55891,2023-09-27_08h50.33.852,vbt_B1_day4,2022.2.4,Win32,59.95563283,55891,,,,,,down,0,0.3588,,0.519444501,-0.187037079,1,0,0,0,14,14,75,1,snoep,images/br_snoep.png,images/cb_snoep.png,0,,,,,,,,,,,,,,,,,,,,,,
,,,,,55891,2023-09-27_08h50.33.852,vbt_B1_day4,2022.2.4,Win32,59.95563283,55891,,,,,,down,0,1.0901,,0.519444501,-0.187037079,1,0,0,0,15,15,69,1,waken,images/br_waken.png,images/cb_waken.png,0,,,,,,,,,,,,,,,,,,,,,,
,,,,,55891,2023-09-27_08h50.33.852,vbt_B1_day4,2022.2.4,Win32,59.95563283,55891,,,,,,down,0,0.4694,,0.519444501,-0.187037079,1,0,0,0,16,16,36,1,vuur,images/br_vuur.png,images/cb_vuur.png,0,,,,,,,,,,,,,,,,,,,,,,
,,,,,55891,2023-09-27_08h50.33.852,vbt_B1_day4,2022.2.4,Win32,59.95563283,55891,,,,,,down,0,2.0367,,0.519444501,-0.187037079,1,0,0,0,17,17,106,1,zingen,images/br_zingen.png,images/cb_zingen.png,1,zingen,,,,,,,,,,,,,,,,,,,,,
,,,,,55891,2023-09-27_08h50.33.852,vbt_B1_day4,2022.2.4,Win32,59.95563283,55891,,,,,,down,0,5.211,,0.519444501,-0.187037079,1,0,0,0,18,18,171,1,aarzelen,images/br_aarzelen.png,images/cb_aarzelen.png,0,,,,,,,,,,,,,,,,,,,,,,
,,,,,55891,2023-09-27_08h50.33.852,vbt_B1_day4,2022.2.4,Win32,59.95563283,55891,,,,,,down,0,0.718,,0.519444501,-0.187037079,1,0,0,0,19,19,167,1,eenhoorn,images/br_eenhoorn.png,images/cb_eenhoorn.png,0,,,,,,,,,,,,,,,,,,,,,,
,,,,,55891,2023-09-27_08h50.33.852,vbt_B1_day4,2022.2.4,Win32,59.95563283,55891,,,,,,down,0,0.0043,,0.519444501,-0.187037079,1,0,0,0,20,20,190,1,goedkoop,images/br_goedkoop.png,images/cb_goedkoop.png,0,,,,,,,,,,,,,,,,,,,,,,
,,,,,55891,2023-09-27_08h50.33.852,vbt_B1_day4,2022.2.4,Win32,59.95563283,55891,,,,,,down,0,0.8418,,0.519444501,-0.187037079,1,0,0,0,21,21,188,1,strekken,images/br_strekken.png,images/cb_strekken.png,0,,,,,,,,,,,,,,,,,,,,,,
,,,,,55891,2023-09-27_08h50.33.852,vbt_B1_day4,2022.2.4,Win32,59.95563283,55891,,,,,,down,0,0.3597,,0.519444501,-0.187037079,1,0,0,0,22,22,50,1,stoom,images/br_stoom.png,images/cb_stoom.png,0,,,,,,,,,,,,,,,,,,,,,,
,,,,,55891,2023-09-27_08h50.33.852,vbt_B1_day4,2022.2.4,Win32,59.95563283,55891,,,,,,down,0,0.461,,0.519444501,-0.187037079,1,0,0,0,23,23,198,1,bedoelen,images/br_bedoelen.png,images/cb_bedoelen.png,0,,,,,,,,,,,,,,,,,,,,,,
,,,,,55891,2023-09-27_08h50.33.852,vbt_B1_day4,2022.2.4,Win32,59.95563283,55891,,,,,,down,0,2.6299,,0.519444501,-0.187037079,1,0,0,0,24,24,66,1,lever,images/br_lever.png,images/cb_lever.png,1,lever,,,,,,,,,,,,,,,,,,,,,
,,,,,55891,2023-09-27_08h50.33.852,vbt_B1_day4,2022.2.4,Win32,59.95563283,55891,,,,,,down,0,0.0177,,0.519444501,-0.187037079,1,0,0,0,25,25,118,1,vinger,images/br_vinger.png,images/cb_vinger.png,0,,,,,,,,,,,,,,,,,,,,,,
,,,,,55891,2023-09-27_08h50.33.852,vbt_B1_day4,2022.2.4,Win32,59.95563283,55891,,,,,,down,0,0.0892,,0.519444501,-0.187037079,1,0,0,0,26,26,139,1,stiekem,images/br_stiekem.png,images/cb_stiekem.png,0,,,,,,,,,,,,,,,,,,,,,,
,,,,,55891,2023-09-27_08h50.33.852,vbt_B1_day4,2022.2.4,Win32,59.95563283,55891,,,,,,down,0,0.341,,0.519444501,-0.187037079,1,0,0,0,27,27,162,1,uitdelen,images/br_uitdelen.png,images/cb_uitdelen.png,0,,,,,,,,,,,,,,,,,,,,,,
,,,,,55891,2023-09-27_08h50.33.852,vbt_B1_day4,2022.2.4,Win32,59.95563283,55891,,,,,,down,0,0.2179,,0.519444501,-0.187037079,1,0,0,0,28,28,39,1,laag,images/br_laag.png,images/cb_laag.png,0,,,,,,,,,,,,,,,,,,,,,,
,,,,,55891,2023-09-27_08h50.33.852,vbt_B1_day4,2022.2.4,Win32,59.95563283,55891,,,,,,down,0,0.1971,,0.519444501,-0.187037079,1,0,0,0,29,29,33,1,vlek,images/br_vlek.png,images/cb_vlek.png,0,,,,,,,,,,,,,,,,,,,,,,
,,,,,55891,2023-09-27_08h50.33.852,vbt_B1_day4,2022.2.4,Win32,59.95563283,55891,,,,,,down,0,0.8183,,0.519444501,-0.187037079,1,0,0,0,30,30,108,1,excuus,images/br_excuus.png,images/cb_excuus.png,0,,,,,,,,,,,,,,,,,,,,,,
,,,,,55891,2023-09-27_08h50.33.852,vbt_B1_day4,2022.2.4,Win32,59.95563283,55891,,,,,,down,0,0.8136,,0.519444501,-0.187037079,1,0,0,0,31,31,6,1,diep,images/br_diep.png,images/cb_diep.png,0,,,,,,,,,,,,,,,,,,,,,,
,,,,,55891,2023-09-27_08h50.33.852,vbt_B1_day4,2022.2.4,Win32,59.95563283,55891,,,,,,down,0,2.1042,,0.519444501,-0.187037079,1,0,0,0,32,32,156,1,rechten,images/br_rechten.png,images/cb_rechten.png,0,,,,,,,,,,,,,,,,,,,,,,
,,,,,55891,2023-09-27_08h50.33.852,vbt_B1_day4,2022.2.4,Win32,59.95563283,55891,,,,,,down,0,0.3352,,0.519444501,-0.187037079,1,0,0,0,33,33,34,1,vorm,images/br_vorm.png,images/cb_vorm.png,0,,,,,,,,,,,,,,,,,,,,,,
,,,,,55891,2023-09-27_08h50.33.852,vbt_B1_day4,2022.2.4,Win32,59.95563283,55891,,,,,,down,0,0.5214,,0.519444501,-0.187037079,1,0,0,0,34,34,130,1,keihard,images/br_keihard.png,images/cb_keihard.png,0,,,,,,,,,,,,,,,,,,,,,,
,,,,,55891,2023-09-27_08h50.33.852,vbt_B1_day4,2022.2.4,Win32,59.95563283,55891,,,,,,down,0,0.6709,,0.519444501,-0.187037079,1,0,0,0,35,35,45,1,piste,images/br_piste.png,images/cb_piste.png,0,,,,,,,,,,,,,,,,,,,,,,
,,,,,55891,2023-09-27_08h50.33.852,vbt_B1_day4,2022.2.4,Win32,59.95563283,55891,,,,,,down,0,0.3976,,0.519444501,-0.187037079,1,0,0,0,36,36,148,1,smullen,images/br_smullen.png,images/cb_smullen.png,0,,,,,,,,,,,,,,,,,,,,,,
,,,,,55891,2023-09-27_08h50.33.852,vbt_B1_day4,2022.2.4,Win32,59.95563283,55891,,,,,,down,0,0.3332,,0.519444501,-0.187037079,1,0,0,0,37,37,59,1,kring,images/br_kring.png,images/cb_kring.png,0,,,,,,,,,,,,,,,,,,,,,,
,,,,,55891,2023-09-27_08h50.33.852,vbt_B1_day4,2022.2.4,Win32,59.95563283,55891,,,,,,down,0,0.5037,,0.519444501,-0.187037079,1,0,0,0,38,38,82,1,muziek,images/br_muziek.png,images/cb_muziek.png,0,,,,,,,,,,,,,,,,,,,,,,
,,,,,55891,2023-09-27_08h50.33.852,vbt_B1_day4,2022.2.4,Win32,59.95563283,55891,,,,,,down,0,1.3012,,0.515740712,-0.189814815,1,0,0,0,39,39,60,1,jasje,images/br_jasje.png,images/cb_jasje.png,0,,,,,,,,,,,,,,,,,,,,,,
,,,,,55891,2023-09-27_08h50.33.852,vbt_B1_day4,2022.2.4,Win32,59.95563283,55891,,,,,,down,0,0.9592,,0.515740712,-0.189814815,1,0,0,0,40,40,129,1,verhaal,images/br_verhaal.png,images/cb_verhaal.png,0,,,,,,,,,,,,,,,,,,,,,,
,,,,,55891,2023-09-27_08h50.33.852,vbt_B1_day4,2022.2.4,Win32,59.95563283,55891,,,,,,down,0,2.5544,,0.515740712,-0.189814815,1,0,0,0,41,41,65,1,parel,images/br_parel.png,images/cb_parel.png,1,parel,,,,,,,,,,,,,,,,,,,,,
,,,,,55891,2023-09-27_08h50.33.852,vbt_B1_day4,2022.2.4,Win32,59.95563283,55891,,,,,,down,0,1.3877,,0.515740712,-0.189814815,1,0,0,0,42,42,22,1,stof,images/br_stof.png,images/cb_stof.png,0,,,,,,,,,,,,,,,,,,,,,,
,,,,,55891,2023-09-27_08h50.33.852,vbt_B1_day4,2022.2.4,Win32,59.95563283,55891,,,,,,down,0,7.8055,,0.515740712,-0.189814815,1,0,0,0,43,43,136,1,waarbij,images/br_waarbij.png,images/cb_waarbij.png,0,,,,,,,,,,,,,,,,,,,,,,
,,,,,55891,2023-09-27_08h50.33.852,vbt_B1_day4,2022.2.4,Win32,59.95563283,55891,,,,,,down,0,5.4557,,0.515740712,-0.189814815,1,0,0,0,44,44,143,1,hechten,images/br_hechten.png,images/cb_hechten.png,0,,,,,,,,,,,,,,,,,,,,,,
,,,,,55891,2023-09-27_08h50.33.852,vbt_B1_day4,2022.2.4,Win32,59.95563283,55891,,,,,,down,0,0.2883,,0.515740712,-0.189814815,1,0,0,0,45,45,28,1,stal,images/br_stal.png,images/cb_stal.png,0,,,,,,,,,,,,,,,,,,,,,,
,,,,,55891,2023-09-27_08h50.33.852,vbt_B1_day4,2022.2.4,Win32,59.95563283,55891,,,,,,down,0,0.2582,,0.515740712,-0.189814815,1,0,0,0,46,46,23,1,zout,images/br_zout.png,images/cb_zout.png,0,,,,,,,,,,,,,,,,,,,,,,
,,,,,55891,2023-09-27_08h50.33.852,vbt_B1_day4,2022.2.4,Win32,59.95563283,55891,,,,,,down,0,1.4173,,0.515740712,-0.189814815,1,0,0,0,47,47,134,1,geliefd,images/br_geliefd.png,images/cb_geliefd.png,0,,,,,,,,,,,,,,,,,,,,,,
,,,,,55891,2023-09-27_08h50.33.852,vbt_B1_day4,2022.2.4,Win32,59.95563283,55891,,,,,,down,0,0.617,,0.515740712,-0.189814815,1,0,0,0,48,48,18,1,blik,images/br_blik.png,images/cb_blik.png,0,,,,,,,,,,,,,,,,,,,,,,
,,,,,55891,2023-09-27_08h50.33.852,vbt_B1_day4,2022.2.4,Win32,59.95563283,55891,,,,,,down,0,9.3716,,0.515740712,-0.189814815,1,0,0,0,49,49,24,1,jurk,images/br_jurk.png,images/cb_jurk.png,1,jurk,,,,,,,,,,,,,,,,,,,,,
,,,,,55891,2023-09-27_08h50.33.852,vbt_B1_day4,2022.2.4,Win32,59.95563283,55891,,,,,,down,0,0.5665,,0.515740712,-0.189814815,1,0,0,0,50,50,72,1,strak,images/br_strak.png,images/cb_strak.png,0,,,,,,,,,,,,,,,,,,,,,,
,,,,,55891,2023-09-27_08h50.33.852,vbt_B1_day4,2022.2.4,Win32,59.95563283,55891,,,,,,down,0,2.1671,,0.515740712,-0.189814815,1,0,0,0,51,51,158,1,innemen,images/br_innemen.png,images/cb_innemen.png,0,,,,,,,,,,,,,,,,,,,,,,
,,,,,55891,2023-09-27_08h50.33.852,vbt_B1_day4,2022.2.4,Win32,59.95563283,55891,,,,,,down,0,0.3885,,0.515740712,-0.189814815,1,0,0,0,52,52,177,1,maaltijd,images/br_maaltijd.png,images/cb_maaltijd.png,0,,,,,,,,,,,,,,,,,,,,,,
,,,,,55891,2023-09-27_08h50.33.852,vbt_B1_day4,2022.2.4,Win32,59.95563283,55891,,,,,,down,0,0.9491,,0.515740712,-0.189814815,1,0,0,0,53,53,53,1,baron,images/br_baron.png,images/cb_baron.png,0,,,,,,,,,,,,,,,,,,,,,,
,,,,,55891,2023-09-27_08h50.33.852,vbt_B1_day4,2022.2.4,Win32,59.95563283,55891,,,,,,down,0,0.0055,,0.535185213,-0.190740727,1,0,0,0,54,54,30,1,uien,images/br_uien.png,images/cb_uien.png,0,,,,,,,,,,,,,,,,,,,,,,
,,,,,55891,2023-09-27_08h50.33.852,vbt_B1_day4,2022.2.4,Win32,59.95563283,55891,,,,,,down,0,0.5062,,0.560185185,-0.187037079,1,0,0,0,55,55,174,1,stemming,images/br_stemming.png,images/cb_stemming.png,0,,,,,,,,,,,,,,,,,,,,,,
,,,,,55891,2023-09-27_08h50.33.852,vbt_B1_day4,2022.2.4,Win32,59.95563283,55891,,,,,,down,0,9.5418,,0.551851908,-0.193518533,1,0,0,0,56,56,144,1,eetlust,images/br_eetlust.png,images/cb_eetlust.png,1,eetlust,,,,,,,,,,,,,,,,,,,,,
,,,,,55891,2023-09-27_08h50.33.852,vbt_B1_day4,2022.2.4,Win32,59.95563283,55891,,,,,,down,0,6.5661,,0.551851908,-0.193518533,1,0,0,0,57,57,197,1,spanning,images/br_spanning.png,images/cb_spanning.png,0,,,,,,,,,,,,,,,,,,,,,,
,,,,,55891,2023-09-27_08h50.33.852,vbt_B1_day4,2022.2.4,Win32,59.95563283,55891,,,,,,down,0,2.5861,,0.551851908,-0.193518533,1,0,0,0,58,58,88,1,boeien,images/br_boeien.png,images/cb_boeien.png,0,,,,,,,,,,,,,,,,,,,,,,
,,,,,55891,2023-09-27_08h50.33.852,vbt_B1_day4,2022.2.4,Win32,59.95563283,55891,,,,,,down,0,11.0738,,0.551851908,-0.193518533,1,0,0,0,59,59,27,1,dans,images/br_dans.png,images/cb_dans.png,1,dans,,,,,,,,,,,,,,,,,,,,,
,,,,,55891,2023-09-27_08h50.33.852,vbt_B1_day4,2022.2.4,Win32,59.95563283,55891,,,,,,down,0,11.5094,,0.551851908,-0.193518533,1,0,0,0,60,60,140,1,blijven,images/br_blijven.png,images/cb_blijven.png,0,,,,,,,,,,,,,,,,,,,,,,
,,,,,55891,2023-09-27_08h50.33.852,vbt_B1_day4,2022.2.4,Win32,59.95563283,55891,,,,,,down,0,10.2226,,0.551851908,-0.193518533,1,0,0,0,61,61,73,1,volop,images/br_volop.png,images/cb_volop.png,0,,,,,,,,,,,,,,,,,,,,,,
,,,,,55891,2023-09-27_08h50.33.852,vbt_B1_day4,2022.2.4,Win32,59.95563283,55891,,,,,,down,0,0.3831,,0.551851908,-0.193518533,1,0,0,0,62,62,100,1,geduld,images/br_geduld.png,images/cb_geduld.png,0,,,,,,,,,,,,,,,,,,,,,,
,,,,,55891,2023-09-27_08h50.33.852,vbt_B1_day4,2022.2.4,Win32,59.95563283,55891,,,,,,down,0,0.2233,,0.551851908,-0.193518533,1,0,0,0,63,63,101,1,staren,images/br_staren.png,images/cb_staren.png,0,,,,,,,,,,,,,,,,,,,,,,
,,,,,55891,2023-09-27_08h50.33.852,vbt_B1_day4,2022.2.4,Win32,59.95563283,55891,,,,,,down,0,0.5797,,0.551851908,-0.193518533,1,0,0,0,64,64,109,1,totaal,images/br_totaal.png,images/cb_totaal.png,0,,,,,,,,,,,,,,,,,,,,,,
,,,,,55891,2023-09-27_08h50.33.852,vbt_B1_day4,2022.2.4,Win32,59.95563283,55891,,,,,,down,0,0.9412,,0.551851908,-0.193518533,1,0,0,0,65,65,93,1,waarop,images/br_waarop.png,images/cb_waarop.png,0,,,,,,,,,,,,,,,,,,,,,,
,,,,,55891,2023-09-27_08h50.33.852,vbt_B1_day4,2022.2.4,Win32,59.95563283,55891,,,,,,down,0,2.1961,,0.551851908,-0.193518533,1,0,0,0,66,66,180,1,openbaar,images/br_openbaar.png,images/cb_openbaar.png,0,,,,,,,,,,,,,,,,,,,,,,
,,,,,55891,2023-09-27_08h50.33.852,vbt_B1_day4,2022.2.4,Win32,59.95563283,55891,,,,,,down,0,2.4169,,0.551851908,-0.193518533,1,0,0,0,67,67,104,1,zweven,images/br_zweven.png,images/cb_zweven.png,1,zweven,,,,,,,,,,,,,,,,,,,,,
,,,,,55891,2023-09-27_08h50.33.852,vbt_B1_day4,2022.2.4,Win32,59.95563283,55891,,,,,,down,0,0.7215,,0.551851908,-0.193518533,1,0,0,0,68,68,99,1,koffie,images/br_koffie.png,images/cb_koffie.png,0,,,,,,,,,,,,,,,,,,,,,,
,,,,,55891,2023-09-27_08h50.33.852,vbt_B1_day4,2022.2.4,Win32,59.95563283,55891,,,,,,down,0,0.9002,,0.551851908,-0.193518533,1,0,0,0,69,69,163,1,schuilen,images/br_schuilen.png,images/cb_schuilen.png,0,,,,,,,,,,,,,,,,,,,,,,
,,,,,55891,2023-09-27_08h50.33.852,vbt_B1_day4,2022.2.4,Win32,59.95563283,55891,,,,,,down,0,0.2345,,0.551851908,-0.193518533,1,0,0,0,70,70,169,1,oprotten,images/br_oprotten.png,images/cb_oprotten.png,0,,,,,,,,,,,,,,,,,,,,,,
,,,,,55891,2023-09-27_08h50.33.852,vbt_B1_day4,2022.2.4,Win32,59.95563283,55891,,,,,,down,0,0.2538,,0.551851908,-0.193518533,1,0,0,0,71,71,102,1,legaal,images/br_legaal.png,images/cb_legaal.png,0,,,,,,,,,,,,,,,,,,,,,,
,,,,,55891,2023-09-27_08h50.33.852,vbt_B1_day4,2022.2.4,Win32,59.95563283,55891,,,,,,down,0,0.584,,0.551851908,-0.193518533,1,0,0,0,72,72,193,1,weeshuis,images/br_weeshuis.png,images/cb_weeshuis.png,0,,,,,,,,,,,,,,,,,,,,,,
,,,,,55891,2023-09-27_08h50.33.852,vbt_B1_day4,2022.2.4,Win32,59.95563283,55891,,,,,,down,0,0.6912,,0.551851908,-0.193518533,1,0,0,0,73,73,195,1,middelen,images/br_middelen.png,images/cb_middelen.png,0,,,,,,,,,,,,,,,,,,,,,,
,,,,,55891,2023-09-27_08h50.33.852,vbt_B1_day4,2022.2.4,Win32,59.95563283,55891,,,,,,down,0,0.1686,,0.551851908,-0.193518533,1,0,0,0,74,74,32,1,palm,images/br_palm.png,images/cb_palm.png,0,,,,,,,,,,,,,,,,,,,,,,
,,,,,55891,2023-09-27_08h50.33.852,vbt_B1_day4,2022.2.4,Win32,59.95563283,55891,,,,,,down,0,0.3116,,0.551851908,-0.193518533,1,0,0,0,75,75,57,1,steek,images/br_steek.png,images/cb_steek.png,0,,,,,,,,,,,,,,,,,,,,,,
,,,,,55891,2023-09-27_08h50.33.852,vbt_B1_day4,2022.2.4,Win32,59.95563283,55891,,,,,,down,0,0.157,,0.551851908,-0.193518533,1,0,0,0,76,76,120,1,klimmen,images/br_klimmen.png,images/cb_klimmen.png,0,,,,,,,,,,,,,,,,,,,,,,
,,,,,55891,2023-09-27_08h50.33.852,vbt_B1_day4,2022.2.4,Win32,59.95563283,55891,,,,,,down,0,4.3424,,0.551851908,-0.193518533,1,0,0,0,77,77,121,1,twijfel,images/br_twijfel.png,images/cb_twijfel.png,0,,,,,,,,,,,,,,,,,,,,,,
,,,,,55891,2023-09-27_08h50.33.852,vbt_B1_day4,2022.2.4,Win32,59.95563283,55891,,,,,,down,0,9.7628,,0.551851908,-0.193518533,1,0,0,0,78,78,145,1,invloed,images/br_invloed.png,images/cb_invloed.png,1,invloed,,,,,,,,,,,,,,,,,,,,,
,,,,,55891,2023-09-27_08h50.33.852,vbt_B1_day4,2022.2.4,Win32,59.95563283,55891,,,,,,down,0,2.5837,,0.551851908,-0.193518533,1,0,0,0,79,79,146,1,opkomen,images/br_opkomen.png,images/cb_opkomen.png,1,opkomen,,,,,,,,,,,,,,,,,,,,,
,,,,,55891,2023-09-27_08h50.33.852,vbt_B1_day4,2022.2.4,Win32,59.95563283,55891,,,,,,down,0,0.2257,,0.551851908,-0.193518533,1,0,0,0,80,80,179,1,woestijn,images/br_woestijn.png,images/cb_woestijn.png,0,,,,,,,,,,,,,,,,,,,,,,
,,,,,55891,2023-09-27_08h50.33.852,vbt_B1_day4,2022.2.4,Win32,59.95563283,55891,,,,,,down,0,5.3028,,0.551851908,-0.193518533,1,0,0,0,81,81,164,1,anarchie,images/br_anarchie.png,images/cb_anarchie.png,0,,,,,,,,,,,,,,,,,,,,,,
,,,,,55891,2023-09-27_08h50.33.852,vbt_B1_day4,2022.2.4,Win32,59.95563283,55891,,,,,,down,0,0.0862,,0.551851908,-0.193518533,1,0,0,0,82,82,47,1,kabel,images/br_kabel.png,images/cb_kabel.png,0,,,,,,,,,,,,,,,,,,,,,,
,,,,,55891,2023-09-27_08h50.33.852,vbt_B1_day4,2022.2.4,Win32,59.95563283,55891,,,,,,down,0,0.7687,,0.551851908,-0.193518533,1,0,0,0,83,83,9,1,hier,images/br_hier.png,images/cb_hier.png,0,,,,,,,,,,,,,,,,,,,,,,
,,,,,55891,2023-09-27_08h50.33.852,vbt_B1_day4,2022.2.4,Win32,59.95563283,55891,,,,,,down,0,0.7668,,0.551851908,-0.193518533,1,0,0,0,84,84,49,1,laken,images/br_laken.png,images/cb_laken.png,0,,,,,,,,,,,,,,,,,,,,,,
,,,,,55891,2023-09-27_08h50.33.852,vbt_B1_day4,2022.2.4,Win32,59.95563283,55891,,,,,,down,0,1.4391,,0.551851908,-0.193518533,1,0,0,0,85,85,41,1,maken,images/br_maken.png,images/cb_maken.png,0,,,,,,,,,,,,,,,,,,,,,,
,,,,,55891,2023-09-27_08h50.33.852,vbt_B1_day4,2022.2.4,Win32,59.95563283,55891,,,,,,down,0,0.7359,,0.551851908,-0.193518533,1,0,0,0,86,86,113,1,koppen,images/br_koppen.png,images/cb_koppen.png,0,,,,,,,,,,,,,,,,,,,,,,
,,,,,55891,2023-09-27_08h50.33.852,vbt_B1_day4,2022.2.4,Win32,59.95563283,55891,,,,,,down,0,0.0588,,0.551851908,-0.193518533,1,0,0,0,87,87,83,1,mening,images/br_mening.png,images/cb_mening.png,0,,,,,,,,,,,,,,,,,,,,,,
,,,,,55891,2023-09-27_08h50.33.852,vbt_B1_day4,2022.2.4,Win32,59.95563283,55891,,,,,,down,0,0.4732,,0.551851908,-0.193518533,1,0,0,0,88,88,10,1,leek,images/br_leek.png,images/cb_leek.png,0,,,,,,,,,,,,,,,,,,,,,,
,,,,,55891,2023-09-27_08h50.33.852,vbt_B1_day4,2022.2.4,Win32,59.95563283,55891,,,,,,down,0,12.2136,,0.551851908,-0.193518533,1,0,0,0,89,89,185,1,mijnheer,images/br_mijnheer.png,images/cb_mijnheer.png,1,mijnheer,,,,,,,,,,,,,,,,,,,,,
,,,,,55891,2023-09-27_08h50.33.852,vbt_B1_day4,2022.2.4,Win32,59.95563283,55891,,,,,,down,0,3.0912,,0.551851908,-0.193518533,1,0,0,0,90,90,38,1,baai,images/br_baai.png,images/cb_baai.png,0,,,,,,,,,,,,,,,,,,,,,,
,,,,,55891,2023-09-27_08h50.33.852,vbt_B1_day4,2022.2.4,Win32,59.95563283,55891,,,,,,down,0,0.4275,,0.551851908,-0.193518533,1,0,0,0,91,91,42,1,bleek,images/br_bleek.png,images/cb_bleek.png,0,,,,,,,,,,,,,,,,,,,,,,
,,,,,55891,2023-09-27_08h50.33.852,vbt_B1_day4,2022.2.4,Win32,59.95563283,55891,,,,,,down,0,0.1625,,0.551851908,-0.193518533,1,0,0,0,92,92,7,1,geld,images/br_geld.png,images/cb_geld.png,0,,,,,,,,,,,,,,,,,,,,,,
,,,,,55891,2023-09-27_08h50.33.852,vbt_B1_day4,2022.2.4,Win32,59.95563283,55891,,,,,,down,0,0.4205,,0.551851908,-0.193518533,1,0,0,0,93,93,81,1,dubbel,images/br_dubbel.png,images/cb_dubbel.png,0,,,,,,,,,,,,,,,,,,,,,,
,,,,,55891,2023-09-27_08h50.33.852,vbt_B1_day4,2022.2.4,Win32,59.95563283,55891,,,,,,down,0,2.5636,,0.551851908,-0.193518533,1,0,0,0,94,94,160,1,daarheen,images/br_daarheen.png,images/cb_daarheen.png,0,,,,,,,,,,,,,,,,,,,,,,
,,,,,55891,2023-09-27_08h50.33.852,vbt_B1_day4,2022.2.4,Win32,59.95563283,55891,,,,,,down,0,0.2645,,0.551851908,-0.193518533,1,0,0,0,95,95,131,1,opzicht,images/br_opzicht.png,images/cb_opzicht.png,0,,,,,,,,,,,,,,,,,,,,,,
,,,,,55891,2023-09-27_08h50.33.852,vbt_B1_day4,2022.2.4,Win32,59.95563283,55891,,,,,,down,0,1.1935,,0.551851908,-0.193518533,1,0,0,0,96,96,26,1,leuk,images/br_leuk.png,images/cb_leuk.png,1,leuk,,,,,,,,,,,,,,,,,,,,,
,,,,,55891,2023-09-27_08h50.33.852,vbt_B1_day4,2022.2.4,Win32,59.95563283,55891,,,,,,down,0,0.4544,,0.551851908,-0.193518533,1,0,0,0,97,97,5,1,blad,images/br_blad.png,images/cb_blad.png,0,,,,,,,,,,,,,,,,,,,,,,
,,,,,55891,2023-09-27_08h50.33.852,vbt_B1_day4,2022.2.4,Win32,59.95563283,55891,,,,,,down,0,2.5063,,0.551851908,-0.193518533,1,0,0,0,98,98,87,1,toeval,images/br_toeval.png,images/cb_toeval.png,0,,,,,,,,,,,,,,,,,,,,,,
,,,,,55891,2023-09-27_08h50.33.852,vbt_B1_day4,2022.2.4,Win32,59.95563283,55891,,,,,,down,0,1.2169,,0.551851908,-0.193518533,1,0,0,0,99,99,44,1,flits,images/br_flits.png,images/cb_flits.png,0,,,,,,,,,,,,,,,,,,,,,,
,,,,,55891,2023-09-27_08h50.33.852,vbt_B1_day4,2022.2.4,Win32,59.95563283,55891,,,,,,down,0,0.9255,,0.551851908,-0.193518533,1,0,0,0,100,100,51,1,samen,images/br_samen.png,images/cb_samen.png,0,,,,,,,,,,,,,,,,,,,,,,
,,,,,55891,2023-09-27_08h50.33.852,vbt_B1_day4,2022.2.4,Win32,59.95563283,55891,,,,,,down,0,2.7664,,0.551851908,-0.193518533,1,0,0,0,101,101,40,1,schep,images/br_schep.png,images/cb_schep.png,0,,,,,,,,,,,,,,,,,,,,,,
,,,,,55891,2023-09-27_08h50.33.852,vbt_B1_day4,2022.2.4,Win32,59.95563283,55891,,,,,,down,0,0.0846,,0.551851908,-0.203703704,1,0,0,0,102,102,178,1,huisdier,images/br_huisdier.png,images/cb_huisdier.png,0,,,,,,,,,,,,,,,,,,,,,,
,,,,,55891,2023-09-27_08h50.33.852,vbt_B1_day4,2022.2.4,Win32,59.95563283,55891,,,,,,down,0,1.839,,0.551851908,-0.203703704,1,0,0,0,103,103,37,1,mijn,images/br_mijn.png,images/cb_mijn.png,0,,,,,,,,,,,,,,,,,,,,,,
,,,,,55891,2023-09-27_08h50.33.852,vbt_B1_day4,2022.2.4,Win32,59.95563283,55891,,,,,,down,0,1.5355,,0.551851908,-0.205555598,1,0,0,0,104,104,189,1,aanraden,images/br_aanraden.png,images/cb_aanraden.png,0,,,,,,,,,,,,,,,,,,,,,,
,,,,,55891,2023-09-27_08h50.33.852,vbt_B1_day4,2022.2.4,Win32,59.95563283,55891,,,,,,down,0,2.9146,,0.551851908,-0.205555598,1,0,0,0,105,105,8,1,knie,images/br_knie.png,images/cb_knie.png,0,,,,,,,,,,,,,,,,,,,,,,
,,,,,55891,2023-09-27_08h50.33.852,vbt_B1_day4,2022.2.4,Win32,59.95563283,55891,,,,,,down,0,0.4614,,0.551851908,-0.205555598,1,0,0,0,106,106,141,1,knielen,images/br_knielen.png,images/cb_knielen.png,0,,,,,,,,,,,,,,,,,,,,,,
,,,,,55891,2023-09-27_08h50.33.852,vbt_B1_day4,2022.2.4,Win32,59.95563283,55891,,,,,,down,0,0.2248,,0.551851908,-0.205555598,1,0,0,0,107,107,149,1,redding,images/br_redding.png,images/cb_redding.png,0,,,,,,,,,,,,,,,,,,,,,,
,,,,,55891,2023-09-27_08h50.33.852,vbt_B1_day4,2022.2.4,Win32,59.95563283,55891,,,,,,down,0,0.2171,,0.551851908,-0.205555598,1,0,0,0,108,108,52,1,wagon,images/br_wagon.png,images/cb_wagon.png,0,,,,,,,,,,,,,,,,,,,,,,
,,,,,55891,2023-09-27_08h50.33.852,vbt_B1_day4,2022.2.4,Win32,59.95563283,55891,,,,,,down,0,2.4831,,0.551851908,-0.205555598,1,0,0,0,109,109,117,1,kennis,images/br_kennis.png,images/cb_kennis.png,0,,,,,,,,,,,,,,,,,,,,,,
,,,,,55891,2023-09-27_08h50.33.852,vbt_B1_day4,2022.2.4,Win32,59.95563283,55891,,,,,,down,0,1.9776,,0.551851908,-0.205555598,1,0,0,0,110,110,70,1,ijdel,images/br_ijdel.png,images/cb_ijdel.png,0,,,,,,,,,,,,,,,,,,,,,,
,,,,,55891,2023-09-27_08h50.33.852,vbt_B1_day4,2022.2.4,Win32,59.95563283,55891,,,,,,down,0,3.1481,,0.551851908,-0.205555598,1,0,0,0,111,111,21,1,mist,images/br_mist.png,images/cb_mist.png,0,,,,,,,,,,,,,,,,,,,,,,
,,,,,55891,2023-09-27_08h50.33.852,vbt_B1_day4,2022.2.4,Win32,59.95563283,55891,,,,,,down,0,0.8281,,0.551851908,-0.205555598,1,0,0,0,112,112,79,1,nodig,images/br_nodig.png,images/cb_nodig.png,0,,,,,,,,,,,,,,,,,,,,,,
,,,,,55891,2023-09-27_08h50.33.852,vbt_B1_day4,2022.2.4,Win32,59.95563283,55891,,,,,,down,0,0.3198,,0.551851908,-0.205555598,1,0,0,0,113,113,194,1,driemaal,images/br_driemaal.png,images/cb_driemaal.png,0,,,,,,,,,,,,,,,,,,,,,,
,,,,,55891,2023-09-27_08h50.33.852,vbt_B1_day4,2022.2.4,Win32,59.95563283,55891,,,,,,down,0,2.7331,,0.551851908,-0.205555598,1,0,0,0,114,114,94,1,oceaan,images/br_oceaan.png,images/cb_oceaan.png,0,,,,,,,,,,,,,,,,,,,,,,
,,,,,55891,2023-09-27_08h50.33.852,vbt_B1_day4,2022.2.4,Win32,59.95563283,55891,,,,,,down,0,0.3722,,0.551851908,-0.205555598,1,0,0,0,115,115,97,1,loyaal,images/br_loyaal.png,images/cb_loyaal.png,0,,,,,,,,,,,,,,,,,,,,,,
,,,,,55891,2023-09-27_08h50.33.852,vbt_B1_day4,2022.2.4,Win32,59.95563283,55891,,,,,,down,0,1.4001,,0.551851908,-0.205555598,1,0,0,0,116,116,112,1,lukken,images/br_lukken.png,images/cb_lukken.png,0,,,,,,,,,,,,,,,,,,,,,,
,,,,,55891,2023-09-27_08h50.33.852,vbt_B1_day4,2022.2.4,Win32,59.95563283,55891,,,,,,down,0,0.3253,,0.551851908,-0.205555598,1,0,0,0,117,117,12,1,kust,images/br_kust.png,images/cb_kust.png,0,,,,,,,,,,,,,,,,,,,,,,
,,,,,55891,2023-09-27_08h50.33.852,vbt_B1_day4,2022.2.4,Win32,59.95563283,55891,,,,,,down,0,0.5966,,0.551851908,-0.205555598,1,0,0,0,118,118,157,1,uitlaat,images/br_uitlaat.png,images/cb_uitlaat.png,0,,,,,,,,,,,,,,,,,,,,,,
,,,,,55891,2023-09-27_08h50.33.852,vbt_B1_day4,2022.2.4,Win32,59.95563283,55891,,,,,,down,0,2.8603,,0.551851908,-0.205555598,1,0,0,0,119,119,150,1,gegeven,images/br_gegeven.png,images/cb_gegeven.png,0,,,,,,,,,,,,,,,,,,,,,,
,,,,,55891,2023-09-27_08h50.33.852,vbt_B1_day4,2022.2.4,Win32,59.95563283,55891,,,,,,down,0,5.6633,,0.551851908,-0.205555598,1,0,0,0,120,120,137,1,trekker,images/br_trekker.png,images/cb_trekker.png,0,,,,,,,,,,,,,,,,,,,,,,
,,,,,55891,2023-09-27_08h50.33.852,vbt_B1_day4,2022.2.4,Win32,59.95563283,55891,,,,,,down,0,0.0261,,0.551851908,-0.205555598,1,0,0,0,121,121,168,1,bisschop,images/br_bisschop.png,images/cb_bisschop.png,0,,,,,,,,,,,,,,,,,,,,,,
,,,,,55891,2023-09-27_08h50.33.852,vbt_B1_day4,2022.2.4,Win32,59.95563283,55891,,,,,,down,0,0.3774,,0.551851908,-0.205555598,1,0,0,0,122,122,46,1,jagen,images/br_jagen.png,images/cb_jagen.png,0,,,,,,,,,,,,,,,,,,,,,,
,,,,,55891,2023-09-27_08h50.33.852,vbt_B1_day4,2022.2.4,Win32,59.95563283,55891,,,,,,down,0,10.9806,,0.534259231,-0.215740769,1,0,0,0,123,123,91,1,gezond,images/br_gezond.png,images/cb_gezond.png,0,,,,,,,,,,,,,,,,,,,,,,
,,,,,55891,2023-09-27_08h50.33.852,vbt_B1_day4,2022.2.4,Win32,59.95563283,55891,,,,,,down,0,3.7632,,0.534259231,-0.215740769,1,0,0,0,124,124,98,1,kreeft,images/br_kreeft.png,images/cb_kreeft.png,0,,,,,,,,,,,,,,,,,,,,,,
,,,,,55891,2023-09-27_08h50.33.852,vbt_B1_day4,2022.2.4,Win32,59.95563283,55891,,,,,,down,0,3.82,,0.534259231,-0.215740769,1,0,0,0,125,125,110,1,zuster,images/br_zuster.png,images/cb_zuster.png,0,,,,,,,,,,,,,,,,,,,,,,
,,,,,55891,2023-09-27_08h50.33.852,vbt_B1_day4,2022.2.4,Win32,59.95563283,55891,,,,,,down,0,2.9454,,0.534259231,-0.215740769,1,0,0,0,126,126,128,1,prikken,images/br_prikken.png,images/cb_prikken.png,0,,,,,,,,,,,,,,,,,,,,,,
,,,,,55891,2023-09-27_08h50.33.852,vbt_B1_day4,2022.2.4,Win32,59.95563283,55891,,,,,,down,0,1.6105,,0.534259231,-0.215740769,1,0,0,0,127,127,132,1,grappen,images/br_grappen.png,images/cb_grappen.png,0,,,,,,,,,,,,,,,,,,,,,,
,,,,,55891,2023-09-27_08h50.33.852,vbt_B1_day4,2022.2.4,Win32,59.95563283,55891,,,,,,down,0,0.5296,,0.534259231,-0.215740769,1,0,0,0,128,128,154,1,aflopen,images/br_aflopen.png,images/cb_aflopen.png,0,,,,,,,,,,,,,,,,,,,,,,
,,,,,55891,2023-09-27_08h50.33.852,vbt_B1_day4,2022.2.4,Win32,59.95563283,55891,,,,,,down,0,24.4183,,0.534259231,-0.215740769,1,0,0,0,129,129,187,1,opkijken,images/br_opkijken.png,images/cb_opkijken.png,1,opkijken,,,,,,,,,,,,,,,,,,,,,
,,,,,55891,2023-09-27_08h50.33.852,vbt_B1_day4,2022.2.4,Win32,59.95563283,55891,,,,,,down,0,2.1501,,0.534259231,-0.215740769,1,0,0,0,130,130,123,1,hiervan,images/br_hiervan.png,images/cb_hiervan.png,0,,,,,,,,,,,,,,,,,,,,,,
,,,,,55891,2023-09-27_08h50.33.852,vbt_B1_day4,2022.2.4,Win32,59.95563283,55891,,,,,,down,0,7.9589,,0.534259231,-0.215740769,1,0,0,0,131,131,80,1,kanjer,images/br_kanjer.png,images/cb_kanjer.png,0,,,,,,,,,,,,,,,,,,,,,,
,,,,,55891,2023-09-27_08h50.33.852,vbt_B1_day4,2022.2.4,Win32,59.95563283,55891,,,,,,down,0,0.6109,,0.534259231,-0.215740769,1,0,0,0,132,132,43,1,klauw,images/br_klauw.png,images/cb_klauw.png,0,,,,,,,,,,,,,,,,,,,,,,
,,,,,55891,2023-09-27_08h50.33.852,vbt_B1_day4,2022.2.4,Win32,59.95563283,55891,,,,,,down,0,5.9638,,0.534259231,-0.215740769,1,0,0,0,133,133,31,1,poes,images/br_poes.png,images/cb_poes.png,0,,,,,,,,,,,,,,,,,,,,,,
,,,,,55891,2023-09-27_08h50.33.852,vbt_B1_day4,2022.2.4,Win32,59.95563283,55891,,,,,,down,0,0.0391,,0.534259231,-0.215740769,1,0,0,0,134,134,17,1,taal,images/br_taal.png,images/cb_taal.png,0,,,,,,,,,,,,,,,,,,,,,,
,,,,,55891,2023-09-27_08h50.33.852,vbt_B1_day4,2022.2.4,Win32,59.95563283,55891,,,,,,down,0,9.0393,,0.534259231,-0.215740769,1,0,0,0,135,135,191,1,opheffen,images/br_opheffen.png,images/cb_opheffen.png,0,,,,,,,,,,,,,,,,,,,,,,
,,,,,55891,2023-09-27_08h50.33.852,vbt_B1_day4,2022.2.4,Win32,59.95563283,55891,,,,,,down,0,1.4302,,0.534259231,-0.215740769,1,0,0,0,136,136,105,1,wijlen,images/br_wijlen.png,images/cb_wijlen.png,1,wijlen,,,,,,,,,,,,,,,,,,,,,
,,,,,55891,2023-09-27_08h50.33.852,vbt_B1_day4,2022.2.4,Win32,59.95563283,55891,,,,,,down,0,0.1508,,0.534259231,-0.217592593,1,0,0,0,137,137,2,1,jaar,images/br_jaar.png,images/cb_jaar.png,0,,,,,,,,,,,,,,,,,,,,,,
,,,,,55891,2023-09-27_08h50.33.852,vbt_B1_day4,2022.2.4,Win32,59.95563283,55891,,,,,,down,0,0.4002,,0.534259231,-0.217592593,1,0,0,0,138,138,0,1,slak,images/br_slak.png,images/cb_slak.png,0,,,,,,,,,,,,,,,,,,,,,,
,,,,,55891,2023-09-27_08h50.33.852,vbt_B1_day4,2022.2.4,Win32,59.95563283,55891,,,,,,down,0,3.122,,0.534259231,-0.217592593,1,0,0,0,139,139,125,1,aanzien,images/br_aanzien.png,images/cb_aanzien.png,0,,,,,,,,,,,,,,,,,,,,,,
,,,,,55891,2023-09-27_08h50.33.852,vbt_B1_day4,2022.2.4,Win32,59.95563283,55891,,,,,,down,0,4.2675,,0.534259231,-0.217592593,1,0,0,0,140,140,196,1,nakijken,images/br_nakijken.png,images/cb_nakijken.png,0,,,,,,,,,,,,,,,,,,,,,,
,,,,,55891,2023-09-27_08h50.33.852,vbt_B1_day4,2022.2.4,Win32,59.95563283,55891,,,,,,down,0,5.9009,,0.534259231,-0.217592593,1,0,0,0,141,141,126,1,kasteel,images/br_kasteel.png,images/cb_kasteel.png,0,,,,,,,,,,,,,,,,,,,,,,
,,,,,55891,2023-09-27_08h50.33.852,vbt_B1_day4,2022.2.4,Win32,59.95563283,55891,,,,,,down,0,3.8271,,0.534259231,-0.217592593,1,0,0,0,142,142,84,1,lokken,images/br_lokken.png,images/cb_lokken.png,0,,,,,,,,,,,,,,,,,,,,,,
,,,,,55891,2023-09-27_08h50.33.852,vbt_B1_day4,2022.2.4,Win32,59.95563283,55891,,,,,,down,0,0.4416,,0.534259231,-0.217592593,1,0,0,0,143,143,155,1,gerucht,images/br_gerucht.png,images/cb_gerucht.png,0,,,,,,,,,,,,,,,,,,,,,,
,,,,,55891,2023-09-27_08h50.33.852,vbt_B1_day4,2022.2.4,Win32,59.95563283,55891,,,,,,down,0,0.3515,,0.534259231,-0.217592593,1,0,0,0,144,144,151,1,aanzoek,images/br_aanzoek.png,images/cb_aanzoek.png,0,,,,,,,,,,,,,,,,,,,,,,
,,,,,55891,2023-09-27_08h50.33.852,vbt_B1_day4,2022.2.4,Win32,59.95563283,55891,,,,,,down,0,0.6516,,0.534259231,-0.217592593,1,0,0,0,145,145,133,1,seizoen,images/br_seizoen.png,images/cb_seizoen.png,0,,,,,,,,,,,,,,,,,,,,,,
,,,,,55891,2023-09-27_08h50.33.852,vbt_B1_day4,2022.2.4,Win32,59.95563283,55891,,,,,,down,0,0.3411,,0.534259231,-0.217592593,1,0,0,0,146,146,76,1,afval,images/br_afval.png,images/cb_afval.png,0,,,,,,,,,,,,,,,,,,,,,,
,,,,,55891,2023-09-27_08h50.33.852,vbt_B1_day4,2022.2.4,Win32,59.95563283,55891,,,,,,down,0,2.6436,,0.534259231,-0.217592593,1,0,0,0,147,147,135,1,gedicht,images/br_gedicht.png,images/cb_gedicht.png,0,,,,,,,,,,,,,,,,,,,,,,
,,,,,55891,2023-09-27_08h50.33.852,vbt_B1_day4,2022.2.4,Win32,59.95563283,55891,,,,,,down,0,1.2696,,0.534259231,-0.217592593,1,0,0,0,148,148,152,1,afnemen,images/br_afnemen.png,images/cb_afnemen.png,0,,,,,,,,,,,,,,,,,,,,,,
,,,,,55891,2023-09-27_08h50.33.852,vbt_B1_day4,2022.2.4,Win32,59.95563283,55891,,,,,,down,0,2.1679,,0.534259231,-0.217592593,1,0,0,0,149,149,181,1,toegeven,images/br_toegeven.png,images/cb_toegeven.png,0,,,,,,,,,,,,,,,,,,,,,,
,,,,,55891,2023-09-27_08h50.33.852,vbt_B1_day4,2022.2.4,Win32,59.95563283,55891,,,,,,down,0,0.6166,,0.534259231,-0.217592593,1,0,0,0,150,150,114,1,vullen,images/br_vullen.png,images/cb_vullen.png,0,,,,,,,,,,,,,,,,,,,,,,
,,,,,55891,2023-09-27_08h50.33.852,vbt_B1_day4,2022.2.4,Win32,59.95563283,55891,,,,,,down,0,0.3009,,0.534259231,-0.217592593,1,0,0,0,151,151,19,1,geit,images/br_geit.png,images/cb_geit.png,0,,,,,,,,,,,,,,,,,,,,,,
,,,,,55891,2023-09-27_08h50.33.852,vbt_B1_day4,2022.2.4,Win32,59.95563283,55891,,,,,,down,0,0.9172,,0.534259231,-0.217592593,1,0,0,0,152,152,127,1,doodmoe,images/br_doodmoe.png,images/cb_doodmoe.png,0,,,,,,,,,,,,,,,,,,,,,,
,,,,,55891,2023-09-27_08h50.33.852,vbt_B1_day4,2022.2.4,Win32,59.95563283,55891,,,,,,down,0,2.6505,,0.534259231,-0.217592593,1,0,0,0,153,153,63,1,flirt,images/br_flirt.png,images/cb_flirt.png,0,,,,,,,,,,,,,,,,,,,,,,
,,,,,55891,2023-09-27_08h50.33.852,vbt_B1_day4,2022.2.4,Win32,59.95563283,55891,,,,,,down,0,1.0975,,0.534259231,-0.217592593,1,0,0,0,154,154,95,1,vreten,images/br_vreten.png,images/cb_vreten.png,0,,,,,,,,,,,,,,,,,,,,,,
,,,,,55891,2023-09-27_08h50.33.852,vbt_B1_day4,2022.2.4,Win32,59.95563283,55891,,,,,,down,0,1.3497,,0.534259231,-0.217592593,1,0,0,0,155,155,159,1,sufferd,images/br_sufferd.png,images/cb_sufferd.png,0,,,,,,,,,,,,,,,,,,,,,,
,,,,,55891,2023-09-27_08h50.33.852,vbt_B1_day4,2022.2.4,Win32,59.95563283,55891,,,,,,down,0,6.7993,,0.534259231,-0.217592593,1,0,0,0,156,156,166,1,strikken,images/br_strikken.png,images/cb_strikken.png,0,,,,,,,,,,,,,,,,,,,,,,
,,,,,55891,2023-09-27_08h50.33.852,vbt_B1_day4,2022.2.4,Win32,59.95563283,55891,,,,,,down,0,0.0875,,0.534259231,-0.217592593,1,0,0,0,157,157,170,1,schatten,images/br_schatten.png,images/cb_schatten.png,0,,,,,,,,,,,,,,,,,,,,,,
,,,,,55891,2023-09-27_08h50.33.852,vbt_B1_day4,2022.2.4,Win32,59.95563283,55891,,,,,,down,0,0.372,,0.534259231,-0.217592593,1,0,0,0,158,158,54,1,gebit,images/br_gebit.png,images/cb_gebit.png,0,,,,,,,,,,,,,,,,,,,,,,
,,,,,55891,2023-09-27_08h50.33.852,vbt_B1_day4,2022.2.4,Win32,59.95563283,55891,,,,,,down,0,5.2763,,0.534259231,-0.217592593,1,0,0,0,159,159,64,1,wegen,images/br_wegen.png,images/cb_wegen.png,1,wegen,,,,,,,,,,,,,,,,,,,,,
,,,,,55891,2023-09-27_08h50.33.852,vbt_B1_day4,2022.2.4,Win32,59.95563283,55891,,,,,,down,0,1.4391,,0.534259231,-0.217592593,1,0,0,0,160,160,182,1,bijkomen,images/br_bijkomen.png,images/cb_bijkomen.png,0,,,,,,,,,,,,,,,,,,,,,,
,,,,,55891,2023-09-27_08h50.33.852,vbt_B1_day4,2022.2.4,Win32,59.95563283,55891,,,,,,down,0,0.2039,,0.534259231,-0.217592593,1,0,0,0,161,161,1,1,zaal,images/br_zaal.png,images/cb_zaal.png,0,,,,,,,,,,,,,,,,,,,,,,
,,,,,55891,2023-09-27_08h50.33.852,vbt_B1_day4,2022.2.4,Win32,59.95563283,55891,,,,,,down,0,0.2558,,0.534259231,-0.217592593,1,0,0,0,162,162,55,1,praat,images/br_praat.png,images/cb_praat.png,0,,,,,,,,,,,,,,,,,,,,,,
,,,,,55891,2023-09-27_08h50.33.852,vbt_B1_day4,2022.2.4,Win32,59.95563283,55891,,,,,,down,0,0.1304,,0.534259231,-0.217592593,1,0,0,0,163,163,103,1,joggen,images/br_joggen.png,images/cb_joggen.png,0,,,,,,,,,,,,,,,,,,,,,,
,,,,,55891,2023-09-27_08h50.33.852,vbt_B1_day4,2022.2.4,Win32,59.95563283,55891,,,,,,down,0,1.1917,,0.534259231,-0.217592593,1,0,0,0,164,164,96,1,slagen,images/br_slagen.png,images/cb_slagen.png,0,,,,,,,,,,,,,,,,,,,,,,
,,,,,55891,2023-09-27_08h50.33.852,vbt_B1_day4,2022.2.4,Win32,59.95563283,55891,,,,,,down,0,1.3514,,0.534259231,-0.217592593,1,0,0,0,165,165,115,1,kleren,images/br_kleren.png,images/cb_kleren.png,0,,,,,,,,,,,,,,,,,,,,,,
,,,,,55891,2023-09-27_08h50.33.852,vbt_B1_day4,2022.2.4,Win32,59.95563283,55891,,,,,,down,0,1.2558,,0.534259231,-0.217592593,1,0,0,0,166,166,71,1,bever,images/br_bever.png,images/cb_bever.png,0,,,,,,,,,,,,,,,,,,,,,,
,,,,,55891,2023-09-27_08h50.33.852,vbt_B1_day4,2022.2.4,Win32,59.95563283,55891,,,,,,down,0,4.6056,,0.534259231,-0.217592593,1,0,0,0,167,167,111,1,ticket,images/br_ticket.png,images/cb_ticket.png,0,,,,,,,,,,,,,,,,,,,,,,
,,,,,55891,2023-09-27_08h50.33.852,vbt_B1_day4,2022.2.4,Win32,59.95563283,55891,,,,,,down,0,2.1459,,0.534259231,-0.217592593,1,0,0,0,168,168,122,1,waarvan,images/br_waarvan.png,images/cb_waarvan.png,0,,,,,,,,,,,,,,,,,,,,,,
,,,,,55891,2023-09-27_08h50.33.852,vbt_B1_day4,2022.2.4,Win32,59.95563283,55891,,,,,,down,0,1.2958,,0.534259231,-0.217592593,1,0,0,0,169,169,68,1,schat,images/br_schat.png,images/cb_schat.png,0,,,,,,,,,,,,,,,,,,,,,,
,,,,,55891,2023-09-27_08h50.33.852,vbt_B1_day4,2022.2.4,Win32,59.95563283,55891,,,,,,down,0,0.4604,,0.534259231,-0.217592593,1,0,0,0,170,170,175,1,heengaan,images/br_heengaan.png,images/cb_heengaan.png,0,,,,,,,,,,,,,,,,,,,,,,
,,,,,55891,2023-09-27_08h50.33.852,vbt_B1_day4,2022.2.4,Win32,59.95563283,55891,,,,,,down,0,0.1833,,0.534259231,-0.217592593,1,0,0,0,171,171,58,1,tekst,images/br_tekst.png,images/cb_tekst.png,0,,,,,,,,,,,,,,,,,,,,,,
,,,,,55891,2023-09-27_08h50.33.852,vbt_B1_day4,2022.2.4,Win32,59.95563283,55891,,,,,,down,0,0.2412,,0.534259231,-0.217592593,1,0,0,0,172,172,176,1,techniek,images/br_techniek.png,images/cb_techniek.png,0,,,,,,,,,,,,,,,,,,,,,,
,,,,,55891,2023-09-27_08h50.33.852,vbt_B1_day4,2022.2.4,Win32,59.95563283,55891,,,,,,down,0,1.7553,,0.534259231,-0.217592593,1,0,0,0,173,173,172,1,weigeren,images/br_weigeren.png,images/cb_weigeren.png,0,,,,,,,,,,,,,,,,,,,,,,
,,,,,55891,2023-09-27_08h50.33.852,vbt_B1_day4,2022.2.4,Win32,59.95563283,55891,,,,,,down,0,4.343,,0.534259231,-0.217592593,1,0,0,0,174,174,48,1,steel,images/br_steel.png,images/cb_steel.png,0,,,,,,,,,,,,,,,,,,,,,,
,,,,,55891,2023-09-27_08h50.33.852,vbt_B1_day4,2022.2.4,Win32,59.95563283,55891,,,,,,down,0,0.3544,,0.534259231,-0.217592593,1,0,0,0,175,175,192,1,schaamte,images/br_schaamte.png,images/cb_schaamte.png,0,,,,,,,,,,,,,,,,,,,,,,
,,,,,55891,2023-09-27_08h50.33.852,vbt_B1_day4,2022.2.4,Win32,59.95563283,55891,,,,,,down,0,0.3876,,0.534259231,-0.217592593,1,0,0,0,176,176,78,1,leren,images/br_leren.png,images/cb_leren.png,0,,,,,,,,,,,,,,,,,,,,,,
,,,,,55891,2023-09-27_08h50.33.852,vbt_B1_day4,2022.2.4,Win32,59.95563283,55891,,,,,,down,0,6.9945,,0.534259231,-0.217592593,1,0,0,0,177,177,74,1,graaf,images/br_graaf.png,images/cb_graaf.png,0,,,,,,,,,,,,,,,,,,,,,,
,,,,,55891,2023-09-27_08h50.33.852,vbt_B1_day4,2022.2.4,Win32,59.95563283,55891,,,,,,down,0,0.5547,,0.541666667,-0.220370399,1,0,0,0,178,178,165,1,feestdag,images/br_feestdag.png,images/cb_feestdag.png,0,,,,,,,,,,,,,,,,,,,,,,
,,,,,55891,2023-09-27_08h50.33.852,vbt_B1_day4,2022.2.4,Win32,59.95563283,55891,,,,,,down,0,10.1994,,0.541666667,-0.220370399,1,0,0,0,179,179,186,1,voorraad,images/br_voorraad.png,images/cb_voorraad.png,1,voorraad,,,,,,,,,,,,,,,,,,,,,
,,,,,55891,2023-09-27_08h50.33.852,vbt_B1_day4,2022.2.4,Win32,59.95563283,55891,,,,,,down,0,10.707,,0.541666667,-0.220370399,1,0,0,0,180,180,85,1,heilig,images/br_heilig.png,images/cb_heilig.png,0,,,,,,,,,,,,,,,,,,,,,,
,,,,,55891,2023-09-27_08h50.33.852,vbt_B1_day4,2022.2.4,Win32,59.95563283,55891,,,,,,down,0,0.2723,,0.541666667,-0.220370399,1,0,0,0,181,181,116,1,besmet,images/br_besmet.png,images/cb_besmet.png,0,,,,,,,,,,,,,,,,,,,,,,
,,,,,55891,2023-09-27_08h50.33.852,vbt_B1_day4,2022.2.4,Win32,59.95563283,55891,,,,,,down,0,2.0508,,0.541666667,-0.220370399,1,0,0,0,182,182,86,1,woning,images/br_woning.png,images/cb_woning.png,0,,,,,,,,,,,,,,,,,,,,,,
,,,,,55891,2023-09-27_08h50.33.852,vbt_B1_day4,2022.2.4,Win32,59.95563283,55891,,,,,,down,0,12.3524,,0.541666667,-0.220370399,1,0,0,0,183,183,184,1,aandelen,images/br_aandelen.png,images/cb_aandelen.png,1,aandelen,,,,,,,,,,,,,,,,,,,,,
,,,,,55891,2023-09-27_08h50.33.852,vbt_B1_day4,2022.2.4,Win32,59.95563283,55891,,,,,,down,0,14.4668,,0.541666667,-0.220370399,1,0,0,0,184,184,35,1,lust,images/br_lust.png,images/cb_lust.png,0,,,,,,,,,,,,,,,,,,,,,,
,,,,,55891,2023-09-27_08h50.33.852,vbt_B1_day4,2022.2.4,Win32,59.95563283,55891,,,,,,down,0,5.2267,,0.541666667,-0.220370399,1,0,0,0,185,185,15,1,soda,images/br_soda.png,images/cb_soda.png,0,,,,,,,,,,,,,,,,,,,,,,
,,,,,55891,2023-09-27_08h50.33.852,vbt_B1_day4,2022.2.4,Win32,59.95563283,55891,,,,,,down,0,2.9791,,0.541666667,-0.220370399,1,0,0,0,186,186,90,1,geluid,images/br_geluid.png,images/cb_geluid.png,0,,,,,,,,,,,,,,,,,,,,,,
,,,,,55891,2023-09-27_08h50.33.852,vbt_B1_day4,2022.2.4,Win32,59.95563283,55891,,,,,,down,0,3.2563,,0.541666667,-0.220370399,1,0,0,0,187,187,20,1,site,images/br_site.png,images/cb_site.png,0,,,,,,,,,,,,,,,,,,,,,,
,,,,,55891,2023-09-27_08h50.33.852,vbt_B1_day4,2022.2.4,Win32,59.95563283,55891,,,,,,down,0,0.1162,,0.541666667,-0.220370399,1,0,0,0,188,188,89,1,slapen,images/br_slapen.png,images/cb_slapen.png,0,,,,,,,,,,,,,,,,,,,,,,
,,,,,55891,2023-09-27_08h50.33.852,vbt_B1_day4,2022.2.4,Win32,59.95563283,55891,,,,,,down,0,2.4556,,0.541666667,-0.220370399,1,0,0,0,189,189,199,1,beseffen,images/br_beseffen.png,images/cb_beseffen.png,0,,,,,,,,,,,,,,,,,,,,,,
,,,,,55891,2023-09-27_08h50.33.852,vbt_B1_day4,2022.2.4,Win32,59.95563283,55891,,,,,,down,0,1.6663,,0.541666667,-0.220370399,1,0,0,0,190,190,92,1,geheim,images/br_geheim.png,images/cb_geheim.png,0,,,,,,,,,,,,,,,,,,,,,,
,,,,,55891,2023-09-27_08h50.33.852,vbt_B1_day4,2022.2.4,Win32,59.95563283,55891,,,,,,down,0,21.243,,0.541666667,-0.220370399,1,0,0,0,191,191,13,1,kaal,images/br_kaal.png,images/cb_kaal.png,0,,,,,,,,,,,,,,,,,,,,,,
,,,,,55891,2023-09-27_08h50.33.852,vbt_B1_day4,2022.2.4,Win32,59.95563283,55891,,,,,,down,0,7.5561,,0.541666667,-0.220370399,1,0,0,0,192,192,11,1,mode,images/br_mode.png,images/cb_mode.png,0,,,,,,,,,,,,,,,,,,,,,,
,,,,,55891,2023-09-27_08h50.33.852,vbt_B1_day4,2022.2.4,Win32,59.95563283,55891,,,,,,down,0,1.2245,,0.541666667,-0.220370399,1,0,0,0,193,193,61,1,groen,images/br_groen.png,images/cb_groen.png,0,,,,,,,,,,,,,,,,,,,,,,
,,,,,55891,2023-09-27_08h50.33.852,vbt_B1_day4,2022.2.4,Win32,59.95563283,55891,,,,,,down,0,1.1693,,0.541666667,-0.220370399,1,0,0,0,194,194,3,1,mand,images/br_mand.png,images/cb_mand.png,0,,,,,,,,,,,,,,,,,,,,,,
,,,,,55891,2023-09-27_08h50.33.852,vbt_B1_day4,2022.2.4,Win32,59.95563283,55891,,,,,,down,0,0.0563,,0.541666667,-0.220370399,1,0,0,0,195,195,153,1,vervoer,images/br_vervoer.png,images/cb_vervoer.png,0,,,,,,,,,,,,,,,,,,,,,,
,,,,,55891,2023-09-27_08h50.33.852,vbt_B1_day4,2022.2.4,Win32,59.95563283,55891,,,,,,down,0,0.5597,,0.541666667,-0.220370399,1,0,0,0,196,196,161,1,attentie,images/br_attentie.png,images/cb_attentie.png,0,,,,,,,,,,,,,,,,,,,,,,
,,,,,55891,2023-09-27_08h50.33.852,vbt_B1_day4,2022.2.4,Win32,59.95563283,55891,,,,,,down,0,1.9498,,0.541666667,-0.220370399,1,0,0,0,197,197,142,1,snuiven,images/br_snuiven.png,images/cb_snuiven.png,0,,,,,,,,,,,,,,,,,,,,,,
,,,,,55891,2023-09-27_08h50.33.852,vbt_B1_day4,2022.2.4,Win32,59.95563283,55891,,,,,,down,0,6.917,,0.541666667,-0.220370399,1,0,0,0,198,198,29,1,baas,images/br_baas.png,images/cb_baas.png,0,,,,,,,,,,,,,,,,,,,,,,
,,,,,55891,2023-09-27_08h50.33.852,vbt_B1_day4,2022.2.4,Win32,59.95563283,55891,,,,,,down,0,1.1252,,0.541666667,-0.220370399,1,0,0,0,199,199,62,1,knaap,images/br_knaap.png,images/cb_knaap.png,0,,,,,,,,,,,,,,,,,,,,,,
,,,,,55891,2023-09-27_08h50.33.852,vbt_B1_day4,2022.2.4,Win32,59.95563283,55891,,,,,,,,,,,,,,,,,,,,,,,,,0.10555557,-0.222222222,1,0,0,,,,,,,,,,,,,,,,
,,,,,55891,2023-09-27_08h50.33.852,vbt_B1_day4,2022.2.4,Win32,59.95563283,55891,,,,,,,,,,,,,,,,,,,,,,,,,,,,,,0.10555557,-0.222222222,1,0,0,,,,,,,,,,,
,,,,,55891,2023-09-27_08h50.33.852,vbt_B1_day4,2022.2.4,Win32,59.95563283,55891,,,,,,,,,,,,,,,,,,,,zaalrijk,images/br_zaalrijk.png,images/cb_zaalrijk.png,,zaalr.,,,,,,,,,,,0.150000042,-0.304629644,1,0,0,zaalr.,0,0,0,37,1
,,,,,55891,2023-09-27_08h50.33.852,vbt_B1_day4,2022.2.4,Win32,59.95563283,55891,,,,,,,,,,,,,,,,,,,,gaan,images/br_gaan.png,images/cb_gaan.png,,gaan,,,,,,,,,,,0.150000042,-0.304629644,1,0,0,gaan,0,1,1,41,1
,,,,,55891,2023-09-27_08h50.33.852,vbt_B1_day4,2022.2.4,Win32,59.95563283,55891,,,,,,,,,,,,,,,,,,,,broodje,images/br_broodje.png,images/cb_broodje.png,,broo...,,,,,,,,,,,0.150000042,-0.304629644,1,0,0,broo...,0,2,2,55,1
,,,,,55891,2023-09-27_08h50.33.852,vbt_B1_day4,2022.2.4,Win32,59.95563283,55891,,,,,,,,,,,,,,,,,,,,dozijn,images/br_dozijn.png,images/cb_dozijn.png,,.oz.i.,,,,,,,,,,,0.150000042,-0.304629644,1,0,0,.oz.i.,0,3,3,48,1
,,,,,55891,2023-09-27_08h50.33.852,vbt_B1_day4,2022.2.4,Win32,59.95563283,55891,,,,,,,,,,,,,,,,,,,,toevol,images/br_toevol.png,images/cb_toevol.png,,toeval,,,,,,,,,,,0.150000042,-0.304629644,1,0,0,toeval,0,4,4,29,1
,,,,,55891,2023-09-27_08h50.33.852,vbt_B1_day4,2022.2.4,Win32,59.95563283,55891,,,,,,,,,,,,,,,,,,,,haza,images/br_haza.png,images/cb_haza.png,,.aza,,,,,,,,,,,0.150000042,-0.304629644,1,0,0,.aza,0,5,5,21,1
,,,,,55891,2023-09-27_08h50.33.852,vbt_B1_day4,2022.2.4,Win32,59.95563283,55891,,,,,,,,,,,,,,,,,,,,wagon,images/br_wagon.png,images/cb_wagon.png,,wagon,,,,,,,,,,,0.150000042,-0.304629644,1,0,0,wagon,0,6,6,4,1
,,,,,55891,2023-09-27_08h50.33.852,vbt_B1_day4,2022.2.4,Win32,59.95563283,55891,,,,,,,,,,,,,,,,,,,,tucket,images/br_tucket.png,images/cb_tucket.png,,tucket,,,,,,,,,,,0.150000042,-0.304629644,1,0,0,tucket,0,7,7,30,1
,,,,,55891,2023-09-27_08h50.33.852,vbt_B1_day4,2022.2.4,Win32,59.95563283,55891,,,,,,,,,,,,,,,,,,,,zwek,images/br_zwek.png,images/cb_zwek.png,,zw.,,,,,,,,,,,0.150000042,-0.304629644,1,0,0,zw.,0,8,8,20,1
,,,,,55891,2023-09-27_08h50.33.852,vbt_B1_day4,2022.2.4,Win32,59.95563283,55891,,,,,,,,,,,,,,,,,,,,getucht,images/br_getucht.png,images/cb_getucht.png,,getucht,,,,,,,,,,,0.150000042,-0.304629644,1,0,0,getucht,0,9,9,35,1
,,,,,55891,2023-09-27_08h50.33.852,vbt_B1_day4,2022.2.4,Win32,59.95563283,55891,,,,,,,,,,,,,,,,,,,,vreten,images/br_vreten.png,images/cb_vreten.png,,vreten,,,,,,,,,,,0.150000042,-0.304629644,1,0,0,vreten,0,10,10,11,1
,,,,,55891,2023-09-27_08h50.33.852,vbt_B1_day4,2022.2.4,Win32,59.95563283,55891,,,,,,,,,,,,,,,,,,,,fran,images/br_fran.png,images/cb_fran.png,,.ran,,,,,,,,,,,0.150000042,-0.304629644,1,0,0,.ran,0,11,11,22,1
,,,,,55891,2023-09-27_08h50.33.852,vbt_B1_day4,2022.2.4,Win32,59.95563283,55891,,,,,,,,,,,,,,,,,,,,steen,images/br_steen.png,images/cb_steen.png,,steen,,,,,,,,,,,0.150000042,-0.304629644,1,0,0,steen,0,12,12,44,1
,,,,,55891,2023-09-27_08h50.33.852,vbt_B1_day4,2022.2.4,Win32,59.95563283,55891,,,,,,,,,,,,,,,,,,,,mekst,images/br_mekst.png,images/cb_mekst.png,,mekst,,,,,,,,,,,0.150000042,-0.304629644,1,0,0,mekst,0,13,13,27,1
,,,,,55891,2023-09-27_08h50.33.852,vbt_B1_day4,2022.2.4,Win32,59.95563283,55891,,,,,,,,,,,,,,,,,,,,bruin,images/br_bruin.png,images/cb_bruin.png,,brui.,,,,,,,,,,,0.150000042,-0.304629644,1,0,0,brui.,0,14,14,45,1
,,,,,55891,2023-09-27_08h50.33.852,vbt_B1_day4,2022.2.4,Win32,59.95563283,55891,,,,,,,,,,,,,,,,,,,,schenden,images/br_schenden.png,images/cb_schenden.png,,schen.,,,,,,,,,,,0.150000042,-0.304629644,1,0,0,schen.,0,15,15,57,1
,,,,,55891,2023-09-27_08h50.33.852,vbt_B1_day4,2022.2.4,Win32,59.95563283,55891,,,,,,,,,,,,,,,,,,,,geheim,images/br_geheim.png,images/cb_geheim.png,,geheim,,,,,,,,,,,0.150000042,-0.304629644,1,0,0,geheim,0,16,16,8,1
,,,,,55891,2023-09-27_08h50.33.852,vbt_B1_day4,2022.2.4,Win32,59.95563283,55891,,,,,,,,,,,,,,,,,,,,kust,images/br_kust.png,images/cb_kust.png,,kust,,,,,,,,,,,0.150000042,-0.304629644,1,0,0,kust,0,17,17,0,1
,,,,,55891,2023-09-27_08h50.33.852,vbt_B1_day4,2022.2.4,Win32,59.95563283,55891,,,,,,,,,,,,,,,,,,,,noodzaak,images/br_noodzaak.png,images/cb_noodzaak.png,,noodzaak,,,,,,,,,,,0.150000042,-0.304629644,1,0,0,noodzaak,0,18,18,56,1
,,,,,55891,2023-09-27_08h50.33.852,vbt_B1_day4,2022.2.4,Win32,59.95563283,55891,,,,,,,,,,,,,,,,,,,,midden,images/br_midden.png,images/cb_midden.png,,mi.,,,,,,,,,,,0.150000042,-0.304629644,1,0,0,mi.,0,19,19,50,1
,,,,,55891,2023-09-27_08h50.33.852,vbt_B1_day4,2022.2.4,Win32,59.95563283,55891,,,,,,,,,,,,,,,,,,,,gedicht,images/br_gedicht.png,images/cb_gedicht.png,,ge.ib.t,,,,,,,,,,,0.150000042,-0.304629644,1,0,0,ge.ib.t,0,20,20,15,1
,,,,,55891,2023-09-27_08h50.33.852,vbt_B1_day4,2022.2.4,Win32,59.95563283,55891,,,,,,,,,,,,,,,,,,,,grappen,images/br_grappen.png,images/cb_grappen.png,,grappen,,,,,,,,,,,0.150000042,-0.304629644,1,0,0,grappen,0,21,21,12,1
,,,,,55891,2023-09-27_08h50.33.852,vbt_B1_day4,2022.2.4,Win32,59.95563283,55891,,,,,,,,,,,,,,,,,,,,snee,images/br_snee.png,images/cb_snee.png,,snee,,,,,,,,,,,0.150000042,-0.304629644,1,0,0,snee,0,22,22,40,1
,,,,,55891,2023-09-27_08h50.33.852,vbt_B1_day4,2022.2.4,Win32,59.95563283,55891,,,,,,,,,,,,,,,,,,,,gebit,images/br_gebit.png,images/cb_gebit.png,,gebit,,,,,,,,,,,0.150000042,-0.304629644,1,0,0,gebit,0,23,23,6,1
,,,,,55891,2023-09-27_08h50.33.852,vbt_B1_day4,2022.2.4,Win32,59.95563283,55891,,,,,,,,,,,,,,,,,,,,drooien,images/br_drooien.png,images/cb_drooien.png,,.rooien,,,,,,,,,,,0.150000042,-0.304629644,1,0,0,.rooien,0,24,24,32,1
,,,,,55891,2023-09-27_08h50.33.852,vbt_B1_day4,2022.2.4,Win32,59.95563283,55891,,,,,,,,,,,,,,,,,,,,drummer,images/br_drummer.png,images/cb_drummer.png,,drummer,,,,,,,,,,,0.150000042,-0.304629644,1,0,0,drummer,0,25,25,53,1
,,,,,55891,2023-09-27_08h50.33.852,vbt_B1_day4,2022.2.4,Win32,59.95563283,55891,,,,,,,,,,,,,,,,,,,,schotel,images/br_schotel.png,images/cb_schotel.png,,schotel,,,,,,,,,,,0.150000042,-0.304629644,1,0,0,schotel,0,26,26,52,1
,,,,,55891,2023-09-27_08h50.33.852,vbt_B1_day4,2022.2.4,Win32,59.95563283,55891,,,,,,,,,,,,,,,,,,,,stemming,images/br_stemming.png,images/cb_stemming.png,,stemming,,,,,,,,,,,0.150000042,-0.304629644,1,0,0,stemming,0,27,27,18,1
,,,,,55891,2023-09-27_08h50.33.852,vbt_B1_day4,2022.2.4,Win32,59.95563283,55891,,,,,,,,,,,,,,,,,,,,paalbaak,images/br_paalbaak.png,images/cb_paalbaak.png,,paalbaak,,,,,,,,,,,0.150000042,-0.304629644,1,0,0,paalbaak,0,28,28,39,1
,,,,,55891,2023-09-27_08h50.33.852,vbt_B1_day4,2022.2.4,Win32,59.95563283,55891,,,,,,,,,,,,,,,,,,,,pittig,images/br_pittig.png,images/cb_pittig.png,,pittig,,,,,,,,,,,0.150000042,-0.304629644,1,0,0,pittig,0,29,29,51,1
,,,,,55891,2023-09-27_08h50.33.852,vbt_B1_day4,2022.2.4,Win32,59.95563283,55891,,,,,,,,,,,,,,,,,,,,strok,images/br_strok.png,images/cb_strok.png,,strok,,,,,,,,,,,0.150000042,-0.304629644,1,0,0,strok,0,30,30,25,1
,,,,,55891,2023-09-27_08h50.33.852,vbt_B1_day4,2022.2.4,Win32,59.95563283,55891,,,,,,,,,,,,,,,,,,,,soda,images/br_soda.png,images/cb_soda.png,,soda,,,,,,,,,,,0.150000042,-0.304629644,1,0,0,soda,0,31,31,3,1
,,,,,55891,2023-09-27_08h50.33.852,vbt_B1_day4,2022.2.4,Win32,59.95563283,55891,,,,,,,,,,,,,,,,,,,,rijp,images/br_rijp.png,images/cb_rijp.png,,rijp,,,,,,,,,,,0.150000042,-0.304629644,1,0,0,rijp,0,32,32,2,1
,,,,,55891,2023-09-27_08h50.33.852,vbt_B1_day4,2022.2.4,Win32,59.95563283,55891,,,,,,,,,,,,,,,,,,,,heengaan,images/br_heengaan.png,images/cb_heengaan.png,,heengaan,,,,,,,,,,,0.150000042,-0.304629644,1,0,0,heengaan,0,33,33,19,1
,,,,,55891,2023-09-27_08h50.33.852,vbt_B1_day4,2022.2.4,Win32,59.95563283,55891,,,,,,,,,,,,,,,,,,,,bisschap,images/br_bisschap.png,images/cb_bisschap.png,,bisschop,,,,,,,,,,,0.150000042,-0.304629644,1,0,0,bisschop,0,34,34,36,1
,,,,,55891,2023-09-27_08h50.33.852,vbt_B1_day4,2022.2.4,Win32,59.95563283,55891,,,,,,,,,,,,,,,,,,,,warel,images/br_warel.png,images/cb_warel.png,,warel,,,,,,,,,,,0.150000042,-0.304629644,1,0,0,warel,0,35,35,26,1
,,,,,55891,2023-09-27_08h50.33.852,vbt_B1_day4,2022.2.4,Win32,59.95563283,55891,,,,,,,,,,,,,,,,,,,,oceaan,images/br_oceaan.png,images/cb_oceaan.png,,oceaan,,,,,,,,,,,0.150000042,-0.304629644,1,0,0,oceaan,0,36,36,10,1
,,,,,55891,2023-09-27_08h50.33.852,vbt_B1_day4,2022.2.4,Win32,59.95563283,55891,,,,,,,,,,,,,,,,,,,,geliefd,images/br_geliefd.png,images/cb_geliefd.png,,gelei.,,,,,,,,,,,0.150000042,-0.304629644,1,0,0,gelei.,0,37,37,14,1
,,,,,55891,2023-09-27_08h50.33.852,vbt_B1_day4,2022.2.4,Win32,59.95563283,55891,,,,,,,,,,,,,,,,,,,,baron,images/br_baron.png,images/cb_baron.png,,baron,,,,,,,,,,,0.150000042,-0.304629644,1,0,0,baron,0,38,38,5,1
,,,,,55891,2023-09-27_08h50.33.852,vbt_B1_day4,2022.2.4,Win32,59.95563283,55891,,,,,,,,,,,,,,,,,,,,praat,images/br_praat.png,images/cb_praat.png,,praat,,,,,,,,,,,0.150000042,-0.304629644,1,0,0,praat,0,39,39,7,1
,,,,,55891,2023-09-27_08h50.33.852,vbt_B1_day4,2022.2.4,Win32,59.95563283,55891,,,,,,,,,,,,,,,,,,,,eerst,images/br_eerst.png,images/cb_eerst.png,,eerst,,,,,,,,,,,0.150000042,-0.304629644,1,0,0,eerst,0,40,40,47,1
,,,,,55891,2023-09-27_08h50.33.852,vbt_B1_day4,2022.2.4,Win32,59.95563283,55891,,,,,,,,,,,,,,,,,,,,waarop,images/br_waarop.png,images/cb_waarop.png,,waarop,,,,,,,,,,,0.150000042,-0.304629644,1,0,0,waarop,0,41,41,9,1
,,,,,55891,2023-09-27_08h50.33.852,vbt_B1_day4,2022.2.4,Win32,59.95563283,55891,,,,,,,,,,,,,,,,,,,,gaaf,images/br_gaaf.png,images/cb_gaaf.png,,gaa.,,,,,,,,,,,0.150000042,-0.304629644,1,0,0,gaa.,0,42,42,43,1
,,,,,55891,2023-09-27_08h50.33.852,vbt_B1_day4,2022.2.4,Win32,59.95563283,55891,,,,,,,,,,,,,,,,,,,,lappen,images/br_lappen.png,images/cb_lappen.png,,lappen,,,,,,,,,,,0.150000042,-0.304629644,1,0,0,lappen,0,43,43,49,1
,,,,,55891,2023-09-27_08h50.33.852,vbt_B1_day4,2022.2.4,Win32,59.95563283,55891,,,,,,,,,,,,,,,,,,,,kaal,images/br_kaal.png,images/cb_kaal.png,,kaal,,,,,,,,,,,0.150000042,-0.304629644,1,0,0,kaal,0,44,44,1,1
,,,,,55891,2023-09-27_08h50.33.852,vbt_B1_day4,2022.2.4,Win32,59.95563283,55891,,,,,,,,,,,,,,,,,,,,apparaat,images/br_apparaat.png,images/cb_apparaat.png,,apparaat,,,,,,,,,,,0.150000042,-0.304629644,1,0,0,apparaat,0,45,45,17,1
,,,,,55891,2023-09-27_08h50.33.852,vbt_B1_day4,2022.2.4,Win32,59.95563283,55891,,,,,,,,,,,,,,,,,,,,ezel,images/br_ezel.png,images/cb_ezel.png,,ezel,,,,,,,,,,,0.150000042,-0.304629644,1,0,0,ezel,0,46,46,42,1
,,,,,55891,2023-09-27_08h50.33.852,vbt_B1_day4,2022.2.4,Win32,59.95563283,55891,,,,,,,,,,,,,,,,,,,,wozing,images/br_wozing.png,images/cb_wozing.png,,wozi.,,,,,,,,,,,0.150000042,-0.304629644,1,0,0,wozi.,0,47,47,28,1
,,,,,55891,2023-09-27_08h50.33.852,vbt_B1_day4,2022.2.4,Win32,59.95563283,55891,,,,,,,,,,,,,,,,,,,,opkicht,images/br_opkicht.png,images/cb_opkicht.png,,opkib.,,,,,,,,,,,0.150000042,-0.304629644,1,0,0,opkib.,0,48,48,34,1
,,,,,55891,2023-09-27_08h50.33.852,vbt_B1_day4,2022.2.4,Win32,59.95563283,55891,,,,,,,,,,,,,,,,,,,,opruimen,images/br_opruimen.png,images/cb_opruimen.png,,oprui.,,,,,,,,,,,0.150000042,-0.304629644,1,0,0,oprui.,0,49,49,59,1
,,,,,55891,2023-09-27_08h50.33.852,vbt_B1_day4,2022.2.4,Win32,59.95563283,55891,,,,,,,,,,,,,,,,,,,,dalen,images/br_dalen.png,images/cb_dalen.png,,falen,,,,,,,,,,,0.150000042,-0.304629644,1,0,0,falen,0,50,50,46,1
,,,,,55891,2023-09-27_08h50.33.852,vbt_B1_day4,2022.2.4,Win32,59.95563283,55891,,,,,,,,,,,,,,,,,,,,seizoon,images/br_seizoon.png,images/cb_seizoon.png,,seizoen,,,,,,,,,,,0.150000042,-0.304629644,1,0,0,seizoen,0,51,51,33,1
,,,,,55891,2023-09-27_08h50.33.852,vbt_B1_day4,2022.2.4,Win32,59.95563283,55891,,,,,,,,,,,,,,,,,,,,aanzwaag,images/br_aanzwaag.png,images/cb_aanzwaag.png,,aanzoe.g,,,,,,,,,,,0.150000042,-0.304629644,1,0,0,aanzoe.g,0,52,52,38,1
,,,,,55891,2023-09-27_08h50.33.852,vbt_B1_day4,2022.2.4,Win32,59.95563283,55891,,,,,,,,,,,,,,,,,,,,sulbon,images/br_sulbon.png,images/cb_sulbon.png,,sulbon,,,,,,,,,,,0.150000042,-0.304629644,1,0,0,sulbon,0,53,53,31,1
,,,,,55891,2023-09-27_08h50.33.852,vbt_B1_day4,2022.2.4,Win32,59.95563283,55891,,,,,,,,,,,,,,,,,,,,flippen,images/br_flippen.png,images/cb_flippen.png,,.lippen,,,,,,,,,,,0.150000042,-0.304629644,1,0,0,.lippen,0,54,54,54,1
,,,,,55891,2023-09-27_08h50.33.852,vbt_B1_day4,2022.2.4,Win32,59.95563283,55891,,,,,,,,,,,,,,,,,,,,gebog,images/br_gebog.png,images/cb_gebog.png,,gebog,,,,,,,,,,,0.150000042,-0.304629644,1,0,0,gebog,0,55,55,24,1
,,,,,55891,2023-09-27_08h50.33.852,vbt_B1_day4,2022.2.4,Win32,59.95563283,55891,,,,,,,,,,,,,,,,,,,,pijnlijk,images/br_pijnlijk.png,images/cb_pijnlijk.png,,pin.l.g,,,,,,,,,,,0.150000042,-0.304629644,1,0,0,pin.l.g,0,56,56,58,1
,,,,,55891,2023-09-27_08h50.33.852,vbt_B1_day4,2022.2.4,Win32,59.95563283,55891,,,,,,,,,,,,,,,,,,,,gijf,images/br_gijf.png,images/cb_gijf.png,,gi..,,,,,,,,,,,0.150000042,-0.304629644,1,0,0,gi..,0,57,57,23,1
,,,,,55891,2023-09-27_08h50.33.852,vbt_B1_day4,2022.2.4,Win32,59.95563283,55891,,,,,,,,,,,,,,,,,,,,seizoen,images/br_seizoen.png,images/cb_seizoen.png,,seizoen,,,,,,,,,,,0.150000042,-0.304629644,1,0,0,seizoen,0,58,58,13,1
,,,,,55891,2023-09-27_08h50.33.852,vbt_B1_day4,2022.2.4,Win32,59.95563283,55891,,,,,,,,,,,,,,,,,,,,weigeren,images/br_weigeren.png,images/cb_weigeren.png,,weigeren,,,,,,,,,,,0.150000042,-0.304629644,1,0,0,weigeren,0,59,59,16,1
,,,,,55891,2023-09-27_08h50.33.852,vbt_B1_day4,2022.2.4,Win32,59.95563283,55891,,,,,,,,,,,,,,,,,,,,,,,,,,,,,,,,,,,,,,,,,,,,,
