welcome_mouse.x,welcome_mouse.y,welcome_mouse.leftButton,welcome_mouse.midButton,welcome_mouse.rightButton,"ID",date,expName,psychopyVersion,OS,frameRate,trainInstr_mouse.x,trainInstr_mouse.y,trainInstr_mouse.leftButton,trainInstr_mouse.midButton,trainInstr_mouse.rightButton,translation_key.keys,translation_key.corr,translation_key.rt,testResp,word_rsp.text,trWrd_mouse.x,trWrd_mouse.y,trWrd_mouse.leftButton,trWrd_mouse.midButton,trWrd_mouse.rightButton,train_loop.thisRepN,train_loop.thisTrialN,train_loop.thisN,train_loop.thisIndex,train_loop.ran,nlWrd,brWrd,cbWrd,test,mouse.x,mouse.y,mouse.leftButton,mouse.midButton,mouse.rightButton,testInstr_mouse.x,testInstr_mouse.y,testInstr_mouse.leftButton,testInstr_mouse.midButton,testInstr_mouse.rightButton,test_mouse.x,test_mouse.y,test_mouse.leftButton,test_mouse.midButton,test_mouse.rightButton,test_response.text,test_loop.thisRepN,test_loop.thisTrialN,test_loop.thisN,test_loop.thisIndex,test_loop.ran
0.093518519,-0.19537037,1,0,0,00050,2023-10-13_09h00.17.602,vbt_B1_day4,2022.2.4,Win32,59.95563283,,,,,,,,,,,,,,,,,,,,,,,,,,,,,,,,,,,,,,,,,,,,,
,,,,,00050,2023-10-13_09h00.17.602,vbt_B1_day4,2022.2.4,Win32,59.95563283,0.106481481,-0.201851852,1,0,0,,,,,,,,,,,,,,,,,,,,,,,,,,,,,,,,,,,,,,,,
,,,,,00050,2023-10-13_09h00.17.602,vbt_B1_day4,2022.2.4,Win32,59.95563283,,,,,,down,0,2.7584,parel,,0.106481481,-0.201851852,1,0,0,0,0,0,65,1,parel,images/br_parel.png,images/cb_parel.png,1,,,,,,,,,,,,,,,,,,,,,
,,,,,00050,2023-10-13_09h00.17.602,vbt_B1_day4,2022.2.4,Win32,59.95563283,,,,,,down,0,1.847,,,0.108333333,-0.201851852,1,0,0,0,1,1,151,1,aanzoek,images/br_aanzoek.png,images/cb_aanzoek.png,0,,,,,,,,,,,,,,,,,,,,,
,,,,,00050,2023-10-13_09h00.17.602,vbt_B1_day4,2022.2.4,Win32,59.95563283,,,,,,down,0,1.127,,,0.110185185,-0.201851852,1,0,0,0,2,2,97,1,loyaal,images/br_loyaal.png,images/cb_loyaal.png,0,,,,,,,,,,,,,,,,,,,,,
,,,,,00050,2023-10-13_09h00.17.602,vbt_B1_day4,2022.2.4,Win32,59.95563283,,,,,,down,0,2.4025,eetlust,,0.110185185,-0.201851852,1,0,0,0,3,3,144,1,eetlust,images/br_eetlust.png,images/cb_eetlust.png,1,,,,,,,,,,,,,,,,,,,,,
,,,,,00050,2023-10-13_09h00.17.602,vbt_B1_day4,2022.2.4,Win32,59.95563283,,,,,,down,0,1.2017,,,0.110185185,-0.201851852,1,0,0,0,4,4,57,1,steek,images/br_steek.png,images/cb_steek.png,0,,,,,,,,,,,,,,,,,,,,,
,,,,,00050,2023-10-13_09h00.17.602,vbt_B1_day4,2022.2.4,Win32,59.95563283,,,,,,down,0,0.5509,,,0.110185185,-0.201851852,1,0,0,0,5,5,142,1,snuiven,images/br_snuiven.png,images/cb_snuiven.png,0,,,,,,,,,,,,,,,,,,,,,
,,,,,00050,2023-10-13_09h00.17.602,vbt_B1_day4,2022.2.4,Win32,59.95563283,,,,,,down,0,0.9088,,,0.110185185,-0.201851852,1,0,0,0,6,6,89,1,slapen,images/br_slapen.png,images/cb_slapen.png,0,,,,,,,,,,,,,,,,,,,,,
,,,,,00050,2023-10-13_09h00.17.602,vbt_B1_day4,2022.2.4,Win32,59.95563283,,,,,,down,0,2.8595,,,0.110185185,-0.201851852,1,0,0,0,7,7,123,1,hiervan,images/br_hiervan.png,images/cb_hiervan.png,0,,,,,,,,,,,,,,,,,,,,,
,,,,,00050,2023-10-13_09h00.17.602,vbt_B1_day4,2022.2.4,Win32,59.95563283,,,,,,down,0,0.3657,,,0.110185185,-0.201851852,1,0,0,0,8,8,13,1,kaal,images/br_kaal.png,images/cb_kaal.png,0,,,,,,,,,,,,,,,,,,,,,
,,,,,00050,2023-10-13_09h00.17.602,vbt_B1_day4,2022.2.4,Win32,59.95563283,,,,,,down,0,1.8943,,,0.110185185,-0.201851852,1,0,0,0,9,9,179,1,woestijn,images/br_woestijn.png,images/cb_woestijn.png,0,,,,,,,,,,,,,,,,,,,,,
,,,,,00050,2023-10-13_09h00.17.602,vbt_B1_day4,2022.2.4,Win32,59.95563283,,,,,,down,0,2.8822,,,0.110185185,-0.201851852,1,0,0,0,10,10,128,1,prikken,images/br_prikken.png,images/cb_prikken.png,0,,,,,,,,,,,,,,,,,,,,,
,,,,,00050,2023-10-13_09h00.17.602,vbt_B1_day4,2022.2.4,Win32,59.95563283,,,,,,down,0,1.2053,,,0.110185185,-0.201851852,1,0,0,0,11,11,76,1,afval,images/br_afval.png,images/cb_afval.png,0,,,,,,,,,,,,,,,,,,,,,
,,,,,00050,2023-10-13_09h00.17.602,vbt_B1_day4,2022.2.4,Win32,59.95563283,,,,,,down,0,0.8233,,,0.110185185,-0.201851852,1,0,0,0,12,12,108,1,excuus,images/br_excuus.png,images/cb_excuus.png,0,,,,,,,,,,,,,,,,,,,,,
,,,,,00050,2023-10-13_09h00.17.602,vbt_B1_day4,2022.2.4,Win32,59.95563283,,,,,,down,0,0.8468,,,0.110185185,-0.201851852,1,0,0,0,13,13,94,1,oceaan,images/br_oceaan.png,images/cb_oceaan.png,0,,,,,,,,,,,,,,,,,,,,,
,,,,,00050,2023-10-13_09h00.17.602,vbt_B1_day4,2022.2.4,Win32,59.95563283,,,,,,down,0,0.1103,,,0.110185185,-0.201851852,1,0,0,0,14,14,71,1,bever,images/br_bever.png,images/cb_bever.png,0,,,,,,,,,,,,,,,,,,,,,
,,,,,00050,2023-10-13_09h00.17.602,vbt_B1_day4,2022.2.4,Win32,59.95563283,,,,,,down,0,1.2333,wegen,,0.116666667,-0.199074074,1,0,0,0,15,15,64,1,wegen,images/br_wegen.png,images/cb_wegen.png,1,,,,,,,,,,,,,,,,,,,,,
,,,,,00050,2023-10-13_09h00.17.602,vbt_B1_day4,2022.2.4,Win32,59.95563283,,,,,,down,0,0.4123,,,0.116666667,-0.199074074,1,0,0,0,16,16,114,1,vullen,images/br_vullen.png,images/cb_vullen.png,0,,,,,,,,,,,,,,,,,,,,,
,,,,,00050,2023-10-13_09h00.17.602,vbt_B1_day4,2022.2.4,Win32,59.95563283,,,,,,down,0,3.0809,,,0.116666667,-0.199074074,1,0,0,0,17,17,194,1,driemaal,images/br_driemaal.png,images/cb_driemaal.png,0,,,,,,,,,,,,,,,,,,,,,
,,,,,00050,2023-10-13_09h00.17.602,vbt_B1_day4,2022.2.4,Win32,59.95563283,,,,,,down,0,0.1506,,,0.116666667,-0.199074074,1,0,0,0,18,18,21,1,mist,images/br_mist.png,images/cb_mist.png,0,,,,,,,,,,,,,,,,,,,,,
,,,,,00050,2023-10-13_09h00.17.602,vbt_B1_day4,2022.2.4,Win32,59.95563283,,,,,,down,0,0.9188,lever,,0.116666667,-0.199074074,1,0,0,0,19,19,66,1,lever,images/br_lever.png,images/cb_lever.png,1,,,,,,,,,,,,,,,,,,,,,
,,,,,00050,2023-10-13_09h00.17.602,vbt_B1_day4,2022.2.4,Win32,59.95563283,,,,,,down,0,1.3736,,,0.116666667,-0.199074074,1,0,0,0,20,20,6,1,diep,images/br_diep.png,images/cb_diep.png,0,,,,,,,,,,,,,,,,,,,,,
,,,,,00050,2023-10-13_09h00.17.602,vbt_B1_day4,2022.2.4,Win32,59.95563283,,,,,,down,0,0.3837,,,0.116666667,-0.199074074,1,0,0,0,21,21,37,1,mijn,images/br_mijn.png,images/cb_mijn.png,0,,,,,,,,,,,,,,,,,,,,,
,,,,,00050,2023-10-13_09h00.17.602,vbt_B1_day4,2022.2.4,Win32,59.95563283,,,,,,down,0,0.8268,,,0.116666667,-0.199074074,1,0,0,0,22,22,177,1,maaltijd,images/br_maaltijd.png,images/cb_maaltijd.png,0,,,,,,,,,,,,,,,,,,,,,
,,,,,00050,2023-10-13_09h00.17.602,vbt_B1_day4,2022.2.4,Win32,59.95563283,,,,,,down,0,0.2537,,,0.116666667,-0.199074074,1,0,0,0,23,23,17,1,taal,images/br_taal.png,images/cb_taal.png,0,,,,,,,,,,,,,,,,,,,,,
,,,,,00050,2023-10-13_09h00.17.602,vbt_B1_day4,2022.2.4,Win32,59.95563283,,,,,,down,0,1.2943,,,0.116666667,-0.199074074,1,0,0,0,24,24,73,1,volop,images/br_volop.png,images/cb_volop.png,0,,,,,,,,,,,,,,,,,,,,,
,,,,,00050,2023-10-13_09h00.17.602,vbt_B1_day4,2022.2.4,Win32,59.95563283,,,,,,down,0,1.1825,zwart,,0.116666667,-0.199074074,1,0,0,0,25,25,67,1,zwart,images/br_zwart.png,images/cb_zwart.png,1,,,,,,,,,,,,,,,,,,,,,
,,,,,00050,2023-10-13_09h00.17.602,vbt_B1_day4,2022.2.4,Win32,59.95563283,,,,,,down,0,0.8024,,,0.116666667,-0.199074074,1,0,0,0,26,26,140,1,blijven,images/br_blijven.png,images/cb_blijven.png,0,,,,,,,,,,,,,,,,,,,,,
,,,,,00050,2023-10-13_09h00.17.602,vbt_B1_day4,2022.2.4,Win32,59.95563283,,,,,,down,0,1.0851,,,0.117592593,-0.199074074,1,0,0,0,27,27,157,1,uitlaat,images/br_uitlaat.png,images/cb_uitlaat.png,0,,,,,,,,,,,,,,,,,,,,,
,,,,,00050,2023-10-13_09h00.17.602,vbt_B1_day4,2022.2.4,Win32,59.95563283,,,,,,down,0,2.619,,,0.117592593,-0.199074074,1,0,0,0,28,28,197,1,spanning,images/br_spanning.png,images/cb_spanning.png,0,,,,,,,,,,,,,,,,,,,,,
,,,,,00050,2023-10-13_09h00.17.602,vbt_B1_day4,2022.2.4,Win32,59.95563283,,,,,,down,0,0.2347,,,0.117592593,-0.199074074,1,0,0,0,29,29,50,1,stoom,images/br_stoom.png,images/cb_stoom.png,0,,,,,,,,,,,,,,,,,,,,,
,,,,,00050,2023-10-13_09h00.17.602,vbt_B1_day4,2022.2.4,Win32,59.95563283,,,,,,down,0,0.0454,,,0.118518519,-0.198148148,1,0,0,0,30,30,33,1,vlek,images/br_vlek.png,images/cb_vlek.png,0,,,,,,,,,,,,,,,,,,,,,
,,,,,00050,2023-10-13_09h00.17.602,vbt_B1_day4,2022.2.4,Win32,59.95563283,,,,,,down,0,2.1866,,,0.118518519,-0.198148148,1,0,0,0,31,31,162,1,uitdelen,images/br_uitdelen.png,images/cb_uitdelen.png,0,,,,,,,,,,,,,,,,,,,,,
,,,,,00050,2023-10-13_09h00.17.602,vbt_B1_day4,2022.2.4,Win32,59.95563283,,,,,,down,0,0.8917,,,0.118518519,-0.198148148,1,0,0,0,32,32,87,1,toeval,images/br_toeval.png,images/cb_toeval.png,0,,,,,,,,,,,,,,,,,,,,,
,,,,,00050,2023-10-13_09h00.17.602,vbt_B1_day4,2022.2.4,Win32,59.95563283,,,,,,down,0,2.3386,,,0.118518519,-0.198148148,1,0,0,0,33,33,126,1,kasteel,images/br_kasteel.png,images/cb_kasteel.png,0,,,,,,,,,,,,,,,,,,,,,
,,,,,00050,2023-10-13_09h00.17.602,vbt_B1_day4,2022.2.4,Win32,59.95563283,,,,,,down,0,1.4163,,,0.118518519,-0.198148148,1,0,0,0,34,34,150,1,gegeven,images/br_gegeven.png,images/cb_gegeven.png,0,,,,,,,,,,,,,,,,,,,,,
,,,,,00050,2023-10-13_09h00.17.602,vbt_B1_day4,2022.2.4,Win32,59.95563283,,,,,,down,0,1.1348,,,0.118518519,-0.198148148,1,0,0,0,35,35,174,1,stemming,images/br_stemming.png,images/cb_stemming.png,0,,,,,,,,,,,,,,,,,,,,,
,,,,,00050,2023-10-13_09h00.17.602,vbt_B1_day4,2022.2.4,Win32,59.95563283,,,,,,down,0,1.3764,,,0.118518519,-0.198148148,1,0,0,0,36,36,74,1,graaf,images/br_graaf.png,images/cb_graaf.png,0,,,,,,,,,,,,,,,,,,,,,
,,,,,00050,2023-10-13_09h00.17.602,vbt_B1_day4,2022.2.4,Win32,59.95563283,,,,,,down,0,2.0065,,,0.118518519,-0.198148148,1,0,0,0,37,37,173,1,apparaat,images/br_apparaat.png,images/cb_apparaat.png,0,,,,,,,,,,,,,,,,,,,,,
,,,,,00050,2023-10-13_09h00.17.602,vbt_B1_day4,2022.2.4,Win32,59.95563283,,,,,,down,0,5.4473,,,0.118518519,-0.198148148,1,0,0,0,38,38,168,1,bisschop,images/br_bisschop.png,images/cb_bisschop.png,0,,,,,,,,,,,,,,,,,,,,,
,,,,,00050,2023-10-13_09h00.17.602,vbt_B1_day4,2022.2.4,Win32,59.95563283,,,,,,down,0,1.1771,,,0.118518519,-0.198148148,1,0,0,0,39,39,99,1,koffie,images/br_koffie.png,images/cb_koffie.png,0,,,,,,,,,,,,,,,,,,,,,
,,,,,00050,2023-10-13_09h00.17.602,vbt_B1_day4,2022.2.4,Win32,59.95563283,,,,,,down,0,2.1818,invloed,,0.118518519,-0.198148148,1,0,0,0,40,40,145,1,invloed,images/br_invloed.png,images/cb_invloed.png,1,,,,,,,,,,,,,,,,,,,,,
,,,,,00050,2023-10-13_09h00.17.602,vbt_B1_day4,2022.2.4,Win32,59.95563283,,,,,,down,0,1.1737,,,0.118518519,-0.198148148,1,0,0,0,41,41,122,1,waarvan,images/br_waarvan.png,images/cb_waarvan.png,0,,,,,,,,,,,,,,,,,,,,,
,,,,,00050,2023-10-13_09h00.17.602,vbt_B1_day4,2022.2.4,Win32,59.95563283,,,,,,down,0,1.5002,,,0.118518519,-0.198148148,1,0,0,0,42,42,43,1,klauw,images/br_klauw.png,images/cb_klauw.png,0,,,,,,,,,,,,,,,,,,,,,
,,,,,00050,2023-10-13_09h00.17.602,vbt_B1_day4,2022.2.4,Win32,59.95563283,,,,,,down,0,3.3256,,,0.118518519,-0.198148148,1,0,0,0,43,43,143,1,hechten,images/br_hechten.png,images/cb_hechten.png,0,,,,,,,,,,,,,,,,,,,,,
,,,,,00050,2023-10-13_09h00.17.602,vbt_B1_day4,2022.2.4,Win32,59.95563283,,,,,,down,0,0.1598,,,0.118518519,-0.198148148,1,0,0,0,44,44,47,1,kabel,images/br_kabel.png,images/cb_kabel.png,0,,,,,,,,,,,,,,,,,,,,,
,,,,,00050,2023-10-13_09h00.17.602,vbt_B1_day4,2022.2.4,Win32,59.95563283,,,,,,down,0,2.4881,,,0.118518519,-0.198148148,1,0,0,0,45,45,159,1,sufferd,images/br_sufferd.png,images/cb_sufferd.png,0,,,,,,,,,,,,,,,,,,,,,
,,,,,00050,2023-10-13_09h00.17.602,vbt_B1_day4,2022.2.4,Win32,59.95563283,,,,,,down,0,1.5275,,,0.118518519,-0.198148148,1,0,0,0,46,46,88,1,boeien,images/br_boeien.png,images/cb_boeien.png,0,,,,,,,,,,,,,,,,,,,,,
,,,,,00050,2023-10-13_09h00.17.602,vbt_B1_day4,2022.2.4,Win32,59.95563283,,,,,,down,0,4.3357,mijnheer,,0.118518519,-0.198148148,1,0,0,0,47,47,185,1,mijnheer,images/br_mijnheer.png,images/cb_mijnheer.png,1,,,,,,,,,,,,,,,,,,,,,
,,,,,00050,2023-10-13_09h00.17.602,vbt_B1_day4,2022.2.4,Win32,59.95563283,,,,,,down,0,1.7441,,,0.118518519,-0.198148148,1,0,0,0,48,48,81,1,dubbel,images/br_dubbel.png,images/cb_dubbel.png,0,,,,,,,,,,,,,,,,,,,,,
,,,,,00050,2023-10-13_09h00.17.602,vbt_B1_day4,2022.2.4,Win32,59.95563283,,,,,,down,0,2.6597,,,0.118518519,-0.198148148,1,0,0,0,49,49,152,1,afnemen,images/br_afnemen.png,images/cb_afnemen.png,0,,,,,,,,,,,,,,,,,,,,,
,,,,,00050,2023-10-13_09h00.17.602,vbt_B1_day4,2022.2.4,Win32,59.95563283,,,,,,down,0,1.1353,,,0.119444444,-0.198148148,1,0,0,0,50,50,139,1,stiekem,images/br_stiekem.png,images/cb_stiekem.png,0,,,,,,,,,,,,,,,,,,,,,
,,,,,00050,2023-10-13_09h00.17.602,vbt_B1_day4,2022.2.4,Win32,59.95563283,,,,,,down,0,0.537,,,0.119444444,-0.198148148,1,0,0,0,51,51,41,1,maken,images/br_maken.png,images/cb_maken.png,0,,,,,,,,,,,,,,,,,,,,,
,,,,,00050,2023-10-13_09h00.17.602,vbt_B1_day4,2022.2.4,Win32,59.95563283,,,,,,down,0,1.508,,,0.119444444,-0.198148148,1,0,0,0,52,52,92,1,geheim,images/br_geheim.png,images/cb_geheim.png,0,,,,,,,,,,,,,,,,,,,,,
,,,,,00050,2023-10-13_09h00.17.602,vbt_B1_day4,2022.2.4,Win32,59.95563283,,,,,,down,0,3.0586,,,0.119444444,-0.198148148,1,0,0,0,53,53,121,1,twijfel,images/br_twijfel.png,images/cb_twijfel.png,0,,,,,,,,,,,,,,,,,,,,,
,,,,,00050,2023-10-13_09h00.17.602,vbt_B1_day4,2022.2.4,Win32,59.95563283,,,,,,down,0,3.021,zingen,,0.119444444,-0.198148148,1,0,0,0,54,54,106,1,zingen,images/br_zingen.png,images/cb_zingen.png,1,,,,,,,,,,,,,,,,,,,,,
,,,,,00050,2023-10-13_09h00.17.602,vbt_B1_day4,2022.2.4,Win32,59.95563283,,,,,,down,0,2.6901,,,0.119444444,-0.198148148,1,0,0,0,55,55,14,1,rijp,images/br_rijp.png,images/cb_rijp.png,0,,,,,,,,,,,,,,,,,,,,,
,,,,,00050,2023-10-13_09h00.17.602,vbt_B1_day4,2022.2.4,Win32,59.95563283,,,,,,down,0,1.1701,,,0.121296296,-0.196296296,1,0,0,0,56,56,127,1,doodmoe,images/br_doodmoe.png,images/cb_doodmoe.png,0,,,,,,,,,,,,,,,,,,,,,
,,,,,00050,2023-10-13_09h00.17.602,vbt_B1_day4,2022.2.4,Win32,59.95563283,,,,,,down,0,1.0051,,,0.121296296,-0.196296296,1,0,0,0,57,57,53,1,baron,images/br_baron.png,images/cb_baron.png,0,,,,,,,,,,,,,,,,,,,,,
,,,,,00050,2023-10-13_09h00.17.602,vbt_B1_day4,2022.2.4,Win32,59.95563283,,,,,,down,0,0.3476,,,0.121296296,-0.196296296,1,0,0,0,58,58,85,1,heilig,images/br_heilig.png,images/cb_heilig.png,0,,,,,,,,,,,,,,,,,,,,,
,,,,,00050,2023-10-13_09h00.17.602,vbt_B1_day4,2022.2.4,Win32,59.95563283,,,,,,down,0,0.6718,,,0.121296296,-0.196296296,1,0,0,0,59,59,95,1,vreten,images/br_vreten.png,images/cb_vreten.png,0,,,,,,,,,,,,,,,,,,,,,
,,,,,00050,2023-10-13_09h00.17.602,vbt_B1_day4,2022.2.4,Win32,59.95563283,,,,,,down,0,0.3972,,,0.121296296,-0.196296296,1,0,0,0,60,60,45,1,piste,images/br_piste.png,images/cb_piste.png,0,,,,,,,,,,,,,,,,,,,,,
,,,,,00050,2023-10-13_09h00.17.602,vbt_B1_day4,2022.2.4,Win32,59.95563283,,,,,,down,0,1.5269,,,0.121296296,-0.196296296,1,0,0,0,61,61,59,1,kring,images/br_kring.png,images/cb_kring.png,0,,,,,,,,,,,,,,,,,,,,,
,,,,,00050,2023-10-13_09h00.17.602,vbt_B1_day4,2022.2.4,Win32,59.95563283,,,,,,down,0,0.4617,,,0.121296296,-0.196296296,1,0,0,0,62,62,75,1,snoep,images/br_snoep.png,images/cb_snoep.png,0,,,,,,,,,,,,,,,,,,,,,
,,,,,00050,2023-10-13_09h00.17.602,vbt_B1_day4,2022.2.4,Win32,59.95563283,,,,,,down,0,0.6943,,,0.121296296,-0.19537037,1,0,0,0,63,63,112,1,lukken,images/br_lukken.png,images/cb_lukken.png,0,,,,,,,,,,,,,,,,,,,,,
,,,,,00050,2023-10-13_09h00.17.602,vbt_B1_day4,2022.2.4,Win32,59.95563283,,,,,,down,0,1.7859,,,0.121296296,-0.19537037,1,0,0,0,64,64,135,1,gedicht,images/br_gedicht.png,images/cb_gedicht.png,0,,,,,,,,,,,,,,,,,,,,,
,,,,,00050,2023-10-13_09h00.17.602,vbt_B1_day4,2022.2.4,Win32,59.95563283,,,,,,down,0,0.1669,,,0.121296296,-0.19537037,1,0,0,0,65,65,31,1,poes,images/br_poes.png,images/cb_poes.png,0,,,,,,,,,,,,,,,,,,,,,
,,,,,00050,2023-10-13_09h00.17.602,vbt_B1_day4,2022.2.4,Win32,59.95563283,,,,,,down,0,0.9073,maling,,0.121296296,-0.194444444,1,0,0,0,66,66,107,1,maling,images/br_maling.png,images/cb_maling.png,1,,,,,,,,,,,,,,,,,,,,,
,,,,,00050,2023-10-13_09h00.17.602,vbt_B1_day4,2022.2.4,Win32,59.95563283,,,,,,down,0,1.0584,,,0.121296296,-0.194444444,1,0,0,0,67,67,109,1,totaal,images/br_totaal.png,images/cb_totaal.png,0,,,,,,,,,,,,,,,,,,,,,
,,,,,00050,2023-10-13_09h00.17.602,vbt_B1_day4,2022.2.4,Win32,59.95563283,,,,,,down,0,1.122,,,0.121296296,-0.194444444,1,0,0,0,68,68,117,1,kennis,images/br_kennis.png,images/cb_kennis.png,0,,,,,,,,,,,,,,,,,,,,,
,,,,,00050,2023-10-13_09h00.17.602,vbt_B1_day4,2022.2.4,Win32,59.95563283,,,,,,down,0,0.4583,,,0.121296296,-0.194444444,1,0,0,0,69,69,93,1,waarop,images/br_waarop.png,images/cb_waarop.png,0,,,,,,,,,,,,,,,,,,,,,
,,,,,00050,2023-10-13_09h00.17.602,vbt_B1_day4,2022.2.4,Win32,59.95563283,,,,,,down,0,0.9834,,,0.121296296,-0.194444444,1,0,0,0,70,70,44,1,flits,images/br_flits.png,images/cb_flits.png,0,,,,,,,,,,,,,,,,,,,,,
,,,,,00050,2023-10-13_09h00.17.602,vbt_B1_day4,2022.2.4,Win32,59.95563283,,,,,,down,0,0.2569,,,0.121296296,-0.194444444,1,0,0,0,71,71,56,1,traag,images/br_traag.png,images/cb_traag.png,0,,,,,,,,,,,,,,,,,,,,,
,,,,,00050,2023-10-13_09h00.17.602,vbt_B1_day4,2022.2.4,Win32,59.95563283,,,,,,down,0,0.5295,,,0.121296296,-0.194444444,1,0,0,0,72,72,20,1,site,images/br_site.png,images/cb_site.png,0,,,,,,,,,,,,,,,,,,,,,
,,,,,00050,2023-10-13_09h00.17.602,vbt_B1_day4,2022.2.4,Win32,59.95563283,,,,,,down,0,1.1995,,,0.121296296,-0.194444444,1,0,0,0,73,73,115,1,kleren,images/br_kleren.png,images/cb_kleren.png,0,,,,,,,,,,,,,,,,,,,,,
,,,,,00050,2023-10-13_09h00.17.602,vbt_B1_day4,2022.2.4,Win32,59.95563283,,,,,,down,0,0.5656,,,0.121296296,-0.193518519,1,0,0,0,74,74,40,1,schep,images/br_schep.png,images/cb_schep.png,0,,,,,,,,,,,,,,,,,,,,,
,,,,,00050,2023-10-13_09h00.17.602,vbt_B1_day4,2022.2.4,Win32,59.95563283,,,,,,down,0,0.9999,,,0.121296296,-0.193518519,1,0,0,0,75,75,153,1,vervoer,images/br_vervoer.png,images/cb_vervoer.png,0,,,,,,,,,,,,,,,,,,,,,
,,,,,00050,2023-10-13_09h00.17.602,vbt_B1_day4,2022.2.4,Win32,59.95563283,,,,,,down,0,1.8155,,,0.121296296,-0.193518519,1,0,0,0,76,76,166,1,strikken,images/br_strikken.png,images/cb_strikken.png,0,,,,,,,,,,,,,,,,,,,,,
,,,,,00050,2023-10-13_09h00.17.602,vbt_B1_day4,2022.2.4,Win32,59.95563283,,,,,,down,0,0.8168,,,0.121296296,-0.193518519,1,0,0,0,77,77,191,1,opheffen,images/br_opheffen.png,images/cb_opheffen.png,0,,,,,,,,,,,,,,,,,,,,,
,,,,,00050,2023-10-13_09h00.17.602,vbt_B1_day4,2022.2.4,Win32,59.95563283,,,,,,down,0,0.3299,,,0.121296296,-0.193518519,1,0,0,0,78,78,181,1,toegeven,images/br_toegeven.png,images/cb_toegeven.png,0,,,,,,,,,,,,,,,,,,,,,
,,,,,00050,2023-10-13_09h00.17.602,vbt_B1_day4,2022.2.4,Win32,59.95563283,,,,,,down,0,0.6896,,,0.121296296,-0.193518519,1,0,0,0,79,79,36,1,vuur,images/br_vuur.png,images/cb_vuur.png,0,,,,,,,,,,,,,,,,,,,,,
,,,,,00050,2023-10-13_09h00.17.602,vbt_B1_day4,2022.2.4,Win32,59.95563283,,,,,,down,0,0.4376,,,0.121296296,-0.193518519,1,0,0,0,80,80,91,1,gezond,images/br_gezond.png,images/cb_gezond.png,0,,,,,,,,,,,,,,,,,,,,,
,,,,,00050,2023-10-13_09h00.17.602,vbt_B1_day4,2022.2.4,Win32,59.95563283,,,,,,down,0,1.5828,,,0.121296296,-0.193518519,1,0,0,0,81,81,103,1,joggen,images/br_joggen.png,images/cb_joggen.png,0,,,,,,,,,,,,,,,,,,,,,
,,,,,00050,2023-10-13_09h00.17.602,vbt_B1_day4,2022.2.4,Win32,59.95563283,,,,,,down,0,1.266,,,0.121296296,-0.193518519,1,0,0,0,82,82,172,1,weigeren,images/br_weigeren.png,images/cb_weigeren.png,0,,,,,,,,,,,,,,,,,,,,,
,,,,,00050,2023-10-13_09h00.17.602,vbt_B1_day4,2022.2.4,Win32,59.95563283,,,,,,down,0,0.546,,,0.121296296,-0.193518519,1,0,0,0,83,83,98,1,kreeft,images/br_kreeft.png,images/cb_kreeft.png,0,,,,,,,,,,,,,,,,,,,,,
,,,,,00050,2023-10-13_09h00.17.602,vbt_B1_day4,2022.2.4,Win32,59.95563283,,,,,,down,0,2.9141,,,0.121296296,-0.193518519,1,0,0,0,84,84,163,1,schuilen,images/br_schuilen.png,images/cb_schuilen.png,0,,,,,,,,,,,,,,,,,,,,,
,,,,,00050,2023-10-13_09h00.17.602,vbt_B1_day4,2022.2.4,Win32,59.95563283,,,,,,down,0,5.5087,,,0.121296296,-0.193518519,1,0,0,0,85,85,149,1,redding,images/br_redding.png,images/cb_redding.png,0,,,,,,,,,,,,,,,,,,,,,
,,,,,00050,2023-10-13_09h00.17.602,vbt_B1_day4,2022.2.4,Win32,59.95563283,,,,,,down,0,0.1495,,,0.121296296,-0.193518519,1,0,0,0,86,86,5,1,blad,images/br_blad.png,images/cb_blad.png,0,,,,,,,,,,,,,,,,,,,,,
,,,,,00050,2023-10-13_09h00.17.602,vbt_B1_day4,2022.2.4,Win32,59.95563283,,,,,,down,0,1.7963,,,0.121296296,-0.193518519,1,0,0,0,87,87,171,1,aarzelen,images/br_aarzelen.png,images/cb_aarzelen.png,0,,,,,,,,,,,,,,,,,,,,,
,,,,,00050,2023-10-13_09h00.17.602,vbt_B1_day4,2022.2.4,Win32,59.95563283,,,,,,down,0,1.7713,,,0.122222222,-0.193518519,1,0,0,0,88,88,164,1,anarchie,images/br_anarchie.png,images/cb_anarchie.png,0,,,,,,,,,,,,,,,,,,,,,
,,,,,00050,2023-10-13_09h00.17.602,vbt_B1_day4,2022.2.4,Win32,59.95563283,,,,,,down,0,0.3961,,,0.122222222,-0.193518519,1,0,0,0,89,89,9,1,hier,images/br_hier.png,images/cb_hier.png,0,,,,,,,,,,,,,,,,,,,,,
,,,,,00050,2023-10-13_09h00.17.602,vbt_B1_day4,2022.2.4,Win32,59.95563283,,,,,,down,0,0.7775,,,0.122222222,-0.193518519,1,0,0,0,90,90,32,1,palm,images/br_palm.png,images/cb_palm.png,0,,,,,,,,,,,,,,,,,,,,,
,,,,,00050,2023-10-13_09h00.17.602,vbt_B1_day4,2022.2.4,Win32,59.95563283,,,,,,down,0,2.2136,,,0.122222222,-0.193518519,1,0,0,0,91,91,119,1,liefje,images/br_liefje.png,images/cb_liefje.png,0,,,,,,,,,,,,,,,,,,,,,
,,,,,00050,2023-10-13_09h00.17.602,vbt_B1_day4,2022.2.4,Win32,59.95563283,,,,,,down,0,0.3529,,,0.122222222,-0.193518519,1,0,0,0,92,92,138,1,akkoord,images/br_akkoord.png,images/cb_akkoord.png,0,,,,,,,,,,,,,,,,,,,,,
,,,,,00050,2023-10-13_09h00.17.602,vbt_B1_day4,2022.2.4,Win32,59.95563283,,,,,,down,0,3.3515,,,0.122222222,-0.193518519,1,0,0,0,93,93,176,1,techniek,images/br_techniek.png,images/cb_techniek.png,0,,,,,,,,,,,,,,,,,,,,,
,,,,,00050,2023-10-13_09h00.17.602,vbt_B1_day4,2022.2.4,Win32,59.95563283,,,,,,down,0,4.5691,,,0.122222222,-0.193518519,1,0,0,0,94,94,178,1,huisdier,images/br_huisdier.png,images/cb_huisdier.png,0,,,,,,,,,,,,,,,,,,,,,
,,,,,00050,2023-10-13_09h00.17.602,vbt_B1_day4,2022.2.4,Win32,59.95563283,,,,,,down,0,2.6315,,,0.122222222,-0.193518519,1,0,0,0,95,95,198,1,bedoelen,images/br_bedoelen.png,images/cb_bedoelen.png,0,,,,,,,,,,,,,,,,,,,,,
,,,,,00050,2023-10-13_09h00.17.602,vbt_B1_day4,2022.2.4,Win32,59.95563283,,,,,,down,0,0.8249,,,0.122222222,-0.193518519,1,0,0,0,96,96,193,1,weeshuis,images/br_weeshuis.png,images/cb_weeshuis.png,0,,,,,,,,,,,,,,,,,,,,,
,,,,,00050,2023-10-13_09h00.17.602,vbt_B1_day4,2022.2.4,Win32,59.95563283,,,,,,down,0,0.3831,,,0.122222222,-0.193518519,1,0,0,0,97,97,22,1,stof,images/br_stof.png,images/cb_stof.png,0,,,,,,,,,,,,,,,,,,,,,
,,,,,00050,2023-10-13_09h00.17.602,vbt_B1_day4,2022.2.4,Win32,59.95563283,,,,,,down,0,0.1552,,,0.122222222,-0.193518519,1,0,0,0,98,98,68,1,schat,images/br_schat.png,images/cb_schat.png,0,,,,,,,,,,,,,,,,,,,,,
,,,,,00050,2023-10-13_09h00.17.602,vbt_B1_day4,2022.2.4,Win32,59.95563283,,,,,,down,0,0.4348,,,0.122222222,-0.193518519,1,0,0,0,99,99,52,1,wagon,images/br_wagon.png,images/cb_wagon.png,0,,,,,,,,,,,,,,,,,,,,,
,,,,,00050,2023-10-13_09h00.17.602,vbt_B1_day4,2022.2.4,Win32,59.95563283,,,,,,down,0,2.0256,wijlen,,0.122222222,-0.193518519,1,0,0,0,100,100,105,1,wijlen,images/br_wijlen.png,images/cb_wijlen.png,1,,,,,,,,,,,,,,,,,,,,,
,,,,,00050,2023-10-13_09h00.17.602,vbt_B1_day4,2022.2.4,Win32,59.95563283,,,,,,down,0,0.2617,,,0.122222222,-0.193518519,1,0,0,0,101,101,72,1,strak,images/br_strak.png,images/cb_strak.png,0,,,,,,,,,,,,,,,,,,,,,
,,,,,00050,2023-10-13_09h00.17.602,vbt_B1_day4,2022.2.4,Win32,59.95563283,,,,,,down,0,0.8692,,,0.122222222,-0.193518519,1,0,0,0,102,102,90,1,geluid,images/br_geluid.png,images/cb_geluid.png,0,,,,,,,,,,,,,,,,,,,,,
,,,,,00050,2023-10-13_09h00.17.602,vbt_B1_day4,2022.2.4,Win32,59.95563283,,,,,,down,0,1.2998,,,0.122222222,-0.193518519,1,0,0,0,103,103,15,1,soda,images/br_soda.png,images/cb_soda.png,0,,,,,,,,,,,,,,,,,,,,,
,,,,,00050,2023-10-13_09h00.17.602,vbt_B1_day4,2022.2.4,Win32,59.95563283,,,,,,down,0,0.7042,,,0.122222222,-0.193518519,1,0,0,0,104,104,154,1,aflopen,images/br_aflopen.png,images/cb_aflopen.png,0,,,,,,,,,,,,,,,,,,,,,
,,,,,00050,2023-10-13_09h00.17.602,vbt_B1_day4,2022.2.4,Win32,59.95563283,,,,,,down,0,0.5294,,,0.122222222,-0.193518519,1,0,0,0,105,105,23,1,zout,images/br_zout.png,images/cb_zout.png,0,,,,,,,,,,,,,,,,,,,,,
,,,,,00050,2023-10-13_09h00.17.602,vbt_B1_day4,2022.2.4,Win32,59.95563283,,,,,,down,0,0.4277,,,0.122222222,-0.193518519,1,0,0,0,106,106,100,1,geduld,images/br_geduld.png,images/cb_geduld.png,0,,,,,,,,,,,,,,,,,,,,,
,,,,,00050,2023-10-13_09h00.17.602,vbt_B1_day4,2022.2.4,Win32,59.95563283,,,,,,down,0,18.2339,,,0.122222222,-0.193518519,1,0,0,0,107,107,180,1,openbaar,images/br_openbaar.png,images/cb_openbaar.png,0,,,,,,,,,,,,,,,,,,,,,
,,,,,00050,2023-10-13_09h00.17.602,vbt_B1_day4,2022.2.4,Win32,59.95563283,,,,,,down,0,0.3378,aandelen,,0.122222222,-0.193518519,1,0,0,0,108,108,184,1,aandelen,images/br_aandelen.png,images/cb_aandelen.png,1,,,,,,,,,,,,,,,,,,,,,
,,,,,00050,2023-10-13_09h00.17.602,vbt_B1_day4,2022.2.4,Win32,59.95563283,,,,,,down,0,2.379,,,0.122222222,-0.192592593,1,0,0,0,109,109,158,1,innemen,images/br_innemen.png,images/cb_innemen.png,0,,,,,,,,,,,,,,,,,,,,,
,,,,,00050,2023-10-13_09h00.17.602,vbt_B1_day4,2022.2.4,Win32,59.95563283,,,,,,down,0,1.014,,,0.122222222,-0.192592593,1,0,0,0,110,110,133,1,seizoen,images/br_seizoen.png,images/cb_seizoen.png,0,,,,,,,,,,,,,,,,,,,,,
,,,,,00050,2023-10-13_09h00.17.602,vbt_B1_day4,2022.2.4,Win32,59.95563283,,,,,,down,0,0.089,,,0.122222222,-0.192592593,1,0,0,0,111,111,58,1,tekst,images/br_tekst.png,images/cb_tekst.png,0,,,,,,,,,,,,,,,,,,,,,
,,,,,00050,2023-10-13_09h00.17.602,vbt_B1_day4,2022.2.4,Win32,59.95563283,,,,,,down,0,2.2651,,,0.122222222,-0.192592593,1,0,0,0,112,112,130,1,keihard,images/br_keihard.png,images/cb_keihard.png,0,,,,,,,,,,,,,,,,,,,,,
,,,,,00050,2023-10-13_09h00.17.602,vbt_B1_day4,2022.2.4,Win32,59.95563283,,,,,,down,0,0.0007,opkomen,,0.122222222,-0.192592593,1,0,0,0,113,113,146,1,opkomen,images/br_opkomen.png,images/cb_opkomen.png,1,,,,,,,,,,,,,,,,,,,,,
,,,,,00050,2023-10-13_09h00.17.602,vbt_B1_day4,2022.2.4,Win32,59.95563283,,,,,,down,0,1.7328,komisch,,0.122222222,-0.192592593,1,0,0,0,114,114,147,1,komisch,images/br_komisch.png,images/cb_komisch.png,1,,,,,,,,,,,,,,,,,,,,,
,,,,,00050,2023-10-13_09h00.17.602,vbt_B1_day4,2022.2.4,Win32,59.95563283,,,,,,down,0,0.2794,,,0.122222222,-0.192592593,1,0,0,0,115,115,131,1,opzicht,images/br_opzicht.png,images/cb_opzicht.png,0,,,,,,,,,,,,,,,,,,,,,
,,,,,00050,2023-10-13_09h00.17.602,vbt_B1_day4,2022.2.4,Win32,59.95563283,,,,,,down,0,1.1659,,,0.122222222,-0.192592593,1,0,0,0,116,116,189,1,aanraden,images/br_aanraden.png,images/cb_aanraden.png,0,,,,,,,,,,,,,,,,,,,,,
,,,,,00050,2023-10-13_09h00.17.602,vbt_B1_day4,2022.2.4,Win32,59.95563283,,,,,,down,0,1.5949,,,0.122222222,-0.192592593,1,0,0,0,117,117,2,1,jaar,images/br_jaar.png,images/cb_jaar.png,0,,,,,,,,,,,,,,,,,,,,,
,,,,,00050,2023-10-13_09h00.17.602,vbt_B1_day4,2022.2.4,Win32,59.95563283,,,,,,down,0,0.9111,,,0.122222222,-0.192592593,1,0,0,0,118,118,28,1,stal,images/br_stal.png,images/cb_stal.png,0,,,,,,,,,,,,,,,,,,,,,
,,,,,00050,2023-10-13_09h00.17.602,vbt_B1_day4,2022.2.4,Win32,59.95563283,,,,,,down,0,0.5421,,,0.122222222,-0.192592593,1,0,0,0,119,119,11,1,mode,images/br_mode.png,images/cb_mode.png,0,,,,,,,,,,,,,,,,,,,,,
,,,,,00050,2023-10-13_09h00.17.602,vbt_B1_day4,2022.2.4,Win32,59.95563283,,,,,,down,0,0.6883,,,0.122222222,-0.192592593,1,0,0,0,120,120,1,1,zaal,images/br_zaal.png,images/cb_zaal.png,0,,,,,,,,,,,,,,,,,,,,,
,,,,,00050,2023-10-13_09h00.17.602,vbt_B1_day4,2022.2.4,Win32,59.95563283,,,,,,down,0,0.5171,leuk,,0.122222222,-0.192592593,1,0,0,0,121,121,26,1,leuk,images/br_leuk.png,images/cb_leuk.png,1,,,,,,,,,,,,,,,,,,,,,
,,,,,00050,2023-10-13_09h00.17.602,vbt_B1_day4,2022.2.4,Win32,59.95563283,,,,,,down,0,1.5243,,,0.122222222,-0.192592593,1,0,0,0,122,122,3,1,mand,images/br_mand.png,images/cb_mand.png,0,,,,,,,,,,,,,,,,,,,,,
,,,,,00050,2023-10-13_09h00.17.602,vbt_B1_day4,2022.2.4,Win32,59.95563283,,,,,,down,0,0.5683,,,0.122222222,-0.192592593,1,0,0,0,123,123,42,1,bleek,images/br_bleek.png,images/cb_bleek.png,0,,,,,,,,,,,,,,,,,,,,,
,,,,,00050,2023-10-13_09h00.17.602,vbt_B1_day4,2022.2.4,Win32,59.95563283,,,,,,down,0,0.4516,,,0.122222222,-0.192592593,1,0,0,0,124,124,169,1,oprotten,images/br_oprotten.png,images/cb_oprotten.png,0,,,,,,,,,,,,,,,,,,,,,
,,,,,00050,2023-10-13_09h00.17.602,vbt_B1_day4,2022.2.4,Win32,59.95563283,,,,,,down,0,1.3272,,,0.122222222,-0.192592593,1,0,0,0,125,125,69,1,waken,images/br_waken.png,images/cb_waken.png,0,,,,,,,,,,,,,,,,,,,,,
,,,,,00050,2023-10-13_09h00.17.602,vbt_B1_day4,2022.2.4,Win32,59.95563283,,,,,,down,0,1.3629,,,0.122222222,-0.192592593,1,0,0,0,126,126,134,1,geliefd,images/br_geliefd.png,images/cb_geliefd.png,0,,,,,,,,,,,,,,,,,,,,,
,,,,,00050,2023-10-13_09h00.17.602,vbt_B1_day4,2022.2.4,Win32,59.95563283,,,,,,down,0,0.173,,,0.122222222,-0.192592593,1,0,0,0,127,127,102,1,legaal,images/br_legaal.png,images/cb_legaal.png,0,,,,,,,,,,,,,,,,,,,,,
,,,,,00050,2023-10-13_09h00.17.602,vbt_B1_day4,2022.2.4,Win32,59.95563283,,,,,,down,0,2.576,,,0.122222222,-0.192592593,1,0,0,0,128,128,182,1,bijkomen,images/br_bijkomen.png,images/cb_bijkomen.png,0,,,,,,,,,,,,,,,,,,,,,
,,,,,00050,2023-10-13_09h00.17.602,vbt_B1_day4,2022.2.4,Win32,59.95563283,,,,,,down,0,0.0924,,,0.122222222,-0.192592593,1,0,0,0,129,129,116,1,besmet,images/br_besmet.png,images/cb_besmet.png,0,,,,,,,,,,,,,,,,,,,,,
,,,,,00050,2023-10-13_09h00.17.602,vbt_B1_day4,2022.2.4,Win32,59.95563283,,,,,,down,0,1.2833,,,0.122222222,-0.192592593,1,0,0,0,130,130,46,1,jagen,images/br_jagen.png,images/cb_jagen.png,0,,,,,,,,,,,,,,,,,,,,,
,,,,,00050,2023-10-13_09h00.17.602,vbt_B1_day4,2022.2.4,Win32,59.95563283,,,,,,down,0,2.371,,,0.122222222,-0.192592593,1,0,0,0,131,131,188,1,strekken,images/br_strekken.png,images/cb_strekken.png,0,,,,,,,,,,,,,,,,,,,,,
,,,,,00050,2023-10-13_09h00.17.602,vbt_B1_day4,2022.2.4,Win32,59.95563283,,,,,,down,0,1.6293,,,0.122222222,-0.192592593,1,0,0,0,132,132,54,1,gebit,images/br_gebit.png,images/cb_gebit.png,0,,,,,,,,,,,,,,,,,,,,,
,,,,,00050,2023-10-13_09h00.17.602,vbt_B1_day4,2022.2.4,Win32,59.95563283,,,,,,down,0,0.4319,,,0.122222222,-0.192592593,1,0,0,0,133,133,190,1,goedkoop,images/br_goedkoop.png,images/cb_goedkoop.png,0,,,,,,,,,,,,,,,,,,,,,
,,,,,00050,2023-10-13_09h00.17.602,vbt_B1_day4,2022.2.4,Win32,59.95563283,,,,,,down,0,0.4895,,,0.122222222,-0.192592593,1,0,0,0,134,134,62,1,knaap,images/br_knaap.png,images/cb_knaap.png,0,,,,,,,,,,,,,,,,,,,,,
,,,,,00050,2023-10-13_09h00.17.602,vbt_B1_day4,2022.2.4,Win32,59.95563283,,,,,,down,0,1.0316,,,0.122222222,-0.192592593,1,0,0,0,135,135,129,1,verhaal,images/br_verhaal.png,images/cb_verhaal.png,0,,,,,,,,,,,,,,,,,,,,,
,,,,,00050,2023-10-13_09h00.17.602,vbt_B1_day4,2022.2.4,Win32,59.95563283,,,,,,down,0,0.7995,,,0.122222222,-0.192592593,1,0,0,0,136,136,83,1,mening,images/br_mening.png,images/cb_mening.png,0,,,,,,,,,,,,,,,,,,,,,
,,,,,00050,2023-10-13_09h00.17.602,vbt_B1_day4,2022.2.4,Win32,59.95563283,,,,,,down,0,0.1927,,,0.122222222,-0.192592593,1,0,0,0,137,137,18,1,blik,images/br_blik.png,images/cb_blik.png,0,,,,,,,,,,,,,,,,,,,,,
,,,,,00050,2023-10-13_09h00.17.602,vbt_B1_day4,2022.2.4,Win32,59.95563283,,,,,,down,0,2.2586,,,0.122222222,-0.192592593,1,0,0,0,138,138,192,1,schaamte,images/br_schaamte.png,images/cb_schaamte.png,0,,,,,,,,,,,,,,,,,,,,,
,,,,,00050,2023-10-13_09h00.17.602,vbt_B1_day4,2022.2.4,Win32,59.95563283,,,,,,down,0,1.4586,,,0.122222222,-0.192592593,1,0,0,0,139,139,55,1,praat,images/br_praat.png,images/cb_praat.png,0,,,,,,,,,,,,,,,,,,,,,
,,,,,00050,2023-10-13_09h00.17.602,vbt_B1_day4,2022.2.4,Win32,59.95563283,,,,,,down,0,0.5003,,,0.122222222,-0.192592593,1,0,0,0,140,140,16,1,ziek,images/br_ziek.png,images/cb_ziek.png,0,,,,,,,,,,,,,,,,,,,,,
,,,,,00050,2023-10-13_09h00.17.602,vbt_B1_day4,2022.2.4,Win32,59.95563283,,,,,,down,0,2.2981,plek,,0.122222222,-0.192592593,1,0,0,0,141,141,25,1,plek,images/br_plek.png,images/cb_plek.png,1,,,,,,,,,,,,,,,,,,,,,
,,,,,00050,2023-10-13_09h00.17.602,vbt_B1_day4,2022.2.4,Win32,59.95563283,,,,,,down,0,3.7822,,,0.122222222,-0.192592593,1,0,0,0,142,142,111,1,ticket,images/br_ticket.png,images/cb_ticket.png,0,,,,,,,,,,,,,,,,,,,,,
,,,,,00050,2023-10-13_09h00.17.602,vbt_B1_day4,2022.2.4,Win32,59.95563283,,,,,,down,0,1.9518,,,0.122222222,-0.192592593,1,0,0,0,143,143,161,1,attentie,images/br_attentie.png,images/cb_attentie.png,0,,,,,,,,,,,,,,,,,,,,,
,,,,,00050,2023-10-13_09h00.17.602,vbt_B1_day4,2022.2.4,Win32,59.95563283,,,,,,down,0,0.5493,,,0.122222222,-0.192592593,1,0,0,0,144,144,120,1,klimmen,images/br_klimmen.png,images/cb_klimmen.png,0,,,,,,,,,,,,,,,,,,,,,
,,,,,00050,2023-10-13_09h00.17.602,vbt_B1_day4,2022.2.4,Win32,59.95563283,,,,,,down,0,0.4248,dans,,0.122222222,-0.191666667,1,0,0,0,145,145,27,1,dans,images/br_dans.png,images/cb_dans.png,1,,,,,,,,,,,,,,,,,,,,,
,,,,,00050,2023-10-13_09h00.17.602,vbt_B1_day4,2022.2.4,Win32,59.95563283,,,,,,down,0,0.1999,,,0.122222222,-0.191666667,1,0,0,0,146,146,141,1,knielen,images/br_knielen.png,images/cb_knielen.png,0,,,,,,,,,,,,,,,,,,,,,
,,,,,00050,2023-10-13_09h00.17.602,vbt_B1_day4,2022.2.4,Win32,59.95563283,,,,,,down,0,1.5723,,,0.122222222,-0.190740741,1,0,0,0,147,147,196,1,nakijken,images/br_nakijken.png,images/cb_nakijken.png,0,,,,,,,,,,,,,,,,,,,,,
,,,,,00050,2023-10-13_09h00.17.602,vbt_B1_day4,2022.2.4,Win32,59.95563283,,,,,,down,0,0.1322,,,0.122222222,-0.190740741,1,0,0,0,148,148,12,1,kust,images/br_kust.png,images/cb_kust.png,0,,,,,,,,,,,,,,,,,,,,,
,,,,,00050,2023-10-13_09h00.17.602,vbt_B1_day4,2022.2.4,Win32,59.95563283,,,,,,down,0,1.005,,,0.122222222,-0.190740741,1,0,0,0,149,149,156,1,rechten,images/br_rechten.png,images/cb_rechten.png,0,,,,,,,,,,,,,,,,,,,,,
,,,,,00050,2023-10-13_09h00.17.602,vbt_B1_day4,2022.2.4,Win32,59.95563283,,,,,,down,0,0.3623,,,0.122222222,-0.190740741,1,0,0,0,150,150,19,1,geit,images/br_geit.png,images/cb_geit.png,0,,,,,,,,,,,,,,,,,,,,,
,,,,,00050,2023-10-13_09h00.17.602,vbt_B1_day4,2022.2.4,Win32,59.95563283,,,,,,down,0,0.5601,,,0.122222222,-0.190740741,1,0,0,0,151,151,113,1,koppen,images/br_koppen.png,images/cb_koppen.png,0,,,,,,,,,,,,,,,,,,,,,
,,,,,00050,2023-10-13_09h00.17.602,vbt_B1_day4,2022.2.4,Win32,59.95563283,,,,,,down,0,1.1721,,,0.122222222,-0.190740741,1,0,0,0,152,152,61,1,groen,images/br_groen.png,images/cb_groen.png,0,,,,,,,,,,,,,,,,,,,,,
,,,,,00050,2023-10-13_09h00.17.602,vbt_B1_day4,2022.2.4,Win32,59.95563283,,,,,,down,0,0.325,,,0.122222222,-0.190740741,1,0,0,0,153,153,10,1,leek,images/br_leek.png,images/cb_leek.png,0,,,,,,,,,,,,,,,,,,,,,
,,,,,00050,2023-10-13_09h00.17.602,vbt_B1_day4,2022.2.4,Win32,59.95563283,,,,,,down,0,2.9328,,,0.122222222,-0.190740741,1,0,0,0,154,154,160,1,daarheen,images/br_daarheen.png,images/cb_daarheen.png,0,,,,,,,,,,,,,,,,,,,,,
,,,,,00050,2023-10-13_09h00.17.602,vbt_B1_day4,2022.2.4,Win32,59.95563283,,,,,,down,0,5.581,,,0.122222222,-0.190740741,1,0,0,0,155,155,165,1,feestdag,images/br_feestdag.png,images/cb_feestdag.png,0,,,,,,,,,,,,,,,,,,,,,
,,,,,00050,2023-10-13_09h00.17.602,vbt_B1_day4,2022.2.4,Win32,59.95563283,,,,,,down,0,1.1297,,,0.122222222,-0.190740741,1,0,0,0,156,156,60,1,jasje,images/br_jasje.png,images/cb_jasje.png,0,,,,,,,,,,,,,,,,,,,,,
,,,,,00050,2023-10-13_09h00.17.602,vbt_B1_day4,2022.2.4,Win32,59.95563283,,,,,,down,0,0.6115,,,0.122222222,-0.190740741,1,0,0,0,157,157,4,1,moes,images/br_moes.png,images/cb_moes.png,0,,,,,,,,,,,,,,,,,,,,,
,,,,,00050,2023-10-13_09h00.17.602,vbt_B1_day4,2022.2.4,Win32,59.95563283,,,,,,down,0,0.5362,,,0.122222222,-0.190740741,1,0,0,0,158,158,82,1,muziek,images/br_muziek.png,images/cb_muziek.png,0,,,,,,,,,,,,,,,,,,,,,
,,,,,00050,2023-10-13_09h00.17.602,vbt_B1_day4,2022.2.4,Win32,59.95563283,,,,,,down,0,0.9694,,,0.122222222,-0.190740741,1,0,0,0,159,159,175,1,heengaan,images/br_heengaan.png,images/cb_heengaan.png,0,,,,,,,,,,,,,,,,,,,,,
,,,,,00050,2023-10-13_09h00.17.602,vbt_B1_day4,2022.2.4,Win32,59.95563283,,,,,,down,0,2.6064,,,0.122222222,-0.190740741,1,0,0,0,160,160,118,1,vinger,images/br_vinger.png,images/cb_vinger.png,0,,,,,,,,,,,,,,,,,,,,,
,,,,,00050,2023-10-13_09h00.17.602,vbt_B1_day4,2022.2.4,Win32,59.95563283,,,,,,down,0,1.0053,,,0.122222222,-0.190740741,1,0,0,0,161,161,155,1,gerucht,images/br_gerucht.png,images/cb_gerucht.png,0,,,,,,,,,,,,,,,,,,,,,
,,,,,00050,2023-10-13_09h00.17.602,vbt_B1_day4,2022.2.4,Win32,59.95563283,,,,,,down,0,0.3048,,,0.122222222,-0.190740741,1,0,0,0,162,162,7,1,geld,images/br_geld.png,images/cb_geld.png,0,,,,,,,,,,,,,,,,,,,,,
,,,,,00050,2023-10-13_09h00.17.602,vbt_B1_day4,2022.2.4,Win32,59.95563283,,,,,,down,0,1.277,,,0.122222222,-0.190740741,1,0,0,0,163,163,77,1,woede,images/br_woede.png,images/cb_woede.png,0,,,,,,,,,,,,,,,,,,,,,
,,,,,00050,2023-10-13_09h00.17.602,vbt_B1_day4,2022.2.4,Win32,59.95563283,,,,,,down,0,0.5004,opkijken,,0.124074074,-0.187962963,1,0,0,0,164,164,187,1,opkijken,images/br_opkijken.png,images/cb_opkijken.png,1,,,,,,,,,,,,,,,,,,,,,
,,,,,00050,2023-10-13_09h00.17.602,vbt_B1_day4,2022.2.4,Win32,59.95563283,,,,,,down,0,0.7594,voorraad,,0.124074074,-0.187962963,1,0,0,0,165,165,186,1,voorraad,images/br_voorraad.png,images/cb_voorraad.png,1,,,,,,,,,,,,,,,,,,,,,
,,,,,00050,2023-10-13_09h00.17.602,vbt_B1_day4,2022.2.4,Win32,59.95563283,,,,,,down,0,0.5832,zweven,,0.124074074,-0.187962963,1,0,0,0,166,166,104,1,zweven,images/br_zweven.png,images/cb_zweven.png,1,,,,,,,,,,,,,,,,,,,,,
,,,,,00050,2023-10-13_09h00.17.602,vbt_B1_day4,2022.2.4,Win32,59.95563283,,,,,,down,0,0.5192,,,0.124074074,-0.187962963,1,0,0,0,167,167,78,1,leren,images/br_leren.png,images/cb_leren.png,0,,,,,,,,,,,,,,,,,,,,,
,,,,,00050,2023-10-13_09h00.17.602,vbt_B1_day4,2022.2.4,Win32,59.95563283,,,,,,down,0,1.2548,jurk,,0.124074074,-0.187962963,1,0,0,0,168,168,24,1,jurk,images/br_jurk.png,images/cb_jurk.png,1,,,,,,,,,,,,,,,,,,,,,
,,,,,00050,2023-10-13_09h00.17.602,vbt_B1_day4,2022.2.4,Win32,59.95563283,,,,,,down,0,0.1361,,,0.124074074,-0.187962963,1,0,0,0,169,169,80,1,kanjer,images/br_kanjer.png,images/cb_kanjer.png,0,,,,,,,,,,,,,,,,,,,,,
,,,,,00050,2023-10-13_09h00.17.602,vbt_B1_day4,2022.2.4,Win32,59.95563283,,,,,,down,0,1.6989,,,0.124074074,-0.187962963,1,0,0,0,170,170,167,1,eenhoorn,images/br_eenhoorn.png,images/cb_eenhoorn.png,0,,,,,,,,,,,,,,,,,,,,,
,,,,,00050,2023-10-13_09h00.17.602,vbt_B1_day4,2022.2.4,Win32,59.95563283,,,,,,down,0,3.9474,,,0.124074074,-0.187962963,1,0,0,0,171,171,183,1,getuigen,images/br_getuigen.png,images/cb_getuigen.png,0,,,,,,,,,,,,,,,,,,,,,
,,,,,00050,2023-10-13_09h00.17.602,vbt_B1_day4,2022.2.4,Win32,59.95563283,,,,,,down,0,0.8904,,,0.125,-0.183333333,1,0,0,0,172,172,51,1,samen,images/br_samen.png,images/cb_samen.png,0,,,,,,,,,,,,,,,,,,,,,
,,,,,00050,2023-10-13_09h00.17.602,vbt_B1_day4,2022.2.4,Win32,59.95563283,,,,,,down,0,0.5408,,,0.125,-0.183333333,1,0,0,0,173,173,48,1,steel,images/br_steel.png,images/cb_steel.png,0,,,,,,,,,,,,,,,,,,,,,
,,,,,00050,2023-10-13_09h00.17.602,vbt_B1_day4,2022.2.4,Win32,59.95563283,,,,,,down,0,0.1251,,,0.125,-0.183333333,1,0,0,0,174,174,49,1,laken,images/br_laken.png,images/cb_laken.png,0,,,,,,,,,,,,,,,,,,,,,
,,,,,00050,2023-10-13_09h00.17.602,vbt_B1_day4,2022.2.4,Win32,59.95563283,,,,,,down,0,0.4878,,,0.125,-0.183333333,1,0,0,0,175,175,8,1,knie,images/br_knie.png,images/cb_knie.png,0,,,,,,,,,,,,,,,,,,,,,
,,,,,00050,2023-10-13_09h00.17.602,vbt_B1_day4,2022.2.4,Win32,59.95563283,,,,,,down,0,0.8736,,,0.125,-0.183333333,1,0,0,0,176,176,101,1,staren,images/br_staren.png,images/cb_staren.png,0,,,,,,,,,,,,,,,,,,,,,
,,,,,00050,2023-10-13_09h00.17.602,vbt_B1_day4,2022.2.4,Win32,59.95563283,,,,,,down,0,0.138,,,0.125,-0.183333333,1,0,0,0,177,177,96,1,slagen,images/br_slagen.png,images/cb_slagen.png,0,,,,,,,,,,,,,,,,,,,,,
,,,,,00050,2023-10-13_09h00.17.602,vbt_B1_day4,2022.2.4,Win32,59.95563283,,,,,,down,0,1.5896,,,0.125,-0.183333333,1,0,0,0,178,178,170,1,schatten,images/br_schatten.png,images/cb_schatten.png,0,,,,,,,,,,,,,,,,,,,,,
,,,,,00050,2023-10-13_09h00.17.602,vbt_B1_day4,2022.2.4,Win32,59.95563283,,,,,,down,0,1.5745,,,0.125,-0.183333333,1,0,0,0,179,179,125,1,aanzien,images/br_aanzien.png,images/cb_aanzien.png,0,,,,,,,,,,,,,,,,,,,,,
,,,,,00050,2023-10-13_09h00.17.602,vbt_B1_day4,2022.2.4,Win32,59.95563283,,,,,,down,0,0.267,,,0.125,-0.183333333,1,0,0,0,180,180,34,1,vorm,images/br_vorm.png,images/cb_vorm.png,0,,,,,,,,,,,,,,,,,,,,,
,,,,,00050,2023-10-13_09h00.17.602,vbt_B1_day4,2022.2.4,Win32,59.95563283,,,,,,down,0,0.6323,,,0.125,-0.183333333,1,0,0,0,181,181,70,1,ijdel,images/br_ijdel.png,images/cb_ijdel.png,0,,,,,,,,,,,,,,,,,,,,,
,,,,,00050,2023-10-13_09h00.17.602,vbt_B1_day4,2022.2.4,Win32,59.95563283,,,,,,down,0,1.449,,,0.125,-0.183333333,1,0,0,0,182,182,136,1,waarbij,images/br_waarbij.png,images/cb_waarbij.png,0,,,,,,,,,,,,,,,,,,,,,
,,,,,00050,2023-10-13_09h00.17.602,vbt_B1_day4,2022.2.4,Win32,59.95563283,,,,,,down,0,0.1617,,,0.125,-0.183333333,1,0,0,0,183,183,79,1,nodig,images/br_nodig.png,images/cb_nodig.png,0,,,,,,,,,,,,,,,,,,,,,
,,,,,00050,2023-10-13_09h00.17.602,vbt_B1_day4,2022.2.4,Win32,59.95563283,,,,,,down,0,0.5334,,,0.125,-0.183333333,1,0,0,0,184,184,38,1,baai,images/br_baai.png,images/cb_baai.png,0,,,,,,,,,,,,,,,,,,,,,
,,,,,00050,2023-10-13_09h00.17.602,vbt_B1_day4,2022.2.4,Win32,59.95563283,,,,,,down,0,1.3782,,,0.125,-0.183333333,1,0,0,0,185,185,30,1,uien,images/br_uien.png,images/cb_uien.png,0,,,,,,,,,,,,,,,,,,,,,
,,,,,00050,2023-10-13_09h00.17.602,vbt_B1_day4,2022.2.4,Win32,59.95563283,,,,,,down,0,0.0243,,,0.125,-0.183333333,1,0,0,0,186,186,35,1,lust,images/br_lust.png,images/cb_lust.png,0,,,,,,,,,,,,,,,,,,,,,
,,,,,00050,2023-10-13_09h00.17.602,vbt_B1_day4,2022.2.4,Win32,59.95563283,,,,,,down,0,1.3917,,,0.125,-0.183333333,1,0,0,0,187,187,195,1,middelen,images/br_middelen.png,images/cb_middelen.png,0,,,,,,,,,,,,,,,,,,,,,
,,,,,00050,2023-10-13_09h00.17.602,vbt_B1_day4,2022.2.4,Win32,59.95563283,,,,,,down,0,0.0638,,,0.125,-0.183333333,1,0,0,0,188,188,148,1,smullen,images/br_smullen.png,images/cb_smullen.png,0,,,,,,,,,,,,,,,,,,,,,
,,,,,00050,2023-10-13_09h00.17.602,vbt_B1_day4,2022.2.4,Win32,59.95563283,,,,,,down,0,0.3185,,,0.125,-0.183333333,1,0,0,0,189,189,63,1,flirt,images/br_flirt.png,images/cb_flirt.png,0,,,,,,,,,,,,,,,,,,,,,
,,,,,00050,2023-10-13_09h00.17.602,vbt_B1_day4,2022.2.4,Win32,59.95563283,,,,,,down,0,4.9745,,,0.125,-0.183333333,1,0,0,0,190,190,110,1,zuster,images/br_zuster.png,images/cb_zuster.png,0,,,,,,,,,,,,,,,,,,,,,
,,,,,00050,2023-10-13_09h00.17.602,vbt_B1_day4,2022.2.4,Win32,59.95563283,,,,,,down,0,1.41,,,0.125,-0.183333333,1,0,0,0,191,191,137,1,trekker,images/br_trekker.png,images/cb_trekker.png,0,,,,,,,,,,,,,,,,,,,,,
,,,,,00050,2023-10-13_09h00.17.602,vbt_B1_day4,2022.2.4,Win32,59.95563283,,,,,,down,0,0.8893,,,0.125,-0.183333333,1,0,0,0,192,192,132,1,grappen,images/br_grappen.png,images/cb_grappen.png,0,,,,,,,,,,,,,,,,,,,,,
,,,,,00050,2023-10-13_09h00.17.602,vbt_B1_day4,2022.2.4,Win32,59.95563283,,,,,,down,0,0.9552,,,0.125,-0.183333333,1,0,0,0,193,193,86,1,woning,images/br_woning.png,images/cb_woning.png,0,,,,,,,,,,,,,,,,,,,,,
,,,,,00050,2023-10-13_09h00.17.602,vbt_B1_day4,2022.2.4,Win32,59.95563283,,,,,,down,0,0.775,,,0.125,-0.183333333,1,0,0,0,194,194,84,1,lokken,images/br_lokken.png,images/cb_lokken.png,0,,,,,,,,,,,,,,,,,,,,,
,,,,,00050,2023-10-13_09h00.17.602,vbt_B1_day4,2022.2.4,Win32,59.95563283,,,,,,down,0,1.1765,,,0.125,-0.183333333,1,0,0,0,195,195,124,1,bloeien,images/br_bloeien.png,images/cb_bloeien.png,0,,,,,,,,,,,,,,,,,,,,,
,,,,,00050,2023-10-13_09h00.17.602,vbt_B1_day4,2022.2.4,Win32,59.95563283,,,,,,down,0,0.216,,,0.125,-0.183333333,1,0,0,0,196,196,199,1,beseffen,images/br_beseffen.png,images/cb_beseffen.png,0,,,,,,,,,,,,,,,,,,,,,
,,,,,00050,2023-10-13_09h00.17.602,vbt_B1_day4,2022.2.4,Win32,59.95563283,,,,,,down,0,0.4765,,,0.125,-0.183333333,1,0,0,0,197,197,29,1,baas,images/br_baas.png,images/cb_baas.png,0,,,,,,,,,,,,,,,,,,,,,
,,,,,00050,2023-10-13_09h00.17.602,vbt_B1_day4,2022.2.4,Win32,59.95563283,,,,,,down,0,0.7925,,,0.125,-0.183333333,1,0,0,0,198,198,39,1,laag,images/br_laag.png,images/cb_laag.png,0,,,,,,,,,,,,,,,,,,,,,
,,,,,00050,2023-10-13_09h00.17.602,vbt_B1_day4,2022.2.4,Win32,59.95563283,,,,,,down,0,0.2515,,,0.125,-0.183333333,1,0,0,0,199,199,0,1,slak,images/br_slak.png,images/cb_slak.png,0,,,,,,,,,,,,,,,,,,,,,
,,,,,00050,2023-10-13_09h00.17.602,vbt_B1_day4,2022.2.4,Win32,59.95563283,,,,,,,,,,,,,,,,,,,,,,,,,0.189814815,-0.192592593,1,0,0,,,,,,,,,,,,,,,,
,,,,,00050,2023-10-13_09h00.17.602,vbt_B1_day4,2022.2.4,Win32,59.95563283,,,,,,,,,,,,,,,,,,,,,,,,,,,,,,0.194444444,-0.186111111,1,0,0,,,,,,,,,,,
,,,,,00050,2023-10-13_09h00.17.602,vbt_B1_day4,2022.2.4,Win32,59.95563283,,,,,,,,,schi....,,,,,,,,,,,,schenden,images/br_schenden.png,images/cb_schenden.png,,,,,,,,,,,,0.377777778,-0.264814815,1,0,0,schi....,0,0,0,57,1
,,,,,00050,2023-10-13_09h00.17.602,vbt_B1_day4,2022.2.4,Win32,59.95563283,,,,,,,,,toevol,,,,,,,,,,,,toevol,images/br_toevol.png,images/cb_toevol.png,,,,,,,,,,,,0.377777778,-0.264814815,1,0,0,toevol,0,1,1,29,1
,,,,,00050,2023-10-13_09h00.17.602,vbt_B1_day4,2022.2.4,Win32,59.95563283,,,,,,,,,getucht,,,,,,,,,,,,getucht,images/br_getucht.png,images/cb_getucht.png,,,,,,,,,,,,0.377777778,-0.264814815,1,0,0,getucht,0,2,2,35,1
,,,,,00050,2023-10-13_09h00.17.602,vbt_B1_day4,2022.2.4,Win32,59.95563283,,,,,,,,,haza,,,,,,,,,,,,haza,images/br_haza.png,images/cb_haza.png,,,,,,,,,,,,0.377777778,-0.264814815,1,0,0,haza,0,3,3,21,1
,,,,,00050,2023-10-13_09h00.17.602,vbt_B1_day4,2022.2.4,Win32,59.95563283,,,,,,,,,heengaan,,,,,,,,,,,,heengaan,images/br_heengaan.png,images/cb_heengaan.png,,,,,,,,,,,,0.377777778,-0.262037037,1,0,0,heengaan,0,4,4,19,1
,,,,,00050,2023-10-13_09h00.17.602,vbt_B1_day4,2022.2.4,Win32,59.95563283,,,,,,,,,fran,,,,,,,,,,,,fran,images/br_fran.png,images/cb_fran.png,,,,,,,,,,,,0.377777778,-0.262037037,1,0,0,fran,0,5,5,22,1
,,,,,00050,2023-10-13_09h00.17.602,vbt_B1_day4,2022.2.4,Win32,59.95563283,,,,,,,,,soda,,,,,,,,,,,,soda,images/br_soda.png,images/cb_soda.png,,,,,,,,,,,,0.377777778,-0.262037037,1,0,0,soda,0,6,6,3,1
,,,,,00050,2023-10-13_09h00.17.602,vbt_B1_day4,2022.2.4,Win32,59.95563283,,,,,,,,,strok,,,,,,,,,,,,strok,images/br_strok.png,images/cb_strok.png,,,,,,,,,,,,0.377777778,-0.262037037,1,0,0,strok,0,7,7,25,1
,,,,,00050,2023-10-13_09h00.17.602,vbt_B1_day4,2022.2.4,Win32,59.95563283,,,,,,,,,grappen,,,,,,,,,,,,grappen,images/br_grappen.png,images/cb_grappen.png,,,,,,,,,,,,0.377777778,-0.262037037,1,0,0,grappen,0,8,8,12,1
,,,,,00050,2023-10-13_09h00.17.602,vbt_B1_day4,2022.2.4,Win32,59.95563283,,,,,,,,,snee,,,,,,,,,,,,snee,images/br_snee.png,images/cb_snee.png,,,,,,,,,,,,0.377777778,-0.262037037,1,0,0,snee,0,9,9,40,1
,,,,,00050,2023-10-13_09h00.17.602,vbt_B1_day4,2022.2.4,Win32,59.95563283,,,,,,,,,seizoon,,,,,,,,,,,,seizoon,images/br_seizoon.png,images/cb_seizoon.png,,,,,,,,,,,,0.377777778,-0.262037037,1,0,0,seizoon,0,10,10,33,1
,,,,,00050,2023-10-13_09h00.17.602,vbt_B1_day4,2022.2.4,Win32,59.95563283,,,,,,,,,dozijn,,,,,,,,,,,,dozijn,images/br_dozijn.png,images/cb_dozijn.png,,,,,,,,,,,,0.377777778,-0.262037037,1,0,0,dozijn,0,11,11,48,1
,,,,,00050,2023-10-13_09h00.17.602,vbt_B1_day4,2022.2.4,Win32,59.95563283,,,,,,,,,baron,,,,,,,,,,,,baron,images/br_baron.png,images/cb_baron.png,,,,,,,,,,,,0.377777778,-0.262037037,1,0,0,baron,0,12,12,5,1
,,,,,00050,2023-10-13_09h00.17.602,vbt_B1_day4,2022.2.4,Win32,59.95563283,,,,,,,,,bruin,,,,,,,,,,,,bruin,images/br_bruin.png,images/cb_bruin.png,,,,,,,,,,,,0.377777778,-0.262037037,1,0,0,bruin,0,13,13,45,1
,,,,,00050,2023-10-13_09h00.17.602,vbt_B1_day4,2022.2.4,Win32,59.95563283,,,,,,,,,steen,,,,,,,,,,,,steen,images/br_steen.png,images/cb_steen.png,,,,,,,,,,,,0.377777778,-0.262037037,1,0,0,steen,0,14,14,44,1
,,,,,00050,2023-10-13_09h00.17.602,vbt_B1_day4,2022.2.4,Win32,59.95563283,,,,,,,,,opkicht,,,,,,,,,,,,opkicht,images/br_opkicht.png,images/cb_opkicht.png,,,,,,,,,,,,0.377777778,-0.262037037,1,0,0,opkicht,0,15,15,34,1
,,,,,00050,2023-10-13_09h00.17.602,vbt_B1_day4,2022.2.4,Win32,59.95563283,,,,,,,,,rijp,,,,,,,,,,,,rijp,images/br_rijp.png,images/cb_rijp.png,,,,,,,,,,,,0.377777778,-0.262037037,1,0,0,rijp,0,16,16,2,1
,,,,,00050,2023-10-13_09h00.17.602,vbt_B1_day4,2022.2.4,Win32,59.95563283,,,,,,,,,pijnlijk,,,,,,,,,,,,pijnlijk,images/br_pijnlijk.png,images/cb_pijnlijk.png,,,,,,,,,,,,0.377777778,-0.262037037,1,0,0,pijnlijk,0,17,17,58,1
,,,,,00050,2023-10-13_09h00.17.602,vbt_B1_day4,2022.2.4,Win32,59.95563283,,,,,,,,,drooien,,,,,,,,,,,,drooien,images/br_drooien.png,images/cb_drooien.png,,,,,,,,,,,,0.377777778,-0.262037037,1,0,0,drooien,0,18,18,32,1
,,,,,00050,2023-10-13_09h00.17.602,vbt_B1_day4,2022.2.4,Win32,59.95563283,,,,,,,,,noodzaak,,,,,,,,,,,,noodzaak,images/br_noodzaak.png,images/cb_noodzaak.png,,,,,,,,,,,,0.377777778,-0.262037037,1,0,0,noodzaak,0,19,19,56,1
,,,,,00050,2023-10-13_09h00.17.602,vbt_B1_day4,2022.2.4,Win32,59.95563283,,,,,,,,,zaalrijk,,,,,,,,,,,,zaalrijk,images/br_zaalrijk.png,images/cb_zaalrijk.png,,,,,,,,,,,,0.377777778,-0.261111111,1,0,0,zaalrijk,0,20,20,37,1
,,,,,00050,2023-10-13_09h00.17.602,vbt_B1_day4,2022.2.4,Win32,59.95563283,,,,,,,,,stemming,,,,,,,,,,,,stemming,images/br_stemming.png,images/cb_stemming.png,,,,,,,,,,,,0.377777778,-0.261111111,1,0,0,stemming,0,21,21,18,1
,,,,,00050,2023-10-13_09h00.17.602,vbt_B1_day4,2022.2.4,Win32,59.95563283,,,,,,,,,lappen,,,,,,,,,,,,lappen,images/br_lappen.png,images/cb_lappen.png,,,,,,,,,,,,0.377777778,-0.261111111,1,0,0,lappen,0,22,22,49,1
,,,,,00050,2023-10-13_09h00.17.602,vbt_B1_day4,2022.2.4,Win32,59.95563283,,,,,,,,,dalen,,,,,,,,,,,,dalen,images/br_dalen.png,images/cb_dalen.png,,,,,,,,,,,,0.377777778,-0.261111111,1,0,0,dalen,0,23,23,46,1
,,,,,00050,2023-10-13_09h00.17.602,vbt_B1_day4,2022.2.4,Win32,59.95563283,,,,,,,,,eerst,,,,,,,,,,,,eerst,images/br_eerst.png,images/cb_eerst.png,,,,,,,,,,,,0.377777778,-0.261111111,1,0,0,eerst,0,24,24,47,1
,,,,,00050,2023-10-13_09h00.17.602,vbt_B1_day4,2022.2.4,Win32,59.95563283,,,,,,,,,drummer,,,,,,,,,,,,drummer,images/br_drummer.png,images/cb_drummer.png,,,,,,,,,,,,0.377777778,-0.261111111,1,0,0,drummer,0,25,25,53,1
,,,,,00050,2023-10-13_09h00.17.602,vbt_B1_day4,2022.2.4,Win32,59.95563283,,,,,,,,,zwek,,,,,,,,,,,,zwek,images/br_zwek.png,images/cb_zwek.png,,,,,,,,,,,,0.377777778,-0.261111111,1,0,0,zwek,0,26,26,20,1
,,,,,00050,2023-10-13_09h00.17.602,vbt_B1_day4,2022.2.4,Win32,59.95563283,,,,,,,,,seizoen,,,,,,,,,,,,seizoen,images/br_seizoen.png,images/cb_seizoen.png,,,,,,,,,,,,0.377777778,-0.261111111,1,0,0,seizoen,0,27,27,13,1
,,,,,00050,2023-10-13_09h00.17.602,vbt_B1_day4,2022.2.4,Win32,59.95563283,,,,,,,,,apparaat,,,,,,,,,,,,apparaat,images/br_apparaat.png,images/cb_apparaat.png,,,,,,,,,,,,0.377777778,-0.261111111,1,0,0,apparaat,0,28,28,17,1
,,,,,00050,2023-10-13_09h00.17.602,vbt_B1_day4,2022.2.4,Win32,59.95563283,,,,,,,,,gaaf,,,,,,,,,,,,gaaf,images/br_gaaf.png,images/cb_gaaf.png,,,,,,,,,,,,0.377777778,-0.261111111,1,0,0,gaaf,0,29,29,43,1
,,,,,00050,2023-10-13_09h00.17.602,vbt_B1_day4,2022.2.4,Win32,59.95563283,,,,,,,,,weigeren,,,,,,,,,,,,weigeren,images/br_weigeren.png,images/cb_weigeren.png,,,,,,,,,,,,0.377777778,-0.261111111,1,0,0,weigeren,0,30,30,16,1
,,,,,00050,2023-10-13_09h00.17.602,vbt_B1_day4,2022.2.4,Win32,59.95563283,,,,,,,,,wagon,,,,,,,,,,,,wagon,images/br_wagon.png,images/cb_wagon.png,,,,,,,,,,,,0.377777778,-0.261111111,1,0,0,wagon,0,31,31,4,1
,,,,,00050,2023-10-13_09h00.17.602,vbt_B1_day4,2022.2.4,Win32,59.95563283,,,,,,,,,midden,,,,,,,,,,,,midden,images/br_midden.png,images/cb_midden.png,,,,,,,,,,,,0.377777778,-0.261111111,1,0,0,midden,0,32,32,50,1
,,,,,00050,2023-10-13_09h00.17.602,vbt_B1_day4,2022.2.4,Win32,59.95563283,,,,,,,,,gaan,,,,,,,,,,,,gaan,images/br_gaan.png,images/cb_gaan.png,,,,,,,,,,,,0.377777778,-0.261111111,1,0,0,gaan,0,33,33,41,1
,,,,,00050,2023-10-13_09h00.17.602,vbt_B1_day4,2022.2.4,Win32,59.95563283,,,,,,,,,mulbon,,,,,,,,,,,,sulbon,images/br_sulbon.png,images/cb_sulbon.png,,,,,,,,,,,,0.377777778,-0.261111111,1,0,0,mulbon,0,34,34,31,1
,,,,,00050,2023-10-13_09h00.17.602,vbt_B1_day4,2022.2.4,Win32,59.95563283,,,,,,,,,vreten,,,,,,,,,,,,vreten,images/br_vreten.png,images/cb_vreten.png,,,,,,,,,,,,0.377777778,-0.261111111,1,0,0,vreten,0,35,35,11,1
,,,,,00050,2023-10-13_09h00.17.602,vbt_B1_day4,2022.2.4,Win32,59.95563283,,,,,,,,,flippen,,,,,,,,,,,,flippen,images/br_flippen.png,images/cb_flippen.png,,,,,,,,,,,,0.377777778,-0.261111111,1,0,0,flippen,0,36,36,54,1
,,,,,00050,2023-10-13_09h00.17.602,vbt_B1_day4,2022.2.4,Win32,59.95563283,,,,,,,,,ezel,,,,,,,,,,,,ezel,images/br_ezel.png,images/cb_ezel.png,,,,,,,,,,,,0.377777778,-0.261111111,1,0,0,ezel,0,37,37,42,1
,,,,,00050,2023-10-13_09h00.17.602,vbt_B1_day4,2022.2.4,Win32,59.95563283,,,,,,,,,broodje,,,,,,,,,,,,broodje,images/br_broodje.png,images/cb_broodje.png,,,,,,,,,,,,0.377777778,-0.261111111,1,0,0,broodje,0,38,38,55,1
,,,,,00050,2023-10-13_09h00.17.602,vbt_B1_day4,2022.2.4,Win32,59.95563283,,,,,,,,,opruimen,,,,,,,,,,,,opruimen,images/br_opruimen.png,images/cb_opruimen.png,,,,,,,,,,,,0.377777778,-0.261111111,1,0,0,opruimen,0,39,39,59,1
,,,,,00050,2023-10-13_09h00.17.602,vbt_B1_day4,2022.2.4,Win32,59.95563283,,,,,,,,,gedicht,,,,,,,,,,,,gedicht,images/br_gedicht.png,images/cb_gedicht.png,,,,,,,,,,,,0.377777778,-0.261111111,1,0,0,gedicht,0,40,40,15,1
,,,,,00050,2023-10-13_09h00.17.602,vbt_B1_day4,2022.2.4,Win32,59.95563283,,,,,,,,,praat,,,,,,,,,,,,praat,images/br_praat.png,images/cb_praat.png,,,,,,,,,,,,0.377777778,-0.261111111,1,0,0,praat,0,41,41,7,1
,,,,,00050,2023-10-13_09h00.17.602,vbt_B1_day4,2022.2.4,Win32,59.95563283,,,,,,,,,kust,,,,,,,,,,,,kust,images/br_kust.png,images/cb_kust.png,,,,,,,,,,,,0.377777778,-0.261111111,1,0,0,kust,0,42,42,0,1
,,,,,00050,2023-10-13_09h00.17.602,vbt_B1_day4,2022.2.4,Win32,59.95563283,,,,,,,,,tucket,,,,,,,,,,,,tucket,images/br_tucket.png,images/cb_tucket.png,,,,,,,,,,,,0.377777778,-0.261111111,1,0,0,tucket,0,43,43,30,1
,,,,,00050,2023-10-13_09h00.17.602,vbt_B1_day4,2022.2.4,Win32,59.95563283,,,,,,,,,pittig,,,,,,,,,,,,pittig,images/br_pittig.png,images/cb_pittig.png,,,,,,,,,,,,0.377777778,-0.261111111,1,0,0,pittig,0,44,44,51,1
,,,,,00050,2023-10-13_09h00.17.602,vbt_B1_day4,2022.2.4,Win32,59.95563283,,,,,,,,,oceaan,,,,,,,,,,,,oceaan,images/br_oceaan.png,images/cb_oceaan.png,,,,,,,,,,,,0.377777778,-0.261111111,1,0,0,oceaan,0,45,45,10,1
,,,,,00050,2023-10-13_09h00.17.602,vbt_B1_day4,2022.2.4,Win32,59.95563283,,,,,,,,,aanzwaag,,,,,,,,,,,,aanzwaag,images/br_aanzwaag.png,images/cb_aanzwaag.png,,,,,,,,,,,,0.377777778,-0.261111111,1,0,0,aanzwaag,0,46,46,38,1
,,,,,00050,2023-10-13_09h00.17.602,vbt_B1_day4,2022.2.4,Win32,59.95563283,,,,,,,,,geliefd,,,,,,,,,,,,geliefd,images/br_geliefd.png,images/cb_geliefd.png,,,,,,,,,,,,0.377777778,-0.261111111,1,0,0,geliefd,0,47,47,14,1
,,,,,00050,2023-10-13_09h00.17.602,vbt_B1_day4,2022.2.4,Win32,59.95563283,,,,,,,,,waarop,,,,,,,,,,,,waarop,images/br_waarop.png,images/cb_waarop.png,,,,,,,,,,,,0.377777778,-0.261111111,1,0,0,waarop,0,48,48,9,1
,,,,,00050,2023-10-13_09h00.17.602,vbt_B1_day4,2022.2.4,Win32,59.95563283,,,,,,,,,schotel,,,,,,,,,,,,schotel,images/br_schotel.png,images/cb_schotel.png,,,,,,,,,,,,0.377777778,-0.261111111,1,0,0,schotel,0,49,49,52,1
,,,,,00050,2023-10-13_09h00.17.602,vbt_B1_day4,2022.2.4,Win32,59.95563283,,,,,,,,,bisschap,,,,,,,,,,,,bisschap,images/br_bisschap.png,images/cb_bisschap.png,,,,,,,,,,,,0.377777778,-0.261111111,1,0,0,bisschap,0,50,50,36,1
,,,,,00050,2023-10-13_09h00.17.602,vbt_B1_day4,2022.2.4,Win32,59.95563283,,,,,,,,,geheim,,,,,,,,,,,,geheim,images/br_geheim.png,images/cb_geheim.png,,,,,,,,,,,,0.377777778,-0.261111111,1,0,0,geheim,0,51,51,8,1
,,,,,00050,2023-10-13_09h00.17.602,vbt_B1_day4,2022.2.4,Win32,59.95563283,,,,,,,,,gebit,,,,,,,,,,,,gebit,images/br_gebit.png,images/cb_gebit.png,,,,,,,,,,,,0.377777778,-0.261111111,1,0,0,gebit,0,52,52,6,1
,,,,,00050,2023-10-13_09h00.17.602,vbt_B1_day4,2022.2.4,Win32,59.95563283,,,,,,,,,gebog,,,,,,,,,,,,gebog,images/br_gebog.png,images/cb_gebog.png,,,,,,,,,,,,0.377777778,-0.261111111,1,0,0,gebog,0,53,53,24,1
,,,,,00050,2023-10-13_09h00.17.602,vbt_B1_day4,2022.2.4,Win32,59.95563283,,,,,,,,,kaal,,,,,,,,,,,,kaal,images/br_kaal.png,images/cb_kaal.png,,,,,,,,,,,,0.377777778,-0.261111111,1,0,0,kaal,0,54,54,1,1
,,,,,00050,2023-10-13_09h00.17.602,vbt_B1_day4,2022.2.4,Win32,59.95563283,,,,,,,,,warel,,,,,,,,,,,,warel,images/br_warel.png,images/cb_warel.png,,,,,,,,,,,,0.377777778,-0.261111111,1,0,0,warel,0,55,55,26,1
,,,,,00050,2023-10-13_09h00.17.602,vbt_B1_day4,2022.2.4,Win32,59.95563283,,,,,,,,,gijf,,,,,,,,,,,,gijf,images/br_gijf.png,images/cb_gijf.png,,,,,,,,,,,,0.377777778,-0.261111111,1,0,0,gijf,0,56,56,23,1
,,,,,00050,2023-10-13_09h00.17.602,vbt_B1_day4,2022.2.4,Win32,59.95563283,,,,,,,,,wozing,,,,,,,,,,,,wozing,images/br_wozing.png,images/cb_wozing.png,,,,,,,,,,,,0.377777778,-0.261111111,1,0,0,wozing,0,57,57,28,1
,,,,,00050,2023-10-13_09h00.17.602,vbt_B1_day4,2022.2.4,Win32,59.95563283,,,,,,,,,mekst,,,,,,,,,,,,mekst,images/br_mekst.png,images/cb_mekst.png,,,,,,,,,,,,0.377777778,-0.261111111,1,0,0,mekst,0,58,58,27,1
,,,,,00050,2023-10-13_09h00.17.602,vbt_B1_day4,2022.2.4,Win32,59.95563283,,,,,,,,,paalbaak,,,,,,,,,,,,paalbaak,images/br_paalbaak.png,images/cb_paalbaak.png,,,,,,,,,,,,0.377777778,-0.261111111,1,0,0,paalbaak,0,59,59,39,1
,,,,,00050,2023-10-13_09h00.17.602,vbt_B1_day4,2022.2.4,Win32,59.95563283,,,,,,,,,,,,,,,,,,,,,,,,,,,,,,,,,,,,,,,,,,,,,
