welcome_mouse.x,welcome_mouse.y,welcome_mouse.leftButton,welcome_mouse.midButton,welcome_mouse.rightButton,"ID",date,expName,psychopyVersion,OS,frameRate,trainInstr_mouse.x,trainInstr_mouse.y,trainInstr_mouse.leftButton,trainInstr_mouse.midButton,trainInstr_mouse.rightButton,translation_key.keys,translation_key.corr,translation_key.rt,word_rsp.text,trWrd_mouse.x,trWrd_mouse.y,trWrd_mouse.leftButton,trWrd_mouse.midButton,trWrd_mouse.rightButton,train_loop.thisRepN,train_loop.thisTrialN,train_loop.thisN,train_loop.thisIndex,train_loop.ran,nlWrd,brWrd,cbWrd,test,testResp,mouse.x,mouse.y,mouse.leftButton,mouse.midButton,mouse.rightButton,testInstr_mouse.x,testInstr_mouse.y,testInstr_mouse.leftButton,testInstr_mouse.midButton,testInstr_mouse.rightButton,test_mouse.x,test_mouse.y,test_mouse.leftButton,test_mouse.midButton,test_mouse.rightButton,test_response.text,test_loop.thisRepN,test_loop.thisTrialN,test_loop.thisN,test_loop.thisIndex,test_loop.ran
-0.212037037,-0.109259259,1,0,0,00019,2023-08-24_16h39.50.092,vbt_B1_day4,2022.2.4,Win32,56.98979883,,,,,,,,,,,,,,,,,,,,,,,,,,,,,,,,,,,,,,,,,,,,,
,,,,,00019,2023-08-24_16h39.50.092,vbt_B1_day4,2022.2.4,Win32,56.98979883,-0.507407407,0.017592593,1,0,0,,,,,,,,,,,,,,,,,,,,,,,,,,,,,,,,,,,,,,,,
,,,,,00019,2023-08-24_16h39.50.092,vbt_B1_day4,2022.2.4,Win32,56.98979883,,,,,,down,0,1.5349,,-0.507407407,0.015740741,1,0,0,0,0,0,52,1,wagon,images/br_wagon.png,images/cb_wagon.png,0,,,,,,,,,,,,,,,,,,,,,,
,,,,,00019,2023-08-24_16h39.50.092,vbt_B1_day4,2022.2.4,Win32,56.98979883,,,,,,down,0,0.6859,,-0.507407407,0.016666667,1,0,0,0,1,1,74,1,graaf,images/br_graaf.png,images/cb_graaf.png,0,,,,,,,,,,,,,,,,,,,,,,
,,,,,00019,2023-08-24_16h39.50.092,vbt_B1_day4,2022.2.4,Win32,56.98979883,,,,,,down,0,3.6834,,-0.514814815,0.047222222,1,0,0,0,2,2,186,1,voorraad,images/br_voorraad.png,images/cb_voorraad.png,1,voorraad,,,,,,,,,,,,,,,,,,,,,
,,,,,00019,2023-08-24_16h39.50.092,vbt_B1_day4,2022.2.4,Win32,56.98979883,,,,,,down,0,1.6161,,-0.506481481,0.051851852,1,0,0,0,3,3,38,1,baai,images/br_baai.png,images/cb_baai.png,0,,,,,,,,,,,,,,,,,,,,,,
,,,,,00019,2023-08-24_16h39.50.092,vbt_B1_day4,2022.2.4,Win32,56.98979883,,,,,,down,0,1.6968,,-0.506481481,0.051851852,1,0,0,0,4,4,122,1,waarvan,images/br_waarvan.png,images/cb_waarvan.png,0,,,,,,,,,,,,,,,,,,,,,,
,,,,,00019,2023-08-24_16h39.50.092,vbt_B1_day4,2022.2.4,Win32,56.98979883,,,,,,down,0,1.0918,,-0.506481481,0.051851852,1,0,0,0,5,5,33,1,vlek,images/br_vlek.png,images/cb_vlek.png,0,,,,,,,,,,,,,,,,,,,,,,
,,,,,00019,2023-08-24_16h39.50.092,vbt_B1_day4,2022.2.4,Win32,56.98979883,,,,,,down,0,2.8003,,-0.506481481,0.051851852,1,0,0,0,6,6,110,1,zuster,images/br_zuster.png,images/cb_zuster.png,0,,,,,,,,,,,,,,,,,,,,,,
,,,,,00019,2023-08-24_16h39.50.092,vbt_B1_day4,2022.2.4,Win32,56.98979883,,,,,,down,0,0.5228,,-0.506481481,0.051851852,1,0,0,0,7,7,68,1,schat,images/br_schat.png,images/cb_schat.png,0,,,,,,,,,,,,,,,,,,,,,,
,,,,,00019,2023-08-24_16h39.50.092,vbt_B1_day4,2022.2.4,Win32,56.98979883,,,,,,down,0,1.172,,-0.506481481,0.051851852,1,0,0,0,8,8,83,1,mening,images/br_mening.png,images/cb_mening.png,0,,,,,,,,,,,,,,,,,,,,,,
,,,,,00019,2023-08-24_16h39.50.092,vbt_B1_day4,2022.2.4,Win32,56.98979883,,,,,,down,0,1.254,,-0.506481481,0.051851852,1,0,0,0,9,9,160,1,daarheen,images/br_daarheen.png,images/cb_daarheen.png,0,,,,,,,,,,,,,,,,,,,,,,
,,,,,00019,2023-08-24_16h39.50.092,vbt_B1_day4,2022.2.4,Win32,56.98979883,,,,,,down,0,1.9818,,-0.506481481,0.051851852,1,0,0,0,10,10,19,1,geit,images/br_geit.png,images/cb_geit.png,0,,,,,,,,,,,,,,,,,,,,,,
,,,,,00019,2023-08-24_16h39.50.092,vbt_B1_day4,2022.2.4,Win32,56.98979883,,,,,,down,0,0.4362,,-0.506481481,0.051851852,1,0,0,0,11,11,5,1,blad,images/br_blad.png,images/cb_blad.png,0,,,,,,,,,,,,,,,,,,,,,,
,,,,,00019,2023-08-24_16h39.50.092,vbt_B1_day4,2022.2.4,Win32,56.98979883,,,,,,down,0,3.3954,,-0.506481481,0.051851852,1,0,0,0,12,12,194,1,driemaal,images/br_driemaal.png,images/cb_driemaal.png,0,,,,,,,,,,,,,,,,,,,,,,
,,,,,00019,2023-08-24_16h39.50.092,vbt_B1_day4,2022.2.4,Win32,56.98979883,,,,,,down,0,0.2543,,-0.506481481,0.051851852,1,0,0,0,13,13,98,1,kreeft,images/br_kreeft.png,images/cb_kreeft.png,0,,,,,,,,,,,,,,,,,,,,,,
,,,,,00019,2023-08-24_16h39.50.092,vbt_B1_day4,2022.2.4,Win32,56.98979883,,,,,,down,0,1.3514,,-0.506481481,0.051851852,1,0,0,0,14,14,156,1,rechten,images/br_rechten.png,images/cb_rechten.png,0,,,,,,,,,,,,,,,,,,,,,,
,,,,,00019,2023-08-24_16h39.50.092,vbt_B1_day4,2022.2.4,Win32,56.98979883,,,,,,down,0,0.2988,,-0.506481481,0.051851852,1,0,0,0,15,15,51,1,samen,images/br_samen.png,images/cb_samen.png,0,,,,,,,,,,,,,,,,,,,,,,
,,,,,00019,2023-08-24_16h39.50.092,vbt_B1_day4,2022.2.4,Win32,56.98979883,,,,,,down,0,1.8359,,-0.506481481,0.051851852,1,0,0,0,16,16,27,1,dans,images/br_dans.png,images/cb_dans.png,1,dans,,,,,,,,,,,,,,,,,,,,,
,,,,,00019,2023-08-24_16h39.50.092,vbt_B1_day4,2022.2.4,Win32,56.98979883,,,,,,down,0,11.2149,,-0.506481481,0.051851852,1,0,0,0,17,17,162,1,uitdelen,images/br_uitdelen.png,images/cb_uitdelen.png,0,,,,,,,,,,,,,,,,,,,,,,
,,,,,00019,2023-08-24_16h39.50.092,vbt_B1_day4,2022.2.4,Win32,56.98979883,,,,,,down,0,1.3831,,-0.506481481,0.051851852,1,0,0,0,18,18,188,1,strekken,images/br_strekken.png,images/cb_strekken.png,0,,,,,,,,,,,,,,,,,,,,,,
,,,,,00019,2023-08-24_16h39.50.092,vbt_B1_day4,2022.2.4,Win32,56.98979883,,,,,,down,0,0.2295,,-0.506481481,0.051851852,1,0,0,0,19,19,93,1,waarop,images/br_waarop.png,images/cb_waarop.png,0,,,,,,,,,,,,,,,,,,,,,,
,,,,,00019,2023-08-24_16h39.50.092,vbt_B1_day4,2022.2.4,Win32,56.98979883,,,,,,down,0,2.4943,,-0.506481481,0.051851852,1,0,0,0,20,20,182,1,bijkomen,images/br_bijkomen.png,images/cb_bijkomen.png,0,,,,,,,,,,,,,,,,,,,,,,
,,,,,00019,2023-08-24_16h39.50.092,vbt_B1_day4,2022.2.4,Win32,56.98979883,,,,,,down,0,62.8985,,-0.396296296,0.088888889,1,0,0,0,21,21,159,1,sufferd,images/br_sufferd.png,images/cb_sufferd.png,0,,,,,,,,,,,,,,,,,,,,,,
,,,,,00019,2023-08-24_16h39.50.092,vbt_B1_day4,2022.2.4,Win32,56.98979883,,,,,,down,0,0.3031,,-0.396296296,0.088888889,1,0,0,0,22,22,62,1,knaap,images/br_knaap.png,images/cb_knaap.png,0,,,,,,,,,,,,,,,,,,,,,,
,,,,,00019,2023-08-24_16h39.50.092,vbt_B1_day4,2022.2.4,Win32,56.98979883,,,,,,down,0,0.4606,,-0.396296296,0.088888889,1,0,0,0,23,23,31,1,poes,images/br_poes.png,images/cb_poes.png,0,,,,,,,,,,,,,,,,,,,,,,
,,,,,00019,2023-08-24_16h39.50.092,vbt_B1_day4,2022.2.4,Win32,56.98979883,,,,,,down,0,0.1526,,-0.396296296,0.088888889,1,0,0,0,24,24,199,1,beseffen,images/br_beseffen.png,images/cb_beseffen.png,0,,,,,,,,,,,,,,,,,,,,,,
,,,,,00019,2023-08-24_16h39.50.092,vbt_B1_day4,2022.2.4,Win32,56.98979883,,,,,,down,0,0.3642,,-0.396296296,0.088888889,1,0,0,0,25,25,196,1,nakijken,images/br_nakijken.png,images/cb_nakijken.png,0,,,,,,,,,,,,,,,,,,,,,,
,,,,,00019,2023-08-24_16h39.50.092,vbt_B1_day4,2022.2.4,Win32,56.98979883,,,,,,down,0,0.2588,,-0.396296296,0.088888889,1,0,0,0,26,26,116,1,besmet,images/br_besmet.png,images/cb_besmet.png,0,,,,,,,,,,,,,,,,,,,,,,
,,,,,00019,2023-08-24_16h39.50.092,vbt_B1_day4,2022.2.4,Win32,56.98979883,,,,,,down,0,2.9199,,-0.269444444,0.122222222,1,0,0,0,27,27,73,1,volop,images/br_volop.png,images/cb_volop.png,0,,,,,,,,,,,,,,,,,,,,,,
,,,,,00019,2023-08-24_16h39.50.092,vbt_B1_day4,2022.2.4,Win32,56.98979883,,,,,,down,0,0.9188,,-0.269444444,0.133333333,1,0,0,0,28,28,166,1,strikken,images/br_strikken.png,images/cb_strikken.png,0,,,,,,,,,,,,,,,,,,,,,,
,,,,,00019,2023-08-24_16h39.50.092,vbt_B1_day4,2022.2.4,Win32,56.98979883,,,,,,down,0,0.4055,,-0.269444444,0.133333333,1,0,0,0,29,29,35,1,lust,images/br_lust.png,images/cb_lust.png,0,,,,,,,,,,,,,,,,,,,,,,
,,,,,00019,2023-08-24_16h39.50.092,vbt_B1_day4,2022.2.4,Win32,56.98979883,,,,,,down,0,0.3781,,-0.269444444,0.133333333,1,0,0,0,30,30,47,1,kabel,images/br_kabel.png,images/cb_kabel.png,0,,,,,,,,,,,,,,,,,,,,,,
,,,,,00019,2023-08-24_16h39.50.092,vbt_B1_day4,2022.2.4,Win32,56.98979883,,,,,,down,0,0.0589,,-0.269444444,0.133333333,1,0,0,0,31,31,115,1,kleren,images/br_kleren.png,images/cb_kleren.png,0,,,,,,,,,,,,,,,,,,,,,,
,,,,,00019,2023-08-24_16h39.50.092,vbt_B1_day4,2022.2.4,Win32,56.98979883,,,,,,down,0,4.3227,,-0.269444444,0.133333333,1,0,0,0,32,32,154,1,aflopen,images/br_aflopen.png,images/cb_aflopen.png,0,,,,,,,,,,,,,,,,,,,,,,
,,,,,00019,2023-08-24_16h39.50.092,vbt_B1_day4,2022.2.4,Win32,56.98979883,,,,,,down,0,0.2505,,-0.222222222,0.155555556,1,0,0,0,33,33,120,1,klimmen,images/br_klimmen.png,images/cb_klimmen.png,0,,,,,,,,,,,,,,,,,,,,,,
,,,,,00019,2023-08-24_16h39.50.092,vbt_B1_day4,2022.2.4,Win32,56.98979883,,,,,,down,0,2.4245,,-0.222222222,0.155555556,1,0,0,0,34,34,9,1,hier,images/br_hier.png,images/cb_hier.png,0,,,,,,,,,,,,,,,,,,,,,,
,,,,,00019,2023-08-24_16h39.50.092,vbt_B1_day4,2022.2.4,Win32,56.98979883,,,,,,down,0,0.4614,,-0.222222222,0.155555556,1,0,0,0,35,35,172,1,weigeren,images/br_weigeren.png,images/cb_weigeren.png,0,,,,,,,,,,,,,,,,,,,,,,
,,,,,00019,2023-08-24_16h39.50.092,vbt_B1_day4,2022.2.4,Win32,56.98979883,,,,,,down,0,0.819,,-0.222222222,0.155555556,1,0,0,0,36,36,117,1,kennis,images/br_kennis.png,images/cb_kennis.png,0,,,,,,,,,,,,,,,,,,,,,,
,,,,,00019,2023-08-24_16h39.50.092,vbt_B1_day4,2022.2.4,Win32,56.98979883,,,,,,down,0,1.5197,,-0.222222222,0.155555556,1,0,0,0,37,37,12,1,kust,images/br_kust.png,images/cb_kust.png,0,,,,,,,,,,,,,,,,,,,,,,
,,,,,00019,2023-08-24_16h39.50.092,vbt_B1_day4,2022.2.4,Win32,56.98979883,,,,,,down,0,3.5936,,-0.222222222,0.155555556,1,0,0,0,38,38,58,1,tekst,images/br_tekst.png,images/cb_tekst.png,0,,,,,,,,,,,,,,,,,,,,,,
,,,,,00019,2023-08-24_16h39.50.092,vbt_B1_day4,2022.2.4,Win32,56.98979883,,,,,,down,0,29.5371,,-0.222222222,0.155555556,1,0,0,0,39,39,75,1,snoep,images/br_snoep.png,images/cb_snoep.png,0,,,,,,,,,,,,,,,,,,,,,,
,,,,,00019,2023-08-24_16h39.50.092,vbt_B1_day4,2022.2.4,Win32,56.98979883,,,,,,down,0,2.6243,,-0.222222222,0.155555556,1,0,0,0,40,40,70,1,ijdel,images/br_ijdel.png,images/cb_ijdel.png,0,,,,,,,,,,,,,,,,,,,,,,
,,,,,00019,2023-08-24_16h39.50.092,vbt_B1_day4,2022.2.4,Win32,56.98979883,,,,,,down,0,0.2053,,-0.222222222,0.155555556,1,0,0,0,41,41,168,1,bisschop,images/br_bisschop.png,images/cb_bisschop.png,0,,,,,,,,,,,,,,,,,,,,,,
,,,,,00019,2023-08-24_16h39.50.092,vbt_B1_day4,2022.2.4,Win32,56.98979883,,,,,,down,0,0.0032,,-0.222222222,0.155555556,1,0,0,0,42,42,32,1,palm,images/br_palm.png,images/cb_palm.png,0,,,,,,,,,,,,,,,,,,,,,,
,,,,,00019,2023-08-24_16h39.50.092,vbt_B1_day4,2022.2.4,Win32,56.98979883,,,,,,down,0,6.4989,,-0.222222222,0.155555556,1,0,0,0,43,43,104,1,zweven,images/br_zweven.png,images/cb_zweven.png,1,zweven,,,,,,,,,,,,,,,,,,,,,
,,,,,00019,2023-08-24_16h39.50.092,vbt_B1_day4,2022.2.4,Win32,56.98979883,,,,,,down,0,1.0763,,-0.041666667,0.166666667,1,0,0,0,44,44,99,1,koffie,images/br_koffie.png,images/cb_koffie.png,0,,,,,,,,,,,,,,,,,,,,,,
,,,,,00019,2023-08-24_16h39.50.092,vbt_B1_day4,2022.2.4,Win32,56.98979883,,,,,,down,0,0.3494,,-0.041666667,0.166666667,1,0,0,0,45,45,119,1,liefje,images/br_liefje.png,images/cb_liefje.png,0,,,,,,,,,,,,,,,,,,,,,,
,,,,,00019,2023-08-24_16h39.50.092,vbt_B1_day4,2022.2.4,Win32,56.98979883,,,,,,down,0,0.2975,,-0.041666667,0.166666667,1,0,0,0,46,46,112,1,lukken,images/br_lukken.png,images/cb_lukken.png,0,,,,,,,,,,,,,,,,,,,,,,
,,,,,00019,2023-08-24_16h39.50.092,vbt_B1_day4,2022.2.4,Win32,56.98979883,,,,,,down,0,1.0661,,-0.041666667,0.166666667,1,0,0,0,47,47,164,1,anarchie,images/br_anarchie.png,images/cb_anarchie.png,0,,,,,,,,,,,,,,,,,,,,,,
,,,,,00019,2023-08-24_16h39.50.092,vbt_B1_day4,2022.2.4,Win32,56.98979883,,,,,,down,0,0.5055,,-0.041666667,0.166666667,1,0,0,0,48,48,137,1,trekker,images/br_trekker.png,images/cb_trekker.png,0,,,,,,,,,,,,,,,,,,,,,,
,,,,,00019,2023-08-24_16h39.50.092,vbt_B1_day4,2022.2.4,Win32,56.98979883,,,,,,down,0,7.2471,,-0.041666667,0.166666667,1,0,0,0,49,49,190,1,goedkoop,images/br_goedkoop.png,images/cb_goedkoop.png,0,,,,,,,,,,,,,,,,,,,,,,
,,,,,00019,2023-08-24_16h39.50.092,vbt_B1_day4,2022.2.4,Win32,56.98979883,,,,,,down,0,4.1067,,-0.041666667,0.166666667,1,0,0,0,50,50,89,1,slapen,images/br_slapen.png,images/cb_slapen.png,0,,,,,,,,,,,,,,,,,,,,,,
,,,,,00019,2023-08-24_16h39.50.092,vbt_B1_day4,2022.2.4,Win32,56.98979883,,,,,,down,0,2.9553,,-0.416666667,-0.013888889,1,0,0,0,51,51,60,1,jasje,images/br_jasje.png,images/cb_jasje.png,0,,,,,,,,,,,,,,,,,,,,,,
,,,,,00019,2023-08-24_16h39.50.092,vbt_B1_day4,2022.2.4,Win32,56.98979883,,,,,,down,0,0.7675,,-0.416666667,-0.013888889,1,0,0,0,52,52,131,1,opzicht,images/br_opzicht.png,images/cb_opzicht.png,0,,,,,,,,,,,,,,,,,,,,,,
,,,,,00019,2023-08-24_16h39.50.092,vbt_B1_day4,2022.2.4,Win32,56.98979883,,,,,,down,0,3.8136,,-0.416666667,-0.013888889,1,0,0,0,53,53,123,1,hiervan,images/br_hiervan.png,images/cb_hiervan.png,0,,,,,,,,,,,,,,,,,,,,,,
,,,,,00019,2023-08-24_16h39.50.092,vbt_B1_day4,2022.2.4,Win32,56.98979883,,,,,,down,0,0.1701,,-0.416666667,-0.013888889,1,0,0,0,54,54,101,1,staren,images/br_staren.png,images/cb_staren.png,0,,,,,,,,,,,,,,,,,,,,,,
,,,,,00019,2023-08-24_16h39.50.092,vbt_B1_day4,2022.2.4,Win32,56.98979883,,,,,,down,0,5.8777,,-0.416666667,-0.013888889,1,0,0,0,55,55,178,1,huisdier,images/br_huisdier.png,images/cb_huisdier.png,0,,,,,,,,,,,,,,,,,,,,,,
,,,,,00019,2023-08-24_16h39.50.092,vbt_B1_day4,2022.2.4,Win32,56.98979883,,,,,,down,0,0.9415,,-0.415740741,-0.006481481,1,0,0,0,56,56,3,1,mand,images/br_mand.png,images/cb_mand.png,0,,,,,,,,,,,,,,,,,,,,,,
,,,,,00019,2023-08-24_16h39.50.092,vbt_B1_day4,2022.2.4,Win32,56.98979883,,,,,,down,0,0.2422,,-0.415740741,-0.006481481,1,0,0,0,57,57,173,1,apparaat,images/br_apparaat.png,images/cb_apparaat.png,0,,,,,,,,,,,,,,,,,,,,,,
,,,,,00019,2023-08-24_16h39.50.092,vbt_B1_day4,2022.2.4,Win32,56.98979883,,,,,,down,0,3.5377,,-0.415740741,-0.006481481,1,0,0,0,58,58,198,1,bedoelen,images/br_bedoelen.png,images/cb_bedoelen.png,0,,,,,,,,,,,,,,,,,,,,,,
,,,,,00019,2023-08-24_16h39.50.092,vbt_B1_day4,2022.2.4,Win32,56.98979883,,,,,,down,0,0.2577,,-0.415740741,-0.006481481,1,0,0,0,59,59,23,1,zout,images/br_zout.png,images/cb_zout.png,0,,,,,,,,,,,,,,,,,,,,,,
,,,,,00019,2023-08-24_16h39.50.092,vbt_B1_day4,2022.2.4,Win32,56.98979883,,,,,,down,0,0.5615,,-0.415740741,-0.006481481,1,0,0,0,60,60,86,1,woning,images/br_woning.png,images/cb_woning.png,0,,,,,,,,,,,,,,,,,,,,,,
,,,,,00019,2023-08-24_16h39.50.092,vbt_B1_day4,2022.2.4,Win32,56.98979883,,,,,,down,0,7.6714,,-0.415740741,-0.006481481,1,0,0,0,61,61,147,1,komisch,images/br_komisch.png,images/cb_komisch.png,1,komisch,,,,,,,,,,,,,,,,,,,,,
,,,,,00019,2023-08-24_16h39.50.092,vbt_B1_day4,2022.2.4,Win32,56.98979883,,,,,,down,0,42.5828,,-0.415740741,-0.006481481,1,0,0,0,62,62,72,1,strak,images/br_strak.png,images/cb_strak.png,0,,,,,,,,,,,,,,,,,,,,,,
,,,,,00019,2023-08-24_16h39.50.092,vbt_B1_day4,2022.2.4,Win32,56.98979883,,,,,,down,0,1.2955,,-0.415740741,-0.005555556,1,0,0,0,63,63,64,1,wegen,images/br_wegen.png,images/cb_wegen.png,1,wegen,,,,,,,,,,,,,,,,,,,,,
,,,,,00019,2023-08-24_16h39.50.092,vbt_B1_day4,2022.2.4,Win32,56.98979883,,,,,,down,0,0.1233,,-0.369444444,0.075925926,1,0,0,0,64,64,57,1,steek,images/br_steek.png,images/cb_steek.png,0,,,,,,,,,,,,,,,,,,,,,,
,,,,,00019,2023-08-24_16h39.50.092,vbt_B1_day4,2022.2.4,Win32,56.98979883,,,,,,down,0,1.1959,,-0.375,0.084259259,1,0,0,0,65,65,40,1,schep,images/br_schep.png,images/cb_schep.png,0,,,,,,,,,,,,,,,,,,,,,,
,,,,,00019,2023-08-24_16h39.50.092,vbt_B1_day4,2022.2.4,Win32,56.98979883,,,,,,down,0,0.3734,,-0.375,0.084259259,1,0,0,0,66,66,177,1,maaltijd,images/br_maaltijd.png,images/cb_maaltijd.png,0,,,,,,,,,,,,,,,,,,,,,,
,,,,,00019,2023-08-24_16h39.50.092,vbt_B1_day4,2022.2.4,Win32,56.98979883,,,,,,down,0,0.3725,,-0.375,0.084259259,1,0,0,0,67,67,1,1,zaal,images/br_zaal.png,images/cb_zaal.png,0,,,,,,,,,,,,,,,,,,,,,,
,,,,,00019,2023-08-24_16h39.50.092,vbt_B1_day4,2022.2.4,Win32,56.98979883,,,,,,down,0,2.3647,,-0.375,0.084259259,1,0,0,0,68,68,106,1,zingen,images/br_zingen.png,images/cb_zingen.png,1,zingen,,,,,,,,,,,,,,,,,,,,,
,,,,,00019,2023-08-24_16h39.50.092,vbt_B1_day4,2022.2.4,Win32,56.98979883,,,,,,down,0,0.0359,,-0.375,0.084259259,1,0,0,0,69,69,28,1,stal,images/br_stal.png,images/cb_stal.png,0,,,,,,,,,,,,,,,,,,,,,,
,,,,,00019,2023-08-24_16h39.50.092,vbt_B1_day4,2022.2.4,Win32,56.98979883,,,,,,down,0,1.0189,,-0.375,0.084259259,1,0,0,0,70,70,91,1,gezond,images/br_gezond.png,images/cb_gezond.png,0,,,,,,,,,,,,,,,,,,,,,,
,,,,,00019,2023-08-24_16h39.50.092,vbt_B1_day4,2022.2.4,Win32,56.98979883,,,,,,down,0,1.5695,,-0.375,0.084259259,1,0,0,0,71,71,138,1,akkoord,images/br_akkoord.png,images/cb_akkoord.png,0,,,,,,,,,,,,,,,,,,,,,,
,,,,,00019,2023-08-24_16h39.50.092,vbt_B1_day4,2022.2.4,Win32,56.98979883,,,,,,down,0,0.2471,,-0.375,0.084259259,1,0,0,0,72,72,54,1,gebit,images/br_gebit.png,images/cb_gebit.png,0,,,,,,,,,,,,,,,,,,,,,,
,,,,,00019,2023-08-24_16h39.50.092,vbt_B1_day4,2022.2.4,Win32,56.98979883,,,,,,down,0,0.947,,-0.375,0.084259259,1,0,0,0,73,73,65,1,parel,images/br_parel.png,images/cb_parel.png,1,parel,,,,,,,,,,,,,,,,,,,,,
,,,,,00019,2023-08-24_16h39.50.092,vbt_B1_day4,2022.2.4,Win32,56.98979883,,,,,,down,0,0.0636,,-0.375,0.084259259,1,0,0,0,74,74,78,1,leren,images/br_leren.png,images/cb_leren.png,0,,,,,,,,,,,,,,,,,,,,,,
,,,,,00019,2023-08-24_16h39.50.092,vbt_B1_day4,2022.2.4,Win32,56.98979883,,,,,,down,0,0.8732,,-0.375925926,0.086111111,1,0,0,0,75,75,193,1,weeshuis,images/br_weeshuis.png,images/cb_weeshuis.png,0,,,,,,,,,,,,,,,,,,,,,,
,,,,,00019,2023-08-24_16h39.50.092,vbt_B1_day4,2022.2.4,Win32,56.98979883,,,,,,down,0,21.2632,,-0.375925926,0.086111111,1,0,0,0,76,76,71,1,bever,images/br_bever.png,images/cb_bever.png,0,,,,,,,,,,,,,,,,,,,,,,
,,,,,00019,2023-08-24_16h39.50.092,vbt_B1_day4,2022.2.4,Win32,56.98979883,,,,,,down,0,5.292,,-0.375925926,0.086111111,1,0,0,0,77,77,170,1,schatten,images/br_schatten.png,images/cb_schatten.png,0,,,,,,,,,,,,,,,,,,,,,,
,,,,,00019,2023-08-24_16h39.50.092,vbt_B1_day4,2022.2.4,Win32,56.98979883,,,,,,down,0,0.927,,-0.375925926,0.087037037,1,0,0,0,78,78,129,1,verhaal,images/br_verhaal.png,images/cb_verhaal.png,0,,,,,,,,,,,,,,,,,,,,,,
,,,,,00019,2023-08-24_16h39.50.092,vbt_B1_day4,2022.2.4,Win32,56.98979883,,,,,,down,0,2.4644,,-0.375925926,0.087037037,1,0,0,0,79,79,152,1,afnemen,images/br_afnemen.png,images/cb_afnemen.png,0,,,,,,,,,,,,,,,,,,,,,,
,,,,,00019,2023-08-24_16h39.50.092,vbt_B1_day4,2022.2.4,Win32,56.98979883,,,,,,down,0,0.6351,,-0.375,0.088888889,1,0,0,0,80,80,97,1,loyaal,images/br_loyaal.png,images/cb_loyaal.png,0,,,,,,,,,,,,,,,,,,,,,,
,,,,,00019,2023-08-24_16h39.50.092,vbt_B1_day4,2022.2.4,Win32,56.98979883,,,,,,down,0,17.0109,,-0.042592593,0.116666667,1,0,0,0,81,81,165,1,feestdag,images/br_feestdag.png,images/cb_feestdag.png,0,,,,,,,,,,,,,,,,,,,,,,
,,,,,00019,2023-08-24_16h39.50.092,vbt_B1_day4,2022.2.4,Win32,56.98979883,,,,,,down,0,1.6167,,-0.041666667,0.116666667,1,0,0,0,82,82,24,1,jurk,images/br_jurk.png,images/cb_jurk.png,1,,,,,,,,,,,,,,,,,,,,,,
,,,,,00019,2023-08-24_16h39.50.092,vbt_B1_day4,2022.2.4,Win32,56.98979883,,,,,,down,0,18.7874,,-0.041666667,0.116666667,1,0,0,0,83,83,133,1,seizoen,images/br_seizoen.png,images/cb_seizoen.png,0,,,,,,,,,,,,,,,,,,,,,,
,,,,,00019,2023-08-24_16h39.50.092,vbt_B1_day4,2022.2.4,Win32,56.98979883,,,,,,down,0,0.4833,,-0.041666667,0.116666667,1,0,0,0,84,84,18,1,blik,images/br_blik.png,images/cb_blik.png,0,,,,,,,,,,,,,,,,,,,,,,
,,,,,00019,2023-08-24_16h39.50.092,vbt_B1_day4,2022.2.4,Win32,56.98979883,,,,,,down,0,1.6931,,-0.041666667,0.116666667,1,0,0,0,85,85,155,1,gerucht,images/br_gerucht.png,images/cb_gerucht.png,0,,,,,,,,,,,,,,,,,,,,,,
,,,,,00019,2023-08-24_16h39.50.092,vbt_B1_day4,2022.2.4,Win32,56.98979883,,,,,,down,0,0.1859,,0.023148148,0.118518519,1,0,0,0,86,86,2,1,jaar,images/br_jaar.png,images/cb_jaar.png,0,,,,,,,,,,,,,,,,,,,,,,
,,,,,00019,2023-08-24_16h39.50.092,vbt_B1_day4,2022.2.4,Win32,56.98979883,,,,,,down,0,0.3778,,0.023148148,0.118518519,1,0,0,0,87,87,96,1,slagen,images/br_slagen.png,images/cb_slagen.png,0,,,,,,,,,,,,,,,,,,,,,,
,,,,,00019,2023-08-24_16h39.50.092,vbt_B1_day4,2022.2.4,Win32,56.98979883,,,,,,down,0,0.0958,,0.023148148,0.118518519,1,0,0,0,88,88,59,1,kring,images/br_kring.png,images/cb_kring.png,0,,,,,,,,,,,,,,,,,,,,,,
,,,,,00019,2023-08-24_16h39.50.092,vbt_B1_day4,2022.2.4,Win32,56.98979883,,,,,,down,0,0.1572,,0.023148148,0.118518519,1,0,0,0,89,89,8,1,knie,images/br_knie.png,images/cb_knie.png,0,,,,,,,,,,,,,,,,,,,,,,
,,,,,00019,2023-08-24_16h39.50.092,vbt_B1_day4,2022.2.4,Win32,56.98979883,,,,,,down,0,0.2673,,0.023148148,0.118518519,1,0,0,0,90,90,43,1,klauw,images/br_klauw.png,images/cb_klauw.png,0,,,,,,,,,,,,,,,,,,,,,,
,,,,,00019,2023-08-24_16h39.50.092,vbt_B1_day4,2022.2.4,Win32,56.98979883,,,,,,down,0,1.2902,,0.023148148,0.118518519,1,0,0,0,91,91,26,1,leuk,images/br_leuk.png,images/cb_leuk.png,1,leuk,,,,,,,,,,,,,,,,,,,,,
,,,,,00019,2023-08-24_16h39.50.092,vbt_B1_day4,2022.2.4,Win32,56.98979883,,,,,,down,0,13.9455,,0.034259259,0.143518519,1,0,0,0,92,92,153,1,vervoer,images/br_vervoer.png,images/cb_vervoer.png,0,,,,,,,,,,,,,,,,,,,,,,
,,,,,00019,2023-08-24_16h39.50.092,vbt_B1_day4,2022.2.4,Win32,56.98979883,,,,,,down,0,1.0414,,0.027777778,0.143518519,1,0,0,0,93,93,95,1,vreten,images/br_vreten.png,images/cb_vreten.png,0,,,,,,,,,,,,,,,,,,,,,,
,,,,,00019,2023-08-24_16h39.50.092,vbt_B1_day4,2022.2.4,Win32,56.98979883,,,,,,down,0,13.7311,,0.026851852,0.143518519,1,0,0,0,94,94,14,1,rijp,images/br_rijp.png,images/cb_rijp.png,0,,,,,,,,,,,,,,,,,,,,,,
,,,,,00019,2023-08-24_16h39.50.092,vbt_B1_day4,2022.2.4,Win32,56.98979883,,,,,,down,0,5.1063,,0.026851852,0.143518519,1,0,0,0,95,95,80,1,kanjer,images/br_kanjer.png,images/cb_kanjer.png,0,,,,,,,,,,,,,,,,,,,,,,
,,,,,00019,2023-08-24_16h39.50.092,vbt_B1_day4,2022.2.4,Win32,56.98979883,,,,,,down,0,0.6555,,0.026851852,0.143518519,1,0,0,0,96,96,69,1,waken,images/br_waken.png,images/cb_waken.png,0,,,,,,,,,,,,,,,,,,,,,,
,,,,,00019,2023-08-24_16h39.50.092,vbt_B1_day4,2022.2.4,Win32,56.98979883,,,,,,down,0,0.1698,,0.026851852,0.143518519,1,0,0,0,97,97,6,1,diep,images/br_diep.png,images/cb_diep.png,0,,,,,,,,,,,,,,,,,,,,,,
,,,,,00019,2023-08-24_16h39.50.092,vbt_B1_day4,2022.2.4,Win32,56.98979883,,,,,,down,0,1.0227,,0.026851852,0.143518519,1,0,0,0,98,98,149,1,redding,images/br_redding.png,images/cb_redding.png,0,,,,,,,,,,,,,,,,,,,,,,
,,,,,00019,2023-08-24_16h39.50.092,vbt_B1_day4,2022.2.4,Win32,56.98979883,,,,,,down,0,0.2592,,0.026851852,0.143518519,1,0,0,0,99,99,169,1,oprotten,images/br_oprotten.png,images/cb_oprotten.png,0,,,,,,,,,,,,,,,,,,,,,,
,,,,,00019,2023-08-24_16h39.50.092,vbt_B1_day4,2022.2.4,Win32,56.98979883,,,,,,down,0,1.2444,,0.026851852,0.141666667,1,0,0,0,100,100,7,1,geld,images/br_geld.png,images/cb_geld.png,0,,,,,,,,,,,,,,,,,,,,,,
,,,,,00019,2023-08-24_16h39.50.092,vbt_B1_day4,2022.2.4,Win32,56.98979883,,,,,,down,0,4.1119,,0.064814815,0.117592593,1,0,0,0,101,101,4,1,moes,images/br_moes.png,images/cb_moes.png,0,,,,,,,,,,,,,,,,,,,,,,
,,,,,00019,2023-08-24_16h39.50.092,vbt_B1_day4,2022.2.4,Win32,56.98979883,,,,,,down,0,0.3776,,0.062037037,0.117592593,1,0,0,0,102,102,16,1,ziek,images/br_ziek.png,images/cb_ziek.png,0,,,,,,,,,,,,,,,,,,,,,,
,,,,,00019,2023-08-24_16h39.50.092,vbt_B1_day4,2022.2.4,Win32,56.98979883,,,,,,down,0,0.2987,,0.062037037,0.117592593,1,0,0,0,103,103,39,1,laag,images/br_laag.png,images/cb_laag.png,0,,,,,,,,,,,,,,,,,,,,,,
,,,,,00019,2023-08-24_16h39.50.092,vbt_B1_day4,2022.2.4,Win32,56.98979883,,,,,,down,0,0.6811,,0.062037037,0.117592593,1,0,0,0,104,104,139,1,stiekem,images/br_stiekem.png,images/cb_stiekem.png,0,,,,,,,,,,,,,,,,,,,,,,
,,,,,00019,2023-08-24_16h39.50.092,vbt_B1_day4,2022.2.4,Win32,56.98979883,,,,,,down,0,1.8572,,0.062962963,0.125,1,0,0,0,105,105,67,1,zwart,images/br_zwart.png,images/cb_zwart.png,1,zwart,,,,,,,,,,,,,,,,,,,,,
,,,,,00019,2023-08-24_16h39.50.092,vbt_B1_day4,2022.2.4,Win32,56.98979883,,,,,,down,0,0.1176,,0.062962963,0.125,1,0,0,0,106,106,81,1,dubbel,images/br_dubbel.png,images/cb_dubbel.png,0,,,,,,,,,,,,,,,,,,,,,,
,,,,,00019,2023-08-24_16h39.50.092,vbt_B1_day4,2022.2.4,Win32,56.98979883,,,,,,down,0,10.9263,,0.062962963,0.125,1,0,0,0,107,107,94,1,oceaan,images/br_oceaan.png,images/cb_oceaan.png,0,,,,,,,,,,,,,,,,,,,,,,
,,,,,00019,2023-08-24_16h39.50.092,vbt_B1_day4,2022.2.4,Win32,56.98979883,,,,,,down,0,0.3688,,0.062962963,0.125,1,0,0,0,108,108,41,1,maken,images/br_maken.png,images/cb_maken.png,0,,,,,,,,,,,,,,,,,,,,,,
,,,,,00019,2023-08-24_16h39.50.092,vbt_B1_day4,2022.2.4,Win32,56.98979883,,,,,,down,0,0.6153,,0.062962963,0.125,1,0,0,0,109,109,125,1,aanzien,images/br_aanzien.png,images/cb_aanzien.png,0,,,,,,,,,,,,,,,,,,,,,,
,,,,,00019,2023-08-24_16h39.50.092,vbt_B1_day4,2022.2.4,Win32,56.98979883,,,,,,down,0,0.1512,,0.062962963,0.125,1,0,0,0,110,110,174,1,stemming,images/br_stemming.png,images/cb_stemming.png,0,,,,,,,,,,,,,,,,,,,,,,
,,,,,00019,2023-08-24_16h39.50.092,vbt_B1_day4,2022.2.4,Win32,56.98979883,,,,,,down,0,0.1777,,0.062962963,0.125,1,0,0,0,111,111,114,1,vullen,images/br_vullen.png,images/cb_vullen.png,0,,,,,,,,,,,,,,,,,,,,,,
,,,,,00019,2023-08-24_16h39.50.092,vbt_B1_day4,2022.2.4,Win32,56.98979883,,,,,,down,0,0.4001,,0.062962963,0.125,1,0,0,0,112,112,53,1,baron,images/br_baron.png,images/cb_baron.png,0,,,,,,,,,,,,,,,,,,,,,,
,,,,,00019,2023-08-24_16h39.50.092,vbt_B1_day4,2022.2.4,Win32,56.98979883,,,,,,down,0,0.4538,,0.062962963,0.125,1,0,0,0,113,113,151,1,aanzoek,images/br_aanzoek.png,images/cb_aanzoek.png,0,,,,,,,,,,,,,,,,,,,,,,
,,,,,00019,2023-08-24_16h39.50.092,vbt_B1_day4,2022.2.4,Win32,56.98979883,,,,,,down,0,11.1825,,0.062962963,0.125,1,0,0,0,114,114,140,1,blijven,images/br_blijven.png,images/cb_blijven.png,0,,,,,,,,,,,,,,,,,,,,,,
,,,,,00019,2023-08-24_16h39.50.092,vbt_B1_day4,2022.2.4,Win32,56.98979883,,,,,,down,0,13.698,,0.062962963,0.125,1,0,0,0,115,115,21,1,mist,images/br_mist.png,images/cb_mist.png,0,,,,,,,,,,,,,,,,,,,,,,
,,,,,00019,2023-08-24_16h39.50.092,vbt_B1_day4,2022.2.4,Win32,56.98979883,,,,,,down,0,169.3478,,0.062962963,0.125925926,1,0,0,0,116,116,63,1,flirt,images/br_flirt.png,images/cb_flirt.png,0,,,,,,,,,,,,,,,,,,,,,,
,,,,,00019,2023-08-24_16h39.50.092,vbt_B1_day4,2022.2.4,Win32,56.98979883,,,,,,down,0,81.8851,,0.062962963,0.126851852,1,0,0,0,117,117,17,1,taal,images/br_taal.png,images/cb_taal.png,0,,,,,,,,,,,,,,,,,,,,,,
,,,,,00019,2023-08-24_16h39.50.092,vbt_B1_day4,2022.2.4,Win32,56.98979883,,,,,,down,0,0.4237,,0.062962963,0.126851852,1,0,0,0,118,118,79,1,nodig,images/br_nodig.png,images/cb_nodig.png,0,,,,,,,,,,,,,,,,,,,,,,
,,,,,00019,2023-08-24_16h39.50.092,vbt_B1_day4,2022.2.4,Win32,56.98979883,,,,,,down,0,1.4802,,0.062962963,0.126851852,1,0,0,0,119,119,135,1,gedicht,images/br_gedicht.png,images/cb_gedicht.png,0,,,,,,,,,,,,,,,,,,,,,,
,,,,,00019,2023-08-24_16h39.50.092,vbt_B1_day4,2022.2.4,Win32,56.98979883,,,,,,down,0,0.0742,,0.062962963,0.126851852,1,0,0,0,120,120,29,1,baas,images/br_baas.png,images/cb_baas.png,0,,,,,,,,,,,,,,,,,,,,,,
,,,,,00019,2023-08-24_16h39.50.092,vbt_B1_day4,2022.2.4,Win32,56.98979883,,,,,,down,0,7.4891,,0.062962963,0.126851852,1,0,0,0,121,121,180,1,openbaar,images/br_openbaar.png,images/cb_openbaar.png,0,,,,,,,,,,,,,,,,,,,,,,
,,,,,00019,2023-08-24_16h39.50.092,vbt_B1_day4,2022.2.4,Win32,56.98979883,,,,,,down,0,13.8748,,0.076851852,0.109259259,1,0,0,0,122,122,90,1,geluid,images/br_geluid.png,images/cb_geluid.png,0,,,,,,,,,,,,,,,,,,,,,,
,,,,,00019,2023-08-24_16h39.50.092,vbt_B1_day4,2022.2.4,Win32,56.98979883,,,,,,down,0,1.5765,,0.076851852,0.109259259,1,0,0,0,123,123,197,1,spanning,images/br_spanning.png,images/cb_spanning.png,0,,,,,,,,,,,,,,,,,,,,,,
,,,,,00019,2023-08-24_16h39.50.092,vbt_B1_day4,2022.2.4,Win32,56.98979883,,,,,,down,0,0.8283,,0.076851852,0.109259259,1,0,0,0,124,124,176,1,techniek,images/br_techniek.png,images/cb_techniek.png,0,,,,,,,,,,,,,,,,,,,,,,
,,,,,00019,2023-08-24_16h39.50.092,vbt_B1_day4,2022.2.4,Win32,56.98979883,,,,,,down,0,2.1654,,0.076851852,0.109259259,1,0,0,0,125,125,141,1,knielen,images/br_knielen.png,images/cb_knielen.png,0,,,,,,,,,,,,,,,,,,,,,,
,,,,,00019,2023-08-24_16h39.50.092,vbt_B1_day4,2022.2.4,Win32,56.98979883,,,,,,down,0,5.2895,,0.076851852,0.109259259,1,0,0,0,126,126,121,1,twijfel,images/br_twijfel.png,images/cb_twijfel.png,0,,,,,,,,,,,,,,,,,,,,,,
,,,,,00019,2023-08-24_16h39.50.092,vbt_B1_day4,2022.2.4,Win32,56.98979883,,,,,,down,0,0.0965,,0.076851852,0.109259259,1,0,0,0,127,127,84,1,lokken,images/br_lokken.png,images/cb_lokken.png,0,,,,,,,,,,,,,,,,,,,,,,
,,,,,00019,2023-08-24_16h39.50.092,vbt_B1_day4,2022.2.4,Win32,56.98979883,,,,,,down,0,0.5385,,0.076851852,0.109259259,1,0,0,0,128,128,189,1,aanraden,images/br_aanraden.png,images/cb_aanraden.png,0,,,,,,,,,,,,,,,,,,,,,,
,,,,,00019,2023-08-24_16h39.50.092,vbt_B1_day4,2022.2.4,Win32,56.98979883,,,,,,down,0,1.396,,0.076851852,0.109259259,1,0,0,0,129,129,109,1,totaal,images/br_totaal.png,images/cb_totaal.png,0,,,,,,,,,,,,,,,,,,,,,,
,,,,,00019,2023-08-24_16h39.50.092,vbt_B1_day4,2022.2.4,Win32,56.98979883,,,,,,down,0,4.643,,0.076851852,0.109259259,1,0,0,0,130,130,192,1,schaamte,images/br_schaamte.png,images/cb_schaamte.png,0,,,,,,,,,,,,,,,,,,,,,,
,,,,,00019,2023-08-24_16h39.50.092,vbt_B1_day4,2022.2.4,Win32,56.98979883,,,,,,down,0,0.572,,0.076851852,0.109259259,1,0,0,0,131,131,171,1,aarzelen,images/br_aarzelen.png,images/cb_aarzelen.png,0,,,,,,,,,,,,,,,,,,,,,,
,,,,,00019,2023-08-24_16h39.50.092,vbt_B1_day4,2022.2.4,Win32,56.98979883,,,,,,down,0,1.5501,,0.076851852,0.109259259,1,0,0,0,132,132,30,1,uien,images/br_uien.png,images/cb_uien.png,0,,,,,,,,,,,,,,,,,,,,,,
,,,,,00019,2023-08-24_16h39.50.092,vbt_B1_day4,2022.2.4,Win32,56.98979883,,,,,,down,0,0.369,,0.076851852,0.109259259,1,0,0,0,133,133,132,1,grappen,images/br_grappen.png,images/cb_grappen.png,0,,,,,,,,,,,,,,,,,,,,,,
,,,,,00019,2023-08-24_16h39.50.092,vbt_B1_day4,2022.2.4,Win32,56.98979883,,,,,,down,0,0.1072,,0.076851852,0.109259259,1,0,0,0,134,134,0,1,slak,images/br_slak.png,images/cb_slak.png,0,,,,,,,,,,,,,,,,,,,,,,
,,,,,00019,2023-08-24_16h39.50.092,vbt_B1_day4,2022.2.4,Win32,56.98979883,,,,,,down,0,3.7509,,0.077777778,0.109259259,1,0,0,0,135,135,144,1,eetlust,images/br_eetlust.png,images/cb_eetlust.png,1,eetlust,,,,,,,,,,,,,,,,,,,,,
,,,,,00019,2023-08-24_16h39.50.092,vbt_B1_day4,2022.2.4,Win32,56.98979883,,,,,,down,0,0.0304,,0.077777778,0.109259259,1,0,0,0,136,136,50,1,stoom,images/br_stoom.png,images/cb_stoom.png,0,,,,,,,,,,,,,,,,,,,,,,
,,,,,00019,2023-08-24_16h39.50.092,vbt_B1_day4,2022.2.4,Win32,56.98979883,,,,,,down,0,1.1304,,0.077777778,0.110185185,1,0,0,0,137,137,100,1,geduld,images/br_geduld.png,images/cb_geduld.png,0,,,,,,,,,,,,,,,,,,,,,,
,,,,,00019,2023-08-24_16h39.50.092,vbt_B1_day4,2022.2.4,Win32,56.98979883,,,,,,down,0,0.594,,0.077777778,0.110185185,1,0,0,0,138,138,10,1,leek,images/br_leek.png,images/cb_leek.png,0,,,,,,,,,,,,,,,,,,,,,,
,,,,,00019,2023-08-24_16h39.50.092,vbt_B1_day4,2022.2.4,Win32,56.98979883,,,,,,down,0,0.5469,,0.077777778,0.110185185,1,0,0,0,139,139,128,1,prikken,images/br_prikken.png,images/cb_prikken.png,0,,,,,,,,,,,,,,,,,,,,,,
,,,,,00019,2023-08-24_16h39.50.092,vbt_B1_day4,2022.2.4,Win32,56.98979883,,,,,,down,0,0.5507,,0.077777778,0.110185185,1,0,0,0,140,140,61,1,groen,images/br_groen.png,images/cb_groen.png,0,,,,,,,,,,,,,,,,,,,,,,
,,,,,00019,2023-08-24_16h39.50.092,vbt_B1_day4,2022.2.4,Win32,56.98979883,,,,,,down,0,0.7801,,0.077777778,0.110185185,1,0,0,0,141,141,108,1,excuus,images/br_excuus.png,images/cb_excuus.png,0,,,,,,,,,,,,,,,,,,,,,,
,,,,,00019,2023-08-24_16h39.50.092,vbt_B1_day4,2022.2.4,Win32,56.98979883,,,,,,down,0,2.7851,,0.077777778,0.110185185,1,0,0,0,142,142,87,1,toeval,images/br_toeval.png,images/cb_toeval.png,0,,,,,,,,,,,,,,,,,,,,,,
,,,,,00019,2023-08-24_16h39.50.092,vbt_B1_day4,2022.2.4,Win32,56.98979883,,,,,,down,0,1.4544,,0.077777778,0.110185185,1,0,0,0,143,143,127,1,doodmoe,images/br_doodmoe.png,images/cb_doodmoe.png,0,,,,,,,,,,,,,,,,,,,,,,
,,,,,00019,2023-08-24_16h39.50.092,vbt_B1_day4,2022.2.4,Win32,56.98979883,,,,,,down,0,0.8771,,0.077777778,0.110185185,1,0,0,0,144,144,179,1,woestijn,images/br_woestijn.png,images/cb_woestijn.png,0,,,,,,,,,,,,,,,,,,,,,,
,,,,,00019,2023-08-24_16h39.50.092,vbt_B1_day4,2022.2.4,Win32,56.98979883,,,,,,down,0,0.7233,,0.077777778,0.110185185,1,0,0,0,145,145,148,1,smullen,images/br_smullen.png,images/cb_smullen.png,0,,,,,,,,,,,,,,,,,,,,,,
,,,,,00019,2023-08-24_16h39.50.092,vbt_B1_day4,2022.2.4,Win32,56.98979883,,,,,,down,0,6.2142,,0.077777778,0.110185185,1,0,0,0,146,146,185,1,mijnheer,images/br_mijnheer.png,images/cb_mijnheer.png,1,mijnheer,,,,,,,,,,,,,,,,,,,,,
,,,,,00019,2023-08-24_16h39.50.092,vbt_B1_day4,2022.2.4,Win32,56.98979883,,,,,,down,0,4.6271,,0.07037037,0.110185185,1,0,0,0,147,147,142,1,snuiven,images/br_snuiven.png,images/cb_snuiven.png,0,,,,,,,,,,,,,,,,,,,,,,
,,,,,00019,2023-08-24_16h39.50.092,vbt_B1_day4,2022.2.4,Win32,56.98979883,,,,,,down,0,2.625,,0.07037037,0.110185185,1,0,0,0,148,148,181,1,toegeven,images/br_toegeven.png,images/cb_toegeven.png,0,,,,,,,,,,,,,,,,,,,,,,
,,,,,00019,2023-08-24_16h39.50.092,vbt_B1_day4,2022.2.4,Win32,56.98979883,,,,,,down,0,1.0043,,0.073148148,0.133333333,1,0,0,0,149,149,46,1,jagen,images/br_jagen.png,images/cb_jagen.png,0,,,,,,,,,,,,,,,,,,,,,,
,,,,,00019,2023-08-24_16h39.50.092,vbt_B1_day4,2022.2.4,Win32,56.98979883,,,,,,down,0,0.0324,,0.073148148,0.133333333,1,0,0,0,150,150,158,1,innemen,images/br_innemen.png,images/cb_innemen.png,0,,,,,,,,,,,,,,,,,,,,,,
,,,,,00019,2023-08-24_16h39.50.092,vbt_B1_day4,2022.2.4,Win32,56.98979883,,,,,,down,0,5.0328,,0.073148148,0.135185185,1,0,0,0,151,151,184,1,aandelen,images/br_aandelen.png,images/cb_aandelen.png,1,aandelen,,,,,,,,,,,,,,,,,,,,,
,,,,,00019,2023-08-24_16h39.50.092,vbt_B1_day4,2022.2.4,Win32,56.98979883,,,,,,down,0,0.1853,,0.073148148,0.135185185,1,0,0,0,152,152,126,1,kasteel,images/br_kasteel.png,images/cb_kasteel.png,0,,,,,,,,,,,,,,,,,,,,,,
,,,,,00019,2023-08-24_16h39.50.092,vbt_B1_day4,2022.2.4,Win32,56.98979883,,,,,,down,0,0.6242,,0.073148148,0.135185185,1,0,0,0,153,153,103,1,joggen,images/br_joggen.png,images/cb_joggen.png,0,,,,,,,,,,,,,,,,,,,,,,
,,,,,00019,2023-08-24_16h39.50.092,vbt_B1_day4,2022.2.4,Win32,56.98979883,,,,,,down,0,2.3592,,0.073148148,0.135185185,1,0,0,0,154,154,124,1,bloeien,images/br_bloeien.png,images/cb_bloeien.png,0,,,,,,,,,,,,,,,,,,,,,,
,,,,,00019,2023-08-24_16h39.50.092,vbt_B1_day4,2022.2.4,Win32,56.98979883,,,,,,down,0,7.2203,,0.073148148,0.135185185,1,0,0,0,155,155,167,1,eenhoorn,images/br_eenhoorn.png,images/cb_eenhoorn.png,0,,,,,,,,,,,,,,,,,,,,,,
,,,,,00019,2023-08-24_16h39.50.092,vbt_B1_day4,2022.2.4,Win32,56.98979883,,,,,,down,0,6.061,,0.073148148,0.135185185,1,0,0,0,156,156,82,1,muziek,images/br_muziek.png,images/cb_muziek.png,0,,,,,,,,,,,,,,,,,,,,,,
,,,,,00019,2023-08-24_16h39.50.092,vbt_B1_day4,2022.2.4,Win32,56.98979883,,,,,,down,0,1.9393,,0.073148148,0.136111111,1,0,0,0,157,157,191,1,opheffen,images/br_opheffen.png,images/cb_opheffen.png,0,,,,,,,,,,,,,,,,,,,,,,
,,,,,00019,2023-08-24_16h39.50.092,vbt_B1_day4,2022.2.4,Win32,56.98979883,,,,,,down,0,0.6751,,0.073148148,0.136111111,1,0,0,0,158,158,13,1,kaal,images/br_kaal.png,images/cb_kaal.png,0,,,,,,,,,,,,,,,,,,,,,,
,,,,,00019,2023-08-24_16h39.50.092,vbt_B1_day4,2022.2.4,Win32,56.98979883,,,,,,down,0,7.4013,,0.089814815,0.10462963,1,0,0,0,159,159,130,1,keihard,images/br_keihard.png,images/cb_keihard.png,0,,,,,,,,,,,,,,,,,,,,,,
,,,,,00019,2023-08-24_16h39.50.092,vbt_B1_day4,2022.2.4,Win32,56.98979883,,,,,,down,0,3.7572,,0.089814815,0.102777778,1,0,0,0,160,160,107,1,maling,images/br_maling.png,images/cb_maling.png,1,maling,,,,,,,,,,,,,,,,,,,,,
,,,,,00019,2023-08-24_16h39.50.092,vbt_B1_day4,2022.2.4,Win32,56.98979883,,,,,,down,0,0.5819,,0.089814815,0.102777778,1,0,0,0,161,161,42,1,bleek,images/br_bleek.png,images/cb_bleek.png,0,,,,,,,,,,,,,,,,,,,,,,
,,,,,00019,2023-08-24_16h39.50.092,vbt_B1_day4,2022.2.4,Win32,56.98979883,,,,,,down,0,4.0184,,0.089814815,0.102777778,1,0,0,0,162,162,102,1,legaal,images/br_legaal.png,images/cb_legaal.png,0,,,,,,,,,,,,,,,,,,,,,,
,,,,,00019,2023-08-24_16h39.50.092,vbt_B1_day4,2022.2.4,Win32,56.98979883,,,,,,down,0,22.907,,0.089814815,0.102777778,1,0,0,0,163,163,45,1,piste,images/br_piste.png,images/cb_piste.png,0,,,,,,,,,,,,,,,,,,,,,,
,,,,,00019,2023-08-24_16h39.50.092,vbt_B1_day4,2022.2.4,Win32,56.98979883,,,,,,down,0,1.562,,0.149074074,0.159259259,1,0,0,0,164,164,44,1,flits,images/br_flits.png,images/cb_flits.png,0,,,,,,,,,,,,,,,,,,,,,,
,,,,,00019,2023-08-24_16h39.50.092,vbt_B1_day4,2022.2.4,Win32,56.98979883,,,,,,down,0,0.5198,,0.149074074,0.159259259,1,0,0,0,165,165,76,1,afval,images/br_afval.png,images/cb_afval.png,0,,,,,,,,,,,,,,,,,,,,,,
,,,,,00019,2023-08-24_16h39.50.092,vbt_B1_day4,2022.2.4,Win32,56.98979883,,,,,,down,0,4.8217,,0.149074074,0.159259259,1,0,0,0,166,166,195,1,middelen,images/br_middelen.png,images/cb_middelen.png,0,,,,,,,,,,,,,,,,,,,,,,
,,,,,00019,2023-08-24_16h39.50.092,vbt_B1_day4,2022.2.4,Win32,56.98979883,,,,,,down,0,0.452,,0.149074074,0.159259259,1,0,0,0,167,167,37,1,mijn,images/br_mijn.png,images/cb_mijn.png,0,,,,,,,,,,,,,,,,,,,,,,
,,,,,00019,2023-08-24_16h39.50.092,vbt_B1_day4,2022.2.4,Win32,56.98979883,,,,,,down,0,0.2552,,0.149074074,0.159259259,1,0,0,0,168,168,161,1,attentie,images/br_attentie.png,images/cb_attentie.png,0,,,,,,,,,,,,,,,,,,,,,,
,,,,,00019,2023-08-24_16h39.50.092,vbt_B1_day4,2022.2.4,Win32,56.98979883,,,,,,down,0,2.0144,,0.149074074,0.159259259,1,0,0,0,169,169,92,1,geheim,images/br_geheim.png,images/cb_geheim.png,0,,,,,,,,,,,,,,,,,,,,,,
,,,,,00019,2023-08-24_16h39.50.092,vbt_B1_day4,2022.2.4,Win32,56.98979883,,,,,,down,0,0.4024,,0.149074074,0.159259259,1,0,0,0,170,170,36,1,vuur,images/br_vuur.png,images/cb_vuur.png,0,,,,,,,,,,,,,,,,,,,,,,
,,,,,00019,2023-08-24_16h39.50.092,vbt_B1_day4,2022.2.4,Win32,56.98979883,,,,,,down,0,4.4672,,0.149074074,0.159259259,1,0,0,0,171,171,187,1,opkijken,images/br_opkijken.png,images/cb_opkijken.png,1,opkijken,,,,,,,,,,,,,,,,,,,,,
,,,,,00019,2023-08-24_16h39.50.092,vbt_B1_day4,2022.2.4,Win32,56.98979883,,,,,,down,0,1.7166,,0.149074074,0.159259259,1,0,0,0,172,172,143,1,hechten,images/br_hechten.png,images/cb_hechten.png,0,,,,,,,,,,,,,,,,,,,,,,
,,,,,00019,2023-08-24_16h39.50.092,vbt_B1_day4,2022.2.4,Win32,56.98979883,,,,,,down,0,0.2297,,0.149074074,0.160185185,1,0,0,0,173,173,48,1,steel,images/br_steel.png,images/cb_steel.png,0,,,,,,,,,,,,,,,,,,,,,,
,,,,,00019,2023-08-24_16h39.50.092,vbt_B1_day4,2022.2.4,Win32,56.98979883,,,,,,down,0,0.1172,,0.149074074,0.160185185,1,0,0,0,174,174,11,1,mode,images/br_mode.png,images/cb_mode.png,0,,,,,,,,,,,,,,,,,,,,,,
,,,,,00019,2023-08-24_16h39.50.092,vbt_B1_day4,2022.2.4,Win32,56.98979883,,,,,,down,0,0.1545,,0.149074074,0.160185185,1,0,0,0,175,175,22,1,stof,images/br_stof.png,images/cb_stof.png,0,,,,,,,,,,,,,,,,,,,,,,
,,,,,00019,2023-08-24_16h39.50.092,vbt_B1_day4,2022.2.4,Win32,56.98979883,,,,,,down,0,0.4081,,0.149074074,0.160185185,1,0,0,0,176,176,55,1,praat,images/br_praat.png,images/cb_praat.png,0,,,,,,,,,,,,,,,,,,,,,,
,,,,,00019,2023-08-24_16h39.50.092,vbt_B1_day4,2022.2.4,Win32,56.98979883,,,,,,down,0,0.5225,,0.149074074,0.160185185,1,0,0,0,177,177,157,1,uitlaat,images/br_uitlaat.png,images/cb_uitlaat.png,0,,,,,,,,,,,,,,,,,,,,,,
,,,,,00019,2023-08-24_16h39.50.092,vbt_B1_day4,2022.2.4,Win32,56.98979883,,,,,,down,0,1.3477,,0.149074074,0.161111111,1,0,0,0,178,178,113,1,koppen,images/br_koppen.png,images/cb_koppen.png,0,,,,,,,,,,,,,,,,,,,,,,
,,,,,00019,2023-08-24_16h39.50.092,vbt_B1_day4,2022.2.4,Win32,56.98979883,,,,,,down,0,1.8969,,0.149074074,0.161111111,1,0,0,0,179,179,66,1,lever,images/br_lever.png,images/cb_lever.png,1,lever,,,,,,,,,,,,,,,,,,,,,
,,,,,00019,2023-08-24_16h39.50.092,vbt_B1_day4,2022.2.4,Win32,56.98979883,,,,,,down,0,1.3446,,0.149074074,0.158333333,1,0,0,0,180,180,20,1,site,images/br_site.png,images/cb_site.png,0,,,,,,,,,,,,,,,,,,,,,,
,,,,,00019,2023-08-24_16h39.50.092,vbt_B1_day4,2022.2.4,Win32,56.98979883,,,,,,down,0,0.7341,,0.14537037,0.151851852,1,0,0,0,181,181,175,1,heengaan,images/br_heengaan.png,images/cb_heengaan.png,0,,,,,,,,,,,,,,,,,,,,,,
,,,,,00019,2023-08-24_16h39.50.092,vbt_B1_day4,2022.2.4,Win32,56.98979883,,,,,,down,0,0.8294,,0.147222222,0.152777778,1,0,0,0,182,182,150,1,gegeven,images/br_gegeven.png,images/cb_gegeven.png,0,,,,,,,,,,,,,,,,,,,,,,
,,,,,00019,2023-08-24_16h39.50.092,vbt_B1_day4,2022.2.4,Win32,56.98979883,,,,,,down,0,5.1692,,0.147222222,0.152777778,1,0,0,0,183,183,34,1,vorm,images/br_vorm.png,images/cb_vorm.png,0,,,,,,,,,,,,,,,,,,,,,,
,,,,,00019,2023-08-24_16h39.50.092,vbt_B1_day4,2022.2.4,Win32,56.98979883,,,,,,down,0,0.0553,,0.147222222,0.152777778,1,0,0,0,184,184,56,1,traag,images/br_traag.png,images/cb_traag.png,0,,,,,,,,,,,,,,,,,,,,,,
,,,,,00019,2023-08-24_16h39.50.092,vbt_B1_day4,2022.2.4,Win32,56.98979883,,,,,,down,0,8.1625,,0.147222222,0.151851852,1,0,0,0,185,185,146,1,opkomen,images/br_opkomen.png,images/cb_opkomen.png,1,opkomen,,,,,,,,,,,,,,,,,,,,,
,,,,,00019,2023-08-24_16h39.50.092,vbt_B1_day4,2022.2.4,Win32,56.98979883,,,,,,down,0,3.5663,,0.147222222,0.151851852,1,0,0,0,186,186,145,1,invloed,images/br_invloed.png,images/cb_invloed.png,1,invloed,,,,,,,,,,,,,,,,,,,,,
,,,,,00019,2023-08-24_16h39.50.092,vbt_B1_day4,2022.2.4,Win32,56.98979883,,,,,,down,0,0.5593,,0.147222222,0.151851852,1,0,0,0,187,187,85,1,heilig,images/br_heilig.png,images/cb_heilig.png,0,,,,,,,,,,,,,,,,,,,,,,
,,,,,00019,2023-08-24_16h39.50.092,vbt_B1_day4,2022.2.4,Win32,56.98979883,,,,,,down,0,1.5589,,0.147222222,0.151851852,1,0,0,0,188,188,25,1,plek,images/br_plek.png,images/cb_plek.png,1,plek,,,,,,,,,,,,,,,,,,,,,
,,,,,00019,2023-08-24_16h39.50.092,vbt_B1_day4,2022.2.4,Win32,56.98979883,,,,,,down,0,2.1995,,0.147222222,0.151851852,1,0,0,0,189,189,183,1,getuigen,images/br_getuigen.png,images/cb_getuigen.png,0,,,,,,,,,,,,,,,,,,,,,,
,,,,,00019,2023-08-24_16h39.50.092,vbt_B1_day4,2022.2.4,Win32,56.98979883,,,,,,down,0,2.5028,,0.147222222,0.151851852,1,0,0,0,190,190,136,1,waarbij,images/br_waarbij.png,images/cb_waarbij.png,0,,,,,,,,,,,,,,,,,,,,,,
,,,,,00019,2023-08-24_16h39.50.092,vbt_B1_day4,2022.2.4,Win32,56.98979883,,,,,,down,0,0.6827,,0.147222222,0.151851852,1,0,0,0,191,191,15,1,soda,images/br_soda.png,images/cb_soda.png,0,,,,,,,,,,,,,,,,,,,,,,
,,,,,00019,2023-08-24_16h39.50.092,vbt_B1_day4,2022.2.4,Win32,56.98979883,,,,,,down,0,1.005,,0.147222222,0.151851852,1,0,0,0,192,192,134,1,geliefd,images/br_geliefd.png,images/cb_geliefd.png,0,,,,,,,,,,,,,,,,,,,,,,
,,,,,00019,2023-08-24_16h39.50.092,vbt_B1_day4,2022.2.4,Win32,56.98979883,,,,,,down,0,0.3076,,0.147222222,0.151851852,1,0,0,0,193,193,49,1,laken,images/br_laken.png,images/cb_laken.png,0,,,,,,,,,,,,,,,,,,,,,,
,,,,,00019,2023-08-24_16h39.50.092,vbt_B1_day4,2022.2.4,Win32,56.98979883,,,,,,down,0,0.3783,,0.147222222,0.151851852,1,0,0,0,194,194,118,1,vinger,images/br_vinger.png,images/cb_vinger.png,0,,,,,,,,,,,,,,,,,,,,,,
,,,,,00019,2023-08-24_16h39.50.092,vbt_B1_day4,2022.2.4,Win32,56.98979883,,,,,,down,0,0.4155,,0.147222222,0.151851852,1,0,0,0,195,195,77,1,woede,images/br_woede.png,images/cb_woede.png,0,,,,,,,,,,,,,,,,,,,,,,
,,,,,00019,2023-08-24_16h39.50.092,vbt_B1_day4,2022.2.4,Win32,56.98979883,,,,,,down,0,0.2335,,0.147222222,0.151851852,1,0,0,0,196,196,88,1,boeien,images/br_boeien.png,images/cb_boeien.png,0,,,,,,,,,,,,,,,,,,,,,,
,,,,,00019,2023-08-24_16h39.50.092,vbt_B1_day4,2022.2.4,Win32,56.98979883,,,,,,down,0,1.2873,,0.147222222,0.151851852,1,0,0,0,197,197,111,1,ticket,images/br_ticket.png,images/cb_ticket.png,0,,,,,,,,,,,,,,,,,,,,,,
,,,,,00019,2023-08-24_16h39.50.092,vbt_B1_day4,2022.2.4,Win32,56.98979883,,,,,,down,0,5.5795,,0.147222222,0.151851852,1,0,0,0,198,198,163,1,schuilen,images/br_schuilen.png,images/cb_schuilen.png,0,,,,,,,,,,,,,,,,,,,,,,
,,,,,00019,2023-08-24_16h39.50.092,vbt_B1_day4,2022.2.4,Win32,56.98979883,,,,,,down,0,2.2186,,0.147222222,0.151851852,1,0,0,0,199,199,105,1,wijlen,images/br_wijlen.png,images/cb_wijlen.png,1,wijlen,,,,,,,,,,,,,,,,,,,,,
,,,,,00019,2023-08-24_16h39.50.092,vbt_B1_day4,2022.2.4,Win32,56.98979883,,,,,,,,,,,,,,,,,,,,,,,,,0.147222222,0.151851852,1,0,0,,,,,,,,,,,,,,,,
,,,,,00019,2023-08-24_16h39.50.092,vbt_B1_day4,2022.2.4,Win32,56.98979883,,,,,,,,,,,,,,,,,,,,,,,,,,,,,,0.5,-0.002777778,1,0,0,,,,,,,,,,,
,,,,,00019,2023-08-24_16h39.50.092,vbt_B1_day4,2022.2.4,Win32,56.98979883,,,,,,,,,,,,,,,,,,,,grappen,images/br_grappen.png,images/cb_grappen.png,,grappen,,,,,,,,,,,0.5,-0.003703704,1,0,0,grappen,0,0,0,12,1
,,,,,00019,2023-08-24_16h39.50.092,vbt_B1_day4,2022.2.4,Win32,56.98979883,,,,,,,,,,,,,,,,,,,,wagon,images/br_wagon.png,images/cb_wagon.png,,wagon,,,,,,,,,,,0.5,0,1,0,0,wagon,0,1,1,4,1
,,,,,00019,2023-08-24_16h39.50.092,vbt_B1_day4,2022.2.4,Win32,56.98979883,,,,,,,,,,,,,,,,,,,,seizoen,images/br_seizoen.png,images/cb_seizoen.png,,seizoen,,,,,,,,,,,0.483333333,-0.018518519,1,0,0,seizoen,0,2,2,13,1
,,,,,00019,2023-08-24_16h39.50.092,vbt_B1_day4,2022.2.4,Win32,56.98979883,,,,,,,,,,,,,,,,,,,,gedicht,images/br_gedicht.png,images/cb_gedicht.png,,gedicht,,,,,,,,,,,0.483333333,-0.018518519,1,0,0,gedicht,0,3,3,15,1
,,,,,00019,2023-08-24_16h39.50.092,vbt_B1_day4,2022.2.4,Win32,56.98979883,,,,,,,,,,,,,,,,,,,,gaaf,images/br_gaaf.png,images/cb_gaaf.png,,gaaf,,,,,,,,,,,0.483333333,-0.018518519,1,0,0,gaaf,0,4,4,43,1
,,,,,00019,2023-08-24_16h39.50.092,vbt_B1_day4,2022.2.4,Win32,56.98979883,,,,,,,,,,,,,,,,,,,,pijnlijk,images/br_pijnlijk.png,images/cb_pijnlijk.png,,pijnlijk,,,,,,,,,,,0.483333333,-0.02037037,1,0,0,pijnlijk,0,5,5,58,1
,,,,,00019,2023-08-24_16h39.50.092,vbt_B1_day4,2022.2.4,Win32,56.98979883,,,,,,,,,,,,,,,,,,,,weigeren,images/br_weigeren.png,images/cb_weigeren.png,,weigeren,,,,,,,,,,,0.412037037,0.012962963,1,0,0,weigeren,0,6,6,16,1
,,,,,00019,2023-08-24_16h39.50.092,vbt_B1_day4,2022.2.4,Win32,56.98979883,,,,,,,,,,,,,,,,,,,,wozing,images/br_wozing.png,images/cb_wozing.png,,wozing,,,,,,,,,,,0.412037037,0.012962963,1,0,0,wozing,0,7,7,28,1
,,,,,00019,2023-08-24_16h39.50.092,vbt_B1_day4,2022.2.4,Win32,56.98979883,,,,,,,,,,,,,,,,,,,,ezel,images/br_ezel.png,images/cb_ezel.png,,ezel,,,,,,,,,,,0.412037037,0.012962963,1,0,0,ezel,0,8,8,42,1
,,,,,00019,2023-08-24_16h39.50.092,vbt_B1_day4,2022.2.4,Win32,56.98979883,,,,,,,,,,,,,,,,,,,,waarop,images/br_waarop.png,images/cb_waarop.png,,waarop,,,,,,,,,,,0.409259259,0.012962963,1,0,0,waarop,0,9,9,9,1
,,,,,00019,2023-08-24_16h39.50.092,vbt_B1_day4,2022.2.4,Win32,56.98979883,,,,,,,,,,,,,,,,,,,,eerst,images/br_eerst.png,images/cb_eerst.png,,eerst,,,,,,,,,,,0.408333333,0.012962963,1,0,0,eerst,0,10,10,47,1
,,,,,00019,2023-08-24_16h39.50.092,vbt_B1_day4,2022.2.4,Win32,56.98979883,,,,,,,,,,,,,,,,,,,,rijp,images/br_rijp.png,images/cb_rijp.png,,rijp,,,,,,,,,,,0.408333333,0.012962963,1,0,0,rijp,0,11,11,2,1
,,,,,00019,2023-08-24_16h39.50.092,vbt_B1_day4,2022.2.4,Win32,56.98979883,,,,,,,,,,,,,,,,,,,,gebit,images/br_gebit.png,images/cb_gebit.png,,gebit,,,,,,,,,,,0.408333333,0.012962963,1,0,0,gebit,0,12,12,6,1
,,,,,00019,2023-08-24_16h39.50.092,vbt_B1_day4,2022.2.4,Win32,56.98979883,,,,,,,,,,,,,,,,,,,,tucket,images/br_tucket.png,images/cb_tucket.png,,tuck..,,,,,,,,,,,0.408333333,0.012962963,1,0,0,tuck..,0,13,13,30,1
,,,,,00019,2023-08-24_16h39.50.092,vbt_B1_day4,2022.2.4,Win32,56.98979883,,,,,,,,,,,,,,,,,,,,soda,images/br_soda.png,images/cb_soda.png,,soda,,,,,,,,,,,0.408333333,0.012962963,1,0,0,soda,0,14,14,3,1
,,,,,00019,2023-08-24_16h39.50.092,vbt_B1_day4,2022.2.4,Win32,56.98979883,,,,,,,,,,,,,,,,,,,,apparaat,images/br_apparaat.png,images/cb_apparaat.png,,apparaat,,,,,,,,,,,0.408333333,0.012962963,1,0,0,apparaat,0,15,15,17,1
,,,,,00019,2023-08-24_16h39.50.092,vbt_B1_day4,2022.2.4,Win32,56.98979883,,,,,,,,,,,,,,,,,,,,heengaan,images/br_heengaan.png,images/cb_heengaan.png,,heengaan,,,,,,,,,,,0.638888889,-0.062962963,1,0,0,heengaan,0,16,16,19,1
,,,,,00019,2023-08-24_16h39.50.092,vbt_B1_day4,2022.2.4,Win32,56.98979883,,,,,,,,,,,,,,,,,,,,vreten,images/br_vreten.png,images/cb_vreten.png,,vreten,,,,,,,,,,,0.638888889,-0.062962963,1,0,0,vreten,0,17,17,11,1
,,,,,00019,2023-08-24_16h39.50.092,vbt_B1_day4,2022.2.4,Win32,56.98979883,,,,,,,,,,,,,,,,,,,,schenden,images/br_schenden.png,images/cb_schenden.png,,schenden,,,,,,,,,,,0.638888889,-0.062962963,1,0,0,schenden,0,18,18,57,1
,,,,,00019,2023-08-24_16h39.50.092,vbt_B1_day4,2022.2.4,Win32,56.98979883,,,,,,,,,,,,,,,,,,,,getucht,images/br_getucht.png,images/cb_getucht.png,,getucht,,,,,,,,,,,0.683333333,-0.068518519,1,0,0,getucht,0,19,19,35,1
,,,,,00019,2023-08-24_16h39.50.092,vbt_B1_day4,2022.2.4,Win32,56.98979883,,,,,,,,,,,,,,,,,,,,snee,images/br_snee.png,images/cb_snee.png,,snee,,,,,,,,,,,0.683333333,-0.068518519,1,0,0,snee,0,20,20,40,1
,,,,,00019,2023-08-24_16h39.50.092,vbt_B1_day4,2022.2.4,Win32,56.98979883,,,,,,,,,,,,,,,,,,,,seizoon,images/br_seizoon.png,images/cb_seizoon.png,,seizoon,,,,,,,,,,,0.683333333,-0.068518519,1,0,0,seizoon,0,21,21,33,1
,,,,,00019,2023-08-24_16h39.50.092,vbt_B1_day4,2022.2.4,Win32,56.98979883,,,,,,,,,,,,,,,,,,,,dalen,images/br_dalen.png,images/cb_dalen.png,,dalen,,,,,,,,,,,0.683333333,-0.068518519,1,0,0,dalen,0,22,22,46,1
,,,,,00019,2023-08-24_16h39.50.092,vbt_B1_day4,2022.2.4,Win32,56.98979883,,,,,,,,,,,,,,,,,,,,aanzwaag,images/br_aanzwaag.png,images/cb_aanzwaag.png,,aanzwaag,,,,,,,,,,,0.691666667,-0.080555556,1,0,0,aanzwaag,0,23,23,38,1
,,,,,00019,2023-08-24_16h39.50.092,vbt_B1_day4,2022.2.4,Win32,56.98979883,,,,,,,,,,,,,,,,,,,,fran,images/br_fran.png,images/cb_fran.png,,fran,,,,,,,,,,,0.723148148,-0.056481481,1,0,0,fran,0,24,24,22,1
,,,,,00019,2023-08-24_16h39.50.092,vbt_B1_day4,2022.2.4,Win32,56.98979883,,,,,,,,,,,,,,,,,,,,broodje,images/br_broodje.png,images/cb_broodje.png,,broodje,,,,,,,,,,,0.723148148,-0.056481481,1,0,0,broodje,0,25,25,55,1
,,,,,00019,2023-08-24_16h39.50.092,vbt_B1_day4,2022.2.4,Win32,56.98979883,,,,,,,,,,,,,,,,,,,,mekst,images/br_mekst.png,images/cb_mekst.png,,meskt,,,,,,,,,,,0.74537037,-0.062037037,1,0,0,meskt,0,26,26,27,1
,,,,,00019,2023-08-24_16h39.50.092,vbt_B1_day4,2022.2.4,Win32,56.98979883,,,,,,,,,,,,,,,,,,,,praat,images/br_praat.png,images/cb_praat.png,,praat,,,,,,,,,,,0.74537037,-0.062037037,1,0,0,praat,0,27,27,7,1
,,,,,00019,2023-08-24_16h39.50.092,vbt_B1_day4,2022.2.4,Win32,56.98979883,,,,,,,,,,,,,,,,,,,,noodzaak,images/br_noodzaak.png,images/cb_noodzaak.png,,noodzaak,,,,,,,,,,,0.74537037,-0.062037037,1,0,0,noodzaak,0,28,28,56,1
,,,,,00019,2023-08-24_16h39.50.092,vbt_B1_day4,2022.2.4,Win32,56.98979883,,,,,,,,,,,,,,,,,,,,bruin,images/br_bruin.png,images/cb_bruin.png,,bruin,,,,,,,,,,,0.397222222,-0.137037037,1,0,0,bruin,0,29,29,45,1
,,,,,00019,2023-08-24_16h39.50.092,vbt_B1_day4,2022.2.4,Win32,56.98979883,,,,,,,,,,,,,,,,,,,,oceaan,images/br_oceaan.png,images/cb_oceaan.png,,oceaan,,,,,,,,,,,0.42962963,-0.161111111,1,0,0,oceaan,0,30,30,10,1
,,,,,00019,2023-08-24_16h39.50.092,vbt_B1_day4,2022.2.4,Win32,56.98979883,,,,,,,,,,,,,,,,,,,,opkicht,images/br_opkicht.png,images/cb_opkicht.png,,opkicht,,,,,,,,,,,0.42962963,-0.161111111,1,0,0,opkicht,0,31,31,34,1
,,,,,00019,2023-08-24_16h39.50.092,vbt_B1_day4,2022.2.4,Win32,56.98979883,,,,,,,,,,,,,,,,,,,,schotel,images/br_schotel.png,images/cb_schotel.png,,schotel,,,,,,,,,,,0.42962963,-0.161111111,1,0,0,schotel,0,32,32,52,1
,,,,,00019,2023-08-24_16h39.50.092,vbt_B1_day4,2022.2.4,Win32,56.98979883,,,,,,,,,,,,,,,,,,,,opruimen,images/br_opruimen.png,images/cb_opruimen.png,,oprui.en,,,,,,,,,,,0.42962963,-0.161111111,1,0,0,oprui.en,0,33,33,59,1
,,,,,00019,2023-08-24_16h39.50.092,vbt_B1_day4,2022.2.4,Win32,56.98979883,,,,,,,,,,,,,,,,,,,,flippen,images/br_flippen.png,images/cb_flippen.png,,flippen,,,,,,,,,,,0.461111111,-0.103703704,1,0,0,flippen,0,34,34,54,1
,,,,,00019,2023-08-24_16h39.50.092,vbt_B1_day4,2022.2.4,Win32,56.98979883,,,,,,,,,,,,,,,,,,,,toevol,images/br_toevol.png,images/cb_toevol.png,,toeval,,,,,,,,,,,0.473148148,-0.091666667,1,0,0,toeval,0,35,35,29,1
,,,,,00019,2023-08-24_16h39.50.092,vbt_B1_day4,2022.2.4,Win32,56.98979883,,,,,,,,,,,,,,,,,,,,dozijn,images/br_dozijn.png,images/cb_dozijn.png,,dozijn,,,,,,,,,,,0.417592593,-0.052777778,1,0,0,dozijn,0,36,36,48,1
,,,,,00019,2023-08-24_16h39.50.092,vbt_B1_day4,2022.2.4,Win32,56.98979883,,,,,,,,,,,,,,,,,,,,lappen,images/br_lappen.png,images/cb_lappen.png,,lappen,,,,,,,,,,,0.436111111,-0.062037037,1,0,0,lappen,0,37,37,49,1
,,,,,00019,2023-08-24_16h39.50.092,vbt_B1_day4,2022.2.4,Win32,56.98979883,,,,,,,,,,,,,,,,,,,,midden,images/br_midden.png,images/cb_midden.png,,midden,,,,,,,,,,,0.436111111,-0.062037037,1,0,0,midden,0,38,38,50,1
,,,,,00019,2023-08-24_16h39.50.092,vbt_B1_day4,2022.2.4,Win32,56.98979883,,,,,,,,,,,,,,,,,,,,haza,images/br_haza.png,images/cb_haza.png,,haza,,,,,,,,,,,0.436111111,-0.062037037,1,0,0,haza,0,39,39,21,1
,,,,,00019,2023-08-24_16h39.50.092,vbt_B1_day4,2022.2.4,Win32,56.98979883,,,,,,,,,,,,,,,,,,,,pittig,images/br_pittig.png,images/cb_pittig.png,,pittig,,,,,,,,,,,0.447222222,-0.056481481,1,0,0,pittig,0,40,40,51,1
,,,,,00019,2023-08-24_16h39.50.092,vbt_B1_day4,2022.2.4,Win32,56.98979883,,,,,,,,,,,,,,,,,,,,gijf,images/br_gijf.png,images/cb_gijf.png,,gijf,,,,,,,,,,,0.447222222,-0.056481481,1,0,0,gijf,0,41,41,23,1
,,,,,00019,2023-08-24_16h39.50.092,vbt_B1_day4,2022.2.4,Win32,56.98979883,,,,,,,,,,,,,,,,,,,,drooien,images/br_drooien.png,images/cb_drooien.png,,drooien,,,,,,,,,,,0.440740741,-0.053703704,1,0,0,drooien,0,42,42,32,1
,,,,,00019,2023-08-24_16h39.50.092,vbt_B1_day4,2022.2.4,Win32,56.98979883,,,,,,,,,,,,,,,,,,,,gaan,images/br_gaan.png,images/cb_gaan.png,,gaan,,,,,,,,,,,0.440740741,-0.053703704,1,0,0,gaan,0,43,43,41,1
,,,,,00019,2023-08-24_16h39.50.092,vbt_B1_day4,2022.2.4,Win32,56.98979883,,,,,,,,,,,,,,,,,,,,warel,images/br_warel.png,images/cb_warel.png,,warel,,,,,,,,,,,0.440740741,-0.053703704,1,0,0,warel,0,44,44,26,1
,,,,,00019,2023-08-24_16h39.50.092,vbt_B1_day4,2022.2.4,Win32,56.98979883,,,,,,,,,,,,,,,,,,,,gebog,images/br_gebog.png,images/cb_gebog.png,,gebog,,,,,,,,,,,0.440740741,-0.053703704,1,0,0,gebog,0,45,45,24,1
,,,,,00019,2023-08-24_16h39.50.092,vbt_B1_day4,2022.2.4,Win32,56.98979883,,,,,,,,,,,,,,,,,,,,geheim,images/br_geheim.png,images/cb_geheim.png,,geheim,,,,,,,,,,,0.443518519,-0.147222222,1,0,0,geheim,0,46,46,8,1
,,,,,00019,2023-08-24_16h39.50.092,vbt_B1_day4,2022.2.4,Win32,56.98979883,,,,,,,,,,,,,,,,,,,,kust,images/br_kust.png,images/cb_kust.png,,kust,,,,,,,,,,,0.502777778,-0.137037037,1,0,0,kust,0,47,47,0,1
,,,,,00019,2023-08-24_16h39.50.092,vbt_B1_day4,2022.2.4,Win32,56.98979883,,,,,,,,,,,,,,,,,,,,strok,images/br_strok.png,images/cb_strok.png,,strak,,,,,,,,,,,0.494444444,-0.071296296,1,0,0,strak,0,48,48,25,1
,,,,,00019,2023-08-24_16h39.50.092,vbt_B1_day4,2022.2.4,Win32,56.98979883,,,,,,,,,,,,,,,,,,,,drummer,images/br_drummer.png,images/cb_drummer.png,,drummer,,,,,,,,,,,0.474074074,-0.096296296,1,0,0,drummer,0,49,49,53,1
,,,,,00019,2023-08-24_16h39.50.092,vbt_B1_day4,2022.2.4,Win32,56.98979883,,,,,,,,,,,,,,,,,,,,paalbaak,images/br_paalbaak.png,images/cb_paalbaak.png,,paalbaak,,,,,,,,,,,0.123148148,0.013888889,1,0,0,paalbaak,0,50,50,39,1
,,,,,00019,2023-08-24_16h39.50.092,vbt_B1_day4,2022.2.4,Win32,56.98979883,,,,,,,,,,,,,,,,,,,,stemming,images/br_stemming.png,images/cb_stemming.png,,stemming,,,,,,,,,,,0.389814815,-0.076851852,1,0,0,stemming,0,51,51,18,1
,,,,,00019,2023-08-24_16h39.50.092,vbt_B1_day4,2022.2.4,Win32,56.98979883,,,,,,,,,,,,,,,,,,,,geliefd,images/br_geliefd.png,images/cb_geliefd.png,,geliefd,,,,,,,,,,,0.389814815,-0.076851852,1,0,0,geliefd,0,52,52,14,1
,,,,,00019,2023-08-24_16h39.50.092,vbt_B1_day4,2022.2.4,Win32,56.98979883,,,,,,,,,,,,,,,,,,,,zwek,images/br_zwek.png,images/cb_zwek.png,,zwek,,,,,,,,,,,0.389814815,-0.076851852,1,0,0,zwek,0,53,53,20,1
,,,,,00019,2023-08-24_16h39.50.092,vbt_B1_day4,2022.2.4,Win32,56.98979883,,,,,,,,,,,,,,,,,,,,zaalrijk,images/br_zaalrijk.png,images/cb_zaalrijk.png,,zaalrijk,,,,,,,,,,,0.421296296,-0.114814815,1,0,0,zaalrijk,0,54,54,37,1
,,,,,00019,2023-08-24_16h39.50.092,vbt_B1_day4,2022.2.4,Win32,56.98979883,,,,,,,,,,,,,,,,,,,,sulbon,images/br_sulbon.png,images/cb_sulbon.png,,sulbon,,,,,,,,,,,0.401851852,-0.117592593,1,0,0,sulbon,0,55,55,31,1
,,,,,00019,2023-08-24_16h39.50.092,vbt_B1_day4,2022.2.4,Win32,56.98979883,,,,,,,,,,,,,,,,,,,,bisschap,images/br_bisschap.png,images/cb_bisschap.png,,bisschop,,,,,,,,,,,0.327777778,-0.186111111,1,0,0,bisschop,0,56,56,36,1
,,,,,00019,2023-08-24_16h39.50.092,vbt_B1_day4,2022.2.4,Win32,56.98979883,,,,,,,,,,,,,,,,,,,,steen,images/br_steen.png,images/cb_steen.png,,steen,,,,,,,,,,,0.389814815,-0.194444444,1,0,0,steen,0,57,57,44,1
,,,,,00019,2023-08-24_16h39.50.092,vbt_B1_day4,2022.2.4,Win32,56.98979883,,,,,,,,,,,,,,,,,,,,kaal,images/br_kaal.png,images/cb_kaal.png,,kaal,,,,,,,,,,,0.389814815,-0.194444444,1,0,0,kaal,0,58,58,1,1
,,,,,00019,2023-08-24_16h39.50.092,vbt_B1_day4,2022.2.4,Win32,56.98979883,,,,,,,,,,,,,,,,,,,,baron,images/br_baron.png,images/cb_baron.png,,baron,,,,,,,,,,,0.389814815,-0.194444444,1,0,0,baron,0,59,59,5,1
,,,,,00019,2023-08-24_16h39.50.092,vbt_B1_day4,2022.2.4,Win32,56.98979883,,,,,,,,,,,,,,,,,,,,,,,,,,,,,,,,,,,,,,,,,,,,,
