welcome_mouse.x,welcome_mouse.y,welcome_mouse.leftButton,welcome_mouse.midButton,welcome_mouse.rightButton,welcome_mouse.time,"ID",date,expName,psychopyVersion,OS,frameRate,mouse_2.x,mouse_2.y,mouse_2.leftButton,mouse_2.midButton,mouse_2.rightButton,mouse_2.time,mouse_3.x,mouse_3.y,mouse_3.leftButton,mouse_3.midButton,mouse_3.rightButton,mouse_3.time,train_mouse.x,train_mouse.y,train_mouse.leftButton,train_mouse.midButton,train_mouse.rightButton,train_mouse.time,braille_mouse.x,braille_mouse.y,braille_mouse.leftButton,braille_mouse.midButton,braille_mouse.rightButton,braille_mouse.time,trials.thisRepN,trials.thisTrialN,trials.thisN,trials.thisIndex,trials.ran,nlLet,brLet,cbLet,mouse.x,mouse.y,mouse.leftButton,mouse.midButton,mouse.rightButton,testInstr_mouse.x,testInstr_mouse.y,testInstr_mouse.leftButton,testInstr_mouse.midButton,testInstr_mouse.rightButton,test_mouse.x,test_mouse.y,test_mouse.leftButton,test_mouse.midButton,test_mouse.rightButton,test_response.text,testResp,test_loop.thisRepN,test_loop.thisTrialN,test_loop.thisN,test_loop.thisIndex,test_loop.ran,nlWrd,brWrd,cbWrd
-0.14444443,-0.303703732,1,0,0,20.6904,00090,2023-10-23_15h49.17.683,vbt_B1_day1,2022.2.4,Win32,144.2169022,,,,,,,,,,,,,,,,,,,,,,,,,,,,,,,,,,,,,,,,,,,,,,,,,,,,,,,,,
,,,,,,00090,2023-10-23_15h49.17.683,vbt_B1_day1,2022.2.4,Win32,144.2169022,-0.021296254,-0.404629672,1,0,0,11.6919,,,,,,,,,,,,,,,,,,,,,,,,,,,,,,,,,,,,,,,,,,,,,,,,,,,
,,,,,,00090,2023-10-23_15h49.17.683,vbt_B1_day1,2022.2.4,Win32,144.2169022,,,,,,,0.050000014,-0.391666695,1,0,0,6.6053,,,,,,,,,,,,,,,,,,,,,,,,,,,,,,,,,,,,,,,,,,,,,
,,,,,,00090,2023-10-23_15h49.17.683,vbt_B1_day1,2022.2.4,Win32,144.2169022,,,,,,,,,,,,,0.02407406,-0.281481496,1,0,0,44.7448,,,,,,,,,,,,,,,,,,,,,,,,,,,,,,,,,,,,,,,
,,,,,,00090,2023-10-23_15h49.17.683,vbt_B1_day1,2022.2.4,Win32,144.2169022,,,,,,,,,,,,,,,,,,,0.02407406,-0.281481496,1,0,0,7.2009,0,0,0,0,1,a,images/br_a.png,images/cb_a.png,,,,,,,,,,,,,,,,,,,,,,,,,
,,,,,,00090,2023-10-23_15h49.17.683,vbt_B1_day1,2022.2.4,Win32,144.2169022,,,,,,,,,,,,,,,,,,,0.02407406,-0.281481496,1,0,0,0.139,0,1,1,9,1,j,images/br_j.png,images/cb_j.png,,,,,,,,,,,,,,,,,,,,,,,,,
,,,,,,00090,2023-10-23_15h49.17.683,vbt_B1_day1,2022.2.4,Win32,144.2169022,,,,,,,,,,,,,,,,,,,0.02407406,-0.263888889,1,0,0,2.005,0,2,2,21,1,v,images/br_v.png,images/cb_v.png,,,,,,,,,,,,,,,,,,,,,,,,,
,,,,,,00090,2023-10-23_15h49.17.683,vbt_B1_day1,2022.2.4,Win32,144.2169022,,,,,,,,,,,,,,,,,,,0.02407406,-0.263888889,1,0,0,1.8293,0,3,3,8,1,i,images/br_i.png,images/cb_i.png,,,,,,,,,,,,,,,,,,,,,,,,,
,,,,,,00090,2023-10-23_15h49.17.683,vbt_B1_day1,2022.2.4,Win32,144.2169022,,,,,,,,,,,,,,,,,,,0.031481496,-0.242592635,1,0,0,1.1972,0,4,4,16,1,q,images/br_q.png,images/cb_q.png,,,,,,,,,,,,,,,,,,,,,,,,,
,,,,,,00090,2023-10-23_15h49.17.683,vbt_B1_day1,2022.2.4,Win32,144.2169022,,,,,,,,,,,,,,,,,,,0.031481496,-0.242592635,1,0,0,1.613,0,5,5,4,1,e,images/br_e.png,images/cb_e.png,,,,,,,,,,,,,,,,,,,,,,,,,
,,,,,,00090,2023-10-23_15h49.17.683,vbt_B1_day1,2022.2.4,Win32,144.2169022,,,,,,,,,,,,,,,,,,,0.031481496,-0.242592635,1,0,0,1.0117,0,6,6,3,1,d,images/br_d.png,images/cb_d.png,,,,,,,,,,,,,,,,,,,,,,,,,
,,,,,,00090,2023-10-23_15h49.17.683,vbt_B1_day1,2022.2.4,Win32,144.2169022,,,,,,,,,,,,,,,,,,,0.031481496,-0.242592635,1,0,0,0.1214,0,7,7,23,1,x,images/br_x.png,images/cb_x.png,,,,,,,,,,,,,,,,,,,,,,,,,
,,,,,,00090,2023-10-23_15h49.17.683,vbt_B1_day1,2022.2.4,Win32,144.2169022,,,,,,,,,,,,,,,,,,,0.031481496,-0.242592635,1,0,0,0.2788,0,8,8,12,1,m,images/br_m.png,images/cb_m.png,,,,,,,,,,,,,,,,,,,,,,,,,
,,,,,,00090,2023-10-23_15h49.17.683,vbt_B1_day1,2022.2.4,Win32,144.2169022,,,,,,,,,,,,,,,,,,,0.031481496,-0.242592635,1,0,0,0.4709,0,9,9,25,1,z,images/br_z.png,images/cb_z.png,,,,,,,,,,,,,,,,,,,,,,,,,
,,,,,,00090,2023-10-23_15h49.17.683,vbt_B1_day1,2022.2.4,Win32,144.2169022,,,,,,,,,,,,,,,,,,,0.031481496,-0.242592635,1,0,0,0.4375,0,10,10,5,1,f,images/br_f.png,images/cb_f.png,,,,,,,,,,,,,,,,,,,,,,,,,
,,,,,,00090,2023-10-23_15h49.17.683,vbt_B1_day1,2022.2.4,Win32,144.2169022,,,,,,,,,,,,,,,,,,,0.031481496,-0.242592635,1,0,0,5.121,0,11,11,22,1,w,images/br_w.png,images/cb_w.png,,,,,,,,,,,,,,,,,,,,,,,,,
,,,,,,00090,2023-10-23_15h49.17.683,vbt_B1_day1,2022.2.4,Win32,144.2169022,,,,,,,,,,,,,,,,,,,0.031481496,-0.242592635,1,0,0,0.3059,0,12,12,7,1,h,images/br_h.png,images/cb_h.png,,,,,,,,,,,,,,,,,,,,,,,,,
,,,,,,00090,2023-10-23_15h49.17.683,vbt_B1_day1,2022.2.4,Win32,144.2169022,,,,,,,,,,,,,,,,,,,0.031481496,-0.242592635,1,0,0,0.0976,0,13,13,14,1,o,images/br_o.png,images/cb_o.png,,,,,,,,,,,,,,,,,,,,,,,,,
,,,,,,00090,2023-10-23_15h49.17.683,vbt_B1_day1,2022.2.4,Win32,144.2169022,,,,,,,,,,,,,,,,,,,0.031481496,-0.242592635,1,0,0,0.3057,0,14,14,10,1,k,images/br_k.png,images/cb_k.png,,,,,,,,,,,,,,,,,,,,,,,,,
,,,,,,00090,2023-10-23_15h49.17.683,vbt_B1_day1,2022.2.4,Win32,144.2169022,,,,,,,,,,,,,,,,,,,0.031481496,-0.242592635,1,0,0,0.2655,0,15,15,2,1,c,images/br_c.png,images/cb_c.png,,,,,,,,,,,,,,,,,,,,,,,,,
,,,,,,00090,2023-10-23_15h49.17.683,vbt_B1_day1,2022.2.4,Win32,144.2169022,,,,,,,,,,,,,,,,,,,0.031481496,-0.242592635,1,0,0,0.0488,0,16,16,18,1,s,images/br_s.png,images/cb_s.png,,,,,,,,,,,,,,,,,,,,,,,,,
,,,,,,00090,2023-10-23_15h49.17.683,vbt_B1_day1,2022.2.4,Win32,144.2169022,,,,,,,,,,,,,,,,,,,0.031481496,-0.242592635,1,0,0,0.7569,0,17,17,6,1,g,images/br_g.png,images/cb_g.png,,,,,,,,,,,,,,,,,,,,,,,,,
,,,,,,00090,2023-10-23_15h49.17.683,vbt_B1_day1,2022.2.4,Win32,144.2169022,,,,,,,,,,,,,,,,,,,0.031481496,-0.242592635,1,0,0,0.493,0,18,18,20,1,u,images/br_u.png,images/cb_u.png,,,,,,,,,,,,,,,,,,,,,,,,,
,,,,,,00090,2023-10-23_15h49.17.683,vbt_B1_day1,2022.2.4,Win32,144.2169022,,,,,,,,,,,,,,,,,,,0.031481496,-0.242592635,1,0,0,0.1462,0,19,19,19,1,t,images/br_t.png,images/cb_t.png,,,,,,,,,,,,,,,,,,,,,,,,,
,,,,,,00090,2023-10-23_15h49.17.683,vbt_B1_day1,2022.2.4,Win32,144.2169022,,,,,,,,,,,,,,,,,,,0.031481496,-0.242592635,1,0,0,0.0631,0,20,20,17,1,r,images/br_r.png,images/cb_r.png,,,,,,,,,,,,,,,,,,,,,,,,,
,,,,,,00090,2023-10-23_15h49.17.683,vbt_B1_day1,2022.2.4,Win32,144.2169022,,,,,,,,,,,,,,,,,,,0.031481496,-0.242592635,1,0,0,0.5354,0,21,21,1,1,b,images/br_b.png,images/cb_b.png,,,,,,,,,,,,,,,,,,,,,,,,,
,,,,,,00090,2023-10-23_15h49.17.683,vbt_B1_day1,2022.2.4,Win32,144.2169022,,,,,,,,,,,,,,,,,,,0.031481496,-0.242592635,1,0,0,0.0144,0,22,22,24,1,y,images/br_y.png,images/cb_y.png,,,,,,,,,,,,,,,,,,,,,,,,,
,,,,,,00090,2023-10-23_15h49.17.683,vbt_B1_day1,2022.2.4,Win32,144.2169022,,,,,,,,,,,,,,,,,,,0.031481496,-0.242592635,1,0,0,0.2982,0,23,23,13,1,n,images/br_n.png,images/cb_n.png,,,,,,,,,,,,,,,,,,,,,,,,,
,,,,,,00090,2023-10-23_15h49.17.683,vbt_B1_day1,2022.2.4,Win32,144.2169022,,,,,,,,,,,,,,,,,,,0.031481496,-0.242592635,1,0,0,0.0964,0,24,24,15,1,p,images/br_p.png,images/cb_p.png,,,,,,,,,,,,,,,,,,,,,,,,,
,,,,,,00090,2023-10-23_15h49.17.683,vbt_B1_day1,2022.2.4,Win32,144.2169022,,,,,,,,,,,,,,,,,,,0.031481496,-0.242592635,1,0,0,0.0635,0,25,25,11,1,l,images/br_l.png,images/cb_l.png,,,,,,,,,,,,,,,,,,,,,,,,,
,,,,,,00090,2023-10-23_15h49.17.683,vbt_B1_day1,2022.2.4,Win32,144.2169022,,,,,,,,,,,,,,,,,,,0.031481496,-0.242592635,1,0,0,0.496,1,0,26,16,1,q,images/br_q.png,images/cb_q.png,,,,,,,,,,,,,,,,,,,,,,,,,
,,,,,,00090,2023-10-23_15h49.17.683,vbt_B1_day1,2022.2.4,Win32,144.2169022,,,,,,,,,,,,,,,,,,,0.031481496,-0.242592635,1,0,0,0.2157,1,1,27,1,1,b,images/br_b.png,images/cb_b.png,,,,,,,,,,,,,,,,,,,,,,,,,
,,,,,,00090,2023-10-23_15h49.17.683,vbt_B1_day1,2022.2.4,Win32,144.2169022,,,,,,,,,,,,,,,,,,,0.031481496,-0.242592635,1,0,0,0.1548,1,2,28,14,1,o,images/br_o.png,images/cb_o.png,,,,,,,,,,,,,,,,,,,,,,,,,
,,,,,,00090,2023-10-23_15h49.17.683,vbt_B1_day1,2022.2.4,Win32,144.2169022,,,,,,,,,,,,,,,,,,,0.031481496,-0.242592635,1,0,0,0.0827,1,3,29,24,1,y,images/br_y.png,images/cb_y.png,,,,,,,,,,,,,,,,,,,,,,,,,
,,,,,,00090,2023-10-23_15h49.17.683,vbt_B1_day1,2022.2.4,Win32,144.2169022,,,,,,,,,,,,,,,,,,,0.031481496,-0.242592635,1,0,0,0.0136,1,4,30,11,1,l,images/br_l.png,images/cb_l.png,,,,,,,,,,,,,,,,,,,,,,,,,
,,,,,,00090,2023-10-23_15h49.17.683,vbt_B1_day1,2022.2.4,Win32,144.2169022,,,,,,,,,,,,,,,,,,,0.031481496,-0.242592635,1,0,0,0.0977,1,5,31,17,1,r,images/br_r.png,images/cb_r.png,,,,,,,,,,,,,,,,,,,,,,,,,
,,,,,,00090,2023-10-23_15h49.17.683,vbt_B1_day1,2022.2.4,Win32,144.2169022,,,,,,,,,,,,,,,,,,,0.031481496,-0.242592635,1,0,0,0.0489,1,6,32,6,1,g,images/br_g.png,images/cb_g.png,,,,,,,,,,,,,,,,,,,,,,,,,
,,,,,,00090,2023-10-23_15h49.17.683,vbt_B1_day1,2022.2.4,Win32,144.2169022,,,,,,,,,,,,,,,,,,,0.031481496,-0.242592635,1,0,0,0.0542,1,7,33,23,1,x,images/br_x.png,images/cb_x.png,,,,,,,,,,,,,,,,,,,,,,,,,
,,,,,,00090,2023-10-23_15h49.17.683,vbt_B1_day1,2022.2.4,Win32,144.2169022,,,,,,,,,,,,,,,,,,,0.031481496,-0.242592635,1,0,0,1.2079,1,8,34,10,1,k,images/br_k.png,images/cb_k.png,,,,,,,,,,,,,,,,,,,,,,,,,
,,,,,,00090,2023-10-23_15h49.17.683,vbt_B1_day1,2022.2.4,Win32,144.2169022,,,,,,,,,,,,,,,,,,,0.031481496,-0.242592635,1,0,0,0.1035,1,9,35,0,1,a,images/br_a.png,images/cb_a.png,,,,,,,,,,,,,,,,,,,,,,,,,
,,,,,,00090,2023-10-23_15h49.17.683,vbt_B1_day1,2022.2.4,Win32,144.2169022,,,,,,,,,,,,,,,,,,,0.031481496,-0.242592635,1,0,0,0.0966,1,10,36,18,1,s,images/br_s.png,images/cb_s.png,,,,,,,,,,,,,,,,,,,,,,,,,
,,,,,,00090,2023-10-23_15h49.17.683,vbt_B1_day1,2022.2.4,Win32,144.2169022,,,,,,,,,,,,,,,,,,,0.031481496,-0.242592635,1,0,0,0.2294,1,11,37,9,1,j,images/br_j.png,images/cb_j.png,,,,,,,,,,,,,,,,,,,,,,,,,
,,,,,,00090,2023-10-23_15h49.17.683,vbt_B1_day1,2022.2.4,Win32,144.2169022,,,,,,,,,,,,,,,,,,,0.031481496,-0.242592635,1,0,0,0.0978,1,12,38,22,1,w,images/br_w.png,images/cb_w.png,,,,,,,,,,,,,,,,,,,,,,,,,
,,,,,,00090,2023-10-23_15h49.17.683,vbt_B1_day1,2022.2.4,Win32,144.2169022,,,,,,,,,,,,,,,,,,,0.031481496,-0.242592635,1,0,0,0.0078,1,13,39,7,1,h,images/br_h.png,images/cb_h.png,,,,,,,,,,,,,,,,,,,,,,,,,
,,,,,,00090,2023-10-23_15h49.17.683,vbt_B1_day1,2022.2.4,Win32,144.2169022,,,,,,,,,,,,,,,,,,,0.031481496,-0.242592635,1,0,0,0.0079,1,14,40,2,1,c,images/br_c.png,images/cb_c.png,,,,,,,,,,,,,,,,,,,,,,,,,
,,,,,,00090,2023-10-23_15h49.17.683,vbt_B1_day1,2022.2.4,Win32,144.2169022,,,,,,,,,,,,,,,,,,,0.031481496,-0.242592635,1,0,0,0.5905,1,15,41,3,1,d,images/br_d.png,images/cb_d.png,,,,,,,,,,,,,,,,,,,,,,,,,
,,,,,,00090,2023-10-23_15h49.17.683,vbt_B1_day1,2022.2.4,Win32,144.2169022,,,,,,,,,,,,,,,,,,,0.031481496,-0.242592635,1,0,0,0.1174,1,16,42,19,1,t,images/br_t.png,images/cb_t.png,,,,,,,,,,,,,,,,,,,,,,,,,
,,,,,,00090,2023-10-23_15h49.17.683,vbt_B1_day1,2022.2.4,Win32,144.2169022,,,,,,,,,,,,,,,,,,,0.031481496,-0.242592635,1,0,0,0.0979,1,17,43,8,1,i,images/br_i.png,images/cb_i.png,,,,,,,,,,,,,,,,,,,,,,,,,
,,,,,,00090,2023-10-23_15h49.17.683,vbt_B1_day1,2022.2.4,Win32,144.2169022,,,,,,,,,,,,,,,,,,,0.031481496,-0.242592635,1,0,0,0.8116,1,18,44,25,1,z,images/br_z.png,images/cb_z.png,,,,,,,,,,,,,,,,,,,,,,,,,
,,,,,,00090,2023-10-23_15h49.17.683,vbt_B1_day1,2022.2.4,Win32,144.2169022,,,,,,,,,,,,,,,,,,,0.031481496,-0.242592635,1,0,0,0.1184,1,19,45,5,1,f,images/br_f.png,images/cb_f.png,,,,,,,,,,,,,,,,,,,,,,,,,
,,,,,,00090,2023-10-23_15h49.17.683,vbt_B1_day1,2022.2.4,Win32,144.2169022,,,,,,,,,,,,,,,,,,,0.031481496,-0.242592635,1,0,0,0.0839,1,20,46,21,1,v,images/br_v.png,images/cb_v.png,,,,,,,,,,,,,,,,,,,,,,,,,
,,,,,,00090,2023-10-23_15h49.17.683,vbt_B1_day1,2022.2.4,Win32,144.2169022,,,,,,,,,,,,,,,,,,,0.031481496,-0.242592635,1,0,0,0.0631,1,21,47,13,1,n,images/br_n.png,images/cb_n.png,,,,,,,,,,,,,,,,,,,,,,,,,
,,,,,,00090,2023-10-23_15h49.17.683,vbt_B1_day1,2022.2.4,Win32,144.2169022,,,,,,,,,,,,,,,,,,,0.031481496,-0.242592635,1,0,0,0.3683,1,22,48,12,1,m,images/br_m.png,images/cb_m.png,,,,,,,,,,,,,,,,,,,,,,,,,
,,,,,,00090,2023-10-23_15h49.17.683,vbt_B1_day1,2022.2.4,Win32,144.2169022,,,,,,,,,,,,,,,,,,,0.155555584,-0.262962977,1,0,0,0.0829,1,23,49,4,1,e,images/br_e.png,images/cb_e.png,,,,,,,,,,,,,,,,,,,,,,,,,
,,,,,,00090,2023-10-23_15h49.17.683,vbt_B1_day1,2022.2.4,Win32,144.2169022,,,,,,,,,,,,,,,,,,,0.155555584,-0.262962977,1,0,0,0.077,1,24,50,20,1,u,images/br_u.png,images/cb_u.png,,,,,,,,,,,,,,,,,,,,,,,,,
,,,,,,00090,2023-10-23_15h49.17.683,vbt_B1_day1,2022.2.4,Win32,144.2169022,,,,,,,,,,,,,,,,,,,0.155555584,-0.262962977,1,0,0,0.3829,1,25,51,15,1,p,images/br_p.png,images/cb_p.png,,,,,,,,,,,,,,,,,,,,,,,,,
,,,,,,00090,2023-10-23_15h49.17.683,vbt_B1_day1,2022.2.4,Win32,144.2169022,,,,,,,,,,,,,,,,,,,0.155555584,-0.262962977,1,0,0,0.1246,2,0,52,9,1,j,images/br_j.png,images/cb_j.png,,,,,,,,,,,,,,,,,,,,,,,,,
,,,,,,00090,2023-10-23_15h49.17.683,vbt_B1_day1,2022.2.4,Win32,144.2169022,,,,,,,,,,,,,,,,,,,0.155555584,-0.262962977,1,0,0,0.1008,2,1,53,22,1,w,images/br_w.png,images/cb_w.png,,,,,,,,,,,,,,,,,,,,,,,,,
,,,,,,00090,2023-10-23_15h49.17.683,vbt_B1_day1,2022.2.4,Win32,144.2169022,,,,,,,,,,,,,,,,,,,0.155555584,-0.262962977,1,0,0,0.0695,2,2,54,0,1,a,images/br_a.png,images/cb_a.png,,,,,,,,,,,,,,,,,,,,,,,,,
,,,,,,00090,2023-10-23_15h49.17.683,vbt_B1_day1,2022.2.4,Win32,144.2169022,,,,,,,,,,,,,,,,,,,0.155555584,-0.262962977,1,0,0,0.4243,2,3,55,21,1,v,images/br_v.png,images/cb_v.png,,,,,,,,,,,,,,,,,,,,,,,,,
,,,,,,00090,2023-10-23_15h49.17.683,vbt_B1_day1,2022.2.4,Win32,144.2169022,,,,,,,,,,,,,,,,,,,0.155555584,-0.262962977,1,0,0,0.0426,2,4,56,25,1,z,images/br_z.png,images/cb_z.png,,,,,,,,,,,,,,,,,,,,,,,,,
,,,,,,00090,2023-10-23_15h49.17.683,vbt_B1_day1,2022.2.4,Win32,144.2169022,,,,,,,,,,,,,,,,,,,0.155555584,-0.262962977,1,0,0,0.6385,2,5,57,16,1,q,images/br_q.png,images/cb_q.png,,,,,,,,,,,,,,,,,,,,,,,,,
,,,,,,00090,2023-10-23_15h49.17.683,vbt_B1_day1,2022.2.4,Win32,144.2169022,,,,,,,,,,,,,,,,,,,0.155555584,-0.262962977,1,0,0,0.0424,2,6,58,20,1,u,images/br_u.png,images/cb_u.png,,,,,,,,,,,,,,,,,,,,,,,,,
,,,,,,00090,2023-10-23_15h49.17.683,vbt_B1_day1,2022.2.4,Win32,144.2169022,,,,,,,,,,,,,,,,,,,0.155555584,-0.262962977,1,0,0,0.0351,2,7,59,8,1,i,images/br_i.png,images/cb_i.png,,,,,,,,,,,,,,,,,,,,,,,,,
,,,,,,00090,2023-10-23_15h49.17.683,vbt_B1_day1,2022.2.4,Win32,144.2169022,,,,,,,,,,,,,,,,,,,0.155555584,-0.262962977,1,0,0,0.0422,2,8,60,17,1,r,images/br_r.png,images/cb_r.png,,,,,,,,,,,,,,,,,,,,,,,,,
,,,,,,00090,2023-10-23_15h49.17.683,vbt_B1_day1,2022.2.4,Win32,144.2169022,,,,,,,,,,,,,,,,,,,0.155555584,-0.262962977,1,0,0,0.1592,2,9,61,12,1,m,images/br_m.png,images/cb_m.png,,,,,,,,,,,,,,,,,,,,,,,,,
,,,,,,00090,2023-10-23_15h49.17.683,vbt_B1_day1,2022.2.4,Win32,144.2169022,,,,,,,,,,,,,,,,,,,0.155555584,-0.262962977,1,0,0,0.0931,2,10,62,10,1,k,images/br_k.png,images/cb_k.png,,,,,,,,,,,,,,,,,,,,,,,,,
,,,,,,00090,2023-10-23_15h49.17.683,vbt_B1_day1,2022.2.4,Win32,144.2169022,,,,,,,,,,,,,,,,,,,0.155555584,-0.262962977,1,0,0,0.1049,2,11,63,5,1,f,images/br_f.png,images/cb_f.png,,,,,,,,,,,,,,,,,,,,,,,,,
,,,,,,00090,2023-10-23_15h49.17.683,vbt_B1_day1,2022.2.4,Win32,144.2169022,,,,,,,,,,,,,,,,,,,0.155555584,-0.262962977,1,0,0,0.0539,2,12,64,4,1,e,images/br_e.png,images/cb_e.png,,,,,,,,,,,,,,,,,,,,,,,,,
,,,,,,00090,2023-10-23_15h49.17.683,vbt_B1_day1,2022.2.4,Win32,144.2169022,,,,,,,,,,,,,,,,,,,0.155555584,-0.262962977,1,0,0,0.0144,2,13,65,7,1,h,images/br_h.png,images/cb_h.png,,,,,,,,,,,,,,,,,,,,,,,,,
,,,,,,00090,2023-10-23_15h49.17.683,vbt_B1_day1,2022.2.4,Win32,144.2169022,,,,,,,,,,,,,,,,,,,0.155555584,-0.262962977,1,0,0,0.0623,2,14,66,6,1,g,images/br_g.png,images/cb_g.png,,,,,,,,,,,,,,,,,,,,,,,,,
,,,,,,00090,2023-10-23_15h49.17.683,vbt_B1_day1,2022.2.4,Win32,144.2169022,,,,,,,,,,,,,,,,,,,0.155555584,-0.262962977,1,0,0,0.0143,2,15,67,11,1,l,images/br_l.png,images/cb_l.png,,,,,,,,,,,,,,,,,,,,,,,,,
,,,,,,00090,2023-10-23_15h49.17.683,vbt_B1_day1,2022.2.4,Win32,144.2169022,,,,,,,,,,,,,,,,,,,0.155555584,-0.262962977,1,0,0,0.3543,2,16,68,15,1,p,images/br_p.png,images/cb_p.png,,,,,,,,,,,,,,,,,,,,,,,,,
,,,,,,00090,2023-10-23_15h49.17.683,vbt_B1_day1,2022.2.4,Win32,144.2169022,,,,,,,,,,,,,,,,,,,0.155555584,-0.262962977,1,0,0,0.0768,2,17,69,14,1,o,images/br_o.png,images/cb_o.png,,,,,,,,,,,,,,,,,,,,,,,,,
,,,,,,00090,2023-10-23_15h49.17.683,vbt_B1_day1,2022.2.4,Win32,144.2169022,,,,,,,,,,,,,,,,,,,0.155555584,-0.262962977,1,0,0,0.6269,2,18,70,19,1,t,images/br_t.png,images/cb_t.png,,,,,,,,,,,,,,,,,,,,,,,,,
,,,,,,00090,2023-10-23_15h49.17.683,vbt_B1_day1,2022.2.4,Win32,144.2169022,,,,,,,,,,,,,,,,,,,0.155555584,-0.262962977,1,0,0,0.0698,2,19,71,3,1,d,images/br_d.png,images/cb_d.png,,,,,,,,,,,,,,,,,,,,,,,,,
,,,,,,00090,2023-10-23_15h49.17.683,vbt_B1_day1,2022.2.4,Win32,144.2169022,,,,,,,,,,,,,,,,,,,0.155555584,-0.262962977,1,0,0,0.0737,2,20,72,23,1,x,images/br_x.png,images/cb_x.png,,,,,,,,,,,,,,,,,,,,,,,,,
,,,,,,00090,2023-10-23_15h49.17.683,vbt_B1_day1,2022.2.4,Win32,144.2169022,,,,,,,,,,,,,,,,,,,0.155555584,-0.262962977,1,0,0,0.35,2,21,73,24,1,y,images/br_y.png,images/cb_y.png,,,,,,,,,,,,,,,,,,,,,,,,,
,,,,,,00090,2023-10-23_15h49.17.683,vbt_B1_day1,2022.2.4,Win32,144.2169022,,,,,,,,,,,,,,,,,,,0.155555584,-0.262962977,1,0,0,0.1325,2,22,74,13,1,n,images/br_n.png,images/cb_n.png,,,,,,,,,,,,,,,,,,,,,,,,,
,,,,,,00090,2023-10-23_15h49.17.683,vbt_B1_day1,2022.2.4,Win32,144.2169022,,,,,,,,,,,,,,,,,,,0.155555584,-0.262962977,1,0,0,0.1884,2,23,75,2,1,c,images/br_c.png,images/cb_c.png,,,,,,,,,,,,,,,,,,,,,,,,,
,,,,,,00090,2023-10-23_15h49.17.683,vbt_B1_day1,2022.2.4,Win32,144.2169022,,,,,,,,,,,,,,,,,,,0.155555584,-0.262962977,1,0,0,0.2469,2,24,76,1,1,b,images/br_b.png,images/cb_b.png,,,,,,,,,,,,,,,,,,,,,,,,,
,,,,,,00090,2023-10-23_15h49.17.683,vbt_B1_day1,2022.2.4,Win32,144.2169022,,,,,,,,,,,,,,,,,,,0.155555584,-0.262962977,1,0,0,0.179,2,25,77,18,1,s,images/br_s.png,images/cb_s.png,,,,,,,,,,,,,,,,,,,,,,,,,
,,,,,,00090,2023-10-23_15h49.17.683,vbt_B1_day1,2022.2.4,Win32,144.2169022,,,,,,,,,,,,,,,,,,,0.155555584,-0.262962977,1,0,0,1.1032,3,0,78,18,1,s,images/br_s.png,images/cb_s.png,,,,,,,,,,,,,,,,,,,,,,,,,
,,,,,,00090,2023-10-23_15h49.17.683,vbt_B1_day1,2022.2.4,Win32,144.2169022,,,,,,,,,,,,,,,,,,,0.155555584,-0.262962977,1,0,0,0.5285,3,1,79,8,1,i,images/br_i.png,images/cb_i.png,,,,,,,,,,,,,,,,,,,,,,,,,
,,,,,,00090,2023-10-23_15h49.17.683,vbt_B1_day1,2022.2.4,Win32,144.2169022,,,,,,,,,,,,,,,,,,,0.155555584,-0.262962977,1,0,0,0.0773,3,2,80,5,1,f,images/br_f.png,images/cb_f.png,,,,,,,,,,,,,,,,,,,,,,,,,
,,,,,,00090,2023-10-23_15h49.17.683,vbt_B1_day1,2022.2.4,Win32,144.2169022,,,,,,,,,,,,,,,,,,,0.155555584,-0.262962977,1,0,0,0.1181,3,3,81,25,1,z,images/br_z.png,images/cb_z.png,,,,,,,,,,,,,,,,,,,,,,,,,
,,,,,,00090,2023-10-23_15h49.17.683,vbt_B1_day1,2022.2.4,Win32,144.2169022,,,,,,,,,,,,,,,,,,,0.155555584,-0.262962977,1,0,0,0.1745,3,4,82,11,1,l,images/br_l.png,images/cb_l.png,,,,,,,,,,,,,,,,,,,,,,,,,
,,,,,,00090,2023-10-23_15h49.17.683,vbt_B1_day1,2022.2.4,Win32,144.2169022,,,,,,,,,,,,,,,,,,,0.155555584,-0.262962977,1,0,0,2.2633,3,5,83,16,1,q,images/br_q.png,images/cb_q.png,,,,,,,,,,,,,,,,,,,,,,,,,
,,,,,,00090,2023-10-23_15h49.17.683,vbt_B1_day1,2022.2.4,Win32,144.2169022,,,,,,,,,,,,,,,,,,,0.155555584,-0.262962977,1,0,0,0.2016,3,6,84,0,1,a,images/br_a.png,images/cb_a.png,,,,,,,,,,,,,,,,,,,,,,,,,
,,,,,,00090,2023-10-23_15h49.17.683,vbt_B1_day1,2022.2.4,Win32,144.2169022,,,,,,,,,,,,,,,,,,,0.155555584,-0.262962977,1,0,0,0.1319,3,7,85,15,1,p,images/br_p.png,images/cb_p.png,,,,,,,,,,,,,,,,,,,,,,,,,
,,,,,,00090,2023-10-23_15h49.17.683,vbt_B1_day1,2022.2.4,Win32,144.2169022,,,,,,,,,,,,,,,,,,,0.155555584,-0.262962977,1,0,0,3.9732,3,8,86,9,1,j,images/br_j.png,images/cb_j.png,,,,,,,,,,,,,,,,,,,,,,,,,
,,,,,,00090,2023-10-23_15h49.17.683,vbt_B1_day1,2022.2.4,Win32,144.2169022,,,,,,,,,,,,,,,,,,,0.155555584,-0.262962977,1,0,0,0.9375,3,9,87,13,1,n,images/br_n.png,images/cb_n.png,,,,,,,,,,,,,,,,,,,,,,,,,
,,,,,,00090,2023-10-23_15h49.17.683,vbt_B1_day1,2022.2.4,Win32,144.2169022,,,,,,,,,,,,,,,,,,,0.155555584,-0.262962977,1,0,0,0.8457,3,10,88,4,1,e,images/br_e.png,images/cb_e.png,,,,,,,,,,,,,,,,,,,,,,,,,
,,,,,,00090,2023-10-23_15h49.17.683,vbt_B1_day1,2022.2.4,Win32,144.2169022,,,,,,,,,,,,,,,,,,,0.155555584,-0.262962977,1,0,0,0.347,3,11,89,14,1,o,images/br_o.png,images/cb_o.png,,,,,,,,,,,,,,,,,,,,,,,,,
,,,,,,00090,2023-10-23_15h49.17.683,vbt_B1_day1,2022.2.4,Win32,144.2169022,,,,,,,,,,,,,,,,,,,0.155555584,-0.262962977,1,0,0,0.0347,3,12,90,19,1,t,images/br_t.png,images/cb_t.png,,,,,,,,,,,,,,,,,,,,,,,,,
,,,,,,00090,2023-10-23_15h49.17.683,vbt_B1_day1,2022.2.4,Win32,144.2169022,,,,,,,,,,,,,,,,,,,0.155555584,-0.262962977,1,0,0,0.112,3,13,91,2,1,c,images/br_c.png,images/cb_c.png,,,,,,,,,,,,,,,,,,,,,,,,,
,,,,,,00090,2023-10-23_15h49.17.683,vbt_B1_day1,2022.2.4,Win32,144.2169022,,,,,,,,,,,,,,,,,,,0.155555584,-0.262962977,1,0,0,0.3537,3,14,92,6,1,g,images/br_g.png,images/cb_g.png,,,,,,,,,,,,,,,,,,,,,,,,,
,,,,,,00090,2023-10-23_15h49.17.683,vbt_B1_day1,2022.2.4,Win32,144.2169022,,,,,,,,,,,,,,,,,,,0.155555584,-0.262962977,1,0,0,0.3956,3,15,93,20,1,u,images/br_u.png,images/cb_u.png,,,,,,,,,,,,,,,,,,,,,,,,,
,,,,,,00090,2023-10-23_15h49.17.683,vbt_B1_day1,2022.2.4,Win32,144.2169022,,,,,,,,,,,,,,,,,,,0.155555584,-0.262962977,1,0,0,3.5881,3,16,94,7,1,h,images/br_h.png,images/cb_h.png,,,,,,,,,,,,,,,,,,,,,,,,,
,,,,,,00090,2023-10-23_15h49.17.683,vbt_B1_day1,2022.2.4,Win32,144.2169022,,,,,,,,,,,,,,,,,,,0.155555584,-0.262962977,1,0,0,0.146,3,17,95,23,1,x,images/br_x.png,images/cb_x.png,,,,,,,,,,,,,,,,,,,,,,,,,
,,,,,,00090,2023-10-23_15h49.17.683,vbt_B1_day1,2022.2.4,Win32,144.2169022,,,,,,,,,,,,,,,,,,,0.155555584,-0.262962977,1,0,0,2.2699,3,18,96,17,1,r,images/br_r.png,images/cb_r.png,,,,,,,,,,,,,,,,,,,,,,,,,
,,,,,,00090,2023-10-23_15h49.17.683,vbt_B1_day1,2022.2.4,Win32,144.2169022,,,,,,,,,,,,,,,,,,,0.155555584,-0.262962977,1,0,0,2.0864,3,19,97,12,1,m,images/br_m.png,images/cb_m.png,,,,,,,,,,,,,,,,,,,,,,,,,
,,,,,,00090,2023-10-23_15h49.17.683,vbt_B1_day1,2022.2.4,Win32,144.2169022,,,,,,,,,,,,,,,,,,,0.155555584,-0.262962977,1,0,0,0.952,3,20,98,10,1,k,images/br_k.png,images/cb_k.png,,,,,,,,,,,,,,,,,,,,,,,,,
,,,,,,00090,2023-10-23_15h49.17.683,vbt_B1_day1,2022.2.4,Win32,144.2169022,,,,,,,,,,,,,,,,,,,0.155555584,-0.262962977,1,0,0,0.8889,3,21,99,22,1,w,images/br_w.png,images/cb_w.png,,,,,,,,,,,,,,,,,,,,,,,,,
,,,,,,00090,2023-10-23_15h49.17.683,vbt_B1_day1,2022.2.4,Win32,144.2169022,,,,,,,,,,,,,,,,,,,0.155555584,-0.262962977,1,0,0,0.5652,3,22,100,3,1,d,images/br_d.png,images/cb_d.png,,,,,,,,,,,,,,,,,,,,,,,,,
,,,,,,00090,2023-10-23_15h49.17.683,vbt_B1_day1,2022.2.4,Win32,144.2169022,,,,,,,,,,,,,,,,,,,0.155555584,-0.262962977,1,0,0,0.4158,3,23,101,1,1,b,images/br_b.png,images/cb_b.png,,,,,,,,,,,,,,,,,,,,,,,,,
,,,,,,00090,2023-10-23_15h49.17.683,vbt_B1_day1,2022.2.4,Win32,144.2169022,,,,,,,,,,,,,,,,,,,0.155555584,-0.262962977,1,0,0,1.5625,3,24,102,21,1,v,images/br_v.png,images/cb_v.png,,,,,,,,,,,,,,,,,,,,,,,,,
,,,,,,00090,2023-10-23_15h49.17.683,vbt_B1_day1,2022.2.4,Win32,144.2169022,,,,,,,,,,,,,,,,,,,0.155555584,-0.262962977,1,0,0,1.7011,3,25,103,24,1,y,images/br_y.png,images/cb_y.png,,,,,,,,,,,,,,,,,,,,,,,,,
,,,,,,00090,2023-10-23_15h49.17.683,vbt_B1_day1,2022.2.4,Win32,144.2169022,,,,,,,,,,,,,,,,,,,0.155555584,-0.262962977,1,0,0,0.9467,4,0,104,12,1,m,images/br_m.png,images/cb_m.png,,,,,,,,,,,,,,,,,,,,,,,,,
,,,,,,00090,2023-10-23_15h49.17.683,vbt_B1_day1,2022.2.4,Win32,144.2169022,,,,,,,,,,,,,,,,,,,0.155555584,-0.262962977,1,0,0,0.2325,4,1,105,23,1,x,images/br_x.png,images/cb_x.png,,,,,,,,,,,,,,,,,,,,,,,,,
,,,,,,00090,2023-10-23_15h49.17.683,vbt_B1_day1,2022.2.4,Win32,144.2169022,,,,,,,,,,,,,,,,,,,0.155555584,-0.262962977,1,0,0,0.0281,4,2,106,7,1,h,images/br_h.png,images/cb_h.png,,,,,,,,,,,,,,,,,,,,,,,,,
,,,,,,00090,2023-10-23_15h49.17.683,vbt_B1_day1,2022.2.4,Win32,144.2169022,,,,,,,,,,,,,,,,,,,0.155555584,-0.262962977,1,0,0,0.3544,4,3,107,4,1,e,images/br_e.png,images/cb_e.png,,,,,,,,,,,,,,,,,,,,,,,,,
,,,,,,00090,2023-10-23_15h49.17.683,vbt_B1_day1,2022.2.4,Win32,144.2169022,,,,,,,,,,,,,,,,,,,0.155555584,-0.262962977,1,0,0,0.7221,4,4,108,5,1,f,images/br_f.png,images/cb_f.png,,,,,,,,,,,,,,,,,,,,,,,,,
,,,,,,00090,2023-10-23_15h49.17.683,vbt_B1_day1,2022.2.4,Win32,144.2169022,,,,,,,,,,,,,,,,,,,0.155555584,-0.262962977,1,0,0,1.1598,4,5,109,21,1,v,images/br_v.png,images/cb_v.png,,,,,,,,,,,,,,,,,,,,,,,,,
,,,,,,00090,2023-10-23_15h49.17.683,vbt_B1_day1,2022.2.4,Win32,144.2169022,,,,,,,,,,,,,,,,,,,0.155555584,-0.262962977,1,0,0,2.0813,4,6,110,13,1,n,images/br_n.png,images/cb_n.png,,,,,,,,,,,,,,,,,,,,,,,,,
,,,,,,00090,2023-10-23_15h49.17.683,vbt_B1_day1,2022.2.4,Win32,144.2169022,,,,,,,,,,,,,,,,,,,0.155555584,-0.262962977,1,0,0,0.0424,4,7,111,22,1,w,images/br_w.png,images/cb_w.png,,,,,,,,,,,,,,,,,,,,,,,,,
,,,,,,00090,2023-10-23_15h49.17.683,vbt_B1_day1,2022.2.4,Win32,144.2169022,,,,,,,,,,,,,,,,,,,0.155555584,-0.262962977,1,0,0,0.4311,4,8,112,0,1,a,images/br_a.png,images/cb_a.png,,,,,,,,,,,,,,,,,,,,,,,,,
,,,,,,00090,2023-10-23_15h49.17.683,vbt_B1_day1,2022.2.4,Win32,144.2169022,,,,,,,,,,,,,,,,,,,0.155555584,-0.262962977,1,0,0,0.4164,4,9,113,11,1,l,images/br_l.png,images/cb_l.png,,,,,,,,,,,,,,,,,,,,,,,,,
,,,,,,00090,2023-10-23_15h49.17.683,vbt_B1_day1,2022.2.4,Win32,144.2169022,,,,,,,,,,,,,,,,,,,0.155555584,-0.262962977,1,0,0,0.9269,4,10,114,8,1,i,images/br_i.png,images/cb_i.png,,,,,,,,,,,,,,,,,,,,,,,,,
,,,,,,00090,2023-10-23_15h49.17.683,vbt_B1_day1,2022.2.4,Win32,144.2169022,,,,,,,,,,,,,,,,,,,0.155555584,-0.262962977,1,0,0,0.5354,4,11,115,17,1,r,images/br_r.png,images/cb_r.png,,,,,,,,,,,,,,,,,,,,,,,,,
,,,,,,00090,2023-10-23_15h49.17.683,vbt_B1_day1,2022.2.4,Win32,144.2169022,,,,,,,,,,,,,,,,,,,0.155555584,-0.262962977,1,0,0,0.2877,4,12,116,14,1,o,images/br_o.png,images/cb_o.png,,,,,,,,,,,,,,,,,,,,,,,,,
,,,,,,00090,2023-10-23_15h49.17.683,vbt_B1_day1,2022.2.4,Win32,144.2169022,,,,,,,,,,,,,,,,,,,0.155555584,-0.262962977,1,0,0,0.5147,4,13,117,25,1,z,images/br_z.png,images/cb_z.png,,,,,,,,,,,,,,,,,,,,,,,,,
,,,,,,00090,2023-10-23_15h49.17.683,vbt_B1_day1,2022.2.4,Win32,144.2169022,,,,,,,,,,,,,,,,,,,0.155555584,-0.262962977,1,0,0,0.0285,4,14,118,1,1,b,images/br_b.png,images/cb_b.png,,,,,,,,,,,,,,,,,,,,,,,,,
,,,,,,00090,2023-10-23_15h49.17.683,vbt_B1_day1,2022.2.4,Win32,144.2169022,,,,,,,,,,,,,,,,,,,0.155555584,-0.262962977,1,0,0,0.2674,4,15,119,19,1,t,images/br_t.png,images/cb_t.png,,,,,,,,,,,,,,,,,,,,,,,,,
,,,,,,00090,2023-10-23_15h49.17.683,vbt_B1_day1,2022.2.4,Win32,144.2169022,,,,,,,,,,,,,,,,,,,0.155555584,-0.262962977,1,0,0,1.1675,4,16,120,3,1,d,images/br_d.png,images/cb_d.png,,,,,,,,,,,,,,,,,,,,,,,,,
,,,,,,00090,2023-10-23_15h49.17.683,vbt_B1_day1,2022.2.4,Win32,144.2169022,,,,,,,,,,,,,,,,,,,0.155555584,-0.262962977,1,0,0,0.0832,4,17,121,24,1,y,images/br_y.png,images/cb_y.png,,,,,,,,,,,,,,,,,,,,,,,,,
,,,,,,00090,2023-10-23_15h49.17.683,vbt_B1_day1,2022.2.4,Win32,144.2169022,,,,,,,,,,,,,,,,,,,0.155555584,-0.262962977,1,0,0,0.7085,4,18,122,10,1,k,images/br_k.png,images/cb_k.png,,,,,,,,,,,,,,,,,,,,,,,,,
,,,,,,00090,2023-10-23_15h49.17.683,vbt_B1_day1,2022.2.4,Win32,144.2169022,,,,,,,,,,,,,,,,,,,0.155555584,-0.262962977,1,0,0,1.8219,4,19,123,2,1,c,images/br_c.png,images/cb_c.png,,,,,,,,,,,,,,,,,,,,,,,,,
,,,,,,00090,2023-10-23_15h49.17.683,vbt_B1_day1,2022.2.4,Win32,144.2169022,,,,,,,,,,,,,,,,,,,0.155555584,-0.262962977,1,0,0,0.112,4,20,124,16,1,q,images/br_q.png,images/cb_q.png,,,,,,,,,,,,,,,,,,,,,,,,,
,,,,,,00090,2023-10-23_15h49.17.683,vbt_B1_day1,2022.2.4,Win32,144.2169022,,,,,,,,,,,,,,,,,,,0.155555584,-0.262962977,1,0,0,4.8085,4,21,125,9,1,j,images/br_j.png,images/cb_j.png,,,,,,,,,,,,,,,,,,,,,,,,,
,,,,,,00090,2023-10-23_15h49.17.683,vbt_B1_day1,2022.2.4,Win32,144.2169022,,,,,,,,,,,,,,,,,,,0.155555584,-0.262962977,1,0,0,4.406,4,22,126,20,1,u,images/br_u.png,images/cb_u.png,,,,,,,,,,,,,,,,,,,,,,,,,
,,,,,,00090,2023-10-23_15h49.17.683,vbt_B1_day1,2022.2.4,Win32,144.2169022,,,,,,,,,,,,,,,,,,,0.155555584,-0.262962977,1,0,0,1.104,4,23,127,15,1,p,images/br_p.png,images/cb_p.png,,,,,,,,,,,,,,,,,,,,,,,,,
,,,,,,00090,2023-10-23_15h49.17.683,vbt_B1_day1,2022.2.4,Win32,144.2169022,,,,,,,,,,,,,,,,,,,0.155555584,-0.262962977,1,0,0,0.1527,4,24,128,18,1,s,images/br_s.png,images/cb_s.png,,,,,,,,,,,,,,,,,,,,,,,,,
,,,,,,00090,2023-10-23_15h49.17.683,vbt_B1_day1,2022.2.4,Win32,144.2169022,,,,,,,,,,,,,,,,,,,0.155555584,-0.262962977,1,0,0,4.2288,4,25,129,6,1,g,images/br_g.png,images/cb_g.png,,,,,,,,,,,,,,,,,,,,,,,,,
,,,,,,00090,2023-10-23_15h49.17.683,vbt_B1_day1,2022.2.4,Win32,144.2169022,,,,,,,,,,,,,,,,,,,0.155555584,-0.262962977,1,0,0,0.2604,5,0,130,3,1,d,images/br_d.png,images/cb_d.png,,,,,,,,,,,,,,,,,,,,,,,,,
,,,,,,00090,2023-10-23_15h49.17.683,vbt_B1_day1,2022.2.4,Win32,144.2169022,,,,,,,,,,,,,,,,,,,0.155555584,-0.262962977,1,0,0,2.3331,5,1,131,5,1,f,images/br_f.png,images/cb_f.png,,,,,,,,,,,,,,,,,,,,,,,,,
,,,,,,00090,2023-10-23_15h49.17.683,vbt_B1_day1,2022.2.4,Win32,144.2169022,,,,,,,,,,,,,,,,,,,0.155555584,-0.262962977,1,0,0,0.587,5,2,132,1,1,b,images/br_b.png,images/cb_b.png,,,,,,,,,,,,,,,,,,,,,,,,,
,,,,,,00090,2023-10-23_15h49.17.683,vbt_B1_day1,2022.2.4,Win32,144.2169022,,,,,,,,,,,,,,,,,,,0.155555584,-0.262962977,1,0,0,4.0495,5,3,133,15,1,p,images/br_p.png,images/cb_p.png,,,,,,,,,,,,,,,,,,,,,,,,,
,,,,,,00090,2023-10-23_15h49.17.683,vbt_B1_day1,2022.2.4,Win32,144.2169022,,,,,,,,,,,,,,,,,,,0.155555584,-0.262962977,1,0,0,3.2966,5,4,134,9,1,j,images/br_j.png,images/cb_j.png,,,,,,,,,,,,,,,,,,,,,,,,,
,,,,,,00090,2023-10-23_15h49.17.683,vbt_B1_day1,2022.2.4,Win32,144.2169022,,,,,,,,,,,,,,,,,,,0.155555584,-0.262962977,1,0,0,0.0214,5,5,135,23,1,x,images/br_x.png,images/cb_x.png,,,,,,,,,,,,,,,,,,,,,,,,,
,,,,,,00090,2023-10-23_15h49.17.683,vbt_B1_day1,2022.2.4,Win32,144.2169022,,,,,,,,,,,,,,,,,,,0.155555584,-0.262962977,1,0,0,4.8279,5,6,136,19,1,t,images/br_t.png,images/cb_t.png,,,,,,,,,,,,,,,,,,,,,,,,,
,,,,,,00090,2023-10-23_15h49.17.683,vbt_B1_day1,2022.2.4,Win32,144.2169022,,,,,,,,,,,,,,,,,,,0.155555584,-0.262962977,1,0,0,1.2542,5,7,137,7,1,h,images/br_h.png,images/cb_h.png,,,,,,,,,,,,,,,,,,,,,,,,,
,,,,,,00090,2023-10-23_15h49.17.683,vbt_B1_day1,2022.2.4,Win32,144.2169022,,,,,,,,,,,,,,,,,,,0.155555584,-0.262962977,1,0,0,1.1673,5,8,138,17,1,r,images/br_r.png,images/cb_r.png,,,,,,,,,,,,,,,,,,,,,,,,,
,,,,,,00090,2023-10-23_15h49.17.683,vbt_B1_day1,2022.2.4,Win32,144.2169022,,,,,,,,,,,,,,,,,,,0.155555584,-0.262962977,1,0,0,2.1454,5,9,139,4,1,e,images/br_e.png,images/cb_e.png,,,,,,,,,,,,,,,,,,,,,,,,,
,,,,,,00090,2023-10-23_15h49.17.683,vbt_B1_day1,2022.2.4,Win32,144.2169022,,,,,,,,,,,,,,,,,,,0.155555584,-0.262962977,1,0,0,0.2361,5,10,140,0,1,a,images/br_a.png,images/cb_a.png,,,,,,,,,,,,,,,,,,,,,,,,,
,,,,,,00090,2023-10-23_15h49.17.683,vbt_B1_day1,2022.2.4,Win32,144.2169022,,,,,,,,,,,,,,,,,,,0.155555584,-0.262962977,1,0,0,0.992,5,11,141,21,1,v,images/br_v.png,images/cb_v.png,,,,,,,,,,,,,,,,,,,,,,,,,
,,,,,,00090,2023-10-23_15h49.17.683,vbt_B1_day1,2022.2.4,Win32,144.2169022,,,,,,,,,,,,,,,,,,,0.155555584,-0.262962977,1,0,0,0.9862,5,12,142,2,1,c,images/br_c.png,images/cb_c.png,,,,,,,,,,,,,,,,,,,,,,,,,
,,,,,,00090,2023-10-23_15h49.17.683,vbt_B1_day1,2022.2.4,Win32,144.2169022,,,,,,,,,,,,,,,,,,,0.155555584,-0.262962977,1,0,0,0.0906,5,13,143,25,1,z,images/br_z.png,images/cb_z.png,,,,,,,,,,,,,,,,,,,,,,,,,
,,,,,,00090,2023-10-23_15h49.17.683,vbt_B1_day1,2022.2.4,Win32,144.2169022,,,,,,,,,,,,,,,,,,,0.155555584,-0.262962977,1,0,0,0.6062,5,14,144,20,1,u,images/br_u.png,images/cb_u.png,,,,,,,,,,,,,,,,,,,,,,,,,
,,,,,,00090,2023-10-23_15h49.17.683,vbt_B1_day1,2022.2.4,Win32,144.2169022,,,,,,,,,,,,,,,,,,,0.155555584,-0.262962977,1,0,0,0.4582,5,15,145,8,1,i,images/br_i.png,images/cb_i.png,,,,,,,,,,,,,,,,,,,,,,,,,
,,,,,,00090,2023-10-23_15h49.17.683,vbt_B1_day1,2022.2.4,Win32,144.2169022,,,,,,,,,,,,,,,,,,,0.155555584,-0.262962977,1,0,0,6.1556,5,16,146,12,1,m,images/br_m.png,images/cb_m.png,,,,,,,,,,,,,,,,,,,,,,,,,
,,,,,,00090,2023-10-23_15h49.17.683,vbt_B1_day1,2022.2.4,Win32,144.2169022,,,,,,,,,,,,,,,,,,,0.155555584,-0.262962977,1,0,0,0.084,5,17,147,10,1,k,images/br_k.png,images/cb_k.png,,,,,,,,,,,,,,,,,,,,,,,,,
,,,,,,00090,2023-10-23_15h49.17.683,vbt_B1_day1,2022.2.4,Win32,144.2169022,,,,,,,,,,,,,,,,,,,0.155555584,-0.262962977,1,0,0,0.3203,5,18,148,6,1,g,images/br_g.png,images/cb_g.png,,,,,,,,,,,,,,,,,,,,,,,,,
,,,,,,00090,2023-10-23_15h49.17.683,vbt_B1_day1,2022.2.4,Win32,144.2169022,,,,,,,,,,,,,,,,,,,0.155555584,-0.262962977,1,0,0,0.1257,5,19,149,24,1,y,images/br_y.png,images/cb_y.png,,,,,,,,,,,,,,,,,,,,,,,,,
,,,,,,00090,2023-10-23_15h49.17.683,vbt_B1_day1,2022.2.4,Win32,144.2169022,,,,,,,,,,,,,,,,,,,0.155555584,-0.262962977,1,0,0,0.2056,5,20,150,14,1,o,images/br_o.png,images/cb_o.png,,,,,,,,,,,,,,,,,,,,,,,,,
,,,,,,00090,2023-10-23_15h49.17.683,vbt_B1_day1,2022.2.4,Win32,144.2169022,,,,,,,,,,,,,,,,,,,0.155555584,-0.262962977,1,0,0,0.1855,5,21,151,11,1,l,images/br_l.png,images/cb_l.png,,,,,,,,,,,,,,,,,,,,,,,,,
,,,,,,00090,2023-10-23_15h49.17.683,vbt_B1_day1,2022.2.4,Win32,144.2169022,,,,,,,,,,,,,,,,,,,0.155555584,-0.262962977,1,0,0,2.1683,5,22,152,13,1,n,images/br_n.png,images/cb_n.png,,,,,,,,,,,,,,,,,,,,,,,,,
,,,,,,00090,2023-10-23_15h49.17.683,vbt_B1_day1,2022.2.4,Win32,144.2169022,,,,,,,,,,,,,,,,,,,0.155555584,-0.262962977,1,0,0,0.0896,5,23,153,18,1,s,images/br_s.png,images/cb_s.png,,,,,,,,,,,,,,,,,,,,,,,,,
,,,,,,00090,2023-10-23_15h49.17.683,vbt_B1_day1,2022.2.4,Win32,144.2169022,,,,,,,,,,,,,,,,,,,0.155555584,-0.262962977,1,0,0,1.1971,5,24,154,22,1,w,images/br_w.png,images/cb_w.png,,,,,,,,,,,,,,,,,,,,,,,,,
,,,,,,00090,2023-10-23_15h49.17.683,vbt_B1_day1,2022.2.4,Win32,144.2169022,,,,,,,,,,,,,,,,,,,0.155555584,-0.262962977,0,0,1,0.2449,5,25,155,16,1,q,images/br_q.png,images/cb_q.png,,,,,,,,,,,,,,,,,,,,,,,,,
,,,,,,00090,2023-10-23_15h49.17.683,vbt_B1_day1,2022.2.4,Win32,144.2169022,,,,,,,,,,,,,,,,,,,0.154629672,-0.259259259,1,0,0,0.372,6,0,156,23,1,x,images/br_x.png,images/cb_x.png,,,,,,,,,,,,,,,,,,,,,,,,,
,,,,,,00090,2023-10-23_15h49.17.683,vbt_B1_day1,2022.2.4,Win32,144.2169022,,,,,,,,,,,,,,,,,,,0.154629672,-0.259259259,1,0,0,0.1607,6,1,157,10,1,k,images/br_k.png,images/cb_k.png,,,,,,,,,,,,,,,,,,,,,,,,,
,,,,,,00090,2023-10-23_15h49.17.683,vbt_B1_day1,2022.2.4,Win32,144.2169022,,,,,,,,,,,,,,,,,,,0.154629672,-0.259259259,1,0,0,0.4442,6,2,158,17,1,r,images/br_r.png,images/cb_r.png,,,,,,,,,,,,,,,,,,,,,,,,,
,,,,,,00090,2023-10-23_15h49.17.683,vbt_B1_day1,2022.2.4,Win32,144.2169022,,,,,,,,,,,,,,,,,,,0.154629672,-0.259259259,1,0,0,1.0842,6,3,159,2,1,c,images/br_c.png,images/cb_c.png,,,,,,,,,,,,,,,,,,,,,,,,,
,,,,,,00090,2023-10-23_15h49.17.683,vbt_B1_day1,2022.2.4,Win32,144.2169022,,,,,,,,,,,,,,,,,,,0.154629672,-0.259259259,1,0,0,0.1036,6,4,160,1,1,b,images/br_b.png,images/cb_b.png,,,,,,,,,,,,,,,,,,,,,,,,,
,,,,,,00090,2023-10-23_15h49.17.683,vbt_B1_day1,2022.2.4,Win32,144.2169022,,,,,,,,,,,,,,,,,,,0.154629672,-0.259259259,1,0,0,0.3823,6,5,161,18,1,s,images/br_s.png,images/cb_s.png,,,,,,,,,,,,,,,,,,,,,,,,,
,,,,,,00090,2023-10-23_15h49.17.683,vbt_B1_day1,2022.2.4,Win32,144.2169022,,,,,,,,,,,,,,,,,,,0.154629672,-0.259259259,1,0,0,0.0206,6,6,162,15,1,p,images/br_p.png,images/cb_p.png,,,,,,,,,,,,,,,,,,,,,,,,,
,,,,,,00090,2023-10-23_15h49.17.683,vbt_B1_day1,2022.2.4,Win32,144.2169022,,,,,,,,,,,,,,,,,,,0.154629672,-0.259259259,1,0,0,2.0767,6,7,163,13,1,n,images/br_n.png,images/cb_n.png,,,,,,,,,,,,,,,,,,,,,,,,,
,,,,,,00090,2023-10-23_15h49.17.683,vbt_B1_day1,2022.2.4,Win32,144.2169022,,,,,,,,,,,,,,,,,,,0.154629672,-0.259259259,1,0,0,0.3087,6,8,164,0,1,a,images/br_a.png,images/cb_a.png,,,,,,,,,,,,,,,,,,,,,,,,,
,,,,,,00090,2023-10-23_15h49.17.683,vbt_B1_day1,2022.2.4,Win32,144.2169022,,,,,,,,,,,,,,,,,,,0.154629672,-0.259259259,1,0,0,0.3338,6,9,165,16,1,q,images/br_q.png,images/cb_q.png,,,,,,,,,,,,,,,,,,,,,,,,,
,,,,,,00090,2023-10-23_15h49.17.683,vbt_B1_day1,2022.2.4,Win32,144.2169022,,,,,,,,,,,,,,,,,,,0.154629672,-0.259259259,1,0,0,0.3749,6,10,166,25,1,z,images/br_z.png,images/cb_z.png,,,,,,,,,,,,,,,,,,,,,,,,,
,,,,,,00090,2023-10-23_15h49.17.683,vbt_B1_day1,2022.2.4,Win32,144.2169022,,,,,,,,,,,,,,,,,,,0.154629672,-0.259259259,1,0,0,0.016,6,11,167,21,1,v,images/br_v.png,images/cb_v.png,,,,,,,,,,,,,,,,,,,,,,,,,
,,,,,,00090,2023-10-23_15h49.17.683,vbt_B1_day1,2022.2.4,Win32,144.2169022,,,,,,,,,,,,,,,,,,,0.154629672,-0.259259259,1,0,0,0.0147,6,12,168,7,1,h,images/br_h.png,images/cb_h.png,,,,,,,,,,,,,,,,,,,,,,,,,
,,,,,,00090,2023-10-23_15h49.17.683,vbt_B1_day1,2022.2.4,Win32,144.2169022,,,,,,,,,,,,,,,,,,,0.154629672,-0.259259259,1,0,0,1.7715,6,13,169,9,1,j,images/br_j.png,images/cb_j.png,,,,,,,,,,,,,,,,,,,,,,,,,
,,,,,,00090,2023-10-23_15h49.17.683,vbt_B1_day1,2022.2.4,Win32,144.2169022,,,,,,,,,,,,,,,,,,,0.154629672,-0.259259259,1,0,0,2.2215,6,14,170,4,1,e,images/br_e.png,images/cb_e.png,,,,,,,,,,,,,,,,,,,,,,,,,
,,,,,,00090,2023-10-23_15h49.17.683,vbt_B1_day1,2022.2.4,Win32,144.2169022,,,,,,,,,,,,,,,,,,,0.154629672,-0.259259259,1,0,0,0.0557,6,15,171,19,1,t,images/br_t.png,images/cb_t.png,,,,,,,,,,,,,,,,,,,,,,,,,
,,,,,,00090,2023-10-23_15h49.17.683,vbt_B1_day1,2022.2.4,Win32,144.2169022,,,,,,,,,,,,,,,,,,,0.154629672,-0.259259259,1,0,0,0.2982,6,16,172,22,1,w,images/br_w.png,images/cb_w.png,,,,,,,,,,,,,,,,,,,,,,,,,
,,,,,,00090,2023-10-23_15h49.17.683,vbt_B1_day1,2022.2.4,Win32,144.2169022,,,,,,,,,,,,,,,,,,,0.154629672,-0.259259259,1,0,0,0.0137,6,17,173,24,1,y,images/br_y.png,images/cb_y.png,,,,,,,,,,,,,,,,,,,,,,,,,
,,,,,,00090,2023-10-23_15h49.17.683,vbt_B1_day1,2022.2.4,Win32,144.2169022,,,,,,,,,,,,,,,,,,,0.154629672,-0.259259259,1,0,0,0.4723,6,18,174,8,1,i,images/br_i.png,images/cb_i.png,,,,,,,,,,,,,,,,,,,,,,,,,
,,,,,,00090,2023-10-23_15h49.17.683,vbt_B1_day1,2022.2.4,Win32,144.2169022,,,,,,,,,,,,,,,,,,,0.154629672,-0.259259259,1,0,0,0.0275,6,19,175,12,1,m,images/br_m.png,images/cb_m.png,,,,,,,,,,,,,,,,,,,,,,,,,
,,,,,,00090,2023-10-23_15h49.17.683,vbt_B1_day1,2022.2.4,Win32,144.2169022,,,,,,,,,,,,,,,,,,,0.154629672,-0.259259259,1,0,0,0.392,6,20,176,11,1,l,images/br_l.png,images/cb_l.png,,,,,,,,,,,,,,,,,,,,,,,,,
,,,,,,00090,2023-10-23_15h49.17.683,vbt_B1_day1,2022.2.4,Win32,144.2169022,,,,,,,,,,,,,,,,,,,0.154629672,-0.259259259,1,0,0,0.0352,6,21,177,5,1,f,images/br_f.png,images/cb_f.png,,,,,,,,,,,,,,,,,,,,,,,,,
,,,,,,00090,2023-10-23_15h49.17.683,vbt_B1_day1,2022.2.4,Win32,144.2169022,,,,,,,,,,,,,,,,,,,0.154629672,-0.259259259,1,0,0,0.0557,6,22,178,20,1,u,images/br_u.png,images/cb_u.png,,,,,,,,,,,,,,,,,,,,,,,,,
,,,,,,00090,2023-10-23_15h49.17.683,vbt_B1_day1,2022.2.4,Win32,144.2169022,,,,,,,,,,,,,,,,,,,0.154629672,-0.259259259,1,0,0,0.4028,6,23,179,6,1,g,images/br_g.png,images/cb_g.png,,,,,,,,,,,,,,,,,,,,,,,,,
,,,,,,00090,2023-10-23_15h49.17.683,vbt_B1_day1,2022.2.4,Win32,144.2169022,,,,,,,,,,,,,,,,,,,0.154629672,-0.259259259,1,0,0,0.2764,6,24,180,3,1,d,images/br_d.png,images/cb_d.png,,,,,,,,,,,,,,,,,,,,,,,,,
,,,,,,00090,2023-10-23_15h49.17.683,vbt_B1_day1,2022.2.4,Win32,144.2169022,,,,,,,,,,,,,,,,,,,0.154629672,-0.259259259,1,0,0,0.0073,6,25,181,14,1,o,images/br_o.png,images/cb_o.png,,,,,,,,,,,,,,,,,,,,,,,,,
,,,,,,00090,2023-10-23_15h49.17.683,vbt_B1_day1,2022.2.4,Win32,144.2169022,,,,,,,,,,,,,,,,,,,,,,,,,,,,,,,,,0.154629672,-0.259259259,1,0,0,,,,,,,,,,,,,,,,,,,,
,,,,,,00090,2023-10-23_15h49.17.683,vbt_B1_day1,2022.2.4,Win32,144.2169022,,,,,,,,,,,,,,,,,,,,,,,,,,,,,,,,,,,,,,0.154629672,-0.259259259,1,0,0,,,,,,,,,,,,,,,
,,,,,,00090,2023-10-23_15h49.17.683,vbt_B1_day1,2022.2.4,Win32,144.2169022,,,,,,,,,,,,,,,,,,,,,,,,,,,,,,,,,,,,,,,,,,,0.135185171,-0.175925926,1,0,0,attent.,attent.,0,0,0,17,1,attentie,images/br_attentie.png,images/cb_attentie.png
,,,,,,00090,2023-10-23_15h49.17.683,vbt_B1_day1,2022.2.4,Win32,144.2169022,,,,,,,,,,,,,,,,,,,,,,,,,,,,,,,,,,,,,,,,,,,0.001851894,-0.205555598,1,0,0,ov,ov,0,1,1,59,1,opvatten,images/br_opvatten.png,images/cb_opvatten.png
,,,,,,00090,2023-10-23_15h49.17.683,vbt_B1_day1,2022.2.4,Win32,144.2169022,,,,,,,,,,,,,,,,,,,,,,,,,,,,,,,,,,,,,,,,,,,0.001851894,-0.205555598,1,0,0,tars,tars,0,2,2,20,1,tars,images/br_tars.png,images/cb_tars.png
,,,,,,00090,2023-10-23_15h49.17.683,vbt_B1_day1,2022.2.4,Win32,144.2169022,,,,,,,,,,,,,,,,,,,,,,,,,,,,,,,,,,,,,,,,,,,0.001851894,-0.205555598,1,0,0,waarvan,waarvan,0,3,3,14,1,waarvan,images/br_waarvan.png,images/cb_waarvan.png
,,,,,,00090,2023-10-23_15h49.17.683,vbt_B1_day1,2022.2.4,Win32,144.2169022,,,,,,,,,,,,,,,,,,,,,,,,,,,,,,,,,,,,,,,,,,,0.001851894,-0.205555598,1,0,0,mawen,mawen,0,4,4,5,1,maken,images/br_maken.png,images/cb_maken.png
,,,,,,00090,2023-10-23_15h49.17.683,vbt_B1_day1,2022.2.4,Win32,144.2169022,,,,,,,,,,,,,,,,,,,,,,,,,,,,,,,,,,,,,,,,,,,0.059259273,-0.298148191,1,0,0,vijftlg,vijftlg,0,5,5,54,1,vijftig,images/br_vijftig.png,images/cb_vijftig.png
,,,,,,00090,2023-10-23_15h49.17.683,vbt_B1_day1,2022.2.4,Win32,144.2169022,,,,,,,,,,,,,,,,,,,,,,,,,,,,,,,,,,,,,,,,,,,0.059259273,-0.298148191,1,0,0,dief,dief,0,6,6,40,1,dief,images/br_dief.png,images/cb_dief.png
,,,,,,00090,2023-10-23_15h49.17.683,vbt_B1_day1,2022.2.4,Win32,144.2169022,,,,,,,,,,,,,,,,,,,,,,,,,,,,,,,,,,,,,,,,,,,0.055555556,-0.203703704,1,0,0,uitdelen,uitdelen,0,7,7,18,1,uitdelen,images/br_uitdelen.png,images/cb_uitdelen.png
,,,,,,00090,2023-10-23_15h49.17.683,vbt_B1_day1,2022.2.4,Win32,144.2169022,,,,,,,,,,,,,,,,,,,,,,,,,,,,,,,,,,,,,,,,,,,0.055555556,-0.203703704,1,0,0,liegen,liegen,0,8,8,50,1,liegen,images/br_liegen.png,images/cb_liegen.png
,,,,,,00090,2023-10-23_15h49.17.683,vbt_B1_day1,2022.2.4,Win32,144.2169022,,,,,,,,,,,,,,,,,,,,,,,,,,,,,,,,,,,,,,,,,,,0.014814801,-0.239814829,1,0,0,schip,schip,0,9,9,4,1,schep,images/br_schep.png,images/cb_schep.png
,,,,,,00090,2023-10-23_15h49.17.683,vbt_B1_day1,2022.2.4,Win32,144.2169022,,,,,,,,,,,,,,,,,,,,,,,,,,,,,,,,,,,,,,,,,,,0.066666709,-0.189814815,1,0,0,dubbel,dubbel,0,10,10,9,1,dubbel,images/br_dubbel.png,images/cb_dubbel.png
,,,,,,00090,2023-10-23_15h49.17.683,vbt_B1_day1,2022.2.4,Win32,144.2169022,,,,,,,,,,,,,,,,,,,,,,,,,,,,,,,,,,,,,,,,,,,0.066666709,-0.189814815,1,0,0,knoe,knoe,0,11,11,22,1,knoe,images/br_knoe.png,images/cb_knoe.png
,,,,,,00090,2023-10-23_15h49.17.683,vbt_B1_day1,2022.2.4,Win32,144.2169022,,,,,,,,,,,,,,,,,,,,,,,,,,,,,,,,,,,,,,,,,,,0.059259273,-0.187037079,1,0,0,bebrip,bebrip,0,12,12,28,1,bebrip,images/br_bebrip.png,images/cb_bebrip.png
,,,,,,00090,2023-10-23_15h49.17.683,vbt_B1_day1,2022.2.4,Win32,144.2169022,,,,,,,,,,,,,,,,,,,,,,,,,,,,,,,,,,,,,,,,,,,0.056481467,-0.199999986,1,0,0,bleek,bleek,0,13,13,6,1,bleek,images/br_bleek.png,images/cb_bleek.png
,,,,,,00090,2023-10-23_15h49.17.683,vbt_B1_day1,2022.2.4,Win32,144.2169022,,,,,,,,,,,,,,,,,,,,,,,,,,,,,,,,,,,,,,,,,,,0.080555598,-0.226851852,1,0,0,stamen,stamen,0,14,14,31,1,stamen,images/br_stamen.png,images/cb_stamen.png
,,,,,,00090,2023-10-23_15h49.17.683,vbt_B1_day1,2022.2.4,Win32,144.2169022,,,,,,,,,,,,,,,,,,,,,,,,,,,,,,,,,,,,,,,,,,,0.092592593,-0.226851852,1,0,0,swijfen,swijfen,0,15,15,13,1,twijfel,images/br_twijfel.png,images/cb_twijfel.png
,,,,,,00090,2023-10-23_15h49.17.683,vbt_B1_day1,2022.2.4,Win32,144.2169022,,,,,,,,,,,,,,,,,,,,,,,,,,,,,,,,,,,,,,,,,,,0.092592593,-0.213888875,1,0,0,brijk,brijk,0,16,16,25,1,brijk,images/br_brijk.png,images/cb_brijk.png
,,,,,,00090,2023-10-23_15h49.17.683,vbt_B1_day1,2022.2.4,Win32,144.2169022,,,,,,,,,,,,,,,,,,,,,,,,,,,,,,,,,,,,,,,,,,,0.092592593,-0.213888875,1,0,0,voorkeur,voorkeur,0,17,17,58,1,voorkeur,images/br_voorkeur.png,images/cb_voorkeur.png
,,,,,,00090,2023-10-23_15h49.17.683,vbt_B1_day1,2022.2.4,Win32,144.2169022,,,,,,,,,,,,,,,,,,,,,,,,,,,,,,,,,,,,,,,,,,,0.092592593,-0.212962963,1,0,0,reedje,reedje,0,18,18,30,1,reedje,images/br_reedje.png,images/cb_reedje.png
,,,,,,00090,2023-10-23_15h49.17.683,vbt_B1_day1,2022.2.4,Win32,144.2169022,,,,,,,,,,,,,,,,,,,,,,,,,,,,,,,,,,,,,,,,,,,0.093518504,-0.211111139,1,0,0,stuw,stuw,0,19,19,42,1,stuk,images/br_stuk.png,images/cb_stuk.png
,,,,,,00090,2023-10-23_15h49.17.683,vbt_B1_day1,2022.2.4,Win32,144.2169022,,,,,,,,,,,,,,,,,,,,,,,,,,,,,,,,,,,,,,,,,,,0.093518504,-0.211111139,1,0,0,febtei,febtei,0,20,20,48,1,fictie,images/br_fictie.png,images/cb_fictie.png
,,,,,,00090,2023-10-23_15h49.17.683,vbt_B1_day1,2022.2.4,Win32,144.2169022,,,,,,,,,,,,,,,,,,,,,,,,,,,,,,,,,,,,,,,,,,,0.093518504,-0.211111139,1,0,0,zuiplap,zuiplap,0,21,21,52,1,zuiplap,images/br_zuiplap.png,images/cb_zuiplap.png
,,,,,,00090,2023-10-23_15h49.17.683,vbt_B1_day1,2022.2.4,Win32,144.2169022,,,,,,,,,,,,,,,,,,,,,,,,,,,,,,,,,,,,,,,,,,,0.093518504,-0.211111139,1,0,0,lezen,lezen,0,22,22,46,1,lezen,images/br_lezen.png,images/cb_lezen.png
,,,,,,00090,2023-10-23_15h49.17.683,vbt_B1_day1,2022.2.4,Win32,144.2169022,,,,,,,,,,,,,,,,,,,,,,,,,,,,,,,,,,,,,,,,,,,0.093518504,-0.211111139,1,0,0,spanzing,spanzing,0,23,23,37,1,spanzing,images/br_spanzing.png,images/cb_spanzing.png
,,,,,,00090,2023-10-23_15h49.17.683,vbt_B1_day1,2022.2.4,Win32,144.2169022,,,,,,,,,,,,,,,,,,,,,,,,,,,,,,,,,,,,,,,,,,,-0.000925912,-0.200925968,1,0,0,vizier,vizier,0,24,24,49,1,vizier,images/br_vizier.png,images/cb_vizier.png
,,,,,,00090,2023-10-23_15h49.17.683,vbt_B1_day1,2022.2.4,Win32,144.2169022,,,,,,,,,,,,,,,,,,,,,,,,,,,,,,,,,,,,,,,,,,,0.07222225,-0.202777792,1,0,0,stuikem,stuikem,0,25,25,35,1,stuikem,images/br_stuikem.png,images/cb_stuikem.png
,,,,,,00090,2023-10-23_15h49.17.683,vbt_B1_day1,2022.2.4,Win32,144.2169022,,,,,,,,,,,,,,,,,,,,,,,,,,,,,,,,,,,,,,,,,,,0.07222225,-0.202777792,1,0,0,tekenen,tekenen,0,26,26,55,1,tekenen,images/br_tekenen.png,images/cb_tekenen.png
,,,,,,00090,2023-10-23_15h49.17.683,vbt_B1_day1,2022.2.4,Win32,144.2169022,,,,,,,,,,,,,,,,,,,,,,,,,,,,,,,,,,,,,,,,,,,0.07222225,-0.202777792,1,0,0,flullen,flullen,0,27,27,33,1,flullen,images/br_flullen.png,images/cb_flullen.png
,,,,,,00090,2023-10-23_15h49.17.683,vbt_B1_day1,2022.2.4,Win32,144.2169022,,,,,,,,,,,,,,,,,,,,,,,,,,,,,,,,,,,,,,,,,,,0.07222225,-0.202777792,1,0,0,muziek,muziek,0,28,28,10,1,muziek,images/br_muziek.png,images/cb_muziek.png
,,,,,,00090,2023-10-23_15h49.17.683,vbt_B1_day1,2022.2.4,Win32,144.2169022,,,,,,,,,,,,,,,,,,,,,,,,,,,,,,,,,,,,,,,,,,,0.07222225,-0.202777792,1,0,0,meenemen,meenemen,0,29,29,57,1,meenemen,images/br_meenemen.png,images/cb_meenemen.png
,,,,,,00090,2023-10-23_15h49.17.683,vbt_B1_day1,2022.2.4,Win32,144.2169022,,,,,,,,,,,,,,,,,,,,,,,,,,,,,,,,,,,,,,,,,,,0.220370399,-0.209259245,1,0,0,schielen,schielen,0,30,30,38,1,schielen,images/br_schielen.png,images/cb_schielen.png
,,,,,,00090,2023-10-23_15h49.17.683,vbt_B1_day1,2022.2.4,Win32,144.2169022,,,,,,,,,,,,,,,,,,,,,,,,,,,,,,,,,,,,,,,,,,,0.012962977,-0.210185228,1,0,0,hiervan,hiervan,0,31,31,15,1,hiervan,images/br_hiervan.png,images/cb_hiervan.png
,,,,,,00090,2023-10-23_15h49.17.683,vbt_B1_day1,2022.2.4,Win32,144.2169022,,,,,,,,,,,,,,,,,,,,,,,,,,,,,,,,,,,,,,,,,,,0.012962977,-0.210185228,1,0,0,mening,mening,0,32,32,11,1,mening,images/br_mening.png,images/cb_mening.png
,,,,,,00090,2023-10-23_15h49.17.683,vbt_B1_day1,2022.2.4,Win32,144.2169022,,,,,,,,,,,,,,,,,,,,,,,,,,,,,,,,,,,,,,,,,,,0.062962991,-0.209259245,1,0,0,liefde,liefde,0,33,33,51,1,liefde,images/br_liefde.png,images/cb_liefde.png
,,,,,,00090,2023-10-23_15h49.17.683,vbt_B1_day1,2022.2.4,Win32,144.2169022,,,,,,,,,,,,,,,,,,,,,,,,,,,,,,,,,,,,,,,,,,,0.062962991,-0.209259245,1,0,0,valop,valop,0,34,34,26,1,valop,images/br_valop.png,images/cb_valop.png
,,,,,,00090,2023-10-23_15h49.17.683,vbt_B1_day1,2022.2.4,Win32,144.2169022,,,,,,,,,,,,,,,,,,,,,,,,,,,,,,,,,,,,,,,,,,,0.062962991,-0.209259245,1,0,0,klauw,klauw,0,35,35,7,1,klauw,images/br_klauw.png,images/cb_klauw.png
,,,,,,00090,2023-10-23_15h49.17.683,vbt_B1_day1,2022.2.4,Win32,144.2169022,,,,,,,,,,,,,,,,,,,,,,,,,,,,,,,,,,,,,,,,,,,0.062962991,-0.209259245,1,0,0,voorreur,voorreur,0,36,36,39,1,voorreur,images/br_voorreur.png,images/cb_voorreur.png
,,,,,,00090,2023-10-23_15h49.17.683,vbt_B1_day1,2022.2.4,Win32,144.2169022,,,,,,,,,,,,,,,,,,,,,,,,,,,,,,,,,,,,,,,,,,,0.062962991,-0.209259245,1,0,0,opplaan,opplaan,0,37,37,32,1,opplaan,images/br_opplaan.png,images/cb_opplaan.png
,,,,,,00090,2023-10-23_15h49.17.683,vbt_B1_day1,2022.2.4,Win32,144.2169022,,,,,,,,,,,,,,,,,,,,,,,,,,,,,,,,,,,,,,,,,,,0.062962991,-0.209259245,1,0,0,wijze,wijze,0,38,38,44,1,wijze,images/br_wijze.png,images/cb_wijze.png
,,,,,,00090,2023-10-23_15h49.17.683,vbt_B1_day1,2022.2.4,Win32,144.2169022,,,,,,,,,,,,,,,,,,,,,,,,,,,,,,,,,,,,,,,,,,,0.062962991,-0.209259245,1,0,0,booi,booi,0,39,39,23,1,booi,images/br_booi.png,images/cb_booi.png
,,,,,,00090,2023-10-23_15h49.17.683,vbt_B1_day1,2022.2.4,Win32,144.2169022,,,,,,,,,,,,,,,,,,,,,,,,,,,,,,,,,,,,,,,,,,,0.062962991,-0.209259245,1,0,0,hemel,hemel,0,40,40,45,1,hemel,images/br_hemel.png,images/cb_hemel.png
,,,,,,00090,2023-10-23_15h49.17.683,vbt_B1_day1,2022.2.4,Win32,144.2169022,,,,,,,,,,,,,,,,,,,,,,,,,,,,,,,,,,,,,,,,,,,0.062962991,-0.209259245,1,0,0,rezer,rezer,0,41,41,24,1,rezer,images/br_rezer.png,images/cb_rezer.png
,,,,,,00090,2023-10-23_15h49.17.683,vbt_B1_day1,2022.2.4,Win32,144.2169022,,,,,,,,,,,,,,,,,,,,,,,,,,,,,,,,,,,,,,,,,,,0.062962991,-0.209259245,1,0,0,lochten,lochten,0,42,42,34,1,lochten,images/br_lochten.png,images/cb_lochten.png
,,,,,,00090,2023-10-23_15h49.17.683,vbt_B1_day1,2022.2.4,Win32,144.2169022,,,,,,,,,,,,,,,,,,,,,,,,,,,,,,,,,,,,,,,,,,,0.062962991,-0.209259245,1,0,0,daarheen,daarheen,0,43,43,16,1,daarheen,images/br_daarheen.png,images/cb_daarheen.png
,,,,,,00090,2023-10-23_15h49.17.683,vbt_B1_day1,2022.2.4,Win32,144.2169022,,,,,,,,,,,,,,,,,,,,,,,,,,,,,,,,,,,,,,,,,,,0.062962991,-0.209259245,1,0,0,klimmen,klimmen,0,44,44,12,1,klimmen,images/br_klimmen.png,images/cb_klimmen.png
,,,,,,00090,2023-10-23_15h49.17.683,vbt_B1_day1,2022.2.4,Win32,144.2169022,,,,,,,,,,,,,,,,,,,,,,,,,,,,,,,,,,,,,,,,,,,0.062962991,-0.209259245,1,0,0,schuilen,schuilen,0,45,45,19,1,schuilen,images/br_schuilen.png,images/cb_schuilen.png
,,,,,,00090,2023-10-23_15h49.17.683,vbt_B1_day1,2022.2.4,Win32,144.2169022,,,,,,,,,,,,,,,,,,,,,,,,,,,,,,,,,,,,,,,,,,,0.062962991,-0.209259245,1,0,0,prort,prort,0,46,46,27,1,prort,images/br_prort.png,images/cb_prort.png
,,,,,,00090,2023-10-23_15h49.17.683,vbt_B1_day1,2022.2.4,Win32,144.2169022,,,,,,,,,,,,,,,,,,,,,,,,,,,,,,,,,,,,,,,,,,,0.062962991,-0.209259245,1,0,0,slak,slak,0,47,47,0,1,slak,images/br_slak.png,images/cb_slak.png
,,,,,,00090,2023-10-23_15h49.17.683,vbt_B1_day1,2022.2.4,Win32,144.2169022,,,,,,,,,,,,,,,,,,,,,,,,,,,,,,,,,,,,,,,,,,,0.062962991,-0.209259245,1,0,0,loods,loods,0,48,48,47,1,loods,images/br_loods.png,images/cb_loods.png
,,,,,,00090,2023-10-23_15h49.17.683,vbt_B1_day1,2022.2.4,Win32,144.2169022,,,,,,,,,,,,,,,,,,,,,,,,,,,,,,,,,,,,,,,,,,,0.062962991,-0.209259245,1,0,0,opslaan,opslaan,0,49,49,53,1,opslaan,images/br_opslaan.png,images/cb_opslaan.png
,,,,,,00090,2023-10-23_15h49.17.683,vbt_B1_day1,2022.2.4,Win32,144.2169022,,,,,,,,,,,,,,,,,,,,,,,,,,,,,,,,,,,,,,,,,,,0.062962991,-0.209259245,1,0,0,toezicht,toezicht,0,50,50,56,1,toezicht,images/br_toezicht.png,images/cb_toezicht.png
,,,,,,00090,2023-10-23_15h49.17.683,vbt_B1_day1,2022.2.4,Win32,144.2169022,,,,,,,,,,,,,,,,,,,,,,,,,,,,,,,,,,,,,,,,,,,0.062962991,-0.209259245,1,0,0,zaal,zaal,0,51,51,1,1,zaal,images/br_zaal.png,images/cb_zaal.png
,,,,,,00090,2023-10-23_15h49.17.683,vbt_B1_day1,2022.2.4,Win32,144.2169022,,,,,,,,,,,,,,,,,,,,,,,,,,,,,,,,,,,,,,,,,,,0.062962991,-0.209259245,1,0,0,vervaden,vervaden,0,52,52,36,1,vervaden,images/br_vervaden.png,images/cb_vervaden.png
,,,,,,00090,2023-10-23_15h49.17.683,vbt_B1_day1,2022.2.4,Win32,144.2169022,,,,,,,,,,,,,,,,,,,,,,,,,,,,,,,,,,,,,,,,,,,0.062962991,-0.209259245,1,0,0,genond,genond,0,53,53,29,1,genond,images/br_genond.png,images/cb_genond.png
,,,,,,00090,2023-10-23_15h49.17.683,vbt_B1_day1,2022.2.4,Win32,144.2169022,,,,,,,,,,,,,,,,,,,,,,,,,,,,,,,,,,,,,,,,,,,0.062962991,-0.209259245,1,0,0,dred,dred,0,54,54,21,1,dred,images/br_dred.png,images/cb_dred.png
,,,,,,00090,2023-10-23_15h49.17.683,vbt_B1_day1,2022.2.4,Win32,144.2169022,,,,,,,,,,,,,,,,,,,,,,,,,,,,,,,,,,,,,,,,,,,0.062962991,-0.209259245,1,0,0,hoog,hoog,0,55,55,41,1,hoog,images/br_hoog.png,images/cb_hoog.png
,,,,,,00090,2023-10-23_15h49.17.683,vbt_B1_day1,2022.2.4,Win32,144.2169022,,,,,,,,,,,,,,,,,,,,,,,,,,,,,,,,,,,,,,,,,,,0.062962991,-0.209259245,1,0,0,kanjer,kanjer,0,56,56,8,1,kanjer,images/br_kanjer.png,images/cb_kanjer.png
,,,,,,00090,2023-10-23_15h49.17.683,vbt_B1_day1,2022.2.4,Win32,144.2169022,,,,,,,,,,,,,,,,,,,,,,,,,,,,,,,,,,,,,,,,,,,0.062962991,-0.209259245,1,0,0,lava,lava,0,57,57,43,1,lava,images/br_lava.png,images/cb_lava.png
,,,,,,00090,2023-10-23_15h49.17.683,vbt_B1_day1,2022.2.4,Win32,144.2169022,,,,,,,,,,,,,,,,,,,,,,,,,,,,,,,,,,,,,,,,,,,0.002777806,-0.20185188,1,0,0,jaar,jaar,0,58,58,2,1,jaar,images/br_jaar.png,images/cb_jaar.png
,,,,,,00090,2023-10-23_15h49.17.683,vbt_B1_day1,2022.2.4,Win32,144.2169022,,,,,,,,,,,,,,,,,,,,,,,,,,,,,,,,,,,,,,,,,,,0.002777806,-0.20185188,1,0,0,mand,mand,0,59,59,3,1,mand,images/br_mand.png,images/cb_mand.png
,,,,,,00090,2023-10-23_15h49.17.683,vbt_B1_day1,2022.2.4,Win32,144.2169022,,,,,,,,,,,,,,,,,,,,,,,,,,,,,,,,,,,,,,,,,,,,,,,,,,,,,,,,,
