welcome_mouse.x,welcome_mouse.y,welcome_mouse.leftButton,welcome_mouse.midButton,welcome_mouse.rightButton,welcome_mouse.time,"ID",date,expName,psychopyVersion,OS,frameRate,mouse_2.x,mouse_2.y,mouse_2.leftButton,mouse_2.midButton,mouse_2.rightButton,mouse_2.time,mouse_3.x,mouse_3.y,mouse_3.leftButton,mouse_3.midButton,mouse_3.rightButton,mouse_3.time,train_mouse.x,train_mouse.y,train_mouse.leftButton,train_mouse.midButton,train_mouse.rightButton,train_mouse.time,braille_mouse.x,braille_mouse.y,braille_mouse.leftButton,braille_mouse.midButton,braille_mouse.rightButton,braille_mouse.time,trials.thisRepN,trials.thisTrialN,trials.thisN,trials.thisIndex,trials.ran,nlLet,brLet,cbLet,mouse.x,mouse.y,mouse.leftButton,mouse.midButton,mouse.rightButton,testInstr_mouse.x,testInstr_mouse.y,testInstr_mouse.leftButton,testInstr_mouse.midButton,testInstr_mouse.rightButton,test_mouse.x,test_mouse.y,test_mouse.leftButton,test_mouse.midButton,test_mouse.rightButton,test_response.text,testResp,test_loop.thisRepN,test_loop.thisTrialN,test_loop.thisN,test_loop.thisIndex,test_loop.ran,nlWrd,brWrd,cbWrd
-0.199074046,-0.247222222,1,0,0,28.7725,00077,2023-10-26_12h15.20.225,vbt_B1_day1,2022.2.4,Win32,120.0192031,,,,,,,,,,,,,,,,,,,,,,,,,,,,,,,,,,,,,,,,,,,,,,,,,,,,,,,,,
,,,,,,00077,2023-10-26_12h15.20.225,vbt_B1_day1,2022.2.4,Win32,120.0192031,-0.187962935,-0.247222222,1,0,0,14.7556,,,,,,,,,,,,,,,,,,,,,,,,,,,,,,,,,,,,,,,,,,,,,,,,,,,
,,,,,,00077,2023-10-26_12h15.20.225,vbt_B1_day1,2022.2.4,Win32,120.0192031,,,,,,,0.664814928,0.004629601,1,0,0,3.5466,,,,,,,,,,,,,,,,,,,,,,,,,,,,,,,,,,,,,,,,,,,,,
,,,,,,00077,2023-10-26_12h15.20.225,vbt_B1_day1,2022.2.4,Win32,120.0192031,,,,,,,,,,,,,0.664814928,0.004629601,1,0,0,27.6789,,,,,,,,,,,,,,,,,,,,,,,,,,,,,,,,,,,,,,,
,,,,,,00077,2023-10-26_12h15.20.225,vbt_B1_day1,2022.2.4,Win32,120.0192031,,,,,,,,,,,,,,,,,,,-0.022222222,-0.12129631,1,0,0,8.4508,0,0,0,12,1,m,images/br_m.png,images/cb_m.png,,,,,,,,,,,,,,,,,,,,,,,,,
,,,,,,00077,2023-10-26_12h15.20.225,vbt_B1_day1,2022.2.4,Win32,120.0192031,,,,,,,,,,,,,,,,,,,-0.010185157,-0.120370399,1,0,0,5.8139,0,1,1,10,1,k,images/br_k.png,images/cb_k.png,,,,,,,,,,,,,,,,,,,,,,,,,
,,,,,,00077,2023-10-26_12h15.20.225,vbt_B1_day1,2022.2.4,Win32,120.0192031,,,,,,,,,,,,,,,,,,,0.664814928,0.004629601,1,0,0,10.0361,0,2,2,24,1,y,images/br_y.png,images/cb_y.png,,,,,,,,,,,,,,,,,,,,,,,,,
,,,,,,00077,2023-10-26_12h15.20.225,vbt_B1_day1,2022.2.4,Win32,120.0192031,,,,,,,,,,,,,,,,,,,0.664814928,0.004629601,1,0,0,8.8366,0,3,3,9,1,j,images/br_j.png,images/cb_j.png,,,,,,,,,,,,,,,,,,,,,,,,,
,,,,,,00077,2023-10-26_12h15.20.225,vbt_B1_day1,2022.2.4,Win32,120.0192031,,,,,,,,,,,,,,,,,,,0.664814928,0.004629601,1,0,0,8.5284,0,4,4,4,1,e,images/br_e.png,images/cb_e.png,,,,,,,,,,,,,,,,,,,,,,,,,
,,,,,,00077,2023-10-26_12h15.20.225,vbt_B1_day1,2022.2.4,Win32,120.0192031,,,,,,,,,,,,,,,,,,,0.664814928,0.004629601,1,0,0,12.3599,0,5,5,3,1,d,images/br_d.png,images/cb_d.png,,,,,,,,,,,,,,,,,,,,,,,,,
,,,,,,00077,2023-10-26_12h15.20.225,vbt_B1_day1,2022.2.4,Win32,120.0192031,,,,,,,,,,,,,,,,,,,0.664814928,0.004629601,1,0,0,10.1193,0,6,6,25,1,z,images/br_z.png,images/cb_z.png,,,,,,,,,,,,,,,,,,,,,,,,,
,,,,,,00077,2023-10-26_12h15.20.225,vbt_B1_day1,2022.2.4,Win32,120.0192031,,,,,,,,,,,,,,,,,,,0.664814928,0.004629601,1,0,0,11.9182,0,7,7,8,1,i,images/br_i.png,images/cb_i.png,,,,,,,,,,,,,,,,,,,,,,,,,
,,,,,,00077,2023-10-26_12h15.20.225,vbt_B1_day1,2022.2.4,Win32,120.0192031,,,,,,,,,,,,,,,,,,,0.664814928,0.004629601,1,0,0,10.1812,0,8,8,13,1,n,images/br_n.png,images/cb_n.png,,,,,,,,,,,,,,,,,,,,,,,,,
,,,,,,00077,2023-10-26_12h15.20.225,vbt_B1_day1,2022.2.4,Win32,120.0192031,,,,,,,,,,,,,,,,,,,0.664814928,0.004629601,1,0,0,7.3291,0,9,9,22,1,w,images/br_w.png,images/cb_w.png,,,,,,,,,,,,,,,,,,,,,,,,,
,,,,,,00077,2023-10-26_12h15.20.225,vbt_B1_day1,2022.2.4,Win32,120.0192031,,,,,,,,,,,,,,,,,,,0.664814928,0.004629601,1,0,0,15.5577,0,10,10,14,1,o,images/br_o.png,images/cb_o.png,,,,,,,,,,,,,,,,,,,,,,,,,
,,,,,,00077,2023-10-26_12h15.20.225,vbt_B1_day1,2022.2.4,Win32,120.0192031,,,,,,,,,,,,,,,,,,,0.664814928,0.004629601,1,0,0,7.8455,0,11,11,20,1,u,images/br_u.png,images/cb_u.png,,,,,,,,,,,,,,,,,,,,,,,,,
,,,,,,00077,2023-10-26_12h15.20.225,vbt_B1_day1,2022.2.4,Win32,120.0192031,,,,,,,,,,,,,,,,,,,0.664814928,0.004629601,1,0,0,16.0242,0,12,12,1,1,b,images/br_b.png,images/cb_b.png,,,,,,,,,,,,,,,,,,,,,,,,,
,,,,,,00077,2023-10-26_12h15.20.225,vbt_B1_day1,2022.2.4,Win32,120.0192031,,,,,,,,,,,,,,,,,,,0.664814928,0.004629601,1,0,0,29.4581,0,13,13,5,1,f,images/br_f.png,images/cb_f.png,,,,,,,,,,,,,,,,,,,,,,,,,
,,,,,,00077,2023-10-26_12h15.20.225,vbt_B1_day1,2022.2.4,Win32,120.0192031,,,,,,,,,,,,,,,,,,,0.664814928,0.004629601,1,0,0,10.7606,0,14,14,17,1,r,images/br_r.png,images/cb_r.png,,,,,,,,,,,,,,,,,,,,,,,,,
,,,,,,00077,2023-10-26_12h15.20.225,vbt_B1_day1,2022.2.4,Win32,120.0192031,,,,,,,,,,,,,,,,,,,0.664814928,0.004629601,1,0,0,8.2205,0,15,15,23,1,x,images/br_x.png,images/cb_x.png,,,,,,,,,,,,,,,,,,,,,,,,,
,,,,,,00077,2023-10-26_12h15.20.225,vbt_B1_day1,2022.2.4,Win32,120.0192031,,,,,,,,,,,,,,,,,,,0.664814928,0.004629601,1,0,0,6.1927,0,16,16,0,1,a,images/br_a.png,images/cb_a.png,,,,,,,,,,,,,,,,,,,,,,,,,
,,,,,,00077,2023-10-26_12h15.20.225,vbt_B1_day1,2022.2.4,Win32,120.0192031,,,,,,,,,,,,,,,,,,,0.664814928,0.004629601,1,0,0,6.2297,0,17,17,7,1,h,images/br_h.png,images/cb_h.png,,,,,,,,,,,,,,,,,,,,,,,,,
,,,,,,00077,2023-10-26_12h15.20.225,vbt_B1_day1,2022.2.4,Win32,120.0192031,,,,,,,,,,,,,,,,,,,0.664814928,0.004629601,1,0,0,8.5702,0,18,18,18,1,s,images/br_s.png,images/cb_s.png,,,,,,,,,,,,,,,,,,,,,,,,,
,,,,,,00077,2023-10-26_12h15.20.225,vbt_B1_day1,2022.2.4,Win32,120.0192031,,,,,,,,,,,,,,,,,,,0.664814928,0.004629601,1,0,0,4.206,0,19,19,11,1,l,images/br_l.png,images/cb_l.png,,,,,,,,,,,,,,,,,,,,,,,,,
,,,,,,00077,2023-10-26_12h15.20.225,vbt_B1_day1,2022.2.4,Win32,120.0192031,,,,,,,,,,,,,,,,,,,0.664814928,0.004629601,1,0,0,4.0223,0,20,20,2,1,c,images/br_c.png,images/cb_c.png,,,,,,,,,,,,,,,,,,,,,,,,,
,,,,,,00077,2023-10-26_12h15.20.225,vbt_B1_day1,2022.2.4,Win32,120.0192031,,,,,,,,,,,,,,,,,,,0.664814928,0.004629601,1,0,0,3.648,0,21,21,6,1,g,images/br_g.png,images/cb_g.png,,,,,,,,,,,,,,,,,,,,,,,,,
,,,,,,00077,2023-10-26_12h15.20.225,vbt_B1_day1,2022.2.4,Win32,120.0192031,,,,,,,,,,,,,,,,,,,0.664814928,0.004629601,1,0,0,16.1659,0,22,22,21,1,v,images/br_v.png,images/cb_v.png,,,,,,,,,,,,,,,,,,,,,,,,,
,,,,,,00077,2023-10-26_12h15.20.225,vbt_B1_day1,2022.2.4,Win32,120.0192031,,,,,,,,,,,,,,,,,,,0.664814928,0.004629601,1,0,0,20.2384,0,23,23,19,1,t,images/br_t.png,images/cb_t.png,,,,,,,,,,,,,,,,,,,,,,,,,
,,,,,,00077,2023-10-26_12h15.20.225,vbt_B1_day1,2022.2.4,Win32,120.0192031,,,,,,,,,,,,,,,,,,,0.664814928,0.004629601,1,0,0,3.0397,0,24,24,15,1,p,images/br_p.png,images/cb_p.png,,,,,,,,,,,,,,,,,,,,,,,,,
,,,,,,00077,2023-10-26_12h15.20.225,vbt_B1_day1,2022.2.4,Win32,120.0192031,,,,,,,,,,,,,,,,,,,0.664814928,0.004629601,1,0,0,5.4969,0,25,25,16,1,q,images/br_q.png,images/cb_q.png,,,,,,,,,,,,,,,,,,,,,,,,,
,,,,,,00077,2023-10-26_12h15.20.225,vbt_B1_day1,2022.2.4,Win32,120.0192031,,,,,,,,,,,,,,,,,,,0.664814928,0.004629601,1,0,0,6.7208,1,0,26,1,1,b,images/br_b.png,images/cb_b.png,,,,,,,,,,,,,,,,,,,,,,,,,
,,,,,,00077,2023-10-26_12h15.20.225,vbt_B1_day1,2022.2.4,Win32,120.0192031,,,,,,,,,,,,,,,,,,,0.664814928,0.004629601,1,0,0,11.1854,1,1,27,3,1,d,images/br_d.png,images/cb_d.png,,,,,,,,,,,,,,,,,,,,,,,,,
,,,,,,00077,2023-10-26_12h15.20.225,vbt_B1_day1,2022.2.4,Win32,120.0192031,,,,,,,,,,,,,,,,,,,0.664814928,0.004629601,1,0,0,0.833,1,2,28,0,1,a,images/br_a.png,images/cb_a.png,,,,,,,,,,,,,,,,,,,,,,,,,
,,,,,,00077,2023-10-26_12h15.20.225,vbt_B1_day1,2022.2.4,Win32,120.0192031,,,,,,,,,,,,,,,,,,,0.664814928,0.004629601,1,0,0,1.7572,1,3,29,17,1,r,images/br_r.png,images/cb_r.png,,,,,,,,,,,,,,,,,,,,,,,,,
,,,,,,00077,2023-10-26_12h15.20.225,vbt_B1_day1,2022.2.4,Win32,120.0192031,,,,,,,,,,,,,,,,,,,0.664814928,0.004629601,1,0,0,5.6269,1,4,30,2,1,c,images/br_c.png,images/cb_c.png,,,,,,,,,,,,,,,,,,,,,,,,,
,,,,,,00077,2023-10-26_12h15.20.225,vbt_B1_day1,2022.2.4,Win32,120.0192031,,,,,,,,,,,,,,,,,,,0.664814928,0.004629601,1,0,0,2.7485,1,5,31,5,1,f,images/br_f.png,images/cb_f.png,,,,,,,,,,,,,,,,,,,,,,,,,
,,,,,,00077,2023-10-26_12h15.20.225,vbt_B1_day1,2022.2.4,Win32,120.0192031,,,,,,,,,,,,,,,,,,,0.664814928,0.004629601,1,0,0,2.6984,1,6,32,4,1,e,images/br_e.png,images/cb_e.png,,,,,,,,,,,,,,,,,,,,,,,,,
,,,,,,00077,2023-10-26_12h15.20.225,vbt_B1_day1,2022.2.4,Win32,120.0192031,,,,,,,,,,,,,,,,,,,0.664814928,0.004629601,1,0,0,0.1169,1,7,33,23,1,x,images/br_x.png,images/cb_x.png,,,,,,,,,,,,,,,,,,,,,,,,,
,,,,,,00077,2023-10-26_12h15.20.225,vbt_B1_day1,2022.2.4,Win32,120.0192031,,,,,,,,,,,,,,,,,,,0.664814928,0.004629601,1,0,0,4.897,1,8,34,10,1,k,images/br_k.png,images/cb_k.png,,,,,,,,,,,,,,,,,,,,,,,,,
,,,,,,00077,2023-10-26_12h15.20.225,vbt_B1_day1,2022.2.4,Win32,120.0192031,,,,,,,,,,,,,,,,,,,0.671296353,-0.005555556,1,0,0,3.5615,1,9,35,14,1,o,images/br_o.png,images/cb_o.png,,,,,,,,,,,,,,,,,,,,,,,,,
,,,,,,00077,2023-10-26_12h15.20.225,vbt_B1_day1,2022.2.4,Win32,120.0192031,,,,,,,,,,,,,,,,,,,0.665740797,-0.004629644,1,0,0,0.075,1,10,36,11,1,l,images/br_l.png,images/cb_l.png,,,,,,,,,,,,,,,,,,,,,,,,,
,,,,,,00077,2023-10-26_12h15.20.225,vbt_B1_day1,2022.2.4,Win32,120.0192031,,,,,,,,,,,,,,,,,,,0.665740797,-0.004629644,1,0,0,10.8184,1,11,37,22,1,w,images/br_w.png,images/cb_w.png,,,,,,,,,,,,,,,,,,,,,,,,,
,,,,,,00077,2023-10-26_12h15.20.225,vbt_B1_day1,2022.2.4,Win32,120.0192031,,,,,,,,,,,,,,,,,,,0.664814928,-0.002777778,1,0,0,6.4704,1,12,38,12,1,m,images/br_m.png,images/cb_m.png,,,,,,,,,,,,,,,,,,,,,,,,,
,,,,,,00077,2023-10-26_12h15.20.225,vbt_B1_day1,2022.2.4,Win32,120.0192031,,,,,,,,,,,,,,,,,,,0.663888889,0.002777778,1,0,0,4.2143,1,13,39,21,1,v,images/br_v.png,images/cb_v.png,,,,,,,,,,,,,,,,,,,,,,,,,
,,,,,,00077,2023-10-26_12h15.20.225,vbt_B1_day1,2022.2.4,Win32,120.0192031,,,,,,,,,,,,,,,,,,,0.663888889,0.00370369,1,0,0,1.524,1,14,40,7,1,h,images/br_h.png,images/cb_h.png,,,,,,,,,,,,,,,,,,,,,,,,,
,,,,,,00077,2023-10-26_12h15.20.225,vbt_B1_day1,2022.2.4,Win32,120.0192031,,,,,,,,,,,,,,,,,,,0.663888889,0.00370369,1,0,0,0.1334,1,15,41,18,1,s,images/br_s.png,images/cb_s.png,,,,,,,,,,,,,,,,,,,,,,,,,
,,,,,,00077,2023-10-26_12h15.20.225,vbt_B1_day1,2022.2.4,Win32,120.0192031,,,,,,,,,,,,,,,,,,,0.663888889,0.00370369,1,0,0,11.0605,1,16,42,16,1,q,images/br_q.png,images/cb_q.png,,,,,,,,,,,,,,,,,,,,,,,,,
,,,,,,00077,2023-10-26_12h15.20.225,vbt_B1_day1,2022.2.4,Win32,120.0192031,,,,,,,,,,,,,,,,,,,0.663888889,0.00370369,1,0,0,3.5811,1,17,43,25,1,z,images/br_z.png,images/cb_z.png,,,,,,,,,,,,,,,,,,,,,,,,,
,,,,,,00077,2023-10-26_12h15.20.225,vbt_B1_day1,2022.2.4,Win32,120.0192031,,,,,,,,,,,,,,,,,,,0.663888889,0.00370369,1,0,0,6.7129,1,18,44,19,1,t,images/br_t.png,images/cb_t.png,,,,,,,,,,,,,,,,,,,,,,,,,
,,,,,,00077,2023-10-26_12h15.20.225,vbt_B1_day1,2022.2.4,Win32,120.0192031,,,,,,,,,,,,,,,,,,,0.663888889,0.00370369,1,0,0,4.7103,1,19,45,6,1,g,images/br_g.png,images/cb_g.png,,,,,,,,,,,,,,,,,,,,,,,,,
,,,,,,00077,2023-10-26_12h15.20.225,vbt_B1_day1,2022.2.4,Win32,120.0192031,,,,,,,,,,,,,,,,,,,0.663888889,0.00370369,1,0,0,11.2022,1,20,46,8,1,i,images/br_i.png,images/cb_i.png,,,,,,,,,,,,,,,,,,,,,,,,,
,,,,,,00077,2023-10-26_12h15.20.225,vbt_B1_day1,2022.2.4,Win32,120.0192031,,,,,,,,,,,,,,,,,,,0.663888889,0.00370369,1,0,0,6.8296,1,21,47,13,1,n,images/br_n.png,images/cb_n.png,,,,,,,,,,,,,,,,,,,,,,,,,
,,,,,,00077,2023-10-26_12h15.20.225,vbt_B1_day1,2022.2.4,Win32,120.0192031,,,,,,,,,,,,,,,,,,,0.663888889,0.00370369,1,0,0,9.4948,1,22,48,24,1,y,images/br_y.png,images/cb_y.png,,,,,,,,,,,,,,,,,,,,,,,,,
,,,,,,00077,2023-10-26_12h15.20.225,vbt_B1_day1,2022.2.4,Win32,120.0192031,,,,,,,,,,,,,,,,,,,0.663888889,0.00370369,1,0,0,13.5508,1,23,49,9,1,j,images/br_j.png,images/cb_j.png,,,,,,,,,,,,,,,,,,,,,,,,,
,,,,,,00077,2023-10-26_12h15.20.225,vbt_B1_day1,2022.2.4,Win32,120.0192031,,,,,,,,,,,,,,,,,,,0.663888889,0.00370369,1,0,0,22.3289,1,24,50,15,1,p,images/br_p.png,images/cb_p.png,,,,,,,,,,,,,,,,,,,,,,,,,
,,,,,,00077,2023-10-26_12h15.20.225,vbt_B1_day1,2022.2.4,Win32,120.0192031,,,,,,,,,,,,,,,,,,,0.663888889,0.00370369,1,0,0,9.0698,1,25,51,20,1,u,images/br_u.png,images/cb_u.png,,,,,,,,,,,,,,,,,,,,,,,,,
,,,,,,00077,2023-10-26_12h15.20.225,vbt_B1_day1,2022.2.4,Win32,120.0192031,,,,,,,,,,,,,,,,,,,0.663888889,0.00370369,1,0,0,12.9426,2,0,52,9,1,j,images/br_j.png,images/cb_j.png,,,,,,,,,,,,,,,,,,,,,,,,,
,,,,,,00077,2023-10-26_12h15.20.225,vbt_B1_day1,2022.2.4,Win32,120.0192031,,,,,,,,,,,,,,,,,,,0.663888889,0.00370369,1,0,0,7.8123,2,1,53,14,1,o,images/br_o.png,images/cb_o.png,,,,,,,,,,,,,,,,,,,,,,,,,
,,,,,,00077,2023-10-26_12h15.20.225,vbt_B1_day1,2022.2.4,Win32,120.0192031,,,,,,,,,,,,,,,,,,,0.663888889,0.00370369,1,0,0,9.8273,2,2,54,18,1,s,images/br_s.png,images/cb_s.png,,,,,,,,,,,,,,,,,,,,,,,,,
,,,,,,00077,2023-10-26_12h15.20.225,vbt_B1_day1,2022.2.4,Win32,120.0192031,,,,,,,,,,,,,,,,,,,0.66203715,0.00370369,1,0,0,6.1384,2,3,55,3,1,d,images/br_d.png,images/cb_d.png,,,,,,,,,,,,,,,,,,,,,,,,,
,,,,,,00077,2023-10-26_12h15.20.225,vbt_B1_day1,2022.2.4,Win32,120.0192031,,,,,,,,,,,,,,,,,,,0.642592706,-0.000925954,1,0,0,6.6545,2,4,56,16,1,q,images/br_q.png,images/cb_q.png,,,,,,,,,,,,,,,,,,,,,,,,,
,,,,,,00077,2023-10-26_12h15.20.225,vbt_B1_day1,2022.2.4,Win32,120.0192031,,,,,,,,,,,,,,,,,,,0.642592706,-0.000925954,1,0,0,5.6138,2,5,57,22,1,w,images/br_w.png,images/cb_w.png,,,,,,,,,,,,,,,,,,,,,,,,,
,,,,,,00077,2023-10-26_12h15.20.225,vbt_B1_day1,2022.2.4,Win32,120.0192031,,,,,,,,,,,,,,,,,,,0.642592706,-0.000925954,1,0,0,2.4412,2,6,58,4,1,e,images/br_e.png,images/cb_e.png,,,,,,,,,,,,,,,,,,,,,,,,,
,,,,,,00077,2023-10-26_12h15.20.225,vbt_B1_day1,2022.2.4,Win32,120.0192031,,,,,,,,,,,,,,,,,,,0.642592706,-0.000925954,1,0,0,3.4316,2,7,59,25,1,z,images/br_z.png,images/cb_z.png,,,,,,,,,,,,,,,,,,,,,,,,,
,,,,,,00077,2023-10-26_12h15.20.225,vbt_B1_day1,2022.2.4,Win32,120.0192031,,,,,,,,,,,,,,,,,,,0.642592706,-0.000925954,1,0,0,6.3834,2,8,60,10,1,k,images/br_k.png,images/cb_k.png,,,,,,,,,,,,,,,,,,,,,,,,,
,,,,,,00077,2023-10-26_12h15.20.225,vbt_B1_day1,2022.2.4,Win32,120.0192031,,,,,,,,,,,,,,,,,,,0.642592706,-0.000925954,1,0,0,8.4623,2,9,61,5,1,f,images/br_f.png,images/cb_f.png,,,,,,,,,,,,,,,,,,,,,,,,,
,,,,,,00077,2023-10-26_12h15.20.225,vbt_B1_day1,2022.2.4,Win32,120.0192031,,,,,,,,,,,,,,,,,,,0.642592706,-0.000925954,1,0,0,23.2955,2,10,62,7,1,h,images/br_h.png,images/cb_h.png,,,,,,,,,,,,,,,,,,,,,,,,,
,,,,,,00077,2023-10-26_12h15.20.225,vbt_B1_day1,2022.2.4,Win32,120.0192031,,,,,,,,,,,,,,,,,,,0.642592706,-0.000925954,1,0,0,2.2452,2,11,63,17,1,r,images/br_r.png,images/cb_r.png,,,,,,,,,,,,,,,,,,,,,,,,,
,,,,,,00077,2023-10-26_12h15.20.225,vbt_B1_day1,2022.2.4,Win32,120.0192031,,,,,,,,,,,,,,,,,,,0.642592706,-0.000925954,1,0,0,6.7954,2,12,64,13,1,n,images/br_n.png,images/cb_n.png,,,,,,,,,,,,,,,,,,,,,,,,,
,,,,,,00077,2023-10-26_12h15.20.225,vbt_B1_day1,2022.2.4,Win32,120.0192031,,,,,,,,,,,,,,,,,,,0.642592706,-0.000925954,1,0,0,2.2649,2,13,65,24,1,y,images/br_y.png,images/cb_y.png,,,,,,,,,,,,,,,,,,,,,,,,,
,,,,,,00077,2023-10-26_12h15.20.225,vbt_B1_day1,2022.2.4,Win32,120.0192031,,,,,,,,,,,,,,,,,,,0.642592706,-0.000925954,1,0,0,3.1559,2,14,66,12,1,m,images/br_m.png,images/cb_m.png,,,,,,,,,,,,,,,,,,,,,,,,,
,,,,,,00077,2023-10-26_12h15.20.225,vbt_B1_day1,2022.2.4,Win32,120.0192031,,,,,,,,,,,,,,,,,,,0.642592706,-0.000925954,1,0,0,5.397,2,15,67,19,1,t,images/br_t.png,images/cb_t.png,,,,,,,,,,,,,,,,,,,,,,,,,
,,,,,,00077,2023-10-26_12h15.20.225,vbt_B1_day1,2022.2.4,Win32,120.0192031,,,,,,,,,,,,,,,,,,,0.642592706,-0.000925954,1,0,0,4.331,2,16,68,6,1,g,images/br_g.png,images/cb_g.png,,,,,,,,,,,,,,,,,,,,,,,,,
,,,,,,00077,2023-10-26_12h15.20.225,vbt_B1_day1,2022.2.4,Win32,120.0192031,,,,,,,,,,,,,,,,,,,0.642592706,-0.000925954,1,0,0,0.8695,2,17,69,2,1,c,images/br_c.png,images/cb_c.png,,,,,,,,,,,,,,,,,,,,,,,,,
,,,,,,00077,2023-10-26_12h15.20.225,vbt_B1_day1,2022.2.4,Win32,120.0192031,,,,,,,,,,,,,,,,,,,0.642592706,-0.000925954,1,0,0,1.8235,2,18,70,8,1,i,images/br_i.png,images/cb_i.png,,,,,,,,,,,,,,,,,,,,,,,,,
,,,,,,00077,2023-10-26_12h15.20.225,vbt_B1_day1,2022.2.4,Win32,120.0192031,,,,,,,,,,,,,,,,,,,0.642592706,-0.000925954,1,0,0,4.7468,2,19,71,0,1,a,images/br_a.png,images/cb_a.png,,,,,,,,,,,,,,,,,,,,,,,,,
,,,,,,00077,2023-10-26_12h15.20.225,vbt_B1_day1,2022.2.4,Win32,120.0192031,,,,,,,,,,,,,,,,,,,0.642592706,-0.000925954,1,0,0,1.5324,2,20,72,23,1,x,images/br_x.png,images/cb_x.png,,,,,,,,,,,,,,,,,,,,,,,,,
,,,,,,00077,2023-10-26_12h15.20.225,vbt_B1_day1,2022.2.4,Win32,120.0192031,,,,,,,,,,,,,,,,,,,0.642592706,-0.000925954,1,0,0,0.9241,2,21,73,20,1,u,images/br_u.png,images/cb_u.png,,,,,,,,,,,,,,,,,,,,,,,,,
,,,,,,00077,2023-10-26_12h15.20.225,vbt_B1_day1,2022.2.4,Win32,120.0192031,,,,,,,,,,,,,,,,,,,0.642592706,-0.000925954,1,0,0,2.7232,2,22,74,21,1,v,images/br_v.png,images/cb_v.png,,,,,,,,,,,,,,,,,,,,,,,,,
,,,,,,00077,2023-10-26_12h15.20.225,vbt_B1_day1,2022.2.4,Win32,120.0192031,,,,,,,,,,,,,,,,,,,0.642592706,-0.000925954,1,0,0,3.6809,2,23,75,15,1,p,images/br_p.png,images/cb_p.png,,,,,,,,,,,,,,,,,,,,,,,,,
,,,,,,00077,2023-10-26_12h15.20.225,vbt_B1_day1,2022.2.4,Win32,120.0192031,,,,,,,,,,,,,,,,,,,0.642592706,-0.000925954,1,0,0,11.2096,2,24,76,1,1,b,images/br_b.png,images/cb_b.png,,,,,,,,,,,,,,,,,,,,,,,,,
,,,,,,00077,2023-10-26_12h15.20.225,vbt_B1_day1,2022.2.4,Win32,120.0192031,,,,,,,,,,,,,,,,,,,0.644444444,0.004629601,1,0,0,4.8137,2,25,77,11,1,l,images/br_l.png,images/cb_l.png,,,,,,,,,,,,,,,,,,,,,,,,,
,,,,,,00077,2023-10-26_12h15.20.225,vbt_B1_day1,2022.2.4,Win32,120.0192031,,,,,,,,,,,,,,,,,,,0.636111111,-0.014814843,1,0,0,0.9485,3,0,78,24,1,y,images/br_y.png,images/cb_y.png,,,,,,,,,,,,,,,,,,,,,,,,,
,,,,,,00077,2023-10-26_12h15.20.225,vbt_B1_day1,2022.2.4,Win32,120.0192031,,,,,,,,,,,,,,,,,,,0.636111111,-0.014814843,1,0,0,1.4918,3,1,79,3,1,d,images/br_d.png,images/cb_d.png,,,,,,,,,,,,,,,,,,,,,,,,,
,,,,,,00077,2023-10-26_12h15.20.225,vbt_B1_day1,2022.2.4,Win32,120.0192031,,,,,,,,,,,,,,,,,,,0.636111111,-0.014814843,1,0,0,1.4071,3,2,80,14,1,o,images/br_o.png,images/cb_o.png,,,,,,,,,,,,,,,,,,,,,,,,,
,,,,,,00077,2023-10-26_12h15.20.225,vbt_B1_day1,2022.2.4,Win32,120.0192031,,,,,,,,,,,,,,,,,,,0.636111111,-0.014814843,1,0,0,1.041,3,3,81,12,1,m,images/br_m.png,images/cb_m.png,,,,,,,,,,,,,,,,,,,,,,,,,
,,,,,,00077,2023-10-26_12h15.20.225,vbt_B1_day1,2022.2.4,Win32,120.0192031,,,,,,,,,,,,,,,,,,,0.636111111,-0.014814843,1,0,0,0.2581,3,4,82,23,1,x,images/br_x.png,images/cb_x.png,,,,,,,,,,,,,,,,,,,,,,,,,
,,,,,,00077,2023-10-26_12h15.20.225,vbt_B1_day1,2022.2.4,Win32,120.0192031,,,,,,,,,,,,,,,,,,,0.629629686,-0.012962977,1,0,0,0.6159,3,5,83,20,1,u,images/br_u.png,images/cb_u.png,,,,,,,,,,,,,,,,,,,,,,,,,
,,,,,,00077,2023-10-26_12h15.20.225,vbt_B1_day1,2022.2.4,Win32,120.0192031,,,,,,,,,,,,,,,,,,,0.629629686,-0.012962977,1,0,0,1.8496,3,6,84,13,1,n,images/br_n.png,images/cb_n.png,,,,,,,,,,,,,,,,,,,,,,,,,
,,,,,,00077,2023-10-26_12h15.20.225,vbt_B1_day1,2022.2.4,Win32,120.0192031,,,,,,,,,,,,,,,,,,,0.629629686,-0.012962977,1,0,0,1.2109,3,7,85,11,1,l,images/br_l.png,images/cb_l.png,,,,,,,,,,,,,,,,,,,,,,,,,
,,,,,,00077,2023-10-26_12h15.20.225,vbt_B1_day1,2022.2.4,Win32,120.0192031,,,,,,,,,,,,,,,,,,,0.629629686,-0.012962977,1,0,0,0.8992,3,8,86,15,1,p,images/br_p.png,images/cb_p.png,,,,,,,,,,,,,,,,,,,,,,,,,
,,,,,,00077,2023-10-26_12h15.20.225,vbt_B1_day1,2022.2.4,Win32,120.0192031,,,,,,,,,,,,,,,,,,,0.629629686,-0.012962977,1,0,0,8.0866,3,9,87,5,1,f,images/br_f.png,images/cb_f.png,,,,,,,,,,,,,,,,,,,,,,,,,
,,,,,,00077,2023-10-26_12h15.20.225,vbt_B1_day1,2022.2.4,Win32,120.0192031,,,,,,,,,,,,,,,,,,,0.629629686,-0.012962977,1,0,0,0.8494,3,10,88,18,1,s,images/br_s.png,images/cb_s.png,,,,,,,,,,,,,,,,,,,,,,,,,
,,,,,,00077,2023-10-26_12h15.20.225,vbt_B1_day1,2022.2.4,Win32,120.0192031,,,,,,,,,,,,,,,,,,,0.629629686,-0.012962977,1,0,0,3.6723,3,11,89,19,1,t,images/br_t.png,images/cb_t.png,,,,,,,,,,,,,,,,,,,,,,,,,
,,,,,,00077,2023-10-26_12h15.20.225,vbt_B1_day1,2022.2.4,Win32,120.0192031,,,,,,,,,,,,,,,,,,,0.629629686,-0.012962977,1,0,0,5.1137,3,12,90,4,1,e,images/br_e.png,images/cb_e.png,,,,,,,,,,,,,,,,,,,,,,,,,
,,,,,,00077,2023-10-26_12h15.20.225,vbt_B1_day1,2022.2.4,Win32,120.0192031,,,,,,,,,,,,,,,,,,,0.629629686,-0.012962977,1,0,0,0.7487,3,13,91,0,1,a,images/br_a.png,images/cb_a.png,,,,,,,,,,,,,,,,,,,,,,,,,
,,,,,,00077,2023-10-26_12h15.20.225,vbt_B1_day1,2022.2.4,Win32,120.0192031,,,,,,,,,,,,,,,,,,,0.629629686,-0.012962977,1,0,0,0.0497,3,14,92,2,1,c,images/br_c.png,images/cb_c.png,,,,,,,,,,,,,,,,,,,,,,,,,
,,,,,,00077,2023-10-26_12h15.20.225,vbt_B1_day1,2022.2.4,Win32,120.0192031,,,,,,,,,,,,,,,,,,,0.629629686,-0.012962977,1,0,0,0.3915,3,15,93,16,1,q,images/br_q.png,images/cb_q.png,,,,,,,,,,,,,,,,,,,,,,,,,
,,,,,,00077,2023-10-26_12h15.20.225,vbt_B1_day1,2022.2.4,Win32,120.0192031,,,,,,,,,,,,,,,,,,,0.629629686,-0.012962977,1,0,0,2.6483,3,16,94,25,1,z,images/br_z.png,images/cb_z.png,,,,,,,,,,,,,,,,,,,,,,,,,
,,,,,,00077,2023-10-26_12h15.20.225,vbt_B1_day1,2022.2.4,Win32,120.0192031,,,,,,,,,,,,,,,,,,,0.629629686,-0.012962977,1,0,0,1.3488,3,17,95,6,1,g,images/br_g.png,images/cb_g.png,,,,,,,,,,,,,,,,,,,,,,,,,
,,,,,,00077,2023-10-26_12h15.20.225,vbt_B1_day1,2022.2.4,Win32,120.0192031,,,,,,,,,,,,,,,,,,,0.629629686,-0.012962977,1,0,0,11.6764,3,18,96,7,1,h,images/br_h.png,images/cb_h.png,,,,,,,,,,,,,,,,,,,,,,,,,
,,,,,,00077,2023-10-26_12h15.20.225,vbt_B1_day1,2022.2.4,Win32,120.0192031,,,,,,,,,,,,,,,,,,,0.629629686,-0.012962977,1,0,0,34.1802,3,19,97,17,1,r,images/br_r.png,images/cb_r.png,,,,,,,,,,,,,,,,,,,,,,,,,
,,,,,,00077,2023-10-26_12h15.20.225,vbt_B1_day1,2022.2.4,Win32,120.0192031,,,,,,,,,,,,,,,,,,,0.629629686,-0.012962977,1,0,0,1.1245,3,20,98,10,1,k,images/br_k.png,images/cb_k.png,,,,,,,,,,,,,,,,,,,,,,,,,
,,,,,,00077,2023-10-26_12h15.20.225,vbt_B1_day1,2022.2.4,Win32,120.0192031,,,,,,,,,,,,,,,,,,,0.629629686,-0.012962977,1,0,0,0.1072,3,21,99,9,1,j,images/br_j.png,images/cb_j.png,,,,,,,,,,,,,,,,,,,,,,,,,
,,,,,,00077,2023-10-26_12h15.20.225,vbt_B1_day1,2022.2.4,Win32,120.0192031,,,,,,,,,,,,,,,,,,,0.629629686,-0.012962977,1,0,0,3.1976,3,22,100,8,1,i,images/br_i.png,images/cb_i.png,,,,,,,,,,,,,,,,,,,,,,,,,
,,,,,,00077,2023-10-26_12h15.20.225,vbt_B1_day1,2022.2.4,Win32,120.0192031,,,,,,,,,,,,,,,,,,,0.650926039,0.006481467,1,0,0,4.104,3,23,101,21,1,v,images/br_v.png,images/cb_v.png,,,,,,,,,,,,,,,,,,,,,,,,,
,,,,,,00077,2023-10-26_12h15.20.225,vbt_B1_day1,2022.2.4,Win32,120.0192031,,,,,,,,,,,,,,,,,,,0.462963019,-0.003703732,1,0,0,7.4125,3,24,102,1,1,b,images/br_b.png,images/cb_b.png,,,,,,,,,,,,,,,,,,,,,,,,,
,,,,,,00077,2023-10-26_12h15.20.225,vbt_B1_day1,2022.2.4,Win32,120.0192031,,,,,,,,,,,,,,,,,,,0.478703732,0.007407379,1,0,0,37.0595,3,25,103,22,1,w,images/br_w.png,images/cb_w.png,,,,,,,,,,,,,,,,,,,,,,,,,
,,,,,,00077,2023-10-26_12h15.20.225,vbt_B1_day1,2022.2.4,Win32,120.0192031,,,,,,,,,,,,,,,,,,,0.478703732,0.007407379,1,0,0,3.6728,4,0,104,13,1,n,images/br_n.png,images/cb_n.png,,,,,,,,,,,,,,,,,,,,,,,,,
,,,,,,00077,2023-10-26_12h15.20.225,vbt_B1_day1,2022.2.4,Win32,120.0192031,,,,,,,,,,,,,,,,,,,0.423148176,0.013888889,1,0,0,0.7321,4,1,105,24,1,y,images/br_y.png,images/cb_y.png,,,,,,,,,,,,,,,,,,,,,,,,,
,,,,,,00077,2023-10-26_12h15.20.225,vbt_B1_day1,2022.2.4,Win32,120.0192031,,,,,,,,,,,,,,,,,,,0.423148176,0.013888889,1,0,0,1.212,4,2,106,5,1,f,images/br_f.png,images/cb_f.png,,,,,,,,,,,,,,,,,,,,,,,,,
,,,,,,00077,2023-10-26_12h15.20.225,vbt_B1_day1,2022.2.4,Win32,120.0192031,,,,,,,,,,,,,,,,,,,0.423148176,0.013888889,1,0,0,7.3544,4,3,107,7,1,h,images/br_h.png,images/cb_h.png,,,,,,,,,,,,,,,,,,,,,,,,,
,,,,,,00077,2023-10-26_12h15.20.225,vbt_B1_day1,2022.2.4,Win32,120.0192031,,,,,,,,,,,,,,,,,,,0.423148176,0.013888889,1,0,0,1.0572,4,4,108,0,1,a,images/br_a.png,images/cb_a.png,,,,,,,,,,,,,,,,,,,,,,,,,
,,,,,,00077,2023-10-26_12h15.20.225,vbt_B1_day1,2022.2.4,Win32,120.0192031,,,,,,,,,,,,,,,,,,,0.423148176,0.013888889,1,0,0,0.1002,4,5,109,2,1,c,images/br_c.png,images/cb_c.png,,,,,,,,,,,,,,,,,,,,,,,,,
,,,,,,00077,2023-10-26_12h15.20.225,vbt_B1_day1,2022.2.4,Win32,120.0192031,,,,,,,,,,,,,,,,,,,0.423148176,0.013888889,1,0,0,2.0242,4,6,110,20,1,u,images/br_u.png,images/cb_u.png,,,,,,,,,,,,,,,,,,,,,,,,,
,,,,,,00077,2023-10-26_12h15.20.225,vbt_B1_day1,2022.2.4,Win32,120.0192031,,,,,,,,,,,,,,,,,,,0.423148176,0.013888889,1,0,0,7.8705,4,7,111,9,1,j,images/br_j.png,images/cb_j.png,,,,,,,,,,,,,,,,,,,,,,,,,
,,,,,,00077,2023-10-26_12h15.20.225,vbt_B1_day1,2022.2.4,Win32,120.0192031,,,,,,,,,,,,,,,,,,,0.423148176,0.013888889,1,0,0,0.0504,4,8,112,21,1,v,images/br_v.png,images/cb_v.png,,,,,,,,,,,,,,,,,,,,,,,,,
,,,,,,00077,2023-10-26_12h15.20.225,vbt_B1_day1,2022.2.4,Win32,120.0192031,,,,,,,,,,,,,,,,,,,0.423148176,0.013888889,1,0,0,1.1239,4,9,113,1,1,b,images/br_b.png,images/cb_b.png,,,,,,,,,,,,,,,,,,,,,,,,,
,,,,,,00077,2023-10-26_12h15.20.225,vbt_B1_day1,2022.2.4,Win32,120.0192031,,,,,,,,,,,,,,,,,,,0.423148176,0.013888889,1,0,0,5.2149,4,10,114,17,1,r,images/br_r.png,images/cb_r.png,,,,,,,,,,,,,,,,,,,,,,,,,
,,,,,,00077,2023-10-26_12h15.20.225,vbt_B1_day1,2022.2.4,Win32,120.0192031,,,,,,,,,,,,,,,,,,,0.423148176,0.013888889,1,0,0,0.6501,4,11,115,6,1,g,images/br_g.png,images/cb_g.png,,,,,,,,,,,,,,,,,,,,,,,,,
,,,,,,00077,2023-10-26_12h15.20.225,vbt_B1_day1,2022.2.4,Win32,120.0192031,,,,,,,,,,,,,,,,,,,0.402777778,-0.014814843,1,0,0,1.6401,4,12,116,23,1,x,images/br_x.png,images/cb_x.png,,,,,,,,,,,,,,,,,,,,,,,,,
,,,,,,00077,2023-10-26_12h15.20.225,vbt_B1_day1,2022.2.4,Win32,120.0192031,,,,,,,,,,,,,,,,,,,0.402777778,-0.014814843,1,0,0,1.666,4,13,117,10,1,k,images/br_k.png,images/cb_k.png,,,,,,,,,,,,,,,,,,,,,,,,,
,,,,,,00077,2023-10-26_12h15.20.225,vbt_B1_day1,2022.2.4,Win32,120.0192031,,,,,,,,,,,,,,,,,,,0.402777778,-0.014814843,1,0,0,1.7904,4,14,118,15,1,p,images/br_p.png,images/cb_p.png,,,,,,,,,,,,,,,,,,,,,,,,,
,,,,,,00077,2023-10-26_12h15.20.225,vbt_B1_day1,2022.2.4,Win32,120.0192031,,,,,,,,,,,,,,,,,,,0.402777778,-0.014814843,1,0,0,3.4141,4,15,119,8,1,i,images/br_i.png,images/cb_i.png,,,,,,,,,,,,,,,,,,,,,,,,,
,,,,,,00077,2023-10-26_12h15.20.225,vbt_B1_day1,2022.2.4,Win32,120.0192031,,,,,,,,,,,,,,,,,,,0.402777778,-0.014814843,1,0,0,8.9783,4,16,120,16,1,q,images/br_q.png,images/cb_q.png,,,,,,,,,,,,,,,,,,,,,,,,,
,,,,,,00077,2023-10-26_12h15.20.225,vbt_B1_day1,2022.2.4,Win32,120.0192031,,,,,,,,,,,,,,,,,,,0.402777778,-0.014814843,1,0,0,2.0486,4,17,121,14,1,o,images/br_o.png,images/cb_o.png,,,,,,,,,,,,,,,,,,,,,,,,,
,,,,,,00077,2023-10-26_12h15.20.225,vbt_B1_day1,2022.2.4,Win32,120.0192031,,,,,,,,,,,,,,,,,,,0.402777778,-0.014814843,1,0,0,9.4029,4,18,122,4,1,e,images/br_e.png,images/cb_e.png,,,,,,,,,,,,,,,,,,,,,,,,,
,,,,,,00077,2023-10-26_12h15.20.225,vbt_B1_day1,2022.2.4,Win32,120.0192031,,,,,,,,,,,,,,,,,,,0.402777778,-0.014814843,1,0,0,9.4944,4,19,123,19,1,t,images/br_t.png,images/cb_t.png,,,,,,,,,,,,,,,,,,,,,,,,,
,,,,,,00077,2023-10-26_12h15.20.225,vbt_B1_day1,2022.2.4,Win32,120.0192031,,,,,,,,,,,,,,,,,,,0.402777778,-0.014814843,1,0,0,19.572,4,20,124,25,1,z,images/br_z.png,images/cb_z.png,,,,,,,,,,,,,,,,,,,,,,,,,
,,,,,,00077,2023-10-26_12h15.20.225,vbt_B1_day1,2022.2.4,Win32,120.0192031,,,,,,,,,,,,,,,,,,,0.402777778,-0.014814843,1,0,0,1.624,4,21,125,18,1,s,images/br_s.png,images/cb_s.png,,,,,,,,,,,,,,,,,,,,,,,,,
,,,,,,00077,2023-10-26_12h15.20.225,vbt_B1_day1,2022.2.4,Win32,120.0192031,,,,,,,,,,,,,,,,,,,0.402777778,-0.014814843,1,0,0,5.8187,4,22,126,3,1,d,images/br_d.png,images/cb_d.png,,,,,,,,,,,,,,,,,,,,,,,,,
,,,,,,00077,2023-10-26_12h15.20.225,vbt_B1_day1,2022.2.4,Win32,120.0192031,,,,,,,,,,,,,,,,,,,0.402777778,-0.014814843,1,0,0,4.0975,4,23,127,12,1,m,images/br_m.png,images/cb_m.png,,,,,,,,,,,,,,,,,,,,,,,,,
,,,,,,00077,2023-10-26_12h15.20.225,vbt_B1_day1,2022.2.4,Win32,120.0192031,,,,,,,,,,,,,,,,,,,0.402777778,-0.014814843,1,0,0,4.3472,4,24,128,11,1,l,images/br_l.png,images/cb_l.png,,,,,,,,,,,,,,,,,,,,,,,,,
,,,,,,00077,2023-10-26_12h15.20.225,vbt_B1_day1,2022.2.4,Win32,120.0192031,,,,,,,,,,,,,,,,,,,0.402777778,-0.014814843,1,0,0,2.3772,4,25,129,22,1,w,images/br_w.png,images/cb_w.png,,,,,,,,,,,,,,,,,,,,,,,,,
,,,,,,00077,2023-10-26_12h15.20.225,vbt_B1_day1,2022.2.4,Win32,120.0192031,,,,,,,,,,,,,,,,,,,0.402777778,-0.014814843,1,0,0,6.0875,5,0,130,3,1,d,images/br_d.png,images/cb_d.png,,,,,,,,,,,,,,,,,,,,,,,,,
,,,,,,00077,2023-10-26_12h15.20.225,vbt_B1_day1,2022.2.4,Win32,120.0192031,,,,,,,,,,,,,,,,,,,0.402777778,-0.014814843,1,0,0,3.1312,5,1,131,8,1,i,images/br_i.png,images/cb_i.png,,,,,,,,,,,,,,,,,,,,,,,,,
,,,,,,00077,2023-10-26_12h15.20.225,vbt_B1_day1,2022.2.4,Win32,120.0192031,,,,,,,,,,,,,,,,,,,0.402777778,-0.014814843,1,0,0,0.6662,5,2,132,17,1,r,images/br_r.png,images/cb_r.png,,,,,,,,,,,,,,,,,,,,,,,,,
,,,,,,00077,2023-10-26_12h15.20.225,vbt_B1_day1,2022.2.4,Win32,120.0192031,,,,,,,,,,,,,,,,,,,0.402777778,-0.014814843,1,0,0,2.5818,5,3,133,5,1,f,images/br_f.png,images/cb_f.png,,,,,,,,,,,,,,,,,,,,,,,,,
,,,,,,00077,2023-10-26_12h15.20.225,vbt_B1_day1,2022.2.4,Win32,120.0192031,,,,,,,,,,,,,,,,,,,0.402777778,-0.014814843,1,0,0,0.5494,5,4,134,15,1,p,images/br_p.png,images/cb_p.png,,,,,,,,,,,,,,,,,,,,,,,,,
,,,,,,00077,2023-10-26_12h15.20.225,vbt_B1_day1,2022.2.4,Win32,120.0192031,,,,,,,,,,,,,,,,,,,0.402777778,-0.014814843,1,0,0,2.215,5,5,135,13,1,n,images/br_n.png,images/cb_n.png,,,,,,,,,,,,,,,,,,,,,,,,,
,,,,,,00077,2023-10-26_12h15.20.225,vbt_B1_day1,2022.2.4,Win32,120.0192031,,,,,,,,,,,,,,,,,,,0.402777778,-0.014814843,1,0,0,0.4164,5,6,136,12,1,m,images/br_m.png,images/cb_m.png,,,,,,,,,,,,,,,,,,,,,,,,,
,,,,,,00077,2023-10-26_12h15.20.225,vbt_B1_day1,2022.2.4,Win32,120.0192031,,,,,,,,,,,,,,,,,,,0.402777778,-0.014814843,1,0,0,1.4241,5,7,137,16,1,q,images/br_q.png,images/cb_q.png,,,,,,,,,,,,,,,,,,,,,,,,,
,,,,,,00077,2023-10-26_12h15.20.225,vbt_B1_day1,2022.2.4,Win32,120.0192031,,,,,,,,,,,,,,,,,,,0.402777778,-0.014814843,1,0,0,0.1995,5,8,138,2,1,c,images/br_c.png,images/cb_c.png,,,,,,,,,,,,,,,,,,,,,,,,,
,,,,,,00077,2023-10-26_12h15.20.225,vbt_B1_day1,2022.2.4,Win32,120.0192031,,,,,,,,,,,,,,,,,,,0.402777778,-0.014814843,1,0,0,1.1992,5,9,139,25,1,z,images/br_z.png,images/cb_z.png,,,,,,,,,,,,,,,,,,,,,,,,,
,,,,,,00077,2023-10-26_12h15.20.225,vbt_B1_day1,2022.2.4,Win32,120.0192031,,,,,,,,,,,,,,,,,,,0.402777778,-0.014814843,1,0,0,0.5078,5,10,140,20,1,u,images/br_u.png,images/cb_u.png,,,,,,,,,,,,,,,,,,,,,,,,,
,,,,,,00077,2023-10-26_12h15.20.225,vbt_B1_day1,2022.2.4,Win32,120.0192031,,,,,,,,,,,,,,,,,,,0.402777778,-0.014814843,1,0,0,0.7995,5,11,141,23,1,x,images/br_x.png,images/cb_x.png,,,,,,,,,,,,,,,,,,,,,,,,,
,,,,,,00077,2023-10-26_12h15.20.225,vbt_B1_day1,2022.2.4,Win32,120.0192031,,,,,,,,,,,,,,,,,,,0.402777778,-0.014814843,1,0,0,1.0911,5,12,142,4,1,e,images/br_e.png,images/cb_e.png,,,,,,,,,,,,,,,,,,,,,,,,,
,,,,,,00077,2023-10-26_12h15.20.225,vbt_B1_day1,2022.2.4,Win32,120.0192031,,,,,,,,,,,,,,,,,,,0.402777778,-0.014814843,1,0,0,0.4329,5,13,143,21,1,v,images/br_v.png,images/cb_v.png,,,,,,,,,,,,,,,,,,,,,,,,,
,,,,,,00077,2023-10-26_12h15.20.225,vbt_B1_day1,2022.2.4,Win32,120.0192031,,,,,,,,,,,,,,,,,,,0.402777778,-0.014814843,1,0,0,0.0166,5,14,144,24,1,y,images/br_y.png,images/cb_y.png,,,,,,,,,,,,,,,,,,,,,,,,,
,,,,,,00077,2023-10-26_12h15.20.225,vbt_B1_day1,2022.2.4,Win32,120.0192031,,,,,,,,,,,,,,,,,,,0.402777778,-0.014814843,1,0,0,2.3892,5,15,145,7,1,h,images/br_h.png,images/cb_h.png,,,,,,,,,,,,,,,,,,,,,,,,,
,,,,,,00077,2023-10-26_12h15.20.225,vbt_B1_day1,2022.2.4,Win32,120.0192031,,,,,,,,,,,,,,,,,,,0.402777778,-0.017592621,1,0,0,1.7828,5,16,146,11,1,l,images/br_l.png,images/cb_l.png,,,,,,,,,,,,,,,,,,,,,,,,,
,,,,,,00077,2023-10-26_12h15.20.225,vbt_B1_day1,2022.2.4,Win32,120.0192031,,,,,,,,,,,,,,,,,,,0.402777778,-0.017592621,1,0,0,8.0541,5,17,147,22,1,w,images/br_w.png,images/cb_w.png,,,,,,,,,,,,,,,,,,,,,,,,,
,,,,,,00077,2023-10-26_12h15.20.225,vbt_B1_day1,2022.2.4,Win32,120.0192031,,,,,,,,,,,,,,,,,,,0.402777778,-0.017592621,1,0,0,3.3144,5,18,148,0,1,a,images/br_a.png,images/cb_a.png,,,,,,,,,,,,,,,,,,,,,,,,,
,,,,,,00077,2023-10-26_12h15.20.225,vbt_B1_day1,2022.2.4,Win32,120.0192031,,,,,,,,,,,,,,,,,,,0.402777778,-0.017592621,1,0,0,20.7145,5,19,149,6,1,g,images/br_g.png,images/cb_g.png,,,,,,,,,,,,,,,,,,,,,,,,,
,,,,,,00077,2023-10-26_12h15.20.225,vbt_B1_day1,2022.2.4,Win32,120.0192031,,,,,,,,,,,,,,,,,,,0.402777778,-0.017592621,1,0,0,2.4319,5,20,150,19,1,t,images/br_t.png,images/cb_t.png,,,,,,,,,,,,,,,,,,,,,,,,,
,,,,,,00077,2023-10-26_12h15.20.225,vbt_B1_day1,2022.2.4,Win32,120.0192031,,,,,,,,,,,,,,,,,,,0.402777778,-0.017592621,1,0,0,3.4979,5,21,151,10,1,k,images/br_k.png,images/cb_k.png,,,,,,,,,,,,,,,,,,,,,,,,,
,,,,,,00077,2023-10-26_12h15.20.225,vbt_B1_day1,2022.2.4,Win32,120.0192031,,,,,,,,,,,,,,,,,,,0.402777778,-0.017592621,1,0,0,3.7809,5,22,152,1,1,b,images/br_b.png,images/cb_b.png,,,,,,,,,,,,,,,,,,,,,,,,,
,,,,,,00077,2023-10-26_12h15.20.225,vbt_B1_day1,2022.2.4,Win32,120.0192031,,,,,,,,,,,,,,,,,,,0.402777778,-0.017592621,1,0,0,1.6075,5,23,153,18,1,s,images/br_s.png,images/cb_s.png,,,,,,,,,,,,,,,,,,,,,,,,,
,,,,,,00077,2023-10-26_12h15.20.225,vbt_B1_day1,2022.2.4,Win32,120.0192031,,,,,,,,,,,,,,,,,,,0.402777778,-0.017592621,1,0,0,0.4413,5,24,154,14,1,o,images/br_o.png,images/cb_o.png,,,,,,,,,,,,,,,,,,,,,,,,,
,,,,,,00077,2023-10-26_12h15.20.225,vbt_B1_day1,2022.2.4,Win32,120.0192031,,,,,,,,,,,,,,,,,,,0.402777778,-0.017592621,1,0,0,2.8737,5,25,155,9,1,j,images/br_j.png,images/cb_j.png,,,,,,,,,,,,,,,,,,,,,,,,,
,,,,,,00077,2023-10-26_12h15.20.225,vbt_B1_day1,2022.2.4,Win32,120.0192031,,,,,,,,,,,,,,,,,,,0.402777778,-0.017592621,1,0,0,0.2079,6,0,156,17,1,r,images/br_r.png,images/cb_r.png,,,,,,,,,,,,,,,,,,,,,,,,,
,,,,,,00077,2023-10-26_12h15.20.225,vbt_B1_day1,2022.2.4,Win32,120.0192031,,,,,,,,,,,,,,,,,,,0.402777778,-0.017592621,1,0,0,2.257,6,1,157,13,1,n,images/br_n.png,images/cb_n.png,,,,,,,,,,,,,,,,,,,,,,,,,
,,,,,,00077,2023-10-26_12h15.20.225,vbt_B1_day1,2022.2.4,Win32,120.0192031,,,,,,,,,,,,,,,,,,,0.402777778,-0.017592621,1,0,0,3.5059,6,2,158,23,1,x,images/br_x.png,images/cb_x.png,,,,,,,,,,,,,,,,,,,,,,,,,
,,,,,,00077,2023-10-26_12h15.20.225,vbt_B1_day1,2022.2.4,Win32,120.0192031,,,,,,,,,,,,,,,,,,,0.402777778,-0.017592621,1,0,0,12.3261,6,3,159,2,1,c,images/br_c.png,images/cb_c.png,,,,,,,,,,,,,,,,,,,,,,,,,
,,,,,,00077,2023-10-26_12h15.20.225,vbt_B1_day1,2022.2.4,Win32,120.0192031,,,,,,,,,,,,,,,,,,,0.402777778,-0.017592621,1,0,0,0.7659,6,4,160,6,1,g,images/br_g.png,images/cb_g.png,,,,,,,,,,,,,,,,,,,,,,,,,
,,,,,,00077,2023-10-26_12h15.20.225,vbt_B1_day1,2022.2.4,Win32,120.0192031,,,,,,,,,,,,,,,,,,,0.402777778,-0.017592621,1,0,0,4.9454,6,5,161,7,1,h,images/br_h.png,images/cb_h.png,,,,,,,,,,,,,,,,,,,,,,,,,
,,,,,,00077,2023-10-26_12h15.20.225,vbt_B1_day1,2022.2.4,Win32,120.0192031,,,,,,,,,,,,,,,,,,,0.402777778,-0.017592621,1,0,0,3.7649,6,6,162,18,1,s,images/br_s.png,images/cb_s.png,,,,,,,,,,,,,,,,,,,,,,,,,
,,,,,,00077,2023-10-26_12h15.20.225,vbt_B1_day1,2022.2.4,Win32,120.0192031,,,,,,,,,,,,,,,,,,,0.402777778,-0.017592621,1,0,0,0.3162,6,7,163,1,1,b,images/br_b.png,images/cb_b.png,,,,,,,,,,,,,,,,,,,,,,,,,
,,,,,,00077,2023-10-26_12h15.20.225,vbt_B1_day1,2022.2.4,Win32,120.0192031,,,,,,,,,,,,,,,,,,,0.402777778,-0.017592621,1,0,0,0.6994,6,8,164,9,1,j,images/br_j.png,images/cb_j.png,,,,,,,,,,,,,,,,,,,,,,,,,
,,,,,,00077,2023-10-26_12h15.20.225,vbt_B1_day1,2022.2.4,Win32,120.0192031,,,,,,,,,,,,,,,,,,,0.402777778,-0.017592621,1,0,0,0.3914,6,9,165,15,1,p,images/br_p.png,images/cb_p.png,,,,,,,,,,,,,,,,,,,,,,,,,
,,,,,,00077,2023-10-26_12h15.20.225,vbt_B1_day1,2022.2.4,Win32,120.0192031,,,,,,,,,,,,,,,,,,,0.402777778,-0.017592621,1,0,0,1.2909,6,10,166,14,1,o,images/br_o.png,images/cb_o.png,,,,,,,,,,,,,,,,,,,,,,,,,
,,,,,,00077,2023-10-26_12h15.20.225,vbt_B1_day1,2022.2.4,Win32,120.0192031,,,,,,,,,,,,,,,,,,,0.402777778,-0.017592621,1,0,0,0.2331,6,11,167,24,1,y,images/br_y.png,images/cb_y.png,,,,,,,,,,,,,,,,,,,,,,,,,
,,,,,,00077,2023-10-26_12h15.20.225,vbt_B1_day1,2022.2.4,Win32,120.0192031,,,,,,,,,,,,,,,,,,,0.402777778,-0.017592621,1,0,0,0.5495,6,12,168,19,1,t,images/br_t.png,images/cb_t.png,,,,,,,,,,,,,,,,,,,,,,,,,
,,,,,,00077,2023-10-26_12h15.20.225,vbt_B1_day1,2022.2.4,Win32,120.0192031,,,,,,,,,,,,,,,,,,,0.402777778,-0.017592621,1,0,0,0.9044,6,13,169,0,1,a,images/br_a.png,images/cb_a.png,,,,,,,,,,,,,,,,,,,,,,,,,
,,,,,,00077,2023-10-26_12h15.20.225,vbt_B1_day1,2022.2.4,Win32,120.0192031,,,,,,,,,,,,,,,,,,,0.402777778,-0.017592621,1,0,0,2.1151,6,14,170,25,1,z,images/br_z.png,images/cb_z.png,,,,,,,,,,,,,,,,,,,,,,,,,
,,,,,,00077,2023-10-26_12h15.20.225,vbt_B1_day1,2022.2.4,Win32,120.0192031,,,,,,,,,,,,,,,,,,,0.402777778,-0.017592621,1,0,0,0.6496,6,15,171,4,1,e,images/br_e.png,images/cb_e.png,,,,,,,,,,,,,,,,,,,,,,,,,
,,,,,,00077,2023-10-26_12h15.20.225,vbt_B1_day1,2022.2.4,Win32,120.0192031,,,,,,,,,,,,,,,,,,,0.402777778,-0.017592621,1,0,0,0.8663,6,16,172,5,1,f,images/br_f.png,images/cb_f.png,,,,,,,,,,,,,,,,,,,,,,,,,
,,,,,,00077,2023-10-26_12h15.20.225,vbt_B1_day1,2022.2.4,Win32,120.0192031,,,,,,,,,,,,,,,,,,,0.402777778,-0.017592621,1,0,0,3.856,6,17,173,3,1,d,images/br_d.png,images/cb_d.png,,,,,,,,,,,,,,,,,,,,,,,,,
,,,,,,00077,2023-10-26_12h15.20.225,vbt_B1_day1,2022.2.4,Win32,120.0192031,,,,,,,,,,,,,,,,,,,0.402777778,-0.017592621,1,0,0,0.8494,6,18,174,8,1,i,images/br_i.png,images/cb_i.png,,,,,,,,,,,,,,,,,,,,,,,,,
,,,,,,00077,2023-10-26_12h15.20.225,vbt_B1_day1,2022.2.4,Win32,120.0192031,,,,,,,,,,,,,,,,,,,0.402777778,-0.017592621,1,0,0,3.1481,6,19,175,10,1,k,images/br_k.png,images/cb_k.png,,,,,,,,,,,,,,,,,,,,,,,,,
,,,,,,00077,2023-10-26_12h15.20.225,vbt_B1_day1,2022.2.4,Win32,120.0192031,,,,,,,,,,,,,,,,,,,0.402777778,-0.017592621,1,0,0,1.9737,6,20,176,16,1,q,images/br_q.png,images/cb_q.png,,,,,,,,,,,,,,,,,,,,,,,,,
,,,,,,00077,2023-10-26_12h15.20.225,vbt_B1_day1,2022.2.4,Win32,120.0192031,,,,,,,,,,,,,,,,,,,0.402777778,-0.017592621,1,0,0,2.3233,6,21,177,12,1,m,images/br_m.png,images/cb_m.png,,,,,,,,,,,,,,,,,,,,,,,,,
,,,,,,00077,2023-10-26_12h15.20.225,vbt_B1_day1,2022.2.4,Win32,120.0192031,,,,,,,,,,,,,,,,,,,0.402777778,-0.017592621,1,0,0,7.2875,6,22,178,21,1,v,images/br_v.png,images/cb_v.png,,,,,,,,,,,,,,,,,,,,,,,,,
,,,,,,00077,2023-10-26_12h15.20.225,vbt_B1_day1,2022.2.4,Win32,120.0192031,,,,,,,,,,,,,,,,,,,0.402777778,-0.017592621,1,0,0,13.0177,6,23,179,22,1,w,images/br_w.png,images/cb_w.png,,,,,,,,,,,,,,,,,,,,,,,,,
,,,,,,00077,2023-10-26_12h15.20.225,vbt_B1_day1,2022.2.4,Win32,120.0192031,,,,,,,,,,,,,,,,,,,0.402777778,-0.017592621,1,0,0,0.2496,6,24,180,11,1,l,images/br_l.png,images/cb_l.png,,,,,,,,,,,,,,,,,,,,,,,,,
,,,,,,00077,2023-10-26_12h15.20.225,vbt_B1_day1,2022.2.4,Win32,120.0192031,,,,,,,,,,,,,,,,,,,0.402777778,-0.017592621,0,0,1,0.7703,6,25,181,20,1,u,images/br_u.png,images/cb_u.png,,,,,,,,,,,,,,,,,,,,,,,,,
,,,,,,00077,2023-10-26_12h15.20.225,vbt_B1_day1,2022.2.4,Win32,120.0192031,,,,,,,,,,,,,,,,,,,,,,,,,,,,,,,,,-0.154629601,-0.222222222,1,0,0,,,,,,,,,,,,,,,,,,,,
,,,,,,00077,2023-10-26_12h15.20.225,vbt_B1_day1,2022.2.4,Win32,120.0192031,,,,,,,,,,,,,,,,,,,,,,,,,,,,,,,,,,,,,,-0.154629601,-0.222222222,1,0,0,,,,,,,,,,,,,,,
,,,,,,00077,2023-10-26_12h15.20.225,vbt_B1_day1,2022.2.4,Win32,120.0192031,,,,,,,,,,,,,,,,,,,,,,,,,,,,,,,,,,,,,,,,,,,-0.219444444,-0.067592621,1,0,0,.L....,.L....,0,0,0,7,1,klauw,images/br_klauw.png,images/cb_klauw.png
,,,,,,00077,2023-10-26_12h15.20.225,vbt_B1_day1,2022.2.4,Win32,120.0192031,,,,,,,,,,,,,,,,,,,,,,,,,,,,,,,,,,,,,,,,,,,-0.219444444,-0.067592621,1,0,0,.....,.....,0,1,1,44,1,wijze,images/br_wijze.png,images/cb_wijze.png
,,,,,,00077,2023-10-26_12h15.20.225,vbt_B1_day1,2022.2.4,Win32,120.0192031,,,,,,,,,,,,,,,,,,,,,,,,,,,,,,,,,,,,,,,,,,,-0.219444444,-0.067592621,1,0,0,.r.e..,.r.e..,0,2,2,25,1,brijk,images/br_brijk.png,images/cb_brijk.png
,,,,,,00077,2023-10-26_12h15.20.225,vbt_B1_day1,2022.2.4,Win32,120.0192031,,,,,,,,,,,,,,,,,,,,,,,,,,,,,,,,,,,,,,,,,,,-0.219444444,-0.067592621,1,0,0,VAL..,VAL..,0,3,3,26,1,valop,images/br_valop.png,images/cb_valop.png
,,,,,,00077,2023-10-26_12h15.20.225,vbt_B1_day1,2022.2.4,Win32,120.0192031,,,,,,,,,,,,,,,,,,,,,,,,,,,,,,,,,,,,,,,,,,,-0.222222222,-0.079629644,1,0,0,......z,......z,0,4,4,33,1,flullen,images/br_flullen.png,images/cb_flullen.png
,,,,,,00077,2023-10-26_12h15.20.225,vbt_B1_day1,2022.2.4,Win32,120.0192031,,,,,,,,,,,,,,,,,,,,,,,,,,,,,,,,,,,,,,,,,,,-0.222222222,-0.079629644,1,0,0,......,......,0,5,5,28,1,bebrip,images/br_bebrip.png,images/cb_bebrip.png
,,,,,,00077,2023-10-26_12h15.20.225,vbt_B1_day1,2022.2.4,Win32,120.0192031,,,,,,,,,,,,,,,,,,,,,,,,,,,,,,,,,,,,,,,,,,,-0.222222222,-0.079629644,1,0,0,zaai,zaai,0,6,6,1,1,zaal,images/br_zaal.png,images/cb_zaal.png
,,,,,,00077,2023-10-26_12h15.20.225,vbt_B1_day1,2022.2.4,Win32,120.0192031,,,,,,,,,,,,,,,,,,,,,,,,,,,,,,,,,,,,,,,,,,,-0.222222222,-0.079629644,1,0,0,vez..,vez..,0,7,7,49,1,vizier,images/br_vizier.png,images/cb_vizier.png
,,,,,,00077,2023-10-26_12h15.20.225,vbt_B1_day1,2022.2.4,Win32,120.0192031,,,,,,,,,,,,,,,,,,,,,,,,,,,,,,,,,,,,,,,,,,,-0.222222222,-0.079629644,1,0,0,tar..,tar..,0,8,8,20,1,tars,images/br_tars.png,images/cb_tars.png
,,,,,,00077,2023-10-26_12h15.20.225,vbt_B1_day1,2022.2.4,Win32,120.0192031,,,,,,,,,,,,,,,,,,,,,,,,,,,,,,,,,,,,,,,,,,,-0.166361974,-0.197745314,1,0,0,,,0,9,9,24,1,rezer,images/br_rezer.png,images/cb_rezer.png
,,,,,,00077,2023-10-26_12h15.20.225,vbt_B1_day1,2022.2.4,Win32,120.0192031,,,,,,,,,,,,,,,,,,,,,,,,,,,,,,,,,,,,,,,,,,,0.022364217,0.245473892,1,0,0,,,0,10,10,51,1,liefde,images/br_liefde.png,images/cb_liefde.png
,,,,,,00077,2023-10-26_12h15.20.225,vbt_B1_day1,2022.2.4,Win32,120.0192031,,,,,,,,,,,,,,,,,,,,,,,,,,,,,,,,,,,,,,,,,,,0.022364217,0.245473892,1,0,0,.AAR..,.AAR..,0,11,11,16,1,daarheen,images/br_daarheen.png,images/cb_daarheen.png
,,,,,,00077,2023-10-26_12h15.20.225,vbt_B1_day1,2022.2.4,Win32,120.0192031,,,,,,,,,,,,,,,,,,,,,,,,,,,,,,,,,,,,,,,,,,,0.022364217,0.245473892,1,0,0,..RR..R,..RR..R,0,12,12,39,1,voorreur,images/br_voorreur.png,images/cb_voorreur.png
,,,,,,00077,2023-10-26_12h15.20.225,vbt_B1_day1,2022.2.4,Win32,120.0192031,,,,,,,,,,,,,,,,,,,,,,,,,,,,,,,,,,,,,,,,,,,0.022364217,0.245473892,1,0,0,,,0,13,13,3,1,mand,images/br_mand.png,images/cb_mand.png
,,,,,,00077,2023-10-26_12h15.20.225,vbt_B1_day1,2022.2.4,Win32,120.0192031,,,,,,,,,,,,,,,,,,,,,,,,,,,,,,,,,,,,,,,,,,,0.022364217,0.245473892,1,0,0,L...,L...,0,14,14,47,1,loods,images/br_loods.png,images/cb_loods.png
,,,,,,00077,2023-10-26_12h15.20.225,vbt_B1_day1,2022.2.4,Win32,120.0192031,,,,,,,,,,,,,,,,,,,,,,,,,,,,,,,,,,,,,,,,,,,0.022364217,0.245473892,1,0,0,ATTI...,ATTI...,0,15,15,17,1,attentie,images/br_attentie.png,images/cb_attentie.png
,,,,,,00077,2023-10-26_12h15.20.225,vbt_B1_day1,2022.2.4,Win32,120.0192031,,,,,,,,,,,,,,,,,,,,,,,,,,,,,,,,,,,,,,,,,,,0.022364217,0.245473892,1,0,0,,,0,16,16,13,1,twijfel,images/br_twijfel.png,images/cb_twijfel.png
,,,,,,00077,2023-10-26_12h15.20.225,vbt_B1_day1,2022.2.4,Win32,120.0192031,,,,,,,,,,,,,,,,,,,,,,,,,,,,,,,,,,,,,,,,,,,0.022364217,0.245473892,1,0,0,ree...,ree...,0,17,17,30,1,reedje,images/br_reedje.png,images/cb_reedje.png
,,,,,,00077,2023-10-26_12h15.20.225,vbt_B1_day1,2022.2.4,Win32,120.0192031,,,,,,,,,,,,,,,,,,,,,,,,,,,,,,,,,,,,,,,,,,,0.022364217,0.245473892,1,0,0,.lee.,.lee.,0,18,18,6,1,bleek,images/br_bleek.png,images/cb_bleek.png
,,,,,,00077,2023-10-26_12h15.20.225,vbt_B1_day1,2022.2.4,Win32,120.0192031,,,,,,,,,,,,,,,,,,,,,,,,,,,,,,,,,,,,,,,,,,,0.022364217,0.245473892,1,0,0,,,0,19,19,35,1,stuikem,images/br_stuikem.png,images/cb_stuikem.png
,,,,,,00077,2023-10-26_12h15.20.225,vbt_B1_day1,2022.2.4,Win32,120.0192031,,,,,,,,,,,,,,,,,,,,,,,,,,,,,,,,,,,,,,,,,,,0.022364217,0.245473892,1,0,0,,,0,20,20,52,1,zuiplap,images/br_zuiplap.png,images/cb_zuiplap.png
,,,,,,00077,2023-10-26_12h15.20.225,vbt_B1_day1,2022.2.4,Win32,120.0192031,,,,,,,,,,,,,,,,,,,,,,,,,,,,,,,,,,,,,,,,,,,0.022364217,0.245473892,1,0,0,lie.e.,lie.e.,0,21,21,50,1,liegen,images/br_liegen.png,images/cb_liegen.png
,,,,,,00077,2023-10-26_12h15.20.225,vbt_B1_day1,2022.2.4,Win32,120.0192031,,,,,,,,,,,,,,,,,,,,,,,,,,,,,,,,,,,,,,,,,,,0.022364217,0.245473892,1,0,0,...aa.,...aa.,0,22,22,32,1,opplaan,images/br_opplaan.png,images/cb_opplaan.png
,,,,,,00077,2023-10-26_12h15.20.225,vbt_B1_day1,2022.2.4,Win32,120.0192031,,,,,,,,,,,,,,,,,,,,,,,,,,,,,,,,,,,,,,,,,,,0.022364217,0.245473892,1,0,0,,,0,23,23,22,1,knoe,images/br_knoe.png,images/cb_knoe.png
,,,,,,00077,2023-10-26_12h15.20.225,vbt_B1_day1,2022.2.4,Win32,120.0192031,,,,,,,,,,,,,,,,,,,,,,,,,,,,,,,,,,,,,,,,,,,0.022364217,0.245473892,1,0,0,leve.,leve.,0,24,24,46,1,lezen,images/br_lezen.png,images/cb_lezen.png
,,,,,,00077,2023-10-26_12h15.20.225,vbt_B1_day1,2022.2.4,Win32,120.0192031,,,,,,,,,,,,,,,,,,,,,,,,,,,,,,,,,,,,,,,,,,,0.022364217,0.245473892,1,0,0,.e.el,.e.el,0,25,25,45,1,hemel,images/br_hemel.png,images/cb_hemel.png
,,,,,,00077,2023-10-26_12h15.20.225,vbt_B1_day1,2022.2.4,Win32,120.0192031,,,,,,,,,,,,,,,,,,,,,,,,,,,,,,,,,,,,,,,,,,,0.022364217,0.245473892,1,0,0,ka...,ka...,0,26,26,8,1,kanjer,images/br_kanjer.png,images/cb_kanjer.png
,,,,,,00077,2023-10-26_12h15.20.225,vbt_B1_day1,2022.2.4,Win32,120.0192031,,,,,,,,,,,,,,,,,,,,,,,,,,,,,,,,,,,,,,,,,,,0.022364217,0.245473892,1,0,0,l,l,0,27,27,34,1,lochten,images/br_lochten.png,images/cb_lochten.png
,,,,,,00077,2023-10-26_12h15.20.225,vbt_B1_day1,2022.2.4,Win32,120.0192031,,,,,,,,,,,,,,,,,,,,,,,,,,,,,,,,,,,,,,,,,,,0.022364217,0.245473892,1,0,0,kle...,kle...,0,28,28,12,1,klimmen,images/br_klimmen.png,images/cb_klimmen.png
,,,,,,00077,2023-10-26_12h15.20.225,vbt_B1_day1,2022.2.4,Win32,120.0192031,,,,,,,,,,,,,,,,,,,,,,,,,,,,,,,,,,,,,,,,,,,0.022364217,0.245473892,1,0,0,.c.....,.c.....,0,29,29,38,1,schielen,images/br_schielen.png,images/cb_schielen.png
,,,,,,00077,2023-10-26_12h15.20.225,vbt_B1_day1,2022.2.4,Win32,120.0192031,,,,,,,,,,,,,,,,,,,,,,,,,,,,,,,,,,,,,,,,,,,0.022364217,0.245473892,1,0,0,.oo...,.oo...,0,30,30,58,1,voorkeur,images/br_voorkeur.png,images/cb_voorkeur.png
,,,,,,00077,2023-10-26_12h15.20.225,vbt_B1_day1,2022.2.4,Win32,120.0192031,,,,,,,,,,,,,,,,,,,,,,,,,,,,,,,,,,,,,,,,,,,0.022364217,0.245473892,1,0,0,.t....,.t....,0,31,31,31,1,stamen,images/br_stamen.png,images/cb_stamen.png
,,,,,,00077,2023-10-26_12h15.20.225,vbt_B1_day1,2022.2.4,Win32,120.0192031,,,,,,,,,,,,,,,,,,,,,,,,,,,,,,,,,,,,,,,,,,,0.022364217,0.245473892,1,0,0,.ie.,.ie.,0,32,32,40,1,dief,images/br_dief.png,images/cb_dief.png
,,,,,,00077,2023-10-26_12h15.20.225,vbt_B1_day1,2022.2.4,Win32,120.0192031,,,,,,,,,,,,,,,,,,,,,,,,,,,,,,,,,,,,,,,,,,,0.022364217,0.245473892,1,0,0,.c..p,.c..p,0,33,33,4,1,schep,images/br_schep.png,images/cb_schep.png
,,,,,,00077,2023-10-26_12h15.20.225,vbt_B1_day1,2022.2.4,Win32,120.0192031,,,,,,,,,,,,,,,,,,,,,,,,,,,,,,,,,,,,,,,,,,,0.019169329,0.245473892,1,0,0,.ak..,.ak..,0,34,34,5,1,maken,images/br_maken.png,images/cb_maken.png
,,,,,,00077,2023-10-26_12h15.20.225,vbt_B1_day1,2022.2.4,Win32,120.0192031,,,,,,,,,,,,,,,,,,,,,,,,,,,,,,,,,,,,,,,,,,,0.019169329,0.245473892,1,0,0,.ie...Ak,.ie...Ak,0,35,35,15,1,hiervan,images/br_hiervan.png,images/cb_hiervan.png
,,,,,,00077,2023-10-26_12h15.20.225,vbt_B1_day1,2022.2.4,Win32,120.0192031,,,,,,,,,,,,,,,,,,,,,,,,,,,,,,,,,,,,,,,,,,,0.019169329,0.245473892,1,0,0,.aar...,.aar...,0,36,36,14,1,waarvan,images/br_waarvan.png,images/cb_waarvan.png
,,,,,,00077,2023-10-26_12h15.20.225,vbt_B1_day1,2022.2.4,Win32,120.0192031,,,,,,,,,,,,,,,,,,,,,,,,,,,,,,,,,,,,,,,,,,,0.019169329,0.245473892,1,0,0,,,0,37,37,57,1,meenemen,images/br_meenemen.png,images/cb_meenemen.png
,,,,,,00077,2023-10-26_12h15.20.225,vbt_B1_day1,2022.2.4,Win32,120.0192031,,,,,,,,,,,,,,,,,,,,,,,,,,,,,,,,,,,,,,,,,,,0.019169329,0.245473892,1,0,0,,,0,38,38,48,1,fictie,images/br_fictie.png,images/cb_fictie.png
,,,,,,00077,2023-10-26_12h15.20.225,vbt_B1_day1,2022.2.4,Win32,120.0192031,,,,,,,,,,,,,,,,,,,,,,,,,,,,,,,,,,,,,,,,,,,0.019169329,0.245473892,1,0,0,rekenen,rekenen,0,39,39,55,1,tekenen,images/br_tekenen.png,images/cb_tekenen.png
,,,,,,00077,2023-10-26_12h15.20.225,vbt_B1_day1,2022.2.4,Win32,120.0192031,,,,,,,,,,,,,,,,,,,,,,,,,,,,,,,,,,,,,,,,,,,0.019169329,0.245473892,1,0,0,ge...,ge...,0,40,40,29,1,genond,images/br_genond.png,images/cb_genond.png
,,,,,,00077,2023-10-26_12h15.20.225,vbt_B1_day1,2022.2.4,Win32,120.0192031,,,,,,,,,,,,,,,,,,,,,,,,,,,,,,,,,,,,,,,,,,,0.014909543,0.255058557,1,0,0,,,0,41,41,36,1,vervaden,images/br_vervaden.png,images/cb_vervaden.png
,,,,,,00077,2023-10-26_12h15.20.225,vbt_B1_day1,2022.2.4,Win32,120.0192031,,,,,,,,,,,,,,,,,,,,,,,,,,,,,,,,,,,,,,,,,,,-0.009584665,0.23375931,1,0,0,b..r,b..r,0,42,42,2,1,jaar,images/br_jaar.png,images/cb_jaar.png
,,,,,,00077,2023-10-26_12h15.20.225,vbt_B1_day1,2022.2.4,Win32,120.0192031,,,,,,,,,,,,,,,,,,,,,,,,,,,,,,,,,,,,,,,,,,,-0.010649562,0.232694339,1,0,0,boog,boog,0,43,43,41,1,hoog,images/br_hoog.png,images/cb_hoog.png
,,,,,,00077,2023-10-26_12h15.20.225,vbt_B1_day1,2022.2.4,Win32,120.0192031,,,,,,,,,,,,,,,,,,,,,,,,,,,,,,,,,,,,,,,,,,,-0.010649562,0.232694339,1,0,0,bri,bri,0,44,44,21,1,dred,images/br_dred.png,images/cb_dred.png
,,,,,,00077,2023-10-26_12h15.20.225,vbt_B1_day1,2022.2.4,Win32,120.0192031,,,,,,,,,,,,,,,,,,,,,,,,,,,,,,,,,,,,,,,,,,,-0.010649562,0.232694339,1,0,0,..iek,..iek,0,45,45,10,1,muziek,images/br_muziek.png,images/cb_muziek.png
,,,,,,00077,2023-10-26_12h15.20.225,vbt_B1_day1,2022.2.4,Win32,120.0192031,,,,,,,,,,,,,,,,,,,,,,,,,,,,,,,,,,,,,,,,,,,-0.010649562,0.232694339,1,0,0,.L.K,.L.K,0,46,46,0,1,slak,images/br_slak.png,images/cb_slak.png
,,,,,,00077,2023-10-26_12h15.20.225,vbt_B1_day1,2022.2.4,Win32,120.0192031,,,,,,,,,,,,,,,,,,,,,,,,,,,,,,,,,,,,,,,,,,,-0.010649562,0.232694339,1,0,0,,,0,47,47,59,1,opvatten,images/br_opvatten.png,images/cb_opvatten.png
,,,,,,00077,2023-10-26_12h15.20.225,vbt_B1_day1,2022.2.4,Win32,120.0192031,,,,,,,,,,,,,,,,,,,,,,,,,,,,,,,,,,,,,,,,,,,-0.010649562,0.232694339,1,0,0,,,0,48,48,11,1,mening,images/br_mening.png,images/cb_mening.png
,,,,,,00077,2023-10-26_12h15.20.225,vbt_B1_day1,2022.2.4,Win32,120.0192031,,,,,,,,,,,,,,,,,,,,,,,,,,,,,,,,,,,,,,,,,,,-0.010649562,0.232694339,1,0,0,.R.R..,.R.R..,0,49,49,27,1,prort,images/br_prort.png,images/cb_prort.png
,,,,,,00077,2023-10-26_12h15.20.225,vbt_B1_day1,2022.2.4,Win32,120.0192031,,,,,,,,,,,,,,,,,,,,,,,,,,,,,,,,,,,,,,,,,,,-0.010649562,0.232694339,1,0,0,,,0,50,50,18,1,uitdelen,images/br_uitdelen.png,images/cb_uitdelen.png
,,,,,,00077,2023-10-26_12h15.20.225,vbt_B1_day1,2022.2.4,Win32,120.0192031,,,,,,,,,,,,,,,,,,,,,,,,,,,,,,,,,,,,,,,,,,,-0.010649562,0.232694339,1,0,0,,,0,51,51,19,1,schuilen,images/br_schuilen.png,images/cb_schuilen.png
,,,,,,00077,2023-10-26_12h15.20.225,vbt_B1_day1,2022.2.4,Win32,120.0192031,,,,,,,,,,,,,,,,,,,,,,,,,,,,,,,,,,,,,,,,,,,-0.010649562,0.232694339,1,0,0,,,0,52,52,37,1,spanzing,images/br_spanzing.png,images/cb_spanzing.png
,,,,,,00077,2023-10-26_12h15.20.225,vbt_B1_day1,2022.2.4,Win32,120.0192031,,,,,,,,,,,,,,,,,,,,,,,,,,,,,,,,,,,,,,,,,,,-0.010649562,0.232694339,1,0,0,,,0,53,53,56,1,toezicht,images/br_toezicht.png,images/cb_toezicht.png
,,,,,,00077,2023-10-26_12h15.20.225,vbt_B1_day1,2022.2.4,Win32,120.0192031,,,,,,,,,,,,,,,,,,,,,,,,,,,,,,,,,,,,,,,,,,,-0.010649562,0.232694339,1,0,0,...L..,...L..,0,54,54,53,1,opslaan,images/br_opslaan.png,images/cb_opslaan.png
,,,,,,00077,2023-10-26_12h15.20.225,vbt_B1_day1,2022.2.4,Win32,120.0192031,,,,,,,,,,,,,,,,,,,,,,,,,,,,,,,,,,,,,,,,,,,-0.010649562,0.232694339,1,0,0,...E,...E,0,55,55,23,1,booi,images/br_booi.png,images/cb_booi.png
,,,,,,00077,2023-10-26_12h15.20.225,vbt_B1_day1,2022.2.4,Win32,120.0192031,,,,,,,,,,,,,,,,,,,,,,,,,,,,,,,,,,,,,,,,,,,-0.010649562,0.232694339,1,0,0,....EL,....EL,0,56,56,9,1,dubbel,images/br_dubbel.png,images/cb_dubbel.png
,,,,,,00077,2023-10-26_12h15.20.225,vbt_B1_day1,2022.2.4,Win32,120.0192031,,,,,,,,,,,,,,,,,,,,,,,,,,,,,,,,,,,,,,,,,,,-0.010649562,0.232694339,1,0,0,.T..,.T..,0,57,57,42,1,stuk,images/br_stuk.png,images/cb_stuk.png
,,,,,,00077,2023-10-26_12h15.20.225,vbt_B1_day1,2022.2.4,Win32,120.0192031,,,,,,,,,,,,,,,,,,,,,,,,,,,,,,,,,,,,,,,,,,,-0.010649562,0.232694339,1,0,0,LA.A,LA.A,0,58,58,43,1,lava,images/br_lava.png,images/cb_lava.png
,,,,,,00077,2023-10-26_12h15.20.225,vbt_B1_day1,2022.2.4,Win32,120.0192031,,,,,,,,,,,,,,,,,,,,,,,,,,,,,,,,,,,,,,,,,,,-0.010649562,0.232694339,1,0,0,.E....,.E....,0,59,59,54,1,vijftig,images/br_vijftig.png,images/cb_vijftig.png
,,,,,,00077,2023-10-26_12h15.20.225,vbt_B1_day1,2022.2.4,Win32,120.0192031,,,,,,,,,,,,,,,,,,,,,,,,,,,,,,,,,,,,,,,,,,,,,,,,,,,,,,,,,
