welcome_mouse.x,welcome_mouse.y,welcome_mouse.leftButton,welcome_mouse.midButton,welcome_mouse.rightButton,welcome_mouse.time,"ID",date,expName,psychopyVersion,OS,frameRate,mouse_2.x,mouse_2.y,mouse_2.leftButton,mouse_2.midButton,mouse_2.rightButton,mouse_2.time,mouse_3.x,mouse_3.y,mouse_3.leftButton,mouse_3.midButton,mouse_3.rightButton,mouse_3.time,train_mouse.x,train_mouse.y,train_mouse.leftButton,train_mouse.midButton,train_mouse.rightButton,train_mouse.time,braille_mouse.x,braille_mouse.y,braille_mouse.leftButton,braille_mouse.midButton,braille_mouse.rightButton,braille_mouse.time,trials.thisRepN,trials.thisTrialN,trials.thisN,trials.thisIndex,trials.ran,nlLet,brLet,cbLet,mouse.x,mouse.y,mouse.leftButton,mouse.midButton,mouse.rightButton,testInstr_mouse.x,testInstr_mouse.y,testInstr_mouse.leftButton,testInstr_mouse.midButton,testInstr_mouse.rightButton,test_mouse.x,test_mouse.y,test_mouse.leftButton,test_mouse.midButton,test_mouse.rightButton,test_response.text,testResp,test_loop.thisRepN,test_loop.thisTrialN,test_loop.thisN,test_loop.thisIndex,test_loop.ran,nlWrd,brWrd,cbWrd
0.237394253,-0.025164922,1,0,0,22.9574,00026,2023-09-03_09h16.50.941,vbt_B1_day1,2022.2.4,Linux x86_64,60.02040694,,,,,,,,,,,,,,,,,,,,,,,,,,,,,,,,,,,,,,,,,,,,,,,,,,,,,,,,,
,,,,,,00026,2023-09-03_09h16.50.941,vbt_B1_day1,2022.2.4,Linux x86_64,60.02040694,0.21056811,-0.106298963,1,0,0,24.0939,,,,,,,,,,,,,,,,,,,,,,,,,,,,,,,,,,,,,,,,,,,,,,,,,,,
,,,,,,00026,2023-09-03_09h16.50.941,vbt_B1_day1,2022.2.4,Linux x86_64,60.02040694,,,,,,,0.333652417,-0.113053918,1,0,0,66.3482,,,,,,,,,,,,,,,,,,,,,,,,,,,,,,,,,,,,,,,,,,,,,
,,,,,,00026,2023-09-03_09h16.50.941,vbt_B1_day1,2022.2.4,Linux x86_64,60.02040694,,,,,,,,,,,,,0.246998469,-0.202390512,1,0,0,22.3171,,,,,,,,,,,,,,,,,,,,,,,,,,,,,,,,,,,,,,,
,,,,,,00026,2023-09-03_09h16.50.941,vbt_B1_day1,2022.2.4,Linux x86_64,60.02040694,,,,,,,,,,,,,,,,,,,0.208221038,-0.063693007,1,0,0,5.5641,0,0,0,4,1,e,images/br_e.png,images/cb_e.png,,,,,,,,,,,,,,,,,,,,,,,,,
,,,,,,00026,2023-09-03_09h16.50.941,vbt_B1_day1,2022.2.4,Linux x86_64,60.02040694,,,,,,,,,,,,,,,,,,,0.20880278,-0.054383834,1,0,0,5.364,0,1,1,13,1,n,images/br_n.png,images/cb_n.png,,,,,,,,,,,,,,,,,,,,,,,,,
,,,,,,00026,2023-09-03_09h16.50.941,vbt_B1_day1,2022.2.4,Linux x86_64,60.02040694,,,,,,,,,,,,,,,,,,,0.183603923,-0.058675448,1,0,0,8.3298,0,2,2,12,1,m,images/br_m.png,images/cb_m.png,,,,,,,,,,,,,,,,,,,,,,,,,
,,,,,,00026,2023-09-03_09h16.50.941,vbt_B1_day1,2022.2.4,Linux x86_64,60.02040694,,,,,,,,,,,,,,,,,,,0.183603923,-0.058529973,1,0,0,12.1606,0,3,3,7,1,h,images/br_h.png,images/cb_h.png,,,,,,,,,,,,,,,,,,,,,,,,,
,,,,,,00026,2023-09-03_09h16.50.941,vbt_B1_day1,2022.2.4,Linux x86_64,60.02040694,,,,,,,,,,,,,,,,,,,0.217577378,-0.106116255,1,0,0,5.5966,0,4,4,2,1,c,images/br_c.png,images/cb_c.png,,,,,,,,,,,,,,,,,,,,,,,,,
,,,,,,00026,2023-09-03_09h16.50.941,vbt_B1_day1,2022.2.4,Linux x86_64,60.02040694,,,,,,,,,,,,,,,,,,,0.220049779,-0.105534434,1,0,0,7.6967,0,5,5,9,1,j,images/br_j.png,images/cb_j.png,,,,,,,,,,,,,,,,,,,,,,,,,
,,,,,,00026,2023-09-03_09h16.50.941,vbt_B1_day1,2022.2.4,Linux x86_64,60.02040694,,,,,,,,,,,,,,,,,,,0.223976692,-0.098843495,1,0,0,4.5145,0,6,6,15,1,p,images/br_p.png,images/cb_p.png,,,,,,,,,,,,,,,,,,,,,,,,,
,,,,,,00026,2023-09-03_09h16.50.941,vbt_B1_day1,2022.2.4,Linux x86_64,60.02040694,,,,,,,,,,,,,,,,,,,0.223976692,-0.098843495,1,0,0,5.131,0,7,7,5,1,f,images/br_f.png,images/cb_f.png,,,,,,,,,,,,,,,,,,,,,,,,,
,,,,,,00026,2023-09-03_09h16.50.941,vbt_B1_day1,2022.2.4,Linux x86_64,60.02040694,,,,,,,,,,,,,,,,,,,0.223976692,-0.098843495,1,0,0,4.4821,0,8,8,3,1,d,images/br_d.png,images/cb_d.png,,,,,,,,,,,,,,,,,,,,,,,,,
,,,,,,00026,2023-09-03_09h16.50.941,vbt_B1_day1,2022.2.4,Linux x86_64,60.02040694,,,,,,,,,,,,,,,,,,,0.223976692,-0.097679853,1,0,0,14.5097,0,9,9,22,1,w,images/br_w.png,images/cb_w.png,,,,,,,,,,,,,,,,,,,,,,,,,
,,,,,,00026,2023-09-03_09h16.50.941,vbt_B1_day1,2022.2.4,Linux x86_64,60.02040694,,,,,,,,,,,,,,,,,,,0.241819064,-0.085655808,1,0,0,3.1817,0,10,10,0,1,a,images/br_a.png,images/cb_a.png,,,,,,,,,,,,,,,,,,,,,,,,,
,,,,,,00026,2023-09-03_09h16.50.941,vbt_B1_day1,2022.2.4,Linux x86_64,60.02040694,,,,,,,,,,,,,,,,,,,0.223215103,-0.126517932,1,0,0,4.4144,0,11,11,16,1,q,images/br_q.png,images/cb_q.png,,,,,,,,,,,,,,,,,,,,,,,,,
,,,,,,00026,2023-09-03_09h16.50.941,vbt_B1_day1,2022.2.4,Linux x86_64,60.02040694,,,,,,,,,,,,,,,,,,,0.224960327,-0.12535425,1,0,0,6.9809,0,12,12,14,1,o,images/br_o.png,images/cb_o.png,,,,,,,,,,,,,,,,,,,,,,,,,
,,,,,,00026,2023-09-03_09h16.50.941,vbt_B1_day1,2022.2.4,Linux x86_64,60.02040694,,,,,,,,,,,,,,,,,,,0.224669456,-0.120990515,1,0,0,2.1319,0,13,13,20,1,u,images/br_u.png,images/cb_u.png,,,,,,,,,,,,,,,,,,,,,,,,,
,,,,,,00026,2023-09-03_09h16.50.941,vbt_B1_day1,2022.2.4,Linux x86_64,60.02040694,,,,,,,,,,,,,,,,,,,0.224669456,-0.120990515,1,0,0,2.4815,0,14,14,25,1,z,images/br_z.png,images/cb_z.png,,,,,,,,,,,,,,,,,,,,,,,,,
,,,,,,00026,2023-09-03_09h16.50.941,vbt_B1_day1,2022.2.4,Linux x86_64,60.02040694,,,,,,,,,,,,,,,,,,,0.21513025,-0.141514421,1,0,0,4.398,0,15,15,10,1,k,images/br_k.png,images/cb_k.png,,,,,,,,,,,,,,,,,,,,,,,,,
,,,,,,00026,2023-09-03_09h16.50.941,vbt_B1_day1,2022.2.4,Linux x86_64,60.02040694,,,,,,,,,,,,,,,,,,,0.21513025,-0.141514421,1,0,0,1.6653,0,16,16,21,1,v,images/br_v.png,images/cb_v.png,,,,,,,,,,,,,,,,,,,,,,,,,
,,,,,,00026,2023-09-03_09h16.50.941,vbt_B1_day1,2022.2.4,Linux x86_64,60.02040694,,,,,,,,,,,,,,,,,,,0.21513025,-0.141514421,1,0,0,1.5658,0,17,17,1,1,b,images/br_b.png,images/cb_b.png,,,,,,,,,,,,,,,,,,,,,,,,,
,,,,,,00026,2023-09-03_09h16.50.941,vbt_B1_day1,2022.2.4,Linux x86_64,60.02040694,,,,,,,,,,,,,,,,,,,0.21513025,-0.141514421,1,0,0,1.5491,0,18,18,19,1,t,images/br_t.png,images/cb_t.png,,,,,,,,,,,,,,,,,,,,,,,,,
,,,,,,00026,2023-09-03_09h16.50.941,vbt_B1_day1,2022.2.4,Linux x86_64,60.02040694,,,,,,,,,,,,,,,,,,,0.21513025,-0.141514421,1,0,0,2.2977,0,19,19,11,1,l,images/br_l.png,images/cb_l.png,,,,,,,,,,,,,,,,,,,,,,,,,
,,,,,,00026,2023-09-03_09h16.50.941,vbt_B1_day1,2022.2.4,Linux x86_64,60.02040694,,,,,,,,,,,,,,,,,,,0.21513025,-0.141514421,1,0,0,1.833,0,20,20,6,1,g,images/br_g.png,images/cb_g.png,,,,,,,,,,,,,,,,,,,,,,,,,
,,,,,,00026,2023-09-03_09h16.50.941,vbt_B1_day1,2022.2.4,Linux x86_64,60.02040694,,,,,,,,,,,,,,,,,,,0.21513025,-0.141514421,1,0,0,1.7825,0,21,21,23,1,x,images/br_x.png,images/cb_x.png,,,,,,,,,,,,,,,,,,,,,,,,,
,,,,,,00026,2023-09-03_09h16.50.941,vbt_B1_day1,2022.2.4,Linux x86_64,60.02040694,,,,,,,,,,,,,,,,,,,0.21513025,-0.141514421,1,0,0,1.3992,0,22,22,8,1,i,images/br_i.png,images/cb_i.png,,,,,,,,,,,,,,,,,,,,,,,,,
,,,,,,00026,2023-09-03_09h16.50.941,vbt_B1_day1,2022.2.4,Linux x86_64,60.02040694,,,,,,,,,,,,,,,,,,,0.21513025,-0.141514421,1,0,0,2.6662,0,23,23,17,1,r,images/br_r.png,images/cb_r.png,,,,,,,,,,,,,,,,,,,,,,,,,
,,,,,,00026,2023-09-03_09h16.50.941,vbt_B1_day1,2022.2.4,Linux x86_64,60.02040694,,,,,,,,,,,,,,,,,,,0.21513025,-0.141514421,1,0,0,1.949,0,24,24,24,1,y,images/br_y.png,images/cb_y.png,,,,,,,,,,,,,,,,,,,,,,,,,
,,,,,,00026,2023-09-03_09h16.50.941,vbt_B1_day1,2022.2.4,Linux x86_64,60.02040694,,,,,,,,,,,,,,,,,,,0.21513025,-0.141514421,1,0,0,2.3328,0,25,25,18,1,s,images/br_s.png,images/cb_s.png,,,,,,,,,,,,,,,,,,,,,,,,,
,,,,,,00026,2023-09-03_09h16.50.941,vbt_B1_day1,2022.2.4,Linux x86_64,60.02040694,,,,,,,,,,,,,,,,,,,0.21513025,-0.141514421,1,0,0,2.5659,1,0,26,16,1,q,images/br_q.png,images/cb_q.png,,,,,,,,,,,,,,,,,,,,,,,,,
,,,,,,00026,2023-09-03_09h16.50.941,vbt_B1_day1,2022.2.4,Linux x86_64,60.02040694,,,,,,,,,,,,,,,,,,,0.21513025,-0.141514421,1,0,0,2.4819,1,1,27,21,1,v,images/br_v.png,images/cb_v.png,,,,,,,,,,,,,,,,,,,,,,,,,
,,,,,,00026,2023-09-03_09h16.50.941,vbt_B1_day1,2022.2.4,Linux x86_64,60.02040694,,,,,,,,,,,,,,,,,,,0.21513025,-0.141514421,1,0,0,0.6329,1,2,28,7,1,h,images/br_h.png,images/cb_h.png,,,,,,,,,,,,,,,,,,,,,,,,,
,,,,,,00026,2023-09-03_09h16.50.941,vbt_B1_day1,2022.2.4,Linux x86_64,60.02040694,,,,,,,,,,,,,,,,,,,0.21513025,-0.141514421,1,0,0,0.7664,1,3,29,25,1,z,images/br_z.png,images/cb_z.png,,,,,,,,,,,,,,,,,,,,,,,,,
,,,,,,00026,2023-09-03_09h16.50.941,vbt_B1_day1,2022.2.4,Linux x86_64,60.02040694,,,,,,,,,,,,,,,,,,,0.21513025,-0.141514421,1,0,0,1.1999,1,4,30,13,1,n,images/br_n.png,images/cb_n.png,,,,,,,,,,,,,,,,,,,,,,,,,
,,,,,,00026,2023-09-03_09h16.50.941,vbt_B1_day1,2022.2.4,Linux x86_64,60.02040694,,,,,,,,,,,,,,,,,,,0.172308286,-0.145005345,1,0,0,2.3151,1,5,31,19,1,t,images/br_t.png,images/cb_t.png,,,,,,,,,,,,,,,,,,,,,,,,,
,,,,,,00026,2023-09-03_09h16.50.941,vbt_B1_day1,2022.2.4,Linux x86_64,60.02040694,,,,,,,,,,,,,,,,,,,0.174344381,-0.139187058,1,0,0,0.7766,1,6,32,23,1,x,images/br_x.png,images/cb_x.png,,,,,,,,,,,,,,,,,,,,,,,,,
,,,,,,00026,2023-09-03_09h16.50.941,vbt_B1_day1,2022.2.4,Linux x86_64,60.02040694,,,,,,,,,,,,,,,,,,,0.174344381,-0.139187058,1,0,0,0.1502,1,7,33,4,1,e,images/br_e.png,images/cb_e.png,,,,,,,,,,,,,,,,,,,,,,,,,
,,,,,,00026,2023-09-03_09h16.50.941,vbt_B1_day1,2022.2.4,Linux x86_64,60.02040694,,,,,,,,,,,,,,,,,,,0.080009778,-0.095115185,1,0,0,1.4663,1,8,34,17,1,r,images/br_r.png,images/cb_r.png,,,,,,,,,,,,,,,,,,,,,,,,,
,,,,,,00026,2023-09-03_09h16.50.941,vbt_B1_day1,2022.2.4,Linux x86_64,60.02040694,,,,,,,,,,,,,,,,,,,0.081173261,-0.093078812,1,0,0,0.2668,1,9,35,18,1,s,images/br_s.png,images/cb_s.png,,,,,,,,,,,,,,,,,,,,,,,,,
,,,,,,00026,2023-09-03_09h16.50.941,vbt_B1_day1,2022.2.4,Linux x86_64,60.02040694,,,,,,,,,,,,,,,,,,,0.081173261,-0.093078812,1,0,0,1.2498,1,10,36,11,1,l,images/br_l.png,images/cb_l.png,,,,,,,,,,,,,,,,,,,,,,,,,
,,,,,,00026,2023-09-03_09h16.50.941,vbt_B1_day1,2022.2.4,Linux x86_64,60.02040694,,,,,,,,,,,,,,,,,,,0.081173261,-0.093078812,1,0,0,2.7158,1,11,37,1,1,b,images/br_b.png,images/cb_b.png,,,,,,,,,,,,,,,,,,,,,,,,,
,,,,,,00026,2023-09-03_09h16.50.941,vbt_B1_day1,2022.2.4,Linux x86_64,60.02040694,,,,,,,,,,,,,,,,,,,0.081173261,-0.093078812,1,0,0,1.3331,1,12,38,24,1,y,images/br_y.png,images/cb_y.png,,,,,,,,,,,,,,,,,,,,,,,,,
,,,,,,00026,2023-09-03_09h16.50.941,vbt_B1_day1,2022.2.4,Linux x86_64,60.02040694,,,,,,,,,,,,,,,,,,,0.074774106,-0.095987916,1,0,0,1.2662,1,13,39,3,1,d,images/br_d.png,images/cb_d.png,,,,,,,,,,,,,,,,,,,,,,,,,
,,,,,,00026,2023-09-03_09h16.50.941,vbt_B1_day1,2022.2.4,Linux x86_64,60.02040694,,,,,,,,,,,,,,,,,,,0.074774106,-0.095987916,1,0,0,0.2347,1,14,40,22,1,w,images/br_w.png,images/cb_w.png,,,,,,,,,,,,,,,,,,,,,,,,,
,,,,,,00026,2023-09-03_09h16.50.941,vbt_B1_day1,2022.2.4,Linux x86_64,60.02040694,,,,,,,,,,,,,,,,,,,0.002453645,-0.020725091,1,0,0,1.3997,1,15,41,5,1,f,images/br_f.png,images/cb_f.png,,,,,,,,,,,,,,,,,,,,,,,,,
,,,,,,00026,2023-09-03_09h16.50.941,vbt_B1_day1,2022.2.4,Linux x86_64,60.02040694,,,,,,,,,,,,,,,,,,,0.007177671,-0.029504776,1,0,0,0.6838,1,16,42,15,1,p,images/br_p.png,images/cb_p.png,,,,,,,,,,,,,,,,,,,,,,,,,
,,,,,,00026,2023-09-03_09h16.50.941,vbt_B1_day1,2022.2.4,Linux x86_64,60.02040694,,,,,,,,,,,,,,,,,,,0.007177671,-0.029504776,1,0,0,1.6498,1,17,43,6,1,g,images/br_g.png,images/cb_g.png,,,,,,,,,,,,,,,,,,,,,,,,,
,,,,,,00026,2023-09-03_09h16.50.941,vbt_B1_day1,2022.2.4,Linux x86_64,60.02040694,,,,,,,,,,,,,,,,,,,0.034172853,-0.053638697,1,0,0,1.5991,1,18,44,0,1,a,images/br_a.png,images/cb_a.png,,,,,,,,,,,,,,,,,,,,,,,,,
,,,,,,00026,2023-09-03_09h16.50.941,vbt_B1_day1,2022.2.4,Linux x86_64,60.02040694,,,,,,,,,,,,,,,,,,,-0.004672607,-0.040767074,1,0,0,0.9336,1,19,45,8,1,i,images/br_i.png,images/cb_i.png,,,,,,,,,,,,,,,,,,,,,,,,,
,,,,,,00026,2023-09-03_09h16.50.941,vbt_B1_day1,2022.2.4,Linux x86_64,60.02040694,,,,,,,,,,,,,,,,,,,-0.000872374,-0.214273771,1,0,0,0.2345,1,20,46,12,1,m,images/br_m.png,images/cb_m.png,,,,,,,,,,,,,,,,,,,,,,,,,
,,,,,,00026,2023-09-03_09h16.50.941,vbt_B1_day1,2022.2.4,Linux x86_64,60.02040694,,,,,,,,,,,,,,,,,,,0.001454592,-0.209619602,1,0,0,1.1507,1,21,47,10,1,k,images/br_k.png,images/cb_k.png,,,,,,,,,,,,,,,,,,,,,,,,,
,,,,,,00026,2023-09-03_09h16.50.941,vbt_B1_day1,2022.2.4,Linux x86_64,60.02040694,,,,,,,,,,,,,,,,,,,0.001454592,-0.209619602,1,0,0,0.7495,1,22,48,14,1,o,images/br_o.png,images/cb_o.png,,,,,,,,,,,,,,,,,,,,,,,,,
,,,,,,00026,2023-09-03_09h16.50.941,vbt_B1_day1,2022.2.4,Linux x86_64,60.02040694,,,,,,,,,,,,,,,,,,,0.001454592,-0.209619602,1,0,0,2.5319,1,23,49,2,1,c,images/br_c.png,images/cb_c.png,,,,,,,,,,,,,,,,,,,,,,,,,
,,,,,,00026,2023-09-03_09h16.50.941,vbt_B1_day1,2022.2.4,Linux x86_64,60.02040694,,,,,,,,,,,,,,,,,,,0.051642259,-0.086936315,1,0,0,3.1659,1,24,50,9,1,j,images/br_j.png,images/cb_j.png,,,,,,,,,,,,,,,,,,,,,,,,,
,,,,,,00026,2023-09-03_09h16.50.941,vbt_B1_day1,2022.2.4,Linux x86_64,60.02040694,,,,,,,,,,,,,,,,,,,0.059787512,-0.095372518,1,0,0,0.4997,1,25,51,20,1,u,images/br_u.png,images/cb_u.png,,,,,,,,,,,,,,,,,,,,,,,,,
,,,,,,00026,2023-09-03_09h16.50.941,vbt_B1_day1,2022.2.4,Linux x86_64,60.02040694,,,,,,,,,,,,,,,,,,,0.044527531,-0.127279997,1,0,0,2.2651,2,0,52,10,1,k,images/br_k.png,images/cb_k.png,,,,,,,,,,,,,,,,,,,,,,,,,
,,,,,,00026,2023-09-03_09h16.50.941,vbt_B1_day1,2022.2.4,Linux x86_64,60.02040694,,,,,,,,,,,,,,,,,,,0.045400063,-0.121170759,1,0,0,0.6662,2,1,53,20,1,u,images/br_u.png,images/cb_u.png,,,,,,,,,,,,,,,,,,,,,,,,,
,,,,,,00026,2023-09-03_09h16.50.941,vbt_B1_day1,2022.2.4,Linux x86_64,60.02040694,,,,,,,,,,,,,,,,,,,0.025328477,-0.097607374,1,0,0,1.9318,2,2,54,17,1,r,images/br_r.png,images/cb_r.png,,,,,,,,,,,,,,,,,,,,,,,,,
,,,,,,00026,2023-09-03_09h16.50.941,vbt_B1_day1,2022.2.4,Linux x86_64,60.02040694,,,,,,,,,,,,,,,,,,,0.054707607,-0.110698144,1,0,0,3.7994,2,3,55,2,1,c,images/br_c.png,images/cb_c.png,,,,,,,,,,,,,,,,,,,,,,,,,
,,,,,,00026,2023-09-03_09h16.50.941,vbt_B1_day1,2022.2.4,Linux x86_64,60.02040694,,,,,,,,,,,,,,,,,,,0.058198214,-0.101388852,1,0,0,0.9996,2,4,56,25,1,z,images/br_z.png,images/cb_z.png,,,,,,,,,,,,,,,,,,,,,,,,,
,,,,,,00026,2023-09-03_09h16.50.941,vbt_B1_day1,2022.2.4,Linux x86_64,60.02040694,,,,,,,,,,,,,,,,,,,0.067796946,-0.110988895,1,0,0,0.3832,2,5,57,15,1,p,images/br_p.png,images/cb_p.png,,,,,,,,,,,,,,,,,,,,,,,,,
,,,,,,00026,2023-09-03_09h16.50.941,vbt_B1_day1,2022.2.4,Linux x86_64,60.02040694,,,,,,,,,,,,,,,,,,,0.040868998,-0.112548749,1,0,0,0.2846,2,6,58,18,1,s,images/br_s.png,images/cb_s.png,,,,,,,,,,,,,,,,,,,,,,,,,
,,,,,,00026,2023-09-03_09h16.50.941,vbt_B1_day1,2022.2.4,Linux x86_64,60.02040694,,,,,,,,,,,,,,,,,,,0.036372185,-0.059831977,1,0,0,1.1825,2,7,59,4,1,e,images/br_e.png,images/cb_e.png,,,,,,,,,,,,,,,,,,,,,,,,,
,,,,,,00026,2023-09-03_09h16.50.941,vbt_B1_day1,2022.2.4,Linux x86_64,60.02040694,,,,,,,,,,,,,,,,,,,0.03814292,-0.0879668,1,0,0,0.0833,2,8,60,24,1,y,images/br_y.png,images/cb_y.png,,,,,,,,,,,,,,,,,,,,,,,,,
,,,,,,00026,2023-09-03_09h16.50.941,vbt_B1_day1,2022.2.4,Linux x86_64,60.02040694,,,,,,,,,,,,,,,,,,,0.034652313,-0.086221337,1,0,0,1.0825,2,9,61,5,1,f,images/br_f.png,images/cb_f.png,,,,,,,,,,,,,,,,,,,,,,,,,
,,,,,,00026,2023-09-03_09h16.50.941,vbt_B1_day1,2022.2.4,Linux x86_64,60.02040694,,,,,,,,,,,,,,,,,,,0.024932226,-0.097905477,1,0,0,2.849,2,10,62,11,1,l,images/br_l.png,images/cb_l.png,,,,,,,,,,,,,,,,,,,,,,,,,
,,,,,,00026,2023-09-03_09h16.50.941,vbt_B1_day1,2022.2.4,Linux x86_64,60.02040694,,,,,,,,,,,,,,,,,,,0.026095311,-0.090341886,1,0,0,81.8474,2,11,63,22,1,w,images/br_w.png,images/cb_w.png,,,,,,,,,,,,,,,,,,,,,,,,,
,,,,,,00026,2023-09-03_09h16.50.941,vbt_B1_day1,2022.2.4,Linux x86_64,60.02040694,,,,,,,,,,,,,,,,,,,0.08898441,-0.111854156,1,0,0,0.5163,2,12,64,6,1,g,images/br_g.png,images/cb_g.png,,,,,,,,,,,,,,,,,,,,,,,,,
,,,,,,00026,2023-09-03_09h16.50.941,vbt_B1_day1,2022.2.4,Linux x86_64,60.02040694,,,,,,,,,,,,,,,,,,,0.092620293,-0.112726887,1,0,0,0.5327,2,13,65,7,1,h,images/br_h.png,images/cb_h.png,,,,,,,,,,,,,,,,,,,,,,,,,
,,,,,,00026,2023-09-03_09h16.50.941,vbt_B1_day1,2022.2.4,Linux x86_64,60.02040694,,,,,,,,,,,,,,,,,,,-0.04592514,-0.10497423,1,0,0,0.9661,2,14,66,16,1,q,images/br_q.png,images/cb_q.png,,,,,,,,,,,,,,,,,,,,,,,,,
,,,,,,00026,2023-09-03_09h16.50.941,vbt_B1_day1,2022.2.4,Linux x86_64,60.02040694,,,,,,,,,,,,,,,,,,,-0.000875155,-0.095022082,1,0,0,1.2473,2,15,67,14,1,o,images/br_o.png,images/cb_o.png,,,,,,,,,,,,,,,,,,,,,,,,,
,,,,,,00026,2023-09-03_09h16.50.941,vbt_B1_day1,2022.2.4,Linux x86_64,60.02040694,,,,,,,,,,,,,,,,,,,-0.00677832,-0.046023965,1,0,0,22.4052,2,16,68,8,1,i,images/br_i.png,images/cb_i.png,,,,,,,,,,,,,,,,,,,,,,,,,
,,,,,,00026,2023-09-03_09h16.50.941,vbt_B1_day1,2022.2.4,Linux x86_64,60.02040694,,,,,,,,,,,,,,,,,,,0.000857115,-0.01657633,1,0,0,2.2324,2,17,69,13,1,n,images/br_n.png,images/cb_n.png,,,,,,,,,,,,,,,,,,,,,,,,,
,,,,,,00026,2023-09-03_09h16.50.941,vbt_B1_day1,2022.2.4,Linux x86_64,60.02040694,,,,,,,,,,,,,,,,,,,0.001147985,-0.01657633,1,0,0,0.4829,2,18,70,1,1,b,images/br_b.png,images/cb_b.png,,,,,,,,,,,,,,,,,,,,,,,,,
,,,,,,00026,2023-09-03_09h16.50.941,vbt_B1_day1,2022.2.4,Linux x86_64,60.02040694,,,,,,,,,,,,,,,,,,,0.048627615,-0.066459616,1,0,0,0.0497,2,19,71,23,1,x,images/br_x.png,images/cb_x.png,,,,,,,,,,,,,,,,,,,,,,,,,
,,,,,,00026,2023-09-03_09h16.50.941,vbt_B1_day1,2022.2.4,Linux x86_64,60.02040694,,,,,,,,,,,,,,,,,,,0.021077951,-0.045156479,1,0,0,0.7162,2,20,72,19,1,t,images/br_t.png,images/cb_t.png,,,,,,,,,,,,,,,,,,,,,,,,,
,,,,,,00026,2023-09-03_09h16.50.941,vbt_B1_day1,2022.2.4,Linux x86_64,60.02040694,,,,,,,,,,,,,,,,,,,0.029797872,-0.04101034,1,0,0,0.2999,2,21,73,12,1,m,images/br_m.png,images/cb_m.png,,,,,,,,,,,,,,,,,,,,,,,,,
,,,,,,00026,2023-09-03_09h16.50.941,vbt_B1_day1,2022.2.4,Linux x86_64,60.02040694,,,,,,,,,,,,,,,,,,,0.034877141,-0.06758678,1,0,0,0.4831,2,22,74,3,1,d,images/br_d.png,images/cb_d.png,,,,,,,,,,,,,,,,,,,,,,,,,
,,,,,,00026,2023-09-03_09h16.50.941,vbt_B1_day1,2022.2.4,Linux x86_64,60.02040694,,,,,,,,,,,,,,,,,,,0.04883488,0.01575168,1,0,0,0.5167,2,23,75,0,1,a,images/br_a.png,images/cb_a.png,,,,,,,,,,,,,,,,,,,,,,,,,
,,,,,,00026,2023-09-03_09h16.50.941,vbt_B1_day1,2022.2.4,Linux x86_64,60.02040694,,,,,,,,,,,,,,,,,,,0.043915272,-0.187612295,1,0,0,0.3332,2,24,76,9,1,j,images/br_j.png,images/cb_j.png,,,,,,,,,,,,,,,,,,,,,,,,,
,,,,,,00026,2023-09-03_09h16.50.941,vbt_B1_day1,2022.2.4,Linux x86_64,60.02040694,,,,,,,,,,,,,,,,,,,0.056423187,-0.187612216,1,0,0,0.4027,2,25,77,21,1,v,images/br_v.png,images/cb_v.png,,,,,,,,,,,,,,,,,,,,,,,,,
,,,,,,00026,2023-09-03_09h16.50.941,vbt_B1_day1,2022.2.4,Linux x86_64,60.02040694,,,,,,,,,,,,,,,,,,,0.054677963,-0.187321345,1,0,0,0.1669,3,0,78,16,1,q,images/br_q.png,images/cb_q.png,,,,,,,,,,,,,,,,,,,,,,,,,
,,,,,,00026,2023-09-03_09h16.50.941,vbt_B1_day1,2022.2.4,Linux x86_64,60.02040694,,,,,,,,,,,,,,,,,,,0.054677963,-0.187321345,1,0,0,0.0168,3,1,79,8,1,i,images/br_i.png,images/cb_i.png,,,,,,,,,,,,,,,,,,,,,,,,,
,,,,,,00026,2023-09-03_09h16.50.941,vbt_B1_day1,2022.2.4,Linux x86_64,60.02040694,,,,,,,,,,,,,,,,,,,0.054677963,-0.187321345,1,0,0,0.1994,3,2,80,7,1,h,images/br_h.png,images/cb_h.png,,,,,,,,,,,,,,,,,,,,,,,,,
,,,,,,00026,2023-09-03_09h16.50.941,vbt_B1_day1,2022.2.4,Linux x86_64,60.02040694,,,,,,,,,,,,,,,,,,,0.052350998,-0.180630922,1,0,0,0.381,3,3,81,3,1,d,images/br_d.png,images/cb_d.png,,,,,,,,,,,,,,,,,,,,,,,,,
,,,,,,00026,2023-09-03_09h16.50.941,vbt_B1_day1,2022.2.4,Linux x86_64,60.02040694,,,,,,,,,,,,,,,,,,,0.051478386,-0.177722057,1,0,0,0.2859,3,4,82,11,1,l,images/br_l.png,images/cb_l.png,,,,,,,,,,,,,,,,,,,,,,,,,
,,,,,,00026,2023-09-03_09h16.50.941,vbt_B1_day1,2022.2.4,Linux x86_64,60.02040694,,,,,,,,,,,,,,,,,,,-0.001197418,-0.308896542,1,0,0,0.3677,3,5,83,19,1,t,images/br_t.png,images/cb_t.png,,,,,,,,,,,,,,,,,,,,,,,,,
,,,,,,00026,2023-09-03_09h16.50.941,vbt_B1_day1,2022.2.4,Linux x86_64,60.02040694,,,,,,,,,,,,,,,,,,,-0.0023609,-0.309187333,1,0,0,0.1498,3,6,84,17,1,r,images/br_r.png,images/cb_r.png,,,,,,,,,,,,,,,,,,,,,,,,,
,,,,,,00026,2023-09-03_09h16.50.941,vbt_B1_day1,2022.2.4,Linux x86_64,60.02040694,,,,,,,,,,,,,,,,,,,0.022767941,-0.197595199,1,0,0,0.2001,3,7,85,12,1,m,images/br_m.png,images/cb_m.png,,,,,,,,,,,,,,,,,,,,,,,,,
,,,,,,00026,2023-09-03_09h16.50.941,vbt_B1_day1,2022.2.4,Linux x86_64,60.02040694,,,,,,,,,,,,,,,,,,,0.013261795,-0.248906136,1,0,0,0.2686,3,8,86,1,1,b,images/br_b.png,images/cb_b.png,,,,,,,,,,,,,,,,,,,,,,,,,
,,,,,,00026,2023-09-03_09h16.50.941,vbt_B1_day1,2022.2.4,Linux x86_64,60.02040694,,,,,,,,,,,,,,,,,,,0.013261795,-0.248615265,1,0,0,0.083,3,9,87,6,1,g,images/br_g.png,images/cb_g.png,,,,,,,,,,,,,,,,,,,,,,,,,
,,,,,,00026,2023-09-03_09h16.50.941,vbt_B1_day1,2022.2.4,Linux x86_64,60.02040694,,,,,,,,,,,,,,,,,,,0.02443552,-0.129592657,1,0,0,0.0332,3,10,88,18,1,s,images/br_s.png,images/cb_s.png,,,,,,,,,,,,,,,,,,,,,,,,,
,,,,,,00026,2023-09-03_09h16.50.941,vbt_B1_day1,2022.2.4,Linux x86_64,60.02040694,,,,,,,,,,,,,,,,,,,0.010270675,-0.302581708,1,0,0,0.0501,3,11,89,2,1,c,images/br_c.png,images/cb_c.png,,,,,,,,,,,,,,,,,,,,,,,,,
,,,,,,00026,2023-09-03_09h16.50.941,vbt_B1_day1,2022.2.4,Linux x86_64,60.02040694,,,,,,,,,,,,,,,,,,,-0.014101982,-0.245591958,1,0,0,1.2659,3,12,90,15,1,p,images/br_p.png,images/cb_p.png,,,,,,,,,,,,,,,,,,,,,,,,,
,,,,,,00026,2023-09-03_09h16.50.941,vbt_B1_day1,2022.2.4,Linux x86_64,60.02040694,,,,,,,,,,,,,,,,,,,0.019839923,-0.236884356,1,0,0,3.1984,3,13,91,22,1,w,images/br_w.png,images/cb_w.png,,,,,,,,,,,,,,,,,,,,,,,,,
,,,,,,00026,2023-09-03_09h16.50.941,vbt_B1_day1,2022.2.4,Linux x86_64,60.02040694,,,,,,,,,,,,,,,,,,,0.019925674,-0.228525162,1,0,0,4.233,3,14,92,20,1,u,images/br_u.png,images/cb_u.png,,,,,,,,,,,,,,,,,,,,,,,,,
,,,,,,00026,2023-09-03_09h16.50.941,vbt_B1_day1,2022.2.4,Linux x86_64,60.02040694,,,,,,,,,,,,,,,,,,,0.013597727,-0.234722932,1,0,0,0.2664,3,15,93,25,1,z,images/br_z.png,images/cb_z.png,,,,,,,,,,,,,,,,,,,,,,,,,
,,,,,,00026,2023-09-03_09h16.50.941,vbt_B1_day1,2022.2.4,Linux x86_64,60.02040694,,,,,,,,,,,,,,,,,,,0.013743162,-0.234722932,1,0,0,0.4166,3,16,94,10,1,k,images/br_k.png,images/cb_k.png,,,,,,,,,,,,,,,,,,,,,,,,,
,,,,,,00026,2023-09-03_09h16.50.941,vbt_B1_day1,2022.2.4,Linux x86_64,60.02040694,,,,,,,,,,,,,,,,,,,-0.004599333,-0.212489684,1,0,0,0.0996,3,17,95,24,1,y,images/br_y.png,images/cb_y.png,,,,,,,,,,,,,,,,,,,,,,,,,
,,,,,,00026,2023-09-03_09h16.50.941,vbt_B1_day1,2022.2.4,Linux x86_64,60.02040694,,,,,,,,,,,,,,,,,,,-0.004599333,-0.212489684,1,0,0,0.4498,3,18,96,14,1,o,images/br_o.png,images/cb_o.png,,,,,,,,,,,,,,,,,,,,,,,,,
,,,,,,00026,2023-09-03_09h16.50.941,vbt_B1_day1,2022.2.4,Linux x86_64,60.02040694,,,,,,,,,,,,,,,,,,,0.000927528,-0.218889475,1,0,0,0.0512,3,19,97,9,1,j,images/br_j.png,images/cb_j.png,,,,,,,,,,,,,,,,,,,,,,,,,
,,,,,,00026,2023-09-03_09h16.50.941,vbt_B1_day1,2022.2.4,Linux x86_64,60.02040694,,,,,,,,,,,,,,,,,,,0.000927528,-0.218889475,1,0,0,0.068,3,20,98,21,1,v,images/br_v.png,images/cb_v.png,,,,,,,,,,,,,,,,,,,,,,,,,
,,,,,,00026,2023-09-03_09h16.50.941,vbt_B1_day1,2022.2.4,Linux x86_64,60.02040694,,,,,,,,,,,,,,,,,,,-0.050700108,-0.241393884,1,0,0,0.133,3,21,99,0,1,a,images/br_a.png,images/cb_a.png,,,,,,,,,,,,,,,,,,,,,,,,,
,,,,,,00026,2023-09-03_09h16.50.941,vbt_B1_day1,2022.2.4,Linux x86_64,60.02040694,,,,,,,,,,,,,,,,,,,-0.027544339,-0.216786146,1,0,0,0.5162,3,22,100,4,1,e,images/br_e.png,images/cb_e.png,,,,,,,,,,,,,,,,,,,,,,,,,
,,,,,,00026,2023-09-03_09h16.50.941,vbt_B1_day1,2022.2.4,Linux x86_64,60.02040694,,,,,,,,,,,,,,,,,,,-0.014618158,-0.20959576,1,0,0,0.1667,3,23,101,13,1,n,images/br_n.png,images/cb_n.png,,,,,,,,,,,,,,,,,,,,,,,,,
,,,,,,00026,2023-09-03_09h16.50.941,vbt_B1_day1,2022.2.4,Linux x86_64,60.02040694,,,,,,,,,,,,,,,,,,,0.04740874,-0.192112128,1,0,0,0.4829,3,24,102,23,1,x,images/br_x.png,images/cb_x.png,,,,,,,,,,,,,,,,,,,,,,,,,
,,,,,,00026,2023-09-03_09h16.50.941,vbt_B1_day1,2022.2.4,Linux x86_64,60.02040694,,,,,,,,,,,,,,,,,,,0.04740874,-0.192112128,1,0,0,11.4608,3,25,103,5,1,f,images/br_f.png,images/cb_f.png,,,,,,,,,,,,,,,,,,,,,,,,,
,,,,,,00026,2023-09-03_09h16.50.941,vbt_B1_day1,2022.2.4,Linux x86_64,60.02040694,,,,,,,,,,,,,,,,,,,0.04740874,-0.192112128,1,0,0,0.267,4,0,104,22,1,w,images/br_w.png,images/cb_w.png,,,,,,,,,,,,,,,,,,,,,,,,,
,,,,,,00026,2023-09-03_09h16.50.941,vbt_B1_day1,2022.2.4,Linux x86_64,60.02040694,,,,,,,,,,,,,,,,,,,0.002362887,-0.055216511,1,0,0,0.7006,4,1,105,24,1,y,images/br_y.png,images/cb_y.png,,,,,,,,,,,,,,,,,,,,,,,,,
,,,,,,00026,2023-09-03_09h16.50.941,vbt_B1_day1,2022.2.4,Linux x86_64,60.02040694,,,,,,,,,,,,,,,,,,,-0.00155131,-0.066805601,1,0,0,0.016,4,2,106,16,1,q,images/br_q.png,images/cb_q.png,,,,,,,,,,,,,,,,,,,,,,,,,
,,,,,,00026,2023-09-03_09h16.50.941,vbt_B1_day1,2022.2.4,Linux x86_64,60.02040694,,,,,,,,,,,,,,,,,,,-0.00155131,-0.066805601,1,0,0,0.6,4,3,107,21,1,v,images/br_v.png,images/cb_v.png,,,,,,,,,,,,,,,,,,,,,,,,,
,,,,,,00026,2023-09-03_09h16.50.941,vbt_B1_day1,2022.2.4,Linux x86_64,60.02040694,,,,,,,,,,,,,,,,,,,-0.00155131,-0.066805601,1,0,0,0.3325,4,4,108,12,1,m,images/br_m.png,images/cb_m.png,,,,,,,,,,,,,,,,,,,,,,,,,
,,,,,,00026,2023-09-03_09h16.50.941,vbt_B1_day1,2022.2.4,Linux x86_64,60.02040694,,,,,,,,,,,,,,,,,,,-0.00155131,-0.066805601,1,0,0,0.216,4,5,109,3,1,d,images/br_d.png,images/cb_d.png,,,,,,,,,,,,,,,,,,,,,,,,,
,,,,,,00026,2023-09-03_09h16.50.941,vbt_B1_day1,2022.2.4,Linux x86_64,60.02040694,,,,,,,,,,,,,,,,,,,-0.00155131,-0.066805601,1,0,0,293.256,4,6,110,6,1,g,images/br_g.png,images/cb_g.png,,,,,,,,,,,,,,,,,,,,,,,,,
,,,,,,00026,2023-09-03_09h16.50.941,vbt_B1_day1,2022.2.4,Linux x86_64,60.02040694,,,,,,,,,,,,,,,,,,,0.101799965,-0.113140782,1,0,0,1.1666,4,7,111,13,1,n,images/br_n.png,images/cb_n.png,,,,,,,,,,,,,,,,,,,,,,,,,
,,,,,,00026,2023-09-03_09h16.50.941,vbt_B1_day1,2022.2.4,Linux x86_64,60.02040694,,,,,,,,,,,,,,,,,,,-0.009702841,-0.170095841,1,0,0,0.1331,4,8,112,20,1,u,images/br_u.png,images/cb_u.png,,,,,,,,,,,,,,,,,,,,,,,,,
,,,,,,00026,2023-09-03_09h16.50.941,vbt_B1_day1,2022.2.4,Linux x86_64,60.02040694,,,,,,,,,,,,,,,,,,,0.008692106,-0.048160474,1,0,0,0.7496,4,9,113,15,1,p,images/br_p.png,images/cb_p.png,,,,,,,,,,,,,,,,,,,,,,,,,
,,,,,,00026,2023-09-03_09h16.50.941,vbt_B1_day1,2022.2.4,Linux x86_64,60.02040694,,,,,,,,,,,,,,,,,,,0.011989991,-0.179070234,1,0,0,1.9667,4,10,114,8,1,i,images/br_i.png,images/cb_i.png,,,,,,,,,,,,,,,,,,,,,,,,,
,,,,,,00026,2023-09-03_09h16.50.941,vbt_B1_day1,2022.2.4,Linux x86_64,60.02040694,,,,,,,,,,,,,,,,,,,0.019961198,-0.181711515,1,0,0,0.9158,4,11,115,7,1,h,images/br_h.png,images/cb_h.png,,,,,,,,,,,,,,,,,,,,,,,,,
,,,,,,00026,2023-09-03_09h16.50.941,vbt_B1_day1,2022.2.4,Linux x86_64,60.02040694,,,,,,,,,,,,,,,,,,,0.016761621,-0.171821356,1,0,0,3.4319,4,12,116,14,1,o,images/br_o.png,images/cb_o.png,,,,,,,,,,,,,,,,,,,,,,,,,
,,,,,,00026,2023-09-03_09h16.50.941,vbt_B1_day1,2022.2.4,Linux x86_64,60.02040694,,,,,,,,,,,,,,,,,,,0.08103164,-0.0590686,1,0,0,0.7159,4,13,117,11,1,l,images/br_l.png,images/cb_l.png,,,,,,,,,,,,,,,,,,,,,,,,,
,,,,,,00026,2023-09-03_09h16.50.941,vbt_B1_day1,2022.2.4,Linux x86_64,60.02040694,,,,,,,,,,,,,,,,,,,0.011961937,-0.065243363,1,0,0,0.0997,4,14,118,19,1,t,images/br_t.png,images/cb_t.png,,,,,,,,,,,,,,,,,,,,,,,,,
,,,,,,00026,2023-09-03_09h16.50.941,vbt_B1_day1,2022.2.4,Linux x86_64,60.02040694,,,,,,,,,,,,,,,,,,,0.011961937,-0.065243363,1,0,0,2.5645,4,15,119,1,1,b,images/br_b.png,images/cb_b.png,,,,,,,,,,,,,,,,,,,,,,,,,
,,,,,,00026,2023-09-03_09h16.50.941,vbt_B1_day1,2022.2.4,Linux x86_64,60.02040694,,,,,,,,,,,,,,,,,,,0.015697718,-0.047560414,1,0,0,0.6328,4,16,120,23,1,x,images/br_x.png,images/cb_x.png,,,,,,,,,,,,,,,,,,,,,,,,,
,,,,,,00026,2023-09-03_09h16.50.941,vbt_B1_day1,2022.2.4,Linux x86_64,60.02040694,,,,,,,,,,,,,,,,,,,0.015882969,-0.000596881,1,0,0,3.5467,4,17,121,5,1,f,images/br_f.png,images/cb_f.png,,,,,,,,,,,,,,,,,,,,,,,,,
,,,,,,00026,2023-09-03_09h16.50.941,vbt_B1_day1,2022.2.4,Linux x86_64,60.02040694,,,,,,,,,,,,,,,,,,,0.015120824,-0.073916435,1,0,0,0.4981,4,18,122,17,1,r,images/br_r.png,images/cb_r.png,,,,,,,,,,,,,,,,,,,,,,,,,
,,,,,,00026,2023-09-03_09h16.50.941,vbt_B1_day1,2022.2.4,Linux x86_64,60.02040694,,,,,,,,,,,,,,,,,,,0.016138872,-0.071007331,1,0,0,3.048,4,19,123,10,1,k,images/br_k.png,images/cb_k.png,,,,,,,,,,,,,,,,,,,,,,,,,
,,,,,,00026,2023-09-03_09h16.50.941,vbt_B1_day1,2022.2.4,Linux x86_64,60.02040694,,,,,,,,,,,,,,,,,,,0.016138872,-0.071007331,1,0,0,1.8151,4,20,124,2,1,c,images/br_c.png,images/cb_c.png,,,,,,,,,,,,,,,,,,,,,,,,,
,,,,,,00026,2023-09-03_09h16.50.941,vbt_B1_day1,2022.2.4,Linux x86_64,60.02040694,,,,,,,,,,,,,,,,,,,0.033869664,0.044980129,1,0,0,1.0489,4,21,125,18,1,s,images/br_s.png,images/cb_s.png,,,,,,,,,,,,,,,,,,,,,,,,,
,,,,,,00026,2023-09-03_09h16.50.941,vbt_B1_day1,2022.2.4,Linux x86_64,60.02040694,,,,,,,,,,,,,,,,,,,-0.017614444,-0.026410222,1,0,0,0.0497,4,22,126,25,1,z,images/br_z.png,images/cb_z.png,,,,,,,,,,,,,,,,,,,,,,,,,
,,,,,,00026,2023-09-03_09h16.50.941,vbt_B1_day1,2022.2.4,Linux x86_64,60.02040694,,,,,,,,,,,,,,,,,,,-0.013251384,-0.026846568,1,0,0,0.2663,4,23,127,0,1,a,images/br_a.png,images/cb_a.png,,,,,,,,,,,,,,,,,,,,,,,,,
,,,,,,00026,2023-09-03_09h16.50.941,vbt_B1_day1,2022.2.4,Linux x86_64,60.02040694,,,,,,,,,,,,,,,,,,,0.005365213,-0.023646553,1,0,0,0.1333,4,24,128,4,1,e,images/br_e.png,images/cb_e.png,,,,,,,,,,,,,,,,,,,,,,,,,
,,,,,,00026,2023-09-03_09h16.50.941,vbt_B1_day1,2022.2.4,Linux x86_64,60.02040694,,,,,,,,,,,,,,,,,,,0.005365213,-0.023646553,1,0,0,4.3792,4,25,129,9,1,j,images/br_j.png,images/cb_j.png,,,,,,,,,,,,,,,,,,,,,,,,,
,,,,,,00026,2023-09-03_09h16.50.941,vbt_B1_day1,2022.2.4,Linux x86_64,60.02040694,,,,,,,,,,,,,,,,,,,0.005365213,-0.023646553,1,0,0,10.2222,5,0,130,3,1,d,images/br_d.png,images/cb_d.png,,,,,,,,,,,,,,,,,,,,,,,,,
,,,,,,00026,2023-09-03_09h16.50.941,vbt_B1_day1,2022.2.4,Linux x86_64,60.02040694,,,,,,,,,,,,,,,,,,,0.003510316,0.058675567,1,0,0,67.1667,5,1,131,5,1,f,images/br_f.png,images/cb_f.png,,,,,,,,,,,,,,,,,,,,,,,,,
,,,,,,00026,2023-09-03_09h16.50.941,vbt_B1_day1,2022.2.4,Linux x86_64,60.02040694,,,,,,,,,,,,,,,,,,,-0.112674316,-0.087508758,1,0,0,2.5808,5,2,132,15,1,p,images/br_p.png,images/cb_p.png,,,,,,,,,,,,,,,,,,,,,,,,,
,,,,,,00026,2023-09-03_09h16.50.941,vbt_B1_day1,2022.2.4,Linux x86_64,60.02040694,,,,,,,,,,,,,,,,,,,0.065453847,-0.06882747,1,0,0,0.4164,5,3,133,1,1,b,images/br_b.png,images/cb_b.png,,,,,,,,,,,,,,,,,,,,,,,,,
,,,,,,00026,2023-09-03_09h16.50.941,vbt_B1_day1,2022.2.4,Linux x86_64,60.02040694,,,,,,,,,,,,,,,,,,,-0.030690114,-0.112773736,1,0,0,0.9991,5,4,134,16,1,q,images/br_q.png,images/cb_q.png,,,,,,,,,,,,,,,,,,,,,,,,,
,,,,,,00026,2023-09-03_09h16.50.941,vbt_B1_day1,2022.2.4,Linux x86_64,60.02040694,,,,,,,,,,,,,,,,,,,0.012471835,-0.040284713,1,0,0,0.6827,5,5,135,24,1,y,images/br_y.png,images/cb_y.png,,,,,,,,,,,,,,,,,,,,,,,,,
,,,,,,00026,2023-09-03_09h16.50.941,vbt_B1_day1,2022.2.4,Linux x86_64,60.02040694,,,,,,,,,,,,,,,,,,,0.016544263,-0.039121071,1,0,0,0.3164,5,6,136,0,1,a,images/br_a.png,images/cb_a.png,,,,,,,,,,,,,,,,,,,,,,,,,
,,,,,,00026,2023-09-03_09h16.50.941,vbt_B1_day1,2022.2.4,Linux x86_64,60.02040694,,,,,,,,,,,,,,,,,,,0.013342539,-0.03029259,1,0,0,0.3502,5,7,137,14,1,o,images/br_o.png,images/cb_o.png,,,,,,,,,,,,,,,,,,,,,,,,,
,,,,,,00026,2023-09-03_09h16.50.941,vbt_B1_day1,2022.2.4,Linux x86_64,60.02040694,,,,,,,,,,,,,,,,,,,0.025540749,-0.020801703,1,0,0,0.0164,5,8,138,19,1,t,images/br_t.png,images/cb_t.png,,,,,,,,,,,,,,,,,,,,,,,,,
,,,,,,00026,2023-09-03_09h16.50.941,vbt_B1_day1,2022.2.4,Linux x86_64,60.02040694,,,,,,,,,,,,,,,,,,,0.019723336,-0.018765291,1,0,0,0.4341,5,9,139,20,1,u,images/br_u.png,images/cb_u.png,,,,,,,,,,,,,,,,,,,,,,,,,
,,,,,,00026,2023-09-03_09h16.50.941,vbt_B1_day1,2022.2.4,Linux x86_64,60.02040694,,,,,,,,,,,,,,,,,,,0.018820922,-0.006613374,1,0,0,0.2164,5,10,140,17,1,r,images/br_r.png,images/cb_r.png,,,,,,,,,,,,,,,,,,,,,,,,,
,,,,,,00026,2023-09-03_09h16.50.941,vbt_B1_day1,2022.2.4,Linux x86_64,60.02040694,,,,,,,,,,,,,,,,,,,-0.052881956,-0.02188015,1,0,0,0.0662,5,11,141,8,1,i,images/br_i.png,images/cb_i.png,,,,,,,,,,,,,,,,,,,,,,,,,
,,,,,,00026,2023-09-03_09h16.50.941,vbt_B1_day1,2022.2.4,Linux x86_64,60.02040694,,,,,,,,,,,,,,,,,,,0.002852043,-0.017989159,1,0,0,0.0669,5,12,142,22,1,w,images/br_w.png,images/cb_w.png,,,,,,,,,,,,,,,,,,,,,,,,,
,,,,,,00026,2023-09-03_09h16.50.941,vbt_B1_day1,2022.2.4,Linux x86_64,60.02040694,,,,,,,,,,,,,,,,,,,0.002852043,-0.017698248,1,0,0,0.5842,5,13,143,9,1,j,images/br_j.png,images/cb_j.png,,,,,,,,,,,,,,,,,,,,,,,,,
,,,,,,00026,2023-09-03_09h16.50.941,vbt_B1_day1,2022.2.4,Linux x86_64,60.02040694,,,,,,,,,,,,,,,,,,,0.002270222,-0.01493458,1,0,0,17.4162,5,14,144,25,1,z,images/br_z.png,images/cb_z.png,,,,,,,,,,,,,,,,,,,,,,,,,
,,,,,,00026,2023-09-03_09h16.50.941,vbt_B1_day1,2022.2.4,Linux x86_64,60.02040694,,,,,,,,,,,,,,,,,,,0.011662006,-0.025739908,1,0,0,0.0508,5,15,145,11,1,l,images/br_l.png,images/cb_l.png,,,,,,,,,,,,,,,,,,,,,,,,,
,,,,,,00026,2023-09-03_09h16.50.941,vbt_B1_day1,2022.2.4,Linux x86_64,60.02040694,,,,,,,,,,,,,,,,,,,0.012825489,-0.017594457,1,0,0,0.2664,5,16,146,2,1,c,images/br_c.png,images/cb_c.png,,,,,,,,,,,,,,,,,,,,,,,,,
,,,,,,00026,2023-09-03_09h16.50.941,vbt_B1_day1,2022.2.4,Linux x86_64,60.02040694,,,,,,,,,,,,,,,,,,,0.012243748,-0.017012636,1,0,0,0.1503,5,17,147,13,1,n,images/br_n.png,images/cb_n.png,,,,,,,,,,,,,,,,,,,,,,,,,
,,,,,,00026,2023-09-03_09h16.50.941,vbt_B1_day1,2022.2.4,Linux x86_64,60.02040694,,,,,,,,,,,,,,,,,,,0.07090497,-0.198751609,1,0,0,0.2499,5,18,148,10,1,k,images/br_k.png,images/cb_k.png,,,,,,,,,,,,,,,,,,,,,,,,,
,,,,,,00026,2023-09-03_09h16.50.941,vbt_B1_day1,2022.2.4,Linux x86_64,60.02040694,,,,,,,,,,,,,,,,,,,0.001832644,-0.105268121,1,0,0,0.3164,5,19,149,12,1,m,images/br_m.png,images/cb_m.png,,,,,,,,,,,,,,,,,,,,,,,,,
,,,,,,00026,2023-09-03_09h16.50.941,vbt_B1_day1,2022.2.4,Linux x86_64,60.02040694,,,,,,,,,,,,,,,,,,,0.023727894,-0.091026982,1,0,0,1.1605,5,20,150,7,1,h,images/br_h.png,images/cb_h.png,,,,,,,,,,,,,,,,,,,,,,,,,
,,,,,,00026,2023-09-03_09h16.50.941,vbt_B1_day1,2022.2.4,Linux x86_64,60.02040694,,,,,,,,,,,,,,,,,,,0.022564411,-0.091026982,1,0,0,6.6101,5,21,151,6,1,g,images/br_g.png,images/cb_g.png,,,,,,,,,,,,,,,,,,,,,,,,,
,,,,,,00026,2023-09-03_09h16.50.941,vbt_B1_day1,2022.2.4,Linux x86_64,60.02040694,,,,,,,,,,,,,,,,,,,-0.001072486,-0.076288303,1,0,0,0.3003,5,22,152,21,1,v,images/br_v.png,images/cb_v.png,,,,,,,,,,,,,,,,,,,,,,,,,
,,,,,,00026,2023-09-03_09h16.50.941,vbt_B1_day1,2022.2.4,Linux x86_64,60.02040694,,,,,,,,,,,,,,,,,,,-0.003399452,-0.070470095,1,0,0,0.1832,5,23,153,23,1,x,images/br_x.png,images/cb_x.png,,,,,,,,,,,,,,,,,,,,,,,,,
,,,,,,00026,2023-09-03_09h16.50.941,vbt_B1_day1,2022.2.4,Linux x86_64,60.02040694,,,,,,,,,,,,,,,,,,,-0.003399452,-0.070470095,1,0,0,0.1653,5,24,154,4,1,e,images/br_e.png,images/cb_e.png,,,,,,,,,,,,,,,,,,,,,,,,,
,,,,,,00026,2023-09-03_09h16.50.941,vbt_B1_day1,2022.2.4,Linux x86_64,60.02040694,,,,,,,,,,,,,,,,,,,0.016396125,-0.047530532,1,0,0,10.4731,5,25,155,18,1,s,images/br_s.png,images/cb_s.png,,,,,,,,,,,,,,,,,,,,,,,,,
,,,,,,00026,2023-09-03_09h16.50.941,vbt_B1_day1,2022.2.4,Linux x86_64,60.02040694,,,,,,,,,,,,,,,,,,,0.019886573,-0.046657801,1,0,0,0.7998,6,0,156,14,1,o,images/br_o.png,images/cb_o.png,,,,,,,,,,,,,,,,,,,,,,,,,
,,,,,,00026,2023-09-03_09h16.50.941,vbt_B1_day1,2022.2.4,Linux x86_64,60.02040694,,,,,,,,,,,,,,,,,,,0.019886573,-0.046657801,1,0,0,8.1421,6,1,157,3,1,d,images/br_d.png,images/cb_d.png,,,,,,,,,,,,,,,,,,,,,,,,,
,,,,,,00026,2023-09-03_09h16.50.941,vbt_B1_day1,2022.2.4,Linux x86_64,60.02040694,,,,,,,,,,,,,,,,,,,0.019782464,-0.020024618,1,0,0,1.4319,6,2,158,17,1,r,images/br_r.png,images/cb_r.png,,,,,,,,,,,,,,,,,,,,,,,,,
,,,,,,00026,2023-09-03_09h16.50.941,vbt_B1_day1,2022.2.4,Linux x86_64,60.02040694,,,,,,,,,,,,,,,,,,,0.044201454,-0.051936865,1,0,0,0.2165,6,3,159,20,1,u,images/br_u.png,images/cb_u.png,,,,,,,,,,,,,,,,,,,,,,,,,
,,,,,,00026,2023-09-03_09h16.50.941,vbt_B1_day1,2022.2.4,Linux x86_64,60.02040694,,,,,,,,,,,,,,,,,,,-0.004915078,-0.037007173,1,0,0,2.4971,6,4,160,12,1,m,images/br_m.png,images/cb_m.png,,,,,,,,,,,,,,,,,,,,,,,,,
,,,,,,00026,2023-09-03_09h16.50.941,vbt_B1_day1,2022.2.4,Linux x86_64,60.02040694,,,,,,,,,,,,,,,,,,,0.020390034,-0.06243066,1,0,0,0.8652,6,5,161,0,1,a,images/br_a.png,images/cb_a.png,,,,,,,,,,,,,,,,,,,,,,,,,
,,,,,,00026,2023-09-03_09h16.50.941,vbt_B1_day1,2022.2.4,Linux x86_64,60.02040694,,,,,,,,,,,,,,,,,,,0.02300787,-0.060103337,1,0,0,6.7935,6,6,162,8,1,i,images/br_i.png,images/cb_i.png,,,,,,,,,,,,,,,,,,,,,,,,,
,,,,,,00026,2023-09-03_09h16.50.941,vbt_B1_day1,2022.2.4,Linux x86_64,60.02040694,,,,,,,,,,,,,,,,,,,0.021844387,-0.056903323,1,0,0,0.1162,6,7,163,13,1,n,images/br_n.png,images/cb_n.png,,,,,,,,,,,,,,,,,,,,,,,,,
,,,,,,00026,2023-09-03_09h16.50.941,vbt_B1_day1,2022.2.4,Linux x86_64,60.02040694,,,,,,,,,,,,,,,,,,,0.010207812,-0.067957719,1,0,0,0.3622,6,8,164,19,1,t,images/br_t.png,images/cb_t.png,,,,,,,,,,,,,,,,,,,,,,,,,
,,,,,,00026,2023-09-03_09h16.50.941,vbt_B1_day1,2022.2.4,Linux x86_64,60.02040694,,,,,,,,,,,,,,,,,,,0.012389342,-0.067957719,1,0,0,0.0499,6,9,165,25,1,z,images/br_z.png,images/cb_z.png,,,,,,,,,,,,,,,,,,,,,,,,,
,,,,,,00026,2023-09-03_09h16.50.941,vbt_B1_day1,2022.2.4,Linux x86_64,60.02040694,,,,,,,,,,,,,,,,,,,0.02621603,-0.064940095,1,0,0,0.1663,6,10,166,21,1,v,images/br_v.png,images/cb_v.png,,,,,,,,,,,,,,,,,,,,,,,,,
,,,,,,00026,2023-09-03_09h16.50.941,vbt_B1_day1,2022.2.4,Linux x86_64,60.02040694,,,,,,,,,,,,,,,,,,,0.011766831,-0.05242161,1,0,0,0.5672,6,11,167,23,1,x,images/br_x.png,images/cb_x.png,,,,,,,,,,,,,,,,,,,,,,,,,
,,,,,,00026,2023-09-03_09h16.50.941,vbt_B1_day1,2022.2.4,Linux x86_64,60.02040694,,,,,,,,,,,,,,,,,,,0.010312319,-0.051258008,1,0,0,0.6493,6,12,168,22,1,w,images/br_w.png,images/cb_w.png,,,,,,,,,,,,,,,,,,,,,,,,,
,,,,,,00026,2023-09-03_09h16.50.941,vbt_B1_day1,2022.2.4,Linux x86_64,60.02040694,,,,,,,,,,,,,,,,,,,0.003289302,-0.131998936,1,0,0,1.4493,6,13,169,18,1,s,images/br_s.png,images/cb_s.png,,,,,,,,,,,,,,,,,,,,,,,,,
,,,,,,00026,2023-09-03_09h16.50.941,vbt_B1_day1,2022.2.4,Linux x86_64,60.02040694,,,,,,,,,,,,,,,,,,,0.005924066,-0.066103101,1,0,0,0.283,6,14,170,10,1,k,images/br_k.png,images/cb_k.png,,,,,,,,,,,,,,,,,,,,,,,,,
,,,,,,00026,2023-09-03_09h16.50.941,vbt_B1_day1,2022.2.4,Linux x86_64,60.02040694,,,,,,,,,,,,,,,,,,,-0.000200828,-0.081068834,1,0,0,0.4502,6,15,171,7,1,h,images/br_h.png,images/cb_h.png,,,,,,,,,,,,,,,,,,,,,,,,,
,,,,,,00026,2023-09-03_09h16.50.941,vbt_B1_day1,2022.2.4,Linux x86_64,60.02040694,,,,,,,,,,,,,,,,,,,-0.000200828,-0.081068834,1,0,0,0.4164,6,16,172,2,1,c,images/br_c.png,images/cb_c.png,,,,,,,,,,,,,,,,,,,,,,,,,
,,,,,,00026,2023-09-03_09h16.50.941,vbt_B1_day1,2022.2.4,Linux x86_64,60.02040694,,,,,,,,,,,,,,,,,,,-0.017653068,-0.007862647,1,0,0,7.5772,6,17,173,5,1,f,images/br_f.png,images/cb_f.png,,,,,,,,,,,,,,,,,,,,,,,,,
,,,,,,00026,2023-09-03_09h16.50.941,vbt_B1_day1,2022.2.4,Linux x86_64,60.02040694,,,,,,,,,,,,,,,,,,,-0.010671457,-0.028225859,1,0,0,2.3812,6,18,174,9,1,j,images/br_j.png,images/cb_j.png,,,,,,,,,,,,,,,,,,,,,,,,,
,,,,,,00026,2023-09-03_09h16.50.941,vbt_B1_day1,2022.2.4,Linux x86_64,60.02040694,,,,,,,,,,,,,,,,,,,-0.011253198,-0.029971361,1,0,0,0.2831,6,19,175,15,1,p,images/br_p.png,images/cb_p.png,,,,,,,,,,,,,,,,,,,,,,,,,
,,,,,,00026,2023-09-03_09h16.50.941,vbt_B1_day1,2022.2.4,Linux x86_64,60.02040694,,,,,,,,,,,,,,,,,,,-0.007181009,-0.03637143,1,0,0,3.9466,6,20,176,6,1,g,images/br_g.png,images/cb_g.png,,,,,,,,,,,,,,,,,,,,,,,,,
,,,,,,00026,2023-09-03_09h16.50.941,vbt_B1_day1,2022.2.4,Linux x86_64,60.02040694,,,,,,,,,,,,,,,,,,,-0.007181009,-0.03637143,1,0,0,5.1118,6,21,177,1,1,b,images/br_b.png,images/cb_b.png,,,,,,,,,,,,,,,,,,,,,,,,,
,,,,,,00026,2023-09-03_09h16.50.941,vbt_B1_day1,2022.2.4,Linux x86_64,60.02040694,,,,,,,,,,,,,,,,,,,-0.012416681,-0.035498738,1,0,0,1.3657,6,22,178,4,1,e,images/br_e.png,images/cb_e.png,,,,,,,,,,,,,,,,,,,,,,,,,
,,,,,,00026,2023-09-03_09h16.50.941,vbt_B1_day1,2022.2.4,Linux x86_64,60.02040694,,,,,,,,,,,,,,,,,,,-0.071976026,-0.197357416,1,0,0,7.625,6,23,179,16,1,q,images/br_q.png,images/cb_q.png,,,,,,,,,,,,,,,,,,,,,,,,,
,,,,,,00026,2023-09-03_09h16.50.941,vbt_B1_day1,2022.2.4,Linux x86_64,60.02040694,,,,,,,,,,,,,,,,,,,0.011919419,-0.082059145,1,0,0,2.7472,6,24,180,24,1,y,images/br_y.png,images/cb_y.png,,,,,,,,,,,,,,,,,,,,,,,,,
,,,,,,00026,2023-09-03_09h16.50.941,vbt_B1_day1,2022.2.4,Linux x86_64,60.02040694,,,,,,,,,,,,,,,,,,,0.029372772,-0.050932686,1,0,0,14.0185,6,25,181,11,1,l,images/br_l.png,images/cb_l.png,,,,,,,,,,,,,,,,,,,,,,,,,
,,,,,,00026,2023-09-03_09h16.50.941,vbt_B1_day1,2022.2.4,Linux x86_64,60.02040694,,,,,,,,,,,,,,,,,,,,,,,,,,,,,,,,,0.122419119,-0.200423559,1,0,0,,,,,,,,,,,,,,,,,,,,
,,,,,,00026,2023-09-03_09h16.50.941,vbt_B1_day1,2022.2.4,Linux x86_64,60.02040694,,,,,,,,,,,,,,,,,,,,,,,,,,,,,,,,,,,,,,0.228316784,-0.022732139,1,0,0,,,,,,,,,,,,,,,
,,,,,,00026,2023-09-03_09h16.50.941,vbt_B1_day1,2022.2.4,Linux x86_64,60.02040694,,,,,,,,,,,,,,,,,,,,,,,,,,,,,,,,,,,,,,,,,,,0.014065266,-0.005502661,1,0,0,.ies..,.ies..,0,0,0,15,1,hiervan,images/br_hiervan.png,images/cb_hiervan.png
,,,,,,00026,2023-09-03_09h16.50.941,vbt_B1_day1,2022.2.4,Linux x86_64,60.02040694,,,,,,,,,,,,,,,,,,,,,,,,,,,,,,,,,,,,,,,,,,,0.131929954,-0.049243887,1,0,0,..zizg,..zizg,0,1,1,11,1,mening,images/br_mening.png,images/cb_mening.png
,,,,,,00026,2023-09-03_09h16.50.941,vbt_B1_day1,2022.2.4,Linux x86_64,60.02040694,,,,,,,,,,,,,,,,,,,,,,,,,,,,,,,,,,,,,,,,,,,0.075232347,0.063637098,1,0,0,.ak..,.ak..,0,2,2,5,1,maken,images/br_maken.png,images/cb_maken.png
,,,,,,00026,2023-09-03_09h16.50.941,vbt_B1_day1,2022.2.4,Linux x86_64,60.02040694,,,,,,,,,,,,,,,,,,,,,,,,,,,,,,,,,,,,,,,,,,,0.111774683,-0.007944981,1,0,0,........,........,0,3,3,57,1,meenemen,images/br_meenemen.png,images/cb_meenemen.png
,,,,,,00026,2023-09-03_09h16.50.941,vbt_B1_day1,2022.2.4,Linux x86_64,60.02040694,,,,,,,,,,,,,,,,,,,,,,,,,,,,,,,,,,,,,,,,,,,0.105640332,0.057624499,1,0,0,.....k,.....k,0,4,4,10,1,muziek,images/br_muziek.png,images/cb_muziek.png
,,,,,,00026,2023-09-03_09h16.50.941,vbt_B1_day1,2022.2.4,Linux x86_64,60.02040694,,,,,,,,,,,,,,,,,,,,,,,,,,,,,,,,,,,,,,,,,,,0.082582633,0.021104614,1,0,0,att....,att....,0,5,5,17,1,attentie,images/br_attentie.png,images/cb_attentie.png
,,,,,,00026,2023-09-03_09h16.50.941,vbt_B1_day1,2022.2.4,Linux x86_64,60.02040694,,,,,,,,,,,,,,,,,,,,,,,,,,,,,,,,,,,,,,,,,,,-0.001959165,-0.077041864,1,0,0,t.k...,t.k...,0,6,6,55,1,tekenen,images/br_tekenen.png,images/cb_tekenen.png
,,,,,,00026,2023-09-03_09h16.50.941,vbt_B1_day1,2022.2.4,Linux x86_64,60.02040694,,,,,,,,,,,,,,,,,,,,,,,,,,,,,,,,,,,,,,,,,,,-0.05967768,0.089951436,1,0,0,.ook..k,.ook..k,0,7,7,58,1,voorkeur,images/br_voorkeur.png,images/cb_voorkeur.png
,,,,,,00026,2023-09-03_09h16.50.941,vbt_B1_day1,2022.2.4,Linux x86_64,60.02040694,,,,,,,,,,,,,,,,,,,,,,,,,,,,,,,,,,,,,,,,,,,0.163219293,-0.008996129,1,0,0,....la.,....la.,0,8,8,52,1,zuiplap,images/br_zuiplap.png,images/cb_zuiplap.png
,,,,,,00026,2023-09-03_09h16.50.941,vbt_B1_day1,2022.2.4,Linux x86_64,60.02040694,,,,,,,,,,,,,,,,,,,,,,,,,,,,,,,,,,,,,,,,,,,0.063250542,0.012212714,1,0,0,.rort,.rort,0,9,9,27,1,prort,images/br_prort.png,images/cb_prort.png
,,,,,,00026,2023-09-03_09h16.50.941,vbt_B1_day1,2022.2.4,Linux x86_64,60.02040694,,,,,,,,,,,,,,,,,,,,,,,,,,,,,,,,,,,,,,,,,,,-0.245457053,0.040998658,1,0,0,kal.w,kal.w,0,10,10,7,1,klauw,images/br_klauw.png,images/cb_klauw.png
,,,,,,00026,2023-09-03_09h16.50.941,vbt_B1_day1,2022.2.4,Linux x86_64,60.02040694,,,,,,,,,,,,,,,,,,,,,,,,,,,,,,,,,,,,,,,,,,,-0.023829142,0.029731512,1,0,0,t...t,t...t,0,11,11,24,1,rezer,images/br_rezer.png,images/cb_rezer.png
,,,,,,00026,2023-09-03_09h16.50.941,vbt_B1_day1,2022.2.4,Linux x86_64,60.02040694,,,,,,,,,,,,,,,,,,,,,,,,,,,,,,,,,,,,,,,,,,,-0.039527337,0.134121656,1,0,0,..ta...,..ta...,0,12,12,36,1,vervaden,images/br_vervaden.png,images/cb_vervaden.png
,,,,,,00026,2023-09-03_09h16.50.941,vbt_B1_day1,2022.2.4,Linux x86_64,60.02040694,,,,,,,,,,,,,,,,,,,,,,,,,,,,,,,,,,,,,,,,,,,-0.093963782,0.028259317,1,0,0,....l,....l,0,13,13,45,1,hemel,images/br_hemel.png,images/cb_hemel.png
,,,,,,00026,2023-09-03_09h16.50.941,vbt_B1_day1,2022.2.4,Linux x86_64,60.02040694,,,,,,,,,,,,,,,,,,,,,,,,,,,,,,,,,,,,,,,,,,,-0.210936626,0.081272801,1,0,0,.i..ti,.i..ti,0,14,14,48,1,fictie,images/br_fictie.png,images/cb_fictie.png
,,,,,,00026,2023-09-03_09h16.50.941,vbt_B1_day1,2022.2.4,Linux x86_64,60.02040694,,,,,,,,,,,,,,,,,,,,,,,,,,,,,,,,,,,,,,,,,,,0.002293984,0.020205816,1,0,0,kl...e..,kl...e..,0,15,15,12,1,klimmen,images/br_klimmen.png,images/cb_klimmen.png
,,,,,,00026,2023-09-03_09h16.50.941,vbt_B1_day1,2022.2.4,Linux x86_64,60.02040694,,,,,,,,,,,,,,,,,,,,,,,,,,,,,,,,,,,,,,,,,,,0.123772462,0.006110072,1,0,0,la.l,la.l,0,16,16,43,1,lava,images/br_lava.png,images/cb_lava.png
,,,,,,00026,2023-09-03_09h16.50.941,vbt_B1_day1,2022.2.4,Linux x86_64,60.02040694,,,,,,,,,,,,,,,,,,,,,,,,,,,,,,,,,,,,,,,,,,,-0.013759375,-0.204601447,1,0,0,lo,lo,0,17,17,34,1,lochten,images/br_lochten.png,images/cb_lochten.png
,,,,,,00026,2023-09-03_09h16.50.941,vbt_B1_day1,2022.2.4,Linux x86_64,60.02040694,,,,,,,,,,,,,,,,,,,,,,,,,,,,,,,,,,,,,,,,,,,0.07567207,-0.104703387,1,0,0,......,......,0,18,18,14,1,waarvan,images/br_waarvan.png,images/cb_waarvan.png
,,,,,,00026,2023-09-03_09h16.50.941,vbt_B1_day1,2022.2.4,Linux x86_64,60.02040694,,,,,,,,,,,,,,,,,,,,,,,,,,,,,,,,,,,,,,,,,,,0.121812185,0.044078827,1,0,0,rt..k..,rt..k..,0,19,19,35,1,stuikem,images/br_stuikem.png,images/cb_stuikem.png
,,,,,,00026,2023-09-03_09h16.50.941,vbt_B1_day1,2022.2.4,Linux x86_64,60.02040694,,,,,,,,,,,,,,,,,,,,,,,,,,,,,,,,,,,,,,,,,,,0.078615189,0.038604657,1,0,0,.oog,.oog,0,20,20,41,1,hoog,images/br_hoog.png,images/cb_hoog.png
,,,,,,00026,2023-09-03_09h16.50.941,vbt_B1_day1,2022.2.4,Linux x86_64,60.02040694,,,,,,,,,,,,,,,,,,,,,,,,,,,,,,,,,,,,,,,,,,,-0.075102727,0.106084148,1,0,0,jaar,jaar,0,21,21,2,1,jaar,images/br_jaar.png,images/cb_jaar.png
,,,,,,00026,2023-09-03_09h16.50.941,vbt_B1_day1,2022.2.4,Linux x86_64,60.02040694,,,,,,,,,,,,,,,,,,,,,,,,,,,,,,,,,,,,,,,,,,,0.325000366,-0.013265093,1,0,0,ree..e,ree..e,0,22,22,30,1,reedje,images/br_reedje.png,images/cb_reedje.png
,,,,,,00026,2023-09-03_09h16.50.941,vbt_B1_day1,2022.2.4,Linux x86_64,60.02040694,,,,,,,,,,,,,,,,,,,,,,,,,,,,,,,,,,,,,,,,,,,-0.097792546,-0.115832845,1,0,0,le.e..,le.e..,0,23,23,46,1,lezen,images/br_lezen.png,images/cb_lezen.png
,,,,,,00026,2023-09-03_09h16.50.941,vbt_B1_day1,2022.2.4,Linux x86_64,60.02040694,,,,,,,,,,,,,,,,,,,,,,,,,,,,,,,,,,,,,,,,,,,-0.047377586,0.048198779,1,0,0,.oorr...,.oorr...,0,24,24,39,1,voorreur,images/br_voorreur.png,images/cb_voorreur.png
,,,,,,00026,2023-09-03_09h16.50.941,vbt_B1_day1,2022.2.4,Linux x86_64,60.02040694,,,,,,,,,,,,,,,,,,,,,,,,,,,,,,,,,,,,,,,,,,,0.077514172,0.001933297,1,0,0,.l.lli.,.l.lli.,0,25,25,33,1,flullen,images/br_flullen.png,images/cb_flullen.png
,,,,,,00026,2023-09-03_09h16.50.941,vbt_B1_day1,2022.2.4,Linux x86_64,60.02040694,,,,,,,,,,,,,,,,,,,,,,,,,,,,,,,,,,,,,,,,,,,-0.161907434,-0.053533673,1,0,0,st....,st....,0,26,26,31,1,stamen,images/br_stamen.png,images/cb_stamen.png
,,,,,,00026,2023-09-03_09h16.50.941,vbt_B1_day1,2022.2.4,Linux x86_64,60.02040694,,,,,,,,,,,,,,,,,,,,,,,,,,,,,,,,,,,,,,,,,,,-0.168221951,0.045772274,1,0,0,zaal,zaal,0,27,27,1,1,zaal,images/br_zaal.png,images/cb_zaal.png
,,,,,,00026,2023-09-03_09h16.50.941,vbt_B1_day1,2022.2.4,Linux x86_64,60.02040694,,,,,,,,,,,,,,,,,,,,,,,,,,,,,,,,,,,,,,,,,,,-0.000250896,0.039893111,1,0,0,st.w,st.w,0,28,28,42,1,stuk,images/br_stuk.png,images/cb_stuk.png
,,,,,,00026,2023-09-03_09h16.50.941,vbt_B1_day1,2022.2.4,Linux x86_64,60.02040694,,,,,,,,,,,,,,,,,,,,,,,,,,,,,,,,,,,,,,,,,,,0.013657888,0.071763515,1,0,0,.i.ie.r,.i.ie.r,0,29,29,49,1,vizier,images/br_vizier.png,images/cb_vizier.png
,,,,,,00026,2023-09-03_09h16.50.941,vbt_B1_day1,2022.2.4,Linux x86_64,60.02040694,,,,,,,,,,,,,,,,,,,,,,,,,,,,,,,,,,,,,,,,,,,0.10413901,0.059022784,1,0,0,......,......,0,30,30,28,1,bebrip,images/br_bebrip.png,images/cb_bebrip.png
,,,,,,00026,2023-09-03_09h16.50.941,vbt_B1_day1,2022.2.4,Linux x86_64,60.02040694,,,,,,,,,,,,,,,,,,,,,,,,,,,,,,,,,,,,,,,,,,,0.074595054,0.019453486,1,0,0,.alo.,.alo.,0,31,31,26,1,valop,images/br_valop.png,images/cb_valop.png
,,,,,,00026,2023-09-03_09h16.50.941,vbt_B1_day1,2022.2.4,Linux x86_64,60.02040694,,,,,,,,,,,,,,,,,,,,,,,,,,,,,,,,,,,,,,,,,,,-0.050222317,-0.027760903,1,0,0,.aar...,.aar...,0,32,32,16,1,daarheen,images/br_daarheen.png,images/cb_daarheen.png
,,,,,,00026,2023-09-03_09h16.50.941,vbt_B1_day1,2022.2.4,Linux x86_64,60.02040694,,,,,,,,,,,,,,,,,,,,,,,,,,,,,,,,,,,,,,,,,,,0.073146184,0.11654369,1,0,0,....t.g,....t.g,0,33,33,54,1,vijftig,images/br_vijftig.png,images/cb_vijftig.png
,,,,,,00026,2023-09-03_09h16.50.941,vbt_B1_day1,2022.2.4,Linux x86_64,60.02040694,,,,,,,,,,,,,,,,,,,,,,,,,,,,,,,,,,,,,,,,,,,0.132991314,0.010478298,1,0,0,w....,w....,0,34,34,44,1,wijze,images/br_wijze.png,images/cb_wijze.png
,,,,,,00026,2023-09-03_09h16.50.941,vbt_B1_day1,2022.2.4,Linux x86_64,60.02040694,,,,,,,,,,,,,,,,,,,,,,,,,,,,,,,,,,,,,,,,,,,-0.074091673,0.129696568,1,0,0,.l....,.l....,0,35,35,6,1,bleek,images/br_bleek.png,images/cb_bleek.png
,,,,,,00026,2023-09-03_09h16.50.941,vbt_B1_day1,2022.2.4,Linux x86_64,60.02040694,,,,,,,,,,,,,,,,,,,,,,,,,,,,,,,,,,,,,,,,,,,0.0444719,-0.039222002,1,0,0,loo.s,loo.s,0,36,36,47,1,loods,images/br_loods.png,images/cb_loods.png
,,,,,,00026,2023-09-03_09h16.50.941,vbt_B1_day1,2022.2.4,Linux x86_64,60.02040694,,,,,,,,,,,,,,,,,,,,,,,,,,,,,,,,,,,,,,,,,,,0.013697465,-0.07076172,1,0,0,.a..,.a..,0,37,37,3,1,mand,images/br_mand.png,images/cb_mand.png
,,,,,,00026,2023-09-03_09h16.50.941,vbt_B1_day1,2022.2.4,Linux x86_64,60.02040694,,,,,,,,,,,,,,,,,,,,,,,,,,,,,,,,,,,,,,,,,,,0.105913162,-0.010078192,1,0,0,l....s..,l....s..,0,38,38,38,1,schielen,images/br_schielen.png,images/cb_schielen.png
,,,,,,00026,2023-09-03_09h16.50.941,vbt_B1_day1,2022.2.4,Linux x86_64,60.02040694,,,,,,,,,,,,,,,,,,,,,,,,,,,,,,,,,,,,,,,,,,,0.133085092,-0.117041906,1,0,0,s....,s....,0,39,39,4,1,schep,images/br_schep.png,images/cb_schep.png
,,,,,,00026,2023-09-03_09h16.50.941,vbt_B1_day1,2022.2.4,Linux x86_64,60.02040694,,,,,,,,,,,,,,,,,,,,,,,,,,,,,,,,,,,,,,,,,,,-0.0068717,0.134746909,1,0,0,s.a....g,s.a....g,0,40,40,37,1,spanzing,images/br_spanzing.png,images/cb_spanzing.png
,,,,,,00026,2023-09-03_09h16.50.941,vbt_B1_day1,2022.2.4,Linux x86_64,60.02040694,,,,,,,,,,,,,,,,,,,,,,,,,,,,,,,,,,,,,,,,,,,-0.086098115,-0.03933537,1,0,0,.r..,.r..,0,41,41,21,1,dred,images/br_dred.png,images/cb_dred.png
,,,,,,00026,2023-09-03_09h16.50.941,vbt_B1_day1,2022.2.4,Linux x86_64,60.02040694,,,,,,,,,,,,,,,,,,,,,,,,,,,,,,,,,,,,,,,,,,,0.027791818,0.000423868,1,0,0,liegew,liegew,0,42,42,50,1,liegen,images/br_liegen.png,images/cb_liegen.png
,,,,,,00026,2023-09-03_09h16.50.941,vbt_B1_day1,2022.2.4,Linux x86_64,60.02040694,,,,,,,,,,,,,,,,,,,,,,,,,,,,,,,,,,,,,,,,,,,0.109085878,0.011261066,1,0,0,.ri...,.ri...,0,43,43,25,1,brijk,images/br_brijk.png,images/cb_brijk.png
,,,,,,00026,2023-09-03_09h16.50.941,vbt_B1_day1,2022.2.4,Linux x86_64,60.02040694,,,,,,,,,,,,,,,,,,,,,,,,,,,,,,,,,,,,,,,,,,,0.043431123,-0.016035636,1,0,0,....el,....el,0,44,44,9,1,dubbel,images/br_dubbel.png,images/cb_dubbel.png
,,,,,,00026,2023-09-03_09h16.50.941,vbt_B1_day1,2022.2.4,Linux x86_64,60.02040694,,,,,,,,,,,,,,,,,,,,,,,,,,,,,,,,,,,,,,,,,,,0.006676594,0.019826492,1,0,0,.it.il..,.it.il..,0,45,45,18,1,uitdelen,images/br_uitdelen.png,images/cb_uitdelen.png
,,,,,,00026,2023-09-03_09h16.50.941,vbt_B1_day1,2022.2.4,Linux x86_64,60.02040694,,,,,,,,,,,,,,,,,,,,,,,,,,,,,,,,,,,,,,,,,,,0.056055466,-0.081059138,1,0,0,s...il..,s...il..,0,46,46,19,1,schuilen,images/br_schuilen.png,images/cb_schuilen.png
,,,,,,00026,2023-09-03_09h16.50.941,vbt_B1_day1,2022.2.4,Linux x86_64,60.02040694,,,,,,,,,,,,,,,,,,,,,,,,,,,,,,,,,,,,,,,,,,,-0.088736375,-0.066016237,1,0,0,o.att..,o.att..,0,47,47,59,1,opvatten,images/br_opvatten.png,images/cb_opvatten.png
,,,,,,00026,2023-09-03_09h16.50.941,vbt_B1_day1,2022.2.4,Linux x86_64,60.02040694,,,,,,,,,,,,,,,,,,,,,,,,,,,,,,,,,,,,,,,,,,,-0.107646386,-0.029924949,1,0,0,.ie.,.ie.,0,48,48,40,1,dief,images/br_dief.png,images/cb_dief.png
,,,,,,00026,2023-09-03_09h16.50.941,vbt_B1_day1,2022.2.4,Linux x86_64,60.02040694,,,,,,,,,,,,,,,,,,,,,,,,,,,,,,,,,,,,,,,,,,,0.071595828,-0.031392376,1,0,0,gi.o..,gi.o..,0,49,49,29,1,genond,images/br_genond.png,images/cb_genond.png
,,,,,,00026,2023-09-03_09h16.50.941,vbt_B1_day1,2022.2.4,Linux x86_64,60.02040694,,,,,,,,,,,,,,,,,,,,,,,,,,,,,,,,,,,,,,,,,,,0.03983434,0.205801348,1,0,0,kwo.,kwo.,0,50,50,22,1,knoe,images/br_knoe.png,images/cb_knoe.png
,,,,,,00026,2023-09-03_09h16.50.941,vbt_B1_day1,2022.2.4,Linux x86_64,60.02040694,,,,,,,,,,,,,,,,,,,,,,,,,,,,,,,,,,,,,,,,,,,-0.091066043,-0.023575068,1,0,0,lie..e,lie..e,0,51,51,51,1,liefde,images/br_liefde.png,images/cb_liefde.png
,,,,,,00026,2023-09-03_09h16.50.941,vbt_B1_day1,2022.2.4,Linux x86_64,60.02040694,,,,,,,,,,,,,,,,,,,,,,,,,,,,,,,,,,,,,,,,,,,-0.069446325,-0.065235853,1,0,0,.ooe,.ooe,0,52,52,23,1,booi,images/br_booi.png,images/cb_booi.png
,,,,,,00026,2023-09-03_09h16.50.941,vbt_B1_day1,2022.2.4,Linux x86_64,60.02040694,,,,,,,,,,,,,,,,,,,,,,,,,,,,,,,,,,,,,,,,,,,0.180624167,0.06954058,1,0,0,t..i.e.,t..i.e.,0,53,53,13,1,twijfel,images/br_twijfel.png,images/cb_twijfel.png
,,,,,,00026,2023-09-03_09h16.50.941,vbt_B1_day1,2022.2.4,Linux x86_64,60.02040694,,,,,,,,,,,,,,,,,,,,,,,,,,,,,,,,,,,,,,,,,,,0.149523894,0.008780082,1,0,0,kaw.ir,kaw.ir,0,54,54,8,1,kanjer,images/br_kanjer.png,images/cb_kanjer.png
,,,,,,00026,2023-09-03_09h16.50.941,vbt_B1_day1,2022.2.4,Linux x86_64,60.02040694,,,,,,,,,,,,,,,,,,,,,,,,,,,,,,,,,,,,,,,,,,,0.050624371,0.021597028,1,0,0,toe.i..,toe.i..,0,55,55,56,1,toezicht,images/br_toezicht.png,images/cb_toezicht.png
,,,,,,00026,2023-09-03_09h16.50.941,vbt_B1_day1,2022.2.4,Linux x86_64,60.02040694,,,,,,,,,,,,,,,,,,,,,,,,,,,,,,,,,,,,,,,,,,,0.15422972,0.010785977,1,0,0,tar.,tar.,0,56,56,20,1,tars,images/br_tars.png,images/cb_tars.png
,,,,,,00026,2023-09-03_09h16.50.941,vbt_B1_day1,2022.2.4,Linux x86_64,60.02040694,,,,,,,,,,,,,,,,,,,,,,,,,,,,,,,,,,,,,,,,,,,0.115478039,0.024804115,1,0,0,o..l.aa,o..l.aa,0,57,57,53,1,opslaan,images/br_opslaan.png,images/cb_opslaan.png
,,,,,,00026,2023-09-03_09h16.50.941,vbt_B1_day1,2022.2.4,Linux x86_64,60.02040694,,,,,,,,,,,,,,,,,,,,,,,,,,,,,,,,,,,,,,,,,,,-0.144627651,-0.017437855,1,0,0,o.aa..,o.aa..,0,58,58,32,1,opplaan,images/br_opplaan.png,images/cb_opplaan.png
,,,,,,00026,2023-09-03_09h16.50.941,vbt_B1_day1,2022.2.4,Linux x86_64,60.02040694,,,,,,,,,,,,,,,,,,,,,,,,,,,,,,,,,,,,,,,,,,,0.291307211,-0.076362371,1,0,0,slak,slak,0,59,59,0,1,slak,images/br_slak.png,images/cb_slak.png
,,,,,,00026,2023-09-03_09h16.50.941,vbt_B1_day1,2022.2.4,Linux x86_64,60.02040694,,,,,,,,,,,,,,,,,,,,,,,,,,,,,,,,,,,,,,,,,,,,,,,,,,,,,,,,,
