welcome_mouse.x,welcome_mouse.y,welcome_mouse.leftButton,welcome_mouse.midButton,welcome_mouse.rightButton,welcome_mouse.time,"ID",date,expName,psychopyVersion,OS,frameRate,mouse_2.x,mouse_2.y,mouse_2.leftButton,mouse_2.midButton,mouse_2.rightButton,mouse_2.time,mouse_3.x,mouse_3.y,mouse_3.leftButton,mouse_3.midButton,mouse_3.rightButton,mouse_3.time,train_mouse.x,train_mouse.y,train_mouse.leftButton,train_mouse.midButton,train_mouse.rightButton,train_mouse.time,braille_mouse.x,braille_mouse.y,braille_mouse.leftButton,braille_mouse.midButton,braille_mouse.rightButton,braille_mouse.time,trials.thisRepN,trials.thisTrialN,trials.thisN,trials.thisIndex,trials.ran,nlLet,brLet,cbLet,mouse.x,mouse.y,mouse.leftButton,mouse.midButton,mouse.rightButton,testInstr_mouse.x,testInstr_mouse.y,testInstr_mouse.leftButton,testInstr_mouse.midButton,testInstr_mouse.rightButton,test_mouse.x,test_mouse.y,test_mouse.leftButton,test_mouse.midButton,test_mouse.rightButton,test_response.text,testResp,test_loop.thisRepN,test_loop.thisTrialN,test_loop.thisN,test_loop.thisIndex,test_loop.ran,nlWrd,brWrd,cbWrd
0.15,0.038888889,1,0,0,8.7873,00087,2023-10-23_16h04.06.745,vbt_B1_day1,2022.2.4,Win32,42.15318467,,,,,,,,,,,,,,,,,,,,,,,,,,,,,,,,,,,,,,,,,,,,,,,,,,,,,,,,,
,,,,,,00087,2023-10-23_16h04.06.745,vbt_B1_day1,2022.2.4,Win32,42.15318467,0.038888889,-0.267592593,1,0,0,3.4287,,,,,,,,,,,,,,,,,,,,,,,,,,,,,,,,,,,,,,,,,,,,,,,,,,,
,,,,,,00087,2023-10-23_16h04.06.745,vbt_B1_day1,2022.2.4,Win32,42.15318467,,,,,,,0.024074074,-0.264814815,1,0,0,43.3824,,,,,,,,,,,,,,,,,,,,,,,,,,,,,,,,,,,,,,,,,,,,,
,,,,,,00087,2023-10-23_16h04.06.745,vbt_B1_day1,2022.2.4,Win32,42.15318467,,,,,,,,,,,,,0.023148148,-0.153703704,1,0,0,2.5357,,,,,,,,,,,,,,,,,,,,,,,,,,,,,,,,,,,,,,,
,,,,,,00087,2023-10-23_16h04.06.745,vbt_B1_day1,2022.2.4,Win32,42.15318467,,,,,,,,,,,,,,,,,,,0.269444444,-0.116666667,1,0,0,3.5713,0,0,0,10,1,k,images/br_k.png,images/cb_k.png,,,,,,,,,,,,,,,,,,,,,,,,,
,,,,,,00087,2023-10-23_16h04.06.745,vbt_B1_day1,2022.2.4,Win32,42.15318467,,,,,,,,,,,,,,,,,,,0.269444444,-0.116666667,1,0,0,1.6712,0,1,1,19,1,t,images/br_t.png,images/cb_t.png,,,,,,,,,,,,,,,,,,,,,,,,,
,,,,,,00087,2023-10-23_16h04.06.745,vbt_B1_day1,2022.2.4,Win32,42.15318467,,,,,,,,,,,,,,,,,,,0.269444444,-0.116666667,1,0,0,3.31,0,2,2,12,1,m,images/br_m.png,images/cb_m.png,,,,,,,,,,,,,,,,,,,,,,,,,
,,,,,,00087,2023-10-23_16h04.06.745,vbt_B1_day1,2022.2.4,Win32,42.15318467,,,,,,,,,,,,,,,,,,,0.269444444,-0.116666667,1,0,0,3.3728,0,3,3,16,1,q,images/br_q.png,images/cb_q.png,,,,,,,,,,,,,,,,,,,,,,,,,
,,,,,,00087,2023-10-23_16h04.06.745,vbt_B1_day1,2022.2.4,Win32,42.15318467,,,,,,,,,,,,,,,,,,,0.269444444,-0.116666667,1,0,0,1.8415,0,4,4,1,1,b,images/br_b.png,images/cb_b.png,,,,,,,,,,,,,,,,,,,,,,,,,
,,,,,,00087,2023-10-23_16h04.06.745,vbt_B1_day1,2022.2.4,Win32,42.15318467,,,,,,,,,,,,,,,,,,,0.269444444,-0.116666667,1,0,0,5.1294,0,5,5,15,1,p,images/br_p.png,images/cb_p.png,,,,,,,,,,,,,,,,,,,,,,,,,
,,,,,,00087,2023-10-23_16h04.06.745,vbt_B1_day1,2022.2.4,Win32,42.15318467,,,,,,,,,,,,,,,,,,,0.221296296,-0.09537037,0,1,0,6.8638,0,6,6,17,1,r,images/br_r.png,images/cb_r.png,,,,,,,,,,,,,,,,,,,,,,,,,
,,,,,,00087,2023-10-23_16h04.06.745,vbt_B1_day1,2022.2.4,Win32,42.15318467,,,,,,,,,,,,,,,,,,,0.221296296,-0.09537037,0,0,1,5.0003,0,7,7,5,1,f,images/br_f.png,images/cb_f.png,,,,,,,,,,,,,,,,,,,,,,,,,
,,,,,,00087,2023-10-23_16h04.06.745,vbt_B1_day1,2022.2.4,Win32,42.15318467,,,,,,,,,,,,,,,,,,,0.172222222,-0.10462963,1,0,0,2.4829,0,8,8,11,1,l,images/br_l.png,images/cb_l.png,,,,,,,,,,,,,,,,,,,,,,,,,
,,,,,,00087,2023-10-23_16h04.06.745,vbt_B1_day1,2022.2.4,Win32,42.15318467,,,,,,,,,,,,,,,,,,,0.172222222,-0.10462963,1,0,0,1.7127,0,9,9,4,1,e,images/br_e.png,images/cb_e.png,,,,,,,,,,,,,,,,,,,,,,,,,
,,,,,,00087,2023-10-23_16h04.06.745,vbt_B1_day1,2022.2.4,Win32,42.15318467,,,,,,,,,,,,,,,,,,,0.172222222,-0.10462963,1,0,0,1.7344,0,10,10,14,1,o,images/br_o.png,images/cb_o.png,,,,,,,,,,,,,,,,,,,,,,,,,
,,,,,,00087,2023-10-23_16h04.06.745,vbt_B1_day1,2022.2.4,Win32,42.15318467,,,,,,,,,,,,,,,,,,,0.172222222,-0.10462963,1,0,0,1.3165,0,11,11,6,1,g,images/br_g.png,images/cb_g.png,,,,,,,,,,,,,,,,,,,,,,,,,
,,,,,,00087,2023-10-23_16h04.06.745,vbt_B1_day1,2022.2.4,Win32,42.15318467,,,,,,,,,,,,,,,,,,,0.172222222,-0.10462963,1,0,0,3.5708,0,12,12,24,1,y,images/br_y.png,images/cb_y.png,,,,,,,,,,,,,,,,,,,,,,,,,
,,,,,,00087,2023-10-23_16h04.06.745,vbt_B1_day1,2022.2.4,Win32,42.15318467,,,,,,,,,,,,,,,,,,,0.172222222,-0.10462963,1,0,0,2.5937,0,13,13,18,1,s,images/br_s.png,images/cb_s.png,,,,,,,,,,,,,,,,,,,,,,,,,
,,,,,,00087,2023-10-23_16h04.06.745,vbt_B1_day1,2022.2.4,Win32,42.15318467,,,,,,,,,,,,,,,,,,,-0.005555556,-0.000925926,1,0,0,3.1419,0,14,14,21,1,v,images/br_v.png,images/cb_v.png,,,,,,,,,,,,,,,,,,,,,,,,,
,,,,,,00087,2023-10-23_16h04.06.745,vbt_B1_day1,2022.2.4,Win32,42.15318467,,,,,,,,,,,,,,,,,,,0.318518519,-0.127777778,1,0,0,2.1087,0,15,15,7,1,h,images/br_h.png,images/cb_h.png,,,,,,,,,,,,,,,,,,,,,,,,,
,,,,,,00087,2023-10-23_16h04.06.745,vbt_B1_day1,2022.2.4,Win32,42.15318467,,,,,,,,,,,,,,,,,,,0.318518519,-0.127777778,1,0,0,1.6457,0,16,16,20,1,u,images/br_u.png,images/cb_u.png,,,,,,,,,,,,,,,,,,,,,,,,,
,,,,,,00087,2023-10-23_16h04.06.745,vbt_B1_day1,2022.2.4,Win32,42.15318467,,,,,,,,,,,,,,,,,,,0.318518519,-0.127777778,1,0,0,0.733,0,17,17,9,1,j,images/br_j.png,images/cb_j.png,,,,,,,,,,,,,,,,,,,,,,,,,
,,,,,,00087,2023-10-23_16h04.06.745,vbt_B1_day1,2022.2.4,Win32,42.15318467,,,,,,,,,,,,,,,,,,,0.318518519,-0.127777778,1,0,0,2.4679,0,18,18,2,1,c,images/br_c.png,images/cb_c.png,,,,,,,,,,,,,,,,,,,,,,,,,
,,,,,,00087,2023-10-23_16h04.06.745,vbt_B1_day1,2022.2.4,Win32,42.15318467,,,,,,,,,,,,,,,,,,,0.318518519,-0.127777778,1,0,0,7.155,0,19,19,8,1,i,images/br_i.png,images/cb_i.png,,,,,,,,,,,,,,,,,,,,,,,,,
,,,,,,00087,2023-10-23_16h04.06.745,vbt_B1_day1,2022.2.4,Win32,42.15318467,,,,,,,,,,,,,,,,,,,0.318518519,-0.127777778,1,0,0,3.3815,0,20,20,13,1,n,images/br_n.png,images/cb_n.png,,,,,,,,,,,,,,,,,,,,,,,,,
,,,,,,00087,2023-10-23_16h04.06.745,vbt_B1_day1,2022.2.4,Win32,42.15318467,,,,,,,,,,,,,,,,,,,0.318518519,-0.127777778,1,0,0,1.5436,0,21,21,3,1,d,images/br_d.png,images/cb_d.png,,,,,,,,,,,,,,,,,,,,,,,,,
,,,,,,00087,2023-10-23_16h04.06.745,vbt_B1_day1,2022.2.4,Win32,42.15318467,,,,,,,,,,,,,,,,,,,0.318518519,-0.127777778,1,0,0,0.9297,0,22,22,0,1,a,images/br_a.png,images/cb_a.png,,,,,,,,,,,,,,,,,,,,,,,,,
,,,,,,00087,2023-10-23_16h04.06.745,vbt_B1_day1,2022.2.4,Win32,42.15318467,,,,,,,,,,,,,,,,,,,0.318518519,-0.127777778,1,0,0,0.6721,0,23,23,23,1,x,images/br_x.png,images/cb_x.png,,,,,,,,,,,,,,,,,,,,,,,,,
,,,,,,00087,2023-10-23_16h04.06.745,vbt_B1_day1,2022.2.4,Win32,42.15318467,,,,,,,,,,,,,,,,,,,0.318518519,-0.127777778,1,0,0,0.4265,0,24,24,22,1,w,images/br_w.png,images/cb_w.png,,,,,,,,,,,,,,,,,,,,,,,,,
,,,,,,00087,2023-10-23_16h04.06.745,vbt_B1_day1,2022.2.4,Win32,42.15318467,,,,,,,,,,,,,,,,,,,0.318518519,-0.127777778,1,0,0,0.8322,0,25,25,25,1,z,images/br_z.png,images/cb_z.png,,,,,,,,,,,,,,,,,,,,,,,,,
,,,,,,00087,2023-10-23_16h04.06.745,vbt_B1_day1,2022.2.4,Win32,42.15318467,,,,,,,,,,,,,,,,,,,0.014814815,-0.093518519,1,0,0,3.4873,1,0,26,12,1,m,images/br_m.png,images/cb_m.png,,,,,,,,,,,,,,,,,,,,,,,,,
,,,,,,00087,2023-10-23_16h04.06.745,vbt_B1_day1,2022.2.4,Win32,42.15318467,,,,,,,,,,,,,,,,,,,-0.016666667,-0.028703704,1,0,0,1.5376,1,1,27,0,1,a,images/br_a.png,images/cb_a.png,,,,,,,,,,,,,,,,,,,,,,,,,
,,,,,,00087,2023-10-23_16h04.06.745,vbt_B1_day1,2022.2.4,Win32,42.15318467,,,,,,,,,,,,,,,,,,,0.02962963,-0.02962963,1,0,0,1.6897,1,2,28,13,1,n,images/br_n.png,images/cb_n.png,,,,,,,,,,,,,,,,,,,,,,,,,
,,,,,,00087,2023-10-23_16h04.06.745,vbt_B1_day1,2022.2.4,Win32,42.15318467,,,,,,,,,,,,,,,,,,,-0.001851852,-0.010185185,1,0,0,0.4651,1,3,29,20,1,u,images/br_u.png,images/cb_u.png,,,,,,,,,,,,,,,,,,,,,,,,,
,,,,,,00087,2023-10-23_16h04.06.745,vbt_B1_day1,2022.2.4,Win32,42.15318467,,,,,,,,,,,,,,,,,,,-0.005555556,-0.040740741,1,0,0,2.6619,1,4,30,8,1,i,images/br_i.png,images/cb_i.png,,,,,,,,,,,,,,,,,,,,,,,,,
,,,,,,00087,2023-10-23_16h04.06.745,vbt_B1_day1,2022.2.4,Win32,42.15318467,,,,,,,,,,,,,,,,,,,-0.017592593,-0.147222222,1,0,0,1.5685,1,5,31,10,1,k,images/br_k.png,images/cb_k.png,,,,,,,,,,,,,,,,,,,,,,,,,
,,,,,,00087,2023-10-23_16h04.06.745,vbt_B1_day1,2022.2.4,Win32,42.15318467,,,,,,,,,,,,,,,,,,,-0.017592593,-0.147222222,1,0,0,0.0249,1,6,32,22,1,w,images/br_w.png,images/cb_w.png,,,,,,,,,,,,,,,,,,,,,,,,,
,,,,,,00087,2023-10-23_16h04.06.745,vbt_B1_day1,2022.2.4,Win32,42.15318467,,,,,,,,,,,,,,,,,,,0.006481481,-0.053703704,1,0,0,1.1803,1,7,33,6,1,g,images/br_g.png,images/cb_g.png,,,,,,,,,,,,,,,,,,,,,,,,,
,,,,,,00087,2023-10-23_16h04.06.745,vbt_B1_day1,2022.2.4,Win32,42.15318467,,,,,,,,,,,,,,,,,,,0.006481481,-0.053703704,1,0,0,0.3128,1,8,34,24,1,y,images/br_y.png,images/cb_y.png,,,,,,,,,,,,,,,,,,,,,,,,,
,,,,,,00087,2023-10-23_16h04.06.745,vbt_B1_day1,2022.2.4,Win32,42.15318467,,,,,,,,,,,,,,,,,,,0,-0.058333333,1,0,0,2.0642,1,9,35,1,1,b,images/br_b.png,images/cb_b.png,,,,,,,,,,,,,,,,,,,,,,,,,
,,,,,,00087,2023-10-23_16h04.06.745,vbt_B1_day1,2022.2.4,Win32,42.15318467,,,,,,,,,,,,,,,,,,,0,-0.058333333,1,0,0,2.1939,1,10,36,5,1,f,images/br_f.png,images/cb_f.png,,,,,,,,,,,,,,,,,,,,,,,,,
,,,,,,00087,2023-10-23_16h04.06.745,vbt_B1_day1,2022.2.4,Win32,42.15318467,,,,,,,,,,,,,,,,,,,0,-0.058333333,1,0,0,0.669,1,11,37,2,1,c,images/br_c.png,images/cb_c.png,,,,,,,,,,,,,,,,,,,,,,,,,
,,,,,,00087,2023-10-23_16h04.06.745,vbt_B1_day1,2022.2.4,Win32,42.15318467,,,,,,,,,,,,,,,,,,,0,-0.058333333,1,0,0,1.3729,1,12,38,25,1,z,images/br_z.png,images/cb_z.png,,,,,,,,,,,,,,,,,,,,,,,,,
,,,,,,00087,2023-10-23_16h04.06.745,vbt_B1_day1,2022.2.4,Win32,42.15318467,,,,,,,,,,,,,,,,,,,-0.006481481,-0.027777778,1,0,0,1.1452,1,13,39,11,1,l,images/br_l.png,images/cb_l.png,,,,,,,,,,,,,,,,,,,,,,,,,
,,,,,,00087,2023-10-23_16h04.06.745,vbt_B1_day1,2022.2.4,Win32,42.15318467,,,,,,,,,,,,,,,,,,,-0.003703704,0.003703704,1,0,0,0.5779,1,14,40,16,1,q,images/br_q.png,images/cb_q.png,,,,,,,,,,,,,,,,,,,,,,,,,
,,,,,,00087,2023-10-23_16h04.06.745,vbt_B1_day1,2022.2.4,Win32,42.15318467,,,,,,,,,,,,,,,,,,,-0.003703704,0.003703704,1,0,0,0.0741,1,15,41,23,1,x,images/br_x.png,images/cb_x.png,,,,,,,,,,,,,,,,,,,,,,,,,
,,,,,,00087,2023-10-23_16h04.06.745,vbt_B1_day1,2022.2.4,Win32,42.15318467,,,,,,,,,,,,,,,,,,,-0.003703704,0.003703704,1,0,0,0.1483,1,16,42,9,1,j,images/br_j.png,images/cb_j.png,,,,,,,,,,,,,,,,,,,,,,,,,
,,,,,,00087,2023-10-23_16h04.06.745,vbt_B1_day1,2022.2.4,Win32,42.15318467,,,,,,,,,,,,,,,,,,,-0.003703704,0.003703704,1,0,0,0.074,1,17,43,3,1,d,images/br_d.png,images/cb_d.png,,,,,,,,,,,,,,,,,,,,,,,,,
,,,,,,00087,2023-10-23_16h04.06.745,vbt_B1_day1,2022.2.4,Win32,42.15318467,,,,,,,,,,,,,,,,,,,-0.005555556,0.012962963,1,0,0,0.4609,1,18,44,19,1,t,images/br_t.png,images/cb_t.png,,,,,,,,,,,,,,,,,,,,,,,,,
,,,,,,00087,2023-10-23_16h04.06.745,vbt_B1_day1,2022.2.4,Win32,42.15318467,,,,,,,,,,,,,,,,,,,0.002777778,0.006481481,1,0,0,1.0536,1,19,45,15,1,p,images/br_p.png,images/cb_p.png,,,,,,,,,,,,,,,,,,,,,,,,,
,,,,,,00087,2023-10-23_16h04.06.745,vbt_B1_day1,2022.2.4,Win32,42.15318467,,,,,,,,,,,,,,,,,,,-0.124074074,0.008333333,1,0,0,0.2469,1,20,46,7,1,h,images/br_h.png,images/cb_h.png,,,,,,,,,,,,,,,,,,,,,,,,,
,,,,,,00087,2023-10-23_16h04.06.745,vbt_B1_day1,2022.2.4,Win32,42.15318467,,,,,,,,,,,,,,,,,,,-0.002777778,0.006481481,1,0,0,1.693,1,21,47,21,1,v,images/br_v.png,images/cb_v.png,,,,,,,,,,,,,,,,,,,,,,,,,
,,,,,,00087,2023-10-23_16h04.06.745,vbt_B1_day1,2022.2.4,Win32,42.15318467,,,,,,,,,,,,,,,,,,,-0.002777778,0.006481481,1,0,0,0.8288,1,22,48,17,1,r,images/br_r.png,images/cb_r.png,,,,,,,,,,,,,,,,,,,,,,,,,
,,,,,,00087,2023-10-23_16h04.06.745,vbt_B1_day1,2022.2.4,Win32,42.15318467,,,,,,,,,,,,,,,,,,,-0.002777778,0.006481481,1,0,0,0.6644,1,23,49,4,1,e,images/br_e.png,images/cb_e.png,,,,,,,,,,,,,,,,,,,,,,,,,
,,,,,,00087,2023-10-23_16h04.06.745,vbt_B1_day1,2022.2.4,Win32,42.15318467,,,,,,,,,,,,,,,,,,,-0.002777778,0.006481481,1,0,0,2.3579,1,24,50,18,1,s,images/br_s.png,images/cb_s.png,,,,,,,,,,,,,,,,,,,,,,,,,
,,,,,,00087,2023-10-23_16h04.06.745,vbt_B1_day1,2022.2.4,Win32,42.15318467,,,,,,,,,,,,,,,,,,,-0.002777778,0.006481481,1,0,0,1.2104,1,25,51,14,1,o,images/br_o.png,images/cb_o.png,,,,,,,,,,,,,,,,,,,,,,,,,
,,,,,,00087,2023-10-23_16h04.06.745,vbt_B1_day1,2022.2.4,Win32,42.15318467,,,,,,,,,,,,,,,,,,,-0.002777778,0.006481481,1,0,0,1.6692,2,0,52,14,1,o,images/br_o.png,images/cb_o.png,,,,,,,,,,,,,,,,,,,,,,,,,
,,,,,,00087,2023-10-23_16h04.06.745,vbt_B1_day1,2022.2.4,Win32,42.15318467,,,,,,,,,,,,,,,,,,,-0.003703704,0.005555556,1,0,0,0.3324,2,1,53,0,1,a,images/br_a.png,images/cb_a.png,,,,,,,,,,,,,,,,,,,,,,,,,
,,,,,,00087,2023-10-23_16h04.06.745,vbt_B1_day1,2022.2.4,Win32,42.15318467,,,,,,,,,,,,,,,,,,,-0.003703704,0.000925926,1,0,0,1.0495,2,2,54,20,1,u,images/br_u.png,images/cb_u.png,,,,,,,,,,,,,,,,,,,,,,,,,
,,,,,,00087,2023-10-23_16h04.06.745,vbt_B1_day1,2022.2.4,Win32,42.15318467,,,,,,,,,,,,,,,,,,,-0.003703704,0.000925926,0,0,1,0.2073,2,3,55,3,1,d,images/br_d.png,images/cb_d.png,,,,,,,,,,,,,,,,,,,,,,,,,
,,,,,,00087,2023-10-23_16h04.06.745,vbt_B1_day1,2022.2.4,Win32,42.15318467,,,,,,,,,,,,,,,,,,,0.00462963,0.018518519,1,0,0,0.3188,2,4,56,12,1,m,images/br_m.png,images/cb_m.png,,,,,,,,,,,,,,,,,,,,,,,,,
,,,,,,00087,2023-10-23_16h04.06.745,vbt_B1_day1,2022.2.4,Win32,42.15318467,,,,,,,,,,,,,,,,,,,0.00462963,0.018518519,1,0,0,0.5278,2,5,57,18,1,s,images/br_s.png,images/cb_s.png,,,,,,,,,,,,,,,,,,,,,,,,,
,,,,,,00087,2023-10-23_16h04.06.745,vbt_B1_day1,2022.2.4,Win32,42.15318467,,,,,,,,,,,,,,,,,,,-0.047222222,-0.012037037,1,0,0,1.1499,2,6,58,7,1,h,images/br_h.png,images/cb_h.png,,,,,,,,,,,,,,,,,,,,,,,,,
,,,,,,00087,2023-10-23_16h04.06.745,vbt_B1_day1,2022.2.4,Win32,42.15318467,,,,,,,,,,,,,,,,,,,0,-0.007407407,1,0,0,0.9105,2,7,59,5,1,f,images/br_f.png,images/cb_f.png,,,,,,,,,,,,,,,,,,,,,,,,,
,,,,,,00087,2023-10-23_16h04.06.745,vbt_B1_day1,2022.2.4,Win32,42.15318467,,,,,,,,,,,,,,,,,,,0.026851852,-0.064814815,1,0,0,7.8771,2,8,60,8,1,i,images/br_i.png,images/cb_i.png,,,,,,,,,,,,,,,,,,,,,,,,,
,,,,,,00087,2023-10-23_16h04.06.745,vbt_B1_day1,2022.2.4,Win32,42.15318467,,,,,,,,,,,,,,,,,,,0.041666667,-0.062962963,1,0,0,2.5451,2,9,61,24,1,y,images/br_y.png,images/cb_y.png,,,,,,,,,,,,,,,,,,,,,,,,,
,,,,,,00087,2023-10-23_16h04.06.745,vbt_B1_day1,2022.2.4,Win32,42.15318467,,,,,,,,,,,,,,,,,,,0.044444444,-0.037037037,1,0,0,4.2459,2,10,62,6,1,g,images/br_g.png,images/cb_g.png,,,,,,,,,,,,,,,,,,,,,,,,,
,,,,,,00087,2023-10-23_16h04.06.745,vbt_B1_day1,2022.2.4,Win32,42.15318467,,,,,,,,,,,,,,,,,,,0.044444444,-0.037037037,1,0,0,1.4459,2,11,63,1,1,b,images/br_b.png,images/cb_b.png,,,,,,,,,,,,,,,,,,,,,,,,,
,,,,,,00087,2023-10-23_16h04.06.745,vbt_B1_day1,2022.2.4,Win32,42.15318467,,,,,,,,,,,,,,,,,,,0.044444444,-0.037037037,1,0,0,0.6264,2,12,64,17,1,r,images/br_r.png,images/cb_r.png,,,,,,,,,,,,,,,,,,,,,,,,,
,,,,,,00087,2023-10-23_16h04.06.745,vbt_B1_day1,2022.2.4,Win32,42.15318467,,,,,,,,,,,,,,,,,,,0.003703704,-0.035185185,1,0,0,0.5521,2,13,65,11,1,l,images/br_l.png,images/cb_l.png,,,,,,,,,,,,,,,,,,,,,,,,,
,,,,,,00087,2023-10-23_16h04.06.745,vbt_B1_day1,2022.2.4,Win32,42.15318467,,,,,,,,,,,,,,,,,,,-0.003703704,-0.019444444,1,0,0,0.7275,2,14,66,4,1,e,images/br_e.png,images/cb_e.png,,,,,,,,,,,,,,,,,,,,,,,,,
,,,,,,00087,2023-10-23_16h04.06.745,vbt_B1_day1,2022.2.4,Win32,42.15318467,,,,,,,,,,,,,,,,,,,-0.003703704,-0.019444444,1,0,0,0.9778,2,15,67,21,1,v,images/br_v.png,images/cb_v.png,,,,,,,,,,,,,,,,,,,,,,,,,
,,,,,,00087,2023-10-23_16h04.06.745,vbt_B1_day1,2022.2.4,Win32,42.15318467,,,,,,,,,,,,,,,,,,,-0.008333333,0.010185185,1,0,0,1.5557,2,16,68,19,1,t,images/br_t.png,images/cb_t.png,,,,,,,,,,,,,,,,,,,,,,,,,
,,,,,,00087,2023-10-23_16h04.06.745,vbt_B1_day1,2022.2.4,Win32,42.15318467,,,,,,,,,,,,,,,,,,,-0.007407407,0.011111111,1,0,0,2.0273,2,17,69,25,1,z,images/br_z.png,images/cb_z.png,,,,,,,,,,,,,,,,,,,,,,,,,
,,,,,,00087,2023-10-23_16h04.06.745,vbt_B1_day1,2022.2.4,Win32,42.15318467,,,,,,,,,,,,,,,,,,,-0.00462963,-0.017592593,1,0,0,0.714,2,18,70,2,1,c,images/br_c.png,images/cb_c.png,,,,,,,,,,,,,,,,,,,,,,,,,
,,,,,,00087,2023-10-23_16h04.06.745,vbt_B1_day1,2022.2.4,Win32,42.15318467,,,,,,,,,,,,,,,,,,,-0.009259259,-0.031481481,1,0,0,3.2093,2,19,71,10,1,k,images/br_k.png,images/cb_k.png,,,,,,,,,,,,,,,,,,,,,,,,,
,,,,,,00087,2023-10-23_16h04.06.745,vbt_B1_day1,2022.2.4,Win32,42.15318467,,,,,,,,,,,,,,,,,,,-0.072222222,-0.200925926,1,0,0,1.2733,2,20,72,9,1,j,images/br_j.png,images/cb_j.png,,,,,,,,,,,,,,,,,,,,,,,,,
,,,,,,00087,2023-10-23_16h04.06.745,vbt_B1_day1,2022.2.4,Win32,42.15318467,,,,,,,,,,,,,,,,,,,-0.072222222,-0.200925926,1,0,0,0.2103,2,21,73,22,1,w,images/br_w.png,images/cb_w.png,,,,,,,,,,,,,,,,,,,,,,,,,
,,,,,,00087,2023-10-23_16h04.06.745,vbt_B1_day1,2022.2.4,Win32,42.15318467,,,,,,,,,,,,,,,,,,,-0.083333333,-0.256481481,1,0,0,0.2062,2,22,74,13,1,n,images/br_n.png,images/cb_n.png,,,,,,,,,,,,,,,,,,,,,,,,,
,,,,,,00087,2023-10-23_16h04.06.745,vbt_B1_day1,2022.2.4,Win32,42.15318467,,,,,,,,,,,,,,,,,,,-0.075925926,-0.268518519,1,0,0,0.3789,2,23,75,16,1,q,images/br_q.png,images/cb_q.png,,,,,,,,,,,,,,,,,,,,,,,,,
,,,,,,00087,2023-10-23_16h04.06.745,vbt_B1_day1,2022.2.4,Win32,42.15318467,,,,,,,,,,,,,,,,,,,0.062037037,-0.036111111,1,0,0,0.2053,2,24,76,23,1,x,images/br_x.png,images/cb_x.png,,,,,,,,,,,,,,,,,,,,,,,,,
,,,,,,00087,2023-10-23_16h04.06.745,vbt_B1_day1,2022.2.4,Win32,42.15318467,,,,,,,,,,,,,,,,,,,0.038888889,-0.025925926,0,0,1,0.4491,2,25,77,15,1,p,images/br_p.png,images/cb_p.png,,,,,,,,,,,,,,,,,,,,,,,,,
,,,,,,00087,2023-10-23_16h04.06.745,vbt_B1_day1,2022.2.4,Win32,42.15318467,,,,,,,,,,,,,,,,,,,0.015740741,0,0,1,0,0.2439,3,0,78,20,1,u,images/br_u.png,images/cb_u.png,,,,,,,,,,,,,,,,,,,,,,,,,
,,,,,,00087,2023-10-23_16h04.06.745,vbt_B1_day1,2022.2.4,Win32,42.15318467,,,,,,,,,,,,,,,,,,,0.009259259,-0.024074074,1,0,0,0.3955,3,1,79,0,1,a,images/br_a.png,images/cb_a.png,,,,,,,,,,,,,,,,,,,,,,,,,
,,,,,,00087,2023-10-23_16h04.06.745,vbt_B1_day1,2022.2.4,Win32,42.15318467,,,,,,,,,,,,,,,,,,,0.009259259,-0.024074074,1,0,0,1.2651,3,2,80,10,1,k,images/br_k.png,images/cb_k.png,,,,,,,,,,,,,,,,,,,,,,,,,
,,,,,,00087,2023-10-23_16h04.06.745,vbt_B1_day1,2022.2.4,Win32,42.15318467,,,,,,,,,,,,,,,,,,,0.003703704,-0.015740741,1,0,0,0.3278,3,3,81,4,1,e,images/br_e.png,images/cb_e.png,,,,,,,,,,,,,,,,,,,,,,,,,
,,,,,,00087,2023-10-23_16h04.06.745,vbt_B1_day1,2022.2.4,Win32,42.15318467,,,,,,,,,,,,,,,,,,,-0.008333333,-0.000925926,1,0,0,0.5673,3,4,82,22,1,w,images/br_w.png,images/cb_w.png,,,,,,,,,,,,,,,,,,,,,,,,,
,,,,,,00087,2023-10-23_16h04.06.745,vbt_B1_day1,2022.2.4,Win32,42.15318467,,,,,,,,,,,,,,,,,,,-0.014814815,-0.003703704,1,0,0,0.2315,3,5,83,13,1,n,images/br_n.png,images/cb_n.png,,,,,,,,,,,,,,,,,,,,,,,,,
,,,,,,00087,2023-10-23_16h04.06.745,vbt_B1_day1,2022.2.4,Win32,42.15318467,,,,,,,,,,,,,,,,,,,0.016666667,0,1,0,0,1.006,3,6,84,11,1,l,images/br_l.png,images/cb_l.png,,,,,,,,,,,,,,,,,,,,,,,,,
,,,,,,00087,2023-10-23_16h04.06.745,vbt_B1_day1,2022.2.4,Win32,42.15318467,,,,,,,,,,,,,,,,,,,0.016666667,0,1,0,0,0.9522,3,7,85,21,1,v,images/br_v.png,images/cb_v.png,,,,,,,,,,,,,,,,,,,,,,,,,
,,,,,,00087,2023-10-23_16h04.06.745,vbt_B1_day1,2022.2.4,Win32,42.15318467,,,,,,,,,,,,,,,,,,,0.005555556,0.007407407,1,0,0,2.0591,3,8,86,7,1,h,images/br_h.png,images/cb_h.png,,,,,,,,,,,,,,,,,,,,,,,,,
,,,,,,00087,2023-10-23_16h04.06.745,vbt_B1_day1,2022.2.4,Win32,42.15318467,,,,,,,,,,,,,,,,,,,-0.028703704,0.010185185,1,0,0,1.1275,3,9,87,25,1,z,images/br_z.png,images/cb_z.png,,,,,,,,,,,,,,,,,,,,,,,,,
,,,,,,00087,2023-10-23_16h04.06.745,vbt_B1_day1,2022.2.4,Win32,42.15318467,,,,,,,,,,,,,,,,,,,-0.001851852,0.003703704,1,0,0,1.281,3,10,88,15,1,p,images/br_p.png,images/cb_p.png,,,,,,,,,,,,,,,,,,,,,,,,,
,,,,,,00087,2023-10-23_16h04.06.745,vbt_B1_day1,2022.2.4,Win32,42.15318467,,,,,,,,,,,,,,,,,,,0.003024194,0.032258065,1,0,0,0.5549,3,11,89,9,1,j,images/br_j.png,images/cb_j.png,,,,,,,,,,,,,,,,,,,,,,,,,
,,,,,,00087,2023-10-23_16h04.06.745,vbt_B1_day1,2022.2.4,Win32,42.15318467,,,,,,,,,,,,,,,,,,,0.066666667,-0.042592593,1,0,0,1.4103,3,12,90,1,1,b,images/br_b.png,images/cb_b.png,,,,,,,,,,,,,,,,,,,,,,,,,
,,,,,,00087,2023-10-23_16h04.06.745,vbt_B1_day1,2022.2.4,Win32,42.15318467,,,,,,,,,,,,,,,,,,,-0.056481481,0.081481481,1,0,0,0.1889,3,13,91,3,1,d,images/br_d.png,images/cb_d.png,,,,,,,,,,,,,,,,,,,,,,,,,
,,,,,,00087,2023-10-23_16h04.06.745,vbt_B1_day1,2022.2.4,Win32,42.15318467,,,,,,,,,,,,,,,,,,,0.022222222,-0.053703704,1,0,0,0.8998,3,14,92,5,1,f,images/br_f.png,images/cb_f.png,,,,,,,,,,,,,,,,,,,,,,,,,
,,,,,,00087,2023-10-23_16h04.06.745,vbt_B1_day1,2022.2.4,Win32,42.15318467,,,,,,,,,,,,,,,,,,,0.022222222,-0.053703704,1,0,0,1.7157,3,15,93,2,1,c,images/br_c.png,images/cb_c.png,,,,,,,,,,,,,,,,,,,,,,,,,
,,,,,,00087,2023-10-23_16h04.06.745,vbt_B1_day1,2022.2.4,Win32,42.15318467,,,,,,,,,,,,,,,,,,,0.022222222,-0.053703704,1,0,0,2.1121,3,16,94,12,1,m,images/br_m.png,images/cb_m.png,,,,,,,,,,,,,,,,,,,,,,,,,
,,,,,,00087,2023-10-23_16h04.06.745,vbt_B1_day1,2022.2.4,Win32,42.15318467,,,,,,,,,,,,,,,,,,,0.022222222,-0.053703704,1,0,0,1.9501,3,17,95,6,1,g,images/br_g.png,images/cb_g.png,,,,,,,,,,,,,,,,,,,,,,,,,
,,,,,,00087,2023-10-23_16h04.06.745,vbt_B1_day1,2022.2.4,Win32,42.15318467,,,,,,,,,,,,,,,,,,,0.022222222,-0.053703704,1,0,0,0.0495,3,18,96,23,1,x,images/br_x.png,images/cb_x.png,,,,,,,,,,,,,,,,,,,,,,,,,
,,,,,,00087,2023-10-23_16h04.06.745,vbt_B1_day1,2022.2.4,Win32,42.15318467,,,,,,,,,,,,,,,,,,,0.009259259,-0.046296296,1,0,0,3.4434,3,19,97,18,1,s,images/br_s.png,images/cb_s.png,,,,,,,,,,,,,,,,,,,,,,,,,
,,,,,,00087,2023-10-23_16h04.06.745,vbt_B1_day1,2022.2.4,Win32,42.15318467,,,,,,,,,,,,,,,,,,,0.009259259,-0.046296296,1,0,0,12.7298,3,20,98,8,1,i,images/br_i.png,images/cb_i.png,,,,,,,,,,,,,,,,,,,,,,,,,
,,,,,,00087,2023-10-23_16h04.06.745,vbt_B1_day1,2022.2.4,Win32,42.15318467,,,,,,,,,,,,,,,,,,,-0.008333333,0.000925926,1,0,0,2.501,3,21,99,17,1,r,images/br_r.png,images/cb_r.png,,,,,,,,,,,,,,,,,,,,,,,,,
,,,,,,00087,2023-10-23_16h04.06.745,vbt_B1_day1,2022.2.4,Win32,42.15318467,,,,,,,,,,,,,,,,,,,-0.000925926,0.001851852,1,0,0,2.7576,3,22,100,19,1,t,images/br_t.png,images/cb_t.png,,,,,,,,,,,,,,,,,,,,,,,,,
,,,,,,00087,2023-10-23_16h04.06.745,vbt_B1_day1,2022.2.4,Win32,42.15318467,,,,,,,,,,,,,,,,,,,-0.000925926,0.001851852,1,0,0,2.2474,3,23,101,14,1,o,images/br_o.png,images/cb_o.png,,,,,,,,,,,,,,,,,,,,,,,,,
,,,,,,00087,2023-10-23_16h04.06.745,vbt_B1_day1,2022.2.4,Win32,42.15318467,,,,,,,,,,,,,,,,,,,-0.000925926,0.000925926,1,0,0,4.3538,3,24,102,16,1,q,images/br_q.png,images/cb_q.png,,,,,,,,,,,,,,,,,,,,,,,,,
,,,,,,00087,2023-10-23_16h04.06.745,vbt_B1_day1,2022.2.4,Win32,42.15318467,,,,,,,,,,,,,,,,,,,0,0.000925926,0,1,0,3.8216,3,25,103,24,1,y,images/br_y.png,images/cb_y.png,,,,,,,,,,,,,,,,,,,,,,,,,
,,,,,,00087,2023-10-23_16h04.06.745,vbt_B1_day1,2022.2.4,Win32,42.15318467,,,,,,,,,,,,,,,,,,,-0.009259259,-0.003703704,1,0,0,1.6314,4,0,104,0,1,a,images/br_a.png,images/cb_a.png,,,,,,,,,,,,,,,,,,,,,,,,,
,,,,,,00087,2023-10-23_16h04.06.745,vbt_B1_day1,2022.2.4,Win32,42.15318467,,,,,,,,,,,,,,,,,,,-0.009259259,-0.003703704,1,0,0,1.9073,4,1,105,7,1,h,images/br_h.png,images/cb_h.png,,,,,,,,,,,,,,,,,,,,,,,,,
,,,,,,00087,2023-10-23_16h04.06.745,vbt_B1_day1,2022.2.4,Win32,42.15318467,,,,,,,,,,,,,,,,,,,-0.009259259,-0.003703704,1,0,0,1.0635,4,2,106,4,1,e,images/br_e.png,images/cb_e.png,,,,,,,,,,,,,,,,,,,,,,,,,
,,,,,,00087,2023-10-23_16h04.06.745,vbt_B1_day1,2022.2.4,Win32,42.15318467,,,,,,,,,,,,,,,,,,,-0.009259259,-0.003703704,1,0,0,9.1731,4,3,107,13,1,n,images/br_n.png,images/cb_n.png,,,,,,,,,,,,,,,,,,,,,,,,,
,,,,,,00087,2023-10-23_16h04.06.745,vbt_B1_day1,2022.2.4,Win32,42.15318467,,,,,,,,,,,,,,,,,,,-0.009259259,-0.003703704,1,0,0,1.489,4,4,108,1,1,b,images/br_b.png,images/cb_b.png,,,,,,,,,,,,,,,,,,,,,,,,,
,,,,,,00087,2023-10-23_16h04.06.745,vbt_B1_day1,2022.2.4,Win32,42.15318467,,,,,,,,,,,,,,,,,,,0.013888889,-0.003703704,1,0,0,1.078,4,5,109,21,1,v,images/br_v.png,images/cb_v.png,,,,,,,,,,,,,,,,,,,,,,,,,
,,,,,,00087,2023-10-23_16h04.06.745,vbt_B1_day1,2022.2.4,Win32,42.15318467,,,,,,,,,,,,,,,,,,,0.055555556,0,0,0,1,1.6701,4,6,110,17,1,r,images/br_r.png,images/cb_r.png,,,,,,,,,,,,,,,,,,,,,,,,,
,,,,,,00087,2023-10-23_16h04.06.745,vbt_B1_day1,2022.2.4,Win32,42.15318467,,,,,,,,,,,,,,,,,,,0.127777778,-0.014814815,0,0,1,0.9287,4,7,111,10,1,k,images/br_k.png,images/cb_k.png,,,,,,,,,,,,,,,,,,,,,,,,,
,,,,,,00087,2023-10-23_16h04.06.745,vbt_B1_day1,2022.2.4,Win32,42.15318467,,,,,,,,,,,,,,,,,,,-0.000925926,0.00462963,1,0,0,2.588,4,8,112,23,1,x,images/br_x.png,images/cb_x.png,,,,,,,,,,,,,,,,,,,,,,,,,
,,,,,,00087,2023-10-23_16h04.06.745,vbt_B1_day1,2022.2.4,Win32,42.15318467,,,,,,,,,,,,,,,,,,,-0.000925926,0.00462963,1,0,0,1.7396,4,9,113,22,1,w,images/br_w.png,images/cb_w.png,,,,,,,,,,,,,,,,,,,,,,,,,
,,,,,,00087,2023-10-23_16h04.06.745,vbt_B1_day1,2022.2.4,Win32,42.15318467,,,,,,,,,,,,,,,,,,,-0.000925926,0.00462963,1,0,0,0.788,4,10,114,8,1,i,images/br_i.png,images/cb_i.png,,,,,,,,,,,,,,,,,,,,,,,,,
,,,,,,00087,2023-10-23_16h04.06.745,vbt_B1_day1,2022.2.4,Win32,42.15318467,,,,,,,,,,,,,,,,,,,-0.000925926,0.00462963,1,0,0,0.0422,4,11,115,20,1,u,images/br_u.png,images/cb_u.png,,,,,,,,,,,,,,,,,,,,,,,,,
,,,,,,00087,2023-10-23_16h04.06.745,vbt_B1_day1,2022.2.4,Win32,42.15318467,,,,,,,,,,,,,,,,,,,-0.000925926,0.00462963,1,0,0,3.1525,4,12,116,3,1,d,images/br_d.png,images/cb_d.png,,,,,,,,,,,,,,,,,,,,,,,,,
,,,,,,00087,2023-10-23_16h04.06.745,vbt_B1_day1,2022.2.4,Win32,42.15318467,,,,,,,,,,,,,,,,,,,-0.000925926,0.00462963,1,0,0,3.084,4,13,117,15,1,p,images/br_p.png,images/cb_p.png,,,,,,,,,,,,,,,,,,,,,,,,,
,,,,,,00087,2023-10-23_16h04.06.745,vbt_B1_day1,2022.2.4,Win32,42.15318467,,,,,,,,,,,,,,,,,,,-0.000925926,0.00462963,1,0,0,2.5518,4,14,118,12,1,m,images/br_m.png,images/cb_m.png,,,,,,,,,,,,,,,,,,,,,,,,,
,,,,,,00087,2023-10-23_16h04.06.745,vbt_B1_day1,2022.2.4,Win32,42.15318467,,,,,,,,,,,,,,,,,,,-0.000925926,0.00462963,1,0,0,2.7644,4,15,119,9,1,j,images/br_j.png,images/cb_j.png,,,,,,,,,,,,,,,,,,,,,,,,,
,,,,,,00087,2023-10-23_16h04.06.745,vbt_B1_day1,2022.2.4,Win32,42.15318467,,,,,,,,,,,,,,,,,,,-0.000925926,0.00462963,1,0,0,1.4394,4,16,120,25,1,z,images/br_z.png,images/cb_z.png,,,,,,,,,,,,,,,,,,,,,,,,,
,,,,,,00087,2023-10-23_16h04.06.745,vbt_B1_day1,2022.2.4,Win32,42.15318467,,,,,,,,,,,,,,,,,,,-0.006481481,0.007407407,1,0,0,2.1786,4,17,121,14,1,o,images/br_o.png,images/cb_o.png,,,,,,,,,,,,,,,,,,,,,,,,,
,,,,,,00087,2023-10-23_16h04.06.745,vbt_B1_day1,2022.2.4,Win32,42.15318467,,,,,,,,,,,,,,,,,,,0.017592593,-0.018518519,1,0,0,4.207,4,18,122,2,1,c,images/br_c.png,images/cb_c.png,,,,,,,,,,,,,,,,,,,,,,,,,
,,,,,,00087,2023-10-23_16h04.06.745,vbt_B1_day1,2022.2.4,Win32,42.15318467,,,,,,,,,,,,,,,,,,,0.010185185,-0.019444444,1,0,0,3.8265,4,19,123,5,1,f,images/br_f.png,images/cb_f.png,,,,,,,,,,,,,,,,,,,,,,,,,
,,,,,,00087,2023-10-23_16h04.06.745,vbt_B1_day1,2022.2.4,Win32,42.15318467,,,,,,,,,,,,,,,,,,,-0.000925926,0.018518519,1,0,0,46.7379,4,20,124,24,1,y,images/br_y.png,images/cb_y.png,,,,,,,,,,,,,,,,,,,,,,,,,
,,,,,,00087,2023-10-23_16h04.06.745,vbt_B1_day1,2022.2.4,Win32,42.15318467,,,,,,,,,,,,,,,,,,,0,0.018518519,1,0,0,3.6466,4,21,125,19,1,t,images/br_t.png,images/cb_t.png,,,,,,,,,,,,,,,,,,,,,,,,,
,,,,,,00087,2023-10-23_16h04.06.745,vbt_B1_day1,2022.2.4,Win32,42.15318467,,,,,,,,,,,,,,,,,,,0.023148148,-0.002777778,1,0,0,3.0612,4,22,126,18,1,s,images/br_s.png,images/cb_s.png,,,,,,,,,,,,,,,,,,,,,,,,,
,,,,,,00087,2023-10-23_16h04.06.745,vbt_B1_day1,2022.2.4,Win32,42.15318467,,,,,,,,,,,,,,,,,,,0.023148148,-0.002777778,1,0,0,2.6445,4,23,127,6,1,g,images/br_g.png,images/cb_g.png,,,,,,,,,,,,,,,,,,,,,,,,,
,,,,,,00087,2023-10-23_16h04.06.745,vbt_B1_day1,2022.2.4,Win32,42.15318467,,,,,,,,,,,,,,,,,,,0.023148148,-0.002777778,1,0,0,1.7252,4,24,128,16,1,q,images/br_q.png,images/cb_q.png,,,,,,,,,,,,,,,,,,,,,,,,,
,,,,,,00087,2023-10-23_16h04.06.745,vbt_B1_day1,2022.2.4,Win32,42.15318467,,,,,,,,,,,,,,,,,,,0.023148148,-0.002777778,1,0,0,0.9229,4,25,129,11,1,l,images/br_l.png,images/cb_l.png,,,,,,,,,,,,,,,,,,,,,,,,,
,,,,,,00087,2023-10-23_16h04.06.745,vbt_B1_day1,2022.2.4,Win32,42.15318467,,,,,,,,,,,,,,,,,,,0.023148148,-0.002777778,1,0,0,0.9924,5,0,130,25,1,z,images/br_z.png,images/cb_z.png,,,,,,,,,,,,,,,,,,,,,,,,,
,,,,,,00087,2023-10-23_16h04.06.745,vbt_B1_day1,2022.2.4,Win32,42.15318467,,,,,,,,,,,,,,,,,,,0.023148148,-0.002777778,1,0,0,2.326,5,1,131,6,1,g,images/br_g.png,images/cb_g.png,,,,,,,,,,,,,,,,,,,,,,,,,
,,,,,,00087,2023-10-23_16h04.06.745,vbt_B1_day1,2022.2.4,Win32,42.15318467,,,,,,,,,,,,,,,,,,,0.015740741,-0.003703704,1,0,0,6.0598,5,2,132,24,1,y,images/br_y.png,images/cb_y.png,,,,,,,,,,,,,,,,,,,,,,,,,
,,,,,,00087,2023-10-23_16h04.06.745,vbt_B1_day1,2022.2.4,Win32,42.15318467,,,,,,,,,,,,,,,,,,,0.015740741,-0.003703704,1,0,0,5.4566,5,3,133,2,1,c,images/br_c.png,images/cb_c.png,,,,,,,,,,,,,,,,,,,,,,,,,
,,,,,,00087,2023-10-23_16h04.06.745,vbt_B1_day1,2022.2.4,Win32,42.15318467,,,,,,,,,,,,,,,,,,,0.015740741,-0.003703704,1,0,0,2.2326,5,4,134,10,1,k,images/br_k.png,images/cb_k.png,,,,,,,,,,,,,,,,,,,,,,,,,
,,,,,,00087,2023-10-23_16h04.06.745,vbt_B1_day1,2022.2.4,Win32,42.15318467,,,,,,,,,,,,,,,,,,,0.015740741,-0.003703704,1,0,0,4.1497,5,5,135,11,1,l,images/br_l.png,images/cb_l.png,,,,,,,,,,,,,,,,,,,,,,,,,
,,,,,,00087,2023-10-23_16h04.06.745,vbt_B1_day1,2022.2.4,Win32,42.15318467,,,,,,,,,,,,,,,,,,,0.015740741,-0.003703704,1,0,0,1.3121,5,6,136,15,1,p,images/br_p.png,images/cb_p.png,,,,,,,,,,,,,,,,,,,,,,,,,
,,,,,,00087,2023-10-23_16h04.06.745,vbt_B1_day1,2022.2.4,Win32,42.15318467,,,,,,,,,,,,,,,,,,,0.015740741,-0.003703704,1,0,0,1.1482,5,7,137,20,1,u,images/br_u.png,images/cb_u.png,,,,,,,,,,,,,,,,,,,,,,,,,
,,,,,,00087,2023-10-23_16h04.06.745,vbt_B1_day1,2022.2.4,Win32,42.15318467,,,,,,,,,,,,,,,,,,,0.015740741,-0.003703704,1,0,0,0.4292,5,8,138,12,1,m,images/br_m.png,images/cb_m.png,,,,,,,,,,,,,,,,,,,,,,,,,
,,,,,,00087,2023-10-23_16h04.06.745,vbt_B1_day1,2022.2.4,Win32,42.15318467,,,,,,,,,,,,,,,,,,,0.015740741,-0.003703704,1,0,0,2.5585,5,9,139,17,1,r,images/br_r.png,images/cb_r.png,,,,,,,,,,,,,,,,,,,,,,,,,
,,,,,,00087,2023-10-23_16h04.06.745,vbt_B1_day1,2022.2.4,Win32,42.15318467,,,,,,,,,,,,,,,,,,,0.015740741,-0.003703704,1,0,0,0.5719,5,10,140,22,1,w,images/br_w.png,images/cb_w.png,,,,,,,,,,,,,,,,,,,,,,,,,
,,,,,,00087,2023-10-23_16h04.06.745,vbt_B1_day1,2022.2.4,Win32,42.15318467,,,,,,,,,,,,,,,,,,,0.015740741,-0.003703704,1,0,0,2.7755,5,11,141,4,1,e,images/br_e.png,images/cb_e.png,,,,,,,,,,,,,,,,,,,,,,,,,
,,,,,,00087,2023-10-23_16h04.06.745,vbt_B1_day1,2022.2.4,Win32,42.15318467,,,,,,,,,,,,,,,,,,,0.015740741,-0.003703704,1,0,0,2.6475,5,12,142,5,1,f,images/br_f.png,images/cb_f.png,,,,,,,,,,,,,,,,,,,,,,,,,
,,,,,,00087,2023-10-23_16h04.06.745,vbt_B1_day1,2022.2.4,Win32,42.15318467,,,,,,,,,,,,,,,,,,,0.052777778,0.074074074,1,0,0,9.3613,5,13,143,0,1,a,images/br_a.png,images/cb_a.png,,,,,,,,,,,,,,,,,,,,,,,,,
,,,,,,00087,2023-10-23_16h04.06.745,vbt_B1_day1,2022.2.4,Win32,42.15318467,,,,,,,,,,,,,,,,,,,-0.00462963,-0.011111111,1,0,0,2.8108,5,14,144,23,1,x,images/br_x.png,images/cb_x.png,,,,,,,,,,,,,,,,,,,,,,,,,
,,,,,,00087,2023-10-23_16h04.06.745,vbt_B1_day1,2022.2.4,Win32,42.15318467,,,,,,,,,,,,,,,,,,,-0.00462963,-0.011111111,1,0,0,4.1625,5,15,145,16,1,q,images/br_q.png,images/cb_q.png,,,,,,,,,,,,,,,,,,,,,,,,,
,,,,,,00087,2023-10-23_16h04.06.745,vbt_B1_day1,2022.2.4,Win32,42.15318467,,,,,,,,,,,,,,,,,,,-0.00462963,-0.011111111,1,0,0,2.8824,5,16,146,9,1,j,images/br_j.png,images/cb_j.png,,,,,,,,,,,,,,,,,,,,,,,,,
,,,,,,00087,2023-10-23_16h04.06.745,vbt_B1_day1,2022.2.4,Win32,42.15318467,,,,,,,,,,,,,,,,,,,-0.00462963,-0.011111111,1,0,0,0.304,5,17,147,1,1,b,images/br_b.png,images/cb_b.png,,,,,,,,,,,,,,,,,,,,,,,,,
,,,,,,00087,2023-10-23_16h04.06.745,vbt_B1_day1,2022.2.4,Win32,42.15318467,,,,,,,,,,,,,,,,,,,-0.00462963,-0.011111111,1,0,0,1.3943,5,18,148,3,1,d,images/br_d.png,images/cb_d.png,,,,,,,,,,,,,,,,,,,,,,,,,
,,,,,,00087,2023-10-23_16h04.06.745,vbt_B1_day1,2022.2.4,Win32,42.15318467,,,,,,,,,,,,,,,,,,,-0.00462963,-0.011111111,1,0,0,2.5454,5,19,149,14,1,o,images/br_o.png,images/cb_o.png,,,,,,,,,,,,,,,,,,,,,,,,,
,,,,,,00087,2023-10-23_16h04.06.745,vbt_B1_day1,2022.2.4,Win32,42.15318467,,,,,,,,,,,,,,,,,,,-0.00462963,-0.011111111,1,0,0,1.1151,5,20,150,8,1,i,images/br_i.png,images/cb_i.png,,,,,,,,,,,,,,,,,,,,,,,,,
,,,,,,00087,2023-10-23_16h04.06.745,vbt_B1_day1,2022.2.4,Win32,42.15318467,,,,,,,,,,,,,,,,,,,-0.00462963,-0.011111111,1,0,0,0.2604,5,21,151,7,1,h,images/br_h.png,images/cb_h.png,,,,,,,,,,,,,,,,,,,,,,,,,
,,,,,,00087,2023-10-23_16h04.06.745,vbt_B1_day1,2022.2.4,Win32,42.15318467,,,,,,,,,,,,,,,,,,,-0.00462963,-0.011111111,1,0,0,2.2633,5,22,152,19,1,t,images/br_t.png,images/cb_t.png,,,,,,,,,,,,,,,,,,,,,,,,,
,,,,,,00087,2023-10-23_16h04.06.745,vbt_B1_day1,2022.2.4,Win32,42.15318467,,,,,,,,,,,,,,,,,,,-0.00462963,-0.011111111,1,0,0,1.1988,5,23,153,13,1,n,images/br_n.png,images/cb_n.png,,,,,,,,,,,,,,,,,,,,,,,,,
,,,,,,00087,2023-10-23_16h04.06.745,vbt_B1_day1,2022.2.4,Win32,42.15318467,,,,,,,,,,,,,,,,,,,-0.00462963,-0.011111111,1,0,0,1.6893,5,24,154,21,1,v,images/br_v.png,images/cb_v.png,,,,,,,,,,,,,,,,,,,,,,,,,
,,,,,,00087,2023-10-23_16h04.06.745,vbt_B1_day1,2022.2.4,Win32,42.15318467,,,,,,,,,,,,,,,,,,,-0.00462963,-0.011111111,1,0,0,0.6255,5,25,155,18,1,s,images/br_s.png,images/cb_s.png,,,,,,,,,,,,,,,,,,,,,,,,,
,,,,,,00087,2023-10-23_16h04.06.745,vbt_B1_day1,2022.2.4,Win32,42.15318467,,,,,,,,,,,,,,,,,,,0.033333333,0.015740741,1,0,0,13.3413,6,0,156,4,1,e,images/br_e.png,images/cb_e.png,,,,,,,,,,,,,,,,,,,,,,,,,
,,,,,,00087,2023-10-23_16h04.06.745,vbt_B1_day1,2022.2.4,Win32,42.15318467,,,,,,,,,,,,,,,,,,,0.246296296,0.047222222,1,0,0,4.644,6,1,157,17,1,r,images/br_r.png,images/cb_r.png,,,,,,,,,,,,,,,,,,,,,,,,,
,,,,,,00087,2023-10-23_16h04.06.745,vbt_B1_day1,2022.2.4,Win32,42.15318467,,,,,,,,,,,,,,,,,,,-0.1,-0.008333333,1,0,0,0.5556,6,2,158,18,1,s,images/br_s.png,images/cb_s.png,,,,,,,,,,,,,,,,,,,,,,,,,
,,,,,,00087,2023-10-23_16h04.06.745,vbt_B1_day1,2022.2.4,Win32,42.15318467,,,,,,,,,,,,,,,,,,,-0.007407407,-0.011111111,1,0,0,3.0121,6,3,159,9,1,j,images/br_j.png,images/cb_j.png,,,,,,,,,,,,,,,,,,,,,,,,,
,,,,,,00087,2023-10-23_16h04.06.745,vbt_B1_day1,2022.2.4,Win32,42.15318467,,,,,,,,,,,,,,,,,,,0.003703704,0.003703704,1,0,0,0.7473,6,4,160,20,1,u,images/br_u.png,images/cb_u.png,,,,,,,,,,,,,,,,,,,,,,,,,
,,,,,,00087,2023-10-23_16h04.06.745,vbt_B1_day1,2022.2.4,Win32,42.15318467,,,,,,,,,,,,,,,,,,,-0.021296296,0.02037037,1,0,0,0.7104,6,5,161,15,1,p,images/br_p.png,images/cb_p.png,,,,,,,,,,,,,,,,,,,,,,,,,
,,,,,,00087,2023-10-23_16h04.06.745,vbt_B1_day1,2022.2.4,Win32,42.15318467,,,,,,,,,,,,,,,,,,,-0.021296296,0.02037037,1,0,0,5.7094,6,6,162,1,1,b,images/br_b.png,images/cb_b.png,,,,,,,,,,,,,,,,,,,,,,,,,
,,,,,,00087,2023-10-23_16h04.06.745,vbt_B1_day1,2022.2.4,Win32,42.15318467,,,,,,,,,,,,,,,,,,,0.135185185,-0.075,0,0,1,0.5004,6,7,163,6,1,g,images/br_g.png,images/cb_g.png,,,,,,,,,,,,,,,,,,,,,,,,,
,,,,,,00087,2023-10-23_16h04.06.745,vbt_B1_day1,2022.2.4,Win32,42.15318467,,,,,,,,,,,,,,,,,,,-0.002777778,0.011111111,0,1,0,0.4146,6,8,164,13,1,n,images/br_n.png,images/cb_n.png,,,,,,,,,,,,,,,,,,,,,,,,,
,,,,,,00087,2023-10-23_16h04.06.745,vbt_B1_day1,2022.2.4,Win32,42.15318467,,,,,,,,,,,,,,,,,,,-0.002777778,-0.003703704,0,1,0,0.6436,6,9,165,0,1,a,images/br_a.png,images/cb_a.png,,,,,,,,,,,,,,,,,,,,,,,,,
,,,,,,00087,2023-10-23_16h04.06.745,vbt_B1_day1,2022.2.4,Win32,42.15318467,,,,,,,,,,,,,,,,,,,-0.002777778,-0.003703704,1,0,0,5.2326,6,10,166,22,1,w,images/br_w.png,images/cb_w.png,,,,,,,,,,,,,,,,,,,,,,,,,
,,,,,,00087,2023-10-23_16h04.06.745,vbt_B1_day1,2022.2.4,Win32,42.15318467,,,,,,,,,,,,,,,,,,,-0.002777778,-0.003703704,1,0,0,2.0986,6,11,167,8,1,i,images/br_i.png,images/cb_i.png,,,,,,,,,,,,,,,,,,,,,,,,,
,,,,,,00087,2023-10-23_16h04.06.745,vbt_B1_day1,2022.2.4,Win32,42.15318467,,,,,,,,,,,,,,,,,,,-0.002777778,-0.003703704,1,0,0,1.42,6,12,168,7,1,h,images/br_h.png,images/cb_h.png,,,,,,,,,,,,,,,,,,,,,,,,,
,,,,,,00087,2023-10-23_16h04.06.745,vbt_B1_day1,2022.2.4,Win32,42.15318467,,,,,,,,,,,,,,,,,,,-0.002777778,-0.003703704,1,0,0,5.3377,6,13,169,19,1,t,images/br_t.png,images/cb_t.png,,,,,,,,,,,,,,,,,,,,,,,,,
,,,,,,00087,2023-10-23_16h04.06.745,vbt_B1_day1,2022.2.4,Win32,42.15318467,,,,,,,,,,,,,,,,,,,-0.007407407,-0.001851852,1,0,0,5.1404,6,14,170,5,1,f,images/br_f.png,images/cb_f.png,,,,,,,,,,,,,,,,,,,,,,,,,
,,,,,,00087,2023-10-23_16h04.06.745,vbt_B1_day1,2022.2.4,Win32,42.15318467,,,,,,,,,,,,,,,,,,,-0.008333333,-0.014814815,1,0,0,2.4126,6,15,171,10,1,k,images/br_k.png,images/cb_k.png,,,,,,,,,,,,,,,,,,,,,,,,,
,,,,,,00087,2023-10-23_16h04.06.745,vbt_B1_day1,2022.2.4,Win32,42.15318467,,,,,,,,,,,,,,,,,,,-0.010185185,-0.015740741,1,0,0,2.8169,6,16,172,14,1,o,images/br_o.png,images/cb_o.png,,,,,,,,,,,,,,,,,,,,,,,,,
,,,,,,00087,2023-10-23_16h04.06.745,vbt_B1_day1,2022.2.4,Win32,42.15318467,,,,,,,,,,,,,,,,,,,-0.010185185,-0.015740741,1,0,0,3.6269,6,17,173,24,1,y,images/br_y.png,images/cb_y.png,,,,,,,,,,,,,,,,,,,,,,,,,
,,,,,,00087,2023-10-23_16h04.06.745,vbt_B1_day1,2022.2.4,Win32,42.15318467,,,,,,,,,,,,,,,,,,,-0.010185185,-0.015740741,1,0,0,3.6971,6,18,174,25,1,z,images/br_z.png,images/cb_z.png,,,,,,,,,,,,,,,,,,,,,,,,,
,,,,,,00087,2023-10-23_16h04.06.745,vbt_B1_day1,2022.2.4,Win32,42.15318467,,,,,,,,,,,,,,,,,,,-0.010185185,-0.015740741,1,0,0,2.5892,6,19,175,16,1,q,images/br_q.png,images/cb_q.png,,,,,,,,,,,,,,,,,,,,,,,,,
,,,,,,00087,2023-10-23_16h04.06.745,vbt_B1_day1,2022.2.4,Win32,42.15318467,,,,,,,,,,,,,,,,,,,0.003703704,-0.012962963,1,0,0,0.8568,6,20,176,12,1,m,images/br_m.png,images/cb_m.png,,,,,,,,,,,,,,,,,,,,,,,,,
,,,,,,00087,2023-10-23_16h04.06.745,vbt_B1_day1,2022.2.4,Win32,42.15318467,,,,,,,,,,,,,,,,,,,-0.00462963,-0.014814815,1,0,0,0.1914,6,21,177,3,1,d,images/br_d.png,images/cb_d.png,,,,,,,,,,,,,,,,,,,,,,,,,
,,,,,,00087,2023-10-23_16h04.06.745,vbt_B1_day1,2022.2.4,Win32,42.15318467,,,,,,,,,,,,,,,,,,,-0.013888889,-0.014814815,1,0,0,3.9563,6,22,178,2,1,c,images/br_c.png,images/cb_c.png,,,,,,,,,,,,,,,,,,,,,,,,,
,,,,,,00087,2023-10-23_16h04.06.745,vbt_B1_day1,2022.2.4,Win32,42.15318467,,,,,,,,,,,,,,,,,,,-0.005555556,-0.027777778,0,0,1,0.3112,6,23,179,23,1,x,images/br_x.png,images/cb_x.png,,,,,,,,,,,,,,,,,,,,,,,,,
,,,,,,00087,2023-10-23_16h04.06.745,vbt_B1_day1,2022.2.4,Win32,42.15318467,,,,,,,,,,,,,,,,,,,0.010185185,0.009259259,0,1,0,2.9337,6,24,180,21,1,v,images/br_v.png,images/cb_v.png,,,,,,,,,,,,,,,,,,,,,,,,,
,,,,,,00087,2023-10-23_16h04.06.745,vbt_B1_day1,2022.2.4,Win32,42.15318467,,,,,,,,,,,,,,,,,,,0.010185185,0.009259259,1,0,0,2.7962,6,25,181,11,1,l,images/br_l.png,images/cb_l.png,,,,,,,,,,,,,,,,,,,,,,,,,
,,,,,,00087,2023-10-23_16h04.06.745,vbt_B1_day1,2022.2.4,Win32,42.15318467,,,,,,,,,,,,,,,,,,,,,,,,,,,,,,,,,0.153703704,-0.080555556,1,0,0,,,,,,,,,,,,,,,,,,,,
,,,,,,00087,2023-10-23_16h04.06.745,vbt_B1_day1,2022.2.4,Win32,42.15318467,,,,,,,,,,,,,,,,,,,,,,,,,,,,,,,,,,,,,,0.09537037,-0.042592593,1,0,0,,,,,,,,,,,,,,,
,,,,,,00087,2023-10-23_16h04.06.745,vbt_B1_day1,2022.2.4,Win32,42.15318467,,,,,,,,,,,,,,,,,,,,,,,,,,,,,,,,,,,,,,,,,,,0.136111111,-0.038888889,1,0,0,,,0,0,0,1,1,zaal,images/br_zaal.png,images/cb_zaal.png
,,,,,,00087,2023-10-23_16h04.06.745,vbt_B1_day1,2022.2.4,Win32,42.15318467,,,,,,,,,,,,,,,,,,,,,,,,,,,,,,,,,,,,,,,,,,,0.111111111,-0.028703704,1,0,0,mazd,mazd,0,1,1,3,1,mand,images/br_mand.png,images/cb_mand.png
,,,,,,00087,2023-10-23_16h04.06.745,vbt_B1_day1,2022.2.4,Win32,42.15318467,,,,,,,,,,,,,,,,,,,,,,,,,,,,,,,,,,,,,,,,,,,0.152777778,-0.026851852,1,0,0,stamtt,stamtt,0,2,2,31,1,stamen,images/br_stamen.png,images/cb_stamen.png
,,,,,,00087,2023-10-23_16h04.06.745,vbt_B1_day1,2022.2.4,Win32,42.15318467,,,,,,,,,,,,,,,,,,,,,,,,,,,,,,,,,,,,,,,,,,,0.152777778,-0.026851852,1,0,0,.ie.n,.ie.n,0,3,3,50,1,liegen,images/br_liegen.png,images/cb_liegen.png
,,,,,,00087,2023-10-23_16h04.06.745,vbt_B1_day1,2022.2.4,Win32,42.15318467,,,,,,,,,,,,,,,,,,,,,,,,,,,,,,,,,,,,,,,,,,,0.152777778,-0.026851852,1,0,0,.pp..aan,.pp..aan,0,4,4,32,1,opplaan,images/br_opplaan.png,images/cb_opplaan.png
,,,,,,00087,2023-10-23_16h04.06.745,vbt_B1_day1,2022.2.4,Win32,42.15318467,,,,,,,,,,,,,,,,,,,,,,,,,,,,,,,,,,,,,,,,,,,0.152777778,-0.026851852,1,0,0,va..p,va..p,0,5,5,26,1,valop,images/br_valop.png,images/cb_valop.png
,,,,,,00087,2023-10-23_16h04.06.745,vbt_B1_day1,2022.2.4,Win32,42.15318467,,,,,,,,,,,,,,,,,,,,,,,,,,,,,,,,,,,,,,,,,,,0.105555556,-0.024074074,1,0,0,twijfel,twijfel,0,6,6,13,1,twijfel,images/br_twijfel.png,images/cb_twijfel.png
,,,,,,00087,2023-10-23_16h04.06.745,vbt_B1_day1,2022.2.4,Win32,42.15318467,,,,,,,,,,,,,,,,,,,,,,,,,,,,,,,,,,,,,,,,,,,0.105555556,-0.024074074,1,0,0,maken,maken,0,7,7,5,1,maken,images/br_maken.png,images/cb_maken.png
,,,,,,00087,2023-10-23_16h04.06.745,vbt_B1_day1,2022.2.4,Win32,42.15318467,,,,,,,,,,,,,,,,,,,,,,,,,,,,,,,,,,,,,,,,,,,0.086111111,-0.025,1,0,0,opslaan,opslaan,0,8,8,53,1,opslaan,images/br_opslaan.png,images/cb_opslaan.png
,,,,,,00087,2023-10-23_16h04.06.745,vbt_B1_day1,2022.2.4,Win32,42.15318467,,,,,,,,,,,,,,,,,,,,,,,,,,,,,,,,,,,,,,,,,,,0.086111111,-0.025,1,0,0,hemel,hemel,0,9,9,45,1,hemel,images/br_hemel.png,images/cb_hemel.png
,,,,,,00087,2023-10-23_16h04.06.745,vbt_B1_day1,2022.2.4,Win32,42.15318467,,,,,,,,,,,,,,,,,,,,,,,,,,,,,,,,,,,,,,,,,,,-0.039814815,-0.2,1,0,0,.oorkeur,.oorkeur,0,10,10,58,1,voorkeur,images/br_voorkeur.png,images/cb_voorkeur.png
,,,,,,00087,2023-10-23_16h04.06.745,vbt_B1_day1,2022.2.4,Win32,42.15318467,,,,,,,,,,,,,,,,,,,,,,,,,,,,,,,,,,,,,,,,,,,-0.083333333,-0.12037037,1,0,0,.,.,0,11,11,0,1,slak,images/br_slak.png,images/cb_slak.png
,,,,,,00087,2023-10-23_16h04.06.745,vbt_B1_day1,2022.2.4,Win32,42.15318467,,,,,,,,,,,,,,,,,,,,,,,,,,,,,,,,,,,,,,,,,,,-0.07962963,-0.092592593,1,0,0,jaar,jaar,0,12,12,2,1,jaar,images/br_jaar.png,images/cb_jaar.png
,,,,,,00087,2023-10-23_16h04.06.745,vbt_B1_day1,2022.2.4,Win32,42.15318467,,,,,,,,,,,,,,,,,,,,,,,,,,,,,,,,,,,,,,,,,,,-0.07962963,-0.092592593,1,0,0,klauw,klauw,0,13,13,7,1,klauw,images/br_klauw.png,images/cb_klauw.png
,,,,,,00087,2023-10-23_16h04.06.745,vbt_B1_day1,2022.2.4,Win32,42.15318467,,,,,,,,,,,,,,,,,,,,,,,,,,,,,,,,,,,,,,,,,,,-0.07962963,-0.092592593,1,0,0,opvatten,opvatten,0,14,14,59,1,opvatten,images/br_opvatten.png,images/cb_opvatten.png
,,,,,,00087,2023-10-23_16h04.06.745,vbt_B1_day1,2022.2.4,Win32,42.15318467,,,,,,,,,,,,,,,,,,,,,,,,,,,,,,,,,,,,,,,,,,,-0.07962963,-0.092592593,1,0,0,stuikem,stuikem,0,15,15,35,1,stuikem,images/br_stuikem.png,images/cb_stuikem.png
,,,,,,00087,2023-10-23_16h04.06.745,vbt_B1_day1,2022.2.4,Win32,42.15318467,,,,,,,,,,,,,,,,,,,,,,,,,,,,,,,,,,,,,,,,,,,-0.07962963,-0.092592593,1,0,0,meenemen,meenemen,0,16,16,57,1,meenemen,images/br_meenemen.png,images/cb_meenemen.png
,,,,,,00087,2023-10-23_16h04.06.745,vbt_B1_day1,2022.2.4,Win32,42.15318467,,,,,,,,,,,,,,,,,,,,,,,,,,,,,,,,,,,,,,,,,,,-0.07962963,-0.092592593,1,0,0,dubbel,dubbel,0,17,17,9,1,dubbel,images/br_dubbel.png,images/cb_dubbel.png
,,,,,,00087,2023-10-23_16h04.06.745,vbt_B1_day1,2022.2.4,Win32,42.15318467,,,,,,,,,,,,,,,,,,,,,,,,,,,,,,,,,,,,,,,,,,,-0.07962963,-0.092592593,1,0,0,bleek,bleek,0,18,18,6,1,bleek,images/br_bleek.png,images/cb_bleek.png
,,,,,,00087,2023-10-23_16h04.06.745,vbt_B1_day1,2022.2.4,Win32,42.15318467,,,,,,,,,,,,,,,,,,,,,,,,,,,,,,,,,,,,,,,,,,,-0.07962963,-0.092592593,1,0,0,span..n.,span..n.,0,19,19,37,1,spanzing,images/br_spanzing.png,images/cb_spanzing.png
,,,,,,00087,2023-10-23_16h04.06.745,vbt_B1_day1,2022.2.4,Win32,42.15318467,,,,,,,,,,,,,,,,,,,,,,,,,,,,,,,,,,,,,,,,,,,-0.07962963,-0.092592593,1,0,0,rezer,rezer,0,20,20,24,1,rezer,images/br_rezer.png,images/cb_rezer.png
,,,,,,00087,2023-10-23_16h04.06.745,vbt_B1_day1,2022.2.4,Win32,42.15318467,,,,,,,,,,,,,,,,,,,,,,,,,,,,,,,,,,,,,,,,,,,-0.07962963,-0.092592593,1,0,0,zuiplap,zuiplap,0,21,21,52,1,zuiplap,images/br_zuiplap.png,images/cb_zuiplap.png
,,,,,,00087,2023-10-23_16h04.06.745,vbt_B1_day1,2022.2.4,Win32,42.15318467,,,,,,,,,,,,,,,,,,,,,,,,,,,,,,,,,,,,,,,,,,,-0.07962963,-0.092592593,1,0,0,l..ds,l..ds,0,22,22,47,1,loods,images/br_loods.png,images/cb_loods.png
,,,,,,00087,2023-10-23_16h04.06.745,vbt_B1_day1,2022.2.4,Win32,42.15318467,,,,,,,,,,,,,,,,,,,,,,,,,,,,,,,,,,,,,,,,,,,-0.048148148,-0.017592593,1,0,0,.,.,0,23,23,4,1,schep,images/br_schep.png,images/cb_schep.png
,,,,,,00087,2023-10-23_16h04.06.745,vbt_B1_day1,2022.2.4,Win32,42.15318467,,,,,,,,,,,,,,,,,,,,,,,,,,,,,,,,,,,,,,,,,,,-0.060185185,-0.018518519,1,0,0,brejk,brejk,0,24,24,25,1,brijk,images/br_brijk.png,images/cb_brijk.png
,,,,,,00087,2023-10-23_16h04.06.745,vbt_B1_day1,2022.2.4,Win32,42.15318467,,,,,,,,,,,,,,,,,,,,,,,,,,,,,,,,,,,,,,,,,,,-0.060185185,-0.018518519,1,0,0,fictie,fictie,0,25,25,48,1,fictie,images/br_fictie.png,images/cb_fictie.png
,,,,,,00087,2023-10-23_16h04.06.745,vbt_B1_day1,2022.2.4,Win32,42.15318467,,,,,,,,,,,,,,,,,,,,,,,,,,,,,,,,,,,,,,,,,,,-0.060185185,-0.018518519,1,0,0,hiervan,hiervan,0,26,26,15,1,hiervan,images/br_hiervan.png,images/cb_hiervan.png
,,,,,,00087,2023-10-23_16h04.06.745,vbt_B1_day1,2022.2.4,Win32,42.15318467,,,,,,,,,,,,,,,,,,,,,,,,,,,,,,,,,,,,,,,,,,,-0.060185185,-0.018518519,1,0,0,liefde,liefde,0,27,27,51,1,liefde,images/br_liefde.png,images/cb_liefde.png
,,,,,,00087,2023-10-23_16h04.06.745,vbt_B1_day1,2022.2.4,Win32,42.15318467,,,,,,,,,,,,,,,,,,,,,,,,,,,,,,,,,,,,,,,,,,,-0.065740741,-0.02037037,1,0,0,lava,lava,0,28,28,43,1,lava,images/br_lava.png,images/cb_lava.png
,,,,,,00087,2023-10-23_16h04.06.745,vbt_B1_day1,2022.2.4,Win32,42.15318467,,,,,,,,,,,,,,,,,,,,,,,,,,,,,,,,,,,,,,,,,,,-0.05,-0.023148148,1,0,0,kn.e,kn.e,0,29,29,22,1,knoe,images/br_knoe.png,images/cb_knoe.png
,,,,,,00087,2023-10-23_16h04.06.745,vbt_B1_day1,2022.2.4,Win32,42.15318467,,,,,,,,,,,,,,,,,,,,,,,,,,,,,,,,,,,,,,,,,,,-0.075,-0.005555556,1,0,0,vinier,vinier,0,30,30,49,1,vizier,images/br_vizier.png,images/cb_vizier.png
,,,,,,00087,2023-10-23_16h04.06.745,vbt_B1_day1,2022.2.4,Win32,42.15318467,,,,,,,,,,,,,,,,,,,,,,,,,,,,,,,,,,,,,,,,,,,-0.075,-0.005555556,1,0,0,scvilen,scvilen,0,31,31,19,1,schuilen,images/br_schuilen.png,images/cb_schuilen.png
,,,,,,00087,2023-10-23_16h04.06.745,vbt_B1_day1,2022.2.4,Win32,42.15318467,,,,,,,,,,,,,,,,,,,,,,,,,,,,,,,,,,,,,,,,,,,-0.080555556,0.097222222,1,0,0,wijne,wijne,0,32,32,44,1,wijze,images/br_wijze.png,images/cb_wijze.png
,,,,,,00087,2023-10-23_16h04.06.745,vbt_B1_day1,2022.2.4,Win32,42.15318467,,,,,,,,,,,,,,,,,,,,,,,,,,,,,,,,,,,,,,,,,,,-0.052777778,0.14537037,1,0,0,dief,dief,0,33,33,40,1,dief,images/br_dief.png,images/cb_dief.png
,,,,,,00087,2023-10-23_16h04.06.745,vbt_B1_day1,2022.2.4,Win32,42.15318467,,,,,,,,,,,,,,,,,,,,,,,,,,,,,,,,,,,,,,,,,,,-0.052777778,0.14537037,1,0,0,reedje,reedje,0,34,34,30,1,reedje,images/br_reedje.png,images/cb_reedje.png
,,,,,,00087,2023-10-23_16h04.06.745,vbt_B1_day1,2022.2.4,Win32,42.15318467,,,,,,,,,,,,,,,,,,,,,,,,,,,,,,,,,,,,,,,,,,,-0.049074074,0.143518519,1,0,0,daarheen,daarheen,0,35,35,16,1,daarheen,images/br_daarheen.png,images/cb_daarheen.png
,,,,,,00087,2023-10-23_16h04.06.745,vbt_B1_day1,2022.2.4,Win32,42.15318467,,,,,,,,,,,,,,,,,,,,,,,,,,,,,,,,,,,,,,,,,,,0.099074074,0,1,0,0,vervden,vervden,0,36,36,36,1,vervaden,images/br_vervaden.png,images/cb_vervaden.png
,,,,,,00087,2023-10-23_16h04.06.745,vbt_B1_day1,2022.2.4,Win32,42.15318467,,,,,,,,,,,,,,,,,,,,,,,,,,,,,,,,,,,,,,,,,,,0.099074074,0,1,0,0,attentie,attentie,0,37,37,17,1,attentie,images/br_attentie.png,images/cb_attentie.png
,,,,,,00087,2023-10-23_16h04.06.745,vbt_B1_day1,2022.2.4,Win32,42.15318467,,,,,,,,,,,,,,,,,,,,,,,,,,,,,,,,,,,,,,,,,,,0.1,0.000925926,1,0,0,dret,dret,0,38,38,21,1,dred,images/br_dred.png,images/cb_dred.png
,,,,,,00087,2023-10-23_16h04.06.745,vbt_B1_day1,2022.2.4,Win32,42.15318467,,,,,,,,,,,,,,,,,,,,,,,,,,,,,,,,,,,,,,,,,,,0.1,0.000925926,1,0,0,vijfi.,vijfi.,0,39,39,54,1,vijftig,images/br_vijftig.png,images/cb_vijftig.png
,,,,,,00087,2023-10-23_16h04.06.745,vbt_B1_day1,2022.2.4,Win32,42.15318467,,,,,,,,,,,,,,,,,,,,,,,,,,,,,,,,,,,,,,,,,,,0.083333333,0.031481481,1,0,0,.,.,0,40,40,46,1,lezen,images/br_lezen.png,images/cb_lezen.png
,,,,,,00087,2023-10-23_16h04.06.745,vbt_B1_day1,2022.2.4,Win32,42.15318467,,,,,,,,,,,,,,,,,,,,,,,,,,,,,,,,,,,,,,,,,,,0.082407407,0.031481481,1,0,0,kanjer,kanjer,0,41,41,8,1,kanjer,images/br_kanjer.png,images/cb_kanjer.png
,,,,,,00087,2023-10-23_16h04.06.745,vbt_B1_day1,2022.2.4,Win32,42.15318467,,,,,,,,,,,,,,,,,,,,,,,,,,,,,,,,,,,,,,,,,,,0.082407407,0.031481481,1,0,0,schieten,schieten,0,42,42,38,1,schielen,images/br_schielen.png,images/cb_schielen.png
,,,,,,00087,2023-10-23_16h04.06.745,vbt_B1_day1,2022.2.4,Win32,42.15318467,,,,,,,,,,,,,,,,,,,,,,,,,,,,,,,,,,,,,,,,,,,0.082407407,0.031481481,1,0,0,tekenen,tekenen,0,43,43,55,1,tekenen,images/br_tekenen.png,images/cb_tekenen.png
,,,,,,00087,2023-10-23_16h04.06.745,vbt_B1_day1,2022.2.4,Win32,42.15318467,,,,,,,,,,,,,,,,,,,,,,,,,,,,,,,,,,,,,,,,,,,0.082407407,0.031481481,1,0,0,.arrvan,.arrvan,0,44,44,14,1,waarvan,images/br_waarvan.png,images/cb_waarvan.png
,,,,,,00087,2023-10-23_16h04.06.745,vbt_B1_day1,2022.2.4,Win32,42.15318467,,,,,,,,,,,,,,,,,,,,,,,,,,,,,,,,,,,,,,,,,,,0.082407407,0.031481481,1,0,0,.enrnd,.enrnd,0,45,45,29,1,genond,images/br_genond.png,images/cb_genond.png
,,,,,,00087,2023-10-23_16h04.06.745,vbt_B1_day1,2022.2.4,Win32,42.15318467,,,,,,,,,,,,,,,,,,,,,,,,,,,,,,,,,,,,,,,,,,,0.101851852,0.02037037,1,0,0,ftutten,ftutten,0,46,46,33,1,flullen,images/br_flullen.png,images/cb_flullen.png
,,,,,,00087,2023-10-23_16h04.06.745,vbt_B1_day1,2022.2.4,Win32,42.15318467,,,,,,,,,,,,,,,,,,,,,,,,,,,,,,,,,,,,,,,,,,,0.139814815,-0.172222222,1,0,0,h...,h...,0,47,47,41,1,hoog,images/br_hoog.png,images/cb_hoog.png
,,,,,,00087,2023-10-23_16h04.06.745,vbt_B1_day1,2022.2.4,Win32,42.15318467,,,,,,,,,,,,,,,,,,,,,,,,,,,,,,,,,,,,,,,,,,,0.137962963,-0.172222222,1,0,0,tars,tars,0,48,48,20,1,tars,images/br_tars.png,images/cb_tars.png
,,,,,,00087,2023-10-23_16h04.06.745,vbt_B1_day1,2022.2.4,Win32,42.15318467,,,,,,,,,,,,,,,,,,,,,,,,,,,,,,,,,,,,,,,,,,,0.137962963,-0.172222222,1,0,0,muziek,muziek,0,49,49,10,1,muziek,images/br_muziek.png,images/cb_muziek.png
,,,,,,00087,2023-10-23_16h04.06.745,vbt_B1_day1,2022.2.4,Win32,42.15318467,,,,,,,,,,,,,,,,,,,,,,,,,,,,,,,,,,,,,,,,,,,0.12037037,-0.177777778,1,0,0,,,0,50,50,42,1,stuk,images/br_stuk.png,images/cb_stuk.png
,,,,,,00087,2023-10-23_16h04.06.745,vbt_B1_day1,2022.2.4,Win32,42.15318467,,,,,,,,,,,,,,,,,,,,,,,,,,,,,,,,,,,,,,,,,,,0.127777778,-0.176851852,1,0,0,,,0,51,51,18,1,uitdelen,images/br_uitdelen.png,images/cb_uitdelen.png
,,,,,,00087,2023-10-23_16h04.06.745,vbt_B1_day1,2022.2.4,Win32,42.15318467,,,,,,,,,,,,,,,,,,,,,,,,,,,,,,,,,,,,,,,,,,,0.150925926,-0.083333333,1,0,0,t.ezict,t.ezict,0,52,52,56,1,toezicht,images/br_toezicht.png,images/cb_toezicht.png
,,,,,,00087,2023-10-23_16h04.06.745,vbt_B1_day1,2022.2.4,Win32,42.15318467,,,,,,,,,,,,,,,,,,,,,,,,,,,,,,,,,,,,,,,,,,,0.150925926,-0.083333333,1,0,0,mening,mening,0,53,53,11,1,mening,images/br_mening.png,images/cb_mening.png
,,,,,,00087,2023-10-23_16h04.06.745,vbt_B1_day1,2022.2.4,Win32,42.15318467,,,,,,,,,,,,,,,,,,,,,,,,,,,,,,,,,,,,,,,,,,,0.150925926,-0.080555556,0,0,1,pr.rt,pr.rt,0,54,54,27,1,prort,images/br_prort.png,images/cb_prort.png
,,,,,,00087,2023-10-23_16h04.06.745,vbt_B1_day1,2022.2.4,Win32,42.15318467,,,,,,,,,,,,,,,,,,,,,,,,,,,,,,,,,,,,,,,,,,,0.128703704,-0.194444444,1,0,0,b..i,b..i,0,55,55,23,1,booi,images/br_booi.png,images/cb_booi.png
,,,,,,00087,2023-10-23_16h04.06.745,vbt_B1_day1,2022.2.4,Win32,42.15318467,,,,,,,,,,,,,,,,,,,,,,,,,,,,,,,,,,,,,,,,,,,0.12962963,-0.194444444,1,0,0,ktimmen,ktimmen,0,56,56,12,1,klimmen,images/br_klimmen.png,images/cb_klimmen.png
,,,,,,00087,2023-10-23_16h04.06.745,vbt_B1_day1,2022.2.4,Win32,42.15318467,,,,,,,,,,,,,,,,,,,,,,,,,,,,,,,,,,,,,,,,,,,0.135185185,-0.194444444,1,0,0,v..rreur,v..rreur,0,57,57,39,1,voorreur,images/br_voorreur.png,images/cb_voorreur.png
,,,,,,00087,2023-10-23_16h04.06.745,vbt_B1_day1,2022.2.4,Win32,42.15318467,,,,,,,,,,,,,,,,,,,,,,,,,,,,,,,,,,,,,,,,,,,0.135185185,-0.194444444,1,0,0,bebrip,bebrip,0,58,58,28,1,bebrip,images/br_bebrip.png,images/cb_bebrip.png
,,,,,,00087,2023-10-23_16h04.06.745,vbt_B1_day1,2022.2.4,Win32,42.15318467,,,,,,,,,,,,,,,,,,,,,,,,,,,,,,,,,,,,,,,,,,,0.135185185,-0.194444444,1,0,0,l.cten,l.cten,0,59,59,34,1,lochten,images/br_lochten.png,images/cb_lochten.png
,,,,,,00087,2023-10-23_16h04.06.745,vbt_B1_day1,2022.2.4,Win32,42.15318467,,,,,,,,,,,,,,,,,,,,,,,,,,,,,,,,,,,,,,,,,,,,,,,,,,,,,,,,,
