welcome_mouse.x,welcome_mouse.y,welcome_mouse.leftButton,welcome_mouse.midButton,welcome_mouse.rightButton,welcome_mouse.time,"ID",date,expName,psychopyVersion,OS,frameRate,mouse_2.x,mouse_2.y,mouse_2.leftButton,mouse_2.midButton,mouse_2.rightButton,mouse_2.time,mouse_3.x,mouse_3.y,mouse_3.leftButton,mouse_3.midButton,mouse_3.rightButton,mouse_3.time,train_mouse.x,train_mouse.y,train_mouse.leftButton,train_mouse.midButton,train_mouse.rightButton,train_mouse.time,braille_mouse.x,braille_mouse.y,braille_mouse.leftButton,braille_mouse.midButton,braille_mouse.rightButton,braille_mouse.time,trials.thisRepN,trials.thisTrialN,trials.thisN,trials.thisIndex,trials.ran,nlLet,brLet,cbLet,mouse.x,mouse.y,mouse.leftButton,mouse.midButton,mouse.rightButton,testInstr_mouse.x,testInstr_mouse.y,testInstr_mouse.leftButton,testInstr_mouse.midButton,testInstr_mouse.rightButton,test_mouse.x,test_mouse.y,test_mouse.leftButton,test_mouse.midButton,test_mouse.rightButton,test_response.text,testResp,test_loop.thisRepN,test_loop.thisTrialN,test_loop.thisN,test_loop.thisIndex,test_loop.ran,nlWrd,brWrd,cbWrd
0.117142857,-0.171428571,1,0,0,13.6048,00058,2023-10-12_11h01.06.073,vbt_B1_day1,2022.2.4,Win32,61.12469438,,,,,,,,,,,,,,,,,,,,,,,,,,,,,,,,,,,,,,,,,,,,,,,,,,,,,,,,,
,,,,,,00058,2023-10-12_11h01.06.073,vbt_B1_day1,2022.2.4,Win32,61.12469438,0.117142857,-0.18,1,0,0,6.1303,,,,,,,,,,,,,,,,,,,,,,,,,,,,,,,,,,,,,,,,,,,,,,,,,,,
,,,,,,00058,2023-10-12_11h01.06.073,vbt_B1_day1,2022.2.4,Win32,61.12469438,,,,,,,0.015238095,-0.304761905,1,0,0,14.4485,,,,,,,,,,,,,,,,,,,,,,,,,,,,,,,,,,,,,,,,,,,,,
,,,,,,00058,2023-10-12_11h01.06.073,vbt_B1_day1,2022.2.4,Win32,61.12469438,,,,,,,,,,,,,-0.20952381,-0.360952381,1,0,0,37.614,,,,,,,,,,,,,,,,,,,,,,,,,,,,,,,,,,,,,,,
,,,,,,00058,2023-10-12_11h01.06.073,vbt_B1_day1,2022.2.4,Win32,61.12469438,,,,,,,,,,,,,,,,,,,-0.227619048,-0.185714286,1,0,0,11.066,0,0,0,16,1,q,images/br_q.png,images/cb_q.png,,,,,,,,,,,,,,,,,,,,,,,,,
,,,,,,00058,2023-10-12_11h01.06.073,vbt_B1_day1,2022.2.4,Win32,61.12469438,,,,,,,,,,,,,,,,,,,-0.141904762,-0.286666667,1,0,0,18.6482,0,1,1,10,1,k,images/br_k.png,images/cb_k.png,,,,,,,,,,,,,,,,,,,,,,,,,
,,,,,,00058,2023-10-12_11h01.06.073,vbt_B1_day1,2022.2.4,Win32,61.12469438,,,,,,,,,,,,,,,,,,,-0.141904762,-0.283809524,1,0,0,14.7835,0,2,2,1,1,b,images/br_b.png,images/cb_b.png,,,,,,,,,,,,,,,,,,,,,,,,,
,,,,,,00058,2023-10-12_11h01.06.073,vbt_B1_day1,2022.2.4,Win32,61.12469438,,,,,,,,,,,,,,,,,,,-0.141904762,-0.280952381,1,0,0,8.933,0,3,3,5,1,f,images/br_f.png,images/cb_f.png,,,,,,,,,,,,,,,,,,,,,,,,,
,,,,,,00058,2023-10-12_11h01.06.073,vbt_B1_day1,2022.2.4,Win32,61.12469438,,,,,,,,,,,,,,,,,,,-0.141904762,-0.281904762,1,0,0,9.7998,0,4,4,6,1,g,images/br_g.png,images/cb_g.png,,,,,,,,,,,,,,,,,,,,,,,,,
,,,,,,00058,2023-10-12_11h01.06.073,vbt_B1_day1,2022.2.4,Win32,61.12469438,,,,,,,,,,,,,,,,,,,-0.11047619,-0.318095238,1,0,0,7.4336,0,5,5,20,1,u,images/br_u.png,images/cb_u.png,,,,,,,,,,,,,,,,,,,,,,,,,
,,,,,,00058,2023-10-12_11h01.06.073,vbt_B1_day1,2022.2.4,Win32,61.12469438,,,,,,,,,,,,,,,,,,,-0.097142857,-0.315238095,1,0,0,10.6497,0,6,6,17,1,r,images/br_r.png,images/cb_r.png,,,,,,,,,,,,,,,,,,,,,,,,,
,,,,,,00058,2023-10-12_11h01.06.073,vbt_B1_day1,2022.2.4,Win32,61.12469438,,,,,,,,,,,,,,,,,,,-0.105714286,-0.324761905,1,0,0,11.217,0,7,7,3,1,d,images/br_d.png,images/cb_d.png,,,,,,,,,,,,,,,,,,,,,,,,,
,,,,,,00058,2023-10-12_11h01.06.073,vbt_B1_day1,2022.2.4,Win32,61.12469438,,,,,,,,,,,,,,,,,,,0.051428571,-0.145714286,1,0,0,25.7332,0,8,8,9,1,j,images/br_j.png,images/cb_j.png,,,,,,,,,,,,,,,,,,,,,,,,,
,,,,,,00058,2023-10-12_11h01.06.073,vbt_B1_day1,2022.2.4,Win32,61.12469438,,,,,,,,,,,,,,,,,,,0.094285714,-0.207619048,1,0,0,10.267,0,9,9,13,1,n,images/br_n.png,images/cb_n.png,,,,,,,,,,,,,,,,,,,,,,,,,
,,,,,,00058,2023-10-12_11h01.06.073,vbt_B1_day1,2022.2.4,Win32,61.12469438,,,,,,,,,,,,,,,,,,,0.123809524,-0.15047619,1,0,0,13.0168,0,10,10,24,1,y,images/br_y.png,images/cb_y.png,,,,,,,,,,,,,,,,,,,,,,,,,
,,,,,,00058,2023-10-12_11h01.06.073,vbt_B1_day1,2022.2.4,Win32,61.12469438,,,,,,,,,,,,,,,,,,,0.127619048,-0.20952381,1,0,0,1.8165,0,11,11,23,1,x,images/br_x.png,images/cb_x.png,,,,,,,,,,,,,,,,,,,,,,,,,
,,,,,,00058,2023-10-12_11h01.06.073,vbt_B1_day1,2022.2.4,Win32,61.12469438,,,,,,,,,,,,,,,,,,,0.19047619,-0.187619048,1,0,0,8.7503,0,12,12,4,1,e,images/br_e.png,images/cb_e.png,,,,,,,,,,,,,,,,,,,,,,,,,
,,,,,,00058,2023-10-12_11h01.06.073,vbt_B1_day1,2022.2.4,Win32,61.12469438,,,,,,,,,,,,,,,,,,,0.183809524,-0.215238095,1,0,0,9.4497,0,13,13,0,1,a,images/br_a.png,images/cb_a.png,,,,,,,,,,,,,,,,,,,,,,,,,
,,,,,,00058,2023-10-12_11h01.06.073,vbt_B1_day1,2022.2.4,Win32,61.12469438,,,,,,,,,,,,,,,,,,,0.203809524,-0.241904762,1,0,0,5.9164,0,14,14,22,1,w,images/br_w.png,images/cb_w.png,,,,,,,,,,,,,,,,,,,,,,,,,
,,,,,,00058,2023-10-12_11h01.06.073,vbt_B1_day1,2022.2.4,Win32,61.12469438,,,,,,,,,,,,,,,,,,,0.252380952,-0.234285714,1,0,0,5.9668,0,15,15,19,1,t,images/br_t.png,images/cb_t.png,,,,,,,,,,,,,,,,,,,,,,,,,
,,,,,,00058,2023-10-12_11h01.06.073,vbt_B1_day1,2022.2.4,Win32,61.12469438,,,,,,,,,,,,,,,,,,,0.24952381,-0.258095238,1,0,0,10.0327,0,16,16,2,1,c,images/br_c.png,images/cb_c.png,,,,,,,,,,,,,,,,,,,,,,,,,
,,,,,,00058,2023-10-12_11h01.06.073,vbt_B1_day1,2022.2.4,Win32,61.12469438,,,,,,,,,,,,,,,,,,,0.2,-0.208571429,1,0,0,5.1501,0,17,17,21,1,v,images/br_v.png,images/cb_v.png,,,,,,,,,,,,,,,,,,,,,,,,,
,,,,,,00058,2023-10-12_11h01.06.073,vbt_B1_day1,2022.2.4,Win32,61.12469438,,,,,,,,,,,,,,,,,,,0.213333333,-0.242857143,1,0,0,4.5167,0,18,18,15,1,p,images/br_p.png,images/cb_p.png,,,,,,,,,,,,,,,,,,,,,,,,,
,,,,,,00058,2023-10-12_11h01.06.073,vbt_B1_day1,2022.2.4,Win32,61.12469438,,,,,,,,,,,,,,,,,,,0.226666667,-0.248571429,1,0,0,8.8834,0,19,19,7,1,h,images/br_h.png,images/cb_h.png,,,,,,,,,,,,,,,,,,,,,,,,,
,,,,,,00058,2023-10-12_11h01.06.073,vbt_B1_day1,2022.2.4,Win32,61.12469438,,,,,,,,,,,,,,,,,,,0.278095238,-0.205714286,1,0,0,5.7003,0,20,20,25,1,z,images/br_z.png,images/cb_z.png,,,,,,,,,,,,,,,,,,,,,,,,,
,,,,,,00058,2023-10-12_11h01.06.073,vbt_B1_day1,2022.2.4,Win32,61.12469438,,,,,,,,,,,,,,,,,,,0.100952381,-0.075238095,1,0,0,6.6,0,21,21,12,1,m,images/br_m.png,images/cb_m.png,,,,,,,,,,,,,,,,,,,,,,,,,
,,,,,,00058,2023-10-12_11h01.06.073,vbt_B1_day1,2022.2.4,Win32,61.12469438,,,,,,,,,,,,,,,,,,,0.112380952,-0.075238095,1,0,0,2.2671,0,22,22,8,1,i,images/br_i.png,images/cb_i.png,,,,,,,,,,,,,,,,,,,,,,,,,
,,,,,,00058,2023-10-12_11h01.06.073,vbt_B1_day1,2022.2.4,Win32,61.12469438,,,,,,,,,,,,,,,,,,,0.187619048,-0.142857143,1,0,0,6.6831,0,23,23,18,1,s,images/br_s.png,images/cb_s.png,,,,,,,,,,,,,,,,,,,,,,,,,
,,,,,,00058,2023-10-12_11h01.06.073,vbt_B1_day1,2022.2.4,Win32,61.12469438,,,,,,,,,,,,,,,,,,,0.186666667,-0.136190476,1,0,0,7.0667,0,24,24,14,1,o,images/br_o.png,images/cb_o.png,,,,,,,,,,,,,,,,,,,,,,,,,
,,,,,,00058,2023-10-12_11h01.06.073,vbt_B1_day1,2022.2.4,Win32,61.12469438,,,,,,,,,,,,,,,,,,,0.11047619,-0.122857143,1,0,0,2.4446,0,25,25,11,1,l,images/br_l.png,images/cb_l.png,,,,,,,,,,,,,,,,,,,,,,,,,
,,,,,,00058,2023-10-12_11h01.06.073,vbt_B1_day1,2022.2.4,Win32,61.12469438,,,,,,,,,,,,,,,,,,,0.137142857,-0.076190476,1,0,0,2.3664,1,0,26,25,1,z,images/br_z.png,images/cb_z.png,,,,,,,,,,,,,,,,,,,,,,,,,
,,,,,,00058,2023-10-12_11h01.06.073,vbt_B1_day1,2022.2.4,Win32,61.12469438,,,,,,,,,,,,,,,,,,,0.138095238,-0.100952381,1,0,0,3.0501,1,1,27,0,1,a,images/br_a.png,images/cb_a.png,,,,,,,,,,,,,,,,,,,,,,,,,
,,,,,,00058,2023-10-12_11h01.06.073,vbt_B1_day1,2022.2.4,Win32,61.12469438,,,,,,,,,,,,,,,,,,,0.12952381,-0.099047619,1,0,0,4.2501,1,2,28,21,1,v,images/br_v.png,images/cb_v.png,,,,,,,,,,,,,,,,,,,,,,,,,
,,,,,,00058,2023-10-12_11h01.06.073,vbt_B1_day1,2022.2.4,Win32,61.12469438,,,,,,,,,,,,,,,,,,,0.132380952,-0.104761905,1,0,0,0.7828,1,3,29,2,1,c,images/br_c.png,images/cb_c.png,,,,,,,,,,,,,,,,,,,,,,,,,
,,,,,,00058,2023-10-12_11h01.06.073,vbt_B1_day1,2022.2.4,Win32,61.12469438,,,,,,,,,,,,,,,,,,,0.132380952,-0.104761905,1,0,0,3.9338,1,4,30,22,1,w,images/br_w.png,images/cb_w.png,,,,,,,,,,,,,,,,,,,,,,,,,
,,,,,,00058,2023-10-12_11h01.06.073,vbt_B1_day1,2022.2.4,Win32,61.12469438,,,,,,,,,,,,,,,,,,,0.132380952,-0.104761905,1,0,0,3.3166,1,5,31,16,1,q,images/br_q.png,images/cb_q.png,,,,,,,,,,,,,,,,,,,,,,,,,
,,,,,,00058,2023-10-12_11h01.06.073,vbt_B1_day1,2022.2.4,Win32,61.12469438,,,,,,,,,,,,,,,,,,,0.12952381,-0.098095238,1,0,0,2.2332,1,6,32,14,1,o,images/br_o.png,images/cb_o.png,,,,,,,,,,,,,,,,,,,,,,,,,
,,,,,,00058,2023-10-12_11h01.06.073,vbt_B1_day1,2022.2.4,Win32,61.12469438,,,,,,,,,,,,,,,,,,,0.12952381,-0.098095238,1,0,0,2.5998,1,7,33,15,1,p,images/br_p.png,images/cb_p.png,,,,,,,,,,,,,,,,,,,,,,,,,
,,,,,,00058,2023-10-12_11h01.06.073,vbt_B1_day1,2022.2.4,Win32,61.12469438,,,,,,,,,,,,,,,,,,,0.12952381,-0.097142857,1,0,0,0.25,1,8,34,18,1,s,images/br_s.png,images/cb_s.png,,,,,,,,,,,,,,,,,,,,,,,,,
,,,,,,00058,2023-10-12_11h01.06.073,vbt_B1_day1,2022.2.4,Win32,61.12469438,,,,,,,,,,,,,,,,,,,0.12952381,-0.097142857,1,0,0,0.0669,1,9,35,1,1,b,images/br_b.png,images/cb_b.png,,,,,,,,,,,,,,,,,,,,,,,,,
,,,,,,00058,2023-10-12_11h01.06.073,vbt_B1_day1,2022.2.4,Win32,61.12469438,,,,,,,,,,,,,,,,,,,0.12952381,-0.097142857,1,0,0,4.3324,1,10,36,9,1,j,images/br_j.png,images/cb_j.png,,,,,,,,,,,,,,,,,,,,,,,,,
,,,,,,00058,2023-10-12_11h01.06.073,vbt_B1_day1,2022.2.4,Win32,61.12469438,,,,,,,,,,,,,,,,,,,0.12952381,-0.097142857,1,0,0,1.7832,1,11,37,8,1,i,images/br_i.png,images/cb_i.png,,,,,,,,,,,,,,,,,,,,,,,,,
,,,,,,00058,2023-10-12_11h01.06.073,vbt_B1_day1,2022.2.4,Win32,61.12469438,,,,,,,,,,,,,,,,,,,0.134285714,-0.106666667,1,0,0,1.2663,1,12,38,5,1,f,images/br_f.png,images/cb_f.png,,,,,,,,,,,,,,,,,,,,,,,,,
,,,,,,00058,2023-10-12_11h01.06.073,vbt_B1_day1,2022.2.4,Win32,61.12469438,,,,,,,,,,,,,,,,,,,0.128571429,-0.101904762,1,0,0,3.4831,1,13,39,24,1,y,images/br_y.png,images/cb_y.png,,,,,,,,,,,,,,,,,,,,,,,,,
,,,,,,00058,2023-10-12_11h01.06.073,vbt_B1_day1,2022.2.4,Win32,61.12469438,,,,,,,,,,,,,,,,,,,0.148571429,-0.137142857,1,0,0,3.2834,1,14,40,13,1,n,images/br_n.png,images/cb_n.png,,,,,,,,,,,,,,,,,,,,,,,,,
,,,,,,00058,2023-10-12_11h01.06.073,vbt_B1_day1,2022.2.4,Win32,61.12469438,,,,,,,,,,,,,,,,,,,0.145714286,-0.137142857,1,0,0,0.3668,1,15,41,20,1,u,images/br_u.png,images/cb_u.png,,,,,,,,,,,,,,,,,,,,,,,,,
,,,,,,00058,2023-10-12_11h01.06.073,vbt_B1_day1,2022.2.4,Win32,61.12469438,,,,,,,,,,,,,,,,,,,0.140952381,-0.134285714,1,0,0,1.4004,1,16,42,23,1,x,images/br_x.png,images/cb_x.png,,,,,,,,,,,,,,,,,,,,,,,,,
,,,,,,00058,2023-10-12_11h01.06.073,vbt_B1_day1,2022.2.4,Win32,61.12469438,,,,,,,,,,,,,,,,,,,0.140952381,-0.128571429,1,0,0,2.2656,1,17,43,3,1,d,images/br_d.png,images/cb_d.png,,,,,,,,,,,,,,,,,,,,,,,,,
,,,,,,00058,2023-10-12_11h01.06.073,vbt_B1_day1,2022.2.4,Win32,61.12469438,,,,,,,,,,,,,,,,,,,0.140952381,-0.127619048,1,0,0,2.0339,1,18,44,6,1,g,images/br_g.png,images/cb_g.png,,,,,,,,,,,,,,,,,,,,,,,,,
,,,,,,00058,2023-10-12_11h01.06.073,vbt_B1_day1,2022.2.4,Win32,61.12469438,,,,,,,,,,,,,,,,,,,0.140952381,-0.127619048,1,0,0,0.1497,1,19,45,11,1,l,images/br_l.png,images/cb_l.png,,,,,,,,,,,,,,,,,,,,,,,,,
,,,,,,00058,2023-10-12_11h01.06.073,vbt_B1_day1,2022.2.4,Win32,61.12469438,,,,,,,,,,,,,,,,,,,0.156190476,-0.140952381,1,0,0,11.2166,1,20,46,12,1,m,images/br_m.png,images/cb_m.png,,,,,,,,,,,,,,,,,,,,,,,,,
,,,,,,00058,2023-10-12_11h01.06.073,vbt_B1_day1,2022.2.4,Win32,61.12469438,,,,,,,,,,,,,,,,,,,0.172380952,-0.156190476,1,0,0,3.5332,1,21,47,17,1,r,images/br_r.png,images/cb_r.png,,,,,,,,,,,,,,,,,,,,,,,,,
,,,,,,00058,2023-10-12_11h01.06.073,vbt_B1_day1,2022.2.4,Win32,61.12469438,,,,,,,,,,,,,,,,,,,0.16952381,-0.153333333,1,0,0,0.5174,1,22,48,4,1,e,images/br_e.png,images/cb_e.png,,,,,,,,,,,,,,,,,,,,,,,,,
,,,,,,00058,2023-10-12_11h01.06.073,vbt_B1_day1,2022.2.4,Win32,61.12469438,,,,,,,,,,,,,,,,,,,0.175238095,-0.093333333,1,0,0,2.8666,1,23,49,10,1,k,images/br_k.png,images/cb_k.png,,,,,,,,,,,,,,,,,,,,,,,,,
,,,,,,00058,2023-10-12_11h01.06.073,vbt_B1_day1,2022.2.4,Win32,61.12469438,,,,,,,,,,,,,,,,,,,0.174285714,-0.093333333,1,0,0,2.8993,1,24,50,19,1,t,images/br_t.png,images/cb_t.png,,,,,,,,,,,,,,,,,,,,,,,,,
,,,,,,00058,2023-10-12_11h01.06.073,vbt_B1_day1,2022.2.4,Win32,61.12469438,,,,,,,,,,,,,,,,,,,0.174285714,-0.106666667,1,0,0,6.467,1,25,51,7,1,h,images/br_h.png,images/cb_h.png,,,,,,,,,,,,,,,,,,,,,,,,,
,,,,,,00058,2023-10-12_11h01.06.073,vbt_B1_day1,2022.2.4,Win32,61.12469438,,,,,,,,,,,,,,,,,,,0.161904762,-0.102857143,1,0,0,2.4166,2,0,52,15,1,p,images/br_p.png,images/cb_p.png,,,,,,,,,,,,,,,,,,,,,,,,,
,,,,,,00058,2023-10-12_11h01.06.073,vbt_B1_day1,2022.2.4,Win32,61.12469438,,,,,,,,,,,,,,,,,,,0.162857143,-0.102857143,1,0,0,0.6834,2,1,53,17,1,r,images/br_r.png,images/cb_r.png,,,,,,,,,,,,,,,,,,,,,,,,,
,,,,,,00058,2023-10-12_11h01.06.073,vbt_B1_day1,2022.2.4,Win32,61.12469438,,,,,,,,,,,,,,,,,,,0.166666667,-0.104761905,1,0,0,1.0011,2,2,54,18,1,s,images/br_s.png,images/cb_s.png,,,,,,,,,,,,,,,,,,,,,,,,,
,,,,,,00058,2023-10-12_11h01.06.073,vbt_B1_day1,2022.2.4,Win32,61.12469438,,,,,,,,,,,,,,,,,,,0.166666667,-0.104761905,1,0,0,2.7501,2,3,55,20,1,u,images/br_u.png,images/cb_u.png,,,,,,,,,,,,,,,,,,,,,,,,,
,,,,,,00058,2023-10-12_11h01.06.073,vbt_B1_day1,2022.2.4,Win32,61.12469438,,,,,,,,,,,,,,,,,,,0.166666667,-0.104761905,1,0,0,1.3832,2,4,56,4,1,e,images/br_e.png,images/cb_e.png,,,,,,,,,,,,,,,,,,,,,,,,,
,,,,,,00058,2023-10-12_11h01.06.073,vbt_B1_day1,2022.2.4,Win32,61.12469438,,,,,,,,,,,,,,,,,,,0.167619048,-0.104761905,1,0,0,1.8164,2,5,57,7,1,h,images/br_h.png,images/cb_h.png,,,,,,,,,,,,,,,,,,,,,,,,,
,,,,,,00058,2023-10-12_11h01.06.073,vbt_B1_day1,2022.2.4,Win32,61.12469438,,,,,,,,,,,,,,,,,,,0.167619048,-0.104761905,1,0,0,0.5,2,6,58,1,1,b,images/br_b.png,images/cb_b.png,,,,,,,,,,,,,,,,,,,,,,,,,
,,,,,,00058,2023-10-12_11h01.06.073,vbt_B1_day1,2022.2.4,Win32,61.12469438,,,,,,,,,,,,,,,,,,,0.167619048,-0.104761905,1,0,0,1,2,7,59,16,1,q,images/br_q.png,images/cb_q.png,,,,,,,,,,,,,,,,,,,,,,,,,
,,,,,,00058,2023-10-12_11h01.06.073,vbt_B1_day1,2022.2.4,Win32,61.12469438,,,,,,,,,,,,,,,,,,,0.17047619,-0.092380952,1,0,0,14.166,2,8,60,22,1,w,images/br_w.png,images/cb_w.png,,,,,,,,,,,,,,,,,,,,,,,,,
,,,,,,00058,2023-10-12_11h01.06.073,vbt_B1_day1,2022.2.4,Win32,61.12469438,,,,,,,,,,,,,,,,,,,0.173333333,-0.1,1,0,0,6.6496,2,9,61,5,1,f,images/br_f.png,images/cb_f.png,,,,,,,,,,,,,,,,,,,,,,,,,
,,,,,,00058,2023-10-12_11h01.06.073,vbt_B1_day1,2022.2.4,Win32,61.12469438,,,,,,,,,,,,,,,,,,,0.172380952,-0.094285714,1,0,0,1.1161,2,10,62,14,1,o,images/br_o.png,images/cb_o.png,,,,,,,,,,,,,,,,,,,,,,,,,
,,,,,,00058,2023-10-12_11h01.06.073,vbt_B1_day1,2022.2.4,Win32,61.12469438,,,,,,,,,,,,,,,,,,,0.195238095,-0.04,1,0,0,8.8666,2,11,63,3,1,d,images/br_d.png,images/cb_d.png,,,,,,,,,,,,,,,,,,,,,,,,,
,,,,,,00058,2023-10-12_11h01.06.073,vbt_B1_day1,2022.2.4,Win32,61.12469438,,,,,,,,,,,,,,,,,,,0.208571429,0.005714286,1,0,0,7.4662,2,12,64,24,1,y,images/br_y.png,images/cb_y.png,,,,,,,,,,,,,,,,,,,,,,,,,
,,,,,,00058,2023-10-12_11h01.06.073,vbt_B1_day1,2022.2.4,Win32,61.12469438,,,,,,,,,,,,,,,,,,,0.223809524,-0.01047619,1,0,0,5.9833,2,13,65,12,1,m,images/br_m.png,images/cb_m.png,,,,,,,,,,,,,,,,,,,,,,,,,
,,,,,,00058,2023-10-12_11h01.06.073,vbt_B1_day1,2022.2.4,Win32,61.12469438,,,,,,,,,,,,,,,,,,,0.223809524,-0.012380952,1,0,0,0.3003,2,14,66,6,1,g,images/br_g.png,images/cb_g.png,,,,,,,,,,,,,,,,,,,,,,,,,
,,,,,,00058,2023-10-12_11h01.06.073,vbt_B1_day1,2022.2.4,Win32,61.12469438,,,,,,,,,,,,,,,,,,,0.223809524,-0.012380952,1,0,0,3.1002,2,15,67,21,1,v,images/br_v.png,images/cb_v.png,,,,,,,,,,,,,,,,,,,,,,,,,
,,,,,,00058,2023-10-12_11h01.06.073,vbt_B1_day1,2022.2.4,Win32,61.12469438,,,,,,,,,,,,,,,,,,,0.225714286,-0.015238095,1,0,0,0.1995,2,16,68,11,1,l,images/br_l.png,images/cb_l.png,,,,,,,,,,,,,,,,,,,,,,,,,
,,,,,,00058,2023-10-12_11h01.06.073,vbt_B1_day1,2022.2.4,Win32,61.12469438,,,,,,,,,,,,,,,,,,,0.225714286,-0.015238095,1,0,0,0.2333,2,17,69,0,1,a,images/br_a.png,images/cb_a.png,,,,,,,,,,,,,,,,,,,,,,,,,
,,,,,,00058,2023-10-12_11h01.06.073,vbt_B1_day1,2022.2.4,Win32,61.12469438,,,,,,,,,,,,,,,,,,,0.220952381,-0.02952381,1,0,0,6.1827,2,18,70,9,1,j,images/br_j.png,images/cb_j.png,,,,,,,,,,,,,,,,,,,,,,,,,
,,,,,,00058,2023-10-12_11h01.06.073,vbt_B1_day1,2022.2.4,Win32,61.12469438,,,,,,,,,,,,,,,,,,,0.12,-0.068571429,1,0,0,9.0833,2,19,71,10,1,k,images/br_k.png,images/cb_k.png,,,,,,,,,,,,,,,,,,,,,,,,,
,,,,,,00058,2023-10-12_11h01.06.073,vbt_B1_day1,2022.2.4,Win32,61.12469438,,,,,,,,,,,,,,,,,,,0.2,-0.119047619,1,0,0,8.3162,2,20,72,13,1,n,images/br_n.png,images/cb_n.png,,,,,,,,,,,,,,,,,,,,,,,,,
,,,,,,00058,2023-10-12_11h01.06.073,vbt_B1_day1,2022.2.4,Win32,61.12469438,,,,,,,,,,,,,,,,,,,0.185714286,-0.133333333,1,0,0,0.6505,2,21,73,2,1,c,images/br_c.png,images/cb_c.png,,,,,,,,,,,,,,,,,,,,,,,,,
,,,,,,00058,2023-10-12_11h01.06.073,vbt_B1_day1,2022.2.4,Win32,61.12469438,,,,,,,,,,,,,,,,,,,0.158095238,-0.161904762,1,0,0,0.0172,2,22,74,23,1,x,images/br_x.png,images/cb_x.png,,,,,,,,,,,,,,,,,,,,,,,,,
,,,,,,00058,2023-10-12_11h01.06.073,vbt_B1_day1,2022.2.4,Win32,61.12469438,,,,,,,,,,,,,,,,,,,0.192380952,-0.140952381,1,0,0,2.2999,2,23,75,25,1,z,images/br_z.png,images/cb_z.png,,,,,,,,,,,,,,,,,,,,,,,,,
,,,,,,00058,2023-10-12_11h01.06.073,vbt_B1_day1,2022.2.4,Win32,61.12469438,,,,,,,,,,,,,,,,,,,0.214285714,-0.088571429,1,0,0,9.6667,2,24,76,8,1,i,images/br_i.png,images/cb_i.png,,,,,,,,,,,,,,,,,,,,,,,,,
,,,,,,00058,2023-10-12_11h01.06.073,vbt_B1_day1,2022.2.4,Win32,61.12469438,,,,,,,,,,,,,,,,,,,0.160952381,-0.095238095,1,0,0,16.1338,2,25,77,19,1,t,images/br_t.png,images/cb_t.png,,,,,,,,,,,,,,,,,,,,,,,,,
,,,,,,00058,2023-10-12_11h01.06.073,vbt_B1_day1,2022.2.4,Win32,61.12469438,,,,,,,,,,,,,,,,,,,0.18952381,-0.10952381,1,0,0,0.9497,3,0,78,0,1,a,images/br_a.png,images/cb_a.png,,,,,,,,,,,,,,,,,,,,,,,,,
,,,,,,00058,2023-10-12_11h01.06.073,vbt_B1_day1,2022.2.4,Win32,61.12469438,,,,,,,,,,,,,,,,,,,0.144761905,-0.134285714,1,0,0,5.9667,3,1,79,20,1,u,images/br_u.png,images/cb_u.png,,,,,,,,,,,,,,,,,,,,,,,,,
,,,,,,00058,2023-10-12_11h01.06.073,vbt_B1_day1,2022.2.4,Win32,61.12469438,,,,,,,,,,,,,,,,,,,0.141904762,-0.138095238,1,0,0,0.3168,3,2,80,6,1,g,images/br_g.png,images/cb_g.png,,,,,,,,,,,,,,,,,,,,,,,,,
,,,,,,00058,2023-10-12_11h01.06.073,vbt_B1_day1,2022.2.4,Win32,61.12469438,,,,,,,,,,,,,,,,,,,0.146666667,-0.141904762,1,0,0,0.5828,3,3,81,19,1,t,images/br_t.png,images/cb_t.png,,,,,,,,,,,,,,,,,,,,,,,,,
,,,,,,00058,2023-10-12_11h01.06.073,vbt_B1_day1,2022.2.4,Win32,61.12469438,,,,,,,,,,,,,,,,,,,0.155238095,-0.140952381,1,0,0,0.3665,3,4,82,14,1,o,images/br_o.png,images/cb_o.png,,,,,,,,,,,,,,,,,,,,,,,,,
,,,,,,00058,2023-10-12_11h01.06.073,vbt_B1_day1,2022.2.4,Win32,61.12469438,,,,,,,,,,,,,,,,,,,0.158095238,-0.14,1,0,0,5.7204,3,5,83,17,1,r,images/br_r.png,images/cb_r.png,,,,,,,,,,,,,,,,,,,,,,,,,
,,,,,,00058,2023-10-12_11h01.06.073,vbt_B1_day1,2022.2.4,Win32,61.12469438,,,,,,,,,,,,,,,,,,,0.113333333,-0.155238095,1,0,0,0.651,3,6,84,1,1,b,images/br_b.png,images/cb_b.png,,,,,,,,,,,,,,,,,,,,,,,,,
,,,,,,00058,2023-10-12_11h01.06.073,vbt_B1_day1,2022.2.4,Win32,61.12469438,,,,,,,,,,,,,,,,,,,0.127619048,-0.155238095,1,0,0,2.9991,3,7,85,9,1,j,images/br_j.png,images/cb_j.png,,,,,,,,,,,,,,,,,,,,,,,,,
,,,,,,00058,2023-10-12_11h01.06.073,vbt_B1_day1,2022.2.4,Win32,61.12469438,,,,,,,,,,,,,,,,,,,0.144761905,-0.113333333,1,0,0,3.133,3,8,86,15,1,p,images/br_p.png,images/cb_p.png,,,,,,,,,,,,,,,,,,,,,,,,,
,,,,,,00058,2023-10-12_11h01.06.073,vbt_B1_day1,2022.2.4,Win32,61.12469438,,,,,,,,,,,,,,,,,,,0.144761905,-0.113333333,1,0,0,1.7335,3,9,87,22,1,w,images/br_w.png,images/cb_w.png,,,,,,,,,,,,,,,,,,,,,,,,,
,,,,,,00058,2023-10-12_11h01.06.073,vbt_B1_day1,2022.2.4,Win32,61.12469438,,,,,,,,,,,,,,,,,,,0.147619048,-0.111428571,1,0,0,0.6831,3,10,88,16,1,q,images/br_q.png,images/cb_q.png,,,,,,,,,,,,,,,,,,,,,,,,,
,,,,,,00058,2023-10-12_11h01.06.073,vbt_B1_day1,2022.2.4,Win32,61.12469438,,,,,,,,,,,,,,,,,,,0.137142857,-0.106666667,1,0,0,0.8665,3,11,89,3,1,d,images/br_d.png,images/cb_d.png,,,,,,,,,,,,,,,,,,,,,,,,,
,,,,,,00058,2023-10-12_11h01.06.073,vbt_B1_day1,2022.2.4,Win32,61.12469438,,,,,,,,,,,,,,,,,,,0.158095238,-0.168571429,1,0,0,6.7994,3,12,90,8,1,i,images/br_i.png,images/cb_i.png,,,,,,,,,,,,,,,,,,,,,,,,,
,,,,,,00058,2023-10-12_11h01.06.073,vbt_B1_day1,2022.2.4,Win32,61.12469438,,,,,,,,,,,,,,,,,,,0.164761905,-0.122857143,1,0,0,4.1999,3,13,91,24,1,y,images/br_y.png,images/cb_y.png,,,,,,,,,,,,,,,,,,,,,,,,,
,,,,,,00058,2023-10-12_11h01.06.073,vbt_B1_day1,2022.2.4,Win32,61.12469438,,,,,,,,,,,,,,,,,,,0.197142857,-0.195238095,1,0,0,4.533,3,14,92,13,1,n,images/br_n.png,images/cb_n.png,,,,,,,,,,,,,,,,,,,,,,,,,
,,,,,,00058,2023-10-12_11h01.06.073,vbt_B1_day1,2022.2.4,Win32,61.12469438,,,,,,,,,,,,,,,,,,,0.193333333,-0.194285714,1,0,0,0.3832,3,15,93,12,1,m,images/br_m.png,images/cb_m.png,,,,,,,,,,,,,,,,,,,,,,,,,
,,,,,,00058,2023-10-12_11h01.06.073,vbt_B1_day1,2022.2.4,Win32,61.12469438,,,,,,,,,,,,,,,,,,,0.14,-0.206666667,1,0,0,0.0988,3,16,94,11,1,l,images/br_l.png,images/cb_l.png,,,,,,,,,,,,,,,,,,,,,,,,,
,,,,,,00058,2023-10-12_11h01.06.073,vbt_B1_day1,2022.2.4,Win32,61.12469438,,,,,,,,,,,,,,,,,,,0.12952381,-0.176190476,1,0,0,0.2833,3,17,95,4,1,e,images/br_e.png,images/cb_e.png,,,,,,,,,,,,,,,,,,,,,,,,,
,,,,,,00058,2023-10-12_11h01.06.073,vbt_B1_day1,2022.2.4,Win32,61.12469438,,,,,,,,,,,,,,,,,,,0.14952381,-0.172380952,1,0,0,0.9838,3,18,96,10,1,k,images/br_k.png,images/cb_k.png,,,,,,,,,,,,,,,,,,,,,,,,,
,,,,,,00058,2023-10-12_11h01.06.073,vbt_B1_day1,2022.2.4,Win32,61.12469438,,,,,,,,,,,,,,,,,,,0.18952381,-0.221904762,1,0,0,7.9994,3,19,97,7,1,h,images/br_h.png,images/cb_h.png,,,,,,,,,,,,,,,,,,,,,,,,,
,,,,,,00058,2023-10-12_11h01.06.073,vbt_B1_day1,2022.2.4,Win32,61.12469438,,,,,,,,,,,,,,,,,,,0.18,-0.16952381,1,0,0,0.9159,3,20,98,25,1,z,images/br_z.png,images/cb_z.png,,,,,,,,,,,,,,,,,,,,,,,,,
,,,,,,00058,2023-10-12_11h01.06.073,vbt_B1_day1,2022.2.4,Win32,61.12469438,,,,,,,,,,,,,,,,,,,0.176190476,-0.193333333,1,0,0,6.7169,3,21,99,18,1,s,images/br_s.png,images/cb_s.png,,,,,,,,,,,,,,,,,,,,,,,,,
,,,,,,00058,2023-10-12_11h01.06.073,vbt_B1_day1,2022.2.4,Win32,61.12469438,,,,,,,,,,,,,,,,,,,0.173333333,-0.188571429,1,0,0,0.334,3,22,100,2,1,c,images/br_c.png,images/cb_c.png,,,,,,,,,,,,,,,,,,,,,,,,,
,,,,,,00058,2023-10-12_11h01.06.073,vbt_B1_day1,2022.2.4,Win32,61.12469438,,,,,,,,,,,,,,,,,,,0.160952381,-0.081904762,1,0,0,4.8502,3,23,101,21,1,v,images/br_v.png,images/cb_v.png,,,,,,,,,,,,,,,,,,,,,,,,,
,,,,,,00058,2023-10-12_11h01.06.073,vbt_B1_day1,2022.2.4,Win32,61.12469438,,,,,,,,,,,,,,,,,,,0.133333333,-0.131428571,1,0,0,0.3501,3,24,102,23,1,x,images/br_x.png,images/cb_x.png,,,,,,,,,,,,,,,,,,,,,,,,,
,,,,,,00058,2023-10-12_11h01.06.073,vbt_B1_day1,2022.2.4,Win32,61.12469438,,,,,,,,,,,,,,,,,,,0.112380952,-0.12952381,1,0,0,6.7498,3,25,103,5,1,f,images/br_f.png,images/cb_f.png,,,,,,,,,,,,,,,,,,,,,,,,,
,,,,,,00058,2023-10-12_11h01.06.073,vbt_B1_day1,2022.2.4,Win32,61.12469438,,,,,,,,,,,,,,,,,,,0.18952381,-0.160952381,1,0,0,4.8162,4,0,104,19,1,t,images/br_t.png,images/cb_t.png,,,,,,,,,,,,,,,,,,,,,,,,,
,,,,,,00058,2023-10-12_11h01.06.073,vbt_B1_day1,2022.2.4,Win32,61.12469438,,,,,,,,,,,,,,,,,,,0.159047619,-0.134285714,1,0,0,6.9829,4,1,105,17,1,r,images/br_r.png,images/cb_r.png,,,,,,,,,,,,,,,,,,,,,,,,,
,,,,,,00058,2023-10-12_11h01.06.073,vbt_B1_day1,2022.2.4,Win32,61.12469438,,,,,,,,,,,,,,,,,,,0.06952381,-0.105714286,1,0,0,0.3506,4,2,106,22,1,w,images/br_w.png,images/cb_w.png,,,,,,,,,,,,,,,,,,,,,,,,,
,,,,,,00058,2023-10-12_11h01.06.073,vbt_B1_day1,2022.2.4,Win32,61.12469438,,,,,,,,,,,,,,,,,,,0.11047619,-0.08952381,1,0,0,5.4168,4,3,107,9,1,j,images/br_j.png,images/cb_j.png,,,,,,,,,,,,,,,,,,,,,,,,,
,,,,,,00058,2023-10-12_11h01.06.073,vbt_B1_day1,2022.2.4,Win32,61.12469438,,,,,,,,,,,,,,,,,,,0.083809524,-0.115238095,1,0,0,0.1331,4,4,108,4,1,e,images/br_e.png,images/cb_e.png,,,,,,,,,,,,,,,,,,,,,,,,,
,,,,,,00058,2023-10-12_11h01.06.073,vbt_B1_day1,2022.2.4,Win32,61.12469438,,,,,,,,,,,,,,,,,,,0.108571429,-0.120952381,1,0,0,0.4169,4,5,109,1,1,b,images/br_b.png,images/cb_b.png,,,,,,,,,,,,,,,,,,,,,,,,,
,,,,,,00058,2023-10-12_11h01.06.073,vbt_B1_day1,2022.2.4,Win32,61.12469438,,,,,,,,,,,,,,,,,,,0.10952381,-0.119047619,1,0,0,1.4999,4,6,110,6,1,g,images/br_g.png,images/cb_g.png,,,,,,,,,,,,,,,,,,,,,,,,,
,,,,,,00058,2023-10-12_11h01.06.073,vbt_B1_day1,2022.2.4,Win32,61.12469438,,,,,,,,,,,,,,,,,,,0.10952381,-0.086666667,1,0,0,7.3835,4,7,111,20,1,u,images/br_u.png,images/cb_u.png,,,,,,,,,,,,,,,,,,,,,,,,,
,,,,,,00058,2023-10-12_11h01.06.073,vbt_B1_day1,2022.2.4,Win32,61.12469438,,,,,,,,,,,,,,,,,,,0.083809524,-0.092380952,1,0,0,0.6331,4,8,112,11,1,l,images/br_l.png,images/cb_l.png,,,,,,,,,,,,,,,,,,,,,,,,,
,,,,,,00058,2023-10-12_11h01.06.073,vbt_B1_day1,2022.2.4,Win32,61.12469438,,,,,,,,,,,,,,,,,,,0.104761905,-0.12,1,0,0,5.65,4,9,113,5,1,f,images/br_f.png,images/cb_f.png,,,,,,,,,,,,,,,,,,,,,,,,,
,,,,,,00058,2023-10-12_11h01.06.073,vbt_B1_day1,2022.2.4,Win32,61.12469438,,,,,,,,,,,,,,,,,,,0.104761905,-0.12,1,0,0,8.3008,4,10,114,13,1,n,images/br_n.png,images/cb_n.png,,,,,,,,,,,,,,,,,,,,,,,,,
,,,,,,00058,2023-10-12_11h01.06.073,vbt_B1_day1,2022.2.4,Win32,61.12469438,,,,,,,,,,,,,,,,,,,0.104761905,-0.12,1,0,0,0.7833,4,11,115,18,1,s,images/br_s.png,images/cb_s.png,,,,,,,,,,,,,,,,,,,,,,,,,
,,,,,,00058,2023-10-12_11h01.06.073,vbt_B1_day1,2022.2.4,Win32,61.12469438,,,,,,,,,,,,,,,,,,,0.104761905,-0.119047619,1,0,0,1.0332,4,12,116,0,1,a,images/br_a.png,images/cb_a.png,,,,,,,,,,,,,,,,,,,,,,,,,
,,,,,,00058,2023-10-12_11h01.06.073,vbt_B1_day1,2022.2.4,Win32,61.12469438,,,,,,,,,,,,,,,,,,,0.104761905,-0.120952381,1,0,0,1.2167,4,13,117,10,1,k,images/br_k.png,images/cb_k.png,,,,,,,,,,,,,,,,,,,,,,,,,
,,,,,,00058,2023-10-12_11h01.06.073,vbt_B1_day1,2022.2.4,Win32,61.12469438,,,,,,,,,,,,,,,,,,,0.124761905,-0.126666667,1,0,0,0.4336,4,14,118,3,1,d,images/br_d.png,images/cb_d.png,,,,,,,,,,,,,,,,,,,,,,,,,
,,,,,,00058,2023-10-12_11h01.06.073,vbt_B1_day1,2022.2.4,Win32,61.12469438,,,,,,,,,,,,,,,,,,,0.124761905,-0.124761905,1,0,0,5.4505,4,15,119,12,1,m,images/br_m.png,images/cb_m.png,,,,,,,,,,,,,,,,,,,,,,,,,
,,,,,,00058,2023-10-12_11h01.06.073,vbt_B1_day1,2022.2.4,Win32,61.12469438,,,,,,,,,,,,,,,,,,,0.124761905,-0.125714286,1,0,0,0.4334,4,16,120,16,1,q,images/br_q.png,images/cb_q.png,,,,,,,,,,,,,,,,,,,,,,,,,
,,,,,,00058,2023-10-12_11h01.06.073,vbt_B1_day1,2022.2.4,Win32,61.12469438,,,,,,,,,,,,,,,,,,,0.124761905,-0.12952381,1,0,0,0.5003,4,17,121,14,1,o,images/br_o.png,images/cb_o.png,,,,,,,,,,,,,,,,,,,,,,,,,
,,,,,,00058,2023-10-12_11h01.06.073,vbt_B1_day1,2022.2.4,Win32,61.12469438,,,,,,,,,,,,,,,,,,,0.125714286,-0.106666667,1,0,0,0.0662,4,18,122,23,1,x,images/br_x.png,images/cb_x.png,,,,,,,,,,,,,,,,,,,,,,,,,
,,,,,,00058,2023-10-12_11h01.06.073,vbt_B1_day1,2022.2.4,Win32,61.12469438,,,,,,,,,,,,,,,,,,,0.13047619,-0.10952381,1,0,0,5.567,4,19,123,7,1,h,images/br_h.png,images/cb_h.png,,,,,,,,,,,,,,,,,,,,,,,,,
,,,,,,00058,2023-10-12_11h01.06.073,vbt_B1_day1,2022.2.4,Win32,61.12469438,,,,,,,,,,,,,,,,,,,0.123809524,-0.087619048,1,0,0,0.133,4,20,124,2,1,c,images/br_c.png,images/cb_c.png,,,,,,,,,,,,,,,,,,,,,,,,,
,,,,,,00058,2023-10-12_11h01.06.073,vbt_B1_day1,2022.2.4,Win32,61.12469438,,,,,,,,,,,,,,,,,,,0.191428571,-0.133333333,1,0,0,7.8663,4,21,125,15,1,p,images/br_p.png,images/cb_p.png,,,,,,,,,,,,,,,,,,,,,,,,,
,,,,,,00058,2023-10-12_11h01.06.073,vbt_B1_day1,2022.2.4,Win32,61.12469438,,,,,,,,,,,,,,,,,,,0.112380952,-0.06,1,0,0,1.05,4,22,126,8,1,i,images/br_i.png,images/cb_i.png,,,,,,,,,,,,,,,,,,,,,,,,,
,,,,,,00058,2023-10-12_11h01.06.073,vbt_B1_day1,2022.2.4,Win32,61.12469438,,,,,,,,,,,,,,,,,,,0.115238095,-0.068571429,1,0,0,8.0157,4,23,127,21,1,v,images/br_v.png,images/cb_v.png,,,,,,,,,,,,,,,,,,,,,,,,,
,,,,,,00058,2023-10-12_11h01.06.073,vbt_B1_day1,2022.2.4,Win32,61.12469438,,,,,,,,,,,,,,,,,,,0.104761905,-0.07047619,1,0,0,3.2001,4,24,128,25,1,z,images/br_z.png,images/cb_z.png,,,,,,,,,,,,,,,,,,,,,,,,,
,,,,,,00058,2023-10-12_11h01.06.073,vbt_B1_day1,2022.2.4,Win32,61.12469438,,,,,,,,,,,,,,,,,,,0.155238095,-0.046666667,1,0,0,4.1002,4,25,129,24,1,y,images/br_y.png,images/cb_y.png,,,,,,,,,,,,,,,,,,,,,,,,,
,,,,,,00058,2023-10-12_11h01.06.073,vbt_B1_day1,2022.2.4,Win32,61.12469438,,,,,,,,,,,,,,,,,,,0.093333333,-0.08952381,1,0,0,0.3672,5,0,130,24,1,y,images/br_y.png,images/cb_y.png,,,,,,,,,,,,,,,,,,,,,,,,,
,,,,,,00058,2023-10-12_11h01.06.073,vbt_B1_day1,2022.2.4,Win32,61.12469438,,,,,,,,,,,,,,,,,,,0.104761905,-0.082857143,1,0,0,0.4837,5,1,131,19,1,t,images/br_t.png,images/cb_t.png,,,,,,,,,,,,,,,,,,,,,,,,,
,,,,,,00058,2023-10-12_11h01.06.073,vbt_B1_day1,2022.2.4,Win32,61.12469438,,,,,,,,,,,,,,,,,,,0.118095238,-0.082857143,1,0,0,5.6165,5,2,132,9,1,j,images/br_j.png,images/cb_j.png,,,,,,,,,,,,,,,,,,,,,,,,,
,,,,,,00058,2023-10-12_11h01.06.073,vbt_B1_day1,2022.2.4,Win32,61.12469438,,,,,,,,,,,,,,,,,,,0.12,-0.081904762,1,0,0,0.2672,5,3,133,22,1,w,images/br_w.png,images/cb_w.png,,,,,,,,,,,,,,,,,,,,,,,,,
,,,,,,00058,2023-10-12_11h01.06.073,vbt_B1_day1,2022.2.4,Win32,61.12469438,,,,,,,,,,,,,,,,,,,0.131428571,-0.044761905,1,0,0,7.2161,5,4,134,17,1,r,images/br_r.png,images/cb_r.png,,,,,,,,,,,,,,,,,,,,,,,,,
,,,,,,00058,2023-10-12_11h01.06.073,vbt_B1_day1,2022.2.4,Win32,61.12469438,,,,,,,,,,,,,,,,,,,0.082857143,-0.031428571,1,0,0,0.1334,5,5,135,11,1,l,images/br_l.png,images/cb_l.png,,,,,,,,,,,,,,,,,,,,,,,,,
,,,,,,00058,2023-10-12_11h01.06.073,vbt_B1_day1,2022.2.4,Win32,61.12469438,,,,,,,,,,,,,,,,,,,0.120952381,0.020952381,1,0,0,2.1,5,6,136,25,1,z,images/br_z.png,images/cb_z.png,,,,,,,,,,,,,,,,,,,,,,,,,
,,,,,,00058,2023-10-12_11h01.06.073,vbt_B1_day1,2022.2.4,Win32,61.12469438,,,,,,,,,,,,,,,,,,,0.08952381,0.025714286,1,0,0,0.6663,5,7,137,3,1,d,images/br_d.png,images/cb_d.png,,,,,,,,,,,,,,,,,,,,,,,,,
,,,,,,00058,2023-10-12_11h01.06.073,vbt_B1_day1,2022.2.4,Win32,61.12469438,,,,,,,,,,,,,,,,,,,0.134285714,-0.017142857,1,0,0,1.8161,5,8,138,4,1,e,images/br_e.png,images/cb_e.png,,,,,,,,,,,,,,,,,,,,,,,,,
,,,,,,00058,2023-10-12_11h01.06.073,vbt_B1_day1,2022.2.4,Win32,61.12469438,,,,,,,,,,,,,,,,,,,0.1,-0.020952381,1,0,0,0.5173,5,9,139,23,1,x,images/br_x.png,images/cb_x.png,,,,,,,,,,,,,,,,,,,,,,,,,
,,,,,,00058,2023-10-12_11h01.06.073,vbt_B1_day1,2022.2.4,Win32,61.12469438,,,,,,,,,,,,,,,,,,,0.097142857,-0.024761905,1,0,0,0.65,5,10,140,8,1,i,images/br_i.png,images/cb_i.png,,,,,,,,,,,,,,,,,,,,,,,,,
,,,,,,00058,2023-10-12_11h01.06.073,vbt_B1_day1,2022.2.4,Win32,61.12469438,,,,,,,,,,,,,,,,,,,0.131428571,-0.01047619,1,0,0,1.9334,5,11,141,15,1,p,images/br_p.png,images/cb_p.png,,,,,,,,,,,,,,,,,,,,,,,,,
,,,,,,00058,2023-10-12_11h01.06.073,vbt_B1_day1,2022.2.4,Win32,61.12469438,,,,,,,,,,,,,,,,,,,0.12,-0.013333333,1,0,0,8.3001,5,12,142,21,1,v,images/br_v.png,images/cb_v.png,,,,,,,,,,,,,,,,,,,,,,,,,
,,,,,,00058,2023-10-12_11h01.06.073,vbt_B1_day1,2022.2.4,Win32,61.12469438,,,,,,,,,,,,,,,,,,,0.095238095,-0.055238095,1,0,0,0.2499,5,13,143,14,1,o,images/br_o.png,images/cb_o.png,,,,,,,,,,,,,,,,,,,,,,,,,
,,,,,,00058,2023-10-12_11h01.06.073,vbt_B1_day1,2022.2.4,Win32,61.12469438,,,,,,,,,,,,,,,,,,,0.081904762,-0.058095238,1,0,0,1.2664,5,14,144,6,1,g,images/br_g.png,images/cb_g.png,,,,,,,,,,,,,,,,,,,,,,,,,
,,,,,,00058,2023-10-12_11h01.06.073,vbt_B1_day1,2022.2.4,Win32,61.12469438,,,,,,,,,,,,,,,,,,,0.081904762,-0.058095238,1,0,0,0.0167,5,15,145,2,1,c,images/br_c.png,images/cb_c.png,,,,,,,,,,,,,,,,,,,,,,,,,
,,,,,,00058,2023-10-12_11h01.06.073,vbt_B1_day1,2022.2.4,Win32,61.12469438,,,,,,,,,,,,,,,,,,,0.095238095,-0.016190476,1,0,0,3.8154,5,16,146,13,1,n,images/br_n.png,images/cb_n.png,,,,,,,,,,,,,,,,,,,,,,,,,
,,,,,,00058,2023-10-12_11h01.06.073,vbt_B1_day1,2022.2.4,Win32,61.12469438,,,,,,,,,,,,,,,,,,,0.11047619,-0.062857143,1,0,0,5.3335,5,17,147,7,1,h,images/br_h.png,images/cb_h.png,,,,,,,,,,,,,,,,,,,,,,,,,
,,,,,,00058,2023-10-12_11h01.06.073,vbt_B1_day1,2022.2.4,Win32,61.12469438,,,,,,,,,,,,,,,,,,,0.124761905,-0.032380952,1,0,0,8.9828,5,18,148,5,1,f,images/br_f.png,images/cb_f.png,,,,,,,,,,,,,,,,,,,,,,,,,
,,,,,,00058,2023-10-12_11h01.06.073,vbt_B1_day1,2022.2.4,Win32,61.12469438,,,,,,,,,,,,,,,,,,,0.123809524,-0.045714286,1,0,0,4.3822,5,19,149,10,1,k,images/br_k.png,images/cb_k.png,,,,,,,,,,,,,,,,,,,,,,,,,
,,,,,,00058,2023-10-12_11h01.06.073,vbt_B1_day1,2022.2.4,Win32,61.12469438,,,,,,,,,,,,,,,,,,,0.103809524,-0.100952381,1,0,0,0.0498,5,20,150,16,1,q,images/br_q.png,images/cb_q.png,,,,,,,,,,,,,,,,,,,,,,,,,
,,,,,,00058,2023-10-12_11h01.06.073,vbt_B1_day1,2022.2.4,Win32,61.12469438,,,,,,,,,,,,,,,,,,,0.08952381,-0.104761905,1,0,0,0.2328,5,21,151,0,1,a,images/br_a.png,images/cb_a.png,,,,,,,,,,,,,,,,,,,,,,,,,
,,,,,,00058,2023-10-12_11h01.06.073,vbt_B1_day1,2022.2.4,Win32,61.12469438,,,,,,,,,,,,,,,,,,,0.117142857,-0.082857143,1,0,0,5.4498,5,22,152,20,1,u,images/br_u.png,images/cb_u.png,,,,,,,,,,,,,,,,,,,,,,,,,
,,,,,,00058,2023-10-12_11h01.06.073,vbt_B1_day1,2022.2.4,Win32,61.12469438,,,,,,,,,,,,,,,,,,,0.125714286,-0.091428571,1,0,0,0.0334,5,23,153,18,1,s,images/br_s.png,images/cb_s.png,,,,,,,,,,,,,,,,,,,,,,,,,
,,,,,,00058,2023-10-12_11h01.06.073,vbt_B1_day1,2022.2.4,Win32,61.12469438,,,,,,,,,,,,,,,,,,,0.099047619,-0.127619048,1,0,0,0.4005,5,24,154,1,1,b,images/br_b.png,images/cb_b.png,,,,,,,,,,,,,,,,,,,,,,,,,
,,,,,,00058,2023-10-12_11h01.06.073,vbt_B1_day1,2022.2.4,Win32,61.12469438,,,,,,,,,,,,,,,,,,,0.144761905,0.10952381,1,0,0,9.017,5,25,155,12,1,m,images/br_m.png,images/cb_m.png,,,,,,,,,,,,,,,,,,,,,,,,,
,,,,,,00058,2023-10-12_11h01.06.073,vbt_B1_day1,2022.2.4,Win32,61.12469438,,,,,,,,,,,,,,,,,,,0.117142857,0.017142857,1,0,0,0.2166,6,0,156,22,1,w,images/br_w.png,images/cb_w.png,,,,,,,,,,,,,,,,,,,,,,,,,
,,,,,,00058,2023-10-12_11h01.06.073,vbt_B1_day1,2022.2.4,Win32,61.12469438,,,,,,,,,,,,,,,,,,,0.111428571,0.003809524,1,0,0,0.6991,6,1,157,17,1,r,images/br_r.png,images/cb_r.png,,,,,,,,,,,,,,,,,,,,,,,,,
,,,,,,00058,2023-10-12_11h01.06.073,vbt_B1_day1,2022.2.4,Win32,61.12469438,,,,,,,,,,,,,,,,,,,0.079047619,-0.001904762,1,0,0,0.1852,6,2,158,10,1,k,images/br_k.png,images/cb_k.png,,,,,,,,,,,,,,,,,,,,,,,,,
,,,,,,00058,2023-10-12_11h01.06.073,vbt_B1_day1,2022.2.4,Win32,61.12469438,,,,,,,,,,,,,,,,,,,0.095238095,-0.008571429,1,0,0,5.317,6,3,159,5,1,f,images/br_f.png,images/cb_f.png,,,,,,,,,,,,,,,,,,,,,,,,,
,,,,,,00058,2023-10-12_11h01.06.073,vbt_B1_day1,2022.2.4,Win32,61.12469438,,,,,,,,,,,,,,,,,,,0.097142857,-0.020952381,1,0,0,0.4333,6,4,160,11,1,l,images/br_l.png,images/cb_l.png,,,,,,,,,,,,,,,,,,,,,,,,,
,,,,,,00058,2023-10-12_11h01.06.073,vbt_B1_day1,2022.2.4,Win32,61.12469438,,,,,,,,,,,,,,,,,,,0.106666667,-0.04952381,1,0,0,1.333,6,5,161,12,1,m,images/br_m.png,images/cb_m.png,,,,,,,,,,,,,,,,,,,,,,,,,
,,,,,,00058,2023-10-12_11h01.06.073,vbt_B1_day1,2022.2.4,Win32,61.12469438,,,,,,,,,,,,,,,,,,,0.112380952,-0.044761905,1,0,0,0.1172,6,6,162,6,1,g,images/br_g.png,images/cb_g.png,,,,,,,,,,,,,,,,,,,,,,,,,
,,,,,,00058,2023-10-12_11h01.06.073,vbt_B1_day1,2022.2.4,Win32,61.12469438,,,,,,,,,,,,,,,,,,,0.114285714,-0.044761905,1,0,0,0.1001,6,7,163,8,1,i,images/br_i.png,images/cb_i.png,,,,,,,,,,,,,,,,,,,,,,,,,
,,,,,,00058,2023-10-12_11h01.06.073,vbt_B1_day1,2022.2.4,Win32,61.12469438,,,,,,,,,,,,,,,,,,,0.114285714,-0.044761905,1,0,0,0.1003,6,8,164,0,1,a,images/br_a.png,images/cb_a.png,,,,,,,,,,,,,,,,,,,,,,,,,
,,,,,,00058,2023-10-12_11h01.06.073,vbt_B1_day1,2022.2.4,Win32,61.12469438,,,,,,,,,,,,,,,,,,,0.114285714,-0.045714286,1,0,0,11.0995,6,9,165,15,1,p,images/br_p.png,images/cb_p.png,,,,,,,,,,,,,,,,,,,,,,,,,
,,,,,,00058,2023-10-12_11h01.06.073,vbt_B1_day1,2022.2.4,Win32,61.12469438,,,,,,,,,,,,,,,,,,,0.122857143,-0.07047619,1,0,0,0.5334,6,10,166,18,1,s,images/br_s.png,images/cb_s.png,,,,,,,,,,,,,,,,,,,,,,,,,
,,,,,,00058,2023-10-12_11h01.06.073,vbt_B1_day1,2022.2.4,Win32,61.12469438,,,,,,,,,,,,,,,,,,,0.111428571,-0.017142857,1,0,0,1.5664,6,11,167,4,1,e,images/br_e.png,images/cb_e.png,,,,,,,,,,,,,,,,,,,,,,,,,
,,,,,,00058,2023-10-12_11h01.06.073,vbt_B1_day1,2022.2.4,Win32,61.12469438,,,,,,,,,,,,,,,,,,,0.108571429,-0.08952381,1,0,0,0.2335,6,12,168,14,1,o,images/br_o.png,images/cb_o.png,,,,,,,,,,,,,,,,,,,,,,,,,
,,,,,,00058,2023-10-12_11h01.06.073,vbt_B1_day1,2022.2.4,Win32,61.12469438,,,,,,,,,,,,,,,,,,,0.095238095,-0.105714286,1,0,0,0.2505,6,13,169,19,1,t,images/br_t.png,images/cb_t.png,,,,,,,,,,,,,,,,,,,,,,,,,
,,,,,,00058,2023-10-12_11h01.06.073,vbt_B1_day1,2022.2.4,Win32,61.12469438,,,,,,,,,,,,,,,,,,,0.091428571,-0.078095238,1,0,0,0.4167,6,14,170,2,1,c,images/br_c.png,images/cb_c.png,,,,,,,,,,,,,,,,,,,,,,,,,
,,,,,,00058,2023-10-12_11h01.06.073,vbt_B1_day1,2022.2.4,Win32,61.12469438,,,,,,,,,,,,,,,,,,,0.157142857,0.022857143,1,0,0,7.7169,6,15,171,24,1,y,images/br_y.png,images/cb_y.png,,,,,,,,,,,,,,,,,,,,,,,,,
,,,,,,00058,2023-10-12_11h01.06.073,vbt_B1_day1,2022.2.4,Win32,61.12469438,,,,,,,,,,,,,,,,,,,0.125714286,0.057142857,1,0,0,0.3666,6,16,172,1,1,b,images/br_b.png,images/cb_b.png,,,,,,,,,,,,,,,,,,,,,,,,,
,,,,,,00058,2023-10-12_11h01.06.073,vbt_B1_day1,2022.2.4,Win32,61.12469438,,,,,,,,,,,,,,,,,,,0.12,0.038095238,1,0,0,0.1001,6,17,173,23,1,x,images/br_x.png,images/cb_x.png,,,,,,,,,,,,,,,,,,,,,,,,,
,,,,,,00058,2023-10-12_11h01.06.073,vbt_B1_day1,2022.2.4,Win32,61.12469438,,,,,,,,,,,,,,,,,,,0.186666667,-0.006666667,1,0,0,1.3335,6,18,174,25,1,z,images/br_z.png,images/cb_z.png,,,,,,,,,,,,,,,,,,,,,,,,,
,,,,,,00058,2023-10-12_11h01.06.073,vbt_B1_day1,2022.2.4,Win32,61.12469438,,,,,,,,,,,,,,,,,,,0.187619048,-0.022857143,1,0,0,6.0008,6,19,175,9,1,j,images/br_j.png,images/cb_j.png,,,,,,,,,,,,,,,,,,,,,,,,,
,,,,,,00058,2023-10-12_11h01.06.073,vbt_B1_day1,2022.2.4,Win32,61.12469438,,,,,,,,,,,,,,,,,,,0.18952381,-0.014285714,1,0,0,6.0676,6,20,176,20,1,u,images/br_u.png,images/cb_u.png,,,,,,,,,,,,,,,,,,,,,,,,,
,,,,,,00058,2023-10-12_11h01.06.073,vbt_B1_day1,2022.2.4,Win32,61.12469438,,,,,,,,,,,,,,,,,,,0.19047619,-0.016190476,1,0,0,0.3168,6,21,177,7,1,h,images/br_h.png,images/cb_h.png,,,,,,,,,,,,,,,,,,,,,,,,,
,,,,,,00058,2023-10-12_11h01.06.073,vbt_B1_day1,2022.2.4,Win32,61.12469438,,,,,,,,,,,,,,,,,,,0.139047619,-0.02,1,0,0,0.399,6,22,178,13,1,n,images/br_n.png,images/cb_n.png,,,,,,,,,,,,,,,,,,,,,,,,,
,,,,,,00058,2023-10-12_11h01.06.073,vbt_B1_day1,2022.2.4,Win32,61.12469438,,,,,,,,,,,,,,,,,,,0.127619048,-0.06952381,1,0,0,1.7159,6,23,179,3,1,d,images/br_d.png,images/cb_d.png,,,,,,,,,,,,,,,,,,,,,,,,,
,,,,,,00058,2023-10-12_11h01.06.073,vbt_B1_day1,2022.2.4,Win32,61.12469438,,,,,,,,,,,,,,,,,,,0.127619048,-0.071428571,1,0,0,0.8671,6,24,180,21,1,v,images/br_v.png,images/cb_v.png,,,,,,,,,,,,,,,,,,,,,,,,,
,,,,,,00058,2023-10-12_11h01.06.073,vbt_B1_day1,2022.2.4,Win32,61.12469438,,,,,,,,,,,,,,,,,,,0.127619048,-0.071428571,1,0,0,0.2001,6,25,181,16,1,q,images/br_q.png,images/cb_q.png,,,,,,,,,,,,,,,,,,,,,,,,,
,,,,,,00058,2023-10-12_11h01.06.073,vbt_B1_day1,2022.2.4,Win32,61.12469438,,,,,,,,,,,,,,,,,,,,,,,,,,,,,,,,,0.03047619,-0.158095238,1,0,0,,,,,,,,,,,,,,,,,,,,
,,,,,,00058,2023-10-12_11h01.06.073,vbt_B1_day1,2022.2.4,Win32,61.12469438,,,,,,,,,,,,,,,,,,,,,,,,,,,,,,,,,,,,,,-0.141904762,-0.228571429,1,0,0,,,,,,,,,,,,,,,
,,,,,,00058,2023-10-12_11h01.06.073,vbt_B1_day1,2022.2.4,Win32,61.12469438,,,,,,,,,,,,,,,,,,,,,,,,,,,,,,,,,,,,,,,,,,,0.118095238,-0.297142857,1,0,0,taal,taal,0,0,0,1,1,zaal,images/br_zaal.png,images/cb_zaal.png
,,,,,,00058,2023-10-12_11h01.06.073,vbt_B1_day1,2022.2.4,Win32,61.12469438,,,,,,,,,,,,,,,,,,,,,,,,,,,,,,,,,,,,,,,,,,,0.244761905,-0.106666667,1,0,0,.ie....,.ie....,0,1,1,15,1,hiervan,images/br_hiervan.png,images/cb_hiervan.png
,,,,,,00058,2023-10-12_11h01.06.073,vbt_B1_day1,2022.2.4,Win32,61.12469438,,,,,,,,,,,,,,,,,,,,,,,,,,,,,,,,,,,,,,,,,,,0.1,-0.256190476,1,0,0,toi...,toi...,0,2,2,56,1,toezicht,images/br_toezicht.png,images/cb_toezicht.png
,,,,,,00058,2023-10-12_11h01.06.073,vbt_B1_day1,2022.2.4,Win32,61.12469438,,,,,,,,,,,,,,,,,,,,,,,,,,,,,,,,,,,,,,,,,,,0.16952381,-0.093333333,1,0,0,..i....,..i....,0,3,3,35,1,stuikem,images/br_stuikem.png,images/cb_stuikem.png
,,,,,,00058,2023-10-12_11h01.06.073,vbt_B1_day1,2022.2.4,Win32,61.12469438,,,,,,,,,,,,,,,,,,,,,,,,,,,,,,,,,,,,,,,,,,,0.052380952,-0.286666667,1,0,0,.eteke.,.eteke.,0,4,4,55,1,tekenen,images/br_tekenen.png,images/cb_tekenen.png
,,,,,,00058,2023-10-12_11h01.06.073,vbt_B1_day1,2022.2.4,Win32,61.12469438,,,,,,,,,,,,,,,,,,,,,,,,,,,,,,,,,,,,,,,,,,,0.311428571,-0.219047619,1,0,0,loch...,loch...,0,5,5,34,1,lochten,images/br_lochten.png,images/cb_lochten.png
,,,,,,00058,2023-10-12_11h01.06.073,vbt_B1_day1,2022.2.4,Win32,61.12469438,,,,,,,,,,,,,,,,,,,,,,,,,,,,,,,,,,,,,,,,,,,0.12952381,-0.295238095,1,0,0,.ak...,.ak...,0,6,6,5,1,maken,images/br_maken.png,images/cb_maken.png
,,,,,,00058,2023-10-12_11h01.06.073,vbt_B1_day1,2022.2.4,Win32,61.12469438,,,,,,,,,,,,,,,,,,,,,,,,,,,,,,,,,,,,,,,,,,,0.332380952,-0.212380952,1,0,0,h..h...,h..h...,0,7,7,36,1,vervaden,images/br_vervaden.png,images/cb_vervaden.png
,,,,,,00058,2023-10-12_11h01.06.073,vbt_B1_day1,2022.2.4,Win32,61.12469438,,,,,,,,,,,,,,,,,,,,,,,,,,,,,,,,,,,,,,,,,,,0.32952381,-0.227619048,1,0,0,leten,leten,0,8,8,46,1,lezen,images/br_lezen.png,images/cb_lezen.png
,,,,,,00058,2023-10-12_11h01.06.073,vbt_B1_day1,2022.2.4,Win32,61.12469438,,,,,,,,,,,,,,,,,,,,,,,,,,,,,,,,,,,,,,,,,,,0.285714286,-0.215238095,1,0,0,derd,derd,0,9,9,21,1,dred,images/br_dred.png,images/cb_dred.png
,,,,,,00058,2023-10-12_11h01.06.073,vbt_B1_day1,2022.2.4,Win32,61.12469438,,,,,,,,,,,,,,,,,,,,,,,,,,,,,,,,,,,,,,,,,,,0.288571429,-0.208571429,1,0,0,reter,reter,0,10,10,24,1,rezer,images/br_rezer.png,images/cb_rezer.png
,,,,,,00058,2023-10-12_11h01.06.073,vbt_B1_day1,2022.2.4,Win32,61.12469438,,,,,,,,,,,,,,,,,,,,,,,,,,,,,,,,,,,,,,,,,,,0.323809524,-0.265714286,1,0,0,t..s,t..s,0,11,11,20,1,tars,images/br_tars.png,images/cb_tars.png
,,,,,,00058,2023-10-12_11h01.06.073,vbt_B1_day1,2022.2.4,Win32,61.12469438,,,,,,,,,,,,,,,,,,,,,,,,,,,,,,,,,,,,,,,,,,,0.297142857,-0.198095238,1,0,0,.ll.e.,.ll.e.,0,12,12,33,1,flullen,images/br_flullen.png,images/cb_flullen.png
,,,,,,00058,2023-10-12_11h01.06.073,vbt_B1_day1,2022.2.4,Win32,61.12469438,,,,,,,,,,,,,,,,,,,,,,,,,,,,,,,,,,,,,,,,,,,0.335238095,-0.20952381,1,0,0,o.......,o.......,0,13,13,59,1,opvatten,images/br_opvatten.png,images/cb_opvatten.png
,,,,,,00058,2023-10-12_11h01.06.073,vbt_B1_day1,2022.2.4,Win32,61.12469438,,,,,,,,,,,,,,,,,,,,,,,,,,,,,,,,,,,,,,,,,,,0.294285714,-0.22952381,1,0,0,klimm..,klimm..,0,14,14,12,1,klimmen,images/br_klimmen.png,images/cb_klimmen.png
,,,,,,00058,2023-10-12_11h01.06.073,vbt_B1_day1,2022.2.4,Win32,61.12469438,,,,,,,,,,,,,,,,,,,,,,,,,,,,,,,,,,,,,,,,,,,0.285714286,-0.186666667,1,0,0,daar...,daar...,0,15,15,16,1,daarheen,images/br_daarheen.png,images/cb_daarheen.png
,,,,,,00058,2023-10-12_11h01.06.073,vbt_B1_day1,2022.2.4,Win32,61.12469438,,,,,,,,,,,,,,,,,,,,,,,,,,,,,,,,,,,,,,,,,,,0.364761905,-0.207619048,1,0,0,.i..e,.i..e,0,16,16,44,1,wijze,images/br_wijze.png,images/cb_wijze.png
,,,,,,00058,2023-10-12_11h01.06.073,vbt_B1_day1,2022.2.4,Win32,61.12469438,,,,,,,,,,,,,,,,,,,,,,,,,,,,,,,,,,,,,,,,,,,0.303809524,-0.219047619,1,0,0,loods,loods,0,17,17,47,1,loods,images/br_loods.png,images/cb_loods.png
,,,,,,00058,2023-10-12_11h01.06.073,vbt_B1_day1,2022.2.4,Win32,61.12469438,,,,,,,,,,,,,,,,,,,,,,,,,,,,,,,,,,,,,,,,,,,0.275238095,-0.198095238,1,0,0,waar...,waar...,0,18,18,14,1,waarvan,images/br_waarvan.png,images/cb_waarvan.png
,,,,,,00058,2023-10-12_11h01.06.073,vbt_B1_day1,2022.2.4,Win32,61.12469438,,,,,,,,,,,,,,,,,,,,,,,,,,,,,,,,,,,,,,,,,,,0.304761905,-0.195238095,1,0,0,weed..,weed..,0,19,19,30,1,reedje,images/br_reedje.png,images/cb_reedje.png
,,,,,,00058,2023-10-12_11h01.06.073,vbt_B1_day1,2022.2.4,Win32,61.12469438,,,,,,,,,,,,,,,,,,,,,,,,,,,,,,,,,,,,,,,,,,,0.342857143,-0.221904762,1,0,0,.an.,.an.,0,20,20,3,1,mand,images/br_mand.png,images/cb_mand.png
,,,,,,00058,2023-10-12_11h01.06.073,vbt_B1_day1,2022.2.4,Win32,61.12469438,,,,,,,,,,,,,,,,,,,,,,,,,,,,,,,,,,,,,,,,,,,0.301904762,-0.244761905,1,0,0,slak,slak,0,21,21,0,1,slak,images/br_slak.png,images/cb_slak.png
,,,,,,00058,2023-10-12_11h01.06.073,vbt_B1_day1,2022.2.4,Win32,61.12469438,,,,,,,,,,,,,,,,,,,,,,,,,,,,,,,,,,,,,,,,,,,0.297142857,-0.200952381,1,0,0,klauw,klauw,0,22,22,7,1,klauw,images/br_klauw.png,images/cb_klauw.png
,,,,,,00058,2023-10-12_11h01.06.073,vbt_B1_day1,2022.2.4,Win32,61.12469438,,,,,,,,,,,,,,,,,,,,,,,,,,,,,,,,,,,,,,,,,,,0.28,-0.218095238,1,0,0,t.i....,t.i....,0,23,23,13,1,twijfel,images/br_twijfel.png,images/cb_twijfel.png
,,,,,,00058,2023-10-12_11h01.06.073,vbt_B1_day1,2022.2.4,Win32,61.12469438,,,,,,,,,,,,,,,,,,,,,,,,,,,,,,,,,,,,,,,,,,,0.34952381,-0.234285714,1,0,0,booi,booi,0,24,24,23,1,booi,images/br_booi.png,images/cb_booi.png
,,,,,,00058,2023-10-12_11h01.06.073,vbt_B1_day1,2022.2.4,Win32,61.12469438,,,,,,,,,,,,,,,,,,,,,,,,,,,,,,,,,,,,,,,,,,,0.347619048,-0.18,1,0,0,knoe,knoe,0,25,25,22,1,knoe,images/br_knoe.png,images/cb_knoe.png
,,,,,,00058,2023-10-12_11h01.06.073,vbt_B1_day1,2022.2.4,Win32,61.12469438,,,,,,,,,,,,,,,,,,,,,,,,,,,,,,,,,,,,,,,,,,,0.306666667,-0.168571429,1,0,0,oorlaan,oorlaan,0,26,26,32,1,opplaan,images/br_opplaan.png,images/cb_opplaan.png
,,,,,,00058,2023-10-12_11h01.06.073,vbt_B1_day1,2022.2.4,Win32,61.12469438,,,,,,,,,,,,,,,,,,,,,,,,,,,,,,,,,,,,,,,,,,,0.261904762,-0.214285714,1,0,0,d.bbe.,d.bbe.,0,27,27,9,1,dubbel,images/br_dubbel.png,images/cb_dubbel.png
,,,,,,00058,2023-10-12_11h01.06.073,vbt_B1_day1,2022.2.4,Win32,61.12469438,,,,,,,,,,,,,,,,,,,,,,,,,,,,,,,,,,,,,,,,,,,0.288571429,-0.173333333,1,0,0,.oo....,.oo....,0,28,28,39,1,voorreur,images/br_voorreur.png,images/cb_voorreur.png
,,,,,,00058,2023-10-12_11h01.06.073,vbt_B1_day1,2022.2.4,Win32,61.12469438,,,,,,,,,,,,,,,,,,,,,,,,,,,,,,,,,,,,,,,,,,,0.45047619,-0.168571429,1,0,0,lie.d.,lie.d.,0,29,29,51,1,liefde,images/br_liefde.png,images/cb_liefde.png
,,,,,,00058,2023-10-12_11h01.06.073,vbt_B1_day1,2022.2.4,Win32,61.12469438,,,,,,,,,,,,,,,,,,,,,,,,,,,,,,,,,,,,,,,,,,,0.323809524,-0.142857143,1,0,0,....iek,....iek,0,30,30,10,1,muziek,images/br_muziek.png,images/cb_muziek.png
,,,,,,00058,2023-10-12_11h01.06.073,vbt_B1_day1,2022.2.4,Win32,61.12469438,,,,,,,,,,,,,,,,,,,,,,,,,,,,,,,,,,,,,,,,,,,0.283809524,-0.191428571,1,0,0,la.a,la.a,0,31,31,43,1,lava,images/br_lava.png,images/cb_lava.png
,,,,,,00058,2023-10-12_11h01.06.073,vbt_B1_day1,2022.2.4,Win32,61.12469438,,,,,,,,,,,,,,,,,,,,,,,,,,,,,,,,,,,,,,,,,,,-0.026666667,-0.141904762,1,0,0,sc...,sc...,0,32,32,19,1,schuilen,images/br_schuilen.png,images/cb_schuilen.png
,,,,,,00058,2023-10-12_11h01.06.073,vbt_B1_day1,2022.2.4,Win32,61.12469438,,,,,,,,,,,,,,,,,,,,,,,,,,,,,,,,,,,,,,,,,,,0.293333333,-0.155238095,1,0,0,.ic...,.ic...,0,33,33,48,1,fictie,images/br_fictie.png,images/cb_fictie.png
,,,,,,00058,2023-10-12_11h01.06.073,vbt_B1_day1,2022.2.4,Win32,61.12469438,,,,,,,,,,,,,,,,,,,,,,,,,,,,,,,,,,,,,,,,,,,0.331428571,-0.242857143,1,0,0,die.,die.,0,34,34,40,1,dief,images/br_dief.png,images/cb_dief.png
,,,,,,00058,2023-10-12_11h01.06.073,vbt_B1_day1,2022.2.4,Win32,61.12469438,,,,,,,,,,,,,,,,,,,,,,,,,,,,,,,,,,,,,,,,,,,0.284761905,-0.217142857,1,0,0,.alo.,.alo.,0,35,35,26,1,valop,images/br_valop.png,images/cb_valop.png
,,,,,,00058,2023-10-12_11h01.06.073,vbt_B1_day1,2022.2.4,Win32,61.12469438,,,,,,,,,,,,,,,,,,,,,,,,,,,,,,,,,,,,,,,,,,,0.357142857,-0.184761905,1,0,0,attin...,attin...,0,36,36,17,1,attentie,images/br_attentie.png,images/cb_attentie.png
,,,,,,00058,2023-10-12_11h01.06.073,vbt_B1_day1,2022.2.4,Win32,61.12469438,,,,,,,,,,,,,,,,,,,,,,,,,,,,,,,,,,,,,,,,,,,0.29047619,-0.196190476,1,0,0,moog,moog,0,37,37,41,1,hoog,images/br_hoog.png,images/cb_hoog.png
,,,,,,00058,2023-10-12_11h01.06.073,vbt_B1_day1,2022.2.4,Win32,61.12469438,,,,,,,,,,,,,,,,,,,,,,,,,,,,,,,,,,,,,,,,,,,0.367619048,-0.185714286,1,0,0,bleek,bleek,0,38,38,6,1,bleek,images/br_bleek.png,images/cb_bleek.png
,,,,,,00058,2023-10-12_11h01.06.073,vbt_B1_day1,2022.2.4,Win32,61.12469438,,,,,,,,,,,,,,,,,,,,,,,,,,,,,,,,,,,,,,,,,,,0.322857143,-0.18,1,0,0,schiele.,schiele.,0,39,39,38,1,schielen,images/br_schielen.png,images/cb_schielen.png
,,,,,,00058,2023-10-12_11h01.06.073,vbt_B1_day1,2022.2.4,Win32,61.12469438,,,,,,,,,,,,,,,,,,,,,,,,,,,,,,,,,,,,,,,,,,,0.314285714,-0.213333333,1,0,0,me.el,me.el,0,40,40,45,1,hemel,images/br_hemel.png,images/cb_hemel.png
,,,,,,00058,2023-10-12_11h01.06.073,vbt_B1_day1,2022.2.4,Win32,61.12469438,,,,,,,,,,,,,,,,,,,,,,,,,,,,,,,,,,,,,,,,,,,0.284761905,-0.206666667,1,0,0,gino...,gino...,0,41,41,29,1,genond,images/br_genond.png,images/cb_genond.png
,,,,,,00058,2023-10-12_11h01.06.073,vbt_B1_day1,2022.2.4,Win32,61.12469438,,,,,,,,,,,,,,,,,,,,,,,,,,,,,,,,,,,,,,,,,,,0.303809524,-0.185714286,1,0,0,.eene...,.eene...,0,42,42,57,1,meenemen,images/br_meenemen.png,images/cb_meenemen.png
,,,,,,00058,2023-10-12_11h01.06.073,vbt_B1_day1,2022.2.4,Win32,61.12469438,,,,,,,,,,,,,,,,,,,,,,,,,,,,,,,,,,,,,,,,,,,0.335238095,-0.22952381,1,0,0,bre...,bre...,0,43,43,25,1,brijk,images/br_brijk.png,images/cb_brijk.png
,,,,,,00058,2023-10-12_11h01.06.073,vbt_B1_day1,2022.2.4,Win32,61.12469438,,,,,,,,,,,,,,,,,,,,,,,,,,,,,,,,,,,,,,,,,,,0.335238095,-0.22952381,1,0,0,.aar,.aar,0,44,44,2,1,jaar,images/br_jaar.png,images/cb_jaar.png
,,,,,,00058,2023-10-12_11h01.06.073,vbt_B1_day1,2022.2.4,Win32,61.12469438,,,,,,,,,,,,,,,,,,,,,,,,,,,,,,,,,,,,,,,,,,,0.325714286,-0.176190476,1,0,0,.oo....,.oo....,0,45,45,58,1,voorkeur,images/br_voorkeur.png,images/cb_voorkeur.png
,,,,,,00058,2023-10-12_11h01.06.073,vbt_B1_day1,2022.2.4,Win32,61.12469438,,,,,,,,,,,,,,,,,,,,,,,,,,,,,,,,,,,,,,,,,,,0.317142857,-0.176190476,1,0,0,.ine...,.ine...,0,46,46,11,1,mening,images/br_mening.png,images/cb_mening.png
,,,,,,00058,2023-10-12_11h01.06.073,vbt_B1_day1,2022.2.4,Win32,61.12469438,,,,,,,,,,,,,,,,,,,,,,,,,,,,,,,,,,,,,,,,,,,0.303809524,-0.202857143,1,0,0,sche.,sche.,0,47,47,4,1,schep,images/br_schep.png,images/cb_schep.png
,,,,,,00058,2023-10-12_11h01.06.073,vbt_B1_day1,2022.2.4,Win32,61.12469438,,,,,,,,,,,,,,,,,,,,,,,,,,,,,,,,,,,,,,,,,,,0.391428571,-0.195238095,1,0,0,kan...,kan...,0,48,48,8,1,kanjer,images/br_kanjer.png,images/cb_kanjer.png
,,,,,,00058,2023-10-12_11h01.06.073,vbt_B1_day1,2022.2.4,Win32,61.12469438,,,,,,,,,,,,,,,,,,,,,,,,,,,,,,,,,,,,,,,,,,,0.284761905,-0.20952381,1,0,0,..i....,..i....,0,49,49,52,1,zuiplap,images/br_zuiplap.png,images/cb_zuiplap.png
,,,,,,00058,2023-10-12_11h01.06.073,vbt_B1_day1,2022.2.4,Win32,61.12469438,,,,,,,,,,,,,,,,,,,,,,,,,,,,,,,,,,,,,,,,,,,0.297142857,-0.211428571,1,0,0,st.k,st.k,0,50,50,42,1,stuk,images/br_stuk.png,images/cb_stuk.png
,,,,,,00058,2023-10-12_11h01.06.073,vbt_B1_day1,2022.2.4,Win32,61.12469438,,,,,,,,,,,,,,,,,,,,,,,,,,,,,,,,,,,,,,,,,,,0.306666667,-0.200952381,1,0,0,liegen,liegen,0,51,51,50,1,liegen,images/br_liegen.png,images/cb_liegen.png
,,,,,,00058,2023-10-12_11h01.06.073,vbt_B1_day1,2022.2.4,Win32,61.12469438,,,,,,,,,,,,,,,,,,,,,,,,,,,,,,,,,,,,,,,,,,,0.339047619,-0.201904762,1,0,0,s.a.....,s.a.....,0,52,52,37,1,spanzing,images/br_spanzing.png,images/cb_spanzing.png
,,,,,,00058,2023-10-12_11h01.06.073,vbt_B1_day1,2022.2.4,Win32,61.12469438,,,,,,,,,,,,,,,,,,,,,,,,,,,,,,,,,,,,,,,,,,,0.300952381,-0.200952381,1,0,0,.itd....,.itd....,0,53,53,18,1,uitdelen,images/br_uitdelen.png,images/cb_uitdelen.png
,,,,,,00058,2023-10-12_11h01.06.073,vbt_B1_day1,2022.2.4,Win32,61.12469438,,,,,,,,,,,,,,,,,,,,,,,,,,,,,,,,,,,,,,,,,,,0.30952381,-0.215238095,1,0,0,....,....,0,54,54,27,1,prort,images/br_prort.png,images/cb_prort.png
,,,,,,00058,2023-10-12_11h01.06.073,vbt_B1_day1,2022.2.4,Win32,61.12469438,,,,,,,,,,,,,,,,,,,,,,,,,,,,,,,,,,,,,,,,,,,0.324761905,-0.18,1,0,0,sta.en,sta.en,0,55,55,31,1,stamen,images/br_stamen.png,images/cb_stamen.png
,,,,,,00058,2023-10-12_11h01.06.073,vbt_B1_day1,2022.2.4,Win32,61.12469438,,,,,,,,,,,,,,,,,,,,,,,,,,,,,,,,,,,,,,,,,,,0.326666667,-0.18952381,1,0,0,.i...i.,.i...i.,0,56,56,54,1,vijftig,images/br_vijftig.png,images/cb_vijftig.png
,,,,,,00058,2023-10-12_11h01.06.073,vbt_B1_day1,2022.2.4,Win32,61.12469438,,,,,,,,,,,,,,,,,,,,,,,,,,,,,,,,,,,,,,,,,,,0.287619048,-0.204761905,1,0,0,beber.,beber.,0,57,57,28,1,bebrip,images/br_bebrip.png,images/cb_bebrip.png
,,,,,,00058,2023-10-12_11h01.06.073,vbt_B1_day1,2022.2.4,Win32,61.12469438,,,,,,,,,,,,,,,,,,,,,,,,,,,,,,,,,,,,,,,,,,,0.316190476,-0.223809524,1,0,0,.i.ie.,.i.ie.,0,58,58,49,1,vizier,images/br_vizier.png,images/cb_vizier.png
,,,,,,00058,2023-10-12_11h01.06.073,vbt_B1_day1,2022.2.4,Win32,61.12469438,,,,,,,,,,,,,,,,,,,,,,,,,,,,,,,,,,,,,,,,,,,0.364761905,-0.299047619,1,0,0,o.sl...,o.sl...,0,59,59,53,1,opslaan,images/br_opslaan.png,images/cb_opslaan.png
,,,,,,00058,2023-10-12_11h01.06.073,vbt_B1_day1,2022.2.4,Win32,61.12469438,,,,,,,,,,,,,,,,,,,,,,,,,,,,,,,,,,,,,,,,,,,,,,,,,,,,,,,,,
