welcome_mouse.x,welcome_mouse.y,welcome_mouse.leftButton,welcome_mouse.midButton,welcome_mouse.rightButton,welcome_mouse.time,"ID",date,expName,psychopyVersion,OS,frameRate,mouse_2.x,mouse_2.y,mouse_2.leftButton,mouse_2.midButton,mouse_2.rightButton,mouse_2.time,mouse_3.x,mouse_3.y,mouse_3.leftButton,mouse_3.midButton,mouse_3.rightButton,mouse_3.time,train_mouse.x,train_mouse.y,train_mouse.leftButton,train_mouse.midButton,train_mouse.rightButton,train_mouse.time,braille_mouse.x,braille_mouse.y,braille_mouse.leftButton,braille_mouse.midButton,braille_mouse.rightButton,braille_mouse.time,trials.thisRepN,trials.thisTrialN,trials.thisN,trials.thisIndex,trials.ran,nlLet,brLet,cbLet,mouse.x,mouse.y,mouse.leftButton,mouse.midButton,mouse.rightButton,testInstr_mouse.x,testInstr_mouse.y,testInstr_mouse.leftButton,testInstr_mouse.midButton,testInstr_mouse.rightButton,test_mouse.x,test_mouse.y,test_mouse.leftButton,test_mouse.midButton,test_mouse.rightButton,test_response.text,testResp,test_loop.thisRepN,test_loop.thisTrialN,test_loop.thisN,test_loop.thisIndex,test_loop.ran,nlWrd,brWrd,cbWrd
0.064814843,0.020370356,1,0,0,20.9628,00086,2023-10-23_18h56.28.862,vbt_B1_day1,2022.2.4,Win32,60.10337781,,,,,,,,,,,,,,,,,,,,,,,,,,,,,,,,,,,,,,,,,,,,,,,,,,,,,,,,,
,,,,,,00086,2023-10-23_18h56.28.862,vbt_B1_day1,2022.2.4,Win32,60.10337781,-0.007407379,-0.280555556,1,0,0,23.4589,,,,,,,,,,,,,,,,,,,,,,,,,,,,,,,,,,,,,,,,,,,,,,,,,,,
,,,,,,00086,2023-10-23_18h56.28.862,vbt_B1_day1,2022.2.4,Win32,60.10337781,,,,,,,-0.007407379,-0.280555556,1,0,0,20.5912,,,,,,,,,,,,,,,,,,,,,,,,,,,,,,,,,,,,,,,,,,,,,
,,,,,,00086,2023-10-23_18h56.28.862,vbt_B1_day1,2022.2.4,Win32,60.10337781,,,,,,,,,,,,,0.040740797,-0.037037065,1,0,0,45.5154,,,,,,,,,,,,,,,,,,,,,,,,,,,,,,,,,,,,,,,
,,,,,,00086,2023-10-23_18h56.28.862,vbt_B1_day1,2022.2.4,Win32,60.10337781,,,,,,,,,,,,,,,,,,,0.192592621,-0.042592621,1,0,0,10.9874,0,0,0,3,1,d,images/br_d.png,images/cb_d.png,,,,,,,,,,,,,,,,,,,,,,,,,
,,,,,,00086,2023-10-23_18h56.28.862,vbt_B1_day1,2022.2.4,Win32,60.10337781,,,,,,,,,,,,,,,,,,,0.192592621,-0.042592621,1,0,0,11.526,0,1,1,15,1,p,images/br_p.png,images/cb_p.png,,,,,,,,,,,,,,,,,,,,,,,,,
,,,,,,00086,2023-10-23_18h56.28.862,vbt_B1_day1,2022.2.4,Win32,60.10337781,,,,,,,,,,,,,,,,,,,0.192592621,-0.042592621,1,0,0,18.6576,0,2,2,6,1,g,images/br_g.png,images/cb_g.png,,,,,,,,,,,,,,,,,,,,,,,,,
,,,,,,00086,2023-10-23_18h56.28.862,vbt_B1_day1,2022.2.4,Win32,60.10337781,,,,,,,,,,,,,,,,,,,0.192592621,-0.042592621,1,0,0,8.2844,0,3,3,25,1,z,images/br_z.png,images/cb_z.png,,,,,,,,,,,,,,,,,,,,,,,,,
,,,,,,00086,2023-10-23_18h56.28.862,vbt_B1_day1,2022.2.4,Win32,60.10337781,,,,,,,,,,,,,,,,,,,0.192592621,-0.042592621,1,0,0,9.7762,0,4,4,24,1,y,images/br_y.png,images/cb_y.png,,,,,,,,,,,,,,,,,,,,,,,,,
,,,,,,00086,2023-10-23_18h56.28.862,vbt_B1_day1,2022.2.4,Win32,60.10337781,,,,,,,,,,,,,,,,,,,0.192592621,-0.042592621,1,0,0,6.1198,0,5,5,9,1,j,images/br_j.png,images/cb_j.png,,,,,,,,,,,,,,,,,,,,,,,,,
,,,,,,00086,2023-10-23_18h56.28.862,vbt_B1_day1,2022.2.4,Win32,60.10337781,,,,,,,,,,,,,,,,,,,0.192592621,-0.042592621,1,0,0,9.7853,0,6,6,21,1,v,images/br_v.png,images/cb_v.png,,,,,,,,,,,,,,,,,,,,,,,,,
,,,,,,00086,2023-10-23_18h56.28.862,vbt_B1_day1,2022.2.4,Win32,60.10337781,,,,,,,,,,,,,,,,,,,0.192592621,-0.042592621,1,0,0,5.7832,0,7,7,23,1,x,images/br_x.png,images/cb_x.png,,,,,,,,,,,,,,,,,,,,,,,,,
,,,,,,00086,2023-10-23_18h56.28.862,vbt_B1_day1,2022.2.4,Win32,60.10337781,,,,,,,,,,,,,,,,,,,0.192592621,-0.042592621,1,0,0,6.0702,0,8,8,4,1,e,images/br_e.png,images/cb_e.png,,,,,,,,,,,,,,,,,,,,,,,,,
,,,,,,00086,2023-10-23_18h56.28.862,vbt_B1_day1,2022.2.4,Win32,60.10337781,,,,,,,,,,,,,,,,,,,0.192592621,-0.042592621,1,0,0,5.9845,0,9,9,16,1,q,images/br_q.png,images/cb_q.png,,,,,,,,,,,,,,,,,,,,,,,,,
,,,,,,00086,2023-10-23_18h56.28.862,vbt_B1_day1,2022.2.4,Win32,60.10337781,,,,,,,,,,,,,,,,,,,0.192592621,-0.042592621,1,0,0,6.3026,0,10,10,0,1,a,images/br_a.png,images/cb_a.png,,,,,,,,,,,,,,,,,,,,,,,,,
,,,,,,00086,2023-10-23_18h56.28.862,vbt_B1_day1,2022.2.4,Win32,60.10337781,,,,,,,,,,,,,,,,,,,0.192592621,-0.042592621,1,0,0,8.6683,0,11,11,20,1,u,images/br_u.png,images/cb_u.png,,,,,,,,,,,,,,,,,,,,,,,,,
,,,,,,00086,2023-10-23_18h56.28.862,vbt_B1_day1,2022.2.4,Win32,60.10337781,,,,,,,,,,,,,,,,,,,0.192592621,-0.042592621,1,0,0,7.7161,0,12,12,10,1,k,images/br_k.png,images/cb_k.png,,,,,,,,,,,,,,,,,,,,,,,,,
,,,,,,00086,2023-10-23_18h56.28.862,vbt_B1_day1,2022.2.4,Win32,60.10337781,,,,,,,,,,,,,,,,,,,0.192592621,-0.042592621,1,0,0,10.4073,0,13,13,2,1,c,images/br_c.png,images/cb_c.png,,,,,,,,,,,,,,,,,,,,,,,,,
,,,,,,00086,2023-10-23_18h56.28.862,vbt_B1_day1,2022.2.4,Win32,60.10337781,,,,,,,,,,,,,,,,,,,0.192592621,-0.042592621,1,0,0,4.9016,0,14,14,14,1,o,images/br_o.png,images/cb_o.png,,,,,,,,,,,,,,,,,,,,,,,,,
,,,,,,00086,2023-10-23_18h56.28.862,vbt_B1_day1,2022.2.4,Win32,60.10337781,,,,,,,,,,,,,,,,,,,0.192592621,-0.042592621,1,0,0,3.6179,0,15,15,11,1,l,images/br_l.png,images/cb_l.png,,,,,,,,,,,,,,,,,,,,,,,,,
,,,,,,00086,2023-10-23_18h56.28.862,vbt_B1_day1,2022.2.4,Win32,60.10337781,,,,,,,,,,,,,,,,,,,0.192592621,-0.042592621,1,0,0,3.1684,0,16,16,19,1,t,images/br_t.png,images/cb_t.png,,,,,,,,,,,,,,,,,,,,,,,,,
,,,,,,00086,2023-10-23_18h56.28.862,vbt_B1_day1,2022.2.4,Win32,60.10337781,,,,,,,,,,,,,,,,,,,0.192592621,-0.042592621,1,0,0,3.9679,0,17,17,1,1,b,images/br_b.png,images/cb_b.png,,,,,,,,,,,,,,,,,,,,,,,,,
,,,,,,00086,2023-10-23_18h56.28.862,vbt_B1_day1,2022.2.4,Win32,60.10337781,,,,,,,,,,,,,,,,,,,0.192592621,-0.042592621,1,0,0,2.7522,0,18,18,13,1,n,images/br_n.png,images/cb_n.png,,,,,,,,,,,,,,,,,,,,,,,,,
,,,,,,00086,2023-10-23_18h56.28.862,vbt_B1_day1,2022.2.4,Win32,60.10337781,,,,,,,,,,,,,,,,,,,0.192592621,-0.042592621,1,0,0,5.4675,0,19,19,17,1,r,images/br_r.png,images/cb_r.png,,,,,,,,,,,,,,,,,,,,,,,,,
,,,,,,00086,2023-10-23_18h56.28.862,vbt_B1_day1,2022.2.4,Win32,60.10337781,,,,,,,,,,,,,,,,,,,0.192592621,-0.042592621,1,0,0,2.7703,0,20,20,18,1,s,images/br_s.png,images/cb_s.png,,,,,,,,,,,,,,,,,,,,,,,,,
,,,,,,00086,2023-10-23_18h56.28.862,vbt_B1_day1,2022.2.4,Win32,60.10337781,,,,,,,,,,,,,,,,,,,0.192592621,-0.042592621,1,0,0,2.9704,0,21,21,7,1,h,images/br_h.png,images/cb_h.png,,,,,,,,,,,,,,,,,,,,,,,,,
,,,,,,00086,2023-10-23_18h56.28.862,vbt_B1_day1,2022.2.4,Win32,60.10337781,,,,,,,,,,,,,,,,,,,0.192592621,-0.042592621,1,0,0,3.934,0,22,22,22,1,w,images/br_w.png,images/cb_w.png,,,,,,,,,,,,,,,,,,,,,,,,,
,,,,,,00086,2023-10-23_18h56.28.862,vbt_B1_day1,2022.2.4,Win32,60.10337781,,,,,,,,,,,,,,,,,,,0.192592621,-0.042592621,1,0,0,3.0691,0,23,23,5,1,f,images/br_f.png,images/cb_f.png,,,,,,,,,,,,,,,,,,,,,,,,,
,,,,,,00086,2023-10-23_18h56.28.862,vbt_B1_day1,2022.2.4,Win32,60.10337781,,,,,,,,,,,,,,,,,,,0.192592621,-0.042592621,1,0,0,2.2209,0,24,24,12,1,m,images/br_m.png,images/cb_m.png,,,,,,,,,,,,,,,,,,,,,,,,,
,,,,,,00086,2023-10-23_18h56.28.862,vbt_B1_day1,2022.2.4,Win32,60.10337781,,,,,,,,,,,,,,,,,,,0.192592621,-0.042592621,1,0,0,3.251,0,25,25,8,1,i,images/br_i.png,images/cb_i.png,,,,,,,,,,,,,,,,,,,,,,,,,
,,,,,,00086,2023-10-23_18h56.28.862,vbt_B1_day1,2022.2.4,Win32,60.10337781,,,,,,,,,,,,,,,,,,,0.192592621,-0.042592621,1,0,0,1.7178,1,0,26,22,1,w,images/br_w.png,images/cb_w.png,,,,,,,,,,,,,,,,,,,,,,,,,
,,,,,,00086,2023-10-23_18h56.28.862,vbt_B1_day1,2022.2.4,Win32,60.10337781,,,,,,,,,,,,,,,,,,,0.192592621,-0.042592621,1,0,0,1.5351,1,1,27,12,1,m,images/br_m.png,images/cb_m.png,,,,,,,,,,,,,,,,,,,,,,,,,
,,,,,,00086,2023-10-23_18h56.28.862,vbt_B1_day1,2022.2.4,Win32,60.10337781,,,,,,,,,,,,,,,,,,,0.192592621,-0.042592621,1,0,0,2.587,1,2,28,20,1,u,images/br_u.png,images/cb_u.png,,,,,,,,,,,,,,,,,,,,,,,,,
,,,,,,00086,2023-10-23_18h56.28.862,vbt_B1_day1,2022.2.4,Win32,60.10337781,,,,,,,,,,,,,,,,,,,0.192592621,-0.042592621,1,0,0,2.4359,1,3,29,6,1,g,images/br_g.png,images/cb_g.png,,,,,,,,,,,,,,,,,,,,,,,,,
,,,,,,00086,2023-10-23_18h56.28.862,vbt_B1_day1,2022.2.4,Win32,60.10337781,,,,,,,,,,,,,,,,,,,0.192592621,-0.042592621,1,0,0,1.9859,1,4,30,2,1,c,images/br_c.png,images/cb_c.png,,,,,,,,,,,,,,,,,,,,,,,,,
,,,,,,00086,2023-10-23_18h56.28.862,vbt_B1_day1,2022.2.4,Win32,60.10337781,,,,,,,,,,,,,,,,,,,0.192592621,-0.042592621,1,0,0,0.7007,1,5,31,10,1,k,images/br_k.png,images/cb_k.png,,,,,,,,,,,,,,,,,,,,,,,,,
,,,,,,00086,2023-10-23_18h56.28.862,vbt_B1_day1,2022.2.4,Win32,60.10337781,,,,,,,,,,,,,,,,,,,0.192592621,-0.042592621,1,0,0,3.0021,1,6,32,11,1,l,images/br_l.png,images/cb_l.png,,,,,,,,,,,,,,,,,,,,,,,,,
,,,,,,00086,2023-10-23_18h56.28.862,vbt_B1_day1,2022.2.4,Win32,60.10337781,,,,,,,,,,,,,,,,,,,0.192592621,-0.042592621,1,0,0,3.2357,1,7,33,23,1,x,images/br_x.png,images/cb_x.png,,,,,,,,,,,,,,,,,,,,,,,,,
,,,,,,00086,2023-10-23_18h56.28.862,vbt_B1_day1,2022.2.4,Win32,60.10337781,,,,,,,,,,,,,,,,,,,0.192592621,-0.042592621,1,0,0,1.7353,1,8,34,1,1,b,images/br_b.png,images/cb_b.png,,,,,,,,,,,,,,,,,,,,,,,,,
,,,,,,00086,2023-10-23_18h56.28.862,vbt_B1_day1,2022.2.4,Win32,60.10337781,,,,,,,,,,,,,,,,,,,0.192592621,-0.042592621,1,0,0,1.7533,1,9,35,17,1,r,images/br_r.png,images/cb_r.png,,,,,,,,,,,,,,,,,,,,,,,,,
,,,,,,00086,2023-10-23_18h56.28.862,vbt_B1_day1,2022.2.4,Win32,60.10337781,,,,,,,,,,,,,,,,,,,0.192592621,-0.042592621,1,0,0,2.0037,1,10,36,3,1,d,images/br_d.png,images/cb_d.png,,,,,,,,,,,,,,,,,,,,,,,,,
,,,,,,00086,2023-10-23_18h56.28.862,vbt_B1_day1,2022.2.4,Win32,60.10337781,,,,,,,,,,,,,,,,,,,0.150925954,-0.049074088,1,0,0,7.0667,1,11,37,25,1,z,images/br_z.png,images/cb_z.png,,,,,,,,,,,,,,,,,,,,,,,,,
,,,,,,00086,2023-10-23_18h56.28.862,vbt_B1_day1,2022.2.4,Win32,60.10337781,,,,,,,,,,,,,,,,,,,0.150925954,-0.049074088,1,0,0,2.052,1,12,38,14,1,o,images/br_o.png,images/cb_o.png,,,,,,,,,,,,,,,,,,,,,,,,,
,,,,,,00086,2023-10-23_18h56.28.862,vbt_B1_day1,2022.2.4,Win32,60.10337781,,,,,,,,,,,,,,,,,,,0.150925954,-0.049074088,1,0,0,0.9352,1,13,39,4,1,e,images/br_e.png,images/cb_e.png,,,,,,,,,,,,,,,,,,,,,,,,,
,,,,,,00086,2023-10-23_18h56.28.862,vbt_B1_day1,2022.2.4,Win32,60.10337781,,,,,,,,,,,,,,,,,,,0.150925954,-0.049074088,1,0,0,2.2518,1,14,40,13,1,n,images/br_n.png,images/cb_n.png,,,,,,,,,,,,,,,,,,,,,,,,,
,,,,,,00086,2023-10-23_18h56.28.862,vbt_B1_day1,2022.2.4,Win32,60.10337781,,,,,,,,,,,,,,,,,,,0.150925954,-0.049074088,1,0,0,2.3848,1,15,41,8,1,i,images/br_i.png,images/cb_i.png,,,,,,,,,,,,,,,,,,,,,,,,,
,,,,,,00086,2023-10-23_18h56.28.862,vbt_B1_day1,2022.2.4,Win32,60.10337781,,,,,,,,,,,,,,,,,,,0.150925954,-0.049074088,1,0,0,0.8546,1,16,42,7,1,h,images/br_h.png,images/cb_h.png,,,,,,,,,,,,,,,,,,,,,,,,,
,,,,,,00086,2023-10-23_18h56.28.862,vbt_B1_day1,2022.2.4,Win32,60.10337781,,,,,,,,,,,,,,,,,,,0.150925954,-0.049074088,1,0,0,1.151,1,17,43,19,1,t,images/br_t.png,images/cb_t.png,,,,,,,,,,,,,,,,,,,,,,,,,
,,,,,,00086,2023-10-23_18h56.28.862,vbt_B1_day1,2022.2.4,Win32,60.10337781,,,,,,,,,,,,,,,,,,,0.150925954,-0.049074088,1,0,0,5.3353,1,18,44,9,1,j,images/br_j.png,images/cb_j.png,,,,,,,,,,,,,,,,,,,,,,,,,
,,,,,,00086,2023-10-23_18h56.28.862,vbt_B1_day1,2022.2.4,Win32,60.10337781,,,,,,,,,,,,,,,,,,,0.150925954,-0.049074088,1,0,0,2.5686,1,19,45,0,1,a,images/br_a.png,images/cb_a.png,,,,,,,,,,,,,,,,,,,,,,,,,
,,,,,,00086,2023-10-23_18h56.28.862,vbt_B1_day1,2022.2.4,Win32,60.10337781,,,,,,,,,,,,,,,,,,,0.150925954,-0.049074088,1,0,0,4.3021,1,20,46,16,1,q,images/br_q.png,images/cb_q.png,,,,,,,,,,,,,,,,,,,,,,,,,
,,,,,,00086,2023-10-23_18h56.28.862,vbt_B1_day1,2022.2.4,Win32,60.10337781,,,,,,,,,,,,,,,,,,,0.150925954,-0.049074088,1,0,0,0.6196,1,21,47,5,1,f,images/br_f.png,images/cb_f.png,,,,,,,,,,,,,,,,,,,,,,,,,
,,,,,,00086,2023-10-23_18h56.28.862,vbt_B1_day1,2022.2.4,Win32,60.10337781,,,,,,,,,,,,,,,,,,,0.150925954,-0.049074088,1,0,0,2.8677,1,22,48,15,1,p,images/br_p.png,images/cb_p.png,,,,,,,,,,,,,,,,,,,,,,,,,
,,,,,,00086,2023-10-23_18h56.28.862,vbt_B1_day1,2022.2.4,Win32,60.10337781,,,,,,,,,,,,,,,,,,,0.150925954,-0.049074088,1,0,0,1.3012,1,23,49,21,1,v,images/br_v.png,images/cb_v.png,,,,,,,,,,,,,,,,,,,,,,,,,
,,,,,,00086,2023-10-23_18h56.28.862,vbt_B1_day1,2022.2.4,Win32,60.10337781,,,,,,,,,,,,,,,,,,,0.150925954,-0.049074088,1,0,0,1.5527,1,24,50,18,1,s,images/br_s.png,images/cb_s.png,,,,,,,,,,,,,,,,,,,,,,,,,
,,,,,,00086,2023-10-23_18h56.28.862,vbt_B1_day1,2022.2.4,Win32,60.10337781,,,,,,,,,,,,,,,,,,,0.150925954,-0.049074088,1,0,0,0.6186,1,25,51,24,1,y,images/br_y.png,images/cb_y.png,,,,,,,,,,,,,,,,,,,,,,,,,
,,,,,,00086,2023-10-23_18h56.28.862,vbt_B1_day1,2022.2.4,Win32,60.10337781,,,,,,,,,,,,,,,,,,,0.150925954,-0.049074088,1,0,0,0.9694,2,0,52,15,1,p,images/br_p.png,images/cb_p.png,,,,,,,,,,,,,,,,,,,,,,,,,
,,,,,,00086,2023-10-23_18h56.28.862,vbt_B1_day1,2022.2.4,Win32,60.10337781,,,,,,,,,,,,,,,,,,,0.150925954,-0.049074088,1,0,0,3.002,2,1,53,2,1,c,images/br_c.png,images/cb_c.png,,,,,,,,,,,,,,,,,,,,,,,,,
,,,,,,00086,2023-10-23_18h56.28.862,vbt_B1_day1,2022.2.4,Win32,60.10337781,,,,,,,,,,,,,,,,,,,0.065740797,-0.12129631,1,0,0,1.8183,2,2,54,6,1,g,images/br_g.png,images/cb_g.png,,,,,,,,,,,,,,,,,,,,,,,,,
,,,,,,00086,2023-10-23_18h56.28.862,vbt_B1_day1,2022.2.4,Win32,60.10337781,,,,,,,,,,,,,,,,,,,0.065740797,-0.12129631,1,0,0,5.2016,2,3,55,7,1,h,images/br_h.png,images/cb_h.png,,,,,,,,,,,,,,,,,,,,,,,,,
,,,,,,00086,2023-10-23_18h56.28.862,vbt_B1_day1,2022.2.4,Win32,60.10337781,,,,,,,,,,,,,,,,,,,0.093518575,-0.068518533,1,0,0,2.8012,2,4,56,25,1,z,images/br_z.png,images/cb_z.png,,,,,,,,,,,,,,,,,,,,,,,,,
,,,,,,00086,2023-10-23_18h56.28.862,vbt_B1_day1,2022.2.4,Win32,60.10337781,,,,,,,,,,,,,,,,,,,0.093518575,-0.068518533,1,0,0,1.9021,2,5,57,4,1,e,images/br_e.png,images/cb_e.png,,,,,,,,,,,,,,,,,,,,,,,,,
,,,,,,00086,2023-10-23_18h56.28.862,vbt_B1_day1,2022.2.4,Win32,60.10337781,,,,,,,,,,,,,,,,,,,0.093518575,-0.068518533,1,0,0,6.1674,2,6,58,10,1,k,images/br_k.png,images/cb_k.png,,,,,,,,,,,,,,,,,,,,,,,,,
,,,,,,00086,2023-10-23_18h56.28.862,vbt_B1_day1,2022.2.4,Win32,60.10337781,,,,,,,,,,,,,,,,,,,0.093518575,-0.068518533,1,0,0,4.8171,2,7,59,12,1,m,images/br_m.png,images/cb_m.png,,,,,,,,,,,,,,,,,,,,,,,,,
,,,,,,00086,2023-10-23_18h56.28.862,vbt_B1_day1,2022.2.4,Win32,60.10337781,,,,,,,,,,,,,,,,,,,0.093518575,-0.068518533,1,0,0,1.404,2,8,60,18,1,s,images/br_s.png,images/cb_s.png,,,,,,,,,,,,,,,,,,,,,,,,,
,,,,,,00086,2023-10-23_18h56.28.862,vbt_B1_day1,2022.2.4,Win32,60.10337781,,,,,,,,,,,,,,,,,,,0.093518575,-0.068518533,1,0,0,3.6527,2,9,61,14,1,o,images/br_o.png,images/cb_o.png,,,,,,,,,,,,,,,,,,,,,,,,,
,,,,,,00086,2023-10-23_18h56.28.862,vbt_B1_day1,2022.2.4,Win32,60.10337781,,,,,,,,,,,,,,,,,,,0.093518575,-0.068518533,1,0,0,3.4688,2,10,62,21,1,v,images/br_v.png,images/cb_v.png,,,,,,,,,,,,,,,,,,,,,,,,,
,,,,,,00086,2023-10-23_18h56.28.862,vbt_B1_day1,2022.2.4,Win32,60.10337781,,,,,,,,,,,,,,,,,,,0.093518575,-0.068518533,1,0,0,0.472,2,11,63,17,1,r,images/br_r.png,images/cb_r.png,,,,,,,,,,,,,,,,,,,,,,,,,
,,,,,,00086,2023-10-23_18h56.28.862,vbt_B1_day1,2022.2.4,Win32,60.10337781,,,,,,,,,,,,,,,,,,,0.093518575,-0.068518533,1,0,0,4.6837,2,12,64,20,1,u,images/br_u.png,images/cb_u.png,,,,,,,,,,,,,,,,,,,,,,,,,
,,,,,,00086,2023-10-23_18h56.28.862,vbt_B1_day1,2022.2.4,Win32,60.10337781,,,,,,,,,,,,,,,,,,,0.093518575,-0.068518533,1,0,0,2.7874,2,13,65,13,1,n,images/br_n.png,images/cb_n.png,,,,,,,,,,,,,,,,,,,,,,,,,
,,,,,,00086,2023-10-23_18h56.28.862,vbt_B1_day1,2022.2.4,Win32,60.10337781,,,,,,,,,,,,,,,,,,,0.093518575,-0.068518533,1,0,0,2.1674,2,14,66,22,1,w,images/br_w.png,images/cb_w.png,,,,,,,,,,,,,,,,,,,,,,,,,
,,,,,,00086,2023-10-23_18h56.28.862,vbt_B1_day1,2022.2.4,Win32,60.10337781,,,,,,,,,,,,,,,,,,,0.093518575,-0.068518533,1,0,0,4.3531,2,15,67,3,1,d,images/br_d.png,images/cb_d.png,,,,,,,,,,,,,,,,,,,,,,,,,
,,,,,,00086,2023-10-23_18h56.28.862,vbt_B1_day1,2022.2.4,Win32,60.10337781,,,,,,,,,,,,,,,,,,,0.093518575,-0.068518533,1,0,0,1.4706,2,16,68,19,1,t,images/br_t.png,images/cb_t.png,,,,,,,,,,,,,,,,,,,,,,,,,
,,,,,,00086,2023-10-23_18h56.28.862,vbt_B1_day1,2022.2.4,Win32,60.10337781,,,,,,,,,,,,,,,,,,,0.093518575,-0.068518533,1,0,0,2.5025,2,17,69,16,1,q,images/br_q.png,images/cb_q.png,,,,,,,,,,,,,,,,,,,,,,,,,
,,,,,,00086,2023-10-23_18h56.28.862,vbt_B1_day1,2022.2.4,Win32,60.10337781,,,,,,,,,,,,,,,,,,,0.093518575,-0.068518533,1,0,0,3.7365,2,18,70,1,1,b,images/br_b.png,images/cb_b.png,,,,,,,,,,,,,,,,,,,,,,,,,
,,,,,,00086,2023-10-23_18h56.28.862,vbt_B1_day1,2022.2.4,Win32,60.10337781,,,,,,,,,,,,,,,,,,,0.093518575,-0.068518533,1,0,0,0.8506,2,19,71,5,1,f,images/br_f.png,images/cb_f.png,,,,,,,,,,,,,,,,,,,,,,,,,
,,,,,,00086,2023-10-23_18h56.28.862,vbt_B1_day1,2022.2.4,Win32,60.10337781,,,,,,,,,,,,,,,,,,,0.093518575,-0.068518533,1,0,0,0.1502,2,20,72,11,1,l,images/br_l.png,images/cb_l.png,,,,,,,,,,,,,,,,,,,,,,,,,
,,,,,,00086,2023-10-23_18h56.28.862,vbt_B1_day1,2022.2.4,Win32,60.10337781,,,,,,,,,,,,,,,,,,,0.093518575,-0.068518533,1,0,0,4.2875,2,21,73,0,1,a,images/br_a.png,images/cb_a.png,,,,,,,,,,,,,,,,,,,,,,,,,
,,,,,,00086,2023-10-23_18h56.28.862,vbt_B1_day1,2022.2.4,Win32,60.10337781,,,,,,,,,,,,,,,,,,,0.093518575,-0.068518533,1,0,0,1.5515,2,22,74,8,1,i,images/br_i.png,images/cb_i.png,,,,,,,,,,,,,,,,,,,,,,,,,
,,,,,,00086,2023-10-23_18h56.28.862,vbt_B1_day1,2022.2.4,Win32,60.10337781,,,,,,,,,,,,,,,,,,,0.093518575,-0.068518533,1,0,0,1.0189,2,23,75,9,1,j,images/br_j.png,images/cb_j.png,,,,,,,,,,,,,,,,,,,,,,,,,
,,,,,,00086,2023-10-23_18h56.28.862,vbt_B1_day1,2022.2.4,Win32,60.10337781,,,,,,,,,,,,,,,,,,,0.093518575,-0.068518533,1,0,0,1.1688,2,24,76,24,1,y,images/br_y.png,images/cb_y.png,,,,,,,,,,,,,,,,,,,,,,,,,
,,,,,,00086,2023-10-23_18h56.28.862,vbt_B1_day1,2022.2.4,Win32,60.10337781,,,,,,,,,,,,,,,,,,,0.093518575,-0.068518533,1,0,0,1.4703,2,25,77,23,1,x,images/br_x.png,images/cb_x.png,,,,,,,,,,,,,,,,,,,,,,,,,
,,,,,,00086,2023-10-23_18h56.28.862,vbt_B1_day1,2022.2.4,Win32,60.10337781,,,,,,,,,,,,,,,,,,,0.093518575,-0.068518533,1,0,0,0.235,3,0,78,0,1,a,images/br_a.png,images/cb_a.png,,,,,,,,,,,,,,,,,,,,,,,,,
,,,,,,00086,2023-10-23_18h56.28.862,vbt_B1_day1,2022.2.4,Win32,60.10337781,,,,,,,,,,,,,,,,,,,0.093518575,-0.068518533,1,0,0,4.2351,3,1,79,17,1,r,images/br_r.png,images/cb_r.png,,,,,,,,,,,,,,,,,,,,,,,,,
,,,,,,00086,2023-10-23_18h56.28.862,vbt_B1_day1,2022.2.4,Win32,60.10337781,,,,,,,,,,,,,,,,,,,0.093518575,-0.068518533,1,0,0,1.652,3,2,80,25,1,z,images/br_z.png,images/cb_z.png,,,,,,,,,,,,,,,,,,,,,,,,,
,,,,,,00086,2023-10-23_18h56.28.862,vbt_B1_day1,2022.2.4,Win32,60.10337781,,,,,,,,,,,,,,,,,,,0.093518575,-0.068518533,1,0,0,3.1201,3,3,81,7,1,h,images/br_h.png,images/cb_h.png,,,,,,,,,,,,,,,,,,,,,,,,,
,,,,,,00086,2023-10-23_18h56.28.862,vbt_B1_day1,2022.2.4,Win32,60.10337781,,,,,,,,,,,,,,,,,,,0.093518575,-0.068518533,1,0,0,5.4666,3,4,82,2,1,c,images/br_c.png,images/cb_c.png,,,,,,,,,,,,,,,,,,,,,,,,,
,,,,,,00086,2023-10-23_18h56.28.862,vbt_B1_day1,2022.2.4,Win32,60.10337781,,,,,,,,,,,,,,,,,,,0.093518575,-0.068518533,1,0,0,1.2182,3,5,83,19,1,t,images/br_t.png,images/cb_t.png,,,,,,,,,,,,,,,,,,,,,,,,,
,,,,,,00086,2023-10-23_18h56.28.862,vbt_B1_day1,2022.2.4,Win32,60.10337781,,,,,,,,,,,,,,,,,,,0.093518575,-0.068518533,1,0,0,0.1867,3,6,84,23,1,x,images/br_x.png,images/cb_x.png,,,,,,,,,,,,,,,,,,,,,,,,,
,,,,,,00086,2023-10-23_18h56.28.862,vbt_B1_day1,2022.2.4,Win32,60.10337781,,,,,,,,,,,,,,,,,,,0.093518575,-0.068518533,1,0,0,2.1513,3,7,85,13,1,n,images/br_n.png,images/cb_n.png,,,,,,,,,,,,,,,,,,,,,,,,,
,,,,,,00086,2023-10-23_18h56.28.862,vbt_B1_day1,2022.2.4,Win32,60.10337781,,,,,,,,,,,,,,,,,,,0.093518575,-0.068518533,1,0,0,2.936,3,8,86,16,1,q,images/br_q.png,images/cb_q.png,,,,,,,,,,,,,,,,,,,,,,,,,
,,,,,,00086,2023-10-23_18h56.28.862,vbt_B1_day1,2022.2.4,Win32,60.10337781,,,,,,,,,,,,,,,,,,,0.093518575,-0.068518533,1,0,0,1.3536,3,9,87,24,1,y,images/br_y.png,images/cb_y.png,,,,,,,,,,,,,,,,,,,,,,,,,
,,,,,,00086,2023-10-23_18h56.28.862,vbt_B1_day1,2022.2.4,Win32,60.10337781,,,,,,,,,,,,,,,,,,,0.093518575,-0.068518533,1,0,0,1.4536,3,10,88,5,1,f,images/br_f.png,images/cb_f.png,,,,,,,,,,,,,,,,,,,,,,,,,
,,,,,,00086,2023-10-23_18h56.28.862,vbt_B1_day1,2022.2.4,Win32,60.10337781,,,,,,,,,,,,,,,,,,,0.093518575,-0.068518533,1,0,0,1.8715,3,11,89,8,1,i,images/br_i.png,images/cb_i.png,,,,,,,,,,,,,,,,,,,,,,,,,
,,,,,,00086,2023-10-23_18h56.28.862,vbt_B1_day1,2022.2.4,Win32,60.10337781,,,,,,,,,,,,,,,,,,,0.093518575,-0.068518533,1,0,0,2.7371,3,12,90,12,1,m,images/br_m.png,images/cb_m.png,,,,,,,,,,,,,,,,,,,,,,,,,
,,,,,,00086,2023-10-23_18h56.28.862,vbt_B1_day1,2022.2.4,Win32,60.10337781,,,,,,,,,,,,,,,,,,,0.093518575,-0.068518533,1,0,0,2.2345,3,13,91,1,1,b,images/br_b.png,images/cb_b.png,,,,,,,,,,,,,,,,,,,,,,,,,
,,,,,,00086,2023-10-23_18h56.28.862,vbt_B1_day1,2022.2.4,Win32,60.10337781,,,,,,,,,,,,,,,,,,,0.093518575,-0.068518533,1,0,0,2.5016,3,14,92,9,1,j,images/br_j.png,images/cb_j.png,,,,,,,,,,,,,,,,,,,,,,,,,
,,,,,,00086,2023-10-23_18h56.28.862,vbt_B1_day1,2022.2.4,Win32,60.10337781,,,,,,,,,,,,,,,,,,,0.093518575,-0.068518533,1,0,0,0.6873,3,15,93,10,1,k,images/br_k.png,images/cb_k.png,,,,,,,,,,,,,,,,,,,,,,,,,
,,,,,,00086,2023-10-23_18h56.28.862,vbt_B1_day1,2022.2.4,Win32,60.10337781,,,,,,,,,,,,,,,,,,,0.093518575,-0.068518533,1,0,0,3.8852,3,16,94,14,1,o,images/br_o.png,images/cb_o.png,,,,,,,,,,,,,,,,,,,,,,,,,
,,,,,,00086,2023-10-23_18h56.28.862,vbt_B1_day1,2022.2.4,Win32,60.10337781,,,,,,,,,,,,,,,,,,,0.093518575,-0.068518533,1,0,0,1.1342,3,17,95,18,1,s,images/br_s.png,images/cb_s.png,,,,,,,,,,,,,,,,,,,,,,,,,
,,,,,,00086,2023-10-23_18h56.28.862,vbt_B1_day1,2022.2.4,Win32,60.10337781,,,,,,,,,,,,,,,,,,,0.093518575,-0.068518533,1,0,0,2.3003,3,18,96,21,1,v,images/br_v.png,images/cb_v.png,,,,,,,,,,,,,,,,,,,,,,,,,
,,,,,,00086,2023-10-23_18h56.28.862,vbt_B1_day1,2022.2.4,Win32,60.10337781,,,,,,,,,,,,,,,,,,,0.093518575,-0.068518533,1,0,0,2.486,3,19,97,3,1,d,images/br_d.png,images/cb_d.png,,,,,,,,,,,,,,,,,,,,,,,,,
,,,,,,00086,2023-10-23_18h56.28.862,vbt_B1_day1,2022.2.4,Win32,60.10337781,,,,,,,,,,,,,,,,,,,0.093518575,-0.068518533,1,0,0,1.6022,3,20,98,20,1,u,images/br_u.png,images/cb_u.png,,,,,,,,,,,,,,,,,,,,,,,,,
,,,,,,00086,2023-10-23_18h56.28.862,vbt_B1_day1,2022.2.4,Win32,60.10337781,,,,,,,,,,,,,,,,,,,0.093518575,-0.068518533,1,0,0,2.2199,3,21,99,22,1,w,images/br_w.png,images/cb_w.png,,,,,,,,,,,,,,,,,,,,,,,,,
,,,,,,00086,2023-10-23_18h56.28.862,vbt_B1_day1,2022.2.4,Win32,60.10337781,,,,,,,,,,,,,,,,,,,0.119444444,-0.012037065,1,0,0,5.602,3,22,100,11,1,l,images/br_l.png,images/cb_l.png,,,,,,,,,,,,,,,,,,,,,,,,,
,,,,,,00086,2023-10-23_18h56.28.862,vbt_B1_day1,2022.2.4,Win32,60.10337781,,,,,,,,,,,,,,,,,,,0.119444444,-0.012037065,1,0,0,3.6683,3,23,101,6,1,g,images/br_g.png,images/cb_g.png,,,,,,,,,,,,,,,,,,,,,,,,,
,,,,,,00086,2023-10-23_18h56.28.862,vbt_B1_day1,2022.2.4,Win32,60.10337781,,,,,,,,,,,,,,,,,,,0.108333333,-0.057407422,1,0,0,8.2157,3,24,102,4,1,e,images/br_e.png,images/cb_e.png,,,,,,,,,,,,,,,,,,,,,,,,,
,,,,,,00086,2023-10-23_18h56.28.862,vbt_B1_day1,2022.2.4,Win32,60.10337781,,,,,,,,,,,,,,,,,,,0.108333333,-0.057407422,1,0,0,1.2864,3,25,103,15,1,p,images/br_p.png,images/cb_p.png,,,,,,,,,,,,,,,,,,,,,,,,,
,,,,,,00086,2023-10-23_18h56.28.862,vbt_B1_day1,2022.2.4,Win32,60.10337781,,,,,,,,,,,,,,,,,,,0.108333333,-0.057407422,1,0,0,2.5355,4,0,104,0,1,a,images/br_a.png,images/cb_a.png,,,,,,,,,,,,,,,,,,,,,,,,,
,,,,,,00086,2023-10-23_18h56.28.862,vbt_B1_day1,2022.2.4,Win32,60.10337781,,,,,,,,,,,,,,,,,,,0.108333333,-0.057407422,1,0,0,3.0526,4,1,105,15,1,p,images/br_p.png,images/cb_p.png,,,,,,,,,,,,,,,,,,,,,,,,,
,,,,,,00086,2023-10-23_18h56.28.862,vbt_B1_day1,2022.2.4,Win32,60.10337781,,,,,,,,,,,,,,,,,,,0.108333333,-0.057407422,1,0,0,3.2704,4,2,106,5,1,f,images/br_f.png,images/cb_f.png,,,,,,,,,,,,,,,,,,,,,,,,,
,,,,,,00086,2023-10-23_18h56.28.862,vbt_B1_day1,2022.2.4,Win32,60.10337781,,,,,,,,,,,,,,,,,,,0.108333333,-0.057407422,1,0,0,6.0041,4,3,107,20,1,u,images/br_u.png,images/cb_u.png,,,,,,,,,,,,,,,,,,,,,,,,,
,,,,,,00086,2023-10-23_18h56.28.862,vbt_B1_day1,2022.2.4,Win32,60.10337781,,,,,,,,,,,,,,,,,,,0.108333333,-0.057407422,1,0,0,0.9254,4,4,108,4,1,e,images/br_e.png,images/cb_e.png,,,,,,,,,,,,,,,,,,,,,,,,,
,,,,,,00086,2023-10-23_18h56.28.862,vbt_B1_day1,2022.2.4,Win32,60.10337781,,,,,,,,,,,,,,,,,,,0.088888889,-0.052777778,1,0,0,2.9682,4,5,109,19,1,t,images/br_t.png,images/cb_t.png,,,,,,,,,,,,,,,,,,,,,,,,,
,,,,,,00086,2023-10-23_18h56.28.862,vbt_B1_day1,2022.2.4,Win32,60.10337781,,,,,,,,,,,,,,,,,,,0.103703732,-0.077777778,1,0,0,0.136,4,6,110,14,1,o,images/br_o.png,images/cb_o.png,,,,,,,,,,,,,,,,,,,,,,,,,
,,,,,,00086,2023-10-23_18h56.28.862,vbt_B1_day1,2022.2.4,Win32,60.10337781,,,,,,,,,,,,,,,,,,,0.103703732,-0.077777778,1,0,0,0.5837,4,7,111,3,1,d,images/br_d.png,images/cb_d.png,,,,,,,,,,,,,,,,,,,,,,,,,
,,,,,,00086,2023-10-23_18h56.28.862,vbt_B1_day1,2022.2.4,Win32,60.10337781,,,,,,,,,,,,,,,,,,,0.103703732,-0.077777778,1,0,0,0.4893,4,8,112,21,1,v,images/br_v.png,images/cb_v.png,,,,,,,,,,,,,,,,,,,,,,,,,
,,,,,,00086,2023-10-23_18h56.28.862,vbt_B1_day1,2022.2.4,Win32,60.10337781,,,,,,,,,,,,,,,,,,,0.103703732,-0.115740755,1,0,0,3.3194,4,9,113,25,1,z,images/br_z.png,images/cb_z.png,,,,,,,,,,,,,,,,,,,,,,,,,
,,,,,,00086,2023-10-23_18h56.28.862,vbt_B1_day1,2022.2.4,Win32,60.10337781,,,,,,,,,,,,,,,,,,,0.103703732,-0.115740755,1,0,0,0.7941,4,10,114,24,1,y,images/br_y.png,images/cb_y.png,,,,,,,,,,,,,,,,,,,,,,,,,
,,,,,,00086,2023-10-23_18h56.28.862,vbt_B1_day1,2022.2.4,Win32,60.10337781,,,,,,,,,,,,,,,,,,,0.146296353,-0.108333333,1,0,0,1.1354,4,11,115,12,1,m,images/br_m.png,images/cb_m.png,,,,,,,,,,,,,,,,,,,,,,,,,
,,,,,,00086,2023-10-23_18h56.28.862,vbt_B1_day1,2022.2.4,Win32,60.10337781,,,,,,,,,,,,,,,,,,,0.146296353,-0.108333333,1,0,0,0.0179,4,12,116,13,1,n,images/br_n.png,images/cb_n.png,,,,,,,,,,,,,,,,,,,,,,,,,
,,,,,,00086,2023-10-23_18h56.28.862,vbt_B1_day1,2022.2.4,Win32,60.10337781,,,,,,,,,,,,,,,,,,,0.120370399,-0.113888889,1,0,0,1.3513,4,13,117,1,1,b,images/br_b.png,images/cb_b.png,,,,,,,,,,,,,,,,,,,,,,,,,
,,,,,,00086,2023-10-23_18h56.28.862,vbt_B1_day1,2022.2.4,Win32,60.10337781,,,,,,,,,,,,,,,,,,,-0.006481425,-0.122222222,1,0,0,0.5194,4,14,118,8,1,i,images/br_i.png,images/cb_i.png,,,,,,,,,,,,,,,,,,,,,,,,,
,,,,,,00086,2023-10-23_18h56.28.862,vbt_B1_day1,2022.2.4,Win32,60.10337781,,,,,,,,,,,,,,,,,,,0.050925954,-0.173148176,1,0,0,2.1188,4,15,119,11,1,l,images/br_l.png,images/cb_l.png,,,,,,,,,,,,,,,,,,,,,,,,,
,,,,,,00086,2023-10-23_18h56.28.862,vbt_B1_day1,2022.2.4,Win32,60.10337781,,,,,,,,,,,,,,,,,,,0.00648151,-0.180555556,1,0,0,0.9376,4,16,120,18,1,s,images/br_s.png,images/cb_s.png,,,,,,,,,,,,,,,,,,,,,,,,,
,,,,,,00086,2023-10-23_18h56.28.862,vbt_B1_day1,2022.2.4,Win32,60.10337781,,,,,,,,,,,,,,,,,,,-0.210185157,-0.05648151,1,0,0,0.8513,4,17,121,23,1,x,images/br_x.png,images/cb_x.png,,,,,,,,,,,,,,,,,,,,,,,,,
,,,,,,00086,2023-10-23_18h56.28.862,vbt_B1_day1,2022.2.4,Win32,60.10337781,,,,,,,,,,,,,,,,,,,0.082407464,-0.20648151,1,0,0,0.5523,4,18,122,9,1,j,images/br_j.png,images/cb_j.png,,,,,,,,,,,,,,,,,,,,,,,,,
,,,,,,00086,2023-10-23_18h56.28.862,vbt_B1_day1,2022.2.4,Win32,60.10337781,,,,,,,,,,,,,,,,,,,-0.000925869,-0.139814843,1,0,0,0.5689,4,19,123,22,1,w,images/br_w.png,images/cb_w.png,,,,,,,,,,,,,,,,,,,,,,,,,
,,,,,,00086,2023-10-23_18h56.28.862,vbt_B1_day1,2022.2.4,Win32,60.10337781,,,,,,,,,,,,,,,,,,,0.023148176,-0.136111111,1,0,0,0.0853,4,20,124,17,1,r,images/br_r.png,images/cb_r.png,,,,,,,,,,,,,,,,,,,,,,,,,
,,,,,,00086,2023-10-23_18h56.28.862,vbt_B1_day1,2022.2.4,Win32,60.10337781,,,,,,,,,,,,,,,,,,,0.058333333,-0.124074088,1,0,0,4.2684,4,21,125,2,1,c,images/br_c.png,images/cb_c.png,,,,,,,,,,,,,,,,,,,,,,,,,
,,,,,,00086,2023-10-23_18h56.28.862,vbt_B1_day1,2022.2.4,Win32,60.10337781,,,,,,,,,,,,,,,,,,,-0.000925869,-0.139814843,1,0,0,0.4376,4,22,126,10,1,k,images/br_k.png,images/cb_k.png,,,,,,,,,,,,,,,,,,,,,,,,,
,,,,,,00086,2023-10-23_18h56.28.862,vbt_B1_day1,2022.2.4,Win32,60.10337781,,,,,,,,,,,,,,,,,,,0.013888889,-0.102777778,1,0,0,3.121,4,23,127,6,1,g,images/br_g.png,images/cb_g.png,,,,,,,,,,,,,,,,,,,,,,,,,
,,,,,,00086,2023-10-23_18h56.28.862,vbt_B1_day1,2022.2.4,Win32,60.10337781,,,,,,,,,,,,,,,,,,,0.054629686,-0.132407422,1,0,0,3.569,4,24,128,16,1,q,images/br_q.png,images/cb_q.png,,,,,,,,,,,,,,,,,,,,,,,,,
,,,,,,00086,2023-10-23_18h56.28.862,vbt_B1_day1,2022.2.4,Win32,60.10337781,,,,,,,,,,,,,,,,,,,0.101851908,-0.092592621,1,0,0,0.7033,4,25,129,7,1,h,images/br_h.png,images/cb_h.png,,,,,,,,,,,,,,,,,,,,,,,,,
,,,,,,00086,2023-10-23_18h56.28.862,vbt_B1_day1,2022.2.4,Win32,60.10337781,,,,,,,,,,,,,,,,,,,0.073148176,-0.117592621,1,0,0,1.1354,5,0,130,3,1,d,images/br_d.png,images/cb_d.png,,,,,,,,,,,,,,,,,,,,,,,,,
,,,,,,00086,2023-10-23_18h56.28.862,vbt_B1_day1,2022.2.4,Win32,60.10337781,,,,,,,,,,,,,,,,,,,0.1,-0.138888889,1,0,0,8.7848,5,1,131,24,1,y,images/br_y.png,images/cb_y.png,,,,,,,,,,,,,,,,,,,,,,,,,
,,,,,,00086,2023-10-23_18h56.28.862,vbt_B1_day1,2022.2.4,Win32,60.10337781,,,,,,,,,,,,,,,,,,,-0.119444444,-0.012962977,1,0,0,2.9682,5,2,132,21,1,v,images/br_v.png,images/cb_v.png,,,,,,,,,,,,,,,,,,,,,,,,,
,,,,,,00086,2023-10-23_18h56.28.862,vbt_B1_day1,2022.2.4,Win32,60.10337781,,,,,,,,,,,,,,,,,,,-0.098148092,0.005555556,1,0,0,1.7519,5,3,133,19,1,t,images/br_t.png,images/cb_t.png,,,,,,,,,,,,,,,,,,,,,,,,,
,,,,,,00086,2023-10-23_18h56.28.862,vbt_B1_day1,2022.2.4,Win32,60.10337781,,,,,,,,,,,,,,,,,,,-0.097222222,-0.077777778,1,0,0,3.2684,5,4,134,12,1,m,images/br_m.png,images/cb_m.png,,,,,,,,,,,,,,,,,,,,,,,,,
,,,,,,00086,2023-10-23_18h56.28.862,vbt_B1_day1,2022.2.4,Win32,60.10337781,,,,,,,,,,,,,,,,,,,-0.108333333,-0.101851866,1,0,0,1.3342,5,5,135,8,1,i,images/br_i.png,images/cb_i.png,,,,,,,,,,,,,,,,,,,,,,,,,
,,,,,,00086,2023-10-23_18h56.28.862,vbt_B1_day1,2022.2.4,Win32,60.10337781,,,,,,,,,,,,,,,,,,,0.098148176,-0.100925954,1,0,0,0.7845,5,6,136,0,1,a,images/br_a.png,images/cb_a.png,,,,,,,,,,,,,,,,,,,,,,,,,
,,,,,,00086,2023-10-23_18h56.28.862,vbt_B1_day1,2022.2.4,Win32,60.10337781,,,,,,,,,,,,,,,,,,,0.098148176,-0.100925954,1,0,0,2.0015,5,7,137,20,1,u,images/br_u.png,images/cb_u.png,,,,,,,,,,,,,,,,,,,,,,,,,
,,,,,,00086,2023-10-23_18h56.28.862,vbt_B1_day1,2022.2.4,Win32,60.10337781,,,,,,,,,,,,,,,,,,,0.098148176,-0.100925954,1,0,0,0.5682,5,8,138,17,1,r,images/br_r.png,images/cb_r.png,,,,,,,,,,,,,,,,,,,,,,,,,
,,,,,,00086,2023-10-23_18h56.28.862,vbt_B1_day1,2022.2.4,Win32,60.10337781,,,,,,,,,,,,,,,,,,,0.098148176,-0.100925954,1,0,0,1.4855,5,9,139,23,1,x,images/br_x.png,images/cb_x.png,,,,,,,,,,,,,,,,,,,,,,,,,
,,,,,,00086,2023-10-23_18h56.28.862,vbt_B1_day1,2022.2.4,Win32,60.10337781,,,,,,,,,,,,,,,,,,,0.098148176,-0.100925954,1,0,0,1.4374,5,10,140,2,1,c,images/br_c.png,images/cb_c.png,,,,,,,,,,,,,,,,,,,,,,,,,
,,,,,,00086,2023-10-23_18h56.28.862,vbt_B1_day1,2022.2.4,Win32,60.10337781,,,,,,,,,,,,,,,,,,,0.098148176,-0.100925954,1,0,0,1.6024,5,11,141,18,1,s,images/br_s.png,images/cb_s.png,,,,,,,,,,,,,,,,,,,,,,,,,
,,,,,,00086,2023-10-23_18h56.28.862,vbt_B1_day1,2022.2.4,Win32,60.10337781,,,,,,,,,,,,,,,,,,,0.098148176,-0.100925954,1,0,0,1.2679,5,12,142,25,1,z,images/br_z.png,images/cb_z.png,,,,,,,,,,,,,,,,,,,,,,,,,
,,,,,,00086,2023-10-23_18h56.28.862,vbt_B1_day1,2022.2.4,Win32,60.10337781,,,,,,,,,,,,,,,,,,,0.108333333,-0.100925954,1,0,0,5.8367,5,13,143,16,1,q,images/br_q.png,images/cb_q.png,,,,,,,,,,,,,,,,,,,,,,,,,
,,,,,,00086,2023-10-23_18h56.28.862,vbt_B1_day1,2022.2.4,Win32,60.10337781,,,,,,,,,,,,,,,,,,,0.108333333,-0.100925954,1,0,0,0.6525,5,14,144,5,1,f,images/br_f.png,images/cb_f.png,,,,,,,,,,,,,,,,,,,,,,,,,
,,,,,,00086,2023-10-23_18h56.28.862,vbt_B1_day1,2022.2.4,Win32,60.10337781,,,,,,,,,,,,,,,,,,,0.108333333,-0.100925954,1,0,0,1.2028,5,15,145,1,1,b,images/br_b.png,images/cb_b.png,,,,,,,,,,,,,,,,,,,,,,,,,
,,,,,,00086,2023-10-23_18h56.28.862,vbt_B1_day1,2022.2.4,Win32,60.10337781,,,,,,,,,,,,,,,,,,,0.108333333,-0.100925954,1,0,0,5.285,5,16,146,4,1,e,images/br_e.png,images/cb_e.png,,,,,,,,,,,,,,,,,,,,,,,,,
,,,,,,00086,2023-10-23_18h56.28.862,vbt_B1_day1,2022.2.4,Win32,60.10337781,,,,,,,,,,,,,,,,,,,0.108333333,-0.100925954,1,0,0,2.1011,5,17,147,6,1,g,images/br_g.png,images/cb_g.png,,,,,,,,,,,,,,,,,,,,,,,,,
,,,,,,00086,2023-10-23_18h56.28.862,vbt_B1_day1,2022.2.4,Win32,60.10337781,,,,,,,,,,,,,,,,,,,0.108333333,-0.100925954,1,0,0,3.4696,5,18,148,14,1,o,images/br_o.png,images/cb_o.png,,,,,,,,,,,,,,,,,,,,,,,,,
,,,,,,00086,2023-10-23_18h56.28.862,vbt_B1_day1,2022.2.4,Win32,60.10337781,,,,,,,,,,,,,,,,,,,0.108333333,-0.100925954,1,0,0,0.8014,5,19,149,11,1,l,images/br_l.png,images/cb_l.png,,,,,,,,,,,,,,,,,,,,,,,,,
,,,,,,00086,2023-10-23_18h56.28.862,vbt_B1_day1,2022.2.4,Win32,60.10337781,,,,,,,,,,,,,,,,,,,0.108333333,-0.100925954,1,0,0,3.1509,5,20,150,10,1,k,images/br_k.png,images/cb_k.png,,,,,,,,,,,,,,,,,,,,,,,,,
,,,,,,00086,2023-10-23_18h56.28.862,vbt_B1_day1,2022.2.4,Win32,60.10337781,,,,,,,,,,,,,,,,,,,0.108333333,-0.100925954,1,0,0,0.4688,5,21,151,15,1,p,images/br_p.png,images/cb_p.png,,,,,,,,,,,,,,,,,,,,,,,,,
,,,,,,00086,2023-10-23_18h56.28.862,vbt_B1_day1,2022.2.4,Win32,60.10337781,,,,,,,,,,,,,,,,,,,0.108333333,-0.100925954,1,0,0,0.6691,5,22,152,13,1,n,images/br_n.png,images/cb_n.png,,,,,,,,,,,,,,,,,,,,,,,,,
,,,,,,00086,2023-10-23_18h56.28.862,vbt_B1_day1,2022.2.4,Win32,60.10337781,,,,,,,,,,,,,,,,,,,0.108333333,-0.100925954,1,0,0,3.2225,5,23,153,9,1,j,images/br_j.png,images/cb_j.png,,,,,,,,,,,,,,,,,,,,,,,,,
,,,,,,00086,2023-10-23_18h56.28.862,vbt_B1_day1,2022.2.4,Win32,60.10337781,,,,,,,,,,,,,,,,,,,0.108333333,-0.100925954,1,0,0,1.7709,5,24,154,7,1,h,images/br_h.png,images/cb_h.png,,,,,,,,,,,,,,,,,,,,,,,,,
,,,,,,00086,2023-10-23_18h56.28.862,vbt_B1_day1,2022.2.4,Win32,60.10337781,,,,,,,,,,,,,,,,,,,0.108333333,-0.100925954,1,0,0,0.3855,5,25,155,22,1,w,images/br_w.png,images/cb_w.png,,,,,,,,,,,,,,,,,,,,,,,,,
,,,,,,00086,2023-10-23_18h56.28.862,vbt_B1_day1,2022.2.4,Win32,60.10337781,,,,,,,,,,,,,,,,,,,0.108333333,-0.100925954,1,0,0,0.636,6,0,156,1,1,b,images/br_b.png,images/cb_b.png,,,,,,,,,,,,,,,,,,,,,,,,,
,,,,,,00086,2023-10-23_18h56.28.862,vbt_B1_day1,2022.2.4,Win32,60.10337781,,,,,,,,,,,,,,,,,,,0.108333333,-0.100925954,1,0,0,0.8183,6,1,157,6,1,g,images/br_g.png,images/cb_g.png,,,,,,,,,,,,,,,,,,,,,,,,,
,,,,,,00086,2023-10-23_18h56.28.862,vbt_B1_day1,2022.2.4,Win32,60.10337781,,,,,,,,,,,,,,,,,,,0.108333333,-0.100925954,1,0,0,1.0521,6,2,158,15,1,p,images/br_p.png,images/cb_p.png,,,,,,,,,,,,,,,,,,,,,,,,,
,,,,,,00086,2023-10-23_18h56.28.862,vbt_B1_day1,2022.2.4,Win32,60.10337781,,,,,,,,,,,,,,,,,,,0.108333333,-0.100925954,1,0,0,2.5189,6,3,159,5,1,f,images/br_f.png,images/cb_f.png,,,,,,,,,,,,,,,,,,,,,,,,,
,,,,,,00086,2023-10-23_18h56.28.862,vbt_B1_day1,2022.2.4,Win32,60.10337781,,,,,,,,,,,,,,,,,,,0.108333333,-0.100925954,1,0,0,1.7678,6,4,160,20,1,u,images/br_u.png,images/cb_u.png,,,,,,,,,,,,,,,,,,,,,,,,,
,,,,,,00086,2023-10-23_18h56.28.862,vbt_B1_day1,2022.2.4,Win32,60.10337781,,,,,,,,,,,,,,,,,,,0.108333333,-0.100925954,1,0,0,0.9686,6,5,161,22,1,w,images/br_w.png,images/cb_w.png,,,,,,,,,,,,,,,,,,,,,,,,,
,,,,,,00086,2023-10-23_18h56.28.862,vbt_B1_day1,2022.2.4,Win32,60.10337781,,,,,,,,,,,,,,,,,,,0.108333333,-0.100925954,1,0,0,3.6358,6,6,162,23,1,x,images/br_x.png,images/cb_x.png,,,,,,,,,,,,,,,,,,,,,,,,,
,,,,,,00086,2023-10-23_18h56.28.862,vbt_B1_day1,2022.2.4,Win32,60.10337781,,,,,,,,,,,,,,,,,,,0.108333333,-0.100925954,1,0,0,2.6707,6,7,163,12,1,m,images/br_m.png,images/cb_m.png,,,,,,,,,,,,,,,,,,,,,,,,,
,,,,,,00086,2023-10-23_18h56.28.862,vbt_B1_day1,2022.2.4,Win32,60.10337781,,,,,,,,,,,,,,,,,,,0.108333333,-0.100925954,1,0,0,0.1842,6,8,164,4,1,e,images/br_e.png,images/cb_e.png,,,,,,,,,,,,,,,,,,,,,,,,,
,,,,,,00086,2023-10-23_18h56.28.862,vbt_B1_day1,2022.2.4,Win32,60.10337781,,,,,,,,,,,,,,,,,,,0.108333333,-0.100925954,1,0,0,0.7219,6,9,165,11,1,l,images/br_l.png,images/cb_l.png,,,,,,,,,,,,,,,,,,,,,,,,,
,,,,,,00086,2023-10-23_18h56.28.862,vbt_B1_day1,2022.2.4,Win32,60.10337781,,,,,,,,,,,,,,,,,,,0.108333333,-0.100925954,1,0,0,0.7688,6,10,166,18,1,s,images/br_s.png,images/cb_s.png,,,,,,,,,,,,,,,,,,,,,,,,,
,,,,,,00086,2023-10-23_18h56.28.862,vbt_B1_day1,2022.2.4,Win32,60.10337781,,,,,,,,,,,,,,,,,,,0.108333333,-0.100925954,1,0,0,0.5339,6,11,167,0,1,a,images/br_a.png,images/cb_a.png,,,,,,,,,,,,,,,,,,,,,,,,,
,,,,,,00086,2023-10-23_18h56.28.862,vbt_B1_day1,2022.2.4,Win32,60.10337781,,,,,,,,,,,,,,,,,,,0.108333333,-0.100925954,1,0,0,3.2171,6,12,168,9,1,j,images/br_j.png,images/cb_j.png,,,,,,,,,,,,,,,,,,,,,,,,,
,,,,,,00086,2023-10-23_18h56.28.862,vbt_B1_day1,2022.2.4,Win32,60.10337781,,,,,,,,,,,,,,,,,,,0.108333333,-0.100925954,1,0,0,6.1515,6,13,169,7,1,h,images/br_h.png,images/cb_h.png,,,,,,,,,,,,,,,,,,,,,,,,,
,,,,,,00086,2023-10-23_18h56.28.862,vbt_B1_day1,2022.2.4,Win32,60.10337781,,,,,,,,,,,,,,,,,,,0.108333333,-0.100925954,1,0,0,0.7881,6,14,170,17,1,r,images/br_r.png,images/cb_r.png,,,,,,,,,,,,,,,,,,,,,,,,,
,,,,,,00086,2023-10-23_18h56.28.862,vbt_B1_day1,2022.2.4,Win32,60.10337781,,,,,,,,,,,,,,,,,,,0.108333333,-0.100925954,1,0,0,2.1686,6,15,171,13,1,n,images/br_n.png,images/cb_n.png,,,,,,,,,,,,,,,,,,,,,,,,,
,,,,,,00086,2023-10-23_18h56.28.862,vbt_B1_day1,2022.2.4,Win32,60.10337781,,,,,,,,,,,,,,,,,,,0.108333333,-0.100925954,1,0,0,1.5015,6,16,172,8,1,i,images/br_i.png,images/cb_i.png,,,,,,,,,,,,,,,,,,,,,,,,,
,,,,,,00086,2023-10-23_18h56.28.862,vbt_B1_day1,2022.2.4,Win32,60.10337781,,,,,,,,,,,,,,,,,,,0.108333333,-0.100925954,1,0,0,1.0687,6,17,173,24,1,y,images/br_y.png,images/cb_y.png,,,,,,,,,,,,,,,,,,,,,,,,,
,,,,,,00086,2023-10-23_18h56.28.862,vbt_B1_day1,2022.2.4,Win32,60.10337781,,,,,,,,,,,,,,,,,,,0.108333333,-0.100925954,1,0,0,0.8182,6,18,174,19,1,t,images/br_t.png,images/cb_t.png,,,,,,,,,,,,,,,,,,,,,,,,,
,,,,,,00086,2023-10-23_18h56.28.862,vbt_B1_day1,2022.2.4,Win32,60.10337781,,,,,,,,,,,,,,,,,,,0.108333333,-0.100925954,1,0,0,0.8712,6,19,175,14,1,o,images/br_o.png,images/cb_o.png,,,,,,,,,,,,,,,,,,,,,,,,,
,,,,,,00086,2023-10-23_18h56.28.862,vbt_B1_day1,2022.2.4,Win32,60.10337781,,,,,,,,,,,,,,,,,,,0.108333333,-0.100925954,1,0,0,7.1175,6,20,176,16,1,q,images/br_q.png,images/cb_q.png,,,,,,,,,,,,,,,,,,,,,,,,,
,,,,,,00086,2023-10-23_18h56.28.862,vbt_B1_day1,2022.2.4,Win32,60.10337781,,,,,,,,,,,,,,,,,,,0.108333333,-0.100925954,1,0,0,7.9666,6,21,177,2,1,c,images/br_c.png,images/cb_c.png,,,,,,,,,,,,,,,,,,,,,,,,,
,,,,,,00086,2023-10-23_18h56.28.862,vbt_B1_day1,2022.2.4,Win32,60.10337781,,,,,,,,,,,,,,,,,,,0.108333333,-0.100925954,1,0,0,4.4352,6,22,178,3,1,d,images/br_d.png,images/cb_d.png,,,,,,,,,,,,,,,,,,,,,,,,,
,,,,,,00086,2023-10-23_18h56.28.862,vbt_B1_day1,2022.2.4,Win32,60.10337781,,,,,,,,,,,,,,,,,,,0.108333333,-0.100925954,1,0,0,1.2187,6,23,179,25,1,z,images/br_z.png,images/cb_z.png,,,,,,,,,,,,,,,,,,,,,,,,,
,,,,,,00086,2023-10-23_18h56.28.862,vbt_B1_day1,2022.2.4,Win32,60.10337781,,,,,,,,,,,,,,,,,,,0.108333333,-0.100925954,1,0,0,0.0347,6,24,180,21,1,v,images/br_v.png,images/cb_v.png,,,,,,,,,,,,,,,,,,,,,,,,,
,,,,,,00086,2023-10-23_18h56.28.862,vbt_B1_day1,2022.2.4,Win32,60.10337781,,,,,,,,,,,,,,,,,,,0.108333333,-0.055555556,1,0,0,3.2883,6,25,181,10,1,k,images/br_k.png,images/cb_k.png,,,,,,,,,,,,,,,,,,,,,,,,,
,,,,,,00086,2023-10-23_18h56.28.862,vbt_B1_day1,2022.2.4,Win32,60.10337781,,,,,,,,,,,,,,,,,,,,,,,,,,,,,,,,,-0.035185157,0.038888889,1,0,0,,,,,,,,,,,,,,,,,,,,
,,,,,,00086,2023-10-23_18h56.28.862,vbt_B1_day1,2022.2.4,Win32,60.10337781,,,,,,,,,,,,,,,,,,,,,,,,,,,,,,,,,,,,,,-0.04351849,-0.060185199,1,0,0,,,,,,,,,,,,,,,
,,,,,,00086,2023-10-23_18h56.28.862,vbt_B1_day1,2022.2.4,Win32,60.10337781,,,,,,,,,,,,,,,,,,,,,,,,,,,,,,,,,,,,,,,,,,,-0.04351849,-0.060185199,1,0,0,lo....,lo....,0,0,0,34,1,lochten,images/br_lochten.png,images/cb_lochten.png
,,,,,,00086,2023-10-23_18h56.28.862,vbt_B1_day1,2022.2.4,Win32,60.10337781,,,,,,,,,,,,,,,,,,,,,,,,,,,,,,,,,,,,,,,,,,,-0.208333333,-0.044444444,1,0,0,...zg,...zg,0,1,1,11,1,mening,images/br_mening.png,images/cb_mening.png
,,,,,,00086,2023-10-23_18h56.28.862,vbt_B1_day1,2022.2.4,Win32,60.10337781,,,,,,,,,,,,,,,,,,,,,,,,,,,,,,,,,,,,,,,,,,,-0.191666667,-0.062962977,1,0,0,kan..,kan..,0,2,2,8,1,kanjer,images/br_kanjer.png,images/cb_kanjer.png
,,,,,,00086,2023-10-23_18h56.28.862,vbt_B1_day1,2022.2.4,Win32,60.10337781,,,,,,,,,,,,,,,,,,,,,,,,,,,,,,,,,,,,,,,,,,,-0.501851824,-0.044444444,1,0,0,gino..,gino..,0,3,3,29,1,genond,images/br_genond.png,images/cb_genond.png
,,,,,,00086,2023-10-23_18h56.28.862,vbt_B1_day1,2022.2.4,Win32,60.10337781,,,,,,,,,,,,,,,,,,,,,,,,,,,,,,,,,,,,,,,,,,,-0.26851849,-0.222222222,1,0,0,.rri,.rri,0,4,4,1,1,zaal,images/br_zaal.png,images/cb_zaal.png
,,,,,,00086,2023-10-23_18h56.28.862,vbt_B1_day1,2022.2.4,Win32,60.10337781,,,,,,,,,,,,,,,,,,,,,,,,,,,,,,,,,,,,,,,,,,,-0.055555556,-0.08148151,1,0,0,opplaa.,opplaa.,0,5,5,32,1,opplaan,images/br_opplaan.png,images/cb_opplaan.png
,,,,,,00086,2023-10-23_18h56.28.862,vbt_B1_day1,2022.2.4,Win32,60.10337781,,,,,,,,,,,,,,,,,,,,,,,,,,,,,,,,,,,,,,,,,,,-0.254629601,0.006481467,1,0,0,.een...,.een...,0,6,6,57,1,meenemen,images/br_meenemen.png,images/cb_meenemen.png
,,,,,,00086,2023-10-23_18h56.28.862,vbt_B1_day1,2022.2.4,Win32,60.10337781,,,,,,,,,,,,,,,,,,,,,,,,,,,,,,,,,,,,,,,,,,,-0.195370356,-0.04629631,1,0,0,n.oi,n.oi,0,7,7,22,1,knoe,images/br_knoe.png,images/cb_knoe.png
,,,,,,00086,2023-10-23_18h56.28.862,vbt_B1_day1,2022.2.4,Win32,60.10337781,,,,,,,,,,,,,,,,,,,,,,,,,,,,,,,,,,,,,,,,,,,-0.078703647,-0.059259288,1,0,0,.oor....,.oor....,0,8,8,58,1,voorkeur,images/br_voorkeur.png,images/cb_voorkeur.png
,,,,,,00086,2023-10-23_18h56.28.862,vbt_B1_day1,2022.2.4,Win32,60.10337781,,,,,,,,,,,,,,,,,,,,,,,,,,,,,,,,,,,,,,,,,,,-0.224074046,-0.104629644,1,0,0,voorr....,voorr....,0,9,9,39,1,voorreur,images/br_voorreur.png,images/cb_voorreur.png
,,,,,,00086,2023-10-23_18h56.28.862,vbt_B1_day1,2022.2.4,Win32,60.10337781,,,,,,,,,,,,,,,,,,,,,,,,,,,,,,,,,,,,,,,,,,,-0.215740712,-0.075925954,1,0,0,...ip,...ip,0,10,10,4,1,schep,images/br_schep.png,images/cb_schep.png
,,,,,,00086,2023-10-23_18h56.28.862,vbt_B1_day1,2022.2.4,Win32,60.10337781,,,,,,,,,,,,,,,,,,,,,,,,,,,,,,,,,,,,,,,,,,,-0.072222222,-0.055555556,1,0,0,.r.es,.r.es,0,11,11,5,1,maken,images/br_maken.png,images/cb_maken.png
,,,,,,00086,2023-10-23_18h56.28.862,vbt_B1_day1,2022.2.4,Win32,60.10337781,,,,,,,,,,,,,,,,,,,,,,,,,,,,,,,,,,,,,,,,,,,-0.298148134,-0.078703732,1,0,0,.aar....,.aar....,0,12,12,14,1,waarvan,images/br_waarvan.png,images/cb_waarvan.png
,,,,,,00086,2023-10-23_18h56.28.862,vbt_B1_day1,2022.2.4,Win32,60.10337781,,,,,,,,,,,,,,,,,,,,,,,,,,,,,,,,,,,,,,,,,,,-0.091666667,0.00370369,1,0,0,bleek,bleek,0,13,13,6,1,bleek,images/br_bleek.png,images/cb_bleek.png
,,,,,,00086,2023-10-23_18h56.28.862,vbt_B1_day1,2022.2.4,Win32,60.10337781,,,,,,,,,,,,,,,,,,,,,,,,,,,,,,,,,,,,,,,,,,,-0.280555556,-0.104629644,1,0,0,t.....l,t.....l,0,14,14,13,1,twijfel,images/br_twijfel.png,images/cb_twijfel.png
,,,,,,00086,2023-10-23_18h56.28.862,vbt_B1_day1,2022.2.4,Win32,60.10337781,,,,,,,,,,,,,,,,,,,,,,,,,,,,,,,,,,,,,,,,,,,0.013888889,-0.053703732,1,0,0,hoog,hoog,0,15,15,41,1,hoog,images/br_hoog.png,images/cb_hoog.png
,,,,,,00086,2023-10-23_18h56.28.862,vbt_B1_day1,2022.2.4,Win32,60.10337781,,,,,,,,,,,,,,,,,,,,,,,,,,,,,,,,,,,,,,,,,,,-0.164814758,-0.076851866,1,0,0,loo..,loo..,0,16,16,47,1,loods,images/br_loods.png,images/cb_loods.png
,,,,,,00086,2023-10-23_18h56.28.862,vbt_B1_day1,2022.2.4,Win32,60.10337781,,,,,,,,,,,,,,,,,,,,,,,,,,,,,,,,,,,,,,,,,,,-0.090740712,-0.053703732,1,0,0,btij.,btij.,0,17,17,25,1,brijk,images/br_brijk.png,images/cb_brijk.png
,,,,,,00086,2023-10-23_18h56.28.862,vbt_B1_day1,2022.2.4,Win32,60.10337781,,,,,,,,,,,,,,,,,,,,,,,,,,,,,,,,,,,,,,,,,,,-0.173148092,-0.057407422,1,0,0,..bb..,..bb..,0,18,18,9,1,dubbel,images/br_dubbel.png,images/cb_dubbel.png
,,,,,,00086,2023-10-23_18h56.28.862,vbt_B1_day1,2022.2.4,Win32,60.10337781,,,,,,,,,,,,,,,,,,,,,,,,,,,,,,,,,,,,,,,,,,,-0.125,-0.025,1,0,0,..z...,..z...,0,19,19,10,1,muziek,images/br_muziek.png,images/cb_muziek.png
,,,,,,00086,2023-10-23_18h56.28.862,vbt_B1_day1,2022.2.4,Win32,60.10337781,,,,,,,,,,,,,,,,,,,,,,,,,,,,,,,,,,,,,,,,,,,-0.295370356,-0.088888889,1,0,0,.l..,.l..,0,20,20,0,1,slak,images/br_slak.png,images/cb_slak.png
,,,,,,00086,2023-10-23_18h56.28.862,vbt_B1_day1,2022.2.4,Win32,60.10337781,,,,,,,,,,,,,,,,,,,,,,,,,,,,,,,,,,,,,,,,,,,-0.122222222,-0.014814843,1,0,0,.ti.,.ti.,0,21,21,21,1,dred,images/br_dred.png,images/cb_dred.png
,,,,,,00086,2023-10-23_18h56.28.862,vbt_B1_day1,2022.2.4,Win32,60.10337781,,,,,,,,,,,,,,,,,,,,,,,,,,,,,,,,,,,,,,,,,,,-0.141666667,-0.100925954,1,0,0,r.....,r.....,0,22,22,30,1,reedje,images/br_reedje.png,images/cb_reedje.png
,,,,,,00086,2023-10-23_18h56.28.862,vbt_B1_day1,2022.2.4,Win32,60.10337781,,,,,,,,,,,,,,,,,,,,,,,,,,,,,,,,,,,,,,,,,,,-0.205555556,0.015740712,1,0,0,l.....,l.....,0,23,23,7,1,klauw,images/br_klauw.png,images/cb_klauw.png
,,,,,,00086,2023-10-23_18h56.28.862,vbt_B1_day1,2022.2.4,Win32,60.10337781,,,,,,,,,,,,,,,,,,,,,,,,,,,,,,,,,,,,,,,,,,,-0.217592578,-0.122222222,1,0,0,.....z.,.....z.,0,24,24,44,1,wijze,images/br_wijze.png,images/cb_wijze.png
,,,,,,00086,2023-10-23_18h56.28.862,vbt_B1_day1,2022.2.4,Win32,60.10337781,,,,,,,,,,,,,,,,,,,,,,,,,,,,,,,,,,,,,,,,,,,-0.163888889,-0.002777778,1,0,0,teken.n,teken.n,0,25,25,55,1,tekenen,images/br_tekenen.png,images/cb_tekenen.png
,,,,,,00086,2023-10-23_18h56.28.862,vbt_B1_day1,2022.2.4,Win32,60.10337781,,,,,,,,,,,,,,,,,,,,,,,,,,,,,,,,,,,,,,,,,,,-0.123148092,-0.039814843,1,0,0,.a..,.a..,0,26,26,3,1,mand,images/br_mand.png,images/cb_mand.png
,,,,,,00086,2023-10-23_18h56.28.862,vbt_B1_day1,2022.2.4,Win32,60.10337781,,,,,,,,,,,,,,,,,,,,,,,,,,,,,,,,,,,,,,,,,,,-0.175,-0.004629644,1,0,0,booi,booi,0,27,27,23,1,booi,images/br_booi.png,images/cb_booi.png
,,,,,,00086,2023-10-23_18h56.28.862,vbt_B1_day1,2022.2.4,Win32,60.10337781,,,,,,,,,,,,,,,,,,,,,,,,,,,,,,,,,,,,,,,,,,,-0.229629601,-0.095370399,1,0,0,.aar....,.aar....,0,28,28,16,1,daarheen,images/br_daarheen.png,images/cb_daarheen.png
,,,,,,00086,2023-10-23_18h56.28.862,vbt_B1_day1,2022.2.4,Win32,60.10337781,,,,,,,,,,,,,,,,,,,,,,,,,,,,,,,,,,,,,,,,,,,-0.170370314,-0.011111111,1,0,0,.......g,.......g,0,29,29,37,1,spanzing,images/br_spanzing.png,images/cb_spanzing.png
,,,,,,00086,2023-10-23_18h56.28.862,vbt_B1_day1,2022.2.4,Win32,60.10337781,,,,,,,,,,,,,,,,,,,,,,,,,,,,,,,,,,,,,,,,,,,-0.421296268,0.081481467,1,0,0,l.......,l.......,0,30,30,51,1,liefde,images/br_liefde.png,images/cb_liefde.png
,,,,,,00086,2023-10-23_18h56.28.862,vbt_B1_day1,2022.2.4,Win32,60.10337781,,,,,,,,,,,,,,,,,,,,,,,,,,,,,,,,,,,,,,,,,,,-0.096296268,-0.087037065,1,0,0,opvat....,opvat....,0,31,31,59,1,opvatten,images/br_opvatten.png,images/cb_opvatten.png
,,,,,,00086,2023-10-23_18h56.28.862,vbt_B1_day1,2022.2.4,Win32,60.10337781,,,,,,,,,,,,,,,,,,,,,,,,,,,,,,,,,,,,,,,,,,,-0.088888889,-0.089814843,1,0,0,.t..,.t..,0,32,32,42,1,stuk,images/br_stuk.png,images/cb_stuk.png
,,,,,,00086,2023-10-23_18h56.28.862,vbt_B1_day1,2022.2.4,Win32,60.10337781,,,,,,,,,,,,,,,,,,,,,,,,,,,,,,,,,,,,,,,,,,,-0.037962935,-0.070370399,1,0,0,bebr..,bebr..,0,33,33,28,1,bebrip,images/br_bebrip.png,images/cb_bebrip.png
,,,,,,00086,2023-10-23_18h56.28.862,vbt_B1_day1,2022.2.4,Win32,60.10337781,,,,,,,,,,,,,,,,,,,,,,,,,,,,,,,,,,,,,,,,,,,-0.146296268,0.006481467,1,0,0,.........,.........,0,34,34,12,1,klimmen,images/br_klimmen.png,images/cb_klimmen.png
,,,,,,00086,2023-10-23_18h56.28.862,vbt_B1_day1,2022.2.4,Win32,60.10337781,,,,,,,,,,,,,,,,,,,,,,,,,,,,,,,,,,,,,,,,,,,-0.069444444,-0.004629644,1,0,0,lava,lava,0,35,35,43,1,lava,images/br_lava.png,images/cb_lava.png
,,,,,,00086,2023-10-23_18h56.28.862,vbt_B1_day1,2022.2.4,Win32,60.10337781,,,,,,,,,,,,,,,,,,,,,,,,,,,,,,,,,,,,,,,,,,,-0.061111111,-0.001851866,1,0,0,lezez,lezez,0,36,36,46,1,lezen,images/br_lezen.png,images/cb_lezen.png
,,,,,,00086,2023-10-23_18h56.28.862,vbt_B1_day1,2022.2.4,Win32,60.10337781,,,,,,,,,,,,,,,,,,,,,,,,,,,,,,,,,,,,,,,,,,,-0.220370356,-0.041666667,1,0,0,att......,att......,0,37,37,17,1,attentie,images/br_attentie.png,images/cb_attentie.png
,,,,,,00086,2023-10-23_18h56.28.862,vbt_B1_day1,2022.2.4,Win32,60.10337781,,,,,,,,,,,,,,,,,,,,,,,,,,,,,,,,,,,,,,,,,,,-0.112036981,-0.037962977,1,0,0,sc......,sc......,0,38,38,19,1,schuilen,images/br_schuilen.png,images/cb_schuilen.png
,,,,,,00086,2023-10-23_18h56.28.862,vbt_B1_day1,2022.2.4,Win32,60.10337781,,,,,,,,,,,,,,,,,,,,,,,,,,,,,,,,,,,,,,,,,,,-0.072222222,-0.039814843,1,0,0,valop,valop,0,39,39,26,1,valop,images/br_valop.png,images/cb_valop.png
,,,,,,00086,2023-10-23_18h56.28.862,vbt_B1_day1,2022.2.4,Win32,60.10337781,,,,,,,,,,,,,,,,,,,,,,,,,,,,,,,,,,,,,,,,,,,-0.154629601,-0.030555556,1,0,0,.ei.,.ei.,0,40,40,40,1,dief,images/br_dief.png,images/cb_dief.png
,,,,,,00086,2023-10-23_18h56.28.862,vbt_B1_day1,2022.2.4,Win32,60.10337781,,,,,,,,,,,,,,,,,,,,,,,,,,,,,,,,,,,,,,,,,,,-0.352777778,-0.15,1,0,0,....tv.....,....tv.....,0,41,41,15,1,hiervan,images/br_hiervan.png,images/cb_hiervan.png
,,,,,,00086,2023-10-23_18h56.28.862,vbt_B1_day1,2022.2.4,Win32,60.10337781,,,,,,,,,,,,,,,,,,,,,,,,,,,,,,,,,,,,,,,,,,,-0.219444444,-0.161111111,1,0,0,..t..l..,..t..l..,0,42,42,18,1,uitdelen,images/br_uitdelen.png,images/cb_uitdelen.png
,,,,,,00086,2023-10-23_18h56.28.862,vbt_B1_day1,2022.2.4,Win32,60.10337781,,,,,,,,,,,,,,,,,,,,,,,,,,,,,,,,,,,,,,,,,,,-0.075,-0.065740755,1,0,0,v.etva....,v.etva....,0,43,43,36,1,vervaden,images/br_vervaden.png,images/cb_vervaden.png
,,,,,,00086,2023-10-23_18h56.28.862,vbt_B1_day1,2022.2.4,Win32,60.10337781,,,,,,,,,,,,,,,,,,,,,,,,,,,,,,,,,,,,,,,,,,,-0.012036981,-0.038888889,1,0,0,.l.ll.....,.l.ll.....,0,44,44,33,1,flullen,images/br_flullen.png,images/cb_flullen.png
,,,,,,00086,2023-10-23_18h56.28.862,vbt_B1_day1,2022.2.4,Win32,60.10337781,,,,,,,,,,,,,,,,,,,,,,,,,,,,,,,,,,,,,,,,,,,-0.117592536,-0.034259288,1,0,0,v.z......,v.z......,0,45,45,49,1,vizier,images/br_vizier.png,images/cb_vizier.png
,,,,,,00086,2023-10-23_18h56.28.862,vbt_B1_day1,2022.2.4,Win32,60.10337781,,,,,,,,,,,,,,,,,,,,,,,,,,,,,,,,,,,,,,,,,,,-0.052777778,-0.09629631,1,0,0,sta...,sta...,0,46,46,31,1,stamen,images/br_stamen.png,images/cb_stamen.png
,,,,,,00086,2023-10-23_18h56.28.862,vbt_B1_day1,2022.2.4,Win32,60.10337781,,,,,,,,,,,,,,,,,,,,,,,,,,,,,,,,,,,,,,,,,,,-0.166666667,-0.039814843,1,0,0,...t..,...t..,0,47,47,48,1,fictie,images/br_fictie.png,images/cb_fictie.png
,,,,,,00086,2023-10-23_18h56.28.862,vbt_B1_day1,2022.2.4,Win32,60.10337781,,,,,,,,,,,,,,,,,,,,,,,,,,,,,,,,,,,,,,,,,,,-0.220370356,-0.099074088,1,0,0,to.........t,to.........t,0,48,48,56,1,toezicht,images/br_toezicht.png,images/cb_toezicht.png
,,,,,,00086,2023-10-23_18h56.28.862,vbt_B1_day1,2022.2.4,Win32,60.10337781,,,,,,,,,,,,,,,,,,,,,,,,,,,,,,,,,,,,,,,,,,,0.066666667,0.065740712,1,0,0,jaar,jaar,0,49,49,2,1,jaar,images/br_jaar.png,images/cb_jaar.png
,,,,,,00086,2023-10-23_18h56.28.862,vbt_B1_day1,2022.2.4,Win32,60.10337781,,,,,,,,,,,,,,,,,,,,,,,,,,,,,,,,,,,,,,,,,,,-0.120370314,0.025,1,0,0,z........,z........,0,50,50,52,1,zuiplap,images/br_zuiplap.png,images/cb_zuiplap.png
,,,,,,00086,2023-10-23_18h56.28.862,vbt_B1_day1,2022.2.4,Win32,60.10337781,,,,,,,,,,,,,,,,,,,,,,,,,,,,,,,,,,,,,,,,,,,-0.037962935,-0.059259288,1,0,0,pror.,pror.,0,51,51,27,1,prort,images/br_prort.png,images/cb_prort.png
,,,,,,00086,2023-10-23_18h56.28.862,vbt_B1_day1,2022.2.4,Win32,60.10337781,,,,,,,,,,,,,,,,,,,,,,,,,,,,,,,,,,,,,,,,,,,0.050925954,0.037962935,1,0,0,opl.aa.,opl.aa.,0,52,52,53,1,opslaan,images/br_opslaan.png,images/cb_opslaan.png
,,,,,,00086,2023-10-23_18h56.28.862,vbt_B1_day1,2022.2.4,Win32,60.10337781,,,,,,,,,,,,,,,,,,,,,,,,,,,,,,,,,,,,,,,,,,,-0.352777778,-0.080555556,1,0,0,r.z..,r.z..,0,53,53,24,1,rezer,images/br_rezer.png,images/cb_rezer.png
,,,,,,00086,2023-10-23_18h56.28.862,vbt_B1_day1,2022.2.4,Win32,60.10337781,,,,,,,,,,,,,,,,,,,,,,,,,,,,,,,,,,,,,,,,,,,-0.084259203,-0.063888889,1,0,0,....l,....l,0,54,54,45,1,hemel,images/br_hemel.png,images/cb_hemel.png
,,,,,,00086,2023-10-23_18h56.28.862,vbt_B1_day1,2022.2.4,Win32,60.10337781,,,,,,,,,,,,,,,,,,,,,,,,,,,,,,,,,,,,,,,,,,,-0.035185157,0.027777778,1,0,0,l..g.n,l..g.n,0,55,55,50,1,liegen,images/br_liegen.png,images/cb_liegen.png
,,,,,,00086,2023-10-23_18h56.28.862,vbt_B1_day1,2022.2.4,Win32,60.10337781,,,,,,,,,,,,,,,,,,,,,,,,,,,,,,,,,,,,,,,,,,,-0.009259203,-0.025925954,1,0,0,tar.,tar.,0,56,56,20,1,tars,images/br_tars.png,images/cb_tars.png
,,,,,,00086,2023-10-23_18h56.28.862,vbt_B1_day1,2022.2.4,Win32,60.10337781,,,,,,,,,,,,,,,,,,,,,,,,,,,,,,,,,,,,,,,,,,,-0.231481467,-0.094444444,1,0,0,s......,s......,0,57,57,38,1,schielen,images/br_schielen.png,images/cb_schielen.png
,,,,,,00086,2023-10-23_18h56.28.862,vbt_B1_day1,2022.2.4,Win32,60.10337781,,,,,,,,,,,,,,,,,,,,,,,,,,,,,,,,,,,,,,,,,,,-0.01851849,-0.042592621,1,0,0,v.j.t....,v.j.t....,0,58,58,54,1,vijftig,images/br_vijftig.png,images/cb_vijftig.png
,,,,,,00086,2023-10-23_18h56.28.862,vbt_B1_day1,2022.2.4,Win32,60.10337781,,,,,,,,,,,,,,,,,,,,,,,,,,,,,,,,,,,,,,,,,,,-0.081481425,-0.09629631,1,0,0,st..k..,st..k..,0,59,59,35,1,stuikem,images/br_stuikem.png,images/cb_stuikem.png
,,,,,,00086,2023-10-23_18h56.28.862,vbt_B1_day1,2022.2.4,Win32,60.10337781,,,,,,,,,,,,,,,,,,,,,,,,,,,,,,,,,,,,,,,,,,,,,,,,,,,,,,,,,
