welcome_mouse.x,welcome_mouse.y,welcome_mouse.leftButton,welcome_mouse.midButton,welcome_mouse.rightButton,welcome_mouse.time,"ID",date,expName,psychopyVersion,OS,frameRate,mouse_2.x,mouse_2.y,mouse_2.leftButton,mouse_2.midButton,mouse_2.rightButton,mouse_2.time,mouse_3.x,mouse_3.y,mouse_3.leftButton,mouse_3.midButton,mouse_3.rightButton,mouse_3.time,train_mouse.x,train_mouse.y,train_mouse.leftButton,train_mouse.midButton,train_mouse.rightButton,train_mouse.time,braille_mouse.x,braille_mouse.y,braille_mouse.leftButton,braille_mouse.midButton,braille_mouse.rightButton,braille_mouse.time,trials.thisRepN,trials.thisTrialN,trials.thisN,trials.thisIndex,trials.ran,nlLet,brLet,cbLet,mouse.x,mouse.y,mouse.leftButton,mouse.midButton,mouse.rightButton,testInstr_mouse.x,testInstr_mouse.y,testInstr_mouse.leftButton,testInstr_mouse.midButton,testInstr_mouse.rightButton,test_mouse.x,test_mouse.y,test_mouse.leftButton,test_mouse.midButton,test_mouse.rightButton,test_response.text,testResp,test_loop.thisRepN,test_loop.thisTrialN,test_loop.thisN,test_loop.thisIndex,test_loop.ran,nlWrd,brWrd,cbWrd
-0.146296254,-0.246296282,1,0,0,75.7006,00084,2023-10-22_16h09.29.217,vbt_B1_day1,2022.2.4,Win32,30.30027573,,,,,,,,,,,,,,,,,,,,,,,,,,,,,,,,,,,,,,,,,,,,,,,,,,,,,,,,,
,,,,,,00084,2023-10-22_16h09.29.217,vbt_B1_day1,2022.2.4,Win32,30.30027573,0.031481496,-0.291666667,1,0,0,11.1972,,,,,,,,,,,,,,,,,,,,,,,,,,,,,,,,,,,,,,,,,,,,,,,,,,,
,,,,,,00084,2023-10-22_16h09.29.217,vbt_B1_day1,2022.2.4,Win32,30.30027573,,,,,,,0.010185171,-0.329629616,1,0,0,30.0396,,,,,,,,,,,,,,,,,,,,,,,,,,,,,,,,,,,,,,,,,,,,,
,,,,,,00084,2023-10-22_16h09.29.217,vbt_B1_day1,2022.2.4,Win32,30.30027573,,,,,,,,,,,,,0.122222265,-0.173148191,1,0,0,29.9008,,,,,,,,,,,,,,,,,,,,,,,,,,,,,,,,,,,,,,,
,,,,,,00084,2023-10-22_16h09.29.217,vbt_B1_day1,2022.2.4,Win32,30.30027573,,,,,,,,,,,,,,,,,,,0.122222265,-0.173148191,1,0,0,91.7374,0,0,0,7,1,h,images/br_h.png,images/cb_h.png,,,,,,,,,,,,,,,,,,,,,,,,,
,,,,,,00084,2023-10-22_16h09.29.217,vbt_B1_day1,2022.2.4,Win32,30.30027573,,,,,,,,,,,,,,,,,,,0.122222265,-0.173148191,1,0,0,3.4341,0,1,1,5,1,f,images/br_f.png,images/cb_f.png,,,,,,,,,,,,,,,,,,,,,,,,,
,,,,,,00084,2023-10-22_16h09.29.217,vbt_B1_day1,2022.2.4,Win32,30.30027573,,,,,,,,,,,,,,,,,,,0.122222265,-0.173148191,1,0,0,2.1343,0,2,2,8,1,i,images/br_i.png,images/cb_i.png,,,,,,,,,,,,,,,,,,,,,,,,,
,,,,,,00084,2023-10-22_16h09.29.217,vbt_B1_day1,2022.2.4,Win32,30.30027573,,,,,,,,,,,,,,,,,,,0.122222265,-0.173148191,1,0,0,5.3022,0,3,3,18,1,s,images/br_s.png,images/cb_s.png,,,,,,,,,,,,,,,,,,,,,,,,,
,,,,,,00084,2023-10-22_16h09.29.217,vbt_B1_day1,2022.2.4,Win32,30.30027573,,,,,,,,,,,,,,,,,,,0.122222265,-0.173148191,1,0,0,2.7346,0,4,4,11,1,l,images/br_l.png,images/cb_l.png,,,,,,,,,,,,,,,,,,,,,,,,,
,,,,,,00084,2023-10-22_16h09.29.217,vbt_B1_day1,2022.2.4,Win32,30.30027573,,,,,,,,,,,,,,,,,,,0.122222265,-0.173148191,1,0,0,2.8346,0,5,5,0,1,a,images/br_a.png,images/cb_a.png,,,,,,,,,,,,,,,,,,,,,,,,,
,,,,,,00084,2023-10-22_16h09.29.217,vbt_B1_day1,2022.2.4,Win32,30.30027573,,,,,,,,,,,,,,,,,,,0.122222265,-0.173148191,1,0,0,1.6008,0,6,6,4,1,e,images/br_e.png,images/cb_e.png,,,,,,,,,,,,,,,,,,,,,,,,,
,,,,,,00084,2023-10-22_16h09.29.217,vbt_B1_day1,2022.2.4,Win32,30.30027573,,,,,,,,,,,,,,,,,,,0.122222265,-0.173148191,1,0,0,2.3672,0,7,7,12,1,m,images/br_m.png,images/cb_m.png,,,,,,,,,,,,,,,,,,,,,,,,,
,,,,,,00084,2023-10-22_16h09.29.217,vbt_B1_day1,2022.2.4,Win32,30.30027573,,,,,,,,,,,,,,,,,,,0.122222265,-0.173148191,1,0,0,2.9343,0,8,8,3,1,d,images/br_d.png,images/cb_d.png,,,,,,,,,,,,,,,,,,,,,,,,,
,,,,,,00084,2023-10-22_16h09.29.217,vbt_B1_day1,2022.2.4,Win32,30.30027573,,,,,,,,,,,,,,,,,,,0.122222265,-0.173148191,1,0,0,3.6681,0,9,9,22,1,w,images/br_w.png,images/cb_w.png,,,,,,,,,,,,,,,,,,,,,,,,,
,,,,,,00084,2023-10-22_16h09.29.217,vbt_B1_day1,2022.2.4,Win32,30.30027573,,,,,,,,,,,,,,,,,,,0.122222265,-0.173148191,1,0,0,2.0675,0,10,10,2,1,c,images/br_c.png,images/cb_c.png,,,,,,,,,,,,,,,,,,,,,,,,,
,,,,,,00084,2023-10-22_16h09.29.217,vbt_B1_day1,2022.2.4,Win32,30.30027573,,,,,,,,,,,,,,,,,,,0.122222265,-0.173148191,1,0,0,4.0681,0,11,11,9,1,j,images/br_j.png,images/cb_j.png,,,,,,,,,,,,,,,,,,,,,,,,,
,,,,,,00084,2023-10-22_16h09.29.217,vbt_B1_day1,2022.2.4,Win32,30.30027573,,,,,,,,,,,,,,,,,,,0.122222265,-0.173148191,1,0,0,4.7349,0,12,12,13,1,n,images/br_n.png,images/cb_n.png,,,,,,,,,,,,,,,,,,,,,,,,,
,,,,,,00084,2023-10-22_16h09.29.217,vbt_B1_day1,2022.2.4,Win32,30.30027573,,,,,,,,,,,,,,,,,,,0.122222265,-0.173148191,1,0,0,1.4007,0,13,13,15,1,p,images/br_p.png,images/cb_p.png,,,,,,,,,,,,,,,,,,,,,,,,,
,,,,,,00084,2023-10-22_16h09.29.217,vbt_B1_day1,2022.2.4,Win32,30.30027573,,,,,,,,,,,,,,,,,,,0.122222265,-0.173148191,1,0,0,1.2336,0,14,14,14,1,o,images/br_o.png,images/cb_o.png,,,,,,,,,,,,,,,,,,,,,,,,,
,,,,,,00084,2023-10-22_16h09.29.217,vbt_B1_day1,2022.2.4,Win32,30.30027573,,,,,,,,,,,,,,,,,,,0.122222265,-0.173148191,1,0,0,1.8674,0,15,15,25,1,z,images/br_z.png,images/cb_z.png,,,,,,,,,,,,,,,,,,,,,,,,,
,,,,,,00084,2023-10-22_16h09.29.217,vbt_B1_day1,2022.2.4,Win32,30.30027573,,,,,,,,,,,,,,,,,,,0.122222265,-0.173148191,1,0,0,1.0336,0,16,16,23,1,x,images/br_x.png,images/cb_x.png,,,,,,,,,,,,,,,,,,,,,,,,,
,,,,,,00084,2023-10-22_16h09.29.217,vbt_B1_day1,2022.2.4,Win32,30.30027573,,,,,,,,,,,,,,,,,,,0.122222265,-0.173148191,1,0,0,0.8003,0,17,17,20,1,u,images/br_u.png,images/cb_u.png,,,,,,,,,,,,,,,,,,,,,,,,,
,,,,,,00084,2023-10-22_16h09.29.217,vbt_B1_day1,2022.2.4,Win32,30.30027573,,,,,,,,,,,,,,,,,,,0.122222265,-0.173148191,1,0,0,2.8681,0,18,18,19,1,t,images/br_t.png,images/cb_t.png,,,,,,,,,,,,,,,,,,,,,,,,,
,,,,,,00084,2023-10-22_16h09.29.217,vbt_B1_day1,2022.2.4,Win32,30.30027573,,,,,,,,,,,,,,,,,,,0.122222265,-0.173148191,1,0,0,1.2673,0,19,19,17,1,r,images/br_r.png,images/cb_r.png,,,,,,,,,,,,,,,,,,,,,,,,,
,,,,,,00084,2023-10-22_16h09.29.217,vbt_B1_day1,2022.2.4,Win32,30.30027573,,,,,,,,,,,,,,,,,,,0.122222265,-0.173148191,1,0,0,2.4672,0,20,20,16,1,q,images/br_q.png,images/cb_q.png,,,,,,,,,,,,,,,,,,,,,,,,,
,,,,,,00084,2023-10-22_16h09.29.217,vbt_B1_day1,2022.2.4,Win32,30.30027573,,,,,,,,,,,,,,,,,,,0.122222265,-0.173148191,1,0,0,2.5008,0,21,21,10,1,k,images/br_k.png,images/cb_k.png,,,,,,,,,,,,,,,,,,,,,,,,,
,,,,,,00084,2023-10-22_16h09.29.217,vbt_B1_day1,2022.2.4,Win32,30.30027573,,,,,,,,,,,,,,,,,,,0.122222265,-0.173148191,1,0,0,0.9671,0,22,22,21,1,v,images/br_v.png,images/cb_v.png,,,,,,,,,,,,,,,,,,,,,,,,,
,,,,,,00084,2023-10-22_16h09.29.217,vbt_B1_day1,2022.2.4,Win32,30.30027573,,,,,,,,,,,,,,,,,,,0.122222265,-0.173148191,1,0,0,0.9671,0,23,23,24,1,y,images/br_y.png,images/cb_y.png,,,,,,,,,,,,,,,,,,,,,,,,,
,,,,,,00084,2023-10-22_16h09.29.217,vbt_B1_day1,2022.2.4,Win32,30.30027573,,,,,,,,,,,,,,,,,,,0.122222265,-0.173148191,1,0,0,4.6352,0,24,24,6,1,g,images/br_g.png,images/cb_g.png,,,,,,,,,,,,,,,,,,,,,,,,,
,,,,,,00084,2023-10-22_16h09.29.217,vbt_B1_day1,2022.2.4,Win32,30.30027573,,,,,,,,,,,,,,,,,,,0.122222265,-0.173148191,1,0,0,0.9671,0,25,25,1,1,b,images/br_b.png,images/cb_b.png,,,,,,,,,,,,,,,,,,,,,,,,,
,,,,,,00084,2023-10-22_16h09.29.217,vbt_B1_day1,2022.2.4,Win32,30.30027573,,,,,,,,,,,,,,,,,,,0.122222265,-0.173148191,1,0,0,2.5344,1,0,26,10,1,k,images/br_k.png,images/cb_k.png,,,,,,,,,,,,,,,,,,,,,,,,,
,,,,,,00084,2023-10-22_16h09.29.217,vbt_B1_day1,2022.2.4,Win32,30.30027573,,,,,,,,,,,,,,,,,,,0.122222265,-0.173148191,1,0,0,12.505,1,1,27,9,1,j,images/br_j.png,images/cb_j.png,,,,,,,,,,,,,,,,,,,,,,,,,
,,,,,,00084,2023-10-22_16h09.29.217,vbt_B1_day1,2022.2.4,Win32,30.30027573,,,,,,,,,,,,,,,,,,,0.119444459,-0.171296296,1,0,0,0.9348,1,2,28,21,1,v,images/br_v.png,images/cb_v.png,,,,,,,,,,,,,,,,,,,,,,,,,
,,,,,,00084,2023-10-22_16h09.29.217,vbt_B1_day1,2022.2.4,Win32,30.30027573,,,,,,,,,,,,,,,,,,,0.119444459,-0.171296296,1,0,0,3.2679,1,3,29,1,1,b,images/br_b.png,images/cb_b.png,,,,,,,,,,,,,,,,,,,,,,,,,
,,,,,,00084,2023-10-22_16h09.29.217,vbt_B1_day1,2022.2.4,Win32,30.30027573,,,,,,,,,,,,,,,,,,,0.119444459,-0.171296296,1,0,0,2.3017,1,4,30,17,1,r,images/br_r.png,images/cb_r.png,,,,,,,,,,,,,,,,,,,,,,,,,
,,,,,,00084,2023-10-22_16h09.29.217,vbt_B1_day1,2022.2.4,Win32,30.30027573,,,,,,,,,,,,,,,,,,,0.119444459,-0.171296296,1,0,0,0.4668,1,5,31,11,1,l,images/br_l.png,images/cb_l.png,,,,,,,,,,,,,,,,,,,,,,,,,
,,,,,,00084,2023-10-22_16h09.29.217,vbt_B1_day1,2022.2.4,Win32,30.30027573,,,,,,,,,,,,,,,,,,,0.119444459,-0.171296296,1,0,0,4.135,1,6,32,19,1,t,images/br_t.png,images/cb_t.png,,,,,,,,,,,,,,,,,,,,,,,,,
,,,,,,00084,2023-10-22_16h09.29.217,vbt_B1_day1,2022.2.4,Win32,30.30027573,,,,,,,,,,,,,,,,,,,0.119444459,-0.171296296,1,0,0,0.2336,1,7,33,22,1,w,images/br_w.png,images/cb_w.png,,,,,,,,,,,,,,,,,,,,,,,,,
,,,,,,00084,2023-10-22_16h09.29.217,vbt_B1_day1,2022.2.4,Win32,30.30027573,,,,,,,,,,,,,,,,,,,0.119444459,-0.171296296,1,0,0,0.767,1,8,34,23,1,x,images/br_x.png,images/cb_x.png,,,,,,,,,,,,,,,,,,,,,,,,,
,,,,,,00084,2023-10-22_16h09.29.217,vbt_B1_day1,2022.2.4,Win32,30.30027573,,,,,,,,,,,,,,,,,,,0.119444459,-0.171296296,1,0,0,6.3365,1,9,35,25,1,z,images/br_z.png,images/cb_z.png,,,,,,,,,,,,,,,,,,,,,,,,,
,,,,,,00084,2023-10-22_16h09.29.217,vbt_B1_day1,2022.2.4,Win32,30.30027573,,,,,,,,,,,,,,,,,,,0.119444459,-0.171296296,1,0,0,0.767,1,10,36,20,1,u,images/br_u.png,images/cb_u.png,,,,,,,,,,,,,,,,,,,,,,,,,
,,,,,,00084,2023-10-22_16h09.29.217,vbt_B1_day1,2022.2.4,Win32,30.30027573,,,,,,,,,,,,,,,,,,,0.119444459,-0.171296296,1,0,0,11.2376,1,11,37,14,1,o,images/br_o.png,images/cb_o.png,,,,,,,,,,,,,,,,,,,,,,,,,
,,,,,,00084,2023-10-22_16h09.29.217,vbt_B1_day1,2022.2.4,Win32,30.30027573,,,,,,,,,,,,,,,,,,,0.119444459,-0.171296296,1,0,0,0.9673,1,12,38,6,1,g,images/br_g.png,images/cb_g.png,,,,,,,,,,,,,,,,,,,,,,,,,
,,,,,,00084,2023-10-22_16h09.29.217,vbt_B1_day1,2022.2.4,Win32,30.30027573,,,,,,,,,,,,,,,,,,,0.119444459,-0.171296296,1,0,0,0.2001,1,13,39,12,1,m,images/br_m.png,images/cb_m.png,,,,,,,,,,,,,,,,,,,,,,,,,
,,,,,,00084,2023-10-22_16h09.29.217,vbt_B1_day1,2022.2.4,Win32,30.30027573,,,,,,,,,,,,,,,,,,,0.119444459,-0.171296296,1,0,0,4.2065,1,14,40,7,1,h,images/br_h.png,images/cb_h.png,,,,,,,,,,,,,,,,,,,,,,,,,
,,,,,,00084,2023-10-22_16h09.29.217,vbt_B1_day1,2022.2.4,Win32,30.30027573,,,,,,,,,,,,,,,,,,,0.119444459,-0.171296296,1,0,0,0.834,1,15,41,5,1,f,images/br_f.png,images/cb_f.png,,,,,,,,,,,,,,,,,,,,,,,,,
,,,,,,00084,2023-10-22_16h09.29.217,vbt_B1_day1,2022.2.4,Win32,30.30027573,,,,,,,,,,,,,,,,,,,0.119444459,-0.171296296,1,0,0,1.7007,1,16,42,0,1,a,images/br_a.png,images/cb_a.png,,,,,,,,,,,,,,,,,,,,,,,,,
,,,,,,00084,2023-10-22_16h09.29.217,vbt_B1_day1,2022.2.4,Win32,30.30027573,,,,,,,,,,,,,,,,,,,0.119444459,-0.171296296,1,0,0,1.8676,1,17,43,2,1,c,images/br_c.png,images/cb_c.png,,,,,,,,,,,,,,,,,,,,,,,,,
,,,,,,00084,2023-10-22_16h09.29.217,vbt_B1_day1,2022.2.4,Win32,30.30027573,,,,,,,,,,,,,,,,,,,0.119444459,-0.171296296,1,0,0,0.2336,1,18,44,15,1,p,images/br_p.png,images/cb_p.png,,,,,,,,,,,,,,,,,,,,,,,,,
,,,,,,00084,2023-10-22_16h09.29.217,vbt_B1_day1,2022.2.4,Win32,30.30027573,,,,,,,,,,,,,,,,,,,0.119444459,-0.171296296,1,0,0,0.6003,1,19,45,24,1,y,images/br_y.png,images/cb_y.png,,,,,,,,,,,,,,,,,,,,,,,,,
,,,,,,00084,2023-10-22_16h09.29.217,vbt_B1_day1,2022.2.4,Win32,30.30027573,,,,,,,,,,,,,,,,,,,0.119444459,-0.171296296,1,0,0,2.4341,1,20,46,8,1,i,images/br_i.png,images/cb_i.png,,,,,,,,,,,,,,,,,,,,,,,,,
,,,,,,00084,2023-10-22_16h09.29.217,vbt_B1_day1,2022.2.4,Win32,30.30027573,,,,,,,,,,,,,,,,,,,0.119444459,-0.171296296,1,0,0,5.1019,1,21,47,16,1,q,images/br_q.png,images/cb_q.png,,,,,,,,,,,,,,,,,,,,,,,,,
,,,,,,00084,2023-10-22_16h09.29.217,vbt_B1_day1,2022.2.4,Win32,30.30027573,,,,,,,,,,,,,,,,,,,0.119444459,-0.171296296,1,0,0,0.7001,1,22,48,18,1,s,images/br_s.png,images/cb_s.png,,,,,,,,,,,,,,,,,,,,,,,,,
,,,,,,00084,2023-10-22_16h09.29.217,vbt_B1_day1,2022.2.4,Win32,30.30027573,,,,,,,,,,,,,,,,,,,0.119444459,-0.171296296,1,0,0,1.0005,1,23,49,4,1,e,images/br_e.png,images/cb_e.png,,,,,,,,,,,,,,,,,,,,,,,,,
,,,,,,00084,2023-10-22_16h09.29.217,vbt_B1_day1,2022.2.4,Win32,30.30027573,,,,,,,,,,,,,,,,,,,0.119444459,-0.171296296,1,0,0,0.2335,1,24,50,3,1,d,images/br_d.png,images/cb_d.png,,,,,,,,,,,,,,,,,,,,,,,,,
,,,,,,00084,2023-10-22_16h09.29.217,vbt_B1_day1,2022.2.4,Win32,30.30027573,,,,,,,,,,,,,,,,,,,0.119444459,-0.171296296,1,0,0,0.2668,1,25,51,13,1,n,images/br_n.png,images/cb_n.png,,,,,,,,,,,,,,,,,,,,,,,,,
,,,,,,00084,2023-10-22_16h09.29.217,vbt_B1_day1,2022.2.4,Win32,30.30027573,,,,,,,,,,,,,,,,,,,0.119444459,-0.171296296,1,0,0,2.4011,2,0,52,24,1,y,images/br_y.png,images/cb_y.png,,,,,,,,,,,,,,,,,,,,,,,,,
,,,,,,00084,2023-10-22_16h09.29.217,vbt_B1_day1,2022.2.4,Win32,30.30027573,,,,,,,,,,,,,,,,,,,0.119444459,-0.171296296,1,0,0,2.5674,2,1,53,4,1,e,images/br_e.png,images/cb_e.png,,,,,,,,,,,,,,,,,,,,,,,,,
,,,,,,00084,2023-10-22_16h09.29.217,vbt_B1_day1,2022.2.4,Win32,30.30027573,,,,,,,,,,,,,,,,,,,0.119444459,-0.171296296,1,0,0,9.3703,2,2,54,15,1,p,images/br_p.png,images/cb_p.png,,,,,,,,,,,,,,,,,,,,,,,,,
,,,,,,00084,2023-10-22_16h09.29.217,vbt_B1_day1,2022.2.4,Win32,30.30027573,,,,,,,,,,,,,,,,,,,0.119444459,-0.171296296,1,0,0,0.0663,2,3,55,6,1,g,images/br_g.png,images/cb_g.png,,,,,,,,,,,,,,,,,,,,,,,,,
,,,,,,00084,2023-10-22_16h09.29.217,vbt_B1_day1,2022.2.4,Win32,30.30027573,,,,,,,,,,,,,,,,,,,0.119444459,-0.171296296,1,0,0,1.6335,2,4,56,14,1,o,images/br_o.png,images/cb_o.png,,,,,,,,,,,,,,,,,,,,,,,,,
,,,,,,00084,2023-10-22_16h09.29.217,vbt_B1_day1,2022.2.4,Win32,30.30027573,,,,,,,,,,,,,,,,,,,0.119444459,-0.171296296,1,0,0,0.4339,2,5,57,9,1,j,images/br_j.png,images/cb_j.png,,,,,,,,,,,,,,,,,,,,,,,,,
,,,,,,00084,2023-10-22_16h09.29.217,vbt_B1_day1,2022.2.4,Win32,30.30027573,,,,,,,,,,,,,,,,,,,0.119444459,-0.171296296,1,0,0,0.8003,2,6,58,0,1,a,images/br_a.png,images/cb_a.png,,,,,,,,,,,,,,,,,,,,,,,,,
,,,,,,00084,2023-10-22_16h09.29.217,vbt_B1_day1,2022.2.4,Win32,30.30027573,,,,,,,,,,,,,,,,,,,0.119444459,-0.171296296,1,0,0,1.5008,2,7,59,25,1,z,images/br_z.png,images/cb_z.png,,,,,,,,,,,,,,,,,,,,,,,,,
,,,,,,00084,2023-10-22_16h09.29.217,vbt_B1_day1,2022.2.4,Win32,30.30027573,,,,,,,,,,,,,,,,,,,0.119444459,-0.171296296,1,0,0,1.7676,2,8,60,3,1,d,images/br_d.png,images/cb_d.png,,,,,,,,,,,,,,,,,,,,,,,,,
,,,,,,00084,2023-10-22_16h09.29.217,vbt_B1_day1,2022.2.4,Win32,30.30027573,,,,,,,,,,,,,,,,,,,0.07222225,-0.050925926,1,0,0,2.0081,2,9,61,8,1,i,images/br_i.png,images/cb_i.png,,,,,,,,,,,,,,,,,,,,,,,,,
,,,,,,00084,2023-10-22_16h09.29.217,vbt_B1_day1,2022.2.4,Win32,30.30027573,,,,,,,,,,,,,,,,,,,0.07222225,-0.050925926,1,0,0,0.3336,2,10,62,5,1,f,images/br_f.png,images/cb_f.png,,,,,,,,,,,,,,,,,,,,,,,,,
,,,,,,00084,2023-10-22_16h09.29.217,vbt_B1_day1,2022.2.4,Win32,30.30027573,,,,,,,,,,,,,,,,,,,0.07222225,-0.050925926,1,0,0,8.5872,2,11,63,21,1,v,images/br_v.png,images/cb_v.png,,,,,,,,,,,,,,,,,,,,,,,,,
,,,,,,00084,2023-10-22_16h09.29.217,vbt_B1_day1,2022.2.4,Win32,30.30027573,,,,,,,,,,,,,,,,,,,0.07222225,-0.050925926,1,0,0,2.2627,2,12,64,11,1,l,images/br_l.png,images/cb_l.png,,,,,,,,,,,,,,,,,,,,,,,,,
,,,,,,00084,2023-10-22_16h09.29.217,vbt_B1_day1,2022.2.4,Win32,30.30027573,,,,,,,,,,,,,,,,,,,0.07222225,-0.050925926,1,0,0,1.7851,2,13,65,22,1,w,images/br_w.png,images/cb_w.png,,,,,,,,,,,,,,,,,,,,,,,,,
,,,,,,00084,2023-10-22_16h09.29.217,vbt_B1_day1,2022.2.4,Win32,30.30027573,,,,,,,,,,,,,,,,,,,0.07222225,-0.050925926,1,0,0,0.3497,2,14,66,23,1,x,images/br_x.png,images/cb_x.png,,,,,,,,,,,,,,,,,,,,,,,,,
,,,,,,00084,2023-10-22_16h09.29.217,vbt_B1_day1,2022.2.4,Win32,30.30027573,,,,,,,,,,,,,,,,,,,0.07222225,-0.050925926,1,0,0,1.484,2,15,67,13,1,n,images/br_n.png,images/cb_n.png,,,,,,,,,,,,,,,,,,,,,,,,,
,,,,,,00084,2023-10-22_16h09.29.217,vbt_B1_day1,2022.2.4,Win32,30.30027573,,,,,,,,,,,,,,,,,,,0.07222225,-0.050925926,1,0,0,1.3166,2,16,68,16,1,q,images/br_q.png,images/cb_q.png,,,,,,,,,,,,,,,,,,,,,,,,,
,,,,,,00084,2023-10-22_16h09.29.217,vbt_B1_day1,2022.2.4,Win32,30.30027573,,,,,,,,,,,,,,,,,,,0.07222225,-0.050925926,1,0,0,15.3269,2,17,69,10,1,k,images/br_k.png,images/cb_k.png,,,,,,,,,,,,,,,,,,,,,,,,,
,,,,,,00084,2023-10-22_16h09.29.217,vbt_B1_day1,2022.2.4,Win32,30.30027573,,,,,,,,,,,,,,,,,,,0.07222225,-0.050925926,1,0,0,0.6714,2,18,70,7,1,h,images/br_h.png,images/cb_h.png,,,,,,,,,,,,,,,,,,,,,,,,,
,,,,,,00084,2023-10-22_16h09.29.217,vbt_B1_day1,2022.2.4,Win32,30.30027573,,,,,,,,,,,,,,,,,,,0.07222225,-0.050925926,1,0,0,1.3004,2,19,71,19,1,t,images/br_t.png,images/cb_t.png,,,,,,,,,,,,,,,,,,,,,,,,,
,,,,,,00084,2023-10-22_16h09.29.217,vbt_B1_day1,2022.2.4,Win32,30.30027573,,,,,,,,,,,,,,,,,,,0.07222225,-0.050925926,1,0,0,0.0343,2,20,72,17,1,r,images/br_r.png,images/cb_r.png,,,,,,,,,,,,,,,,,,,,,,,,,
,,,,,,00084,2023-10-22_16h09.29.217,vbt_B1_day1,2022.2.4,Win32,30.30027573,,,,,,,,,,,,,,,,,,,0.07222225,-0.050925926,1,0,0,0.4498,2,21,73,12,1,m,images/br_m.png,images/cb_m.png,,,,,,,,,,,,,,,,,,,,,,,,,
,,,,,,00084,2023-10-22_16h09.29.217,vbt_B1_day1,2022.2.4,Win32,30.30027573,,,,,,,,,,,,,,,,,,,0.07222225,-0.050925926,1,0,0,0.6495,2,22,74,18,1,s,images/br_s.png,images/cb_s.png,,,,,,,,,,,,,,,,,,,,,,,,,
,,,,,,00084,2023-10-22_16h09.29.217,vbt_B1_day1,2022.2.4,Win32,30.30027573,,,,,,,,,,,,,,,,,,,0.07222225,-0.050925926,1,0,0,2.0344,2,23,75,1,1,b,images/br_b.png,images/cb_b.png,,,,,,,,,,,,,,,,,,,,,,,,,
,,,,,,00084,2023-10-22_16h09.29.217,vbt_B1_day1,2022.2.4,Win32,30.30027573,,,,,,,,,,,,,,,,,,,0.07222225,-0.050925926,1,0,0,3.9523,2,24,76,20,1,u,images/br_u.png,images/cb_u.png,,,,,,,,,,,,,,,,,,,,,,,,,
,,,,,,00084,2023-10-22_16h09.29.217,vbt_B1_day1,2022.2.4,Win32,30.30027573,,,,,,,,,,,,,,,,,,,0.056481467,-0.019444466,1,0,0,1.7501,2,25,77,2,1,c,images/br_c.png,images/cb_c.png,,,,,,,,,,,,,,,,,,,,,,,,,
,,,,,,00084,2023-10-22_16h09.29.217,vbt_B1_day1,2022.2.4,Win32,30.30027573,,,,,,,,,,,,,,,,,,,0.056481467,-0.019444466,1,0,0,0.7988,3,0,78,10,1,k,images/br_k.png,images/cb_k.png,,,,,,,,,,,,,,,,,,,,,,,,,
,,,,,,00084,2023-10-22_16h09.29.217,vbt_B1_day1,2022.2.4,Win32,30.30027573,,,,,,,,,,,,,,,,,,,0.074999986,-0.019444466,1,0,0,3.0015,3,1,79,14,1,o,images/br_o.png,images/cb_o.png,,,,,,,,,,,,,,,,,,,,,,,,,
,,,,,,00084,2023-10-22_16h09.29.217,vbt_B1_day1,2022.2.4,Win32,30.30027573,,,,,,,,,,,,,,,,,,,0.074999986,-0.019444466,1,0,0,5.3027,3,2,80,12,1,m,images/br_m.png,images/cb_m.png,,,,,,,,,,,,,,,,,,,,,,,,,
,,,,,,00084,2023-10-22_16h09.29.217,vbt_B1_day1,2022.2.4,Win32,30.30027573,,,,,,,,,,,,,,,,,,,0.074999986,-0.019444466,1,0,0,1.7842,3,3,81,19,1,t,images/br_t.png,images/cb_t.png,,,,,,,,,,,,,,,,,,,,,,,,,
,,,,,,00084,2023-10-22_16h09.29.217,vbt_B1_day1,2022.2.4,Win32,30.30027573,,,,,,,,,,,,,,,,,,,0.074999986,-0.019444466,1,0,0,3.6686,3,4,82,11,1,l,images/br_l.png,images/cb_l.png,,,,,,,,,,,,,,,,,,,,,,,,,
,,,,,,00084,2023-10-22_16h09.29.217,vbt_B1_day1,2022.2.4,Win32,30.30027573,,,,,,,,,,,,,,,,,,,0.074999986,-0.019444466,1,0,0,2.068,3,5,83,1,1,b,images/br_b.png,images/cb_b.png,,,,,,,,,,,,,,,,,,,,,,,,,
,,,,,,00084,2023-10-22_16h09.29.217,vbt_B1_day1,2022.2.4,Win32,30.30027573,,,,,,,,,,,,,,,,,,,0.074999986,-0.019444466,1,0,0,0.0332,3,6,84,18,1,s,images/br_s.png,images/cb_s.png,,,,,,,,,,,,,,,,,,,,,,,,,
,,,,,,00084,2023-10-22_16h09.29.217,vbt_B1_day1,2022.2.4,Win32,30.30027573,,,,,,,,,,,,,,,,,,,0.074999986,-0.019444466,1,0,0,0.0168,3,7,85,23,1,x,images/br_x.png,images/cb_x.png,,,,,,,,,,,,,,,,,,,,,,,,,
,,,,,,00084,2023-10-22_16h09.29.217,vbt_B1_day1,2022.2.4,Win32,30.30027573,,,,,,,,,,,,,,,,,,,0.074999986,-0.019444466,1,0,0,0.3666,3,8,86,15,1,p,images/br_p.png,images/cb_p.png,,,,,,,,,,,,,,,,,,,,,,,,,
,,,,,,00084,2023-10-22_16h09.29.217,vbt_B1_day1,2022.2.4,Win32,30.30027573,,,,,,,,,,,,,,,,,,,0.074999986,-0.019444466,1,0,0,0.8,3,9,87,24,1,y,images/br_y.png,images/cb_y.png,,,,,,,,,,,,,,,,,,,,,,,,,
,,,,,,00084,2023-10-22_16h09.29.217,vbt_B1_day1,2022.2.4,Win32,30.30027573,,,,,,,,,,,,,,,,,,,0.065740727,0.038888896,1,0,0,2.7679,3,10,88,17,1,r,images/br_r.png,images/cb_r.png,,,,,,,,,,,,,,,,,,,,,,,,,
,,,,,,00084,2023-10-22_16h09.29.217,vbt_B1_day1,2022.2.4,Win32,30.30027573,,,,,,,,,,,,,,,,,,,0.065740727,0.038888896,1,0,0,2.3837,3,11,89,7,1,h,images/br_h.png,images/cb_h.png,,,,,,,,,,,,,,,,,,,,,,,,,
,,,,,,00084,2023-10-22_16h09.29.217,vbt_B1_day1,2022.2.4,Win32,30.30027573,,,,,,,,,,,,,,,,,,,0.065740727,0.038888896,1,0,0,1.6837,3,12,90,22,1,w,images/br_w.png,images/cb_w.png,,,,,,,,,,,,,,,,,,,,,,,,,
,,,,,,00084,2023-10-22_16h09.29.217,vbt_B1_day1,2022.2.4,Win32,30.30027573,,,,,,,,,,,,,,,,,,,0.065740727,0.038888896,1,0,0,0.3667,3,13,91,2,1,c,images/br_c.png,images/cb_c.png,,,,,,,,,,,,,,,,,,,,,,,,,
,,,,,,00084,2023-10-22_16h09.29.217,vbt_B1_day1,2022.2.4,Win32,30.30027573,,,,,,,,,,,,,,,,,,,0.065740727,0.038888896,1,0,0,1.4854,3,14,92,3,1,d,images/br_d.png,images/cb_d.png,,,,,,,,,,,,,,,,,,,,,,,,,
,,,,,,00084,2023-10-22_16h09.29.217,vbt_B1_day1,2022.2.4,Win32,30.30027573,,,,,,,,,,,,,,,,,,,0.065740727,0.038888896,1,0,0,0.7837,3,15,93,16,1,q,images/br_q.png,images/cb_q.png,,,,,,,,,,,,,,,,,,,,,,,,,
,,,,,,00084,2023-10-22_16h09.29.217,vbt_B1_day1,2022.2.4,Win32,30.30027573,,,,,,,,,,,,,,,,,,,0.065740727,0.038888896,1,0,0,3.8024,3,16,94,5,1,f,images/br_f.png,images/cb_f.png,,,,,,,,,,,,,,,,,,,,,,,,,
,,,,,,00084,2023-10-22_16h09.29.217,vbt_B1_day1,2022.2.4,Win32,30.30027573,,,,,,,,,,,,,,,,,,,0.065740727,0.038888896,1,0,0,1.3998,3,17,95,25,1,z,images/br_z.png,images/cb_z.png,,,,,,,,,,,,,,,,,,,,,,,,,
,,,,,,00084,2023-10-22_16h09.29.217,vbt_B1_day1,2022.2.4,Win32,30.30027573,,,,,,,,,,,,,,,,,,,0.065740727,0.038888896,1,0,0,1.1161,3,18,96,6,1,g,images/br_g.png,images/cb_g.png,,,,,,,,,,,,,,,,,,,,,,,,,
,,,,,,00084,2023-10-22_16h09.29.217,vbt_B1_day1,2022.2.4,Win32,30.30027573,,,,,,,,,,,,,,,,,,,0.065740727,0.038888896,1,0,0,2.3499,3,19,97,13,1,n,images/br_n.png,images/cb_n.png,,,,,,,,,,,,,,,,,,,,,,,,,
,,,,,,00084,2023-10-22_16h09.29.217,vbt_B1_day1,2022.2.4,Win32,30.30027573,,,,,,,,,,,,,,,,,,,0.065740727,0.038888896,1,0,0,1.4173,3,20,98,20,1,u,images/br_u.png,images/cb_u.png,,,,,,,,,,,,,,,,,,,,,,,,,
,,,,,,00084,2023-10-22_16h09.29.217,vbt_B1_day1,2022.2.4,Win32,30.30027573,,,,,,,,,,,,,,,,,,,0.065740727,0.038888896,1,0,0,0.2481,3,21,99,9,1,j,images/br_j.png,images/cb_j.png,,,,,,,,,,,,,,,,,,,,,,,,,
,,,,,,00084,2023-10-22_16h09.29.217,vbt_B1_day1,2022.2.4,Win32,30.30027573,,,,,,,,,,,,,,,,,,,0.065740727,0.038888896,1,0,0,0.933,3,22,100,4,1,e,images/br_e.png,images/cb_e.png,,,,,,,,,,,,,,,,,,,,,,,,,
,,,,,,00084,2023-10-22_16h09.29.217,vbt_B1_day1,2022.2.4,Win32,30.30027573,,,,,,,,,,,,,,,,,,,0.065740727,0.038888896,1,0,0,1.6007,3,23,101,8,1,i,images/br_i.png,images/cb_i.png,,,,,,,,,,,,,,,,,,,,,,,,,
,,,,,,00084,2023-10-22_16h09.29.217,vbt_B1_day1,2022.2.4,Win32,30.30027573,,,,,,,,,,,,,,,,,,,0.065740727,0.038888896,1,0,0,0.7519,3,24,102,21,1,v,images/br_v.png,images/cb_v.png,,,,,,,,,,,,,,,,,,,,,,,,,
,,,,,,00084,2023-10-22_16h09.29.217,vbt_B1_day1,2022.2.4,Win32,30.30027573,,,,,,,,,,,,,,,,,,,0.065740727,0.038888896,1,0,0,3.5688,3,25,103,0,1,a,images/br_a.png,images/cb_a.png,,,,,,,,,,,,,,,,,,,,,,,,,
,,,,,,00084,2023-10-22_16h09.29.217,vbt_B1_day1,2022.2.4,Win32,30.30027573,,,,,,,,,,,,,,,,,,,0.065740727,0.038888896,1,0,0,1.4335,4,0,104,10,1,k,images/br_k.png,images/cb_k.png,,,,,,,,,,,,,,,,,,,,,,,,,
,,,,,,00084,2023-10-22_16h09.29.217,vbt_B1_day1,2022.2.4,Win32,30.30027573,,,,,,,,,,,,,,,,,,,0.065740727,0.038888896,1,0,0,0.3328,4,1,105,20,1,u,images/br_u.png,images/cb_u.png,,,,,,,,,,,,,,,,,,,,,,,,,
,,,,,,00084,2023-10-22_16h09.29.217,vbt_B1_day1,2022.2.4,Win32,30.30027573,,,,,,,,,,,,,,,,,,,0.065740727,0.038888896,1,0,0,1.8839,4,2,106,5,1,f,images/br_f.png,images/cb_f.png,,,,,,,,,,,,,,,,,,,,,,,,,
,,,,,,00084,2023-10-22_16h09.29.217,vbt_B1_day1,2022.2.4,Win32,30.30027573,,,,,,,,,,,,,,,,,,,0.065740727,0.038888896,1,0,0,2.3674,4,3,107,8,1,i,images/br_i.png,images/cb_i.png,,,,,,,,,,,,,,,,,,,,,,,,,
,,,,,,00084,2023-10-22_16h09.29.217,vbt_B1_day1,2022.2.4,Win32,30.30027573,,,,,,,,,,,,,,,,,,,0.065740727,0.038888896,1,0,0,1.8198,4,4,108,6,1,g,images/br_g.png,images/cb_g.png,,,,,,,,,,,,,,,,,,,,,,,,,
,,,,,,00084,2023-10-22_16h09.29.217,vbt_B1_day1,2022.2.4,Win32,30.30027573,,,,,,,,,,,,,,,,,,,0.065740727,0.038888896,1,0,0,0.6168,4,5,109,16,1,q,images/br_q.png,images/cb_q.png,,,,,,,,,,,,,,,,,,,,,,,,,
,,,,,,00084,2023-10-22_16h09.29.217,vbt_B1_day1,2022.2.4,Win32,30.30027573,,,,,,,,,,,,,,,,,,,0.065740727,0.038888896,1,0,0,3.2339,4,6,110,12,1,m,images/br_m.png,images/cb_m.png,,,,,,,,,,,,,,,,,,,,,,,,,
,,,,,,00084,2023-10-22_16h09.29.217,vbt_B1_day1,2022.2.4,Win32,30.30027573,,,,,,,,,,,,,,,,,,,0.065740727,0.038888896,1,0,0,0.801,4,7,111,11,1,l,images/br_l.png,images/cb_l.png,,,,,,,,,,,,,,,,,,,,,,,,,
,,,,,,00084,2023-10-22_16h09.29.217,vbt_B1_day1,2022.2.4,Win32,30.30027573,,,,,,,,,,,,,,,,,,,0.065740727,0.038888896,1,0,0,2.3506,4,8,112,2,1,c,images/br_c.png,images/cb_c.png,,,,,,,,,,,,,,,,,,,,,,,,,
,,,,,,00084,2023-10-22_16h09.29.217,vbt_B1_day1,2022.2.4,Win32,30.30027573,,,,,,,,,,,,,,,,,,,0.065740727,0.038888896,1,0,0,0.2671,4,9,113,21,1,v,images/br_v.png,images/cb_v.png,,,,,,,,,,,,,,,,,,,,,,,,,
,,,,,,00084,2023-10-22_16h09.29.217,vbt_B1_day1,2022.2.4,Win32,30.30027573,,,,,,,,,,,,,,,,,,,0.065740727,0.038888896,1,0,0,2.9517,4,10,114,14,1,o,images/br_o.png,images/cb_o.png,,,,,,,,,,,,,,,,,,,,,,,,,
,,,,,,00084,2023-10-22_16h09.29.217,vbt_B1_day1,2022.2.4,Win32,30.30027573,,,,,,,,,,,,,,,,,,,0.065740727,0.038888896,1,0,0,1.4845,4,11,115,17,1,r,images/br_r.png,images/cb_r.png,,,,,,,,,,,,,,,,,,,,,,,,,
,,,,,,00084,2023-10-22_16h09.29.217,vbt_B1_day1,2022.2.4,Win32,30.30027573,,,,,,,,,,,,,,,,,,,0.065740727,0.038888896,1,0,0,3.4357,4,12,116,19,1,t,images/br_t.png,images/cb_t.png,,,,,,,,,,,,,,,,,,,,,,,,,
,,,,,,00084,2023-10-22_16h09.29.217,vbt_B1_day1,2022.2.4,Win32,30.30027573,,,,,,,,,,,,,,,,,,,0.065740727,0.038888896,1,0,0,2.1515,4,13,117,15,1,p,images/br_p.png,images/cb_p.png,,,,,,,,,,,,,,,,,,,,,,,,,
,,,,,,00084,2023-10-22_16h09.29.217,vbt_B1_day1,2022.2.4,Win32,30.30027573,,,,,,,,,,,,,,,,,,,0.065740727,0.038888896,1,0,0,0.6507,4,14,118,24,1,y,images/br_y.png,images/cb_y.png,,,,,,,,,,,,,,,,,,,,,,,,,
,,,,,,00084,2023-10-22_16h09.29.217,vbt_B1_day1,2022.2.4,Win32,30.30027573,,,,,,,,,,,,,,,,,,,0.065740727,0.038888896,1,0,0,3.1011,4,15,119,23,1,x,images/br_x.png,images/cb_x.png,,,,,,,,,,,,,,,,,,,,,,,,,
,,,,,,00084,2023-10-22_16h09.29.217,vbt_B1_day1,2022.2.4,Win32,30.30027573,,,,,,,,,,,,,,,,,,,0.065740727,0.038888896,1,0,0,1.4182,4,16,120,7,1,h,images/br_h.png,images/cb_h.png,,,,,,,,,,,,,,,,,,,,,,,,,
,,,,,,00084,2023-10-22_16h09.29.217,vbt_B1_day1,2022.2.4,Win32,30.30027573,,,,,,,,,,,,,,,,,,,0.065740727,0.038888896,1,0,0,3.9227,4,17,121,1,1,b,images/br_b.png,images/cb_b.png,,,,,,,,,,,,,,,,,,,,,,,,,
,,,,,,00084,2023-10-22_16h09.29.217,vbt_B1_day1,2022.2.4,Win32,30.30027573,,,,,,,,,,,,,,,,,,,0.065740727,0.038888896,1,0,0,5.4841,4,18,122,3,1,d,images/br_d.png,images/cb_d.png,,,,,,,,,,,,,,,,,,,,,,,,,
,,,,,,00084,2023-10-22_16h09.29.217,vbt_B1_day1,2022.2.4,Win32,30.30027573,,,,,,,,,,,,,,,,,,,0.065740727,0.038888896,1,0,0,2.369,4,19,123,25,1,z,images/br_z.png,images/cb_z.png,,,,,,,,,,,,,,,,,,,,,,,,,
,,,,,,00084,2023-10-22_16h09.29.217,vbt_B1_day1,2022.2.4,Win32,30.30027573,,,,,,,,,,,,,,,,,,,0.065740727,0.038888896,1,0,0,1.55,4,20,124,0,1,a,images/br_a.png,images/cb_a.png,,,,,,,,,,,,,,,,,,,,,,,,,
,,,,,,00084,2023-10-22_16h09.29.217,vbt_B1_day1,2022.2.4,Win32,30.30027573,,,,,,,,,,,,,,,,,,,0.065740727,0.038888896,1,0,0,1.5005,4,21,125,13,1,n,images/br_n.png,images/cb_n.png,,,,,,,,,,,,,,,,,,,,,,,,,
,,,,,,00084,2023-10-22_16h09.29.217,vbt_B1_day1,2022.2.4,Win32,30.30027573,,,,,,,,,,,,,,,,,,,0.065740727,0.038888896,1,0,0,1.5177,4,22,126,9,1,j,images/br_j.png,images/cb_j.png,,,,,,,,,,,,,,,,,,,,,,,,,
,,,,,,00084,2023-10-22_16h09.29.217,vbt_B1_day1,2022.2.4,Win32,30.30027573,,,,,,,,,,,,,,,,,,,0.065740727,0.038888896,1,0,0,1.9342,4,23,127,22,1,w,images/br_w.png,images/cb_w.png,,,,,,,,,,,,,,,,,,,,,,,,,
,,,,,,00084,2023-10-22_16h09.29.217,vbt_B1_day1,2022.2.4,Win32,30.30027573,,,,,,,,,,,,,,,,,,,0.065740727,0.038888896,1,0,0,0.4674,4,24,128,4,1,e,images/br_e.png,images/cb_e.png,,,,,,,,,,,,,,,,,,,,,,,,,
,,,,,,00084,2023-10-22_16h09.29.217,vbt_B1_day1,2022.2.4,Win32,30.30027573,,,,,,,,,,,,,,,,,,,0.065740727,0.038888896,1,0,0,0.3847,4,25,129,18,1,s,images/br_s.png,images/cb_s.png,,,,,,,,,,,,,,,,,,,,,,,,,
,,,,,,00084,2023-10-22_16h09.29.217,vbt_B1_day1,2022.2.4,Win32,30.30027573,,,,,,,,,,,,,,,,,,,0.065740727,0.038888896,1,0,0,3.3338,5,0,130,9,1,j,images/br_j.png,images/cb_j.png,,,,,,,,,,,,,,,,,,,,,,,,,
,,,,,,00084,2023-10-22_16h09.29.217,vbt_B1_day1,2022.2.4,Win32,30.30027573,,,,,,,,,,,,,,,,,,,0.065740727,0.038888896,1,0,0,2.533,5,1,131,18,1,s,images/br_s.png,images/cb_s.png,,,,,,,,,,,,,,,,,,,,,,,,,
,,,,,,00084,2023-10-22_16h09.29.217,vbt_B1_day1,2022.2.4,Win32,30.30027573,,,,,,,,,,,,,,,,,,,0.065740727,0.038888896,1,0,0,3.7857,5,2,132,15,1,p,images/br_p.png,images/cb_p.png,,,,,,,,,,,,,,,,,,,,,,,,,
,,,,,,00084,2023-10-22_16h09.29.217,vbt_B1_day1,2022.2.4,Win32,30.30027573,,,,,,,,,,,,,,,,,,,0.065740727,0.038888896,1,0,0,1.7643,5,3,133,16,1,q,images/br_q.png,images/cb_q.png,,,,,,,,,,,,,,,,,,,,,,,,,
,,,,,,00084,2023-10-22_16h09.29.217,vbt_B1_day1,2022.2.4,Win32,30.30027573,,,,,,,,,,,,,,,,,,,0.065740727,0.038888896,1,0,0,1.9173,5,4,134,12,1,m,images/br_m.png,images/cb_m.png,,,,,,,,,,,,,,,,,,,,,,,,,
,,,,,,00084,2023-10-22_16h09.29.217,vbt_B1_day1,2022.2.4,Win32,30.30027573,,,,,,,,,,,,,,,,,,,0.065740727,0.038888896,1,0,0,2.3841,5,5,135,0,1,a,images/br_a.png,images/cb_a.png,,,,,,,,,,,,,,,,,,,,,,,,,
,,,,,,00084,2023-10-22_16h09.29.217,vbt_B1_day1,2022.2.4,Win32,30.30027573,,,,,,,,,,,,,,,,,,,0.065740727,0.038888896,1,0,0,0.7507,5,6,136,8,1,i,images/br_i.png,images/cb_i.png,,,,,,,,,,,,,,,,,,,,,,,,,
,,,,,,00084,2023-10-22_16h09.29.217,vbt_B1_day1,2022.2.4,Win32,30.30027573,,,,,,,,,,,,,,,,,,,0.065740727,0.038888896,1,0,0,1.4337,5,7,137,3,1,d,images/br_d.png,images/cb_d.png,,,,,,,,,,,,,,,,,,,,,,,,,
,,,,,,00084,2023-10-22_16h09.29.217,vbt_B1_day1,2022.2.4,Win32,30.30027573,,,,,,,,,,,,,,,,,,,0.065740727,0.038888896,1,0,0,2.752,5,8,138,17,1,r,images/br_r.png,images/cb_r.png,,,,,,,,,,,,,,,,,,,,,,,,,
,,,,,,00084,2023-10-22_16h09.29.217,vbt_B1_day1,2022.2.4,Win32,30.30027573,,,,,,,,,,,,,,,,,,,0.065740727,0.038888896,1,0,0,3.4846,5,9,139,23,1,x,images/br_x.png,images/cb_x.png,,,,,,,,,,,,,,,,,,,,,,,,,
,,,,,,00084,2023-10-22_16h09.29.217,vbt_B1_day1,2022.2.4,Win32,30.30027573,,,,,,,,,,,,,,,,,,,0.065740727,0.038888896,1,0,0,3.3004,5,10,140,4,1,e,images/br_e.png,images/cb_e.png,,,,,,,,,,,,,,,,,,,,,,,,,
,,,,,,00084,2023-10-22_16h09.29.217,vbt_B1_day1,2022.2.4,Win32,30.30027573,,,,,,,,,,,,,,,,,,,0.065740727,0.038888896,1,0,0,1.4802,5,11,141,19,1,t,images/br_t.png,images/cb_t.png,,,,,,,,,,,,,,,,,,,,,,,,,
,,,,,,00084,2023-10-22_16h09.29.217,vbt_B1_day1,2022.2.4,Win32,30.30027573,,,,,,,,,,,,,,,,,,,0.065740727,0.038888896,1,0,0,0.7007,5,12,142,5,1,f,images/br_f.png,images/cb_f.png,,,,,,,,,,,,,,,,,,,,,,,,,
,,,,,,00084,2023-10-22_16h09.29.217,vbt_B1_day1,2022.2.4,Win32,30.30027573,,,,,,,,,,,,,,,,,,,0.065740727,0.038888896,1,0,0,3.1837,5,13,143,6,1,g,images/br_g.png,images/cb_g.png,,,,,,,,,,,,,,,,,,,,,,,,,
,,,,,,00084,2023-10-22_16h09.29.217,vbt_B1_day1,2022.2.4,Win32,30.30027573,,,,,,,,,,,,,,,,,,,0.065740727,0.038888896,1,0,0,4.1511,5,14,144,2,1,c,images/br_c.png,images/cb_c.png,,,,,,,,,,,,,,,,,,,,,,,,,
,,,,,,00084,2023-10-22_16h09.29.217,vbt_B1_day1,2022.2.4,Win32,30.30027573,,,,,,,,,,,,,,,,,,,0.065740727,0.038888896,1,0,0,2.0339,5,15,145,10,1,k,images/br_k.png,images/cb_k.png,,,,,,,,,,,,,,,,,,,,,,,,,
,,,,,,00084,2023-10-22_16h09.29.217,vbt_B1_day1,2022.2.4,Win32,30.30027573,,,,,,,,,,,,,,,,,,,0.065740727,0.038888896,1,0,0,2.4351,5,16,146,11,1,l,images/br_l.png,images/cb_l.png,,,,,,,,,,,,,,,,,,,,,,,,,
,,,,,,00084,2023-10-22_16h09.29.217,vbt_B1_day1,2022.2.4,Win32,30.30027573,,,,,,,,,,,,,,,,,,,0.065740727,0.038888896,1,0,0,1.2998,5,17,147,22,1,w,images/br_w.png,images/cb_w.png,,,,,,,,,,,,,,,,,,,,,,,,,
,,,,,,00084,2023-10-22_16h09.29.217,vbt_B1_day1,2022.2.4,Win32,30.30027573,,,,,,,,,,,,,,,,,,,0.065740727,0.038888896,1,0,0,5.3679,5,18,148,25,1,z,images/br_z.png,images/cb_z.png,,,,,,,,,,,,,,,,,,,,,,,,,
,,,,,,00084,2023-10-22_16h09.29.217,vbt_B1_day1,2022.2.4,Win32,30.30027573,,,,,,,,,,,,,,,,,,,0.065740727,0.038888896,1,0,0,2.734,5,19,149,1,1,b,images/br_b.png,images/cb_b.png,,,,,,,,,,,,,,,,,,,,,,,,,
,,,,,,00084,2023-10-22_16h09.29.217,vbt_B1_day1,2022.2.4,Win32,30.30027573,,,,,,,,,,,,,,,,,,,0.065740727,0.038888896,1,0,0,1.8173,5,20,150,24,1,y,images/br_y.png,images/cb_y.png,,,,,,,,,,,,,,,,,,,,,,,,,
,,,,,,00084,2023-10-22_16h09.29.217,vbt_B1_day1,2022.2.4,Win32,30.30027573,,,,,,,,,,,,,,,,,,,0.065740727,0.038888896,1,0,0,0.5172,5,21,151,20,1,u,images/br_u.png,images/cb_u.png,,,,,,,,,,,,,,,,,,,,,,,,,
,,,,,,00084,2023-10-22_16h09.29.217,vbt_B1_day1,2022.2.4,Win32,30.30027573,,,,,,,,,,,,,,,,,,,0.065740727,0.038888896,1,0,0,2.1847,5,22,152,13,1,n,images/br_n.png,images/cb_n.png,,,,,,,,,,,,,,,,,,,,,,,,,
,,,,,,00084,2023-10-22_16h09.29.217,vbt_B1_day1,2022.2.4,Win32,30.30027573,,,,,,,,,,,,,,,,,,,0.065740727,0.038888896,1,0,0,3.8181,5,23,153,14,1,o,images/br_o.png,images/cb_o.png,,,,,,,,,,,,,,,,,,,,,,,,,
,,,,,,00084,2023-10-22_16h09.29.217,vbt_B1_day1,2022.2.4,Win32,30.30027573,,,,,,,,,,,,,,,,,,,0.065740727,0.038888896,1,0,0,2.2181,5,24,154,21,1,v,images/br_v.png,images/cb_v.png,,,,,,,,,,,,,,,,,,,,,,,,,
,,,,,,00084,2023-10-22_16h09.29.217,vbt_B1_day1,2022.2.4,Win32,30.30027573,,,,,,,,,,,,,,,,,,,0.065740727,0.038888896,1,0,0,1.4682,5,25,155,7,1,h,images/br_h.png,images/cb_h.png,,,,,,,,,,,,,,,,,,,,,,,,,
,,,,,,00084,2023-10-22_16h09.29.217,vbt_B1_day1,2022.2.4,Win32,30.30027573,,,,,,,,,,,,,,,,,,,0.065740727,0.038888896,1,0,0,1.9668,6,0,156,5,1,f,images/br_f.png,images/cb_f.png,,,,,,,,,,,,,,,,,,,,,,,,,
,,,,,,00084,2023-10-22_16h09.29.217,vbt_B1_day1,2022.2.4,Win32,30.30027573,,,,,,,,,,,,,,,,,,,0.065740727,0.038888896,1,0,0,1.2179,6,1,157,22,1,w,images/br_w.png,images/cb_w.png,,,,,,,,,,,,,,,,,,,,,,,,,
,,,,,,00084,2023-10-22_16h09.29.217,vbt_B1_day1,2022.2.4,Win32,30.30027573,,,,,,,,,,,,,,,,,,,0.065740727,0.038888896,1,0,0,0.1335,6,2,158,20,1,u,images/br_u.png,images/cb_u.png,,,,,,,,,,,,,,,,,,,,,,,,,
,,,,,,00084,2023-10-22_16h09.29.217,vbt_B1_day1,2022.2.4,Win32,30.30027573,,,,,,,,,,,,,,,,,,,0.065740727,0.038888896,1,0,0,3.2507,6,3,159,12,1,m,images/br_m.png,images/cb_m.png,,,,,,,,,,,,,,,,,,,,,,,,,
,,,,,,00084,2023-10-22_16h09.29.217,vbt_B1_day1,2022.2.4,Win32,30.30027573,,,,,,,,,,,,,,,,,,,0.065740727,0.038888896,1,0,0,1.8679,6,4,160,23,1,x,images/br_x.png,images/cb_x.png,,,,,,,,,,,,,,,,,,,,,,,,,
,,,,,,00084,2023-10-22_16h09.29.217,vbt_B1_day1,2022.2.4,Win32,30.30027573,,,,,,,,,,,,,,,,,,,0.065740727,0.038888896,1,0,0,0.4664,6,5,161,19,1,t,images/br_t.png,images/cb_t.png,,,,,,,,,,,,,,,,,,,,,,,,,
,,,,,,00084,2023-10-22_16h09.29.217,vbt_B1_day1,2022.2.4,Win32,30.30027573,,,,,,,,,,,,,,,,,,,0.065740727,0.038888896,1,0,0,1.7521,6,6,162,7,1,h,images/br_h.png,images/cb_h.png,,,,,,,,,,,,,,,,,,,,,,,,,
,,,,,,00084,2023-10-22_16h09.29.217,vbt_B1_day1,2022.2.4,Win32,30.30027573,,,,,,,,,,,,,,,,,,,0.065740727,0.038888896,1,0,0,1.4175,6,7,163,24,1,y,images/br_y.png,images/cb_y.png,,,,,,,,,,,,,,,,,,,,,,,,,
,,,,,,00084,2023-10-22_16h09.29.217,vbt_B1_day1,2022.2.4,Win32,30.30027573,,,,,,,,,,,,,,,,,,,0.065740727,0.038888896,1,0,0,0.7841,6,8,164,25,1,z,images/br_z.png,images/cb_z.png,,,,,,,,,,,,,,,,,,,,,,,,,
,,,,,,00084,2023-10-22_16h09.29.217,vbt_B1_day1,2022.2.4,Win32,30.30027573,,,,,,,,,,,,,,,,,,,0.065740727,0.038888896,1,0,0,7.52,6,9,165,16,1,q,images/br_q.png,images/cb_q.png,,,,,,,,,,,,,,,,,,,,,,,,,
,,,,,,00084,2023-10-22_16h09.29.217,vbt_B1_day1,2022.2.4,Win32,30.30027573,,,,,,,,,,,,,,,,,,,0.065740727,0.038888896,1,0,0,4.0645,6,10,166,4,1,e,images/br_e.png,images/cb_e.png,,,,,,,,,,,,,,,,,,,,,,,,,
,,,,,,00084,2023-10-22_16h09.29.217,vbt_B1_day1,2022.2.4,Win32,30.30027573,,,,,,,,,,,,,,,,,,,0.065740727,0.038888896,1,0,0,1.5168,6,11,167,0,1,a,images/br_a.png,images/cb_a.png,,,,,,,,,,,,,,,,,,,,,,,,,
,,,,,,00084,2023-10-22_16h09.29.217,vbt_B1_day1,2022.2.4,Win32,30.30027573,,,,,,,,,,,,,,,,,,,0.065740727,0.038888896,1,0,0,1.0002,6,12,168,21,1,v,images/br_v.png,images/cb_v.png,,,,,,,,,,,,,,,,,,,,,,,,,
,,,,,,00084,2023-10-22_16h09.29.217,vbt_B1_day1,2022.2.4,Win32,30.30027573,,,,,,,,,,,,,,,,,,,0.065740727,0.038888896,1,0,0,1.4512,6,13,169,17,1,r,images/br_r.png,images/cb_r.png,,,,,,,,,,,,,,,,,,,,,,,,,
,,,,,,00084,2023-10-22_16h09.29.217,vbt_B1_day1,2022.2.4,Win32,30.30027573,,,,,,,,,,,,,,,,,,,0.065740727,0.038888896,1,0,0,2.284,6,14,170,1,1,b,images/br_b.png,images/cb_b.png,,,,,,,,,,,,,,,,,,,,,,,,,
,,,,,,00084,2023-10-22_16h09.29.217,vbt_B1_day1,2022.2.4,Win32,30.30027573,,,,,,,,,,,,,,,,,,,0.065740727,0.038888896,1,0,0,4.1691,6,15,171,8,1,i,images/br_i.png,images/cb_i.png,,,,,,,,,,,,,,,,,,,,,,,,,
,,,,,,00084,2023-10-22_16h09.29.217,vbt_B1_day1,2022.2.4,Win32,30.30027573,,,,,,,,,,,,,,,,,,,0.065740727,0.038888896,1,0,0,2.4461,6,16,172,15,1,p,images/br_p.png,images/cb_p.png,,,,,,,,,,,,,,,,,,,,,,,,,
,,,,,,00084,2023-10-22_16h09.29.217,vbt_B1_day1,2022.2.4,Win32,30.30027573,,,,,,,,,,,,,,,,,,,0.065740727,0.038888896,1,0,0,1.5345,6,17,173,10,1,k,images/br_k.png,images/cb_k.png,,,,,,,,,,,,,,,,,,,,,,,,,
,,,,,,00084,2023-10-22_16h09.29.217,vbt_B1_day1,2022.2.4,Win32,30.30027573,,,,,,,,,,,,,,,,,,,0.065740727,0.038888896,1,0,0,0.3504,6,18,174,6,1,g,images/br_g.png,images/cb_g.png,,,,,,,,,,,,,,,,,,,,,,,,,
,,,,,,00084,2023-10-22_16h09.29.217,vbt_B1_day1,2022.2.4,Win32,30.30027573,,,,,,,,,,,,,,,,,,,0.065740727,0.038888896,1,0,0,10.3214,6,19,175,18,1,s,images/br_s.png,images/cb_s.png,,,,,,,,,,,,,,,,,,,,,,,,,
,,,,,,00084,2023-10-22_16h09.29.217,vbt_B1_day1,2022.2.4,Win32,30.30027573,,,,,,,,,,,,,,,,,,,0.065740727,0.038888896,1,0,0,1.5668,6,20,176,11,1,l,images/br_l.png,images/cb_l.png,,,,,,,,,,,,,,,,,,,,,,,,,
,,,,,,00084,2023-10-22_16h09.29.217,vbt_B1_day1,2022.2.4,Win32,30.30027573,,,,,,,,,,,,,,,,,,,0.065740727,0.038888896,1,0,0,3.3332,6,21,177,13,1,n,images/br_n.png,images/cb_n.png,,,,,,,,,,,,,,,,,,,,,,,,,
,,,,,,00084,2023-10-22_16h09.29.217,vbt_B1_day1,2022.2.4,Win32,30.30027573,,,,,,,,,,,,,,,,,,,0.065740727,0.038888896,1,0,0,1.8673,6,22,178,3,1,d,images/br_d.png,images/cb_d.png,,,,,,,,,,,,,,,,,,,,,,,,,
,,,,,,00084,2023-10-22_16h09.29.217,vbt_B1_day1,2022.2.4,Win32,30.30027573,,,,,,,,,,,,,,,,,,,0.065740727,0.038888896,1,0,0,1.5348,6,23,179,9,1,j,images/br_j.png,images/cb_j.png,,,,,,,,,,,,,,,,,,,,,,,,,
,,,,,,00084,2023-10-22_16h09.29.217,vbt_B1_day1,2022.2.4,Win32,30.30027573,,,,,,,,,,,,,,,,,,,0.065740727,0.038888896,1,0,0,1.2348,6,24,180,14,1,o,images/br_o.png,images/cb_o.png,,,,,,,,,,,,,,,,,,,,,,,,,
,,,,,,00084,2023-10-22_16h09.29.217,vbt_B1_day1,2022.2.4,Win32,30.30027573,,,,,,,,,,,,,,,,,,,0.065740727,0.038888896,1,0,0,1.7671,6,25,181,2,1,c,images/br_c.png,images/cb_c.png,,,,,,,,,,,,,,,,,,,,,,,,,
,,,,,,00084,2023-10-22_16h09.29.217,vbt_B1_day1,2022.2.4,Win32,30.30027573,,,,,,,,,,,,,,,,,,,,,,,,,,,,,,,,,0.065740727,0.038888896,1,0,0,,,,,,,,,,,,,,,,,,,,
,,,,,,00084,2023-10-22_16h09.29.217,vbt_B1_day1,2022.2.4,Win32,30.30027573,,,,,,,,,,,,,,,,,,,,,,,,,,,,,,,,,,,,,,0.075925968,-0.055555556,1,0,0,,,,,,,,,,,,,,,
,,,,,,00084,2023-10-22_16h09.29.217,vbt_B1_day1,2022.2.4,Win32,30.30027573,,,,,,,,,,,,,,,,,,,,,,,,,,,,,,,,,,,,,,,,,,,0.075925968,-0.055555556,1,0,0,te...,te...,0,0,0,55,1,tekenen,images/br_tekenen.png,images/cb_tekenen.png
,,,,,,00084,2023-10-22_16h09.29.217,vbt_B1_day1,2022.2.4,Win32,30.30027573,,,,,,,,,,,,,,,,,,,,,,,,,,,,,,,,,,,,,,,,,,,0.075925968,-0.055555556,1,0,0,....,....,0,1,1,35,1,stuikem,images/br_stuikem.png,images/cb_stuikem.png
,,,,,,00084,2023-10-22_16h09.29.217,vbt_B1_day1,2022.2.4,Win32,30.30027573,,,,,,,,,,,,,,,,,,,,,,,,,,,,,,,,,,,,,,,,,,,0.075925968,-0.055555556,1,0,0,s...,s...,0,2,2,0,1,slak,images/br_slak.png,images/cb_slak.png
,,,,,,00084,2023-10-22_16h09.29.217,vbt_B1_day1,2022.2.4,Win32,30.30027573,,,,,,,,,,,,,,,,,,,,,,,,,,,,,,,,,,,,,,,,,,,0.075925968,-0.055555556,1,0,0,vo...,vo...,0,3,3,58,1,voorkeur,images/br_voorkeur.png,images/cb_voorkeur.png
,,,,,,00084,2023-10-22_16h09.29.217,vbt_B1_day1,2022.2.4,Win32,30.30027573,,,,,,,,,,,,,,,,,,,,,,,,,,,,,,,,,,,,,,,,,,,0.075925968,-0.055555556,1,0,0,h...,h...,0,4,4,9,1,dubbel,images/br_dubbel.png,images/cb_dubbel.png
,,,,,,00084,2023-10-22_16h09.29.217,vbt_B1_day1,2022.2.4,Win32,30.30027573,,,,,,,,,,,,,,,,,,,,,,,,,,,,,,,,,,,,,,,,,,,0.075925968,-0.055555556,1,0,0,st...,st...,0,5,5,31,1,stamen,images/br_stamen.png,images/cb_stamen.png
,,,,,,00084,2023-10-22_16h09.29.217,vbt_B1_day1,2022.2.4,Win32,30.30027573,,,,,,,,,,,,,,,,,,,,,,,,,,,,,,,,,,,,,,,,,,,0.075925968,-0.055555556,1,0,0,lie...,lie...,0,6,6,51,1,liefde,images/br_liefde.png,images/cb_liefde.png
,,,,,,00084,2023-10-22_16h09.29.217,vbt_B1_day1,2022.2.4,Win32,30.30027573,,,,,,,,,,,,,,,,,,,,,,,,,,,,,,,,,,,,,,,,,,,0.075925968,-0.055555556,1,0,0,ka,ka,0,7,7,8,1,kanjer,images/br_kanjer.png,images/cb_kanjer.png
,,,,,,00084,2023-10-22_16h09.29.217,vbt_B1_day1,2022.2.4,Win32,30.30027573,,,,,,,,,,,,,,,,,,,,,,,,,,,,,,,,,,,,,,,,,,,0.075925968,-0.055555556,1,0,0,br...,br...,0,8,8,25,1,brijk,images/br_brijk.png,images/cb_brijk.png
,,,,,,00084,2023-10-22_16h09.29.217,vbt_B1_day1,2022.2.4,Win32,30.30027573,,,,,,,,,,,,,,,,,,,,,,,,,,,,,,,,,,,,,,,,,,,0.075925968,-0.055555556,1,0,0,at...,at...,0,9,9,17,1,attentie,images/br_attentie.png,images/cb_attentie.png
,,,,,,00084,2023-10-22_16h09.29.217,vbt_B1_day1,2022.2.4,Win32,30.30027573,,,,,,,,,,,,,,,,,,,,,,,,,,,,,,,,,,,,,,,,,,,0.075925968,-0.055555556,1,0,0,he.e.,he.e.,0,10,10,45,1,hemel,images/br_hemel.png,images/cb_hemel.png
,,,,,,00084,2023-10-22_16h09.29.217,vbt_B1_day1,2022.2.4,Win32,30.30027573,,,,,,,,,,,,,,,,,,,,,,,,,,,,,,,,,,,,,,,,,,,0.075925968,-0.055555556,1,0,0,val...,val...,0,11,11,26,1,valop,images/br_valop.png,images/cb_valop.png
,,,,,,00084,2023-10-22_16h09.29.217,vbt_B1_day1,2022.2.4,Win32,30.30027573,,,,,,,,,,,,,,,,,,,,,,,,,,,,,,,,,,,,,,,,,,,0.075925968,-0.055555556,1,0,0,gen..,gen..,0,12,12,29,1,genond,images/br_genond.png,images/cb_genond.png
,,,,,,00084,2023-10-22_16h09.29.217,vbt_B1_day1,2022.2.4,Win32,30.30027573,,,,,,,,,,,,,,,,,,,,,,,,,,,,,,,,,,,,,,,,,,,0.075925968,-0.055555556,1,0,0,...,...,0,13,13,52,1,zuiplap,images/br_zuiplap.png,images/cb_zuiplap.png
,,,,,,00084,2023-10-22_16h09.29.217,vbt_B1_day1,2022.2.4,Win32,30.30027573,,,,,,,,,,,,,,,,,,,,,,,,,,,,,,,,,,,,,,,,,,,0.075925968,-0.055555556,1,0,0,vi.i,vi.i,0,14,14,49,1,vizier,images/br_vizier.png,images/cb_vizier.png
,,,,,,00084,2023-10-22_16h09.29.217,vbt_B1_day1,2022.2.4,Win32,30.30027573,,,,,,,,,,,,,,,,,,,,,,,,,,,,,,,,,,,,,,,,,,,0.075925968,-0.055555556,1,0,0,vij...,vij...,0,15,15,54,1,vijftig,images/br_vijftig.png,images/cb_vijftig.png
,,,,,,00084,2023-10-22_16h09.29.217,vbt_B1_day1,2022.2.4,Win32,30.30027573,,,,,,,,,,,,,,,,,,,,,,,,,,,,,,,,,,,,,,,,,,,0.075925968,-0.055555556,1,0,0,loo,loo,0,16,16,39,1,voorreur,images/br_voorreur.png,images/cb_voorreur.png
,,,,,,00084,2023-10-22_16h09.29.217,vbt_B1_day1,2022.2.4,Win32,30.30027573,,,,,,,,,,,,,,,,,,,,,,,,,,,,,,,,,,,,,,,,,,,0.075925968,-0.055555556,1,0,0,me...,me...,0,17,17,11,1,mening,images/br_mening.png,images/cb_mening.png
,,,,,,00084,2023-10-22_16h09.29.217,vbt_B1_day1,2022.2.4,Win32,30.30027573,,,,,,,,,,,,,,,,,,,,,,,,,,,,,,,,,,,,,,,,,,,0.075925968,-0.055555556,1,0,0,ti....,ti....,0,18,18,13,1,twijfel,images/br_twijfel.png,images/cb_twijfel.png
,,,,,,00084,2023-10-22_16h09.29.217,vbt_B1_day1,2022.2.4,Win32,30.30027573,,,,,,,,,,,,,,,,,,,,,,,,,,,,,,,,,,,,,,,,,,,0.075925968,-0.055555556,1,0,0,la...,la...,0,19,19,43,1,lava,images/br_lava.png,images/cb_lava.png
,,,,,,00084,2023-10-22_16h09.29.217,vbt_B1_day1,2022.2.4,Win32,30.30027573,,,,,,,,,,,,,,,,,,,,,,,,,,,,,,,,,,,,,,,,,,,0.075925968,-0.055555556,1,0,0,.e.e.,.e.e.,0,20,20,24,1,rezer,images/br_rezer.png,images/cb_rezer.png
,,,,,,00084,2023-10-22_16h09.29.217,vbt_B1_day1,2022.2.4,Win32,30.30027573,,,,,,,,,,,,,,,,,,,,,,,,,,,,,,,,,,,,,,,,,,,0.075925968,-0.055555556,1,0,0,s,s,0,21,21,19,1,schuilen,images/br_schuilen.png,images/cb_schuilen.png
,,,,,,00084,2023-10-22_16h09.29.217,vbt_B1_day1,2022.2.4,Win32,30.30027573,,,,,,,,,,,,,,,,,,,,,,,,,,,,,,,,,,,,,,,,,,,0.075925968,-0.055555556,1,0,0,dre..,dre..,0,22,22,21,1,dred,images/br_dred.png,images/cb_dred.png
,,,,,,00084,2023-10-22_16h09.29.217,vbt_B1_day1,2022.2.4,Win32,30.30027573,,,,,,,,,,,,,,,,,,,,,,,,,,,,,,,,,,,,,,,,,,,0.075925968,-0.055555556,1,0,0,ie,ie,0,23,23,15,1,hiervan,images/br_hiervan.png,images/cb_hiervan.png
,,,,,,00084,2023-10-22_16h09.29.217,vbt_B1_day1,2022.2.4,Win32,30.30027573,,,,,,,,,,,,,,,,,,,,,,,,,,,,,,,,,,,,,,,,,,,0.075925968,-0.055555556,1,0,0,,,0,24,24,3,1,mand,images/br_mand.png,images/cb_mand.png
,,,,,,00084,2023-10-22_16h09.29.217,vbt_B1_day1,2022.2.4,Win32,30.30027573,,,,,,,,,,,,,,,,,,,,,,,,,,,,,,,,,,,,,,,,,,,0.075925968,-0.055555556,1,0,0,ops...,ops...,0,25,25,53,1,opslaan,images/br_opslaan.png,images/cb_opslaan.png
,,,,,,00084,2023-10-22_16h09.29.217,vbt_B1_day1,2022.2.4,Win32,30.30027573,,,,,,,,,,,,,,,,,,,,,,,,,,,,,,,,,,,,,,,,,,,0.075925968,-0.055555556,1,0,0,opv...,opv...,0,26,26,59,1,opvatten,images/br_opvatten.png,images/cb_opvatten.png
,,,,,,00084,2023-10-22_16h09.29.217,vbt_B1_day1,2022.2.4,Win32,30.30027573,,,,,,,,,,,,,,,,,,,,,,,,,,,,,,,,,,,,,,,,,,,0.075925968,-0.055555556,1,0,0,pror...,pror...,0,27,27,27,1,prort,images/br_prort.png,images/cb_prort.png
,,,,,,00084,2023-10-22_16h09.29.217,vbt_B1_day1,2022.2.4,Win32,30.30027573,,,,,,,,,,,,,,,,,,,,,,,,,,,,,,,,,,,,,,,,,,,0.075925968,-0.055555556,1,0,0,fict...,fict...,0,28,28,48,1,fictie,images/br_fictie.png,images/cb_fictie.png
,,,,,,00084,2023-10-22_16h09.29.217,vbt_B1_day1,2022.2.4,Win32,30.30027573,,,,,,,,,,,,,,,,,,,,,,,,,,,,,,,,,,,,,,,,,,,0.075925968,-0.055555556,1,0,0,mok...,mok...,0,29,29,5,1,maken,images/br_maken.png,images/cb_maken.png
,,,,,,00084,2023-10-22_16h09.29.217,vbt_B1_day1,2022.2.4,Win32,30.30027573,,,,,,,,,,,,,,,,,,,,,,,,,,,,,,,,,,,,,,,,,,,0.075925968,-0.055555556,1,0,0,ver....,ver....,0,30,30,36,1,vervaden,images/br_vervaden.png,images/cb_vervaden.png
,,,,,,00084,2023-10-22_16h09.29.217,vbt_B1_day1,2022.2.4,Win32,30.30027573,,,,,,,,,,,,,,,,,,,,,,,,,,,,,,,,,,,,,,,,,,,0.075925968,-0.055555556,1,0,0,uit,uit,0,31,31,18,1,uitdelen,images/br_uitdelen.png,images/cb_uitdelen.png
,,,,,,00084,2023-10-22_16h09.29.217,vbt_B1_day1,2022.2.4,Win32,30.30027573,,,,,,,,,,,,,,,,,,,,,,,,,,,,,,,,,,,,,,,,,,,0.075925968,-0.055555556,1,0,0,leze.,leze.,0,32,32,46,1,lezen,images/br_lezen.png,images/cb_lezen.png
,,,,,,00084,2023-10-22_16h09.29.217,vbt_B1_day1,2022.2.4,Win32,30.30027573,,,,,,,,,,,,,,,,,,,,,,,,,,,,,,,,,,,,,,,,,,,0.075925968,-0.055555556,1,0,0,spa...,spa...,0,33,33,37,1,spanzing,images/br_spanzing.png,images/cb_spanzing.png
,,,,,,00084,2023-10-22_16h09.29.217,vbt_B1_day1,2022.2.4,Win32,30.30027573,,,,,,,,,,,,,,,,,,,,,,,,,,,,,,,,,,,,,,,,,,,0.075925968,-0.055555556,1,0,0,kl....,kl....,0,34,34,7,1,klauw,images/br_klauw.png,images/cb_klauw.png
,,,,,,00084,2023-10-22_16h09.29.217,vbt_B1_day1,2022.2.4,Win32,30.30027573,,,,,,,,,,,,,,,,,,,,,,,,,,,,,,,,,,,,,,,,,,,0.075925968,-0.055555556,1,0,0,oppl..,oppl..,0,35,35,32,1,opplaan,images/br_opplaan.png,images/cb_opplaan.png
,,,,,,00084,2023-10-22_16h09.29.217,vbt_B1_day1,2022.2.4,Win32,30.30027573,,,,,,,,,,,,,,,,,,,,,,,,,,,,,,,,,,,,,,,,,,,0.074999986,-0.057407414,1,0,0,booi,booi,0,36,36,23,1,booi,images/br_booi.png,images/cb_booi.png
,,,,,,00084,2023-10-22_16h09.29.217,vbt_B1_day1,2022.2.4,Win32,30.30027573,,,,,,,,,,,,,,,,,,,,,,,,,,,,,,,,,,,,,,,,,,,0.074999986,-0.057407414,1,0,0,dief,dief,0,37,37,40,1,dief,images/br_dief.png,images/cb_dief.png
,,,,,,00084,2023-10-22_16h09.29.217,vbt_B1_day1,2022.2.4,Win32,30.30027573,,,,,,,,,,,,,,,,,,,,,,,,,,,,,,,,,,,,,,,,,,,0.074999986,-0.057407414,1,0,0,,,0,38,38,10,1,muziek,images/br_muziek.png,images/cb_muziek.png
,,,,,,00084,2023-10-22_16h09.29.217,vbt_B1_day1,2022.2.4,Win32,30.30027573,,,,,,,,,,,,,,,,,,,,,,,,,,,,,,,,,,,,,,,,,,,0.074999986,-0.057407414,1,0,0,fl,fl,0,39,39,33,1,flullen,images/br_flullen.png,images/cb_flullen.png
,,,,,,00084,2023-10-22_16h09.29.217,vbt_B1_day1,2022.2.4,Win32,30.30027573,,,,,,,,,,,,,,,,,,,,,,,,,,,,,,,,,,,,,,,,,,,0.074999986,-0.057407414,1,0,0,st,st,0,40,40,42,1,stuk,images/br_stuk.png,images/cb_stuk.png
,,,,,,00084,2023-10-22_16h09.29.217,vbt_B1_day1,2022.2.4,Win32,30.30027573,,,,,,,,,,,,,,,,,,,,,,,,,,,,,,,,,,,,,,,,,,,0.074999986,-0.057407414,1,0,0,daa,daa,0,41,41,16,1,daarheen,images/br_daarheen.png,images/cb_daarheen.png
,,,,,,00084,2023-10-22_16h09.29.217,vbt_B1_day1,2022.2.4,Win32,30.30027573,,,,,,,,,,,,,,,,,,,,,,,,,,,,,,,,,,,,,,,,,,,0.074999986,-0.057407414,1,0,0,meen,meen,0,42,42,57,1,meenemen,images/br_meenemen.png,images/cb_meenemen.png
,,,,,,00084,2023-10-22_16h09.29.217,vbt_B1_day1,2022.2.4,Win32,30.30027573,,,,,,,,,,,,,,,,,,,,,,,,,,,,,,,,,,,,,,,,,,,0.074999986,-0.057407414,1,0,0,jaar,jaar,0,43,43,2,1,jaar,images/br_jaar.png,images/cb_jaar.png
,,,,,,00084,2023-10-22_16h09.29.217,vbt_B1_day1,2022.2.4,Win32,30.30027573,,,,,,,,,,,,,,,,,,,,,,,,,,,,,,,,,,,,,,,,,,,0.074999986,-0.057407414,1,0,0,sc,sc,0,44,44,38,1,schielen,images/br_schielen.png,images/cb_schielen.png
,,,,,,00084,2023-10-22_16h09.29.217,vbt_B1_day1,2022.2.4,Win32,30.30027573,,,,,,,,,,,,,,,,,,,,,,,,,,,,,,,,,,,,,,,,,,,0.074999986,-0.057407414,1,0,0,k,k,0,45,45,22,1,knoe,images/br_knoe.png,images/cb_knoe.png
,,,,,,00084,2023-10-22_16h09.29.217,vbt_B1_day1,2022.2.4,Win32,30.30027573,,,,,,,,,,,,,,,,,,,,,,,,,,,,,,,,,,,,,,,,,,,0.074999986,-0.057407414,1,0,0,lieg,lieg,0,46,46,50,1,liegen,images/br_liegen.png,images/cb_liegen.png
,,,,,,00084,2023-10-22_16h09.29.217,vbt_B1_day1,2022.2.4,Win32,30.30027573,,,,,,,,,,,,,,,,,,,,,,,,,,,,,,,,,,,,,,,,,,,0.074999986,-0.057407414,1,0,0,h,h,0,47,47,41,1,hoog,images/br_hoog.png,images/cb_hoog.png
,,,,,,00084,2023-10-22_16h09.29.217,vbt_B1_day1,2022.2.4,Win32,30.30027573,,,,,,,,,,,,,,,,,,,,,,,,,,,,,,,,,,,,,,,,,,,0.074999986,-0.057407414,1,0,0,kli,kli,0,48,48,12,1,klimmen,images/br_klimmen.png,images/cb_klimmen.png
,,,,,,00084,2023-10-22_16h09.29.217,vbt_B1_day1,2022.2.4,Win32,30.30027573,,,,,,,,,,,,,,,,,,,,,,,,,,,,,,,,,,,,,,,,,,,-0.10555557,0.062037044,1,0,0,tar,tar,0,49,49,20,1,tars,images/br_tars.png,images/cb_tars.png
,,,,,,00084,2023-10-22_16h09.29.217,vbt_B1_day1,2022.2.4,Win32,30.30027573,,,,,,,,,,,,,,,,,,,,,,,,,,,,,,,,,,,,,,,,,,,-0.103703675,0.060185185,1,0,0,toe,toe,0,50,50,56,1,toezicht,images/br_toezicht.png,images/cb_toezicht.png
,,,,,,00084,2023-10-22_16h09.29.217,vbt_B1_day1,2022.2.4,Win32,30.30027573,,,,,,,,,,,,,,,,,,,,,,,,,,,,,,,,,,,,,,,,,,,-0.103703675,0.060185185,1,0,0,reed,reed,0,51,51,30,1,reedje,images/br_reedje.png,images/cb_reedje.png
,,,,,,00084,2023-10-22_16h09.29.217,vbt_B1_day1,2022.2.4,Win32,30.30027573,,,,,,,,,,,,,,,,,,,,,,,,,,,,,,,,,,,,,,,,,,,-0.103703675,0.060185185,1,0,0,.aal,.aal,0,52,52,1,1,zaal,images/br_zaal.png,images/cb_zaal.png
,,,,,,00084,2023-10-22_16h09.29.217,vbt_B1_day1,2022.2.4,Win32,30.30027573,,,,,,,,,,,,,,,,,,,,,,,,,,,,,,,,,,,,,,,,,,,-0.103703675,0.060185185,1,0,0,bec,bec,0,53,53,28,1,bebrip,images/br_bebrip.png,images/cb_bebrip.png
,,,,,,00084,2023-10-22_16h09.29.217,vbt_B1_day1,2022.2.4,Win32,30.30027573,,,,,,,,,,,,,,,,,,,,,,,,,,,,,,,,,,,,,,,,,,,-0.103703675,0.060185185,1,0,0,lood,lood,0,54,54,47,1,loods,images/br_loods.png,images/cb_loods.png
,,,,,,00084,2023-10-22_16h09.29.217,vbt_B1_day1,2022.2.4,Win32,30.30027573,,,,,,,,,,,,,,,,,,,,,,,,,,,,,,,,,,,,,,,,,,,-0.103703675,0.060185185,1,0,0,.c,.c,0,55,55,4,1,schep,images/br_schep.png,images/cb_schep.png
,,,,,,00084,2023-10-22_16h09.29.217,vbt_B1_day1,2022.2.4,Win32,30.30027573,,,,,,,,,,,,,,,,,,,,,,,,,,,,,,,,,,,,,,,,,,,-0.103703675,0.060185185,1,0,0,w,w,0,56,56,44,1,wijze,images/br_wijze.png,images/cb_wijze.png
,,,,,,00084,2023-10-22_16h09.29.217,vbt_B1_day1,2022.2.4,Win32,30.30027573,,,,,,,,,,,,,,,,,,,,,,,,,,,,,,,,,,,,,,,,,,,-0.103703675,0.060185185,1,0,0,loc,loc,0,57,57,34,1,lochten,images/br_lochten.png,images/cb_lochten.png
,,,,,,00084,2023-10-22_16h09.29.217,vbt_B1_day1,2022.2.4,Win32,30.30027573,,,,,,,,,,,,,,,,,,,,,,,,,,,,,,,,,,,,,,,,,,,-0.103703675,0.060185185,1,0,0,bleek,bleek,0,58,58,6,1,bleek,images/br_bleek.png,images/cb_bleek.png
,,,,,,00084,2023-10-22_16h09.29.217,vbt_B1_day1,2022.2.4,Win32,30.30027573,,,,,,,,,,,,,,,,,,,,,,,,,,,,,,,,,,,,,,,,,,,-0.103703675,0.060185185,1,0,0,waa,waa,0,59,59,14,1,waarvan,images/br_waarvan.png,images/cb_waarvan.png
,,,,,,00084,2023-10-22_16h09.29.217,vbt_B1_day1,2022.2.4,Win32,30.30027573,,,,,,,,,,,,,,,,,,,,,,,,,,,,,,,,,,,,,,,,,,,,,,,,,,,,,,,,,
