welcome_mouse.x,welcome_mouse.y,welcome_mouse.leftButton,welcome_mouse.midButton,welcome_mouse.rightButton,welcome_mouse.time,"ID",date,expName,psychopyVersion,OS,frameRate,participant,mouse_2.x,mouse_2.y,mouse_2.leftButton,mouse_2.midButton,mouse_2.rightButton,mouse_2.time,mouse_3.x,mouse_3.y,mouse_3.leftButton,mouse_3.midButton,mouse_3.rightButton,mouse_3.time,train_mouse.x,train_mouse.y,train_mouse.leftButton,train_mouse.midButton,train_mouse.rightButton,train_mouse.time,braille_mouse.x,braille_mouse.y,braille_mouse.leftButton,braille_mouse.midButton,braille_mouse.rightButton,braille_mouse.time,trials.thisRepN,trials.thisTrialN,trials.thisN,trials.thisIndex,trials.ran,nlLet,brLet,cbLet,mouse.x,mouse.y,mouse.leftButton,mouse.midButton,mouse.rightButton,testInstr_mouse.x,testInstr_mouse.y,testInstr_mouse.leftButton,testInstr_mouse.midButton,testInstr_mouse.rightButton,test_mouse.x,test_mouse.y,test_mouse.leftButton,test_mouse.midButton,test_mouse.rightButton,test_response.text,testResp,test_loop.thisRepN,test_loop.thisTrialN,test_loop.thisN,test_loop.thisIndex,test_loop.ran,nlWrd,brWrd,cbWrd
0.093518504,-0.059259273,1,0,0,33.761,55888,2023-09-24_13h34.28.163,vbt_B1_day1,2022.2.4,Win32,59.54862145,55888,,,,,,,,,,,,,,,,,,,,,,,,,,,,,,,,,,,,,,,,,,,,,,,,,,,,,,,,,
,,,,,,55888,2023-09-24_13h34.28.163,vbt_B1_day1,2022.2.4,Win32,59.54862145,55888,0.005555541,-0.217592593,1,0,0,13.429,,,,,,,,,,,,,,,,,,,,,,,,,,,,,,,,,,,,,,,,,,,,,,,,,,,
,,,,,,55888,2023-09-24_13h34.28.163,vbt_B1_day1,2022.2.4,Win32,59.54862145,55888,,,,,,,0.145370413,-0.27870369,1,0,0,58.5144,,,,,,,,,,,,,,,,,,,,,,,,,,,,,,,,,,,,,,,,,,,,,
,,,,,,55888,2023-09-24_13h34.28.163,vbt_B1_day1,2022.2.4,Win32,59.54862145,55888,,,,,,,,,,,,,0.157407407,-0.025000007,1,0,0,40.1534,,,,,,,,,,,,,,,,,,,,,,,,,,,,,,,,,,,,,,,
,,,,,,55888,2023-09-24_13h34.28.163,vbt_B1_day1,2022.2.4,Win32,59.54862145,55888,,,,,,,,,,,,,,,,,,,0.14907406,-0.166666667,1,0,0,6.7499,0,0,0,20,1,u,images/br_u.png,images/cb_u.png,,,,,,,,,,,,,,,,,,,,,,,,,
,,,,,,55888,2023-09-24_13h34.28.163,vbt_B1_day1,2022.2.4,Win32,59.54862145,55888,,,,,,,,,,,,,,,,,,,0.136111153,-0.165740755,1,0,0,3.8335,0,1,1,21,1,v,images/br_v.png,images/cb_v.png,,,,,,,,,,,,,,,,,,,,,,,,,
,,,,,,55888,2023-09-24_13h34.28.163,vbt_B1_day1,2022.2.4,Win32,59.54862145,55888,,,,,,,,,,,,,,,,,,,0.115740741,-0.228703746,1,0,0,9.2338,0,2,2,13,1,n,images/br_n.png,images/cb_n.png,,,,,,,,,,,,,,,,,,,,,,,,,
,,,,,,55888,2023-09-24_13h34.28.163,vbt_B1_day1,2022.2.4,Win32,59.54862145,55888,,,,,,,,,,,,,,,,,,,0.115740741,-0.228703746,1,0,0,7.1508,0,3,3,15,1,p,images/br_p.png,images/cb_p.png,,,,,,,,,,,,,,,,,,,,,,,,,
,,,,,,55888,2023-09-24_13h34.28.163,vbt_B1_day1,2022.2.4,Win32,59.54862145,55888,,,,,,,,,,,,,,,,,,,0.126851894,-0.165740755,1,0,0,4.8659,0,4,4,23,1,x,images/br_x.png,images/cb_x.png,,,,,,,,,,,,,,,,,,,,,,,,,
,,,,,,55888,2023-09-24_13h34.28.163,vbt_B1_day1,2022.2.4,Win32,59.54862145,55888,,,,,,,,,,,,,,,,,,,0.193518533,-0.167592578,1,0,0,5.9332,0,5,5,0,1,a,images/br_a.png,images/cb_a.png,,,,,,,,,,,,,,,,,,,,,,,,,
,,,,,,55888,2023-09-24_13h34.28.163,vbt_B1_day1,2022.2.4,Win32,59.54862145,55888,,,,,,,,,,,,,,,,,,,0.180555556,-0.217592593,1,0,0,3.5834,0,6,6,3,1,d,images/br_d.png,images/cb_d.png,,,,,,,,,,,,,,,,,,,,,,,,,
,,,,,,55888,2023-09-24_13h34.28.163,vbt_B1_day1,2022.2.4,Win32,59.54862145,55888,,,,,,,,,,,,,,,,,,,0.257407436,-0.239814829,1,0,0,4.1504,0,7,7,10,1,k,images/br_k.png,images/cb_k.png,,,,,,,,,,,,,,,,,,,,,,,,,
,,,,,,55888,2023-09-24_13h34.28.163,vbt_B1_day1,2022.2.4,Win32,59.54862145,55888,,,,,,,,,,,,,,,,,,,0.222222222,-0.204629616,1,0,0,4.8999,0,8,8,11,1,l,images/br_l.png,images/cb_l.png,,,,,,,,,,,,,,,,,,,,,,,,,
,,,,,,55888,2023-09-24_13h34.28.163,vbt_B1_day1,2022.2.4,Win32,59.54862145,55888,,,,,,,,,,,,,,,,,,,0.214814857,-0.207407422,1,0,0,2.0494,0,9,9,2,1,c,images/br_c.png,images/cb_c.png,,,,,,,,,,,,,,,,,,,,,,,,,
,,,,,,55888,2023-09-24_13h34.28.163,vbt_B1_day1,2022.2.4,Win32,59.54862145,55888,,,,,,,,,,,,,,,,,,,0.178703732,-0.212962963,1,0,0,1.6163,0,10,10,17,1,r,images/br_r.png,images/cb_r.png,,,,,,,,,,,,,,,,,,,,,,,,,
,,,,,,55888,2023-09-24_13h34.28.163,vbt_B1_day1,2022.2.4,Win32,59.54862145,55888,,,,,,,,,,,,,,,,,,,0.22592594,-0.279629672,1,0,0,5.6336,0,11,11,24,1,y,images/br_y.png,images/cb_y.png,,,,,,,,,,,,,,,,,,,,,,,,,
,,,,,,55888,2023-09-24_13h34.28.163,vbt_B1_day1,2022.2.4,Win32,59.54862145,55888,,,,,,,,,,,,,,,,,,,0.185185185,-0.264814801,1,0,0,3.4328,0,12,12,4,1,e,images/br_e.png,images/cb_e.png,,,,,,,,,,,,,,,,,,,,,,,,,
,,,,,,55888,2023-09-24_13h34.28.163,vbt_B1_day1,2022.2.4,Win32,59.54862145,55888,,,,,,,,,,,,,,,,,,,0.199074074,-0.287037037,1,0,0,7.5835,0,13,13,9,1,j,images/br_j.png,images/cb_j.png,,,,,,,,,,,,,,,,,,,,,,,,,
,,,,,,55888,2023-09-24_13h34.28.163,vbt_B1_day1,2022.2.4,Win32,59.54862145,55888,,,,,,,,,,,,,,,,,,,0.29814812,-0.266666695,1,0,0,2.116,0,14,14,12,1,m,images/br_m.png,images/cb_m.png,,,,,,,,,,,,,,,,,,,,,,,,,
,,,,,,55888,2023-09-24_13h34.28.163,vbt_B1_day1,2022.2.4,Win32,59.54862145,55888,,,,,,,,,,,,,,,,,,,0.17777782,-0.168518561,1,0,0,4.7498,0,15,15,5,1,f,images/br_f.png,images/cb_f.png,,,,,,,,,,,,,,,,,,,,,,,,,
,,,,,,55888,2023-09-24_13h34.28.163,vbt_B1_day1,2022.2.4,Win32,59.54862145,55888,,,,,,,,,,,,,,,,,,,0.184259273,-0.160185213,1,0,0,2.0149,0,16,16,1,1,b,images/br_b.png,images/cb_b.png,,,,,,,,,,,,,,,,,,,,,,,,,
,,,,,,55888,2023-09-24_13h34.28.163,vbt_B1_day1,2022.2.4,Win32,59.54862145,55888,,,,,,,,,,,,,,,,,,,0.207407422,-0.081481474,1,0,0,6.5501,0,17,17,7,1,h,images/br_h.png,images/cb_h.png,,,,,,,,,,,,,,,,,,,,,,,,,
,,,,,,55888,2023-09-24_13h34.28.163,vbt_B1_day1,2022.2.4,Win32,59.54862145,55888,,,,,,,,,,,,,,,,,,,0.243518547,-0.174074102,1,0,0,7.9486,0,18,18,22,1,w,images/br_w.png,images/cb_w.png,,,,,,,,,,,,,,,,,,,,,,,,,
,,,,,,55888,2023-09-24_13h34.28.163,vbt_B1_day1,2022.2.4,Win32,59.54862145,55888,,,,,,,,,,,,,,,,,,,0.175925926,-0.168518561,1,0,0,2.6001,0,19,19,14,1,o,images/br_o.png,images/cb_o.png,,,,,,,,,,,,,,,,,,,,,,,,,
,,,,,,55888,2023-09-24_13h34.28.163,vbt_B1_day1,2022.2.4,Win32,59.54862145,55888,,,,,,,,,,,,,,,,,,,0.235185199,-0.150000042,1,0,0,3.3667,0,20,20,8,1,i,images/br_i.png,images/cb_i.png,,,,,,,,,,,,,,,,,,,,,,,,,
,,,,,,55888,2023-09-24_13h34.28.163,vbt_B1_day1,2022.2.4,Win32,59.54862145,55888,,,,,,,,,,,,,,,,,,,0.305555556,-0.138888889,1,0,0,4.9002,0,21,21,19,1,t,images/br_t.png,images/cb_t.png,,,,,,,,,,,,,,,,,,,,,,,,,
,,,,,,55888,2023-09-24_13h34.28.163,vbt_B1_day1,2022.2.4,Win32,59.54862145,55888,,,,,,,,,,,,,,,,,,,0.283333319,-0.22129631,1,0,0,6.7331,0,22,22,25,1,z,images/br_z.png,images/cb_z.png,,,,,,,,,,,,,,,,,,,,,,,,,
,,,,,,55888,2023-09-24_13h34.28.163,vbt_B1_day1,2022.2.4,Win32,59.54862145,55888,,,,,,,,,,,,,,,,,,,0.217592593,-0.134259259,1,0,0,2.2658,0,23,23,16,1,q,images/br_q.png,images/cb_q.png,,,,,,,,,,,,,,,,,,,,,,,,,
,,,,,,55888,2023-09-24_13h34.28.163,vbt_B1_day1,2022.2.4,Win32,59.54862145,55888,,,,,,,,,,,,,,,,,,,0.217592593,-0.134259259,1,0,0,4.383,0,24,24,18,1,s,images/br_s.png,images/cb_s.png,,,,,,,,,,,,,,,,,,,,,,,,,
,,,,,,55888,2023-09-24_13h34.28.163,vbt_B1_day1,2022.2.4,Win32,59.54862145,55888,,,,,,,,,,,,,,,,,,,0.217592593,-0.134259259,1,0,0,2.5833,0,25,25,6,1,g,images/br_g.png,images/cb_g.png,,,,,,,,,,,,,,,,,,,,,,,,,
,,,,,,55888,2023-09-24_13h34.28.163,vbt_B1_day1,2022.2.4,Win32,59.54862145,55888,,,,,,,,,,,,,,,,,,,0.217592593,-0.134259259,1,0,0,4.7177,1,0,26,16,1,q,images/br_q.png,images/cb_q.png,,,,,,,,,,,,,,,,,,,,,,,,,
,,,,,,55888,2023-09-24_13h34.28.163,vbt_B1_day1,2022.2.4,Win32,59.54862145,55888,,,,,,,,,,,,,,,,,,,0.217592593,-0.134259259,1,0,0,0.3496,1,1,27,8,1,i,images/br_i.png,images/cb_i.png,,,,,,,,,,,,,,,,,,,,,,,,,
,,,,,,55888,2023-09-24_13h34.28.163,vbt_B1_day1,2022.2.4,Win32,59.54862145,55888,,,,,,,,,,,,,,,,,,,0.217592593,-0.134259259,1,0,0,0.4663,1,2,28,21,1,v,images/br_v.png,images/cb_v.png,,,,,,,,,,,,,,,,,,,,,,,,,
,,,,,,55888,2023-09-24_13h34.28.163,vbt_B1_day1,2022.2.4,Win32,59.54862145,55888,,,,,,,,,,,,,,,,,,,0.217592593,-0.134259259,1,0,0,0.1998,1,3,29,19,1,t,images/br_t.png,images/cb_t.png,,,,,,,,,,,,,,,,,,,,,,,,,
,,,,,,55888,2023-09-24_13h34.28.163,vbt_B1_day1,2022.2.4,Win32,59.54862145,55888,,,,,,,,,,,,,,,,,,,0.217592593,-0.134259259,1,0,0,0.5664,1,4,30,20,1,u,images/br_u.png,images/cb_u.png,,,,,,,,,,,,,,,,,,,,,,,,,
,,,,,,55888,2023-09-24_13h34.28.163,vbt_B1_day1,2022.2.4,Win32,59.54862145,55888,,,,,,,,,,,,,,,,,,,0.217592593,-0.134259259,1,0,0,3.3162,1,5,31,18,1,s,images/br_s.png,images/cb_s.png,,,,,,,,,,,,,,,,,,,,,,,,,
,,,,,,55888,2023-09-24_13h34.28.163,vbt_B1_day1,2022.2.4,Win32,59.54862145,55888,,,,,,,,,,,,,,,,,,,0.217592593,-0.134259259,1,0,0,2.8508,1,6,32,9,1,j,images/br_j.png,images/cb_j.png,,,,,,,,,,,,,,,,,,,,,,,,,
,,,,,,55888,2023-09-24_13h34.28.163,vbt_B1_day1,2022.2.4,Win32,59.54862145,55888,,,,,,,,,,,,,,,,,,,0.217592593,-0.134259259,1,0,0,0.1657,1,7,33,2,1,c,images/br_c.png,images/cb_c.png,,,,,,,,,,,,,,,,,,,,,,,,,
,,,,,,55888,2023-09-24_13h34.28.163,vbt_B1_day1,2022.2.4,Win32,59.54862145,55888,,,,,,,,,,,,,,,,,,,0.217592593,-0.134259259,1,0,0,0.6991,1,8,34,0,1,a,images/br_a.png,images/cb_a.png,,,,,,,,,,,,,,,,,,,,,,,,,
,,,,,,55888,2023-09-24_13h34.28.163,vbt_B1_day1,2022.2.4,Win32,59.54862145,55888,,,,,,,,,,,,,,,,,,,0.217592593,-0.134259259,1,0,0,1.216,1,9,35,17,1,r,images/br_r.png,images/cb_r.png,,,,,,,,,,,,,,,,,,,,,,,,,
,,,,,,55888,2023-09-24_13h34.28.163,vbt_B1_day1,2022.2.4,Win32,59.54862145,55888,,,,,,,,,,,,,,,,,,,0.185185185,-0.040740755,1,0,0,1.1661,1,10,36,13,1,n,images/br_n.png,images/cb_n.png,,,,,,,,,,,,,,,,,,,,,,,,,
,,,,,,55888,2023-09-24_13h34.28.163,vbt_B1_day1,2022.2.4,Win32,59.54862145,55888,,,,,,,,,,,,,,,,,,,0.224074116,-0.178703732,1,0,0,3.7333,1,11,37,12,1,m,images/br_m.png,images/cb_m.png,,,,,,,,,,,,,,,,,,,,,,,,,
,,,,,,55888,2023-09-24_13h34.28.163,vbt_B1_day1,2022.2.4,Win32,59.54862145,55888,,,,,,,,,,,,,,,,,,,0.187962991,-0.194444444,1,0,0,3.4332,1,12,38,24,1,y,images/br_y.png,images/cb_y.png,,,,,,,,,,,,,,,,,,,,,,,,,
,,,,,,55888,2023-09-24_13h34.28.163,vbt_B1_day1,2022.2.4,Win32,59.54862145,55888,,,,,,,,,,,,,,,,,,,0.251851894,-0.098148134,1,0,0,1.5004,1,13,39,10,1,k,images/br_k.png,images/cb_k.png,,,,,,,,,,,,,,,,,,,,,,,,,
,,,,,,55888,2023-09-24_13h34.28.163,vbt_B1_day1,2022.2.4,Win32,59.54862145,55888,,,,,,,,,,,,,,,,,,,0.175925926,-0.080555563,1,0,0,18.7509,1,14,40,6,1,g,images/br_g.png,images/cb_g.png,,,,,,,,,,,,,,,,,,,,,,,,,
,,,,,,55888,2023-09-24_13h34.28.163,vbt_B1_day1,2022.2.4,Win32,59.54862145,55888,,,,,,,,,,,,,,,,,,,0.199999986,-0.055555556,1,0,0,9.2504,1,15,41,25,1,z,images/br_z.png,images/cb_z.png,,,,,,,,,,,,,,,,,,,,,,,,,
,,,,,,55888,2023-09-24_13h34.28.163,vbt_B1_day1,2022.2.4,Win32,59.54862145,55888,,,,,,,,,,,,,,,,,,,0.162962949,-0.131481524,1,0,0,2.3499,1,16,42,22,1,w,images/br_w.png,images/cb_w.png,,,,,,,,,,,,,,,,,,,,,,,,,
,,,,,,55888,2023-09-24_13h34.28.163,vbt_B1_day1,2022.2.4,Win32,59.54862145,55888,,,,,,,,,,,,,,,,,,,0.137962977,0.00462963,1,0,0,0.8835,1,17,43,7,1,h,images/br_h.png,images/cb_h.png,,,,,,,,,,,,,,,,,,,,,,,,,
,,,,,,55888,2023-09-24_13h34.28.163,vbt_B1_day1,2022.2.4,Win32,59.54862145,55888,,,,,,,,,,,,,,,,,,,0.142592607,-0.044444437,1,0,0,2.6172,1,18,44,15,1,p,images/br_p.png,images/cb_p.png,,,,,,,,,,,,,,,,,,,,,,,,,
,,,,,,55888,2023-09-24_13h34.28.163,vbt_B1_day1,2022.2.4,Win32,59.54862145,55888,,,,,,,,,,,,,,,,,,,0.147222236,0.03148146,1,0,0,0.9834,1,19,45,14,1,o,images/br_o.png,images/cb_o.png,,,,,,,,,,,,,,,,,,,,,,,,,
,,,,,,55888,2023-09-24_13h34.28.163,vbt_B1_day1,2022.2.4,Win32,59.54862145,55888,,,,,,,,,,,,,,,,,,,0.338888945,0.12962963,1,0,0,4.8839,1,20,46,3,1,d,images/br_d.png,images/cb_d.png,,,,,,,,,,,,,,,,,,,,,,,,,
,,,,,,55888,2023-09-24_13h34.28.163,vbt_B1_day1,2022.2.4,Win32,59.54862145,55888,,,,,,,,,,,,,,,,,,,0.229629658,0.005555541,1,0,0,0.2007,1,21,47,4,1,e,images/br_e.png,images/cb_e.png,,,,,,,,,,,,,,,,,,,,,,,,,
,,,,,,55888,2023-09-24_13h34.28.163,vbt_B1_day1,2022.2.4,Win32,59.54862145,55888,,,,,,,,,,,,,,,,,,,0.196296339,-0.098148134,1,0,0,1.5662,1,22,48,23,1,x,images/br_x.png,images/cb_x.png,,,,,,,,,,,,,,,,,,,,,,,,,
,,,,,,55888,2023-09-24_13h34.28.163,vbt_B1_day1,2022.2.4,Win32,59.54862145,55888,,,,,,,,,,,,,,,,,,,0.199999986,0.006481489,1,0,0,0.3829,1,23,49,11,1,l,images/br_l.png,images/cb_l.png,,,,,,,,,,,,,,,,,,,,,,,,,
,,,,,,55888,2023-09-24_13h34.28.163,vbt_B1_day1,2022.2.4,Win32,59.54862145,55888,,,,,,,,,,,,,,,,,,,0.106481481,0.013888889,1,0,0,1.9833,1,24,50,1,1,b,images/br_b.png,images/cb_b.png,,,,,,,,,,,,,,,,,,,,,,,,,
,,,,,,55888,2023-09-24_13h34.28.163,vbt_B1_day1,2022.2.4,Win32,59.54862145,55888,,,,,,,,,,,,,,,,,,,0.125925912,0.039814808,1,0,0,0.6331,1,25,51,5,1,f,images/br_f.png,images/cb_f.png,,,,,,,,,,,,,,,,,,,,,,,,,
,,,,,,55888,2023-09-24_13h34.28.163,vbt_B1_day1,2022.2.4,Win32,59.54862145,55888,,,,,,,,,,,,,,,,,,,0.118518547,0.077777757,1,0,0,0.2002,2,0,52,13,1,n,images/br_n.png,images/cb_n.png,,,,,,,,,,,,,,,,,,,,,,,,,
,,,,,,55888,2023-09-24_13h34.28.163,vbt_B1_day1,2022.2.4,Win32,59.54862145,55888,,,,,,,,,,,,,,,,,,,0.191666709,0.02407406,1,0,0,0.1165,2,1,53,0,1,a,images/br_a.png,images/cb_a.png,,,,,,,,,,,,,,,,,,,,,,,,,
,,,,,,55888,2023-09-24_13h34.28.163,vbt_B1_day1,2022.2.4,Win32,59.54862145,55888,,,,,,,,,,,,,,,,,,,0.208333333,0.023148148,1,0,0,0.0334,2,2,54,14,1,o,images/br_o.png,images/cb_o.png,,,,,,,,,,,,,,,,,,,,,,,,,
,,,,,,55888,2023-09-24_13h34.28.163,vbt_B1_day1,2022.2.4,Win32,59.54862145,55888,,,,,,,,,,,,,,,,,,,0.30277775,-0.106481481,1,0,0,1.3493,2,3,55,4,1,e,images/br_e.png,images/cb_e.png,,,,,,,,,,,,,,,,,,,,,,,,,
,,,,,,55888,2023-09-24_13h34.28.163,vbt_B1_day1,2022.2.4,Win32,59.54862145,55888,,,,,,,,,,,,,,,,,,,0.391666695,-0.019444466,1,0,0,0.4166,2,4,56,7,1,h,images/br_h.png,images/cb_h.png,,,,,,,,,,,,,,,,,,,,,,,,,
,,,,,,55888,2023-09-24_13h34.28.163,vbt_B1_day1,2022.2.4,Win32,59.54862145,55888,,,,,,,,,,,,,,,,,,,0.218518504,-0.152777778,1,0,0,0.5498,2,5,57,23,1,x,images/br_x.png,images/cb_x.png,,,,,,,,,,,,,,,,,,,,,,,,,
,,,,,,55888,2023-09-24_13h34.28.163,vbt_B1_day1,2022.2.4,Win32,59.54862145,55888,,,,,,,,,,,,,,,,,,,0.162962949,0.0074074,1,0,0,0.7656,2,6,58,24,1,y,images/br_y.png,images/cb_y.png,,,,,,,,,,,,,,,,,,,,,,,,,
,,,,,,55888,2023-09-24_13h34.28.163,vbt_B1_day1,2022.2.4,Win32,59.54862145,55888,,,,,,,,,,,,,,,,,,,0.332407492,-0.123148176,1,0,0,0.5333,2,7,59,16,1,q,images/br_q.png,images/cb_q.png,,,,,,,,,,,,,,,,,,,,,,,,,
,,,,,,55888,2023-09-24_13h34.28.163,vbt_B1_day1,2022.2.4,Win32,59.54862145,55888,,,,,,,,,,,,,,,,,,,0.294444473,-0.068518533,1,0,0,0.4173,2,8,60,5,1,f,images/br_f.png,images/cb_f.png,,,,,,,,,,,,,,,,,,,,,,,,,
,,,,,,55888,2023-09-24_13h34.28.163,vbt_B1_day1,2022.2.4,Win32,59.54862145,55888,,,,,,,,,,,,,,,,,,,0.289814843,-0.156481496,1,0,0,0.2514,2,9,61,8,1,i,images/br_i.png,images/cb_i.png,,,,,,,,,,,,,,,,,,,,,,,,,
,,,,,,55888,2023-09-24_13h34.28.163,vbt_B1_day1,2022.2.4,Win32,59.54862145,55888,,,,,,,,,,,,,,,,,,,0.286111125,-0.036111125,1,0,0,1.4175,2,10,62,20,1,u,images/br_u.png,images/cb_u.png,,,,,,,,,,,,,,,,,,,,,,,,,
,,,,,,55888,2023-09-24_13h34.28.163,vbt_B1_day1,2022.2.4,Win32,59.54862145,55888,,,,,,,,,,,,,,,,,,,0.226851852,-0.099074116,1,0,0,0.9833,2,11,63,3,1,d,images/br_d.png,images/cb_d.png,,,,,,,,,,,,,,,,,,,,,,,,,
,,,,,,55888,2023-09-24_13h34.28.163,vbt_B1_day1,2022.2.4,Win32,59.54862145,55888,,,,,,,,,,,,,,,,,,,0.283333319,-0.032407407,1,0,0,2.3677,2,12,64,15,1,p,images/br_p.png,images/cb_p.png,,,,,,,,,,,,,,,,,,,,,,,,,
,,,,,,55888,2023-09-24_13h34.28.163,vbt_B1_day1,2022.2.4,Win32,59.54862145,55888,,,,,,,,,,,,,,,,,,,0.270370413,0.02407406,1,0,0,0.5839,2,13,65,22,1,w,images/br_w.png,images/cb_w.png,,,,,,,,,,,,,,,,,,,,,,,,,
,,,,,,55888,2023-09-24_13h34.28.163,vbt_B1_day1,2022.2.4,Win32,59.54862145,55888,,,,,,,,,,,,,,,,,,,0.362037094,-0.114814829,1,0,0,1.7495,2,14,66,25,1,z,images/br_z.png,images/cb_z.png,,,,,,,,,,,,,,,,,,,,,,,,,
,,,,,,55888,2023-09-24_13h34.28.163,vbt_B1_day1,2022.2.4,Win32,59.54862145,55888,,,,,,,,,,,,,,,,,,,0.160185213,-0.089814822,1,0,0,0.3166,2,15,67,6,1,g,images/br_g.png,images/cb_g.png,,,,,,,,,,,,,,,,,,,,,,,,,
,,,,,,55888,2023-09-24_13h34.28.163,vbt_B1_day1,2022.2.4,Win32,59.54862145,55888,,,,,,,,,,,,,,,,,,,0.137962977,-0.104629658,1,0,0,0.2495,2,16,68,18,1,s,images/br_s.png,images/cb_s.png,,,,,,,,,,,,,,,,,,,,,,,,,
,,,,,,55888,2023-09-24_13h34.28.163,vbt_B1_day1,2022.2.4,Win32,59.54862145,55888,,,,,,,,,,,,,,,,,,,0.268518519,-0.152777778,1,0,0,0.0504,2,17,69,2,1,c,images/br_c.png,images/cb_c.png,,,,,,,,,,,,,,,,,,,,,,,,,
,,,,,,55888,2023-09-24_13h34.28.163,vbt_B1_day1,2022.2.4,Win32,59.54862145,55888,,,,,,,,,,,,,,,,,,,0.246296282,-0.168518561,1,0,0,0.5168,2,18,70,17,1,r,images/br_r.png,images/cb_r.png,,,,,,,,,,,,,,,,,,,,,,,,,
,,,,,,55888,2023-09-24_13h34.28.163,vbt_B1_day1,2022.2.4,Win32,59.54862145,55888,,,,,,,,,,,,,,,,,,,0.235185199,-0.064814815,1,0,0,0.0997,2,19,71,19,1,t,images/br_t.png,images/cb_t.png,,,,,,,,,,,,,,,,,,,,,,,,,
,,,,,,55888,2023-09-24_13h34.28.163,vbt_B1_day1,2022.2.4,Win32,59.54862145,55888,,,,,,,,,,,,,,,,,,,0.22129631,-0.077777792,1,0,0,0.7491,2,20,72,11,1,l,images/br_l.png,images/cb_l.png,,,,,,,,,,,,,,,,,,,,,,,,,
,,,,,,55888,2023-09-24_13h34.28.163,vbt_B1_day1,2022.2.4,Win32,59.54862145,55888,,,,,,,,,,,,,,,,,,,0.257407436,-0.161111125,1,0,0,11.6999,2,21,73,9,1,j,images/br_j.png,images/cb_j.png,,,,,,,,,,,,,,,,,,,,,,,,,
,,,,,,55888,2023-09-24_13h34.28.163,vbt_B1_day1,2022.2.4,Win32,59.54862145,55888,,,,,,,,,,,,,,,,,,,0.208333333,-0.093518504,1,0,0,0.8666,2,22,74,21,1,v,images/br_v.png,images/cb_v.png,,,,,,,,,,,,,,,,,,,,,,,,,
,,,,,,55888,2023-09-24_13h34.28.163,vbt_B1_day1,2022.2.4,Win32,59.54862145,55888,,,,,,,,,,,,,,,,,,,0.294444473,-0.118518547,1,0,0,0.5338,2,23,75,12,1,m,images/br_m.png,images/cb_m.png,,,,,,,,,,,,,,,,,,,,,,,,,
,,,,,,55888,2023-09-24_13h34.28.163,vbt_B1_day1,2022.2.4,Win32,59.54862145,55888,,,,,,,,,,,,,,,,,,,0.223148134,-0.066666674,1,0,0,0.5674,2,24,76,10,1,k,images/br_k.png,images/cb_k.png,,,,,,,,,,,,,,,,,,,,,,,,,
,,,,,,55888,2023-09-24_13h34.28.163,vbt_B1_day1,2022.2.4,Win32,59.54862145,55888,,,,,,,,,,,,,,,,,,,0.159259302,-0.042592614,1,0,0,0.4996,2,25,77,1,1,b,images/br_b.png,images/cb_b.png,,,,,,,,,,,,,,,,,,,,,,,,,
,,,,,,55888,2023-09-24_13h34.28.163,vbt_B1_day1,2022.2.4,Win32,59.54862145,55888,,,,,,,,,,,,,,,,,,,0.259259259,-0.092592593,1,0,0,0.7499,3,0,78,24,1,y,images/br_y.png,images/cb_y.png,,,,,,,,,,,,,,,,,,,,,,,,,
,,,,,,55888,2023-09-24_13h34.28.163,vbt_B1_day1,2022.2.4,Win32,59.54862145,55888,,,,,,,,,,,,,,,,,,,0.295370384,-0.137037065,1,0,0,0.0831,3,1,79,16,1,q,images/br_q.png,images/cb_q.png,,,,,,,,,,,,,,,,,,,,,,,,,
,,,,,,55888,2023-09-24_13h34.28.163,vbt_B1_day1,2022.2.4,Win32,59.54862145,55888,,,,,,,,,,,,,,,,,,,0.198148162,-0.124074088,1,0,0,1.4327,3,2,80,13,1,n,images/br_n.png,images/cb_n.png,,,,,,,,,,,,,,,,,,,,,,,,,
,,,,,,55888,2023-09-24_13h34.28.163,vbt_B1_day1,2022.2.4,Win32,59.54862145,55888,,,,,,,,,,,,,,,,,,,0.275925954,-0.219444487,1,0,0,0.9994,3,3,81,1,1,b,images/br_b.png,images/cb_b.png,,,,,,,,,,,,,,,,,,,,,,,,,
,,,,,,55888,2023-09-24_13h34.28.163,vbt_B1_day1,2022.2.4,Win32,59.54862145,55888,,,,,,,,,,,,,,,,,,,0.277777778,-0.08888891,1,0,0,0.6659,3,4,82,18,1,s,images/br_s.png,images/cb_s.png,,,,,,,,,,,,,,,,,,,,,,,,,
,,,,,,55888,2023-09-24_13h34.28.163,vbt_B1_day1,2022.2.4,Win32,59.54862145,55888,,,,,,,,,,,,,,,,,,,0.358333305,-0.067592586,1,0,0,1.0165,3,5,83,17,1,r,images/br_r.png,images/cb_r.png,,,,,,,,,,,,,,,,,,,,,,,,,
,,,,,,55888,2023-09-24_13h34.28.163,vbt_B1_day1,2022.2.4,Win32,59.54862145,55888,,,,,,,,,,,,,,,,,,,0.33148151,-0.037037037,1,0,0,0.6504,3,6,84,25,1,z,images/br_z.png,images/cb_z.png,,,,,,,,,,,,,,,,,,,,,,,,,
,,,,,,55888,2023-09-24_13h34.28.163,vbt_B1_day1,2022.2.4,Win32,59.54862145,55888,,,,,,,,,,,,,,,,,,,0.184259273,-0.00462963,1,0,0,1.966,3,7,85,22,1,w,images/br_w.png,images/cb_w.png,,,,,,,,,,,,,,,,,,,,,,,,,
,,,,,,55888,2023-09-24_13h34.28.163,vbt_B1_day1,2022.2.4,Win32,59.54862145,55888,,,,,,,,,,,,,,,,,,,0.244444459,-0.076851845,1,0,0,0.8664,3,8,86,0,1,a,images/br_a.png,images/cb_a.png,,,,,,,,,,,,,,,,,,,,,,,,,
,,,,,,55888,2023-09-24_13h34.28.163,vbt_B1_day1,2022.2.4,Win32,59.54862145,55888,,,,,,,,,,,,,,,,,,,0.215740769,-0.074074074,1,0,0,0.4666,3,9,87,4,1,e,images/br_e.png,images/cb_e.png,,,,,,,,,,,,,,,,,,,,,,,,,
,,,,,,55888,2023-09-24_13h34.28.163,vbt_B1_day1,2022.2.4,Win32,59.54862145,55888,,,,,,,,,,,,,,,,,,,0.255555541,-0.160185213,1,0,0,0.1493,3,10,88,6,1,g,images/br_g.png,images/cb_g.png,,,,,,,,,,,,,,,,,,,,,,,,,
,,,,,,55888,2023-09-24_13h34.28.163,vbt_B1_day1,2022.2.4,Win32,59.54862145,55888,,,,,,,,,,,,,,,,,,,0.22129631,-0.059259273,1,0,0,0.6504,3,11,89,5,1,f,images/br_f.png,images/cb_f.png,,,,,,,,,,,,,,,,,,,,,,,,,
,,,,,,55888,2023-09-24_13h34.28.163,vbt_B1_day1,2022.2.4,Win32,59.54862145,55888,,,,,,,,,,,,,,,,,,,0.310185185,-0.145370413,1,0,0,0.7829,3,12,90,3,1,d,images/br_d.png,images/cb_d.png,,,,,,,,,,,,,,,,,,,,,,,,,
,,,,,,55888,2023-09-24_13h34.28.163,vbt_B1_day1,2022.2.4,Win32,59.54862145,55888,,,,,,,,,,,,,,,,,,,0.310185185,-0.145370413,1,0,0,0.3164,3,13,91,2,1,c,images/br_c.png,images/cb_c.png,,,,,,,,,,,,,,,,,,,,,,,,,
,,,,,,55888,2023-09-24_13h34.28.163,vbt_B1_day1,2022.2.4,Win32,59.54862145,55888,,,,,,,,,,,,,,,,,,,0.282407407,-0.125,1,0,0,0.2331,3,14,92,19,1,t,images/br_t.png,images/cb_t.png,,,,,,,,,,,,,,,,,,,,,,,,,
,,,,,,55888,2023-09-24_13h34.28.163,vbt_B1_day1,2022.2.4,Win32,59.54862145,55888,,,,,,,,,,,,,,,,,,,0.282407407,-0.125,1,0,0,0.4839,3,15,93,12,1,m,images/br_m.png,images/cb_m.png,,,,,,,,,,,,,,,,,,,,,,,,,
,,,,,,55888,2023-09-24_13h34.28.163,vbt_B1_day1,2022.2.4,Win32,59.54862145,55888,,,,,,,,,,,,,,,,,,,0.282407407,-0.125,1,0,0,0.3671,3,16,94,11,1,l,images/br_l.png,images/cb_l.png,,,,,,,,,,,,,,,,,,,,,,,,,
,,,,,,55888,2023-09-24_13h34.28.163,vbt_B1_day1,2022.2.4,Win32,59.54862145,55888,,,,,,,,,,,,,,,,,,,0.093518504,-0.023148148,1,0,0,14.7836,3,17,95,10,1,k,images/br_k.png,images/cb_k.png,,,,,,,,,,,,,,,,,,,,,,,,,
,,,,,,55888,2023-09-24_13h34.28.163,vbt_B1_day1,2022.2.4,Win32,59.54862145,55888,,,,,,,,,,,,,,,,,,,0.160185213,-0.00462963,1,0,0,0.4329,3,18,96,15,1,p,images/br_p.png,images/cb_p.png,,,,,,,,,,,,,,,,,,,,,,,,,
,,,,,,55888,2023-09-24_13h34.28.163,vbt_B1_day1,2022.2.4,Win32,59.54862145,55888,,,,,,,,,,,,,,,,,,,0.212962963,-0.045370384,1,0,0,0.4832,3,19,97,21,1,v,images/br_v.png,images/cb_v.png,,,,,,,,,,,,,,,,,,,,,,,,,
,,,,,,55888,2023-09-24_13h34.28.163,vbt_B1_day1,2022.2.4,Win32,59.54862145,55888,,,,,,,,,,,,,,,,,,,0.048148191,0.034259266,1,0,0,0.6831,3,20,98,7,1,h,images/br_h.png,images/cb_h.png,,,,,,,,,,,,,,,,,,,,,,,,,
,,,,,,55888,2023-09-24_13h34.28.163,vbt_B1_day1,2022.2.4,Win32,59.54862145,55888,,,,,,,,,,,,,,,,,,,0.262037065,-0.062037044,1,0,0,0.684,3,21,99,23,1,x,images/br_x.png,images/cb_x.png,,,,,,,,,,,,,,,,,,,,,,,,,
,,,,,,55888,2023-09-24_13h34.28.163,vbt_B1_day1,2022.2.4,Win32,59.54862145,55888,,,,,,,,,,,,,,,,,,,0.282407407,-0.102777764,1,0,0,0.5161,3,22,100,14,1,o,images/br_o.png,images/cb_o.png,,,,,,,,,,,,,,,,,,,,,,,,,
,,,,,,55888,2023-09-24_13h34.28.163,vbt_B1_day1,2022.2.4,Win32,59.54862145,55888,,,,,,,,,,,,,,,,,,,0.366666723,-0.106481481,1,0,0,0.4664,3,23,101,8,1,i,images/br_i.png,images/cb_i.png,,,,,,,,,,,,,,,,,,,,,,,,,
,,,,,,55888,2023-09-24_13h34.28.163,vbt_B1_day1,2022.2.4,Win32,59.54862145,55888,,,,,,,,,,,,,,,,,,,0.264814801,-0.115740741,1,0,0,0.4168,3,24,102,9,1,j,images/br_j.png,images/cb_j.png,,,,,,,,,,,,,,,,,,,,,,,,,
,,,,,,55888,2023-09-24_13h34.28.163,vbt_B1_day1,2022.2.4,Win32,59.54862145,55888,,,,,,,,,,,,,,,,,,,0.203703704,0.012962942,1,0,0,0.1828,3,25,103,20,1,u,images/br_u.png,images/cb_u.png,,,,,,,,,,,,,,,,,,,,,,,,,
,,,,,,55888,2023-09-24_13h34.28.163,vbt_B1_day1,2022.2.4,Win32,59.54862145,55888,,,,,,,,,,,,,,,,,,,0.345370399,-0.057407414,1,0,0,0.2504,4,0,104,8,1,i,images/br_i.png,images/cb_i.png,,,,,,,,,,,,,,,,,,,,,,,,,
,,,,,,55888,2023-09-24_13h34.28.163,vbt_B1_day1,2022.2.4,Win32,59.54862145,55888,,,,,,,,,,,,,,,,,,,0.263888889,-0.041666667,1,0,0,0.6166,4,1,105,23,1,x,images/br_x.png,images/cb_x.png,,,,,,,,,,,,,,,,,,,,,,,,,
,,,,,,55888,2023-09-24_13h34.28.163,vbt_B1_day1,2022.2.4,Win32,59.54862145,55888,,,,,,,,,,,,,,,,,,,0.344444416,-0.010185206,1,0,0,0.0828,4,2,106,2,1,c,images/br_c.png,images/cb_c.png,,,,,,,,,,,,,,,,,,,,,,,,,
,,,,,,55888,2023-09-24_13h34.28.163,vbt_B1_day1,2022.2.4,Win32,59.54862145,55888,,,,,,,,,,,,,,,,,,,0.290740755,-0.01203703,1,0,0,0.1997,4,3,107,9,1,j,images/br_j.png,images/cb_j.png,,,,,,,,,,,,,,,,,,,,,,,,,
,,,,,,55888,2023-09-24_13h34.28.163,vbt_B1_day1,2022.2.4,Win32,59.54862145,55888,,,,,,,,,,,,,,,,,,,0.299074102,-0.050000014,1,0,0,1.1665,4,4,108,11,1,l,images/br_l.png,images/cb_l.png,,,,,,,,,,,,,,,,,,,,,,,,,
,,,,,,55888,2023-09-24_13h34.28.163,vbt_B1_day1,2022.2.4,Win32,59.54862145,55888,,,,,,,,,,,,,,,,,,,0.273148148,-0.018518519,1,0,0,0.5502,4,5,109,15,1,p,images/br_p.png,images/cb_p.png,,,,,,,,,,,,,,,,,,,,,,,,,
,,,,,,55888,2023-09-24_13h34.28.163,vbt_B1_day1,2022.2.4,Win32,59.54862145,55888,,,,,,,,,,,,,,,,,,,0.313888974,-0.056481503,1,0,0,0.0331,4,6,110,7,1,h,images/br_h.png,images/cb_h.png,,,,,,,,,,,,,,,,,,,,,,,,,
,,,,,,55888,2023-09-24_13h34.28.163,vbt_B1_day1,2022.2.4,Win32,59.54862145,55888,,,,,,,,,,,,,,,,,,,0.333333333,-0.067592586,1,0,0,1.6005,4,7,111,16,1,q,images/br_q.png,images/cb_q.png,,,,,,,,,,,,,,,,,,,,,,,,,
,,,,,,55888,2023-09-24_13h34.28.163,vbt_B1_day1,2022.2.4,Win32,59.54862145,55888,,,,,,,,,,,,,,,,,,,0.299074102,-0.046296296,1,0,0,0.3836,4,8,112,17,1,r,images/br_r.png,images/cb_r.png,,,,,,,,,,,,,,,,,,,,,,,,,
,,,,,,55888,2023-09-24_13h34.28.163,vbt_B1_day1,2022.2.4,Win32,59.54862145,55888,,,,,,,,,,,,,,,,,,,0.337037122,-0.072222215,1,0,0,0.4166,4,9,113,19,1,t,images/br_t.png,images/cb_t.png,,,,,,,,,,,,,,,,,,,,,,,,,
,,,,,,55888,2023-09-24_13h34.28.163,vbt_B1_day1,2022.2.4,Win32,59.54862145,55888,,,,,,,,,,,,,,,,,,,0.387037065,-0.036111125,1,0,0,0.4321,4,10,114,1,1,b,images/br_b.png,images/cb_b.png,,,,,,,,,,,,,,,,,,,,,,,,,
,,,,,,55888,2023-09-24_13h34.28.163,vbt_B1_day1,2022.2.4,Win32,59.54862145,55888,,,,,,,,,,,,,,,,,,,0.319444444,0.008333312,1,0,0,0.1166,4,11,115,0,1,a,images/br_a.png,images/cb_a.png,,,,,,,,,,,,,,,,,,,,,,,,,
,,,,,,55888,2023-09-24_13h34.28.163,vbt_B1_day1,2022.2.4,Win32,59.54862145,55888,,,,,,,,,,,,,,,,,,,0.350000028,-0.048148155,1,0,0,0.1832,4,12,116,3,1,d,images/br_d.png,images/cb_d.png,,,,,,,,,,,,,,,,,,,,,,,,,
,,,,,,55888,2023-09-24_13h34.28.163,vbt_B1_day1,2022.2.4,Win32,59.54862145,55888,,,,,,,,,,,,,,,,,,,0.311111168,0.100925905,1,0,0,0.0668,4,13,117,13,1,n,images/br_n.png,images/cb_n.png,,,,,,,,,,,,,,,,,,,,,,,,,
,,,,,,55888,2023-09-24_13h34.28.163,vbt_B1_day1,2022.2.4,Win32,59.54862145,55888,,,,,,,,,,,,,,,,,,,0.316666638,0.006481489,1,0,0,0.917,4,14,118,22,1,w,images/br_w.png,images/cb_w.png,,,,,,,,,,,,,,,,,,,,,,,,,
,,,,,,55888,2023-09-24_13h34.28.163,vbt_B1_day1,2022.2.4,Win32,59.54862145,55888,,,,,,,,,,,,,,,,,,,0.297222279,-0.037037037,1,0,0,0.2012,4,15,119,12,1,m,images/br_m.png,images/cb_m.png,,,,,,,,,,,,,,,,,,,,,,,,,
,,,,,,55888,2023-09-24_13h34.28.163,vbt_B1_day1,2022.2.4,Win32,59.54862145,55888,,,,,,,,,,,,,,,,,,,0.301851908,-0.072222215,1,0,0,2.1332,4,16,120,20,1,u,images/br_u.png,images/cb_u.png,,,,,,,,,,,,,,,,,,,,,,,,,
,,,,,,55888,2023-09-24_13h34.28.163,vbt_B1_day1,2022.2.4,Win32,59.54862145,55888,,,,,,,,,,,,,,,,,,,0.266666695,-0.125,1,0,0,0.1002,4,17,121,24,1,y,images/br_y.png,images/cb_y.png,,,,,,,,,,,,,,,,,,,,,,,,,
,,,,,,55888,2023-09-24_13h34.28.163,vbt_B1_day1,2022.2.4,Win32,59.54862145,55888,,,,,,,,,,,,,,,,,,,0.297222279,-0.100000028,1,0,0,0.0164,4,18,122,14,1,o,images/br_o.png,images/cb_o.png,,,,,,,,,,,,,,,,,,,,,,,,,
,,,,,,55888,2023-09-24_13h34.28.163,vbt_B1_day1,2022.2.4,Win32,59.54862145,55888,,,,,,,,,,,,,,,,,,,0.22592594,-0.072222215,1,0,0,3.1667,4,19,123,10,1,k,images/br_k.png,images/cb_k.png,,,,,,,,,,,,,,,,,,,,,,,,,
,,,,,,55888,2023-09-24_13h34.28.163,vbt_B1_day1,2022.2.4,Win32,59.54862145,55888,,,,,,,,,,,,,,,,,,,0.224074116,-0.020370377,1,0,0,0.4834,4,20,124,4,1,e,images/br_e.png,images/cb_e.png,,,,,,,,,,,,,,,,,,,,,,,,,
,,,,,,55888,2023-09-24_13h34.28.163,vbt_B1_day1,2022.2.4,Win32,59.54862145,55888,,,,,,,,,,,,,,,,,,,0.266666695,-0.041666667,1,0,0,0.7327,4,21,125,25,1,z,images/br_z.png,images/cb_z.png,,,,,,,,,,,,,,,,,,,,,,,,,
,,,,,,55888,2023-09-24_13h34.28.163,vbt_B1_day1,2022.2.4,Win32,59.54862145,55888,,,,,,,,,,,,,,,,,,,0.277777778,-0.025000007,1,0,0,1.7008,4,22,126,5,1,f,images/br_f.png,images/cb_f.png,,,,,,,,,,,,,,,,,,,,,,,,,
,,,,,,55888,2023-09-24_13h34.28.163,vbt_B1_day1,2022.2.4,Win32,59.54862145,55888,,,,,,,,,,,,,,,,,,,0.279629672,-0.08425928,1,0,0,0.3011,4,23,127,6,1,g,images/br_g.png,images/cb_g.png,,,,,,,,,,,,,,,,,,,,,,,,,
,,,,,,55888,2023-09-24_13h34.28.163,vbt_B1_day1,2022.2.4,Win32,59.54862145,55888,,,,,,,,,,,,,,,,,,,0.262037065,-0.053703697,1,0,0,0.2499,4,24,128,18,1,s,images/br_s.png,images/cb_s.png,,,,,,,,,,,,,,,,,,,,,,,,,
,,,,,,55888,2023-09-24_13h34.28.163,vbt_B1_day1,2022.2.4,Win32,59.54862145,55888,,,,,,,,,,,,,,,,,,,0.305555556,-0.039814808,1,0,0,0.3337,4,25,129,21,1,v,images/br_v.png,images/cb_v.png,,,,,,,,,,,,,,,,,,,,,,,,,
,,,,,,55888,2023-09-24_13h34.28.163,vbt_B1_day1,2022.2.4,Win32,59.54862145,55888,,,,,,,,,,,,,,,,,,,0.25,-0.020370377,1,0,0,0.3165,5,0,130,0,1,a,images/br_a.png,images/cb_a.png,,,,,,,,,,,,,,,,,,,,,,,,,
,,,,,,55888,2023-09-24_13h34.28.163,vbt_B1_day1,2022.2.4,Win32,59.54862145,55888,,,,,,,,,,,,,,,,,,,0.276851866,-0.063888903,1,0,0,0.3665,5,1,131,12,1,m,images/br_m.png,images/cb_m.png,,,,,,,,,,,,,,,,,,,,,,,,,
,,,,,,55888,2023-09-24_13h34.28.163,vbt_B1_day1,2022.2.4,Win32,59.54862145,55888,,,,,,,,,,,,,,,,,,,0.22129631,-0.011111118,1,0,0,0.0495,5,2,132,5,1,f,images/br_f.png,images/cb_f.png,,,,,,,,,,,,,,,,,,,,,,,,,
,,,,,,55888,2023-09-24_13h34.28.163,vbt_B1_day1,2022.2.4,Win32,59.54862145,55888,,,,,,,,,,,,,,,,,,,0.33148151,0.025000007,1,0,0,0.8668,5,3,133,22,1,w,images/br_w.png,images/cb_w.png,,,,,,,,,,,,,,,,,,,,,,,,,
,,,,,,55888,2023-09-24_13h34.28.163,vbt_B1_day1,2022.2.4,Win32,59.54862145,55888,,,,,,,,,,,,,,,,,,,0.305555556,0.03611109,1,0,0,0.5834,5,4,134,13,1,n,images/br_n.png,images/cb_n.png,,,,,,,,,,,,,,,,,,,,,,,,,
,,,,,,55888,2023-09-24_13h34.28.163,vbt_B1_day1,2022.2.4,Win32,59.54862145,55888,,,,,,,,,,,,,,,,,,,0.25462963,-0.028703725,1,0,0,0.4328,5,5,135,3,1,d,images/br_d.png,images/cb_d.png,,,,,,,,,,,,,,,,,,,,,,,,,
,,,,,,55888,2023-09-24_13h34.28.163,vbt_B1_day1,2022.2.4,Win32,59.54862145,55888,,,,,,,,,,,,,,,,,,,0.25462963,-0.028703725,1,0,0,0.1665,5,6,136,4,1,e,images/br_e.png,images/cb_e.png,,,,,,,,,,,,,,,,,,,,,,,,,
,,,,,,55888,2023-09-24_13h34.28.163,vbt_B1_day1,2022.2.4,Win32,59.54862145,55888,,,,,,,,,,,,,,,,,,,0.284259302,-0.031481496,1,0,0,0.5505,5,7,137,6,1,g,images/br_g.png,images/cb_g.png,,,,,,,,,,,,,,,,,,,,,,,,,
,,,,,,55888,2023-09-24_13h34.28.163,vbt_B1_day1,2022.2.4,Win32,59.54862145,55888,,,,,,,,,,,,,,,,,,,0.284259302,-0.031481496,1,0,0,0.1323,5,8,138,21,1,v,images/br_v.png,images/cb_v.png,,,,,,,,,,,,,,,,,,,,,,,,,
,,,,,,55888,2023-09-24_13h34.28.163,vbt_B1_day1,2022.2.4,Win32,59.54862145,55888,,,,,,,,,,,,,,,,,,,0.284259302,-0.031481496,1,0,0,0.6842,5,9,139,10,1,k,images/br_k.png,images/cb_k.png,,,,,,,,,,,,,,,,,,,,,,,,,
,,,,,,55888,2023-09-24_13h34.28.163,vbt_B1_day1,2022.2.4,Win32,59.54862145,55888,,,,,,,,,,,,,,,,,,,0.284259302,-0.031481496,1,0,0,1.7665,5,10,140,1,1,b,images/br_b.png,images/cb_b.png,,,,,,,,,,,,,,,,,,,,,,,,,
,,,,,,55888,2023-09-24_13h34.28.163,vbt_B1_day1,2022.2.4,Win32,59.54862145,55888,,,,,,,,,,,,,,,,,,,0.284259302,-0.031481496,1,0,0,2.4171,5,11,141,23,1,x,images/br_x.png,images/cb_x.png,,,,,,,,,,,,,,,,,,,,,,,,,
,,,,,,55888,2023-09-24_13h34.28.163,vbt_B1_day1,2022.2.4,Win32,59.54862145,55888,,,,,,,,,,,,,,,,,,,0.294444473,-0.023148148,1,0,0,1.1993,5,12,142,8,1,i,images/br_i.png,images/cb_i.png,,,,,,,,,,,,,,,,,,,,,,,,,
,,,,,,55888,2023-09-24_13h34.28.163,vbt_B1_day1,2022.2.4,Win32,59.54862145,55888,,,,,,,,,,,,,,,,,,,0.312037009,-0.009259259,1,0,0,0.65,5,13,143,18,1,s,images/br_s.png,images/cb_s.png,,,,,,,,,,,,,,,,,,,,,,,,,
,,,,,,55888,2023-09-24_13h34.28.163,vbt_B1_day1,2022.2.4,Win32,59.54862145,55888,,,,,,,,,,,,,,,,,,,0.312037009,-0.009259259,1,0,0,2.9165,5,14,144,24,1,y,images/br_y.png,images/cb_y.png,,,,,,,,,,,,,,,,,,,,,,,,,
,,,,,,55888,2023-09-24_13h34.28.163,vbt_B1_day1,2022.2.4,Win32,59.54862145,55888,,,,,,,,,,,,,,,,,,,0.312037009,-0.009259259,1,0,0,0.6993,5,15,145,17,1,r,images/br_r.png,images/cb_r.png,,,,,,,,,,,,,,,,,,,,,,,,,
,,,,,,55888,2023-09-24_13h34.28.163,vbt_B1_day1,2022.2.4,Win32,59.54862145,55888,,,,,,,,,,,,,,,,,,,0.313888974,-0.009259259,1,0,0,0.6491,5,16,146,25,1,z,images/br_z.png,images/cb_z.png,,,,,,,,,,,,,,,,,,,,,,,,,
,,,,,,55888,2023-09-24_13h34.28.163,vbt_B1_day1,2022.2.4,Win32,59.54862145,55888,,,,,,,,,,,,,,,,,,,0.37037037,-0.162037037,1,0,0,0.9506,5,17,147,7,1,h,images/br_h.png,images/cb_h.png,,,,,,,,,,,,,,,,,,,,,,,,,
,,,,,,55888,2023-09-24_13h34.28.163,vbt_B1_day1,2022.2.4,Win32,59.54862145,55888,,,,,,,,,,,,,,,,,,,0.359259288,-0.058333326,1,0,0,1.1686,5,18,148,14,1,o,images/br_o.png,images/cb_o.png,,,,,,,,,,,,,,,,,,,,,,,,,
,,,,,,55888,2023-09-24_13h34.28.163,vbt_B1_day1,2022.2.4,Win32,59.54862145,55888,,,,,,,,,,,,,,,,,,,0.339814787,-0.079629651,1,0,0,0.8988,5,19,149,15,1,p,images/br_p.png,images/cb_p.png,,,,,,,,,,,,,,,,,,,,,,,,,
,,,,,,55888,2023-09-24_13h34.28.163,vbt_B1_day1,2022.2.4,Win32,59.54862145,55888,,,,,,,,,,,,,,,,,,,0.339814787,-0.079629651,1,0,0,0.7827,5,20,150,20,1,u,images/br_u.png,images/cb_u.png,,,,,,,,,,,,,,,,,,,,,,,,,
,,,,,,55888,2023-09-24_13h34.28.163,vbt_B1_day1,2022.2.4,Win32,59.54862145,55888,,,,,,,,,,,,,,,,,,,0.387037065,-0.061111132,1,0,0,1.1495,5,21,151,9,1,j,images/br_j.png,images/cb_j.png,,,,,,,,,,,,,,,,,,,,,,,,,
,,,,,,55888,2023-09-24_13h34.28.163,vbt_B1_day1,2022.2.4,Win32,59.54862145,55888,,,,,,,,,,,,,,,,,,,0.387037065,-0.061111132,1,0,0,0.4661,5,22,152,16,1,q,images/br_q.png,images/cb_q.png,,,,,,,,,,,,,,,,,,,,,,,,,
,,,,,,55888,2023-09-24_13h34.28.163,vbt_B1_day1,2022.2.4,Win32,59.54862145,55888,,,,,,,,,,,,,,,,,,,0.369444529,-0.059259273,1,0,0,0.2996,5,23,153,2,1,c,images/br_c.png,images/cb_c.png,,,,,,,,,,,,,,,,,,,,,,,,,
,,,,,,55888,2023-09-24_13h34.28.163,vbt_B1_day1,2022.2.4,Win32,59.54862145,55888,,,,,,,,,,,,,,,,,,,0.371296353,-0.045370384,1,0,0,0.2159,5,24,154,11,1,l,images/br_l.png,images/cb_l.png,,,,,,,,,,,,,,,,,,,,,,,,,
,,,,,,55888,2023-09-24_13h34.28.163,vbt_B1_day1,2022.2.4,Win32,59.54862145,55888,,,,,,,,,,,,,,,,,,,0.371296353,-0.045370384,1,0,0,0.5337,5,25,155,19,1,t,images/br_t.png,images/cb_t.png,,,,,,,,,,,,,,,,,,,,,,,,,
,,,,,,55888,2023-09-24_13h34.28.163,vbt_B1_day1,2022.2.4,Win32,59.54862145,55888,,,,,,,,,,,,,,,,,,,0.422222279,-0.009259259,1,0,0,0.7162,6,0,156,22,1,w,images/br_w.png,images/cb_w.png,,,,,,,,,,,,,,,,,,,,,,,,,
,,,,,,55888,2023-09-24_13h34.28.163,vbt_B1_day1,2022.2.4,Win32,59.54862145,55888,,,,,,,,,,,,,,,,,,,0.255555541,-0.025000007,1,0,0,0.7168,6,1,157,20,1,u,images/br_u.png,images/cb_u.png,,,,,,,,,,,,,,,,,,,,,,,,,
,,,,,,55888,2023-09-24_13h34.28.163,vbt_B1_day1,2022.2.4,Win32,59.54862145,55888,,,,,,,,,,,,,,,,,,,0.247222265,-0.065740762,1,0,0,1.2513,6,2,158,15,1,p,images/br_p.png,images/cb_p.png,,,,,,,,,,,,,,,,,,,,,,,,,
,,,,,,55888,2023-09-24_13h34.28.163,vbt_B1_day1,2022.2.4,Win32,59.54862145,55888,,,,,,,,,,,,,,,,,,,0.349074046,-0.029629637,1,0,0,0.8993,6,3,159,16,1,q,images/br_q.png,images/cb_q.png,,,,,,,,,,,,,,,,,,,,,,,,,
,,,,,,55888,2023-09-24_13h34.28.163,vbt_B1_day1,2022.2.4,Win32,59.54862145,55888,,,,,,,,,,,,,,,,,,,0.387963048,-0.01666666,1,0,0,0.9331,6,4,160,6,1,g,images/br_g.png,images/cb_g.png,,,,,,,,,,,,,,,,,,,,,,,,,
,,,,,,55888,2023-09-24_13h34.28.163,vbt_B1_day1,2022.2.4,Win32,59.54862145,55888,,,,,,,,,,,,,,,,,,,0.389814871,-0.125,1,0,0,0.6163,6,5,161,8,1,i,images/br_i.png,images/cb_i.png,,,,,,,,,,,,,,,,,,,,,,,,,
,,,,,,55888,2023-09-24_13h34.28.163,vbt_B1_day1,2022.2.4,Win32,59.54862145,55888,,,,,,,,,,,,,,,,,,,0.351851852,-0.059259273,1,0,0,0.7168,6,6,162,17,1,r,images/br_r.png,images/cb_r.png,,,,,,,,,,,,,,,,,,,,,,,,,
,,,,,,55888,2023-09-24_13h34.28.163,vbt_B1_day1,2022.2.4,Win32,59.54862145,55888,,,,,,,,,,,,,,,,,,,0.374074159,-0.00462963,1,0,0,0.6834,6,7,163,5,1,f,images/br_f.png,images/cb_f.png,,,,,,,,,,,,,,,,,,,,,,,,,
,,,,,,55888,2023-09-24_13h34.28.163,vbt_B1_day1,2022.2.4,Win32,59.54862145,55888,,,,,,,,,,,,,,,,,,,0.371296353,0.020370377,1,0,0,0.2829,6,8,164,11,1,l,images/br_l.png,images/cb_l.png,,,,,,,,,,,,,,,,,,,,,,,,,
,,,,,,55888,2023-09-24_13h34.28.163,vbt_B1_day1,2022.2.4,Win32,59.54862145,55888,,,,,,,,,,,,,,,,,,,0.299074102,-0.012962977,1,0,0,0.5005,6,9,165,19,1,t,images/br_t.png,images/cb_t.png,,,,,,,,,,,,,,,,,,,,,,,,,
,,,,,,55888,2023-09-24_13h34.28.163,vbt_B1_day1,2022.2.4,Win32,59.54862145,55888,,,,,,,,,,,,,,,,,,,0.275000042,0.01666666,1,0,0,0.1166,6,10,166,13,1,n,images/br_n.png,images/cb_n.png,,,,,,,,,,,,,,,,,,,,,,,,,
,,,,,,55888,2023-09-24_13h34.28.163,vbt_B1_day1,2022.2.4,Win32,59.54862145,55888,,,,,,,,,,,,,,,,,,,0.374074159,-0.015740748,1,0,0,0.417,6,11,167,4,1,e,images/br_e.png,images/cb_e.png,,,,,,,,,,,,,,,,,,,,,,,,,
,,,,,,55888,2023-09-24_13h34.28.163,vbt_B1_day1,2022.2.4,Win32,59.54862145,55888,,,,,,,,,,,,,,,,,,,0.35555564,-0.006481489,1,0,0,0.468,6,12,168,7,1,h,images/br_h.png,images/cb_h.png,,,,,,,,,,,,,,,,,,,,,,,,,
,,,,,,55888,2023-09-24_13h34.28.163,vbt_B1_day1,2022.2.4,Win32,59.54862145,55888,,,,,,,,,,,,,,,,,,,0.285185213,-0.018518519,1,0,0,0.7839,6,13,169,0,1,a,images/br_a.png,images/cb_a.png,,,,,,,,,,,,,,,,,,,,,,,,,
,,,,,,55888,2023-09-24_13h34.28.163,vbt_B1_day1,2022.2.4,Win32,59.54862145,55888,,,,,,,,,,,,,,,,,,,0.285185213,-0.018518519,1,0,0,1.6832,6,14,170,14,1,o,images/br_o.png,images/cb_o.png,,,,,,,,,,,,,,,,,,,,,,,,,
,,,,,,55888,2023-09-24_13h34.28.163,vbt_B1_day1,2022.2.4,Win32,59.54862145,55888,,,,,,,,,,,,,,,,,,,0.285185213,-0.018518519,1,0,0,0.983,6,15,171,1,1,b,images/br_b.png,images/cb_b.png,,,,,,,,,,,,,,,,,,,,,,,,,
,,,,,,55888,2023-09-24_13h34.28.163,vbt_B1_day1,2022.2.4,Win32,59.54862145,55888,,,,,,,,,,,,,,,,,,,0.315740797,-0.034259266,1,0,0,1.1322,6,16,172,3,1,d,images/br_d.png,images/cb_d.png,,,,,,,,,,,,,,,,,,,,,,,,,
,,,,,,55888,2023-09-24_13h34.28.163,vbt_B1_day1,2022.2.4,Win32,59.54862145,55888,,,,,,,,,,,,,,,,,,,0.315740797,-0.034259266,1,0,0,0.15,6,17,173,23,1,x,images/br_x.png,images/cb_x.png,,,,,,,,,,,,,,,,,,,,,,,,,
,,,,,,55888,2023-09-24_13h34.28.163,vbt_B1_day1,2022.2.4,Win32,59.54862145,55888,,,,,,,,,,,,,,,,,,,0.315740797,-0.034259266,1,0,0,0.1496,6,18,174,9,1,j,images/br_j.png,images/cb_j.png,,,,,,,,,,,,,,,,,,,,,,,,,
,,,,,,55888,2023-09-24_13h34.28.163,vbt_B1_day1,2022.2.4,Win32,59.54862145,55888,,,,,,,,,,,,,,,,,,,0.251851894,-0.112963005,1,0,0,0.6165,6,19,175,10,1,k,images/br_k.png,images/cb_k.png,,,,,,,,,,,,,,,,,,,,,,,,,
,,,,,,55888,2023-09-24_13h34.28.163,vbt_B1_day1,2022.2.4,Win32,59.54862145,55888,,,,,,,,,,,,,,,,,,,0.195370356,-0.047222243,1,0,0,3.7167,6,20,176,12,1,m,images/br_m.png,images/cb_m.png,,,,,,,,,,,,,,,,,,,,,,,,,
,,,,,,55888,2023-09-24_13h34.28.163,vbt_B1_day1,2022.2.4,Win32,59.54862145,55888,,,,,,,,,,,,,,,,,,,0.293518561,-0.020370377,1,0,0,0.0499,6,21,177,25,1,z,images/br_z.png,images/cb_z.png,,,,,,,,,,,,,,,,,,,,,,,,,
,,,,,,55888,2023-09-24_13h34.28.163,vbt_B1_day1,2022.2.4,Win32,59.54862145,55888,,,,,,,,,,,,,,,,,,,0.280555584,-0.050000014,1,0,0,0.1837,6,22,178,2,1,c,images/br_c.png,images/cb_c.png,,,,,,,,,,,,,,,,,,,,,,,,,
,,,,,,55888,2023-09-24_13h34.28.163,vbt_B1_day1,2022.2.4,Win32,59.54862145,55888,,,,,,,,,,,,,,,,,,,0.292592578,-0.063888903,1,0,0,0.5995,6,23,179,18,1,s,images/br_s.png,images/cb_s.png,,,,,,,,,,,,,,,,,,,,,,,,,
,,,,,,55888,2023-09-24_13h34.28.163,vbt_B1_day1,2022.2.4,Win32,59.54862145,55888,,,,,,,,,,,,,,,,,,,0.263888889,0.00462963,1,0,0,0.4494,6,24,180,21,1,v,images/br_v.png,images/cb_v.png,,,,,,,,,,,,,,,,,,,,,,,,,
,,,,,,55888,2023-09-24_13h34.28.163,vbt_B1_day1,2022.2.4,Win32,59.54862145,55888,,,,,,,,,,,,,,,,,,,0.233333376,-0.013888889,1,0,0,0.1163,6,25,181,24,1,y,images/br_y.png,images/cb_y.png,,,,,,,,,,,,,,,,,,,,,,,,,
,,,,,,55888,2023-09-24_13h34.28.163,vbt_B1_day1,2022.2.4,Win32,59.54862145,55888,,,,,,,,,,,,,,,,,,,,,,,,,,,,,,,,,0.316666638,0.1175926,1,0,0,,,,,,,,,,,,,,,,,,,,
,,,,,,55888,2023-09-24_13h34.28.163,vbt_B1_day1,2022.2.4,Win32,59.54862145,55888,,,,,,,,,,,,,,,,,,,,,,,,,,,,,,,,,,,,,,0.218518504,0.074074074,1,0,0,,,,,,,,,,,,,,,
,,,,,,55888,2023-09-24_13h34.28.163,vbt_B1_day1,2022.2.4,Win32,59.54862145,55888,,,,,,,,,,,,,,,,,,,,,,,,,,,,,,,,,,,,,,,,,,,0.473148205,-0.062037044,1,0,0,hoog,hoog,0,0,0,41,1,hoog,images/br_hoog.png,images/cb_hoog.png
,,,,,,55888,2023-09-24_13h34.28.163,vbt_B1_day1,2022.2.4,Win32,59.54862145,55888,,,,,,,,,,,,,,,,,,,,,,,,,,,,,,,,,,,,,,,,,,,0.319444444,-0.124074088,1,0,0,booi,booi,0,1,1,23,1,booi,images/br_booi.png,images/cb_booi.png
,,,,,,55888,2023-09-24_13h34.28.163,vbt_B1_day1,2022.2.4,Win32,59.54862145,55888,,,,,,,,,,,,,,,,,,,,,,,,,,,,,,,,,,,,,,,,,,,0.292592578,-0.046296296,1,0,0,stuk,stuk,0,2,2,42,1,stuk,images/br_stuk.png,images/cb_stuk.png
,,,,,,55888,2023-09-24_13h34.28.163,vbt_B1_day1,2022.2.4,Win32,59.54862145,55888,,,,,,,,,,,,,,,,,,,,,,,,,,,,,,,,,,,,,,,,,,,0.333333333,-0.101851852,1,0,0,bleek,bleek,0,3,3,6,1,bleek,images/br_bleek.png,images/cb_bleek.png
,,,,,,55888,2023-09-24_13h34.28.163,vbt_B1_day1,2022.2.4,Win32,59.54862145,55888,,,,,,,,,,,,,,,,,,,,,,,,,,,,,,,,,,,,,,,,,,,0.352777834,-0.147222236,1,0,0,liefde,liefde,0,4,4,51,1,liefde,images/br_liefde.png,images/cb_liefde.png
,,,,,,55888,2023-09-24_13h34.28.163,vbt_B1_day1,2022.2.4,Win32,59.54862145,55888,,,,,,,,,,,,,,,,,,,,,,,,,,,,,,,,,,,,,,,,,,,0.445370427,-0.086111104,1,0,0,mening,mening,0,5,5,11,1,mening,images/br_mening.png,images/cb_mening.png
,,,,,,55888,2023-09-24_13h34.28.163,vbt_B1_day1,2022.2.4,Win32,59.54862145,55888,,,,,,,,,,,,,,,,,,,,,,,,,,,,,,,,,,,,,,,,,,,0.277777778,-0.101851852,1,0,0,prort,prort,0,6,6,27,1,prort,images/br_prort.png,images/cb_prort.png
,,,,,,55888,2023-09-24_13h34.28.163,vbt_B1_day1,2022.2.4,Win32,59.54862145,55888,,,,,,,,,,,,,,,,,,,,,,,,,,,,,,,,,,,,,,,,,,,0.60555564,-0.079629651,1,0,0,re.er,re.er,0,7,7,24,1,rezer,images/br_rezer.png,images/cb_rezer.png
,,,,,,55888,2023-09-24_13h34.28.163,vbt_B1_day1,2022.2.4,Win32,59.54862145,55888,,,,,,,,,,,,,,,,,,,,,,,,,,,,,,,,,,,,,,,,,,,0,-0.198148162,1,0,0,mend,mend,0,8,8,3,1,mand,images/br_mand.png,images/cb_mand.png
,,,,,,55888,2023-09-24_13h34.28.163,vbt_B1_day1,2022.2.4,Win32,59.54862145,55888,,,,,,,,,,,,,,,,,,,,,,,,,,,,,,,,,,,,,,,,,,,0.567592621,-0.281481496,1,0,0,mez...,mez...,0,9,9,10,1,muziek,images/br_muziek.png,images/cb_muziek.png
,,,,,,55888,2023-09-24_13h34.28.163,vbt_B1_day1,2022.2.4,Win32,59.54862145,55888,,,,,,,,,,,,,,,,,,,,,,,,,,,,,,,,,,,,,,,,,,,0.204629616,-0.01666666,1,0,0,klimmen,klimmen,0,10,10,12,1,klimmen,images/br_klimmen.png,images/cb_klimmen.png
,,,,,,55888,2023-09-24_13h34.28.163,vbt_B1_day1,2022.2.4,Win32,59.54862145,55888,,,,,,,,,,,,,,,,,,,,,,,,,,,,,,,,,,,,,,,,,,,0.390740712,-0.253703718,1,0,0,twijfel,twijfel,0,11,11,13,1,twijfel,images/br_twijfel.png,images/cb_twijfel.png
,,,,,,55888,2023-09-24_13h34.28.163,vbt_B1_day1,2022.2.4,Win32,59.54862145,55888,,,,,,,,,,,,,,,,,,,,,,,,,,,,,,,,,,,,,,,,,,,0.488888917,-0.065740762,1,0,0,opplaan,opplaan,0,12,12,32,1,opplaan,images/br_opplaan.png,images/cb_opplaan.png
,,,,,,55888,2023-09-24_13h34.28.163,vbt_B1_day1,2022.2.4,Win32,59.54862145,55888,,,,,,,,,,,,,,,,,,,,,,,,,,,,,,,,,,,,,,,,,,,0.205555598,-0.142592607,1,0,0,.eeme..,.eeme..,0,13,13,57,1,meenemen,images/br_meenemen.png,images/cb_meenemen.png
,,,,,,55888,2023-09-24_13h34.28.163,vbt_B1_day1,2022.2.4,Win32,59.54862145,55888,,,,,,,,,,,,,,,,,,,,,,,,,,,,,,,,,,,,,,,,,,,0.387963048,-0.075000021,1,0,0,dred,dred,0,14,14,21,1,dred,images/br_dred.png,images/cb_dred.png
,,,,,,55888,2023-09-24_13h34.28.163,vbt_B1_day1,2022.2.4,Win32,59.54862145,55888,,,,,,,,,,,,,,,,,,,,,,,,,,,,,,,,,,,,,,,,,,,0.450000057,-0.093518504,1,0,0,tars,tars,0,15,15,20,1,tars,images/br_tars.png,images/cb_tars.png
,,,,,,55888,2023-09-24_13h34.28.163,vbt_B1_day1,2022.2.4,Win32,59.54862145,55888,,,,,,,,,,,,,,,,,,,,,,,,,,,,,,,,,,,,,,,,,,,0.248148176,-0.075925933,1,0,0,taarheem,taarheem,0,16,16,16,1,daarheen,images/br_daarheen.png,images/cb_daarheen.png
,,,,,,55888,2023-09-24_13h34.28.163,vbt_B1_day1,2022.2.4,Win32,59.54862145,55888,,,,,,,,,,,,,,,,,,,,,,,,,,,,,,,,,,,,,,,,,,,0.178703732,-0.087962963,1,0,0,locht..,locht..,0,17,17,34,1,lochten,images/br_lochten.png,images/cb_lochten.png
,,,,,,55888,2023-09-24_13h34.28.163,vbt_B1_day1,2022.2.4,Win32,59.54862145,55888,,,,,,,,,,,,,,,,,,,,,,,,,,,,,,,,,,,,,,,,,,,0.253703718,-0.071296303,1,0,0,kamjer,kamjer,0,18,18,8,1,kanjer,images/br_kanjer.png,images/cb_kanjer.png
,,,,,,55888,2023-09-24_13h34.28.163,vbt_B1_day1,2022.2.4,Win32,59.54862145,55888,,,,,,,,,,,,,,,,,,,,,,,,,,,,,,,,,,,,,,,,,,,0.372222194,0.034259266,1,0,0,waarvan,waarvan,0,19,19,14,1,waarvan,images/br_waarvan.png,images/cb_waarvan.png
,,,,,,55888,2023-09-24_13h34.28.163,vbt_B1_day1,2022.2.4,Win32,59.54862145,55888,,,,,,,,,,,,,,,,,,,,,,,,,,,,,,,,,,,,,,,,,,,0.265740783,0.079629616,1,0,0,maken,maken,0,20,20,5,1,maken,images/br_maken.png,images/cb_maken.png
,,,,,,55888,2023-09-24_13h34.28.163,vbt_B1_day1,2022.2.4,Win32,59.54862145,55888,,,,,,,,,,,,,,,,,,,,,,,,,,,,,,,,,,,,,,,,,,,0.375925982,-0.054629644,1,0,0,valop,valop,0,21,21,26,1,valop,images/br_valop.png,images/cb_valop.png
,,,,,,55888,2023-09-24_13h34.28.163,vbt_B1_day1,2022.2.4,Win32,59.54862145,55888,,,,,,,,,,,,,,,,,,,,,,,,,,,,,,,,,,,,,,,,,,,0.347222222,-0.066666674,1,0,0,.oorke..,.oorke..,0,22,22,58,1,voorkeur,images/br_voorkeur.png,images/cb_voorkeur.png
,,,,,,55888,2023-09-24_13h34.28.163,vbt_B1_day1,2022.2.4,Win32,59.54862145,55888,,,,,,,,,,,,,,,,,,,,,,,,,,,,,,,,,,,,,,,,,,,-0.027777778,-0.205555598,1,0,0,.lullen,.lullen,0,23,23,33,1,flullen,images/br_flullen.png,images/cb_flullen.png
,,,,,,55888,2023-09-24_13h34.28.163,vbt_B1_day1,2022.2.4,Win32,59.54862145,55888,,,,,,,,,,,,,,,,,,,,,,,,,,,,,,,,,,,,,,,,,,,0.323148233,-0.092592593,1,0,0,zaal,zaal,0,24,24,1,1,zaal,images/br_zaal.png,images/cb_zaal.png
,,,,,,55888,2023-09-24_13h34.28.163,vbt_B1_day1,2022.2.4,Win32,59.54862145,55888,,,,,,,,,,,,,,,,,,,,,,,,,,,,,,,,,,,,,,,,,,,0.394444501,0,1,0,0,liegen,liegen,0,25,25,50,1,liegen,images/br_liegen.png,images/cb_liegen.png
,,,,,,55888,2023-09-24_13h34.28.163,vbt_B1_day1,2022.2.4,Win32,59.54862145,55888,,,,,,,,,,,,,,,,,,,,,,,,,,,,,,,,,,,,,,,,,,,0.220370399,-0.049074067,1,0,0,vizier,vizier,0,26,26,49,1,vizier,images/br_vizier.png,images/cb_vizier.png
,,,,,,55888,2023-09-24_13h34.28.163,vbt_B1_day1,2022.2.4,Win32,59.54862145,55888,,,,,,,,,,,,,,,,,,,,,,,,,,,,,,,,,,,,,,,,,,,0.229629658,-0.108333376,1,0,0,bebrip,bebrip,0,27,27,28,1,bebrip,images/br_bebrip.png,images/cb_bebrip.png
,,,,,,55888,2023-09-24_13h34.28.163,vbt_B1_day1,2022.2.4,Win32,59.54862145,55888,,,,,,,,,,,,,,,,,,,,,,,,,,,,,,,,,,,,,,,,,,,0.303703732,-0.094444487,1,0,0,..hielen,..hielen,0,28,28,38,1,schielen,images/br_schielen.png,images/cb_schielen.png
,,,,,,55888,2023-09-24_13h34.28.163,vbt_B1_day1,2022.2.4,Win32,59.54862145,55888,,,,,,,,,,,,,,,,,,,,,,,,,,,,,,,,,,,,,,,,,,,0.430555556,-0.066666674,1,0,0,jaar,jaar,0,29,29,2,1,jaar,images/br_jaar.png,images/cb_jaar.png
,,,,,,55888,2023-09-24_13h34.28.163,vbt_B1_day1,2022.2.4,Win32,59.54862145,55888,,,,,,,,,,,,,,,,,,,,,,,,,,,,,,,,,,,,,,,,,,,0.288888931,-0.089814822,1,0,0,stui.i..,stui.i..,0,30,30,35,1,stuikem,images/br_stuikem.png,images/cb_stuikem.png
,,,,,,55888,2023-09-24_13h34.28.163,vbt_B1_day1,2022.2.4,Win32,59.54862145,55888,,,,,,,,,,,,,,,,,,,,,,,,,,,,,,,,,,,,,,,,,,,0.340740769,0.025925919,1,0,0,fictie,fictie,0,31,31,48,1,fictie,images/br_fictie.png,images/cb_fictie.png
,,,,,,55888,2023-09-24_13h34.28.163,vbt_B1_day1,2022.2.4,Win32,59.54862145,55888,,,,,,,,,,,,,,,,,,,,,,,,,,,,,,,,,,,,,,,,,,,0.175000014,-0.08425928,1,0,0,slak,slak,0,32,32,0,1,slak,images/br_slak.png,images/cb_slak.png
,,,,,,55888,2023-09-24_13h34.28.163,vbt_B1_day1,2022.2.4,Win32,59.54862145,55888,,,,,,,,,,,,,,,,,,,,,,,,,,,,,,,,,,,,,,,,,,,0.267592607,0.022222201,1,0,0,opslaan,opslaan,0,33,33,53,1,opslaan,images/br_opslaan.png,images/cb_opslaan.png
,,,,,,55888,2023-09-24_13h34.28.163,vbt_B1_day1,2022.2.4,Win32,59.54862145,55888,,,,,,,,,,,,,,,,,,,,,,,,,,,,,,,,,,,,,,,,,,,0.114814829,0.002777771,1,0,0,lezen,lezen,0,34,34,46,1,lezen,images/br_lezen.png,images/cb_lezen.png
,,,,,,55888,2023-09-24_13h34.28.163,vbt_B1_day1,2022.2.4,Win32,59.54862145,55888,,,,,,,,,,,,,,,,,,,,,,,,,,,,,,,,,,,,,,,,,,,0.231481481,-0.136111153,1,0,0,tekenen,tekenen,0,35,35,55,1,tekenen,images/br_tekenen.png,images/cb_tekenen.png
,,,,,,55888,2023-09-24_13h34.28.163,vbt_B1_day1,2022.2.4,Win32,59.54862145,55888,,,,,,,,,,,,,,,,,,,,,,,,,,,,,,,,,,,,,,,,,,,0.26944443,0.062037044,1,0,0,hiervan,hiervan,0,36,36,15,1,hiervan,images/br_hiervan.png,images/cb_hiervan.png
,,,,,,55888,2023-09-24_13h34.28.163,vbt_B1_day1,2022.2.4,Win32,59.54862145,55888,,,,,,,,,,,,,,,,,,,,,,,,,,,,,,,,,,,,,,,,,,,0.262962977,0.074999986,1,0,0,klauw,klauw,0,37,37,7,1,klauw,images/br_klauw.png,images/cb_klauw.png
,,,,,,55888,2023-09-24_13h34.28.163,vbt_B1_day1,2022.2.4,Win32,59.54862145,55888,,,,,,,,,,,,,,,,,,,,,,,,,,,,,,,,,,,,,,,,,,,0.27870369,0.003703683,1,0,0,toenic..,toenic..,0,38,38,56,1,toezicht,images/br_toezicht.png,images/cb_toezicht.png
,,,,,,55888,2023-09-24_13h34.28.163,vbt_B1_day1,2022.2.4,Win32,59.54862145,55888,,,,,,,,,,,,,,,,,,,,,,,,,,,,,,,,,,,,,,,,,,,0.196296339,-0.019444466,1,0,0,loods,loods,0,39,39,47,1,loods,images/br_loods.png,images/cb_loods.png
,,,,,,55888,2023-09-24_13h34.28.163,vbt_B1_day1,2022.2.4,Win32,59.54862145,55888,,,,,,,,,,,,,,,,,,,,,,,,,,,,,,,,,,,,,,,,,,,0.256481524,0.018518519,1,0,0,opvatten,opvatten,0,40,40,59,1,opvatten,images/br_opvatten.png,images/cb_opvatten.png
,,,,,,55888,2023-09-24_13h34.28.163,vbt_B1_day1,2022.2.4,Win32,59.54862145,55888,,,,,,,,,,,,,,,,,,,,,,,,,,,,,,,,,,,,,,,,,,,0.265740783,0.023148148,1,0,0,spanzing,spanzing,0,41,41,37,1,spanzing,images/br_spanzing.png,images/cb_spanzing.png
,,,,,,55888,2023-09-24_13h34.28.163,vbt_B1_day1,2022.2.4,Win32,59.54862145,55888,,,,,,,,,,,,,,,,,,,,,,,,,,,,,,,,,,,,,,,,,,,0.229629658,-0.041666667,1,0,0,genon.,genon.,0,42,42,29,1,genond,images/br_genond.png,images/cb_genond.png
,,,,,,55888,2023-09-24_13h34.28.163,vbt_B1_day1,2022.2.4,Win32,59.54862145,55888,,,,,,,,,,,,,,,,,,,,,,,,,,,,,,,,,,,,,,,,,,,0.305555556,-0.125,1,0,0,knoe,knoe,0,43,43,22,1,knoe,images/br_knoe.png,images/cb_knoe.png
,,,,,,55888,2023-09-24_13h34.28.163,vbt_B1_day1,2022.2.4,Win32,59.54862145,55888,,,,,,,,,,,,,,,,,,,,,,,,,,,,,,,,,,,,,,,,,,,0.276851866,-0.053703697,1,0,0,sta.en,sta.en,0,44,44,31,1,stamen,images/br_stamen.png,images/cb_stamen.png
,,,,,,55888,2023-09-24_13h34.28.163,vbt_B1_day1,2022.2.4,Win32,59.54862145,55888,,,,,,,,,,,,,,,,,,,,,,,,,,,,,,,,,,,,,,,,,,,0.148148148,-0.005555577,1,0,0,voorre..,voorre..,0,45,45,39,1,voorreur,images/br_voorreur.png,images/cb_voorreur.png
,,,,,,55888,2023-09-24_13h34.28.163,vbt_B1_day1,2022.2.4,Win32,59.54862145,55888,,,,,,,,,,,,,,,,,,,,,,,,,,,,,,,,,,,,,,,,,,,0.284259302,0.00462963,1,0,0,reedje,reedje,0,46,46,30,1,reedje,images/br_reedje.png,images/cb_reedje.png
,,,,,,55888,2023-09-24_13h34.28.163,vbt_B1_day1,2022.2.4,Win32,59.54862145,55888,,,,,,,,,,,,,,,,,,,,,,,,,,,,,,,,,,,,,,,,,,,0.237037023,-0.044444437,1,0,0,wijze,wijze,0,47,47,44,1,wijze,images/br_wijze.png,images/cb_wijze.png
,,,,,,55888,2023-09-24_13h34.28.163,vbt_B1_day1,2022.2.4,Win32,59.54862145,55888,,,,,,,,,,,,,,,,,,,,,,,,,,,,,,,,,,,,,,,,,,,0.243518547,-0.068518533,1,0,0,.etd....,.etd....,0,48,48,18,1,uitdelen,images/br_uitdelen.png,images/cb_uitdelen.png
,,,,,,55888,2023-09-24_13h34.28.163,vbt_B1_day1,2022.2.4,Win32,59.54862145,55888,,,,,,,,,,,,,,,,,,,,,,,,,,,,,,,,,,,,,,,,,,,0.346296381,-0.024074095,1,0,0,verva...,verva...,0,49,49,36,1,vervaden,images/br_vervaden.png,images/cb_vervaden.png
,,,,,,55888,2023-09-24_13h34.28.163,vbt_B1_day1,2022.2.4,Win32,59.54862145,55888,,,,,,,,,,,,,,,,,,,,,,,,,,,,,,,,,,,,,,,,,,,0.285185213,-0.021296289,1,0,0,dief,dief,0,50,50,40,1,dief,images/br_dief.png,images/cb_dief.png
,,,,,,55888,2023-09-24_13h34.28.163,vbt_B1_day1,2022.2.4,Win32,59.54862145,55888,,,,,,,,,,,,,,,,,,,,,,,,,,,,,,,,,,,,,,,,,,,0.216666681,0.113888882,1,0,0,zuip..,zuip..,0,51,51,52,1,zuiplap,images/br_zuiplap.png,images/cb_zuiplap.png
,,,,,,55888,2023-09-24_13h34.28.163,vbt_B1_day1,2022.2.4,Win32,59.54862145,55888,,,,,,,,,,,,,,,,,,,,,,,,,,,,,,,,,,,,,,,,,,,0.312962991,0.02407406,1,0,0,schep,schep,0,52,52,4,1,schep,images/br_schep.png,images/cb_schep.png
,,,,,,55888,2023-09-24_13h34.28.163,vbt_B1_day1,2022.2.4,Win32,59.54862145,55888,,,,,,,,,,,,,,,,,,,,,,,,,,,,,,,,,,,,,,,,,,,0.341666751,-0.031481496,1,0,0,dubbel,dubbel,0,53,53,9,1,dubbel,images/br_dubbel.png,images/cb_dubbel.png
,,,,,,55888,2023-09-24_13h34.28.163,vbt_B1_day1,2022.2.4,Win32,59.54862145,55888,,,,,,,,,,,,,,,,,,,,,,,,,,,,,,,,,,,,,,,,,,,0.344444416,-0.045370384,1,0,0,brijk,brijk,0,54,54,25,1,brijk,images/br_brijk.png,images/cb_brijk.png
,,,,,,55888,2023-09-24_13h34.28.163,vbt_B1_day1,2022.2.4,Win32,59.54862145,55888,,,,,,,,,,,,,,,,,,,,,,,,,,,,,,,,,,,,,,,,,,,0.312037009,-0.098148134,1,0,0,schuilen,schuilen,0,55,55,19,1,schuilen,images/br_schuilen.png,images/cb_schuilen.png
,,,,,,55888,2023-09-24_13h34.28.163,vbt_B1_day1,2022.2.4,Win32,59.54862145,55888,,,,,,,,,,,,,,,,,,,,,,,,,,,,,,,,,,,,,,,,,,,0.459259316,0.067592586,1,0,0,hemel,hemel,0,56,56,45,1,hemel,images/br_hemel.png,images/cb_hemel.png
,,,,,,55888,2023-09-24_13h34.28.163,vbt_B1_day1,2022.2.4,Win32,59.54862145,55888,,,,,,,,,,,,,,,,,,,,,,,,,,,,,,,,,,,,,,,,,,,0.304629714,-0.091666681,1,0,0,attentie,attentie,0,57,57,17,1,attentie,images/br_attentie.png,images/cb_attentie.png
,,,,,,55888,2023-09-24_13h34.28.163,vbt_B1_day1,2022.2.4,Win32,59.54862145,55888,,,,,,,,,,,,,,,,,,,,,,,,,,,,,,,,,,,,,,,,,,,0.375925982,-0.08425928,1,0,0,vijftig,vijftig,0,58,58,54,1,vijftig,images/br_vijftig.png,images/cb_vijftig.png
,,,,,,55888,2023-09-24_13h34.28.163,vbt_B1_day1,2022.2.4,Win32,59.54862145,55888,,,,,,,,,,,,,,,,,,,,,,,,,,,,,,,,,,,,,,,,,,,0.145370413,0.068518497,1,0,0,lava,lava,0,59,59,43,1,lava,images/br_lava.png,images/cb_lava.png
,,,,,,55888,2023-09-24_13h34.28.163,vbt_B1_day1,2022.2.4,Win32,59.54862145,55888,,,,,,,,,,,,,,,,,,,,,,,,,,,,,,,,,,,,,,,,,,,,,,,,,,,,,,,,,
