welcome_mouse.x,welcome_mouse.y,welcome_mouse.leftButton,welcome_mouse.midButton,welcome_mouse.rightButton,welcome_mouse.time,"ID",date,expName,psychopyVersion,OS,frameRate,participant,mouse_2.x,mouse_2.y,mouse_2.leftButton,mouse_2.midButton,mouse_2.rightButton,mouse_2.time,mouse_3.x,mouse_3.y,mouse_3.leftButton,mouse_3.midButton,mouse_3.rightButton,mouse_3.time,train_mouse.x,train_mouse.y,train_mouse.leftButton,train_mouse.midButton,train_mouse.rightButton,train_mouse.time,braille_mouse.x,braille_mouse.y,braille_mouse.leftButton,braille_mouse.midButton,braille_mouse.rightButton,braille_mouse.time,trials.thisRepN,trials.thisTrialN,trials.thisN,trials.thisIndex,trials.ran,nlLet,brLet,cbLet,mouse.x,mouse.y,mouse.leftButton,mouse.midButton,mouse.rightButton,testInstr_mouse.x,testInstr_mouse.y,testInstr_mouse.leftButton,testInstr_mouse.midButton,testInstr_mouse.rightButton,test_mouse.x,test_mouse.y,test_mouse.leftButton,test_mouse.midButton,test_mouse.rightButton,test_response.text,testResp,test_loop.thisRepN,test_loop.thisTrialN,test_loop.thisN,test_loop.thisIndex,test_loop.ran,nlWrd,brWrd,cbWrd
0.386111111,-0.253703704,1,0,0,20.8266,55009,2023-07-28_14h54.55.542,vbt_B1_day1,2022.2.4,Win32,59.44949765,55009,,,,,,,,,,,,,,,,,,,,,,,,,,,,,,,,,,,,,,,,,,,,,,,,,,,,,,,,,
,,,,,,55009,2023-07-28_14h54.55.542,vbt_B1_day1,2022.2.4,Win32,59.44949765,55009,0.101851852,-0.236111111,1,0,0,8.4879,,,,,,,,,,,,,,,,,,,,,,,,,,,,,,,,,,,,,,,,,,,,,,,,,,,
,,,,,,55009,2023-07-28_14h54.55.542,vbt_B1_day1,2022.2.4,Win32,59.44949765,55009,,,,,,,-0.068518519,0.365740741,1,0,0,38.2061,,,,,,,,,,,,,,,,,,,,,,,,,,,,,,,,,,,,,,,,,,,,,
,,,,,,55009,2023-07-28_14h54.55.542,vbt_B1_day1,2022.2.4,Win32,59.44949765,55009,,,,,,,,,,,,,-0.114814815,0.335185185,1,0,0,28.8105,,,,,,,,,,,,,,,,,,,,,,,,,,,,,,,,,,,,,,,
,,,,,,55009,2023-07-28_14h54.55.542,vbt_B1_day1,2022.2.4,Win32,59.44949765,55009,,,,,,,,,,,,,,,,,,,-0.108333333,0.340740741,1,0,0,1.1496,0,0,0,3,1,d,images/br_d.png,images/cb_d.png,,,,,,,,,,,,,,,,,,,,,,,,,
,,,,,,55009,2023-07-28_14h54.55.542,vbt_B1_day1,2022.2.4,Win32,59.44949765,55009,,,,,,,,,,,,,,,,,,,-0.108333333,0.340740741,1,0,0,0.1502,0,1,1,25,1,z,images/br_z.png,images/cb_z.png,,,,,,,,,,,,,,,,,,,,,,,,,
,,,,,,55009,2023-07-28_14h54.55.542,vbt_B1_day1,2022.2.4,Win32,59.44949765,55009,,,,,,,,,,,,,,,,,,,-0.1,0.338888889,1,0,0,0.7334,0,2,2,7,1,h,images/br_h.png,images/cb_h.png,,,,,,,,,,,,,,,,,,,,,,,,,
,,,,,,55009,2023-07-28_14h54.55.542,vbt_B1_day1,2022.2.4,Win32,59.44949765,55009,,,,,,,,,,,,,,,,,,,0.043518519,0.199074074,1,0,0,2.7493,0,3,3,17,1,r,images/br_r.png,images/cb_r.png,,,,,,,,,,,,,,,,,,,,,,,,,
,,,,,,55009,2023-07-28_14h54.55.542,vbt_B1_day1,2022.2.4,Win32,59.44949765,55009,,,,,,,,,,,,,,,,,,,0.037037037,0.216666667,1,0,0,2.1336,0,4,4,12,1,m,images/br_m.png,images/cb_m.png,,,,,,,,,,,,,,,,,,,,,,,,,
,,,,,,55009,2023-07-28_14h54.55.542,vbt_B1_day1,2022.2.4,Win32,59.44949765,55009,,,,,,,,,,,,,,,,,,,0.037037037,0.216666667,1,0,0,0.3335,0,5,5,0,1,a,images/br_a.png,images/cb_a.png,,,,,,,,,,,,,,,,,,,,,,,,,
,,,,,,55009,2023-07-28_14h54.55.542,vbt_B1_day1,2022.2.4,Win32,59.44949765,55009,,,,,,,,,,,,,,,,,,,0.037037037,0.216666667,1,0,0,0.6005,0,6,6,14,1,o,images/br_o.png,images/cb_o.png,,,,,,,,,,,,,,,,,,,,,,,,,
,,,,,,55009,2023-07-28_14h54.55.542,vbt_B1_day1,2022.2.4,Win32,59.44949765,55009,,,,,,,,,,,,,,,,,,,0.037037037,0.216666667,1,0,0,0.2998,0,7,7,19,1,t,images/br_t.png,images/cb_t.png,,,,,,,,,,,,,,,,,,,,,,,,,
,,,,,,55009,2023-07-28_14h54.55.542,vbt_B1_day1,2022.2.4,Win32,59.44949765,55009,,,,,,,,,,,,,,,,,,,0.037037037,0.216666667,1,0,0,1.267,0,8,8,15,1,p,images/br_p.png,images/cb_p.png,,,,,,,,,,,,,,,,,,,,,,,,,
,,,,,,55009,2023-07-28_14h54.55.542,vbt_B1_day1,2022.2.4,Win32,59.44949765,55009,,,,,,,,,,,,,,,,,,,0.037037037,0.216666667,1,0,0,0.799,0,9,9,23,1,x,images/br_x.png,images/cb_x.png,,,,,,,,,,,,,,,,,,,,,,,,,
,,,,,,55009,2023-07-28_14h54.55.542,vbt_B1_day1,2022.2.4,Win32,59.44949765,55009,,,,,,,,,,,,,,,,,,,0.037037037,0.216666667,1,0,0,1.0837,0,10,10,6,1,g,images/br_g.png,images/cb_g.png,,,,,,,,,,,,,,,,,,,,,,,,,
,,,,,,55009,2023-07-28_14h54.55.542,vbt_B1_day1,2022.2.4,Win32,59.44949765,55009,,,,,,,,,,,,,,,,,,,0.037037037,0.216666667,1,0,0,0.3162,0,11,11,10,1,k,images/br_k.png,images/cb_k.png,,,,,,,,,,,,,,,,,,,,,,,,,
,,,,,,55009,2023-07-28_14h54.55.542,vbt_B1_day1,2022.2.4,Win32,59.44949765,55009,,,,,,,,,,,,,,,,,,,0.037037037,0.216666667,1,0,0,4.3001,0,12,12,18,1,s,images/br_s.png,images/cb_s.png,,,,,,,,,,,,,,,,,,,,,,,,,
,,,,,,55009,2023-07-28_14h54.55.542,vbt_B1_day1,2022.2.4,Win32,59.44949765,55009,,,,,,,,,,,,,,,,,,,0.037037037,0.216666667,1,0,0,2.35,0,13,13,9,1,j,images/br_j.png,images/cb_j.png,,,,,,,,,,,,,,,,,,,,,,,,,
,,,,,,55009,2023-07-28_14h54.55.542,vbt_B1_day1,2022.2.4,Win32,59.44949765,55009,,,,,,,,,,,,,,,,,,,0.037037037,0.216666667,1,0,0,3.2666,0,14,14,4,1,e,images/br_e.png,images/cb_e.png,,,,,,,,,,,,,,,,,,,,,,,,,
,,,,,,55009,2023-07-28_14h54.55.542,vbt_B1_day1,2022.2.4,Win32,59.44949765,55009,,,,,,,,,,,,,,,,,,,0.037037037,0.216666667,1,0,0,2.8163,0,15,15,2,1,c,images/br_c.png,images/cb_c.png,,,,,,,,,,,,,,,,,,,,,,,,,
,,,,,,55009,2023-07-28_14h54.55.542,vbt_B1_day1,2022.2.4,Win32,59.44949765,55009,,,,,,,,,,,,,,,,,,,0.037037037,0.216666667,1,0,0,4.0676,0,16,16,22,1,w,images/br_w.png,images/cb_w.png,,,,,,,,,,,,,,,,,,,,,,,,,
,,,,,,55009,2023-07-28_14h54.55.542,vbt_B1_day1,2022.2.4,Win32,59.44949765,55009,,,,,,,,,,,,,,,,,,,0.037037037,0.216666667,1,0,0,1.6165,0,17,17,1,1,b,images/br_b.png,images/cb_b.png,,,,,,,,,,,,,,,,,,,,,,,,,
,,,,,,55009,2023-07-28_14h54.55.542,vbt_B1_day1,2022.2.4,Win32,59.44949765,55009,,,,,,,,,,,,,,,,,,,0.042592593,0.213888889,1,0,0,1.5249,0,18,18,11,1,l,images/br_l.png,images/cb_l.png,,,,,,,,,,,,,,,,,,,,,,,,,
,,,,,,55009,2023-07-28_14h54.55.542,vbt_B1_day1,2022.2.4,Win32,59.44949765,55009,,,,,,,,,,,,,,,,,,,0.042592593,0.213888889,1,0,0,2.9499,0,19,19,16,1,q,images/br_q.png,images/cb_q.png,,,,,,,,,,,,,,,,,,,,,,,,,
,,,,,,55009,2023-07-28_14h54.55.542,vbt_B1_day1,2022.2.4,Win32,59.44949765,55009,,,,,,,,,,,,,,,,,,,0.042592593,0.213888889,1,0,0,0.8167,0,20,20,20,1,u,images/br_u.png,images/cb_u.png,,,,,,,,,,,,,,,,,,,,,,,,,
,,,,,,55009,2023-07-28_14h54.55.542,vbt_B1_day1,2022.2.4,Win32,59.44949765,55009,,,,,,,,,,,,,,,,,,,0.042592593,0.213888889,1,0,0,0.1669,0,21,21,24,1,y,images/br_y.png,images/cb_y.png,,,,,,,,,,,,,,,,,,,,,,,,,
,,,,,,55009,2023-07-28_14h54.55.542,vbt_B1_day1,2022.2.4,Win32,59.44949765,55009,,,,,,,,,,,,,,,,,,,0.042592593,0.213888889,1,0,0,1.0005,0,22,22,8,1,i,images/br_i.png,images/cb_i.png,,,,,,,,,,,,,,,,,,,,,,,,,
,,,,,,55009,2023-07-28_14h54.55.542,vbt_B1_day1,2022.2.4,Win32,59.44949765,55009,,,,,,,,,,,,,,,,,,,0.042592593,0.213888889,1,0,0,0.1835,0,23,23,5,1,f,images/br_f.png,images/cb_f.png,,,,,,,,,,,,,,,,,,,,,,,,,
,,,,,,55009,2023-07-28_14h54.55.542,vbt_B1_day1,2022.2.4,Win32,59.44949765,55009,,,,,,,,,,,,,,,,,,,0.042592593,0.213888889,1,0,0,0.1669,0,24,24,21,1,v,images/br_v.png,images/cb_v.png,,,,,,,,,,,,,,,,,,,,,,,,,
,,,,,,55009,2023-07-28_14h54.55.542,vbt_B1_day1,2022.2.4,Win32,59.44949765,55009,,,,,,,,,,,,,,,,,,,0.040740741,0.217592593,1,0,0,0.1496,0,25,25,13,1,n,images/br_n.png,images/cb_n.png,,,,,,,,,,,,,,,,,,,,,,,,,
,,,,,,55009,2023-07-28_14h54.55.542,vbt_B1_day1,2022.2.4,Win32,59.44949765,55009,,,,,,,,,,,,,,,,,,,0.040740741,0.217592593,1,0,0,3.0166,1,0,26,13,1,n,images/br_n.png,images/cb_n.png,,,,,,,,,,,,,,,,,,,,,,,,,
,,,,,,55009,2023-07-28_14h54.55.542,vbt_B1_day1,2022.2.4,Win32,59.44949765,55009,,,,,,,,,,,,,,,,,,,0.146296296,0.137037037,1,0,0,2.817,1,1,27,9,1,j,images/br_j.png,images/cb_j.png,,,,,,,,,,,,,,,,,,,,,,,,,
,,,,,,55009,2023-07-28_14h54.55.542,vbt_B1_day1,2022.2.4,Win32,59.44949765,55009,,,,,,,,,,,,,,,,,,,0.146296296,0.137037037,1,0,0,0.8164,1,2,28,6,1,g,images/br_g.png,images/cb_g.png,,,,,,,,,,,,,,,,,,,,,,,,,
,,,,,,55009,2023-07-28_14h54.55.542,vbt_B1_day1,2022.2.4,Win32,59.44949765,55009,,,,,,,,,,,,,,,,,,,0.115740741,0.125,1,0,0,1.5162,1,3,29,2,1,c,images/br_c.png,images/cb_c.png,,,,,,,,,,,,,,,,,,,,,,,,,
,,,,,,55009,2023-07-28_14h54.55.542,vbt_B1_day1,2022.2.4,Win32,59.44949765,55009,,,,,,,,,,,,,,,,,,,0.075925926,0.026851852,1,0,0,0.8762,1,4,30,15,1,p,images/br_p.png,images/cb_p.png,,,,,,,,,,,,,,,,,,,,,,,,,
,,,,,,55009,2023-07-28_14h54.55.542,vbt_B1_day1,2022.2.4,Win32,59.44949765,55009,,,,,,,,,,,,,,,,,,,0.233333333,-0.008333333,1,0,0,2.5171,1,5,31,25,1,z,images/br_z.png,images/cb_z.png,,,,,,,,,,,,,,,,,,,,,,,,,
,,,,,,55009,2023-07-28_14h54.55.542,vbt_B1_day1,2022.2.4,Win32,59.44949765,55009,,,,,,,,,,,,,,,,,,,0.233333333,-0.008333333,1,0,0,1.017,1,6,32,7,1,h,images/br_h.png,images/cb_h.png,,,,,,,,,,,,,,,,,,,,,,,,,
,,,,,,55009,2023-07-28_14h54.55.542,vbt_B1_day1,2022.2.4,Win32,59.44949765,55009,,,,,,,,,,,,,,,,,,,0.232407407,-0.011111111,1,0,0,1.8989,1,7,33,17,1,r,images/br_r.png,images/cb_r.png,,,,,,,,,,,,,,,,,,,,,,,,,
,,,,,,55009,2023-07-28_14h54.55.542,vbt_B1_day1,2022.2.4,Win32,59.44949765,55009,,,,,,,,,,,,,,,,,,,0.232407407,-0.011111111,1,0,0,1.7329,1,8,34,11,1,l,images/br_l.png,images/cb_l.png,,,,,,,,,,,,,,,,,,,,,,,,,
,,,,,,55009,2023-07-28_14h54.55.542,vbt_B1_day1,2022.2.4,Win32,59.44949765,55009,,,,,,,,,,,,,,,,,,,0.232407407,-0.011111111,1,0,0,0.9999,1,9,35,8,1,i,images/br_i.png,images/cb_i.png,,,,,,,,,,,,,,,,,,,,,,,,,
,,,,,,55009,2023-07-28_14h54.55.542,vbt_B1_day1,2022.2.4,Win32,59.44949765,55009,,,,,,,,,,,,,,,,,,,0.232407407,-0.011111111,1,0,0,2.3337,1,10,36,24,1,y,images/br_y.png,images/cb_y.png,,,,,,,,,,,,,,,,,,,,,,,,,
,,,,,,55009,2023-07-28_14h54.55.542,vbt_B1_day1,2022.2.4,Win32,59.44949765,55009,,,,,,,,,,,,,,,,,,,0.227777778,-0.014814815,1,0,0,3.5,1,11,37,5,1,f,images/br_f.png,images/cb_f.png,,,,,,,,,,,,,,,,,,,,,,,,,
,,,,,,55009,2023-07-28_14h54.55.542,vbt_B1_day1,2022.2.4,Win32,59.44949765,55009,,,,,,,,,,,,,,,,,,,0.226851852,-0.002777778,1,0,0,2.1158,1,12,38,20,1,u,images/br_u.png,images/cb_u.png,,,,,,,,,,,,,,,,,,,,,,,,,
,,,,,,55009,2023-07-28_14h54.55.542,vbt_B1_day1,2022.2.4,Win32,59.44949765,55009,,,,,,,,,,,,,,,,,,,0.225925926,-0.003703704,1,0,0,0.7998,1,13,39,18,1,s,images/br_s.png,images/cb_s.png,,,,,,,,,,,,,,,,,,,,,,,,,
,,,,,,55009,2023-07-28_14h54.55.542,vbt_B1_day1,2022.2.4,Win32,59.44949765,55009,,,,,,,,,,,,,,,,,,,0.225925926,-0.003703704,1,0,0,3.0668,1,14,40,23,1,x,images/br_x.png,images/cb_x.png,,,,,,,,,,,,,,,,,,,,,,,,,
,,,,,,55009,2023-07-28_14h54.55.542,vbt_B1_day1,2022.2.4,Win32,59.44949765,55009,,,,,,,,,,,,,,,,,,,0.225925926,-0.00462963,1,0,0,5.966,1,15,41,1,1,b,images/br_b.png,images/cb_b.png,,,,,,,,,,,,,,,,,,,,,,,,,
,,,,,,55009,2023-07-28_14h54.55.542,vbt_B1_day1,2022.2.4,Win32,59.44949765,55009,,,,,,,,,,,,,,,,,,,0.20462963,-0.046296296,1,0,0,3.5762,1,16,42,10,1,k,images/br_k.png,images/cb_k.png,,,,,,,,,,,,,,,,,,,,,,,,,
,,,,,,55009,2023-07-28_14h54.55.542,vbt_B1_day1,2022.2.4,Win32,59.44949765,55009,,,,,,,,,,,,,,,,,,,0.221296296,-0.050925926,1,0,0,2.4164,1,17,43,3,1,d,images/br_d.png,images/cb_d.png,,,,,,,,,,,,,,,,,,,,,,,,,
,,,,,,55009,2023-07-28_14h54.55.542,vbt_B1_day1,2022.2.4,Win32,59.44949765,55009,,,,,,,,,,,,,,,,,,,0.228703704,-0.033333333,1,0,0,1.1659,1,18,44,21,1,v,images/br_v.png,images/cb_v.png,,,,,,,,,,,,,,,,,,,,,,,,,
,,,,,,55009,2023-07-28_14h54.55.542,vbt_B1_day1,2022.2.4,Win32,59.44949765,55009,,,,,,,,,,,,,,,,,,,0.228703704,-0.033333333,1,0,0,2.0163,1,19,45,14,1,o,images/br_o.png,images/cb_o.png,,,,,,,,,,,,,,,,,,,,,,,,,
,,,,,,55009,2023-07-28_14h54.55.542,vbt_B1_day1,2022.2.4,Win32,59.44949765,55009,,,,,,,,,,,,,,,,,,,0.22962963,-0.031481481,1,0,0,1.8498,1,20,46,22,1,w,images/br_w.png,images/cb_w.png,,,,,,,,,,,,,,,,,,,,,,,,,
,,,,,,55009,2023-07-28_14h54.55.542,vbt_B1_day1,2022.2.4,Win32,59.44949765,55009,,,,,,,,,,,,,,,,,,,0.231481481,-0.026851852,1,0,0,0.6996,1,21,47,0,1,a,images/br_a.png,images/cb_a.png,,,,,,,,,,,,,,,,,,,,,,,,,
,,,,,,55009,2023-07-28_14h54.55.542,vbt_B1_day1,2022.2.4,Win32,59.44949765,55009,,,,,,,,,,,,,,,,,,,0.22962963,-0.021296296,1,0,0,3.9333,1,22,48,12,1,m,images/br_m.png,images/cb_m.png,,,,,,,,,,,,,,,,,,,,,,,,,
,,,,,,55009,2023-07-28_14h54.55.542,vbt_B1_day1,2022.2.4,Win32,59.44949765,55009,,,,,,,,,,,,,,,,,,,0.22962963,-0.021296296,1,0,0,2.0831,1,23,49,19,1,t,images/br_t.png,images/cb_t.png,,,,,,,,,,,,,,,,,,,,,,,,,
,,,,,,55009,2023-07-28_14h54.55.542,vbt_B1_day1,2022.2.4,Win32,59.44949765,55009,,,,,,,,,,,,,,,,,,,0.231481481,-0.022222222,1,0,0,2.6507,1,24,50,16,1,q,images/br_q.png,images/cb_q.png,,,,,,,,,,,,,,,,,,,,,,,,,
,,,,,,55009,2023-07-28_14h54.55.542,vbt_B1_day1,2022.2.4,Win32,59.44949765,55009,,,,,,,,,,,,,,,,,,,0.239814815,-0.016666667,1,0,0,0.9669,1,25,51,4,1,e,images/br_e.png,images/cb_e.png,,,,,,,,,,,,,,,,,,,,,,,,,
,,,,,,55009,2023-07-28_14h54.55.542,vbt_B1_day1,2022.2.4,Win32,59.44949765,55009,,,,,,,,,,,,,,,,,,,0.239814815,-0.016666667,1,0,0,1.5662,2,0,52,25,1,z,images/br_z.png,images/cb_z.png,,,,,,,,,,,,,,,,,,,,,,,,,
,,,,,,55009,2023-07-28_14h54.55.542,vbt_B1_day1,2022.2.4,Win32,59.44949765,55009,,,,,,,,,,,,,,,,,,,0.240740741,-0.016666667,1,0,0,2.7498,2,1,53,13,1,n,images/br_n.png,images/cb_n.png,,,,,,,,,,,,,,,,,,,,,,,,,
,,,,,,55009,2023-07-28_14h54.55.542,vbt_B1_day1,2022.2.4,Win32,59.44949765,55009,,,,,,,,,,,,,,,,,,,0.240740741,-0.016666667,1,0,0,3.5834,2,2,54,24,1,y,images/br_y.png,images/cb_y.png,,,,,,,,,,,,,,,,,,,,,,,,,
,,,,,,55009,2023-07-28_14h54.55.542,vbt_B1_day1,2022.2.4,Win32,59.44949765,55009,,,,,,,,,,,,,,,,,,,0.214814815,0,1,0,0,2.5834,2,3,55,3,1,d,images/br_d.png,images/cb_d.png,,,,,,,,,,,,,,,,,,,,,,,,,
,,,,,,55009,2023-07-28_14h54.55.542,vbt_B1_day1,2022.2.4,Win32,59.44949765,55009,,,,,,,,,,,,,,,,,,,0.213888889,0,1,0,0,1.499,2,4,56,14,1,o,images/br_o.png,images/cb_o.png,,,,,,,,,,,,,,,,,,,,,,,,,
,,,,,,55009,2023-07-28_14h54.55.542,vbt_B1_day1,2022.2.4,Win32,59.44949765,55009,,,,,,,,,,,,,,,,,,,0.215740741,0,1,0,0,0.7826,2,5,57,11,1,l,images/br_l.png,images/cb_l.png,,,,,,,,,,,,,,,,,,,,,,,,,
,,,,,,55009,2023-07-28_14h54.55.542,vbt_B1_day1,2022.2.4,Win32,59.44949765,55009,,,,,,,,,,,,,,,,,,,0.218518519,0.002777778,1,0,0,2.8003,2,6,58,17,1,r,images/br_r.png,images/cb_r.png,,,,,,,,,,,,,,,,,,,,,,,,,
,,,,,,55009,2023-07-28_14h54.55.542,vbt_B1_day1,2022.2.4,Win32,59.44949765,55009,,,,,,,,,,,,,,,,,,,0.218518519,0.005555556,1,0,0,2.433,2,7,59,4,1,e,images/br_e.png,images/cb_e.png,,,,,,,,,,,,,,,,,,,,,,,,,
,,,,,,55009,2023-07-28_14h54.55.542,vbt_B1_day1,2022.2.4,Win32,59.44949765,55009,,,,,,,,,,,,,,,,,,,0.217592593,0.003703704,1,0,0,4.2332,2,8,60,19,1,t,images/br_t.png,images/cb_t.png,,,,,,,,,,,,,,,,,,,,,,,,,
,,,,,,55009,2023-07-28_14h54.55.542,vbt_B1_day1,2022.2.4,Win32,59.44949765,55009,,,,,,,,,,,,,,,,,,,0.215740741,0.041666667,1,0,0,1.2834,2,9,61,22,1,w,images/br_w.png,images/cb_w.png,,,,,,,,,,,,,,,,,,,,,,,,,
,,,,,,55009,2023-07-28_14h54.55.542,vbt_B1_day1,2022.2.4,Win32,59.44949765,55009,,,,,,,,,,,,,,,,,,,0.215740741,0.041666667,1,0,0,3.133,2,10,62,15,1,p,images/br_p.png,images/cb_p.png,,,,,,,,,,,,,,,,,,,,,,,,,
,,,,,,55009,2023-07-28_14h54.55.542,vbt_B1_day1,2022.2.4,Win32,59.44949765,55009,,,,,,,,,,,,,,,,,,,0.217592593,0.044444444,1,0,0,1.8992,2,11,63,12,1,m,images/br_m.png,images/cb_m.png,,,,,,,,,,,,,,,,,,,,,,,,,
,,,,,,55009,2023-07-28_14h54.55.542,vbt_B1_day1,2022.2.4,Win32,59.44949765,55009,,,,,,,,,,,,,,,,,,,0.139814815,0.047222222,1,0,0,7.2499,2,12,64,5,1,f,images/br_f.png,images/cb_f.png,,,,,,,,,,,,,,,,,,,,,,,,,
,,,,,,55009,2023-07-28_14h54.55.542,vbt_B1_day1,2022.2.4,Win32,59.44949765,55009,,,,,,,,,,,,,,,,,,,0.136111111,0.010185185,1,0,0,1.7829,2,13,65,23,1,x,images/br_x.png,images/cb_x.png,,,,,,,,,,,,,,,,,,,,,,,,,
,,,,,,55009,2023-07-28_14h54.55.542,vbt_B1_day1,2022.2.4,Win32,59.44949765,55009,,,,,,,,,,,,,,,,,,,0.137962963,0.007407407,1,0,0,2.1997,2,14,66,0,1,a,images/br_a.png,images/cb_a.png,,,,,,,,,,,,,,,,,,,,,,,,,
,,,,,,55009,2023-07-28_14h54.55.542,vbt_B1_day1,2022.2.4,Win32,59.44949765,55009,,,,,,,,,,,,,,,,,,,0.143518519,0.003703704,1,0,0,4.2664,2,15,67,20,1,u,images/br_u.png,images/cb_u.png,,,,,,,,,,,,,,,,,,,,,,,,,
,,,,,,55009,2023-07-28_14h54.55.542,vbt_B1_day1,2022.2.4,Win32,59.44949765,55009,,,,,,,,,,,,,,,,,,,0.139814815,-0.025,1,0,0,11.0997,2,16,68,9,1,j,images/br_j.png,images/cb_j.png,,,,,,,,,,,,,,,,,,,,,,,,,
,,,,,,55009,2023-07-28_14h54.55.542,vbt_B1_day1,2022.2.4,Win32,59.44949765,55009,,,,,,,,,,,,,,,,,,,0.169444444,-0.042592593,1,0,0,2.8833,2,17,69,2,1,c,images/br_c.png,images/cb_c.png,,,,,,,,,,,,,,,,,,,,,,,,,
,,,,,,55009,2023-07-28_14h54.55.542,vbt_B1_day1,2022.2.4,Win32,59.44949765,55009,,,,,,,,,,,,,,,,,,,0.133333333,-0.031481481,1,0,0,3.1326,2,18,70,6,1,g,images/br_g.png,images/cb_g.png,,,,,,,,,,,,,,,,,,,,,,,,,
,,,,,,55009,2023-07-28_14h54.55.542,vbt_B1_day1,2022.2.4,Win32,59.44949765,55009,,,,,,,,,,,,,,,,,,,0.105555556,0.038888889,1,0,0,9.0165,2,19,71,7,1,h,images/br_h.png,images/cb_h.png,,,,,,,,,,,,,,,,,,,,,,,,,
,,,,,,55009,2023-07-28_14h54.55.542,vbt_B1_day1,2022.2.4,Win32,59.44949765,55009,,,,,,,,,,,,,,,,,,,0.105555556,0.019444444,1,0,0,4.5498,2,20,72,8,1,i,images/br_i.png,images/cb_i.png,,,,,,,,,,,,,,,,,,,,,,,,,
,,,,,,55009,2023-07-28_14h54.55.542,vbt_B1_day1,2022.2.4,Win32,59.44949765,55009,,,,,,,,,,,,,,,,,,,0.127777778,-0.012037037,1,0,0,1.9497,2,21,73,10,1,k,images/br_k.png,images/cb_k.png,,,,,,,,,,,,,,,,,,,,,,,,,
,,,,,,55009,2023-07-28_14h54.55.542,vbt_B1_day1,2022.2.4,Win32,59.44949765,55009,,,,,,,,,,,,,,,,,,,0.161111111,-0.015740741,1,0,0,3.0168,2,22,74,21,1,v,images/br_v.png,images/cb_v.png,,,,,,,,,,,,,,,,,,,,,,,,,
,,,,,,55009,2023-07-28_14h54.55.542,vbt_B1_day1,2022.2.4,Win32,59.44949765,55009,,,,,,,,,,,,,,,,,,,0.143518519,-0.002777778,1,0,0,2.3499,2,23,75,18,1,s,images/br_s.png,images/cb_s.png,,,,,,,,,,,,,,,,,,,,,,,,,
,,,,,,55009,2023-07-28_14h54.55.542,vbt_B1_day1,2022.2.4,Win32,59.44949765,55009,,,,,,,,,,,,,,,,,,,0.163888889,-0.022222222,1,0,0,5.5996,2,24,76,16,1,q,images/br_q.png,images/cb_q.png,,,,,,,,,,,,,,,,,,,,,,,,,
,,,,,,55009,2023-07-28_14h54.55.542,vbt_B1_day1,2022.2.4,Win32,59.44949765,55009,,,,,,,,,,,,,,,,,,,0.15,0.018518519,1,0,0,1.6,2,25,77,1,1,b,images/br_b.png,images/cb_b.png,,,,,,,,,,,,,,,,,,,,,,,,,
,,,,,,55009,2023-07-28_14h54.55.542,vbt_B1_day1,2022.2.4,Win32,59.44949765,55009,,,,,,,,,,,,,,,,,,,0.151851852,-0.037962963,1,0,0,2.4836,3,0,78,11,1,l,images/br_l.png,images/cb_l.png,,,,,,,,,,,,,,,,,,,,,,,,,
,,,,,,55009,2023-07-28_14h54.55.542,vbt_B1_day1,2022.2.4,Win32,59.44949765,55009,,,,,,,,,,,,,,,,,,,0.137962963,0.014814815,1,0,0,2.2668,3,1,79,4,1,e,images/br_e.png,images/cb_e.png,,,,,,,,,,,,,,,,,,,,,,,,,
,,,,,,55009,2023-07-28_14h54.55.542,vbt_B1_day1,2022.2.4,Win32,59.44949765,55009,,,,,,,,,,,,,,,,,,,0.144444444,-0.014814815,1,0,0,0.2668,3,2,80,8,1,i,images/br_i.png,images/cb_i.png,,,,,,,,,,,,,,,,,,,,,,,,,
,,,,,,55009,2023-07-28_14h54.55.542,vbt_B1_day1,2022.2.4,Win32,59.44949765,55009,,,,,,,,,,,,,,,,,,,0.144444444,-0.019444444,1,0,0,0.0836,3,3,81,3,1,d,images/br_d.png,images/cb_d.png,,,,,,,,,,,,,,,,,,,,,,,,,
,,,,,,55009,2023-07-28_14h54.55.542,vbt_B1_day1,2022.2.4,Win32,59.44949765,55009,,,,,,,,,,,,,,,,,,,0.134259259,0.025925926,1,0,0,1.8332,3,4,82,5,1,f,images/br_f.png,images/cb_f.png,,,,,,,,,,,,,,,,,,,,,,,,,
,,,,,,55009,2023-07-28_14h54.55.542,vbt_B1_day1,2022.2.4,Win32,59.44949765,55009,,,,,,,,,,,,,,,,,,,0.172222222,0.04537037,1,0,0,9.9,3,5,83,2,1,c,images/br_c.png,images/cb_c.png,,,,,,,,,,,,,,,,,,,,,,,,,
,,,,,,55009,2023-07-28_14h54.55.542,vbt_B1_day1,2022.2.4,Win32,59.44949765,55009,,,,,,,,,,,,,,,,,,,0.165740741,-0.032407407,1,0,0,1.7832,3,6,84,23,1,x,images/br_x.png,images/cb_x.png,,,,,,,,,,,,,,,,,,,,,,,,,
,,,,,,55009,2023-07-28_14h54.55.542,vbt_B1_day1,2022.2.4,Win32,59.44949765,55009,,,,,,,,,,,,,,,,,,,0.14537037,-0.009259259,1,0,0,2.4166,3,7,85,22,1,w,images/br_w.png,images/cb_w.png,,,,,,,,,,,,,,,,,,,,,,,,,
,,,,,,55009,2023-07-28_14h54.55.542,vbt_B1_day1,2022.2.4,Win32,59.44949765,55009,,,,,,,,,,,,,,,,,,,0.155555556,0.006481481,1,0,0,2.8,3,8,86,12,1,m,images/br_m.png,images/cb_m.png,,,,,,,,,,,,,,,,,,,,,,,,,
,,,,,,55009,2023-07-28_14h54.55.542,vbt_B1_day1,2022.2.4,Win32,59.44949765,55009,,,,,,,,,,,,,,,,,,,0.175,-0.002777778,1,0,0,3.2167,3,9,87,13,1,n,images/br_n.png,images/cb_n.png,,,,,,,,,,,,,,,,,,,,,,,,,
,,,,,,55009,2023-07-28_14h54.55.542,vbt_B1_day1,2022.2.4,Win32,59.44949765,55009,,,,,,,,,,,,,,,,,,,0.146296296,-0.117592593,1,0,0,5.5162,3,10,88,19,1,t,images/br_t.png,images/cb_t.png,,,,,,,,,,,,,,,,,,,,,,,,,
,,,,,,55009,2023-07-28_14h54.55.542,vbt_B1_day1,2022.2.4,Win32,59.44949765,55009,,,,,,,,,,,,,,,,,,,0.123148148,0.048148148,1,0,0,5.7164,3,11,89,6,1,g,images/br_g.png,images/cb_g.png,,,,,,,,,,,,,,,,,,,,,,,,,
,,,,,,55009,2023-07-28_14h54.55.542,vbt_B1_day1,2022.2.4,Win32,59.44949765,55009,,,,,,,,,,,,,,,,,,,0.142592593,0.012962963,1,0,0,1.5005,3,12,90,1,1,b,images/br_b.png,images/cb_b.png,,,,,,,,,,,,,,,,,,,,,,,,,
,,,,,,55009,2023-07-28_14h54.55.542,vbt_B1_day1,2022.2.4,Win32,59.44949765,55009,,,,,,,,,,,,,,,,,,,0.126851852,0.015740741,1,0,0,7.9333,3,13,91,7,1,h,images/br_h.png,images/cb_h.png,,,,,,,,,,,,,,,,,,,,,,,,,
,,,,,,55009,2023-07-28_14h54.55.542,vbt_B1_day1,2022.2.4,Win32,59.44949765,55009,,,,,,,,,,,,,,,,,,,0.175925926,-0.015740741,1,0,0,4.9165,3,14,92,10,1,k,images/br_k.png,images/cb_k.png,,,,,,,,,,,,,,,,,,,,,,,,,
,,,,,,55009,2023-07-28_14h54.55.542,vbt_B1_day1,2022.2.4,Win32,59.44949765,55009,,,,,,,,,,,,,,,,,,,0.173148148,-0.010185185,1,0,0,7.3164,3,15,93,15,1,p,images/br_p.png,images/cb_p.png,,,,,,,,,,,,,,,,,,,,,,,,,
,,,,,,55009,2023-07-28_14h54.55.542,vbt_B1_day1,2022.2.4,Win32,59.44949765,55009,,,,,,,,,,,,,,,,,,,0.2,-0.016666667,1,0,0,0.9664,3,16,94,18,1,s,images/br_s.png,images/cb_s.png,,,,,,,,,,,,,,,,,,,,,,,,,
,,,,,,55009,2023-07-28_14h54.55.542,vbt_B1_day1,2022.2.4,Win32,59.44949765,55009,,,,,,,,,,,,,,,,,,,0.232407407,-0.009259259,1,0,0,4.3163,3,17,95,25,1,z,images/br_z.png,images/cb_z.png,,,,,,,,,,,,,,,,,,,,,,,,,
,,,,,,55009,2023-07-28_14h54.55.542,vbt_B1_day1,2022.2.4,Win32,59.44949765,55009,,,,,,,,,,,,,,,,,,,0.143518519,-0.015740741,1,0,0,1.6669,3,18,96,21,1,v,images/br_v.png,images/cb_v.png,,,,,,,,,,,,,,,,,,,,,,,,,
,,,,,,55009,2023-07-28_14h54.55.542,vbt_B1_day1,2022.2.4,Win32,59.44949765,55009,,,,,,,,,,,,,,,,,,,0.175925926,0.006481481,1,0,0,10.2161,3,19,97,9,1,j,images/br_j.png,images/cb_j.png,,,,,,,,,,,,,,,,,,,,,,,,,
,,,,,,55009,2023-07-28_14h54.55.542,vbt_B1_day1,2022.2.4,Win32,59.44949765,55009,,,,,,,,,,,,,,,,,,,0.168518519,0.008333333,1,0,0,4.1332,3,20,98,24,1,y,images/br_y.png,images/cb_y.png,,,,,,,,,,,,,,,,,,,,,,,,,
,,,,,,55009,2023-07-28_14h54.55.542,vbt_B1_day1,2022.2.4,Win32,59.44949765,55009,,,,,,,,,,,,,,,,,,,0.131481481,0.007407407,1,0,0,0.8671,3,21,99,16,1,q,images/br_q.png,images/cb_q.png,,,,,,,,,,,,,,,,,,,,,,,,,
,,,,,,55009,2023-07-28_14h54.55.542,vbt_B1_day1,2022.2.4,Win32,59.44949765,55009,,,,,,,,,,,,,,,,,,,0.133333333,0,1,0,0,2.5333,3,22,100,20,1,u,images/br_u.png,images/cb_u.png,,,,,,,,,,,,,,,,,,,,,,,,,
,,,,,,55009,2023-07-28_14h54.55.542,vbt_B1_day1,2022.2.4,Win32,59.44949765,55009,,,,,,,,,,,,,,,,,,,0.135185185,0.000925926,1,0,0,0.3668,3,23,101,14,1,o,images/br_o.png,images/cb_o.png,,,,,,,,,,,,,,,,,,,,,,,,,
,,,,,,55009,2023-07-28_14h54.55.542,vbt_B1_day1,2022.2.4,Win32,59.44949765,55009,,,,,,,,,,,,,,,,,,,0.135185185,0.000925926,1,0,0,0.0331,3,24,102,17,1,r,images/br_r.png,images/cb_r.png,,,,,,,,,,,,,,,,,,,,,,,,,
,,,,,,55009,2023-07-28_14h54.55.542,vbt_B1_day1,2022.2.4,Win32,59.44949765,55009,,,,,,,,,,,,,,,,,,,0.143518519,-0.005555556,1,0,0,0.4332,3,25,103,0,1,a,images/br_a.png,images/cb_a.png,,,,,,,,,,,,,,,,,,,,,,,,,
,,,,,,55009,2023-07-28_14h54.55.542,vbt_B1_day1,2022.2.4,Win32,59.44949765,55009,,,,,,,,,,,,,,,,,,,0.188888889,-0.028703704,1,0,0,2.4671,4,0,104,24,1,y,images/br_y.png,images/cb_y.png,,,,,,,,,,,,,,,,,,,,,,,,,
,,,,,,55009,2023-07-28_14h54.55.542,vbt_B1_day1,2022.2.4,Win32,59.44949765,55009,,,,,,,,,,,,,,,,,,,-0.017592593,0.02037037,1,0,0,4.6176,4,1,105,10,1,k,images/br_k.png,images/cb_k.png,,,,,,,,,,,,,,,,,,,,,,,,,
,,,,,,55009,2023-07-28_14h54.55.542,vbt_B1_day1,2022.2.4,Win32,59.44949765,55009,,,,,,,,,,,,,,,,,,,0.119444444,-0.017592593,1,0,0,0.8666,4,2,106,3,1,d,images/br_d.png,images/cb_d.png,,,,,,,,,,,,,,,,,,,,,,,,,
,,,,,,55009,2023-07-28_14h54.55.542,vbt_B1_day1,2022.2.4,Win32,59.44949765,55009,,,,,,,,,,,,,,,,,,,0.137037037,-0.024074074,1,0,0,0.7834,4,3,107,16,1,q,images/br_q.png,images/cb_q.png,,,,,,,,,,,,,,,,,,,,,,,,,
,,,,,,55009,2023-07-28_14h54.55.542,vbt_B1_day1,2022.2.4,Win32,59.44949765,55009,,,,,,,,,,,,,,,,,,,0.135185185,-0.022222222,1,0,0,0.1671,4,4,108,14,1,o,images/br_o.png,images/cb_o.png,,,,,,,,,,,,,,,,,,,,,,,,,
,,,,,,55009,2023-07-28_14h54.55.542,vbt_B1_day1,2022.2.4,Win32,59.44949765,55009,,,,,,,,,,,,,,,,,,,0.135185185,-0.022222222,1,0,0,0.7009,4,5,109,11,1,l,images/br_l.png,images/cb_l.png,,,,,,,,,,,,,,,,,,,,,,,,,
,,,,,,55009,2023-07-28_14h54.55.542,vbt_B1_day1,2022.2.4,Win32,59.44949765,55009,,,,,,,,,,,,,,,,,,,0.199074074,0.032407407,1,0,0,0.2997,4,6,110,8,1,i,images/br_i.png,images/cb_i.png,,,,,,,,,,,,,,,,,,,,,,,,,
,,,,,,55009,2023-07-28_14h54.55.542,vbt_B1_day1,2022.2.4,Win32,59.44949765,55009,,,,,,,,,,,,,,,,,,,0.168518519,0.007407407,1,0,0,4.3003,4,7,111,22,1,w,images/br_w.png,images/cb_w.png,,,,,,,,,,,,,,,,,,,,,,,,,
,,,,,,55009,2023-07-28_14h54.55.542,vbt_B1_day1,2022.2.4,Win32,59.44949765,55009,,,,,,,,,,,,,,,,,,,0.152777778,-0.006481481,1,0,0,0.966,4,8,112,15,1,p,images/br_p.png,images/cb_p.png,,,,,,,,,,,,,,,,,,,,,,,,,
,,,,,,55009,2023-07-28_14h54.55.542,vbt_B1_day1,2022.2.4,Win32,59.44949765,55009,,,,,,,,,,,,,,,,,,,0.159259259,-0.007407407,1,0,0,0.6666,4,9,113,12,1,m,images/br_m.png,images/cb_m.png,,,,,,,,,,,,,,,,,,,,,,,,,
,,,,,,55009,2023-07-28_14h54.55.542,vbt_B1_day1,2022.2.4,Win32,59.44949765,55009,,,,,,,,,,,,,,,,,,,0.118518519,0.001851852,1,0,0,0.9422,4,10,114,0,1,a,images/br_a.png,images/cb_a.png,,,,,,,,,,,,,,,,,,,,,,,,,
,,,,,,55009,2023-07-28_14h54.55.542,vbt_B1_day1,2022.2.4,Win32,59.44949765,55009,,,,,,,,,,,,,,,,,,,0.112037037,0.005555556,1,0,0,0.993,4,11,115,5,1,f,images/br_f.png,images/cb_f.png,,,,,,,,,,,,,,,,,,,,,,,,,
,,,,,,55009,2023-07-28_14h54.55.542,vbt_B1_day1,2022.2.4,Win32,59.44949765,55009,,,,,,,,,,,,,,,,,,,0.124074074,-0.000925926,1,0,0,1.2334,4,12,116,2,1,c,images/br_c.png,images/cb_c.png,,,,,,,,,,,,,,,,,,,,,,,,,
,,,,,,55009,2023-07-28_14h54.55.542,vbt_B1_day1,2022.2.4,Win32,59.44949765,55009,,,,,,,,,,,,,,,,,,,0.125,-0.018518519,1,0,0,0.4328,4,13,117,25,1,z,images/br_z.png,images/cb_z.png,,,,,,,,,,,,,,,,,,,,,,,,,
,,,,,,55009,2023-07-28_14h54.55.542,vbt_B1_day1,2022.2.4,Win32,59.44949765,55009,,,,,,,,,,,,,,,,,,,0.159259259,-0.024074074,1,0,0,0.8992,4,14,118,9,1,j,images/br_j.png,images/cb_j.png,,,,,,,,,,,,,,,,,,,,,,,,,
,,,,,,55009,2023-07-28_14h54.55.542,vbt_B1_day1,2022.2.4,Win32,59.44949765,55009,,,,,,,,,,,,,,,,,,,0.151851852,-0.038888889,1,0,0,41.6503,4,15,119,20,1,u,images/br_u.png,images/cb_u.png,,,,,,,,,,,,,,,,,,,,,,,,,
,,,,,,55009,2023-07-28_14h54.55.542,vbt_B1_day1,2022.2.4,Win32,59.44949765,55009,,,,,,,,,,,,,,,,,,,0.205555556,0.014814815,1,0,0,2.3989,4,16,120,7,1,h,images/br_h.png,images/cb_h.png,,,,,,,,,,,,,,,,,,,,,,,,,
,,,,,,55009,2023-07-28_14h54.55.542,vbt_B1_day1,2022.2.4,Win32,59.44949765,55009,,,,,,,,,,,,,,,,,,,0.166666667,-0.009259259,1,0,0,7.667,4,17,121,6,1,g,images/br_g.png,images/cb_g.png,,,,,,,,,,,,,,,,,,,,,,,,,
,,,,,,55009,2023-07-28_14h54.55.542,vbt_B1_day1,2022.2.4,Win32,59.44949765,55009,,,,,,,,,,,,,,,,,,,0.166666667,-0.009259259,1,0,0,0.2997,4,18,122,4,1,e,images/br_e.png,images/cb_e.png,,,,,,,,,,,,,,,,,,,,,,,,,
,,,,,,55009,2023-07-28_14h54.55.542,vbt_B1_day1,2022.2.4,Win32,59.44949765,55009,,,,,,,,,,,,,,,,,,,0.228703704,-0.017592593,1,0,0,1.5665,4,19,123,13,1,n,images/br_n.png,images/cb_n.png,,,,,,,,,,,,,,,,,,,,,,,,,
,,,,,,55009,2023-07-28_14h54.55.542,vbt_B1_day1,2022.2.4,Win32,59.44949765,55009,,,,,,,,,,,,,,,,,,,0.176851852,-0.017592593,1,0,0,0.3999,4,20,124,21,1,v,images/br_v.png,images/cb_v.png,,,,,,,,,,,,,,,,,,,,,,,,,
,,,,,,55009,2023-07-28_14h54.55.542,vbt_B1_day1,2022.2.4,Win32,59.44949765,55009,,,,,,,,,,,,,,,,,,,0.188888889,-0.003703704,1,0,0,3.8498,4,21,125,19,1,t,images/br_t.png,images/cb_t.png,,,,,,,,,,,,,,,,,,,,,,,,,
,,,,,,55009,2023-07-28_14h54.55.542,vbt_B1_day1,2022.2.4,Win32,59.44949765,55009,,,,,,,,,,,,,,,,,,,0.17037037,-0.037962963,1,0,0,0.5833,4,22,126,23,1,x,images/br_x.png,images/cb_x.png,,,,,,,,,,,,,,,,,,,,,,,,,
,,,,,,55009,2023-07-28_14h54.55.542,vbt_B1_day1,2022.2.4,Win32,59.44949765,55009,,,,,,,,,,,,,,,,,,,0.175925926,-0.050925926,1,0,0,0.7004,4,23,127,17,1,r,images/br_r.png,images/cb_r.png,,,,,,,,,,,,,,,,,,,,,,,,,
,,,,,,55009,2023-07-28_14h54.55.542,vbt_B1_day1,2022.2.4,Win32,59.44949765,55009,,,,,,,,,,,,,,,,,,,0.176851852,-0.043518519,1,0,0,1.6328,4,24,128,1,1,b,images/br_b.png,images/cb_b.png,,,,,,,,,,,,,,,,,,,,,,,,,
,,,,,,55009,2023-07-28_14h54.55.542,vbt_B1_day1,2022.2.4,Win32,59.44949765,55009,,,,,,,,,,,,,,,,,,,0.173148148,-0.000925926,1,0,0,5.5,4,25,129,18,1,s,images/br_s.png,images/cb_s.png,,,,,,,,,,,,,,,,,,,,,,,,,
,,,,,,55009,2023-07-28_14h54.55.542,vbt_B1_day1,2022.2.4,Win32,59.44949765,55009,,,,,,,,,,,,,,,,,,,0.175,-0.000925926,1,0,0,0.6835,5,0,130,15,1,p,images/br_p.png,images/cb_p.png,,,,,,,,,,,,,,,,,,,,,,,,,
,,,,,,55009,2023-07-28_14h54.55.542,vbt_B1_day1,2022.2.4,Win32,59.44949765,55009,,,,,,,,,,,,,,,,,,,0.17037037,-0.006481481,1,0,0,0.0163,5,1,131,8,1,i,images/br_i.png,images/cb_i.png,,,,,,,,,,,,,,,,,,,,,,,,,
,,,,,,55009,2023-07-28_14h54.55.542,vbt_B1_day1,2022.2.4,Win32,59.44949765,55009,,,,,,,,,,,,,,,,,,,0.17037037,-0.00462963,1,0,0,2.0496,5,2,132,22,1,w,images/br_w.png,images/cb_w.png,,,,,,,,,,,,,,,,,,,,,,,,,
,,,,,,55009,2023-07-28_14h54.55.542,vbt_B1_day1,2022.2.4,Win32,59.44949765,55009,,,,,,,,,,,,,,,,,,,0.163888889,-0.009259259,1,0,0,0.5671,5,3,133,23,1,x,images/br_x.png,images/cb_x.png,,,,,,,,,,,,,,,,,,,,,,,,,
,,,,,,55009,2023-07-28_14h54.55.542,vbt_B1_day1,2022.2.4,Win32,59.44949765,55009,,,,,,,,,,,,,,,,,,,0.210185185,0.033333333,1,0,0,5.7503,5,4,134,9,1,j,images/br_j.png,images/cb_j.png,,,,,,,,,,,,,,,,,,,,,,,,,
,,,,,,55009,2023-07-28_14h54.55.542,vbt_B1_day1,2022.2.4,Win32,59.44949765,55009,,,,,,,,,,,,,,,,,,,0.182407407,0.011111111,1,0,0,0.8498,5,5,135,18,1,s,images/br_s.png,images/cb_s.png,,,,,,,,,,,,,,,,,,,,,,,,,
,,,,,,55009,2023-07-28_14h54.55.542,vbt_B1_day1,2022.2.4,Win32,59.44949765,55009,,,,,,,,,,,,,,,,,,,0.186111111,0.067592593,1,0,0,4.9837,5,6,136,20,1,u,images/br_u.png,images/cb_u.png,,,,,,,,,,,,,,,,,,,,,,,,,
,,,,,,55009,2023-07-28_14h54.55.542,vbt_B1_day1,2022.2.4,Win32,59.44949765,55009,,,,,,,,,,,,,,,,,,,0.191666667,0.022222222,1,0,0,0.3928,5,7,137,19,1,t,images/br_t.png,images/cb_t.png,,,,,,,,,,,,,,,,,,,,,,,,,
,,,,,,55009,2023-07-28_14h54.55.542,vbt_B1_day1,2022.2.4,Win32,59.44949765,55009,,,,,,,,,,,,,,,,,,,0.19537037,0.030555556,1,0,0,1.8169,5,8,138,25,1,z,images/br_z.png,images/cb_z.png,,,,,,,,,,,,,,,,,,,,,,,,,
,,,,,,55009,2023-07-28_14h54.55.542,vbt_B1_day1,2022.2.4,Win32,59.44949765,55009,,,,,,,,,,,,,,,,,,,0.199074074,0.016666667,1,0,0,7.2163,5,9,139,10,1,k,images/br_k.png,images/cb_k.png,,,,,,,,,,,,,,,,,,,,,,,,,
,,,,,,55009,2023-07-28_14h54.55.542,vbt_B1_day1,2022.2.4,Win32,59.44949765,55009,,,,,,,,,,,,,,,,,,,0.186111111,0.002777778,1,0,0,0.4089,5,10,140,11,1,l,images/br_l.png,images/cb_l.png,,,,,,,,,,,,,,,,,,,,,,,,,
,,,,,,55009,2023-07-28_14h54.55.542,vbt_B1_day1,2022.2.4,Win32,59.44949765,55009,,,,,,,,,,,,,,,,,,,0.186111111,0.00462963,1,0,0,0.7503,5,11,141,14,1,o,images/br_o.png,images/cb_o.png,,,,,,,,,,,,,,,,,,,,,,,,,
,,,,,,55009,2023-07-28_14h54.55.542,vbt_B1_day1,2022.2.4,Win32,59.44949765,55009,,,,,,,,,,,,,,,,,,,0.203703704,-0.021296296,1,0,0,8.7074,5,12,142,17,1,r,images/br_r.png,images/cb_r.png,,,,,,,,,,,,,,,,,,,,,,,,,
,,,,,,55009,2023-07-28_14h54.55.542,vbt_B1_day1,2022.2.4,Win32,59.44949765,55009,,,,,,,,,,,,,,,,,,,0.20462963,-0.021296296,1,0,0,0.5329,5,13,143,6,1,g,images/br_g.png,images/cb_g.png,,,,,,,,,,,,,,,,,,,,,,,,,
,,,,,,55009,2023-07-28_14h54.55.542,vbt_B1_day1,2022.2.4,Win32,59.44949765,55009,,,,,,,,,,,,,,,,,,,0.201851852,-0.025,1,0,0,2.3167,5,14,144,16,1,q,images/br_q.png,images/cb_q.png,,,,,,,,,,,,,,,,,,,,,,,,,
,,,,,,55009,2023-07-28_14h54.55.542,vbt_B1_day1,2022.2.4,Win32,59.44949765,55009,,,,,,,,,,,,,,,,,,,0.201851852,-0.025,1,0,0,4.2831,5,15,145,24,1,y,images/br_y.png,images/cb_y.png,,,,,,,,,,,,,,,,,,,,,,,,,
,,,,,,55009,2023-07-28_14h54.55.542,vbt_B1_day1,2022.2.4,Win32,59.44949765,55009,,,,,,,,,,,,,,,,,,,0.201851852,-0.025,1,0,0,1.4829,5,16,146,1,1,b,images/br_b.png,images/cb_b.png,,,,,,,,,,,,,,,,,,,,,,,,,
,,,,,,55009,2023-07-28_14h54.55.542,vbt_B1_day1,2022.2.4,Win32,59.44949765,55009,,,,,,,,,,,,,,,,,,,0.201851852,-0.025,1,0,0,2.6837,5,17,147,12,1,m,images/br_m.png,images/cb_m.png,,,,,,,,,,,,,,,,,,,,,,,,,
,,,,,,55009,2023-07-28_14h54.55.542,vbt_B1_day1,2022.2.4,Win32,59.44949765,55009,,,,,,,,,,,,,,,,,,,0.153703704,0,1,0,0,2.6496,5,18,148,13,1,n,images/br_n.png,images/cb_n.png,,,,,,,,,,,,,,,,,,,,,,,,,
,,,,,,55009,2023-07-28_14h54.55.542,vbt_B1_day1,2022.2.4,Win32,59.44949765,55009,,,,,,,,,,,,,,,,,,,0.15462963,0.001851852,1,0,0,0.6009,5,19,149,0,1,a,images/br_a.png,images/cb_a.png,,,,,,,,,,,,,,,,,,,,,,,,,
,,,,,,55009,2023-07-28_14h54.55.542,vbt_B1_day1,2022.2.4,Win32,59.44949765,55009,,,,,,,,,,,,,,,,,,,0.15462963,0.007407407,1,0,0,0.1833,5,20,150,4,1,e,images/br_e.png,images/cb_e.png,,,,,,,,,,,,,,,,,,,,,,,,,
,,,,,,55009,2023-07-28_14h54.55.542,vbt_B1_day1,2022.2.4,Win32,59.44949765,55009,,,,,,,,,,,,,,,,,,,0.114814815,0.015740741,1,0,0,1.3331,5,21,151,5,1,f,images/br_f.png,images/cb_f.png,,,,,,,,,,,,,,,,,,,,,,,,,
,,,,,,55009,2023-07-28_14h54.55.542,vbt_B1_day1,2022.2.4,Win32,59.44949765,55009,,,,,,,,,,,,,,,,,,,0.114814815,0.018518519,1,0,0,3.2502,5,22,152,21,1,v,images/br_v.png,images/cb_v.png,,,,,,,,,,,,,,,,,,,,,,,,,
,,,,,,55009,2023-07-28_14h54.55.542,vbt_B1_day1,2022.2.4,Win32,59.44949765,55009,,,,,,,,,,,,,,,,,,,0.178703704,0.039814815,1,0,0,12.8171,5,23,153,7,1,h,images/br_h.png,images/cb_h.png,,,,,,,,,,,,,,,,,,,,,,,,,
,,,,,,55009,2023-07-28_14h54.55.542,vbt_B1_day1,2022.2.4,Win32,59.44949765,55009,,,,,,,,,,,,,,,,,,,0.186111111,0.042592593,1,0,0,0.8166,5,24,154,2,1,c,images/br_c.png,images/cb_c.png,,,,,,,,,,,,,,,,,,,,,,,,,
,,,,,,55009,2023-07-28_14h54.55.542,vbt_B1_day1,2022.2.4,Win32,59.44949765,55009,,,,,,,,,,,,,,,,,,,0.115740741,0.025,1,0,0,5.9999,5,25,155,3,1,d,images/br_d.png,images/cb_d.png,,,,,,,,,,,,,,,,,,,,,,,,,
,,,,,,55009,2023-07-28_14h54.55.542,vbt_B1_day1,2022.2.4,Win32,59.44949765,55009,,,,,,,,,,,,,,,,,,,0.118518519,0.026851852,1,0,0,4.5168,6,0,156,21,1,v,images/br_v.png,images/cb_v.png,,,,,,,,,,,,,,,,,,,,,,,,,
,,,,,,55009,2023-07-28_14h54.55.542,vbt_B1_day1,2022.2.4,Win32,59.44949765,55009,,,,,,,,,,,,,,,,,,,0.106481481,0.018518519,1,0,0,0.1668,6,1,157,4,1,e,images/br_e.png,images/cb_e.png,,,,,,,,,,,,,,,,,,,,,,,,,
,,,,,,55009,2023-07-28_14h54.55.542,vbt_B1_day1,2022.2.4,Win32,59.44949765,55009,,,,,,,,,,,,,,,,,,,0.090740741,0.018518519,1,0,0,2.7497,6,2,158,10,1,k,images/br_k.png,images/cb_k.png,,,,,,,,,,,,,,,,,,,,,,,,,
,,,,,,55009,2023-07-28_14h54.55.542,vbt_B1_day1,2022.2.4,Win32,59.44949765,55009,,,,,,,,,,,,,,,,,,,0.132407407,-0.040740741,1,0,0,5.1996,6,3,159,13,1,n,images/br_n.png,images/cb_n.png,,,,,,,,,,,,,,,,,,,,,,,,,
,,,,,,55009,2023-07-28_14h54.55.542,vbt_B1_day1,2022.2.4,Win32,59.44949765,55009,,,,,,,,,,,,,,,,,,,0.121296296,-0.021296296,1,0,0,1.15,6,4,160,24,1,y,images/br_y.png,images/cb_y.png,,,,,,,,,,,,,,,,,,,,,,,,,
,,,,,,55009,2023-07-28_14h54.55.542,vbt_B1_day1,2022.2.4,Win32,59.44949765,55009,,,,,,,,,,,,,,,,,,,0.137962963,0.059259259,1,0,0,1.8758,6,5,161,7,1,h,images/br_h.png,images/cb_h.png,,,,,,,,,,,,,,,,,,,,,,,,,
,,,,,,55009,2023-07-28_14h54.55.542,vbt_B1_day1,2022.2.4,Win32,59.44949765,55009,,,,,,,,,,,,,,,,,,,0.133333333,-0.051851852,1,0,0,0.1335,6,6,162,15,1,p,images/br_p.png,images/cb_p.png,,,,,,,,,,,,,,,,,,,,,,,,,
,,,,,,55009,2023-07-28_14h54.55.542,vbt_B1_day1,2022.2.4,Win32,59.44949765,55009,,,,,,,,,,,,,,,,,,,0.124074074,-0.052777778,1,0,0,1.3162,6,7,163,23,1,x,images/br_x.png,images/cb_x.png,,,,,,,,,,,,,,,,,,,,,,,,,
,,,,,,55009,2023-07-28_14h54.55.542,vbt_B1_day1,2022.2.4,Win32,59.44949765,55009,,,,,,,,,,,,,,,,,,,0.124074074,-0.049074074,1,0,0,0.9999,6,8,164,12,1,m,images/br_m.png,images/cb_m.png,,,,,,,,,,,,,,,,,,,,,,,,,
,,,,,,55009,2023-07-28_14h54.55.542,vbt_B1_day1,2022.2.4,Win32,59.44949765,55009,,,,,,,,,,,,,,,,,,,0.12962963,-0.050925926,1,0,0,2.1498,6,9,165,18,1,s,images/br_s.png,images/cb_s.png,,,,,,,,,,,,,,,,,,,,,,,,,
,,,,,,55009,2023-07-28_14h54.55.542,vbt_B1_day1,2022.2.4,Win32,59.44949765,55009,,,,,,,,,,,,,,,,,,,0.12962963,-0.050925926,1,0,0,0.2837,6,10,166,17,1,r,images/br_r.png,images/cb_r.png,,,,,,,,,,,,,,,,,,,,,,,,,
,,,,,,55009,2023-07-28_14h54.55.542,vbt_B1_day1,2022.2.4,Win32,59.44949765,55009,,,,,,,,,,,,,,,,,,,0.193518519,0.030555556,1,0,0,5.1662,6,11,167,5,1,f,images/br_f.png,images/cb_f.png,,,,,,,,,,,,,,,,,,,,,,,,,
,,,,,,55009,2023-07-28_14h54.55.542,vbt_B1_day1,2022.2.4,Win32,59.44949765,55009,,,,,,,,,,,,,,,,,,,0.108333333,-0.013888889,1,0,0,0.2837,6,12,168,0,1,a,images/br_a.png,images/cb_a.png,,,,,,,,,,,,,,,,,,,,,,,,,
,,,,,,55009,2023-07-28_14h54.55.542,vbt_B1_day1,2022.2.4,Win32,59.44949765,55009,,,,,,,,,,,,,,,,,,,0.151851852,-0.038888889,1,0,0,0.883,6,13,169,11,1,l,images/br_l.png,images/cb_l.png,,,,,,,,,,,,,,,,,,,,,,,,,
,,,,,,55009,2023-07-28_14h54.55.542,vbt_B1_day1,2022.2.4,Win32,59.44949765,55009,,,,,,,,,,,,,,,,,,,0.151851852,-0.038888889,1,0,0,1.5998,6,14,170,14,1,o,images/br_o.png,images/cb_o.png,,,,,,,,,,,,,,,,,,,,,,,,,
,,,,,,55009,2023-07-28_14h54.55.542,vbt_B1_day1,2022.2.4,Win32,59.44949765,55009,,,,,,,,,,,,,,,,,,,0.097222222,-0.034259259,1,0,0,3.9499,6,15,171,22,1,w,images/br_w.png,images/cb_w.png,,,,,,,,,,,,,,,,,,,,,,,,,
,,,,,,55009,2023-07-28_14h54.55.542,vbt_B1_day1,2022.2.4,Win32,59.44949765,55009,,,,,,,,,,,,,,,,,,,0.088888889,-0.02962963,1,0,0,2.1665,6,16,172,20,1,u,images/br_u.png,images/cb_u.png,,,,,,,,,,,,,,,,,,,,,,,,,
,,,,,,55009,2023-07-28_14h54.55.542,vbt_B1_day1,2022.2.4,Win32,59.44949765,55009,,,,,,,,,,,,,,,,,,,0.153703704,0.027777778,1,0,0,2.4921,6,17,173,9,1,j,images/br_j.png,images/cb_j.png,,,,,,,,,,,,,,,,,,,,,,,,,
,,,,,,55009,2023-07-28_14h54.55.542,vbt_B1_day1,2022.2.4,Win32,59.44949765,55009,,,,,,,,,,,,,,,,,,,0.125,-0.008333333,1,0,0,0.0173,6,18,174,1,1,b,images/br_b.png,images/cb_b.png,,,,,,,,,,,,,,,,,,,,,,,,,
,,,,,,55009,2023-07-28_14h54.55.542,vbt_B1_day1,2022.2.4,Win32,59.44949765,55009,,,,,,,,,,,,,,,,,,,0.125,-0.008333333,1,0,0,0.4756,6,19,175,8,1,i,images/br_i.png,images/cb_i.png,,,,,,,,,,,,,,,,,,,,,,,,,
,,,,,,55009,2023-07-28_14h54.55.542,vbt_B1_day1,2022.2.4,Win32,59.44949765,55009,,,,,,,,,,,,,,,,,,,0.125,-0.000925926,1,0,0,2.7169,6,20,176,3,1,d,images/br_d.png,images/cb_d.png,,,,,,,,,,,,,,,,,,,,,,,,,
,,,,,,55009,2023-07-28_14h54.55.542,vbt_B1_day1,2022.2.4,Win32,59.44949765,55009,,,,,,,,,,,,,,,,,,,0.124074074,-0.015740741,1,0,0,0.2992,6,21,177,19,1,t,images/br_t.png,images/cb_t.png,,,,,,,,,,,,,,,,,,,,,,,,,
,,,,,,55009,2023-07-28_14h54.55.542,vbt_B1_day1,2022.2.4,Win32,59.44949765,55009,,,,,,,,,,,,,,,,,,,0.12037037,-0.071296296,1,0,0,0.6165,6,22,178,2,1,c,images/br_c.png,images/cb_c.png,,,,,,,,,,,,,,,,,,,,,,,,,
,,,,,,55009,2023-07-28_14h54.55.542,vbt_B1_day1,2022.2.4,Win32,59.44949765,55009,,,,,,,,,,,,,,,,,,,0.15462963,-0.04537037,1,0,0,2.2166,6,23,179,25,1,z,images/br_z.png,images/cb_z.png,,,,,,,,,,,,,,,,,,,,,,,,,
,,,,,,55009,2023-07-28_14h54.55.542,vbt_B1_day1,2022.2.4,Win32,59.44949765,55009,,,,,,,,,,,,,,,,,,,0.139814815,-0.109259259,1,0,0,0.1908,6,24,180,6,1,g,images/br_g.png,images/cb_g.png,,,,,,,,,,,,,,,,,,,,,,,,,
,,,,,,55009,2023-07-28_14h54.55.542,vbt_B1_day1,2022.2.4,Win32,59.44949765,55009,,,,,,,,,,,,,,,,,,,0.15,-0.117592593,1,0,0,0.4496,6,25,181,16,1,q,images/br_q.png,images/cb_q.png,,,,,,,,,,,,,,,,,,,,,,,,,
,,,,,,55009,2023-07-28_14h54.55.542,vbt_B1_day1,2022.2.4,Win32,59.44949765,55009,,,,,,,,,,,,,,,,,,,,,,,,,,,,,,,,,-0.242592593,-0.487962963,1,0,0,,,,,,,,,,,,,,,,,,,,
,,,,,,55009,2023-07-28_14h54.55.542,vbt_B1_day1,2022.2.4,Win32,59.44949765,55009,,,,,,,,,,,,,,,,,,,,,,,,,,,,,,,,,,,,,,-0.272222222,0.072222222,1,0,0,,,,,,,,,,,,,,,
,,,,,,55009,2023-07-28_14h54.55.542,vbt_B1_day1,2022.2.4,Win32,59.44949765,55009,,,,,,,,,,,,,,,,,,,,,,,,,,,,,,,,,,,,,,,,,,,-0.005555556,-0.013888889,1,0,0,toez....,toez....,0,0,0,56,1,toezicht,images/br_toezicht.png,images/cb_toezicht.png
,,,,,,55009,2023-07-28_14h54.55.542,vbt_B1_day1,2022.2.4,Win32,59.44949765,55009,,,,,,,,,,,,,,,,,,,,,,,,,,,,,,,,,,,,,,,,,,,0.111111111,-0.017592593,1,0,0,tras,tras,0,1,1,20,1,tars,images/br_tars.png,images/cb_tars.png
,,,,,,55009,2023-07-28_14h54.55.542,vbt_B1_day1,2022.2.4,Win32,59.44949765,55009,,,,,,,,,,,,,,,,,,,,,,,,,,,,,,,,,,,,,,,,,,,-0.021296296,-0.030555556,1,0,0,......,......,0,2,2,8,1,kanjer,images/br_kanjer.png,images/cb_kanjer.png
,,,,,,55009,2023-07-28_14h54.55.542,vbt_B1_day1,2022.2.4,Win32,59.44949765,55009,,,,,,,,,,,,,,,,,,,,,,,,,,,,,,,,,,,,,,,,,,,0.158333333,-0.007407407,1,0,0,....,....,0,3,3,7,1,klauw,images/br_klauw.png,images/cb_klauw.png
,,,,,,55009,2023-07-28_14h54.55.542,vbt_B1_day1,2022.2.4,Win32,59.44949765,55009,,,,,,,,,,,,,,,,,,,,,,,,,,,,,,,,,,,,,,,,,,,-0.202777778,0.152777778,1,0,0,liegen,liegen,0,4,4,50,1,liegen,images/br_liegen.png,images/cb_liegen.png
,,,,,,55009,2023-07-28_14h54.55.542,vbt_B1_day1,2022.2.4,Win32,59.44949765,55009,,,,,,,,,,,,,,,,,,,,,,,,,,,,,,,,,,,,,,,,,,,0.130555556,-0.046296296,1,0,0,dubb..,dubb..,0,5,5,9,1,dubbel,images/br_dubbel.png,images/cb_dubbel.png
,,,,,,55009,2023-07-28_14h54.55.542,vbt_B1_day1,2022.2.4,Win32,59.44949765,55009,,,,,,,,,,,,,,,,,,,,,,,,,,,,,,,,,,,,,,,,,,,0.083333333,0.026851852,1,0,0,spannend,spannend,0,6,6,37,1,spanzing,images/br_spanzing.png,images/cb_spanzing.png
,,,,,,55009,2023-07-28_14h54.55.542,vbt_B1_day1,2022.2.4,Win32,59.44949765,55009,,,,,,,,,,,,,,,,,,,,,,,,,,,,,,,,,,,,,,,,,,,0.134259259,-0.008333333,1,0,0,bebap,bebap,0,7,7,28,1,bebrip,images/br_bebrip.png,images/cb_bebrip.png
,,,,,,55009,2023-07-28_14h54.55.542,vbt_B1_day1,2022.2.4,Win32,59.44949765,55009,,,,,,,,,,,,,,,,,,,,,,,,,,,,,,,,,,,,,,,,,,,-0.184259259,0.106481481,1,0,0,hoog,hoog,0,8,8,41,1,hoog,images/br_hoog.png,images/cb_hoog.png
,,,,,,55009,2023-07-28_14h54.55.542,vbt_B1_day1,2022.2.4,Win32,59.44949765,55009,,,,,,,,,,,,,,,,,,,,,,,,,,,,,,,,,,,,,,,,,,,0.182407407,-0.02962963,1,0,0,z.ipl.,z.ipl.,0,9,9,52,1,zuiplap,images/br_zuiplap.png,images/cb_zuiplap.png
,,,,,,55009,2023-07-28_14h54.55.542,vbt_B1_day1,2022.2.4,Win32,59.44949765,55009,,,,,,,,,,,,,,,,,,,,,,,,,,,,,,,,,,,,,,,,,,,0.130555556,0.002777778,1,0,0,haar,haar,0,10,10,2,1,jaar,images/br_jaar.png,images/cb_jaar.png
,,,,,,55009,2023-07-28_14h54.55.542,vbt_B1_day1,2022.2.4,Win32,59.44949765,55009,,,,,,,,,,,,,,,,,,,,,,,,,,,,,,,,,,,,,,,,,,,0.101851852,0.006481481,1,0,0,sc....,sc....,0,11,11,19,1,schuilen,images/br_schuilen.png,images/cb_schuilen.png
,,,,,,55009,2023-07-28_14h54.55.542,vbt_B1_day1,2022.2.4,Win32,59.44949765,55009,,,,,,,,,,,,,,,,,,,,,,,,,,,,,,,,,,,,,,,,,,,0.140740741,0.035185185,1,0,0,vi.f.i..,vi.f.i..,0,12,12,54,1,vijftig,images/br_vijftig.png,images/cb_vijftig.png
,,,,,,55009,2023-07-28_14h54.55.542,vbt_B1_day1,2022.2.4,Win32,59.44949765,55009,,,,,,,,,,,,,,,,,,,,,,,,,,,,,,,,,,,,,,,,,,,0.165740741,0.053703704,1,0,0,booi,booi,0,13,13,23,1,booi,images/br_booi.png,images/cb_booi.png
,,,,,,55009,2023-07-28_14h54.55.542,vbt_B1_day1,2022.2.4,Win32,59.44949765,55009,,,,,,,,,,,,,,,,,,,,,,,,,,,,,,,,,,,,,,,,,,,0.100925926,0.006481481,1,0,0,voorwi..,voorwi..,0,14,14,58,1,voorkeur,images/br_voorkeur.png,images/cb_voorkeur.png
,,,,,,55009,2023-07-28_14h54.55.542,vbt_B1_day1,2022.2.4,Win32,59.44949765,55009,,,,,,,,,,,,,,,,,,,,,,,,,,,,,,,,,,,,,,,,,,,0.164814815,-0.019444444,1,0,0,lozen,lozen,0,15,15,46,1,lezen,images/br_lezen.png,images/cb_lezen.png
,,,,,,55009,2023-07-28_14h54.55.542,vbt_B1_day1,2022.2.4,Win32,59.44949765,55009,,,,,,,,,,,,,,,,,,,,,,,,,,,,,,,,,,,,,,,,,,,-0.005555556,0.002777778,1,0,0,uit....,uit....,0,16,16,18,1,uitdelen,images/br_uitdelen.png,images/cb_uitdelen.png
,,,,,,55009,2023-07-28_14h54.55.542,vbt_B1_day1,2022.2.4,Win32,59.44949765,55009,,,,,,,,,,,,,,,,,,,,,,,,,,,,,,,,,,,,,,,,,,,0.059259259,-0.035185185,1,0,0,uadin,uadin,0,17,17,5,1,maken,images/br_maken.png,images/cb_maken.png
,,,,,,55009,2023-07-28_14h54.55.542,vbt_B1_day1,2022.2.4,Win32,59.44949765,55009,,,,,,,,,,,,,,,,,,,,,,,,,,,,,,,,,,,,,,,,,,,0.012037037,-0.021296296,1,0,0,sta...,sta...,0,18,18,31,1,stamen,images/br_stamen.png,images/cb_stamen.png
,,,,,,55009,2023-07-28_14h54.55.542,vbt_B1_day1,2022.2.4,Win32,59.44949765,55009,,,,,,,,,,,,,,,,,,,,,,,,,,,,,,,,,,,,,,,,,,,0.15,0.005555556,1,0,0,schiele.,schiele.,0,19,19,38,1,schielen,images/br_schielen.png,images/cb_schielen.png
,,,,,,55009,2023-07-28_14h54.55.542,vbt_B1_day1,2022.2.4,Win32,59.44949765,55009,,,,,,,,,,,,,,,,,,,,,,,,,,,,,,,,,,,,,,,,,,,0.225925926,-0.012037037,1,0,0,vieren,vieren,0,20,20,15,1,hiervan,images/br_hiervan.png,images/cb_hiervan.png
,,,,,,55009,2023-07-28_14h54.55.542,vbt_B1_day1,2022.2.4,Win32,59.44949765,55009,,,,,,,,,,,,,,,,,,,,,,,,,,,,,,,,,,,,,,,,,,,0.206481481,-0.050925926,1,0,0,reehd.,reehd.,0,21,21,30,1,reedje,images/br_reedje.png,images/cb_reedje.png
,,,,,,55009,2023-07-28_14h54.55.542,vbt_B1_day1,2022.2.4,Win32,59.44949765,55009,,,,,,,,,,,,,,,,,,,,,,,,,,,,,,,,,,,,,,,,,,,0.143518519,-0.005555556,1,0,0,.enin.,.enin.,0,22,22,11,1,mening,images/br_mening.png,images/cb_mening.png
,,,,,,55009,2023-07-28_14h54.55.542,vbt_B1_day1,2022.2.4,Win32,59.44949765,55009,,,,,,,,,,,,,,,,,,,,,,,,,,,,,,,,,,,,,,,,,,,0.064814815,0.040740741,1,0,0,zaal,zaal,0,23,23,1,1,zaal,images/br_zaal.png,images/cb_zaal.png
,,,,,,55009,2023-07-28_14h54.55.542,vbt_B1_day1,2022.2.4,Win32,59.44949765,55009,,,,,,,,,,,,,,,,,,,,,,,,,,,,,,,,,,,,,,,,,,,0.02962963,-0.076851852,1,0,0,lava,lava,0,24,24,43,1,lava,images/br_lava.png,images/cb_lava.png
,,,,,,55009,2023-07-28_14h54.55.542,vbt_B1_day1,2022.2.4,Win32,59.44949765,55009,,,,,,,,,,,,,,,,,,,,,,,,,,,,,,,,,,,,,,,,,,,0.035185185,0.000925926,1,0,0,stui..,stui..,0,25,25,35,1,stuikem,images/br_stuikem.png,images/cb_stuikem.png
,,,,,,55009,2023-07-28_14h54.55.542,vbt_B1_day1,2022.2.4,Win32,59.44949765,55009,,,,,,,,,,,,,,,,,,,,,,,,,,,,,,,,,,,,,,,,,,,0.198148148,-0.00462963,1,0,0,...iew,...iew,0,26,26,10,1,muziek,images/br_muziek.png,images/cb_muziek.png
,,,,,,55009,2023-07-28_14h54.55.542,vbt_B1_day1,2022.2.4,Win32,59.44949765,55009,,,,,,,,,,,,,,,,,,,,,,,,,,,,,,,,,,,,,,,,,,,0.144444444,-0.006481481,1,0,0,.e.el,.e.el,0,27,27,45,1,hemel,images/br_hemel.png,images/cb_hemel.png
,,,,,,55009,2023-07-28_14h54.55.542,vbt_B1_day1,2022.2.4,Win32,59.44949765,55009,,,,,,,,,,,,,,,,,,,,,,,,,,,,,,,,,,,,,,,,,,,0.186111111,0.009259259,1,0,0,genen.,genen.,0,28,28,29,1,genond,images/br_genond.png,images/cb_genond.png
,,,,,,55009,2023-07-28_14h54.55.542,vbt_B1_day1,2022.2.4,Win32,59.44949765,55009,,,,,,,,,,,,,,,,,,,,,,,,,,,,,,,,,,,,,,,,,,,0.1,-0.023148148,1,0,0,waarv..,waarv..,0,29,29,14,1,waarvan,images/br_waarvan.png,images/cb_waarvan.png
,,,,,,55009,2023-07-28_14h54.55.542,vbt_B1_day1,2022.2.4,Win32,59.44949765,55009,,,,,,,,,,,,,,,,,,,,,,,,,,,,,,,,,,,,,,,,,,,-0.040740741,0.022222222,1,0,0,wihne,wihne,0,30,30,44,1,wijze,images/br_wijze.png,images/cb_wijze.png
,,,,,,55009,2023-07-28_14h54.55.542,vbt_B1_day1,2022.2.4,Win32,59.44949765,55009,,,,,,,,,,,,,,,,,,,,,,,,,,,,,,,,,,,,,,,,,,,0.139814815,0.005555556,1,0,0,valop,valop,0,31,31,26,1,valop,images/br_valop.png,images/cb_valop.png
,,,,,,55009,2023-07-28_14h54.55.542,vbt_B1_day1,2022.2.4,Win32,59.44949765,55009,,,,,,,,,,,,,,,,,,,,,,,,,,,,,,,,,,,,,,,,,,,0.135185185,-0.002777778,1,0,0,crihw,crihw,0,32,32,25,1,brijk,images/br_brijk.png,images/cb_brijk.png
,,,,,,55009,2023-07-28_14h54.55.542,vbt_B1_day1,2022.2.4,Win32,59.44949765,55009,,,,,,,,,,,,,,,,,,,,,,,,,,,,,,,,,,,,,,,,,,,0.199074074,-0.014814815,1,0,0,lie.de,lie.de,0,33,33,51,1,liefde,images/br_liefde.png,images/cb_liefde.png
,,,,,,55009,2023-07-28_14h54.55.542,vbt_B1_day1,2022.2.4,Win32,59.44949765,55009,,,,,,,,,,,,,,,,,,,,,,,,,,,,,,,,,,,,,,,,,,,0.242592593,-0.014814815,1,0,0,.le....,.le....,0,34,34,12,1,klimmen,images/br_klimmen.png,images/cb_klimmen.png
,,,,,,55009,2023-07-28_14h54.55.542,vbt_B1_day1,2022.2.4,Win32,59.44949765,55009,,,,,,,,,,,,,,,,,,,,,,,,,,,,,,,,,,,,,,,,,,,0.058333333,0.037037037,1,0,0,tewi....,tewi....,0,35,35,13,1,twijfel,images/br_twijfel.png,images/cb_twijfel.png
,,,,,,55009,2023-07-28_14h54.55.542,vbt_B1_day1,2022.2.4,Win32,59.44949765,55009,,,,,,,,,,,,,,,,,,,,,,,,,,,,,,,,,,,,,,,,,,,0.00462963,0.07037037,1,0,0,opplaan,opplaan,0,36,36,32,1,opplaan,images/br_opplaan.png,images/cb_opplaan.png
,,,,,,55009,2023-07-28_14h54.55.542,vbt_B1_day1,2022.2.4,Win32,59.44949765,55009,,,,,,,,,,,,,,,,,,,,,,,,,,,,,,,,,,,,,,,,,,,-0.109259259,0.168518519,1,0,0,faar....,faar....,0,37,37,16,1,daarheen,images/br_daarheen.png,images/cb_daarheen.png
,,,,,,55009,2023-07-28_14h54.55.542,vbt_B1_day1,2022.2.4,Win32,59.44949765,55009,,,,,,,,,,,,,,,,,,,,,,,,,,,,,,,,,,,,,,,,,,,0.183333333,-0.009259259,1,0,0,uonf,uonf,0,38,38,3,1,mand,images/br_mand.png,images/cb_mand.png
,,,,,,55009,2023-07-28_14h54.55.542,vbt_B1_day1,2022.2.4,Win32,59.44949765,55009,,,,,,,,,,,,,,,,,,,,,,,,,,,,,,,,,,,,,,,,,,,0.155555556,-0.030555556,1,0,0,voorre..,voorre..,0,39,39,39,1,voorreur,images/br_voorreur.png,images/cb_voorreur.png
,,,,,,55009,2023-07-28_14h54.55.542,vbt_B1_day1,2022.2.4,Win32,59.44949765,55009,,,,,,,,,,,,,,,,,,,,,,,,,,,,,,,,,,,,,,,,,,,-0.256481481,0.112037037,1,0,0,doed,doed,0,40,40,21,1,dred,images/br_dred.png,images/cb_dred.png
,,,,,,55009,2023-07-28_14h54.55.542,vbt_B1_day1,2022.2.4,Win32,59.44949765,55009,,,,,,,,,,,,,,,,,,,,,,,,,,,,,,,,,,,,,,,,,,,0.07962963,-0.023148148,1,0,0,ov.aat..,ov.aat..,0,41,41,59,1,opvatten,images/br_opvatten.png,images/cb_opvatten.png
,,,,,,55009,2023-07-28_14h54.55.542,vbt_B1_day1,2022.2.4,Win32,59.44949765,55009,,,,,,,,,,,,,,,,,,,,,,,,,,,,,,,,,,,,,,,,,,,0.182407407,-0.011111111,1,0,0,lochten,lochten,0,42,42,34,1,lochten,images/br_lochten.png,images/cb_lochten.png
,,,,,,55009,2023-07-28_14h54.55.542,vbt_B1_day1,2022.2.4,Win32,59.44949765,55009,,,,,,,,,,,,,,,,,,,,,,,,,,,,,,,,,,,,,,,,,,,0.125,-0.025,1,0,0,lsaw,lsaw,0,43,43,0,1,slak,images/br_slak.png,images/cb_slak.png
,,,,,,55009,2023-07-28_14h54.55.542,vbt_B1_day1,2022.2.4,Win32,59.44949765,55009,,,,,,,,,,,,,,,,,,,,,,,,,,,,,,,,,,,,,,,,,,,-0.064814815,-0.019444444,1,0,0,tewene.,tewene.,0,44,44,55,1,tekenen,images/br_tekenen.png,images/cb_tekenen.png
,,,,,,55009,2023-07-28_14h54.55.542,vbt_B1_day1,2022.2.4,Win32,59.44949765,55009,,,,,,,,,,,,,,,,,,,,,,,,,,,,,,,,,,,,,,,,,,,-0.097222222,0.025,1,0,0,rener,rener,0,45,45,24,1,rezer,images/br_rezer.png,images/cb_rezer.png
,,,,,,55009,2023-07-28_14h54.55.542,vbt_B1_day1,2022.2.4,Win32,59.44949765,55009,,,,,,,,,,,,,,,,,,,,,,,,,,,,,,,,,,,,,,,,,,,-0.064814815,0.003703704,1,0,0,prorn,prorn,0,46,46,27,1,prort,images/br_prort.png,images/cb_prort.png
,,,,,,55009,2023-07-28_14h54.55.542,vbt_B1_day1,2022.2.4,Win32,59.44949765,55009,,,,,,,,,,,,,,,,,,,,,,,,,,,,,,,,,,,,,,,,,,,-0.098148148,-0.05462963,1,0,0,.eene...,.eene...,0,47,47,57,1,meenemen,images/br_meenemen.png,images/cb_meenemen.png
,,,,,,55009,2023-07-28_14h54.55.542,vbt_B1_day1,2022.2.4,Win32,59.44949765,55009,,,,,,,,,,,,,,,,,,,,,,,,,,,,,,,,,,,,,,,,,,,-0.109259259,0.005555556,1,0,0,attenei,attenei,0,48,48,17,1,attentie,images/br_attentie.png,images/cb_attentie.png
,,,,,,55009,2023-07-28_14h54.55.542,vbt_B1_day1,2022.2.4,Win32,59.44949765,55009,,,,,,,,,,,,,,,,,,,,,,,,,,,,,,,,,,,,,,,,,,,-0.085185185,-0.018518519,1,0,0,vinier,vinier,0,49,49,49,1,vizier,images/br_vizier.png,images/cb_vizier.png
,,,,,,55009,2023-07-28_14h54.55.542,vbt_B1_day1,2022.2.4,Win32,59.44949765,55009,,,,,,,,,,,,,,,,,,,,,,,,,,,,,,,,,,,,,,,,,,,0.17037037,-0.033333333,1,0,0,vetva..,vetva..,0,50,50,36,1,vervaden,images/br_vervaden.png,images/cb_vervaden.png
,,,,,,55009,2023-07-28_14h54.55.542,vbt_B1_day1,2022.2.4,Win32,59.44949765,55009,,,,,,,,,,,,,,,,,,,,,,,,,,,,,,,,,,,,,,,,,,,-0.150925926,0.074074074,1,0,0,fl....,fl....,0,51,51,33,1,flullen,images/br_flullen.png,images/cb_flullen.png
,,,,,,55009,2023-07-28_14h54.55.542,vbt_B1_day1,2022.2.4,Win32,59.44949765,55009,,,,,,,,,,,,,,,,,,,,,,,,,,,,,,,,,,,,,,,,,,,-0.100925926,0.112037037,1,0,0,fectie,fectie,0,52,52,48,1,fictie,images/br_fictie.png,images/cb_fictie.png
,,,,,,55009,2023-07-28_14h54.55.542,vbt_B1_day1,2022.2.4,Win32,59.44949765,55009,,,,,,,,,,,,,,,,,,,,,,,,,,,,,,,,,,,,,,,,,,,-0.105555556,0.10462963,1,0,0,stuw,stuw,0,53,53,42,1,stuk,images/br_stuk.png,images/cb_stuk.png
,,,,,,55009,2023-07-28_14h54.55.542,vbt_B1_day1,2022.2.4,Win32,59.44949765,55009,,,,,,,,,,,,,,,,,,,,,,,,,,,,,,,,,,,,,,,,,,,0.066666667,0.034259259,1,0,0,opslaan,opslaan,0,54,54,53,1,opslaan,images/br_opslaan.png,images/cb_opslaan.png
,,,,,,55009,2023-07-28_14h54.55.542,vbt_B1_day1,2022.2.4,Win32,59.44949765,55009,,,,,,,,,,,,,,,,,,,,,,,,,,,,,,,,,,,,,,,,,,,0.062962963,0.032407407,1,0,0,wnoe,wnoe,0,55,55,22,1,knoe,images/br_knoe.png,images/cb_knoe.png
,,,,,,55009,2023-07-28_14h54.55.542,vbt_B1_day1,2022.2.4,Win32,59.44949765,55009,,,,,,,,,,,,,,,,,,,,,,,,,,,,,,,,,,,,,,,,,,,0.056481481,0.138888889,1,0,0,loohs,loohs,0,56,56,47,1,loods,images/br_loods.png,images/cb_loods.png
,,,,,,55009,2023-07-28_14h54.55.542,vbt_B1_day1,2022.2.4,Win32,59.44949765,55009,,,,,,,,,,,,,,,,,,,,,,,,,,,,,,,,,,,,,,,,,,,0.051851852,0.133333333,1,0,0,dief,dief,0,57,57,40,1,dief,images/br_dief.png,images/cb_dief.png
,,,,,,55009,2023-07-28_14h54.55.542,vbt_B1_day1,2022.2.4,Win32,59.44949765,55009,,,,,,,,,,,,,,,,,,,,,,,,,,,,,,,,,,,,,,,,,,,0.072222222,0.097222222,1,0,0,bleek,bleek,0,58,58,6,1,bleek,images/br_bleek.png,images/cb_bleek.png
,,,,,,55009,2023-07-28_14h54.55.542,vbt_B1_day1,2022.2.4,Win32,59.44949765,55009,,,,,,,,,,,,,,,,,,,,,,,,,,,,,,,,,,,,,,,,,,,0.072222222,0.097222222,1,0,0,schep,schep,0,59,59,4,1,schep,images/br_schep.png,images/cb_schep.png
,,,,,,55009,2023-07-28_14h54.55.542,vbt_B1_day1,2022.2.4,Win32,59.44949765,55009,,,,,,,,,,,,,,,,,,,,,,,,,,,,,,,,,,,,,,,,,,,,,,,,,,,,,,,,,
