welcome_mouse.x,welcome_mouse.y,welcome_mouse.leftButton,welcome_mouse.midButton,welcome_mouse.rightButton,welcome_mouse.time,"ID",date,expName,psychopyVersion,OS,frameRate,mouse_2.x,mouse_2.y,mouse_2.leftButton,mouse_2.midButton,mouse_2.rightButton,mouse_2.time,mouse_3.x,mouse_3.y,mouse_3.leftButton,mouse_3.midButton,mouse_3.rightButton,mouse_3.time,train_mouse.x,train_mouse.y,train_mouse.leftButton,train_mouse.midButton,train_mouse.rightButton,train_mouse.time,braille_mouse.x,braille_mouse.y,braille_mouse.leftButton,braille_mouse.midButton,braille_mouse.rightButton,braille_mouse.time,trials.thisRepN,trials.thisTrialN,trials.thisN,trials.thisIndex,trials.ran,nlLet,brLet,cbLet,mouse.x,mouse.y,mouse.leftButton,mouse.midButton,mouse.rightButton,testInstr_mouse.x,testInstr_mouse.y,testInstr_mouse.leftButton,testInstr_mouse.midButton,testInstr_mouse.rightButton,test_mouse.x,test_mouse.y,test_mouse.leftButton,test_mouse.midButton,test_mouse.rightButton,test_response.text,testResp,test_loop.thisRepN,test_loop.thisTrialN,test_loop.thisN,test_loop.thisIndex,test_loop.ran,nlWrd,brWrd,cbWrd
-0.037037037,-0.196296339,1,0,0,41.2281,00074,2023-10-23_17h27.41.439,vbt_B1_day1,2022.2.4,Win32,60.79027356,,,,,,,,,,,,,,,,,,,,,,,,,,,,,,,,,,,,,,,,,,,,,,,,,,,,,,,,,
,,,,,,00074,2023-10-23_17h27.41.439,vbt_B1_day1,2022.2.4,Win32,60.79027356,0.002777806,-0.390740783,1,0,0,10.3377,,,,,,,,,,,,,,,,,,,,,,,,,,,,,,,,,,,,,,,,,,,,,,,,,,,
,,,,,,00074,2023-10-23_17h27.41.439,vbt_B1_day1,2022.2.4,Win32,60.79027356,,,,,,,-0.020370342,-0.325925968,1,0,0,19.092,,,,,,,,,,,,,,,,,,,,,,,,,,,,,,,,,,,,,,,,,,,,,
,,,,,,00074,2023-10-23_17h27.41.439,vbt_B1_day1,2022.2.4,Win32,60.79027356,,,,,,,,,,,,,0.207407422,-0.212962963,1,0,0,83.6029,,,,,,,,,,,,,,,,,,,,,,,,,,,,,,,,,,,,,,,
,,,,,,00074,2023-10-23_17h27.41.439,vbt_B1_day1,2022.2.4,Win32,60.79027356,,,,,,,,,,,,,,,,,,,0.033333319,-0.159259302,1,0,0,7.2519,0,0,0,6,1,g,images/br_g.png,images/cb_g.png,,,,,,,,,,,,,,,,,,,,,,,,,
,,,,,,00074,2023-10-23_17h27.41.439,vbt_B1_day1,2022.2.4,Win32,60.79027356,,,,,,,,,,,,,,,,,,,0.033333319,-0.159259302,1,0,0,5.1178,0,1,1,12,1,m,images/br_m.png,images/cb_m.png,,,,,,,,,,,,,,,,,,,,,,,,,
,,,,,,00074,2023-10-23_17h27.41.439,vbt_B1_day1,2022.2.4,Win32,60.79027356,,,,,,,,,,,,,,,,,,,0.033333319,-0.159259302,1,0,0,4.1917,0,2,2,0,1,a,images/br_a.png,images/cb_a.png,,,,,,,,,,,,,,,,,,,,,,,,,
,,,,,,00074,2023-10-23_17h27.41.439,vbt_B1_day1,2022.2.4,Win32,60.79027356,,,,,,,,,,,,,,,,,,,0.033333319,-0.159259302,1,0,0,3.951,0,3,3,9,1,j,images/br_j.png,images/cb_j.png,,,,,,,,,,,,,,,,,,,,,,,,,
,,,,,,00074,2023-10-23_17h27.41.439,vbt_B1_day1,2022.2.4,Win32,60.79027356,,,,,,,,,,,,,,,,,,,0.033333319,-0.159259302,1,0,0,13.4022,0,4,4,4,1,e,images/br_e.png,images/cb_e.png,,,,,,,,,,,,,,,,,,,,,,,,,
,,,,,,00074,2023-10-23_17h27.41.439,vbt_B1_day1,2022.2.4,Win32,60.79027356,,,,,,,,,,,,,,,,,,,0.033333319,-0.159259302,1,0,0,3.9314,0,5,5,15,1,p,images/br_p.png,images/cb_p.png,,,,,,,,,,,,,,,,,,,,,,,,,
,,,,,,00074,2023-10-23_17h27.41.439,vbt_B1_day1,2022.2.4,Win32,60.79027356,,,,,,,,,,,,,,,,,,,0.033333319,-0.159259302,1,0,0,3.6006,0,6,6,3,1,d,images/br_d.png,images/cb_d.png,,,,,,,,,,,,,,,,,,,,,,,,,
,,,,,,00074,2023-10-23_17h27.41.439,vbt_B1_day1,2022.2.4,Win32,60.79027356,,,,,,,,,,,,,,,,,,,0.036111125,-0.158333319,1,0,0,4.4698,0,7,7,24,1,y,images/br_y.png,images/cb_y.png,,,,,,,,,,,,,,,,,,,,,,,,,
,,,,,,00074,2023-10-23_17h27.41.439,vbt_B1_day1,2022.2.4,Win32,60.79027356,,,,,,,,,,,,,,,,,,,0.036111125,-0.158333319,1,0,0,4.7169,0,8,8,21,1,v,images/br_v.png,images/cb_v.png,,,,,,,,,,,,,,,,,,,,,,,,,
,,,,,,00074,2023-10-23_17h27.41.439,vbt_B1_day1,2022.2.4,Win32,60.79027356,,,,,,,,,,,,,,,,,,,0.036111125,-0.158333319,1,0,0,3.4835,0,9,9,14,1,o,images/br_o.png,images/cb_o.png,,,,,,,,,,,,,,,,,,,,,,,,,
,,,,,,00074,2023-10-23_17h27.41.439,vbt_B1_day1,2022.2.4,Win32,60.79027356,,,,,,,,,,,,,,,,,,,0.036111125,-0.158333319,1,0,0,4.067,0,10,10,17,1,r,images/br_r.png,images/cb_r.png,,,,,,,,,,,,,,,,,,,,,,,,,
,,,,,,00074,2023-10-23_17h27.41.439,vbt_B1_day1,2022.2.4,Win32,60.79027356,,,,,,,,,,,,,,,,,,,0.036111125,-0.158333319,1,0,0,1.8336,0,11,11,1,1,b,images/br_b.png,images/cb_b.png,,,,,,,,,,,,,,,,,,,,,,,,,
,,,,,,00074,2023-10-23_17h27.41.439,vbt_B1_day1,2022.2.4,Win32,60.79027356,,,,,,,,,,,,,,,,,,,0.036111125,-0.158333319,1,0,0,7.2002,0,12,12,25,1,z,images/br_z.png,images/cb_z.png,,,,,,,,,,,,,,,,,,,,,,,,,
,,,,,,00074,2023-10-23_17h27.41.439,vbt_B1_day1,2022.2.4,Win32,60.79027356,,,,,,,,,,,,,,,,,,,0.036111125,-0.158333319,1,0,0,6.8668,0,13,13,23,1,x,images/br_x.png,images/cb_x.png,,,,,,,,,,,,,,,,,,,,,,,,,
,,,,,,00074,2023-10-23_17h27.41.439,vbt_B1_day1,2022.2.4,Win32,60.79027356,,,,,,,,,,,,,,,,,,,0.036111125,-0.158333319,1,0,0,3.2836,0,14,14,11,1,l,images/br_l.png,images/cb_l.png,,,,,,,,,,,,,,,,,,,,,,,,,
,,,,,,00074,2023-10-23_17h27.41.439,vbt_B1_day1,2022.2.4,Win32,60.79027356,,,,,,,,,,,,,,,,,,,0.036111125,-0.158333319,1,0,0,7.1503,0,15,15,7,1,h,images/br_h.png,images/cb_h.png,,,,,,,,,,,,,,,,,,,,,,,,,
,,,,,,00074,2023-10-23_17h27.41.439,vbt_B1_day1,2022.2.4,Win32,60.79027356,,,,,,,,,,,,,,,,,,,0.036111125,-0.158333319,1,0,0,3.8999,0,16,16,22,1,w,images/br_w.png,images/cb_w.png,,,,,,,,,,,,,,,,,,,,,,,,,
,,,,,,00074,2023-10-23_17h27.41.439,vbt_B1_day1,2022.2.4,Win32,60.79027356,,,,,,,,,,,,,,,,,,,0.036111125,-0.158333319,1,0,0,0.1835,0,17,17,13,1,n,images/br_n.png,images/cb_n.png,,,,,,,,,,,,,,,,,,,,,,,,,
,,,,,,00074,2023-10-23_17h27.41.439,vbt_B1_day1,2022.2.4,Win32,60.79027356,,,,,,,,,,,,,,,,,,,0.036111125,-0.158333319,1,0,0,3.9374,0,18,18,10,1,k,images/br_k.png,images/cb_k.png,,,,,,,,,,,,,,,,,,,,,,,,,
,,,,,,00074,2023-10-23_17h27.41.439,vbt_B1_day1,2022.2.4,Win32,60.79027356,,,,,,,,,,,,,,,,,,,-0.035185143,-0.142592607,1,0,0,6.9167,0,19,19,20,1,u,images/br_u.png,images/cb_u.png,,,,,,,,,,,,,,,,,,,,,,,,,
,,,,,,00074,2023-10-23_17h27.41.439,vbt_B1_day1,2022.2.4,Win32,60.79027356,,,,,,,,,,,,,,,,,,,0.224074116,-0.057407414,1,0,0,4.4502,0,20,20,2,1,c,images/br_c.png,images/cb_c.png,,,,,,,,,,,,,,,,,,,,,,,,,
,,,,,,00074,2023-10-23_17h27.41.439,vbt_B1_day1,2022.2.4,Win32,60.79027356,,,,,,,,,,,,,,,,,,,-0.087962963,-0.256481524,1,0,0,3.6003,0,21,21,19,1,t,images/br_t.png,images/cb_t.png,,,,,,,,,,,,,,,,,,,,,,,,,
,,,,,,00074,2023-10-23_17h27.41.439,vbt_B1_day1,2022.2.4,Win32,60.79027356,,,,,,,,,,,,,,,,,,,-0.087962963,-0.256481524,1,0,0,6.5169,0,22,22,16,1,q,images/br_q.png,images/cb_q.png,,,,,,,,,,,,,,,,,,,,,,,,,
,,,,,,00074,2023-10-23_17h27.41.439,vbt_B1_day1,2022.2.4,Win32,60.79027356,,,,,,,,,,,,,,,,,,,0.126851894,-0.102777764,1,0,0,3.3335,0,23,23,18,1,s,images/br_s.png,images/cb_s.png,,,,,,,,,,,,,,,,,,,,,,,,,
,,,,,,00074,2023-10-23_17h27.41.439,vbt_B1_day1,2022.2.4,Win32,60.79027356,,,,,,,,,,,,,,,,,,,0.126851894,-0.102777764,1,0,0,4.567,0,24,24,8,1,i,images/br_i.png,images/cb_i.png,,,,,,,,,,,,,,,,,,,,,,,,,
,,,,,,00074,2023-10-23_17h27.41.439,vbt_B1_day1,2022.2.4,Win32,60.79027356,,,,,,,,,,,,,,,,,,,0.126851894,-0.102777764,1,0,0,4.9833,0,25,25,5,1,f,images/br_f.png,images/cb_f.png,,,,,,,,,,,,,,,,,,,,,,,,,
,,,,,,00074,2023-10-23_17h27.41.439,vbt_B1_day1,2022.2.4,Win32,60.79027356,,,,,,,,,,,,,,,,,,,0.126851894,-0.102777764,1,0,0,11.6332,1,0,26,12,1,m,images/br_m.png,images/cb_m.png,,,,,,,,,,,,,,,,,,,,,,,,,
,,,,,,00074,2023-10-23_17h27.41.439,vbt_B1_day1,2022.2.4,Win32,60.79027356,,,,,,,,,,,,,,,,,,,0.126851894,-0.102777764,1,0,0,6.5001,1,1,27,9,1,j,images/br_j.png,images/cb_j.png,,,,,,,,,,,,,,,,,,,,,,,,,
,,,,,,00074,2023-10-23_17h27.41.439,vbt_B1_day1,2022.2.4,Win32,60.79027356,,,,,,,,,,,,,,,,,,,0.016666695,-0.136111153,1,0,0,5.3001,1,2,28,13,1,n,images/br_n.png,images/cb_n.png,,,,,,,,,,,,,,,,,,,,,,,,,
,,,,,,00074,2023-10-23_17h27.41.439,vbt_B1_day1,2022.2.4,Win32,60.79027356,,,,,,,,,,,,,,,,,,,0.016666695,-0.136111153,1,0,0,0.5836,1,3,29,6,1,g,images/br_g.png,images/cb_g.png,,,,,,,,,,,,,,,,,,,,,,,,,
,,,,,,00074,2023-10-23_17h27.41.439,vbt_B1_day1,2022.2.4,Win32,60.79027356,,,,,,,,,,,,,,,,,,,0.016666695,-0.136111153,1,0,0,6.5003,1,4,30,15,1,p,images/br_p.png,images/cb_p.png,,,,,,,,,,,,,,,,,,,,,,,,,
,,,,,,00074,2023-10-23_17h27.41.439,vbt_B1_day1,2022.2.4,Win32,60.79027356,,,,,,,,,,,,,,,,,,,0.016666695,-0.136111153,1,0,0,9.8338,1,5,31,1,1,b,images/br_b.png,images/cb_b.png,,,,,,,,,,,,,,,,,,,,,,,,,
,,,,,,00074,2023-10-23_17h27.41.439,vbt_B1_day1,2022.2.4,Win32,60.79027356,,,,,,,,,,,,,,,,,,,0.084259245,-0.104629658,1,0,0,6,1,6,32,17,1,r,images/br_r.png,images/cb_r.png,,,,,,,,,,,,,,,,,,,,,,,,,
,,,,,,00074,2023-10-23_17h27.41.439,vbt_B1_day1,2022.2.4,Win32,60.79027356,,,,,,,,,,,,,,,,,,,0.084259245,-0.104629658,1,0,0,3.6836,1,7,33,7,1,h,images/br_h.png,images/cb_h.png,,,,,,,,,,,,,,,,,,,,,,,,,
,,,,,,00074,2023-10-23_17h27.41.439,vbt_B1_day1,2022.2.4,Win32,60.79027356,,,,,,,,,,,,,,,,,,,0.084259245,-0.104629658,1,0,0,0.3334,1,8,34,25,1,z,images/br_z.png,images/cb_z.png,,,,,,,,,,,,,,,,,,,,,,,,,
,,,,,,00074,2023-10-23_17h27.41.439,vbt_B1_day1,2022.2.4,Win32,60.79027356,,,,,,,,,,,,,,,,,,,0.084259245,-0.104629658,1,0,0,4.85,1,9,35,22,1,w,images/br_w.png,images/cb_w.png,,,,,,,,,,,,,,,,,,,,,,,,,
,,,,,,00074,2023-10-23_17h27.41.439,vbt_B1_day1,2022.2.4,Win32,60.79027356,,,,,,,,,,,,,,,,,,,0.084259245,-0.104629658,1,0,0,6.1335,1,10,36,23,1,x,images/br_x.png,images/cb_x.png,,,,,,,,,,,,,,,,,,,,,,,,,
,,,,,,00074,2023-10-23_17h27.41.439,vbt_B1_day1,2022.2.4,Win32,60.79027356,,,,,,,,,,,,,,,,,,,0.045370384,-0.134259259,1,0,0,2.0002,1,11,37,11,1,l,images/br_l.png,images/cb_l.png,,,,,,,,,,,,,,,,,,,,,,,,,
,,,,,,00074,2023-10-23_17h27.41.439,vbt_B1_day1,2022.2.4,Win32,60.79027356,,,,,,,,,,,,,,,,,,,0.045370384,-0.134259259,1,0,0,5.3336,1,12,38,20,1,u,images/br_u.png,images/cb_u.png,,,,,,,,,,,,,,,,,,,,,,,,,
,,,,,,00074,2023-10-23_17h27.41.439,vbt_B1_day1,2022.2.4,Win32,60.79027356,,,,,,,,,,,,,,,,,,,0.045370384,-0.134259259,1,0,0,10.6334,1,13,39,16,1,q,images/br_q.png,images/cb_q.png,,,,,,,,,,,,,,,,,,,,,,,,,
,,,,,,00074,2023-10-23_17h27.41.439,vbt_B1_day1,2022.2.4,Win32,60.79027356,,,,,,,,,,,,,,,,,,,0.045370384,-0.134259259,1,0,0,4.5669,1,14,40,24,1,y,images/br_y.png,images/cb_y.png,,,,,,,,,,,,,,,,,,,,,,,,,
,,,,,,00074,2023-10-23_17h27.41.439,vbt_B1_day1,2022.2.4,Win32,60.79027356,,,,,,,,,,,,,,,,,,,0.045370384,-0.135185171,1,0,0,2.4668,1,15,41,2,1,c,images/br_c.png,images/cb_c.png,,,,,,,,,,,,,,,,,,,,,,,,,
,,,,,,00074,2023-10-23_17h27.41.439,vbt_B1_day1,2022.2.4,Win32,60.79027356,,,,,,,,,,,,,,,,,,,0.045370384,-0.135185171,1,0,0,6.1001,1,16,42,3,1,d,images/br_d.png,images/cb_d.png,,,,,,,,,,,,,,,,,,,,,,,,,
,,,,,,00074,2023-10-23_17h27.41.439,vbt_B1_day1,2022.2.4,Win32,60.79027356,,,,,,,,,,,,,,,,,,,0.045370384,-0.135185171,1,0,0,14.2169,1,17,43,10,1,k,images/br_k.png,images/cb_k.png,,,,,,,,,,,,,,,,,,,,,,,,,
,,,,,,00074,2023-10-23_17h27.41.439,vbt_B1_day1,2022.2.4,Win32,60.79027356,,,,,,,,,,,,,,,,,,,0.045370384,-0.135185171,1,0,0,6.1003,1,18,44,8,1,i,images/br_i.png,images/cb_i.png,,,,,,,,,,,,,,,,,,,,,,,,,
,,,,,,00074,2023-10-23_17h27.41.439,vbt_B1_day1,2022.2.4,Win32,60.79027356,,,,,,,,,,,,,,,,,,,0.045370384,-0.135185171,1,0,0,8.9166,1,19,45,0,1,a,images/br_a.png,images/cb_a.png,,,,,,,,,,,,,,,,,,,,,,,,,
,,,,,,00074,2023-10-23_17h27.41.439,vbt_B1_day1,2022.2.4,Win32,60.79027356,,,,,,,,,,,,,,,,,,,0.045370384,-0.135185171,1,0,0,4.5002,1,20,46,5,1,f,images/br_f.png,images/cb_f.png,,,,,,,,,,,,,,,,,,,,,,,,,
,,,,,,00074,2023-10-23_17h27.41.439,vbt_B1_day1,2022.2.4,Win32,60.79027356,,,,,,,,,,,,,,,,,,,0.045370384,-0.135185171,1,0,0,2.9001,1,21,47,18,1,s,images/br_s.png,images/cb_s.png,,,,,,,,,,,,,,,,,,,,,,,,,
,,,,,,00074,2023-10-23_17h27.41.439,vbt_B1_day1,2022.2.4,Win32,60.79027356,,,,,,,,,,,,,,,,,,,0.041666667,-0.131481524,1,0,0,19.8001,1,22,48,19,1,t,images/br_t.png,images/cb_t.png,,,,,,,,,,,,,,,,,,,,,,,,,
,,,,,,00074,2023-10-23_17h27.41.439,vbt_B1_day1,2022.2.4,Win32,60.79027356,,,,,,,,,,,,,,,,,,,0.030555584,-0.119444459,1,0,0,3.617,1,23,49,4,1,e,images/br_e.png,images/cb_e.png,,,,,,,,,,,,,,,,,,,,,,,,,
,,,,,,00074,2023-10-23_17h27.41.439,vbt_B1_day1,2022.2.4,Win32,60.79027356,,,,,,,,,,,,,,,,,,,0.030555584,-0.119444459,1,0,0,5.4335,1,24,50,14,1,o,images/br_o.png,images/cb_o.png,,,,,,,,,,,,,,,,,,,,,,,,,
,,,,,,00074,2023-10-23_17h27.41.439,vbt_B1_day1,2022.2.4,Win32,60.79027356,,,,,,,,,,,,,,,,,,,0.030555584,-0.119444459,1,0,0,8.8835,1,25,51,21,1,v,images/br_v.png,images/cb_v.png,,,,,,,,,,,,,,,,,,,,,,,,,
,,,,,,00074,2023-10-23_17h27.41.439,vbt_B1_day1,2022.2.4,Win32,60.79027356,,,,,,,,,,,,,,,,,,,0.030555584,-0.119444459,1,0,0,4.9345,2,0,52,0,1,a,images/br_a.png,images/cb_a.png,,,,,,,,,,,,,,,,,,,,,,,,,
,,,,,,00074,2023-10-23_17h27.41.439,vbt_B1_day1,2022.2.4,Win32,60.79027356,,,,,,,,,,,,,,,,,,,0.030555584,-0.119444459,1,0,0,7.2046,2,1,53,3,1,d,images/br_d.png,images/cb_d.png,,,,,,,,,,,,,,,,,,,,,,,,,
,,,,,,00074,2023-10-23_17h27.41.439,vbt_B1_day1,2022.2.4,Win32,60.79027356,,,,,,,,,,,,,,,,,,,-0.021296254,-0.130555541,1,0,0,11.0504,2,2,54,5,1,f,images/br_f.png,images/cb_f.png,,,,,,,,,,,,,,,,,,,,,,,,,
,,,,,,00074,2023-10-23_17h27.41.439,vbt_B1_day1,2022.2.4,Win32,60.79027356,,,,,,,,,,,,,,,,,,,0.025000042,-0.128703718,1,0,0,3.9829,2,3,55,15,1,p,images/br_p.png,images/cb_p.png,,,,,,,,,,,,,,,,,,,,,,,,,
,,,,,,00074,2023-10-23_17h27.41.439,vbt_B1_day1,2022.2.4,Win32,60.79027356,,,,,,,,,,,,,,,,,,,0.025000042,-0.128703718,1,0,0,1.8999,2,4,56,7,1,h,images/br_h.png,images/cb_h.png,,,,,,,,,,,,,,,,,,,,,,,,,
,,,,,,00074,2023-10-23_17h27.41.439,vbt_B1_day1,2022.2.4,Win32,60.79027356,,,,,,,,,,,,,,,,,,,0.025000042,-0.128703718,1,0,0,0.9834,2,5,57,17,1,r,images/br_r.png,images/cb_r.png,,,,,,,,,,,,,,,,,,,,,,,,,
,,,,,,00074,2023-10-23_17h27.41.439,vbt_B1_day1,2022.2.4,Win32,60.79027356,,,,,,,,,,,,,,,,,,,-0.014814801,-0.142592607,1,0,0,6.2001,2,6,58,18,1,s,images/br_s.png,images/cb_s.png,,,,,,,,,,,,,,,,,,,,,,,,,
,,,,,,00074,2023-10-23_17h27.41.439,vbt_B1_day1,2022.2.4,Win32,60.79027356,,,,,,,,,,,,,,,,,,,-0.012962977,-0.142592607,1,0,0,5.1185,2,7,59,24,1,y,images/br_y.png,images/cb_y.png,,,,,,,,,,,,,,,,,,,,,,,,,
,,,,,,00074,2023-10-23_17h27.41.439,vbt_B1_day1,2022.2.4,Win32,60.79027356,,,,,,,,,,,,,,,,,,,-0.012962977,-0.142592607,1,0,0,1.7183,2,8,60,25,1,z,images/br_z.png,images/cb_z.png,,,,,,,,,,,,,,,,,,,,,,,,,
,,,,,,00074,2023-10-23_17h27.41.439,vbt_B1_day1,2022.2.4,Win32,60.79027356,,,,,,,,,,,,,,,,,,,-0.012962977,-0.142592607,1,0,0,0.2849,2,9,61,10,1,k,images/br_k.png,images/cb_k.png,,,,,,,,,,,,,,,,,,,,,,,,,
,,,,,,00074,2023-10-23_17h27.41.439,vbt_B1_day1,2022.2.4,Win32,60.79027356,,,,,,,,,,,,,,,,,,,-0.012962977,-0.142592607,1,0,0,1.5875,2,10,62,6,1,g,images/br_g.png,images/cb_g.png,,,,,,,,,,,,,,,,,,,,,,,,,
,,,,,,00074,2023-10-23_17h27.41.439,vbt_B1_day1,2022.2.4,Win32,60.79027356,,,,,,,,,,,,,,,,,,,-0.012962977,-0.142592607,1,0,0,2.7185,2,11,63,4,1,e,images/br_e.png,images/cb_e.png,,,,,,,,,,,,,,,,,,,,,,,,,
,,,,,,00074,2023-10-23_17h27.41.439,vbt_B1_day1,2022.2.4,Win32,60.79027356,,,,,,,,,,,,,,,,,,,0.011111153,-0.133333347,1,0,0,0.2342,2,12,64,11,1,l,images/br_l.png,images/cb_l.png,,,,,,,,,,,,,,,,,,,,,,,,,
,,,,,,00074,2023-10-23_17h27.41.439,vbt_B1_day1,2022.2.4,Win32,60.79027356,,,,,,,,,,,,,,,,,,,0.011111153,-0.133333347,1,0,0,2.4849,2,13,65,23,1,x,images/br_x.png,images/cb_x.png,,,,,,,,,,,,,,,,,,,,,,,,,
,,,,,,00074,2023-10-23_17h27.41.439,vbt_B1_day1,2022.2.4,Win32,60.79027356,,,,,,,,,,,,,,,,,,,0.011111153,-0.133333347,1,0,0,2.8005,2,14,66,22,1,w,images/br_w.png,images/cb_w.png,,,,,,,,,,,,,,,,,,,,,,,,,
,,,,,,00074,2023-10-23_17h27.41.439,vbt_B1_day1,2022.2.4,Win32,60.79027356,,,,,,,,,,,,,,,,,,,0.011111153,-0.133333347,1,0,0,1.5838,2,15,67,21,1,v,images/br_v.png,images/cb_v.png,,,,,,,,,,,,,,,,,,,,,,,,,
,,,,,,00074,2023-10-23_17h27.41.439,vbt_B1_day1,2022.2.4,Win32,60.79027356,,,,,,,,,,,,,,,,,,,0.011111153,-0.133333347,1,0,0,6.6577,2,16,68,16,1,q,images/br_q.png,images/cb_q.png,,,,,,,,,,,,,,,,,,,,,,,,,
,,,,,,00074,2023-10-23_17h27.41.439,vbt_B1_day1,2022.2.4,Win32,60.79027356,,,,,,,,,,,,,,,,,,,0.011111153,-0.133333347,1,0,0,0.0109,2,17,69,1,1,b,images/br_b.png,images/cb_b.png,,,,,,,,,,,,,,,,,,,,,,,,,
,,,,,,00074,2023-10-23_17h27.41.439,vbt_B1_day1,2022.2.4,Win32,60.79027356,,,,,,,,,,,,,,,,,,,0.011111153,-0.133333347,1,0,0,0.9845,2,18,70,20,1,u,images/br_u.png,images/cb_u.png,,,,,,,,,,,,,,,,,,,,,,,,,
,,,,,,00074,2023-10-23_17h27.41.439,vbt_B1_day1,2022.2.4,Win32,60.79027356,,,,,,,,,,,,,,,,,,,0.011111153,-0.133333347,1,0,0,5.5839,2,19,71,2,1,c,images/br_c.png,images/cb_c.png,,,,,,,,,,,,,,,,,,,,,,,,,
,,,,,,00074,2023-10-23_17h27.41.439,vbt_B1_day1,2022.2.4,Win32,60.79027356,,,,,,,,,,,,,,,,,,,0.010185171,-0.134259259,1,0,0,4.4223,2,20,72,8,1,i,images/br_i.png,images/cb_i.png,,,,,,,,,,,,,,,,,,,,,,,,,
,,,,,,00074,2023-10-23_17h27.41.439,vbt_B1_day1,2022.2.4,Win32,60.79027356,,,,,,,,,,,,,,,,,,,0.010185171,-0.134259259,1,0,0,1.684,2,21,73,9,1,j,images/br_j.png,images/cb_j.png,,,,,,,,,,,,,,,,,,,,,,,,,
,,,,,,00074,2023-10-23_17h27.41.439,vbt_B1_day1,2022.2.4,Win32,60.79027356,,,,,,,,,,,,,,,,,,,0.010185171,-0.134259259,1,0,0,2.0086,2,22,74,14,1,o,images/br_o.png,images/cb_o.png,,,,,,,,,,,,,,,,,,,,,,,,,
,,,,,,00074,2023-10-23_17h27.41.439,vbt_B1_day1,2022.2.4,Win32,60.79027356,,,,,,,,,,,,,,,,,,,0.010185171,-0.134259259,1,0,0,5.4998,2,23,75,19,1,t,images/br_t.png,images/cb_t.png,,,,,,,,,,,,,,,,,,,,,,,,,
,,,,,,00074,2023-10-23_17h27.41.439,vbt_B1_day1,2022.2.4,Win32,60.79027356,,,,,,,,,,,,,,,,,,,0.010185171,-0.134259259,1,0,0,13.6842,2,24,76,13,1,n,images/br_n.png,images/cb_n.png,,,,,,,,,,,,,,,,,,,,,,,,,
,,,,,,00074,2023-10-23_17h27.41.439,vbt_B1_day1,2022.2.4,Win32,60.79027356,,,,,,,,,,,,,,,,,,,0.010185171,-0.134259259,1,0,0,2.6684,2,25,77,12,1,m,images/br_m.png,images/cb_m.png,,,,,,,,,,,,,,,,,,,,,,,,,
,,,,,,00074,2023-10-23_17h27.41.439,vbt_B1_day1,2022.2.4,Win32,60.79027356,,,,,,,,,,,,,,,,,,,0.010185171,-0.134259259,1,0,0,2.2213,3,0,78,5,1,f,images/br_f.png,images/cb_f.png,,,,,,,,,,,,,,,,,,,,,,,,,
,,,,,,00074,2023-10-23_17h27.41.439,vbt_B1_day1,2022.2.4,Win32,60.79027356,,,,,,,,,,,,,,,,,,,-0.029629601,-0.130555541,1,0,0,4.4691,3,1,79,2,1,c,images/br_c.png,images/cb_c.png,,,,,,,,,,,,,,,,,,,,,,,,,
,,,,,,00074,2023-10-23_17h27.41.439,vbt_B1_day1,2022.2.4,Win32,60.79027356,,,,,,,,,,,,,,,,,,,-0.029629601,-0.130555541,1,0,0,10.6677,3,2,80,22,1,w,images/br_w.png,images/cb_w.png,,,,,,,,,,,,,,,,,,,,,,,,,
,,,,,,00074,2023-10-23_17h27.41.439,vbt_B1_day1,2022.2.4,Win32,60.79027356,,,,,,,,,,,,,,,,,,,0.073148162,-0.137962977,1,0,0,2.1667,3,3,81,0,1,a,images/br_a.png,images/cb_a.png,,,,,,,,,,,,,,,,,,,,,,,,,
,,,,,,00074,2023-10-23_17h27.41.439,vbt_B1_day1,2022.2.4,Win32,60.79027356,,,,,,,,,,,,,,,,,,,-0.00462963,-0.160185213,1,0,0,8.5484,3,4,82,4,1,e,images/br_e.png,images/cb_e.png,,,,,,,,,,,,,,,,,,,,,,,,,
,,,,,,00074,2023-10-23_17h27.41.439,vbt_B1_day1,2022.2.4,Win32,60.79027356,,,,,,,,,,,,,,,,,,,-0.00462963,-0.160185213,1,0,0,9.5037,3,5,83,24,1,y,images/br_y.png,images/cb_y.png,,,,,,,,,,,,,,,,,,,,,,,,,
,,,,,,00074,2023-10-23_17h27.41.439,vbt_B1_day1,2022.2.4,Win32,60.79027356,,,,,,,,,,,,,,,,,,,-0.00462963,-0.160185213,1,0,0,3.6012,3,6,84,11,1,l,images/br_l.png,images/cb_l.png,,,,,,,,,,,,,,,,,,,,,,,,,
,,,,,,00074,2023-10-23_17h27.41.439,vbt_B1_day1,2022.2.4,Win32,60.79027356,,,,,,,,,,,,,,,,,,,-0.00462963,-0.160185213,1,0,0,1.6669,3,7,85,10,1,k,images/br_k.png,images/cb_k.png,,,,,,,,,,,,,,,,,,,,,,,,,
,,,,,,00074,2023-10-23_17h27.41.439,vbt_B1_day1,2022.2.4,Win32,60.79027356,,,,,,,,,,,,,,,,,,,0.037037037,-0.123148176,1,0,0,0.2177,3,8,86,18,1,s,images/br_s.png,images/cb_s.png,,,,,,,,,,,,,,,,,,,,,,,,,
,,,,,,00074,2023-10-23_17h27.41.439,vbt_B1_day1,2022.2.4,Win32,60.79027356,,,,,,,,,,,,,,,,,,,0.037037037,-0.123148176,1,0,0,2.3193,3,9,87,17,1,r,images/br_r.png,images/cb_r.png,,,,,,,,,,,,,,,,,,,,,,,,,
,,,,,,00074,2023-10-23_17h27.41.439,vbt_B1_day1,2022.2.4,Win32,60.79027356,,,,,,,,,,,,,,,,,,,0.037037037,-0.123148176,1,0,0,2.0216,3,10,88,9,1,j,images/br_j.png,images/cb_j.png,,,,,,,,,,,,,,,,,,,,,,,,,
,,,,,,00074,2023-10-23_17h27.41.439,vbt_B1_day1,2022.2.4,Win32,60.79027356,,,,,,,,,,,,,,,,,,,0.036111125,-0.125925912,1,0,0,1.9837,3,11,89,7,1,h,images/br_h.png,images/cb_h.png,,,,,,,,,,,,,,,,,,,,,,,,,
,,,,,,00074,2023-10-23_17h27.41.439,vbt_B1_day1,2022.2.4,Win32,60.79027356,,,,,,,,,,,,,,,,,,,0.036111125,-0.125925912,1,0,0,5.0674,3,12,90,20,1,u,images/br_u.png,images/cb_u.png,,,,,,,,,,,,,,,,,,,,,,,,,
,,,,,,00074,2023-10-23_17h27.41.439,vbt_B1_day1,2022.2.4,Win32,60.79027356,,,,,,,,,,,,,,,,,,,0.036111125,-0.125925912,1,0,0,7.2221,3,13,91,3,1,d,images/br_d.png,images/cb_d.png,,,,,,,,,,,,,,,,,,,,,,,,,
,,,,,,00074,2023-10-23_17h27.41.439,vbt_B1_day1,2022.2.4,Win32,60.79027356,,,,,,,,,,,,,,,,,,,0.036111125,-0.125925912,1,0,0,3.8768,3,14,92,15,1,p,images/br_p.png,images/cb_p.png,,,,,,,,,,,,,,,,,,,,,,,,,
,,,,,,00074,2023-10-23_17h27.41.439,vbt_B1_day1,2022.2.4,Win32,60.79027356,,,,,,,,,,,,,,,,,,,0.036111125,-0.125925912,1,0,0,8.1086,3,15,93,13,1,n,images/br_n.png,images/cb_n.png,,,,,,,,,,,,,,,,,,,,,,,,,
,,,,,,00074,2023-10-23_17h27.41.439,vbt_B1_day1,2022.2.4,Win32,60.79027356,,,,,,,,,,,,,,,,,,,0.036111125,-0.125925912,1,0,0,5.0166,3,16,94,14,1,o,images/br_o.png,images/cb_o.png,,,,,,,,,,,,,,,,,,,,,,,,,
,,,,,,00074,2023-10-23_17h27.41.439,vbt_B1_day1,2022.2.4,Win32,60.79027356,,,,,,,,,,,,,,,,,,,0.036111125,-0.125925912,1,0,0,1.6506,3,17,95,6,1,g,images/br_g.png,images/cb_g.png,,,,,,,,,,,,,,,,,,,,,,,,,
,,,,,,00074,2023-10-23_17h27.41.439,vbt_B1_day1,2022.2.4,Win32,60.79027356,,,,,,,,,,,,,,,,,,,0.036111125,-0.125925912,1,0,0,17.8669,3,18,96,21,1,v,images/br_v.png,images/cb_v.png,,,,,,,,,,,,,,,,,,,,,,,,,
,,,,,,00074,2023-10-23_17h27.41.439,vbt_B1_day1,2022.2.4,Win32,60.79027356,,,,,,,,,,,,,,,,,,,-0.024999972,-0.110185199,1,0,0,3.1664,3,19,97,8,1,i,images/br_i.png,images/cb_i.png,,,,,,,,,,,,,,,,,,,,,,,,,
,,,,,,00074,2023-10-23_17h27.41.439,vbt_B1_day1,2022.2.4,Win32,60.79027356,,,,,,,,,,,,,,,,,,,0.025000042,-0.107407393,1,0,0,0.5503,3,20,98,19,1,t,images/br_t.png,images/cb_t.png,,,,,,,,,,,,,,,,,,,,,,,,,
,,,,,,00074,2023-10-23_17h27.41.439,vbt_B1_day1,2022.2.4,Win32,60.79027356,,,,,,,,,,,,,,,,,,,-0.094444416,-0.161111125,1,0,0,27.0832,3,21,99,12,1,m,images/br_m.png,images/cb_m.png,,,,,,,,,,,,,,,,,,,,,,,,,
,,,,,,00074,2023-10-23_17h27.41.439,vbt_B1_day1,2022.2.4,Win32,60.79027356,,,,,,,,,,,,,,,,,,,0.027777778,-0.115740741,1,0,0,6.35,3,22,100,1,1,b,images/br_b.png,images/cb_b.png,,,,,,,,,,,,,,,,,,,,,,,,,
,,,,,,00074,2023-10-23_17h27.41.439,vbt_B1_day1,2022.2.4,Win32,60.79027356,,,,,,,,,,,,,,,,,,,0.027777778,-0.115740741,1,0,0,16.3169,3,23,101,16,1,q,images/br_q.png,images/cb_q.png,,,,,,,,,,,,,,,,,,,,,,,,,
,,,,,,00074,2023-10-23_17h27.41.439,vbt_B1_day1,2022.2.4,Win32,60.79027356,,,,,,,,,,,,,,,,,,,0.027777778,-0.115740741,1,0,0,1.3501,3,24,102,25,1,z,images/br_z.png,images/cb_z.png,,,,,,,,,,,,,,,,,,,,,,,,,
,,,,,,00074,2023-10-23_17h27.41.439,vbt_B1_day1,2022.2.4,Win32,60.79027356,,,,,,,,,,,,,,,,,,,0.027777778,-0.115740741,1,0,0,0.817,3,25,103,23,1,x,images/br_x.png,images/cb_x.png,,,,,,,,,,,,,,,,,,,,,,,,,
,,,,,,00074,2023-10-23_17h27.41.439,vbt_B1_day1,2022.2.4,Win32,60.79027356,,,,,,,,,,,,,,,,,,,0.027777778,-0.115740741,1,0,0,2.4003,4,0,104,1,1,b,images/br_b.png,images/cb_b.png,,,,,,,,,,,,,,,,,,,,,,,,,
,,,,,,00074,2023-10-23_17h27.41.439,vbt_B1_day1,2022.2.4,Win32,60.79027356,,,,,,,,,,,,,,,,,,,0.027777778,-0.115740741,1,0,0,1.5835,4,1,105,9,1,j,images/br_j.png,images/cb_j.png,,,,,,,,,,,,,,,,,,,,,,,,,
,,,,,,00074,2023-10-23_17h27.41.439,vbt_B1_day1,2022.2.4,Win32,60.79027356,,,,,,,,,,,,,,,,,,,0.027777778,-0.115740741,1,0,0,0.3169,4,2,106,16,1,q,images/br_q.png,images/cb_q.png,,,,,,,,,,,,,,,,,,,,,,,,,
,,,,,,00074,2023-10-23_17h27.41.439,vbt_B1_day1,2022.2.4,Win32,60.79027356,,,,,,,,,,,,,,,,,,,0.027777778,-0.115740741,1,0,0,1.0503,4,3,107,23,1,x,images/br_x.png,images/cb_x.png,,,,,,,,,,,,,,,,,,,,,,,,,
,,,,,,00074,2023-10-23_17h27.41.439,vbt_B1_day1,2022.2.4,Win32,60.79027356,,,,,,,,,,,,,,,,,,,0.027777778,-0.115740741,1,0,0,5.2337,4,4,108,7,1,h,images/br_h.png,images/cb_h.png,,,,,,,,,,,,,,,,,,,,,,,,,
,,,,,,00074,2023-10-23_17h27.41.439,vbt_B1_day1,2022.2.4,Win32,60.79027356,,,,,,,,,,,,,,,,,,,0.027777778,-0.115740741,1,0,0,0.7176,4,5,109,20,1,u,images/br_u.png,images/cb_u.png,,,,,,,,,,,,,,,,,,,,,,,,,
,,,,,,00074,2023-10-23_17h27.41.439,vbt_B1_day1,2022.2.4,Win32,60.79027356,,,,,,,,,,,,,,,,,,,0.027777778,-0.115740741,1,0,0,1.2501,4,6,110,8,1,i,images/br_i.png,images/cb_i.png,,,,,,,,,,,,,,,,,,,,,,,,,
,,,,,,00074,2023-10-23_17h27.41.439,vbt_B1_day1,2022.2.4,Win32,60.79027356,,,,,,,,,,,,,,,,,,,0.027777778,-0.115740741,1,0,0,0.9502,4,7,111,11,1,l,images/br_l.png,images/cb_l.png,,,,,,,,,,,,,,,,,,,,,,,,,
,,,,,,00074,2023-10-23_17h27.41.439,vbt_B1_day1,2022.2.4,Win32,60.79027356,,,,,,,,,,,,,,,,,,,0.027777778,-0.115740741,1,0,0,3.7668,4,8,112,0,1,a,images/br_a.png,images/cb_a.png,,,,,,,,,,,,,,,,,,,,,,,,,
,,,,,,00074,2023-10-23_17h27.41.439,vbt_B1_day1,2022.2.4,Win32,60.79027356,,,,,,,,,,,,,,,,,,,0.027777778,-0.117592635,1,0,0,4.2669,4,9,113,6,1,g,images/br_g.png,images/cb_g.png,,,,,,,,,,,,,,,,,,,,,,,,,
,,,,,,00074,2023-10-23_17h27.41.439,vbt_B1_day1,2022.2.4,Win32,60.79027356,,,,,,,,,,,,,,,,,,,0.027777778,-0.117592635,1,0,0,3.2835,4,10,114,19,1,t,images/br_t.png,images/cb_t.png,,,,,,,,,,,,,,,,,,,,,,,,,
,,,,,,00074,2023-10-23_17h27.41.439,vbt_B1_day1,2022.2.4,Win32,60.79027356,,,,,,,,,,,,,,,,,,,0.027777778,-0.117592635,1,0,0,1,4,11,115,24,1,y,images/br_y.png,images/cb_y.png,,,,,,,,,,,,,,,,,,,,,,,,,
,,,,,,00074,2023-10-23_17h27.41.439,vbt_B1_day1,2022.2.4,Win32,60.79027356,,,,,,,,,,,,,,,,,,,0.027777778,-0.117592635,1,0,0,0.7168,4,12,116,10,1,k,images/br_k.png,images/cb_k.png,,,,,,,,,,,,,,,,,,,,,,,,,
,,,,,,00074,2023-10-23_17h27.41.439,vbt_B1_day1,2022.2.4,Win32,60.79027356,,,,,,,,,,,,,,,,,,,0.027777778,-0.117592635,1,0,0,2.0168,4,13,117,18,1,s,images/br_s.png,images/cb_s.png,,,,,,,,,,,,,,,,,,,,,,,,,
,,,,,,00074,2023-10-23_17h27.41.439,vbt_B1_day1,2022.2.4,Win32,60.79027356,,,,,,,,,,,,,,,,,,,0.027777778,-0.117592635,1,0,0,1.7001,4,14,118,4,1,e,images/br_e.png,images/cb_e.png,,,,,,,,,,,,,,,,,,,,,,,,,
,,,,,,00074,2023-10-23_17h27.41.439,vbt_B1_day1,2022.2.4,Win32,60.79027356,,,,,,,,,,,,,,,,,,,0.027777778,-0.117592635,1,0,0,1.8001,4,15,119,12,1,m,images/br_m.png,images/cb_m.png,,,,,,,,,,,,,,,,,,,,,,,,,
,,,,,,00074,2023-10-23_17h27.41.439,vbt_B1_day1,2022.2.4,Win32,60.79027356,,,,,,,,,,,,,,,,,,,0.027777778,-0.117592635,1,0,0,5.0167,4,16,120,14,1,o,images/br_o.png,images/cb_o.png,,,,,,,,,,,,,,,,,,,,,,,,,
,,,,,,00074,2023-10-23_17h27.41.439,vbt_B1_day1,2022.2.4,Win32,60.79027356,,,,,,,,,,,,,,,,,,,0.027777778,-0.117592635,1,0,0,7.8501,4,17,121,13,1,n,images/br_n.png,images/cb_n.png,,,,,,,,,,,,,,,,,,,,,,,,,
,,,,,,00074,2023-10-23_17h27.41.439,vbt_B1_day1,2022.2.4,Win32,60.79027356,,,,,,,,,,,,,,,,,,,-0.012962977,-0.124074088,1,0,0,5.9338,4,18,122,21,1,v,images/br_v.png,images/cb_v.png,,,,,,,,,,,,,,,,,,,,,,,,,
,,,,,,00074,2023-10-23_17h27.41.439,vbt_B1_day1,2022.2.4,Win32,60.79027356,,,,,,,,,,,,,,,,,,,-0.012962977,-0.125925912,1,0,0,15.234,4,19,123,15,1,p,images/br_p.png,images/cb_p.png,,,,,,,,,,,,,,,,,,,,,,,,,
,,,,,,00074,2023-10-23_17h27.41.439,vbt_B1_day1,2022.2.4,Win32,60.79027356,,,,,,,,,,,,,,,,,,,-0.012962977,-0.125925912,1,0,0,17.4168,4,20,124,25,1,z,images/br_z.png,images/cb_z.png,,,,,,,,,,,,,,,,,,,,,,,,,
,,,,,,00074,2023-10-23_17h27.41.439,vbt_B1_day1,2022.2.4,Win32,60.79027356,,,,,,,,,,,,,,,,,,,0.040740755,-0.125925912,1,0,0,25.0667,4,21,125,5,1,f,images/br_f.png,images/cb_f.png,,,,,,,,,,,,,,,,,,,,,,,,,
,,,,,,00074,2023-10-23_17h27.41.439,vbt_B1_day1,2022.2.4,Win32,60.79027356,,,,,,,,,,,,,,,,,,,0.040740755,-0.125925912,1,0,0,10.1519,4,22,126,2,1,c,images/br_c.png,images/cb_c.png,,,,,,,,,,,,,,,,,,,,,,,,,
,,,,,,00074,2023-10-23_17h27.41.439,vbt_B1_day1,2022.2.4,Win32,60.79027356,,,,,,,,,,,,,,,,,,,0.040740755,-0.125925912,1,0,0,10.5838,4,23,127,3,1,d,images/br_d.png,images/cb_d.png,,,,,,,,,,,,,,,,,,,,,,,,,
,,,,,,00074,2023-10-23_17h27.41.439,vbt_B1_day1,2022.2.4,Win32,60.79027356,,,,,,,,,,,,,,,,,,,0.040740755,-0.125925912,1,0,0,9.3413,4,24,128,17,1,r,images/br_r.png,images/cb_r.png,,,,,,,,,,,,,,,,,,,,,,,,,
,,,,,,00074,2023-10-23_17h27.41.439,vbt_B1_day1,2022.2.4,Win32,60.79027356,,,,,,,,,,,,,,,,,,,-0.045370384,-0.114814829,1,0,0,10.175,4,25,129,22,1,w,images/br_w.png,images/cb_w.png,,,,,,,,,,,,,,,,,,,,,,,,,
,,,,,,00074,2023-10-23_17h27.41.439,vbt_B1_day1,2022.2.4,Win32,60.79027356,,,,,,,,,,,,,,,,,,,-0.045370384,-0.114814829,1,0,0,4.0506,5,0,130,7,1,h,images/br_h.png,images/cb_h.png,,,,,,,,,,,,,,,,,,,,,,,,,
,,,,,,00074,2023-10-23_17h27.41.439,vbt_B1_day1,2022.2.4,Win32,60.79027356,,,,,,,,,,,,,,,,,,,-0.045370384,-0.114814829,1,0,0,8.2182,5,1,131,15,1,p,images/br_p.png,images/cb_p.png,,,,,,,,,,,,,,,,,,,,,,,,,
,,,,,,00074,2023-10-23_17h27.41.439,vbt_B1_day1,2022.2.4,Win32,60.79027356,,,,,,,,,,,,,,,,,,,-0.045370384,-0.114814829,1,0,0,18.5511,5,2,132,17,1,r,images/br_r.png,images/cb_r.png,,,,,,,,,,,,,,,,,,,,,,,,,
,,,,,,00074,2023-10-23_17h27.41.439,vbt_B1_day1,2022.2.4,Win32,60.79027356,,,,,,,,,,,,,,,,,,,-0.045370384,-0.114814829,1,0,0,12.7183,5,3,133,14,1,o,images/br_o.png,images/cb_o.png,,,,,,,,,,,,,,,,,,,,,,,,,
,,,,,,00074,2023-10-23_17h27.41.439,vbt_B1_day1,2022.2.4,Win32,60.79027356,,,,,,,,,,,,,,,,,,,-0.045370384,-0.114814829,1,0,0,1.4347,5,4,134,11,1,l,images/br_l.png,images/cb_l.png,,,,,,,,,,,,,,,,,,,,,,,,,
,,,,,,00074,2023-10-23_17h27.41.439,vbt_B1_day1,2022.2.4,Win32,60.79027356,,,,,,,,,,,,,,,,,,,-0.045370384,-0.114814829,1,0,0,1.8512,5,5,135,21,1,v,images/br_v.png,images/cb_v.png,,,,,,,,,,,,,,,,,,,,,,,,,
,,,,,,00074,2023-10-23_17h27.41.439,vbt_B1_day1,2022.2.4,Win32,60.79027356,,,,,,,,,,,,,,,,,,,-0.045370384,-0.114814829,1,0,0,2.3519,5,6,136,13,1,n,images/br_n.png,images/cb_n.png,,,,,,,,,,,,,,,,,,,,,,,,,
,,,,,,00074,2023-10-23_17h27.41.439,vbt_B1_day1,2022.2.4,Win32,60.79027356,,,,,,,,,,,,,,,,,,,-0.045370384,-0.114814829,1,0,0,2.3679,5,7,137,3,1,d,images/br_d.png,images/cb_d.png,,,,,,,,,,,,,,,,,,,,,,,,,
,,,,,,00074,2023-10-23_17h27.41.439,vbt_B1_day1,2022.2.4,Win32,60.79027356,,,,,,,,,,,,,,,,,,,-0.045370384,-0.114814829,1,0,0,3.6682,5,8,138,20,1,u,images/br_u.png,images/cb_u.png,,,,,,,,,,,,,,,,,,,,,,,,,
,,,,,,00074,2023-10-23_17h27.41.439,vbt_B1_day1,2022.2.4,Win32,60.79027356,,,,,,,,,,,,,,,,,,,-0.045370384,-0.114814829,1,0,0,4.7252,5,9,139,1,1,b,images/br_b.png,images/cb_b.png,,,,,,,,,,,,,,,,,,,,,,,,,
,,,,,,00074,2023-10-23_17h27.41.439,vbt_B1_day1,2022.2.4,Win32,60.79027356,,,,,,,,,,,,,,,,,,,-0.045370384,-0.114814829,1,0,0,4.2737,5,10,140,2,1,c,images/br_c.png,images/cb_c.png,,,,,,,,,,,,,,,,,,,,,,,,,
,,,,,,00074,2023-10-23_17h27.41.439,vbt_B1_day1,2022.2.4,Win32,60.79027356,,,,,,,,,,,,,,,,,,,-0.045370384,-0.114814829,1,0,0,5.685,5,11,141,8,1,i,images/br_i.png,images/cb_i.png,,,,,,,,,,,,,,,,,,,,,,,,,
,,,,,,00074,2023-10-23_17h27.41.439,vbt_B1_day1,2022.2.4,Win32,60.79027356,,,,,,,,,,,,,,,,,,,-0.045370384,-0.114814829,1,0,0,1.6344,5,12,142,0,1,a,images/br_a.png,images/cb_a.png,,,,,,,,,,,,,,,,,,,,,,,,,
,,,,,,00074,2023-10-23_17h27.41.439,vbt_B1_day1,2022.2.4,Win32,60.79027356,,,,,,,,,,,,,,,,,,,-0.045370384,-0.114814829,1,0,0,5.0677,5,13,143,22,1,w,images/br_w.png,images/cb_w.png,,,,,,,,,,,,,,,,,,,,,,,,,
,,,,,,00074,2023-10-23_17h27.41.439,vbt_B1_day1,2022.2.4,Win32,60.79027356,,,,,,,,,,,,,,,,,,,-0.045370384,-0.114814829,1,0,0,1.2176,5,14,144,23,1,x,images/br_x.png,images/cb_x.png,,,,,,,,,,,,,,,,,,,,,,,,,
,,,,,,00074,2023-10-23_17h27.41.439,vbt_B1_day1,2022.2.4,Win32,60.79027356,,,,,,,,,,,,,,,,,,,-0.045370384,-0.114814829,1,0,0,0.5773,5,15,145,10,1,k,images/br_k.png,images/cb_k.png,,,,,,,,,,,,,,,,,,,,,,,,,
,,,,,,00074,2023-10-23_17h27.41.439,vbt_B1_day1,2022.2.4,Win32,60.79027356,,,,,,,,,,,,,,,,,,,-0.045370384,-0.114814829,1,0,0,1.784,5,16,146,18,1,s,images/br_s.png,images/cb_s.png,,,,,,,,,,,,,,,,,,,,,,,,,
,,,,,,00074,2023-10-23_17h27.41.439,vbt_B1_day1,2022.2.4,Win32,60.79027356,,,,,,,,,,,,,,,,,,,-0.045370384,-0.114814829,1,0,0,8.1845,5,17,147,24,1,y,images/br_y.png,images/cb_y.png,,,,,,,,,,,,,,,,,,,,,,,,,
,,,,,,00074,2023-10-23_17h27.41.439,vbt_B1_day1,2022.2.4,Win32,60.79027356,,,,,,,,,,,,,,,,,,,-0.045370384,-0.114814829,1,0,0,6.1018,5,18,148,4,1,e,images/br_e.png,images/cb_e.png,,,,,,,,,,,,,,,,,,,,,,,,,
,,,,,,00074,2023-10-23_17h27.41.439,vbt_B1_day1,2022.2.4,Win32,60.79027356,,,,,,,,,,,,,,,,,,,-0.045370384,-0.114814829,1,0,0,2.3843,5,19,149,9,1,j,images/br_j.png,images/cb_j.png,,,,,,,,,,,,,,,,,,,,,,,,,
,,,,,,00074,2023-10-23_17h27.41.439,vbt_B1_day1,2022.2.4,Win32,60.79027356,,,,,,,,,,,,,,,,,,,-0.045370384,-0.114814829,1,0,0,2.0077,5,20,150,25,1,z,images/br_z.png,images/cb_z.png,,,,,,,,,,,,,,,,,,,,,,,,,
,,,,,,00074,2023-10-23_17h27.41.439,vbt_B1_day1,2022.2.4,Win32,60.79027356,,,,,,,,,,,,,,,,,,,-0.045370384,-0.114814829,1,0,0,6.1758,5,21,151,19,1,t,images/br_t.png,images/cb_t.png,,,,,,,,,,,,,,,,,,,,,,,,,
,,,,,,00074,2023-10-23_17h27.41.439,vbt_B1_day1,2022.2.4,Win32,60.79027356,,,,,,,,,,,,,,,,,,,-0.045370384,-0.114814829,1,0,0,41.4871,5,22,152,16,1,q,images/br_q.png,images/cb_q.png,,,,,,,,,,,,,,,,,,,,,,,,,
,,,,,,00074,2023-10-23_17h27.41.439,vbt_B1_day1,2022.2.4,Win32,60.79027356,,,,,,,,,,,,,,,,,,,-0.022222236,-0.09629631,1,0,0,0.9006,5,23,153,5,1,f,images/br_f.png,images/cb_f.png,,,,,,,,,,,,,,,,,,,,,,,,,
,,,,,,00074,2023-10-23_17h27.41.439,vbt_B1_day1,2022.2.4,Win32,60.79027356,,,,,,,,,,,,,,,,,,,-0.022222236,-0.09629631,1,0,0,1.0938,5,24,154,6,1,g,images/br_g.png,images/cb_g.png,,,,,,,,,,,,,,,,,,,,,,,,,
,,,,,,00074,2023-10-23_17h27.41.439,vbt_B1_day1,2022.2.4,Win32,60.79027356,,,,,,,,,,,,,,,,,,,-0.022222236,-0.09629631,1,0,0,0.6676,5,25,155,12,1,m,images/br_m.png,images/cb_m.png,,,,,,,,,,,,,,,,,,,,,,,,,
,,,,,,00074,2023-10-23_17h27.41.439,vbt_B1_day1,2022.2.4,Win32,60.79027356,,,,,,,,,,,,,,,,,,,-0.022222236,-0.09629631,1,0,0,1.4342,6,0,156,18,1,s,images/br_s.png,images/cb_s.png,,,,,,,,,,,,,,,,,,,,,,,,,
,,,,,,00074,2023-10-23_17h27.41.439,vbt_B1_day1,2022.2.4,Win32,60.79027356,,,,,,,,,,,,,,,,,,,-0.022222236,-0.09629631,1,0,0,10.651,6,1,157,24,1,y,images/br_y.png,images/cb_y.png,,,,,,,,,,,,,,,,,,,,,,,,,
,,,,,,00074,2023-10-23_17h27.41.439,vbt_B1_day1,2022.2.4,Win32,60.79027356,,,,,,,,,,,,,,,,,,,-0.022222236,-0.09629631,1,0,0,1.0682,6,2,158,6,1,g,images/br_g.png,images/cb_g.png,,,,,,,,,,,,,,,,,,,,,,,,,
,,,,,,00074,2023-10-23_17h27.41.439,vbt_B1_day1,2022.2.4,Win32,60.79027356,,,,,,,,,,,,,,,,,,,-0.022222236,-0.09629631,1,0,0,12.0368,6,3,159,12,1,m,images/br_m.png,images/cb_m.png,,,,,,,,,,,,,,,,,,,,,,,,,
,,,,,,00074,2023-10-23_17h27.41.439,vbt_B1_day1,2022.2.4,Win32,60.79027356,,,,,,,,,,,,,,,,,,,-0.022222236,-0.09629631,1,0,0,9.7946,6,4,160,20,1,u,images/br_u.png,images/cb_u.png,,,,,,,,,,,,,,,,,,,,,,,,,
,,,,,,00074,2023-10-23_17h27.41.439,vbt_B1_day1,2022.2.4,Win32,60.79027356,,,,,,,,,,,,,,,,,,,-0.022222236,-0.09629631,1,0,0,19.5344,6,5,161,13,1,n,images/br_n.png,images/cb_n.png,,,,,,,,,,,,,,,,,,,,,,,,,
,,,,,,00074,2023-10-23_17h27.41.439,vbt_B1_day1,2022.2.4,Win32,60.79027356,,,,,,,,,,,,,,,,,,,-0.022222236,-0.09629631,1,0,0,0.0514,6,6,162,22,1,w,images/br_w.png,images/cb_w.png,,,,,,,,,,,,,,,,,,,,,,,,,
,,,,,,00074,2023-10-23_17h27.41.439,vbt_B1_day1,2022.2.4,Win32,60.79027356,,,,,,,,,,,,,,,,,,,-0.022222236,-0.09629631,1,0,0,2.7362,6,7,163,5,1,f,images/br_f.png,images/cb_f.png,,,,,,,,,,,,,,,,,,,,,,,,,
,,,,,,00074,2023-10-23_17h27.41.439,vbt_B1_day1,2022.2.4,Win32,60.79027356,,,,,,,,,,,,,,,,,,,-0.022222236,-0.09629631,1,0,0,12.1125,6,8,164,10,1,k,images/br_k.png,images/cb_k.png,,,,,,,,,,,,,,,,,,,,,,,,,
,,,,,,00074,2023-10-23_17h27.41.439,vbt_B1_day1,2022.2.4,Win32,60.79027356,,,,,,,,,,,,,,,,,,,-0.022222236,-0.09629631,1,0,0,14.792,6,9,165,1,1,b,images/br_b.png,images/cb_b.png,,,,,,,,,,,,,,,,,,,,,,,,,
,,,,,,00074,2023-10-23_17h27.41.439,vbt_B1_day1,2022.2.4,Win32,60.79027356,,,,,,,,,,,,,,,,,,,-0.022222236,-0.09629631,1,0,0,2.1354,6,10,166,17,1,r,images/br_r.png,images/cb_r.png,,,,,,,,,,,,,,,,,,,,,,,,,
,,,,,,00074,2023-10-23_17h27.41.439,vbt_B1_day1,2022.2.4,Win32,60.79027356,,,,,,,,,,,,,,,,,,,-0.022222236,-0.09629631,1,0,0,0.8028,6,11,167,25,1,z,images/br_z.png,images/cb_z.png,,,,,,,,,,,,,,,,,,,,,,,,,
,,,,,,00074,2023-10-23_17h27.41.439,vbt_B1_day1,2022.2.4,Win32,60.79027356,,,,,,,,,,,,,,,,,,,-0.06759255,-0.113888917,1,0,0,6.5747,6,12,168,11,1,l,images/br_l.png,images/cb_l.png,,,,,,,,,,,,,,,,,,,,,,,,,
,,,,,,00074,2023-10-23_17h27.41.439,vbt_B1_day1,2022.2.4,Win32,60.79027356,,,,,,,,,,,,,,,,,,,0.044444473,-0.106481481,1,0,0,7.7521,6,13,169,8,1,i,images/br_i.png,images/cb_i.png,,,,,,,,,,,,,,,,,,,,,,,,,
,,,,,,00074,2023-10-23_17h27.41.439,vbt_B1_day1,2022.2.4,Win32,60.79027356,,,,,,,,,,,,,,,,,,,0.044444473,-0.106481481,1,0,0,2.3845,6,14,170,2,1,c,images/br_c.png,images/cb_c.png,,,,,,,,,,,,,,,,,,,,,,,,,
,,,,,,00074,2023-10-23_17h27.41.439,vbt_B1_day1,2022.2.4,Win32,60.79027356,,,,,,,,,,,,,,,,,,,0.044444473,-0.106481481,1,0,0,2.1004,6,15,171,14,1,o,images/br_o.png,images/cb_o.png,,,,,,,,,,,,,,,,,,,,,,,,,
,,,,,,00074,2023-10-23_17h27.41.439,vbt_B1_day1,2022.2.4,Win32,60.79027356,,,,,,,,,,,,,,,,,,,0.044444473,-0.106481481,1,0,0,1.7887,6,16,172,15,1,p,images/br_p.png,images/cb_p.png,,,,,,,,,,,,,,,,,,,,,,,,,
,,,,,,00074,2023-10-23_17h27.41.439,vbt_B1_day1,2022.2.4,Win32,60.79027356,,,,,,,,,,,,,,,,,,,0.044444473,-0.106481481,1,0,0,1.2518,6,17,173,16,1,q,images/br_q.png,images/cb_q.png,,,,,,,,,,,,,,,,,,,,,,,,,
,,,,,,00074,2023-10-23_17h27.41.439,vbt_B1_day1,2022.2.4,Win32,60.79027356,,,,,,,,,,,,,,,,,,,0.044444473,-0.106481481,1,0,0,7.9168,6,18,174,9,1,j,images/br_j.png,images/cb_j.png,,,,,,,,,,,,,,,,,,,,,,,,,
,,,,,,00074,2023-10-23_17h27.41.439,vbt_B1_day1,2022.2.4,Win32,60.79027356,,,,,,,,,,,,,,,,,,,0.044444473,-0.106481481,1,0,0,0.4334,6,19,175,19,1,t,images/br_t.png,images/cb_t.png,,,,,,,,,,,,,,,,,,,,,,,,,
,,,,,,00074,2023-10-23_17h27.41.439,vbt_B1_day1,2022.2.4,Win32,60.79027356,,,,,,,,,,,,,,,,,,,0.044444473,-0.106481481,1,0,0,0.3343,6,20,176,3,1,d,images/br_d.png,images/cb_d.png,,,,,,,,,,,,,,,,,,,,,,,,,
,,,,,,00074,2023-10-23_17h27.41.439,vbt_B1_day1,2022.2.4,Win32,60.79027356,,,,,,,,,,,,,,,,,,,0.044444473,-0.106481481,1,0,0,0.3007,6,21,177,21,1,v,images/br_v.png,images/cb_v.png,,,,,,,,,,,,,,,,,,,,,,,,,
,,,,,,00074,2023-10-23_17h27.41.439,vbt_B1_day1,2022.2.4,Win32,60.79027356,,,,,,,,,,,,,,,,,,,0.044444473,-0.108333376,1,0,0,0.6349,6,22,178,23,1,x,images/br_x.png,images/cb_x.png,,,,,,,,,,,,,,,,,,,,,,,,,
,,,,,,00074,2023-10-23_17h27.41.439,vbt_B1_day1,2022.2.4,Win32,60.79027356,,,,,,,,,,,,,,,,,,,0.044444473,-0.108333376,1,0,0,0.8511,6,23,179,7,1,h,images/br_h.png,images/cb_h.png,,,,,,,,,,,,,,,,,,,,,,,,,
,,,,,,00074,2023-10-23_17h27.41.439,vbt_B1_day1,2022.2.4,Win32,60.79027356,,,,,,,,,,,,,,,,,,,0.044444473,-0.108333376,1,0,0,0.0513,6,24,180,0,1,a,images/br_a.png,images/cb_a.png,,,,,,,,,,,,,,,,,,,,,,,,,
,,,,,,00074,2023-10-23_17h27.41.439,vbt_B1_day1,2022.2.4,Win32,60.79027356,,,,,,,,,,,,,,,,,,,0.044444473,-0.108333376,1,0,0,0.0277,6,25,181,4,1,e,images/br_e.png,images/cb_e.png,,,,,,,,,,,,,,,,,,,,,,,,,
,,,,,,00074,2023-10-23_17h27.41.439,vbt_B1_day1,2022.2.4,Win32,60.79027356,,,,,,,,,,,,,,,,,,,,,,,,,,,,,,,,,0.174074102,-0.092592593,1,0,0,,,,,,,,,,,,,,,,,,,,
,,,,,,00074,2023-10-23_17h27.41.439,vbt_B1_day1,2022.2.4,Win32,60.79027356,,,,,,,,,,,,,,,,,,,,,,,,,,,,,,,,,,,,,,0.150000042,-0.212962963,1,0,0,,,,,,,,,,,,,,,
,,,,,,00074,2023-10-23_17h27.41.439,vbt_B1_day1,2022.2.4,Win32,60.79027356,,,,,,,,,,,,,,,,,,,,,,,,,,,,,,,,,,,,,,,,,,,-0.00462963,-0.070370392,1,0,0,ub....,ub....,0,0,0,49,1,vizier,images/br_vizier.png,images/cb_vizier.png
,,,,,,00074,2023-10-23_17h27.41.439,vbt_B1_day1,2022.2.4,Win32,60.79027356,,,,,,,,,,,,,,,,,,,,,,,,,,,,,,,,,,,,,,,,,,,-0.058333291,-0.098148134,1,0,0,.....,.....,0,1,1,4,1,schep,images/br_schep.png,images/cb_schep.png
,,,,,,00074,2023-10-23_17h27.41.439,vbt_B1_day1,2022.2.4,Win32,60.79027356,,,,,,,,,,,,,,,,,,,,,,,,,,,,,,,,,,,,,,,,,,,-0.037962949,-0.070370392,1,0,0,voordeur,voordeur,0,2,2,58,1,voorkeur,images/br_voorkeur.png,images/cb_voorkeur.png
,,,,,,00074,2023-10-23_17h27.41.439,vbt_B1_day1,2022.2.4,Win32,60.79027356,,,,,,,,,,,,,,,,,,,,,,,,,,,,,,,,,,,,,,,,,,,-0.037962949,-0.070370392,1,0,0,.lb...en,.lb...en,0,3,3,12,1,klimmen,images/br_klimmen.png,images/cb_klimmen.png
,,,,,,00074,2023-10-23_17h27.41.439,vbt_B1_day1,2022.2.4,Win32,60.79027356,,,,,,,,,,,,,,,,,,,,,,,,,,,,,,,,,,,,,,,,,,,-0.037962949,-0.070370392,1,0,0,.db.,.db.,0,4,4,40,1,dief,images/br_dief.png,images/cb_dief.png
,,,,,,00074,2023-10-23_17h27.41.439,vbt_B1_day1,2022.2.4,Win32,60.79027356,,,,,,,,,,,,,,,,,,,,,,,,,,,,,,,,,,,,,,,,,,,-0.037962949,-0.070370392,1,0,0,lava,lava,0,5,5,43,1,lava,images/br_lava.png,images/cb_lava.png
,,,,,,00074,2023-10-23_17h27.41.439,vbt_B1_day1,2022.2.4,Win32,60.79027356,,,,,,,,,,,,,,,,,,,,,,,,,,,,,,,,,,,,,,,,,,,-0.037962949,-0.070370392,1,0,0,liefde,liefde,0,6,6,51,1,liefde,images/br_liefde.png,images/cb_liefde.png
,,,,,,00074,2023-10-23_17h27.41.439,vbt_B1_day1,2022.2.4,Win32,60.79027356,,,,,,,,,,,,,,,,,,,,,,,,,,,,,,,,,,,,,,,,,,,-0.037962949,-0.070370392,1,0,0,ree.de,ree.de,0,7,7,30,1,reedje,images/br_reedje.png,images/cb_reedje.png
,,,,,,00074,2023-10-23_17h27.41.439,vbt_B1_day1,2022.2.4,Win32,60.79027356,,,,,,,,,,,,,,,,,,,,,,,,,,,,,,,,,,,,,,,,,,,-0.003703718,0.006481489,1,0,0,kan.er,kan.er,0,8,8,8,1,kanjer,images/br_kanjer.png,images/cb_kanjer.png
,,,,,,00074,2023-10-23_17h27.41.439,vbt_B1_day1,2022.2.4,Win32,60.79027356,,,,,,,,,,,,,,,,,,,,,,,,,,,,,,,,,,,,,,,,,,,-0.003703718,0.006481489,1,0,0,muziek,muziek,0,9,9,10,1,muziek,images/br_muziek.png,images/cb_muziek.png
,,,,,,00074,2023-10-23_17h27.41.439,vbt_B1_day1,2022.2.4,Win32,60.79027356,,,,,,,,,,,,,,,,,,,,,,,,,,,,,,,,,,,,,,,,,,,-0.034259231,-0.025925919,1,0,0,haar,haar,0,10,10,2,1,jaar,images/br_jaar.png,images/cb_jaar.png
,,,,,,00074,2023-10-23_17h27.41.439,vbt_B1_day1,2022.2.4,Win32,60.79027356,,,,,,,,,,,,,,,,,,,,,,,,,,,,,,,,,,,,,,,,,,,0.042592578,-0.126851894,1,0,0,genond,genond,0,11,11,29,1,genond,images/br_genond.png,images/cb_genond.png
,,,,,,00074,2023-10-23_17h27.41.439,vbt_B1_day1,2022.2.4,Win32,60.79027356,,,,,,,,,,,,,,,,,,,,,,,,,,,,,,,,,,,,,,,,,,,0.042592578,-0.126851894,1,0,0,wi.ye,wi.ye,0,12,12,44,1,wijze,images/br_wijze.png,images/cb_wijze.png
,,,,,,00074,2023-10-23_17h27.41.439,vbt_B1_day1,2022.2.4,Win32,60.79027356,,,,,,,,,,,,,,,,,,,,,,,,,,,,,,,,,,,,,,,,,,,0.023148148,-0.100000028,1,0,0,hiervan,hiervan,0,13,13,15,1,hiervan,images/br_hiervan.png,images/cb_hiervan.png
,,,,,,00074,2023-10-23_17h27.41.439,vbt_B1_day1,2022.2.4,Win32,60.79027356,,,,,,,,,,,,,,,,,,,,,,,,,,,,,,,,,,,,,,,,,,,-0.023148148,-0.193518533,1,0,0,dictie,dictie,0,14,14,48,1,fictie,images/br_fictie.png,images/cb_fictie.png
,,,,,,00074,2023-10-23_17h27.41.439,vbt_B1_day1,2022.2.4,Win32,60.79027356,,,,,,,,,,,,,,,,,,,,,,,,,,,,,,,,,,,,,,,,,,,0.030555584,-0.104629658,1,0,0,lochsen,lochsen,0,15,15,34,1,lochten,images/br_lochten.png,images/cb_lochten.png
,,,,,,00074,2023-10-23_17h27.41.439,vbt_B1_day1,2022.2.4,Win32,60.79027356,,,,,,,,,,,,,,,,,,,,,,,,,,,,,,,,,,,,,,,,,,,0.030555584,-0.104629658,1,0,0,slak,slak,0,16,16,0,1,slak,images/br_slak.png,images/cb_slak.png
,,,,,,00074,2023-10-23_17h27.41.439,vbt_B1_day1,2022.2.4,Win32,60.79027356,,,,,,,,,,,,,,,,,,,,,,,,,,,,,,,,,,,,,,,,,,,0.030555584,-0.104629658,1,0,0,daarheen,daarheen,0,17,17,16,1,daarheen,images/br_daarheen.png,images/cb_daarheen.png
,,,,,,00074,2023-10-23_17h27.41.439,vbt_B1_day1,2022.2.4,Win32,60.79027356,,,,,,,,,,,,,,,,,,,,,,,,,,,,,,,,,,,,,,,,,,,0.007407436,-0.082407422,1,0,0,hooi,hooi,0,18,18,23,1,booi,images/br_booi.png,images/cb_booi.png
,,,,,,00074,2023-10-23_17h27.41.439,vbt_B1_day1,2022.2.4,Win32,60.79027356,,,,,,,,,,,,,,,,,,,,,,,,,,,,,,,,,,,,,,,,,,,0.007407436,-0.082407422,1,0,0,tekenen,tekenen,0,19,19,55,1,tekenen,images/br_tekenen.png,images/cb_tekenen.png
,,,,,,00074,2023-10-23_17h27.41.439,vbt_B1_day1,2022.2.4,Win32,60.79027356,,,,,,,,,,,,,,,,,,,,,,,,,,,,,,,,,,,,,,,,,,,-0.018518519,-0.193518533,1,0,0,hleek,hleek,0,20,20,6,1,bleek,images/br_bleek.png,images/cb_bleek.png
,,,,,,00074,2023-10-23_17h27.41.439,vbt_B1_day1,2022.2.4,Win32,60.79027356,,,,,,,,,,,,,,,,,,,,,,,,,,,,,,,,,,,,,,,,,,,-0.006481453,-0.20185188,1,0,0,opplaan,opplaan,0,21,21,32,1,opplaan,images/br_opplaan.png,images/cb_opplaan.png
,,,,,,00074,2023-10-23_17h27.41.439,vbt_B1_day1,2022.2.4,Win32,60.79027356,,,,,,,,,,,,,,,,,,,,,,,,,,,,,,,,,,,,,,,,,,,-0.006481453,-0.202777792,1,0,0,bebrip,bebrip,0,22,22,28,1,bebrip,images/br_bebrip.png,images/cb_bebrip.png
,,,,,,00074,2023-10-23_17h27.41.439,vbt_B1_day1,2022.2.4,Win32,60.79027356,,,,,,,,,,,,,,,,,,,,,,,,,,,,,,,,,,,,,,,,,,,0.039814843,-0.108333376,1,0,0,flullen,flullen,0,23,23,33,1,flullen,images/br_flullen.png,images/cb_flullen.png
,,,,,,00074,2023-10-23_17h27.41.439,vbt_B1_day1,2022.2.4,Win32,60.79027356,,,,,,,,,,,,,,,,,,,,,,,,,,,,,,,,,,,,,,,,,,,0.039814843,-0.108333376,1,0,0,klauw,klauw,0,24,24,7,1,klauw,images/br_klauw.png,images/cb_klauw.png
,,,,,,00074,2023-10-23_17h27.41.439,vbt_B1_day1,2022.2.4,Win32,60.79027356,,,,,,,,,,,,,,,,,,,,,,,,,,,,,,,,,,,,,,,,,,,0.039814843,-0.14907406,1,0,0,span.ing,span.ing,0,25,25,37,1,spanzing,images/br_spanzing.png,images/cb_spanzing.png
,,,,,,00074,2023-10-23_17h27.41.439,vbt_B1_day1,2022.2.4,Win32,60.79027356,,,,,,,,,,,,,,,,,,,,,,,,,,,,,,,,,,,,,,,,,,,0.039814843,-0.14907406,1,0,0,voorre.r,voorre.r,0,26,26,39,1,voorreur,images/br_voorreur.png,images/cb_voorreur.png
,,,,,,00074,2023-10-23_17h27.41.439,vbt_B1_day1,2022.2.4,Win32,60.79027356,,,,,,,,,,,,,,,,,,,,,,,,,,,,,,,,,,,,,,,,,,,0.039814843,-0.14907406,1,0,0,zaal,zaal,0,27,27,1,1,zaal,images/br_zaal.png,images/cb_zaal.png
,,,,,,00074,2023-10-23_17h27.41.439,vbt_B1_day1,2022.2.4,Win32,60.79027356,,,,,,,,,,,,,,,,,,,,,,,,,,,,,,,,,,,,,,,,,,,0.039814843,-0.14907406,1,0,0,schielen,schielen,0,28,28,38,1,schielen,images/br_schielen.png,images/cb_schielen.png
,,,,,,00074,2023-10-23_17h27.41.439,vbt_B1_day1,2022.2.4,Win32,60.79027356,,,,,,,,,,,,,,,,,,,,,,,,,,,,,,,,,,,,,,,,,,,0.039814843,-0.14907406,1,0,0,opslaan,opslaan,0,29,29,53,1,opslaan,images/br_opslaan.png,images/cb_opslaan.png
,,,,,,00074,2023-10-23_17h27.41.439,vbt_B1_day1,2022.2.4,Win32,60.79027356,,,,,,,,,,,,,,,,,,,,,,,,,,,,,,,,,,,,,,,,,,,0.039814843,-0.14907406,1,0,0,liegen,liegen,0,30,30,50,1,liegen,images/br_liegen.png,images/cb_liegen.png
,,,,,,00074,2023-10-23_17h27.41.439,vbt_B1_day1,2022.2.4,Win32,60.79027356,,,,,,,,,,,,,,,,,,,,,,,,,,,,,,,,,,,,,,,,,,,0.039814843,-0.14907406,1,0,0,hoog,hoog,0,31,31,41,1,hoog,images/br_hoog.png,images/cb_hoog.png
,,,,,,00074,2023-10-23_17h27.41.439,vbt_B1_day1,2022.2.4,Win32,60.79027356,,,,,,,,,,,,,,,,,,,,,,,,,,,,,,,,,,,,,,,,,,,0.086111139,-0.01666666,1,0,0,vervaden,vervaden,0,32,32,36,1,vervaden,images/br_vervaden.png,images/cb_vervaden.png
,,,,,,00074,2023-10-23_17h27.41.439,vbt_B1_day1,2022.2.4,Win32,60.79027356,,,,,,,,,,,,,,,,,,,,,,,,,,,,,,,,,,,,,,,,,,,-0.01944443,-0.195370356,1,0,0,.and,.and,0,33,33,3,1,mand,images/br_mand.png,images/cb_mand.png
,,,,,,00074,2023-10-23_17h27.41.439,vbt_B1_day1,2022.2.4,Win32,60.79027356,,,,,,,,,,,,,,,,,,,,,,,,,,,,,,,,,,,,,,,,,,,0.082407422,-0.101851852,1,0,0,n.iplap,n.iplap,0,34,34,52,1,zuiplap,images/br_zuiplap.png,images/cb_zuiplap.png
,,,,,,00074,2023-10-23_17h27.41.439,vbt_B1_day1,2022.2.4,Win32,60.79027356,,,,,,,,,,,,,,,,,,,,,,,,,,,,,,,,,,,,,,,,,,,0.082407422,-0.101851852,1,0,0,.aken,.aken,0,35,35,5,1,maken,images/br_maken.png,images/cb_maken.png
,,,,,,00074,2023-10-23_17h27.41.439,vbt_B1_day1,2022.2.4,Win32,60.79027356,,,,,,,,,,,,,,,,,,,,,,,,,,,,,,,,,,,,,,,,,,,0.082407422,-0.101851852,1,0,0,valop,valop,0,36,36,26,1,valop,images/br_valop.png,images/cb_valop.png
,,,,,,00074,2023-10-23_17h27.41.439,vbt_B1_day1,2022.2.4,Win32,60.79027356,,,,,,,,,,,,,,,,,,,,,,,,,,,,,,,,,,,,,,,,,,,0.082407422,-0.101851852,1,0,0,knoi,knoi,0,37,37,22,1,knoe,images/br_knoe.png,images/cb_knoe.png
,,,,,,00074,2023-10-23_17h27.41.439,vbt_B1_day1,2022.2.4,Win32,60.79027356,,,,,,,,,,,,,,,,,,,,,,,,,,,,,,,,,,,,,,,,,,,0.082407422,-0.101851852,1,0,0,stik,stik,0,38,38,42,1,stuk,images/br_stuk.png,images/cb_stuk.png
,,,,,,00074,2023-10-23_17h27.41.439,vbt_B1_day1,2022.2.4,Win32,60.79027356,,,,,,,,,,,,,,,,,,,,,,,,,,,,,,,,,,,,,,,,,,,0.082407422,-0.101851852,1,0,0,lenen,lenen,0,39,39,46,1,lezen,images/br_lezen.png,images/cb_lezen.png
,,,,,,00074,2023-10-23_17h27.41.439,vbt_B1_day1,2022.2.4,Win32,60.79027356,,,,,,,,,,,,,,,,,,,,,,,,,,,,,,,,,,,,,,,,,,,0.002777806,-0.10555557,1,0,0,vijftig,vijftig,0,40,40,54,1,vijftig,images/br_vijftig.png,images/cb_vijftig.png
,,,,,,00074,2023-10-23_17h27.41.439,vbt_B1_day1,2022.2.4,Win32,60.79027356,,,,,,,,,,,,,,,,,,,,,,,,,,,,,,,,,,,,,,,,,,,0.002777806,-0.10555557,1,0,0,rener,rener,0,41,41,24,1,rezer,images/br_rezer.png,images/cb_rezer.png
,,,,,,00074,2023-10-23_17h27.41.439,vbt_B1_day1,2022.2.4,Win32,60.79027356,,,,,,,,,,,,,,,,,,,,,,,,,,,,,,,,,,,,,,,,,,,0.002777806,-0.10555557,1,0,0,t.a.,t.a.,0,42,42,20,1,tars,images/br_tars.png,images/cb_tars.png
,,,,,,00074,2023-10-23_17h27.41.439,vbt_B1_day1,2022.2.4,Win32,60.79027356,,,,,,,,,,,,,,,,,,,,,,,,,,,,,,,,,,,,,,,,,,,0.022222236,-0.124074088,1,0,0,d.ed,d.ed,0,43,43,21,1,dred,images/br_dred.png,images/cb_dred.png
,,,,,,00074,2023-10-23_17h27.41.439,vbt_B1_day1,2022.2.4,Win32,60.79027356,,,,,,,,,,,,,,,,,,,,,,,,,,,,,,,,,,,,,,,,,,,0.022222236,-0.124074088,1,0,0,attentie,attentie,0,44,44,17,1,attentie,images/br_attentie.png,images/cb_attentie.png
,,,,,,00074,2023-10-23_17h27.41.439,vbt_B1_day1,2022.2.4,Win32,60.79027356,,,,,,,,,,,,,,,,,,,,,,,,,,,,,,,,,,,,,,,,,,,0.022222236,-0.124074088,1,0,0,.itdelen,.itdelen,0,45,45,18,1,uitdelen,images/br_uitdelen.png,images/cb_uitdelen.png
,,,,,,00074,2023-10-23_17h27.41.439,vbt_B1_day1,2022.2.4,Win32,60.79027356,,,,,,,,,,,,,,,,,,,,,,,,,,,,,,,,,,,,,,,,,,,0.015740783,-0.118518547,1,0,0,p.o.t,p.o.t,0,46,46,27,1,prort,images/br_prort.png,images/cb_prort.png
,,,,,,00074,2023-10-23_17h27.41.439,vbt_B1_day1,2022.2.4,Win32,60.79027356,,,,,,,,,,,,,,,,,,,,,,,,,,,,,,,,,,,,,,,,,,,0.015740783,-0.118518547,1,0,0,st,st,0,47,47,35,1,stuikem,images/br_stuikem.png,images/cb_stuikem.png
,,,,,,00074,2023-10-23_17h27.41.439,vbt_B1_day1,2022.2.4,Win32,60.79027356,,,,,,,,,,,,,,,,,,,,,,,,,,,,,,,,,,,,,,,,,,,-0.099074046,-0.14907406,1,0,0,.....,.....,0,48,48,31,1,stamen,images/br_stamen.png,images/cb_stamen.png
,,,,,,00074,2023-10-23_17h27.41.439,vbt_B1_day1,2022.2.4,Win32,60.79027356,,,,,,,,,,,,,,,,,,,,,,,,,,,,,,,,,,,,,,,,,,,-0.099074046,-0.14907406,1,0,0,.eene.en,.eene.en,0,49,49,57,1,meenemen,images/br_meenemen.png,images/cb_meenemen.png
,,,,,,00074,2023-10-23_17h27.41.439,vbt_B1_day1,2022.2.4,Win32,60.79027356,,,,,,,,,,,,,,,,,,,,,,,,,,,,,,,,,,,,,,,,,,,-0.013888889,-0.077777792,1,0,0,b.i.k,b.i.k,0,50,50,25,1,brijk,images/br_brijk.png,images/cb_brijk.png
,,,,,,00074,2023-10-23_17h27.41.439,vbt_B1_day1,2022.2.4,Win32,60.79027356,,,,,,,,,,,,,,,,,,,,,,,,,,,,,,,,,,,,,,,,,,,-0.013888889,-0.077777792,1,0,0,sch.elen,sch.elen,0,51,51,19,1,schuilen,images/br_schuilen.png,images/cb_schuilen.png
,,,,,,00074,2023-10-23_17h27.41.439,vbt_B1_day1,2022.2.4,Win32,60.79027356,,,,,,,,,,,,,,,,,,,,,,,,,,,,,,,,,,,,,,,,,,,-0.013888889,-0.077777792,1,0,0,opvatten,opvatten,0,52,52,59,1,opvatten,images/br_opvatten.png,images/cb_opvatten.png
,,,,,,00074,2023-10-23_17h27.41.439,vbt_B1_day1,2022.2.4,Win32,60.79027356,,,,,,,,,,,,,,,,,,,,,,,,,,,,,,,,,,,,,,,,,,,-0.013888889,-0.077777792,1,0,0,twijfel,twijfel,0,53,53,13,1,twijfel,images/br_twijfel.png,images/cb_twijfel.png
,,,,,,00074,2023-10-23_17h27.41.439,vbt_B1_day1,2022.2.4,Win32,60.79027356,,,,,,,,,,,,,,,,,,,,,,,,,,,,,,,,,,,,,,,,,,,-0.013888889,-0.077777792,1,0,0,he.el,he.el,0,54,54,45,1,hemel,images/br_hemel.png,images/cb_hemel.png
,,,,,,00074,2023-10-23_17h27.41.439,vbt_B1_day1,2022.2.4,Win32,60.79027356,,,,,,,,,,,,,,,,,,,,,,,,,,,,,,,,,,,,,,,,,,,-0.013888889,-0.077777792,1,0,0,dubbel,dubbel,0,55,55,9,1,dubbel,images/br_dubbel.png,images/cb_dubbel.png
,,,,,,00074,2023-10-23_17h27.41.439,vbt_B1_day1,2022.2.4,Win32,60.79027356,,,,,,,,,,,,,,,,,,,,,,,,,,,,,,,,,,,,,,,,,,,-0.013888889,-0.077777792,1,0,0,lood.,lood.,0,56,56,47,1,loods,images/br_loods.png,images/cb_loods.png
,,,,,,00074,2023-10-23_17h27.41.439,vbt_B1_day1,2022.2.4,Win32,60.79027356,,,,,,,,,,,,,,,,,,,,,,,,,,,,,,,,,,,,,,,,,,,0,-0.060185185,1,0,0,waarvan,waarvan,0,57,57,14,1,waarvan,images/br_waarvan.png,images/cb_waarvan.png
,,,,,,00074,2023-10-23_17h27.41.439,vbt_B1_day1,2022.2.4,Win32,60.79027356,,,,,,,,,,,,,,,,,,,,,,,,,,,,,,,,,,,,,,,,,,,0.100000028,0.063888868,1,0,0,toozieht,toozieht,0,58,58,56,1,toezicht,images/br_toezicht.png,images/cb_toezicht.png
,,,,,,00074,2023-10-23_17h27.41.439,vbt_B1_day1,2022.2.4,Win32,60.79027356,,,,,,,,,,,,,,,,,,,,,,,,,,,,,,,,,,,,,,,,,,,0.100000028,0.063888868,1,0,0,.ening,.ening,0,59,59,11,1,mening,images/br_mening.png,images/cb_mening.png
,,,,,,00074,2023-10-23_17h27.41.439,vbt_B1_day1,2022.2.4,Win32,60.79027356,,,,,,,,,,,,,,,,,,,,,,,,,,,,,,,,,,,,,,,,,,,,,,,,,,,,,,,,,
