welcome_mouse.x,welcome_mouse.y,welcome_mouse.leftButton,welcome_mouse.midButton,welcome_mouse.rightButton,welcome_mouse.time,"ID",date,expName,psychopyVersion,OS,frameRate,participant,mouse_2.x,mouse_2.y,mouse_2.leftButton,mouse_2.midButton,mouse_2.rightButton,mouse_2.time,mouse_3.x,mouse_3.y,mouse_3.leftButton,mouse_3.midButton,mouse_3.rightButton,mouse_3.time,train_mouse.x,train_mouse.y,train_mouse.leftButton,train_mouse.midButton,train_mouse.rightButton,train_mouse.time,braille_mouse.x,braille_mouse.y,braille_mouse.leftButton,braille_mouse.midButton,braille_mouse.rightButton,braille_mouse.time,trials.thisRepN,trials.thisTrialN,trials.thisN,trials.thisIndex,trials.ran,nlLet,brLet,cbLet,mouse.x,mouse.y,mouse.leftButton,mouse.midButton,mouse.rightButton,testInstr_mouse.x,testInstr_mouse.y,testInstr_mouse.leftButton,testInstr_mouse.midButton,testInstr_mouse.rightButton,test_mouse.x,test_mouse.y,test_mouse.leftButton,test_mouse.midButton,test_mouse.rightButton,test_response.text,testResp,test_loop.thisRepN,test_loop.thisTrialN,test_loop.thisN,test_loop.thisIndex,test_loop.ran,nlWrd,brWrd,cbWrd
-0.146296254,-0.356481481,1,0,0,21.9425,53500,2023-07-19_21h00.44.458,vbt_B1_day1,2022.2.4,Win32,60.15037594,53500,,,,,,,,,,,,,,,,,,,,,,,,,,,,,,,,,,,,,,,,,,,,,,,,,,,,,,,,,
,,,,,,53500,2023-07-19_21h00.44.458,vbt_B1_day1,2022.2.4,Win32,60.15037594,53500,-0.146296254,-0.356481481,1,0,0,8.6808,,,,,,,,,,,,,,,,,,,,,,,,,,,,,,,,,,,,,,,,,,,,,,,,,,,
,,,,,,53500,2023-07-19_21h00.44.458,vbt_B1_day1,2022.2.4,Win32,60.15037594,53500,,,,,,,0.118518547,-0.35092594,1,0,0,20.1319,,,,,,,,,,,,,,,,,,,,,,,,,,,,,,,,,,,,,,,,,,,,,
,,,,,,53500,2023-07-19_21h00.44.458,vbt_B1_day1,2022.2.4,Win32,60.15037594,53500,,,,,,,,,,,,,0.236111111,-0.353703746,1,0,0,3.2801,,,,,,,,,,,,,,,,,,,,,,,,,,,,,,,,,,,,,,,
,,,,,,53500,2023-07-19_21h00.44.458,vbt_B1_day1,2022.2.4,Win32,60.15037594,53500,,,,,,,,,,,,,,,,,,,0.174074102,-0.162037037,1,0,0,11.5334,0,0,0,2,1,c,images/br_c.png,images/cb_c.png,,,,,,,,,,,,,,,,,,,,,,,,,
,,,,,,53500,2023-07-19_21h00.44.458,vbt_B1_day1,2022.2.4,Win32,60.15037594,53500,,,,,,,,,,,,,,,,,,,0.173148191,-0.150925954,1,0,0,3.4504,0,1,1,12,1,m,images/br_m.png,images/cb_m.png,,,,,,,,,,,,,,,,,,,,,,,,,
,,,,,,53500,2023-07-19_21h00.44.458,vbt_B1_day1,2022.2.4,Win32,60.15037594,53500,,,,,,,,,,,,,,,,,,,0.173148191,-0.150925954,1,0,0,17.4838,0,2,2,0,1,a,images/br_a.png,images/cb_a.png,,,,,,,,,,,,,,,,,,,,,,,,,
,,,,,,53500,2023-07-19_21h00.44.458,vbt_B1_day1,2022.2.4,Win32,60.15037594,53500,,,,,,,,,,,,,,,,,,,0.173148191,-0.150925954,1,0,0,5.9836,0,3,3,17,1,r,images/br_r.png,images/cb_r.png,,,,,,,,,,,,,,,,,,,,,,,,,
,,,,,,53500,2023-07-19_21h00.44.458,vbt_B1_day1,2022.2.4,Win32,60.15037594,53500,,,,,,,,,,,,,,,,,,,0.335185157,-0.268518519,1,0,0,21.2843,0,4,4,13,1,n,images/br_n.png,images/cb_n.png,,,,,,,,,,,,,,,,,,,,,,,,,
,,,,,,53500,2023-07-19_21h00.44.458,vbt_B1_day1,2022.2.4,Win32,60.15037594,53500,,,,,,,,,,,,,,,,,,,0.335185157,-0.268518519,1,0,0,10.2169,0,5,5,4,1,e,images/br_e.png,images/cb_e.png,,,,,,,,,,,,,,,,,,,,,,,,,
,,,,,,53500,2023-07-19_21h00.44.458,vbt_B1_day1,2022.2.4,Win32,60.15037594,53500,,,,,,,,,,,,,,,,,,,0.335185157,-0.268518519,1,0,0,6.6836,0,6,6,5,1,f,images/br_f.png,images/cb_f.png,,,,,,,,,,,,,,,,,,,,,,,,,
,,,,,,53500,2023-07-19_21h00.44.458,vbt_B1_day1,2022.2.4,Win32,60.15037594,53500,,,,,,,,,,,,,,,,,,,0.335185157,-0.268518519,1,0,0,10.1335,0,7,7,3,1,d,images/br_d.png,images/cb_d.png,,,,,,,,,,,,,,,,,,,,,,,,,
,,,,,,53500,2023-07-19_21h00.44.458,vbt_B1_day1,2022.2.4,Win32,60.15037594,53500,,,,,,,,,,,,,,,,,,,0.335185157,-0.268518519,1,0,0,5.1836,0,8,8,21,1,v,images/br_v.png,images/cb_v.png,,,,,,,,,,,,,,,,,,,,,,,,,
,,,,,,53500,2023-07-19_21h00.44.458,vbt_B1_day1,2022.2.4,Win32,60.15037594,53500,,,,,,,,,,,,,,,,,,,0.335185157,-0.268518519,1,0,0,4.9005,0,9,9,7,1,h,images/br_h.png,images/cb_h.png,,,,,,,,,,,,,,,,,,,,,,,,,
,,,,,,53500,2023-07-19_21h00.44.458,vbt_B1_day1,2022.2.4,Win32,60.15037594,53500,,,,,,,,,,,,,,,,,,,0.335185157,-0.268518519,1,0,0,10.3671,0,10,10,15,1,p,images/br_p.png,images/cb_p.png,,,,,,,,,,,,,,,,,,,,,,,,,
,,,,,,53500,2023-07-19_21h00.44.458,vbt_B1_day1,2022.2.4,Win32,60.15037594,53500,,,,,,,,,,,,,,,,,,,0.335185157,-0.268518519,1,0,0,9.3332,0,11,11,6,1,g,images/br_g.png,images/cb_g.png,,,,,,,,,,,,,,,,,,,,,,,,,
,,,,,,53500,2023-07-19_21h00.44.458,vbt_B1_day1,2022.2.4,Win32,60.15037594,53500,,,,,,,,,,,,,,,,,,,0.335185157,-0.268518519,1,0,0,9.3,0,12,12,10,1,k,images/br_k.png,images/cb_k.png,,,,,,,,,,,,,,,,,,,,,,,,,
,,,,,,53500,2023-07-19_21h00.44.458,vbt_B1_day1,2022.2.4,Win32,60.15037594,53500,,,,,,,,,,,,,,,,,,,0.335185157,-0.268518519,1,0,0,6.2501,0,13,13,24,1,y,images/br_y.png,images/cb_y.png,,,,,,,,,,,,,,,,,,,,,,,,,
,,,,,,53500,2023-07-19_21h00.44.458,vbt_B1_day1,2022.2.4,Win32,60.15037594,53500,,,,,,,,,,,,,,,,,,,0.335185157,-0.268518519,1,0,0,9.9003,0,14,14,14,1,o,images/br_o.png,images/cb_o.png,,,,,,,,,,,,,,,,,,,,,,,,,
,,,,,,53500,2023-07-19_21h00.44.458,vbt_B1_day1,2022.2.4,Win32,60.15037594,53500,,,,,,,,,,,,,,,,,,,0.335185157,-0.268518519,1,0,0,10.1176,0,15,15,1,1,b,images/br_b.png,images/cb_b.png,,,,,,,,,,,,,,,,,,,,,,,,,
,,,,,,53500,2023-07-19_21h00.44.458,vbt_B1_day1,2022.2.4,Win32,60.15037594,53500,,,,,,,,,,,,,,,,,,,0.285185213,-0.224074116,1,0,0,9.8331,0,16,16,18,1,s,images/br_s.png,images/cb_s.png,,,,,,,,,,,,,,,,,,,,,,,,,
,,,,,,53500,2023-07-19_21h00.44.458,vbt_B1_day1,2022.2.4,Win32,60.15037594,53500,,,,,,,,,,,,,,,,,,,0.285185213,-0.224074116,1,0,0,28.3164,0,17,17,20,1,u,images/br_u.png,images/cb_u.png,,,,,,,,,,,,,,,,,,,,,,,,,
,,,,,,53500,2023-07-19_21h00.44.458,vbt_B1_day1,2022.2.4,Win32,60.15037594,53500,,,,,,,,,,,,,,,,,,,0.285185213,-0.224074116,1,0,0,30.3295,0,18,18,11,1,l,images/br_l.png,images/cb_l.png,,,,,,,,,,,,,,,,,,,,,,,,,
,,,,,,53500,2023-07-19_21h00.44.458,vbt_B1_day1,2022.2.4,Win32,60.15037594,53500,,,,,,,,,,,,,,,,,,,0.285185213,-0.224074116,1,0,0,29.8162,0,19,19,16,1,q,images/br_q.png,images/cb_q.png,,,,,,,,,,,,,,,,,,,,,,,,,
,,,,,,53500,2023-07-19_21h00.44.458,vbt_B1_day1,2022.2.4,Win32,60.15037594,53500,,,,,,,,,,,,,,,,,,,0.285185213,-0.224074116,1,0,0,46.5849,0,20,20,9,1,j,images/br_j.png,images/cb_j.png,,,,,,,,,,,,,,,,,,,,,,,,,
,,,,,,53500,2023-07-19_21h00.44.458,vbt_B1_day1,2022.2.4,Win32,60.15037594,53500,,,,,,,,,,,,,,,,,,,0.285185213,-0.224074116,1,0,0,4.3663,0,21,21,23,1,x,images/br_x.png,images/cb_x.png,,,,,,,,,,,,,,,,,,,,,,,,,
,,,,,,53500,2023-07-19_21h00.44.458,vbt_B1_day1,2022.2.4,Win32,60.15037594,53500,,,,,,,,,,,,,,,,,,,0.285185213,-0.224074116,1,0,0,9.9958,0,22,22,19,1,t,images/br_t.png,images/cb_t.png,,,,,,,,,,,,,,,,,,,,,,,,,
,,,,,,53500,2023-07-19_21h00.44.458,vbt_B1_day1,2022.2.4,Win32,60.15037594,53500,,,,,,,,,,,,,,,,,,,0.285185213,-0.224074116,1,0,0,7.5506,0,23,23,8,1,i,images/br_i.png,images/cb_i.png,,,,,,,,,,,,,,,,,,,,,,,,,
,,,,,,53500,2023-07-19_21h00.44.458,vbt_B1_day1,2022.2.4,Win32,60.15037594,53500,,,,,,,,,,,,,,,,,,,0.285185213,-0.224074116,1,0,0,13.7177,0,24,24,25,1,z,images/br_z.png,images/cb_z.png,,,,,,,,,,,,,,,,,,,,,,,,,
,,,,,,53500,2023-07-19_21h00.44.458,vbt_B1_day1,2022.2.4,Win32,60.15037594,53500,,,,,,,,,,,,,,,,,,,0.375925982,-0.232407393,1,0,0,13.5213,0,25,25,22,1,w,images/br_w.png,images/cb_w.png,,,,,,,,,,,,,,,,,,,,,,,,,
,,,,,,53500,2023-07-19_21h00.44.458,vbt_B1_day1,2022.2.4,Win32,60.15037594,53500,,,,,,,,,,,,,,,,,,,0.375925982,-0.232407393,1,0,0,7.9672,1,0,26,22,1,w,images/br_w.png,images/cb_w.png,,,,,,,,,,,,,,,,,,,,,,,,,
,,,,,,53500,2023-07-19_21h00.44.458,vbt_B1_day1,2022.2.4,Win32,60.15037594,53500,,,,,,,,,,,,,,,,,,,0.375925982,-0.232407393,1,0,0,9.0333,1,1,27,0,1,a,images/br_a.png,images/cb_a.png,,,,,,,,,,,,,,,,,,,,,,,,,
,,,,,,53500,2023-07-19_21h00.44.458,vbt_B1_day1,2022.2.4,Win32,60.15037594,53500,,,,,,,,,,,,,,,,,,,0.375925982,-0.232407393,1,0,0,21.0166,1,2,28,5,1,f,images/br_f.png,images/cb_f.png,,,,,,,,,,,,,,,,,,,,,,,,,
,,,,,,53500,2023-07-19_21h00.44.458,vbt_B1_day1,2022.2.4,Win32,60.15037594,53500,,,,,,,,,,,,,,,,,,,0.375925982,-0.232407393,1,0,0,24.2178,1,3,29,7,1,h,images/br_h.png,images/cb_h.png,,,,,,,,,,,,,,,,,,,,,,,,,
,,,,,,53500,2023-07-19_21h00.44.458,vbt_B1_day1,2022.2.4,Win32,60.15037594,53500,,,,,,,,,,,,,,,,,,,0.375925982,-0.232407393,1,0,0,43.1011,1,4,30,9,1,j,images/br_j.png,images/cb_j.png,,,,,,,,,,,,,,,,,,,,,,,,,
,,,,,,53500,2023-07-19_21h00.44.458,vbt_B1_day1,2022.2.4,Win32,60.15037594,53500,,,,,,,,,,,,,,,,,,,0.25462963,-0.233333376,1,0,0,22.534,1,5,31,25,1,z,images/br_z.png,images/cb_z.png,,,,,,,,,,,,,,,,,,,,,,,,,
,,,,,,53500,2023-07-19_21h00.44.458,vbt_B1_day1,2022.2.4,Win32,60.15037594,53500,,,,,,,,,,,,,,,,,,,0.25462963,-0.233333376,1,0,0,25.2504,1,6,32,24,1,y,images/br_y.png,images/cb_y.png,,,,,,,,,,,,,,,,,,,,,,,,,
,,,,,,53500,2023-07-19_21h00.44.458,vbt_B1_day1,2022.2.4,Win32,60.15037594,53500,,,,,,,,,,,,,,,,,,,0.25462963,-0.233333376,1,0,0,15.0501,1,7,33,16,1,q,images/br_q.png,images/cb_q.png,,,,,,,,,,,,,,,,,,,,,,,,,
,,,,,,53500,2023-07-19_21h00.44.458,vbt_B1_day1,2022.2.4,Win32,60.15037594,53500,,,,,,,,,,,,,,,,,,,0.25462963,-0.233333376,1,0,0,5.7503,1,8,34,15,1,p,images/br_p.png,images/cb_p.png,,,,,,,,,,,,,,,,,,,,,,,,,
,,,,,,53500,2023-07-19_21h00.44.458,vbt_B1_day1,2022.2.4,Win32,60.15037594,53500,,,,,,,,,,,,,,,,,,,0.25462963,-0.233333376,1,0,0,19.7833,1,9,35,19,1,t,images/br_t.png,images/cb_t.png,,,,,,,,,,,,,,,,,,,,,,,,,
,,,,,,53500,2023-07-19_21h00.44.458,vbt_B1_day1,2022.2.4,Win32,60.15037594,53500,,,,,,,,,,,,,,,,,,,0.25462963,-0.233333376,1,0,0,25.4291,1,10,36,4,1,e,images/br_e.png,images/cb_e.png,,,,,,,,,,,,,,,,,,,,,,,,,
,,,,,,53500,2023-07-19_21h00.44.458,vbt_B1_day1,2022.2.4,Win32,60.15037594,53500,,,,,,,,,,,,,,,,,,,0.25462963,-0.233333376,1,0,0,24.2853,1,11,37,17,1,r,images/br_r.png,images/cb_r.png,,,,,,,,,,,,,,,,,,,,,,,,,
,,,,,,53500,2023-07-19_21h00.44.458,vbt_B1_day1,2022.2.4,Win32,60.15037594,53500,,,,,,,,,,,,,,,,,,,0.25462963,-0.233333376,1,0,0,36.3462,1,12,38,12,1,m,images/br_m.png,images/cb_m.png,,,,,,,,,,,,,,,,,,,,,,,,,
,,,,,,53500,2023-07-19_21h00.44.458,vbt_B1_day1,2022.2.4,Win32,60.15037594,53500,,,,,,,,,,,,,,,,,,,0.25462963,-0.233333376,1,0,0,21.5996,1,13,39,21,1,v,images/br_v.png,images/cb_v.png,,,,,,,,,,,,,,,,,,,,,,,,,
,,,,,,53500,2023-07-19_21h00.44.458,vbt_B1_day1,2022.2.4,Win32,60.15037594,53500,,,,,,,,,,,,,,,,,,,0.25462963,-0.233333376,1,0,0,23.284,1,14,40,11,1,l,images/br_l.png,images/cb_l.png,,,,,,,,,,,,,,,,,,,,,,,,,
,,,,,,53500,2023-07-19_21h00.44.458,vbt_B1_day1,2022.2.4,Win32,60.15037594,53500,,,,,,,,,,,,,,,,,,,0.25462963,-0.233333376,1,0,0,25.3526,1,15,41,3,1,d,images/br_d.png,images/cb_d.png,,,,,,,,,,,,,,,,,,,,,,,,,
,,,,,,53500,2023-07-19_21h00.44.458,vbt_B1_day1,2022.2.4,Win32,60.15037594,53500,,,,,,,,,,,,,,,,,,,0.25462963,-0.233333376,1,0,0,13.4122,1,16,42,10,1,k,images/br_k.png,images/cb_k.png,,,,,,,,,,,,,,,,,,,,,,,,,
,,,,,,53500,2023-07-19_21h00.44.458,vbt_B1_day1,2022.2.4,Win32,60.15037594,53500,,,,,,,,,,,,,,,,,,,0.25462963,-0.233333376,1,0,0,27.4687,1,17,43,13,1,n,images/br_n.png,images/cb_n.png,,,,,,,,,,,,,,,,,,,,,,,,,
,,,,,,53500,2023-07-19_21h00.44.458,vbt_B1_day1,2022.2.4,Win32,60.15037594,53500,,,,,,,,,,,,,,,,,,,0.25462963,-0.233333376,1,0,0,18.0969,1,18,44,23,1,x,images/br_x.png,images/cb_x.png,,,,,,,,,,,,,,,,,,,,,,,,,
,,,,,,53500,2023-07-19_21h00.44.458,vbt_B1_day1,2022.2.4,Win32,60.15037594,53500,,,,,,,,,,,,,,,,,,,0.25462963,-0.233333376,1,0,0,21.1127,1,19,45,18,1,s,images/br_s.png,images/cb_s.png,,,,,,,,,,,,,,,,,,,,,,,,,
,,,,,,53500,2023-07-19_21h00.44.458,vbt_B1_day1,2022.2.4,Win32,60.15037594,53500,,,,,,,,,,,,,,,,,,,0.25462963,-0.233333376,1,0,0,27.606,1,20,46,6,1,g,images/br_g.png,images/cb_g.png,,,,,,,,,,,,,,,,,,,,,,,,,
,,,,,,53500,2023-07-19_21h00.44.458,vbt_B1_day1,2022.2.4,Win32,60.15037594,53500,,,,,,,,,,,,,,,,,,,0.25462963,-0.233333376,1,0,0,3.9832,1,21,47,8,1,i,images/br_i.png,images/cb_i.png,,,,,,,,,,,,,,,,,,,,,,,,,
,,,,,,53500,2023-07-19_21h00.44.458,vbt_B1_day1,2022.2.4,Win32,60.15037594,53500,,,,,,,,,,,,,,,,,,,0.25462963,-0.233333376,1,0,0,11.0133,1,22,48,1,1,b,images/br_b.png,images/cb_b.png,,,,,,,,,,,,,,,,,,,,,,,,,
,,,,,,53500,2023-07-19_21h00.44.458,vbt_B1_day1,2022.2.4,Win32,60.15037594,53500,,,,,,,,,,,,,,,,,,,0.25462963,-0.233333376,1,0,0,14.9515,1,23,49,20,1,u,images/br_u.png,images/cb_u.png,,,,,,,,,,,,,,,,,,,,,,,,,
,,,,,,53500,2023-07-19_21h00.44.458,vbt_B1_day1,2022.2.4,Win32,60.15037594,53500,,,,,,,,,,,,,,,,,,,0.25462963,-0.233333376,1,0,0,18.9172,1,24,50,2,1,c,images/br_c.png,images/cb_c.png,,,,,,,,,,,,,,,,,,,,,,,,,
,,,,,,53500,2023-07-19_21h00.44.458,vbt_B1_day1,2022.2.4,Win32,60.15037594,53500,,,,,,,,,,,,,,,,,,,0.25462963,-0.233333376,1,0,0,18.6018,1,25,51,14,1,o,images/br_o.png,images/cb_o.png,,,,,,,,,,,,,,,,,,,,,,,,,
,,,,,,53500,2023-07-19_21h00.44.458,vbt_B1_day1,2022.2.4,Win32,60.15037594,53500,,,,,,,,,,,,,,,,,,,0.253703718,-0.236111111,1,0,0,23.2837,2,0,52,5,1,f,images/br_f.png,images/cb_f.png,,,,,,,,,,,,,,,,,,,,,,,,,
,,,,,,53500,2023-07-19_21h00.44.458,vbt_B1_day1,2022.2.4,Win32,60.15037594,53500,,,,,,,,,,,,,,,,,,,0.253703718,-0.236111111,1,0,0,5.4043,2,1,53,3,1,d,images/br_d.png,images/cb_d.png,,,,,,,,,,,,,,,,,,,,,,,,,
,,,,,,53500,2023-07-19_21h00.44.458,vbt_B1_day1,2022.2.4,Win32,60.15037594,53500,,,,,,,,,,,,,,,,,,,0.207407422,-0.25,1,0,0,17.0507,2,2,54,7,1,h,images/br_h.png,images/cb_h.png,,,,,,,,,,,,,,,,,,,,,,,,,
,,,,,,53500,2023-07-19_21h00.44.458,vbt_B1_day1,2022.2.4,Win32,60.15037594,53500,,,,,,,,,,,,,,,,,,,0.207407422,-0.25,1,0,0,19.6004,2,3,55,2,1,c,images/br_c.png,images/cb_c.png,,,,,,,,,,,,,,,,,,,,,,,,,
,,,,,,53500,2023-07-19_21h00.44.458,vbt_B1_day1,2022.2.4,Win32,60.15037594,53500,,,,,,,,,,,,,,,,,,,0.178703732,-0.368518547,1,0,0,22.6511,2,4,56,25,1,z,images/br_z.png,images/cb_z.png,,,,,,,,,,,,,,,,,,,,,,,,,
,,,,,,53500,2023-07-19_21h00.44.458,vbt_B1_day1,2022.2.4,Win32,60.15037594,53500,,,,,,,,,,,,,,,,,,,0.178703732,-0.367592635,1,0,0,38.9176,2,5,57,24,1,y,images/br_y.png,images/cb_y.png,,,,,,,,,,,,,,,,,,,,,,,,,
,,,,,,53500,2023-07-19_21h00.44.458,vbt_B1_day1,2022.2.4,Win32,60.15037594,53500,,,,,,,,,,,,,,,,,,,0.178703732,-0.367592635,1,0,0,22.5003,2,6,58,13,1,n,images/br_n.png,images/cb_n.png,,,,,,,,,,,,,,,,,,,,,,,,,
,,,,,,53500,2023-07-19_21h00.44.458,vbt_B1_day1,2022.2.4,Win32,60.15037594,53500,,,,,,,,,,,,,,,,,,,0.181481467,-0.367592635,1,0,0,21.8668,2,7,59,8,1,i,images/br_i.png,images/cb_i.png,,,,,,,,,,,,,,,,,,,,,,,,,
,,,,,,53500,2023-07-19_21h00.44.458,vbt_B1_day1,2022.2.4,Win32,60.15037594,53500,,,,,,,,,,,,,,,,,,,0.181481467,-0.367592635,1,0,0,29.0013,2,8,60,23,1,x,images/br_x.png,images/cb_x.png,,,,,,,,,,,,,,,,,,,,,,,,,
,,,,,,53500,2023-07-19_21h00.44.458,vbt_B1_day1,2022.2.4,Win32,60.15037594,53500,,,,,,,,,,,,,,,,,,,0.181481467,-0.367592635,1,0,0,23.4013,2,9,61,21,1,v,images/br_v.png,images/cb_v.png,,,,,,,,,,,,,,,,,,,,,,,,,
,,,,,,53500,2023-07-19_21h00.44.458,vbt_B1_day1,2022.2.4,Win32,60.15037594,53500,,,,,,,,,,,,,,,,,,,0.181481467,-0.367592635,1,0,0,2.5998,2,10,62,17,1,r,images/br_r.png,images/cb_r.png,,,,,,,,,,,,,,,,,,,,,,,,,
,,,,,,53500,2023-07-19_21h00.44.458,vbt_B1_day1,2022.2.4,Win32,60.15037594,53500,,,,,,,,,,,,,,,,,,,0.181481467,-0.367592635,1,0,0,7.3347,2,11,63,6,1,g,images/br_g.png,images/cb_g.png,,,,,,,,,,,,,,,,,,,,,,,,,
,,,,,,53500,2023-07-19_21h00.44.458,vbt_B1_day1,2022.2.4,Win32,60.15037594,53500,,,,,,,,,,,,,,,,,,,0.181481467,-0.367592635,1,0,0,1.4,2,12,64,16,1,q,images/br_q.png,images/cb_q.png,,,,,,,,,,,,,,,,,,,,,,,,,
,,,,,,53500,2023-07-19_21h00.44.458,vbt_B1_day1,2022.2.4,Win32,60.15037594,53500,,,,,,,,,,,,,,,,,,,0.181481467,-0.367592635,1,0,0,7.9453,2,13,65,12,1,m,images/br_m.png,images/cb_m.png,,,,,,,,,,,,,,,,,,,,,,,,,
,,,,,,53500,2023-07-19_21h00.44.458,vbt_B1_day1,2022.2.4,Win32,60.15037594,53500,,,,,,,,,,,,,,,,,,,0.181481467,-0.367592635,1,0,0,11.2113,2,14,66,9,1,j,images/br_j.png,images/cb_j.png,,,,,,,,,,,,,,,,,,,,,,,,,
,,,,,,53500,2023-07-19_21h00.44.458,vbt_B1_day1,2022.2.4,Win32,60.15037594,53500,,,,,,,,,,,,,,,,,,,0.132407436,-0.183333362,1,0,0,3.2834,2,15,67,11,1,l,images/br_l.png,images/cb_l.png,,,,,,,,,,,,,,,,,,,,,,,,,
,,,,,,53500,2023-07-19_21h00.44.458,vbt_B1_day1,2022.2.4,Win32,60.15037594,53500,,,,,,,,,,,,,,,,,,,0.132407436,-0.183333362,1,0,0,6.5666,2,16,68,1,1,b,images/br_b.png,images/cb_b.png,,,,,,,,,,,,,,,,,,,,,,,,,
,,,,,,53500,2023-07-19_21h00.44.458,vbt_B1_day1,2022.2.4,Win32,60.15037594,53500,,,,,,,,,,,,,,,,,,,0.135185171,-0.183333362,1,0,0,0.8677,2,17,69,4,1,e,images/br_e.png,images/cb_e.png,,,,,,,,,,,,,,,,,,,,,,,,,
,,,,,,53500,2023-07-19_21h00.44.458,vbt_B1_day1,2022.2.4,Win32,60.15037594,53500,,,,,,,,,,,,,,,,,,,0.135185171,-0.183333362,1,0,0,1.334,2,18,70,19,1,t,images/br_t.png,images/cb_t.png,,,,,,,,,,,,,,,,,,,,,,,,,
,,,,,,53500,2023-07-19_21h00.44.458,vbt_B1_day1,2022.2.4,Win32,60.15037594,53500,,,,,,,,,,,,,,,,,,,0.135185171,-0.183333362,1,0,0,7.8392,2,19,71,10,1,k,images/br_k.png,images/cb_k.png,,,,,,,,,,,,,,,,,,,,,,,,,
,,,,,,53500,2023-07-19_21h00.44.458,vbt_B1_day1,2022.2.4,Win32,60.15037594,53500,,,,,,,,,,,,,,,,,,,0.138888889,-0.190740727,1,0,0,8.4504,2,20,72,18,1,s,images/br_s.png,images/cb_s.png,,,,,,,,,,,,,,,,,,,,,,,,,
,,,,,,53500,2023-07-19_21h00.44.458,vbt_B1_day1,2022.2.4,Win32,60.15037594,53500,,,,,,,,,,,,,,,,,,,0.138888889,-0.190740727,1,0,0,12.0387,2,21,73,20,1,u,images/br_u.png,images/cb_u.png,,,,,,,,,,,,,,,,,,,,,,,,,
,,,,,,53500,2023-07-19_21h00.44.458,vbt_B1_day1,2022.2.4,Win32,60.15037594,53500,,,,,,,,,,,,,,,,,,,0.138888889,-0.190740727,1,0,0,15.9666,2,22,74,14,1,o,images/br_o.png,images/cb_o.png,,,,,,,,,,,,,,,,,,,,,,,,,
,,,,,,53500,2023-07-19_21h00.44.458,vbt_B1_day1,2022.2.4,Win32,60.15037594,53500,,,,,,,,,,,,,,,,,,,0.138888889,-0.190740727,1,0,0,12.7336,2,23,75,22,1,w,images/br_w.png,images/cb_w.png,,,,,,,,,,,,,,,,,,,,,,,,,
,,,,,,53500,2023-07-19_21h00.44.458,vbt_B1_day1,2022.2.4,Win32,60.15037594,53500,,,,,,,,,,,,,,,,,,,0.138888889,-0.190740727,1,0,0,2.4836,2,24,76,15,1,p,images/br_p.png,images/cb_p.png,,,,,,,,,,,,,,,,,,,,,,,,,
,,,,,,53500,2023-07-19_21h00.44.458,vbt_B1_day1,2022.2.4,Win32,60.15037594,53500,,,,,,,,,,,,,,,,,,,0.137037065,-0.20648151,1,0,0,1.3884,2,25,77,0,1,a,images/br_a.png,images/cb_a.png,,,,,,,,,,,,,,,,,,,,,,,,,
,,,,,,53500,2023-07-19_21h00.44.458,vbt_B1_day1,2022.2.4,Win32,60.15037594,53500,,,,,,,,,,,,,,,,,,,0.137037065,-0.20648151,1,0,0,9.7833,3,0,78,6,1,g,images/br_g.png,images/cb_g.png,,,,,,,,,,,,,,,,,,,,,,,,,
,,,,,,53500,2023-07-19_21h00.44.458,vbt_B1_day1,2022.2.4,Win32,60.15037594,53500,,,,,,,,,,,,,,,,,,,0.125925912,-0.193518533,1,0,0,7.9833,3,1,79,22,1,w,images/br_w.png,images/cb_w.png,,,,,,,,,,,,,,,,,,,,,,,,,
,,,,,,53500,2023-07-19_21h00.44.458,vbt_B1_day1,2022.2.4,Win32,60.15037594,53500,,,,,,,,,,,,,,,,,,,0.125925912,-0.193518533,1,0,0,10.9853,3,2,80,20,1,u,images/br_u.png,images/cb_u.png,,,,,,,,,,,,,,,,,,,,,,,,,
,,,,,,53500,2023-07-19_21h00.44.458,vbt_B1_day1,2022.2.4,Win32,60.15037594,53500,,,,,,,,,,,,,,,,,,,0.275925954,-0.287037037,1,0,0,11.9338,3,3,81,9,1,j,images/br_j.png,images/cb_j.png,,,,,,,,,,,,,,,,,,,,,,,,,
,,,,,,53500,2023-07-19_21h00.44.458,vbt_B1_day1,2022.2.4,Win32,60.15037594,53500,,,,,,,,,,,,,,,,,,,0.283333319,-0.290740755,1,0,0,21.6175,3,4,82,4,1,e,images/br_e.png,images/cb_e.png,,,,,,,,,,,,,,,,,,,,,,,,,
,,,,,,53500,2023-07-19_21h00.44.458,vbt_B1_day1,2022.2.4,Win32,60.15037594,53500,,,,,,,,,,,,,,,,,,,0.283333319,-0.290740755,1,0,0,8.9834,3,5,83,24,1,y,images/br_y.png,images/cb_y.png,,,,,,,,,,,,,,,,,,,,,,,,,
,,,,,,53500,2023-07-19_21h00.44.458,vbt_B1_day1,2022.2.4,Win32,60.15037594,53500,,,,,,,,,,,,,,,,,,,0.285185213,-0.292592578,1,0,0,12.5335,3,6,84,21,1,v,images/br_v.png,images/cb_v.png,,,,,,,,,,,,,,,,,,,,,,,,,
,,,,,,53500,2023-07-19_21h00.44.458,vbt_B1_day1,2022.2.4,Win32,60.15037594,53500,,,,,,,,,,,,,,,,,,,0.285185213,-0.292592578,1,0,0,1.6836,3,7,85,0,1,a,images/br_a.png,images/cb_a.png,,,,,,,,,,,,,,,,,,,,,,,,,
,,,,,,53500,2023-07-19_21h00.44.458,vbt_B1_day1,2022.2.4,Win32,60.15037594,53500,,,,,,,,,,,,,,,,,,,0.285185213,-0.292592578,1,0,0,16.8165,3,8,86,25,1,z,images/br_z.png,images/cb_z.png,,,,,,,,,,,,,,,,,,,,,,,,,
,,,,,,53500,2023-07-19_21h00.44.458,vbt_B1_day1,2022.2.4,Win32,60.15037594,53500,,,,,,,,,,,,,,,,,,,0.285185213,-0.292592578,1,0,0,19.4003,3,9,87,12,1,m,images/br_m.png,images/cb_m.png,,,,,,,,,,,,,,,,,,,,,,,,,
,,,,,,53500,2023-07-19_21h00.44.458,vbt_B1_day1,2022.2.4,Win32,60.15037594,53500,,,,,,,,,,,,,,,,,,,0.285185213,-0.292592578,1,0,0,18.6676,3,10,88,7,1,h,images/br_h.png,images/cb_h.png,,,,,,,,,,,,,,,,,,,,,,,,,
,,,,,,53500,2023-07-19_21h00.44.458,vbt_B1_day1,2022.2.4,Win32,60.15037594,53500,,,,,,,,,,,,,,,,,,,0.288888931,-0.295370384,1,0,0,15.0006,3,11,89,14,1,o,images/br_o.png,images/cb_o.png,,,,,,,,,,,,,,,,,,,,,,,,,
,,,,,,53500,2023-07-19_21h00.44.458,vbt_B1_day1,2022.2.4,Win32,60.15037594,53500,,,,,,,,,,,,,,,,,,,0.288888931,-0.300000014,1,0,0,28.3176,3,12,90,13,1,n,images/br_n.png,images/cb_n.png,,,,,,,,,,,,,,,,,,,,,,,,,
,,,,,,53500,2023-07-19_21h00.44.458,vbt_B1_day1,2022.2.4,Win32,60.15037594,53500,,,,,,,,,,,,,,,,,,,0.288888931,-0.300000014,1,0,0,23.5991,3,13,91,18,1,s,images/br_s.png,images/cb_s.png,,,,,,,,,,,,,,,,,,,,,,,,,
,,,,,,53500,2023-07-19_21h00.44.458,vbt_B1_day1,2022.2.4,Win32,60.15037594,53500,,,,,,,,,,,,,,,,,,,0.288888931,-0.300000014,1,0,0,6.1503,3,14,92,5,1,f,images/br_f.png,images/cb_f.png,,,,,,,,,,,,,,,,,,,,,,,,,
,,,,,,53500,2023-07-19_21h00.44.458,vbt_B1_day1,2022.2.4,Win32,60.15037594,53500,,,,,,,,,,,,,,,,,,,0.288888931,-0.300000014,1,0,0,0.9,3,15,93,15,1,p,images/br_p.png,images/cb_p.png,,,,,,,,,,,,,,,,,,,,,,,,,
,,,,,,53500,2023-07-19_21h00.44.458,vbt_B1_day1,2022.2.4,Win32,60.15037594,53500,,,,,,,,,,,,,,,,,,,0.119444459,-0.247222265,1,0,0,1.6307,3,16,94,19,1,t,images/br_t.png,images/cb_t.png,,,,,,,,,,,,,,,,,,,,,,,,,
,,,,,,53500,2023-07-19_21h00.44.458,vbt_B1_day1,2022.2.4,Win32,60.15037594,53500,,,,,,,,,,,,,,,,,,,-0.032407407,-0.133333347,1,0,0,2.8668,3,17,95,2,1,c,images/br_c.png,images/cb_c.png,,,,,,,,,,,,,,,,,,,,,,,,,
,,,,,,53500,2023-07-19_21h00.44.458,vbt_B1_day1,2022.2.4,Win32,60.15037594,53500,,,,,,,,,,,,,,,,,,,-0.032407407,-0.133333347,1,0,0,2.4329,3,18,96,23,1,x,images/br_x.png,images/cb_x.png,,,,,,,,,,,,,,,,,,,,,,,,,
,,,,,,53500,2023-07-19_21h00.44.458,vbt_B1_day1,2022.2.4,Win32,60.15037594,53500,,,,,,,,,,,,,,,,,,,-0.032407407,-0.133333347,1,0,0,1.783,3,19,97,17,1,r,images/br_r.png,images/cb_r.png,,,,,,,,,,,,,,,,,,,,,,,,,
,,,,,,53500,2023-07-19_21h00.44.458,vbt_B1_day1,2022.2.4,Win32,60.15037594,53500,,,,,,,,,,,,,,,,,,,-0.032407407,-0.133333347,1,0,0,0.9917,3,20,98,8,1,i,images/br_i.png,images/cb_i.png,,,,,,,,,,,,,,,,,,,,,,,,,
,,,,,,53500,2023-07-19_21h00.44.458,vbt_B1_day1,2022.2.4,Win32,60.15037594,53500,,,,,,,,,,,,,,,,,,,-0.032407407,-0.133333347,1,0,0,0.3618,3,21,99,16,1,q,images/br_q.png,images/cb_q.png,,,,,,,,,,,,,,,,,,,,,,,,,
,,,,,,53500,2023-07-19_21h00.44.458,vbt_B1_day1,2022.2.4,Win32,60.15037594,53500,,,,,,,,,,,,,,,,,,,-0.032407407,-0.133333347,1,0,0,7.7626,3,22,100,3,1,d,images/br_d.png,images/cb_d.png,,,,,,,,,,,,,,,,,,,,,,,,,
,,,,,,53500,2023-07-19_21h00.44.458,vbt_B1_day1,2022.2.4,Win32,60.15037594,53500,,,,,,,,,,,,,,,,,,,-0.032407407,-0.133333347,1,0,0,9.3179,3,23,101,1,1,b,images/br_b.png,images/cb_b.png,,,,,,,,,,,,,,,,,,,,,,,,,
,,,,,,53500,2023-07-19_21h00.44.458,vbt_B1_day1,2022.2.4,Win32,60.15037594,53500,,,,,,,,,,,,,,,,,,,0.027777778,-0.150925954,1,0,0,1.273,3,24,102,11,1,l,images/br_l.png,images/cb_l.png,,,,,,,,,,,,,,,,,,,,,,,,,
,,,,,,53500,2023-07-19_21h00.44.458,vbt_B1_day1,2022.2.4,Win32,60.15037594,53500,,,,,,,,,,,,,,,,,,,0.027777778,-0.150925954,1,0,0,3.2056,3,25,103,10,1,k,images/br_k.png,images/cb_k.png,,,,,,,,,,,,,,,,,,,,,,,,,
,,,,,,53500,2023-07-19_21h00.44.458,vbt_B1_day1,2022.2.4,Win32,60.15037594,53500,,,,,,,,,,,,,,,,,,,0.050925926,-0.20185188,1,0,0,0.5502,4,0,104,16,1,q,images/br_q.png,images/cb_q.png,,,,,,,,,,,,,,,,,,,,,,,,,
,,,,,,53500,2023-07-19_21h00.44.458,vbt_B1_day1,2022.2.4,Win32,60.15037594,53500,,,,,,,,,,,,,,,,,,,0.080555598,-0.139814801,1,0,0,1.7383,4,1,105,11,1,l,images/br_l.png,images/cb_l.png,,,,,,,,,,,,,,,,,,,,,,,,,
,,,,,,53500,2023-07-19_21h00.44.458,vbt_B1_day1,2022.2.4,Win32,60.15037594,53500,,,,,,,,,,,,,,,,,,,0.080555598,-0.139814801,1,0,0,5.3675,4,2,106,20,1,u,images/br_u.png,images/cb_u.png,,,,,,,,,,,,,,,,,,,,,,,,,
,,,,,,53500,2023-07-19_21h00.44.458,vbt_B1_day1,2022.2.4,Win32,60.15037594,53500,,,,,,,,,,,,,,,,,,,0.080555598,-0.139814801,1,0,0,8.0508,4,3,107,18,1,s,images/br_s.png,images/cb_s.png,,,,,,,,,,,,,,,,,,,,,,,,,
,,,,,,53500,2023-07-19_21h00.44.458,vbt_B1_day1,2022.2.4,Win32,60.15037594,53500,,,,,,,,,,,,,,,,,,,0.17777782,-0.218518504,1,0,0,2.1831,4,4,108,23,1,x,images/br_x.png,images/cb_x.png,,,,,,,,,,,,,,,,,,,,,,,,,
,,,,,,53500,2023-07-19_21h00.44.458,vbt_B1_day1,2022.2.4,Win32,60.15037594,53500,,,,,,,,,,,,,,,,,,,0.087037051,-0.198148162,1,0,0,0.2004,4,5,109,19,1,t,images/br_t.png,images/cb_t.png,,,,,,,,,,,,,,,,,,,,,,,,,
,,,,,,53500,2023-07-19_21h00.44.458,vbt_B1_day1,2022.2.4,Win32,60.15037594,53500,,,,,,,,,,,,,,,,,,,0.093518504,-0.242592635,1,0,0,0.7334,4,6,110,4,1,e,images/br_e.png,images/cb_e.png,,,,,,,,,,,,,,,,,,,,,,,,,
,,,,,,53500,2023-07-19_21h00.44.458,vbt_B1_day1,2022.2.4,Win32,60.15037594,53500,,,,,,,,,,,,,,,,,,,0.093518504,-0.242592635,1,0,0,9.9563,4,7,111,6,1,g,images/br_g.png,images/cb_g.png,,,,,,,,,,,,,,,,,,,,,,,,,
,,,,,,53500,2023-07-19_21h00.44.458,vbt_B1_day1,2022.2.4,Win32,60.15037594,53500,,,,,,,,,,,,,,,,,,,0.093518504,-0.242592635,1,0,0,0.2893,4,8,112,17,1,r,images/br_r.png,images/cb_r.png,,,,,,,,,,,,,,,,,,,,,,,,,
,,,,,,53500,2023-07-19_21h00.44.458,vbt_B1_day1,2022.2.4,Win32,60.15037594,53500,,,,,,,,,,,,,,,,,,,0.093518504,-0.242592635,1,0,0,9.7508,4,9,113,24,1,y,images/br_y.png,images/cb_y.png,,,,,,,,,,,,,,,,,,,,,,,,,
,,,,,,53500,2023-07-19_21h00.44.458,vbt_B1_day1,2022.2.4,Win32,60.15037594,53500,,,,,,,,,,,,,,,,,,,0.093518504,-0.242592635,1,0,0,4.7012,4,10,114,2,1,c,images/br_c.png,images/cb_c.png,,,,,,,,,,,,,,,,,,,,,,,,,
,,,,,,53500,2023-07-19_21h00.44.458,vbt_B1_day1,2022.2.4,Win32,60.15037594,53500,,,,,,,,,,,,,,,,,,,0.093518504,-0.242592635,1,0,0,10.9555,4,11,115,25,1,z,images/br_z.png,images/cb_z.png,,,,,,,,,,,,,,,,,,,,,,,,,
,,,,,,53500,2023-07-19_21h00.44.458,vbt_B1_day1,2022.2.4,Win32,60.15037594,53500,,,,,,,,,,,,,,,,,,,0.093518504,-0.242592635,1,0,0,7.8167,4,12,116,7,1,h,images/br_h.png,images/cb_h.png,,,,,,,,,,,,,,,,,,,,,,,,,
,,,,,,53500,2023-07-19_21h00.44.458,vbt_B1_day1,2022.2.4,Win32,60.15037594,53500,,,,,,,,,,,,,,,,,,,0.093518504,-0.242592635,1,0,0,1.4553,4,13,117,8,1,i,images/br_i.png,images/cb_i.png,,,,,,,,,,,,,,,,,,,,,,,,,
,,,,,,53500,2023-07-19_21h00.44.458,vbt_B1_day1,2022.2.4,Win32,60.15037594,53500,,,,,,,,,,,,,,,,,,,0.093518504,-0.242592635,1,0,0,8.9386,4,14,118,22,1,w,images/br_w.png,images/cb_w.png,,,,,,,,,,,,,,,,,,,,,,,,,
,,,,,,53500,2023-07-19_21h00.44.458,vbt_B1_day1,2022.2.4,Win32,60.15037594,53500,,,,,,,,,,,,,,,,,,,0.093518504,-0.242592635,1,0,0,7.8003,4,15,119,5,1,f,images/br_f.png,images/cb_f.png,,,,,,,,,,,,,,,,,,,,,,,,,
,,,,,,53500,2023-07-19_21h00.44.458,vbt_B1_day1,2022.2.4,Win32,60.15037594,53500,,,,,,,,,,,,,,,,,,,0.093518504,-0.242592635,1,0,0,7.5505,4,16,120,12,1,m,images/br_m.png,images/cb_m.png,,,,,,,,,,,,,,,,,,,,,,,,,
,,,,,,53500,2023-07-19_21h00.44.458,vbt_B1_day1,2022.2.4,Win32,60.15037594,53500,,,,,,,,,,,,,,,,,,,0.093518504,-0.242592635,1,0,0,8.7382,4,17,121,14,1,o,images/br_o.png,images/cb_o.png,,,,,,,,,,,,,,,,,,,,,,,,,
,,,,,,53500,2023-07-19_21h00.44.458,vbt_B1_day1,2022.2.4,Win32,60.15037594,53500,,,,,,,,,,,,,,,,,,,0.093518504,-0.242592635,1,0,0,6.3462,4,18,122,13,1,n,images/br_n.png,images/cb_n.png,,,,,,,,,,,,,,,,,,,,,,,,,
,,,,,,53500,2023-07-19_21h00.44.458,vbt_B1_day1,2022.2.4,Win32,60.15037594,53500,,,,,,,,,,,,,,,,,,,0.093518504,-0.242592635,1,0,0,4.268,4,19,123,3,1,d,images/br_d.png,images/cb_d.png,,,,,,,,,,,,,,,,,,,,,,,,,
,,,,,,53500,2023-07-19_21h00.44.458,vbt_B1_day1,2022.2.4,Win32,60.15037594,53500,,,,,,,,,,,,,,,,,,,0.093518504,-0.242592635,1,0,0,3.7336,4,20,124,15,1,p,images/br_p.png,images/cb_p.png,,,,,,,,,,,,,,,,,,,,,,,,,
,,,,,,53500,2023-07-19_21h00.44.458,vbt_B1_day1,2022.2.4,Win32,60.15037594,53500,,,,,,,,,,,,,,,,,,,0.093518504,-0.242592635,1,0,0,15.8219,4,21,125,9,1,j,images/br_j.png,images/cb_j.png,,,,,,,,,,,,,,,,,,,,,,,,,
,,,,,,53500,2023-07-19_21h00.44.458,vbt_B1_day1,2022.2.4,Win32,60.15037594,53500,,,,,,,,,,,,,,,,,,,0.093518504,-0.242592635,1,0,0,7.1676,4,22,126,0,1,a,images/br_a.png,images/cb_a.png,,,,,,,,,,,,,,,,,,,,,,,,,
,,,,,,53500,2023-07-19_21h00.44.458,vbt_B1_day1,2022.2.4,Win32,60.15037594,53500,,,,,,,,,,,,,,,,,,,0.180555556,-0.200925968,1,0,0,11.8164,4,23,127,21,1,v,images/br_v.png,images/cb_v.png,,,,,,,,,,,,,,,,,,,,,,,,,
,,,,,,53500,2023-07-19_21h00.44.458,vbt_B1_day1,2022.2.4,Win32,60.15037594,53500,,,,,,,,,,,,,,,,,,,0.180555556,-0.200925968,1,0,0,18.6668,4,24,128,1,1,b,images/br_b.png,images/cb_b.png,,,,,,,,,,,,,,,,,,,,,,,,,
,,,,,,53500,2023-07-19_21h00.44.458,vbt_B1_day1,2022.2.4,Win32,60.15037594,53500,,,,,,,,,,,,,,,,,,,0.180555556,-0.200925968,1,0,0,10.1674,4,25,129,10,1,k,images/br_k.png,images/cb_k.png,,,,,,,,,,,,,,,,,,,,,,,,,
,,,,,,53500,2023-07-19_21h00.44.458,vbt_B1_day1,2022.2.4,Win32,60.15037594,53500,,,,,,,,,,,,,,,,,,,0.180555556,-0.200925968,1,0,0,10.3835,5,0,130,12,1,m,images/br_m.png,images/cb_m.png,,,,,,,,,,,,,,,,,,,,,,,,,
,,,,,,53500,2023-07-19_21h00.44.458,vbt_B1_day1,2022.2.4,Win32,60.15037594,53500,,,,,,,,,,,,,,,,,,,0.180555556,-0.200925968,1,0,0,12.1625,5,1,131,2,1,c,images/br_c.png,images/cb_c.png,,,,,,,,,,,,,,,,,,,,,,,,,
,,,,,,53500,2023-07-19_21h00.44.458,vbt_B1_day1,2022.2.4,Win32,60.15037594,53500,,,,,,,,,,,,,,,,,,,0.10092594,-0.226851852,1,0,0,0.1119,5,2,132,17,1,r,images/br_r.png,images/cb_r.png,,,,,,,,,,,,,,,,,,,,,,,,,
,,,,,,53500,2023-07-19_21h00.44.458,vbt_B1_day1,2022.2.4,Win32,60.15037594,53500,,,,,,,,,,,,,,,,,,,0.100000028,-0.226851852,1,0,0,7.5674,5,3,133,24,1,y,images/br_y.png,images/cb_y.png,,,,,,,,,,,,,,,,,,,,,,,,,
,,,,,,53500,2023-07-19_21h00.44.458,vbt_B1_day1,2022.2.4,Win32,60.15037594,53500,,,,,,,,,,,,,,,,,,,0.165740755,-0.133333347,1,0,0,0.6997,5,4,134,23,1,x,images/br_x.png,images/cb_x.png,,,,,,,,,,,,,,,,,,,,,,,,,
,,,,,,53500,2023-07-19_21h00.44.458,vbt_B1_day1,2022.2.4,Win32,60.15037594,53500,,,,,,,,,,,,,,,,,,,0.165740755,-0.133333347,1,0,0,0.3557,5,5,135,21,1,v,images/br_v.png,images/cb_v.png,,,,,,,,,,,,,,,,,,,,,,,,,
,,,,,,53500,2023-07-19_21h00.44.458,vbt_B1_day1,2022.2.4,Win32,60.15037594,53500,,,,,,,,,,,,,,,,,,,0.165740755,-0.133333347,1,0,0,6.0669,5,6,136,7,1,h,images/br_h.png,images/cb_h.png,,,,,,,,,,,,,,,,,,,,,,,,,
,,,,,,53500,2023-07-19_21h00.44.458,vbt_B1_day1,2022.2.4,Win32,60.15037594,53500,,,,,,,,,,,,,,,,,,,0.138888889,-0.170370384,1,0,0,0.3997,5,7,137,10,1,k,images/br_k.png,images/cb_k.png,,,,,,,,,,,,,,,,,,,,,,,,,
,,,,,,53500,2023-07-19_21h00.44.458,vbt_B1_day1,2022.2.4,Win32,60.15037594,53500,,,,,,,,,,,,,,,,,,,0.138888889,-0.170370384,1,0,0,3.8055,5,8,138,18,1,s,images/br_s.png,images/cb_s.png,,,,,,,,,,,,,,,,,,,,,,,,,
,,,,,,53500,2023-07-19_21h00.44.458,vbt_B1_day1,2022.2.4,Win32,60.15037594,53500,,,,,,,,,,,,,,,,,,,0.138888889,-0.170370384,1,0,0,6.1958,5,9,139,3,1,d,images/br_d.png,images/cb_d.png,,,,,,,,,,,,,,,,,,,,,,,,,
,,,,,,53500,2023-07-19_21h00.44.458,vbt_B1_day1,2022.2.4,Win32,60.15037594,53500,,,,,,,,,,,,,,,,,,,0.138888889,-0.170370384,1,0,0,0.2452,5,10,140,15,1,p,images/br_p.png,images/cb_p.png,,,,,,,,,,,,,,,,,,,,,,,,,
,,,,,,53500,2023-07-19_21h00.44.458,vbt_B1_day1,2022.2.4,Win32,60.15037594,53500,,,,,,,,,,,,,,,,,,,0.138888889,-0.170370384,1,0,0,0.4502,5,11,141,8,1,i,images/br_i.png,images/cb_i.png,,,,,,,,,,,,,,,,,,,,,,,,,
,,,,,,53500,2023-07-19_21h00.44.458,vbt_B1_day1,2022.2.4,Win32,60.15037594,53500,,,,,,,,,,,,,,,,,,,0.138888889,-0.170370384,1,0,0,3.1493,5,12,142,6,1,g,images/br_g.png,images/cb_g.png,,,,,,,,,,,,,,,,,,,,,,,,,
,,,,,,53500,2023-07-19_21h00.44.458,vbt_B1_day1,2022.2.4,Win32,60.15037594,53500,,,,,,,,,,,,,,,,,,,0.138888889,-0.170370384,1,0,0,0.2661,5,13,143,0,1,a,images/br_a.png,images/cb_a.png,,,,,,,,,,,,,,,,,,,,,,,,,
,,,,,,53500,2023-07-19_21h00.44.458,vbt_B1_day1,2022.2.4,Win32,60.15037594,53500,,,,,,,,,,,,,,,,,,,0.138888889,-0.170370384,1,0,0,0.6336,5,14,144,16,1,q,images/br_q.png,images/cb_q.png,,,,,,,,,,,,,,,,,,,,,,,,,
,,,,,,53500,2023-07-19_21h00.44.458,vbt_B1_day1,2022.2.4,Win32,60.15037594,53500,,,,,,,,,,,,,,,,,,,0.138888889,-0.170370384,1,0,0,1.4672,5,15,145,19,1,t,images/br_t.png,images/cb_t.png,,,,,,,,,,,,,,,,,,,,,,,,,
,,,,,,53500,2023-07-19_21h00.44.458,vbt_B1_day1,2022.2.4,Win32,60.15037594,53500,,,,,,,,,,,,,,,,,,,0.138888889,-0.170370384,1,0,0,5.6671,5,16,146,1,1,b,images/br_b.png,images/cb_b.png,,,,,,,,,,,,,,,,,,,,,,,,,
,,,,,,53500,2023-07-19_21h00.44.458,vbt_B1_day1,2022.2.4,Win32,60.15037594,53500,,,,,,,,,,,,,,,,,,,0.119444459,-0.101851852,1,0,0,1.9173,5,17,147,11,1,l,images/br_l.png,images/cb_l.png,,,,,,,,,,,,,,,,,,,,,,,,,
,,,,,,53500,2023-07-19_21h00.44.458,vbt_B1_day1,2022.2.4,Win32,60.15037594,53500,,,,,,,,,,,,,,,,,,,0.119444459,-0.101851852,1,0,0,2.0215,5,18,148,5,1,f,images/br_f.png,images/cb_f.png,,,,,,,,,,,,,,,,,,,,,,,,,
,,,,,,53500,2023-07-19_21h00.44.458,vbt_B1_day1,2022.2.4,Win32,60.15037594,53500,,,,,,,,,,,,,,,,,,,0.119444459,-0.101851852,1,0,0,6.6213,5,19,149,22,1,w,images/br_w.png,images/cb_w.png,,,,,,,,,,,,,,,,,,,,,,,,,
,,,,,,53500,2023-07-19_21h00.44.458,vbt_B1_day1,2022.2.4,Win32,60.15037594,53500,,,,,,,,,,,,,,,,,,,0.119444459,-0.101851852,1,0,0,7.0834,5,20,150,25,1,z,images/br_z.png,images/cb_z.png,,,,,,,,,,,,,,,,,,,,,,,,,
,,,,,,53500,2023-07-19_21h00.44.458,vbt_B1_day1,2022.2.4,Win32,60.15037594,53500,,,,,,,,,,,,,,,,,,,0.119444459,-0.101851852,1,0,0,3.6056,5,21,151,14,1,o,images/br_o.png,images/cb_o.png,,,,,,,,,,,,,,,,,,,,,,,,,
,,,,,,53500,2023-07-19_21h00.44.458,vbt_B1_day1,2022.2.4,Win32,60.15037594,53500,,,,,,,,,,,,,,,,,,,0.119444459,-0.101851852,1,0,0,6.4392,5,22,152,20,1,u,images/br_u.png,images/cb_u.png,,,,,,,,,,,,,,,,,,,,,,,,,
,,,,,,53500,2023-07-19_21h00.44.458,vbt_B1_day1,2022.2.4,Win32,60.15037594,53500,,,,,,,,,,,,,,,,,,,0.119444459,-0.101851852,1,0,0,2.3224,5,23,153,13,1,n,images/br_n.png,images/cb_n.png,,,,,,,,,,,,,,,,,,,,,,,,,
,,,,,,53500,2023-07-19_21h00.44.458,vbt_B1_day1,2022.2.4,Win32,60.15037594,53500,,,,,,,,,,,,,,,,,,,0.119444459,-0.101851852,1,0,0,3.6445,5,24,154,9,1,j,images/br_j.png,images/cb_j.png,,,,,,,,,,,,,,,,,,,,,,,,,
,,,,,,53500,2023-07-19_21h00.44.458,vbt_B1_day1,2022.2.4,Win32,60.15037594,53500,,,,,,,,,,,,,,,,,,,0.119444459,-0.101851852,1,0,0,0.1001,5,25,155,4,1,e,images/br_e.png,images/cb_e.png,,,,,,,,,,,,,,,,,,,,,,,,,
,,,,,,53500,2023-07-19_21h00.44.458,vbt_B1_day1,2022.2.4,Win32,60.15037594,53500,,,,,,,,,,,,,,,,,,,0.119444459,-0.101851852,1,0,0,2.7122,6,0,156,25,1,z,images/br_z.png,images/cb_z.png,,,,,,,,,,,,,,,,,,,,,,,,,
,,,,,,53500,2023-07-19_21h00.44.458,vbt_B1_day1,2022.2.4,Win32,60.15037594,53500,,,,,,,,,,,,,,,,,,,0.119444459,-0.101851852,1,0,0,3.466,6,1,157,22,1,w,images/br_w.png,images/cb_w.png,,,,,,,,,,,,,,,,,,,,,,,,,
,,,,,,53500,2023-07-19_21h00.44.458,vbt_B1_day1,2022.2.4,Win32,60.15037594,53500,,,,,,,,,,,,,,,,,,,0.119444459,-0.101851852,1,0,0,4.7675,6,2,158,17,1,r,images/br_r.png,images/cb_r.png,,,,,,,,,,,,,,,,,,,,,,,,,
,,,,,,53500,2023-07-19_21h00.44.458,vbt_B1_day1,2022.2.4,Win32,60.15037594,53500,,,,,,,,,,,,,,,,,,,0.119444459,-0.101851852,1,0,0,3.168,6,3,159,6,1,g,images/br_g.png,images/cb_g.png,,,,,,,,,,,,,,,,,,,,,,,,,
,,,,,,53500,2023-07-19_21h00.44.458,vbt_B1_day1,2022.2.4,Win32,60.15037594,53500,,,,,,,,,,,,,,,,,,,0.119444459,-0.101851852,1,0,0,1.1838,6,4,160,0,1,a,images/br_a.png,images/cb_a.png,,,,,,,,,,,,,,,,,,,,,,,,,
,,,,,,53500,2023-07-19_21h00.44.458,vbt_B1_day1,2022.2.4,Win32,60.15037594,53500,,,,,,,,,,,,,,,,,,,0.119444459,-0.101851852,1,0,0,1.5347,6,5,161,7,1,h,images/br_h.png,images/cb_h.png,,,,,,,,,,,,,,,,,,,,,,,,,
,,,,,,53500,2023-07-19_21h00.44.458,vbt_B1_day1,2022.2.4,Win32,60.15037594,53500,,,,,,,,,,,,,,,,,,,0.119444459,-0.101851852,1,0,0,4.1171,6,6,162,13,1,n,images/br_n.png,images/cb_n.png,,,,,,,,,,,,,,,,,,,,,,,,,
,,,,,,53500,2023-07-19_21h00.44.458,vbt_B1_day1,2022.2.4,Win32,60.15037594,53500,,,,,,,,,,,,,,,,,,,0.119444459,-0.101851852,1,0,0,0.1177,6,7,163,16,1,q,images/br_q.png,images/cb_q.png,,,,,,,,,,,,,,,,,,,,,,,,,
,,,,,,53500,2023-07-19_21h00.44.458,vbt_B1_day1,2022.2.4,Win32,60.15037594,53500,,,,,,,,,,,,,,,,,,,0.116666653,-0.17777782,1,0,0,1.0167,6,8,164,15,1,p,images/br_p.png,images/cb_p.png,,,,,,,,,,,,,,,,,,,,,,,,,
,,,,,,53500,2023-07-19_21h00.44.458,vbt_B1_day1,2022.2.4,Win32,60.15037594,53500,,,,,,,,,,,,,,,,,,,0.121296282,-0.180555556,1,0,0,2.9664,6,9,165,19,1,t,images/br_t.png,images/cb_t.png,,,,,,,,,,,,,,,,,,,,,,,,,
,,,,,,53500,2023-07-19_21h00.44.458,vbt_B1_day1,2022.2.4,Win32,60.15037594,53500,,,,,,,,,,,,,,,,,,,0.121296282,-0.180555556,1,0,0,0.2832,6,10,166,8,1,i,images/br_i.png,images/cb_i.png,,,,,,,,,,,,,,,,,,,,,,,,,
,,,,,,53500,2023-07-19_21h00.44.458,vbt_B1_day1,2022.2.4,Win32,60.15037594,53500,,,,,,,,,,,,,,,,,,,0.121296282,-0.180555556,1,0,0,0.0166,6,11,167,2,1,c,images/br_c.png,images/cb_c.png,,,,,,,,,,,,,,,,,,,,,,,,,
,,,,,,53500,2023-07-19_21h00.44.458,vbt_B1_day1,2022.2.4,Win32,60.15037594,53500,,,,,,,,,,,,,,,,,,,0.121296282,-0.180555556,1,0,0,2.7182,6,12,168,20,1,u,images/br_u.png,images/cb_u.png,,,,,,,,,,,,,,,,,,,,,,,,,
,,,,,,53500,2023-07-19_21h00.44.458,vbt_B1_day1,2022.2.4,Win32,60.15037594,53500,,,,,,,,,,,,,,,,,,,0.121296282,-0.180555556,1,0,0,1.0219,6,13,169,14,1,o,images/br_o.png,images/cb_o.png,,,,,,,,,,,,,,,,,,,,,,,,,
,,,,,,53500,2023-07-19_21h00.44.458,vbt_B1_day1,2022.2.4,Win32,60.15037594,53500,,,,,,,,,,,,,,,,,,,0.09629631,-0.236111111,1,0,0,1.7505,6,14,170,23,1,x,images/br_x.png,images/cb_x.png,,,,,,,,,,,,,,,,,,,,,,,,,
,,,,,,53500,2023-07-19_21h00.44.458,vbt_B1_day1,2022.2.4,Win32,60.15037594,53500,,,,,,,,,,,,,,,,,,,0.124074088,-0.178703732,1,0,0,1.2663,6,15,171,4,1,e,images/br_e.png,images/cb_e.png,,,,,,,,,,,,,,,,,,,,,,,,,
,,,,,,53500,2023-07-19_21h00.44.458,vbt_B1_day1,2022.2.4,Win32,60.15037594,53500,,,,,,,,,,,,,,,,,,,0.124074088,-0.178703732,1,0,0,3.4335,6,16,172,24,1,y,images/br_y.png,images/cb_y.png,,,,,,,,,,,,,,,,,,,,,,,,,
,,,,,,53500,2023-07-19_21h00.44.458,vbt_B1_day1,2022.2.4,Win32,60.15037594,53500,,,,,,,,,,,,,,,,,,,0.124074088,-0.178703732,1,0,0,3.6837,6,17,173,12,1,m,images/br_m.png,images/cb_m.png,,,,,,,,,,,,,,,,,,,,,,,,,
,,,,,,53500,2023-07-19_21h00.44.458,vbt_B1_day1,2022.2.4,Win32,60.15037594,53500,,,,,,,,,,,,,,,,,,,-0.020370342,-0.125925912,1,0,0,1.1453,6,18,174,11,1,l,images/br_l.png,images/cb_l.png,,,,,,,,,,,,,,,,,,,,,,,,,
,,,,,,53500,2023-07-19_21h00.44.458,vbt_B1_day1,2022.2.4,Win32,60.15037594,53500,,,,,,,,,,,,,,,,,,,-0.01944443,-0.125925912,1,0,0,4.5497,6,19,175,21,1,v,images/br_v.png,images/cb_v.png,,,,,,,,,,,,,,,,,,,,,,,,,
,,,,,,53500,2023-07-19_21h00.44.458,vbt_B1_day1,2022.2.4,Win32,60.15037594,53500,,,,,,,,,,,,,,,,,,,-0.01944443,-0.125925912,1,0,0,7.6834,6,20,176,3,1,d,images/br_d.png,images/cb_d.png,,,,,,,,,,,,,,,,,,,,,,,,,
,,,,,,53500,2023-07-19_21h00.44.458,vbt_B1_day1,2022.2.4,Win32,60.15037594,53500,,,,,,,,,,,,,,,,,,,-0.01944443,-0.125925912,1,0,0,5.0655,6,21,177,1,1,b,images/br_b.png,images/cb_b.png,,,,,,,,,,,,,,,,,,,,,,,,,
,,,,,,53500,2023-07-19_21h00.44.458,vbt_B1_day1,2022.2.4,Win32,60.15037594,53500,,,,,,,,,,,,,,,,,,,-0.01944443,-0.125925912,1,0,0,6.7555,6,22,178,10,1,k,images/br_k.png,images/cb_k.png,,,,,,,,,,,,,,,,,,,,,,,,,
,,,,,,53500,2023-07-19_21h00.44.458,vbt_B1_day1,2022.2.4,Win32,60.15037594,53500,,,,,,,,,,,,,,,,,,,-0.01944443,-0.125925912,1,0,0,11.2216,6,23,179,18,1,s,images/br_s.png,images/cb_s.png,,,,,,,,,,,,,,,,,,,,,,,,,
,,,,,,53500,2023-07-19_21h00.44.458,vbt_B1_day1,2022.2.4,Win32,60.15037594,53500,,,,,,,,,,,,,,,,,,,-0.01944443,-0.125925912,1,0,0,4.8337,6,24,180,9,1,j,images/br_j.png,images/cb_j.png,,,,,,,,,,,,,,,,,,,,,,,,,
,,,,,,53500,2023-07-19_21h00.44.458,vbt_B1_day1,2022.2.4,Win32,60.15037594,53500,,,,,,,,,,,,,,,,,,,-0.02870369,-0.128703718,1,0,0,15.566,6,25,181,5,1,f,images/br_f.png,images/cb_f.png,,,,,,,,,,,,,,,,,,,,,,,,,
,,,,,,53500,2023-07-19_21h00.44.458,vbt_B1_day1,2022.2.4,Win32,60.15037594,53500,,,,,,,,,,,,,,,,,,,,,,,,,,,,,,,,,0.215740769,-0.220370399,1,0,0,,,,,,,,,,,,,,,,,,,,
,,,,,,53500,2023-07-19_21h00.44.458,vbt_B1_day1,2022.2.4,Win32,60.15037594,53500,,,,,,,,,,,,,,,,,,,,,,,,,,,,,,,,,,,,,,0.277777778,-0.100000028,1,0,0,,,,,,,,,,,,,,,
,,,,,,53500,2023-07-19_21h00.44.458,vbt_B1_day1,2022.2.4,Win32,60.15037594,53500,,,,,,,,,,,,,,,,,,,,,,,,,,,,,,,,,,,,,,,,,,,0.121296282,-0.132407436,1,0,0,.e..e.,.e..e.,0,0,0,54,1,vijftig,images/br_vijftig.png,images/cb_vijftig.png
,,,,,,53500,2023-07-19_21h00.44.458,vbt_B1_day1,2022.2.4,Win32,60.15037594,53500,,,,,,,,,,,,,,,,,,,,,,,,,,,,,,,,,,,,,,,,,,,0.167592578,-0.037037037,1,0,0,b.eek,b.eek,0,1,1,6,1,bleek,images/br_bleek.png,images/cb_bleek.png
,,,,,,53500,2023-07-19_21h00.44.458,vbt_B1_day1,2022.2.4,Win32,60.15037594,53500,,,,,,,,,,,,,,,,,,,,,,,,,,,,,,,,,,,,,,,,,,,0.448148233,0,1,0,0,lop...,lop...,0,2,2,34,1,lochten,images/br_lochten.png,images/cb_lochten.png
,,,,,,53500,2023-07-19_21h00.44.458,vbt_B1_day1,2022.2.4,Win32,60.15037594,53500,,,,,,,,,,,,,,,,,,,,,,,,,,,,,,,,,,,,,,,,,,,0.40833339,0.037962949,1,0,0,hierva.,hierva.,0,3,3,15,1,hiervan,images/br_hiervan.png,images/cb_hiervan.png
,,,,,,53500,2023-07-19_21h00.44.458,vbt_B1_day1,2022.2.4,Win32,60.15037594,53500,,,,,,,,,,,,,,,,,,,,,,,,,,,,,,,,,,,,,,,,,,,0.396296325,0.180555556,1,0,0,loob.,loob.,0,4,4,47,1,loods,images/br_loods.png,images/cb_loods.png
,,,,,,53500,2023-07-19_21h00.44.458,vbt_B1_day1,2022.2.4,Win32,60.15037594,53500,,,,,,,,,,,,,,,,,,,,,,,,,,,,,,,,,,,,,,,,,,,0.123148176,-0.305555556,1,0,0,frort,frort,0,5,5,27,1,prort,images/br_prort.png,images/cb_prort.png
,,,,,,53500,2023-07-19_21h00.44.458,vbt_B1_day1,2022.2.4,Win32,60.15037594,53500,,,,,,,,,,,,,,,,,,,,,,,,,,,,,,,,,,,,,,,,,,,0.37962963,-0.075925933,1,0,0,.uiplap,.uiplap,0,6,6,52,1,zuiplap,images/br_zuiplap.png,images/cb_zuiplap.png
,,,,,,53500,2023-07-19_21h00.44.458,vbt_B1_day1,2022.2.4,Win32,60.15037594,53500,,,,,,,,,,,,,,,,,,,,,,,,,,,,,,,,,,,,,,,,,,,0.358333305,-0.047222243,1,0,0,.....,.....,0,7,7,49,1,vizier,images/br_vizier.png,images/cb_vizier.png
,,,,,,53500,2023-07-19_21h00.44.458,vbt_B1_day1,2022.2.4,Win32,60.15037594,53500,,,,,,,,,,,,,,,,,,,,,,,,,,,,,,,,,,,,,,,,,,,0.282407407,0.037037037,1,0,0,fee.eme.,fee.eme.,0,8,8,57,1,meenemen,images/br_meenemen.png,images/cb_meenemen.png
,,,,,,53500,2023-07-19_21h00.44.458,vbt_B1_day1,2022.2.4,Win32,60.15037594,53500,,,,,,,,,,,,,,,,,,,,,,,,,,,,,,,,,,,,,,,,,,,0.398148148,0.01203703,1,0,0,dief,dief,0,9,9,40,1,dief,images/br_dief.png,images/cb_dief.png
,,,,,,53500,2023-07-19_21h00.44.458,vbt_B1_day1,2022.2.4,Win32,60.15037594,53500,,,,,,,,,,,,,,,,,,,,,,,,,,,,,,,,,,,,,,,,,,,0.429629714,0.151851831,1,0,0,voorkeur,voorkeur,0,10,10,58,1,voorkeur,images/br_voorkeur.png,images/cb_voorkeur.png
,,,,,,53500,2023-07-19_21h00.44.458,vbt_B1_day1,2022.2.4,Win32,60.15037594,53500,,,,,,,,,,,,,,,,,,,,,,,,,,,,,,,,,,,,,,,,,,,0.033333319,-0.204629616,1,0,0,,,0,11,11,55,1,tekenen,images/br_tekenen.png,images/cb_tekenen.png
,,,,,,53500,2023-07-19_21h00.44.458,vbt_B1_day1,2022.2.4,Win32,60.15037594,53500,,,,,,,,,,,,,,,,,,,,,,,,,,,,,,,,,,,,,,,,,,,0.250925912,0.126851859,1,0,0,l....,l....,0,12,12,51,1,liefde,images/br_liefde.png,images/cb_liefde.png
,,,,,,53500,2023-07-19_21h00.44.458,vbt_B1_day1,2022.2.4,Win32,60.15037594,53500,,,,,,,,,,,,,,,,,,,,,,,,,,,,,,,,,,,,,,,,,,,0.375,0.022222201,1,0,0,be.riq,be.riq,0,13,13,28,1,bebrip,images/br_bebrip.png,images/cb_bebrip.png
,,,,,,53500,2023-07-19_21h00.44.458,vbt_B1_day1,2022.2.4,Win32,60.15037594,53500,,,,,,,,,,,,,,,,,,,,,,,,,,,,,,,,,,,,,,,,,,,0.4898149,-0.104629658,1,0,0,ree..e,ree..e,0,14,14,30,1,reedje,images/br_reedje.png,images/cb_reedje.png
,,,,,,53500,2023-07-19_21h00.44.458,vbt_B1_day1,2022.2.4,Win32,60.15037594,53500,,,,,,,,,,,,,,,,,,,,,,,,,,,,,,,,,,,,,,,,,,,0.487962935,-0.100000028,1,0,0,voorre..,voorre..,0,15,15,39,1,voorreur,images/br_voorreur.png,images/cb_voorreur.png
,,,,,,53500,2023-07-19_21h00.44.458,vbt_B1_day1,2022.2.4,Win32,60.15037594,53500,,,,,,,,,,,,,,,,,,,,,,,,,,,,,,,,,,,,,,,,,,,0.409259231,-0.271296325,1,0,0,...ep,...ep,0,16,16,4,1,schep,images/br_schep.png,images/cb_schep.png
,,,,,,53500,2023-07-19_21h00.44.458,vbt_B1_day1,2022.2.4,Win32,60.15037594,53500,,,,,,,,,,,,,,,,,,,,,,,,,,,,,,,,,,,,,,,,,,,-0.124074088,-0.198148162,1,0,0,,,0,17,17,36,1,vervaden,images/br_vervaden.png,images/cb_vervaden.png
,,,,,,53500,2023-07-19_21h00.44.458,vbt_B1_day1,2022.2.4,Win32,60.15037594,53500,,,,,,,,,,,,,,,,,,,,,,,,,,,,,,,,,,,,,,,,,,,0.412963019,-0.064814815,1,0,0,.er.a.e.,.er.a.e.,0,18,18,43,1,lava,images/br_lava.png,images/cb_lava.png
,,,,,,53500,2023-07-19_21h00.44.458,vbt_B1_day1,2022.2.4,Win32,60.15037594,53500,,,,,,,,,,,,,,,,,,,,,,,,,,,,,,,,,,,,,,,,,,,0.524074131,-0.166666667,1,0,0,bre.k,bre.k,0,19,19,25,1,brijk,images/br_brijk.png,images/cb_brijk.png
,,,,,,53500,2023-07-19_21h00.44.458,vbt_B1_day1,2022.2.4,Win32,60.15037594,53500,,,,,,,,,,,,,,,,,,,,,,,,,,,,,,,,,,,,,,,,,,,0.404629601,0.080555563,1,0,0,le.e.,le.e.,0,20,20,46,1,lezen,images/br_lezen.png,images/cb_lezen.png
,,,,,,53500,2023-07-19_21h00.44.458,vbt_B1_day1,2022.2.4,Win32,60.15037594,53500,,,,,,,,,,,,,,,,,,,,,,,,,,,,,,,,,,,,,,,,,,,0.508333418,0.186111097,1,0,0,toe.ic..,toe.ic..,0,21,21,56,1,toezicht,images/br_toezicht.png,images/cb_toezicht.png
,,,,,,53500,2023-07-19_21h00.44.458,vbt_B1_day1,2022.2.4,Win32,60.15037594,53500,,,,,,,,,,,,,,,,,,,,,,,,,,,,,,,,,,,,,,,,,,,-0.065740727,-0.193518533,1,0,0,,,0,22,22,16,1,daarheen,images/br_daarheen.png,images/cb_daarheen.png
,,,,,,53500,2023-07-19_21h00.44.458,vbt_B1_day1,2022.2.4,Win32,60.15037594,53500,,,,,,,,,,,,,,,,,,,,,,,,,,,,,,,,,,,,,,,,,,,0.091666681,0.002777771,1,0,0,K....,K....,0,23,23,22,1,knoe,images/br_knoe.png,images/cb_knoe.png
,,,,,,53500,2023-07-19_21h00.44.458,vbt_B1_day1,2022.2.4,Win32,60.15037594,53500,,,,,,,,,,,,,,,,,,,,,,,,,,,,,,,,,,,,,,,,,,,0.500925982,-0.085185192,1,0,0,meyeyg,meyeyg,0,24,24,11,1,mening,images/br_mening.png,images/cb_mening.png
,,,,,,53500,2023-07-19_21h00.44.458,vbt_B1_day1,2022.2.4,Win32,60.15037594,53500,,,,,,,,,,,,,,,,,,,,,,,,,,,,,,,,,,,,,,,,,,,0.375925982,-0.01666666,1,0,0,valoq,valoq,0,25,25,26,1,valop,images/br_valop.png,images/cb_valop.png
,,,,,,53500,2023-07-19_21h00.44.458,vbt_B1_day1,2022.2.4,Win32,60.15037594,53500,,,,,,,,,,,,,,,,,,,,,,,,,,,,,,,,,,,,,,,,,,,0.330555527,0.148148148,1,0,0,opplaa.,opplaa.,0,26,26,32,1,opplaan,images/br_opplaan.png,images/cb_opplaan.png
,,,,,,53500,2023-07-19_21h00.44.458,vbt_B1_day1,2022.2.4,Win32,60.15037594,53500,,,,,,,,,,,,,,,,,,,,,,,,,,,,,,,,,,,,,,,,,,,0.667592649,0.382407409,1,0,0,kle..e.,kle..e.,0,27,27,12,1,klimmen,images/br_klimmen.png,images/cb_klimmen.png
,,,,,,53500,2023-07-19_21h00.44.458,vbt_B1_day1,2022.2.4,Win32,60.15037594,53500,,,,,,,,,,,,,,,,,,,,,,,,,,,,,,,,,,,,,,,,,,,0.321296268,-0.056481503,1,0,0,lie.e.,lie.e.,0,28,28,50,1,liegen,images/br_liegen.png,images/cb_liegen.png
,,,,,,53500,2023-07-19_21h00.44.458,vbt_B1_day1,2022.2.4,Win32,60.15037594,53500,,,,,,,,,,,,,,,,,,,,,,,,,,,,,,,,,,,,,,,,,,,0.312037009,-0.135185171,1,0,0,twe..el,twe..el,0,29,29,13,1,twijfel,images/br_twijfel.png,images/cb_twijfel.png
,,,,,,53500,2023-07-19_21h00.44.458,vbt_B1_day1,2022.2.4,Win32,60.15037594,53500,,,,,,,,,,,,,,,,,,,,,,,,,,,,,,,,,,,,,,,,,,,0.683333362,0.1324074,1,0,0,waarva.,waarva.,0,30,30,14,1,waarvan,images/br_waarvan.png,images/cb_waarvan.png
,,,,,,53500,2023-07-19_21h00.44.458,vbt_B1_day1,2022.2.4,Win32,60.15037594,53500,,,,,,,,,,,,,,,,,,,,,,,,,,,,,,,,,,,,,,,,,,,-0.029629601,-0.186111097,1,0,0,,,0,31,31,59,1,opvatten,images/br_opvatten.png,images/cb_opvatten.png
,,,,,,53500,2023-07-19_21h00.44.458,vbt_B1_day1,2022.2.4,Win32,60.15037594,53500,,,,,,,,,,,,,,,,,,,,,,,,,,,,,,,,,,,,,,,,,,,0.318518603,-0.072222215,1,0,0,rpvatte.,rpvatte.,0,32,32,8,1,kanjer,images/br_kanjer.png,images/cb_kanjer.png
,,,,,,53500,2023-07-19_21h00.44.458,vbt_B1_day1,2022.2.4,Win32,60.15037594,53500,,,,,,,,,,,,,,,,,,,,,,,,,,,,,,,,,,,,,,,,,,,0.53333339,0.081481474,1,0,0,dubbel,dubbel,0,33,33,9,1,dubbel,images/br_dubbel.png,images/cb_dubbel.png
,,,,,,53500,2023-07-19_21h00.44.458,vbt_B1_day1,2022.2.4,Win32,60.15037594,53500,,,,,,,,,,,,,,,,,,,,,,,,,,,,,,,,,,,,,,,,,,,0.525925954,-0.076851845,1,0,0,brri,brri,0,34,34,23,1,booi,images/br_booi.png,images/cb_booi.png
,,,,,,53500,2023-07-19_21h00.44.458,vbt_B1_day1,2022.2.4,Win32,60.15037594,53500,,,,,,,,,,,,,,,,,,,,,,,,,,,,,,,,,,,,,,,,,,,0.398148148,-0.046296296,1,0,0,atte.tie,atte.tie,0,35,35,17,1,attentie,images/br_attentie.png,images/cb_attentie.png
,,,,,,53500,2023-07-19_21h00.44.458,vbt_B1_day1,2022.2.4,Win32,60.15037594,53500,,,,,,,,,,,,,,,,,,,,,,,,,,,,,,,,,,,,,,,,,,,0.50462963,-0.097222222,1,0,0,.c.iele.,.c.iele.,0,36,36,38,1,schielen,images/br_schielen.png,images/cb_schielen.png
,,,,,,53500,2023-07-19_21h00.44.458,vbt_B1_day1,2022.2.4,Win32,60.15037594,53500,,,,,,,,,,,,,,,,,,,,,,,,,,,,,,,,,,,,,,,,,,,0.602777834,-0.226851852,1,0,0,.lak,.lak,0,37,37,0,1,slak,images/br_slak.png,images/cb_slak.png
,,,,,,53500,2023-07-19_21h00.44.458,vbt_B1_day1,2022.2.4,Win32,60.15037594,53500,,,,,,,,,,,,,,,,,,,,,,,,,,,,,,,,,,,,,,,,,,,0.446296268,-0.18240745,1,0,0,.t.ike.,.t.ike.,0,38,38,35,1,stuikem,images/br_stuikem.png,images/cb_stuikem.png
,,,,,,53500,2023-07-19_21h00.44.458,vbt_B1_day1,2022.2.4,Win32,60.15037594,53500,,,,,,,,,,,,,,,,,,,,,,,,,,,,,,,,,,,,,,,,,,,0.57222225,-0.053703697,1,0,0,...iek,...iek,0,39,39,10,1,muziek,images/br_muziek.png,images/cb_muziek.png
,,,,,,53500,2023-07-19_21h00.44.458,vbt_B1_day1,2022.2.4,Win32,60.15037594,53500,,,,,,,,,,,,,,,,,,,,,,,,,,,,,,,,,,,,,,,,,,,0.433333362,-0.143518519,1,0,0,.aar,.aar,0,40,40,2,1,jaar,images/br_jaar.png,images/cb_jaar.png
,,,,,,53500,2023-07-19_21h00.44.458,vbt_B1_day1,2022.2.4,Win32,60.15037594,53500,,,,,,,,,,,,,,,,,,,,,,,,,,,,,,,,,,,,,,,,,,,0.426851908,-0.067592586,1,0,0,tar.,tar.,0,41,41,20,1,tars,images/br_tars.png,images/cb_tars.png
,,,,,,53500,2023-07-19_21h00.44.458,vbt_B1_day1,2022.2.4,Win32,60.15037594,53500,,,,,,,,,,,,,,,,,,,,,,,,,,,,,,,,,,,,,,,,,,,0.388888889,-0.099074116,1,0,0,kla.w,kla.w,0,42,42,7,1,klauw,images/br_klauw.png,images/cb_klauw.png
,,,,,,53500,2023-07-19_21h00.44.458,vbt_B1_day1,2022.2.4,Win32,60.15037594,53500,,,,,,,,,,,,,,,,,,,,,,,,,,,,,,,,,,,,,,,,,,,0.162037037,-0.014814836,1,0,0,.et.ele.,.et.ele.,0,43,43,18,1,uitdelen,images/br_uitdelen.png,images/cb_uitdelen.png
,,,,,,53500,2023-07-19_21h00.44.458,vbt_B1_day1,2022.2.4,Win32,60.15037594,53500,,,,,,,,,,,,,,,,,,,,,,,,,,,,,,,,,,,,,,,,,,,0.515740712,-0.12962963,1,0,0,.ictei,.ictei,0,44,44,48,1,fictie,images/br_fictie.png,images/cb_fictie.png
,,,,,,53500,2023-07-19_21h00.44.458,vbt_B1_day1,2022.2.4,Win32,60.15037594,53500,,,,,,,,,,,,,,,,,,,,,,,,,,,,,,,,,,,,,,,,,,,0.311111168,-0.102777764,1,0,0,ma..,ma..,0,45,45,3,1,mand,images/br_mand.png,images/cb_mand.png
,,,,,,53500,2023-07-19_21h00.44.458,vbt_B1_day1,2022.2.4,Win32,60.15037594,53500,,,,,,,,,,,,,,,,,,,,,,,,,,,,,,,,,,,,,,,,,,,0.507407436,-0.256481524,1,0,0,.ta.e.,.ta.e.,0,46,46,31,1,stamen,images/br_stamen.png,images/cb_stamen.png
,,,,,,53500,2023-07-19_21h00.44.458,vbt_B1_day1,2022.2.4,Win32,60.15037594,53500,,,,,,,,,,,,,,,,,,,,,,,,,,,,,,,,,,,,,,,,,,,-0.121296282,-0.194444444,1,0,0,,,0,47,47,24,1,rezer,images/br_rezer.png,images/cb_rezer.png
,,,,,,53500,2023-07-19_21h00.44.458,vbt_B1_day1,2022.2.4,Win32,60.15037594,53500,,,,,,,,,,,,,,,,,,,,,,,,,,,,,,,,,,,,,,,,,,,0.466666751,0.015740748,1,0,0,.i..e,.i..e,0,48,48,44,1,wijze,images/br_wijze.png,images/cb_wijze.png
,,,,,,53500,2023-07-19_21h00.44.458,vbt_B1_day1,2022.2.4,Win32,60.15037594,53500,,,,,,,,,,,,,,,,,,,,,,,,,,,,,,,,,,,,,,,,,,,0.58148151,-0.005555577,1,0,0,.ake.,.ake.,0,49,49,5,1,maken,images/br_maken.png,images/cb_maken.png
,,,,,,53500,2023-07-19_21h00.44.458,vbt_B1_day1,2022.2.4,Win32,60.15037594,53500,,,,,,,,,,,,,,,,,,,,,,,,,,,,,,,,,,,,,,,,,,,0.48055564,-0.248148176,1,0,0,.c.uile.,.c.uile.,0,50,50,19,1,schuilen,images/br_schuilen.png,images/cb_schuilen.png
,,,,,,53500,2023-07-19_21h00.44.458,vbt_B1_day1,2022.2.4,Win32,60.15037594,53500,,,,,,,,,,,,,,,,,,,,,,,,,,,,,,,,,,,,,,,,,,,0.22592594,-0.027777778,1,0,0,.e...,.e...,0,51,51,21,1,dred,images/br_dred.png,images/cb_dred.png
,,,,,,53500,2023-07-19_21h00.44.458,vbt_B1_day1,2022.2.4,Win32,60.15037594,53500,,,,,,,,,,,,,,,,,,,,,,,,,,,,,,,,,,,,,,,,,,,0.527777778,-0.229629658,1,0,0,fl.lle.,fl.lle.,0,52,52,33,1,flullen,images/br_flullen.png,images/cb_flullen.png
,,,,,,53500,2023-07-19_21h00.44.458,vbt_B1_day1,2022.2.4,Win32,60.15037594,53500,,,,,,,,,,,,,,,,,,,,,,,,,,,,,,,,,,,,,,,,,,,0.375,-0.081481474,1,0,0,ge.r..,ge.r..,0,53,53,29,1,genond,images/br_genond.png,images/cb_genond.png
,,,,,,53500,2023-07-19_21h00.44.458,vbt_B1_day1,2022.2.4,Win32,60.15037594,53500,,,,,,,,,,,,,,,,,,,,,,,,,,,,,,,,,,,,,,,,,,,0.445370427,-0.115740741,1,0,0,.pa..i.g,.pa..i.g,0,54,54,37,1,spanzing,images/br_spanzing.png,images/cb_spanzing.png
,,,,,,53500,2023-07-19_21h00.44.458,vbt_B1_day1,2022.2.4,Win32,60.15037594,53500,,,,,,,,,,,,,,,,,,,,,,,,,,,,,,,,,,,,,,,,,,,0.429629714,-0.317592621,1,0,0,..k,..k,0,55,55,42,1,stuk,images/br_stuk.png,images/cb_stuk.png
,,,,,,53500,2023-07-19_21h00.44.458,vbt_B1_day1,2022.2.4,Win32,60.15037594,53500,,,,,,,,,,,,,,,,,,,,,,,,,,,,,,,,,,,,,,,,,,,0.19722225,0.055555556,1,0,0,.rr.,.rr.,0,56,56,41,1,hoog,images/br_hoog.png,images/cb_hoog.png
,,,,,,53500,2023-07-19_21h00.44.458,vbt_B1_day1,2022.2.4,Win32,60.15037594,53500,,,,,,,,,,,,,,,,,,,,,,,,,,,,,,,,,,,,,,,,,,,0.463888945,-0.175925926,1,0,0,.e.el,.e.el,0,57,57,45,1,hemel,images/br_hemel.png,images/cb_hemel.png
,,,,,,53500,2023-07-19_21h00.44.458,vbt_B1_day1,2022.2.4,Win32,60.15037594,53500,,,,,,,,,,,,,,,,,,,,,,,,,,,,,,,,,,,,,,,,,,,0.537963019,-0.093518504,1,0,0,.aal,.aal,0,58,58,1,1,zaal,images/br_zaal.png,images/cb_zaal.png
,,,,,,53500,2023-07-19_21h00.44.458,vbt_B1_day1,2022.2.4,Win32,60.15037594,53500,,,,,,,,,,,,,,,,,,,,,,,,,,,,,,,,,,,,,,,,,,,0.154629672,0.198148127,1,0,0,...laa.,...laa.,0,59,59,53,1,opslaan,images/br_opslaan.png,images/cb_opslaan.png
,,,,,,53500,2023-07-19_21h00.44.458,vbt_B1_day1,2022.2.4,Win32,60.15037594,53500,,,,,,,,,,,,,,,,,,,,,,,,,,,,,,,,,,,,,,,,,,,,,,,,,,,,,,,,,
