welcome_mouse.x,welcome_mouse.y,welcome_mouse.leftButton,welcome_mouse.midButton,welcome_mouse.rightButton,welcome_mouse.time,"ID",date,expName,psychopyVersion,OS,frameRate,mouse_2.x,mouse_2.y,mouse_2.leftButton,mouse_2.midButton,mouse_2.rightButton,mouse_2.time,mouse_3.x,mouse_3.y,mouse_3.leftButton,mouse_3.midButton,mouse_3.rightButton,mouse_3.time,train_mouse.x,train_mouse.y,train_mouse.leftButton,train_mouse.midButton,train_mouse.rightButton,train_mouse.time,braille_mouse.x,braille_mouse.y,braille_mouse.leftButton,braille_mouse.midButton,braille_mouse.rightButton,braille_mouse.time,trials.thisRepN,trials.thisTrialN,trials.thisN,trials.thisIndex,trials.ran,nlLet,brLet,cbLet,mouse.x,mouse.y,mouse.leftButton,mouse.midButton,mouse.rightButton,testInstr_mouse.x,testInstr_mouse.y,testInstr_mouse.leftButton,testInstr_mouse.midButton,testInstr_mouse.rightButton,test_mouse.x,test_mouse.y,test_mouse.leftButton,test_mouse.midButton,test_mouse.rightButton,test_response.text,testResp,test_loop.thisRepN,test_loop.thisTrialN,test_loop.thisN,test_loop.thisIndex,test_loop.ran,nlWrd,brWrd,cbWrd
-0.055555556,-0.213333333,1,0,0,17.447,,2023-10-24_15h23.07.009,vbt_B1_day1,2022.2.4,MacIntel,62.5,,,,,,,,,,,,,,,,,,,,,,,,,,,,,,,,,,,,,,,,,,,,,,,,,,,,,,,,,
,,,,,,,2023-10-24_15h23.07.009,vbt_B1_day1,2022.2.4,MacIntel,62.5,-0.055555556,-0.214444444,1,0,0,10.924,,,,,,,,,,,,,,,,,,,,,,,,,,,,,,,,,,,,,,,,,,,,,,,,,,,
,,,,,,,2023-10-24_15h23.07.009,vbt_B1_day1,2022.2.4,MacIntel,62.5,,,,,,,-0.054444444,-0.214444444,1,0,0,29.961,,,,,,,,,,,,,,,,,,,,,,,,,,,,,,,,,,,,,,,,,,,,,
,,,,,,,2023-10-24_15h23.07.009,vbt_B1_day1,2022.2.4,MacIntel,62.5,,,,,,,,,,,,,0.017777778,-0.205555556,1,0,0,30.158,,,,,,,,,,,,,,,,,,,,,,,,,,,,,,,,,,,,,,,
,,,,,,,2023-10-24_15h23.07.009,vbt_B1_day1,2022.2.4,MacIntel,62.5,,,,,,,,,,,,,,,,,,,0.191111111,-0.197777778,1,0,0,10.901,0,0,0,2,1,c,images/br_c.png,images/cb_c.png,,,,,,,,,,,,,,,,,,,,,,,,,
,,,,,,,2023-10-24_15h23.07.009,vbt_B1_day1,2022.2.4,MacIntel,62.5,,,,,,,,,,,,,,,,,,,0.191111111,-0.197777778,1,0,0,9.667,0,1,1,10,1,k,images/br_k.png,images/cb_k.png,,,,,,,,,,,,,,,,,,,,,,,,,
,,,,,,,2023-10-24_15h23.07.009,vbt_B1_day1,2022.2.4,MacIntel,62.5,,,,,,,,,,,,,,,,,,,0.191111111,-0.197777778,1,0,0,10.251,0,2,2,4,1,e,images/br_e.png,images/cb_e.png,,,,,,,,,,,,,,,,,,,,,,,,,
,,,,,,,2023-10-24_15h23.07.009,vbt_B1_day1,2022.2.4,MacIntel,62.5,,,,,,,,,,,,,,,,,,,0.191111111,-0.197777778,1,0,0,20.084,0,3,3,23,1,x,images/br_x.png,images/cb_x.png,,,,,,,,,,,,,,,,,,,,,,,,,
,,,,,,,2023-10-24_15h23.07.009,vbt_B1_day1,2022.2.4,MacIntel,62.5,,,,,,,,,,,,,,,,,,,0.191111111,-0.197777778,1,0,0,19.584,0,4,4,25,1,z,images/br_z.png,images/cb_z.png,,,,,,,,,,,,,,,,,,,,,,,,,
,,,,,,,2023-10-24_15h23.07.009,vbt_B1_day1,2022.2.4,MacIntel,62.5,,,,,,,,,,,,,,,,,,,0.191111111,-0.197777778,1,0,0,32.335,0,5,5,7,1,h,images/br_h.png,images/cb_h.png,,,,,,,,,,,,,,,,,,,,,,,,,
,,,,,,,2023-10-24_15h23.07.009,vbt_B1_day1,2022.2.4,MacIntel,62.5,,,,,,,,,,,,,,,,,,,0.191111111,-0.197777778,1,0,0,18.35,0,6,6,24,1,y,images/br_y.png,images/cb_y.png,,,,,,,,,,,,,,,,,,,,,,,,,
,,,,,,,2023-10-24_15h23.07.009,vbt_B1_day1,2022.2.4,MacIntel,62.5,,,,,,,,,,,,,,,,,,,0.175555556,-0.216666667,1,0,0,10.501,0,7,7,14,1,o,images/br_o.png,images/cb_o.png,,,,,,,,,,,,,,,,,,,,,,,,,
,,,,,,,2023-10-24_15h23.07.009,vbt_B1_day1,2022.2.4,MacIntel,62.5,,,,,,,,,,,,,,,,,,,0.162222222,-0.222222222,1,0,0,9.083,0,8,8,16,1,q,images/br_q.png,images/cb_q.png,,,,,,,,,,,,,,,,,,,,,,,,,
,,,,,,,2023-10-24_15h23.07.009,vbt_B1_day1,2022.2.4,MacIntel,62.5,,,,,,,,,,,,,,,,,,,0.236666667,-0.216666667,1,0,0,14.217,0,9,9,6,1,g,images/br_g.png,images/cb_g.png,,,,,,,,,,,,,,,,,,,,,,,,,
,,,,,,,2023-10-24_15h23.07.009,vbt_B1_day1,2022.2.4,MacIntel,62.5,,,,,,,,,,,,,,,,,,,0.184444444,-0.22,1,0,0,8.783,0,10,10,20,1,u,images/br_u.png,images/cb_u.png,,,,,,,,,,,,,,,,,,,,,,,,,
,,,,,,,2023-10-24_15h23.07.009,vbt_B1_day1,2022.2.4,MacIntel,62.5,,,,,,,,,,,,,,,,,,,0.184444444,-0.22,1,0,0,15.551,0,11,11,1,1,b,images/br_b.png,images/cb_b.png,,,,,,,,,,,,,,,,,,,,,,,,,
,,,,,,,2023-10-24_15h23.07.009,vbt_B1_day1,2022.2.4,MacIntel,62.5,,,,,,,,,,,,,,,,,,,0.18,-0.197777778,1,0,0,6.167,0,12,12,17,1,r,images/br_r.png,images/cb_r.png,,,,,,,,,,,,,,,,,,,,,,,,,
,,,,,,,2023-10-24_15h23.07.009,vbt_B1_day1,2022.2.4,MacIntel,62.5,,,,,,,,,,,,,,,,,,,0.177777778,-0.198888889,1,0,0,6.35,0,13,13,21,1,v,images/br_v.png,images/cb_v.png,,,,,,,,,,,,,,,,,,,,,,,,,
,,,,,,,2023-10-24_15h23.07.009,vbt_B1_day1,2022.2.4,MacIntel,62.5,,,,,,,,,,,,,,,,,,,0.175555556,-0.201111111,1,0,0,23.717,0,14,14,22,1,w,images/br_w.png,images/cb_w.png,,,,,,,,,,,,,,,,,,,,,,,,,
,,,,,,,2023-10-24_15h23.07.009,vbt_B1_day1,2022.2.4,MacIntel,62.5,,,,,,,,,,,,,,,,,,,0.177777778,-0.201111111,1,0,0,12.834,0,15,15,0,1,a,images/br_a.png,images/cb_a.png,,,,,,,,,,,,,,,,,,,,,,,,,
,,,,,,,2023-10-24_15h23.07.009,vbt_B1_day1,2022.2.4,MacIntel,62.5,,,,,,,,,,,,,,,,,,,0.177777778,-0.201111111,1,0,0,7.267,0,16,16,13,1,n,images/br_n.png,images/cb_n.png,,,,,,,,,,,,,,,,,,,,,,,,,
,,,,,,,2023-10-24_15h23.07.009,vbt_B1_day1,2022.2.4,MacIntel,62.5,,,,,,,,,,,,,,,,,,,0.178888889,-0.201111111,1,0,0,11.867,0,17,17,9,1,j,images/br_j.png,images/cb_j.png,,,,,,,,,,,,,,,,,,,,,,,,,
,,,,,,,2023-10-24_15h23.07.009,vbt_B1_day1,2022.2.4,MacIntel,62.5,,,,,,,,,,,,,,,,,,,0.176666667,-0.201111111,1,0,0,5.884,0,18,18,15,1,p,images/br_p.png,images/cb_p.png,,,,,,,,,,,,,,,,,,,,,,,,,
,,,,,,,2023-10-24_15h23.07.009,vbt_B1_day1,2022.2.4,MacIntel,62.5,,,,,,,,,,,,,,,,,,,0.175555556,-0.198888889,1,0,0,0.666,0,19,19,11,1,l,images/br_l.png,images/cb_l.png,,,,,,,,,,,,,,,,,,,,,,,,,
,,,,,,,2023-10-24_15h23.07.009,vbt_B1_day1,2022.2.4,MacIntel,62.5,,,,,,,,,,,,,,,,,,,0.176666667,-0.195555556,1,0,0,6.517,0,20,20,19,1,t,images/br_t.png,images/cb_t.png,,,,,,,,,,,,,,,,,,,,,,,,,
,,,,,,,2023-10-24_15h23.07.009,vbt_B1_day1,2022.2.4,MacIntel,62.5,,,,,,,,,,,,,,,,,,,0.197777778,-0.187777778,1,0,0,11.95,0,21,21,5,1,f,images/br_f.png,images/cb_f.png,,,,,,,,,,,,,,,,,,,,,,,,,
,,,,,,,2023-10-24_15h23.07.009,vbt_B1_day1,2022.2.4,MacIntel,62.5,,,,,,,,,,,,,,,,,,,0.191111111,-0.187777778,1,0,0,8.783,0,22,22,12,1,m,images/br_m.png,images/cb_m.png,,,,,,,,,,,,,,,,,,,,,,,,,
,,,,,,,2023-10-24_15h23.07.009,vbt_B1_day1,2022.2.4,MacIntel,62.5,,,,,,,,,,,,,,,,,,,0.187777778,-0.188888889,1,0,0,27.184,0,23,23,18,1,s,images/br_s.png,images/cb_s.png,,,,,,,,,,,,,,,,,,,,,,,,,
,,,,,,,2023-10-24_15h23.07.009,vbt_B1_day1,2022.2.4,MacIntel,62.5,,,,,,,,,,,,,,,,,,,0.187777778,-0.188888889,1,0,0,7.867,0,24,24,3,1,d,images/br_d.png,images/cb_d.png,,,,,,,,,,,,,,,,,,,,,,,,,
,,,,,,,2023-10-24_15h23.07.009,vbt_B1_day1,2022.2.4,MacIntel,62.5,,,,,,,,,,,,,,,,,,,0.187777778,-0.188888889,1,0,0,14.684,0,25,25,8,1,i,images/br_i.png,images/cb_i.png,,,,,,,,,,,,,,,,,,,,,,,,,
,,,,,,,2023-10-24_15h23.07.009,vbt_B1_day1,2022.2.4,MacIntel,62.5,,,,,,,,,,,,,,,,,,,0.187777778,-0.188888889,1,0,0,9.034,1,0,26,11,1,l,images/br_l.png,images/cb_l.png,,,,,,,,,,,,,,,,,,,,,,,,,
,,,,,,,2023-10-24_15h23.07.009,vbt_B1_day1,2022.2.4,MacIntel,62.5,,,,,,,,,,,,,,,,,,,0.187777778,-0.188888889,1,0,0,4.101,1,1,27,15,1,p,images/br_p.png,images/cb_p.png,,,,,,,,,,,,,,,,,,,,,,,,,
,,,,,,,2023-10-24_15h23.07.009,vbt_B1_day1,2022.2.4,MacIntel,62.5,,,,,,,,,,,,,,,,,,,0.187777778,-0.188888889,1,0,0,1.817,1,2,28,2,1,c,images/br_c.png,images/cb_c.png,,,,,,,,,,,,,,,,,,,,,,,,,
,,,,,,,2023-10-24_15h23.07.009,vbt_B1_day1,2022.2.4,MacIntel,62.5,,,,,,,,,,,,,,,,,,,0.187777778,-0.188888889,1,0,0,6.15,1,3,29,0,1,a,images/br_a.png,images/cb_a.png,,,,,,,,,,,,,,,,,,,,,,,,,
,,,,,,,2023-10-24_15h23.07.009,vbt_B1_day1,2022.2.4,MacIntel,62.5,,,,,,,,,,,,,,,,,,,0.186666667,-0.188888889,1,0,0,0.283,1,4,30,21,1,v,images/br_v.png,images/cb_v.png,,,,,,,,,,,,,,,,,,,,,,,,,
,,,,,,,2023-10-24_15h23.07.009,vbt_B1_day1,2022.2.4,MacIntel,62.5,,,,,,,,,,,,,,,,,,,0.184444444,-0.187777778,1,0,0,17.217,1,5,31,20,1,u,images/br_u.png,images/cb_u.png,,,,,,,,,,,,,,,,,,,,,,,,,
,,,,,,,2023-10-24_15h23.07.009,vbt_B1_day1,2022.2.4,MacIntel,62.5,,,,,,,,,,,,,,,,,,,0.151111111,-0.183333333,1,0,0,14.717,1,6,32,22,1,w,images/br_w.png,images/cb_w.png,,,,,,,,,,,,,,,,,,,,,,,,,
,,,,,,,2023-10-24_15h23.07.009,vbt_B1_day1,2022.2.4,MacIntel,62.5,,,,,,,,,,,,,,,,,,,0.151111111,-0.183333333,1,0,0,3.417,1,7,33,16,1,q,images/br_q.png,images/cb_q.png,,,,,,,,,,,,,,,,,,,,,,,,,
,,,,,,,2023-10-24_15h23.07.009,vbt_B1_day1,2022.2.4,MacIntel,62.5,,,,,,,,,,,,,,,,,,,0.151111111,-0.183333333,1,0,0,6.567,1,8,34,8,1,i,images/br_i.png,images/cb_i.png,,,,,,,,,,,,,,,,,,,,,,,,,
,,,,,,,2023-10-24_15h23.07.009,vbt_B1_day1,2022.2.4,MacIntel,62.5,,,,,,,,,,,,,,,,,,,0.151111111,-0.183333333,1,0,0,9.517,1,9,35,24,1,y,images/br_y.png,images/cb_y.png,,,,,,,,,,,,,,,,,,,,,,,,,
,,,,,,,2023-10-24_15h23.07.009,vbt_B1_day1,2022.2.4,MacIntel,62.5,,,,,,,,,,,,,,,,,,,0.151111111,-0.183333333,1,0,0,11.901,1,10,36,18,1,s,images/br_s.png,images/cb_s.png,,,,,,,,,,,,,,,,,,,,,,,,,
,,,,,,,2023-10-24_15h23.07.009,vbt_B1_day1,2022.2.4,MacIntel,62.5,,,,,,,,,,,,,,,,,,,0.151111111,-0.183333333,1,0,0,1.583,1,11,37,23,1,x,images/br_x.png,images/cb_x.png,,,,,,,,,,,,,,,,,,,,,,,,,
,,,,,,,2023-10-24_15h23.07.009,vbt_B1_day1,2022.2.4,MacIntel,62.5,,,,,,,,,,,,,,,,,,,0.151111111,-0.183333333,1,0,0,5.333,1,12,38,19,1,t,images/br_t.png,images/cb_t.png,,,,,,,,,,,,,,,,,,,,,,,,,
,,,,,,,2023-10-24_15h23.07.009,vbt_B1_day1,2022.2.4,MacIntel,62.5,,,,,,,,,,,,,,,,,,,0.151111111,-0.183333333,1,0,0,20.217,1,13,39,10,1,k,images/br_k.png,images/cb_k.png,,,,,,,,,,,,,,,,,,,,,,,,,
,,,,,,,2023-10-24_15h23.07.009,vbt_B1_day1,2022.2.4,MacIntel,62.5,,,,,,,,,,,,,,,,,,,0.151111111,-0.183333333,1,0,0,4.684,1,14,40,17,1,r,images/br_r.png,images/cb_r.png,,,,,,,,,,,,,,,,,,,,,,,,,
,,,,,,,2023-10-24_15h23.07.009,vbt_B1_day1,2022.2.4,MacIntel,62.5,,,,,,,,,,,,,,,,,,,0.141111111,-0.182222222,1,0,0,7.033,1,15,41,13,1,n,images/br_n.png,images/cb_n.png,,,,,,,,,,,,,,,,,,,,,,,,,
,,,,,,,2023-10-24_15h23.07.009,vbt_B1_day1,2022.2.4,MacIntel,62.5,,,,,,,,,,,,,,,,,,,0.141111111,-0.182222222,1,0,0,7.667,1,16,42,25,1,z,images/br_z.png,images/cb_z.png,,,,,,,,,,,,,,,,,,,,,,,,,
,,,,,,,2023-10-24_15h23.07.009,vbt_B1_day1,2022.2.4,MacIntel,62.5,,,,,,,,,,,,,,,,,,,0.141111111,-0.182222222,1,0,0,6.883,1,17,43,5,1,f,images/br_f.png,images/cb_f.png,,,,,,,,,,,,,,,,,,,,,,,,,
,,,,,,,2023-10-24_15h23.07.009,vbt_B1_day1,2022.2.4,MacIntel,62.5,,,,,,,,,,,,,,,,,,,0.142222222,-0.182222222,1,0,0,14.884,1,18,44,9,1,j,images/br_j.png,images/cb_j.png,,,,,,,,,,,,,,,,,,,,,,,,,
,,,,,,,2023-10-24_15h23.07.009,vbt_B1_day1,2022.2.4,MacIntel,62.5,,,,,,,,,,,,,,,,,,,0.143333333,-0.184444444,1,0,0,2.484,1,19,45,7,1,h,images/br_h.png,images/cb_h.png,,,,,,,,,,,,,,,,,,,,,,,,,
,,,,,,,2023-10-24_15h23.07.009,vbt_B1_day1,2022.2.4,MacIntel,62.5,,,,,,,,,,,,,,,,,,,0.143333333,-0.184444444,1,0,0,27.135,1,20,46,6,1,g,images/br_g.png,images/cb_g.png,,,,,,,,,,,,,,,,,,,,,,,,,
,,,,,,,2023-10-24_15h23.07.009,vbt_B1_day1,2022.2.4,MacIntel,62.5,,,,,,,,,,,,,,,,,,,0.145555556,-0.184444444,1,0,0,18.451,1,21,47,12,1,m,images/br_m.png,images/cb_m.png,,,,,,,,,,,,,,,,,,,,,,,,,
,,,,,,,2023-10-24_15h23.07.009,vbt_B1_day1,2022.2.4,MacIntel,62.5,,,,,,,,,,,,,,,,,,,0.147777778,-0.185555556,1,0,0,6,1,22,48,1,1,b,images/br_b.png,images/cb_b.png,,,,,,,,,,,,,,,,,,,,,,,,,
,,,,,,,2023-10-24_15h23.07.009,vbt_B1_day1,2022.2.4,MacIntel,62.5,,,,,,,,,,,,,,,,,,,0.147777778,-0.185555556,1,0,0,3.05,1,23,49,4,1,e,images/br_e.png,images/cb_e.png,,,,,,,,,,,,,,,,,,,,,,,,,
,,,,,,,2023-10-24_15h23.07.009,vbt_B1_day1,2022.2.4,MacIntel,62.5,,,,,,,,,,,,,,,,,,,0.148888889,-0.186666667,1,0,0,6.683,1,24,50,3,1,d,images/br_d.png,images/cb_d.png,,,,,,,,,,,,,,,,,,,,,,,,,
,,,,,,,2023-10-24_15h23.07.009,vbt_B1_day1,2022.2.4,MacIntel,62.5,,,,,,,,,,,,,,,,,,,0.155555556,-0.186666667,1,0,0,12.934,1,25,51,14,1,o,images/br_o.png,images/cb_o.png,,,,,,,,,,,,,,,,,,,,,,,,,
,,,,,,,2023-10-24_15h23.07.009,vbt_B1_day1,2022.2.4,MacIntel,62.5,,,,,,,,,,,,,,,,,,,0.155555556,-0.186666667,1,0,0,4.968,2,0,52,23,1,x,images/br_x.png,images/cb_x.png,,,,,,,,,,,,,,,,,,,,,,,,,
,,,,,,,2023-10-24_15h23.07.009,vbt_B1_day1,2022.2.4,MacIntel,62.5,,,,,,,,,,,,,,,,,,,0.155555556,-0.186666667,1,0,0,1.101,2,1,53,14,1,o,images/br_o.png,images/cb_o.png,,,,,,,,,,,,,,,,,,,,,,,,,
,,,,,,,2023-10-24_15h23.07.009,vbt_B1_day1,2022.2.4,MacIntel,62.5,,,,,,,,,,,,,,,,,,,0.156666667,-0.186666667,1,0,0,4.35,2,2,54,8,1,i,images/br_i.png,images/cb_i.png,,,,,,,,,,,,,,,,,,,,,,,,,
,,,,,,,2023-10-24_15h23.07.009,vbt_B1_day1,2022.2.4,MacIntel,62.5,,,,,,,,,,,,,,,,,,,0.154444444,-0.186666667,1,0,0,14.817,2,3,55,13,1,n,images/br_n.png,images/cb_n.png,,,,,,,,,,,,,,,,,,,,,,,,,
,,,,,,,2023-10-24_15h23.07.009,vbt_B1_day1,2022.2.4,MacIntel,62.5,,,,,,,,,,,,,,,,,,,0.053333333,-0.124444444,1,0,0,2.601,2,4,56,7,1,h,images/br_h.png,images/cb_h.png,,,,,,,,,,,,,,,,,,,,,,,,,
,,,,,,,2023-10-24_15h23.07.009,vbt_B1_day1,2022.2.4,MacIntel,62.5,,,,,,,,,,,,,,,,,,,0.053333333,-0.124444444,1,0,0,3.733,2,5,57,22,1,w,images/br_w.png,images/cb_w.png,,,,,,,,,,,,,,,,,,,,,,,,,
,,,,,,,2023-10-24_15h23.07.009,vbt_B1_day1,2022.2.4,MacIntel,62.5,,,,,,,,,,,,,,,,,,,0.054444444,-0.124444444,1,0,0,13.235,2,6,58,1,1,b,images/br_b.png,images/cb_b.png,,,,,,,,,,,,,,,,,,,,,,,,,
,,,,,,,2023-10-24_15h23.07.009,vbt_B1_day1,2022.2.4,MacIntel,62.5,,,,,,,,,,,,,,,,,,,0.053333333,-0.124444444,1,0,0,12.783,2,7,59,17,1,r,images/br_r.png,images/cb_r.png,,,,,,,,,,,,,,,,,,,,,,,,,
,,,,,,,2023-10-24_15h23.07.009,vbt_B1_day1,2022.2.4,MacIntel,62.5,,,,,,,,,,,,,,,,,,,0.053333333,-0.124444444,1,0,0,11.95,2,8,60,4,1,e,images/br_e.png,images/cb_e.png,,,,,,,,,,,,,,,,,,,,,,,,,
,,,,,,,2023-10-24_15h23.07.009,vbt_B1_day1,2022.2.4,MacIntel,62.5,,,,,,,,,,,,,,,,,,,0.046666667,-0.123333333,1,0,0,9.75,2,9,61,15,1,p,images/br_p.png,images/cb_p.png,,,,,,,,,,,,,,,,,,,,,,,,,
,,,,,,,2023-10-24_15h23.07.009,vbt_B1_day1,2022.2.4,MacIntel,62.5,,,,,,,,,,,,,,,,,,,0.061111111,-0.12,1,0,0,3.649,2,10,62,6,1,g,images/br_g.png,images/cb_g.png,,,,,,,,,,,,,,,,,,,,,,,,,
,,,,,,,2023-10-24_15h23.07.009,vbt_B1_day1,2022.2.4,MacIntel,62.5,,,,,,,,,,,,,,,,,,,0.061111111,-0.12,1,0,0,10.666,2,11,63,21,1,v,images/br_v.png,images/cb_v.png,,,,,,,,,,,,,,,,,,,,,,,,,
,,,,,,,2023-10-24_15h23.07.009,vbt_B1_day1,2022.2.4,MacIntel,62.5,,,,,,,,,,,,,,,,,,,0.061111111,-0.12,1,0,0,3.434,2,12,64,12,1,m,images/br_m.png,images/cb_m.png,,,,,,,,,,,,,,,,,,,,,,,,,
,,,,,,,2023-10-24_15h23.07.009,vbt_B1_day1,2022.2.4,MacIntel,62.5,,,,,,,,,,,,,,,,,,,0.061111111,-0.12,1,0,0,11.433,2,13,65,19,1,t,images/br_t.png,images/cb_t.png,,,,,,,,,,,,,,,,,,,,,,,,,
,,,,,,,2023-10-24_15h23.07.009,vbt_B1_day1,2022.2.4,MacIntel,62.5,,,,,,,,,,,,,,,,,,,0.06,-0.118888889,1,0,0,9.267,2,14,66,0,1,a,images/br_a.png,images/cb_a.png,,,,,,,,,,,,,,,,,,,,,,,,,
,,,,,,,2023-10-24_15h23.07.009,vbt_B1_day1,2022.2.4,MacIntel,62.5,,,,,,,,,,,,,,,,,,,0.031111111,-0.116666667,1,0,0,16.583,2,15,67,3,1,d,images/br_d.png,images/cb_d.png,,,,,,,,,,,,,,,,,,,,,,,,,
,,,,,,,2023-10-24_15h23.07.009,vbt_B1_day1,2022.2.4,MacIntel,62.5,,,,,,,,,,,,,,,,,,,0.032222222,-0.115555556,1,0,0,10.984,2,16,68,24,1,y,images/br_y.png,images/cb_y.png,,,,,,,,,,,,,,,,,,,,,,,,,
,,,,,,,2023-10-24_15h23.07.009,vbt_B1_day1,2022.2.4,MacIntel,62.5,,,,,,,,,,,,,,,,,,,0.032222222,-0.115555556,1,0,0,1.784,2,17,69,2,1,c,images/br_c.png,images/cb_c.png,,,,,,,,,,,,,,,,,,,,,,,,,
,,,,,,,2023-10-24_15h23.07.009,vbt_B1_day1,2022.2.4,MacIntel,62.5,,,,,,,,,,,,,,,,,,,0.032222222,-0.115555556,1,0,0,12.051,2,18,70,5,1,f,images/br_f.png,images/cb_f.png,,,,,,,,,,,,,,,,,,,,,,,,,
,,,,,,,2023-10-24_15h23.07.009,vbt_B1_day1,2022.2.4,MacIntel,62.5,,,,,,,,,,,,,,,,,,,0.032222222,-0.115555556,1,0,0,16.151,2,19,71,16,1,q,images/br_q.png,images/cb_q.png,,,,,,,,,,,,,,,,,,,,,,,,,
,,,,,,,2023-10-24_15h23.07.009,vbt_B1_day1,2022.2.4,MacIntel,62.5,,,,,,,,,,,,,,,,,,,-0.047777778,-0.066666667,1,0,0,0.067,2,20,72,18,1,s,images/br_s.png,images/cb_s.png,,,,,,,,,,,,,,,,,,,,,,,,,
,,,,,,,2023-10-24_15h23.07.009,vbt_B1_day1,2022.2.4,MacIntel,62.5,,,,,,,,,,,,,,,,,,,-0.047777778,-0.066666667,1,0,0,3.249,2,21,73,10,1,k,images/br_k.png,images/cb_k.png,,,,,,,,,,,,,,,,,,,,,,,,,
,,,,,,,2023-10-24_15h23.07.009,vbt_B1_day1,2022.2.4,MacIntel,62.5,,,,,,,,,,,,,,,,,,,-0.044444444,-0.066666667,1,0,0,6.033,2,22,74,25,1,z,images/br_z.png,images/cb_z.png,,,,,,,,,,,,,,,,,,,,,,,,,
,,,,,,,2023-10-24_15h23.07.009,vbt_B1_day1,2022.2.4,MacIntel,62.5,,,,,,,,,,,,,,,,,,,-0.053333333,-0.066666667,1,0,0,7.432,2,23,75,9,1,j,images/br_j.png,images/cb_j.png,,,,,,,,,,,,,,,,,,,,,,,,,
,,,,,,,2023-10-24_15h23.07.009,vbt_B1_day1,2022.2.4,MacIntel,62.5,,,,,,,,,,,,,,,,,,,-0.05,-0.066666667,1,0,0,20.634,2,24,76,20,1,u,images/br_u.png,images/cb_u.png,,,,,,,,,,,,,,,,,,,,,,,,,
,,,,,,,2023-10-24_15h23.07.009,vbt_B1_day1,2022.2.4,MacIntel,62.5,,,,,,,,,,,,,,,,,,,-0.05,-0.066666667,1,0,0,7.484,2,25,77,11,1,l,images/br_l.png,images/cb_l.png,,,,,,,,,,,,,,,,,,,,,,,,,
,,,,,,,2023-10-24_15h23.07.009,vbt_B1_day1,2022.2.4,MacIntel,62.5,,,,,,,,,,,,,,,,,,,-0.05,-0.066666667,1,0,0,13.017,3,0,78,7,1,h,images/br_h.png,images/cb_h.png,,,,,,,,,,,,,,,,,,,,,,,,,
,,,,,,,2023-10-24_15h23.07.009,vbt_B1_day1,2022.2.4,MacIntel,62.5,,,,,,,,,,,,,,,,,,,-0.05,-0.066666667,1,0,0,1.034,3,1,79,11,1,l,images/br_l.png,images/cb_l.png,,,,,,,,,,,,,,,,,,,,,,,,,
,,,,,,,2023-10-24_15h23.07.009,vbt_B1_day1,2022.2.4,MacIntel,62.5,,,,,,,,,,,,,,,,,,,-0.05,-0.066666667,1,0,0,0.817,3,2,80,0,1,a,images/br_a.png,images/cb_a.png,,,,,,,,,,,,,,,,,,,,,,,,,
,,,,,,,2023-10-24_15h23.07.009,vbt_B1_day1,2022.2.4,MacIntel,62.5,,,,,,,,,,,,,,,,,,,-0.05,-0.066666667,1,0,0,10.635,3,3,81,5,1,f,images/br_f.png,images/cb_f.png,,,,,,,,,,,,,,,,,,,,,,,,,
,,,,,,,2023-10-24_15h23.07.009,vbt_B1_day1,2022.2.4,MacIntel,62.5,,,,,,,,,,,,,,,,,,,-0.05,-0.066666667,1,0,0,35.885,3,4,82,19,1,t,images/br_t.png,images/cb_t.png,,,,,,,,,,,,,,,,,,,,,,,,,
,,,,,,,2023-10-24_15h23.07.009,vbt_B1_day1,2022.2.4,MacIntel,62.5,,,,,,,,,,,,,,,,,,,-0.05,-0.066666667,1,0,0,1.167,3,5,83,3,1,d,images/br_d.png,images/cb_d.png,,,,,,,,,,,,,,,,,,,,,,,,,
,,,,,,,2023-10-24_15h23.07.009,vbt_B1_day1,2022.2.4,MacIntel,62.5,,,,,,,,,,,,,,,,,,,-0.045555556,-0.066666667,1,0,0,0.733,3,6,84,18,1,s,images/br_s.png,images/cb_s.png,,,,,,,,,,,,,,,,,,,,,,,,,
,,,,,,,2023-10-24_15h23.07.009,vbt_B1_day1,2022.2.4,MacIntel,62.5,,,,,,,,,,,,,,,,,,,-0.077777778,-0.132222222,1,0,0,1.033,3,7,85,25,1,z,images/br_z.png,images/cb_z.png,,,,,,,,,,,,,,,,,,,,,,,,,
,,,,,,,2023-10-24_15h23.07.009,vbt_B1_day1,2022.2.4,MacIntel,62.5,,,,,,,,,,,,,,,,,,,-0.081111111,-0.132222222,1,0,0,16.016,3,8,86,22,1,w,images/br_w.png,images/cb_w.png,,,,,,,,,,,,,,,,,,,,,,,,,
,,,,,,,2023-10-24_15h23.07.009,vbt_B1_day1,2022.2.4,MacIntel,62.5,,,,,,,,,,,,,,,,,,,-0.081111111,-0.132222222,1,0,0,0.534,3,9,87,24,1,y,images/br_y.png,images/cb_y.png,,,,,,,,,,,,,,,,,,,,,,,,,
,,,,,,,2023-10-24_15h23.07.009,vbt_B1_day1,2022.2.4,MacIntel,62.5,,,,,,,,,,,,,,,,,,,-0.081111111,-0.132222222,1,0,0,3.901,3,10,88,13,1,n,images/br_n.png,images/cb_n.png,,,,,,,,,,,,,,,,,,,,,,,,,
,,,,,,,2023-10-24_15h23.07.009,vbt_B1_day1,2022.2.4,MacIntel,62.5,,,,,,,,,,,,,,,,,,,-0.081111111,-0.132222222,1,0,0,1.516,3,11,89,6,1,g,images/br_g.png,images/cb_g.png,,,,,,,,,,,,,,,,,,,,,,,,,
,,,,,,,2023-10-24_15h23.07.009,vbt_B1_day1,2022.2.4,MacIntel,62.5,,,,,,,,,,,,,,,,,,,-0.081111111,-0.132222222,1,0,0,14.634,3,12,90,12,1,m,images/br_m.png,images/cb_m.png,,,,,,,,,,,,,,,,,,,,,,,,,
,,,,,,,2023-10-24_15h23.07.009,vbt_B1_day1,2022.2.4,MacIntel,62.5,,,,,,,,,,,,,,,,,,,-0.081111111,-0.132222222,1,0,0,0.016,3,13,91,14,1,o,images/br_o.png,images/cb_o.png,,,,,,,,,,,,,,,,,,,,,,,,,
,,,,,,,2023-10-24_15h23.07.009,vbt_B1_day1,2022.2.4,MacIntel,62.5,,,,,,,,,,,,,,,,,,,-0.057777778,-0.13,1,0,0,0.35,3,14,92,23,1,x,images/br_x.png,images/cb_x.png,,,,,,,,,,,,,,,,,,,,,,,,,
,,,,,,,2023-10-24_15h23.07.009,vbt_B1_day1,2022.2.4,MacIntel,62.5,,,,,,,,,,,,,,,,,,,-0.057777778,-0.13,1,0,0,1.033,3,15,93,10,1,k,images/br_k.png,images/cb_k.png,,,,,,,,,,,,,,,,,,,,,,,,,
,,,,,,,2023-10-24_15h23.07.009,vbt_B1_day1,2022.2.4,MacIntel,62.5,,,,,,,,,,,,,,,,,,,-0.057777778,-0.13,1,0,0,4.317,3,16,94,8,1,i,images/br_i.png,images/cb_i.png,,,,,,,,,,,,,,,,,,,,,,,,,
,,,,,,,2023-10-24_15h23.07.009,vbt_B1_day1,2022.2.4,MacIntel,62.5,,,,,,,,,,,,,,,,,,,-0.057777778,-0.13,1,0,0,2.95,3,17,95,9,1,j,images/br_j.png,images/cb_j.png,,,,,,,,,,,,,,,,,,,,,,,,,
,,,,,,,2023-10-24_15h23.07.009,vbt_B1_day1,2022.2.4,MacIntel,62.5,,,,,,,,,,,,,,,,,,,-0.032222222,-0.145555556,1,0,0,0.8,3,18,96,2,1,c,images/br_c.png,images/cb_c.png,,,,,,,,,,,,,,,,,,,,,,,,,
,,,,,,,2023-10-24_15h23.07.009,vbt_B1_day1,2022.2.4,MacIntel,62.5,,,,,,,,,,,,,,,,,,,-0.034444444,-0.145555556,1,0,0,0.9,3,19,97,4,1,e,images/br_e.png,images/cb_e.png,,,,,,,,,,,,,,,,,,,,,,,,,
,,,,,,,2023-10-24_15h23.07.009,vbt_B1_day1,2022.2.4,MacIntel,62.5,,,,,,,,,,,,,,,,,,,-0.034444444,-0.145555556,1,0,0,1.617,3,20,98,1,1,b,images/br_b.png,images/cb_b.png,,,,,,,,,,,,,,,,,,,,,,,,,
,,,,,,,2023-10-24_15h23.07.009,vbt_B1_day1,2022.2.4,MacIntel,62.5,,,,,,,,,,,,,,,,,,,-0.033333333,-0.145555556,1,0,0,18.75,3,21,99,15,1,p,images/br_p.png,images/cb_p.png,,,,,,,,,,,,,,,,,,,,,,,,,
,,,,,,,2023-10-24_15h23.07.009,vbt_B1_day1,2022.2.4,MacIntel,62.5,,,,,,,,,,,,,,,,,,,-0.034444444,-0.145555556,1,0,0,19.384,3,22,100,17,1,r,images/br_r.png,images/cb_r.png,,,,,,,,,,,,,,,,,,,,,,,,,
,,,,,,,2023-10-24_15h23.07.009,vbt_B1_day1,2022.2.4,MacIntel,62.5,,,,,,,,,,,,,,,,,,,-0.034444444,-0.145555556,1,0,0,18.285,3,23,101,20,1,u,images/br_u.png,images/cb_u.png,,,,,,,,,,,,,,,,,,,,,,,,,
,,,,,,,2023-10-24_15h23.07.009,vbt_B1_day1,2022.2.4,MacIntel,62.5,,,,,,,,,,,,,,,,,,,-0.027777778,-0.161111111,1,0,0,19.651,3,24,102,16,1,q,images/br_q.png,images/cb_q.png,,,,,,,,,,,,,,,,,,,,,,,,,
,,,,,,,2023-10-24_15h23.07.009,vbt_B1_day1,2022.2.4,MacIntel,62.5,,,,,,,,,,,,,,,,,,,-0.05,-0.163333333,1,0,0,0.934,3,25,103,21,1,v,images/br_v.png,images/cb_v.png,,,,,,,,,,,,,,,,,,,,,,,,,
,,,,,,,2023-10-24_15h23.07.009,vbt_B1_day1,2022.2.4,MacIntel,62.5,,,,,,,,,,,,,,,,,,,-0.034444444,-0.158888889,1,0,0,15.05,4,0,104,15,1,p,images/br_p.png,images/cb_p.png,,,,,,,,,,,,,,,,,,,,,,,,,
,,,,,,,2023-10-24_15h23.07.009,vbt_B1_day1,2022.2.4,MacIntel,62.5,,,,,,,,,,,,,,,,,,,-0.035555556,-0.16,1,0,0,9.85,4,1,105,9,1,j,images/br_j.png,images/cb_j.png,,,,,,,,,,,,,,,,,,,,,,,,,
,,,,,,,2023-10-24_15h23.07.009,vbt_B1_day1,2022.2.4,MacIntel,62.5,,,,,,,,,,,,,,,,,,,-0.036666667,-0.16,1,0,0,4.033,4,2,106,16,1,q,images/br_q.png,images/cb_q.png,,,,,,,,,,,,,,,,,,,,,,,,,
,,,,,,,2023-10-24_15h23.07.009,vbt_B1_day1,2022.2.4,MacIntel,62.5,,,,,,,,,,,,,,,,,,,-0.036666667,-0.16,1,0,0,0.317,4,3,107,1,1,b,images/br_b.png,images/cb_b.png,,,,,,,,,,,,,,,,,,,,,,,,,
,,,,,,,2023-10-24_15h23.07.009,vbt_B1_day1,2022.2.4,MacIntel,62.5,,,,,,,,,,,,,,,,,,,-0.036666667,-0.16,1,0,0,0.967,4,4,108,21,1,v,images/br_v.png,images/cb_v.png,,,,,,,,,,,,,,,,,,,,,,,,,
,,,,,,,2023-10-24_15h23.07.009,vbt_B1_day1,2022.2.4,MacIntel,62.5,,,,,,,,,,,,,,,,,,,0.015555556,-0.047777778,1,0,0,11.417,4,5,109,19,1,t,images/br_t.png,images/cb_t.png,,,,,,,,,,,,,,,,,,,,,,,,,
,,,,,,,2023-10-24_15h23.07.009,vbt_B1_day1,2022.2.4,MacIntel,62.5,,,,,,,,,,,,,,,,,,,-0.007777778,-0.022222222,1,0,0,9.583,4,6,110,13,1,n,images/br_n.png,images/cb_n.png,,,,,,,,,,,,,,,,,,,,,,,,,
,,,,,,,2023-10-24_15h23.07.009,vbt_B1_day1,2022.2.4,MacIntel,62.5,,,,,,,,,,,,,,,,,,,-0.007777778,-0.022222222,1,0,0,4.333,4,7,111,8,1,i,images/br_i.png,images/cb_i.png,,,,,,,,,,,,,,,,,,,,,,,,,
,,,,,,,2023-10-24_15h23.07.009,vbt_B1_day1,2022.2.4,MacIntel,62.5,,,,,,,,,,,,,,,,,,,-0.003333333,-0.03,1,0,0,2.968,4,8,112,24,1,y,images/br_y.png,images/cb_y.png,,,,,,,,,,,,,,,,,,,,,,,,,
,,,,,,,2023-10-24_15h23.07.009,vbt_B1_day1,2022.2.4,MacIntel,62.5,,,,,,,,,,,,,,,,,,,-0.003333333,-0.03,1,0,0,0.699,4,9,113,11,1,l,images/br_l.png,images/cb_l.png,,,,,,,,,,,,,,,,,,,,,,,,,
,,,,,,,2023-10-24_15h23.07.009,vbt_B1_day1,2022.2.4,MacIntel,62.5,,,,,,,,,,,,,,,,,,,-0.003333333,-0.033333333,1,0,0,8.117,4,10,114,25,1,z,images/br_z.png,images/cb_z.png,,,,,,,,,,,,,,,,,,,,,,,,,
,,,,,,,2023-10-24_15h23.07.009,vbt_B1_day1,2022.2.4,MacIntel,62.5,,,,,,,,,,,,,,,,,,,-0.003333333,-0.033333333,1,0,0,6.434,4,11,115,5,1,f,images/br_f.png,images/cb_f.png,,,,,,,,,,,,,,,,,,,,,,,,,
,,,,,,,2023-10-24_15h23.07.009,vbt_B1_day1,2022.2.4,MacIntel,62.5,,,,,,,,,,,,,,,,,,,-0.002222222,-0.027777778,1,0,0,0.65,4,12,116,14,1,o,images/br_o.png,images/cb_o.png,,,,,,,,,,,,,,,,,,,,,,,,,
,,,,,,,2023-10-24_15h23.07.009,vbt_B1_day1,2022.2.4,MacIntel,62.5,,,,,,,,,,,,,,,,,,,-0.001111111,-0.024444444,1,0,0,7.051,4,13,117,3,1,d,images/br_d.png,images/cb_d.png,,,,,,,,,,,,,,,,,,,,,,,,,
,,,,,,,2023-10-24_15h23.07.009,vbt_B1_day1,2022.2.4,MacIntel,62.5,,,,,,,,,,,,,,,,,,,-0.001111111,-0.024444444,1,0,0,19.502,4,14,118,18,1,s,images/br_s.png,images/cb_s.png,,,,,,,,,,,,,,,,,,,,,,,,,
,,,,,,,2023-10-24_15h23.07.009,vbt_B1_day1,2022.2.4,MacIntel,62.5,,,,,,,,,,,,,,,,,,,-0.001111111,-0.024444444,1,0,0,6.633,4,15,119,20,1,u,images/br_u.png,images/cb_u.png,,,,,,,,,,,,,,,,,,,,,,,,,
,,,,,,,2023-10-24_15h23.07.009,vbt_B1_day1,2022.2.4,MacIntel,62.5,,,,,,,,,,,,,,,,,,,0.097777778,-0.026666667,1,0,0,0.483,4,16,120,23,1,x,images/br_x.png,images/cb_x.png,,,,,,,,,,,,,,,,,,,,,,,,,
,,,,,,,2023-10-24_15h23.07.009,vbt_B1_day1,2022.2.4,MacIntel,62.5,,,,,,,,,,,,,,,,,,,0.125555556,-0.014444444,1,0,0,1.4,4,17,121,6,1,g,images/br_g.png,images/cb_g.png,,,,,,,,,,,,,,,,,,,,,,,,,
,,,,,,,2023-10-24_15h23.07.009,vbt_B1_day1,2022.2.4,MacIntel,62.5,,,,,,,,,,,,,,,,,,,0.125555556,-0.014444444,1,0,0,5.55,4,18,122,17,1,r,images/br_r.png,images/cb_r.png,,,,,,,,,,,,,,,,,,,,,,,,,
,,,,,,,2023-10-24_15h23.07.009,vbt_B1_day1,2022.2.4,MacIntel,62.5,,,,,,,,,,,,,,,,,,,0.125555556,-0.014444444,1,0,0,4.7,4,19,123,7,1,h,images/br_h.png,images/cb_h.png,,,,,,,,,,,,,,,,,,,,,,,,,
,,,,,,,2023-10-24_15h23.07.009,vbt_B1_day1,2022.2.4,MacIntel,62.5,,,,,,,,,,,,,,,,,,,0.125555556,-0.014444444,1,0,0,3.067,4,20,124,10,1,k,images/br_k.png,images/cb_k.png,,,,,,,,,,,,,,,,,,,,,,,,,
,,,,,,,2023-10-24_15h23.07.009,vbt_B1_day1,2022.2.4,MacIntel,62.5,,,,,,,,,,,,,,,,,,,0.125555556,-0.014444444,1,0,0,1.134,4,21,125,2,1,c,images/br_c.png,images/cb_c.png,,,,,,,,,,,,,,,,,,,,,,,,,
,,,,,,,2023-10-24_15h23.07.009,vbt_B1_day1,2022.2.4,MacIntel,62.5,,,,,,,,,,,,,,,,,,,0.125555556,-0.014444444,1,0,0,3.7,4,22,126,12,1,m,images/br_m.png,images/cb_m.png,,,,,,,,,,,,,,,,,,,,,,,,,
,,,,,,,2023-10-24_15h23.07.009,vbt_B1_day1,2022.2.4,MacIntel,62.5,,,,,,,,,,,,,,,,,,,0.125555556,-0.014444444,1,0,0,0.867,4,23,127,4,1,e,images/br_e.png,images/cb_e.png,,,,,,,,,,,,,,,,,,,,,,,,,
,,,,,,,2023-10-24_15h23.07.009,vbt_B1_day1,2022.2.4,MacIntel,62.5,,,,,,,,,,,,,,,,,,,0.125555556,-0.014444444,1,0,0,7.75,4,24,128,22,1,w,images/br_w.png,images/cb_w.png,,,,,,,,,,,,,,,,,,,,,,,,,
,,,,,,,2023-10-24_15h23.07.009,vbt_B1_day1,2022.2.4,MacIntel,62.5,,,,,,,,,,,,,,,,,,,0.125555556,-0.014444444,1,0,0,9.35,4,25,129,0,1,a,images/br_a.png,images/cb_a.png,,,,,,,,,,,,,,,,,,,,,,,,,
,,,,,,,2023-10-24_15h23.07.009,vbt_B1_day1,2022.2.4,MacIntel,62.5,,,,,,,,,,,,,,,,,,,0.125555556,-0.014444444,1,0,0,3.167,5,0,130,4,1,e,images/br_e.png,images/cb_e.png,,,,,,,,,,,,,,,,,,,,,,,,,
,,,,,,,2023-10-24_15h23.07.009,vbt_B1_day1,2022.2.4,MacIntel,62.5,,,,,,,,,,,,,,,,,,,0.125555556,-0.014444444,1,0,0,8.217,5,1,131,22,1,w,images/br_w.png,images/cb_w.png,,,,,,,,,,,,,,,,,,,,,,,,,
,,,,,,,2023-10-24_15h23.07.009,vbt_B1_day1,2022.2.4,MacIntel,62.5,,,,,,,,,,,,,,,,,,,0.126666667,-0.003333333,1,0,0,0.201,5,2,132,10,1,k,images/br_k.png,images/cb_k.png,,,,,,,,,,,,,,,,,,,,,,,,,
,,,,,,,2023-10-24_15h23.07.009,vbt_B1_day1,2022.2.4,MacIntel,62.5,,,,,,,,,,,,,,,,,,,0.126666667,-0.003333333,1,0,0,0.349,5,3,133,23,1,x,images/br_x.png,images/cb_x.png,,,,,,,,,,,,,,,,,,,,,,,,,
,,,,,,,2023-10-24_15h23.07.009,vbt_B1_day1,2022.2.4,MacIntel,62.5,,,,,,,,,,,,,,,,,,,0.126666667,-0.003333333,1,0,0,7.033,5,4,134,17,1,r,images/br_r.png,images/cb_r.png,,,,,,,,,,,,,,,,,,,,,,,,,
,,,,,,,2023-10-24_15h23.07.009,vbt_B1_day1,2022.2.4,MacIntel,62.5,,,,,,,,,,,,,,,,,,,0.126666667,-0.003333333,1,0,0,2.067,5,5,135,20,1,u,images/br_u.png,images/cb_u.png,,,,,,,,,,,,,,,,,,,,,,,,,
,,,,,,,2023-10-24_15h23.07.009,vbt_B1_day1,2022.2.4,MacIntel,62.5,,,,,,,,,,,,,,,,,,,0.136666667,-0.007777778,1,0,0,1.017,5,6,136,18,1,s,images/br_s.png,images/cb_s.png,,,,,,,,,,,,,,,,,,,,,,,,,
,,,,,,,2023-10-24_15h23.07.009,vbt_B1_day1,2022.2.4,MacIntel,62.5,,,,,,,,,,,,,,,,,,,0.136666667,-0.007777778,1,0,0,3.334,5,7,137,5,1,f,images/br_f.png,images/cb_f.png,,,,,,,,,,,,,,,,,,,,,,,,,
,,,,,,,2023-10-24_15h23.07.009,vbt_B1_day1,2022.2.4,MacIntel,62.5,,,,,,,,,,,,,,,,,,,0.136666667,-0.007777778,1,0,0,11.934,5,8,138,13,1,n,images/br_n.png,images/cb_n.png,,,,,,,,,,,,,,,,,,,,,,,,,
,,,,,,,2023-10-24_15h23.07.009,vbt_B1_day1,2022.2.4,MacIntel,62.5,,,,,,,,,,,,,,,,,,,0.135555556,-0.006666667,1,0,0,8.651,5,9,139,9,1,j,images/br_j.png,images/cb_j.png,,,,,,,,,,,,,,,,,,,,,,,,,
,,,,,,,2023-10-24_15h23.07.009,vbt_B1_day1,2022.2.4,MacIntel,62.5,,,,,,,,,,,,,,,,,,,0.134444444,-0.003333333,1,0,0,10.668,5,10,140,15,1,p,images/br_p.png,images/cb_p.png,,,,,,,,,,,,,,,,,,,,,,,,,
,,,,,,,2023-10-24_15h23.07.009,vbt_B1_day1,2022.2.4,MacIntel,62.5,,,,,,,,,,,,,,,,,,,0.134444444,-0.003333333,1,0,0,9.55,5,11,141,7,1,h,images/br_h.png,images/cb_h.png,,,,,,,,,,,,,,,,,,,,,,,,,
,,,,,,,2023-10-24_15h23.07.009,vbt_B1_day1,2022.2.4,MacIntel,62.5,,,,,,,,,,,,,,,,,,,0.186666667,-0.053333333,1,0,0,0.767,5,12,142,1,1,b,images/br_b.png,images/cb_b.png,,,,,,,,,,,,,,,,,,,,,,,,,
,,,,,,,2023-10-24_15h23.07.009,vbt_B1_day1,2022.2.4,MacIntel,62.5,,,,,,,,,,,,,,,,,,,0.172222222,-0.043333333,1,0,0,0.933,5,13,143,24,1,y,images/br_y.png,images/cb_y.png,,,,,,,,,,,,,,,,,,,,,,,,,
,,,,,,,2023-10-24_15h23.07.009,vbt_B1_day1,2022.2.4,MacIntel,62.5,,,,,,,,,,,,,,,,,,,0.172222222,-0.043333333,1,0,0,3.534,5,14,144,19,1,t,images/br_t.png,images/cb_t.png,,,,,,,,,,,,,,,,,,,,,,,,,
,,,,,,,2023-10-24_15h23.07.009,vbt_B1_day1,2022.2.4,MacIntel,62.5,,,,,,,,,,,,,,,,,,,0.172222222,-0.043333333,1,0,0,4.616,5,15,145,8,1,i,images/br_i.png,images/cb_i.png,,,,,,,,,,,,,,,,,,,,,,,,,
,,,,,,,2023-10-24_15h23.07.009,vbt_B1_day1,2022.2.4,MacIntel,62.5,,,,,,,,,,,,,,,,,,,0.193333333,-0.084444444,1,0,0,0.899,5,16,146,14,1,o,images/br_o.png,images/cb_o.png,,,,,,,,,,,,,,,,,,,,,,,,,
,,,,,,,2023-10-24_15h23.07.009,vbt_B1_day1,2022.2.4,MacIntel,62.5,,,,,,,,,,,,,,,,,,,0.215555556,-0.093333333,1,0,0,0.2,5,17,147,2,1,c,images/br_c.png,images/cb_c.png,,,,,,,,,,,,,,,,,,,,,,,,,
,,,,,,,2023-10-24_15h23.07.009,vbt_B1_day1,2022.2.4,MacIntel,62.5,,,,,,,,,,,,,,,,,,,0.215555556,-0.093333333,1,0,0,1.316,5,18,148,25,1,z,images/br_z.png,images/cb_z.png,,,,,,,,,,,,,,,,,,,,,,,,,
,,,,,,,2023-10-24_15h23.07.009,vbt_B1_day1,2022.2.4,MacIntel,62.5,,,,,,,,,,,,,,,,,,,0.221111111,-0.088888889,1,0,0,0.6,5,19,149,6,1,g,images/br_g.png,images/cb_g.png,,,,,,,,,,,,,,,,,,,,,,,,,
,,,,,,,2023-10-24_15h23.07.009,vbt_B1_day1,2022.2.4,MacIntel,62.5,,,,,,,,,,,,,,,,,,,0.215555556,-0.088888889,1,0,0,8.85,5,20,150,3,1,d,images/br_d.png,images/cb_d.png,,,,,,,,,,,,,,,,,,,,,,,,,
,,,,,,,2023-10-24_15h23.07.009,vbt_B1_day1,2022.2.4,MacIntel,62.5,,,,,,,,,,,,,,,,,,,0.215555556,-0.088888889,1,0,0,6.6,5,21,151,21,1,v,images/br_v.png,images/cb_v.png,,,,,,,,,,,,,,,,,,,,,,,,,
,,,,,,,2023-10-24_15h23.07.009,vbt_B1_day1,2022.2.4,MacIntel,62.5,,,,,,,,,,,,,,,,,,,0.215555556,-0.088888889,1,0,0,2.45,5,22,152,0,1,a,images/br_a.png,images/cb_a.png,,,,,,,,,,,,,,,,,,,,,,,,,
,,,,,,,2023-10-24_15h23.07.009,vbt_B1_day1,2022.2.4,MacIntel,62.5,,,,,,,,,,,,,,,,,,,0.228888889,-0.085555556,1,0,0,0.216,5,23,153,11,1,l,images/br_l.png,images/cb_l.png,,,,,,,,,,,,,,,,,,,,,,,,,
,,,,,,,2023-10-24_15h23.07.009,vbt_B1_day1,2022.2.4,MacIntel,62.5,,,,,,,,,,,,,,,,,,,0.228888889,-0.085555556,1,0,0,1.6,5,24,154,12,1,m,images/br_m.png,images/cb_m.png,,,,,,,,,,,,,,,,,,,,,,,,,
,,,,,,,2023-10-24_15h23.07.009,vbt_B1_day1,2022.2.4,MacIntel,62.5,,,,,,,,,,,,,,,,,,,0.228888889,-0.085555556,1,0,0,6.016,5,25,155,16,1,q,images/br_q.png,images/cb_q.png,,,,,,,,,,,,,,,,,,,,,,,,,
,,,,,,,2023-10-24_15h23.07.009,vbt_B1_day1,2022.2.4,MacIntel,62.5,,,,,,,,,,,,,,,,,,,0.228888889,-0.085555556,1,0,0,0.933,6,0,156,4,1,e,images/br_e.png,images/cb_e.png,,,,,,,,,,,,,,,,,,,,,,,,,
,,,,,,,2023-10-24_15h23.07.009,vbt_B1_day1,2022.2.4,MacIntel,62.5,,,,,,,,,,,,,,,,,,,0.228888889,-0.085555556,1,0,0,7.733,6,1,157,18,1,s,images/br_s.png,images/cb_s.png,,,,,,,,,,,,,,,,,,,,,,,,,
,,,,,,,2023-10-24_15h23.07.009,vbt_B1_day1,2022.2.4,MacIntel,62.5,,,,,,,,,,,,,,,,,,,0.228888889,-0.085555556,1,0,0,9.167,6,2,158,13,1,n,images/br_n.png,images/cb_n.png,,,,,,,,,,,,,,,,,,,,,,,,,
,,,,,,,2023-10-24_15h23.07.009,vbt_B1_day1,2022.2.4,MacIntel,62.5,,,,,,,,,,,,,,,,,,,0.258888889,-0.105555556,1,0,0,1.117,6,3,159,14,1,o,images/br_o.png,images/cb_o.png,,,,,,,,,,,,,,,,,,,,,,,,,
,,,,,,,2023-10-24_15h23.07.009,vbt_B1_day1,2022.2.4,MacIntel,62.5,,,,,,,,,,,,,,,,,,,0.258888889,-0.105555556,1,0,0,0.016,6,4,160,23,1,x,images/br_x.png,images/cb_x.png,,,,,,,,,,,,,,,,,,,,,,,,,
,,,,,,,2023-10-24_15h23.07.009,vbt_B1_day1,2022.2.4,MacIntel,62.5,,,,,,,,,,,,,,,,,,,0.258888889,-0.105555556,1,0,0,0.482,6,5,161,6,1,g,images/br_g.png,images/cb_g.png,,,,,,,,,,,,,,,,,,,,,,,,,
,,,,,,,2023-10-24_15h23.07.009,vbt_B1_day1,2022.2.4,MacIntel,62.5,,,,,,,,,,,,,,,,,,,0.26,-0.104444444,1,0,0,1.35,6,6,162,19,1,t,images/br_t.png,images/cb_t.png,,,,,,,,,,,,,,,,,,,,,,,,,
,,,,,,,2023-10-24_15h23.07.009,vbt_B1_day1,2022.2.4,MacIntel,62.5,,,,,,,,,,,,,,,,,,,0.253333333,-0.105555556,1,0,0,0.268,6,7,163,24,1,y,images/br_y.png,images/cb_y.png,,,,,,,,,,,,,,,,,,,,,,,,,
,,,,,,,2023-10-24_15h23.07.009,vbt_B1_day1,2022.2.4,MacIntel,62.5,,,,,,,,,,,,,,,,,,,0.253333333,-0.105555556,1,0,0,1.884,6,8,164,1,1,b,images/br_b.png,images/cb_b.png,,,,,,,,,,,,,,,,,,,,,,,,,
,,,,,,,2023-10-24_15h23.07.009,vbt_B1_day1,2022.2.4,MacIntel,62.5,,,,,,,,,,,,,,,,,,,0.252222222,-0.106666667,1,0,0,3.967,6,9,165,11,1,l,images/br_l.png,images/cb_l.png,,,,,,,,,,,,,,,,,,,,,,,,,
,,,,,,,2023-10-24_15h23.07.009,vbt_B1_day1,2022.2.4,MacIntel,62.5,,,,,,,,,,,,,,,,,,,0.25,-0.105555556,1,0,0,15.834,6,10,166,15,1,p,images/br_p.png,images/cb_p.png,,,,,,,,,,,,,,,,,,,,,,,,,
,,,,,,,2023-10-24_15h23.07.009,vbt_B1_day1,2022.2.4,MacIntel,62.5,,,,,,,,,,,,,,,,,,,0.251111111,-0.105555556,1,0,0,0.45,6,11,167,8,1,i,images/br_i.png,images/cb_i.png,,,,,,,,,,,,,,,,,,,,,,,,,
,,,,,,,2023-10-24_15h23.07.009,vbt_B1_day1,2022.2.4,MacIntel,62.5,,,,,,,,,,,,,,,,,,,0.252222222,-0.104444444,1,0,0,5.817,6,12,168,9,1,j,images/br_j.png,images/cb_j.png,,,,,,,,,,,,,,,,,,,,,,,,,
,,,,,,,2023-10-24_15h23.07.009,vbt_B1_day1,2022.2.4,MacIntel,62.5,,,,,,,,,,,,,,,,,,,0.252222222,-0.12,1,0,0,3.8,6,13,169,5,1,f,images/br_f.png,images/cb_f.png,,,,,,,,,,,,,,,,,,,,,,,,,
,,,,,,,2023-10-24_15h23.07.009,vbt_B1_day1,2022.2.4,MacIntel,62.5,,,,,,,,,,,,,,,,,,,0.252222222,-0.12,1,0,0,1.767,6,14,170,25,1,z,images/br_z.png,images/cb_z.png,,,,,,,,,,,,,,,,,,,,,,,,,
,,,,,,,2023-10-24_15h23.07.009,vbt_B1_day1,2022.2.4,MacIntel,62.5,,,,,,,,,,,,,,,,,,,0.252222222,-0.12,1,0,0,0.183,6,15,171,22,1,w,images/br_w.png,images/cb_w.png,,,,,,,,,,,,,,,,,,,,,,,,,
,,,,,,,2023-10-24_15h23.07.009,vbt_B1_day1,2022.2.4,MacIntel,62.5,,,,,,,,,,,,,,,,,,,0.272222222,-0.118888889,1,0,0,0.349,6,16,172,10,1,k,images/br_k.png,images/cb_k.png,,,,,,,,,,,,,,,,,,,,,,,,,
,,,,,,,2023-10-24_15h23.07.009,vbt_B1_day1,2022.2.4,MacIntel,62.5,,,,,,,,,,,,,,,,,,,0.273333333,-0.118888889,1,0,0,0.75,6,17,173,16,1,q,images/br_q.png,images/cb_q.png,,,,,,,,,,,,,,,,,,,,,,,,,
,,,,,,,2023-10-24_15h23.07.009,vbt_B1_day1,2022.2.4,MacIntel,62.5,,,,,,,,,,,,,,,,,,,0.273333333,-0.118888889,1,0,0,5.533,6,18,174,0,1,a,images/br_a.png,images/cb_a.png,,,,,,,,,,,,,,,,,,,,,,,,,
,,,,,,,2023-10-24_15h23.07.009,vbt_B1_day1,2022.2.4,MacIntel,62.5,,,,,,,,,,,,,,,,,,,0.273333333,-0.118888889,1,0,0,0.9,6,19,175,3,1,d,images/br_d.png,images/cb_d.png,,,,,,,,,,,,,,,,,,,,,,,,,
,,,,,,,2023-10-24_15h23.07.009,vbt_B1_day1,2022.2.4,MacIntel,62.5,,,,,,,,,,,,,,,,,,,0.277777778,-0.118888889,1,0,0,7.434,6,20,176,21,1,v,images/br_v.png,images/cb_v.png,,,,,,,,,,,,,,,,,,,,,,,,,
,,,,,,,2023-10-24_15h23.07.009,vbt_B1_day1,2022.2.4,MacIntel,62.5,,,,,,,,,,,,,,,,,,,0.276666667,-0.118888889,1,0,0,1.816,6,21,177,12,1,m,images/br_m.png,images/cb_m.png,,,,,,,,,,,,,,,,,,,,,,,,,
,,,,,,,2023-10-24_15h23.07.009,vbt_B1_day1,2022.2.4,MacIntel,62.5,,,,,,,,,,,,,,,,,,,0.276666667,-0.118888889,1,0,0,7.75,6,22,178,17,1,r,images/br_r.png,images/cb_r.png,,,,,,,,,,,,,,,,,,,,,,,,,
,,,,,,,2023-10-24_15h23.07.009,vbt_B1_day1,2022.2.4,MacIntel,62.5,,,,,,,,,,,,,,,,,,,0.283333333,-0.124444444,1,0,0,0.433,6,23,179,2,1,c,images/br_c.png,images/cb_c.png,,,,,,,,,,,,,,,,,,,,,,,,,
,,,,,,,2023-10-24_15h23.07.009,vbt_B1_day1,2022.2.4,MacIntel,62.5,,,,,,,,,,,,,,,,,,,0.275555556,-0.12,1,0,0,0.416,6,24,180,20,1,u,images/br_u.png,images/cb_u.png,,,,,,,,,,,,,,,,,,,,,,,,,
,,,,,,,2023-10-24_15h23.07.009,vbt_B1_day1,2022.2.4,MacIntel,62.5,,,,,,,,,,,,,,,,,,,0.274444444,-0.12,1,0,0,5.217,6,25,181,7,1,h,images/br_h.png,images/cb_h.png,,,,,,,,,,,,,,,,,,,,,,,,,
,,,,,,,2023-10-24_15h23.07.009,vbt_B1_day1,2022.2.4,MacIntel,62.5,,,,,,,,,,,,,,,,,,,,,,,,,,,,,,,,,0.274444444,-0.12,1,0,0,,,,,,,,,,,,,,,,,,,,
,,,,,,,2023-10-24_15h23.07.009,vbt_B1_day1,2022.2.4,MacIntel,62.5,,,,,,,,,,,,,,,,,,,,,,,,,,,,,,,,,,,,,,0.245555556,-0.126666667,1,0,0,,,,,,,,,,,,,,,
,,,,,,,2023-10-24_15h23.07.009,vbt_B1_day1,2022.2.4,MacIntel,62.5,,,,,,,,,,,,,,,,,,,,,,,,,,,,,,,,,,,,,,,,,,,0.078888889,-0.183333333,1,0,0,,,0,0,0,30,1,reedje,images/br_reedje.png,images/cb_reedje.png
,,,,,,,2023-10-24_15h23.07.009,vbt_B1_day1,2022.2.4,MacIntel,62.5,,,,,,,,,,,,,,,,,,,,,,,,,,,,,,,,,,,,,,,,,,,0.058888889,-0.204444444,1,0,0,,,0,1,1,36,1,vervaden,images/br_vervaden.png,images/cb_vervaden.png
,,,,,,,2023-10-24_15h23.07.009,vbt_B1_day1,2022.2.4,MacIntel,62.5,,,,,,,,,,,,,,,,,,,,,,,,,,,,,,,,,,,,,,,,,,,0.066666667,-0.137777778,1,0,0,"
","
",0,2,2,18,1,uitdelen,images/br_uitdelen.png,images/cb_uitdelen.png
,,,,,,,2023-10-24_15h23.07.009,vbt_B1_day1,2022.2.4,MacIntel,62.5,,,,,,,,,,,,,,,,,,,,,,,,,,,,,,,,,,,,,,,,,,,-0.008888889,-0.191111111,1,0,0,,,0,3,3,24,1,rezer,images/br_rezer.png,images/cb_rezer.png
,,,,,,,2023-10-24_15h23.07.009,vbt_B1_day1,2022.2.4,MacIntel,62.5,,,,,,,,,,,,,,,,,,,,,,,,,,,,,,,,,,,,,,,,,,,-0.008888889,-0.191111111,1,0,0,lo....,lo....,0,4,4,34,1,lochten,images/br_lochten.png,images/cb_lochten.png
,,,,,,,2023-10-24_15h23.07.009,vbt_B1_day1,2022.2.4,MacIntel,62.5,,,,,,,,,,,,,,,,,,,,,,,,,,,,,,,,,,,,,,,,,,,-0.013333333,-0.127777778,1,0,0,"twi...
","twi...
",0,5,5,13,1,twijfel,images/br_twijfel.png,images/cb_twijfel.png
,,,,,,,2023-10-24_15h23.07.009,vbt_B1_day1,2022.2.4,MacIntel,62.5,,,,,,,,,,,,,,,,,,,,,,,,,,,,,,,,,,,,,,,,,,,0.088888889,-0.107777778,1,0,0,"flu...
","flu...
",0,6,6,33,1,flullen,images/br_flullen.png,images/cb_flullen.png
,,,,,,,2023-10-24_15h23.07.009,vbt_B1_day1,2022.2.4,MacIntel,62.5,,,,,,,,,,,,,,,,,,,,,,,,,,,,,,,,,,,,,,,,,,,0.09,-0.031111111,1,0,0,orp...,orp...,0,7,7,53,1,opslaan,images/br_opslaan.png,images/cb_opslaan.png
,,,,,,,2023-10-24_15h23.07.009,vbt_B1_day1,2022.2.4,MacIntel,62.5,,,,,,,,,,,,,,,,,,,,,,,,,,,,,,,,,,,,,,,,,,,0.097777778,-0.002222222,1,0,0,"kli...
","kli...
",0,8,8,12,1,klimmen,images/br_klimmen.png,images/cb_klimmen.png
,,,,,,,2023-10-24_15h23.07.009,vbt_B1_day1,2022.2.4,MacIntel,62.5,,,,,,,,,,,,,,,,,,,,,,,,,,,,,,,,,,,,,,,,,,,0.185555556,0.004444444,1,0,0,"mr....
","mr....
",0,9,9,5,1,maken,images/br_maken.png,images/cb_maken.png
,,,,,,,2023-10-24_15h23.07.009,vbt_B1_day1,2022.2.4,MacIntel,62.5,,,,,,,,,,,,,,,,,,,,,,,,,,,,,,,,,,,,,,,,,,,0.215555556,0.015555556,1,0,0,"mi....
","mi....
",0,10,10,11,1,mening,images/br_mening.png,images/cb_mening.png
,,,,,,,2023-10-24_15h23.07.009,vbt_B1_day1,2022.2.4,MacIntel,62.5,,,,,,,,,,,,,,,,,,,,,,,,,,,,,,,,,,,,,,,,,,,0.156666667,-0.037777778,1,0,0,gi....,gi....,0,11,11,29,1,genond,images/br_genond.png,images/cb_genond.png
,,,,,,,2023-10-24_15h23.07.009,vbt_B1_day1,2022.2.4,MacIntel,62.5,,,,,,,,,,,,,,,,,,,,,,,,,,,,,,,,,,,,,,,,,,,0.101111111,-0.02,1,0,0,voor...,voor...,0,12,12,58,1,voorkeur,images/br_voorkeur.png,images/cb_voorkeur.png
,,,,,,,2023-10-24_15h23.07.009,vbt_B1_day1,2022.2.4,MacIntel,62.5,,,,,,,,,,,,,,,,,,,,,,,,,,,,,,,,,,,,,,,,,,,-0.041111111,0.034444444,1,0,0,"po....
","po....
",0,13,13,27,1,prort,images/br_prort.png,images/cb_prort.png
,,,,,,,2023-10-24_15h23.07.009,vbt_B1_day1,2022.2.4,MacIntel,62.5,,,,,,,,,,,,,,,,,,,,,,,,,,,,,,,,,,,,,,,,,,,-0.084444444,-0.01,1,0,0,".t....
",".t....
",0,14,14,31,1,stamen,images/br_stamen.png,images/cb_stamen.png
,,,,,,,2023-10-24_15h23.07.009,vbt_B1_day1,2022.2.4,MacIntel,62.5,,,,,,,,,,,,,,,,,,,,,,,,,,,,,,,,,,,,,,,,,,,-0.092222222,-0.192222222,1,0,0,,,0,15,15,1,1,zaal,images/br_zaal.png,images/cb_zaal.png
,,,,,,,2023-10-24_15h23.07.009,vbt_B1_day1,2022.2.4,MacIntel,62.5,,,,,,,,,,,,,,,,,,,,,,,,,,,,,,,,,,,,,,,,,,,-0.066666667,-0.103333333,1,0,0,,,0,16,16,49,1,vizier,images/br_vizier.png,images/cb_vizier.png
,,,,,,,2023-10-24_15h23.07.009,vbt_B1_day1,2022.2.4,MacIntel,62.5,,,,,,,,,,,,,,,,,,,,,,,,,,,,,,,,,,,,,,,,,,,0.051111111,-0.251111111,1,0,0,booe,booe,0,17,17,23,1,booi,images/br_booi.png,images/cb_booi.png
,,,,,,,2023-10-24_15h23.07.009,vbt_B1_day1,2022.2.4,MacIntel,62.5,,,,,,,,,,,,,,,,,,,,,,,,,,,,,,,,,,,,,,,,,,,0.051111111,-0.251111111,1,0,0,w..p,w..p,0,18,18,14,1,waarvan,images/br_waarvan.png,images/cb_waarvan.png
,,,,,,,2023-10-24_15h23.07.009,vbt_B1_day1,2022.2.4,MacIntel,62.5,,,,,,,,,,,,,,,,,,,,,,,,,,,,,,,,,,,,,,,,,,,-0.035555556,-0.136666667,1,0,0,kl...,kl...,0,19,19,7,1,klauw,images/br_klauw.png,images/cb_klauw.png
,,,,,,,2023-10-24_15h23.07.009,vbt_B1_day1,2022.2.4,MacIntel,62.5,,,,,,,,,,,,,,,,,,,,,,,,,,,,,,,,,,,,,,,,,,,-0.122222222,-0.124444444,1,0,0,j..l,j..l,0,20,20,16,1,daarheen,images/br_daarheen.png,images/cb_daarheen.png
,,,,,,,2023-10-24_15h23.07.009,vbt_B1_day1,2022.2.4,MacIntel,62.5,,,,,,,,,,,,,,,,,,,,,,,,,,,,,,,,,,,,,,,,,,,-0.08,-0.073333333,1,0,0,.c...,.c...,0,21,21,19,1,schuilen,images/br_schuilen.png,images/cb_schuilen.png
,,,,,,,2023-10-24_15h23.07.009,vbt_B1_day1,2022.2.4,MacIntel,62.5,,,,,,,,,,,,,,,,,,,,,,,,,,,,,,,,,,,,,,,,,,,-0.136666667,-0.121111111,1,0,0,bleek,bleek,0,22,22,6,1,bleek,images/br_bleek.png,images/cb_bleek.png
,,,,,,,2023-10-24_15h23.07.009,vbt_B1_day1,2022.2.4,MacIntel,62.5,,,,,,,,,,,,,,,,,,,,,,,,,,,,,,,,,,,,,,,,,,,0.01,-0.146666667,1,0,0,toe....,toe....,0,23,23,56,1,toezicht,images/br_toezicht.png,images/cb_toezicht.png
,,,,,,,2023-10-24_15h23.07.009,vbt_B1_day1,2022.2.4,MacIntel,62.5,,,,,,,,,,,,,,,,,,,,,,,,,,,,,,,,,,,,,,,,,,,-0.063333333,-0.108888889,1,0,0,"ofv...
","ofv...
",0,24,24,59,1,opvatten,images/br_opvatten.png,images/cb_opvatten.png
,,,,,,,2023-10-24_15h23.07.009,vbt_B1_day1,2022.2.4,MacIntel,62.5,,,,,,,,,,,,,,,,,,,,,,,,,,,,,,,,,,,,,,,,,,,0,-0.123333333,1,0,0,"ven...
","ven...
",0,25,25,54,1,vijftig,images/br_vijftig.png,images/cb_vijftig.png
,,,,,,,2023-10-24_15h23.07.009,vbt_B1_day1,2022.2.4,MacIntel,62.5,,,,,,,,,,,,,,,,,,,,,,,,,,,,,,,,,,,,,,,,,,,0.051111111,-0.26,1,0,0,lez,lez,0,26,26,46,1,lezen,images/br_lezen.png,images/cb_lezen.png
,,,,,,,2023-10-24_15h23.07.009,vbt_B1_day1,2022.2.4,MacIntel,62.5,,,,,,,,,,,,,,,,,,,,,,,,,,,,,,,,,,,,,,,,,,,0.053333333,-0.25,1,0,0,zu....,zu....,0,27,27,52,1,zuiplap,images/br_zuiplap.png,images/cb_zuiplap.png
,,,,,,,2023-10-24_15h23.07.009,vbt_B1_day1,2022.2.4,MacIntel,62.5,,,,,,,,,,,,,,,,,,,,,,,,,,,,,,,,,,,,,,,,,,,0.052222222,-0.248888889,1,0,0,bebp,bebp,0,28,28,28,1,bebrip,images/br_bebrip.png,images/cb_bebrip.png
,,,,,,,2023-10-24_15h23.07.009,vbt_B1_day1,2022.2.4,MacIntel,62.5,,,,,,,,,,,,,,,,,,,,,,,,,,,,,,,,,,,,,,,,,,,0.088888889,-0.287777778,1,0,0,bpe,bpe,0,29,29,25,1,brijk,images/br_brijk.png,images/cb_brijk.png
,,,,,,,2023-10-24_15h23.07.009,vbt_B1_day1,2022.2.4,MacIntel,62.5,,,,,,,,,,,,,,,,,,,,,,,,,,,,,,,,,,,,,,,,,,,0.265555556,-0.245555556,1,0,0,mee...,mee...,0,30,30,57,1,meenemen,images/br_meenemen.png,images/cb_meenemen.png
,,,,,,,2023-10-24_15h23.07.009,vbt_B1_day1,2022.2.4,MacIntel,62.5,,,,,,,,,,,,,,,,,,,,,,,,,,,,,,,,,,,,,,,,,,,0.285555556,-0.234444444,1,0,0,"re...
","re...
",0,31,31,55,1,tekenen,images/br_tekenen.png,images/cb_tekenen.png
,,,,,,,2023-10-24_15h23.07.009,vbt_B1_day1,2022.2.4,MacIntel,62.5,,,,,,,,,,,,,,,,,,,,,,,,,,,,,,,,,,,,,,,,,,,0.064444444,-0.113333333,1,0,0,".ec...
",".ec...
",0,32,32,48,1,fictie,images/br_fictie.png,images/cb_fictie.png
,,,,,,,2023-10-24_15h23.07.009,vbt_B1_day1,2022.2.4,MacIntel,62.5,,,,,,,,,,,,,,,,,,,,,,,,,,,,,,,,,,,,,,,,,,,0.332222222,-0.09,1,0,0,".l...
",".l...
",0,33,33,0,1,slak,images/br_slak.png,images/cb_slak.png
,,,,,,,2023-10-24_15h23.07.009,vbt_B1_day1,2022.2.4,MacIntel,62.5,,,,,,,,,,,,,,,,,,,,,,,,,,,,,,,,,,,,,,,,,,,0.321111111,-0.093333333,1,0,0,v.r...,v.r...,0,34,34,26,1,valop,images/br_valop.png,images/cb_valop.png
,,,,,,,2023-10-24_15h23.07.009,vbt_B1_day1,2022.2.4,MacIntel,62.5,,,,,,,,,,,,,,,,,,,,,,,,,,,,,,,,,,,,,,,,,,,0.265555556,-0.09,1,0,0,"loo...
","loo...
",0,35,35,47,1,loods,images/br_loods.png,images/cb_loods.png
,,,,,,,2023-10-24_15h23.07.009,vbt_B1_day1,2022.2.4,MacIntel,62.5,,,,,,,,,,,,,,,,,,,,,,,,,,,,,,,,,,,,,,,,,,,0.262222222,-0.09,1,0,0,,,0,36,36,4,1,schep,images/br_schep.png,images/cb_schep.png
,,,,,,,2023-10-24_15h23.07.009,vbt_B1_day1,2022.2.4,MacIntel,62.5,,,,,,,,,,,,,,,,,,,,,,,,,,,,,,,,,,,,,,,,,,,0.262222222,-0.09,1,0,0,.ier..,.ier..,0,37,37,15,1,hiervan,images/br_hiervan.png,images/cb_hiervan.png
,,,,,,,2023-10-24_15h23.07.009,vbt_B1_day1,2022.2.4,MacIntel,62.5,,,,,,,,,,,,,,,,,,,,,,,,,,,,,,,,,,,,,,,,,,,0.284444444,-0.076666667,1,0,0,naa,naa,0,38,38,2,1,jaar,images/br_jaar.png,images/cb_jaar.png
,,,,,,,2023-10-24_15h23.07.009,vbt_B1_day1,2022.2.4,MacIntel,62.5,,,,,,,,,,,,,,,,,,,,,,,,,,,,,,,,,,,,,,,,,,,0.276666667,-0.077777778,1,0,0,".t...
",".t...
",0,39,39,35,1,stuikem,images/br_stuikem.png,images/cb_stuikem.png
,,,,,,,2023-10-24_15h23.07.009,vbt_B1_day1,2022.2.4,MacIntel,62.5,,,,,,,,,,,,,,,,,,,,,,,,,,,,,,,,,,,,,,,,,,,0.347777778,-0.213333333,1,0,0,liege.,liege.,0,40,40,50,1,liegen,images/br_liegen.png,images/cb_liegen.png
,,,,,,,2023-10-24_15h23.07.009,vbt_B1_day1,2022.2.4,MacIntel,62.5,,,,,,,,,,,,,,,,,,,,,,,,,,,,,,,,,,,,,,,,,,,0.374444444,-0.162222222,1,0,0,voo.e..,voo.e..,0,41,41,39,1,voorreur,images/br_voorreur.png,images/cb_voorreur.png
,,,,,,,2023-10-24_15h23.07.009,vbt_B1_day1,2022.2.4,MacIntel,62.5,,,,,,,,,,,,,,,,,,,,,,,,,,,,,,,,,,,,,,,,,,,0.144444444,-0.133333333,1,0,0,lava,lava,0,42,42,43,1,lava,images/br_lava.png,images/cb_lava.png
,,,,,,,2023-10-24_15h23.07.009,vbt_B1_day1,2022.2.4,MacIntel,62.5,,,,,,,,,,,,,,,,,,,,,,,,,,,,,,,,,,,,,,,,,,,0.112222222,-0.112222222,1,0,0,,,0,43,43,21,1,dred,images/br_dred.png,images/cb_dred.png
,,,,,,,2023-10-24_15h23.07.009,vbt_B1_day1,2022.2.4,MacIntel,62.5,,,,,,,,,,,,,,,,,,,,,,,,,,,,,,,,,,,,,,,,,,,0.283333333,-0.052222222,1,0,0,"kas...
","kas...
",0,44,44,8,1,kanjer,images/br_kanjer.png,images/cb_kanjer.png
,,,,,,,2023-10-24_15h23.07.009,vbt_B1_day1,2022.2.4,MacIntel,62.5,,,,,,,,,,,,,,,,,,,,,,,,,,,,,,,,,,,,,,,,,,,0.281111111,-0.074444444,1,0,0,".e..el
",".e..el
",0,45,45,45,1,hemel,images/br_hemel.png,images/cb_hemel.png
,,,,,,,2023-10-24_15h23.07.009,vbt_B1_day1,2022.2.4,MacIntel,62.5,,,,,,,,,,,,,,,,,,,,,,,,,,,,,,,,,,,,,,,,,,,0.235555556,-0.263333333,1,0,0,,,0,46,46,37,1,spanzing,images/br_spanzing.png,images/cb_spanzing.png
,,,,,,,2023-10-24_15h23.07.009,vbt_B1_day1,2022.2.4,MacIntel,62.5,,,,,,,,,,,,,,,,,,,,,,,,,,,,,,,,,,,,,,,,,,,0.342222222,-0.248888889,1,0,0,".ie.
",".ie.
",0,47,47,40,1,dief,images/br_dief.png,images/cb_dief.png
,,,,,,,2023-10-24_15h23.07.009,vbt_B1_day1,2022.2.4,MacIntel,62.5,,,,,,,,,,,,,,,,,,,,,,,,,,,,,,,,,,,,,,,,,,,0.344444444,-0.248888889,1,0,0,"k.o.
","k.o.
",0,48,48,22,1,knoe,images/br_knoe.png,images/cb_knoe.png
,,,,,,,2023-10-24_15h23.07.009,vbt_B1_day1,2022.2.4,MacIntel,62.5,,,,,,,,,,,,,,,,,,,,,,,,,,,,,,,,,,,,,,,,,,,0.392222222,-0.247777778,1,0,0,ta..,ta..,0,49,49,20,1,tars,images/br_tars.png,images/cb_tars.png
,,,,,,,2023-10-24_15h23.07.009,vbt_B1_day1,2022.2.4,MacIntel,62.5,,,,,,,,,,,,,,,,,,,,,,,,,,,,,,,,,,,,,,,,,,,0.424444444,-0.243333333,1,0,0,"ma..
","ma..
",0,50,50,3,1,mand,images/br_mand.png,images/cb_mand.png
,,,,,,,2023-10-24_15h23.07.009,vbt_B1_day1,2022.2.4,MacIntel,62.5,,,,,,,,,,,,,,,,,,,,,,,,,,,,,,,,,,,,,,,,,,,0.432222222,-0.154444444,1,0,0,.ubb.,.ubb.,0,51,51,9,1,dubbel,images/br_dubbel.png,images/cb_dubbel.png
,,,,,,,2023-10-24_15h23.07.009,vbt_B1_day1,2022.2.4,MacIntel,62.5,,,,,,,,,,,,,,,,,,,,,,,,,,,,,,,,,,,,,,,,,,,0.478888889,-0.153333333,1,0,0,hoog,hoog,0,52,52,41,1,hoog,images/br_hoog.png,images/cb_hoog.png
,,,,,,,2023-10-24_15h23.07.009,vbt_B1_day1,2022.2.4,MacIntel,62.5,,,,,,,,,,,,,,,,,,,,,,,,,,,,,,,,,,,,,,,,,,,0.573333333,-0.287777778,1,0,0,.u...,.u...,0,53,53,10,1,muziek,images/br_muziek.png,images/cb_muziek.png
,,,,,,,2023-10-24_15h23.07.009,vbt_B1_day1,2022.2.4,MacIntel,62.5,,,,,,,,,,,,,,,,,,,,,,,,,,,,,,,,,,,,,,,,,,,0.585555556,-0.253333333,1,0,0,.t...,.t...,0,54,54,42,1,stuk,images/br_stuk.png,images/cb_stuk.png
,,,,,,,2023-10-24_15h23.07.009,vbt_B1_day1,2022.2.4,MacIntel,62.5,,,,,,,,,,,,,,,,,,,,,,,,,,,,,,,,,,,,,,,,,,,0.467777778,-0.272222222,1,0,0,lief..,lief..,0,55,55,51,1,liefde,images/br_liefde.png,images/cb_liefde.png
,,,,,,,2023-10-24_15h23.07.009,vbt_B1_day1,2022.2.4,MacIntel,62.5,,,,,,,,,,,,,,,,,,,,,,,,,,,,,,,,,,,,,,,,,,,0.446666667,-0.275555556,1,0,0,offla...,offla...,0,56,56,32,1,opplaan,images/br_opplaan.png,images/cb_opplaan.png
,,,,,,,2023-10-24_15h23.07.009,vbt_B1_day1,2022.2.4,MacIntel,62.5,,,,,,,,,,,,,,,,,,,,,,,,,,,,,,,,,,,,,,,,,,,0.466666667,-0.273333333,1,0,0,.c....,.c....,0,57,57,38,1,schielen,images/br_schielen.png,images/cb_schielen.png
,,,,,,,2023-10-24_15h23.07.009,vbt_B1_day1,2022.2.4,MacIntel,62.5,,,,,,,,,,,,,,,,,,,,,,,,,,,,,,,,,,,,,,,,,,,0.484444444,-0.262222222,1,0,0,ki.z.,ki.z.,0,58,58,44,1,wijze,images/br_wijze.png,images/cb_wijze.png
,,,,,,,2023-10-24_15h23.07.009,vbt_B1_day1,2022.2.4,MacIntel,62.5,,,,,,,,,,,,,,,,,,,,,,,,,,,,,,,,,,,,,,,,,,,0.431111111,-0.328888889,1,0,0,atti...,atti...,0,59,59,17,1,attentie,images/br_attentie.png,images/cb_attentie.png
,,,,,,,2023-10-24_15h23.07.009,vbt_B1_day1,2022.2.4,MacIntel,62.5,,,,,,,,,,,,,,,,,,,,,,,,,,,,,,,,,,,,,,,,,,,,,,,,,,,,,,,,,
