welcome_mouse.x,welcome_mouse.y,welcome_mouse.leftButton,welcome_mouse.midButton,welcome_mouse.rightButton,welcome_mouse.time,"ID",date,expName,psychopyVersion,OS,frameRate,mouse_2.x,mouse_2.y,mouse_2.leftButton,mouse_2.midButton,mouse_2.rightButton,mouse_2.time,mouse_3.x,mouse_3.y,mouse_3.leftButton,mouse_3.midButton,mouse_3.rightButton,mouse_3.time,train_mouse.x,train_mouse.y,train_mouse.leftButton,train_mouse.midButton,train_mouse.rightButton,train_mouse.time,braille_mouse.x,braille_mouse.y,braille_mouse.leftButton,braille_mouse.midButton,braille_mouse.rightButton,braille_mouse.time,trials.thisRepN,trials.thisTrialN,trials.thisN,trials.thisIndex,trials.ran,nlLet,brLet,cbLet,mouse.x,mouse.y,mouse.leftButton,mouse.midButton,mouse.rightButton,testInstr_mouse.x,testInstr_mouse.y,testInstr_mouse.leftButton,testInstr_mouse.midButton,testInstr_mouse.rightButton,test_mouse.x,test_mouse.y,test_mouse.leftButton,test_mouse.midButton,test_mouse.rightButton,test_response.text,testResp,test_loop.thisRepN,test_loop.thisTrialN,test_loop.thisN,test_loop.thisIndex,test_loop.ran,nlWrd,brWrd,cbWrd
0.548148148,-0.125,1,0,0,15.9889,00020,2023-08-18_12h06.40.167,vbt_B1_day1,2022.2.4,Win32,59.79073244,,,,,,,,,,,,,,,,,,,,,,,,,,,,,,,,,,,,,,,,,,,,,,,,,,,,,,,,,
,,,,,,00020,2023-08-18_12h06.40.167,vbt_B1_day1,2022.2.4,Win32,59.79073244,0.548148148,-0.125,1,0,0,9.7813,,,,,,,,,,,,,,,,,,,,,,,,,,,,,,,,,,,,,,,,,,,,,,,,,,,
,,,,,,00020,2023-08-18_12h06.40.167,vbt_B1_day1,2022.2.4,Win32,59.79073244,,,,,,,0.549074074,-0.124074074,1,0,0,26.3165,,,,,,,,,,,,,,,,,,,,,,,,,,,,,,,,,,,,,,,,,,,,,
,,,,,,00020,2023-08-18_12h06.40.167,vbt_B1_day1,2022.2.4,Win32,59.79073244,,,,,,,,,,,,,0.549074074,-0.124074074,1,0,0,7.2628,,,,,,,,,,,,,,,,,,,,,,,,,,,,,,,,,,,,,,,
,,,,,,00020,2023-08-18_12h06.40.167,vbt_B1_day1,2022.2.4,Win32,59.79073244,,,,,,,,,,,,,,,,,,,0.342592593,-0.180555556,1,0,0,7.217,0,0,0,22,1,w,images/br_w.png,images/cb_w.png,,,,,,,,,,,,,,,,,,,,,,,,,
,,,,,,00020,2023-08-18_12h06.40.167,vbt_B1_day1,2022.2.4,Win32,59.79073244,,,,,,,,,,,,,,,,,,,0.342592593,-0.180555556,1,0,0,5.5335,0,1,1,16,1,q,images/br_q.png,images/cb_q.png,,,,,,,,,,,,,,,,,,,,,,,,,
,,,,,,00020,2023-08-18_12h06.40.167,vbt_B1_day1,2022.2.4,Win32,59.79073244,,,,,,,,,,,,,,,,,,,0.342592593,-0.180555556,1,0,0,5.1166,0,2,2,19,1,t,images/br_t.png,images/cb_t.png,,,,,,,,,,,,,,,,,,,,,,,,,
,,,,,,00020,2023-08-18_12h06.40.167,vbt_B1_day1,2022.2.4,Win32,59.79073244,,,,,,,,,,,,,,,,,,,0.342592593,-0.180555556,1,0,0,9.8504,0,3,3,0,1,a,images/br_a.png,images/cb_a.png,,,,,,,,,,,,,,,,,,,,,,,,,
,,,,,,00020,2023-08-18_12h06.40.167,vbt_B1_day1,2022.2.4,Win32,59.79073244,,,,,,,,,,,,,,,,,,,0.342592593,-0.180555556,1,0,0,0.4494,0,4,4,25,1,z,images/br_z.png,images/cb_z.png,,,,,,,,,,,,,,,,,,,,,,,,,
,,,,,,00020,2023-08-18_12h06.40.167,vbt_B1_day1,2022.2.4,Win32,59.79073244,,,,,,,,,,,,,,,,,,,0.342592593,-0.180555556,1,0,0,6.967,0,5,5,10,1,k,images/br_k.png,images/cb_k.png,,,,,,,,,,,,,,,,,,,,,,,,,
,,,,,,00020,2023-08-18_12h06.40.167,vbt_B1_day1,2022.2.4,Win32,59.79073244,,,,,,,,,,,,,,,,,,,0.342592593,-0.180555556,1,0,0,2.0327,0,6,6,3,1,d,images/br_d.png,images/cb_d.png,,,,,,,,,,,,,,,,,,,,,,,,,
,,,,,,00020,2023-08-18_12h06.40.167,vbt_B1_day1,2022.2.4,Win32,59.79073244,,,,,,,,,,,,,,,,,,,0.342592593,-0.180555556,1,0,0,1.3997,0,7,7,18,1,s,images/br_s.png,images/cb_s.png,,,,,,,,,,,,,,,,,,,,,,,,,
,,,,,,00020,2023-08-18_12h06.40.167,vbt_B1_day1,2022.2.4,Win32,59.79073244,,,,,,,,,,,,,,,,,,,0.342592593,-0.180555556,1,0,0,0.8332,0,8,8,21,1,v,images/br_v.png,images/cb_v.png,,,,,,,,,,,,,,,,,,,,,,,,,
,,,,,,00020,2023-08-18_12h06.40.167,vbt_B1_day1,2022.2.4,Win32,59.79073244,,,,,,,,,,,,,,,,,,,0.34537037,-0.197222222,1,0,0,1.8333,0,9,9,23,1,x,images/br_x.png,images/cb_x.png,,,,,,,,,,,,,,,,,,,,,,,,,
,,,,,,00020,2023-08-18_12h06.40.167,vbt_B1_day1,2022.2.4,Win32,59.79073244,,,,,,,,,,,,,,,,,,,0.346296296,-0.197222222,1,0,0,1.6,0,10,10,12,1,m,images/br_m.png,images/cb_m.png,,,,,,,,,,,,,,,,,,,,,,,,,
,,,,,,00020,2023-08-18_12h06.40.167,vbt_B1_day1,2022.2.4,Win32,59.79073244,,,,,,,,,,,,,,,,,,,0.346296296,-0.197222222,1,0,0,2.2168,0,11,11,7,1,h,images/br_h.png,images/cb_h.png,,,,,,,,,,,,,,,,,,,,,,,,,
,,,,,,00020,2023-08-18_12h06.40.167,vbt_B1_day1,2022.2.4,Win32,59.79073244,,,,,,,,,,,,,,,,,,,0.346296296,-0.197222222,1,0,0,2.9164,0,12,12,6,1,g,images/br_g.png,images/cb_g.png,,,,,,,,,,,,,,,,,,,,,,,,,
,,,,,,00020,2023-08-18_12h06.40.167,vbt_B1_day1,2022.2.4,Win32,59.79073244,,,,,,,,,,,,,,,,,,,0.346296296,-0.197222222,1,0,0,0.5169,0,13,13,8,1,i,images/br_i.png,images/cb_i.png,,,,,,,,,,,,,,,,,,,,,,,,,
,,,,,,00020,2023-08-18_12h06.40.167,vbt_B1_day1,2022.2.4,Win32,59.79073244,,,,,,,,,,,,,,,,,,,0.346296296,-0.196296296,1,0,0,2.8833,0,14,14,1,1,b,images/br_b.png,images/cb_b.png,,,,,,,,,,,,,,,,,,,,,,,,,
,,,,,,00020,2023-08-18_12h06.40.167,vbt_B1_day1,2022.2.4,Win32,59.79073244,,,,,,,,,,,,,,,,,,,0.346296296,-0.196296296,1,0,0,3.5333,0,15,15,24,1,y,images/br_y.png,images/cb_y.png,,,,,,,,,,,,,,,,,,,,,,,,,
,,,,,,00020,2023-08-18_12h06.40.167,vbt_B1_day1,2022.2.4,Win32,59.79073244,,,,,,,,,,,,,,,,,,,0.149074074,-0.108333333,1,0,0,3.2833,0,16,16,5,1,f,images/br_f.png,images/cb_f.png,,,,,,,,,,,,,,,,,,,,,,,,,
,,,,,,00020,2023-08-18_12h06.40.167,vbt_B1_day1,2022.2.4,Win32,59.79073244,,,,,,,,,,,,,,,,,,,0.197222222,-0.109259259,1,0,0,0.6168,0,17,17,11,1,l,images/br_l.png,images/cb_l.png,,,,,,,,,,,,,,,,,,,,,,,,,
,,,,,,00020,2023-08-18_12h06.40.167,vbt_B1_day1,2022.2.4,Win32,59.79073244,,,,,,,,,,,,,,,,,,,0.32962963,-0.093518519,1,0,0,2.7836,0,18,18,20,1,u,images/br_u.png,images/cb_u.png,,,,,,,,,,,,,,,,,,,,,,,,,
,,,,,,00020,2023-08-18_12h06.40.167,vbt_B1_day1,2022.2.4,Win32,59.79073244,,,,,,,,,,,,,,,,,,,0.32962963,-0.093518519,1,0,0,2.4826,0,19,19,17,1,r,images/br_r.png,images/cb_r.png,,,,,,,,,,,,,,,,,,,,,,,,,
,,,,,,00020,2023-08-18_12h06.40.167,vbt_B1_day1,2022.2.4,Win32,59.79073244,,,,,,,,,,,,,,,,,,,0.32962963,-0.093518519,1,0,0,3.4168,0,20,20,14,1,o,images/br_o.png,images/cb_o.png,,,,,,,,,,,,,,,,,,,,,,,,,
,,,,,,00020,2023-08-18_12h06.40.167,vbt_B1_day1,2022.2.4,Win32,59.79073244,,,,,,,,,,,,,,,,,,,0.327777778,-0.110185185,1,0,0,1.8002,0,21,21,13,1,n,images/br_n.png,images/cb_n.png,,,,,,,,,,,,,,,,,,,,,,,,,
,,,,,,00020,2023-08-18_12h06.40.167,vbt_B1_day1,2022.2.4,Win32,59.79073244,,,,,,,,,,,,,,,,,,,0.327777778,-0.110185185,1,0,0,0.1502,0,22,22,4,1,e,images/br_e.png,images/cb_e.png,,,,,,,,,,,,,,,,,,,,,,,,,
,,,,,,00020,2023-08-18_12h06.40.167,vbt_B1_day1,2022.2.4,Win32,59.79073244,,,,,,,,,,,,,,,,,,,0.235185185,-0.147222222,1,0,0,1.3167,0,23,23,9,1,j,images/br_j.png,images/cb_j.png,,,,,,,,,,,,,,,,,,,,,,,,,
,,,,,,00020,2023-08-18_12h06.40.167,vbt_B1_day1,2022.2.4,Win32,59.79073244,,,,,,,,,,,,,,,,,,,0.235185185,-0.148148148,1,0,0,2.3998,0,24,24,15,1,p,images/br_p.png,images/cb_p.png,,,,,,,,,,,,,,,,,,,,,,,,,
,,,,,,00020,2023-08-18_12h06.40.167,vbt_B1_day1,2022.2.4,Win32,59.79073244,,,,,,,,,,,,,,,,,,,0.234259259,-0.148148148,1,0,0,1.2171,0,25,25,2,1,c,images/br_c.png,images/cb_c.png,,,,,,,,,,,,,,,,,,,,,,,,,
,,,,,,00020,2023-08-18_12h06.40.167,vbt_B1_day1,2022.2.4,Win32,59.79073244,,,,,,,,,,,,,,,,,,,0.234259259,-0.148148148,1,0,0,3.4162,1,0,26,17,1,r,images/br_r.png,images/cb_r.png,,,,,,,,,,,,,,,,,,,,,,,,,
,,,,,,00020,2023-08-18_12h06.40.167,vbt_B1_day1,2022.2.4,Win32,59.79073244,,,,,,,,,,,,,,,,,,,0.234259259,-0.148148148,1,0,0,0.0332,1,1,27,21,1,v,images/br_v.png,images/cb_v.png,,,,,,,,,,,,,,,,,,,,,,,,,
,,,,,,00020,2023-08-18_12h06.40.167,vbt_B1_day1,2022.2.4,Win32,59.79073244,,,,,,,,,,,,,,,,,,,0.234259259,-0.148148148,1,0,0,0.9671,1,2,28,2,1,c,images/br_c.png,images/cb_c.png,,,,,,,,,,,,,,,,,,,,,,,,,
,,,,,,00020,2023-08-18_12h06.40.167,vbt_B1_day1,2022.2.4,Win32,59.79073244,,,,,,,,,,,,,,,,,,,0.234259259,-0.148148148,1,0,0,0.5164,1,3,29,12,1,m,images/br_m.png,images/cb_m.png,,,,,,,,,,,,,,,,,,,,,,,,,
,,,,,,00020,2023-08-18_12h06.40.167,vbt_B1_day1,2022.2.4,Win32,59.79073244,,,,,,,,,,,,,,,,,,,0.234259259,-0.148148148,1,0,0,0.5666,1,4,30,9,1,j,images/br_j.png,images/cb_j.png,,,,,,,,,,,,,,,,,,,,,,,,,
,,,,,,00020,2023-08-18_12h06.40.167,vbt_B1_day1,2022.2.4,Win32,59.79073244,,,,,,,,,,,,,,,,,,,0.234259259,-0.148148148,1,0,0,0.9665,1,5,31,18,1,s,images/br_s.png,images/cb_s.png,,,,,,,,,,,,,,,,,,,,,,,,,
,,,,,,00020,2023-08-18_12h06.40.167,vbt_B1_day1,2022.2.4,Win32,59.79073244,,,,,,,,,,,,,,,,,,,0.241666667,-0.141666667,1,0,0,2.8327,1,6,32,1,1,b,images/br_b.png,images/cb_b.png,,,,,,,,,,,,,,,,,,,,,,,,,
,,,,,,00020,2023-08-18_12h06.40.167,vbt_B1_day1,2022.2.4,Win32,59.79073244,,,,,,,,,,,,,,,,,,,0.241666667,-0.141666667,1,0,0,0.5167,1,7,33,23,1,x,images/br_x.png,images/cb_x.png,,,,,,,,,,,,,,,,,,,,,,,,,
,,,,,,00020,2023-08-18_12h06.40.167,vbt_B1_day1,2022.2.4,Win32,59.79073244,,,,,,,,,,,,,,,,,,,0.260185185,-0.140740741,1,0,0,1.3334,1,8,34,6,1,g,images/br_g.png,images/cb_g.png,,,,,,,,,,,,,,,,,,,,,,,,,
,,,,,,00020,2023-08-18_12h06.40.167,vbt_B1_day1,2022.2.4,Win32,59.79073244,,,,,,,,,,,,,,,,,,,0.260185185,-0.139814815,1,0,0,0.7,1,9,35,10,1,k,images/br_k.png,images/cb_k.png,,,,,,,,,,,,,,,,,,,,,,,,,
,,,,,,00020,2023-08-18_12h06.40.167,vbt_B1_day1,2022.2.4,Win32,59.79073244,,,,,,,,,,,,,,,,,,,0.260185185,-0.139814815,1,0,0,0.4496,1,10,36,8,1,i,images/br_i.png,images/cb_i.png,,,,,,,,,,,,,,,,,,,,,,,,,
,,,,,,00020,2023-08-18_12h06.40.167,vbt_B1_day1,2022.2.4,Win32,59.79073244,,,,,,,,,,,,,,,,,,,0.260185185,-0.139814815,1,0,0,2.2831,1,11,37,11,1,l,images/br_l.png,images/cb_l.png,,,,,,,,,,,,,,,,,,,,,,,,,
,,,,,,00020,2023-08-18_12h06.40.167,vbt_B1_day1,2022.2.4,Win32,59.79073244,,,,,,,,,,,,,,,,,,,0.260185185,-0.139814815,1,0,0,1.3498,1,12,38,14,1,o,images/br_o.png,images/cb_o.png,,,,,,,,,,,,,,,,,,,,,,,,,
,,,,,,00020,2023-08-18_12h06.40.167,vbt_B1_day1,2022.2.4,Win32,59.79073244,,,,,,,,,,,,,,,,,,,0.260185185,-0.139814815,1,0,0,0.3,1,13,39,22,1,w,images/br_w.png,images/cb_w.png,,,,,,,,,,,,,,,,,,,,,,,,,
,,,,,,00020,2023-08-18_12h06.40.167,vbt_B1_day1,2022.2.4,Win32,59.79073244,,,,,,,,,,,,,,,,,,,0.260185185,-0.139814815,1,0,0,0.8673,1,14,40,24,1,y,images/br_y.png,images/cb_y.png,,,,,,,,,,,,,,,,,,,,,,,,,
,,,,,,00020,2023-08-18_12h06.40.167,vbt_B1_day1,2022.2.4,Win32,59.79073244,,,,,,,,,,,,,,,,,,,0.260185185,-0.139814815,1,0,0,0.3329,1,15,41,15,1,p,images/br_p.png,images/cb_p.png,,,,,,,,,,,,,,,,,,,,,,,,,
,,,,,,00020,2023-08-18_12h06.40.167,vbt_B1_day1,2022.2.4,Win32,59.79073244,,,,,,,,,,,,,,,,,,,0.3,-0.153703704,1,0,0,3.1171,1,16,42,16,1,q,images/br_q.png,images/cb_q.png,,,,,,,,,,,,,,,,,,,,,,,,,
,,,,,,00020,2023-08-18_12h06.40.167,vbt_B1_day1,2022.2.4,Win32,59.79073244,,,,,,,,,,,,,,,,,,,0.3,-0.153703704,1,0,0,0.583,1,17,43,0,1,a,images/br_a.png,images/cb_a.png,,,,,,,,,,,,,,,,,,,,,,,,,
,,,,,,00020,2023-08-18_12h06.40.167,vbt_B1_day1,2022.2.4,Win32,59.79073244,,,,,,,,,,,,,,,,,,,0.308333333,-0.137037037,1,0,0,0.283,1,18,44,19,1,t,images/br_t.png,images/cb_t.png,,,,,,,,,,,,,,,,,,,,,,,,,
,,,,,,00020,2023-08-18_12h06.40.167,vbt_B1_day1,2022.2.4,Win32,59.79073244,,,,,,,,,,,,,,,,,,,0.308333333,-0.137037037,1,0,0,0.3498,1,19,45,5,1,f,images/br_f.png,images/cb_f.png,,,,,,,,,,,,,,,,,,,,,,,,,
,,,,,,00020,2023-08-18_12h06.40.167,vbt_B1_day1,2022.2.4,Win32,59.79073244,,,,,,,,,,,,,,,,,,,0.32037037,-0.060185185,1,0,0,1.9333,1,20,46,20,1,u,images/br_u.png,images/cb_u.png,,,,,,,,,,,,,,,,,,,,,,,,,
,,,,,,00020,2023-08-18_12h06.40.167,vbt_B1_day1,2022.2.4,Win32,59.79073244,,,,,,,,,,,,,,,,,,,0.32037037,-0.060185185,1,0,0,0.6001,1,21,47,4,1,e,images/br_e.png,images/cb_e.png,,,,,,,,,,,,,,,,,,,,,,,,,
,,,,,,00020,2023-08-18_12h06.40.167,vbt_B1_day1,2022.2.4,Win32,59.79073244,,,,,,,,,,,,,,,,,,,0.212962963,-0.062037037,1,0,0,0.6076,1,22,48,7,1,h,images/br_h.png,images/cb_h.png,,,,,,,,,,,,,,,,,,,,,,,,,
,,,,,,00020,2023-08-18_12h06.40.167,vbt_B1_day1,2022.2.4,Win32,59.79073244,,,,,,,,,,,,,,,,,,,0.212962963,-0.062037037,1,0,0,1.4329,1,23,49,3,1,d,images/br_d.png,images/cb_d.png,,,,,,,,,,,,,,,,,,,,,,,,,
,,,,,,00020,2023-08-18_12h06.40.167,vbt_B1_day1,2022.2.4,Win32,59.79073244,,,,,,,,,,,,,,,,,,,0.242592593,-0.069444444,1,0,0,0.7168,1,24,50,13,1,n,images/br_n.png,images/cb_n.png,,,,,,,,,,,,,,,,,,,,,,,,,
,,,,,,00020,2023-08-18_12h06.40.167,vbt_B1_day1,2022.2.4,Win32,59.79073244,,,,,,,,,,,,,,,,,,,0.242592593,-0.069444444,1,0,0,0.0504,1,25,51,25,1,z,images/br_z.png,images/cb_z.png,,,,,,,,,,,,,,,,,,,,,,,,,
,,,,,,00020,2023-08-18_12h06.40.167,vbt_B1_day1,2022.2.4,Win32,59.79073244,,,,,,,,,,,,,,,,,,,0.328703704,-0.082407407,1,0,0,1.567,2,0,52,1,1,b,images/br_b.png,images/cb_b.png,,,,,,,,,,,,,,,,,,,,,,,,,
,,,,,,00020,2023-08-18_12h06.40.167,vbt_B1_day1,2022.2.4,Win32,59.79073244,,,,,,,,,,,,,,,,,,,0.32962963,-0.082407407,1,0,0,15.967,2,1,53,18,1,s,images/br_s.png,images/cb_s.png,,,,,,,,,,,,,,,,,,,,,,,,,
,,,,,,00020,2023-08-18_12h06.40.167,vbt_B1_day1,2022.2.4,Win32,59.79073244,,,,,,,,,,,,,,,,,,,0.381481481,-0.086111111,1,0,0,0.9595,2,2,54,25,1,z,images/br_z.png,images/cb_z.png,,,,,,,,,,,,,,,,,,,,,,,,,
,,,,,,00020,2023-08-18_12h06.40.167,vbt_B1_day1,2022.2.4,Win32,59.79073244,,,,,,,,,,,,,,,,,,,0.375,-0.102777778,1,0,0,4.684,2,3,55,13,1,n,images/br_n.png,images/cb_n.png,,,,,,,,,,,,,,,,,,,,,,,,,
,,,,,,00020,2023-08-18_12h06.40.167,vbt_B1_day1,2022.2.4,Win32,59.79073244,,,,,,,,,,,,,,,,,,,0.375,-0.102777778,1,0,0,0.2836,2,4,56,20,1,u,images/br_u.png,images/cb_u.png,,,,,,,,,,,,,,,,,,,,,,,,,
,,,,,,00020,2023-08-18_12h06.40.167,vbt_B1_day1,2022.2.4,Win32,59.79073244,,,,,,,,,,,,,,,,,,,0.381481481,-0.051851852,1,0,0,4.0333,2,5,57,21,1,v,images/br_v.png,images/cb_v.png,,,,,,,,,,,,,,,,,,,,,,,,,
,,,,,,00020,2023-08-18_12h06.40.167,vbt_B1_day1,2022.2.4,Win32,59.79073244,,,,,,,,,,,,,,,,,,,0.461111111,-0.025,1,0,0,1.983,2,6,58,15,1,p,images/br_p.png,images/cb_p.png,,,,,,,,,,,,,,,,,,,,,,,,,
,,,,,,00020,2023-08-18_12h06.40.167,vbt_B1_day1,2022.2.4,Win32,59.79073244,,,,,,,,,,,,,,,,,,,0.460185185,-0.025,1,0,0,1.1997,2,7,59,8,1,i,images/br_i.png,images/cb_i.png,,,,,,,,,,,,,,,,,,,,,,,,,
,,,,,,00020,2023-08-18_12h06.40.167,vbt_B1_day1,2022.2.4,Win32,59.79073244,,,,,,,,,,,,,,,,,,,0.460185185,-0.025,1,0,0,1.7164,2,8,60,9,1,j,images/br_j.png,images/cb_j.png,,,,,,,,,,,,,,,,,,,,,,,,,
,,,,,,00020,2023-08-18_12h06.40.167,vbt_B1_day1,2022.2.4,Win32,59.79073244,,,,,,,,,,,,,,,,,,,0.460185185,-0.025,1,0,0,0.7498,2,9,61,10,1,k,images/br_k.png,images/cb_k.png,,,,,,,,,,,,,,,,,,,,,,,,,
,,,,,,00020,2023-08-18_12h06.40.167,vbt_B1_day1,2022.2.4,Win32,59.79073244,,,,,,,,,,,,,,,,,,,0.460185185,-0.025,1,0,0,0.8507,2,10,62,5,1,f,images/br_f.png,images/cb_f.png,,,,,,,,,,,,,,,,,,,,,,,,,
,,,,,,00020,2023-08-18_12h06.40.167,vbt_B1_day1,2022.2.4,Win32,59.79073244,,,,,,,,,,,,,,,,,,,0.460185185,-0.025,1,0,0,1.4001,2,11,63,6,1,g,images/br_g.png,images/cb_g.png,,,,,,,,,,,,,,,,,,,,,,,,,
,,,,,,00020,2023-08-18_12h06.40.167,vbt_B1_day1,2022.2.4,Win32,59.79073244,,,,,,,,,,,,,,,,,,,0.460185185,-0.025,1,0,0,2.0337,2,12,64,24,1,y,images/br_y.png,images/cb_y.png,,,,,,,,,,,,,,,,,,,,,,,,,
,,,,,,00020,2023-08-18_12h06.40.167,vbt_B1_day1,2022.2.4,Win32,59.79073244,,,,,,,,,,,,,,,,,,,0.460185185,-0.025,1,0,0,0.3836,2,13,65,7,1,h,images/br_h.png,images/cb_h.png,,,,,,,,,,,,,,,,,,,,,,,,,
,,,,,,00020,2023-08-18_12h06.40.167,vbt_B1_day1,2022.2.4,Win32,59.79073244,,,,,,,,,,,,,,,,,,,0.460185185,-0.025,1,0,0,0.2667,2,14,66,16,1,q,images/br_q.png,images/cb_q.png,,,,,,,,,,,,,,,,,,,,,,,,,
,,,,,,00020,2023-08-18_12h06.40.167,vbt_B1_day1,2022.2.4,Win32,59.79073244,,,,,,,,,,,,,,,,,,,0.459259259,-0.025,1,0,0,4.1669,2,15,67,17,1,r,images/br_r.png,images/cb_r.png,,,,,,,,,,,,,,,,,,,,,,,,,
,,,,,,00020,2023-08-18_12h06.40.167,vbt_B1_day1,2022.2.4,Win32,59.79073244,,,,,,,,,,,,,,,,,,,0.428703704,-0.062037037,1,0,0,1.1333,2,16,68,12,1,m,images/br_m.png,images/cb_m.png,,,,,,,,,,,,,,,,,,,,,,,,,
,,,,,,00020,2023-08-18_12h06.40.167,vbt_B1_day1,2022.2.4,Win32,59.79073244,,,,,,,,,,,,,,,,,,,0.428703704,-0.062037037,1,0,0,0.3337,2,17,69,3,1,d,images/br_d.png,images/cb_d.png,,,,,,,,,,,,,,,,,,,,,,,,,
,,,,,,00020,2023-08-18_12h06.40.167,vbt_B1_day1,2022.2.4,Win32,59.79073244,,,,,,,,,,,,,,,,,,,0.433333333,-0.086111111,1,0,0,0.5334,2,18,70,19,1,t,images/br_t.png,images/cb_t.png,,,,,,,,,,,,,,,,,,,,,,,,,
,,,,,,00020,2023-08-18_12h06.40.167,vbt_B1_day1,2022.2.4,Win32,59.79073244,,,,,,,,,,,,,,,,,,,0.433333333,-0.086111111,1,0,0,1.7004,2,19,71,4,1,e,images/br_e.png,images/cb_e.png,,,,,,,,,,,,,,,,,,,,,,,,,
,,,,,,00020,2023-08-18_12h06.40.167,vbt_B1_day1,2022.2.4,Win32,59.79073244,,,,,,,,,,,,,,,,,,,-0.013888889,0.038888889,1,0,0,0.0333,2,20,72,2,1,c,images/br_c.png,images/cb_c.png,,,,,,,,,,,,,,,,,,,,,,,,,
,,,,,,00020,2023-08-18_12h06.40.167,vbt_B1_day1,2022.2.4,Win32,59.79073244,,,,,,,,,,,,,,,,,,,0.256481481,-0.052777778,1,0,0,0.5261,2,21,73,11,1,l,images/br_l.png,images/cb_l.png,,,,,,,,,,,,,,,,,,,,,,,,,
,,,,,,00020,2023-08-18_12h06.40.167,vbt_B1_day1,2022.2.4,Win32,59.79073244,,,,,,,,,,,,,,,,,,,0.260185185,-0.05,1,0,0,1.0006,2,22,74,22,1,w,images/br_w.png,images/cb_w.png,,,,,,,,,,,,,,,,,,,,,,,,,
,,,,,,00020,2023-08-18_12h06.40.167,vbt_B1_day1,2022.2.4,Win32,59.79073244,,,,,,,,,,,,,,,,,,,0.269444444,-0.025925926,1,0,0,4.1332,2,23,75,23,1,x,images/br_x.png,images/cb_x.png,,,,,,,,,,,,,,,,,,,,,,,,,
,,,,,,00020,2023-08-18_12h06.40.167,vbt_B1_day1,2022.2.4,Win32,59.79073244,,,,,,,,,,,,,,,,,,,0.269444444,-0.025925926,1,0,0,2.9671,2,24,76,0,1,a,images/br_a.png,images/cb_a.png,,,,,,,,,,,,,,,,,,,,,,,,,
,,,,,,00020,2023-08-18_12h06.40.167,vbt_B1_day1,2022.2.4,Win32,59.79073244,,,,,,,,,,,,,,,,,,,0.269444444,-0.025925926,1,0,0,0.9496,2,25,77,14,1,o,images/br_o.png,images/cb_o.png,,,,,,,,,,,,,,,,,,,,,,,,,
,,,,,,00020,2023-08-18_12h06.40.167,vbt_B1_day1,2022.2.4,Win32,59.79073244,,,,,,,,,,,,,,,,,,,0.269444444,-0.025925926,1,0,0,0.8334,3,0,78,23,1,x,images/br_x.png,images/cb_x.png,,,,,,,,,,,,,,,,,,,,,,,,,
,,,,,,00020,2023-08-18_12h06.40.167,vbt_B1_day1,2022.2.4,Win32,59.79073244,,,,,,,,,,,,,,,,,,,0.269444444,-0.025925926,1,0,0,0.5668,3,1,79,9,1,j,images/br_j.png,images/cb_j.png,,,,,,,,,,,,,,,,,,,,,,,,,
,,,,,,00020,2023-08-18_12h06.40.167,vbt_B1_day1,2022.2.4,Win32,59.79073244,,,,,,,,,,,,,,,,,,,0.257407407,-0.049074074,1,0,0,1.3833,3,2,80,8,1,i,images/br_i.png,images/cb_i.png,,,,,,,,,,,,,,,,,,,,,,,,,
,,,,,,00020,2023-08-18_12h06.40.167,vbt_B1_day1,2022.2.4,Win32,59.79073244,,,,,,,,,,,,,,,,,,,0.317592593,-0.030555556,1,0,0,1.2498,3,3,81,18,1,s,images/br_s.png,images/cb_s.png,,,,,,,,,,,,,,,,,,,,,,,,,
,,,,,,00020,2023-08-18_12h06.40.167,vbt_B1_day1,2022.2.4,Win32,59.79073244,,,,,,,,,,,,,,,,,,,0.317592593,-0.030555556,1,0,0,0.8996,3,4,82,2,1,c,images/br_c.png,images/cb_c.png,,,,,,,,,,,,,,,,,,,,,,,,,
,,,,,,00020,2023-08-18_12h06.40.167,vbt_B1_day1,2022.2.4,Win32,59.79073244,,,,,,,,,,,,,,,,,,,0.317592593,-0.030555556,1,0,0,0.1499,3,5,83,4,1,e,images/br_e.png,images/cb_e.png,,,,,,,,,,,,,,,,,,,,,,,,,
,,,,,,00020,2023-08-18_12h06.40.167,vbt_B1_day1,2022.2.4,Win32,59.79073244,,,,,,,,,,,,,,,,,,,0.317592593,-0.030555556,1,0,0,0.6334,3,6,84,17,1,r,images/br_r.png,images/cb_r.png,,,,,,,,,,,,,,,,,,,,,,,,,
,,,,,,00020,2023-08-18_12h06.40.167,vbt_B1_day1,2022.2.4,Win32,59.79073244,,,,,,,,,,,,,,,,,,,0.317592593,-0.030555556,1,0,0,0.7834,3,7,85,14,1,o,images/br_o.png,images/cb_o.png,,,,,,,,,,,,,,,,,,,,,,,,,
,,,,,,00020,2023-08-18_12h06.40.167,vbt_B1_day1,2022.2.4,Win32,59.79073244,,,,,,,,,,,,,,,,,,,0.327777778,-0.013888889,1,0,0,0.7254,3,8,86,21,1,v,images/br_v.png,images/cb_v.png,,,,,,,,,,,,,,,,,,,,,,,,,
,,,,,,00020,2023-08-18_12h06.40.167,vbt_B1_day1,2022.2.4,Win32,59.79073244,,,,,,,,,,,,,,,,,,,0.327777778,-0.013888889,1,0,0,0.5165,3,9,87,19,1,t,images/br_t.png,images/cb_t.png,,,,,,,,,,,,,,,,,,,,,,,,,
,,,,,,00020,2023-08-18_12h06.40.167,vbt_B1_day1,2022.2.4,Win32,59.79073244,,,,,,,,,,,,,,,,,,,0.327777778,-0.013888889,1,0,0,0.2164,3,10,88,3,1,d,images/br_d.png,images/cb_d.png,,,,,,,,,,,,,,,,,,,,,,,,,
,,,,,,00020,2023-08-18_12h06.40.167,vbt_B1_day1,2022.2.4,Win32,59.79073244,,,,,,,,,,,,,,,,,,,0.327777778,-0.013888889,1,0,0,0.1333,3,11,89,12,1,m,images/br_m.png,images/cb_m.png,,,,,,,,,,,,,,,,,,,,,,,,,
,,,,,,00020,2023-08-18_12h06.40.167,vbt_B1_day1,2022.2.4,Win32,59.79073244,,,,,,,,,,,,,,,,,,,0.327777778,-0.013888889,1,0,0,1.0664,3,12,90,24,1,y,images/br_y.png,images/cb_y.png,,,,,,,,,,,,,,,,,,,,,,,,,
,,,,,,00020,2023-08-18_12h06.40.167,vbt_B1_day1,2022.2.4,Win32,59.79073244,,,,,,,,,,,,,,,,,,,0.327777778,-0.013888889,1,0,0,0.3667,3,13,91,20,1,u,images/br_u.png,images/cb_u.png,,,,,,,,,,,,,,,,,,,,,,,,,
,,,,,,00020,2023-08-18_12h06.40.167,vbt_B1_day1,2022.2.4,Win32,59.79073244,,,,,,,,,,,,,,,,,,,0.327777778,-0.013888889,1,0,0,0.1665,3,14,92,6,1,g,images/br_g.png,images/cb_g.png,,,,,,,,,,,,,,,,,,,,,,,,,
,,,,,,00020,2023-08-18_12h06.40.167,vbt_B1_day1,2022.2.4,Win32,59.79073244,,,,,,,,,,,,,,,,,,,0.327777778,-0.013888889,1,0,0,0.5832,3,15,93,0,1,a,images/br_a.png,images/cb_a.png,,,,,,,,,,,,,,,,,,,,,,,,,
,,,,,,00020,2023-08-18_12h06.40.167,vbt_B1_day1,2022.2.4,Win32,59.79073244,,,,,,,,,,,,,,,,,,,0.327777778,-0.013888889,1,0,0,0.2499,3,16,94,25,1,z,images/br_z.png,images/cb_z.png,,,,,,,,,,,,,,,,,,,,,,,,,
,,,,,,00020,2023-08-18_12h06.40.167,vbt_B1_day1,2022.2.4,Win32,59.79073244,,,,,,,,,,,,,,,,,,,0.327777778,-0.013888889,1,0,0,1.1001,3,17,95,1,1,b,images/br_b.png,images/cb_b.png,,,,,,,,,,,,,,,,,,,,,,,,,
,,,,,,00020,2023-08-18_12h06.40.167,vbt_B1_day1,2022.2.4,Win32,59.79073244,,,,,,,,,,,,,,,,,,,0.327777778,-0.013888889,1,0,0,0.3169,3,18,96,22,1,w,images/br_w.png,images/cb_w.png,,,,,,,,,,,,,,,,,,,,,,,,,
,,,,,,00020,2023-08-18_12h06.40.167,vbt_B1_day1,2022.2.4,Win32,59.79073244,,,,,,,,,,,,,,,,,,,0.327777778,-0.013888889,1,0,0,0.2497,3,19,97,16,1,q,images/br_q.png,images/cb_q.png,,,,,,,,,,,,,,,,,,,,,,,,,
,,,,,,00020,2023-08-18_12h06.40.167,vbt_B1_day1,2022.2.4,Win32,59.79073244,,,,,,,,,,,,,,,,,,,0.327777778,-0.013888889,1,0,0,0.8504,3,20,98,15,1,p,images/br_p.png,images/cb_p.png,,,,,,,,,,,,,,,,,,,,,,,,,
,,,,,,00020,2023-08-18_12h06.40.167,vbt_B1_day1,2022.2.4,Win32,59.79073244,,,,,,,,,,,,,,,,,,,0.327777778,-0.013888889,1,0,0,0.0504,3,21,99,10,1,k,images/br_k.png,images/cb_k.png,,,,,,,,,,,,,,,,,,,,,,,,,
,,,,,,00020,2023-08-18_12h06.40.167,vbt_B1_day1,2022.2.4,Win32,59.79073244,,,,,,,,,,,,,,,,,,,0.327777778,-0.013888889,1,0,0,0.1334,3,22,100,7,1,h,images/br_h.png,images/cb_h.png,,,,,,,,,,,,,,,,,,,,,,,,,
,,,,,,00020,2023-08-18_12h06.40.167,vbt_B1_day1,2022.2.4,Win32,59.79073244,,,,,,,,,,,,,,,,,,,0.327777778,-0.013888889,1,0,0,0.1836,3,23,101,11,1,l,images/br_l.png,images/cb_l.png,,,,,,,,,,,,,,,,,,,,,,,,,
,,,,,,00020,2023-08-18_12h06.40.167,vbt_B1_day1,2022.2.4,Win32,59.79073244,,,,,,,,,,,,,,,,,,,0.327777778,-0.013888889,1,0,0,0.6668,3,24,102,5,1,f,images/br_f.png,images/cb_f.png,,,,,,,,,,,,,,,,,,,,,,,,,
,,,,,,00020,2023-08-18_12h06.40.167,vbt_B1_day1,2022.2.4,Win32,59.79073244,,,,,,,,,,,,,,,,,,,0.327777778,-0.013888889,1,0,0,0.0336,3,25,103,13,1,n,images/br_n.png,images/cb_n.png,,,,,,,,,,,,,,,,,,,,,,,,,
,,,,,,00020,2023-08-18_12h06.40.167,vbt_B1_day1,2022.2.4,Win32,59.79073244,,,,,,,,,,,,,,,,,,,0.327777778,-0.013888889,1,0,0,0.217,4,0,104,12,1,m,images/br_m.png,images/cb_m.png,,,,,,,,,,,,,,,,,,,,,,,,,
,,,,,,00020,2023-08-18_12h06.40.167,vbt_B1_day1,2022.2.4,Win32,59.79073244,,,,,,,,,,,,,,,,,,,0.385185185,-0.027777778,1,0,0,0.767,4,1,105,14,1,o,images/br_o.png,images/cb_o.png,,,,,,,,,,,,,,,,,,,,,,,,,
,,,,,,00020,2023-08-18_12h06.40.167,vbt_B1_day1,2022.2.4,Win32,59.79073244,,,,,,,,,,,,,,,,,,,0.387037037,-0.027777778,1,0,0,0.1333,4,2,106,3,1,d,images/br_d.png,images/cb_d.png,,,,,,,,,,,,,,,,,,,,,,,,,
,,,,,,00020,2023-08-18_12h06.40.167,vbt_B1_day1,2022.2.4,Win32,59.79073244,,,,,,,,,,,,,,,,,,,0.387037037,-0.027777778,1,0,0,1.0166,4,3,107,0,1,a,images/br_a.png,images/cb_a.png,,,,,,,,,,,,,,,,,,,,,,,,,
,,,,,,00020,2023-08-18_12h06.40.167,vbt_B1_day1,2022.2.4,Win32,59.79073244,,,,,,,,,,,,,,,,,,,0.387037037,-0.027777778,1,0,0,0.2164,4,4,108,22,1,w,images/br_w.png,images/cb_w.png,,,,,,,,,,,,,,,,,,,,,,,,,
,,,,,,00020,2023-08-18_12h06.40.167,vbt_B1_day1,2022.2.4,Win32,59.79073244,,,,,,,,,,,,,,,,,,,0.387037037,-0.027777778,1,0,0,0.0997,4,5,109,18,1,s,images/br_s.png,images/cb_s.png,,,,,,,,,,,,,,,,,,,,,,,,,
,,,,,,00020,2023-08-18_12h06.40.167,vbt_B1_day1,2022.2.4,Win32,59.79073244,,,,,,,,,,,,,,,,,,,0.363888889,-0.032407407,1,0,0,2.1662,4,6,110,11,1,l,images/br_l.png,images/cb_l.png,,,,,,,,,,,,,,,,,,,,,,,,,
,,,,,,00020,2023-08-18_12h06.40.167,vbt_B1_day1,2022.2.4,Win32,59.79073244,,,,,,,,,,,,,,,,,,,0.363888889,-0.032407407,1,0,0,0.3835,4,7,111,2,1,c,images/br_c.png,images/cb_c.png,,,,,,,,,,,,,,,,,,,,,,,,,
,,,,,,00020,2023-08-18_12h06.40.167,vbt_B1_day1,2022.2.4,Win32,59.79073244,,,,,,,,,,,,,,,,,,,0.371296296,-0.042592593,1,0,0,1.1669,4,8,112,1,1,b,images/br_b.png,images/cb_b.png,,,,,,,,,,,,,,,,,,,,,,,,,
,,,,,,00020,2023-08-18_12h06.40.167,vbt_B1_day1,2022.2.4,Win32,59.79073244,,,,,,,,,,,,,,,,,,,0.371296296,-0.042592593,1,0,0,0.2501,4,9,113,7,1,h,images/br_h.png,images/cb_h.png,,,,,,,,,,,,,,,,,,,,,,,,,
,,,,,,00020,2023-08-18_12h06.40.167,vbt_B1_day1,2022.2.4,Win32,59.79073244,,,,,,,,,,,,,,,,,,,0.371296296,-0.042592593,1,0,0,0.2002,4,10,114,25,1,z,images/br_z.png,images/cb_z.png,,,,,,,,,,,,,,,,,,,,,,,,,
,,,,,,00020,2023-08-18_12h06.40.167,vbt_B1_day1,2022.2.4,Win32,59.79073244,,,,,,,,,,,,,,,,,,,0.371296296,-0.042592593,1,0,0,1.1328,4,11,115,8,1,i,images/br_i.png,images/cb_i.png,,,,,,,,,,,,,,,,,,,,,,,,,
,,,,,,00020,2023-08-18_12h06.40.167,vbt_B1_day1,2022.2.4,Win32,59.79073244,,,,,,,,,,,,,,,,,,,0.371296296,-0.042592593,1,0,0,1.6166,4,12,116,6,1,g,images/br_g.png,images/cb_g.png,,,,,,,,,,,,,,,,,,,,,,,,,
,,,,,,00020,2023-08-18_12h06.40.167,vbt_B1_day1,2022.2.4,Win32,59.79073244,,,,,,,,,,,,,,,,,,,0.371296296,-0.042592593,1,0,0,0.0333,4,13,117,17,1,r,images/br_r.png,images/cb_r.png,,,,,,,,,,,,,,,,,,,,,,,,,
,,,,,,00020,2023-08-18_12h06.40.167,vbt_B1_day1,2022.2.4,Win32,59.79073244,,,,,,,,,,,,,,,,,,,0.371296296,-0.042592593,1,0,0,0.7,4,14,118,20,1,u,images/br_u.png,images/cb_u.png,,,,,,,,,,,,,,,,,,,,,,,,,
,,,,,,00020,2023-08-18_12h06.40.167,vbt_B1_day1,2022.2.4,Win32,59.79073244,,,,,,,,,,,,,,,,,,,0.371296296,-0.042592593,1,0,0,2.1497,4,15,119,4,1,e,images/br_e.png,images/cb_e.png,,,,,,,,,,,,,,,,,,,,,,,,,
,,,,,,00020,2023-08-18_12h06.40.167,vbt_B1_day1,2022.2.4,Win32,59.79073244,,,,,,,,,,,,,,,,,,,0.371296296,-0.042592593,1,0,0,2.0837,4,16,120,19,1,t,images/br_t.png,images/cb_t.png,,,,,,,,,,,,,,,,,,,,,,,,,
,,,,,,00020,2023-08-18_12h06.40.167,vbt_B1_day1,2022.2.4,Win32,59.79073244,,,,,,,,,,,,,,,,,,,0.371296296,-0.042592593,1,0,0,0.717,4,17,121,23,1,x,images/br_x.png,images/cb_x.png,,,,,,,,,,,,,,,,,,,,,,,,,
,,,,,,00020,2023-08-18_12h06.40.167,vbt_B1_day1,2022.2.4,Win32,59.79073244,,,,,,,,,,,,,,,,,,,0.371296296,-0.042592593,1,0,0,8.0999,4,18,122,10,1,k,images/br_k.png,images/cb_k.png,,,,,,,,,,,,,,,,,,,,,,,,,
,,,,,,00020,2023-08-18_12h06.40.167,vbt_B1_day1,2022.2.4,Win32,59.79073244,,,,,,,,,,,,,,,,,,,0.371296296,-0.042592593,1,0,0,0.0747,4,19,123,13,1,n,images/br_n.png,images/cb_n.png,,,,,,,,,,,,,,,,,,,,,,,,,
,,,,,,00020,2023-08-18_12h06.40.167,vbt_B1_day1,2022.2.4,Win32,59.79073244,,,,,,,,,,,,,,,,,,,0.368518519,-0.062037037,1,0,0,1.3996,4,20,124,16,1,q,images/br_q.png,images/cb_q.png,,,,,,,,,,,,,,,,,,,,,,,,,
,,,,,,00020,2023-08-18_12h06.40.167,vbt_B1_day1,2022.2.4,Win32,59.79073244,,,,,,,,,,,,,,,,,,,0.367592593,-0.062037037,1,0,0,0.8003,4,21,125,9,1,j,images/br_j.png,images/cb_j.png,,,,,,,,,,,,,,,,,,,,,,,,,
,,,,,,00020,2023-08-18_12h06.40.167,vbt_B1_day1,2022.2.4,Win32,59.79073244,,,,,,,,,,,,,,,,,,,0.367592593,-0.062037037,1,0,0,1.4333,4,22,126,24,1,y,images/br_y.png,images/cb_y.png,,,,,,,,,,,,,,,,,,,,,,,,,
,,,,,,00020,2023-08-18_12h06.40.167,vbt_B1_day1,2022.2.4,Win32,59.79073244,,,,,,,,,,,,,,,,,,,0.367592593,-0.062037037,1,0,0,0.0836,4,23,127,21,1,v,images/br_v.png,images/cb_v.png,,,,,,,,,,,,,,,,,,,,,,,,,
,,,,,,00020,2023-08-18_12h06.40.167,vbt_B1_day1,2022.2.4,Win32,59.79073244,,,,,,,,,,,,,,,,,,,0.366666667,-0.062037037,1,0,0,1.7668,4,24,128,15,1,p,images/br_p.png,images/cb_p.png,,,,,,,,,,,,,,,,,,,,,,,,,
,,,,,,00020,2023-08-18_12h06.40.167,vbt_B1_day1,2022.2.4,Win32,59.79073244,,,,,,,,,,,,,,,,,,,0.268518519,-0.009259259,1,0,0,0.0498,4,25,129,5,1,f,images/br_f.png,images/cb_f.png,,,,,,,,,,,,,,,,,,,,,,,,,
,,,,,,00020,2023-08-18_12h06.40.167,vbt_B1_day1,2022.2.4,Win32,59.79073244,,,,,,,,,,,,,,,,,,,0.259259259,-0.025,1,0,0,0.1001,5,0,130,5,1,f,images/br_f.png,images/cb_f.png,,,,,,,,,,,,,,,,,,,,,,,,,
,,,,,,00020,2023-08-18_12h06.40.167,vbt_B1_day1,2022.2.4,Win32,59.79073244,,,,,,,,,,,,,,,,,,,0.402777778,0.003703704,1,0,0,0.9163,5,1,131,3,1,d,images/br_d.png,images/cb_d.png,,,,,,,,,,,,,,,,,,,,,,,,,
,,,,,,00020,2023-08-18_12h06.40.167,vbt_B1_day1,2022.2.4,Win32,59.79073244,,,,,,,,,,,,,,,,,,,0.413888889,-0.016666667,1,0,0,0.4332,5,2,132,16,1,q,images/br_q.png,images/cb_q.png,,,,,,,,,,,,,,,,,,,,,,,,,
,,,,,,00020,2023-08-18_12h06.40.167,vbt_B1_day1,2022.2.4,Win32,59.79073244,,,,,,,,,,,,,,,,,,,0.414814815,-0.015740741,1,0,0,0.0668,5,3,133,19,1,t,images/br_t.png,images/cb_t.png,,,,,,,,,,,,,,,,,,,,,,,,,
,,,,,,00020,2023-08-18_12h06.40.167,vbt_B1_day1,2022.2.4,Win32,59.79073244,,,,,,,,,,,,,,,,,,,0.303703704,-0.049074074,1,0,0,2.9998,5,4,134,7,1,h,images/br_h.png,images/cb_h.png,,,,,,,,,,,,,,,,,,,,,,,,,
,,,,,,00020,2023-08-18_12h06.40.167,vbt_B1_day1,2022.2.4,Win32,59.79073244,,,,,,,,,,,,,,,,,,,0.302777778,-0.05,1,0,0,1.0833,5,5,135,10,1,k,images/br_k.png,images/cb_k.png,,,,,,,,,,,,,,,,,,,,,,,,,
,,,,,,00020,2023-08-18_12h06.40.167,vbt_B1_day1,2022.2.4,Win32,59.79073244,,,,,,,,,,,,,,,,,,,0.308333333,-0.057407407,1,0,0,0.3999,5,6,136,2,1,c,images/br_c.png,images/cb_c.png,,,,,,,,,,,,,,,,,,,,,,,,,
,,,,,,00020,2023-08-18_12h06.40.167,vbt_B1_day1,2022.2.4,Win32,59.79073244,,,,,,,,,,,,,,,,,,,0.372222222,-0.046296296,1,0,0,0.1334,5,7,137,22,1,w,images/br_w.png,images/cb_w.png,,,,,,,,,,,,,,,,,,,,,,,,,
,,,,,,00020,2023-08-18_12h06.40.167,vbt_B1_day1,2022.2.4,Win32,59.79073244,,,,,,,,,,,,,,,,,,,0.372222222,-0.046296296,1,0,0,0.4002,5,8,138,9,1,j,images/br_j.png,images/cb_j.png,,,,,,,,,,,,,,,,,,,,,,,,,
,,,,,,00020,2023-08-18_12h06.40.167,vbt_B1_day1,2022.2.4,Win32,59.79073244,,,,,,,,,,,,,,,,,,,0.372222222,-0.046296296,1,0,0,0.0161,5,9,139,18,1,s,images/br_s.png,images/cb_s.png,,,,,,,,,,,,,,,,,,,,,,,,,
,,,,,,00020,2023-08-18_12h06.40.167,vbt_B1_day1,2022.2.4,Win32,59.79073244,,,,,,,,,,,,,,,,,,,0.372222222,-0.046296296,1,0,0,0.5499,5,10,140,11,1,l,images/br_l.png,images/cb_l.png,,,,,,,,,,,,,,,,,,,,,,,,,
,,,,,,00020,2023-08-18_12h06.40.167,vbt_B1_day1,2022.2.4,Win32,59.79073244,,,,,,,,,,,,,,,,,,,0.372222222,-0.046296296,1,0,0,0.167,5,11,141,8,1,i,images/br_i.png,images/cb_i.png,,,,,,,,,,,,,,,,,,,,,,,,,
,,,,,,00020,2023-08-18_12h06.40.167,vbt_B1_day1,2022.2.4,Win32,59.79073244,,,,,,,,,,,,,,,,,,,0.372222222,-0.046296296,1,0,0,0.3835,5,12,142,1,1,b,images/br_b.png,images/cb_b.png,,,,,,,,,,,,,,,,,,,,,,,,,
,,,,,,00020,2023-08-18_12h06.40.167,vbt_B1_day1,2022.2.4,Win32,59.79073244,,,,,,,,,,,,,,,,,,,0.325925926,0.032407407,1,0,0,0.6334,5,13,143,17,1,r,images/br_r.png,images/cb_r.png,,,,,,,,,,,,,,,,,,,,,,,,,
,,,,,,00020,2023-08-18_12h06.40.167,vbt_B1_day1,2022.2.4,Win32,59.79073244,,,,,,,,,,,,,,,,,,,0.32962963,-0.012962963,1,0,0,1.2999,5,14,144,20,1,u,images/br_u.png,images/cb_u.png,,,,,,,,,,,,,,,,,,,,,,,,,
,,,,,,00020,2023-08-18_12h06.40.167,vbt_B1_day1,2022.2.4,Win32,59.79073244,,,,,,,,,,,,,,,,,,,0.32962963,-0.012962963,1,0,0,0.2335,5,15,145,25,1,z,images/br_z.png,images/cb_z.png,,,,,,,,,,,,,,,,,,,,,,,,,
,,,,,,00020,2023-08-18_12h06.40.167,vbt_B1_day1,2022.2.4,Win32,59.79073244,,,,,,,,,,,,,,,,,,,0.32962963,-0.012962963,1,0,0,0.3668,5,16,146,13,1,n,images/br_n.png,images/cb_n.png,,,,,,,,,,,,,,,,,,,,,,,,,
,,,,,,00020,2023-08-18_12h06.40.167,vbt_B1_day1,2022.2.4,Win32,59.79073244,,,,,,,,,,,,,,,,,,,0.32962963,-0.012962963,1,0,0,0.083,5,17,147,24,1,y,images/br_y.png,images/cb_y.png,,,,,,,,,,,,,,,,,,,,,,,,,
,,,,,,00020,2023-08-18_12h06.40.167,vbt_B1_day1,2022.2.4,Win32,59.79073244,,,,,,,,,,,,,,,,,,,0.362962963,-0.003703704,1,0,0,0.3758,5,18,148,23,1,x,images/br_x.png,images/cb_x.png,,,,,,,,,,,,,,,,,,,,,,,,,
,,,,,,00020,2023-08-18_12h06.40.167,vbt_B1_day1,2022.2.4,Win32,59.79073244,,,,,,,,,,,,,,,,,,,0.362962963,-0.003703704,1,0,0,0.3168,5,19,149,15,1,p,images/br_p.png,images/cb_p.png,,,,,,,,,,,,,,,,,,,,,,,,,
,,,,,,00020,2023-08-18_12h06.40.167,vbt_B1_day1,2022.2.4,Win32,59.79073244,,,,,,,,,,,,,,,,,,,0.362962963,-0.003703704,1,0,0,0.3663,5,20,150,0,1,a,images/br_a.png,images/cb_a.png,,,,,,,,,,,,,,,,,,,,,,,,,
,,,,,,00020,2023-08-18_12h06.40.167,vbt_B1_day1,2022.2.4,Win32,59.79073244,,,,,,,,,,,,,,,,,,,0.362962963,-0.003703704,1,0,0,0.1996,5,21,151,14,1,o,images/br_o.png,images/cb_o.png,,,,,,,,,,,,,,,,,,,,,,,,,
,,,,,,00020,2023-08-18_12h06.40.167,vbt_B1_day1,2022.2.4,Win32,59.79073244,,,,,,,,,,,,,,,,,,,0.362962963,-0.003703704,1,0,0,0.3998,5,22,152,4,1,e,images/br_e.png,images/cb_e.png,,,,,,,,,,,,,,,,,,,,,,,,,
,,,,,,00020,2023-08-18_12h06.40.167,vbt_B1_day1,2022.2.4,Win32,59.79073244,,,,,,,,,,,,,,,,,,,0.362962963,-0.003703704,1,0,0,0.4664,5,23,153,21,1,v,images/br_v.png,images/cb_v.png,,,,,,,,,,,,,,,,,,,,,,,,,
,,,,,,00020,2023-08-18_12h06.40.167,vbt_B1_day1,2022.2.4,Win32,59.79073244,,,,,,,,,,,,,,,,,,,0.362962963,-0.003703704,1,0,0,0.8668,5,24,154,6,1,g,images/br_g.png,images/cb_g.png,,,,,,,,,,,,,,,,,,,,,,,,,
,,,,,,00020,2023-08-18_12h06.40.167,vbt_B1_day1,2022.2.4,Win32,59.79073244,,,,,,,,,,,,,,,,,,,0.362962963,-0.003703704,1,0,0,0.5832,5,25,155,12,1,m,images/br_m.png,images/cb_m.png,,,,,,,,,,,,,,,,,,,,,,,,,
,,,,,,00020,2023-08-18_12h06.40.167,vbt_B1_day1,2022.2.4,Win32,59.79073244,,,,,,,,,,,,,,,,,,,0.362962963,-0.003703704,1,0,0,0.3667,6,0,156,17,1,r,images/br_r.png,images/cb_r.png,,,,,,,,,,,,,,,,,,,,,,,,,
,,,,,,00020,2023-08-18_12h06.40.167,vbt_B1_day1,2022.2.4,Win32,59.79073244,,,,,,,,,,,,,,,,,,,0.362962963,-0.003703704,1,0,0,0.934,6,1,157,20,1,u,images/br_u.png,images/cb_u.png,,,,,,,,,,,,,,,,,,,,,,,,,
,,,,,,00020,2023-08-18_12h06.40.167,vbt_B1_day1,2022.2.4,Win32,59.79073244,,,,,,,,,,,,,,,,,,,0.362962963,-0.003703704,1,0,0,0.1838,6,2,158,13,1,n,images/br_n.png,images/cb_n.png,,,,,,,,,,,,,,,,,,,,,,,,,
,,,,,,00020,2023-08-18_12h06.40.167,vbt_B1_day1,2022.2.4,Win32,59.79073244,,,,,,,,,,,,,,,,,,,0.362962963,-0.003703704,1,0,0,1.1999,6,3,159,12,1,m,images/br_m.png,images/cb_m.png,,,,,,,,,,,,,,,,,,,,,,,,,
,,,,,,00020,2023-08-18_12h06.40.167,vbt_B1_day1,2022.2.4,Win32,59.79073244,,,,,,,,,,,,,,,,,,,0.362962963,-0.003703704,1,0,0,0.5672,6,4,160,6,1,g,images/br_g.png,images/cb_g.png,,,,,,,,,,,,,,,,,,,,,,,,,
,,,,,,00020,2023-08-18_12h06.40.167,vbt_B1_day1,2022.2.4,Win32,59.79073244,,,,,,,,,,,,,,,,,,,0.362962963,-0.003703704,1,0,0,0.3,6,5,161,10,1,k,images/br_k.png,images/cb_k.png,,,,,,,,,,,,,,,,,,,,,,,,,
,,,,,,00020,2023-08-18_12h06.40.167,vbt_B1_day1,2022.2.4,Win32,59.79073244,,,,,,,,,,,,,,,,,,,0.362962963,-0.003703704,1,0,0,0.983,6,6,162,21,1,v,images/br_v.png,images/cb_v.png,,,,,,,,,,,,,,,,,,,,,,,,,
,,,,,,00020,2023-08-18_12h06.40.167,vbt_B1_day1,2022.2.4,Win32,59.79073244,,,,,,,,,,,,,,,,,,,0.362962963,-0.003703704,1,0,0,0.3333,6,7,163,8,1,i,images/br_i.png,images/cb_i.png,,,,,,,,,,,,,,,,,,,,,,,,,
,,,,,,00020,2023-08-18_12h06.40.167,vbt_B1_day1,2022.2.4,Win32,59.79073244,,,,,,,,,,,,,,,,,,,0.362962963,-0.003703704,1,0,0,0.6163,6,8,164,24,1,y,images/br_y.png,images/cb_y.png,,,,,,,,,,,,,,,,,,,,,,,,,
,,,,,,00020,2023-08-18_12h06.40.167,vbt_B1_day1,2022.2.4,Win32,59.79073244,,,,,,,,,,,,,,,,,,,0.362962963,-0.003703704,1,0,0,0.0663,6,9,165,25,1,z,images/br_z.png,images/cb_z.png,,,,,,,,,,,,,,,,,,,,,,,,,
,,,,,,00020,2023-08-18_12h06.40.167,vbt_B1_day1,2022.2.4,Win32,59.79073244,,,,,,,,,,,,,,,,,,,0.362962963,-0.003703704,1,0,0,0.5667,6,10,166,5,1,f,images/br_f.png,images/cb_f.png,,,,,,,,,,,,,,,,,,,,,,,,,
,,,,,,00020,2023-08-18_12h06.40.167,vbt_B1_day1,2022.2.4,Win32,59.79073244,,,,,,,,,,,,,,,,,,,0.40462963,-0.010185185,1,0,0,0.7498,6,11,167,19,1,t,images/br_t.png,images/cb_t.png,,,,,,,,,,,,,,,,,,,,,,,,,
,,,,,,00020,2023-08-18_12h06.40.167,vbt_B1_day1,2022.2.4,Win32,59.79073244,,,,,,,,,,,,,,,,,,,0.40462963,-0.010185185,1,0,0,0.4,6,12,168,22,1,w,images/br_w.png,images/cb_w.png,,,,,,,,,,,,,,,,,,,,,,,,,
,,,,,,00020,2023-08-18_12h06.40.167,vbt_B1_day1,2022.2.4,Win32,59.79073244,,,,,,,,,,,,,,,,,,,0.316666667,-0.034259259,1,0,0,0.4495,6,13,169,14,1,o,images/br_o.png,images/cb_o.png,,,,,,,,,,,,,,,,,,,,,,,,,
,,,,,,00020,2023-08-18_12h06.40.167,vbt_B1_day1,2022.2.4,Win32,59.79073244,,,,,,,,,,,,,,,,,,,0.359259259,-0.021296296,1,0,0,0.5337,6,14,170,1,1,b,images/br_b.png,images/cb_b.png,,,,,,,,,,,,,,,,,,,,,,,,,
,,,,,,00020,2023-08-18_12h06.40.167,vbt_B1_day1,2022.2.4,Win32,59.79073244,,,,,,,,,,,,,,,,,,,0.359259259,-0.021296296,1,0,0,0.4835,6,15,171,4,1,e,images/br_e.png,images/cb_e.png,,,,,,,,,,,,,,,,,,,,,,,,,
,,,,,,00020,2023-08-18_12h06.40.167,vbt_B1_day1,2022.2.4,Win32,59.79073244,,,,,,,,,,,,,,,,,,,0.359259259,-0.021296296,1,0,0,0.75,6,16,172,16,1,q,images/br_q.png,images/cb_q.png,,,,,,,,,,,,,,,,,,,,,,,,,
,,,,,,00020,2023-08-18_12h06.40.167,vbt_B1_day1,2022.2.4,Win32,59.79073244,,,,,,,,,,,,,,,,,,,0.359259259,-0.021296296,1,0,0,0.4163,6,17,173,18,1,s,images/br_s.png,images/cb_s.png,,,,,,,,,,,,,,,,,,,,,,,,,
,,,,,,00020,2023-08-18_12h06.40.167,vbt_B1_day1,2022.2.4,Win32,59.79073244,,,,,,,,,,,,,,,,,,,0.359259259,-0.021296296,1,0,0,0.9093,6,18,174,3,1,d,images/br_d.png,images/cb_d.png,,,,,,,,,,,,,,,,,,,,,,,,,
,,,,,,00020,2023-08-18_12h06.40.167,vbt_B1_day1,2022.2.4,Win32,59.79073244,,,,,,,,,,,,,,,,,,,0.359259259,-0.021296296,1,0,0,0.084,6,19,175,11,1,l,images/br_l.png,images/cb_l.png,,,,,,,,,,,,,,,,,,,,,,,,,
,,,,,,00020,2023-08-18_12h06.40.167,vbt_B1_day1,2022.2.4,Win32,59.79073244,,,,,,,,,,,,,,,,,,,0.359259259,-0.021296296,1,0,0,1.4831,6,20,176,7,1,h,images/br_h.png,images/cb_h.png,,,,,,,,,,,,,,,,,,,,,,,,,
,,,,,,00020,2023-08-18_12h06.40.167,vbt_B1_day1,2022.2.4,Win32,59.79073244,,,,,,,,,,,,,,,,,,,0.359259259,-0.021296296,1,0,0,1.1999,6,21,177,9,1,j,images/br_j.png,images/cb_j.png,,,,,,,,,,,,,,,,,,,,,,,,,
,,,,,,00020,2023-08-18_12h06.40.167,vbt_B1_day1,2022.2.4,Win32,59.79073244,,,,,,,,,,,,,,,,,,,0.359259259,-0.021296296,1,0,0,0.6667,6,22,178,23,1,x,images/br_x.png,images/cb_x.png,,,,,,,,,,,,,,,,,,,,,,,,,
,,,,,,00020,2023-08-18_12h06.40.167,vbt_B1_day1,2022.2.4,Win32,59.79073244,,,,,,,,,,,,,,,,,,,0.359259259,-0.021296296,1,0,0,0.167,6,23,179,2,1,c,images/br_c.png,images/cb_c.png,,,,,,,,,,,,,,,,,,,,,,,,,
,,,,,,00020,2023-08-18_12h06.40.167,vbt_B1_day1,2022.2.4,Win32,59.79073244,,,,,,,,,,,,,,,,,,,0.359259259,-0.021296296,1,0,0,0.2666,6,24,180,0,1,a,images/br_a.png,images/cb_a.png,,,,,,,,,,,,,,,,,,,,,,,,,
,,,,,,00020,2023-08-18_12h06.40.167,vbt_B1_day1,2022.2.4,Win32,59.79073244,,,,,,,,,,,,,,,,,,,0.359259259,-0.021296296,1,0,0,0.7671,6,25,181,15,1,p,images/br_p.png,images/cb_p.png,,,,,,,,,,,,,,,,,,,,,,,,,
,,,,,,00020,2023-08-18_12h06.40.167,vbt_B1_day1,2022.2.4,Win32,59.79073244,,,,,,,,,,,,,,,,,,,,,,,,,,,,,,,,,0.237037037,-0.067592593,1,0,0,,,,,,,,,,,,,,,,,,,,
,,,,,,00020,2023-08-18_12h06.40.167,vbt_B1_day1,2022.2.4,Win32,59.79073244,,,,,,,,,,,,,,,,,,,,,,,,,,,,,,,,,,,,,,0.233333333,-0.200925926,1,0,0,,,,,,,,,,,,,,,
,,,,,,00020,2023-08-18_12h06.40.167,vbt_B1_day1,2022.2.4,Win32,59.79073244,,,,,,,,,,,,,,,,,,,,,,,,,,,,,,,,,,,,,,,,,,,0.258333333,-0.087962963,1,0,0,ovs...,ovs...,0,0,0,53,1,opslaan,images/br_opslaan.png,images/cb_opslaan.png
,,,,,,00020,2023-08-18_12h06.40.167,vbt_B1_day1,2022.2.4,Win32,59.79073244,,,,,,,,,,,,,,,,,,,,,,,,,,,,,,,,,,,,,,,,,,,0.147222222,-0.290740741,1,0,0,ree..e,ree..e,0,1,1,30,1,reedje,images/br_reedje.png,images/cb_reedje.png
,,,,,,00020,2023-08-18_12h06.40.167,vbt_B1_day1,2022.2.4,Win32,59.79073244,,,,,,,,,,,,,,,,,,,,,,,,,,,,,,,,,,,,,,,,,,,0.178703704,-0.25462963,1,0,0,slak,slak,0,2,2,0,1,slak,images/br_slak.png,images/cb_slak.png
,,,,,,00020,2023-08-18_12h06.40.167,vbt_B1_day1,2022.2.4,Win32,59.79073244,,,,,,,,,,,,,,,,,,,,,,,,,,,,,,,,,,,,,,,,,,,0.178703704,-0.25462963,1,0,0,attestie,attestie,0,3,3,17,1,attentie,images/br_attentie.png,images/cb_attentie.png
,,,,,,00020,2023-08-18_12h06.40.167,vbt_B1_day1,2022.2.4,Win32,59.79073244,,,,,,,,,,,,,,,,,,,,,,,,,,,,,,,,,,,,,,,,,,,0.178703704,-0.25462963,1,0,0,.lullek,.lullek,0,4,4,33,1,flullen,images/br_flullen.png,images/cb_flullen.png
,,,,,,00020,2023-08-18_12h06.40.167,vbt_B1_day1,2022.2.4,Win32,59.79073244,,,,,,,,,,,,,,,,,,,,,,,,,,,,,,,,,,,,,,,,,,,0.035185185,0.006481481,1,0,0,sch.i...,sch.i...,0,5,5,19,1,schuilen,images/br_schuilen.png,images/cb_schuilen.png
,,,,,,00020,2023-08-18_12h06.40.167,vbt_B1_day1,2022.2.4,Win32,59.79073244,,,,,,,,,,,,,,,,,,,,,,,,,,,,,,,,,,,,,,,,,,,0.174074074,-0.068518519,1,0,0,wi.ze,wi.ze,0,6,6,44,1,wijze,images/br_wijze.png,images/cb_wijze.png
,,,,,,00020,2023-08-18_12h06.40.167,vbt_B1_day1,2022.2.4,Win32,59.79073244,,,,,,,,,,,,,,,,,,,,,,,,,,,,,,,,,,,,,,,,,,,0.187962963,-0.12962963,1,0,0,.ak.,.ak.,0,7,7,3,1,mand,images/br_mand.png,images/cb_mand.png
,,,,,,00020,2023-08-18_12h06.40.167,vbt_B1_day1,2022.2.4,Win32,59.79073244,,,,,,,,,,,,,,,,,,,,,,,,,,,,,,,,,,,,,,,,,,,0.187962963,-0.12962963,1,0,0,sc.e.,sc.e.,0,8,8,4,1,schep,images/br_schep.png,images/cb_schep.png
,,,,,,00020,2023-08-18_12h06.40.167,vbt_B1_day1,2022.2.4,Win32,59.79073244,,,,,,,,,,,,,,,,,,,,,,,,,,,,,,,,,,,,,,,,,,,0.187962963,-0.130555556,1,0,0,sta.e.k,sta.e.k,0,9,9,31,1,stamen,images/br_stamen.png,images/cb_stamen.png
,,,,,,00020,2023-08-18_12h06.40.167,vbt_B1_day1,2022.2.4,Win32,59.79073244,,,,,,,,,,,,,,,,,,,,,,,,,,,,,,,,,,,,,,,,,,,0.165740741,-0.072222222,1,0,0,lezen,lezen,0,10,10,46,1,lezen,images/br_lezen.png,images/cb_lezen.png
,,,,,,00020,2023-08-18_12h06.40.167,vbt_B1_day1,2022.2.4,Win32,59.79073244,,,,,,,,,,,,,,,,,,,,,,,,,,,,,,,,,,,,,,,,,,,0.173148148,-0.071296296,1,0,0,bleek,bleek,0,11,11,6,1,bleek,images/br_bleek.png,images/cb_bleek.png
,,,,,,00020,2023-08-18_12h06.40.167,vbt_B1_day1,2022.2.4,Win32,59.79073244,,,,,,,,,,,,,,,,,,,,,,,,,,,,,,,,,,,,,,,,,,,0.173148148,-0.071296296,1,0,0,haar,haar,0,12,12,2,1,jaar,images/br_jaar.png,images/cb_jaar.png
,,,,,,00020,2023-08-18_12h06.40.167,vbt_B1_day1,2022.2.4,Win32,59.79073244,,,,,,,,,,,,,,,,,,,,,,,,,,,,,,,,,,,,,,,,,,,0.173148148,-0.071296296,1,0,0,.ite....,.ite....,0,13,13,18,1,uitdelen,images/br_uitdelen.png,images/cb_uitdelen.png
,,,,,,00020,2023-08-18_12h06.40.167,vbt_B1_day1,2022.2.4,Win32,59.79073244,,,,,,,,,,,,,,,,,,,,,,,,,,,,,,,,,,,,,,,,,,,0.116666667,-0.15462963,1,0,0,gekok...,gekok...,0,14,14,29,1,genond,images/br_genond.png,images/cb_genond.png
,,,,,,00020,2023-08-18_12h06.40.167,vbt_B1_day1,2022.2.4,Win32,59.79073244,,,,,,,,,,,,,,,,,,,,,,,,,,,,,,,,,,,,,,,,,,,0.125,-0.049074074,1,0,0,waar.a.,waar.a.,0,15,15,14,1,waarvan,images/br_waarvan.png,images/cb_waarvan.png
,,,,,,00020,2023-08-18_12h06.40.167,vbt_B1_day1,2022.2.4,Win32,59.79073244,,,,,,,,,,,,,,,,,,,,,,,,,,,,,,,,,,,,,,,,,,,0.194444444,-0.023148148,1,0,0,.ier.a.,.ier.a.,0,16,16,15,1,hiervan,images/br_hiervan.png,images/cb_hiervan.png
,,,,,,00020,2023-08-18_12h06.40.167,vbt_B1_day1,2022.2.4,Win32,59.79073244,,,,,,,,,,,,,,,,,,,,,,,,,,,,,,,,,,,,,,,,,,,0.115740741,-0.049074074,1,0,0,zaal,zaal,0,17,17,1,1,zaal,images/br_zaal.png,images/cb_zaal.png
,,,,,,00020,2023-08-18_12h06.40.167,vbt_B1_day1,2022.2.4,Win32,59.79073244,,,,,,,,,,,,,,,,,,,,,,,,,,,,,,,,,,,,,,,,,,,0.115740741,-0.049074074,1,0,0,..bbel,..bbel,0,18,18,9,1,dubbel,images/br_dubbel.png,images/cb_dubbel.png
,,,,,,00020,2023-08-18_12h06.40.167,vbt_B1_day1,2022.2.4,Win32,59.79073244,,,,,,,,,,,,,,,,,,,,,,,,,,,,,,,,,,,,,,,,,,,0.091666667,-0.05,1,0,0,.oorke.r,.oorke.r,0,19,19,58,1,voorkeur,images/br_voorkeur.png,images/cb_voorkeur.png
,,,,,,00020,2023-08-18_12h06.40.167,vbt_B1_day1,2022.2.4,Win32,59.79073244,,,,,,,,,,,,,,,,,,,,,,,,,,,,,,,,,,,,,,,,,,,0.071296296,-0.125,1,0,0,hoog,hoog,0,20,20,41,1,hoog,images/br_hoog.png,images/cb_hoog.png
,,,,,,00020,2023-08-18_12h06.40.167,vbt_B1_day1,2022.2.4,Win32,59.79073244,,,,,,,,,,,,,,,,,,,,,,,,,,,,,,,,,,,,,,,,,,,0.185185185,-0.083333333,1,0,0,.alo.,.alo.,0,21,21,26,1,valop,images/br_valop.png,images/cb_valop.png
,,,,,,00020,2023-08-18_12h06.40.167,vbt_B1_day1,2022.2.4,Win32,59.79073244,,,,,,,,,,,,,,,,,,,,,,,,,,,,,,,,,,,,,,,,,,,0.056481481,-0.138888889,1,0,0,.aarik,.aarik,0,22,22,16,1,daarheen,images/br_daarheen.png,images/cb_daarheen.png
,,,,,,00020,2023-08-18_12h06.40.167,vbt_B1_day1,2022.2.4,Win32,59.79073244,,,,,,,,,,,,,,,,,,,,,,,,,,,,,,,,,,,,,,,,,,,0.163888889,-0.089814815,1,0,0,klimmen,klimmen,0,23,23,12,1,klimmen,images/br_klimmen.png,images/cb_klimmen.png
,,,,,,00020,2023-08-18_12h06.40.167,vbt_B1_day1,2022.2.4,Win32,59.79073244,,,,,,,,,,,,,,,,,,,,,,,,,,,,,,,,,,,,,,,,,,,0.227777778,-0.062037037,1,0,0,st.ike.,st.ike.,0,24,24,35,1,stuikem,images/br_stuikem.png,images/cb_stuikem.png
,,,,,,00020,2023-08-18_12h06.40.167,vbt_B1_day1,2022.2.4,Win32,59.79073244,,,,,,,,,,,,,,,,,,,,,,,,,,,,,,,,,,,,,,,,,,,0.271296296,-0.060185185,1,0,0,tars,tars,0,25,25,20,1,tars,images/br_tars.png,images/cb_tars.png
,,,,,,00020,2023-08-18_12h06.40.167,vbt_B1_day1,2022.2.4,Win32,59.79073244,,,,,,,,,,,,,,,,,,,,,,,,,,,,,,,,,,,,,,,,,,,0.244444444,-0.100925926,1,0,0,.re.,.re.,0,26,26,21,1,dred,images/br_dred.png,images/cb_dred.png
,,,,,,00020,2023-08-18_12h06.40.167,vbt_B1_day1,2022.2.4,Win32,59.79073244,,,,,,,,,,,,,,,,,,,,,,,,,,,,,,,,,,,,,,,,,,,0.244444444,-0.100925926,1,0,0,klauw,klauw,0,27,27,7,1,klauw,images/br_klauw.png,images/cb_klauw.png
,,,,,,00020,2023-08-18_12h06.40.167,vbt_B1_day1,2022.2.4,Win32,59.79073244,,,,,,,,,,,,,,,,,,,,,,,,,,,,,,,,,,,,,,,,,,,0.244444444,-0.100925926,1,0,0,aezea,aezea,0,28,28,24,1,rezer,images/br_rezer.png,images/cb_rezer.png
,,,,,,00020,2023-08-18_12h06.40.167,vbt_B1_day1,2022.2.4,Win32,59.79073244,,,,,,,,,,,,,,,,,,,,,,,,,,,,,,,,,,,,,,,,,,,0.148148148,-0.041666667,1,0,0,kan.ea,kan.ea,0,29,29,8,1,kanjer,images/br_kanjer.png,images/cb_kanjer.png
,,,,,,00020,2023-08-18_12h06.40.167,vbt_B1_day1,2022.2.4,Win32,59.79073244,,,,,,,,,,,,,,,,,,,,,,,,,,,,,,,,,,,,,,,,,,,0.109259259,0.007407407,1,0,0,toziec..,toziec..,0,30,30,56,1,toezicht,images/br_toezicht.png,images/cb_toezicht.png
,,,,,,00020,2023-08-18_12h06.40.167,vbt_B1_day1,2022.2.4,Win32,59.79073244,,,,,,,,,,,,,,,,,,,,,,,,,,,,,,,,,,,,,,,,,,,0.115740741,-0.044444444,1,0,0,bebri.,bebri.,0,31,31,28,1,bebrip,images/br_bebrip.png,images/cb_bebrip.png
,,,,,,00020,2023-08-18_12h06.40.167,vbt_B1_day1,2022.2.4,Win32,59.79073244,,,,,,,,,,,,,,,,,,,,,,,,,,,,,,,,,,,,,,,,,,,0.187962963,-0.066666667,1,0,0,.eene.e.,.eene.e.,0,32,32,57,1,meenemen,images/br_meenemen.png,images/cb_meenemen.png
,,,,,,00020,2023-08-18_12h06.40.167,vbt_B1_day1,2022.2.4,Win32,59.79073244,,,,,,,,,,,,,,,,,,,,,,,,,,,,,,,,,,,,,,,,,,,0.186111111,-0.060185185,1,0,0,.izier,.izier,0,33,33,49,1,vizier,images/br_vizier.png,images/cb_vizier.png
,,,,,,00020,2023-08-18_12h06.40.167,vbt_B1_day1,2022.2.4,Win32,59.79073244,,,,,,,,,,,,,,,,,,,,,,,,,,,,,,,,,,,,,,,,,,,0.144444444,-0.036111111,1,0,0,vochtin,vochtin,0,34,34,34,1,lochten,images/br_lochten.png,images/cb_lochten.png
,,,,,,00020,2023-08-18_12h06.40.167,vbt_B1_day1,2022.2.4,Win32,59.79073244,,,,,,,,,,,,,,,,,,,,,,,,,,,,,,,,,,,,,,,,,,,0.300925926,-0.037962963,1,0,0,.oore.r,.oore.r,0,35,35,39,1,voorreur,images/br_voorreur.png,images/cb_voorreur.png
,,,,,,00020,2023-08-18_12h06.40.167,vbt_B1_day1,2022.2.4,Win32,59.79073244,,,,,,,,,,,,,,,,,,,,,,,,,,,,,,,,,,,,,,,,,,,0.063888889,-0.061111111,1,0,0,.enning,.enning,0,36,36,11,1,mening,images/br_mening.png,images/cb_mening.png
,,,,,,00020,2023-08-18_12h06.40.167,vbt_B1_day1,2022.2.4,Win32,59.79073244,,,,,,,,,,,,,,,,,,,,,,,,,,,,,,,,,,,,,,,,,,,-0.011111111,-0.007407407,1,0,0,.er.a...,.er.a...,0,37,37,36,1,vervaden,images/br_vervaden.png,images/cb_vervaden.png
,,,,,,00020,2023-08-18_12h06.40.167,vbt_B1_day1,2022.2.4,Win32,59.79073244,,,,,,,,,,,,,,,,,,,,,,,,,,,,,,,,,,,,,,,,,,,0.223148148,-0.099074074,1,0,0,ze.l.a..,ze.l.a..,0,38,38,52,1,zuiplap,images/br_zuiplap.png,images/cb_zuiplap.png
,,,,,,00020,2023-08-18_12h06.40.167,vbt_B1_day1,2022.2.4,Win32,59.79073244,,,,,,,,,,,,,,,,,,,,,,,,,,,,,,,,,,,,,,,,,,,0.108333333,-0.065740741,1,0,0,stuk,stuk,0,39,39,42,1,stuk,images/br_stuk.png,images/cb_stuk.png
,,,,,,00020,2023-08-18_12h06.40.167,vbt_B1_day1,2022.2.4,Win32,59.79073244,,,,,,,,,,,,,,,,,,,,,,,,,,,,,,,,,,,,,,,,,,,0.109259259,-0.065740741,1,0,0,cooi,cooi,0,40,40,23,1,booi,images/br_booi.png,images/cb_booi.png
,,,,,,00020,2023-08-18_12h06.40.167,vbt_B1_day1,2022.2.4,Win32,59.79073244,,,,,,,,,,,,,,,,,,,,,,,,,,,,,,,,,,,,,,,,,,,0.115740741,-0.080555556,1,0,0,.rort,.rort,0,41,41,27,1,prort,images/br_prort.png,images/cb_prort.png
,,,,,,00020,2023-08-18_12h06.40.167,vbt_B1_day1,2022.2.4,Win32,59.79073244,,,,,,,,,,,,,,,,,,,,,,,,,,,,,,,,,,,,,,,,,,,0.113888889,-0.062962963,1,0,0,bri.k,bri.k,0,42,42,25,1,brijk,images/br_brijk.png,images/cb_brijk.png
,,,,,,00020,2023-08-18_12h06.40.167,vbt_B1_day1,2022.2.4,Win32,59.79073244,,,,,,,,,,,,,,,,,,,,,,,,,,,,,,,,,,,,,,,,,,,0.007407407,-0.068518519,1,0,0,o..l aan,o..l aan,0,43,43,32,1,opplaan,images/br_opplaan.png,images/cb_opplaan.png
,,,,,,00020,2023-08-18_12h06.40.167,vbt_B1_day1,2022.2.4,Win32,59.79073244,,,,,,,,,,,,,,,,,,,,,,,,,,,,,,,,,,,,,,,,,,,0.007407407,-0.068518519,1,0,0,knoe,knoe,0,44,44,22,1,knoe,images/br_knoe.png,images/cb_knoe.png
,,,,,,00020,2023-08-18_12h06.40.167,vbt_B1_day1,2022.2.4,Win32,59.79073244,,,,,,,,,,,,,,,,,,,,,,,,,,,,,,,,,,,,,,,,,,,0.008333333,-0.068518519,1,0,0,loo.s,loo.s,0,45,45,47,1,loods,images/br_loods.png,images/cb_loods.png
,,,,,,00020,2023-08-18_12h06.40.167,vbt_B1_day1,2022.2.4,Win32,59.79073244,,,,,,,,,,,,,,,,,,,,,,,,,,,,,,,,,,,,,,,,,,,0.068518519,-0.083333333,1,0,0,la.a,la.a,0,46,46,43,1,lava,images/br_lava.png,images/cb_lava.png
,,,,,,00020,2023-08-18_12h06.40.167,vbt_B1_day1,2022.2.4,Win32,59.79073244,,,,,,,,,,,,,,,,,,,,,,,,,,,,,,,,,,,,,,,,,,,0.153703704,-0.017592593,1,0,0,tekenen,tekenen,0,47,47,55,1,tekenen,images/br_tekenen.png,images/cb_tekenen.png
,,,,,,00020,2023-08-18_12h06.40.167,vbt_B1_day1,2022.2.4,Win32,59.79073244,,,,,,,,,,,,,,,,,,,,,,,,,,,,,,,,,,,,,,,,,,,0.219444444,-0.006481481,1,0,0,.e.el,.e.el,0,48,48,45,1,hemel,images/br_hemel.png,images/cb_hemel.png
,,,,,,00020,2023-08-18_12h06.40.167,vbt_B1_day1,2022.2.4,Win32,59.79073244,,,,,,,,,,,,,,,,,,,,,,,,,,,,,,,,,,,,,,,,,,,0.073148148,-0.017592593,1,0,0,schiel..,schiel..,0,49,49,38,1,schielen,images/br_schielen.png,images/cb_schielen.png
,,,,,,00020,2023-08-18_12h06.40.167,vbt_B1_day1,2022.2.4,Win32,59.79073244,,,,,,,,,,,,,,,,,,,,,,,,,,,,,,,,,,,,,,,,,,,0.137037037,-0.05,1,0,0,hictie,hictie,0,50,50,48,1,fictie,images/br_fictie.png,images/cb_fictie.png
,,,,,,00020,2023-08-18_12h06.40.167,vbt_B1_day1,2022.2.4,Win32,59.79073244,,,,,,,,,,,,,,,,,,,,,,,,,,,,,,,,,,,,,,,,,,,0.022222222,-0.049074074,1,0,0,..ziek,..ziek,0,51,51,10,1,muziek,images/br_muziek.png,images/cb_muziek.png
,,,,,,00020,2023-08-18_12h06.40.167,vbt_B1_day1,2022.2.4,Win32,59.79073244,,,,,,,,,,,,,,,,,,,,,,,,,,,,,,,,,,,,,,,,,,,0.160185185,-0.041666667,1,0,0,twi..el,twi..el,0,52,52,13,1,twijfel,images/br_twijfel.png,images/cb_twijfel.png
,,,,,,00020,2023-08-18_12h06.40.167,vbt_B1_day1,2022.2.4,Win32,59.79073244,,,,,,,,,,,,,,,,,,,,,,,,,,,,,,,,,,,,,,,,,,,0.027777778,-0.032407407,1,0,0,.akeq,.akeq,0,53,53,5,1,maken,images/br_maken.png,images/cb_maken.png
,,,,,,00020,2023-08-18_12h06.40.167,vbt_B1_day1,2022.2.4,Win32,59.79073244,,,,,,,,,,,,,,,,,,,,,,,,,,,,,,,,,,,,,,,,,,,0.05,-0.02037037,1,0,0,s.anz..g,s.anz..g,0,54,54,37,1,spanzing,images/br_spanzing.png,images/cb_spanzing.png
,,,,,,00020,2023-08-18_12h06.40.167,vbt_B1_day1,2022.2.4,Win32,59.79073244,,,,,,,,,,,,,,,,,,,,,,,,,,,,,,,,,,,,,,,,,,,0.061111111,-0.041666667,1,0,0,.ie.,.ie.,0,55,55,40,1,dief,images/br_dief.png,images/cb_dief.png
,,,,,,00020,2023-08-18_12h06.40.167,vbt_B1_day1,2022.2.4,Win32,59.79073244,,,,,,,,,,,,,,,,,,,,,,,,,,,,,,,,,,,,,,,,,,,0.158333333,-0.084259259,1,0,0,o.atten,o.atten,0,56,56,59,1,opvatten,images/br_opvatten.png,images/cb_opvatten.png
,,,,,,00020,2023-08-18_12h06.40.167,vbt_B1_day1,2022.2.4,Win32,59.79073244,,,,,,,,,,,,,,,,,,,,,,,,,,,,,,,,,,,,,,,,,,,0.012037037,-0.052777778,1,0,0,lie..e,lie..e,0,57,57,51,1,liefde,images/br_liefde.png,images/cb_liefde.png
,,,,,,00020,2023-08-18_12h06.40.167,vbt_B1_day1,2022.2.4,Win32,59.79073244,,,,,,,,,,,,,,,,,,,,,,,,,,,,,,,,,,,,,,,,,,,0.047222222,-0.042592593,1,0,0,liegen,liegen,0,58,58,50,1,liegen,images/br_liegen.png,images/cb_liegen.png
,,,,,,00020,2023-08-18_12h06.40.167,vbt_B1_day1,2022.2.4,Win32,59.79073244,,,,,,,,,,,,,,,,,,,,,,,,,,,,,,,,,,,,,,,,,,,0.092592593,-0.153703704,1,0,0,.ie..ten,.ie..ten,0,59,59,54,1,vijftig,images/br_vijftig.png,images/cb_vijftig.png
,,,,,,00020,2023-08-18_12h06.40.167,vbt_B1_day1,2022.2.4,Win32,59.79073244,,,,,,,,,,,,,,,,,,,,,,,,,,,,,,,,,,,,,,,,,,,,,,,,,,,,,,,,,
