welcome_mouse.x,welcome_mouse.y,welcome_mouse.leftButton,welcome_mouse.midButton,welcome_mouse.rightButton,welcome_mouse.time,"ID",date,expName,psychopyVersion,OS,frameRate,mouse_2.x,mouse_2.y,mouse_2.leftButton,mouse_2.midButton,mouse_2.rightButton,mouse_2.time,mouse_3.x,mouse_3.y,mouse_3.leftButton,mouse_3.midButton,mouse_3.rightButton,mouse_3.time,train_mouse.x,train_mouse.y,train_mouse.leftButton,train_mouse.midButton,train_mouse.rightButton,train_mouse.time,braille_mouse.x,braille_mouse.y,braille_mouse.leftButton,braille_mouse.midButton,braille_mouse.rightButton,braille_mouse.time,trials.thisRepN,trials.thisTrialN,trials.thisN,trials.thisIndex,trials.ran,nlLet,brLet,cbLet,mouse.x,mouse.y,mouse.leftButton,mouse.midButton,mouse.rightButton,testInstr_mouse.x,testInstr_mouse.y,testInstr_mouse.leftButton,testInstr_mouse.midButton,testInstr_mouse.rightButton,test_mouse.x,test_mouse.y,test_mouse.leftButton,test_mouse.midButton,test_mouse.rightButton,test_response.text,testResp,test_loop.thisRepN,test_loop.thisTrialN,test_loop.thisN,test_loop.thisIndex,test_loop.ran,nlWrd,brWrd,cbWrd
-0.174074032,0.170370349,1,0,0,19.6166,00088,2023-10-23_15h37.07.248,vbt_B1_day1,2022.2.4,Win32,58.4692744,,,,,,,,,,,,,,,,,,,,,,,,,,,,,,,,,,,,,,,,,,,,,,,,,,,,,,,,,
,,,,,,00088,2023-10-23_15h37.07.248,vbt_B1_day1,2022.2.4,Win32,58.4692744,-0.038888861,-0.393518519,1,0,0,8.8282,,,,,,,,,,,,,,,,,,,,,,,,,,,,,,,,,,,,,,,,,,,,,,,,,,,
,,,,,,00088,2023-10-23_15h37.07.248,vbt_B1_day1,2022.2.4,Win32,58.4692744,,,,,,,-0.040740755,-0.37962963,1,0,0,1.4131,,,,,,,,,,,,,,,,,,,,,,,,,,,,,,,,,,,,,,,,,,,,,
,,,,,,00088,2023-10-23_15h37.07.248,vbt_B1_day1,2022.2.4,Win32,58.4692744,,,,,,,,,,,,,0.524999972,0.056481467,1,0,0,24.4771,,,,,,,,,,,,,,,,,,,,,,,,,,,,,,,,,,,,,,,
,,,,,,00088,2023-10-23_15h37.07.248,vbt_B1_day1,2022.2.4,Win32,58.4692744,,,,,,,,,,,,,,,,,,,0.524999972,0.056481467,1,0,0,1.6336,0,0,0,13,1,n,images/br_n.png,images/cb_n.png,,,,,,,,,,,,,,,,,,,,,,,,,
,,,,,,00088,2023-10-23_15h37.07.248,vbt_B1_day1,2022.2.4,Win32,58.4692744,,,,,,,,,,,,,,,,,,,0.524999972,0.055555556,1,0,0,3.0336,0,1,1,19,1,t,images/br_t.png,images/cb_t.png,,,,,,,,,,,,,,,,,,,,,,,,,
,,,,,,00088,2023-10-23_15h37.07.248,vbt_B1_day1,2022.2.4,Win32,58.4692744,,,,,,,,,,,,,,,,,,,0.524999972,0.055555556,1,0,0,2.5335,0,2,2,16,1,q,images/br_q.png,images/cb_q.png,,,,,,,,,,,,,,,,,,,,,,,,,
,,,,,,00088,2023-10-23_15h37.07.248,vbt_B1_day1,2022.2.4,Win32,58.4692744,,,,,,,,,,,,,,,,,,,0.498148176,0.042592578,1,0,0,0.8501,0,3,3,2,1,c,images/br_c.png,images/cb_c.png,,,,,,,,,,,,,,,,,,,,,,,,,
,,,,,,00088,2023-10-23_15h37.07.248,vbt_B1_day1,2022.2.4,Win32,58.4692744,,,,,,,,,,,,,,,,,,,0.461111139,0.018518519,1,0,0,3.7837,0,4,4,21,1,v,images/br_v.png,images/cb_v.png,,,,,,,,,,,,,,,,,,,,,,,,,
,,,,,,00088,2023-10-23_15h37.07.248,vbt_B1_day1,2022.2.4,Win32,58.4692744,,,,,,,,,,,,,,,,,,,0.461111139,0.018518519,1,0,0,2.1341,0,5,5,10,1,k,images/br_k.png,images/cb_k.png,,,,,,,,,,,,,,,,,,,,,,,,,
,,,,,,00088,2023-10-23_15h37.07.248,vbt_B1_day1,2022.2.4,Win32,58.4692744,,,,,,,,,,,,,,,,,,,0.461111139,0.018518519,1,0,0,2.2835,0,6,6,1,1,b,images/br_b.png,images/cb_b.png,,,,,,,,,,,,,,,,,,,,,,,,,
,,,,,,00088,2023-10-23_15h37.07.248,vbt_B1_day1,2022.2.4,Win32,58.4692744,,,,,,,,,,,,,,,,,,,0.461111139,0.013888889,1,0,0,1.6168,0,7,7,11,1,l,images/br_l.png,images/cb_l.png,,,,,,,,,,,,,,,,,,,,,,,,,
,,,,,,00088,2023-10-23_15h37.07.248,vbt_B1_day1,2022.2.4,Win32,58.4692744,,,,,,,,,,,,,,,,,,,0.461111139,0.013888889,1,0,0,1.9678,0,8,8,14,1,o,images/br_o.png,images/cb_o.png,,,,,,,,,,,,,,,,,,,,,,,,,
,,,,,,00088,2023-10-23_15h37.07.248,vbt_B1_day1,2022.2.4,Win32,58.4692744,,,,,,,,,,,,,,,,,,,0.36018527,0.001851859,1,0,0,2,0,9,9,3,1,d,images/br_d.png,images/cb_d.png,,,,,,,,,,,,,,,,,,,,,,,,,
,,,,,,00088,2023-10-23_15h37.07.248,vbt_B1_day1,2022.2.4,Win32,58.4692744,,,,,,,,,,,,,,,,,,,0.36018527,0.001851859,1,0,0,2.4165,0,10,10,4,1,e,images/br_e.png,images/cb_e.png,,,,,,,,,,,,,,,,,,,,,,,,,
,,,,,,00088,2023-10-23_15h37.07.248,vbt_B1_day1,2022.2.4,Win32,58.4692744,,,,,,,,,,,,,,,,,,,0.36018527,0.001851859,1,0,0,1.5671,0,11,11,5,1,f,images/br_f.png,images/cb_f.png,,,,,,,,,,,,,,,,,,,,,,,,,
,,,,,,00088,2023-10-23_15h37.07.248,vbt_B1_day1,2022.2.4,Win32,58.4692744,,,,,,,,,,,,,,,,,,,0.36018527,0.001851859,1,0,0,2.9329,0,12,12,25,1,z,images/br_z.png,images/cb_z.png,,,,,,,,,,,,,,,,,,,,,,,,,
,,,,,,00088,2023-10-23_15h37.07.248,vbt_B1_day1,2022.2.4,Win32,58.4692744,,,,,,,,,,,,,,,,,,,0.36018527,0.001851859,1,0,0,2.8834,0,13,13,24,1,y,images/br_y.png,images/cb_y.png,,,,,,,,,,,,,,,,,,,,,,,,,
,,,,,,00088,2023-10-23_15h37.07.248,vbt_B1_day1,2022.2.4,Win32,58.4692744,,,,,,,,,,,,,,,,,,,0.36018527,0.001851859,1,0,0,0.7168,0,14,14,8,1,i,images/br_i.png,images/cb_i.png,,,,,,,,,,,,,,,,,,,,,,,,,
,,,,,,00088,2023-10-23_15h37.07.248,vbt_B1_day1,2022.2.4,Win32,58.4692744,,,,,,,,,,,,,,,,,,,0.36018527,0.001851859,1,0,0,2.7168,0,15,15,12,1,m,images/br_m.png,images/cb_m.png,,,,,,,,,,,,,,,,,,,,,,,,,
,,,,,,00088,2023-10-23_15h37.07.248,vbt_B1_day1,2022.2.4,Win32,58.4692744,,,,,,,,,,,,,,,,,,,0.36018527,0.001851859,1,0,0,2.4335,0,16,16,7,1,h,images/br_h.png,images/cb_h.png,,,,,,,,,,,,,,,,,,,,,,,,,
,,,,,,00088,2023-10-23_15h37.07.248,vbt_B1_day1,2022.2.4,Win32,58.4692744,,,,,,,,,,,,,,,,,,,0.36018527,0.001851859,1,0,0,1.0005,0,17,17,23,1,x,images/br_x.png,images/cb_x.png,,,,,,,,,,,,,,,,,,,,,,,,,
,,,,,,00088,2023-10-23_15h37.07.248,vbt_B1_day1,2022.2.4,Win32,58.4692744,,,,,,,,,,,,,,,,,,,0.36018527,0.001851859,1,0,0,2.2169,0,18,18,20,1,u,images/br_u.png,images/cb_u.png,,,,,,,,,,,,,,,,,,,,,,,,,
,,,,,,00088,2023-10-23_15h37.07.248,vbt_B1_day1,2022.2.4,Win32,58.4692744,,,,,,,,,,,,,,,,,,,0.36018527,0.001851859,1,0,0,1.5829,0,19,19,22,1,w,images/br_w.png,images/cb_w.png,,,,,,,,,,,,,,,,,,,,,,,,,
,,,,,,00088,2023-10-23_15h37.07.248,vbt_B1_day1,2022.2.4,Win32,58.4692744,,,,,,,,,,,,,,,,,,,0.36018527,0.001851859,1,0,0,2.4505,0,20,20,18,1,s,images/br_s.png,images/cb_s.png,,,,,,,,,,,,,,,,,,,,,,,,,
,,,,,,00088,2023-10-23_15h37.07.248,vbt_B1_day1,2022.2.4,Win32,58.4692744,,,,,,,,,,,,,,,,,,,0.36018527,0.001851859,1,0,0,2.5836,0,21,21,6,1,g,images/br_g.png,images/cb_g.png,,,,,,,,,,,,,,,,,,,,,,,,,
,,,,,,00088,2023-10-23_15h37.07.248,vbt_B1_day1,2022.2.4,Win32,58.4692744,,,,,,,,,,,,,,,,,,,0.36018527,0.001851859,1,0,0,4.5165,0,22,22,0,1,a,images/br_a.png,images/cb_a.png,,,,,,,,,,,,,,,,,,,,,,,,,
,,,,,,00088,2023-10-23_15h37.07.248,vbt_B1_day1,2022.2.4,Win32,58.4692744,,,,,,,,,,,,,,,,,,,0.36018527,0.001851859,1,0,0,1.9499,0,23,23,17,1,r,images/br_r.png,images/cb_r.png,,,,,,,,,,,,,,,,,,,,,,,,,
,,,,,,00088,2023-10-23_15h37.07.248,vbt_B1_day1,2022.2.4,Win32,58.4692744,,,,,,,,,,,,,,,,,,,0.36018527,0.001851859,1,0,0,2.0168,0,24,24,9,1,j,images/br_j.png,images/cb_j.png,,,,,,,,,,,,,,,,,,,,,,,,,
,,,,,,00088,2023-10-23_15h37.07.248,vbt_B1_day1,2022.2.4,Win32,58.4692744,,,,,,,,,,,,,,,,,,,0.36018527,0.001851859,1,0,0,3.2502,0,25,25,15,1,p,images/br_p.png,images/cb_p.png,,,,,,,,,,,,,,,,,,,,,,,,,
,,,,,,00088,2023-10-23_15h37.07.248,vbt_B1_day1,2022.2.4,Win32,58.4692744,,,,,,,,,,,,,,,,,,,0.36018527,0.001851859,1,0,0,0.4168,1,0,26,11,1,l,images/br_l.png,images/cb_l.png,,,,,,,,,,,,,,,,,,,,,,,,,
,,,,,,00088,2023-10-23_15h37.07.248,vbt_B1_day1,2022.2.4,Win32,58.4692744,,,,,,,,,,,,,,,,,,,0.24537037,-0.037962984,1,0,0,3.0331,1,1,27,0,1,a,images/br_a.png,images/cb_a.png,,,,,,,,,,,,,,,,,,,,,,,,,
,,,,,,00088,2023-10-23_15h37.07.248,vbt_B1_day1,2022.2.4,Win32,58.4692744,,,,,,,,,,,,,,,,,,,0.243518547,-0.026851866,1,0,0,0.933,1,2,28,7,1,h,images/br_h.png,images/cb_h.png,,,,,,,,,,,,,,,,,,,,,,,,,
,,,,,,00088,2023-10-23_15h37.07.248,vbt_B1_day1,2022.2.4,Win32,58.4692744,,,,,,,,,,,,,,,,,,,0.243518547,-0.026851866,1,0,0,0.5665,1,3,29,10,1,k,images/br_k.png,images/cb_k.png,,,,,,,,,,,,,,,,,,,,,,,,,
,,,,,,00088,2023-10-23_15h37.07.248,vbt_B1_day1,2022.2.4,Win32,58.4692744,,,,,,,,,,,,,,,,,,,0.243518547,-0.026851866,1,0,0,0.0668,1,4,30,12,1,m,images/br_m.png,images/cb_m.png,,,,,,,,,,,,,,,,,,,,,,,,,
,,,,,,00088,2023-10-23_15h37.07.248,vbt_B1_day1,2022.2.4,Win32,58.4692744,,,,,,,,,,,,,,,,,,,0.243518547,-0.026851866,1,0,0,1.984,1,5,31,18,1,s,images/br_s.png,images/cb_s.png,,,,,,,,,,,,,,,,,,,,,,,,,
,,,,,,00088,2023-10-23_15h37.07.248,vbt_B1_day1,2022.2.4,Win32,58.4692744,,,,,,,,,,,,,,,,,,,0.243518547,-0.026851866,1,0,0,0.85,1,6,32,15,1,p,images/br_p.png,images/cb_p.png,,,,,,,,,,,,,,,,,,,,,,,,,
,,,,,,00088,2023-10-23_15h37.07.248,vbt_B1_day1,2022.2.4,Win32,58.4692744,,,,,,,,,,,,,,,,,,,0.243518547,-0.025925919,1,0,0,0.2499,1,7,33,9,1,j,images/br_j.png,images/cb_j.png,,,,,,,,,,,,,,,,,,,,,,,,,
,,,,,,00088,2023-10-23_15h37.07.248,vbt_B1_day1,2022.2.4,Win32,58.4692744,,,,,,,,,,,,,,,,,,,0.140740783,-0.043518526,1,0,0,0.6834,1,8,34,19,1,t,images/br_t.png,images/cb_t.png,,,,,,,,,,,,,,,,,,,,,,,,,
,,,,,,00088,2023-10-23_15h37.07.248,vbt_B1_day1,2022.2.4,Win32,58.4692744,,,,,,,,,,,,,,,,,,,0.140740783,-0.039814808,1,0,0,1.1835,1,9,35,6,1,g,images/br_g.png,images/cb_g.png,,,,,,,,,,,,,,,,,,,,,,,,,
,,,,,,00088,2023-10-23_15h37.07.248,vbt_B1_day1,2022.2.4,Win32,58.4692744,,,,,,,,,,,,,,,,,,,0.140740783,-0.039814808,1,0,0,0.5168,1,10,36,24,1,y,images/br_y.png,images/cb_y.png,,,,,,,,,,,,,,,,,,,,,,,,,
,,,,,,00088,2023-10-23_15h37.07.248,vbt_B1_day1,2022.2.4,Win32,58.4692744,,,,,,,,,,,,,,,,,,,0.140740783,-0.039814808,1,0,0,1.05,1,11,37,25,1,z,images/br_z.png,images/cb_z.png,,,,,,,,,,,,,,,,,,,,,,,,,
,,,,,,00088,2023-10-23_15h37.07.248,vbt_B1_day1,2022.2.4,Win32,58.4692744,,,,,,,,,,,,,,,,,,,0.140740783,-0.039814808,1,0,0,1.6331,1,12,38,22,1,w,images/br_w.png,images/cb_w.png,,,,,,,,,,,,,,,,,,,,,,,,,
,,,,,,00088,2023-10-23_15h37.07.248,vbt_B1_day1,2022.2.4,Win32,58.4692744,,,,,,,,,,,,,,,,,,,0.140740783,-0.039814808,1,0,0,0.3167,1,13,39,3,1,d,images/br_d.png,images/cb_d.png,,,,,,,,,,,,,,,,,,,,,,,,,
,,,,,,00088,2023-10-23_15h37.07.248,vbt_B1_day1,2022.2.4,Win32,58.4692744,,,,,,,,,,,,,,,,,,,0.140740783,-0.039814808,1,0,0,1.1833,1,14,40,8,1,i,images/br_i.png,images/cb_i.png,,,,,,,,,,,,,,,,,,,,,,,,,
,,,,,,00088,2023-10-23_15h37.07.248,vbt_B1_day1,2022.2.4,Win32,58.4692744,,,,,,,,,,,,,,,,,,,0.140740783,-0.039814808,1,0,0,1.55,1,15,41,13,1,n,images/br_n.png,images/cb_n.png,,,,,,,,,,,,,,,,,,,,,,,,,
,,,,,,00088,2023-10-23_15h37.07.248,vbt_B1_day1,2022.2.4,Win32,58.4692744,,,,,,,,,,,,,,,,,,,0.140740783,-0.028703725,1,0,0,2.117,1,16,42,17,1,r,images/br_r.png,images/cb_r.png,,,,,,,,,,,,,,,,,,,,,,,,,
,,,,,,00088,2023-10-23_15h37.07.248,vbt_B1_day1,2022.2.4,Win32,58.4692744,,,,,,,,,,,,,,,,,,,0.140740783,-0.028703725,1,0,0,0.5335,1,17,43,2,1,c,images/br_c.png,images/cb_c.png,,,,,,,,,,,,,,,,,,,,,,,,,
,,,,,,00088,2023-10-23_15h37.07.248,vbt_B1_day1,2022.2.4,Win32,58.4692744,,,,,,,,,,,,,,,,,,,0.165740755,-0.075000021,1,0,0,4.9837,1,18,44,20,1,u,images/br_u.png,images/cb_u.png,,,,,,,,,,,,,,,,,,,,,,,,,
,,,,,,00088,2023-10-23_15h37.07.248,vbt_B1_day1,2022.2.4,Win32,58.4692744,,,,,,,,,,,,,,,,,,,0.164814843,-0.075925933,1,0,0,2.0173,1,19,45,4,1,e,images/br_e.png,images/cb_e.png,,,,,,,,,,,,,,,,,,,,,,,,,
,,,,,,00088,2023-10-23_15h37.07.248,vbt_B1_day1,2022.2.4,Win32,58.4692744,,,,,,,,,,,,,,,,,,,0.164814843,-0.075925933,1,0,0,0.4001,1,20,46,1,1,b,images/br_b.png,images/cb_b.png,,,,,,,,,,,,,,,,,,,,,,,,,
,,,,,,00088,2023-10-23_15h37.07.248,vbt_B1_day1,2022.2.4,Win32,58.4692744,,,,,,,,,,,,,,,,,,,0.164814843,-0.065740762,1,0,0,2.9668,1,21,47,23,1,x,images/br_x.png,images/cb_x.png,,,,,,,,,,,,,,,,,,,,,,,,,
,,,,,,00088,2023-10-23_15h37.07.248,vbt_B1_day1,2022.2.4,Win32,58.4692744,,,,,,,,,,,,,,,,,,,0.164814843,-0.065740762,1,0,0,1.4499,1,22,48,14,1,o,images/br_o.png,images/cb_o.png,,,,,,,,,,,,,,,,,,,,,,,,,
,,,,,,00088,2023-10-23_15h37.07.248,vbt_B1_day1,2022.2.4,Win32,58.4692744,,,,,,,,,,,,,,,,,,,0.164814843,-0.067592586,1,0,0,2.1665,1,23,49,16,1,q,images/br_q.png,images/cb_q.png,,,,,,,,,,,,,,,,,,,,,,,,,
,,,,,,00088,2023-10-23_15h37.07.248,vbt_B1_day1,2022.2.4,Win32,58.4692744,,,,,,,,,,,,,,,,,,,0.164814843,-0.067592586,1,0,0,0.9166,1,24,50,21,1,v,images/br_v.png,images/cb_v.png,,,,,,,,,,,,,,,,,,,,,,,,,
,,,,,,00088,2023-10-23_15h37.07.248,vbt_B1_day1,2022.2.4,Win32,58.4692744,,,,,,,,,,,,,,,,,,,0.164814843,-0.066666674,1,0,0,0.8833,1,25,51,5,1,f,images/br_f.png,images/cb_f.png,,,,,,,,,,,,,,,,,,,,,,,,,
,,,,,,00088,2023-10-23_15h37.07.248,vbt_B1_day1,2022.2.4,Win32,58.4692744,,,,,,,,,,,,,,,,,,,0.164814843,-0.066666674,1,0,0,0.8498,2,0,52,21,1,v,images/br_v.png,images/cb_v.png,,,,,,,,,,,,,,,,,,,,,,,,,
,,,,,,00088,2023-10-23_15h37.07.248,vbt_B1_day1,2022.2.4,Win32,58.4692744,,,,,,,,,,,,,,,,,,,0.164814843,-0.065740762,1,0,0,1.7678,2,1,53,8,1,i,images/br_i.png,images/cb_i.png,,,,,,,,,,,,,,,,,,,,,,,,,
,,,,,,00088,2023-10-23_15h37.07.248,vbt_B1_day1,2022.2.4,Win32,58.4692744,,,,,,,,,,,,,,,,,,,0.164814843,-0.065740762,1,0,0,0.4336,2,2,54,19,1,t,images/br_t.png,images/cb_t.png,,,,,,,,,,,,,,,,,,,,,,,,,
,,,,,,00088,2023-10-23_15h37.07.248,vbt_B1_day1,2022.2.4,Win32,58.4692744,,,,,,,,,,,,,,,,,,,0.164814843,-0.065740762,1,0,0,1.9668,2,3,55,14,1,o,images/br_o.png,images/cb_o.png,,,,,,,,,,,,,,,,,,,,,,,,,
,,,,,,00088,2023-10-23_15h37.07.248,vbt_B1_day1,2022.2.4,Win32,58.4692744,,,,,,,,,,,,,,,,,,,0.164814843,-0.065740762,1,0,0,0.6002,2,4,56,16,1,q,images/br_q.png,images/cb_q.png,,,,,,,,,,,,,,,,,,,,,,,,,
,,,,,,00088,2023-10-23_15h37.07.248,vbt_B1_day1,2022.2.4,Win32,58.4692744,,,,,,,,,,,,,,,,,,,0.164814843,-0.065740762,1,0,0,3.7668,2,5,57,18,1,s,images/br_s.png,images/cb_s.png,,,,,,,,,,,,,,,,,,,,,,,,,
,,,,,,00088,2023-10-23_15h37.07.248,vbt_B1_day1,2022.2.4,Win32,58.4692744,,,,,,,,,,,,,,,,,,,0.135185171,-0.050000014,1,0,0,3.3,2,6,58,10,1,k,images/br_k.png,images/cb_k.png,,,,,,,,,,,,,,,,,,,,,,,,,
,,,,,,00088,2023-10-23_15h37.07.248,vbt_B1_day1,2022.2.4,Win32,58.4692744,,,,,,,,,,,,,,,,,,,0.126851894,-0.0074074,1,0,0,1.3,2,7,59,22,1,w,images/br_w.png,images/cb_w.png,,,,,,,,,,,,,,,,,,,,,,,,,
,,,,,,00088,2023-10-23_15h37.07.248,vbt_B1_day1,2022.2.4,Win32,58.4692744,,,,,,,,,,,,,,,,,,,0.126851894,-0.0074074,1,0,0,2.3832,2,8,60,9,1,j,images/br_j.png,images/cb_j.png,,,,,,,,,,,,,,,,,,,,,,,,,
,,,,,,00088,2023-10-23_15h37.07.248,vbt_B1_day1,2022.2.4,Win32,58.4692744,,,,,,,,,,,,,,,,,,,0.126851894,-0.008333347,1,0,0,0.8502,2,9,61,6,1,g,images/br_g.png,images/cb_g.png,,,,,,,,,,,,,,,,,,,,,,,,,
,,,,,,00088,2023-10-23_15h37.07.248,vbt_B1_day1,2022.2.4,Win32,58.4692744,,,,,,,,,,,,,,,,,,,0.135185171,-0.017592607,1,0,0,3.5331,2,10,62,13,1,n,images/br_n.png,images/cb_n.png,,,,,,,,,,,,,,,,,,,,,,,,,
,,,,,,00088,2023-10-23_15h37.07.248,vbt_B1_day1,2022.2.4,Win32,58.4692744,,,,,,,,,,,,,,,,,,,0.135185171,-0.017592607,1,0,0,0.1835,2,11,63,1,1,b,images/br_b.png,images/cb_b.png,,,,,,,,,,,,,,,,,,,,,,,,,
,,,,,,00088,2023-10-23_15h37.07.248,vbt_B1_day1,2022.2.4,Win32,58.4692744,,,,,,,,,,,,,,,,,,,0.135185171,-0.017592607,1,0,0,1.65,2,12,64,23,1,x,images/br_x.png,images/cb_x.png,,,,,,,,,,,,,,,,,,,,,,,,,
,,,,,,00088,2023-10-23_15h37.07.248,vbt_B1_day1,2022.2.4,Win32,58.4692744,,,,,,,,,,,,,,,,,,,0.135185171,-0.017592607,1,0,0,2.2506,2,13,65,24,1,y,images/br_y.png,images/cb_y.png,,,,,,,,,,,,,,,,,,,,,,,,,
,,,,,,00088,2023-10-23_15h37.07.248,vbt_B1_day1,2022.2.4,Win32,58.4692744,,,,,,,,,,,,,,,,,,,0.135185171,-0.01666666,1,0,0,1.3499,2,14,66,17,1,r,images/br_r.png,images/cb_r.png,,,,,,,,,,,,,,,,,,,,,,,,,
,,,,,,00088,2023-10-23_15h37.07.248,vbt_B1_day1,2022.2.4,Win32,58.4692744,,,,,,,,,,,,,,,,,,,0.135185171,-0.01666666,1,0,0,1.4499,2,15,67,5,1,f,images/br_f.png,images/cb_f.png,,,,,,,,,,,,,,,,,,,,,,,,,
,,,,,,00088,2023-10-23_15h37.07.248,vbt_B1_day1,2022.2.4,Win32,58.4692744,,,,,,,,,,,,,,,,,,,0.136111153,-0.022222236,1,0,0,0.9,2,16,68,2,1,c,images/br_c.png,images/cb_c.png,,,,,,,,,,,,,,,,,,,,,,,,,
,,,,,,00088,2023-10-23_15h37.07.248,vbt_B1_day1,2022.2.4,Win32,58.4692744,,,,,,,,,,,,,,,,,,,0.136111153,-0.022222236,1,0,0,3.0173,2,17,69,25,1,z,images/br_z.png,images/cb_z.png,,,,,,,,,,,,,,,,,,,,,,,,,
,,,,,,00088,2023-10-23_15h37.07.248,vbt_B1_day1,2022.2.4,Win32,58.4692744,,,,,,,,,,,,,,,,,,,0.136111153,-0.022222236,1,0,0,1.2335,2,18,70,11,1,l,images/br_l.png,images/cb_l.png,,,,,,,,,,,,,,,,,,,,,,,,,
,,,,,,00088,2023-10-23_15h37.07.248,vbt_B1_day1,2022.2.4,Win32,58.4692744,,,,,,,,,,,,,,,,,,,0.136111153,-0.022222236,1,0,0,0.6835,2,19,71,7,1,h,images/br_h.png,images/cb_h.png,,,,,,,,,,,,,,,,,,,,,,,,,
,,,,,,00088,2023-10-23_15h37.07.248,vbt_B1_day1,2022.2.4,Win32,58.4692744,,,,,,,,,,,,,,,,,,,0.136111153,-0.022222236,1,0,0,0.7171,2,20,72,4,1,e,images/br_e.png,images/cb_e.png,,,,,,,,,,,,,,,,,,,,,,,,,
,,,,,,00088,2023-10-23_15h37.07.248,vbt_B1_day1,2022.2.4,Win32,58.4692744,,,,,,,,,,,,,,,,,,,0.136111153,-0.022222236,1,0,0,3.1664,2,21,73,3,1,d,images/br_d.png,images/cb_d.png,,,,,,,,,,,,,,,,,,,,,,,,,
,,,,,,00088,2023-10-23_15h37.07.248,vbt_B1_day1,2022.2.4,Win32,58.4692744,,,,,,,,,,,,,,,,,,,0.136111153,-0.022222236,1,0,0,8.217,2,22,74,12,1,m,images/br_m.png,images/cb_m.png,,,,,,,,,,,,,,,,,,,,,,,,,
,,,,,,00088,2023-10-23_15h37.07.248,vbt_B1_day1,2022.2.4,Win32,58.4692744,,,,,,,,,,,,,,,,,,,0.136111153,-0.022222236,1,0,0,1.9168,2,23,75,0,1,a,images/br_a.png,images/cb_a.png,,,,,,,,,,,,,,,,,,,,,,,,,
,,,,,,00088,2023-10-23_15h37.07.248,vbt_B1_day1,2022.2.4,Win32,58.4692744,,,,,,,,,,,,,,,,,,,0.136111153,-0.022222236,1,0,0,2.8002,2,24,76,15,1,p,images/br_p.png,images/cb_p.png,,,,,,,,,,,,,,,,,,,,,,,,,
,,,,,,00088,2023-10-23_15h37.07.248,vbt_B1_day1,2022.2.4,Win32,58.4692744,,,,,,,,,,,,,,,,,,,0.136111153,-0.022222236,1,0,0,0.3002,2,25,77,20,1,u,images/br_u.png,images/cb_u.png,,,,,,,,,,,,,,,,,,,,,,,,,
,,,,,,00088,2023-10-23_15h37.07.248,vbt_B1_day1,2022.2.4,Win32,58.4692744,,,,,,,,,,,,,,,,,,,0.136111153,-0.022222236,1,0,0,0.5334,3,0,78,18,1,s,images/br_s.png,images/cb_s.png,,,,,,,,,,,,,,,,,,,,,,,,,
,,,,,,00088,2023-10-23_15h37.07.248,vbt_B1_day1,2022.2.4,Win32,58.4692744,,,,,,,,,,,,,,,,,,,0.136111153,-0.022222236,1,0,0,0.7835,3,1,79,5,1,f,images/br_f.png,images/cb_f.png,,,,,,,,,,,,,,,,,,,,,,,,,
,,,,,,00088,2023-10-23_15h37.07.248,vbt_B1_day1,2022.2.4,Win32,58.4692744,,,,,,,,,,,,,,,,,,,0.138888889,-0.018518519,1,0,0,0.4005,3,2,80,9,1,j,images/br_j.png,images/cb_j.png,,,,,,,,,,,,,,,,,,,,,,,,,
,,,,,,00088,2023-10-23_15h37.07.248,vbt_B1_day1,2022.2.4,Win32,58.4692744,,,,,,,,,,,,,,,,,,,0.138888889,-0.018518519,1,0,0,0.9331,3,3,81,4,1,e,images/br_e.png,images/cb_e.png,,,,,,,,,,,,,,,,,,,,,,,,,
,,,,,,00088,2023-10-23_15h37.07.248,vbt_B1_day1,2022.2.4,Win32,58.4692744,,,,,,,,,,,,,,,,,,,0.138888889,-0.018518519,1,0,0,0.9335,3,4,82,7,1,h,images/br_h.png,images/cb_h.png,,,,,,,,,,,,,,,,,,,,,,,,,
,,,,,,00088,2023-10-23_15h37.07.248,vbt_B1_day1,2022.2.4,Win32,58.4692744,,,,,,,,,,,,,,,,,,,0.138888889,-0.018518519,1,0,0,3.9835,3,5,83,3,1,d,images/br_d.png,images/cb_d.png,,,,,,,,,,,,,,,,,,,,,,,,,
,,,,,,00088,2023-10-23_15h37.07.248,vbt_B1_day1,2022.2.4,Win32,58.4692744,,,,,,,,,,,,,,,,,,,0.138888889,-0.019444466,1,0,0,1.7502,3,6,84,21,1,v,images/br_v.png,images/cb_v.png,,,,,,,,,,,,,,,,,,,,,,,,,
,,,,,,00088,2023-10-23_15h37.07.248,vbt_B1_day1,2022.2.4,Win32,58.4692744,,,,,,,,,,,,,,,,,,,0.138888889,-0.019444466,1,0,0,0.4334,3,7,85,25,1,z,images/br_z.png,images/cb_z.png,,,,,,,,,,,,,,,,,,,,,,,,,
,,,,,,00088,2023-10-23_15h37.07.248,vbt_B1_day1,2022.2.4,Win32,58.4692744,,,,,,,,,,,,,,,,,,,0.162962949,-0.056481503,1,0,0,0.6667,3,8,86,22,1,w,images/br_w.png,images/cb_w.png,,,,,,,,,,,,,,,,,,,,,,,,,
,,,,,,00088,2023-10-23_15h37.07.248,vbt_B1_day1,2022.2.4,Win32,58.4692744,,,,,,,,,,,,,,,,,,,0.165740755,-0.038888896,1,0,0,0.5501,3,9,87,10,1,k,images/br_k.png,images/cb_k.png,,,,,,,,,,,,,,,,,,,,,,,,,
,,,,,,00088,2023-10-23_15h37.07.248,vbt_B1_day1,2022.2.4,Win32,58.4692744,,,,,,,,,,,,,,,,,,,0.165740755,-0.038888896,1,0,0,0.1503,3,10,88,15,1,p,images/br_p.png,images/cb_p.png,,,,,,,,,,,,,,,,,,,,,,,,,
,,,,,,00088,2023-10-23_15h37.07.248,vbt_B1_day1,2022.2.4,Win32,58.4692744,,,,,,,,,,,,,,,,,,,0.165740755,-0.038888896,1,0,0,0.8664,3,11,89,2,1,c,images/br_c.png,images/cb_c.png,,,,,,,,,,,,,,,,,,,,,,,,,
,,,,,,00088,2023-10-23_15h37.07.248,vbt_B1_day1,2022.2.4,Win32,58.4692744,,,,,,,,,,,,,,,,,,,0.165740755,-0.038888896,1,0,0,2.4502,3,12,90,17,1,r,images/br_r.png,images/cb_r.png,,,,,,,,,,,,,,,,,,,,,,,,,
,,,,,,00088,2023-10-23_15h37.07.248,vbt_B1_day1,2022.2.4,Win32,58.4692744,,,,,,,,,,,,,,,,,,,0.165740755,-0.038888896,1,0,0,0.5668,3,13,91,14,1,o,images/br_o.png,images/cb_o.png,,,,,,,,,,,,,,,,,,,,,,,,,
,,,,,,00088,2023-10-23_15h37.07.248,vbt_B1_day1,2022.2.4,Win32,58.4692744,,,,,,,,,,,,,,,,,,,0.164814843,-0.276851866,1,0,0,27.2176,3,14,92,24,1,y,images/br_y.png,images/cb_y.png,,,,,,,,,,,,,,,,,,,,,,,,,
,,,,,,00088,2023-10-23_15h37.07.248,vbt_B1_day1,2022.2.4,Win32,58.4692744,,,,,,,,,,,,,,,,,,,0.237037023,-0.136111153,1,0,0,1.6501,3,15,93,11,1,l,images/br_l.png,images/cb_l.png,,,,,,,,,,,,,,,,,,,,,,,,,
,,,,,,00088,2023-10-23_15h37.07.248,vbt_B1_day1,2022.2.4,Win32,58.4692744,,,,,,,,,,,,,,,,,,,0.229629658,-0.150000042,1,0,0,3.7669,3,16,94,19,1,t,images/br_t.png,images/cb_t.png,,,,,,,,,,,,,,,,,,,,,,,,,
,,,,,,00088,2023-10-23_15h37.07.248,vbt_B1_day1,2022.2.4,Win32,58.4692744,,,,,,,,,,,,,,,,,,,0.229629658,-0.157407407,1,0,0,1.0501,3,17,95,23,1,x,images/br_x.png,images/cb_x.png,,,,,,,,,,,,,,,,,,,,,,,,,
,,,,,,00088,2023-10-23_15h37.07.248,vbt_B1_day1,2022.2.4,Win32,58.4692744,,,,,,,,,,,,,,,,,,,0.226851852,-0.160185213,1,0,0,2.2835,3,18,96,0,1,a,images/br_a.png,images/cb_a.png,,,,,,,,,,,,,,,,,,,,,,,,,
,,,,,,00088,2023-10-23_15h37.07.248,vbt_B1_day1,2022.2.4,Win32,58.4692744,,,,,,,,,,,,,,,,,,,0.226851852,-0.160185213,1,0,0,0.4836,3,19,97,12,1,m,images/br_m.png,images/cb_m.png,,,,,,,,,,,,,,,,,,,,,,,,,
,,,,,,00088,2023-10-23_15h37.07.248,vbt_B1_day1,2022.2.4,Win32,58.4692744,,,,,,,,,,,,,,,,,,,0.226851852,-0.160185213,1,0,0,0.3666,3,20,98,6,1,g,images/br_g.png,images/cb_g.png,,,,,,,,,,,,,,,,,,,,,,,,,
,,,,,,00088,2023-10-23_15h37.07.248,vbt_B1_day1,2022.2.4,Win32,58.4692744,,,,,,,,,,,,,,,,,,,0.226851852,-0.160185213,1,0,0,1.7664,3,21,99,8,1,i,images/br_i.png,images/cb_i.png,,,,,,,,,,,,,,,,,,,,,,,,,
,,,,,,00088,2023-10-23_15h37.07.248,vbt_B1_day1,2022.2.4,Win32,58.4692744,,,,,,,,,,,,,,,,,,,0.226851852,-0.160185213,1,0,0,0.5501,3,22,100,1,1,b,images/br_b.png,images/cb_b.png,,,,,,,,,,,,,,,,,,,,,,,,,
,,,,,,00088,2023-10-23_15h37.07.248,vbt_B1_day1,2022.2.4,Win32,58.4692744,,,,,,,,,,,,,,,,,,,0.226851852,-0.160185213,1,0,0,0.6162,3,23,101,20,1,u,images/br_u.png,images/cb_u.png,,,,,,,,,,,,,,,,,,,,,,,,,
,,,,,,00088,2023-10-23_15h37.07.248,vbt_B1_day1,2022.2.4,Win32,58.4692744,,,,,,,,,,,,,,,,,,,0.226851852,-0.160185213,1,0,0,1.5178,3,24,102,13,1,n,images/br_n.png,images/cb_n.png,,,,,,,,,,,,,,,,,,,,,,,,,
,,,,,,00088,2023-10-23_15h37.07.248,vbt_B1_day1,2022.2.4,Win32,58.4692744,,,,,,,,,,,,,,,,,,,0.226851852,-0.160185213,1,0,0,0.3838,3,25,103,16,1,q,images/br_q.png,images/cb_q.png,,,,,,,,,,,,,,,,,,,,,,,,,
,,,,,,00088,2023-10-23_15h37.07.248,vbt_B1_day1,2022.2.4,Win32,58.4692744,,,,,,,,,,,,,,,,,,,0.226851852,-0.160185213,1,0,0,5.5502,4,0,104,3,1,d,images/br_d.png,images/cb_d.png,,,,,,,,,,,,,,,,,,,,,,,,,
,,,,,,00088,2023-10-23_15h37.07.248,vbt_B1_day1,2022.2.4,Win32,58.4692744,,,,,,,,,,,,,,,,,,,0.226851852,-0.160185213,1,0,0,0.55,4,1,105,11,1,l,images/br_l.png,images/cb_l.png,,,,,,,,,,,,,,,,,,,,,,,,,
,,,,,,00088,2023-10-23_15h37.07.248,vbt_B1_day1,2022.2.4,Win32,58.4692744,,,,,,,,,,,,,,,,,,,0.237963005,-0.140740783,1,0,0,0.5669,4,2,106,1,1,b,images/br_b.png,images/cb_b.png,,,,,,,,,,,,,,,,,,,,,,,,,
,,,,,,00088,2023-10-23_15h37.07.248,vbt_B1_day1,2022.2.4,Win32,58.4692744,,,,,,,,,,,,,,,,,,,0.238888917,-0.142592607,1,0,0,0.2833,4,3,107,12,1,m,images/br_m.png,images/cb_m.png,,,,,,,,,,,,,,,,,,,,,,,,,
,,,,,,00088,2023-10-23_15h37.07.248,vbt_B1_day1,2022.2.4,Win32,58.4692744,,,,,,,,,,,,,,,,,,,0.238888917,-0.143518519,1,0,0,2.0169,4,4,108,4,1,e,images/br_e.png,images/cb_e.png,,,,,,,,,,,,,,,,,,,,,,,,,
,,,,,,00088,2023-10-23_15h37.07.248,vbt_B1_day1,2022.2.4,Win32,58.4692744,,,,,,,,,,,,,,,,,,,0.238888917,-0.14444443,1,0,0,0.4666,4,5,109,22,1,w,images/br_w.png,images/cb_w.png,,,,,,,,,,,,,,,,,,,,,,,,,
,,,,,,00088,2023-10-23_15h37.07.248,vbt_B1_day1,2022.2.4,Win32,58.4692744,,,,,,,,,,,,,,,,,,,0.238888917,-0.14444443,1,0,0,1.5333,4,6,110,25,1,z,images/br_z.png,images/cb_z.png,,,,,,,,,,,,,,,,,,,,,,,,,
,,,,,,00088,2023-10-23_15h37.07.248,vbt_B1_day1,2022.2.4,Win32,58.4692744,,,,,,,,,,,,,,,,,,,0.238888917,-0.14444443,1,0,0,2.4668,4,7,111,17,1,r,images/br_r.png,images/cb_r.png,,,,,,,,,,,,,,,,,,,,,,,,,
,,,,,,00088,2023-10-23_15h37.07.248,vbt_B1_day1,2022.2.4,Win32,58.4692744,,,,,,,,,,,,,,,,,,,0.226851852,-0.08425928,1,0,0,1.0163,4,8,112,23,1,x,images/br_x.png,images/cb_x.png,,,,,,,,,,,,,,,,,,,,,,,,,
,,,,,,00088,2023-10-23_15h37.07.248,vbt_B1_day1,2022.2.4,Win32,58.4692744,,,,,,,,,,,,,,,,,,,0.226851852,-0.085185192,1,0,0,0.3335,4,9,113,2,1,c,images/br_c.png,images/cb_c.png,,,,,,,,,,,,,,,,,,,,,,,,,
,,,,,,00088,2023-10-23_15h37.07.248,vbt_B1_day1,2022.2.4,Win32,58.4692744,,,,,,,,,,,,,,,,,,,0.226851852,-0.085185192,1,0,0,6.0836,4,10,114,6,1,g,images/br_g.png,images/cb_g.png,,,,,,,,,,,,,,,,,,,,,,,,,
,,,,,,00088,2023-10-23_15h37.07.248,vbt_B1_day1,2022.2.4,Win32,58.4692744,,,,,,,,,,,,,,,,,,,0.228703746,-0.08888891,1,0,0,1.0002,4,11,115,19,1,t,images/br_t.png,images/cb_t.png,,,,,,,,,,,,,,,,,,,,,,,,,
,,,,,,00088,2023-10-23_15h37.07.248,vbt_B1_day1,2022.2.4,Win32,58.4692744,,,,,,,,,,,,,,,,,,,0.228703746,-0.08888891,1,0,0,1.3838,4,12,116,15,1,p,images/br_p.png,images/cb_p.png,,,,,,,,,,,,,,,,,,,,,,,,,
,,,,,,00088,2023-10-23_15h37.07.248,vbt_B1_day1,2022.2.4,Win32,58.4692744,,,,,,,,,,,,,,,,,,,0.228703746,-0.08888891,1,0,0,2.565,4,13,117,21,1,v,images/br_v.png,images/cb_v.png,,,,,,,,,,,,,,,,,,,,,,,,,
,,,,,,00088,2023-10-23_15h37.07.248,vbt_B1_day1,2022.2.4,Win32,58.4692744,,,,,,,,,,,,,,,,,,,0.228703746,-0.08888891,1,0,0,0.2835,4,14,118,5,1,f,images/br_f.png,images/cb_f.png,,,,,,,,,,,,,,,,,,,,,,,,,
,,,,,,00088,2023-10-23_15h37.07.248,vbt_B1_day1,2022.2.4,Win32,58.4692744,,,,,,,,,,,,,,,,,,,0.228703746,-0.08888891,1,0,0,0.6994,4,15,119,0,1,a,images/br_a.png,images/cb_a.png,,,,,,,,,,,,,,,,,,,,,,,,,
,,,,,,00088,2023-10-23_15h37.07.248,vbt_B1_day1,2022.2.4,Win32,58.4692744,,,,,,,,,,,,,,,,,,,0.228703746,-0.08888891,1,0,0,1.3835,4,16,120,10,1,k,images/br_k.png,images/cb_k.png,,,,,,,,,,,,,,,,,,,,,,,,,
,,,,,,00088,2023-10-23_15h37.07.248,vbt_B1_day1,2022.2.4,Win32,58.4692744,,,,,,,,,,,,,,,,,,,0.228703746,-0.08888891,1,0,0,4.0669,4,17,121,7,1,h,images/br_h.png,images/cb_h.png,,,,,,,,,,,,,,,,,,,,,,,,,
,,,,,,00088,2023-10-23_15h37.07.248,vbt_B1_day1,2022.2.4,Win32,58.4692744,,,,,,,,,,,,,,,,,,,0.224074116,-0.078703704,1,0,0,0.8499,4,18,122,8,1,i,images/br_i.png,images/cb_i.png,,,,,,,,,,,,,,,,,,,,,,,,,
,,,,,,00088,2023-10-23_15h37.07.248,vbt_B1_day1,2022.2.4,Win32,58.4692744,,,,,,,,,,,,,,,,,,,0.224074116,-0.08425928,1,0,0,2.05,4,19,123,9,1,j,images/br_j.png,images/cb_j.png,,,,,,,,,,,,,,,,,,,,,,,,,
,,,,,,00088,2023-10-23_15h37.07.248,vbt_B1_day1,2022.2.4,Win32,58.4692744,,,,,,,,,,,,,,,,,,,0.224074116,-0.08425928,1,0,0,1.5001,4,20,124,16,1,q,images/br_q.png,images/cb_q.png,,,,,,,,,,,,,,,,,,,,,,,,,
,,,,,,00088,2023-10-23_15h37.07.248,vbt_B1_day1,2022.2.4,Win32,58.4692744,,,,,,,,,,,,,,,,,,,0.22592594,-0.08888891,1,0,0,2.0001,4,21,125,18,1,s,images/br_s.png,images/cb_s.png,,,,,,,,,,,,,,,,,,,,,,,,,
,,,,,,00088,2023-10-23_15h37.07.248,vbt_B1_day1,2022.2.4,Win32,58.4692744,,,,,,,,,,,,,,,,,,,0.22592594,-0.08888891,1,0,0,0.3504,4,22,126,20,1,u,images/br_u.png,images/cb_u.png,,,,,,,,,,,,,,,,,,,,,,,,,
,,,,,,00088,2023-10-23_15h37.07.248,vbt_B1_day1,2022.2.4,Win32,58.4692744,,,,,,,,,,,,,,,,,,,0.22592594,-0.08888891,1,0,0,0.233,4,23,127,13,1,n,images/br_n.png,images/cb_n.png,,,,,,,,,,,,,,,,,,,,,,,,,
,,,,,,00088,2023-10-23_15h37.07.248,vbt_B1_day1,2022.2.4,Win32,58.4692744,,,,,,,,,,,,,,,,,,,0.22592594,-0.08888891,1,0,0,0.4676,4,24,128,24,1,y,images/br_y.png,images/cb_y.png,,,,,,,,,,,,,,,,,,,,,,,,,
,,,,,,00088,2023-10-23_15h37.07.248,vbt_B1_day1,2022.2.4,Win32,58.4692744,,,,,,,,,,,,,,,,,,,0.22592594,-0.08888891,1,0,0,5.1171,4,25,129,14,1,o,images/br_o.png,images/cb_o.png,,,,,,,,,,,,,,,,,,,,,,,,,
,,,,,,00088,2023-10-23_15h37.07.248,vbt_B1_day1,2022.2.4,Win32,58.4692744,,,,,,,,,,,,,,,,,,,0.217592593,-0.069444444,1,0,0,0.6169,5,0,130,10,1,k,images/br_k.png,images/cb_k.png,,,,,,,,,,,,,,,,,,,,,,,,,
,,,,,,00088,2023-10-23_15h37.07.248,vbt_B1_day1,2022.2.4,Win32,58.4692744,,,,,,,,,,,,,,,,,,,0.215740769,-0.069444444,1,0,0,0.2001,5,1,131,2,1,c,images/br_c.png,images/cb_c.png,,,,,,,,,,,,,,,,,,,,,,,,,
,,,,,,00088,2023-10-23_15h37.07.248,vbt_B1_day1,2022.2.4,Win32,58.4692744,,,,,,,,,,,,,,,,,,,0.215740769,-0.070370392,1,0,0,1.2498,5,2,132,8,1,i,images/br_i.png,images/cb_i.png,,,,,,,,,,,,,,,,,,,,,,,,,
,,,,,,00088,2023-10-23_15h37.07.248,vbt_B1_day1,2022.2.4,Win32,58.4692744,,,,,,,,,,,,,,,,,,,0.216666681,-0.075000021,1,0,0,2.9675,5,3,133,15,1,p,images/br_p.png,images/cb_p.png,,,,,,,,,,,,,,,,,,,,,,,,,
,,,,,,00088,2023-10-23_15h37.07.248,vbt_B1_day1,2022.2.4,Win32,58.4692744,,,,,,,,,,,,,,,,,,,0.216666681,-0.075925933,1,0,0,0.8663,5,4,134,0,1,a,images/br_a.png,images/cb_a.png,,,,,,,,,,,,,,,,,,,,,,,,,
,,,,,,00088,2023-10-23_15h37.07.248,vbt_B1_day1,2022.2.4,Win32,58.4692744,,,,,,,,,,,,,,,,,,,0.216666681,-0.052777785,1,0,0,2.3668,5,5,135,17,1,r,images/br_r.png,images/cb_r.png,,,,,,,,,,,,,,,,,,,,,,,,,
,,,,,,00088,2023-10-23_15h37.07.248,vbt_B1_day1,2022.2.4,Win32,58.4692744,,,,,,,,,,,,,,,,,,,0.216666681,-0.052777785,1,0,0,5.0167,5,6,136,21,1,v,images/br_v.png,images/cb_v.png,,,,,,,,,,,,,,,,,,,,,,,,,
,,,,,,00088,2023-10-23_15h37.07.248,vbt_B1_day1,2022.2.4,Win32,58.4692744,,,,,,,,,,,,,,,,,,,0.216666681,-0.054629644,1,0,0,0.6333,5,7,137,14,1,o,images/br_o.png,images/cb_o.png,,,,,,,,,,,,,,,,,,,,,,,,,
,,,,,,00088,2023-10-23_15h37.07.248,vbt_B1_day1,2022.2.4,Win32,58.4692744,,,,,,,,,,,,,,,,,,,0.216666681,-0.054629644,1,0,0,2.5674,5,8,138,7,1,h,images/br_h.png,images/cb_h.png,,,,,,,,,,,,,,,,,,,,,,,,,
,,,,,,00088,2023-10-23_15h37.07.248,vbt_B1_day1,2022.2.4,Win32,58.4692744,,,,,,,,,,,,,,,,,,,0.216666681,-0.054629644,1,0,0,0.9168,5,9,139,25,1,z,images/br_z.png,images/cb_z.png,,,,,,,,,,,,,,,,,,,,,,,,,
,,,,,,00088,2023-10-23_15h37.07.248,vbt_B1_day1,2022.2.4,Win32,58.4692744,,,,,,,,,,,,,,,,,,,0.216666681,-0.054629644,1,0,0,2.5668,5,10,140,3,1,d,images/br_d.png,images/cb_d.png,,,,,,,,,,,,,,,,,,,,,,,,,
,,,,,,00088,2023-10-23_15h37.07.248,vbt_B1_day1,2022.2.4,Win32,58.4692744,,,,,,,,,,,,,,,,,,,0.216666681,-0.054629644,1,0,0,1.7835,5,11,141,19,1,t,images/br_t.png,images/cb_t.png,,,,,,,,,,,,,,,,,,,,,,,,,
,,,,,,00088,2023-10-23_15h37.07.248,vbt_B1_day1,2022.2.4,Win32,58.4692744,,,,,,,,,,,,,,,,,,,0.186111097,-0.027777778,1,0,0,0.6335,5,12,142,16,1,q,images/br_q.png,images/cb_q.png,,,,,,,,,,,,,,,,,,,,,,,,,
,,,,,,00088,2023-10-23_15h37.07.248,vbt_B1_day1,2022.2.4,Win32,58.4692744,,,,,,,,,,,,,,,,,,,0.186111097,-0.027777778,1,0,0,3.7667,5,13,143,5,1,f,images/br_f.png,images/cb_f.png,,,,,,,,,,,,,,,,,,,,,,,,,
,,,,,,00088,2023-10-23_15h37.07.248,vbt_B1_day1,2022.2.4,Win32,58.4692744,,,,,,,,,,,,,,,,,,,0.186111097,-0.027777778,1,0,0,0.2676,5,14,144,4,1,e,images/br_e.png,images/cb_e.png,,,,,,,,,,,,,,,,,,,,,,,,,
,,,,,,00088,2023-10-23_15h37.07.248,vbt_B1_day1,2022.2.4,Win32,58.4692744,,,,,,,,,,,,,,,,,,,0.186111097,-0.027777778,1,0,0,0.9333,5,15,145,11,1,l,images/br_l.png,images/cb_l.png,,,,,,,,,,,,,,,,,,,,,,,,,
,,,,,,00088,2023-10-23_15h37.07.248,vbt_B1_day1,2022.2.4,Win32,58.4692744,,,,,,,,,,,,,,,,,,,0.186111097,-0.027777778,1,0,0,2.1333,5,16,146,22,1,w,images/br_w.png,images/cb_w.png,,,,,,,,,,,,,,,,,,,,,,,,,
,,,,,,00088,2023-10-23_15h37.07.248,vbt_B1_day1,2022.2.4,Win32,58.4692744,,,,,,,,,,,,,,,,,,,0.18240745,-0.028703725,1,0,0,0.8002,5,17,147,23,1,x,images/br_x.png,images/cb_x.png,,,,,,,,,,,,,,,,,,,,,,,,,
,,,,,,00088,2023-10-23_15h37.07.248,vbt_B1_day1,2022.2.4,Win32,58.4692744,,,,,,,,,,,,,,,,,,,0.174074102,0,1,0,0,0.95,5,18,148,9,1,j,images/br_j.png,images/cb_j.png,,,,,,,,,,,,,,,,,,,,,,,,,
,,,,,,00088,2023-10-23_15h37.07.248,vbt_B1_day1,2022.2.4,Win32,58.4692744,,,,,,,,,,,,,,,,,,,0.174074102,-0.006481489,1,0,0,1.3168,5,19,149,18,1,s,images/br_s.png,images/cb_s.png,,,,,,,,,,,,,,,,,,,,,,,,,
,,,,,,00088,2023-10-23_15h37.07.248,vbt_B1_day1,2022.2.4,Win32,58.4692744,,,,,,,,,,,,,,,,,,,0.175000014,-0.009259259,1,0,0,3.5667,5,20,150,6,1,g,images/br_g.png,images/cb_g.png,,,,,,,,,,,,,,,,,,,,,,,,,
,,,,,,00088,2023-10-23_15h37.07.248,vbt_B1_day1,2022.2.4,Win32,58.4692744,,,,,,,,,,,,,,,,,,,0.175000014,-0.009259259,1,0,0,2.1336,5,21,151,12,1,m,images/br_m.png,images/cb_m.png,,,,,,,,,,,,,,,,,,,,,,,,,
,,,,,,00088,2023-10-23_15h37.07.248,vbt_B1_day1,2022.2.4,Win32,58.4692744,,,,,,,,,,,,,,,,,,,0.175925926,-0.010185206,1,0,0,1.0997,5,22,152,24,1,y,images/br_y.png,images/cb_y.png,,,,,,,,,,,,,,,,,,,,,,,,,
,,,,,,00088,2023-10-23_15h37.07.248,vbt_B1_day1,2022.2.4,Win32,58.4692744,,,,,,,,,,,,,,,,,,,0.175925926,-0.010185206,1,0,0,1.0001,5,23,153,1,1,b,images/br_b.png,images/cb_b.png,,,,,,,,,,,,,,,,,,,,,,,,,
,,,,,,00088,2023-10-23_15h37.07.248,vbt_B1_day1,2022.2.4,Win32,58.4692744,,,,,,,,,,,,,,,,,,,0.175925926,-0.010185206,1,0,0,0.6665,5,24,154,13,1,n,images/br_n.png,images/cb_n.png,,,,,,,,,,,,,,,,,,,,,,,,,
,,,,,,00088,2023-10-23_15h37.07.248,vbt_B1_day1,2022.2.4,Win32,58.4692744,,,,,,,,,,,,,,,,,,,0.175925926,-0.01203703,1,0,0,1.9167,5,25,155,20,1,u,images/br_u.png,images/cb_u.png,,,,,,,,,,,,,,,,,,,,,,,,,
,,,,,,00088,2023-10-23_15h37.07.248,vbt_B1_day1,2022.2.4,Win32,58.4692744,,,,,,,,,,,,,,,,,,,0.175925926,-0.01203703,1,0,0,0.4337,6,0,156,23,1,x,images/br_x.png,images/cb_x.png,,,,,,,,,,,,,,,,,,,,,,,,,
,,,,,,00088,2023-10-23_15h37.07.248,vbt_B1_day1,2022.2.4,Win32,58.4692744,,,,,,,,,,,,,,,,,,,0.175925926,-0.01203703,1,0,0,0.4003,6,1,157,2,1,c,images/br_c.png,images/cb_c.png,,,,,,,,,,,,,,,,,,,,,,,,,
,,,,,,00088,2023-10-23_15h37.07.248,vbt_B1_day1,2022.2.4,Win32,58.4692744,,,,,,,,,,,,,,,,,,,0.175925926,0.001851859,1,0,0,0.95,6,2,158,10,1,k,images/br_k.png,images/cb_k.png,,,,,,,,,,,,,,,,,,,,,,,,,
,,,,,,00088,2023-10-23_15h37.07.248,vbt_B1_day1,2022.2.4,Win32,58.4692744,,,,,,,,,,,,,,,,,,,0.175925926,0.001851859,1,0,0,1.8839,6,3,159,8,1,i,images/br_i.png,images/cb_i.png,,,,,,,,,,,,,,,,,,,,,,,,,
,,,,,,00088,2023-10-23_15h37.07.248,vbt_B1_day1,2022.2.4,Win32,58.4692744,,,,,,,,,,,,,,,,,,,0.175925926,0.001851859,1,0,0,0.7,6,4,160,24,1,y,images/br_y.png,images/cb_y.png,,,,,,,,,,,,,,,,,,,,,,,,,
,,,,,,00088,2023-10-23_15h37.07.248,vbt_B1_day1,2022.2.4,Win32,58.4692744,,,,,,,,,,,,,,,,,,,0.175925926,0.001851859,1,0,0,0.3002,6,5,161,7,1,h,images/br_h.png,images/cb_h.png,,,,,,,,,,,,,,,,,,,,,,,,,
,,,,,,00088,2023-10-23_15h37.07.248,vbt_B1_day1,2022.2.4,Win32,58.4692744,,,,,,,,,,,,,,,,,,,0.175925926,0.001851859,1,0,0,0.6169,6,6,162,17,1,r,images/br_r.png,images/cb_r.png,,,,,,,,,,,,,,,,,,,,,,,,,
,,,,,,00088,2023-10-23_15h37.07.248,vbt_B1_day1,2022.2.4,Win32,58.4692744,,,,,,,,,,,,,,,,,,,0.175925926,0.001851859,1,0,0,2.1501,6,7,163,21,1,v,images/br_v.png,images/cb_v.png,,,,,,,,,,,,,,,,,,,,,,,,,
,,,,,,00088,2023-10-23_15h37.07.248,vbt_B1_day1,2022.2.4,Win32,58.4692744,,,,,,,,,,,,,,,,,,,0.173148191,-0.026851866,1,0,0,1.1336,6,8,164,11,1,l,images/br_l.png,images/cb_l.png,,,,,,,,,,,,,,,,,,,,,,,,,
,,,,,,00088,2023-10-23_15h37.07.248,vbt_B1_day1,2022.2.4,Win32,58.4692744,,,,,,,,,,,,,,,,,,,0.173148191,-0.025925919,1,0,0,7.0502,6,9,165,15,1,p,images/br_p.png,images/cb_p.png,,,,,,,,,,,,,,,,,,,,,,,,,
,,,,,,00088,2023-10-23_15h37.07.248,vbt_B1_day1,2022.2.4,Win32,58.4692744,,,,,,,,,,,,,,,,,,,0.173148191,-0.025925919,1,0,0,0.5833,6,10,166,6,1,g,images/br_g.png,images/cb_g.png,,,,,,,,,,,,,,,,,,,,,,,,,
,,,,,,00088,2023-10-23_15h37.07.248,vbt_B1_day1,2022.2.4,Win32,58.4692744,,,,,,,,,,,,,,,,,,,0.173148191,-0.025925919,1,0,0,0.0335,6,11,167,1,1,b,images/br_b.png,images/cb_b.png,,,,,,,,,,,,,,,,,,,,,,,,,
,,,,,,00088,2023-10-23_15h37.07.248,vbt_B1_day1,2022.2.4,Win32,58.4692744,,,,,,,,,,,,,,,,,,,0.173148191,-0.025925919,1,0,0,1.9835,6,12,168,16,1,q,images/br_q.png,images/cb_q.png,,,,,,,,,,,,,,,,,,,,,,,,,
,,,,,,00088,2023-10-23_15h37.07.248,vbt_B1_day1,2022.2.4,Win32,58.4692744,,,,,,,,,,,,,,,,,,,0.173148191,-0.025925919,1,0,0,0.3833,6,13,169,13,1,n,images/br_n.png,images/cb_n.png,,,,,,,,,,,,,,,,,,,,,,,,,
,,,,,,00088,2023-10-23_15h37.07.248,vbt_B1_day1,2022.2.4,Win32,58.4692744,,,,,,,,,,,,,,,,,,,0.173148191,-0.025925919,1,0,0,2.1334,6,14,170,3,1,d,images/br_d.png,images/cb_d.png,,,,,,,,,,,,,,,,,,,,,,,,,
,,,,,,00088,2023-10-23_15h37.07.248,vbt_B1_day1,2022.2.4,Win32,58.4692744,,,,,,,,,,,,,,,,,,,0.173148191,-0.025925919,1,0,0,0.7836,6,15,171,12,1,m,images/br_m.png,images/cb_m.png,,,,,,,,,,,,,,,,,,,,,,,,,
,,,,,,00088,2023-10-23_15h37.07.248,vbt_B1_day1,2022.2.4,Win32,58.4692744,,,,,,,,,,,,,,,,,,,0.172222208,-0.025000007,1,0,0,1.0002,6,16,172,18,1,s,images/br_s.png,images/cb_s.png,,,,,,,,,,,,,,,,,,,,,,,,,
,,,,,,00088,2023-10-23_15h37.07.248,vbt_B1_day1,2022.2.4,Win32,58.4692744,,,,,,,,,,,,,,,,,,,0.172222208,-0.025000007,1,0,0,0.2001,6,17,173,22,1,w,images/br_w.png,images/cb_w.png,,,,,,,,,,,,,,,,,,,,,,,,,
,,,,,,00088,2023-10-23_15h37.07.248,vbt_B1_day1,2022.2.4,Win32,58.4692744,,,,,,,,,,,,,,,,,,,0.172222208,-0.025000007,1,0,0,1.2334,6,18,174,25,1,z,images/br_z.png,images/cb_z.png,,,,,,,,,,,,,,,,,,,,,,,,,
,,,,,,00088,2023-10-23_15h37.07.248,vbt_B1_day1,2022.2.4,Win32,58.4692744,,,,,,,,,,,,,,,,,,,0.172222208,-0.025000007,1,0,0,0.4504,6,19,175,0,1,a,images/br_a.png,images/cb_a.png,,,,,,,,,,,,,,,,,,,,,,,,,
,,,,,,00088,2023-10-23_15h37.07.248,vbt_B1_day1,2022.2.4,Win32,58.4692744,,,,,,,,,,,,,,,,,,,0.172222208,-0.025000007,1,0,0,2.8003,6,20,176,20,1,u,images/br_u.png,images/cb_u.png,,,,,,,,,,,,,,,,,,,,,,,,,
,,,,,,00088,2023-10-23_15h37.07.248,vbt_B1_day1,2022.2.4,Win32,58.4692744,,,,,,,,,,,,,,,,,,,0.172222208,-0.025000007,1,0,0,0.7164,6,21,177,14,1,o,images/br_o.png,images/cb_o.png,,,,,,,,,,,,,,,,,,,,,,,,,
,,,,,,00088,2023-10-23_15h37.07.248,vbt_B1_day1,2022.2.4,Win32,58.4692744,,,,,,,,,,,,,,,,,,,0.172222208,-0.021296289,1,0,0,1.2838,6,22,178,4,1,e,images/br_e.png,images/cb_e.png,,,,,,,,,,,,,,,,,,,,,,,,,
,,,,,,00088,2023-10-23_15h37.07.248,vbt_B1_day1,2022.2.4,Win32,58.4692744,,,,,,,,,,,,,,,,,,,0.172222208,-0.023148148,1,0,0,0.4834,6,23,179,19,1,t,images/br_t.png,images/cb_t.png,,,,,,,,,,,,,,,,,,,,,,,,,
,,,,,,00088,2023-10-23_15h37.07.248,vbt_B1_day1,2022.2.4,Win32,58.4692744,,,,,,,,,,,,,,,,,,,0.172222208,-0.024074095,1,0,0,6.8336,6,24,180,9,1,j,images/br_j.png,images/cb_j.png,,,,,,,,,,,,,,,,,,,,,,,,,
,,,,,,00088,2023-10-23_15h37.07.248,vbt_B1_day1,2022.2.4,Win32,58.4692744,,,,,,,,,,,,,,,,,,,0.172222208,-0.025925919,1,0,0,0.333,6,25,181,5,1,f,images/br_f.png,images/cb_f.png,,,,,,,,,,,,,,,,,,,,,,,,,
,,,,,,00088,2023-10-23_15h37.07.248,vbt_B1_day1,2022.2.4,Win32,58.4692744,,,,,,,,,,,,,,,,,,,,,,,,,,,,,,,,,0.002777806,-0.499074088,1,0,0,,,,,,,,,,,,,,,,,,,,
,,,,,,00088,2023-10-23_15h37.07.248,vbt_B1_day1,2022.2.4,Win32,58.4692744,,,,,,,,,,,,,,,,,,,,,,,,,,,,,,,,,,,,,,-0.240740741,-0.275925954,1,0,1,,,,,,,,,,,,,,,
,,,,,,00088,2023-10-23_15h37.07.248,vbt_B1_day1,2022.2.4,Win32,58.4692744,,,,,,,,,,,,,,,,,,,,,,,,,,,,,,,,,,,,,,,,,,,-0.077777792,-0.078703704,1,0,0,,,0,0,0,57,1,meenemen,images/br_meenemen.png,images/cb_meenemen.png
,,,,,,00088,2023-10-23_15h37.07.248,vbt_B1_day1,2022.2.4,Win32,58.4692744,,,,,,,,,,,,,,,,,,,,,,,,,,,,,,,,,,,,,,,,,,,-0.227777764,0.001851859,1,0,0,fe,fe,0,1,1,45,1,hemel,images/br_hemel.png,images/cb_hemel.png
,,,,,,00088,2023-10-23_15h37.07.248,vbt_B1_day1,2022.2.4,Win32,58.4692744,,,,,,,,,,,,,,,,,,,,,,,,,,,,,,,,,,,,,,,,,,,-0.357407393,-0.070370392,1,0,0,fis,fis,0,2,2,33,1,flullen,images/br_flullen.png,images/cb_flullen.png
,,,,,,00088,2023-10-23_15h37.07.248,vbt_B1_day1,2022.2.4,Win32,58.4692744,,,,,,,,,,,,,,,,,,,,,,,,,,,,,,,,,,,,,,,,,,,-0.343518504,-0.071296303,1,0,0,,,0,3,3,27,1,prort,images/br_prort.png,images/cb_prort.png
,,,,,,00088,2023-10-23_15h37.07.248,vbt_B1_day1,2022.2.4,Win32,58.4692744,,,,,,,,,,,,,,,,,,,,,,,,,,,,,,,,,,,,,,,,,,,-0.340740734,-0.068518533,1,0,0,vijfiq,vijfiq,0,4,4,54,1,vijftig,images/br_vijftig.png,images/cb_vijftig.png
,,,,,,00088,2023-10-23_15h37.07.248,vbt_B1_day1,2022.2.4,Win32,58.4692744,,,,,,,,,,,,,,,,,,,,,,,,,,,,,,,,,,,,,,,,,,,-0.344444452,-0.074074074,1,0,0,vche,vche,0,5,5,4,1,schep,images/br_schep.png,images/cb_schep.png
,,,,,,00088,2023-10-23_15h37.07.248,vbt_B1_day1,2022.2.4,Win32,58.4692744,,,,,,,,,,,,,,,,,,,,,,,,,,,,,,,,,,,,,,,,,,,-0.343518504,-0.074074074,1,0,0,dged,dged,0,6,6,21,1,dred,images/br_dred.png,images/cb_dred.png
,,,,,,00088,2023-10-23_15h37.07.248,vbt_B1_day1,2022.2.4,Win32,58.4692744,,,,,,,,,,,,,,,,,,,,,,,,,,,,,,,,,,,,,,,,,,,-0.174074032,-0.155555584,1,0,0,knse,knse,0,7,7,22,1,knoe,images/br_knoe.png,images/cb_knoe.png
,,,,,,00088,2023-10-23_15h37.07.248,vbt_B1_day1,2022.2.4,Win32,58.4692744,,,,,,,,,,,,,,,,,,,,,,,,,,,,,,,,,,,,,,,,,,,-0.562962956,-0.212962963,1,0,0,hie,hie,0,8,8,15,1,hiervan,images/br_hiervan.png,images/cb_hiervan.png
,,,,,,00088,2023-10-23_15h37.07.248,vbt_B1_day1,2022.2.4,Win32,58.4692744,,,,,,,,,,,,,,,,,,,,,,,,,,,,,,,,,,,,,,,,,,,-0.437037044,-0.075000021,1,0,0,kvvittn,kvvittn,0,9,9,32,1,opplaan,images/br_opplaan.png,images/cb_opplaan.png
,,,,,,00088,2023-10-23_15h37.07.248,vbt_B1_day1,2022.2.4,Win32,58.4692744,,,,,,,,,,,,,,,,,,,,,,,,,,,,,,,,,,,,,,,,,,,-0.440740727,-0.078703704,1,0,0,fictie,fictie,0,10,10,48,1,fictie,images/br_fictie.png,images/cb_fictie.png
,,,,,,00088,2023-10-23_15h37.07.248,vbt_B1_day1,2022.2.4,Win32,58.4692744,,,,,,,,,,,,,,,,,,,,,,,,,,,,,,,,,,,,,,,,,,,-0.440740727,-0.079629651,1,0,0,illdm,illdm,0,11,11,47,1,loods,images/br_loods.png,images/cb_loods.png
,,,,,,00088,2023-10-23_15h37.07.248,vbt_B1_day1,2022.2.4,Win32,58.4692744,,,,,,,,,,,,,,,,,,,,,,,,,,,,,,,,,,,,,,,,,,,-0.468518504,-0.074074074,1,0,0,/,/,0,12,12,34,1,lochten,images/br_lochten.png,images/cb_lochten.png
,,,,,,00088,2023-10-23_15h37.07.248,vbt_B1_day1,2022.2.4,Win32,58.4692744,,,,,,,,,,,,,,,,,,,,,,,,,,,,,,,,,,,,,,,,,,,-0.303703697,-0.071296303,1,0,0,tkenic,tkenic,0,13,13,56,1,toezicht,images/br_toezicht.png,images/cb_toezicht.png
,,,,,,00088,2023-10-23_15h37.07.248,vbt_B1_day1,2022.2.4,Win32,58.4692744,,,,,,,,,,,,,,,,,,,,,,,,,,,,,,,,,,,,,,,,,,,-0.325925933,-0.070370392,1,0,0,mchiel,mchiel,0,14,14,38,1,schielen,images/br_schielen.png,images/cb_schielen.png
,,,,,,00088,2023-10-23_15h37.07.248,vbt_B1_day1,2022.2.4,Win32,58.4692744,,,,,,,,,,,,,,,,,,,,,,,,,,,,,,,,,,,,,,,,,,,-0.330555563,-0.082407422,1,0,0,bkij,bkij,0,15,15,25,1,brijk,images/br_brijk.png,images/cb_brijk.png
,,,,,,00088,2023-10-23_15h37.07.248,vbt_B1_day1,2022.2.4,Win32,58.4692744,,,,,,,,,,,,,,,,,,,,,,,,,,,,,,,,,,,,,,,,,,,-0.351851852,-0.110185199,1,0,0,tarp,tarp,0,16,16,20,1,tars,images/br_tars.png,images/cb_tars.png
,,,,,,00088,2023-10-23_15h37.07.248,vbt_B1_day1,2022.2.4,Win32,58.4692744,,,,,,,,,,,,,,,,,,,,,,,,,,,,,,,,,,,,,,,,,,,-0.351851852,-0.110185199,1,0,0,atten,atten,0,17,17,17,1,attentie,images/br_attentie.png,images/cb_attentie.png
,,,,,,00088,2023-10-23_15h37.07.248,vbt_B1_day1,2022.2.4,Win32,58.4692744,,,,,,,,,,,,,,,,,,,,,,,,,,,,,,,,,,,,,,,,,,,-0.328703704,-0.139814801,1,0,0,ze,ze,0,18,18,11,1,mening,images/br_mening.png,images/cb_mening.png
,,,,,,00088,2023-10-23_15h37.07.248,vbt_B1_day1,2022.2.4,Win32,58.4692744,,,,,,,,,,,,,,,,,,,,,,,,,,,,,,,,,,,,,,,,,,,-0.323148127,-0.164814843,1,0,0,tevenen,tevenen,0,19,19,55,1,tekenen,images/br_tekenen.png,images/cb_tekenen.png
,,,,,,00088,2023-10-23_15h37.07.248,vbt_B1_day1,2022.2.4,Win32,58.4692744,,,,,,,,,,,,,,,,,,,,,,,,,,,,,,,,,,,,,,,,,,,-0.322222215,-0.164814843,1,0,0,twe,twe,0,20,20,13,1,twijfel,images/br_twijfel.png,images/cb_twijfel.png
,,,,,,00088,2023-10-23_15h37.07.248,vbt_B1_day1,2022.2.4,Win32,58.4692744,,,,,,,,,,,,,,,,,,,,,,,,,,,,,,,,,,,,,,,,,,,0.07222225,-0.282407407,1,0,0,aqmlaa,aqmlaa,0,21,21,53,1,opslaan,images/br_opslaan.png,images/cb_opslaan.png
,,,,,,00088,2023-10-23_15h37.07.248,vbt_B1_day1,2022.2.4,Win32,58.4692744,,,,,,,,,,,,,,,,,,,,,,,,,,,,,,,,,,,,,,,,,,,-0.071296268,0.003703683,1,0,0,lene,lene,0,22,22,46,1,lezen,images/br_lezen.png,images/cb_lezen.png
,,,,,,00088,2023-10-23_15h37.07.248,vbt_B1_day1,2022.2.4,Win32,58.4692744,,,,,,,,,,,,,,,,,,,,,,,,,,,,,,,,,,,,,,,,,,,-0.139814801,-0.072222215,1,0,0,bebri,bebri,0,23,23,28,1,bebrip,images/br_bebrip.png,images/cb_bebrip.png
,,,,,,00088,2023-10-23_15h37.07.248,vbt_B1_day1,2022.2.4,Win32,58.4692744,,,,,,,,,,,,,,,,,,,,,,,,,,,,,,,,,,,,,,,,,,,-0.39166666,-0.147222236,1,0,0,jqva,jqva,0,24,24,59,1,opvatten,images/br_opvatten.png,images/cb_opvatten.png
,,,,,,00088,2023-10-23_15h37.07.248,vbt_B1_day1,2022.2.4,Win32,58.4692744,,,,,,,,,,,,,,,,,,,,,,,,,,,,,,,,,,,,,,,,,,,-0.262036995,-0.193518533,1,0,0,nai,nai,0,25,25,26,1,valop,images/br_valop.png,images/cb_valop.png
,,,,,,00088,2023-10-23_15h37.07.248,vbt_B1_day1,2022.2.4,Win32,58.4692744,,,,,,,,,,,,,,,,,,,,,,,,,,,,,,,,,,,,,,,,,,,-0.306481467,-0.199074074,1,0,0,zawen,zawen,0,26,26,5,1,maken,images/br_maken.png,images/cb_maken.png
,,,,,,00088,2023-10-23_15h37.07.248,vbt_B1_day1,2022.2.4,Win32,58.4692744,,,,,,,,,,,,,,,,,,,,,,,,,,,,,,,,,,,,,,,,,,,-0.307407414,-0.125925912,1,0,0,jaar,jaar,0,27,27,2,1,jaar,images/br_jaar.png,images/cb_jaar.png
,,,,,,00088,2023-10-23_15h37.07.248,vbt_B1_day1,2022.2.4,Win32,58.4692744,,,,,,,,,,,,,,,,,,,,,,,,,,,,,,,,,,,,,,,,,,,-0.314814815,-0.124074088,1,0,0,sand,sand,0,28,28,3,1,mand,images/br_mand.png,images/cb_mand.png
,,,,,,00088,2023-10-23_15h37.07.248,vbt_B1_day1,2022.2.4,Win32,58.4692744,,,,,,,,,,,,,,,,,,,,,,,,,,,,,,,,,,,,,,,,,,,-0.324999986,-0.150000042,1,0,0,/,/,0,29,29,37,1,spanzing,images/br_spanzing.png,images/cb_spanzing.png
,,,,,,00088,2023-10-23_15h37.07.248,vbt_B1_day1,2022.2.4,Win32,58.4692744,,,,,,,,,,,,,,,,,,,,,,,,,,,,,,,,,,,,,,,,,,,-0.037037037,-0.041666667,1,0,0,svvr,svvr,0,30,30,58,1,voorkeur,images/br_voorkeur.png,images/cb_voorkeur.png
,,,,,,00088,2023-10-23_15h37.07.248,vbt_B1_day1,2022.2.4,Win32,58.4692744,,,,,,,,,,,,,,,,,,,,,,,,,,,,,,,,,,,,,,,,,,,-0.340740734,-0.067592586,1,0,0,rla,rla,0,31,31,0,1,slak,images/br_slak.png,images/cb_slak.png
,,,,,,00088,2023-10-23_15h37.07.248,vbt_B1_day1,2022.2.4,Win32,58.4692744,,,,,,,,,,,,,,,,,,,,,,,,,,,,,,,,,,,,,,,,,,,-0.424074067,0.081481474,1,0,0,lara,lara,0,32,32,43,1,lava,images/br_lava.png,images/cb_lava.png
,,,,,,00088,2023-10-23_15h37.07.248,vbt_B1_day1,2022.2.4,Win32,58.4692744,,,,,,,,,,,,,,,,,,,,,,,,,,,,,,,,,,,,,,,,,,,-0.398148148,0.014814801,1,0,0,dief,dief,0,33,33,40,1,dief,images/br_dief.png,images/cb_dief.png
,,,,,,00088,2023-10-23_15h37.07.248,vbt_B1_day1,2022.2.4,Win32,58.4692744,,,,,,,,,,,,,,,,,,,,,,,,,,,,,,,,,,,,,,,,,,,-0.39444443,0.006481489,1,0,0,dener,dener,0,34,34,24,1,rezer,images/br_rezer.png,images/cb_rezer.png
,,,,,,00088,2023-10-23_15h37.07.248,vbt_B1_day1,2022.2.4,Win32,58.4692744,,,,,,,,,,,,,,,,,,,,,,,,,,,,,,,,,,,,,,,,,,,-0.400925919,-0.025925919,1,0,0,lieq,lieq,0,35,35,50,1,liegen,images/br_liegen.png,images/cb_liegen.png
,,,,,,00088,2023-10-23_15h37.07.248,vbt_B1_day1,2022.2.4,Win32,58.4692744,,,,,,,,,,,,,,,,,,,,,,,,,,,,,,,,,,,,,,,,,,,-0.417592578,-0.052777785,1,0,0,lealr,lealr,0,36,36,36,1,vervaden,images/br_vervaden.png,images/cb_vervaden.png
,,,,,,00088,2023-10-23_15h37.07.248,vbt_B1_day1,2022.2.4,Win32,58.4692744,,,,,,,,,,,,,,,,,,,,,,,,,,,,,,,,,,,,,,,,,,,-0.337037016,-0.074074074,1,0,0,mch,mch,0,37,37,19,1,schuilen,images/br_schuilen.png,images/cb_schuilen.png
,,,,,,00088,2023-10-23_15h37.07.248,vbt_B1_day1,2022.2.4,Win32,58.4692744,,,,,,,,,,,,,,,,,,,,,,,,,,,,,,,,,,,,,,,,,,,-0.354629623,-0.061111132,1,0,0,tffaae,tffaae,0,38,38,39,1,voorreur,images/br_voorreur.png,images/cb_voorreur.png
,,,,,,00088,2023-10-23_15h37.07.248,vbt_B1_day1,2022.2.4,Win32,58.4692744,,,,,,,,,,,,,,,,,,,,,,,,,,,,,,,,,,,,,,,,,,,-0.361111111,-0.078703704,1,0,0,nfe,nfe,0,39,39,52,1,zuiplap,images/br_zuiplap.png,images/cb_zuiplap.png
,,,,,,00088,2023-10-23_15h37.07.248,vbt_B1_day1,2022.2.4,Win32,58.4692744,,,,,,,,,,,,,,,,,,,,,,,,,,,,,,,,,,,,,,,,,,,-0.385185171,-0.158333319,1,0,0,wijn,wijn,0,40,40,44,1,wijze,images/br_wijze.png,images/cb_wijze.png
,,,,,,00088,2023-10-23_15h37.07.248,vbt_B1_day1,2022.2.4,Win32,58.4692744,,,,,,,,,,,,,,,,,,,,,,,,,,,,,,,,,,,,,,,,,,,-0.297222208,-0.038888896,1,0,0,daarheen,daarheen,0,41,41,16,1,daarheen,images/br_daarheen.png,images/cb_daarheen.png
,,,,,,00088,2023-10-23_15h37.07.248,vbt_B1_day1,2022.2.4,Win32,58.4692744,,,,,,,,,,,,,,,,,,,,,,,,,,,,,,,,,,,,,,,,,,,-0.294444402,-0.01666666,1,0,0,rs,rs,0,42,42,42,1,stuk,images/br_stuk.png,images/cb_stuk.png
,,,,,,00088,2023-10-23_15h37.07.248,vbt_B1_day1,2022.2.4,Win32,58.4692744,,,,,,,,,,,,,,,,,,,,,,,,,,,,,,,,,,,,,,,,,,,-0.422222208,-0.011111118,1,0,0,naal,naal,0,43,43,1,1,zaal,images/br_zaal.png,images/cb_zaal.png
,,,,,,00088,2023-10-23_15h37.07.248,vbt_B1_day1,2022.2.4,Win32,58.4692744,,,,,,,,,,,,,,,,,,,,,,,,,,,,,,,,,,,,,,,,,,,-0.375925912,-0.037962984,1,0,0,niele,niele,0,44,44,51,1,liefde,images/br_liefde.png,images/cb_liefde.png
,,,,,,00088,2023-10-23_15h37.07.248,vbt_B1_day1,2022.2.4,Win32,58.4692744,,,,,,,,,,,,,,,,,,,,,,,,,,,,,,,,,,,,,,,,,,,-0.167592578,-0.052777785,1,0,0,rt,rt,0,45,45,31,1,stamen,images/br_stamen.png,images/cb_stamen.png
,,,,,,00088,2023-10-23_15h37.07.248,vbt_B1_day1,2022.2.4,Win32,58.4692744,,,,,,,,,,,,,,,,,,,,,,,,,,,,,,,,,,,,,,,,,,,-0.199999986,-0.078703704,1,0,0,linie,linie,0,46,46,49,1,vizier,images/br_vizier.png,images/cb_vizier.png
,,,,,,00088,2023-10-23_15h37.07.248,vbt_B1_day1,2022.2.4,Win32,58.4692744,,,,,,,,,,,,,,,,,,,,,,,,,,,,,,,,,,,,,,,,,,,-0.332407386,-0.094444487,1,0,0,haaq,haaq,0,47,47,41,1,hoog,images/br_hoog.png,images/cb_hoog.png
,,,,,,00088,2023-10-23_15h37.07.248,vbt_B1_day1,2022.2.4,Win32,58.4692744,,,,,,,,,,,,,,,,,,,,,,,,,,,,,,,,,,,,,,,,,,,-0.389814801,-0.161111125,1,0,0,aiifj,aiifj,0,48,48,30,1,reedje,images/br_reedje.png,images/cb_reedje.png
,,,,,,00088,2023-10-23_15h37.07.248,vbt_B1_day1,2022.2.4,Win32,58.4692744,,,,,,,,,,,,,,,,,,,,,,,,,,,,,,,,,,,,,,,,,,,-0.444444444,-0.146296325,1,0,0,/,/,0,49,49,10,1,muziek,images/br_muziek.png,images/cb_muziek.png
,,,,,,00088,2023-10-23_15h37.07.248,vbt_B1_day1,2022.2.4,Win32,58.4692744,,,,,,,,,,,,,,,,,,,,,,,,,,,,,,,,,,,,,,,,,,,-0.396296289,-0.103703746,1,0,0,dbbl,dbbl,0,50,50,9,1,dubbel,images/br_dubbel.png,images/cb_dubbel.png
,,,,,,00088,2023-10-23_15h37.07.248,vbt_B1_day1,2022.2.4,Win32,58.4692744,,,,,,,,,,,,,,,,,,,,,,,,,,,,,,,,,,,,,,,,,,,-0.306481467,-0.085185192,1,0,0,bssi,bssi,0,51,51,23,1,booi,images/br_booi.png,images/cb_booi.png
,,,,,,00088,2023-10-23_15h37.07.248,vbt_B1_day1,2022.2.4,Win32,58.4692744,,,,,,,,,,,,,,,,,,,,,,,,,,,,,,,,,,,,,,,,,,,-0.37037037,-0.218518504,1,0,0,t,t,0,52,52,35,1,stuikem,images/br_stuikem.png,images/cb_stuikem.png
,,,,,,00088,2023-10-23_15h37.07.248,vbt_B1_day1,2022.2.4,Win32,58.4692744,,,,,,,,,,,,,,,,,,,,,,,,,,,,,,,,,,,,,,,,,,,-0.36296297,-0.213888875,1,0,0,bleew,bleew,0,53,53,6,1,bleek,images/br_bleek.png,images/cb_bleek.png
,,,,,,00088,2023-10-23_15h37.07.248,vbt_B1_day1,2022.2.4,Win32,58.4692744,,,,,,,,,,,,,,,,,,,,,,,,,,,,,,,,,,,,,,,,,,,-0.377777771,-0.243518547,1,0,0,qes,qes,0,54,54,29,1,genond,images/br_genond.png,images/cb_genond.png
,,,,,,00088,2023-10-23_15h37.07.248,vbt_B1_day1,2022.2.4,Win32,58.4692744,,,,,,,,,,,,,,,,,,,,,,,,,,,,,,,,,,,,,,,,,,,-0.429629608,-0.148148148,1,0,0,w,w,0,55,55,8,1,kanjer,images/br_kanjer.png,images/cb_kanjer.png
,,,,,,00088,2023-10-23_15h37.07.248,vbt_B1_day1,2022.2.4,Win32,58.4692744,,,,,,,,,,,,,,,,,,,,,,,,,,,,,,,,,,,,,,,,,,,-0.424999979,-0.08425928,1,0,0,waarl,waarl,0,56,56,14,1,waarvan,images/br_waarvan.png,images/cb_waarvan.png
,,,,,,00088,2023-10-23_15h37.07.248,vbt_B1_day1,2022.2.4,Win32,58.4692744,,,,,,,,,,,,,,,,,,,,,,,,,,,,,,,,,,,,,,,,,,,-0.455555563,-0.109259288,1,0,0,itd,itd,0,57,57,18,1,uitdelen,images/br_uitdelen.png,images/cb_uitdelen.png
,,,,,,00088,2023-10-23_15h37.07.248,vbt_B1_day1,2022.2.4,Win32,58.4692744,,,,,,,,,,,,,,,,,,,,,,,,,,,,,,,,,,,,,,,,,,,-0.363888882,-0.18240745,1,0,0,kl,kl,0,58,58,12,1,klimmen,images/br_klimmen.png,images/cb_klimmen.png
,,,,,,00088,2023-10-23_15h37.07.248,vbt_B1_day1,2022.2.4,Win32,58.4692744,,,,,,,,,,,,,,,,,,,,,,,,,,,,,,,,,,,,,,,,,,,-0.396296289,-0.237037023,1,0,0,kla,kla,0,59,59,7,1,klauw,images/br_klauw.png,images/cb_klauw.png
,,,,,,00088,2023-10-23_15h37.07.248,vbt_B1_day1,2022.2.4,Win32,58.4692744,,,,,,,,,,,,,,,,,,,,,,,,,,,,,,,,,,,,,,,,,,,,,,,,,,,,,,,,,
