welcome_mouse.x,welcome_mouse.y,welcome_mouse.leftButton,welcome_mouse.midButton,welcome_mouse.rightButton,welcome_mouse.time,"ID",date,expName,psychopyVersion,OS,frameRate,mouse_2.x,mouse_2.y,mouse_2.leftButton,mouse_2.midButton,mouse_2.rightButton,mouse_2.time,mouse_3.x,mouse_3.y,mouse_3.leftButton,mouse_3.midButton,mouse_3.rightButton,mouse_3.time,train_mouse.x,train_mouse.y,train_mouse.leftButton,train_mouse.midButton,train_mouse.rightButton,train_mouse.time,braille_mouse.x,braille_mouse.y,braille_mouse.leftButton,braille_mouse.midButton,braille_mouse.rightButton,braille_mouse.time,trials.thisRepN,trials.thisTrialN,trials.thisN,trials.thisIndex,trials.ran,nlLet,brLet,cbLet,mouse.x,mouse.y,mouse.leftButton,mouse.midButton,mouse.rightButton,testInstr_mouse.x,testInstr_mouse.y,testInstr_mouse.leftButton,testInstr_mouse.midButton,testInstr_mouse.rightButton,test_mouse.x,test_mouse.y,test_mouse.leftButton,test_mouse.midButton,test_mouse.rightButton,test_response.text,testResp,test_loop.thisRepN,test_loop.thisTrialN,test_loop.thisN,test_loop.thisIndex,test_loop.ran,nlWrd,brWrd,cbWrd
-0.071296296,-0.346296296,1,0,0,27.2984,00079,2023-10-28_18h13.03.716,vbt_B1_day1,2022.2.4,Win32,60.01680471,,,,,,,,,,,,,,,,,,,,,,,,,,,,,,,,,,,,,,,,,,,,,,,,,,,,,,,,,
,,,,,,00079,2023-10-28_18h13.03.716,vbt_B1_day1,2022.2.4,Win32,60.01680471,-0.071296296,-0.346296296,1,0,0,17.9724,,,,,,,,,,,,,,,,,,,,,,,,,,,,,,,,,,,,,,,,,,,,,,,,,,,
,,,,,,00079,2023-10-28_18h13.03.716,vbt_B1_day1,2022.2.4,Win32,60.01680471,,,,,,,-0.071296296,-0.348148148,1,0,0,30.0383,,,,,,,,,,,,,,,,,,,,,,,,,,,,,,,,,,,,,,,,,,,,,
,,,,,,00079,2023-10-28_18h13.03.716,vbt_B1_day1,2022.2.4,Win32,60.01680471,,,,,,,,,,,,,-0.071296296,-0.348148148,1,0,0,44.248,,,,,,,,,,,,,,,,,,,,,,,,,,,,,,,,,,,,,,,
,,,,,,00079,2023-10-28_18h13.03.716,vbt_B1_day1,2022.2.4,Win32,60.01680471,,,,,,,,,,,,,,,,,,,-0.071296296,-0.348148148,1,0,0,5.3818,0,0,0,1,1,b,images/br_b.png,images/cb_b.png,,,,,,,,,,,,,,,,,,,,,,,,,
,,,,,,00079,2023-10-28_18h13.03.716,vbt_B1_day1,2022.2.4,Win32,60.01680471,,,,,,,,,,,,,,,,,,,-0.071296296,-0.348148148,1,0,0,0.7,0,1,1,9,1,j,images/br_j.png,images/cb_j.png,,,,,,,,,,,,,,,,,,,,,,,,,
,,,,,,00079,2023-10-28_18h13.03.716,vbt_B1_day1,2022.2.4,Win32,60.01680471,,,,,,,,,,,,,,,,,,,-0.071296296,-0.348148148,1,0,0,2.6155,0,2,2,14,1,o,images/br_o.png,images/cb_o.png,,,,,,,,,,,,,,,,,,,,,,,,,
,,,,,,00079,2023-10-28_18h13.03.716,vbt_B1_day1,2022.2.4,Win32,60.01680471,,,,,,,,,,,,,,,,,,,-0.071296296,-0.348148148,1,0,0,0.033400001,0,3,3,2,1,c,images/br_c.png,images/cb_c.png,,,,,,,,,,,,,,,,,,,,,,,,,
,,,,,,00079,2023-10-28_18h13.03.716,vbt_B1_day1,2022.2.4,Win32,60.01680471,,,,,,,,,,,,,,,,,,,-0.071296296,-0.348148148,1,0,0,0.666400001,0,4,4,17,1,r,images/br_r.png,images/cb_r.png,,,,,,,,,,,,,,,,,,,,,,,,,
,,,,,,00079,2023-10-28_18h13.03.716,vbt_B1_day1,2022.2.4,Win32,60.01680471,,,,,,,,,,,,,,,,,,,-0.071296296,-0.348148148,1,0,0,1.3331,0,5,5,8,1,i,images/br_i.png,images/cb_i.png,,,,,,,,,,,,,,,,,,,,,,,,,
,,,,,,00079,2023-10-28_18h13.03.716,vbt_B1_day1,2022.2.4,Win32,60.01680471,,,,,,,,,,,,,,,,,,,-0.071296296,-0.348148148,1,0,0,2.016,0,6,6,12,1,m,images/br_m.png,images/cb_m.png,,,,,,,,,,,,,,,,,,,,,,,,,
,,,,,,00079,2023-10-28_18h13.03.716,vbt_B1_day1,2022.2.4,Win32,60.01680471,,,,,,,,,,,,,,,,,,,-0.071296296,-0.348148148,1,0,0,0.183,0,7,7,21,1,v,images/br_v.png,images/cb_v.png,,,,,,,,,,,,,,,,,,,,,,,,,
,,,,,,00079,2023-10-28_18h13.03.716,vbt_B1_day1,2022.2.4,Win32,60.01680471,,,,,,,,,,,,,,,,,,,-0.071296296,-0.348148148,1,0,0,1.0825,0,8,8,25,1,z,images/br_z.png,images/cb_z.png,,,,,,,,,,,,,,,,,,,,,,,,,
,,,,,,00079,2023-10-28_18h13.03.716,vbt_B1_day1,2022.2.4,Win32,60.01680471,,,,,,,,,,,,,,,,,,,-0.071296296,-0.348148148,1,0,0,0.183400001,0,9,9,15,1,p,images/br_p.png,images/cb_p.png,,,,,,,,,,,,,,,,,,,,,,,,,
,,,,,,00079,2023-10-28_18h13.03.716,vbt_B1_day1,2022.2.4,Win32,60.01680471,,,,,,,,,,,,,,,,,,,-0.071296296,-0.348148148,1,0,0,0.25,0,10,10,6,1,g,images/br_g.png,images/cb_g.png,,,,,,,,,,,,,,,,,,,,,,,,,
,,,,,,00079,2023-10-28_18h13.03.716,vbt_B1_day1,2022.2.4,Win32,60.01680471,,,,,,,,,,,,,,,,,,,-0.071296296,-0.348148148,1,0,0,0.633400001,0,11,11,10,1,k,images/br_k.png,images/cb_k.png,,,,,,,,,,,,,,,,,,,,,,,,,
,,,,,,00079,2023-10-28_18h13.03.716,vbt_B1_day1,2022.2.4,Win32,60.01680471,,,,,,,,,,,,,,,,,,,-0.071296296,-0.348148148,1,0,0,0.5828,0,12,12,24,1,y,images/br_y.png,images/cb_y.png,,,,,,,,,,,,,,,,,,,,,,,,,
,,,,,,00079,2023-10-28_18h13.03.716,vbt_B1_day1,2022.2.4,Win32,60.01680471,,,,,,,,,,,,,,,,,,,-0.071296296,-0.348148148,1,0,0,1.233,0,13,13,22,1,w,images/br_w.png,images/cb_w.png,,,,,,,,,,,,,,,,,,,,,,,,,
,,,,,,00079,2023-10-28_18h13.03.716,vbt_B1_day1,2022.2.4,Win32,60.01680471,,,,,,,,,,,,,,,,,,,-0.071296296,-0.348148148,1,0,0,0.1833,0,14,14,16,1,q,images/br_q.png,images/cb_q.png,,,,,,,,,,,,,,,,,,,,,,,,,
,,,,,,00079,2023-10-28_18h13.03.716,vbt_B1_day1,2022.2.4,Win32,60.01680471,,,,,,,,,,,,,,,,,,,-0.071296296,-0.348148148,1,0,0,0.4665,0,15,15,23,1,x,images/br_x.png,images/cb_x.png,,,,,,,,,,,,,,,,,,,,,,,,,
,,,,,,00079,2023-10-28_18h13.03.716,vbt_B1_day1,2022.2.4,Win32,60.01680471,,,,,,,,,,,,,,,,,,,-0.071296296,-0.348148148,1,0,0,1.299599999,0,16,16,7,1,h,images/br_h.png,images/cb_h.png,,,,,,,,,,,,,,,,,,,,,,,,,
,,,,,,00079,2023-10-28_18h13.03.716,vbt_B1_day1,2022.2.4,Win32,60.01680471,,,,,,,,,,,,,,,,,,,-0.071296296,-0.348148148,1,0,0,4.5814,0,17,17,13,1,n,images/br_n.png,images/cb_n.png,,,,,,,,,,,,,,,,,,,,,,,,,
,,,,,,00079,2023-10-28_18h13.03.716,vbt_B1_day1,2022.2.4,Win32,60.01680471,,,,,,,,,,,,,,,,,,,-0.071296296,-0.348148148,1,0,0,1.7827,0,18,18,4,1,e,images/br_e.png,images/cb_e.png,,,,,,,,,,,,,,,,,,,,,,,,,
,,,,,,00079,2023-10-28_18h13.03.716,vbt_B1_day1,2022.2.4,Win32,60.01680471,,,,,,,,,,,,,,,,,,,-0.071296296,-0.348148148,1,0,0,4.0986,0,19,19,3,1,d,images/br_d.png,images/cb_d.png,,,,,,,,,,,,,,,,,,,,,,,,,
,,,,,,00079,2023-10-28_18h13.03.716,vbt_B1_day1,2022.2.4,Win32,60.01680471,,,,,,,,,,,,,,,,,,,-0.071296296,-0.348148148,1,0,0,0.633,0,20,20,5,1,f,images/br_f.png,images/cb_f.png,,,,,,,,,,,,,,,,,,,,,,,,,
,,,,,,00079,2023-10-28_18h13.03.716,vbt_B1_day1,2022.2.4,Win32,60.01680471,,,,,,,,,,,,,,,,,,,-0.071296296,-0.348148148,1,0,0,0.9332,0,21,21,0,1,a,images/br_a.png,images/cb_a.png,,,,,,,,,,,,,,,,,,,,,,,,,
,,,,,,00079,2023-10-28_18h13.03.716,vbt_B1_day1,2022.2.4,Win32,60.01680471,,,,,,,,,,,,,,,,,,,-0.071296296,-0.348148148,1,0,0,1.3333,0,22,22,18,1,s,images/br_s.png,images/cb_s.png,,,,,,,,,,,,,,,,,,,,,,,,,
,,,,,,00079,2023-10-28_18h13.03.716,vbt_B1_day1,2022.2.4,Win32,60.01680471,,,,,,,,,,,,,,,,,,,-0.071296296,-0.348148148,1,0,0,0.5162,0,23,23,20,1,u,images/br_u.png,images/cb_u.png,,,,,,,,,,,,,,,,,,,,,,,,,
,,,,,,00079,2023-10-28_18h13.03.716,vbt_B1_day1,2022.2.4,Win32,60.01680471,,,,,,,,,,,,,,,,,,,-0.071296296,-0.348148148,1,0,0,0.0332,0,24,24,11,1,l,images/br_l.png,images/cb_l.png,,,,,,,,,,,,,,,,,,,,,,,,,
,,,,,,00079,2023-10-28_18h13.03.716,vbt_B1_day1,2022.2.4,Win32,60.01680471,,,,,,,,,,,,,,,,,,,-0.071296296,-0.348148148,1,0,0,1.2832,0,25,25,19,1,t,images/br_t.png,images/cb_t.png,,,,,,,,,,,,,,,,,,,,,,,,,
,,,,,,00079,2023-10-28_18h13.03.716,vbt_B1_day1,2022.2.4,Win32,60.01680471,,,,,,,,,,,,,,,,,,,-0.071296296,-0.348148148,1,0,0,0.5164,1,0,26,14,1,o,images/br_o.png,images/cb_o.png,,,,,,,,,,,,,,,,,,,,,,,,,
,,,,,,00079,2023-10-28_18h13.03.716,vbt_B1_day1,2022.2.4,Win32,60.01680471,,,,,,,,,,,,,,,,,,,-0.071296296,-0.348148148,1,0,0,0.3665,1,1,27,13,1,n,images/br_n.png,images/cb_n.png,,,,,,,,,,,,,,,,,,,,,,,,,
,,,,,,00079,2023-10-28_18h13.03.716,vbt_B1_day1,2022.2.4,Win32,60.01680471,,,,,,,,,,,,,,,,,,,-0.071296296,-0.348148148,1,0,0,2.082599999,1,2,28,8,1,i,images/br_i.png,images/cb_i.png,,,,,,,,,,,,,,,,,,,,,,,,,
,,,,,,00079,2023-10-28_18h13.03.716,vbt_B1_day1,2022.2.4,Win32,60.01680471,,,,,,,,,,,,,,,,,,,-0.071296296,-0.348148148,1,0,0,0.1832,1,3,29,20,1,u,images/br_u.png,images/cb_u.png,,,,,,,,,,,,,,,,,,,,,,,,,
,,,,,,00079,2023-10-28_18h13.03.716,vbt_B1_day1,2022.2.4,Win32,60.01680471,,,,,,,,,,,,,,,,,,,-0.071296296,-0.348148148,1,0,0,1.4326,1,4,30,11,1,l,images/br_l.png,images/cb_l.png,,,,,,,,,,,,,,,,,,,,,,,,,
,,,,,,00079,2023-10-28_18h13.03.716,vbt_B1_day1,2022.2.4,Win32,60.01680471,,,,,,,,,,,,,,,,,,,-0.071296296,-0.348148148,1,0,0,0.0833,1,5,31,23,1,x,images/br_x.png,images/cb_x.png,,,,,,,,,,,,,,,,,,,,,,,,,
,,,,,,00079,2023-10-28_18h13.03.716,vbt_B1_day1,2022.2.4,Win32,60.01680471,,,,,,,,,,,,,,,,,,,-0.071296296,-0.348148148,1,0,0,1.8994,1,6,32,3,1,d,images/br_d.png,images/cb_d.png,,,,,,,,,,,,,,,,,,,,,,,,,
,,,,,,00079,2023-10-28_18h13.03.716,vbt_B1_day1,2022.2.4,Win32,60.01680471,,,,,,,,,,,,,,,,,,,-0.071296296,-0.348148148,1,0,0,1.083200001,1,7,33,1,1,b,images/br_b.png,images/cb_b.png,,,,,,,,,,,,,,,,,,,,,,,,,
,,,,,,00079,2023-10-28_18h13.03.716,vbt_B1_day1,2022.2.4,Win32,60.01680471,,,,,,,,,,,,,,,,,,,-0.071296296,-0.348148148,1,0,0,1.1833,1,8,34,18,1,s,images/br_s.png,images/cb_s.png,,,,,,,,,,,,,,,,,,,,,,,,,
,,,,,,00079,2023-10-28_18h13.03.716,vbt_B1_day1,2022.2.4,Win32,60.01680471,,,,,,,,,,,,,,,,,,,-0.071296296,-0.348148148,1,0,0,1.3825,1,9,35,2,1,c,images/br_c.png,images/cb_c.png,,,,,,,,,,,,,,,,,,,,,,,,,
,,,,,,00079,2023-10-28_18h13.03.716,vbt_B1_day1,2022.2.4,Win32,60.01680471,,,,,,,,,,,,,,,,,,,-0.071296296,-0.348148148,1,0,0,0.4499,1,10,36,0,1,a,images/br_a.png,images/cb_a.png,,,,,,,,,,,,,,,,,,,,,,,,,
,,,,,,00079,2023-10-28_18h13.03.716,vbt_B1_day1,2022.2.4,Win32,60.01680471,,,,,,,,,,,,,,,,,,,-0.071296296,-0.348148148,1,0,0,0.9331,1,11,37,12,1,m,images/br_m.png,images/cb_m.png,,,,,,,,,,,,,,,,,,,,,,,,,
,,,,,,00079,2023-10-28_18h13.03.716,vbt_B1_day1,2022.2.4,Win32,60.01680471,,,,,,,,,,,,,,,,,,,-0.071296296,-0.348148148,1,0,0,0.5665,1,12,38,9,1,j,images/br_j.png,images/cb_j.png,,,,,,,,,,,,,,,,,,,,,,,,,
,,,,,,00079,2023-10-28_18h13.03.716,vbt_B1_day1,2022.2.4,Win32,60.01680471,,,,,,,,,,,,,,,,,,,-0.071296296,-0.348148148,1,0,0,1.0331,1,13,39,22,1,w,images/br_w.png,images/cb_w.png,,,,,,,,,,,,,,,,,,,,,,,,,
,,,,,,00079,2023-10-28_18h13.03.716,vbt_B1_day1,2022.2.4,Win32,60.01680471,,,,,,,,,,,,,,,,,,,-0.071296296,-0.348148148,1,0,0,0.4829,1,14,40,21,1,v,images/br_v.png,images/cb_v.png,,,,,,,,,,,,,,,,,,,,,,,,,
,,,,,,00079,2023-10-28_18h13.03.716,vbt_B1_day1,2022.2.4,Win32,60.01680471,,,,,,,,,,,,,,,,,,,-0.071296296,-0.348148148,1,0,0,1.4994,1,15,41,24,1,y,images/br_y.png,images/cb_y.png,,,,,,,,,,,,,,,,,,,,,,,,,
,,,,,,00079,2023-10-28_18h13.03.716,vbt_B1_day1,2022.2.4,Win32,60.01680471,,,,,,,,,,,,,,,,,,,-0.071296296,-0.348148148,1,0,0,0.599900001,1,16,42,10,1,k,images/br_k.png,images/cb_k.png,,,,,,,,,,,,,,,,,,,,,,,,,
,,,,,,00079,2023-10-28_18h13.03.716,vbt_B1_day1,2022.2.4,Win32,60.01680471,,,,,,,,,,,,,,,,,,,-0.071296296,-0.348148148,1,0,0,0.1668,1,17,43,7,1,h,images/br_h.png,images/cb_h.png,,,,,,,,,,,,,,,,,,,,,,,,,
,,,,,,00079,2023-10-28_18h13.03.716,vbt_B1_day1,2022.2.4,Win32,60.01680471,,,,,,,,,,,,,,,,,,,-0.071296296,-0.348148148,1,0,0,0.7499,1,18,44,15,1,p,images/br_p.png,images/cb_p.png,,,,,,,,,,,,,,,,,,,,,,,,,
,,,,,,00079,2023-10-28_18h13.03.716,vbt_B1_day1,2022.2.4,Win32,60.01680471,,,,,,,,,,,,,,,,,,,-0.071296296,-0.348148148,1,0,0,0.3664,1,19,45,5,1,f,images/br_f.png,images/cb_f.png,,,,,,,,,,,,,,,,,,,,,,,,,
,,,,,,00079,2023-10-28_18h13.03.716,vbt_B1_day1,2022.2.4,Win32,60.01680471,,,,,,,,,,,,,,,,,,,-0.071296296,-0.348148148,1,0,0,0.6,1,20,46,6,1,g,images/br_g.png,images/cb_g.png,,,,,,,,,,,,,,,,,,,,,,,,,
,,,,,,00079,2023-10-28_18h13.03.716,vbt_B1_day1,2022.2.4,Win32,60.01680471,,,,,,,,,,,,,,,,,,,-0.071296296,-0.348148148,1,0,0,0.5663,1,21,47,4,1,e,images/br_e.png,images/cb_e.png,,,,,,,,,,,,,,,,,,,,,,,,,
,,,,,,00079,2023-10-28_18h13.03.716,vbt_B1_day1,2022.2.4,Win32,60.01680471,,,,,,,,,,,,,,,,,,,-0.071296296,-0.348148148,1,0,0,1.3496,1,22,48,19,1,t,images/br_t.png,images/cb_t.png,,,,,,,,,,,,,,,,,,,,,,,,,
,,,,,,00079,2023-10-28_18h13.03.716,vbt_B1_day1,2022.2.4,Win32,60.01680471,,,,,,,,,,,,,,,,,,,-0.071296296,-0.348148148,1,0,0,0.4164,1,23,49,16,1,q,images/br_q.png,images/cb_q.png,,,,,,,,,,,,,,,,,,,,,,,,,
,,,,,,00079,2023-10-28_18h13.03.716,vbt_B1_day1,2022.2.4,Win32,60.01680471,,,,,,,,,,,,,,,,,,,-0.071296296,-0.348148148,1,0,0,0.766,1,24,50,25,1,z,images/br_z.png,images/cb_z.png,,,,,,,,,,,,,,,,,,,,,,,,,
,,,,,,00079,2023-10-28_18h13.03.716,vbt_B1_day1,2022.2.4,Win32,60.01680471,,,,,,,,,,,,,,,,,,,-0.071296296,-0.348148148,1,0,0,1.765900001,1,25,51,17,1,r,images/br_r.png,images/cb_r.png,,,,,,,,,,,,,,,,,,,,,,,,,
,,,,,,00079,2023-10-28_18h13.03.716,vbt_B1_day1,2022.2.4,Win32,60.01680471,,,,,,,,,,,,,,,,,,,-0.071296296,-0.348148148,1,0,0,0.3,2,0,52,8,1,i,images/br_i.png,images/cb_i.png,,,,,,,,,,,,,,,,,,,,,,,,,
,,,,,,00079,2023-10-28_18h13.03.716,vbt_B1_day1,2022.2.4,Win32,60.01680471,,,,,,,,,,,,,,,,,,,-0.071296296,-0.348148148,1,0,0,0.716400001,2,1,53,24,1,y,images/br_y.png,images/cb_y.png,,,,,,,,,,,,,,,,,,,,,,,,,
,,,,,,00079,2023-10-28_18h13.03.716,vbt_B1_day1,2022.2.4,Win32,60.01680471,,,,,,,,,,,,,,,,,,,-0.071296296,-0.348148148,1,0,0,0.4165,2,2,54,13,1,n,images/br_n.png,images/cb_n.png,,,,,,,,,,,,,,,,,,,,,,,,,
,,,,,,00079,2023-10-28_18h13.03.716,vbt_B1_day1,2022.2.4,Win32,60.01680471,,,,,,,,,,,,,,,,,,,-0.071296296,-0.348148148,1,0,0,0.4994,2,3,55,7,1,h,images/br_h.png,images/cb_h.png,,,,,,,,,,,,,,,,,,,,,,,,,
,,,,,,00079,2023-10-28_18h13.03.716,vbt_B1_day1,2022.2.4,Win32,60.01680471,,,,,,,,,,,,,,,,,,,-0.071296296,-0.348148148,1,0,0,3.498900001,2,4,56,5,1,f,images/br_f.png,images/cb_f.png,,,,,,,,,,,,,,,,,,,,,,,,,
,,,,,,00079,2023-10-28_18h13.03.716,vbt_B1_day1,2022.2.4,Win32,60.01680471,,,,,,,,,,,,,,,,,,,-0.071296296,-0.348148148,1,0,0,1.4495,2,5,57,25,1,z,images/br_z.png,images/cb_z.png,,,,,,,,,,,,,,,,,,,,,,,,,
,,,,,,00079,2023-10-28_18h13.03.716,vbt_B1_day1,2022.2.4,Win32,60.01680471,,,,,,,,,,,,,,,,,,,-0.071296296,-0.348148148,1,0,0,0.6326,2,6,58,10,1,k,images/br_k.png,images/cb_k.png,,,,,,,,,,,,,,,,,,,,,,,,,
,,,,,,00079,2023-10-28_18h13.03.716,vbt_B1_day1,2022.2.4,Win32,60.01680471,,,,,,,,,,,,,,,,,,,-0.071296296,-0.348148148,1,0,0,0.4832,2,7,59,2,1,c,images/br_c.png,images/cb_c.png,,,,,,,,,,,,,,,,,,,,,,,,,
,,,,,,00079,2023-10-28_18h13.03.716,vbt_B1_day1,2022.2.4,Win32,60.01680471,,,,,,,,,,,,,,,,,,,-0.071296296,-0.348148148,1,0,0,0.466200001,2,8,60,21,1,v,images/br_v.png,images/cb_v.png,,,,,,,,,,,,,,,,,,,,,,,,,
,,,,,,00079,2023-10-28_18h13.03.716,vbt_B1_day1,2022.2.4,Win32,60.01680471,,,,,,,,,,,,,,,,,,,-0.071296296,-0.348148148,1,0,0,0.0498,2,9,61,22,1,w,images/br_w.png,images/cb_w.png,,,,,,,,,,,,,,,,,,,,,,,,,
,,,,,,00079,2023-10-28_18h13.03.716,vbt_B1_day1,2022.2.4,Win32,60.01680471,,,,,,,,,,,,,,,,,,,-0.071296296,-0.348148148,1,0,0,0.9164,2,10,62,1,1,b,images/br_b.png,images/cb_b.png,,,,,,,,,,,,,,,,,,,,,,,,,
,,,,,,00079,2023-10-28_18h13.03.716,vbt_B1_day1,2022.2.4,Win32,60.01680471,,,,,,,,,,,,,,,,,,,-0.071296296,-0.348148148,1,0,0,1.4992,2,11,63,16,1,q,images/br_q.png,images/cb_q.png,,,,,,,,,,,,,,,,,,,,,,,,,
,,,,,,00079,2023-10-28_18h13.03.716,vbt_B1_day1,2022.2.4,Win32,60.01680471,,,,,,,,,,,,,,,,,,,-0.071296296,-0.348148148,1,0,0,0.3165,2,12,64,18,1,s,images/br_s.png,images/cb_s.png,,,,,,,,,,,,,,,,,,,,,,,,,
,,,,,,00079,2023-10-28_18h13.03.716,vbt_B1_day1,2022.2.4,Win32,60.01680471,,,,,,,,,,,,,,,,,,,-0.071296296,-0.348148148,1,0,0,0.2333,2,13,65,4,1,e,images/br_e.png,images/cb_e.png,,,,,,,,,,,,,,,,,,,,,,,,,
,,,,,,00079,2023-10-28_18h13.03.716,vbt_B1_day1,2022.2.4,Win32,60.01680471,,,,,,,,,,,,,,,,,,,-0.071296296,-0.348148148,1,0,0,0.316599999,2,14,66,6,1,g,images/br_g.png,images/cb_g.png,,,,,,,,,,,,,,,,,,,,,,,,,
,,,,,,00079,2023-10-28_18h13.03.716,vbt_B1_day1,2022.2.4,Win32,60.01680471,,,,,,,,,,,,,,,,,,,-0.071296296,-0.348148148,1,0,0,0.2669,2,15,67,14,1,o,images/br_o.png,images/cb_o.png,,,,,,,,,,,,,,,,,,,,,,,,,
,,,,,,00079,2023-10-28_18h13.03.716,vbt_B1_day1,2022.2.4,Win32,60.01680471,,,,,,,,,,,,,,,,,,,-0.071296296,-0.348148148,1,0,0,0.6997,2,16,68,12,1,m,images/br_m.png,images/cb_m.png,,,,,,,,,,,,,,,,,,,,,,,,,
,,,,,,00079,2023-10-28_18h13.03.716,vbt_B1_day1,2022.2.4,Win32,60.01680471,,,,,,,,,,,,,,,,,,,-0.071296296,-0.348148148,1,0,0,1.7827,2,17,69,15,1,p,images/br_p.png,images/cb_p.png,,,,,,,,,,,,,,,,,,,,,,,,,
,,,,,,00079,2023-10-28_18h13.03.716,vbt_B1_day1,2022.2.4,Win32,60.01680471,,,,,,,,,,,,,,,,,,,-0.071296296,-0.348148148,1,0,0,0.666,2,18,70,20,1,u,images/br_u.png,images/cb_u.png,,,,,,,,,,,,,,,,,,,,,,,,,
,,,,,,00079,2023-10-28_18h13.03.716,vbt_B1_day1,2022.2.4,Win32,60.01680471,,,,,,,,,,,,,,,,,,,-0.071296296,-0.348148148,1,0,0,0.150400001,2,19,71,9,1,j,images/br_j.png,images/cb_j.png,,,,,,,,,,,,,,,,,,,,,,,,,
,,,,,,00079,2023-10-28_18h13.03.716,vbt_B1_day1,2022.2.4,Win32,60.01680471,,,,,,,,,,,,,,,,,,,-0.071296296,-0.348148148,1,0,0,0.5664,2,20,72,0,1,a,images/br_a.png,images/cb_a.png,,,,,,,,,,,,,,,,,,,,,,,,,
,,,,,,00079,2023-10-28_18h13.03.716,vbt_B1_day1,2022.2.4,Win32,60.01680471,,,,,,,,,,,,,,,,,,,-0.071296296,-0.348148148,1,0,0,2.3324,2,21,73,3,1,d,images/br_d.png,images/cb_d.png,,,,,,,,,,,,,,,,,,,,,,,,,
,,,,,,00079,2023-10-28_18h13.03.716,vbt_B1_day1,2022.2.4,Win32,60.01680471,,,,,,,,,,,,,,,,,,,-0.071296296,-0.348148148,1,0,0,1.2663,2,22,74,11,1,l,images/br_l.png,images/cb_l.png,,,,,,,,,,,,,,,,,,,,,,,,,
,,,,,,00079,2023-10-28_18h13.03.716,vbt_B1_day1,2022.2.4,Win32,60.01680471,,,,,,,,,,,,,,,,,,,-0.071296296,-0.348148148,1,0,0,1.4989,2,23,75,17,1,r,images/br_r.png,images/cb_r.png,,,,,,,,,,,,,,,,,,,,,,,,,
,,,,,,00079,2023-10-28_18h13.03.716,vbt_B1_day1,2022.2.4,Win32,60.01680471,,,,,,,,,,,,,,,,,,,-0.071296296,-0.348148148,1,0,0,1.199599999,2,24,76,19,1,t,images/br_t.png,images/cb_t.png,,,,,,,,,,,,,,,,,,,,,,,,,
,,,,,,00079,2023-10-28_18h13.03.716,vbt_B1_day1,2022.2.4,Win32,60.01680471,,,,,,,,,,,,,,,,,,,-0.071296296,-0.348148148,1,0,0,0.832599999,2,25,77,23,1,x,images/br_x.png,images/cb_x.png,,,,,,,,,,,,,,,,,,,,,,,,,
,,,,,,00079,2023-10-28_18h13.03.716,vbt_B1_day1,2022.2.4,Win32,60.01680471,,,,,,,,,,,,,,,,,,,-0.071296296,-0.348148148,1,0,0,0.0334,3,0,78,24,1,y,images/br_y.png,images/cb_y.png,,,,,,,,,,,,,,,,,,,,,,,,,
,,,,,,00079,2023-10-28_18h13.03.716,vbt_B1_day1,2022.2.4,Win32,60.01680471,,,,,,,,,,,,,,,,,,,-0.071296296,-0.348148148,1,0,0,0.449799999,3,1,79,10,1,k,images/br_k.png,images/cb_k.png,,,,,,,,,,,,,,,,,,,,,,,,,
,,,,,,00079,2023-10-28_18h13.03.716,vbt_B1_day1,2022.2.4,Win32,60.01680471,,,,,,,,,,,,,,,,,,,-0.071296296,-0.348148148,1,0,0,1.915900001,3,2,80,6,1,g,images/br_g.png,images/cb_g.png,,,,,,,,,,,,,,,,,,,,,,,,,
,,,,,,00079,2023-10-28_18h13.03.716,vbt_B1_day1,2022.2.4,Win32,60.01680471,,,,,,,,,,,,,,,,,,,-0.071296296,-0.348148148,1,0,0,0.1832,3,3,81,17,1,r,images/br_r.png,images/cb_r.png,,,,,,,,,,,,,,,,,,,,,,,,,
,,,,,,00079,2023-10-28_18h13.03.716,vbt_B1_day1,2022.2.4,Win32,60.01680471,,,,,,,,,,,,,,,,,,,-0.071296296,-0.348148148,1,0,0,3.4653,3,4,82,21,1,v,images/br_v.png,images/cb_v.png,,,,,,,,,,,,,,,,,,,,,,,,,
,,,,,,00079,2023-10-28_18h13.03.716,vbt_B1_day1,2022.2.4,Win32,60.01680471,,,,,,,,,,,,,,,,,,,-0.071296296,-0.348148148,1,0,0,1.666,3,5,83,8,1,i,images/br_i.png,images/cb_i.png,,,,,,,,,,,,,,,,,,,,,,,,,
,,,,,,00079,2023-10-28_18h13.03.716,vbt_B1_day1,2022.2.4,Win32,60.01680471,,,,,,,,,,,,,,,,,,,-0.071296296,-0.348148148,1,0,0,0.3168,3,6,84,11,1,l,images/br_l.png,images/cb_l.png,,,,,,,,,,,,,,,,,,,,,,,,,
,,,,,,00079,2023-10-28_18h13.03.716,vbt_B1_day1,2022.2.4,Win32,60.01680471,,,,,,,,,,,,,,,,,,,-0.071296296,-0.348148148,1,0,0,0.2832,3,7,85,0,1,a,images/br_a.png,images/cb_a.png,,,,,,,,,,,,,,,,,,,,,,,,,
,,,,,,00079,2023-10-28_18h13.03.716,vbt_B1_day1,2022.2.4,Win32,60.01680471,,,,,,,,,,,,,,,,,,,-0.071296296,-0.348148148,1,0,0,4.1652,3,8,86,5,1,f,images/br_f.png,images/cb_f.png,,,,,,,,,,,,,,,,,,,,,,,,,
,,,,,,00079,2023-10-28_18h13.03.716,vbt_B1_day1,2022.2.4,Win32,60.01680471,,,,,,,,,,,,,,,,,,,-0.071296296,-0.348148148,1,0,0,2.7157,3,9,87,9,1,j,images/br_j.png,images/cb_j.png,,,,,,,,,,,,,,,,,,,,,,,,,
,,,,,,00079,2023-10-28_18h13.03.716,vbt_B1_day1,2022.2.4,Win32,60.01680471,,,,,,,,,,,,,,,,,,,-0.071296296,-0.348148148,1,0,0,0.133700001,3,10,88,22,1,w,images/br_w.png,images/cb_w.png,,,,,,,,,,,,,,,,,,,,,,,,,
,,,,,,00079,2023-10-28_18h13.03.716,vbt_B1_day1,2022.2.4,Win32,60.01680471,,,,,,,,,,,,,,,,,,,-0.071296296,-0.348148148,1,0,0,0.0502,3,11,89,16,1,q,images/br_q.png,images/cb_q.png,,,,,,,,,,,,,,,,,,,,,,,,,
,,,,,,00079,2023-10-28_18h13.03.716,vbt_B1_day1,2022.2.4,Win32,60.01680471,,,,,,,,,,,,,,,,,,,-0.071296296,-0.348148148,1,0,0,2.6658,3,12,90,13,1,n,images/br_n.png,images/cb_n.png,,,,,,,,,,,,,,,,,,,,,,,,,
,,,,,,00079,2023-10-28_18h13.03.716,vbt_B1_day1,2022.2.4,Win32,60.01680471,,,,,,,,,,,,,,,,,,,-0.071296296,-0.348148148,1,0,0,4.148599999,3,13,91,12,1,m,images/br_m.png,images/cb_m.png,,,,,,,,,,,,,,,,,,,,,,,,,
,,,,,,00079,2023-10-28_18h13.03.716,vbt_B1_day1,2022.2.4,Win32,60.01680471,,,,,,,,,,,,,,,,,,,-0.071296296,-0.348148148,1,0,0,0.15,3,14,92,7,1,h,images/br_h.png,images/cb_h.png,,,,,,,,,,,,,,,,,,,,,,,,,
,,,,,,00079,2023-10-28_18h13.03.716,vbt_B1_day1,2022.2.4,Win32,60.01680471,,,,,,,,,,,,,,,,,,,-0.071296296,-0.348148148,1,0,0,0.6497,3,15,93,14,1,o,images/br_o.png,images/cb_o.png,,,,,,,,,,,,,,,,,,,,,,,,,
,,,,,,00079,2023-10-28_18h13.03.716,vbt_B1_day1,2022.2.4,Win32,60.01680471,,,,,,,,,,,,,,,,,,,-0.071296296,-0.348148148,1,0,0,3.598299999,3,16,94,1,1,b,images/br_b.png,images/cb_b.png,,,,,,,,,,,,,,,,,,,,,,,,,
,,,,,,00079,2023-10-28_18h13.03.716,vbt_B1_day1,2022.2.4,Win32,60.01680471,,,,,,,,,,,,,,,,,,,-0.071296296,-0.348148148,1,0,0,0.4833,3,17,95,4,1,e,images/br_e.png,images/cb_e.png,,,,,,,,,,,,,,,,,,,,,,,,,
,,,,,,00079,2023-10-28_18h13.03.716,vbt_B1_day1,2022.2.4,Win32,60.01680471,,,,,,,,,,,,,,,,,,,-0.071296296,-0.348148148,1,0,0,5.9814,3,18,96,20,1,u,images/br_u.png,images/cb_u.png,,,,,,,,,,,,,,,,,,,,,,,,,
,,,,,,00079,2023-10-28_18h13.03.716,vbt_B1_day1,2022.2.4,Win32,60.01680471,,,,,,,,,,,,,,,,,,,-0.071296296,-0.348148148,1,0,0,4.4985,3,19,97,25,1,z,images/br_z.png,images/cb_z.png,,,,,,,,,,,,,,,,,,,,,,,,,
,,,,,,00079,2023-10-28_18h13.03.716,vbt_B1_day1,2022.2.4,Win32,60.01680471,,,,,,,,,,,,,,,,,,,-0.071296296,-0.348148148,1,0,0,1.8658,3,20,98,2,1,c,images/br_c.png,images/cb_c.png,,,,,,,,,,,,,,,,,,,,,,,,,
,,,,,,00079,2023-10-28_18h13.03.716,vbt_B1_day1,2022.2.4,Win32,60.01680471,,,,,,,,,,,,,,,,,,,-0.071296296,-0.348148148,1,0,0,0.25,3,21,99,15,1,p,images/br_p.png,images/cb_p.png,,,,,,,,,,,,,,,,,,,,,,,,,
,,,,,,00079,2023-10-28_18h13.03.716,vbt_B1_day1,2022.2.4,Win32,60.01680471,,,,,,,,,,,,,,,,,,,-0.071296296,-0.348148148,1,0,0,0.7665,3,22,100,23,1,x,images/br_x.png,images/cb_x.png,,,,,,,,,,,,,,,,,,,,,,,,,
,,,,,,00079,2023-10-28_18h13.03.716,vbt_B1_day1,2022.2.4,Win32,60.01680471,,,,,,,,,,,,,,,,,,,-0.071296296,-0.348148148,1,0,0,0.3662,3,23,101,19,1,t,images/br_t.png,images/cb_t.png,,,,,,,,,,,,,,,,,,,,,,,,,
,,,,,,00079,2023-10-28_18h13.03.716,vbt_B1_day1,2022.2.4,Win32,60.01680471,,,,,,,,,,,,,,,,,,,-0.071296296,-0.348148148,1,0,0,2.315700001,3,24,102,18,1,s,images/br_s.png,images/cb_s.png,,,,,,,,,,,,,,,,,,,,,,,,,
,,,,,,00079,2023-10-28_18h13.03.716,vbt_B1_day1,2022.2.4,Win32,60.01680471,,,,,,,,,,,,,,,,,,,-0.071296296,-0.348148148,1,0,0,9.4468,3,25,103,3,1,d,images/br_d.png,images/cb_d.png,,,,,,,,,,,,,,,,,,,,,,,,,
,,,,,,00079,2023-10-28_18h13.03.716,vbt_B1_day1,2022.2.4,Win32,60.01680471,,,,,,,,,,,,,,,,,,,-0.071296296,-0.348148148,1,0,0,0.183200001,4,0,104,22,1,w,images/br_w.png,images/cb_w.png,,,,,,,,,,,,,,,,,,,,,,,,,
,,,,,,00079,2023-10-28_18h13.03.716,vbt_B1_day1,2022.2.4,Win32,60.01680471,,,,,,,,,,,,,,,,,,,-0.071296296,-0.348148148,1,0,0,0.183,4,1,105,0,1,a,images/br_a.png,images/cb_a.png,,,,,,,,,,,,,,,,,,,,,,,,,
,,,,,,00079,2023-10-28_18h13.03.716,vbt_B1_day1,2022.2.4,Win32,60.01680471,,,,,,,,,,,,,,,,,,,-0.071296296,-0.348148148,1,0,0,8.98,4,2,106,4,1,e,images/br_e.png,images/cb_e.png,,,,,,,,,,,,,,,,,,,,,,,,,
,,,,,,00079,2023-10-28_18h13.03.716,vbt_B1_day1,2022.2.4,Win32,60.01680471,,,,,,,,,,,,,,,,,,,-0.071296296,-0.348148148,1,0,0,4.4485,4,3,107,5,1,f,images/br_f.png,images/cb_f.png,,,,,,,,,,,,,,,,,,,,,,,,,
,,,,,,00079,2023-10-28_18h13.03.716,vbt_B1_day1,2022.2.4,Win32,60.01680471,,,,,,,,,,,,,,,,,,,-0.071296296,-0.348148148,1,0,0,15.8944,4,4,108,3,1,d,images/br_d.png,images/cb_d.png,,,,,,,,,,,,,,,,,,,,,,,,,
,,,,,,00079,2023-10-28_18h13.03.716,vbt_B1_day1,2022.2.4,Win32,60.01680471,,,,,,,,,,,,,,,,,,,-0.071296296,-0.348148148,1,0,0,4.9317,4,5,109,7,1,h,images/br_h.png,images/cb_h.png,,,,,,,,,,,,,,,,,,,,,,,,,
,,,,,,00079,2023-10-28_18h13.03.716,vbt_B1_day1,2022.2.4,Win32,60.01680471,,,,,,,,,,,,,,,,,,,-0.071296296,-0.348148148,1,0,0,4.815,4,6,110,19,1,t,images/br_t.png,images/cb_t.png,,,,,,,,,,,,,,,,,,,,,,,,,
,,,,,,00079,2023-10-28_18h13.03.716,vbt_B1_day1,2022.2.4,Win32,60.01680471,,,,,,,,,,,,,,,,,,,-0.071296296,-0.348148148,1,0,0,9.3302,4,7,111,13,1,n,images/br_n.png,images/cb_n.png,,,,,,,,,,,,,,,,,,,,,,,,,
,,,,,,00079,2023-10-28_18h13.03.716,vbt_B1_day1,2022.2.4,Win32,60.01680471,,,,,,,,,,,,,,,,,,,-0.071296296,-0.348148148,1,0,0,1.848900001,4,8,112,10,1,k,images/br_k.png,images/cb_k.png,,,,,,,,,,,,,,,,,,,,,,,,,
,,,,,,00079,2023-10-28_18h13.03.716,vbt_B1_day1,2022.2.4,Win32,60.01680471,,,,,,,,,,,,,,,,,,,-0.071296296,-0.348148148,1,0,0,0.5833,4,9,113,11,1,l,images/br_l.png,images/cb_l.png,,,,,,,,,,,,,,,,,,,,,,,,,
,,,,,,00079,2023-10-28_18h13.03.716,vbt_B1_day1,2022.2.4,Win32,60.01680471,,,,,,,,,,,,,,,,,,,-0.071296296,-0.348148148,1,0,0,0.8665,4,10,114,16,1,q,images/br_q.png,images/cb_q.png,,,,,,,,,,,,,,,,,,,,,,,,,
,,,,,,00079,2023-10-28_18h13.03.716,vbt_B1_day1,2022.2.4,Win32,60.01680471,,,,,,,,,,,,,,,,,,,-0.071296296,-0.348148148,1,0,0,4.3819,4,11,115,25,1,z,images/br_z.png,images/cb_z.png,,,,,,,,,,,,,,,,,,,,,,,,,
,,,,,,00079,2023-10-28_18h13.03.716,vbt_B1_day1,2022.2.4,Win32,60.01680471,,,,,,,,,,,,,,,,,,,-0.071296296,-0.348148148,1,0,0,3.9488,4,12,116,2,1,c,images/br_c.png,images/cb_c.png,,,,,,,,,,,,,,,,,,,,,,,,,
,,,,,,00079,2023-10-28_18h13.03.716,vbt_B1_day1,2022.2.4,Win32,60.01680471,,,,,,,,,,,,,,,,,,,-0.071296296,-0.348148148,1,0,0,9.863,4,13,117,21,1,v,images/br_v.png,images/cb_v.png,,,,,,,,,,,,,,,,,,,,,,,,,
,,,,,,00079,2023-10-28_18h13.03.716,vbt_B1_day1,2022.2.4,Win32,60.01680471,,,,,,,,,,,,,,,,,,,-0.071296296,-0.348148148,1,0,0,4.132,4,14,118,20,1,u,images/br_u.png,images/cb_u.png,,,,,,,,,,,,,,,,,,,,,,,,,
,,,,,,00079,2023-10-28_18h13.03.716,vbt_B1_day1,2022.2.4,Win32,60.01680471,,,,,,,,,,,,,,,,,,,-0.071296296,-0.348148148,1,0,0,3.4323,4,15,119,9,1,j,images/br_j.png,images/cb_j.png,,,,,,,,,,,,,,,,,,,,,,,,,
,,,,,,00079,2023-10-28_18h13.03.716,vbt_B1_day1,2022.2.4,Win32,60.01680471,,,,,,,,,,,,,,,,,,,-0.071296296,-0.348148148,1,0,0,1.5994,4,16,120,1,1,b,images/br_b.png,images/cb_b.png,,,,,,,,,,,,,,,,,,,,,,,,,
,,,,,,00079,2023-10-28_18h13.03.716,vbt_B1_day1,2022.2.4,Win32,60.01680471,,,,,,,,,,,,,,,,,,,-0.071296296,-0.348148148,1,0,0,0.2499,4,17,121,6,1,g,images/br_g.png,images/cb_g.png,,,,,,,,,,,,,,,,,,,,,,,,,
,,,,,,00079,2023-10-28_18h13.03.716,vbt_B1_day1,2022.2.4,Win32,60.01680471,,,,,,,,,,,,,,,,,,,-0.071296296,-0.348148148,1,0,0,4.581700001,4,18,122,8,1,i,images/br_i.png,images/cb_i.png,,,,,,,,,,,,,,,,,,,,,,,,,
,,,,,,00079,2023-10-28_18h13.03.716,vbt_B1_day1,2022.2.4,Win32,60.01680471,,,,,,,,,,,,,,,,,,,-0.071296296,-0.348148148,1,0,0,10.7463,4,19,123,15,1,p,images/br_p.png,images/cb_p.png,,,,,,,,,,,,,,,,,,,,,,,,,
,,,,,,00079,2023-10-28_18h13.03.716,vbt_B1_day1,2022.2.4,Win32,60.01680471,,,,,,,,,,,,,,,,,,,-0.071296296,-0.348148148,1,0,0,9.946599999,4,20,124,17,1,r,images/br_r.png,images/cb_r.png,,,,,,,,,,,,,,,,,,,,,,,,,
,,,,,,00079,2023-10-28_18h13.03.716,vbt_B1_day1,2022.2.4,Win32,60.01680471,,,,,,,,,,,,,,,,,,,-0.071296296,-0.348148148,1,0,0,8.9635,4,21,125,12,1,m,images/br_m.png,images/cb_m.png,,,,,,,,,,,,,,,,,,,,,,,,,
,,,,,,00079,2023-10-28_18h13.03.716,vbt_B1_day1,2022.2.4,Win32,60.01680471,,,,,,,,,,,,,,,,,,,-0.071296296,-0.348148148,1,0,0,0.0667,4,22,126,14,1,o,images/br_o.png,images/cb_o.png,,,,,,,,,,,,,,,,,,,,,,,,,
,,,,,,00079,2023-10-28_18h13.03.716,vbt_B1_day1,2022.2.4,Win32,60.01680471,,,,,,,,,,,,,,,,,,,-0.071296296,-0.348148148,1,0,0,0.7161,4,23,127,23,1,x,images/br_x.png,images/cb_x.png,,,,,,,,,,,,,,,,,,,,,,,,,
,,,,,,00079,2023-10-28_18h13.03.716,vbt_B1_day1,2022.2.4,Win32,60.01680471,,,,,,,,,,,,,,,,,,,-0.071296296,-0.348148148,1,0,0,0.233,4,24,128,18,1,s,images/br_s.png,images/cb_s.png,,,,,,,,,,,,,,,,,,,,,,,,,
,,,,,,00079,2023-10-28_18h13.03.716,vbt_B1_day1,2022.2.4,Win32,60.01680471,,,,,,,,,,,,,,,,,,,-0.071296296,-0.348148148,1,0,0,4.815,4,25,129,24,1,y,images/br_y.png,images/cb_y.png,,,,,,,,,,,,,,,,,,,,,,,,,
,,,,,,00079,2023-10-28_18h13.03.716,vbt_B1_day1,2022.2.4,Win32,60.01680471,,,,,,,,,,,,,,,,,,,-0.071296296,-0.348148148,1,0,0,0.4666,5,0,130,1,1,b,images/br_b.png,images/cb_b.png,,,,,,,,,,,,,,,,,,,,,,,,,
,,,,,,00079,2023-10-28_18h13.03.716,vbt_B1_day1,2022.2.4,Win32,60.01680471,,,,,,,,,,,,,,,,,,,-0.071296296,-0.348148148,1,0,0,11.5461,5,1,131,7,1,h,images/br_h.png,images/cb_h.png,,,,,,,,,,,,,,,,,,,,,,,,,
,,,,,,00079,2023-10-28_18h13.03.716,vbt_B1_day1,2022.2.4,Win32,60.01680471,,,,,,,,,,,,,,,,,,,-0.071296296,-0.348148148,1,0,0,0.899599999,5,2,132,25,1,z,images/br_z.png,images/cb_z.png,,,,,,,,,,,,,,,,,,,,,,,,,
,,,,,,00079,2023-10-28_18h13.03.716,vbt_B1_day1,2022.2.4,Win32,60.01680471,,,,,,,,,,,,,,,,,,,-0.071296296,-0.348148148,1,0,0,7.5807,5,3,133,5,1,f,images/br_f.png,images/cb_f.png,,,,,,,,,,,,,,,,,,,,,,,,,
,,,,,,00079,2023-10-28_18h13.03.716,vbt_B1_day1,2022.2.4,Win32,60.01680471,,,,,,,,,,,,,,,,,,,-0.071296296,-0.348148148,1,0,0,0.983200001,5,4,134,22,1,w,images/br_w.png,images/cb_w.png,,,,,,,,,,,,,,,,,,,,,,,,,
,,,,,,00079,2023-10-28_18h13.03.716,vbt_B1_day1,2022.2.4,Win32,60.01680471,,,,,,,,,,,,,,,,,,,-0.071296296,-0.348148148,1,0,0,10.8966,5,5,135,15,1,p,images/br_p.png,images/cb_p.png,,,,,,,,,,,,,,,,,,,,,,,,,
,,,,,,00079,2023-10-28_18h13.03.716,vbt_B1_day1,2022.2.4,Win32,60.01680471,,,,,,,,,,,,,,,,,,,-0.071296296,-0.348148148,1,0,0,13.7119,5,6,136,3,1,d,images/br_d.png,images/cb_d.png,,,,,,,,,,,,,,,,,,,,,,,,,
,,,,,,00079,2023-10-28_18h13.03.716,vbt_B1_day1,2022.2.4,Win32,60.01680471,,,,,,,,,,,,,,,,,,,-0.071296296,-0.348148148,1,0,0,0.1667,5,7,137,2,1,c,images/br_c.png,images/cb_c.png,,,,,,,,,,,,,,,,,,,,,,,,,
,,,,,,00079,2023-10-28_18h13.03.716,vbt_B1_day1,2022.2.4,Win32,60.01680471,,,,,,,,,,,,,,,,,,,-0.071296296,-0.348148148,1,0,0,0.6166,5,8,138,16,1,q,images/br_q.png,images/cb_q.png,,,,,,,,,,,,,,,,,,,,,,,,,
,,,,,,00079,2023-10-28_18h13.03.716,vbt_B1_day1,2022.2.4,Win32,60.01680471,,,,,,,,,,,,,,,,,,,-0.071296296,-0.348148148,1,0,0,12.579,5,9,139,19,1,t,images/br_t.png,images/cb_t.png,,,,,,,,,,,,,,,,,,,,,,,,,
,,,,,,00079,2023-10-28_18h13.03.716,vbt_B1_day1,2022.2.4,Win32,60.01680471,,,,,,,,,,,,,,,,,,,-0.071296296,-0.348148148,1,0,0,0.1499,5,10,140,0,1,a,images/br_a.png,images/cb_a.png,,,,,,,,,,,,,,,,,,,,,,,,,
,,,,,,00079,2023-10-28_18h13.03.716,vbt_B1_day1,2022.2.4,Win32,60.01680471,,,,,,,,,,,,,,,,,,,-0.071296296,-0.348148148,1,0,0,6.797700001,5,11,141,17,1,r,images/br_r.png,images/cb_r.png,,,,,,,,,,,,,,,,,,,,,,,,,
,,,,,,00079,2023-10-28_18h13.03.716,vbt_B1_day1,2022.2.4,Win32,60.01680471,,,,,,,,,,,,,,,,,,,-0.071296296,-0.348148148,1,0,0,17.1277,5,12,142,13,1,n,images/br_n.png,images/cb_n.png,,,,,,,,,,,,,,,,,,,,,,,,,
,,,,,,00079,2023-10-28_18h13.03.716,vbt_B1_day1,2022.2.4,Win32,60.01680471,,,,,,,,,,,,,,,,,,,-0.071296296,-0.348148148,1,0,0,4.7816,5,13,143,20,1,u,images/br_u.png,images/cb_u.png,,,,,,,,,,,,,,,,,,,,,,,,,
,,,,,,00079,2023-10-28_18h13.03.716,vbt_B1_day1,2022.2.4,Win32,60.01680471,,,,,,,,,,,,,,,,,,,-0.071296296,-0.348148148,1,0,0,0.9495,5,14,144,8,1,i,images/br_i.png,images/cb_i.png,,,,,,,,,,,,,,,,,,,,,,,,,
,,,,,,00079,2023-10-28_18h13.03.716,vbt_B1_day1,2022.2.4,Win32,60.01680471,,,,,,,,,,,,,,,,,,,-0.071296296,-0.348148148,1,0,0,0.416400001,5,15,145,6,1,g,images/br_g.png,images/cb_g.png,,,,,,,,,,,,,,,,,,,,,,,,,
,,,,,,00079,2023-10-28_18h13.03.716,vbt_B1_day1,2022.2.4,Win32,60.01680471,,,,,,,,,,,,,,,,,,,-0.071296296,-0.348148148,1,0,0,0.582900001,5,16,146,4,1,e,images/br_e.png,images/cb_e.png,,,,,,,,,,,,,,,,,,,,,,,,,
,,,,,,00079,2023-10-28_18h13.03.716,vbt_B1_day1,2022.2.4,Win32,60.01680471,,,,,,,,,,,,,,,,,,,-0.071296296,-0.348148148,1,0,0,0.3499,5,17,147,9,1,j,images/br_j.png,images/cb_j.png,,,,,,,,,,,,,,,,,,,,,,,,,
,,,,,,00079,2023-10-28_18h13.03.716,vbt_B1_day1,2022.2.4,Win32,60.01680471,,,,,,,,,,,,,,,,,,,-0.071296296,-0.348148148,1,0,0,0.4167,5,18,148,24,1,y,images/br_y.png,images/cb_y.png,,,,,,,,,,,,,,,,,,,,,,,,,
,,,,,,00079,2023-10-28_18h13.03.716,vbt_B1_day1,2022.2.4,Win32,60.01680471,,,,,,,,,,,,,,,,,,,-0.071296296,-0.348148148,1,0,0,18.1439,5,19,149,21,1,v,images/br_v.png,images/cb_v.png,,,,,,,,,,,,,,,,,,,,,,,,,
,,,,,,00079,2023-10-28_18h13.03.716,vbt_B1_day1,2022.2.4,Win32,60.01680471,,,,,,,,,,,,,,,,,,,-0.071296296,-0.348148148,1,0,0,7.6473,5,20,150,12,1,m,images/br_m.png,images/cb_m.png,,,,,,,,,,,,,,,,,,,,,,,,,
,,,,,,00079,2023-10-28_18h13.03.716,vbt_B1_day1,2022.2.4,Win32,60.01680471,,,,,,,,,,,,,,,,,,,-0.071296296,-0.348148148,1,0,0,0.3498,5,21,151,11,1,l,images/br_l.png,images/cb_l.png,,,,,,,,,,,,,,,,,,,,,,,,,
,,,,,,00079,2023-10-28_18h13.03.716,vbt_B1_day1,2022.2.4,Win32,60.01680471,,,,,,,,,,,,,,,,,,,-0.071296296,-0.348148148,1,0,0,7.697400001,5,22,152,10,1,k,images/br_k.png,images/cb_k.png,,,,,,,,,,,,,,,,,,,,,,,,,
,,,,,,00079,2023-10-28_18h13.03.716,vbt_B1_day1,2022.2.4,Win32,60.01680471,,,,,,,,,,,,,,,,,,,-0.071296296,-0.348148148,1,0,0,0.5165,5,23,153,23,1,x,images/br_x.png,images/cb_x.png,,,,,,,,,,,,,,,,,,,,,,,,,
,,,,,,00079,2023-10-28_18h13.03.716,vbt_B1_day1,2022.2.4,Win32,60.01680471,,,,,,,,,,,,,,,,,,,-0.071296296,-0.348148148,1,0,0,0.05,5,24,154,18,1,s,images/br_s.png,images/cb_s.png,,,,,,,,,,,,,,,,,,,,,,,,,
,,,,,,00079,2023-10-28_18h13.03.716,vbt_B1_day1,2022.2.4,Win32,60.01680471,,,,,,,,,,,,,,,,,,,-0.071296296,-0.348148148,1,0,0,0.633400001,5,25,155,14,1,o,images/br_o.png,images/cb_o.png,,,,,,,,,,,,,,,,,,,,,,,,,
,,,,,,00079,2023-10-28_18h13.03.716,vbt_B1_day1,2022.2.4,Win32,60.01680471,,,,,,,,,,,,,,,,,,,-0.071296296,-0.348148148,1,0,0,5.931,6,0,156,12,1,m,images/br_m.png,images/cb_m.png,,,,,,,,,,,,,,,,,,,,,,,,,
,,,,,,00079,2023-10-28_18h13.03.716,vbt_B1_day1,2022.2.4,Win32,60.01680471,,,,,,,,,,,,,,,,,,,-0.071296296,-0.348148148,1,0,0,0.2667,6,1,157,2,1,c,images/br_c.png,images/cb_c.png,,,,,,,,,,,,,,,,,,,,,,,,,
,,,,,,00079,2023-10-28_18h13.03.716,vbt_B1_day1,2022.2.4,Win32,60.01680471,,,,,,,,,,,,,,,,,,,-0.071296296,-0.348148148,1,0,0,3.6488,6,2,158,13,1,n,images/br_n.png,images/cb_n.png,,,,,,,,,,,,,,,,,,,,,,,,,
,,,,,,00079,2023-10-28_18h13.03.716,vbt_B1_day1,2022.2.4,Win32,60.01680471,,,,,,,,,,,,,,,,,,,-0.071296296,-0.348148148,1,0,0,4.464799999,6,3,159,5,1,f,images/br_f.png,images/cb_f.png,,,,,,,,,,,,,,,,,,,,,,,,,
,,,,,,00079,2023-10-28_18h13.03.716,vbt_B1_day1,2022.2.4,Win32,60.01680471,,,,,,,,,,,,,,,,,,,-0.071296296,-0.348148148,1,0,0,0.033400001,6,4,160,23,1,x,images/br_x.png,images/cb_x.png,,,,,,,,,,,,,,,,,,,,,,,,,
,,,,,,00079,2023-10-28_18h13.03.716,vbt_B1_day1,2022.2.4,Win32,60.01680471,,,,,,,,,,,,,,,,,,,-0.071296296,-0.348148148,1,0,0,1.5325,6,5,161,9,1,j,images/br_j.png,images/cb_j.png,,,,,,,,,,,,,,,,,,,,,,,,,
,,,,,,00079,2023-10-28_18h13.03.716,vbt_B1_day1,2022.2.4,Win32,60.01680471,,,,,,,,,,,,,,,,,,,-0.071296296,-0.348148148,1,0,0,0.4663,6,6,162,17,1,r,images/br_r.png,images/cb_r.png,,,,,,,,,,,,,,,,,,,,,,,,,
,,,,,,00079,2023-10-28_18h13.03.716,vbt_B1_day1,2022.2.4,Win32,60.01680471,,,,,,,,,,,,,,,,,,,-0.071296296,-0.348148148,1,0,0,0.649700001,6,7,163,14,1,o,images/br_o.png,images/cb_o.png,,,,,,,,,,,,,,,,,,,,,,,,,
,,,,,,00079,2023-10-28_18h13.03.716,vbt_B1_day1,2022.2.4,Win32,60.01680471,,,,,,,,,,,,,,,,,,,-0.071296296,-0.348148148,1,0,0,2.549099999,6,8,164,4,1,e,images/br_e.png,images/cb_e.png,,,,,,,,,,,,,,,,,,,,,,,,,
,,,,,,00079,2023-10-28_18h13.03.716,vbt_B1_day1,2022.2.4,Win32,60.01680471,,,,,,,,,,,,,,,,,,,-0.071296296,-0.348148148,1,0,0,0.682799999,6,9,165,18,1,s,images/br_s.png,images/cb_s.png,,,,,,,,,,,,,,,,,,,,,,,,,
,,,,,,00079,2023-10-28_18h13.03.716,vbt_B1_day1,2022.2.4,Win32,60.01680471,,,,,,,,,,,,,,,,,,,-0.071296296,-0.348148148,1,0,0,0.033400001,6,10,166,0,1,a,images/br_a.png,images/cb_a.png,,,,,,,,,,,,,,,,,,,,,,,,,
,,,,,,00079,2023-10-28_18h13.03.716,vbt_B1_day1,2022.2.4,Win32,60.01680471,,,,,,,,,,,,,,,,,,,-0.071296296,-0.348148148,1,0,0,0.5998,6,11,167,1,1,b,images/br_b.png,images/cb_b.png,,,,,,,,,,,,,,,,,,,,,,,,,
,,,,,,00079,2023-10-28_18h13.03.716,vbt_B1_day1,2022.2.4,Win32,60.01680471,,,,,,,,,,,,,,,,,,,-0.071296296,-0.348148148,1,0,0,0.200099999,6,12,168,10,1,k,images/br_k.png,images/cb_k.png,,,,,,,,,,,,,,,,,,,,,,,,,
,,,,,,00079,2023-10-28_18h13.03.716,vbt_B1_day1,2022.2.4,Win32,60.01680471,,,,,,,,,,,,,,,,,,,-0.071296296,-0.348148148,1,0,0,14.4117,6,13,169,3,1,d,images/br_d.png,images/cb_d.png,,,,,,,,,,,,,,,,,,,,,,,,,
,,,,,,00079,2023-10-28_18h13.03.716,vbt_B1_day1,2022.2.4,Win32,60.01680471,,,,,,,,,,,,,,,,,,,-0.071296296,-0.348148148,1,0,0,0.1169,6,14,170,19,1,t,images/br_t.png,images/cb_t.png,,,,,,,,,,,,,,,,,,,,,,,,,
,,,,,,00079,2023-10-28_18h13.03.716,vbt_B1_day1,2022.2.4,Win32,60.01680471,,,,,,,,,,,,,,,,,,,-0.071296296,-0.348148148,1,0,0,5.614900001,6,15,171,22,1,w,images/br_w.png,images/cb_w.png,,,,,,,,,,,,,,,,,,,,,,,,,
,,,,,,00079,2023-10-28_18h13.03.716,vbt_B1_day1,2022.2.4,Win32,60.01680471,,,,,,,,,,,,,,,,,,,-0.071296296,-0.348148148,1,0,0,25.308,6,16,172,21,1,v,images/br_v.png,images/cb_v.png,,,,,,,,,,,,,,,,,,,,,,,,,
,,,,,,00079,2023-10-28_18h13.03.716,vbt_B1_day1,2022.2.4,Win32,60.01680471,,,,,,,,,,,,,,,,,,,-0.071296296,-0.348148148,1,0,0,0.466400001,6,17,173,24,1,y,images/br_y.png,images/cb_y.png,,,,,,,,,,,,,,,,,,,,,,,,,
,,,,,,00079,2023-10-28_18h13.03.716,vbt_B1_day1,2022.2.4,Win32,60.01680471,,,,,,,,,,,,,,,,,,,-0.071296296,-0.348148148,1,0,0,0.433700001,6,18,174,11,1,l,images/br_l.png,images/cb_l.png,,,,,,,,,,,,,,,,,,,,,,,,,
,,,,,,00079,2023-10-28_18h13.03.716,vbt_B1_day1,2022.2.4,Win32,60.01680471,,,,,,,,,,,,,,,,,,,-0.071296296,-0.348148148,1,0,0,14.545,6,19,175,15,1,p,images/br_p.png,images/cb_p.png,,,,,,,,,,,,,,,,,,,,,,,,,
,,,,,,00079,2023-10-28_18h13.03.716,vbt_B1_day1,2022.2.4,Win32,60.01680471,,,,,,,,,,,,,,,,,,,-0.071296296,-0.348148148,1,0,0,0.4498,6,20,176,16,1,q,images/br_q.png,images/cb_q.png,,,,,,,,,,,,,,,,,,,,,,,,,
,,,,,,00079,2023-10-28_18h13.03.716,vbt_B1_day1,2022.2.4,Win32,60.01680471,,,,,,,,,,,,,,,,,,,-0.071296296,-0.348148148,1,0,0,3.099,6,21,177,25,1,z,images/br_z.png,images/cb_z.png,,,,,,,,,,,,,,,,,,,,,,,,,
,,,,,,00079,2023-10-28_18h13.03.716,vbt_B1_day1,2022.2.4,Win32,60.01680471,,,,,,,,,,,,,,,,,,,-0.071296296,-0.348148148,1,0,0,0.1994,6,22,178,6,1,g,images/br_g.png,images/cb_g.png,,,,,,,,,,,,,,,,,,,,,,,,,
,,,,,,00079,2023-10-28_18h13.03.716,vbt_B1_day1,2022.2.4,Win32,60.01680471,,,,,,,,,,,,,,,,,,,-0.071296296,-0.348148148,1,0,0,0.3832,6,23,179,8,1,i,images/br_i.png,images/cb_i.png,,,,,,,,,,,,,,,,,,,,,,,,,
,,,,,,00079,2023-10-28_18h13.03.716,vbt_B1_day1,2022.2.4,Win32,60.01680471,,,,,,,,,,,,,,,,,,,-0.071296296,-0.348148148,1,0,0,4.7313,6,24,180,20,1,u,images/br_u.png,images/cb_u.png,,,,,,,,,,,,,,,,,,,,,,,,,
,,,,,,00079,2023-10-28_18h13.03.716,vbt_B1_day1,2022.2.4,Win32,60.01680471,,,,,,,,,,,,,,,,,,,-0.071296296,-0.348148148,1,0,0,0.283700001,6,25,181,7,1,h,images/br_h.png,images/cb_h.png,,,,,,,,,,,,,,,,,,,,,,,,,
,,,,,,00079,2023-10-28_18h13.03.716,vbt_B1_day1,2022.2.4,Win32,60.01680471,,,,,,,,,,,,,,,,,,,,,,,,,,,,,,,,,-0.071296296,-0.348148148,1,0,0,,,,,,,,,,,,,,,,,,,,
,,,,,,00079,2023-10-28_18h13.03.716,vbt_B1_day1,2022.2.4,Win32,60.01680471,,,,,,,,,,,,,,,,,,,,,,,,,,,,,,,,,,,,,,-0.071296296,-0.348148148,1,0,0,,,,,,,,,,,,,,,
,,,,,,00079,2023-10-28_18h13.03.716,vbt_B1_day1,2022.2.4,Win32,60.01680471,,,,,,,,,,,,,,,,,,,,,,,,,,,,,,,,,,,,,,,,,,,0.038888889,-0.362962963,1,0,0,v...,v...,0,0,0,26,1,valop,images/br_valop.png,images/cb_valop.png
,,,,,,00079,2023-10-28_18h13.03.716,vbt_B1_day1,2022.2.4,Win32,60.01680471,,,,,,,,,,,,,,,,,,,,,,,,,,,,,,,,,,,,,,,,,,,0.038888889,-0.362962963,1,0,0,voo...a,voo...a,0,1,1,58,1,voorkeur,images/br_voorkeur.png,images/cb_voorkeur.png
,,,,,,00079,2023-10-28_18h13.03.716,vbt_B1_day1,2022.2.4,Win32,60.01680471,,,,,,,,,,,,,,,,,,,,,,,,,,,,,,,,,,,,,,,,,,,0.038888889,-0.362962963,1,0,0,bl..w,bl..w,0,2,2,6,1,bleek,images/br_bleek.png,images/cb_bleek.png
,,,,,,00079,2023-10-28_18h13.03.716,vbt_B1_day1,2022.2.4,Win32,60.01680471,,,,,,,,,,,,,,,,,,,,,,,,,,,,,,,,,,,,,,,,,,,0.038888889,-0.362962963,1,0,0,re.er,re.er,0,3,3,24,1,rezer,images/br_rezer.png,images/cb_rezer.png
,,,,,,00079,2023-10-28_18h13.03.716,vbt_B1_day1,2022.2.4,Win32,60.01680471,,,,,,,,,,,,,,,,,,,,,,,,,,,,,,,,,,,,,,,,,,,0.038888889,-0.362962963,1,0,0,.es.....,.es.....,0,4,4,18,1,uitdelen,images/br_uitdelen.png,images/cb_uitdelen.png
,,,,,,00079,2023-10-28_18h13.03.716,vbt_B1_day1,2022.2.4,Win32,60.01680471,,,,,,,,,,,,,,,,,,,,,,,,,,,,,,,,,,,,,,,,,,,0.038888889,-0.362962963,1,0,0,bej..i,bej..i,0,5,5,44,1,wijze,images/br_wijze.png,images/cb_wijze.png
,,,,,,00079,2023-10-28_18h13.03.716,vbt_B1_day1,2022.2.4,Win32,60.01680471,,,,,,,,,,,,,,,,,,,,,,,,,,,,,,,,,,,,,,,,,,,0.038888889,-0.362962963,1,0,0,hei....,hei....,0,6,6,15,1,hiervan,images/br_hiervan.png,images/cb_hiervan.png
,,,,,,00079,2023-10-28_18h13.03.716,vbt_B1_day1,2022.2.4,Win32,60.01680471,,,,,,,,,,,,,,,,,,,,,,,,,,,,,,,,,,,,,,,,,,,0.096296296,-0.355555556,1,0,0,.a.j,.a.j,0,7,7,3,1,mand,images/br_mand.png,images/cb_mand.png
,,,,,,00079,2023-10-28_18h13.03.716,vbt_B1_day1,2022.2.4,Win32,60.01680471,,,,,,,,,,,,,,,,,,,,,,,,,,,,,,,,,,,,,,,,,,,0.096296296,-0.355555556,1,0,0,to......,to......,0,8,8,56,1,toezicht,images/br_toezicht.png,images/cb_toezicht.png
,,,,,,00079,2023-10-28_18h13.03.716,vbt_B1_day1,2022.2.4,Win32,60.01680471,,,,,,,,,,,,,,,,,,,,,,,,,,,,,,,,,,,,,,,,,,,0.096296296,-0.355555556,1,0,0,jaar,jaar,0,9,9,2,1,jaar,images/br_jaar.png,images/cb_jaar.png
,,,,,,00079,2023-10-28_18h13.03.716,vbt_B1_day1,2022.2.4,Win32,60.01680471,,,,,,,,,,,,,,,,,,,,,,,,,,,,,,,,,,,,,,,,,,,0.096296296,-0.355555556,1,0,0,o..l...,o..l...,0,10,10,32,1,opplaan,images/br_opplaan.png,images/cb_opplaan.png
,,,,,,00079,2023-10-28_18h13.03.716,vbt_B1_day1,2022.2.4,Win32,60.01680471,,,,,,,,,,,,,,,,,,,,,,,,,,,,,,,,,,,,,,,,,,,0.096296296,-0.355555556,1,0,0,beb....,beb....,0,11,11,28,1,bebrip,images/br_bebrip.png,images/cb_bebrip.png
,,,,,,00079,2023-10-28_18h13.03.716,vbt_B1_day1,2022.2.4,Win32,60.01680471,,,,,,,,,,,,,,,,,,,,,,,,,,,,,,,,,,,,,,,,,,,-0.030555556,-0.198148148,1,0,0,.aar...,.aar...,0,12,12,14,1,waarvan,images/br_waarvan.png,images/cb_waarvan.png
,,,,,,00079,2023-10-28_18h13.03.716,vbt_B1_day1,2022.2.4,Win32,60.01680471,,,,,,,,,,,,,,,,,,,,,,,,,,,,,,,,,,,,,,,,,,,-0.031481481,-0.203703704,1,0,0,stu.,stu.,0,13,13,42,1,stuk,images/br_stuk.png,images/cb_stuk.png
,,,,,,00079,2023-10-28_18h13.03.716,vbt_B1_day1,2022.2.4,Win32,60.01680471,,,,,,,,,,,,,,,,,,,,,,,,,,,,,,,,,,,,,,,,,,,-0.031481481,-0.203703704,1,0,0,slak,slak,0,14,14,0,1,slak,images/br_slak.png,images/cb_slak.png
,,,,,,00079,2023-10-28_18h13.03.716,vbt_B1_day1,2022.2.4,Win32,60.01680471,,,,,,,,,,,,,,,,,,,,,,,,,,,,,,,,,,,,,,,,,,,-0.022222222,-0.149074074,1,0,0,j....,j....,0,15,15,16,1,daarheen,images/br_daarheen.png,images/cb_daarheen.png
,,,,,,00079,2023-10-28_18h13.03.716,vbt_B1_day1,2022.2.4,Win32,60.01680471,,,,,,,,,,,,,,,,,,,,,,,,,,,,,,,,,,,,,,,,,,,-0.022222222,-0.149074074,1,0,0,loo.s,loo.s,0,16,16,47,1,loods,images/br_loods.png,images/cb_loods.png
,,,,,,00079,2023-10-28_18h13.03.716,vbt_B1_day1,2022.2.4,Win32,60.01680471,,,,,,,,,,,,,,,,,,,,,,,,,,,,,,,,,,,,,,,,,,,-0.022222222,-0.149074074,1,0,0,na.e.,na.e.,0,17,17,5,1,maken,images/br_maken.png,images/cb_maken.png
,,,,,,00079,2023-10-28_18h13.03.716,vbt_B1_day1,2022.2.4,Win32,60.01680471,,,,,,,,,,,,,,,,,,,,,,,,,,,,,,,,,,,,,,,,,,,-0.022222222,-0.149074074,1,0,0,atte...,atte...,0,18,18,17,1,attentie,images/br_attentie.png,images/cb_attentie.png
,,,,,,00079,2023-10-28_18h13.03.716,vbt_B1_day1,2022.2.4,Win32,60.01680471,,,,,,,,,,,,,,,,,,,,,,,,,,,,,,,,,,,,,,,,,,,-0.022222222,-0.149074074,1,0,0,kla...,kla...,0,19,19,7,1,klauw,images/br_klauw.png,images/cb_klauw.png
,,,,,,00079,2023-10-28_18h13.03.716,vbt_B1_day1,2022.2.4,Win32,60.01680471,,,,,,,,,,,,,,,,,,,,,,,,,,,,,,,,,,,,,,,,,,,0.012962963,-0.20462963,1,0,0,lama,lama,0,20,20,43,1,lava,images/br_lava.png,images/cb_lava.png
,,,,,,00079,2023-10-28_18h13.03.716,vbt_B1_day1,2022.2.4,Win32,60.01680471,,,,,,,,,,,,,,,,,,,,,,,,,,,,,,,,,,,,,,,,,,,0.275925926,-0.125,1,0,0,.e.ei..,.e.ei..,0,21,21,49,1,vizier,images/br_vizier.png,images/cb_vizier.png
,,,,,,00079,2023-10-28_18h13.03.716,vbt_B1_day1,2022.2.4,Win32,60.01680471,,,,,,,,,,,,,,,,,,,,,,,,,,,,,,,,,,,,,,,,,,,0.275925926,-0.125,1,0,0,s.a......,s.a......,0,22,22,37,1,spanzing,images/br_spanzing.png,images/cb_spanzing.png
,,,,,,00079,2023-10-28_18h13.03.716,vbt_B1_day1,2022.2.4,Win32,60.01680471,,,,,,,,,,,,,,,,,,,,,,,,,,,,,,,,,,,,,,,,,,,0.275925926,-0.125,1,0,0,loch....,loch....,0,23,23,34,1,lochten,images/br_lochten.png,images/cb_lochten.png
,,,,,,00079,2023-10-28_18h13.03.716,vbt_B1_day1,2022.2.4,Win32,60.01680471,,,,,,,,,,,,,,,,,,,,,,,,,,,,,,,,,,,,,,,,,,,0.275925926,-0.125,1,0,0,berj..,berj..,0,24,24,25,1,brijk,images/br_brijk.png,images/cb_brijk.png
,,,,,,00079,2023-10-28_18h13.03.716,vbt_B1_day1,2022.2.4,Win32,60.01680471,,,,,,,,,,,,,,,,,,,,,,,,,,,,,,,,,,,,,,,,,,,0.275925926,-0.125,1,0,0,n....,n....,0,25,25,10,1,muziek,images/br_muziek.png,images/cb_muziek.png
,,,,,,00079,2023-10-28_18h13.03.716,vbt_B1_day1,2022.2.4,Win32,60.01680471,,,,,,,,,,,,,,,,,,,,,,,,,,,,,,,,,,,,,,,,,,,0.275925926,-0.125,1,0,0,.ee.e...,.ee.e...,0,26,26,57,1,meenemen,images/br_meenemen.png,images/cb_meenemen.png
,,,,,,00079,2023-10-28_18h13.03.716,vbt_B1_day1,2022.2.4,Win32,60.01680471,,,,,,,,,,,,,,,,,,,,,,,,,,,,,,,,,,,,,,,,,,,0.275925926,-0.125,1,0,0,kle.....,kle.....,0,27,27,12,1,klimmen,images/br_klimmen.png,images/cb_klimmen.png
,,,,,,00079,2023-10-28_18h13.03.716,vbt_B1_day1,2022.2.4,Win32,60.01680471,,,,,,,,,,,,,,,,,,,,,,,,,,,,,,,,,,,,,,,,,,,0.275925926,-0.125,1,0,0,sch...,sch...,0,28,28,4,1,schep,images/br_schep.png,images/cb_schep.png
,,,,,,00079,2023-10-28_18h13.03.716,vbt_B1_day1,2022.2.4,Win32,60.01680471,,,,,,,,,,,,,,,,,,,,,,,,,,,,,,,,,,,,,,,,,,,0.275925926,-0.125,1,0,0,ge.o...,ge.o...,0,29,29,29,1,genond,images/br_genond.png,images/cb_genond.png
,,,,,,00079,2023-10-28_18h13.03.716,vbt_B1_day1,2022.2.4,Win32,60.01680471,,,,,,,,,,,,,,,,,,,,,,,,,,,,,,,,,,,,,,,,,,,0.275925926,-0.125,1,0,0,.re.,.re.,0,30,30,21,1,dred,images/br_dred.png,images/cb_dred.png
,,,,,,00079,2023-10-28_18h13.03.716,vbt_B1_day1,2022.2.4,Win32,60.01680471,,,,,,,,,,,,,,,,,,,,,,,,,,,,,,,,,,,,,,,,,,,0.275925926,-0.125,1,0,0,lei...,lei...,0,31,31,51,1,liefde,images/br_liefde.png,images/cb_liefde.png
,,,,,,00079,2023-10-28_18h13.03.716,vbt_B1_day1,2022.2.4,Win32,60.01680471,,,,,,,,,,,,,,,,,,,,,,,,,,,,,,,,,,,,,,,,,,,0.275925926,-0.125,1,0,0,.e.el,.e.el,0,32,32,45,1,hemel,images/br_hemel.png,images/cb_hemel.png
,,,,,,00079,2023-10-28_18h13.03.716,vbt_B1_day1,2022.2.4,Win32,60.01680471,,,,,,,,,,,,,,,,,,,,,,,,,,,,,,,,,,,,,,,,,,,0.275925926,-0.125,1,0,0,.er.a....,.er.a....,0,33,33,36,1,vervaden,images/br_vervaden.png,images/cb_vervaden.png
,,,,,,00079,2023-10-28_18h13.03.716,vbt_B1_day1,2022.2.4,Win32,60.01680471,,,,,,,,,,,,,,,,,,,,,,,,,,,,,,,,,,,,,,,,,,,0.275925926,-0.125,1,0,0,k.eo.,k.eo.,0,34,34,22,1,knoe,images/br_knoe.png,images/cb_knoe.png
,,,,,,00079,2023-10-28_18h13.03.716,vbt_B1_day1,2022.2.4,Win32,60.01680471,,,,,,,,,,,,,,,,,,,,,,,,,,,,,,,,,,,,,,,,,,,0.275925926,-0.125,1,0,0,,,0,35,35,30,1,reedje,images/br_reedje.png,images/cb_reedje.png
,,,,,,00079,2023-10-28_18h13.03.716,vbt_B1_day1,2022.2.4,Win32,60.01680471,,,,,,,,,,,,,,,,,,,,,,,,,,,,,,,,,,,,,,,,,,,0.275925926,-0.125,1,0,0,.e.....,.e.....,0,36,36,54,1,vijftig,images/br_vijftig.png,images/cb_vijftig.png
,,,,,,00079,2023-10-28_18h13.03.716,vbt_B1_day1,2022.2.4,Win32,60.01680471,,,,,,,,,,,,,,,,,,,,,,,,,,,,,,,,,,,,,,,,,,,0.275925926,-0.125,1,0,0,steu...,steu...,0,37,37,35,1,stuikem,images/br_stuikem.png,images/cb_stuikem.png
,,,,,,00079,2023-10-28_18h13.03.716,vbt_B1_day1,2022.2.4,Win32,60.01680471,,,,,,,,,,,,,,,,,,,,,,,,,,,,,,,,,,,,,,,,,,,0.275925926,-0.125,1,0,0,sche....,sche....,0,38,38,38,1,schielen,images/br_schielen.png,images/cb_schielen.png
,,,,,,00079,2023-10-28_18h13.03.716,vbt_B1_day1,2022.2.4,Win32,60.01680471,,,,,,,,,,,,,,,,,,,,,,,,,,,,,,,,,,,,,,,,,,,0.275925926,-0.125,1,0,0,.ubb...,.ubb...,0,39,39,9,1,dubbel,images/br_dubbel.png,images/cb_dubbel.png
,,,,,,00079,2023-10-28_18h13.03.716,vbt_B1_day1,2022.2.4,Win32,60.01680471,,,,,,,,,,,,,,,,,,,,,,,,,,,,,,,,,,,,,,,,,,,0.275925926,-0.125,1,0,0,zaal,zaal,0,40,40,1,1,zaal,images/br_zaal.png,images/cb_zaal.png
,,,,,,00079,2023-10-28_18h13.03.716,vbt_B1_day1,2022.2.4,Win32,60.01680471,,,,,,,,,,,,,,,,,,,,,,,,,,,,,,,,,,,,,,,,,,,0.275925926,-0.125,1,0,0,e.e..g,e.e..g,0,41,41,11,1,mening,images/br_mening.png,images/cb_mening.png
,,,,,,00079,2023-10-28_18h13.03.716,vbt_B1_day1,2022.2.4,Win32,60.01680471,,,,,,,,,,,,,,,,,,,,,,,,,,,,,,,,,,,,,,,,,,,0.275925926,-0.125,1,0,0,scheu...,scheu...,0,42,42,19,1,schuilen,images/br_schuilen.png,images/cb_schuilen.png
,,,,,,00079,2023-10-28_18h13.03.716,vbt_B1_day1,2022.2.4,Win32,60.01680471,,,,,,,,,,,,,,,,,,,,,,,,,,,,,,,,,,,,,,,,,,,0.275925926,-0.125,1,0,0,t....,t....,0,43,43,13,1,twijfel,images/br_twijfel.png,images/cb_twijfel.png
,,,,,,00079,2023-10-28_18h13.03.716,vbt_B1_day1,2022.2.4,Win32,60.01680471,,,,,,,,,,,,,,,,,,,,,,,,,,,,,,,,,,,,,,,,,,,0.275925926,-0.125,1,0,0,.rort,.rort,0,44,44,27,1,prort,images/br_prort.png,images/cb_prort.png
,,,,,,00079,2023-10-28_18h13.03.716,vbt_B1_day1,2022.2.4,Win32,60.01680471,,,,,,,,,,,,,,,,,,,,,,,,,,,,,,,,,,,,,,,,,,,0.275925926,-0.125,1,0,0,o..a...,o..a...,0,45,45,59,1,opvatten,images/br_opvatten.png,images/cb_opvatten.png
,,,,,,00079,2023-10-28_18h13.03.716,vbt_B1_day1,2022.2.4,Win32,60.01680471,,,,,,,,,,,,,,,,,,,,,,,,,,,,,,,,,,,,,,,,,,,0.275925926,-0.125,1,0,0,o.sl...,o.sl...,0,46,46,53,1,opslaan,images/br_opslaan.png,images/cb_opslaan.png
,,,,,,00079,2023-10-28_18h13.03.716,vbt_B1_day1,2022.2.4,Win32,60.01680471,,,,,,,,,,,,,,,,,,,,,,,,,,,,,,,,,,,,,,,,,,,0.275925926,-0.125,1,0,0,lezen,lezen,0,47,47,46,1,lezen,images/br_lezen.png,images/cb_lezen.png
,,,,,,00079,2023-10-28_18h13.03.716,vbt_B1_day1,2022.2.4,Win32,60.01680471,,,,,,,,,,,,,,,,,,,,,,,,,,,,,,,,,,,,,,,,,,,0.275925926,-0.125,1,0,0,kam...,kam...,0,48,48,8,1,kanjer,images/br_kanjer.png,images/cb_kanjer.png
,,,,,,00079,2023-10-28_18h13.03.716,vbt_B1_day1,2022.2.4,Win32,60.01680471,,,,,,,,,,,,,,,,,,,,,,,,,,,,,,,,,,,,,,,,,,,0.275925926,-0.125,1,0,0,zue....,zue....,0,49,49,52,1,zuiplap,images/br_zuiplap.png,images/cb_zuiplap.png
,,,,,,00079,2023-10-28_18h13.03.716,vbt_B1_day1,2022.2.4,Win32,60.01680471,,,,,,,,,,,,,,,,,,,,,,,,,,,,,,,,,,,,,,,,,,,0.275925926,-0.125,1,0,0,stame.,stame.,0,50,50,31,1,stamen,images/br_stamen.png,images/cb_stamen.png
,,,,,,00079,2023-10-28_18h13.03.716,vbt_B1_day1,2022.2.4,Win32,60.01680471,,,,,,,,,,,,,,,,,,,,,,,,,,,,,,,,,,,,,,,,,,,0.275925926,-0.125,1,0,0,.ooe,.ooe,0,51,51,23,1,booi,images/br_booi.png,images/cb_booi.png
,,,,,,00079,2023-10-28_18h13.03.716,vbt_B1_day1,2022.2.4,Win32,60.01680471,,,,,,,,,,,,,,,,,,,,,,,,,,,,,,,,,,,,,,,,,,,0.275925926,-0.125,1,0,0,.oorr...,.oorr...,0,52,52,39,1,voorreur,images/br_voorreur.png,images/cb_voorreur.png
,,,,,,00079,2023-10-28_18h13.03.716,vbt_B1_day1,2022.2.4,Win32,60.01680471,,,,,,,,,,,,,,,,,,,,,,,,,,,,,,,,,,,,,,,,,,,0.275925926,-0.125,1,0,0,tar.,tar.,0,53,53,20,1,tars,images/br_tars.png,images/cb_tars.png
,,,,,,00079,2023-10-28_18h13.03.716,vbt_B1_day1,2022.2.4,Win32,60.01680471,,,,,,,,,,,,,,,,,,,,,,,,,,,,,,,,,,,,,,,,,,,0.275925926,-0.125,1,0,0,.ect...,.ect...,0,54,54,48,1,fictie,images/br_fictie.png,images/cb_fictie.png
,,,,,,00079,2023-10-28_18h13.03.716,vbt_B1_day1,2022.2.4,Win32,60.01680471,,,,,,,,,,,,,,,,,,,,,,,,,,,,,,,,,,,,,,,,,,,0.275925926,-0.125,1,0,0,.lullen,.lullen,0,55,55,33,1,flullen,images/br_flullen.png,images/cb_flullen.png
,,,,,,00079,2023-10-28_18h13.03.716,vbt_B1_day1,2022.2.4,Win32,60.01680471,,,,,,,,,,,,,,,,,,,,,,,,,,,,,,,,,,,,,,,,,,,0.275925926,-0.125,1,0,0,hei.,hei.,0,56,56,40,1,dief,images/br_dief.png,images/cb_dief.png
,,,,,,00079,2023-10-28_18h13.03.716,vbt_B1_day1,2022.2.4,Win32,60.01680471,,,,,,,,,,,,,,,,,,,,,,,,,,,,,,,,,,,,,,,,,,,0.275925926,-0.125,1,0,0,te.e...,te.e...,0,57,57,55,1,tekenen,images/br_tekenen.png,images/cb_tekenen.png
,,,,,,00079,2023-10-28_18h13.03.716,vbt_B1_day1,2022.2.4,Win32,60.01680471,,,,,,,,,,,,,,,,,,,,,,,,,,,,,,,,,,,,,,,,,,,0.275925926,-0.125,1,0,0,toog,toog,0,58,58,41,1,hoog,images/br_hoog.png,images/cb_hoog.png
,,,,,,00079,2023-10-28_18h13.03.716,vbt_B1_day1,2022.2.4,Win32,60.01680471,,,,,,,,,,,,,,,,,,,,,,,,,,,,,,,,,,,,,,,,,,,0.275925926,-0.125,1,0,0,liegen,liegen,0,59,59,50,1,liegen,images/br_liegen.png,images/cb_liegen.png
,,,,,,00079,2023-10-28_18h13.03.716,vbt_B1_day1,2022.2.4,Win32,60.01680471,,,,,,,,,,,,,,,,,,,,,,,,,,,,,,,,,,,,,,,,,,,,,,,,,,,,,,,,,
