welcome_mouse.x,welcome_mouse.y,welcome_mouse.leftButton,welcome_mouse.midButton,welcome_mouse.rightButton,welcome_mouse.time,"ID",date,expName,psychopyVersion,OS,frameRate,mouse_2.x,mouse_2.y,mouse_2.leftButton,mouse_2.midButton,mouse_2.rightButton,mouse_2.time,mouse_3.x,mouse_3.y,mouse_3.leftButton,mouse_3.midButton,mouse_3.rightButton,mouse_3.time,train_mouse.x,train_mouse.y,train_mouse.leftButton,train_mouse.midButton,train_mouse.rightButton,train_mouse.time,braille_mouse.x,braille_mouse.y,braille_mouse.leftButton,braille_mouse.midButton,braille_mouse.rightButton,braille_mouse.time,trials.thisRepN,trials.thisTrialN,trials.thisN,trials.thisIndex,trials.ran,nlLet,brLet,cbLet,mouse.x,mouse.y,mouse.leftButton,mouse.midButton,mouse.rightButton,testInstr_mouse.x,testInstr_mouse.y,testInstr_mouse.leftButton,testInstr_mouse.midButton,testInstr_mouse.rightButton,test_mouse.x,test_mouse.y,test_mouse.leftButton,test_mouse.midButton,test_mouse.rightButton,test_response.text,testResp,test_loop.thisRepN,test_loop.thisTrialN,test_loop.thisN,test_loop.thisIndex,test_loop.ran,nlWrd,brWrd,cbWrd
0.075405138,-0.117172852,1,0,0,14.7335,00081,2023-10-23_17h23.06.966,vbt_B1_day1,2022.2.4,MacIntel,59.99880002,,,,,,,,,,,,,,,,,,,,,,,,,,,,,,,,,,,,,,,,,,,,,,,,,,,,,,,,,
,,,,,,00081,2023-10-23_17h23.06.966,vbt_B1_day1,2022.2.4,MacIntel,59.99880002,-0.045864665,-0.338409017,1,0,0,16.8604,,,,,,,,,,,,,,,,,,,,,,,,,,,,,,,,,,,,,,,,,,,,,,,,,,,
,,,,,,00081,2023-10-23_17h23.06.966,vbt_B1_day1,2022.2.4,MacIntel,59.99880002,,,,,,,0.273738336,-0.059603577,1,0,0,15.6474,,,,,,,,,,,,,,,,,,,,,,,,,,,,,,,,,,,,,,,,,,,,,
,,,,,,00081,2023-10-23_17h23.06.966,vbt_B1_day1,2022.2.4,MacIntel,59.99880002,,,,,,,,,,,,,0.098972439,0.018702325,1,0,0,29.8296,,,,,,,,,,,,,,,,,,,,,,,,,,,,,,,,,,,,,,,
,,,,,,00081,2023-10-23_17h23.06.966,vbt_B1_day1,2022.2.4,MacIntel,59.99880002,,,,,,,,,,,,,,,,,,,0.098972439,0.018702325,1,0,0,42.4714,0,0,0,17,1,r,images/br_r.png,images/cb_r.png,,,,,,,,,,,,,,,,,,,,,,,,,
,,,,,,00081,2023-10-23_17h23.06.966,vbt_B1_day1,2022.2.4,MacIntel,59.99880002,,,,,,,,,,,,,,,,,,,0.138542141,0.114273919,1,0,0,10.653,0,1,1,4,1,e,images/br_e.png,images/cb_e.png,,,,,,,,,,,,,,,,,,,,,,,,,
,,,,,,00081,2023-10-23_17h23.06.966,vbt_B1_day1,2022.2.4,MacIntel,59.99880002,,,,,,,,,,,,,,,,,,,0.138542141,0.114273919,1,0,0,22.7681,0,2,2,23,1,x,images/br_x.png,images/cb_x.png,,,,,,,,,,,,,,,,,,,,,,,,,
,,,,,,00081,2023-10-23_17h23.06.966,vbt_B1_day1,2022.2.4,MacIntel,59.99880002,,,,,,,,,,,,,,,,,,,0.138542141,0.114273919,1,0,0,23.4222,0,3,3,12,1,m,images/br_m.png,images/cb_m.png,,,,,,,,,,,,,,,,,,,,,,,,,
,,,,,,00081,2023-10-23_17h23.06.966,vbt_B1_day1,2022.2.4,MacIntel,59.99880002,,,,,,,,,,,,,,,,,,,0.138542141,0.114273919,1,0,0,58.9875,0,4,4,7,1,h,images/br_h.png,images/cb_h.png,,,,,,,,,,,,,,,,,,,,,,,,,
,,,,,,00081,2023-10-23_17h23.06.966,vbt_B1_day1,2022.2.4,MacIntel,59.99880002,,,,,,,,,,,,,,,,,,,0.138542141,0.114273919,1,0,0,23.5694,0,5,5,19,1,t,images/br_t.png,images/cb_t.png,,,,,,,,,,,,,,,,,,,,,,,,,
,,,,,,00081,2023-10-23_17h23.06.966,vbt_B1_day1,2022.2.4,MacIntel,59.99880002,,,,,,,,,,,,,,,,,,,0.138542141,0.114273919,1,0,0,2.1312,0,6,6,11,1,l,images/br_l.png,images/cb_l.png,,,,,,,,,,,,,,,,,,,,,,,,,
,,,,,,00081,2023-10-23_17h23.06.966,vbt_B1_day1,2022.2.4,MacIntel,59.99880002,,,,,,,,,,,,,,,,,,,0.138542141,0.114273919,1,0,0,7.2498,0,7,7,0,1,a,images/br_a.png,images/cb_a.png,,,,,,,,,,,,,,,,,,,,,,,,,
,,,,,,00081,2023-10-23_17h23.06.966,vbt_B1_day1,2022.2.4,MacIntel,59.99880002,,,,,,,,,,,,,,,,,,,0.138237712,0.114273919,1,0,0,18.8666,0,8,8,5,1,f,images/br_f.png,images/cb_f.png,,,,,,,,,,,,,,,,,,,,,,,,,
,,,,,,00081,2023-10-23_17h23.06.966,vbt_B1_day1,2022.2.4,MacIntel,59.99880002,,,,,,,,,,,,,,,,,,,0.138237712,0.114273919,1,0,0,6.8505,0,9,9,3,1,d,images/br_d.png,images/cb_d.png,,,,,,,,,,,,,,,,,,,,,,,,,
,,,,,,00081,2023-10-23_17h23.06.966,vbt_B1_day1,2022.2.4,MacIntel,59.99880002,,,,,,,,,,,,,,,,,,,0.138237712,0.114273919,1,0,0,10.9506,0,10,10,2,1,c,images/br_c.png,images/cb_c.png,,,,,,,,,,,,,,,,,,,,,,,,,
,,,,,,00081,2023-10-23_17h23.06.966,vbt_B1_day1,2022.2.4,MacIntel,59.99880002,,,,,,,,,,,,,,,,,,,0.138237712,0.114273919,1,0,0,18.6012,0,11,11,18,1,s,images/br_s.png,images/cb_s.png,,,,,,,,,,,,,,,,,,,,,,,,,
,,,,,,00081,2023-10-23_17h23.06.966,vbt_B1_day1,2022.2.4,MacIntel,59.99880002,,,,,,,,,,,,,,,,,,,0.137933282,0.113665025,1,0,0,28.6021,0,12,12,24,1,y,images/br_y.png,images/cb_y.png,,,,,,,,,,,,,,,,,,,,,,,,,
,,,,,,00081,2023-10-23_17h23.06.966,vbt_B1_day1,2022.2.4,MacIntel,59.99880002,,,,,,,,,,,,,,,,,,,0.137933282,0.113665025,1,0,0,17.2323,0,13,13,13,1,n,images/br_n.png,images/cb_n.png,,,,,,,,,,,,,,,,,,,,,,,,,
,,,,,,00081,2023-10-23_17h23.06.966,vbt_B1_day1,2022.2.4,MacIntel,59.99880002,,,,,,,,,,,,,,,,,,,0.137933282,0.113665025,1,0,0,10.8675,0,14,14,14,1,o,images/br_o.png,images/cb_o.png,,,,,,,,,,,,,,,,,,,,,,,,,
,,,,,,00081,2023-10-23_17h23.06.966,vbt_B1_day1,2022.2.4,MacIntel,59.99880002,,,,,,,,,,,,,,,,,,,0.137933282,0.113665025,1,0,0,17.5676,0,15,15,1,1,b,images/br_b.png,images/cb_b.png,,,,,,,,,,,,,,,,,,,,,,,,,
,,,,,,00081,2023-10-23_17h23.06.966,vbt_B1_day1,2022.2.4,MacIntel,59.99880002,,,,,,,,,,,,,,,,,,,0.137933282,0.113665025,1,0,0,10.6844,0,16,16,22,1,w,images/br_w.png,images/cb_w.png,,,,,,,,,,,,,,,,,,,,,,,,,
,,,,,,00081,2023-10-23_17h23.06.966,vbt_B1_day1,2022.2.4,MacIntel,59.99880002,,,,,,,,,,,,,,,,,,,0.035611844,-0.007299839,1,0,0,15.8339,0,17,17,10,1,k,images/br_k.png,images/cb_k.png,,,,,,,,,,,,,,,,,,,,,,,,,
,,,,,,00081,2023-10-23_17h23.06.966,vbt_B1_day1,2022.2.4,MacIntel,59.99880002,,,,,,,,,,,,,,,,,,,-0.01068556,-0.024736938,1,0,0,8.9677,0,18,18,15,1,p,images/br_p.png,images/cb_p.png,,,,,,,,,,,,,,,,,,,,,,,,,
,,,,,,00081,2023-10-23_17h23.06.966,vbt_B1_day1,2022.2.4,MacIntel,59.99880002,,,,,,,,,,,,,,,,,,,-0.104806451,0.043581713,1,0,0,8.8173,0,19,19,21,1,v,images/br_v.png,images/cb_v.png,,,,,,,,,,,,,,,,,,,,,,,,,
,,,,,,00081,2023-10-23_17h23.06.966,vbt_B1_day1,2022.2.4,MacIntel,59.99880002,,,,,,,,,,,,,,,,,,,-0.104806451,0.043581713,1,0,0,15.3507,0,20,20,6,1,g,images/br_g.png,images/cb_g.png,,,,,,,,,,,,,,,,,,,,,,,,,
,,,,,,00081,2023-10-23_17h23.06.966,vbt_B1_day1,2022.2.4,MacIntel,59.99880002,,,,,,,,,,,,,,,,,,,-0.104806451,0.043581713,1,0,0,4.8202,0,21,21,9,1,j,images/br_j.png,images/cb_j.png,,,,,,,,,,,,,,,,,,,,,,,,,
,,,,,,00081,2023-10-23_17h23.06.966,vbt_B1_day1,2022.2.4,MacIntel,59.99880002,,,,,,,,,,,,,,,,,,,-0.104806451,0.043581713,1,0,0,13.4344,0,22,22,8,1,i,images/br_i.png,images/cb_i.png,,,,,,,,,,,,,,,,,,,,,,,,,
,,,,,,00081,2023-10-23_17h23.06.966,vbt_B1_day1,2022.2.4,MacIntel,59.99880002,,,,,,,,,,,,,,,,,,,0.059167345,0.015590244,1,0,0,23.2706,0,23,23,16,1,q,images/br_q.png,images/cb_q.png,,,,,,,,,,,,,,,,,,,,,,,,,
,,,,,,00081,2023-10-23_17h23.06.966,vbt_B1_day1,2022.2.4,MacIntel,59.99880002,,,,,,,,,,,,,,,,,,,0.084813368,-0.091342095,1,0,0,9.7814,0,24,24,25,1,z,images/br_z.png,images/cb_z.png,,,,,,,,,,,,,,,,,,,,,,,,,
,,,,,,00081,2023-10-23_17h23.06.966,vbt_B1_day1,2022.2.4,MacIntel,59.99880002,,,,,,,,,,,,,,,,,,,-0.026120673,0.009483812,1,0,0,11.5009,0,25,25,20,1,u,images/br_u.png,images/cb_u.png,,,,,,,,,,,,,,,,,,,,,,,,,
,,,,,,00081,2023-10-23_17h23.06.966,vbt_B1_day1,2022.2.4,MacIntel,59.99880002,,,,,,,,,,,,,,,,,,,0.11505127,0.092242296,1,0,0,10.3672,1,0,26,5,1,f,images/br_f.png,images/cb_f.png,,,,,,,,,,,,,,,,,,,,,,,,,
,,,,,,00081,2023-10-23_17h23.06.966,vbt_B1_day1,2022.2.4,MacIntel,59.99880002,,,,,,,,,,,,,,,,,,,0.176715495,-0.110333252,1,0,0,8.4344,1,1,27,18,1,s,images/br_s.png,images/cb_s.png,,,,,,,,,,,,,,,,,,,,,,,,,
,,,,,,00081,2023-10-23_17h23.06.966,vbt_B1_day1,2022.2.4,MacIntel,59.99880002,,,,,,,,,,,,,,,,,,,0.176715495,-0.110333252,1,0,0,11.0501,1,2,28,13,1,n,images/br_n.png,images/cb_n.png,,,,,,,,,,,,,,,,,,,,,,,,,
,,,,,,00081,2023-10-23_17h23.06.966,vbt_B1_day1,2022.2.4,MacIntel,59.99880002,,,,,,,,,,,,,,,,,,,0.176715495,-0.110333252,1,0,0,4.0487,1,3,29,22,1,w,images/br_w.png,images/cb_w.png,,,,,,,,,,,,,,,,,,,,,,,,,
,,,,,,00081,2023-10-23_17h23.06.966,vbt_B1_day1,2022.2.4,MacIntel,59.99880002,,,,,,,,,,,,,,,,,,,0.158396674,-0.064541558,1,0,0,5.5339,1,4,30,23,1,x,images/br_x.png,images/cb_x.png,,,,,,,,,,,,,,,,,,,,,,,,,
,,,,,,00081,2023-10-23_17h23.06.966,vbt_B1_day1,2022.2.4,MacIntel,59.99880002,,,,,,,,,,,,,,,,,,,-0.012334595,0.021444567,1,0,0,13.0002,1,5,31,4,1,e,images/br_e.png,images/cb_e.png,,,,,,,,,,,,,,,,,,,,,,,,,
,,,,,,00081,2023-10-23_17h23.06.966,vbt_B1_day1,2022.2.4,MacIntel,59.99880002,,,,,,,,,,,,,,,,,,,0.12269694,-0.100102539,1,0,0,5.7479,1,6,32,24,1,y,images/br_y.png,images/cb_y.png,,,,,,,,,,,,,,,,,,,,,,,,,
,,,,,,00081,2023-10-23_17h23.06.966,vbt_B1_day1,2022.2.4,MacIntel,59.99880002,,,,,,,,,,,,,,,,,,,-0.026123861,0.041626044,1,0,0,2.5167,1,7,33,20,1,u,images/br_u.png,images/cb_u.png,,,,,,,,,,,,,,,,,,,,,,,,,
,,,,,,00081,2023-10-23_17h23.06.966,vbt_B1_day1,2022.2.4,MacIntel,59.99880002,,,,,,,,,,,,,,,,,,,0.034954631,-0.078011136,1,0,0,2.0189,1,8,34,6,1,g,images/br_g.png,images/cb_g.png,,,,,,,,,,,,,,,,,,,,,,,,,
,,,,,,00081,2023-10-23_17h23.06.966,vbt_B1_day1,2022.2.4,MacIntel,59.99880002,,,,,,,,,,,,,,,,,,,-0.003630507,-0.150307685,1,0,0,14.5173,1,9,35,1,1,b,images/br_b.png,images/cb_b.png,,,,,,,,,,,,,,,,,,,,,,,,,
,,,,,,00081,2023-10-23_17h23.06.966,vbt_B1_day1,2022.2.4,MacIntel,59.99880002,,,,,,,,,,,,,,,,,,,0.104738159,-0.088128866,1,0,0,1.4027,1,10,36,11,1,l,images/br_l.png,images/cb_l.png,,,,,,,,,,,,,,,,,,,,,,,,,
,,,,,,00081,2023-10-23_17h23.06.966,vbt_B1_day1,2022.2.4,MacIntel,59.99880002,,,,,,,,,,,,,,,,,,,0.104738159,-0.088128866,1,0,0,15.8017,1,11,37,8,1,i,images/br_i.png,images/cb_i.png,,,,,,,,,,,,,,,,,,,,,,,,,
,,,,,,00081,2023-10-23_17h23.06.966,vbt_B1_day1,2022.2.4,MacIntel,59.99880002,,,,,,,,,,,,,,,,,,,0.207214762,0.011500007,1,0,0,1.4678,1,12,38,21,1,v,images/br_v.png,images/cb_v.png,,,,,,,,,,,,,,,,,,,,,,,,,
,,,,,,00081,2023-10-23_17h23.06.966,vbt_B1_day1,2022.2.4,MacIntel,59.99880002,,,,,,,,,,,,,,,,,,,-0.010150553,-0.124657322,1,0,0,0.9497,1,13,39,10,1,k,images/br_k.png,images/cb_k.png,,,,,,,,,,,,,,,,,,,,,,,,,
,,,,,,00081,2023-10-23_17h23.06.966,vbt_B1_day1,2022.2.4,MacIntel,59.99880002,,,,,,,,,,,,,,,,,,,0.023639594,-0.008865763,1,0,0,15.7681,1,14,40,15,1,p,images/br_p.png,images/cb_p.png,,,,,,,,,,,,,,,,,,,,,,,,,
,,,,,,00081,2023-10-23_17h23.06.966,vbt_B1_day1,2022.2.4,MacIntel,59.99880002,,,,,,,,,,,,,,,,,,,0.025174696,0.007056715,1,0,0,37.9003,1,15,41,7,1,h,images/br_h.png,images/cb_h.png,,,,,,,,,,,,,,,,,,,,,,,,,
,,,,,,00081,2023-10-23_17h23.06.966,vbt_B1_day1,2022.2.4,MacIntel,59.99880002,,,,,,,,,,,,,,,,,,,0.065427924,-0.080004205,1,0,0,1.5838,1,16,42,17,1,r,images/br_r.png,images/cb_r.png,,,,,,,,,,,,,,,,,,,,,,,,,
,,,,,,00081,2023-10-23_17h23.06.966,vbt_B1_day1,2022.2.4,MacIntel,59.99880002,,,,,,,,,,,,,,,,,,,0.065427924,-0.080004205,1,0,0,1.6352,1,17,43,16,1,q,images/br_q.png,images/cb_q.png,,,,,,,,,,,,,,,,,,,,,,,,,
,,,,,,00081,2023-10-23_17h23.06.966,vbt_B1_day1,2022.2.4,MacIntel,59.99880002,,,,,,,,,,,,,,,,,,,0.065427924,-0.080004205,1,0,0,3.7503,1,18,44,25,1,z,images/br_z.png,images/cb_z.png,,,,,,,,,,,,,,,,,,,,,,,,,
,,,,,,00081,2023-10-23_17h23.06.966,vbt_B1_day1,2022.2.4,MacIntel,59.99880002,,,,,,,,,,,,,,,,,,,0.065427924,-0.080004205,1,0,0,15.1844,1,19,45,9,1,j,images/br_j.png,images/cb_j.png,,,,,,,,,,,,,,,,,,,,,,,,,
,,,,,,00081,2023-10-23_17h23.06.966,vbt_B1_day1,2022.2.4,MacIntel,59.99880002,,,,,,,,,,,,,,,,,,,0.065427924,-0.080004205,1,0,0,23.7535,1,20,46,12,1,m,images/br_m.png,images/cb_m.png,,,,,,,,,,,,,,,,,,,,,,,,,
,,,,,,00081,2023-10-23_17h23.06.966,vbt_B1_day1,2022.2.4,MacIntel,59.99880002,,,,,,,,,,,,,,,,,,,0.065427924,-0.080004205,1,0,0,6.534,1,21,47,2,1,c,images/br_c.png,images/cb_c.png,,,,,,,,,,,,,,,,,,,,,,,,,
,,,,,,00081,2023-10-23_17h23.06.966,vbt_B1_day1,2022.2.4,MacIntel,59.99880002,,,,,,,,,,,,,,,,,,,0.065427924,-0.080004205,1,0,0,30.5022,1,22,48,0,1,a,images/br_a.png,images/cb_a.png,,,,,,,,,,,,,,,,,,,,,,,,,
,,,,,,00081,2023-10-23_17h23.06.966,vbt_B1_day1,2022.2.4,MacIntel,59.99880002,,,,,,,,,,,,,,,,,,,0.065427924,-0.080004205,1,0,0,7.4814,1,23,49,19,1,t,images/br_t.png,images/cb_t.png,,,,,,,,,,,,,,,,,,,,,,,,,
,,,,,,00081,2023-10-23_17h23.06.966,vbt_B1_day1,2022.2.4,MacIntel,59.99880002,,,,,,,,,,,,,,,,,,,-0.077751465,-0.007087131,1,0,0,20.9994,1,24,50,14,1,o,images/br_o.png,images/cb_o.png,,,,,,,,,,,,,,,,,,,,,,,,,
,,,,,,00081,2023-10-23_17h23.06.966,vbt_B1_day1,2022.2.4,MacIntel,59.99880002,,,,,,,,,,,,,,,,,,,0.023128323,-0.122506171,1,0,0,11.5494,1,25,51,3,1,d,images/br_d.png,images/cb_d.png,,,,,,,,,,,,,,,,,,,,,,,,,
,,,,,,00081,2023-10-23_17h23.06.966,vbt_B1_day1,2022.2.4,MacIntel,59.99880002,,,,,,,,,,,,,,,,,,,0.025713365,0.042892626,1,0,0,1.9992,2,0,52,10,1,k,images/br_k.png,images/cb_k.png,,,,,,,,,,,,,,,,,,,,,,,,,
,,,,,,00081,2023-10-23_17h23.06.966,vbt_B1_day1,2022.2.4,MacIntel,59.99880002,,,,,,,,,,,,,,,,,,,0.086010335,0.009640028,1,0,0,1.3841,2,1,53,6,1,g,images/br_g.png,images/cb_g.png,,,,,,,,,,,,,,,,,,,,,,,,,
,,,,,,00081,2023-10-23_17h23.06.966,vbt_B1_day1,2022.2.4,MacIntel,59.99880002,,,,,,,,,,,,,,,,,,,0.086010335,0.009640028,1,0,0,1.0329,2,2,54,11,1,l,images/br_l.png,images/cb_l.png,,,,,,,,,,,,,,,,,,,,,,,,,
,,,,,,00081,2023-10-23_17h23.06.966,vbt_B1_day1,2022.2.4,MacIntel,59.99880002,,,,,,,,,,,,,,,,,,,0.086010335,0.009640028,1,0,0,3.4989,2,3,55,22,1,w,images/br_w.png,images/cb_w.png,,,,,,,,,,,,,,,,,,,,,,,,,
,,,,,,00081,2023-10-23_17h23.06.966,vbt_B1_day1,2022.2.4,MacIntel,59.99880002,,,,,,,,,,,,,,,,,,,0.134348212,-0.119836222,1,0,0,7.5359,2,4,56,13,1,n,images/br_n.png,images/cb_n.png,,,,,,,,,,,,,,,,,,,,,,,,,
,,,,,,00081,2023-10-23_17h23.06.966,vbt_B1_day1,2022.2.4,MacIntel,59.99880002,,,,,,,,,,,,,,,,,,,0.110633477,-0.07661967,1,0,0,3.7854,2,5,57,7,1,h,images/br_h.png,images/cb_h.png,,,,,,,,,,,,,,,,,,,,,,,,,
,,,,,,00081,2023-10-23_17h23.06.966,vbt_B1_day1,2022.2.4,MacIntel,59.99880002,,,,,,,,,,,,,,,,,,,0.138368259,-0.23434984,1,0,0,5.048,2,6,58,4,1,e,images/br_e.png,images/cb_e.png,,,,,,,,,,,,,,,,,,,,,,,,,
,,,,,,00081,2023-10-23_17h23.06.966,vbt_B1_day1,2022.2.4,MacIntel,59.99880002,,,,,,,,,,,,,,,,,,,0.175229899,0.063256632,1,0,0,1.8174,2,7,59,16,1,q,images/br_q.png,images/cb_q.png,,,,,,,,,,,,,,,,,,,,,,,,,
,,,,,,00081,2023-10-23_17h23.06.966,vbt_B1_day1,2022.2.4,MacIntel,59.99880002,,,,,,,,,,,,,,,,,,,0.141943088,-0.002375624,1,0,0,2.4506,2,8,60,20,1,u,images/br_u.png,images/cb_u.png,,,,,,,,,,,,,,,,,,,,,,,,,
,,,,,,00081,2023-10-23_17h23.06.966,vbt_B1_day1,2022.2.4,MacIntel,59.99880002,,,,,,,,,,,,,,,,,,,0.135027669,0.028294576,1,0,0,2.5505,2,9,61,8,1,i,images/br_i.png,images/cb_i.png,,,,,,,,,,,,,,,,,,,,,,,,,
,,,,,,00081,2023-10-23_17h23.06.966,vbt_B1_day1,2022.2.4,MacIntel,59.99880002,,,,,,,,,,,,,,,,,,,0.174727376,-0.052336528,1,0,0,3.1484,2,10,62,24,1,y,images/br_y.png,images/cb_y.png,,,,,,,,,,,,,,,,,,,,,,,,,
,,,,,,00081,2023-10-23_17h23.06.966,vbt_B1_day1,2022.2.4,MacIntel,59.99880002,,,,,,,,,,,,,,,,,,,0.168449097,0.061733636,1,0,0,2.2523,2,11,63,23,1,x,images/br_x.png,images/cb_x.png,,,,,,,,,,,,,,,,,,,,,,,,,
,,,,,,00081,2023-10-23_17h23.06.966,vbt_B1_day1,2022.2.4,MacIntel,59.99880002,,,,,,,,,,,,,,,,,,,0.080052083,-0.042907138,1,0,0,8.2344,2,12,64,19,1,t,images/br_t.png,images/cb_t.png,,,,,,,,,,,,,,,,,,,,,,,,,
,,,,,,00081,2023-10-23_17h23.06.966,vbt_B1_day1,2022.2.4,MacIntel,59.99880002,,,,,,,,,,,,,,,,,,,0.239294773,-0.002882012,1,0,0,0.0481,2,13,65,5,1,f,images/br_f.png,images/cb_f.png,,,,,,,,,,,,,,,,,,,,,,,,,
,,,,,,00081,2023-10-23_17h23.06.966,vbt_B1_day1,2022.2.4,MacIntel,59.99880002,,,,,,,,,,,,,,,,,,,0.139801975,0.055651957,1,0,0,0.6172,2,14,66,15,1,p,images/br_p.png,images/cb_p.png,,,,,,,,,,,,,,,,,,,,,,,,,
,,,,,,00081,2023-10-23_17h23.06.966,vbt_B1_day1,2022.2.4,MacIntel,59.99880002,,,,,,,,,,,,,,,,,,,0.051872287,0.000941976,1,0,0,1.4322,2,15,67,14,1,o,images/br_o.png,images/cb_o.png,,,,,,,,,,,,,,,,,,,,,,,,,
,,,,,,00081,2023-10-23_17h23.06.966,vbt_B1_day1,2022.2.4,MacIntel,59.99880002,,,,,,,,,,,,,,,,,,,0.148365343,-0.018148295,1,0,0,0.4166,2,16,68,3,1,d,images/br_d.png,images/cb_d.png,,,,,,,,,,,,,,,,,,,,,,,,,
,,,,,,00081,2023-10-23_17h23.06.966,vbt_B1_day1,2022.2.4,MacIntel,59.99880002,,,,,,,,,,,,,,,,,,,0.12159885,0.011550429,1,0,0,1.3522,2,17,69,25,1,z,images/br_z.png,images/cb_z.png,,,,,,,,,,,,,,,,,,,,,,,,,
,,,,,,00081,2023-10-23_17h23.06.966,vbt_B1_day1,2022.2.4,MacIntel,59.99880002,,,,,,,,,,,,,,,,,,,0.221106228,0.042924873,1,0,0,0.932,2,18,70,21,1,v,images/br_v.png,images/cb_v.png,,,,,,,,,,,,,,,,,,,,,,,,,
,,,,,,00081,2023-10-23_17h23.06.966,vbt_B1_day1,2022.2.4,MacIntel,59.99880002,,,,,,,,,,,,,,,,,,,0.147449205,-0.017120192,1,0,0,0.6315,2,19,71,0,1,a,images/br_a.png,images/cb_a.png,,,,,,,,,,,,,,,,,,,,,,,,,
,,,,,,00081,2023-10-23_17h23.06.966,vbt_B1_day1,2022.2.4,MacIntel,59.99880002,,,,,,,,,,,,,,,,,,,0.173049316,0.047365587,1,0,0,12.9359,2,20,72,18,1,s,images/br_s.png,images/cb_s.png,,,,,,,,,,,,,,,,,,,,,,,,,
,,,,,,00081,2023-10-23_17h23.06.966,vbt_B1_day1,2022.2.4,MacIntel,59.99880002,,,,,,,,,,,,,,,,,,,0.163376465,0.047365587,1,0,0,9.1009,2,21,73,1,1,b,images/br_b.png,images/cb_b.png,,,,,,,,,,,,,,,,,,,,,,,,,
,,,,,,00081,2023-10-23_17h23.06.966,vbt_B1_day1,2022.2.4,MacIntel,59.99880002,,,,,,,,,,,,,,,,,,,0.082634006,0.003000861,1,0,0,8.1357,2,22,74,9,1,j,images/br_j.png,images/cb_j.png,,,,,,,,,,,,,,,,,,,,,,,,,
,,,,,,00081,2023-10-23_17h23.06.966,vbt_B1_day1,2022.2.4,MacIntel,59.99880002,,,,,,,,,,,,,,,,,,,0.067231174,0.077151998,1,0,0,3.2836,2,23,75,2,1,c,images/br_c.png,images/cb_c.png,,,,,,,,,,,,,,,,,,,,,,,,,
,,,,,,00081,2023-10-23_17h23.06.966,vbt_B1_day1,2022.2.4,MacIntel,59.99880002,,,,,,,,,,,,,,,,,,,0.189748128,0.07675588,1,0,0,0.467,2,24,76,17,1,r,images/br_r.png,images/cb_r.png,,,,,,,,,,,,,,,,,,,,,,,,,
,,,,,,00081,2023-10-23_17h23.06.966,vbt_B1_day1,2022.2.4,MacIntel,59.99880002,,,,,,,,,,,,,,,,,,,0.175403103,0.029400703,1,0,0,9.8678,2,25,77,12,1,m,images/br_m.png,images/cb_m.png,,,,,,,,,,,,,,,,,,,,,,,,,
,,,,,,00081,2023-10-23_17h23.06.966,vbt_B1_day1,2022.2.4,MacIntel,59.99880002,,,,,,,,,,,,,,,,,,,0.137141995,0.183946296,1,0,0,16.3153,3,0,78,7,1,h,images/br_h.png,images/cb_h.png,,,,,,,,,,,,,,,,,,,,,,,,,
,,,,,,00081,2023-10-23_17h23.06.966,vbt_B1_day1,2022.2.4,MacIntel,59.99880002,,,,,,,,,,,,,,,,,,,0.062954915,0.025060357,1,0,0,24.2022,3,1,79,8,1,i,images/br_i.png,images/cb_i.png,,,,,,,,,,,,,,,,,,,,,,,,,
,,,,,,00081,2023-10-23_17h23.06.966,vbt_B1_day1,2022.2.4,MacIntel,59.99880002,,,,,,,,,,,,,,,,,,,0.131553277,0.016339179,1,0,0,9.7989,3,2,80,14,1,o,images/br_o.png,images/cb_o.png,,,,,,,,,,,,,,,,,,,,,,,,,
,,,,,,00081,2023-10-23_17h23.06.966,vbt_B1_day1,2022.2.4,MacIntel,59.99880002,,,,,,,,,,,,,,,,,,,0.130063748,-0.012733256,1,0,0,5.3316,3,3,81,20,1,u,images/br_u.png,images/cb_u.png,,,,,,,,,,,,,,,,,,,,,,,,,
,,,,,,00081,2023-10-23_17h23.06.966,vbt_B1_day1,2022.2.4,MacIntel,59.99880002,,,,,,,,,,,,,,,,,,,0.252934163,0.007917447,1,0,0,0.9143,3,4,82,1,1,b,images/br_b.png,images/cb_b.png,,,,,,,,,,,,,,,,,,,,,,,,,
,,,,,,00081,2023-10-23_17h23.06.966,vbt_B1_day1,2022.2.4,MacIntel,59.99880002,,,,,,,,,,,,,,,,,,,0.121754625,0.066264106,1,0,0,2.3842,3,5,83,25,1,z,images/br_z.png,images/cb_z.png,,,,,,,,,,,,,,,,,,,,,,,,,
,,,,,,00081,2023-10-23_17h23.06.966,vbt_B1_day1,2022.2.4,MacIntel,59.99880002,,,,,,,,,,,,,,,,,,,0.248714871,-0.039434814,1,0,0,0.9832,3,6,84,21,1,v,images/br_v.png,images/cb_v.png,,,,,,,,,,,,,,,,,,,,,,,,,
,,,,,,00081,2023-10-23_17h23.06.966,vbt_B1_day1,2022.2.4,MacIntel,59.99880002,,,,,,,,,,,,,,,,,,,0.247497084,-0.045186835,1,0,0,0.9167,3,7,85,6,1,g,images/br_g.png,images/cb_g.png,,,,,,,,,,,,,,,,,,,,,,,,,
,,,,,,00081,2023-10-23_17h23.06.966,vbt_B1_day1,2022.2.4,MacIntel,59.99880002,,,,,,,,,,,,,,,,,,,0.247497084,-0.045186835,1,0,0,3.8832,3,8,86,3,1,d,images/br_d.png,images/cb_d.png,,,,,,,,,,,,,,,,,,,,,,,,,
,,,,,,00081,2023-10-23_17h23.06.966,vbt_B1_day1,2022.2.4,MacIntel,59.99880002,,,,,,,,,,,,,,,,,,,0.247497084,-0.045186835,1,0,0,0.0643,3,9,87,2,1,c,images/br_c.png,images/cb_c.png,,,,,,,,,,,,,,,,,,,,,,,,,
,,,,,,00081,2023-10-23_17h23.06.966,vbt_B1_day1,2022.2.4,MacIntel,59.99880002,,,,,,,,,,,,,,,,,,,0.247497084,-0.045186835,1,0,0,6.9989,3,10,88,12,1,m,images/br_m.png,images/cb_m.png,,,,,,,,,,,,,,,,,,,,,,,,,
,,,,,,00081,2023-10-23_17h23.06.966,vbt_B1_day1,2022.2.4,MacIntel,59.99880002,,,,,,,,,,,,,,,,,,,0.247497084,-0.045186835,1,0,0,1.0186,3,11,89,11,1,l,images/br_l.png,images/cb_l.png,,,,,,,,,,,,,,,,,,,,,,,,,
,,,,,,00081,2023-10-23_17h23.06.966,vbt_B1_day1,2022.2.4,MacIntel,59.99880002,,,,,,,,,,,,,,,,,,,0.247497084,-0.045186835,1,0,0,1.3838,3,12,90,18,1,s,images/br_s.png,images/cb_s.png,,,,,,,,,,,,,,,,,,,,,,,,,
,,,,,,00081,2023-10-23_17h23.06.966,vbt_B1_day1,2022.2.4,MacIntel,59.99880002,,,,,,,,,,,,,,,,,,,0.247497084,-0.045186835,1,0,0,4.6851,3,13,91,13,1,n,images/br_n.png,images/cb_n.png,,,,,,,,,,,,,,,,,,,,,,,,,
,,,,,,00081,2023-10-23_17h23.06.966,vbt_B1_day1,2022.2.4,MacIntel,59.99880002,,,,,,,,,,,,,,,,,,,0.247497084,-0.045186835,1,0,0,10.4856,3,14,92,9,1,j,images/br_j.png,images/cb_j.png,,,,,,,,,,,,,,,,,,,,,,,,,
,,,,,,00081,2023-10-23_17h23.06.966,vbt_B1_day1,2022.2.4,MacIntel,59.99880002,,,,,,,,,,,,,,,,,,,0.126784193,-0.100610691,1,0,0,1.2017,3,15,93,5,1,f,images/br_f.png,images/cb_f.png,,,,,,,,,,,,,,,,,,,,,,,,,
,,,,,,00081,2023-10-23_17h23.06.966,vbt_B1_day1,2022.2.4,MacIntel,59.99880002,,,,,,,,,,,,,,,,,,,0.205310872,-0.057243415,1,0,0,0.1322,3,16,94,17,1,r,images/br_r.png,images/cb_r.png,,,,,,,,,,,,,,,,,,,,,,,,,
,,,,,,00081,2023-10-23_17h23.06.966,vbt_B1_day1,2022.2.4,MacIntel,59.99880002,,,,,,,,,,,,,,,,,,,0.067765028,0.077399665,1,0,0,0.632,3,17,95,10,1,k,images/br_k.png,images/cb_k.png,,,,,,,,,,,,,,,,,,,,,,,,,
,,,,,,00081,2023-10-23_17h23.06.966,vbt_B1_day1,2022.2.4,MacIntel,59.99880002,,,,,,,,,,,,,,,,,,,0.101169501,0.017570597,1,0,0,0.5841,3,18,96,23,1,x,images/br_x.png,images/cb_x.png,,,,,,,,,,,,,,,,,,,,,,,,,
,,,,,,00081,2023-10-23_17h23.06.966,vbt_B1_day1,2022.2.4,MacIntel,59.99880002,,,,,,,,,,,,,,,,,,,0.101169501,0.017570597,1,0,0,1.9328,3,19,97,4,1,e,images/br_e.png,images/cb_e.png,,,,,,,,,,,,,,,,,,,,,,,,,
,,,,,,00081,2023-10-23_17h23.06.966,vbt_B1_day1,2022.2.4,MacIntel,59.99880002,,,,,,,,,,,,,,,,,,,0.152476942,0.004538608,1,0,0,0.6008,3,20,98,15,1,p,images/br_p.png,images/cb_p.png,,,,,,,,,,,,,,,,,,,,,,,,,
,,,,,,00081,2023-10-23_17h23.06.966,vbt_B1_day1,2022.2.4,MacIntel,59.99880002,,,,,,,,,,,,,,,,,,,0.153390299,-0.011095683,1,0,0,4.5856,3,21,99,24,1,y,images/br_y.png,images/cb_y.png,,,,,,,,,,,,,,,,,,,,,,,,,
,,,,,,00081,2023-10-23_17h23.06.966,vbt_B1_day1,2022.2.4,MacIntel,59.99880002,,,,,,,,,,,,,,,,,,,0.17053989,-0.189215427,1,0,0,2.168,3,22,100,22,1,w,images/br_w.png,images/cb_w.png,,,,,,,,,,,,,,,,,,,,,,,,,
,,,,,,00081,2023-10-23_17h23.06.966,vbt_B1_day1,2022.2.4,MacIntel,59.99880002,,,,,,,,,,,,,,,,,,,0.193045519,-0.221699219,1,0,0,0.7656,3,23,101,19,1,t,images/br_t.png,images/cb_t.png,,,,,,,,,,,,,,,,,,,,,,,,,
,,,,,,00081,2023-10-23_17h23.06.966,vbt_B1_day1,2022.2.4,MacIntel,59.99880002,,,,,,,,,,,,,,,,,,,0.141367052,-0.019076775,1,0,0,1.1153,3,24,102,16,1,q,images/br_q.png,images/cb_q.png,,,,,,,,,,,,,,,,,,,,,,,,,
,,,,,,00081,2023-10-23_17h23.06.966,vbt_B1_day1,2022.2.4,MacIntel,59.99880002,,,,,,,,,,,,,,,,,,,0.085130615,0.066386312,1,0,0,1.382,3,25,103,0,1,a,images/br_a.png,images/cb_a.png,,,,,,,,,,,,,,,,,,,,,,,,,
,,,,,,00081,2023-10-23_17h23.06.966,vbt_B1_day1,2022.2.4,MacIntel,59.99880002,,,,,,,,,,,,,,,,,,,0.094629856,0.045496623,1,0,0,0.283,4,0,104,24,1,y,images/br_y.png,images/cb_y.png,,,,,,,,,,,,,,,,,,,,,,,,,
,,,,,,00081,2023-10-23_17h23.06.966,vbt_B1_day1,2022.2.4,MacIntel,59.99880002,,,,,,,,,,,,,,,,,,,0.001425103,-0.009476013,1,0,0,0.3823,4,1,105,19,1,t,images/br_t.png,images/cb_t.png,,,,,,,,,,,,,,,,,,,,,,,,,
,,,,,,00081,2023-10-23_17h23.06.966,vbt_B1_day1,2022.2.4,MacIntel,59.99880002,,,,,,,,,,,,,,,,,,,0.146181098,-0.003712667,1,0,0,2.8997,4,2,106,13,1,n,images/br_n.png,images/cb_n.png,,,,,,,,,,,,,,,,,,,,,,,,,
,,,,,,00081,2023-10-23_17h23.06.966,vbt_B1_day1,2022.2.4,MacIntel,59.99880002,,,,,,,,,,,,,,,,,,,0.113291762,0.101994392,1,0,0,0.6167,4,3,107,17,1,r,images/br_r.png,images/cb_r.png,,,,,,,,,,,,,,,,,,,,,,,,,
,,,,,,00081,2023-10-23_17h23.06.966,vbt_B1_day1,2022.2.4,MacIntel,59.99880002,,,,,,,,,,,,,,,,,,,0.113291762,0.101994392,1,0,0,0.1997,4,4,108,14,1,o,images/br_o.png,images/cb_o.png,,,,,,,,,,,,,,,,,,,,,,,,,
,,,,,,00081,2023-10-23_17h23.06.966,vbt_B1_day1,2022.2.4,MacIntel,59.99880002,,,,,,,,,,,,,,,,,,,0.113291762,0.101994392,1,0,0,24.467,4,5,109,2,1,c,images/br_c.png,images/cb_c.png,,,,,,,,,,,,,,,,,,,,,,,,,
,,,,,,00081,2023-10-23_17h23.06.966,vbt_B1_day1,2022.2.4,MacIntel,59.99880002,,,,,,,,,,,,,,,,,,,0.113291762,0.101994392,1,0,0,1.0677,4,6,110,15,1,p,images/br_p.png,images/cb_p.png,,,,,,,,,,,,,,,,,,,,,,,,,
,,,,,,00081,2023-10-23_17h23.06.966,vbt_B1_day1,2022.2.4,MacIntel,59.99880002,,,,,,,,,,,,,,,,,,,0.113291762,0.101994392,1,0,0,0.2479,4,7,111,22,1,w,images/br_w.png,images/cb_w.png,,,,,,,,,,,,,,,,,,,,,,,,,
,,,,,,00081,2023-10-23_17h23.06.966,vbt_B1_day1,2022.2.4,MacIntel,59.99880002,,,,,,,,,,,,,,,,,,,-0.067776421,-0.073956367,1,0,0,0.268,4,8,112,23,1,x,images/br_x.png,images/cb_x.png,,,,,,,,,,,,,,,,,,,,,,,,,
,,,,,,00081,2023-10-23_17h23.06.966,vbt_B1_day1,2022.2.4,MacIntel,59.99880002,,,,,,,,,,,,,,,,,,,0.073595581,-0.063464864,1,0,0,0.0167,4,9,113,20,1,u,images/br_u.png,images/cb_u.png,,,,,,,,,,,,,,,,,,,,,,,,,
,,,,,,00081,2023-10-23_17h23.06.966,vbt_B1_day1,2022.2.4,MacIntel,59.99880002,,,,,,,,,,,,,,,,,,,-0.014045003,-0.081972995,1,0,0,1.3003,4,10,114,21,1,v,images/br_v.png,images/cb_v.png,,,,,,,,,,,,,,,,,,,,,,,,,
,,,,,,00081,2023-10-23_17h23.06.966,vbt_B1_day1,2022.2.4,MacIntel,59.99880002,,,,,,,,,,,,,,,,,,,0.083290812,-0.053007236,1,0,0,1.5164,4,11,115,7,1,h,images/br_h.png,images/cb_h.png,,,,,,,,,,,,,,,,,,,,,,,,,
,,,,,,00081,2023-10-23_17h23.06.966,vbt_B1_day1,2022.2.4,MacIntel,59.99880002,,,,,,,,,,,,,,,,,,,0.083290812,-0.053007236,1,0,0,0.3516,4,12,116,3,1,d,images/br_d.png,images/cb_d.png,,,,,,,,,,,,,,,,,,,,,,,,,
,,,,,,00081,2023-10-23_17h23.06.966,vbt_B1_day1,2022.2.4,MacIntel,59.99880002,,,,,,,,,,,,,,,,,,,-0.06506585,-0.025551453,1,0,0,0.7339,4,13,117,5,1,f,images/br_f.png,images/cb_f.png,,,,,,,,,,,,,,,,,,,,,,,,,
,,,,,,00081,2023-10-23_17h23.06.966,vbt_B1_day1,2022.2.4,MacIntel,59.99880002,,,,,,,,,,,,,,,,,,,-0.06506585,-0.025551453,1,0,0,3.0001,4,14,118,4,1,e,images/br_e.png,images/cb_e.png,,,,,,,,,,,,,,,,,,,,,,,,,
,,,,,,00081,2023-10-23_17h23.06.966,vbt_B1_day1,2022.2.4,MacIntel,59.99880002,,,,,,,,,,,,,,,,,,,0.083506538,-0.077655504,1,0,0,0.7488,4,15,119,1,1,b,images/br_b.png,images/cb_b.png,,,,,,,,,,,,,,,,,,,,,,,,,
,,,,,,00081,2023-10-23_17h23.06.966,vbt_B1_day1,2022.2.4,MacIntel,59.99880002,,,,,,,,,,,,,,,,,,,0.010373874,-0.025950589,1,0,0,1.1026,4,16,120,12,1,m,images/br_m.png,images/cb_m.png,,,,,,,,,,,,,,,,,,,,,,,,,
,,,,,,00081,2023-10-23_17h23.06.966,vbt_B1_day1,2022.2.4,MacIntel,59.99880002,,,,,,,,,,,,,,,,,,,0.032642144,-0.200900947,1,0,0,0.3833,4,17,121,6,1,g,images/br_g.png,images/cb_g.png,,,,,,,,,,,,,,,,,,,,,,,,,
,,,,,,00081,2023-10-23_17h23.06.966,vbt_B1_day1,2022.2.4,MacIntel,59.99880002,,,,,,,,,,,,,,,,,,,0.113837077,-0.106511366,1,0,0,7.7821,4,18,122,8,1,i,images/br_i.png,images/cb_i.png,,,,,,,,,,,,,,,,,,,,,,,,,
,,,,,,00081,2023-10-23_17h23.06.966,vbt_B1_day1,2022.2.4,MacIntel,59.99880002,,,,,,,,,,,,,,,,,,,0.113837077,-0.106511366,1,0,0,1.5001,4,19,123,10,1,k,images/br_k.png,images/cb_k.png,,,,,,,,,,,,,,,,,,,,,,,,,
,,,,,,00081,2023-10-23_17h23.06.966,vbt_B1_day1,2022.2.4,MacIntel,59.99880002,,,,,,,,,,,,,,,,,,,0.113837077,-0.106511366,1,0,0,0.702,4,20,124,16,1,q,images/br_q.png,images/cb_q.png,,,,,,,,,,,,,,,,,,,,,,,,,
,,,,,,00081,2023-10-23_17h23.06.966,vbt_B1_day1,2022.2.4,MacIntel,59.99880002,,,,,,,,,,,,,,,,,,,-0.076962755,-0.144216512,1,0,0,0.431,4,21,125,0,1,a,images/br_a.png,images/cb_a.png,,,,,,,,,,,,,,,,,,,,,,,,,
,,,,,,00081,2023-10-23_17h23.06.966,vbt_B1_day1,2022.2.4,MacIntel,59.99880002,,,,,,,,,,,,,,,,,,,-0.076962755,-0.14494378,1,0,0,1.2828,4,22,126,25,1,z,images/br_z.png,images/cb_z.png,,,,,,,,,,,,,,,,,,,,,,,,,
,,,,,,00081,2023-10-23_17h23.06.966,vbt_B1_day1,2022.2.4,MacIntel,59.99880002,,,,,,,,,,,,,,,,,,,-0.076962755,-0.14494378,1,0,0,10.2665,4,23,127,9,1,j,images/br_j.png,images/cb_j.png,,,,,,,,,,,,,,,,,,,,,,,,,
,,,,,,00081,2023-10-23_17h23.06.966,vbt_B1_day1,2022.2.4,MacIntel,59.99880002,,,,,,,,,,,,,,,,,,,-0.056426527,0.062789408,1,0,0,8.8982,4,24,128,18,1,s,images/br_s.png,images/cb_s.png,,,,,,,,,,,,,,,,,,,,,,,,,
,,,,,,00081,2023-10-23_17h23.06.966,vbt_B1_day1,2022.2.4,MacIntel,59.99880002,,,,,,,,,,,,,,,,,,,0.000595635,0.061166144,1,0,0,0.3661,4,25,129,11,1,l,images/br_l.png,images/cb_l.png,,,,,,,,,,,,,,,,,,,,,,,,,
,,,,,,00081,2023-10-23_17h23.06.966,vbt_B1_day1,2022.2.4,MacIntel,59.99880002,,,,,,,,,,,,,,,,,,,0.112760281,-0.015909627,1,0,0,0.603,5,0,130,11,1,l,images/br_l.png,images/cb_l.png,,,,,,,,,,,,,,,,,,,,,,,,,
,,,,,,00081,2023-10-23_17h23.06.966,vbt_B1_day1,2022.2.4,MacIntel,59.99880002,,,,,,,,,,,,,,,,,,,-0.027315742,-0.036706475,1,0,0,0.9679,5,1,131,17,1,r,images/br_r.png,images/cb_r.png,,,,,,,,,,,,,,,,,,,,,,,,,
,,,,,,00081,2023-10-23_17h23.06.966,vbt_B1_day1,2022.2.4,MacIntel,59.99880002,,,,,,,,,,,,,,,,,,,-0.042232191,0.004917772,1,0,0,2.636,5,2,132,13,1,n,images/br_n.png,images/cb_n.png,,,,,,,,,,,,,,,,,,,,,,,,,
,,,,,,00081,2023-10-23_17h23.06.966,vbt_B1_day1,2022.2.4,MacIntel,59.99880002,,,,,,,,,,,,,,,,,,,-0.042232191,0.004917772,1,0,0,0.9644,5,3,133,25,1,z,images/br_z.png,images/cb_z.png,,,,,,,,,,,,,,,,,,,,,,,,,
,,,,,,00081,2023-10-23_17h23.06.966,vbt_B1_day1,2022.2.4,MacIntel,59.99880002,,,,,,,,,,,,,,,,,,,0.083075968,-0.045854628,1,0,0,0.1687,5,4,134,1,1,b,images/br_b.png,images/cb_b.png,,,,,,,,,,,,,,,,,,,,,,,,,
,,,,,,00081,2023-10-23_17h23.06.966,vbt_B1_day1,2022.2.4,MacIntel,59.99880002,,,,,,,,,,,,,,,,,,,0.083075968,-0.045854628,1,0,0,0.1167,5,5,135,15,1,p,images/br_p.png,images/cb_p.png,,,,,,,,,,,,,,,,,,,,,,,,,
,,,,,,00081,2023-10-23_17h23.06.966,vbt_B1_day1,2022.2.4,MacIntel,59.99880002,,,,,,,,,,,,,,,,,,,0.033342014,-0.099490763,1,0,0,0.8836,5,6,136,19,1,t,images/br_t.png,images/cb_t.png,,,,,,,,,,,,,,,,,,,,,,,,,
,,,,,,00081,2023-10-23_17h23.06.966,vbt_B1_day1,2022.2.4,MacIntel,59.99880002,,,,,,,,,,,,,,,,,,,0.033342014,-0.099490763,1,0,0,0.5671,5,7,137,21,1,v,images/br_v.png,images/cb_v.png,,,,,,,,,,,,,,,,,,,,,,,,,
,,,,,,00081,2023-10-23_17h23.06.966,vbt_B1_day1,2022.2.4,MacIntel,59.99880002,,,,,,,,,,,,,,,,,,,0.033342014,-0.099490763,1,0,0,1.3334,5,8,138,4,1,e,images/br_e.png,images/cb_e.png,,,,,,,,,,,,,,,,,,,,,,,,,
,,,,,,00081,2023-10-23_17h23.06.966,vbt_B1_day1,2022.2.4,MacIntel,59.99880002,,,,,,,,,,,,,,,,,,,0.108676351,-0.035134583,1,0,0,0.8152,5,9,139,0,1,a,images/br_a.png,images/cb_a.png,,,,,,,,,,,,,,,,,,,,,,,,,
,,,,,,00081,2023-10-23_17h23.06.966,vbt_B1_day1,2022.2.4,MacIntel,59.99880002,,,,,,,,,,,,,,,,,,,-0.003975423,0.031454942,1,0,0,0.7998,5,10,140,22,1,w,images/br_w.png,images/cb_w.png,,,,,,,,,,,,,,,,,,,,,,,,,
,,,,,,00081,2023-10-23_17h23.06.966,vbt_B1_day1,2022.2.4,MacIntel,59.99880002,,,,,,,,,,,,,,,,,,,0.049125027,-0.063400506,1,0,0,0.6815,5,11,141,8,1,i,images/br_i.png,images/cb_i.png,,,,,,,,,,,,,,,,,,,,,,,,,
,,,,,,00081,2023-10-23_17h23.06.966,vbt_B1_day1,2022.2.4,MacIntel,59.99880002,,,,,,,,,,,,,,,,,,,-0.005292426,-0.004945543,1,0,0,0.7021,5,12,142,23,1,x,images/br_x.png,images/cb_x.png,,,,,,,,,,,,,,,,,,,,,,,,,
,,,,,,00081,2023-10-23_17h23.06.966,vbt_B1_day1,2022.2.4,MacIntel,59.99880002,,,,,,,,,,,,,,,,,,,-0.055503947,0.023535699,1,0,0,0.2995,5,13,143,18,1,s,images/br_s.png,images/cb_s.png,,,,,,,,,,,,,,,,,,,,,,,,,
,,,,,,00081,2023-10-23_17h23.06.966,vbt_B1_day1,2022.2.4,MacIntel,59.99880002,,,,,,,,,,,,,,,,,,,-0.020041165,0.017597555,1,0,0,0.484,5,14,144,24,1,y,images/br_y.png,images/cb_y.png,,,,,,,,,,,,,,,,,,,,,,,,,
,,,,,,00081,2023-10-23_17h23.06.966,vbt_B1_day1,2022.2.4,MacIntel,59.99880002,,,,,,,,,,,,,,,,,,,-0.020041165,0.017597555,1,0,0,1.1514,5,15,145,2,1,c,images/br_c.png,images/cb_c.png,,,,,,,,,,,,,,,,,,,,,,,,,
,,,,,,00081,2023-10-23_17h23.06.966,vbt_B1_day1,2022.2.4,MacIntel,59.99880002,,,,,,,,,,,,,,,,,,,-0.020041165,0.017597555,1,0,0,10.9487,5,16,146,10,1,k,images/br_k.png,images/cb_k.png,,,,,,,,,,,,,,,,,,,,,,,,,
,,,,,,00081,2023-10-23_17h23.06.966,vbt_B1_day1,2022.2.4,MacIntel,59.99880002,,,,,,,,,,,,,,,,,,,-0.020041165,0.017597555,1,0,0,0.4147,5,17,147,9,1,j,images/br_j.png,images/cb_j.png,,,,,,,,,,,,,,,,,,,,,,,,,
,,,,,,00081,2023-10-23_17h23.06.966,vbt_B1_day1,2022.2.4,MacIntel,59.99880002,,,,,,,,,,,,,,,,,,,-0.020041165,0.017597555,1,0,0,1.6498,5,18,148,12,1,m,images/br_m.png,images/cb_m.png,,,,,,,,,,,,,,,,,,,,,,,,,
,,,,,,00081,2023-10-23_17h23.06.966,vbt_B1_day1,2022.2.4,MacIntel,59.99880002,,,,,,,,,,,,,,,,,,,0.140623576,0.176326803,1,0,0,2.2651,5,19,149,16,1,q,images/br_q.png,images/cb_q.png,,,,,,,,,,,,,,,,,,,,,,,,,
,,,,,,00081,2023-10-23_17h23.06.966,vbt_B1_day1,2022.2.4,MacIntel,59.99880002,,,,,,,,,,,,,,,,,,,0.132691989,0.078700426,1,0,0,0.0998,5,20,150,3,1,d,images/br_d.png,images/cb_d.png,,,,,,,,,,,,,,,,,,,,,,,,,
,,,,,,00081,2023-10-23_17h23.06.966,vbt_B1_day1,2022.2.4,MacIntel,59.99880002,,,,,,,,,,,,,,,,,,,0.058617893,-0.099523722,1,0,0,1.2512,5,21,151,6,1,g,images/br_g.png,images/cb_g.png,,,,,,,,,,,,,,,,,,,,,,,,,
,,,,,,00081,2023-10-23_17h23.06.966,vbt_B1_day1,2022.2.4,MacIntel,59.99880002,,,,,,,,,,,,,,,,,,,0.058617893,-0.099523722,1,0,0,0.6501,5,22,152,5,1,f,images/br_f.png,images/cb_f.png,,,,,,,,,,,,,,,,,,,,,,,,,
,,,,,,00081,2023-10-23_17h23.06.966,vbt_B1_day1,2022.2.4,MacIntel,59.99880002,,,,,,,,,,,,,,,,,,,0.058617893,-0.099523722,1,0,0,37.8024,5,23,153,7,1,h,images/br_h.png,images/cb_h.png,,,,,,,,,,,,,,,,,,,,,,,,,
,,,,,,00081,2023-10-23_17h23.06.966,vbt_B1_day1,2022.2.4,MacIntel,59.99880002,,,,,,,,,,,,,,,,,,,0.058617893,-0.099523722,1,0,0,0.0649,5,24,154,14,1,o,images/br_o.png,images/cb_o.png,,,,,,,,,,,,,,,,,,,,,,,,,
,,,,,,00081,2023-10-23_17h23.06.966,vbt_B1_day1,2022.2.4,MacIntel,59.99880002,,,,,,,,,,,,,,,,,,,-0.016237386,-0.012817078,1,0,0,1.4307,5,25,155,20,1,u,images/br_u.png,images/cb_u.png,,,,,,,,,,,,,,,,,,,,,,,,,
,,,,,,00081,2023-10-23_17h23.06.966,vbt_B1_day1,2022.2.4,MacIntel,59.99880002,,,,,,,,,,,,,,,,,,,-0.028667603,0.019858771,1,0,0,0.7835,6,0,156,13,1,n,images/br_n.png,images/cb_n.png,,,,,,,,,,,,,,,,,,,,,,,,,
,,,,,,00081,2023-10-23_17h23.06.966,vbt_B1_day1,2022.2.4,MacIntel,59.99880002,,,,,,,,,,,,,,,,,,,0.016174859,-0.150673964,1,0,0,0.7671,6,1,157,5,1,f,images/br_f.png,images/cb_f.png,,,,,,,,,,,,,,,,,,,,,,,,,
,,,,,,00081,2023-10-23_17h23.06.966,vbt_B1_day1,2022.2.4,MacIntel,59.99880002,,,,,,,,,,,,,,,,,,,-0.00035041,-0.068532104,1,0,0,0.8835,6,2,158,14,1,o,images/br_o.png,images/cb_o.png,,,,,,,,,,,,,,,,,,,,,,,,,
,,,,,,00081,2023-10-23_17h23.06.966,vbt_B1_day1,2022.2.4,MacIntel,59.99880002,,,,,,,,,,,,,,,,,,,-0.051703288,-0.04078854,1,0,0,0.9019,6,3,159,9,1,j,images/br_j.png,images/cb_j.png,,,,,,,,,,,,,,,,,,,,,,,,,
,,,,,,00081,2023-10-23_17h23.06.966,vbt_B1_day1,2022.2.4,MacIntel,59.99880002,,,,,,,,,,,,,,,,,,,0.073581543,-0.013545125,1,0,0,0.7842,6,4,160,6,1,g,images/br_g.png,images/cb_g.png,,,,,,,,,,,,,,,,,,,,,,,,,
,,,,,,00081,2023-10-23_17h23.06.966,vbt_B1_day1,2022.2.4,MacIntel,59.99880002,,,,,,,,,,,,,,,,,,,0.073581543,-0.013545125,1,0,0,0.3813,6,5,161,22,1,w,images/br_w.png,images/cb_w.png,,,,,,,,,,,,,,,,,,,,,,,,,
,,,,,,00081,2023-10-23_17h23.06.966,vbt_B1_day1,2022.2.4,MacIntel,59.99880002,,,,,,,,,,,,,,,,,,,0.073581543,-0.012276306,1,0,0,0.114,6,6,162,21,1,v,images/br_v.png,images/cb_v.png,,,,,,,,,,,,,,,,,,,,,,,,,
,,,,,,00081,2023-10-23_17h23.06.966,vbt_B1_day1,2022.2.4,MacIntel,59.99880002,,,,,,,,,,,,,,,,,,,0.05275194,0.00952396,1,0,0,0.1494,6,7,163,24,1,y,images/br_y.png,images/cb_y.png,,,,,,,,,,,,,,,,,,,,,,,,,
,,,,,,00081,2023-10-23_17h23.06.966,vbt_B1_day1,2022.2.4,MacIntel,59.99880002,,,,,,,,,,,,,,,,,,,0.05275194,0.00952396,1,0,0,0.4479,6,8,164,0,1,a,images/br_a.png,images/cb_a.png,,,,,,,,,,,,,,,,,,,,,,,,,
,,,,,,00081,2023-10-23_17h23.06.966,vbt_B1_day1,2022.2.4,MacIntel,59.99880002,,,,,,,,,,,,,,,,,,,0.05275194,0.00952396,1,0,0,1.0689,6,9,165,16,1,q,images/br_q.png,images/cb_q.png,,,,,,,,,,,,,,,,,,,,,,,,,
,,,,,,00081,2023-10-23_17h23.06.966,vbt_B1_day1,2022.2.4,MacIntel,59.99880002,,,,,,,,,,,,,,,,,,,0.004439494,0.018545634,1,0,0,0.7812,6,10,166,1,1,b,images/br_b.png,images/cb_b.png,,,,,,,,,,,,,,,,,,,,,,,,,
,,,,,,00081,2023-10-23_17h23.06.966,vbt_B1_day1,2022.2.4,MacIntel,59.99880002,,,,,,,,,,,,,,,,,,,0.120987549,0.040115628,1,0,0,0.5502,6,11,167,7,1,h,images/br_h.png,images/cb_h.png,,,,,,,,,,,,,,,,,,,,,,,,,
,,,,,,00081,2023-10-23_17h23.06.966,vbt_B1_day1,2022.2.4,MacIntel,59.99880002,,,,,,,,,,,,,,,,,,,0.120987549,0.040115628,1,0,0,0.2647,6,12,168,10,1,k,images/br_k.png,images/cb_k.png,,,,,,,,,,,,,,,,,,,,,,,,,
,,,,,,00081,2023-10-23_17h23.06.966,vbt_B1_day1,2022.2.4,MacIntel,59.99880002,,,,,,,,,,,,,,,,,,,0.071963433,0.070669861,1,0,0,1.1834,6,13,169,23,1,x,images/br_x.png,images/cb_x.png,,,,,,,,,,,,,,,,,,,,,,,,,
,,,,,,00081,2023-10-23_17h23.06.966,vbt_B1_day1,2022.2.4,MacIntel,59.99880002,,,,,,,,,,,,,,,,,,,0.071963433,0.070669861,1,0,0,0.2501,6,14,170,2,1,c,images/br_c.png,images/cb_c.png,,,,,,,,,,,,,,,,,,,,,,,,,
,,,,,,00081,2023-10-23_17h23.06.966,vbt_B1_day1,2022.2.4,MacIntel,59.99880002,,,,,,,,,,,,,,,,,,,0.070998739,0.064442647,1,0,0,0.1357,6,15,171,11,1,l,images/br_l.png,images/cb_l.png,,,,,,,,,,,,,,,,,,,,,,,,,
,,,,,,00081,2023-10-23_17h23.06.966,vbt_B1_day1,2022.2.4,MacIntel,59.99880002,,,,,,,,,,,,,,,,,,,0.015405138,0.049129605,1,0,0,0.7668,6,16,172,17,1,r,images/br_r.png,images/cb_r.png,,,,,,,,,,,,,,,,,,,,,,,,,
,,,,,,00081,2023-10-23_17h23.06.966,vbt_B1_day1,2022.2.4,MacIntel,59.99880002,,,,,,,,,,,,,,,,,,,0.097265896,0.014135912,1,0,0,0.698,6,17,173,12,1,m,images/br_m.png,images/cb_m.png,,,,,,,,,,,,,,,,,,,,,,,,,
,,,,,,00081,2023-10-23_17h23.06.966,vbt_B1_day1,2022.2.4,MacIntel,59.99880002,,,,,,,,,,,,,,,,,,,0.097265896,0.014135912,1,0,0,0.034,6,18,174,20,1,u,images/br_u.png,images/cb_u.png,,,,,,,,,,,,,,,,,,,,,,,,,
,,,,,,00081,2023-10-23_17h23.06.966,vbt_B1_day1,2022.2.4,MacIntel,59.99880002,,,,,,,,,,,,,,,,,,,0.097265896,0.014135912,1,0,0,0.8314,6,19,175,18,1,s,images/br_s.png,images/cb_s.png,,,,,,,,,,,,,,,,,,,,,,,,,
,,,,,,00081,2023-10-23_17h23.06.966,vbt_B1_day1,2022.2.4,MacIntel,59.99880002,,,,,,,,,,,,,,,,,,,0.097265896,0.014135912,1,0,0,0.5672,6,20,176,19,1,t,images/br_t.png,images/cb_t.png,,,,,,,,,,,,,,,,,,,,,,,,,
,,,,,,00081,2023-10-23_17h23.06.966,vbt_B1_day1,2022.2.4,MacIntel,59.99880002,,,,,,,,,,,,,,,,,,,0.097265896,0.014135912,1,0,0,1.4191,6,21,177,8,1,i,images/br_i.png,images/cb_i.png,,,,,,,,,,,,,,,,,,,,,,,,,
,,,,,,00081,2023-10-23_17h23.06.966,vbt_B1_day1,2022.2.4,MacIntel,59.99880002,,,,,,,,,,,,,,,,,,,0.097265896,0.014135912,1,0,0,0.4838,6,22,178,15,1,p,images/br_p.png,images/cb_p.png,,,,,,,,,,,,,,,,,,,,,,,,,
,,,,,,00081,2023-10-23_17h23.06.966,vbt_B1_day1,2022.2.4,MacIntel,59.99880002,,,,,,,,,,,,,,,,,,,0.097265896,0.014135912,1,0,0,0.4835,6,23,179,4,1,e,images/br_e.png,images/cb_e.png,,,,,,,,,,,,,,,,,,,,,,,,,
,,,,,,00081,2023-10-23_17h23.06.966,vbt_B1_day1,2022.2.4,MacIntel,59.99880002,,,,,,,,,,,,,,,,,,,0.097265896,0.014135912,1,0,0,0.219,6,24,180,3,1,d,images/br_d.png,images/cb_d.png,,,,,,,,,,,,,,,,,,,,,,,,,
,,,,,,00081,2023-10-23_17h23.06.966,vbt_B1_day1,2022.2.4,MacIntel,59.99880002,,,,,,,,,,,,,,,,,,,0.097265896,0.014135912,1,0,0,1.136,6,25,181,25,1,z,images/br_z.png,images/cb_z.png,,,,,,,,,,,,,,,,,,,,,,,,,
,,,,,,00081,2023-10-23_17h23.06.966,vbt_B1_day1,2022.2.4,MacIntel,59.99880002,,,,,,,,,,,,,,,,,,,,,,,,,,,,,,,,,0.197014703,-0.009365167,1,0,0,,,,,,,,,,,,,,,,,,,,
,,,,,,00081,2023-10-23_17h23.06.966,vbt_B1_day1,2022.2.4,MacIntel,59.99880002,,,,,,,,,,,,,,,,,,,,,,,,,,,,,,,,,,,,,,0.09208469,-0.071250814,1,0,0,,,,,,,,,,,,,,,
,,,,,,00081,2023-10-23_17h23.06.966,vbt_B1_day1,2022.2.4,MacIntel,59.99880002,,,,,,,,,,,,,,,,,,,,,,,,,,,,,,,,,,,,,,,,,,,0.400361464,0.005684543,1,0,0,mam.,mam.,0,0,0,3,1,mand,images/br_mand.png,images/cb_mand.png
,,,,,,00081,2023-10-23_17h23.06.966,vbt_B1_day1,2022.2.4,MacIntel,59.99880002,,,,,,,,,,,,,,,,,,,,,,,,,,,,,,,,,,,,,,,,,,,0.471883002,0.036324124,1,0,0,. u b b e .,. u b b e .,0,1,1,9,1,dubbel,images/br_dubbel.png,images/cb_dubbel.png
,,,,,,00081,2023-10-23_17h23.06.966,vbt_B1_day1,2022.2.4,MacIntel,59.99880002,,,,,,,,,,,,,,,,,,,,,,,,,,,,,,,,,,,,,,,,,,,0.226649306,0.031958245,1,0,0,. o p p l . .,. o p p l . .,0,2,2,32,1,opplaan,images/br_opplaan.png,images/cb_opplaan.png
,,,,,,00081,2023-10-23_17h23.06.966,vbt_B1_day1,2022.2.4,MacIntel,59.99880002,,,,,,,,,,,,,,,,,,,,,,,,,,,,,,,,,,,,,,,,,,,0.553436279,-0.030754937,1,0,0,mini..,mini..,0,3,3,11,1,mening,images/br_mening.png,images/cb_mening.png
,,,,,,00081,2023-10-23_17h23.06.966,vbt_B1_day1,2022.2.4,MacIntel,59.99880002,,,,,,,,,,,,,,,,,,,,,,,,,,,,,,,,,,,,,,,,,,,0.535110813,-0.003959893,1,0,0,l o b h t .,l o b h t .,0,4,4,34,1,lochten,images/br_lochten.png,images/cb_lochten.png
,,,,,,00081,2023-10-23_17h23.06.966,vbt_B1_day1,2022.2.4,MacIntel,59.99880002,,,,,,,,,,,,,,,,,,,,,,,,,,,,,,,,,,,,,,,,,,,0.631391737,0.011116943,1,0,0,v a l o p,v a l o p,0,5,5,26,1,valop,images/br_valop.png,images/cb_valop.png
,,,,,,00081,2023-10-23_17h23.06.966,vbt_B1_day1,2022.2.4,MacIntel,59.99880002,,,,,,,,,,,,,,,,,,,,,,,,,,,,,,,,,,,,,,,,,,,0.51591512,0.023857151,1,0,0,v i j f . .,v i j f . .,0,6,6,54,1,vijftig,images/br_vijftig.png,images/cb_vijftig.png
,,,,,,00081,2023-10-23_17h23.06.966,vbt_B1_day1,2022.2.4,MacIntel,59.99880002,,,,,,,,,,,,,,,,,,,,,,,,,,,,,,,,,,,,,,,,,,,0.166640625,0.129322951,1,0,0,m . n i e k,m . n i e k,0,7,7,10,1,muziek,images/br_muziek.png,images/cb_muziek.png
,,,,,,00081,2023-10-23_17h23.06.966,vbt_B1_day1,2022.2.4,MacIntel,59.99880002,,,,,,,,,,,,,,,,,,,,,,,,,,,,,,,,,,,,,,,,,,,0.336217244,0.210785963,1,0,0,f l u l . .,f l u l . .,0,8,8,33,1,flullen,images/br_flullen.png,images/cb_flullen.png
,,,,,,00081,2023-10-23_17h23.06.966,vbt_B1_day1,2022.2.4,MacIntel,59.99880002,,,,,,,,,,,,,,,,,,,,,,,,,,,,,,,,,,,,,,,,,,,0.451550429,0.156073337,1,0,0,. t . k,. t . k,0,9,9,42,1,stuk,images/br_stuk.png,images/cb_stuk.png
,,,,,,00081,2023-10-23_17h23.06.966,vbt_B1_day1,2022.2.4,MacIntel,59.99880002,,,,,,,,,,,,,,,,,,,,,,,,,,,,,,,,,,,,,,,,,,,0.437506782,0.060973918,1,0,0,b e . r i .,b e . r i .,0,10,10,28,1,bebrip,images/br_bebrip.png,images/cb_bebrip.png
,,,,,,00081,2023-10-23_17h23.06.966,vbt_B1_day1,2022.2.4,MacIntel,59.99880002,,,,,,,,,,,,,,,,,,,,,,,,,,,,,,,,,,,,,,,,,,,0.53598131,0.04125685,1,0,0,k a n j e .,k a n j e .,0,11,11,8,1,kanjer,images/br_kanjer.png,images/cb_kanjer.png
,,,,,,00081,2023-10-23_17h23.06.966,vbt_B1_day1,2022.2.4,MacIntel,59.99880002,,,,,,,,,,,,,,,,,,,,,,,,,,,,,,,,,,,,,,,,,,,0.542393934,-0.03434828,1,0,0,l e z e .,l e z e .,0,12,12,46,1,lezen,images/br_lezen.png,images/cb_lezen.png
,,,,,,00081,2023-10-23_17h23.06.966,vbt_B1_day1,2022.2.4,MacIntel,59.99880002,,,,,,,,,,,,,,,,,,,,,,,,,,,,,,,,,,,,,,,,,,,0.44833469,0.020103895,1,0,0,. . h . l e .,. . h . l e .,0,13,13,19,1,schuilen,images/br_schuilen.png,images/cb_schuilen.png
,,,,,,00081,2023-10-23_17h23.06.966,vbt_B1_day1,2022.2.4,MacIntel,59.99880002,,,,,,,,,,,,,,,,,,,,,,,,,,,,,,,,,,,,,,,,,,,0.576225315,0.046848924,1,0,0,. c h e p,. c h e p,0,14,14,4,1,schep,images/br_schep.png,images/cb_schep.png
,,,,,,00081,2023-10-23_17h23.06.966,vbt_B1_day1,2022.2.4,MacIntel,59.99880002,,,,,,,,,,,,,,,,,,,,,,,,,,,,,,,,,,,,,,,,,,,0.568627523,-0.05354621,1,0,0,l o o d .,l o o d .,0,15,15,47,1,loods,images/br_loods.png,images/cb_loods.png
,,,,,,00081,2023-10-23_17h23.06.966,vbt_B1_day1,2022.2.4,MacIntel,59.99880002,,,,,,,,,,,,,,,,,,,,,,,,,,,,,,,,,,,,,,,,,,,0.478607585,-0.007644213,1,0,0,h i e r v a .,h i e r v a .,0,16,16,15,1,hiervan,images/br_hiervan.png,images/cb_hiervan.png
,,,,,,00081,2023-10-23_17h23.06.966,vbt_B1_day1,2022.2.4,MacIntel,59.99880002,,,,,,,,,,,,,,,,,,,,,,,,,,,,,,,,,,,,,,,,,,,0.478607585,-0.007644213,1,0,0,l i e f d e,l i e f d e,0,17,17,51,1,liefde,images/br_liefde.png,images/cb_liefde.png
,,,,,,00081,2023-10-23_17h23.06.966,vbt_B1_day1,2022.2.4,MacIntel,59.99880002,,,,,,,,,,,,,,,,,,,,,,,,,,,,,,,,,,,,,,,,,,,0.402050917,0.052286919,1,0,0,h a a g,h a a g,0,18,18,41,1,hoog,images/br_hoog.png,images/cb_hoog.png
,,,,,,00081,2023-10-23_17h23.06.966,vbt_B1_day1,2022.2.4,MacIntel,59.99880002,,,,,,,,,,,,,,,,,,,,,,,,,,,,,,,,,,,,,,,,,,,0.402050917,0.052286919,1,0,0,w l a u k,w l a u k,0,19,19,7,1,klauw,images/br_klauw.png,images/cb_klauw.png
,,,,,,00081,2023-10-23_17h23.06.966,vbt_B1_day1,2022.2.4,MacIntel,59.99880002,,,,,,,,,,,,,,,,,,,,,,,,,,,,,,,,,,,,,,,,,,,0.366485596,0.089928657,1,0,0,a t t e z t .,a t t e z t .,0,20,20,17,1,attentie,images/br_attentie.png,images/cb_attentie.png
,,,,,,00081,2023-10-23_17h23.06.966,vbt_B1_day1,2022.2.4,MacIntel,59.99880002,,,,,,,,,,,,,,,,,,,,,,,,,,,,,,,,,,,,,,,,,,,0.188587172,0.2321069,1,0,0,l i e g e n,l i e g e n,0,21,21,50,1,liegen,images/br_liegen.png,images/cb_liegen.png
,,,,,,00081,2023-10-23_17h23.06.966,vbt_B1_day1,2022.2.4,MacIntel,59.99880002,,,,,,,,,,,,,,,,,,,,,,,,,,,,,,,,,,,,,,,,,,,0.113810628,0.200477634,1,0,0,w i j z e,w i j z e,0,22,22,44,1,wijze,images/br_wijze.png,images/cb_wijze.png
,,,,,,00081,2023-10-23_17h23.06.966,vbt_B1_day1,2022.2.4,MacIntel,59.99880002,,,,,,,,,,,,,,,,,,,,,,,,,,,,,,,,,,,,,,,,,,,0.113149278,0.201282688,1,0,0,o p . l a a .,o p . l a a .,0,23,23,53,1,opslaan,images/br_opslaan.png,images/cb_opslaan.png
,,,,,,00081,2023-10-23_17h23.06.966,vbt_B1_day1,2022.2.4,MacIntel,59.99880002,,,,,,,,,,,,,,,,,,,,,,,,,,,,,,,,,,,,,,,,,,,-0.029075317,0.256172943,1,0,0,w i t d e . .,w i t d e . .,0,24,24,18,1,uitdelen,images/br_uitdelen.png,images/cb_uitdelen.png
,,,,,,00081,2023-10-23_17h23.06.966,vbt_B1_day1,2022.2.4,MacIntel,59.99880002,,,,,,,,,,,,,,,,,,,,,,,,,,,,,,,,,,,,,,,,,,,-0.029075317,0.258710548,1,0,0,p r o r t,p r o r t,0,25,25,27,1,prort,images/br_prort.png,images/cb_prort.png
,,,,,,00081,2023-10-23_17h23.06.966,vbt_B1_day1,2022.2.4,MacIntel,59.99880002,,,,,,,,,,,,,,,,,,,,,,,,,,,,,,,,,,,,,,,,,,,-0.093899333,0.306407454,1,0,0,s l a k,s l a k,0,26,26,0,1,slak,images/br_slak.png,images/cb_slak.png
,,,,,,00081,2023-10-23_17h23.06.966,vbt_B1_day1,2022.2.4,MacIntel,59.99880002,,,,,,,,,,,,,,,,,,,,,,,,,,,,,,,,,,,,,,,,,,,-0.105698107,0.099174025,1,0,0,d a a r h e e n,d a a r h e e n,0,27,27,16,1,daarheen,images/br_daarheen.png,images/cb_daarheen.png
,,,,,,00081,2023-10-23_17h23.06.966,vbt_B1_day1,2022.2.4,MacIntel,59.99880002,,,,,,,,,,,,,,,,,,,,,,,,,,,,,,,,,,,,,,,,,,,-0.105038181,0.099174025,1,0,0,v o o r r e u .,v o o r r e u .,0,28,28,39,1,voorreur,images/br_voorreur.png,images/cb_voorreur.png
,,,,,,00081,2023-10-23_17h23.06.966,vbt_B1_day1,2022.2.4,MacIntel,59.99880002,,,,,,,,,,,,,,,,,,,,,,,,,,,,,,,,,,,,,,,,,,,-0.150670166,0.113455539,1,0,0,w a a r v a n,w a a r v a n,0,29,29,14,1,waarvan,images/br_waarvan.png,images/cb_waarvan.png
,,,,,,00081,2023-10-23_17h23.06.966,vbt_B1_day1,2022.2.4,MacIntel,59.99880002,,,,,,,,,,,,,,,,,,,,,,,,,,,,,,,,,,,,,,,,,,,0.090669963,-0.025896132,1,0,0,s t u i k e . ,s t u i k e . ,0,30,30,35,1,stuikem,images/br_stuikem.png,images/cb_stuikem.png
,,,,,,00081,2023-10-23_17h23.06.966,vbt_B1_day1,2022.2.4,MacIntel,59.99880002,,,,,,,,,,,,,,,,,,,,,,,,,,,,,,,,,,,,,,,,,,,0.194366455,0.006560805,1,0,0,s t a . e n,s t a . e n,0,31,31,31,1,stamen,images/br_stamen.png,images/cb_stamen.png
,,,,,,00081,2023-10-23_17h23.06.966,vbt_B1_day1,2022.2.4,MacIntel,59.99880002,,,,,,,,,,,,,,,,,,,,,,,,,,,,,,,,,,,,,,,,,,,0.366554091,0.132407871,1,0,0,s b h i e l . .,s b h i e l . .,0,32,32,38,1,schielen,images/br_schielen.png,images/cb_schielen.png
,,,,,,00081,2023-10-23_17h23.06.966,vbt_B1_day1,2022.2.4,MacIntel,59.99880002,,,,,,,,,,,,,,,,,,,,,,,,,,,,,,,,,,,,,,,,,,,0.249134589,0.163543328,1,0,0,r e z e r,r e z e r,0,33,33,24,1,rezer,images/br_rezer.png,images/cb_rezer.png
,,,,,,00081,2023-10-23_17h23.06.966,vbt_B1_day1,2022.2.4,MacIntel,59.99880002,,,,,,,,,,,,,,,,,,,,,,,,,,,,,,,,,,,,,,,,,,,0.270591092,0.163543328,1,0,0,v o o r k e u .,v o o r k e u .,0,34,34,58,1,voorkeur,images/br_voorkeur.png,images/cb_voorkeur.png
,,,,,,00081,2023-10-23_17h23.06.966,vbt_B1_day1,2022.2.4,MacIntel,59.99880002,,,,,,,,,,,,,,,,,,,,,,,,,,,,,,,,,,,,,,,,,,,0.258886312,0.142477281,1,0,0,h e . e l,h e . e l,0,35,35,45,1,hemel,images/br_hemel.png,images/cb_hemel.png
,,,,,,00081,2023-10-23_17h23.06.966,vbt_B1_day1,2022.2.4,MacIntel,59.99880002,,,,,,,,,,,,,,,,,,,,,,,,,,,,,,,,,,,,,,,,,,,0.002774794,0.150759786,1,0,0,b l e e k,b l e e k,0,36,36,6,1,bleek,images/br_bleek.png,images/cb_bleek.png
,,,,,,00081,2023-10-23_17h23.06.966,vbt_B1_day1,2022.2.4,MacIntel,59.99880002,,,,,,,,,,,,,,,,,,,,,,,,,,,,,,,,,,,,,,,,,,,-0.135376248,0.137727458,1,0,0,g e n o n d,g e n o n d,0,37,37,29,1,genond,images/br_genond.png,images/cb_genond.png
,,,,,,00081,2023-10-23_17h23.06.966,vbt_B1_day1,2022.2.4,MacIntel,59.99880002,,,,,,,,,,,,,,,,,,,,,,,,,,,,,,,,,,,,,,,,,,,-0.036111925,0.064736565,1,0,0,d r e d,d r e d,0,38,38,21,1,dred,images/br_dred.png,images/cb_dred.png
,,,,,,00081,2023-10-23_17h23.06.966,vbt_B1_day1,2022.2.4,MacIntel,59.99880002,,,,,,,,,,,,,,,,,,,,,,,,,,,,,,,,,,,,,,,,,,,-0.510250854,0.195658366,1,0,0,t w i j f . . ,t w i j f . . ,0,39,39,13,1,twijfel,images/br_twijfel.png,images/cb_twijfel.png
,,,,,,00081,2023-10-23_17h23.06.966,vbt_B1_day1,2022.2.4,MacIntel,59.99880002,,,,,,,,,,,,,,,,,,,,,,,,,,,,,,,,,,,,,,,,,,,-0.297776184,0.280961745,1,0,0,d i e f,d i e f,0,40,40,40,1,dief,images/br_dief.png,images/cb_dief.png
,,,,,,00081,2023-10-23_17h23.06.966,vbt_B1_day1,2022.2.4,MacIntel,59.99880002,,,,,,,,,,,,,,,,,,,,,,,,,,,,,,,,,,,,,,,,,,,-0.486193102,0.241878933,1,0,0,l a u a,l a u a,0,41,41,43,1,lava,images/br_lava.png,images/cb_lava.png
,,,,,,00081,2023-10-23_17h23.06.966,vbt_B1_day1,2022.2.4,MacIntel,59.99880002,,,,,,,,,,,,,,,,,,,,,,,,,,,,,,,,,,,,,,,,,,,-0.455111627,0.095898777,1,0,0,z u i p l . .,z u i p l . .,0,42,42,52,1,zuiplap,images/br_zuiplap.png,images/cb_zuiplap.png
,,,,,,00081,2023-10-23_17h23.06.966,vbt_B1_day1,2022.2.4,MacIntel,59.99880002,,,,,,,,,,,,,,,,,,,,,,,,,,,,,,,,,,,,,,,,,,,-0.469191522,-0.063575372,1,0,0,s p a z . . .,s p a z . . .,0,43,43,37,1,spanzing,images/br_spanzing.png,images/cb_spanzing.png
,,,,,,00081,2023-10-23_17h23.06.966,vbt_B1_day1,2022.2.4,MacIntel,59.99880002,,,,,,,,,,,,,,,,,,,,,,,,,,,,,,,,,,,,,,,,,,,-0.508707954,0.045713094,1,0,0,r e e d j e,r e e d j e,0,44,44,30,1,reedje,images/br_reedje.png,images/cb_reedje.png
,,,,,,00081,2023-10-23_17h23.06.966,vbt_B1_day1,2022.2.4,MacIntel,59.99880002,,,,,,,,,,,,,,,,,,,,,,,,,,,,,,,,,,,,,,,,,,,-0.180511814,-0.021412421,1,0,0,v e r v a d . . ,v e r v a d . . ,0,45,45,36,1,vervaden,images/br_vervaden.png,images/cb_vervaden.png
,,,,,,00081,2023-10-23_17h23.06.966,vbt_B1_day1,2022.2.4,MacIntel,59.99880002,,,,,,,,,,,,,,,,,,,,,,,,,,,,,,,,,,,,,,,,,,,-0.095997586,-0.081144409,1,0,0,t o e z i b f . ,t o e z i b f . ,0,46,46,56,1,toezicht,images/br_toezicht.png,images/cb_toezicht.png
,,,,,,00081,2023-10-23_17h23.06.966,vbt_B1_day1,2022.2.4,MacIntel,59.99880002,,,,,,,,,,,,,,,,,,,,,,,,,,,,,,,,,,,,,,,,,,,-0.075027805,-0.123518812,1,0,0,z a a l,z a a l,0,47,47,1,1,zaal,images/br_zaal.png,images/cb_zaal.png
,,,,,,00081,2023-10-23_17h23.06.966,vbt_B1_day1,2022.2.4,MacIntel,59.99880002,,,,,,,,,,,,,,,,,,,,,,,,,,,,,,,,,,,,,,,,,,,-0.075027805,-0.123518812,1,0,0,t e k e n . .,t e k e n . .,0,48,48,55,1,tekenen,images/br_tekenen.png,images/cb_tekenen.png
,,,,,,00081,2023-10-23_17h23.06.966,vbt_B1_day1,2022.2.4,MacIntel,59.99880002,,,,,,,,,,,,,,,,,,,,,,,,,,,,,,,,,,,,,,,,,,,0.001952989,-0.127194282,1,0,0,b o o i,b o o i,0,49,49,23,1,booi,images/br_booi.png,images/cb_booi.png
,,,,,,00081,2023-10-23_17h23.06.966,vbt_B1_day1,2022.2.4,MacIntel,59.99880002,,,,,,,,,,,,,,,,,,,,,,,,,,,,,,,,,,,,,,,,,,,0.001952989,-0.127194282,1,0,0,v i z i . .,v i z i . .,0,50,50,49,1,vizier,images/br_vizier.png,images/cb_vizier.png
,,,,,,00081,2023-10-23_17h23.06.966,vbt_B1_day1,2022.2.4,MacIntel,59.99880002,,,,,,,,,,,,,,,,,,,,,,,,,,,,,,,,,,,,,,,,,,,0.001952989,-0.127194282,1,0,0,s a k e n,s a k e n,0,51,51,5,1,maken,images/br_maken.png,images/cb_maken.png
,,,,,,00081,2023-10-23_17h23.06.966,vbt_B1_day1,2022.2.4,MacIntel,59.99880002,,,,,,,,,,,,,,,,,,,,,,,,,,,,,,,,,,,,,,,,,,,0.023409559,-0.125932142,1,0,0,t a r s,t a r s,0,52,52,20,1,tars,images/br_tars.png,images/cb_tars.png
,,,,,,00081,2023-10-23_17h23.06.966,vbt_B1_day1,2022.2.4,MacIntel,59.99880002,,,,,,,,,,,,,,,,,,,,,,,,,,,,,,,,,,,,,,,,,,,0.022140706,-0.115037571,1,0,0,f i . t i e,f i . t i e,0,53,53,48,1,fictie,images/br_fictie.png,images/cb_fictie.png
,,,,,,00081,2023-10-23_17h23.06.966,vbt_B1_day1,2022.2.4,MacIntel,59.99880002,,,,,,,,,,,,,,,,,,,,,,,,,,,,,,,,,,,,,,,,,,,0.016388618,-0.102296346,1,0,0,. e e n e . e . ,. e e n e . e . ,0,54,54,57,1,meenemen,images/br_meenemen.png,images/cb_meenemen.png
,,,,,,00081,2023-10-23_17h23.06.966,vbt_B1_day1,2022.2.4,MacIntel,59.99880002,,,,,,,,,,,,,,,,,,,,,,,,,,,,,,,,,,,,,,,,,,,-0.055995144,-0.116189711,1,0,0,o p v a t t . . ,o p v a t t . . ,0,55,55,59,1,opvatten,images/br_opvatten.png,images/cb_opvatten.png
,,,,,,00081,2023-10-23_17h23.06.966,vbt_B1_day1,2022.2.4,MacIntel,59.99880002,,,,,,,,,,,,,,,,,,,,,,,,,,,,,,,,,,,,,,,,,,,-0.055995144,-0.116189711,1,0,0,k n o e,k n o e,0,56,56,22,1,knoe,images/br_knoe.png,images/cb_knoe.png
,,,,,,00081,2023-10-23_17h23.06.966,vbt_B1_day1,2022.2.4,MacIntel,59.99880002,,,,,,,,,,,,,,,,,,,,,,,,,,,,,,,,,,,,,,,,,,,-0.055995144,-0.116189711,1,0,0,b r i j k,b r i j k,0,57,57,25,1,brijk,images/br_brijk.png,images/cb_brijk.png
,,,,,,00081,2023-10-23_17h23.06.966,vbt_B1_day1,2022.2.4,MacIntel,59.99880002,,,,,,,,,,,,,,,,,,,,,,,,,,,,,,,,,,,,,,,,,,,-0.071366102,-0.074710015,1,0,0,k l i m m e . ,k l i m m e . ,0,58,58,12,1,klimmen,images/br_klimmen.png,images/cb_klimmen.png
,,,,,,00081,2023-10-23_17h23.06.966,vbt_B1_day1,2022.2.4,MacIntel,59.99880002,,,,,,,,,,,,,,,,,,,,,,,,,,,,,,,,,,,,,,,,,,,-0.071366102,-0.074710015,1,0,0,j a a r,j a a r,0,59,59,2,1,jaar,images/br_jaar.png,images/cb_jaar.png
,,,,,,00081,2023-10-23_17h23.06.966,vbt_B1_day1,2022.2.4,MacIntel,59.99880002,,,,,,,,,,,,,,,,,,,,,,,,,,,,,,,,,,,,,,,,,,,,,,,,,,,,,,,,,
