welcome_mouse.x,welcome_mouse.y,welcome_mouse.leftButton,welcome_mouse.midButton,welcome_mouse.rightButton,welcome_mouse.time,"ID",date,expName,psychopyVersion,OS,frameRate,mouse_2.x,mouse_2.y,mouse_2.leftButton,mouse_2.midButton,mouse_2.rightButton,mouse_2.time,mouse_3.x,mouse_3.y,mouse_3.leftButton,mouse_3.midButton,mouse_3.rightButton,mouse_3.time,train_mouse.x,train_mouse.y,train_mouse.leftButton,train_mouse.midButton,train_mouse.rightButton,train_mouse.time,braille_mouse.x,braille_mouse.y,braille_mouse.leftButton,braille_mouse.midButton,braille_mouse.rightButton,braille_mouse.time,trials.thisRepN,trials.thisTrialN,trials.thisN,trials.thisIndex,trials.ran,nlLet,brLet,cbLet,mouse.x,mouse.y,mouse.leftButton,mouse.midButton,mouse.rightButton,testInstr_mouse.x,testInstr_mouse.y,testInstr_mouse.leftButton,testInstr_mouse.midButton,testInstr_mouse.rightButton,test_mouse.x,test_mouse.y,test_mouse.leftButton,test_mouse.midButton,test_mouse.rightButton,test_response.text,testResp,test_loop.thisRepN,test_loop.thisTrialN,test_loop.thisN,test_loop.thisIndex,test_loop.ran,nlWrd,brWrd,cbWrd
0.546296296,-0.310185185,1,0,0,21.1158,00063,2023-10-16_19h47.50.062,vbt_B1_day1,2022.2.4,Win32,60.07449237,,,,,,,,,,,,,,,,,,,,,,,,,,,,,,,,,,,,,,,,,,,,,,,,,,,,,,,,,
,,,,,,00063,2023-10-16_19h47.50.062,vbt_B1_day1,2022.2.4,Win32,60.07449237,0.546296296,-0.310185185,1,0,0,7.48,,,,,,,,,,,,,,,,,,,,,,,,,,,,,,,,,,,,,,,,,,,,,,,,,,,
,,,,,,00063,2023-10-16_19h47.50.062,vbt_B1_day1,2022.2.4,Win32,60.07449237,,,,,,,0.546296296,-0.310185185,1,0,0,3.4646,,,,,,,,,,,,,,,,,,,,,,,,,,,,,,,,,,,,,,,,,,,,,
,,,,,,00063,2023-10-16_19h47.50.062,vbt_B1_day1,2022.2.4,Win32,60.07449237,,,,,,,,,,,,,0.291666667,-0.328703704,1,0,0,25.0188,,,,,,,,,,,,,,,,,,,,,,,,,,,,,,,,,,,,,,,
,,,,,,00063,2023-10-16_19h47.50.062,vbt_B1_day1,2022.2.4,Win32,60.07449237,,,,,,,,,,,,,,,,,,,0.291666667,-0.328703704,1,0,0,9.5676,0,0,0,21,1,v,images/br_v.png,images/cb_v.png,,,,,,,,,,,,,,,,,,,,,,,,,
,,,,,,00063,2023-10-16_19h47.50.062,vbt_B1_day1,2022.2.4,Win32,60.07449237,,,,,,,,,,,,,,,,,,,0.291666667,-0.328703704,1,0,0,4.894,0,1,1,0,1,a,images/br_a.png,images/cb_a.png,,,,,,,,,,,,,,,,,,,,,,,,,
,,,,,,00063,2023-10-16_19h47.50.062,vbt_B1_day1,2022.2.4,Win32,60.07449237,,,,,,,,,,,,,,,,,,,0.291666667,-0.328703704,1,0,0,3.217,0,2,2,22,1,w,images/br_w.png,images/cb_w.png,,,,,,,,,,,,,,,,,,,,,,,,,
,,,,,,00063,2023-10-16_19h47.50.062,vbt_B1_day1,2022.2.4,Win32,60.07449237,,,,,,,,,,,,,,,,,,,0.291666667,-0.328703704,1,0,0,3.1739,0,3,3,19,1,t,images/br_t.png,images/cb_t.png,,,,,,,,,,,,,,,,,,,,,,,,,
,,,,,,00063,2023-10-16_19h47.50.062,vbt_B1_day1,2022.2.4,Win32,60.07449237,,,,,,,,,,,,,,,,,,,0.291666667,-0.328703704,1,0,0,2.5734,0,4,4,15,1,p,images/br_p.png,images/cb_p.png,,,,,,,,,,,,,,,,,,,,,,,,,
,,,,,,00063,2023-10-16_19h47.50.062,vbt_B1_day1,2022.2.4,Win32,60.07449237,,,,,,,,,,,,,,,,,,,0.291666667,-0.328703704,1,0,0,2.017,0,5,5,4,1,e,images/br_e.png,images/cb_e.png,,,,,,,,,,,,,,,,,,,,,,,,,
,,,,,,00063,2023-10-16_19h47.50.062,vbt_B1_day1,2022.2.4,Win32,60.07449237,,,,,,,,,,,,,,,,,,,0.291666667,-0.328703704,1,0,0,3.8902,0,6,6,11,1,l,images/br_l.png,images/cb_l.png,,,,,,,,,,,,,,,,,,,,,,,,,
,,,,,,00063,2023-10-16_19h47.50.062,vbt_B1_day1,2022.2.4,Win32,60.07449237,,,,,,,,,,,,,,,,,,,0.291666667,-0.328703704,1,0,0,3.0273,0,7,7,17,1,r,images/br_r.png,images/cb_r.png,,,,,,,,,,,,,,,,,,,,,,,,,
,,,,,,00063,2023-10-16_19h47.50.062,vbt_B1_day1,2022.2.4,Win32,60.07449237,,,,,,,,,,,,,,,,,,,0.291666667,-0.328703704,1,0,0,2.5334,0,8,8,1,1,b,images/br_b.png,images/cb_b.png,,,,,,,,,,,,,,,,,,,,,,,,,
,,,,,,00063,2023-10-16_19h47.50.062,vbt_B1_day1,2022.2.4,Win32,60.07449237,,,,,,,,,,,,,,,,,,,0.291666667,-0.328703704,1,0,0,2.1166,0,9,9,25,1,z,images/br_z.png,images/cb_z.png,,,,,,,,,,,,,,,,,,,,,,,,,
,,,,,,00063,2023-10-16_19h47.50.062,vbt_B1_day1,2022.2.4,Win32,60.07449237,,,,,,,,,,,,,,,,,,,0.291666667,-0.328703704,1,0,0,1.7001,0,10,10,12,1,m,images/br_m.png,images/cb_m.png,,,,,,,,,,,,,,,,,,,,,,,,,
,,,,,,00063,2023-10-16_19h47.50.062,vbt_B1_day1,2022.2.4,Win32,60.07449237,,,,,,,,,,,,,,,,,,,0.291666667,-0.328703704,1,0,0,2.7238,0,11,11,5,1,f,images/br_f.png,images/cb_f.png,,,,,,,,,,,,,,,,,,,,,,,,,
,,,,,,00063,2023-10-16_19h47.50.062,vbt_B1_day1,2022.2.4,Win32,60.07449237,,,,,,,,,,,,,,,,,,,0.291666667,-0.328703704,1,0,0,2.3403,0,12,12,8,1,i,images/br_i.png,images/cb_i.png,,,,,,,,,,,,,,,,,,,,,,,,,
,,,,,,00063,2023-10-16_19h47.50.062,vbt_B1_day1,2022.2.4,Win32,60.07449237,,,,,,,,,,,,,,,,,,,0.291666667,-0.328703704,1,0,0,1.7169,0,13,13,14,1,o,images/br_o.png,images/cb_o.png,,,,,,,,,,,,,,,,,,,,,,,,,
,,,,,,00063,2023-10-16_19h47.50.062,vbt_B1_day1,2022.2.4,Win32,60.07449237,,,,,,,,,,,,,,,,,,,0.291666667,-0.328703704,1,0,0,1.9835,0,14,14,7,1,h,images/br_h.png,images/cb_h.png,,,,,,,,,,,,,,,,,,,,,,,,,
,,,,,,00063,2023-10-16_19h47.50.062,vbt_B1_day1,2022.2.4,Win32,60.07449237,,,,,,,,,,,,,,,,,,,0.291666667,-0.328703704,1,0,0,2.1571,0,15,15,3,1,d,images/br_d.png,images/cb_d.png,,,,,,,,,,,,,,,,,,,,,,,,,
,,,,,,00063,2023-10-16_19h47.50.062,vbt_B1_day1,2022.2.4,Win32,60.07449237,,,,,,,,,,,,,,,,,,,0.291666667,-0.328703704,1,0,0,1.7163,0,16,16,18,1,s,images/br_s.png,images/cb_s.png,,,,,,,,,,,,,,,,,,,,,,,,,
,,,,,,00063,2023-10-16_19h47.50.062,vbt_B1_day1,2022.2.4,Win32,60.07449237,,,,,,,,,,,,,,,,,,,0.291666667,-0.328703704,1,0,0,1.8848,0,17,17,20,1,u,images/br_u.png,images/cb_u.png,,,,,,,,,,,,,,,,,,,,,,,,,
,,,,,,00063,2023-10-16_19h47.50.062,vbt_B1_day1,2022.2.4,Win32,60.07449237,,,,,,,,,,,,,,,,,,,0.291666667,-0.328703704,1,0,0,0.7835,0,18,18,6,1,g,images/br_g.png,images/cb_g.png,,,,,,,,,,,,,,,,,,,,,,,,,
,,,,,,00063,2023-10-16_19h47.50.062,vbt_B1_day1,2022.2.4,Win32,60.07449237,,,,,,,,,,,,,,,,,,,0.291666667,-0.328703704,1,0,0,1.1838,0,19,19,24,1,y,images/br_y.png,images/cb_y.png,,,,,,,,,,,,,,,,,,,,,,,,,
,,,,,,00063,2023-10-16_19h47.50.062,vbt_B1_day1,2022.2.4,Win32,60.07449237,,,,,,,,,,,,,,,,,,,0.291666667,-0.328703704,1,0,0,0.5335,0,20,20,2,1,c,images/br_c.png,images/cb_c.png,,,,,,,,,,,,,,,,,,,,,,,,,
,,,,,,00063,2023-10-16_19h47.50.062,vbt_B1_day1,2022.2.4,Win32,60.07449237,,,,,,,,,,,,,,,,,,,0.291666667,-0.328703704,1,0,0,1.4337,0,21,21,9,1,j,images/br_j.png,images/cb_j.png,,,,,,,,,,,,,,,,,,,,,,,,,
,,,,,,00063,2023-10-16_19h47.50.062,vbt_B1_day1,2022.2.4,Win32,60.07449237,,,,,,,,,,,,,,,,,,,0.291666667,-0.328703704,1,0,0,0.8837,0,22,22,23,1,x,images/br_x.png,images/cb_x.png,,,,,,,,,,,,,,,,,,,,,,,,,
,,,,,,00063,2023-10-16_19h47.50.062,vbt_B1_day1,2022.2.4,Win32,60.07449237,,,,,,,,,,,,,,,,,,,0.291666667,-0.328703704,1,0,0,2.4498,0,23,23,10,1,k,images/br_k.png,images/cb_k.png,,,,,,,,,,,,,,,,,,,,,,,,,
,,,,,,00063,2023-10-16_19h47.50.062,vbt_B1_day1,2022.2.4,Win32,60.07449237,,,,,,,,,,,,,,,,,,,0.291666667,-0.328703704,1,0,0,1.8007,0,24,24,16,1,q,images/br_q.png,images/cb_q.png,,,,,,,,,,,,,,,,,,,,,,,,,
,,,,,,00063,2023-10-16_19h47.50.062,vbt_B1_day1,2022.2.4,Win32,60.07449237,,,,,,,,,,,,,,,,,,,0.291666667,-0.328703704,1,0,0,1.5503,0,25,25,13,1,n,images/br_n.png,images/cb_n.png,,,,,,,,,,,,,,,,,,,,,,,,,
,,,,,,00063,2023-10-16_19h47.50.062,vbt_B1_day1,2022.2.4,Win32,60.07449237,,,,,,,,,,,,,,,,,,,0.291666667,-0.328703704,1,0,0,0.9905,1,0,26,22,1,w,images/br_w.png,images/cb_w.png,,,,,,,,,,,,,,,,,,,,,,,,,
,,,,,,00063,2023-10-16_19h47.50.062,vbt_B1_day1,2022.2.4,Win32,60.07449237,,,,,,,,,,,,,,,,,,,0.291666667,-0.328703704,1,0,0,0.9498,1,1,27,10,1,k,images/br_k.png,images/cb_k.png,,,,,,,,,,,,,,,,,,,,,,,,,
,,,,,,00063,2023-10-16_19h47.50.062,vbt_B1_day1,2022.2.4,Win32,60.07449237,,,,,,,,,,,,,,,,,,,0.291666667,-0.328703704,1,0,0,1.0672,1,2,28,2,1,c,images/br_c.png,images/cb_c.png,,,,,,,,,,,,,,,,,,,,,,,,,
,,,,,,00063,2023-10-16_19h47.50.062,vbt_B1_day1,2022.2.4,Win32,60.07449237,,,,,,,,,,,,,,,,,,,0.291666667,-0.328703704,1,0,0,1.6505,1,3,29,5,1,f,images/br_f.png,images/cb_f.png,,,,,,,,,,,,,,,,,,,,,,,,,
,,,,,,00063,2023-10-16_19h47.50.062,vbt_B1_day1,2022.2.4,Win32,60.07449237,,,,,,,,,,,,,,,,,,,0.291666667,-0.328703704,1,0,0,0.7203,1,4,30,20,1,u,images/br_u.png,images/cb_u.png,,,,,,,,,,,,,,,,,,,,,,,,,
,,,,,,00063,2023-10-16_19h47.50.062,vbt_B1_day1,2022.2.4,Win32,60.07449237,,,,,,,,,,,,,,,,,,,0.291666667,-0.328703704,1,0,0,2.1899,1,5,31,0,1,a,images/br_a.png,images/cb_a.png,,,,,,,,,,,,,,,,,,,,,,,,,
,,,,,,00063,2023-10-16_19h47.50.062,vbt_B1_day1,2022.2.4,Win32,60.07449237,,,,,,,,,,,,,,,,,,,0.291666667,-0.328703704,1,0,0,0.5829,1,6,32,23,1,x,images/br_x.png,images/cb_x.png,,,,,,,,,,,,,,,,,,,,,,,,,
,,,,,,00063,2023-10-16_19h47.50.062,vbt_B1_day1,2022.2.4,Win32,60.07449237,,,,,,,,,,,,,,,,,,,0.291666667,-0.328703704,1,0,0,1.4335,1,7,33,14,1,o,images/br_o.png,images/cb_o.png,,,,,,,,,,,,,,,,,,,,,,,,,
,,,,,,00063,2023-10-16_19h47.50.062,vbt_B1_day1,2022.2.4,Win32,60.07449237,,,,,,,,,,,,,,,,,,,0.291666667,-0.328703704,1,0,0,2.0405,1,8,34,12,1,m,images/br_m.png,images/cb_m.png,,,,,,,,,,,,,,,,,,,,,,,,,
,,,,,,00063,2023-10-16_19h47.50.062,vbt_B1_day1,2022.2.4,Win32,60.07449237,,,,,,,,,,,,,,,,,,,0.291666667,-0.328703704,1,0,0,1.6001,1,9,35,25,1,z,images/br_z.png,images/cb_z.png,,,,,,,,,,,,,,,,,,,,,,,,,
,,,,,,00063,2023-10-16_19h47.50.062,vbt_B1_day1,2022.2.4,Win32,60.07449237,,,,,,,,,,,,,,,,,,,0.291666667,-0.328703704,1,0,0,2.4336,1,10,36,1,1,b,images/br_b.png,images/cb_b.png,,,,,,,,,,,,,,,,,,,,,,,,,
,,,,,,00063,2023-10-16_19h47.50.062,vbt_B1_day1,2022.2.4,Win32,60.07449237,,,,,,,,,,,,,,,,,,,0.291666667,-0.328703704,1,0,0,2.0335,1,11,37,11,1,l,images/br_l.png,images/cb_l.png,,,,,,,,,,,,,,,,,,,,,,,,,
,,,,,,00063,2023-10-16_19h47.50.062,vbt_B1_day1,2022.2.4,Win32,60.07449237,,,,,,,,,,,,,,,,,,,0.291666667,-0.328703704,1,0,0,1.7833,1,12,38,15,1,p,images/br_p.png,images/cb_p.png,,,,,,,,,,,,,,,,,,,,,,,,,
,,,,,,00063,2023-10-16_19h47.50.062,vbt_B1_day1,2022.2.4,Win32,60.07449237,,,,,,,,,,,,,,,,,,,0.291666667,-0.328703704,1,0,0,1.857,1,13,39,17,1,r,images/br_r.png,images/cb_r.png,,,,,,,,,,,,,,,,,,,,,,,,,
,,,,,,00063,2023-10-16_19h47.50.062,vbt_B1_day1,2022.2.4,Win32,60.07449237,,,,,,,,,,,,,,,,,,,0.291666667,-0.328703704,1,0,0,2.75,1,14,40,18,1,s,images/br_s.png,images/cb_s.png,,,,,,,,,,,,,,,,,,,,,,,,,
,,,,,,00063,2023-10-16_19h47.50.062,vbt_B1_day1,2022.2.4,Win32,60.07449237,,,,,,,,,,,,,,,,,,,0.291666667,-0.328703704,1,0,0,1.8502,1,15,41,21,1,v,images/br_v.png,images/cb_v.png,,,,,,,,,,,,,,,,,,,,,,,,,
,,,,,,00063,2023-10-16_19h47.50.062,vbt_B1_day1,2022.2.4,Win32,60.07449237,,,,,,,,,,,,,,,,,,,0.291666667,-0.328703704,1,0,0,0.8603,1,16,42,4,1,e,images/br_e.png,images/cb_e.png,,,,,,,,,,,,,,,,,,,,,,,,,
,,,,,,00063,2023-10-16_19h47.50.062,vbt_B1_day1,2022.2.4,Win32,60.07449237,,,,,,,,,,,,,,,,,,,0.291666667,-0.328703704,1,0,0,2.4003,1,17,43,3,1,d,images/br_d.png,images/cb_d.png,,,,,,,,,,,,,,,,,,,,,,,,,
,,,,,,00063,2023-10-16_19h47.50.062,vbt_B1_day1,2022.2.4,Win32,60.07449237,,,,,,,,,,,,,,,,,,,0.291666667,-0.328703704,1,0,0,1.7905,1,18,44,19,1,t,images/br_t.png,images/cb_t.png,,,,,,,,,,,,,,,,,,,,,,,,,
,,,,,,00063,2023-10-16_19h47.50.062,vbt_B1_day1,2022.2.4,Win32,60.07449237,,,,,,,,,,,,,,,,,,,0.291666667,-0.328703704,1,0,0,1.2834,1,19,45,9,1,j,images/br_j.png,images/cb_j.png,,,,,,,,,,,,,,,,,,,,,,,,,
,,,,,,00063,2023-10-16_19h47.50.062,vbt_B1_day1,2022.2.4,Win32,60.07449237,,,,,,,,,,,,,,,,,,,0.291666667,-0.328703704,1,0,0,1.4502,1,20,46,8,1,i,images/br_i.png,images/cb_i.png,,,,,,,,,,,,,,,,,,,,,,,,,
,,,,,,00063,2023-10-16_19h47.50.062,vbt_B1_day1,2022.2.4,Win32,60.07449237,,,,,,,,,,,,,,,,,,,0.291666667,-0.328703704,1,0,0,0.85,1,21,47,7,1,h,images/br_h.png,images/cb_h.png,,,,,,,,,,,,,,,,,,,,,,,,,
,,,,,,00063,2023-10-16_19h47.50.062,vbt_B1_day1,2022.2.4,Win32,60.07449237,,,,,,,,,,,,,,,,,,,0.291666667,-0.328703704,1,0,0,0.9836,1,22,48,16,1,q,images/br_q.png,images/cb_q.png,,,,,,,,,,,,,,,,,,,,,,,,,
,,,,,,00063,2023-10-16_19h47.50.062,vbt_B1_day1,2022.2.4,Win32,60.07449237,,,,,,,,,,,,,,,,,,,0.291666667,-0.328703704,1,0,0,1.2168,1,23,49,6,1,g,images/br_g.png,images/cb_g.png,,,,,,,,,,,,,,,,,,,,,,,,,
,,,,,,00063,2023-10-16_19h47.50.062,vbt_B1_day1,2022.2.4,Win32,60.07449237,,,,,,,,,,,,,,,,,,,0.291666667,-0.328703704,1,0,0,1.0501,1,24,50,24,1,y,images/br_y.png,images/cb_y.png,,,,,,,,,,,,,,,,,,,,,,,,,
,,,,,,00063,2023-10-16_19h47.50.062,vbt_B1_day1,2022.2.4,Win32,60.07449237,,,,,,,,,,,,,,,,,,,0.291666667,-0.328703704,1,0,0,1.4333,1,25,51,13,1,n,images/br_n.png,images/cb_n.png,,,,,,,,,,,,,,,,,,,,,,,,,
,,,,,,00063,2023-10-16_19h47.50.062,vbt_B1_day1,2022.2.4,Win32,60.07449237,,,,,,,,,,,,,,,,,,,0.291666667,-0.328703704,1,0,0,0.6001,2,0,52,4,1,e,images/br_e.png,images/cb_e.png,,,,,,,,,,,,,,,,,,,,,,,,,
,,,,,,00063,2023-10-16_19h47.50.062,vbt_B1_day1,2022.2.4,Win32,60.07449237,,,,,,,,,,,,,,,,,,,0.291666667,-0.328703704,1,0,0,0.3999,2,1,53,12,1,m,images/br_m.png,images/cb_m.png,,,,,,,,,,,,,,,,,,,,,,,,,
,,,,,,00063,2023-10-16_19h47.50.062,vbt_B1_day1,2022.2.4,Win32,60.07449237,,,,,,,,,,,,,,,,,,,0.291666667,-0.328703704,1,0,0,1.0169,2,2,54,1,1,b,images/br_b.png,images/cb_b.png,,,,,,,,,,,,,,,,,,,,,,,,,
,,,,,,00063,2023-10-16_19h47.50.062,vbt_B1_day1,2022.2.4,Win32,60.07449237,,,,,,,,,,,,,,,,,,,0.318518603,-0.083333333,1,0,0,4.3338,2,3,55,9,1,j,images/br_j.png,images/cb_j.png,,,,,,,,,,,,,,,,,,,,,,,,,
,,,,,,00063,2023-10-16_19h47.50.062,vbt_B1_day1,2022.2.4,Win32,60.07449237,,,,,,,,,,,,,,,,,,,0.318518603,-0.083333333,1,0,0,0.8569,2,4,56,3,1,d,images/br_d.png,images/cb_d.png,,,,,,,,,,,,,,,,,,,,,,,,,
,,,,,,00063,2023-10-16_19h47.50.062,vbt_B1_day1,2022.2.4,Win32,60.07449237,,,,,,,,,,,,,,,,,,,0.318518603,-0.083333333,1,0,0,0.7336,2,5,57,18,1,s,images/br_s.png,images/cb_s.png,,,,,,,,,,,,,,,,,,,,,,,,,
,,,,,,00063,2023-10-16_19h47.50.062,vbt_B1_day1,2022.2.4,Win32,60.07449237,,,,,,,,,,,,,,,,,,,0.318518603,-0.083333333,1,0,0,1.3895,2,6,58,22,1,w,images/br_w.png,images/cb_w.png,,,,,,,,,,,,,,,,,,,,,,,,,
,,,,,,00063,2023-10-16_19h47.50.062,vbt_B1_day1,2022.2.4,Win32,60.07449237,,,,,,,,,,,,,,,,,,,0.318518603,-0.083333333,1,0,0,0.5499,2,7,59,16,1,q,images/br_q.png,images/cb_q.png,,,,,,,,,,,,,,,,,,,,,,,,,
,,,,,,00063,2023-10-16_19h47.50.062,vbt_B1_day1,2022.2.4,Win32,60.07449237,,,,,,,,,,,,,,,,,,,0.318518603,-0.083333333,1,0,0,0.9502,2,8,60,13,1,n,images/br_n.png,images/cb_n.png,,,,,,,,,,,,,,,,,,,,,,,,,
,,,,,,00063,2023-10-16_19h47.50.062,vbt_B1_day1,2022.2.4,Win32,60.07449237,,,,,,,,,,,,,,,,,,,0.318518603,-0.083333333,1,0,0,0.5737,2,9,61,20,1,u,images/br_u.png,images/cb_u.png,,,,,,,,,,,,,,,,,,,,,,,,,
,,,,,,00063,2023-10-16_19h47.50.062,vbt_B1_day1,2022.2.4,Win32,60.07449237,,,,,,,,,,,,,,,,,,,0.318518603,-0.083333333,1,0,0,0.6502,2,10,62,23,1,x,images/br_x.png,images/cb_x.png,,,,,,,,,,,,,,,,,,,,,,,,,
,,,,,,00063,2023-10-16_19h47.50.062,vbt_B1_day1,2022.2.4,Win32,60.07449237,,,,,,,,,,,,,,,,,,,0.318518603,-0.083333333,1,0,0,1.5668,2,11,63,6,1,g,images/br_g.png,images/cb_g.png,,,,,,,,,,,,,,,,,,,,,,,,,
,,,,,,00063,2023-10-16_19h47.50.062,vbt_B1_day1,2022.2.4,Win32,60.07449237,,,,,,,,,,,,,,,,,,,0.318518603,-0.083333333,1,0,0,1.1501,2,12,64,2,1,c,images/br_c.png,images/cb_c.png,,,,,,,,,,,,,,,,,,,,,,,,,
,,,,,,00063,2023-10-16_19h47.50.062,vbt_B1_day1,2022.2.4,Win32,60.07449237,,,,,,,,,,,,,,,,,,,0.310185185,-0.072222215,1,0,0,0.8008,2,13,65,21,1,v,images/br_v.png,images/cb_v.png,,,,,,,,,,,,,,,,,,,,,,,,,
,,,,,,00063,2023-10-16_19h47.50.062,vbt_B1_day1,2022.2.4,Win32,60.07449237,,,,,,,,,,,,,,,,,,,0.310185185,-0.072222215,1,0,0,0.383,2,14,66,8,1,i,images/br_i.png,images/cb_i.png,,,,,,,,,,,,,,,,,,,,,,,,,
,,,,,,00063,2023-10-16_19h47.50.062,vbt_B1_day1,2022.2.4,Win32,60.07449237,,,,,,,,,,,,,,,,,,,0.310185185,-0.072222215,1,0,0,0.7403,2,15,67,10,1,k,images/br_k.png,images/cb_k.png,,,,,,,,,,,,,,,,,,,,,,,,,
,,,,,,00063,2023-10-16_19h47.50.062,vbt_B1_day1,2022.2.4,Win32,60.07449237,,,,,,,,,,,,,,,,,,,0.310185185,-0.072222215,1,0,0,1.2833,2,16,68,5,1,f,images/br_f.png,images/cb_f.png,,,,,,,,,,,,,,,,,,,,,,,,,
,,,,,,00063,2023-10-16_19h47.50.062,vbt_B1_day1,2022.2.4,Win32,60.07449237,,,,,,,,,,,,,,,,,,,0.310185185,-0.072222215,1,0,0,1.027,2,17,69,24,1,y,images/br_y.png,images/cb_y.png,,,,,,,,,,,,,,,,,,,,,,,,,
,,,,,,00063,2023-10-16_19h47.50.062,vbt_B1_day1,2022.2.4,Win32,60.07449237,,,,,,,,,,,,,,,,,,,0.310185185,-0.072222215,1,0,0,2.1837,2,18,70,17,1,r,images/br_r.png,images/cb_r.png,,,,,,,,,,,,,,,,,,,,,,,,,
,,,,,,00063,2023-10-16_19h47.50.062,vbt_B1_day1,2022.2.4,Win32,60.07449237,,,,,,,,,,,,,,,,,,,0.310185185,-0.072222215,1,0,0,0.2665,2,19,71,0,1,a,images/br_a.png,images/cb_a.png,,,,,,,,,,,,,,,,,,,,,,,,,
,,,,,,00063,2023-10-16_19h47.50.062,vbt_B1_day1,2022.2.4,Win32,60.07449237,,,,,,,,,,,,,,,,,,,0.310185185,-0.072222215,1,0,0,0.2234,2,20,72,11,1,l,images/br_l.png,images/cb_l.png,,,,,,,,,,,,,,,,,,,,,,,,,
,,,,,,00063,2023-10-16_19h47.50.062,vbt_B1_day1,2022.2.4,Win32,60.07449237,,,,,,,,,,,,,,,,,,,0.310185185,-0.072222215,1,0,0,0.5333,2,21,73,25,1,z,images/br_z.png,images/cb_z.png,,,,,,,,,,,,,,,,,,,,,,,,,
,,,,,,00063,2023-10-16_19h47.50.062,vbt_B1_day1,2022.2.4,Win32,60.07449237,,,,,,,,,,,,,,,,,,,0.310185185,-0.072222215,1,0,0,0.9438,2,22,74,14,1,o,images/br_o.png,images/cb_o.png,,,,,,,,,,,,,,,,,,,,,,,,,
,,,,,,00063,2023-10-16_19h47.50.062,vbt_B1_day1,2022.2.4,Win32,60.07449237,,,,,,,,,,,,,,,,,,,0.310185185,-0.072222215,1,0,0,2.9669,2,23,75,15,1,p,images/br_p.png,images/cb_p.png,,,,,,,,,,,,,,,,,,,,,,,,,
,,,,,,00063,2023-10-16_19h47.50.062,vbt_B1_day1,2022.2.4,Win32,60.07449237,,,,,,,,,,,,,,,,,,,0.310185185,-0.072222215,1,0,0,1.3836,2,24,76,7,1,h,images/br_h.png,images/cb_h.png,,,,,,,,,,,,,,,,,,,,,,,,,
,,,,,,00063,2023-10-16_19h47.50.062,vbt_B1_day1,2022.2.4,Win32,60.07449237,,,,,,,,,,,,,,,,,,,0.310185185,-0.072222215,1,0,0,0.7167,2,25,77,19,1,t,images/br_t.png,images/cb_t.png,,,,,,,,,,,,,,,,,,,,,,,,,
,,,,,,00063,2023-10-16_19h47.50.062,vbt_B1_day1,2022.2.4,Win32,60.07449237,,,,,,,,,,,,,,,,,,,0.304629714,-0.066666674,1,0,0,1.8502,3,0,78,5,1,f,images/br_f.png,images/cb_f.png,,,,,,,,,,,,,,,,,,,,,,,,,
,,,,,,00063,2023-10-16_19h47.50.062,vbt_B1_day1,2022.2.4,Win32,60.07449237,,,,,,,,,,,,,,,,,,,0.304629714,-0.066666674,1,0,0,0.8334,3,1,79,18,1,s,images/br_s.png,images/cb_s.png,,,,,,,,,,,,,,,,,,,,,,,,,
,,,,,,00063,2023-10-16_19h47.50.062,vbt_B1_day1,2022.2.4,Win32,60.07449237,,,,,,,,,,,,,,,,,,,0.304629714,-0.066666674,1,0,0,2.6166,3,2,80,6,1,g,images/br_g.png,images/cb_g.png,,,,,,,,,,,,,,,,,,,,,,,,,
,,,,,,00063,2023-10-16_19h47.50.062,vbt_B1_day1,2022.2.4,Win32,60.07449237,,,,,,,,,,,,,,,,,,,0.304629714,-0.066666674,1,0,0,0.2,3,3,81,15,1,p,images/br_p.png,images/cb_p.png,,,,,,,,,,,,,,,,,,,,,,,,,
,,,,,,00063,2023-10-16_19h47.50.062,vbt_B1_day1,2022.2.4,Win32,60.07449237,,,,,,,,,,,,,,,,,,,0.304629714,-0.066666674,1,0,0,0.5949,3,4,82,12,1,m,images/br_m.png,images/cb_m.png,,,,,,,,,,,,,,,,,,,,,,,,,
,,,,,,00063,2023-10-16_19h47.50.062,vbt_B1_day1,2022.2.4,Win32,60.07449237,,,,,,,,,,,,,,,,,,,0.304629714,-0.066666674,1,0,0,1.3104,3,5,83,1,1,b,images/br_b.png,images/cb_b.png,,,,,,,,,,,,,,,,,,,,,,,,,
,,,,,,00063,2023-10-16_19h47.50.062,vbt_B1_day1,2022.2.4,Win32,60.07449237,,,,,,,,,,,,,,,,,,,0.304629714,-0.066666674,1,0,0,0.4335,3,6,84,8,1,i,images/br_i.png,images/cb_i.png,,,,,,,,,,,,,,,,,,,,,,,,,
,,,,,,00063,2023-10-16_19h47.50.062,vbt_B1_day1,2022.2.4,Win32,60.07449237,,,,,,,,,,,,,,,,,,,0.304629714,-0.066666674,1,0,0,5.5665,3,7,85,0,1,a,images/br_a.png,images/cb_a.png,,,,,,,,,,,,,,,,,,,,,,,,,
,,,,,,00063,2023-10-16_19h47.50.062,vbt_B1_day1,2022.2.4,Win32,60.07449237,,,,,,,,,,,,,,,,,,,0.304629714,-0.063888903,1,0,0,0.7699,3,8,86,22,1,w,images/br_w.png,images/cb_w.png,,,,,,,,,,,,,,,,,,,,,,,,,
,,,,,,00063,2023-10-16_19h47.50.062,vbt_B1_day1,2022.2.4,Win32,60.07449237,,,,,,,,,,,,,,,,,,,0.304629714,-0.063888903,1,0,0,0.6834,3,9,87,16,1,q,images/br_q.png,images/cb_q.png,,,,,,,,,,,,,,,,,,,,,,,,,
,,,,,,00063,2023-10-16_19h47.50.062,vbt_B1_day1,2022.2.4,Win32,60.07449237,,,,,,,,,,,,,,,,,,,0.184259273,-0.026851866,1,0,0,2.0773,3,10,88,14,1,o,images/br_o.png,images/cb_o.png,,,,,,,,,,,,,,,,,,,,,,,,,
,,,,,,00063,2023-10-16_19h47.50.062,vbt_B1_day1,2022.2.4,Win32,60.07449237,,,,,,,,,,,,,,,,,,,0.184259273,-0.026851866,1,0,0,1.1168,3,11,89,9,1,j,images/br_j.png,images/cb_j.png,,,,,,,,,,,,,,,,,,,,,,,,,
,,,,,,00063,2023-10-16_19h47.50.062,vbt_B1_day1,2022.2.4,Win32,60.07449237,,,,,,,,,,,,,,,,,,,0.184259273,-0.026851866,1,0,0,1.0602,3,12,90,25,1,z,images/br_z.png,images/cb_z.png,,,,,,,,,,,,,,,,,,,,,,,,,
,,,,,,00063,2023-10-16_19h47.50.062,vbt_B1_day1,2022.2.4,Win32,60.07449237,,,,,,,,,,,,,,,,,,,0.184259273,-0.026851866,1,0,0,1.6834,3,13,91,21,1,v,images/br_v.png,images/cb_v.png,,,,,,,,,,,,,,,,,,,,,,,,,
,,,,,,00063,2023-10-16_19h47.50.062,vbt_B1_day1,2022.2.4,Win32,60.07449237,,,,,,,,,,,,,,,,,,,0.184259273,-0.026851866,1,0,0,0.9667,3,14,92,24,1,y,images/br_y.png,images/cb_y.png,,,,,,,,,,,,,,,,,,,,,,,,,
,,,,,,00063,2023-10-16_19h47.50.062,vbt_B1_day1,2022.2.4,Win32,60.07449237,,,,,,,,,,,,,,,,,,,0.184259273,-0.026851866,1,0,0,3.5001,3,15,93,20,1,u,images/br_u.png,images/cb_u.png,,,,,,,,,,,,,,,,,,,,,,,,,
,,,,,,00063,2023-10-16_19h47.50.062,vbt_B1_day1,2022.2.4,Win32,60.07449237,,,,,,,,,,,,,,,,,,,0.184259273,-0.026851866,1,0,0,4.9003,3,16,94,17,1,r,images/br_r.png,images/cb_r.png,,,,,,,,,,,,,,,,,,,,,,,,,
,,,,,,00063,2023-10-16_19h47.50.062,vbt_B1_day1,2022.2.4,Win32,60.07449237,,,,,,,,,,,,,,,,,,,0.184259273,-0.026851866,1,0,0,1.7669,3,17,95,13,1,n,images/br_n.png,images/cb_n.png,,,,,,,,,,,,,,,,,,,,,,,,,
,,,,,,00063,2023-10-16_19h47.50.062,vbt_B1_day1,2022.2.4,Win32,60.07449237,,,,,,,,,,,,,,,,,,,0.184259273,-0.026851866,1,0,0,0.8834,3,18,96,19,1,t,images/br_t.png,images/cb_t.png,,,,,,,,,,,,,,,,,,,,,,,,,
,,,,,,00063,2023-10-16_19h47.50.062,vbt_B1_day1,2022.2.4,Win32,60.07449237,,,,,,,,,,,,,,,,,,,0.184259273,-0.026851866,1,0,0,0.9,3,19,97,2,1,c,images/br_c.png,images/cb_c.png,,,,,,,,,,,,,,,,,,,,,,,,,
,,,,,,00063,2023-10-16_19h47.50.062,vbt_B1_day1,2022.2.4,Win32,60.07449237,,,,,,,,,,,,,,,,,,,0.199999986,0.155555548,1,0,0,2.4002,3,20,98,11,1,l,images/br_l.png,images/cb_l.png,,,,,,,,,,,,,,,,,,,,,,,,,
,,,,,,00063,2023-10-16_19h47.50.062,vbt_B1_day1,2022.2.4,Win32,60.07449237,,,,,,,,,,,,,,,,,,,0.199999986,0.155555548,1,0,0,0.6167,3,21,99,3,1,d,images/br_d.png,images/cb_d.png,,,,,,,,,,,,,,,,,,,,,,,,,
,,,,,,00063,2023-10-16_19h47.50.062,vbt_B1_day1,2022.2.4,Win32,60.07449237,,,,,,,,,,,,,,,,,,,0.198148162,0.155555548,1,0,0,0.5244,3,22,100,23,1,x,images/br_x.png,images/cb_x.png,,,,,,,,,,,,,,,,,,,,,,,,,
,,,,,,00063,2023-10-16_19h47.50.062,vbt_B1_day1,2022.2.4,Win32,60.07449237,,,,,,,,,,,,,,,,,,,0.198148162,0.155555548,1,0,0,0.2334,3,23,101,10,1,k,images/br_k.png,images/cb_k.png,,,,,,,,,,,,,,,,,,,,,,,,,
,,,,,,00063,2023-10-16_19h47.50.062,vbt_B1_day1,2022.2.4,Win32,60.07449237,,,,,,,,,,,,,,,,,,,0.198148162,0.155555548,1,0,0,1.55,3,24,102,7,1,h,images/br_h.png,images/cb_h.png,,,,,,,,,,,,,,,,,,,,,,,,,
,,,,,,00063,2023-10-16_19h47.50.062,vbt_B1_day1,2022.2.4,Win32,60.07449237,,,,,,,,,,,,,,,,,,,0.198148162,0.155555548,1,0,0,0.2166,3,25,103,4,1,e,images/br_e.png,images/cb_e.png,,,,,,,,,,,,,,,,,,,,,,,,,
,,,,,,00063,2023-10-16_19h47.50.062,vbt_B1_day1,2022.2.4,Win32,60.07449237,,,,,,,,,,,,,,,,,,,0.198148162,0.155555548,1,0,0,0.35,4,0,104,24,1,y,images/br_y.png,images/cb_y.png,,,,,,,,,,,,,,,,,,,,,,,,,
,,,,,,00063,2023-10-16_19h47.50.062,vbt_B1_day1,2022.2.4,Win32,60.07449237,,,,,,,,,,,,,,,,,,,0.198148162,0.155555548,1,0,0,1.4333,4,1,105,5,1,f,images/br_f.png,images/cb_f.png,,,,,,,,,,,,,,,,,,,,,,,,,
,,,,,,00063,2023-10-16_19h47.50.062,vbt_B1_day1,2022.2.4,Win32,60.07449237,,,,,,,,,,,,,,,,,,,0.198148162,0.155555548,1,0,0,1.4831,4,2,106,1,1,b,images/br_b.png,images/cb_b.png,,,,,,,,,,,,,,,,,,,,,,,,,
,,,,,,00063,2023-10-16_19h47.50.062,vbt_B1_day1,2022.2.4,Win32,60.07449237,,,,,,,,,,,,,,,,,,,0.198148162,0.155555548,1,0,0,0.0834,4,3,107,22,1,w,images/br_w.png,images/cb_w.png,,,,,,,,,,,,,,,,,,,,,,,,,
,,,,,,00063,2023-10-16_19h47.50.062,vbt_B1_day1,2022.2.4,Win32,60.07449237,,,,,,,,,,,,,,,,,,,0.299074102,0.255555559,1,0,0,1.2501,4,4,108,3,1,d,images/br_d.png,images/cb_d.png,,,,,,,,,,,,,,,,,,,,,,,,,
,,,,,,00063,2023-10-16_19h47.50.062,vbt_B1_day1,2022.2.4,Win32,60.07449237,,,,,,,,,,,,,,,,,,,0.299074102,0.255555559,1,0,0,1.6335,4,5,109,9,1,j,images/br_j.png,images/cb_j.png,,,,,,,,,,,,,,,,,,,,,,,,,
,,,,,,00063,2023-10-16_19h47.50.062,vbt_B1_day1,2022.2.4,Win32,60.07449237,,,,,,,,,,,,,,,,,,,0.299074102,0.255555559,1,0,0,1.2133,4,6,110,12,1,m,images/br_m.png,images/cb_m.png,,,,,,,,,,,,,,,,,,,,,,,,,
,,,,,,00063,2023-10-16_19h47.50.062,vbt_B1_day1,2022.2.4,Win32,60.07449237,,,,,,,,,,,,,,,,,,,0.299074102,0.255555559,1,0,0,0.5563,4,7,111,0,1,a,images/br_a.png,images/cb_a.png,,,,,,,,,,,,,,,,,,,,,,,,,
,,,,,,00063,2023-10-16_19h47.50.062,vbt_B1_day1,2022.2.4,Win32,60.07449237,,,,,,,,,,,,,,,,,,,0.299074102,0.255555559,1,0,0,2.2668,4,8,112,17,1,r,images/br_r.png,images/cb_r.png,,,,,,,,,,,,,,,,,,,,,,,,,
,,,,,,00063,2023-10-16_19h47.50.062,vbt_B1_day1,2022.2.4,Win32,60.07449237,,,,,,,,,,,,,,,,,,,0.30277775,0.148148148,1,0,0,1.5495,4,9,113,2,1,c,images/br_c.png,images/cb_c.png,,,,,,,,,,,,,,,,,,,,,,,,,
,,,,,,00063,2023-10-16_19h47.50.062,vbt_B1_day1,2022.2.4,Win32,60.07449237,,,,,,,,,,,,,,,,,,,0.30277775,0.148148148,1,0,0,1.4666,4,10,114,21,1,v,images/br_v.png,images/cb_v.png,,,,,,,,,,,,,,,,,,,,,,,,,
,,,,,,00063,2023-10-16_19h47.50.062,vbt_B1_day1,2022.2.4,Win32,60.07449237,,,,,,,,,,,,,,,,,,,0.30277775,0.148148148,1,0,0,4.2833,4,11,115,13,1,n,images/br_n.png,images/cb_n.png,,,,,,,,,,,,,,,,,,,,,,,,,
,,,,,,00063,2023-10-16_19h47.50.062,vbt_B1_day1,2022.2.4,Win32,60.07449237,,,,,,,,,,,,,,,,,,,0.30277775,0.148148148,1,0,0,1.0173,4,12,116,25,1,z,images/br_z.png,images/cb_z.png,,,,,,,,,,,,,,,,,,,,,,,,,
,,,,,,00063,2023-10-16_19h47.50.062,vbt_B1_day1,2022.2.4,Win32,60.07449237,,,,,,,,,,,,,,,,,,,0.30277775,0.148148148,1,0,0,2.4011,4,13,117,16,1,q,images/br_q.png,images/cb_q.png,,,,,,,,,,,,,,,,,,,,,,,,,
,,,,,,00063,2023-10-16_19h47.50.062,vbt_B1_day1,2022.2.4,Win32,60.07449237,,,,,,,,,,,,,,,,,,,0.30277775,0.148148148,1,0,0,0.5669,4,14,118,20,1,u,images/br_u.png,images/cb_u.png,,,,,,,,,,,,,,,,,,,,,,,,,
,,,,,,00063,2023-10-16_19h47.50.062,vbt_B1_day1,2022.2.4,Win32,60.07449237,,,,,,,,,,,,,,,,,,,0.30277775,0.148148148,1,0,0,0.7167,4,15,119,15,1,p,images/br_p.png,images/cb_p.png,,,,,,,,,,,,,,,,,,,,,,,,,
,,,,,,00063,2023-10-16_19h47.50.062,vbt_B1_day1,2022.2.4,Win32,60.07449237,,,,,,,,,,,,,,,,,,,0.30277775,0.148148148,1,0,0,4.7001,4,16,120,6,1,g,images/br_g.png,images/cb_g.png,,,,,,,,,,,,,,,,,,,,,,,,,
,,,,,,00063,2023-10-16_19h47.50.062,vbt_B1_day1,2022.2.4,Win32,60.07449237,,,,,,,,,,,,,,,,,,,0.30277775,0.148148148,1,0,0,0.983,4,17,121,14,1,o,images/br_o.png,images/cb_o.png,,,,,,,,,,,,,,,,,,,,,,,,,
,,,,,,00063,2023-10-16_19h47.50.062,vbt_B1_day1,2022.2.4,Win32,60.07449237,,,,,,,,,,,,,,,,,,,0.30277775,0.148148148,1,0,0,0.2498,4,18,122,8,1,i,images/br_i.png,images/cb_i.png,,,,,,,,,,,,,,,,,,,,,,,,,
,,,,,,00063,2023-10-16_19h47.50.062,vbt_B1_day1,2022.2.4,Win32,60.07449237,,,,,,,,,,,,,,,,,,,0.30277775,0.148148148,1,0,0,0.0172,4,19,123,23,1,x,images/br_x.png,images/cb_x.png,,,,,,,,,,,,,,,,,,,,,,,,,
,,,,,,00063,2023-10-16_19h47.50.062,vbt_B1_day1,2022.2.4,Win32,60.07449237,,,,,,,,,,,,,,,,,,,0.187037079,-0.017592607,1,0,0,1.5167,4,20,124,11,1,l,images/br_l.png,images/cb_l.png,,,,,,,,,,,,,,,,,,,,,,,,,
,,,,,,00063,2023-10-16_19h47.50.062,vbt_B1_day1,2022.2.4,Win32,60.07449237,,,,,,,,,,,,,,,,,,,0.187037079,-0.017592607,1,0,0,1.2668,4,21,125,7,1,h,images/br_h.png,images/cb_h.png,,,,,,,,,,,,,,,,,,,,,,,,,
,,,,,,00063,2023-10-16_19h47.50.062,vbt_B1_day1,2022.2.4,Win32,60.07449237,,,,,,,,,,,,,,,,,,,0.187037079,-0.017592607,1,0,0,0.7,4,22,126,4,1,e,images/br_e.png,images/cb_e.png,,,,,,,,,,,,,,,,,,,,,,,,,
,,,,,,00063,2023-10-16_19h47.50.062,vbt_B1_day1,2022.2.4,Win32,60.07449237,,,,,,,,,,,,,,,,,,,0.187037079,-0.017592607,1,0,0,1.4001,4,23,127,19,1,t,images/br_t.png,images/cb_t.png,,,,,,,,,,,,,,,,,,,,,,,,,
,,,,,,00063,2023-10-16_19h47.50.062,vbt_B1_day1,2022.2.4,Win32,60.07449237,,,,,,,,,,,,,,,,,,,0.187037079,-0.017592607,1,0,0,0.1501,4,24,128,10,1,k,images/br_k.png,images/cb_k.png,,,,,,,,,,,,,,,,,,,,,,,,,
,,,,,,00063,2023-10-16_19h47.50.062,vbt_B1_day1,2022.2.4,Win32,60.07449237,,,,,,,,,,,,,,,,,,,0.187037079,-0.017592607,1,0,0,1.2169,4,25,129,18,1,s,images/br_s.png,images/cb_s.png,,,,,,,,,,,,,,,,,,,,,,,,,
,,,,,,00063,2023-10-16_19h47.50.062,vbt_B1_day1,2022.2.4,Win32,60.07449237,,,,,,,,,,,,,,,,,,,0.187037079,-0.017592607,1,0,0,0.9669,5,0,130,24,1,y,images/br_y.png,images/cb_y.png,,,,,,,,,,,,,,,,,,,,,,,,,
,,,,,,00063,2023-10-16_19h47.50.062,vbt_B1_day1,2022.2.4,Win32,60.07449237,,,,,,,,,,,,,,,,,,,0.187037079,-0.017592607,1,0,0,0.4496,5,1,131,8,1,i,images/br_i.png,images/cb_i.png,,,,,,,,,,,,,,,,,,,,,,,,,
,,,,,,00063,2023-10-16_19h47.50.062,vbt_B1_day1,2022.2.4,Win32,60.07449237,,,,,,,,,,,,,,,,,,,0.187037079,-0.017592607,1,0,0,0.4829,5,2,132,21,1,v,images/br_v.png,images/cb_v.png,,,,,,,,,,,,,,,,,,,,,,,,,
,,,,,,00063,2023-10-16_19h47.50.062,vbt_B1_day1,2022.2.4,Win32,60.07449237,,,,,,,,,,,,,,,,,,,0.187037079,-0.017592607,1,0,0,0.5169,5,3,133,16,1,q,images/br_q.png,images/cb_q.png,,,,,,,,,,,,,,,,,,,,,,,,,
,,,,,,00063,2023-10-16_19h47.50.062,vbt_B1_day1,2022.2.4,Win32,60.07449237,,,,,,,,,,,,,,,,,,,0.187037079,-0.017592607,1,0,0,0.4666,5,4,134,10,1,k,images/br_k.png,images/cb_k.png,,,,,,,,,,,,,,,,,,,,,,,,,
,,,,,,00063,2023-10-16_19h47.50.062,vbt_B1_day1,2022.2.4,Win32,60.07449237,,,,,,,,,,,,,,,,,,,0.187037079,-0.017592607,1,0,0,0.8666,5,5,135,12,1,m,images/br_m.png,images/cb_m.png,,,,,,,,,,,,,,,,,,,,,,,,,
,,,,,,00063,2023-10-16_19h47.50.062,vbt_B1_day1,2022.2.4,Win32,60.07449237,,,,,,,,,,,,,,,,,,,0.187037079,-0.017592607,1,0,0,1.0839,5,6,136,18,1,s,images/br_s.png,images/cb_s.png,,,,,,,,,,,,,,,,,,,,,,,,,
,,,,,,00063,2023-10-16_19h47.50.062,vbt_B1_day1,2022.2.4,Win32,60.07449237,,,,,,,,,,,,,,,,,,,0.187037079,-0.017592607,1,0,0,0.1834,5,7,137,3,1,d,images/br_d.png,images/cb_d.png,,,,,,,,,,,,,,,,,,,,,,,,,
,,,,,,00063,2023-10-16_19h47.50.062,vbt_B1_day1,2022.2.4,Win32,60.07449237,,,,,,,,,,,,,,,,,,,0.187037079,-0.017592607,1,0,0,0.623,5,8,138,15,1,p,images/br_p.png,images/cb_p.png,,,,,,,,,,,,,,,,,,,,,,,,,
,,,,,,00063,2023-10-16_19h47.50.062,vbt_B1_day1,2022.2.4,Win32,60.07449237,,,,,,,,,,,,,,,,,,,0.187037079,-0.017592607,1,0,0,0.7168,5,9,139,9,1,j,images/br_j.png,images/cb_j.png,,,,,,,,,,,,,,,,,,,,,,,,,
,,,,,,00063,2023-10-16_19h47.50.062,vbt_B1_day1,2022.2.4,Win32,60.07449237,,,,,,,,,,,,,,,,,,,0.187037079,-0.017592607,1,0,0,0.0995,5,10,140,2,1,c,images/br_c.png,images/cb_c.png,,,,,,,,,,,,,,,,,,,,,,,,,
,,,,,,00063,2023-10-16_19h47.50.062,vbt_B1_day1,2022.2.4,Win32,60.07449237,,,,,,,,,,,,,,,,,,,0.187037079,-0.017592607,1,0,0,1.9173,5,11,141,17,1,r,images/br_r.png,images/cb_r.png,,,,,,,,,,,,,,,,,,,,,,,,,
,,,,,,00063,2023-10-16_19h47.50.062,vbt_B1_day1,2022.2.4,Win32,60.07449237,,,,,,,,,,,,,,,,,,,0.187037079,-0.017592607,1,0,0,0.7838,5,12,142,25,1,z,images/br_z.png,images/cb_z.png,,,,,,,,,,,,,,,,,,,,,,,,,
,,,,,,00063,2023-10-16_19h47.50.062,vbt_B1_day1,2022.2.4,Win32,60.07449237,,,,,,,,,,,,,,,,,,,0.210185228,-0.053703697,1,0,0,1.3835,5,13,143,14,1,o,images/br_o.png,images/cb_o.png,,,,,,,,,,,,,,,,,,,,,,,,,
,,,,,,00063,2023-10-16_19h47.50.062,vbt_B1_day1,2022.2.4,Win32,60.07449237,,,,,,,,,,,,,,,,,,,0.210185228,-0.053703697,1,0,0,0.3335,5,14,144,7,1,h,images/br_h.png,images/cb_h.png,,,,,,,,,,,,,,,,,,,,,,,,,
,,,,,,00063,2023-10-16_19h47.50.062,vbt_B1_day1,2022.2.4,Win32,60.07449237,,,,,,,,,,,,,,,,,,,0.210185228,-0.053703697,1,0,0,0.133,5,15,145,1,1,b,images/br_b.png,images/cb_b.png,,,,,,,,,,,,,,,,,,,,,,,,,
,,,,,,00063,2023-10-16_19h47.50.062,vbt_B1_day1,2022.2.4,Win32,60.07449237,,,,,,,,,,,,,,,,,,,0.210185228,-0.053703697,1,0,0,0.0337,5,16,146,13,1,n,images/br_n.png,images/cb_n.png,,,,,,,,,,,,,,,,,,,,,,,,,
,,,,,,00063,2023-10-16_19h47.50.062,vbt_B1_day1,2022.2.4,Win32,60.07449237,,,,,,,,,,,,,,,,,,,0.210185228,-0.053703697,1,0,0,1.5668,5,17,147,0,1,a,images/br_a.png,images/cb_a.png,,,,,,,,,,,,,,,,,,,,,,,,,
,,,,,,00063,2023-10-16_19h47.50.062,vbt_B1_day1,2022.2.4,Win32,60.07449237,,,,,,,,,,,,,,,,,,,0.20185188,0.069444444,1,0,0,1.467,5,18,148,6,1,g,images/br_g.png,images/cb_g.png,,,,,,,,,,,,,,,,,,,,,,,,,
,,,,,,00063,2023-10-16_19h47.50.062,vbt_B1_day1,2022.2.4,Win32,60.07449237,,,,,,,,,,,,,,,,,,,0.164814843,0.13703703,1,0,0,1.7996,5,19,149,23,1,x,images/br_x.png,images/cb_x.png,,,,,,,,,,,,,,,,,,,,,,,,,
,,,,,,00063,2023-10-16_19h47.50.062,vbt_B1_day1,2022.2.4,Win32,60.07449237,,,,,,,,,,,,,,,,,,,0.164814843,0.13703703,1,0,0,1.7875,5,20,150,20,1,u,images/br_u.png,images/cb_u.png,,,,,,,,,,,,,,,,,,,,,,,,,
,,,,,,00063,2023-10-16_19h47.50.062,vbt_B1_day1,2022.2.4,Win32,60.07449237,,,,,,,,,,,,,,,,,,,0.164814843,0.13703703,1,0,0,0.0665,5,21,151,11,1,l,images/br_l.png,images/cb_l.png,,,,,,,,,,,,,,,,,,,,,,,,,
,,,,,,00063,2023-10-16_19h47.50.062,vbt_B1_day1,2022.2.4,Win32,60.07449237,,,,,,,,,,,,,,,,,,,0.164814843,0.13703703,1,0,0,2.8003,5,22,152,5,1,f,images/br_f.png,images/cb_f.png,,,,,,,,,,,,,,,,,,,,,,,,,
,,,,,,00063,2023-10-16_19h47.50.062,vbt_B1_day1,2022.2.4,Win32,60.07449237,,,,,,,,,,,,,,,,,,,0.164814843,0.13703703,1,0,0,0.7501,5,23,153,19,1,t,images/br_t.png,images/cb_t.png,,,,,,,,,,,,,,,,,,,,,,,,,
,,,,,,00063,2023-10-16_19h47.50.062,vbt_B1_day1,2022.2.4,Win32,60.07449237,,,,,,,,,,,,,,,,,,,0.164814843,0.13703703,1,0,0,1.0335,5,24,154,22,1,w,images/br_w.png,images/cb_w.png,,,,,,,,,,,,,,,,,,,,,,,,,
,,,,,,00063,2023-10-16_19h47.50.062,vbt_B1_day1,2022.2.4,Win32,60.07449237,,,,,,,,,,,,,,,,,,,0.164814843,0.13703703,1,0,0,1.0501,5,25,155,4,1,e,images/br_e.png,images/cb_e.png,,,,,,,,,,,,,,,,,,,,,,,,,
,,,,,,00063,2023-10-16_19h47.50.062,vbt_B1_day1,2022.2.4,Win32,60.07449237,,,,,,,,,,,,,,,,,,,0.164814843,0.13703703,1,0,0,1.1996,6,0,156,9,1,j,images/br_j.png,images/cb_j.png,,,,,,,,,,,,,,,,,,,,,,,,,
,,,,,,00063,2023-10-16_19h47.50.062,vbt_B1_day1,2022.2.4,Win32,60.07449237,,,,,,,,,,,,,,,,,,,0.164814843,0.13703703,1,0,0,0.6162,6,1,157,1,1,b,images/br_b.png,images/cb_b.png,,,,,,,,,,,,,,,,,,,,,,,,,
,,,,,,00063,2023-10-16_19h47.50.062,vbt_B1_day1,2022.2.4,Win32,60.07449237,,,,,,,,,,,,,,,,,,,0.164814843,0.13703703,1,0,0,0.7164,6,2,158,11,1,l,images/br_l.png,images/cb_l.png,,,,,,,,,,,,,,,,,,,,,,,,,
,,,,,,00063,2023-10-16_19h47.50.062,vbt_B1_day1,2022.2.4,Win32,60.07449237,,,,,,,,,,,,,,,,,,,0.241666653,0.140740748,1,0,0,1.8661,6,3,159,8,1,i,images/br_i.png,images/cb_i.png,,,,,,,,,,,,,,,,,,,,,,,,,
,,,,,,00063,2023-10-16_19h47.50.062,vbt_B1_day1,2022.2.4,Win32,60.07449237,,,,,,,,,,,,,,,,,,,0.241666653,0.140740748,1,0,0,0.8999,6,4,160,20,1,u,images/br_u.png,images/cb_u.png,,,,,,,,,,,,,,,,,,,,,,,,,
,,,,,,00063,2023-10-16_19h47.50.062,vbt_B1_day1,2022.2.4,Win32,60.07449237,,,,,,,,,,,,,,,,,,,0.241666653,0.140740748,1,0,0,3.1666,6,5,161,7,1,h,images/br_h.png,images/cb_h.png,,,,,,,,,,,,,,,,,,,,,,,,,
,,,,,,00063,2023-10-16_19h47.50.062,vbt_B1_day1,2022.2.4,Win32,60.07449237,,,,,,,,,,,,,,,,,,,0.241666653,0.140740748,1,0,0,0.7663,6,6,162,10,1,k,images/br_k.png,images/cb_k.png,,,,,,,,,,,,,,,,,,,,,,,,,
,,,,,,00063,2023-10-16_19h47.50.062,vbt_B1_day1,2022.2.4,Win32,60.07449237,,,,,,,,,,,,,,,,,,,0.241666653,0.140740748,1,0,0,3.0995,6,7,163,17,1,r,images/br_r.png,images/cb_r.png,,,,,,,,,,,,,,,,,,,,,,,,,
,,,,,,00063,2023-10-16_19h47.50.062,vbt_B1_day1,2022.2.4,Win32,60.07449237,,,,,,,,,,,,,,,,,,,0.241666653,0.140740748,1,0,0,0.433,6,8,164,19,1,t,images/br_t.png,images/cb_t.png,,,,,,,,,,,,,,,,,,,,,,,,,
,,,,,,00063,2023-10-16_19h47.50.062,vbt_B1_day1,2022.2.4,Win32,60.07449237,,,,,,,,,,,,,,,,,,,0.241666653,0.140740748,1,0,0,0.2994,6,9,165,15,1,p,images/br_p.png,images/cb_p.png,,,,,,,,,,,,,,,,,,,,,,,,,
,,,,,,00063,2023-10-16_19h47.50.062,vbt_B1_day1,2022.2.4,Win32,60.07449237,,,,,,,,,,,,,,,,,,,0.241666653,0.140740748,1,0,0,0.7006,6,10,166,25,1,z,images/br_z.png,images/cb_z.png,,,,,,,,,,,,,,,,,,,,,,,,,
,,,,,,00063,2023-10-16_19h47.50.062,vbt_B1_day1,2022.2.4,Win32,60.07449237,,,,,,,,,,,,,,,,,,,0.241666653,0.140740748,1,0,0,0.4997,6,11,167,3,1,d,images/br_d.png,images/cb_d.png,,,,,,,,,,,,,,,,,,,,,,,,,
,,,,,,00063,2023-10-16_19h47.50.062,vbt_B1_day1,2022.2.4,Win32,60.07449237,,,,,,,,,,,,,,,,,,,0.241666653,0.140740748,1,0,0,0.3664,6,12,168,4,1,e,images/br_e.png,images/cb_e.png,,,,,,,,,,,,,,,,,,,,,,,,,
,,,,,,00063,2023-10-16_19h47.50.062,vbt_B1_day1,2022.2.4,Win32,60.07449237,,,,,,,,,,,,,,,,,,,0.241666653,0.140740748,1,0,0,0.3166,6,13,169,13,1,n,images/br_n.png,images/cb_n.png,,,,,,,,,,,,,,,,,,,,,,,,,
,,,,,,00063,2023-10-16_19h47.50.062,vbt_B1_day1,2022.2.4,Win32,60.07449237,,,,,,,,,,,,,,,,,,,0.241666653,0.140740748,1,0,0,1.8838,6,14,170,22,1,w,images/br_w.png,images/cb_w.png,,,,,,,,,,,,,,,,,,,,,,,,,
,,,,,,00063,2023-10-16_19h47.50.062,vbt_B1_day1,2022.2.4,Win32,60.07449237,,,,,,,,,,,,,,,,,,,0.241666653,0.140740748,1,0,0,1.2335,6,15,171,18,1,s,images/br_s.png,images/cb_s.png,,,,,,,,,,,,,,,,,,,,,,,,,
,,,,,,00063,2023-10-16_19h47.50.062,vbt_B1_day1,2022.2.4,Win32,60.07449237,,,,,,,,,,,,,,,,,,,0.241666653,0.140740748,1,0,0,0.4501,6,16,172,12,1,m,images/br_m.png,images/cb_m.png,,,,,,,,,,,,,,,,,,,,,,,,,
,,,,,,00063,2023-10-16_19h47.50.062,vbt_B1_day1,2022.2.4,Win32,60.07449237,,,,,,,,,,,,,,,,,,,0.241666653,0.140740748,1,0,0,0.1896,6,17,173,6,1,g,images/br_g.png,images/cb_g.png,,,,,,,,,,,,,,,,,,,,,,,,,
,,,,,,00063,2023-10-16_19h47.50.062,vbt_B1_day1,2022.2.4,Win32,60.07449237,,,,,,,,,,,,,,,,,,,0.241666653,0.140740748,1,0,0,0.5667,6,18,174,21,1,v,images/br_v.png,images/cb_v.png,,,,,,,,,,,,,,,,,,,,,,,,,
,,,,,,00063,2023-10-16_19h47.50.062,vbt_B1_day1,2022.2.4,Win32,60.07449237,,,,,,,,,,,,,,,,,,,0.241666653,0.140740748,1,0,0,2.7834,6,19,175,16,1,q,images/br_q.png,images/cb_q.png,,,,,,,,,,,,,,,,,,,,,,,,,
,,,,,,00063,2023-10-16_19h47.50.062,vbt_B1_day1,2022.2.4,Win32,60.07449237,,,,,,,,,,,,,,,,,,,0.179629644,0.074999986,1,0,0,1.3505,6,20,176,0,1,a,images/br_a.png,images/cb_a.png,,,,,,,,,,,,,,,,,,,,,,,,,
,,,,,,00063,2023-10-16_19h47.50.062,vbt_B1_day1,2022.2.4,Win32,60.07449237,,,,,,,,,,,,,,,,,,,0.179629644,0.074999986,1,0,0,2.7,6,21,177,2,1,c,images/br_c.png,images/cb_c.png,,,,,,,,,,,,,,,,,,,,,,,,,
,,,,,,00063,2023-10-16_19h47.50.062,vbt_B1_day1,2022.2.4,Win32,60.07449237,,,,,,,,,,,,,,,,,,,0.179629644,0.074999986,1,0,0,2.3008,6,22,178,24,1,y,images/br_y.png,images/cb_y.png,,,,,,,,,,,,,,,,,,,,,,,,,
,,,,,,00063,2023-10-16_19h47.50.062,vbt_B1_day1,2022.2.4,Win32,60.07449237,,,,,,,,,,,,,,,,,,,0.179629644,0.074999986,1,0,0,0.9166,6,23,179,23,1,x,images/br_x.png,images/cb_x.png,,,,,,,,,,,,,,,,,,,,,,,,,
,,,,,,00063,2023-10-16_19h47.50.062,vbt_B1_day1,2022.2.4,Win32,60.07449237,,,,,,,,,,,,,,,,,,,0.179629644,0.074999986,1,0,0,6.4333,6,24,180,5,1,f,images/br_f.png,images/cb_f.png,,,,,,,,,,,,,,,,,,,,,,,,,
,,,,,,00063,2023-10-16_19h47.50.062,vbt_B1_day1,2022.2.4,Win32,60.07449237,,,,,,,,,,,,,,,,,,,0.187037079,0.038888896,1,0,0,1.4994,6,25,181,14,1,o,images/br_o.png,images/cb_o.png,,,,,,,,,,,,,,,,,,,,,,,,,
,,,,,,00063,2023-10-16_19h47.50.062,vbt_B1_day1,2022.2.4,Win32,60.07449237,,,,,,,,,,,,,,,,,,,,,,,,,,,,,,,,,0.187037079,0.038888896,1,0,0,,,,,,,,,,,,,,,,,,,,
,,,,,,00063,2023-10-16_19h47.50.062,vbt_B1_day1,2022.2.4,Win32,60.07449237,,,,,,,,,,,,,,,,,,,,,,,,,,,,,,,,,,,,,,0.660185213,-0.101851852,1,0,0,,,,,,,,,,,,,,,
,,,,,,00063,2023-10-16_19h47.50.062,vbt_B1_day1,2022.2.4,Win32,60.07449237,,,,,,,,,,,,,,,,,,,,,,,,,,,,,,,,,,,,,,,,,,,0.110185199,0.162962949,1,0,0,.ie,.ie,0,0,0,15,1,hiervan,images/br_hiervan.png,images/cb_hiervan.png
,,,,,,00063,2023-10-16_19h47.50.062,vbt_B1_day1,2022.2.4,Win32,60.07449237,,,,,,,,,,,,,,,,,,,,,,,,,,,,,,,,,,,,,,,,,,,0.425925926,0.226851852,1,0,0,...eik,...eik,0,1,1,10,1,muziek,images/br_muziek.png,images/cb_muziek.png
,,,,,,00063,2023-10-16_19h47.50.062,vbt_B1_day1,2022.2.4,Win32,60.07449237,,,,,,,,,,,,,,,,,,,,,,,,,,,,,,,,,,,,,,,,,,,0.425925926,0.226851852,1,0,0,..uike.,..uike.,0,2,2,35,1,stuikem,images/br_stuikem.png,images/cb_stuikem.png
,,,,,,00063,2023-10-16_19h47.50.062,vbt_B1_day1,2022.2.4,Win32,60.07449237,,,,,,,,,,,,,,,,,,,,,,,,,,,,,,,,,,,,,,,,,,,0.425925926,0.226851852,1,0,0,ri.,ri.,0,3,3,24,1,rezer,images/br_rezer.png,images/cb_rezer.png
,,,,,,00063,2023-10-16_19h47.50.062,vbt_B1_day1,2022.2.4,Win32,60.07449237,,,,,,,,,,,,,,,,,,,,,,,,,,,,,,,,,,,,,,,,,,,0.425925926,0.226851852,1,0,0,.rra,.rra,0,4,4,2,1,jaar,images/br_jaar.png,images/cb_jaar.png
,,,,,,00063,2023-10-16_19h47.50.062,vbt_B1_day1,2022.2.4,Win32,60.07449237,,,,,,,,,,,,,,,,,,,,,,,,,,,,,,,,,,,,,,,,,,,0.425925926,0.226851852,1,0,0,oppla..,oppla..,0,5,5,32,1,opplaan,images/br_opplaan.png,images/cb_opplaan.png
,,,,,,00063,2023-10-16_19h47.50.062,vbt_B1_day1,2022.2.4,Win32,60.07449237,,,,,,,,,,,,,,,,,,,,,,,,,,,,,,,,,,,,,,,,,,,0.425925926,0.226851852,1,0,0,.ii.i..,.ii.i..,0,6,6,57,1,meenemen,images/br_meenemen.png,images/cb_meenemen.png
,,,,,,00063,2023-10-16_19h47.50.062,vbt_B1_day1,2022.2.4,Win32,60.07449237,,,,,,,,,,,,,,,,,,,,,,,,,,,,,,,,,,,,,,,,,,,0.425925926,0.226851852,1,0,0,uayd,uayd,0,7,7,3,1,mand,images/br_mand.png,images/cb_mand.png
,,,,,,00063,2023-10-16_19h47.50.062,vbt_B1_day1,2022.2.4,Win32,60.07449237,,,,,,,,,,,,,,,,,,,,,,,,,,,,,,,,,,,,,,,,,,,0.425925926,0.226851852,1,0,0,dayd,dayd,0,8,8,21,1,dred,images/br_dred.png,images/cb_dred.png
,,,,,,00063,2023-10-16_19h47.50.062,vbt_B1_day1,2022.2.4,Win32,60.07449237,,,,,,,,,,,,,,,,,,,,,,,,,,,,,,,,,,,,,,,,,,,0.425925926,0.226851852,1,0,0,zaal,zaal,0,9,9,1,1,zaal,images/br_zaal.png,images/cb_zaal.png
,,,,,,00063,2023-10-16_19h47.50.062,vbt_B1_day1,2022.2.4,Win32,60.07449237,,,,,,,,,,,,,,,,,,,,,,,,,,,,,,,,,,,,,,,,,,,0.425925926,0.226851852,1,0,0,loc...,loc...,0,10,10,34,1,lochten,images/br_lochten.png,images/cb_lochten.png
,,,,,,00063,2023-10-16_19h47.50.062,vbt_B1_day1,2022.2.4,Win32,60.07449237,,,,,,,,,,,,,,,,,,,,,,,,,,,,,,,,,,,,,,,,,,,0.425925926,0.226851852,1,0,0,fcb....,fcb....,0,11,11,19,1,schuilen,images/br_schuilen.png,images/cb_schuilen.png
,,,,,,00063,2023-10-16_19h47.50.062,vbt_B1_day1,2022.2.4,Win32,60.07449237,,,,,,,,,,,,,,,,,,,,,,,,,,,,,,,,,,,,,,,,,,,-0.023148148,-0.198148162,1,0,0,.re.k,.re.k,0,12,12,25,1,brijk,images/br_brijk.png,images/cb_brijk.png
,,,,,,00063,2023-10-16_19h47.50.062,vbt_B1_day1,2022.2.4,Win32,60.07449237,,,,,,,,,,,,,,,,,,,,,,,,,,,,,,,,,,,,,,,,,,,0.562037009,0.130555541,1,0,0,kleefi.,kleefi.,0,13,13,12,1,klimmen,images/br_klimmen.png,images/cb_klimmen.png
,,,,,,00063,2023-10-16_19h47.50.062,vbt_B1_day1,2022.2.4,Win32,60.07449237,,,,,,,,,,,,,,,,,,,,,,,,,,,,,,,,,,,,,,,,,,,0.562037009,0.130555541,1,0,0,ziki....,ziki....,0,14,14,55,1,tekenen,images/br_tekenen.png,images/cb_tekenen.png
,,,,,,00063,2023-10-16_19h47.50.062,vbt_B1_day1,2022.2.4,Win32,60.07449237,,,,,,,,,,,,,,,,,,,,,,,,,,,,,,,,,,,,,,,,,,,0.562037009,0.130555541,1,0,0,fc.eil..,fc.eil..,0,15,15,38,1,schielen,images/br_schielen.png,images/cb_schielen.png
,,,,,,00063,2023-10-16_19h47.50.062,vbt_B1_day1,2022.2.4,Win32,60.07449237,,,,,,,,,,,,,,,,,,,,,,,,,,,,,,,,,,,,,,,,,,,0.562037009,0.130555541,1,0,0,voorri..,voorri..,0,16,16,39,1,voorreur,images/br_voorreur.png,images/cb_voorreur.png
,,,,,,00063,2023-10-16_19h47.50.062,vbt_B1_day1,2022.2.4,Win32,60.07449237,,,,,,,,,,,,,,,,,,,,,,,,,,,,,,,,,,,,,,,,,,,0.562037009,0.130555541,1,0,0,zui.l..,zui.l..,0,17,17,52,1,zuiplap,images/br_zuiplap.png,images/cb_zuiplap.png
,,,,,,00063,2023-10-16_19h47.50.062,vbt_B1_day1,2022.2.4,Win32,60.07449237,,,,,,,,,,,,,,,,,,,,,,,,,,,,,,,,,,,,,,,,,,,0.562037009,0.130555541,1,0,0,voorkeur,voorkeur,0,18,18,58,1,voorkeur,images/br_voorkeur.png,images/cb_voorkeur.png
,,,,,,00063,2023-10-16_19h47.50.062,vbt_B1_day1,2022.2.4,Win32,60.07449237,,,,,,,,,,,,,,,,,,,,,,,,,,,,,,,,,,,,,,,,,,,0.562037009,0.130555541,1,0,0,opvan...,opvan...,0,19,19,59,1,opvatten,images/br_opvatten.png,images/cb_opvatten.png
,,,,,,00063,2023-10-16_19h47.50.062,vbt_B1_day1,2022.2.4,Win32,60.07449237,,,,,,,,,,,,,,,,,,,,,,,,,,,,,,,,,,,,,,,,,,,0.562037009,0.130555541,1,0,0,.aarv..,.aarv..,0,20,20,14,1,waarvan,images/br_waarvan.png,images/cb_waarvan.png
,,,,,,00063,2023-10-16_19h47.50.062,vbt_B1_day1,2022.2.4,Win32,60.07449237,,,,,,,,,,,,,,,,,,,,,,,,,,,,,,,,,,,,,,,,,,,0.562037009,0.130555541,1,0,0,lei..e,lei..e,0,21,21,51,1,liefde,images/br_liefde.png,images/cb_liefde.png
,,,,,,00063,2023-10-16_19h47.50.062,vbt_B1_day1,2022.2.4,Win32,60.07449237,,,,,,,,,,,,,,,,,,,,,,,,,,,,,,,,,,,,,,,,,,,0.562037009,0.130555541,1,0,0,woog,woog,0,22,22,41,1,hoog,images/br_hoog.png,images/cb_hoog.png
,,,,,,00063,2023-10-16_19h47.50.062,vbt_B1_day1,2022.2.4,Win32,60.07449237,,,,,,,,,,,,,,,,,,,,,,,,,,,,,,,,,,,,,,,,,,,0.562037009,0.130555541,1,0,0,kzre,kzre,0,23,23,22,1,knoe,images/br_knoe.png,images/cb_knoe.png
,,,,,,00063,2023-10-16_19h47.50.062,vbt_B1_day1,2022.2.4,Win32,60.07449237,,,,,,,,,,,,,,,,,,,,,,,,,,,,,,,,,,,,,,,,,,,0.562037009,0.130555541,1,0,0,flak,flak,0,24,24,0,1,slak,images/br_slak.png,images/cb_slak.png
,,,,,,00063,2023-10-16_19h47.50.062,vbt_B1_day1,2022.2.4,Win32,60.07449237,,,,,,,,,,,,,,,,,,,,,,,,,,,,,,,,,,,,,,,,,,,0.562037009,0.130555541,1,0,0,loomf,loomf,0,25,25,47,1,loods,images/br_loods.png,images/cb_loods.png
,,,,,,00063,2023-10-16_19h47.50.062,vbt_B1_day1,2022.2.4,Win32,60.07449237,,,,,,,,,,,,,,,,,,,,,,,,,,,,,,,,,,,,,,,,,,,0.562037009,0.130555541,1,0,0,zoezi...,zoezi...,0,26,26,56,1,toezicht,images/br_toezicht.png,images/cb_toezicht.png
,,,,,,00063,2023-10-16_19h47.50.062,vbt_B1_day1,2022.2.4,Win32,60.07449237,,,,,,,,,,,,,,,,,,,,,,,,,,,,,,,,,,,,,,,,,,,0.562037009,0.130555541,1,0,0,nern...,nern...,0,27,27,28,1,bebrip,images/br_bebrip.png,images/cb_bebrip.png
,,,,,,00063,2023-10-16_19h47.50.062,vbt_B1_day1,2022.2.4,Win32,60.07449237,,,,,,,,,,,,,,,,,,,,,,,,,,,,,,,,,,,,,,,,,,,0.562037009,0.130555541,1,0,0,verva...,verva...,0,28,28,36,1,vervaden,images/br_vervaden.png,images/cb_vervaden.png
,,,,,,00063,2023-10-16_19h47.50.062,vbt_B1_day1,2022.2.4,Win32,60.07449237,,,,,,,,,,,,,,,,,,,,,,,,,,,,,,,,,,,,,,,,,,,0.562037009,0.130555541,1,0,0,.u.ee.l,.u.ee.l,0,29,29,9,1,dubbel,images/br_dubbel.png,images/cb_dubbel.png
,,,,,,00063,2023-10-16_19h47.50.062,vbt_B1_day1,2022.2.4,Win32,60.07449237,,,,,,,,,,,,,,,,,,,,,,,,,,,,,,,,,,,,,,,,,,,0.562037009,0.130555541,1,0,0,opfl....,opfl....,0,30,30,53,1,opslaan,images/br_opslaan.png,images/cb_opslaan.png
,,,,,,00063,2023-10-16_19h47.50.062,vbt_B1_day1,2022.2.4,Win32,60.07449237,,,,,,,,,,,,,,,,,,,,,,,,,,,,,,,,,,,,,,,,,,,0.562037009,0.130555541,1,0,0,ka....,ka....,0,31,31,8,1,kanjer,images/br_kanjer.png,images/cb_kanjer.png
,,,,,,00063,2023-10-16_19h47.50.062,vbt_B1_day1,2022.2.4,Win32,60.07449237,,,,,,,,,,,,,,,,,,,,,,,,,,,,,,,,,,,,,,,,,,,0.562037009,0.130555541,1,0,0,me....,me....,0,32,32,44,1,wijze,images/br_wijze.png,images/cb_wijze.png
,,,,,,00063,2023-10-16_19h47.50.062,vbt_B1_day1,2022.2.4,Win32,60.07449237,,,,,,,,,,,,,,,,,,,,,,,,,,,,,,,,,,,,,,,,,,,0.562037009,0.130555541,1,0,0,uet....,uet....,0,33,33,18,1,uitdelen,images/br_uitdelen.png,images/cb_uitdelen.png
,,,,,,00063,2023-10-16_19h47.50.062,vbt_B1_day1,2022.2.4,Win32,60.07449237,,,,,,,,,,,,,,,,,,,,,,,,,,,,,,,,,,,,,,,,,,,0.562037009,0.130555541,1,0,0,ve..t..,ve..t..,0,34,34,54,1,vijftig,images/br_vijftig.png,images/cb_vijftig.png
,,,,,,00063,2023-10-16_19h47.50.062,vbt_B1_day1,2022.2.4,Win32,60.07449237,,,,,,,,,,,,,,,,,,,,,,,,,,,,,,,,,,,,,,,,,,,0.562037009,0.130555541,1,0,0,prort,prort,0,35,35,27,1,prort,images/br_prort.png,images/cb_prort.png
,,,,,,00063,2023-10-16_19h47.50.062,vbt_B1_day1,2022.2.4,Win32,60.07449237,,,,,,,,,,,,,,,,,,,,,,,,,,,,,,,,,,,,,,,,,,,0.562037009,0.130555541,1,0,0,.aki.,.aki.,0,36,36,5,1,maken,images/br_maken.png,images/cb_maken.png
,,,,,,00063,2023-10-16_19h47.50.062,vbt_B1_day1,2022.2.4,Win32,60.07449237,,,,,,,,,,,,,,,,,,,,,,,,,,,,,,,,,,,,,,,,,,,0.562037009,0.130555541,1,0,0,leigiy,leigiy,0,37,37,50,1,liegen,images/br_liegen.png,images/cb_liegen.png
,,,,,,00063,2023-10-16_19h47.50.062,vbt_B1_day1,2022.2.4,Win32,60.07449237,,,,,,,,,,,,,,,,,,,,,,,,,,,,,,,,,,,,,,,,,,,0.562037009,0.130555541,1,0,0,bleek,bleek,0,38,38,6,1,bleek,images/br_bleek.png,images/cb_bleek.png
,,,,,,00063,2023-10-16_19h47.50.062,vbt_B1_day1,2022.2.4,Win32,60.07449237,,,,,,,,,,,,,,,,,,,,,,,,,,,,,,,,,,,,,,,,,,,0.562037009,0.130555541,1,0,0,tar.,tar.,0,39,39,20,1,tars,images/br_tars.png,images/cb_tars.png
,,,,,,00063,2023-10-16_19h47.50.062,vbt_B1_day1,2022.2.4,Win32,60.07449237,,,,,,,,,,,,,,,,,,,,,,,,,,,,,,,,,,,,,,,,,,,0.562037009,0.130555541,1,0,0,bectei,bectei,0,40,40,48,1,fictie,images/br_fictie.png,images/cb_fictie.png
,,,,,,00063,2023-10-16_19h47.50.062,vbt_B1_day1,2022.2.4,Win32,60.07449237,,,,,,,,,,,,,,,,,,,,,,,,,,,,,,,,,,,,,,,,,,,0.562037009,0.130555541,1,0,0,lava,lava,0,41,41,43,1,lava,images/br_lava.png,images/cb_lava.png
,,,,,,00063,2023-10-16_19h47.50.062,vbt_B1_day1,2022.2.4,Win32,60.07449237,,,,,,,,,,,,,,,,,,,,,,,,,,,,,,,,,,,,,,,,,,,0.562037009,0.130555541,1,0,0,.aar...,.aar...,0,42,42,16,1,daarheen,images/br_daarheen.png,images/cb_daarheen.png
,,,,,,00063,2023-10-16_19h47.50.062,vbt_B1_day1,2022.2.4,Win32,60.07449237,,,,,,,,,,,,,,,,,,,,,,,,,,,,,,,,,,,,,,,,,,,0.562037009,0.130555541,1,0,0,......g,......g,0,43,43,37,1,spanzing,images/br_spanzing.png,images/cb_spanzing.png
,,,,,,00063,2023-10-16_19h47.50.062,vbt_B1_day1,2022.2.4,Win32,60.07449237,,,,,,,,,,,,,,,,,,,,,,,,,,,,,,,,,,,,,,,,,,,0.562037009,0.130555541,1,0,0,ree..i,ree..i,0,44,44,30,1,reedje,images/br_reedje.png,images/cb_reedje.png
,,,,,,00063,2023-10-16_19h47.50.062,vbt_B1_day1,2022.2.4,Win32,60.07449237,,,,,,,,,,,,,,,,,,,,,,,,,,,,,,,,,,,,,,,,,,,0.562037009,0.130555541,1,0,0,fc..e.,fc..e.,0,45,45,4,1,schep,images/br_schep.png,images/cb_schep.png
,,,,,,00063,2023-10-16_19h47.50.062,vbt_B1_day1,2022.2.4,Win32,60.07449237,,,,,,,,,,,,,,,,,,,,,,,,,,,,,,,,,,,,,,,,,,,0.562037009,0.130555541,1,0,0,appe...,appe...,0,46,46,17,1,attentie,images/br_attentie.png,images/cb_attentie.png
,,,,,,00063,2023-10-16_19h47.50.062,vbt_B1_day1,2022.2.4,Win32,60.07449237,,,,,,,,,,,,,,,,,,,,,,,,,,,,,,,,,,,,,,,,,,,0.562037009,0.130555541,1,0,0,tze....,tze....,0,47,47,13,1,twijfel,images/br_twijfel.png,images/cb_twijfel.png
,,,,,,00063,2023-10-16_19h47.50.062,vbt_B1_day1,2022.2.4,Win32,60.07449237,,,,,,,,,,,,,,,,,,,,,,,,,,,,,,,,,,,,,,,,,,,0.562037009,0.130555541,1,0,0,.ta...,.ta...,0,48,48,31,1,stamen,images/br_stamen.png,images/cb_stamen.png
,,,,,,00063,2023-10-16_19h47.50.062,vbt_B1_day1,2022.2.4,Win32,60.07449237,,,,,,,,,,,,,,,,,,,,,,,,,,,,,,,,,,,,,,,,,,,0.562037009,0.130555541,1,0,0,ftuk,ftuk,0,49,49,42,1,stuk,images/br_stuk.png,images/cb_stuk.png
,,,,,,00063,2023-10-16_19h47.50.062,vbt_B1_day1,2022.2.4,Win32,60.07449237,,,,,,,,,,,,,,,,,,,,,,,,,,,,,,,,,,,,,,,,,,,0.562037009,0.130555541,1,0,0,gezoz.,gezoz.,0,50,50,29,1,genond,images/br_genond.png,images/cb_genond.png
,,,,,,00063,2023-10-16_19h47.50.062,vbt_B1_day1,2022.2.4,Win32,60.07449237,,,,,,,,,,,,,,,,,,,,,,,,,,,,,,,,,,,,,,,,,,,0.562037009,0.130555541,1,0,0,lezey,lezey,0,51,51,46,1,lezen,images/br_lezen.png,images/cb_lezen.png
,,,,,,00063,2023-10-16_19h47.50.062,vbt_B1_day1,2022.2.4,Win32,60.07449237,,,,,,,,,,,,,,,,,,,,,,,,,,,,,,,,,,,,,,,,,,,0.562037009,0.130555541,1,0,0,valo.,valo.,0,52,52,26,1,valop,images/br_valop.png,images/cb_valop.png
,,,,,,00063,2023-10-16_19h47.50.062,vbt_B1_day1,2022.2.4,Win32,60.07449237,,,,,,,,,,,,,,,,,,,,,,,,,,,,,,,,,,,,,,,,,,,0.562037009,0.130555541,1,0,0,ve.ei.r,ve.ei.r,0,53,53,49,1,vizier,images/br_vizier.png,images/cb_vizier.png
,,,,,,00063,2023-10-16_19h47.50.062,vbt_B1_day1,2022.2.4,Win32,60.07449237,,,,,,,,,,,,,,,,,,,,,,,,,,,,,,,,,,,,,,,,,,,0.562037009,0.130555541,1,0,0,kla.k,kla.k,0,54,54,7,1,klauw,images/br_klauw.png,images/cb_klauw.png
,,,,,,00063,2023-10-16_19h47.50.062,vbt_B1_day1,2022.2.4,Win32,60.07449237,,,,,,,,,,,,,,,,,,,,,,,,,,,,,,,,,,,,,,,,,,,0.562037009,0.130555541,1,0,0,booe,booe,0,55,55,23,1,booi,images/br_booi.png,images/cb_booi.png
,,,,,,00063,2023-10-16_19h47.50.062,vbt_B1_day1,2022.2.4,Win32,60.07449237,,,,,,,,,,,,,,,,,,,,,,,,,,,,,,,,,,,,,,,,,,,0.562037009,0.130555541,1,0,0,.e.el,.e.el,0,56,56,45,1,hemel,images/br_hemel.png,images/cb_hemel.png
,,,,,,00063,2023-10-16_19h47.50.062,vbt_B1_day1,2022.2.4,Win32,60.07449237,,,,,,,,,,,,,,,,,,,,,,,,,,,,,,,,,,,,,,,,,,,0.562037009,0.130555541,1,0,0,.ei.,.ei.,0,57,57,40,1,dief,images/br_dief.png,images/cb_dief.png
,,,,,,00063,2023-10-16_19h47.50.062,vbt_B1_day1,2022.2.4,Win32,60.07449237,,,,,,,,,,,,,,,,,,,,,,,,,,,,,,,,,,,,,,,,,,,0.562037009,0.130555541,1,0,0,.e..ig,.e..ig,0,58,58,11,1,mening,images/br_mening.png,images/cb_mening.png
,,,,,,00063,2023-10-16_19h47.50.062,vbt_B1_day1,2022.2.4,Win32,60.07449237,,,,,,,,,,,,,,,,,,,,,,,,,,,,,,,,,,,,,,,,,,,0.562037009,0.130555541,1,0,0,.ulle.,.ulle.,0,59,59,33,1,flullen,images/br_flullen.png,images/cb_flullen.png
,,,,,,00063,2023-10-16_19h47.50.062,vbt_B1_day1,2022.2.4,Win32,60.07449237,,,,,,,,,,,,,,,,,,,,,,,,,,,,,,,,,,,,,,,,,,,,,,,,,,,,,,,,,
