welcome_mouse.x,welcome_mouse.y,welcome_mouse.leftButton,welcome_mouse.midButton,welcome_mouse.rightButton,welcome_mouse.time,"ID",date,expName,psychopyVersion,OS,frameRate,mouse_2.x,mouse_2.y,mouse_2.leftButton,mouse_2.midButton,mouse_2.rightButton,mouse_2.time,mouse_3.x,mouse_3.y,mouse_3.leftButton,mouse_3.midButton,mouse_3.rightButton,mouse_3.time,train_mouse.x,train_mouse.y,train_mouse.leftButton,train_mouse.midButton,train_mouse.rightButton,train_mouse.time,braille_mouse.x,braille_mouse.y,braille_mouse.leftButton,braille_mouse.midButton,braille_mouse.rightButton,braille_mouse.time,trials.thisRepN,trials.thisTrialN,trials.thisN,trials.thisIndex,trials.ran,nlLet,brLet,cbLet,mouse.x,mouse.y,mouse.leftButton,mouse.midButton,mouse.rightButton,testInstr_mouse.x,testInstr_mouse.y,testInstr_mouse.leftButton,testInstr_mouse.midButton,testInstr_mouse.rightButton,test_mouse.x,test_mouse.y,test_mouse.leftButton,test_mouse.midButton,test_mouse.rightButton,test_response.text,testResp,test_loop.thisRepN,test_loop.thisTrialN,test_loop.thisN,test_loop.thisIndex,test_loop.ran,nlWrd,brWrd,cbWrd
-0.215740712,-0.278703732,1,0,0,17.3973,00019,2023-08-21_22h14.20.816,vbt_B1_day1,2022.2.4,Win32,59.78358343,,,,,,,,,,,,,,,,,,,,,,,,,,,,,,,,,,,,,,,,,,,,,,,,,,,,,,,,,
,,,,,,00019,2023-08-21_22h14.20.816,vbt_B1_day1,2022.2.4,Win32,59.78358343,-0.215740712,-0.278703732,1,0,0,13.1368,,,,,,,,,,,,,,,,,,,,,,,,,,,,,,,,,,,,,,,,,,,,,,,,,,,
,,,,,,00019,2023-08-21_22h14.20.816,vbt_B1_day1,2022.2.4,Win32,59.78358343,,,,,,,-0.215740712,-0.278703732,1,0,0,12.9873,,,,,,,,,,,,,,,,,,,,,,,,,,,,,,,,,,,,,,,,,,,,,
,,,,,,00019,2023-08-21_22h14.20.816,vbt_B1_day1,2022.2.4,Win32,59.78358343,,,,,,,,,,,,,-0.47870369,-0.207407422,1,0,0,22.3445,,,,,,,,,,,,,,,,,,,,,,,,,,,,,,,,,,,,,,,
,,,,,,00019,2023-08-21_22h14.20.816,vbt_B1_day1,2022.2.4,Win32,59.78358343,,,,,,,,,,,,,,,,,,,-0.47870369,-0.207407422,1,0,0,3.5635,0,0,0,1,1,b,images/br_b.png,images/cb_b.png,,,,,,,,,,,,,,,,,,,,,,,,,
,,,,,,00019,2023-08-21_22h14.20.816,vbt_B1_day1,2022.2.4,Win32,59.78358343,,,,,,,,,,,,,,,,,,,-0.47870369,-0.207407422,1,0,0,2.5481,0,1,1,6,1,g,images/br_g.png,images/cb_g.png,,,,,,,,,,,,,,,,,,,,,,,,,
,,,,,,00019,2023-08-21_22h14.20.816,vbt_B1_day1,2022.2.4,Win32,59.78358343,,,,,,,,,,,,,,,,,,,-0.47870369,-0.207407422,1,0,0,2.4479,0,2,2,4,1,e,images/br_e.png,images/cb_e.png,,,,,,,,,,,,,,,,,,,,,,,,,
,,,,,,00019,2023-08-21_22h14.20.816,vbt_B1_day1,2022.2.4,Win32,59.78358343,,,,,,,,,,,,,,,,,,,-0.47870369,-0.207407422,1,0,0,2.7643,0,3,3,8,1,i,images/br_i.png,images/cb_i.png,,,,,,,,,,,,,,,,,,,,,,,,,
,,,,,,00019,2023-08-21_22h14.20.816,vbt_B1_day1,2022.2.4,Win32,59.78358343,,,,,,,,,,,,,,,,,,,-0.47870369,-0.207407422,1,0,0,1.549,0,4,4,24,1,y,images/br_y.png,images/cb_y.png,,,,,,,,,,,,,,,,,,,,,,,,,
,,,,,,00019,2023-08-21_22h14.20.816,vbt_B1_day1,2022.2.4,Win32,59.78358343,,,,,,,,,,,,,,,,,,,-0.47870369,-0.207407422,1,0,0,1.5821,0,5,5,23,1,x,images/br_x.png,images/cb_x.png,,,,,,,,,,,,,,,,,,,,,,,,,
,,,,,,00019,2023-08-21_22h14.20.816,vbt_B1_day1,2022.2.4,Win32,59.78358343,,,,,,,,,,,,,,,,,,,-0.47870369,-0.207407422,1,0,0,1.9984,0,6,6,7,1,h,images/br_h.png,images/cb_h.png,,,,,,,,,,,,,,,,,,,,,,,,,
,,,,,,00019,2023-08-21_22h14.20.816,vbt_B1_day1,2022.2.4,Win32,59.78358343,,,,,,,,,,,,,,,,,,,-0.47870369,-0.207407422,1,0,0,1.4152,0,7,7,10,1,k,images/br_k.png,images/cb_k.png,,,,,,,,,,,,,,,,,,,,,,,,,
,,,,,,00019,2023-08-21_22h14.20.816,vbt_B1_day1,2022.2.4,Win32,59.78358343,,,,,,,,,,,,,,,,,,,-0.47870369,-0.207407422,1,0,0,1.9652,0,8,8,25,1,z,images/br_z.png,images/cb_z.png,,,,,,,,,,,,,,,,,,,,,,,,,
,,,,,,00019,2023-08-21_22h14.20.816,vbt_B1_day1,2022.2.4,Win32,59.78358343,,,,,,,,,,,,,,,,,,,-0.47870369,-0.207407422,1,0,0,1.6154,0,9,9,0,1,a,images/br_a.png,images/cb_a.png,,,,,,,,,,,,,,,,,,,,,,,,,
,,,,,,00019,2023-08-21_22h14.20.816,vbt_B1_day1,2022.2.4,Win32,59.78358343,,,,,,,,,,,,,,,,,,,-0.47870369,-0.207407422,1,0,0,2.4479,0,10,10,11,1,l,images/br_l.png,images/cb_l.png,,,,,,,,,,,,,,,,,,,,,,,,,
,,,,,,00019,2023-08-21_22h14.20.816,vbt_B1_day1,2022.2.4,Win32,59.78358343,,,,,,,,,,,,,,,,,,,-0.47870369,-0.207407422,1,0,0,0.9327,0,11,11,19,1,t,images/br_t.png,images/cb_t.png,,,,,,,,,,,,,,,,,,,,,,,,,
,,,,,,00019,2023-08-21_22h14.20.816,vbt_B1_day1,2022.2.4,Win32,59.78358343,,,,,,,,,,,,,,,,,,,-0.47870369,-0.207407422,1,0,0,0.566,0,12,12,21,1,v,images/br_v.png,images/cb_v.png,,,,,,,,,,,,,,,,,,,,,,,,,
,,,,,,00019,2023-08-21_22h14.20.816,vbt_B1_day1,2022.2.4,Win32,59.78358343,,,,,,,,,,,,,,,,,,,-0.47870369,-0.207407422,1,0,0,2.9476,0,13,13,2,1,c,images/br_c.png,images/cb_c.png,,,,,,,,,,,,,,,,,,,,,,,,,
,,,,,,00019,2023-08-21_22h14.20.816,vbt_B1_day1,2022.2.4,Win32,59.78358343,,,,,,,,,,,,,,,,,,,-0.47870369,-0.207407422,1,0,0,0.7995,0,14,14,13,1,n,images/br_n.png,images/cb_n.png,,,,,,,,,,,,,,,,,,,,,,,,,
,,,,,,00019,2023-08-21_22h14.20.816,vbt_B1_day1,2022.2.4,Win32,59.78358343,,,,,,,,,,,,,,,,,,,-0.47870369,-0.207407422,1,0,0,0.2332,0,15,15,17,1,r,images/br_r.png,images/cb_r.png,,,,,,,,,,,,,,,,,,,,,,,,,
,,,,,,00019,2023-08-21_22h14.20.816,vbt_B1_day1,2022.2.4,Win32,59.78358343,,,,,,,,,,,,,,,,,,,-0.425925912,-0.137037065,1,0,0,2.8147,0,16,16,18,1,s,images/br_s.png,images/cb_s.png,,,,,,,,,,,,,,,,,,,,,,,,,
,,,,,,00019,2023-08-21_22h14.20.816,vbt_B1_day1,2022.2.4,Win32,59.78358343,,,,,,,,,,,,,,,,,,,-0.425925912,-0.137037065,1,0,0,1.149,0,17,17,3,1,d,images/br_d.png,images/cb_d.png,,,,,,,,,,,,,,,,,,,,,,,,,
,,,,,,00019,2023-08-21_22h14.20.816,vbt_B1_day1,2022.2.4,Win32,59.78358343,,,,,,,,,,,,,,,,,,,-0.425925912,-0.137037065,1,0,0,4.1464,0,18,18,22,1,w,images/br_w.png,images/cb_w.png,,,,,,,,,,,,,,,,,,,,,,,,,
,,,,,,00019,2023-08-21_22h14.20.816,vbt_B1_day1,2022.2.4,Win32,59.78358343,,,,,,,,,,,,,,,,,,,-0.425925912,-0.137037065,1,0,0,0.7662,0,19,19,5,1,f,images/br_f.png,images/cb_f.png,,,,,,,,,,,,,,,,,,,,,,,,,
,,,,,,00019,2023-08-21_22h14.20.816,vbt_B1_day1,2022.2.4,Win32,59.78358343,,,,,,,,,,,,,,,,,,,-0.425925912,-0.137037065,1,0,0,2.0318,0,20,20,12,1,m,images/br_m.png,images/cb_m.png,,,,,,,,,,,,,,,,,,,,,,,,,
,,,,,,00019,2023-08-21_22h14.20.816,vbt_B1_day1,2022.2.4,Win32,59.78358343,,,,,,,,,,,,,,,,,,,-0.425925912,-0.137037065,1,0,0,1.6987,0,21,21,14,1,o,images/br_o.png,images/cb_o.png,,,,,,,,,,,,,,,,,,,,,,,,,
,,,,,,00019,2023-08-21_22h14.20.816,vbt_B1_day1,2022.2.4,Win32,59.78358343,,,,,,,,,,,,,,,,,,,-0.402777778,-0.293518575,1,0,0,2.1149,0,22,22,15,1,p,images/br_p.png,images/cb_p.png,,,,,,,,,,,,,,,,,,,,,,,,,
,,,,,,00019,2023-08-21_22h14.20.816,vbt_B1_day1,2022.2.4,Win32,59.78358343,,,,,,,,,,,,,,,,,,,-0.402777778,-0.293518575,1,0,0,1.8321,0,23,23,20,1,u,images/br_u.png,images/cb_u.png,,,,,,,,,,,,,,,,,,,,,,,,,
,,,,,,00019,2023-08-21_22h14.20.816,vbt_B1_day1,2022.2.4,Win32,59.78358343,,,,,,,,,,,,,,,,,,,-0.402777778,-0.293518575,1,0,0,1.4988,0,24,24,9,1,j,images/br_j.png,images/cb_j.png,,,,,,,,,,,,,,,,,,,,,,,,,
,,,,,,00019,2023-08-21_22h14.20.816,vbt_B1_day1,2022.2.4,Win32,59.78358343,,,,,,,,,,,,,,,,,,,-0.402777778,-0.293518575,1,0,0,1.4652,0,25,25,16,1,q,images/br_q.png,images/cb_q.png,,,,,,,,,,,,,,,,,,,,,,,,,
,,,,,,00019,2023-08-21_22h14.20.816,vbt_B1_day1,2022.2.4,Win32,59.78358343,,,,,,,,,,,,,,,,,,,-0.402777778,-0.293518575,1,0,0,2.1315,1,0,26,25,1,z,images/br_z.png,images/cb_z.png,,,,,,,,,,,,,,,,,,,,,,,,,
,,,,,,00019,2023-08-21_22h14.20.816,vbt_B1_day1,2022.2.4,Win32,59.78358343,,,,,,,,,,,,,,,,,,,-0.402777778,-0.293518575,1,0,0,0.6158,1,1,27,12,1,m,images/br_m.png,images/cb_m.png,,,,,,,,,,,,,,,,,,,,,,,,,
,,,,,,00019,2023-08-21_22h14.20.816,vbt_B1_day1,2022.2.4,Win32,59.78358343,,,,,,,,,,,,,,,,,,,-0.402777778,-0.293518575,1,0,0,2.1816,1,2,28,14,1,o,images/br_o.png,images/cb_o.png,,,,,,,,,,,,,,,,,,,,,,,,,
,,,,,,00019,2023-08-21_22h14.20.816,vbt_B1_day1,2022.2.4,Win32,59.78358343,,,,,,,,,,,,,,,,,,,-0.402777778,-0.293518575,1,0,0,1.8485,1,3,29,13,1,n,images/br_n.png,images/cb_n.png,,,,,,,,,,,,,,,,,,,,,,,,,
,,,,,,00019,2023-08-21_22h14.20.816,vbt_B1_day1,2022.2.4,Win32,59.78358343,,,,,,,,,,,,,,,,,,,-0.402777778,-0.293518575,1,0,0,10.2082,1,4,30,15,1,p,images/br_p.png,images/cb_p.png,,,,,,,,,,,,,,,,,,,,,,,,,
,,,,,,00019,2023-08-21_22h14.20.816,vbt_B1_day1,2022.2.4,Win32,59.78358343,,,,,,,,,,,,,,,,,,,-0.402777778,-0.293518575,1,0,0,0.8326,1,5,31,16,1,q,images/br_q.png,images/cb_q.png,,,,,,,,,,,,,,,,,,,,,,,,,
,,,,,,00019,2023-08-21_22h14.20.816,vbt_B1_day1,2022.2.4,Win32,59.78358343,,,,,,,,,,,,,,,,,,,-0.402777778,-0.293518575,1,0,0,1.8817,1,6,32,24,1,y,images/br_y.png,images/cb_y.png,,,,,,,,,,,,,,,,,,,,,,,,,
,,,,,,00019,2023-08-21_22h14.20.816,vbt_B1_day1,2022.2.4,Win32,59.78358343,,,,,,,,,,,,,,,,,,,-0.402777778,-0.293518575,1,0,0,1.6488,1,7,33,11,1,l,images/br_l.png,images/cb_l.png,,,,,,,,,,,,,,,,,,,,,,,,,
,,,,,,00019,2023-08-21_22h14.20.816,vbt_B1_day1,2022.2.4,Win32,59.78358343,,,,,,,,,,,,,,,,,,,-0.402777778,-0.293518575,1,0,0,2.9975,1,8,34,23,1,x,images/br_x.png,images/cb_x.png,,,,,,,,,,,,,,,,,,,,,,,,,
,,,,,,00019,2023-08-21_22h14.20.816,vbt_B1_day1,2022.2.4,Win32,59.78358343,,,,,,,,,,,,,,,,,,,-0.402777778,-0.293518575,1,0,0,0.6329,1,9,35,22,1,w,images/br_w.png,images/cb_w.png,,,,,,,,,,,,,,,,,,,,,,,,,
,,,,,,00019,2023-08-21_22h14.20.816,vbt_B1_day1,2022.2.4,Win32,59.78358343,,,,,,,,,,,,,,,,,,,-0.402777778,-0.293518575,1,0,0,0.5828,1,10,36,9,1,j,images/br_j.png,images/cb_j.png,,,,,,,,,,,,,,,,,,,,,,,,,
,,,,,,00019,2023-08-21_22h14.20.816,vbt_B1_day1,2022.2.4,Win32,59.78358343,,,,,,,,,,,,,,,,,,,-0.402777778,-0.293518575,1,0,0,2.1312,1,11,37,6,1,g,images/br_g.png,images/cb_g.png,,,,,,,,,,,,,,,,,,,,,,,,,
,,,,,,00019,2023-08-21_22h14.20.816,vbt_B1_day1,2022.2.4,Win32,59.78358343,,,,,,,,,,,,,,,,,,,-0.402777778,-0.293518575,1,0,0,0.0331,1,12,38,17,1,r,images/br_r.png,images/cb_r.png,,,,,,,,,,,,,,,,,,,,,,,,,
,,,,,,00019,2023-08-21_22h14.20.816,vbt_B1_day1,2022.2.4,Win32,59.78358343,,,,,,,,,,,,,,,,,,,-0.402777778,-0.293518575,1,0,0,2.3149,1,13,39,10,1,k,images/br_k.png,images/cb_k.png,,,,,,,,,,,,,,,,,,,,,,,,,
,,,,,,00019,2023-08-21_22h14.20.816,vbt_B1_day1,2022.2.4,Win32,59.78358343,,,,,,,,,,,,,,,,,,,-0.402777778,-0.293518575,1,0,0,16.2532,1,14,40,5,1,f,images/br_f.png,images/cb_f.png,,,,,,,,,,,,,,,,,,,,,,,,,
,,,,,,00019,2023-08-21_22h14.20.816,vbt_B1_day1,2022.2.4,Win32,59.78358343,,,,,,,,,,,,,,,,,,,-0.402777778,-0.293518575,1,0,0,1.7318,1,15,41,1,1,b,images/br_b.png,images/cb_b.png,,,,,,,,,,,,,,,,,,,,,,,,,
,,,,,,00019,2023-08-21_22h14.20.816,vbt_B1_day1,2022.2.4,Win32,59.78358343,,,,,,,,,,,,,,,,,,,-0.274074046,-0.120370399,1,0,0,1.5649,1,16,42,4,1,e,images/br_e.png,images/cb_e.png,,,,,,,,,,,,,,,,,,,,,,,,,
,,,,,,00019,2023-08-21_22h14.20.816,vbt_B1_day1,2022.2.4,Win32,59.78358343,,,,,,,,,,,,,,,,,,,-0.274074046,-0.120370399,1,0,0,4.2297,1,17,43,21,1,v,images/br_v.png,images/cb_v.png,,,,,,,,,,,,,,,,,,,,,,,,,
,,,,,,00019,2023-08-21_22h14.20.816,vbt_B1_day1,2022.2.4,Win32,59.78358343,,,,,,,,,,,,,,,,,,,-0.274074046,-0.120370399,1,0,0,0.2331,1,18,44,19,1,t,images/br_t.png,images/cb_t.png,,,,,,,,,,,,,,,,,,,,,,,,,
,,,,,,00019,2023-08-21_22h14.20.816,vbt_B1_day1,2022.2.4,Win32,59.78358343,,,,,,,,,,,,,,,,,,,-0.274074046,-0.120370399,1,0,0,2.398,1,19,45,3,1,d,images/br_d.png,images/cb_d.png,,,,,,,,,,,,,,,,,,,,,,,,,
,,,,,,00019,2023-08-21_22h14.20.816,vbt_B1_day1,2022.2.4,Win32,59.78358343,,,,,,,,,,,,,,,,,,,-0.274074046,-0.120370399,1,0,0,0.3997,1,20,46,7,1,h,images/br_h.png,images/cb_h.png,,,,,,,,,,,,,,,,,,,,,,,,,
,,,,,,00019,2023-08-21_22h14.20.816,vbt_B1_day1,2022.2.4,Win32,59.78358343,,,,,,,,,,,,,,,,,,,-0.274074046,-0.120370399,1,0,0,0.1827,1,21,47,20,1,u,images/br_u.png,images/cb_u.png,,,,,,,,,,,,,,,,,,,,,,,,,
,,,,,,00019,2023-08-21_22h14.20.816,vbt_B1_day1,2022.2.4,Win32,59.78358343,,,,,,,,,,,,,,,,,,,-0.274074046,-0.120370399,1,0,0,0.1665,1,22,48,8,1,i,images/br_i.png,images/cb_i.png,,,,,,,,,,,,,,,,,,,,,,,,,
,,,,,,00019,2023-08-21_22h14.20.816,vbt_B1_day1,2022.2.4,Win32,59.78358343,,,,,,,,,,,,,,,,,,,-0.274074046,-0.120370399,1,0,0,3.3302,1,23,49,0,1,a,images/br_a.png,images/cb_a.png,,,,,,,,,,,,,,,,,,,,,,,,,
,,,,,,00019,2023-08-21_22h14.20.816,vbt_B1_day1,2022.2.4,Win32,59.78358343,,,,,,,,,,,,,,,,,,,-0.274074046,-0.120370399,1,0,0,0.8658,1,24,50,2,1,c,images/br_c.png,images/cb_c.png,,,,,,,,,,,,,,,,,,,,,,,,,
,,,,,,00019,2023-08-21_22h14.20.816,vbt_B1_day1,2022.2.4,Win32,59.78358343,,,,,,,,,,,,,,,,,,,-0.274074046,-0.120370399,1,0,0,0.4163,1,25,51,18,1,s,images/br_s.png,images/cb_s.png,,,,,,,,,,,,,,,,,,,,,,,,,
,,,,,,00019,2023-08-21_22h14.20.816,vbt_B1_day1,2022.2.4,Win32,59.78358343,,,,,,,,,,,,,,,,,,,-0.274074046,-0.120370399,1,0,0,6.8943,2,0,52,5,1,f,images/br_f.png,images/cb_f.png,,,,,,,,,,,,,,,,,,,,,,,,,
,,,,,,00019,2023-08-21_22h14.20.816,vbt_B1_day1,2022.2.4,Win32,59.78358343,,,,,,,,,,,,,,,,,,,-0.274074046,-0.120370399,1,0,0,1.3323,2,1,53,17,1,r,images/br_r.png,images/cb_r.png,,,,,,,,,,,,,,,,,,,,,,,,,
,,,,,,00019,2023-08-21_22h14.20.816,vbt_B1_day1,2022.2.4,Win32,59.78358343,,,,,,,,,,,,,,,,,,,-0.274074046,-0.120370399,1,0,0,1.9985,2,2,54,0,1,a,images/br_a.png,images/cb_a.png,,,,,,,,,,,,,,,,,,,,,,,,,
,,,,,,00019,2023-08-21_22h14.20.816,vbt_B1_day1,2022.2.4,Win32,59.78358343,,,,,,,,,,,,,,,,,,,-0.274074046,-0.120370399,1,0,0,10.7578,2,3,55,25,1,z,images/br_z.png,images/cb_z.png,,,,,,,,,,,,,,,,,,,,,,,,,
,,,,,,00019,2023-08-21_22h14.20.816,vbt_B1_day1,2022.2.4,Win32,59.78358343,,,,,,,,,,,,,,,,,,,-0.274074046,-0.120370399,1,0,0,0.5494,2,4,56,12,1,m,images/br_m.png,images/cb_m.png,,,,,,,,,,,,,,,,,,,,,,,,,
,,,,,,00019,2023-08-21_22h14.20.816,vbt_B1_day1,2022.2.4,Win32,59.78358343,,,,,,,,,,,,,,,,,,,0.20648151,-0.010185199,1,0,0,2.4313,2,5,57,13,1,n,images/br_n.png,images/cb_n.png,,,,,,,,,,,,,,,,,,,,,,,,,
,,,,,,00019,2023-08-21_22h14.20.816,vbt_B1_day1,2022.2.4,Win32,59.78358343,,,,,,,,,,,,,,,,,,,0.20648151,-0.010185199,1,0,0,0.6495,2,6,58,15,1,p,images/br_p.png,images/cb_p.png,,,,,,,,,,,,,,,,,,,,,,,,,
,,,,,,00019,2023-08-21_22h14.20.816,vbt_B1_day1,2022.2.4,Win32,59.78358343,,,,,,,,,,,,,,,,,,,0.20648151,-0.010185199,1,0,0,0.0997,2,7,59,18,1,s,images/br_s.png,images/cb_s.png,,,,,,,,,,,,,,,,,,,,,,,,,
,,,,,,00019,2023-08-21_22h14.20.816,vbt_B1_day1,2022.2.4,Win32,59.78358343,,,,,,,,,,,,,,,,,,,0.20648151,-0.010185199,1,0,0,0.1336,2,8,60,20,1,u,images/br_u.png,images/cb_u.png,,,,,,,,,,,,,,,,,,,,,,,,,
,,,,,,00019,2023-08-21_22h14.20.816,vbt_B1_day1,2022.2.4,Win32,59.78358343,,,,,,,,,,,,,,,,,,,0.20648151,-0.010185199,1,0,0,0.5494,2,9,61,22,1,w,images/br_w.png,images/cb_w.png,,,,,,,,,,,,,,,,,,,,,,,,,
,,,,,,00019,2023-08-21_22h14.20.816,vbt_B1_day1,2022.2.4,Win32,59.78358343,,,,,,,,,,,,,,,,,,,0.20648151,-0.010185199,1,0,0,4.5796,2,10,62,16,1,q,images/br_q.png,images/cb_q.png,,,,,,,,,,,,,,,,,,,,,,,,,
,,,,,,00019,2023-08-21_22h14.20.816,vbt_B1_day1,2022.2.4,Win32,59.78358343,,,,,,,,,,,,,,,,,,,0.20648151,-0.010185199,1,0,0,1.8988,2,11,63,19,1,t,images/br_t.png,images/cb_t.png,,,,,,,,,,,,,,,,,,,,,,,,,
,,,,,,00019,2023-08-21_22h14.20.816,vbt_B1_day1,2022.2.4,Win32,59.78358343,,,,,,,,,,,,,,,,,,,0.20648151,-0.010185199,1,0,0,1.4322,2,12,64,9,1,j,images/br_j.png,images/cb_j.png,,,,,,,,,,,,,,,,,,,,,,,,,
,,,,,,00019,2023-08-21_22h14.20.816,vbt_B1_day1,2022.2.4,Win32,59.78358343,,,,,,,,,,,,,,,,,,,0.20648151,-0.010185199,1,0,0,0.6661,2,13,65,21,1,v,images/br_v.png,images/cb_v.png,,,,,,,,,,,,,,,,,,,,,,,,,
,,,,,,00019,2023-08-21_22h14.20.816,vbt_B1_day1,2022.2.4,Win32,59.78358343,,,,,,,,,,,,,,,,,,,0.20648151,-0.010185199,1,0,0,1.9817,2,14,66,4,1,e,images/br_e.png,images/cb_e.png,,,,,,,,,,,,,,,,,,,,,,,,,
,,,,,,00019,2023-08-21_22h14.20.816,vbt_B1_day1,2022.2.4,Win32,59.78358343,,,,,,,,,,,,,,,,,,,0.20648151,-0.010185199,1,0,0,1.2989,2,15,67,11,1,l,images/br_l.png,images/cb_l.png,,,,,,,,,,,,,,,,,,,,,,,,,
,,,,,,00019,2023-08-21_22h14.20.816,vbt_B1_day1,2022.2.4,Win32,59.78358343,,,,,,,,,,,,,,,,,,,0.20648151,-0.010185199,1,0,0,1.3822,2,16,68,3,1,d,images/br_d.png,images/cb_d.png,,,,,,,,,,,,,,,,,,,,,,,,,
,,,,,,00019,2023-08-21_22h14.20.816,vbt_B1_day1,2022.2.4,Win32,59.78358343,,,,,,,,,,,,,,,,,,,0.20648151,-0.010185199,1,0,0,6.8277,2,17,69,24,1,y,images/br_y.png,images/cb_y.png,,,,,,,,,,,,,,,,,,,,,,,,,
,,,,,,00019,2023-08-21_22h14.20.816,vbt_B1_day1,2022.2.4,Win32,59.78358343,,,,,,,,,,,,,,,,,,,0.20648151,-0.010185199,1,0,0,0.0166,2,18,70,6,1,g,images/br_g.png,images/cb_g.png,,,,,,,,,,,,,,,,,,,,,,,,,
,,,,,,00019,2023-08-21_22h14.20.816,vbt_B1_day1,2022.2.4,Win32,59.78358343,,,,,,,,,,,,,,,,,,,0.20648151,-0.010185199,1,0,0,0.4996,2,19,71,8,1,i,images/br_i.png,images/cb_i.png,,,,,,,,,,,,,,,,,,,,,,,,,
,,,,,,00019,2023-08-21_22h14.20.816,vbt_B1_day1,2022.2.4,Win32,59.78358343,,,,,,,,,,,,,,,,,,,0.20648151,-0.010185199,1,0,0,0.9326,2,20,72,10,1,k,images/br_k.png,images/cb_k.png,,,,,,,,,,,,,,,,,,,,,,,,,
,,,,,,00019,2023-08-21_22h14.20.816,vbt_B1_day1,2022.2.4,Win32,59.78358343,,,,,,,,,,,,,,,,,,,0.20648151,-0.010185199,1,0,0,0.9991,2,21,73,23,1,x,images/br_x.png,images/cb_x.png,,,,,,,,,,,,,,,,,,,,,,,,,
,,,,,,00019,2023-08-21_22h14.20.816,vbt_B1_day1,2022.2.4,Win32,59.78358343,,,,,,,,,,,,,,,,,,,0.20648151,-0.010185199,1,0,0,5.8448,2,22,74,14,1,o,images/br_o.png,images/cb_o.png,,,,,,,,,,,,,,,,,,,,,,,,,
,,,,,,00019,2023-08-21_22h14.20.816,vbt_B1_day1,2022.2.4,Win32,59.78358343,,,,,,,,,,,,,,,,,,,0.20648151,-0.010185199,1,0,0,0.6162,2,23,75,1,1,b,images/br_b.png,images/cb_b.png,,,,,,,,,,,,,,,,,,,,,,,,,
,,,,,,00019,2023-08-21_22h14.20.816,vbt_B1_day1,2022.2.4,Win32,59.78358343,,,,,,,,,,,,,,,,,,,0.20648151,-0.010185199,1,0,0,3.4465,2,24,76,2,1,c,images/br_c.png,images/cb_c.png,,,,,,,,,,,,,,,,,,,,,,,,,
,,,,,,00019,2023-08-21_22h14.20.816,vbt_B1_day1,2022.2.4,Win32,59.78358343,,,,,,,,,,,,,,,,,,,0.20648151,-0.010185199,1,0,0,0.6495,2,25,77,7,1,h,images/br_h.png,images/cb_h.png,,,,,,,,,,,,,,,,,,,,,,,,,
,,,,,,00019,2023-08-21_22h14.20.816,vbt_B1_day1,2022.2.4,Win32,59.78358343,,,,,,,,,,,,,,,,,,,0.20648151,-0.010185199,1,0,0,13.9551,3,0,78,24,1,y,images/br_y.png,images/cb_y.png,,,,,,,,,,,,,,,,,,,,,,,,,
,,,,,,00019,2023-08-21_22h14.20.816,vbt_B1_day1,2022.2.4,Win32,59.78358343,,,,,,,,,,,,,,,,,,,0.20648151,-0.010185199,1,0,0,14.1217,3,1,79,19,1,t,images/br_t.png,images/cb_t.png,,,,,,,,,,,,,,,,,,,,,,,,,
,,,,,,00019,2023-08-21_22h14.20.816,vbt_B1_day1,2022.2.4,Win32,59.78358343,,,,,,,,,,,,,,,,,,,0.20648151,-0.010185199,1,0,0,0.0667,3,2,80,23,1,x,images/br_x.png,images/cb_x.png,,,,,,,,,,,,,,,,,,,,,,,,,
,,,,,,00019,2023-08-21_22h14.20.816,vbt_B1_day1,2022.2.4,Win32,59.78358343,,,,,,,,,,,,,,,,,,,0.20648151,-0.010185199,1,0,0,0.6666,3,3,81,13,1,n,images/br_n.png,images/cb_n.png,,,,,,,,,,,,,,,,,,,,,,,,,
,,,,,,00019,2023-08-21_22h14.20.816,vbt_B1_day1,2022.2.4,Win32,59.78358343,,,,,,,,,,,,,,,,,,,0.20648151,-0.010185199,1,0,0,0.7828,3,4,82,22,1,w,images/br_w.png,images/cb_w.png,,,,,,,,,,,,,,,,,,,,,,,,,
,,,,,,00019,2023-08-21_22h14.20.816,vbt_B1_day1,2022.2.4,Win32,59.78358343,,,,,,,,,,,,,,,,,,,0.20648151,-0.010185199,1,0,0,0.6162,3,5,83,12,1,m,images/br_m.png,images/cb_m.png,,,,,,,,,,,,,,,,,,,,,,,,,
,,,,,,00019,2023-08-21_22h14.20.816,vbt_B1_day1,2022.2.4,Win32,59.78358343,,,,,,,,,,,,,,,,,,,0.20648151,-0.010185199,1,0,0,1.2822,3,6,84,6,1,g,images/br_g.png,images/cb_g.png,,,,,,,,,,,,,,,,,,,,,,,,,
,,,,,,00019,2023-08-21_22h14.20.816,vbt_B1_day1,2022.2.4,Win32,59.78358343,,,,,,,,,,,,,,,,,,,0.20648151,-0.010185199,1,0,0,0.5164,3,7,85,5,1,f,images/br_f.png,images/cb_f.png,,,,,,,,,,,,,,,,,,,,,,,,,
,,,,,,00019,2023-08-21_22h14.20.816,vbt_B1_day1,2022.2.4,Win32,59.78358343,,,,,,,,,,,,,,,,,,,0.20648151,-0.010185199,1,0,0,0.6994,3,8,86,3,1,d,images/br_d.png,images/cb_d.png,,,,,,,,,,,,,,,,,,,,,,,,,
,,,,,,00019,2023-08-21_22h14.20.816,vbt_B1_day1,2022.2.4,Win32,59.78358343,,,,,,,,,,,,,,,,,,,0.20648151,-0.010185199,1,0,0,4.7462,3,9,87,21,1,v,images/br_v.png,images/cb_v.png,,,,,,,,,,,,,,,,,,,,,,,,,
,,,,,,00019,2023-08-21_22h14.20.816,vbt_B1_day1,2022.2.4,Win32,59.78358343,,,,,,,,,,,,,,,,,,,0.20648151,-0.010185199,1,0,0,2.5145,3,10,88,8,1,i,images/br_i.png,images/cb_i.png,,,,,,,,,,,,,,,,,,,,,,,,,
,,,,,,00019,2023-08-21_22h14.20.816,vbt_B1_day1,2022.2.4,Win32,59.78358343,,,,,,,,,,,,,,,,,,,0.20648151,-0.010185199,1,0,0,4.5295,3,11,89,15,1,p,images/br_p.png,images/cb_p.png,,,,,,,,,,,,,,,,,,,,,,,,,
,,,,,,00019,2023-08-21_22h14.20.816,vbt_B1_day1,2022.2.4,Win32,59.78358343,,,,,,,,,,,,,,,,,,,0.20648151,-0.010185199,1,0,0,0.0666,3,12,90,16,1,q,images/br_q.png,images/cb_q.png,,,,,,,,,,,,,,,,,,,,,,,,,
,,,,,,00019,2023-08-21_22h14.20.816,vbt_B1_day1,2022.2.4,Win32,59.78358343,,,,,,,,,,,,,,,,,,,0.20648151,-0.010185199,1,0,0,1.2492,3,13,91,4,1,e,images/br_e.png,images/cb_e.png,,,,,,,,,,,,,,,,,,,,,,,,,
,,,,,,00019,2023-08-21_22h14.20.816,vbt_B1_day1,2022.2.4,Win32,59.78358343,,,,,,,,,,,,,,,,,,,0.20648151,-0.010185199,1,0,0,0.2996,3,14,92,2,1,c,images/br_c.png,images/cb_c.png,,,,,,,,,,,,,,,,,,,,,,,,,
,,,,,,00019,2023-08-21_22h14.20.816,vbt_B1_day1,2022.2.4,Win32,59.78358343,,,,,,,,,,,,,,,,,,,0.20648151,-0.010185199,1,0,0,0.3662,3,15,93,14,1,o,images/br_o.png,images/cb_o.png,,,,,,,,,,,,,,,,,,,,,,,,,
,,,,,,00019,2023-08-21_22h14.20.816,vbt_B1_day1,2022.2.4,Win32,59.78358343,,,,,,,,,,,,,,,,,,,0.20648151,-0.010185199,1,0,0,1.7153,3,16,94,10,1,k,images/br_k.png,images/cb_k.png,,,,,,,,,,,,,,,,,,,,,,,,,
,,,,,,00019,2023-08-21_22h14.20.816,vbt_B1_day1,2022.2.4,Win32,59.78358343,,,,,,,,,,,,,,,,,,,0.20648151,-0.010185199,1,0,0,2.2479,3,17,95,1,1,b,images/br_b.png,images/cb_b.png,,,,,,,,,,,,,,,,,,,,,,,,,
,,,,,,00019,2023-08-21_22h14.20.816,vbt_B1_day1,2022.2.4,Win32,59.78358343,,,,,,,,,,,,,,,,,,,0.20648151,-0.010185199,1,0,0,11.6236,3,18,96,11,1,l,images/br_l.png,images/cb_l.png,,,,,,,,,,,,,,,,,,,,,,,,,
,,,,,,00019,2023-08-21_22h14.20.816,vbt_B1_day1,2022.2.4,Win32,59.78358343,,,,,,,,,,,,,,,,,,,0.20648151,-0.010185199,1,0,0,1.7652,3,19,97,9,1,j,images/br_j.png,images/cb_j.png,,,,,,,,,,,,,,,,,,,,,,,,,
,,,,,,00019,2023-08-21_22h14.20.816,vbt_B1_day1,2022.2.4,Win32,59.78358343,,,,,,,,,,,,,,,,,,,0.20648151,-0.010185199,1,0,0,1.7652,3,20,98,18,1,s,images/br_s.png,images/cb_s.png,,,,,,,,,,,,,,,,,,,,,,,,,
,,,,,,00019,2023-08-21_22h14.20.816,vbt_B1_day1,2022.2.4,Win32,59.78358343,,,,,,,,,,,,,,,,,,,0.20648151,-0.010185199,1,0,0,1.1658,3,21,99,25,1,z,images/br_z.png,images/cb_z.png,,,,,,,,,,,,,,,,,,,,,,,,,
,,,,,,00019,2023-08-21_22h14.20.816,vbt_B1_day1,2022.2.4,Win32,59.78358343,,,,,,,,,,,,,,,,,,,0.20648151,-0.010185199,1,0,0,1.8151,3,22,100,7,1,h,images/br_h.png,images/cb_h.png,,,,,,,,,,,,,,,,,,,,,,,,,
,,,,,,00019,2023-08-21_22h14.20.816,vbt_B1_day1,2022.2.4,Win32,59.78358343,,,,,,,,,,,,,,,,,,,0.20648151,-0.010185199,1,0,0,1.948,3,23,101,0,1,a,images/br_a.png,images/cb_a.png,,,,,,,,,,,,,,,,,,,,,,,,,
,,,,,,00019,2023-08-21_22h14.20.816,vbt_B1_day1,2022.2.4,Win32,59.78358343,,,,,,,,,,,,,,,,,,,0.20648151,-0.010185199,1,0,0,0.4832,3,24,102,20,1,u,images/br_u.png,images/cb_u.png,,,,,,,,,,,,,,,,,,,,,,,,,
,,,,,,00019,2023-08-21_22h14.20.816,vbt_B1_day1,2022.2.4,Win32,59.78358343,,,,,,,,,,,,,,,,,,,0.20648151,-0.010185199,1,0,0,10.4579,3,25,103,17,1,r,images/br_r.png,images/cb_r.png,,,,,,,,,,,,,,,,,,,,,,,,,
,,,,,,00019,2023-08-21_22h14.20.816,vbt_B1_day1,2022.2.4,Win32,59.78358343,,,,,,,,,,,,,,,,,,,0.20648151,-0.010185199,1,0,0,2.0982,4,0,104,7,1,h,images/br_h.png,images/cb_h.png,,,,,,,,,,,,,,,,,,,,,,,,,
,,,,,,00019,2023-08-21_22h14.20.816,vbt_B1_day1,2022.2.4,Win32,59.78358343,,,,,,,,,,,,,,,,,,,0.20648151,-0.010185199,1,0,0,3.2641,4,1,105,8,1,i,images/br_i.png,images/cb_i.png,,,,,,,,,,,,,,,,,,,,,,,,,
,,,,,,00019,2023-08-21_22h14.20.816,vbt_B1_day1,2022.2.4,Win32,59.78358343,,,,,,,,,,,,,,,,,,,0.20648151,-0.010185199,1,0,0,0.2498,4,2,106,23,1,x,images/br_x.png,images/cb_x.png,,,,,,,,,,,,,,,,,,,,,,,,,
,,,,,,00019,2023-08-21_22h14.20.816,vbt_B1_day1,2022.2.4,Win32,59.78358343,,,,,,,,,,,,,,,,,,,0.20648151,-0.010185199,1,0,0,1.8319,4,3,107,15,1,p,images/br_p.png,images/cb_p.png,,,,,,,,,,,,,,,,,,,,,,,,,
,,,,,,00019,2023-08-21_22h14.20.816,vbt_B1_day1,2022.2.4,Win32,59.78358343,,,,,,,,,,,,,,,,,,,0.20648151,-0.010185199,1,0,0,0.816,4,4,108,3,1,d,images/br_d.png,images/cb_d.png,,,,,,,,,,,,,,,,,,,,,,,,,
,,,,,,00019,2023-08-21_22h14.20.816,vbt_B1_day1,2022.2.4,Win32,59.78358343,,,,,,,,,,,,,,,,,,,0.20648151,-0.010185199,1,0,0,1.4987,4,5,109,11,1,l,images/br_l.png,images/cb_l.png,,,,,,,,,,,,,,,,,,,,,,,,,
,,,,,,00019,2023-08-21_22h14.20.816,vbt_B1_day1,2022.2.4,Win32,59.78358343,,,,,,,,,,,,,,,,,,,0.20648151,-0.010185199,1,0,0,0.0834,4,6,110,20,1,u,images/br_u.png,images/cb_u.png,,,,,,,,,,,,,,,,,,,,,,,,,
,,,,,,00019,2023-08-21_22h14.20.816,vbt_B1_day1,2022.2.4,Win32,59.78358343,,,,,,,,,,,,,,,,,,,0.20648151,-0.010185199,1,0,0,1.6155,4,7,111,18,1,s,images/br_s.png,images/cb_s.png,,,,,,,,,,,,,,,,,,,,,,,,,
,,,,,,00019,2023-08-21_22h14.20.816,vbt_B1_day1,2022.2.4,Win32,59.78358343,,,,,,,,,,,,,,,,,,,0.20648151,-0.010185199,1,0,0,0.2665,4,8,112,2,1,c,images/br_c.png,images/cb_c.png,,,,,,,,,,,,,,,,,,,,,,,,,
,,,,,,00019,2023-08-21_22h14.20.816,vbt_B1_day1,2022.2.4,Win32,59.78358343,,,,,,,,,,,,,,,,,,,0.20648151,-0.010185199,1,0,0,0.6991,4,9,113,12,1,m,images/br_m.png,images/cb_m.png,,,,,,,,,,,,,,,,,,,,,,,,,
,,,,,,00019,2023-08-21_22h14.20.816,vbt_B1_day1,2022.2.4,Win32,59.78358343,,,,,,,,,,,,,,,,,,,0.20648151,-0.010185199,1,0,0,0.5329,4,10,114,0,1,a,images/br_a.png,images/cb_a.png,,,,,,,,,,,,,,,,,,,,,,,,,
,,,,,,00019,2023-08-21_22h14.20.816,vbt_B1_day1,2022.2.4,Win32,59.78358343,,,,,,,,,,,,,,,,,,,0.223148176,-0.019444444,1,0,0,2.9644,4,11,115,25,1,z,images/br_z.png,images/cb_z.png,,,,,,,,,,,,,,,,,,,,,,,,,
,,,,,,00019,2023-08-21_22h14.20.816,vbt_B1_day1,2022.2.4,Win32,59.78358343,,,,,,,,,,,,,,,,,,,0.223148176,-0.019444444,1,0,0,2.3149,4,12,116,17,1,r,images/br_r.png,images/cb_r.png,,,,,,,,,,,,,,,,,,,,,,,,,
,,,,,,00019,2023-08-21_22h14.20.816,vbt_B1_day1,2022.2.4,Win32,59.78358343,,,,,,,,,,,,,,,,,,,0.223148176,-0.019444444,1,0,0,5.2955,4,13,117,10,1,k,images/br_k.png,images/cb_k.png,,,,,,,,,,,,,,,,,,,,,,,,,
,,,,,,00019,2023-08-21_22h14.20.816,vbt_B1_day1,2022.2.4,Win32,59.78358343,,,,,,,,,,,,,,,,,,,0.223148176,-0.019444444,1,0,0,4.2799,4,14,118,22,1,w,images/br_w.png,images/cb_w.png,,,,,,,,,,,,,,,,,,,,,,,,,
,,,,,,00019,2023-08-21_22h14.20.816,vbt_B1_day1,2022.2.4,Win32,59.78358343,,,,,,,,,,,,,,,,,,,0.223148176,-0.019444444,1,0,0,1.5819,4,15,119,1,1,b,images/br_b.png,images/cb_b.png,,,,,,,,,,,,,,,,,,,,,,,,,
,,,,,,00019,2023-08-21_22h14.20.816,vbt_B1_day1,2022.2.4,Win32,59.78358343,,,,,,,,,,,,,,,,,,,0.223148176,-0.019444444,1,0,0,1.3155,4,16,120,4,1,e,images/br_e.png,images/cb_e.png,,,,,,,,,,,,,,,,,,,,,,,,,
,,,,,,00019,2023-08-21_22h14.20.816,vbt_B1_day1,2022.2.4,Win32,59.78358343,,,,,,,,,,,,,,,,,,,0.223148176,-0.019444444,1,0,0,0.6331,4,17,121,16,1,q,images/br_q.png,images/cb_q.png,,,,,,,,,,,,,,,,,,,,,,,,,
,,,,,,00019,2023-08-21_22h14.20.816,vbt_B1_day1,2022.2.4,Win32,59.78358343,,,,,,,,,,,,,,,,,,,0.223148176,-0.019444444,1,0,0,3.1458,4,18,122,13,1,n,images/br_n.png,images/cb_n.png,,,,,,,,,,,,,,,,,,,,,,,,,
,,,,,,00019,2023-08-21_22h14.20.816,vbt_B1_day1,2022.2.4,Win32,59.78358343,,,,,,,,,,,,,,,,,,,0.223148176,-0.019444444,1,0,0,0.4497,4,19,123,14,1,o,images/br_o.png,images/cb_o.png,,,,,,,,,,,,,,,,,,,,,,,,,
,,,,,,00019,2023-08-21_22h14.20.816,vbt_B1_day1,2022.2.4,Win32,59.78358343,,,,,,,,,,,,,,,,,,,0.223148176,-0.019444444,1,0,0,3.3639,4,20,124,24,1,y,images/br_y.png,images/cb_y.png,,,,,,,,,,,,,,,,,,,,,,,,,
,,,,,,00019,2023-08-21_22h14.20.816,vbt_B1_day1,2022.2.4,Win32,59.78358343,,,,,,,,,,,,,,,,,,,0.223148176,-0.019444444,1,0,0,4.7626,4,21,125,21,1,v,images/br_v.png,images/cb_v.png,,,,,,,,,,,,,,,,,,,,,,,,,
,,,,,,00019,2023-08-21_22h14.20.816,vbt_B1_day1,2022.2.4,Win32,59.78358343,,,,,,,,,,,,,,,,,,,0.223148176,-0.019444444,1,0,0,1.8508,4,22,126,19,1,t,images/br_t.png,images/cb_t.png,,,,,,,,,,,,,,,,,,,,,,,,,
,,,,,,00019,2023-08-21_22h14.20.816,vbt_B1_day1,2022.2.4,Win32,59.78358343,,,,,,,,,,,,,,,,,,,0.223148176,-0.019444444,1,0,0,2.5314,4,23,127,9,1,j,images/br_j.png,images/cb_j.png,,,,,,,,,,,,,,,,,,,,,,,,,
,,,,,,00019,2023-08-21_22h14.20.816,vbt_B1_day1,2022.2.4,Win32,59.78358343,,,,,,,,,,,,,,,,,,,0.223148176,-0.019444444,1,0,0,3.9131,4,24,128,5,1,f,images/br_f.png,images/cb_f.png,,,,,,,,,,,,,,,,,,,,,,,,,
,,,,,,00019,2023-08-21_22h14.20.816,vbt_B1_day1,2022.2.4,Win32,59.78358343,,,,,,,,,,,,,,,,,,,0.223148176,-0.019444444,1,0,0,3.8302,4,25,129,6,1,g,images/br_g.png,images/cb_g.png,,,,,,,,,,,,,,,,,,,,,,,,,
,,,,,,00019,2023-08-21_22h14.20.816,vbt_B1_day1,2022.2.4,Win32,59.78358343,,,,,,,,,,,,,,,,,,,0.223148176,-0.019444444,1,0,0,0.4164,5,0,130,0,1,a,images/br_a.png,images/cb_a.png,,,,,,,,,,,,,,,,,,,,,,,,,
,,,,,,00019,2023-08-21_22h14.20.816,vbt_B1_day1,2022.2.4,Win32,59.78358343,,,,,,,,,,,,,,,,,,,0.223148176,-0.019444444,1,0,0,5.1292,5,1,131,16,1,q,images/br_q.png,images/cb_q.png,,,,,,,,,,,,,,,,,,,,,,,,,
,,,,,,00019,2023-08-21_22h14.20.816,vbt_B1_day1,2022.2.4,Win32,59.78358343,,,,,,,,,,,,,,,,,,,0.223148176,-0.019444444,1,0,0,1.9152,5,2,132,11,1,l,images/br_l.png,images/cb_l.png,,,,,,,,,,,,,,,,,,,,,,,,,
,,,,,,00019,2023-08-21_22h14.20.816,vbt_B1_day1,2022.2.4,Win32,59.78358343,,,,,,,,,,,,,,,,,,,0.223148176,-0.019444444,1,0,0,7.2112,5,3,133,20,1,u,images/br_u.png,images/cb_u.png,,,,,,,,,,,,,,,,,,,,,,,,,
,,,,,,00019,2023-08-21_22h14.20.816,vbt_B1_day1,2022.2.4,Win32,59.78358343,,,,,,,,,,,,,,,,,,,0.223148176,-0.019444444,1,0,0,5.6287,5,4,134,6,1,g,images/br_g.png,images/cb_g.png,,,,,,,,,,,,,,,,,,,,,,,,,
,,,,,,00019,2023-08-21_22h14.20.816,vbt_B1_day1,2022.2.4,Win32,59.78358343,,,,,,,,,,,,,,,,,,,0.223148176,-0.019444444,1,0,0,10.7577,5,5,135,5,1,f,images/br_f.png,images/cb_f.png,,,,,,,,,,,,,,,,,,,,,,,,,
,,,,,,00019,2023-08-21_22h14.20.816,vbt_B1_day1,2022.2.4,Win32,59.78358343,,,,,,,,,,,,,,,,,,,0.223148176,-0.019444444,1,0,0,2.1147,5,6,136,13,1,n,images/br_n.png,images/cb_n.png,,,,,,,,,,,,,,,,,,,,,,,,,
,,,,,,00019,2023-08-21_22h14.20.816,vbt_B1_day1,2022.2.4,Win32,59.78358343,,,,,,,,,,,,,,,,,,,0.223148176,-0.019444444,1,0,0,4.7293,5,7,137,2,1,c,images/br_c.png,images/cb_c.png,,,,,,,,,,,,,,,,,,,,,,,,,
,,,,,,00019,2023-08-21_22h14.20.816,vbt_B1_day1,2022.2.4,Win32,59.78358343,,,,,,,,,,,,,,,,,,,0.223148176,-0.019444444,1,0,0,15.9867,5,8,138,15,1,p,images/br_p.png,images/cb_p.png,,,,,,,,,,,,,,,,,,,,,,,,,
,,,,,,00019,2023-08-21_22h14.20.816,vbt_B1_day1,2022.2.4,Win32,59.78358343,,,,,,,,,,,,,,,,,,,0.223148176,-0.019444444,1,0,0,0.3998,5,9,139,4,1,e,images/br_e.png,images/cb_e.png,,,,,,,,,,,,,,,,,,,,,,,,,
,,,,,,00019,2023-08-21_22h14.20.816,vbt_B1_day1,2022.2.4,Win32,59.78358343,,,,,,,,,,,,,,,,,,,0.223148176,-0.019444444,1,0,0,0.4664,5,10,140,25,1,z,images/br_z.png,images/cb_z.png,,,,,,,,,,,,,,,,,,,,,,,,,
,,,,,,00019,2023-08-21_22h14.20.816,vbt_B1_day1,2022.2.4,Win32,59.78358343,,,,,,,,,,,,,,,,,,,0.223148176,-0.019444444,1,0,0,4.3797,5,11,141,12,1,m,images/br_m.png,images/cb_m.png,,,,,,,,,,,,,,,,,,,,,,,,,
,,,,,,00019,2023-08-21_22h14.20.816,vbt_B1_day1,2022.2.4,Win32,59.78358343,,,,,,,,,,,,,,,,,,,0.223148176,-0.019444444,1,0,0,2.5338,5,12,142,21,1,v,images/br_v.png,images/cb_v.png,,,,,,,,,,,,,,,,,,,,,,,,,
,,,,,,00019,2023-08-21_22h14.20.816,vbt_B1_day1,2022.2.4,Win32,59.78358343,,,,,,,,,,,,,,,,,,,0.223148176,-0.019444444,1,0,0,3.5466,5,13,143,24,1,y,images/br_y.png,images/cb_y.png,,,,,,,,,,,,,,,,,,,,,,,,,
,,,,,,00019,2023-08-21_22h14.20.816,vbt_B1_day1,2022.2.4,Win32,59.78358343,,,,,,,,,,,,,,,,,,,0.223148176,-0.019444444,1,0,0,5.3291,5,14,144,9,1,j,images/br_j.png,images/cb_j.png,,,,,,,,,,,,,,,,,,,,,,,,,
,,,,,,00019,2023-08-21_22h14.20.816,vbt_B1_day1,2022.2.4,Win32,59.78358343,,,,,,,,,,,,,,,,,,,0.223148176,-0.019444444,1,0,0,3.3643,5,15,145,22,1,w,images/br_w.png,images/cb_w.png,,,,,,,,,,,,,,,,,,,,,,,,,
,,,,,,00019,2023-08-21_22h14.20.816,vbt_B1_day1,2022.2.4,Win32,59.78358343,,,,,,,,,,,,,,,,,,,0.223148176,-0.019444444,1,0,0,2.5811,5,16,146,18,1,s,images/br_s.png,images/cb_s.png,,,,,,,,,,,,,,,,,,,,,,,,,
,,,,,,00019,2023-08-21_22h14.20.816,vbt_B1_day1,2022.2.4,Win32,59.78358343,,,,,,,,,,,,,,,,,,,0.223148176,-0.019444444,1,0,0,3.8635,5,17,147,3,1,d,images/br_d.png,images/cb_d.png,,,,,,,,,,,,,,,,,,,,,,,,,
,,,,,,00019,2023-08-21_22h14.20.816,vbt_B1_day1,2022.2.4,Win32,59.78358343,,,,,,,,,,,,,,,,,,,0.223148176,-0.019444444,1,0,0,1.3988,5,18,148,17,1,r,images/br_r.png,images/cb_r.png,,,,,,,,,,,,,,,,,,,,,,,,,
,,,,,,00019,2023-08-21_22h14.20.816,vbt_B1_day1,2022.2.4,Win32,59.78358343,,,,,,,,,,,,,,,,,,,0.223148176,-0.019444444,1,0,0,2.4647,5,19,149,1,1,b,images/br_b.png,images/cb_b.png,,,,,,,,,,,,,,,,,,,,,,,,,
,,,,,,00019,2023-08-21_22h14.20.816,vbt_B1_day1,2022.2.4,Win32,59.78358343,,,,,,,,,,,,,,,,,,,0.223148176,-0.019444444,1,0,0,0.0999,5,20,150,8,1,i,images/br_i.png,images/cb_i.png,,,,,,,,,,,,,,,,,,,,,,,,,
,,,,,,00019,2023-08-21_22h14.20.816,vbt_B1_day1,2022.2.4,Win32,59.78358343,,,,,,,,,,,,,,,,,,,0.223148176,-0.019444444,1,0,0,0.9661,5,21,151,23,1,x,images/br_x.png,images/cb_x.png,,,,,,,,,,,,,,,,,,,,,,,,,
,,,,,,00019,2023-08-21_22h14.20.816,vbt_B1_day1,2022.2.4,Win32,59.78358343,,,,,,,,,,,,,,,,,,,0.223148176,-0.019444444,1,0,0,0.7327,5,22,152,14,1,o,images/br_o.png,images/cb_o.png,,,,,,,,,,,,,,,,,,,,,,,,,
,,,,,,00019,2023-08-21_22h14.20.816,vbt_B1_day1,2022.2.4,Win32,59.78358343,,,,,,,,,,,,,,,,,,,0.223148176,-0.019444444,1,0,0,2.9809,5,23,153,10,1,k,images/br_k.png,images/cb_k.png,,,,,,,,,,,,,,,,,,,,,,,,,
,,,,,,00019,2023-08-21_22h14.20.816,vbt_B1_day1,2022.2.4,Win32,59.78358343,,,,,,,,,,,,,,,,,,,0.223148176,-0.019444444,1,0,0,5.1292,5,24,154,19,1,t,images/br_t.png,images/cb_t.png,,,,,,,,,,,,,,,,,,,,,,,,,
,,,,,,00019,2023-08-21_22h14.20.816,vbt_B1_day1,2022.2.4,Win32,59.78358343,,,,,,,,,,,,,,,,,,,0.223148176,-0.019444444,1,0,0,4.996,5,25,155,7,1,h,images/br_h.png,images/cb_h.png,,,,,,,,,,,,,,,,,,,,,,,,,
,,,,,,00019,2023-08-21_22h14.20.816,vbt_B1_day1,2022.2.4,Win32,59.78358343,,,,,,,,,,,,,,,,,,,0.223148176,-0.019444444,1,0,0,7.7275,6,0,156,3,1,d,images/br_d.png,images/cb_d.png,,,,,,,,,,,,,,,,,,,,,,,,,
,,,,,,00019,2023-08-21_22h14.20.816,vbt_B1_day1,2022.2.4,Win32,59.78358343,,,,,,,,,,,,,,,,,,,0.223148176,-0.019444444,1,0,0,0.5996,6,1,157,17,1,r,images/br_r.png,images/cb_r.png,,,,,,,,,,,,,,,,,,,,,,,,,
,,,,,,00019,2023-08-21_22h14.20.816,vbt_B1_day1,2022.2.4,Win32,59.78358343,,,,,,,,,,,,,,,,,,,0.223148176,-0.019444444,1,0,0,2.3318,6,2,158,23,1,x,images/br_x.png,images/cb_x.png,,,,,,,,,,,,,,,,,,,,,,,,,
,,,,,,00019,2023-08-21_22h14.20.816,vbt_B1_day1,2022.2.4,Win32,59.78358343,,,,,,,,,,,,,,,,,,,0.223148176,-0.019444444,1,0,0,0.1999,6,3,159,18,1,s,images/br_s.png,images/cb_s.png,,,,,,,,,,,,,,,,,,,,,,,,,
,,,,,,00019,2023-08-21_22h14.20.816,vbt_B1_day1,2022.2.4,Win32,59.78358343,,,,,,,,,,,,,,,,,,,0.223148176,-0.019444444,1,0,0,0.2498,6,4,160,1,1,b,images/br_b.png,images/cb_b.png,,,,,,,,,,,,,,,,,,,,,,,,,
,,,,,,00019,2023-08-21_22h14.20.816,vbt_B1_day1,2022.2.4,Win32,59.78358343,,,,,,,,,,,,,,,,,,,0.223148176,-0.019444444,1,0,0,0.6831,6,5,161,24,1,y,images/br_y.png,images/cb_y.png,,,,,,,,,,,,,,,,,,,,,,,,,
,,,,,,00019,2023-08-21_22h14.20.816,vbt_B1_day1,2022.2.4,Win32,59.78358343,,,,,,,,,,,,,,,,,,,0.223148176,-0.019444444,1,0,0,3.5804,6,6,162,9,1,j,images/br_j.png,images/cb_j.png,,,,,,,,,,,,,,,,,,,,,,,,,
,,,,,,00019,2023-08-21_22h14.20.816,vbt_B1_day1,2022.2.4,Win32,59.78358343,,,,,,,,,,,,,,,,,,,0.223148176,-0.019444444,1,0,0,0.716,6,7,163,10,1,k,images/br_k.png,images/cb_k.png,,,,,,,,,,,,,,,,,,,,,,,,,
,,,,,,00019,2023-08-21_22h14.20.816,vbt_B1_day1,2022.2.4,Win32,59.78358343,,,,,,,,,,,,,,,,,,,0.223148176,-0.019444444,1,0,0,0.3496,6,8,164,11,1,l,images/br_l.png,images/cb_l.png,,,,,,,,,,,,,,,,,,,,,,,,,
,,,,,,00019,2023-08-21_22h14.20.816,vbt_B1_day1,2022.2.4,Win32,59.78358343,,,,,,,,,,,,,,,,,,,0.223148176,-0.019444444,1,0,0,2.2651,6,9,165,21,1,v,images/br_v.png,images/cb_v.png,,,,,,,,,,,,,,,,,,,,,,,,,
,,,,,,00019,2023-08-21_22h14.20.816,vbt_B1_day1,2022.2.4,Win32,59.78358343,,,,,,,,,,,,,,,,,,,0.223148176,-0.019444444,1,0,0,1.649,6,10,166,19,1,t,images/br_t.png,images/cb_t.png,,,,,,,,,,,,,,,,,,,,,,,,,
,,,,,,00019,2023-08-21_22h14.20.816,vbt_B1_day1,2022.2.4,Win32,59.78358343,,,,,,,,,,,,,,,,,,,0.223148176,-0.019444444,1,0,0,0.1,6,11,167,0,1,a,images/br_a.png,images/cb_a.png,,,,,,,,,,,,,,,,,,,,,,,,,
,,,,,,00019,2023-08-21_22h14.20.816,vbt_B1_day1,2022.2.4,Win32,59.78358343,,,,,,,,,,,,,,,,,,,0.223148176,-0.019444444,1,0,0,7.577,6,12,168,22,1,w,images/br_w.png,images/cb_w.png,,,,,,,,,,,,,,,,,,,,,,,,,
,,,,,,00019,2023-08-21_22h14.20.816,vbt_B1_day1,2022.2.4,Win32,59.78358343,,,,,,,,,,,,,,,,,,,0.223148176,-0.019444444,1,0,0,0.5661,6,13,169,14,1,o,images/br_o.png,images/cb_o.png,,,,,,,,,,,,,,,,,,,,,,,,,
,,,,,,00019,2023-08-21_22h14.20.816,vbt_B1_day1,2022.2.4,Win32,59.78358343,,,,,,,,,,,,,,,,,,,0.223148176,-0.019444444,1,0,0,0.5334,6,14,170,6,1,g,images/br_g.png,images/cb_g.png,,,,,,,,,,,,,,,,,,,,,,,,,
,,,,,,00019,2023-08-21_22h14.20.816,vbt_B1_day1,2022.2.4,Win32,59.78358343,,,,,,,,,,,,,,,,,,,0.223148176,-0.019444444,1,0,0,0.999,6,15,171,15,1,p,images/br_p.png,images/cb_p.png,,,,,,,,,,,,,,,,,,,,,,,,,
,,,,,,00019,2023-08-21_22h14.20.816,vbt_B1_day1,2022.2.4,Win32,59.78358343,,,,,,,,,,,,,,,,,,,0.223148176,-0.019444444,1,0,0,2.8641,6,16,172,2,1,c,images/br_c.png,images/cb_c.png,,,,,,,,,,,,,,,,,,,,,,,,,
,,,,,,00019,2023-08-21_22h14.20.816,vbt_B1_day1,2022.2.4,Win32,59.78358343,,,,,,,,,,,,,,,,,,,0.223148176,-0.019444444,1,0,0,2.2647,6,17,173,12,1,m,images/br_m.png,images/cb_m.png,,,,,,,,,,,,,,,,,,,,,,,,,
,,,,,,00019,2023-08-21_22h14.20.816,vbt_B1_day1,2022.2.4,Win32,59.78358343,,,,,,,,,,,,,,,,,,,0.223148176,-0.019444444,1,0,0,9.1925,6,18,174,5,1,f,images/br_f.png,images/cb_f.png,,,,,,,,,,,,,,,,,,,,,,,,,
,,,,,,00019,2023-08-21_22h14.20.816,vbt_B1_day1,2022.2.4,Win32,59.78358343,,,,,,,,,,,,,,,,,,,0.223148176,-0.019444444,1,0,0,0.466,6,19,175,16,1,q,images/br_q.png,images/cb_q.png,,,,,,,,,,,,,,,,,,,,,,,,,
,,,,,,00019,2023-08-21_22h14.20.816,vbt_B1_day1,2022.2.4,Win32,59.78358343,,,,,,,,,,,,,,,,,,,0.223148176,-0.019444444,1,0,0,0.4166,6,20,176,7,1,h,images/br_h.png,images/cb_h.png,,,,,,,,,,,,,,,,,,,,,,,,,
,,,,,,00019,2023-08-21_22h14.20.816,vbt_B1_day1,2022.2.4,Win32,59.78358343,,,,,,,,,,,,,,,,,,,0.223148176,-0.019444444,1,0,0,2.0317,6,21,177,13,1,n,images/br_n.png,images/cb_n.png,,,,,,,,,,,,,,,,,,,,,,,,,
,,,,,,00019,2023-08-21_22h14.20.816,vbt_B1_day1,2022.2.4,Win32,59.78358343,,,,,,,,,,,,,,,,,,,0.223148176,-0.019444444,1,0,0,1.2325,6,22,178,25,1,z,images/br_z.png,images/cb_z.png,,,,,,,,,,,,,,,,,,,,,,,,,
,,,,,,00019,2023-08-21_22h14.20.816,vbt_B1_day1,2022.2.4,Win32,59.78358343,,,,,,,,,,,,,,,,,,,0.223148176,-0.019444444,1,0,0,2.2482,6,23,179,20,1,u,images/br_u.png,images/cb_u.png,,,,,,,,,,,,,,,,,,,,,,,,,
,,,,,,00019,2023-08-21_22h14.20.816,vbt_B1_day1,2022.2.4,Win32,59.78358343,,,,,,,,,,,,,,,,,,,0.223148176,-0.019444444,1,0,0,0.0666,6,24,180,8,1,i,images/br_i.png,images/cb_i.png,,,,,,,,,,,,,,,,,,,,,,,,,
,,,,,,00019,2023-08-21_22h14.20.816,vbt_B1_day1,2022.2.4,Win32,59.78358343,,,,,,,,,,,,,,,,,,,0.223148176,-0.019444444,1,0,0,1.2655,6,25,181,4,1,e,images/br_e.png,images/cb_e.png,,,,,,,,,,,,,,,,,,,,,,,,,
,,,,,,00019,2023-08-21_22h14.20.816,vbt_B1_day1,2022.2.4,Win32,59.78358343,,,,,,,,,,,,,,,,,,,,,,,,,,,,,,,,,0.223148176,-0.019444444,1,0,0,,,,,,,,,,,,,,,,,,,,
,,,,,,00019,2023-08-21_22h14.20.816,vbt_B1_day1,2022.2.4,Win32,59.78358343,,,,,,,,,,,,,,,,,,,,,,,,,,,,,,,,,,,,,,0.223148176,-0.019444444,1,0,0,,,,,,,,,,,,,,,
,,,,,,00019,2023-08-21_22h14.20.816,vbt_B1_day1,2022.2.4,Win32,59.78358343,,,,,,,,,,,,,,,,,,,,,,,,,,,,,,,,,,,,,,,,,,,0.223148176,-0.019444444,1,0,0,......,......,0,0,0,38,1,schielen,images/br_schielen.png,images/cb_schielen.png
,,,,,,00019,2023-08-21_22h14.20.816,vbt_B1_day1,2022.2.4,Win32,59.78358343,,,,,,,,,,,,,,,,,,,,,,,,,,,,,,,,,,,,,,,,,,,0.223148176,-0.019444444,1,0,0,.alo.,.alo.,0,1,1,26,1,valop,images/br_valop.png,images/cb_valop.png
,,,,,,00019,2023-08-21_22h14.20.816,vbt_B1_day1,2022.2.4,Win32,59.78358343,,,,,,,,,,,,,,,,,,,,,,,,,,,,,,,,,,,,,,,,,,,0.223148176,-0.019444444,1,0,0,..tie,..tie,0,2,2,48,1,fictie,images/br_fictie.png,images/cb_fictie.png
,,,,,,00019,2023-08-21_22h14.20.816,vbt_B1_day1,2022.2.4,Win32,59.78358343,,,,,,,,,,,,,,,,,,,,,,,,,,,,,,,,,,,,,,,,,,,0.223148176,-0.019444444,1,0,0,lo...,lo...,0,3,3,34,1,lochten,images/br_lochten.png,images/cb_lochten.png
,,,,,,00019,2023-08-21_22h14.20.816,vbt_B1_day1,2022.2.4,Win32,59.78358343,,,,,,,,,,,,,,,,,,,,,,,,,,,,,,,,,,,,,,,,,,,0.223148176,-0.019444444,1,0,0,.le...,.le...,0,4,4,12,1,klimmen,images/br_klimmen.png,images/cb_klimmen.png
,,,,,,00019,2023-08-21_22h14.20.816,vbt_B1_day1,2022.2.4,Win32,59.78358343,,,,,,,,,,,,,,,,,,,,,,,,,,,,,,,,,,,,,,,,,,,0.223148176,-0.019444444,1,0,0,.ee.i..,.ee.i..,0,5,5,57,1,meenemen,images/br_meenemen.png,images/cb_meenemen.png
,,,,,,00019,2023-08-21_22h14.20.816,vbt_B1_day1,2022.2.4,Win32,59.78358343,,,,,,,,,,,,,,,,,,,,,,,,,,,,,,,,,,,,,,,,,,,-0.006481425,-0.224074131,1,0,0,o..laa.,o..laa.,0,6,6,32,1,opplaan,images/br_opplaan.png,images/cb_opplaan.png
,,,,,,00019,2023-08-21_22h14.20.816,vbt_B1_day1,2022.2.4,Win32,59.78358343,,,,,,,,,,,,,,,,,,,,,,,,,,,,,,,,,,,,,,,,,,,-0.006481425,-0.224074131,1,0,0,.oor...,.oor...,0,7,7,58,1,voorkeur,images/br_voorkeur.png,images/cb_voorkeur.png
,,,,,,00019,2023-08-21_22h14.20.816,vbt_B1_day1,2022.2.4,Win32,59.78358343,,,,,,,,,,,,,,,,,,,,,,,,,,,,,,,,,,,,,,,,,,,-0.006481425,-0.224074131,1,0,0,.aar.a.,.aar.a.,0,8,8,14,1,waarvan,images/br_waarvan.png,images/cb_waarvan.png
,,,,,,00019,2023-08-21_22h14.20.816,vbt_B1_day1,2022.2.4,Win32,59.78358343,,,,,,,,,,,,,,,,,,,,,,,,,,,,,,,,,,,,,,,,,,,-0.006481425,-0.224074131,1,0,0,.e.i...,.e.i...,0,9,9,11,1,mening,images/br_mening.png,images/cb_mening.png
,,,,,,00019,2023-08-21_22h14.20.816,vbt_B1_day1,2022.2.4,Win32,59.78358343,,,,,,,,,,,,,,,,,,,,,,,,,,,,,,,,,,,,,,,,,,,-0.006481425,-0.224074131,1,0,0,fla.,fla.,0,10,10,0,1,slak,images/br_slak.png,images/cb_slak.png
,,,,,,00019,2023-08-21_22h14.20.816,vbt_B1_day1,2022.2.4,Win32,59.78358343,,,,,,,,,,,,,,,,,,,,,,,,,,,,,,,,,,,,,,,,,,,-0.006481425,-0.224074131,1,0,0,ma.e.,ma.e.,0,11,11,5,1,maken,images/br_maken.png,images/cb_maken.png
,,,,,,00019,2023-08-21_22h14.20.816,vbt_B1_day1,2022.2.4,Win32,59.78358343,,,,,,,,,,,,,,,,,,,,,,,,,,,,,,,,,,,,,,,,,,,-0.006481425,-0.224074131,1,0,0,booi,booi,0,12,12,23,1,booi,images/br_booi.png,images/cb_booi.png
,,,,,,00019,2023-08-21_22h14.20.816,vbt_B1_day1,2022.2.4,Win32,59.78358343,,,,,,,,,,,,,,,,,,,,,,,,,,,,,,,,,,,,,,,,,,,-0.006481425,-0.224074131,1,0,0,gesos.,gesos.,0,13,13,29,1,genond,images/br_genond.png,images/cb_genond.png
,,,,,,00019,2023-08-21_22h14.20.816,vbt_B1_day1,2022.2.4,Win32,59.78358343,,,,,,,,,,,,,,,,,,,,,,,,,,,,,,,,,,,,,,,,,,,-0.023148092,-0.330555556,1,0,0,..i..,..i..,0,14,14,13,1,twijfel,images/br_twijfel.png,images/cb_twijfel.png
,,,,,,00019,2023-08-21_22h14.20.816,vbt_B1_day1,2022.2.4,Win32,59.78358343,,,,,,,,,,,,,,,,,,,,,,,,,,,,,,,,,,,,,,,,,,,-0.028703647,-0.319444444,1,0,0,zui...,zui...,0,15,15,52,1,zuiplap,images/br_zuiplap.png,images/cb_zuiplap.png
,,,,,,00019,2023-08-21_22h14.20.816,vbt_B1_day1,2022.2.4,Win32,59.78358343,,,,,,,,,,,,,,,,,,,,,,,,,,,,,,,,,,,,,,,,,,,-0.028703647,-0.319444444,1,0,0,kla...,kla...,0,16,16,7,1,klauw,images/br_klauw.png,images/cb_klauw.png
,,,,,,00019,2023-08-21_22h14.20.816,vbt_B1_day1,2022.2.4,Win32,59.78358343,,,,,,,,,,,,,,,,,,,,,,,,,,,,,,,,,,,,,,,,,,,-0.028703647,-0.319444444,1,0,0,atti...,atti...,0,17,17,17,1,attentie,images/br_attentie.png,images/cb_attentie.png
,,,,,,00019,2023-08-21_22h14.20.816,vbt_B1_day1,2022.2.4,Win32,59.78358343,,,,,,,,,,,,,,,,,,,,,,,,,,,,,,,,,,,,,,,,,,,-0.028703647,-0.319444444,1,0,0,op....,op....,0,18,18,59,1,opvatten,images/br_opvatten.png,images/cb_opvatten.png
,,,,,,00019,2023-08-21_22h14.20.816,vbt_B1_day1,2022.2.4,Win32,59.78358343,,,,,,,,,,,,,,,,,,,,,,,,,,,,,,,,,,,,,,,,,,,-0.028703647,-0.319444444,1,0,0,f.a...,f.a...,0,19,19,37,1,spanzing,images/br_spanzing.png,images/cb_spanzing.png
,,,,,,00019,2023-08-21_22h14.20.816,vbt_B1_day1,2022.2.4,Win32,59.78358343,,,,,,,,,,,,,,,,,,,,,,,,,,,,,,,,,,,,,,,,,,,-0.028703647,-0.319444444,1,0,0,.tui...,.tui...,0,20,20,35,1,stuikem,images/br_stuikem.png,images/cb_stuikem.png
,,,,,,00019,2023-08-21_22h14.20.816,vbt_B1_day1,2022.2.4,Win32,59.78358343,,,,,,,,,,,,,,,,,,,,,,,,,,,,,,,,,,,,,,,,,,,-0.028703647,-0.319444444,1,0,0,..uk..,..uk..,0,21,21,42,1,stuk,images/br_stuk.png,images/cb_stuk.png
,,,,,,00019,2023-08-21_22h14.20.816,vbt_B1_day1,2022.2.4,Win32,59.78358343,,,,,,,,,,,,,,,,,,,,,,,,,,,,,,,,,,,,,,,,,,,-0.028703647,-0.319444444,1,0,0,tar.,tar.,0,22,22,20,1,tars,images/br_tars.png,images/cb_tars.png
,,,,,,00019,2023-08-21_22h14.20.816,vbt_B1_day1,2022.2.4,Win32,59.78358343,,,,,,,,,,,,,,,,,,,,,,,,,,,,,,,,,,,,,,,,,,,-0.028703647,-0.319444444,1,0,0,clull.,clull.,0,23,23,33,1,flullen,images/br_flullen.png,images/cb_flullen.png
,,,,,,00019,2023-08-21_22h14.20.816,vbt_B1_day1,2022.2.4,Win32,59.78358343,,,,,,,,,,,,,,,,,,,,,,,,,,,,,,,,,,,,,,,,,,,-0.028703647,-0.319444444,1,0,0,.ier...,.ier...,0,24,24,15,1,hiervan,images/br_hiervan.png,images/cb_hiervan.png
,,,,,,00019,2023-08-21_22h14.20.816,vbt_B1_day1,2022.2.4,Win32,59.78358343,,,,,,,,,,,,,,,,,,,,,,,,,,,,,,,,,,,,,,,,,,,-0.028703647,-0.319444444,1,0,0,.ie.,.ie.,0,25,25,40,1,dief,images/br_dief.png,images/cb_dief.png
,,,,,,00019,2023-08-21_22h14.20.816,vbt_B1_day1,2022.2.4,Win32,59.78358343,,,,,,,,,,,,,,,,,,,,,,,,,,,,,,,,,,,,,,,,,,,-0.028703647,-0.319444444,1,0,0,.oorr..,.oorr..,0,26,26,39,1,voorreur,images/br_voorreur.png,images/cb_voorreur.png
,,,,,,00019,2023-08-21_22h14.20.816,vbt_B1_day1,2022.2.4,Win32,59.78358343,,,,,,,,,,,,,,,,,,,,,,,,,,,,,,,,,,,,,,,,,,,-0.028703647,-0.319444444,1,0,0,......,......,0,27,27,19,1,schuilen,images/br_schuilen.png,images/cb_schuilen.png
,,,,,,00019,2023-08-21_22h14.20.816,vbt_B1_day1,2022.2.4,Win32,59.78358343,,,,,,,,,,,,,,,,,,,,,,,,,,,,,,,,,,,,,,,,,,,-0.028703647,-0.319444444,1,0,0,lezez,lezez,0,28,28,46,1,lezen,images/br_lezen.png,images/cb_lezen.png
,,,,,,00019,2023-08-21_22h14.20.816,vbt_B1_day1,2022.2.4,Win32,59.78358343,,,,,,,,,,,,,,,,,,,,,,,,,,,,,,,,,,,,,,,,,,,-0.028703647,-0.319444444,1,0,0,ksoi,ksoi,0,29,29,22,1,knoe,images/br_knoe.png,images/cb_knoe.png
,,,,,,00019,2023-08-21_22h14.20.816,vbt_B1_day1,2022.2.4,Win32,59.78358343,,,,,,,,,,,,,,,,,,,,,,,,,,,,,,,,,,,,,,,,,,,-0.028703647,-0.319444444,1,0,0,liec..,liec..,0,30,30,51,1,liefde,images/br_liefde.png,images/cb_liefde.png
,,,,,,00019,2023-08-21_22h14.20.816,vbt_B1_day1,2022.2.4,Win32,59.78358343,,,,,,,,,,,,,,,,,,,,,,,,,,,,,,,,,,,,,,,,,,,-0.028703647,-0.319444444,1,0,0,..zie.,..zie.,0,31,31,10,1,muziek,images/br_muziek.png,images/cb_muziek.png
,,,,,,00019,2023-08-21_22h14.20.816,vbt_B1_day1,2022.2.4,Win32,59.78358343,,,,,,,,,,,,,,,,,,,,,,,,,,,,,,,,,,,,,,,,,,,-0.028703647,-0.319444444,1,0,0,.izie..,.izie..,0,32,32,49,1,vizier,images/br_vizier.png,images/cb_vizier.png
,,,,,,00019,2023-08-21_22h14.20.816,vbt_B1_day1,2022.2.4,Win32,59.78358343,,,,,,,,,,,,,,,,,,,,,,,,,,,,,,,,,,,,,,,,,,,-0.028703647,-0.319444444,1,0,0,.iz..,.iz..,0,33,33,44,1,wijze,images/br_wijze.png,images/cb_wijze.png
,,,,,,00019,2023-08-21_22h14.20.816,vbt_B1_day1,2022.2.4,Win32,59.78358343,,,,,,,,,,,,,,,,,,,,,,,,,,,,,,,,,,,,,,,,,,,-0.028703647,-0.319444444,1,0,0,.it....,.it....,0,34,34,18,1,uitdelen,images/br_uitdelen.png,images/cb_uitdelen.png
,,,,,,00019,2023-08-21_22h14.20.816,vbt_B1_day1,2022.2.4,Win32,59.78358343,,,,,,,,,,,,,,,,,,,,,,,,,,,,,,,,,,,,,,,,,,,-0.028703647,-0.319444444,1,0,0,liegen,liegen,0,35,35,50,1,liegen,images/br_liegen.png,images/cb_liegen.png
,,,,,,00019,2023-08-21_22h14.20.816,vbt_B1_day1,2022.2.4,Win32,59.78358343,,,,,,,,,,,,,,,,,,,,,,,,,,,,,,,,,,,,,,,,,,,-0.028703647,-0.319444444,1,0,0,.re.,.re.,0,36,36,21,1,dred,images/br_dred.png,images/cb_dred.png
,,,,,,00019,2023-08-21_22h14.20.816,vbt_B1_day1,2022.2.4,Win32,59.78358343,,,,,,,,,,,,,,,,,,,,,,,,,,,,,,,,,,,,,,,,,,,-0.028703647,-0.319444444,1,0,0,zaal,zaal,0,37,37,1,1,zaal,images/br_zaal.png,images/cb_zaal.png
,,,,,,00019,2023-08-21_22h14.20.816,vbt_B1_day1,2022.2.4,Win32,59.78358343,,,,,,,,,,,,,,,,,,,,,,,,,,,,,,,,,,,,,,,,,,,-0.028703647,-0.319444444,1,0,0,.aar,.aar,0,38,38,2,1,jaar,images/br_jaar.png,images/cb_jaar.png
,,,,,,00019,2023-08-21_22h14.20.816,vbt_B1_day1,2022.2.4,Win32,59.78358343,,,,,,,,,,,,,,,,,,,,,,,,,,,,,,,,,,,,,,,,,,,-0.028703647,-0.319444444,1,0,0,prort,prort,0,39,39,27,1,prort,images/br_prort.png,images/cb_prort.png
,,,,,,00019,2023-08-21_22h14.20.816,vbt_B1_day1,2022.2.4,Win32,59.78358343,,,,,,,,,,,,,,,,,,,,,,,,,,,,,,,,,,,,,,,,,,,-0.028703647,-0.319444444,1,0,0,.e.el,.e.el,0,40,40,45,1,hemel,images/br_hemel.png,images/cb_hemel.png
,,,,,,00019,2023-08-21_22h14.20.816,vbt_B1_day1,2022.2.4,Win32,59.78358343,,,,,,,,,,,,,,,,,,,,,,,,,,,,,,,,,,,,,,,,,,,-0.028703647,-0.319444444,1,0,0,hoog,hoog,0,41,41,41,1,hoog,images/br_hoog.png,images/cb_hoog.png
,,,,,,00019,2023-08-21_22h14.20.816,vbt_B1_day1,2022.2.4,Win32,59.78358343,,,,,,,,,,,,,,,,,,,,,,,,,,,,,,,,,,,,,,,,,,,-0.028703647,-0.319444444,1,0,0,toezi..,toezi..,0,42,42,56,1,toezicht,images/br_toezicht.png,images/cb_toezicht.png
,,,,,,00019,2023-08-21_22h14.20.816,vbt_B1_day1,2022.2.4,Win32,59.78358343,,,,,,,,,,,,,,,,,,,,,,,,,,,,,,,,,,,,,,,,,,,-0.028703647,-0.319444444,1,0,0,teken..,teken..,0,43,43,55,1,tekenen,images/br_tekenen.png,images/cb_tekenen.png
,,,,,,00019,2023-08-21_22h14.20.816,vbt_B1_day1,2022.2.4,Win32,59.78358343,,,,,,,,,,,,,,,,,,,,,,,,,,,,,,,,,,,,,,,,,,,-0.028703647,-0.319444444,1,0,0,..bbel,..bbel,0,44,44,9,1,dubbel,images/br_dubbel.png,images/cb_dubbel.png
,,,,,,00019,2023-08-21_22h14.20.816,vbt_B1_day1,2022.2.4,Win32,59.78358343,,,,,,,,,,,,,,,,,,,,,,,,,,,,,,,,,,,,,,,,,,,-0.028703647,-0.319444444,1,0,0,.an.,.an.,0,45,45,3,1,mand,images/br_mand.png,images/cb_mand.png
,,,,,,00019,2023-08-21_22h14.20.816,vbt_B1_day1,2022.2.4,Win32,59.78358343,,,,,,,,,,,,,,,,,,,,,,,,,,,,,,,,,,,,,,,,,,,-0.028703647,-0.319444444,1,0,0,ree...e,ree...e,0,46,46,30,1,reedje,images/br_reedje.png,images/cb_reedje.png
,,,,,,00019,2023-08-21_22h14.20.816,vbt_B1_day1,2022.2.4,Win32,59.78358343,,,,,,,,,,,,,,,,,,,,,,,,,,,,,,,,,,,,,,,,,,,-0.028703647,-0.319444444,1,0,0,.....,.....,0,47,47,31,1,stamen,images/br_stamen.png,images/cb_stamen.png
,,,,,,00019,2023-08-21_22h14.20.816,vbt_B1_day1,2022.2.4,Win32,59.78358343,,,,,,,,,,,,,,,,,,,,,,,,,,,,,,,,,,,,,,,,,,,-0.028703647,-0.319444444,1,0,0,rener,rener,0,48,48,24,1,rezer,images/br_rezer.png,images/cb_rezer.png
,,,,,,00019,2023-08-21_22h14.20.816,vbt_B1_day1,2022.2.4,Win32,59.78358343,,,,,,,,,,,,,,,,,,,,,,,,,,,,,,,,,,,,,,,,,,,-0.028703647,-0.319444444,1,0,0,bebre.,bebre.,0,49,49,28,1,bebrip,images/br_bebrip.png,images/cb_bebrip.png
,,,,,,00019,2023-08-21_22h14.20.816,vbt_B1_day1,2022.2.4,Win32,59.78358343,,,,,,,,,,,,,,,,,,,,,,,,,,,,,,,,,,,,,,,,,,,-0.028703647,-0.319444444,1,0,0,lavra,lavra,0,50,50,43,1,lava,images/br_lava.png,images/cb_lava.png
,,,,,,00019,2023-08-21_22h14.20.816,vbt_B1_day1,2022.2.4,Win32,59.78358343,,,,,,,,,,,,,,,,,,,,,,,,,,,,,,,,,,,,,,,,,,,-0.028703647,-0.319444444,1,0,0,.aar...,.aar...,0,51,51,16,1,daarheen,images/br_daarheen.png,images/cb_daarheen.png
,,,,,,00019,2023-08-21_22h14.20.816,vbt_B1_day1,2022.2.4,Win32,59.78358343,,,,,,,,,,,,,,,,,,,,,,,,,,,,,,,,,,,,,,,,,,,-0.028703647,-0.319444444,1,0,0,loo...,loo...,0,52,52,47,1,loods,images/br_loods.png,images/cb_loods.png
,,,,,,00019,2023-08-21_22h14.20.816,vbt_B1_day1,2022.2.4,Win32,59.78358343,,,,,,,,,,,,,,,,,,,,,,,,,,,,,,,,,,,,,,,,,,,-0.074074046,-0.325,1,0,0,.i...,.i...,0,53,53,54,1,vijftig,images/br_vijftig.png,images/cb_vijftig.png
,,,,,,00019,2023-08-21_22h14.20.816,vbt_B1_day1,2022.2.4,Win32,59.78358343,,,,,,,,,,,,,,,,,,,,,,,,,,,,,,,,,,,,,,,,,,,-0.074074046,-0.325,1,0,0,bleek,bleek,0,54,54,6,1,bleek,images/br_bleek.png,images/cb_bleek.png
,,,,,,00019,2023-08-21_22h14.20.816,vbt_B1_day1,2022.2.4,Win32,59.78358343,,,,,,,,,,,,,,,,,,,,,,,,,,,,,,,,,,,,,,,,,,,-0.074074046,-0.325,1,0,0,bri.k,bri.k,0,55,55,25,1,brijk,images/br_brijk.png,images/cb_brijk.png
,,,,,,00019,2023-08-21_22h14.20.816,vbt_B1_day1,2022.2.4,Win32,59.78358343,,,,,,,,,,,,,,,,,,,,,,,,,,,,,,,,,,,,,,,,,,,-0.074074046,-0.325,1,0,0,...ep,...ep,0,56,56,4,1,schep,images/br_schep.png,images/cb_schep.png
,,,,,,00019,2023-08-21_22h14.20.816,vbt_B1_day1,2022.2.4,Win32,59.78358343,,,,,,,,,,,,,,,,,,,,,,,,,,,,,,,,,,,,,,,,,,,-0.074074046,-0.325,1,0,0,opfla..,opfla..,0,57,57,53,1,opslaan,images/br_opslaan.png,images/cb_opslaan.png
,,,,,,00019,2023-08-21_22h14.20.816,vbt_B1_day1,2022.2.4,Win32,59.78358343,,,,,,,,,,,,,,,,,,,,,,,,,,,,,,,,,,,,,,,,,,,-0.074074046,-0.325,1,0,0,.er.a..,.er.a..,0,58,58,36,1,vervaden,images/br_vervaden.png,images/cb_vervaden.png
,,,,,,00019,2023-08-21_22h14.20.816,vbt_B1_day1,2022.2.4,Win32,59.78358343,,,,,,,,,,,,,,,,,,,,,,,,,,,,,,,,,,,,,,,,,,,-0.095370314,-0.309259288,1,0,0,ka.n.,ka.n.,0,59,59,8,1,kanjer,images/br_kanjer.png,images/cb_kanjer.png
,,,,,,00019,2023-08-21_22h14.20.816,vbt_B1_day1,2022.2.4,Win32,59.78358343,,,,,,,,,,,,,,,,,,,,,,,,,,,,,,,,,,,,,,,,,,,,,,,,,,,,,,,,,
