welcome_mouse.x,welcome_mouse.y,welcome_mouse.leftButton,welcome_mouse.midButton,welcome_mouse.rightButton,welcome_mouse.time,"ID",date,expName,psychopyVersion,OS,frameRate,mouse_2.x,mouse_2.y,mouse_2.leftButton,mouse_2.midButton,mouse_2.rightButton,mouse_2.time,mouse_3.x,mouse_3.y,mouse_3.leftButton,mouse_3.midButton,mouse_3.rightButton,mouse_3.time,train_mouse.x,train_mouse.y,train_mouse.leftButton,train_mouse.midButton,train_mouse.rightButton,train_mouse.time,braille_mouse.x,braille_mouse.y,braille_mouse.leftButton,braille_mouse.midButton,braille_mouse.rightButton,braille_mouse.time,trials.thisRepN,trials.thisTrialN,trials.thisN,trials.thisIndex,trials.ran,nlLet,brLet,cbLet,mouse.x,mouse.y,mouse.leftButton,mouse.midButton,mouse.rightButton,testInstr_mouse.x,testInstr_mouse.y,testInstr_mouse.leftButton,testInstr_mouse.midButton,testInstr_mouse.rightButton,test_mouse.x,test_mouse.y,test_mouse.leftButton,test_mouse.midButton,test_mouse.rightButton,test_response.text,testResp,test_loop.thisRepN,test_loop.thisTrialN,test_loop.thisN,test_loop.thisIndex,test_loop.ran,nlWrd,brWrd,cbWrd
-0.27870369,-0.404629672,1,0,0,12.0255,00076,2023-10-17_19h52.40.800,vbt_B1_day1,2022.2.4,Win32,60.06006006,,,,,,,,,,,,,,,,,,,,,,,,,,,,,,,,,,,,,,,,,,,,,,,,,,,,,,,,,
,,,,,,00076,2023-10-17_19h52.40.800,vbt_B1_day1,2022.2.4,Win32,60.06006006,-0.136111083,-0.359259288,1,0,0,8.9738,,,,,,,,,,,,,,,,,,,,,,,,,,,,,,,,,,,,,,,,,,,,,,,,,,,
,,,,,,00076,2023-10-17_19h52.40.800,vbt_B1_day1,2022.2.4,Win32,60.06006006,,,,,,,-0.062037009,-0.406481496,1,0,0,45.8503,,,,,,,,,,,,,,,,,,,,,,,,,,,,,,,,,,,,,,,,,,,,,
,,,,,,00076,2023-10-17_19h52.40.800,vbt_B1_day1,2022.2.4,Win32,60.06006006,,,,,,,,,,,,,0.17777782,-0.171296296,1,0,0,17.0162,,,,,,,,,,,,,,,,,,,,,,,,,,,,,,,,,,,,,,,
,,,,,,00076,2023-10-17_19h52.40.800,vbt_B1_day1,2022.2.4,Win32,60.06006006,,,,,,,,,,,,,,,,,,,0.339814787,-0.242592635,1,0,0,4.1025,0,0,0,8,1,i,images/br_i.png,images/cb_i.png,,,,,,,,,,,,,,,,,,,,,,,,,
,,,,,,00076,2023-10-17_19h52.40.800,vbt_B1_day1,2022.2.4,Win32,60.06006006,,,,,,,,,,,,,,,,,,,0.339814787,-0.242592635,1,0,0,8.888,0,1,1,6,1,g,images/br_g.png,images/cb_g.png,,,,,,,,,,,,,,,,,,,,,,,,,
,,,,,,00076,2023-10-17_19h52.40.800,vbt_B1_day1,2022.2.4,Win32,60.06006006,,,,,,,,,,,,,,,,,,,0.339814787,-0.242592635,1,0,0,2.2328,0,2,2,10,1,k,images/br_k.png,images/cb_k.png,,,,,,,,,,,,,,,,,,,,,,,,,
,,,,,,00076,2023-10-17_19h52.40.800,vbt_B1_day1,2022.2.4,Win32,60.06006006,,,,,,,,,,,,,,,,,,,0.339814787,-0.242592635,1,0,0,1.7334,0,3,3,0,1,a,images/br_a.png,images/cb_a.png,,,,,,,,,,,,,,,,,,,,,,,,,
,,,,,,00076,2023-10-17_19h52.40.800,vbt_B1_day1,2022.2.4,Win32,60.06006006,,,,,,,,,,,,,,,,,,,0.339814787,-0.242592635,1,0,0,2.2831,0,4,4,23,1,x,images/br_x.png,images/cb_x.png,,,,,,,,,,,,,,,,,,,,,,,,,
,,,,,,00076,2023-10-17_19h52.40.800,vbt_B1_day1,2022.2.4,Win32,60.06006006,,,,,,,,,,,,,,,,,,,0.339814787,-0.242592635,1,0,0,0.617,0,5,5,18,1,s,images/br_s.png,images/cb_s.png,,,,,,,,,,,,,,,,,,,,,,,,,
,,,,,,00076,2023-10-17_19h52.40.800,vbt_B1_day1,2022.2.4,Win32,60.06006006,,,,,,,,,,,,,,,,,,,0.339814787,-0.242592635,1,0,0,1.4662,0,6,6,12,1,m,images/br_m.png,images/cb_m.png,,,,,,,,,,,,,,,,,,,,,,,,,
,,,,,,00076,2023-10-17_19h52.40.800,vbt_B1_day1,2022.2.4,Win32,60.06006006,,,,,,,,,,,,,,,,,,,0.339814787,-0.242592635,1,0,0,1.6997,0,7,7,13,1,n,images/br_n.png,images/cb_n.png,,,,,,,,,,,,,,,,,,,,,,,,,
,,,,,,00076,2023-10-17_19h52.40.800,vbt_B1_day1,2022.2.4,Win32,60.06006006,,,,,,,,,,,,,,,,,,,0.339814787,-0.242592635,1,0,0,4.2155,0,8,8,17,1,r,images/br_r.png,images/cb_r.png,,,,,,,,,,,,,,,,,,,,,,,,,
,,,,,,00076,2023-10-17_19h52.40.800,vbt_B1_day1,2022.2.4,Win32,60.06006006,,,,,,,,,,,,,,,,,,,0.339814787,-0.242592635,1,0,0,3.6486,0,9,9,20,1,u,images/br_u.png,images/cb_u.png,,,,,,,,,,,,,,,,,,,,,,,,,
,,,,,,00076,2023-10-17_19h52.40.800,vbt_B1_day1,2022.2.4,Win32,60.06006006,,,,,,,,,,,,,,,,,,,0.339814787,-0.242592635,1,0,0,2.8494,0,10,10,7,1,h,images/br_h.png,images/cb_h.png,,,,,,,,,,,,,,,,,,,,,,,,,
,,,,,,00076,2023-10-17_19h52.40.800,vbt_B1_day1,2022.2.4,Win32,60.06006006,,,,,,,,,,,,,,,,,,,0.339814787,-0.242592635,1,0,0,4.2152,0,11,11,5,1,f,images/br_f.png,images/cb_f.png,,,,,,,,,,,,,,,,,,,,,,,,,
,,,,,,00076,2023-10-17_19h52.40.800,vbt_B1_day1,2022.2.4,Win32,60.06006006,,,,,,,,,,,,,,,,,,,0.339814787,-0.242592635,1,0,0,1.3831,0,12,12,15,1,p,images/br_p.png,images/cb_p.png,,,,,,,,,,,,,,,,,,,,,,,,,
,,,,,,00076,2023-10-17_19h52.40.800,vbt_B1_day1,2022.2.4,Win32,60.06006006,,,,,,,,,,,,,,,,,,,0.339814787,-0.242592635,1,0,0,2.6662,0,13,13,4,1,e,images/br_e.png,images/cb_e.png,,,,,,,,,,,,,,,,,,,,,,,,,
,,,,,,00076,2023-10-17_19h52.40.800,vbt_B1_day1,2022.2.4,Win32,60.06006006,,,,,,,,,,,,,,,,,,,0.339814787,-0.242592635,1,0,0,1,0,14,14,16,1,q,images/br_q.png,images/cb_q.png,,,,,,,,,,,,,,,,,,,,,,,,,
,,,,,,00076,2023-10-17_19h52.40.800,vbt_B1_day1,2022.2.4,Win32,60.06006006,,,,,,,,,,,,,,,,,,,0.339814787,-0.242592635,1,0,0,1.1163,0,15,15,22,1,w,images/br_w.png,images/cb_w.png,,,,,,,,,,,,,,,,,,,,,,,,,
,,,,,,00076,2023-10-17_19h52.40.800,vbt_B1_day1,2022.2.4,Win32,60.06006006,,,,,,,,,,,,,,,,,,,0.339814787,-0.242592635,1,0,0,0.6669,0,16,16,1,1,b,images/br_b.png,images/cb_b.png,,,,,,,,,,,,,,,,,,,,,,,,,
,,,,,,00076,2023-10-17_19h52.40.800,vbt_B1_day1,2022.2.4,Win32,60.06006006,,,,,,,,,,,,,,,,,,,0.339814787,-0.242592635,1,0,0,0.7333,0,17,17,2,1,c,images/br_c.png,images/cb_c.png,,,,,,,,,,,,,,,,,,,,,,,,,
,,,,,,00076,2023-10-17_19h52.40.800,vbt_B1_day1,2022.2.4,Win32,60.06006006,,,,,,,,,,,,,,,,,,,0.305555556,-0.125925912,1,0,0,2.5155,0,18,18,9,1,j,images/br_j.png,images/cb_j.png,,,,,,,,,,,,,,,,,,,,,,,,,
,,,,,,00076,2023-10-17_19h52.40.800,vbt_B1_day1,2022.2.4,Win32,60.06006006,,,,,,,,,,,,,,,,,,,0.305555556,-0.125925912,1,0,0,1.5333,0,19,19,19,1,t,images/br_t.png,images/cb_t.png,,,,,,,,,,,,,,,,,,,,,,,,,
,,,,,,00076,2023-10-17_19h52.40.800,vbt_B1_day1,2022.2.4,Win32,60.06006006,,,,,,,,,,,,,,,,,,,0.305555556,-0.125925912,1,0,0,0.8331,0,20,20,11,1,l,images/br_l.png,images/cb_l.png,,,,,,,,,,,,,,,,,,,,,,,,,
,,,,,,00076,2023-10-17_19h52.40.800,vbt_B1_day1,2022.2.4,Win32,60.06006006,,,,,,,,,,,,,,,,,,,0.305555556,-0.125925912,1,0,0,0.7661,0,21,21,24,1,y,images/br_y.png,images/cb_y.png,,,,,,,,,,,,,,,,,,,,,,,,,
,,,,,,00076,2023-10-17_19h52.40.800,vbt_B1_day1,2022.2.4,Win32,60.06006006,,,,,,,,,,,,,,,,,,,0.305555556,-0.125925912,1,0,0,0.866,0,22,22,3,1,d,images/br_d.png,images/cb_d.png,,,,,,,,,,,,,,,,,,,,,,,,,
,,,,,,00076,2023-10-17_19h52.40.800,vbt_B1_day1,2022.2.4,Win32,60.06006006,,,,,,,,,,,,,,,,,,,0.305555556,-0.125925912,1,0,0,4.1985,0,23,23,21,1,v,images/br_v.png,images/cb_v.png,,,,,,,,,,,,,,,,,,,,,,,,,
,,,,,,00076,2023-10-17_19h52.40.800,vbt_B1_day1,2022.2.4,Win32,60.06006006,,,,,,,,,,,,,,,,,,,0.305555556,-0.125925912,1,0,0,0.333,0,24,24,14,1,o,images/br_o.png,images/cb_o.png,,,,,,,,,,,,,,,,,,,,,,,,,
,,,,,,00076,2023-10-17_19h52.40.800,vbt_B1_day1,2022.2.4,Win32,60.06006006,,,,,,,,,,,,,,,,,,,0.323148233,-0.012962977,1,0,0,0.9,0,25,25,25,1,z,images/br_z.png,images/cb_z.png,,,,,,,,,,,,,,,,,,,,,,,,,
,,,,,,00076,2023-10-17_19h52.40.800,vbt_B1_day1,2022.2.4,Win32,60.06006006,,,,,,,,,,,,,,,,,,,0.567592621,0.061111097,1,0,0,3.5661,1,0,26,8,1,i,images/br_i.png,images/cb_i.png,,,,,,,,,,,,,,,,,,,,,,,,,
,,,,,,00076,2023-10-17_19h52.40.800,vbt_B1_day1,2022.2.4,Win32,60.06006006,,,,,,,,,,,,,,,,,,,0.567592621,0.061111097,1,0,0,2.2329,1,1,27,9,1,j,images/br_j.png,images/cb_j.png,,,,,,,,,,,,,,,,,,,,,,,,,
,,,,,,00076,2023-10-17_19h52.40.800,vbt_B1_day1,2022.2.4,Win32,60.06006006,,,,,,,,,,,,,,,,,,,0.647222307,0.094444452,1,0,0,1.0996,1,2,28,2,1,c,images/br_c.png,images/cb_c.png,,,,,,,,,,,,,,,,,,,,,,,,,
,,,,,,00076,2023-10-17_19h52.40.800,vbt_B1_day1,2022.2.4,Win32,60.06006006,,,,,,,,,,,,,,,,,,,0.647222307,0.094444452,1,0,0,1.3,1,3,29,6,1,g,images/br_g.png,images/cb_g.png,,,,,,,,,,,,,,,,,,,,,,,,,
,,,,,,00076,2023-10-17_19h52.40.800,vbt_B1_day1,2022.2.4,Win32,60.06006006,,,,,,,,,,,,,,,,,,,0.647222307,0.094444452,1,0,0,0.2002,1,4,30,17,1,r,images/br_r.png,images/cb_r.png,,,,,,,,,,,,,,,,,,,,,,,,,
,,,,,,00076,2023-10-17_19h52.40.800,vbt_B1_day1,2022.2.4,Win32,60.06006006,,,,,,,,,,,,,,,,,,,0.647222307,0.094444452,1,0,0,0.4004,1,5,31,20,1,u,images/br_u.png,images/cb_u.png,,,,,,,,,,,,,,,,,,,,,,,,,
,,,,,,00076,2023-10-17_19h52.40.800,vbt_B1_day1,2022.2.4,Win32,60.06006006,,,,,,,,,,,,,,,,,,,0.647222307,0.094444452,1,0,0,0.2999,1,6,32,15,1,p,images/br_p.png,images/cb_p.png,,,,,,,,,,,,,,,,,,,,,,,,,
,,,,,,00076,2023-10-17_19h52.40.800,vbt_B1_day1,2022.2.4,Win32,60.06006006,,,,,,,,,,,,,,,,,,,0.647222307,0.094444452,1,0,0,0.9997,1,7,33,0,1,a,images/br_a.png,images/cb_a.png,,,,,,,,,,,,,,,,,,,,,,,,,
,,,,,,00076,2023-10-17_19h52.40.800,vbt_B1_day1,2022.2.4,Win32,60.06006006,,,,,,,,,,,,,,,,,,,0.647222307,0.094444452,1,0,0,0.1,1,8,34,19,1,t,images/br_t.png,images/cb_t.png,,,,,,,,,,,,,,,,,,,,,,,,,
,,,,,,00076,2023-10-17_19h52.40.800,vbt_B1_day1,2022.2.4,Win32,60.06006006,,,,,,,,,,,,,,,,,,,0.57685188,-0.082407422,1,0,0,3.0652,1,9,35,16,1,q,images/br_q.png,images/cb_q.png,,,,,,,,,,,,,,,,,,,,,,,,,
,,,,,,00076,2023-10-17_19h52.40.800,vbt_B1_day1,2022.2.4,Win32,60.06006006,,,,,,,,,,,,,,,,,,,0.439814815,-0.113888917,1,0,0,3.3982,1,10,36,22,1,w,images/br_w.png,images/cb_w.png,,,,,,,,,,,,,,,,,,,,,,,,,
,,,,,,00076,2023-10-17_19h52.40.800,vbt_B1_day1,2022.2.4,Win32,60.06006006,,,,,,,,,,,,,,,,,,,0.439814815,-0.113888917,1,0,0,1.5326,1,11,37,7,1,h,images/br_h.png,images/cb_h.png,,,,,,,,,,,,,,,,,,,,,,,,,
,,,,,,00076,2023-10-17_19h52.40.800,vbt_B1_day1,2022.2.4,Win32,60.06006006,,,,,,,,,,,,,,,,,,,0.439814815,-0.113888917,1,0,0,2.9658,1,12,38,24,1,y,images/br_y.png,images/cb_y.png,,,,,,,,,,,,,,,,,,,,,,,,,
,,,,,,00076,2023-10-17_19h52.40.800,vbt_B1_day1,2022.2.4,Win32,60.06006006,,,,,,,,,,,,,,,,,,,0.439814815,-0.113888917,1,0,0,0.7663,1,13,39,14,1,o,images/br_o.png,images/cb_o.png,,,,,,,,,,,,,,,,,,,,,,,,,
,,,,,,00076,2023-10-17_19h52.40.800,vbt_B1_day1,2022.2.4,Win32,60.06006006,,,,,,,,,,,,,,,,,,,0.439814815,-0.113888917,1,0,0,0.1666,1,14,40,10,1,k,images/br_k.png,images/cb_k.png,,,,,,,,,,,,,,,,,,,,,,,,,
,,,,,,00076,2023-10-17_19h52.40.800,vbt_B1_day1,2022.2.4,Win32,60.06006006,,,,,,,,,,,,,,,,,,,0.439814815,-0.113888917,1,0,0,0.2332,1,15,41,13,1,n,images/br_n.png,images/cb_n.png,,,,,,,,,,,,,,,,,,,,,,,,,
,,,,,,00076,2023-10-17_19h52.40.800,vbt_B1_day1,2022.2.4,Win32,60.06006006,,,,,,,,,,,,,,,,,,,0.555555556,0.032407407,1,0,0,6.8644,1,16,42,25,1,z,images/br_z.png,images/cb_z.png,,,,,,,,,,,,,,,,,,,,,,,,,
,,,,,,00076,2023-10-17_19h52.40.800,vbt_B1_day1,2022.2.4,Win32,60.06006006,,,,,,,,,,,,,,,,,,,0.555555556,0.032407407,1,0,0,1.4666,1,17,43,12,1,m,images/br_m.png,images/cb_m.png,,,,,,,,,,,,,,,,,,,,,,,,,
,,,,,,00076,2023-10-17_19h52.40.800,vbt_B1_day1,2022.2.4,Win32,60.06006006,,,,,,,,,,,,,,,,,,,0.555555556,0.032407407,1,0,0,1.5994,1,18,44,11,1,l,images/br_l.png,images/cb_l.png,,,,,,,,,,,,,,,,,,,,,,,,,
,,,,,,00076,2023-10-17_19h52.40.800,vbt_B1_day1,2022.2.4,Win32,60.06006006,,,,,,,,,,,,,,,,,,,0.519444501,-0.009259259,1,0,0,3.7988,1,19,45,1,1,b,images/br_b.png,images/cb_b.png,,,,,,,,,,,,,,,,,,,,,,,,,
,,,,,,00076,2023-10-17_19h52.40.800,vbt_B1_day1,2022.2.4,Win32,60.06006006,,,,,,,,,,,,,,,,,,,0.519444501,-0.009259259,1,0,0,1.4333,1,20,46,18,1,s,images/br_s.png,images/cb_s.png,,,,,,,,,,,,,,,,,,,,,,,,,
,,,,,,00076,2023-10-17_19h52.40.800,vbt_B1_day1,2022.2.4,Win32,60.06006006,,,,,,,,,,,,,,,,,,,0.519444501,-0.009259259,1,0,0,0.9332,1,21,47,4,1,e,images/br_e.png,images/cb_e.png,,,,,,,,,,,,,,,,,,,,,,,,,
,,,,,,00076,2023-10-17_19h52.40.800,vbt_B1_day1,2022.2.4,Win32,60.06006006,,,,,,,,,,,,,,,,,,,0.519444501,-0.009259259,1,0,0,1.7661,1,22,48,21,1,v,images/br_v.png,images/cb_v.png,,,,,,,,,,,,,,,,,,,,,,,,,
,,,,,,00076,2023-10-17_19h52.40.800,vbt_B1_day1,2022.2.4,Win32,60.06006006,,,,,,,,,,,,,,,,,,,0.519444501,-0.009259259,1,0,0,2.5881,1,23,49,23,1,x,images/br_x.png,images/cb_x.png,,,,,,,,,,,,,,,,,,,,,,,,,
,,,,,,00076,2023-10-17_19h52.40.800,vbt_B1_day1,2022.2.4,Win32,60.06006006,,,,,,,,,,,,,,,,,,,0.519444501,-0.009259259,1,0,0,2.6326,1,24,50,3,1,d,images/br_d.png,images/cb_d.png,,,,,,,,,,,,,,,,,,,,,,,,,
,,,,,,00076,2023-10-17_19h52.40.800,vbt_B1_day1,2022.2.4,Win32,60.06006006,,,,,,,,,,,,,,,,,,,0.522222307,-0.0074074,1,0,0,1.7995,1,25,51,5,1,f,images/br_f.png,images/cb_f.png,,,,,,,,,,,,,,,,,,,,,,,,,
,,,,,,00076,2023-10-17_19h52.40.800,vbt_B1_day1,2022.2.4,Win32,60.06006006,,,,,,,,,,,,,,,,,,,0.522222307,-0.0074074,1,0,0,1.4662,2,0,52,4,1,e,images/br_e.png,images/cb_e.png,,,,,,,,,,,,,,,,,,,,,,,,,
,,,,,,00076,2023-10-17_19h52.40.800,vbt_B1_day1,2022.2.4,Win32,60.06006006,,,,,,,,,,,,,,,,,,,0.522222307,-0.0074074,1,0,0,0.3995,2,1,53,11,1,l,images/br_l.png,images/cb_l.png,,,,,,,,,,,,,,,,,,,,,,,,,
,,,,,,00076,2023-10-17_19h52.40.800,vbt_B1_day1,2022.2.4,Win32,60.06006006,,,,,,,,,,,,,,,,,,,0.522222307,-0.0074074,1,0,0,1.2335,2,2,54,0,1,a,images/br_a.png,images/cb_a.png,,,,,,,,,,,,,,,,,,,,,,,,,
,,,,,,00076,2023-10-17_19h52.40.800,vbt_B1_day1,2022.2.4,Win32,60.06006006,,,,,,,,,,,,,,,,,,,0.522222307,-0.0074074,1,0,0,1.5994,2,3,55,25,1,z,images/br_z.png,images/cb_z.png,,,,,,,,,,,,,,,,,,,,,,,,,
,,,,,,00076,2023-10-17_19h52.40.800,vbt_B1_day1,2022.2.4,Win32,60.06006006,,,,,,,,,,,,,,,,,,,0.361111111,-0.116666653,1,0,0,2.4989,2,4,56,5,1,f,images/br_f.png,images/cb_f.png,,,,,,,,,,,,,,,,,,,,,,,,,
,,,,,,00076,2023-10-17_19h52.40.800,vbt_B1_day1,2022.2.4,Win32,60.06006006,,,,,,,,,,,,,,,,,,,0.350926011,-0.124074088,1,0,0,3.1328,2,5,57,19,1,t,images/br_t.png,images/cb_t.png,,,,,,,,,,,,,,,,,,,,,,,,,
,,,,,,00076,2023-10-17_19h52.40.800,vbt_B1_day1,2022.2.4,Win32,60.06006006,,,,,,,,,,,,,,,,,,,0.350926011,-0.124074088,1,0,0,1.666,2,6,58,9,1,j,images/br_j.png,images/cb_j.png,,,,,,,,,,,,,,,,,,,,,,,,,
,,,,,,00076,2023-10-17_19h52.40.800,vbt_B1_day1,2022.2.4,Win32,60.06006006,,,,,,,,,,,,,,,,,,,0.350926011,-0.124074088,1,0,0,1.0998,2,7,59,3,1,d,images/br_d.png,images/cb_d.png,,,,,,,,,,,,,,,,,,,,,,,,,
,,,,,,00076,2023-10-17_19h52.40.800,vbt_B1_day1,2022.2.4,Win32,60.06006006,,,,,,,,,,,,,,,,,,,0.519444501,-0.082407422,1,0,0,16.8278,2,8,60,15,1,p,images/br_p.png,images/cb_p.png,,,,,,,,,,,,,,,,,,,,,,,,,
,,,,,,00076,2023-10-17_19h52.40.800,vbt_B1_day1,2022.2.4,Win32,60.06006006,,,,,,,,,,,,,,,,,,,0.519444501,-0.082407422,1,0,0,1.2335,2,9,61,1,1,b,images/br_b.png,images/cb_b.png,,,,,,,,,,,,,,,,,,,,,,,,,
,,,,,,00076,2023-10-17_19h52.40.800,vbt_B1_day1,2022.2.4,Win32,60.06006006,,,,,,,,,,,,,,,,,,,0.519444501,-0.082407422,1,0,0,3.499,2,10,62,20,1,u,images/br_u.png,images/cb_u.png,,,,,,,,,,,,,,,,,,,,,,,,,
,,,,,,00076,2023-10-17_19h52.40.800,vbt_B1_day1,2022.2.4,Win32,60.06006006,,,,,,,,,,,,,,,,,,,0.519444501,-0.082407422,1,0,0,0.4665,2,11,63,18,1,s,images/br_s.png,images/cb_s.png,,,,,,,,,,,,,,,,,,,,,,,,,
,,,,,,00076,2023-10-17_19h52.40.800,vbt_B1_day1,2022.2.4,Win32,60.06006006,,,,,,,,,,,,,,,,,,,0.519444501,-0.082407422,1,0,0,0.3001,2,12,64,12,1,m,images/br_m.png,images/cb_m.png,,,,,,,,,,,,,,,,,,,,,,,,,
,,,,,,00076,2023-10-17_19h52.40.800,vbt_B1_day1,2022.2.4,Win32,60.06006006,,,,,,,,,,,,,,,,,,,0.519444501,-0.082407422,1,0,0,0.9664,2,13,65,16,1,q,images/br_q.png,images/cb_q.png,,,,,,,,,,,,,,,,,,,,,,,,,
,,,,,,00076,2023-10-17_19h52.40.800,vbt_B1_day1,2022.2.4,Win32,60.06006006,,,,,,,,,,,,,,,,,,,0.519444501,-0.082407422,1,0,0,3.7996,2,14,66,6,1,g,images/br_g.png,images/cb_g.png,,,,,,,,,,,,,,,,,,,,,,,,,
,,,,,,00076,2023-10-17_19h52.40.800,vbt_B1_day1,2022.2.4,Win32,60.06006006,,,,,,,,,,,,,,,,,,,0.519444501,-0.082407422,1,0,0,9.5969,2,15,67,14,1,o,images/br_o.png,images/cb_o.png,,,,,,,,,,,,,,,,,,,,,,,,,
,,,,,,00076,2023-10-17_19h52.40.800,vbt_B1_day1,2022.2.4,Win32,60.06006006,,,,,,,,,,,,,,,,,,,0.519444501,-0.082407422,1,0,0,0.833,2,16,68,8,1,i,images/br_i.png,images/cb_i.png,,,,,,,,,,,,,,,,,,,,,,,,,
,,,,,,00076,2023-10-17_19h52.40.800,vbt_B1_day1,2022.2.4,Win32,60.06006006,,,,,,,,,,,,,,,,,,,0.519444501,-0.082407422,1,0,0,3.7669,2,17,69,10,1,k,images/br_k.png,images/cb_k.png,,,,,,,,,,,,,,,,,,,,,,,,,
,,,,,,00076,2023-10-17_19h52.40.800,vbt_B1_day1,2022.2.4,Win32,60.06006006,,,,,,,,,,,,,,,,,,,0.686111168,0.074999986,1,0,0,1.6662,2,18,70,13,1,n,images/br_n.png,images/cb_n.png,,,,,,,,,,,,,,,,,,,,,,,,,
,,,,,,00076,2023-10-17_19h52.40.800,vbt_B1_day1,2022.2.4,Win32,60.06006006,,,,,,,,,,,,,,,,,,,0.686111168,0.074999986,1,0,0,12.23,2,19,71,23,1,x,images/br_x.png,images/cb_x.png,,,,,,,,,,,,,,,,,,,,,,,,,
,,,,,,00076,2023-10-17_19h52.40.800,vbt_B1_day1,2022.2.4,Win32,60.06006006,,,,,,,,,,,,,,,,,,,0.686111168,0.074999986,1,0,0,0.167,2,20,72,24,1,y,images/br_y.png,images/cb_y.png,,,,,,,,,,,,,,,,,,,,,,,,,
,,,,,,00076,2023-10-17_19h52.40.800,vbt_B1_day1,2022.2.4,Win32,60.06006006,,,,,,,,,,,,,,,,,,,0.686111168,0.074999986,1,0,0,1.1661,2,21,73,22,1,w,images/br_w.png,images/cb_w.png,,,,,,,,,,,,,,,,,,,,,,,,,
,,,,,,00076,2023-10-17_19h52.40.800,vbt_B1_day1,2022.2.4,Win32,60.06006006,,,,,,,,,,,,,,,,,,,0.686111168,0.074999986,1,0,0,1.6329,2,22,74,21,1,v,images/br_v.png,images/cb_v.png,,,,,,,,,,,,,,,,,,,,,,,,,
,,,,,,00076,2023-10-17_19h52.40.800,vbt_B1_day1,2022.2.4,Win32,60.06006006,,,,,,,,,,,,,,,,,,,0.686111168,0.074999986,1,0,0,1.7662,2,23,75,17,1,r,images/br_r.png,images/cb_r.png,,,,,,,,,,,,,,,,,,,,,,,,,
,,,,,,00076,2023-10-17_19h52.40.800,vbt_B1_day1,2022.2.4,Win32,60.06006006,,,,,,,,,,,,,,,,,,,0.686111168,0.074999986,1,0,0,0.1328,2,24,76,2,1,c,images/br_c.png,images/cb_c.png,,,,,,,,,,,,,,,,,,,,,,,,,
,,,,,,00076,2023-10-17_19h52.40.800,vbt_B1_day1,2022.2.4,Win32,60.06006006,,,,,,,,,,,,,,,,,,,0.686111168,0.074999986,1,0,0,0.066,2,25,77,7,1,h,images/br_h.png,images/cb_h.png,,,,,,,,,,,,,,,,,,,,,,,,,
,,,,,,00076,2023-10-17_19h52.40.800,vbt_B1_day1,2022.2.4,Win32,60.06006006,,,,,,,,,,,,,,,,,,,0.680555556,0.080555563,1,0,0,8.2327,3,0,78,11,1,l,images/br_l.png,images/cb_l.png,,,,,,,,,,,,,,,,,,,,,,,,,
,,,,,,00076,2023-10-17_19h52.40.800,vbt_B1_day1,2022.2.4,Win32,60.06006006,,,,,,,,,,,,,,,,,,,0.680555556,0.080555563,1,0,0,35.0219,3,1,79,3,1,d,images/br_d.png,images/cb_d.png,,,,,,,,,,,,,,,,,,,,,,,,,
,,,,,,00076,2023-10-17_19h52.40.800,vbt_B1_day1,2022.2.4,Win32,60.06006006,,,,,,,,,,,,,,,,,,,0.680555556,0.080555563,1,0,0,1.8332,3,2,80,6,1,g,images/br_g.png,images/cb_g.png,,,,,,,,,,,,,,,,,,,,,,,,,
,,,,,,00076,2023-10-17_19h52.40.800,vbt_B1_day1,2022.2.4,Win32,60.06006006,,,,,,,,,,,,,,,,,,,0.680555556,0.080555563,1,0,0,4.6647,3,3,81,20,1,u,images/br_u.png,images/cb_u.png,,,,,,,,,,,,,,,,,,,,,,,,,
,,,,,,00076,2023-10-17_19h52.40.800,vbt_B1_day1,2022.2.4,Win32,60.06006006,,,,,,,,,,,,,,,,,,,0.555555556,0.15648146,1,0,0,11.8799,3,4,82,12,1,m,images/br_m.png,images/cb_m.png,,,,,,,,,,,,,,,,,,,,,,,,,
,,,,,,00076,2023-10-17_19h52.40.800,vbt_B1_day1,2022.2.4,Win32,60.06006006,,,,,,,,,,,,,,,,,,,0.555555556,0.15648146,1,0,0,0.5994,3,5,83,21,1,v,images/br_v.png,images/cb_v.png,,,,,,,,,,,,,,,,,,,,,,,,,
,,,,,,00076,2023-10-17_19h52.40.800,vbt_B1_day1,2022.2.4,Win32,60.06006006,,,,,,,,,,,,,,,,,,,0.555555556,0.15648146,1,0,0,16.6616,3,6,84,10,1,k,images/br_k.png,images/cb_k.png,,,,,,,,,,,,,,,,,,,,,,,,,
,,,,,,00076,2023-10-17_19h52.40.800,vbt_B1_day1,2022.2.4,Win32,60.06006006,,,,,,,,,,,,,,,,,,,0.555555556,0.15648146,1,0,0,3.4314,3,7,85,4,1,e,images/br_e.png,images/cb_e.png,,,,,,,,,,,,,,,,,,,,,,,,,
,,,,,,00076,2023-10-17_19h52.40.800,vbt_B1_day1,2022.2.4,Win32,60.06006006,,,,,,,,,,,,,,,,,,,0.555555556,0.15648146,1,0,0,0.7326,3,8,86,18,1,s,images/br_s.png,images/cb_s.png,,,,,,,,,,,,,,,,,,,,,,,,,
,,,,,,00076,2023-10-17_19h52.40.800,vbt_B1_day1,2022.2.4,Win32,60.06006006,,,,,,,,,,,,,,,,,,,0.555555556,0.15648146,1,0,0,6.9647,3,9,87,13,1,n,images/br_n.png,images/cb_n.png,,,,,,,,,,,,,,,,,,,,,,,,,
,,,,,,00076,2023-10-17_19h52.40.800,vbt_B1_day1,2022.2.4,Win32,60.06006006,,,,,,,,,,,,,,,,,,,0.555555556,0.15648146,1,0,0,1.8329,3,10,88,14,1,o,images/br_o.png,images/cb_o.png,,,,,,,,,,,,,,,,,,,,,,,,,
,,,,,,00076,2023-10-17_19h52.40.800,vbt_B1_day1,2022.2.4,Win32,60.06006006,,,,,,,,,,,,,,,,,,,0.555555556,0.15648146,1,0,0,11.2105,3,11,89,19,1,t,images/br_t.png,images/cb_t.png,,,,,,,,,,,,,,,,,,,,,,,,,
,,,,,,00076,2023-10-17_19h52.40.800,vbt_B1_day1,2022.2.4,Win32,60.06006006,,,,,,,,,,,,,,,,,,,0.555555556,0.15648146,1,0,0,3.8984,3,12,90,1,1,b,images/br_b.png,images/cb_b.png,,,,,,,,,,,,,,,,,,,,,,,,,
,,,,,,00076,2023-10-17_19h52.40.800,vbt_B1_day1,2022.2.4,Win32,60.06006006,,,,,,,,,,,,,,,,,,,0.555555556,0.15648146,1,0,0,1.7328,3,13,91,7,1,h,images/br_h.png,images/cb_h.png,,,,,,,,,,,,,,,,,,,,,,,,,
,,,,,,00076,2023-10-17_19h52.40.800,vbt_B1_day1,2022.2.4,Win32,60.06006006,,,,,,,,,,,,,,,,,,,0.555555556,0.15648146,1,0,0,3.5318,3,14,92,0,1,a,images/br_a.png,images/cb_a.png,,,,,,,,,,,,,,,,,,,,,,,,,
,,,,,,00076,2023-10-17_19h52.40.800,vbt_B1_day1,2022.2.4,Win32,60.06006006,,,,,,,,,,,,,,,,,,,0.555555556,0.15648146,1,0,0,5.9666,3,15,93,2,1,c,images/br_c.png,images/cb_c.png,,,,,,,,,,,,,,,,,,,,,,,,,
,,,,,,00076,2023-10-17_19h52.40.800,vbt_B1_day1,2022.2.4,Win32,60.06006006,,,,,,,,,,,,,,,,,,,0.555555556,0.15648146,1,0,0,1.3328,3,16,94,8,1,i,images/br_i.png,images/cb_i.png,,,,,,,,,,,,,,,,,,,,,,,,,
,,,,,,00076,2023-10-17_19h52.40.800,vbt_B1_day1,2022.2.4,Win32,60.06006006,,,,,,,,,,,,,,,,,,,0.555555556,0.15648146,1,0,0,3.6991,3,17,95,15,1,p,images/br_p.png,images/cb_p.png,,,,,,,,,,,,,,,,,,,,,,,,,
,,,,,,00076,2023-10-17_19h52.40.800,vbt_B1_day1,2022.2.4,Win32,60.06006006,,,,,,,,,,,,,,,,,,,0.555555556,0.15648146,1,0,0,1.9666,3,18,96,9,1,j,images/br_j.png,images/cb_j.png,,,,,,,,,,,,,,,,,,,,,,,,,
,,,,,,00076,2023-10-17_19h52.40.800,vbt_B1_day1,2022.2.4,Win32,60.06006006,,,,,,,,,,,,,,,,,,,0.555555556,0.15648146,1,0,0,3.0671,3,19,97,22,1,w,images/br_w.png,images/cb_w.png,,,,,,,,,,,,,,,,,,,,,,,,,
,,,,,,00076,2023-10-17_19h52.40.800,vbt_B1_day1,2022.2.4,Win32,60.06006006,,,,,,,,,,,,,,,,,,,0.555555556,0.15648146,1,0,0,3.7655,3,20,98,16,1,q,images/br_q.png,images/cb_q.png,,,,,,,,,,,,,,,,,,,,,,,,,
,,,,,,00076,2023-10-17_19h52.40.800,vbt_B1_day1,2022.2.4,Win32,60.06006006,,,,,,,,,,,,,,,,,,,0.555555556,0.15648146,1,0,0,1.3005,3,21,99,25,1,z,images/br_z.png,images/cb_z.png,,,,,,,,,,,,,,,,,,,,,,,,,
,,,,,,00076,2023-10-17_19h52.40.800,vbt_B1_day1,2022.2.4,Win32,60.06006006,,,,,,,,,,,,,,,,,,,0.555555556,0.15648146,1,0,0,5.6302,3,22,100,24,1,y,images/br_y.png,images/cb_y.png,,,,,,,,,,,,,,,,,,,,,,,,,
,,,,,,00076,2023-10-17_19h52.40.800,vbt_B1_day1,2022.2.4,Win32,60.06006006,,,,,,,,,,,,,,,,,,,0.555555556,0.15648146,1,0,0,3.9669,3,23,101,23,1,x,images/br_x.png,images/cb_x.png,,,,,,,,,,,,,,,,,,,,,,,,,
,,,,,,00076,2023-10-17_19h52.40.800,vbt_B1_day1,2022.2.4,Win32,60.06006006,,,,,,,,,,,,,,,,,,,0.555555556,0.15648146,1,0,0,5.8314,3,24,102,17,1,r,images/br_r.png,images/cb_r.png,,,,,,,,,,,,,,,,,,,,,,,,,
,,,,,,00076,2023-10-17_19h52.40.800,vbt_B1_day1,2022.2.4,Win32,60.06006006,,,,,,,,,,,,,,,,,,,0.555555556,0.15648146,1,0,0,10.3975,3,25,103,5,1,f,images/br_f.png,images/cb_f.png,,,,,,,,,,,,,,,,,,,,,,,,,
,,,,,,00076,2023-10-17_19h52.40.800,vbt_B1_day1,2022.2.4,Win32,60.06006006,,,,,,,,,,,,,,,,,,,0.555555556,0.15648146,1,0,0,7.5648,4,0,104,12,1,m,images/br_m.png,images/cb_m.png,,,,,,,,,,,,,,,,,,,,,,,,,
,,,,,,00076,2023-10-17_19h52.40.800,vbt_B1_day1,2022.2.4,Win32,60.06006006,,,,,,,,,,,,,,,,,,,0.555555556,0.15648146,1,0,0,1.6323,4,1,105,21,1,v,images/br_v.png,images/cb_v.png,,,,,,,,,,,,,,,,,,,,,,,,,
,,,,,,00076,2023-10-17_19h52.40.800,vbt_B1_day1,2022.2.4,Win32,60.06006006,,,,,,,,,,,,,,,,,,,0.555555556,0.15648146,1,0,0,4.1336,4,2,106,18,1,s,images/br_s.png,images/cb_s.png,,,,,,,,,,,,,,,,,,,,,,,,,
,,,,,,00076,2023-10-17_19h52.40.800,vbt_B1_day1,2022.2.4,Win32,60.06006006,,,,,,,,,,,,,,,,,,,0.529629601,0.058333326,1,0,0,2.8655,4,3,107,23,1,x,images/br_x.png,images/cb_x.png,,,,,,,,,,,,,,,,,,,,,,,,,
,,,,,,00076,2023-10-17_19h52.40.800,vbt_B1_day1,2022.2.4,Win32,60.06006006,,,,,,,,,,,,,,,,,,,0.529629601,0.058333326,1,0,0,4.6327,4,4,108,5,1,f,images/br_f.png,images/cb_f.png,,,,,,,,,,,,,,,,,,,,,,,,,
,,,,,,00076,2023-10-17_19h52.40.800,vbt_B1_day1,2022.2.4,Win32,60.06006006,,,,,,,,,,,,,,,,,,,0.529629601,0.058333326,1,0,0,3.1329,4,5,109,24,1,y,images/br_y.png,images/cb_y.png,,,,,,,,,,,,,,,,,,,,,,,,,
,,,,,,00076,2023-10-17_19h52.40.800,vbt_B1_day1,2022.2.4,Win32,60.06006006,,,,,,,,,,,,,,,,,,,0.529629601,0.058333326,1,0,0,1.5322,4,6,110,11,1,l,images/br_l.png,images/cb_l.png,,,,,,,,,,,,,,,,,,,,,,,,,
,,,,,,00076,2023-10-17_19h52.40.800,vbt_B1_day1,2022.2.4,Win32,60.06006006,,,,,,,,,,,,,,,,,,,0.529629601,0.058333326,1,0,0,8.1969,4,7,111,1,1,b,images/br_b.png,images/cb_b.png,,,,,,,,,,,,,,,,,,,,,,,,,
,,,,,,00076,2023-10-17_19h52.40.800,vbt_B1_day1,2022.2.4,Win32,60.06006006,,,,,,,,,,,,,,,,,,,0.529629601,0.058333326,1,0,0,6.8972,4,8,112,22,1,w,images/br_w.png,images/cb_w.png,,,,,,,,,,,,,,,,,,,,,,,,,
,,,,,,00076,2023-10-17_19h52.40.800,vbt_B1_day1,2022.2.4,Win32,60.06006006,,,,,,,,,,,,,,,,,,,0.529629601,0.058333326,1,0,0,1.4995,4,9,113,4,1,e,images/br_e.png,images/cb_e.png,,,,,,,,,,,,,,,,,,,,,,,,,
,,,,,,00076,2023-10-17_19h52.40.800,vbt_B1_day1,2022.2.4,Win32,60.06006006,,,,,,,,,,,,,,,,,,,0.529629601,0.058333326,1,0,0,4.1318,4,10,114,13,1,n,images/br_n.png,images/cb_n.png,,,,,,,,,,,,,,,,,,,,,,,,,
,,,,,,00076,2023-10-17_19h52.40.800,vbt_B1_day1,2022.2.4,Win32,60.06006006,,,,,,,,,,,,,,,,,,,0.529629601,0.058333326,1,0,0,2.5336,4,11,115,6,1,g,images/br_g.png,images/cb_g.png,,,,,,,,,,,,,,,,,,,,,,,,,
,,,,,,00076,2023-10-17_19h52.40.800,vbt_B1_day1,2022.2.4,Win32,60.06006006,,,,,,,,,,,,,,,,,,,0.529629601,0.058333326,1,0,0,0.0327,4,12,116,14,1,o,images/br_o.png,images/cb_o.png,,,,,,,,,,,,,,,,,,,,,,,,,
,,,,,,00076,2023-10-17_19h52.40.800,vbt_B1_day1,2022.2.4,Win32,60.06006006,,,,,,,,,,,,,,,,,,,0.531481566,0.020370377,1,0,0,2.7672,4,13,117,7,1,h,images/br_h.png,images/cb_h.png,,,,,,,,,,,,,,,,,,,,,,,,,
,,,,,,00076,2023-10-17_19h52.40.800,vbt_B1_day1,2022.2.4,Win32,60.06006006,,,,,,,,,,,,,,,,,,,0.531481566,0.020370377,1,0,0,4.6653,4,14,118,9,1,j,images/br_j.png,images/cb_j.png,,,,,,,,,,,,,,,,,,,,,,,,,
,,,,,,00076,2023-10-17_19h52.40.800,vbt_B1_day1,2022.2.4,Win32,60.06006006,,,,,,,,,,,,,,,,,,,0.531481566,0.020370377,1,0,0,3.3651,4,15,119,16,1,q,images/br_q.png,images/cb_q.png,,,,,,,,,,,,,,,,,,,,,,,,,
,,,,,,00076,2023-10-17_19h52.40.800,vbt_B1_day1,2022.2.4,Win32,60.06006006,,,,,,,,,,,,,,,,,,,0.531481566,0.020370377,1,0,0,1.699,4,16,120,20,1,u,images/br_u.png,images/cb_u.png,,,,,,,,,,,,,,,,,,,,,,,,,
,,,,,,00076,2023-10-17_19h52.40.800,vbt_B1_day1,2022.2.4,Win32,60.06006006,,,,,,,,,,,,,,,,,,,0.531481566,0.020370377,1,0,0,7.4312,4,17,121,0,1,a,images/br_a.png,images/cb_a.png,,,,,,,,,,,,,,,,,,,,,,,,,
,,,,,,00076,2023-10-17_19h52.40.800,vbt_B1_day1,2022.2.4,Win32,60.06006006,,,,,,,,,,,,,,,,,,,0.531481566,0.020370377,1,0,0,0.2992,4,18,122,19,1,t,images/br_t.png,images/cb_t.png,,,,,,,,,,,,,,,,,,,,,,,,,
,,,,,,00076,2023-10-17_19h52.40.800,vbt_B1_day1,2022.2.4,Win32,60.06006006,,,,,,,,,,,,,,,,,,,0.531481566,0.020370377,0,0,1,3.2335,4,19,123,2,1,c,images/br_c.png,images/cb_c.png,,,,,,,,,,,,,,,,,,,,,,,,,
,,,,,,00076,2023-10-17_19h52.40.800,vbt_B1_day1,2022.2.4,Win32,60.06006006,,,,,,,,,,,,,,,,,,,0.445370427,0.03611109,1,0,0,4.3316,4,20,124,3,1,d,images/br_d.png,images/cb_d.png,,,,,,,,,,,,,,,,,,,,,,,,,
,,,,,,00076,2023-10-17_19h52.40.800,vbt_B1_day1,2022.2.4,Win32,60.06006006,,,,,,,,,,,,,,,,,,,0.445370427,0.039814808,1,0,0,3.9663,4,21,125,17,1,r,images/br_r.png,images/cb_r.png,,,,,,,,,,,,,,,,,,,,,,,,,
,,,,,,00076,2023-10-17_19h52.40.800,vbt_B1_day1,2022.2.4,Win32,60.06006006,,,,,,,,,,,,,,,,,,,0.445370427,0.039814808,1,0,0,0.0659,4,22,126,15,1,p,images/br_p.png,images/cb_p.png,,,,,,,,,,,,,,,,,,,,,,,,,
,,,,,,00076,2023-10-17_19h52.40.800,vbt_B1_day1,2022.2.4,Win32,60.06006006,,,,,,,,,,,,,,,,,,,0.446296268,0.04074072,1,0,0,2.233,4,23,127,25,1,z,images/br_z.png,images/cb_z.png,,,,,,,,,,,,,,,,,,,,,,,,,
,,,,,,00076,2023-10-17_19h52.40.800,vbt_B1_day1,2022.2.4,Win32,60.06006006,,,,,,,,,,,,,,,,,,,0.446296268,0.04074072,1,0,0,0.8998,4,24,128,10,1,k,images/br_k.png,images/cb_k.png,,,,,,,,,,,,,,,,,,,,,,,,,
,,,,,,00076,2023-10-17_19h52.40.800,vbt_B1_day1,2022.2.4,Win32,60.06006006,,,,,,,,,,,,,,,,,,,0.425925926,0.003703683,1,0,0,1.0661,4,25,129,8,1,i,images/br_i.png,images/cb_i.png,,,,,,,,,,,,,,,,,,,,,,,,,
,,,,,,00076,2023-10-17_19h52.40.800,vbt_B1_day1,2022.2.4,Win32,60.06006006,,,,,,,,,,,,,,,,,,,0.425925926,0.003703683,1,0,0,4.5653,5,0,130,10,1,k,images/br_k.png,images/cb_k.png,,,,,,,,,,,,,,,,,,,,,,,,,
,,,,,,00076,2023-10-17_19h52.40.800,vbt_B1_day1,2022.2.4,Win32,60.06006006,,,,,,,,,,,,,,,,,,,0.425925926,0.003703683,1,0,0,0.6659,5,1,131,2,1,c,images/br_c.png,images/cb_c.png,,,,,,,,,,,,,,,,,,,,,,,,,
,,,,,,00076,2023-10-17_19h52.40.800,vbt_B1_day1,2022.2.4,Win32,60.06006006,,,,,,,,,,,,,,,,,,,0.425925926,0.003703683,1,0,0,6.7975,5,2,132,0,1,a,images/br_a.png,images/cb_a.png,,,,,,,,,,,,,,,,,,,,,,,,,
,,,,,,00076,2023-10-17_19h52.40.800,vbt_B1_day1,2022.2.4,Win32,60.06006006,,,,,,,,,,,,,,,,,,,0.353703675,-0.091666681,1,0,0,29.0909,5,3,133,4,1,e,images/br_e.png,images/cb_e.png,,,,,,,,,,,,,,,,,,,,,,,,,
,,,,,,00076,2023-10-17_19h52.40.800,vbt_B1_day1,2022.2.4,Win32,60.06006006,,,,,,,,,,,,,,,,,,,0.353703675,-0.091666681,1,0,0,3.8999,5,4,134,25,1,z,images/br_z.png,images/cb_z.png,,,,,,,,,,,,,,,,,,,,,,,,,
,,,,,,00076,2023-10-17_19h52.40.800,vbt_B1_day1,2022.2.4,Win32,60.06006006,,,,,,,,,,,,,,,,,,,0.353703675,-0.091666681,1,0,0,3.4329,5,5,135,5,1,f,images/br_f.png,images/cb_f.png,,,,,,,,,,,,,,,,,,,,,,,,,
,,,,,,00076,2023-10-17_19h52.40.800,vbt_B1_day1,2022.2.4,Win32,60.06006006,,,,,,,,,,,,,,,,,,,0.353703675,-0.091666681,1,0,0,41.1183,5,6,136,21,1,v,images/br_v.png,images/cb_v.png,,,,,,,,,,,,,,,,,,,,,,,,,
,,,,,,00076,2023-10-17_19h52.40.800,vbt_B1_day1,2022.2.4,Win32,60.06006006,,,,,,,,,,,,,,,,,,,0.353703675,-0.091666681,1,0,0,8.249,5,7,137,3,1,d,images/br_d.png,images/cb_d.png,,,,,,,,,,,,,,,,,,,,,,,,,
,,,,,,00076,2023-10-17_19h52.40.800,vbt_B1_day1,2022.2.4,Win32,60.06006006,,,,,,,,,,,,,,,,,,,0.287037037,-0.150925954,1,0,0,7.6813,5,8,138,11,1,l,images/br_l.png,images/cb_l.png,,,,,,,,,,,,,,,,,,,,,,,,,
,,,,,,00076,2023-10-17_19h52.40.800,vbt_B1_day1,2022.2.4,Win32,60.06006006,,,,,,,,,,,,,,,,,,,0.287037037,-0.150925954,1,0,0,0.9998,5,9,139,17,1,r,images/br_r.png,images/cb_r.png,,,,,,,,,,,,,,,,,,,,,,,,,
,,,,,,00076,2023-10-17_19h52.40.800,vbt_B1_day1,2022.2.4,Win32,60.06006006,,,,,,,,,,,,,,,,,,,0.413888861,-0.01666666,1,0,0,0.4498,5,10,140,14,1,o,images/br_o.png,images/cb_o.png,,,,,,,,,,,,,,,,,,,,,,,,,
,,,,,,00076,2023-10-17_19h52.40.800,vbt_B1_day1,2022.2.4,Win32,60.06006006,,,,,,,,,,,,,,,,,,,0.361111111,0.005555541,1,0,0,2.1659,5,11,141,20,1,u,images/br_u.png,images/cb_u.png,,,,,,,,,,,,,,,,,,,,,,,,,
,,,,,,00076,2023-10-17_19h52.40.800,vbt_B1_day1,2022.2.4,Win32,60.06006006,,,,,,,,,,,,,,,,,,,0.361111111,0.005555541,1,0,0,2.749,5,12,142,23,1,x,images/br_x.png,images/cb_x.png,,,,,,,,,,,,,,,,,,,,,,,,,
,,,,,,00076,2023-10-17_19h52.40.800,vbt_B1_day1,2022.2.4,Win32,60.06006006,,,,,,,,,,,,,,,,,,,0.361111111,0.005555541,1,0,0,1.3831,5,13,143,22,1,w,images/br_w.png,images/cb_w.png,,,,,,,,,,,,,,,,,,,,,,,,,
,,,,,,00076,2023-10-17_19h52.40.800,vbt_B1_day1,2022.2.4,Win32,60.06006006,,,,,,,,,,,,,,,,,,,0.361111111,0.005555541,1,0,0,1.3663,5,14,144,8,1,i,images/br_i.png,images/cb_i.png,,,,,,,,,,,,,,,,,,,,,,,,,
,,,,,,00076,2023-10-17_19h52.40.800,vbt_B1_day1,2022.2.4,Win32,60.06006006,,,,,,,,,,,,,,,,,,,0.361111111,0.005555541,1,0,0,1.3001,5,15,145,9,1,j,images/br_j.png,images/cb_j.png,,,,,,,,,,,,,,,,,,,,,,,,,
,,,,,,00076,2023-10-17_19h52.40.800,vbt_B1_day1,2022.2.4,Win32,60.06006006,,,,,,,,,,,,,,,,,,,0.361111111,0.005555541,1,0,0,1.0944,5,16,146,19,1,t,images/br_t.png,images/cb_t.png,,,,,,,,,,,,,,,,,,,,,,,,,
,,,,,,00076,2023-10-17_19h52.40.800,vbt_B1_day1,2022.2.4,Win32,60.06006006,,,,,,,,,,,,,,,,,,,0.361111111,0.005555541,1,0,0,0.4315,5,17,147,15,1,p,images/br_p.png,images/cb_p.png,,,,,,,,,,,,,,,,,,,,,,,,,
,,,,,,00076,2023-10-17_19h52.40.800,vbt_B1_day1,2022.2.4,Win32,60.06006006,,,,,,,,,,,,,,,,,,,0.361111111,0.005555541,1,0,0,2.976,5,18,148,18,1,s,images/br_s.png,images/cb_s.png,,,,,,,,,,,,,,,,,,,,,,,,,
,,,,,,00076,2023-10-17_19h52.40.800,vbt_B1_day1,2022.2.4,Win32,60.06006006,,,,,,,,,,,,,,,,,,,0.361111111,0.005555541,1,0,0,3.5,5,19,149,12,1,m,images/br_m.png,images/cb_m.png,,,,,,,,,,,,,,,,,,,,,,,,,
,,,,,,00076,2023-10-17_19h52.40.800,vbt_B1_day1,2022.2.4,Win32,60.06006006,,,,,,,,,,,,,,,,,,,0.42777775,0.014814801,1,0,0,1.7442,5,20,150,24,1,y,images/br_y.png,images/cb_y.png,,,,,,,,,,,,,,,,,,,,,,,,,
,,,,,,00076,2023-10-17_19h52.40.800,vbt_B1_day1,2022.2.4,Win32,60.06006006,,,,,,,,,,,,,,,,,,,0.42777775,0.014814801,1,0,0,0.467,5,21,151,16,1,q,images/br_q.png,images/cb_q.png,,,,,,,,,,,,,,,,,,,,,,,,,
,,,,,,00076,2023-10-17_19h52.40.800,vbt_B1_day1,2022.2.4,Win32,60.06006006,,,,,,,,,,,,,,,,,,,0.42777775,0.014814801,1,0,0,1.1007,5,22,152,1,1,b,images/br_b.png,images/cb_b.png,,,,,,,,,,,,,,,,,,,,,,,,,
,,,,,,00076,2023-10-17_19h52.40.800,vbt_B1_day1,2022.2.4,Win32,60.06006006,,,,,,,,,,,,,,,,,,,0.42777775,0.014814801,1,0,0,2.4548,5,23,153,6,1,g,images/br_g.png,images/cb_g.png,,,,,,,,,,,,,,,,,,,,,,,,,
,,,,,,00076,2023-10-17_19h52.40.800,vbt_B1_day1,2022.2.4,Win32,60.06006006,,,,,,,,,,,,,,,,,,,0.42777775,0.014814801,1,0,0,1.8661,5,24,154,7,1,h,images/br_h.png,images/cb_h.png,,,,,,,,,,,,,,,,,,,,,,,,,
,,,,,,00076,2023-10-17_19h52.40.800,vbt_B1_day1,2022.2.4,Win32,60.06006006,,,,,,,,,,,,,,,,,,,0.42777775,0.014814801,1,0,0,1.667,5,25,155,13,1,n,images/br_n.png,images/cb_n.png,,,,,,,,,,,,,,,,,,,,,,,,,
,,,,,,00076,2023-10-17_19h52.40.800,vbt_B1_day1,2022.2.4,Win32,60.06006006,,,,,,,,,,,,,,,,,,,0.42777775,0.014814801,1,0,0,2.483,6,0,156,25,1,z,images/br_z.png,images/cb_z.png,,,,,,,,,,,,,,,,,,,,,,,,,
,,,,,,00076,2023-10-17_19h52.40.800,vbt_B1_day1,2022.2.4,Win32,60.06006006,,,,,,,,,,,,,,,,,,,0.42777775,0.014814801,1,0,0,2.117,6,1,157,13,1,n,images/br_n.png,images/cb_n.png,,,,,,,,,,,,,,,,,,,,,,,,,
,,,,,,00076,2023-10-17_19h52.40.800,vbt_B1_day1,2022.2.4,Win32,60.06006006,,,,,,,,,,,,,,,,,,,0.42777775,0.014814801,1,0,0,2.5491,6,2,158,4,1,e,images/br_e.png,images/cb_e.png,,,,,,,,,,,,,,,,,,,,,,,,,
,,,,,,00076,2023-10-17_19h52.40.800,vbt_B1_day1,2022.2.4,Win32,60.06006006,,,,,,,,,,,,,,,,,,,0.42777775,0.014814801,1,0,0,1.8163,6,3,159,20,1,u,images/br_u.png,images/cb_u.png,,,,,,,,,,,,,,,,,,,,,,,,,
,,,,,,00076,2023-10-17_19h52.40.800,vbt_B1_day1,2022.2.4,Win32,60.06006006,,,,,,,,,,,,,,,,,,,0.42777775,0.014814801,1,0,0,5.2319,6,4,160,11,1,l,images/br_l.png,images/cb_l.png,,,,,,,,,,,,,,,,,,,,,,,,,
,,,,,,00076,2023-10-17_19h52.40.800,vbt_B1_day1,2022.2.4,Win32,60.06006006,,,,,,,,,,,,,,,,,,,0.42777775,0.014814801,1,0,0,17.111,6,5,161,19,1,t,images/br_t.png,images/cb_t.png,,,,,,,,,,,,,,,,,,,,,,,,,
,,,,,,00076,2023-10-17_19h52.40.800,vbt_B1_day1,2022.2.4,Win32,60.06006006,,,,,,,,,,,,,,,,,,,0.42777775,0.014814801,1,0,0,0.6164,6,6,162,10,1,k,images/br_k.png,images/cb_k.png,,,,,,,,,,,,,,,,,,,,,,,,,
,,,,,,00076,2023-10-17_19h52.40.800,vbt_B1_day1,2022.2.4,Win32,60.06006006,,,,,,,,,,,,,,,,,,,0.42777775,0.014814801,1,0,0,1.0668,6,7,163,5,1,f,images/br_f.png,images/cb_f.png,,,,,,,,,,,,,,,,,,,,,,,,,
,,,,,,00076,2023-10-17_19h52.40.800,vbt_B1_day1,2022.2.4,Win32,60.06006006,,,,,,,,,,,,,,,,,,,0.42777775,0.014814801,1,0,0,0.6998,6,8,164,0,1,a,images/br_a.png,images/cb_a.png,,,,,,,,,,,,,,,,,,,,,,,,,
,,,,,,00076,2023-10-17_19h52.40.800,vbt_B1_day1,2022.2.4,Win32,60.06006006,,,,,,,,,,,,,,,,,,,0.42777775,0.014814801,1,0,0,0.6379,6,9,165,23,1,x,images/br_x.png,images/cb_x.png,,,,,,,,,,,,,,,,,,,,,,,,,
,,,,,,00076,2023-10-17_19h52.40.800,vbt_B1_day1,2022.2.4,Win32,60.06006006,,,,,,,,,,,,,,,,,,,0.42777775,0.014814801,1,0,0,0.534,6,10,166,21,1,v,images/br_v.png,images/cb_v.png,,,,,,,,,,,,,,,,,,,,,,,,,
,,,,,,00076,2023-10-17_19h52.40.800,vbt_B1_day1,2022.2.4,Win32,60.06006006,,,,,,,,,,,,,,,,,,,0.42777775,0.014814801,1,0,0,2.9666,6,11,167,6,1,g,images/br_g.png,images/cb_g.png,,,,,,,,,,,,,,,,,,,,,,,,,
,,,,,,00076,2023-10-17_19h52.40.800,vbt_B1_day1,2022.2.4,Win32,60.06006006,,,,,,,,,,,,,,,,,,,0.42777775,0.014814801,1,0,0,0.9168,6,12,168,15,1,p,images/br_p.png,images/cb_p.png,,,,,,,,,,,,,,,,,,,,,,,,,
,,,,,,00076,2023-10-17_19h52.40.800,vbt_B1_day1,2022.2.4,Win32,60.06006006,,,,,,,,,,,,,,,,,,,0.42777775,0.014814801,1,0,0,0.3665,6,13,169,18,1,s,images/br_s.png,images/cb_s.png,,,,,,,,,,,,,,,,,,,,,,,,,
,,,,,,00076,2023-10-17_19h52.40.800,vbt_B1_day1,2022.2.4,Win32,60.06006006,,,,,,,,,,,,,,,,,,,0.42777775,0.014814801,1,0,0,0.1836,6,14,170,16,1,q,images/br_q.png,images/cb_q.png,,,,,,,,,,,,,,,,,,,,,,,,,
,,,,,,00076,2023-10-17_19h52.40.800,vbt_B1_day1,2022.2.4,Win32,60.06006006,,,,,,,,,,,,,,,,,,,0.42777775,0.014814801,1,0,0,0.7664,6,15,171,14,1,o,images/br_o.png,images/cb_o.png,,,,,,,,,,,,,,,,,,,,,,,,,
,,,,,,00076,2023-10-17_19h52.40.800,vbt_B1_day1,2022.2.4,Win32,60.06006006,,,,,,,,,,,,,,,,,,,0.42777775,0.014814801,1,0,0,0.3335,6,16,172,1,1,b,images/br_b.png,images/cb_b.png,,,,,,,,,,,,,,,,,,,,,,,,,
,,,,,,00076,2023-10-17_19h52.40.800,vbt_B1_day1,2022.2.4,Win32,60.06006006,,,,,,,,,,,,,,,,,,,0.42777775,0.014814801,1,0,0,0.8497,6,17,173,3,1,d,images/br_d.png,images/cb_d.png,,,,,,,,,,,,,,,,,,,,,,,,,
,,,,,,00076,2023-10-17_19h52.40.800,vbt_B1_day1,2022.2.4,Win32,60.06006006,,,,,,,,,,,,,,,,,,,0.42777775,0.014814801,1,0,0,1.8491,6,18,174,17,1,r,images/br_r.png,images/cb_r.png,,,,,,,,,,,,,,,,,,,,,,,,,
,,,,,,00076,2023-10-17_19h52.40.800,vbt_B1_day1,2022.2.4,Win32,60.06006006,,,,,,,,,,,,,,,,,,,0.42777775,0.014814801,1,0,0,1.1165,6,19,175,2,1,c,images/br_c.png,images/cb_c.png,,,,,,,,,,,,,,,,,,,,,,,,,
,,,,,,00076,2023-10-17_19h52.40.800,vbt_B1_day1,2022.2.4,Win32,60.06006006,,,,,,,,,,,,,,,,,,,0.42777775,0.014814801,1,0,0,0.3501,6,20,176,9,1,j,images/br_j.png,images/cb_j.png,,,,,,,,,,,,,,,,,,,,,,,,,
,,,,,,00076,2023-10-17_19h52.40.800,vbt_B1_day1,2022.2.4,Win32,60.06006006,,,,,,,,,,,,,,,,,,,0.42777775,0.014814801,1,0,0,1.2498,6,21,177,8,1,i,images/br_i.png,images/cb_i.png,,,,,,,,,,,,,,,,,,,,,,,,,
,,,,,,00076,2023-10-17_19h52.40.800,vbt_B1_day1,2022.2.4,Win32,60.06006006,,,,,,,,,,,,,,,,,,,0.42777775,0.014814801,1,0,0,1.2664,6,22,178,22,1,w,images/br_w.png,images/cb_w.png,,,,,,,,,,,,,,,,,,,,,,,,,
,,,,,,00076,2023-10-17_19h52.40.800,vbt_B1_day1,2022.2.4,Win32,60.06006006,,,,,,,,,,,,,,,,,,,0.42777775,0.014814801,1,0,0,0.5996,6,23,179,24,1,y,images/br_y.png,images/cb_y.png,,,,,,,,,,,,,,,,,,,,,,,,,
,,,,,,00076,2023-10-17_19h52.40.800,vbt_B1_day1,2022.2.4,Win32,60.06006006,,,,,,,,,,,,,,,,,,,0.42777775,0.014814801,1,0,0,0.3334,6,24,180,12,1,m,images/br_m.png,images/cb_m.png,,,,,,,,,,,,,,,,,,,,,,,,,
,,,,,,00076,2023-10-17_19h52.40.800,vbt_B1_day1,2022.2.4,Win32,60.06006006,,,,,,,,,,,,,,,,,,,0.42777775,0.014814801,1,0,0,0.1001,6,25,181,7,1,h,images/br_h.png,images/cb_h.png,,,,,,,,,,,,,,,,,,,,,,,,,
,,,,,,00076,2023-10-17_19h52.40.800,vbt_B1_day1,2022.2.4,Win32,60.06006006,,,,,,,,,,,,,,,,,,,,,,,,,,,,,,,,,0.416666667,-0.117592635,1,0,0,,,,,,,,,,,,,,,,,,,,
,,,,,,00076,2023-10-17_19h52.40.800,vbt_B1_day1,2022.2.4,Win32,60.06006006,,,,,,,,,,,,,,,,,,,,,,,,,,,,,,,,,,,,,,0.268518519,-0.087962963,1,0,0,,,,,,,,,,,,,,,
,,,,,,00076,2023-10-17_19h52.40.800,vbt_B1_day1,2022.2.4,Win32,60.06006006,,,,,,,,,,,,,,,,,,,,,,,,,,,,,,,,,,,,,,,,,,,0.399074131,-0.098148134,1,0,0,er...w,er...w,0,0,0,25,1,brijk,images/br_brijk.png,images/cb_brijk.png
,,,,,,00076,2023-10-17_19h52.40.800,vbt_B1_day1,2022.2.4,Win32,60.06006006,,,,,,,,,,,,,,,,,,,,,,,,,,,,,,,,,,,,,,,,,,,0.429629714,-0.081481474,1,0,0,prort,prort,0,1,1,27,1,prort,images/br_prort.png,images/cb_prort.png
,,,,,,00076,2023-10-17_19h52.40.800,vbt_B1_day1,2022.2.4,Win32,60.06006006,,,,,,,,,,,,,,,,,,,,,,,,,,,,,,,,,,,,,,,,,,,0.429629714,-0.081481474,1,0,0,lochten,lochten,0,2,2,34,1,lochten,images/br_lochten.png,images/cb_lochten.png
,,,,,,00076,2023-10-17_19h52.40.800,vbt_B1_day1,2022.2.4,Win32,60.06006006,,,,,,,,,,,,,,,,,,,,,,,,,,,,,,,,,,,,,,,,,,,0.429629714,-0.081481474,1,0,0,watje,watje,0,3,3,8,1,kanjer,images/br_kanjer.png,images/cb_kanjer.png
,,,,,,00076,2023-10-17_19h52.40.800,vbt_B1_day1,2022.2.4,Win32,60.06006006,,,,,,,,,,,,,,,,,,,,,,,,,,,,,,,,,,,,,,,,,,,0.429629714,-0.081481474,1,0,0,knoe,knoe,0,4,4,22,1,knoe,images/br_knoe.png,images/cb_knoe.png
,,,,,,00076,2023-10-17_19h52.40.800,vbt_B1_day1,2022.2.4,Win32,60.06006006,,,,,,,,,,,,,,,,,,,,,,,,,,,,,,,,,,,,,,,,,,,0.048148191,-0.179629644,1,0,0,voorkeur,voorkeur,0,5,5,58,1,voorkeur,images/br_voorkeur.png,images/cb_voorkeur.png
,,,,,,00076,2023-10-17_19h52.40.800,vbt_B1_day1,2022.2.4,Win32,60.06006006,,,,,,,,,,,,,,,,,,,,,,,,,,,,,,,,,,,,,,,,,,,0.525925954,0.010185171,1,0,0,klimmen,klimmen,0,6,6,12,1,klimmen,images/br_klimmen.png,images/cb_klimmen.png
,,,,,,00076,2023-10-17_19h52.40.800,vbt_B1_day1,2022.2.4,Win32,60.06006006,,,,,,,,,,,,,,,,,,,,,,,,,,,,,,,,,,,,,,,,,,,0.525925954,0.010185171,1,0,0,opvatten,opvatten,0,7,7,59,1,opvatten,images/br_opvatten.png,images/cb_opvatten.png
,,,,,,00076,2023-10-17_19h52.40.800,vbt_B1_day1,2022.2.4,Win32,60.06006006,,,,,,,,,,,,,,,,,,,,,,,,,,,,,,,,,,,,,,,,,,,0.525925954,0.010185171,1,0,0,lie..e,lie..e,0,8,8,51,1,liefde,images/br_liefde.png,images/cb_liefde.png
,,,,,,00076,2023-10-17_19h52.40.800,vbt_B1_day1,2022.2.4,Win32,60.06006006,,,,,,,,,,,,,,,,,,,,,,,,,,,,,,,,,,,,,,,,,,,0.525925954,0.010185171,1,0,0,land,land,0,9,9,3,1,mand,images/br_mand.png,images/cb_mand.png
,,,,,,00076,2023-10-17_19h52.40.800,vbt_B1_day1,2022.2.4,Win32,60.06006006,,,,,,,,,,,,,,,,,,,,,,,,,,,,,,,,,,,,,,,,,,,0.525925954,0.010185171,1,0,0,voor...,voor...,0,10,10,39,1,voorreur,images/br_voorreur.png,images/cb_voorreur.png
,,,,,,00076,2023-10-17_19h52.40.800,vbt_B1_day1,2022.2.4,Win32,60.06006006,,,,,,,,,,,,,,,,,,,,,,,,,,,,,,,,,,,,,,,,,,,0.525925954,0.010185171,1,0,0,vijftig,vijftig,0,11,11,54,1,vijftig,images/br_vijftig.png,images/cb_vijftig.png
,,,,,,00076,2023-10-17_19h52.40.800,vbt_B1_day1,2022.2.4,Win32,60.06006006,,,,,,,,,,,,,,,,,,,,,,,,,,,,,,,,,,,,,,,,,,,0.525925954,0.010185171,1,0,0,zaal,zaal,0,12,12,1,1,zaal,images/br_zaal.png,images/cb_zaal.png
,,,,,,00076,2023-10-17_19h52.40.800,vbt_B1_day1,2022.2.4,Win32,60.06006006,,,,,,,,,,,,,,,,,,,,,,,,,,,,,,,,,,,,,,,,,,,0.525925954,0.010185171,1,0,0,wi.ze,wi.ze,0,13,13,44,1,wijze,images/br_wijze.png,images/cb_wijze.png
,,,,,,00076,2023-10-17_19h52.40.800,vbt_B1_day1,2022.2.4,Win32,60.06006006,,,,,,,,,,,,,,,,,,,,,,,,,,,,,,,,,,,,,,,,,,,0.525925954,0.010185171,1,0,0,bleek,bleek,0,14,14,6,1,bleek,images/br_bleek.png,images/cb_bleek.png
,,,,,,00076,2023-10-17_19h52.40.800,vbt_B1_day1,2022.2.4,Win32,60.06006006,,,,,,,,,,,,,,,,,,,,,,,,,,,,,,,,,,,,,,,,,,,0.290740755,-0.087962963,1,0,0,bebrip,bebrip,0,15,15,28,1,bebrip,images/br_bebrip.png,images/cb_bebrip.png
,,,,,,00076,2023-10-17_19h52.40.800,vbt_B1_day1,2022.2.4,Win32,60.06006006,,,,,,,,,,,,,,,,,,,,,,,,,,,,,,,,,,,,,,,,,,,0.290740755,-0.087962963,1,0,0,verva.en,verva.en,0,16,16,36,1,vervaden,images/br_vervaden.png,images/cb_vervaden.png
,,,,,,00076,2023-10-17_19h52.40.800,vbt_B1_day1,2022.2.4,Win32,60.06006006,,,,,,,,,,,,,,,,,,,,,,,,,,,,,,,,,,,,,,,,,,,0.290740755,-0.087962963,1,0,0,sta.en,sta.en,0,17,17,31,1,stamen,images/br_stamen.png,images/cb_stamen.png
,,,,,,00076,2023-10-17_19h52.40.800,vbt_B1_day1,2022.2.4,Win32,60.06006006,,,,,,,,,,,,,,,,,,,,,,,,,,,,,,,,,,,,,,,,,,,0.290740755,-0.087962963,1,0,0,mening,mening,0,18,18,11,1,mening,images/br_mening.png,images/cb_mening.png
,,,,,,00076,2023-10-17_19h52.40.800,vbt_B1_day1,2022.2.4,Win32,60.06006006,,,,,,,,,,,,,,,,,,,,,,,,,,,,,,,,,,,,,,,,,,,0.290740755,-0.087962963,1,0,0,lenen,lenen,0,19,19,46,1,lezen,images/br_lezen.png,images/cb_lezen.png
,,,,,,00076,2023-10-17_19h52.40.800,vbt_B1_day1,2022.2.4,Win32,60.06006006,,,,,,,,,,,,,,,,,,,,,,,,,,,,,,,,,,,,,,,,,,,0.290740755,-0.087962963,1,0,0,hemel,hemel,0,20,20,45,1,hemel,images/br_hemel.png,images/cb_hemel.png
,,,,,,00076,2023-10-17_19h52.40.800,vbt_B1_day1,2022.2.4,Win32,60.06006006,,,,,,,,,,,,,,,,,,,,,,,,,,,,,,,,,,,,,,,,,,,0.290740755,-0.087962963,1,0,0,tekenen,tekenen,0,21,21,55,1,tekenen,images/br_tekenen.png,images/cb_tekenen.png
,,,,,,00076,2023-10-17_19h52.40.800,vbt_B1_day1,2022.2.4,Win32,60.06006006,,,,,,,,,,,,,,,,,,,,,,,,,,,,,,,,,,,,,,,,,,,0.290740755,-0.087962963,1,0,0,.ubbel,.ubbel,0,22,22,9,1,dubbel,images/br_dubbel.png,images/cb_dubbel.png
,,,,,,00076,2023-10-17_19h52.40.800,vbt_B1_day1,2022.2.4,Win32,60.06006006,,,,,,,,,,,,,,,,,,,,,,,,,,,,,,,,,,,,,,,,,,,0.290740755,-0.087962963,1,0,0,zuiplap,zuiplap,0,23,23,52,1,zuiplap,images/br_zuiplap.png,images/cb_zuiplap.png
,,,,,,00076,2023-10-17_19h52.40.800,vbt_B1_day1,2022.2.4,Win32,60.06006006,,,,,,,,,,,,,,,,,,,,,,,,,,,,,,,,,,,,,,,,,,,0.290740755,-0.087962963,1,0,0,schuilen,schuilen,0,24,24,19,1,schuilen,images/br_schuilen.png,images/cb_schuilen.png
,,,,,,00076,2023-10-17_19h52.40.800,vbt_B1_day1,2022.2.4,Win32,60.06006006,,,,,,,,,,,,,,,,,,,,,,,,,,,,,,,,,,,,,,,,,,,0.290740755,-0.087962963,1,0,0,.aarvan,.aarvan,0,25,25,14,1,waarvan,images/br_waarvan.png,images/cb_waarvan.png
,,,,,,00076,2023-10-17_19h52.40.800,vbt_B1_day1,2022.2.4,Win32,60.06006006,,,,,,,,,,,,,,,,,,,,,,,,,,,,,,,,,,,,,,,,,,,0.290740755,-0.087962963,1,0,0,lava,lava,0,26,26,43,1,lava,images/br_lava.png,images/cb_lava.png
,,,,,,00076,2023-10-17_19h52.40.800,vbt_B1_day1,2022.2.4,Win32,60.06006006,,,,,,,,,,,,,,,,,,,,,,,,,,,,,,,,,,,,,,,,,,,0.290740755,-0.087962963,1,0,0,loods,loods,0,27,27,47,1,loods,images/br_loods.png,images/cb_loods.png
,,,,,,00076,2023-10-17_19h52.40.800,vbt_B1_day1,2022.2.4,Win32,60.06006006,,,,,,,,,,,,,,,,,,,,,,,,,,,,,,,,,,,,,,,,,,,-0.060185185,-0.200925968,1,0,0,eenemen,eenemen,0,28,28,57,1,meenemen,images/br_meenemen.png,images/cb_meenemen.png
,,,,,,00076,2023-10-17_19h52.40.800,vbt_B1_day1,2022.2.4,Win32,60.06006006,,,,,,,,,,,,,,,,,,,,,,,,,,,,,,,,,,,,,,,,,,,0.260185171,-0.18240745,1,0,0,rener,rener,0,29,29,24,1,rezer,images/br_rezer.png,images/cb_rezer.png
,,,,,,00076,2023-10-17_19h52.40.800,vbt_B1_day1,2022.2.4,Win32,60.06006006,,,,,,,,,,,,,,,,,,,,,,,,,,,,,,,,,,,,,,,,,,,0.260185171,-0.18240745,1,0,0,tars,tars,0,30,30,20,1,tars,images/br_tars.png,images/cb_tars.png
,,,,,,00076,2023-10-17_19h52.40.800,vbt_B1_day1,2022.2.4,Win32,60.06006006,,,,,,,,,,,,,,,,,,,,,,,,,,,,,,,,,,,,,,,,,,,-0.054629644,-0.20185188,1,0,0,.aarheen,.aarheen,0,31,31,16,1,daarheen,images/br_daarheen.png,images/cb_daarheen.png
,,,,,,00076,2023-10-17_19h52.40.800,vbt_B1_day1,2022.2.4,Win32,60.06006006,,,,,,,,,,,,,,,,,,,,,,,,,,,,,,,,,,,,,,,,,,,0.147222236,-0.109259288,1,0,0,s...,s...,0,32,32,0,1,slak,images/br_slak.png,images/cb_slak.png
,,,,,,00076,2023-10-17_19h52.40.800,vbt_B1_day1,2022.2.4,Win32,60.06006006,,,,,,,,,,,,,,,,,,,,,,,,,,,,,,,,,,,,,,,,,,,0.342592593,-0.121296282,1,0,0,schep,schep,0,33,33,4,1,schep,images/br_schep.png,images/cb_schep.png
,,,,,,00076,2023-10-17_19h52.40.800,vbt_B1_day1,2022.2.4,Win32,60.06006006,,,,,,,,,,,,,,,,,,,,,,,,,,,,,,,,,,,,,,,,,,,0.196296339,-0.070370392,1,0,0,ree...,ree...,0,34,34,30,1,reedje,images/br_reedje.png,images/cb_reedje.png
,,,,,,00076,2023-10-17_19h52.40.800,vbt_B1_day1,2022.2.4,Win32,60.06006006,,,,,,,,,,,,,,,,,,,,,,,,,,,,,,,,,,,,,,,,,,,0.260185171,-0.065740762,1,0,0,.PPLA..,.PPLA..,0,35,35,32,1,opplaan,images/br_opplaan.png,images/cb_opplaan.png
,,,,,,00076,2023-10-17_19h52.40.800,vbt_B1_day1,2022.2.4,Win32,60.06006006,,,,,,,,,,,,,,,,,,,,,,,,,,,,,,,,,,,,,,,,,,,0.386111083,-0.056481503,1,0,0,booi,booi,0,36,36,23,1,booi,images/br_booi.png,images/cb_booi.png
,,,,,,00076,2023-10-17_19h52.40.800,vbt_B1_day1,2022.2.4,Win32,60.06006006,,,,,,,,,,,,,,,,,,,,,,,,,,,,,,,,,,,,,,,,,,,0.452777863,-0.048148155,1,0,0,hierva.,hierva.,0,37,37,15,1,hiervan,images/br_hiervan.png,images/cb_hiervan.png
,,,,,,00076,2023-10-17_19h52.40.800,vbt_B1_day1,2022.2.4,Win32,60.06006006,,,,,,,,,,,,,,,,,,,,,,,,,,,,,,,,,,,,,,,,,,,0.463888945,-0.014814836,1,0,0,klauw,klauw,0,38,38,7,1,klauw,images/br_klauw.png,images/cb_klauw.png
,,,,,,00076,2023-10-17_19h52.40.800,vbt_B1_day1,2022.2.4,Win32,60.06006006,,,,,,,,,,,,,,,,,,,,,,,,,,,,,,,,,,,,,,,,,,,0.488888917,-0.008333347,1,0,0,genoeg,genoeg,0,39,39,29,1,genond,images/br_genond.png,images/cb_genond.png
,,,,,,00076,2023-10-17_19h52.40.800,vbt_B1_day1,2022.2.4,Win32,60.06006006,,,,,,,,,,,,,,,,,,,,,,,,,,,,,,,,,,,,,,,,,,,0.17777782,-0.111111111,1,0,0,opslaan,opslaan,0,40,40,53,1,opslaan,images/br_opslaan.png,images/cb_opslaan.png
,,,,,,00076,2023-10-17_19h52.40.800,vbt_B1_day1,2022.2.4,Win32,60.06006006,,,,,,,,,,,,,,,,,,,,,,,,,,,,,,,,,,,,,,,,,,,0.15370369,-0.086111104,1,0,0,uit....,uit....,0,41,41,18,1,uitdelen,images/br_uitdelen.png,images/cb_uitdelen.png
,,,,,,00076,2023-10-17_19h52.40.800,vbt_B1_day1,2022.2.4,Win32,60.06006006,,,,,,,,,,,,,,,,,,,,,,,,,,,,,,,,,,,,,,,,,,,0.228703746,-0.005555577,1,0,0,toen...,toen...,0,42,42,56,1,toezicht,images/br_toezicht.png,images/cb_toezicht.png
,,,,,,00076,2023-10-17_19h52.40.800,vbt_B1_day1,2022.2.4,Win32,60.06006006,,,,,,,,,,,,,,,,,,,,,,,,,,,,,,,,,,,,,,,,,,,0.290740755,-0.000925947,1,0,0,attentie,attentie,0,43,43,17,1,attentie,images/br_attentie.png,images/cb_attentie.png
,,,,,,00076,2023-10-17_19h52.40.800,vbt_B1_day1,2022.2.4,Win32,60.06006006,,,,,,,,,,,,,,,,,,,,,,,,,,,,,,,,,,,,,,,,,,,0.282407407,0.00462963,1,0,0,schilder,schilder,0,44,44,38,1,schielen,images/br_schielen.png,images/cb_schielen.png
,,,,,,00076,2023-10-17_19h52.40.800,vbt_B1_day1,2022.2.4,Win32,60.06006006,,,,,,,,,,,,,,,,,,,,,,,,,,,,,,,,,,,,,,,,,,,0.314814815,0.01666666,1,0,0,.ae.,.ae.,0,45,45,21,1,dred,images/br_dred.png,images/cb_dred.png
,,,,,,00076,2023-10-17_19h52.40.800,vbt_B1_day1,2022.2.4,Win32,60.06006006,,,,,,,,,,,,,,,,,,,,,,,,,,,,,,,,,,,,,,,,,,,0.163888931,-0.013888889,1,0,0,nectar,nectar,0,46,46,48,1,fictie,images/br_fictie.png,images/cb_fictie.png
,,,,,,00076,2023-10-17_19h52.40.800,vbt_B1_day1,2022.2.4,Win32,60.06006006,,,,,,,,,,,,,,,,,,,,,,,,,,,,,,,,,,,,,,,,,,,0.127777806,0.01203703,1,0,0,munie.,munie.,0,47,47,10,1,muziek,images/br_muziek.png,images/cb_muziek.png
,,,,,,00076,2023-10-17_19h52.40.800,vbt_B1_day1,2022.2.4,Win32,60.06006006,,,,,,,,,,,,,,,,,,,,,,,,,,,,,,,,,,,,,,,,,,,0.083333333,0.00462963,1,0,0,valop,valop,0,48,48,26,1,valop,images/br_valop.png,images/cb_valop.png
,,,,,,00076,2023-10-17_19h52.40.800,vbt_B1_day1,2022.2.4,Win32,60.06006006,,,,,,,,,,,,,,,,,,,,,,,,,,,,,,,,,,,,,,,,,,,0.062037079,0,1,0,0,dief,dief,0,49,49,40,1,dief,images/br_dief.png,images/cb_dief.png
,,,,,,00076,2023-10-17_19h52.40.800,vbt_B1_day1,2022.2.4,Win32,60.06006006,,,,,,,,,,,,,,,,,,,,,,,,,,,,,,,,,,,,,,,,,,,0.112037023,-0.019444466,1,0,0,maar,maar,0,50,50,2,1,jaar,images/br_jaar.png,images/cb_jaar.png
,,,,,,00076,2023-10-17_19h52.40.800,vbt_B1_day1,2022.2.4,Win32,60.06006006,,,,,,,,,,,,,,,,,,,,,,,,,,,,,,,,,,,,,,,,,,,0.062037079,-0.124074088,1,0,0,hoog,hoog,0,51,51,41,1,hoog,images/br_hoog.png,images/cb_hoog.png
,,,,,,00076,2023-10-17_19h52.40.800,vbt_B1_day1,2022.2.4,Win32,60.06006006,,,,,,,,,,,,,,,,,,,,,,,,,,,,,,,,,,,,,,,,,,,0.154629672,0.000925912,1,0,0,twijfel,twijfel,0,52,52,13,1,twijfel,images/br_twijfel.png,images/cb_twijfel.png
,,,,,,00076,2023-10-17_19h52.40.800,vbt_B1_day1,2022.2.4,Win32,60.06006006,,,,,,,,,,,,,,,,,,,,,,,,,,,,,,,,,,,,,,,,,,,0.051851838,-0.09629631,1,0,0,maken,maken,0,53,53,5,1,maken,images/br_maken.png,images/cb_maken.png
,,,,,,00076,2023-10-17_19h52.40.800,vbt_B1_day1,2022.2.4,Win32,60.06006006,,,,,,,,,,,,,,,,,,,,,,,,,,,,,,,,,,,,,,,,,,,0.26944443,0.009259259,1,0,0,venier,venier,0,54,54,49,1,vizier,images/br_vizier.png,images/cb_vizier.png
,,,,,,00076,2023-10-17_19h52.40.800,vbt_B1_day1,2022.2.4,Win32,60.06006006,,,,,,,,,,,,,,,,,,,,,,,,,,,,,,,,,,,,,,,,,,,0.26944443,0.009259259,1,0,0,liegen,liegen,0,55,55,50,1,liegen,images/br_liegen.png,images/cb_liegen.png
,,,,,,00076,2023-10-17_19h52.40.800,vbt_B1_day1,2022.2.4,Win32,60.06006006,,,,,,,,,,,,,,,,,,,,,,,,,,,,,,,,,,,,,,,,,,,0.045370384,-0.012962977,1,0,0,span...,span...,0,56,56,37,1,spanzing,images/br_spanzing.png,images/cb_spanzing.png
,,,,,,00076,2023-10-17_19h52.40.800,vbt_B1_day1,2022.2.4,Win32,60.06006006,,,,,,,,,,,,,,,,,,,,,,,,,,,,,,,,,,,,,,,,,,,0.055555556,-0.207407422,1,0,0,stuk,stuk,0,57,57,42,1,stuk,images/br_stuk.png,images/cb_stuk.png
,,,,,,00076,2023-10-17_19h52.40.800,vbt_B1_day1,2022.2.4,Win32,60.06006006,,,,,,,,,,,,,,,,,,,,,,,,,,,,,,,,,,,,,,,,,,,0.612962935,-0.150000042,1,0,0,stuike.,stuike.,0,58,58,35,1,stuikem,images/br_stuikem.png,images/cb_stuikem.png
,,,,,,00076,2023-10-17_19h52.40.800,vbt_B1_day1,2022.2.4,Win32,60.06006006,,,,,,,,,,,,,,,,,,,,,,,,,,,,,,,,,,,,,,,,,,,0.612962935,-0.150000042,1,0,0,flullen,flullen,0,59,59,33,1,flullen,images/br_flullen.png,images/cb_flullen.png
,,,,,,00076,2023-10-17_19h52.40.800,vbt_B1_day1,2022.2.4,Win32,60.06006006,,,,,,,,,,,,,,,,,,,,,,,,,,,,,,,,,,,,,,,,,,,,,,,,,,,,,,,,,
