welcome_mouse.x,welcome_mouse.y,welcome_mouse.leftButton,welcome_mouse.midButton,welcome_mouse.rightButton,welcome_mouse.time,"ID",date,expName,psychopyVersion,OS,frameRate,mouse_2.x,mouse_2.y,mouse_2.leftButton,mouse_2.midButton,mouse_2.rightButton,mouse_2.time,mouse_3.x,mouse_3.y,mouse_3.leftButton,mouse_3.midButton,mouse_3.rightButton,mouse_3.time,train_mouse.x,train_mouse.y,train_mouse.leftButton,train_mouse.midButton,train_mouse.rightButton,train_mouse.time,braille_mouse.x,braille_mouse.y,braille_mouse.leftButton,braille_mouse.midButton,braille_mouse.rightButton,braille_mouse.time,trials.thisRepN,trials.thisTrialN,trials.thisN,trials.thisIndex,trials.ran,nlLet,brLet,cbLet,mouse.x,mouse.y,mouse.leftButton,mouse.midButton,mouse.rightButton,testInstr_mouse.x,testInstr_mouse.y,testInstr_mouse.leftButton,testInstr_mouse.midButton,testInstr_mouse.rightButton,test_mouse.x,test_mouse.y,test_mouse.leftButton,test_mouse.midButton,test_mouse.rightButton,test_response.text,testResp,test_loop.thisRepN,test_loop.thisTrialN,test_loop.thisN,test_loop.thisIndex,test_loop.ran,nlWrd,brWrd,cbWrd
0.0135,-0.0855,1,0,0,17.4727,00085,2023-10-28_17h31.37.893,vbt_B1_day1,2022.2.4,Win32,60.2373351,,,,,,,,,,,,,,,,,,,,,,,,,,,,,,,,,,,,,,,,,,,,,,,,,,,,,,,,,
,,,,,,00085,2023-10-28_17h31.37.893,vbt_B1_day1,2022.2.4,Win32,60.2373351,0.0135,-0.0855,1,0,0,1.9069,,,,,,,,,,,,,,,,,,,,,,,,,,,,,,,,,,,,,,,,,,,,,,,,,,,
,,,,,,00085,2023-10-28_17h31.37.893,vbt_B1_day1,2022.2.4,Win32,60.2373351,,,,,,,0.0135,-0.0855,1,0,0,7.1443,,,,,,,,,,,,,,,,,,,,,,,,,,,,,,,,,,,,,,,,,,,,,
,,,,,,00085,2023-10-28_17h31.37.893,vbt_B1_day1,2022.2.4,Win32,60.2373351,,,,,,,,,,,,,-0.1295,0.0595,1,0,0,35.4842,,,,,,,,,,,,,,,,,,,,,,,,,,,,,,,,,,,,,,,
,,,,,,00085,2023-10-28_17h31.37.893,vbt_B1_day1,2022.2.4,Win32,60.2373351,,,,,,,,,,,,,,,,,,,-0.1295,0.0595,1,0,0,3.5071,0,0,0,23,1,x,images/br_x.png,images/cb_x.png,,,,,,,,,,,,,,,,,,,,,,,,,
,,,,,,00085,2023-10-28_17h31.37.893,vbt_B1_day1,2022.2.4,Win32,60.2373351,,,,,,,,,,,,,,,,,,,-0.0545,0.0045,1,0,0,2.3778,0,1,1,11,1,l,images/br_l.png,images/cb_l.png,,,,,,,,,,,,,,,,,,,,,,,,,
,,,,,,00085,2023-10-28_17h31.37.893,vbt_B1_day1,2022.2.4,Win32,60.2373351,,,,,,,,,,,,,,,,,,,-0.0545,0.0045,1,0,0,11.664,0,2,2,8,1,i,images/br_i.png,images/cb_i.png,,,,,,,,,,,,,,,,,,,,,,,,,
,,,,,,00085,2023-10-28_17h31.37.893,vbt_B1_day1,2022.2.4,Win32,60.2373351,,,,,,,,,,,,,,,,,,,-0.0545,0.0045,1,0,0,18.4669,0,3,3,25,1,z,images/br_z.png,images/cb_z.png,,,,,,,,,,,,,,,,,,,,,,,,,
,,,,,,00085,2023-10-28_17h31.37.893,vbt_B1_day1,2022.2.4,Win32,60.2373351,,,,,,,,,,,,,,,,,,,-0.0545,0.0045,1,0,0,14.3668,0,4,4,10,1,k,images/br_k.png,images/cb_k.png,,,,,,,,,,,,,,,,,,,,,,,,,
,,,,,,00085,2023-10-28_17h31.37.893,vbt_B1_day1,2022.2.4,Win32,60.2373351,,,,,,,,,,,,,,,,,,,-0.0545,0.0045,1,0,0,17.9663,0,5,5,12,1,m,images/br_m.png,images/cb_m.png,,,,,,,,,,,,,,,,,,,,,,,,,
,,,,,,00085,2023-10-28_17h31.37.893,vbt_B1_day1,2022.2.4,Win32,60.2373351,,,,,,,,,,,,,,,,,,,-0.1665,0.0025,1,0,0,18.8172,0,6,6,18,1,s,images/br_s.png,images/cb_s.png,,,,,,,,,,,,,,,,,,,,,,,,,
,,,,,,00085,2023-10-28_17h31.37.893,vbt_B1_day1,2022.2.4,Win32,60.2373351,,,,,,,,,,,,,,,,,,,-0.1665,0.0025,1,0,0,2.6261,0,7,7,17,1,r,images/br_r.png,images/cb_r.png,,,,,,,,,,,,,,,,,,,,,,,,,
,,,,,,00085,2023-10-28_17h31.37.893,vbt_B1_day1,2022.2.4,Win32,60.2373351,,,,,,,,,,,,,,,,,,,-0.1665,0.0025,1,0,0,15.117,0,8,8,5,1,f,images/br_f.png,images/cb_f.png,,,,,,,,,,,,,,,,,,,,,,,,,
,,,,,,00085,2023-10-28_17h31.37.893,vbt_B1_day1,2022.2.4,Win32,60.2373351,,,,,,,,,,,,,,,,,,,-0.1665,0.0025,1,0,0,12.3002,0,9,9,15,1,p,images/br_p.png,images/cb_p.png,,,,,,,,,,,,,,,,,,,,,,,,,
,,,,,,00085,2023-10-28_17h31.37.893,vbt_B1_day1,2022.2.4,Win32,60.2373351,,,,,,,,,,,,,,,,,,,-0.1665,0.0025,1,0,0,12.9504,0,10,10,20,1,u,images/br_u.png,images/cb_u.png,,,,,,,,,,,,,,,,,,,,,,,,,
,,,,,,00085,2023-10-28_17h31.37.893,vbt_B1_day1,2022.2.4,Win32,60.2373351,,,,,,,,,,,,,,,,,,,-0.1665,0.0025,1,0,0,12.8671,0,11,11,24,1,y,images/br_y.png,images/cb_y.png,,,,,,,,,,,,,,,,,,,,,,,,,
,,,,,,00085,2023-10-28_17h31.37.893,vbt_B1_day1,2022.2.4,Win32,60.2373351,,,,,,,,,,,,,,,,,,,-0.1665,0.0025,1,0,0,58.084,0,12,12,7,1,h,images/br_h.png,images/cb_h.png,,,,,,,,,,,,,,,,,,,,,,,,,
,,,,,,00085,2023-10-28_17h31.37.893,vbt_B1_day1,2022.2.4,Win32,60.2373351,,,,,,,,,,,,,,,,,,,-0.1665,0.0025,1,0,0,4.1166,0,13,13,14,1,o,images/br_o.png,images/cb_o.png,,,,,,,,,,,,,,,,,,,,,,,,,
,,,,,,00085,2023-10-28_17h31.37.893,vbt_B1_day1,2022.2.4,Win32,60.2373351,,,,,,,,,,,,,,,,,,,-0.1665,0.0025,1,0,0,139.1513,0,14,14,21,1,v,images/br_v.png,images/cb_v.png,,,,,,,,,,,,,,,,,,,,,,,,,
,,,,,,00085,2023-10-28_17h31.37.893,vbt_B1_day1,2022.2.4,Win32,60.2373351,,,,,,,,,,,,,,,,,,,-0.1665,0.0025,1,0,0,17.4043,0,15,15,13,1,n,images/br_n.png,images/cb_n.png,,,,,,,,,,,,,,,,,,,,,,,,,
,,,,,,00085,2023-10-28_17h31.37.893,vbt_B1_day1,2022.2.4,Win32,60.2373351,,,,,,,,,,,,,,,,,,,-0.1665,0.0025,1,0,0,9.9837,0,16,16,19,1,t,images/br_t.png,images/cb_t.png,,,,,,,,,,,,,,,,,,,,,,,,,
,,,,,,00085,2023-10-28_17h31.37.893,vbt_B1_day1,2022.2.4,Win32,60.2373351,,,,,,,,,,,,,,,,,,,-0.1665,0.0025,1,0,0,24.4837,0,17,17,1,1,b,images/br_b.png,images/cb_b.png,,,,,,,,,,,,,,,,,,,,,,,,,
,,,,,,00085,2023-10-28_17h31.37.893,vbt_B1_day1,2022.2.4,Win32,60.2373351,,,,,,,,,,,,,,,,,,,-0.1665,0.0025,1,0,0,42.1841,0,18,18,22,1,w,images/br_w.png,images/cb_w.png,,,,,,,,,,,,,,,,,,,,,,,,,
,,,,,,00085,2023-10-28_17h31.37.893,vbt_B1_day1,2022.2.4,Win32,60.2373351,,,,,,,,,,,,,,,,,,,-0.1665,0.0025,1,0,0,9.2509,0,19,19,0,1,a,images/br_a.png,images/cb_a.png,,,,,,,,,,,,,,,,,,,,,,,,,
,,,,,,00085,2023-10-28_17h31.37.893,vbt_B1_day1,2022.2.4,Win32,60.2373351,,,,,,,,,,,,,,,,,,,-0.1665,0.0025,1,0,0,48.8172,0,20,20,16,1,q,images/br_q.png,images/cb_q.png,,,,,,,,,,,,,,,,,,,,,,,,,
,,,,,,00085,2023-10-28_17h31.37.893,vbt_B1_day1,2022.2.4,Win32,60.2373351,,,,,,,,,,,,,,,,,,,-0.1665,0.0025,1,0,0,22.9,0,21,21,9,1,j,images/br_j.png,images/cb_j.png,,,,,,,,,,,,,,,,,,,,,,,,,
,,,,,,00085,2023-10-28_17h31.37.893,vbt_B1_day1,2022.2.4,Win32,60.2373351,,,,,,,,,,,,,,,,,,,-0.1665,0.0025,1,0,0,7.2839,0,22,22,2,1,c,images/br_c.png,images/cb_c.png,,,,,,,,,,,,,,,,,,,,,,,,,
,,,,,,00085,2023-10-28_17h31.37.893,vbt_B1_day1,2022.2.4,Win32,60.2373351,,,,,,,,,,,,,,,,,,,-0.174,-0.0185,1,0,0,21.7,0,23,23,3,1,d,images/br_d.png,images/cb_d.png,,,,,,,,,,,,,,,,,,,,,,,,,
,,,,,,00085,2023-10-28_17h31.37.893,vbt_B1_day1,2022.2.4,Win32,60.2373351,,,,,,,,,,,,,,,,,,,-0.174,-0.0185,1,0,0,58.5515,0,24,24,4,1,e,images/br_e.png,images/cb_e.png,,,,,,,,,,,,,,,,,,,,,,,,,
,,,,,,00085,2023-10-28_17h31.37.893,vbt_B1_day1,2022.2.4,Win32,60.2373351,,,,,,,,,,,,,,,,,,,-0.174,-0.0185,1,0,0,20.6504,0,25,25,6,1,g,images/br_g.png,images/cb_g.png,,,,,,,,,,,,,,,,,,,,,,,,,
,,,,,,00085,2023-10-28_17h31.37.893,vbt_B1_day1,2022.2.4,Win32,60.2373351,,,,,,,,,,,,,,,,,,,-0.174,-0.0185,1,0,0,0.0497,1,0,26,17,1,r,images/br_r.png,images/cb_r.png,,,,,,,,,,,,,,,,,,,,,,,,,
,,,,,,00085,2023-10-28_17h31.37.893,vbt_B1_day1,2022.2.4,Win32,60.2373351,,,,,,,,,,,,,,,,,,,-0.174,-0.0185,1,0,0,10.3008,1,1,27,5,1,f,images/br_f.png,images/cb_f.png,,,,,,,,,,,,,,,,,,,,,,,,,
,,,,,,00085,2023-10-28_17h31.37.893,vbt_B1_day1,2022.2.4,Win32,60.2373351,,,,,,,,,,,,,,,,,,,-0.174,-0.0185,1,0,0,33.0504,1,2,28,22,1,w,images/br_w.png,images/cb_w.png,,,,,,,,,,,,,,,,,,,,,,,,,
,,,,,,00085,2023-10-28_17h31.37.893,vbt_B1_day1,2022.2.4,Win32,60.2373351,,,,,,,,,,,,,,,,,,,-0.174,-0.0185,1,0,0,29.6815,1,3,29,21,1,v,images/br_v.png,images/cb_v.png,,,,,,,,,,,,,,,,,,,,,,,,,
,,,,,,00085,2023-10-28_17h31.37.893,vbt_B1_day1,2022.2.4,Win32,60.2373351,,,,,,,,,,,,,,,,,,,-0.174,-0.0185,1,0,0,2.1334,1,4,30,16,1,q,images/br_q.png,images/cb_q.png,,,,,,,,,,,,,,,,,,,,,,,,,
,,,,,,00085,2023-10-28_17h31.37.893,vbt_B1_day1,2022.2.4,Win32,60.2373351,,,,,,,,,,,,,,,,,,,-0.174,-0.0185,1,0,0,6.1337,1,5,31,13,1,n,images/br_n.png,images/cb_n.png,,,,,,,,,,,,,,,,,,,,,,,,,
,,,,,,00085,2023-10-28_17h31.37.893,vbt_B1_day1,2022.2.4,Win32,60.2373351,,,,,,,,,,,,,,,,,,,-0.0335,-0.073,1,0,0,1.0998,1,6,32,0,1,a,images/br_a.png,images/cb_a.png,,,,,,,,,,,,,,,,,,,,,,,,,
,,,,,,00085,2023-10-28_17h31.37.893,vbt_B1_day1,2022.2.4,Win32,60.2373351,,,,,,,,,,,,,,,,,,,-0.1915,-0.043,1,0,0,0.3999,1,7,33,6,1,g,images/br_g.png,images/cb_g.png,,,,,,,,,,,,,,,,,,,,,,,,,
,,,,,,00085,2023-10-28_17h31.37.893,vbt_B1_day1,2022.2.4,Win32,60.2373351,,,,,,,,,,,,,,,,,,,-0.1915,-0.043,1,0,0,3.9455,1,8,34,12,1,m,images/br_m.png,images/cb_m.png,,,,,,,,,,,,,,,,,,,,,,,,,
,,,,,,00085,2023-10-28_17h31.37.893,vbt_B1_day1,2022.2.4,Win32,60.2373351,,,,,,,,,,,,,,,,,,,-0.1915,-0.043,1,0,0,29.9094,1,9,35,10,1,k,images/br_k.png,images/cb_k.png,,,,,,,,,,,,,,,,,,,,,,,,,
,,,,,,00085,2023-10-28_17h31.37.893,vbt_B1_day1,2022.2.4,Win32,60.2373351,,,,,,,,,,,,,,,,,,,-0.1915,-0.043,1,0,0,1.8172,1,10,36,3,1,d,images/br_d.png,images/cb_d.png,,,,,,,,,,,,,,,,,,,,,,,,,
,,,,,,00085,2023-10-28_17h31.37.893,vbt_B1_day1,2022.2.4,Win32,60.2373351,,,,,,,,,,,,,,,,,,,-0.1915,-0.043,1,0,0,3.1843,1,11,37,8,1,i,images/br_i.png,images/cb_i.png,,,,,,,,,,,,,,,,,,,,,,,,,
,,,,,,00085,2023-10-28_17h31.37.893,vbt_B1_day1,2022.2.4,Win32,60.2373351,,,,,,,,,,,,,,,,,,,-0.1915,-0.043,1,0,0,0.0503,1,12,38,23,1,x,images/br_x.png,images/cb_x.png,,,,,,,,,,,,,,,,,,,,,,,,,
,,,,,,00085,2023-10-28_17h31.37.893,vbt_B1_day1,2022.2.4,Win32,60.2373351,,,,,,,,,,,,,,,,,,,-0.1915,-0.043,1,0,0,2.4667,1,13,39,2,1,c,images/br_c.png,images/cb_c.png,,,,,,,,,,,,,,,,,,,,,,,,,
,,,,,,00085,2023-10-28_17h31.37.893,vbt_B1_day1,2022.2.4,Win32,60.2373351,,,,,,,,,,,,,,,,,,,-0.1025,-0.0445,1,0,0,0.9147,1,14,40,1,1,b,images/br_b.png,images/cb_b.png,,,,,,,,,,,,,,,,,,,,,,,,,
,,,,,,00085,2023-10-28_17h31.37.893,vbt_B1_day1,2022.2.4,Win32,60.2373351,,,,,,,,,,,,,,,,,,,-0.1025,-0.0445,1,0,0,10.0805,1,15,41,15,1,p,images/br_p.png,images/cb_p.png,,,,,,,,,,,,,,,,,,,,,,,,,
,,,,,,00085,2023-10-28_17h31.37.893,vbt_B1_day1,2022.2.4,Win32,60.2373351,,,,,,,,,,,,,,,,,,,0.0145,-0.1105,1,0,0,0.1945,1,16,42,9,1,j,images/br_j.png,images/cb_j.png,,,,,,,,,,,,,,,,,,,,,,,,,
,,,,,,00085,2023-10-28_17h31.37.893,vbt_B1_day1,2022.2.4,Win32,60.2373351,,,,,,,,,,,,,,,,,,,-0.0805,-0.1305,1,0,0,14.1996,1,17,43,20,1,u,images/br_u.png,images/cb_u.png,,,,,,,,,,,,,,,,,,,,,,,,,
,,,,,,00085,2023-10-28_17h31.37.893,vbt_B1_day1,2022.2.4,Win32,60.2373351,,,,,,,,,,,,,,,,,,,-0.0805,-0.1305,1,0,0,16.4668,1,18,44,18,1,s,images/br_s.png,images/cb_s.png,,,,,,,,,,,,,,,,,,,,,,,,,
,,,,,,00085,2023-10-28_17h31.37.893,vbt_B1_day1,2022.2.4,Win32,60.2373351,,,,,,,,,,,,,,,,,,,-0.0805,-0.1305,1,0,0,18.3314,1,19,45,25,1,z,images/br_z.png,images/cb_z.png,,,,,,,,,,,,,,,,,,,,,,,,,
,,,,,,00085,2023-10-28_17h31.37.893,vbt_B1_day1,2022.2.4,Win32,60.2373351,,,,,,,,,,,,,,,,,,,-0.0805,-0.1305,1,0,0,12.9671,1,20,46,4,1,e,images/br_e.png,images/cb_e.png,,,,,,,,,,,,,,,,,,,,,,,,,
,,,,,,00085,2023-10-28_17h31.37.893,vbt_B1_day1,2022.2.4,Win32,60.2373351,,,,,,,,,,,,,,,,,,,-0.067,-0.095,1,0,0,1.3886,1,21,47,19,1,t,images/br_t.png,images/cb_t.png,,,,,,,,,,,,,,,,,,,,,,,,,
,,,,,,00085,2023-10-28_17h31.37.893,vbt_B1_day1,2022.2.4,Win32,60.2373351,,,,,,,,,,,,,,,,,,,-0.008,-0.1415,1,0,0,0.1014,1,22,48,14,1,o,images/br_o.png,images/cb_o.png,,,,,,,,,,,,,,,,,,,,,,,,,
,,,,,,00085,2023-10-28_17h31.37.893,vbt_B1_day1,2022.2.4,Win32,60.2373351,,,,,,,,,,,,,,,,,,,-0.008,-0.1415,1,0,0,1.4187,1,23,49,24,1,y,images/br_y.png,images/cb_y.png,,,,,,,,,,,,,,,,,,,,,,,,,
,,,,,,00085,2023-10-28_17h31.37.893,vbt_B1_day1,2022.2.4,Win32,60.2373351,,,,,,,,,,,,,,,,,,,0.1185,-0.141,1,0,0,0.2834,1,24,50,11,1,l,images/br_l.png,images/cb_l.png,,,,,,,,,,,,,,,,,,,,,,,,,
,,,,,,00085,2023-10-28_17h31.37.893,vbt_B1_day1,2022.2.4,Win32,60.2373351,,,,,,,,,,,,,,,,,,,0.1185,-0.141,1,0,0,19.7501,1,25,51,7,1,h,images/br_h.png,images/cb_h.png,,,,,,,,,,,,,,,,,,,,,,,,,
,,,,,,00085,2023-10-28_17h31.37.893,vbt_B1_day1,2022.2.4,Win32,60.2373351,,,,,,,,,,,,,,,,,,,-0.081,-0.146,1,0,0,6.448,2,0,52,18,1,s,images/br_s.png,images/cb_s.png,,,,,,,,,,,,,,,,,,,,,,,,,
,,,,,,00085,2023-10-28_17h31.37.893,vbt_B1_day1,2022.2.4,Win32,60.2373351,,,,,,,,,,,,,,,,,,,0.092,-0.067,1,0,0,0.2172,2,1,53,8,1,i,images/br_i.png,images/cb_i.png,,,,,,,,,,,,,,,,,,,,,,,,,
,,,,,,00085,2023-10-28_17h31.37.893,vbt_B1_day1,2022.2.4,Win32,60.2373351,,,,,,,,,,,,,,,,,,,0.202,-0.113,1,0,0,0.8441,2,2,54,17,1,r,images/br_r.png,images/cb_r.png,,,,,,,,,,,,,,,,,,,,,,,,,
,,,,,,00085,2023-10-28_17h31.37.893,vbt_B1_day1,2022.2.4,Win32,60.2373351,,,,,,,,,,,,,,,,,,,0.202,-0.113,1,0,0,4.6497,2,3,55,5,1,f,images/br_f.png,images/cb_f.png,,,,,,,,,,,,,,,,,,,,,,,,,
,,,,,,00085,2023-10-28_17h31.37.893,vbt_B1_day1,2022.2.4,Win32,60.2373351,,,,,,,,,,,,,,,,,,,0.202,-0.113,1,0,0,6.2169,2,4,56,10,1,k,images/br_k.png,images/cb_k.png,,,,,,,,,,,,,,,,,,,,,,,,,
,,,,,,00085,2023-10-28_17h31.37.893,vbt_B1_day1,2022.2.4,Win32,60.2373351,,,,,,,,,,,,,,,,,,,0.202,-0.113,1,0,0,1.0002,2,5,57,2,1,c,images/br_c.png,images/cb_c.png,,,,,,,,,,,,,,,,,,,,,,,,,
,,,,,,00085,2023-10-28_17h31.37.893,vbt_B1_day1,2022.2.4,Win32,60.2373351,,,,,,,,,,,,,,,,,,,0.1235,0,1,0,0,0.8048,2,6,58,20,1,u,images/br_u.png,images/cb_u.png,,,,,,,,,,,,,,,,,,,,,,,,,
,,,,,,00085,2023-10-28_17h31.37.893,vbt_B1_day1,2022.2.4,Win32,60.2373351,,,,,,,,,,,,,,,,,,,0.117,-0.1035,1,0,0,0.3001,2,7,59,23,1,x,images/br_x.png,images/cb_x.png,,,,,,,,,,,,,,,,,,,,,,,,,
,,,,,,00085,2023-10-28_17h31.37.893,vbt_B1_day1,2022.2.4,Win32,60.2373351,,,,,,,,,,,,,,,,,,,0.117,-0.1035,1,0,0,32.5172,2,8,60,16,1,q,images/br_q.png,images/cb_q.png,,,,,,,,,,,,,,,,,,,,,,,,,
,,,,,,00085,2023-10-28_17h31.37.893,vbt_B1_day1,2022.2.4,Win32,60.2373351,,,,,,,,,,,,,,,,,,,0.117,-0.1035,1,0,0,0.0666,2,9,61,1,1,b,images/br_b.png,images/cb_b.png,,,,,,,,,,,,,,,,,,,,,,,,,
,,,,,,00085,2023-10-28_17h31.37.893,vbt_B1_day1,2022.2.4,Win32,60.2373351,,,,,,,,,,,,,,,,,,,0.0895,0.0165,1,0,0,0.6701,2,10,62,24,1,y,images/br_y.png,images/cb_y.png,,,,,,,,,,,,,,,,,,,,,,,,,
,,,,,,00085,2023-10-28_17h31.37.893,vbt_B1_day1,2022.2.4,Win32,60.2373351,,,,,,,,,,,,,,,,,,,-0.049,-0.0055,1,0,0,1.8479,2,11,63,3,1,d,images/br_d.png,images/cb_d.png,,,,,,,,,,,,,,,,,,,,,,,,,
,,,,,,00085,2023-10-28_17h31.37.893,vbt_B1_day1,2022.2.4,Win32,60.2373351,,,,,,,,,,,,,,,,,,,-0.049,-0.0055,1,0,0,1.5502,2,12,64,22,1,w,images/br_w.png,images/cb_w.png,,,,,,,,,,,,,,,,,,,,,,,,,
,,,,,,00085,2023-10-28_17h31.37.893,vbt_B1_day1,2022.2.4,Win32,60.2373351,,,,,,,,,,,,,,,,,,,0.1455,-0.096,1,0,0,0.807,2,13,65,9,1,j,images/br_j.png,images/cb_j.png,,,,,,,,,,,,,,,,,,,,,,,,,
,,,,,,00085,2023-10-28_17h31.37.893,vbt_B1_day1,2022.2.4,Win32,60.2373351,,,,,,,,,,,,,,,,,,,0.133,-0.0815,1,0,0,25.0057,2,14,66,7,1,h,images/br_h.png,images/cb_h.png,,,,,,,,,,,,,,,,,,,,,,,,,
,,,,,,00085,2023-10-28_17h31.37.893,vbt_B1_day1,2022.2.4,Win32,60.2373351,,,,,,,,,,,,,,,,,,,-0.0265,-0.0805,1,0,0,0.4332,2,15,67,25,1,z,images/br_z.png,images/cb_z.png,,,,,,,,,,,,,,,,,,,,,,,,,
,,,,,,00085,2023-10-28_17h31.37.893,vbt_B1_day1,2022.2.4,Win32,60.2373351,,,,,,,,,,,,,,,,,,,0.133,-0.1135,1,0,0,1.9836,2,16,68,21,1,v,images/br_v.png,images/cb_v.png,,,,,,,,,,,,,,,,,,,,,,,,,
,,,,,,00085,2023-10-28_17h31.37.893,vbt_B1_day1,2022.2.4,Win32,60.2373351,,,,,,,,,,,,,,,,,,,-0.0445,-0.1655,1,0,0,1.0808,2,17,69,4,1,e,images/br_e.png,images/cb_e.png,,,,,,,,,,,,,,,,,,,,,,,,,
,,,,,,00085,2023-10-28_17h31.37.893,vbt_B1_day1,2022.2.4,Win32,60.2373351,,,,,,,,,,,,,,,,,,,0.0685,-0.0425,1,0,0,0.2997,2,18,70,14,1,o,images/br_o.png,images/cb_o.png,,,,,,,,,,,,,,,,,,,,,,,,,
,,,,,,00085,2023-10-28_17h31.37.893,vbt_B1_day1,2022.2.4,Win32,60.2373351,,,,,,,,,,,,,,,,,,,0.0065,-0.1175,1,0,0,0.2748,2,19,71,0,1,a,images/br_a.png,images/cb_a.png,,,,,,,,,,,,,,,,,,,,,,,,,
,,,,,,00085,2023-10-28_17h31.37.893,vbt_B1_day1,2022.2.4,Win32,60.2373351,,,,,,,,,,,,,,,,,,,0.189,-0.1125,1,0,0,0.6002,2,20,72,6,1,g,images/br_g.png,images/cb_g.png,,,,,,,,,,,,,,,,,,,,,,,,,
,,,,,,00085,2023-10-28_17h31.37.893,vbt_B1_day1,2022.2.4,Win32,60.2373351,,,,,,,,,,,,,,,,,,,0.1295,-0.1245,1,0,0,1.447,2,21,73,12,1,m,images/br_m.png,images/cb_m.png,,,,,,,,,,,,,,,,,,,,,,,,,
,,,,,,00085,2023-10-28_17h31.37.893,vbt_B1_day1,2022.2.4,Win32,60.2373351,,,,,,,,,,,,,,,,,,,0.1295,-0.1245,1,0,0,0.1744,2,22,74,11,1,l,images/br_l.png,images/cb_l.png,,,,,,,,,,,,,,,,,,,,,,,,,
,,,,,,00085,2023-10-28_17h31.37.893,vbt_B1_day1,2022.2.4,Win32,60.2373351,,,,,,,,,,,,,,,,,,,0.0635,-0.146,1,0,0,0.1507,2,23,75,19,1,t,images/br_t.png,images/cb_t.png,,,,,,,,,,,,,,,,,,,,,,,,,
,,,,,,00085,2023-10-28_17h31.37.893,vbt_B1_day1,2022.2.4,Win32,60.2373351,,,,,,,,,,,,,,,,,,,0.19,-0.143,1,0,0,12.984,2,24,76,15,1,p,images/br_p.png,images/cb_p.png,,,,,,,,,,,,,,,,,,,,,,,,,
,,,,,,00085,2023-10-28_17h31.37.893,vbt_B1_day1,2022.2.4,Win32,60.2373351,,,,,,,,,,,,,,,,,,,0.0875,-0.178,1,0,0,3.5498,2,25,77,13,1,n,images/br_n.png,images/cb_n.png,,,,,,,,,,,,,,,,,,,,,,,,,
,,,,,,00085,2023-10-28_17h31.37.893,vbt_B1_day1,2022.2.4,Win32,60.2373351,,,,,,,,,,,,,,,,,,,0.0875,-0.178,1,0,0,3.1665,3,0,78,2,1,c,images/br_c.png,images/cb_c.png,,,,,,,,,,,,,,,,,,,,,,,,,
,,,,,,00085,2023-10-28_17h31.37.893,vbt_B1_day1,2022.2.4,Win32,60.2373351,,,,,,,,,,,,,,,,,,,0.0875,-0.178,1,0,0,12.0168,3,1,79,3,1,d,images/br_d.png,images/cb_d.png,,,,,,,,,,,,,,,,,,,,,,,,,
,,,,,,00085,2023-10-28_17h31.37.893,vbt_B1_day1,2022.2.4,Win32,60.2373351,,,,,,,,,,,,,,,,,,,0.0875,-0.178,1,0,0,17.6293,3,2,80,22,1,w,images/br_w.png,images/cb_w.png,,,,,,,,,,,,,,,,,,,,,,,,,
,,,,,,00085,2023-10-28_17h31.37.893,vbt_B1_day1,2022.2.4,Win32,60.2373351,,,,,,,,,,,,,,,,,,,-0.0075,-0.161,1,0,0,0.2129,3,3,81,7,1,h,images/br_h.png,images/cb_h.png,,,,,,,,,,,,,,,,,,,,,,,,,
,,,,,,00085,2023-10-28_17h31.37.893,vbt_B1_day1,2022.2.4,Win32,60.2373351,,,,,,,,,,,,,,,,,,,-0.0075,-0.161,1,0,0,0.5169,3,4,82,1,1,b,images/br_b.png,images/cb_b.png,,,,,,,,,,,,,,,,,,,,,,,,,
,,,,,,00085,2023-10-28_17h31.37.893,vbt_B1_day1,2022.2.4,Win32,60.2373351,,,,,,,,,,,,,,,,,,,0.131,-0.1655,1,0,0,2.0664,3,5,83,10,1,k,images/br_k.png,images/cb_k.png,,,,,,,,,,,,,,,,,,,,,,,,,
,,,,,,00085,2023-10-28_17h31.37.893,vbt_B1_day1,2022.2.4,Win32,60.2373351,,,,,,,,,,,,,,,,,,,0.088,-0.169,1,0,0,2.4807,3,6,84,13,1,n,images/br_n.png,images/cb_n.png,,,,,,,,,,,,,,,,,,,,,,,,,
,,,,,,00085,2023-10-28_17h31.37.893,vbt_B1_day1,2022.2.4,Win32,60.2373351,,,,,,,,,,,,,,,,,,,0.0465,-0.187,1,0,0,1.6047,3,7,85,15,1,p,images/br_p.png,images/cb_p.png,,,,,,,,,,,,,,,,,,,,,,,,,
,,,,,,00085,2023-10-28_17h31.37.893,vbt_B1_day1,2022.2.4,Win32,60.2373351,,,,,,,,,,,,,,,,,,,0.0465,-0.187,1,0,0,0.1666,3,8,86,19,1,t,images/br_t.png,images/cb_t.png,,,,,,,,,,,,,,,,,,,,,,,,,
,,,,,,00085,2023-10-28_17h31.37.893,vbt_B1_day1,2022.2.4,Win32,60.2373351,,,,,,,,,,,,,,,,,,,0.0465,-0.187,1,0,0,0.3167,3,9,87,8,1,i,images/br_i.png,images/cb_i.png,,,,,,,,,,,,,,,,,,,,,,,,,
,,,,,,00085,2023-10-28_17h31.37.893,vbt_B1_day1,2022.2.4,Win32,60.2373351,,,,,,,,,,,,,,,,,,,0.0465,-0.187,1,0,0,6.7837,3,10,88,21,1,v,images/br_v.png,images/cb_v.png,,,,,,,,,,,,,,,,,,,,,,,,,
,,,,,,00085,2023-10-28_17h31.37.893,vbt_B1_day1,2022.2.4,Win32,60.2373351,,,,,,,,,,,,,,,,,,,0.0465,-0.187,1,0,0,2.9671,3,11,89,9,1,j,images/br_j.png,images/cb_j.png,,,,,,,,,,,,,,,,,,,,,,,,,
,,,,,,00085,2023-10-28_17h31.37.893,vbt_B1_day1,2022.2.4,Win32,60.2373351,,,,,,,,,,,,,,,,,,,0.0465,-0.187,1,0,0,2.2845,3,12,90,18,1,s,images/br_s.png,images/cb_s.png,,,,,,,,,,,,,,,,,,,,,,,,,
,,,,,,00085,2023-10-28_17h31.37.893,vbt_B1_day1,2022.2.4,Win32,60.2373351,,,,,,,,,,,,,,,,,,,0.082,-0.1825,1,0,0,0.4669,3,13,91,23,1,x,images/br_x.png,images/cb_x.png,,,,,,,,,,,,,,,,,,,,,,,,,
,,,,,,00085,2023-10-28_17h31.37.893,vbt_B1_day1,2022.2.4,Win32,60.2373351,,,,,,,,,,,,,,,,,,,0.082,-0.1825,1,0,0,2.8377,3,14,92,4,1,e,images/br_e.png,images/cb_e.png,,,,,,,,,,,,,,,,,,,,,,,,,
,,,,,,00085,2023-10-28_17h31.37.893,vbt_B1_day1,2022.2.4,Win32,60.2373351,,,,,,,,,,,,,,,,,,,0.082,-0.1825,1,0,0,1.1169,3,15,93,24,1,y,images/br_y.png,images/cb_y.png,,,,,,,,,,,,,,,,,,,,,,,,,
,,,,,,00085,2023-10-28_17h31.37.893,vbt_B1_day1,2022.2.4,Win32,60.2373351,,,,,,,,,,,,,,,,,,,0.0495,-0.1825,1,0,0,7.9503,3,16,94,12,1,m,images/br_m.png,images/cb_m.png,,,,,,,,,,,,,,,,,,,,,,,,,
,,,,,,00085,2023-10-28_17h31.37.893,vbt_B1_day1,2022.2.4,Win32,60.2373351,,,,,,,,,,,,,,,,,,,0.0195,-0.179,1,0,0,0.6832,3,17,95,20,1,u,images/br_u.png,images/cb_u.png,,,,,,,,,,,,,,,,,,,,,,,,,
,,,,,,00085,2023-10-28_17h31.37.893,vbt_B1_day1,2022.2.4,Win32,60.2373351,,,,,,,,,,,,,,,,,,,0.0195,-0.179,1,0,0,2.4,3,18,96,16,1,q,images/br_q.png,images/cb_q.png,,,,,,,,,,,,,,,,,,,,,,,,,
,,,,,,00085,2023-10-28_17h31.37.893,vbt_B1_day1,2022.2.4,Win32,60.2373351,,,,,,,,,,,,,,,,,,,0.0195,-0.179,1,0,0,0.8666,3,19,97,17,1,r,images/br_r.png,images/cb_r.png,,,,,,,,,,,,,,,,,,,,,,,,,
,,,,,,00085,2023-10-28_17h31.37.893,vbt_B1_day1,2022.2.4,Win32,60.2373351,,,,,,,,,,,,,,,,,,,0.0195,-0.179,1,0,0,0.0501,3,20,98,6,1,g,images/br_g.png,images/cb_g.png,,,,,,,,,,,,,,,,,,,,,,,,,
,,,,,,00085,2023-10-28_17h31.37.893,vbt_B1_day1,2022.2.4,Win32,60.2373351,,,,,,,,,,,,,,,,,,,0.0195,-0.179,1,0,0,0.1667,3,21,99,5,1,f,images/br_f.png,images/cb_f.png,,,,,,,,,,,,,,,,,,,,,,,,,
,,,,,,00085,2023-10-28_17h31.37.893,vbt_B1_day1,2022.2.4,Win32,60.2373351,,,,,,,,,,,,,,,,,,,0.0195,-0.179,1,0,0,0.3,3,22,100,14,1,o,images/br_o.png,images/cb_o.png,,,,,,,,,,,,,,,,,,,,,,,,,
,,,,,,00085,2023-10-28_17h31.37.893,vbt_B1_day1,2022.2.4,Win32,60.2373351,,,,,,,,,,,,,,,,,,,0.0195,-0.179,1,0,0,0.15,3,23,101,25,1,z,images/br_z.png,images/cb_z.png,,,,,,,,,,,,,,,,,,,,,,,,,
,,,,,,00085,2023-10-28_17h31.37.893,vbt_B1_day1,2022.2.4,Win32,60.2373351,,,,,,,,,,,,,,,,,,,0.0195,-0.179,1,0,0,0.6838,3,24,102,11,1,l,images/br_l.png,images/cb_l.png,,,,,,,,,,,,,,,,,,,,,,,,,
,,,,,,00085,2023-10-28_17h31.37.893,vbt_B1_day1,2022.2.4,Win32,60.2373351,,,,,,,,,,,,,,,,,,,0.0195,-0.179,1,0,0,1.2331,3,25,103,0,1,a,images/br_a.png,images/cb_a.png,,,,,,,,,,,,,,,,,,,,,,,,,
,,,,,,00085,2023-10-28_17h31.37.893,vbt_B1_day1,2022.2.4,Win32,60.2373351,,,,,,,,,,,,,,,,,,,0.0195,-0.179,1,0,0,6.0832,4,0,104,10,1,k,images/br_k.png,images/cb_k.png,,,,,,,,,,,,,,,,,,,,,,,,,
,,,,,,00085,2023-10-28_17h31.37.893,vbt_B1_day1,2022.2.4,Win32,60.2373351,,,,,,,,,,,,,,,,,,,0.0195,-0.179,1,0,0,0.6505,4,1,105,16,1,q,images/br_q.png,images/cb_q.png,,,,,,,,,,,,,,,,,,,,,,,,,
,,,,,,00085,2023-10-28_17h31.37.893,vbt_B1_day1,2022.2.4,Win32,60.2373351,,,,,,,,,,,,,,,,,,,0.0195,-0.179,1,0,0,0.3829,4,2,106,11,1,l,images/br_l.png,images/cb_l.png,,,,,,,,,,,,,,,,,,,,,,,,,
,,,,,,00085,2023-10-28_17h31.37.893,vbt_B1_day1,2022.2.4,Win32,60.2373351,,,,,,,,,,,,,,,,,,,0.0195,-0.179,1,0,0,0.1001,4,3,107,20,1,u,images/br_u.png,images/cb_u.png,,,,,,,,,,,,,,,,,,,,,,,,,
,,,,,,00085,2023-10-28_17h31.37.893,vbt_B1_day1,2022.2.4,Win32,60.2373351,,,,,,,,,,,,,,,,,,,0.0195,-0.179,1,0,0,0.8471,4,4,108,12,1,m,images/br_m.png,images/cb_m.png,,,,,,,,,,,,,,,,,,,,,,,,,
,,,,,,00085,2023-10-28_17h31.37.893,vbt_B1_day1,2022.2.4,Win32,60.2373351,,,,,,,,,,,,,,,,,,,0.0195,-0.179,1,0,0,0.317,4,5,109,25,1,z,images/br_z.png,images/cb_z.png,,,,,,,,,,,,,,,,,,,,,,,,,
,,,,,,00085,2023-10-28_17h31.37.893,vbt_B1_day1,2022.2.4,Win32,60.2373351,,,,,,,,,,,,,,,,,,,0.0195,-0.179,1,0,0,0.8669,4,6,110,8,1,i,images/br_i.png,images/cb_i.png,,,,,,,,,,,,,,,,,,,,,,,,,
,,,,,,00085,2023-10-28_17h31.37.893,vbt_B1_day1,2022.2.4,Win32,60.2373351,,,,,,,,,,,,,,,,,,,0.0195,-0.179,1,0,0,2.4334,4,7,111,3,1,d,images/br_d.png,images/cb_d.png,,,,,,,,,,,,,,,,,,,,,,,,,
,,,,,,00085,2023-10-28_17h31.37.893,vbt_B1_day1,2022.2.4,Win32,60.2373351,,,,,,,,,,,,,,,,,,,0.0195,-0.179,1,0,0,0.1346,4,8,112,17,1,r,images/br_r.png,images/cb_r.png,,,,,,,,,,,,,,,,,,,,,,,,,
,,,,,,00085,2023-10-28_17h31.37.893,vbt_B1_day1,2022.2.4,Win32,60.2373351,,,,,,,,,,,,,,,,,,,0.0195,-0.179,1,0,0,1.4001,4,9,113,4,1,e,images/br_e.png,images/cb_e.png,,,,,,,,,,,,,,,,,,,,,,,,,
,,,,,,00085,2023-10-28_17h31.37.893,vbt_B1_day1,2022.2.4,Win32,60.2373351,,,,,,,,,,,,,,,,,,,0.0195,-0.179,1,0,0,13.217,4,10,114,0,1,a,images/br_a.png,images/cb_a.png,,,,,,,,,,,,,,,,,,,,,,,,,
,,,,,,00085,2023-10-28_17h31.37.893,vbt_B1_day1,2022.2.4,Win32,60.2373351,,,,,,,,,,,,,,,,,,,0.0195,-0.179,1,0,0,0.5835,4,11,115,24,1,y,images/br_y.png,images/cb_y.png,,,,,,,,,,,,,,,,,,,,,,,,,
,,,,,,00085,2023-10-28_17h31.37.893,vbt_B1_day1,2022.2.4,Win32,60.2373351,,,,,,,,,,,,,,,,,,,0.0195,-0.179,1,0,0,0.0434,4,12,116,6,1,g,images/br_g.png,images/cb_g.png,,,,,,,,,,,,,,,,,,,,,,,,,
,,,,,,00085,2023-10-28_17h31.37.893,vbt_B1_day1,2022.2.4,Win32,60.2373351,,,,,,,,,,,,,,,,,,,0.0195,-0.179,1,0,0,0.2005,4,13,117,9,1,j,images/br_j.png,images/cb_j.png,,,,,,,,,,,,,,,,,,,,,,,,,
,,,,,,00085,2023-10-28_17h31.37.893,vbt_B1_day1,2022.2.4,Win32,60.2373351,,,,,,,,,,,,,,,,,,,0.0195,-0.179,1,0,0,0.1333,4,14,118,14,1,o,images/br_o.png,images/cb_o.png,,,,,,,,,,,,,,,,,,,,,,,,,
,,,,,,00085,2023-10-28_17h31.37.893,vbt_B1_day1,2022.2.4,Win32,60.2373351,,,,,,,,,,,,,,,,,,,0.0195,-0.179,1,0,0,0.7169,4,15,119,22,1,w,images/br_w.png,images/cb_w.png,,,,,,,,,,,,,,,,,,,,,,,,,
,,,,,,00085,2023-10-28_17h31.37.893,vbt_B1_day1,2022.2.4,Win32,60.2373351,,,,,,,,,,,,,,,,,,,0.0195,-0.179,1,0,0,0.0501,4,16,120,7,1,h,images/br_h.png,images/cb_h.png,,,,,,,,,,,,,,,,,,,,,,,,,
,,,,,,00085,2023-10-28_17h31.37.893,vbt_B1_day1,2022.2.4,Win32,60.2373351,,,,,,,,,,,,,,,,,,,0.0195,-0.179,1,0,0,0.3667,4,17,121,1,1,b,images/br_b.png,images/cb_b.png,,,,,,,,,,,,,,,,,,,,,,,,,
,,,,,,00085,2023-10-28_17h31.37.893,vbt_B1_day1,2022.2.4,Win32,60.2373351,,,,,,,,,,,,,,,,,,,0.0195,-0.179,1,0,0,0.2163,4,18,122,19,1,t,images/br_t.png,images/cb_t.png,,,,,,,,,,,,,,,,,,,,,,,,,
,,,,,,00085,2023-10-28_17h31.37.893,vbt_B1_day1,2022.2.4,Win32,60.2373351,,,,,,,,,,,,,,,,,,,0.0195,-0.179,1,0,0,0.8083,4,19,123,2,1,c,images/br_c.png,images/cb_c.png,,,,,,,,,,,,,,,,,,,,,,,,,
,,,,,,00085,2023-10-28_17h31.37.893,vbt_B1_day1,2022.2.4,Win32,60.2373351,,,,,,,,,,,,,,,,,,,0.0195,-0.179,1,0,0,0.117,4,20,124,23,1,x,images/br_x.png,images/cb_x.png,,,,,,,,,,,,,,,,,,,,,,,,,
,,,,,,00085,2023-10-28_17h31.37.893,vbt_B1_day1,2022.2.4,Win32,60.2373351,,,,,,,,,,,,,,,,,,,0.0195,-0.179,1,0,0,0.1167,4,21,125,5,1,f,images/br_f.png,images/cb_f.png,,,,,,,,,,,,,,,,,,,,,,,,,
,,,,,,00085,2023-10-28_17h31.37.893,vbt_B1_day1,2022.2.4,Win32,60.2373351,,,,,,,,,,,,,,,,,,,0.0195,-0.179,1,0,0,1.0333,4,22,126,18,1,s,images/br_s.png,images/cb_s.png,,,,,,,,,,,,,,,,,,,,,,,,,
,,,,,,00085,2023-10-28_17h31.37.893,vbt_B1_day1,2022.2.4,Win32,60.2373351,,,,,,,,,,,,,,,,,,,0.0195,-0.179,1,0,0,1.9003,4,23,127,21,1,v,images/br_v.png,images/cb_v.png,,,,,,,,,,,,,,,,,,,,,,,,,
,,,,,,00085,2023-10-28_17h31.37.893,vbt_B1_day1,2022.2.4,Win32,60.2373351,,,,,,,,,,,,,,,,,,,0.0195,-0.179,1,0,0,0.5164,4,24,128,15,1,p,images/br_p.png,images/cb_p.png,,,,,,,,,,,,,,,,,,,,,,,,,
,,,,,,00085,2023-10-28_17h31.37.893,vbt_B1_day1,2022.2.4,Win32,60.2373351,,,,,,,,,,,,,,,,,,,0.0195,-0.179,1,0,0,0.9002,4,25,129,13,1,n,images/br_n.png,images/cb_n.png,,,,,,,,,,,,,,,,,,,,,,,,,
,,,,,,00085,2023-10-28_17h31.37.893,vbt_B1_day1,2022.2.4,Win32,60.2373351,,,,,,,,,,,,,,,,,,,0.0195,-0.179,1,0,0,1.416,5,0,130,16,1,q,images/br_q.png,images/cb_q.png,,,,,,,,,,,,,,,,,,,,,,,,,
,,,,,,00085,2023-10-28_17h31.37.893,vbt_B1_day1,2022.2.4,Win32,60.2373351,,,,,,,,,,,,,,,,,,,0.0195,-0.179,1,0,0,0.3669,5,1,131,20,1,u,images/br_u.png,images/cb_u.png,,,,,,,,,,,,,,,,,,,,,,,,,
,,,,,,00085,2023-10-28_17h31.37.893,vbt_B1_day1,2022.2.4,Win32,60.2373351,,,,,,,,,,,,,,,,,,,0.0195,-0.179,1,0,0,0.5002,5,2,132,15,1,p,images/br_p.png,images/cb_p.png,,,,,,,,,,,,,,,,,,,,,,,,,
,,,,,,00085,2023-10-28_17h31.37.893,vbt_B1_day1,2022.2.4,Win32,60.2373351,,,,,,,,,,,,,,,,,,,0.0195,-0.179,1,0,0,0.0501,5,3,133,11,1,l,images/br_l.png,images/cb_l.png,,,,,,,,,,,,,,,,,,,,,,,,,
,,,,,,00085,2023-10-28_17h31.37.893,vbt_B1_day1,2022.2.4,Win32,60.2373351,,,,,,,,,,,,,,,,,,,0.0195,-0.179,1,0,0,0.6167,5,4,134,17,1,r,images/br_r.png,images/cb_r.png,,,,,,,,,,,,,,,,,,,,,,,,,
,,,,,,00085,2023-10-28_17h31.37.893,vbt_B1_day1,2022.2.4,Win32,60.2373351,,,,,,,,,,,,,,,,,,,0.0195,-0.179,1,0,0,0.3165,5,5,135,14,1,o,images/br_o.png,images/cb_o.png,,,,,,,,,,,,,,,,,,,,,,,,,
,,,,,,00085,2023-10-28_17h31.37.893,vbt_B1_day1,2022.2.4,Win32,60.2373351,,,,,,,,,,,,,,,,,,,0.0195,-0.179,1,0,0,0.9832,5,6,136,7,1,h,images/br_h.png,images/cb_h.png,,,,,,,,,,,,,,,,,,,,,,,,,
,,,,,,00085,2023-10-28_17h31.37.893,vbt_B1_day1,2022.2.4,Win32,60.2373351,,,,,,,,,,,,,,,,,,,0.0195,-0.179,1,0,0,3.7662,5,7,137,12,1,m,images/br_m.png,images/cb_m.png,,,,,,,,,,,,,,,,,,,,,,,,,
,,,,,,00085,2023-10-28_17h31.37.893,vbt_B1_day1,2022.2.4,Win32,60.2373351,,,,,,,,,,,,,,,,,,,0.0195,-0.179,1,0,0,0.4329,5,8,138,1,1,b,images/br_b.png,images/cb_b.png,,,,,,,,,,,,,,,,,,,,,,,,,
,,,,,,00085,2023-10-28_17h31.37.893,vbt_B1_day1,2022.2.4,Win32,60.2373351,,,,,,,,,,,,,,,,,,,0.0195,-0.179,1,0,0,0.217,5,9,139,9,1,j,images/br_j.png,images/cb_j.png,,,,,,,,,,,,,,,,,,,,,,,,,
,,,,,,00085,2023-10-28_17h31.37.893,vbt_B1_day1,2022.2.4,Win32,60.2373351,,,,,,,,,,,,,,,,,,,0.0195,-0.179,1,0,0,0.3501,5,10,140,8,1,i,images/br_i.png,images/cb_i.png,,,,,,,,,,,,,,,,,,,,,,,,,
,,,,,,00085,2023-10-28_17h31.37.893,vbt_B1_day1,2022.2.4,Win32,60.2373351,,,,,,,,,,,,,,,,,,,0.0195,-0.179,1,0,0,0.2331,5,11,141,19,1,t,images/br_t.png,images/cb_t.png,,,,,,,,,,,,,,,,,,,,,,,,,
,,,,,,00085,2023-10-28_17h31.37.893,vbt_B1_day1,2022.2.4,Win32,60.2373351,,,,,,,,,,,,,,,,,,,0.0195,-0.179,1,0,0,0.9496,5,12,142,21,1,v,images/br_v.png,images/cb_v.png,,,,,,,,,,,,,,,,,,,,,,,,,
,,,,,,00085,2023-10-28_17h31.37.893,vbt_B1_day1,2022.2.4,Win32,60.2373351,,,,,,,,,,,,,,,,,,,0.0195,-0.179,1,0,0,1.2933,5,13,143,18,1,s,images/br_s.png,images/cb_s.png,,,,,,,,,,,,,,,,,,,,,,,,,
,,,,,,00085,2023-10-28_17h31.37.893,vbt_B1_day1,2022.2.4,Win32,60.2373351,,,,,,,,,,,,,,,,,,,0.0195,-0.179,1,0,0,4.0502,5,14,144,4,1,e,images/br_e.png,images/cb_e.png,,,,,,,,,,,,,,,,,,,,,,,,,
,,,,,,00085,2023-10-28_17h31.37.893,vbt_B1_day1,2022.2.4,Win32,60.2373351,,,,,,,,,,,,,,,,,,,0.0195,-0.179,1,0,0,0.6172,5,15,145,6,1,g,images/br_g.png,images/cb_g.png,,,,,,,,,,,,,,,,,,,,,,,,,
,,,,,,00085,2023-10-28_17h31.37.893,vbt_B1_day1,2022.2.4,Win32,60.2373351,,,,,,,,,,,,,,,,,,,0.0195,-0.179,1,0,0,1.9669,5,16,146,13,1,n,images/br_n.png,images/cb_n.png,,,,,,,,,,,,,,,,,,,,,,,,,
,,,,,,00085,2023-10-28_17h31.37.893,vbt_B1_day1,2022.2.4,Win32,60.2373351,,,,,,,,,,,,,,,,,,,0.0195,-0.179,1,0,0,1.8004,5,17,147,24,1,y,images/br_y.png,images/cb_y.png,,,,,,,,,,,,,,,,,,,,,,,,,
,,,,,,00085,2023-10-28_17h31.37.893,vbt_B1_day1,2022.2.4,Win32,60.2373351,,,,,,,,,,,,,,,,,,,0.0195,-0.179,1,0,0,1.9333,5,18,148,22,1,w,images/br_w.png,images/cb_w.png,,,,,,,,,,,,,,,,,,,,,,,,,
,,,,,,00085,2023-10-28_17h31.37.893,vbt_B1_day1,2022.2.4,Win32,60.2373351,,,,,,,,,,,,,,,,,,,0.0195,-0.179,1,0,0,0.4333,5,19,149,5,1,f,images/br_f.png,images/cb_f.png,,,,,,,,,,,,,,,,,,,,,,,,,
,,,,,,00085,2023-10-28_17h31.37.893,vbt_B1_day1,2022.2.4,Win32,60.2373351,,,,,,,,,,,,,,,,,,,0.0195,-0.179,1,0,0,1.9052,5,20,150,10,1,k,images/br_k.png,images/cb_k.png,,,,,,,,,,,,,,,,,,,,,,,,,
,,,,,,00085,2023-10-28_17h31.37.893,vbt_B1_day1,2022.2.4,Win32,60.2373351,,,,,,,,,,,,,,,,,,,0.0195,-0.179,1,0,0,1.2837,5,21,151,23,1,x,images/br_x.png,images/cb_x.png,,,,,,,,,,,,,,,,,,,,,,,,,
,,,,,,00085,2023-10-28_17h31.37.893,vbt_B1_day1,2022.2.4,Win32,60.2373351,,,,,,,,,,,,,,,,,,,0.0195,-0.179,1,0,0,0.2167,5,22,152,25,1,z,images/br_z.png,images/cb_z.png,,,,,,,,,,,,,,,,,,,,,,,,,
,,,,,,00085,2023-10-28_17h31.37.893,vbt_B1_day1,2022.2.4,Win32,60.2373351,,,,,,,,,,,,,,,,,,,0.0195,-0.179,1,0,0,0.95,5,23,153,2,1,c,images/br_c.png,images/cb_c.png,,,,,,,,,,,,,,,,,,,,,,,,,
,,,,,,00085,2023-10-28_17h31.37.893,vbt_B1_day1,2022.2.4,Win32,60.2373351,,,,,,,,,,,,,,,,,,,0.0195,-0.179,1,0,0,0.1002,5,24,154,0,1,a,images/br_a.png,images/cb_a.png,,,,,,,,,,,,,,,,,,,,,,,,,
,,,,,,00085,2023-10-28_17h31.37.893,vbt_B1_day1,2022.2.4,Win32,60.2373351,,,,,,,,,,,,,,,,,,,0.0195,-0.179,1,0,0,22.5003,5,25,155,3,1,d,images/br_d.png,images/cb_d.png,,,,,,,,,,,,,,,,,,,,,,,,,
,,,,,,00085,2023-10-28_17h31.37.893,vbt_B1_day1,2022.2.4,Win32,60.2373351,,,,,,,,,,,,,,,,,,,0.0195,-0.179,1,0,0,0.5332,6,0,156,6,1,g,images/br_g.png,images/cb_g.png,,,,,,,,,,,,,,,,,,,,,,,,,
,,,,,,00085,2023-10-28_17h31.37.893,vbt_B1_day1,2022.2.4,Win32,60.2373351,,,,,,,,,,,,,,,,,,,0.0195,-0.179,1,0,0,0.6361,6,1,157,15,1,p,images/br_p.png,images/cb_p.png,,,,,,,,,,,,,,,,,,,,,,,,,
,,,,,,00085,2023-10-28_17h31.37.893,vbt_B1_day1,2022.2.4,Win32,60.2373351,,,,,,,,,,,,,,,,,,,0.0195,-0.179,1,0,0,0.7166,6,2,158,13,1,n,images/br_n.png,images/cb_n.png,,,,,,,,,,,,,,,,,,,,,,,,,
,,,,,,00085,2023-10-28_17h31.37.893,vbt_B1_day1,2022.2.4,Win32,60.2373351,,,,,,,,,,,,,,,,,,,0.0195,-0.179,1,0,0,0.4417,6,3,159,18,1,s,images/br_s.png,images/cb_s.png,,,,,,,,,,,,,,,,,,,,,,,,,
,,,,,,00085,2023-10-28_17h31.37.893,vbt_B1_day1,2022.2.4,Win32,60.2373351,,,,,,,,,,,,,,,,,,,0.0195,-0.179,1,0,0,0.467,6,4,160,2,1,c,images/br_c.png,images/cb_c.png,,,,,,,,,,,,,,,,,,,,,,,,,
,,,,,,00085,2023-10-28_17h31.37.893,vbt_B1_day1,2022.2.4,Win32,60.2373351,,,,,,,,,,,,,,,,,,,0.0195,-0.179,1,0,0,0.3629,6,5,161,9,1,j,images/br_j.png,images/cb_j.png,,,,,,,,,,,,,,,,,,,,,,,,,
,,,,,,00085,2023-10-28_17h31.37.893,vbt_B1_day1,2022.2.4,Win32,60.2373351,,,,,,,,,,,,,,,,,,,0.0195,-0.179,1,0,0,0.2171,6,6,162,1,1,b,images/br_b.png,images/cb_b.png,,,,,,,,,,,,,,,,,,,,,,,,,
,,,,,,00085,2023-10-28_17h31.37.893,vbt_B1_day1,2022.2.4,Win32,60.2373351,,,,,,,,,,,,,,,,,,,0.0195,-0.179,1,0,0,0.6163,6,7,163,11,1,l,images/br_l.png,images/cb_l.png,,,,,,,,,,,,,,,,,,,,,,,,,
,,,,,,00085,2023-10-28_17h31.37.893,vbt_B1_day1,2022.2.4,Win32,60.2373351,,,,,,,,,,,,,,,,,,,0.0195,-0.179,1,0,0,1.3831,6,8,164,10,1,k,images/br_k.png,images/cb_k.png,,,,,,,,,,,,,,,,,,,,,,,,,
,,,,,,00085,2023-10-28_17h31.37.893,vbt_B1_day1,2022.2.4,Win32,60.2373351,,,,,,,,,,,,,,,,,,,0.0195,-0.179,1,0,0,0.0334,6,9,165,14,1,o,images/br_o.png,images/cb_o.png,,,,,,,,,,,,,,,,,,,,,,,,,
,,,,,,00085,2023-10-28_17h31.37.893,vbt_B1_day1,2022.2.4,Win32,60.2373351,,,,,,,,,,,,,,,,,,,0.0195,-0.179,1,0,0,1.9834,6,10,166,3,1,d,images/br_d.png,images/cb_d.png,,,,,,,,,,,,,,,,,,,,,,,,,
,,,,,,00085,2023-10-28_17h31.37.893,vbt_B1_day1,2022.2.4,Win32,60.2373351,,,,,,,,,,,,,,,,,,,0.0195,-0.179,1,0,0,0.0499,6,11,167,12,1,m,images/br_m.png,images/cb_m.png,,,,,,,,,,,,,,,,,,,,,,,,,
,,,,,,00085,2023-10-28_17h31.37.893,vbt_B1_day1,2022.2.4,Win32,60.2373351,,,,,,,,,,,,,,,,,,,0.0195,-0.179,1,0,0,0.1166,6,12,168,20,1,u,images/br_u.png,images/cb_u.png,,,,,,,,,,,,,,,,,,,,,,,,,
,,,,,,00085,2023-10-28_17h31.37.893,vbt_B1_day1,2022.2.4,Win32,60.2373351,,,,,,,,,,,,,,,,,,,0.0195,-0.179,1,0,0,0.18,6,13,169,4,1,e,images/br_e.png,images/cb_e.png,,,,,,,,,,,,,,,,,,,,,,,,,
,,,,,,00085,2023-10-28_17h31.37.893,vbt_B1_day1,2022.2.4,Win32,60.2373351,,,,,,,,,,,,,,,,,,,0.0195,-0.179,1,0,0,0.9667,6,14,170,17,1,r,images/br_r.png,images/cb_r.png,,,,,,,,,,,,,,,,,,,,,,,,,
,,,,,,00085,2023-10-28_17h31.37.893,vbt_B1_day1,2022.2.4,Win32,60.2373351,,,,,,,,,,,,,,,,,,,0.0195,-0.179,1,0,0,0.1164,6,15,171,23,1,x,images/br_x.png,images/cb_x.png,,,,,,,,,,,,,,,,,,,,,,,,,
,,,,,,00085,2023-10-28_17h31.37.893,vbt_B1_day1,2022.2.4,Win32,60.2373351,,,,,,,,,,,,,,,,,,,0.0195,-0.179,1,0,0,0.1778,6,16,172,24,1,y,images/br_y.png,images/cb_y.png,,,,,,,,,,,,,,,,,,,,,,,,,
,,,,,,00085,2023-10-28_17h31.37.893,vbt_B1_day1,2022.2.4,Win32,60.2373351,,,,,,,,,,,,,,,,,,,0.0195,-0.179,1,0,0,0.184,6,17,173,21,1,v,images/br_v.png,images/cb_v.png,,,,,,,,,,,,,,,,,,,,,,,,,
,,,,,,00085,2023-10-28_17h31.37.893,vbt_B1_day1,2022.2.4,Win32,60.2373351,,,,,,,,,,,,,,,,,,,0.0195,-0.179,1,0,0,0.3333,6,18,174,25,1,z,images/br_z.png,images/cb_z.png,,,,,,,,,,,,,,,,,,,,,,,,,
,,,,,,00085,2023-10-28_17h31.37.893,vbt_B1_day1,2022.2.4,Win32,60.2373351,,,,,,,,,,,,,,,,,,,0.0195,-0.179,1,0,0,0.3144,6,19,175,0,1,a,images/br_a.png,images/cb_a.png,,,,,,,,,,,,,,,,,,,,,,,,,
,,,,,,00085,2023-10-28_17h31.37.893,vbt_B1_day1,2022.2.4,Win32,60.2373351,,,,,,,,,,,,,,,,,,,0.0195,-0.179,1,0,0,0.2494,6,20,176,7,1,h,images/br_h.png,images/cb_h.png,,,,,,,,,,,,,,,,,,,,,,,,,
,,,,,,00085,2023-10-28_17h31.37.893,vbt_B1_day1,2022.2.4,Win32,60.2373351,,,,,,,,,,,,,,,,,,,0.0195,-0.179,1,0,0,0.0704,6,21,177,5,1,f,images/br_f.png,images/cb_f.png,,,,,,,,,,,,,,,,,,,,,,,,,
,,,,,,00085,2023-10-28_17h31.37.893,vbt_B1_day1,2022.2.4,Win32,60.2373351,,,,,,,,,,,,,,,,,,,0.0195,-0.179,1,0,0,1.3999,6,22,178,16,1,q,images/br_q.png,images/cb_q.png,,,,,,,,,,,,,,,,,,,,,,,,,
,,,,,,00085,2023-10-28_17h31.37.893,vbt_B1_day1,2022.2.4,Win32,60.2373351,,,,,,,,,,,,,,,,,,,0.0195,-0.179,1,0,0,0.0496,6,23,179,8,1,i,images/br_i.png,images/cb_i.png,,,,,,,,,,,,,,,,,,,,,,,,,
,,,,,,00085,2023-10-28_17h31.37.893,vbt_B1_day1,2022.2.4,Win32,60.2373351,,,,,,,,,,,,,,,,,,,0.0195,-0.179,1,0,0,1.7334,6,24,180,19,1,t,images/br_t.png,images/cb_t.png,,,,,,,,,,,,,,,,,,,,,,,,,
,,,,,,00085,2023-10-28_17h31.37.893,vbt_B1_day1,2022.2.4,Win32,60.2373351,,,,,,,,,,,,,,,,,,,0.0195,-0.179,1,0,0,0.4503,6,25,181,22,1,w,images/br_w.png,images/cb_w.png,,,,,,,,,,,,,,,,,,,,,,,,,
,,,,,,00085,2023-10-28_17h31.37.893,vbt_B1_day1,2022.2.4,Win32,60.2373351,,,,,,,,,,,,,,,,,,,,,,,,,,,,,,,,,0.0195,-0.179,1,0,0,,,,,,,,,,,,,,,,,,,,
,,,,,,00085,2023-10-28_17h31.37.893,vbt_B1_day1,2022.2.4,Win32,60.2373351,,,,,,,,,,,,,,,,,,,,,,,,,,,,,,,,,,,,,,0.0195,-0.179,1,0,0,,,,,,,,,,,,,,,
,,,,,,00085,2023-10-28_17h31.37.893,vbt_B1_day1,2022.2.4,Win32,60.2373351,,,,,,,,,,,,,,,,,,,,,,,,,,,,,,,,,,,,,,,,,,,0.202,-0.254,1,0,0,m...g,m...g,0,0,0,11,1,mening,images/br_mening.png,images/cb_mening.png
,,,,,,00085,2023-10-28_17h31.37.893,vbt_B1_day1,2022.2.4,Win32,60.2373351,,,,,,,,,,,,,,,,,,,,,,,,,,,,,,,,,,,,,,,,,,,0.246,-0.305,1,0,0,ge....,ge....,0,1,1,29,1,genond,images/br_genond.png,images/cb_genond.png
,,,,,,00085,2023-10-28_17h31.37.893,vbt_B1_day1,2022.2.4,Win32,60.2373351,,,,,,,,,,,,,,,,,,,,,,,,,,,,,,,,,,,,,,,,,,,0.259,-0.3045,1,0,0,voorr...,voorr...,0,2,2,39,1,voorreur,images/br_voorreur.png,images/cb_voorreur.png
,,,,,,00085,2023-10-28_17h31.37.893,vbt_B1_day1,2022.2.4,Win32,60.2373351,,,,,,,,,,,,,,,,,,,,,,,,,,,,,,,,,,,,,,,,,,,0.259,-0.3045,1,0,0,die.,die.,0,3,3,40,1,dief,images/br_dief.png,images/cb_dief.png
,,,,,,00085,2023-10-28_17h31.37.893,vbt_B1_day1,2022.2.4,Win32,60.2373351,,,,,,,,,,,,,,,,,,,,,,,,,,,,,,,,,,,,,,,,,,,-0.0115,-0.2045,1,0,0,ijf,ijf,0,4,4,54,1,vijftig,images/br_vijftig.png,images/cb_vijftig.png
,,,,,,00085,2023-10-28_17h31.37.893,vbt_B1_day1,2022.2.4,Win32,60.2373351,,,,,,,,,,,,,,,,,,,,,,,,,,,,,,,,,,,,,,,,,,,0.0715,-0.321,1,0,0,bleek,bleek,0,5,5,6,1,bleek,images/br_bleek.png,images/cb_bleek.png
,,,,,,00085,2023-10-28_17h31.37.893,vbt_B1_day1,2022.2.4,Win32,60.2373351,,,,,,,,,,,,,,,,,,,,,,,,,,,,,,,,,,,,,,,,,,,0.1035,-0.3445,1,0,0,bibr.,bibr.,0,6,6,28,1,bebrip,images/br_bebrip.png,images/cb_bebrip.png
,,,,,,00085,2023-10-28_17h31.37.893,vbt_B1_day1,2022.2.4,Win32,60.2373351,,,,,,,,,,,,,,,,,,,,,,,,,,,,,,,,,,,,,,,,,,,0.149,-0.355,1,0,0,toez...,toez...,0,7,7,56,1,toezicht,images/br_toezicht.png,images/cb_toezicht.png
,,,,,,00085,2023-10-28_17h31.37.893,vbt_B1_day1,2022.2.4,Win32,60.2373351,,,,,,,,,,,,,,,,,,,,,,,,,,,,,,,,,,,,,,,,,,,0.054,-0.1965,1,0,0,twijf,twijf,0,8,8,13,1,twijfel,images/br_twijfel.png,images/cb_twijfel.png
,,,,,,00085,2023-10-28_17h31.37.893,vbt_B1_day1,2022.2.4,Win32,60.2373351,,,,,,,,,,,,,,,,,,,,,,,,,,,,,,,,,,,,,,,,,,,0.0655,-0.2875,1,0,0,wli...,wli...,0,9,9,12,1,klimmen,images/br_klimmen.png,images/cb_klimmen.png
,,,,,,00085,2023-10-28_17h31.37.893,vbt_B1_day1,2022.2.4,Win32,60.2373351,,,,,,,,,,,,,,,,,,,,,,,,,,,,,,,,,,,,,,,,,,,0.079,-0.3405,1,0,0,stuik,stuik,0,10,10,35,1,stuikem,images/br_stuikem.png,images/cb_stuikem.png
,,,,,,00085,2023-10-28_17h31.37.893,vbt_B1_day1,2022.2.4,Win32,60.2373351,,,,,,,,,,,,,,,,,,,,,,,,,,,,,,,,,,,,,,,,,,,0.079,-0.3405,1,0,0,liegen,liegen,0,11,11,50,1,liegen,images/br_liegen.png,images/cb_liegen.png
,,,,,,00085,2023-10-28_17h31.37.893,vbt_B1_day1,2022.2.4,Win32,60.2373351,,,,,,,,,,,,,,,,,,,,,,,,,,,,,,,,,,,,,,,,,,,0.079,-0.3405,1,0,0,teke...,teke...,0,12,12,55,1,tekenen,images/br_tekenen.png,images/cb_tekenen.png
,,,,,,00085,2023-10-28_17h31.37.893,vbt_B1_day1,2022.2.4,Win32,60.2373351,,,,,,,,,,,,,,,,,,,,,,,,,,,,,,,,,,,,,,,,,,,0.079,-0.3405,1,0,0,jaar,jaar,0,13,13,2,1,jaar,images/br_jaar.png,images/cb_jaar.png
,,,,,,00085,2023-10-28_17h31.37.893,vbt_B1_day1,2022.2.4,Win32,60.2373351,,,,,,,,,,,,,,,,,,,,,,,,,,,,,,,,,,,,,,,,,,,0.062,-0.3715,1,0,0,vizier,vizier,0,14,14,49,1,vizier,images/br_vizier.png,images/cb_vizier.png
,,,,,,00085,2023-10-28_17h31.37.893,vbt_B1_day1,2022.2.4,Win32,60.2373351,,,,,,,,,,,,,,,,,,,,,,,,,,,,,,,,,,,,,,,,,,,0.062,-0.3715,1,0,0,tars,tars,0,15,15,20,1,tars,images/br_tars.png,images/cb_tars.png
,,,,,,00085,2023-10-28_17h31.37.893,vbt_B1_day1,2022.2.4,Win32,60.2373351,,,,,,,,,,,,,,,,,,,,,,,,,,,,,,,,,,,,,,,,,,,0.062,-0.3715,1,0,0,stam...,stam...,0,16,16,31,1,stamen,images/br_stamen.png,images/cb_stamen.png
,,,,,,00085,2023-10-28_17h31.37.893,vbt_B1_day1,2022.2.4,Win32,60.2373351,,,,,,,,,,,,,,,,,,,,,,,,,,,,,,,,,,,,,,,,,,,0.062,-0.3715,1,0,0,mr..,mr..,0,17,17,5,1,maken,images/br_maken.png,images/cb_maken.png
,,,,,,00085,2023-10-28_17h31.37.893,vbt_B1_day1,2022.2.4,Win32,60.2373351,,,,,,,,,,,,,,,,,,,,,,,,,,,,,,,,,,,,,,,,,,,0.062,-0.3715,1,0,0,m.ie.,m.ie.,0,18,18,10,1,muziek,images/br_muziek.png,images/cb_muziek.png
,,,,,,00085,2023-10-28_17h31.37.893,vbt_B1_day1,2022.2.4,Win32,60.2373351,,,,,,,,,,,,,,,,,,,,,,,,,,,,,,,,,,,,,,,,,,,0.062,-0.3715,1,0,0,opslaan,opslaan,0,19,19,53,1,opslaan,images/br_opslaan.png,images/cb_opslaan.png
,,,,,,00085,2023-10-28_17h31.37.893,vbt_B1_day1,2022.2.4,Win32,60.2373351,,,,,,,,,,,,,,,,,,,,,,,,,,,,,,,,,,,,,,,,,,,0.062,-0.3715,1,0,0,flulle.,flulle.,0,20,20,33,1,flullen,images/br_flullen.png,images/cb_flullen.png
,,,,,,00085,2023-10-28_17h31.37.893,vbt_B1_day1,2022.2.4,Win32,60.2373351,,,,,,,,,,,,,,,,,,,,,,,,,,,,,,,,,,,,,,,,,,,0.062,-0.3715,1,0,0,hemel,hemel,0,21,21,45,1,hemel,images/br_hemel.png,images/cb_hemel.png
,,,,,,00085,2023-10-28_17h31.37.893,vbt_B1_day1,2022.2.4,Win32,60.2373351,,,,,,,,,,,,,,,,,,,,,,,,,,,,,,,,,,,,,,,,,,,0.062,-0.3715,1,0,0,slak,slak,0,22,22,0,1,slak,images/br_slak.png,images/cb_slak.png
,,,,,,00085,2023-10-28_17h31.37.893,vbt_B1_day1,2022.2.4,Win32,60.2373351,,,,,,,,,,,,,,,,,,,,,,,,,,,,,,,,,,,,,,,,,,,0.062,-0.3715,1,0,0,liefbe,liefbe,0,23,23,51,1,liefde,images/br_liefde.png,images/cb_liefde.png
,,,,,,00085,2023-10-28_17h31.37.893,vbt_B1_day1,2022.2.4,Win32,60.2373351,,,,,,,,,,,,,,,,,,,,,,,,,,,,,,,,,,,,,,,,,,,0.062,-0.3715,1,0,0,schiel..,schiel..,0,24,24,38,1,schielen,images/br_schielen.png,images/cb_schielen.png
,,,,,,00085,2023-10-28_17h31.37.893,vbt_B1_day1,2022.2.4,Win32,60.2373351,,,,,,,,,,,,,,,,,,,,,,,,,,,,,,,,,,,,,,,,,,,-0.021,-0.2025,1,0,0,lau,lau,0,25,25,7,1,klauw,images/br_klauw.png,images/cb_klauw.png
,,,,,,00085,2023-10-28_17h31.37.893,vbt_B1_day1,2022.2.4,Win32,60.2373351,,,,,,,,,,,,,,,,,,,,,,,,,,,,,,,,,,,,,,,,,,,0.102,-0.297,1,0,0,spa...,spa...,0,26,26,37,1,spanzing,images/br_spanzing.png,images/cb_spanzing.png
,,,,,,00085,2023-10-28_17h31.37.893,vbt_B1_day1,2022.2.4,Win32,60.2373351,,,,,,,,,,,,,,,,,,,,,,,,,,,,,,,,,,,,,,,,,,,0.102,-0.297,1,0,0,zaal,zaal,0,27,27,1,1,zaal,images/br_zaal.png,images/cb_zaal.png
,,,,,,00085,2023-10-28_17h31.37.893,vbt_B1_day1,2022.2.4,Win32,60.2373351,,,,,,,,,,,,,,,,,,,,,,,,,,,,,,,,,,,,,,,,,,,0.102,-0.297,1,0,0,reebje,reebje,0,28,28,30,1,reedje,images/br_reedje.png,images/cb_reedje.png
,,,,,,00085,2023-10-28_17h31.37.893,vbt_B1_day1,2022.2.4,Win32,60.2373351,,,,,,,,,,,,,,,,,,,,,,,,,,,,,,,,,,,,,,,,,,,0.102,-0.297,1,0,0,k...,k...,0,29,29,22,1,knoe,images/br_knoe.png,images/cb_knoe.png
,,,,,,00085,2023-10-28_17h31.37.893,vbt_B1_day1,2022.2.4,Win32,60.2373351,,,,,,,,,,,,,,,,,,,,,,,,,,,,,,,,,,,,,,,,,,,0.102,-0.297,1,0,0,uetb...,uetb...,0,30,30,18,1,uitdelen,images/br_uitdelen.png,images/cb_uitdelen.png
,,,,,,00085,2023-10-28_17h31.37.893,vbt_B1_day1,2022.2.4,Win32,60.2373351,,,,,,,,,,,,,,,,,,,,,,,,,,,,,,,,,,,,,,,,,,,0.102,-0.297,1,0,0,loobs,loobs,0,31,31,47,1,loods,images/br_loods.png,images/cb_loods.png
,,,,,,00085,2023-10-28_17h31.37.893,vbt_B1_day1,2022.2.4,Win32,60.2373351,,,,,,,,,,,,,,,,,,,,,,,,,,,,,,,,,,,,,,,,,,,0.102,-0.297,1,0,0,dubb...,dubb...,0,32,32,9,1,dubbel,images/br_dubbel.png,images/cb_dubbel.png
,,,,,,00085,2023-10-28_17h31.37.893,vbt_B1_day1,2022.2.4,Win32,60.2373351,,,,,,,,,,,,,,,,,,,,,,,,,,,,,,,,,,,,,,,,,,,0.102,-0.297,1,0,0,waarv...,waarv...,0,33,33,14,1,waarvan,images/br_waarvan.png,images/cb_waarvan.png
,,,,,,00085,2023-10-28_17h31.37.893,vbt_B1_day1,2022.2.4,Win32,60.2373351,,,,,,,,,,,,,,,,,,,,,,,,,,,,,,,,,,,,,,,,,,,0.0035,-0.285,1,0,0,veav...,veav...,0,34,34,36,1,vervaden,images/br_vervaden.png,images/cb_vervaden.png
,,,,,,00085,2023-10-28_17h31.37.893,vbt_B1_day1,2022.2.4,Win32,60.2373351,,,,,,,,,,,,,,,,,,,,,,,,,,,,,,,,,,,,,,,,,,,0.0035,-0.285,1,0,0,lava,lava,0,35,35,43,1,lava,images/br_lava.png,images/cb_lava.png
,,,,,,00085,2023-10-28_17h31.37.893,vbt_B1_day1,2022.2.4,Win32,60.2373351,,,,,,,,,,,,,,,,,,,,,,,,,,,,,,,,,,,,,,,,,,,0.001,-0.2,1,0,0,lad,lad,0,36,36,3,1,mand,images/br_mand.png,images/cb_mand.png
,,,,,,00085,2023-10-28_17h31.37.893,vbt_B1_day1,2022.2.4,Win32,60.2373351,,,,,,,,,,,,,,,,,,,,,,,,,,,,,,,,,,,,,,,,,,,-0.116,-0.2875,1,0,0,daar....,daar....,0,37,37,16,1,daarheen,images/br_daarheen.png,images/cb_daarheen.png
,,,,,,00085,2023-10-28_17h31.37.893,vbt_B1_day1,2022.2.4,Win32,60.2373351,,,,,,,,,,,,,,,,,,,,,,,,,,,,,,,,,,,,,,,,,,,-0.1065,-0.3015,1,0,0,prort,prort,0,38,38,27,1,prort,images/br_prort.png,images/cb_prort.png
,,,,,,00085,2023-10-28_17h31.37.893,vbt_B1_day1,2022.2.4,Win32,60.2373351,,,,,,,,,,,,,,,,,,,,,,,,,,,,,,,,,,,,,,,,,,,-0.1065,-0.3015,1,0,0,reze.,reze.,0,39,39,24,1,rezer,images/br_rezer.png,images/cb_rezer.png
,,,,,,00085,2023-10-28_17h31.37.893,vbt_B1_day1,2022.2.4,Win32,60.2373351,,,,,,,,,,,,,,,,,,,,,,,,,,,,,,,,,,,,,,,,,,,-0.0015,-0.342,1,0,0,stuk,stuk,0,40,40,42,1,stuk,images/br_stuk.png,images/cb_stuk.png
,,,,,,00085,2023-10-28_17h31.37.893,vbt_B1_day1,2022.2.4,Win32,60.2373351,,,,,,,,,,,,,,,,,,,,,,,,,,,,,,,,,,,,,,,,,,,-0.0505,-0.374,1,0,0,zuipl..,zuipl..,0,41,41,52,1,zuiplap,images/br_zuiplap.png,images/cb_zuiplap.png
,,,,,,00085,2023-10-28_17h31.37.893,vbt_B1_day1,2022.2.4,Win32,60.2373351,,,,,,,,,,,,,,,,,,,,,,,,,,,,,,,,,,,,,,,,,,,-0.124,-0.3355,1,0,0,fictie,fictie,0,42,42,48,1,fictie,images/br_fictie.png,images/cb_fictie.png
,,,,,,00085,2023-10-28_17h31.37.893,vbt_B1_day1,2022.2.4,Win32,60.2373351,,,,,,,,,,,,,,,,,,,,,,,,,,,,,,,,,,,,,,,,,,,-0.124,-0.3355,1,0,0,voork...,voork...,0,43,43,58,1,voorkeur,images/br_voorkeur.png,images/cb_voorkeur.png
,,,,,,00085,2023-10-28_17h31.37.893,vbt_B1_day1,2022.2.4,Win32,60.2373351,,,,,,,,,,,,,,,,,,,,,,,,,,,,,,,,,,,,,,,,,,,-0.07,-0.365,1,0,0,atte...,atte...,0,44,44,17,1,attentie,images/br_attentie.png,images/cb_attentie.png
,,,,,,00085,2023-10-28_17h31.37.893,vbt_B1_day1,2022.2.4,Win32,60.2373351,,,,,,,,,,,,,,,,,,,,,,,,,,,,,,,,,,,,,,,,,,,-0.07,-0.365,1,0,0,lezen,lezen,0,45,45,46,1,lezen,images/br_lezen.png,images/cb_lezen.png
,,,,,,00085,2023-10-28_17h31.37.893,vbt_B1_day1,2022.2.4,Win32,60.2373351,,,,,,,,,,,,,,,,,,,,,,,,,,,,,,,,,,,,,,,,,,,-0.07,-0.365,1,0,0,brijk,brijk,0,46,46,25,1,brijk,images/br_brijk.png,images/cb_brijk.png
,,,,,,00085,2023-10-28_17h31.37.893,vbt_B1_day1,2022.2.4,Win32,60.2373351,,,,,,,,,,,,,,,,,,,,,,,,,,,,,,,,,,,,,,,,,,,-0.07,-0.365,1,0,0,meene...,meene...,0,47,47,57,1,meenemen,images/br_meenemen.png,images/cb_meenemen.png
,,,,,,00085,2023-10-28_17h31.37.893,vbt_B1_day1,2022.2.4,Win32,60.2373351,,,,,,,,,,,,,,,,,,,,,,,,,,,,,,,,,,,,,,,,,,,-0.07,-0.365,1,0,0,opplaan,opplaan,0,48,48,32,1,opplaan,images/br_opplaan.png,images/cb_opplaan.png
,,,,,,00085,2023-10-28_17h31.37.893,vbt_B1_day1,2022.2.4,Win32,60.2373351,,,,,,,,,,,,,,,,,,,,,,,,,,,,,,,,,,,,,,,,,,,-0.07,-0.365,1,0,0,valop,valop,0,49,49,26,1,valop,images/br_valop.png,images/cb_valop.png
,,,,,,00085,2023-10-28_17h31.37.893,vbt_B1_day1,2022.2.4,Win32,60.2373351,,,,,,,,,,,,,,,,,,,,,,,,,,,,,,,,,,,,,,,,,,,0.078,-0.259,1,0,0,schi..,schi..,0,50,50,4,1,schep,images/br_schep.png,images/cb_schep.png
,,,,,,00085,2023-10-28_17h31.37.893,vbt_B1_day1,2022.2.4,Win32,60.2373351,,,,,,,,,,,,,,,,,,,,,,,,,,,,,,,,,,,,,,,,,,,0.078,-0.259,1,0,0,locht,locht,0,51,51,34,1,lochten,images/br_lochten.png,images/cb_lochten.png
,,,,,,00085,2023-10-28_17h31.37.893,vbt_B1_day1,2022.2.4,Win32,60.2373351,,,,,,,,,,,,,,,,,,,,,,,,,,,,,,,,,,,,,,,,,,,0.012,-0.2965,1,0,0,sbhu...,sbhu...,0,52,52,19,1,schuilen,images/br_schuilen.png,images/cb_schuilen.png
,,,,,,00085,2023-10-28_17h31.37.893,vbt_B1_day1,2022.2.4,Win32,60.2373351,,,,,,,,,,,,,,,,,,,,,,,,,,,,,,,,,,,,,,,,,,,0.012,-0.2965,1,0,0,hoog,hoog,0,53,53,41,1,hoog,images/br_hoog.png,images/cb_hoog.png
,,,,,,00085,2023-10-28_17h31.37.893,vbt_B1_day1,2022.2.4,Win32,60.2373351,,,,,,,,,,,,,,,,,,,,,,,,,,,,,,,,,,,,,,,,,,,0.012,-0.2965,1,0,0,booi,booi,0,54,54,23,1,booi,images/br_booi.png,images/cb_booi.png
,,,,,,00085,2023-10-28_17h31.37.893,vbt_B1_day1,2022.2.4,Win32,60.2373351,,,,,,,,,,,,,,,,,,,,,,,,,,,,,,,,,,,,,,,,,,,0.012,-0.2965,1,0,0,hierv...,hierv...,0,55,55,15,1,hiervan,images/br_hiervan.png,images/cb_hiervan.png
,,,,,,00085,2023-10-28_17h31.37.893,vbt_B1_day1,2022.2.4,Win32,60.2373351,,,,,,,,,,,,,,,,,,,,,,,,,,,,,,,,,,,,,,,,,,,-0.0475,-0.33,1,0,0,opvatten,opvatten,0,56,56,59,1,opvatten,images/br_opvatten.png,images/cb_opvatten.png
,,,,,,00085,2023-10-28_17h31.37.893,vbt_B1_day1,2022.2.4,Win32,60.2373351,,,,,,,,,,,,,,,,,,,,,,,,,,,,,,,,,,,,,,,,,,,-0.0475,-0.33,1,0,0,drid,drid,0,57,57,21,1,dred,images/br_dred.png,images/cb_dred.png
,,,,,,00085,2023-10-28_17h31.37.893,vbt_B1_day1,2022.2.4,Win32,60.2373351,,,,,,,,,,,,,,,,,,,,,,,,,,,,,,,,,,,,,,,,,,,-0.038,-0.265,1,0,0,kanj..,kanj..,0,58,58,8,1,kanjer,images/br_kanjer.png,images/cb_kanjer.png
,,,,,,00085,2023-10-28_17h31.37.893,vbt_B1_day1,2022.2.4,Win32,60.2373351,,,,,,,,,,,,,,,,,,,,,,,,,,,,,,,,,,,,,,,,,,,-0.038,-0.265,1,0,0,wijze,wijze,0,59,59,44,1,wijze,images/br_wijze.png,images/cb_wijze.png
,,,,,,00085,2023-10-28_17h31.37.893,vbt_B1_day1,2022.2.4,Win32,60.2373351,,,,,,,,,,,,,,,,,,,,,,,,,,,,,,,,,,,,,,,,,,,,,,,,,,,,,,,,,
