welcome_mouse.x,welcome_mouse.y,welcome_mouse.leftButton,welcome_mouse.midButton,welcome_mouse.rightButton,welcome_mouse.time,"ID",date,expName,psychopyVersion,OS,frameRate,mouse_2.x,mouse_2.y,mouse_2.leftButton,mouse_2.midButton,mouse_2.rightButton,mouse_2.time,mouse_3.x,mouse_3.y,mouse_3.leftButton,mouse_3.midButton,mouse_3.rightButton,mouse_3.time,train_mouse.x,train_mouse.y,train_mouse.leftButton,train_mouse.midButton,train_mouse.rightButton,train_mouse.time,braille_mouse.x,braille_mouse.y,braille_mouse.leftButton,braille_mouse.midButton,braille_mouse.rightButton,braille_mouse.time,trials.thisRepN,trials.thisTrialN,trials.thisN,trials.thisIndex,trials.ran,nlLet,brLet,cbLet,mouse.x,mouse.y,mouse.leftButton,mouse.midButton,mouse.rightButton,testInstr_mouse.x,testInstr_mouse.y,testInstr_mouse.leftButton,testInstr_mouse.midButton,testInstr_mouse.rightButton,test_mouse.x,test_mouse.y,test_mouse.leftButton,test_mouse.midButton,test_mouse.rightButton,test_response.text,testResp,test_loop.thisRepN,test_loop.thisTrialN,test_loop.thisN,test_loop.thisIndex,test_loop.ran,nlWrd,brWrd,cbWrd
-0.1840625,-0.258185764,1,0,0,21.4283,00108,2023-11-25_16h38.46.515,vbt_B1_day1,2022.2.4,MacIntel,60.0024001,,,,,,,,,,,,,,,,,,,,,,,,,,,,,,,,,,,,,,,,,,,,,,,,,,,,,,,,,
,,,,,,00108,2023-11-25_16h38.46.515,vbt_B1_day1,2022.2.4,MacIntel,60.0024001,-0.1840625,-0.258185764,1,0,0,16.7873,,,,,,,,,,,,,,,,,,,,,,,,,,,,,,,,,,,,,,,,,,,,,,,,,,,
,,,,,,00108,2023-11-25_16h38.46.515,vbt_B1_day1,2022.2.4,MacIntel,60.0024001,,,,,,,-0.1840625,-0.258185764,1,0,0,39.7737,,,,,,,,,,,,,,,,,,,,,,,,,,,,,,,,,,,,,,,,,,,,,
,,,,,,00108,2023-11-25_16h38.46.515,vbt_B1_day1,2022.2.4,MacIntel,60.0024001,,,,,,,,,,,,,-0.1840625,-0.258185764,1,0,0,27.1241,,,,,,,,,,,,,,,,,,,,,,,,,,,,,,,,,,,,,,,
,,,,,,00108,2023-11-25_16h38.46.515,vbt_B1_day1,2022.2.4,MacIntel,60.0024001,,,,,,,,,,,,,,,,,,,-0.1840625,-0.258185764,1,0,0,6.7532,0,0,0,6,1,g,images/br_g.png,images/cb_g.png,,,,,,,,,,,,,,,,,,,,,,,,,
,,,,,,00108,2023-11-25_16h38.46.515,vbt_B1_day1,2022.2.4,MacIntel,60.0024001,,,,,,,,,,,,,,,,,,,-0.1840625,-0.258185764,1,0,0,2.9876,0,1,1,11,1,l,images/br_l.png,images/cb_l.png,,,,,,,,,,,,,,,,,,,,,,,,,
,,,,,,00108,2023-11-25_16h38.46.515,vbt_B1_day1,2022.2.4,MacIntel,60.0024001,,,,,,,,,,,,,,,,,,,-0.1840625,-0.258185764,1,0,0,3.25,0,2,2,15,1,p,images/br_p.png,images/cb_p.png,,,,,,,,,,,,,,,,,,,,,,,,,
,,,,,,00108,2023-11-25_16h38.46.515,vbt_B1_day1,2022.2.4,MacIntel,60.0024001,,,,,,,,,,,,,,,,,,,-0.1840625,-0.258185764,1,0,0,8.1819,0,3,3,18,1,s,images/br_s.png,images/cb_s.png,,,,,,,,,,,,,,,,,,,,,,,,,
,,,,,,00108,2023-11-25_16h38.46.515,vbt_B1_day1,2022.2.4,MacIntel,60.0024001,,,,,,,,,,,,,,,,,,,-0.1840625,-0.258185764,1,0,0,5.6837,0,4,4,16,1,q,images/br_q.png,images/cb_q.png,,,,,,,,,,,,,,,,,,,,,,,,,
,,,,,,00108,2023-11-25_16h38.46.515,vbt_B1_day1,2022.2.4,MacIntel,60.0024001,,,,,,,,,,,,,,,,,,,-0.1840625,-0.258185764,1,0,0,5.9834,0,5,5,12,1,m,images/br_m.png,images/cb_m.png,,,,,,,,,,,,,,,,,,,,,,,,,
,,,,,,00108,2023-11-25_16h38.46.515,vbt_B1_day1,2022.2.4,MacIntel,60.0024001,,,,,,,,,,,,,,,,,,,-0.1840625,-0.258185764,1,0,0,11.5198,0,6,6,10,1,k,images/br_k.png,images/cb_k.png,,,,,,,,,,,,,,,,,,,,,,,,,
,,,,,,00108,2023-11-25_16h38.46.515,vbt_B1_day1,2022.2.4,MacIntel,60.0024001,,,,,,,,,,,,,,,,,,,-0.1840625,-0.258185764,1,0,0,2.9498,0,7,7,24,1,y,images/br_y.png,images/cb_y.png,,,,,,,,,,,,,,,,,,,,,,,,,
,,,,,,00108,2023-11-25_16h38.46.515,vbt_B1_day1,2022.2.4,MacIntel,60.0024001,,,,,,,,,,,,,,,,,,,-0.1840625,-0.258185764,1,0,0,5.9333,0,8,8,20,1,u,images/br_u.png,images/cb_u.png,,,,,,,,,,,,,,,,,,,,,,,,,
,,,,,,00108,2023-11-25_16h38.46.515,vbt_B1_day1,2022.2.4,MacIntel,60.0024001,,,,,,,,,,,,,,,,,,,-0.1840625,-0.258185764,1,0,0,7.3673,0,9,9,19,1,t,images/br_t.png,images/cb_t.png,,,,,,,,,,,,,,,,,,,,,,,,,
,,,,,,00108,2023-11-25_16h38.46.515,vbt_B1_day1,2022.2.4,MacIntel,60.0024001,,,,,,,,,,,,,,,,,,,-0.1840625,-0.258185764,1,0,0,8.6323,0,10,10,21,1,v,images/br_v.png,images/cb_v.png,,,,,,,,,,,,,,,,,,,,,,,,,
,,,,,,00108,2023-11-25_16h38.46.515,vbt_B1_day1,2022.2.4,MacIntel,60.0024001,,,,,,,,,,,,,,,,,,,-0.1840625,-0.258185764,1,0,0,4.0171,0,11,11,14,1,o,images/br_o.png,images/cb_o.png,,,,,,,,,,,,,,,,,,,,,,,,,
,,,,,,00108,2023-11-25_16h38.46.515,vbt_B1_day1,2022.2.4,MacIntel,60.0024001,,,,,,,,,,,,,,,,,,,-0.1840625,-0.258185764,1,0,0,3.6348,0,12,12,25,1,z,images/br_z.png,images/cb_z.png,,,,,,,,,,,,,,,,,,,,,,,,,
,,,,,,00108,2023-11-25_16h38.46.515,vbt_B1_day1,2022.2.4,MacIntel,60.0024001,,,,,,,,,,,,,,,,,,,-0.1840625,-0.258185764,1,0,0,4.7887,0,13,13,3,1,d,images/br_d.png,images/cb_d.png,,,,,,,,,,,,,,,,,,,,,,,,,
,,,,,,00108,2023-11-25_16h38.46.515,vbt_B1_day1,2022.2.4,MacIntel,60.0024001,,,,,,,,,,,,,,,,,,,-0.1840625,-0.258185764,1,0,0,2.2652,0,14,14,5,1,f,images/br_f.png,images/cb_f.png,,,,,,,,,,,,,,,,,,,,,,,,,
,,,,,,00108,2023-11-25_16h38.46.515,vbt_B1_day1,2022.2.4,MacIntel,60.0024001,,,,,,,,,,,,,,,,,,,-0.1840625,-0.258185764,1,0,0,2.3882,0,15,15,0,1,a,images/br_a.png,images/cb_a.png,,,,,,,,,,,,,,,,,,,,,,,,,
,,,,,,00108,2023-11-25_16h38.46.515,vbt_B1_day1,2022.2.4,MacIntel,60.0024001,,,,,,,,,,,,,,,,,,,-0.1840625,-0.258185764,1,0,0,3.7672,0,16,16,22,1,w,images/br_w.png,images/cb_w.png,,,,,,,,,,,,,,,,,,,,,,,,,
,,,,,,00108,2023-11-25_16h38.46.515,vbt_B1_day1,2022.2.4,MacIntel,60.0024001,,,,,,,,,,,,,,,,,,,-0.1840625,-0.258185764,1,0,0,1.2998,0,17,17,17,1,r,images/br_r.png,images/cb_r.png,,,,,,,,,,,,,,,,,,,,,,,,,
,,,,,,00108,2023-11-25_16h38.46.515,vbt_B1_day1,2022.2.4,MacIntel,60.0024001,,,,,,,,,,,,,,,,,,,-0.1840625,-0.258185764,1,0,0,3.4499,0,18,18,2,1,c,images/br_c.png,images/cb_c.png,,,,,,,,,,,,,,,,,,,,,,,,,
,,,,,,00108,2023-11-25_16h38.46.515,vbt_B1_day1,2022.2.4,MacIntel,60.0024001,,,,,,,,,,,,,,,,,,,-0.1840625,-0.258185764,1,0,0,0.7148,0,19,19,8,1,i,images/br_i.png,images/cb_i.png,,,,,,,,,,,,,,,,,,,,,,,,,
,,,,,,00108,2023-11-25_16h38.46.515,vbt_B1_day1,2022.2.4,MacIntel,60.0024001,,,,,,,,,,,,,,,,,,,-0.1840625,-0.258185764,1,0,0,2.7841,0,20,20,13,1,n,images/br_n.png,images/cb_n.png,,,,,,,,,,,,,,,,,,,,,,,,,
,,,,,,00108,2023-11-25_16h38.46.515,vbt_B1_day1,2022.2.4,MacIntel,60.0024001,,,,,,,,,,,,,,,,,,,-0.1840625,-0.258185764,1,0,0,8.9849,0,21,21,4,1,e,images/br_e.png,images/cb_e.png,,,,,,,,,,,,,,,,,,,,,,,,,
,,,,,,00108,2023-11-25_16h38.46.515,vbt_B1_day1,2022.2.4,MacIntel,60.0024001,,,,,,,,,,,,,,,,,,,-0.1840625,-0.258185764,1,0,0,3.5675,0,22,22,23,1,x,images/br_x.png,images/cb_x.png,,,,,,,,,,,,,,,,,,,,,,,,,
,,,,,,00108,2023-11-25_16h38.46.515,vbt_B1_day1,2022.2.4,MacIntel,60.0024001,,,,,,,,,,,,,,,,,,,-0.1840625,-0.258185764,1,0,0,3.1372,0,23,23,7,1,h,images/br_h.png,images/cb_h.png,,,,,,,,,,,,,,,,,,,,,,,,,
,,,,,,00108,2023-11-25_16h38.46.515,vbt_B1_day1,2022.2.4,MacIntel,60.0024001,,,,,,,,,,,,,,,,,,,-0.1840625,-0.258185764,1,0,0,3.384,0,24,24,1,1,b,images/br_b.png,images/cb_b.png,,,,,,,,,,,,,,,,,,,,,,,,,
,,,,,,00108,2023-11-25_16h38.46.515,vbt_B1_day1,2022.2.4,MacIntel,60.0024001,,,,,,,,,,,,,,,,,,,-0.148038194,-0.207712674,1,0,0,3.6325,0,25,25,9,1,j,images/br_j.png,images/cb_j.png,,,,,,,,,,,,,,,,,,,,,,,,,
,,,,,,00108,2023-11-25_16h38.46.515,vbt_B1_day1,2022.2.4,MacIntel,60.0024001,,,,,,,,,,,,,,,,,,,-0.148038194,-0.207712674,1,0,0,5.8867,1,0,26,8,1,i,images/br_i.png,images/cb_i.png,,,,,,,,,,,,,,,,,,,,,,,,,
,,,,,,00108,2023-11-25_16h38.46.515,vbt_B1_day1,2022.2.4,MacIntel,60.0024001,,,,,,,,,,,,,,,,,,,-0.148038194,-0.207712674,1,0,0,1.5849,1,1,27,24,1,y,images/br_y.png,images/cb_y.png,,,,,,,,,,,,,,,,,,,,,,,,,
,,,,,,00108,2023-11-25_16h38.46.515,vbt_B1_day1,2022.2.4,MacIntel,60.0024001,,,,,,,,,,,,,,,,,,,-0.148038194,-0.207712674,1,0,0,15.853,1,2,28,1,1,b,images/br_b.png,images/cb_b.png,,,,,,,,,,,,,,,,,,,,,,,,,
,,,,,,00108,2023-11-25_16h38.46.515,vbt_B1_day1,2022.2.4,MacIntel,60.0024001,,,,,,,,,,,,,,,,,,,-0.148038194,-0.207712674,1,0,0,17.2025,1,3,29,3,1,d,images/br_d.png,images/cb_d.png,,,,,,,,,,,,,,,,,,,,,,,,,
,,,,,,00108,2023-11-25_16h38.46.515,vbt_B1_day1,2022.2.4,MacIntel,60.0024001,,,,,,,,,,,,,,,,,,,-0.148038194,-0.207712674,1,0,0,1.218,1,4,30,11,1,l,images/br_l.png,images/cb_l.png,,,,,,,,,,,,,,,,,,,,,,,,,
,,,,,,00108,2023-11-25_16h38.46.515,vbt_B1_day1,2022.2.4,MacIntel,60.0024001,,,,,,,,,,,,,,,,,,,-0.148038194,-0.207712674,1,0,0,11.8356,1,5,31,22,1,w,images/br_w.png,images/cb_w.png,,,,,,,,,,,,,,,,,,,,,,,,,
,,,,,,00108,2023-11-25_16h38.46.515,vbt_B1_day1,2022.2.4,MacIntel,60.0024001,,,,,,,,,,,,,,,,,,,-0.148038194,-0.207712674,1,0,0,5.2007,1,6,32,13,1,n,images/br_n.png,images/cb_n.png,,,,,,,,,,,,,,,,,,,,,,,,,
,,,,,,00108,2023-11-25_16h38.46.515,vbt_B1_day1,2022.2.4,MacIntel,60.0024001,,,,,,,,,,,,,,,,,,,-0.148038194,-0.207712674,1,0,0,5.8207,1,7,33,17,1,r,images/br_r.png,images/cb_r.png,,,,,,,,,,,,,,,,,,,,,,,,,
,,,,,,00108,2023-11-25_16h38.46.515,vbt_B1_day1,2022.2.4,MacIntel,60.0024001,,,,,,,,,,,,,,,,,,,-0.148038194,-0.207712674,1,0,0,13.8215,1,8,34,2,1,c,images/br_c.png,images/cb_c.png,,,,,,,,,,,,,,,,,,,,,,,,,
,,,,,,00108,2023-11-25_16h38.46.515,vbt_B1_day1,2022.2.4,MacIntel,60.0024001,,,,,,,,,,,,,,,,,,,-0.148038194,-0.207712674,1,0,0,10.8897,1,9,35,23,1,x,images/br_x.png,images/cb_x.png,,,,,,,,,,,,,,,,,,,,,,,,,
,,,,,,00108,2023-11-25_16h38.46.515,vbt_B1_day1,2022.2.4,MacIntel,60.0024001,,,,,,,,,,,,,,,,,,,-0.148038194,-0.207712674,1,0,0,52.9982,1,10,36,10,1,k,images/br_k.png,images/cb_k.png,,,,,,,,,,,,,,,,,,,,,,,,,
,,,,,,00108,2023-11-25_16h38.46.515,vbt_B1_day1,2022.2.4,MacIntel,60.0024001,,,,,,,,,,,,,,,,,,,-0.148038194,-0.207712674,1,0,0,3.3996,1,11,37,16,1,q,images/br_q.png,images/cb_q.png,,,,,,,,,,,,,,,,,,,,,,,,,
,,,,,,00108,2023-11-25_16h38.46.515,vbt_B1_day1,2022.2.4,MacIntel,60.0024001,,,,,,,,,,,,,,,,,,,-0.148038194,-0.207712674,1,0,0,10.2232,1,12,38,7,1,h,images/br_h.png,images/cb_h.png,,,,,,,,,,,,,,,,,,,,,,,,,
,,,,,,00108,2023-11-25_16h38.46.515,vbt_B1_day1,2022.2.4,MacIntel,60.0024001,,,,,,,,,,,,,,,,,,,-0.148038194,-0.207712674,1,0,0,5.3512,1,13,39,15,1,p,images/br_p.png,images/cb_p.png,,,,,,,,,,,,,,,,,,,,,,,,,
,,,,,,00108,2023-11-25_16h38.46.515,vbt_B1_day1,2022.2.4,MacIntel,60.0024001,,,,,,,,,,,,,,,,,,,-0.148038194,-0.207712674,1,0,0,12.4328,1,14,40,20,1,u,images/br_u.png,images/cb_u.png,,,,,,,,,,,,,,,,,,,,,,,,,
,,,,,,00108,2023-11-25_16h38.46.515,vbt_B1_day1,2022.2.4,MacIntel,60.0024001,,,,,,,,,,,,,,,,,,,-0.148038194,-0.207712674,1,0,0,4.7171,1,15,41,4,1,e,images/br_e.png,images/cb_e.png,,,,,,,,,,,,,,,,,,,,,,,,,
,,,,,,00108,2023-11-25_16h38.46.515,vbt_B1_day1,2022.2.4,MacIntel,60.0024001,,,,,,,,,,,,,,,,,,,-0.148038194,-0.207712674,1,0,0,4.533,1,16,42,5,1,f,images/br_f.png,images/cb_f.png,,,,,,,,,,,,,,,,,,,,,,,,,
,,,,,,00108,2023-11-25_16h38.46.515,vbt_B1_day1,2022.2.4,MacIntel,60.0024001,,,,,,,,,,,,,,,,,,,-0.148038194,-0.207712674,1,0,0,13.0858,1,17,43,25,1,z,images/br_z.png,images/cb_z.png,,,,,,,,,,,,,,,,,,,,,,,,,
,,,,,,00108,2023-11-25_16h38.46.515,vbt_B1_day1,2022.2.4,MacIntel,60.0024001,,,,,,,,,,,,,,,,,,,-0.148038194,-0.207712674,1,0,0,81.7169,1,18,44,21,1,v,images/br_v.png,images/cb_v.png,,,,,,,,,,,,,,,,,,,,,,,,,
,,,,,,00108,2023-11-25_16h38.46.515,vbt_B1_day1,2022.2.4,MacIntel,60.0024001,,,,,,,,,,,,,,,,,,,-0.148038194,-0.207712674,1,0,0,2.4325,1,19,45,14,1,o,images/br_o.png,images/cb_o.png,,,,,,,,,,,,,,,,,,,,,,,,,
,,,,,,00108,2023-11-25_16h38.46.515,vbt_B1_day1,2022.2.4,MacIntel,60.0024001,,,,,,,,,,,,,,,,,,,-0.148038194,-0.207712674,1,0,0,3.7359,1,20,46,19,1,t,images/br_t.png,images/cb_t.png,,,,,,,,,,,,,,,,,,,,,,,,,
,,,,,,00108,2023-11-25_16h38.46.515,vbt_B1_day1,2022.2.4,MacIntel,60.0024001,,,,,,,,,,,,,,,,,,,-0.159427083,-0.249748264,1,0,0,3.6847,1,21,47,9,1,j,images/br_j.png,images/cb_j.png,,,,,,,,,,,,,,,,,,,,,,,,,
,,,,,,00108,2023-11-25_16h38.46.515,vbt_B1_day1,2022.2.4,MacIntel,60.0024001,,,,,,,,,,,,,,,,,,,-0.159427083,-0.249748264,1,0,0,17.123,1,22,48,12,1,m,images/br_m.png,images/cb_m.png,,,,,,,,,,,,,,,,,,,,,,,,,
,,,,,,00108,2023-11-25_16h38.46.515,vbt_B1_day1,2022.2.4,MacIntel,60.0024001,,,,,,,,,,,,,,,,,,,-0.159427083,-0.249748264,1,0,0,1.7849,1,23,49,6,1,g,images/br_g.png,images/cb_g.png,,,,,,,,,,,,,,,,,,,,,,,,,
,,,,,,00108,2023-11-25_16h38.46.515,vbt_B1_day1,2022.2.4,MacIntel,60.0024001,,,,,,,,,,,,,,,,,,,-0.159427083,-0.249748264,1,0,0,6.6352,1,24,50,18,1,s,images/br_s.png,images/cb_s.png,,,,,,,,,,,,,,,,,,,,,,,,,
,,,,,,00108,2023-11-25_16h38.46.515,vbt_B1_day1,2022.2.4,MacIntel,60.0024001,,,,,,,,,,,,,,,,,,,-0.159427083,-0.249748264,1,0,0,7.2019,1,25,51,0,1,a,images/br_a.png,images/cb_a.png,,,,,,,,,,,,,,,,,,,,,,,,,
,,,,,,00108,2023-11-25_16h38.46.515,vbt_B1_day1,2022.2.4,MacIntel,60.0024001,,,,,,,,,,,,,,,,,,,-0.123823785,-0.23375434,1,0,0,30.4274,2,0,52,7,1,h,images/br_h.png,images/cb_h.png,,,,,,,,,,,,,,,,,,,,,,,,,
,,,,,,00108,2023-11-25_16h38.46.515,vbt_B1_day1,2022.2.4,MacIntel,60.0024001,,,,,,,,,,,,,,,,,,,-0.123823785,-0.23375434,1,0,0,16.8239,2,1,53,15,1,p,images/br_p.png,images/cb_p.png,,,,,,,,,,,,,,,,,,,,,,,,,
,,,,,,00108,2023-11-25_16h38.46.515,vbt_B1_day1,2022.2.4,MacIntel,60.0024001,,,,,,,,,,,,,,,,,,,-0.064171007,-0.211302083,1,0,0,18.7195,2,2,54,2,1,c,images/br_c.png,images/cb_c.png,,,,,,,,,,,,,,,,,,,,,,,,,
,,,,,,00108,2023-11-25_16h38.46.515,vbt_B1_day1,2022.2.4,MacIntel,60.0024001,,,,,,,,,,,,,,,,,,,-0.042261285,-0.195972222,1,0,0,13.6852,2,3,55,25,1,z,images/br_z.png,images/cb_z.png,,,,,,,,,,,,,,,,,,,,,,,,,
,,,,,,00108,2023-11-25_16h38.46.515,vbt_B1_day1,2022.2.4,MacIntel,60.0024001,,,,,,,,,,,,,,,,,,,-0.042261285,-0.195972222,1,0,0,4.4186,2,4,56,18,1,s,images/br_s.png,images/cb_s.png,,,,,,,,,,,,,,,,,,,,,,,,,
,,,,,,00108,2023-11-25_16h38.46.515,vbt_B1_day1,2022.2.4,MacIntel,60.0024001,,,,,,,,,,,,,,,,,,,-0.030750868,-0.162821181,1,0,0,19.9396,2,5,57,14,1,o,images/br_o.png,images/cb_o.png,,,,,,,,,,,,,,,,,,,,,,,,,
,,,,,,00108,2023-11-25_16h38.46.515,vbt_B1_day1,2022.2.4,MacIntel,60.0024001,,,,,,,,,,,,,,,,,,,-0.030750868,-0.162821181,1,0,0,18.4365,2,6,58,9,1,j,images/br_j.png,images/cb_j.png,,,,,,,,,,,,,,,,,,,,,,,,,
,,,,,,00108,2023-11-25_16h38.46.515,vbt_B1_day1,2022.2.4,MacIntel,60.0024001,,,,,,,,,,,,,,,,,,,-0.030750868,-0.162821181,1,0,0,10.6707,2,7,59,17,1,r,images/br_r.png,images/cb_r.png,,,,,,,,,,,,,,,,,,,,,,,,,
,,,,,,00108,2023-11-25_16h38.46.515,vbt_B1_day1,2022.2.4,MacIntel,60.0024001,,,,,,,,,,,,,,,,,,,-0.030750868,-0.162821181,1,0,0,9.1055,2,8,60,8,1,i,images/br_i.png,images/cb_i.png,,,,,,,,,,,,,,,,,,,,,,,,,
,,,,,,00108,2023-11-25_16h38.46.515,vbt_B1_day1,2022.2.4,MacIntel,60.0024001,,,,,,,,,,,,,,,,,,,-0.026684028,-0.167881944,1,0,0,63.4839,2,9,61,20,1,u,images/br_u.png,images/cb_u.png,,,,,,,,,,,,,,,,,,,,,,,,,
,,,,,,00108,2023-11-25_16h38.46.515,vbt_B1_day1,2022.2.4,MacIntel,60.0024001,,,,,,,,,,,,,,,,,,,0.005642361,-0.15094184,1,0,0,85.1904,2,10,62,5,1,f,images/br_f.png,images/cb_f.png,,,,,,,,,,,,,,,,,,,,,,,,,
,,,,,,00108,2023-11-25_16h38.46.515,vbt_B1_day1,2022.2.4,MacIntel,60.0024001,,,,,,,,,,,,,,,,,,,0.005642361,-0.15094184,1,0,0,2.9524,2,11,63,16,1,q,images/br_q.png,images/cb_q.png,,,,,,,,,,,,,,,,,,,,,,,,,
,,,,,,00108,2023-11-25_16h38.46.515,vbt_B1_day1,2022.2.4,MacIntel,60.0024001,,,,,,,,,,,,,,,,,,,0.005642361,-0.15094184,1,0,0,25.1542,2,12,64,13,1,n,images/br_n.png,images/cb_n.png,,,,,,,,,,,,,,,,,,,,,,,,,
,,,,,,00108,2023-11-25_16h38.46.515,vbt_B1_day1,2022.2.4,MacIntel,60.0024001,,,,,,,,,,,,,,,,,,,0.005642361,-0.15094184,1,0,0,17.0862,2,13,65,12,1,m,images/br_m.png,images/cb_m.png,,,,,,,,,,,,,,,,,,,,,,,,,
,,,,,,00108,2023-11-25_16h38.46.515,vbt_B1_day1,2022.2.4,MacIntel,60.0024001,,,,,,,,,,,,,,,,,,,0.005642361,-0.15094184,1,0,0,7.4675,2,14,66,22,1,w,images/br_w.png,images/cb_w.png,,,,,,,,,,,,,,,,,,,,,,,,,
,,,,,,00108,2023-11-25_16h38.46.515,vbt_B1_day1,2022.2.4,MacIntel,60.0024001,,,,,,,,,,,,,,,,,,,0.005642361,-0.15094184,1,0,0,7.0857,2,15,67,6,1,g,images/br_g.png,images/cb_g.png,,,,,,,,,,,,,,,,,,,,,,,,,
,,,,,,00108,2023-11-25_16h38.46.515,vbt_B1_day1,2022.2.4,MacIntel,60.0024001,,,,,,,,,,,,,,,,,,,0.005642361,-0.15094184,1,0,0,0.7164,2,16,68,10,1,k,images/br_k.png,images/cb_k.png,,,,,,,,,,,,,,,,,,,,,,,,,
,,,,,,00108,2023-11-25_16h38.46.515,vbt_B1_day1,2022.2.4,MacIntel,60.0024001,,,,,,,,,,,,,,,,,,,0.005642361,-0.15094184,1,0,0,1.5324,2,17,69,11,1,l,images/br_l.png,images/cb_l.png,,,,,,,,,,,,,,,,,,,,,,,,,
,,,,,,00108,2023-11-25_16h38.46.515,vbt_B1_day1,2022.2.4,MacIntel,60.0024001,,,,,,,,,,,,,,,,,,,0.005642361,-0.15094184,1,0,0,10.1536,2,18,70,3,1,d,images/br_d.png,images/cb_d.png,,,,,,,,,,,,,,,,,,,,,,,,,
,,,,,,00108,2023-11-25_16h38.46.515,vbt_B1_day1,2022.2.4,MacIntel,60.0024001,,,,,,,,,,,,,,,,,,,0.005642361,-0.15094184,1,0,0,20.4045,2,19,71,21,1,v,images/br_v.png,images/cb_v.png,,,,,,,,,,,,,,,,,,,,,,,,,
,,,,,,00108,2023-11-25_16h38.46.515,vbt_B1_day1,2022.2.4,MacIntel,60.0024001,,,,,,,,,,,,,,,,,,,0.005642361,-0.15094184,1,0,0,54.9817,2,20,72,1,1,b,images/br_b.png,images/cb_b.png,,,,,,,,,,,,,,,,,,,,,,,,,
,,,,,,00108,2023-11-25_16h38.46.515,vbt_B1_day1,2022.2.4,MacIntel,60.0024001,,,,,,,,,,,,,,,,,,,0.005642361,-0.15094184,1,0,0,0.4661,2,21,73,0,1,a,images/br_a.png,images/cb_a.png,,,,,,,,,,,,,,,,,,,,,,,,,
,,,,,,00108,2023-11-25_16h38.46.515,vbt_B1_day1,2022.2.4,MacIntel,60.0024001,,,,,,,,,,,,,,,,,,,0.005642361,-0.15094184,1,0,0,16.4559,2,22,74,4,1,e,images/br_e.png,images/cb_e.png,,,,,,,,,,,,,,,,,,,,,,,,,
,,,,,,00108,2023-11-25_16h38.46.515,vbt_B1_day1,2022.2.4,MacIntel,60.0024001,,,,,,,,,,,,,,,,,,,0.005642361,-0.15094184,1,0,0,13.6732,2,23,75,19,1,t,images/br_t.png,images/cb_t.png,,,,,,,,,,,,,,,,,,,,,,,,,
,,,,,,00108,2023-11-25_16h38.46.515,vbt_B1_day1,2022.2.4,MacIntel,60.0024001,,,,,,,,,,,,,,,,,,,0.005642361,-0.15094184,1,0,0,160.1379,2,24,76,24,1,y,images/br_y.png,images/cb_y.png,,,,,,,,,,,,,,,,,,,,,,,,,
,,,,,,00108,2023-11-25_16h38.46.515,vbt_B1_day1,2022.2.4,MacIntel,60.0024001,,,,,,,,,,,,,,,,,,,0.005642361,-0.15094184,1,0,0,9.9692,2,25,77,23,1,x,images/br_x.png,images/cb_x.png,,,,,,,,,,,,,,,,,,,,,,,,,
,,,,,,00108,2023-11-25_16h38.46.515,vbt_B1_day1,2022.2.4,MacIntel,60.0024001,,,,,,,,,,,,,,,,,,,0.005642361,-0.15094184,1,0,0,4.6519,3,0,78,0,1,a,images/br_a.png,images/cb_a.png,,,,,,,,,,,,,,,,,,,,,,,,,
,,,,,,00108,2023-11-25_16h38.46.515,vbt_B1_day1,2022.2.4,MacIntel,60.0024001,,,,,,,,,,,,,,,,,,,0.005642361,-0.15094184,1,0,0,26.6222,3,1,79,5,1,f,images/br_f.png,images/cb_f.png,,,,,,,,,,,,,,,,,,,,,,,,,
,,,,,,00108,2023-11-25_16h38.46.515,vbt_B1_day1,2022.2.4,MacIntel,60.0024001,,,,,,,,,,,,,,,,,,,0.005642361,-0.15094184,1,0,0,0.2982,3,2,80,23,1,x,images/br_x.png,images/cb_x.png,,,,,,,,,,,,,,,,,,,,,,,,,
,,,,,,00108,2023-11-25_16h38.46.515,vbt_B1_day1,2022.2.4,MacIntel,60.0024001,,,,,,,,,,,,,,,,,,,0.005642361,-0.15094184,1,0,0,53.2114,3,3,81,19,1,t,images/br_t.png,images/cb_t.png,,,,,,,,,,,,,,,,,,,,,,,,,
,,,,,,00108,2023-11-25_16h38.46.515,vbt_B1_day1,2022.2.4,MacIntel,60.0024001,,,,,,,,,,,,,,,,,,,0.005642361,-0.15094184,1,0,0,32.6617,3,4,82,8,1,i,images/br_i.png,images/cb_i.png,,,,,,,,,,,,,,,,,,,,,,,,,
,,,,,,00108,2023-11-25_16h38.46.515,vbt_B1_day1,2022.2.4,MacIntel,60.0024001,,,,,,,,,,,,,,,,,,,0.005642361,-0.15094184,1,0,0,1.6341,3,5,83,10,1,k,images/br_k.png,images/cb_k.png,,,,,,,,,,,,,,,,,,,,,,,,,
,,,,,,00108,2023-11-25_16h38.46.515,vbt_B1_day1,2022.2.4,MacIntel,60.0024001,,,,,,,,,,,,,,,,,,,0.005642361,-0.15094184,1,0,0,10.6361,3,6,84,4,1,e,images/br_e.png,images/cb_e.png,,,,,,,,,,,,,,,,,,,,,,,,,
,,,,,,00108,2023-11-25_16h38.46.515,vbt_B1_day1,2022.2.4,MacIntel,60.0024001,,,,,,,,,,,,,,,,,,,0.005642361,-0.15094184,1,0,0,0.9172,3,7,85,22,1,w,images/br_w.png,images/cb_w.png,,,,,,,,,,,,,,,,,,,,,,,,,
,,,,,,00108,2023-11-25_16h38.46.515,vbt_B1_day1,2022.2.4,MacIntel,60.0024001,,,,,,,,,,,,,,,,,,,0.036506076,-0.086206597,1,0,0,1.4165,3,8,86,7,1,h,images/br_h.png,images/cb_h.png,,,,,,,,,,,,,,,,,,,,,,,,,
,,,,,,00108,2023-11-25_16h38.46.515,vbt_B1_day1,2022.2.4,MacIntel,60.0024001,,,,,,,,,,,,,,,,,,,0.036506076,-0.086206597,1,0,0,0.0832,3,9,87,1,1,b,images/br_b.png,images/cb_b.png,,,,,,,,,,,,,,,,,,,,,,,,,
,,,,,,00108,2023-11-25_16h38.46.515,vbt_B1_day1,2022.2.4,MacIntel,60.0024001,,,,,,,,,,,,,,,,,,,0.036506076,-0.086206597,1,0,0,1.4489,3,10,88,12,1,m,images/br_m.png,images/cb_m.png,,,,,,,,,,,,,,,,,,,,,,,,,
,,,,,,00108,2023-11-25_16h38.46.515,vbt_B1_day1,2022.2.4,MacIntel,60.0024001,,,,,,,,,,,,,,,,,,,0.036506076,-0.086206597,1,0,0,1.0026,3,11,89,15,1,p,images/br_p.png,images/cb_p.png,,,,,,,,,,,,,,,,,,,,,,,,,
,,,,,,00108,2023-11-25_16h38.46.515,vbt_B1_day1,2022.2.4,MacIntel,60.0024001,,,,,,,,,,,,,,,,,,,0.036506076,-0.086206597,1,0,0,0.4161,3,12,90,11,1,l,images/br_l.png,images/cb_l.png,,,,,,,,,,,,,,,,,,,,,,,,,
,,,,,,00108,2023-11-25_16h38.46.515,vbt_B1_day1,2022.2.4,MacIntel,60.0024001,,,,,,,,,,,,,,,,,,,0.036506076,-0.086206597,1,0,0,1.5185,3,13,91,16,1,q,images/br_q.png,images/cb_q.png,,,,,,,,,,,,,,,,,,,,,,,,,
,,,,,,00108,2023-11-25_16h38.46.515,vbt_B1_day1,2022.2.4,MacIntel,60.0024001,,,,,,,,,,,,,,,,,,,0.036506076,-0.086206597,1,0,0,3.6195,3,14,92,2,1,c,images/br_c.png,images/cb_c.png,,,,,,,,,,,,,,,,,,,,,,,,,
,,,,,,00108,2023-11-25_16h38.46.515,vbt_B1_day1,2022.2.4,MacIntel,60.0024001,,,,,,,,,,,,,,,,,,,0.036506076,-0.086206597,1,0,0,73.9207,3,15,93,13,1,n,images/br_n.png,images/cb_n.png,,,,,,,,,,,,,,,,,,,,,,,,,
,,,,,,00108,2023-11-25_16h38.46.515,vbt_B1_day1,2022.2.4,MacIntel,60.0024001,,,,,,,,,,,,,,,,,,,0.036506076,-0.086206597,1,0,0,27.6874,3,16,94,9,1,j,images/br_j.png,images/cb_j.png,,,,,,,,,,,,,,,,,,,,,,,,,
,,,,,,00108,2023-11-25_16h38.46.515,vbt_B1_day1,2022.2.4,MacIntel,60.0024001,,,,,,,,,,,,,,,,,,,0.036506076,-0.086206597,1,0,0,0.1505,3,17,95,14,1,o,images/br_o.png,images/cb_o.png,,,,,,,,,,,,,,,,,,,,,,,,,
,,,,,,00108,2023-11-25_16h38.46.515,vbt_B1_day1,2022.2.4,MacIntel,60.0024001,,,,,,,,,,,,,,,,,,,0.036506076,-0.086206597,1,0,0,0.0184,3,18,96,3,1,d,images/br_d.png,images/cb_d.png,,,,,,,,,,,,,,,,,,,,,,,,,
,,,,,,00108,2023-11-25_16h38.46.515,vbt_B1_day1,2022.2.4,MacIntel,60.0024001,,,,,,,,,,,,,,,,,,,0.036506076,-0.086206597,1,0,0,3.7356,3,19,97,20,1,u,images/br_u.png,images/cb_u.png,,,,,,,,,,,,,,,,,,,,,,,,,
,,,,,,00108,2023-11-25_16h38.46.515,vbt_B1_day1,2022.2.4,MacIntel,60.0024001,,,,,,,,,,,,,,,,,,,0.036506076,-0.086206597,1,0,0,0.1352,3,20,98,17,1,r,images/br_r.png,images/cb_r.png,,,,,,,,,,,,,,,,,,,,,,,,,
,,,,,,00108,2023-11-25_16h38.46.515,vbt_B1_day1,2022.2.4,MacIntel,60.0024001,,,,,,,,,,,,,,,,,,,0.036506076,-0.086206597,1,0,0,0.6514,3,21,99,25,1,z,images/br_z.png,images/cb_z.png,,,,,,,,,,,,,,,,,,,,,,,,,
,,,,,,00108,2023-11-25_16h38.46.515,vbt_B1_day1,2022.2.4,MacIntel,60.0024001,,,,,,,,,,,,,,,,,,,0.036506076,-0.086206597,1,0,0,0.5499,3,22,100,24,1,y,images/br_y.png,images/cb_y.png,,,,,,,,,,,,,,,,,,,,,,,,,
,,,,,,00108,2023-11-25_16h38.46.515,vbt_B1_day1,2022.2.4,MacIntel,60.0024001,,,,,,,,,,,,,,,,,,,0.036506076,-0.086206597,1,0,0,0.3334,3,23,101,18,1,s,images/br_s.png,images/cb_s.png,,,,,,,,,,,,,,,,,,,,,,,,,
,,,,,,00108,2023-11-25_16h38.46.515,vbt_B1_day1,2022.2.4,MacIntel,60.0024001,,,,,,,,,,,,,,,,,,,0.07828125,-0.06937066,1,0,0,0.3677,3,24,102,6,1,g,images/br_g.png,images/cb_g.png,,,,,,,,,,,,,,,,,,,,,,,,,
,,,,,,00108,2023-11-25_16h38.46.515,vbt_B1_day1,2022.2.4,MacIntel,60.0024001,,,,,,,,,,,,,,,,,,,0.078836806,-0.06937066,1,0,0,14.1207,3,25,103,21,1,v,images/br_v.png,images/cb_v.png,,,,,,,,,,,,,,,,,,,,,,,,,
,,,,,,00108,2023-11-25_16h38.46.515,vbt_B1_day1,2022.2.4,MacIntel,60.0024001,,,,,,,,,,,,,,,,,,,0.078836806,-0.06937066,1,0,0,1.0537,4,0,104,15,1,p,images/br_p.png,images/cb_p.png,,,,,,,,,,,,,,,,,,,,,,,,,
,,,,,,00108,2023-11-25_16h38.46.515,vbt_B1_day1,2022.2.4,MacIntel,60.0024001,,,,,,,,,,,,,,,,,,,0.078836806,-0.06937066,1,0,0,0.0673,4,1,105,18,1,s,images/br_s.png,images/cb_s.png,,,,,,,,,,,,,,,,,,,,,,,,,
,,,,,,00108,2023-11-25_16h38.46.515,vbt_B1_day1,2022.2.4,MacIntel,60.0024001,,,,,,,,,,,,,,,,,,,0.078836806,-0.06937066,1,0,0,0.2316,4,2,106,24,1,y,images/br_y.png,images/cb_y.png,,,,,,,,,,,,,,,,,,,,,,,,,
,,,,,,00108,2023-11-25_16h38.46.515,vbt_B1_day1,2022.2.4,MacIntel,60.0024001,,,,,,,,,,,,,,,,,,,0.078836806,-0.06937066,1,0,0,2.484,4,3,107,5,1,f,images/br_f.png,images/cb_f.png,,,,,,,,,,,,,,,,,,,,,,,,,
,,,,,,00108,2023-11-25_16h38.46.515,vbt_B1_day1,2022.2.4,MacIntel,60.0024001,,,,,,,,,,,,,,,,,,,0.078836806,-0.06937066,1,0,0,1.3653,4,4,108,19,1,t,images/br_t.png,images/cb_t.png,,,,,,,,,,,,,,,,,,,,,,,,,
,,,,,,00108,2023-11-25_16h38.46.515,vbt_B1_day1,2022.2.4,MacIntel,60.0024001,,,,,,,,,,,,,,,,,,,0.078836806,-0.06937066,1,0,0,0.767,4,5,109,10,1,k,images/br_k.png,images/cb_k.png,,,,,,,,,,,,,,,,,,,,,,,,,
,,,,,,00108,2023-11-25_16h38.46.515,vbt_B1_day1,2022.2.4,MacIntel,60.0024001,,,,,,,,,,,,,,,,,,,0.078836806,-0.06937066,1,0,0,0.5987,4,6,110,14,1,o,images/br_o.png,images/cb_o.png,,,,,,,,,,,,,,,,,,,,,,,,,
,,,,,,00108,2023-11-25_16h38.46.515,vbt_B1_day1,2022.2.4,MacIntel,60.0024001,,,,,,,,,,,,,,,,,,,0.078836806,-0.06937066,1,0,0,0.5015,4,7,111,23,1,x,images/br_x.png,images/cb_x.png,,,,,,,,,,,,,,,,,,,,,,,,,
,,,,,,00108,2023-11-25_16h38.46.515,vbt_B1_day1,2022.2.4,MacIntel,60.0024001,,,,,,,,,,,,,,,,,,,0.078836806,-0.06937066,1,0,0,0.3828,4,8,112,6,1,g,images/br_g.png,images/cb_g.png,,,,,,,,,,,,,,,,,,,,,,,,,
,,,,,,00108,2023-11-25_16h38.46.515,vbt_B1_day1,2022.2.4,MacIntel,60.0024001,,,,,,,,,,,,,,,,,,,0.078836806,-0.06937066,1,0,0,0.3484,4,9,113,4,1,e,images/br_e.png,images/cb_e.png,,,,,,,,,,,,,,,,,,,,,,,,,
,,,,,,00108,2023-11-25_16h38.46.515,vbt_B1_day1,2022.2.4,MacIntel,60.0024001,,,,,,,,,,,,,,,,,,,0.078836806,-0.06937066,1,0,0,0.1176,4,10,114,2,1,c,images/br_c.png,images/cb_c.png,,,,,,,,,,,,,,,,,,,,,,,,,
,,,,,,00108,2023-11-25_16h38.46.515,vbt_B1_day1,2022.2.4,MacIntel,60.0024001,,,,,,,,,,,,,,,,,,,0.078836806,-0.06937066,1,0,0,0.7496,4,11,115,9,1,j,images/br_j.png,images/cb_j.png,,,,,,,,,,,,,,,,,,,,,,,,,
,,,,,,00108,2023-11-25_16h38.46.515,vbt_B1_day1,2022.2.4,MacIntel,60.0024001,,,,,,,,,,,,,,,,,,,0.078836806,-0.06937066,1,0,0,3.9501,4,12,116,13,1,n,images/br_n.png,images/cb_n.png,,,,,,,,,,,,,,,,,,,,,,,,,
,,,,,,00108,2023-11-25_16h38.46.515,vbt_B1_day1,2022.2.4,MacIntel,60.0024001,,,,,,,,,,,,,,,,,,,0.078836806,-0.06937066,1,0,0,3.3487,4,13,117,12,1,m,images/br_m.png,images/cb_m.png,,,,,,,,,,,,,,,,,,,,,,,,,
,,,,,,00108,2023-11-25_16h38.46.515,vbt_B1_day1,2022.2.4,MacIntel,60.0024001,,,,,,,,,,,,,,,,,,,0.078836806,-0.06937066,1,0,0,0.5177,4,14,118,0,1,a,images/br_a.png,images/cb_a.png,,,,,,,,,,,,,,,,,,,,,,,,,
,,,,,,00108,2023-11-25_16h38.46.515,vbt_B1_day1,2022.2.4,MacIntel,60.0024001,,,,,,,,,,,,,,,,,,,0.078836806,-0.06937066,1,0,0,0.3491,4,15,119,11,1,l,images/br_l.png,images/cb_l.png,,,,,,,,,,,,,,,,,,,,,,,,,
,,,,,,00108,2023-11-25_16h38.46.515,vbt_B1_day1,2022.2.4,MacIntel,60.0024001,,,,,,,,,,,,,,,,,,,0.078836806,-0.06937066,1,0,0,0.1183,4,16,120,16,1,q,images/br_q.png,images/cb_q.png,,,,,,,,,,,,,,,,,,,,,,,,,
,,,,,,00108,2023-11-25_16h38.46.515,vbt_B1_day1,2022.2.4,MacIntel,60.0024001,,,,,,,,,,,,,,,,,,,0.078836806,-0.06937066,1,0,0,0.984,4,17,121,21,1,v,images/br_v.png,images/cb_v.png,,,,,,,,,,,,,,,,,,,,,,,,,
,,,,,,00108,2023-11-25_16h38.46.515,vbt_B1_day1,2022.2.4,MacIntel,60.0024001,,,,,,,,,,,,,,,,,,,0.078836806,-0.06937066,1,0,0,0.6496,4,18,122,1,1,b,images/br_b.png,images/cb_b.png,,,,,,,,,,,,,,,,,,,,,,,,,
,,,,,,00108,2023-11-25_16h38.46.515,vbt_B1_day1,2022.2.4,MacIntel,60.0024001,,,,,,,,,,,,,,,,,,,0.078836806,-0.06937066,1,0,0,6.0877,4,19,123,20,1,u,images/br_u.png,images/cb_u.png,,,,,,,,,,,,,,,,,,,,,,,,,
,,,,,,00108,2023-11-25_16h38.46.515,vbt_B1_day1,2022.2.4,MacIntel,60.0024001,,,,,,,,,,,,,,,,,,,0.078836806,-0.06937066,1,0,0,0.4023,4,20,124,17,1,r,images/br_r.png,images/cb_r.png,,,,,,,,,,,,,,,,,,,,,,,,,
,,,,,,00108,2023-11-25_16h38.46.515,vbt_B1_day1,2022.2.4,MacIntel,60.0024001,,,,,,,,,,,,,,,,,,,0.078836806,-0.06937066,1,0,0,1.3508,4,21,125,7,1,h,images/br_h.png,images/cb_h.png,,,,,,,,,,,,,,,,,,,,,,,,,
,,,,,,00108,2023-11-25_16h38.46.515,vbt_B1_day1,2022.2.4,MacIntel,60.0024001,,,,,,,,,,,,,,,,,,,0.078836806,-0.06937066,1,0,0,0.6989,4,22,126,3,1,d,images/br_d.png,images/cb_d.png,,,,,,,,,,,,,,,,,,,,,,,,,
,,,,,,00108,2023-11-25_16h38.46.515,vbt_B1_day1,2022.2.4,MacIntel,60.0024001,,,,,,,,,,,,,,,,,,,0.078836806,-0.06937066,1,0,0,13.0026,4,23,127,8,1,i,images/br_i.png,images/cb_i.png,,,,,,,,,,,,,,,,,,,,,,,,,
,,,,,,00108,2023-11-25_16h38.46.515,vbt_B1_day1,2022.2.4,MacIntel,60.0024001,,,,,,,,,,,,,,,,,,,0.078836806,-0.06937066,1,0,0,1.6674,4,24,128,22,1,w,images/br_w.png,images/cb_w.png,,,,,,,,,,,,,,,,,,,,,,,,,
,,,,,,00108,2023-11-25_16h38.46.515,vbt_B1_day1,2022.2.4,MacIntel,60.0024001,,,,,,,,,,,,,,,,,,,0.078836806,-0.06937066,1,0,0,2.7189,4,25,129,25,1,z,images/br_z.png,images/cb_z.png,,,,,,,,,,,,,,,,,,,,,,,,,
,,,,,,00108,2023-11-25_16h38.46.515,vbt_B1_day1,2022.2.4,MacIntel,60.0024001,,,,,,,,,,,,,,,,,,,0.078836806,-0.06937066,1,0,0,0.5002,5,0,130,25,1,z,images/br_z.png,images/cb_z.png,,,,,,,,,,,,,,,,,,,,,,,,,
,,,,,,00108,2023-11-25_16h38.46.515,vbt_B1_day1,2022.2.4,MacIntel,60.0024001,,,,,,,,,,,,,,,,,,,0.078836806,-0.06937066,1,0,0,0.2668,5,1,131,2,1,c,images/br_c.png,images/cb_c.png,,,,,,,,,,,,,,,,,,,,,,,,,
,,,,,,00108,2023-11-25_16h38.46.515,vbt_B1_day1,2022.2.4,MacIntel,60.0024001,,,,,,,,,,,,,,,,,,,0.078836806,-0.06937066,1,0,0,0.1325,5,2,132,0,1,a,images/br_a.png,images/cb_a.png,,,,,,,,,,,,,,,,,,,,,,,,,
,,,,,,00108,2023-11-25_16h38.46.515,vbt_B1_day1,2022.2.4,MacIntel,60.0024001,,,,,,,,,,,,,,,,,,,0.078836806,-0.06937066,1,0,0,0.6673,5,3,133,17,1,r,images/br_r.png,images/cb_r.png,,,,,,,,,,,,,,,,,,,,,,,,,
,,,,,,00108,2023-11-25_16h38.46.515,vbt_B1_day1,2022.2.4,MacIntel,60.0024001,,,,,,,,,,,,,,,,,,,0.078836806,-0.06937066,1,0,0,0.5983,5,4,134,6,1,g,images/br_g.png,images/cb_g.png,,,,,,,,,,,,,,,,,,,,,,,,,
,,,,,,00108,2023-11-25_16h38.46.515,vbt_B1_day1,2022.2.4,MacIntel,60.0024001,,,,,,,,,,,,,,,,,,,0.078836806,-0.06937066,1,0,0,0.1498,5,5,135,24,1,y,images/br_y.png,images/cb_y.png,,,,,,,,,,,,,,,,,,,,,,,,,
,,,,,,00108,2023-11-25_16h38.46.515,vbt_B1_day1,2022.2.4,MacIntel,60.0024001,,,,,,,,,,,,,,,,,,,0.078836806,-0.06937066,1,0,0,2.9176,5,6,136,4,1,e,images/br_e.png,images/cb_e.png,,,,,,,,,,,,,,,,,,,,,,,,,
,,,,,,00108,2023-11-25_16h38.46.515,vbt_B1_day1,2022.2.4,MacIntel,60.0024001,,,,,,,,,,,,,,,,,,,0.078836806,-0.06937066,1,0,0,0.5167,5,7,137,7,1,h,images/br_h.png,images/cb_h.png,,,,,,,,,,,,,,,,,,,,,,,,,
,,,,,,00108,2023-11-25_16h38.46.515,vbt_B1_day1,2022.2.4,MacIntel,60.0024001,,,,,,,,,,,,,,,,,,,0.078836806,-0.06937066,1,0,0,1.9825,5,8,138,22,1,w,images/br_w.png,images/cb_w.png,,,,,,,,,,,,,,,,,,,,,,,,,
,,,,,,00108,2023-11-25_16h38.46.515,vbt_B1_day1,2022.2.4,MacIntel,60.0024001,,,,,,,,,,,,,,,,,,,0.078836806,-0.06937066,1,0,0,8.8713,5,9,139,9,1,j,images/br_j.png,images/cb_j.png,,,,,,,,,,,,,,,,,,,,,,,,,
,,,,,,00108,2023-11-25_16h38.46.515,vbt_B1_day1,2022.2.4,MacIntel,60.0024001,,,,,,,,,,,,,,,,,,,0.078836806,-0.06937066,1,0,0,1.0711,5,10,140,5,1,f,images/br_f.png,images/cb_f.png,,,,,,,,,,,,,,,,,,,,,,,,,
,,,,,,00108,2023-11-25_16h38.46.515,vbt_B1_day1,2022.2.4,MacIntel,60.0024001,,,,,,,,,,,,,,,,,,,0.078836806,-0.06937066,1,0,0,0.3356,5,11,141,8,1,i,images/br_i.png,images/cb_i.png,,,,,,,,,,,,,,,,,,,,,,,,,
,,,,,,00108,2023-11-25_16h38.46.515,vbt_B1_day1,2022.2.4,MacIntel,60.0024001,,,,,,,,,,,,,,,,,,,0.078836806,-0.06937066,1,0,0,0.1665,5,12,142,14,1,o,images/br_o.png,images/cb_o.png,,,,,,,,,,,,,,,,,,,,,,,,,
,,,,,,00108,2023-11-25_16h38.46.515,vbt_B1_day1,2022.2.4,MacIntel,60.0024001,,,,,,,,,,,,,,,,,,,0.078836806,-0.06937066,1,0,0,0.4178,5,13,143,23,1,x,images/br_x.png,images/cb_x.png,,,,,,,,,,,,,,,,,,,,,,,,,
,,,,,,00108,2023-11-25_16h38.46.515,vbt_B1_day1,2022.2.4,MacIntel,60.0024001,,,,,,,,,,,,,,,,,,,0.078836806,-0.06937066,1,0,0,6.7002,5,14,144,13,1,n,images/br_n.png,images/cb_n.png,,,,,,,,,,,,,,,,,,,,,,,,,
,,,,,,00108,2023-11-25_16h38.46.515,vbt_B1_day1,2022.2.4,MacIntel,60.0024001,,,,,,,,,,,,,,,,,,,0.078836806,-0.06937066,1,0,0,6.8337,5,15,145,20,1,u,images/br_u.png,images/cb_u.png,,,,,,,,,,,,,,,,,,,,,,,,,
,,,,,,00108,2023-11-25_16h38.46.515,vbt_B1_day1,2022.2.4,MacIntel,60.0024001,,,,,,,,,,,,,,,,,,,0.078836806,-0.06937066,1,0,0,0.5166,5,16,146,19,1,t,images/br_t.png,images/cb_t.png,,,,,,,,,,,,,,,,,,,,,,,,,
,,,,,,00108,2023-11-25_16h38.46.515,vbt_B1_day1,2022.2.4,MacIntel,60.0024001,,,,,,,,,,,,,,,,,,,0.078836806,-0.06937066,1,0,0,0.2156,5,17,147,3,1,d,images/br_d.png,images/cb_d.png,,,,,,,,,,,,,,,,,,,,,,,,,
,,,,,,00108,2023-11-25_16h38.46.515,vbt_B1_day1,2022.2.4,MacIntel,60.0024001,,,,,,,,,,,,,,,,,,,0.078836806,-0.06937066,1,0,0,0.1332,5,18,148,18,1,s,images/br_s.png,images/cb_s.png,,,,,,,,,,,,,,,,,,,,,,,,,
,,,,,,00108,2023-11-25_16h38.46.515,vbt_B1_day1,2022.2.4,MacIntel,60.0024001,,,,,,,,,,,,,,,,,,,0.078836806,-0.06937066,1,0,0,0.1014,5,19,149,1,1,b,images/br_b.png,images/cb_b.png,,,,,,,,,,,,,,,,,,,,,,,,,
,,,,,,00108,2023-11-25_16h38.46.515,vbt_B1_day1,2022.2.4,MacIntel,60.0024001,,,,,,,,,,,,,,,,,,,0.078836806,-0.06937066,1,0,0,0.0461,5,20,150,10,1,k,images/br_k.png,images/cb_k.png,,,,,,,,,,,,,,,,,,,,,,,,,
,,,,,,00108,2023-11-25_16h38.46.515,vbt_B1_day1,2022.2.4,MacIntel,60.0024001,,,,,,,,,,,,,,,,,,,0.078836806,-0.06937066,1,0,0,0.3484,5,21,151,11,1,l,images/br_l.png,images/cb_l.png,,,,,,,,,,,,,,,,,,,,,,,,,
,,,,,,00108,2023-11-25_16h38.46.515,vbt_B1_day1,2022.2.4,MacIntel,60.0024001,,,,,,,,,,,,,,,,,,,0.078836806,-0.06937066,1,0,0,0.5678,5,22,152,16,1,q,images/br_q.png,images/cb_q.png,,,,,,,,,,,,,,,,,,,,,,,,,
,,,,,,00108,2023-11-25_16h38.46.515,vbt_B1_day1,2022.2.4,MacIntel,60.0024001,,,,,,,,,,,,,,,,,,,0.078836806,-0.06937066,1,0,0,6.604,5,23,153,15,1,p,images/br_p.png,images/cb_p.png,,,,,,,,,,,,,,,,,,,,,,,,,
,,,,,,00108,2023-11-25_16h38.46.515,vbt_B1_day1,2022.2.4,MacIntel,60.0024001,,,,,,,,,,,,,,,,,,,0.078836806,-0.06937066,1,0,0,2.2487,5,24,154,21,1,v,images/br_v.png,images/cb_v.png,,,,,,,,,,,,,,,,,,,,,,,,,
,,,,,,00108,2023-11-25_16h38.46.515,vbt_B1_day1,2022.2.4,MacIntel,60.0024001,,,,,,,,,,,,,,,,,,,0.078836806,-0.06937066,1,0,0,4.5157,5,25,155,12,1,m,images/br_m.png,images/cb_m.png,,,,,,,,,,,,,,,,,,,,,,,,,
,,,,,,00108,2023-11-25_16h38.46.515,vbt_B1_day1,2022.2.4,MacIntel,60.0024001,,,,,,,,,,,,,,,,,,,0.078836806,-0.06937066,1,0,0,0.5172,6,0,156,0,1,a,images/br_a.png,images/cb_a.png,,,,,,,,,,,,,,,,,,,,,,,,,
,,,,,,00108,2023-11-25_16h38.46.515,vbt_B1_day1,2022.2.4,MacIntel,60.0024001,,,,,,,,,,,,,,,,,,,0.078836806,-0.06937066,1,0,0,0.5476,6,1,157,2,1,c,images/br_c.png,images/cb_c.png,,,,,,,,,,,,,,,,,,,,,,,,,
,,,,,,00108,2023-11-25_16h38.46.515,vbt_B1_day1,2022.2.4,MacIntel,60.0024001,,,,,,,,,,,,,,,,,,,0.078836806,-0.06937066,1,0,0,0.35,6,2,158,15,1,p,images/br_p.png,images/cb_p.png,,,,,,,,,,,,,,,,,,,,,,,,,
,,,,,,00108,2023-11-25_16h38.46.515,vbt_B1_day1,2022.2.4,MacIntel,60.0024001,,,,,,,,,,,,,,,,,,,0.078836806,-0.06937066,1,0,0,3.1513,6,3,159,22,1,w,images/br_w.png,images/cb_w.png,,,,,,,,,,,,,,,,,,,,,,,,,
,,,,,,00108,2023-11-25_16h38.46.515,vbt_B1_day1,2022.2.4,MacIntel,60.0024001,,,,,,,,,,,,,,,,,,,0.078836806,-0.06937066,1,0,0,1.4338,6,4,160,19,1,t,images/br_t.png,images/cb_t.png,,,,,,,,,,,,,,,,,,,,,,,,,
,,,,,,00108,2023-11-25_16h38.46.515,vbt_B1_day1,2022.2.4,MacIntel,60.0024001,,,,,,,,,,,,,,,,,,,0.078836806,-0.06937066,1,0,0,0.4009,6,5,161,24,1,y,images/br_y.png,images/cb_y.png,,,,,,,,,,,,,,,,,,,,,,,,,
,,,,,,00108,2023-11-25_16h38.46.515,vbt_B1_day1,2022.2.4,MacIntel,60.0024001,,,,,,,,,,,,,,,,,,,0.078836806,-0.06937066,1,0,0,5.5326,6,6,162,8,1,i,images/br_i.png,images/cb_i.png,,,,,,,,,,,,,,,,,,,,,,,,,
,,,,,,00108,2023-11-25_16h38.46.515,vbt_B1_day1,2022.2.4,MacIntel,60.0024001,,,,,,,,,,,,,,,,,,,0.078836806,-0.06937066,1,0,0,6.9998,6,7,163,25,1,z,images/br_z.png,images/cb_z.png,,,,,,,,,,,,,,,,,,,,,,,,,
,,,,,,00108,2023-11-25_16h38.46.515,vbt_B1_day1,2022.2.4,MacIntel,60.0024001,,,,,,,,,,,,,,,,,,,0.078836806,-0.06937066,1,0,0,0.3997,6,8,164,5,1,f,images/br_f.png,images/cb_f.png,,,,,,,,,,,,,,,,,,,,,,,,,
,,,,,,00108,2023-11-25_16h38.46.515,vbt_B1_day1,2022.2.4,MacIntel,60.0024001,,,,,,,,,,,,,,,,,,,0.078836806,-0.06937066,1,0,0,0.2334,6,9,165,7,1,h,images/br_h.png,images/cb_h.png,,,,,,,,,,,,,,,,,,,,,,,,,
,,,,,,00108,2023-11-25_16h38.46.515,vbt_B1_day1,2022.2.4,MacIntel,60.0024001,,,,,,,,,,,,,,,,,,,0.078836806,-0.06937066,1,0,0,4.9172,6,10,166,12,1,m,images/br_m.png,images/cb_m.png,,,,,,,,,,,,,,,,,,,,,,,,,
,,,,,,00108,2023-11-25_16h38.46.515,vbt_B1_day1,2022.2.4,MacIntel,60.0024001,,,,,,,,,,,,,,,,,,,0.078836806,-0.06937066,1,0,0,0.4008,6,11,167,23,1,x,images/br_x.png,images/cb_x.png,,,,,,,,,,,,,,,,,,,,,,,,,
,,,,,,00108,2023-11-25_16h38.46.515,vbt_B1_day1,2022.2.4,MacIntel,60.0024001,,,,,,,,,,,,,,,,,,,0.078836806,-0.06937066,1,0,0,0.2659,6,12,168,10,1,k,images/br_k.png,images/cb_k.png,,,,,,,,,,,,,,,,,,,,,,,,,
,,,,,,00108,2023-11-25_16h38.46.515,vbt_B1_day1,2022.2.4,MacIntel,60.0024001,,,,,,,,,,,,,,,,,,,0.078836806,-0.06937066,1,0,0,0.1023,6,13,169,14,1,o,images/br_o.png,images/cb_o.png,,,,,,,,,,,,,,,,,,,,,,,,,
,,,,,,00108,2023-11-25_16h38.46.515,vbt_B1_day1,2022.2.4,MacIntel,60.0024001,,,,,,,,,,,,,,,,,,,0.078836806,-0.06937066,1,0,0,0.9516,6,14,170,11,1,l,images/br_l.png,images/cb_l.png,,,,,,,,,,,,,,,,,,,,,,,,,
,,,,,,00108,2023-11-25_16h38.46.515,vbt_B1_day1,2022.2.4,MacIntel,60.0024001,,,,,,,,,,,,,,,,,,,0.078836806,-0.06937066,1,0,0,0.5847,6,15,171,6,1,g,images/br_g.png,images/cb_g.png,,,,,,,,,,,,,,,,,,,,,,,,,
,,,,,,00108,2023-11-25_16h38.46.515,vbt_B1_day1,2022.2.4,MacIntel,60.0024001,,,,,,,,,,,,,,,,,,,0.078836806,-0.06937066,1,0,0,5.6657,6,16,172,18,1,s,images/br_s.png,images/cb_s.png,,,,,,,,,,,,,,,,,,,,,,,,,
,,,,,,00108,2023-11-25_16h38.46.515,vbt_B1_day1,2022.2.4,MacIntel,60.0024001,,,,,,,,,,,,,,,,,,,0.078836806,-0.06937066,1,0,0,11.0395,6,17,173,16,1,q,images/br_q.png,images/cb_q.png,,,,,,,,,,,,,,,,,,,,,,,,,
,,,,,,00108,2023-11-25_16h38.46.515,vbt_B1_day1,2022.2.4,MacIntel,60.0024001,,,,,,,,,,,,,,,,,,,0.078836806,-0.06937066,1,0,0,0.1653,6,18,174,4,1,e,images/br_e.png,images/cb_e.png,,,,,,,,,,,,,,,,,,,,,,,,,
,,,,,,00108,2023-11-25_16h38.46.515,vbt_B1_day1,2022.2.4,MacIntel,60.0024001,,,,,,,,,,,,,,,,,,,0.078836806,-0.06937066,1,0,0,7.7841,6,19,175,20,1,u,images/br_u.png,images/cb_u.png,,,,,,,,,,,,,,,,,,,,,,,,,
,,,,,,00108,2023-11-25_16h38.46.515,vbt_B1_day1,2022.2.4,MacIntel,60.0024001,,,,,,,,,,,,,,,,,,,0.078836806,-0.06937066,1,0,0,0.7659,6,20,176,1,1,b,images/br_b.png,images/cb_b.png,,,,,,,,,,,,,,,,,,,,,,,,,
,,,,,,00108,2023-11-25_16h38.46.515,vbt_B1_day1,2022.2.4,MacIntel,60.0024001,,,,,,,,,,,,,,,,,,,0.078836806,-0.06937066,1,0,0,0.0844,6,21,177,9,1,j,images/br_j.png,images/cb_j.png,,,,,,,,,,,,,,,,,,,,,,,,,
,,,,,,00108,2023-11-25_16h38.46.515,vbt_B1_day1,2022.2.4,MacIntel,60.0024001,,,,,,,,,,,,,,,,,,,0.078836806,-0.06937066,1,0,0,3.0829,6,22,178,13,1,n,images/br_n.png,images/cb_n.png,,,,,,,,,,,,,,,,,,,,,,,,,
,,,,,,00108,2023-11-25_16h38.46.515,vbt_B1_day1,2022.2.4,MacIntel,60.0024001,,,,,,,,,,,,,,,,,,,0.078836806,-0.06937066,1,0,0,0.2523,6,23,179,21,1,v,images/br_v.png,images/cb_v.png,,,,,,,,,,,,,,,,,,,,,,,,,
,,,,,,00108,2023-11-25_16h38.46.515,vbt_B1_day1,2022.2.4,MacIntel,60.0024001,,,,,,,,,,,,,,,,,,,0.078836806,-0.06937066,1,0,0,0.0137,6,24,180,17,1,r,images/br_r.png,images/cb_r.png,,,,,,,,,,,,,,,,,,,,,,,,,
,,,,,,00108,2023-11-25_16h38.46.515,vbt_B1_day1,2022.2.4,MacIntel,60.0024001,,,,,,,,,,,,,,,,,,,0.078836806,-0.06937066,1,0,0,0.0665,6,25,181,3,1,d,images/br_d.png,images/cb_d.png,,,,,,,,,,,,,,,,,,,,,,,,,
,,,,,,00108,2023-11-25_16h38.46.515,vbt_B1_day1,2022.2.4,MacIntel,60.0024001,,,,,,,,,,,,,,,,,,,,,,,,,,,,,,,,,0.078836806,-0.06937066,1,0,0,,,,,,,,,,,,,,,,,,,,
,,,,,,00108,2023-11-25_16h38.46.515,vbt_B1_day1,2022.2.4,MacIntel,60.0024001,,,,,,,,,,,,,,,,,,,,,,,,,,,,,,,,,,,,,,0.078836806,-0.06937066,1,0,0,,,,,,,,,,,,,,,
,,,,,,00108,2023-11-25_16h38.46.515,vbt_B1_day1,2022.2.4,MacIntel,60.0024001,,,,,,,,,,,,,,,,,,,,,,,,,,,,,,,,,,,,,,,,,,,0.120104167,0.114578993,1,0,0,dr....,dr....,0,0,0,27,1,prort,images/br_prort.png,images/cb_prort.png
,,,,,,00108,2023-11-25_16h38.46.515,vbt_B1_day1,2022.2.4,MacIntel,60.0024001,,,,,,,,,,,,,,,,,,,,,,,,,,,,,,,,,,,,,,,,,,,-0.047421875,0.060451389,1,0,0,..I....,..I....,0,1,1,52,1,zuiplap,images/br_zuiplap.png,images/cb_zuiplap.png
,,,,,,00108,2023-11-25_16h38.46.515,vbt_B1_day1,2022.2.4,MacIntel,60.0024001,,,,,,,,,,,,,,,,,,,,,,,,,,,,,,,,,,,,,,,,,,,-0.072695312,0.035039063,1,0,0,.ITD....,.ITD....,0,2,2,18,1,uitdelen,images/br_uitdelen.png,images/cb_uitdelen.png
,,,,,,00108,2023-11-25_16h38.46.515,vbt_B1_day1,2022.2.4,MacIntel,60.0024001,,,,,,,,,,,,,,,,,,,,,,,,,,,,,,,,,,,,,,,,,,,0.060047743,-0.017925347,1,0,0,.ICTI..,.ICTI..,0,3,3,48,1,fictie,images/br_fictie.png,images/cb_fictie.png
,,,,,,00108,2023-11-25_16h38.46.515,vbt_B1_day1,2022.2.4,MacIntel,60.0024001,,,,,,,,,,,,,,,,,,,,,,,,,,,,,,,,,,,,,,,,,,,0.062365451,0.021206597,1,0,0,.CHEP,.CHEP,0,4,4,4,1,schep,images/br_schep.png,images/cb_schep.png
,,,,,,00108,2023-11-25_16h38.46.515,vbt_B1_day1,2022.2.4,MacIntel,60.0024001,,,,,,,,,,,,,,,,,,,,,,,,,,,,,,,,,,,,,,,,,,,0.037465278,0.251241319,1,0,0,BREJK,BREJK,0,5,5,25,1,brijk,images/br_brijk.png,images/cb_brijk.png
,,,,,,00108,2023-11-25_16h38.46.515,vbt_B1_day1,2022.2.4,MacIntel,60.0024001,,,,,,,,,,,,,,,,,,,,,,,,,,,,,,,,,,,,,,,,,,,-0.062217882,-0.147322049,1,0,0,LOODS,LOODS,0,6,6,47,1,loods,images/br_loods.png,images/cb_loods.png
,,,,,,00108,2023-11-25_16h38.46.515,vbt_B1_day1,2022.2.4,MacIntel,60.0024001,,,,,,,,,,,,,,,,,,,,,,,,,,,,,,,,,,,,,,,,,,,-0.008315972,0.038072917,1,0,0,SPRU....,SPRU....,0,7,7,37,1,spanzing,images/br_spanzing.png,images/cb_spanzing.png
,,,,,,00108,2023-11-25_16h38.46.515,vbt_B1_day1,2022.2.4,MacIntel,60.0024001,,,,,,,,,,,,,,,,,,,,,,,,,,,,,,,,,,,,,,,,,,,0.017530382,-0.027777778,1,0,0,LAVA,LAVA,0,8,8,43,1,lava,images/br_lava.png,images/cb_lava.png
,,,,,,00108,2023-11-25_16h38.46.515,vbt_B1_day1,2022.2.4,MacIntel,60.0024001,,,,,,,,,,,,,,,,,,,,,,,,,,,,,,,,,,,,,,,,,,,-0.049522569,0.029092882,1,0,0,TWI,TWI,0,9,9,13,1,twijfel,images/br_twijfel.png,images/cb_twijfel.png
,,,,,,00108,2023-11-25_16h38.46.515,vbt_B1_day1,2022.2.4,MacIntel,60.0024001,,,,,,,,,,,,,,,,,,,,,,,,,,,,,,,,,,,,,,,,,,,-0.140742188,-0.042374132,1,0,0,GE.O,GE.O,0,10,10,29,1,genond,images/br_genond.png,images/cb_genond.png
,,,,,,00108,2023-11-25_16h38.46.515,vbt_B1_day1,2022.2.4,MacIntel,60.0024001,,,,,,,,,,,,,,,,,,,,,,,,,,,,,,,,,,,,,,,,,,,0.100347222,0.088454861,1,0,0,SLAK,SLAK,0,11,11,0,1,slak,images/br_slak.png,images/cb_slak.png
,,,,,,00108,2023-11-25_16h38.46.515,vbt_B1_day1,2022.2.4,MacIntel,60.0024001,,,,,,,,,,,,,,,,,,,,,,,,,,,,,,,,,,,,,,,,,,,0.086150174,-0.013940972,1,0,0,NAAL,NAAL,0,12,12,1,1,zaal,images/br_zaal.png,images/cb_zaal.png
,,,,,,00108,2023-11-25_16h38.46.515,vbt_B1_day1,2022.2.4,MacIntel,60.0024001,,,,,,,,,,,,,,,,,,,,,,,,,,,,,,,,,,,,,,,,,,,-0.040351563,0.014748264,1,0,0,.E.I..G,.E.I..G,0,13,13,11,1,mening,images/br_mening.png,images/cb_mening.png
,,,,,,00108,2023-11-25_16h38.46.515,vbt_B1_day1,2022.2.4,MacIntel,60.0024001,,,,,,,,,,,,,,,,,,,,,,,,,,,,,,,,,,,,,,,,,,,0.049965278,0.076979167,1,0,0,LOC...,LOC...,0,14,14,34,1,lochten,images/br_lochten.png,images/cb_lochten.png
,,,,,,00108,2023-11-25_16h38.46.515,vbt_B1_day1,2022.2.4,MacIntel,60.0024001,,,,,,,,,,,,,,,,,,,,,,,,,,,,,,,,,,,,,,,,,,,-0.184565972,-0.038463542,1,0,0,VI?IER,VI?IER,0,15,15,49,1,vizier,images/br_vizier.png,images/cb_vizier.png
,,,,,,00108,2023-11-25_16h38.46.515,vbt_B1_day1,2022.2.4,MacIntel,60.0024001,,,,,,,,,,,,,,,,,,,,,,,,,,,,,,,,,,,,,,,,,,,-0.153029514,-0.01655816,1,0,0,.L.LL,.L.LL,0,16,16,33,1,flullen,images/br_flullen.png,images/cb_flullen.png
,,,,,,00108,2023-11-25_16h38.46.515,vbt_B1_day1,2022.2.4,MacIntel,60.0024001,,,,,,,,,,,,,,,,,,,,,,,,,,,,,,,,,,,,,,,,,,,0.011176215,-0.024782986,1,0,0,VOORR,VOORR,0,17,17,39,1,voorreur,images/br_voorreur.png,images/cb_voorreur.png
,,,,,,00108,2023-11-25_16h38.46.515,vbt_B1_day1,2022.2.4,MacIntel,60.0024001,,,,,,,,,,,,,,,,,,,,,,,,,,,,,,,,,,,,,,,,,,,0.100381944,0.047404514,1,0,0,VOORK,VOORK,0,18,18,58,1,voorkeur,images/br_voorkeur.png,images/cb_voorkeur.png
,,,,,,00108,2023-11-25_16h38.46.515,vbt_B1_day1,2022.2.4,MacIntel,60.0024001,,,,,,,,,,,,,,,,,,,,,,,,,,,,,,,,,,,,,,,,,,,-0.061171875,-0.016905382,1,0,0,KA,KA,0,19,19,8,1,kanjer,images/br_kanjer.png,images/cb_kanjer.png
,,,,,,00108,2023-11-25_16h38.46.515,vbt_B1_day1,2022.2.4,MacIntel,60.0024001,,,,,,,,,,,,,,,,,,,,,,,,,,,,,,,,,,,,,,,,,,,-0.052543403,-0.003663194,1,0,0,BEBRE,BEBRE,0,20,20,28,1,bebrip,images/br_bebrip.png,images/cb_bebrip.png
,,,,,,00108,2023-11-25_16h38.46.515,vbt_B1_day1,2022.2.4,MacIntel,60.0024001,,,,,,,,,,,,,,,,,,,,,,,,,,,,,,,,,,,,,,,,,,,-0.052543403,-0.003663194,1,0,0,..BBEN,..BBEN,0,21,21,9,1,dubbel,images/br_dubbel.png,images/cb_dubbel.png
,,,,,,00108,2023-11-25_16h38.46.515,vbt_B1_day1,2022.2.4,MacIntel,60.0024001,,,,,,,,,,,,,,,,,,,,,,,,,,,,,,,,,,,,,,,,,,,-0.107747396,0.093980035,1,0,0,LIEFDE,LIEFDE,0,22,22,51,1,liefde,images/br_liefde.png,images/cb_liefde.png
,,,,,,00108,2023-11-25_16h38.46.515,vbt_B1_day1,2022.2.4,MacIntel,60.0024001,,,,,,,,,,,,,,,,,,,,,,,,,,,,,,,,,,,,,,,,,,,-0.092756076,0.157126736,1,0,0,C.IE,C.IE,0,23,23,38,1,schielen,images/br_schielen.png,images/cb_schielen.png
,,,,,,00108,2023-11-25_16h38.46.515,vbt_B1_day1,2022.2.4,MacIntel,60.0024001,,,,,,,,,,,,,,,,,,,,,,,,,,,,,,,,,,,,,,,,,,,0.00703125,0.249227431,1,0,0,JAAR,JAAR,0,24,24,2,1,jaar,images/br_jaar.png,images/cb_jaar.png
,,,,,,00108,2023-11-25_16h38.46.515,vbt_B1_day1,2022.2.4,MacIntel,60.0024001,,,,,,,,,,,,,,,,,,,,,,,,,,,,,,,,,,,,,,,,,,,0.041493056,0.312265625,1,0,0,VALOP,VALOP,0,25,25,26,1,valop,images/br_valop.png,images/cb_valop.png
,,,,,,00108,2023-11-25_16h38.46.515,vbt_B1_day1,2022.2.4,MacIntel,60.0024001,,,,,,,,,,,,,,,,,,,,,,,,,,,,,,,,,,,,,,,,,,,0.174431424,0.451805556,1,0,0,VER,VER,0,26,26,36,1,vervaden,images/br_vervaden.png,images/cb_vervaden.png
,,,,,,00108,2023-11-25_16h38.46.515,vbt_B1_day1,2022.2.4,MacIntel,60.0024001,,,,,,,,,,,,,,,,,,,,,,,,,,,,,,,,,,,,,,,,,,,0.151996528,0.24141059,1,0,0,HOOG,HOOG,0,27,27,41,1,hoog,images/br_hoog.png,images/cb_hoog.png
,,,,,,00108,2023-11-25_16h38.46.515,vbt_B1_day1,2022.2.4,MacIntel,60.0024001,,,,,,,,,,,,,,,,,,,,,,,,,,,,,,,,,,,,,,,,,,,0.213424479,0.307356771,1,0,0,STUI,STUI,0,28,28,35,1,stuikem,images/br_stuikem.png,images/cb_stuikem.png
,,,,,,00108,2023-11-25_16h38.46.515,vbt_B1_day1,2022.2.4,MacIntel,60.0024001,,,,,,,,,,,,,,,,,,,,,,,,,,,,,,,,,,,,,,,,,,,0.145546875,0.130724826,1,0,0,REED,REED,0,29,29,30,1,reedje,images/br_reedje.png,images/cb_reedje.png
,,,,,,00108,2023-11-25_16h38.46.515,vbt_B1_day1,2022.2.4,MacIntel,60.0024001,,,,,,,,,,,,,,,,,,,,,,,,,,,,,,,,,,,,,,,,,,,-0.043372396,-0.15828125,1,0,0,RTTE,RTTE,0,30,30,17,1,attentie,images/br_attentie.png,images/cb_attentie.png
,,,,,,00108,2023-11-25_16h38.46.515,vbt_B1_day1,2022.2.4,MacIntel,60.0024001,,,,,,,,,,,,,,,,,,,,,,,,,,,,,,,,,,,,,,,,,,,-0.115190972,-0.313259549,1,0,0,VIJF,VIJF,0,31,31,54,1,vijftig,images/br_vijftig.png,images/cb_vijftig.png
,,,,,,00108,2023-11-25_16h38.46.515,vbt_B1_day1,2022.2.4,MacIntel,60.0024001,,,,,,,,,,,,,,,,,,,,,,,,,,,,,,,,,,,,,,,,,,,0.171124132,0.000373264,1,0,0,TARS,TARS,0,32,32,20,1,tars,images/br_tars.png,images/cb_tars.png
,,,,,,00108,2023-11-25_16h38.46.515,vbt_B1_day1,2022.2.4,MacIntel,60.0024001,,,,,,,,,,,,,,,,,,,,,,,,,,,,,,,,,,,,,,,,,,,0.171124132,0.000373264,1,0,0,DREJ,DREJ,0,33,33,21,1,dred,images/br_dred.png,images/cb_dred.png
,,,,,,00108,2023-11-25_16h38.46.515,vbt_B1_day1,2022.2.4,MacIntel,60.0024001,,,,,,,,,,,,,,,,,,,,,,,,,,,,,,,,,,,,,,,,,,,0.294296875,0.073155382,1,0,0,STUK,STUK,0,34,34,42,1,stuk,images/br_stuk.png,images/cb_stuk.png
,,,,,,00108,2023-11-25_16h38.46.515,vbt_B1_day1,2022.2.4,MacIntel,60.0024001,,,,,,,,,,,,,,,,,,,,,,,,,,,,,,,,,,,,,,,,,,,0.326384549,0.207756076,1,0,0,HE.EL,HE.EL,0,35,35,45,1,hemel,images/br_hemel.png,images/cb_hemel.png
,,,,,,00108,2023-11-25_16h38.46.515,vbt_B1_day1,2022.2.4,MacIntel,60.0024001,,,,,,,,,,,,,,,,,,,,,,,,,,,,,,,,,,,,,,,,,,,0.463302951,0.354796007,1,0,0,BOOI,BOOI,0,36,36,23,1,booi,images/br_booi.png,images/cb_booi.png
,,,,,,00108,2023-11-25_16h38.46.515,vbt_B1_day1,2022.2.4,MacIntel,60.0024001,,,,,,,,,,,,,,,,,,,,,,,,,,,,,,,,,,,,,,,,,,,0.350729167,0.348949653,1,0,0,OPVA,OPVA,0,37,37,59,1,opvatten,images/br_opvatten.png,images/cb_opvatten.png
,,,,,,00108,2023-11-25_16h38.46.515,vbt_B1_day1,2022.2.4,MacIntel,60.0024001,,,,,,,,,,,,,,,,,,,,,,,,,,,,,,,,,,,,,,,,,,,0.350729167,0.348949653,1,0,0,,,0,38,38,44,1,wijze,images/br_wijze.png,images/cb_wijze.png
,,,,,,00108,2023-11-25_16h38.46.515,vbt_B1_day1,2022.2.4,MacIntel,60.0024001,,,,,,,,,,,,,,,,,,,,,,,,,,,,,,,,,,,,,,,,,,,0.195082465,-0.080959201,1,0,0,kla.w,kla.w,0,39,39,7,1,klauw,images/br_klauw.png,images/cb_klauw.png
,,,,,,00108,2023-11-25_16h38.46.515,vbt_B1_day1,2022.2.4,MacIntel,60.0024001,,,,,,,,,,,,,,,,,,,,,,,,,,,,,,,,,,,,,,,,,,,0.195082465,-0.080959201,1,0,0,daa,daa,0,40,40,16,1,daarheen,images/br_daarheen.png,images/cb_daarheen.png
,,,,,,00108,2023-11-25_16h38.46.515,vbt_B1_day1,2022.2.4,MacIntel,60.0024001,,,,,,,,,,,,,,,,,,,,,,,,,,,,,,,,,,,,,,,,,,,0.195082465,-0.080959201,1,0,0,oplaar,oplaar,0,41,41,32,1,opplaan,images/br_opplaan.png,images/cb_opplaan.png
,,,,,,00108,2023-11-25_16h38.46.515,vbt_B1_day1,2022.2.4,MacIntel,60.0024001,,,,,,,,,,,,,,,,,,,,,,,,,,,,,,,,,,,,,,,,,,,0.220342882,-0.071223958,1,0,0,hierv,hierv,0,42,42,15,1,hiervan,images/br_hiervan.png,images/cb_hiervan.png
,,,,,,00108,2023-11-25_16h38.46.515,vbt_B1_day1,2022.2.4,MacIntel,60.0024001,,,,,,,,,,,,,,,,,,,,,,,,,,,,,,,,,,,,,,,,,,,0.210959201,0.058372396,1,0,0,k.oi,k.oi,0,43,43,22,1,knoe,images/br_knoe.png,images/cb_knoe.png
,,,,,,00108,2023-11-25_16h38.46.515,vbt_B1_day1,2022.2.4,MacIntel,60.0024001,,,,,,,,,,,,,,,,,,,,,,,,,,,,,,,,,,,,,,,,,,,0.246111111,0.165078125,1,0,0,bleek,bleek,0,44,44,6,1,bleek,images/br_bleek.png,images/cb_bleek.png
,,,,,,00108,2023-11-25_16h38.46.515,vbt_B1_day1,2022.2.4,MacIntel,60.0024001,,,,,,,,,,,,,,,,,,,,,,,,,,,,,,,,,,,,,,,,,,,0.091072049,0.139210069,1,0,0,.ake.,.ake.,0,45,45,5,1,maken,images/br_maken.png,images/cb_maken.png
,,,,,,00108,2023-11-25_16h38.46.515,vbt_B1_day1,2022.2.4,MacIntel,60.0024001,,,,,,,,,,,,,,,,,,,,,,,,,,,,,,,,,,,,,,,,,,,0.091072049,0.139210069,1,0,0,liegen,liegen,0,46,46,50,1,liegen,images/br_liegen.png,images/cb_liegen.png
,,,,,,00108,2023-11-25_16h38.46.515,vbt_B1_day1,2022.2.4,MacIntel,60.0024001,,,,,,,,,,,,,,,,,,,,,,,,,,,,,,,,,,,,,,,,,,,0.141757812,0.163645833,1,0,0,dief,dief,0,47,47,40,1,dief,images/br_dief.png,images/cb_dief.png
,,,,,,00108,2023-11-25_16h38.46.515,vbt_B1_day1,2022.2.4,MacIntel,60.0024001,,,,,,,,,,,,,,,,,,,,,,,,,,,,,,,,,,,,,,,,,,,0.141757812,0.163645833,1,0,0,le.e.,le.e.,0,48,48,46,1,lezen,images/br_lezen.png,images/cb_lezen.png
,,,,,,00108,2023-11-25_16h38.46.515,vbt_B1_day1,2022.2.4,MacIntel,60.0024001,,,,,,,,,,,,,,,,,,,,,,,,,,,,,,,,,,,,,,,,,,,0.141757812,0.163645833,1,0,0,opsl,opsl,0,49,49,53,1,opslaan,images/br_opslaan.png,images/cb_opslaan.png
,,,,,,00108,2023-11-25_16h38.46.515,vbt_B1_day1,2022.2.4,MacIntel,60.0024001,,,,,,,,,,,,,,,,,,,,,,,,,,,,,,,,,,,,,,,,,,,0.121623264,0.297144097,1,0,0,.ee.e..,.ee.e..,0,50,50,57,1,meenemen,images/br_meenemen.png,images/cb_meenemen.png
,,,,,,00108,2023-11-25_16h38.46.515,vbt_B1_day1,2022.2.4,MacIntel,60.0024001,,,,,,,,,,,,,,,,,,,,,,,,,,,,,,,,,,,,,,,,,,,0.121623264,0.297144097,1,0,0,sta,sta,0,51,51,31,1,stamen,images/br_stamen.png,images/cb_stamen.png
,,,,,,00108,2023-11-25_16h38.46.515,vbt_B1_day1,2022.2.4,MacIntel,60.0024001,,,,,,,,,,,,,,,,,,,,,,,,,,,,,,,,,,,,,,,,,,,0.121623264,0.297144097,1,0,0,waarvan,waarvan,0,52,52,14,1,waarvan,images/br_waarvan.png,images/cb_waarvan.png
,,,,,,00108,2023-11-25_16h38.46.515,vbt_B1_day1,2022.2.4,MacIntel,60.0024001,,,,,,,,,,,,,,,,,,,,,,,,,,,,,,,,,,,,,,,,,,,0.121623264,0.297144097,1,0,0,kli,kli,0,53,53,12,1,klimmen,images/br_klimmen.png,images/cb_klimmen.png
,,,,,,00108,2023-11-25_16h38.46.515,vbt_B1_day1,2022.2.4,MacIntel,60.0024001,,,,,,,,,,,,,,,,,,,,,,,,,,,,,,,,,,,,,,,,,,,0.121623264,0.297144097,1,0,0,sch,sch,0,54,54,19,1,schuilen,images/br_schuilen.png,images/cb_schuilen.png
,,,,,,00108,2023-11-25_16h38.46.515,vbt_B1_day1,2022.2.4,MacIntel,60.0024001,,,,,,,,,,,,,,,,,,,,,,,,,,,,,,,,,,,,,,,,,,,0.121623264,0.297144097,1,0,0,teke,teke,0,55,55,55,1,tekenen,images/br_tekenen.png,images/cb_tekenen.png
,,,,,,00108,2023-11-25_16h38.46.515,vbt_B1_day1,2022.2.4,MacIntel,60.0024001,,,,,,,,,,,,,,,,,,,,,,,,,,,,,,,,,,,,,,,,,,,0.121623264,0.297144097,1,0,0,re.re,re.re,0,56,56,24,1,rezer,images/br_rezer.png,images/cb_rezer.png
,,,,,,00108,2023-11-25_16h38.46.515,vbt_B1_day1,2022.2.4,MacIntel,60.0024001,,,,,,,,,,,,,,,,,,,,,,,,,,,,,,,,,,,,,,,,,,,0.121623264,0.297144097,1,0,0,....IEK,....IEK,0,57,57,10,1,muziek,images/br_muziek.png,images/cb_muziek.png
,,,,,,00108,2023-11-25_16h38.46.515,vbt_B1_day1,2022.2.4,MacIntel,60.0024001,,,,,,,,,,,,,,,,,,,,,,,,,,,,,,,,,,,,,,,,,,,0.121623264,0.297144097,1,0,0,TOE,TOE,0,58,58,56,1,toezicht,images/br_toezicht.png,images/cb_toezicht.png
,,,,,,00108,2023-11-25_16h38.46.515,vbt_B1_day1,2022.2.4,MacIntel,60.0024001,,,,,,,,,,,,,,,,,,,,,,,,,,,,,,,,,,,,,,,,,,,0.121623264,0.297144097,1,0,0,.a.dE,.a.dE,0,59,59,3,1,mand,images/br_mand.png,images/cb_mand.png
,,,,,,00108,2023-11-25_16h38.46.515,vbt_B1_day1,2022.2.4,MacIntel,60.0024001,,,,,,,,,,,,,,,,,,,,,,,,,,,,,,,,,,,,,,,,,,,,,,,,,,,,,,,,,
