welcome_mouse.x,welcome_mouse.y,welcome_mouse.leftButton,welcome_mouse.midButton,welcome_mouse.rightButton,welcome_mouse.time,"ID",date,expName,psychopyVersion,OS,frameRate,mouse_2.x,mouse_2.y,mouse_2.leftButton,mouse_2.midButton,mouse_2.rightButton,mouse_2.time,mouse_3.x,mouse_3.y,mouse_3.leftButton,mouse_3.midButton,mouse_3.rightButton,mouse_3.time,train_mouse.x,train_mouse.y,train_mouse.leftButton,train_mouse.midButton,train_mouse.rightButton,train_mouse.time,braille_mouse.x,braille_mouse.y,braille_mouse.leftButton,braille_mouse.midButton,braille_mouse.rightButton,braille_mouse.time,trials.thisRepN,trials.thisTrialN,trials.thisN,trials.thisIndex,trials.ran,nlLet,brLet,cbLet,mouse.x,mouse.y,mouse.leftButton,mouse.midButton,mouse.rightButton,testInstr_mouse.x,testInstr_mouse.y,testInstr_mouse.leftButton,testInstr_mouse.midButton,testInstr_mouse.rightButton,test_mouse.x,test_mouse.y,test_mouse.leftButton,test_mouse.midButton,test_mouse.rightButton,test_response.text,testResp,test_loop.thisRepN,test_loop.thisTrialN,test_loop.thisN,test_loop.thisIndex,test_loop.ran,nlWrd,brWrd,cbWrd
-0.175000014,-0.237963005,1,0,0,20.0437,00029,2023-09-09_23h16.25.471,vbt_B1_day1,2022.2.4,Win32,60.62075655,,,,,,,,,,,,,,,,,,,,,,,,,,,,,,,,,,,,,,,,,,,,,,,,,,,,,,,,,
,,,,,,00029,2023-09-09_23h16.25.471,vbt_B1_day1,2022.2.4,Win32,60.62075655,-0.175000014,-0.237963005,1,0,0,1.9787,,,,,,,,,,,,,,,,,,,,,,,,,,,,,,,,,,,,,,,,,,,,,,,,,,,
,,,,,,00029,2023-09-09_23h16.25.471,vbt_B1_day1,2022.2.4,Win32,60.62075655,,,,,,,-0.175000014,-0.237963005,1,0,0,1.5476,,,,,,,,,,,,,,,,,,,,,,,,,,,,,,,,,,,,,,,,,,,,,
,,,,,,00029,2023-09-09_23h16.25.471,vbt_B1_day1,2022.2.4,Win32,60.62075655,,,,,,,,,,,,,-0.175000014,-0.237963005,1,0,0,55.0443,,,,,,,,,,,,,,,,,,,,,,,,,,,,,,,,,,,,,,,
,,,,,,00029,2023-09-09_23h16.25.471,vbt_B1_day1,2022.2.4,Win32,60.62075655,,,,,,,,,,,,,,,,,,,-0.175000014,-0.237963005,1,0,0,8.7326,0,0,0,0,1,a,images/br_a.png,images/cb_a.png,,,,,,,,,,,,,,,,,,,,,,,,,
,,,,,,00029,2023-09-09_23h16.25.471,vbt_B1_day1,2022.2.4,Win32,60.62075655,,,,,,,,,,,,,,,,,,,-0.175000014,-0.237963005,1,0,0,1.3994,0,1,1,4,1,e,images/br_e.png,images/cb_e.png,,,,,,,,,,,,,,,,,,,,,,,,,
,,,,,,00029,2023-09-09_23h16.25.471,vbt_B1_day1,2022.2.4,Win32,60.62075655,,,,,,,,,,,,,,,,,,,-0.175000014,-0.237963005,1,0,0,1.4331,0,2,2,14,1,o,images/br_o.png,images/cb_o.png,,,,,,,,,,,,,,,,,,,,,,,,,
,,,,,,00029,2023-09-09_23h16.25.471,vbt_B1_day1,2022.2.4,Win32,60.62075655,,,,,,,,,,,,,,,,,,,-0.175000014,-0.237963005,1,0,0,1.3825,0,3,3,11,1,l,images/br_l.png,images/cb_l.png,,,,,,,,,,,,,,,,,,,,,,,,,
,,,,,,00029,2023-09-09_23h16.25.471,vbt_B1_day1,2022.2.4,Win32,60.62075655,,,,,,,,,,,,,,,,,,,-0.175000014,-0.237963005,1,0,0,1.6668,0,4,4,18,1,s,images/br_s.png,images/cb_s.png,,,,,,,,,,,,,,,,,,,,,,,,,
,,,,,,00029,2023-09-09_23h16.25.471,vbt_B1_day1,2022.2.4,Win32,60.62075655,,,,,,,,,,,,,,,,,,,-0.175000014,-0.237963005,1,0,0,2.0166,0,5,5,25,1,z,images/br_z.png,images/cb_z.png,,,,,,,,,,,,,,,,,,,,,,,,,
,,,,,,00029,2023-09-09_23h16.25.471,vbt_B1_day1,2022.2.4,Win32,60.62075655,,,,,,,,,,,,,,,,,,,-0.175000014,-0.237963005,1,0,0,1.0162,0,6,6,12,1,m,images/br_m.png,images/cb_m.png,,,,,,,,,,,,,,,,,,,,,,,,,
,,,,,,00029,2023-09-09_23h16.25.471,vbt_B1_day1,2022.2.4,Win32,60.62075655,,,,,,,,,,,,,,,,,,,-0.175000014,-0.237963005,1,0,0,0.7825,0,7,7,7,1,h,images/br_h.png,images/cb_h.png,,,,,,,,,,,,,,,,,,,,,,,,,
,,,,,,00029,2023-09-09_23h16.25.471,vbt_B1_day1,2022.2.4,Win32,60.62075655,,,,,,,,,,,,,,,,,,,-0.175000014,-0.237963005,1,0,0,0.2159,0,8,8,2,1,c,images/br_c.png,images/cb_c.png,,,,,,,,,,,,,,,,,,,,,,,,,
,,,,,,00029,2023-09-09_23h16.25.471,vbt_B1_day1,2022.2.4,Win32,60.62075655,,,,,,,,,,,,,,,,,,,-0.175000014,-0.237963005,1,0,0,3.1497,0,9,9,24,1,y,images/br_y.png,images/cb_y.png,,,,,,,,,,,,,,,,,,,,,,,,,
,,,,,,00029,2023-09-09_23h16.25.471,vbt_B1_day1,2022.2.4,Win32,60.62075655,,,,,,,,,,,,,,,,,,,-0.175000014,-0.237963005,1,0,0,1.2327,0,10,10,20,1,u,images/br_u.png,images/cb_u.png,,,,,,,,,,,,,,,,,,,,,,,,,
,,,,,,00029,2023-09-09_23h16.25.471,vbt_B1_day1,2022.2.4,Win32,60.62075655,,,,,,,,,,,,,,,,,,,-0.175000014,-0.237963005,1,0,0,1.033,0,11,11,15,1,p,images/br_p.png,images/cb_p.png,,,,,,,,,,,,,,,,,,,,,,,,,
,,,,,,00029,2023-09-09_23h16.25.471,vbt_B1_day1,2022.2.4,Win32,60.62075655,,,,,,,,,,,,,,,,,,,-0.175000014,-0.237963005,1,0,0,0.9167,0,12,12,3,1,d,images/br_d.png,images/cb_d.png,,,,,,,,,,,,,,,,,,,,,,,,,
,,,,,,00029,2023-09-09_23h16.25.471,vbt_B1_day1,2022.2.4,Win32,60.62075655,,,,,,,,,,,,,,,,,,,-0.175000014,-0.237963005,1,0,0,0.7173,0,13,13,5,1,f,images/br_f.png,images/cb_f.png,,,,,,,,,,,,,,,,,,,,,,,,,
,,,,,,00029,2023-09-09_23h16.25.471,vbt_B1_day1,2022.2.4,Win32,60.62075655,,,,,,,,,,,,,,,,,,,-0.175000014,-0.237963005,1,0,0,1.8993,0,14,14,16,1,q,images/br_q.png,images/cb_q.png,,,,,,,,,,,,,,,,,,,,,,,,,
,,,,,,00029,2023-09-09_23h16.25.471,vbt_B1_day1,2022.2.4,Win32,60.62075655,,,,,,,,,,,,,,,,,,,-0.175000014,-0.237963005,1,0,0,0.6166,0,15,15,1,1,b,images/br_b.png,images/cb_b.png,,,,,,,,,,,,,,,,,,,,,,,,,
,,,,,,00029,2023-09-09_23h16.25.471,vbt_B1_day1,2022.2.4,Win32,60.62075655,,,,,,,,,,,,,,,,,,,-0.175000014,-0.237963005,1,0,0,1.183,0,16,16,23,1,x,images/br_x.png,images/cb_x.png,,,,,,,,,,,,,,,,,,,,,,,,,
,,,,,,00029,2023-09-09_23h16.25.471,vbt_B1_day1,2022.2.4,Win32,60.62075655,,,,,,,,,,,,,,,,,,,-0.175000014,-0.237963005,1,0,0,1.3497,0,17,17,19,1,t,images/br_t.png,images/cb_t.png,,,,,,,,,,,,,,,,,,,,,,,,,
,,,,,,00029,2023-09-09_23h16.25.471,vbt_B1_day1,2022.2.4,Win32,60.62075655,,,,,,,,,,,,,,,,,,,-0.175000014,-0.237963005,1,0,0,0.5498,0,18,18,8,1,i,images/br_i.png,images/cb_i.png,,,,,,,,,,,,,,,,,,,,,,,,,
,,,,,,00029,2023-09-09_23h16.25.471,vbt_B1_day1,2022.2.4,Win32,60.62075655,,,,,,,,,,,,,,,,,,,-0.175000014,-0.237963005,1,0,0,2.8494,0,19,19,13,1,n,images/br_n.png,images/cb_n.png,,,,,,,,,,,,,,,,,,,,,,,,,
,,,,,,00029,2023-09-09_23h16.25.471,vbt_B1_day1,2022.2.4,Win32,60.62075655,,,,,,,,,,,,,,,,,,,-0.175000014,-0.237963005,1,0,0,1.5993,0,20,20,22,1,w,images/br_w.png,images/cb_w.png,,,,,,,,,,,,,,,,,,,,,,,,,
,,,,,,00029,2023-09-09_23h16.25.471,vbt_B1_day1,2022.2.4,Win32,60.62075655,,,,,,,,,,,,,,,,,,,-0.175000014,-0.237963005,1,0,0,1.0999,0,21,21,17,1,r,images/br_r.png,images/cb_r.png,,,,,,,,,,,,,,,,,,,,,,,,,
,,,,,,00029,2023-09-09_23h16.25.471,vbt_B1_day1,2022.2.4,Win32,60.62075655,,,,,,,,,,,,,,,,,,,-0.175000014,-0.237963005,1,0,0,0.6828,0,22,22,6,1,g,images/br_g.png,images/cb_g.png,,,,,,,,,,,,,,,,,,,,,,,,,
,,,,,,00029,2023-09-09_23h16.25.471,vbt_B1_day1,2022.2.4,Win32,60.62075655,,,,,,,,,,,,,,,,,,,-0.175000014,-0.237963005,1,0,0,0.7663,0,23,23,9,1,j,images/br_j.png,images/cb_j.png,,,,,,,,,,,,,,,,,,,,,,,,,
,,,,,,00029,2023-09-09_23h16.25.471,vbt_B1_day1,2022.2.4,Win32,60.62075655,,,,,,,,,,,,,,,,,,,-0.175000014,-0.237963005,1,0,0,1.7995,0,24,24,10,1,k,images/br_k.png,images/cb_k.png,,,,,,,,,,,,,,,,,,,,,,,,,
,,,,,,00029,2023-09-09_23h16.25.471,vbt_B1_day1,2022.2.4,Win32,60.62075655,,,,,,,,,,,,,,,,,,,-0.175000014,-0.237963005,1,0,0,0.8496,0,25,25,21,1,v,images/br_v.png,images/cb_v.png,,,,,,,,,,,,,,,,,,,,,,,,,
,,,,,,00029,2023-09-09_23h16.25.471,vbt_B1_day1,2022.2.4,Win32,60.62075655,,,,,,,,,,,,,,,,,,,-0.175000014,-0.237963005,1,0,0,1.3334,1,0,26,17,1,r,images/br_r.png,images/cb_r.png,,,,,,,,,,,,,,,,,,,,,,,,,
,,,,,,00029,2023-09-09_23h16.25.471,vbt_B1_day1,2022.2.4,Win32,60.62075655,,,,,,,,,,,,,,,,,,,-0.175000014,-0.237963005,1,0,0,0.0663,1,1,27,4,1,e,images/br_e.png,images/cb_e.png,,,,,,,,,,,,,,,,,,,,,,,,,
,,,,,,00029,2023-09-09_23h16.25.471,vbt_B1_day1,2022.2.4,Win32,60.62075655,,,,,,,,,,,,,,,,,,,-0.175000014,-0.237963005,1,0,0,20.7985,1,2,28,10,1,k,images/br_k.png,images/cb_k.png,,,,,,,,,,,,,,,,,,,,,,,,,
,,,,,,00029,2023-09-09_23h16.25.471,vbt_B1_day1,2022.2.4,Win32,60.62075655,,,,,,,,,,,,,,,,,,,-0.175000014,-0.237963005,1,0,0,0.8331,1,3,29,20,1,u,images/br_u.png,images/cb_u.png,,,,,,,,,,,,,,,,,,,,,,,,,
,,,,,,00029,2023-09-09_23h16.25.471,vbt_B1_day1,2022.2.4,Win32,60.62075655,,,,,,,,,,,,,,,,,,,-0.175000014,-0.237963005,1,0,0,0.633,1,4,30,9,1,j,images/br_j.png,images/cb_j.png,,,,,,,,,,,,,,,,,,,,,,,,,
,,,,,,00029,2023-09-09_23h16.25.471,vbt_B1_day1,2022.2.4,Win32,60.62075655,,,,,,,,,,,,,,,,,,,-0.175000014,-0.237963005,1,0,0,0.8162,1,5,31,12,1,m,images/br_m.png,images/cb_m.png,,,,,,,,,,,,,,,,,,,,,,,,,
,,,,,,00029,2023-09-09_23h16.25.471,vbt_B1_day1,2022.2.4,Win32,60.62075655,,,,,,,,,,,,,,,,,,,-0.175000014,-0.237963005,1,0,0,0.4166,1,6,32,8,1,i,images/br_i.png,images/cb_i.png,,,,,,,,,,,,,,,,,,,,,,,,,
,,,,,,00029,2023-09-09_23h16.25.471,vbt_B1_day1,2022.2.4,Win32,60.62075655,,,,,,,,,,,,,,,,,,,-0.175000014,-0.237963005,1,0,0,1.4663,1,7,33,13,1,n,images/br_n.png,images/cb_n.png,,,,,,,,,,,,,,,,,,,,,,,,,
,,,,,,00029,2023-09-09_23h16.25.471,vbt_B1_day1,2022.2.4,Win32,60.62075655,,,,,,,,,,,,,,,,,,,-0.175000014,-0.237963005,1,0,0,1.483,1,8,34,23,1,x,images/br_x.png,images/cb_x.png,,,,,,,,,,,,,,,,,,,,,,,,,
,,,,,,00029,2023-09-09_23h16.25.471,vbt_B1_day1,2022.2.4,Win32,60.62075655,,,,,,,,,,,,,,,,,,,-0.175000014,-0.237963005,1,0,0,0.5161,1,9,35,18,1,s,images/br_s.png,images/cb_s.png,,,,,,,,,,,,,,,,,,,,,,,,,
,,,,,,00029,2023-09-09_23h16.25.471,vbt_B1_day1,2022.2.4,Win32,60.62075655,,,,,,,,,,,,,,,,,,,-0.175000014,-0.237963005,1,0,0,0.9832,1,10,36,21,1,v,images/br_v.png,images/cb_v.png,,,,,,,,,,,,,,,,,,,,,,,,,
,,,,,,00029,2023-09-09_23h16.25.471,vbt_B1_day1,2022.2.4,Win32,60.62075655,,,,,,,,,,,,,,,,,,,-0.175000014,-0.237963005,1,0,0,1.5495,1,11,37,3,1,d,images/br_d.png,images/cb_d.png,,,,,,,,,,,,,,,,,,,,,,,,,
,,,,,,00029,2023-09-09_23h16.25.471,vbt_B1_day1,2022.2.4,Win32,60.62075655,,,,,,,,,,,,,,,,,,,-0.175000014,-0.237963005,1,0,0,0.8494,1,12,38,11,1,l,images/br_l.png,images/cb_l.png,,,,,,,,,,,,,,,,,,,,,,,,,
,,,,,,00029,2023-09-09_23h16.25.471,vbt_B1_day1,2022.2.4,Win32,60.62075655,,,,,,,,,,,,,,,,,,,-0.175000014,-0.237963005,1,0,0,0.7833,1,13,39,7,1,h,images/br_h.png,images/cb_h.png,,,,,,,,,,,,,,,,,,,,,,,,,
,,,,,,00029,2023-09-09_23h16.25.471,vbt_B1_day1,2022.2.4,Win32,60.62075655,,,,,,,,,,,,,,,,,,,-0.175000014,-0.237963005,1,0,0,1.4,1,14,40,15,1,p,images/br_p.png,images/cb_p.png,,,,,,,,,,,,,,,,,,,,,,,,,
,,,,,,00029,2023-09-09_23h16.25.471,vbt_B1_day1,2022.2.4,Win32,60.62075655,,,,,,,,,,,,,,,,,,,-0.175000014,-0.237963005,1,0,0,1.1663,1,15,41,5,1,f,images/br_f.png,images/cb_f.png,,,,,,,,,,,,,,,,,,,,,,,,,
,,,,,,00029,2023-09-09_23h16.25.471,vbt_B1_day1,2022.2.4,Win32,60.62075655,,,,,,,,,,,,,,,,,,,-0.175000014,-0.237963005,1,0,0,1.3337,1,16,42,19,1,t,images/br_t.png,images/cb_t.png,,,,,,,,,,,,,,,,,,,,,,,,,
,,,,,,00029,2023-09-09_23h16.25.471,vbt_B1_day1,2022.2.4,Win32,60.62075655,,,,,,,,,,,,,,,,,,,-0.175000014,-0.237963005,1,0,0,3.8829,1,17,43,0,1,a,images/br_a.png,images/cb_a.png,,,,,,,,,,,,,,,,,,,,,,,,,
,,,,,,00029,2023-09-09_23h16.25.471,vbt_B1_day1,2022.2.4,Win32,60.62075655,,,,,,,,,,,,,,,,,,,-0.175000014,-0.237963005,1,0,0,2.283,1,18,44,22,1,w,images/br_w.png,images/cb_w.png,,,,,,,,,,,,,,,,,,,,,,,,,
,,,,,,00029,2023-09-09_23h16.25.471,vbt_B1_day1,2022.2.4,Win32,60.62075655,,,,,,,,,,,,,,,,,,,-0.175000014,-0.237963005,1,0,0,1.5666,1,19,45,25,1,z,images/br_z.png,images/cb_z.png,,,,,,,,,,,,,,,,,,,,,,,,,
,,,,,,00029,2023-09-09_23h16.25.471,vbt_B1_day1,2022.2.4,Win32,60.62075655,,,,,,,,,,,,,,,,,,,-0.175000014,-0.237963005,1,0,0,0.2499,1,20,46,1,1,b,images/br_b.png,images/cb_b.png,,,,,,,,,,,,,,,,,,,,,,,,,
,,,,,,00029,2023-09-09_23h16.25.471,vbt_B1_day1,2022.2.4,Win32,60.62075655,,,,,,,,,,,,,,,,,,,-0.175000014,-0.237963005,1,0,0,1.8997,1,21,47,16,1,q,images/br_q.png,images/cb_q.png,,,,,,,,,,,,,,,,,,,,,,,,,
,,,,,,00029,2023-09-09_23h16.25.471,vbt_B1_day1,2022.2.4,Win32,60.62075655,,,,,,,,,,,,,,,,,,,-0.175000014,-0.237963005,1,0,0,1.3664,1,22,48,6,1,g,images/br_g.png,images/cb_g.png,,,,,,,,,,,,,,,,,,,,,,,,,
,,,,,,00029,2023-09-09_23h16.25.471,vbt_B1_day1,2022.2.4,Win32,60.62075655,,,,,,,,,,,,,,,,,,,-0.175000014,-0.237963005,1,0,0,0.7832,1,23,49,14,1,o,images/br_o.png,images/cb_o.png,,,,,,,,,,,,,,,,,,,,,,,,,
,,,,,,00029,2023-09-09_23h16.25.471,vbt_B1_day1,2022.2.4,Win32,60.62075655,,,,,,,,,,,,,,,,,,,-0.175000014,-0.237963005,1,0,0,0.3167,1,24,50,2,1,c,images/br_c.png,images/cb_c.png,,,,,,,,,,,,,,,,,,,,,,,,,
,,,,,,00029,2023-09-09_23h16.25.471,vbt_B1_day1,2022.2.4,Win32,60.62075655,,,,,,,,,,,,,,,,,,,-0.175000014,-0.237963005,1,0,0,2.1158,1,25,51,24,1,y,images/br_y.png,images/cb_y.png,,,,,,,,,,,,,,,,,,,,,,,,,
,,,,,,00029,2023-09-09_23h16.25.471,vbt_B1_day1,2022.2.4,Win32,60.62075655,,,,,,,,,,,,,,,,,,,-0.175000014,-0.237963005,1,0,0,0.8504,2,0,52,18,1,s,images/br_s.png,images/cb_s.png,,,,,,,,,,,,,,,,,,,,,,,,,
,,,,,,00029,2023-09-09_23h16.25.471,vbt_B1_day1,2022.2.4,Win32,60.62075655,,,,,,,,,,,,,,,,,,,-0.175000014,-0.237963005,1,0,0,0.4997,2,1,53,11,1,l,images/br_l.png,images/cb_l.png,,,,,,,,,,,,,,,,,,,,,,,,,
,,,,,,00029,2023-09-09_23h16.25.471,vbt_B1_day1,2022.2.4,Win32,60.62075655,,,,,,,,,,,,,,,,,,,-0.175000014,-0.237963005,1,0,0,0.7507,2,2,54,12,1,m,images/br_m.png,images/cb_m.png,,,,,,,,,,,,,,,,,,,,,,,,,
,,,,,,00029,2023-09-09_23h16.25.471,vbt_B1_day1,2022.2.4,Win32,60.62075655,,,,,,,,,,,,,,,,,,,-0.175000014,-0.237963005,1,0,0,1.8997,2,3,55,25,1,z,images/br_z.png,images/cb_z.png,,,,,,,,,,,,,,,,,,,,,,,,,
,,,,,,00029,2023-09-09_23h16.25.471,vbt_B1_day1,2022.2.4,Win32,60.62075655,,,,,,,,,,,,,,,,,,,-0.175000014,-0.237963005,1,0,0,1.4496,2,4,56,20,1,u,images/br_u.png,images/cb_u.png,,,,,,,,,,,,,,,,,,,,,,,,,
,,,,,,00029,2023-09-09_23h16.25.471,vbt_B1_day1,2022.2.4,Win32,60.62075655,,,,,,,,,,,,,,,,,,,-0.175000014,-0.237963005,1,0,0,1.5823,2,5,57,6,1,g,images/br_g.png,images/cb_g.png,,,,,,,,,,,,,,,,,,,,,,,,,
,,,,,,00029,2023-09-09_23h16.25.471,vbt_B1_day1,2022.2.4,Win32,60.62075655,,,,,,,,,,,,,,,,,,,-0.175000014,-0.237963005,1,0,0,0.5994,2,6,58,7,1,h,images/br_h.png,images/cb_h.png,,,,,,,,,,,,,,,,,,,,,,,,,
,,,,,,00029,2023-09-09_23h16.25.471,vbt_B1_day1,2022.2.4,Win32,60.62075655,,,,,,,,,,,,,,,,,,,-0.175000014,-0.237963005,1,0,0,1.6331,2,7,59,10,1,k,images/br_k.png,images/cb_k.png,,,,,,,,,,,,,,,,,,,,,,,,,
,,,,,,00029,2023-09-09_23h16.25.471,vbt_B1_day1,2022.2.4,Win32,60.62075655,,,,,,,,,,,,,,,,,,,-0.175000014,-0.237963005,1,0,0,1.3832,2,8,60,15,1,p,images/br_p.png,images/cb_p.png,,,,,,,,,,,,,,,,,,,,,,,,,
,,,,,,00029,2023-09-09_23h16.25.471,vbt_B1_day1,2022.2.4,Win32,60.62075655,,,,,,,,,,,,,,,,,,,-0.175000014,-0.237963005,1,0,0,14.8487,2,9,61,14,1,o,images/br_o.png,images/cb_o.png,,,,,,,,,,,,,,,,,,,,,,,,,
,,,,,,00029,2023-09-09_23h16.25.471,vbt_B1_day1,2022.2.4,Win32,60.62075655,,,,,,,,,,,,,,,,,,,-0.175000014,-0.237963005,1,0,0,3.2325,2,10,62,16,1,q,images/br_q.png,images/cb_q.png,,,,,,,,,,,,,,,,,,,,,,,,,
,,,,,,00029,2023-09-09_23h16.25.471,vbt_B1_day1,2022.2.4,Win32,60.62075655,,,,,,,,,,,,,,,,,,,-0.175000014,-0.237963005,1,0,0,1.7329,2,11,63,0,1,a,images/br_a.png,images/cb_a.png,,,,,,,,,,,,,,,,,,,,,,,,,
,,,,,,00029,2023-09-09_23h16.25.471,vbt_B1_day1,2022.2.4,Win32,60.62075655,,,,,,,,,,,,,,,,,,,-0.175000014,-0.237963005,1,0,0,1.6324,2,12,64,13,1,n,images/br_n.png,images/cb_n.png,,,,,,,,,,,,,,,,,,,,,,,,,
,,,,,,00029,2023-09-09_23h16.25.471,vbt_B1_day1,2022.2.4,Win32,60.62075655,,,,,,,,,,,,,,,,,,,-0.175000014,-0.237963005,1,0,0,1.0002,2,13,65,21,1,v,images/br_v.png,images/cb_v.png,,,,,,,,,,,,,,,,,,,,,,,,,
,,,,,,00029,2023-09-09_23h16.25.471,vbt_B1_day1,2022.2.4,Win32,60.62075655,,,,,,,,,,,,,,,,,,,-0.175000014,-0.237963005,1,0,0,2.1669,2,14,66,2,1,c,images/br_c.png,images/cb_c.png,,,,,,,,,,,,,,,,,,,,,,,,,
,,,,,,00029,2023-09-09_23h16.25.471,vbt_B1_day1,2022.2.4,Win32,60.62075655,,,,,,,,,,,,,,,,,,,-0.175000014,-0.237963005,1,0,0,1.5,2,15,67,24,1,y,images/br_y.png,images/cb_y.png,,,,,,,,,,,,,,,,,,,,,,,,,
,,,,,,00029,2023-09-09_23h16.25.471,vbt_B1_day1,2022.2.4,Win32,60.62075655,,,,,,,,,,,,,,,,,,,-0.175000014,-0.237963005,1,0,0,1.0001,2,16,68,19,1,t,images/br_t.png,images/cb_t.png,,,,,,,,,,,,,,,,,,,,,,,,,
,,,,,,00029,2023-09-09_23h16.25.471,vbt_B1_day1,2022.2.4,Win32,60.62075655,,,,,,,,,,,,,,,,,,,-0.175000014,-0.237963005,1,0,0,2.1667,2,17,69,8,1,i,images/br_i.png,images/cb_i.png,,,,,,,,,,,,,,,,,,,,,,,,,
,,,,,,00029,2023-09-09_23h16.25.471,vbt_B1_day1,2022.2.4,Win32,60.62075655,,,,,,,,,,,,,,,,,,,-0.175000014,-0.237963005,1,0,0,1.1662,2,18,70,5,1,f,images/br_f.png,images/cb_f.png,,,,,,,,,,,,,,,,,,,,,,,,,
,,,,,,00029,2023-09-09_23h16.25.471,vbt_B1_day1,2022.2.4,Win32,60.62075655,,,,,,,,,,,,,,,,,,,-0.175000014,-0.237963005,1,0,0,8.6323,2,19,71,22,1,w,images/br_w.png,images/cb_w.png,,,,,,,,,,,,,,,,,,,,,,,,,
,,,,,,00029,2023-09-09_23h16.25.471,vbt_B1_day1,2022.2.4,Win32,60.62075655,,,,,,,,,,,,,,,,,,,-0.175000014,-0.237963005,1,0,0,1.483,2,20,72,3,1,d,images/br_d.png,images/cb_d.png,,,,,,,,,,,,,,,,,,,,,,,,,
,,,,,,00029,2023-09-09_23h16.25.471,vbt_B1_day1,2022.2.4,Win32,60.62075655,,,,,,,,,,,,,,,,,,,-0.175000014,-0.237963005,1,0,0,15.0493,2,21,73,4,1,e,images/br_e.png,images/cb_e.png,,,,,,,,,,,,,,,,,,,,,,,,,
,,,,,,00029,2023-09-09_23h16.25.471,vbt_B1_day1,2022.2.4,Win32,60.62075655,,,,,,,,,,,,,,,,,,,-0.175000014,-0.237963005,1,0,0,2.2828,2,22,74,23,1,x,images/br_x.png,images/cb_x.png,,,,,,,,,,,,,,,,,,,,,,,,,
,,,,,,00029,2023-09-09_23h16.25.471,vbt_B1_day1,2022.2.4,Win32,60.62075655,,,,,,,,,,,,,,,,,,,-0.175000014,-0.239814829,1,0,0,2.0497,2,23,75,17,1,r,images/br_r.png,images/cb_r.png,,,,,,,,,,,,,,,,,,,,,,,,,
,,,,,,00029,2023-09-09_23h16.25.471,vbt_B1_day1,2022.2.4,Win32,60.62075655,,,,,,,,,,,,,,,,,,,-0.175000014,-0.239814829,1,0,0,0.5668,2,24,76,1,1,b,images/br_b.png,images/cb_b.png,,,,,,,,,,,,,,,,,,,,,,,,,
,,,,,,00029,2023-09-09_23h16.25.471,vbt_B1_day1,2022.2.4,Win32,60.62075655,,,,,,,,,,,,,,,,,,,-0.175000014,-0.239814829,1,0,0,0.2825,2,25,77,9,1,j,images/br_j.png,images/cb_j.png,,,,,,,,,,,,,,,,,,,,,,,,,
,,,,,,00029,2023-09-09_23h16.25.471,vbt_B1_day1,2022.2.4,Win32,60.62075655,,,,,,,,,,,,,,,,,,,-0.175000014,-0.239814829,1,0,0,0.333,3,0,78,2,1,c,images/br_c.png,images/cb_c.png,,,,,,,,,,,,,,,,,,,,,,,,,
,,,,,,00029,2023-09-09_23h16.25.471,vbt_B1_day1,2022.2.4,Win32,60.62075655,,,,,,,,,,,,,,,,,,,-0.175000014,-0.239814829,1,0,0,0.9334,3,1,79,12,1,m,images/br_m.png,images/cb_m.png,,,,,,,,,,,,,,,,,,,,,,,,,
,,,,,,00029,2023-09-09_23h16.25.471,vbt_B1_day1,2022.2.4,Win32,60.62075655,,,,,,,,,,,,,,,,,,,-0.175000014,-0.239814829,1,0,0,0.4336,3,2,80,4,1,e,images/br_e.png,images/cb_e.png,,,,,,,,,,,,,,,,,,,,,,,,,
,,,,,,00029,2023-09-09_23h16.25.471,vbt_B1_day1,2022.2.4,Win32,60.62075655,,,,,,,,,,,,,,,,,,,-0.175000014,-0.239814829,1,0,0,1.3162,3,3,81,16,1,q,images/br_q.png,images/cb_q.png,,,,,,,,,,,,,,,,,,,,,,,,,
,,,,,,00029,2023-09-09_23h16.25.471,vbt_B1_day1,2022.2.4,Win32,60.62075655,,,,,,,,,,,,,,,,,,,-0.175000014,-0.239814829,1,0,0,1.5668,3,4,82,22,1,w,images/br_w.png,images/cb_w.png,,,,,,,,,,,,,,,,,,,,,,,,,
,,,,,,00029,2023-09-09_23h16.25.471,vbt_B1_day1,2022.2.4,Win32,60.62075655,,,,,,,,,,,,,,,,,,,-0.175000014,-0.239814829,1,0,0,0.2331,3,5,83,9,1,j,images/br_j.png,images/cb_j.png,,,,,,,,,,,,,,,,,,,,,,,,,
,,,,,,00029,2023-09-09_23h16.25.471,vbt_B1_day1,2022.2.4,Win32,60.62075655,,,,,,,,,,,,,,,,,,,-0.175000014,-0.239814829,1,0,0,1.0502,3,6,84,15,1,p,images/br_p.png,images/cb_p.png,,,,,,,,,,,,,,,,,,,,,,,,,
,,,,,,00029,2023-09-09_23h16.25.471,vbt_B1_day1,2022.2.4,Win32,60.62075655,,,,,,,,,,,,,,,,,,,-0.175000014,-0.239814829,1,0,0,0.1667,3,7,85,20,1,u,images/br_u.png,images/cb_u.png,,,,,,,,,,,,,,,,,,,,,,,,,
,,,,,,00029,2023-09-09_23h16.25.471,vbt_B1_day1,2022.2.4,Win32,60.62075655,,,,,,,,,,,,,,,,,,,-0.175000014,-0.239814829,1,0,0,0.3831,3,8,86,1,1,b,images/br_b.png,images/cb_b.png,,,,,,,,,,,,,,,,,,,,,,,,,
,,,,,,00029,2023-09-09_23h16.25.471,vbt_B1_day1,2022.2.4,Win32,60.62075655,,,,,,,,,,,,,,,,,,,-0.175000014,-0.239814829,1,0,0,1.1837,3,9,87,3,1,d,images/br_d.png,images/cb_d.png,,,,,,,,,,,,,,,,,,,,,,,,,
,,,,,,00029,2023-09-09_23h16.25.471,vbt_B1_day1,2022.2.4,Win32,60.62075655,,,,,,,,,,,,,,,,,,,-0.175000014,-0.239814829,1,0,0,6.9166,3,10,88,10,1,k,images/br_k.png,images/cb_k.png,,,,,,,,,,,,,,,,,,,,,,,,,
,,,,,,00029,2023-09-09_23h16.25.471,vbt_B1_day1,2022.2.4,Win32,60.62075655,,,,,,,,,,,,,,,,,,,-0.175000014,-0.239814829,1,0,0,1.1996,3,11,89,11,1,l,images/br_l.png,images/cb_l.png,,,,,,,,,,,,,,,,,,,,,,,,,
,,,,,,00029,2023-09-09_23h16.25.471,vbt_B1_day1,2022.2.4,Win32,60.62075655,,,,,,,,,,,,,,,,,,,-0.175000014,-0.239814829,1,0,0,0.3832,3,12,90,5,1,f,images/br_f.png,images/cb_f.png,,,,,,,,,,,,,,,,,,,,,,,,,
,,,,,,00029,2023-09-09_23h16.25.471,vbt_B1_day1,2022.2.4,Win32,60.62075655,,,,,,,,,,,,,,,,,,,-0.175000014,-0.239814829,1,0,0,1.2001,3,13,91,25,1,z,images/br_z.png,images/cb_z.png,,,,,,,,,,,,,,,,,,,,,,,,,
,,,,,,00029,2023-09-09_23h16.25.471,vbt_B1_day1,2022.2.4,Win32,60.62075655,,,,,,,,,,,,,,,,,,,-0.175000014,-0.239814829,1,0,0,0.9499,3,14,92,7,1,h,images/br_h.png,images/cb_h.png,,,,,,,,,,,,,,,,,,,,,,,,,
,,,,,,00029,2023-09-09_23h16.25.471,vbt_B1_day1,2022.2.4,Win32,60.62075655,,,,,,,,,,,,,,,,,,,-0.175000014,-0.239814829,1,0,0,1.683,3,15,93,0,1,a,images/br_a.png,images/cb_a.png,,,,,,,,,,,,,,,,,,,,,,,,,
,,,,,,00029,2023-09-09_23h16.25.471,vbt_B1_day1,2022.2.4,Win32,60.62075655,,,,,,,,,,,,,,,,,,,-0.175000014,-0.239814829,1,0,0,0.6659,3,16,94,18,1,s,images/br_s.png,images/cb_s.png,,,,,,,,,,,,,,,,,,,,,,,,,
,,,,,,00029,2023-09-09_23h16.25.471,vbt_B1_day1,2022.2.4,Win32,60.62075655,,,,,,,,,,,,,,,,,,,-0.175000014,-0.239814829,1,0,0,0.1834,3,17,95,19,1,t,images/br_t.png,images/cb_t.png,,,,,,,,,,,,,,,,,,,,,,,,,
,,,,,,00029,2023-09-09_23h16.25.471,vbt_B1_day1,2022.2.4,Win32,60.62075655,,,,,,,,,,,,,,,,,,,-0.175000014,-0.239814829,1,0,0,2.0999,3,18,96,6,1,g,images/br_g.png,images/cb_g.png,,,,,,,,,,,,,,,,,,,,,,,,,
,,,,,,00029,2023-09-09_23h16.25.471,vbt_B1_day1,2022.2.4,Win32,60.62075655,,,,,,,,,,,,,,,,,,,-0.175000014,-0.239814829,1,0,0,1.2168,3,19,97,17,1,r,images/br_r.png,images/cb_r.png,,,,,,,,,,,,,,,,,,,,,,,,,
,,,,,,00029,2023-09-09_23h16.25.471,vbt_B1_day1,2022.2.4,Win32,60.62075655,,,,,,,,,,,,,,,,,,,-0.175925926,-0.25,1,0,0,3.9996,3,20,98,24,1,y,images/br_y.png,images/cb_y.png,,,,,,,,,,,,,,,,,,,,,,,,,
,,,,,,00029,2023-09-09_23h16.25.471,vbt_B1_day1,2022.2.4,Win32,60.62075655,,,,,,,,,,,,,,,,,,,-0.175925926,-0.25,1,0,0,6.1499,3,21,99,13,1,n,images/br_n.png,images/cb_n.png,,,,,,,,,,,,,,,,,,,,,,,,,
,,,,,,00029,2023-09-09_23h16.25.471,vbt_B1_day1,2022.2.4,Win32,60.62075655,,,,,,,,,,,,,,,,,,,-0.175925926,-0.25,1,0,0,3.5337,3,22,100,14,1,o,images/br_o.png,images/cb_o.png,,,,,,,,,,,,,,,,,,,,,,,,,
,,,,,,00029,2023-09-09_23h16.25.471,vbt_B1_day1,2022.2.4,Win32,60.62075655,,,,,,,,,,,,,,,,,,,-0.175925926,-0.25,1,0,0,1.5664,3,23,101,23,1,x,images/br_x.png,images/cb_x.png,,,,,,,,,,,,,,,,,,,,,,,,,
,,,,,,00029,2023-09-09_23h16.25.471,vbt_B1_day1,2022.2.4,Win32,60.62075655,,,,,,,,,,,,,,,,,,,-0.175925926,-0.25,1,0,0,1.2168,3,24,102,21,1,v,images/br_v.png,images/cb_v.png,,,,,,,,,,,,,,,,,,,,,,,,,
,,,,,,00029,2023-09-09_23h16.25.471,vbt_B1_day1,2022.2.4,Win32,60.62075655,,,,,,,,,,,,,,,,,,,-0.207407422,-0.174074102,1,0,0,2.1495,3,25,103,8,1,i,images/br_i.png,images/cb_i.png,,,,,,,,,,,,,,,,,,,,,,,,,
,,,,,,00029,2023-09-09_23h16.25.471,vbt_B1_day1,2022.2.4,Win32,60.62075655,,,,,,,,,,,,,,,,,,,-0.206481439,-0.175000014,1,0,0,2.6662,4,0,104,25,1,z,images/br_z.png,images/cb_z.png,,,,,,,,,,,,,,,,,,,,,,,,,
,,,,,,00029,2023-09-09_23h16.25.471,vbt_B1_day1,2022.2.4,Win32,60.62075655,,,,,,,,,,,,,,,,,,,-0.206481439,-0.175000014,1,0,0,0.4997,4,1,105,5,1,f,images/br_f.png,images/cb_f.png,,,,,,,,,,,,,,,,,,,,,,,,,
,,,,,,00029,2023-09-09_23h16.25.471,vbt_B1_day1,2022.2.4,Win32,60.62075655,,,,,,,,,,,,,,,,,,,-0.206481439,-0.175000014,1,0,0,0.7828,4,2,106,0,1,a,images/br_a.png,images/cb_a.png,,,,,,,,,,,,,,,,,,,,,,,,,
,,,,,,00029,2023-09-09_23h16.25.471,vbt_B1_day1,2022.2.4,Win32,60.62075655,,,,,,,,,,,,,,,,,,,-0.206481439,-0.175000014,1,0,0,1.7835,4,3,107,20,1,u,images/br_u.png,images/cb_u.png,,,,,,,,,,,,,,,,,,,,,,,,,
,,,,,,00029,2023-09-09_23h16.25.471,vbt_B1_day1,2022.2.4,Win32,60.62075655,,,,,,,,,,,,,,,,,,,-0.206481439,-0.175000014,1,0,0,1.7332,4,4,108,22,1,w,images/br_w.png,images/cb_w.png,,,,,,,,,,,,,,,,,,,,,,,,,
,,,,,,00029,2023-09-09_23h16.25.471,vbt_B1_day1,2022.2.4,Win32,60.62075655,,,,,,,,,,,,,,,,,,,-0.206481439,-0.175000014,1,0,0,1.5164,4,5,109,16,1,q,images/br_q.png,images/cb_q.png,,,,,,,,,,,,,,,,,,,,,,,,,
,,,,,,00029,2023-09-09_23h16.25.471,vbt_B1_day1,2022.2.4,Win32,60.62075655,,,,,,,,,,,,,,,,,,,-0.206481439,-0.175000014,1,0,0,0.7993,4,6,110,6,1,g,images/br_g.png,images/cb_g.png,,,,,,,,,,,,,,,,,,,,,,,,,
,,,,,,00029,2023-09-09_23h16.25.471,vbt_B1_day1,2022.2.4,Win32,60.62075655,,,,,,,,,,,,,,,,,,,-0.206481439,-0.175000014,1,0,0,0.0838,4,7,111,14,1,o,images/br_o.png,images/cb_o.png,,,,,,,,,,,,,,,,,,,,,,,,,
,,,,,,00029,2023-09-09_23h16.25.471,vbt_B1_day1,2022.2.4,Win32,60.62075655,,,,,,,,,,,,,,,,,,,-0.206481439,-0.175000014,1,0,0,0.0981,4,8,112,9,1,j,images/br_j.png,images/cb_j.png,,,,,,,,,,,,,,,,,,,,,,,,,
,,,,,,00029,2023-09-09_23h16.25.471,vbt_B1_day1,2022.2.4,Win32,60.62075655,,,,,,,,,,,,,,,,,,,-0.206481439,-0.175000014,1,0,0,0.2837,4,9,113,7,1,h,images/br_h.png,images/cb_h.png,,,,,,,,,,,,,,,,,,,,,,,,,
,,,,,,00029,2023-09-09_23h16.25.471,vbt_B1_day1,2022.2.4,Win32,60.62075655,,,,,,,,,,,,,,,,,,,-0.206481439,-0.175000014,1,0,0,1.0171,4,10,114,3,1,d,images/br_d.png,images/cb_d.png,,,,,,,,,,,,,,,,,,,,,,,,,
,,,,,,00029,2023-09-09_23h16.25.471,vbt_B1_day1,2022.2.4,Win32,60.62075655,,,,,,,,,,,,,,,,,,,-0.206481439,-0.175000014,1,0,0,0.0339,4,11,115,8,1,i,images/br_i.png,images/cb_i.png,,,,,,,,,,,,,,,,,,,,,,,,,
,,,,,,00029,2023-09-09_23h16.25.471,vbt_B1_day1,2022.2.4,Win32,60.62075655,,,,,,,,,,,,,,,,,,,-0.206481439,-0.175000014,1,0,0,2.2997,4,12,116,17,1,r,images/br_r.png,images/cb_r.png,,,,,,,,,,,,,,,,,,,,,,,,,
,,,,,,00029,2023-09-09_23h16.25.471,vbt_B1_day1,2022.2.4,Win32,60.62075655,,,,,,,,,,,,,,,,,,,-0.206481439,-0.175000014,1,0,0,0.267,4,13,117,2,1,c,images/br_c.png,images/cb_c.png,,,,,,,,,,,,,,,,,,,,,,,,,
,,,,,,00029,2023-09-09_23h16.25.471,vbt_B1_day1,2022.2.4,Win32,60.62075655,,,,,,,,,,,,,,,,,,,-0.206481439,-0.175000014,1,0,0,0.9003,4,14,118,13,1,n,images/br_n.png,images/cb_n.png,,,,,,,,,,,,,,,,,,,,,,,,,
,,,,,,00029,2023-09-09_23h16.25.471,vbt_B1_day1,2022.2.4,Win32,60.62075655,,,,,,,,,,,,,,,,,,,-0.206481439,-0.175000014,1,0,0,0.2665,4,15,119,4,1,e,images/br_e.png,images/cb_e.png,,,,,,,,,,,,,,,,,,,,,,,,,
,,,,,,00029,2023-09-09_23h16.25.471,vbt_B1_day1,2022.2.4,Win32,60.62075655,,,,,,,,,,,,,,,,,,,-0.206481439,-0.175000014,1,0,0,2.2332,4,16,120,10,1,k,images/br_k.png,images/cb_k.png,,,,,,,,,,,,,,,,,,,,,,,,,
,,,,,,00029,2023-09-09_23h16.25.471,vbt_B1_day1,2022.2.4,Win32,60.62075655,,,,,,,,,,,,,,,,,,,-0.206481439,-0.175000014,1,0,0,1.4169,4,17,121,24,1,y,images/br_y.png,images/cb_y.png,,,,,,,,,,,,,,,,,,,,,,,,,
,,,,,,00029,2023-09-09_23h16.25.471,vbt_B1_day1,2022.2.4,Win32,60.62075655,,,,,,,,,,,,,,,,,,,-0.206481439,-0.175000014,1,0,0,1.0668,4,18,122,23,1,x,images/br_x.png,images/cb_x.png,,,,,,,,,,,,,,,,,,,,,,,,,
,,,,,,00029,2023-09-09_23h16.25.471,vbt_B1_day1,2022.2.4,Win32,60.62075655,,,,,,,,,,,,,,,,,,,-0.206481439,-0.175000014,1,0,0,3.6839,4,19,123,12,1,m,images/br_m.png,images/cb_m.png,,,,,,,,,,,,,,,,,,,,,,,,,
,,,,,,00029,2023-09-09_23h16.25.471,vbt_B1_day1,2022.2.4,Win32,60.62075655,,,,,,,,,,,,,,,,,,,-0.206481439,-0.175000014,1,0,0,2.8999,4,20,124,21,1,v,images/br_v.png,images/cb_v.png,,,,,,,,,,,,,,,,,,,,,,,,,
,,,,,,00029,2023-09-09_23h16.25.471,vbt_B1_day1,2022.2.4,Win32,60.62075655,,,,,,,,,,,,,,,,,,,-0.207407422,-0.175000014,1,0,0,0.6168,4,21,125,11,1,l,images/br_l.png,images/cb_l.png,,,,,,,,,,,,,,,,,,,,,,,,,
,,,,,,00029,2023-09-09_23h16.25.471,vbt_B1_day1,2022.2.4,Win32,60.62075655,,,,,,,,,,,,,,,,,,,-0.207407422,-0.175000014,1,0,0,0.0671,4,22,126,1,1,b,images/br_b.png,images/cb_b.png,,,,,,,,,,,,,,,,,,,,,,,,,
,,,,,,00029,2023-09-09_23h16.25.471,vbt_B1_day1,2022.2.4,Win32,60.62075655,,,,,,,,,,,,,,,,,,,-0.207407422,-0.175000014,1,0,0,0.7,4,23,127,15,1,p,images/br_p.png,images/cb_p.png,,,,,,,,,,,,,,,,,,,,,,,,,
,,,,,,00029,2023-09-09_23h16.25.471,vbt_B1_day1,2022.2.4,Win32,60.62075655,,,,,,,,,,,,,,,,,,,-0.207407422,-0.175000014,1,0,0,1.1994,4,24,128,19,1,t,images/br_t.png,images/cb_t.png,,,,,,,,,,,,,,,,,,,,,,,,,
,,,,,,00029,2023-09-09_23h16.25.471,vbt_B1_day1,2022.2.4,Win32,60.62075655,,,,,,,,,,,,,,,,,,,-0.207407422,-0.175000014,1,0,0,0.6994,4,25,129,18,1,s,images/br_s.png,images/cb_s.png,,,,,,,,,,,,,,,,,,,,,,,,,
,,,,,,00029,2023-09-09_23h16.25.471,vbt_B1_day1,2022.2.4,Win32,60.62075655,,,,,,,,,,,,,,,,,,,-0.237037023,-0.167592578,1,0,0,1.8493,5,0,130,24,1,y,images/br_y.png,images/cb_y.png,,,,,,,,,,,,,,,,,,,,,,,,,
,,,,,,00029,2023-09-09_23h16.25.471,vbt_B1_day1,2022.2.4,Win32,60.62075655,,,,,,,,,,,,,,,,,,,-0.237037023,-0.167592578,1,0,0,1.2666,5,1,131,23,1,x,images/br_x.png,images/cb_x.png,,,,,,,,,,,,,,,,,,,,,,,,,
,,,,,,00029,2023-09-09_23h16.25.471,vbt_B1_day1,2022.2.4,Win32,60.62075655,,,,,,,,,,,,,,,,,,,-0.237037023,-0.167592578,1,0,0,0.4996,5,2,132,8,1,i,images/br_i.png,images/cb_i.png,,,,,,,,,,,,,,,,,,,,,,,,,
,,,,,,00029,2023-09-09_23h16.25.471,vbt_B1_day1,2022.2.4,Win32,60.62075655,,,,,,,,,,,,,,,,,,,-0.237037023,-0.167592578,1,0,0,1.2994,5,3,133,0,1,a,images/br_a.png,images/cb_a.png,,,,,,,,,,,,,,,,,,,,,,,,,
,,,,,,00029,2023-09-09_23h16.25.471,vbt_B1_day1,2022.2.4,Win32,60.62075655,,,,,,,,,,,,,,,,,,,-0.237037023,-0.167592578,1,0,0,0.6662,5,4,134,9,1,j,images/br_j.png,images/cb_j.png,,,,,,,,,,,,,,,,,,,,,,,,,
,,,,,,00029,2023-09-09_23h16.25.471,vbt_B1_day1,2022.2.4,Win32,60.62075655,,,,,,,,,,,,,,,,,,,-0.237037023,-0.167592578,0,0,1,2.6328,5,5,135,12,1,m,images/br_m.png,images/cb_m.png,,,,,,,,,,,,,,,,,,,,,,,,,
,,,,,,00029,2023-09-09_23h16.25.471,vbt_B1_day1,2022.2.4,Win32,60.62075655,,,,,,,,,,,,,,,,,,,0.196296339,0.041666667,1,0,0,2.7327,5,6,136,2,1,c,images/br_c.png,images/cb_c.png,,,,,,,,,,,,,,,,,,,,,,,,,
,,,,,,00029,2023-09-09_23h16.25.471,vbt_B1_day1,2022.2.4,Win32,60.62075655,,,,,,,,,,,,,,,,,,,0.100000028,0.065740727,1,0,0,1.8329,5,7,137,13,1,n,images/br_n.png,images/cb_n.png,,,,,,,,,,,,,,,,,,,,,,,,,
,,,,,,00029,2023-09-09_23h16.25.471,vbt_B1_day1,2022.2.4,Win32,60.62075655,,,,,,,,,,,,,,,,,,,0.100000028,0.065740727,1,0,0,10.3152,5,8,138,4,1,e,images/br_e.png,images/cb_e.png,,,,,,,,,,,,,,,,,,,,,,,,,
,,,,,,00029,2023-09-09_23h16.25.471,vbt_B1_day1,2022.2.4,Win32,60.62075655,,,,,,,,,,,,,,,,,,,0.100000028,0.065740727,1,0,0,5.4997,5,9,139,22,1,w,images/br_w.png,images/cb_w.png,,,,,,,,,,,,,,,,,,,,,,,,,
,,,,,,00029,2023-09-09_23h16.25.471,vbt_B1_day1,2022.2.4,Win32,60.62075655,,,,,,,,,,,,,,,,,,,0.100000028,0.065740727,1,0,0,2.4691,5,10,140,25,1,z,images/br_z.png,images/cb_z.png,,,,,,,,,,,,,,,,,,,,,,,,,
,,,,,,00029,2023-09-09_23h16.25.471,vbt_B1_day1,2022.2.4,Win32,60.62075655,,,,,,,,,,,,,,,,,,,0.100000028,0.065740727,0,0,1,0.6331,5,11,141,3,1,d,images/br_d.png,images/cb_d.png,,,,,,,,,,,,,,,,,,,,,,,,,
,,,,,,00029,2023-09-09_23h16.25.471,vbt_B1_day1,2022.2.4,Win32,60.62075655,,,,,,,,,,,,,,,,,,,0.099074116,0.066666674,1,0,0,1.1666,5,12,142,6,1,g,images/br_g.png,images/cb_g.png,,,,,,,,,,,,,,,,,,,,,,,,,
,,,,,,00029,2023-09-09_23h16.25.471,vbt_B1_day1,2022.2.4,Win32,60.62075655,,,,,,,,,,,,,,,,,,,0.100000028,0.065740727,1,0,0,0.8003,5,13,143,21,1,v,images/br_v.png,images/cb_v.png,,,,,,,,,,,,,,,,,,,,,,,,,
,,,,,,00029,2023-09-09_23h16.25.471,vbt_B1_day1,2022.2.4,Win32,60.62075655,,,,,,,,,,,,,,,,,,,0.08148151,0.074999986,1,0,0,1.4162,5,14,144,7,1,h,images/br_h.png,images/cb_h.png,,,,,,,,,,,,,,,,,,,,,,,,,
,,,,,,00029,2023-09-09_23h16.25.471,vbt_B1_day1,2022.2.4,Win32,60.62075655,,,,,,,,,,,,,,,,,,,0.08148151,0.074999986,1,0,0,0.8334,5,15,145,17,1,r,images/br_r.png,images/cb_r.png,,,,,,,,,,,,,,,,,,,,,,,,,
,,,,,,00029,2023-09-09_23h16.25.471,vbt_B1_day1,2022.2.4,Win32,60.62075655,,,,,,,,,,,,,,,,,,,0.063888903,0.079629616,1,0,0,1.133,5,16,146,5,1,f,images/br_f.png,images/cb_f.png,,,,,,,,,,,,,,,,,,,,,,,,,
,,,,,,00029,2023-09-09_23h16.25.471,vbt_B1_day1,2022.2.4,Win32,60.62075655,,,,,,,,,,,,,,,,,,,0.063888903,0.079629616,1,0,0,0.7164,5,17,147,20,1,u,images/br_u.png,images/cb_u.png,,,,,,,,,,,,,,,,,,,,,,,,,
,,,,,,00029,2023-09-09_23h16.25.471,vbt_B1_day1,2022.2.4,Win32,60.62075655,,,,,,,,,,,,,,,,,,,0.063888903,0.079629616,1,0,0,0.9999,5,18,148,19,1,t,images/br_t.png,images/cb_t.png,,,,,,,,,,,,,,,,,,,,,,,,,
,,,,,,00029,2023-09-09_23h16.25.471,vbt_B1_day1,2022.2.4,Win32,60.62075655,,,,,,,,,,,,,,,,,,,0.061111097,0.083333333,1,0,0,0.9666,5,19,149,18,1,s,images/br_s.png,images/cb_s.png,,,,,,,,,,,,,,,,,,,,,,,,,
,,,,,,00029,2023-09-09_23h16.25.471,vbt_B1_day1,2022.2.4,Win32,60.62075655,,,,,,,,,,,,,,,,,,,0.061111097,0.083333333,1,0,0,11.632,5,20,150,16,1,q,images/br_q.png,images/cb_q.png,,,,,,,,,,,,,,,,,,,,,,,,,
,,,,,,00029,2023-09-09_23h16.25.471,vbt_B1_day1,2022.2.4,Win32,60.62075655,,,,,,,,,,,,,,,,,,,0.061111097,0.083333333,1,0,0,1.317,5,21,151,10,1,k,images/br_k.png,images/cb_k.png,,,,,,,,,,,,,,,,,,,,,,,,,
,,,,,,00029,2023-09-09_23h16.25.471,vbt_B1_day1,2022.2.4,Win32,60.62075655,,,,,,,,,,,,,,,,,,,0.061111097,0.083333333,1,0,0,0.4332,5,22,152,14,1,o,images/br_o.png,images/cb_o.png,,,,,,,,,,,,,,,,,,,,,,,,,
,,,,,,00029,2023-09-09_23h16.25.471,vbt_B1_day1,2022.2.4,Win32,60.62075655,,,,,,,,,,,,,,,,,,,0.061111097,0.083333333,1,0,0,1.1501,5,23,153,15,1,p,images/br_p.png,images/cb_p.png,,,,,,,,,,,,,,,,,,,,,,,,,
,,,,,,00029,2023-09-09_23h16.25.471,vbt_B1_day1,2022.2.4,Win32,60.62075655,,,,,,,,,,,,,,,,,,,0.061111097,0.083333333,1,0,0,0.1831,5,24,154,11,1,l,images/br_l.png,images/cb_l.png,,,,,,,,,,,,,,,,,,,,,,,,,
,,,,,,00029,2023-09-09_23h16.25.471,vbt_B1_day1,2022.2.4,Win32,60.62075655,,,,,,,,,,,,,,,,,,,0.061111097,0.083333333,1,0,0,0.6166,5,25,155,1,1,b,images/br_b.png,images/cb_b.png,,,,,,,,,,,,,,,,,,,,,,,,,
,,,,,,00029,2023-09-09_23h16.25.471,vbt_B1_day1,2022.2.4,Win32,60.62075655,,,,,,,,,,,,,,,,,,,0.061111097,0.083333333,1,0,0,1.6834,6,0,156,6,1,g,images/br_g.png,images/cb_g.png,,,,,,,,,,,,,,,,,,,,,,,,,
,,,,,,00029,2023-09-09_23h16.25.471,vbt_B1_day1,2022.2.4,Win32,60.62075655,,,,,,,,,,,,,,,,,,,0.061111097,0.083333333,1,0,0,1.1167,6,1,157,17,1,r,images/br_r.png,images/cb_r.png,,,,,,,,,,,,,,,,,,,,,,,,,
,,,,,,00029,2023-09-09_23h16.25.471,vbt_B1_day1,2022.2.4,Win32,60.62075655,,,,,,,,,,,,,,,,,,,0.061111097,0.083333333,1,0,0,0.6333,6,2,158,2,1,c,images/br_c.png,images/cb_c.png,,,,,,,,,,,,,,,,,,,,,,,,,
,,,,,,00029,2023-09-09_23h16.25.471,vbt_B1_day1,2022.2.4,Win32,60.62075655,,,,,,,,,,,,,,,,,,,0.061111097,0.083333333,1,0,0,1.1329,6,3,159,19,1,t,images/br_t.png,images/cb_t.png,,,,,,,,,,,,,,,,,,,,,,,,,
,,,,,,00029,2023-09-09_23h16.25.471,vbt_B1_day1,2022.2.4,Win32,60.62075655,,,,,,,,,,,,,,,,,,,0.061111097,0.083333333,1,0,0,0.0828,6,4,160,11,1,l,images/br_l.png,images/cb_l.png,,,,,,,,,,,,,,,,,,,,,,,,,
,,,,,,00029,2023-09-09_23h16.25.471,vbt_B1_day1,2022.2.4,Win32,60.62075655,,,,,,,,,,,,,,,,,,,0.061111097,0.083333333,1,0,0,0.8993,6,5,161,23,1,x,images/br_x.png,images/cb_x.png,,,,,,,,,,,,,,,,,,,,,,,,,
,,,,,,00029,2023-09-09_23h16.25.471,vbt_B1_day1,2022.2.4,Win32,60.62075655,,,,,,,,,,,,,,,,,,,0.061111097,0.083333333,1,0,0,0.0664,6,6,162,1,1,b,images/br_b.png,images/cb_b.png,,,,,,,,,,,,,,,,,,,,,,,,,
,,,,,,00029,2023-09-09_23h16.25.471,vbt_B1_day1,2022.2.4,Win32,60.62075655,,,,,,,,,,,,,,,,,,,0.061111097,0.083333333,1,0,0,1.6998,6,7,163,5,1,f,images/br_f.png,images/cb_f.png,,,,,,,,,,,,,,,,,,,,,,,,,
,,,,,,00029,2023-09-09_23h16.25.471,vbt_B1_day1,2022.2.4,Win32,60.62075655,,,,,,,,,,,,,,,,,,,0.061111097,0.083333333,1,0,0,1.483,6,8,164,22,1,w,images/br_w.png,images/cb_w.png,,,,,,,,,,,,,,,,,,,,,,,,,
,,,,,,00029,2023-09-09_23h16.25.471,vbt_B1_day1,2022.2.4,Win32,60.62075655,,,,,,,,,,,,,,,,,,,0.061111097,0.083333333,1,0,0,0.2662,6,9,165,18,1,s,images/br_s.png,images/cb_s.png,,,,,,,,,,,,,,,,,,,,,,,,,
,,,,,,00029,2023-09-09_23h16.25.471,vbt_B1_day1,2022.2.4,Win32,60.62075655,,,,,,,,,,,,,,,,,,,0.061111097,0.083333333,1,0,0,1.017,6,10,166,25,1,z,images/br_z.png,images/cb_z.png,,,,,,,,,,,,,,,,,,,,,,,,,
,,,,,,00029,2023-09-09_23h16.25.471,vbt_B1_day1,2022.2.4,Win32,60.62075655,,,,,,,,,,,,,,,,,,,0.061111097,0.083333333,1,0,0,1.8496,6,11,167,10,1,k,images/br_k.png,images/cb_k.png,,,,,,,,,,,,,,,,,,,,,,,,,
,,,,,,00029,2023-09-09_23h16.25.471,vbt_B1_day1,2022.2.4,Win32,60.62075655,,,,,,,,,,,,,,,,,,,0.061111097,0.083333333,1,0,0,0.4996,6,12,168,9,1,j,images/br_j.png,images/cb_j.png,,,,,,,,,,,,,,,,,,,,,,,,,
,,,,,,00029,2023-09-09_23h16.25.471,vbt_B1_day1,2022.2.4,Win32,60.62075655,,,,,,,,,,,,,,,,,,,0.061111097,0.083333333,1,0,0,1.0168,6,13,169,0,1,a,images/br_a.png,images/cb_a.png,,,,,,,,,,,,,,,,,,,,,,,,,
,,,,,,00029,2023-09-09_23h16.25.471,vbt_B1_day1,2022.2.4,Win32,60.62075655,,,,,,,,,,,,,,,,,,,0.061111097,0.083333333,1,0,0,0.6996,6,14,170,7,1,h,images/br_h.png,images/cb_h.png,,,,,,,,,,,,,,,,,,,,,,,,,
,,,,,,00029,2023-09-09_23h16.25.471,vbt_B1_day1,2022.2.4,Win32,60.62075655,,,,,,,,,,,,,,,,,,,0.061111097,0.083333333,1,0,0,1.9162,6,15,171,16,1,q,images/br_q.png,images/cb_q.png,,,,,,,,,,,,,,,,,,,,,,,,,
,,,,,,00029,2023-09-09_23h16.25.471,vbt_B1_day1,2022.2.4,Win32,60.62075655,,,,,,,,,,,,,,,,,,,0.061111097,0.083333333,1,0,0,0.7997,6,16,172,15,1,p,images/br_p.png,images/cb_p.png,,,,,,,,,,,,,,,,,,,,,,,,,
,,,,,,00029,2023-09-09_23h16.25.471,vbt_B1_day1,2022.2.4,Win32,60.62075655,,,,,,,,,,,,,,,,,,,0.061111097,0.083333333,1,0,0,0.5664,6,17,173,3,1,d,images/br_d.png,images/cb_d.png,,,,,,,,,,,,,,,,,,,,,,,,,
,,,,,,00029,2023-09-09_23h16.25.471,vbt_B1_day1,2022.2.4,Win32,60.62075655,,,,,,,,,,,,,,,,,,,0.061111097,0.083333333,1,0,0,0.3004,6,18,174,14,1,o,images/br_o.png,images/cb_o.png,,,,,,,,,,,,,,,,,,,,,,,,,
,,,,,,00029,2023-09-09_23h16.25.471,vbt_B1_day1,2022.2.4,Win32,60.62075655,,,,,,,,,,,,,,,,,,,0.061111097,0.083333333,1,0,0,1.3164,6,19,175,24,1,y,images/br_y.png,images/cb_y.png,,,,,,,,,,,,,,,,,,,,,,,,,
,,,,,,00029,2023-09-09_23h16.25.471,vbt_B1_day1,2022.2.4,Win32,60.62075655,,,,,,,,,,,,,,,,,,,0.061111097,0.083333333,1,0,0,0.9498,6,20,176,12,1,m,images/br_m.png,images/cb_m.png,,,,,,,,,,,,,,,,,,,,,,,,,
,,,,,,00029,2023-09-09_23h16.25.471,vbt_B1_day1,2022.2.4,Win32,60.62075655,,,,,,,,,,,,,,,,,,,0.061111097,0.083333333,1,0,0,1.6328,6,21,177,13,1,n,images/br_n.png,images/cb_n.png,,,,,,,,,,,,,,,,,,,,,,,,,
,,,,,,00029,2023-09-09_23h16.25.471,vbt_B1_day1,2022.2.4,Win32,60.62075655,,,,,,,,,,,,,,,,,,,0.061111097,0.083333333,1,0,0,0.7328,6,22,178,8,1,i,images/br_i.png,images/cb_i.png,,,,,,,,,,,,,,,,,,,,,,,,,
,,,,,,00029,2023-09-09_23h16.25.471,vbt_B1_day1,2022.2.4,Win32,60.62075655,,,,,,,,,,,,,,,,,,,0.061111097,0.083333333,1,0,0,3.0669,6,23,179,4,1,e,images/br_e.png,images/cb_e.png,,,,,,,,,,,,,,,,,,,,,,,,,
,,,,,,00029,2023-09-09_23h16.25.471,vbt_B1_day1,2022.2.4,Win32,60.62075655,,,,,,,,,,,,,,,,,,,0.061111097,0.083333333,1,0,0,0.6515,6,24,180,21,1,v,images/br_v.png,images/cb_v.png,,,,,,,,,,,,,,,,,,,,,,,,,
,,,,,,00029,2023-09-09_23h16.25.471,vbt_B1_day1,2022.2.4,Win32,60.62075655,,,,,,,,,,,,,,,,,,,0.061111097,0.083333333,1,0,0,1.217,6,25,181,20,1,u,images/br_u.png,images/cb_u.png,,,,,,,,,,,,,,,,,,,,,,,,,
,,,,,,00029,2023-09-09_23h16.25.471,vbt_B1_day1,2022.2.4,Win32,60.62075655,,,,,,,,,,,,,,,,,,,,,,,,,,,,,,,,,0.085185228,0.123148141,1,0,0,,,,,,,,,,,,,,,,,,,,
,,,,,,00029,2023-09-09_23h16.25.471,vbt_B1_day1,2022.2.4,Win32,60.62075655,,,,,,,,,,,,,,,,,,,,,,,,,,,,,,,,,,,,,,0.085185228,0.123148141,1,0,0,,,,,,,,,,,,,,,
,,,,,,00029,2023-09-09_23h16.25.471,vbt_B1_day1,2022.2.4,Win32,60.62075655,,,,,,,,,,,,,,,,,,,,,,,,,,,,,,,,,,,,,,,,,,,0.085185228,0.123148141,1,0,0,la...,la...,0,0,0,47,1,loods,images/br_loods.png,images/cb_loods.png
,,,,,,00029,2023-09-09_23h16.25.471,vbt_B1_day1,2022.2.4,Win32,60.62075655,,,,,,,,,,,,,,,,,,,,,,,,,,,,,,,,,,,,,,,,,,,0.085185228,0.123148141,1,0,0,lbe..,lbe..,0,1,1,50,1,liegen,images/br_liegen.png,images/cb_liegen.png
,,,,,,00029,2023-09-09_23h16.25.471,vbt_B1_day1,2022.2.4,Win32,60.62075655,,,,,,,,,,,,,,,,,,,,,,,,,,,,,,,,,,,,,,,,,,,0.085185228,0.123148141,1,0,0,yeea..,yeea..,0,2,2,30,1,reedje,images/br_reedje.png,images/cb_reedje.png
,,,,,,00029,2023-09-09_23h16.25.471,vbt_B1_day1,2022.2.4,Win32,60.62075655,,,,,,,,,,,,,,,,,,,,,,,,,,,,,,,,,,,,,,,,,,,0.085185228,0.123148141,1,0,0,,,0,3,3,46,1,lezen,images/br_lezen.png,images/cb_lezen.png
,,,,,,00029,2023-09-09_23h16.25.471,vbt_B1_day1,2022.2.4,Win32,60.62075655,,,,,,,,,,,,,,,,,,,,,,,,,,,,,,,,,,,,,,,,,,,0.085185228,0.123148141,1,0,0,schielen,schielen,0,4,4,38,1,schielen,images/br_schielen.png,images/cb_schielen.png
,,,,,,00029,2023-09-09_23h16.25.471,vbt_B1_day1,2022.2.4,Win32,60.62075655,,,,,,,,,,,,,,,,,,,,,,,,,,,,,,,,,,,,,,,,,,,0.085185228,0.123148141,1,0,0,,,0,5,5,22,1,knoe,images/br_knoe.png,images/cb_knoe.png
,,,,,,00029,2023-09-09_23h16.25.471,vbt_B1_day1,2022.2.4,Win32,60.62075655,,,,,,,,,,,,,,,,,,,,,,,,,,,,,,,,,,,,,,,,,,,0.217592593,-0.187037079,1,0,0,bleek,bleek,0,6,6,6,1,bleek,images/br_bleek.png,images/cb_bleek.png
,,,,,,00029,2023-09-09_23h16.25.471,vbt_B1_day1,2022.2.4,Win32,60.62075655,,,,,,,,,,,,,,,,,,,,,,,,,,,,,,,,,,,,,,,,,,,0.217592593,-0.187037079,1,0,0,klvvw,klvvw,0,7,7,7,1,klauw,images/br_klauw.png,images/cb_klauw.png
,,,,,,00029,2023-09-09_23h16.25.471,vbt_B1_day1,2022.2.4,Win32,60.62075655,,,,,,,,,,,,,,,,,,,,,,,,,,,,,,,,,,,,,,,,,,,0.397222307,-0.178703732,1,0,0,vervrden,vervrden,0,8,8,36,1,vervaden,images/br_vervaden.png,images/cb_vervaden.png
,,,,,,00029,2023-09-09_23h16.25.471,vbt_B1_day1,2022.2.4,Win32,60.62075655,,,,,,,,,,,,,,,,,,,,,,,,,,,,,,,,,,,,,,,,,,,0.397222307,-0.178703732,1,0,0,pirprdin,pirprdin,0,9,9,5,1,maken,images/br_maken.png,images/cb_maken.png
,,,,,,00029,2023-09-09_23h16.25.471,vbt_B1_day1,2022.2.4,Win32,60.62075655,,,,,,,,,,,,,,,,,,,,,,,,,,,,,,,,,,,,,,,,,,,0.397222307,-0.178703732,1,0,0,flmllen,flmllen,0,10,10,33,1,flullen,images/br_flullen.png,images/cb_flullen.png
,,,,,,00029,2023-09-09_23h16.25.471,vbt_B1_day1,2022.2.4,Win32,60.62075655,,,,,,,,,,,,,,,,,,,,,,,,,,,,,,,,,,,,,,,,,,,0.397222307,-0.178703732,1,0,0,uitjlet,uitjlet,0,11,11,18,1,uitdelen,images/br_uitdelen.png,images/cb_uitdelen.png
,,,,,,00029,2023-09-09_23h16.25.471,vbt_B1_day1,2022.2.4,Win32,60.62075655,,,,,,,,,,,,,,,,,,,,,,,,,,,,,,,,,,,,,,,,,,,0.397222307,-0.178703732,1,0,0,vee...,vee...,0,12,12,24,1,rezer,images/br_rezer.png,images/cb_rezer.png
,,,,,,00029,2023-09-09_23h16.25.471,vbt_B1_day1,2022.2.4,Win32,60.62075655,,,,,,,,,,,,,,,,,,,,,,,,,,,,,,,,,,,,,,,,,,,0.397222307,-0.178703732,1,0,0,daar.ee.,daar.ee.,0,13,13,16,1,daarheen,images/br_daarheen.png,images/cb_daarheen.png
,,,,,,00029,2023-09-09_23h16.25.471,vbt_B1_day1,2022.2.4,Win32,60.62075655,,,,,,,,,,,,,,,,,,,,,,,,,,,,,,,,,,,,,,,,,,,0.397222307,-0.178703732,1,0,0,tvr.,tvr.,0,14,14,20,1,tars,images/br_tars.png,images/cb_tars.png
,,,,,,00029,2023-09-09_23h16.25.471,vbt_B1_day1,2022.2.4,Win32,60.62075655,,,,,,,,,,,,,,,,,,,,,,,,,,,,,,,,,,,,,,,,,,,0.397222307,-0.178703732,1,0,0,......,......,0,15,15,58,1,voorkeur,images/br_voorkeur.png,images/cb_voorkeur.png
,,,,,,00029,2023-09-09_23h16.25.471,vbt_B1_day1,2022.2.4,Win32,60.62075655,,,,,,,,,,,,,,,,,,,,,,,,,,,,,,,,,,,,,,,,,,,0.397222307,-0.178703732,1,0,0,sl..,sl..,0,16,16,0,1,slak,images/br_slak.png,images/cb_slak.png
,,,,,,00029,2023-09-09_23h16.25.471,vbt_B1_day1,2022.2.4,Win32,60.62075655,,,,,,,,,,,,,,,,,,,,,,,,,,,,,,,,,,,,,,,,,,,0.397222307,-0.178703732,1,0,0,.....,.....,0,17,17,19,1,schuilen,images/br_schuilen.png,images/cb_schuilen.png
,,,,,,00029,2023-09-09_23h16.25.471,vbt_B1_day1,2022.2.4,Win32,60.62075655,,,,,,,,,,,,,,,,,,,,,,,,,,,,,,,,,,,,,,,,,,,0.397222307,-0.178703732,1,0,0,mic..,mic..,0,18,18,48,1,fictie,images/br_fictie.png,images/cb_fictie.png
,,,,,,00029,2023-09-09_23h16.25.471,vbt_B1_day1,2022.2.4,Win32,60.62075655,,,,,,,,,,,,,,,,,,,,,,,,,,,,,,,,,,,,,,,,,,,0.397222307,-0.178703732,1,0,0,kli...,kli...,0,19,19,12,1,klimmen,images/br_klimmen.png,images/cb_klimmen.png
,,,,,,00029,2023-09-09_23h16.25.471,vbt_B1_day1,2022.2.4,Win32,60.62075655,,,,,,,,,,,,,,,,,,,,,,,,,,,,,,,,,,,,,,,,,,,0.397222307,-0.178703732,1,0,0,.uwie.,.uwie.,0,20,20,10,1,muziek,images/br_muziek.png,images/cb_muziek.png
,,,,,,00029,2023-09-09_23h16.25.471,vbt_B1_day1,2022.2.4,Win32,60.62075655,,,,,,,,,,,,,,,,,,,,,,,,,,,,,,,,,,,,,,,,,,,0.397222307,-0.178703732,1,0,0,lo..,lo..,0,21,21,34,1,lochten,images/br_lochten.png,images/cb_lochten.png
,,,,,,00029,2023-09-09_23h16.25.471,vbt_B1_day1,2022.2.4,Win32,60.62075655,,,,,,,,,,,,,,,,,,,,,,,,,,,,,,,,,,,,,,,,,,,0.304629714,-0.071296303,1,0,0,ki..e,ki..e,0,22,22,44,1,wijze,images/br_wijze.png,images/cb_wijze.png
,,,,,,00029,2023-09-09_23h16.25.471,vbt_B1_day1,2022.2.4,Win32,60.62075655,,,,,,,,,,,,,,,,,,,,,,,,,,,,,,,,,,,,,,,,,,,0.304629714,-0.071296303,1,0,0,....e,....e,0,23,23,54,1,vijftig,images/br_vijftig.png,images/cb_vijftig.png
,,,,,,00029,2023-09-09_23h16.25.471,vbt_B1_day1,2022.2.4,Win32,60.62075655,,,,,,,,,,,,,,,,,,,,,,,,,,,,,,,,,,,,,,,,,,,0.304629714,-0.071296303,1,0,0,d..d,d..d,0,24,24,21,1,dred,images/br_dred.png,images/cb_dred.png
,,,,,,00029,2023-09-09_23h16.25.471,vbt_B1_day1,2022.2.4,Win32,60.62075655,,,,,,,,,,,,,,,,,,,,,,,,,,,,,,,,,,,,,,,,,,,0.304629714,-0.071296303,1,0,0,p..d,p..d,0,25,25,3,1,mand,images/br_mand.png,images/cb_mand.png
,,,,,,00029,2023-09-09_23h16.25.471,vbt_B1_day1,2022.2.4,Win32,60.62075655,,,,,,,,,,,,,,,,,,,,,,,,,,,,,,,,,,,,,,,,,,,0.304629714,-0.071296303,1,0,0,....ed,....ed,0,26,26,8,1,kanjer,images/br_kanjer.png,images/cb_kanjer.png
,,,,,,00029,2023-09-09_23h16.25.471,vbt_B1_day1,2022.2.4,Win32,60.62075655,,,,,,,,,,,,,,,,,,,,,,,,,,,,,,,,,,,,,,,,,,,0.304629714,-0.071296303,1,0,0,dief,dief,0,27,27,40,1,dief,images/br_dief.png,images/cb_dief.png
,,,,,,00029,2023-09-09_23h16.25.471,vbt_B1_day1,2022.2.4,Win32,60.62075655,,,,,,,,,,,,,,,,,,,,,,,,,,,,,,,,,,,,,,,,,,,0.304629714,-0.071296303,1,0,0,.....,.....,0,28,28,4,1,schep,images/br_schep.png,images/cb_schep.png
,,,,,,00029,2023-09-09_23h16.25.471,vbt_B1_day1,2022.2.4,Win32,60.62075655,,,,,,,,,,,,,,,,,,,,,,,,,,,,,,,,,,,,,,,,,,,0.304629714,-0.071296303,1,0,0,sp...,sp...,0,29,29,37,1,spanzing,images/br_spanzing.png,images/cb_spanzing.png
,,,,,,00029,2023-09-09_23h16.25.471,vbt_B1_day1,2022.2.4,Win32,60.62075655,,,,,,,,,,,,,,,,,,,,,,,,,,,,,,,,,,,,,,,,,,,0.304629714,-0.071296303,1,0,0,lie...,lie...,0,30,30,51,1,liefde,images/br_liefde.png,images/cb_liefde.png
,,,,,,00029,2023-09-09_23h16.25.471,vbt_B1_day1,2022.2.4,Win32,60.62075655,,,,,,,,,,,,,,,,,,,,,,,,,,,,,,,,,,,,,,,,,,,0.304629714,-0.071296303,1,0,0,pr...,pr...,0,31,31,27,1,prort,images/br_prort.png,images/cb_prort.png
,,,,,,00029,2023-09-09_23h16.25.471,vbt_B1_day1,2022.2.4,Win32,60.62075655,,,,,,,,,,,,,,,,,,,,,,,,,,,,,,,,,,,,,,,,,,,0.304629714,-0.071296303,1,0,0,lr...,lr...,0,32,32,43,1,lava,images/br_lava.png,images/cb_lava.png
,,,,,,00029,2023-09-09_23h16.25.471,vbt_B1_day1,2022.2.4,Win32,60.62075655,,,,,,,,,,,,,,,,,,,,,,,,,,,,,,,,,,,,,,,,,,,0.304629714,-0.071296303,1,0,0,.....,.....,0,33,33,9,1,dubbel,images/br_dubbel.png,images/cb_dubbel.png
,,,,,,00029,2023-09-09_23h16.25.471,vbt_B1_day1,2022.2.4,Win32,60.62075655,,,,,,,,,,,,,,,,,,,,,,,,,,,,,,,,,,,,,,,,,,,0.304629714,-0.071296303,1,0,0,.....,.....,0,34,34,28,1,bebrip,images/br_bebrip.png,images/cb_bebrip.png
,,,,,,00029,2023-09-09_23h16.25.471,vbt_B1_day1,2022.2.4,Win32,60.62075655,,,,,,,,,,,,,,,,,,,,,,,,,,,,,,,,,,,,,,,,,,,0.304629714,-0.071296303,1,0,0,....,....,0,35,35,42,1,stuk,images/br_stuk.png,images/cb_stuk.png
,,,,,,00029,2023-09-09_23h16.25.471,vbt_B1_day1,2022.2.4,Win32,60.62075655,,,,,,,,,,,,,,,,,,,,,,,,,,,,,,,,,,,,,,,,,,,0.304629714,-0.071296303,1,0,0,sr...,sr...,0,36,36,35,1,stuikem,images/br_stuikem.png,images/cb_stuikem.png
,,,,,,00029,2023-09-09_23h16.25.471,vbt_B1_day1,2022.2.4,Win32,60.62075655,,,,,,,,,,,,,,,,,,,,,,,,,,,,,,,,,,,,,,,,,,,0.304629714,-0.071296303,1,0,0,si.e..,si.e..,0,37,37,11,1,mening,images/br_mening.png,images/cb_mening.png
,,,,,,00029,2023-09-09_23h16.25.471,vbt_B1_day1,2022.2.4,Win32,60.62075655,,,,,,,,,,,,,,,,,,,,,,,,,,,,,,,,,,,,,,,,,,,0.304629714,-0.071296303,1,0,0,.....,.....,0,38,38,52,1,zuiplap,images/br_zuiplap.png,images/cb_zuiplap.png
,,,,,,00029,2023-09-09_23h16.25.471,vbt_B1_day1,2022.2.4,Win32,60.62075655,,,,,,,,,,,,,,,,,,,,,,,,,,,,,,,,,,,,,,,,,,,0.304629714,-0.071296303,1,0,0,je.i.,je.i.,0,39,39,45,1,hemel,images/br_hemel.png,images/cb_hemel.png
,,,,,,00029,2023-09-09_23h16.25.471,vbt_B1_day1,2022.2.4,Win32,60.62075655,,,,,,,,,,,,,,,,,,,,,,,,,,,,,,,,,,,,,,,,,,,0.304629714,-0.071296303,1,0,0,hier.rz,hier.rz,0,40,40,15,1,hiervan,images/br_hiervan.png,images/cb_hiervan.png
,,,,,,00029,2023-09-09_23h16.25.471,vbt_B1_day1,2022.2.4,Win32,60.62075655,,,,,,,,,,,,,,,,,,,,,,,,,,,,,,,,,,,,,,,,,,,0.304629714,-0.071296303,1,0,0,.rr.,.rr.,0,41,41,1,1,zaal,images/br_zaal.png,images/cb_zaal.png
,,,,,,00029,2023-09-09_23h16.25.471,vbt_B1_day1,2022.2.4,Win32,60.62075655,,,,,,,,,,,,,,,,,,,,,,,,,,,,,,,,,,,,,,,,,,,0.304629714,-0.071296303,1,0,0,.....,.....,0,42,42,56,1,toezicht,images/br_toezicht.png,images/cb_toezicht.png
,,,,,,00029,2023-09-09_23h16.25.471,vbt_B1_day1,2022.2.4,Win32,60.62075655,,,,,,,,,,,,,,,,,,,,,,,,,,,,,,,,,,,,,,,,,,,0.304629714,-0.071296303,1,0,0,...,...,0,43,43,32,1,opplaan,images/br_opplaan.png,images/cb_opplaan.png
,,,,,,00029,2023-09-09_23h16.25.471,vbt_B1_day1,2022.2.4,Win32,60.62075655,,,,,,,,,,,,,,,,,,,,,,,,,,,,,,,,,,,,,,,,,,,0.304629714,-0.071296303,1,0,0,rtte.tie,rtte.tie,0,44,44,17,1,attentie,images/br_attentie.png,images/cb_attentie.png
,,,,,,00029,2023-09-09_23h16.25.471,vbt_B1_day1,2022.2.4,Win32,60.62075655,,,,,,,,,,,,,,,,,,,,,,,,,,,,,,,,,,,,,,,,,,,0.304629714,-0.071296303,1,0,0,...rr.,...rr.,0,45,45,53,1,opslaan,images/br_opslaan.png,images/cb_opslaan.png
,,,,,,00029,2023-09-09_23h16.25.471,vbt_B1_day1,2022.2.4,Win32,60.62075655,,,,,,,,,,,,,,,,,,,,,,,,,,,,,,,,,,,,,,,,,,,0.304629714,-0.071296303,1,0,0,op....,op....,0,46,46,59,1,opvatten,images/br_opvatten.png,images/cb_opvatten.png
,,,,,,00029,2023-09-09_23h16.25.471,vbt_B1_day1,2022.2.4,Win32,60.62075655,,,,,,,,,,,,,,,,,,,,,,,,,,,,,,,,,,,,,,,,,,,0.304629714,-0.071296303,1,0,0,vrr...,vrr...,0,47,47,39,1,voorreur,images/br_voorreur.png,images/cb_voorreur.png
,,,,,,00029,2023-09-09_23h16.25.471,vbt_B1_day1,2022.2.4,Win32,60.62075655,,,,,,,,,,,,,,,,,,,,,,,,,,,,,,,,,,,,,,,,,,,0.304629714,-0.071296303,1,0,0,.oo.,.oo.,0,48,48,23,1,booi,images/br_booi.png,images/cb_booi.png
,,,,,,00029,2023-09-09_23h16.25.471,vbt_B1_day1,2022.2.4,Win32,60.62075655,,,,,,,,,,,,,,,,,,,,,,,,,,,,,,,,,,,,,,,,,,,0.304629714,-0.071296303,1,0,0,.oog,.oog,0,49,49,41,1,hoog,images/br_hoog.png,images/cb_hoog.png
,,,,,,00029,2023-09-09_23h16.25.471,vbt_B1_day1,2022.2.4,Win32,60.62075655,,,,,,,,,,,,,,,,,,,,,,,,,,,,,,,,,,,,,,,,,,,0.304629714,-0.071296303,1,0,0,.rr.,.rr.,0,50,50,2,1,jaar,images/br_jaar.png,images/cb_jaar.png
,,,,,,00029,2023-09-09_23h16.25.471,vbt_B1_day1,2022.2.4,Win32,60.62075655,,,,,,,,,,,,,,,,,,,,,,,,,,,,,,,,,,,,,,,,,,,0.304629714,-0.071296303,1,0,0,.....,.....,0,51,51,25,1,brijk,images/br_brijk.png,images/cb_brijk.png
,,,,,,00029,2023-09-09_23h16.25.471,vbt_B1_day1,2022.2.4,Win32,60.62075655,,,,,,,,,,,,,,,,,,,,,,,,,,,,,,,,,,,,,,,,,,,0.304629714,-0.071296303,1,0,0,t....,t....,0,52,52,55,1,tekenen,images/br_tekenen.png,images/cb_tekenen.png
,,,,,,00029,2023-09-09_23h16.25.471,vbt_B1_day1,2022.2.4,Win32,60.62075655,,,,,,,,,,,,,,,,,,,,,,,,,,,,,,,,,,,,,,,,,,,0.304629714,-0.071296303,1,0,0,........,........,0,53,53,31,1,stamen,images/br_stamen.png,images/cb_stamen.png
,,,,,,00029,2023-09-09_23h16.25.471,vbt_B1_day1,2022.2.4,Win32,60.62075655,,,,,,,,,,,,,,,,,,,,,,,,,,,,,,,,,,,,,,,,,,,0.304629714,-0.071296303,1,0,0,...e,...e,0,54,54,29,1,genond,images/br_genond.png,images/cb_genond.png
,,,,,,00029,2023-09-09_23h16.25.471,vbt_B1_day1,2022.2.4,Win32,60.62075655,,,,,,,,,,,,,,,,,,,,,,,,,,,,,,,,,,,,,,,,,,,0.304629714,-0.071296303,1,0,0,....,....,0,55,55,13,1,twijfel,images/br_twijfel.png,images/cb_twijfel.png
,,,,,,00029,2023-09-09_23h16.25.471,vbt_B1_day1,2022.2.4,Win32,60.62075655,,,,,,,,,,,,,,,,,,,,,,,,,,,,,,,,,,,,,,,,,,,0.304629714,-0.071296303,1,0,0,......,......,0,56,56,57,1,meenemen,images/br_meenemen.png,images/cb_meenemen.png
,,,,,,00029,2023-09-09_23h16.25.471,vbt_B1_day1,2022.2.4,Win32,60.62075655,,,,,,,,,,,,,,,,,,,,,,,,,,,,,,,,,,,,,,,,,,,0.304629714,-0.071296303,1,0,0,e....i,e....i,0,57,57,49,1,vizier,images/br_vizier.png,images/cb_vizier.png
,,,,,,00029,2023-09-09_23h16.25.471,vbt_B1_day1,2022.2.4,Win32,60.62075655,,,,,,,,,,,,,,,,,,,,,,,,,,,,,,,,,,,,,,,,,,,0.304629714,-0.071296303,1,0,0,v....,v....,0,58,58,26,1,valop,images/br_valop.png,images/cb_valop.png
,,,,,,00029,2023-09-09_23h16.25.471,vbt_B1_day1,2022.2.4,Win32,60.62075655,,,,,,,,,,,,,,,,,,,,,,,,,,,,,,,,,,,,,,,,,,,0.304629714,-0.071296303,1,0,0,....v..,....v..,0,59,59,14,1,waarvan,images/br_waarvan.png,images/cb_waarvan.png
,,,,,,00029,2023-09-09_23h16.25.471,vbt_B1_day1,2022.2.4,Win32,60.62075655,,,,,,,,,,,,,,,,,,,,,,,,,,,,,,,,,,,,,,,,,,,,,,,,,,,,,,,,,
