welcome_mouse.x,welcome_mouse.y,welcome_mouse.leftButton,welcome_mouse.midButton,welcome_mouse.rightButton,welcome_mouse.time,"ID",date,expName,psychopyVersion,OS,frameRate,mouse_2.x,mouse_2.y,mouse_2.leftButton,mouse_2.midButton,mouse_2.rightButton,mouse_2.time,mouse_3.x,mouse_3.y,mouse_3.leftButton,mouse_3.midButton,mouse_3.rightButton,mouse_3.time,train_mouse.x,train_mouse.y,train_mouse.leftButton,train_mouse.midButton,train_mouse.rightButton,train_mouse.time,braille_mouse.x,braille_mouse.y,braille_mouse.leftButton,braille_mouse.midButton,braille_mouse.rightButton,braille_mouse.time,trials.thisRepN,trials.thisTrialN,trials.thisN,trials.thisIndex,trials.ran,nlLet,brLet,cbLet,mouse.x,mouse.y,mouse.leftButton,mouse.midButton,mouse.rightButton,testInstr_mouse.x,testInstr_mouse.y,testInstr_mouse.leftButton,testInstr_mouse.midButton,testInstr_mouse.rightButton,test_mouse.x,test_mouse.y,test_mouse.leftButton,test_mouse.midButton,test_mouse.rightButton,test_response.text,testResp,test_loop.thisRepN,test_loop.thisTrialN,test_loop.thisN,test_loop.thisIndex,test_loop.ran,nlWrd,brWrd,cbWrd
0.574549289,-0.068927544,1,0,0,22.1384,00100,2023-11-08_15h03.49.549,vbt_B1_day1,2022.2.4,MacIntel,60.0024001,,,,,,,,,,,,,,,,,,,,,,,,,,,,,,,,,,,,,,,,,,,,,,,,,,,,,,,,,
,,,,,,00100,2023-11-08_15h03.49.549,vbt_B1_day1,2022.2.4,MacIntel,60.0024001,0.015760837,-0.227920058,1,0,0,4.4973,,,,,,,,,,,,,,,,,,,,,,,,,,,,,,,,,,,,,,,,,,,,,,,,,,,
,,,,,,00100,2023-11-08_15h03.49.549,vbt_B1_day1,2022.2.4,MacIntel,60.0024001,,,,,,,-0.068163588,-0.328787571,1,0,0,26.4955,,,,,,,,,,,,,,,,,,,,,,,,,,,,,,,,,,,,,,,,,,,,,
,,,,,,00100,2023-11-08_15h03.49.549,vbt_B1_day1,2022.2.4,MacIntel,60.0024001,,,,,,,,,,,,,0.686036784,-0.161560194,1,0,0,19.3619,,,,,,,,,,,,,,,,,,,,,,,,,,,,,,,,,,,,,,,
,,,,,,00100,2023-11-08_15h03.49.549,vbt_B1_day1,2022.2.4,MacIntel,60.0024001,,,,,,,,,,,,,,,,,,,0.524645318,-0.198835314,1,0,0,22.7019,0,0,0,8,1,i,images/br_i.png,images/cb_i.png,,,,,,,,,,,,,,,,,,,,,,,,,
,,,,,,00100,2023-11-08_15h03.49.549,vbt_B1_day1,2022.2.4,MacIntel,60.0024001,,,,,,,,,,,,,,,,,,,0.524645318,-0.198835314,1,0,0,14.417,0,1,1,5,1,f,images/br_f.png,images/cb_f.png,,,,,,,,,,,,,,,,,,,,,,,,,
,,,,,,00100,2023-11-08_15h03.49.549,vbt_B1_day1,2022.2.4,MacIntel,60.0024001,,,,,,,,,,,,,,,,,,,0.444882813,-0.202944336,1,0,0,8.9338,0,2,2,3,1,d,images/br_d.png,images/cb_d.png,,,,,,,,,,,,,,,,,,,,,,,,,
,,,,,,00100,2023-11-08_15h03.49.549,vbt_B1_day1,2022.2.4,MacIntel,60.0024001,,,,,,,,,,,,,,,,,,,0.445893555,-0.204069689,1,0,0,1.266,0,3,3,6,1,g,images/br_g.png,images/cb_g.png,,,,,,,,,,,,,,,,,,,,,,,,,
,,,,,,00100,2023-11-08_15h03.49.549,vbt_B1_day1,2022.2.4,MacIntel,60.0024001,,,,,,,,,,,,,,,,,,,0.445795356,-0.201853095,1,0,0,4.0008,0,4,4,21,1,v,images/br_v.png,images/cb_v.png,,,,,,,,,,,,,,,,,,,,,,,,,
,,,,,,00100,2023-11-08_15h03.49.549,vbt_B1_day1,2022.2.4,MacIntel,60.0024001,,,,,,,,,,,,,,,,,,,0.446034071,-0.223877157,1,0,0,5.717,0,5,5,12,1,m,images/br_m.png,images/cb_m.png,,,,,,,,,,,,,,,,,,,,,,,,,
,,,,,,00100,2023-11-08_15h03.49.549,vbt_B1_day1,2022.2.4,MacIntel,60.0024001,,,,,,,,,,,,,,,,,,,0.446034071,-0.225155775,1,0,0,7.1875,0,6,6,19,1,t,images/br_t.png,images/cb_t.png,,,,,,,,,,,,,,,,,,,,,,,,,
,,,,,,00100,2023-11-08_15h03.49.549,vbt_B1_day1,2022.2.4,MacIntel,60.0024001,,,,,,,,,,,,,,,,,,,0.44481174,-0.224918145,1,0,0,3.9139,0,7,7,22,1,w,images/br_w.png,images/cb_w.png,,,,,,,,,,,,,,,,,,,,,,,,,
,,,,,,00100,2023-11-08_15h03.49.549,vbt_B1_day1,2022.2.4,MacIntel,60.0024001,,,,,,,,,,,,,,,,,,,0.445234918,-0.224714762,1,0,0,11.2009,0,8,8,25,1,z,images/br_z.png,images/cb_z.png,,,,,,,,,,,,,,,,,,,,,,,,,
,,,,,,00100,2023-11-08_15h03.49.549,vbt_B1_day1,2022.2.4,MacIntel,60.0024001,,,,,,,,,,,,,,,,,,,0.445234918,-0.223444756,1,0,0,8.583,0,9,9,23,1,x,images/br_x.png,images/cb_x.png,,,,,,,,,,,,,,,,,,,,,,,,,
,,,,,,00100,2023-11-08_15h03.49.549,vbt_B1_day1,2022.2.4,MacIntel,60.0024001,,,,,,,,,,,,,,,,,,,0.445234918,-0.223444756,1,0,0,3.4168,0,10,10,24,1,y,images/br_y.png,images/cb_y.png,,,,,,,,,,,,,,,,,,,,,,,,,
,,,,,,00100,2023-11-08_15h03.49.549,vbt_B1_day1,2022.2.4,MacIntel,60.0024001,,,,,,,,,,,,,,,,,,,0.242353719,-0.172809177,1,0,0,2.6164,0,11,11,4,1,e,images/br_e.png,images/cb_e.png,,,,,,,,,,,,,,,,,,,,,,,,,
,,,,,,00100,2023-11-08_15h03.49.549,vbt_B1_day1,2022.2.4,MacIntel,60.0024001,,,,,,,,,,,,,,,,,,,0.243928223,-0.17329522,1,0,0,16.0334,0,12,12,13,1,n,images/br_n.png,images/cb_n.png,,,,,,,,,,,,,,,,,,,,,,,,,
,,,,,,00100,2023-11-08_15h03.49.549,vbt_B1_day1,2022.2.4,MacIntel,60.0024001,,,,,,,,,,,,,,,,,,,0.24235928,-0.172031657,1,0,0,2.5497,0,13,13,7,1,h,images/br_h.png,images/cb_h.png,,,,,,,,,,,,,,,,,,,,,,,,,
,,,,,,00100,2023-11-08_15h03.49.549,vbt_B1_day1,2022.2.4,MacIntel,60.0024001,,,,,,,,,,,,,,,,,,,0.242608303,-0.172764893,1,0,0,2.2811,0,14,14,16,1,q,images/br_q.png,images/cb_q.png,,,,,,,,,,,,,,,,,,,,,,,,,
,,,,,,00100,2023-11-08_15h03.49.549,vbt_B1_day1,2022.2.4,MacIntel,60.0024001,,,,,,,,,,,,,,,,,,,0.242588162,-0.16807997,1,0,0,4.8828,0,15,15,18,1,s,images/br_s.png,images/cb_s.png,,,,,,,,,,,,,,,,,,,,,,,,,
,,,,,,00100,2023-11-08_15h03.49.549,vbt_B1_day1,2022.2.4,MacIntel,60.0024001,,,,,,,,,,,,,,,,,,,0.242825656,-0.16807997,1,0,0,0.5998,0,16,16,20,1,u,images/br_u.png,images/cb_u.png,,,,,,,,,,,,,,,,,,,,,,,,,
,,,,,,00100,2023-11-08_15h03.49.549,vbt_B1_day1,2022.2.4,MacIntel,60.0024001,,,,,,,,,,,,,,,,,,,0.242825656,-0.16807997,1,0,0,0.8489,0,17,17,15,1,p,images/br_p.png,images/cb_p.png,,,,,,,,,,,,,,,,,,,,,,,,,
,,,,,,00100,2023-11-08_15h03.49.549,vbt_B1_day1,2022.2.4,MacIntel,60.0024001,,,,,,,,,,,,,,,,,,,0.242825656,-0.168580933,1,0,0,2.3531,0,18,18,1,1,b,images/br_b.png,images/cb_b.png,,,,,,,,,,,,,,,,,,,,,,,,,
,,,,,,00100,2023-11-08_15h03.49.549,vbt_B1_day1,2022.2.4,MacIntel,60.0024001,,,,,,,,,,,,,,,,,,,0.242093913,-0.168580933,1,0,0,1.2505,0,19,19,11,1,l,images/br_l.png,images/cb_l.png,,,,,,,,,,,,,,,,,,,,,,,,,
,,,,,,00100,2023-11-08_15h03.49.549,vbt_B1_day1,2022.2.4,MacIntel,60.0024001,,,,,,,,,,,,,,,,,,,0.240977444,-0.167589383,1,0,0,3.3328,0,20,20,14,1,o,images/br_o.png,images/cb_o.png,,,,,,,,,,,,,,,,,,,,,,,,,
,,,,,,00100,2023-11-08_15h03.49.549,vbt_B1_day1,2022.2.4,MacIntel,60.0024001,,,,,,,,,,,,,,,,,,,0.240977444,-0.167589383,1,0,0,0.0673,0,21,21,10,1,k,images/br_k.png,images/cb_k.png,,,,,,,,,,,,,,,,,,,,,,,,,
,,,,,,00100,2023-11-08_15h03.49.549,vbt_B1_day1,2022.2.4,MacIntel,60.0024001,,,,,,,,,,,,,,,,,,,0.240977444,-0.167589383,1,0,0,1.3342,0,22,22,17,1,r,images/br_r.png,images/cb_r.png,,,,,,,,,,,,,,,,,,,,,,,,,
,,,,,,00100,2023-11-08_15h03.49.549,vbt_B1_day1,2022.2.4,MacIntel,60.0024001,,,,,,,,,,,,,,,,,,,0.240977444,-0.167589383,1,0,0,0.2505,0,23,23,2,1,c,images/br_c.png,images/cb_c.png,,,,,,,,,,,,,,,,,,,,,,,,,
,,,,,,00100,2023-11-08_15h03.49.549,vbt_B1_day1,2022.2.4,MacIntel,60.0024001,,,,,,,,,,,,,,,,,,,0.241258748,-0.167929348,1,0,0,0.7641,0,24,24,9,1,j,images/br_j.png,images/cb_j.png,,,,,,,,,,,,,,,,,,,,,,,,,
,,,,,,00100,2023-11-08_15h03.49.549,vbt_B1_day1,2022.2.4,MacIntel,60.0024001,,,,,,,,,,,,,,,,,,,0.241258748,-0.167929348,1,0,0,1.3167,0,25,25,0,1,a,images/br_a.png,images/cb_a.png,,,,,,,,,,,,,,,,,,,,,,,,,
,,,,,,00100,2023-11-08_15h03.49.549,vbt_B1_day1,2022.2.4,MacIntel,60.0024001,,,,,,,,,,,,,,,,,,,0.241258748,-0.167929348,1,0,0,1.4665,1,0,26,11,1,l,images/br_l.png,images/cb_l.png,,,,,,,,,,,,,,,,,,,,,,,,,
,,,,,,00100,2023-11-08_15h03.49.549,vbt_B1_day1,2022.2.4,MacIntel,60.0024001,,,,,,,,,,,,,,,,,,,0.241258748,-0.167929348,1,0,0,0.5988,1,1,27,21,1,v,images/br_v.png,images/cb_v.png,,,,,,,,,,,,,,,,,,,,,,,,,
,,,,,,00100,2023-11-08_15h03.49.549,vbt_B1_day1,2022.2.4,MacIntel,60.0024001,,,,,,,,,,,,,,,,,,,0.241258748,-0.167929348,1,0,0,3.35,1,2,28,5,1,f,images/br_f.png,images/cb_f.png,,,,,,,,,,,,,,,,,,,,,,,,,
,,,,,,00100,2023-11-08_15h03.49.549,vbt_B1_day1,2022.2.4,MacIntel,60.0024001,,,,,,,,,,,,,,,,,,,0.213692559,-0.10774448,1,0,0,1.8172,1,3,29,23,1,x,images/br_x.png,images/cb_x.png,,,,,,,,,,,,,,,,,,,,,,,,,
,,,,,,00100,2023-11-08_15h03.49.549,vbt_B1_day1,2022.2.4,MacIntel,60.0024001,,,,,,,,,,,,,,,,,,,0.213692559,-0.10774448,1,0,0,0.4667,1,4,30,24,1,y,images/br_y.png,images/cb_y.png,,,,,,,,,,,,,,,,,,,,,,,,,
,,,,,,00100,2023-11-08_15h03.49.549,vbt_B1_day1,2022.2.4,MacIntel,60.0024001,,,,,,,,,,,,,,,,,,,0.213930054,-0.10774448,1,0,0,0.6675,1,5,31,12,1,m,images/br_m.png,images/cb_m.png,,,,,,,,,,,,,,,,,,,,,,,,,
,,,,,,00100,2023-11-08_15h03.49.549,vbt_B1_day1,2022.2.4,MacIntel,60.0024001,,,,,,,,,,,,,,,,,,,0.215296495,-0.10774448,1,0,0,0.8258,1,6,32,25,1,z,images/br_z.png,images/cb_z.png,,,,,,,,,,,,,,,,,,,,,,,,,
,,,,,,00100,2023-11-08_15h03.49.549,vbt_B1_day1,2022.2.4,MacIntel,60.0024001,,,,,,,,,,,,,,,,,,,0.214812758,-0.108234931,1,0,0,4.066,1,7,33,6,1,g,images/br_g.png,images/cb_g.png,,,,,,,,,,,,,,,,,,,,,,,,,
,,,,,,00100,2023-11-08_15h03.49.549,vbt_B1_day1,2022.2.4,MacIntel,60.0024001,,,,,,,,,,,,,,,,,,,0.214812758,-0.108472358,1,0,0,4.9506,1,8,34,20,1,u,images/br_u.png,images/cb_u.png,,,,,,,,,,,,,,,,,,,,,,,,,
,,,,,,00100,2023-11-08_15h03.49.549,vbt_B1_day1,2022.2.4,MacIntel,60.0024001,,,,,,,,,,,,,,,,,,,0.214812758,-0.10870992,1,0,0,3.0004,1,9,35,10,1,k,images/br_k.png,images/cb_k.png,,,,,,,,,,,,,,,,,,,,,,,,,
,,,,,,00100,2023-11-08_15h03.49.549,vbt_B1_day1,2022.2.4,MacIntel,60.0024001,,,,,,,,,,,,,,,,,,,0.215050727,-0.10870992,1,0,0,3.9835,1,10,36,18,1,s,images/br_s.png,images/cb_s.png,,,,,,,,,,,,,,,,,,,,,,,,,
,,,,,,00100,2023-11-08_15h03.49.549,vbt_B1_day1,2022.2.4,MacIntel,60.0024001,,,,,,,,,,,,,,,,,,,0.216378038,-0.109514025,1,0,0,1.7671,1,11,37,7,1,h,images/br_h.png,images/cb_h.png,,,,,,,,,,,,,,,,,,,,,,,,,
,,,,,,00100,2023-11-08_15h03.49.549,vbt_B1_day1,2022.2.4,MacIntel,60.0024001,,,,,,,,,,,,,,,,,,,0.216378038,-0.109514025,1,0,0,1.2327,1,12,38,1,1,b,images/br_b.png,images/cb_b.png,,,,,,,,,,,,,,,,,,,,,,,,,
,,,,,,00100,2023-11-08_15h03.49.549,vbt_B1_day1,2022.2.4,MacIntel,60.0024001,,,,,,,,,,,,,,,,,,,0.216378038,-0.109514025,1,0,0,0.2153,1,13,39,14,1,o,images/br_o.png,images/cb_o.png,,,,,,,,,,,,,,,,,,,,,,,,,
,,,,,,00100,2023-11-08_15h03.49.549,vbt_B1_day1,2022.2.4,MacIntel,60.0024001,,,,,,,,,,,,,,,,,,,0.216378038,-0.109514025,1,0,0,1.3519,1,14,40,4,1,e,images/br_e.png,images/cb_e.png,,,,,,,,,,,,,,,,,,,,,,,,,
,,,,,,00100,2023-11-08_15h03.49.549,vbt_B1_day1,2022.2.4,MacIntel,60.0024001,,,,,,,,,,,,,,,,,,,0.216378038,-0.109514025,1,0,0,2.9663,1,15,41,8,1,i,images/br_i.png,images/cb_i.png,,,,,,,,,,,,,,,,,,,,,,,,,
,,,,,,00100,2023-11-08_15h03.49.549,vbt_B1_day1,2022.2.4,MacIntel,60.0024001,,,,,,,,,,,,,,,,,,,0.216378038,-0.109145508,1,0,0,5.781,1,16,42,22,1,w,images/br_w.png,images/cb_w.png,,,,,,,,,,,,,,,,,,,,,,,,,
,,,,,,00100,2023-11-08_15h03.49.549,vbt_B1_day1,2022.2.4,MacIntel,60.0024001,,,,,,,,,,,,,,,,,,,0.215619032,-0.108589952,1,0,0,1.9337,1,17,43,17,1,r,images/br_r.png,images/cb_r.png,,,,,,,,,,,,,,,,,,,,,,,,,
,,,,,,00100,2023-11-08_15h03.49.549,vbt_B1_day1,2022.2.4,MacIntel,60.0024001,,,,,,,,,,,,,,,,,,,0.215619032,-0.108589952,1,0,0,0.7858,1,18,44,2,1,c,images/br_c.png,images/cb_c.png,,,,,,,,,,,,,,,,,,,,,,,,,
,,,,,,00100,2023-11-08_15h03.49.549,vbt_B1_day1,2022.2.4,MacIntel,60.0024001,,,,,,,,,,,,,,,,,,,0.214573093,-0.108079698,1,0,0,1.1303,1,19,45,9,1,j,images/br_j.png,images/cb_j.png,,,,,,,,,,,,,,,,,,,,,,,,,
,,,,,,00100,2023-11-08_15h03.49.549,vbt_B1_day1,2022.2.4,MacIntel,60.0024001,,,,,,,,,,,,,,,,,,,0.031439955,-0.000835097,1,0,0,0.9004,1,20,46,3,1,d,images/br_d.png,images/cb_d.png,,,,,,,,,,,,,,,,,,,,,,,,,
,,,,,,00100,2023-11-08_15h03.49.549,vbt_B1_day1,2022.2.4,MacIntel,60.0024001,,,,,,,,,,,,,,,,,,,-0.212714776,-0.036682197,1,0,0,6.1338,1,21,47,13,1,n,images/br_n.png,images/cb_n.png,,,,,,,,,,,,,,,,,,,,,,,,,
,,,,,,00100,2023-11-08_15h03.49.549,vbt_B1_day1,2022.2.4,MacIntel,60.0024001,,,,,,,,,,,,,,,,,,,-0.212714776,-0.036682197,1,0,0,9.7997,1,22,48,0,1,a,images/br_a.png,images/cb_a.png,,,,,,,,,,,,,,,,,,,,,,,,,
,,,,,,00100,2023-11-08_15h03.49.549,vbt_B1_day1,2022.2.4,MacIntel,60.0024001,,,,,,,,,,,,,,,,,,,-0.212714776,-0.036444838,1,0,0,2.0485,1,23,49,16,1,q,images/br_q.png,images/cb_q.png,,,,,,,,,,,,,,,,,,,,,,,,,
,,,,,,00100,2023-11-08_15h03.49.549,vbt_B1_day1,2022.2.4,MacIntel,60.0024001,,,,,,,,,,,,,,,,,,,-0.212714776,-0.036444838,1,0,0,1.4848,1,24,50,15,1,p,images/br_p.png,images/cb_p.png,,,,,,,,,,,,,,,,,,,,,,,,,
,,,,,,00100,2023-11-08_15h03.49.549,vbt_B1_day1,2022.2.4,MacIntel,60.0024001,,,,,,,,,,,,,,,,,,,-0.212714776,-0.036995171,1,0,0,4.8672,1,25,51,19,1,t,images/br_t.png,images/cb_t.png,,,,,,,,,,,,,,,,,,,,,,,,,
,,,,,,00100,2023-11-08_15h03.49.549,vbt_B1_day1,2022.2.4,MacIntel,60.0024001,,,,,,,,,,,,,,,,,,,-0.212714776,-0.036995171,1,0,0,1.5676,2,0,52,22,1,w,images/br_w.png,images/cb_w.png,,,,,,,,,,,,,,,,,,,,,,,,,
,,,,,,00100,2023-11-08_15h03.49.549,vbt_B1_day1,2022.2.4,MacIntel,60.0024001,,,,,,,,,,,,,,,,,,,-0.212714776,-0.036995171,1,0,0,3.3532,2,1,53,10,1,k,images/br_k.png,images/cb_k.png,,,,,,,,,,,,,,,,,,,,,,,,,
,,,,,,00100,2023-11-08_15h03.49.549,vbt_B1_day1,2022.2.4,MacIntel,60.0024001,,,,,,,,,,,,,,,,,,,-0.212714776,-0.036995171,1,0,0,3.75,2,2,54,25,1,z,images/br_z.png,images/cb_z.png,,,,,,,,,,,,,,,,,,,,,,,,,
,,,,,,00100,2023-11-08_15h03.49.549,vbt_B1_day1,2022.2.4,MacIntel,60.0024001,,,,,,,,,,,,,,,,,,,-0.212714776,-0.036995171,1,0,0,1.485,2,3,55,6,1,g,images/br_g.png,images/cb_g.png,,,,,,,,,,,,,,,,,,,,,,,,,
,,,,,,00100,2023-11-08_15h03.49.549,vbt_B1_day1,2022.2.4,MacIntel,60.0024001,,,,,,,,,,,,,,,,,,,0.218831177,-0.074494154,1,0,0,1.1336,2,4,56,16,1,q,images/br_q.png,images/cb_q.png,,,,,,,,,,,,,,,,,,,,,,,,,
,,,,,,00100,2023-11-08_15h03.49.549,vbt_B1_day1,2022.2.4,MacIntel,60.0024001,,,,,,,,,,,,,,,,,,,0.218831177,-0.074494154,1,0,0,0.7508,2,5,57,1,1,b,images/br_b.png,images/cb_b.png,,,,,,,,,,,,,,,,,,,,,,,,,
,,,,,,00100,2023-11-08_15h03.49.549,vbt_B1_day1,2022.2.4,MacIntel,60.0024001,,,,,,,,,,,,,,,,,,,0.208691949,-0.12179796,1,0,0,6.183,2,6,58,4,1,e,images/br_e.png,images/cb_e.png,,,,,,,,,,,,,,,,,,,,,,,,,
,,,,,,00100,2023-11-08_15h03.49.549,vbt_B1_day1,2022.2.4,MacIntel,60.0024001,,,,,,,,,,,,,,,,,,,-0.078201633,0.137369893,1,0,0,1.0837,2,7,59,23,1,x,images/br_x.png,images/cb_x.png,,,,,,,,,,,,,,,,,,,,,,,,,
,,,,,,00100,2023-11-08_15h03.49.549,vbt_B1_day1,2022.2.4,MacIntel,60.0024001,,,,,,,,,,,,,,,,,,,-0.031735569,0.112354669,1,0,0,13.4661,2,8,60,17,1,r,images/br_r.png,images/cb_r.png,,,,,,,,,,,,,,,,,,,,,,,,,
,,,,,,00100,2023-11-08_15h03.49.549,vbt_B1_day1,2022.2.4,MacIntel,60.0024001,,,,,,,,,,,,,,,,,,,-0.031992798,0.112592434,1,0,0,8.4162,2,9,61,21,1,v,images/br_v.png,images/cb_v.png,,,,,,,,,,,,,,,,,,,,,,,,,
,,,,,,00100,2023-11-08_15h03.49.549,vbt_B1_day1,2022.2.4,MacIntel,60.0024001,,,,,,,,,,,,,,,,,,,0.220590888,0.088738539,1,0,0,8.9998,2,10,62,9,1,j,images/br_j.png,images/cb_j.png,,,,,,,,,,,,,,,,,,,,,,,,,
,,,,,,00100,2023-11-08_15h03.49.549,vbt_B1_day1,2022.2.4,MacIntel,60.0024001,,,,,,,,,,,,,,,,,,,0.220590888,0.089446682,1,0,0,9.8826,2,11,63,13,1,n,images/br_n.png,images/cb_n.png,,,,,,,,,,,,,,,,,,,,,,,,,
,,,,,,00100,2023-11-08_15h03.49.549,vbt_B1_day1,2022.2.4,MacIntel,60.0024001,,,,,,,,,,,,,,,,,,,0.222300551,0.089824354,1,0,0,6.8007,2,12,64,3,1,d,images/br_d.png,images/cb_d.png,,,,,,,,,,,,,,,,,,,,,,,,,
,,,,,,00100,2023-11-08_15h03.49.549,vbt_B1_day1,2022.2.4,MacIntel,60.0024001,,,,,,,,,,,,,,,,,,,0.222300551,0.089824354,1,0,0,0.8333,2,13,65,15,1,p,images/br_p.png,images/cb_p.png,,,,,,,,,,,,,,,,,,,,,,,,,
,,,,,,00100,2023-11-08_15h03.49.549,vbt_B1_day1,2022.2.4,MacIntel,60.0024001,,,,,,,,,,,,,,,,,,,0.222300551,0.090577732,1,0,0,2.3344,2,14,66,24,1,y,images/br_y.png,images/cb_y.png,,,,,,,,,,,,,,,,,,,,,,,,,
,,,,,,00100,2023-11-08_15h03.49.549,vbt_B1_day1,2022.2.4,MacIntel,60.0024001,,,,,,,,,,,,,,,,,,,0.124170058,0.0886262,1,0,0,0.0662,2,15,67,0,1,a,images/br_a.png,images/cb_a.png,,,,,,,,,,,,,,,,,,,,,,,,,
,,,,,,00100,2023-11-08_15h03.49.549,vbt_B1_day1,2022.2.4,MacIntel,60.0024001,,,,,,,,,,,,,,,,,,,0.224267171,0.055554538,1,0,0,0.6998,2,16,68,11,1,l,images/br_l.png,images/cb_l.png,,,,,,,,,,,,,,,,,,,,,,,,,
,,,,,,00100,2023-11-08_15h03.49.549,vbt_B1_day1,2022.2.4,MacIntel,60.0024001,,,,,,,,,,,,,,,,,,,0.224267171,0.056030002,1,0,0,5.5153,2,17,69,20,1,u,images/br_u.png,images/cb_u.png,,,,,,,,,,,,,,,,,,,,,,,,,
,,,,,,00100,2023-11-08_15h03.49.549,vbt_B1_day1,2022.2.4,MacIntel,60.0024001,,,,,,,,,,,,,,,,,,,0.224267171,0.056267361,1,0,0,9.635,2,18,70,12,1,m,images/br_m.png,images/cb_m.png,,,,,,,,,,,,,,,,,,,,,,,,,
,,,,,,00100,2023-11-08_15h03.49.549,vbt_B1_day1,2022.2.4,MacIntel,60.0024001,,,,,,,,,,,,,,,,,,,0.224267171,0.056029934,1,0,0,0.3506,2,19,71,8,1,i,images/br_i.png,images/cb_i.png,,,,,,,,,,,,,,,,,,,,,,,,,
,,,,,,00100,2023-11-08_15h03.49.549,vbt_B1_day1,2022.2.4,MacIntel,60.0024001,,,,,,,,,,,,,,,,,,,0.224267171,0.056029934,1,0,0,2.8013,2,20,72,7,1,h,images/br_h.png,images/cb_h.png,,,,,,,,,,,,,,,,,,,,,,,,,
,,,,,,00100,2023-11-08_15h03.49.549,vbt_B1_day1,2022.2.4,MacIntel,60.0024001,,,,,,,,,,,,,,,,,,,0.148327705,-0.19115804,1,0,0,1.118,2,21,73,19,1,t,images/br_t.png,images/cb_t.png,,,,,,,,,,,,,,,,,,,,,,,,,
,,,,,,00100,2023-11-08_15h03.49.549,vbt_B1_day1,2022.2.4,MacIntel,60.0024001,,,,,,,,,,,,,,,,,,,0.193909776,-0.27571913,1,0,0,5.3645,2,22,74,2,1,c,images/br_c.png,images/cb_c.png,,,,,,,,,,,,,,,,,,,,,,,,,
,,,,,,00100,2023-11-08_15h03.49.549,vbt_B1_day1,2022.2.4,MacIntel,60.0024001,,,,,,,,,,,,,,,,,,,0.085037638,-0.09237854,1,0,0,3.2833,2,23,75,14,1,o,images/br_o.png,images/cb_o.png,,,,,,,,,,,,,,,,,,,,,,,,,
,,,,,,00100,2023-11-08_15h03.49.549,vbt_B1_day1,2022.2.4,MacIntel,60.0024001,,,,,,,,,,,,,,,,,,,0.08580207,-0.091633369,1,0,0,0.482,2,24,76,18,1,s,images/br_s.png,images/cb_s.png,,,,,,,,,,,,,,,,,,,,,,,,,
,,,,,,00100,2023-11-08_15h03.49.549,vbt_B1_day1,2022.2.4,MacIntel,60.0024001,,,,,,,,,,,,,,,,,,,0.117820774,-0.034416707,1,0,0,7.7668,2,25,77,5,1,f,images/br_f.png,images/cb_f.png,,,,,,,,,,,,,,,,,,,,,,,,,
,,,,,,00100,2023-11-08_15h03.49.549,vbt_B1_day1,2022.2.4,MacIntel,60.0024001,,,,,,,,,,,,,,,,,,,0.066510959,0.128854913,1,0,0,0.0302,3,0,78,4,1,e,images/br_e.png,images/cb_e.png,,,,,,,,,,,,,,,,,,,,,,,,,
,,,,,,00100,2023-11-08_15h03.49.549,vbt_B1_day1,2022.2.4,MacIntel,60.0024001,,,,,,,,,,,,,,,,,,,0.156580539,0.136453383,1,0,0,0.4857,3,1,79,8,1,i,images/br_i.png,images/cb_i.png,,,,,,,,,,,,,,,,,,,,,,,,,
,,,,,,00100,2023-11-08_15h03.49.549,vbt_B1_day1,2022.2.4,MacIntel,60.0024001,,,,,,,,,,,,,,,,,,,0.156580539,0.136915927,1,0,0,6.368,3,2,80,22,1,w,images/br_w.png,images/cb_w.png,,,,,,,,,,,,,,,,,,,,,,,,,
,,,,,,00100,2023-11-08_15h03.49.549,vbt_B1_day1,2022.2.4,MacIntel,60.0024001,,,,,,,,,,,,,,,,,,,0.156580539,0.136915927,1,0,0,10.6504,3,3,81,10,1,k,images/br_k.png,images/cb_k.png,,,,,,,,,,,,,,,,,,,,,,,,,
,,,,,,00100,2023-11-08_15h03.49.549,vbt_B1_day1,2022.2.4,MacIntel,60.0024001,,,,,,,,,,,,,,,,,,,0.132771606,-0.114738159,1,0,0,2.5168,3,4,82,13,1,n,images/br_n.png,images/cb_n.png,,,,,,,,,,,,,,,,,,,,,,,,,
,,,,,,00100,2023-11-08_15h03.49.549,vbt_B1_day1,2022.2.4,MacIntel,60.0024001,,,,,,,,,,,,,,,,,,,0.173818698,0.066192491,1,0,0,0.3519,3,5,83,9,1,j,images/br_j.png,images/cb_j.png,,,,,,,,,,,,,,,,,,,,,,,,,
,,,,,,00100,2023-11-08_15h03.49.549,vbt_B1_day1,2022.2.4,MacIntel,60.0024001,,,,,,,,,,,,,,,,,,,0.295106947,0.086884732,1,0,0,0.214,3,6,84,11,1,l,images/br_l.png,images/cb_l.png,,,,,,,,,,,,,,,,,,,,,,,,,
,,,,,,00100,2023-11-08_15h03.49.549,vbt_B1_day1,2022.2.4,MacIntel,60.0024001,,,,,,,,,,,,,,,,,,,0.216540188,0.098474121,1,0,0,1.098,3,7,85,7,1,h,images/br_h.png,images/cb_h.png,,,,,,,,,,,,,,,,,,,,,,,,,
,,,,,,00100,2023-11-08_15h03.49.549,vbt_B1_day1,2022.2.4,MacIntel,60.0024001,,,,,,,,,,,,,,,,,,,0.281266412,0.067621223,1,0,0,0.6833,3,8,86,19,1,t,images/br_t.png,images/cb_t.png,,,,,,,,,,,,,,,,,,,,,,,,,
,,,,,,00100,2023-11-08_15h03.49.549,vbt_B1_day1,2022.2.4,MacIntel,60.0024001,,,,,,,,,,,,,,,,,,,0.281266412,0.067065667,1,0,0,7.5628,3,9,87,25,1,z,images/br_z.png,images/cb_z.png,,,,,,,,,,,,,,,,,,,,,,,,,
,,,,,,00100,2023-11-08_15h03.49.549,vbt_B1_day1,2022.2.4,MacIntel,60.0024001,,,,,,,,,,,,,,,,,,,0.262038235,0.129024116,1,0,0,2.4836,3,10,88,12,1,m,images/br_m.png,images/cb_m.png,,,,,,,,,,,,,,,,,,,,,,,,,
,,,,,,00100,2023-11-08_15h03.49.549,vbt_B1_day1,2022.2.4,MacIntel,60.0024001,,,,,,,,,,,,,,,,,,,0.245531616,0.094251811,1,0,0,6.0652,3,11,89,1,1,b,images/br_b.png,images/cb_b.png,,,,,,,,,,,,,,,,,,,,,,,,,
,,,,,,00100,2023-11-08_15h03.49.549,vbt_B1_day1,2022.2.4,MacIntel,60.0024001,,,,,,,,,,,,,,,,,,,0.272612033,0.120612623,1,0,0,0.0327,3,12,90,23,1,x,images/br_x.png,images/cb_x.png,,,,,,,,,,,,,,,,,,,,,,,,,
,,,,,,00100,2023-11-08_15h03.49.549,vbt_B1_day1,2022.2.4,MacIntel,60.0024001,,,,,,,,,,,,,,,,,,,0.281305406,0.090540907,1,0,0,0.516,3,13,91,17,1,r,images/br_r.png,images/cb_r.png,,,,,,,,,,,,,,,,,,,,,,,,,
,,,,,,00100,2023-11-08_15h03.49.549,vbt_B1_day1,2022.2.4,MacIntel,60.0024001,,,,,,,,,,,,,,,,,,,0.319656982,0.087522176,1,0,0,0.5835,3,14,92,0,1,a,images/br_a.png,images/cb_a.png,,,,,,,,,,,,,,,,,,,,,,,,,
,,,,,,00100,2023-11-08_15h03.49.549,vbt_B1_day1,2022.2.4,MacIntel,60.0024001,,,,,,,,,,,,,,,,,,,0.320547078,0.053209568,1,0,0,0.117,3,15,93,24,1,y,images/br_y.png,images/cb_y.png,,,,,,,,,,,,,,,,,,,,,,,,,
,,,,,,00100,2023-11-08_15h03.49.549,vbt_B1_day1,2022.2.4,MacIntel,60.0024001,,,,,,,,,,,,,,,,,,,0.320903456,0.053209568,1,0,0,4.4987,3,16,94,6,1,g,images/br_g.png,images/cb_g.png,,,,,,,,,,,,,,,,,,,,,,,,,
,,,,,,00100,2023-11-08_15h03.49.549,vbt_B1_day1,2022.2.4,MacIntel,60.0024001,,,,,,,,,,,,,,,,,,,0.321783176,0.062529636,1,0,0,6.8664,3,17,95,5,1,f,images/br_f.png,images/cb_f.png,,,,,,,,,,,,,,,,,,,,,,,,,
,,,,,,00100,2023-11-08_15h03.49.549,vbt_B1_day1,2022.2.4,MacIntel,60.0024001,,,,,,,,,,,,,,,,,,,0.321783176,0.062292243,1,0,0,7.1313,3,18,96,21,1,v,images/br_v.png,images/cb_v.png,,,,,,,,,,,,,,,,,,,,,,,,,
,,,,,,00100,2023-11-08_15h03.49.549,vbt_B1_day1,2022.2.4,MacIntel,60.0024001,,,,,,,,,,,,,,,,,,,0.321205241,0.062514174,1,0,0,3.9969,3,19,97,18,1,s,images/br_s.png,images/cb_s.png,,,,,,,,,,,,,,,,,,,,,,,,,
,,,,,,00100,2023-11-08_15h03.49.549,vbt_B1_day1,2022.2.4,MacIntel,60.0024001,,,,,,,,,,,,,,,,,,,0.358747694,0.096284688,1,0,0,5.3663,3,20,98,16,1,q,images/br_q.png,images/cb_q.png,,,,,,,,,,,,,,,,,,,,,,,,,
,,,,,,00100,2023-11-08_15h03.49.549,vbt_B1_day1,2022.2.4,MacIntel,60.0024001,,,,,,,,,,,,,,,,,,,0.362653809,0.095540839,1,0,0,0.4345,3,21,99,14,1,o,images/br_o.png,images/cb_o.png,,,,,,,,,,,,,,,,,,,,,,,,,
,,,,,,00100,2023-11-08_15h03.49.549,vbt_B1_day1,2022.2.4,MacIntel,60.0024001,,,,,,,,,,,,,,,,,,,0.359065891,0.123909641,1,0,0,5.5994,3,22,100,2,1,c,images/br_c.png,images/cb_c.png,,,,,,,,,,,,,,,,,,,,,,,,,
,,,,,,00100,2023-11-08_15h03.49.549,vbt_B1_day1,2022.2.4,MacIntel,60.0024001,,,,,,,,,,,,,,,,,,,0.340002984,0.034924079,1,0,0,0.4342,3,23,101,15,1,p,images/br_p.png,images/cb_p.png,,,,,,,,,,,,,,,,,,,,,,,,,
,,,,,,00100,2023-11-08_15h03.49.549,vbt_B1_day1,2022.2.4,MacIntel,60.0024001,,,,,,,,,,,,,,,,,,,0.332904663,0.00360616,1,0,0,0.2843,3,24,102,20,1,u,images/br_u.png,images/cb_u.png,,,,,,,,,,,,,,,,,,,,,,,,,
,,,,,,00100,2023-11-08_15h03.49.549,vbt_B1_day1,2022.2.4,MacIntel,60.0024001,,,,,,,,,,,,,,,,,,,0.332904663,0.003843553,1,0,0,20.4831,3,25,103,3,1,d,images/br_d.png,images/cb_d.png,,,,,,,,,,,,,,,,,,,,,,,,,
,,,,,,00100,2023-11-08_15h03.49.549,vbt_B1_day1,2022.2.4,MacIntel,60.0024001,,,,,,,,,,,,,,,,,,,0.332904663,0.003843553,1,0,0,0.4497,4,0,104,6,1,g,images/br_g.png,images/cb_g.png,,,,,,,,,,,,,,,,,,,,,,,,,
,,,,,,00100,2023-11-08_15h03.49.549,vbt_B1_day1,2022.2.4,MacIntel,60.0024001,,,,,,,,,,,,,,,,,,,0.331586575,-0.036934238,1,0,0,0.4996,4,1,105,20,1,u,images/br_u.png,images/cb_u.png,,,,,,,,,,,,,,,,,,,,,,,,,
,,,,,,00100,2023-11-08_15h03.49.549,vbt_B1_day1,2022.2.4,MacIntel,60.0024001,,,,,,,,,,,,,,,,,,,0.32889601,0.114340007,1,0,0,0.5995,4,2,106,15,1,p,images/br_p.png,images/cb_p.png,,,,,,,,,,,,,,,,,,,,,,,,,
,,,,,,00100,2023-11-08_15h03.49.549,vbt_B1_day1,2022.2.4,MacIntel,60.0024001,,,,,,,,,,,,,,,,,,,0.327877604,0.083599379,1,0,0,0.4007,4,3,107,1,1,b,images/br_b.png,images/cb_b.png,,,,,,,,,,,,,,,,,,,,,,,,,
,,,,,,00100,2023-11-08_15h03.49.549,vbt_B1_day1,2022.2.4,MacIntel,60.0024001,,,,,,,,,,,,,,,,,,,0.328191664,0.082587212,1,0,0,4.4798,4,4,108,0,1,a,images/br_a.png,images/cb_a.png,,,,,,,,,,,,,,,,,,,,,,,,,
,,,,,,00100,2023-11-08_15h03.49.549,vbt_B1_day1,2022.2.4,MacIntel,60.0024001,,,,,,,,,,,,,,,,,,,0.318618639,0.076941867,1,0,0,1.8517,4,5,109,16,1,q,images/br_q.png,images/cb_q.png,,,,,,,,,,,,,,,,,,,,,,,,,
,,,,,,00100,2023-11-08_15h03.49.549,vbt_B1_day1,2022.2.4,MacIntel,60.0024001,,,,,,,,,,,,,,,,,,,0.260253364,0.036601969,1,0,0,0.2343,4,6,110,24,1,y,images/br_y.png,images/cb_y.png,,,,,,,,,,,,,,,,,,,,,,,,,
,,,,,,00100,2023-11-08_15h03.49.549,vbt_B1_day1,2022.2.4,MacIntel,60.0024001,,,,,,,,,,,,,,,,,,,0.259904853,0.037084283,1,0,0,4.1494,4,7,111,10,1,k,images/br_k.png,images/cb_k.png,,,,,,,,,,,,,,,,,,,,,,,,,
,,,,,,00100,2023-11-08_15h03.49.549,vbt_B1_day1,2022.2.4,MacIntel,60.0024001,,,,,,,,,,,,,,,,,,,0.317740682,0.204388224,1,0,0,0.3491,4,8,112,11,1,l,images/br_l.png,images/cb_l.png,,,,,,,,,,,,,,,,,,,,,,,,,
,,,,,,00100,2023-11-08_15h03.49.549,vbt_B1_day1,2022.2.4,MacIntel,60.0024001,,,,,,,,,,,,,,,,,,,0.380645345,0.032939928,1,0,0,0.3507,4,9,113,21,1,v,images/br_v.png,images/cb_v.png,,,,,,,,,,,,,,,,,,,,,,,,,
,,,,,,00100,2023-11-08_15h03.49.549,vbt_B1_day1,2022.2.4,MacIntel,60.0024001,,,,,,,,,,,,,,,,,,,0.422791477,0.111467387,1,0,0,0.5172,4,10,114,18,1,s,images/br_s.png,images/cb_s.png,,,,,,,,,,,,,,,,,,,,,,,,,
,,,,,,00100,2023-11-08_15h03.49.549,vbt_B1_day1,2022.2.4,MacIntel,60.0024001,,,,,,,,,,,,,,,,,,,0.422062039,0.112022942,1,0,0,3.6005,4,11,115,4,1,e,images/br_e.png,images/cb_e.png,,,,,,,,,,,,,,,,,,,,,,,,,
,,,,,,00100,2023-11-08_15h03.49.549,vbt_B1_day1,2022.2.4,MacIntel,60.0024001,,,,,,,,,,,,,,,,,,,0.421349148,0.11274431,1,0,0,10.065,4,12,116,12,1,m,images/br_m.png,images/cb_m.png,,,,,,,,,,,,,,,,,,,,,,,,,
,,,,,,00100,2023-11-08_15h03.49.549,vbt_B1_day1,2022.2.4,MacIntel,60.0024001,,,,,,,,,,,,,,,,,,,0.336233317,0.16415273,1,0,0,0.2011,4,13,117,14,1,o,images/br_o.png,images/cb_o.png,,,,,,,,,,,,,,,,,,,,,,,,,
,,,,,,00100,2023-11-08_15h03.49.549,vbt_B1_day1,2022.2.4,MacIntel,60.0024001,,,,,,,,,,,,,,,,,,,0.336479357,0.163601617,1,0,0,3.5493,4,14,118,3,1,d,images/br_d.png,images/cb_d.png,,,,,,,,,,,,,,,,,,,,,,,,,
,,,,,,00100,2023-11-08_15h03.49.549,vbt_B1_day1,2022.2.4,MacIntel,60.0024001,,,,,,,,,,,,,,,,,,,0.308807916,0.263865577,1,0,0,0.0843,4,15,119,19,1,t,images/br_t.png,images/cb_t.png,,,,,,,,,,,,,,,,,,,,,,,,,
,,,,,,00100,2023-11-08_15h03.49.549,vbt_B1_day1,2022.2.4,MacIntel,60.0024001,,,,,,,,,,,,,,,,,,,0.30939209,0.262472907,1,0,0,9.8829,4,16,120,7,1,h,images/br_h.png,images/cb_h.png,,,,,,,,,,,,,,,,,,,,,,,,,
,,,,,,00100,2023-11-08_15h03.49.549,vbt_B1_day1,2022.2.4,MacIntel,60.0024001,,,,,,,,,,,,,,,,,,,0.285348375,0.17734063,1,0,0,0.5005,4,17,121,25,1,z,images/br_z.png,images/cb_z.png,,,,,,,,,,,,,,,,,,,,,,,,,
,,,,,,00100,2023-11-08_15h03.49.549,vbt_B1_day1,2022.2.4,MacIntel,60.0024001,,,,,,,,,,,,,,,,,,,0.319490899,0.019703708,1,0,0,4.3824,4,18,122,13,1,n,images/br_n.png,images/cb_n.png,,,,,,,,,,,,,,,,,,,,,,,,,
,,,,,,00100,2023-11-08_15h03.49.549,vbt_B1_day1,2022.2.4,MacIntel,60.0024001,,,,,,,,,,,,,,,,,,,0.17610616,0.119402059,1,0,0,0.3845,4,19,123,2,1,c,images/br_c.png,images/cb_c.png,,,,,,,,,,,,,,,,,,,,,,,,,
,,,,,,00100,2023-11-08_15h03.49.549,vbt_B1_day1,2022.2.4,MacIntel,60.0024001,,,,,,,,,,,,,,,,,,,0.195594889,0.131517809,1,0,0,2.1519,4,20,124,22,1,w,images/br_w.png,images/cb_w.png,,,,,,,,,,,,,,,,,,,,,,,,,
,,,,,,00100,2023-11-08_15h03.49.549,vbt_B1_day1,2022.2.4,MacIntel,60.0024001,,,,,,,,,,,,,,,,,,,0.177875366,-0.12143141,1,0,0,0.2,4,21,125,23,1,x,images/br_x.png,images/cb_x.png,,,,,,,,,,,,,,,,,,,,,,,,,
,,,,,,00100,2023-11-08_15h03.49.549,vbt_B1_day1,2022.2.4,MacIntel,60.0024001,,,,,,,,,,,,,,,,,,,0.230987481,-0.083317057,1,0,0,4.0818,4,22,126,5,1,f,images/br_f.png,images/cb_f.png,,,,,,,,,,,,,,,,,,,,,,,,,
,,,,,,00100,2023-11-08_15h03.49.549,vbt_B1_day1,2022.2.4,MacIntel,60.0024001,,,,,,,,,,,,,,,,,,,0.196751506,-0.077929213,1,0,0,0.4337,4,23,127,8,1,i,images/br_i.png,images/cb_i.png,,,,,,,,,,,,,,,,,,,,,,,,,
,,,,,,00100,2023-11-08_15h03.49.549,vbt_B1_day1,2022.2.4,MacIntel,60.0024001,,,,,,,,,,,,,,,,,,,0.221550361,0.153946601,1,0,0,0.6226,4,24,128,17,1,r,images/br_r.png,images/cb_r.png,,,,,,,,,,,,,,,,,,,,,,,,,
,,,,,,00100,2023-11-08_15h03.49.549,vbt_B1_day1,2022.2.4,MacIntel,60.0024001,,,,,,,,,,,,,,,,,,,0.23005093,0.123219842,1,0,0,2.9486,4,25,129,9,1,j,images/br_j.png,images/cb_j.png,,,,,,,,,,,,,,,,,,,,,,,,,
,,,,,,00100,2023-11-08_15h03.49.549,vbt_B1_day1,2022.2.4,MacIntel,60.0024001,,,,,,,,,,,,,,,,,,,0.321545749,0.157244873,1,0,0,0.0495,5,0,130,14,1,o,images/br_o.png,images/cb_o.png,,,,,,,,,,,,,,,,,,,,,,,,,
,,,,,,00100,2023-11-08_15h03.49.549,vbt_B1_day1,2022.2.4,MacIntel,60.0024001,,,,,,,,,,,,,,,,,,,0.425664062,0.301410607,1,0,0,0.4332,5,1,131,15,1,p,images/br_p.png,images/cb_p.png,,,,,,,,,,,,,,,,,,,,,,,,,
,,,,,,00100,2023-11-08_15h03.49.549,vbt_B1_day1,2022.2.4,MacIntel,60.0024001,,,,,,,,,,,,,,,,,,,0.297313097,0.164906548,1,0,0,0.1001,5,2,132,19,1,t,images/br_t.png,images/cb_t.png,,,,,,,,,,,,,,,,,,,,,,,,,
,,,,,,00100,2023-11-08_15h03.49.549,vbt_B1_day1,2022.2.4,MacIntel,60.0024001,,,,,,,,,,,,,,,,,,,0.297560967,0.164392361,1,0,0,0.4153,5,3,133,7,1,h,images/br_h.png,images/cb_h.png,,,,,,,,,,,,,,,,,,,,,,,,,
,,,,,,00100,2023-11-08_15h03.49.549,vbt_B1_day1,2022.2.4,MacIntel,60.0024001,,,,,,,,,,,,,,,,,,,0.41427219,0.199926622,1,0,0,0.2173,5,4,134,21,1,v,images/br_v.png,images/cb_v.png,,,,,,,,,,,,,,,,,,,,,,,,,
,,,,,,00100,2023-11-08_15h03.49.549,vbt_B1_day1,2022.2.4,MacIntel,60.0024001,,,,,,,,,,,,,,,,,,,0.404835341,0.193083225,1,0,0,0.2848,5,5,135,17,1,r,images/br_r.png,images/cb_r.png,,,,,,,,,,,,,,,,,,,,,,,,,
,,,,,,00100,2023-11-08_15h03.49.549,vbt_B1_day1,2022.2.4,MacIntel,60.0024001,,,,,,,,,,,,,,,,,,,0.404835341,0.19359687,1,0,0,0.0497,5,6,136,25,1,z,images/br_z.png,images/cb_z.png,,,,,,,,,,,,,,,,,,,,,,,,,
,,,,,,00100,2023-11-08_15h03.49.549,vbt_B1_day1,2022.2.4,MacIntel,60.0024001,,,,,,,,,,,,,,,,,,,0.404833984,0.193859795,1,0,0,0.017,5,7,137,9,1,j,images/br_j.png,images/cb_j.png,,,,,,,,,,,,,,,,,,,,,,,,,
,,,,,,00100,2023-11-08_15h03.49.549,vbt_B1_day1,2022.2.4,MacIntel,60.0024001,,,,,,,,,,,,,,,,,,,0.312267931,-0.219491645,1,0,0,0.6152,5,8,138,8,1,i,images/br_i.png,images/cb_i.png,,,,,,,,,,,,,,,,,,,,,,,,,
,,,,,,00100,2023-11-08_15h03.49.549,vbt_B1_day1,2022.2.4,MacIntel,60.0024001,,,,,,,,,,,,,,,,,,,0.369662137,0.262740055,1,0,0,0.0999,5,9,139,4,1,e,images/br_e.png,images/cb_e.png,,,,,,,,,,,,,,,,,,,,,,,,,
,,,,,,00100,2023-11-08_15h03.49.549,vbt_B1_day1,2022.2.4,MacIntel,60.0024001,,,,,,,,,,,,,,,,,,,0.352628445,0.195282694,1,0,0,0.0336,5,10,140,2,1,c,images/br_c.png,images/cb_c.png,,,,,,,,,,,,,,,,,,,,,,,,,
,,,,,,00100,2023-11-08_15h03.49.549,vbt_B1_day1,2022.2.4,MacIntel,60.0024001,,,,,,,,,,,,,,,,,,,0.333629896,0.05439053,1,0,0,0.1992,5,11,141,24,1,y,images/br_y.png,images/cb_y.png,,,,,,,,,,,,,,,,,,,,,,,,,
,,,,,,00100,2023-11-08_15h03.49.549,vbt_B1_day1,2022.2.4,MacIntel,60.0024001,,,,,,,,,,,,,,,,,,,0.293192546,-0.176178046,1,0,0,1.0997,5,12,142,22,1,w,images/br_w.png,images/cb_w.png,,,,,,,,,,,,,,,,,,,,,,,,,
,,,,,,00100,2023-11-08_15h03.49.549,vbt_B1_day1,2022.2.4,MacIntel,60.0024001,,,,,,,,,,,,,,,,,,,0.318611518,-0.002771878,1,0,0,1.1837,5,13,143,12,1,m,images/br_m.png,images/cb_m.png,,,,,,,,,,,,,,,,,,,,,,,,,
,,,,,,00100,2023-11-08_15h03.49.549,vbt_B1_day1,2022.2.4,MacIntel,60.0024001,,,,,,,,,,,,,,,,,,,0.341857503,0.144013197,1,0,0,0.0178,5,14,144,10,1,k,images/br_k.png,images/cb_k.png,,,,,,,,,,,,,,,,,,,,,,,,,
,,,,,,00100,2023-11-08_15h03.49.549,vbt_B1_day1,2022.2.4,MacIntel,60.0024001,,,,,,,,,,,,,,,,,,,0.341857503,0.144013197,1,0,0,5.8166,5,15,145,20,1,u,images/br_u.png,images/cb_u.png,,,,,,,,,,,,,,,,,,,,,,,,,
,,,,,,00100,2023-11-08_15h03.49.549,vbt_B1_day1,2022.2.4,MacIntel,60.0024001,,,,,,,,,,,,,,,,,,,0.341857503,0.144013197,1,0,0,8.6825,5,16,146,3,1,d,images/br_d.png,images/cb_d.png,,,,,,,,,,,,,,,,,,,,,,,,,
,,,,,,00100,2023-11-08_15h03.49.549,vbt_B1_day1,2022.2.4,MacIntel,60.0024001,,,,,,,,,,,,,,,,,,,0.472684597,0.179824185,1,0,0,0.7312,5,17,147,6,1,g,images/br_g.png,images/cb_g.png,,,,,,,,,,,,,,,,,,,,,,,,,
,,,,,,00100,2023-11-08_15h03.49.549,vbt_B1_day1,2022.2.4,MacIntel,60.0024001,,,,,,,,,,,,,,,,,,,0.456210666,-0.089622667,1,0,0,0.3068,5,18,148,5,1,f,images/br_f.png,images/cb_f.png,,,,,,,,,,,,,,,,,,,,,,,,,
,,,,,,00100,2023-11-08_15h03.49.549,vbt_B1_day1,2022.2.4,MacIntel,60.0024001,,,,,,,,,,,,,,,,,,,0.441035156,0.012331,1,0,0,2.8639,5,19,149,1,1,b,images/br_b.png,images/cb_b.png,,,,,,,,,,,,,,,,,,,,,,,,,
,,,,,,00100,2023-11-08_15h03.49.549,vbt_B1_day1,2022.2.4,MacIntel,60.0024001,,,,,,,,,,,,,,,,,,,0.414790853,0.003196343,1,0,0,0.3328,5,20,150,23,1,x,images/br_x.png,images/cb_x.png,,,,,,,,,,,,,,,,,,,,,,,,,
,,,,,,00100,2023-11-08_15h03.49.549,vbt_B1_day1,2022.2.4,MacIntel,60.0024001,,,,,,,,,,,,,,,,,,,0.22055542,0.156869032,1,0,0,3.0835,5,21,151,13,1,n,images/br_n.png,images/cb_n.png,,,,,,,,,,,,,,,,,,,,,,,,,
,,,,,,00100,2023-11-08_15h03.49.549,vbt_B1_day1,2022.2.4,MacIntel,60.0024001,,,,,,,,,,,,,,,,,,,0.138421156,0.079063382,1,0,0,0.3342,5,22,152,0,1,a,images/br_a.png,images/cb_a.png,,,,,,,,,,,,,,,,,,,,,,,,,
,,,,,,00100,2023-11-08_15h03.49.549,vbt_B1_day1,2022.2.4,MacIntel,60.0024001,,,,,,,,,,,,,,,,,,,0.308307834,0.098740167,1,0,0,1.0502,5,23,153,18,1,s,images/br_s.png,images/cb_s.png,,,,,,,,,,,,,,,,,,,,,,,,,
,,,,,,00100,2023-11-08_15h03.49.549,vbt_B1_day1,2022.2.4,MacIntel,60.0024001,,,,,,,,,,,,,,,,,,,0.333100111,0.163358426,1,0,0,2.1504,5,24,154,16,1,q,images/br_q.png,images/cb_q.png,,,,,,,,,,,,,,,,,,,,,,,,,
,,,,,,00100,2023-11-08_15h03.49.549,vbt_B1_day1,2022.2.4,MacIntel,60.0024001,,,,,,,,,,,,,,,,,,,0.448798692,0.054230855,1,0,0,0.5022,5,25,155,11,1,l,images/br_l.png,images/cb_l.png,,,,,,,,,,,,,,,,,,,,,,,,,
,,,,,,00100,2023-11-08_15h03.49.549,vbt_B1_day1,2022.2.4,MacIntel,60.0024001,,,,,,,,,,,,,,,,,,,0.370858968,-0.036568875,1,0,0,0.6337,6,0,156,22,1,w,images/br_w.png,images/cb_w.png,,,,,,,,,,,,,,,,,,,,,,,,,
,,,,,,00100,2023-11-08_15h03.49.549,vbt_B1_day1,2022.2.4,MacIntel,60.0024001,,,,,,,,,,,,,,,,,,,0.370858968,-0.036568875,1,0,0,0.1824,6,1,157,19,1,t,images/br_t.png,images/cb_t.png,,,,,,,,,,,,,,,,,,,,,,,,,
,,,,,,00100,2023-11-08_15h03.49.549,vbt_B1_day1,2022.2.4,MacIntel,60.0024001,,,,,,,,,,,,,,,,,,,0.364796414,0.030984429,1,0,0,0.3983,6,2,158,14,1,o,images/br_o.png,images/cb_o.png,,,,,,,,,,,,,,,,,,,,,,,,,
,,,,,,00100,2023-11-08_15h03.49.549,vbt_B1_day1,2022.2.4,MacIntel,60.0024001,,,,,,,,,,,,,,,,,,,0.364796414,0.030496453,1,0,0,1.4816,6,3,159,7,1,h,images/br_h.png,images/cb_h.png,,,,,,,,,,,,,,,,,,,,,,,,,
,,,,,,00100,2023-11-08_15h03.49.549,vbt_B1_day1,2022.2.4,MacIntel,60.0024001,,,,,,,,,,,,,,,,,,,0.538402371,0.031484002,1,0,0,0.4654,6,4,160,24,1,y,images/br_y.png,images/cb_y.png,,,,,,,,,,,,,,,,,,,,,,,,,
,,,,,,00100,2023-11-08_15h03.49.549,vbt_B1_day1,2022.2.4,MacIntel,60.0024001,,,,,,,,,,,,,,,,,,,0.504830729,0.018981255,1,0,0,0.7814,6,5,161,8,1,i,images/br_i.png,images/cb_i.png,,,,,,,,,,,,,,,,,,,,,,,,,
,,,,,,00100,2023-11-08_15h03.49.549,vbt_B1_day1,2022.2.4,MacIntel,60.0024001,,,,,,,,,,,,,,,,,,,0.45838718,0.078904622,1,0,0,0.2848,6,6,162,15,1,p,images/br_p.png,images/cb_p.png,,,,,,,,,,,,,,,,,,,,,,,,,
,,,,,,00100,2023-11-08_15h03.49.549,vbt_B1_day1,2022.2.4,MacIntel,60.0024001,,,,,,,,,,,,,,,,,,,0.327419976,-0.28921129,1,0,0,0.5344,6,7,163,21,1,v,images/br_v.png,images/cb_v.png,,,,,,,,,,,,,,,,,,,,,,,,,
,,,,,,00100,2023-11-08_15h03.49.549,vbt_B1_day1,2022.2.4,MacIntel,60.0024001,,,,,,,,,,,,,,,,,,,0.314491035,-0.070242581,1,0,0,0.383,6,8,164,11,1,l,images/br_l.png,images/cb_l.png,,,,,,,,,,,,,,,,,,,,,,,,,
,,,,,,00100,2023-11-08_15h03.49.549,vbt_B1_day1,2022.2.4,MacIntel,60.0024001,,,,,,,,,,,,,,,,,,,0.33284885,0.167806532,1,0,0,0.4669,6,9,165,10,1,k,images/br_k.png,images/cb_k.png,,,,,,,,,,,,,,,,,,,,,,,,,
,,,,,,00100,2023-11-08_15h03.49.549,vbt_B1_day1,2022.2.4,MacIntel,60.0024001,,,,,,,,,,,,,,,,,,,0.346796739,0.01802653,1,0,0,2.2827,6,10,166,20,1,u,images/br_u.png,images/cb_u.png,,,,,,,,,,,,,,,,,,,,,,,,,
,,,,,,00100,2023-11-08_15h03.49.549,vbt_B1_day1,2022.2.4,MacIntel,60.0024001,,,,,,,,,,,,,,,,,,,0.346559245,0.018582086,1,0,0,2.0828,6,11,167,13,1,n,images/br_n.png,images/cb_n.png,,,,,,,,,,,,,,,,,,,,,,,,,
,,,,,,00100,2023-11-08_15h03.49.549,vbt_B1_day1,2022.2.4,MacIntel,60.0024001,,,,,,,,,,,,,,,,,,,0.330788845,0.120283271,1,0,0,0.9843,6,12,168,16,1,q,images/br_q.png,images/cb_q.png,,,,,,,,,,,,,,,,,,,,,,,,,
,,,,,,00100,2023-11-08_15h03.49.549,vbt_B1_day1,2022.2.4,MacIntel,60.0024001,,,,,,,,,,,,,,,,,,,0.181958279,-0.139604221,1,0,0,0.5001,6,13,169,18,1,s,images/br_s.png,images/cb_s.png,,,,,,,,,,,,,,,,,,,,,,,,,
,,,,,,00100,2023-11-08_15h03.49.549,vbt_B1_day1,2022.2.4,MacIntel,60.0024001,,,,,,,,,,,,,,,,,,,0.250560371,0.119058804,1,0,0,5.0668,6,14,170,9,1,j,images/br_j.png,images/cb_j.png,,,,,,,,,,,,,,,,,,,,,,,,,
,,,,,,00100,2023-11-08_15h03.49.549,vbt_B1_day1,2022.2.4,MacIntel,60.0024001,,,,,,,,,,,,,,,,,,,0.251115926,0.119058804,1,0,0,17.7837,6,15,171,3,1,d,images/br_d.png,images/cb_d.png,,,,,,,,,,,,,,,,,,,,,,,,,
,,,,,,00100,2023-11-08_15h03.49.549,vbt_B1_day1,2022.2.4,MacIntel,60.0024001,,,,,,,,,,,,,,,,,,,0.267065498,0.288382484,1,0,0,0.4986,6,16,172,0,1,a,images/br_a.png,images/cb_a.png,,,,,,,,,,,,,,,,,,,,,,,,,
,,,,,,00100,2023-11-08_15h03.49.549,vbt_B1_day1,2022.2.4,MacIntel,60.0024001,,,,,,,,,,,,,,,,,,,0.271113078,-0.010103149,1,0,0,4.0666,6,17,173,12,1,m,images/br_m.png,images/cb_m.png,,,,,,,,,,,,,,,,,,,,,,,,,
,,,,,,00100,2023-11-08_15h03.49.549,vbt_B1_day1,2022.2.4,MacIntel,60.0024001,,,,,,,,,,,,,,,,,,,0.213840875,0.014830967,1,0,0,0.4671,6,18,174,23,1,x,images/br_x.png,images/cb_x.png,,,,,,,,,,,,,,,,,,,,,,,,,
,,,,,,00100,2023-11-08_15h03.49.549,vbt_B1_day1,2022.2.4,MacIntel,60.0024001,,,,,,,,,,,,,,,,,,,0.313916626,0.105967814,1,0,0,0.6347,6,19,175,17,1,r,images/br_r.png,images/cb_r.png,,,,,,,,,,,,,,,,,,,,,,,,,
,,,,,,00100,2023-11-08_15h03.49.549,vbt_B1_day1,2022.2.4,MacIntel,60.0024001,,,,,,,,,,,,,,,,,,,0.284996134,0.137485012,1,0,0,1.0667,6,20,176,5,1,f,images/br_f.png,images/cb_f.png,,,,,,,,,,,,,,,,,,,,,,,,,
,,,,,,00100,2023-11-08_15h03.49.549,vbt_B1_day1,2022.2.4,MacIntel,60.0024001,,,,,,,,,,,,,,,,,,,0.247970852,0.206108059,1,0,0,0.3825,6,21,177,1,1,b,images/br_b.png,images/cb_b.png,,,,,,,,,,,,,,,,,,,,,,,,,
,,,,,,00100,2023-11-08_15h03.49.549,vbt_B1_day1,2022.2.4,MacIntel,60.0024001,,,,,,,,,,,,,,,,,,,0.240196465,0.035431112,1,0,0,0.5302,6,22,178,25,1,z,images/br_z.png,images/cb_z.png,,,,,,,,,,,,,,,,,,,,,,,,,
,,,,,,00100,2023-11-08_15h03.49.549,vbt_B1_day1,2022.2.4,MacIntel,60.0024001,,,,,,,,,,,,,,,,,,,0.419509549,0.175685933,1,0,0,0.0522,6,23,179,4,1,e,images/br_e.png,images/cb_e.png,,,,,,,,,,,,,,,,,,,,,,,,,
,,,,,,00100,2023-11-08_15h03.49.549,vbt_B1_day1,2022.2.4,MacIntel,60.0024001,,,,,,,,,,,,,,,,,,,0.342234429,0.235620914,1,0,0,0.0872,6,24,180,6,1,g,images/br_g.png,images/cb_g.png,,,,,,,,,,,,,,,,,,,,,,,,,
,,,,,,00100,2023-11-08_15h03.49.549,vbt_B1_day1,2022.2.4,MacIntel,60.0024001,,,,,,,,,,,,,,,,,,,0.342234429,0.235620914,1,0,0,0.2833,6,25,181,2,1,c,images/br_c.png,images/cb_c.png,,,,,,,,,,,,,,,,,,,,,,,,,
,,,,,,00100,2023-11-08_15h03.49.549,vbt_B1_day1,2022.2.4,MacIntel,60.0024001,,,,,,,,,,,,,,,,,,,,,,,,,,,,,,,,,0.204295722,0.265475481,1,0,0,,,,,,,,,,,,,,,,,,,,
,,,,,,00100,2023-11-08_15h03.49.549,vbt_B1_day1,2022.2.4,MacIntel,60.0024001,,,,,,,,,,,,,,,,,,,,,,,,,,,,,,,,,,,,,,0.063978339,0.103622233,1,0,0,,,,,,,,,,,,,,,
,,,,,,00100,2023-11-08_15h03.49.549,vbt_B1_day1,2022.2.4,MacIntel,60.0024001,,,,,,,,,,,,,,,,,,,,,,,,,,,,,,,,,,,,,,,,,,,-0.25808414,0.03779914,1,0,0,ops...,ops...,0,0,0,53,1,opslaan,images/br_opslaan.png,images/cb_opslaan.png
,,,,,,00100,2023-11-08_15h03.49.549,vbt_B1_day1,2022.2.4,MacIntel,60.0024001,,,,,,,,,,,,,,,,,,,,,,,,,,,,,,,,,,,,,,,,,,,-0.243975186,0.09622701,1,0,0,vij...,vij...,0,1,1,54,1,vijftig,images/br_vijftig.png,images/cb_vijftig.png
,,,,,,00100,2023-11-08_15h03.49.549,vbt_B1_day1,2022.2.4,MacIntel,60.0024001,,,,,,,,,,,,,,,,,,,,,,,,,,,,,,,,,,,,,,,,,,,-0.093321465,0.125591973,1,0,0,tars,tars,0,2,2,20,1,tars,images/br_tars.png,images/cb_tars.png
,,,,,,00100,2023-11-08_15h03.49.549,vbt_B1_day1,2022.2.4,MacIntel,60.0024001,,,,,,,,,,,,,,,,,,,,,,,,,,,,,,,,,,,,,,,,,,,-0.080382758,0.341281365,1,0,0,loc.t.,loc.t.,0,3,3,34,1,lochten,images/br_lochten.png,images/cb_lochten.png
,,,,,,00100,2023-11-08_15h03.49.549,vbt_B1_day1,2022.2.4,MacIntel,60.0024001,,,,,,,,,,,,,,,,,,,,,,,,,,,,,,,,,,,,,,,,,,,-0.118025648,0.231841515,1,0,0,st.k,st.k,0,4,4,42,1,stuk,images/br_stuk.png,images/cb_stuk.png
,,,,,,00100,2023-11-08_15h03.49.549,vbt_B1_day1,2022.2.4,MacIntel,60.0024001,,,,,,,,,,,,,,,,,,,,,,,,,,,,,,,,,,,,,,,,,,,-0.096889106,0.192665744,1,0,0,knoe,knoe,0,5,5,22,1,knoe,images/br_knoe.png,images/cb_knoe.png
,,,,,,00100,2023-11-08_15h03.49.549,vbt_B1_day1,2022.2.4,MacIntel,60.0024001,,,,,,,,,,,,,,,,,,,,,,,,,,,,,,,,,,,,,,,,,,,-0.107545166,0.076207954,1,0,0,twij..,twij..,0,6,6,13,1,twijfel,images/br_twijfel.png,images/cb_twijfel.png
,,,,,,00100,2023-11-08_15h03.49.549,vbt_B1_day1,2022.2.4,MacIntel,60.0024001,,,,,,,,,,,,,,,,,,,,,,,,,,,,,,,,,,,,,,,,,,,0.007312961,0.107121921,1,0,0,v.....,v.....,0,7,7,36,1,vervaden,images/br_vervaden.png,images/cb_vervaden.png
,,,,,,00100,2023-11-08_15h03.49.549,vbt_B1_day1,2022.2.4,MacIntel,60.0024001,,,,,,,,,,,,,,,,,,,,,,,,,,,,,,,,,,,,,,,,,,,-0.008095364,0.076430189,1,0,0,toezi...,toezi...,0,8,8,56,1,toezicht,images/br_toezicht.png,images/cb_toezicht.png
,,,,,,00100,2023-11-08_15h03.49.549,vbt_B1_day1,2022.2.4,MacIntel,60.0024001,,,,,,,,,,,,,,,,,,,,,,,,,,,,,,,,,,,,,,,,,,,-0.008095364,0.076430189,1,0,0,.l.ll.e.,.l.ll.e.,0,9,9,33,1,flullen,images/br_flullen.png,images/cb_flullen.png
,,,,,,00100,2023-11-08_15h03.49.549,vbt_B1_day1,2022.2.4,MacIntel,60.0024001,,,,,,,,,,,,,,,,,,,,,,,,,,,,,,,,,,,,,,,,,,,0.057239651,0.109876709,1,0,0,booi,booi,0,10,10,23,1,booi,images/br_booi.png,images/cb_booi.png
,,,,,,00100,2023-11-08_15h03.49.549,vbt_B1_day1,2022.2.4,MacIntel,60.0024001,,,,,,,,,,,,,,,,,,,,,,,,,,,,,,,,,,,,,,,,,,,0.059078708,-0.001765001,1,0,0,m.zie.,m.zie.,0,11,11,10,1,muziek,images/br_muziek.png,images/cb_muziek.png
,,,,,,00100,2023-11-08_15h03.49.549,vbt_B1_day1,2022.2.4,MacIntel,60.0024001,,,,,,,,,,,,,,,,,,,,,,,,,,,,,,,,,,,,,,,,,,,-0.000632121,-0.032711521,1,0,0,teken..,teken..,0,12,12,55,1,tekenen,images/br_tekenen.png,images/cb_tekenen.png
,,,,,,00100,2023-11-08_15h03.49.549,vbt_B1_day1,2022.2.4,MacIntel,60.0024001,,,,,,,,,,,,,,,,,,,,,,,,,,,,,,,,,,,,,,,,,,,-0.090631714,-0.168965929,1,0,0,zaal,zaal,0,13,13,1,1,zaal,images/br_zaal.png,images/cb_zaal.png
,,,,,,00100,2023-11-08_15h03.49.549,vbt_B1_day1,2022.2.4,MacIntel,60.0024001,,,,,,,,,,,,,,,,,,,,,,,,,,,,,,,,,,,,,,,,,,,-0.140114814,-0.016203274,1,0,0,.aarv..,.aarv..,0,14,14,14,1,waarvan,images/br_waarvan.png,images/cb_waarvan.png
,,,,,,00100,2023-11-08_15h03.49.549,vbt_B1_day1,2022.2.4,MacIntel,60.0024001,,,,,,,,,,,,,,,,,,,,,,,,,,,,,,,,,,,,,,,,,,,0.111245185,-0.084892307,1,0,0,opvatten,opvatten,0,15,15,59,1,opvatten,images/br_opvatten.png,images/cb_opvatten.png
,,,,,,00100,2023-11-08_15h03.49.549,vbt_B1_day1,2022.2.4,MacIntel,60.0024001,,,,,,,,,,,,,,,,,,,,,,,,,,,,,,,,,,,,,,,,,,,0.004303792,-0.104925334,1,0,0,geno..,geno..,0,16,16,29,1,genond,images/br_genond.png,images/cb_genond.png
,,,,,,00100,2023-11-08_15h03.49.549,vbt_B1_day1,2022.2.4,MacIntel,60.0024001,,,,,,,,,,,,,,,,,,,,,,,,,,,,,,,,,,,,,,,,,,,0.006254001,-0.020536635,1,0,0,beba..,beba..,0,17,17,28,1,bebrip,images/br_bebrip.png,images/cb_bebrip.png
,,,,,,00100,2023-11-08_15h03.49.549,vbt_B1_day1,2022.2.4,MacIntel,60.0024001,,,,,,,,,,,,,,,,,,,,,,,,,,,,,,,,,,,,,,,,,,,0.09411655,-0.115378011,1,0,0,maken,maken,0,18,18,5,1,maken,images/br_maken.png,images/cb_maken.png
,,,,,,00100,2023-11-08_15h03.49.549,vbt_B1_day1,2022.2.4,MacIntel,60.0024001,,,,,,,,,,,,,,,,,,,,,,,,,,,,,,,,,,,,,,,,,,,0.097933824,0.043231472,1,0,0,liefde,liefde,0,19,19,51,1,liefde,images/br_liefde.png,images/cb_liefde.png
,,,,,,00100,2023-11-08_15h03.49.549,vbt_B1_day1,2022.2.4,MacIntel,60.0024001,,,,,,,,,,,,,,,,,,,,,,,,,,,,,,,,,,,,,,,,,,,-0.024499919,-0.106463352,1,0,0,.ier..,.ier..,0,20,20,15,1,hiervan,images/br_hiervan.png,images/cb_hiervan.png
,,,,,,00100,2023-11-08_15h03.49.549,vbt_B1_day1,2022.2.4,MacIntel,60.0024001,,,,,,,,,,,,,,,,,,,,,,,,,,,,,,,,,,,,,,,,,,,-0.028025241,0.371682824,1,0,0,.c..p,.c..p,0,21,21,4,1,schep,images/br_schep.png,images/cb_schep.png
,,,,,,00100,2023-11-08_15h03.49.549,vbt_B1_day1,2022.2.4,MacIntel,60.0024001,,,,,,,,,,,,,,,,,,,,,,,,,,,,,,,,,,,,,,,,,,,0.07856798,-0.086903212,1,0,0,.emel,.emel,0,22,22,45,1,hemel,images/br_hemel.png,images/cb_hemel.png
,,,,,,00100,2023-11-08_15h03.49.549,vbt_B1_day1,2022.2.4,MacIntel,60.0024001,,,,,,,,,,,,,,,,,,,,,,,,,,,,,,,,,,,,,,,,,,,0.069603475,0.064338311,1,0,0,d.bbe.,d.bbe.,0,23,23,9,1,dubbel,images/br_dubbel.png,images/cb_dubbel.png
,,,,,,00100,2023-11-08_15h03.49.549,vbt_B1_day1,2022.2.4,MacIntel,60.0024001,,,,,,,,,,,,,,,,,,,,,,,,,,,,,,,,,,,,,,,,,,,-0.016276652,-0.199312676,1,0,0,..ctie,..ctie,0,24,24,48,1,fictie,images/br_fictie.png,images/cb_fictie.png
,,,,,,00100,2023-11-08_15h03.49.549,vbt_B1_day1,2022.2.4,MacIntel,60.0024001,,,,,,,,,,,,,,,,,,,,,,,,,,,,,,,,,,,,,,,,,,,0.024767456,-0.005791083,1,0,0,atten..,atten..,0,25,25,17,1,attentie,images/br_attentie.png,images/cb_attentie.png
,,,,,,00100,2023-11-08_15h03.49.549,vbt_B1_day1,2022.2.4,MacIntel,60.0024001,,,,,,,,,,,,,,,,,,,,,,,,,,,,,,,,,,,,,,,,,,,0.081734755,0.004353095,1,0,0,prort,prort,0,26,26,27,1,prort,images/br_prort.png,images/cb_prort.png
,,,,,,00100,2023-11-08_15h03.49.549,vbt_B1_day1,2022.2.4,MacIntel,60.0024001,,,,,,,,,,,,,,,,,,,,,,,,,,,,,,,,,,,,,,,,,,,-0.004267036,-0.106212497,1,0,0,opplaa.,opplaa.,0,27,27,32,1,opplaan,images/br_opplaan.png,images/cb_opplaan.png
,,,,,,00100,2023-11-08_15h03.49.549,vbt_B1_day1,2022.2.4,MacIntel,60.0024001,,,,,,,,,,,,,,,,,,,,,,,,,,,,,,,,,,,,,,,,,,,0.054935031,-0.065583021,1,0,0,lava,lava,0,28,28,43,1,lava,images/br_lava.png,images/cb_lava.png
,,,,,,00100,2023-11-08_15h03.49.549,vbt_B1_day1,2022.2.4,MacIntel,60.0024001,,,,,,,,,,,,,,,,,,,,,,,,,,,,,,,,,,,,,,,,,,,-0.012972616,0.206643032,1,0,0,klimm..,klimm..,0,29,29,12,1,klimmen,images/br_klimmen.png,images/cb_klimmen.png
,,,,,,00100,2023-11-08_15h03.49.549,vbt_B1_day1,2022.2.4,MacIntel,60.0024001,,,,,,,,,,,,,,,,,,,,,,,,,,,,,,,,,,,,,,,,,,,0.147127618,-0.06298584,1,0,0,stam.n,stam.n,0,30,30,31,1,stamen,images/br_stamen.png,images/cb_stamen.png
,,,,,,00100,2023-11-08_15h03.49.549,vbt_B1_day1,2022.2.4,MacIntel,60.0024001,,,,,,,,,,,,,,,,,,,,,,,,,,,,,,,,,,,,,,,,,,,-0.08966451,0.019790446,1,0,0,.oog,.oog,0,31,31,41,1,hoog,images/br_hoog.png,images/cb_hoog.png
,,,,,,00100,2023-11-08_15h03.49.549,vbt_B1_day1,2022.2.4,MacIntel,60.0024001,,,,,,,,,,,,,,,,,,,,,,,,,,,,,,,,,,,,,,,,,,,0.057466905,0.127683614,1,0,0,.an..,.an..,0,32,32,8,1,kanjer,images/br_kanjer.png,images/cb_kanjer.png
,,,,,,00100,2023-11-08_15h03.49.549,vbt_B1_day1,2022.2.4,MacIntel,60.0024001,,,,,,,,,,,,,,,,,,,,,,,,,,,,,,,,,,,,,,,,,,,0.086567451,0.013168437,1,0,0,,,0,33,33,47,1,loods,images/br_loods.png,images/cb_loods.png
,,,,,,00100,2023-11-08_15h03.49.549,vbt_B1_day1,2022.2.4,MacIntel,60.0024001,,,,,,,,,,,,,,,,,,,,,,,,,,,,,,,,,,,,,,,,,,,-0.064217801,-0.077440728,1,0,0,,,0,34,34,19,1,schuilen,images/br_schuilen.png,images/cb_schuilen.png
,,,,,,00100,2023-11-08_15h03.49.549,vbt_B1_day1,2022.2.4,MacIntel,60.0024001,,,,,,,,,,,,,,,,,,,,,,,,,,,,,,,,,,,,,,,,,,,0.047934774,0.024781969,1,0,0,spanz..,spanz..,0,35,35,37,1,spanzing,images/br_spanzing.png,images/cb_spanzing.png
,,,,,,00100,2023-11-08_15h03.49.549,vbt_B1_day1,2022.2.4,MacIntel,60.0024001,,,,,,,,,,,,,,,,,,,,,,,,,,,,,,,,,,,,,,,,,,,0.050267741,-0.027262946,1,0,0,jaar,jaar,0,36,36,2,1,jaar,images/br_jaar.png,images/cb_jaar.png
,,,,,,00100,2023-11-08_15h03.49.549,vbt_B1_day1,2022.2.4,MacIntel,60.0024001,,,,,,,,,,,,,,,,,,,,,,,,,,,,,,,,,,,,,,,,,,,0.071367052,-0.035124715,1,0,0,reed..,reed..,0,37,37,30,1,reedje,images/br_reedje.png,images/cb_reedje.png
,,,,,,00100,2023-11-08_15h03.49.549,vbt_B1_day1,2022.2.4,MacIntel,60.0024001,,,,,,,,,,,,,,,,,,,,,,,,,,,,,,,,,,,,,,,,,,,0.034129571,-0.010724419,1,0,0,liegen,liegen,0,38,38,50,1,liegen,images/br_liegen.png,images/cb_liegen.png
,,,,,,00100,2023-11-08_15h03.49.549,vbt_B1_day1,2022.2.4,MacIntel,60.0024001,,,,,,,,,,,,,,,,,,,,,,,,,,,,,,,,,,,,,,,,,,,0.026425985,-0.022470974,1,0,0,vizi..,vizi..,0,39,39,49,1,vizier,images/br_vizier.png,images/cb_vizier.png
,,,,,,00100,2023-11-08_15h03.49.549,vbt_B1_day1,2022.2.4,MacIntel,60.0024001,,,,,,,,,,,,,,,,,,,,,,,,,,,,,,,,,,,,,,,,,,,0.034950426,-0.13673801,1,0,0,lezen,lezen,0,40,40,46,1,lezen,images/br_lezen.png,images/cb_lezen.png
,,,,,,00100,2023-11-08_15h03.49.549,vbt_B1_day1,2022.2.4,MacIntel,60.0024001,,,,,,,,,,,,,,,,,,,,,,,,,,,,,,,,,,,,,,,,,,,-0.002524618,-0.097592231,1,0,0,rezer,rezer,0,41,41,24,1,rezer,images/br_rezer.png,images/cb_rezer.png
,,,,,,00100,2023-11-08_15h03.49.549,vbt_B1_day1,2022.2.4,MacIntel,60.0024001,,,,,,,,,,,,,,,,,,,,,,,,,,,,,,,,,,,,,,,,,,,0.203436822,0.103700731,1,0,0,daar.ee.,daar.ee.,0,42,42,16,1,daarheen,images/br_daarheen.png,images/cb_daarheen.png
,,,,,,00100,2023-11-08_15h03.49.549,vbt_B1_day1,2022.2.4,MacIntel,60.0024001,,,,,,,,,,,,,,,,,,,,,,,,,,,,,,,,,,,,,,,,,,,0.031135118,0.333496602,1,0,0,st.ek..,st.ek..,0,43,43,35,1,stuikem,images/br_stuikem.png,images/cb_stuikem.png
,,,,,,00100,2023-11-08_15h03.49.549,vbt_B1_day1,2022.2.4,MacIntel,60.0024001,,,,,,,,,,,,,,,,,,,,,,,,,,,,,,,,,,,,,,,,,,,0.099911024,-0.009526333,1,0,0,menin.,menin.,0,44,44,11,1,mening,images/br_mening.png,images/cb_mening.png
,,,,,,00100,2023-11-08_15h03.49.549,vbt_B1_day1,2022.2.4,MacIntel,60.0024001,,,,,,,,,,,,,,,,,,,,,,,,,,,,,,,,,,,,,,,,,,,-0.060818481,0.46652242,1,0,0,sc....,sc....,0,45,45,38,1,schielen,images/br_schielen.png,images/cb_schielen.png
,,,,,,00100,2023-11-08_15h03.49.549,vbt_B1_day1,2022.2.4,MacIntel,60.0024001,,,,,,,,,,,,,,,,,,,,,,,,,,,,,,,,,,,,,,,,,,,0.01992886,-0.106928643,1,0,0,voorr...,voorr...,0,46,46,39,1,voorreur,images/br_voorreur.png,images/cb_voorreur.png
,,,,,,00100,2023-11-08_15h03.49.549,vbt_B1_day1,2022.2.4,MacIntel,60.0024001,,,,,,,,,,,,,,,,,,,,,,,,,,,,,,,,,,,,,,,,,,,0.066584608,0.170379571,1,0,0,kl...,kl...,0,47,47,7,1,klauw,images/br_klauw.png,images/cb_klauw.png
,,,,,,00100,2023-11-08_15h03.49.549,vbt_B1_day1,2022.2.4,MacIntel,60.0024001,,,,,,,,,,,,,,,,,,,,,,,,,,,,,,,,,,,,,,,,,,,0.129109226,0.314591387,1,0,0,valo.,valo.,0,48,48,26,1,valop,images/br_valop.png,images/cb_valop.png
,,,,,,00100,2023-11-08_15h03.49.549,vbt_B1_day1,2022.2.4,MacIntel,60.0024001,,,,,,,,,,,,,,,,,,,,,,,,,,,,,,,,,,,,,,,,,,,0.084056329,-0.083691678,1,0,0,jrej,jrej,0,49,49,21,1,dred,images/br_dred.png,images/cb_dred.png
,,,,,,00100,2023-11-08_15h03.49.549,vbt_B1_day1,2022.2.4,MacIntel,60.0024001,,,,,,,,,,,,,,,,,,,,,,,,,,,,,,,,,,,,,,,,,,,0.025804036,-0.130123698,1,0,0,voork...,voork...,0,50,50,58,1,voorkeur,images/br_voorkeur.png,images/cb_voorkeur.png
,,,,,,00100,2023-11-08_15h03.49.549,vbt_B1_day1,2022.2.4,MacIntel,60.0024001,,,,,,,,,,,,,,,,,,,,,,,,,,,,,,,,,,,,,,,,,,,0.065059882,-0.023310615,1,0,0,meenem..,meenem..,0,51,51,57,1,meenemen,images/br_meenemen.png,images/cb_meenemen.png
,,,,,,00100,2023-11-08_15h03.49.549,vbt_B1_day1,2022.2.4,MacIntel,60.0024001,,,,,,,,,,,,,,,,,,,,,,,,,,,,,,,,,,,,,,,,,,,-0.166761746,-0.057255249,1,0,0,z....,z....,0,52,52,52,1,zuiplap,images/br_zuiplap.png,images/cb_zuiplap.png
,,,,,,00100,2023-11-08_15h03.49.549,vbt_B1_day1,2022.2.4,MacIntel,60.0024001,,,,,,,,,,,,,,,,,,,,,,,,,,,,,,,,,,,,,,,,,,,-0.167377387,0.039246148,1,0,0,bri..,bri..,0,53,53,25,1,brijk,images/br_brijk.png,images/cb_brijk.png
,,,,,,00100,2023-11-08_15h03.49.549,vbt_B1_day1,2022.2.4,MacIntel,60.0024001,,,,,,,,,,,,,,,,,,,,,,,,,,,,,,,,,,,,,,,,,,,0.016962145,0.014757962,1,0,0,dief,dief,0,54,54,40,1,dief,images/br_dief.png,images/cb_dief.png
,,,,,,00100,2023-11-08_15h03.49.549,vbt_B1_day1,2022.2.4,MacIntel,60.0024001,,,,,,,,,,,,,,,,,,,,,,,,,,,,,,,,,,,,,,,,,,,0.029142456,0.048587816,1,0,0,wi.z.,wi.z.,0,55,55,44,1,wijze,images/br_wijze.png,images/cb_wijze.png
,,,,,,00100,2023-11-08_15h03.49.549,vbt_B1_day1,2022.2.4,MacIntel,60.0024001,,,,,,,,,,,,,,,,,,,,,,,,,,,,,,,,,,,,,,,,,,,0.126843465,-0.014680176,1,0,0,bleek,bleek,0,56,56,6,1,bleek,images/br_bleek.png,images/cb_bleek.png
,,,,,,00100,2023-11-08_15h03.49.549,vbt_B1_day1,2022.2.4,MacIntel,60.0024001,,,,,,,,,,,,,,,,,,,,,,,,,,,,,,,,,,,,,,,,,,,0.139791667,0.047854275,1,0,0,mrnd,mrnd,0,57,57,3,1,mand,images/br_mand.png,images/cb_mand.png
,,,,,,00100,2023-11-08_15h03.49.549,vbt_B1_day1,2022.2.4,MacIntel,60.0024001,,,,,,,,,,,,,,,,,,,,,,,,,,,,,,,,,,,,,,,,,,,0.057363756,-0.017140639,1,0,0,.itji..,.itji..,0,58,58,18,1,uitdelen,images/br_uitdelen.png,images/cb_uitdelen.png
,,,,,,00100,2023-11-08_15h03.49.549,vbt_B1_day1,2022.2.4,MacIntel,60.0024001,,,,,,,,,,,,,,,,,,,,,,,,,,,,,,,,,,,,,,,,,,,-0.019553562,-0.003893094,1,0,0,slak,slak,0,59,59,0,1,slak,images/br_slak.png,images/cb_slak.png
,,,,,,00100,2023-11-08_15h03.49.549,vbt_B1_day1,2022.2.4,MacIntel,60.0024001,,,,,,,,,,,,,,,,,,,,,,,,,,,,,,,,,,,,,,,,,,,,,,,,,,,,,,,,,
