welcome_mouse.x,welcome_mouse.y,welcome_mouse.leftButton,welcome_mouse.midButton,welcome_mouse.rightButton,welcome_mouse.time,"ID",date,expName,psychopyVersion,OS,frameRate,mouse_2.x,mouse_2.y,mouse_2.leftButton,mouse_2.midButton,mouse_2.rightButton,mouse_2.time,mouse_3.x,mouse_3.y,mouse_3.leftButton,mouse_3.midButton,mouse_3.rightButton,mouse_3.time,train_mouse.x,train_mouse.y,train_mouse.leftButton,train_mouse.midButton,train_mouse.rightButton,train_mouse.time,braille_mouse.x,braille_mouse.y,braille_mouse.leftButton,braille_mouse.midButton,braille_mouse.rightButton,braille_mouse.time,trials.thisRepN,trials.thisTrialN,trials.thisN,trials.thisIndex,trials.ran,nlLet,brLet,cbLet,mouse.x,mouse.y,mouse.leftButton,mouse.midButton,mouse.rightButton,testInstr_mouse.x,testInstr_mouse.y,testInstr_mouse.leftButton,testInstr_mouse.midButton,testInstr_mouse.rightButton,test_mouse.x,test_mouse.y,test_mouse.leftButton,test_mouse.midButton,test_mouse.rightButton,test_response.text,testResp,test_loop.thisRepN,test_loop.thisTrialN,test_loop.thisN,test_loop.thisIndex,test_loop.ran,nlWrd,brWrd,cbWrd
0.085185185,-0.35462963,1,0,0,14.674,00050,2023-10-10_08h49.47.262,vbt_B1_day1,2022.2.4,Win32,58.41803949,,,,,,,,,,,,,,,,,,,,,,,,,,,,,,,,,,,,,,,,,,,,,,,,,,,,,,,,,
,,,,,,00050,2023-10-10_08h49.47.262,vbt_B1_day1,2022.2.4,Win32,58.41803949,0.248148148,-0.32037037,1,0,0,7.8397,,,,,,,,,,,,,,,,,,,,,,,,,,,,,,,,,,,,,,,,,,,,,,,,,,,
,,,,,,00050,2023-10-10_08h49.47.262,vbt_B1_day1,2022.2.4,Win32,58.41803949,,,,,,,0.294444444,-0.317592593,1,0,0,15.8166,,,,,,,,,,,,,,,,,,,,,,,,,,,,,,,,,,,,,,,,,,,,,
,,,,,,00050,2023-10-10_08h49.47.262,vbt_B1_day1,2022.2.4,Win32,58.41803949,,,,,,,,,,,,,0.337962963,-0.330555556,1,0,0,25.305,,,,,,,,,,,,,,,,,,,,,,,,,,,,,,,,,,,,,,,
,,,,,,00050,2023-10-10_08h49.47.262,vbt_B1_day1,2022.2.4,Win32,58.41803949,,,,,,,,,,,,,,,,,,,0.343518519,-0.32962963,1,0,0,17.7676,0,0,0,3,1,d,images/br_d.png,images/cb_d.png,,,,,,,,,,,,,,,,,,,,,,,,,
,,,,,,00050,2023-10-10_08h49.47.262,vbt_B1_day1,2022.2.4,Win32,58.41803949,,,,,,,,,,,,,,,,,,,0.343518519,-0.32962963,1,0,0,18.5333,0,1,1,7,1,h,images/br_h.png,images/cb_h.png,,,,,,,,,,,,,,,,,,,,,,,,,
,,,,,,00050,2023-10-10_08h49.47.262,vbt_B1_day1,2022.2.4,Win32,58.41803949,,,,,,,,,,,,,,,,,,,0.343518519,-0.32962963,1,0,0,14.5534,0,2,2,11,1,l,images/br_l.png,images/cb_l.png,,,,,,,,,,,,,,,,,,,,,,,,,
,,,,,,00050,2023-10-10_08h49.47.262,vbt_B1_day1,2022.2.4,Win32,58.41803949,,,,,,,,,,,,,,,,,,,0.343518519,-0.32962963,1,0,0,10.74,0,3,3,16,1,q,images/br_q.png,images/cb_q.png,,,,,,,,,,,,,,,,,,,,,,,,,
,,,,,,00050,2023-10-10_08h49.47.262,vbt_B1_day1,2022.2.4,Win32,58.41803949,,,,,,,,,,,,,,,,,,,0.343518519,-0.32962963,1,0,0,10.7574,0,4,4,13,1,n,images/br_n.png,images/cb_n.png,,,,,,,,,,,,,,,,,,,,,,,,,
,,,,,,00050,2023-10-10_08h49.47.262,vbt_B1_day1,2022.2.4,Win32,58.41803949,,,,,,,,,,,,,,,,,,,0.343518519,-0.32962963,1,0,0,6.2943,0,5,5,4,1,e,images/br_e.png,images/cb_e.png,,,,,,,,,,,,,,,,,,,,,,,,,
,,,,,,00050,2023-10-10_08h49.47.262,vbt_B1_day1,2022.2.4,Win32,58.41803949,,,,,,,,,,,,,,,,,,,0.343518519,-0.32962963,1,0,0,17.8673,0,6,6,21,1,v,images/br_v.png,images/cb_v.png,,,,,,,,,,,,,,,,,,,,,,,,,
,,,,,,00050,2023-10-10_08h49.47.262,vbt_B1_day1,2022.2.4,Win32,58.41803949,,,,,,,,,,,,,,,,,,,0.318518519,-0.268518519,1,0,0,12.1716,0,7,7,1,1,b,images/br_b.png,images/cb_b.png,,,,,,,,,,,,,,,,,,,,,,,,,
,,,,,,00050,2023-10-10_08h49.47.262,vbt_B1_day1,2022.2.4,Win32,58.41803949,,,,,,,,,,,,,,,,,,,0.291666667,-0.240740741,1,0,0,14.6369,0,8,8,25,1,z,images/br_z.png,images/cb_z.png,,,,,,,,,,,,,,,,,,,,,,,,,
,,,,,,00050,2023-10-10_08h49.47.262,vbt_B1_day1,2022.2.4,Win32,58.41803949,,,,,,,,,,,,,,,,,,,0.291666667,-0.240740741,1,0,0,8.8753,0,9,9,23,1,x,images/br_x.png,images/cb_x.png,,,,,,,,,,,,,,,,,,,,,,,,,
,,,,,,00050,2023-10-10_08h49.47.262,vbt_B1_day1,2022.2.4,Win32,58.41803949,,,,,,,,,,,,,,,,,,,0.291666667,-0.240740741,1,0,0,14.5028,0,10,10,6,1,g,images/br_g.png,images/cb_g.png,,,,,,,,,,,,,,,,,,,,,,,,,
,,,,,,00050,2023-10-10_08h49.47.262,vbt_B1_day1,2022.2.4,Win32,58.41803949,,,,,,,,,,,,,,,,,,,0.291666667,-0.240740741,1,0,0,12.7052,0,11,11,9,1,j,images/br_j.png,images/cb_j.png,,,,,,,,,,,,,,,,,,,,,,,,,
,,,,,,00050,2023-10-10_08h49.47.262,vbt_B1_day1,2022.2.4,Win32,58.41803949,,,,,,,,,,,,,,,,,,,0.291666667,-0.240740741,1,0,0,12.0553,0,12,12,18,1,s,images/br_s.png,images/cb_s.png,,,,,,,,,,,,,,,,,,,,,,,,,
,,,,,,00050,2023-10-10_08h49.47.262,vbt_B1_day1,2022.2.4,Win32,58.41803949,,,,,,,,,,,,,,,,,,,0.291666667,-0.240740741,1,0,0,10.0077,0,13,13,17,1,r,images/br_r.png,images/cb_r.png,,,,,,,,,,,,,,,,,,,,,,,,,
,,,,,,00050,2023-10-10_08h49.47.262,vbt_B1_day1,2022.2.4,Win32,58.41803949,,,,,,,,,,,,,,,,,,,0.293518519,-0.238888889,1,0,0,14.4528,0,14,14,20,1,u,images/br_u.png,images/cb_u.png,,,,,,,,,,,,,,,,,,,,,,,,,
,,,,,,00050,2023-10-10_08h49.47.262,vbt_B1_day1,2022.2.4,Win32,58.41803949,,,,,,,,,,,,,,,,,,,0.293518519,-0.238888889,1,0,0,9.8745,0,15,15,14,1,o,images/br_o.png,images/cb_o.png,,,,,,,,,,,,,,,,,,,,,,,,,
,,,,,,00050,2023-10-10_08h49.47.262,vbt_B1_day1,2022.2.4,Win32,58.41803949,,,,,,,,,,,,,,,,,,,0.293518519,-0.238888889,1,0,0,10.4566,0,16,16,8,1,i,images/br_i.png,images/cb_i.png,,,,,,,,,,,,,,,,,,,,,,,,,
,,,,,,00050,2023-10-10_08h49.47.262,vbt_B1_day1,2022.2.4,Win32,58.41803949,,,,,,,,,,,,,,,,,,,0.293518519,-0.238888889,1,0,0,10.3901,0,17,17,5,1,f,images/br_f.png,images/cb_f.png,,,,,,,,,,,,,,,,,,,,,,,,,
,,,,,,00050,2023-10-10_08h49.47.262,vbt_B1_day1,2022.2.4,Win32,58.41803949,,,,,,,,,,,,,,,,,,,0.293518519,-0.238888889,1,0,0,15.4359,0,18,18,22,1,w,images/br_w.png,images/cb_w.png,,,,,,,,,,,,,,,,,,,,,,,,,
,,,,,,00050,2023-10-10_08h49.47.262,vbt_B1_day1,2022.2.4,Win32,58.41803949,,,,,,,,,,,,,,,,,,,0.293518519,-0.238888889,1,0,0,19.0995,0,19,19,19,1,t,images/br_t.png,images/cb_t.png,,,,,,,,,,,,,,,,,,,,,,,,,
,,,,,,00050,2023-10-10_08h49.47.262,vbt_B1_day1,2022.2.4,Win32,58.41803949,,,,,,,,,,,,,,,,,,,0.293518519,-0.238888889,1,0,0,13.7879,0,20,20,15,1,p,images/br_p.png,images/cb_p.png,,,,,,,,,,,,,,,,,,,,,,,,,
,,,,,,00050,2023-10-10_08h49.47.262,vbt_B1_day1,2022.2.4,Win32,58.41803949,,,,,,,,,,,,,,,,,,,0.293518519,-0.238888889,1,0,0,11.5065,0,21,21,2,1,c,images/br_c.png,images/cb_c.png,,,,,,,,,,,,,,,,,,,,,,,,,
,,,,,,00050,2023-10-10_08h49.47.262,vbt_B1_day1,2022.2.4,Win32,58.41803949,,,,,,,,,,,,,,,,,,,0.293518519,-0.238888889,1,0,0,13.8212,0,22,22,0,1,a,images/br_a.png,images/cb_a.png,,,,,,,,,,,,,,,,,,,,,,,,,
,,,,,,00050,2023-10-10_08h49.47.262,vbt_B1_day1,2022.2.4,Win32,58.41803949,,,,,,,,,,,,,,,,,,,0.293518519,-0.238888889,1,0,0,15.0028,0,23,23,10,1,k,images/br_k.png,images/cb_k.png,,,,,,,,,,,,,,,,,,,,,,,,,
,,,,,,00050,2023-10-10_08h49.47.262,vbt_B1_day1,2022.2.4,Win32,58.41803949,,,,,,,,,,,,,,,,,,,0.29537037,-0.237962963,1,0,0,10.2575,0,24,24,24,1,y,images/br_y.png,images/cb_y.png,,,,,,,,,,,,,,,,,,,,,,,,,
,,,,,,00050,2023-10-10_08h49.47.262,vbt_B1_day1,2022.2.4,Win32,58.41803949,,,,,,,,,,,,,,,,,,,0.29537037,-0.237962963,1,0,0,11.7757,0,25,25,12,1,m,images/br_m.png,images/cb_m.png,,,,,,,,,,,,,,,,,,,,,,,,,
,,,,,,00050,2023-10-10_08h49.47.262,vbt_B1_day1,2022.2.4,Win32,58.41803949,,,,,,,,,,,,,,,,,,,0.29537037,-0.237037037,1,0,0,6.4942,1,0,26,24,1,y,images/br_y.png,images/cb_y.png,,,,,,,,,,,,,,,,,,,,,,,,,
,,,,,,00050,2023-10-10_08h49.47.262,vbt_B1_day1,2022.2.4,Win32,58.41803949,,,,,,,,,,,,,,,,,,,0.29537037,-0.237037037,1,0,0,7.6599,1,1,27,25,1,z,images/br_z.png,images/cb_z.png,,,,,,,,,,,,,,,,,,,,,,,,,
,,,,,,00050,2023-10-10_08h49.47.262,vbt_B1_day1,2022.2.4,Win32,58.41803949,,,,,,,,,,,,,,,,,,,0.29537037,-0.237037037,1,0,0,8.2117,1,2,28,15,1,p,images/br_p.png,images/cb_p.png,,,,,,,,,,,,,,,,,,,,,,,,,
,,,,,,00050,2023-10-10_08h49.47.262,vbt_B1_day1,2022.2.4,Win32,58.41803949,,,,,,,,,,,,,,,,,,,0.29537037,-0.237037037,1,0,0,9.7739,1,3,29,20,1,u,images/br_u.png,images/cb_u.png,,,,,,,,,,,,,,,,,,,,,,,,,
,,,,,,00050,2023-10-10_08h49.47.262,vbt_B1_day1,2022.2.4,Win32,58.41803949,,,,,,,,,,,,,,,,,,,0.29537037,-0.237037037,1,0,0,7.6236,1,4,30,5,1,f,images/br_f.png,images/cb_f.png,,,,,,,,,,,,,,,,,,,,,,,,,
,,,,,,00050,2023-10-10_08h49.47.262,vbt_B1_day1,2022.2.4,Win32,58.41803949,,,,,,,,,,,,,,,,,,,0.29537037,-0.237037037,1,0,0,0.2521,1,5,31,11,1,l,images/br_l.png,images/cb_l.png,,,,,,,,,,,,,,,,,,,,,,,,,
,,,,,,00050,2023-10-10_08h49.47.262,vbt_B1_day1,2022.2.4,Win32,58.41803949,,,,,,,,,,,,,,,,,,,0.29537037,-0.237037037,1,0,0,2.8314,1,6,32,19,1,t,images/br_t.png,images/cb_t.png,,,,,,,,,,,,,,,,,,,,,,,,,
,,,,,,00050,2023-10-10_08h49.47.262,vbt_B1_day1,2022.2.4,Win32,58.41803949,,,,,,,,,,,,,,,,,,,0.29537037,-0.237037037,1,0,0,9.0408,1,7,33,9,1,j,images/br_j.png,images/cb_j.png,,,,,,,,,,,,,,,,,,,,,,,,,
,,,,,,00050,2023-10-10_08h49.47.262,vbt_B1_day1,2022.2.4,Win32,58.41803949,,,,,,,,,,,,,,,,,,,0.29537037,-0.237037037,1,0,0,9.2587,1,8,34,7,1,h,images/br_h.png,images/cb_h.png,,,,,,,,,,,,,,,,,,,,,,,,,
,,,,,,00050,2023-10-10_08h49.47.262,vbt_B1_day1,2022.2.4,Win32,58.41803949,,,,,,,,,,,,,,,,,,,0.298148148,-0.236111111,1,0,0,0.6825,1,9,35,1,1,b,images/br_b.png,images/cb_b.png,,,,,,,,,,,,,,,,,,,,,,,,,
,,,,,,00050,2023-10-10_08h49.47.262,vbt_B1_day1,2022.2.4,Win32,58.41803949,,,,,,,,,,,,,,,,,,,0.298148148,-0.236111111,1,0,0,3.1326,1,10,36,21,1,v,images/br_v.png,images/cb_v.png,,,,,,,,,,,,,,,,,,,,,,,,,
,,,,,,00050,2023-10-10_08h49.47.262,vbt_B1_day1,2022.2.4,Win32,58.41803949,,,,,,,,,,,,,,,,,,,0.298148148,-0.236111111,1,0,0,0.6326,1,11,37,12,1,m,images/br_m.png,images/cb_m.png,,,,,,,,,,,,,,,,,,,,,,,,,
,,,,,,00050,2023-10-10_08h49.47.262,vbt_B1_day1,2022.2.4,Win32,58.41803949,,,,,,,,,,,,,,,,,,,0.298148148,-0.236111111,1,0,0,0.8524,1,12,38,8,1,i,images/br_i.png,images/cb_i.png,,,,,,,,,,,,,,,,,,,,,,,,,
,,,,,,00050,2023-10-10_08h49.47.262,vbt_B1_day1,2022.2.4,Win32,58.41803949,,,,,,,,,,,,,,,,,,,0.299074074,-0.235185185,1,0,0,2.1814,1,13,39,6,1,g,images/br_g.png,images/cb_g.png,,,,,,,,,,,,,,,,,,,,,,,,,
,,,,,,00050,2023-10-10_08h49.47.262,vbt_B1_day1,2022.2.4,Win32,58.41803949,,,,,,,,,,,,,,,,,,,0.299074074,-0.235185185,1,0,0,1.1824,1,14,40,0,1,a,images/br_a.png,images/cb_a.png,,,,,,,,,,,,,,,,,,,,,,,,,
,,,,,,00050,2023-10-10_08h49.47.262,vbt_B1_day1,2022.2.4,Win32,58.41803949,,,,,,,,,,,,,,,,,,,0.299074074,-0.235185185,1,0,0,0.1032,1,15,41,4,1,e,images/br_e.png,images/cb_e.png,,,,,,,,,,,,,,,,,,,,,,,,,
,,,,,,00050,2023-10-10_08h49.47.262,vbt_B1_day1,2022.2.4,Win32,58.41803949,,,,,,,,,,,,,,,,,,,0.299074074,-0.235185185,1,0,0,3.1639,1,16,42,17,1,r,images/br_r.png,images/cb_r.png,,,,,,,,,,,,,,,,,,,,,,,,,
,,,,,,00050,2023-10-10_08h49.47.262,vbt_B1_day1,2022.2.4,Win32,58.41803949,,,,,,,,,,,,,,,,,,,0.299074074,-0.235185185,1,0,0,3.3469,1,17,43,18,1,s,images/br_s.png,images/cb_s.png,,,,,,,,,,,,,,,,,,,,,,,,,
,,,,,,00050,2023-10-10_08h49.47.262,vbt_B1_day1,2022.2.4,Win32,58.41803949,,,,,,,,,,,,,,,,,,,0.299074074,-0.235185185,1,0,0,0.0667,1,18,44,16,1,q,images/br_q.png,images/cb_q.png,,,,,,,,,,,,,,,,,,,,,,,,,
,,,,,,00050,2023-10-10_08h49.47.262,vbt_B1_day1,2022.2.4,Win32,58.41803949,,,,,,,,,,,,,,,,,,,0.299074074,-0.235185185,1,0,0,1.0652,1,19,45,2,1,c,images/br_c.png,images/cb_c.png,,,,,,,,,,,,,,,,,,,,,,,,,
,,,,,,00050,2023-10-10_08h49.47.262,vbt_B1_day1,2022.2.4,Win32,58.41803949,,,,,,,,,,,,,,,,,,,0.303703704,-0.228703704,1,0,0,0.4135,1,20,46,14,1,o,images/br_o.png,images/cb_o.png,,,,,,,,,,,,,,,,,,,,,,,,,
,,,,,,00050,2023-10-10_08h49.47.262,vbt_B1_day1,2022.2.4,Win32,58.41803949,,,,,,,,,,,,,,,,,,,0.303703704,-0.227777778,1,0,0,1.0687,1,21,47,3,1,d,images/br_d.png,images/cb_d.png,,,,,,,,,,,,,,,,,,,,,,,,,
,,,,,,00050,2023-10-10_08h49.47.262,vbt_B1_day1,2022.2.4,Win32,58.41803949,,,,,,,,,,,,,,,,,,,0.303703704,-0.227777778,1,0,0,2.9132,1,22,48,13,1,n,images/br_n.png,images/cb_n.png,,,,,,,,,,,,,,,,,,,,,,,,,
,,,,,,00050,2023-10-10_08h49.47.262,vbt_B1_day1,2022.2.4,Win32,58.41803949,,,,,,,,,,,,,,,,,,,0.306481481,-0.226851852,1,0,0,1.1824,1,23,49,23,1,x,images/br_x.png,images/cb_x.png,,,,,,,,,,,,,,,,,,,,,,,,,
,,,,,,00050,2023-10-10_08h49.47.262,vbt_B1_day1,2022.2.4,Win32,58.41803949,,,,,,,,,,,,,,,,,,,0.306481481,-0.226851852,1,0,0,2.2147,1,24,50,22,1,w,images/br_w.png,images/cb_w.png,,,,,,,,,,,,,,,,,,,,,,,,,
,,,,,,00050,2023-10-10_08h49.47.262,vbt_B1_day1,2022.2.4,Win32,58.41803949,,,,,,,,,,,,,,,,,,,0.306481481,-0.226851852,1,0,0,2.7839,1,25,51,10,1,k,images/br_k.png,images/cb_k.png,,,,,,,,,,,,,,,,,,,,,,,,,
,,,,,,00050,2023-10-10_08h49.47.262,vbt_B1_day1,2022.2.4,Win32,58.41803949,,,,,,,,,,,,,,,,,,,0.306481481,-0.226851852,1,0,0,2.8475,2,0,52,13,1,n,images/br_n.png,images/cb_n.png,,,,,,,,,,,,,,,,,,,,,,,,,
,,,,,,00050,2023-10-10_08h49.47.262,vbt_B1_day1,2022.2.4,Win32,58.41803949,,,,,,,,,,,,,,,,,,,0.306481481,-0.226851852,1,0,0,0.486,2,1,53,12,1,m,images/br_m.png,images/cb_m.png,,,,,,,,,,,,,,,,,,,,,,,,,
,,,,,,00050,2023-10-10_08h49.47.262,vbt_B1_day1,2022.2.4,Win32,58.41803949,,,,,,,,,,,,,,,,,,,0.306481481,-0.226851852,1,0,0,1.9008,2,2,54,21,1,v,images/br_v.png,images/cb_v.png,,,,,,,,,,,,,,,,,,,,,,,,,
,,,,,,00050,2023-10-10_08h49.47.262,vbt_B1_day1,2022.2.4,Win32,58.41803949,,,,,,,,,,,,,,,,,,,0.306481481,-0.226851852,1,0,0,3.3465,2,3,55,15,1,p,images/br_p.png,images/cb_p.png,,,,,,,,,,,,,,,,,,,,,,,,,
,,,,,,00050,2023-10-10_08h49.47.262,vbt_B1_day1,2022.2.4,Win32,58.41803949,,,,,,,,,,,,,,,,,,,0.306481481,-0.226851852,1,0,0,4.1796,2,4,56,16,1,q,images/br_q.png,images/cb_q.png,,,,,,,,,,,,,,,,,,,,,,,,,
,,,,,,00050,2023-10-10_08h49.47.262,vbt_B1_day1,2022.2.4,Win32,58.41803949,,,,,,,,,,,,,,,,,,,0.281481481,-0.225925926,1,0,0,2.5144,2,5,57,1,1,b,images/br_b.png,images/cb_b.png,,,,,,,,,,,,,,,,,,,,,,,,,
,,,,,,00050,2023-10-10_08h49.47.262,vbt_B1_day1,2022.2.4,Win32,58.41803949,,,,,,,,,,,,,,,,,,,0.281481481,-0.225925926,1,0,0,2.6644,2,6,58,11,1,l,images/br_l.png,images/cb_l.png,,,,,,,,,,,,,,,,,,,,,,,,,
,,,,,,00050,2023-10-10_08h49.47.262,vbt_B1_day1,2022.2.4,Win32,58.41803949,,,,,,,,,,,,,,,,,,,0.281481481,-0.225925926,1,0,0,1.7515,2,7,59,23,1,x,images/br_x.png,images/cb_x.png,,,,,,,,,,,,,,,,,,,,,,,,,
,,,,,,00050,2023-10-10_08h49.47.262,vbt_B1_day1,2022.2.4,Win32,58.41803949,,,,,,,,,,,,,,,,,,,0.281481481,-0.225925926,1,0,0,1.5312,2,8,60,25,1,z,images/br_z.png,images/cb_z.png,,,,,,,,,,,,,,,,,,,,,,,,,
,,,,,,00050,2023-10-10_08h49.47.262,vbt_B1_day1,2022.2.4,Win32,58.41803949,,,,,,,,,,,,,,,,,,,0.281481481,-0.225925926,1,0,0,2.7777,2,9,61,18,1,s,images/br_s.png,images/cb_s.png,,,,,,,,,,,,,,,,,,,,,,,,,
,,,,,,00050,2023-10-10_08h49.47.262,vbt_B1_day1,2022.2.4,Win32,58.41803949,,,,,,,,,,,,,,,,,,,0.281481481,-0.225925926,1,0,0,2.1315,2,10,62,6,1,g,images/br_g.png,images/cb_g.png,,,,,,,,,,,,,,,,,,,,,,,,,
,,,,,,00050,2023-10-10_08h49.47.262,vbt_B1_day1,2022.2.4,Win32,58.41803949,,,,,,,,,,,,,,,,,,,0.281481481,-0.225925926,1,0,0,0.6358,2,11,63,17,1,r,images/br_r.png,images/cb_r.png,,,,,,,,,,,,,,,,,,,,,,,,,
,,,,,,00050,2023-10-10_08h49.47.262,vbt_B1_day1,2022.2.4,Win32,58.41803949,,,,,,,,,,,,,,,,,,,0.281481481,-0.225925926,1,0,0,1.3989,2,12,64,4,1,e,images/br_e.png,images/cb_e.png,,,,,,,,,,,,,,,,,,,,,,,,,
,,,,,,00050,2023-10-10_08h49.47.262,vbt_B1_day1,2022.2.4,Win32,58.41803949,,,,,,,,,,,,,,,,,,,0.281481481,-0.225925926,1,0,0,2.3977,2,13,65,24,1,y,images/br_y.png,images/cb_y.png,,,,,,,,,,,,,,,,,,,,,,,,,
,,,,,,00050,2023-10-10_08h49.47.262,vbt_B1_day1,2022.2.4,Win32,58.41803949,,,,,,,,,,,,,,,,,,,0.281481481,-0.225925926,1,0,0,3.6466,2,14,66,8,1,i,images/br_i.png,images/cb_i.png,,,,,,,,,,,,,,,,,,,,,,,,,
,,,,,,00050,2023-10-10_08h49.47.262,vbt_B1_day1,2022.2.4,Win32,58.41803949,,,,,,,,,,,,,,,,,,,0.281481481,-0.225925926,1,0,0,1.4824,2,15,67,5,1,f,images/br_f.png,images/cb_f.png,,,,,,,,,,,,,,,,,,,,,,,,,
,,,,,,00050,2023-10-10_08h49.47.262,vbt_B1_day1,2022.2.4,Win32,58.41803949,,,,,,,,,,,,,,,,,,,0.281481481,-0.225925926,1,0,0,4.0129,2,16,68,20,1,u,images/br_u.png,images/cb_u.png,,,,,,,,,,,,,,,,,,,,,,,,,
,,,,,,00050,2023-10-10_08h49.47.262,vbt_B1_day1,2022.2.4,Win32,58.41803949,,,,,,,,,,,,,,,,,,,0.282407407,-0.225925926,1,0,0,0.6695,2,17,69,7,1,h,images/br_h.png,images/cb_h.png,,,,,,,,,,,,,,,,,,,,,,,,,
,,,,,,00050,2023-10-10_08h49.47.262,vbt_B1_day1,2022.2.4,Win32,58.41803949,,,,,,,,,,,,,,,,,,,0.282407407,-0.225925926,1,0,0,2.9834,2,18,70,10,1,k,images/br_k.png,images/cb_k.png,,,,,,,,,,,,,,,,,,,,,,,,,
,,,,,,00050,2023-10-10_08h49.47.262,vbt_B1_day1,2022.2.4,Win32,58.41803949,,,,,,,,,,,,,,,,,,,0.282407407,-0.225925926,1,0,0,1.6486,2,19,71,9,1,j,images/br_j.png,images/cb_j.png,,,,,,,,,,,,,,,,,,,,,,,,,
,,,,,,00050,2023-10-10_08h49.47.262,vbt_B1_day1,2022.2.4,Win32,58.41803949,,,,,,,,,,,,,,,,,,,0.282407407,-0.225925926,1,0,0,0.6659,2,20,72,2,1,c,images/br_c.png,images/cb_c.png,,,,,,,,,,,,,,,,,,,,,,,,,
,,,,,,00050,2023-10-10_08h49.47.262,vbt_B1_day1,2022.2.4,Win32,58.41803949,,,,,,,,,,,,,,,,,,,0.282407407,-0.225925926,1,0,0,3.3666,2,21,73,22,1,w,images/br_w.png,images/cb_w.png,,,,,,,,,,,,,,,,,,,,,,,,,
,,,,,,00050,2023-10-10_08h49.47.262,vbt_B1_day1,2022.2.4,Win32,58.41803949,,,,,,,,,,,,,,,,,,,0.282407407,-0.225925926,1,0,0,2.2978,2,22,74,3,1,d,images/br_d.png,images/cb_d.png,,,,,,,,,,,,,,,,,,,,,,,,,
,,,,,,00050,2023-10-10_08h49.47.262,vbt_B1_day1,2022.2.4,Win32,58.41803949,,,,,,,,,,,,,,,,,,,0.282407407,-0.225925926,1,0,0,0.1164,2,23,75,14,1,o,images/br_o.png,images/cb_o.png,,,,,,,,,,,,,,,,,,,,,,,,,
,,,,,,00050,2023-10-10_08h49.47.262,vbt_B1_day1,2022.2.4,Win32,58.41803949,,,,,,,,,,,,,,,,,,,0.282407407,-0.225925926,1,0,0,0.3148,2,24,76,19,1,t,images/br_t.png,images/cb_t.png,,,,,,,,,,,,,,,,,,,,,,,,,
,,,,,,00050,2023-10-10_08h49.47.262,vbt_B1_day1,2022.2.4,Win32,58.41803949,,,,,,,,,,,,,,,,,,,0.282407407,-0.225925926,1,0,0,0.5857,2,25,77,0,1,a,images/br_a.png,images/cb_a.png,,,,,,,,,,,,,,,,,,,,,,,,,
,,,,,,00050,2023-10-10_08h49.47.262,vbt_B1_day1,2022.2.4,Win32,58.41803949,,,,,,,,,,,,,,,,,,,0.282407407,-0.225925926,1,0,0,1.3862,3,0,78,2,1,c,images/br_c.png,images/cb_c.png,,,,,,,,,,,,,,,,,,,,,,,,,
,,,,,,00050,2023-10-10_08h49.47.262,vbt_B1_day1,2022.2.4,Win32,58.41803949,,,,,,,,,,,,,,,,,,,0.282407407,-0.225925926,1,0,0,1.8842,3,1,79,19,1,t,images/br_t.png,images/cb_t.png,,,,,,,,,,,,,,,,,,,,,,,,,
,,,,,,00050,2023-10-10_08h49.47.262,vbt_B1_day1,2022.2.4,Win32,58.41803949,,,,,,,,,,,,,,,,,,,0.282407407,-0.225925926,1,0,0,0.4996,3,2,80,23,1,x,images/br_x.png,images/cb_x.png,,,,,,,,,,,,,,,,,,,,,,,,,
,,,,,,00050,2023-10-10_08h49.47.262,vbt_B1_day1,2022.2.4,Win32,58.41803949,,,,,,,,,,,,,,,,,,,0.282407407,-0.225925926,1,0,0,0.5819,3,3,81,17,1,r,images/br_r.png,images/cb_r.png,,,,,,,,,,,,,,,,,,,,,,,,,
,,,,,,00050,2023-10-10_08h49.47.262,vbt_B1_day1,2022.2.4,Win32,58.41803949,,,,,,,,,,,,,,,,,,,0.282407407,-0.225925926,1,0,0,0.782,3,4,82,5,1,f,images/br_f.png,images/cb_f.png,,,,,,,,,,,,,,,,,,,,,,,,,
,,,,,,00050,2023-10-10_08h49.47.262,vbt_B1_day1,2022.2.4,Win32,58.41803949,,,,,,,,,,,,,,,,,,,0.282407407,-0.225925926,1,0,0,1.5813,3,5,83,0,1,a,images/br_a.png,images/cb_a.png,,,,,,,,,,,,,,,,,,,,,,,,,
,,,,,,00050,2023-10-10_08h49.47.262,vbt_B1_day1,2022.2.4,Win32,58.41803949,,,,,,,,,,,,,,,,,,,0.282407407,-0.225925926,1,0,0,3.1803,3,6,84,21,1,v,images/br_v.png,images/cb_v.png,,,,,,,,,,,,,,,,,,,,,,,,,
,,,,,,00050,2023-10-10_08h49.47.262,vbt_B1_day1,2022.2.4,Win32,58.41803949,,,,,,,,,,,,,,,,,,,0.282407407,-0.225925926,1,0,0,0.6993,3,7,85,18,1,s,images/br_s.png,images/cb_s.png,,,,,,,,,,,,,,,,,,,,,,,,,
,,,,,,00050,2023-10-10_08h49.47.262,vbt_B1_day1,2022.2.4,Win32,58.41803949,,,,,,,,,,,,,,,,,,,0.282407407,-0.225925926,1,0,0,0.2156,3,8,86,1,1,b,images/br_b.png,images/cb_b.png,,,,,,,,,,,,,,,,,,,,,,,,,
,,,,,,00050,2023-10-10_08h49.47.262,vbt_B1_day1,2022.2.4,Win32,58.41803949,,,,,,,,,,,,,,,,,,,0.282407407,-0.225925926,1,0,0,2.0314,3,9,87,9,1,j,images/br_j.png,images/cb_j.png,,,,,,,,,,,,,,,,,,,,,,,,,
,,,,,,00050,2023-10-10_08h49.47.262,vbt_B1_day1,2022.2.4,Win32,58.41803949,,,,,,,,,,,,,,,,,,,0.282407407,-0.225925926,1,0,0,0.3168,3,10,88,14,1,o,images/br_o.png,images/cb_o.png,,,,,,,,,,,,,,,,,,,,,,,,,
,,,,,,00050,2023-10-10_08h49.47.262,vbt_B1_day1,2022.2.4,Win32,58.41803949,,,,,,,,,,,,,,,,,,,0.282407407,-0.225925926,1,0,0,2.9976,3,11,89,13,1,n,images/br_n.png,images/cb_n.png,,,,,,,,,,,,,,,,,,,,,,,,,
,,,,,,00050,2023-10-10_08h49.47.262,vbt_B1_day1,2022.2.4,Win32,58.41803949,,,,,,,,,,,,,,,,,,,0.282407407,-0.225925926,1,0,0,2.0465,3,12,90,16,1,q,images/br_q.png,images/cb_q.png,,,,,,,,,,,,,,,,,,,,,,,,,
,,,,,,00050,2023-10-10_08h49.47.262,vbt_B1_day1,2022.2.4,Win32,58.41803949,,,,,,,,,,,,,,,,,,,0.282407407,-0.225925926,1,0,0,0.7158,3,13,91,24,1,y,images/br_y.png,images/cb_y.png,,,,,,,,,,,,,,,,,,,,,,,,,
,,,,,,00050,2023-10-10_08h49.47.262,vbt_B1_day1,2022.2.4,Win32,58.41803949,,,,,,,,,,,,,,,,,,,0.282407407,-0.225925926,1,0,0,1.8983,3,14,92,10,1,k,images/br_k.png,images/cb_k.png,,,,,,,,,,,,,,,,,,,,,,,,,
,,,,,,00050,2023-10-10_08h49.47.262,vbt_B1_day1,2022.2.4,Win32,58.41803949,,,,,,,,,,,,,,,,,,,0.282407407,-0.225925926,1,0,0,0.8159,3,15,93,11,1,l,images/br_l.png,images/cb_l.png,,,,,,,,,,,,,,,,,,,,,,,,,
,,,,,,00050,2023-10-10_08h49.47.262,vbt_B1_day1,2022.2.4,Win32,58.41803949,,,,,,,,,,,,,,,,,,,0.282407407,-0.225925926,1,0,0,0.7154,3,16,94,12,1,m,images/br_m.png,images/cb_m.png,,,,,,,,,,,,,,,,,,,,,,,,,
,,,,,,00050,2023-10-10_08h49.47.262,vbt_B1_day1,2022.2.4,Win32,58.41803949,,,,,,,,,,,,,,,,,,,0.282407407,-0.225925926,1,0,0,1.6817,3,17,95,4,1,e,images/br_e.png,images/cb_e.png,,,,,,,,,,,,,,,,,,,,,,,,,
,,,,,,00050,2023-10-10_08h49.47.262,vbt_B1_day1,2022.2.4,Win32,58.41803949,,,,,,,,,,,,,,,,,,,0.282407407,-0.225925926,1,0,0,1.0817,3,18,96,8,1,i,images/br_i.png,images/cb_i.png,,,,,,,,,,,,,,,,,,,,,,,,,
,,,,,,00050,2023-10-10_08h49.47.262,vbt_B1_day1,2022.2.4,Win32,58.41803949,,,,,,,,,,,,,,,,,,,0.282407407,-0.225925926,1,0,0,1.1157,3,19,97,3,1,d,images/br_d.png,images/cb_d.png,,,,,,,,,,,,,,,,,,,,,,,,,
,,,,,,00050,2023-10-10_08h49.47.262,vbt_B1_day1,2022.2.4,Win32,58.41803949,,,,,,,,,,,,,,,,,,,0.282407407,-0.225925926,1,0,0,2.3479,3,20,98,20,1,u,images/br_u.png,images/cb_u.png,,,,,,,,,,,,,,,,,,,,,,,,,
,,,,,,00050,2023-10-10_08h49.47.262,vbt_B1_day1,2022.2.4,Win32,58.41803949,,,,,,,,,,,,,,,,,,,0.282407407,-0.225925926,1,0,0,1.2135,3,21,99,25,1,z,images/br_z.png,images/cb_z.png,,,,,,,,,,,,,,,,,,,,,,,,,
,,,,,,00050,2023-10-10_08h49.47.262,vbt_B1_day1,2022.2.4,Win32,58.41803949,,,,,,,,,,,,,,,,,,,0.282407407,-0.225925926,1,0,0,0.8327,3,22,100,15,1,p,images/br_p.png,images/cb_p.png,,,,,,,,,,,,,,,,,,,,,,,,,
,,,,,,00050,2023-10-10_08h49.47.262,vbt_B1_day1,2022.2.4,Win32,58.41803949,,,,,,,,,,,,,,,,,,,0.282407407,-0.225925926,1,0,0,1.1318,3,23,101,7,1,h,images/br_h.png,images/cb_h.png,,,,,,,,,,,,,,,,,,,,,,,,,
,,,,,,00050,2023-10-10_08h49.47.262,vbt_B1_day1,2022.2.4,Win32,58.41803949,,,,,,,,,,,,,,,,,,,0.282407407,-0.225925926,1,0,0,0.9157,3,24,102,6,1,g,images/br_g.png,images/cb_g.png,,,,,,,,,,,,,,,,,,,,,,,,,
,,,,,,00050,2023-10-10_08h49.47.262,vbt_B1_day1,2022.2.4,Win32,58.41803949,,,,,,,,,,,,,,,,,,,0.282407407,-0.225925926,1,0,0,1.7853,3,25,103,22,1,w,images/br_w.png,images/cb_w.png,,,,,,,,,,,,,,,,,,,,,,,,,
,,,,,,00050,2023-10-10_08h49.47.262,vbt_B1_day1,2022.2.4,Win32,58.41803949,,,,,,,,,,,,,,,,,,,0.282407407,-0.225925926,1,0,0,1.9154,4,0,104,9,1,j,images/br_j.png,images/cb_j.png,,,,,,,,,,,,,,,,,,,,,,,,,
,,,,,,00050,2023-10-10_08h49.47.262,vbt_B1_day1,2022.2.4,Win32,58.41803949,,,,,,,,,,,,,,,,,,,0.282407407,-0.225925926,1,0,0,1.6791,4,1,105,20,1,u,images/br_u.png,images/cb_u.png,,,,,,,,,,,,,,,,,,,,,,,,,
,,,,,,00050,2023-10-10_08h49.47.262,vbt_B1_day1,2022.2.4,Win32,58.41803949,,,,,,,,,,,,,,,,,,,0.282407407,-0.225925926,1,0,0,2.0977,4,2,106,5,1,f,images/br_f.png,images/cb_f.png,,,,,,,,,,,,,,,,,,,,,,,,,
,,,,,,00050,2023-10-10_08h49.47.262,vbt_B1_day1,2022.2.4,Win32,58.41803949,,,,,,,,,,,,,,,,,,,0.282407407,-0.225925926,1,0,0,2.161,4,3,107,21,1,v,images/br_v.png,images/cb_v.png,,,,,,,,,,,,,,,,,,,,,,,,,
,,,,,,00050,2023-10-10_08h49.47.262,vbt_B1_day1,2022.2.4,Win32,58.41803949,,,,,,,,,,,,,,,,,,,0.282407407,-0.225925926,1,0,0,0.9317,4,4,108,25,1,z,images/br_z.png,images/cb_z.png,,,,,,,,,,,,,,,,,,,,,,,,,
,,,,,,00050,2023-10-10_08h49.47.262,vbt_B1_day1,2022.2.4,Win32,58.41803949,,,,,,,,,,,,,,,,,,,0.282407407,-0.225925926,1,0,0,0.2025,4,5,109,1,1,b,images/br_b.png,images/cb_b.png,,,,,,,,,,,,,,,,,,,,,,,,,
,,,,,,00050,2023-10-10_08h49.47.262,vbt_B1_day1,2022.2.4,Win32,58.41803949,,,,,,,,,,,,,,,,,,,0.282407407,-0.225925926,1,0,0,1.8684,4,6,110,22,1,w,images/br_w.png,images/cb_w.png,,,,,,,,,,,,,,,,,,,,,,,,,
,,,,,,00050,2023-10-10_08h49.47.262,vbt_B1_day1,2022.2.4,Win32,58.41803949,,,,,,,,,,,,,,,,,,,0.282407407,-0.225925926,1,0,0,0.1206,4,7,111,2,1,c,images/br_c.png,images/cb_c.png,,,,,,,,,,,,,,,,,,,,,,,,,
,,,,,,00050,2023-10-10_08h49.47.262,vbt_B1_day1,2022.2.4,Win32,58.41803949,,,,,,,,,,,,,,,,,,,0.282407407,-0.225925926,1,0,0,0.2166,4,8,112,7,1,h,images/br_h.png,images/cb_h.png,,,,,,,,,,,,,,,,,,,,,,,,,
,,,,,,00050,2023-10-10_08h49.47.262,vbt_B1_day1,2022.2.4,Win32,58.41803949,,,,,,,,,,,,,,,,,,,0.282407407,-0.225925926,1,0,0,0.1693,4,9,113,4,1,e,images/br_e.png,images/cb_e.png,,,,,,,,,,,,,,,,,,,,,,,,,
,,,,,,00050,2023-10-10_08h49.47.262,vbt_B1_day1,2022.2.4,Win32,58.41803949,,,,,,,,,,,,,,,,,,,0.282407407,-0.225925926,1,0,0,1.4464,4,10,114,3,1,d,images/br_d.png,images/cb_d.png,,,,,,,,,,,,,,,,,,,,,,,,,
,,,,,,00050,2023-10-10_08h49.47.262,vbt_B1_day1,2022.2.4,Win32,58.41803949,,,,,,,,,,,,,,,,,,,0.282407407,-0.225925926,1,0,0,1.4149,4,11,115,11,1,l,images/br_l.png,images/cb_l.png,,,,,,,,,,,,,,,,,,,,,,,,,
,,,,,,00050,2023-10-10_08h49.47.262,vbt_B1_day1,2022.2.4,Win32,58.41803949,,,,,,,,,,,,,,,,,,,0.282407407,-0.225925926,1,0,0,0.5355,4,12,116,23,1,x,images/br_x.png,images/cb_x.png,,,,,,,,,,,,,,,,,,,,,,,,,
,,,,,,00050,2023-10-10_08h49.47.262,vbt_B1_day1,2022.2.4,Win32,58.41803949,,,,,,,,,,,,,,,,,,,0.282407407,-0.225925926,1,0,0,0.0499,4,13,117,0,1,a,images/br_a.png,images/cb_a.png,,,,,,,,,,,,,,,,,,,,,,,,,
,,,,,,00050,2023-10-10_08h49.47.262,vbt_B1_day1,2022.2.4,Win32,58.41803949,,,,,,,,,,,,,,,,,,,0.282407407,-0.225925926,1,0,0,1.0493,4,14,118,14,1,o,images/br_o.png,images/cb_o.png,,,,,,,,,,,,,,,,,,,,,,,,,
,,,,,,00050,2023-10-10_08h49.47.262,vbt_B1_day1,2022.2.4,Win32,58.41803949,,,,,,,,,,,,,,,,,,,0.282407407,-0.225925926,1,0,0,0.1807,4,15,119,6,1,g,images/br_g.png,images/cb_g.png,,,,,,,,,,,,,,,,,,,,,,,,,
,,,,,,00050,2023-10-10_08h49.47.262,vbt_B1_day1,2022.2.4,Win32,58.41803949,,,,,,,,,,,,,,,,,,,0.282407407,-0.225925926,1,0,0,0.0973,4,16,120,24,1,y,images/br_y.png,images/cb_y.png,,,,,,,,,,,,,,,,,,,,,,,,,
,,,,,,00050,2023-10-10_08h49.47.262,vbt_B1_day1,2022.2.4,Win32,58.41803949,,,,,,,,,,,,,,,,,,,0.282407407,-0.225925926,1,0,0,0.949,4,17,121,19,1,t,images/br_t.png,images/cb_t.png,,,,,,,,,,,,,,,,,,,,,,,,,
,,,,,,00050,2023-10-10_08h49.47.262,vbt_B1_day1,2022.2.4,Win32,58.41803949,,,,,,,,,,,,,,,,,,,0.287037037,-0.224074074,1,0,0,0.3199,4,18,122,16,1,q,images/br_q.png,images/cb_q.png,,,,,,,,,,,,,,,,,,,,,,,,,
,,,,,,00050,2023-10-10_08h49.47.262,vbt_B1_day1,2022.2.4,Win32,58.41803949,,,,,,,,,,,,,,,,,,,0.287037037,-0.224074074,1,0,0,0.1365,4,19,123,17,1,r,images/br_r.png,images/cb_r.png,,,,,,,,,,,,,,,,,,,,,,,,,
,,,,,,00050,2023-10-10_08h49.47.262,vbt_B1_day1,2022.2.4,Win32,58.41803949,,,,,,,,,,,,,,,,,,,0.287037037,-0.224074074,1,0,0,0.98,4,20,124,15,1,p,images/br_p.png,images/cb_p.png,,,,,,,,,,,,,,,,,,,,,,,,,
,,,,,,00050,2023-10-10_08h49.47.262,vbt_B1_day1,2022.2.4,Win32,58.41803949,,,,,,,,,,,,,,,,,,,0.287037037,-0.224074074,1,0,0,1.1154,4,21,125,8,1,i,images/br_i.png,images/cb_i.png,,,,,,,,,,,,,,,,,,,,,,,,,
,,,,,,00050,2023-10-10_08h49.47.262,vbt_B1_day1,2022.2.4,Win32,58.41803949,,,,,,,,,,,,,,,,,,,0.287037037,-0.224074074,1,0,0,0.6162,4,22,126,13,1,n,images/br_n.png,images/cb_n.png,,,,,,,,,,,,,,,,,,,,,,,,,
,,,,,,00050,2023-10-10_08h49.47.262,vbt_B1_day1,2022.2.4,Win32,58.41803949,,,,,,,,,,,,,,,,,,,0.287037037,-0.224074074,1,0,0,0.5489,4,23,127,10,1,k,images/br_k.png,images/cb_k.png,,,,,,,,,,,,,,,,,,,,,,,,,
,,,,,,00050,2023-10-10_08h49.47.262,vbt_B1_day1,2022.2.4,Win32,58.41803949,,,,,,,,,,,,,,,,,,,0.287037037,-0.224074074,1,0,0,0.4155,4,24,128,12,1,m,images/br_m.png,images/cb_m.png,,,,,,,,,,,,,,,,,,,,,,,,,
,,,,,,00050,2023-10-10_08h49.47.262,vbt_B1_day1,2022.2.4,Win32,58.41803949,,,,,,,,,,,,,,,,,,,0.287037037,-0.224074074,1,0,0,0.7353,4,25,129,18,1,s,images/br_s.png,images/cb_s.png,,,,,,,,,,,,,,,,,,,,,,,,,
,,,,,,00050,2023-10-10_08h49.47.262,vbt_B1_day1,2022.2.4,Win32,58.41803949,,,,,,,,,,,,,,,,,,,0.287962963,-0.224074074,1,0,0,1.1651,5,0,130,19,1,t,images/br_t.png,images/cb_t.png,,,,,,,,,,,,,,,,,,,,,,,,,
,,,,,,00050,2023-10-10_08h49.47.262,vbt_B1_day1,2022.2.4,Win32,58.41803949,,,,,,,,,,,,,,,,,,,0.287962963,-0.224074074,1,0,0,0.9825,5,1,131,1,1,b,images/br_b.png,images/cb_b.png,,,,,,,,,,,,,,,,,,,,,,,,,
,,,,,,00050,2023-10-10_08h49.47.262,vbt_B1_day1,2022.2.4,Win32,58.41803949,,,,,,,,,,,,,,,,,,,0.287962963,-0.224074074,1,0,0,1.1512,5,2,132,11,1,l,images/br_l.png,images/cb_l.png,,,,,,,,,,,,,,,,,,,,,,,,,
,,,,,,00050,2023-10-10_08h49.47.262,vbt_B1_day1,2022.2.4,Win32,58.41803949,,,,,,,,,,,,,,,,,,,0.287962963,-0.224074074,1,0,0,0.745,5,3,133,25,1,z,images/br_z.png,images/cb_z.png,,,,,,,,,,,,,,,,,,,,,,,,,
,,,,,,00050,2023-10-10_08h49.47.262,vbt_B1_day1,2022.2.4,Win32,58.41803949,,,,,,,,,,,,,,,,,,,0.287962963,-0.224074074,1,0,0,0.7014,5,4,134,23,1,x,images/br_x.png,images/cb_x.png,,,,,,,,,,,,,,,,,,,,,,,,,
,,,,,,00050,2023-10-10_08h49.47.262,vbt_B1_day1,2022.2.4,Win32,58.41803949,,,,,,,,,,,,,,,,,,,0.287962963,-0.224074074,1,0,0,0.3989,5,5,135,16,1,q,images/br_q.png,images/cb_q.png,,,,,,,,,,,,,,,,,,,,,,,,,
,,,,,,00050,2023-10-10_08h49.47.262,vbt_B1_day1,2022.2.4,Win32,58.41803949,,,,,,,,,,,,,,,,,,,0.287962963,-0.224074074,1,0,0,0.3492,5,6,136,20,1,u,images/br_u.png,images/cb_u.png,,,,,,,,,,,,,,,,,,,,,,,,,
,,,,,,00050,2023-10-10_08h49.47.262,vbt_B1_day1,2022.2.4,Win32,58.41803949,,,,,,,,,,,,,,,,,,,0.287962963,-0.224074074,1,0,0,0.3663,5,7,137,18,1,s,images/br_s.png,images/cb_s.png,,,,,,,,,,,,,,,,,,,,,,,,,
,,,,,,00050,2023-10-10_08h49.47.262,vbt_B1_day1,2022.2.4,Win32,58.41803949,,,,,,,,,,,,,,,,,,,0.287962963,-0.224074074,1,0,0,0.0365,5,8,138,0,1,a,images/br_a.png,images/cb_a.png,,,,,,,,,,,,,,,,,,,,,,,,,
,,,,,,00050,2023-10-10_08h49.47.262,vbt_B1_day1,2022.2.4,Win32,58.41803949,,,,,,,,,,,,,,,,,,,0.287962963,-0.224074074,1,0,0,0.0831,5,9,139,3,1,d,images/br_d.png,images/cb_d.png,,,,,,,,,,,,,,,,,,,,,,,,,
,,,,,,00050,2023-10-10_08h49.47.262,vbt_B1_day1,2022.2.4,Win32,58.41803949,,,,,,,,,,,,,,,,,,,0.287962963,-0.224074074,1,0,0,0.2663,5,10,140,22,1,w,images/br_w.png,images/cb_w.png,,,,,,,,,,,,,,,,,,,,,,,,,
,,,,,,00050,2023-10-10_08h49.47.262,vbt_B1_day1,2022.2.4,Win32,58.41803949,,,,,,,,,,,,,,,,,,,0.287962963,-0.224074074,1,0,0,0.1499,5,11,141,10,1,k,images/br_k.png,images/cb_k.png,,,,,,,,,,,,,,,,,,,,,,,,,
,,,,,,00050,2023-10-10_08h49.47.262,vbt_B1_day1,2022.2.4,Win32,58.41803949,,,,,,,,,,,,,,,,,,,0.287962963,-0.224074074,1,0,0,1.7818,5,12,142,17,1,r,images/br_r.png,images/cb_r.png,,,,,,,,,,,,,,,,,,,,,,,,,
,,,,,,00050,2023-10-10_08h49.47.262,vbt_B1_day1,2022.2.4,Win32,58.41803949,,,,,,,,,,,,,,,,,,,0.287962963,-0.224074074,1,0,0,0.0998,5,13,143,5,1,f,images/br_f.png,images/cb_f.png,,,,,,,,,,,,,,,,,,,,,,,,,
,,,,,,00050,2023-10-10_08h49.47.262,vbt_B1_day1,2022.2.4,Win32,58.41803949,,,,,,,,,,,,,,,,,,,0.287962963,-0.224074074,1,0,0,0.0167,5,14,144,24,1,y,images/br_y.png,images/cb_y.png,,,,,,,,,,,,,,,,,,,,,,,,,
,,,,,,00050,2023-10-10_08h49.47.262,vbt_B1_day1,2022.2.4,Win32,58.41803949,,,,,,,,,,,,,,,,,,,0.287962963,-0.224074074,1,0,0,0.7827,5,15,145,21,1,v,images/br_v.png,images/cb_v.png,,,,,,,,,,,,,,,,,,,,,,,,,
,,,,,,00050,2023-10-10_08h49.47.262,vbt_B1_day1,2022.2.4,Win32,58.41803949,,,,,,,,,,,,,,,,,,,0.287962963,-0.224074074,1,0,0,0.2494,5,16,146,8,1,i,images/br_i.png,images/cb_i.png,,,,,,,,,,,,,,,,,,,,,,,,,
,,,,,,00050,2023-10-10_08h49.47.262,vbt_B1_day1,2022.2.4,Win32,58.41803949,,,,,,,,,,,,,,,,,,,0.289814815,-0.223148148,1,0,0,0.8468,5,17,147,14,1,o,images/br_o.png,images/cb_o.png,,,,,,,,,,,,,,,,,,,,,,,,,
,,,,,,00050,2023-10-10_08h49.47.262,vbt_B1_day1,2022.2.4,Win32,58.41803949,,,,,,,,,,,,,,,,,,,0.291666667,-0.222222222,1,0,0,0.4662,5,18,148,13,1,n,images/br_n.png,images/cb_n.png,,,,,,,,,,,,,,,,,,,,,,,,,
,,,,,,00050,2023-10-10_08h49.47.262,vbt_B1_day1,2022.2.4,Win32,58.41803949,,,,,,,,,,,,,,,,,,,0.291666667,-0.222222222,1,0,0,0.9484,5,19,149,7,1,h,images/br_h.png,images/cb_h.png,,,,,,,,,,,,,,,,,,,,,,,,,
,,,,,,00050,2023-10-10_08h49.47.262,vbt_B1_day1,2022.2.4,Win32,58.41803949,,,,,,,,,,,,,,,,,,,0.291666667,-0.222222222,1,0,0,0.0697,5,20,150,12,1,m,images/br_m.png,images/cb_m.png,,,,,,,,,,,,,,,,,,,,,,,,,
,,,,,,00050,2023-10-10_08h49.47.262,vbt_B1_day1,2022.2.4,Win32,58.41803949,,,,,,,,,,,,,,,,,,,0.291666667,-0.222222222,1,0,0,0.2166,5,21,151,6,1,g,images/br_g.png,images/cb_g.png,,,,,,,,,,,,,,,,,,,,,,,,,
,,,,,,00050,2023-10-10_08h49.47.262,vbt_B1_day1,2022.2.4,Win32,58.41803949,,,,,,,,,,,,,,,,,,,0.291666667,-0.222222222,1,0,0,0.2962,5,22,152,2,1,c,images/br_c.png,images/cb_c.png,,,,,,,,,,,,,,,,,,,,,,,,,
,,,,,,00050,2023-10-10_08h49.47.262,vbt_B1_day1,2022.2.4,Win32,58.41803949,,,,,,,,,,,,,,,,,,,0.291666667,-0.222222222,1,0,0,0.2,5,23,153,9,1,j,images/br_j.png,images/cb_j.png,,,,,,,,,,,,,,,,,,,,,,,,,
,,,,,,00050,2023-10-10_08h49.47.262,vbt_B1_day1,2022.2.4,Win32,58.41803949,,,,,,,,,,,,,,,,,,,0.291666667,-0.222222222,1,0,0,0.2827,5,24,154,4,1,e,images/br_e.png,images/cb_e.png,,,,,,,,,,,,,,,,,,,,,,,,,
,,,,,,00050,2023-10-10_08h49.47.262,vbt_B1_day1,2022.2.4,Win32,58.41803949,,,,,,,,,,,,,,,,,,,0.291666667,-0.222222222,1,0,0,0.7162,5,25,155,15,1,p,images/br_p.png,images/cb_p.png,,,,,,,,,,,,,,,,,,,,,,,,,
,,,,,,00050,2023-10-10_08h49.47.262,vbt_B1_day1,2022.2.4,Win32,58.41803949,,,,,,,,,,,,,,,,,,,0.291666667,-0.221296296,1,0,0,0.1667,6,0,156,3,1,d,images/br_d.png,images/cb_d.png,,,,,,,,,,,,,,,,,,,,,,,,,
,,,,,,00050,2023-10-10_08h49.47.262,vbt_B1_day1,2022.2.4,Win32,58.41803949,,,,,,,,,,,,,,,,,,,0.291666667,-0.221296296,1,0,0,1.7017,6,1,157,14,1,o,images/br_o.png,images/cb_o.png,,,,,,,,,,,,,,,,,,,,,,,,,
,,,,,,00050,2023-10-10_08h49.47.262,vbt_B1_day1,2022.2.4,Win32,58.41803949,,,,,,,,,,,,,,,,,,,0.291666667,-0.221296296,1,0,0,2.9949,6,2,158,22,1,w,images/br_w.png,images/cb_w.png,,,,,,,,,,,,,,,,,,,,,,,,,
,,,,,,00050,2023-10-10_08h49.47.262,vbt_B1_day1,2022.2.4,Win32,58.41803949,,,,,,,,,,,,,,,,,,,0.291666667,-0.221296296,1,0,0,0.3158,6,3,159,4,1,e,images/br_e.png,images/cb_e.png,,,,,,,,,,,,,,,,,,,,,,,,,
,,,,,,00050,2023-10-10_08h49.47.262,vbt_B1_day1,2022.2.4,Win32,58.41803949,,,,,,,,,,,,,,,,,,,0.291666667,-0.221296296,1,0,0,0.4685,6,4,160,6,1,g,images/br_g.png,images/cb_g.png,,,,,,,,,,,,,,,,,,,,,,,,,
,,,,,,00050,2023-10-10_08h49.47.262,vbt_B1_day1,2022.2.4,Win32,58.41803949,,,,,,,,,,,,,,,,,,,0.291666667,-0.221296296,1,0,0,0.0334,6,5,161,16,1,q,images/br_q.png,images/cb_q.png,,,,,,,,,,,,,,,,,,,,,,,,,
,,,,,,00050,2023-10-10_08h49.47.262,vbt_B1_day1,2022.2.4,Win32,58.41803949,,,,,,,,,,,,,,,,,,,0.291666667,-0.221296296,1,0,0,1.4156,6,6,162,18,1,s,images/br_s.png,images/cb_s.png,,,,,,,,,,,,,,,,,,,,,,,,,
,,,,,,00050,2023-10-10_08h49.47.262,vbt_B1_day1,2022.2.4,Win32,58.41803949,,,,,,,,,,,,,,,,,,,0.291666667,-0.221296296,1,0,0,0.9144,6,7,163,17,1,r,images/br_r.png,images/cb_r.png,,,,,,,,,,,,,,,,,,,,,,,,,
,,,,,,00050,2023-10-10_08h49.47.262,vbt_B1_day1,2022.2.4,Win32,58.41803949,,,,,,,,,,,,,,,,,,,0.291666667,-0.221296296,1,0,0,1.1324,6,8,164,23,1,x,images/br_x.png,images/cb_x.png,,,,,,,,,,,,,,,,,,,,,,,,,
,,,,,,00050,2023-10-10_08h49.47.262,vbt_B1_day1,2022.2.4,Win32,58.41803949,,,,,,,,,,,,,,,,,,,0.291666667,-0.221296296,1,0,0,2.0315,6,9,165,24,1,y,images/br_y.png,images/cb_y.png,,,,,,,,,,,,,,,,,,,,,,,,,
,,,,,,00050,2023-10-10_08h49.47.262,vbt_B1_day1,2022.2.4,Win32,58.41803949,,,,,,,,,,,,,,,,,,,0.291666667,-0.221296296,1,0,0,2.8133,6,10,166,7,1,h,images/br_h.png,images/cb_h.png,,,,,,,,,,,,,,,,,,,,,,,,,
,,,,,,00050,2023-10-10_08h49.47.262,vbt_B1_day1,2022.2.4,Win32,58.41803949,,,,,,,,,,,,,,,,,,,0.291666667,-0.221296296,1,0,0,1.7459,6,11,167,15,1,p,images/br_p.png,images/cb_p.png,,,,,,,,,,,,,,,,,,,,,,,,,
,,,,,,00050,2023-10-10_08h49.47.262,vbt_B1_day1,2022.2.4,Win32,58.41803949,,,,,,,,,,,,,,,,,,,0.291666667,-0.221296296,1,0,0,0.3495,6,12,168,19,1,t,images/br_t.png,images/cb_t.png,,,,,,,,,,,,,,,,,,,,,,,,,
,,,,,,00050,2023-10-10_08h49.47.262,vbt_B1_day1,2022.2.4,Win32,58.41803949,,,,,,,,,,,,,,,,,,,0.291666667,-0.221296296,1,0,0,1.1493,6,13,169,9,1,j,images/br_j.png,images/cb_j.png,,,,,,,,,,,,,,,,,,,,,,,,,
,,,,,,00050,2023-10-10_08h49.47.262,vbt_B1_day1,2022.2.4,Win32,58.41803949,,,,,,,,,,,,,,,,,,,0.291666667,-0.221296296,1,0,0,0.8493,6,14,170,2,1,c,images/br_c.png,images/cb_c.png,,,,,,,,,,,,,,,,,,,,,,,,,
,,,,,,00050,2023-10-10_08h49.47.262,vbt_B1_day1,2022.2.4,Win32,58.41803949,,,,,,,,,,,,,,,,,,,0.291666667,-0.221296296,1,0,0,0.0832,6,15,171,11,1,l,images/br_l.png,images/cb_l.png,,,,,,,,,,,,,,,,,,,,,,,,,
,,,,,,00050,2023-10-10_08h49.47.262,vbt_B1_day1,2022.2.4,Win32,58.41803949,,,,,,,,,,,,,,,,,,,0.291666667,-0.221296296,1,0,0,0.5491,6,16,172,13,1,n,images/br_n.png,images/cb_n.png,,,,,,,,,,,,,,,,,,,,,,,,,
,,,,,,00050,2023-10-10_08h49.47.262,vbt_B1_day1,2022.2.4,Win32,58.41803949,,,,,,,,,,,,,,,,,,,0.291666667,-0.221296296,1,0,0,0.8153,6,17,173,20,1,u,images/br_u.png,images/cb_u.png,,,,,,,,,,,,,,,,,,,,,,,,,
,,,,,,00050,2023-10-10_08h49.47.262,vbt_B1_day1,2022.2.4,Win32,58.41803949,,,,,,,,,,,,,,,,,,,0.291666667,-0.221296296,1,0,0,0.7825,6,18,174,21,1,v,images/br_v.png,images/cb_v.png,,,,,,,,,,,,,,,,,,,,,,,,,
,,,,,,00050,2023-10-10_08h49.47.262,vbt_B1_day1,2022.2.4,Win32,58.41803949,,,,,,,,,,,,,,,,,,,0.291666667,-0.221296296,1,0,0,0.9154,6,19,175,25,1,z,images/br_z.png,images/cb_z.png,,,,,,,,,,,,,,,,,,,,,,,,,
,,,,,,00050,2023-10-10_08h49.47.262,vbt_B1_day1,2022.2.4,Win32,58.41803949,,,,,,,,,,,,,,,,,,,0.291666667,-0.221296296,1,0,0,1.1655,6,20,176,5,1,f,images/br_f.png,images/cb_f.png,,,,,,,,,,,,,,,,,,,,,,,,,
,,,,,,00050,2023-10-10_08h49.47.262,vbt_B1_day1,2022.2.4,Win32,58.41803949,,,,,,,,,,,,,,,,,,,0.291666667,-0.221296296,1,0,0,1.6983,6,21,177,8,1,i,images/br_i.png,images/cb_i.png,,,,,,,,,,,,,,,,,,,,,,,,,
,,,,,,00050,2023-10-10_08h49.47.262,vbt_B1_day1,2022.2.4,Win32,58.41803949,,,,,,,,,,,,,,,,,,,0.291666667,-0.221296296,1,0,0,0.8492,6,22,178,12,1,m,images/br_m.png,images/cb_m.png,,,,,,,,,,,,,,,,,,,,,,,,,
,,,,,,00050,2023-10-10_08h49.47.262,vbt_B1_day1,2022.2.4,Win32,58.41803949,,,,,,,,,,,,,,,,,,,0.291666667,-0.221296296,1,0,0,0.5676,6,23,179,1,1,b,images/br_b.png,images/cb_b.png,,,,,,,,,,,,,,,,,,,,,,,,,
,,,,,,00050,2023-10-10_08h49.47.262,vbt_B1_day1,2022.2.4,Win32,58.41803949,,,,,,,,,,,,,,,,,,,0.291666667,-0.221296296,1,0,0,0.7493,6,24,180,0,1,a,images/br_a.png,images/cb_a.png,,,,,,,,,,,,,,,,,,,,,,,,,
,,,,,,00050,2023-10-10_08h49.47.262,vbt_B1_day1,2022.2.4,Win32,58.41803949,,,,,,,,,,,,,,,,,,,0.291666667,-0.221296296,1,0,0,0.6489,6,25,181,10,1,k,images/br_k.png,images/cb_k.png,,,,,,,,,,,,,,,,,,,,,,,,,
,,,,,,00050,2023-10-10_08h49.47.262,vbt_B1_day1,2022.2.4,Win32,58.41803949,,,,,,,,,,,,,,,,,,,,,,,,,,,,,,,,,0.247222222,-0.226851852,1,0,0,,,,,,,,,,,,,,,,,,,,
,,,,,,00050,2023-10-10_08h49.47.262,vbt_B1_day1,2022.2.4,Win32,58.41803949,,,,,,,,,,,,,,,,,,,,,,,,,,,,,,,,,,,,,,0.543518519,-0.053703704,1,0,0,,,,,,,,,,,,,,,
,,,,,,00050,2023-10-10_08h49.47.262,vbt_B1_day1,2022.2.4,Win32,58.41803949,,,,,,,,,,,,,,,,,,,,,,,,,,,,,,,,,,,,,,,,,,,0.509259259,-0.160185185,1,0,0,meez..,meez..,0,0,0,57,1,meenemen,images/br_meenemen.png,images/cb_meenemen.png
,,,,,,00050,2023-10-10_08h49.47.262,vbt_B1_day1,2022.2.4,Win32,58.41803949,,,,,,,,,,,,,,,,,,,,,,,,,,,,,,,,,,,,,,,,,,,0.37037037,-0.216666667,1,0,0,stame.,stame.,0,1,1,31,1,stamen,images/br_stamen.png,images/cb_stamen.png
,,,,,,00050,2023-10-10_08h49.47.262,vbt_B1_day1,2022.2.4,Win32,58.41803949,,,,,,,,,,,,,,,,,,,,,,,,,,,,,,,,,,,,,,,,,,,0.37037037,-0.216666667,1,0,0,fictie,fictie,0,2,2,48,1,fictie,images/br_fictie.png,images/cb_fictie.png
,,,,,,00050,2023-10-10_08h49.47.262,vbt_B1_day1,2022.2.4,Win32,58.41803949,,,,,,,,,,,,,,,,,,,,,,,,,,,,,,,,,,,,,,,,,,,0.37037037,-0.216666667,1,0,0,valop,valop,0,3,3,26,1,valop,images/br_valop.png,images/cb_valop.png
,,,,,,00050,2023-10-10_08h49.47.262,vbt_B1_day1,2022.2.4,Win32,58.41803949,,,,,,,,,,,,,,,,,,,,,,,,,,,,,,,,,,,,,,,,,,,0.37037037,-0.216666667,1,0,0,genon.,genon.,0,4,4,29,1,genond,images/br_genond.png,images/cb_genond.png
,,,,,,00050,2023-10-10_08h49.47.262,vbt_B1_day1,2022.2.4,Win32,58.41803949,,,,,,,,,,,,,,,,,,,,,,,,,,,,,,,,,,,,,,,,,,,0.37037037,-0.215740741,1,0,0,lava,lava,0,5,5,43,1,lava,images/br_lava.png,images/cb_lava.png
,,,,,,00050,2023-10-10_08h49.47.262,vbt_B1_day1,2022.2.4,Win32,58.41803949,,,,,,,,,,,,,,,,,,,,,,,,,,,,,,,,,,,,,,,,,,,0.37037037,-0.215740741,1,0,0,leigen,leigen,0,6,6,50,1,liegen,images/br_liegen.png,images/cb_liegen.png
,,,,,,00050,2023-10-10_08h49.47.262,vbt_B1_day1,2022.2.4,Win32,58.41803949,,,,,,,,,,,,,,,,,,,,,,,,,,,,,,,,,,,,,,,,,,,0.37037037,-0.215740741,1,0,0,mening,mening,0,7,7,11,1,mening,images/br_mening.png,images/cb_mening.png
,,,,,,00050,2023-10-10_08h49.47.262,vbt_B1_day1,2022.2.4,Win32,58.41803949,,,,,,,,,,,,,,,,,,,,,,,,,,,,,,,,,,,,,,,,,,,0.37037037,-0.215740741,1,0,0,schep,schep,0,8,8,4,1,schep,images/br_schep.png,images/cb_schep.png
,,,,,,00050,2023-10-10_08h49.47.262,vbt_B1_day1,2022.2.4,Win32,58.41803949,,,,,,,,,,,,,,,,,,,,,,,,,,,,,,,,,,,,,,,,,,,0.37037037,-0.215740741,1,0,0,attentie,attentie,0,9,9,17,1,attentie,images/br_attentie.png,images/cb_attentie.png
,,,,,,00050,2023-10-10_08h49.47.262,vbt_B1_day1,2022.2.4,Win32,58.41803949,,,,,,,,,,,,,,,,,,,,,,,,,,,,,,,,,,,,,,,,,,,0.37037037,-0.215740741,1,0,0,rezea,rezea,0,10,10,24,1,rezer,images/br_rezer.png,images/cb_rezer.png
,,,,,,00050,2023-10-10_08h49.47.262,vbt_B1_day1,2022.2.4,Win32,58.41803949,,,,,,,,,,,,,,,,,,,,,,,,,,,,,,,,,,,,,,,,,,,0.37037037,-0.215740741,1,0,0,hoog,hoog,0,11,11,41,1,hoog,images/br_hoog.png,images/cb_hoog.png
,,,,,,00050,2023-10-10_08h49.47.262,vbt_B1_day1,2022.2.4,Win32,58.41803949,,,,,,,,,,,,,,,,,,,,,,,,,,,,,,,,,,,,,,,,,,,0.37037037,-0.215740741,1,0,0,maken,maken,0,12,12,5,1,maken,images/br_maken.png,images/cb_maken.png
,,,,,,00050,2023-10-10_08h49.47.262,vbt_B1_day1,2022.2.4,Win32,58.41803949,,,,,,,,,,,,,,,,,,,,,,,,,,,,,,,,,,,,,,,,,,,0.37037037,-0.215740741,1,0,0,bebre.,bebre.,0,13,13,28,1,bebrip,images/br_bebrip.png,images/cb_bebrip.png
,,,,,,00050,2023-10-10_08h49.47.262,vbt_B1_day1,2022.2.4,Win32,58.41803949,,,,,,,,,,,,,,,,,,,,,,,,,,,,,,,,,,,,,,,,,,,0.37037037,-0.215740741,1,0,0,twe...,twe...,0,14,14,13,1,twijfel,images/br_twijfel.png,images/cb_twijfel.png
,,,,,,00050,2023-10-10_08h49.47.262,vbt_B1_day1,2022.2.4,Win32,58.41803949,,,,,,,,,,,,,,,,,,,,,,,,,,,,,,,,,,,,,,,,,,,0.37037037,-0.215740741,1,0,0,liefde,liefde,0,15,15,51,1,liefde,images/br_liefde.png,images/cb_liefde.png
,,,,,,00050,2023-10-10_08h49.47.262,vbt_B1_day1,2022.2.4,Win32,58.41803949,,,,,,,,,,,,,,,,,,,,,,,,,,,,,,,,,,,,,,,,,,,0.37037037,-0.215740741,1,0,0,jaar,jaar,0,16,16,2,1,jaar,images/br_jaar.png,images/cb_jaar.png
,,,,,,00050,2023-10-10_08h49.47.262,vbt_B1_day1,2022.2.4,Win32,58.41803949,,,,,,,,,,,,,,,,,,,,,,,,,,,,,,,,,,,,,,,,,,,0.37037037,-0.215740741,1,0,0,opsl...,opsl...,0,17,17,53,1,opslaan,images/br_opslaan.png,images/cb_opslaan.png
,,,,,,00050,2023-10-10_08h49.47.262,vbt_B1_day1,2022.2.4,Win32,58.41803949,,,,,,,,,,,,,,,,,,,,,,,,,,,,,,,,,,,,,,,,,,,0.37037037,-0.215740741,1,0,0,hierpan,hierpan,0,18,18,15,1,hiervan,images/br_hiervan.png,images/cb_hiervan.png
,,,,,,00050,2023-10-10_08h49.47.262,vbt_B1_day1,2022.2.4,Win32,58.41803949,,,,,,,,,,,,,,,,,,,,,,,,,,,,,,,,,,,,,,,,,,,0.37037037,-0.215740741,1,0,0,brij.,brij.,0,19,19,25,1,brijk,images/br_brijk.png,images/cb_brijk.png
,,,,,,00050,2023-10-10_08h49.47.262,vbt_B1_day1,2022.2.4,Win32,58.41803949,,,,,,,,,,,,,,,,,,,,,,,,,,,,,,,,,,,,,,,,,,,0.37037037,-0.215740741,1,0,0,metde...,metde...,0,20,20,18,1,uitdelen,images/br_uitdelen.png,images/cb_uitdelen.png
,,,,,,00050,2023-10-10_08h49.47.262,vbt_B1_day1,2022.2.4,Win32,58.41803949,,,,,,,,,,,,,,,,,,,,,,,,,,,,,,,,,,,,,,,,,,,0.37037037,-0.215740741,1,0,0,bleek,bleek,0,21,21,6,1,bleek,images/br_bleek.png,images/cb_bleek.png
,,,,,,00050,2023-10-10_08h49.47.262,vbt_B1_day1,2022.2.4,Win32,58.41803949,,,,,,,,,,,,,,,,,,,,,,,,,,,,,,,,,,,,,,,,,,,0.37037037,-0.215740741,1,0,0,vizie.,vizie.,0,22,22,49,1,vizier,images/br_vizier.png,images/cb_vizier.png
,,,,,,00050,2023-10-10_08h49.47.262,vbt_B1_day1,2022.2.4,Win32,58.41803949,,,,,,,,,,,,,,,,,,,,,,,,,,,,,,,,,,,,,,,,,,,0.37037037,-0.215740741,1,0,0,waarvan,waarvan,0,23,23,14,1,waarvan,images/br_waarvan.png,images/cb_waarvan.png
,,,,,,00050,2023-10-10_08h49.47.262,vbt_B1_day1,2022.2.4,Win32,58.41803949,,,,,,,,,,,,,,,,,,,,,,,,,,,,,,,,,,,,,,,,,,,0.37037037,-0.215740741,1,0,0,voork...,voork...,0,24,24,58,1,voorkeur,images/br_voorkeur.png,images/cb_voorkeur.png
,,,,,,00050,2023-10-10_08h49.47.262,vbt_B1_day1,2022.2.4,Win32,58.41803949,,,,,,,,,,,,,,,,,,,,,,,,,,,,,,,,,,,,,,,,,,,0.37037037,-0.215740741,1,0,0,muziek,muziek,0,25,25,10,1,muziek,images/br_muziek.png,images/cb_muziek.png
,,,,,,00050,2023-10-10_08h49.47.262,vbt_B1_day1,2022.2.4,Win32,58.41803949,,,,,,,,,,,,,,,,,,,,,,,,,,,,,,,,,,,,,,,,,,,0.37037037,-0.215740741,1,0,0,booi,booi,0,26,26,23,1,booi,images/br_booi.png,images/cb_booi.png
,,,,,,00050,2023-10-10_08h49.47.262,vbt_B1_day1,2022.2.4,Win32,58.41803949,,,,,,,,,,,,,,,,,,,,,,,,,,,,,,,,,,,,,,,,,,,0.37037037,-0.215740741,1,0,0,tars,tars,0,27,27,20,1,tars,images/br_tars.png,images/cb_tars.png
,,,,,,00050,2023-10-10_08h49.47.262,vbt_B1_day1,2022.2.4,Win32,58.41803949,,,,,,,,,,,,,,,,,,,,,,,,,,,,,,,,,,,,,,,,,,,0.37037037,-0.215740741,1,0,0,s.tm,s.tm,0,28,28,42,1,stuk,images/br_stuk.png,images/cb_stuk.png
,,,,,,00050,2023-10-10_08h49.47.262,vbt_B1_day1,2022.2.4,Win32,58.41803949,,,,,,,,,,,,,,,,,,,,,,,,,,,,,,,,,,,,,,,,,,,0.37037037,-0.215740741,1,0,0,.lulle.,.lulle.,0,29,29,33,1,flullen,images/br_flullen.png,images/cb_flullen.png
,,,,,,00050,2023-10-10_08h49.47.262,vbt_B1_day1,2022.2.4,Win32,58.41803949,,,,,,,,,,,,,,,,,,,,,,,,,,,,,,,,,,,,,,,,,,,0.37037037,-0.213888889,1,0,0,lezen,lezen,0,30,30,46,1,lezen,images/br_lezen.png,images/cb_lezen.png
,,,,,,00050,2023-10-10_08h49.47.262,vbt_B1_day1,2022.2.4,Win32,58.41803949,,,,,,,,,,,,,,,,,,,,,,,,,,,,,,,,,,,,,,,,,,,0.37037037,-0.213888889,1,0,0,klimmen,klimmen,0,31,31,12,1,klimmen,images/br_klimmen.png,images/cb_klimmen.png
,,,,,,00050,2023-10-10_08h49.47.262,vbt_B1_day1,2022.2.4,Win32,58.41803949,,,,,,,,,,,,,,,,,,,,,,,,,,,,,,,,,,,,,,,,,,,0.37037037,-0.213888889,1,0,0,slak,slak,0,32,32,0,1,slak,images/br_slak.png,images/cb_slak.png
,,,,,,00050,2023-10-10_08h49.47.262,vbt_B1_day1,2022.2.4,Win32,58.41803949,,,,,,,,,,,,,,,,,,,,,,,,,,,,,,,,,,,,,,,,,,,0.37037037,-0.213888889,1,0,0,voorre..,voorre..,0,33,33,39,1,voorreur,images/br_voorreur.png,images/cb_voorreur.png
,,,,,,00050,2023-10-10_08h49.47.262,vbt_B1_day1,2022.2.4,Win32,58.41803949,,,,,,,,,,,,,,,,,,,,,,,,,,,,,,,,,,,,,,,,,,,0.37037037,-0.213888889,1,0,0,hemel,hemel,0,34,34,45,1,hemel,images/br_hemel.png,images/cb_hemel.png
,,,,,,00050,2023-10-10_08h49.47.262,vbt_B1_day1,2022.2.4,Win32,58.41803949,,,,,,,,,,,,,,,,,,,,,,,,,,,,,,,,,,,,,,,,,,,0.37037037,-0.213888889,1,0,0,daar....,daar....,0,35,35,16,1,daarheen,images/br_daarheen.png,images/cb_daarheen.png
,,,,,,00050,2023-10-10_08h49.47.262,vbt_B1_day1,2022.2.4,Win32,58.41803949,,,,,,,,,,,,,,,,,,,,,,,,,,,,,,,,,,,,,,,,,,,0.37037037,-0.213888889,1,0,0,dubbel,dubbel,0,36,36,9,1,dubbel,images/br_dubbel.png,images/cb_dubbel.png
,,,,,,00050,2023-10-10_08h49.47.262,vbt_B1_day1,2022.2.4,Win32,58.41803949,,,,,,,,,,,,,,,,,,,,,,,,,,,,,,,,,,,,,,,,,,,0.37037037,-0.213888889,1,0,0,zaal,zaal,0,37,37,1,1,zaal,images/br_zaal.png,images/cb_zaal.png
,,,,,,00050,2023-10-10_08h49.47.262,vbt_B1_day1,2022.2.4,Win32,58.41803949,,,,,,,,,,,,,,,,,,,,,,,,,,,,,,,,,,,,,,,,,,,0.37037037,-0.213888889,1,0,0,verv....,verv....,0,38,38,36,1,vervaden,images/br_vervaden.png,images/cb_vervaden.png
,,,,,,00050,2023-10-10_08h49.47.262,vbt_B1_day1,2022.2.4,Win32,58.41803949,,,,,,,,,,,,,,,,,,,,,,,,,,,,,,,,,,,,,,,,,,,0.37037037,-0.213888889,1,0,0,dred,dred,0,39,39,21,1,dred,images/br_dred.png,images/cb_dred.png
,,,,,,00050,2023-10-10_08h49.47.262,vbt_B1_day1,2022.2.4,Win32,58.41803949,,,,,,,,,,,,,,,,,,,,,,,,,,,,,,,,,,,,,,,,,,,0.37037037,-0.213888889,1,0,0,died,died,0,40,40,40,1,dief,images/br_dief.png,images/cb_dief.png
,,,,,,00050,2023-10-10_08h49.47.262,vbt_B1_day1,2022.2.4,Win32,58.41803949,,,,,,,,,,,,,,,,,,,,,,,,,,,,,,,,,,,,,,,,,,,0.37037037,-0.213888889,1,0,0,vrort,vrort,0,41,41,27,1,prort,images/br_prort.png,images/cb_prort.png
,,,,,,00050,2023-10-10_08h49.47.262,vbt_B1_day1,2022.2.4,Win32,58.41803949,,,,,,,,,,,,,,,,,,,,,,,,,,,,,,,,,,,,,,,,,,,0.37037037,-0.213888889,1,0,0,stui...,stui...,0,42,42,35,1,stuikem,images/br_stuikem.png,images/cb_stuikem.png
,,,,,,00050,2023-10-10_08h49.47.262,vbt_B1_day1,2022.2.4,Win32,58.41803949,,,,,,,,,,,,,,,,,,,,,,,,,,,,,,,,,,,,,,,,,,,0.37037037,-0.213888889,1,0,0,zuip...,zuip...,0,43,43,52,1,zuiplap,images/br_zuiplap.png,images/cb_zuiplap.png
,,,,,,00050,2023-10-10_08h49.47.262,vbt_B1_day1,2022.2.4,Win32,58.41803949,,,,,,,,,,,,,,,,,,,,,,,,,,,,,,,,,,,,,,,,,,,0.37037037,-0.213888889,1,0,0,mand,mand,0,44,44,3,1,mand,images/br_mand.png,images/cb_mand.png
,,,,,,00050,2023-10-10_08h49.47.262,vbt_B1_day1,2022.2.4,Win32,58.41803949,,,,,,,,,,,,,,,,,,,,,,,,,,,,,,,,,,,,,,,,,,,0.37037037,-0.213888889,1,0,0,schiel..,schiel..,0,45,45,38,1,schielen,images/br_schielen.png,images/cb_schielen.png
,,,,,,00050,2023-10-10_08h49.47.262,vbt_B1_day1,2022.2.4,Win32,58.41803949,,,,,,,,,,,,,,,,,,,,,,,,,,,,,,,,,,,,,,,,,,,0.37037037,-0.213888889,1,0,0,klauw,klauw,0,46,46,7,1,klauw,images/br_klauw.png,images/cb_klauw.png
,,,,,,00050,2023-10-10_08h49.47.262,vbt_B1_day1,2022.2.4,Win32,58.41803949,,,,,,,,,,,,,,,,,,,,,,,,,,,,,,,,,,,,,,,,,,,0.37037037,-0.213888889,1,0,0,toezic..,toezic..,0,47,47,56,1,toezicht,images/br_toezicht.png,images/cb_toezicht.png
,,,,,,00050,2023-10-10_08h49.47.262,vbt_B1_day1,2022.2.4,Win32,58.41803949,,,,,,,,,,,,,,,,,,,,,,,,,,,,,,,,,,,,,,,,,,,0.37037037,-0.213888889,1,0,0,spa.....,spa.....,0,48,48,37,1,spanzing,images/br_spanzing.png,images/cb_spanzing.png
,,,,,,00050,2023-10-10_08h49.47.262,vbt_B1_day1,2022.2.4,Win32,58.41803949,,,,,,,,,,,,,,,,,,,,,,,,,,,,,,,,,,,,,,,,,,,0.37037037,-0.213888889,1,0,0,lochten,lochten,0,49,49,34,1,lochten,images/br_lochten.png,images/cb_lochten.png
,,,,,,00050,2023-10-10_08h49.47.262,vbt_B1_day1,2022.2.4,Win32,58.41803949,,,,,,,,,,,,,,,,,,,,,,,,,,,,,,,,,,,,,,,,,,,0.37037037,-0.213888889,1,0,0,kanjer,kanjer,0,50,50,8,1,kanjer,images/br_kanjer.png,images/cb_kanjer.png
,,,,,,00050,2023-10-10_08h49.47.262,vbt_B1_day1,2022.2.4,Win32,58.41803949,,,,,,,,,,,,,,,,,,,,,,,,,,,,,,,,,,,,,,,,,,,0.37037037,-0.213888889,1,0,0,vijf...,vijf...,0,51,51,54,1,vijftig,images/br_vijftig.png,images/cb_vijftig.png
,,,,,,00050,2023-10-10_08h49.47.262,vbt_B1_day1,2022.2.4,Win32,58.41803949,,,,,,,,,,,,,,,,,,,,,,,,,,,,,,,,,,,,,,,,,,,0.37037037,-0.213888889,1,0,0,oppla...,oppla...,0,52,52,32,1,opplaan,images/br_opplaan.png,images/cb_opplaan.png
,,,,,,00050,2023-10-10_08h49.47.262,vbt_B1_day1,2022.2.4,Win32,58.41803949,,,,,,,,,,,,,,,,,,,,,,,,,,,,,,,,,,,,,,,,,,,0.37037037,-0.213888889,1,0,0,kno.,kno.,0,53,53,22,1,knoe,images/br_knoe.png,images/cb_knoe.png
,,,,,,00050,2023-10-10_08h49.47.262,vbt_B1_day1,2022.2.4,Win32,58.41803949,,,,,,,,,,,,,,,,,,,,,,,,,,,,,,,,,,,,,,,,,,,0.37037037,-0.213888889,1,0,0,opvatt..,opvatt..,0,54,54,59,1,opvatten,images/br_opvatten.png,images/cb_opvatten.png
,,,,,,00050,2023-10-10_08h49.47.262,vbt_B1_day1,2022.2.4,Win32,58.41803949,,,,,,,,,,,,,,,,,,,,,,,,,,,,,,,,,,,,,,,,,,,0.37037037,-0.213888889,1,0,0,reedje,reedje,0,55,55,30,1,reedje,images/br_reedje.png,images/cb_reedje.png
,,,,,,00050,2023-10-10_08h49.47.262,vbt_B1_day1,2022.2.4,Win32,58.41803949,,,,,,,,,,,,,,,,,,,,,,,,,,,,,,,,,,,,,,,,,,,0.375,-0.207407407,1,0,0,tekenen,tekenen,0,56,56,55,1,tekenen,images/br_tekenen.png,images/cb_tekenen.png
,,,,,,00050,2023-10-10_08h49.47.262,vbt_B1_day1,2022.2.4,Win32,58.41803949,,,,,,,,,,,,,,,,,,,,,,,,,,,,,,,,,,,,,,,,,,,0.375,-0.207407407,1,0,0,schui...,schui...,0,57,57,19,1,schuilen,images/br_schuilen.png,images/cb_schuilen.png
,,,,,,00050,2023-10-10_08h49.47.262,vbt_B1_day1,2022.2.4,Win32,58.41803949,,,,,,,,,,,,,,,,,,,,,,,,,,,,,,,,,,,,,,,,,,,0.375,-0.207407407,1,0,0,we.zi,we.zi,0,58,58,44,1,wijze,images/br_wijze.png,images/cb_wijze.png
,,,,,,00050,2023-10-10_08h49.47.262,vbt_B1_day1,2022.2.4,Win32,58.41803949,,,,,,,,,,,,,,,,,,,,,,,,,,,,,,,,,,,,,,,,,,,0.375,-0.207407407,1,0,0,loods,loods,0,59,59,47,1,loods,images/br_loods.png,images/cb_loods.png
,,,,,,00050,2023-10-10_08h49.47.262,vbt_B1_day1,2022.2.4,Win32,58.41803949,,,,,,,,,,,,,,,,,,,,,,,,,,,,,,,,,,,,,,,,,,,,,,,,,,,,,,,,,
