welcome_mouse.x,welcome_mouse.y,welcome_mouse.leftButton,welcome_mouse.midButton,welcome_mouse.rightButton,welcome_mouse.time,"ID",date,expName,psychopyVersion,OS,frameRate,mouse_2.x,mouse_2.y,mouse_2.leftButton,mouse_2.midButton,mouse_2.rightButton,mouse_2.time,mouse_3.x,mouse_3.y,mouse_3.leftButton,mouse_3.midButton,mouse_3.rightButton,mouse_3.time,train_mouse.x,train_mouse.y,train_mouse.leftButton,train_mouse.midButton,train_mouse.rightButton,train_mouse.time,braille_mouse.x,braille_mouse.y,braille_mouse.leftButton,braille_mouse.midButton,braille_mouse.rightButton,braille_mouse.time,trials.thisRepN,trials.thisTrialN,trials.thisN,trials.thisIndex,trials.ran,nlLet,brLet,cbLet,mouse.x,mouse.y,mouse.leftButton,mouse.midButton,mouse.rightButton,testInstr_mouse.x,testInstr_mouse.y,testInstr_mouse.leftButton,testInstr_mouse.midButton,testInstr_mouse.rightButton,test_mouse.x,test_mouse.y,test_mouse.leftButton,test_mouse.midButton,test_mouse.rightButton,test_response.text,testResp,test_loop.thisRepN,test_loop.thisTrialN,test_loop.thisN,test_loop.thisIndex,test_loop.ran,nlWrd,brWrd,cbWrd
-0.150925884,-0.25,1,0,0,44.3377,00059,2023-10-17_12h02.08.004,vbt_B1_day1,2022.2.4,Win32,59.97001499,,,,,,,,,,,,,,,,,,,,,,,,,,,,,,,,,,,,,,,,,,,,,,,,,,,,,,,,,
,,,,,,00059,2023-10-17_12h02.08.004,vbt_B1_day1,2022.2.4,Win32,59.97001499,-0.150925884,-0.25,1,0,0,17.9204,,,,,,,,,,,,,,,,,,,,,,,,,,,,,,,,,,,,,,,,,,,,,,,,,,,
,,,,,,00059,2023-10-17_12h02.08.004,vbt_B1_day1,2022.2.4,Win32,59.97001499,,,,,,,-0.126851824,-0.287962949,1,0,0,87.0555,,,,,,,,,,,,,,,,,,,,,,,,,,,,,,,,,,,,,,,,,,,,,
,,,,,,00059,2023-10-17_12h02.08.004,vbt_B1_day1,2022.2.4,Win32,59.97001499,,,,,,,,,,,,,-0.126851824,-0.287962949,1,0,0,72.9537,,,,,,,,,,,,,,,,,,,,,,,,,,,,,,,,,,,,,,,
,,,,,,00059,2023-10-17_12h02.08.004,vbt_B1_day1,2022.2.4,Win32,59.97001499,,,,,,,,,,,,,,,,,,,-0.126851824,-0.287962949,1,0,0,5.083,0,0,0,5,1,f,images/br_f.png,images/cb_f.png,,,,,,,,,,,,,,,,,,,,,,,,,
,,,,,,00059,2023-10-17_12h02.08.004,vbt_B1_day1,2022.2.4,Win32,59.97001499,,,,,,,,,,,,,,,,,,,-0.125925912,-0.288888931,1,0,0,3.7999,0,1,1,3,1,d,images/br_d.png,images/cb_d.png,,,,,,,,,,,,,,,,,,,,,,,,,
,,,,,,00059,2023-10-17_12h02.08.004,vbt_B1_day1,2022.2.4,Win32,59.97001499,,,,,,,,,,,,,,,,,,,-0.125925912,-0.288888931,1,0,0,2.3322,0,2,2,14,1,o,images/br_o.png,images/cb_o.png,,,,,,,,,,,,,,,,,,,,,,,,,
,,,,,,00059,2023-10-17_12h02.08.004,vbt_B1_day1,2022.2.4,Win32,59.97001499,,,,,,,,,,,,,,,,,,,-0.125925912,-0.288888931,1,0,0,5.0157,0,3,3,17,1,r,images/br_r.png,images/cb_r.png,,,,,,,,,,,,,,,,,,,,,,,,,
,,,,,,00059,2023-10-17_12h02.08.004,vbt_B1_day1,2022.2.4,Win32,59.97001499,,,,,,,,,,,,,,,,,,,-0.125925912,-0.288888931,1,0,0,2.0333,0,4,4,9,1,j,images/br_j.png,images/cb_j.png,,,,,,,,,,,,,,,,,,,,,,,,,
,,,,,,00059,2023-10-17_12h02.08.004,vbt_B1_day1,2022.2.4,Win32,59.97001499,,,,,,,,,,,,,,,,,,,-0.125925912,-0.287962949,1,0,0,2.7158,0,5,5,22,1,w,images/br_w.png,images/cb_w.png,,,,,,,,,,,,,,,,,,,,,,,,,
,,,,,,00059,2023-10-17_12h02.08.004,vbt_B1_day1,2022.2.4,Win32,59.97001499,,,,,,,,,,,,,,,,,,,-0.125925912,-0.287962949,1,0,0,2.9163,0,6,6,11,1,l,images/br_l.png,images/cb_l.png,,,,,,,,,,,,,,,,,,,,,,,,,
,,,,,,00059,2023-10-17_12h02.08.004,vbt_B1_day1,2022.2.4,Win32,59.97001499,,,,,,,,,,,,,,,,,,,-0.125925912,-0.287962949,1,0,0,2.3996,0,7,7,1,1,b,images/br_b.png,images/cb_b.png,,,,,,,,,,,,,,,,,,,,,,,,,
,,,,,,00059,2023-10-17_12h02.08.004,vbt_B1_day1,2022.2.4,Win32,59.97001499,,,,,,,,,,,,,,,,,,,-0.125925912,-0.287962949,1,0,0,3.7825,0,8,8,25,1,z,images/br_z.png,images/cb_z.png,,,,,,,,,,,,,,,,,,,,,,,,,
,,,,,,00059,2023-10-17_12h02.08.004,vbt_B1_day1,2022.2.4,Win32,59.97001499,,,,,,,,,,,,,,,,,,,-0.125925912,-0.287962949,1,0,0,2.1162,0,9,9,20,1,u,images/br_u.png,images/cb_u.png,,,,,,,,,,,,,,,,,,,,,,,,,
,,,,,,00059,2023-10-17_12h02.08.004,vbt_B1_day1,2022.2.4,Win32,59.97001499,,,,,,,,,,,,,,,,,,,-0.125925912,-0.287962949,1,0,0,4.1325,0,10,10,13,1,n,images/br_n.png,images/cb_n.png,,,,,,,,,,,,,,,,,,,,,,,,,
,,,,,,00059,2023-10-17_12h02.08.004,vbt_B1_day1,2022.2.4,Win32,59.97001499,,,,,,,,,,,,,,,,,,,-0.125925912,-0.287962949,1,0,0,2.0499,0,11,11,23,1,x,images/br_x.png,images/cb_x.png,,,,,,,,,,,,,,,,,,,,,,,,,
,,,,,,00059,2023-10-17_12h02.08.004,vbt_B1_day1,2022.2.4,Win32,59.97001499,,,,,,,,,,,,,,,,,,,-0.125925912,-0.287962949,1,0,0,2.1662,0,12,12,7,1,h,images/br_h.png,images/cb_h.png,,,,,,,,,,,,,,,,,,,,,,,,,
,,,,,,00059,2023-10-17_12h02.08.004,vbt_B1_day1,2022.2.4,Win32,59.97001499,,,,,,,,,,,,,,,,,,,-0.125925912,-0.287962949,1,0,0,2.4997,0,13,13,10,1,k,images/br_k.png,images/cb_k.png,,,,,,,,,,,,,,,,,,,,,,,,,
,,,,,,00059,2023-10-17_12h02.08.004,vbt_B1_day1,2022.2.4,Win32,59.97001499,,,,,,,,,,,,,,,,,,,-0.125925912,-0.287962949,1,0,0,1.9161,0,14,14,15,1,p,images/br_p.png,images/cb_p.png,,,,,,,,,,,,,,,,,,,,,,,,,
,,,,,,00059,2023-10-17_12h02.08.004,vbt_B1_day1,2022.2.4,Win32,59.97001499,,,,,,,,,,,,,,,,,,,-0.125925912,-0.287962949,1,0,0,2.2329,0,15,15,18,1,s,images/br_s.png,images/cb_s.png,,,,,,,,,,,,,,,,,,,,,,,,,
,,,,,,00059,2023-10-17_12h02.08.004,vbt_B1_day1,2022.2.4,Win32,59.97001499,,,,,,,,,,,,,,,,,,,-0.125925912,-0.287962949,1,0,0,0.901,0,16,16,16,1,q,images/br_q.png,images/cb_q.png,,,,,,,,,,,,,,,,,,,,,,,,,
,,,,,,00059,2023-10-17_12h02.08.004,vbt_B1_day1,2022.2.4,Win32,59.97001499,,,,,,,,,,,,,,,,,,,-0.125925912,-0.287962949,1,0,0,0.9835,0,17,17,21,1,v,images/br_v.png,images/cb_v.png,,,,,,,,,,,,,,,,,,,,,,,,,
,,,,,,00059,2023-10-17_12h02.08.004,vbt_B1_day1,2022.2.4,Win32,59.97001499,,,,,,,,,,,,,,,,,,,-0.125925912,-0.287962949,1,0,0,1.0326,0,18,18,12,1,m,images/br_m.png,images/cb_m.png,,,,,,,,,,,,,,,,,,,,,,,,,
,,,,,,00059,2023-10-17_12h02.08.004,vbt_B1_day1,2022.2.4,Win32,59.97001499,,,,,,,,,,,,,,,,,,,-0.125925912,-0.287962949,1,0,0,2.0831,0,19,19,24,1,y,images/br_y.png,images/cb_y.png,,,,,,,,,,,,,,,,,,,,,,,,,
,,,,,,00059,2023-10-17_12h02.08.004,vbt_B1_day1,2022.2.4,Win32,59.97001499,,,,,,,,,,,,,,,,,,,-0.125925912,-0.287962949,1,0,0,1.4668,0,20,20,19,1,t,images/br_t.png,images/cb_t.png,,,,,,,,,,,,,,,,,,,,,,,,,
,,,,,,00059,2023-10-17_12h02.08.004,vbt_B1_day1,2022.2.4,Win32,59.97001499,,,,,,,,,,,,,,,,,,,-0.125925912,-0.287962949,1,0,0,1.7329,0,21,21,6,1,g,images/br_g.png,images/cb_g.png,,,,,,,,,,,,,,,,,,,,,,,,,
,,,,,,00059,2023-10-17_12h02.08.004,vbt_B1_day1,2022.2.4,Win32,59.97001499,,,,,,,,,,,,,,,,,,,-0.125925912,-0.287962949,1,0,0,0.6498,0,22,22,2,1,c,images/br_c.png,images/cb_c.png,,,,,,,,,,,,,,,,,,,,,,,,,
,,,,,,00059,2023-10-17_12h02.08.004,vbt_B1_day1,2022.2.4,Win32,59.97001499,,,,,,,,,,,,,,,,,,,-0.125925912,-0.287962949,1,0,0,0.6664,0,23,23,0,1,a,images/br_a.png,images/cb_a.png,,,,,,,,,,,,,,,,,,,,,,,,,
,,,,,,00059,2023-10-17_12h02.08.004,vbt_B1_day1,2022.2.4,Win32,59.97001499,,,,,,,,,,,,,,,,,,,-0.125925912,-0.287962949,1,0,0,0.2334,0,24,24,4,1,e,images/br_e.png,images/cb_e.png,,,,,,,,,,,,,,,,,,,,,,,,,
,,,,,,00059,2023-10-17_12h02.08.004,vbt_B1_day1,2022.2.4,Win32,59.97001499,,,,,,,,,,,,,,,,,,,-0.125925912,-0.287962949,1,0,0,0.7167,0,25,25,8,1,i,images/br_i.png,images/cb_i.png,,,,,,,,,,,,,,,,,,,,,,,,,
,,,,,,00059,2023-10-17_12h02.08.004,vbt_B1_day1,2022.2.4,Win32,59.97001499,,,,,,,,,,,,,,,,,,,-0.125925912,-0.287962949,1,0,0,6.6983,1,0,26,10,1,k,images/br_k.png,images/cb_k.png,,,,,,,,,,,,,,,,,,,,,,,,,
,,,,,,00059,2023-10-17_12h02.08.004,vbt_B1_day1,2022.2.4,Win32,59.97001499,,,,,,,,,,,,,,,,,,,-0.125925912,-0.287962949,1,0,0,1.1667,1,1,27,5,1,f,images/br_f.png,images/cb_f.png,,,,,,,,,,,,,,,,,,,,,,,,,
,,,,,,00059,2023-10-17_12h02.08.004,vbt_B1_day1,2022.2.4,Win32,59.97001499,,,,,,,,,,,,,,,,,,,-0.125925912,-0.287962949,1,0,0,2.1992,1,2,28,7,1,h,images/br_h.png,images/cb_h.png,,,,,,,,,,,,,,,,,,,,,,,,,
,,,,,,00059,2023-10-17_12h02.08.004,vbt_B1_day1,2022.2.4,Win32,59.97001499,,,,,,,,,,,,,,,,,,,-0.125925912,-0.287962949,1,0,0,1.5834,1,3,29,3,1,d,images/br_d.png,images/cb_d.png,,,,,,,,,,,,,,,,,,,,,,,,,
,,,,,,00059,2023-10-17_12h02.08.004,vbt_B1_day1,2022.2.4,Win32,59.97001499,,,,,,,,,,,,,,,,,,,-0.125925912,-0.287962949,1,0,0,0.3497,1,4,30,1,1,b,images/br_b.png,images/cb_b.png,,,,,,,,,,,,,,,,,,,,,,,,,
,,,,,,00059,2023-10-17_12h02.08.004,vbt_B1_day1,2022.2.4,Win32,59.97001499,,,,,,,,,,,,,,,,,,,-0.113888847,-0.306481467,1,0,0,3.332,1,5,31,2,1,c,images/br_c.png,images/cb_c.png,,,,,,,,,,,,,,,,,,,,,,,,,
,,,,,,00059,2023-10-17_12h02.08.004,vbt_B1_day1,2022.2.4,Win32,59.97001499,,,,,,,,,,,,,,,,,,,0.035185213,-0.295370384,1,0,0,2.8327,1,6,32,9,1,j,images/br_j.png,images/cb_j.png,,,,,,,,,,,,,,,,,,,,,,,,,
,,,,,,00059,2023-10-17_12h02.08.004,vbt_B1_day1,2022.2.4,Win32,59.97001499,,,,,,,,,,,,,,,,,,,0.035185213,-0.296296296,1,0,0,2.4669,1,7,33,0,1,a,images/br_a.png,images/cb_a.png,,,,,,,,,,,,,,,,,,,,,,,,,
,,,,,,00059,2023-10-17_12h02.08.004,vbt_B1_day1,2022.2.4,Win32,59.97001499,,,,,,,,,,,,,,,,,,,-0.039814772,-0.339814857,1,0,0,0.5826,1,8,34,21,1,v,images/br_v.png,images/cb_v.png,,,,,,,,,,,,,,,,,,,,,,,,,
,,,,,,00059,2023-10-17_12h02.08.004,vbt_B1_day1,2022.2.4,Win32,59.97001499,,,,,,,,,,,,,,,,,,,-0.039814772,-0.339814857,1,0,0,0.7001,1,9,35,25,1,z,images/br_z.png,images/cb_z.png,,,,,,,,,,,,,,,,,,,,,,,,,
,,,,,,00059,2023-10-17_12h02.08.004,vbt_B1_day1,2022.2.4,Win32,59.97001499,,,,,,,,,,,,,,,,,,,-0.039814772,-0.339814857,1,0,0,2.9328,1,10,36,13,1,n,images/br_n.png,images/cb_n.png,,,,,,,,,,,,,,,,,,,,,,,,,
,,,,,,00059,2023-10-17_12h02.08.004,vbt_B1_day1,2022.2.4,Win32,59.97001499,,,,,,,,,,,,,,,,,,,-0.039814772,-0.339814857,1,0,0,2.6165,1,11,37,19,1,t,images/br_t.png,images/cb_t.png,,,,,,,,,,,,,,,,,,,,,,,,,
,,,,,,00059,2023-10-17_12h02.08.004,vbt_B1_day1,2022.2.4,Win32,59.97001499,,,,,,,,,,,,,,,,,,,-0.039814772,-0.339814857,1,0,0,1.667,1,12,38,16,1,q,images/br_q.png,images/cb_q.png,,,,,,,,,,,,,,,,,,,,,,,,,
,,,,,,00059,2023-10-17_12h02.08.004,vbt_B1_day1,2022.2.4,Win32,59.97001499,,,,,,,,,,,,,,,,,,,-0.039814772,-0.339814857,1,0,0,1.9831,1,13,39,12,1,m,images/br_m.png,images/cb_m.png,,,,,,,,,,,,,,,,,,,,,,,,,
,,,,,,00059,2023-10-17_12h02.08.004,vbt_B1_day1,2022.2.4,Win32,59.97001499,,,,,,,,,,,,,,,,,,,-0.039814772,-0.339814857,1,0,0,0.8501,1,14,40,22,1,w,images/br_w.png,images/cb_w.png,,,,,,,,,,,,,,,,,,,,,,,,,
,,,,,,00059,2023-10-17_12h02.08.004,vbt_B1_day1,2022.2.4,Win32,59.97001499,,,,,,,,,,,,,,,,,,,0.193518533,-0.287962949,1,0,0,2.2162,1,15,41,23,1,x,images/br_x.png,images/cb_x.png,,,,,,,,,,,,,,,,,,,,,,,,,
,,,,,,00059,2023-10-17_12h02.08.004,vbt_B1_day1,2022.2.4,Win32,59.97001499,,,,,,,,,,,,,,,,,,,0.193518533,-0.287962949,1,0,0,5.3819,1,16,42,24,1,y,images/br_y.png,images/cb_y.png,,,,,,,,,,,,,,,,,,,,,,,,,
,,,,,,00059,2023-10-17_12h02.08.004,vbt_B1_day1,2022.2.4,Win32,59.97001499,,,,,,,,,,,,,,,,,,,0.193518533,-0.287962949,1,0,0,3.7837,1,17,43,4,1,e,images/br_e.png,images/cb_e.png,,,,,,,,,,,,,,,,,,,,,,,,,
,,,,,,00059,2023-10-17_12h02.08.004,vbt_B1_day1,2022.2.4,Win32,59.97001499,,,,,,,,,,,,,,,,,,,0.193518533,-0.287962949,1,0,0,1.4331,1,18,44,11,1,l,images/br_l.png,images/cb_l.png,,,,,,,,,,,,,,,,,,,,,,,,,
,,,,,,00059,2023-10-17_12h02.08.004,vbt_B1_day1,2022.2.4,Win32,59.97001499,,,,,,,,,,,,,,,,,,,0.194444444,-0.287037037,1,0,0,4.7158,1,19,45,8,1,i,images/br_i.png,images/cb_i.png,,,,,,,,,,,,,,,,,,,,,,,,,
,,,,,,00059,2023-10-17_12h02.08.004,vbt_B1_day1,2022.2.4,Win32,59.97001499,,,,,,,,,,,,,,,,,,,0.194444444,-0.287037037,1,0,0,2.6673,1,20,46,20,1,u,images/br_u.png,images/cb_u.png,,,,,,,,,,,,,,,,,,,,,,,,,
,,,,,,00059,2023-10-17_12h02.08.004,vbt_B1_day1,2022.2.4,Win32,59.97001499,,,,,,,,,,,,,,,,,,,0.194444444,-0.287037037,1,0,0,1.9,1,21,47,18,1,s,images/br_s.png,images/cb_s.png,,,,,,,,,,,,,,,,,,,,,,,,,
,,,,,,00059,2023-10-17_12h02.08.004,vbt_B1_day1,2022.2.4,Win32,59.97001499,,,,,,,,,,,,,,,,,,,0.194444444,-0.287037037,1,0,0,1.2833,1,22,48,6,1,g,images/br_g.png,images/cb_g.png,,,,,,,,,,,,,,,,,,,,,,,,,
,,,,,,00059,2023-10-17_12h02.08.004,vbt_B1_day1,2022.2.4,Win32,59.97001499,,,,,,,,,,,,,,,,,,,0.194444444,-0.287037037,1,0,0,5.1991,1,23,49,17,1,r,images/br_r.png,images/cb_r.png,,,,,,,,,,,,,,,,,,,,,,,,,
,,,,,,00059,2023-10-17_12h02.08.004,vbt_B1_day1,2022.2.4,Win32,59.97001499,,,,,,,,,,,,,,,,,,,0.194444444,-0.287037037,1,0,0,1.5498,1,24,50,14,1,o,images/br_o.png,images/cb_o.png,,,,,,,,,,,,,,,,,,,,,,,,,
,,,,,,00059,2023-10-17_12h02.08.004,vbt_B1_day1,2022.2.4,Win32,59.97001499,,,,,,,,,,,,,,,,,,,0.194444444,-0.287037037,1,0,0,1.3332,1,25,51,15,1,p,images/br_p.png,images/cb_p.png,,,,,,,,,,,,,,,,,,,,,,,,,
,,,,,,00059,2023-10-17_12h02.08.004,vbt_B1_day1,2022.2.4,Win32,59.97001499,,,,,,,,,,,,,,,,,,,0.194444444,-0.287037037,1,0,0,0.5003,2,0,52,11,1,l,images/br_l.png,images/cb_l.png,,,,,,,,,,,,,,,,,,,,,,,,,
,,,,,,00059,2023-10-17_12h02.08.004,vbt_B1_day1,2022.2.4,Win32,59.97001499,,,,,,,,,,,,,,,,,,,0.194444444,-0.287037037,1,0,0,0.0169,2,1,53,6,1,g,images/br_g.png,images/cb_g.png,,,,,,,,,,,,,,,,,,,,,,,,,
,,,,,,00059,2023-10-17_12h02.08.004,vbt_B1_day1,2022.2.4,Win32,59.97001499,,,,,,,,,,,,,,,,,,,0.194444444,-0.287037037,1,0,0,1.9497,2,2,54,4,1,e,images/br_e.png,images/cb_e.png,,,,,,,,,,,,,,,,,,,,,,,,,
,,,,,,00059,2023-10-17_12h02.08.004,vbt_B1_day1,2022.2.4,Win32,59.97001499,,,,,,,,,,,,,,,,,,,0.194444444,-0.286111125,1,0,0,1.3488,2,3,55,23,1,x,images/br_x.png,images/cb_x.png,,,,,,,,,,,,,,,,,,,,,,,,,
,,,,,,00059,2023-10-17_12h02.08.004,vbt_B1_day1,2022.2.4,Win32,59.97001499,,,,,,,,,,,,,,,,,,,0.194444444,-0.286111125,1,0,0,0.1997,2,4,56,25,1,z,images/br_z.png,images/cb_z.png,,,,,,,,,,,,,,,,,,,,,,,,,
,,,,,,00059,2023-10-17_12h02.08.004,vbt_B1_day1,2022.2.4,Win32,59.97001499,,,,,,,,,,,,,,,,,,,0.174074102,-0.272222236,1,0,0,6.1832,2,5,57,22,1,w,images/br_w.png,images/cb_w.png,,,,,,,,,,,,,,,,,,,,,,,,,
,,,,,,00059,2023-10-17_12h02.08.004,vbt_B1_day1,2022.2.4,Win32,59.97001499,,,,,,,,,,,,,,,,,,,0.174074102,-0.272222236,1,0,0,1.7335,2,6,58,5,1,f,images/br_f.png,images/cb_f.png,,,,,,,,,,,,,,,,,,,,,,,,,
,,,,,,00059,2023-10-17_12h02.08.004,vbt_B1_day1,2022.2.4,Win32,59.97001499,,,,,,,,,,,,,,,,,,,0.174074102,-0.272222236,1,0,0,5.4154,2,7,59,12,1,m,images/br_m.png,images/cb_m.png,,,,,,,,,,,,,,,,,,,,,,,,,
,,,,,,00059,2023-10-17_12h02.08.004,vbt_B1_day1,2022.2.4,Win32,59.97001499,,,,,,,,,,,,,,,,,,,0.174074102,-0.272222236,1,0,0,6.2656,2,8,60,20,1,u,images/br_u.png,images/cb_u.png,,,,,,,,,,,,,,,,,,,,,,,,,
,,,,,,00059,2023-10-17_12h02.08.004,vbt_B1_day1,2022.2.4,Win32,59.97001499,,,,,,,,,,,,,,,,,,,0.174074102,-0.272222236,1,0,0,2.4665,2,9,61,24,1,y,images/br_y.png,images/cb_y.png,,,,,,,,,,,,,,,,,,,,,,,,,
,,,,,,00059,2023-10-17_12h02.08.004,vbt_B1_day1,2022.2.4,Win32,59.97001499,,,,,,,,,,,,,,,,,,,0.174074102,-0.272222236,1,0,0,0.7669,2,10,62,2,1,c,images/br_c.png,images/cb_c.png,,,,,,,,,,,,,,,,,,,,,,,,,
,,,,,,00059,2023-10-17_12h02.08.004,vbt_B1_day1,2022.2.4,Win32,59.97001499,,,,,,,,,,,,,,,,,,,0.174074102,-0.272222236,1,0,0,0.0166,2,11,63,17,1,r,images/br_r.png,images/cb_r.png,,,,,,,,,,,,,,,,,,,,,,,,,
,,,,,,00059,2023-10-17_12h02.08.004,vbt_B1_day1,2022.2.4,Win32,59.97001499,,,,,,,,,,,,,,,,,,,0.174074102,-0.272222236,1,0,0,1.0166,2,12,64,19,1,t,images/br_t.png,images/cb_t.png,,,,,,,,,,,,,,,,,,,,,,,,,
,,,,,,00059,2023-10-17_12h02.08.004,vbt_B1_day1,2022.2.4,Win32,59.97001499,,,,,,,,,,,,,,,,,,,0.174074102,-0.272222236,1,0,0,13.0303,2,13,65,13,1,n,images/br_n.png,images/cb_n.png,,,,,,,,,,,,,,,,,,,,,,,,,
,,,,,,00059,2023-10-17_12h02.08.004,vbt_B1_day1,2022.2.4,Win32,59.97001499,,,,,,,,,,,,,,,,,,,0.174074102,-0.272222236,1,0,0,1.4339,2,14,66,1,1,b,images/br_b.png,images/cb_b.png,,,,,,,,,,,,,,,,,,,,,,,,,
,,,,,,00059,2023-10-17_12h02.08.004,vbt_B1_day1,2022.2.4,Win32,59.97001499,,,,,,,,,,,,,,,,,,,0.174074102,-0.272222236,1,0,0,6.4325,2,15,67,10,1,k,images/br_k.png,images/cb_k.png,,,,,,,,,,,,,,,,,,,,,,,,,
,,,,,,00059,2023-10-17_12h02.08.004,vbt_B1_day1,2022.2.4,Win32,59.97001499,,,,,,,,,,,,,,,,,,,0.174074102,-0.272222236,1,0,0,0.2336,2,16,68,8,1,i,images/br_i.png,images/cb_i.png,,,,,,,,,,,,,,,,,,,,,,,,,
,,,,,,00059,2023-10-17_12h02.08.004,vbt_B1_day1,2022.2.4,Win32,59.97001499,,,,,,,,,,,,,,,,,,,0.174074102,-0.272222236,1,0,0,0.1501,2,17,69,14,1,o,images/br_o.png,images/cb_o.png,,,,,,,,,,,,,,,,,,,,,,,,,
,,,,,,00059,2023-10-17_12h02.08.004,vbt_B1_day1,2022.2.4,Win32,59.97001499,,,,,,,,,,,,,,,,,,,0.174074102,-0.272222236,1,0,0,0.167,2,18,70,0,1,a,images/br_a.png,images/cb_a.png,,,,,,,,,,,,,,,,,,,,,,,,,
,,,,,,00059,2023-10-17_12h02.08.004,vbt_B1_day1,2022.2.4,Win32,59.97001499,,,,,,,,,,,,,,,,,,,0.174074102,-0.272222236,1,0,0,3.5,2,19,71,18,1,s,images/br_s.png,images/cb_s.png,,,,,,,,,,,,,,,,,,,,,,,,,
,,,,,,00059,2023-10-17_12h02.08.004,vbt_B1_day1,2022.2.4,Win32,59.97001499,,,,,,,,,,,,,,,,,,,0.174074102,-0.272222236,1,0,0,0.3332,2,20,72,9,1,j,images/br_j.png,images/cb_j.png,,,,,,,,,,,,,,,,,,,,,,,,,
,,,,,,00059,2023-10-17_12h02.08.004,vbt_B1_day1,2022.2.4,Win32,59.97001499,,,,,,,,,,,,,,,,,,,0.174074102,-0.272222236,1,0,0,0.9163,2,21,73,16,1,q,images/br_q.png,images/cb_q.png,,,,,,,,,,,,,,,,,,,,,,,,,
,,,,,,00059,2023-10-17_12h02.08.004,vbt_B1_day1,2022.2.4,Win32,59.97001499,,,,,,,,,,,,,,,,,,,0.174074102,-0.272222236,1,0,0,3.2,2,22,74,7,1,h,images/br_h.png,images/cb_h.png,,,,,,,,,,,,,,,,,,,,,,,,,
,,,,,,00059,2023-10-17_12h02.08.004,vbt_B1_day1,2022.2.4,Win32,59.97001499,,,,,,,,,,,,,,,,,,,0.174074102,-0.272222236,1,0,0,0.167,2,23,75,21,1,v,images/br_v.png,images/cb_v.png,,,,,,,,,,,,,,,,,,,,,,,,,
,,,,,,00059,2023-10-17_12h02.08.004,vbt_B1_day1,2022.2.4,Win32,59.97001499,,,,,,,,,,,,,,,,,,,0.174074102,-0.272222236,1,0,0,2.0333,2,24,76,3,1,d,images/br_d.png,images/cb_d.png,,,,,,,,,,,,,,,,,,,,,,,,,
,,,,,,00059,2023-10-17_12h02.08.004,vbt_B1_day1,2022.2.4,Win32,59.97001499,,,,,,,,,,,,,,,,,,,0.174074102,-0.272222236,1,0,0,7.6979,2,25,77,15,1,p,images/br_p.png,images/cb_p.png,,,,,,,,,,,,,,,,,,,,,,,,,
,,,,,,00059,2023-10-17_12h02.08.004,vbt_B1_day1,2022.2.4,Win32,59.97001499,,,,,,,,,,,,,,,,,,,0.174074102,-0.272222236,1,0,0,1.0168,3,0,78,19,1,t,images/br_t.png,images/cb_t.png,,,,,,,,,,,,,,,,,,,,,,,,,
,,,,,,00059,2023-10-17_12h02.08.004,vbt_B1_day1,2022.2.4,Win32,59.97001499,,,,,,,,,,,,,,,,,,,0.174074102,-0.272222236,1,0,0,1.0999,3,1,79,18,1,s,images/br_s.png,images/cb_s.png,,,,,,,,,,,,,,,,,,,,,,,,,
,,,,,,00059,2023-10-17_12h02.08.004,vbt_B1_day1,2022.2.4,Win32,59.97001499,,,,,,,,,,,,,,,,,,,0.174074102,-0.272222236,1,0,0,0.0334,3,2,80,20,1,u,images/br_u.png,images/cb_u.png,,,,,,,,,,,,,,,,,,,,,,,,,
,,,,,,00059,2023-10-17_12h02.08.004,vbt_B1_day1,2022.2.4,Win32,59.97001499,,,,,,,,,,,,,,,,,,,0.174074102,-0.272222236,1,0,0,1.3507,3,3,81,25,1,z,images/br_z.png,images/cb_z.png,,,,,,,,,,,,,,,,,,,,,,,,,
,,,,,,00059,2023-10-17_12h02.08.004,vbt_B1_day1,2022.2.4,Win32,59.97001499,,,,,,,,,,,,,,,,,,,0.174074102,-0.272222236,1,0,0,0.6337,3,4,82,21,1,v,images/br_v.png,images/cb_v.png,,,,,,,,,,,,,,,,,,,,,,,,,
,,,,,,00059,2023-10-17_12h02.08.004,vbt_B1_day1,2022.2.4,Win32,59.97001499,,,,,,,,,,,,,,,,,,,0.174074102,-0.272222236,1,0,0,1.3669,3,5,83,4,1,e,images/br_e.png,images/cb_e.png,,,,,,,,,,,,,,,,,,,,,,,,,
,,,,,,00059,2023-10-17_12h02.08.004,vbt_B1_day1,2022.2.4,Win32,59.97001499,,,,,,,,,,,,,,,,,,,0.174074102,-0.272222236,1,0,0,1.4997,3,6,84,13,1,n,images/br_n.png,images/cb_n.png,,,,,,,,,,,,,,,,,,,,,,,,,
,,,,,,00059,2023-10-17_12h02.08.004,vbt_B1_day1,2022.2.4,Win32,59.97001499,,,,,,,,,,,,,,,,,,,0.174074102,-0.272222236,1,0,0,1.3331,3,7,85,17,1,r,images/br_r.png,images/cb_r.png,,,,,,,,,,,,,,,,,,,,,,,,,
,,,,,,00059,2023-10-17_12h02.08.004,vbt_B1_day1,2022.2.4,Win32,59.97001499,,,,,,,,,,,,,,,,,,,0.174074102,-0.272222236,1,0,0,2.7657,3,8,86,22,1,w,images/br_w.png,images/cb_w.png,,,,,,,,,,,,,,,,,,,,,,,,,
,,,,,,00059,2023-10-17_12h02.08.004,vbt_B1_day1,2022.2.4,Win32,59.97001499,,,,,,,,,,,,,,,,,,,0.174074102,-0.272222236,1,0,0,1.0328,3,9,87,16,1,q,images/br_q.png,images/cb_q.png,,,,,,,,,,,,,,,,,,,,,,,,,
,,,,,,00059,2023-10-17_12h02.08.004,vbt_B1_day1,2022.2.4,Win32,59.97001499,,,,,,,,,,,,,,,,,,,0.174074102,-0.272222236,1,0,0,0.7162,3,10,88,15,1,p,images/br_p.png,images/cb_p.png,,,,,,,,,,,,,,,,,,,,,,,,,
,,,,,,00059,2023-10-17_12h02.08.004,vbt_B1_day1,2022.2.4,Win32,59.97001499,,,,,,,,,,,,,,,,,,,0.174074102,-0.272222236,1,0,0,0.9502,3,11,89,2,1,c,images/br_c.png,images/cb_c.png,,,,,,,,,,,,,,,,,,,,,,,,,
,,,,,,00059,2023-10-17_12h02.08.004,vbt_B1_day1,2022.2.4,Win32,59.97001499,,,,,,,,,,,,,,,,,,,0.174074102,-0.272222236,1,0,0,0.3504,3,12,90,23,1,x,images/br_x.png,images/cb_x.png,,,,,,,,,,,,,,,,,,,,,,,,,
,,,,,,00059,2023-10-17_12h02.08.004,vbt_B1_day1,2022.2.4,Win32,59.97001499,,,,,,,,,,,,,,,,,,,0.174074102,-0.272222236,1,0,0,4.1993,3,13,91,10,1,k,images/br_k.png,images/cb_k.png,,,,,,,,,,,,,,,,,,,,,,,,,
,,,,,,00059,2023-10-17_12h02.08.004,vbt_B1_day1,2022.2.4,Win32,59.97001499,,,,,,,,,,,,,,,,,,,0.174074102,-0.272222236,1,0,0,1.2999,3,14,92,8,1,i,images/br_i.png,images/cb_i.png,,,,,,,,,,,,,,,,,,,,,,,,,
,,,,,,00059,2023-10-17_12h02.08.004,vbt_B1_day1,2022.2.4,Win32,59.97001499,,,,,,,,,,,,,,,,,,,0.174074102,-0.272222236,1,0,0,1.8001,3,15,93,7,1,h,images/br_h.png,images/cb_h.png,,,,,,,,,,,,,,,,,,,,,,,,,
,,,,,,00059,2023-10-17_12h02.08.004,vbt_B1_day1,2022.2.4,Win32,59.97001499,,,,,,,,,,,,,,,,,,,0.174074102,-0.272222236,1,0,0,0.1691,3,16,94,6,1,g,images/br_g.png,images/cb_g.png,,,,,,,,,,,,,,,,,,,,,,,,,
,,,,,,00059,2023-10-17_12h02.08.004,vbt_B1_day1,2022.2.4,Win32,59.97001499,,,,,,,,,,,,,,,,,,,0.174074102,-0.272222236,1,0,0,1.8996,3,17,95,14,1,o,images/br_o.png,images/cb_o.png,,,,,,,,,,,,,,,,,,,,,,,,,
,,,,,,00059,2023-10-17_12h02.08.004,vbt_B1_day1,2022.2.4,Win32,59.97001499,,,,,,,,,,,,,,,,,,,0.174074102,-0.272222236,1,0,0,0.318,3,18,96,3,1,d,images/br_d.png,images/cb_d.png,,,,,,,,,,,,,,,,,,,,,,,,,
,,,,,,00059,2023-10-17_12h02.08.004,vbt_B1_day1,2022.2.4,Win32,59.97001499,,,,,,,,,,,,,,,,,,,0.174074102,-0.272222236,1,0,0,1.6664,3,19,97,12,1,m,images/br_m.png,images/cb_m.png,,,,,,,,,,,,,,,,,,,,,,,,,
,,,,,,00059,2023-10-17_12h02.08.004,vbt_B1_day1,2022.2.4,Win32,59.97001499,,,,,,,,,,,,,,,,,,,0.174074102,-0.272222236,1,0,0,0.6833,3,20,98,1,1,b,images/br_b.png,images/cb_b.png,,,,,,,,,,,,,,,,,,,,,,,,,
,,,,,,00059,2023-10-17_12h02.08.004,vbt_B1_day1,2022.2.4,Win32,59.97001499,,,,,,,,,,,,,,,,,,,0.174074102,-0.272222236,1,0,0,1.1666,3,21,99,11,1,l,images/br_l.png,images/cb_l.png,,,,,,,,,,,,,,,,,,,,,,,,,
,,,,,,00059,2023-10-17_12h02.08.004,vbt_B1_day1,2022.2.4,Win32,59.97001499,,,,,,,,,,,,,,,,,,,0.174074102,-0.272222236,1,0,0,1.0999,3,22,100,9,1,j,images/br_j.png,images/cb_j.png,,,,,,,,,,,,,,,,,,,,,,,,,
,,,,,,00059,2023-10-17_12h02.08.004,vbt_B1_day1,2022.2.4,Win32,59.97001499,,,,,,,,,,,,,,,,,,,0.174074102,-0.272222236,1,0,0,0.4167,3,23,101,24,1,y,images/br_y.png,images/cb_y.png,,,,,,,,,,,,,,,,,,,,,,,,,
,,,,,,00059,2023-10-17_12h02.08.004,vbt_B1_day1,2022.2.4,Win32,59.97001499,,,,,,,,,,,,,,,,,,,0.174074102,-0.272222236,1,0,0,0.7838,3,24,102,0,1,a,images/br_a.png,images/cb_a.png,,,,,,,,,,,,,,,,,,,,,,,,,
,,,,,,00059,2023-10-17_12h02.08.004,vbt_B1_day1,2022.2.4,Win32,59.97001499,,,,,,,,,,,,,,,,,,,0.174074102,-0.272222236,1,0,0,0.517,3,25,103,5,1,f,images/br_f.png,images/cb_f.png,,,,,,,,,,,,,,,,,,,,,,,,,
,,,,,,00059,2023-10-17_12h02.08.004,vbt_B1_day1,2022.2.4,Win32,59.97001499,,,,,,,,,,,,,,,,,,,0.174074102,-0.272222236,1,0,0,0.5835,4,0,104,17,1,r,images/br_r.png,images/cb_r.png,,,,,,,,,,,,,,,,,,,,,,,,,
,,,,,,00059,2023-10-17_12h02.08.004,vbt_B1_day1,2022.2.4,Win32,59.97001499,,,,,,,,,,,,,,,,,,,0.174074102,-0.272222236,1,0,0,0.9664,4,1,105,2,1,c,images/br_c.png,images/cb_c.png,,,,,,,,,,,,,,,,,,,,,,,,,
,,,,,,00059,2023-10-17_12h02.08.004,vbt_B1_day1,2022.2.4,Win32,59.97001499,,,,,,,,,,,,,,,,,,,0.18240745,-0.256481524,1,0,0,0.9332,4,2,106,18,1,s,images/br_s.png,images/cb_s.png,,,,,,,,,,,,,,,,,,,,,,,,,
,,,,,,00059,2023-10-17_12h02.08.004,vbt_B1_day1,2022.2.4,Win32,59.97001499,,,,,,,,,,,,,,,,,,,0.18240745,-0.256481524,1,0,0,0.1498,4,3,107,20,1,u,images/br_u.png,images/cb_u.png,,,,,,,,,,,,,,,,,,,,,,,,,
,,,,,,00059,2023-10-17_12h02.08.004,vbt_B1_day1,2022.2.4,Win32,59.97001499,,,,,,,,,,,,,,,,,,,0.18240745,-0.256481524,1,0,0,0.85,4,4,108,6,1,g,images/br_g.png,images/cb_g.png,,,,,,,,,,,,,,,,,,,,,,,,,
,,,,,,00059,2023-10-17_12h02.08.004,vbt_B1_day1,2022.2.4,Win32,59.97001499,,,,,,,,,,,,,,,,,,,0.18240745,-0.256481524,1,0,0,0.6167,4,5,109,3,1,d,images/br_d.png,images/cb_d.png,,,,,,,,,,,,,,,,,,,,,,,,,
,,,,,,00059,2023-10-17_12h02.08.004,vbt_B1_day1,2022.2.4,Win32,59.97001499,,,,,,,,,,,,,,,,,,,0.18240745,-0.256481524,1,0,0,0.1342,4,6,110,7,1,h,images/br_h.png,images/cb_h.png,,,,,,,,,,,,,,,,,,,,,,,,,
,,,,,,00059,2023-10-17_12h02.08.004,vbt_B1_day1,2022.2.4,Win32,59.97001499,,,,,,,,,,,,,,,,,,,0.18240745,-0.256481524,1,0,0,0.9996,4,7,111,5,1,f,images/br_f.png,images/cb_f.png,,,,,,,,,,,,,,,,,,,,,,,,,
,,,,,,00059,2023-10-17_12h02.08.004,vbt_B1_day1,2022.2.4,Win32,59.97001499,,,,,,,,,,,,,,,,,,,0.18240745,-0.256481524,1,0,0,0.3435,4,8,112,25,1,z,images/br_z.png,images/cb_z.png,,,,,,,,,,,,,,,,,,,,,,,,,
,,,,,,00059,2023-10-17_12h02.08.004,vbt_B1_day1,2022.2.4,Win32,59.97001499,,,,,,,,,,,,,,,,,,,0.18240745,-0.256481524,1,0,0,0.183,4,9,113,15,1,p,images/br_p.png,images/cb_p.png,,,,,,,,,,,,,,,,,,,,,,,,,
,,,,,,00059,2023-10-17_12h02.08.004,vbt_B1_day1,2022.2.4,Win32,59.97001499,,,,,,,,,,,,,,,,,,,0.18240745,-0.256481524,1,0,0,0.2336,4,10,114,22,1,w,images/br_w.png,images/cb_w.png,,,,,,,,,,,,,,,,,,,,,,,,,
,,,,,,00059,2023-10-17_12h02.08.004,vbt_B1_day1,2022.2.4,Win32,59.97001499,,,,,,,,,,,,,,,,,,,0.18240745,-0.256481524,1,0,0,1.0345,4,11,115,10,1,k,images/br_k.png,images/cb_k.png,,,,,,,,,,,,,,,,,,,,,,,,,
,,,,,,00059,2023-10-17_12h02.08.004,vbt_B1_day1,2022.2.4,Win32,59.97001499,,,,,,,,,,,,,,,,,,,0.18240745,-0.256481524,1,0,0,0.9837,4,12,116,0,1,a,images/br_a.png,images/cb_a.png,,,,,,,,,,,,,,,,,,,,,,,,,
,,,,,,00059,2023-10-17_12h02.08.004,vbt_B1_day1,2022.2.4,Win32,59.97001499,,,,,,,,,,,,,,,,,,,0.18240745,-0.256481524,1,0,0,0.1003,4,13,117,13,1,n,images/br_n.png,images/cb_n.png,,,,,,,,,,,,,,,,,,,,,,,,,
,,,,,,00059,2023-10-17_12h02.08.004,vbt_B1_day1,2022.2.4,Win32,59.97001499,,,,,,,,,,,,,,,,,,,0.18240745,-0.256481524,1,0,0,1.2335,4,14,118,8,1,i,images/br_i.png,images/cb_i.png,,,,,,,,,,,,,,,,,,,,,,,,,
,,,,,,00059,2023-10-17_12h02.08.004,vbt_B1_day1,2022.2.4,Win32,59.97001499,,,,,,,,,,,,,,,,,,,0.18240745,-0.256481524,1,0,0,2.3164,4,15,119,16,1,q,images/br_q.png,images/cb_q.png,,,,,,,,,,,,,,,,,,,,,,,,,
,,,,,,00059,2023-10-17_12h02.08.004,vbt_B1_day1,2022.2.4,Win32,59.97001499,,,,,,,,,,,,,,,,,,,0.18240745,-0.256481524,1,0,0,0.8507,4,16,120,23,1,x,images/br_x.png,images/cb_x.png,,,,,,,,,,,,,,,,,,,,,,,,,
,,,,,,00059,2023-10-17_12h02.08.004,vbt_B1_day1,2022.2.4,Win32,59.97001499,,,,,,,,,,,,,,,,,,,0.18240745,-0.257407436,1,0,0,0.4864,4,17,121,21,1,v,images/br_v.png,images/cb_v.png,,,,,,,,,,,,,,,,,,,,,,,,,
,,,,,,00059,2023-10-17_12h02.08.004,vbt_B1_day1,2022.2.4,Win32,59.97001499,,,,,,,,,,,,,,,,,,,0.18240745,-0.257407436,1,0,0,0.3837,4,18,122,24,1,y,images/br_y.png,images/cb_y.png,,,,,,,,,,,,,,,,,,,,,,,,,
,,,,,,00059,2023-10-17_12h02.08.004,vbt_B1_day1,2022.2.4,Win32,59.97001499,,,,,,,,,,,,,,,,,,,0.181481467,-0.258333347,1,0,0,0.433,4,19,123,12,1,m,images/br_m.png,images/cb_m.png,,,,,,,,,,,,,,,,,,,,,,,,,
,,,,,,00059,2023-10-17_12h02.08.004,vbt_B1_day1,2022.2.4,Win32,59.97001499,,,,,,,,,,,,,,,,,,,0.181481467,-0.258333347,1,0,0,1.1334,4,20,124,9,1,j,images/br_j.png,images/cb_j.png,,,,,,,,,,,,,,,,,,,,,,,,,
,,,,,,00059,2023-10-17_12h02.08.004,vbt_B1_day1,2022.2.4,Win32,59.97001499,,,,,,,,,,,,,,,,,,,0.181481467,-0.258333347,1,0,0,0.5835,4,21,125,1,1,b,images/br_b.png,images/cb_b.png,,,,,,,,,,,,,,,,,,,,,,,,,
,,,,,,00059,2023-10-17_12h02.08.004,vbt_B1_day1,2022.2.4,Win32,59.97001499,,,,,,,,,,,,,,,,,,,0.181481467,-0.227777764,1,0,0,0.4169,4,22,126,14,1,o,images/br_o.png,images/cb_o.png,,,,,,,,,,,,,,,,,,,,,,,,,
,,,,,,00059,2023-10-17_12h02.08.004,vbt_B1_day1,2022.2.4,Win32,59.97001499,,,,,,,,,,,,,,,,,,,0.181481467,-0.227777764,1,0,0,1.1164,4,23,127,19,1,t,images/br_t.png,images/cb_t.png,,,,,,,,,,,,,,,,,,,,,,,,,
,,,,,,00059,2023-10-17_12h02.08.004,vbt_B1_day1,2022.2.4,Win32,59.97001499,,,,,,,,,,,,,,,,,,,0.181481467,-0.227777764,1,0,0,0.7501,4,24,128,11,1,l,images/br_l.png,images/cb_l.png,,,,,,,,,,,,,,,,,,,,,,,,,
,,,,,,00059,2023-10-17_12h02.08.004,vbt_B1_day1,2022.2.4,Win32,59.97001499,,,,,,,,,,,,,,,,,,,0.181481467,-0.227777764,1,0,0,0.7833,4,25,129,4,1,e,images/br_e.png,images/cb_e.png,,,,,,,,,,,,,,,,,,,,,,,,,
,,,,,,00059,2023-10-17_12h02.08.004,vbt_B1_day1,2022.2.4,Win32,59.97001499,,,,,,,,,,,,,,,,,,,0.181481467,-0.227777764,1,0,0,0.6603,5,0,130,18,1,s,images/br_s.png,images/cb_s.png,,,,,,,,,,,,,,,,,,,,,,,,,
,,,,,,00059,2023-10-17_12h02.08.004,vbt_B1_day1,2022.2.4,Win32,59.97001499,,,,,,,,,,,,,,,,,,,0.181481467,-0.227777764,1,0,0,0.8503,5,1,131,19,1,t,images/br_t.png,images/cb_t.png,,,,,,,,,,,,,,,,,,,,,,,,,
,,,,,,00059,2023-10-17_12h02.08.004,vbt_B1_day1,2022.2.4,Win32,59.97001499,,,,,,,,,,,,,,,,,,,0.181481467,-0.227777764,1,0,0,0.2322,5,2,132,24,1,y,images/br_y.png,images/cb_y.png,,,,,,,,,,,,,,,,,,,,,,,,,
,,,,,,00059,2023-10-17_12h02.08.004,vbt_B1_day1,2022.2.4,Win32,59.97001499,,,,,,,,,,,,,,,,,,,0.181481467,-0.227777764,1,0,0,0.8834,5,3,133,0,1,a,images/br_a.png,images/cb_a.png,,,,,,,,,,,,,,,,,,,,,,,,,
,,,,,,00059,2023-10-17_12h02.08.004,vbt_B1_day1,2022.2.4,Win32,59.97001499,,,,,,,,,,,,,,,,,,,0.181481467,-0.227777764,1,0,0,0.6334,5,4,134,25,1,z,images/br_z.png,images/cb_z.png,,,,,,,,,,,,,,,,,,,,,,,,,
,,,,,,00059,2023-10-17_12h02.08.004,vbt_B1_day1,2022.2.4,Win32,59.97001499,,,,,,,,,,,,,,,,,,,0.181481467,-0.227777764,1,0,0,0.9345,5,5,135,1,1,b,images/br_b.png,images/cb_b.png,,,,,,,,,,,,,,,,,,,,,,,,,
,,,,,,00059,2023-10-17_12h02.08.004,vbt_B1_day1,2022.2.4,Win32,59.97001499,,,,,,,,,,,,,,,,,,,0.181481467,-0.227777764,1,0,0,0.0668,5,6,136,5,1,f,images/br_f.png,images/cb_f.png,,,,,,,,,,,,,,,,,,,,,,,,,
,,,,,,00059,2023-10-17_12h02.08.004,vbt_B1_day1,2022.2.4,Win32,59.97001499,,,,,,,,,,,,,,,,,,,0.181481467,-0.227777764,1,0,0,0.7168,5,7,137,14,1,o,images/br_o.png,images/cb_o.png,,,,,,,,,,,,,,,,,,,,,,,,,
,,,,,,00059,2023-10-17_12h02.08.004,vbt_B1_day1,2022.2.4,Win32,59.97001499,,,,,,,,,,,,,,,,,,,0.181481467,-0.227777764,1,0,0,0.8835,5,8,138,7,1,h,images/br_h.png,images/cb_h.png,,,,,,,,,,,,,,,,,,,,,,,,,
,,,,,,00059,2023-10-17_12h02.08.004,vbt_B1_day1,2022.2.4,Win32,59.97001499,,,,,,,,,,,,,,,,,,,0.181481467,-0.227777764,1,0,0,0.1169,5,9,139,3,1,d,images/br_d.png,images/cb_d.png,,,,,,,,,,,,,,,,,,,,,,,,,
,,,,,,00059,2023-10-17_12h02.08.004,vbt_B1_day1,2022.2.4,Win32,59.97001499,,,,,,,,,,,,,,,,,,,0.181481467,-0.227777764,1,0,0,0.4001,5,10,140,8,1,i,images/br_i.png,images/cb_i.png,,,,,,,,,,,,,,,,,,,,,,,,,
,,,,,,00059,2023-10-17_12h02.08.004,vbt_B1_day1,2022.2.4,Win32,59.97001499,,,,,,,,,,,,,,,,,,,0.181481467,-0.227777764,1,0,0,0.0173,5,11,141,13,1,n,images/br_n.png,images/cb_n.png,,,,,,,,,,,,,,,,,,,,,,,,,
,,,,,,00059,2023-10-17_12h02.08.004,vbt_B1_day1,2022.2.4,Win32,59.97001499,,,,,,,,,,,,,,,,,,,0.181481467,-0.227777764,1,0,0,0.4334,5,12,142,16,1,q,images/br_q.png,images/cb_q.png,,,,,,,,,,,,,,,,,,,,,,,,,
,,,,,,00059,2023-10-17_12h02.08.004,vbt_B1_day1,2022.2.4,Win32,59.97001499,,,,,,,,,,,,,,,,,,,0.181481467,-0.227777764,1,0,0,1.018,5,13,143,23,1,x,images/br_x.png,images/cb_x.png,,,,,,,,,,,,,,,,,,,,,,,,,
,,,,,,00059,2023-10-17_12h02.08.004,vbt_B1_day1,2022.2.4,Win32,59.97001499,,,,,,,,,,,,,,,,,,,0.181481467,-0.227777764,1,0,0,0.6837,5,14,144,6,1,g,images/br_g.png,images/cb_g.png,,,,,,,,,,,,,,,,,,,,,,,,,
,,,,,,00059,2023-10-17_12h02.08.004,vbt_B1_day1,2022.2.4,Win32,59.97001499,,,,,,,,,,,,,,,,,,,0.181481467,-0.227777764,1,0,0,0.1172,5,15,145,11,1,l,images/br_l.png,images/cb_l.png,,,,,,,,,,,,,,,,,,,,,,,,,
,,,,,,00059,2023-10-17_12h02.08.004,vbt_B1_day1,2022.2.4,Win32,59.97001499,,,,,,,,,,,,,,,,,,,0.181481467,-0.227777764,1,0,0,1.4502,5,16,146,21,1,v,images/br_v.png,images/cb_v.png,,,,,,,,,,,,,,,,,,,,,,,,,
,,,,,,00059,2023-10-17_12h02.08.004,vbt_B1_day1,2022.2.4,Win32,59.97001499,,,,,,,,,,,,,,,,,,,0.181481467,-0.227777764,1,0,0,1.1834,5,17,147,12,1,m,images/br_m.png,images/cb_m.png,,,,,,,,,,,,,,,,,,,,,,,,,
,,,,,,00059,2023-10-17_12h02.08.004,vbt_B1_day1,2022.2.4,Win32,59.97001499,,,,,,,,,,,,,,,,,,,0.181481467,-0.227777764,1,0,0,0.2502,5,18,148,4,1,e,images/br_e.png,images/cb_e.png,,,,,,,,,,,,,,,,,,,,,,,,,
,,,,,,00059,2023-10-17_12h02.08.004,vbt_B1_day1,2022.2.4,Win32,59.97001499,,,,,,,,,,,,,,,,,,,0.181481467,-0.227777764,1,0,0,0.7667,5,19,149,15,1,p,images/br_p.png,images/cb_p.png,,,,,,,,,,,,,,,,,,,,,,,,,
,,,,,,00059,2023-10-17_12h02.08.004,vbt_B1_day1,2022.2.4,Win32,59.97001499,,,,,,,,,,,,,,,,,,,0.181481467,-0.227777764,1,0,0,0.3336,5,20,150,9,1,j,images/br_j.png,images/cb_j.png,,,,,,,,,,,,,,,,,,,,,,,,,
,,,,,,00059,2023-10-17_12h02.08.004,vbt_B1_day1,2022.2.4,Win32,59.97001499,,,,,,,,,,,,,,,,,,,0.181481467,-0.227777764,1,0,0,0.6164,5,21,151,2,1,c,images/br_c.png,images/cb_c.png,,,,,,,,,,,,,,,,,,,,,,,,,
,,,,,,00059,2023-10-17_12h02.08.004,vbt_B1_day1,2022.2.4,Win32,59.97001499,,,,,,,,,,,,,,,,,,,0.181481467,-0.227777764,1,0,0,0.3334,5,22,152,17,1,r,images/br_r.png,images/cb_r.png,,,,,,,,,,,,,,,,,,,,,,,,,
,,,,,,00059,2023-10-17_12h02.08.004,vbt_B1_day1,2022.2.4,Win32,59.97001499,,,,,,,,,,,,,,,,,,,0.181481467,-0.227777764,1,0,0,0.2834,5,23,153,20,1,u,images/br_u.png,images/cb_u.png,,,,,,,,,,,,,,,,,,,,,,,,,
,,,,,,00059,2023-10-17_12h02.08.004,vbt_B1_day1,2022.2.4,Win32,59.97001499,,,,,,,,,,,,,,,,,,,0.181481467,-0.227777764,1,0,0,0.7168,5,24,154,10,1,k,images/br_k.png,images/cb_k.png,,,,,,,,,,,,,,,,,,,,,,,,,
,,,,,,00059,2023-10-17_12h02.08.004,vbt_B1_day1,2022.2.4,Win32,59.97001499,,,,,,,,,,,,,,,,,,,0.163888931,-0.224074116,1,0,0,0.0665,5,25,155,22,1,w,images/br_w.png,images/cb_w.png,,,,,,,,,,,,,,,,,,,,,,,,,
,,,,,,00059,2023-10-17_12h02.08.004,vbt_B1_day1,2022.2.4,Win32,59.97001499,,,,,,,,,,,,,,,,,,,0.187962991,-0.196296339,1,0,0,1.1839,6,0,156,11,1,l,images/br_l.png,images/cb_l.png,,,,,,,,,,,,,,,,,,,,,,,,,
,,,,,,00059,2023-10-17_12h02.08.004,vbt_B1_day1,2022.2.4,Win32,59.97001499,,,,,,,,,,,,,,,,,,,0.112037023,-0.030555548,1,0,0,1.3,6,1,157,7,1,h,images/br_h.png,images/cb_h.png,,,,,,,,,,,,,,,,,,,,,,,,,
,,,,,,00059,2023-10-17_12h02.08.004,vbt_B1_day1,2022.2.4,Win32,59.97001499,,,,,,,,,,,,,,,,,,,0.112037023,-0.030555548,1,0,0,0.4507,6,2,158,14,1,o,images/br_o.png,images/cb_o.png,,,,,,,,,,,,,,,,,,,,,,,,,
,,,,,,00059,2023-10-17_12h02.08.004,vbt_B1_day1,2022.2.4,Win32,59.97001499,,,,,,,,,,,,,,,,,,,0.112037023,-0.030555548,1,0,0,1.3667,6,3,159,3,1,d,images/br_d.png,images/cb_d.png,,,,,,,,,,,,,,,,,,,,,,,,,
,,,,,,00059,2023-10-17_12h02.08.004,vbt_B1_day1,2022.2.4,Win32,59.97001499,,,,,,,,,,,,,,,,,,,0.241666653,-0.038888896,1,0,0,1.0335,6,4,160,10,1,k,images/br_k.png,images/cb_k.png,,,,,,,,,,,,,,,,,,,,,,,,,
,,,,,,00059,2023-10-17_12h02.08.004,vbt_B1_day1,2022.2.4,Win32,59.97001499,,,,,,,,,,,,,,,,,,,0.241666653,-0.040740755,1,0,0,0.6834,6,5,161,18,1,s,images/br_s.png,images/cb_s.png,,,,,,,,,,,,,,,,,,,,,,,,,
,,,,,,00059,2023-10-17_12h02.08.004,vbt_B1_day1,2022.2.4,Win32,59.97001499,,,,,,,,,,,,,,,,,,,0.239814829,-0.050925926,1,0,0,0.6996,6,6,162,19,1,t,images/br_t.png,images/cb_t.png,,,,,,,,,,,,,,,,,,,,,,,,,
,,,,,,00059,2023-10-17_12h02.08.004,vbt_B1_day1,2022.2.4,Win32,59.97001499,,,,,,,,,,,,,,,,,,,0.239814829,-0.050925926,1,0,0,0.9674,6,7,163,16,1,q,images/br_q.png,images/cb_q.png,,,,,,,,,,,,,,,,,,,,,,,,,
,,,,,,00059,2023-10-17_12h02.08.004,vbt_B1_day1,2022.2.4,Win32,59.97001499,,,,,,,,,,,,,,,,,,,0.239814829,-0.050925926,1,0,0,0.3171,6,8,164,25,1,z,images/br_z.png,images/cb_z.png,,,,,,,,,,,,,,,,,,,,,,,,,
,,,,,,00059,2023-10-17_12h02.08.004,vbt_B1_day1,2022.2.4,Win32,59.97001499,,,,,,,,,,,,,,,,,,,0.239814829,-0.050925926,1,0,0,1.3166,6,9,165,20,1,u,images/br_u.png,images/cb_u.png,,,,,,,,,,,,,,,,,,,,,,,,,
,,,,,,00059,2023-10-17_12h02.08.004,vbt_B1_day1,2022.2.4,Win32,59.97001499,,,,,,,,,,,,,,,,,,,0.239814829,-0.050925926,1,0,0,0.0668,6,10,166,6,1,g,images/br_g.png,images/cb_g.png,,,,,,,,,,,,,,,,,,,,,,,,,
,,,,,,00059,2023-10-17_12h02.08.004,vbt_B1_day1,2022.2.4,Win32,59.97001499,,,,,,,,,,,,,,,,,,,0.234259288,-0.072222215,1,0,0,1.9664,6,11,167,12,1,m,images/br_m.png,images/cb_m.png,,,,,,,,,,,,,,,,,,,,,,,,,
,,,,,,00059,2023-10-17_12h02.08.004,vbt_B1_day1,2022.2.4,Win32,59.97001499,,,,,,,,,,,,,,,,,,,0.234259288,-0.072222215,1,0,0,1.4332,6,12,168,23,1,x,images/br_x.png,images/cb_x.png,,,,,,,,,,,,,,,,,,,,,,,,,
,,,,,,00059,2023-10-17_12h02.08.004,vbt_B1_day1,2022.2.4,Win32,59.97001499,,,,,,,,,,,,,,,,,,,0.234259288,-0.072222215,1,0,0,0.2673,6,13,169,1,1,b,images/br_b.png,images/cb_b.png,,,,,,,,,,,,,,,,,,,,,,,,,
,,,,,,00059,2023-10-17_12h02.08.004,vbt_B1_day1,2022.2.4,Win32,59.97001499,,,,,,,,,,,,,,,,,,,0.234259288,-0.072222215,1,0,0,0.0379,6,14,170,5,1,f,images/br_f.png,images/cb_f.png,,,,,,,,,,,,,,,,,,,,,,,,,
,,,,,,00059,2023-10-17_12h02.08.004,vbt_B1_day1,2022.2.4,Win32,59.97001499,,,,,,,,,,,,,,,,,,,0.23055557,-0.090740734,1,0,0,0.8851,6,15,171,2,1,c,images/br_c.png,images/cb_c.png,,,,,,,,,,,,,,,,,,,,,,,,,
,,,,,,00059,2023-10-17_12h02.08.004,vbt_B1_day1,2022.2.4,Win32,59.97001499,,,,,,,,,,,,,,,,,,,0.23055557,-0.090740734,1,0,0,1.001,6,16,172,13,1,n,images/br_n.png,images/cb_n.png,,,,,,,,,,,,,,,,,,,,,,,,,
,,,,,,00059,2023-10-17_12h02.08.004,vbt_B1_day1,2022.2.4,Win32,59.97001499,,,,,,,,,,,,,,,,,,,0.23055557,-0.090740734,1,0,0,0.2167,6,17,173,8,1,i,images/br_i.png,images/cb_i.png,,,,,,,,,,,,,,,,,,,,,,,,,
,,,,,,00059,2023-10-17_12h02.08.004,vbt_B1_day1,2022.2.4,Win32,59.97001499,,,,,,,,,,,,,,,,,,,0.23055557,-0.090740734,1,0,0,0.2961,6,18,174,17,1,r,images/br_r.png,images/cb_r.png,,,,,,,,,,,,,,,,,,,,,,,,,
,,,,,,00059,2023-10-17_12h02.08.004,vbt_B1_day1,2022.2.4,Win32,59.97001499,,,,,,,,,,,,,,,,,,,0.23055557,-0.090740734,1,0,0,1.05,6,19,175,22,1,w,images/br_w.png,images/cb_w.png,,,,,,,,,,,,,,,,,,,,,,,,,
,,,,,,00059,2023-10-17_12h02.08.004,vbt_B1_day1,2022.2.4,Win32,59.97001499,,,,,,,,,,,,,,,,,,,0.226851852,-0.098148134,1,0,0,1.017,6,20,176,15,1,p,images/br_p.png,images/cb_p.png,,,,,,,,,,,,,,,,,,,,,,,,,
,,,,,,00059,2023-10-17_12h02.08.004,vbt_B1_day1,2022.2.4,Win32,59.97001499,,,,,,,,,,,,,,,,,,,0.226851852,-0.098148134,1,0,0,0.2998,6,21,177,0,1,a,images/br_a.png,images/cb_a.png,,,,,,,,,,,,,,,,,,,,,,,,,
,,,,,,00059,2023-10-17_12h02.08.004,vbt_B1_day1,2022.2.4,Win32,59.97001499,,,,,,,,,,,,,,,,,,,0.226851852,-0.098148134,1,0,0,0.3328,6,22,178,4,1,e,images/br_e.png,images/cb_e.png,,,,,,,,,,,,,,,,,,,,,,,,,
,,,,,,00059,2023-10-17_12h02.08.004,vbt_B1_day1,2022.2.4,Win32,59.97001499,,,,,,,,,,,,,,,,,,,0.226851852,-0.098148134,1,0,0,0.1999,6,23,179,21,1,v,images/br_v.png,images/cb_v.png,,,,,,,,,,,,,,,,,,,,,,,,,
,,,,,,00059,2023-10-17_12h02.08.004,vbt_B1_day1,2022.2.4,Win32,59.97001499,,,,,,,,,,,,,,,,,,,0.226851852,-0.098148134,1,0,0,0.9331,6,24,180,24,1,y,images/br_y.png,images/cb_y.png,,,,,,,,,,,,,,,,,,,,,,,,,
,,,,,,00059,2023-10-17_12h02.08.004,vbt_B1_day1,2022.2.4,Win32,59.97001499,,,,,,,,,,,,,,,,,,,0.226851852,-0.098148134,1,0,0,0.7334,6,25,181,9,1,j,images/br_j.png,images/cb_j.png,,,,,,,,,,,,,,,,,,,,,,,,,
,,,,,,00059,2023-10-17_12h02.08.004,vbt_B1_day1,2022.2.4,Win32,59.97001499,,,,,,,,,,,,,,,,,,,,,,,,,,,,,,,,,0.262962977,-0.163888931,1,0,0,,,,,,,,,,,,,,,,,,,,
,,,,,,00059,2023-10-17_12h02.08.004,vbt_B1_day1,2022.2.4,Win32,59.97001499,,,,,,,,,,,,,,,,,,,,,,,,,,,,,,,,,,,,,,0.262962977,-0.163888931,1,0,0,,,,,,,,,,,,,,,
,,,,,,00059,2023-10-17_12h02.08.004,vbt_B1_day1,2022.2.4,Win32,59.97001499,,,,,,,,,,,,,,,,,,,,,,,,,,,,,,,,,,,,,,,,,,,0.262962977,-0.163888931,1,0,0,muziek,muziek,0,0,0,10,1,muziek,images/br_muziek.png,images/cb_muziek.png
,,,,,,00059,2023-10-17_12h02.08.004,vbt_B1_day1,2022.2.4,Win32,59.97001499,,,,,,,,,,,,,,,,,,,,,,,,,,,,,,,,,,,,,,,,,,,0.262962977,-0.163888931,1,0,0,lochte.,lochte.,0,1,1,34,1,lochten,images/br_lochten.png,images/cb_lochten.png
,,,,,,00059,2023-10-17_12h02.08.004,vbt_B1_day1,2022.2.4,Win32,59.97001499,,,,,,,,,,,,,,,,,,,,,,,,,,,,,,,,,,,,,,,,,,,0.262962977,-0.163888931,1,0,0,liefde,liefde,0,2,2,51,1,liefde,images/br_liefde.png,images/cb_liefde.png
,,,,,,00059,2023-10-17_12h02.08.004,vbt_B1_day1,2022.2.4,Win32,59.97001499,,,,,,,,,,,,,,,,,,,,,,,,,,,,,,,,,,,,,,,,,,,0.262962977,-0.163888931,1,0,0,knoe,knoe,0,3,3,22,1,knoe,images/br_knoe.png,images/cb_knoe.png
,,,,,,00059,2023-10-17_12h02.08.004,vbt_B1_day1,2022.2.4,Win32,59.97001499,,,,,,,,,,,,,,,,,,,,,,,,,,,,,,,,,,,,,,,,,,,0.262962977,-0.163888931,1,0,0,voorrem.,voorrem.,0,4,4,39,1,voorreur,images/br_voorreur.png,images/cb_voorreur.png
,,,,,,00059,2023-10-17_12h02.08.004,vbt_B1_day1,2022.2.4,Win32,59.97001499,,,,,,,,,,,,,,,,,,,,,,,,,,,,,,,,,,,,,,,,,,,0.262962977,-0.163888931,1,0,0,bebrip,bebrip,0,5,5,28,1,bebrip,images/br_bebrip.png,images/cb_bebrip.png
,,,,,,00059,2023-10-17_12h02.08.004,vbt_B1_day1,2022.2.4,Win32,59.97001499,,,,,,,,,,,,,,,,,,,,,,,,,,,,,,,,,,,,,,,,,,,0.262962977,-0.163888931,1,0,0,setuk,setuk,0,6,6,42,1,stuk,images/br_stuk.png,images/cb_stuk.png
,,,,,,00059,2023-10-17_12h02.08.004,vbt_B1_day1,2022.2.4,Win32,59.97001499,,,,,,,,,,,,,,,,,,,,,,,,,,,,,,,,,,,,,,,,,,,0.262962977,-0.163888931,1,0,0,mand,mand,0,7,7,3,1,mand,images/br_mand.png,images/cb_mand.png
,,,,,,00059,2023-10-17_12h02.08.004,vbt_B1_day1,2022.2.4,Win32,59.97001499,,,,,,,,,,,,,,,,,,,,,,,,,,,,,,,,,,,,,,,,,,,0.262962977,-0.163888931,1,0,0,vervad.,vervad.,0,8,8,36,1,vervaden,images/br_vervaden.png,images/cb_vervaden.png
,,,,,,00059,2023-10-17_12h02.08.004,vbt_B1_day1,2022.2.4,Win32,59.97001499,,,,,,,,,,,,,,,,,,,,,,,,,,,,,,,,,,,,,,,,,,,0.262962977,-0.163888931,1,0,0,zaal,zaal,0,9,9,1,1,zaal,images/br_zaal.png,images/cb_zaal.png
,,,,,,00059,2023-10-17_12h02.08.004,vbt_B1_day1,2022.2.4,Win32,59.97001499,,,,,,,,,,,,,,,,,,,,,,,,,,,,,,,,,,,,,,,,,,,0.262962977,-0.163888931,1,0,0,dred,dred,0,10,10,21,1,dred,images/br_dred.png,images/cb_dred.png
,,,,,,00059,2023-10-17_12h02.08.004,vbt_B1_day1,2022.2.4,Win32,59.97001499,,,,,,,,,,,,,,,,,,,,,,,,,,,,,,,,,,,,,,,,,,,0.262962977,-0.163888931,1,0,0,booi,booi,0,11,11,23,1,booi,images/br_booi.png,images/cb_booi.png
,,,,,,00059,2023-10-17_12h02.08.004,vbt_B1_day1,2022.2.4,Win32,59.97001499,,,,,,,,,,,,,,,,,,,,,,,,,,,,,,,,,,,,,,,,,,,0.262962977,-0.163888931,1,0,0,zuipl..,zuipl..,0,12,12,52,1,zuiplap,images/br_zuiplap.png,images/cb_zuiplap.png
,,,,,,00059,2023-10-17_12h02.08.004,vbt_B1_day1,2022.2.4,Win32,59.97001499,,,,,,,,,,,,,,,,,,,,,,,,,,,,,,,,,,,,,,,,,,,0.262962977,-0.163888931,1,0,0,lava,lava,0,13,13,43,1,lava,images/br_lava.png,images/cb_lava.png
,,,,,,00059,2023-10-17_12h02.08.004,vbt_B1_day1,2022.2.4,Win32,59.97001499,,,,,,,,,,,,,,,,,,,,,,,,,,,,,,,,,,,,,,,,,,,0.262962977,-0.163888931,1,0,0,schep,schep,0,14,14,4,1,schep,images/br_schep.png,images/cb_schep.png
,,,,,,00059,2023-10-17_12h02.08.004,vbt_B1_day1,2022.2.4,Win32,59.97001499,,,,,,,,,,,,,,,,,,,,,,,,,,,,,,,,,,,,,,,,,,,0.262962977,-0.163888931,1,0,0,dubbel,dubbel,0,15,15,9,1,dubbel,images/br_dubbel.png,images/cb_dubbel.png
,,,,,,00059,2023-10-17_12h02.08.004,vbt_B1_day1,2022.2.4,Win32,59.97001499,,,,,,,,,,,,,,,,,,,,,,,,,,,,,,,,,,,,,,,,,,,0.262962977,-0.163888931,1,0,0,klimmen,klimmen,0,16,16,12,1,klimmen,images/br_klimmen.png,images/cb_klimmen.png
,,,,,,00059,2023-10-17_12h02.08.004,vbt_B1_day1,2022.2.4,Win32,59.97001499,,,,,,,,,,,,,,,,,,,,,,,,,,,,,,,,,,,,,,,,,,,0.262962977,-0.163888931,1,0,0,lezen,lezen,0,17,17,46,1,lezen,images/br_lezen.png,images/cb_lezen.png
,,,,,,00059,2023-10-17_12h02.08.004,vbt_B1_day1,2022.2.4,Win32,59.97001499,,,,,,,,,,,,,,,,,,,,,,,,,,,,,,,,,,,,,,,,,,,0.262962977,-0.163888931,1,0,0,stuiken,stuiken,0,18,18,35,1,stuikem,images/br_stuikem.png,images/cb_stuikem.png
,,,,,,00059,2023-10-17_12h02.08.004,vbt_B1_day1,2022.2.4,Win32,59.97001499,,,,,,,,,,,,,,,,,,,,,,,,,,,,,,,,,,,,,,,,,,,0.262962977,-0.163888931,1,0,0,,,0,19,19,18,1,uitdelen,images/br_uitdelen.png,images/cb_uitdelen.png
,,,,,,00059,2023-10-17_12h02.08.004,vbt_B1_day1,2022.2.4,Win32,59.97001499,,,,,,,,,,,,,,,,,,,,,,,,,,,,,,,,,,,,,,,,,,,0.262962977,-0.163888931,1,0,0,stamen,stamen,0,20,20,31,1,stamen,images/br_stamen.png,images/cb_stamen.png
,,,,,,00059,2023-10-17_12h02.08.004,vbt_B1_day1,2022.2.4,Win32,59.97001499,,,,,,,,,,,,,,,,,,,,,,,,,,,,,,,,,,,,,,,,,,,0.262962977,-0.163888931,1,0,0,spanz...,spanz...,0,21,21,37,1,spanzing,images/br_spanzing.png,images/cb_spanzing.png
,,,,,,00059,2023-10-17_12h02.08.004,vbt_B1_day1,2022.2.4,Win32,59.97001499,,,,,,,,,,,,,,,,,,,,,,,,,,,,,,,,,,,,,,,,,,,0.262962977,-0.164814843,1,0,0,toeni..,toeni..,0,22,22,56,1,toezicht,images/br_toezicht.png,images/cb_toezicht.png
,,,,,,00059,2023-10-17_12h02.08.004,vbt_B1_day1,2022.2.4,Win32,59.97001499,,,,,,,,,,,,,,,,,,,,,,,,,,,,,,,,,,,,,,,,,,,0.262962977,-0.164814843,1,0,0,schielen,schielen,0,23,23,38,1,schielen,images/br_schielen.png,images/cb_schielen.png
,,,,,,00059,2023-10-17_12h02.08.004,vbt_B1_day1,2022.2.4,Win32,59.97001499,,,,,,,,,,,,,,,,,,,,,,,,,,,,,,,,,,,,,,,,,,,0.262962977,-0.164814843,1,0,0,prort,prort,0,24,24,27,1,prort,images/br_prort.png,images/cb_prort.png
,,,,,,00059,2023-10-17_12h02.08.004,vbt_B1_day1,2022.2.4,Win32,59.97001499,,,,,,,,,,,,,,,,,,,,,,,,,,,,,,,,,,,,,,,,,,,0.262962977,-0.164814843,1,0,0,vedf...,vedf...,0,25,25,54,1,vijftig,images/br_vijftig.png,images/cb_vijftig.png
,,,,,,00059,2023-10-17_12h02.08.004,vbt_B1_day1,2022.2.4,Win32,59.97001499,,,,,,,,,,,,,,,,,,,,,,,,,,,,,,,,,,,,,,,,,,,0.265740783,-0.167592578,1,0,0,slak,slak,0,26,26,0,1,slak,images/br_slak.png,images/cb_slak.png
,,,,,,00059,2023-10-17_12h02.08.004,vbt_B1_day1,2022.2.4,Win32,59.97001499,,,,,,,,,,,,,,,,,,,,,,,,,,,,,,,,,,,,,,,,,,,0.265740783,-0.167592578,1,0,0,opplan,opplan,0,27,27,32,1,opplaan,images/br_opplaan.png,images/cb_opplaan.png
,,,,,,00059,2023-10-17_12h02.08.004,vbt_B1_day1,2022.2.4,Win32,59.97001499,,,,,,,,,,,,,,,,,,,,,,,,,,,,,,,,,,,,,,,,,,,0.265740783,-0.167592578,1,0,0,dief,dief,0,28,28,40,1,dief,images/br_dief.png,images/cb_dief.png
,,,,,,00059,2023-10-17_12h02.08.004,vbt_B1_day1,2022.2.4,Win32,59.97001499,,,,,,,,,,,,,,,,,,,,,,,,,,,,,,,,,,,,,,,,,,,0.265740783,-0.168518561,1,0,0,hierv..,hierv..,0,29,29,15,1,hiervan,images/br_hiervan.png,images/cb_hiervan.png
,,,,,,00059,2023-10-17_12h02.08.004,vbt_B1_day1,2022.2.4,Win32,59.97001499,,,,,,,,,,,,,,,,,,,,,,,,,,,,,,,,,,,,,,,,,,,0.265740783,-0.169444473,1,0,0,jaar,jaar,0,30,30,2,1,jaar,images/br_jaar.png,images/cb_jaar.png
,,,,,,00059,2023-10-17_12h02.08.004,vbt_B1_day1,2022.2.4,Win32,59.97001499,,,,,,,,,,,,,,,,,,,,,,,,,,,,,,,,,,,,,,,,,,,0.265740783,-0.169444473,1,0,0,flullen,flullen,0,31,31,33,1,flullen,images/br_flullen.png,images/cb_flullen.png
,,,,,,00059,2023-10-17_12h02.08.004,vbt_B1_day1,2022.2.4,Win32,59.97001499,,,,,,,,,,,,,,,,,,,,,,,,,,,,,,,,,,,,,,,,,,,0.265740783,-0.169444473,1,0,0,liegen,liegen,0,32,32,50,1,liegen,images/br_liegen.png,images/cb_liegen.png
,,,,,,00059,2023-10-17_12h02.08.004,vbt_B1_day1,2022.2.4,Win32,59.97001499,,,,,,,,,,,,,,,,,,,,,,,,,,,,,,,,,,,,,,,,,,,0.265740783,-0.169444473,1,0,0,reedj.,reedj.,0,33,33,30,1,reedje,images/br_reedje.png,images/cb_reedje.png
,,,,,,00059,2023-10-17_12h02.08.004,vbt_B1_day1,2022.2.4,Win32,59.97001499,,,,,,,,,,,,,,,,,,,,,,,,,,,,,,,,,,,,,,,,,,,0.265740783,-0.169444473,1,0,0,daarheen,daarheen,0,34,34,16,1,daarheen,images/br_daarheen.png,images/cb_daarheen.png
,,,,,,00059,2023-10-17_12h02.08.004,vbt_B1_day1,2022.2.4,Win32,59.97001499,,,,,,,,,,,,,,,,,,,,,,,,,,,,,,,,,,,,,,,,,,,0.265740783,-0.169444473,1,0,0,hoog,hoog,0,35,35,41,1,hoog,images/br_hoog.png,images/cb_hoog.png
,,,,,,00059,2023-10-17_12h02.08.004,vbt_B1_day1,2022.2.4,Win32,59.97001499,,,,,,,,,,,,,,,,,,,,,,,,,,,,,,,,,,,,,,,,,,,0.265740783,-0.176851838,1,0,0,meenin.,meenin.,0,36,36,57,1,meenemen,images/br_meenemen.png,images/cb_meenemen.png
,,,,,,00059,2023-10-17_12h02.08.004,vbt_B1_day1,2022.2.4,Win32,59.97001499,,,,,,,,,,,,,,,,,,,,,,,,,,,,,,,,,,,,,,,,,,,0.265740783,-0.175000014,1,0,0,fict..,fict..,0,37,37,48,1,fictie,images/br_fictie.png,images/cb_fictie.png
,,,,,,00059,2023-10-17_12h02.08.004,vbt_B1_day1,2022.2.4,Win32,59.97001499,,,,,,,,,,,,,,,,,,,,,,,,,,,,,,,,,,,,,,,,,,,0.265740783,-0.175000014,1,0,0,loods,loods,0,38,38,47,1,loods,images/br_loods.png,images/cb_loods.png
,,,,,,00059,2023-10-17_12h02.08.004,vbt_B1_day1,2022.2.4,Win32,59.97001499,,,,,,,,,,,,,,,,,,,,,,,,,,,,,,,,,,,,,,,,,,,0.265740783,-0.175000014,1,0,0,tekenen,tekenen,0,39,39,55,1,tekenen,images/br_tekenen.png,images/cb_tekenen.png
,,,,,,00059,2023-10-17_12h02.08.004,vbt_B1_day1,2022.2.4,Win32,59.97001499,,,,,,,,,,,,,,,,,,,,,,,,,,,,,,,,,,,,,,,,,,,0.265740783,-0.175000014,1,0,0,twijh..,twijh..,0,40,40,13,1,twijfel,images/br_twijfel.png,images/cb_twijfel.png
,,,,,,00059,2023-10-17_12h02.08.004,vbt_B1_day1,2022.2.4,Win32,59.97001499,,,,,,,,,,,,,,,,,,,,,,,,,,,,,,,,,,,,,,,,,,,0.265740783,-0.175000014,1,0,0,waarvan,waarvan,0,41,41,14,1,waarvan,images/br_waarvan.png,images/cb_waarvan.png
,,,,,,00059,2023-10-17_12h02.08.004,vbt_B1_day1,2022.2.4,Win32,59.97001499,,,,,,,,,,,,,,,,,,,,,,,,,,,,,,,,,,,,,,,,,,,0.265740783,-0.175000014,1,0,0,mening,mening,0,42,42,11,1,mening,images/br_mening.png,images/cb_mening.png
,,,,,,00059,2023-10-17_12h02.08.004,vbt_B1_day1,2022.2.4,Win32,59.97001499,,,,,,,,,,,,,,,,,,,,,,,,,,,,,,,,,,,,,,,,,,,0.265740783,-0.175000014,1,0,0,bleek,bleek,0,43,43,6,1,bleek,images/br_bleek.png,images/cb_bleek.png
,,,,,,00059,2023-10-17_12h02.08.004,vbt_B1_day1,2022.2.4,Win32,59.97001499,,,,,,,,,,,,,,,,,,,,,,,,,,,,,,,,,,,,,,,,,,,0.265740783,-0.175000014,1,0,0,schui...,schui...,0,44,44,19,1,schuilen,images/br_schuilen.png,images/cb_schuilen.png
,,,,,,00059,2023-10-17_12h02.08.004,vbt_B1_day1,2022.2.4,Win32,59.97001499,,,,,,,,,,,,,,,,,,,,,,,,,,,,,,,,,,,,,,,,,,,0.265740783,-0.175000014,1,0,0,voorkeur,voorkeur,0,45,45,58,1,voorkeur,images/br_voorkeur.png,images/cb_voorkeur.png
,,,,,,00059,2023-10-17_12h02.08.004,vbt_B1_day1,2022.2.4,Win32,59.97001499,,,,,,,,,,,,,,,,,,,,,,,,,,,,,,,,,,,,,,,,,,,0.265740783,-0.176851838,1,0,0,brijf,brijf,0,46,46,25,1,brijk,images/br_brijk.png,images/cb_brijk.png
,,,,,,00059,2023-10-17_12h02.08.004,vbt_B1_day1,2022.2.4,Win32,59.97001499,,,,,,,,,,,,,,,,,,,,,,,,,,,,,,,,,,,,,,,,,,,0.266666695,-0.181481467,1,0,0,opvatt..,opvatt..,0,47,47,59,1,opvatten,images/br_opvatten.png,images/cb_opvatten.png
,,,,,,00059,2023-10-17_12h02.08.004,vbt_B1_day1,2022.2.4,Win32,59.97001499,,,,,,,,,,,,,,,,,,,,,,,,,,,,,,,,,,,,,,,,,,,0.267592607,-0.18240745,1,0,0,opslaan,opslaan,0,48,48,53,1,opslaan,images/br_opslaan.png,images/cb_opslaan.png
,,,,,,00059,2023-10-17_12h02.08.004,vbt_B1_day1,2022.2.4,Win32,59.97001499,,,,,,,,,,,,,,,,,,,,,,,,,,,,,,,,,,,,,,,,,,,0.268518519,-0.18240745,1,0,0,tars,tars,0,49,49,20,1,tars,images/br_tars.png,images/cb_tars.png
,,,,,,00059,2023-10-17_12h02.08.004,vbt_B1_day1,2022.2.4,Win32,59.97001499,,,,,,,,,,,,,,,,,,,,,,,,,,,,,,,,,,,,,,,,,,,0.268518519,-0.18240745,1,0,0,kanjer,kanjer,0,50,50,8,1,kanjer,images/br_kanjer.png,images/cb_kanjer.png
,,,,,,00059,2023-10-17_12h02.08.004,vbt_B1_day1,2022.2.4,Win32,59.97001499,,,,,,,,,,,,,,,,,,,,,,,,,,,,,,,,,,,,,,,,,,,0.26944443,-0.181481467,1,0,0,rezer,rezer,0,51,51,24,1,rezer,images/br_rezer.png,images/cb_rezer.png
,,,,,,00059,2023-10-17_12h02.08.004,vbt_B1_day1,2022.2.4,Win32,59.97001499,,,,,,,,,,,,,,,,,,,,,,,,,,,,,,,,,,,,,,,,,,,0.26944443,-0.180555556,1,0,0,valop,valop,0,52,52,26,1,valop,images/br_valop.png,images/cb_valop.png
,,,,,,00059,2023-10-17_12h02.08.004,vbt_B1_day1,2022.2.4,Win32,59.97001499,,,,,,,,,,,,,,,,,,,,,,,,,,,,,,,,,,,,,,,,,,,0.26944443,-0.181481467,1,0,0,attent.,attent.,0,53,53,17,1,attentie,images/br_attentie.png,images/cb_attentie.png
,,,,,,00059,2023-10-17_12h02.08.004,vbt_B1_day1,2022.2.4,Win32,59.97001499,,,,,,,,,,,,,,,,,,,,,,,,,,,,,,,,,,,,,,,,,,,0.268518519,-0.181481467,1,0,0,hemel,hemel,0,54,54,45,1,hemel,images/br_hemel.png,images/cb_hemel.png
,,,,,,00059,2023-10-17_12h02.08.004,vbt_B1_day1,2022.2.4,Win32,59.97001499,,,,,,,,,,,,,,,,,,,,,,,,,,,,,,,,,,,,,,,,,,,0.268518519,-0.181481467,1,0,0,vizier,vizier,0,55,55,49,1,vizier,images/br_vizier.png,images/cb_vizier.png
,,,,,,00059,2023-10-17_12h02.08.004,vbt_B1_day1,2022.2.4,Win32,59.97001499,,,,,,,,,,,,,,,,,,,,,,,,,,,,,,,,,,,,,,,,,,,0.268518519,-0.181481467,1,0,0,maken,maken,0,56,56,5,1,maken,images/br_maken.png,images/cb_maken.png
,,,,,,00059,2023-10-17_12h02.08.004,vbt_B1_day1,2022.2.4,Win32,59.97001499,,,,,,,,,,,,,,,,,,,,,,,,,,,,,,,,,,,,,,,,,,,0.267592607,-0.180555556,1,0,0,klauw,klauw,0,57,57,7,1,klauw,images/br_klauw.png,images/cb_klauw.png
,,,,,,00059,2023-10-17_12h02.08.004,vbt_B1_day1,2022.2.4,Win32,59.97001499,,,,,,,,,,,,,,,,,,,,,,,,,,,,,,,,,,,,,,,,,,,0.267592607,-0.180555556,1,0,0,genend,genend,0,58,58,29,1,genond,images/br_genond.png,images/cb_genond.png
,,,,,,00059,2023-10-17_12h02.08.004,vbt_B1_day1,2022.2.4,Win32,59.97001499,,,,,,,,,,,,,,,,,,,,,,,,,,,,,,,,,,,,,,,,,,,0.266666695,-0.180555556,1,0,0,wijz.,wijz.,0,59,59,44,1,wijze,images/br_wijze.png,images/cb_wijze.png
,,,,,,00059,2023-10-17_12h02.08.004,vbt_B1_day1,2022.2.4,Win32,59.97001499,,,,,,,,,,,,,,,,,,,,,,,,,,,,,,,,,,,,,,,,,,,,,,,,,,,,,,,,,
