welcome_mouse.x,welcome_mouse.y,welcome_mouse.leftButton,welcome_mouse.midButton,welcome_mouse.rightButton,welcome_mouse.time,"ID",date,expName,psychopyVersion,OS,frameRate,mouse_2.x,mouse_2.y,mouse_2.leftButton,mouse_2.midButton,mouse_2.rightButton,mouse_2.time,mouse_3.x,mouse_3.y,mouse_3.leftButton,mouse_3.midButton,mouse_3.rightButton,mouse_3.time,train_mouse.x,train_mouse.y,train_mouse.leftButton,train_mouse.midButton,train_mouse.rightButton,train_mouse.time,braille_mouse.x,braille_mouse.y,braille_mouse.leftButton,braille_mouse.midButton,braille_mouse.rightButton,braille_mouse.time,trials.thisRepN,trials.thisTrialN,trials.thisN,trials.thisIndex,trials.ran,nlLet,brLet,cbLet,mouse.x,mouse.y,mouse.leftButton,mouse.midButton,mouse.rightButton,testInstr_mouse.x,testInstr_mouse.y,testInstr_mouse.leftButton,testInstr_mouse.midButton,testInstr_mouse.rightButton,test_mouse.x,test_mouse.y,test_mouse.leftButton,test_mouse.midButton,test_mouse.rightButton,test_response.text,testResp,test_loop.thisRepN,test_loop.thisTrialN,test_loop.thisN,test_loop.thisIndex,test_loop.ran,nlWrd,brWrd,cbWrd
-0.01944443,-0.134259259,1,0,0,2.5096,00062,2023-10-10_16h54.02.243,vbt_B1_day1,2022.2.4,Win32,59.61962678,,,,,,,,,,,,,,,,,,,,,,,,,,,,,,,,,,,,,,,,,,,,,,,,,,,,,,,,,
,,,,,,00062,2023-10-10_16h54.02.243,vbt_B1_day1,2022.2.4,Win32,59.61962678,-0.01944443,-0.134259259,1,0,0,6.927,,,,,,,,,,,,,,,,,,,,,,,,,,,,,,,,,,,,,,,,,,,,,,,,,,,
,,,,,,00062,2023-10-10_16h54.02.243,vbt_B1_day1,2022.2.4,Win32,59.61962678,,,,,,,-0.01944443,-0.134259259,1,0,0,7.0345,,,,,,,,,,,,,,,,,,,,,,,,,,,,,,,,,,,,,,,,,,,,,
,,,,,,00062,2023-10-10_16h54.02.243,vbt_B1_day1,2022.2.4,Win32,59.61962678,,,,,,,,,,,,,-0.01944443,-0.134259259,1,0,0,32.1718,,,,,,,,,,,,,,,,,,,,,,,,,,,,,,,,,,,,,,,
,,,,,,00062,2023-10-10_16h54.02.243,vbt_B1_day1,2022.2.4,Win32,59.61962678,,,,,,,,,,,,,,,,,,,0.19722225,-0.075000021,1,0,0,5.4528,0,0,0,1,1,b,images/br_b.png,images/cb_b.png,,,,,,,,,,,,,,,,,,,,,,,,,
,,,,,,00062,2023-10-10_16h54.02.243,vbt_B1_day1,2022.2.4,Win32,59.61962678,,,,,,,,,,,,,,,,,,,0.19722225,-0.075000021,1,0,0,4.152,0,1,1,13,1,n,images/br_n.png,images/cb_n.png,,,,,,,,,,,,,,,,,,,,,,,,,
,,,,,,00062,2023-10-10_16h54.02.243,vbt_B1_day1,2022.2.4,Win32,59.61962678,,,,,,,,,,,,,,,,,,,0.19722225,-0.075000021,1,0,0,4.4352,0,2,2,16,1,q,images/br_q.png,images/cb_q.png,,,,,,,,,,,,,,,,,,,,,,,,,
,,,,,,00062,2023-10-10_16h54.02.243,vbt_B1_day1,2022.2.4,Win32,59.61962678,,,,,,,,,,,,,,,,,,,0.265740783,0.013888889,1,0,0,7.2362,0,3,3,21,1,v,images/br_v.png,images/cb_v.png,,,,,,,,,,,,,,,,,,,,,,,,,
,,,,,,00062,2023-10-10_16h54.02.243,vbt_B1_day1,2022.2.4,Win32,59.61962678,,,,,,,,,,,,,,,,,,,0.181481467,-0.112963005,1,0,0,2.6516,0,4,4,20,1,u,images/br_u.png,images/cb_u.png,,,,,,,,,,,,,,,,,,,,,,,,,
,,,,,,00062,2023-10-10_16h54.02.243,vbt_B1_day1,2022.2.4,Win32,59.61962678,,,,,,,,,,,,,,,,,,,0.181481467,-0.112963005,1,0,0,1.1004,0,5,5,8,1,i,images/br_i.png,images/cb_i.png,,,,,,,,,,,,,,,,,,,,,,,,,
,,,,,,00062,2023-10-10_16h54.02.243,vbt_B1_day1,2022.2.4,Win32,59.61962678,,,,,,,,,,,,,,,,,,,0.181481467,-0.112963005,1,0,0,5.3853,0,6,6,9,1,j,images/br_j.png,images/cb_j.png,,,,,,,,,,,,,,,,,,,,,,,,,
,,,,,,00062,2023-10-10_16h54.02.243,vbt_B1_day1,2022.2.4,Win32,59.61962678,,,,,,,,,,,,,,,,,,,0.181481467,-0.112963005,1,0,0,9.7368,0,7,7,24,1,y,images/br_y.png,images/cb_y.png,,,,,,,,,,,,,,,,,,,,,,,,,
,,,,,,00062,2023-10-10_16h54.02.243,vbt_B1_day1,2022.2.4,Win32,59.61962678,,,,,,,,,,,,,,,,,,,0.181481467,-0.112963005,1,0,0,2.9338,0,8,8,2,1,c,images/br_c.png,images/cb_c.png,,,,,,,,,,,,,,,,,,,,,,,,,
,,,,,,00062,2023-10-10_16h54.02.243,vbt_B1_day1,2022.2.4,Win32,59.61962678,,,,,,,,,,,,,,,,,,,0.181481467,-0.112963005,1,0,0,5.1519,0,9,9,22,1,w,images/br_w.png,images/cb_w.png,,,,,,,,,,,,,,,,,,,,,,,,,
,,,,,,00062,2023-10-10_16h54.02.243,vbt_B1_day1,2022.2.4,Win32,59.61962678,,,,,,,,,,,,,,,,,,,0.181481467,-0.112963005,1,0,0,5.4365,0,10,10,25,1,z,images/br_z.png,images/cb_z.png,,,,,,,,,,,,,,,,,,,,,,,,,
,,,,,,00062,2023-10-10_16h54.02.243,vbt_B1_day1,2022.2.4,Win32,59.61962678,,,,,,,,,,,,,,,,,,,0.181481467,-0.112963005,1,0,0,2.9675,0,11,11,23,1,x,images/br_x.png,images/cb_x.png,,,,,,,,,,,,,,,,,,,,,,,,,
,,,,,,00062,2023-10-10_16h54.02.243,vbt_B1_day1,2022.2.4,Win32,59.61962678,,,,,,,,,,,,,,,,,,,0.181481467,-0.112963005,1,0,0,4.4197,0,12,12,6,1,g,images/br_g.png,images/cb_g.png,,,,,,,,,,,,,,,,,,,,,,,,,
,,,,,,00062,2023-10-10_16h54.02.243,vbt_B1_day1,2022.2.4,Win32,59.61962678,,,,,,,,,,,,,,,,,,,0.181481467,-0.112963005,1,0,0,3.251,0,13,13,19,1,t,images/br_t.png,images/cb_t.png,,,,,,,,,,,,,,,,,,,,,,,,,
,,,,,,00062,2023-10-10_16h54.02.243,vbt_B1_day1,2022.2.4,Win32,59.61962678,,,,,,,,,,,,,,,,,,,0.181481467,-0.112963005,1,0,0,4.7515,0,14,14,3,1,d,images/br_d.png,images/cb_d.png,,,,,,,,,,,,,,,,,,,,,,,,,
,,,,,,00062,2023-10-10_16h54.02.243,vbt_B1_day1,2022.2.4,Win32,59.61962678,,,,,,,,,,,,,,,,,,,0.181481467,-0.112963005,1,0,0,5.3185,0,15,15,14,1,o,images/br_o.png,images/cb_o.png,,,,,,,,,,,,,,,,,,,,,,,,,
,,,,,,00062,2023-10-10_16h54.02.243,vbt_B1_day1,2022.2.4,Win32,59.61962678,,,,,,,,,,,,,,,,,,,0.181481467,-0.112963005,1,0,0,7.2363,0,16,16,18,1,s,images/br_s.png,images/cb_s.png,,,,,,,,,,,,,,,,,,,,,,,,,
,,,,,,00062,2023-10-10_16h54.02.243,vbt_B1_day1,2022.2.4,Win32,59.61962678,,,,,,,,,,,,,,,,,,,0.181481467,-0.112963005,1,0,0,3.5513,0,17,17,11,1,l,images/br_l.png,images/cb_l.png,,,,,,,,,,,,,,,,,,,,,,,,,
,,,,,,00062,2023-10-10_16h54.02.243,vbt_B1_day1,2022.2.4,Win32,59.61962678,,,,,,,,,,,,,,,,,,,0.181481467,-0.112963005,1,0,0,9.6862,0,18,18,12,1,m,images/br_m.png,images/cb_m.png,,,,,,,,,,,,,,,,,,,,,,,,,
,,,,,,00062,2023-10-10_16h54.02.243,vbt_B1_day1,2022.2.4,Win32,59.61962678,,,,,,,,,,,,,,,,,,,0.181481467,-0.112963005,1,0,0,4.6517,0,19,19,17,1,r,images/br_r.png,images/cb_r.png,,,,,,,,,,,,,,,,,,,,,,,,,
,,,,,,00062,2023-10-10_16h54.02.243,vbt_B1_day1,2022.2.4,Win32,59.61962678,,,,,,,,,,,,,,,,,,,0.187037079,-0.112963005,1,0,0,8.4364,0,20,20,7,1,h,images/br_h.png,images/cb_h.png,,,,,,,,,,,,,,,,,,,,,,,,,
,,,,,,00062,2023-10-10_16h54.02.243,vbt_B1_day1,2022.2.4,Win32,59.61962678,,,,,,,,,,,,,,,,,,,0.187037079,-0.112963005,1,0,0,10.3373,0,21,21,5,1,f,images/br_f.png,images/cb_f.png,,,,,,,,,,,,,,,,,,,,,,,,,
,,,,,,00062,2023-10-10_16h54.02.243,vbt_B1_day1,2022.2.4,Win32,59.61962678,,,,,,,,,,,,,,,,,,,0.187037079,-0.112963005,1,0,0,2.0019,0,22,22,4,1,e,images/br_e.png,images/cb_e.png,,,,,,,,,,,,,,,,,,,,,,,,,
,,,,,,00062,2023-10-10_16h54.02.243,vbt_B1_day1,2022.2.4,Win32,59.61962678,,,,,,,,,,,,,,,,,,,0.187037079,-0.112963005,1,0,0,3.5342,0,23,23,15,1,p,images/br_p.png,images/cb_p.png,,,,,,,,,,,,,,,,,,,,,,,,,
,,,,,,00062,2023-10-10_16h54.02.243,vbt_B1_day1,2022.2.4,Win32,59.61962678,,,,,,,,,,,,,,,,,,,0.187037079,-0.112963005,1,0,0,7.8367,0,24,24,10,1,k,images/br_k.png,images/cb_k.png,,,,,,,,,,,,,,,,,,,,,,,,,
,,,,,,00062,2023-10-10_16h54.02.243,vbt_B1_day1,2022.2.4,Win32,59.61962678,,,,,,,,,,,,,,,,,,,0.187037079,-0.112963005,1,0,0,4.6685,0,25,25,0,1,a,images/br_a.png,images/cb_a.png,,,,,,,,,,,,,,,,,,,,,,,,,
,,,,,,00062,2023-10-10_16h54.02.243,vbt_B1_day1,2022.2.4,Win32,59.61962678,,,,,,,,,,,,,,,,,,,0.187037079,-0.112963005,1,0,0,3.5693,1,0,26,6,1,g,images/br_g.png,images/cb_g.png,,,,,,,,,,,,,,,,,,,,,,,,,
,,,,,,00062,2023-10-10_16h54.02.243,vbt_B1_day1,2022.2.4,Win32,59.61962678,,,,,,,,,,,,,,,,,,,0.187037079,-0.112963005,1,0,0,0.4826,1,1,27,10,1,k,images/br_k.png,images/cb_k.png,,,,,,,,,,,,,,,,,,,,,,,,,
,,,,,,00062,2023-10-10_16h54.02.243,vbt_B1_day1,2022.2.4,Win32,59.61962678,,,,,,,,,,,,,,,,,,,0.187037079,-0.112963005,1,0,0,52.4879,1,2,28,24,1,y,images/br_y.png,images/cb_y.png,,,,,,,,,,,,,,,,,,,,,,,,,
,,,,,,00062,2023-10-10_16h54.02.243,vbt_B1_day1,2022.2.4,Win32,59.61962678,,,,,,,,,,,,,,,,,,,0.187037079,-0.112963005,1,0,0,26.727,1,3,29,12,1,m,images/br_m.png,images/cb_m.png,,,,,,,,,,,,,,,,,,,,,,,,,
,,,,,,00062,2023-10-10_16h54.02.243,vbt_B1_day1,2022.2.4,Win32,59.61962678,,,,,,,,,,,,,,,,,,,0.187037079,-0.112963005,1,0,0,3.8849,1,4,30,25,1,z,images/br_z.png,images/cb_z.png,,,,,,,,,,,,,,,,,,,,,,,,,
,,,,,,00062,2023-10-10_16h54.02.243,vbt_B1_day1,2022.2.4,Win32,59.61962678,,,,,,,,,,,,,,,,,,,0.187037079,-0.112963005,1,0,0,10.7718,1,5,31,9,1,j,images/br_j.png,images/cb_j.png,,,,,,,,,,,,,,,,,,,,,,,,,
,,,,,,00062,2023-10-10_16h54.02.243,vbt_B1_day1,2022.2.4,Win32,59.61962678,,,,,,,,,,,,,,,,,,,0.187037079,-0.112963005,1,0,0,2.351,1,6,32,5,1,f,images/br_f.png,images/cb_f.png,,,,,,,,,,,,,,,,,,,,,,,,,
,,,,,,00062,2023-10-10_16h54.02.243,vbt_B1_day1,2022.2.4,Win32,59.61962678,,,,,,,,,,,,,,,,,,,0.187037079,-0.112963005,1,0,0,17.5062,1,7,33,11,1,l,images/br_l.png,images/cb_l.png,,,,,,,,,,,,,,,,,,,,,,,,,
,,,,,,00062,2023-10-10_16h54.02.243,vbt_B1_day1,2022.2.4,Win32,59.61962678,,,,,,,,,,,,,,,,,,,0.190740727,-0.112963005,1,0,0,2.1172,1,8,34,23,1,x,images/br_x.png,images/cb_x.png,,,,,,,,,,,,,,,,,,,,,,,,,
,,,,,,00062,2023-10-10_16h54.02.243,vbt_B1_day1,2022.2.4,Win32,59.61962678,,,,,,,,,,,,,,,,,,,0.190740727,-0.112963005,1,0,0,0.8841,1,9,35,21,1,v,images/br_v.png,images/cb_v.png,,,,,,,,,,,,,,,,,,,,,,,,,
,,,,,,00062,2023-10-10_16h54.02.243,vbt_B1_day1,2022.2.4,Win32,59.61962678,,,,,,,,,,,,,,,,,,,0.190740727,-0.112963005,1,0,0,0.1842,1,10,36,22,1,w,images/br_w.png,images/cb_w.png,,,,,,,,,,,,,,,,,,,,,,,,,
,,,,,,00062,2023-10-10_16h54.02.243,vbt_B1_day1,2022.2.4,Win32,59.61962678,,,,,,,,,,,,,,,,,,,0.190740727,-0.112963005,1,0,0,0.1667,1,11,37,8,1,i,images/br_i.png,images/cb_i.png,,,,,,,,,,,,,,,,,,,,,,,,,
,,,,,,00062,2023-10-10_16h54.02.243,vbt_B1_day1,2022.2.4,Win32,59.61962678,,,,,,,,,,,,,,,,,,,0.190740727,-0.112963005,1,0,0,30.7942,1,12,38,18,1,s,images/br_s.png,images/cb_s.png,,,,,,,,,,,,,,,,,,,,,,,,,
,,,,,,00062,2023-10-10_16h54.02.243,vbt_B1_day1,2022.2.4,Win32,59.61962678,,,,,,,,,,,,,,,,,,,0.190740727,-0.112963005,1,0,0,0.6002,1,13,39,13,1,n,images/br_n.png,images/cb_n.png,,,,,,,,,,,,,,,,,,,,,,,,,
,,,,,,00062,2023-10-10_16h54.02.243,vbt_B1_day1,2022.2.4,Win32,59.61962678,,,,,,,,,,,,,,,,,,,0.189814815,-0.112963005,1,0,0,9.7036,1,14,40,19,1,t,images/br_t.png,images/cb_t.png,,,,,,,,,,,,,,,,,,,,,,,,,
,,,,,,00062,2023-10-10_16h54.02.243,vbt_B1_day1,2022.2.4,Win32,59.61962678,,,,,,,,,,,,,,,,,,,0.189814815,-0.112963005,1,0,0,1.1507,1,15,41,1,1,b,images/br_b.png,images/cb_b.png,,,,,,,,,,,,,,,,,,,,,,,,,
,,,,,,00062,2023-10-10_16h54.02.243,vbt_B1_day1,2022.2.4,Win32,59.61962678,,,,,,,,,,,,,,,,,,,0.189814815,-0.112963005,1,0,0,0.6498,1,16,42,16,1,q,images/br_q.png,images/cb_q.png,,,,,,,,,,,,,,,,,,,,,,,,,
,,,,,,00062,2023-10-10_16h54.02.243,vbt_B1_day1,2022.2.4,Win32,59.61962678,,,,,,,,,,,,,,,,,,,0.189814815,-0.112963005,1,0,0,4.8682,1,17,43,15,1,p,images/br_p.png,images/cb_p.png,,,,,,,,,,,,,,,,,,,,,,,,,
,,,,,,00062,2023-10-10_16h54.02.243,vbt_B1_day1,2022.2.4,Win32,59.61962678,,,,,,,,,,,,,,,,,,,0.189814815,-0.112963005,1,0,0,0.3837,1,18,44,2,1,c,images/br_c.png,images/cb_c.png,,,,,,,,,,,,,,,,,,,,,,,,,
,,,,,,00062,2023-10-10_16h54.02.243,vbt_B1_day1,2022.2.4,Win32,59.61962678,,,,,,,,,,,,,,,,,,,0.189814815,-0.112963005,1,0,0,1.6338,1,19,45,3,1,d,images/br_d.png,images/cb_d.png,,,,,,,,,,,,,,,,,,,,,,,,,
,,,,,,00062,2023-10-10_16h54.02.243,vbt_B1_day1,2022.2.4,Win32,59.61962678,,,,,,,,,,,,,,,,,,,0.189814815,-0.112963005,1,0,0,6.4686,1,20,46,4,1,e,images/br_e.png,images/cb_e.png,,,,,,,,,,,,,,,,,,,,,,,,,
,,,,,,00062,2023-10-10_16h54.02.243,vbt_B1_day1,2022.2.4,Win32,59.61962678,,,,,,,,,,,,,,,,,,,0.189814815,-0.112963005,1,0,0,0.6174,1,21,47,7,1,h,images/br_h.png,images/cb_h.png,,,,,,,,,,,,,,,,,,,,,,,,,
,,,,,,00062,2023-10-10_16h54.02.243,vbt_B1_day1,2022.2.4,Win32,59.61962678,,,,,,,,,,,,,,,,,,,0.189814815,-0.112963005,1,0,0,3.7349,1,22,48,14,1,o,images/br_o.png,images/cb_o.png,,,,,,,,,,,,,,,,,,,,,,,,,
,,,,,,00062,2023-10-10_16h54.02.243,vbt_B1_day1,2022.2.4,Win32,59.61962678,,,,,,,,,,,,,,,,,,,0.189814815,-0.112963005,1,0,0,38.7647,1,23,49,20,1,u,images/br_u.png,images/cb_u.png,,,,,,,,,,,,,,,,,,,,,,,,,
,,,,,,00062,2023-10-10_16h54.02.243,vbt_B1_day1,2022.2.4,Win32,59.61962678,,,,,,,,,,,,,,,,,,,0.189814815,-0.112963005,1,0,0,4.4009,1,24,50,0,1,a,images/br_a.png,images/cb_a.png,,,,,,,,,,,,,,,,,,,,,,,,,
,,,,,,00062,2023-10-10_16h54.02.243,vbt_B1_day1,2022.2.4,Win32,59.61962678,,,,,,,,,,,,,,,,,,,0.189814815,-0.112963005,1,0,0,41.5319,1,25,51,17,1,r,images/br_r.png,images/cb_r.png,,,,,,,,,,,,,,,,,,,,,,,,,
,,,,,,00062,2023-10-10_16h54.02.243,vbt_B1_day1,2022.2.4,Win32,59.61962678,,,,,,,,,,,,,,,,,,,0.189814815,-0.112963005,1,0,0,12.405,2,0,52,5,1,f,images/br_f.png,images/cb_f.png,,,,,,,,,,,,,,,,,,,,,,,,,
,,,,,,00062,2023-10-10_16h54.02.243,vbt_B1_day1,2022.2.4,Win32,59.61962678,,,,,,,,,,,,,,,,,,,0.189814815,-0.112963005,1,0,0,4.6685,2,1,53,14,1,o,images/br_o.png,images/cb_o.png,,,,,,,,,,,,,,,,,,,,,,,,,
,,,,,,00062,2023-10-10_16h54.02.243,vbt_B1_day1,2022.2.4,Win32,59.61962678,,,,,,,,,,,,,,,,,,,0.189814815,-0.112963005,1,0,0,0.3999,2,2,54,11,1,l,images/br_l.png,images/cb_l.png,,,,,,,,,,,,,,,,,,,,,,,,,
,,,,,,00062,2023-10-10_16h54.02.243,vbt_B1_day1,2022.2.4,Win32,59.61962678,,,,,,,,,,,,,,,,,,,0.189814815,-0.112963005,1,0,0,10.487,2,3,55,25,1,z,images/br_z.png,images/cb_z.png,,,,,,,,,,,,,,,,,,,,,,,,,
,,,,,,00062,2023-10-10_16h54.02.243,vbt_B1_day1,2022.2.4,Win32,59.61962678,,,,,,,,,,,,,,,,,,,0.189814815,-0.112963005,1,0,0,13.1715,2,4,56,17,1,r,images/br_r.png,images/cb_r.png,,,,,,,,,,,,,,,,,,,,,,,,,
,,,,,,00062,2023-10-10_16h54.02.243,vbt_B1_day1,2022.2.4,Win32,59.61962678,,,,,,,,,,,,,,,,,,,0.189814815,-0.112963005,1,0,0,11.4035,2,5,57,12,1,m,images/br_m.png,images/cb_m.png,,,,,,,,,,,,,,,,,,,,,,,,,
,,,,,,00062,2023-10-10_16h54.02.243,vbt_B1_day1,2022.2.4,Win32,59.61962678,,,,,,,,,,,,,,,,,,,0.189814815,-0.112963005,1,0,0,0.5657,2,6,58,8,1,i,images/br_i.png,images/cb_i.png,,,,,,,,,,,,,,,,,,,,,,,,,
,,,,,,00062,2023-10-10_16h54.02.243,vbt_B1_day1,2022.2.4,Win32,59.61962678,,,,,,,,,,,,,,,,,,,0.189814815,-0.112963005,1,0,0,0.267,2,7,59,24,1,y,images/br_y.png,images/cb_y.png,,,,,,,,,,,,,,,,,,,,,,,,,
,,,,,,00062,2023-10-10_16h54.02.243,vbt_B1_day1,2022.2.4,Win32,59.61962678,,,,,,,,,,,,,,,,,,,0.189814815,-0.112963005,1,0,0,2.4185,2,8,60,10,1,k,images/br_k.png,images/cb_k.png,,,,,,,,,,,,,,,,,,,,,,,,,
,,,,,,00062,2023-10-10_16h54.02.243,vbt_B1_day1,2022.2.4,Win32,59.61962678,,,,,,,,,,,,,,,,,,,0.189814815,-0.112963005,1,0,0,0.6842,2,9,61,9,1,j,images/br_j.png,images/cb_j.png,,,,,,,,,,,,,,,,,,,,,,,,,
,,,,,,00062,2023-10-10_16h54.02.243,vbt_B1_day1,2022.2.4,Win32,59.61962678,,,,,,,,,,,,,,,,,,,0.189814815,-0.112963005,1,0,0,0.7008,2,10,62,16,1,q,images/br_q.png,images/cb_q.png,,,,,,,,,,,,,,,,,,,,,,,,,
,,,,,,00062,2023-10-10_16h54.02.243,vbt_B1_day1,2022.2.4,Win32,59.61962678,,,,,,,,,,,,,,,,,,,0.195370356,-0.115740741,1,0,0,0.9519,2,11,63,21,1,v,images/br_v.png,images/cb_v.png,,,,,,,,,,,,,,,,,,,,,,,,,
,,,,,,00062,2023-10-10_16h54.02.243,vbt_B1_day1,2022.2.4,Win32,59.61962678,,,,,,,,,,,,,,,,,,,0.195370356,-0.115740741,1,0,0,0.417,2,12,64,4,1,e,images/br_e.png,images/cb_e.png,,,,,,,,,,,,,,,,,,,,,,,,,
,,,,,,00062,2023-10-10_16h54.02.243,vbt_B1_day1,2022.2.4,Win32,59.61962678,,,,,,,,,,,,,,,,,,,0.195370356,-0.115740741,1,0,0,0.8003,2,13,65,18,1,s,images/br_s.png,images/cb_s.png,,,,,,,,,,,,,,,,,,,,,,,,,
,,,,,,00062,2023-10-10_16h54.02.243,vbt_B1_day1,2022.2.4,Win32,59.61962678,,,,,,,,,,,,,,,,,,,0.195370356,-0.115740741,1,0,0,4.1013,2,14,66,1,1,b,images/br_b.png,images/cb_b.png,,,,,,,,,,,,,,,,,,,,,,,,,
,,,,,,00062,2023-10-10_16h54.02.243,vbt_B1_day1,2022.2.4,Win32,59.61962678,,,,,,,,,,,,,,,,,,,0.195370356,-0.115740741,1,0,0,2.2859,2,15,67,7,1,h,images/br_h.png,images/cb_h.png,,,,,,,,,,,,,,,,,,,,,,,,,
,,,,,,00062,2023-10-10_16h54.02.243,vbt_B1_day1,2022.2.4,Win32,59.61962678,,,,,,,,,,,,,,,,,,,0.195370356,-0.115740741,1,0,0,5.8856,2,16,68,6,1,g,images/br_g.png,images/cb_g.png,,,,,,,,,,,,,,,,,,,,,,,,,
,,,,,,00062,2023-10-10_16h54.02.243,vbt_B1_day1,2022.2.4,Win32,59.61962678,,,,,,,,,,,,,,,,,,,0.195370356,-0.115740741,1,0,0,4.9195,2,17,69,13,1,n,images/br_n.png,images/cb_n.png,,,,,,,,,,,,,,,,,,,,,,,,,
,,,,,,00062,2023-10-10_16h54.02.243,vbt_B1_day1,2022.2.4,Win32,59.61962678,,,,,,,,,,,,,,,,,,,0.195370356,-0.115740741,1,0,0,4.5172,2,18,70,19,1,t,images/br_t.png,images/cb_t.png,,,,,,,,,,,,,,,,,,,,,,,,,
,,,,,,00062,2023-10-10_16h54.02.243,vbt_B1_day1,2022.2.4,Win32,59.61962678,,,,,,,,,,,,,,,,,,,0.195370356,-0.115740741,1,0,0,3.3843,2,19,71,22,1,w,images/br_w.png,images/cb_w.png,,,,,,,,,,,,,,,,,,,,,,,,,
,,,,,,00062,2023-10-10_16h54.02.243,vbt_B1_day1,2022.2.4,Win32,59.61962678,,,,,,,,,,,,,,,,,,,0.195370356,-0.115740741,1,0,0,3.5684,2,20,72,23,1,x,images/br_x.png,images/cb_x.png,,,,,,,,,,,,,,,,,,,,,,,,,
,,,,,,00062,2023-10-10_16h54.02.243,vbt_B1_day1,2022.2.4,Win32,59.61962678,,,,,,,,,,,,,,,,,,,0.195370356,-0.115740741,1,0,0,0.5006,2,21,73,20,1,u,images/br_u.png,images/cb_u.png,,,,,,,,,,,,,,,,,,,,,,,,,
,,,,,,00062,2023-10-10_16h54.02.243,vbt_B1_day1,2022.2.4,Win32,59.61962678,,,,,,,,,,,,,,,,,,,0.195370356,-0.115740741,1,0,0,3.4007,2,22,74,15,1,p,images/br_p.png,images/cb_p.png,,,,,,,,,,,,,,,,,,,,,,,,,
,,,,,,00062,2023-10-10_16h54.02.243,vbt_B1_day1,2022.2.4,Win32,59.61962678,,,,,,,,,,,,,,,,,,,0.195370356,-0.115740741,1,0,0,0.9513,2,23,75,0,1,a,images/br_a.png,images/cb_a.png,,,,,,,,,,,,,,,,,,,,,,,,,
,,,,,,00062,2023-10-10_16h54.02.243,vbt_B1_day1,2022.2.4,Win32,59.61962678,,,,,,,,,,,,,,,,,,,0.195370356,-0.115740741,1,0,0,2.2675,2,24,76,3,1,d,images/br_d.png,images/cb_d.png,,,,,,,,,,,,,,,,,,,,,,,,,
,,,,,,00062,2023-10-10_16h54.02.243,vbt_B1_day1,2022.2.4,Win32,59.61962678,,,,,,,,,,,,,,,,,,,0.195370356,-0.115740741,1,0,0,3.7182,2,25,77,2,1,c,images/br_c.png,images/cb_c.png,,,,,,,,,,,,,,,,,,,,,,,,,
,,,,,,00062,2023-10-10_16h54.02.243,vbt_B1_day1,2022.2.4,Win32,59.61962678,,,,,,,,,,,,,,,,,,,0.195370356,-0.115740741,1,0,0,0.9514,3,0,78,15,1,p,images/br_p.png,images/cb_p.png,,,,,,,,,,,,,,,,,,,,,,,,,
,,,,,,00062,2023-10-10_16h54.02.243,vbt_B1_day1,2022.2.4,Win32,59.61962678,,,,,,,,,,,,,,,,,,,0.195370356,-0.115740741,1,0,0,0.017,3,1,79,16,1,q,images/br_q.png,images/cb_q.png,,,,,,,,,,,,,,,,,,,,,,,,,
,,,,,,00062,2023-10-10_16h54.02.243,vbt_B1_day1,2022.2.4,Win32,59.61962678,,,,,,,,,,,,,,,,,,,0.195370356,-0.115740741,1,0,0,4.0514,3,2,80,1,1,b,images/br_b.png,images/cb_b.png,,,,,,,,,,,,,,,,,,,,,,,,,
,,,,,,00062,2023-10-10_16h54.02.243,vbt_B1_day1,2022.2.4,Win32,59.61962678,,,,,,,,,,,,,,,,,,,0.195370356,-0.115740741,1,0,0,0.6832,3,3,81,23,1,x,images/br_x.png,images/cb_x.png,,,,,,,,,,,,,,,,,,,,,,,,,
,,,,,,00062,2023-10-10_16h54.02.243,vbt_B1_day1,2022.2.4,Win32,59.61962678,,,,,,,,,,,,,,,,,,,0.195370356,-0.115740741,1,0,0,0.2501,3,4,82,2,1,c,images/br_c.png,images/cb_c.png,,,,,,,,,,,,,,,,,,,,,,,,,
,,,,,,00062,2023-10-10_16h54.02.243,vbt_B1_day1,2022.2.4,Win32,59.61962678,,,,,,,,,,,,,,,,,,,0.195370356,-0.115740741,1,0,0,1.8837,3,5,83,22,1,w,images/br_w.png,images/cb_w.png,,,,,,,,,,,,,,,,,,,,,,,,,
,,,,,,00062,2023-10-10_16h54.02.243,vbt_B1_day1,2022.2.4,Win32,59.61962678,,,,,,,,,,,,,,,,,,,0.195370356,-0.115740741,1,0,0,0.3496,3,6,84,0,1,a,images/br_a.png,images/cb_a.png,,,,,,,,,,,,,,,,,,,,,,,,,
,,,,,,00062,2023-10-10_16h54.02.243,vbt_B1_day1,2022.2.4,Win32,59.61962678,,,,,,,,,,,,,,,,,,,0.195370356,-0.115740741,1,0,0,0.3503,3,7,85,9,1,j,images/br_j.png,images/cb_j.png,,,,,,,,,,,,,,,,,,,,,,,,,
,,,,,,00062,2023-10-10_16h54.02.243,vbt_B1_day1,2022.2.4,Win32,59.61962678,,,,,,,,,,,,,,,,,,,0.195370356,-0.115740741,1,0,0,3.7848,3,8,86,3,1,d,images/br_d.png,images/cb_d.png,,,,,,,,,,,,,,,,,,,,,,,,,
,,,,,,00062,2023-10-10_16h54.02.243,vbt_B1_day1,2022.2.4,Win32,59.61962678,,,,,,,,,,,,,,,,,,,0.195370356,-0.115740741,1,0,0,0.2331,3,9,87,21,1,v,images/br_v.png,images/cb_v.png,,,,,,,,,,,,,,,,,,,,,,,,,
,,,,,,00062,2023-10-10_16h54.02.243,vbt_B1_day1,2022.2.4,Win32,59.61962678,,,,,,,,,,,,,,,,,,,0.195370356,-0.115740741,1,0,0,1.8502,3,10,88,19,1,t,images/br_t.png,images/cb_t.png,,,,,,,,,,,,,,,,,,,,,,,,,
,,,,,,00062,2023-10-10_16h54.02.243,vbt_B1_day1,2022.2.4,Win32,59.61962678,,,,,,,,,,,,,,,,,,,0.195370356,-0.115740741,1,0,0,0.766,3,11,89,20,1,u,images/br_u.png,images/cb_u.png,,,,,,,,,,,,,,,,,,,,,,,,,
,,,,,,00062,2023-10-10_16h54.02.243,vbt_B1_day1,2022.2.4,Win32,59.61962678,,,,,,,,,,,,,,,,,,,0.195370356,-0.115740741,1,0,0,9.4537,3,12,90,6,1,g,images/br_g.png,images/cb_g.png,,,,,,,,,,,,,,,,,,,,,,,,,
,,,,,,00062,2023-10-10_16h54.02.243,vbt_B1_day1,2022.2.4,Win32,59.61962678,,,,,,,,,,,,,,,,,,,0.195370356,-0.115740741,1,0,0,0.0333,3,13,91,14,1,o,images/br_o.png,images/cb_o.png,,,,,,,,,,,,,,,,,,,,,,,,,
,,,,,,00062,2023-10-10_16h54.02.243,vbt_B1_day1,2022.2.4,Win32,59.61962678,,,,,,,,,,,,,,,,,,,0.195370356,-0.115740741,1,0,0,0.3341,3,14,92,12,1,m,images/br_m.png,images/cb_m.png,,,,,,,,,,,,,,,,,,,,,,,,,
,,,,,,00062,2023-10-10_16h54.02.243,vbt_B1_day1,2022.2.4,Win32,59.61962678,,,,,,,,,,,,,,,,,,,0.195370356,-0.115740741,1,0,0,0.0168,3,15,93,8,1,i,images/br_i.png,images/cb_i.png,,,,,,,,,,,,,,,,,,,,,,,,,
,,,,,,00062,2023-10-10_16h54.02.243,vbt_B1_day1,2022.2.4,Win32,59.61962678,,,,,,,,,,,,,,,,,,,0.195370356,-0.115740741,1,0,0,0.0167,3,16,94,4,1,e,images/br_e.png,images/cb_e.png,,,,,,,,,,,,,,,,,,,,,,,,,
,,,,,,00062,2023-10-10_16h54.02.243,vbt_B1_day1,2022.2.4,Win32,59.61962678,,,,,,,,,,,,,,,,,,,0.195370356,-0.115740741,1,0,0,2.1501,3,17,95,5,1,f,images/br_f.png,images/cb_f.png,,,,,,,,,,,,,,,,,,,,,,,,,
,,,,,,00062,2023-10-10_16h54.02.243,vbt_B1_day1,2022.2.4,Win32,59.61962678,,,,,,,,,,,,,,,,,,,0.195370356,-0.115740741,1,0,0,1.7838,3,18,96,7,1,h,images/br_h.png,images/cb_h.png,,,,,,,,,,,,,,,,,,,,,,,,,
,,,,,,00062,2023-10-10_16h54.02.243,vbt_B1_day1,2022.2.4,Win32,59.61962678,,,,,,,,,,,,,,,,,,,0.195370356,-0.115740741,1,0,0,4.0513,3,19,97,18,1,s,images/br_s.png,images/cb_s.png,,,,,,,,,,,,,,,,,,,,,,,,,
,,,,,,00062,2023-10-10_16h54.02.243,vbt_B1_day1,2022.2.4,Win32,59.61962678,,,,,,,,,,,,,,,,,,,0.195370356,-0.115740741,1,0,0,0.3666,3,20,98,24,1,y,images/br_y.png,images/cb_y.png,,,,,,,,,,,,,,,,,,,,,,,,,
,,,,,,00062,2023-10-10_16h54.02.243,vbt_B1_day1,2022.2.4,Win32,59.61962678,,,,,,,,,,,,,,,,,,,0.195370356,-0.115740741,1,0,0,0.8512,3,21,99,25,1,z,images/br_z.png,images/cb_z.png,,,,,,,,,,,,,,,,,,,,,,,,,
,,,,,,00062,2023-10-10_16h54.02.243,vbt_B1_day1,2022.2.4,Win32,59.61962678,,,,,,,,,,,,,,,,,,,0.195370356,-0.115740741,1,0,0,0.0834,3,22,100,11,1,l,images/br_l.png,images/cb_l.png,,,,,,,,,,,,,,,,,,,,,,,,,
,,,,,,00062,2023-10-10_16h54.02.243,vbt_B1_day1,2022.2.4,Win32,59.61962678,,,,,,,,,,,,,,,,,,,0.195370356,-0.115740741,1,0,0,1.0175,3,23,101,10,1,k,images/br_k.png,images/cb_k.png,,,,,,,,,,,,,,,,,,,,,,,,,
,,,,,,00062,2023-10-10_16h54.02.243,vbt_B1_day1,2022.2.4,Win32,59.61962678,,,,,,,,,,,,,,,,,,,0.195370356,-0.115740741,1,0,0,3.685,3,24,102,13,1,n,images/br_n.png,images/cb_n.png,,,,,,,,,,,,,,,,,,,,,,,,,
,,,,,,00062,2023-10-10_16h54.02.243,vbt_B1_day1,2022.2.4,Win32,59.61962678,,,,,,,,,,,,,,,,,,,0.195370356,-0.115740741,1,0,0,0.4503,3,25,103,17,1,r,images/br_r.png,images/cb_r.png,,,,,,,,,,,,,,,,,,,,,,,,,
,,,,,,00062,2023-10-10_16h54.02.243,vbt_B1_day1,2022.2.4,Win32,59.61962678,,,,,,,,,,,,,,,,,,,0.195370356,-0.115740741,1,0,0,0.9504,4,0,104,0,1,a,images/br_a.png,images/cb_a.png,,,,,,,,,,,,,,,,,,,,,,,,,
,,,,,,00062,2023-10-10_16h54.02.243,vbt_B1_day1,2022.2.4,Win32,59.61962678,,,,,,,,,,,,,,,,,,,0.195370356,-0.118518547,1,0,0,0.3832,4,1,105,10,1,k,images/br_k.png,images/cb_k.png,,,,,,,,,,,,,,,,,,,,,,,,,
,,,,,,00062,2023-10-10_16h54.02.243,vbt_B1_day1,2022.2.4,Win32,59.61962678,,,,,,,,,,,,,,,,,,,0.195370356,-0.118518547,1,0,0,0.4684,4,2,106,1,1,b,images/br_b.png,images/cb_b.png,,,,,,,,,,,,,,,,,,,,,,,,,
,,,,,,00062,2023-10-10_16h54.02.243,vbt_B1_day1,2022.2.4,Win32,59.61962678,,,,,,,,,,,,,,,,,,,0.195370356,-0.118518547,1,0,0,0.0156,4,3,107,11,1,l,images/br_l.png,images/cb_l.png,,,,,,,,,,,,,,,,,,,,,,,,,
,,,,,,00062,2023-10-10_16h54.02.243,vbt_B1_day1,2022.2.4,Win32,59.61962678,,,,,,,,,,,,,,,,,,,0.195370356,-0.118518547,1,0,0,0.3495,4,4,108,24,1,y,images/br_y.png,images/cb_y.png,,,,,,,,,,,,,,,,,,,,,,,,,
,,,,,,00062,2023-10-10_16h54.02.243,vbt_B1_day1,2022.2.4,Win32,59.61962678,,,,,,,,,,,,,,,,,,,0.195370356,-0.118518547,1,0,0,0.4995,4,5,109,25,1,z,images/br_z.png,images/cb_z.png,,,,,,,,,,,,,,,,,,,,,,,,,
,,,,,,00062,2023-10-10_16h54.02.243,vbt_B1_day1,2022.2.4,Win32,59.61962678,,,,,,,,,,,,,,,,,,,0.195370356,-0.118518547,1,0,0,0.4506,4,6,110,22,1,w,images/br_w.png,images/cb_w.png,,,,,,,,,,,,,,,,,,,,,,,,,
,,,,,,00062,2023-10-10_16h54.02.243,vbt_B1_day1,2022.2.4,Win32,59.61962678,,,,,,,,,,,,,,,,,,,0.195370356,-0.118518547,1,0,0,0.317,4,7,111,18,1,s,images/br_s.png,images/cb_s.png,,,,,,,,,,,,,,,,,,,,,,,,,
,,,,,,00062,2023-10-10_16h54.02.243,vbt_B1_day1,2022.2.4,Win32,59.61962678,,,,,,,,,,,,,,,,,,,0.195370356,-0.118518547,1,0,0,0.3175,4,8,112,3,1,d,images/br_d.png,images/cb_d.png,,,,,,,,,,,,,,,,,,,,,,,,,
,,,,,,00062,2023-10-10_16h54.02.243,vbt_B1_day1,2022.2.4,Win32,59.61962678,,,,,,,,,,,,,,,,,,,0.195370356,-0.118518547,1,0,0,0.7169,4,9,113,19,1,t,images/br_t.png,images/cb_t.png,,,,,,,,,,,,,,,,,,,,,,,,,
,,,,,,00062,2023-10-10_16h54.02.243,vbt_B1_day1,2022.2.4,Win32,59.61962678,,,,,,,,,,,,,,,,,,,0.199999986,-0.122222265,1,0,0,1.2506,4,10,114,17,1,r,images/br_r.png,images/cb_r.png,,,,,,,,,,,,,,,,,,,,,,,,,
,,,,,,00062,2023-10-10_16h54.02.243,vbt_B1_day1,2022.2.4,Win32,59.61962678,,,,,,,,,,,,,,,,,,,0.199999986,-0.122222265,1,0,0,0.5838,4,11,115,15,1,p,images/br_p.png,images/cb_p.png,,,,,,,,,,,,,,,,,,,,,,,,,
,,,,,,00062,2023-10-10_16h54.02.243,vbt_B1_day1,2022.2.4,Win32,59.61962678,,,,,,,,,,,,,,,,,,,0.199999986,-0.122222265,1,0,0,0.3338,4,12,116,5,1,f,images/br_f.png,images/cb_f.png,,,,,,,,,,,,,,,,,,,,,,,,,
,,,,,,00062,2023-10-10_16h54.02.243,vbt_B1_day1,2022.2.4,Win32,59.61962678,,,,,,,,,,,,,,,,,,,0.199999986,-0.122222265,1,0,0,0.3332,4,13,117,4,1,e,images/br_e.png,images/cb_e.png,,,,,,,,,,,,,,,,,,,,,,,,,
,,,,,,00062,2023-10-10_16h54.02.243,vbt_B1_day1,2022.2.4,Win32,59.61962678,,,,,,,,,,,,,,,,,,,0.199999986,-0.122222265,1,0,0,0.4491,4,14,118,21,1,v,images/br_v.png,images/cb_v.png,,,,,,,,,,,,,,,,,,,,,,,,,
,,,,,,00062,2023-10-10_16h54.02.243,vbt_B1_day1,2022.2.4,Win32,59.61962678,,,,,,,,,,,,,,,,,,,0.199999986,-0.122222265,1,0,0,0.8843,4,15,119,23,1,x,images/br_x.png,images/cb_x.png,,,,,,,,,,,,,,,,,,,,,,,,,
,,,,,,00062,2023-10-10_16h54.02.243,vbt_B1_day1,2022.2.4,Win32,59.61962678,,,,,,,,,,,,,,,,,,,0.199999986,-0.122222265,1,0,0,0.2005,4,16,120,12,1,m,images/br_m.png,images/cb_m.png,,,,,,,,,,,,,,,,,,,,,,,,,
,,,,,,00062,2023-10-10_16h54.02.243,vbt_B1_day1,2022.2.4,Win32,59.61962678,,,,,,,,,,,,,,,,,,,0.199999986,-0.122222265,1,0,0,2.8508,4,17,121,20,1,u,images/br_u.png,images/cb_u.png,,,,,,,,,,,,,,,,,,,,,,,,,
,,,,,,00062,2023-10-10_16h54.02.243,vbt_B1_day1,2022.2.4,Win32,59.61962678,,,,,,,,,,,,,,,,,,,0.199999986,-0.122222265,1,0,0,0.3836,4,18,122,14,1,o,images/br_o.png,images/cb_o.png,,,,,,,,,,,,,,,,,,,,,,,,,
,,,,,,00062,2023-10-10_16h54.02.243,vbt_B1_day1,2022.2.4,Win32,59.61962678,,,,,,,,,,,,,,,,,,,0.199999986,-0.122222265,1,0,0,1.5502,4,19,123,6,1,g,images/br_g.png,images/cb_g.png,,,,,,,,,,,,,,,,,,,,,,,,,
,,,,,,00062,2023-10-10_16h54.02.243,vbt_B1_day1,2022.2.4,Win32,59.61962678,,,,,,,,,,,,,,,,,,,0.199999986,-0.122222265,1,0,0,0.0333,4,20,124,7,1,h,images/br_h.png,images/cb_h.png,,,,,,,,,,,,,,,,,,,,,,,,,
,,,,,,00062,2023-10-10_16h54.02.243,vbt_B1_day1,2022.2.4,Win32,59.61962678,,,,,,,,,,,,,,,,,,,0.199999986,-0.122222265,1,0,0,1.4507,4,21,125,13,1,n,images/br_n.png,images/cb_n.png,,,,,,,,,,,,,,,,,,,,,,,,,
,,,,,,00062,2023-10-10_16h54.02.243,vbt_B1_day1,2022.2.4,Win32,59.61962678,,,,,,,,,,,,,,,,,,,0.199999986,-0.122222265,1,0,0,1.6507,4,22,126,9,1,j,images/br_j.png,images/cb_j.png,,,,,,,,,,,,,,,,,,,,,,,,,
,,,,,,00062,2023-10-10_16h54.02.243,vbt_B1_day1,2022.2.4,Win32,59.61962678,,,,,,,,,,,,,,,,,,,0.199999986,-0.122222265,1,0,0,0.2334,4,23,127,8,1,i,images/br_i.png,images/cb_i.png,,,,,,,,,,,,,,,,,,,,,,,,,
,,,,,,00062,2023-10-10_16h54.02.243,vbt_B1_day1,2022.2.4,Win32,59.61962678,,,,,,,,,,,,,,,,,,,0.199999986,-0.122222265,1,0,0,0.817,4,24,128,16,1,q,images/br_q.png,images/cb_q.png,,,,,,,,,,,,,,,,,,,,,,,,,
,,,,,,00062,2023-10-10_16h54.02.243,vbt_B1_day1,2022.2.4,Win32,59.61962678,,,,,,,,,,,,,,,,,,,0.199999986,-0.122222265,1,0,0,0.8844,4,25,129,2,1,c,images/br_c.png,images/cb_c.png,,,,,,,,,,,,,,,,,,,,,,,,,
,,,,,,00062,2023-10-10_16h54.02.243,vbt_B1_day1,2022.2.4,Win32,59.61962678,,,,,,,,,,,,,,,,,,,0.199999986,-0.122222265,1,0,0,0.3167,5,0,130,22,1,w,images/br_w.png,images/cb_w.png,,,,,,,,,,,,,,,,,,,,,,,,,
,,,,,,00062,2023-10-10_16h54.02.243,vbt_B1_day1,2022.2.4,Win32,59.61962678,,,,,,,,,,,,,,,,,,,0.199999986,-0.122222265,1,0,0,0.3328,5,1,131,17,1,r,images/br_r.png,images/cb_r.png,,,,,,,,,,,,,,,,,,,,,,,,,
,,,,,,00062,2023-10-10_16h54.02.243,vbt_B1_day1,2022.2.4,Win32,59.61962678,,,,,,,,,,,,,,,,,,,0.199999986,-0.122222265,1,0,0,7.3194,5,2,132,8,1,i,images/br_i.png,images/cb_i.png,,,,,,,,,,,,,,,,,,,,,,,,,
,,,,,,00062,2023-10-10_16h54.02.243,vbt_B1_day1,2022.2.4,Win32,59.61962678,,,,,,,,,,,,,,,,,,,0.199999986,-0.122222265,1,0,0,0.6993,5,3,133,0,1,a,images/br_a.png,images/cb_a.png,,,,,,,,,,,,,,,,,,,,,,,,,
,,,,,,00062,2023-10-10_16h54.02.243,vbt_B1_day1,2022.2.4,Win32,59.61962678,,,,,,,,,,,,,,,,,,,0.199999986,-0.122222265,1,0,0,0.6671,5,4,134,1,1,b,images/br_b.png,images/cb_b.png,,,,,,,,,,,,,,,,,,,,,,,,,
,,,,,,00062,2023-10-10_16h54.02.243,vbt_B1_day1,2022.2.4,Win32,59.61962678,,,,,,,,,,,,,,,,,,,0.199999986,-0.122222265,1,0,0,31.6447,5,5,135,10,1,k,images/br_k.png,images/cb_k.png,,,,,,,,,,,,,,,,,,,,,,,,,
,,,,,,00062,2023-10-10_16h54.02.243,vbt_B1_day1,2022.2.4,Win32,59.61962678,,,,,,,,,,,,,,,,,,,0.199999986,-0.122222265,1,0,0,2.2671,5,6,136,21,1,v,images/br_v.png,images/cb_v.png,,,,,,,,,,,,,,,,,,,,,,,,,
,,,,,,00062,2023-10-10_16h54.02.243,vbt_B1_day1,2022.2.4,Win32,59.61962678,,,,,,,,,,,,,,,,,,,0.199999986,-0.122222265,1,0,0,1.1174,5,7,137,24,1,y,images/br_y.png,images/cb_y.png,,,,,,,,,,,,,,,,,,,,,,,,,
,,,,,,00062,2023-10-10_16h54.02.243,vbt_B1_day1,2022.2.4,Win32,59.61962678,,,,,,,,,,,,,,,,,,,0.199999986,-0.122222265,1,0,0,0.0836,5,8,138,9,1,j,images/br_j.png,images/cb_j.png,,,,,,,,,,,,,,,,,,,,,,,,,
,,,,,,00062,2023-10-10_16h54.02.243,vbt_B1_day1,2022.2.4,Win32,59.61962678,,,,,,,,,,,,,,,,,,,0.199999986,-0.122222265,1,0,0,0.3171,5,9,139,2,1,c,images/br_c.png,images/cb_c.png,,,,,,,,,,,,,,,,,,,,,,,,,
,,,,,,00062,2023-10-10_16h54.02.243,vbt_B1_day1,2022.2.4,Win32,59.61962678,,,,,,,,,,,,,,,,,,,0.199999986,-0.122222265,1,0,0,0.0334,5,10,140,7,1,h,images/br_h.png,images/cb_h.png,,,,,,,,,,,,,,,,,,,,,,,,,
,,,,,,00062,2023-10-10_16h54.02.243,vbt_B1_day1,2022.2.4,Win32,59.61962678,,,,,,,,,,,,,,,,,,,0.199999986,-0.122222265,1,0,0,0.4546,5,11,141,5,1,f,images/br_f.png,images/cb_f.png,,,,,,,,,,,,,,,,,,,,,,,,,
,,,,,,00062,2023-10-10_16h54.02.243,vbt_B1_day1,2022.2.4,Win32,59.61962678,,,,,,,,,,,,,,,,,,,0.199999986,-0.122222265,1,0,0,0.4169,5,12,142,14,1,o,images/br_o.png,images/cb_o.png,,,,,,,,,,,,,,,,,,,,,,,,,
,,,,,,00062,2023-10-10_16h54.02.243,vbt_B1_day1,2022.2.4,Win32,59.61962678,,,,,,,,,,,,,,,,,,,0.199999986,-0.122222265,1,0,0,0.0167,5,13,143,16,1,q,images/br_q.png,images/cb_q.png,,,,,,,,,,,,,,,,,,,,,,,,,
,,,,,,00062,2023-10-10_16h54.02.243,vbt_B1_day1,2022.2.4,Win32,59.61962678,,,,,,,,,,,,,,,,,,,0.199999986,-0.122222265,1,0,0,0.4667,5,14,144,3,1,d,images/br_d.png,images/cb_d.png,,,,,,,,,,,,,,,,,,,,,,,,,
,,,,,,00062,2023-10-10_16h54.02.243,vbt_B1_day1,2022.2.4,Win32,59.61962678,,,,,,,,,,,,,,,,,,,0.20185188,-0.122222265,1,0,0,0.2674,5,15,145,20,1,u,images/br_u.png,images/cb_u.png,,,,,,,,,,,,,,,,,,,,,,,,,
,,,,,,00062,2023-10-10_16h54.02.243,vbt_B1_day1,2022.2.4,Win32,59.61962678,,,,,,,,,,,,,,,,,,,0.20185188,-0.122222265,1,0,0,0.6665,5,16,146,13,1,n,images/br_n.png,images/cb_n.png,,,,,,,,,,,,,,,,,,,,,,,,,
,,,,,,00062,2023-10-10_16h54.02.243,vbt_B1_day1,2022.2.4,Win32,59.61962678,,,,,,,,,,,,,,,,,,,0.20185188,-0.122222265,1,0,0,0.0662,5,17,147,18,1,s,images/br_s.png,images/cb_s.png,,,,,,,,,,,,,,,,,,,,,,,,,
,,,,,,00062,2023-10-10_16h54.02.243,vbt_B1_day1,2022.2.4,Win32,59.61962678,,,,,,,,,,,,,,,,,,,0.20185188,-0.122222265,1,0,0,1.2508,5,18,148,6,1,g,images/br_g.png,images/cb_g.png,,,,,,,,,,,,,,,,,,,,,,,,,
,,,,,,00062,2023-10-10_16h54.02.243,vbt_B1_day1,2022.2.4,Win32,59.61962678,,,,,,,,,,,,,,,,,,,0.20185188,-0.122222265,1,0,0,0.0831,5,19,149,23,1,x,images/br_x.png,images/cb_x.png,,,,,,,,,,,,,,,,,,,,,,,,,
,,,,,,00062,2023-10-10_16h54.02.243,vbt_B1_day1,2022.2.4,Win32,59.61962678,,,,,,,,,,,,,,,,,,,0.20185188,-0.122222265,1,0,0,2.3341,5,20,150,15,1,p,images/br_p.png,images/cb_p.png,,,,,,,,,,,,,,,,,,,,,,,,,
,,,,,,00062,2023-10-10_16h54.02.243,vbt_B1_day1,2022.2.4,Win32,59.61962678,,,,,,,,,,,,,,,,,,,0.20185188,-0.122222265,1,0,0,1.2002,5,21,151,12,1,m,images/br_m.png,images/cb_m.png,,,,,,,,,,,,,,,,,,,,,,,,,
,,,,,,00062,2023-10-10_16h54.02.243,vbt_B1_day1,2022.2.4,Win32,59.61962678,,,,,,,,,,,,,,,,,,,0.20185188,-0.122222265,1,0,0,1.7174,5,22,152,4,1,e,images/br_e.png,images/cb_e.png,,,,,,,,,,,,,,,,,,,,,,,,,
,,,,,,00062,2023-10-10_16h54.02.243,vbt_B1_day1,2022.2.4,Win32,59.61962678,,,,,,,,,,,,,,,,,,,0.20185188,-0.122222265,1,0,0,0.7169,5,23,153,25,1,z,images/br_z.png,images/cb_z.png,,,,,,,,,,,,,,,,,,,,,,,,,
,,,,,,00062,2023-10-10_16h54.02.243,vbt_B1_day1,2022.2.4,Win32,59.61962678,,,,,,,,,,,,,,,,,,,0.20185188,-0.122222265,1,0,0,0.2956,5,24,154,11,1,l,images/br_l.png,images/cb_l.png,,,,,,,,,,,,,,,,,,,,,,,,,
,,,,,,00062,2023-10-10_16h54.02.243,vbt_B1_day1,2022.2.4,Win32,59.61962678,,,,,,,,,,,,,,,,,,,0.20185188,-0.122222265,1,0,0,2.7901,5,25,155,19,1,t,images/br_t.png,images/cb_t.png,,,,,,,,,,,,,,,,,,,,,,,,,
,,,,,,00062,2023-10-10_16h54.02.243,vbt_B1_day1,2022.2.4,Win32,59.61962678,,,,,,,,,,,,,,,,,,,0.20185188,-0.122222265,1,0,0,0.3001,6,0,156,7,1,h,images/br_h.png,images/cb_h.png,,,,,,,,,,,,,,,,,,,,,,,,,
,,,,,,00062,2023-10-10_16h54.02.243,vbt_B1_day1,2022.2.4,Win32,59.61962678,,,,,,,,,,,,,,,,,,,0.20185188,-0.122222265,1,0,0,2.4176,6,1,157,14,1,o,images/br_o.png,images/cb_o.png,,,,,,,,,,,,,,,,,,,,,,,,,
,,,,,,00062,2023-10-10_16h54.02.243,vbt_B1_day1,2022.2.4,Win32,59.61962678,,,,,,,,,,,,,,,,,,,0.20185188,-0.122222265,1,0,0,0.2843,6,2,158,13,1,n,images/br_n.png,images/cb_n.png,,,,,,,,,,,,,,,,,,,,,,,,,
,,,,,,00062,2023-10-10_16h54.02.243,vbt_B1_day1,2022.2.4,Win32,59.61962678,,,,,,,,,,,,,,,,,,,0.20185188,-0.122222265,1,0,0,0.7008,6,3,159,5,1,f,images/br_f.png,images/cb_f.png,,,,,,,,,,,,,,,,,,,,,,,,,
,,,,,,00062,2023-10-10_16h54.02.243,vbt_B1_day1,2022.2.4,Win32,59.61962678,,,,,,,,,,,,,,,,,,,0.20185188,-0.122222265,1,0,0,7.1529,6,4,160,20,1,u,images/br_u.png,images/cb_u.png,,,,,,,,,,,,,,,,,,,,,,,,,
,,,,,,00062,2023-10-10_16h54.02.243,vbt_B1_day1,2022.2.4,Win32,59.61962678,,,,,,,,,,,,,,,,,,,0.20185188,-0.122222265,1,0,0,8.6204,6,5,161,1,1,b,images/br_b.png,images/cb_b.png,,,,,,,,,,,,,,,,,,,,,,,,,
,,,,,,00062,2023-10-10_16h54.02.243,vbt_B1_day1,2022.2.4,Win32,59.61962678,,,,,,,,,,,,,,,,,,,0.20185188,-0.122222265,1,0,0,0.4669,6,6,162,4,1,e,images/br_e.png,images/cb_e.png,,,,,,,,,,,,,,,,,,,,,,,,,
,,,,,,00062,2023-10-10_16h54.02.243,vbt_B1_day1,2022.2.4,Win32,59.61962678,,,,,,,,,,,,,,,,,,,0.20185188,-0.122222265,1,0,0,1.6163,6,7,163,10,1,k,images/br_k.png,images/cb_k.png,,,,,,,,,,,,,,,,,,,,,,,,,
,,,,,,00062,2023-10-10_16h54.02.243,vbt_B1_day1,2022.2.4,Win32,59.61962678,,,,,,,,,,,,,,,,,,,0.20185188,-0.122222265,1,0,0,1.3337,6,8,164,11,1,l,images/br_l.png,images/cb_l.png,,,,,,,,,,,,,,,,,,,,,,,,,
,,,,,,00062,2023-10-10_16h54.02.243,vbt_B1_day1,2022.2.4,Win32,59.61962678,,,,,,,,,,,,,,,,,,,0.20185188,-0.122222265,1,0,0,0.1174,6,9,165,19,1,t,images/br_t.png,images/cb_t.png,,,,,,,,,,,,,,,,,,,,,,,,,
,,,,,,00062,2023-10-10_16h54.02.243,vbt_B1_day1,2022.2.4,Win32,59.61962678,,,,,,,,,,,,,,,,,,,0.20185188,-0.122222265,1,0,0,0.2995,6,10,166,16,1,q,images/br_q.png,images/cb_q.png,,,,,,,,,,,,,,,,,,,,,,,,,
,,,,,,00062,2023-10-10_16h54.02.243,vbt_B1_day1,2022.2.4,Win32,59.61962678,,,,,,,,,,,,,,,,,,,0.20185188,-0.122222265,1,0,0,0.1175,6,11,167,2,1,c,images/br_c.png,images/cb_c.png,,,,,,,,,,,,,,,,,,,,,,,,,
,,,,,,00062,2023-10-10_16h54.02.243,vbt_B1_day1,2022.2.4,Win32,59.61962678,,,,,,,,,,,,,,,,,,,0.20185188,-0.122222265,1,0,0,1.851,6,12,168,8,1,i,images/br_i.png,images/cb_i.png,,,,,,,,,,,,,,,,,,,,,,,,,
,,,,,,00062,2023-10-10_16h54.02.243,vbt_B1_day1,2022.2.4,Win32,59.61962678,,,,,,,,,,,,,,,,,,,0.20185188,-0.122222265,1,0,0,0.15,6,13,169,22,1,w,images/br_w.png,images/cb_w.png,,,,,,,,,,,,,,,,,,,,,,,,,
,,,,,,00062,2023-10-10_16h54.02.243,vbt_B1_day1,2022.2.4,Win32,59.61962678,,,,,,,,,,,,,,,,,,,0.20185188,-0.122222265,1,0,0,0.7845,6,14,170,25,1,z,images/br_z.png,images/cb_z.png,,,,,,,,,,,,,,,,,,,,,,,,,
,,,,,,00062,2023-10-10_16h54.02.243,vbt_B1_day1,2022.2.4,Win32,59.61962678,,,,,,,,,,,,,,,,,,,0.20185188,-0.122222265,1,0,0,8.8366,6,15,171,0,1,a,images/br_a.png,images/cb_a.png,,,,,,,,,,,,,,,,,,,,,,,,,
,,,,,,00062,2023-10-10_16h54.02.243,vbt_B1_day1,2022.2.4,Win32,59.61962678,,,,,,,,,,,,,,,,,,,0.20185188,-0.122222265,1,0,0,2.4341,6,16,172,21,1,v,images/br_v.png,images/cb_v.png,,,,,,,,,,,,,,,,,,,,,,,,,
,,,,,,00062,2023-10-10_16h54.02.243,vbt_B1_day1,2022.2.4,Win32,59.61962678,,,,,,,,,,,,,,,,,,,0.20185188,-0.122222265,1,0,0,14.4558,6,17,173,17,1,r,images/br_r.png,images/cb_r.png,,,,,,,,,,,,,,,,,,,,,,,,,
,,,,,,00062,2023-10-10_16h54.02.243,vbt_B1_day1,2022.2.4,Win32,59.61962678,,,,,,,,,,,,,,,,,,,0.20185188,-0.122222265,1,0,0,0.9165,6,18,174,12,1,m,images/br_m.png,images/cb_m.png,,,,,,,,,,,,,,,,,,,,,,,,,
,,,,,,00062,2023-10-10_16h54.02.243,vbt_B1_day1,2022.2.4,Win32,59.61962678,,,,,,,,,,,,,,,,,,,0.20185188,-0.122222265,1,0,0,0.4504,6,19,175,15,1,p,images/br_p.png,images/cb_p.png,,,,,,,,,,,,,,,,,,,,,,,,,
,,,,,,00062,2023-10-10_16h54.02.243,vbt_B1_day1,2022.2.4,Win32,59.61962678,,,,,,,,,,,,,,,,,,,0.20185188,-0.122222265,1,0,0,0.4009,6,20,176,3,1,d,images/br_d.png,images/cb_d.png,,,,,,,,,,,,,,,,,,,,,,,,,
,,,,,,00062,2023-10-10_16h54.02.243,vbt_B1_day1,2022.2.4,Win32,59.61962678,,,,,,,,,,,,,,,,,,,0.20185188,-0.122222265,1,0,0,0.3827,6,21,177,18,1,s,images/br_s.png,images/cb_s.png,,,,,,,,,,,,,,,,,,,,,,,,,
,,,,,,00062,2023-10-10_16h54.02.243,vbt_B1_day1,2022.2.4,Win32,59.61962678,,,,,,,,,,,,,,,,,,,0.20185188,-0.122222265,1,0,0,0.5345,6,22,178,23,1,x,images/br_x.png,images/cb_x.png,,,,,,,,,,,,,,,,,,,,,,,,,
,,,,,,00062,2023-10-10_16h54.02.243,vbt_B1_day1,2022.2.4,Win32,59.61962678,,,,,,,,,,,,,,,,,,,0.20185188,-0.122222265,1,0,0,0.3342,6,23,179,6,1,g,images/br_g.png,images/cb_g.png,,,,,,,,,,,,,,,,,,,,,,,,,
,,,,,,00062,2023-10-10_16h54.02.243,vbt_B1_day1,2022.2.4,Win32,59.61962678,,,,,,,,,,,,,,,,,,,0.20185188,-0.122222265,1,0,0,4.0178,6,24,180,9,1,j,images/br_j.png,images/cb_j.png,,,,,,,,,,,,,,,,,,,,,,,,,
,,,,,,00062,2023-10-10_16h54.02.243,vbt_B1_day1,2022.2.4,Win32,59.61962678,,,,,,,,,,,,,,,,,,,0.20185188,-0.122222265,1,0,0,2.8343,6,25,181,24,1,y,images/br_y.png,images/cb_y.png,,,,,,,,,,,,,,,,,,,,,,,,,
,,,,,,00062,2023-10-10_16h54.02.243,vbt_B1_day1,2022.2.4,Win32,59.61962678,,,,,,,,,,,,,,,,,,,,,,,,,,,,,,,,,0.248148176,-0.170370384,1,0,0,,,,,,,,,,,,,,,,,,,,
,,,,,,00062,2023-10-10_16h54.02.243,vbt_B1_day1,2022.2.4,Win32,59.61962678,,,,,,,,,,,,,,,,,,,,,,,,,,,,,,,,,,,,,,0.248148176,-0.170370384,1,0,0,,,,,,,,,,,,,,,
,,,,,,00062,2023-10-10_16h54.02.243,vbt_B1_day1,2022.2.4,Win32,59.61962678,,,,,,,,,,,,,,,,,,,,,,,,,,,,,,,,,,,,,,,,,,,0.248148176,-0.170370384,1,0,0,.,.,0,0,0,28,1,bebrip,images/br_bebrip.png,images/cb_bebrip.png
,,,,,,00062,2023-10-10_16h54.02.243,vbt_B1_day1,2022.2.4,Win32,59.61962678,,,,,,,,,,,,,,,,,,,,,,,,,,,,,,,,,,,,,,,,,,,0.248148176,-0.170370384,1,0,0,d,d,0,1,1,16,1,daarheen,images/br_daarheen.png,images/cb_daarheen.png
,,,,,,00062,2023-10-10_16h54.02.243,vbt_B1_day1,2022.2.4,Win32,59.61962678,,,,,,,,,,,,,,,,,,,,,,,,,,,,,,,,,,,,,,,,,,,0.248148176,-0.170370384,1,0,0,koe,koe,0,2,2,22,1,knoe,images/br_knoe.png,images/cb_knoe.png
,,,,,,00062,2023-10-10_16h54.02.243,vbt_B1_day1,2022.2.4,Win32,59.61962678,,,,,,,,,,,,,,,,,,,,,,,,,,,,,,,,,,,,,,,,,,,0.248148176,-0.170370384,1,0,0,loods,loods,0,3,3,47,1,loods,images/br_loods.png,images/cb_loods.png
,,,,,,00062,2023-10-10_16h54.02.243,vbt_B1_day1,2022.2.4,Win32,59.61962678,,,,,,,,,,,,,,,,,,,,,,,,,,,,,,,,,,,,,,,,,,,0.248148176,-0.170370384,1,0,0,zaal,zaal,0,4,4,1,1,zaal,images/br_zaal.png,images/cb_zaal.png
,,,,,,00062,2023-10-10_16h54.02.243,vbt_B1_day1,2022.2.4,Win32,59.61962678,,,,,,,,,,,,,,,,,,,,,,,,,,,,,,,,,,,,,,,,,,,0.248148176,-0.170370384,1,0,0,opera,opera,0,5,5,32,1,opplaan,images/br_opplaan.png,images/cb_opplaan.png
,,,,,,00062,2023-10-10_16h54.02.243,vbt_B1_day1,2022.2.4,Win32,59.61962678,,,,,,,,,,,,,,,,,,,,,,,,,,,,,,,,,,,,,,,,,,,0.248148176,-0.170370384,1,0,0,slak,slak,0,6,6,0,1,slak,images/br_slak.png,images/cb_slak.png
,,,,,,00062,2023-10-10_16h54.02.243,vbt_B1_day1,2022.2.4,Win32,59.61962678,,,,,,,,,,,,,,,,,,,,,,,,,,,,,,,,,,,,,,,,,,,0.248148176,-0.170370384,1,0,0,pvhiek,pvhiek,0,7,7,10,1,muziek,images/br_muziek.png,images/cb_muziek.png
,,,,,,00062,2023-10-10_16h54.02.243,vbt_B1_day1,2022.2.4,Win32,59.61962678,,,,,,,,,,,,,,,,,,,,,,,,,,,,,,,,,,,,,,,,,,,0.248148176,-0.170370384,1,0,0,vervade,vervade,0,8,8,36,1,vervaden,images/br_vervaden.png,images/cb_vervaden.png
,,,,,,00062,2023-10-10_16h54.02.243,vbt_B1_day1,2022.2.4,Win32,59.61962678,,,,,,,,,,,,,,,,,,,,,,,,,,,,,,,,,,,,,,,,,,,0.304629714,-0.181481467,1,0,0,rezen,rezen,0,9,9,24,1,rezer,images/br_rezer.png,images/cb_rezer.png
,,,,,,00062,2023-10-10_16h54.02.243,vbt_B1_day1,2022.2.4,Win32,59.61962678,,,,,,,,,,,,,,,,,,,,,,,,,,,,,,,,,,,,,,,,,,,0.304629714,-0.181481467,1,0,0,sihiele,sihiele,0,10,10,38,1,schielen,images/br_schielen.png,images/cb_schielen.png
,,,,,,00062,2023-10-10_16h54.02.243,vbt_B1_day1,2022.2.4,Win32,59.61962678,,,,,,,,,,,,,,,,,,,,,,,,,,,,,,,,,,,,,,,,,,,0.304629714,-0.181481467,1,0,0,brijk,brijk,0,11,11,25,1,brijk,images/br_brijk.png,images/cb_brijk.png
,,,,,,00062,2023-10-10_16h54.02.243,vbt_B1_day1,2022.2.4,Win32,59.61962678,,,,,,,,,,,,,,,,,,,,,,,,,,,,,,,,,,,,,,,,,,,0.304629714,-0.181481467,1,0,0,fictie,fictie,0,12,12,48,1,fictie,images/br_fictie.png,images/cb_fictie.png
,,,,,,00062,2023-10-10_16h54.02.243,vbt_B1_day1,2022.2.4,Win32,59.61962678,,,,,,,,,,,,,,,,,,,,,,,,,,,,,,,,,,,,,,,,,,,0.304629714,-0.181481467,1,0,0,mening,mening,0,13,13,11,1,mening,images/br_mening.png,images/cb_mening.png
,,,,,,00062,2023-10-10_16h54.02.243,vbt_B1_day1,2022.2.4,Win32,59.61962678,,,,,,,,,,,,,,,,,,,,,,,,,,,,,,,,,,,,,,,,,,,0.256481524,-0.316666709,1,0,0,genoten,genoten,0,14,14,29,1,genond,images/br_genond.png,images/cb_genond.png
,,,,,,00062,2023-10-10_16h54.02.243,vbt_B1_day1,2022.2.4,Win32,59.61962678,,,,,,,,,,,,,,,,,,,,,,,,,,,,,,,,,,,,,,,,,,,0.256481524,-0.316666709,1,0,0,opplaan,opplaan,0,15,15,53,1,opslaan,images/br_opslaan.png,images/cb_opslaan.png
,,,,,,00062,2023-10-10_16h54.02.243,vbt_B1_day1,2022.2.4,Win32,59.61962678,,,,,,,,,,,,,,,,,,,,,,,,,,,,,,,,,,,,,,,,,,,0.256481524,-0.316666709,1,0,0,tki,tki,0,16,16,13,1,twijfel,images/br_twijfel.png,images/cb_twijfel.png
,,,,,,00062,2023-10-10_16h54.02.243,vbt_B1_day1,2022.2.4,Win32,59.61962678,,,,,,,,,,,,,,,,,,,,,,,,,,,,,,,,,,,,,,,,,,,0.256481524,-0.316666709,1,0,0,bleek,bleek,0,17,17,6,1,bleek,images/br_bleek.png,images/cb_bleek.png
,,,,,,00062,2023-10-10_16h54.02.243,vbt_B1_day1,2022.2.4,Win32,59.61962678,,,,,,,,,,,,,,,,,,,,,,,,,,,,,,,,,,,,,,,,,,,0.256481524,-0.316666709,1,0,0,kanjer,kanjer,0,18,18,8,1,kanjer,images/br_kanjer.png,images/cb_kanjer.png
,,,,,,00062,2023-10-10_16h54.02.243,vbt_B1_day1,2022.2.4,Win32,59.61962678,,,,,,,,,,,,,,,,,,,,,,,,,,,,,,,,,,,,,,,,,,,0.256481524,-0.316666709,1,0,0,valop,valop,0,19,19,26,1,valop,images/br_valop.png,images/cb_valop.png
,,,,,,00062,2023-10-10_16h54.02.243,vbt_B1_day1,2022.2.4,Win32,59.61962678,,,,,,,,,,,,,,,,,,,,,,,,,,,,,,,,,,,,,,,,,,,0.256481524,-0.316666709,1,0,0,stacen,stacen,0,20,20,31,1,stamen,images/br_stamen.png,images/cb_stamen.png
,,,,,,00062,2023-10-10_16h54.02.243,vbt_B1_day1,2022.2.4,Win32,59.61962678,,,,,,,,,,,,,,,,,,,,,,,,,,,,,,,,,,,,,,,,,,,0.256481524,-0.316666709,1,0,0,zuiplap,zuiplap,0,21,21,52,1,zuiplap,images/br_zuiplap.png,images/cb_zuiplap.png
,,,,,,00062,2023-10-10_16h54.02.243,vbt_B1_day1,2022.2.4,Win32,59.61962678,,,,,,,,,,,,,,,,,,,,,,,,,,,,,,,,,,,,,,,,,,,0.256481524,-0.316666709,1,0,0,athena,athena,0,22,22,17,1,attentie,images/br_attentie.png,images/cb_attentie.png
,,,,,,00062,2023-10-10_16h54.02.243,vbt_B1_day1,2022.2.4,Win32,59.61962678,,,,,,,,,,,,,,,,,,,,,,,,,,,,,,,,,,,,,,,,,,,0.256481524,-0.316666709,1,0,0,tekening,tekening,0,23,23,55,1,tekenen,images/br_tekenen.png,images/cb_tekenen.png
,,,,,,00062,2023-10-10_16h54.02.243,vbt_B1_day1,2022.2.4,Win32,59.61962678,,,,,,,,,,,,,,,,,,,,,,,,,,,,,,,,,,,,,,,,,,,0.256481524,-0.316666709,1,0,0,toezicht,toezicht,0,24,24,56,1,toezicht,images/br_toezicht.png,images/cb_toezicht.png
,,,,,,00062,2023-10-10_16h54.02.243,vbt_B1_day1,2022.2.4,Win32,59.61962678,,,,,,,,,,,,,,,,,,,,,,,,,,,,,,,,,,,,,,,,,,,0.256481524,-0.316666709,1,0,0,vizier,vizier,0,25,25,49,1,vizier,images/br_vizier.png,images/cb_vizier.png
,,,,,,00062,2023-10-10_16h54.02.243,vbt_B1_day1,2022.2.4,Win32,59.61962678,,,,,,,,,,,,,,,,,,,,,,,,,,,,,,,,,,,,,,,,,,,0.256481524,-0.316666709,1,0,0,wijze,wijze,0,26,26,44,1,wijze,images/br_wijze.png,images/cb_wijze.png
,,,,,,00062,2023-10-10_16h54.02.243,vbt_B1_day1,2022.2.4,Win32,59.61962678,,,,,,,,,,,,,,,,,,,,,,,,,,,,,,,,,,,,,,,,,,,0.256481524,-0.316666709,1,0,0,spamzi,spamzi,0,27,27,37,1,spanzing,images/br_spanzing.png,images/cb_spanzing.png
,,,,,,00062,2023-10-10_16h54.02.243,vbt_B1_day1,2022.2.4,Win32,59.61962678,,,,,,,,,,,,,,,,,,,,,,,,,,,,,,,,,,,,,,,,,,,0.256481524,-0.316666709,1,0,0,stuk,stuk,0,28,28,42,1,stuk,images/br_stuk.png,images/cb_stuk.png
,,,,,,00062,2023-10-10_16h54.02.243,vbt_B1_day1,2022.2.4,Win32,59.61962678,,,,,,,,,,,,,,,,,,,,,,,,,,,,,,,,,,,,,,,,,,,0.256481524,-0.316666709,1,0,0,jied,jied,0,29,29,40,1,dief,images/br_dief.png,images/cb_dief.png
,,,,,,00062,2023-10-10_16h54.02.243,vbt_B1_day1,2022.2.4,Win32,59.61962678,,,,,,,,,,,,,,,,,,,,,,,,,,,,,,,,,,,,,,,,,,,0.256481524,-0.316666709,1,0,0,fars,fars,0,30,30,20,1,tars,images/br_tars.png,images/cb_tars.png
,,,,,,00062,2023-10-10_16h54.02.243,vbt_B1_day1,2022.2.4,Win32,59.61962678,,,,,,,,,,,,,,,,,,,,,,,,,,,,,,,,,,,,,,,,,,,0.256481524,-0.316666709,1,0,0,miinimi,miinimi,0,31,31,57,1,meenemen,images/br_meenemen.png,images/cb_meenemen.png
,,,,,,00062,2023-10-10_16h54.02.243,vbt_B1_day1,2022.2.4,Win32,59.61962678,,,,,,,,,,,,,,,,,,,,,,,,,,,,,,,,,,,,,,,,,,,0.256481524,-0.316666709,1,0,0,reedje,reedje,0,32,32,30,1,reedje,images/br_reedje.png,images/cb_reedje.png
,,,,,,00062,2023-10-10_16h54.02.243,vbt_B1_day1,2022.2.4,Win32,59.61962678,,,,,,,,,,,,,,,,,,,,,,,,,,,,,,,,,,,,,,,,,,,0.256481524,-0.316666709,1,0,0,jaar,jaar,0,33,33,2,1,jaar,images/br_jaar.png,images/cb_jaar.png
,,,,,,00062,2023-10-10_16h54.02.243,vbt_B1_day1,2022.2.4,Win32,59.61962678,,,,,,,,,,,,,,,,,,,,,,,,,,,,,,,,,,,,,,,,,,,0.256481524,-0.316666709,1,0,0,femel,femel,0,34,34,45,1,hemel,images/br_hemel.png,images/cb_hemel.png
,,,,,,00062,2023-10-10_16h54.02.243,vbt_B1_day1,2022.2.4,Win32,59.61962678,,,,,,,,,,,,,,,,,,,,,,,,,,,,,,,,,,,,,,,,,,,0.256481524,-0.316666709,1,0,0,science,science,0,35,35,4,1,schep,images/br_schep.png,images/cb_schep.png
,,,,,,00062,2023-10-10_16h54.02.243,vbt_B1_day1,2022.2.4,Win32,59.61962678,,,,,,,,,,,,,,,,,,,,,,,,,,,,,,,,,,,,,,,,,,,0.256481524,-0.316666709,1,0,0,alaarva,alaarva,0,36,36,14,1,waarvan,images/br_waarvan.png,images/cb_waarvan.png
,,,,,,00062,2023-10-10_16h54.02.243,vbt_B1_day1,2022.2.4,Win32,59.61962678,,,,,,,,,,,,,,,,,,,,,,,,,,,,,,,,,,,,,,,,,,,0.256481524,-0.316666709,1,0,0,klasje,klasje,0,37,37,12,1,klimmen,images/br_klimmen.png,images/cb_klimmen.png
,,,,,,00062,2023-10-10_16h54.02.243,vbt_B1_day1,2022.2.4,Win32,59.61962678,,,,,,,,,,,,,,,,,,,,,,,,,,,,,,,,,,,,,,,,,,,0.256481524,-0.316666709,1,0,0,madd,madd,0,38,38,3,1,mand,images/br_mand.png,images/cb_mand.png
,,,,,,00062,2023-10-10_16h54.02.243,vbt_B1_day1,2022.2.4,Win32,59.61962678,,,,,,,,,,,,,,,,,,,,,,,,,,,,,,,,,,,,,,,,,,,0.256481524,-0.316666709,1,0,0,lochten,lochten,0,39,39,34,1,lochten,images/br_lochten.png,images/cb_lochten.png
,,,,,,00062,2023-10-10_16h54.02.243,vbt_B1_day1,2022.2.4,Win32,59.61962678,,,,,,,,,,,,,,,,,,,,,,,,,,,,,,,,,,,,,,,,,,,0.256481524,-0.316666709,1,0,0,prort,prort,0,40,40,27,1,prort,images/br_prort.png,images/cb_prort.png
,,,,,,00062,2023-10-10_16h54.02.243,vbt_B1_day1,2022.2.4,Win32,59.61962678,,,,,,,,,,,,,,,,,,,,,,,,,,,,,,,,,,,,,,,,,,,0.256481524,-0.316666709,1,0,0,liefde,liefde,0,41,41,51,1,liefde,images/br_liefde.png,images/cb_liefde.png
,,,,,,00062,2023-10-10_16h54.02.243,vbt_B1_day1,2022.2.4,Win32,59.61962678,,,,,,,,,,,,,,,,,,,,,,,,,,,,,,,,,,,,,,,,,,,0.256481524,-0.316666709,1,0,0,klauk,klauk,0,42,42,7,1,klauw,images/br_klauw.png,images/cb_klauw.png
,,,,,,00062,2023-10-10_16h54.02.243,vbt_B1_day1,2022.2.4,Win32,59.61962678,,,,,,,,,,,,,,,,,,,,,,,,,,,,,,,,,,,,,,,,,,,0.256481524,-0.316666709,1,0,0,maked,maked,0,43,43,5,1,maken,images/br_maken.png,images/cb_maken.png
,,,,,,00062,2023-10-10_16h54.02.243,vbt_B1_day1,2022.2.4,Win32,59.61962678,,,,,,,,,,,,,,,,,,,,,,,,,,,,,,,,,,,,,,,,,,,0.256481524,-0.316666709,1,0,0,lezen,lezen,0,44,44,46,1,lezen,images/br_lezen.png,images/cb_lezen.png
,,,,,,00062,2023-10-10_16h54.02.243,vbt_B1_day1,2022.2.4,Win32,59.61962678,,,,,,,,,,,,,,,,,,,,,,,,,,,,,,,,,,,,,,,,,,,0.256481524,-0.316666709,1,0,0,opvatten,opvatten,0,45,45,59,1,opvatten,images/br_opvatten.png,images/cb_opvatten.png
,,,,,,00062,2023-10-10_16h54.02.243,vbt_B1_day1,2022.2.4,Win32,59.61962678,,,,,,,,,,,,,,,,,,,,,,,,,,,,,,,,,,,,,,,,,,,0.256481524,-0.316666709,1,0,0,hiervan,hiervan,0,46,46,15,1,hiervan,images/br_hiervan.png,images/cb_hiervan.png
,,,,,,00062,2023-10-10_16h54.02.243,vbt_B1_day1,2022.2.4,Win32,59.61962678,,,,,,,,,,,,,,,,,,,,,,,,,,,,,,,,,,,,,,,,,,,0.256481524,-0.316666709,1,0,0,uitdelen,uitdelen,0,47,47,18,1,uitdelen,images/br_uitdelen.png,images/cb_uitdelen.png
,,,,,,00062,2023-10-10_16h54.02.243,vbt_B1_day1,2022.2.4,Win32,59.61962678,,,,,,,,,,,,,,,,,,,,,,,,,,,,,,,,,,,,,,,,,,,0.256481524,-0.316666709,1,0,0,cooi,cooi,0,48,48,23,1,booi,images/br_booi.png,images/cb_booi.png
,,,,,,00062,2023-10-10_16h54.02.243,vbt_B1_day1,2022.2.4,Win32,59.61962678,,,,,,,,,,,,,,,,,,,,,,,,,,,,,,,,,,,,,,,,,,,0.256481524,-0.316666709,1,0,0,liegen,liegen,0,49,49,50,1,liegen,images/br_liegen.png,images/cb_liegen.png
,,,,,,00062,2023-10-10_16h54.02.243,vbt_B1_day1,2022.2.4,Win32,59.61962678,,,,,,,,,,,,,,,,,,,,,,,,,,,,,,,,,,,,,,,,,,,0.256481524,-0.316666709,1,0,0,spiegel,spiegel,0,50,50,19,1,schuilen,images/br_schuilen.png,images/cb_schuilen.png
,,,,,,00062,2023-10-10_16h54.02.243,vbt_B1_day1,2022.2.4,Win32,59.61962678,,,,,,,,,,,,,,,,,,,,,,,,,,,,,,,,,,,,,,,,,,,0.256481524,-0.316666709,1,0,0,babbel,babbel,0,51,51,9,1,dubbel,images/br_dubbel.png,images/cb_dubbel.png
,,,,,,00062,2023-10-10_16h54.02.243,vbt_B1_day1,2022.2.4,Win32,59.61962678,,,,,,,,,,,,,,,,,,,,,,,,,,,,,,,,,,,,,,,,,,,0.256481524,-0.316666709,1,0,0,voorrhr,voorrhr,0,52,52,39,1,voorreur,images/br_voorreur.png,images/cb_voorreur.png
,,,,,,00062,2023-10-10_16h54.02.243,vbt_B1_day1,2022.2.4,Win32,59.61962678,,,,,,,,,,,,,,,,,,,,,,,,,,,,,,,,,,,,,,,,,,,0.256481524,-0.316666709,1,0,0,hoog,hoog,0,53,53,41,1,hoog,images/br_hoog.png,images/cb_hoog.png
,,,,,,00062,2023-10-10_16h54.02.243,vbt_B1_day1,2022.2.4,Win32,59.61962678,,,,,,,,,,,,,,,,,,,,,,,,,,,,,,,,,,,,,,,,,,,0.256481524,-0.316666709,1,0,0,flillen,flillen,0,54,54,33,1,flullen,images/br_flullen.png,images/cb_flullen.png
,,,,,,00062,2023-10-10_16h54.02.243,vbt_B1_day1,2022.2.4,Win32,59.61962678,,,,,,,,,,,,,,,,,,,,,,,,,,,,,,,,,,,,,,,,,,,0.256481524,-0.316666709,1,0,0,ftzkl,ftzkl,0,55,55,35,1,stuikem,images/br_stuikem.png,images/cb_stuikem.png
,,,,,,00062,2023-10-10_16h54.02.243,vbt_B1_day1,2022.2.4,Win32,59.61962678,,,,,,,,,,,,,,,,,,,,,,,,,,,,,,,,,,,,,,,,,,,0.256481524,-0.316666709,1,0,0,vijftig,vijftig,0,56,56,54,1,vijftig,images/br_vijftig.png,images/cb_vijftig.png
,,,,,,00062,2023-10-10_16h54.02.243,vbt_B1_day1,2022.2.4,Win32,59.61962678,,,,,,,,,,,,,,,,,,,,,,,,,,,,,,,,,,,,,,,,,,,0.256481524,-0.316666709,1,0,0,dred,dred,0,57,57,21,1,dred,images/br_dred.png,images/cb_dred.png
,,,,,,00062,2023-10-10_16h54.02.243,vbt_B1_day1,2022.2.4,Win32,59.61962678,,,,,,,,,,,,,,,,,,,,,,,,,,,,,,,,,,,,,,,,,,,0.256481524,-0.316666709,1,0,0,voorkent,voorkent,0,58,58,58,1,voorkeur,images/br_voorkeur.png,images/cb_voorkeur.png
,,,,,,00062,2023-10-10_16h54.02.243,vbt_B1_day1,2022.2.4,Win32,59.61962678,,,,,,,,,,,,,,,,,,,,,,,,,,,,,,,,,,,,,,,,,,,0.256481524,-0.316666709,1,0,0,lava,lava,0,59,59,43,1,lava,images/br_lava.png,images/cb_lava.png
,,,,,,00062,2023-10-10_16h54.02.243,vbt_B1_day1,2022.2.4,Win32,59.61962678,,,,,,,,,,,,,,,,,,,,,,,,,,,,,,,,,,,,,,,,,,,,,,,,,,,,,,,,,
