welcome_mouse.x,welcome_mouse.y,welcome_mouse.leftButton,welcome_mouse.midButton,welcome_mouse.rightButton,welcome_mouse.time,"ID",date,expName,psychopyVersion,OS,frameRate,mouse_2.x,mouse_2.y,mouse_2.leftButton,mouse_2.midButton,mouse_2.rightButton,mouse_2.time,mouse_3.x,mouse_3.y,mouse_3.leftButton,mouse_3.midButton,mouse_3.rightButton,mouse_3.time,train_mouse.x,train_mouse.y,train_mouse.leftButton,train_mouse.midButton,train_mouse.rightButton,train_mouse.time,braille_mouse.x,braille_mouse.y,braille_mouse.leftButton,braille_mouse.midButton,braille_mouse.rightButton,braille_mouse.time,trials.thisRepN,trials.thisTrialN,trials.thisN,trials.thisIndex,trials.ran,nlLet,brLet,cbLet,mouse.x,mouse.y,mouse.leftButton,mouse.midButton,mouse.rightButton,testInstr_mouse.x,testInstr_mouse.y,testInstr_mouse.leftButton,testInstr_mouse.midButton,testInstr_mouse.rightButton,test_mouse.x,test_mouse.y,test_mouse.leftButton,test_mouse.midButton,test_mouse.rightButton,test_response.text,testResp,test_loop.thisRepN,test_loop.thisTrialN,test_loop.thisN,test_loop.thisIndex,test_loop.ran,nlWrd,brWrd,cbWrd
0.509756098,-0.256097561,1,0,0,25.382,00065,2023-10-16_15h55.56.159,vbt_B1_day1,2022.2.4,MacIntel,26.31578947,,,,,,,,,,,,,,,,,,,,,,,,,,,,,,,,,,,,,,,,,,,,,,,,,,,,,,,,,
,,,,,,00065,2023-10-16_15h55.56.159,vbt_B1_day1,2022.2.4,MacIntel,26.31578947,0.293902439,-0.212195122,1,0,0,4.476,,,,,,,,,,,,,,,,,,,,,,,,,,,,,,,,,,,,,,,,,,,,,,,,,,,
,,,,,,00065,2023-10-16_15h55.56.159,vbt_B1_day1,2022.2.4,MacIntel,26.31578947,,,,,,,0.337804878,-0.265853659,1,0,0,3.93,,,,,,,,,,,,,,,,,,,,,,,,,,,,,,,,,,,,,,,,,,,,,
,,,,,,00065,2023-10-16_15h55.56.159,vbt_B1_day1,2022.2.4,MacIntel,26.31578947,,,,,,,,,,,,,0.520731707,-0.195121951,1,0,0,46.556,,,,,,,,,,,,,,,,,,,,,,,,,,,,,,,,,,,,,,,
,,,,,,00065,2023-10-16_15h55.56.159,vbt_B1_day1,2022.2.4,MacIntel,26.31578947,,,,,,,,,,,,,,,,,,,0.42804878,-0.197560976,1,0,0,3.786,0,0,0,4,1,e,images/br_e.png,images/cb_e.png,,,,,,,,,,,,,,,,,,,,,,,,,
,,,,,,00065,2023-10-16_15h55.56.159,vbt_B1_day1,2022.2.4,MacIntel,26.31578947,,,,,,,,,,,,,,,,,,,0.448780488,-0.043902439,1,0,0,2.321,0,1,1,6,1,g,images/br_g.png,images/cb_g.png,,,,,,,,,,,,,,,,,,,,,,,,,
,,,,,,00065,2023-10-16_15h55.56.159,vbt_B1_day1,2022.2.4,MacIntel,26.31578947,,,,,,,,,,,,,,,,,,,0.443902439,-0.004878049,1,0,0,2.749,0,2,2,16,1,q,images/br_q.png,images/cb_q.png,,,,,,,,,,,,,,,,,,,,,,,,,
,,,,,,00065,2023-10-16_15h55.56.159,vbt_B1_day1,2022.2.4,MacIntel,26.31578947,,,,,,,,,,,,,,,,,,,0.518292683,-0.241463415,1,0,0,5.067,0,3,3,19,1,t,images/br_t.png,images/cb_t.png,,,,,,,,,,,,,,,,,,,,,,,,,
,,,,,,00065,2023-10-16_15h55.56.159,vbt_B1_day1,2022.2.4,MacIntel,26.31578947,,,,,,,,,,,,,,,,,,,0.47195122,-0.059756098,1,0,0,5.269,0,4,4,13,1,n,images/br_n.png,images/cb_n.png,,,,,,,,,,,,,,,,,,,,,,,,,
,,,,,,00065,2023-10-16_15h55.56.159,vbt_B1_day1,2022.2.4,MacIntel,26.31578947,,,,,,,,,,,,,,,,,,,0.436585366,-0.141463415,1,0,0,6.268,0,5,5,20,1,u,images/br_u.png,images/cb_u.png,,,,,,,,,,,,,,,,,,,,,,,,,
,,,,,,00065,2023-10-16_15h55.56.159,vbt_B1_day1,2022.2.4,MacIntel,26.31578947,,,,,,,,,,,,,,,,,,,0.48902439,-0.195121951,1,0,0,7.335,0,6,6,8,1,i,images/br_i.png,images/cb_i.png,,,,,,,,,,,,,,,,,,,,,,,,,
,,,,,,00065,2023-10-16_15h55.56.159,vbt_B1_day1,2022.2.4,MacIntel,26.31578947,,,,,,,,,,,,,,,,,,,0.484146341,-0.147560976,1,0,0,3.013,0,7,7,12,1,m,images/br_m.png,images/cb_m.png,,,,,,,,,,,,,,,,,,,,,,,,,
,,,,,,00065,2023-10-16_15h55.56.159,vbt_B1_day1,2022.2.4,MacIntel,26.31578947,,,,,,,,,,,,,,,,,,,0.47804878,-0.107317073,1,0,0,7.468,0,8,8,24,1,y,images/br_y.png,images/cb_y.png,,,,,,,,,,,,,,,,,,,,,,,,,
,,,,,,00065,2023-10-16_15h55.56.159,vbt_B1_day1,2022.2.4,MacIntel,26.31578947,,,,,,,,,,,,,,,,,,,0.446341463,-0.137804878,1,0,0,4.288,0,9,9,15,1,p,images/br_p.png,images/cb_p.png,,,,,,,,,,,,,,,,,,,,,,,,,
,,,,,,00065,2023-10-16_15h55.56.159,vbt_B1_day1,2022.2.4,MacIntel,26.31578947,,,,,,,,,,,,,,,,,,,0.441463415,-0.073170732,1,0,0,5.402,0,10,10,14,1,o,images/br_o.png,images/cb_o.png,,,,,,,,,,,,,,,,,,,,,,,,,
,,,,,,00065,2023-10-16_15h55.56.159,vbt_B1_day1,2022.2.4,MacIntel,26.31578947,,,,,,,,,,,,,,,,,,,0.436585366,-0.096341463,1,0,0,7.088,0,11,11,25,1,z,images/br_z.png,images/cb_z.png,,,,,,,,,,,,,,,,,,,,,,,,,
,,,,,,00065,2023-10-16_15h55.56.159,vbt_B1_day1,2022.2.4,MacIntel,26.31578947,,,,,,,,,,,,,,,,,,,0.519512195,-0.157317073,1,0,0,6.935,0,12,12,17,1,r,images/br_r.png,images/cb_r.png,,,,,,,,,,,,,,,,,,,,,,,,,
,,,,,,00065,2023-10-16_15h55.56.159,vbt_B1_day1,2022.2.4,MacIntel,26.31578947,,,,,,,,,,,,,,,,,,,0.543902439,-0.201219512,1,0,0,5.415,0,13,13,9,1,j,images/br_j.png,images/cb_j.png,,,,,,,,,,,,,,,,,,,,,,,,,
,,,,,,00065,2023-10-16_15h55.56.159,vbt_B1_day1,2022.2.4,MacIntel,26.31578947,,,,,,,,,,,,,,,,,,,0.486585366,-0.079268293,1,0,0,4.902,0,14,14,10,1,k,images/br_k.png,images/cb_k.png,,,,,,,,,,,,,,,,,,,,,,,,,
,,,,,,00065,2023-10-16_15h55.56.159,vbt_B1_day1,2022.2.4,MacIntel,26.31578947,,,,,,,,,,,,,,,,,,,0.506097561,-0.213414634,1,0,0,5.682,0,15,15,2,1,c,images/br_c.png,images/cb_c.png,,,,,,,,,,,,,,,,,,,,,,,,,
,,,,,,00065,2023-10-16_15h55.56.159,vbt_B1_day1,2022.2.4,MacIntel,26.31578947,,,,,,,,,,,,,,,,,,,0.504878049,-0.123170732,1,0,0,5.516,0,16,16,23,1,x,images/br_x.png,images/cb_x.png,,,,,,,,,,,,,,,,,,,,,,,,,
,,,,,,00065,2023-10-16_15h55.56.159,vbt_B1_day1,2022.2.4,MacIntel,26.31578947,,,,,,,,,,,,,,,,,,,0.464634146,-0.07804878,1,0,0,6.62,0,17,17,21,1,v,images/br_v.png,images/cb_v.png,,,,,,,,,,,,,,,,,,,,,,,,,
,,,,,,00065,2023-10-16_15h55.56.159,vbt_B1_day1,2022.2.4,MacIntel,26.31578947,,,,,,,,,,,,,,,,,,,0.48902439,-0.108536585,1,0,0,3.535,0,18,18,11,1,l,images/br_l.png,images/cb_l.png,,,,,,,,,,,,,,,,,,,,,,,,,
,,,,,,00065,2023-10-16_15h55.56.159,vbt_B1_day1,2022.2.4,MacIntel,26.31578947,,,,,,,,,,,,,,,,,,,0.46097561,0,1,0,0,5.454,0,19,19,0,1,a,images/br_a.png,images/cb_a.png,,,,,,,,,,,,,,,,,,,,,,,,,
,,,,,,00065,2023-10-16_15h55.56.159,vbt_B1_day1,2022.2.4,MacIntel,26.31578947,,,,,,,,,,,,,,,,,,,0.497560976,-0.23902439,1,0,0,6.218,0,20,20,3,1,d,images/br_d.png,images/cb_d.png,,,,,,,,,,,,,,,,,,,,,,,,,
,,,,,,00065,2023-10-16_15h55.56.159,vbt_B1_day1,2022.2.4,MacIntel,26.31578947,,,,,,,,,,,,,,,,,,,0.431707317,-0.134146341,1,0,0,16.019,0,21,21,5,1,f,images/br_f.png,images/cb_f.png,,,,,,,,,,,,,,,,,,,,,,,,,
,,,,,,00065,2023-10-16_15h55.56.159,vbt_B1_day1,2022.2.4,MacIntel,26.31578947,,,,,,,,,,,,,,,,,,,0.35,-0.164634146,1,0,0,29.584,0,22,22,22,1,w,images/br_w.png,images/cb_w.png,,,,,,,,,,,,,,,,,,,,,,,,,
,,,,,,00065,2023-10-16_15h55.56.159,vbt_B1_day1,2022.2.4,MacIntel,26.31578947,,,,,,,,,,,,,,,,,,,0.423170732,-0.162195122,1,0,0,10.9,0,23,23,7,1,h,images/br_h.png,images/cb_h.png,,,,,,,,,,,,,,,,,,,,,,,,,
,,,,,,00065,2023-10-16_15h55.56.159,vbt_B1_day1,2022.2.4,MacIntel,26.31578947,,,,,,,,,,,,,,,,,,,0.481707317,-0.057317073,1,0,0,4.355,0,24,24,18,1,s,images/br_s.png,images/cb_s.png,,,,,,,,,,,,,,,,,,,,,,,,,
,,,,,,00065,2023-10-16_15h55.56.159,vbt_B1_day1,2022.2.4,MacIntel,26.31578947,,,,,,,,,,,,,,,,,,,0.503658537,-0.042682927,1,0,0,11.821,0,25,25,1,1,b,images/br_b.png,images/cb_b.png,,,,,,,,,,,,,,,,,,,,,,,,,
,,,,,,00065,2023-10-16_15h55.56.159,vbt_B1_day1,2022.2.4,MacIntel,26.31578947,,,,,,,,,,,,,,,,,,,0.468292683,-0.131707317,1,0,0,13.554,1,0,26,0,1,a,images/br_a.png,images/cb_a.png,,,,,,,,,,,,,,,,,,,,,,,,,
,,,,,,00065,2023-10-16_15h55.56.159,vbt_B1_day1,2022.2.4,MacIntel,26.31578947,,,,,,,,,,,,,,,,,,,0.515853659,-0.153658537,1,0,0,2.601,1,1,27,18,1,s,images/br_s.png,images/cb_s.png,,,,,,,,,,,,,,,,,,,,,,,,,
,,,,,,00065,2023-10-16_15h55.56.159,vbt_B1_day1,2022.2.4,MacIntel,26.31578947,,,,,,,,,,,,,,,,,,,0.493902439,-0.129268293,1,0,0,13.868,1,2,28,16,1,q,images/br_q.png,images/cb_q.png,,,,,,,,,,,,,,,,,,,,,,,,,
,,,,,,00065,2023-10-16_15h55.56.159,vbt_B1_day1,2022.2.4,MacIntel,26.31578947,,,,,,,,,,,,,,,,,,,0.45,-0.320731707,1,0,0,13.837,1,3,29,2,1,c,images/br_c.png,images/cb_c.png,,,,,,,,,,,,,,,,,,,,,,,,,
,,,,,,00065,2023-10-16_15h55.56.159,vbt_B1_day1,2022.2.4,MacIntel,26.31578947,,,,,,,,,,,,,,,,,,,0.480487805,-0.175609756,1,0,0,10.504,1,4,30,14,1,o,images/br_o.png,images/cb_o.png,,,,,,,,,,,,,,,,,,,,,,,,,
,,,,,,00065,2023-10-16_15h55.56.159,vbt_B1_day1,2022.2.4,MacIntel,26.31578947,,,,,,,,,,,,,,,,,,,0.291463415,-0.024390244,1,0,0,31.697,1,5,31,9,1,j,images/br_j.png,images/cb_j.png,,,,,,,,,,,,,,,,,,,,,,,,,
,,,,,,00065,2023-10-16_15h55.56.159,vbt_B1_day1,2022.2.4,MacIntel,26.31578947,,,,,,,,,,,,,,,,,,,0.367073171,-0.087804878,1,0,0,1.234,1,6,32,11,1,l,images/br_l.png,images/cb_l.png,,,,,,,,,,,,,,,,,,,,,,,,,
,,,,,,00065,2023-10-16_15h55.56.159,vbt_B1_day1,2022.2.4,MacIntel,26.31578947,,,,,,,,,,,,,,,,,,,0.459756098,-0.163414634,1,0,0,4.568,1,7,33,12,1,m,images/br_m.png,images/cb_m.png,,,,,,,,,,,,,,,,,,,,,,,,,
,,,,,,00065,2023-10-16_15h55.56.159,vbt_B1_day1,2022.2.4,MacIntel,26.31578947,,,,,,,,,,,,,,,,,,,0.412195122,-0.18902439,1,0,0,7.914,1,8,34,1,1,b,images/br_b.png,images/cb_b.png,,,,,,,,,,,,,,,,,,,,,,,,,
,,,,,,00065,2023-10-16_15h55.56.159,vbt_B1_day1,2022.2.4,MacIntel,26.31578947,,,,,,,,,,,,,,,,,,,0.380487805,-0.201219512,1,0,0,6.001,1,9,35,6,1,g,images/br_g.png,images/cb_g.png,,,,,,,,,,,,,,,,,,,,,,,,,
,,,,,,00065,2023-10-16_15h55.56.159,vbt_B1_day1,2022.2.4,MacIntel,26.31578947,,,,,,,,,,,,,,,,,,,0.41097561,-0.045121951,1,0,0,19.334,1,10,36,13,1,n,images/br_n.png,images/cb_n.png,,,,,,,,,,,,,,,,,,,,,,,,,
,,,,,,00065,2023-10-16_15h55.56.159,vbt_B1_day1,2022.2.4,MacIntel,26.31578947,,,,,,,,,,,,,,,,,,,0.523170732,-0.274390244,1,0,0,22.552,1,11,37,8,1,i,images/br_i.png,images/cb_i.png,,,,,,,,,,,,,,,,,,,,,,,,,
,,,,,,00065,2023-10-16_15h55.56.159,vbt_B1_day1,2022.2.4,MacIntel,26.31578947,,,,,,,,,,,,,,,,,,,0.473170732,-0.135365854,1,0,0,13.5,1,12,38,23,1,x,images/br_x.png,images/cb_x.png,,,,,,,,,,,,,,,,,,,,,,,,,
,,,,,,00065,2023-10-16_15h55.56.159,vbt_B1_day1,2022.2.4,MacIntel,26.31578947,,,,,,,,,,,,,,,,,,,0.454878049,-0.169512195,1,0,0,7.952,1,13,39,7,1,h,images/br_h.png,images/cb_h.png,,,,,,,,,,,,,,,,,,,,,,,,,
,,,,,,00065,2023-10-16_15h55.56.159,vbt_B1_day1,2022.2.4,MacIntel,26.31578947,,,,,,,,,,,,,,,,,,,0.426829268,-0.123170732,1,0,0,18.401,1,14,40,21,1,v,images/br_v.png,images/cb_v.png,,,,,,,,,,,,,,,,,,,,,,,,,
,,,,,,00065,2023-10-16_15h55.56.159,vbt_B1_day1,2022.2.4,MacIntel,26.31578947,,,,,,,,,,,,,,,,,,,0.37195122,-0.073170732,1,0,0,20.119,1,15,41,19,1,t,images/br_t.png,images/cb_t.png,,,,,,,,,,,,,,,,,,,,,,,,,
,,,,,,00065,2023-10-16_15h55.56.159,vbt_B1_day1,2022.2.4,MacIntel,26.31578947,,,,,,,,,,,,,,,,,,,0.440243902,-0.058536585,1,0,0,13.718,1,16,42,24,1,y,images/br_y.png,images/cb_y.png,,,,,,,,,,,,,,,,,,,,,,,,,
,,,,,,00065,2023-10-16_15h55.56.159,vbt_B1_day1,2022.2.4,MacIntel,26.31578947,,,,,,,,,,,,,,,,,,,0.370731707,-0.090243902,1,0,0,11.853,1,17,43,20,1,u,images/br_u.png,images/cb_u.png,,,,,,,,,,,,,,,,,,,,,,,,,
,,,,,,00065,2023-10-16_15h55.56.159,vbt_B1_day1,2022.2.4,MacIntel,26.31578947,,,,,,,,,,,,,,,,,,,0.403658537,-0.045121951,1,0,0,46.548,1,18,44,25,1,z,images/br_z.png,images/cb_z.png,,,,,,,,,,,,,,,,,,,,,,,,,
,,,,,,00065,2023-10-16_15h55.56.159,vbt_B1_day1,2022.2.4,MacIntel,26.31578947,,,,,,,,,,,,,,,,,,,0.423170732,-0.130487805,1,0,0,11.134,1,19,45,10,1,k,images/br_k.png,images/cb_k.png,,,,,,,,,,,,,,,,,,,,,,,,,
,,,,,,00065,2023-10-16_15h55.56.159,vbt_B1_day1,2022.2.4,MacIntel,26.31578947,,,,,,,,,,,,,,,,,,,0.375609756,-0.12804878,1,0,0,9.479,1,20,46,22,1,w,images/br_w.png,images/cb_w.png,,,,,,,,,,,,,,,,,,,,,,,,,
,,,,,,00065,2023-10-16_15h55.56.159,vbt_B1_day1,2022.2.4,MacIntel,26.31578947,,,,,,,,,,,,,,,,,,,0.432926829,0.003658537,1,0,0,16.454,1,21,47,3,1,d,images/br_d.png,images/cb_d.png,,,,,,,,,,,,,,,,,,,,,,,,,
,,,,,,00065,2023-10-16_15h55.56.159,vbt_B1_day1,2022.2.4,MacIntel,26.31578947,,,,,,,,,,,,,,,,,,,0.404878049,-0.097560976,1,0,0,7.72,1,22,48,4,1,e,images/br_e.png,images/cb_e.png,,,,,,,,,,,,,,,,,,,,,,,,,
,,,,,,00065,2023-10-16_15h55.56.159,vbt_B1_day1,2022.2.4,MacIntel,26.31578947,,,,,,,,,,,,,,,,,,,0.454878049,-0.148780488,1,0,0,3.303,1,23,49,5,1,f,images/br_f.png,images/cb_f.png,,,,,,,,,,,,,,,,,,,,,,,,,
,,,,,,00065,2023-10-16_15h55.56.159,vbt_B1_day1,2022.2.4,MacIntel,26.31578947,,,,,,,,,,,,,,,,,,,0.453658537,-0.084146341,1,0,0,10.382,1,24,50,15,1,p,images/br_p.png,images/cb_p.png,,,,,,,,,,,,,,,,,,,,,,,,,
,,,,,,00065,2023-10-16_15h55.56.159,vbt_B1_day1,2022.2.4,MacIntel,26.31578947,,,,,,,,,,,,,,,,,,,0.47804878,-0.037804878,1,0,0,10.353,1,25,51,17,1,r,images/br_r.png,images/cb_r.png,,,,,,,,,,,,,,,,,,,,,,,,,
,,,,,,00065,2023-10-16_15h55.56.159,vbt_B1_day1,2022.2.4,MacIntel,26.31578947,,,,,,,,,,,,,,,,,,,0.36097561,-0.101219512,1,0,0,1.833,2,0,52,22,1,w,images/br_w.png,images/cb_w.png,,,,,,,,,,,,,,,,,,,,,,,,,
,,,,,,00065,2023-10-16_15h55.56.159,vbt_B1_day1,2022.2.4,MacIntel,26.31578947,,,,,,,,,,,,,,,,,,,0.351219512,-0.036585366,1,0,0,0.981,2,1,53,3,1,d,images/br_d.png,images/cb_d.png,,,,,,,,,,,,,,,,,,,,,,,,,
,,,,,,00065,2023-10-16_15h55.56.159,vbt_B1_day1,2022.2.4,MacIntel,26.31578947,,,,,,,,,,,,,,,,,,,0.376829268,-0.102439024,1,0,0,9.186,2,2,54,8,1,i,images/br_i.png,images/cb_i.png,,,,,,,,,,,,,,,,,,,,,,,,,
,,,,,,00065,2023-10-16_15h55.56.159,vbt_B1_day1,2022.2.4,MacIntel,26.31578947,,,,,,,,,,,,,,,,,,,0.356097561,-0.085365854,1,0,0,1.167,2,3,55,16,1,q,images/br_q.png,images/cb_q.png,,,,,,,,,,,,,,,,,,,,,,,,,
,,,,,,00065,2023-10-16_15h55.56.159,vbt_B1_day1,2022.2.4,MacIntel,26.31578947,,,,,,,,,,,,,,,,,,,0.385365854,-0.136585366,1,0,0,8.801,2,4,56,20,1,u,images/br_u.png,images/cb_u.png,,,,,,,,,,,,,,,,,,,,,,,,,
,,,,,,00065,2023-10-16_15h55.56.159,vbt_B1_day1,2022.2.4,MacIntel,26.31578947,,,,,,,,,,,,,,,,,,,0.374390244,-0.168292683,1,0,0,0.536,2,5,57,25,1,z,images/br_z.png,images/cb_z.png,,,,,,,,,,,,,,,,,,,,,,,,,
,,,,,,00065,2023-10-16_15h55.56.159,vbt_B1_day1,2022.2.4,MacIntel,26.31578947,,,,,,,,,,,,,,,,,,,0.358536585,-0.167073171,1,0,0,5.62,2,6,58,13,1,n,images/br_n.png,images/cb_n.png,,,,,,,,,,,,,,,,,,,,,,,,,
,,,,,,00065,2023-10-16_15h55.56.159,vbt_B1_day1,2022.2.4,MacIntel,26.31578947,,,,,,,,,,,,,,,,,,,0.313414634,-0.11097561,1,0,0,0.501,2,7,59,10,1,k,images/br_k.png,images/cb_k.png,,,,,,,,,,,,,,,,,,,,,,,,,
,,,,,,00065,2023-10-16_15h55.56.159,vbt_B1_day1,2022.2.4,MacIntel,26.31578947,,,,,,,,,,,,,,,,,,,0.375609756,-0.13902439,1,0,0,1.635,2,8,60,24,1,y,images/br_y.png,images/cb_y.png,,,,,,,,,,,,,,,,,,,,,,,,,
,,,,,,00065,2023-10-16_15h55.56.159,vbt_B1_day1,2022.2.4,MacIntel,26.31578947,,,,,,,,,,,,,,,,,,,0.31097561,-0.195121951,1,0,0,0.613,2,9,61,4,1,e,images/br_e.png,images/cb_e.png,,,,,,,,,,,,,,,,,,,,,,,,,
,,,,,,00065,2023-10-16_15h55.56.159,vbt_B1_day1,2022.2.4,MacIntel,26.31578947,,,,,,,,,,,,,,,,,,,0.445121951,-0.17195122,1,0,0,10.951,2,10,62,12,1,m,images/br_m.png,images/cb_m.png,,,,,,,,,,,,,,,,,,,,,,,,,
,,,,,,00065,2023-10-16_15h55.56.159,vbt_B1_day1,2022.2.4,MacIntel,26.31578947,,,,,,,,,,,,,,,,,,,0.306097561,-0.175609756,1,0,0,1.348,2,11,63,23,1,x,images/br_x.png,images/cb_x.png,,,,,,,,,,,,,,,,,,,,,,,,,
,,,,,,00065,2023-10-16_15h55.56.159,vbt_B1_day1,2022.2.4,MacIntel,26.31578947,,,,,,,,,,,,,,,,,,,0.440243902,-0.057317073,1,0,0,10.72,2,12,64,17,1,r,images/br_r.png,images/cb_r.png,,,,,,,,,,,,,,,,,,,,,,,,,
,,,,,,00065,2023-10-16_15h55.56.159,vbt_B1_day1,2022.2.4,MacIntel,26.31578947,,,,,,,,,,,,,,,,,,,0.485365854,-0.168292683,1,0,0,6.304,2,13,65,0,1,a,images/br_a.png,images/cb_a.png,,,,,,,,,,,,,,,,,,,,,,,,,
,,,,,,00065,2023-10-16_15h55.56.159,vbt_B1_day1,2022.2.4,MacIntel,26.31578947,,,,,,,,,,,,,,,,,,,0.413414634,-0.175609756,1,0,0,9.749,2,14,66,6,1,g,images/br_g.png,images/cb_g.png,,,,,,,,,,,,,,,,,,,,,,,,,
,,,,,,00065,2023-10-16_15h55.56.159,vbt_B1_day1,2022.2.4,MacIntel,26.31578947,,,,,,,,,,,,,,,,,,,0.47195122,-0.181707317,1,0,0,0.502,2,15,67,7,1,h,images/br_h.png,images/cb_h.png,,,,,,,,,,,,,,,,,,,,,,,,,
,,,,,,00065,2023-10-16_15h55.56.159,vbt_B1_day1,2022.2.4,MacIntel,26.31578947,,,,,,,,,,,,,,,,,,,0.432926829,-0.246341463,1,0,0,8.379,2,16,68,21,1,v,images/br_v.png,images/cb_v.png,,,,,,,,,,,,,,,,,,,,,,,,,
,,,,,,00065,2023-10-16_15h55.56.159,vbt_B1_day1,2022.2.4,MacIntel,26.31578947,,,,,,,,,,,,,,,,,,,0.442682927,-0.152439024,1,0,0,7.335,2,17,69,19,1,t,images/br_t.png,images/cb_t.png,,,,,,,,,,,,,,,,,,,,,,,,,
,,,,,,00065,2023-10-16_15h55.56.159,vbt_B1_day1,2022.2.4,MacIntel,26.31578947,,,,,,,,,,,,,,,,,,,0.474390244,-0.186585366,1,0,0,6.054,2,18,70,18,1,s,images/br_s.png,images/cb_s.png,,,,,,,,,,,,,,,,,,,,,,,,,
,,,,,,00065,2023-10-16_15h55.56.159,vbt_B1_day1,2022.2.4,MacIntel,26.31578947,,,,,,,,,,,,,,,,,,,0.479268293,-0.287804878,1,0,0,4.183,2,19,71,2,1,c,images/br_c.png,images/cb_c.png,,,,,,,,,,,,,,,,,,,,,,,,,
,,,,,,00065,2023-10-16_15h55.56.159,vbt_B1_day1,2022.2.4,MacIntel,26.31578947,,,,,,,,,,,,,,,,,,,0.463414634,-0.264634146,1,0,0,0.95,2,20,72,1,1,b,images/br_b.png,images/cb_b.png,,,,,,,,,,,,,,,,,,,,,,,,,
,,,,,,00065,2023-10-16_15h55.56.159,vbt_B1_day1,2022.2.4,MacIntel,26.31578947,,,,,,,,,,,,,,,,,,,0.487804878,-0.265853659,1,0,0,0.488,2,21,73,5,1,f,images/br_f.png,images/cb_f.png,,,,,,,,,,,,,,,,,,,,,,,,,
,,,,,,00065,2023-10-16_15h55.56.159,vbt_B1_day1,2022.2.4,MacIntel,26.31578947,,,,,,,,,,,,,,,,,,,0.437804878,-0.230487805,1,0,0,3.534,2,22,74,14,1,o,images/br_o.png,images/cb_o.png,,,,,,,,,,,,,,,,,,,,,,,,,
,,,,,,00065,2023-10-16_15h55.56.159,vbt_B1_day1,2022.2.4,MacIntel,26.31578947,,,,,,,,,,,,,,,,,,,0.397560976,-0.173170732,1,0,0,1.804,2,23,75,11,1,l,images/br_l.png,images/cb_l.png,,,,,,,,,,,,,,,,,,,,,,,,,
,,,,,,00065,2023-10-16_15h55.56.159,vbt_B1_day1,2022.2.4,MacIntel,26.31578947,,,,,,,,,,,,,,,,,,,0.352439024,0.114634146,1,0,0,4.068,2,24,76,15,1,p,images/br_p.png,images/cb_p.png,,,,,,,,,,,,,,,,,,,,,,,,,
,,,,,,00065,2023-10-16_15h55.56.159,vbt_B1_day1,2022.2.4,MacIntel,26.31578947,,,,,,,,,,,,,,,,,,,0.508536585,-0.169512195,1,0,0,5.787,2,25,77,9,1,j,images/br_j.png,images/cb_j.png,,,,,,,,,,,,,,,,,,,,,,,,,
,,,,,,00065,2023-10-16_15h55.56.159,vbt_B1_day1,2022.2.4,MacIntel,26.31578947,,,,,,,,,,,,,,,,,,,0.481707317,-0.224390244,1,0,0,2.917,3,0,78,1,1,b,images/br_b.png,images/cb_b.png,,,,,,,,,,,,,,,,,,,,,,,,,
,,,,,,00065,2023-10-16_15h55.56.159,vbt_B1_day1,2022.2.4,MacIntel,26.31578947,,,,,,,,,,,,,,,,,,,0.43902439,-0.159756098,1,0,0,1.501,3,1,79,0,1,a,images/br_a.png,images/cb_a.png,,,,,,,,,,,,,,,,,,,,,,,,,
,,,,,,00065,2023-10-16_15h55.56.159,vbt_B1_day1,2022.2.4,MacIntel,26.31578947,,,,,,,,,,,,,,,,,,,0.418292683,-0.182926829,1,0,0,2.034,3,2,80,9,1,j,images/br_j.png,images/cb_j.png,,,,,,,,,,,,,,,,,,,,,,,,,
,,,,,,00065,2023-10-16_15h55.56.159,vbt_B1_day1,2022.2.4,MacIntel,26.31578947,,,,,,,,,,,,,,,,,,,0.441463415,-0.173170732,1,0,0,0.053,3,3,81,21,1,v,images/br_v.png,images/cb_v.png,,,,,,,,,,,,,,,,,,,,,,,,,
,,,,,,00065,2023-10-16_15h55.56.159,vbt_B1_day1,2022.2.4,MacIntel,26.31578947,,,,,,,,,,,,,,,,,,,0.379268293,-0.257317073,1,0,0,2.233,3,4,82,12,1,m,images/br_m.png,images/cb_m.png,,,,,,,,,,,,,,,,,,,,,,,,,
,,,,,,00065,2023-10-16_15h55.56.159,vbt_B1_day1,2022.2.4,MacIntel,26.31578947,,,,,,,,,,,,,,,,,,,0.456097561,-0.212195122,1,0,0,5.222,3,5,83,2,1,c,images/br_c.png,images/cb_c.png,,,,,,,,,,,,,,,,,,,,,,,,,
,,,,,,00065,2023-10-16_15h55.56.159,vbt_B1_day1,2022.2.4,MacIntel,26.31578947,,,,,,,,,,,,,,,,,,,0.403658537,-0.246341463,1,0,0,4.768,3,6,84,25,1,z,images/br_z.png,images/cb_z.png,,,,,,,,,,,,,,,,,,,,,,,,,
,,,,,,00065,2023-10-16_15h55.56.159,vbt_B1_day1,2022.2.4,MacIntel,26.31578947,,,,,,,,,,,,,,,,,,,0.285365854,-0.176829268,1,0,0,0.269,3,7,85,19,1,t,images/br_t.png,images/cb_t.png,,,,,,,,,,,,,,,,,,,,,,,,,
,,,,,,00065,2023-10-16_15h55.56.159,vbt_B1_day1,2022.2.4,MacIntel,26.31578947,,,,,,,,,,,,,,,,,,,0.418292683,-0.213414634,1,0,0,3.503,3,8,86,8,1,i,images/br_i.png,images/cb_i.png,,,,,,,,,,,,,,,,,,,,,,,,,
,,,,,,00065,2023-10-16_15h55.56.159,vbt_B1_day1,2022.2.4,MacIntel,26.31578947,,,,,,,,,,,,,,,,,,,0.401219512,-0.206097561,1,0,0,0.352,3,9,87,20,1,u,images/br_u.png,images/cb_u.png,,,,,,,,,,,,,,,,,,,,,,,,,
,,,,,,00065,2023-10-16_15h55.56.159,vbt_B1_day1,2022.2.4,MacIntel,26.31578947,,,,,,,,,,,,,,,,,,,0.440243902,-0.195121951,1,0,0,1.221,3,10,88,14,1,o,images/br_o.png,images/cb_o.png,,,,,,,,,,,,,,,,,,,,,,,,,
,,,,,,00065,2023-10-16_15h55.56.159,vbt_B1_day1,2022.2.4,MacIntel,26.31578947,,,,,,,,,,,,,,,,,,,0.33902439,-0.070731707,1,0,0,0.933,3,11,89,23,1,x,images/br_x.png,images/cb_x.png,,,,,,,,,,,,,,,,,,,,,,,,,
,,,,,,00065,2023-10-16_15h55.56.159,vbt_B1_day1,2022.2.4,MacIntel,26.31578947,,,,,,,,,,,,,,,,,,,0.323170732,-0.163414634,1,0,0,1.42,3,12,90,10,1,k,images/br_k.png,images/cb_k.png,,,,,,,,,,,,,,,,,,,,,,,,,
,,,,,,00065,2023-10-16_15h55.56.159,vbt_B1_day1,2022.2.4,MacIntel,26.31578947,,,,,,,,,,,,,,,,,,,0.276829268,-0.103658537,1,0,0,0.317,3,13,91,22,1,w,images/br_w.png,images/cb_w.png,,,,,,,,,,,,,,,,,,,,,,,,,
,,,,,,00065,2023-10-16_15h55.56.159,vbt_B1_day1,2022.2.4,MacIntel,26.31578947,,,,,,,,,,,,,,,,,,,0.269512195,-0.104878049,1,0,0,1.216,3,14,92,11,1,l,images/br_l.png,images/cb_l.png,,,,,,,,,,,,,,,,,,,,,,,,,
,,,,,,00065,2023-10-16_15h55.56.159,vbt_B1_day1,2022.2.4,MacIntel,26.31578947,,,,,,,,,,,,,,,,,,,0.404878049,-0.118292683,1,0,0,4.022,3,15,93,5,1,f,images/br_f.png,images/cb_f.png,,,,,,,,,,,,,,,,,,,,,,,,,
,,,,,,00065,2023-10-16_15h55.56.159,vbt_B1_day1,2022.2.4,MacIntel,26.31578947,,,,,,,,,,,,,,,,,,,0.436585366,-0.11097561,1,0,0,1.256,3,16,94,13,1,n,images/br_n.png,images/cb_n.png,,,,,,,,,,,,,,,,,,,,,,,,,
,,,,,,00065,2023-10-16_15h55.56.159,vbt_B1_day1,2022.2.4,MacIntel,26.31578947,,,,,,,,,,,,,,,,,,,0.381707317,-0.040243902,1,0,0,4.054,3,17,95,17,1,r,images/br_r.png,images/cb_r.png,,,,,,,,,,,,,,,,,,,,,,,,,
,,,,,,00065,2023-10-16_15h55.56.159,vbt_B1_day1,2022.2.4,MacIntel,26.31578947,,,,,,,,,,,,,,,,,,,0.270731707,-0.073170732,1,0,0,1.169,3,18,96,3,1,d,images/br_d.png,images/cb_d.png,,,,,,,,,,,,,,,,,,,,,,,,,
,,,,,,00065,2023-10-16_15h55.56.159,vbt_B1_day1,2022.2.4,MacIntel,26.31578947,,,,,,,,,,,,,,,,,,,0.302439024,-0.029268293,1,0,0,3.616,3,19,97,15,1,p,images/br_p.png,images/cb_p.png,,,,,,,,,,,,,,,,,,,,,,,,,
,,,,,,00065,2023-10-16_15h55.56.159,vbt_B1_day1,2022.2.4,MacIntel,26.31578947,,,,,,,,,,,,,,,,,,,0.264634146,-0.242682927,1,0,0,1.222,3,20,98,7,1,h,images/br_h.png,images/cb_h.png,,,,,,,,,,,,,,,,,,,,,,,,,
,,,,,,00065,2023-10-16_15h55.56.159,vbt_B1_day1,2022.2.4,MacIntel,26.31578947,,,,,,,,,,,,,,,,,,,0.309756098,-0.067073171,1,0,0,0.687,3,21,99,16,1,q,images/br_q.png,images/cb_q.png,,,,,,,,,,,,,,,,,,,,,,,,,
,,,,,,00065,2023-10-16_15h55.56.159,vbt_B1_day1,2022.2.4,MacIntel,26.31578947,,,,,,,,,,,,,,,,,,,0.31097561,-0.091463415,1,0,0,0.789,3,22,100,4,1,e,images/br_e.png,images/cb_e.png,,,,,,,,,,,,,,,,,,,,,,,,,
,,,,,,00065,2023-10-16_15h55.56.159,vbt_B1_day1,2022.2.4,MacIntel,26.31578947,,,,,,,,,,,,,,,,,,,0.319512195,-0.043902439,1,0,0,2.403,3,23,101,18,1,s,images/br_s.png,images/cb_s.png,,,,,,,,,,,,,,,,,,,,,,,,,
,,,,,,00065,2023-10-16_15h55.56.159,vbt_B1_day1,2022.2.4,MacIntel,26.31578947,,,,,,,,,,,,,,,,,,,0.220731707,-0.051219512,1,0,0,0.849,3,24,102,24,1,y,images/br_y.png,images/cb_y.png,,,,,,,,,,,,,,,,,,,,,,,,,
,,,,,,00065,2023-10-16_15h55.56.159,vbt_B1_day1,2022.2.4,MacIntel,26.31578947,,,,,,,,,,,,,,,,,,,0.309756098,-0.029268293,1,0,0,2.935,3,25,103,6,1,g,images/br_g.png,images/cb_g.png,,,,,,,,,,,,,,,,,,,,,,,,,
,,,,,,00065,2023-10-16_15h55.56.159,vbt_B1_day1,2022.2.4,MacIntel,26.31578947,,,,,,,,,,,,,,,,,,,0.295121951,-0.067073171,1,0,0,1.969,4,0,104,20,1,u,images/br_u.png,images/cb_u.png,,,,,,,,,,,,,,,,,,,,,,,,,
,,,,,,00065,2023-10-16_15h55.56.159,vbt_B1_day1,2022.2.4,MacIntel,26.31578947,,,,,,,,,,,,,,,,,,,0.282926829,-0.08902439,1,0,0,9.701,4,1,105,14,1,o,images/br_o.png,images/cb_o.png,,,,,,,,,,,,,,,,,,,,,,,,,
,,,,,,00065,2023-10-16_15h55.56.159,vbt_B1_day1,2022.2.4,MacIntel,26.31578947,,,,,,,,,,,,,,,,,,,0.285365854,-0.003658537,1,0,0,0.949,4,2,106,5,1,f,images/br_f.png,images/cb_f.png,,,,,,,,,,,,,,,,,,,,,,,,,
,,,,,,00065,2023-10-16_15h55.56.159,vbt_B1_day1,2022.2.4,MacIntel,26.31578947,,,,,,,,,,,,,,,,,,,0.232926829,-0.095121951,1,0,0,2.869,4,3,107,1,1,b,images/br_b.png,images/cb_b.png,,,,,,,,,,,,,,,,,,,,,,,,,
,,,,,,00065,2023-10-16_15h55.56.159,vbt_B1_day1,2022.2.4,MacIntel,26.31578947,,,,,,,,,,,,,,,,,,,0.268292683,-0.073170732,1,0,0,2.521,4,4,108,0,1,a,images/br_a.png,images/cb_a.png,,,,,,,,,,,,,,,,,,,,,,,,,
,,,,,,00065,2023-10-16_15h55.56.159,vbt_B1_day1,2022.2.4,MacIntel,26.31578947,,,,,,,,,,,,,,,,,,,0.284146341,-0.01097561,1,0,0,1.037,4,5,109,7,1,h,images/br_h.png,images/cb_h.png,,,,,,,,,,,,,,,,,,,,,,,,,
,,,,,,00065,2023-10-16_15h55.56.159,vbt_B1_day1,2022.2.4,MacIntel,26.31578947,,,,,,,,,,,,,,,,,,,0.318292683,-0.01097561,1,0,0,0.454,4,6,110,24,1,y,images/br_y.png,images/cb_y.png,,,,,,,,,,,,,,,,,,,,,,,,,
,,,,,,00065,2023-10-16_15h55.56.159,vbt_B1_day1,2022.2.4,MacIntel,26.31578947,,,,,,,,,,,,,,,,,,,0.346341463,-0.025609756,1,0,0,0.502,4,7,111,10,1,k,images/br_k.png,images/cb_k.png,,,,,,,,,,,,,,,,,,,,,,,,,
,,,,,,00065,2023-10-16_15h55.56.159,vbt_B1_day1,2022.2.4,MacIntel,26.31578947,,,,,,,,,,,,,,,,,,,0.324390244,0.006097561,1,0,0,0.67,4,8,112,17,1,r,images/br_r.png,images/cb_r.png,,,,,,,,,,,,,,,,,,,,,,,,,
,,,,,,00065,2023-10-16_15h55.56.159,vbt_B1_day1,2022.2.4,MacIntel,26.31578947,,,,,,,,,,,,,,,,,,,0.248780488,-0.025609756,1,0,0,0.788,4,9,113,4,1,e,images/br_e.png,images/cb_e.png,,,,,,,,,,,,,,,,,,,,,,,,,
,,,,,,00065,2023-10-16_15h55.56.159,vbt_B1_day1,2022.2.4,MacIntel,26.31578947,,,,,,,,,,,,,,,,,,,0.337804878,-0.004878049,1,0,0,0.769,4,10,114,9,1,j,images/br_j.png,images/cb_j.png,,,,,,,,,,,,,,,,,,,,,,,,,
,,,,,,00065,2023-10-16_15h55.56.159,vbt_B1_day1,2022.2.4,MacIntel,26.31578947,,,,,,,,,,,,,,,,,,,0.275609756,-0.018292683,1,0,0,0.582,4,11,115,6,1,g,images/br_g.png,images/cb_g.png,,,,,,,,,,,,,,,,,,,,,,,,,
,,,,,,00065,2023-10-16_15h55.56.159,vbt_B1_day1,2022.2.4,MacIntel,26.31578947,,,,,,,,,,,,,,,,,,,0.32804878,-0.106097561,1,0,0,0.67,4,12,116,12,1,m,images/br_m.png,images/cb_m.png,,,,,,,,,,,,,,,,,,,,,,,,,
,,,,,,00065,2023-10-16_15h55.56.159,vbt_B1_day1,2022.2.4,MacIntel,26.31578947,,,,,,,,,,,,,,,,,,,0.32804878,-0.043902439,1,0,0,1.5,4,13,117,25,1,z,images/br_z.png,images/cb_z.png,,,,,,,,,,,,,,,,,,,,,,,,,
,,,,,,00065,2023-10-16_15h55.56.159,vbt_B1_day1,2022.2.4,MacIntel,26.31578947,,,,,,,,,,,,,,,,,,,0.347560976,-0.046341463,1,0,0,0.067,4,14,118,13,1,n,images/br_n.png,images/cb_n.png,,,,,,,,,,,,,,,,,,,,,,,,,
,,,,,,00065,2023-10-16_15h55.56.159,vbt_B1_day1,2022.2.4,MacIntel,26.31578947,,,,,,,,,,,,,,,,,,,0.304878049,-0.062195122,1,0,0,0.221,4,15,119,2,1,c,images/br_c.png,images/cb_c.png,,,,,,,,,,,,,,,,,,,,,,,,,
,,,,,,00065,2023-10-16_15h55.56.159,vbt_B1_day1,2022.2.4,MacIntel,26.31578947,,,,,,,,,,,,,,,,,,,0.376829268,0.003658537,1,0,0,0.399,4,16,120,3,1,d,images/br_d.png,images/cb_d.png,,,,,,,,,,,,,,,,,,,,,,,,,
,,,,,,00065,2023-10-16_15h55.56.159,vbt_B1_day1,2022.2.4,MacIntel,26.31578947,,,,,,,,,,,,,,,,,,,0.346341463,-0.029268293,1,0,0,0.75,4,17,121,15,1,p,images/br_p.png,images/cb_p.png,,,,,,,,,,,,,,,,,,,,,,,,,
,,,,,,00065,2023-10-16_15h55.56.159,vbt_B1_day1,2022.2.4,MacIntel,26.31578947,,,,,,,,,,,,,,,,,,,0.341463415,-0.067073171,1,0,0,0.302,4,18,122,8,1,i,images/br_i.png,images/cb_i.png,,,,,,,,,,,,,,,,,,,,,,,,,
,,,,,,00065,2023-10-16_15h55.56.159,vbt_B1_day1,2022.2.4,MacIntel,26.31578947,,,,,,,,,,,,,,,,,,,0.340243902,-0.02804878,1,0,0,0.62,4,19,123,23,1,x,images/br_x.png,images/cb_x.png,,,,,,,,,,,,,,,,,,,,,,,,,
,,,,,,00065,2023-10-16_15h55.56.159,vbt_B1_day1,2022.2.4,MacIntel,26.31578947,,,,,,,,,,,,,,,,,,,0.412195122,-0.019512195,1,0,0,4.768,4,20,124,18,1,s,images/br_s.png,images/cb_s.png,,,,,,,,,,,,,,,,,,,,,,,,,
,,,,,,00065,2023-10-16_15h55.56.159,vbt_B1_day1,2022.2.4,MacIntel,26.31578947,,,,,,,,,,,,,,,,,,,0.397560976,-0.007317073,1,0,0,0.234,4,21,125,21,1,v,images/br_v.png,images/cb_v.png,,,,,,,,,,,,,,,,,,,,,,,,,
,,,,,,00065,2023-10-16_15h55.56.159,vbt_B1_day1,2022.2.4,MacIntel,26.31578947,,,,,,,,,,,,,,,,,,,0.337804878,-0.064634146,1,0,0,1.05,4,22,126,22,1,w,images/br_w.png,images/cb_w.png,,,,,,,,,,,,,,,,,,,,,,,,,
,,,,,,00065,2023-10-16_15h55.56.159,vbt_B1_day1,2022.2.4,MacIntel,26.31578947,,,,,,,,,,,,,,,,,,,0.285365854,-0.051219512,1,0,0,0.634,4,23,127,11,1,l,images/br_l.png,images/cb_l.png,,,,,,,,,,,,,,,,,,,,,,,,,
,,,,,,00065,2023-10-16_15h55.56.159,vbt_B1_day1,2022.2.4,MacIntel,26.31578947,,,,,,,,,,,,,,,,,,,0.315853659,-0.052439024,1,0,0,0.102,4,24,128,19,1,t,images/br_t.png,images/cb_t.png,,,,,,,,,,,,,,,,,,,,,,,,,
,,,,,,00065,2023-10-16_15h55.56.159,vbt_B1_day1,2022.2.4,MacIntel,26.31578947,,,,,,,,,,,,,,,,,,,0.293902439,-0.034146341,1,0,0,0.303,4,25,129,16,1,q,images/br_q.png,images/cb_q.png,,,,,,,,,,,,,,,,,,,,,,,,,
,,,,,,00065,2023-10-16_15h55.56.159,vbt_B1_day1,2022.2.4,MacIntel,26.31578947,,,,,,,,,,,,,,,,,,,0.301219512,-0.035365854,1,0,0,1.253,5,0,130,23,1,x,images/br_x.png,images/cb_x.png,,,,,,,,,,,,,,,,,,,,,,,,,
,,,,,,00065,2023-10-16_15h55.56.159,vbt_B1_day1,2022.2.4,MacIntel,26.31578947,,,,,,,,,,,,,,,,,,,0.337804878,-0.043902439,1,0,0,1.254,5,1,131,5,1,f,images/br_f.png,images/cb_f.png,,,,,,,,,,,,,,,,,,,,,,,,,
,,,,,,00065,2023-10-16_15h55.56.159,vbt_B1_day1,2022.2.4,MacIntel,26.31578947,,,,,,,,,,,,,,,,,,,0.335365854,-0.057317073,1,0,0,1.048,5,2,132,15,1,p,images/br_p.png,images/cb_p.png,,,,,,,,,,,,,,,,,,,,,,,,,
,,,,,,00065,2023-10-16_15h55.56.159,vbt_B1_day1,2022.2.4,MacIntel,26.31578947,,,,,,,,,,,,,,,,,,,0.386585366,-0.019512195,1,0,0,2.822,5,3,133,10,1,k,images/br_k.png,images/cb_k.png,,,,,,,,,,,,,,,,,,,,,,,,,
,,,,,,00065,2023-10-16_15h55.56.159,vbt_B1_day1,2022.2.4,MacIntel,26.31578947,,,,,,,,,,,,,,,,,,,0.329268293,-0.025609756,1,0,0,13.189,5,4,134,0,1,a,images/br_a.png,images/cb_a.png,,,,,,,,,,,,,,,,,,,,,,,,,
,,,,,,00065,2023-10-16_15h55.56.159,vbt_B1_day1,2022.2.4,MacIntel,26.31578947,,,,,,,,,,,,,,,,,,,0.365853659,0.042682927,1,0,0,4.602,5,5,135,7,1,h,images/br_h.png,images/cb_h.png,,,,,,,,,,,,,,,,,,,,,,,,,
,,,,,,00065,2023-10-16_15h55.56.159,vbt_B1_day1,2022.2.4,MacIntel,26.31578947,,,,,,,,,,,,,,,,,,,0.242682927,-0.01097561,1,0,0,2.355,5,6,136,14,1,o,images/br_o.png,images/cb_o.png,,,,,,,,,,,,,,,,,,,,,,,,,
,,,,,,00065,2023-10-16_15h55.56.159,vbt_B1_day1,2022.2.4,MacIntel,26.31578947,,,,,,,,,,,,,,,,,,,0.423170732,-0.063414634,1,0,0,4.001,5,7,137,4,1,e,images/br_e.png,images/cb_e.png,,,,,,,,,,,,,,,,,,,,,,,,,
,,,,,,00065,2023-10-16_15h55.56.159,vbt_B1_day1,2022.2.4,MacIntel,26.31578947,,,,,,,,,,,,,,,,,,,0.186585366,-0.025609756,1,0,0,11.712,5,8,138,19,1,t,images/br_t.png,images/cb_t.png,,,,,,,,,,,,,,,,,,,,,,,,,
,,,,,,00065,2023-10-16_15h55.56.159,vbt_B1_day1,2022.2.4,MacIntel,26.31578947,,,,,,,,,,,,,,,,,,,0.264634146,-0.085365854,1,0,0,1.001,5,9,139,20,1,u,images/br_u.png,images/cb_u.png,,,,,,,,,,,,,,,,,,,,,,,,,
,,,,,,00065,2023-10-16_15h55.56.159,vbt_B1_day1,2022.2.4,MacIntel,26.31578947,,,,,,,,,,,,,,,,,,,0.22195122,-0.087804878,1,0,0,4.234,5,10,140,9,1,j,images/br_j.png,images/cb_j.png,,,,,,,,,,,,,,,,,,,,,,,,,
,,,,,,00065,2023-10-16_15h55.56.159,vbt_B1_day1,2022.2.4,MacIntel,26.31578947,,,,,,,,,,,,,,,,,,,0.380487805,-0.146341463,1,0,0,2.048,5,11,141,1,1,b,images/br_b.png,images/cb_b.png,,,,,,,,,,,,,,,,,,,,,,,,,
,,,,,,00065,2023-10-16_15h55.56.159,vbt_B1_day1,2022.2.4,MacIntel,26.31578947,,,,,,,,,,,,,,,,,,,0.292682927,-0.07195122,1,0,0,0.868,5,12,142,22,1,w,images/br_w.png,images/cb_w.png,,,,,,,,,,,,,,,,,,,,,,,,,
,,,,,,00065,2023-10-16_15h55.56.159,vbt_B1_day1,2022.2.4,MacIntel,26.31578947,,,,,,,,,,,,,,,,,,,0.314634146,-0.047560976,1,0,0,1.136,5,13,143,12,1,m,images/br_m.png,images/cb_m.png,,,,,,,,,,,,,,,,,,,,,,,,,
,,,,,,00065,2023-10-16_15h55.56.159,vbt_B1_day1,2022.2.4,MacIntel,26.31578947,,,,,,,,,,,,,,,,,,,0.274390244,-0.020731707,1,0,0,0.302,5,14,144,24,1,y,images/br_y.png,images/cb_y.png,,,,,,,,,,,,,,,,,,,,,,,,,
,,,,,,00065,2023-10-16_15h55.56.159,vbt_B1_day1,2022.2.4,MacIntel,26.31578947,,,,,,,,,,,,,,,,,,,0.367073171,-0.070731707,1,0,0,0.049,5,15,145,8,1,i,images/br_i.png,images/cb_i.png,,,,,,,,,,,,,,,,,,,,,,,,,
,,,,,,00065,2023-10-16_15h55.56.159,vbt_B1_day1,2022.2.4,MacIntel,26.31578947,,,,,,,,,,,,,,,,,,,0.329268293,-0.019512195,1,0,0,0.521,5,16,146,18,1,s,images/br_s.png,images/cb_s.png,,,,,,,,,,,,,,,,,,,,,,,,,
,,,,,,00065,2023-10-16_15h55.56.159,vbt_B1_day1,2022.2.4,MacIntel,26.31578947,,,,,,,,,,,,,,,,,,,0.256097561,0.036585366,1,0,0,0.336,5,17,147,17,1,r,images/br_r.png,images/cb_r.png,,,,,,,,,,,,,,,,,,,,,,,,,
,,,,,,00065,2023-10-16_15h55.56.159,vbt_B1_day1,2022.2.4,MacIntel,26.31578947,,,,,,,,,,,,,,,,,,,0.22804878,-0.015853659,1,0,0,0.422,5,18,148,11,1,l,images/br_l.png,images/cb_l.png,,,,,,,,,,,,,,,,,,,,,,,,,
,,,,,,00065,2023-10-16_15h55.56.159,vbt_B1_day1,2022.2.4,MacIntel,26.31578947,,,,,,,,,,,,,,,,,,,0.307317073,-0.024390244,1,0,0,0.255,5,19,149,3,1,d,images/br_d.png,images/cb_d.png,,,,,,,,,,,,,,,,,,,,,,,,,
,,,,,,00065,2023-10-16_15h55.56.159,vbt_B1_day1,2022.2.4,MacIntel,26.31578947,,,,,,,,,,,,,,,,,,,0.240243902,-0.029268293,1,0,0,0.704,5,20,150,6,1,g,images/br_g.png,images/cb_g.png,,,,,,,,,,,,,,,,,,,,,,,,,
,,,,,,00065,2023-10-16_15h55.56.159,vbt_B1_day1,2022.2.4,MacIntel,26.31578947,,,,,,,,,,,,,,,,,,,0.252439024,-0.035365854,1,0,0,0.468,5,21,151,25,1,z,images/br_z.png,images/cb_z.png,,,,,,,,,,,,,,,,,,,,,,,,,
,,,,,,00065,2023-10-16_15h55.56.159,vbt_B1_day1,2022.2.4,MacIntel,26.31578947,,,,,,,,,,,,,,,,,,,0.262195122,-0.024390244,1,0,0,0.801,5,22,152,13,1,n,images/br_n.png,images/cb_n.png,,,,,,,,,,,,,,,,,,,,,,,,,
,,,,,,00065,2023-10-16_15h55.56.159,vbt_B1_day1,2022.2.4,MacIntel,26.31578947,,,,,,,,,,,,,,,,,,,0.264634146,-0.024390244,1,0,0,0.585,5,23,153,2,1,c,images/br_c.png,images/cb_c.png,,,,,,,,,,,,,,,,,,,,,,,,,
,,,,,,00065,2023-10-16_15h55.56.159,vbt_B1_day1,2022.2.4,MacIntel,26.31578947,,,,,,,,,,,,,,,,,,,0.198780488,0.003658537,1,0,0,0.535,5,24,154,16,1,q,images/br_q.png,images/cb_q.png,,,,,,,,,,,,,,,,,,,,,,,,,
,,,,,,00065,2023-10-16_15h55.56.159,vbt_B1_day1,2022.2.4,MacIntel,26.31578947,,,,,,,,,,,,,,,,,,,0.18902439,-0.02804878,1,0,0,1.052,5,25,155,21,1,v,images/br_v.png,images/cb_v.png,,,,,,,,,,,,,,,,,,,,,,,,,
,,,,,,00065,2023-10-16_15h55.56.159,vbt_B1_day1,2022.2.4,MacIntel,26.31578947,,,,,,,,,,,,,,,,,,,0.208536585,-0.007317073,1,0,0,2.202,6,0,156,12,1,m,images/br_m.png,images/cb_m.png,,,,,,,,,,,,,,,,,,,,,,,,,
,,,,,,00065,2023-10-16_15h55.56.159,vbt_B1_day1,2022.2.4,MacIntel,26.31578947,,,,,,,,,,,,,,,,,,,0.185365854,0.032926829,1,0,0,0.136,6,1,157,24,1,y,images/br_y.png,images/cb_y.png,,,,,,,,,,,,,,,,,,,,,,,,,
,,,,,,00065,2023-10-16_15h55.56.159,vbt_B1_day1,2022.2.4,MacIntel,26.31578947,,,,,,,,,,,,,,,,,,,0.308536585,-0.018292683,1,0,0,5.151,6,2,158,1,1,b,images/br_b.png,images/cb_b.png,,,,,,,,,,,,,,,,,,,,,,,,,
,,,,,,00065,2023-10-16_15h55.56.159,vbt_B1_day1,2022.2.4,MacIntel,26.31578947,,,,,,,,,,,,,,,,,,,0.241463415,0.026829268,1,0,0,0.687,6,3,159,20,1,u,images/br_u.png,images/cb_u.png,,,,,,,,,,,,,,,,,,,,,,,,,
,,,,,,00065,2023-10-16_15h55.56.159,vbt_B1_day1,2022.2.4,MacIntel,26.31578947,,,,,,,,,,,,,,,,,,,0.27804878,-0.043902439,1,0,0,2.521,6,4,160,7,1,h,images/br_h.png,images/cb_h.png,,,,,,,,,,,,,,,,,,,,,,,,,
,,,,,,00065,2023-10-16_15h55.56.159,vbt_B1_day1,2022.2.4,MacIntel,26.31578947,,,,,,,,,,,,,,,,,,,0.162195122,0.004878049,1,0,0,0.787,6,5,161,0,1,a,images/br_a.png,images/cb_a.png,,,,,,,,,,,,,,,,,,,,,,,,,
,,,,,,00065,2023-10-16_15h55.56.159,vbt_B1_day1,2022.2.4,MacIntel,26.31578947,,,,,,,,,,,,,,,,,,,0.257317073,-0.037804878,1,0,0,0.801,6,6,162,25,1,z,images/br_z.png,images/cb_z.png,,,,,,,,,,,,,,,,,,,,,,,,,
,,,,,,00065,2023-10-16_15h55.56.159,vbt_B1_day1,2022.2.4,MacIntel,26.31578947,,,,,,,,,,,,,,,,,,,0.264634146,-0.002439024,1,0,0,4.486,6,7,163,15,1,p,images/br_p.png,images/cb_p.png,,,,,,,,,,,,,,,,,,,,,,,,,
,,,,,,00065,2023-10-16_15h55.56.159,vbt_B1_day1,2022.2.4,MacIntel,26.31578947,,,,,,,,,,,,,,,,,,,0.232926829,-0.007317073,1,0,0,0.069,6,8,164,19,1,t,images/br_t.png,images/cb_t.png,,,,,,,,,,,,,,,,,,,,,,,,,
,,,,,,00065,2023-10-16_15h55.56.159,vbt_B1_day1,2022.2.4,MacIntel,26.31578947,,,,,,,,,,,,,,,,,,,0.314634146,-0.034146341,1,0,0,0.248,6,9,165,16,1,q,images/br_q.png,images/cb_q.png,,,,,,,,,,,,,,,,,,,,,,,,,
,,,,,,00065,2023-10-16_15h55.56.159,vbt_B1_day1,2022.2.4,MacIntel,26.31578947,,,,,,,,,,,,,,,,,,,0.315853659,-0.035365854,1,0,0,0.689,6,10,166,4,1,e,images/br_e.png,images/cb_e.png,,,,,,,,,,,,,,,,,,,,,,,,,
,,,,,,00065,2023-10-16_15h55.56.159,vbt_B1_day1,2022.2.4,MacIntel,26.31578947,,,,,,,,,,,,,,,,,,,0.309756098,0.015853659,1,0,0,2.447,6,11,167,13,1,n,images/br_n.png,images/cb_n.png,,,,,,,,,,,,,,,,,,,,,,,,,
,,,,,,00065,2023-10-16_15h55.56.159,vbt_B1_day1,2022.2.4,MacIntel,26.31578947,,,,,,,,,,,,,,,,,,,0.345121951,-0.004878049,1,0,0,2.802,6,12,168,9,1,j,images/br_j.png,images/cb_j.png,,,,,,,,,,,,,,,,,,,,,,,,,
,,,,,,00065,2023-10-16_15h55.56.159,vbt_B1_day1,2022.2.4,MacIntel,26.31578947,,,,,,,,,,,,,,,,,,,0.387804878,-0.06097561,1,0,0,0.155,6,13,169,17,1,r,images/br_r.png,images/cb_r.png,,,,,,,,,,,,,,,,,,,,,,,,,
,,,,,,00065,2023-10-16_15h55.56.159,vbt_B1_day1,2022.2.4,MacIntel,26.31578947,,,,,,,,,,,,,,,,,,,0.329268293,-0.019512195,1,0,0,0.454,6,14,170,5,1,f,images/br_f.png,images/cb_f.png,,,,,,,,,,,,,,,,,,,,,,,,,
,,,,,,00065,2023-10-16_15h55.56.159,vbt_B1_day1,2022.2.4,MacIntel,26.31578947,,,,,,,,,,,,,,,,,,,0.291463415,-0.054878049,1,0,0,2.703,6,15,171,6,1,g,images/br_g.png,images/cb_g.png,,,,,,,,,,,,,,,,,,,,,,,,,
,,,,,,00065,2023-10-16_15h55.56.159,vbt_B1_day1,2022.2.4,MacIntel,26.31578947,,,,,,,,,,,,,,,,,,,0.346341463,-0.036585366,1,0,0,0.634,6,16,172,21,1,v,images/br_v.png,images/cb_v.png,,,,,,,,,,,,,,,,,,,,,,,,,
,,,,,,00065,2023-10-16_15h55.56.159,vbt_B1_day1,2022.2.4,MacIntel,26.31578947,,,,,,,,,,,,,,,,,,,0.365853659,0,1,0,0,0.679,6,17,173,22,1,w,images/br_w.png,images/cb_w.png,,,,,,,,,,,,,,,,,,,,,,,,,
,,,,,,00065,2023-10-16_15h55.56.159,vbt_B1_day1,2022.2.4,MacIntel,26.31578947,,,,,,,,,,,,,,,,,,,0.334146341,-0.004878049,1,0,0,0.968,6,18,174,23,1,x,images/br_x.png,images/cb_x.png,,,,,,,,,,,,,,,,,,,,,,,,,
,,,,,,00065,2023-10-16_15h55.56.159,vbt_B1_day1,2022.2.4,MacIntel,26.31578947,,,,,,,,,,,,,,,,,,,0.342682927,-0.043902439,1,0,0,0.034,6,19,175,10,1,k,images/br_k.png,images/cb_k.png,,,,,,,,,,,,,,,,,,,,,,,,,
,,,,,,00065,2023-10-16_15h55.56.159,vbt_B1_day1,2022.2.4,MacIntel,26.31578947,,,,,,,,,,,,,,,,,,,0.280487805,-0.018292683,1,0,0,1.302,6,20,176,11,1,l,images/br_l.png,images/cb_l.png,,,,,,,,,,,,,,,,,,,,,,,,,
,,,,,,00065,2023-10-16_15h55.56.159,vbt_B1_day1,2022.2.4,MacIntel,26.31578947,,,,,,,,,,,,,,,,,,,0.412195122,-0.081707317,1,0,0,7.686,6,21,177,3,1,d,images/br_d.png,images/cb_d.png,,,,,,,,,,,,,,,,,,,,,,,,,
,,,,,,00065,2023-10-16_15h55.56.159,vbt_B1_day1,2022.2.4,MacIntel,26.31578947,,,,,,,,,,,,,,,,,,,0.326829268,-0.05,1,0,0,0.98,6,22,178,8,1,i,images/br_i.png,images/cb_i.png,,,,,,,,,,,,,,,,,,,,,,,,,
,,,,,,00065,2023-10-16_15h55.56.159,vbt_B1_day1,2022.2.4,MacIntel,26.31578947,,,,,,,,,,,,,,,,,,,0.343902439,-0.017073171,1,0,0,0.103,6,23,179,2,1,c,images/br_c.png,images/cb_c.png,,,,,,,,,,,,,,,,,,,,,,,,,
,,,,,,00065,2023-10-16_15h55.56.159,vbt_B1_day1,2022.2.4,MacIntel,26.31578947,,,,,,,,,,,,,,,,,,,0.363414634,-0.047560976,1,0,0,0.769,6,24,180,18,1,s,images/br_s.png,images/cb_s.png,,,,,,,,,,,,,,,,,,,,,,,,,
,,,,,,00065,2023-10-16_15h55.56.159,vbt_B1_day1,2022.2.4,MacIntel,26.31578947,,,,,,,,,,,,,,,,,,,0.357317073,-0.085365854,1,0,0,0.414,6,25,181,14,1,o,images/br_o.png,images/cb_o.png,,,,,,,,,,,,,,,,,,,,,,,,,
,,,,,,00065,2023-10-16_15h55.56.159,vbt_B1_day1,2022.2.4,MacIntel,26.31578947,,,,,,,,,,,,,,,,,,,,,,,,,,,,,,,,,0.264634146,-0.197560976,1,0,0,,,,,,,,,,,,,,,,,,,,
,,,,,,00065,2023-10-16_15h55.56.159,vbt_B1_day1,2022.2.4,MacIntel,26.31578947,,,,,,,,,,,,,,,,,,,,,,,,,,,,,,,,,,,,,,0.385365854,-0.097560976,1,0,0,,,,,,,,,,,,,,,
,,,,,,00065,2023-10-16_15h55.56.159,vbt_B1_day1,2022.2.4,MacIntel,26.31578947,,,,,,,,,,,,,,,,,,,,,,,,,,,,,,,,,,,,,,,,,,,-0.179523142,-0.177419355,1,0,0,,,0,0,0,38,1,schielen,images/br_schielen.png,images/cb_schielen.png
,,,,,,00065,2023-10-16_15h55.56.159,vbt_B1_day1,2022.2.4,MacIntel,26.31578947,,,,,,,,,,,,,,,,,,,,,,,,,,,,,,,,,,,,,,,,,,,0.53997195,-0.111500701,1,0,0,,,0,1,1,23,1,booi,images/br_booi.png,images/cb_booi.png
,,,,,,00065,2023-10-16_15h55.56.159,vbt_B1_day1,2022.2.4,MacIntel,26.31578947,,,,,,,,,,,,,,,,,,,,,,,,,,,,,,,,,,,,,,,,,,,-0.183730715,-0.192847125,1,0,0,,,0,2,2,32,1,opplaan,images/br_opplaan.png,images/cb_opplaan.png
,,,,,,00065,2023-10-16_15h55.56.159,vbt_B1_day1,2022.2.4,MacIntel,26.31578947,,,,,,,,,,,,,,,,,,,,,,,,,,,,,,,,,,,,,,,,,,,-0.204768583,-0.185834502,1,0,0,,,0,3,3,50,1,liegen,images/br_liegen.png,images/cb_liegen.png
,,,,,,00065,2023-10-16_15h55.56.159,vbt_B1_day1,2022.2.4,MacIntel,26.31578947,,,,,,,,,,,,,,,,,,,,,,,,,,,,,,,,,,,,,,,,,,,-0.374474053,-0.393408135,1,0,0,,,0,4,4,48,1,fictie,images/br_fictie.png,images/cb_fictie.png
,,,,,,00065,2023-10-16_15h55.56.159,vbt_B1_day1,2022.2.4,MacIntel,26.31578947,,,,,,,,,,,,,,,,,,,,,,,,,,,,,,,,,,,,,,,,,,,0.538569425,-0.046984572,1,0,0,LA,LA,0,5,5,43,1,lava,images/br_lava.png,images/cb_lava.png
,,,,,,00065,2023-10-16_15h55.56.159,vbt_B1_day1,2022.2.4,MacIntel,26.31578947,,,,,,,,,,,,,,,,,,,,,,,,,,,,,,,,,,,,,,,,,,,0.516129032,-0.048387097,1,0,0,Laa.,Laa.,0,6,6,47,1,loods,images/br_loods.png,images/cb_loods.png
,,,,,,00065,2023-10-16_15h55.56.159,vbt_B1_day1,2022.2.4,MacIntel,26.31578947,,,,,,,,,,,,,,,,,,,,,,,,,,,,,,,,,,,,,,,,,,,0.47826087,0.103085554,1,0,0,Tdi.,Tdi.,0,7,7,13,1,twijfel,images/br_twijfel.png,images/cb_twijfel.png
,,,,,,00065,2023-10-16_15h55.56.159,vbt_B1_day1,2022.2.4,MacIntel,26.31578947,,,,,,,,,,,,,,,,,,,,,,,,,,,,,,,,,,,,,,,,,,,0.499298738,0.051192146,1,0,0,Da.,Da.,0,8,8,8,1,kanjer,images/br_kanjer.png,images/cb_kanjer.png
,,,,,,00065,2023-10-16_15h55.56.159,vbt_B1_day1,2022.2.4,MacIntel,26.31578947,,,,,,,,,,,,,,,,,,,,,,,,,,,,,,,,,,,,,,,,,,,0.451612903,0.041374474,1,0,0,Rez..,Rez..,0,9,9,24,1,rezer,images/br_rezer.png,images/cb_rezer.png
,,,,,,00065,2023-10-16_15h55.56.159,vbt_B1_day1,2022.2.4,MacIntel,26.31578947,,,,,,,,,,,,,,,,,,,,,,,,,,,,,,,,,,,,,,,,,,,0.471248247,0.075035063,1,0,0,Hl.l..,Hl.l..,0,10,10,33,1,flullen,images/br_flullen.png,images/cb_flullen.png
,,,,,,00065,2023-10-16_15h55.56.159,vbt_B1_day1,2022.2.4,MacIntel,26.31578947,,,,,,,,,,,,,,,,,,,,,,,,,,,,,,,,,,,,,,,,,,,0.356241234,0.058204769,1,0,0,Ueen…,Ueen…,0,11,11,57,1,meenemen,images/br_meenemen.png,images/cb_meenemen.png
,,,,,,00065,2023-10-16_15h55.56.159,vbt_B1_day1,2022.2.4,MacIntel,26.31578947,,,,,,,,,,,,,,,,,,,,,,,,,,,,,,,,,,,,,,,,,,,0.361851332,0.02454418,1,0,0,.c…,.c…,0,12,12,19,1,schuilen,images/br_schuilen.png,images/cb_schuilen.png
,,,,,,00065,2023-10-16_15h55.56.159,vbt_B1_day1,2022.2.4,MacIntel,26.31578947,,,,,,,,,,,,,,,,,,,,,,,,,,,,,,,,,,,,,,,,,,,0.41654979,0.072230014,1,0,0,.e.r..,.e.r..,0,13,13,28,1,bebrip,images/br_bebrip.png,images/cb_bebrip.png
,,,,,,00065,2023-10-16_15h55.56.159,vbt_B1_day1,2022.2.4,MacIntel,26.31578947,,,,,,,,,,,,,,,,,,,,,,,,,,,,,,,,,,,,,,,,,,,0.371669004,0.077840112,1,0,0,Dej..,Dej..,0,14,14,44,1,wijze,images/br_wijze.png,images/cb_wijze.png
,,,,,,00065,2023-10-16_15h55.56.159,vbt_B1_day1,2022.2.4,MacIntel,26.31578947,,,,,,,,,,,,,,,,,,,,,,,,,,,,,,,,,,,,,,,,,,,0.430575035,0.062412342,1,0,0,T.ez…,T.ez…,0,15,15,56,1,toezicht,images/br_toezicht.png,images/cb_toezicht.png
,,,,,,00065,2023-10-16_15h55.56.159,vbt_B1_day1,2022.2.4,MacIntel,26.31578947,,,,,,,,,,,,,,,,,,,,,,,,,,,,,,,,,,,,,,,,,,,0.424964937,0.025946704,1,0,0,Vezier ,Vezier ,0,16,16,49,1,vizier,images/br_vizier.png,images/cb_vizier.png
,,,,,,00065,2023-10-16_15h55.56.159,vbt_B1_day1,2022.2.4,MacIntel,26.31578947,,,,,,,,,,,,,,,,,,,,,,,,,,,,,,,,,,,,,,,,,,,0.244039271,0.027349229,1,0,0,.re..,.re..,0,17,17,25,1,brijk,images/br_brijk.png,images/cb_brijk.png
,,,,,,00065,2023-10-16_15h55.56.159,vbt_B1_day1,2022.2.4,MacIntel,26.31578947,,,,,,,,,,,,,,,,,,,,,,,,,,,,,,,,,,,,,,,,,,,0.244039271,0.065217391,1,0,0,.pv…,.pv…,0,18,18,59,1,opvatten,images/br_opvatten.png,images/cb_opvatten.png
,,,,,,00065,2023-10-16_15h55.56.159,vbt_B1_day1,2022.2.4,MacIntel,26.31578947,,,,,,,,,,,,,,,,,,,,,,,,,,,,,,,,,,,,,,,,,,,0.255259467,0.032959327,1,0,0,Vij…,Vij…,0,19,19,54,1,vijftig,images/br_vijftig.png,images/cb_vijftig.png
,,,,,,00065,2023-10-16_15h55.56.159,vbt_B1_day1,2022.2.4,MacIntel,26.31578947,,,,,,,,,,,,,,,,,,,,,,,,,,,,,,,,,,,,,,,,,,,0.228611501,0.082047686,1,0,0,Z.ipl..,Z.ipl..,0,20,20,52,1,zuiplap,images/br_zuiplap.png,images/cb_zuiplap.png
,,,,,,00065,2023-10-16_15h55.56.159,vbt_B1_day1,2022.2.4,MacIntel,26.31578947,,,,,,,,,,,,,,,,,,,,,,,,,,,,,,,,,,,,,,,,,,,0.368863955,0.042776999,1,0,0,…e.,…e.,0,21,21,9,1,dubbel,images/br_dubbel.png,images/cb_dubbel.png
,,,,,,00065,2023-10-16_15h55.56.159,vbt_B1_day1,2022.2.4,MacIntel,26.31578947,,,,,,,,,,,,,,,,,,,,,,,,,,,,,,,,,,,,,,,,,,,0.392706872,0.103085554,1,0,0,.ie…,.ie…,0,22,22,15,1,hiervan,images/br_hiervan.png,images/cb_hiervan.png
,,,,,,00065,2023-10-16_15h55.56.159,vbt_B1_day1,2022.2.4,MacIntel,26.31578947,,,,,,,,,,,,,,,,,,,,,,,,,,,,,,,,,,,,,,,,,,,0.304347826,0.131136045,1,0,0,,,0,23,23,10,1,muziek,images/br_muziek.png,images/cb_muziek.png
,,,,,,00065,2023-10-16_15h55.56.159,vbt_B1_day1,2022.2.4,MacIntel,26.31578947,,,,,,,,,,,,,,,,,,,,,,,,,,,,,,,,,,,,,,,,,,,0.438990182,0.059607293,1,0,0,.lad,.lad,0,24,24,0,1,slak,images/br_slak.png,images/cb_slak.png
,,,,,,00065,2023-10-16_15h55.56.159,vbt_B1_day1,2022.2.4,MacIntel,26.31578947,,,,,,,,,,,,,,,,,,,,,,,,,,,,,,,,,,,,,,,,,,,0.37026648,0.03997195,1,0,0,.uh..,.uh..,0,25,25,4,1,schep,images/br_schep.png,images/cb_schep.png
,,,,,,00065,2023-10-16_15h55.56.159,vbt_B1_day1,2022.2.4,MacIntel,26.31578947,,,,,,,,,,,,,,,,,,,,,,,,,,,,,,,,,,,,,,,,,,,0.395511921,0.055399719,1,0,0,Voorr..,Voorr..,0,26,26,39,1,voorreur,images/br_voorreur.png,images/cb_voorreur.png
,,,,,,00065,2023-10-16_15h55.56.159,vbt_B1_day1,2022.2.4,MacIntel,26.31578947,,,,,,,,,,,,,,,,,,,,,,,,,,,,,,,,,,,,,,,,,,,0.389901823,0.139551192,1,0,0,.t.i,.t.i,0,27,27,35,1,stuikem,images/br_stuikem.png,images/cb_stuikem.png
,,,,,,00065,2023-10-16_15h55.56.159,vbt_B1_day1,2022.2.4,MacIntel,26.31578947,,,,,,,,,,,,,,,,,,,,,,,,,,,,,,,,,,,,,,,,,,,0.43197756,0.086255259,1,0,0,Zaal,Zaal,0,28,28,1,1,zaal,images/br_zaal.png,images/cb_zaal.png
,,,,,,00065,2023-10-16_15h55.56.159,vbt_B1_day1,2022.2.4,MacIntel,26.31578947,,,,,,,,,,,,,,,,,,,,,,,,,,,,,,,,,,,,,,,,,,,0.319775596,0.034361851,1,0,0,.ez,.ez,0,29,29,11,1,mening,images/br_mening.png,images/cb_mening.png
,,,,,,00065,2023-10-16_15h55.56.159,vbt_B1_day1,2022.2.4,MacIntel,26.31578947,,,,,,,,,,,,,,,,,,,,,,,,,,,,,,,,,,,,,,,,,,,0.392706872,0.066619916,1,0,0,.aarh,.aarh,0,30,30,16,1,daarheen,images/br_daarheen.png,images/cb_daarheen.png
,,,,,,00065,2023-10-16_15h55.56.159,vbt_B1_day1,2022.2.4,MacIntel,26.31578947,,,,,,,,,,,,,,,,,,,,,,,,,,,,,,,,,,,,,,,,,,,0.511921459,0.041374474,1,0,0,Stam,Stam,0,31,31,31,1,stamen,images/br_stamen.png,images/cb_stamen.png
,,,,,,00065,2023-10-16_15h55.56.159,vbt_B1_day1,2022.2.4,MacIntel,26.31578947,,,,,,,,,,,,,,,,,,,,,,,,,,,,,,,,,,,,,,,,,,,0.44740533,0.079242637,1,0,0,Ops.,Ops.,0,32,32,53,1,opslaan,images/br_opslaan.png,images/cb_opslaan.png
,,,,,,00065,2023-10-16_15h55.56.159,vbt_B1_day1,2022.2.4,MacIntel,26.31578947,,,,,,,,,,,,,,,,,,,,,,,,,,,,,,,,,,,,,,,,,,,0.517531557,0.110098177,1,0,0,Made.,Made.,0,33,33,5,1,maken,images/br_maken.png,images/cb_maken.png
,,,,,,00065,2023-10-16_15h55.56.159,vbt_B1_day1,2022.2.4,MacIntel,26.31578947,,,,,,,,,,,,,,,,,,,,,,,,,,,,,,,,,,,,,,,,,,,0.382889201,0.069424965,1,0,0,Ueth…,Ueth…,0,34,34,18,1,uitdelen,images/br_uitdelen.png,images/cb_uitdelen.png
,,,,,,00065,2023-10-16_15h55.56.159,vbt_B1_day1,2022.2.4,MacIntel,26.31578947,,,,,,,,,,,,,,,,,,,,,,,,,,,,,,,,,,,,,,,,,,,0.26227209,0.143758766,1,0,0,Valop ,Valop ,0,35,35,26,1,valop,images/br_valop.png,images/cb_valop.png
,,,,,,00065,2023-10-16_15h55.56.159,vbt_B1_day1,2022.2.4,MacIntel,26.31578947,,,,,,,,,,,,,,,,,,,,,,,,,,,,,,,,,,,,,,,,,,,0.290322581,0.147966339,1,0,0,Dzoe ,Dzoe ,0,36,36,22,1,knoe,images/br_knoe.png,images/cb_knoe.png
,,,,,,00065,2023-10-16_15h55.56.159,vbt_B1_day1,2022.2.4,MacIntel,26.31578947,,,,,,,,,,,,,,,,,,,,,,,,,,,,,,,,,,,,,,,,,,,0.47826087,0.045582048,1,0,0,Jieh ,Jieh ,0,37,37,40,1,dief,images/br_dief.png,images/cb_dief.png
,,,,,,00065,2023-10-16_15h55.56.159,vbt_B1_day1,2022.2.4,MacIntel,26.31578947,,,,,,,,,,,,,,,,,,,,,,,,,,,,,,,,,,,,,,,,,,,0.502103787,0.082047686,1,0,0,.azd,.azd,0,38,38,3,1,mand,images/br_mand.png,images/cb_mand.png
,,,,,,00065,2023-10-16_15h55.56.159,vbt_B1_day1,2022.2.4,MacIntel,26.31578947,,,,,,,,,,,,,,,,,,,,,,,,,,,,,,,,,,,,,,,,,,,0.333800842,0.150771388,1,0,0,Vrort ,Vrort ,0,39,39,27,1,prort,images/br_prort.png,images/cb_prort.png
,,,,,,00065,2023-10-16_15h55.56.159,vbt_B1_day1,2022.2.4,MacIntel,26.31578947,,,,,,,,,,,,,,,,,,,,,,,,,,,,,,,,,,,,,,,,,,,0.437587658,0.00631136,1,0,0,Bleq.,Bleq.,0,40,40,12,1,klimmen,images/br_klimmen.png,images/cb_klimmen.png
,,,,,,00065,2023-10-16_15h55.56.159,vbt_B1_day1,2022.2.4,MacIntel,26.31578947,,,,,,,,,,,,,,,,,,,,,,,,,,,,,,,,,,,,,,,,,,,0.373071529,0.063814867,1,0,0,Locht.,Locht.,0,41,41,34,1,lochten,images/br_lochten.png,images/cb_lochten.png
,,,,,,00065,2023-10-16_15h55.56.159,vbt_B1_day1,2022.2.4,MacIntel,26.31578947,,,,,,,,,,,,,,,,,,,,,,,,,,,,,,,,,,,,,,,,,,,0.37026648,0.077840112,1,0,0,Bleek,Bleek,0,42,42,6,1,bleek,images/br_bleek.png,images/cb_bleek.png
,,,,,,00065,2023-10-16_15h55.56.159,vbt_B1_day1,2022.2.4,MacIntel,26.31578947,,,,,,,,,,,,,,,,,,,,,,,,,,,,,,,,,,,,,,,,,,,0.495091164,0.086255259,1,0,0,Gezoz.,Gezoz.,0,43,43,29,1,genond,images/br_genond.png,images/cb_genond.png
,,,,,,00065,2023-10-16_15h55.56.159,vbt_B1_day1,2022.2.4,MacIntel,26.31578947,,,,,,,,,,,,,,,,,,,,,,,,,,,,,,,,,,,,,,,,,,,0.311360449,0.08345021,1,0,0,Dred ,Dred ,0,44,44,21,1,dred,images/br_dred.png,images/cb_dred.png
,,,,,,00065,2023-10-16_15h55.56.159,vbt_B1_day1,2022.2.4,MacIntel,26.31578947,,,,,,,,,,,,,,,,,,,,,,,,,,,,,,,,,,,,,,,,,,,0.272089762,0.09887798,1,0,0,Atteztee ,Atteztee ,0,45,45,17,1,attentie,images/br_attentie.png,images/cb_attentie.png
,,,,,,00065,2023-10-16_15h55.56.159,vbt_B1_day1,2022.2.4,MacIntel,26.31578947,,,,,,,,,,,,,,,,,,,,,,,,,,,,,,,,,,,,,,,,,,,0.291725105,0.100280505,1,0,0,Hoog ,Hoog ,0,46,46,41,1,hoog,images/br_hoog.png,images/cb_hoog.png
,,,,,,00065,2023-10-16_15h55.56.159,vbt_B1_day1,2022.2.4,MacIntel,26.31578947,,,,,,,,,,,,,,,,,,,,,,,,,,,,,,,,,,,,,,,,,,,0.304347826,0.107293128,1,0,0,Tars ,Tars ,0,47,47,20,1,tars,images/br_tars.png,images/cb_tars.png
,,,,,,00065,2023-10-16_15h55.56.159,vbt_B1_day1,2022.2.4,MacIntel,26.31578947,,,,,,,,,,,,,,,,,,,,,,,,,,,,,,,,,,,,,,,,,,,0.44740533,0.082047686,1,0,0,Klau.,Klau.,0,48,48,7,1,klauw,images/br_klauw.png,images/cb_klauw.png
,,,,,,00065,2023-10-16_15h55.56.159,vbt_B1_day1,2022.2.4,MacIntel,26.31578947,,,,,,,,,,,,,,,,,,,,,,,,,,,,,,,,,,,,,,,,,,,0.314165498,0.100280505,1,0,0,Lezen ,Lezen ,0,49,49,46,1,lezen,images/br_lezen.png,images/cb_lezen.png
,,,,,,00065,2023-10-16_15h55.56.159,vbt_B1_day1,2022.2.4,MacIntel,26.31578947,,,,,,,,,,,,,,,,,,,,,,,,,,,,,,,,,,,,,,,,,,,0.496493689,0.063814867,1,0,0,Waarl..,Waarl..,0,50,50,14,1,waarvan,images/br_waarvan.png,images/cb_waarvan.png
,,,,,,00065,2023-10-16_15h55.56.159,vbt_B1_day1,2022.2.4,MacIntel,26.31578947,,,,,,,,,,,,,,,,,,,,,,,,,,,,,,,,,,,,,,,,,,,0.430575035,0.06802244,1,0,0,Loorke..,Loorke..,0,51,51,58,1,voorkeur,images/br_voorkeur.png,images/cb_voorkeur.png
,,,,,,00065,2023-10-16_15h55.56.159,vbt_B1_day1,2022.2.4,MacIntel,26.31578947,,,,,,,,,,,,,,,,,,,,,,,,,,,,,,,,,,,,,,,,,,,0.50631136,0.046984572,1,0,0,Liefh.,Liefh.,0,52,52,51,1,liefde,images/br_liefde.png,images/cb_liefde.png
,,,,,,00065,2023-10-16_15h55.56.159,vbt_B1_day1,2022.2.4,MacIntel,26.31578947,,,,,,,,,,,,,,,,,,,,,,,,,,,,,,,,,,,,,,,,,,,0.420757363,0.188639551,1,0,0,Stuk,Stuk,0,53,53,42,1,stuk,images/br_stuk.png,images/cb_stuk.png
,,,,,,00065,2023-10-16_15h55.56.159,vbt_B1_day1,2022.2.4,MacIntel,26.31578947,,,,,,,,,,,,,,,,,,,,,,,,,,,,,,,,,,,,,,,,,,,0.436185133,0.103085554,1,0,0,Lerlad..,Lerlad..,0,54,54,36,1,vervaden,images/br_vervaden.png,images/cb_vervaden.png
,,,,,,00065,2023-10-16_15h55.56.159,vbt_B1_day1,2022.2.4,MacIntel,26.31578947,,,,,,,,,,,,,,,,,,,,,,,,,,,,,,,,,,,,,,,,,,,0.350631136,0.122720898,1,0,0,Heuel ,Heuel ,0,55,55,45,1,hemel,images/br_hemel.png,images/cb_hemel.png
,,,,,,00065,2023-10-16_15h55.56.159,vbt_B1_day1,2022.2.4,MacIntel,26.31578947,,,,,,,,,,,,,,,,,,,,,,,,,,,,,,,,,,,,,,,,,,,-0.058906031,0.181626928,1,0,0,Reedje ,Reedje ,0,56,56,30,1,reedje,images/br_reedje.png,images/cb_reedje.png
,,,,,,00065,2023-10-16_15h55.56.159,vbt_B1_day1,2022.2.4,MacIntel,26.31578947,,,,,,,,,,,,,,,,,,,,,,,,,,,,,,,,,,,,,,,,,,,0.312762973,0.159186536,1,0,0,Jaar,Jaar,0,57,57,2,1,jaar,images/br_jaar.png,images/cb_jaar.png
,,,,,,00065,2023-10-16_15h55.56.159,vbt_B1_day1,2022.2.4,MacIntel,26.31578947,,,,,,,,,,,,,,,,,,,,,,,,,,,,,,,,,,,,,,,,,,,0.388499299,0.14516129,1,0,0,Span…,Span…,0,58,58,37,1,spanzing,images/br_spanzing.png,images/cb_spanzing.png
,,,,,,00065,2023-10-16_15h55.56.159,vbt_B1_day1,2022.2.4,MacIntel,26.31578947,,,,,,,,,,,,,,,,,,,,,,,,,,,,,,,,,,,,,,,,,,,0.453015428,0.124123422,1,0,0,Teken..,Teken..,0,59,59,55,1,tekenen,images/br_tekenen.png,images/cb_tekenen.png
,,,,,,00065,2023-10-16_15h55.56.159,vbt_B1_day1,2022.2.4,MacIntel,26.31578947,,,,,,,,,,,,,,,,,,,,,,,,,,,,,,,,,,,,,,,,,,,,,,,,,,,,,,,,,
