welcome_mouse.x,welcome_mouse.y,welcome_mouse.leftButton,welcome_mouse.midButton,welcome_mouse.rightButton,welcome_mouse.time,"ID",date,expName,psychopyVersion,OS,frameRate,participant,mouse_2.x,mouse_2.y,mouse_2.leftButton,mouse_2.midButton,mouse_2.rightButton,mouse_2.time,mouse_3.x,mouse_3.y,mouse_3.leftButton,mouse_3.midButton,mouse_3.rightButton,mouse_3.time,train_mouse.x,train_mouse.y,train_mouse.leftButton,train_mouse.midButton,train_mouse.rightButton,train_mouse.time,braille_mouse.x,braille_mouse.y,braille_mouse.leftButton,braille_mouse.midButton,braille_mouse.rightButton,braille_mouse.time,trials.thisRepN,trials.thisTrialN,trials.thisN,trials.thisIndex,trials.ran,nlLet,brLet,cbLet,mouse.x,mouse.y,mouse.leftButton,mouse.midButton,mouse.rightButton,testInstr_mouse.x,testInstr_mouse.y,testInstr_mouse.leftButton,testInstr_mouse.midButton,testInstr_mouse.rightButton,test_mouse.x,test_mouse.y,test_mouse.leftButton,test_mouse.midButton,test_mouse.rightButton,test_response.text,testResp,test_loop.thisRepN,test_loop.thisTrialN,test_loop.thisN,test_loop.thisIndex,test_loop.ran,nlWrd,brWrd,cbWrd
-0.007407365,-0.351851852,1,0,0,30.1737,51175,2023-07-20_13h27.20.719,vbt_B1_day1,2022.2.4,Win32,60.50338819,51175,,,,,,,,,,,,,,,,,,,,,,,,,,,,,,,,,,,,,,,,,,,,,,,,,,,,,,,,,
,,,,,,51175,2023-07-20_13h27.20.719,vbt_B1_day1,2022.2.4,Win32,60.50338819,51175,-0.007407365,-0.351851852,1,0,0,17.2285,,,,,,,,,,,,,,,,,,,,,,,,,,,,,,,,,,,,,,,,,,,,,,,,,,,
,,,,,,51175,2023-07-20_13h27.20.719,vbt_B1_day1,2022.2.4,Win32,60.50338819,51175,,,,,,,-0.007407365,-0.351851852,1,0,0,4.9132,,,,,,,,,,,,,,,,,,,,,,,,,,,,,,,,,,,,,,,,,,,,,
,,,,,,51175,2023-07-20_13h27.20.719,vbt_B1_day1,2022.2.4,Win32,60.50338819,51175,,,,,,,,,,,,,-0.007407365,-0.351851852,1,0,0,37.2497,,,,,,,,,,,,,,,,,,,,,,,,,,,,,,,,,,,,,,,
,,,,,,51175,2023-07-20_13h27.20.719,vbt_B1_day1,2022.2.4,Win32,60.50338819,51175,,,,,,,,,,,,,,,,,,,-0.007407365,-0.351851852,1,0,0,12.0693,0,0,0,11,1,l,images/br_l.png,images/cb_l.png,,,,,,,,,,,,,,,,,,,,,,,,,
,,,,,,51175,2023-07-20_13h27.20.719,vbt_B1_day1,2022.2.4,Win32,60.50338819,51175,,,,,,,,,,,,,,,,,,,-0.007407365,-0.351851852,1,0,0,10.8044,0,1,1,13,1,n,images/br_n.png,images/cb_n.png,,,,,,,,,,,,,,,,,,,,,,,,,
,,,,,,51175,2023-07-20_13h27.20.719,vbt_B1_day1,2022.2.4,Win32,60.50338819,51175,,,,,,,,,,,,,,,,,,,-0.007407365,-0.351851852,1,0,0,4.4494,0,2,2,1,1,b,images/br_b.png,images/cb_b.png,,,,,,,,,,,,,,,,,,,,,,,,,
,,,,,,51175,2023-07-20_13h27.20.719,vbt_B1_day1,2022.2.4,Win32,60.50338819,51175,,,,,,,,,,,,,,,,,,,-0.007407365,-0.351851852,1,0,0,2.916,0,3,3,15,1,p,images/br_p.png,images/cb_p.png,,,,,,,,,,,,,,,,,,,,,,,,,
,,,,,,51175,2023-07-20_13h27.20.719,vbt_B1_day1,2022.2.4,Win32,60.50338819,51175,,,,,,,,,,,,,,,,,,,-0.007407365,-0.351851852,1,0,0,2.0547,0,4,4,0,1,a,images/br_a.png,images/cb_a.png,,,,,,,,,,,,,,,,,,,,,,,,,
,,,,,,51175,2023-07-20_13h27.20.719,vbt_B1_day1,2022.2.4,Win32,60.50338819,51175,,,,,,,,,,,,,,,,,,,-0.007407365,-0.351851852,1,0,0,3.8662,0,5,5,22,1,w,images/br_w.png,images/cb_w.png,,,,,,,,,,,,,,,,,,,,,,,,,
,,,,,,51175,2023-07-20_13h27.20.719,vbt_B1_day1,2022.2.4,Win32,60.50338819,51175,,,,,,,,,,,,,,,,,,,-0.007407365,-0.351851852,1,0,0,0.3048,0,6,6,2,1,c,images/br_c.png,images/cb_c.png,,,,,,,,,,,,,,,,,,,,,,,,,
,,,,,,51175,2023-07-20_13h27.20.719,vbt_B1_day1,2022.2.4,Win32,60.50338819,51175,,,,,,,,,,,,,,,,,,,-0.007407365,-0.351851852,1,0,0,1.1503,0,7,7,3,1,d,images/br_d.png,images/cb_d.png,,,,,,,,,,,,,,,,,,,,,,,,,
,,,,,,51175,2023-07-20_13h27.20.719,vbt_B1_day1,2022.2.4,Win32,60.50338819,51175,,,,,,,,,,,,,,,,,,,-0.007407365,-0.351851852,1,0,0,3.6578,0,8,8,21,1,v,images/br_v.png,images/cb_v.png,,,,,,,,,,,,,,,,,,,,,,,,,
,,,,,,51175,2023-07-20_13h27.20.719,vbt_B1_day1,2022.2.4,Win32,60.50338819,51175,,,,,,,,,,,,,,,,,,,-0.007407365,-0.351851852,1,0,0,3.407,0,9,9,6,1,g,images/br_g.png,images/cb_g.png,,,,,,,,,,,,,,,,,,,,,,,,,
,,,,,,51175,2023-07-20_13h27.20.719,vbt_B1_day1,2022.2.4,Win32,60.50338819,51175,,,,,,,,,,,,,,,,,,,-0.007407365,-0.351851852,1,0,0,3.8567,0,10,10,19,1,t,images/br_t.png,images/cb_t.png,,,,,,,,,,,,,,,,,,,,,,,,,
,,,,,,51175,2023-07-20_13h27.20.719,vbt_B1_day1,2022.2.4,Win32,60.50338819,51175,,,,,,,,,,,,,,,,,,,-0.007407365,-0.351851852,1,0,0,1.6038,0,11,11,24,1,y,images/br_y.png,images/cb_y.png,,,,,,,,,,,,,,,,,,,,,,,,,
,,,,,,51175,2023-07-20_13h27.20.719,vbt_B1_day1,2022.2.4,Win32,60.50338819,51175,,,,,,,,,,,,,,,,,,,-0.007407365,-0.351851852,1,0,0,0.8255,0,12,12,18,1,s,images/br_s.png,images/cb_s.png,,,,,,,,,,,,,,,,,,,,,,,,,
,,,,,,51175,2023-07-20_13h27.20.719,vbt_B1_day1,2022.2.4,Win32,60.50338819,51175,,,,,,,,,,,,,,,,,,,-0.007407365,-0.351851852,1,0,0,1.5865,0,13,13,5,1,f,images/br_f.png,images/cb_f.png,,,,,,,,,,,,,,,,,,,,,,,,,
,,,,,,51175,2023-07-20_13h27.20.719,vbt_B1_day1,2022.2.4,Win32,60.50338819,51175,,,,,,,,,,,,,,,,,,,-0.007407365,-0.351851852,1,0,0,0.1008,0,14,14,9,1,j,images/br_j.png,images/cb_j.png,,,,,,,,,,,,,,,,,,,,,,,,,
,,,,,,51175,2023-07-20_13h27.20.719,vbt_B1_day1,2022.2.4,Win32,60.50338819,51175,,,,,,,,,,,,,,,,,,,-0.007407365,-0.351851852,1,0,0,0.3729,0,15,15,7,1,h,images/br_h.png,images/cb_h.png,,,,,,,,,,,,,,,,,,,,,,,,,
,,,,,,51175,2023-07-20_13h27.20.719,vbt_B1_day1,2022.2.4,Win32,60.50338819,51175,,,,,,,,,,,,,,,,,,,-0.007407365,-0.351851852,1,0,0,1.0249,0,16,16,12,1,m,images/br_m.png,images/cb_m.png,,,,,,,,,,,,,,,,,,,,,,,,,
,,,,,,51175,2023-07-20_13h27.20.719,vbt_B1_day1,2022.2.4,Win32,60.50338819,51175,,,,,,,,,,,,,,,,,,,-0.007407365,-0.351851852,1,0,0,0.3833,0,17,17,14,1,o,images/br_o.png,images/cb_o.png,,,,,,,,,,,,,,,,,,,,,,,,,
,,,,,,51175,2023-07-20_13h27.20.719,vbt_B1_day1,2022.2.4,Win32,60.50338819,51175,,,,,,,,,,,,,,,,,,,-0.007407365,-0.351851852,1,0,0,0.6693,0,18,18,23,1,x,images/br_x.png,images/cb_x.png,,,,,,,,,,,,,,,,,,,,,,,,,
,,,,,,51175,2023-07-20_13h27.20.719,vbt_B1_day1,2022.2.4,Win32,60.50338819,51175,,,,,,,,,,,,,,,,,,,-0.007407365,-0.351851852,1,0,0,1.4074,0,19,19,10,1,k,images/br_k.png,images/cb_k.png,,,,,,,,,,,,,,,,,,,,,,,,,
,,,,,,51175,2023-07-20_13h27.20.719,vbt_B1_day1,2022.2.4,Win32,60.50338819,51175,,,,,,,,,,,,,,,,,,,-0.007407365,-0.351851852,1,0,0,1.4533,0,20,20,25,1,z,images/br_z.png,images/cb_z.png,,,,,,,,,,,,,,,,,,,,,,,,,
,,,,,,51175,2023-07-20_13h27.20.719,vbt_B1_day1,2022.2.4,Win32,60.50338819,51175,,,,,,,,,,,,,,,,,,,-0.007407365,-0.351851852,1,0,0,4.2014,0,21,21,8,1,i,images/br_i.png,images/cb_i.png,,,,,,,,,,,,,,,,,,,,,,,,,
,,,,,,51175,2023-07-20_13h27.20.719,vbt_B1_day1,2022.2.4,Win32,60.50338819,51175,,,,,,,,,,,,,,,,,,,-0.007407365,-0.351851852,1,0,0,1.6347,0,22,22,17,1,r,images/br_r.png,images/cb_r.png,,,,,,,,,,,,,,,,,,,,,,,,,
,,,,,,51175,2023-07-20_13h27.20.719,vbt_B1_day1,2022.2.4,Win32,60.50338819,51175,,,,,,,,,,,,,,,,,,,-0.007407365,-0.351851852,1,0,0,0.2834,0,23,23,4,1,e,images/br_e.png,images/cb_e.png,,,,,,,,,,,,,,,,,,,,,,,,,
,,,,,,51175,2023-07-20_13h27.20.719,vbt_B1_day1,2022.2.4,Win32,60.50338819,51175,,,,,,,,,,,,,,,,,,,-0.007407365,-0.351851852,1,0,0,2.3252,0,24,24,20,1,u,images/br_u.png,images/cb_u.png,,,,,,,,,,,,,,,,,,,,,,,,,
,,,,,,51175,2023-07-20_13h27.20.719,vbt_B1_day1,2022.2.4,Win32,60.50338819,51175,,,,,,,,,,,,,,,,,,,-0.007407365,-0.351851852,1,0,0,2.2848,0,25,25,16,1,q,images/br_q.png,images/cb_q.png,,,,,,,,,,,,,,,,,,,,,,,,,
,,,,,,51175,2023-07-20_13h27.20.719,vbt_B1_day1,2022.2.4,Win32,60.50338819,51175,,,,,,,,,,,,,,,,,,,0.037037037,-0.310185185,1,0,0,2.8165,1,0,26,20,1,u,images/br_u.png,images/cb_u.png,,,,,,,,,,,,,,,,,,,,,,,,,
,,,,,,51175,2023-07-20_13h27.20.719,vbt_B1_day1,2022.2.4,Win32,60.50338819,51175,,,,,,,,,,,,,,,,,,,0.037037037,-0.310185185,1,0,0,0.7941,1,1,27,22,1,w,images/br_w.png,images/cb_w.png,,,,,,,,,,,,,,,,,,,,,,,,,
,,,,,,51175,2023-07-20_13h27.20.719,vbt_B1_day1,2022.2.4,Win32,60.50338819,51175,,,,,,,,,,,,,,,,,,,0.037037037,-0.310185185,1,0,0,0.671,1,2,28,24,1,y,images/br_y.png,images/cb_y.png,,,,,,,,,,,,,,,,,,,,,,,,,
,,,,,,51175,2023-07-20_13h27.20.719,vbt_B1_day1,2022.2.4,Win32,60.50338819,51175,,,,,,,,,,,,,,,,,,,0.037037037,-0.310185185,1,0,0,1.7865,1,3,29,8,1,i,images/br_i.png,images/cb_i.png,,,,,,,,,,,,,,,,,,,,,,,,,
,,,,,,51175,2023-07-20_13h27.20.719,vbt_B1_day1,2022.2.4,Win32,60.50338819,51175,,,,,,,,,,,,,,,,,,,0.037037037,-0.310185185,1,0,0,3.1205,1,4,30,17,1,r,images/br_r.png,images/cb_r.png,,,,,,,,,,,,,,,,,,,,,,,,,
,,,,,,51175,2023-07-20_13h27.20.719,vbt_B1_day1,2022.2.4,Win32,60.50338819,51175,,,,,,,,,,,,,,,,,,,0.037037037,-0.310185185,1,0,0,0.635,1,5,31,1,1,b,images/br_b.png,images/cb_b.png,,,,,,,,,,,,,,,,,,,,,,,,,
,,,,,,51175,2023-07-20_13h27.20.719,vbt_B1_day1,2022.2.4,Win32,60.50338819,51175,,,,,,,,,,,,,,,,,,,0.037037037,-0.310185185,1,0,0,2.5191,1,6,32,13,1,n,images/br_n.png,images/cb_n.png,,,,,,,,,,,,,,,,,,,,,,,,,
,,,,,,51175,2023-07-20_13h27.20.719,vbt_B1_day1,2022.2.4,Win32,60.50338819,51175,,,,,,,,,,,,,,,,,,,0.037037037,-0.310185185,1,0,0,1.1222,1,7,33,19,1,t,images/br_t.png,images/cb_t.png,,,,,,,,,,,,,,,,,,,,,,,,,
,,,,,,51175,2023-07-20_13h27.20.719,vbt_B1_day1,2022.2.4,Win32,60.50338819,51175,,,,,,,,,,,,,,,,,,,0.037037037,-0.310185185,1,0,0,0.4716,1,8,34,10,1,k,images/br_k.png,images/cb_k.png,,,,,,,,,,,,,,,,,,,,,,,,,
,,,,,,51175,2023-07-20_13h27.20.719,vbt_B1_day1,2022.2.4,Win32,60.50338819,51175,,,,,,,,,,,,,,,,,,,0.037037037,-0.310185185,1,0,0,0.7012,1,9,35,2,1,c,images/br_c.png,images/cb_c.png,,,,,,,,,,,,,,,,,,,,,,,,,
,,,,,,51175,2023-07-20_13h27.20.719,vbt_B1_day1,2022.2.4,Win32,60.50338819,51175,,,,,,,,,,,,,,,,,,,0.037037037,-0.310185185,1,0,0,1.7168,1,10,36,5,1,f,images/br_f.png,images/cb_f.png,,,,,,,,,,,,,,,,,,,,,,,,,
,,,,,,51175,2023-07-20_13h27.20.719,vbt_B1_day1,2022.2.4,Win32,60.50338819,51175,,,,,,,,,,,,,,,,,,,0.037037037,-0.310185185,1,0,0,0.8405,1,11,37,23,1,x,images/br_x.png,images/cb_x.png,,,,,,,,,,,,,,,,,,,,,,,,,
,,,,,,51175,2023-07-20_13h27.20.719,vbt_B1_day1,2022.2.4,Win32,60.50338819,51175,,,,,,,,,,,,,,,,,,,0.037037037,-0.310185185,1,0,0,0.9371,1,12,38,6,1,g,images/br_g.png,images/cb_g.png,,,,,,,,,,,,,,,,,,,,,,,,,
,,,,,,51175,2023-07-20_13h27.20.719,vbt_B1_day1,2022.2.4,Win32,60.50338819,51175,,,,,,,,,,,,,,,,,,,0.037037037,-0.310185185,1,0,0,1.4002,1,13,39,3,1,d,images/br_d.png,images/cb_d.png,,,,,,,,,,,,,,,,,,,,,,,,,
,,,,,,51175,2023-07-20_13h27.20.719,vbt_B1_day1,2022.2.4,Win32,60.50338819,51175,,,,,,,,,,,,,,,,,,,0.037037037,-0.310185185,1,0,0,0.836,1,14,40,7,1,h,images/br_h.png,images/cb_h.png,,,,,,,,,,,,,,,,,,,,,,,,,
,,,,,,51175,2023-07-20_13h27.20.719,vbt_B1_day1,2022.2.4,Win32,60.50338819,51175,,,,,,,,,,,,,,,,,,,0.037037037,-0.310185185,1,0,0,0.1836,1,15,41,11,1,l,images/br_l.png,images/cb_l.png,,,,,,,,,,,,,,,,,,,,,,,,,
,,,,,,51175,2023-07-20_13h27.20.719,vbt_B1_day1,2022.2.4,Win32,60.50338819,51175,,,,,,,,,,,,,,,,,,,0.037037037,-0.310185185,1,0,0,0.5947,1,16,42,0,1,a,images/br_a.png,images/cb_a.png,,,,,,,,,,,,,,,,,,,,,,,,,
,,,,,,51175,2023-07-20_13h27.20.719,vbt_B1_day1,2022.2.4,Win32,60.50338819,51175,,,,,,,,,,,,,,,,,,,0.037037037,-0.310185185,1,0,0,2.254,1,17,43,16,1,q,images/br_q.png,images/cb_q.png,,,,,,,,,,,,,,,,,,,,,,,,,
,,,,,,51175,2023-07-20_13h27.20.719,vbt_B1_day1,2022.2.4,Win32,60.50338819,51175,,,,,,,,,,,,,,,,,,,0.037037037,-0.310185185,1,0,0,1.4997,1,18,44,21,1,v,images/br_v.png,images/cb_v.png,,,,,,,,,,,,,,,,,,,,,,,,,
,,,,,,51175,2023-07-20_13h27.20.719,vbt_B1_day1,2022.2.4,Win32,60.50338819,51175,,,,,,,,,,,,,,,,,,,0.037037037,-0.310185185,1,0,0,1.1699,1,19,45,15,1,p,images/br_p.png,images/cb_p.png,,,,,,,,,,,,,,,,,,,,,,,,,
,,,,,,51175,2023-07-20_13h27.20.719,vbt_B1_day1,2022.2.4,Win32,60.50338819,51175,,,,,,,,,,,,,,,,,,,0.037037037,-0.310185185,1,0,0,1.9152,1,20,46,9,1,j,images/br_j.png,images/cb_j.png,,,,,,,,,,,,,,,,,,,,,,,,,
,,,,,,51175,2023-07-20_13h27.20.719,vbt_B1_day1,2022.2.4,Win32,60.50338819,51175,,,,,,,,,,,,,,,,,,,0.037037037,-0.310185185,1,0,0,0.4262,1,21,47,25,1,z,images/br_z.png,images/cb_z.png,,,,,,,,,,,,,,,,,,,,,,,,,
,,,,,,51175,2023-07-20_13h27.20.719,vbt_B1_day1,2022.2.4,Win32,60.50338819,51175,,,,,,,,,,,,,,,,,,,0.037037037,-0.310185185,1,0,0,2.7036,1,22,48,4,1,e,images/br_e.png,images/cb_e.png,,,,,,,,,,,,,,,,,,,,,,,,,
,,,,,,51175,2023-07-20_13h27.20.719,vbt_B1_day1,2022.2.4,Win32,60.50338819,51175,,,,,,,,,,,,,,,,,,,0.037037037,-0.310185185,1,0,0,3.0697,1,23,49,12,1,m,images/br_m.png,images/cb_m.png,,,,,,,,,,,,,,,,,,,,,,,,,
,,,,,,51175,2023-07-20_13h27.20.719,vbt_B1_day1,2022.2.4,Win32,60.50338819,51175,,,,,,,,,,,,,,,,,,,0.037037037,-0.310185185,1,0,0,2.9358,1,24,50,18,1,s,images/br_s.png,images/cb_s.png,,,,,,,,,,,,,,,,,,,,,,,,,
,,,,,,51175,2023-07-20_13h27.20.719,vbt_B1_day1,2022.2.4,Win32,60.50338819,51175,,,,,,,,,,,,,,,,,,,0.037037037,-0.310185185,1,0,0,2.5545,1,25,51,14,1,o,images/br_o.png,images/cb_o.png,,,,,,,,,,,,,,,,,,,,,,,,,
,,,,,,51175,2023-07-20_13h27.20.719,vbt_B1_day1,2022.2.4,Win32,60.50338819,51175,,,,,,,,,,,,,,,,,,,0.037037037,-0.310185185,1,0,0,0.6677,2,0,52,1,1,b,images/br_b.png,images/cb_b.png,,,,,,,,,,,,,,,,,,,,,,,,,
,,,,,,51175,2023-07-20_13h27.20.719,vbt_B1_day1,2022.2.4,Win32,60.50338819,51175,,,,,,,,,,,,,,,,,,,0.037037037,-0.310185185,1,0,0,2.124,2,1,53,8,1,i,images/br_i.png,images/cb_i.png,,,,,,,,,,,,,,,,,,,,,,,,,
,,,,,,51175,2023-07-20_13h27.20.719,vbt_B1_day1,2022.2.4,Win32,60.50338819,51175,,,,,,,,,,,,,,,,,,,0.037037037,-0.310185185,1,0,0,0.8824,2,2,54,22,1,w,images/br_w.png,images/cb_w.png,,,,,,,,,,,,,,,,,,,,,,,,,
,,,,,,51175,2023-07-20_13h27.20.719,vbt_B1_day1,2022.2.4,Win32,60.50338819,51175,,,,,,,,,,,,,,,,,,,0.037037037,-0.310185185,1,0,0,0.3519,2,3,55,7,1,h,images/br_h.png,images/cb_h.png,,,,,,,,,,,,,,,,,,,,,,,,,
,,,,,,51175,2023-07-20_13h27.20.719,vbt_B1_day1,2022.2.4,Win32,60.50338819,51175,,,,,,,,,,,,,,,,,,,0.037037037,-0.310185185,1,0,0,0.2343,2,4,56,9,1,j,images/br_j.png,images/cb_j.png,,,,,,,,,,,,,,,,,,,,,,,,,
,,,,,,51175,2023-07-20_13h27.20.719,vbt_B1_day1,2022.2.4,Win32,60.50338819,51175,,,,,,,,,,,,,,,,,,,0.037037037,-0.310185185,1,0,0,6.3699,2,5,57,6,1,g,images/br_g.png,images/cb_g.png,,,,,,,,,,,,,,,,,,,,,,,,,
,,,,,,51175,2023-07-20_13h27.20.719,vbt_B1_day1,2022.2.4,Win32,60.50338819,51175,,,,,,,,,,,,,,,,,,,0.037037037,-0.310185185,1,0,0,0.0332,2,6,58,16,1,q,images/br_q.png,images/cb_q.png,,,,,,,,,,,,,,,,,,,,,,,,,
,,,,,,51175,2023-07-20_13h27.20.719,vbt_B1_day1,2022.2.4,Win32,60.50338819,51175,,,,,,,,,,,,,,,,,,,0.037037037,-0.310185185,1,0,0,0.521,2,7,59,10,1,k,images/br_k.png,images/cb_k.png,,,,,,,,,,,,,,,,,,,,,,,,,
,,,,,,51175,2023-07-20_13h27.20.719,vbt_B1_day1,2022.2.4,Win32,60.50338819,51175,,,,,,,,,,,,,,,,,,,0.037037037,-0.310185185,1,0,0,0.4997,2,8,60,13,1,n,images/br_n.png,images/cb_n.png,,,,,,,,,,,,,,,,,,,,,,,,,
,,,,,,51175,2023-07-20_13h27.20.719,vbt_B1_day1,2022.2.4,Win32,60.50338819,51175,,,,,,,,,,,,,,,,,,,0.037037037,-0.310185185,1,0,0,0.1673,2,9,61,17,1,r,images/br_r.png,images/cb_r.png,,,,,,,,,,,,,,,,,,,,,,,,,
,,,,,,51175,2023-07-20_13h27.20.719,vbt_B1_day1,2022.2.4,Win32,60.50338819,51175,,,,,,,,,,,,,,,,,,,0.037037037,-0.310185185,1,0,0,0.3849,2,10,62,25,1,z,images/br_z.png,images/cb_z.png,,,,,,,,,,,,,,,,,,,,,,,,,
,,,,,,51175,2023-07-20_13h27.20.719,vbt_B1_day1,2022.2.4,Win32,60.50338819,51175,,,,,,,,,,,,,,,,,,,0.037037037,-0.310185185,1,0,0,0.102,2,11,63,0,1,a,images/br_a.png,images/cb_a.png,,,,,,,,,,,,,,,,,,,,,,,,,
,,,,,,51175,2023-07-20_13h27.20.719,vbt_B1_day1,2022.2.4,Win32,60.50338819,51175,,,,,,,,,,,,,,,,,,,0.037037037,-0.310185185,1,0,0,4.5996,2,12,64,3,1,d,images/br_d.png,images/cb_d.png,,,,,,,,,,,,,,,,,,,,,,,,,
,,,,,,51175,2023-07-20_13h27.20.719,vbt_B1_day1,2022.2.4,Win32,60.50338819,51175,,,,,,,,,,,,,,,,,,,0.037037037,-0.310185185,1,0,0,1.4879,2,13,65,4,1,e,images/br_e.png,images/cb_e.png,,,,,,,,,,,,,,,,,,,,,,,,,
,,,,,,51175,2023-07-20_13h27.20.719,vbt_B1_day1,2022.2.4,Win32,60.50338819,51175,,,,,,,,,,,,,,,,,,,0.037037037,-0.310185185,1,0,0,1.5596,2,14,66,11,1,l,images/br_l.png,images/cb_l.png,,,,,,,,,,,,,,,,,,,,,,,,,
,,,,,,51175,2023-07-20_13h27.20.719,vbt_B1_day1,2022.2.4,Win32,60.50338819,51175,,,,,,,,,,,,,,,,,,,0.037037037,-0.310185185,1,0,0,1.3856,2,15,67,12,1,m,images/br_m.png,images/cb_m.png,,,,,,,,,,,,,,,,,,,,,,,,,
,,,,,,51175,2023-07-20_13h27.20.719,vbt_B1_day1,2022.2.4,Win32,60.50338819,51175,,,,,,,,,,,,,,,,,,,0.037037037,-0.310185185,1,0,0,1.9681,2,16,68,20,1,u,images/br_u.png,images/cb_u.png,,,,,,,,,,,,,,,,,,,,,,,,,
,,,,,,51175,2023-07-20_13h27.20.719,vbt_B1_day1,2022.2.4,Win32,60.50338819,51175,,,,,,,,,,,,,,,,,,,0.037037037,-0.310185185,1,0,0,2.8356,2,17,69,2,1,c,images/br_c.png,images/cb_c.png,,,,,,,,,,,,,,,,,,,,,,,,,
,,,,,,51175,2023-07-20_13h27.20.719,vbt_B1_day1,2022.2.4,Win32,60.50338819,51175,,,,,,,,,,,,,,,,,,,0.037037037,-0.310185185,1,0,0,1.8367,2,18,70,18,1,s,images/br_s.png,images/cb_s.png,,,,,,,,,,,,,,,,,,,,,,,,,
,,,,,,51175,2023-07-20_13h27.20.719,vbt_B1_day1,2022.2.4,Win32,60.50338819,51175,,,,,,,,,,,,,,,,,,,0.037037037,-0.310185185,1,0,0,3.2003,2,19,71,14,1,o,images/br_o.png,images/cb_o.png,,,,,,,,,,,,,,,,,,,,,,,,,
,,,,,,51175,2023-07-20_13h27.20.719,vbt_B1_day1,2022.2.4,Win32,60.50338819,51175,,,,,,,,,,,,,,,,,,,0.037037037,-0.310185185,1,0,0,1.1332,2,20,72,19,1,t,images/br_t.png,images/cb_t.png,,,,,,,,,,,,,,,,,,,,,,,,,
,,,,,,51175,2023-07-20_13h27.20.719,vbt_B1_day1,2022.2.4,Win32,60.50338819,51175,,,,,,,,,,,,,,,,,,,0.037037037,-0.310185185,1,0,0,0.7993,2,21,73,5,1,f,images/br_f.png,images/cb_f.png,,,,,,,,,,,,,,,,,,,,,,,,,
,,,,,,51175,2023-07-20_13h27.20.719,vbt_B1_day1,2022.2.4,Win32,60.50338819,51175,,,,,,,,,,,,,,,,,,,0.037037037,-0.310185185,1,0,0,0.0499,2,22,74,23,1,x,images/br_x.png,images/cb_x.png,,,,,,,,,,,,,,,,,,,,,,,,,
,,,,,,51175,2023-07-20_13h27.20.719,vbt_B1_day1,2022.2.4,Win32,60.50338819,51175,,,,,,,,,,,,,,,,,,,0.037037037,-0.310185185,1,0,0,0.9685,2,23,75,24,1,y,images/br_y.png,images/cb_y.png,,,,,,,,,,,,,,,,,,,,,,,,,
,,,,,,51175,2023-07-20_13h27.20.719,vbt_B1_day1,2022.2.4,Win32,60.50338819,51175,,,,,,,,,,,,,,,,,,,0.037037037,-0.310185185,1,0,0,1.592,2,24,76,21,1,v,images/br_v.png,images/cb_v.png,,,,,,,,,,,,,,,,,,,,,,,,,
,,,,,,51175,2023-07-20_13h27.20.719,vbt_B1_day1,2022.2.4,Win32,60.50338819,51175,,,,,,,,,,,,,,,,,,,0.037037037,-0.310185185,1,0,0,2.0782,2,25,77,15,1,p,images/br_p.png,images/cb_p.png,,,,,,,,,,,,,,,,,,,,,,,,,
,,,,,,51175,2023-07-20_13h27.20.719,vbt_B1_day1,2022.2.4,Win32,60.50338819,51175,,,,,,,,,,,,,,,,,,,0.037037037,-0.310185185,1,0,0,0.6039,3,0,78,15,1,p,images/br_p.png,images/cb_p.png,,,,,,,,,,,,,,,,,,,,,,,,,
,,,,,,51175,2023-07-20_13h27.20.719,vbt_B1_day1,2022.2.4,Win32,60.50338819,51175,,,,,,,,,,,,,,,,,,,0.037037037,-0.310185185,1,0,0,0.206,3,1,79,2,1,c,images/br_c.png,images/cb_c.png,,,,,,,,,,,,,,,,,,,,,,,,,
,,,,,,51175,2023-07-20_13h27.20.719,vbt_B1_day1,2022.2.4,Win32,60.50338819,51175,,,,,,,,,,,,,,,,,,,0.037037037,-0.310185185,1,0,0,3.9667,3,2,80,6,1,g,images/br_g.png,images/cb_g.png,,,,,,,,,,,,,,,,,,,,,,,,,
,,,,,,51175,2023-07-20_13h27.20.719,vbt_B1_day1,2022.2.4,Win32,60.50338819,51175,,,,,,,,,,,,,,,,,,,0.037037037,-0.310185185,1,0,0,2.033,3,3,81,1,1,b,images/br_b.png,images/cb_b.png,,,,,,,,,,,,,,,,,,,,,,,,,
,,,,,,51175,2023-07-20_13h27.20.719,vbt_B1_day1,2022.2.4,Win32,60.50338819,51175,,,,,,,,,,,,,,,,,,,0.037037037,-0.310185185,1,0,0,1.4198,3,4,82,0,1,a,images/br_a.png,images/cb_a.png,,,,,,,,,,,,,,,,,,,,,,,,,
,,,,,,51175,2023-07-20_13h27.20.719,vbt_B1_day1,2022.2.4,Win32,60.50338819,51175,,,,,,,,,,,,,,,,,,,0.037037037,-0.310185185,1,0,0,1.5546,3,5,83,25,1,z,images/br_z.png,images/cb_z.png,,,,,,,,,,,,,,,,,,,,,,,,,
,,,,,,51175,2023-07-20_13h27.20.719,vbt_B1_day1,2022.2.4,Win32,60.50338819,51175,,,,,,,,,,,,,,,,,,,0.037037037,-0.310185185,1,0,0,1.8526,3,6,84,20,1,u,images/br_u.png,images/cb_u.png,,,,,,,,,,,,,,,,,,,,,,,,,
,,,,,,51175,2023-07-20_13h27.20.719,vbt_B1_day1,2022.2.4,Win32,60.50338819,51175,,,,,,,,,,,,,,,,,,,0.037037037,-0.310185185,1,0,0,1.9667,3,7,85,16,1,q,images/br_q.png,images/cb_q.png,,,,,,,,,,,,,,,,,,,,,,,,,
,,,,,,51175,2023-07-20_13h27.20.719,vbt_B1_day1,2022.2.4,Win32,60.50338819,51175,,,,,,,,,,,,,,,,,,,0.037037037,-0.310185185,1,0,0,0.057,3,8,86,23,1,x,images/br_x.png,images/cb_x.png,,,,,,,,,,,,,,,,,,,,,,,,,
,,,,,,51175,2023-07-20_13h27.20.719,vbt_B1_day1,2022.2.4,Win32,60.50338819,51175,,,,,,,,,,,,,,,,,,,0.037037037,-0.310185185,1,0,0,0.6334,3,9,87,9,1,j,images/br_j.png,images/cb_j.png,,,,,,,,,,,,,,,,,,,,,,,,,
,,,,,,51175,2023-07-20_13h27.20.719,vbt_B1_day1,2022.2.4,Win32,60.50338819,51175,,,,,,,,,,,,,,,,,,,0.037037037,-0.310185185,1,0,0,1.4183,3,10,88,21,1,v,images/br_v.png,images/cb_v.png,,,,,,,,,,,,,,,,,,,,,,,,,
,,,,,,51175,2023-07-20_13h27.20.719,vbt_B1_day1,2022.2.4,Win32,60.50338819,51175,,,,,,,,,,,,,,,,,,,0.037037037,-0.310185185,1,0,0,0.5338,3,11,89,7,1,h,images/br_h.png,images/cb_h.png,,,,,,,,,,,,,,,,,,,,,,,,,
,,,,,,51175,2023-07-20_13h27.20.719,vbt_B1_day1,2022.2.4,Win32,60.50338819,51175,,,,,,,,,,,,,,,,,,,0.037037037,-0.310185185,1,0,0,1.0163,3,12,90,3,1,d,images/br_d.png,images/cb_d.png,,,,,,,,,,,,,,,,,,,,,,,,,
,,,,,,51175,2023-07-20_13h27.20.719,vbt_B1_day1,2022.2.4,Win32,60.50338819,51175,,,,,,,,,,,,,,,,,,,0.037037037,-0.310185185,1,0,0,7.1374,3,13,91,8,1,i,images/br_i.png,images/cb_i.png,,,,,,,,,,,,,,,,,,,,,,,,,
,,,,,,51175,2023-07-20_13h27.20.719,vbt_B1_day1,2022.2.4,Win32,60.50338819,51175,,,,,,,,,,,,,,,,,,,0.037037037,-0.310185185,1,0,0,0.0399,3,14,92,4,1,e,images/br_e.png,images/cb_e.png,,,,,,,,,,,,,,,,,,,,,,,,,
,,,,,,51175,2023-07-20_13h27.20.719,vbt_B1_day1,2022.2.4,Win32,60.50338819,51175,,,,,,,,,,,,,,,,,,,0.037037037,-0.310185185,1,0,0,0.0345,3,15,93,18,1,s,images/br_s.png,images/cb_s.png,,,,,,,,,,,,,,,,,,,,,,,,,
,,,,,,51175,2023-07-20_13h27.20.719,vbt_B1_day1,2022.2.4,Win32,60.50338819,51175,,,,,,,,,,,,,,,,,,,0.037037037,-0.310185185,1,0,0,1.7184,3,16,94,5,1,f,images/br_f.png,images/cb_f.png,,,,,,,,,,,,,,,,,,,,,,,,,
,,,,,,51175,2023-07-20_13h27.20.719,vbt_B1_day1,2022.2.4,Win32,60.50338819,51175,,,,,,,,,,,,,,,,,,,0.037037037,-0.310185185,1,0,0,0.1939,3,17,95,14,1,o,images/br_o.png,images/cb_o.png,,,,,,,,,,,,,,,,,,,,,,,,,
,,,,,,51175,2023-07-20_13h27.20.719,vbt_B1_day1,2022.2.4,Win32,60.50338819,51175,,,,,,,,,,,,,,,,,,,0.037037037,-0.310185185,1,0,0,0.3897,3,18,96,12,1,m,images/br_m.png,images/cb_m.png,,,,,,,,,,,,,,,,,,,,,,,,,
,,,,,,51175,2023-07-20_13h27.20.719,vbt_B1_day1,2022.2.4,Win32,60.50338819,51175,,,,,,,,,,,,,,,,,,,0.037037037,-0.310185185,1,0,0,0.1001,3,19,97,11,1,l,images/br_l.png,images/cb_l.png,,,,,,,,,,,,,,,,,,,,,,,,,
,,,,,,51175,2023-07-20_13h27.20.719,vbt_B1_day1,2022.2.4,Win32,60.50338819,51175,,,,,,,,,,,,,,,,,,,0.037037037,-0.310185185,1,0,0,1.3996,3,20,98,13,1,n,images/br_n.png,images/cb_n.png,,,,,,,,,,,,,,,,,,,,,,,,,
,,,,,,51175,2023-07-20_13h27.20.719,vbt_B1_day1,2022.2.4,Win32,60.50338819,51175,,,,,,,,,,,,,,,,,,,0.037037037,-0.310185185,1,0,0,1.9337,3,21,99,19,1,t,images/br_t.png,images/cb_t.png,,,,,,,,,,,,,,,,,,,,,,,,,
,,,,,,51175,2023-07-20_13h27.20.719,vbt_B1_day1,2022.2.4,Win32,60.50338819,51175,,,,,,,,,,,,,,,,,,,0.037037037,-0.310185185,1,0,0,5.0828,3,22,100,17,1,r,images/br_r.png,images/cb_r.png,,,,,,,,,,,,,,,,,,,,,,,,,
,,,,,,51175,2023-07-20_13h27.20.719,vbt_B1_day1,2022.2.4,Win32,60.50338819,51175,,,,,,,,,,,,,,,,,,,0.037037037,-0.310185185,1,0,0,0.5895,3,23,101,22,1,w,images/br_w.png,images/cb_w.png,,,,,,,,,,,,,,,,,,,,,,,,,
,,,,,,51175,2023-07-20_13h27.20.719,vbt_B1_day1,2022.2.4,Win32,60.50338819,51175,,,,,,,,,,,,,,,,,,,0.037037037,-0.310185185,1,0,0,1.0602,3,24,102,10,1,k,images/br_k.png,images/cb_k.png,,,,,,,,,,,,,,,,,,,,,,,,,
,,,,,,51175,2023-07-20_13h27.20.719,vbt_B1_day1,2022.2.4,Win32,60.50338819,51175,,,,,,,,,,,,,,,,,,,0.037037037,-0.310185185,1,0,0,4.6993,3,25,103,24,1,y,images/br_y.png,images/cb_y.png,,,,,,,,,,,,,,,,,,,,,,,,,
,,,,,,51175,2023-07-20_13h27.20.719,vbt_B1_day1,2022.2.4,Win32,60.50338819,51175,,,,,,,,,,,,,,,,,,,0.037037037,-0.310185185,1,0,0,2.3442,4,0,104,19,1,t,images/br_t.png,images/cb_t.png,,,,,,,,,,,,,,,,,,,,,,,,,
,,,,,,51175,2023-07-20_13h27.20.719,vbt_B1_day1,2022.2.4,Win32,60.50338819,51175,,,,,,,,,,,,,,,,,,,0.037037037,-0.310185185,1,0,0,0.4,4,1,105,15,1,p,images/br_p.png,images/cb_p.png,,,,,,,,,,,,,,,,,,,,,,,,,
,,,,,,51175,2023-07-20_13h27.20.719,vbt_B1_day1,2022.2.4,Win32,60.50338819,51175,,,,,,,,,,,,,,,,,,,0.037037037,-0.310185185,1,0,0,0.1832,4,2,106,11,1,l,images/br_l.png,images/cb_l.png,,,,,,,,,,,,,,,,,,,,,,,,,
,,,,,,51175,2023-07-20_13h27.20.719,vbt_B1_day1,2022.2.4,Win32,60.50338819,51175,,,,,,,,,,,,,,,,,,,0.037037037,-0.310185185,1,0,0,1.328,4,3,107,4,1,e,images/br_e.png,images/cb_e.png,,,,,,,,,,,,,,,,,,,,,,,,,
,,,,,,51175,2023-07-20_13h27.20.719,vbt_B1_day1,2022.2.4,Win32,60.50338819,51175,,,,,,,,,,,,,,,,,,,0.037037037,-0.310185185,1,0,0,1.0914,4,4,108,22,1,w,images/br_w.png,images/cb_w.png,,,,,,,,,,,,,,,,,,,,,,,,,
,,,,,,51175,2023-07-20_13h27.20.719,vbt_B1_day1,2022.2.4,Win32,60.50338819,51175,,,,,,,,,,,,,,,,,,,0.037037037,-0.310185185,1,0,0,2.2334,4,5,109,23,1,x,images/br_x.png,images/cb_x.png,,,,,,,,,,,,,,,,,,,,,,,,,
,,,,,,51175,2023-07-20_13h27.20.719,vbt_B1_day1,2022.2.4,Win32,60.50338819,51175,,,,,,,,,,,,,,,,,,,0.037037037,-0.310185185,1,0,0,3.6662,4,6,110,6,1,g,images/br_g.png,images/cb_g.png,,,,,,,,,,,,,,,,,,,,,,,,,
,,,,,,51175,2023-07-20_13h27.20.719,vbt_B1_day1,2022.2.4,Win32,60.50338819,51175,,,,,,,,,,,,,,,,,,,0.037037037,-0.310185185,1,0,0,8.5182,4,7,111,9,1,j,images/br_j.png,images/cb_j.png,,,,,,,,,,,,,,,,,,,,,,,,,
,,,,,,51175,2023-07-20_13h27.20.719,vbt_B1_day1,2022.2.4,Win32,60.50338819,51175,,,,,,,,,,,,,,,,,,,0.037037037,-0.310185185,1,0,0,2.0552,4,8,112,17,1,r,images/br_r.png,images/cb_r.png,,,,,,,,,,,,,,,,,,,,,,,,,
,,,,,,51175,2023-07-20_13h27.20.719,vbt_B1_day1,2022.2.4,Win32,60.50338819,51175,,,,,,,,,,,,,,,,,,,0.037037037,-0.310185185,1,0,0,0.0882,4,9,113,20,1,u,images/br_u.png,images/cb_u.png,,,,,,,,,,,,,,,,,,,,,,,,,
,,,,,,51175,2023-07-20_13h27.20.719,vbt_B1_day1,2022.2.4,Win32,60.50338819,51175,,,,,,,,,,,,,,,,,,,0.037037037,-0.310185185,1,0,0,0.6331,4,10,114,24,1,y,images/br_y.png,images/cb_y.png,,,,,,,,,,,,,,,,,,,,,,,,,
,,,,,,51175,2023-07-20_13h27.20.719,vbt_B1_day1,2022.2.4,Win32,60.50338819,51175,,,,,,,,,,,,,,,,,,,0.037037037,-0.310185185,1,0,0,2.0837,4,11,115,7,1,h,images/br_h.png,images/cb_h.png,,,,,,,,,,,,,,,,,,,,,,,,,
,,,,,,51175,2023-07-20_13h27.20.719,vbt_B1_day1,2022.2.4,Win32,60.50338819,51175,,,,,,,,,,,,,,,,,,,0.037037037,-0.310185185,1,0,0,0.1361,4,12,116,3,1,d,images/br_d.png,images/cb_d.png,,,,,,,,,,,,,,,,,,,,,,,,,
,,,,,,51175,2023-07-20_13h27.20.719,vbt_B1_day1,2022.2.4,Win32,60.50338819,51175,,,,,,,,,,,,,,,,,,,0.037037037,-0.310185185,1,0,0,2.4835,4,13,117,0,1,a,images/br_a.png,images/cb_a.png,,,,,,,,,,,,,,,,,,,,,,,,,
,,,,,,51175,2023-07-20_13h27.20.719,vbt_B1_day1,2022.2.4,Win32,60.50338819,51175,,,,,,,,,,,,,,,,,,,0.037037037,-0.310185185,1,0,0,0.5422,4,14,118,13,1,n,images/br_n.png,images/cb_n.png,,,,,,,,,,,,,,,,,,,,,,,,,
,,,,,,51175,2023-07-20_13h27.20.719,vbt_B1_day1,2022.2.4,Win32,60.50338819,51175,,,,,,,,,,,,,,,,,,,0.037037037,-0.310185185,1,0,0,2.7186,4,15,119,12,1,m,images/br_m.png,images/cb_m.png,,,,,,,,,,,,,,,,,,,,,,,,,
,,,,,,51175,2023-07-20_13h27.20.719,vbt_B1_day1,2022.2.4,Win32,60.50338819,51175,,,,,,,,,,,,,,,,,,,0.037037037,-0.310185185,1,0,0,0.7337,4,16,120,8,1,i,images/br_i.png,images/cb_i.png,,,,,,,,,,,,,,,,,,,,,,,,,
,,,,,,51175,2023-07-20_13h27.20.719,vbt_B1_day1,2022.2.4,Win32,60.50338819,51175,,,,,,,,,,,,,,,,,,,0.037037037,-0.310185185,1,0,0,1.9046,4,17,121,5,1,f,images/br_f.png,images/cb_f.png,,,,,,,,,,,,,,,,,,,,,,,,,
,,,,,,51175,2023-07-20_13h27.20.719,vbt_B1_day1,2022.2.4,Win32,60.50338819,51175,,,,,,,,,,,,,,,,,,,0.037037037,-0.310185185,1,0,0,3.2058,4,18,122,2,1,c,images/br_c.png,images/cb_c.png,,,,,,,,,,,,,,,,,,,,,,,,,
,,,,,,51175,2023-07-20_13h27.20.719,vbt_B1_day1,2022.2.4,Win32,60.50338819,51175,,,,,,,,,,,,,,,,,,,0.037037037,-0.310185185,1,0,0,3.8062,4,19,123,1,1,b,images/br_b.png,images/cb_b.png,,,,,,,,,,,,,,,,,,,,,,,,,
,,,,,,51175,2023-07-20_13h27.20.719,vbt_B1_day1,2022.2.4,Win32,60.50338819,51175,,,,,,,,,,,,,,,,,,,0.037037037,-0.310185185,1,0,0,2.2335,4,20,124,21,1,v,images/br_v.png,images/cb_v.png,,,,,,,,,,,,,,,,,,,,,,,,,
,,,,,,51175,2023-07-20_13h27.20.719,vbt_B1_day1,2022.2.4,Win32,60.50338819,51175,,,,,,,,,,,,,,,,,,,0.037037037,-0.310185185,1,0,0,0.5344,4,21,125,18,1,s,images/br_s.png,images/cb_s.png,,,,,,,,,,,,,,,,,,,,,,,,,
,,,,,,51175,2023-07-20_13h27.20.719,vbt_B1_day1,2022.2.4,Win32,60.50338819,51175,,,,,,,,,,,,,,,,,,,0.037037037,-0.310185185,1,0,0,0.1068,4,22,126,14,1,o,images/br_o.png,images/cb_o.png,,,,,,,,,,,,,,,,,,,,,,,,,
,,,,,,51175,2023-07-20_13h27.20.719,vbt_B1_day1,2022.2.4,Win32,60.50338819,51175,,,,,,,,,,,,,,,,,,,0.037037037,-0.310185185,1,0,0,0.7349,4,23,127,16,1,q,images/br_q.png,images/cb_q.png,,,,,,,,,,,,,,,,,,,,,,,,,
,,,,,,51175,2023-07-20_13h27.20.719,vbt_B1_day1,2022.2.4,Win32,60.50338819,51175,,,,,,,,,,,,,,,,,,,0.037037037,-0.310185185,1,0,0,0.3498,4,24,128,10,1,k,images/br_k.png,images/cb_k.png,,,,,,,,,,,,,,,,,,,,,,,,,
,,,,,,51175,2023-07-20_13h27.20.719,vbt_B1_day1,2022.2.4,Win32,60.50338819,51175,,,,,,,,,,,,,,,,,,,0.037037037,-0.310185185,1,0,0,0.8026,4,25,129,25,1,z,images/br_z.png,images/cb_z.png,,,,,,,,,,,,,,,,,,,,,,,,,
,,,,,,51175,2023-07-20_13h27.20.719,vbt_B1_day1,2022.2.4,Win32,60.50338819,51175,,,,,,,,,,,,,,,,,,,0.037037037,-0.310185185,1,0,0,0.7835,5,0,130,16,1,q,images/br_q.png,images/cb_q.png,,,,,,,,,,,,,,,,,,,,,,,,,
,,,,,,51175,2023-07-20_13h27.20.719,vbt_B1_day1,2022.2.4,Win32,60.50338819,51175,,,,,,,,,,,,,,,,,,,0.037037037,-0.310185185,1,0,0,0.3664,5,1,131,22,1,w,images/br_w.png,images/cb_w.png,,,,,,,,,,,,,,,,,,,,,,,,,
,,,,,,51175,2023-07-20_13h27.20.719,vbt_B1_day1,2022.2.4,Win32,60.50338819,51175,,,,,,,,,,,,,,,,,,,0.037037037,-0.310185185,1,0,0,5.466,5,2,132,3,1,d,images/br_d.png,images/cb_d.png,,,,,,,,,,,,,,,,,,,,,,,,,
,,,,,,51175,2023-07-20_13h27.20.719,vbt_B1_day1,2022.2.4,Win32,60.50338819,51175,,,,,,,,,,,,,,,,,,,0.037037037,-0.310185185,1,0,0,2.5349,5,3,133,4,1,e,images/br_e.png,images/cb_e.png,,,,,,,,,,,,,,,,,,,,,,,,,
,,,,,,51175,2023-07-20_13h27.20.719,vbt_B1_day1,2022.2.4,Win32,60.50338819,51175,,,,,,,,,,,,,,,,,,,0.037037037,-0.310185185,1,0,0,2.1855,5,4,134,10,1,k,images/br_k.png,images/cb_k.png,,,,,,,,,,,,,,,,,,,,,,,,,
,,,,,,51175,2023-07-20_13h27.20.719,vbt_B1_day1,2022.2.4,Win32,60.50338819,51175,,,,,,,,,,,,,,,,,,,0.037037037,-0.310185185,1,0,0,0.4831,5,5,135,7,1,h,images/br_h.png,images/cb_h.png,,,,,,,,,,,,,,,,,,,,,,,,,
,,,,,,51175,2023-07-20_13h27.20.719,vbt_B1_day1,2022.2.4,Win32,60.50338819,51175,,,,,,,,,,,,,,,,,,,0.037037037,-0.310185185,1,0,0,0.1865,5,6,136,25,1,z,images/br_z.png,images/cb_z.png,,,,,,,,,,,,,,,,,,,,,,,,,
,,,,,,51175,2023-07-20_13h27.20.719,vbt_B1_day1,2022.2.4,Win32,60.50338819,51175,,,,,,,,,,,,,,,,,,,0.037037037,-0.310185185,1,0,0,0.6331,5,7,137,20,1,u,images/br_u.png,images/cb_u.png,,,,,,,,,,,,,,,,,,,,,,,,,
,,,,,,51175,2023-07-20_13h27.20.719,vbt_B1_day1,2022.2.4,Win32,60.50338819,51175,,,,,,,,,,,,,,,,,,,0.037037037,-0.310185185,1,0,0,0.1239,5,8,138,6,1,g,images/br_g.png,images/cb_g.png,,,,,,,,,,,,,,,,,,,,,,,,,
,,,,,,51175,2023-07-20_13h27.20.719,vbt_B1_day1,2022.2.4,Win32,60.50338819,51175,,,,,,,,,,,,,,,,,,,0.037037037,-0.310185185,1,0,0,0.2663,5,9,139,2,1,c,images/br_c.png,images/cb_c.png,,,,,,,,,,,,,,,,,,,,,,,,,
,,,,,,51175,2023-07-20_13h27.20.719,vbt_B1_day1,2022.2.4,Win32,60.50338819,51175,,,,,,,,,,,,,,,,,,,0.037037037,-0.310185185,1,0,0,0.5332,5,10,140,21,1,v,images/br_v.png,images/cb_v.png,,,,,,,,,,,,,,,,,,,,,,,,,
,,,,,,51175,2023-07-20_13h27.20.719,vbt_B1_day1,2022.2.4,Win32,60.50338819,51175,,,,,,,,,,,,,,,,,,,0.037037037,-0.310185185,1,0,0,0.2216,5,11,141,23,1,x,images/br_x.png,images/cb_x.png,,,,,,,,,,,,,,,,,,,,,,,,,
,,,,,,51175,2023-07-20_13h27.20.719,vbt_B1_day1,2022.2.4,Win32,60.50338819,51175,,,,,,,,,,,,,,,,,,,0.037037037,-0.310185185,1,0,0,1.5524,5,12,142,1,1,b,images/br_b.png,images/cb_b.png,,,,,,,,,,,,,,,,,,,,,,,,,
,,,,,,51175,2023-07-20_13h27.20.719,vbt_B1_day1,2022.2.4,Win32,60.50338819,51175,,,,,,,,,,,,,,,,,,,0.037037037,-0.310185185,1,0,0,0.0835,5,13,143,11,1,l,images/br_l.png,images/cb_l.png,,,,,,,,,,,,,,,,,,,,,,,,,
,,,,,,51175,2023-07-20_13h27.20.719,vbt_B1_day1,2022.2.4,Win32,60.50338819,51175,,,,,,,,,,,,,,,,,,,0.037037037,-0.310185185,1,0,0,2.5372,5,14,144,15,1,p,images/br_p.png,images/cb_p.png,,,,,,,,,,,,,,,,,,,,,,,,,
,,,,,,51175,2023-07-20_13h27.20.719,vbt_B1_day1,2022.2.4,Win32,60.50338819,51175,,,,,,,,,,,,,,,,,,,0.037037037,-0.310185185,1,0,0,1.4709,5,15,145,8,1,i,images/br_i.png,images/cb_i.png,,,,,,,,,,,,,,,,,,,,,,,,,
,,,,,,51175,2023-07-20_13h27.20.719,vbt_B1_day1,2022.2.4,Win32,60.50338819,51175,,,,,,,,,,,,,,,,,,,0.037037037,-0.310185185,1,0,0,1.9506,5,16,146,9,1,j,images/br_j.png,images/cb_j.png,,,,,,,,,,,,,,,,,,,,,,,,,
,,,,,,51175,2023-07-20_13h27.20.719,vbt_B1_day1,2022.2.4,Win32,60.50338819,51175,,,,,,,,,,,,,,,,,,,0.037037037,-0.310185185,1,0,0,1.403,5,17,147,14,1,o,images/br_o.png,images/cb_o.png,,,,,,,,,,,,,,,,,,,,,,,,,
,,,,,,51175,2023-07-20_13h27.20.719,vbt_B1_day1,2022.2.4,Win32,60.50338819,51175,,,,,,,,,,,,,,,,,,,0.037037037,-0.310185185,1,0,0,0.9488,5,18,148,24,1,y,images/br_y.png,images/cb_y.png,,,,,,,,,,,,,,,,,,,,,,,,,
,,,,,,51175,2023-07-20_13h27.20.719,vbt_B1_day1,2022.2.4,Win32,60.50338819,51175,,,,,,,,,,,,,,,,,,,0.037037037,-0.310185185,1,0,0,0.0223,5,19,149,19,1,t,images/br_t.png,images/cb_t.png,,,,,,,,,,,,,,,,,,,,,,,,,
,,,,,,51175,2023-07-20_13h27.20.719,vbt_B1_day1,2022.2.4,Win32,60.50338819,51175,,,,,,,,,,,,,,,,,,,0.037037037,-0.310185185,1,0,0,4.9492,5,20,150,12,1,m,images/br_m.png,images/cb_m.png,,,,,,,,,,,,,,,,,,,,,,,,,
,,,,,,51175,2023-07-20_13h27.20.719,vbt_B1_day1,2022.2.4,Win32,60.50338819,51175,,,,,,,,,,,,,,,,,,,0.037037037,-0.310185185,1,0,0,0.3345,5,21,151,13,1,n,images/br_n.png,images/cb_n.png,,,,,,,,,,,,,,,,,,,,,,,,,
,,,,,,51175,2023-07-20_13h27.20.719,vbt_B1_day1,2022.2.4,Win32,60.50338819,51175,,,,,,,,,,,,,,,,,,,0.037037037,-0.310185185,1,0,0,0.5045,5,22,152,5,1,f,images/br_f.png,images/cb_f.png,,,,,,,,,,,,,,,,,,,,,,,,,
,,,,,,51175,2023-07-20_13h27.20.719,vbt_B1_day1,2022.2.4,Win32,60.50338819,51175,,,,,,,,,,,,,,,,,,,0.037037037,-0.310185185,1,0,0,1.3218,5,23,153,0,1,a,images/br_a.png,images/cb_a.png,,,,,,,,,,,,,,,,,,,,,,,,,
,,,,,,51175,2023-07-20_13h27.20.719,vbt_B1_day1,2022.2.4,Win32,60.50338819,51175,,,,,,,,,,,,,,,,,,,0.037037037,-0.310185185,1,0,0,4.1541,5,24,154,18,1,s,images/br_s.png,images/cb_s.png,,,,,,,,,,,,,,,,,,,,,,,,,
,,,,,,51175,2023-07-20_13h27.20.719,vbt_B1_day1,2022.2.4,Win32,60.50338819,51175,,,,,,,,,,,,,,,,,,,0.037037037,-0.310185185,1,0,0,2.0668,5,25,155,17,1,r,images/br_r.png,images/cb_r.png,,,,,,,,,,,,,,,,,,,,,,,,,
,,,,,,51175,2023-07-20_13h27.20.719,vbt_B1_day1,2022.2.4,Win32,60.50338819,51175,,,,,,,,,,,,,,,,,,,0.037037037,-0.310185185,1,0,0,3.4246,6,0,156,2,1,c,images/br_c.png,images/cb_c.png,,,,,,,,,,,,,,,,,,,,,,,,,
,,,,,,51175,2023-07-20_13h27.20.719,vbt_B1_day1,2022.2.4,Win32,60.50338819,51175,,,,,,,,,,,,,,,,,,,0.037037037,-0.310185185,1,0,0,5.9326,6,1,157,17,1,r,images/br_r.png,images/cb_r.png,,,,,,,,,,,,,,,,,,,,,,,,,
,,,,,,51175,2023-07-20_13h27.20.719,vbt_B1_day1,2022.2.4,Win32,60.50338819,51175,,,,,,,,,,,,,,,,,,,0.037037037,-0.310185185,1,0,0,2.8525,6,2,158,9,1,j,images/br_j.png,images/cb_j.png,,,,,,,,,,,,,,,,,,,,,,,,,
,,,,,,51175,2023-07-20_13h27.20.719,vbt_B1_day1,2022.2.4,Win32,60.50338819,51175,,,,,,,,,,,,,,,,,,,0.037037037,-0.310185185,1,0,0,1.9226,6,3,159,4,1,e,images/br_e.png,images/cb_e.png,,,,,,,,,,,,,,,,,,,,,,,,,
,,,,,,51175,2023-07-20_13h27.20.719,vbt_B1_day1,2022.2.4,Win32,60.50338819,51175,,,,,,,,,,,,,,,,,,,0.037037037,-0.310185185,1,0,0,4.8666,6,4,160,11,1,l,images/br_l.png,images/cb_l.png,,,,,,,,,,,,,,,,,,,,,,,,,
,,,,,,51175,2023-07-20_13h27.20.719,vbt_B1_day1,2022.2.4,Win32,60.50338819,51175,,,,,,,,,,,,,,,,,,,0.037037037,-0.310185185,1,0,0,0.5103,6,5,161,24,1,y,images/br_y.png,images/cb_y.png,,,,,,,,,,,,,,,,,,,,,,,,,
,,,,,,51175,2023-07-20_13h27.20.719,vbt_B1_day1,2022.2.4,Win32,60.50338819,51175,,,,,,,,,,,,,,,,,,,0.037037037,-0.310185185,1,0,0,8.4994,6,6,162,20,1,u,images/br_u.png,images/cb_u.png,,,,,,,,,,,,,,,,,,,,,,,,,
,,,,,,51175,2023-07-20_13h27.20.719,vbt_B1_day1,2022.2.4,Win32,60.50338819,51175,,,,,,,,,,,,,,,,,,,0.037037037,-0.310185185,1,0,0,2.1395,6,7,163,22,1,w,images/br_w.png,images/cb_w.png,,,,,,,,,,,,,,,,,,,,,,,,,
,,,,,,51175,2023-07-20_13h27.20.719,vbt_B1_day1,2022.2.4,Win32,60.50338819,51175,,,,,,,,,,,,,,,,,,,0.037037037,-0.310185185,1,0,0,5.7494,6,8,164,3,1,d,images/br_d.png,images/cb_d.png,,,,,,,,,,,,,,,,,,,,,,,,,
,,,,,,51175,2023-07-20_13h27.20.719,vbt_B1_day1,2022.2.4,Win32,60.50338819,51175,,,,,,,,,,,,,,,,,,,0.037037037,-0.310185185,1,0,0,1.1242,6,9,165,15,1,p,images/br_p.png,images/cb_p.png,,,,,,,,,,,,,,,,,,,,,,,,,
,,,,,,51175,2023-07-20_13h27.20.719,vbt_B1_day1,2022.2.4,Win32,60.50338819,51175,,,,,,,,,,,,,,,,,,,0.037037037,-0.310185185,1,0,0,0.3714,6,10,166,14,1,o,images/br_o.png,images/cb_o.png,,,,,,,,,,,,,,,,,,,,,,,,,
,,,,,,51175,2023-07-20_13h27.20.719,vbt_B1_day1,2022.2.4,Win32,60.50338819,51175,,,,,,,,,,,,,,,,,,,0.037037037,-0.310185185,1,0,0,2.5195,6,11,167,0,1,a,images/br_a.png,images/cb_a.png,,,,,,,,,,,,,,,,,,,,,,,,,
,,,,,,51175,2023-07-20_13h27.20.719,vbt_B1_day1,2022.2.4,Win32,60.50338819,51175,,,,,,,,,,,,,,,,,,,0.037037037,-0.310185185,1,0,0,2.8206,6,12,168,23,1,x,images/br_x.png,images/cb_x.png,,,,,,,,,,,,,,,,,,,,,,,,,
,,,,,,51175,2023-07-20_13h27.20.719,vbt_B1_day1,2022.2.4,Win32,60.50338819,51175,,,,,,,,,,,,,,,,,,,0.037037037,-0.310185185,1,0,0,0.7186,6,13,169,8,1,i,images/br_i.png,images/cb_i.png,,,,,,,,,,,,,,,,,,,,,,,,,
,,,,,,51175,2023-07-20_13h27.20.719,vbt_B1_day1,2022.2.4,Win32,60.50338819,51175,,,,,,,,,,,,,,,,,,,0.037037037,-0.310185185,1,0,0,1.1515,6,14,170,10,1,k,images/br_k.png,images/cb_k.png,,,,,,,,,,,,,,,,,,,,,,,,,
,,,,,,51175,2023-07-20_13h27.20.719,vbt_B1_day1,2022.2.4,Win32,60.50338819,51175,,,,,,,,,,,,,,,,,,,0.037037037,-0.310185185,1,0,0,1.2916,6,15,171,13,1,n,images/br_n.png,images/cb_n.png,,,,,,,,,,,,,,,,,,,,,,,,,
,,,,,,51175,2023-07-20_13h27.20.719,vbt_B1_day1,2022.2.4,Win32,60.50338819,51175,,,,,,,,,,,,,,,,,,,0.037037037,-0.310185185,1,0,0,0.1221,6,16,172,12,1,m,images/br_m.png,images/cb_m.png,,,,,,,,,,,,,,,,,,,,,,,,,
,,,,,,51175,2023-07-20_13h27.20.719,vbt_B1_day1,2022.2.4,Win32,60.50338819,51175,,,,,,,,,,,,,,,,,,,0.037037037,-0.310185185,1,0,0,1.0921,6,17,173,7,1,h,images/br_h.png,images/cb_h.png,,,,,,,,,,,,,,,,,,,,,,,,,
,,,,,,51175,2023-07-20_13h27.20.719,vbt_B1_day1,2022.2.4,Win32,60.50338819,51175,,,,,,,,,,,,,,,,,,,0.037037037,-0.310185185,1,0,0,0.8852,6,18,174,16,1,q,images/br_q.png,images/cb_q.png,,,,,,,,,,,,,,,,,,,,,,,,,
,,,,,,51175,2023-07-20_13h27.20.719,vbt_B1_day1,2022.2.4,Win32,60.50338819,51175,,,,,,,,,,,,,,,,,,,0.037037037,-0.310185185,1,0,0,5.5318,6,19,175,18,1,s,images/br_s.png,images/cb_s.png,,,,,,,,,,,,,,,,,,,,,,,,,
,,,,,,51175,2023-07-20_13h27.20.719,vbt_B1_day1,2022.2.4,Win32,60.50338819,51175,,,,,,,,,,,,,,,,,,,0.037037037,-0.310185185,1,0,0,1.0336,6,20,176,6,1,g,images/br_g.png,images/cb_g.png,,,,,,,,,,,,,,,,,,,,,,,,,
,,,,,,51175,2023-07-20_13h27.20.719,vbt_B1_day1,2022.2.4,Win32,60.50338819,51175,,,,,,,,,,,,,,,,,,,0.037037037,-0.310185185,1,0,0,0.1162,6,21,177,1,1,b,images/br_b.png,images/cb_b.png,,,,,,,,,,,,,,,,,,,,,,,,,
,,,,,,51175,2023-07-20_13h27.20.719,vbt_B1_day1,2022.2.4,Win32,60.50338819,51175,,,,,,,,,,,,,,,,,,,0.037037037,-0.310185185,1,0,0,13.3211,6,22,178,5,1,f,images/br_f.png,images/cb_f.png,,,,,,,,,,,,,,,,,,,,,,,,,
,,,,,,51175,2023-07-20_13h27.20.719,vbt_B1_day1,2022.2.4,Win32,60.50338819,51175,,,,,,,,,,,,,,,,,,,0.037037037,-0.310185185,1,0,0,0.0536,6,23,179,25,1,z,images/br_z.png,images/cb_z.png,,,,,,,,,,,,,,,,,,,,,,,,,
,,,,,,51175,2023-07-20_13h27.20.719,vbt_B1_day1,2022.2.4,Win32,60.50338819,51175,,,,,,,,,,,,,,,,,,,0.037037037,-0.310185185,1,0,0,0.6165,6,24,180,19,1,t,images/br_t.png,images/cb_t.png,,,,,,,,,,,,,,,,,,,,,,,,,
,,,,,,51175,2023-07-20_13h27.20.719,vbt_B1_day1,2022.2.4,Win32,60.50338819,51175,,,,,,,,,,,,,,,,,,,0.037037037,-0.310185185,1,0,0,4.9199,6,25,181,21,1,v,images/br_v.png,images/cb_v.png,,,,,,,,,,,,,,,,,,,,,,,,,
,,,,,,51175,2023-07-20_13h27.20.719,vbt_B1_day1,2022.2.4,Win32,60.50338819,51175,,,,,,,,,,,,,,,,,,,,,,,,,,,,,,,,,0.069444444,-0.237037023,1,0,0,,,,,,,,,,,,,,,,,,,,
,,,,,,51175,2023-07-20_13h27.20.719,vbt_B1_day1,2022.2.4,Win32,60.50338819,51175,,,,,,,,,,,,,,,,,,,,,,,,,,,,,,,,,,,,,,0.160185213,-0.328703704,1,0,0,,,,,,,,,,,,,,,
,,,,,,51175,2023-07-20_13h27.20.719,vbt_B1_day1,2022.2.4,Win32,60.50338819,51175,,,,,,,,,,,,,,,,,,,,,,,,,,,,,,,,,,,,,,,,,,,0.318518603,-0.319444444,1,0,0,VOO,VOO,0,0,0,39,1,voorreur,images/br_voorreur.png,images/cb_voorreur.png
,,,,,,51175,2023-07-20_13h27.20.719,vbt_B1_day1,2022.2.4,Win32,60.50338819,51175,,,,,,,,,,,,,,,,,,,,,,,,,,,,,,,,,,,,,,,,,,,0.318518603,-0.319444444,1,0,0,V,V,0,1,1,54,1,vijftig,images/br_vijftig.png,images/cb_vijftig.png
,,,,,,51175,2023-07-20_13h27.20.719,vbt_B1_day1,2022.2.4,Win32,60.50338819,51175,,,,,,,,,,,,,,,,,,,,,,,,,,,,,,,,,,,,,,,,,,,0.318518603,-0.319444444,1,0,0,Oppl,Oppl,0,2,2,32,1,opplaan,images/br_opplaan.png,images/cb_opplaan.png
,,,,,,51175,2023-07-20_13h27.20.719,vbt_B1_day1,2022.2.4,Win32,60.50338819,51175,,,,,,,,,,,,,,,,,,,,,,,,,,,,,,,,,,,,,,,,,,,0.318518603,-0.319444444,1,0,0,kli,kli,0,3,3,12,1,klimmen,images/br_klimmen.png,images/cb_klimmen.png
,,,,,,51175,2023-07-20_13h27.20.719,vbt_B1_day1,2022.2.4,Win32,60.50338819,51175,,,,,,,,,,,,,,,,,,,,,,,,,,,,,,,,,,,,,,,,,,,0.318518603,-0.319444444,1,0,0,...ip,...ip,0,4,4,4,1,schep,images/br_schep.png,images/cb_schep.png
,,,,,,51175,2023-07-20_13h27.20.719,vbt_B1_day1,2022.2.4,Win32,60.50338819,51175,,,,,,,,,,,,,,,,,,,,,,,,,,,,,,,,,,,,,,,,,,,0.318518603,-0.319444444,1,0,0,bleek,bleek,0,5,5,6,1,bleek,images/br_bleek.png,images/cb_bleek.png
,,,,,,51175,2023-07-20_13h27.20.719,vbt_B1_day1,2022.2.4,Win32,60.50338819,51175,,,,,,,,,,,,,,,,,,,,,,,,,,,,,,,,,,,,,,,,,,,0.318518603,-0.319444444,1,0,0,liefde,liefde,0,6,6,51,1,liefde,images/br_liefde.png,images/cb_liefde.png
,,,,,,51175,2023-07-20_13h27.20.719,vbt_B1_day1,2022.2.4,Win32,60.50338819,51175,,,,,,,,,,,,,,,,,,,,,,,,,,,,,,,,,,,,,,,,,,,0.318518603,-0.319444444,1,0,0,..N.N.,..N.N.,0,7,7,11,1,mening,images/br_mening.png,images/cb_mening.png
,,,,,,51175,2023-07-20_13h27.20.719,vbt_B1_day1,2022.2.4,Win32,60.50338819,51175,,,,,,,,,,,,,,,,,,,,,,,,,,,,,,,,,,,,,,,,,,,0.318518603,-0.319444444,1,0,0,Vir....,Vir....,0,8,8,36,1,vervaden,images/br_vervaden.png,images/cb_vervaden.png
,,,,,,51175,2023-07-20_13h27.20.719,vbt_B1_day1,2022.2.4,Win32,60.50338819,51175,,,,,,,,,,,,,,,,,,,,,,,,,,,,,,,,,,,,,,,,,,,0.318518603,-0.319444444,1,0,0,Voo,Voo,0,9,9,58,1,voorkeur,images/br_voorkeur.png,images/cb_voorkeur.png
,,,,,,51175,2023-07-20_13h27.20.719,vbt_B1_day1,2022.2.4,Win32,60.50338819,51175,,,,,,,,,,,,,,,,,,,,,,,,,,,,,,,,,,,,,,,,,,,0.318518603,-0.319444444,1,0,0,Lez,Lez,0,10,10,46,1,lezen,images/br_lezen.png,images/cb_lezen.png
,,,,,,51175,2023-07-20_13h27.20.719,vbt_B1_day1,2022.2.4,Win32,60.50338819,51175,,,,,,,,,,,,,,,,,,,,,,,,,,,,,,,,,,,,,,,,,,,0.318518603,-0.319444444,1,0,0,M.,M.,0,11,11,10,1,muziek,images/br_muziek.png,images/cb_muziek.png
,,,,,,51175,2023-07-20_13h27.20.719,vbt_B1_day1,2022.2.4,Win32,60.50338819,51175,,,,,,,,,,,,,,,,,,,,,,,,,,,,,,,,,,,,,,,,,,,0.318518603,-0.319444444,1,0,0,loc,loc,0,12,12,34,1,lochten,images/br_lochten.png,images/cb_lochten.png
,,,,,,51175,2023-07-20_13h27.20.719,vbt_B1_day1,2022.2.4,Win32,60.50338819,51175,,,,,,,,,,,,,,,,,,,,,,,,,,,,,,,,,,,,,,,,,,,0.318518603,-0.319444444,1,0,0,..mb,..mb,0,13,13,9,1,dubbel,images/br_dubbel.png,images/cb_dubbel.png
,,,,,,51175,2023-07-20_13h27.20.719,vbt_B1_day1,2022.2.4,Win32,60.50338819,51175,,,,,,,,,,,,,,,,,,,,,,,,,,,,,,,,,,,,,,,,,,,0.318518603,-0.319444444,1,0,0,..a,..a,0,14,14,37,1,spanzing,images/br_spanzing.png,images/cb_spanzing.png
,,,,,,51175,2023-07-20_13h27.20.719,vbt_B1_day1,2022.2.4,Win32,60.50338819,51175,,,,,,,,,,,,,,,,,,,,,,,,,,,,,,,,,,,,,,,,,,,0.318518603,-0.319444444,1,0,0,sr,sr,0,15,15,27,1,prort,images/br_prort.png,images/cb_prort.png
,,,,,,51175,2023-07-20_13h27.20.719,vbt_B1_day1,2022.2.4,Win32,60.50338819,51175,,,,,,,,,,,,,,,,,,,,,,,,,,,,,,,,,,,,,,,,,,,0.318518603,-0.319444444,1,0,0,.lak,.lak,0,16,16,0,1,slak,images/br_slak.png,images/cb_slak.png
,,,,,,51175,2023-07-20_13h27.20.719,vbt_B1_day1,2022.2.4,Win32,60.50338819,51175,,,,,,,,,,,,,,,,,,,,,,,,,,,,,,,,,,,,,,,,,,,0.318518603,-0.319444444,1,0,0,l.e,l.e,0,17,17,50,1,liegen,images/br_liegen.png,images/cb_liegen.png
,,,,,,51175,2023-07-20_13h27.20.719,vbt_B1_day1,2022.2.4,Win32,60.50338819,51175,,,,,,,,,,,,,,,,,,,,,,,,,,,,,,,,,,,,,,,,,,,0.318518603,-0.319444444,1,0,0,hoog,hoog,0,18,18,41,1,hoog,images/br_hoog.png,images/cb_hoog.png
,,,,,,51175,2023-07-20_13h27.20.719,vbt_B1_day1,2022.2.4,Win32,60.50338819,51175,,,,,,,,,,,,,,,,,,,,,,,,,,,,,,,,,,,,,,,,,,,0.318518603,-0.319444444,1,0,0,lava,lava,0,19,19,43,1,lava,images/br_lava.png,images/cb_lava.png
,,,,,,51175,2023-07-20_13h27.20.719,vbt_B1_day1,2022.2.4,Win32,60.50338819,51175,,,,,,,,,,,,,,,,,,,,,,,,,,,,,,,,,,,,,,,,,,,0.318518603,-0.319444444,1,0,0,de,de,0,20,20,48,1,fictie,images/br_fictie.png,images/cb_fictie.png
,,,,,,51175,2023-07-20_13h27.20.719,vbt_B1_day1,2022.2.4,Win32,60.50338819,51175,,,,,,,,,,,,,,,,,,,,,,,,,,,,,,,,,,,,,,,,,,,0.295370384,-0.300925926,1,0,0,tar.,tar.,0,21,21,20,1,tars,images/br_tars.png,images/cb_tars.png
,,,,,,51175,2023-07-20_13h27.20.719,vbt_B1_day1,2022.2.4,Win32,60.50338819,51175,,,,,,,,,,,,,,,,,,,,,,,,,,,,,,,,,,,,,,,,,,,0.295370384,-0.300925926,1,0,0,knoe,knoe,0,22,22,22,1,knoe,images/br_knoe.png,images/cb_knoe.png
,,,,,,51175,2023-07-20_13h27.20.719,vbt_B1_day1,2022.2.4,Win32,60.50338819,51175,,,,,,,,,,,,,,,,,,,,,,,,,,,,,,,,,,,,,,,,,,,0.295370384,-0.300925926,1,0,0,.lm...,.lm...,0,23,23,33,1,flullen,images/br_flullen.png,images/cb_flullen.png
,,,,,,51175,2023-07-20_13h27.20.719,vbt_B1_day1,2022.2.4,Win32,60.50338819,51175,,,,,,,,,,,,,,,,,,,,,,,,,,,,,,,,,,,,,,,,,,,0.295370384,-0.300925926,1,0,0,m.....,m.....,0,24,24,57,1,meenemen,images/br_meenemen.png,images/cb_meenemen.png
,,,,,,51175,2023-07-20_13h27.20.719,vbt_B1_day1,2022.2.4,Win32,60.50338819,51175,,,,,,,,,,,,,,,,,,,,,,,,,,,,,,,,,,,,,,,,,,,0.295370384,-0.300925926,1,0,0,sc,sc,0,25,25,19,1,schuilen,images/br_schuilen.png,images/cb_schuilen.png
,,,,,,51175,2023-07-20_13h27.20.719,vbt_B1_day1,2022.2.4,Win32,60.50338819,51175,,,,,,,,,,,,,,,,,,,,,,,,,,,,,,,,,,,,,,,,,,,0.295370384,-0.300925926,1,0,0,.I....,.I....,0,26,26,44,1,wijze,images/br_wijze.png,images/cb_wijze.png
,,,,,,51175,2023-07-20_13h27.20.719,vbt_B1_day1,2022.2.4,Win32,60.50338819,51175,,,,,,,,,,,,,,,,,,,,,,,,,,,,,,,,,,,,,,,,,,,0.295370384,-0.300925926,1,0,0,kla,kla,0,27,27,7,1,klauw,images/br_klauw.png,images/cb_klauw.png
,,,,,,51175,2023-07-20_13h27.20.719,vbt_B1_day1,2022.2.4,Win32,60.50338819,51175,,,,,,,,,,,,,,,,,,,,,,,,,,,,,,,,,,,,,,,,,,,0.295370384,-0.300925926,1,0,0,geno,geno,0,28,28,29,1,genond,images/br_genond.png,images/cb_genond.png
,,,,,,51175,2023-07-20_13h27.20.719,vbt_B1_day1,2022.2.4,Win32,60.50338819,51175,,,,,,,,,,,,,,,,,,,,,,,,,,,,,,,,,,,,,,,,,,,0.295370384,-0.300925926,1,0,0,.tvk,.tvk,0,29,29,42,1,stuk,images/br_stuk.png,images/cb_stuk.png
,,,,,,51175,2023-07-20_13h27.20.719,vbt_B1_day1,2022.2.4,Win32,60.50338819,51175,,,,,,,,,,,,,,,,,,,,,,,,,,,,,,,,,,,,,,,,,,,0.295370384,-0.300925926,1,0,0,rez,rez,0,30,30,24,1,rezer,images/br_rezer.png,images/cb_rezer.png
,,,,,,51175,2023-07-20_13h27.20.719,vbt_B1_day1,2022.2.4,Win32,60.50338819,51175,,,,,,,,,,,,,,,,,,,,,,,,,,,,,,,,,,,,,,,,,,,0.295370384,-0.300925926,1,0,0,op,op,0,31,31,53,1,opslaan,images/br_opslaan.png,images/cb_opslaan.png
,,,,,,51175,2023-07-20_13h27.20.719,vbt_B1_day1,2022.2.4,Win32,60.50338819,51175,,,,,,,,,,,,,,,,,,,,,,,,,,,,,,,,,,,,,,,,,,,0.295370384,-0.300925926,1,0,0,.tam,.tam,0,32,32,31,1,stamen,images/br_stamen.png,images/cb_stamen.png
,,,,,,51175,2023-07-20_13h27.20.719,vbt_B1_day1,2022.2.4,Win32,60.50338819,51175,,,,,,,,,,,,,,,,,,,,,,,,,,,,,,,,,,,,,,,,,,,0.295370384,-0.300925926,1,0,0,reed,reed,0,33,33,30,1,reedje,images/br_reedje.png,images/cb_reedje.png
,,,,,,51175,2023-07-20_13h27.20.719,vbt_B1_day1,2022.2.4,Win32,60.50338819,51175,,,,,,,,,,,,,,,,,,,,,,,,,,,,,,,,,,,,,,,,,,,-0.029629601,-0.198148162,1,0,0,eme,eme,0,34,34,45,1,hemel,images/br_hemel.png,images/cb_hemel.png
,,,,,,51175,2023-07-20_13h27.20.719,vbt_B1_day1,2022.2.4,Win32,60.50338819,51175,,,,,,,,,,,,,,,,,,,,,,,,,,,,,,,,,,,,,,,,,,,0.239814829,-0.320370356,1,0,0,zv,zv,0,35,35,52,1,zuiplap,images/br_zuiplap.png,images/cb_zuiplap.png
,,,,,,51175,2023-07-20_13h27.20.719,vbt_B1_day1,2022.2.4,Win32,60.50338819,51175,,,,,,,,,,,,,,,,,,,,,,,,,,,,,,,,,,,,,,,,,,,0.239814829,-0.320370356,1,0,0,valo.,valo.,0,36,36,26,1,valop,images/br_valop.png,images/cb_valop.png
,,,,,,51175,2023-07-20_13h27.20.719,vbt_B1_day1,2022.2.4,Win32,60.50338819,51175,,,,,,,,,,,,,,,,,,,,,,,,,,,,,,,,,,,,,,,,,,,0.239814829,-0.320370356,1,0,0,aar,aar,0,37,37,2,1,jaar,images/br_jaar.png,images/cb_jaar.png
,,,,,,51175,2023-07-20_13h27.20.719,vbt_B1_day1,2022.2.4,Win32,60.50338819,51175,,,,,,,,,,,,,,,,,,,,,,,,,,,,,,,,,,,,,,,,,,,0.239814829,-0.320370356,1,0,0,t,t,0,38,38,35,1,stuikem,images/br_stuikem.png,images/cb_stuikem.png
,,,,,,51175,2023-07-20_13h27.20.719,vbt_B1_day1,2022.2.4,Win32,60.50338819,51175,,,,,,,,,,,,,,,,,,,,,,,,,,,,,,,,,,,,,,,,,,,0.239814829,-0.320370356,1,0,0,atten,atten,0,39,39,17,1,attentie,images/br_attentie.png,images/cb_attentie.png
,,,,,,51175,2023-07-20_13h27.20.719,vbt_B1_day1,2022.2.4,Win32,60.50338819,51175,,,,,,,,,,,,,,,,,,,,,,,,,,,,,,,,,,,,,,,,,,,0.239814829,-0.320370356,1,0,0,re,re,0,40,40,21,1,dred,images/br_dred.png,images/cb_dred.png
,,,,,,51175,2023-07-20_13h27.20.719,vbt_B1_day1,2022.2.4,Win32,60.50338819,51175,,,,,,,,,,,,,,,,,,,,,,,,,,,,,,,,,,,,,,,,,,,0.239814829,-0.320370356,1,0,0,toez,toez,0,41,41,56,1,toezicht,images/br_toezicht.png,images/cb_toezicht.png
,,,,,,51175,2023-07-20_13h27.20.719,vbt_B1_day1,2022.2.4,Win32,60.50338819,51175,,,,,,,,,,,,,,,,,,,,,,,,,,,,,,,,,,,,,,,,,,,0.239814829,-0.320370356,1,0,0,vi.i,vi.i,0,42,42,49,1,vizier,images/br_vizier.png,images/cb_vizier.png
,,,,,,51175,2023-07-20_13h27.20.719,vbt_B1_day1,2022.2.4,Win32,60.50338819,51175,,,,,,,,,,,,,,,,,,,,,,,,,,,,,,,,,,,,,,,,,,,0.239814829,-0.320370356,1,0,0,loo,loo,0,43,43,47,1,loods,images/br_loods.png,images/cb_loods.png
,,,,,,51175,2023-07-20_13h27.20.719,vbt_B1_day1,2022.2.4,Win32,60.50338819,51175,,,,,,,,,,,,,,,,,,,,,,,,,,,,,,,,,,,,,,,,,,,0.239814829,-0.320370356,1,0,0,mane,mane,0,44,44,3,1,mand,images/br_mand.png,images/cb_mand.png
,,,,,,51175,2023-07-20_13h27.20.719,vbt_B1_day1,2022.2.4,Win32,60.50338819,51175,,,,,,,,,,,,,,,,,,,,,,,,,,,,,,,,,,,,,,,,,,,0.239814829,-0.320370356,1,0,0,beb,beb,0,45,45,28,1,bebrip,images/br_bebrip.png,images/cb_bebrip.png
,,,,,,51175,2023-07-20_13h27.20.719,vbt_B1_day1,2022.2.4,Win32,60.50338819,51175,,,,,,,,,,,,,,,,,,,,,,,,,,,,,,,,,,,,,,,,,,,0.239814829,-0.320370356,1,0,0,booi,booi,0,46,46,23,1,booi,images/br_booi.png,images/cb_booi.png
,,,,,,51175,2023-07-20_13h27.20.719,vbt_B1_day1,2022.2.4,Win32,60.50338819,51175,,,,,,,,,,,,,,,,,,,,,,,,,,,,,,,,,,,,,,,,,,,0.239814829,-0.320370356,1,0,0,opv,opv,0,47,47,59,1,opvatten,images/br_opvatten.png,images/cb_opvatten.png
,,,,,,51175,2023-07-20_13h27.20.719,vbt_B1_day1,2022.2.4,Win32,60.50338819,51175,,,,,,,,,,,,,,,,,,,,,,,,,,,,,,,,,,,,,,,,,,,0.239814829,-0.320370356,1,0,0,.et,.et,0,48,48,18,1,uitdelen,images/br_uitdelen.png,images/cb_uitdelen.png
,,,,,,51175,2023-07-20_13h27.20.719,vbt_B1_day1,2022.2.4,Win32,60.50338819,51175,,,,,,,,,,,,,,,,,,,,,,,,,,,,,,,,,,,,,,,,,,,0.239814829,-0.320370356,1,0,0,zaal,zaal,0,49,49,1,1,zaal,images/br_zaal.png,images/cb_zaal.png
,,,,,,51175,2023-07-20_13h27.20.719,vbt_B1_day1,2022.2.4,Win32,60.50338819,51175,,,,,,,,,,,,,,,,,,,,,,,,,,,,,,,,,,,,,,,,,,,0.239814829,-0.320370356,1,0,0,twe,twe,0,50,50,13,1,twijfel,images/br_twijfel.png,images/cb_twijfel.png
,,,,,,51175,2023-07-20_13h27.20.719,vbt_B1_day1,2022.2.4,Win32,60.50338819,51175,,,,,,,,,,,,,,,,,,,,,,,,,,,,,,,,,,,,,,,,,,,0.239814829,-0.320370356,1,0,0,waar,waar,0,51,51,14,1,waarvan,images/br_waarvan.png,images/cb_waarvan.png
,,,,,,51175,2023-07-20_13h27.20.719,vbt_B1_day1,2022.2.4,Win32,60.50338819,51175,,,,,,,,,,,,,,,,,,,,,,,,,,,,,,,,,,,,,,,,,,,0.239814829,-0.320370356,1,0,0,brej,brej,0,52,52,25,1,brijk,images/br_brijk.png,images/cb_brijk.png
,,,,,,51175,2023-07-20_13h27.20.719,vbt_B1_day1,2022.2.4,Win32,60.50338819,51175,,,,,,,,,,,,,,,,,,,,,,,,,,,,,,,,,,,,,,,,,,,0.239814829,-0.320370356,1,0,0,die,die,0,53,53,15,1,hiervan,images/br_hiervan.png,images/cb_hiervan.png
,,,,,,51175,2023-07-20_13h27.20.719,vbt_B1_day1,2022.2.4,Win32,60.50338819,51175,,,,,,,,,,,,,,,,,,,,,,,,,,,,,,,,,,,,,,,,,,,0.239814829,-0.320370356,1,0,0,teqe,teqe,0,54,54,55,1,tekenen,images/br_tekenen.png,images/cb_tekenen.png
,,,,,,51175,2023-07-20_13h27.20.719,vbt_B1_day1,2022.2.4,Win32,60.50338819,51175,,,,,,,,,,,,,,,,,,,,,,,,,,,,,,,,,,,,,,,,,,,0.239814829,-0.320370356,1,0,0,daa,daa,0,55,55,16,1,daarheen,images/br_daarheen.png,images/cb_daarheen.png
,,,,,,51175,2023-07-20_13h27.20.719,vbt_B1_day1,2022.2.4,Win32,60.50338819,51175,,,,,,,,,,,,,,,,,,,,,,,,,,,,,,,,,,,,,,,,,,,0.239814829,-0.320370356,1,0,0,ka,ka,0,56,56,8,1,kanjer,images/br_kanjer.png,images/cb_kanjer.png
,,,,,,51175,2023-07-20_13h27.20.719,vbt_B1_day1,2022.2.4,Win32,60.50338819,51175,,,,,,,,,,,,,,,,,,,,,,,,,,,,,,,,,,,,,,,,,,,0.239814829,-0.320370356,1,0,0,ie,ie,0,57,57,40,1,dief,images/br_dief.png,images/cb_dief.png
,,,,,,51175,2023-07-20_13h27.20.719,vbt_B1_day1,2022.2.4,Win32,60.50338819,51175,,,,,,,,,,,,,,,,,,,,,,,,,,,,,,,,,,,,,,,,,,,0.239814829,-0.320370356,1,0,0,raket,raket,0,58,58,5,1,maken,images/br_maken.png,images/cb_maken.png
,,,,,,51175,2023-07-20_13h27.20.719,vbt_B1_day1,2022.2.4,Win32,60.50338819,51175,,,,,,,,,,,,,,,,,,,,,,,,,,,,,,,,,,,,,,,,,,,0.239814829,-0.320370356,1,0,0,.c,.c,0,59,59,38,1,schielen,images/br_schielen.png,images/cb_schielen.png
,,,,,,51175,2023-07-20_13h27.20.719,vbt_B1_day1,2022.2.4,Win32,60.50338819,51175,,,,,,,,,,,,,,,,,,,,,,,,,,,,,,,,,,,,,,,,,,,,,,,,,,,,,,,,,
