welcome_mouse.x,welcome_mouse.y,welcome_mouse.leftButton,welcome_mouse.midButton,welcome_mouse.rightButton,welcome_mouse.time,"ID",date,expName,psychopyVersion,OS,frameRate,mouse_2.x,mouse_2.y,mouse_2.leftButton,mouse_2.midButton,mouse_2.rightButton,mouse_2.time,mouse_3.x,mouse_3.y,mouse_3.leftButton,mouse_3.midButton,mouse_3.rightButton,mouse_3.time,train_mouse.x,train_mouse.y,train_mouse.leftButton,train_mouse.midButton,train_mouse.rightButton,train_mouse.time,braille_mouse.x,braille_mouse.y,braille_mouse.leftButton,braille_mouse.midButton,braille_mouse.rightButton,braille_mouse.time,trials.thisRepN,trials.thisTrialN,trials.thisN,trials.thisIndex,trials.ran,nlLet,brLet,cbLet,mouse.x,mouse.y,mouse.leftButton,mouse.midButton,mouse.rightButton,testInstr_mouse.x,testInstr_mouse.y,testInstr_mouse.leftButton,testInstr_mouse.midButton,testInstr_mouse.rightButton,test_mouse.x,test_mouse.y,test_mouse.leftButton,test_mouse.midButton,test_mouse.rightButton,test_response.text,testResp,test_loop.thisRepN,test_loop.thisTrialN,test_loop.thisN,test_loop.thisIndex,test_loop.ran,nlWrd,brWrd,cbWrd
0.671296296,-0.334259245,1,0,0,15.1129,00045,2023-10-07_21h31.03.660,vbt_B1_day1,2022.2.4,Win32,60.01680471,,,,,,,,,,,,,,,,,,,,,,,,,,,,,,,,,,,,,,,,,,,,,,,,,,,,,,,,,
,,,,,,00045,2023-10-07_21h31.03.660,vbt_B1_day1,2022.2.4,Win32,60.01680471,0.671296296,-0.334259245,1,0,0,6.8363,,,,,,,,,,,,,,,,,,,,,,,,,,,,,,,,,,,,,,,,,,,,,,,,,,,
,,,,,,00045,2023-10-07_21h31.03.660,vbt_B1_day1,2022.2.4,Win32,60.01680471,,,,,,,0.671296296,-0.334259245,1,0,0,24.8582,,,,,,,,,,,,,,,,,,,,,,,,,,,,,,,,,,,,,,,,,,,,,
,,,,,,00045,2023-10-07_21h31.03.660,vbt_B1_day1,2022.2.4,Win32,60.01680471,,,,,,,,,,,,,0.671296296,-0.334259245,1,0,0,19.533,,,,,,,,,,,,,,,,,,,,,,,,,,,,,,,,,,,,,,,
,,,,,,00045,2023-10-07_21h31.03.660,vbt_B1_day1,2022.2.4,Win32,60.01680471,,,,,,,,,,,,,,,,,,,0.671296296,-0.334259245,1,0,0,3.029,0,0,0,18,1,s,images/br_s.png,images/cb_s.png,,,,,,,,,,,,,,,,,,,,,,,,,
,,,,,,00045,2023-10-07_21h31.03.660,vbt_B1_day1,2022.2.4,Win32,60.01680471,,,,,,,,,,,,,,,,,,,0.671296296,-0.334259245,1,0,0,3.2112,0,1,1,2,1,c,images/br_c.png,images/cb_c.png,,,,,,,,,,,,,,,,,,,,,,,,,
,,,,,,00045,2023-10-07_21h31.03.660,vbt_B1_day1,2022.2.4,Win32,60.01680471,,,,,,,,,,,,,,,,,,,0.671296296,-0.334259245,1,0,0,5.7483,0,2,2,21,1,v,images/br_v.png,images/cb_v.png,,,,,,,,,,,,,,,,,,,,,,,,,
,,,,,,00045,2023-10-07_21h31.03.660,vbt_B1_day1,2022.2.4,Win32,60.01680471,,,,,,,,,,,,,,,,,,,0.671296296,-0.334259245,1,0,0,5.541,0,3,3,17,1,r,images/br_r.png,images/cb_r.png,,,,,,,,,,,,,,,,,,,,,,,,,
,,,,,,00045,2023-10-07_21h31.03.660,vbt_B1_day1,2022.2.4,Win32,60.01680471,,,,,,,,,,,,,,,,,,,0.671296296,-0.334259245,1,0,0,5.3411,0,4,4,13,1,n,images/br_n.png,images/cb_n.png,,,,,,,,,,,,,,,,,,,,,,,,,
,,,,,,00045,2023-10-07_21h31.03.660,vbt_B1_day1,2022.2.4,Win32,60.01680471,,,,,,,,,,,,,,,,,,,0.671296296,-0.334259245,1,0,0,15.5748,0,5,5,8,1,i,images/br_i.png,images/cb_i.png,,,,,,,,,,,,,,,,,,,,,,,,,
,,,,,,00045,2023-10-07_21h31.03.660,vbt_B1_day1,2022.2.4,Win32,60.01680471,,,,,,,,,,,,,,,,,,,0.671296296,-0.334259245,1,0,0,5.7668,0,6,6,15,1,p,images/br_p.png,images/cb_p.png,,,,,,,,,,,,,,,,,,,,,,,,,
,,,,,,00045,2023-10-07_21h31.03.660,vbt_B1_day1,2022.2.4,Win32,60.01680471,,,,,,,,,,,,,,,,,,,0.671296296,-0.334259245,1,0,0,2.995,0,7,7,23,1,x,images/br_x.png,images/cb_x.png,,,,,,,,,,,,,,,,,,,,,,,,,
,,,,,,00045,2023-10-07_21h31.03.660,vbt_B1_day1,2022.2.4,Win32,60.01680471,,,,,,,,,,,,,,,,,,,0.671296296,-0.334259245,1,0,0,2.5461,0,8,8,14,1,o,images/br_o.png,images/cb_o.png,,,,,,,,,,,,,,,,,,,,,,,,,
,,,,,,00045,2023-10-07_21h31.03.660,vbt_B1_day1,2022.2.4,Win32,60.01680471,,,,,,,,,,,,,,,,,,,0.671296296,-0.334259245,1,0,0,3.3446,0,9,9,3,1,d,images/br_d.png,images/cb_d.png,,,,,,,,,,,,,,,,,,,,,,,,,
,,,,,,00045,2023-10-07_21h31.03.660,vbt_B1_day1,2022.2.4,Win32,60.01680471,,,,,,,,,,,,,,,,,,,0.671296296,-0.334259245,1,0,0,2.8453,0,10,10,7,1,h,images/br_h.png,images/cb_h.png,,,,,,,,,,,,,,,,,,,,,,,,,
,,,,,,00045,2023-10-07_21h31.03.660,vbt_B1_day1,2022.2.4,Win32,60.01680471,,,,,,,,,,,,,,,,,,,0.671296296,-0.334259245,1,0,0,2.9119,0,11,11,1,1,b,images/br_b.png,images/cb_b.png,,,,,,,,,,,,,,,,,,,,,,,,,
,,,,,,00045,2023-10-07_21h31.03.660,vbt_B1_day1,2022.2.4,Win32,60.01680471,,,,,,,,,,,,,,,,,,,0.671296296,-0.334259245,1,0,0,0.0163,0,12,12,22,1,w,images/br_w.png,images/cb_w.png,,,,,,,,,,,,,,,,,,,,,,,,,
,,,,,,00045,2023-10-07_21h31.03.660,vbt_B1_day1,2022.2.4,Win32,60.01680471,,,,,,,,,,,,,,,,,,,0.671296296,-0.334259245,1,0,0,0.2163,0,13,13,16,1,q,images/br_q.png,images/cb_q.png,,,,,,,,,,,,,,,,,,,,,,,,,
,,,,,,00045,2023-10-07_21h31.03.660,vbt_B1_day1,2022.2.4,Win32,60.01680471,,,,,,,,,,,,,,,,,,,0.671296296,-0.334259245,1,0,0,2.4125,0,14,14,20,1,u,images/br_u.png,images/cb_u.png,,,,,,,,,,,,,,,,,,,,,,,,,
,,,,,,00045,2023-10-07_21h31.03.660,vbt_B1_day1,2022.2.4,Win32,60.01680471,,,,,,,,,,,,,,,,,,,0.671296296,-0.334259245,1,0,0,3.5443,0,15,15,11,1,l,images/br_l.png,images/cb_l.png,,,,,,,,,,,,,,,,,,,,,,,,,
,,,,,,00045,2023-10-07_21h31.03.660,vbt_B1_day1,2022.2.4,Win32,60.01680471,,,,,,,,,,,,,,,,,,,0.671296296,-0.334259245,1,0,0,4.4594,0,16,16,5,1,f,images/br_f.png,images/cb_f.png,,,,,,,,,,,,,,,,,,,,,,,,,
,,,,,,00045,2023-10-07_21h31.03.660,vbt_B1_day1,2022.2.4,Win32,60.01680471,,,,,,,,,,,,,,,,,,,0.671296296,-0.334259245,1,0,0,1.5643,0,17,17,0,1,a,images/br_a.png,images/cb_a.png,,,,,,,,,,,,,,,,,,,,,,,,,
,,,,,,00045,2023-10-07_21h31.03.660,vbt_B1_day1,2022.2.4,Win32,60.01680471,,,,,,,,,,,,,,,,,,,0.671296296,-0.334259245,1,0,0,4.2596,0,18,18,4,1,e,images/br_e.png,images/cb_e.png,,,,,,,,,,,,,,,,,,,,,,,,,
,,,,,,00045,2023-10-07_21h31.03.660,vbt_B1_day1,2022.2.4,Win32,60.01680471,,,,,,,,,,,,,,,,,,,0.671296296,-0.334259245,1,0,0,0.7821,0,19,19,10,1,k,images/br_k.png,images/cb_k.png,,,,,,,,,,,,,,,,,,,,,,,,,
,,,,,,00045,2023-10-07_21h31.03.660,vbt_B1_day1,2022.2.4,Win32,60.01680471,,,,,,,,,,,,,,,,,,,0.671296296,-0.334259245,1,0,0,0.183,0,20,20,6,1,g,images/br_g.png,images/cb_g.png,,,,,,,,,,,,,,,,,,,,,,,,,
,,,,,,00045,2023-10-07_21h31.03.660,vbt_B1_day1,2022.2.4,Win32,60.01680471,,,,,,,,,,,,,,,,,,,0.671296296,-0.334259245,1,0,0,0.2995,0,21,21,19,1,t,images/br_t.png,images/cb_t.png,,,,,,,,,,,,,,,,,,,,,,,,,
,,,,,,00045,2023-10-07_21h31.03.660,vbt_B1_day1,2022.2.4,Win32,60.01680471,,,,,,,,,,,,,,,,,,,0.671296296,-0.334259245,1,0,0,1.0151,0,22,22,12,1,m,images/br_m.png,images/cb_m.png,,,,,,,,,,,,,,,,,,,,,,,,,
,,,,,,00045,2023-10-07_21h31.03.660,vbt_B1_day1,2022.2.4,Win32,60.01680471,,,,,,,,,,,,,,,,,,,0.671296296,-0.334259245,1,0,0,1.3014,0,23,23,25,1,z,images/br_z.png,images/cb_z.png,,,,,,,,,,,,,,,,,,,,,,,,,
,,,,,,00045,2023-10-07_21h31.03.660,vbt_B1_day1,2022.2.4,Win32,60.01680471,,,,,,,,,,,,,,,,,,,0.671296296,-0.334259245,1,0,0,1.8304,0,24,24,24,1,y,images/br_y.png,images/cb_y.png,,,,,,,,,,,,,,,,,,,,,,,,,
,,,,,,00045,2023-10-07_21h31.03.660,vbt_B1_day1,2022.2.4,Win32,60.01680471,,,,,,,,,,,,,,,,,,,0.671296296,-0.334259245,1,0,0,6.7887,0,25,25,9,1,j,images/br_j.png,images/cb_j.png,,,,,,,,,,,,,,,,,,,,,,,,,
,,,,,,00045,2023-10-07_21h31.03.660,vbt_B1_day1,2022.2.4,Win32,60.01680471,,,,,,,,,,,,,,,,,,,0.671296296,-0.334259245,1,0,0,0.8696,1,0,26,14,1,o,images/br_o.png,images/cb_o.png,,,,,,,,,,,,,,,,,,,,,,,,,
,,,,,,00045,2023-10-07_21h31.03.660,vbt_B1_day1,2022.2.4,Win32,60.01680471,,,,,,,,,,,,,,,,,,,0.671296296,-0.334259245,1,0,0,2.4958,1,1,27,1,1,b,images/br_b.png,images/cb_b.png,,,,,,,,,,,,,,,,,,,,,,,,,
,,,,,,00045,2023-10-07_21h31.03.660,vbt_B1_day1,2022.2.4,Win32,60.01680471,,,,,,,,,,,,,,,,,,,0.671296296,-0.334259245,1,0,0,1.7972,1,2,28,13,1,n,images/br_n.png,images/cb_n.png,,,,,,,,,,,,,,,,,,,,,,,,,
,,,,,,00045,2023-10-07_21h31.03.660,vbt_B1_day1,2022.2.4,Win32,60.01680471,,,,,,,,,,,,,,,,,,,0.671296296,-0.334259245,1,0,0,1.065,1,3,29,6,1,g,images/br_g.png,images/cb_g.png,,,,,,,,,,,,,,,,,,,,,,,,,
,,,,,,00045,2023-10-07_21h31.03.660,vbt_B1_day1,2022.2.4,Win32,60.01680471,,,,,,,,,,,,,,,,,,,0.671296296,-0.334259245,1,0,0,0.7449,1,4,30,8,1,i,images/br_i.png,images/cb_i.png,,,,,,,,,,,,,,,,,,,,,,,,,
,,,,,,00045,2023-10-07_21h31.03.660,vbt_B1_day1,2022.2.4,Win32,60.01680471,,,,,,,,,,,,,,,,,,,0.671296296,-0.334259245,1,0,0,4.1601,1,5,31,16,1,q,images/br_q.png,images/cb_q.png,,,,,,,,,,,,,,,,,,,,,,,,,
,,,,,,00045,2023-10-07_21h31.03.660,vbt_B1_day1,2022.2.4,Win32,60.01680471,,,,,,,,,,,,,,,,,,,0.671296296,-0.334259245,1,0,0,1.4475,1,6,32,12,1,m,images/br_m.png,images/cb_m.png,,,,,,,,,,,,,,,,,,,,,,,,,
,,,,,,00045,2023-10-07_21h31.03.660,vbt_B1_day1,2022.2.4,Win32,60.01680471,,,,,,,,,,,,,,,,,,,0.671296296,-0.334259245,1,0,0,0.4494,1,7,33,24,1,y,images/br_y.png,images/cb_y.png,,,,,,,,,,,,,,,,,,,,,,,,,
,,,,,,00045,2023-10-07_21h31.03.660,vbt_B1_day1,2022.2.4,Win32,60.01680471,,,,,,,,,,,,,,,,,,,0.671296296,-0.334259245,1,0,0,3.6606,1,8,34,9,1,j,images/br_j.png,images/cb_j.png,,,,,,,,,,,,,,,,,,,,,,,,,
,,,,,,00045,2023-10-07_21h31.03.660,vbt_B1_day1,2022.2.4,Win32,60.01680471,,,,,,,,,,,,,,,,,,,0.671296296,-0.334259245,1,0,0,0.0664,1,9,35,10,1,k,images/br_k.png,images/cb_k.png,,,,,,,,,,,,,,,,,,,,,,,,,
,,,,,,00045,2023-10-07_21h31.03.660,vbt_B1_day1,2022.2.4,Win32,60.01680471,,,,,,,,,,,,,,,,,,,0.671296296,-0.334259245,1,0,0,0.1497,1,10,36,15,1,p,images/br_p.png,images/cb_p.png,,,,,,,,,,,,,,,,,,,,,,,,,
,,,,,,00045,2023-10-07_21h31.03.660,vbt_B1_day1,2022.2.4,Win32,60.01680471,,,,,,,,,,,,,,,,,,,0.671296296,-0.334259245,1,0,0,2.2127,1,11,37,7,1,h,images/br_h.png,images/cb_h.png,,,,,,,,,,,,,,,,,,,,,,,,,
,,,,,,00045,2023-10-07_21h31.03.660,vbt_B1_day1,2022.2.4,Win32,60.01680471,,,,,,,,,,,,,,,,,,,0.671296296,-0.334259245,1,0,0,0.0331,1,12,38,3,1,d,images/br_d.png,images/cb_d.png,,,,,,,,,,,,,,,,,,,,,,,,,
,,,,,,00045,2023-10-07_21h31.03.660,vbt_B1_day1,2022.2.4,Win32,60.01680471,,,,,,,,,,,,,,,,,,,0.671296296,-0.334259245,1,0,0,1.5637,1,13,39,23,1,x,images/br_x.png,images/cb_x.png,,,,,,,,,,,,,,,,,,,,,,,,,
,,,,,,00045,2023-10-07_21h31.03.660,vbt_B1_day1,2022.2.4,Win32,60.01680471,,,,,,,,,,,,,,,,,,,0.671296296,-0.334259245,1,0,0,0.3328,1,14,40,0,1,a,images/br_a.png,images/cb_a.png,,,,,,,,,,,,,,,,,,,,,,,,,
,,,,,,00045,2023-10-07_21h31.03.660,vbt_B1_day1,2022.2.4,Win32,60.01680471,,,,,,,,,,,,,,,,,,,0.671296296,-0.334259245,1,0,0,0.5158,1,15,41,11,1,l,images/br_l.png,images/cb_l.png,,,,,,,,,,,,,,,,,,,,,,,,,
,,,,,,00045,2023-10-07_21h31.03.660,vbt_B1_day1,2022.2.4,Win32,60.01680471,,,,,,,,,,,,,,,,,,,0.671296296,-0.334259245,1,0,0,0.4824,1,16,42,25,1,z,images/br_z.png,images/cb_z.png,,,,,,,,,,,,,,,,,,,,,,,,,
,,,,,,00045,2023-10-07_21h31.03.660,vbt_B1_day1,2022.2.4,Win32,60.01680471,,,,,,,,,,,,,,,,,,,0.671296296,-0.334259245,1,0,0,0.9653,1,17,43,2,1,c,images/br_c.png,images/cb_c.png,,,,,,,,,,,,,,,,,,,,,,,,,
,,,,,,00045,2023-10-07_21h31.03.660,vbt_B1_day1,2022.2.4,Win32,60.01680471,,,,,,,,,,,,,,,,,,,0.671296296,-0.334259245,1,0,0,0.7157,1,18,44,4,1,e,images/br_e.png,images/cb_e.png,,,,,,,,,,,,,,,,,,,,,,,,,
,,,,,,00045,2023-10-07_21h31.03.660,vbt_B1_day1,2022.2.4,Win32,60.01680471,,,,,,,,,,,,,,,,,,,0.671296296,-0.334259245,1,0,0,0.8818,1,19,45,5,1,f,images/br_f.png,images/cb_f.png,,,,,,,,,,,,,,,,,,,,,,,,,
,,,,,,00045,2023-10-07_21h31.03.660,vbt_B1_day1,2022.2.4,Win32,60.01680471,,,,,,,,,,,,,,,,,,,0.671296296,-0.334259245,1,0,0,0.5824,1,20,46,18,1,s,images/br_s.png,images/cb_s.png,,,,,,,,,,,,,,,,,,,,,,,,,
,,,,,,00045,2023-10-07_21h31.03.660,vbt_B1_day1,2022.2.4,Win32,60.01680471,,,,,,,,,,,,,,,,,,,0.671296296,-0.334259245,1,0,0,0.3163,1,21,47,22,1,w,images/br_w.png,images/cb_w.png,,,,,,,,,,,,,,,,,,,,,,,,,
,,,,,,00045,2023-10-07_21h31.03.660,vbt_B1_day1,2022.2.4,Win32,60.01680471,,,,,,,,,,,,,,,,,,,0.671296296,-0.334259245,1,0,0,0.3163,1,22,48,20,1,u,images/br_u.png,images/cb_u.png,,,,,,,,,,,,,,,,,,,,,,,,,
,,,,,,00045,2023-10-07_21h31.03.660,vbt_B1_day1,2022.2.4,Win32,60.01680471,,,,,,,,,,,,,,,,,,,0.671296296,-0.334259245,1,0,0,0.8819,1,23,49,17,1,r,images/br_r.png,images/cb_r.png,,,,,,,,,,,,,,,,,,,,,,,,,
,,,,,,00045,2023-10-07_21h31.03.660,vbt_B1_day1,2022.2.4,Win32,60.01680471,,,,,,,,,,,,,,,,,,,0.671296296,-0.334259245,1,0,0,0.2331,1,24,50,19,1,t,images/br_t.png,images/cb_t.png,,,,,,,,,,,,,,,,,,,,,,,,,
,,,,,,00045,2023-10-07_21h31.03.660,vbt_B1_day1,2022.2.4,Win32,60.01680471,,,,,,,,,,,,,,,,,,,0.671296296,-0.334259245,1,0,0,1.3644,1,25,51,21,1,v,images/br_v.png,images/cb_v.png,,,,,,,,,,,,,,,,,,,,,,,,,
,,,,,,00045,2023-10-07_21h31.03.660,vbt_B1_day1,2022.2.4,Win32,60.01680471,,,,,,,,,,,,,,,,,,,0.671296296,-0.334259245,1,0,0,0.4992,2,0,52,4,1,e,images/br_e.png,images/cb_e.png,,,,,,,,,,,,,,,,,,,,,,,,,
,,,,,,00045,2023-10-07_21h31.03.660,vbt_B1_day1,2022.2.4,Win32,60.01680471,,,,,,,,,,,,,,,,,,,0.671296296,-0.334259245,1,0,0,0.6824,2,1,53,19,1,t,images/br_t.png,images/cb_t.png,,,,,,,,,,,,,,,,,,,,,,,,,
,,,,,,00045,2023-10-07_21h31.03.660,vbt_B1_day1,2022.2.4,Win32,60.01680471,,,,,,,,,,,,,,,,,,,0.671296296,-0.334259245,1,0,0,1.2146,2,2,54,1,1,b,images/br_b.png,images/cb_b.png,,,,,,,,,,,,,,,,,,,,,,,,,
,,,,,,00045,2023-10-07_21h31.03.660,vbt_B1_day1,2022.2.4,Win32,60.01680471,,,,,,,,,,,,,,,,,,,0.671296296,-0.334259245,1,0,0,0.5326,2,3,55,6,1,g,images/br_g.png,images/cb_g.png,,,,,,,,,,,,,,,,,,,,,,,,,
,,,,,,00045,2023-10-07_21h31.03.660,vbt_B1_day1,2022.2.4,Win32,60.01680471,,,,,,,,,,,,,,,,,,,0.671296296,-0.334259245,1,0,0,0.2995,2,4,56,22,1,w,images/br_w.png,images/cb_w.png,,,,,,,,,,,,,,,,,,,,,,,,,
,,,,,,00045,2023-10-07_21h31.03.660,vbt_B1_day1,2022.2.4,Win32,60.01680471,,,,,,,,,,,,,,,,,,,0.671296296,-0.334259245,1,0,0,0.1002,2,5,57,25,1,z,images/br_z.png,images/cb_z.png,,,,,,,,,,,,,,,,,,,,,,,,,
,,,,,,00045,2023-10-07_21h31.03.660,vbt_B1_day1,2022.2.4,Win32,60.01680471,,,,,,,,,,,,,,,,,,,0.671296296,-0.334259245,1,0,0,0.6485,2,6,58,12,1,m,images/br_m.png,images/cb_m.png,,,,,,,,,,,,,,,,,,,,,,,,,
,,,,,,00045,2023-10-07_21h31.03.660,vbt_B1_day1,2022.2.4,Win32,60.01680471,,,,,,,,,,,,,,,,,,,0.671296296,-0.334259245,1,0,0,0.7155,2,7,59,15,1,p,images/br_p.png,images/cb_p.png,,,,,,,,,,,,,,,,,,,,,,,,,
,,,,,,00045,2023-10-07_21h31.03.660,vbt_B1_day1,2022.2.4,Win32,60.01680471,,,,,,,,,,,,,,,,,,,0.671296296,-0.334259245,1,0,0,0.2496,2,8,60,7,1,h,images/br_h.png,images/cb_h.png,,,,,,,,,,,,,,,,,,,,,,,,,
,,,,,,00045,2023-10-07_21h31.03.660,vbt_B1_day1,2022.2.4,Win32,60.01680471,,,,,,,,,,,,,,,,,,,0.671296296,-0.334259245,1,0,0,0.8246,2,9,61,13,1,n,images/br_n.png,images/cb_n.png,,,,,,,,,,,,,,,,,,,,,,,,,
,,,,,,00045,2023-10-07_21h31.03.660,vbt_B1_day1,2022.2.4,Win32,60.01680471,,,,,,,,,,,,,,,,,,,0.49537037,-0.244444459,1,0,0,1.5053,2,10,62,11,1,l,images/br_l.png,images/cb_l.png,,,,,,,,,,,,,,,,,,,,,,,,,
,,,,,,00045,2023-10-07_21h31.03.660,vbt_B1_day1,2022.2.4,Win32,60.01680471,,,,,,,,,,,,,,,,,,,0.49537037,-0.244444459,1,0,0,0.8656,2,11,63,14,1,o,images/br_o.png,images/cb_o.png,,,,,,,,,,,,,,,,,,,,,,,,,
,,,,,,00045,2023-10-07_21h31.03.660,vbt_B1_day1,2022.2.4,Win32,60.01680471,,,,,,,,,,,,,,,,,,,0.49537037,-0.244444459,1,0,0,0.8322,2,12,64,2,1,c,images/br_c.png,images/cb_c.png,,,,,,,,,,,,,,,,,,,,,,,,,
,,,,,,00045,2023-10-07_21h31.03.660,vbt_B1_day1,2022.2.4,Win32,60.01680471,,,,,,,,,,,,,,,,,,,0.49537037,-0.244444459,1,0,0,0.4326,2,13,65,16,1,q,images/br_q.png,images/cb_q.png,,,,,,,,,,,,,,,,,,,,,,,,,
,,,,,,00045,2023-10-07_21h31.03.660,vbt_B1_day1,2022.2.4,Win32,60.01680471,,,,,,,,,,,,,,,,,,,0.49537037,-0.244444459,1,0,0,1.7973,2,14,66,5,1,f,images/br_f.png,images/cb_f.png,,,,,,,,,,,,,,,,,,,,,,,,,
,,,,,,00045,2023-10-07_21h31.03.660,vbt_B1_day1,2022.2.4,Win32,60.01680471,,,,,,,,,,,,,,,,,,,0.49537037,-0.244444459,1,0,0,0.7321,2,15,67,3,1,d,images/br_d.png,images/cb_d.png,,,,,,,,,,,,,,,,,,,,,,,,,
,,,,,,00045,2023-10-07_21h31.03.660,vbt_B1_day1,2022.2.4,Win32,60.01680471,,,,,,,,,,,,,,,,,,,0.49537037,-0.244444459,1,0,0,0.8154,2,16,68,17,1,r,images/br_r.png,images/cb_r.png,,,,,,,,,,,,,,,,,,,,,,,,,
,,,,,,00045,2023-10-07_21h31.03.660,vbt_B1_day1,2022.2.4,Win32,60.01680471,,,,,,,,,,,,,,,,,,,0.49537037,-0.244444459,1,0,0,0.0598,2,17,69,10,1,k,images/br_k.png,images/cb_k.png,,,,,,,,,,,,,,,,,,,,,,,,,
,,,,,,00045,2023-10-07_21h31.03.660,vbt_B1_day1,2022.2.4,Win32,60.01680471,,,,,,,,,,,,,,,,,,,0.49537037,-0.244444459,1,0,0,0.1263,2,18,70,8,1,i,images/br_i.png,images/cb_i.png,,,,,,,,,,,,,,,,,,,,,,,,,
,,,,,,00045,2023-10-07_21h31.03.660,vbt_B1_day1,2022.2.4,Win32,60.01680471,,,,,,,,,,,,,,,,,,,0.49537037,-0.244444459,1,0,0,0.699,2,19,71,24,1,y,images/br_y.png,images/cb_y.png,,,,,,,,,,,,,,,,,,,,,,,,,
,,,,,,00045,2023-10-07_21h31.03.660,vbt_B1_day1,2022.2.4,Win32,60.01680471,,,,,,,,,,,,,,,,,,,0.49537037,-0.244444459,1,0,0,0.5823,2,20,72,0,1,a,images/br_a.png,images/cb_a.png,,,,,,,,,,,,,,,,,,,,,,,,,
,,,,,,00045,2023-10-07_21h31.03.660,vbt_B1_day1,2022.2.4,Win32,60.01680471,,,,,,,,,,,,,,,,,,,0.49537037,-0.244444459,1,0,0,2.4624,2,21,73,21,1,v,images/br_v.png,images/cb_v.png,,,,,,,,,,,,,,,,,,,,,,,,,
,,,,,,00045,2023-10-07_21h31.03.660,vbt_B1_day1,2022.2.4,Win32,60.01680471,,,,,,,,,,,,,,,,,,,0.49537037,-0.244444459,1,0,0,0.7487,2,22,74,23,1,x,images/br_x.png,images/cb_x.png,,,,,,,,,,,,,,,,,,,,,,,,,
,,,,,,00045,2023-10-07_21h31.03.660,vbt_B1_day1,2022.2.4,Win32,60.01680471,,,,,,,,,,,,,,,,,,,0.49537037,-0.244444459,1,0,0,0.5901,2,23,75,9,1,j,images/br_j.png,images/cb_j.png,,,,,,,,,,,,,,,,,,,,,,,,,
,,,,,,00045,2023-10-07_21h31.03.660,vbt_B1_day1,2022.2.4,Win32,60.01680471,,,,,,,,,,,,,,,,,,,0.49537037,-0.244444459,1,0,0,1.0151,2,24,76,20,1,u,images/br_u.png,images/cb_u.png,,,,,,,,,,,,,,,,,,,,,,,,,
,,,,,,00045,2023-10-07_21h31.03.660,vbt_B1_day1,2022.2.4,Win32,60.01680471,,,,,,,,,,,,,,,,,,,0.49537037,-0.244444459,1,0,0,0.1999,2,25,77,18,1,s,images/br_s.png,images/cb_s.png,,,,,,,,,,,,,,,,,,,,,,,,,
,,,,,,00045,2023-10-07_21h31.03.660,vbt_B1_day1,2022.2.4,Win32,60.01680471,,,,,,,,,,,,,,,,,,,0.49537037,-0.244444459,1,0,0,0.3495,3,0,78,11,1,l,images/br_l.png,images/cb_l.png,,,,,,,,,,,,,,,,,,,,,,,,,
,,,,,,00045,2023-10-07_21h31.03.660,vbt_B1_day1,2022.2.4,Win32,60.01680471,,,,,,,,,,,,,,,,,,,0.49537037,-0.244444459,1,0,0,0.599,3,1,79,25,1,z,images/br_z.png,images/cb_z.png,,,,,,,,,,,,,,,,,,,,,,,,,
,,,,,,00045,2023-10-07_21h31.03.660,vbt_B1_day1,2022.2.4,Win32,60.01680471,,,,,,,,,,,,,,,,,,,0.49537037,-0.244444459,1,0,0,0.2827,3,2,80,4,1,e,images/br_e.png,images/cb_e.png,,,,,,,,,,,,,,,,,,,,,,,,,
,,,,,,00045,2023-10-07_21h31.03.660,vbt_B1_day1,2022.2.4,Win32,60.01680471,,,,,,,,,,,,,,,,,,,0.49537037,-0.244444459,1,0,0,0.4658,3,3,81,8,1,i,images/br_i.png,images/cb_i.png,,,,,,,,,,,,,,,,,,,,,,,,,
,,,,,,00045,2023-10-07_21h31.03.660,vbt_B1_day1,2022.2.4,Win32,60.01680471,,,,,,,,,,,,,,,,,,,0.49537037,-0.244444459,1,0,0,0.8984,3,4,82,16,1,q,images/br_q.png,images/cb_q.png,,,,,,,,,,,,,,,,,,,,,,,,,
,,,,,,00045,2023-10-07_21h31.03.660,vbt_B1_day1,2022.2.4,Win32,60.01680471,,,,,,,,,,,,,,,,,,,0.49537037,-0.244444459,1,0,0,0.7657,3,5,83,18,1,s,images/br_s.png,images/cb_s.png,,,,,,,,,,,,,,,,,,,,,,,,,
,,,,,,00045,2023-10-07_21h31.03.660,vbt_B1_day1,2022.2.4,Win32,60.01680471,,,,,,,,,,,,,,,,,,,0.49537037,-0.244444459,1,0,0,1.7973,3,6,84,5,1,f,images/br_f.png,images/cb_f.png,,,,,,,,,,,,,,,,,,,,,,,,,
,,,,,,00045,2023-10-07_21h31.03.660,vbt_B1_day1,2022.2.4,Win32,60.01680471,,,,,,,,,,,,,,,,,,,0.49537037,-0.244444459,1,0,0,0.0832,3,7,85,7,1,h,images/br_h.png,images/cb_h.png,,,,,,,,,,,,,,,,,,,,,,,,,
,,,,,,00045,2023-10-07_21h31.03.660,vbt_B1_day1,2022.2.4,Win32,60.01680471,,,,,,,,,,,,,,,,,,,0.49537037,-0.244444459,1,0,0,0.4493,3,8,86,6,1,g,images/br_g.png,images/cb_g.png,,,,,,,,,,,,,,,,,,,,,,,,,
,,,,,,00045,2023-10-07_21h31.03.660,vbt_B1_day1,2022.2.4,Win32,60.01680471,,,,,,,,,,,,,,,,,,,0.49537037,-0.244444459,1,0,0,1.1479,3,9,87,10,1,k,images/br_k.png,images/cb_k.png,,,,,,,,,,,,,,,,,,,,,,,,,
,,,,,,00045,2023-10-07_21h31.03.660,vbt_B1_day1,2022.2.4,Win32,60.01680471,,,,,,,,,,,,,,,,,,,0.49537037,-0.244444459,1,0,0,0.0165,3,10,88,15,1,p,images/br_p.png,images/cb_p.png,,,,,,,,,,,,,,,,,,,,,,,,,
,,,,,,00045,2023-10-07_21h31.03.660,vbt_B1_day1,2022.2.4,Win32,60.01680471,,,,,,,,,,,,,,,,,,,0.49537037,-0.244444459,1,0,0,1.2976,3,11,89,12,1,m,images/br_m.png,images/cb_m.png,,,,,,,,,,,,,,,,,,,,,,,,,
,,,,,,00045,2023-10-07_21h31.03.660,vbt_B1_day1,2022.2.4,Win32,60.01680471,,,,,,,,,,,,,,,,,,,0.49537037,-0.244444459,1,0,0,0.5498,3,12,90,1,1,b,images/br_b.png,images/cb_b.png,,,,,,,,,,,,,,,,,,,,,,,,,
,,,,,,00045,2023-10-07_21h31.03.660,vbt_B1_day1,2022.2.4,Win32,60.01680471,,,,,,,,,,,,,,,,,,,0.49537037,-0.244444459,1,0,0,0.1329,3,13,91,24,1,y,images/br_y.png,images/cb_y.png,,,,,,,,,,,,,,,,,,,,,,,,,
,,,,,,00045,2023-10-07_21h31.03.660,vbt_B1_day1,2022.2.4,Win32,60.01680471,,,,,,,,,,,,,,,,,,,0.49537037,-0.244444459,1,0,0,1.0648,3,14,92,21,1,v,images/br_v.png,images/cb_v.png,,,,,,,,,,,,,,,,,,,,,,,,,
,,,,,,00045,2023-10-07_21h31.03.660,vbt_B1_day1,2022.2.4,Win32,60.01680471,,,,,,,,,,,,,,,,,,,0.49537037,-0.244444459,1,0,0,1.2814,3,15,93,9,1,j,images/br_j.png,images/cb_j.png,,,,,,,,,,,,,,,,,,,,,,,,,
,,,,,,00045,2023-10-07_21h31.03.660,vbt_B1_day1,2022.2.4,Win32,60.01680471,,,,,,,,,,,,,,,,,,,0.49537037,-0.244444459,1,0,0,0.6323,3,16,94,20,1,u,images/br_u.png,images/cb_u.png,,,,,,,,,,,,,,,,,,,,,,,,,
,,,,,,00045,2023-10-07_21h31.03.660,vbt_B1_day1,2022.2.4,Win32,60.01680471,,,,,,,,,,,,,,,,,,,0.49537037,-0.244444459,1,0,0,0.3491,3,17,95,2,1,c,images/br_c.png,images/cb_c.png,,,,,,,,,,,,,,,,,,,,,,,,,
,,,,,,00045,2023-10-07_21h31.03.660,vbt_B1_day1,2022.2.4,Win32,60.01680471,,,,,,,,,,,,,,,,,,,0.49537037,-0.244444459,1,0,0,0.4491,3,18,96,3,1,d,images/br_d.png,images/cb_d.png,,,,,,,,,,,,,,,,,,,,,,,,,
,,,,,,00045,2023-10-07_21h31.03.660,vbt_B1_day1,2022.2.4,Win32,60.01680471,,,,,,,,,,,,,,,,,,,0.49537037,-0.244444459,1,0,0,0.3829,3,19,97,0,1,a,images/br_a.png,images/cb_a.png,,,,,,,,,,,,,,,,,,,,,,,,,
,,,,,,00045,2023-10-07_21h31.03.660,vbt_B1_day1,2022.2.4,Win32,60.01680471,,,,,,,,,,,,,,,,,,,0.49537037,-0.244444459,1,0,0,3.0454,3,20,98,22,1,w,images/br_w.png,images/cb_w.png,,,,,,,,,,,,,,,,,,,,,,,,,
,,,,,,00045,2023-10-07_21h31.03.660,vbt_B1_day1,2022.2.4,Win32,60.01680471,,,,,,,,,,,,,,,,,,,0.49537037,-0.244444459,1,0,0,0.4326,3,21,99,23,1,x,images/br_x.png,images/cb_x.png,,,,,,,,,,,,,,,,,,,,,,,,,
,,,,,,00045,2023-10-07_21h31.03.660,vbt_B1_day1,2022.2.4,Win32,60.01680471,,,,,,,,,,,,,,,,,,,0.49537037,-0.244444459,1,0,0,0.0494,3,22,100,14,1,o,images/br_o.png,images/cb_o.png,,,,,,,,,,,,,,,,,,,,,,,,,
,,,,,,00045,2023-10-07_21h31.03.660,vbt_B1_day1,2022.2.4,Win32,60.01680471,,,,,,,,,,,,,,,,,,,0.49537037,-0.244444459,1,0,0,2.596,3,23,101,17,1,r,images/br_r.png,images/cb_r.png,,,,,,,,,,,,,,,,,,,,,,,,,
,,,,,,00045,2023-10-07_21h31.03.660,vbt_B1_day1,2022.2.4,Win32,60.01680471,,,,,,,,,,,,,,,,,,,0.49537037,-0.244444459,1,0,0,1.165,3,24,102,13,1,n,images/br_n.png,images/cb_n.png,,,,,,,,,,,,,,,,,,,,,,,,,
,,,,,,00045,2023-10-07_21h31.03.660,vbt_B1_day1,2022.2.4,Win32,60.01680471,,,,,,,,,,,,,,,,,,,0.49537037,-0.244444459,1,0,0,0.6415,3,25,103,19,1,t,images/br_t.png,images/cb_t.png,,,,,,,,,,,,,,,,,,,,,,,,,
,,,,,,00045,2023-10-07_21h31.03.660,vbt_B1_day1,2022.2.4,Win32,60.01680471,,,,,,,,,,,,,,,,,,,0.49537037,-0.244444459,1,0,0,0.9987,4,0,104,1,1,b,images/br_b.png,images/cb_b.png,,,,,,,,,,,,,,,,,,,,,,,,,
,,,,,,00045,2023-10-07_21h31.03.660,vbt_B1_day1,2022.2.4,Win32,60.01680471,,,,,,,,,,,,,,,,,,,0.49537037,-0.244444459,1,0,0,2.1298,4,1,105,24,1,y,images/br_y.png,images/cb_y.png,,,,,,,,,,,,,,,,,,,,,,,,,
,,,,,,00045,2023-10-07_21h31.03.660,vbt_B1_day1,2022.2.4,Win32,60.01680471,,,,,,,,,,,,,,,,,,,0.49537037,-0.244444459,1,0,0,0.4661,4,2,106,16,1,q,images/br_q.png,images/cb_q.png,,,,,,,,,,,,,,,,,,,,,,,,,
,,,,,,00045,2023-10-07_21h31.03.660,vbt_B1_day1,2022.2.4,Win32,60.01680471,,,,,,,,,,,,,,,,,,,0.49537037,-0.244444459,1,0,0,1.3977,4,3,107,3,1,d,images/br_d.png,images/cb_d.png,,,,,,,,,,,,,,,,,,,,,,,,,
,,,,,,00045,2023-10-07_21h31.03.660,vbt_B1_day1,2022.2.4,Win32,60.01680471,,,,,,,,,,,,,,,,,,,0.49537037,-0.244444459,1,0,0,0.2495,4,4,108,22,1,w,images/br_w.png,images/cb_w.png,,,,,,,,,,,,,,,,,,,,,,,,,
,,,,,,00045,2023-10-07_21h31.03.660,vbt_B1_day1,2022.2.4,Win32,60.01680471,,,,,,,,,,,,,,,,,,,0.49537037,-0.244444459,1,0,0,1.0749,4,5,109,20,1,u,images/br_u.png,images/cb_u.png,,,,,,,,,,,,,,,,,,,,,,,,,
,,,,,,00045,2023-10-07_21h31.03.660,vbt_B1_day1,2022.2.4,Win32,60.01680471,,,,,,,,,,,,,,,,,,,0.49537037,-0.244444459,1,0,0,0.582,4,6,110,17,1,r,images/br_r.png,images/cb_r.png,,,,,,,,,,,,,,,,,,,,,,,,,
,,,,,,00045,2023-10-07_21h31.03.660,vbt_B1_day1,2022.2.4,Win32,60.01680471,,,,,,,,,,,,,,,,,,,0.49537037,-0.244444459,1,0,0,0.4491,4,7,111,5,1,f,images/br_f.png,images/cb_f.png,,,,,,,,,,,,,,,,,,,,,,,,,
,,,,,,00045,2023-10-07_21h31.03.660,vbt_B1_day1,2022.2.4,Win32,60.01680471,,,,,,,,,,,,,,,,,,,0.49537037,-0.244444459,1,0,0,0.5159,4,8,112,12,1,m,images/br_m.png,images/cb_m.png,,,,,,,,,,,,,,,,,,,,,,,,,
,,,,,,00045,2023-10-07_21h31.03.660,vbt_B1_day1,2022.2.4,Win32,60.01680471,,,,,,,,,,,,,,,,,,,0.49537037,-0.244444459,1,0,0,0.2994,4,9,113,21,1,v,images/br_v.png,images/cb_v.png,,,,,,,,,,,,,,,,,,,,,,,,,
,,,,,,00045,2023-10-07_21h31.03.660,vbt_B1_day1,2022.2.4,Win32,60.01680471,,,,,,,,,,,,,,,,,,,0.49537037,-0.244444459,1,0,0,2.6788,4,10,114,9,1,j,images/br_j.png,images/cb_j.png,,,,,,,,,,,,,,,,,,,,,,,,,
,,,,,,00045,2023-10-07_21h31.03.660,vbt_B1_day1,2022.2.4,Win32,60.01680471,,,,,,,,,,,,,,,,,,,0.49537037,-0.244444459,1,0,0,0.5824,4,11,115,0,1,a,images/br_a.png,images/cb_a.png,,,,,,,,,,,,,,,,,,,,,,,,,
,,,,,,00045,2023-10-07_21h31.03.660,vbt_B1_day1,2022.2.4,Win32,60.01680471,,,,,,,,,,,,,,,,,,,0.49537037,-0.244444459,1,0,0,0.4658,4,12,116,2,1,c,images/br_c.png,images/cb_c.png,,,,,,,,,,,,,,,,,,,,,,,,,
,,,,,,00045,2023-10-07_21h31.03.660,vbt_B1_day1,2022.2.4,Win32,60.01680471,,,,,,,,,,,,,,,,,,,0.49537037,-0.244444459,1,0,0,0.1167,4,13,117,8,1,i,images/br_i.png,images/cb_i.png,,,,,,,,,,,,,,,,,,,,,,,,,
,,,,,,00045,2023-10-07_21h31.03.660,vbt_B1_day1,2022.2.4,Win32,60.01680471,,,,,,,,,,,,,,,,,,,0.49537037,-0.244444459,1,0,0,1.4312,4,14,118,18,1,s,images/br_s.png,images/cb_s.png,,,,,,,,,,,,,,,,,,,,,,,,,
,,,,,,00045,2023-10-07_21h31.03.660,vbt_B1_day1,2022.2.4,Win32,60.01680471,,,,,,,,,,,,,,,,,,,0.49537037,-0.244444459,1,0,0,0.416,4,15,119,6,1,g,images/br_g.png,images/cb_g.png,,,,,,,,,,,,,,,,,,,,,,,,,
,,,,,,00045,2023-10-07_21h31.03.660,vbt_B1_day1,2022.2.4,Win32,60.01680471,,,,,,,,,,,,,,,,,,,0.49537037,-0.244444459,1,0,0,0.7487,4,16,120,10,1,k,images/br_k.png,images/cb_k.png,,,,,,,,,,,,,,,,,,,,,,,,,
,,,,,,00045,2023-10-07_21h31.03.660,vbt_B1_day1,2022.2.4,Win32,60.01680471,,,,,,,,,,,,,,,,,,,0.49537037,-0.244444459,1,0,0,0.0833,4,17,121,25,1,z,images/br_z.png,images/cb_z.png,,,,,,,,,,,,,,,,,,,,,,,,,
,,,,,,00045,2023-10-07_21h31.03.660,vbt_B1_day1,2022.2.4,Win32,60.01680471,,,,,,,,,,,,,,,,,,,0.49537037,-0.244444459,1,0,0,0.2994,4,18,122,4,1,e,images/br_e.png,images/cb_e.png,,,,,,,,,,,,,,,,,,,,,,,,,
,,,,,,00045,2023-10-07_21h31.03.660,vbt_B1_day1,2022.2.4,Win32,60.01680471,,,,,,,,,,,,,,,,,,,0.49537037,-0.244444459,1,0,0,0.2829,4,19,123,13,1,n,images/br_n.png,images/cb_n.png,,,,,,,,,,,,,,,,,,,,,,,,,
,,,,,,00045,2023-10-07_21h31.03.660,vbt_B1_day1,2022.2.4,Win32,60.01680471,,,,,,,,,,,,,,,,,,,0.49537037,-0.244444459,1,0,0,0.8486,4,20,124,15,1,p,images/br_p.png,images/cb_p.png,,,,,,,,,,,,,,,,,,,,,,,,,
,,,,,,00045,2023-10-07_21h31.03.660,vbt_B1_day1,2022.2.4,Win32,60.01680471,,,,,,,,,,,,,,,,,,,0.49537037,-0.244444459,1,0,0,0.2995,4,21,125,14,1,o,images/br_o.png,images/cb_o.png,,,,,,,,,,,,,,,,,,,,,,,,,
,,,,,,00045,2023-10-07_21h31.03.660,vbt_B1_day1,2022.2.4,Win32,60.01680471,,,,,,,,,,,,,,,,,,,0.49537037,-0.244444459,1,0,0,8.1533,4,22,126,7,1,h,images/br_h.png,images/cb_h.png,,,,,,,,,,,,,,,,,,,,,,,,,
,,,,,,00045,2023-10-07_21h31.03.660,vbt_B1_day1,2022.2.4,Win32,60.01680471,,,,,,,,,,,,,,,,,,,0.49537037,-0.244444459,1,0,0,0.3071,4,23,127,23,1,x,images/br_x.png,images/cb_x.png,,,,,,,,,,,,,,,,,,,,,,,,,
,,,,,,00045,2023-10-07_21h31.03.660,vbt_B1_day1,2022.2.4,Win32,60.01680471,,,,,,,,,,,,,,,,,,,0.49537037,-0.244444459,1,0,0,1.664,4,24,128,19,1,t,images/br_t.png,images/cb_t.png,,,,,,,,,,,,,,,,,,,,,,,,,
,,,,,,00045,2023-10-07_21h31.03.660,vbt_B1_day1,2022.2.4,Win32,60.01680471,,,,,,,,,,,,,,,,,,,0.49537037,-0.244444459,1,0,0,0.2999,4,25,129,11,1,l,images/br_l.png,images/cb_l.png,,,,,,,,,,,,,,,,,,,,,,,,,
,,,,,,00045,2023-10-07_21h31.03.660,vbt_B1_day1,2022.2.4,Win32,60.01680471,,,,,,,,,,,,,,,,,,,0.49537037,-0.244444459,1,0,0,0.8085,5,0,130,11,1,l,images/br_l.png,images/cb_l.png,,,,,,,,,,,,,,,,,,,,,,,,,
,,,,,,00045,2023-10-07_21h31.03.660,vbt_B1_day1,2022.2.4,Win32,60.01680471,,,,,,,,,,,,,,,,,,,0.49537037,-0.244444459,1,0,0,0.2257,5,1,131,14,1,o,images/br_o.png,images/cb_o.png,,,,,,,,,,,,,,,,,,,,,,,,,
,,,,,,00045,2023-10-07_21h31.03.660,vbt_B1_day1,2022.2.4,Win32,60.01680471,,,,,,,,,,,,,,,,,,,0.49537037,-0.244444459,1,0,0,0.0999,5,2,132,1,1,b,images/br_b.png,images/cb_b.png,,,,,,,,,,,,,,,,,,,,,,,,,
,,,,,,00045,2023-10-07_21h31.03.660,vbt_B1_day1,2022.2.4,Win32,60.01680471,,,,,,,,,,,,,,,,,,,0.49537037,-0.244444459,1,0,0,1.0649,5,3,133,17,1,r,images/br_r.png,images/cb_r.png,,,,,,,,,,,,,,,,,,,,,,,,,
,,,,,,00045,2023-10-07_21h31.03.660,vbt_B1_day1,2022.2.4,Win32,60.01680471,,,,,,,,,,,,,,,,,,,0.49537037,-0.244444459,1,0,0,0.1665,5,4,134,20,1,u,images/br_u.png,images/cb_u.png,,,,,,,,,,,,,,,,,,,,,,,,,
,,,,,,00045,2023-10-07_21h31.03.660,vbt_B1_day1,2022.2.4,Win32,60.01680471,,,,,,,,,,,,,,,,,,,0.49537037,-0.244444459,1,0,0,0.5995,5,5,135,18,1,s,images/br_s.png,images/cb_s.png,,,,,,,,,,,,,,,,,,,,,,,,,
,,,,,,00045,2023-10-07_21h31.03.660,vbt_B1_day1,2022.2.4,Win32,60.01680471,,,,,,,,,,,,,,,,,,,0.49537037,-0.244444459,1,0,0,0.6489,5,6,136,13,1,n,images/br_n.png,images/cb_n.png,,,,,,,,,,,,,,,,,,,,,,,,,
,,,,,,00045,2023-10-07_21h31.03.660,vbt_B1_day1,2022.2.4,Win32,60.01680471,,,,,,,,,,,,,,,,,,,0.49537037,-0.244444459,1,0,0,0.0996,5,7,137,16,1,q,images/br_q.png,images/cb_q.png,,,,,,,,,,,,,,,,,,,,,,,,,
,,,,,,00045,2023-10-07_21h31.03.660,vbt_B1_day1,2022.2.4,Win32,60.01680471,,,,,,,,,,,,,,,,,,,0.49537037,-0.244444459,1,0,0,0.3161,5,8,138,21,1,v,images/br_v.png,images/cb_v.png,,,,,,,,,,,,,,,,,,,,,,,,,
,,,,,,00045,2023-10-07_21h31.03.660,vbt_B1_day1,2022.2.4,Win32,60.01680471,,,,,,,,,,,,,,,,,,,0.49537037,-0.244444459,1,0,0,0.2329,5,9,139,2,1,c,images/br_c.png,images/cb_c.png,,,,,,,,,,,,,,,,,,,,,,,,,
,,,,,,00045,2023-10-07_21h31.03.660,vbt_B1_day1,2022.2.4,Win32,60.01680471,,,,,,,,,,,,,,,,,,,0.49537037,-0.244444459,1,0,0,0.0996,5,10,140,4,1,e,images/br_e.png,images/cb_e.png,,,,,,,,,,,,,,,,,,,,,,,,,
,,,,,,00045,2023-10-07_21h31.03.660,vbt_B1_day1,2022.2.4,Win32,60.01680471,,,,,,,,,,,,,,,,,,,0.49537037,-0.244444459,1,0,0,0.2829,5,11,141,0,1,a,images/br_a.png,images/cb_a.png,,,,,,,,,,,,,,,,,,,,,,,,,
,,,,,,00045,2023-10-07_21h31.03.660,vbt_B1_day1,2022.2.4,Win32,60.01680471,,,,,,,,,,,,,,,,,,,0.49537037,-0.244444459,1,0,0,0.7656,5,12,142,5,1,f,images/br_f.png,images/cb_f.png,,,,,,,,,,,,,,,,,,,,,,,,,
,,,,,,00045,2023-10-07_21h31.03.660,vbt_B1_day1,2022.2.4,Win32,60.01680471,,,,,,,,,,,,,,,,,,,0.49537037,-0.244444459,1,0,0,0.1164,5,13,143,23,1,x,images/br_x.png,images/cb_x.png,,,,,,,,,,,,,,,,,,,,,,,,,
,,,,,,00045,2023-10-07_21h31.03.660,vbt_B1_day1,2022.2.4,Win32,60.01680471,,,,,,,,,,,,,,,,,,,0.49537037,-0.244444459,1,0,0,0.2996,5,14,144,10,1,k,images/br_k.png,images/cb_k.png,,,,,,,,,,,,,,,,,,,,,,,,,
,,,,,,00045,2023-10-07_21h31.03.660,vbt_B1_day1,2022.2.4,Win32,60.01680471,,,,,,,,,,,,,,,,,,,0.49537037,-0.244444459,1,0,0,2.8621,5,15,145,25,1,z,images/br_z.png,images/cb_z.png,,,,,,,,,,,,,,,,,,,,,,,,,
,,,,,,00045,2023-10-07_21h31.03.660,vbt_B1_day1,2022.2.4,Win32,60.01680471,,,,,,,,,,,,,,,,,,,0.49537037,-0.244444459,1,0,0,0.5825,5,16,146,6,1,g,images/br_g.png,images/cb_g.png,,,,,,,,,,,,,,,,,,,,,,,,,
,,,,,,00045,2023-10-07_21h31.03.660,vbt_B1_day1,2022.2.4,Win32,60.01680471,,,,,,,,,,,,,,,,,,,0.49537037,-0.244444459,1,0,0,0.6325,5,17,147,12,1,m,images/br_m.png,images/cb_m.png,,,,,,,,,,,,,,,,,,,,,,,,,
,,,,,,00045,2023-10-07_21h31.03.660,vbt_B1_day1,2022.2.4,Win32,60.01680471,,,,,,,,,,,,,,,,,,,0.49537037,-0.244444459,1,0,0,1.0651,5,18,148,24,1,y,images/br_y.png,images/cb_y.png,,,,,,,,,,,,,,,,,,,,,,,,,
,,,,,,00045,2023-10-07_21h31.03.660,vbt_B1_day1,2022.2.4,Win32,60.01680471,,,,,,,,,,,,,,,,,,,0.49537037,-0.244444459,1,0,0,0.0663,5,19,149,22,1,w,images/br_w.png,images/cb_w.png,,,,,,,,,,,,,,,,,,,,,,,,,
,,,,,,00045,2023-10-07_21h31.03.660,vbt_B1_day1,2022.2.4,Win32,60.01680471,,,,,,,,,,,,,,,,,,,0.49537037,-0.244444459,1,0,0,0.2077,5,20,150,8,1,i,images/br_i.png,images/cb_i.png,,,,,,,,,,,,,,,,,,,,,,,,,
,,,,,,00045,2023-10-07_21h31.03.660,vbt_B1_day1,2022.2.4,Win32,60.01680471,,,,,,,,,,,,,,,,,,,0.49537037,-0.244444459,1,0,0,4.9919,5,21,151,7,1,h,images/br_h.png,images/cb_h.png,,,,,,,,,,,,,,,,,,,,,,,,,
,,,,,,00045,2023-10-07_21h31.03.660,vbt_B1_day1,2022.2.4,Win32,60.01680471,,,,,,,,,,,,,,,,,,,0.49537037,-0.244444459,1,0,0,3.4445,5,22,152,9,1,j,images/br_j.png,images/cb_j.png,,,,,,,,,,,,,,,,,,,,,,,,,
,,,,,,00045,2023-10-07_21h31.03.660,vbt_B1_day1,2022.2.4,Win32,60.01680471,,,,,,,,,,,,,,,,,,,0.49537037,-0.244444459,1,0,0,0.1663,5,23,153,3,1,d,images/br_d.png,images/cb_d.png,,,,,,,,,,,,,,,,,,,,,,,,,
,,,,,,00045,2023-10-07_21h31.03.660,vbt_B1_day1,2022.2.4,Win32,60.01680471,,,,,,,,,,,,,,,,,,,0.49537037,-0.244444459,1,0,0,0.4158,5,24,154,15,1,p,images/br_p.png,images/cb_p.png,,,,,,,,,,,,,,,,,,,,,,,,,
,,,,,,00045,2023-10-07_21h31.03.660,vbt_B1_day1,2022.2.4,Win32,60.01680471,,,,,,,,,,,,,,,,,,,0.49537037,-0.244444459,1,0,0,0.3494,5,25,155,19,1,t,images/br_t.png,images/cb_t.png,,,,,,,,,,,,,,,,,,,,,,,,,
,,,,,,00045,2023-10-07_21h31.03.660,vbt_B1_day1,2022.2.4,Win32,60.01680471,,,,,,,,,,,,,,,,,,,0.49537037,-0.244444459,1,0,0,0.5823,6,0,156,11,1,l,images/br_l.png,images/cb_l.png,,,,,,,,,,,,,,,,,,,,,,,,,
,,,,,,00045,2023-10-07_21h31.03.660,vbt_B1_day1,2022.2.4,Win32,60.01680471,,,,,,,,,,,,,,,,,,,0.49537037,-0.244444459,1,0,0,0.4323,6,1,157,13,1,n,images/br_n.png,images/cb_n.png,,,,,,,,,,,,,,,,,,,,,,,,,
,,,,,,00045,2023-10-07_21h31.03.660,vbt_B1_day1,2022.2.4,Win32,60.01680471,,,,,,,,,,,,,,,,,,,0.49537037,-0.244444459,1,0,0,0.8486,6,2,158,23,1,x,images/br_x.png,images/cb_x.png,,,,,,,,,,,,,,,,,,,,,,,,,
,,,,,,00045,2023-10-07_21h31.03.660,vbt_B1_day1,2022.2.4,Win32,60.01680471,,,,,,,,,,,,,,,,,,,0.49537037,-0.244444459,1,0,0,0.3159,6,3,159,14,1,o,images/br_o.png,images/cb_o.png,,,,,,,,,,,,,,,,,,,,,,,,,
,,,,,,00045,2023-10-07_21h31.03.660,vbt_B1_day1,2022.2.4,Win32,60.01680471,,,,,,,,,,,,,,,,,,,0.49537037,-0.244444459,1,0,0,4.6593,6,4,160,17,1,r,images/br_r.png,images/cb_r.png,,,,,,,,,,,,,,,,,,,,,,,,,
,,,,,,00045,2023-10-07_21h31.03.660,vbt_B1_day1,2022.2.4,Win32,60.01680471,,,,,,,,,,,,,,,,,,,0.49537037,-0.244444459,1,0,0,0.15,6,5,161,25,1,z,images/br_z.png,images/cb_z.png,,,,,,,,,,,,,,,,,,,,,,,,,
,,,,,,00045,2023-10-07_21h31.03.660,vbt_B1_day1,2022.2.4,Win32,60.01680471,,,,,,,,,,,,,,,,,,,0.49537037,-0.244444459,1,0,0,0.9317,6,6,162,4,1,e,images/br_e.png,images/cb_e.png,,,,,,,,,,,,,,,,,,,,,,,,,
,,,,,,00045,2023-10-07_21h31.03.660,vbt_B1_day1,2022.2.4,Win32,60.01680471,,,,,,,,,,,,,,,,,,,0.49537037,-0.244444459,1,0,0,2.1297,6,7,163,15,1,p,images/br_p.png,images/cb_p.png,,,,,,,,,,,,,,,,,,,,,,,,,
,,,,,,00045,2023-10-07_21h31.03.660,vbt_B1_day1,2022.2.4,Win32,60.01680471,,,,,,,,,,,,,,,,,,,0.49537037,-0.244444459,1,0,0,12.6796,6,8,164,1,1,b,images/br_b.png,images/cb_b.png,,,,,,,,,,,,,,,,,,,,,,,,,
,,,,,,00045,2023-10-07_21h31.03.660,vbt_B1_day1,2022.2.4,Win32,60.01680471,,,,,,,,,,,,,,,,,,,0.49537037,-0.244444459,1,0,0,1.7305,6,9,165,21,1,v,images/br_v.png,images/cb_v.png,,,,,,,,,,,,,,,,,,,,,,,,,
,,,,,,00045,2023-10-07_21h31.03.660,vbt_B1_day1,2022.2.4,Win32,60.01680471,,,,,,,,,,,,,,,,,,,0.32685188,-0.263888889,1,0,0,6.6889,6,10,166,2,1,c,images/br_c.png,images/cb_c.png,,,,,,,,,,,,,,,,,,,,,,,,,
,,,,,,00045,2023-10-07_21h31.03.660,vbt_B1_day1,2022.2.4,Win32,60.01680471,,,,,,,,,,,,,,,,,,,0.32685188,-0.263888889,1,0,0,0.5791,6,11,167,18,1,s,images/br_s.png,images/cb_s.png,,,,,,,,,,,,,,,,,,,,,,,,,
,,,,,,00045,2023-10-07_21h31.03.660,vbt_B1_day1,2022.2.4,Win32,60.01680471,,,,,,,,,,,,,,,,,,,0.32685188,-0.263888889,1,0,0,0.15,6,12,168,16,1,q,images/br_q.png,images/cb_q.png,,,,,,,,,,,,,,,,,,,,,,,,,
,,,,,,00045,2023-10-07_21h31.03.660,vbt_B1_day1,2022.2.4,Win32,60.01680471,,,,,,,,,,,,,,,,,,,0.469444416,-0.164814843,1,0,0,0.6198,6,13,169,3,1,d,images/br_d.png,images/cb_d.png,,,,,,,,,,,,,,,,,,,,,,,,,
,,,,,,00045,2023-10-07_21h31.03.660,vbt_B1_day1,2022.2.4,Win32,60.01680471,,,,,,,,,,,,,,,,,,,0.469444416,-0.164814843,1,0,0,0.0996,6,14,170,6,1,g,images/br_g.png,images/cb_g.png,,,,,,,,,,,,,,,,,,,,,,,,,
,,,,,,00045,2023-10-07_21h31.03.660,vbt_B1_day1,2022.2.4,Win32,60.01680471,,,,,,,,,,,,,,,,,,,0.469444416,-0.164814843,1,0,0,0.6324,6,15,171,24,1,y,images/br_y.png,images/cb_y.png,,,,,,,,,,,,,,,,,,,,,,,,,
,,,,,,00045,2023-10-07_21h31.03.660,vbt_B1_day1,2022.2.4,Win32,60.01680471,,,,,,,,,,,,,,,,,,,0.469444416,-0.164814843,1,0,0,1.2313,6,16,172,20,1,u,images/br_u.png,images/cb_u.png,,,,,,,,,,,,,,,,,,,,,,,,,
,,,,,,00045,2023-10-07_21h31.03.660,vbt_B1_day1,2022.2.4,Win32,60.01680471,,,,,,,,,,,,,,,,,,,0.469444416,-0.164814843,1,0,0,0.5993,6,17,173,12,1,m,images/br_m.png,images/cb_m.png,,,,,,,,,,,,,,,,,,,,,,,,,
,,,,,,00045,2023-10-07_21h31.03.660,vbt_B1_day1,2022.2.4,Win32,60.01680471,,,,,,,,,,,,,,,,,,,0.469444416,-0.164814843,1,0,0,0.3493,6,18,174,0,1,a,images/br_a.png,images/cb_a.png,,,,,,,,,,,,,,,,,,,,,,,,,
,,,,,,00045,2023-10-07_21h31.03.660,vbt_B1_day1,2022.2.4,Win32,60.01680471,,,,,,,,,,,,,,,,,,,0.469444416,-0.164814843,1,0,0,0.1755,6,19,175,8,1,i,images/br_i.png,images/cb_i.png,,,,,,,,,,,,,,,,,,,,,,,,,
,,,,,,00045,2023-10-07_21h31.03.660,vbt_B1_day1,2022.2.4,Win32,60.01680471,,,,,,,,,,,,,,,,,,,0.469444416,-0.164814843,1,0,0,0.4733,6,20,176,22,1,w,images/br_w.png,images/cb_w.png,,,,,,,,,,,,,,,,,,,,,,,,,
,,,,,,00045,2023-10-07_21h31.03.660,vbt_B1_day1,2022.2.4,Win32,60.01680471,,,,,,,,,,,,,,,,,,,0.469444416,-0.164814843,1,0,0,3.0617,6,21,177,9,1,j,images/br_j.png,images/cb_j.png,,,,,,,,,,,,,,,,,,,,,,,,,
,,,,,,00045,2023-10-07_21h31.03.660,vbt_B1_day1,2022.2.4,Win32,60.01680471,,,,,,,,,,,,,,,,,,,0.469444416,-0.164814843,1,0,0,0.1829,6,22,178,10,1,k,images/br_k.png,images/cb_k.png,,,,,,,,,,,,,,,,,,,,,,,,,
,,,,,,00045,2023-10-07_21h31.03.660,vbt_B1_day1,2022.2.4,Win32,60.01680471,,,,,,,,,,,,,,,,,,,0.469444416,-0.164814843,1,0,0,1.0648,6,23,179,5,1,f,images/br_f.png,images/cb_f.png,,,,,,,,,,,,,,,,,,,,,,,,,
,,,,,,00045,2023-10-07_21h31.03.660,vbt_B1_day1,2022.2.4,Win32,60.01680471,,,,,,,,,,,,,,,,,,,0.469444416,-0.164814843,1,0,0,0.2735,6,24,180,19,1,t,images/br_t.png,images/cb_t.png,,,,,,,,,,,,,,,,,,,,,,,,,
,,,,,,00045,2023-10-07_21h31.03.660,vbt_B1_day1,2022.2.4,Win32,60.01680471,,,,,,,,,,,,,,,,,,,0.469444416,-0.164814843,1,0,0,0.3661,6,25,181,7,1,h,images/br_h.png,images/cb_h.png,,,,,,,,,,,,,,,,,,,,,,,,,
,,,,,,00045,2023-10-07_21h31.03.660,vbt_B1_day1,2022.2.4,Win32,60.01680471,,,,,,,,,,,,,,,,,,,,,,,,,,,,,,,,,0.469444416,-0.164814843,1,0,0,,,,,,,,,,,,,,,,,,,,
,,,,,,00045,2023-10-07_21h31.03.660,vbt_B1_day1,2022.2.4,Win32,60.01680471,,,,,,,,,,,,,,,,,,,,,,,,,,,,,,,,,,,,,,0.479629658,-0.169444473,1,0,0,,,,,,,,,,,,,,,
,,,,,,00045,2023-10-07_21h31.03.660,vbt_B1_day1,2022.2.4,Win32,60.01680471,,,,,,,,,,,,,,,,,,,,,,,,,,,,,,,,,,,,,,,,,,,0.479629658,-0.169444473,1,0,0,fv....,fv....,0,0,0,9,1,dubbel,images/br_dubbel.png,images/cb_dubbel.png
,,,,,,00045,2023-10-07_21h31.03.660,vbt_B1_day1,2022.2.4,Win32,60.01680471,,,,,,,,,,,,,,,,,,,,,,,,,,,,,,,,,,,,,,,,,,,0.479629658,-0.169444473,1,0,0,ksoe,ksoe,0,1,1,22,1,knoe,images/br_knoe.png,images/cb_knoe.png
,,,,,,00045,2023-10-07_21h31.03.660,vbt_B1_day1,2022.2.4,Win32,60.01680471,,,,,,,,,,,,,,,,,,,,,,,,,,,,,,,,,,,,,,,,,,,0.479629658,-0.169444473,1,0,0,hief,hief,0,2,2,40,1,dief,images/br_dief.png,images/cb_dief.png
,,,,,,00045,2023-10-07_21h31.03.660,vbt_B1_day1,2022.2.4,Win32,60.01680471,,,,,,,,,,,,,,,,,,,,,,,,,,,,,,,,,,,,,,,,,,,0.479629658,-0.169444473,1,0,0,.aar,.aar,0,3,3,2,1,jaar,images/br_jaar.png,images/cb_jaar.png
,,,,,,00045,2023-10-07_21h31.03.660,vbt_B1_day1,2022.2.4,Win32,60.01680471,,,,,,,,,,,,,,,,,,,,,,,,,,,,,,,,,,,,,,,,,,,0.479629658,-0.169444473,1,0,0,.aar.ee.s,.aar.ee.s,0,4,4,16,1,daarheen,images/br_daarheen.png,images/cb_daarheen.png
,,,,,,00045,2023-10-07_21h31.03.660,vbt_B1_day1,2022.2.4,Win32,60.01680471,,,,,,,,,,,,,,,,,,,,,,,,,,,,,,,,,,,,,,,,,,,0.479629658,-0.169444473,1,0,0,voorke...,voorke...,0,5,5,58,1,voorkeur,images/br_voorkeur.png,images/cb_voorkeur.png
,,,,,,00045,2023-10-07_21h31.03.660,vbt_B1_day1,2022.2.4,Win32,60.01680471,,,,,,,,,,,,,,,,,,,,,,,,,,,,,,,,,,,,,,,,,,,0.479629658,-0.169444473,1,0,0,lava,lava,0,6,6,43,1,lava,images/br_lava.png,images/cb_lava.png
,,,,,,00045,2023-10-07_21h31.03.660,vbt_B1_day1,2022.2.4,Win32,60.01680471,,,,,,,,,,,,,,,,,,,,,,,,,,,,,,,,,,,,,,,,,,,0.479629658,-0.169444473,1,0,0,bleek,bleek,0,7,7,6,1,bleek,images/br_bleek.png,images/cb_bleek.png
,,,,,,00045,2023-10-07_21h31.03.660,vbt_B1_day1,2022.2.4,Win32,60.01680471,,,,,,,,,,,,,,,,,,,,,,,,,,,,,,,,,,,,,,,,,,,0.479629658,-0.169444473,1,0,0,mu...,mu...,0,8,8,10,1,muziek,images/br_muziek.png,images/cb_muziek.png
,,,,,,00045,2023-10-07_21h31.03.660,vbt_B1_day1,2022.2.4,Win32,60.01680471,,,,,,,,,,,,,,,,,,,,,,,,,,,,,,,,,,,,,,,,,,,0.479629658,-0.169444473,1,0,0,weerpas,weerpas,0,9,9,14,1,waarvan,images/br_waarvan.png,images/cb_waarvan.png
,,,,,,00045,2023-10-07_21h31.03.660,vbt_B1_day1,2022.2.4,Win32,60.01680471,,,,,,,,,,,,,,,,,,,,,,,,,,,,,,,,,,,,,,,,,,,0.479629658,-0.169444473,1,0,0,weerhaj,weerhaj,0,10,10,30,1,reedje,images/br_reedje.png,images/cb_reedje.png
,,,,,,00045,2023-10-07_21h31.03.660,vbt_B1_day1,2022.2.4,Win32,60.01680471,,,,,,,,,,,,,,,,,,,,,,,,,,,,,,,,,,,,,,,,,,,0.479629658,-0.169444473,1,0,0,weir.e,weir.e,0,11,11,44,1,wijze,images/br_wijze.png,images/cb_wijze.png
,,,,,,00045,2023-10-07_21h31.03.660,vbt_B1_day1,2022.2.4,Win32,60.01680471,,,,,,,,,,,,,,,,,,,,,,,,,,,,,,,,,,,,,,,,,,,0.479629658,-0.169444473,1,0,0,...iel.a,...iel.a,0,12,12,38,1,schielen,images/br_schielen.png,images/cb_schielen.png
,,,,,,00045,2023-10-07_21h31.03.660,vbt_B1_day1,2022.2.4,Win32,60.01680471,,,,,,,,,,,,,,,,,,,,,,,,,,,,,,,,,,,,,,,,,,,0.479629658,-0.169444473,1,0,0,verv...,verv...,0,13,13,36,1,vervaden,images/br_vervaden.png,images/cb_vervaden.png
,,,,,,00045,2023-10-07_21h31.03.660,vbt_B1_day1,2022.2.4,Win32,60.01680471,,,,,,,,,,,,,,,,,,,,,,,,,,,,,,,,,,,,,,,,,,,0.479629658,-0.169444473,1,0,0,le.es,le.es,0,14,14,46,1,lezen,images/br_lezen.png,images/cb_lezen.png
,,,,,,00045,2023-10-07_21h31.03.660,vbt_B1_day1,2022.2.4,Win32,60.01680471,,,,,,,,,,,,,,,,,,,,,,,,,,,,,,,,,,,,,,,,,,,0.479629658,-0.169444473,1,0,0,.pas....,.pas....,0,15,15,37,1,spanzing,images/br_spanzing.png,images/cb_spanzing.png
,,,,,,00045,2023-10-07_21h31.03.660,vbt_B1_day1,2022.2.4,Win32,60.01680471,,,,,,,,,,,,,,,,,,,,,,,,,,,,,,,,,,,,,,,,,,,0.479629658,-0.169444473,1,0,0,.tamez,.tamez,0,16,16,31,1,stamen,images/br_stamen.png,images/cb_stamen.png
,,,,,,00045,2023-10-07_21h31.03.660,vbt_B1_day1,2022.2.4,Win32,60.01680471,,,,,,,,,,,,,,,,,,,,,,,,,,,,,,,,,,,,,,,,,,,0.479629658,-0.169444473,1,0,0,ma.h,ma.h,0,17,17,3,1,mand,images/br_mand.png,images/cb_mand.png
,,,,,,00045,2023-10-07_21h31.03.660,vbt_B1_day1,2022.2.4,Win32,60.01680471,,,,,,,,,,,,,,,,,,,,,,,,,,,,,,,,,,,,,,,,,,,0.479629658,-0.169444473,1,0,0,opplaa.,opplaa.,0,18,18,32,1,opplaan,images/br_opplaan.png,images/cb_opplaan.png
,,,,,,00045,2023-10-07_21h31.03.660,vbt_B1_day1,2022.2.4,Win32,60.01680471,,,,,,,,,,,,,,,,,,,,,,,,,,,,,,,,,,,,,,,,,,,0.479629658,-0.169444473,1,0,0,sch...,sch...,0,19,19,19,1,schuilen,images/br_schuilen.png,images/cb_schuilen.png
,,,,,,00045,2023-10-07_21h31.03.660,vbt_B1_day1,2022.2.4,Win32,60.01680471,,,,,,,,,,,,,,,,,,,,,,,,,,,,,,,,,,,,,,,,,,,0.479629658,-0.169444473,1,0,0,opvatti.,opvatti.,0,20,20,59,1,opvatten,images/br_opvatten.png,images/cb_opvatten.png
,,,,,,00045,2023-10-07_21h31.03.660,vbt_B1_day1,2022.2.4,Win32,60.01680471,,,,,,,,,,,,,,,,,,,,,,,,,,,,,,,,,,,,,,,,,,,0.479629658,-0.170370384,1,0,0,bebrit,bebrit,0,21,21,28,1,bebrip,images/br_bebrip.png,images/cb_bebrip.png
,,,,,,00045,2023-10-07_21h31.03.660,vbt_B1_day1,2022.2.4,Win32,60.01680471,,,,,,,,,,,,,,,,,,,,,,,,,,,,,,,,,,,,,,,,,,,0.479629658,-0.170370384,1,0,0,..i,..i,0,22,22,52,1,zuiplap,images/br_zuiplap.png,images/cb_zuiplap.png
,,,,,,00045,2023-10-07_21h31.03.660,vbt_B1_day1,2022.2.4,Win32,60.01680471,,,,,,,,,,,,,,,,,,,,,,,,,,,,,,,,,,,,,,,,,,,0.479629658,-0.170370384,1,0,0,.een,.een,0,23,23,57,1,meenemen,images/br_meenemen.png,images/cb_meenemen.png
,,,,,,00045,2023-10-07_21h31.03.660,vbt_B1_day1,2022.2.4,Win32,60.01680471,,,,,,,,,,,,,,,,,,,,,,,,,,,,,,,,,,,,,,,,,,,0.479629658,-0.170370384,1,0,0,.ierp,.ierp,0,24,24,15,1,hiervan,images/br_hiervan.png,images/cb_hiervan.png
,,,,,,00045,2023-10-07_21h31.03.660,vbt_B1_day1,2022.2.4,Win32,60.01680471,,,,,,,,,,,,,,,,,,,,,,,,,,,,,,,,,,,,,,,,,,,0.479629658,-0.170370384,1,0,0,zaap,zaap,0,25,25,1,1,zaal,images/br_zaal.png,images/cb_zaal.png
,,,,,,00045,2023-10-07_21h31.03.660,vbt_B1_day1,2022.2.4,Win32,60.01680471,,,,,,,,,,,,,,,,,,,,,,,,,,,,,,,,,,,,,,,,,,,0.479629658,-0.170370384,1,0,0,re.rer,re.rer,0,26,26,24,1,rezer,images/br_rezer.png,images/cb_rezer.png
,,,,,,00045,2023-10-07_21h31.03.660,vbt_B1_day1,2022.2.4,Win32,60.01680471,,,,,,,,,,,,,,,,,,,,,,,,,,,,,,,,,,,,,,,,,,,0.479629658,-0.170370384,1,0,0,.tuk,.tuk,0,27,27,42,1,stuk,images/br_stuk.png,images/cb_stuk.png
,,,,,,00045,2023-10-07_21h31.03.660,vbt_B1_day1,2022.2.4,Win32,60.01680471,,,,,,,,,,,,,,,,,,,,,,,,,,,,,,,,,,,,,,,,,,,0.479629658,-0.170370384,1,0,0,prort,prort,0,28,28,27,1,prort,images/br_prort.png,images/cb_prort.png
,,,,,,00045,2023-10-07_21h31.03.660,vbt_B1_day1,2022.2.4,Win32,60.01680471,,,,,,,,,,,,,,,,,,,,,,,,,,,,,,,,,,,,,,,,,,,0.479629658,-0.170370384,1,0,0,.tuik,.tuik,0,29,29,35,1,stuikem,images/br_stuikem.png,images/cb_stuikem.png
,,,,,,00045,2023-10-07_21h31.03.660,vbt_B1_day1,2022.2.4,Win32,60.01680471,,,,,,,,,,,,,,,,,,,,,,,,,,,,,,,,,,,,,,,,,,,0.479629658,-0.170370384,1,0,0,vooreu,vooreu,0,30,30,39,1,voorreur,images/br_voorreur.png,images/cb_voorreur.png
,,,,,,00045,2023-10-07_21h31.03.660,vbt_B1_day1,2022.2.4,Win32,60.01680471,,,,,,,,,,,,,,,,,,,,,,,,,,,,,,,,,,,,,,,,,,,0.479629658,-0.170370384,1,0,0,maken,maken,0,31,31,5,1,maken,images/br_maken.png,images/cb_maken.png
,,,,,,00045,2023-10-07_21h31.03.660,vbt_B1_day1,2022.2.4,Win32,60.01680471,,,,,,,,,,,,,,,,,,,,,,,,,,,,,,,,,,,,,,,,,,,0.479629658,-0.170370384,1,0,0,.ictie,.ictie,0,32,32,48,1,fictie,images/br_fictie.png,images/cb_fictie.png
,,,,,,00045,2023-10-07_21h31.03.660,vbt_B1_day1,2022.2.4,Win32,60.01680471,,,,,,,,,,,,,,,,,,,,,,,,,,,,,,,,,,,,,,,,,,,0.479629658,-0.170370384,1,0,0,uit.e,uit.e,0,33,33,18,1,uitdelen,images/br_uitdelen.png,images/cb_uitdelen.png
,,,,,,00045,2023-10-07_21h31.03.660,vbt_B1_day1,2022.2.4,Win32,60.01680471,,,,,,,,,,,,,,,,,,,,,,,,,,,,,,,,,,,,,,,,,,,0.479629658,-0.170370384,1,0,0,kluaw,kluaw,0,34,34,7,1,klauw,images/br_klauw.png,images/cb_klauw.png
,,,,,,00045,2023-10-07_21h31.03.660,vbt_B1_day1,2022.2.4,Win32,60.01680471,,,,,,,,,,,,,,,,,,,,,,,,,,,,,,,,,,,,,,,,,,,0.479629658,-0.170370384,1,0,0,loo,loo,0,35,35,47,1,loods,images/br_loods.png,images/cb_loods.png
,,,,,,00045,2023-10-07_21h31.03.660,vbt_B1_day1,2022.2.4,Win32,60.01680471,,,,,,,,,,,,,,,,,,,,,,,,,,,,,,,,,,,,,,,,,,,0.479629658,-0.170370384,1,0,0,vie...g,vie...g,0,36,36,54,1,vijftig,images/br_vijftig.png,images/cb_vijftig.png
,,,,,,00045,2023-10-07_21h31.03.660,vbt_B1_day1,2022.2.4,Win32,60.01680471,,,,,,,,,,,,,,,,,,,,,,,,,,,,,,,,,,,,,,,,,,,0.479629658,-0.170370384,1,0,0,ve.o,ve.o,0,37,37,29,1,genond,images/br_genond.png,images/cb_genond.png
,,,,,,00045,2023-10-07_21h31.03.660,vbt_B1_day1,2022.2.4,Win32,60.01680471,,,,,,,,,,,,,,,,,,,,,,,,,,,,,,,,,,,,,,,,,,,0.479629658,-0.170370384,1,0,0,hoog,hoog,0,38,38,41,1,hoog,images/br_hoog.png,images/cb_hoog.png
,,,,,,00045,2023-10-07_21h31.03.660,vbt_B1_day1,2022.2.4,Win32,60.01680471,,,,,,,,,,,,,,,,,,,,,,,,,,,,,,,,,,,,,,,,,,,0.479629658,-0.170370384,1,0,0,toe.e,toe.e,0,39,39,56,1,toezicht,images/br_toezicht.png,images/cb_toezicht.png
,,,,,,00045,2023-10-07_21h31.03.660,vbt_B1_day1,2022.2.4,Win32,60.01680471,,,,,,,,,,,,,,,,,,,,,,,,,,,,,,,,,,,,,,,,,,,0.479629658,-0.170370384,1,0,0,bre.k,bre.k,0,40,40,25,1,brijk,images/br_brijk.png,images/cb_brijk.png
,,,,,,00045,2023-10-07_21h31.03.660,vbt_B1_day1,2022.2.4,Win32,60.01680471,,,,,,,,,,,,,,,,,,,,,,,,,,,,,,,,,,,,,,,,,,,0.479629658,-0.170370384,1,0,0,teke,teke,0,41,41,55,1,tekenen,images/br_tekenen.png,images/cb_tekenen.png
,,,,,,00045,2023-10-07_21h31.03.660,vbt_B1_day1,2022.2.4,Win32,60.01680471,,,,,,,,,,,,,,,,,,,,,,,,,,,,,,,,,,,,,,,,,,,0.479629658,-0.170370384,1,0,0,lie..e,lie..e,0,42,42,51,1,liefde,images/br_liefde.png,images/cb_liefde.png
,,,,,,00045,2023-10-07_21h31.03.660,vbt_B1_day1,2022.2.4,Win32,60.01680471,,,,,,,,,,,,,,,,,,,,,,,,,,,,,,,,,,,,,,,,,,,0.479629658,-0.170370384,1,0,0,.c.e.,.c.e.,0,43,43,4,1,schep,images/br_schep.png,images/cb_schep.png
,,,,,,00045,2023-10-07_21h31.03.660,vbt_B1_day1,2022.2.4,Win32,60.01680471,,,,,,,,,,,,,,,,,,,,,,,,,,,,,,,,,,,,,,,,,,,0.479629658,-0.170370384,1,0,0,.lak,.lak,0,44,44,0,1,slak,images/br_slak.png,images/cb_slak.png
,,,,,,00045,2023-10-07_21h31.03.660,vbt_B1_day1,2022.2.4,Win32,60.01680471,,,,,,,,,,,,,,,,,,,,,,,,,,,,,,,,,,,,,,,,,,,0.479629658,-0.170370384,1,0,0,valop,valop,0,45,45,26,1,valop,images/br_valop.png,images/cb_valop.png
,,,,,,00045,2023-10-07_21h31.03.660,vbt_B1_day1,2022.2.4,Win32,60.01680471,,,,,,,,,,,,,,,,,,,,,,,,,,,,,,,,,,,,,,,,,,,0.479629658,-0.170370384,1,0,0,liegen,liegen,0,46,46,50,1,liegen,images/br_liegen.png,images/cb_liegen.png
,,,,,,00045,2023-10-07_21h31.03.660,vbt_B1_day1,2022.2.4,Win32,60.01680471,,,,,,,,,,,,,,,,,,,,,,,,,,,,,,,,,,,,,,,,,,,0.479629658,-0.170370384,1,0,0,klimmen,klimmen,0,47,47,12,1,klimmen,images/br_klimmen.png,images/cb_klimmen.png
,,,,,,00045,2023-10-07_21h31.03.660,vbt_B1_day1,2022.2.4,Win32,60.01680471,,,,,,,,,,,,,,,,,,,,,,,,,,,,,,,,,,,,,,,,,,,0.479629658,-0.170370384,1,0,0,loc,loc,0,48,48,34,1,lochten,images/br_lochten.png,images/cb_lochten.png
,,,,,,00045,2023-10-07_21h31.03.660,vbt_B1_day1,2022.2.4,Win32,60.01680471,,,,,,,,,,,,,,,,,,,,,,,,,,,,,,,,,,,,,,,,,,,0.479629658,-0.170370384,1,0,0,tar.,tar.,0,49,49,20,1,tars,images/br_tars.png,images/cb_tars.png
,,,,,,00045,2023-10-07_21h31.03.660,vbt_B1_day1,2022.2.4,Win32,60.01680471,,,,,,,,,,,,,,,,,,,,,,,,,,,,,,,,,,,,,,,,,,,0.479629658,-0.170370384,1,0,0,.re.,.re.,0,50,50,21,1,dred,images/br_dred.png,images/cb_dred.png
,,,,,,00045,2023-10-07_21h31.03.660,vbt_B1_day1,2022.2.4,Win32,60.01680471,,,,,,,,,,,,,,,,,,,,,,,,,,,,,,,,,,,,,,,,,,,0.479629658,-0.170370384,1,0,0,.lummen,.lummen,0,51,51,33,1,flullen,images/br_flullen.png,images/cb_flullen.png
,,,,,,00045,2023-10-07_21h31.03.660,vbt_B1_day1,2022.2.4,Win32,60.01680471,,,,,,,,,,,,,,,,,,,,,,,,,,,,,,,,,,,,,,,,,,,0.479629658,-0.170370384,1,0,0,attneie,attneie,0,52,52,17,1,attentie,images/br_attentie.png,images/cb_attentie.png
,,,,,,00045,2023-10-07_21h31.03.660,vbt_B1_day1,2022.2.4,Win32,60.01680471,,,,,,,,,,,,,,,,,,,,,,,,,,,,,,,,,,,,,,,,,,,0.479629658,-0.170370384,1,0,0,kan.er,kan.er,0,53,53,8,1,kanjer,images/br_kanjer.png,images/cb_kanjer.png
,,,,,,00045,2023-10-07_21h31.03.660,vbt_B1_day1,2022.2.4,Win32,60.01680471,,,,,,,,,,,,,,,,,,,,,,,,,,,,,,,,,,,,,,,,,,,0.479629658,-0.170370384,1,0,0,emel,emel,0,54,54,45,1,hemel,images/br_hemel.png,images/cb_hemel.png
,,,,,,00045,2023-10-07_21h31.03.660,vbt_B1_day1,2022.2.4,Win32,60.01680471,,,,,,,,,,,,,,,,,,,,,,,,,,,,,,,,,,,,,,,,,,,0.479629658,-0.170370384,1,0,0,,,0,55,55,13,1,twijfel,images/br_twijfel.png,images/cb_twijfel.png
,,,,,,00045,2023-10-07_21h31.03.660,vbt_B1_day1,2022.2.4,Win32,60.01680471,,,,,,,,,,,,,,,,,,,,,,,,,,,,,,,,,,,,,,,,,,,0.479629658,-0.170370384,1,0,0,viziet,viziet,0,56,56,49,1,vizier,images/br_vizier.png,images/cb_vizier.png
,,,,,,00045,2023-10-07_21h31.03.660,vbt_B1_day1,2022.2.4,Win32,60.01680471,,,,,,,,,,,,,,,,,,,,,,,,,,,,,,,,,,,,,,,,,,,0.479629658,-0.170370384,1,0,0,op.l,op.l,0,57,57,53,1,opslaan,images/br_opslaan.png,images/cb_opslaan.png
,,,,,,00045,2023-10-07_21h31.03.660,vbt_B1_day1,2022.2.4,Win32,60.01680471,,,,,,,,,,,,,,,,,,,,,,,,,,,,,,,,,,,,,,,,,,,0.479629658,-0.170370384,1,0,0,menim,menim,0,58,58,11,1,mening,images/br_mening.png,images/cb_mening.png
,,,,,,00045,2023-10-07_21h31.03.660,vbt_B1_day1,2022.2.4,Win32,60.01680471,,,,,,,,,,,,,,,,,,,,,,,,,,,,,,,,,,,,,,,,,,,0.479629658,-0.170370384,1,0,0,booi,booi,0,59,59,23,1,booi,images/br_booi.png,images/cb_booi.png
,,,,,,00045,2023-10-07_21h31.03.660,vbt_B1_day1,2022.2.4,Win32,60.01680471,,,,,,,,,,,,,,,,,,,,,,,,,,,,,,,,,,,,,,,,,,,,,,,,,,,,,,,,,
