welcome_mouse.x,welcome_mouse.y,welcome_mouse.leftButton,welcome_mouse.midButton,welcome_mouse.rightButton,welcome_mouse.time,"ID",date,expName,psychopyVersion,OS,frameRate,mouse_2.x,mouse_2.y,mouse_2.leftButton,mouse_2.midButton,mouse_2.rightButton,mouse_2.time,mouse_3.x,mouse_3.y,mouse_3.leftButton,mouse_3.midButton,mouse_3.rightButton,mouse_3.time,train_mouse.x,train_mouse.y,train_mouse.leftButton,train_mouse.midButton,train_mouse.rightButton,train_mouse.time,braille_mouse.x,braille_mouse.y,braille_mouse.leftButton,braille_mouse.midButton,braille_mouse.rightButton,braille_mouse.time,trials.thisRepN,trials.thisTrialN,trials.thisN,trials.thisIndex,trials.ran,nlLet,brLet,cbLet,mouse.x,mouse.y,mouse.leftButton,mouse.midButton,mouse.rightButton,testInstr_mouse.x,testInstr_mouse.y,testInstr_mouse.leftButton,testInstr_mouse.midButton,testInstr_mouse.rightButton,test_mouse.x,test_mouse.y,test_mouse.leftButton,test_mouse.midButton,test_mouse.rightButton,test_response.text,testResp,test_loop.thisRepN,test_loop.thisTrialN,test_loop.thisN,test_loop.thisIndex,test_loop.ran,nlWrd,brWrd,cbWrd
0.286111125,-0.19722225,0,0,1,2.5463,00082,2023-10-21_19h24.35.637,vbt_B1_day1,2022.2.4,Win32,60.08171113,,,,,,,,,,,,,,,,,,,,,,,,,,,,,,,,,,,,,,,,,,,,,,,,,,,,,,,,,
,,,,,,00082,2023-10-21_19h24.35.637,vbt_B1_day1,2022.2.4,Win32,60.08171113,0.160185213,-0.15370369,1,0,0,1.9264,,,,,,,,,,,,,,,,,,,,,,,,,,,,,,,,,,,,,,,,,,,,,,,,,,,
,,,,,,00082,2023-10-21_19h24.35.637,vbt_B1_day1,2022.2.4,Win32,60.08171113,,,,,,,0.280555584,-0.08425928,1,0,0,38.8647,,,,,,,,,,,,,,,,,,,,,,,,,,,,,,,,,,,,,,,,,,,,,
,,,,,,00082,2023-10-21_19h24.35.637,vbt_B1_day1,2022.2.4,Win32,60.08171113,,,,,,,,,,,,,0.280555584,-0.08425928,1,0,0,33.585,,,,,,,,,,,,,,,,,,,,,,,,,,,,,,,,,,,,,,,
,,,,,,00082,2023-10-21_19h24.35.637,vbt_B1_day1,2022.2.4,Win32,60.08171113,,,,,,,,,,,,,,,,,,,0.340740769,0.01203703,1,0,0,9.6422,0,0,0,15,1,p,images/br_p.png,images/cb_p.png,,,,,,,,,,,,,,,,,,,,,,,,,
,,,,,,00082,2023-10-21_19h24.35.637,vbt_B1_day1,2022.2.4,Win32,60.08171113,,,,,,,,,,,,,,,,,,,0.340740769,0.01203703,1,0,0,9.9575,0,1,1,0,1,a,images/br_a.png,images/cb_a.png,,,,,,,,,,,,,,,,,,,,,,,,,
,,,,,,00082,2023-10-21_19h24.35.637,vbt_B1_day1,2022.2.4,Win32,60.08171113,,,,,,,,,,,,,,,,,,,0.340740769,0.01203703,1,0,0,10.4245,0,2,2,22,1,w,images/br_w.png,images/cb_w.png,,,,,,,,,,,,,,,,,,,,,,,,,
,,,,,,00082,2023-10-21_19h24.35.637,vbt_B1_day1,2022.2.4,Win32,60.08171113,,,,,,,,,,,,,,,,,,,0.340740769,0.01203703,1,0,0,10.323,0,3,3,24,1,y,images/br_y.png,images/cb_y.png,,,,,,,,,,,,,,,,,,,,,,,,,
,,,,,,00082,2023-10-21_19h24.35.637,vbt_B1_day1,2022.2.4,Win32,60.08171113,,,,,,,,,,,,,,,,,,,0.340740769,0.01203703,1,0,0,5.5779,0,4,4,25,1,z,images/br_z.png,images/cb_z.png,,,,,,,,,,,,,,,,,,,,,,,,,
,,,,,,00082,2023-10-21_19h24.35.637,vbt_B1_day1,2022.2.4,Win32,60.08171113,,,,,,,,,,,,,,,,,,,0.340740769,0.01203703,1,0,0,1.066,0,5,5,16,1,q,images/br_q.png,images/cb_q.png,,,,,,,,,,,,,,,,,,,,,,,,,
,,,,,,00082,2023-10-21_19h24.35.637,vbt_B1_day1,2022.2.4,Win32,60.08171113,,,,,,,,,,,,,,,,,,,0.340740769,0.01203703,1,0,0,0.483,0,6,6,21,1,v,images/br_v.png,images/cb_v.png,,,,,,,,,,,,,,,,,,,,,,,,,
,,,,,,00082,2023-10-21_19h24.35.637,vbt_B1_day1,2022.2.4,Win32,60.08171113,,,,,,,,,,,,,,,,,,,0.340740769,0.01203703,1,0,0,0.1013,0,7,7,1,1,b,images/br_b.png,images/cb_b.png,,,,,,,,,,,,,,,,,,,,,,,,,
,,,,,,00082,2023-10-21_19h24.35.637,vbt_B1_day1,2022.2.4,Win32,60.08171113,,,,,,,,,,,,,,,,,,,0.20648151,0.067592586,1,0,0,4.0128,0,8,8,8,1,i,images/br_i.png,images/cb_i.png,,,,,,,,,,,,,,,,,,,,,,,,,
,,,,,,00082,2023-10-21_19h24.35.637,vbt_B1_day1,2022.2.4,Win32,60.08171113,,,,,,,,,,,,,,,,,,,0.20648151,0.067592586,1,0,0,0.1999,0,9,9,10,1,k,images/br_k.png,images/cb_k.png,,,,,,,,,,,,,,,,,,,,,,,,,
,,,,,,00082,2023-10-21_19h24.35.637,vbt_B1_day1,2022.2.4,Win32,60.08171113,,,,,,,,,,,,,,,,,,,0.20648151,0.067592586,1,0,0,1.0322,0,10,10,2,1,c,images/br_c.png,images/cb_c.png,,,,,,,,,,,,,,,,,,,,,,,,,
,,,,,,00082,2023-10-21_19h24.35.637,vbt_B1_day1,2022.2.4,Win32,60.08171113,,,,,,,,,,,,,,,,,,,0.20648151,0.067592586,1,0,0,6.1103,0,11,11,11,1,l,images/br_l.png,images/cb_l.png,,,,,,,,,,,,,,,,,,,,,,,,,
,,,,,,00082,2023-10-21_19h24.35.637,vbt_B1_day1,2022.2.4,Win32,60.08171113,,,,,,,,,,,,,,,,,,,0.20648151,0.067592586,1,0,0,0.4329,0,12,12,7,1,h,images/br_h.png,images/cb_h.png,,,,,,,,,,,,,,,,,,,,,,,,,
,,,,,,00082,2023-10-21_19h24.35.637,vbt_B1_day1,2022.2.4,Win32,60.08171113,,,,,,,,,,,,,,,,,,,0.20648151,0.067592586,1,0,0,5.8775,0,13,13,4,1,e,images/br_e.png,images/cb_e.png,,,,,,,,,,,,,,,,,,,,,,,,,
,,,,,,00082,2023-10-21_19h24.35.637,vbt_B1_day1,2022.2.4,Win32,60.08171113,,,,,,,,,,,,,,,,,,,0.20648151,0.067592586,1,0,0,2.8304,0,14,14,9,1,j,images/br_j.png,images/cb_j.png,,,,,,,,,,,,,,,,,,,,,,,,,
,,,,,,00082,2023-10-21_19h24.35.637,vbt_B1_day1,2022.2.4,Win32,60.08171113,,,,,,,,,,,,,,,,,,,0.20648151,0.067592586,1,0,0,2.7642,0,15,15,14,1,o,images/br_o.png,images/cb_o.png,,,,,,,,,,,,,,,,,,,,,,,,,
,,,,,,00082,2023-10-21_19h24.35.637,vbt_B1_day1,2022.2.4,Win32,60.08171113,,,,,,,,,,,,,,,,,,,0.265740783,0.044444437,1,0,0,2.2978,0,16,16,13,1,n,images/br_n.png,images/cb_n.png,,,,,,,,,,,,,,,,,,,,,,,,,
,,,,,,00082,2023-10-21_19h24.35.637,vbt_B1_day1,2022.2.4,Win32,60.08171113,,,,,,,,,,,,,,,,,,,0.265740783,0.044444437,1,0,0,3.1468,0,17,17,17,1,r,images/br_r.png,images/cb_r.png,,,,,,,,,,,,,,,,,,,,,,,,,
,,,,,,00082,2023-10-21_19h24.35.637,vbt_B1_day1,2022.2.4,Win32,60.08171113,,,,,,,,,,,,,,,,,,,0.265740783,0.044444437,1,0,0,0.1167,0,18,18,6,1,g,images/br_g.png,images/cb_g.png,,,,,,,,,,,,,,,,,,,,,,,,,
,,,,,,00082,2023-10-21_19h24.35.637,vbt_B1_day1,2022.2.4,Win32,60.08171113,,,,,,,,,,,,,,,,,,,0.265740783,0.044444437,1,0,0,0.949,0,19,19,5,1,f,images/br_f.png,images/cb_f.png,,,,,,,,,,,,,,,,,,,,,,,,,
,,,,,,00082,2023-10-21_19h24.35.637,vbt_B1_day1,2022.2.4,Win32,60.08171113,,,,,,,,,,,,,,,,,,,0.265740783,0.044444437,1,0,0,0.4995,0,20,20,23,1,x,images/br_x.png,images/cb_x.png,,,,,,,,,,,,,,,,,,,,,,,,,
,,,,,,00082,2023-10-21_19h24.35.637,vbt_B1_day1,2022.2.4,Win32,60.08171113,,,,,,,,,,,,,,,,,,,0.387037065,0.037962949,1,0,0,2.8137,0,21,21,20,1,u,images/br_u.png,images/cb_u.png,,,,,,,,,,,,,,,,,,,,,,,,,
,,,,,,00082,2023-10-21_19h24.35.637,vbt_B1_day1,2022.2.4,Win32,60.08171113,,,,,,,,,,,,,,,,,,,0.387037065,0.037962949,1,0,0,0.3829,0,22,22,18,1,s,images/br_s.png,images/cb_s.png,,,,,,,,,,,,,,,,,,,,,,,,,
,,,,,,00082,2023-10-21_19h24.35.637,vbt_B1_day1,2022.2.4,Win32,60.08171113,,,,,,,,,,,,,,,,,,,0.437037009,0.116666653,1,0,0,2.1813,0,23,23,19,1,t,images/br_t.png,images/cb_t.png,,,,,,,,,,,,,,,,,,,,,,,,,
,,,,,,00082,2023-10-21_19h24.35.637,vbt_B1_day1,2022.2.4,Win32,60.08171113,,,,,,,,,,,,,,,,,,,0.437037009,0.116666653,1,0,0,3.0635,0,24,24,3,1,d,images/br_d.png,images/cb_d.png,,,,,,,,,,,,,,,,,,,,,,,,,
,,,,,,00082,2023-10-21_19h24.35.637,vbt_B1_day1,2022.2.4,Win32,60.08171113,,,,,,,,,,,,,,,,,,,0.437037009,0.116666653,1,0,0,2.4309,0,25,25,12,1,m,images/br_m.png,images/cb_m.png,,,,,,,,,,,,,,,,,,,,,,,,,
,,,,,,00082,2023-10-21_19h24.35.637,vbt_B1_day1,2022.2.4,Win32,60.08171113,,,,,,,,,,,,,,,,,,,0.437037009,0.116666653,1,0,0,2.4809,1,0,26,17,1,r,images/br_r.png,images/cb_r.png,,,,,,,,,,,,,,,,,,,,,,,,,
,,,,,,00082,2023-10-21_19h24.35.637,vbt_B1_day1,2022.2.4,Win32,60.08171113,,,,,,,,,,,,,,,,,,,0.437037009,0.116666653,1,0,0,1.7483,1,1,27,7,1,h,images/br_h.png,images/cb_h.png,,,,,,,,,,,,,,,,,,,,,,,,,
,,,,,,00082,2023-10-21_19h24.35.637,vbt_B1_day1,2022.2.4,Win32,60.08171113,,,,,,,,,,,,,,,,,,,0.249074088,0.176851838,1,0,0,0.8325,1,2,28,0,1,a,images/br_a.png,images/cb_a.png,,,,,,,,,,,,,,,,,,,,,,,,,
,,,,,,00082,2023-10-21_19h24.35.637,vbt_B1_day1,2022.2.4,Win32,60.08171113,,,,,,,,,,,,,,,,,,,0.249074088,0.176851838,1,0,0,0.1499,1,3,29,21,1,v,images/br_v.png,images/cb_v.png,,,,,,,,,,,,,,,,,,,,,,,,,
,,,,,,00082,2023-10-21_19h24.35.637,vbt_B1_day1,2022.2.4,Win32,60.08171113,,,,,,,,,,,,,,,,,,,0.249074088,0.176851838,1,0,0,0.4164,1,4,30,13,1,n,images/br_n.png,images/cb_n.png,,,,,,,,,,,,,,,,,,,,,,,,,
,,,,,,00082,2023-10-21_19h24.35.637,vbt_B1_day1,2022.2.4,Win32,60.08171113,,,,,,,,,,,,,,,,,,,0.249074088,0.176851838,1,0,0,2.1812,1,5,31,3,1,d,images/br_d.png,images/cb_d.png,,,,,,,,,,,,,,,,,,,,,,,,,
,,,,,,00082,2023-10-21_19h24.35.637,vbt_B1_day1,2022.2.4,Win32,60.08171113,,,,,,,,,,,,,,,,,,,0.249074088,0.176851838,1,0,0,3.0803,1,6,32,9,1,j,images/br_j.png,images/cb_j.png,,,,,,,,,,,,,,,,,,,,,,,,,
,,,,,,00082,2023-10-21_19h24.35.637,vbt_B1_day1,2022.2.4,Win32,60.08171113,,,,,,,,,,,,,,,,,,,0.249074088,0.176851838,1,0,0,2.2477,1,7,33,19,1,t,images/br_t.png,images/cb_t.png,,,,,,,,,,,,,,,,,,,,,,,,,
,,,,,,00082,2023-10-21_19h24.35.637,vbt_B1_day1,2022.2.4,Win32,60.08171113,,,,,,,,,,,,,,,,,,,0.249074088,0.176851838,1,0,0,0.6495,1,8,34,22,1,w,images/br_w.png,images/cb_w.png,,,,,,,,,,,,,,,,,,,,,,,,,
,,,,,,00082,2023-10-21_19h24.35.637,vbt_B1_day1,2022.2.4,Win32,60.08171113,,,,,,,,,,,,,,,,,,,0.316666638,0.067592586,1,0,0,2.6805,1,9,35,5,1,f,images/br_f.png,images/cb_f.png,,,,,,,,,,,,,,,,,,,,,,,,,
,,,,,,00082,2023-10-21_19h24.35.637,vbt_B1_day1,2022.2.4,Win32,60.08171113,,,,,,,,,,,,,,,,,,,0.344444416,0.01944443,1,0,0,1.1822,1,10,36,11,1,l,images/br_l.png,images/cb_l.png,,,,,,,,,,,,,,,,,,,,,,,,,
,,,,,,00082,2023-10-21_19h24.35.637,vbt_B1_day1,2022.2.4,Win32,60.08171113,,,,,,,,,,,,,,,,,,,0.223148134,0.191666674,1,0,0,2.0315,1,11,37,14,1,o,images/br_o.png,images/cb_o.png,,,,,,,,,,,,,,,,,,,,,,,,,
,,,,,,00082,2023-10-21_19h24.35.637,vbt_B1_day1,2022.2.4,Win32,60.08171113,,,,,,,,,,,,,,,,,,,0.223148134,0.191666674,1,0,0,0.0333,1,12,38,15,1,p,images/br_p.png,images/cb_p.png,,,,,,,,,,,,,,,,,,,,,,,,,
,,,,,,00082,2023-10-21_19h24.35.637,vbt_B1_day1,2022.2.4,Win32,60.08171113,,,,,,,,,,,,,,,,,,,0.223148134,0.191666674,1,0,0,2.0481,1,13,39,20,1,u,images/br_u.png,images/cb_u.png,,,,,,,,,,,,,,,,,,,,,,,,,
,,,,,,00082,2023-10-21_19h24.35.637,vbt_B1_day1,2022.2.4,Win32,60.08171113,,,,,,,,,,,,,,,,,,,0.365740741,0.152777778,1,0,0,1.7983,1,14,40,12,1,m,images/br_m.png,images/cb_m.png,,,,,,,,,,,,,,,,,,,,,,,,,
,,,,,,00082,2023-10-21_19h24.35.637,vbt_B1_day1,2022.2.4,Win32,60.08171113,,,,,,,,,,,,,,,,,,,0.365740741,0.152777778,1,0,0,3.0136,1,15,41,10,1,k,images/br_k.png,images/cb_k.png,,,,,,,,,,,,,,,,,,,,,,,,,
,,,,,,00082,2023-10-21_19h24.35.637,vbt_B1_day1,2022.2.4,Win32,60.08171113,,,,,,,,,,,,,,,,,,,0.349074046,0.125,1,0,0,1.8649,1,16,42,6,1,g,images/br_g.png,images/cb_g.png,,,,,,,,,,,,,,,,,,,,,,,,,
,,,,,,00082,2023-10-21_19h24.35.637,vbt_B1_day1,2022.2.4,Win32,60.08171113,,,,,,,,,,,,,,,,,,,0.349074046,0.125,1,0,0,1.3322,1,17,43,24,1,y,images/br_y.png,images/cb_y.png,,,,,,,,,,,,,,,,,,,,,,,,,
,,,,,,00082,2023-10-21_19h24.35.637,vbt_B1_day1,2022.2.4,Win32,60.08171113,,,,,,,,,,,,,,,,,,,0.349074046,0.125,1,0,0,0.1166,1,18,44,8,1,i,images/br_i.png,images/cb_i.png,,,,,,,,,,,,,,,,,,,,,,,,,
,,,,,,00082,2023-10-21_19h24.35.637,vbt_B1_day1,2022.2.4,Win32,60.08171113,,,,,,,,,,,,,,,,,,,0.356481481,0.096296275,1,0,0,1.7151,1,19,45,18,1,s,images/br_s.png,images/cb_s.png,,,,,,,,,,,,,,,,,,,,,,,,,
,,,,,,00082,2023-10-21_19h24.35.637,vbt_B1_day1,2022.2.4,Win32,60.08171113,,,,,,,,,,,,,,,,,,,0.265740783,0.048148155,1,0,0,0.5997,1,20,46,23,1,x,images/br_x.png,images/cb_x.png,,,,,,,,,,,,,,,,,,,,,,,,,
,,,,,,00082,2023-10-21_19h24.35.637,vbt_B1_day1,2022.2.4,Win32,60.08171113,,,,,,,,,,,,,,,,,,,0.268518519,0.077777757,1,0,0,0.9493,1,21,47,2,1,c,images/br_c.png,images/cb_c.png,,,,,,,,,,,,,,,,,,,,,,,,,
,,,,,,00082,2023-10-21_19h24.35.637,vbt_B1_day1,2022.2.4,Win32,60.08171113,,,,,,,,,,,,,,,,,,,0.268518519,0.077777757,1,0,0,0.8655,1,22,48,16,1,q,images/br_q.png,images/cb_q.png,,,,,,,,,,,,,,,,,,,,,,,,,
,,,,,,00082,2023-10-21_19h24.35.637,vbt_B1_day1,2022.2.4,Win32,60.08171113,,,,,,,,,,,,,,,,,,,0.268518519,0.077777757,1,0,0,1.1822,1,23,49,25,1,z,images/br_z.png,images/cb_z.png,,,,,,,,,,,,,,,,,,,,,,,,,
,,,,,,00082,2023-10-21_19h24.35.637,vbt_B1_day1,2022.2.4,Win32,60.08171113,,,,,,,,,,,,,,,,,,,0.268518519,0.077777757,1,0,0,2.5308,1,24,50,4,1,e,images/br_e.png,images/cb_e.png,,,,,,,,,,,,,,,,,,,,,,,,,
,,,,,,00082,2023-10-21_19h24.35.637,vbt_B1_day1,2022.2.4,Win32,60.08171113,,,,,,,,,,,,,,,,,,,0.262037065,0.017592571,1,0,0,2.6141,1,25,51,1,1,b,images/br_b.png,images/cb_b.png,,,,,,,,,,,,,,,,,,,,,,,,,
,,,,,,00082,2023-10-21_19h24.35.637,vbt_B1_day1,2022.2.4,Win32,60.08171113,,,,,,,,,,,,,,,,,,,0.286111125,0.12037037,1,0,0,0.8492,2,0,52,17,1,r,images/br_r.png,images/cb_r.png,,,,,,,,,,,,,,,,,,,,,,,,,
,,,,,,00082,2023-10-21_19h24.35.637,vbt_B1_day1,2022.2.4,Win32,60.08171113,,,,,,,,,,,,,,,,,,,0.15370369,0.077777757,1,0,0,1.1822,2,1,53,5,1,f,images/br_f.png,images/cb_f.png,,,,,,,,,,,,,,,,,,,,,,,,,
,,,,,,00082,2023-10-21_19h24.35.637,vbt_B1_day1,2022.2.4,Win32,60.08171113,,,,,,,,,,,,,,,,,,,0.15370369,0.077777757,1,0,0,2.481,2,2,54,3,1,d,images/br_d.png,images/cb_d.png,,,,,,,,,,,,,,,,,,,,,,,,,
,,,,,,00082,2023-10-21_19h24.35.637,vbt_B1_day1,2022.2.4,Win32,60.08171113,,,,,,,,,,,,,,,,,,,0.15370369,0.077777757,1,0,0,1.5984,2,3,55,2,1,c,images/br_c.png,images/cb_c.png,,,,,,,,,,,,,,,,,,,,,,,,,
,,,,,,00082,2023-10-21_19h24.35.637,vbt_B1_day1,2022.2.4,Win32,60.08171113,,,,,,,,,,,,,,,,,,,0.212037051,0.218518522,1,0,0,1.182,2,4,56,12,1,m,images/br_m.png,images/cb_m.png,,,,,,,,,,,,,,,,,,,,,,,,,
,,,,,,00082,2023-10-21_19h24.35.637,vbt_B1_day1,2022.2.4,Win32,60.08171113,,,,,,,,,,,,,,,,,,,0.268518519,0.177777785,1,0,0,1.4318,2,5,57,10,1,k,images/br_k.png,images/cb_k.png,,,,,,,,,,,,,,,,,,,,,,,,,
,,,,,,00082,2023-10-21_19h24.35.637,vbt_B1_day1,2022.2.4,Win32,60.08171113,,,,,,,,,,,,,,,,,,,0.268518519,0.177777785,1,0,0,4.046,2,6,58,7,1,h,images/br_h.png,images/cb_h.png,,,,,,,,,,,,,,,,,,,,,,,,,
,,,,,,00082,2023-10-21_19h24.35.637,vbt_B1_day1,2022.2.4,Win32,60.08171113,,,,,,,,,,,,,,,,,,,0.268518519,0.177777785,1,0,0,0.5661,2,7,59,24,1,y,images/br_y.png,images/cb_y.png,,,,,,,,,,,,,,,,,,,,,,,,,
,,,,,,00082,2023-10-21_19h24.35.637,vbt_B1_day1,2022.2.4,Win32,60.08171113,,,,,,,,,,,,,,,,,,,0.268518519,0.177777785,1,0,0,8.0421,2,8,60,25,1,z,images/br_z.png,images/cb_z.png,,,,,,,,,,,,,,,,,,,,,,,,,
,,,,,,00082,2023-10-21_19h24.35.637,vbt_B1_day1,2022.2.4,Win32,60.08171113,,,,,,,,,,,,,,,,,,,0.268518519,0.177777785,1,0,0,0.2499,2,9,61,4,1,e,images/br_e.png,images/cb_e.png,,,,,,,,,,,,,,,,,,,,,,,,,
,,,,,,00082,2023-10-21_19h24.35.637,vbt_B1_day1,2022.2.4,Win32,60.08171113,,,,,,,,,,,,,,,,,,,0.268518519,0.177777785,1,0,0,1.5985,2,10,62,14,1,o,images/br_o.png,images/cb_o.png,,,,,,,,,,,,,,,,,,,,,,,,,
,,,,,,00082,2023-10-21_19h24.35.637,vbt_B1_day1,2022.2.4,Win32,60.08171113,,,,,,,,,,,,,,,,,,,0.268518519,0.177777785,1,0,0,0.0669,2,11,63,6,1,g,images/br_g.png,images/cb_g.png,,,,,,,,,,,,,,,,,,,,,,,,,
,,,,,,00082,2023-10-21_19h24.35.637,vbt_B1_day1,2022.2.4,Win32,60.08171113,,,,,,,,,,,,,,,,,,,0.268518519,0.177777785,1,0,0,2.7139,2,12,64,21,1,v,images/br_v.png,images/cb_v.png,,,,,,,,,,,,,,,,,,,,,,,,,
,,,,,,00082,2023-10-21_19h24.35.637,vbt_B1_day1,2022.2.4,Win32,60.08171113,,,,,,,,,,,,,,,,,,,0.268518519,0.177777785,1,0,0,2.1979,2,13,65,13,1,n,images/br_n.png,images/cb_n.png,,,,,,,,,,,,,,,,,,,,,,,,,
,,,,,,00082,2023-10-21_19h24.35.637,vbt_B1_day1,2022.2.4,Win32,60.08171113,,,,,,,,,,,,,,,,,,,0.268518519,0.177777785,1,0,0,0.4496,2,14,66,8,1,i,images/br_i.png,images/cb_i.png,,,,,,,,,,,,,,,,,,,,,,,,,
,,,,,,00082,2023-10-21_19h24.35.637,vbt_B1_day1,2022.2.4,Win32,60.08171113,,,,,,,,,,,,,,,,,,,0.268518519,0.177777785,1,0,0,0.1664,2,15,67,16,1,q,images/br_q.png,images/cb_q.png,,,,,,,,,,,,,,,,,,,,,,,,,
,,,,,,00082,2023-10-21_19h24.35.637,vbt_B1_day1,2022.2.4,Win32,60.08171113,,,,,,,,,,,,,,,,,,,0.268518519,0.177777785,1,0,0,1.149,2,16,68,18,1,s,images/br_s.png,images/cb_s.png,,,,,,,,,,,,,,,,,,,,,,,,,
,,,,,,00082,2023-10-21_19h24.35.637,vbt_B1_day1,2022.2.4,Win32,60.08171113,,,,,,,,,,,,,,,,,,,0.268518519,0.177777785,1,0,0,0.1665,2,17,69,0,1,a,images/br_a.png,images/cb_a.png,,,,,,,,,,,,,,,,,,,,,,,,,
,,,,,,00082,2023-10-21_19h24.35.637,vbt_B1_day1,2022.2.4,Win32,60.08171113,,,,,,,,,,,,,,,,,,,0.268518519,0.177777785,1,0,0,1.2653,2,18,70,1,1,b,images/br_b.png,images/cb_b.png,,,,,,,,,,,,,,,,,,,,,,,,,
,,,,,,00082,2023-10-21_19h24.35.637,vbt_B1_day1,2022.2.4,Win32,60.08171113,,,,,,,,,,,,,,,,,,,0.268518519,0.177777785,1,0,0,2.5807,2,19,71,20,1,u,images/br_u.png,images/cb_u.png,,,,,,,,,,,,,,,,,,,,,,,,,
,,,,,,00082,2023-10-21_19h24.35.637,vbt_B1_day1,2022.2.4,Win32,60.08171113,,,,,,,,,,,,,,,,,,,0.268518519,0.177777785,1,0,0,0.9325,2,20,72,15,1,p,images/br_p.png,images/cb_p.png,,,,,,,,,,,,,,,,,,,,,,,,,
,,,,,,00082,2023-10-21_19h24.35.637,vbt_B1_day1,2022.2.4,Win32,60.08171113,,,,,,,,,,,,,,,,,,,0.268518519,0.177777785,1,0,0,0.7826,2,21,73,11,1,l,images/br_l.png,images/cb_l.png,,,,,,,,,,,,,,,,,,,,,,,,,
,,,,,,00082,2023-10-21_19h24.35.637,vbt_B1_day1,2022.2.4,Win32,60.08171113,,,,,,,,,,,,,,,,,,,0.268518519,0.177777785,1,0,0,0.8663,2,22,74,23,1,x,images/br_x.png,images/cb_x.png,,,,,,,,,,,,,,,,,,,,,,,,,
,,,,,,00082,2023-10-21_19h24.35.637,vbt_B1_day1,2022.2.4,Win32,60.08171113,,,,,,,,,,,,,,,,,,,0.268518519,0.177777785,1,0,0,5.0783,2,23,75,22,1,w,images/br_w.png,images/cb_w.png,,,,,,,,,,,,,,,,,,,,,,,,,
,,,,,,00082,2023-10-21_19h24.35.637,vbt_B1_day1,2022.2.4,Win32,60.08171113,,,,,,,,,,,,,,,,,,,0.268518519,0.177777785,1,0,0,6.9768,2,24,76,19,1,t,images/br_t.png,images/cb_t.png,,,,,,,,,,,,,,,,,,,,,,,,,
,,,,,,00082,2023-10-21_19h24.35.637,vbt_B1_day1,2022.2.4,Win32,60.08171113,,,,,,,,,,,,,,,,,,,0.268518519,0.177777785,1,0,0,1.8317,2,25,77,9,1,j,images/br_j.png,images/cb_j.png,,,,,,,,,,,,,,,,,,,,,,,,,
,,,,,,00082,2023-10-21_19h24.35.637,vbt_B1_day1,2022.2.4,Win32,60.08171113,,,,,,,,,,,,,,,,,,,0.268518519,0.177777785,1,0,0,0.0332,3,0,78,22,1,w,images/br_w.png,images/cb_w.png,,,,,,,,,,,,,,,,,,,,,,,,,
,,,,,,00082,2023-10-21_19h24.35.637,vbt_B1_day1,2022.2.4,Win32,60.08171113,,,,,,,,,,,,,,,,,,,0.268518519,0.177777785,1,0,0,0.6161,3,1,79,24,1,y,images/br_y.png,images/cb_y.png,,,,,,,,,,,,,,,,,,,,,,,,,
,,,,,,00082,2023-10-21_19h24.35.637,vbt_B1_day1,2022.2.4,Win32,60.08171113,,,,,,,,,,,,,,,,,,,0.268518519,0.177777785,1,0,0,2.8304,3,2,80,17,1,r,images/br_r.png,images/cb_r.png,,,,,,,,,,,,,,,,,,,,,,,,,
,,,,,,00082,2023-10-21_19h24.35.637,vbt_B1_day1,2022.2.4,Win32,60.08171113,,,,,,,,,,,,,,,,,,,0.268518519,0.177777785,1,0,0,0.2336,3,3,81,21,1,v,images/br_v.png,images/cb_v.png,,,,,,,,,,,,,,,,,,,,,,,,,
,,,,,,00082,2023-10-21_19h24.35.637,vbt_B1_day1,2022.2.4,Win32,60.08171113,,,,,,,,,,,,,,,,,,,0.268518519,0.177777785,1,0,0,1.1323,3,4,82,12,1,m,images/br_m.png,images/cb_m.png,,,,,,,,,,,,,,,,,,,,,,,,,
,,,,,,00082,2023-10-21_19h24.35.637,vbt_B1_day1,2022.2.4,Win32,60.08171113,,,,,,,,,,,,,,,,,,,0.300000085,0.083333333,1,0,0,1.6484,3,5,83,10,1,k,images/br_k.png,images/cb_k.png,,,,,,,,,,,,,,,,,,,,,,,,,
,,,,,,00082,2023-10-21_19h24.35.637,vbt_B1_day1,2022.2.4,Win32,60.08171113,,,,,,,,,,,,,,,,,,,0.323148233,0.126851859,1,0,0,1.3985,3,6,84,14,1,o,images/br_o.png,images/cb_o.png,,,,,,,,,,,,,,,,,,,,,,,,,
,,,,,,00082,2023-10-21_19h24.35.637,vbt_B1_day1,2022.2.4,Win32,60.08171113,,,,,,,,,,,,,,,,,,,0.323148233,0.126851859,1,0,0,8.8411,3,7,85,3,1,d,images/br_d.png,images/cb_d.png,,,,,,,,,,,,,,,,,,,,,,,,,
,,,,,,00082,2023-10-21_19h24.35.637,vbt_B1_day1,2022.2.4,Win32,60.08171113,,,,,,,,,,,,,,,,,,,0.323148233,0.126851859,1,0,0,3.4135,3,8,86,2,1,c,images/br_c.png,images/cb_c.png,,,,,,,,,,,,,,,,,,,,,,,,,
,,,,,,00082,2023-10-21_19h24.35.637,vbt_B1_day1,2022.2.4,Win32,60.08171113,,,,,,,,,,,,,,,,,,,0.323148233,0.126851859,1,0,0,0.6661,3,9,87,9,1,j,images/br_j.png,images/cb_j.png,,,,,,,,,,,,,,,,,,,,,,,,,
,,,,,,00082,2023-10-21_19h24.35.637,vbt_B1_day1,2022.2.4,Win32,60.08171113,,,,,,,,,,,,,,,,,,,0.396296325,0.166666667,1,0,0,1.5485,3,10,88,19,1,t,images/br_t.png,images/cb_t.png,,,,,,,,,,,,,,,,,,,,,,,,,
,,,,,,00082,2023-10-21_19h24.35.637,vbt_B1_day1,2022.2.4,Win32,60.08171113,,,,,,,,,,,,,,,,,,,0.396296325,0.166666667,1,0,0,0.0498,3,11,89,8,1,i,images/br_i.png,images/cb_i.png,,,,,,,,,,,,,,,,,,,,,,,,,
,,,,,,00082,2023-10-21_19h24.35.637,vbt_B1_day1,2022.2.4,Win32,60.08171113,,,,,,,,,,,,,,,,,,,0.241666653,0.26666666,1,0,0,0.6493,3,12,90,15,1,p,images/br_p.png,images/cb_p.png,,,,,,,,,,,,,,,,,,,,,,,,,
,,,,,,00082,2023-10-21_19h24.35.637,vbt_B1_day1,2022.2.4,Win32,60.08171113,,,,,,,,,,,,,,,,,,,0.319444444,0.243518511,1,0,0,1.4984,3,13,91,11,1,l,images/br_l.png,images/cb_l.png,,,,,,,,,,,,,,,,,,,,,,,,,
,,,,,,00082,2023-10-21_19h24.35.637,vbt_B1_day1,2022.2.4,Win32,60.08171113,,,,,,,,,,,,,,,,,,,0.319444444,0.243518511,1,0,0,0.6827,3,14,92,5,1,f,images/br_f.png,images/cb_f.png,,,,,,,,,,,,,,,,,,,,,,,,,
,,,,,,00082,2023-10-21_19h24.35.637,vbt_B1_day1,2022.2.4,Win32,60.08171113,,,,,,,,,,,,,,,,,,,0.319444444,0.243518511,1,0,0,3.8629,3,15,93,13,1,n,images/br_n.png,images/cb_n.png,,,,,,,,,,,,,,,,,,,,,,,,,
,,,,,,00082,2023-10-21_19h24.35.637,vbt_B1_day1,2022.2.4,Win32,60.08171113,,,,,,,,,,,,,,,,,,,0.415740826,0.2574074,1,0,0,0.3161,3,16,94,0,1,a,images/br_a.png,images/cb_a.png,,,,,,,,,,,,,,,,,,,,,,,,,
,,,,,,00082,2023-10-21_19h24.35.637,vbt_B1_day1,2022.2.4,Win32,60.08171113,,,,,,,,,,,,,,,,,,,0.286111125,0.208333333,1,0,0,1.0656,3,17,95,23,1,x,images/br_x.png,images/cb_x.png,,,,,,,,,,,,,,,,,,,,,,,,,
,,,,,,00082,2023-10-21_19h24.35.637,vbt_B1_day1,2022.2.4,Win32,60.08171113,,,,,,,,,,,,,,,,,,,0.433333362,0.223148152,1,0,0,0.5154,3,18,96,4,1,e,images/br_e.png,images/cb_e.png,,,,,,,,,,,,,,,,,,,,,,,,,
,,,,,,00082,2023-10-21_19h24.35.637,vbt_B1_day1,2022.2.4,Win32,60.08171113,,,,,,,,,,,,,,,,,,,0.433333362,0.223148152,1,0,0,0.9158,3,19,97,16,1,q,images/br_q.png,images/cb_q.png,,,,,,,,,,,,,,,,,,,,,,,,,
,,,,,,00082,2023-10-21_19h24.35.637,vbt_B1_day1,2022.2.4,Win32,60.08171113,,,,,,,,,,,,,,,,,,,0.433333362,0.223148152,1,0,0,4.1958,3,20,98,7,1,h,images/br_h.png,images/cb_h.png,,,,,,,,,,,,,,,,,,,,,,,,,
,,,,,,00082,2023-10-21_19h24.35.637,vbt_B1_day1,2022.2.4,Win32,60.08171113,,,,,,,,,,,,,,,,,,,0.433333362,0.223148152,1,0,0,3.1801,3,21,99,20,1,u,images/br_u.png,images/cb_u.png,,,,,,,,,,,,,,,,,,,,,,,,,
,,,,,,00082,2023-10-21_19h24.35.637,vbt_B1_day1,2022.2.4,Win32,60.08171113,,,,,,,,,,,,,,,,,,,0.433333362,0.223148152,1,0,0,0.9157,3,22,100,1,1,b,images/br_b.png,images/cb_b.png,,,,,,,,,,,,,,,,,,,,,,,,,
,,,,,,00082,2023-10-21_19h24.35.637,vbt_B1_day1,2022.2.4,Win32,60.08171113,,,,,,,,,,,,,,,,,,,0.433333362,0.223148152,1,0,0,3.7962,3,23,101,6,1,g,images/br_g.png,images/cb_g.png,,,,,,,,,,,,,,,,,,,,,,,,,
,,,,,,00082,2023-10-21_19h24.35.637,vbt_B1_day1,2022.2.4,Win32,60.08171113,,,,,,,,,,,,,,,,,,,0.474074046,0.25,1,0,0,1.3988,3,24,102,18,1,s,images/br_s.png,images/cb_s.png,,,,,,,,,,,,,,,,,,,,,,,,,
,,,,,,00082,2023-10-21_19h24.35.637,vbt_B1_day1,2022.2.4,Win32,60.08171113,,,,,,,,,,,,,,,,,,,0.474074046,0.25,1,0,0,1.3153,3,25,103,25,1,z,images/br_z.png,images/cb_z.png,,,,,,,,,,,,,,,,,,,,,,,,,
,,,,,,00082,2023-10-21_19h24.35.637,vbt_B1_day1,2022.2.4,Win32,60.08171113,,,,,,,,,,,,,,,,,,,0.474074046,0.25,1,0,0,0.1332,4,0,104,12,1,m,images/br_m.png,images/cb_m.png,,,,,,,,,,,,,,,,,,,,,,,,,
,,,,,,00082,2023-10-21_19h24.35.637,vbt_B1_day1,2022.2.4,Win32,60.08171113,,,,,,,,,,,,,,,,,,,0.481481481,0.310185185,1,0,0,0.5325,4,1,105,16,1,q,images/br_q.png,images/cb_q.png,,,,,,,,,,,,,,,,,,,,,,,,,
,,,,,,00082,2023-10-21_19h24.35.637,vbt_B1_day1,2022.2.4,Win32,60.08171113,,,,,,,,,,,,,,,,,,,0.399999972,0.311111115,1,0,0,1.2155,4,2,106,25,1,z,images/br_z.png,images/cb_z.png,,,,,,,,,,,,,,,,,,,,,,,,,
,,,,,,00082,2023-10-21_19h24.35.637,vbt_B1_day1,2022.2.4,Win32,60.08171113,,,,,,,,,,,,,,,,,,,0.531481566,0.208333333,1,0,0,0.3829,4,3,107,11,1,l,images/br_l.png,images/cb_l.png,,,,,,,,,,,,,,,,,,,,,,,,,
,,,,,,00082,2023-10-21_19h24.35.637,vbt_B1_day1,2022.2.4,Win32,60.08171113,,,,,,,,,,,,,,,,,,,0.481481481,0.201851845,1,0,0,1.1487,4,4,108,21,1,v,images/br_v.png,images/cb_v.png,,,,,,,,,,,,,,,,,,,,,,,,,
,,,,,,00082,2023-10-21_19h24.35.637,vbt_B1_day1,2022.2.4,Win32,60.08171113,,,,,,,,,,,,,,,,,,,0.399999972,0.155555548,1,0,0,0.4664,4,5,109,24,1,y,images/br_y.png,images/cb_y.png,,,,,,,,,,,,,,,,,,,,,,,,,
,,,,,,00082,2023-10-21_19h24.35.637,vbt_B1_day1,2022.2.4,Win32,60.08171113,,,,,,,,,,,,,,,,,,,0.412963019,0.183333326,1,0,0,0.5993,4,6,110,4,1,e,images/br_e.png,images/cb_e.png,,,,,,,,,,,,,,,,,,,,,,,,,
,,,,,,00082,2023-10-21_19h24.35.637,vbt_B1_day1,2022.2.4,Win32,60.08171113,,,,,,,,,,,,,,,,,,,0.37037037,0.171296296,1,0,0,0.5495,4,7,111,1,1,b,images/br_b.png,images/cb_b.png,,,,,,,,,,,,,,,,,,,,,,,,,
,,,,,,00082,2023-10-21_19h24.35.637,vbt_B1_day1,2022.2.4,Win32,60.08171113,,,,,,,,,,,,,,,,,,,0.304629714,0.128703683,1,0,0,0.2831,4,8,112,23,1,x,images/br_x.png,images/cb_x.png,,,,,,,,,,,,,,,,,,,,,,,,,
,,,,,,00082,2023-10-21_19h24.35.637,vbt_B1_day1,2022.2.4,Win32,60.08171113,,,,,,,,,,,,,,,,,,,0.304629714,0.128703683,1,0,0,2.9638,4,9,113,13,1,n,images/br_n.png,images/cb_n.png,,,,,,,,,,,,,,,,,,,,,,,,,
,,,,,,00082,2023-10-21_19h24.35.637,vbt_B1_day1,2022.2.4,Win32,60.08171113,,,,,,,,,,,,,,,,,,,0.337037122,0.211111104,1,0,0,0.8156,4,10,114,8,1,i,images/br_i.png,images/cb_i.png,,,,,,,,,,,,,,,,,,,,,,,,,
,,,,,,00082,2023-10-21_19h24.35.637,vbt_B1_day1,2022.2.4,Win32,60.08171113,,,,,,,,,,,,,,,,,,,0.337037122,0.247222212,1,0,0,0.7493,4,11,115,19,1,t,images/br_t.png,images/cb_t.png,,,,,,,,,,,,,,,,,,,,,,,,,
,,,,,,00082,2023-10-21_19h24.35.637,vbt_B1_day1,2022.2.4,Win32,60.08171113,,,,,,,,,,,,,,,,,,,0.337037122,0.247222212,1,0,0,15.4016,4,12,116,22,1,w,images/br_w.png,images/cb_w.png,,,,,,,,,,,,,,,,,,,,,,,,,
,,,,,,00082,2023-10-21_19h24.35.637,vbt_B1_day1,2022.2.4,Win32,60.08171113,,,,,,,,,,,,,,,,,,,0.412963019,0.24166667,1,0,0,2.2305,4,13,117,7,1,h,images/br_h.png,images/cb_h.png,,,,,,,,,,,,,,,,,,,,,,,,,
,,,,,,00082,2023-10-21_19h24.35.637,vbt_B1_day1,2022.2.4,Win32,60.08171113,,,,,,,,,,,,,,,,,,,0.412963019,0.24166667,1,0,0,0.4996,4,14,118,6,1,g,images/br_g.png,images/cb_g.png,,,,,,,,,,,,,,,,,,,,,,,,,
,,,,,,00082,2023-10-21_19h24.35.637,vbt_B1_day1,2022.2.4,Win32,60.08171113,,,,,,,,,,,,,,,,,,,0.412963019,0.24166667,1,0,0,3.1136,4,15,119,5,1,f,images/br_f.png,images/cb_f.png,,,,,,,,,,,,,,,,,,,,,,,,,
,,,,,,00082,2023-10-21_19h24.35.637,vbt_B1_day1,2022.2.4,Win32,60.08171113,,,,,,,,,,,,,,,,,,,0.482407464,0.277777778,1,0,0,0.4995,4,16,120,14,1,o,images/br_o.png,images/cb_o.png,,,,,,,,,,,,,,,,,,,,,,,,,
,,,,,,00082,2023-10-21_19h24.35.637,vbt_B1_day1,2022.2.4,Win32,60.08171113,,,,,,,,,,,,,,,,,,,0.397222307,0.291666667,1,0,0,6.0941,4,17,121,10,1,k,images/br_k.png,images/cb_k.png,,,,,,,,,,,,,,,,,,,,,,,,,
,,,,,,00082,2023-10-21_19h24.35.637,vbt_B1_day1,2022.2.4,Win32,60.08171113,,,,,,,,,,,,,,,,,,,0.514814871,0.333333333,1,0,0,0.7658,4,18,122,15,1,p,images/br_p.png,images/cb_p.png,,,,,,,,,,,,,,,,,,,,,,,,,
,,,,,,00082,2023-10-21_19h24.35.637,vbt_B1_day1,2022.2.4,Win32,60.08171113,,,,,,,,,,,,,,,,,,,0.514814871,0.333333333,1,0,0,1.4486,4,19,123,18,1,s,images/br_s.png,images/cb_s.png,,,,,,,,,,,,,,,,,,,,,,,,,
,,,,,,00082,2023-10-21_19h24.35.637,vbt_B1_day1,2022.2.4,Win32,60.08171113,,,,,,,,,,,,,,,,,,,0.514814871,0.333333333,1,0,0,0.1997,4,20,124,3,1,d,images/br_d.png,images/cb_d.png,,,,,,,,,,,,,,,,,,,,,,,,,
,,,,,,00082,2023-10-21_19h24.35.637,vbt_B1_day1,2022.2.4,Win32,60.08171113,,,,,,,,,,,,,,,,,,,0.514814871,0.333333333,1,0,0,0.4827,4,21,125,20,1,u,images/br_u.png,images/cb_u.png,,,,,,,,,,,,,,,,,,,,,,,,,
,,,,,,00082,2023-10-21_19h24.35.637,vbt_B1_day1,2022.2.4,Win32,60.08171113,,,,,,,,,,,,,,,,,,,0.591666751,0.37685185,1,0,0,0.1998,4,22,126,2,1,c,images/br_c.png,images/cb_c.png,,,,,,,,,,,,,,,,,,,,,,,,,
,,,,,,00082,2023-10-21_19h24.35.637,vbt_B1_day1,2022.2.4,Win32,60.08171113,,,,,,,,,,,,,,,,,,,0.591666751,0.37685185,1,0,0,11.5552,4,23,127,9,1,j,images/br_j.png,images/cb_j.png,,,,,,,,,,,,,,,,,,,,,,,,,
,,,,,,00082,2023-10-21_19h24.35.637,vbt_B1_day1,2022.2.4,Win32,60.08171113,,,,,,,,,,,,,,,,,,,0.591666751,0.37685185,1,0,0,2.5147,4,24,128,17,1,r,images/br_r.png,images/cb_r.png,,,,,,,,,,,,,,,,,,,,,,,,,
,,,,,,00082,2023-10-21_19h24.35.637,vbt_B1_day1,2022.2.4,Win32,60.08171113,,,,,,,,,,,,,,,,,,,0.473148205,0.326851845,1,0,0,0.6072,4,25,129,0,1,a,images/br_a.png,images/cb_a.png,,,,,,,,,,,,,,,,,,,,,,,,,
,,,,,,00082,2023-10-21_19h24.35.637,vbt_B1_day1,2022.2.4,Win32,60.08171113,,,,,,,,,,,,,,,,,,,0.473148205,0.326851845,1,0,0,0.2832,5,0,130,24,1,y,images/br_y.png,images/cb_y.png,,,,,,,,,,,,,,,,,,,,,,,,,
,,,,,,00082,2023-10-21_19h24.35.637,vbt_B1_day1,2022.2.4,Win32,60.08171113,,,,,,,,,,,,,,,,,,,0.473148205,0.326851845,1,0,0,3.9631,5,1,131,19,1,t,images/br_t.png,images/cb_t.png,,,,,,,,,,,,,,,,,,,,,,,,,
,,,,,,00082,2023-10-21_19h24.35.637,vbt_B1_day1,2022.2.4,Win32,60.08171113,,,,,,,,,,,,,,,,,,,0.445370427,0.269444448,1,0,0,0.533,5,2,132,14,1,o,images/br_o.png,images/cb_o.png,,,,,,,,,,,,,,,,,,,,,,,,,
,,,,,,00082,2023-10-21_19h24.35.637,vbt_B1_day1,2022.2.4,Win32,60.08171113,,,,,,,,,,,,,,,,,,,0.445370427,0.269444448,1,0,0,1.2819,5,3,133,21,1,v,images/br_v.png,images/cb_v.png,,,,,,,,,,,,,,,,,,,,,,,,,
,,,,,,00082,2023-10-21_19h24.35.637,vbt_B1_day1,2022.2.4,Win32,60.08171113,,,,,,,,,,,,,,,,,,,0.337962963,0.205555545,1,0,0,0.1166,5,4,134,5,1,f,images/br_f.png,images/cb_f.png,,,,,,,,,,,,,,,,,,,,,,,,,
,,,,,,00082,2023-10-21_19h24.35.637,vbt_B1_day1,2022.2.4,Win32,60.08171113,,,,,,,,,,,,,,,,,,,0.337962963,0.205555545,1,0,0,5.2615,5,5,135,22,1,w,images/br_w.png,images/cb_w.png,,,,,,,,,,,,,,,,,,,,,,,,,
,,,,,,00082,2023-10-21_19h24.35.637,vbt_B1_day1,2022.2.4,Win32,60.08171113,,,,,,,,,,,,,,,,,,,0.363888917,0.291666667,1,0,0,0.4659,5,6,136,12,1,m,images/br_m.png,images/cb_m.png,,,,,,,,,,,,,,,,,,,,,,,,,
,,,,,,00082,2023-10-21_19h24.35.637,vbt_B1_day1,2022.2.4,Win32,60.08171113,,,,,,,,,,,,,,,,,,,0.398148148,0.341666663,1,0,0,0.6826,5,7,137,10,1,k,images/br_k.png,images/cb_k.png,,,,,,,,,,,,,,,,,,,,,,,,,
,,,,,,00082,2023-10-21_19h24.35.637,vbt_B1_day1,2022.2.4,Win32,60.08171113,,,,,,,,,,,,,,,,,,,0.410185213,0.448148149,1,0,0,1.5651,5,8,138,16,1,q,images/br_q.png,images/cb_q.png,,,,,,,,,,,,,,,,,,,,,,,,,
,,,,,,00082,2023-10-21_19h24.35.637,vbt_B1_day1,2022.2.4,Win32,60.08171113,,,,,,,,,,,,,,,,,,,0.385185242,0.196296303,1,0,0,0.8326,5,9,139,6,1,g,images/br_g.png,images/cb_g.png,,,,,,,,,,,,,,,,,,,,,,,,,
,,,,,,00082,2023-10-21_19h24.35.637,vbt_B1_day1,2022.2.4,Win32,60.08171113,,,,,,,,,,,,,,,,,,,0.437962991,0.2462963,1,0,0,0.4491,5,10,140,15,1,p,images/br_p.png,images/cb_p.png,,,,,,,,,,,,,,,,,,,,,,,,,
,,,,,,00082,2023-10-21_19h24.35.637,vbt_B1_day1,2022.2.4,Win32,60.08171113,,,,,,,,,,,,,,,,,,,0.419444473,0.1324074,1,0,0,0.2166,5,11,141,2,1,c,images/br_c.png,images/cb_c.png,,,,,,,,,,,,,,,,,,,,,,,,,
,,,,,,00082,2023-10-21_19h24.35.637,vbt_B1_day1,2022.2.4,Win32,60.08171113,,,,,,,,,,,,,,,,,,,0.448148233,0.174074067,1,0,0,0.3996,5,12,142,1,1,b,images/br_b.png,images/cb_b.png,,,,,,,,,,,,,,,,,,,,,,,,,
,,,,,,00082,2023-10-21_19h24.35.637,vbt_B1_day1,2022.2.4,Win32,60.08171113,,,,,,,,,,,,,,,,,,,0.466666751,0.2537037,1,0,0,0.1165,5,13,143,8,1,i,images/br_i.png,images/cb_i.png,,,,,,,,,,,,,,,,,,,,,,,,,
,,,,,,00082,2023-10-21_19h24.35.637,vbt_B1_day1,2022.2.4,Win32,60.08171113,,,,,,,,,,,,,,,,,,,0.453703704,0.292592596,1,0,0,1.4322,5,14,144,20,1,u,images/br_u.png,images/cb_u.png,,,,,,,,,,,,,,,,,,,,,,,,,
,,,,,,00082,2023-10-21_19h24.35.637,vbt_B1_day1,2022.2.4,Win32,60.08171113,,,,,,,,,,,,,,,,,,,0.441666638,0.25,1,0,0,0.2164,5,15,145,0,1,a,images/br_a.png,images/cb_a.png,,,,,,,,,,,,,,,,,,,,,,,,,
,,,,,,00082,2023-10-21_19h24.35.637,vbt_B1_day1,2022.2.4,Win32,60.08171113,,,,,,,,,,,,,,,,,,,0.346296381,0.226851852,1,0,0,0.5332,5,16,146,9,1,j,images/br_j.png,images/cb_j.png,,,,,,,,,,,,,,,,,,,,,,,,,
,,,,,,00082,2023-10-21_19h24.35.637,vbt_B1_day1,2022.2.4,Win32,60.08171113,,,,,,,,,,,,,,,,,,,0.346296381,0.226851852,1,0,0,0.8991,5,17,147,18,1,s,images/br_s.png,images/cb_s.png,,,,,,,,,,,,,,,,,,,,,,,,,
,,,,,,00082,2023-10-21_19h24.35.637,vbt_B1_day1,2022.2.4,Win32,60.08171113,,,,,,,,,,,,,,,,,,,0.438888974,0.209259263,1,0,0,0.333,5,18,148,17,1,r,images/br_r.png,images/cb_r.png,,,,,,,,,,,,,,,,,,,,,,,,,
,,,,,,00082,2023-10-21_19h24.35.637,vbt_B1_day1,2022.2.4,Win32,60.08171113,,,,,,,,,,,,,,,,,,,0.438888974,0.209259263,1,0,0,1.9313,5,19,149,25,1,z,images/br_z.png,images/cb_z.png,,,,,,,,,,,,,,,,,,,,,,,,,
,,,,,,00082,2023-10-21_19h24.35.637,vbt_B1_day1,2022.2.4,Win32,60.08171113,,,,,,,,,,,,,,,,,,,0.431481538,0.239814811,1,0,0,0.383,5,20,150,11,1,l,images/br_l.png,images/cb_l.png,,,,,,,,,,,,,,,,,,,,,,,,,
,,,,,,00082,2023-10-21_19h24.35.637,vbt_B1_day1,2022.2.4,Win32,60.08171113,,,,,,,,,,,,,,,,,,,0.431481538,0.239814811,1,0,0,13.0539,5,21,151,3,1,d,images/br_d.png,images/cb_d.png,,,,,,,,,,,,,,,,,,,,,,,,,
,,,,,,00082,2023-10-21_19h24.35.637,vbt_B1_day1,2022.2.4,Win32,60.08171113,,,,,,,,,,,,,,,,,,,0.337962963,0.316666656,1,0,0,0.4327,5,22,152,23,1,x,images/br_x.png,images/cb_x.png,,,,,,,,,,,,,,,,,,,,,,,,,
,,,,,,00082,2023-10-21_19h24.35.637,vbt_B1_day1,2022.2.4,Win32,60.08171113,,,,,,,,,,,,,,,,,,,0.371296353,0.395370369,1,0,0,13.286,5,23,153,7,1,h,images/br_h.png,images/cb_h.png,,,,,,,,,,,,,,,,,,,,,,,,,
,,,,,,00082,2023-10-21_19h24.35.637,vbt_B1_day1,2022.2.4,Win32,60.08171113,,,,,,,,,,,,,,,,,,,0.371296353,0.395370369,1,0,0,0.5661,5,24,154,13,1,n,images/br_n.png,images/cb_n.png,,,,,,,,,,,,,,,,,,,,,,,,,
,,,,,,00082,2023-10-21_19h24.35.637,vbt_B1_day1,2022.2.4,Win32,60.08171113,,,,,,,,,,,,,,,,,,,0.437037009,0.414814817,1,0,0,0.0288,5,25,155,4,1,e,images/br_e.png,images/cb_e.png,,,,,,,,,,,,,,,,,,,,,,,,,
,,,,,,00082,2023-10-21_19h24.35.637,vbt_B1_day1,2022.2.4,Win32,60.08171113,,,,,,,,,,,,,,,,,,,0.505555612,0.432407406,1,0,0,0.6328,6,0,156,17,1,r,images/br_r.png,images/cb_r.png,,,,,,,,,,,,,,,,,,,,,,,,,
,,,,,,00082,2023-10-21_19h24.35.637,vbt_B1_day1,2022.2.4,Win32,60.08171113,,,,,,,,,,,,,,,,,,,0.505555612,0.432407406,1,0,0,0.0999,6,1,157,13,1,n,images/br_n.png,images/cb_n.png,,,,,,,,,,,,,,,,,,,,,,,,,
,,,,,,00082,2023-10-21_19h24.35.637,vbt_B1_day1,2022.2.4,Win32,60.08171113,,,,,,,,,,,,,,,,,,,0.505555612,0.432407406,1,0,0,0.1998,6,2,158,14,1,o,images/br_o.png,images/cb_o.png,,,,,,,,,,,,,,,,,,,,,,,,,
,,,,,,00082,2023-10-21_19h24.35.637,vbt_B1_day1,2022.2.4,Win32,60.08171113,,,,,,,,,,,,,,,,,,,0.432407379,0.349999993,1,0,0,0.0165,6,3,159,0,1,a,images/br_a.png,images/cb_a.png,,,,,,,,,,,,,,,,,,,,,,,,,
,,,,,,00082,2023-10-21_19h24.35.637,vbt_B1_day1,2022.2.4,Win32,60.08171113,,,,,,,,,,,,,,,,,,,0.432407379,0.349999993,1,0,0,0.8491,6,4,160,11,1,l,images/br_l.png,images/cb_l.png,,,,,,,,,,,,,,,,,,,,,,,,,
,,,,,,00082,2023-10-21_19h24.35.637,vbt_B1_day1,2022.2.4,Win32,60.08171113,,,,,,,,,,,,,,,,,,,0.432407379,0.349999993,1,0,0,0.3994,6,5,161,16,1,q,images/br_q.png,images/cb_q.png,,,,,,,,,,,,,,,,,,,,,,,,,
,,,,,,00082,2023-10-21_19h24.35.637,vbt_B1_day1,2022.2.4,Win32,60.08171113,,,,,,,,,,,,,,,,,,,0.478703675,0.319444444,1,0,0,0.9162,6,6,162,1,1,b,images/br_b.png,images/cb_b.png,,,,,,,,,,,,,,,,,,,,,,,,,
,,,,,,00082,2023-10-21_19h24.35.637,vbt_B1_day1,2022.2.4,Win32,60.08171113,,,,,,,,,,,,,,,,,,,0.48518527,0.356481481,1,0,0,0.1332,6,7,163,2,1,c,images/br_c.png,images/cb_c.png,,,,,,,,,,,,,,,,,,,,,,,,,
,,,,,,00082,2023-10-21_19h24.35.637,vbt_B1_day1,2022.2.4,Win32,60.08171113,,,,,,,,,,,,,,,,,,,0.354629658,0.269444448,1,0,0,0.849,6,8,164,8,1,i,images/br_i.png,images/cb_i.png,,,,,,,,,,,,,,,,,,,,,,,,,
,,,,,,00082,2023-10-21_19h24.35.637,vbt_B1_day1,2022.2.4,Win32,60.08171113,,,,,,,,,,,,,,,,,,,0.354629658,0.269444448,1,0,0,0.4663,6,9,165,24,1,y,images/br_y.png,images/cb_y.png,,,,,,,,,,,,,,,,,,,,,,,,,
,,,,,,00082,2023-10-21_19h24.35.637,vbt_B1_day1,2022.2.4,Win32,60.08171113,,,,,,,,,,,,,,,,,,,0.354629658,0.269444448,1,0,0,0.6827,6,10,166,10,1,k,images/br_k.png,images/cb_k.png,,,,,,,,,,,,,,,,,,,,,,,,,
,,,,,,00082,2023-10-21_19h24.35.637,vbt_B1_day1,2022.2.4,Win32,60.08171113,,,,,,,,,,,,,,,,,,,0.430555556,0.320370374,1,0,0,0.666,6,11,167,23,1,x,images/br_x.png,images/cb_x.png,,,,,,,,,,,,,,,,,,,,,,,,,
,,,,,,00082,2023-10-21_19h24.35.637,vbt_B1_day1,2022.2.4,Win32,60.08171113,,,,,,,,,,,,,,,,,,,0.466666751,0.228703693,1,0,0,0.5331,6,12,168,20,1,u,images/br_u.png,images/cb_u.png,,,,,,,,,,,,,,,,,,,,,,,,,
,,,,,,00082,2023-10-21_19h24.35.637,vbt_B1_day1,2022.2.4,Win32,60.08171113,,,,,,,,,,,,,,,,,,,0.512963048,0.237037041,1,0,0,0.2665,6,13,169,6,1,g,images/br_g.png,images/cb_g.png,,,,,,,,,,,,,,,,,,,,,,,,,
,,,,,,00082,2023-10-21_19h24.35.637,vbt_B1_day1,2022.2.4,Win32,60.08171113,,,,,,,,,,,,,,,,,,,0.512963048,0.237037041,1,0,0,1.6983,6,14,170,15,1,p,images/br_p.png,images/cb_p.png,,,,,,,,,,,,,,,,,,,,,,,,,
,,,,,,00082,2023-10-21_19h24.35.637,vbt_B1_day1,2022.2.4,Win32,60.08171113,,,,,,,,,,,,,,,,,,,0.512963048,0.237037041,1,0,0,0.5328,6,15,171,9,1,j,images/br_j.png,images/cb_j.png,,,,,,,,,,,,,,,,,,,,,,,,,
,,,,,,00082,2023-10-21_19h24.35.637,vbt_B1_day1,2022.2.4,Win32,60.08171113,,,,,,,,,,,,,,,,,,,0.363888917,0.145370377,1,0,0,0.7323,6,16,172,3,1,d,images/br_d.png,images/cb_d.png,,,,,,,,,,,,,,,,,,,,,,,,,
,,,,,,00082,2023-10-21_19h24.35.637,vbt_B1_day1,2022.2.4,Win32,60.08171113,,,,,,,,,,,,,,,,,,,0.363888917,0.145370377,1,0,0,1.6317,6,17,173,22,1,w,images/br_w.png,images/cb_w.png,,,,,,,,,,,,,,,,,,,,,,,,,
,,,,,,00082,2023-10-21_19h24.35.637,vbt_B1_day1,2022.2.4,Win32,60.08171113,,,,,,,,,,,,,,,,,,,0.363888917,0.145370377,1,0,0,0.2997,6,18,174,7,1,h,images/br_h.png,images/cb_h.png,,,,,,,,,,,,,,,,,,,,,,,,,
,,,,,,00082,2023-10-21_19h24.35.637,vbt_B1_day1,2022.2.4,Win32,60.08171113,,,,,,,,,,,,,,,,,,,0.29814812,0.236111111,1,0,0,0.716,6,19,175,21,1,v,images/br_v.png,images/cb_v.png,,,,,,,,,,,,,,,,,,,,,,,,,
,,,,,,00082,2023-10-21_19h24.35.637,vbt_B1_day1,2022.2.4,Win32,60.08171113,,,,,,,,,,,,,,,,,,,0.29814812,0.236111111,1,0,0,11.1889,6,20,176,12,1,m,images/br_m.png,images/cb_m.png,,,,,,,,,,,,,,,,,,,,,,,,,
,,,,,,00082,2023-10-21_19h24.35.637,vbt_B1_day1,2022.2.4,Win32,60.08171113,,,,,,,,,,,,,,,,,,,0.448148233,0.174074067,1,0,0,0.8326,6,21,177,18,1,s,images/br_s.png,images/cb_s.png,,,,,,,,,,,,,,,,,,,,,,,,,
,,,,,,00082,2023-10-21_19h24.35.637,vbt_B1_day1,2022.2.4,Win32,60.08171113,,,,,,,,,,,,,,,,,,,0.337962963,0.15648146,1,0,0,0.7491,6,22,178,4,1,e,images/br_e.png,images/cb_e.png,,,,,,,,,,,,,,,,,,,,,,,,,
,,,,,,00082,2023-10-21_19h24.35.637,vbt_B1_day1,2022.2.4,Win32,60.08171113,,,,,,,,,,,,,,,,,,,0.37037037,0.115740741,1,0,0,0.8157,6,23,179,25,1,z,images/br_z.png,images/cb_z.png,,,,,,,,,,,,,,,,,,,,,,,,,
,,,,,,00082,2023-10-21_19h24.35.637,vbt_B1_day1,2022.2.4,Win32,60.08171113,,,,,,,,,,,,,,,,,,,0.374074159,0.163888896,1,0,0,0.4995,6,24,180,19,1,t,images/br_t.png,images/cb_t.png,,,,,,,,,,,,,,,,,,,,,,,,,
,,,,,,00082,2023-10-21_19h24.35.637,vbt_B1_day1,2022.2.4,Win32,60.08171113,,,,,,,,,,,,,,,,,,,0.372222194,0.163888896,1,0,0,2.8305,6,25,181,5,1,f,images/br_f.png,images/cb_f.png,,,,,,,,,,,,,,,,,,,,,,,,,
,,,,,,00082,2023-10-21_19h24.35.637,vbt_B1_day1,2022.2.4,Win32,60.08171113,,,,,,,,,,,,,,,,,,,,,,,,,,,,,,,,,0.376851824,0.026851831,1,0,0,,,,,,,,,,,,,,,,,,,,
,,,,,,00082,2023-10-21_19h24.35.637,vbt_B1_day1,2022.2.4,Win32,60.08171113,,,,,,,,,,,,,,,,,,,,,,,,,,,,,,,,,,,,,,0.376851824,0.026851831,1,0,0,,,,,,,,,,,,,,,
,,,,,,00082,2023-10-21_19h24.35.637,vbt_B1_day1,2022.2.4,Win32,60.08171113,,,,,,,,,,,,,,,,,,,,,,,,,,,,,,,,,,,,,,,,,,,0.324074074,-0.000925947,1,0,0,.ta..e,.ta..e,0,0,0,31,1,stamen,images/br_stamen.png,images/cb_stamen.png
,,,,,,00082,2023-10-21_19h24.35.637,vbt_B1_day1,2022.2.4,Win32,60.08171113,,,,,,,,,,,,,,,,,,,,,,,,,,,,,,,,,,,,,,,,,,,0.324074074,-0.000925947,1,0,0,kle..i.,kle..i.,0,1,1,12,1,klimmen,images/br_klimmen.png,images/cb_klimmen.png
,,,,,,00082,2023-10-21_19h24.35.637,vbt_B1_day1,2022.2.4,Win32,60.08171113,,,,,,,,,,,,,,,,,,,,,,,,,,,,,,,,,,,,,,,,,,,0.324074074,-0.000925947,1,0,0,leiger,leiger,0,2,2,50,1,liegen,images/br_liegen.png,images/cb_liegen.png
,,,,,,00082,2023-10-21_19h24.35.637,vbt_B1_day1,2022.2.4,Win32,60.08171113,,,,,,,,,,,,,,,,,,,,,,,,,,,,,,,,,,,,,,,,,,,0.345370399,-0.003703718,1,0,0,reedj.,reedj.,0,3,3,30,1,reedje,images/br_reedje.png,images/cb_reedje.png
,,,,,,00082,2023-10-21_19h24.35.637,vbt_B1_day1,2022.2.4,Win32,60.08171113,,,,,,,,,,,,,,,,,,,,,,,,,,,,,,,,,,,,,,,,,,,0.345370399,-0.003703718,1,0,0,..t..e..,..t..e..,0,4,4,18,1,uitdelen,images/br_uitdelen.png,images/cb_uitdelen.png
,,,,,,00082,2023-10-21_19h24.35.637,vbt_B1_day1,2022.2.4,Win32,60.08171113,,,,,,,,,,,,,,,,,,,,,,,,,,,,,,,,,,,,,,,,,,,0.345370399,-0.003703718,1,0,0,.ce..p,.ce..p,0,5,5,4,1,schep,images/br_schep.png,images/cb_schep.png
,,,,,,00082,2023-10-21_19h24.35.637,vbt_B1_day1,2022.2.4,Win32,60.08171113,,,,,,,,,,,,,,,,,,,,,,,,,,,,,,,,,,,,,,,,,,,0.402777778,0.010185171,1,0,0,dief,dief,0,6,6,40,1,dief,images/br_dief.png,images/cb_dief.png
,,,,,,00082,2023-10-21_19h24.35.637,vbt_B1_day1,2022.2.4,Win32,60.08171113,,,,,,,,,,,,,,,,,,,,,,,,,,,,,,,,,,,,,,,,,,,0.33148151,0.025000007,1,0,0,fictie,fictie,0,7,7,48,1,fictie,images/br_fictie.png,images/cb_fictie.png
,,,,,,00082,2023-10-21_19h24.35.637,vbt_B1_day1,2022.2.4,Win32,60.08171113,,,,,,,,,,,,,,,,,,,,,,,,,,,,,,,,,,,,,,,,,,,0.33148151,0.025000007,1,0,0,jaar,jaar,0,8,8,2,1,jaar,images/br_jaar.png,images/cb_jaar.png
,,,,,,00082,2023-10-21_19h24.35.637,vbt_B1_day1,2022.2.4,Win32,60.08171113,,,,,,,,,,,,,,,,,,,,,,,,,,,,,,,,,,,,,,,,,,,0.347222222,0.015740748,1,0,0,genon.,genon.,0,9,9,29,1,genond,images/br_genond.png,images/cb_genond.png
,,,,,,00082,2023-10-21_19h24.35.637,vbt_B1_day1,2022.2.4,Win32,60.08171113,,,,,,,,,,,,,,,,,,,,,,,,,,,,,,,,,,,,,,,,,,,0.347222222,0.015740748,1,0,0,noore..,noore..,0,10,10,39,1,voorreur,images/br_voorreur.png,images/cb_voorreur.png
,,,,,,00082,2023-10-21_19h24.35.637,vbt_B1_day1,2022.2.4,Win32,60.08171113,,,,,,,,,,,,,,,,,,,,,,,,,,,,,,,,,,,,,,,,,,,0.347222222,0.015740748,1,0,0,opslaan,opslaan,0,11,11,53,1,opslaan,images/br_opslaan.png,images/cb_opslaan.png
,,,,,,00082,2023-10-21_19h24.35.637,vbt_B1_day1,2022.2.4,Win32,60.08171113,,,,,,,,,,,,,,,,,,,,,,,,,,,,,,,,,,,,,,,,,,,0.347222222,0.015740748,1,0,0,lewe.,lewe.,0,12,12,46,1,lezen,images/br_lezen.png,images/cb_lezen.png
,,,,,,00082,2023-10-21_19h24.35.637,vbt_B1_day1,2022.2.4,Win32,60.08171113,,,,,,,,,,,,,,,,,,,,,,,,,,,,,,,,,,,,,,,,,,,0.012962977,-0.203703704,1,0,0,tweifel,tweifel,0,13,13,13,1,twijfel,images/br_twijfel.png,images/cb_twijfel.png
,,,,,,00082,2023-10-21_19h24.35.637,vbt_B1_day1,2022.2.4,Win32,60.08171113,,,,,,,,,,,,,,,,,,,,,,,,,,,,,,,,,,,,,,,,,,,0.183333362,-0.043518526,1,0,0,bleek,bleek,0,14,14,6,1,bleek,images/br_bleek.png,images/cb_bleek.png
,,,,,,00082,2023-10-21_19h24.35.637,vbt_B1_day1,2022.2.4,Win32,60.08171113,,,,,,,,,,,,,,,,,,,,,,,,,,,,,,,,,,,,,,,,,,,0.239814829,-0.006481489,1,0,0,slak,slak,0,15,15,0,1,slak,images/br_slak.png,images/cb_slak.png
,,,,,,00082,2023-10-21_19h24.35.637,vbt_B1_day1,2022.2.4,Win32,60.08171113,,,,,,,,,,,,,,,,,,,,,,,,,,,,,,,,,,,,,,,,,,,0.242592635,-0.0074074,1,0,0,val op,val op,0,16,16,26,1,valop,images/br_valop.png,images/cb_valop.png
,,,,,,00082,2023-10-21_19h24.35.637,vbt_B1_day1,2022.2.4,Win32,60.08171113,,,,,,,,,,,,,,,,,,,,,,,,,,,,,,,,,,,,,,,,,,,0.318518603,-0.028703725,1,0,0,kaarv..,kaarv..,0,17,17,14,1,waarvan,images/br_waarvan.png,images/cb_waarvan.png
,,,,,,00082,2023-10-21_19h24.35.637,vbt_B1_day1,2022.2.4,Win32,60.08171113,,,,,,,,,,,,,,,,,,,,,,,,,,,,,,,,,,,,,,,,,,,0.318518603,-0.028703725,1,0,0,kanjer,kanjer,0,18,18,8,1,kanjer,images/br_kanjer.png,images/cb_kanjer.png
,,,,,,00082,2023-10-21_19h24.35.637,vbt_B1_day1,2022.2.4,Win32,60.08171113,,,,,,,,,,,,,,,,,,,,,,,,,,,,,,,,,,,,,,,,,,,0.318518603,-0.028703725,1,0,0,daarnet,daarnet,0,19,19,16,1,daarheen,images/br_daarheen.png,images/cb_daarheen.png
,,,,,,00082,2023-10-21_19h24.35.637,vbt_B1_day1,2022.2.4,Win32,60.08171113,,,,,,,,,,,,,,,,,,,,,,,,,,,,,,,,,,,,,,,,,,,0.318518603,-0.028703725,1,0,0,zaal,zaal,0,20,20,1,1,zaal,images/br_zaal.png,images/cb_zaal.png
,,,,,,00082,2023-10-21_19h24.35.637,vbt_B1_day1,2022.2.4,Win32,60.08171113,,,,,,,,,,,,,,,,,,,,,,,,,,,,,,,,,,,,,,,,,,,0.318518603,-0.028703725,1,0,0,.a......,.a......,0,21,21,37,1,spanzing,images/br_spanzing.png,images/cb_spanzing.png
,,,,,,00082,2023-10-21_19h24.35.637,vbt_B1_day1,2022.2.4,Win32,60.08171113,,,,,,,,,,,,,,,,,,,,,,,,,,,,,,,,,,,,,,,,,,,0.318518603,-0.028703725,1,0,0,loods,loods,0,22,22,47,1,loods,images/br_loods.png,images/cb_loods.png
,,,,,,00082,2023-10-21_19h24.35.637,vbt_B1_day1,2022.2.4,Win32,60.08171113,,,,,,,,,,,,,,,,,,,,,,,,,,,,,,,,,,,,,,,,,,,0.402777778,0.025000007,1,0,0,tars,tars,0,23,23,20,1,tars,images/br_tars.png,images/cb_tars.png
,,,,,,00082,2023-10-21_19h24.35.637,vbt_B1_day1,2022.2.4,Win32,60.08171113,,,,,,,,,,,,,,,,,,,,,,,,,,,,,,,,,,,,,,,,,,,0.402777778,0.025000007,1,0,0,opplaan,opplaan,0,24,24,32,1,opplaan,images/br_opplaan.png,images/cb_opplaan.png
,,,,,,00082,2023-10-21_19h24.35.637,vbt_B1_day1,2022.2.4,Win32,60.08171113,,,,,,,,,,,,,,,,,,,,,,,,,,,,,,,,,,,,,,,,,,,0.415740826,0.109259252,1,0,0,lava,lava,0,25,25,43,1,lava,images/br_lava.png,images/cb_lava.png
,,,,,,00082,2023-10-21_19h24.35.637,vbt_B1_day1,2022.2.4,Win32,60.08171113,,,,,,,,,,,,,,,,,,,,,,,,,,,,,,,,,,,,,,,,,,,0.415740826,0.109259252,1,0,0,....ie.,....ie.,0,26,26,10,1,muziek,images/br_muziek.png,images/cb_muziek.png
,,,,,,00082,2023-10-21_19h24.35.637,vbt_B1_day1,2022.2.4,Win32,60.08171113,,,,,,,,,,,,,,,,,,,,,,,,,,,,,,,,,,,,,,,,,,,0.415740826,0.109259252,1,0,0,razer,razer,0,27,27,24,1,rezer,images/br_rezer.png,images/cb_rezer.png
,,,,,,00082,2023-10-21_19h24.35.637,vbt_B1_day1,2022.2.4,Win32,60.08171113,,,,,,,,,,,,,,,,,,,,,,,,,,,,,,,,,,,,,,,,,,,0.415740826,0.109259252,1,0,0,.cj...,.cj...,0,28,28,38,1,schielen,images/br_schielen.png,images/cb_schielen.png
,,,,,,00082,2023-10-21_19h24.35.637,vbt_B1_day1,2022.2.4,Win32,60.08171113,,,,,,,,,,,,,,,,,,,,,,,,,,,,,,,,,,,,,,,,,,,0.415740826,0.109259252,1,0,0,k.....,k.....,0,29,29,7,1,klauw,images/br_klauw.png,images/cb_klauw.png
,,,,,,00082,2023-10-21_19h24.35.637,vbt_B1_day1,2022.2.4,Win32,60.08171113,,,,,,,,,,,,,,,,,,,,,,,,,,,,,,,,,,,,,,,,,,,0.413888861,0.101851852,1,0,0,dierv..,dierv..,0,30,30,15,1,hiervan,images/br_hiervan.png,images/cb_hiervan.png
,,,,,,00082,2023-10-21_19h24.35.637,vbt_B1_day1,2022.2.4,Win32,60.08171113,,,,,,,,,,,,,,,,,,,,,,,,,,,,,,,,,,,,,,,,,,,0.413888861,0.101851852,1,0,0,brad.,brad.,0,31,31,25,1,brijk,images/br_brijk.png,images/cb_brijk.png
,,,,,,00082,2023-10-21_19h24.35.637,vbt_B1_day1,2022.2.4,Win32,60.08171113,,,,,,,,,,,,,,,,,,,,,,,,,,,,,,,,,,,,,,,,,,,0.413888861,0.101851852,1,0,0,.ee..e.,.ee..e.,0,32,32,57,1,meenemen,images/br_meenemen.png,images/cb_meenemen.png
,,,,,,00082,2023-10-21_19h24.35.637,vbt_B1_day1,2022.2.4,Win32,60.08171113,,,,,,,,,,,,,,,,,,,,,,,,,,,,,,,,,,,,,,,,,,,0.413888861,0.101851852,1,0,0,opvatten,opvatten,0,33,33,59,1,opvatten,images/br_opvatten.png,images/cb_opvatten.png
,,,,,,00082,2023-10-21_19h24.35.637,vbt_B1_day1,2022.2.4,Win32,60.08171113,,,,,,,,,,,,,,,,,,,,,,,,,,,,,,,,,,,,,,,,,,,0.413888861,0.100925905,1,0,0,locht..,locht..,0,34,34,34,1,lochten,images/br_lochten.png,images/cb_lochten.png
,,,,,,00082,2023-10-21_19h24.35.637,vbt_B1_day1,2022.2.4,Win32,60.08171113,,,,,,,,,,,,,,,,,,,,,,,,,,,,,,,,,,,,,,,,,,,0.413888861,0.100925905,1,0,0,qi..e,qi..e,0,35,35,44,1,wijze,images/br_wijze.png,images/cb_wijze.png
,,,,,,00082,2023-10-21_19h24.35.637,vbt_B1_day1,2022.2.4,Win32,60.08171113,,,,,,,,,,,,,,,,,,,,,,,,,,,,,,,,,,,,,,,,,,,0.425925926,0.107407393,1,0,0,bebrep,bebrep,0,36,36,28,1,bebrip,images/br_bebrip.png,images/cb_bebrip.png
,,,,,,00082,2023-10-21_19h24.35.637,vbt_B1_day1,2022.2.4,Win32,60.08171113,,,,,,,,,,,,,,,,,,,,,,,,,,,,,,,,,,,,,,,,,,,0.425925926,0.107407393,1,0,0,.l.l.l.,.l.l.l.,0,37,37,33,1,flullen,images/br_flullen.png,images/cb_flullen.png
,,,,,,00082,2023-10-21_19h24.35.637,vbt_B1_day1,2022.2.4,Win32,60.08171113,,,,,,,,,,,,,,,,,,,,,,,,,,,,,,,,,,,,,,,,,,,0.425925926,0.107407393,1,0,0,tenenen,tenenen,0,38,38,55,1,tekenen,images/br_tekenen.png,images/cb_tekenen.png
,,,,,,00082,2023-10-21_19h24.35.637,vbt_B1_day1,2022.2.4,Win32,60.08171113,,,,,,,,,,,,,,,,,,,,,,,,,,,,,,,,,,,,,,,,,,,0.420370455,0.123148141,1,0,0,booi,booi,0,39,39,23,1,booi,images/br_booi.png,images/cb_booi.png
,,,,,,00082,2023-10-21_19h24.35.637,vbt_B1_day1,2022.2.4,Win32,60.08171113,,,,,,,,,,,,,,,,,,,,,,,,,,,,,,,,,,,,,,,,,,,0.420370455,0.127777771,1,0,0,dred,dred,0,40,40,21,1,dred,images/br_dred.png,images/cb_dred.png
,,,,,,00082,2023-10-21_19h24.35.637,vbt_B1_day1,2022.2.4,Win32,60.08171113,,,,,,,,,,,,,,,,,,,,,,,,,,,,,,,,,,,,,,,,,,,0.415740826,0.134259259,1,0,0,ste.k..,ste.k..,0,41,41,35,1,stuikem,images/br_stuikem.png,images/cb_stuikem.png
,,,,,,00082,2023-10-21_19h24.35.637,vbt_B1_day1,2022.2.4,Win32,60.08171113,,,,,,,,,,,,,,,,,,,,,,,,,,,,,,,,,,,,,,,,,,,0.415740826,0.134259259,1,0,0,z...l..,z...l..,0,42,42,52,1,zuiplap,images/br_zuiplap.png,images/cb_zuiplap.png
,,,,,,00082,2023-10-21_19h24.35.637,vbt_B1_day1,2022.2.4,Win32,60.08171113,,,,,,,,,,,,,,,,,,,,,,,,,,,,,,,,,,,,,,,,,,,0.472222222,0.13703703,1,0,0,hoog,hoog,0,43,43,41,1,hoog,images/br_hoog.png,images/cb_hoog.png
,,,,,,00082,2023-10-21_19h24.35.637,vbt_B1_day1,2022.2.4,Win32,60.08171113,,,,,,,,,,,,,,,,,,,,,,,,,,,,,,,,,,,,,,,,,,,0.472222222,0.134259259,1,0,0,vej...,vej...,0,44,44,54,1,vijftig,images/br_vijftig.png,images/cb_vijftig.png
,,,,,,00082,2023-10-21_19h24.35.637,vbt_B1_day1,2022.2.4,Win32,60.08171113,,,,,,,,,,,,,,,,,,,,,,,,,,,,,,,,,,,,,,,,,,,0.472222222,0.134259259,1,0,0,vizie.,vizie.,0,45,45,49,1,vizier,images/br_vizier.png,images/cb_vizier.png
,,,,,,00082,2023-10-21_19h24.35.637,vbt_B1_day1,2022.2.4,Win32,60.08171113,,,,,,,,,,,,,,,,,,,,,,,,,,,,,,,,,,,,,,,,,,,0.472222222,0.134259259,1,0,0,.n...n.,.n...n.,0,46,46,11,1,mening,images/br_mening.png,images/cb_mening.png
,,,,,,00082,2023-10-21_19h24.35.637,vbt_B1_day1,2022.2.4,Win32,60.08171113,,,,,,,,,,,,,,,,,,,,,,,,,,,,,,,,,,,,,,,,,,,0.472222222,0.134259259,1,0,0,dubbe.,dubbe.,0,47,47,9,1,dubbel,images/br_dubbel.png,images/cb_dubbel.png
,,,,,,00082,2023-10-21_19h24.35.637,vbt_B1_day1,2022.2.4,Win32,60.08171113,,,,,,,,,,,,,,,,,,,,,,,,,,,,,,,,,,,,,,,,,,,0.515740712,0.122222229,1,0,0,knoe,knoe,0,48,48,22,1,knoe,images/br_knoe.png,images/cb_knoe.png
,,,,,,00082,2023-10-21_19h24.35.637,vbt_B1_day1,2022.2.4,Win32,60.08171113,,,,,,,,,,,,,,,,,,,,,,,,,,,,,,,,,,,,,,,,,,,0.516666695,0.119444423,1,0,0,voorke...,voorke...,0,49,49,58,1,voorkeur,images/br_voorkeur.png,images/cb_voorkeur.png
,,,,,,00082,2023-10-21_19h24.35.637,vbt_B1_day1,2022.2.4,Win32,60.08171113,,,,,,,,,,,,,,,,,,,,,,,,,,,,,,,,,,,,,,,,,,,0.516666695,0.119444423,1,0,0,attentie,attentie,0,50,50,17,1,attentie,images/br_attentie.png,images/cb_attentie.png
,,,,,,00082,2023-10-21_19h24.35.637,vbt_B1_day1,2022.2.4,Win32,60.08171113,,,,,,,,,,,,,,,,,,,,,,,,,,,,,,,,,,,,,,,,,,,0.516666695,0.119444423,1,0,0,verve...,verve...,0,51,51,36,1,vervaden,images/br_vervaden.png,images/cb_vervaden.png
,,,,,,00082,2023-10-21_19h24.35.637,vbt_B1_day1,2022.2.4,Win32,60.08171113,,,,,,,,,,,,,,,,,,,,,,,,,,,,,,,,,,,,,,,,,,,0.516666695,0.119444423,1,0,0,h....,h....,0,52,52,45,1,hemel,images/br_hemel.png,images/cb_hemel.png
,,,,,,00082,2023-10-21_19h24.35.637,vbt_B1_day1,2022.2.4,Win32,60.08171113,,,,,,,,,,,,,,,,,,,,,,,,,,,,,,,,,,,,,,,,,,,0.514814871,0.121296282,1,0,0,liefde,liefde,0,53,53,51,1,liefde,images/br_liefde.png,images/cb_liefde.png
,,,,,,00082,2023-10-21_19h24.35.637,vbt_B1_day1,2022.2.4,Win32,60.08171113,,,,,,,,,,,,,,,,,,,,,,,,,,,,,,,,,,,,,,,,,,,0.514814871,0.121296282,1,0,0,prorot,prorot,0,54,54,27,1,prort,images/br_prort.png,images/cb_prort.png
,,,,,,00082,2023-10-21_19h24.35.637,vbt_B1_day1,2022.2.4,Win32,60.08171113,,,,,,,,,,,,,,,,,,,,,,,,,,,,,,,,,,,,,,,,,,,0.463888945,0.097222222,1,0,0,mand,mand,0,55,55,3,1,mand,images/br_mand.png,images/cb_mand.png
,,,,,,00082,2023-10-21_19h24.35.637,vbt_B1_day1,2022.2.4,Win32,60.08171113,,,,,,,,,,,,,,,,,,,,,,,,,,,,,,,,,,,,,,,,,,,0.463888945,0.097222222,1,0,0,toe.....,toe.....,0,56,56,56,1,toezicht,images/br_toezicht.png,images/cb_toezicht.png
,,,,,,00082,2023-10-21_19h24.35.637,vbt_B1_day1,2022.2.4,Win32,60.08171113,,,,,,,,,,,,,,,,,,,,,,,,,,,,,,,,,,,,,,,,,,,0.463888945,0.097222222,1,0,0,sce..i..e.,sce..i..e.,0,57,57,19,1,schuilen,images/br_schuilen.png,images/cb_schuilen.png
,,,,,,00082,2023-10-21_19h24.35.637,vbt_B1_day1,2022.2.4,Win32,60.08171113,,,,,,,,,,,,,,,,,,,,,,,,,,,,,,,,,,,,,,,,,,,0.420370455,0.047222208,1,0,0,ntuk,ntuk,0,58,58,42,1,stuk,images/br_stuk.png,images/cb_stuk.png
,,,,,,00082,2023-10-21_19h24.35.637,vbt_B1_day1,2022.2.4,Win32,60.08171113,,,,,,,,,,,,,,,,,,,,,,,,,,,,,,,,,,,,,,,,,,,0.420370455,0.047222208,1,0,0,maken,maken,0,59,59,5,1,maken,images/br_maken.png,images/cb_maken.png
,,,,,,00082,2023-10-21_19h24.35.637,vbt_B1_day1,2022.2.4,Win32,60.08171113,,,,,,,,,,,,,,,,,,,,,,,,,,,,,,,,,,,,,,,,,,,,,,,,,,,,,,,,,
