welcome_mouse.x,welcome_mouse.y,welcome_mouse.leftButton,welcome_mouse.midButton,welcome_mouse.rightButton,welcome_mouse.time,"ID",date,expName,psychopyVersion,OS,frameRate,mouse_2.x,mouse_2.y,mouse_2.leftButton,mouse_2.midButton,mouse_2.rightButton,mouse_2.time,mouse_3.x,mouse_3.y,mouse_3.leftButton,mouse_3.midButton,mouse_3.rightButton,mouse_3.time,train_mouse.x,train_mouse.y,train_mouse.leftButton,train_mouse.midButton,train_mouse.rightButton,train_mouse.time,braille_mouse.x,braille_mouse.y,braille_mouse.leftButton,braille_mouse.midButton,braille_mouse.rightButton,braille_mouse.time,trials.thisRepN,trials.thisTrialN,trials.thisN,trials.thisIndex,trials.ran,nlLet,brLet,cbLet,mouse.x,mouse.y,mouse.leftButton,mouse.midButton,mouse.rightButton,testInstr_mouse.x,testInstr_mouse.y,testInstr_mouse.leftButton,testInstr_mouse.midButton,testInstr_mouse.rightButton,test_mouse.x,test_mouse.y,test_mouse.leftButton,test_mouse.midButton,test_mouse.rightButton,test_response.text,testResp,test_loop.thisRepN,test_loop.thisTrialN,test_loop.thisN,test_loop.thisIndex,test_loop.ran,nlWrd,brWrd,cbWrd
-0.002777735,-0.036111125,1,0,0,20.7981,00080,2023-10-24_08h32.08.331,vbt_B1_day1,2022.2.4,Win32,59.95203837,,,,,,,,,,,,,,,,,,,,,,,,,,,,,,,,,,,,,,,,,,,,,,,,,,,,,,,,,
,,,,,,00080,2023-10-24_08h32.08.331,vbt_B1_day1,2022.2.4,Win32,59.95203837,-0.011111083,-0.264814801,1,0,0,16.7251,,,,,,,,,,,,,,,,,,,,,,,,,,,,,,,,,,,,,,,,,,,,,,,,,,,
,,,,,,00080,2023-10-24_08h32.08.331,vbt_B1_day1,2022.2.4,Win32,59.95203837,,,,,,,0.330555527,0.11296297,1,0,0,93.8483,,,,,,,,,,,,,,,,,,,,,,,,,,,,,,,,,,,,,,,,,,,,,
,,,,,,00080,2023-10-24_08h32.08.331,vbt_B1_day1,2022.2.4,Win32,59.95203837,,,,,,,,,,,,,0.273148148,0.147222201,1,0,0,21.6282,,,,,,,,,,,,,,,,,,,,,,,,,,,,,,,,,,,,,,,
,,,,,,00080,2023-10-24_08h32.08.331,vbt_B1_day1,2022.2.4,Win32,59.95203837,,,,,,,,,,,,,,,,,,,0.392592677,0.168518526,1,0,0,14.9222,0,0,0,20,1,u,images/br_u.png,images/cb_u.png,,,,,,,,,,,,,,,,,,,,,,,,,
,,,,,,00080,2023-10-24_08h32.08.331,vbt_B1_day1,2022.2.4,Win32,59.95203837,,,,,,,,,,,,,,,,,,,0.394444501,0.16574072,1,0,0,30.9059,0,1,1,21,1,v,images/br_v.png,images/cb_v.png,,,,,,,,,,,,,,,,,,,,,,,,,
,,,,,,00080,2023-10-24_08h32.08.331,vbt_B1_day1,2022.2.4,Win32,59.95203837,,,,,,,,,,,,,,,,,,,0.415740826,0.155555548,1,0,0,5.9646,0,2,2,11,1,l,images/br_l.png,images/cb_l.png,,,,,,,,,,,,,,,,,,,,,,,,,
,,,,,,00080,2023-10-24_08h32.08.331,vbt_B1_day1,2022.2.4,Win32,59.95203837,,,,,,,,,,,,,,,,,,,0.415740826,0.155555548,1,0,0,9.9964,0,3,3,7,1,h,images/br_h.png,images/cb_h.png,,,,,,,,,,,,,,,,,,,,,,,,,
,,,,,,00080,2023-10-24_08h32.08.331,vbt_B1_day1,2022.2.4,Win32,59.95203837,,,,,,,,,,,,,,,,,,,0.396296325,0.16111109,1,0,0,24.5916,0,4,4,15,1,p,images/br_p.png,images/cb_p.png,,,,,,,,,,,,,,,,,,,,,,,,,
,,,,,,00080,2023-10-24_08h32.08.331,vbt_B1_day1,2022.2.4,Win32,59.95203837,,,,,,,,,,,,,,,,,,,0.137962977,-0.12962963,1,0,0,52.0324,0,5,5,12,1,m,images/br_m.png,images/cb_m.png,,,,,,,,,,,,,,,,,,,,,,,,,
,,,,,,00080,2023-10-24_08h32.08.331,vbt_B1_day1,2022.2.4,Win32,59.95203837,,,,,,,,,,,,,,,,,,,0.15370369,-0.148148148,1,0,0,17.8504,0,6,6,5,1,f,images/br_f.png,images/cb_f.png,,,,,,,,,,,,,,,,,,,,,,,,,
,,,,,,00080,2023-10-24_08h32.08.331,vbt_B1_day1,2022.2.4,Win32,59.95203837,,,,,,,,,,,,,,,,,,,0.226851852,-0.08425928,1,0,0,10.1795,0,7,7,22,1,w,images/br_w.png,images/cb_w.png,,,,,,,,,,,,,,,,,,,,,,,,,
,,,,,,00080,2023-10-24_08h32.08.331,vbt_B1_day1,2022.2.4,Win32,59.95203837,,,,,,,,,,,,,,,,,,,0.226851852,-0.08425928,1,0,0,12.1958,0,8,8,1,1,b,images/br_b.png,images/cb_b.png,,,,,,,,,,,,,,,,,,,,,,,,,
,,,,,,00080,2023-10-24_08h32.08.331,vbt_B1_day1,2022.2.4,Win32,59.95203837,,,,,,,,,,,,,,,,,,,0.226851852,-0.08425928,1,0,0,13.1287,0,9,9,25,1,z,images/br_z.png,images/cb_z.png,,,,,,,,,,,,,,,,,,,,,,,,,
,,,,,,00080,2023-10-24_08h32.08.331,vbt_B1_day1,2022.2.4,Win32,59.95203837,,,,,,,,,,,,,,,,,,,0.226851852,-0.08425928,1,0,0,13.8119,0,10,10,17,1,r,images/br_r.png,images/cb_r.png,,,,,,,,,,,,,,,,,,,,,,,,,
,,,,,,00080,2023-10-24_08h32.08.331,vbt_B1_day1,2022.2.4,Win32,59.95203837,,,,,,,,,,,,,,,,,,,0.226851852,-0.08425928,1,0,0,12.5127,0,11,11,8,1,i,images/br_i.png,images/cb_i.png,,,,,,,,,,,,,,,,,,,,,,,,,
,,,,,,00080,2023-10-24_08h32.08.331,vbt_B1_day1,2022.2.4,Win32,59.95203837,,,,,,,,,,,,,,,,,,,0.184259273,-0.116666653,1,0,0,24.6248,0,12,12,0,1,a,images/br_a.png,images/cb_a.png,,,,,,,,,,,,,,,,,,,,,,,,,
,,,,,,00080,2023-10-24_08h32.08.331,vbt_B1_day1,2022.2.4,Win32,59.95203837,,,,,,,,,,,,,,,,,,,0.178703732,-0.09629631,1,0,0,14.5784,0,13,13,19,1,t,images/br_t.png,images/cb_t.png,,,,,,,,,,,,,,,,,,,,,,,,,
,,,,,,00080,2023-10-24_08h32.08.331,vbt_B1_day1,2022.2.4,Win32,59.95203837,,,,,,,,,,,,,,,,,,,0.179629644,-0.095370399,1,0,0,11.6525,0,14,14,18,1,s,images/br_s.png,images/cb_s.png,,,,,,,,,,,,,,,,,,,,,,,,,
,,,,,,00080,2023-10-24_08h32.08.331,vbt_B1_day1,2022.2.4,Win32,59.95203837,,,,,,,,,,,,,,,,,,,0.180555556,-0.095370399,1,0,0,11.8627,0,15,15,14,1,o,images/br_o.png,images/cb_o.png,,,,,,,,,,,,,,,,,,,,,,,,,
,,,,,,00080,2023-10-24_08h32.08.331,vbt_B1_day1,2022.2.4,Win32,59.95203837,,,,,,,,,,,,,,,,,,,0.180555556,-0.095370399,1,0,0,4.8818,0,16,16,13,1,n,images/br_n.png,images/cb_n.png,,,,,,,,,,,,,,,,,,,,,,,,,
,,,,,,00080,2023-10-24_08h32.08.331,vbt_B1_day1,2022.2.4,Win32,59.95203837,,,,,,,,,,,,,,,,,,,0.180555556,-0.095370399,1,0,0,15.0718,0,17,17,23,1,x,images/br_x.png,images/cb_x.png,,,,,,,,,,,,,,,,,,,,,,,,,
,,,,,,00080,2023-10-24_08h32.08.331,vbt_B1_day1,2022.2.4,Win32,59.95203837,,,,,,,,,,,,,,,,,,,0.180555556,-0.095370399,1,0,0,8.0636,0,18,18,3,1,d,images/br_d.png,images/cb_d.png,,,,,,,,,,,,,,,,,,,,,,,,,
,,,,,,00080,2023-10-24_08h32.08.331,vbt_B1_day1,2022.2.4,Win32,59.95203837,,,,,,,,,,,,,,,,,,,0.180555556,-0.095370399,1,0,0,10.6531,0,19,19,2,1,c,images/br_c.png,images/cb_c.png,,,,,,,,,,,,,,,,,,,,,,,,,
,,,,,,00080,2023-10-24_08h32.08.331,vbt_B1_day1,2022.2.4,Win32,59.95203837,,,,,,,,,,,,,,,,,,,0.116666653,-0.079629651,1,0,0,12.7524,0,20,20,16,1,q,images/br_q.png,images/cb_q.png,,,,,,,,,,,,,,,,,,,,,,,,,
,,,,,,00080,2023-10-24_08h32.08.331,vbt_B1_day1,2022.2.4,Win32,59.95203837,,,,,,,,,,,,,,,,,,,0.106481481,0,1,0,0,9.7966,0,21,21,24,1,y,images/br_y.png,images/cb_y.png,,,,,,,,,,,,,,,,,,,,,,,,,
,,,,,,00080,2023-10-24_08h32.08.331,vbt_B1_day1,2022.2.4,Win32,59.95203837,,,,,,,,,,,,,,,,,,,0.12037037,-0.035185178,1,0,0,7.1474,0,22,22,9,1,j,images/br_j.png,images/cb_j.png,,,,,,,,,,,,,,,,,,,,,,,,,
,,,,,,00080,2023-10-24_08h32.08.331,vbt_B1_day1,2022.2.4,Win32,59.95203837,,,,,,,,,,,,,,,,,,,0.12037037,-0.035185178,1,0,0,23.1754,0,23,23,10,1,k,images/br_k.png,images/cb_k.png,,,,,,,,,,,,,,,,,,,,,,,,,
,,,,,,00080,2023-10-24_08h32.08.331,vbt_B1_day1,2022.2.4,Win32,59.95203837,,,,,,,,,,,,,,,,,,,0.12037037,-0.035185178,1,0,0,13.3624,0,24,24,4,1,e,images/br_e.png,images/cb_e.png,,,,,,,,,,,,,,,,,,,,,,,,,
,,,,,,00080,2023-10-24_08h32.08.331,vbt_B1_day1,2022.2.4,Win32,59.95203837,,,,,,,,,,,,,,,,,,,0.12037037,-0.035185178,1,0,0,7.1974,0,25,25,6,1,g,images/br_g.png,images/cb_g.png,,,,,,,,,,,,,,,,,,,,,,,,,
,,,,,,00080,2023-10-24_08h32.08.331,vbt_B1_day1,2022.2.4,Win32,59.95203837,,,,,,,,,,,,,,,,,,,0.123148176,0.114814794,1,0,0,11.4002,1,0,26,1,1,b,images/br_b.png,images/cb_b.png,,,,,,,,,,,,,,,,,,,,,,,,,
,,,,,,00080,2023-10-24_08h32.08.331,vbt_B1_day1,2022.2.4,Win32,59.95203837,,,,,,,,,,,,,,,,,,,0.123148176,0.114814794,1,0,0,3.3055,1,1,27,17,1,r,images/br_r.png,images/cb_r.png,,,,,,,,,,,,,,,,,,,,,,,,,
,,,,,,00080,2023-10-24_08h32.08.331,vbt_B1_day1,2022.2.4,Win32,59.95203837,,,,,,,,,,,,,,,,,,,0.123148176,0.114814794,1,0,0,20.8428,1,2,28,18,1,s,images/br_s.png,images/cb_s.png,,,,,,,,,,,,,,,,,,,,,,,,,
,,,,,,00080,2023-10-24_08h32.08.331,vbt_B1_day1,2022.2.4,Win32,59.95203837,,,,,,,,,,,,,,,,,,,0.123148176,0.114814794,1,0,0,0.5167,1,3,29,2,1,c,images/br_c.png,images/cb_c.png,,,,,,,,,,,,,,,,,,,,,,,,,
,,,,,,00080,2023-10-24_08h32.08.331,vbt_B1_day1,2022.2.4,Win32,59.95203837,,,,,,,,,,,,,,,,,,,0.131481524,0.10833334,1,0,0,22.159,1,4,30,3,1,d,images/br_d.png,images/cb_d.png,,,,,,,,,,,,,,,,,,,,,,,,,
,,,,,,00080,2023-10-24_08h32.08.331,vbt_B1_day1,2022.2.4,Win32,59.95203837,,,,,,,,,,,,,,,,,,,0.131481524,0.095370363,1,0,0,13.8453,1,5,31,5,1,f,images/br_f.png,images/cb_f.png,,,,,,,,,,,,,,,,,,,,,,,,,
,,,,,,00080,2023-10-24_08h32.08.331,vbt_B1_day1,2022.2.4,Win32,59.95203837,,,,,,,,,,,,,,,,,,,0.131481524,0.095370363,1,0,0,1.9325,1,6,32,11,1,l,images/br_l.png,images/cb_l.png,,,,,,,,,,,,,,,,,,,,,,,,,
,,,,,,00080,2023-10-24_08h32.08.331,vbt_B1_day1,2022.2.4,Win32,59.95203837,,,,,,,,,,,,,,,,,,,0.108333376,0.070370356,1,0,0,18.1263,1,7,33,21,1,v,images/br_v.png,images/cb_v.png,,,,,,,,,,,,,,,,,,,,,,,,,
,,,,,,00080,2023-10-24_08h32.08.331,vbt_B1_day1,2022.2.4,Win32,59.95203837,,,,,,,,,,,,,,,,,,,0.222222222,-0.012962977,1,0,0,28.79,1,8,34,15,1,p,images/br_p.png,images/cb_p.png,,,,,,,,,,,,,,,,,,,,,,,,,
,,,,,,00080,2023-10-24_08h32.08.331,vbt_B1_day1,2022.2.4,Win32,59.95203837,,,,,,,,,,,,,,,,,,,0.239814829,-0.013888889,1,0,0,13.2119,1,9,35,9,1,j,images/br_j.png,images/cb_j.png,,,,,,,,,,,,,,,,,,,,,,,,,
,,,,,,00080,2023-10-24_08h32.08.331,vbt_B1_day1,2022.2.4,Win32,59.95203837,,,,,,,,,,,,,,,,,,,0.241666653,-0.005555577,1,0,0,0.2332,1,10,36,23,1,x,images/br_x.png,images/cb_x.png,,,,,,,,,,,,,,,,,,,,,,,,,
,,,,,,00080,2023-10-24_08h32.08.331,vbt_B1_day1,2022.2.4,Win32,59.95203837,,,,,,,,,,,,,,,,,,,0.237037023,-0.01203703,1,0,0,0.3104,1,11,37,8,1,i,images/br_i.png,images/cb_i.png,,,,,,,,,,,,,,,,,,,,,,,,,
,,,,,,00080,2023-10-24_08h32.08.331,vbt_B1_day1,2022.2.4,Win32,59.95203837,,,,,,,,,,,,,,,,,,,0.248148176,-0.037037037,1,0,0,8.6344,1,12,38,10,1,k,images/br_k.png,images/cb_k.png,,,,,,,,,,,,,,,,,,,,,,,,,
,,,,,,00080,2023-10-24_08h32.08.331,vbt_B1_day1,2022.2.4,Win32,59.95203837,,,,,,,,,,,,,,,,,,,0.25462963,-0.044444437,1,0,0,35.8209,1,13,39,20,1,u,images/br_u.png,images/cb_u.png,,,,,,,,,,,,,,,,,,,,,,,,,
,,,,,,00080,2023-10-24_08h32.08.331,vbt_B1_day1,2022.2.4,Win32,59.95203837,,,,,,,,,,,,,,,,,,,0.267592607,-0.044444437,1,0,0,0.1565,1,14,40,0,1,a,images/br_a.png,images/cb_a.png,,,,,,,,,,,,,,,,,,,,,,,,,
,,,,,,00080,2023-10-24_08h32.08.331,vbt_B1_day1,2022.2.4,Win32,59.95203837,,,,,,,,,,,,,,,,,,,0.267592607,-0.050000014,1,0,0,1.2997,1,15,41,19,1,t,images/br_t.png,images/cb_t.png,,,,,,,,,,,,,,,,,,,,,,,,,
,,,,,,00080,2023-10-24_08h32.08.331,vbt_B1_day1,2022.2.4,Win32,59.95203837,,,,,,,,,,,,,,,,,,,0.271296325,-0.039814808,1,0,0,118.5989,1,16,42,12,1,m,images/br_m.png,images/cb_m.png,,,,,,,,,,,,,,,,,,,,,,,,,
,,,,,,00080,2023-10-24_08h32.08.331,vbt_B1_day1,2022.2.4,Win32,59.95203837,,,,,,,,,,,,,,,,,,,0.271296325,-0.039814808,1,0,0,0.5831,1,17,43,6,1,g,images/br_g.png,images/cb_g.png,,,,,,,,,,,,,,,,,,,,,,,,,
,,,,,,00080,2023-10-24_08h32.08.331,vbt_B1_day1,2022.2.4,Win32,59.95203837,,,,,,,,,,,,,,,,,,,0.271296325,-0.039814808,1,0,0,15.9439,1,18,44,13,1,n,images/br_n.png,images/cb_n.png,,,,,,,,,,,,,,,,,,,,,,,,,
,,,,,,00080,2023-10-24_08h32.08.331,vbt_B1_day1,2022.2.4,Win32,59.95203837,,,,,,,,,,,,,,,,,,,0.271296325,-0.039814808,1,0,0,21.1362,1,19,45,25,1,z,images/br_z.png,images/cb_z.png,,,,,,,,,,,,,,,,,,,,,,,,,
,,,,,,00080,2023-10-24_08h32.08.331,vbt_B1_day1,2022.2.4,Win32,59.95203837,,,,,,,,,,,,,,,,,,,0.271296325,-0.039814808,1,0,0,0.3938,1,20,46,14,1,o,images/br_o.png,images/cb_o.png,,,,,,,,,,,,,,,,,,,,,,,,,
,,,,,,00080,2023-10-24_08h32.08.331,vbt_B1_day1,2022.2.4,Win32,59.95203837,,,,,,,,,,,,,,,,,,,0.240740741,-0.051851873,1,0,0,8.1972,1,21,47,22,1,w,images/br_w.png,images/cb_w.png,,,,,,,,,,,,,,,,,,,,,,,,,
,,,,,,00080,2023-10-24_08h32.08.331,vbt_B1_day1,2022.2.4,Win32,59.95203837,,,,,,,,,,,,,,,,,,,0.240740741,-0.051851873,1,0,0,4.0719,1,22,48,7,1,h,images/br_h.png,images/cb_h.png,,,,,,,,,,,,,,,,,,,,,,,,,
,,,,,,00080,2023-10-24_08h32.08.331,vbt_B1_day1,2022.2.4,Win32,59.95203837,,,,,,,,,,,,,,,,,,,0.240740741,-0.051851873,1,0,0,2.7985,1,23,49,4,1,e,images/br_e.png,images/cb_e.png,,,,,,,,,,,,,,,,,,,,,,,,,
,,,,,,00080,2023-10-24_08h32.08.331,vbt_B1_day1,2022.2.4,Win32,59.95203837,,,,,,,,,,,,,,,,,,,0.237037023,-0.051851873,1,0,0,10.3299,1,24,50,16,1,q,images/br_q.png,images/cb_q.png,,,,,,,,,,,,,,,,,,,,,,,,,
,,,,,,00080,2023-10-24_08h32.08.331,vbt_B1_day1,2022.2.4,Win32,59.95203837,,,,,,,,,,,,,,,,,,,0.189814815,-0.005555577,1,0,0,19.91,1,25,51,24,1,y,images/br_y.png,images/cb_y.png,,,,,,,,,,,,,,,,,,,,,,,,,
,,,,,,00080,2023-10-24_08h32.08.331,vbt_B1_day1,2022.2.4,Win32,59.95203837,,,,,,,,,,,,,,,,,,,0.190740727,-0.071296303,1,0,0,80.5556,2,0,52,13,1,n,images/br_n.png,images/cb_n.png,,,,,,,,,,,,,,,,,,,,,,,,,
,,,,,,00080,2023-10-24_08h32.08.331,vbt_B1_day1,2022.2.4,Win32,59.95203837,,,,,,,,,,,,,,,,,,,0.097222222,-0.114814829,1,0,0,16.4777,2,1,53,20,1,u,images/br_u.png,images/cb_u.png,,,,,,,,,,,,,,,,,,,,,,,,,
,,,,,,00080,2023-10-24_08h32.08.331,vbt_B1_day1,2022.2.4,Win32,59.95203837,,,,,,,,,,,,,,,,,,,0.09629631,-0.121296282,1,0,0,0.5999,2,2,54,0,1,a,images/br_a.png,images/cb_a.png,,,,,,,,,,,,,,,,,,,,,,,,,
,,,,,,00080,2023-10-24_08h32.08.331,vbt_B1_day1,2022.2.4,Win32,59.95203837,,,,,,,,,,,,,,,,,,,0.09629631,-0.121296282,1,0,0,0.6497,2,3,55,17,1,r,images/br_r.png,images/cb_r.png,,,,,,,,,,,,,,,,,,,,,,,,,
,,,,,,00080,2023-10-24_08h32.08.331,vbt_B1_day1,2022.2.4,Win32,59.95203837,,,,,,,,,,,,,,,,,,,0.09629631,-0.121296282,1,0,0,3.6556,2,4,56,8,1,i,images/br_i.png,images/cb_i.png,,,,,,,,,,,,,,,,,,,,,,,,,
,,,,,,00080,2023-10-24_08h32.08.331,vbt_B1_day1,2022.2.4,Win32,59.95203837,,,,,,,,,,,,,,,,,,,0.09629631,-0.121296282,1,0,0,14.0617,2,5,57,1,1,b,images/br_b.png,images/cb_b.png,,,,,,,,,,,,,,,,,,,,,,,,,
,,,,,,00080,2023-10-24_08h32.08.331,vbt_B1_day1,2022.2.4,Win32,59.95203837,,,,,,,,,,,,,,,,,,,0.09629631,-0.121296282,1,0,0,1.8127,2,6,58,25,1,z,images/br_z.png,images/cb_z.png,,,,,,,,,,,,,,,,,,,,,,,,,
,,,,,,00080,2023-10-24_08h32.08.331,vbt_B1_day1,2022.2.4,Win32,59.95203837,,,,,,,,,,,,,,,,,,,0.09629631,-0.121296282,1,0,0,12.4947,2,7,59,22,1,w,images/br_w.png,images/cb_w.png,,,,,,,,,,,,,,,,,,,,,,,,,
,,,,,,00080,2023-10-24_08h32.08.331,vbt_B1_day1,2022.2.4,Win32,59.95203837,,,,,,,,,,,,,,,,,,,0.09629631,-0.121296282,1,0,0,22.1422,2,8,60,9,1,j,images/br_j.png,images/cb_j.png,,,,,,,,,,,,,,,,,,,,,,,,,
,,,,,,00080,2023-10-24_08h32.08.331,vbt_B1_day1,2022.2.4,Win32,59.95203837,,,,,,,,,,,,,,,,,,,0.09629631,-0.121296282,1,0,0,0.7331,2,9,61,4,1,e,images/br_e.png,images/cb_e.png,,,,,,,,,,,,,,,,,,,,,,,,,
,,,,,,00080,2023-10-24_08h32.08.331,vbt_B1_day1,2022.2.4,Win32,59.95203837,,,,,,,,,,,,,,,,,,,0.09629631,-0.121296282,1,0,0,0.3507,2,10,62,6,1,g,images/br_g.png,images/cb_g.png,,,,,,,,,,,,,,,,,,,,,,,,,
,,,,,,00080,2023-10-24_08h32.08.331,vbt_B1_day1,2022.2.4,Win32,59.95203837,,,,,,,,,,,,,,,,,,,0.410185213,-0.018518519,1,0,0,61.7456,2,11,63,15,1,p,images/br_p.png,images/cb_p.png,,,,,,,,,,,,,,,,,,,,,,,,,
,,,,,,00080,2023-10-24_08h32.08.331,vbt_B1_day1,2022.2.4,Win32,59.95203837,,,,,,,,,,,,,,,,,,,0.411111196,-0.018518519,1,0,0,1.4496,2,12,64,7,1,h,images/br_h.png,images/cb_h.png,,,,,,,,,,,,,,,,,,,,,,,,,
,,,,,,00080,2023-10-24_08h32.08.331,vbt_B1_day1,2022.2.4,Win32,59.95203837,,,,,,,,,,,,,,,,,,,0.411111196,-0.018518519,1,0,0,0.3333,2,13,65,5,1,f,images/br_f.png,images/cb_f.png,,,,,,,,,,,,,,,,,,,,,,,,,
,,,,,,00080,2023-10-24_08h32.08.331,vbt_B1_day1,2022.2.4,Win32,59.95203837,,,,,,,,,,,,,,,,,,,0.411111196,-0.018518519,1,0,0,0.2397,2,14,66,19,1,t,images/br_t.png,images/cb_t.png,,,,,,,,,,,,,,,,,,,,,,,,,
,,,,,,00080,2023-10-24_08h32.08.331,vbt_B1_day1,2022.2.4,Win32,59.95203837,,,,,,,,,,,,,,,,,,,0.237037023,-0.017592607,1,0,0,21.383,2,15,67,10,1,k,images/br_k.png,images/cb_k.png,,,,,,,,,,,,,,,,,,,,,,,,,
,,,,,,00080,2023-10-24_08h32.08.331,vbt_B1_day1,2022.2.4,Win32,59.95203837,,,,,,,,,,,,,,,,,,,0.309259344,-0.028703725,1,0,0,0.8497,2,16,68,2,1,c,images/br_c.png,images/cb_c.png,,,,,,,,,,,,,,,,,,,,,,,,,
,,,,,,00080,2023-10-24_08h32.08.331,vbt_B1_day1,2022.2.4,Win32,59.95203837,,,,,,,,,,,,,,,,,,,0.309259344,-0.028703725,1,0,0,0.2567,2,17,69,16,1,q,images/br_q.png,images/cb_q.png,,,,,,,,,,,,,,,,,,,,,,,,,
,,,,,,00080,2023-10-24_08h32.08.331,vbt_B1_day1,2022.2.4,Win32,59.95203837,,,,,,,,,,,,,,,,,,,0.309259344,-0.028703725,1,0,0,0.1296,2,18,70,24,1,y,images/br_y.png,images/cb_y.png,,,,,,,,,,,,,,,,,,,,,,,,,
,,,,,,00080,2023-10-24_08h32.08.331,vbt_B1_day1,2022.2.4,Win32,59.95203837,,,,,,,,,,,,,,,,,,,0.309259344,-0.028703725,1,0,0,0.7829,2,19,71,14,1,o,images/br_o.png,images/cb_o.png,,,,,,,,,,,,,,,,,,,,,,,,,
,,,,,,00080,2023-10-24_08h32.08.331,vbt_B1_day1,2022.2.4,Win32,59.95203837,,,,,,,,,,,,,,,,,,,0.309259344,-0.028703725,1,0,0,6.5478,2,20,72,12,1,m,images/br_m.png,images/cb_m.png,,,,,,,,,,,,,,,,,,,,,,,,,
,,,,,,00080,2023-10-24_08h32.08.331,vbt_B1_day1,2022.2.4,Win32,59.95203837,,,,,,,,,,,,,,,,,,,0.309259344,-0.028703725,1,0,0,0.633,2,21,73,23,1,x,images/br_x.png,images/cb_x.png,,,,,,,,,,,,,,,,,,,,,,,,,
,,,,,,00080,2023-10-24_08h32.08.331,vbt_B1_day1,2022.2.4,Win32,59.95203837,,,,,,,,,,,,,,,,,,,0.309259344,-0.028703725,1,0,0,5.2813,2,22,74,18,1,s,images/br_s.png,images/cb_s.png,,,,,,,,,,,,,,,,,,,,,,,,,
,,,,,,00080,2023-10-24_08h32.08.331,vbt_B1_day1,2022.2.4,Win32,59.95203837,,,,,,,,,,,,,,,,,,,0.310185185,-0.028703725,1,0,0,39.3529,2,23,75,3,1,d,images/br_d.png,images/cb_d.png,,,,,,,,,,,,,,,,,,,,,,,,,
,,,,,,00080,2023-10-24_08h32.08.331,vbt_B1_day1,2022.2.4,Win32,59.95203837,,,,,,,,,,,,,,,,,,,0.310185185,-0.028703725,1,0,0,16.0276,2,24,76,21,1,v,images/br_v.png,images/cb_v.png,,,,,,,,,,,,,,,,,,,,,,,,,
,,,,,,00080,2023-10-24_08h32.08.331,vbt_B1_day1,2022.2.4,Win32,59.95203837,,,,,,,,,,,,,,,,,,,0.310185185,-0.028703725,1,0,0,0.083,2,25,77,11,1,l,images/br_l.png,images/cb_l.png,,,,,,,,,,,,,,,,,,,,,,,,,
,,,,,,00080,2023-10-24_08h32.08.331,vbt_B1_day1,2022.2.4,Win32,59.95203837,,,,,,,,,,,,,,,,,,,0.310185185,-0.028703725,1,0,0,2.01,3,0,78,18,1,s,images/br_s.png,images/cb_s.png,,,,,,,,,,,,,,,,,,,,,,,,,
,,,,,,00080,2023-10-24_08h32.08.331,vbt_B1_day1,2022.2.4,Win32,59.95203837,,,,,,,,,,,,,,,,,,,0.310185185,-0.028703725,1,0,0,0.5499,3,1,79,11,1,l,images/br_l.png,images/cb_l.png,,,,,,,,,,,,,,,,,,,,,,,,,
,,,,,,00080,2023-10-24_08h32.08.331,vbt_B1_day1,2022.2.4,Win32,59.95203837,,,,,,,,,,,,,,,,,,,0.310185185,-0.028703725,1,0,0,0.8334,3,2,80,10,1,k,images/br_k.png,images/cb_k.png,,,,,,,,,,,,,,,,,,,,,,,,,
,,,,,,00080,2023-10-24_08h32.08.331,vbt_B1_day1,2022.2.4,Win32,59.95203837,,,,,,,,,,,,,,,,,,,0.310185185,-0.028703725,1,0,0,0.3832,3,3,81,0,1,a,images/br_a.png,images/cb_a.png,,,,,,,,,,,,,,,,,,,,,,,,,
,,,,,,00080,2023-10-24_08h32.08.331,vbt_B1_day1,2022.2.4,Win32,59.95203837,,,,,,,,,,,,,,,,,,,0.310185185,-0.028703725,1,0,0,4.8317,3,4,82,20,1,u,images/br_u.png,images/cb_u.png,,,,,,,,,,,,,,,,,,,,,,,,,
,,,,,,00080,2023-10-24_08h32.08.331,vbt_B1_day1,2022.2.4,Win32,59.95203837,,,,,,,,,,,,,,,,,,,0.310185185,-0.028703725,1,0,0,0.1706,3,5,83,24,1,y,images/br_y.png,images/cb_y.png,,,,,,,,,,,,,,,,,,,,,,,,,
,,,,,,00080,2023-10-24_08h32.08.331,vbt_B1_day1,2022.2.4,Win32,59.95203837,,,,,,,,,,,,,,,,,,,0.310185185,-0.028703725,1,0,0,11.7128,3,6,84,1,1,b,images/br_b.png,images/cb_b.png,,,,,,,,,,,,,,,,,,,,,,,,,
,,,,,,00080,2023-10-24_08h32.08.331,vbt_B1_day1,2022.2.4,Win32,59.95203837,,,,,,,,,,,,,,,,,,,0.310185185,-0.028703725,1,0,0,2.699,3,7,85,25,1,z,images/br_z.png,images/cb_z.png,,,,,,,,,,,,,,,,,,,,,,,,,
,,,,,,00080,2023-10-24_08h32.08.331,vbt_B1_day1,2022.2.4,Win32,59.95203837,,,,,,,,,,,,,,,,,,,0.310185185,-0.028703725,1,0,0,1.6495,3,8,86,6,1,g,images/br_g.png,images/cb_g.png,,,,,,,,,,,,,,,,,,,,,,,,,
,,,,,,00080,2023-10-24_08h32.08.331,vbt_B1_day1,2022.2.4,Win32,59.95203837,,,,,,,,,,,,,,,,,,,0.310185185,-0.028703725,1,0,0,0.7832,3,9,87,4,1,e,images/br_e.png,images/cb_e.png,,,,,,,,,,,,,,,,,,,,,,,,,
,,,,,,00080,2023-10-24_08h32.08.331,vbt_B1_day1,2022.2.4,Win32,59.95203837,,,,,,,,,,,,,,,,,,,0.310185185,-0.028703725,1,0,0,0.4296,3,10,88,14,1,o,images/br_o.png,images/cb_o.png,,,,,,,,,,,,,,,,,,,,,,,,,
,,,,,,00080,2023-10-24_08h32.08.331,vbt_B1_day1,2022.2.4,Win32,59.95203837,,,,,,,,,,,,,,,,,,,0.310185185,-0.028703725,1,0,0,0.5,3,11,89,23,1,x,images/br_x.png,images/cb_x.png,,,,,,,,,,,,,,,,,,,,,,,,,
,,,,,,00080,2023-10-24_08h32.08.331,vbt_B1_day1,2022.2.4,Win32,59.95203837,,,,,,,,,,,,,,,,,,,0.310185185,-0.028703725,1,0,0,1.3329,3,12,90,15,1,p,images/br_p.png,images/cb_p.png,,,,,,,,,,,,,,,,,,,,,,,,,
,,,,,,00080,2023-10-24_08h32.08.331,vbt_B1_day1,2022.2.4,Win32,59.95203837,,,,,,,,,,,,,,,,,,,0.310185185,-0.028703725,1,0,0,0.233,3,13,91,7,1,h,images/br_h.png,images/cb_h.png,,,,,,,,,,,,,,,,,,,,,,,,,
,,,,,,00080,2023-10-24_08h32.08.331,vbt_B1_day1,2022.2.4,Win32,59.95203837,,,,,,,,,,,,,,,,,,,0.310185185,-0.028703725,1,0,0,1.0102,3,14,92,16,1,q,images/br_q.png,images/cb_q.png,,,,,,,,,,,,,,,,,,,,,,,,,
,,,,,,00080,2023-10-24_08h32.08.331,vbt_B1_day1,2022.2.4,Win32,59.95203837,,,,,,,,,,,,,,,,,,,0.310185185,-0.028703725,1,0,0,4.7817,3,15,93,3,1,d,images/br_d.png,images/cb_d.png,,,,,,,,,,,,,,,,,,,,,,,,,
,,,,,,00080,2023-10-24_08h32.08.331,vbt_B1_day1,2022.2.4,Win32,59.95203837,,,,,,,,,,,,,,,,,,,0.310185185,-0.028703725,1,0,0,0.7997,3,16,94,5,1,f,images/br_f.png,images/cb_f.png,,,,,,,,,,,,,,,,,,,,,,,,,
,,,,,,00080,2023-10-24_08h32.08.331,vbt_B1_day1,2022.2.4,Win32,59.95203837,,,,,,,,,,,,,,,,,,,0.310185185,-0.028703725,1,0,0,0.6166,3,17,95,19,1,t,images/br_t.png,images/cb_t.png,,,,,,,,,,,,,,,,,,,,,,,,,
,,,,,,00080,2023-10-24_08h32.08.331,vbt_B1_day1,2022.2.4,Win32,59.95203837,,,,,,,,,,,,,,,,,,,0.310185185,-0.028703725,1,0,0,0.3832,3,18,96,17,1,r,images/br_r.png,images/cb_r.png,,,,,,,,,,,,,,,,,,,,,,,,,
,,,,,,00080,2023-10-24_08h32.08.331,vbt_B1_day1,2022.2.4,Win32,59.95203837,,,,,,,,,,,,,,,,,,,0.308333362,-0.028703725,1,0,0,6.9643,3,19,97,22,1,w,images/br_w.png,images/cb_w.png,,,,,,,,,,,,,,,,,,,,,,,,,
,,,,,,00080,2023-10-24_08h32.08.331,vbt_B1_day1,2022.2.4,Win32,59.95203837,,,,,,,,,,,,,,,,,,,0.308333362,-0.028703725,1,0,0,0.5662,3,20,98,13,1,n,images/br_n.png,images/cb_n.png,,,,,,,,,,,,,,,,,,,,,,,,,
,,,,,,00080,2023-10-24_08h32.08.331,vbt_B1_day1,2022.2.4,Win32,59.95203837,,,,,,,,,,,,,,,,,,,0.308333362,-0.028703725,1,0,0,1.36,3,21,99,8,1,i,images/br_i.png,images/cb_i.png,,,,,,,,,,,,,,,,,,,,,,,,,
,,,,,,00080,2023-10-24_08h32.08.331,vbt_B1_day1,2022.2.4,Win32,59.95203837,,,,,,,,,,,,,,,,,,,0.386111083,-0.056481503,1,0,0,0.09,3,22,100,9,1,j,images/br_j.png,images/cb_j.png,,,,,,,,,,,,,,,,,,,,,,,,,
,,,,,,00080,2023-10-24_08h32.08.331,vbt_B1_day1,2022.2.4,Win32,59.95203837,,,,,,,,,,,,,,,,,,,0.386111083,-0.056481503,1,0,0,0.6999,3,23,101,2,1,c,images/br_c.png,images/cb_c.png,,,,,,,,,,,,,,,,,,,,,,,,,
,,,,,,00080,2023-10-24_08h32.08.331,vbt_B1_day1,2022.2.4,Win32,59.95203837,,,,,,,,,,,,,,,,,,,0.386111083,-0.056481503,1,0,0,10.9795,3,24,102,21,1,v,images/br_v.png,images/cb_v.png,,,,,,,,,,,,,,,,,,,,,,,,,
,,,,,,00080,2023-10-24_08h32.08.331,vbt_B1_day1,2022.2.4,Win32,59.95203837,,,,,,,,,,,,,,,,,,,0.386111083,-0.056481503,1,0,0,12.179,3,25,103,12,1,m,images/br_m.png,images/cb_m.png,,,,,,,,,,,,,,,,,,,,,,,,,
,,,,,,00080,2023-10-24_08h32.08.331,vbt_B1_day1,2022.2.4,Win32,59.95203837,,,,,,,,,,,,,,,,,,,0.386111083,-0.056481503,1,0,0,0.0833,4,0,104,7,1,h,images/br_h.png,images/cb_h.png,,,,,,,,,,,,,,,,,,,,,,,,,
,,,,,,00080,2023-10-24_08h32.08.331,vbt_B1_day1,2022.2.4,Win32,59.95203837,,,,,,,,,,,,,,,,,,,0.386111083,-0.056481503,1,0,0,12.5457,4,1,105,12,1,m,images/br_m.png,images/cb_m.png,,,,,,,,,,,,,,,,,,,,,,,,,
,,,,,,00080,2023-10-24_08h32.08.331,vbt_B1_day1,2022.2.4,Win32,59.95203837,,,,,,,,,,,,,,,,,,,0.386111083,-0.056481503,1,0,0,9.6634,4,2,106,1,1,b,images/br_b.png,images/cb_b.png,,,,,,,,,,,,,,,,,,,,,,,,,
,,,,,,00080,2023-10-24_08h32.08.331,vbt_B1_day1,2022.2.4,Win32,59.95203837,,,,,,,,,,,,,,,,,,,0.386111083,-0.056481503,1,0,0,4.2986,4,3,107,21,1,v,images/br_v.png,images/cb_v.png,,,,,,,,,,,,,,,,,,,,,,,,,
,,,,,,00080,2023-10-24_08h32.08.331,vbt_B1_day1,2022.2.4,Win32,59.95203837,,,,,,,,,,,,,,,,,,,0.386111083,-0.055555556,1,0,0,0.3998,4,4,108,20,1,u,images/br_u.png,images/cb_u.png,,,,,,,,,,,,,,,,,,,,,,,,,
,,,,,,00080,2023-10-24_08h32.08.331,vbt_B1_day1,2022.2.4,Win32,59.95203837,,,,,,,,,,,,,,,,,,,0.386111083,-0.055555556,1,0,0,0.1604,4,5,109,5,1,f,images/br_f.png,images/cb_f.png,,,,,,,,,,,,,,,,,,,,,,,,,
,,,,,,00080,2023-10-24_08h32.08.331,vbt_B1_day1,2022.2.4,Win32,59.95203837,,,,,,,,,,,,,,,,,,,0.386111083,-0.055555556,1,0,0,0.6269,4,6,110,18,1,s,images/br_s.png,images/cb_s.png,,,,,,,,,,,,,,,,,,,,,,,,,
,,,,,,00080,2023-10-24_08h32.08.331,vbt_B1_day1,2022.2.4,Win32,59.95203837,,,,,,,,,,,,,,,,,,,0.386111083,-0.055555556,1,0,0,0.0334,4,7,111,23,1,x,images/br_x.png,images/cb_x.png,,,,,,,,,,,,,,,,,,,,,,,,,
,,,,,,00080,2023-10-24_08h32.08.331,vbt_B1_day1,2022.2.4,Win32,59.95203837,,,,,,,,,,,,,,,,,,,0.386111083,-0.055555556,1,0,0,2.2823,4,8,112,14,1,o,images/br_o.png,images/cb_o.png,,,,,,,,,,,,,,,,,,,,,,,,,
,,,,,,00080,2023-10-24_08h32.08.331,vbt_B1_day1,2022.2.4,Win32,59.95203837,,,,,,,,,,,,,,,,,,,0.386111083,-0.054629644,1,0,0,7.6805,4,9,113,15,1,p,images/br_p.png,images/cb_p.png,,,,,,,,,,,,,,,,,,,,,,,,,
,,,,,,00080,2023-10-24_08h32.08.331,vbt_B1_day1,2022.2.4,Win32,59.95203837,,,,,,,,,,,,,,,,,,,0.386111083,-0.059259273,1,0,0,0.4335,4,10,114,16,1,q,images/br_q.png,images/cb_q.png,,,,,,,,,,,,,,,,,,,,,,,,,
,,,,,,00080,2023-10-24_08h32.08.331,vbt_B1_day1,2022.2.4,Win32,59.95203837,,,,,,,,,,,,,,,,,,,0.386111083,-0.059259273,1,0,0,0.3796,4,11,115,11,1,l,images/br_l.png,images/cb_l.png,,,,,,,,,,,,,,,,,,,,,,,,,
,,,,,,00080,2023-10-24_08h32.08.331,vbt_B1_day1,2022.2.4,Win32,59.95203837,,,,,,,,,,,,,,,,,,,0.386111083,-0.059259273,1,0,0,0.0333,4,12,116,24,1,y,images/br_y.png,images/cb_y.png,,,,,,,,,,,,,,,,,,,,,,,,,
,,,,,,00080,2023-10-24_08h32.08.331,vbt_B1_day1,2022.2.4,Win32,59.95203837,,,,,,,,,,,,,,,,,,,0.386111083,-0.059259273,1,0,0,0.0166,4,13,117,2,1,c,images/br_c.png,images/cb_c.png,,,,,,,,,,,,,,,,,,,,,,,,,
,,,,,,00080,2023-10-24_08h32.08.331,vbt_B1_day1,2022.2.4,Win32,59.95203837,,,,,,,,,,,,,,,,,,,0.386111083,-0.059259273,1,0,0,0.3504,4,14,118,0,1,a,images/br_a.png,images/cb_a.png,,,,,,,,,,,,,,,,,,,,,,,,,
,,,,,,00080,2023-10-24_08h32.08.331,vbt_B1_day1,2022.2.4,Win32,59.95203837,,,,,,,,,,,,,,,,,,,0.386111083,-0.059259273,1,0,0,0.2167,4,15,119,6,1,g,images/br_g.png,images/cb_g.png,,,,,,,,,,,,,,,,,,,,,,,,,
,,,,,,00080,2023-10-24_08h32.08.331,vbt_B1_day1,2022.2.4,Win32,59.95203837,,,,,,,,,,,,,,,,,,,0.386111083,-0.059259273,1,0,0,2.3933,4,16,120,10,1,k,images/br_k.png,images/cb_k.png,,,,,,,,,,,,,,,,,,,,,,,,,
,,,,,,00080,2023-10-24_08h32.08.331,vbt_B1_day1,2022.2.4,Win32,59.95203837,,,,,,,,,,,,,,,,,,,0.386111083,-0.059259273,1,0,0,0.2106,4,17,121,19,1,t,images/br_t.png,images/cb_t.png,,,,,,,,,,,,,,,,,,,,,,,,,
,,,,,,00080,2023-10-24_08h32.08.331,vbt_B1_day1,2022.2.4,Win32,59.95203837,,,,,,,,,,,,,,,,,,,0.386111083,-0.059259273,1,0,0,0.2832,4,18,122,13,1,n,images/br_n.png,images/cb_n.png,,,,,,,,,,,,,,,,,,,,,,,,,
,,,,,,00080,2023-10-24_08h32.08.331,vbt_B1_day1,2022.2.4,Win32,59.95203837,,,,,,,,,,,,,,,,,,,0.386111083,-0.059259273,1,0,0,0.9665,4,19,123,8,1,i,images/br_i.png,images/cb_i.png,,,,,,,,,,,,,,,,,,,,,,,,,
,,,,,,00080,2023-10-24_08h32.08.331,vbt_B1_day1,2022.2.4,Win32,59.95203837,,,,,,,,,,,,,,,,,,,0.386111083,-0.059259273,1,0,0,1.3497,4,20,124,17,1,r,images/br_r.png,images/cb_r.png,,,,,,,,,,,,,,,,,,,,,,,,,
,,,,,,00080,2023-10-24_08h32.08.331,vbt_B1_day1,2022.2.4,Win32,59.95203837,,,,,,,,,,,,,,,,,,,0.386111083,-0.059259273,1,0,0,1.533,4,21,125,25,1,z,images/br_z.png,images/cb_z.png,,,,,,,,,,,,,,,,,,,,,,,,,
,,,,,,00080,2023-10-24_08h32.08.331,vbt_B1_day1,2022.2.4,Win32,59.95203837,,,,,,,,,,,,,,,,,,,0.386111083,-0.059259273,1,0,0,1.8828,4,22,126,22,1,w,images/br_w.png,images/cb_w.png,,,,,,,,,,,,,,,,,,,,,,,,,
,,,,,,00080,2023-10-24_08h32.08.331,vbt_B1_day1,2022.2.4,Win32,59.95203837,,,,,,,,,,,,,,,,,,,0.386111083,-0.059259273,1,0,0,2.6658,4,23,127,9,1,j,images/br_j.png,images/cb_j.png,,,,,,,,,,,,,,,,,,,,,,,,,
,,,,,,00080,2023-10-24_08h32.08.331,vbt_B1_day1,2022.2.4,Win32,59.95203837,,,,,,,,,,,,,,,,,,,0.386111083,-0.059259273,1,0,0,8.3344,4,24,128,3,1,d,images/br_d.png,images/cb_d.png,,,,,,,,,,,,,,,,,,,,,,,,,
,,,,,,00080,2023-10-24_08h32.08.331,vbt_B1_day1,2022.2.4,Win32,59.95203837,,,,,,,,,,,,,,,,,,,0.386111083,-0.059259273,1,0,0,0.7501,4,25,129,4,1,e,images/br_e.png,images/cb_e.png,,,,,,,,,,,,,,,,,,,,,,,,,
,,,,,,00080,2023-10-24_08h32.08.331,vbt_B1_day1,2022.2.4,Win32,59.95203837,,,,,,,,,,,,,,,,,,,0.386111083,-0.059259273,1,0,0,0.6772,5,0,130,8,1,i,images/br_i.png,images/cb_i.png,,,,,,,,,,,,,,,,,,,,,,,,,
,,,,,,00080,2023-10-24_08h32.08.331,vbt_B1_day1,2022.2.4,Win32,59.95203837,,,,,,,,,,,,,,,,,,,0.386111083,-0.060185185,1,0,0,1.2831,5,1,131,16,1,q,images/br_q.png,images/cb_q.png,,,,,,,,,,,,,,,,,,,,,,,,,
,,,,,,00080,2023-10-24_08h32.08.331,vbt_B1_day1,2022.2.4,Win32,59.95203837,,,,,,,,,,,,,,,,,,,0.386111083,-0.060185185,1,0,0,1.233,5,2,132,7,1,h,images/br_h.png,images/cb_h.png,,,,,,,,,,,,,,,,,,,,,,,,,
,,,,,,00080,2023-10-24_08h32.08.331,vbt_B1_day1,2022.2.4,Win32,59.95203837,,,,,,,,,,,,,,,,,,,0.386111083,-0.060185185,1,0,0,1.2164,5,3,133,2,1,c,images/br_c.png,images/cb_c.png,,,,,,,,,,,,,,,,,,,,,,,,,
,,,,,,00080,2023-10-24_08h32.08.331,vbt_B1_day1,2022.2.4,Win32,59.95203837,,,,,,,,,,,,,,,,,,,0.386111083,-0.060185185,1,0,0,1.9662,5,4,134,21,1,v,images/br_v.png,images/cb_v.png,,,,,,,,,,,,,,,,,,,,,,,,,
,,,,,,00080,2023-10-24_08h32.08.331,vbt_B1_day1,2022.2.4,Win32,59.95203837,,,,,,,,,,,,,,,,,,,0.386111083,-0.060185185,1,0,0,0.6497,5,5,135,23,1,x,images/br_x.png,images/cb_x.png,,,,,,,,,,,,,,,,,,,,,,,,,
,,,,,,00080,2023-10-24_08h32.08.331,vbt_B1_day1,2022.2.4,Win32,59.95203837,,,,,,,,,,,,,,,,,,,0.386111083,-0.060185185,1,0,0,3.9828,5,6,136,10,1,k,images/br_k.png,images/cb_k.png,,,,,,,,,,,,,,,,,,,,,,,,,
,,,,,,00080,2023-10-24_08h32.08.331,vbt_B1_day1,2022.2.4,Win32,59.95203837,,,,,,,,,,,,,,,,,,,0.386111083,-0.060185185,1,0,0,3.5652,5,7,137,6,1,g,images/br_g.png,images/cb_g.png,,,,,,,,,,,,,,,,,,,,,,,,,
,,,,,,00080,2023-10-24_08h32.08.331,vbt_B1_day1,2022.2.4,Win32,59.95203837,,,,,,,,,,,,,,,,,,,0.386111083,-0.060185185,1,0,0,0.3501,5,8,138,11,1,l,images/br_l.png,images/cb_l.png,,,,,,,,,,,,,,,,,,,,,,,,,
,,,,,,00080,2023-10-24_08h32.08.331,vbt_B1_day1,2022.2.4,Win32,59.95203837,,,,,,,,,,,,,,,,,,,0.386111083,-0.060185185,1,0,0,1.866,5,9,139,0,1,a,images/br_a.png,images/cb_a.png,,,,,,,,,,,,,,,,,,,,,,,,,
,,,,,,00080,2023-10-24_08h32.08.331,vbt_B1_day1,2022.2.4,Win32,59.95203837,,,,,,,,,,,,,,,,,,,0.386111083,-0.060185185,1,0,0,1.1231,5,10,140,5,1,f,images/br_f.png,images/cb_f.png,,,,,,,,,,,,,,,,,,,,,,,,,
,,,,,,00080,2023-10-24_08h32.08.331,vbt_B1_day1,2022.2.4,Win32,59.95203837,,,,,,,,,,,,,,,,,,,0.386111083,-0.060185185,1,0,0,5.8143,5,11,141,15,1,p,images/br_p.png,images/cb_p.png,,,,,,,,,,,,,,,,,,,,,,,,,
,,,,,,00080,2023-10-24_08h32.08.331,vbt_B1_day1,2022.2.4,Win32,59.95203837,,,,,,,,,,,,,,,,,,,0.386111083,-0.060185185,1,0,0,0.4333,5,12,142,24,1,y,images/br_y.png,images/cb_y.png,,,,,,,,,,,,,,,,,,,,,,,,,
,,,,,,00080,2023-10-24_08h32.08.331,vbt_B1_day1,2022.2.4,Win32,59.95203837,,,,,,,,,,,,,,,,,,,0.386111083,-0.060185185,1,0,0,10.1632,5,13,143,1,1,b,images/br_b.png,images/cb_b.png,,,,,,,,,,,,,,,,,,,,,,,,,
,,,,,,00080,2023-10-24_08h32.08.331,vbt_B1_day1,2022.2.4,Win32,59.95203837,,,,,,,,,,,,,,,,,,,0.386111083,-0.060185185,1,0,0,0.8662,5,14,144,14,1,o,images/br_o.png,images/cb_o.png,,,,,,,,,,,,,,,,,,,,,,,,,
,,,,,,00080,2023-10-24_08h32.08.331,vbt_B1_day1,2022.2.4,Win32,59.95203837,,,,,,,,,,,,,,,,,,,0.386111083,-0.060185185,1,0,0,1.6436,5,15,145,12,1,m,images/br_m.png,images/cb_m.png,,,,,,,,,,,,,,,,,,,,,,,,,
,,,,,,00080,2023-10-24_08h32.08.331,vbt_B1_day1,2022.2.4,Win32,59.95203837,,,,,,,,,,,,,,,,,,,0.386111083,-0.060185185,1,0,0,0.6999,5,16,146,22,1,w,images/br_w.png,images/cb_w.png,,,,,,,,,,,,,,,,,,,,,,,,,
,,,,,,00080,2023-10-24_08h32.08.331,vbt_B1_day1,2022.2.4,Win32,59.95203837,,,,,,,,,,,,,,,,,,,0.386111083,-0.060185185,1,0,0,0.6566,5,17,147,4,1,e,images/br_e.png,images/cb_e.png,,,,,,,,,,,,,,,,,,,,,,,,,
,,,,,,00080,2023-10-24_08h32.08.331,vbt_B1_day1,2022.2.4,Win32,59.95203837,,,,,,,,,,,,,,,,,,,0.386111083,-0.060185185,1,0,0,2.0991,5,18,148,18,1,s,images/br_s.png,images/cb_s.png,,,,,,,,,,,,,,,,,,,,,,,,,
,,,,,,00080,2023-10-24_08h32.08.331,vbt_B1_day1,2022.2.4,Win32,59.95203837,,,,,,,,,,,,,,,,,,,0.386111083,-0.060185185,1,0,0,0.7769,5,19,149,20,1,u,images/br_u.png,images/cb_u.png,,,,,,,,,,,,,,,,,,,,,,,,,
,,,,,,00080,2023-10-24_08h32.08.331,vbt_B1_day1,2022.2.4,Win32,59.95203837,,,,,,,,,,,,,,,,,,,0.386111083,-0.060185185,1,0,0,1.2934,5,20,150,17,1,r,images/br_r.png,images/cb_r.png,,,,,,,,,,,,,,,,,,,,,,,,,
,,,,,,00080,2023-10-24_08h32.08.331,vbt_B1_day1,2022.2.4,Win32,59.95203837,,,,,,,,,,,,,,,,,,,0.386111083,-0.060185185,1,0,0,1.6327,5,21,151,9,1,j,images/br_j.png,images/cb_j.png,,,,,,,,,,,,,,,,,,,,,,,,,
,,,,,,00080,2023-10-24_08h32.08.331,vbt_B1_day1,2022.2.4,Win32,59.95203837,,,,,,,,,,,,,,,,,,,0.386111083,-0.060185185,1,0,0,1.0165,5,22,152,19,1,t,images/br_t.png,images/cb_t.png,,,,,,,,,,,,,,,,,,,,,,,,,
,,,,,,00080,2023-10-24_08h32.08.331,vbt_B1_day1,2022.2.4,Win32,59.95203837,,,,,,,,,,,,,,,,,,,0.386111083,-0.060185185,1,0,0,0.4,5,23,153,13,1,n,images/br_n.png,images/cb_n.png,,,,,,,,,,,,,,,,,,,,,,,,,
,,,,,,00080,2023-10-24_08h32.08.331,vbt_B1_day1,2022.2.4,Win32,59.95203837,,,,,,,,,,,,,,,,,,,0.386111083,-0.060185185,1,0,0,1.006,5,24,154,25,1,z,images/br_z.png,images/cb_z.png,,,,,,,,,,,,,,,,,,,,,,,,,
,,,,,,00080,2023-10-24_08h32.08.331,vbt_B1_day1,2022.2.4,Win32,59.95203837,,,,,,,,,,,,,,,,,,,0.386111083,-0.060185185,1,0,0,0.1232,5,25,155,3,1,d,images/br_d.png,images/cb_d.png,,,,,,,,,,,,,,,,,,,,,,,,,
,,,,,,00080,2023-10-24_08h32.08.331,vbt_B1_day1,2022.2.4,Win32,59.95203837,,,,,,,,,,,,,,,,,,,0.386111083,-0.060185185,1,0,0,0.2999,6,0,156,11,1,l,images/br_l.png,images/cb_l.png,,,,,,,,,,,,,,,,,,,,,,,,,
,,,,,,00080,2023-10-24_08h32.08.331,vbt_B1_day1,2022.2.4,Win32,59.95203837,,,,,,,,,,,,,,,,,,,0.386111083,-0.060185185,1,0,0,0.3104,6,1,157,15,1,p,images/br_p.png,images/cb_p.png,,,,,,,,,,,,,,,,,,,,,,,,,
,,,,,,00080,2023-10-24_08h32.08.331,vbt_B1_day1,2022.2.4,Win32,59.95203837,,,,,,,,,,,,,,,,,,,0.386111083,-0.060185185,1,0,0,0.4835,6,2,158,1,1,b,images/br_b.png,images/cb_b.png,,,,,,,,,,,,,,,,,,,,,,,,,
,,,,,,00080,2023-10-24_08h32.08.331,vbt_B1_day1,2022.2.4,Win32,59.95203837,,,,,,,,,,,,,,,,,,,0.386111083,-0.060185185,1,0,0,0.8664,6,3,159,2,1,c,images/br_c.png,images/cb_c.png,,,,,,,,,,,,,,,,,,,,,,,,,
,,,,,,00080,2023-10-24_08h32.08.331,vbt_B1_day1,2022.2.4,Win32,59.95203837,,,,,,,,,,,,,,,,,,,0.386111083,-0.060185185,1,0,0,0.7796,6,4,160,19,1,t,images/br_t.png,images/cb_t.png,,,,,,,,,,,,,,,,,,,,,,,,,
,,,,,,00080,2023-10-24_08h32.08.331,vbt_B1_day1,2022.2.4,Win32,59.95203837,,,,,,,,,,,,,,,,,,,0.386111083,-0.060185185,1,0,0,0.4834,6,5,161,8,1,i,images/br_i.png,images/cb_i.png,,,,,,,,,,,,,,,,,,,,,,,,,
,,,,,,00080,2023-10-24_08h32.08.331,vbt_B1_day1,2022.2.4,Win32,59.95203837,,,,,,,,,,,,,,,,,,,0.386111083,-0.060185185,1,0,0,1.5433,6,6,162,5,1,f,images/br_f.png,images/cb_f.png,,,,,,,,,,,,,,,,,,,,,,,,,
,,,,,,00080,2023-10-24_08h32.08.331,vbt_B1_day1,2022.2.4,Win32,59.95203837,,,,,,,,,,,,,,,,,,,0.386111083,-0.060185185,1,0,0,1.1163,6,7,163,22,1,w,images/br_w.png,images/cb_w.png,,,,,,,,,,,,,,,,,,,,,,,,,
,,,,,,00080,2023-10-24_08h32.08.331,vbt_B1_day1,2022.2.4,Win32,59.95203837,,,,,,,,,,,,,,,,,,,0.386111083,-0.060185185,1,0,0,2.1157,6,8,164,7,1,h,images/br_h.png,images/cb_h.png,,,,,,,,,,,,,,,,,,,,,,,,,
,,,,,,00080,2023-10-24_08h32.08.331,vbt_B1_day1,2022.2.4,Win32,59.95203837,,,,,,,,,,,,,,,,,,,0.386111083,-0.060185185,1,0,0,2.056,6,9,165,0,1,a,images/br_a.png,images/cb_a.png,,,,,,,,,,,,,,,,,,,,,,,,,
,,,,,,00080,2023-10-24_08h32.08.331,vbt_B1_day1,2022.2.4,Win32,59.95203837,,,,,,,,,,,,,,,,,,,0.386111083,-0.060185185,1,0,0,3.2324,6,10,166,20,1,u,images/br_u.png,images/cb_u.png,,,,,,,,,,,,,,,,,,,,,,,,,
,,,,,,00080,2023-10-24_08h32.08.331,vbt_B1_day1,2022.2.4,Win32,59.95203837,,,,,,,,,,,,,,,,,,,0.386111083,-0.060185185,1,0,0,0.8666,6,11,167,23,1,x,images/br_x.png,images/cb_x.png,,,,,,,,,,,,,,,,,,,,,,,,,
,,,,,,00080,2023-10-24_08h32.08.331,vbt_B1_day1,2022.2.4,Win32,59.95203837,,,,,,,,,,,,,,,,,,,0.386111083,-0.060185185,1,0,0,1.3495,6,12,168,9,1,j,images/br_j.png,images/cb_j.png,,,,,,,,,,,,,,,,,,,,,,,,,
,,,,,,00080,2023-10-24_08h32.08.331,vbt_B1_day1,2022.2.4,Win32,59.95203837,,,,,,,,,,,,,,,,,,,0.386111083,-0.060185185,1,0,0,1.6329,6,13,169,3,1,d,images/br_d.png,images/cb_d.png,,,,,,,,,,,,,,,,,,,,,,,,,
,,,,,,00080,2023-10-24_08h32.08.331,vbt_B1_day1,2022.2.4,Win32,59.95203837,,,,,,,,,,,,,,,,,,,0.386111083,-0.060185185,1,0,0,0.7162,6,14,170,14,1,o,images/br_o.png,images/cb_o.png,,,,,,,,,,,,,,,,,,,,,,,,,
,,,,,,00080,2023-10-24_08h32.08.331,vbt_B1_day1,2022.2.4,Win32,59.95203837,,,,,,,,,,,,,,,,,,,0.386111083,-0.060185185,1,0,0,2.2158,6,15,171,13,1,n,images/br_n.png,images/cb_n.png,,,,,,,,,,,,,,,,,,,,,,,,,
,,,,,,00080,2023-10-24_08h32.08.331,vbt_B1_day1,2022.2.4,Win32,59.95203837,,,,,,,,,,,,,,,,,,,0.386111083,-0.060185185,1,0,0,2.0661,6,16,172,12,1,m,images/br_m.png,images/cb_m.png,,,,,,,,,,,,,,,,,,,,,,,,,
,,,,,,00080,2023-10-24_08h32.08.331,vbt_B1_day1,2022.2.4,Win32,59.95203837,,,,,,,,,,,,,,,,,,,0.386111083,-0.060185185,1,0,0,0.4563,6,17,173,18,1,s,images/br_s.png,images/cb_s.png,,,,,,,,,,,,,,,,,,,,,,,,,
,,,,,,00080,2023-10-24_08h32.08.331,vbt_B1_day1,2022.2.4,Win32,59.95203837,,,,,,,,,,,,,,,,,,,0.386111083,-0.060185185,1,0,0,0.3602,6,18,174,21,1,v,images/br_v.png,images/cb_v.png,,,,,,,,,,,,,,,,,,,,,,,,,
,,,,,,00080,2023-10-24_08h32.08.331,vbt_B1_day1,2022.2.4,Win32,59.95203837,,,,,,,,,,,,,,,,,,,0.386111083,-0.060185185,1,0,0,0.3169,6,19,175,25,1,z,images/br_z.png,images/cb_z.png,,,,,,,,,,,,,,,,,,,,,,,,,
,,,,,,00080,2023-10-24_08h32.08.331,vbt_B1_day1,2022.2.4,Win32,59.95203837,,,,,,,,,,,,,,,,,,,0.386111083,-0.060185185,1,0,0,2.7655,6,20,176,6,1,g,images/br_g.png,images/cb_g.png,,,,,,,,,,,,,,,,,,,,,,,,,
,,,,,,00080,2023-10-24_08h32.08.331,vbt_B1_day1,2022.2.4,Win32,59.95203837,,,,,,,,,,,,,,,,,,,0.386111083,-0.060185185,1,0,0,0.733,6,21,177,24,1,y,images/br_y.png,images/cb_y.png,,,,,,,,,,,,,,,,,,,,,,,,,
,,,,,,00080,2023-10-24_08h32.08.331,vbt_B1_day1,2022.2.4,Win32,59.95203837,,,,,,,,,,,,,,,,,,,0.386111083,-0.060185185,1,0,0,0.8601,6,22,178,17,1,r,images/br_r.png,images/cb_r.png,,,,,,,,,,,,,,,,,,,,,,,,,
,,,,,,00080,2023-10-24_08h32.08.331,vbt_B1_day1,2022.2.4,Win32,59.95203837,,,,,,,,,,,,,,,,,,,0.386111083,-0.060185185,1,0,0,1.233,6,23,179,4,1,e,images/br_e.png,images/cb_e.png,,,,,,,,,,,,,,,,,,,,,,,,,
,,,,,,00080,2023-10-24_08h32.08.331,vbt_B1_day1,2022.2.4,Win32,59.95203837,,,,,,,,,,,,,,,,,,,0.386111083,-0.060185185,1,0,0,0.533,6,24,180,16,1,q,images/br_q.png,images/cb_q.png,,,,,,,,,,,,,,,,,,,,,,,,,
,,,,,,00080,2023-10-24_08h32.08.331,vbt_B1_day1,2022.2.4,Win32,59.95203837,,,,,,,,,,,,,,,,,,,0.386111083,-0.060185185,1,0,0,0.9831,6,25,181,10,1,k,images/br_k.png,images/cb_k.png,,,,,,,,,,,,,,,,,,,,,,,,,
,,,,,,00080,2023-10-24_08h32.08.331,vbt_B1_day1,2022.2.4,Win32,59.95203837,,,,,,,,,,,,,,,,,,,,,,,,,,,,,,,,,0.172222208,0.086111104,1,0,0,,,,,,,,,,,,,,,,,,,,
,,,,,,00080,2023-10-24_08h32.08.331,vbt_B1_day1,2022.2.4,Win32,59.95203837,,,,,,,,,,,,,,,,,,,,,,,,,,,,,,,,,,,,,,0.167592578,0.097222222,1,0,0,,,,,,,,,,,,,,,
,,,,,,00080,2023-10-24_08h32.08.331,vbt_B1_day1,2022.2.4,Win32,59.95203837,,,,,,,,,,,,,,,,,,,,,,,,,,,,,,,,,,,,,,,,,,,0.167592578,0.097222222,1,0,0,lood.,lood.,0,0,0,47,1,loods,images/br_loods.png,images/cb_loods.png
,,,,,,00080,2023-10-24_08h32.08.331,vbt_B1_day1,2022.2.4,Win32,59.95203837,,,,,,,,,,,,,,,,,,,,,,,,,,,,,,,,,,,,,,,,,,,0.167592578,0.097222222,1,0,0,.,.,0,1,1,18,1,uitdelen,images/br_uitdelen.png,images/cb_uitdelen.png
,,,,,,00080,2023-10-24_08h32.08.331,vbt_B1_day1,2022.2.4,Win32,59.95203837,,,,,,,,,,,,,,,,,,,,,,,,,,,,,,,,,,,,,,,,,,,0.167592578,0.097222222,1,0,0,liegen,liegen,0,2,2,50,1,liegen,images/br_liegen.png,images/cb_liegen.png
,,,,,,00080,2023-10-24_08h32.08.331,vbt_B1_day1,2022.2.4,Win32,59.95203837,,,,,,,,,,,,,,,,,,,,,,,,,,,,,,,,,,,,,,,,,,,0.167592578,0.097222222,1,0,0,ma..,ma..,0,3,3,3,1,mand,images/br_mand.png,images/cb_mand.png
,,,,,,00080,2023-10-24_08h32.08.331,vbt_B1_day1,2022.2.4,Win32,59.95203837,,,,,,,,,,,,,,,,,,,,,,,,,,,,,,,,,,,,,,,,,,,0.167592578,0.097222222,1,0,0,re.er,re.er,0,4,4,24,1,rezer,images/br_rezer.png,images/cb_rezer.png
,,,,,,00080,2023-10-24_08h32.08.331,vbt_B1_day1,2022.2.4,Win32,59.95203837,,,,,,,,,,,,,,,,,,,,,,,,,,,,,,,,,,,,,,,,,,,0.167592578,0.097222222,1,0,0,dief,dief,0,5,5,40,1,dief,images/br_dief.png,images/cb_dief.png
,,,,,,00080,2023-10-24_08h32.08.331,vbt_B1_day1,2022.2.4,Win32,59.95203837,,,,,,,,,,,,,,,,,,,,,,,,,,,,,,,,,,,,,,,,,,,0.263888889,-0.01666666,1,0,0,witze,witze,0,6,6,44,1,wijze,images/br_wijze.png,images/cb_wijze.png
,,,,,,00080,2023-10-24_08h32.08.331,vbt_B1_day1,2022.2.4,Win32,59.95203837,,,,,,,,,,,,,,,,,,,,,,,,,,,,,,,,,,,,,,,,,,,0.263888889,-0.01666666,1,0,0,daar...,daar...,0,7,7,16,1,daarheen,images/br_daarheen.png,images/cb_daarheen.png
,,,,,,00080,2023-10-24_08h32.08.331,vbt_B1_day1,2022.2.4,Win32,59.95203837,,,,,,,,,,,,,,,,,,,,,,,,,,,,,,,,,,,,,,,,,,,0.263888889,-0.01666666,1,0,0,dlull..,dlull..,0,8,8,33,1,flullen,images/br_flullen.png,images/cb_flullen.png
,,,,,,00080,2023-10-24_08h32.08.331,vbt_B1_day1,2022.2.4,Win32,59.95203837,,,,,,,,,,,,,,,,,,,,,,,,,,,,,,,,,,,,,,,,,,,0.263888889,-0.01666666,1,0,0,fictie,fictie,0,9,9,48,1,fictie,images/br_fictie.png,images/cb_fictie.png
,,,,,,00080,2023-10-24_08h32.08.331,vbt_B1_day1,2022.2.4,Win32,59.95203837,,,,,,,,,,,,,,,,,,,,,,,,,,,,,,,,,,,,,,,,,,,0.054629644,-0.045370384,1,0,0,valop,valop,0,10,10,26,1,valop,images/br_valop.png,images/cb_valop.png
,,,,,,00080,2023-10-24_08h32.08.331,vbt_B1_day1,2022.2.4,Win32,59.95203837,,,,,,,,,,,,,,,,,,,,,,,,,,,,,,,,,,,,,,,,,,,0.260185171,0.027777778,1,0,0,st.i...,st.i...,0,11,11,35,1,stuikem,images/br_stuikem.png,images/cb_stuikem.png
,,,,,,00080,2023-10-24_08h32.08.331,vbt_B1_day1,2022.2.4,Win32,59.95203837,,,,,,,,,,,,,,,,,,,,,,,,,,,,,,,,,,,,,,,,,,,0.27407406,-0.078703704,1,0,0,attentie,attentie,0,12,12,17,1,attentie,images/br_attentie.png,images/cb_attentie.png
,,,,,,00080,2023-10-24_08h32.08.331,vbt_B1_day1,2022.2.4,Win32,59.95203837,,,,,,,,,,,,,,,,,,,,,,,,,,,,,,,,,,,,,,,,,,,0.14444443,-0.055555556,1,0,0,menung,menung,0,13,13,11,1,mening,images/br_mening.png,images/cb_mening.png
,,,,,,00080,2023-10-24_08h32.08.331,vbt_B1_day1,2022.2.4,Win32,59.95203837,,,,,,,,,,,,,,,,,,,,,,,,,,,,,,,,,,,,,,,,,,,0.14444443,-0.055555556,1,0,0,lava,lava,0,14,14,43,1,lava,images/br_lava.png,images/cb_lava.png
,,,,,,00080,2023-10-24_08h32.08.331,vbt_B1_day1,2022.2.4,Win32,59.95203837,,,,,,,,,,,,,,,,,,,,,,,,,,,,,,,,,,,,,,,,,,,0.14444443,-0.055555556,1,0,0,spanzi..,spanzi..,0,15,15,37,1,spanzing,images/br_spanzing.png,images/cb_spanzing.png
,,,,,,00080,2023-10-24_08h32.08.331,vbt_B1_day1,2022.2.4,Win32,59.95203837,,,,,,,,,,,,,,,,,,,,,,,,,,,,,,,,,,,,,,,,,,,0.14444443,-0.055555556,1,0,0,hiervan,hiervan,0,16,16,15,1,hiervan,images/br_hiervan.png,images/cb_hiervan.png
,,,,,,00080,2023-10-24_08h32.08.331,vbt_B1_day1,2022.2.4,Win32,59.95203837,,,,,,,,,,,,,,,,,,,,,,,,,,,,,,,,,,,,,,,,,,,0.14444443,-0.055555556,1,0,0,slak,slak,0,17,17,0,1,slak,images/br_slak.png,images/cb_slak.png
,,,,,,00080,2023-10-24_08h32.08.331,vbt_B1_day1,2022.2.4,Win32,59.95203837,,,,,,,,,,,,,,,,,,,,,,,,,,,,,,,,,,,,,,,,,,,0.14444443,-0.055555556,1,0,0,genen.,genen.,0,18,18,29,1,genond,images/br_genond.png,images/cb_genond.png
,,,,,,00080,2023-10-24_08h32.08.331,vbt_B1_day1,2022.2.4,Win32,59.95203837,,,,,,,,,,,,,,,,,,,,,,,,,,,,,,,,,,,,,,,,,,,0.14444443,-0.055555556,1,0,0,booi,booi,0,19,19,23,1,booi,images/br_booi.png,images/cb_booi.png
,,,,,,00080,2023-10-24_08h32.08.331,vbt_B1_day1,2022.2.4,Win32,59.95203837,,,,,,,,,,,,,,,,,,,,,,,,,,,,,,,,,,,,,,,,,,,0.14444443,-0.055555556,1,0,0,opvatten,opvatten,0,20,20,59,1,opvatten,images/br_opvatten.png,images/cb_opvatten.png
,,,,,,00080,2023-10-24_08h32.08.331,vbt_B1_day1,2022.2.4,Win32,59.95203837,,,,,,,,,,,,,,,,,,,,,,,,,,,,,,,,,,,,,,,,,,,0.14444443,-0.055555556,1,0,0,daar,daar,0,21,21,2,1,jaar,images/br_jaar.png,images/cb_jaar.png
,,,,,,00080,2023-10-24_08h32.08.331,vbt_B1_day1,2022.2.4,Win32,59.95203837,,,,,,,,,,,,,,,,,,,,,,,,,,,,,,,,,,,,,,,,,,,0.14444443,-0.055555556,1,0,0,zaal,zaal,0,22,22,1,1,zaal,images/br_zaal.png,images/cb_zaal.png
,,,,,,00080,2023-10-24_08h32.08.331,vbt_B1_day1,2022.2.4,Win32,59.95203837,,,,,,,,,,,,,,,,,,,,,,,,,,,,,,,,,,,,,,,,,,,0.14444443,-0.055555556,1,0,0,opslaan,opslaan,0,23,23,53,1,opslaan,images/br_opslaan.png,images/cb_opslaan.png
,,,,,,00080,2023-10-24_08h32.08.331,vbt_B1_day1,2022.2.4,Win32,59.95203837,,,,,,,,,,,,,,,,,,,,,,,,,,,,,,,,,,,,,,,,,,,0.14444443,-0.055555556,1,0,0,sch.....,sch.....,0,24,24,19,1,schuilen,images/br_schuilen.png,images/cb_schuilen.png
,,,,,,00080,2023-10-24_08h32.08.331,vbt_B1_day1,2022.2.4,Win32,59.95203837,,,,,,,,,,,,,,,,,,,,,,,,,,,,,,,,,,,,,,,,,,,0.14444443,-0.055555556,1,0,0,maken,maken,0,25,25,5,1,maken,images/br_maken.png,images/cb_maken.png
,,,,,,00080,2023-10-24_08h32.08.331,vbt_B1_day1,2022.2.4,Win32,59.95203837,,,,,,,,,,,,,,,,,,,,,,,,,,,,,,,,,,,,,,,,,,,0.14444443,-0.055555556,1,0,0,twedf..,twedf..,0,26,26,13,1,twijfel,images/br_twijfel.png,images/cb_twijfel.png
,,,,,,00080,2023-10-24_08h32.08.331,vbt_B1_day1,2022.2.4,Win32,59.95203837,,,,,,,,,,,,,,,,,,,,,,,,,,,,,,,,,,,,,,,,,,,0.14444443,-0.055555556,1,0,0,verva...,verva...,0,27,27,36,1,vervaden,images/br_vervaden.png,images/cb_vervaden.png
,,,,,,00080,2023-10-24_08h32.08.331,vbt_B1_day1,2022.2.4,Win32,59.95203837,,,,,,,,,,,,,,,,,,,,,,,,,,,,,,,,,,,,,,,,,,,0.14444443,-0.055555556,1,0,0,beb...,beb...,0,28,28,28,1,bebrip,images/br_bebrip.png,images/cb_bebrip.png
,,,,,,00080,2023-10-24_08h32.08.331,vbt_B1_day1,2022.2.4,Win32,59.95203837,,,,,,,,,,,,,,,,,,,,,,,,,,,,,,,,,,,,,,,,,,,0.137962977,-0.055555556,1,0,0,reedfe,reedfe,0,29,29,30,1,reedje,images/br_reedje.png,images/cb_reedje.png
,,,,,,00080,2023-10-24_08h32.08.331,vbt_B1_day1,2022.2.4,Win32,59.95203837,,,,,,,,,,,,,,,,,,,,,,,,,,,,,,,,,,,,,,,,,,,0.137962977,-0.055555556,1,0,0,drid,drid,0,30,30,21,1,dred,images/br_dred.png,images/cb_dred.png
,,,,,,00080,2023-10-24_08h32.08.331,vbt_B1_day1,2022.2.4,Win32,59.95203837,,,,,,,,,,,,,,,,,,,,,,,,,,,,,,,,,,,,,,,,,,,0.137962977,-0.055555556,1,0,0,voorkant,voorkant,0,31,31,58,1,voorkeur,images/br_voorkeur.png,images/cb_voorkeur.png
,,,,,,00080,2023-10-24_08h32.08.331,vbt_B1_day1,2022.2.4,Win32,59.95203837,,,,,,,,,,,,,,,,,,,,,,,,,,,,,,,,,,,,,,,,,,,0.137962977,-0.055555556,1,0,0,lochte.,lochte.,0,32,32,34,1,lochten,images/br_lochten.png,images/cb_lochten.png
,,,,,,00080,2023-10-24_08h32.08.331,vbt_B1_day1,2022.2.4,Win32,59.95203837,,,,,,,,,,,,,,,,,,,,,,,,,,,,,,,,,,,,,,,,,,,0.137962977,-0.055555556,1,0,0,tekenen,tekenen,0,33,33,55,1,tekenen,images/br_tekenen.png,images/cb_tekenen.png
,,,,,,00080,2023-10-24_08h32.08.331,vbt_B1_day1,2022.2.4,Win32,59.95203837,,,,,,,,,,,,,,,,,,,,,,,,,,,,,,,,,,,,,,,,,,,0.137962977,-0.055555556,1,0,0,honder,honder,0,34,34,8,1,kanjer,images/br_kanjer.png,images/cb_kanjer.png
,,,,,,00080,2023-10-24_08h32.08.331,vbt_B1_day1,2022.2.4,Win32,59.95203837,,,,,,,,,,,,,,,,,,,,,,,,,,,,,,,,,,,,,,,,,,,0.137962977,-0.055555556,1,0,0,muziek,muziek,0,35,35,10,1,muziek,images/br_muziek.png,images/cb_muziek.png
,,,,,,00080,2023-10-24_08h32.08.331,vbt_B1_day1,2022.2.4,Win32,59.95203837,,,,,,,,,,,,,,,,,,,,,,,,,,,,,,,,,,,,,,,,,,,0.137962977,-0.055555556,1,0,0,klimmen,klimmen,0,36,36,12,1,klimmen,images/br_klimmen.png,images/cb_klimmen.png
,,,,,,00080,2023-10-24_08h32.08.331,vbt_B1_day1,2022.2.4,Win32,59.95203837,,,,,,,,,,,,,,,,,,,,,,,,,,,,,,,,,,,,,,,,,,,0.137962977,-0.055555556,1,0,0,schep,schep,0,37,37,4,1,schep,images/br_schep.png,images/cb_schep.png
,,,,,,00080,2023-10-24_08h32.08.331,vbt_B1_day1,2022.2.4,Win32,59.95203837,,,,,,,,,,,,,,,,,,,,,,,,,,,,,,,,,,,,,,,,,,,0.137962977,-0.055555556,1,0,0,vizier,vizier,0,38,38,49,1,vizier,images/br_vizier.png,images/cb_vizier.png
,,,,,,00080,2023-10-24_08h32.08.331,vbt_B1_day1,2022.2.4,Win32,59.95203837,,,,,,,,,,,,,,,,,,,,,,,,,,,,,,,,,,,,,,,,,,,0.137962977,-0.055555556,1,0,0,schiel..,schiel..,0,39,39,38,1,schielen,images/br_schielen.png,images/cb_schielen.png
,,,,,,00080,2023-10-24_08h32.08.331,vbt_B1_day1,2022.2.4,Win32,59.95203837,,,,,,,,,,,,,,,,,,,,,,,,,,,,,,,,,,,,,,,,,,,0.137962977,-0.055555556,1,0,0,stuk,stuk,0,40,40,42,1,stuk,images/br_stuk.png,images/cb_stuk.png
,,,,,,00080,2023-10-24_08h32.08.331,vbt_B1_day1,2022.2.4,Win32,59.95203837,,,,,,,,,,,,,,,,,,,,,,,,,,,,,,,,,,,,,,,,,,,0.137962977,-0.055555556,1,0,0,sta.en,sta.en,0,41,41,31,1,stamen,images/br_stamen.png,images/cb_stamen.png
,,,,,,00080,2023-10-24_08h32.08.331,vbt_B1_day1,2022.2.4,Win32,59.95203837,,,,,,,,,,,,,,,,,,,,,,,,,,,,,,,,,,,,,,,,,,,0.137962977,-0.055555556,1,0,0,..bbel,..bbel,0,42,42,9,1,dubbel,images/br_dubbel.png,images/cb_dubbel.png
,,,,,,00080,2023-10-24_08h32.08.331,vbt_B1_day1,2022.2.4,Win32,59.95203837,,,,,,,,,,,,,,,,,,,,,,,,,,,,,,,,,,,,,,,,,,,0.137962977,-0.055555556,1,0,0,hoog,hoog,0,43,43,41,1,hoog,images/br_hoog.png,images/cb_hoog.png
,,,,,,00080,2023-10-24_08h32.08.331,vbt_B1_day1,2022.2.4,Win32,59.95203837,,,,,,,,,,,,,,,,,,,,,,,,,,,,,,,,,,,,,,,,,,,0.137962977,-0.055555556,1,0,0,tars,tars,0,44,44,20,1,tars,images/br_tars.png,images/cb_tars.png
,,,,,,00080,2023-10-24_08h32.08.331,vbt_B1_day1,2022.2.4,Win32,59.95203837,,,,,,,,,,,,,,,,,,,,,,,,,,,,,,,,,,,,,,,,,,,0.137962977,-0.055555556,1,0,0,meenemen,meenemen,0,45,45,57,1,meenemen,images/br_meenemen.png,images/cb_meenemen.png
,,,,,,00080,2023-10-24_08h32.08.331,vbt_B1_day1,2022.2.4,Win32,59.95203837,,,,,,,,,,,,,,,,,,,,,,,,,,,,,,,,,,,,,,,,,,,0.137962977,-0.055555556,1,0,0,toezi..,toezi..,0,46,46,56,1,toezicht,images/br_toezicht.png,images/cb_toezicht.png
,,,,,,00080,2023-10-24_08h32.08.331,vbt_B1_day1,2022.2.4,Win32,59.95203837,,,,,,,,,,,,,,,,,,,,,,,,,,,,,,,,,,,,,,,,,,,0.137962977,-0.055555556,1,0,0,voorri..,voorri..,0,47,47,39,1,voorreur,images/br_voorreur.png,images/cb_voorreur.png
,,,,,,00080,2023-10-24_08h32.08.331,vbt_B1_day1,2022.2.4,Win32,59.95203837,,,,,,,,,,,,,,,,,,,,,,,,,,,,,,,,,,,,,,,,,,,0.137962977,-0.055555556,1,0,0,bleek,bleek,0,48,48,6,1,bleek,images/br_bleek.png,images/cb_bleek.png
,,,,,,00080,2023-10-24_08h32.08.331,vbt_B1_day1,2022.2.4,Win32,59.95203837,,,,,,,,,,,,,,,,,,,,,,,,,,,,,,,,,,,,,,,,,,,0.137962977,-0.055555556,1,0,0,oplaa.,oplaa.,0,49,49,32,1,opplaan,images/br_opplaan.png,images/cb_opplaan.png
,,,,,,00080,2023-10-24_08h32.08.331,vbt_B1_day1,2022.2.4,Win32,59.95203837,,,,,,,,,,,,,,,,,,,,,,,,,,,,,,,,,,,,,,,,,,,0.137962977,-0.055555556,1,0,0,prort,prort,0,50,50,27,1,prort,images/br_prort.png,images/cb_prort.png
,,,,,,00080,2023-10-24_08h32.08.331,vbt_B1_day1,2022.2.4,Win32,59.95203837,,,,,,,,,,,,,,,,,,,,,,,,,,,,,,,,,,,,,,,,,,,0.137962977,-0.055555556,1,0,0,vidft..,vidft..,0,51,51,54,1,vijftig,images/br_vijftig.png,images/cb_vijftig.png
,,,,,,00080,2023-10-24_08h32.08.331,vbt_B1_day1,2022.2.4,Win32,59.95203837,,,,,,,,,,,,,,,,,,,,,,,,,,,,,,,,,,,,,,,,,,,0.137962977,-0.055555556,1,0,0,knoe,knoe,0,52,52,22,1,knoe,images/br_knoe.png,images/cb_knoe.png
,,,,,,00080,2023-10-24_08h32.08.331,vbt_B1_day1,2022.2.4,Win32,59.95203837,,,,,,,,,,,,,,,,,,,,,,,,,,,,,,,,,,,,,,,,,,,0.137962977,-0.055555556,1,0,0,hemel,hemel,0,53,53,45,1,hemel,images/br_hemel.png,images/cb_hemel.png
,,,,,,00080,2023-10-24_08h32.08.331,vbt_B1_day1,2022.2.4,Win32,59.95203837,,,,,,,,,,,,,,,,,,,,,,,,,,,,,,,,,,,,,,,,,,,0.137962977,-0.055555556,1,0,0,klauw,klauw,0,54,54,7,1,klauw,images/br_klauw.png,images/cb_klauw.png
,,,,,,00080,2023-10-24_08h32.08.331,vbt_B1_day1,2022.2.4,Win32,59.95203837,,,,,,,,,,,,,,,,,,,,,,,,,,,,,,,,,,,,,,,,,,,0.137962977,-0.055555556,1,0,0,zipl,zipl,0,55,55,52,1,zuiplap,images/br_zuiplap.png,images/cb_zuiplap.png
,,,,,,00080,2023-10-24_08h32.08.331,vbt_B1_day1,2022.2.4,Win32,59.95203837,,,,,,,,,,,,,,,,,,,,,,,,,,,,,,,,,,,,,,,,,,,0.157407407,0.03611109,1,0,0,lezen,lezen,0,56,56,46,1,lezen,images/br_lezen.png,images/cb_lezen.png
,,,,,,00080,2023-10-24_08h32.08.331,vbt_B1_day1,2022.2.4,Win32,59.95203837,,,,,,,,,,,,,,,,,,,,,,,,,,,,,,,,,,,,,,,,,,,0.157407407,0.03611109,1,0,0,waarvan,waarvan,0,57,57,14,1,waarvan,images/br_waarvan.png,images/cb_waarvan.png
,,,,,,00080,2023-10-24_08h32.08.331,vbt_B1_day1,2022.2.4,Win32,59.95203837,,,,,,,,,,,,,,,,,,,,,,,,,,,,,,,,,,,,,,,,,,,0.157407407,0.03611109,1,0,0,liefde,liefde,0,58,58,51,1,liefde,images/br_liefde.png,images/cb_liefde.png
,,,,,,00080,2023-10-24_08h32.08.331,vbt_B1_day1,2022.2.4,Win32,59.95203837,,,,,,,,,,,,,,,,,,,,,,,,,,,,,,,,,,,,,,,,,,,0.157407407,0.03611109,1,0,0,bridk,bridk,0,59,59,25,1,brijk,images/br_brijk.png,images/cb_brijk.png
,,,,,,00080,2023-10-24_08h32.08.331,vbt_B1_day1,2022.2.4,Win32,59.95203837,,,,,,,,,,,,,,,,,,,,,,,,,,,,,,,,,,,,,,,,,,,,,,,,,,,,,,,,,
