welcome_mouse.x,welcome_mouse.y,welcome_mouse.leftButton,welcome_mouse.midButton,welcome_mouse.rightButton,welcome_mouse.time,"ID",date,expName,psychopyVersion,OS,frameRate,mouse_2.x,mouse_2.y,mouse_2.leftButton,mouse_2.midButton,mouse_2.rightButton,mouse_2.time,mouse_3.x,mouse_3.y,mouse_3.leftButton,mouse_3.midButton,mouse_3.rightButton,mouse_3.time,train_mouse.x,train_mouse.y,train_mouse.leftButton,train_mouse.midButton,train_mouse.rightButton,train_mouse.time,braille_mouse.x,braille_mouse.y,braille_mouse.leftButton,braille_mouse.midButton,braille_mouse.rightButton,braille_mouse.time,trials.thisRepN,trials.thisTrialN,trials.thisN,trials.thisIndex,trials.ran,nlLet,brLet,cbLet,mouse.x,mouse.y,mouse.leftButton,mouse.midButton,mouse.rightButton,testInstr_mouse.x,testInstr_mouse.y,testInstr_mouse.leftButton,testInstr_mouse.midButton,testInstr_mouse.rightButton,test_mouse.x,test_mouse.y,test_mouse.leftButton,test_mouse.midButton,test_mouse.rightButton,test_response.text,testResp,test_loop.thisRepN,test_loop.thisTrialN,test_loop.thisN,test_loop.thisIndex,test_loop.ran,nlWrd,brWrd,cbWrd
0.078703704,0.140740748,1,0,0,20.9711,00033,2023-09-18_06h33.31.336,vbt_B1_day1,2022.2.4,Win32,60.00960154,,,,,,,,,,,,,,,,,,,,,,,,,,,,,,,,,,,,,,,,,,,,,,,,,,,,,,,,,
,,,,,,00033,2023-09-18_06h33.31.336,vbt_B1_day1,2022.2.4,Win32,60.00960154,0.213888875,-0.180555556,1,0,0,14.0827,,,,,,,,,,,,,,,,,,,,,,,,,,,,,,,,,,,,,,,,,,,,,,,,,,,
,,,,,,00033,2023-09-18_06h33.31.336,vbt_B1_day1,2022.2.4,Win32,60.00960154,,,,,,,0.288888931,0.127777771,1,0,0,48.1046,,,,,,,,,,,,,,,,,,,,,,,,,,,,,,,,,,,,,,,,,,,,,
,,,,,,00033,2023-09-18_06h33.31.336,vbt_B1_day1,2022.2.4,Win32,60.00960154,,,,,,,,,,,,,0.288888931,0.127777771,1,0,0,42.4248,,,,,,,,,,,,,,,,,,,,,,,,,,,,,,,,,,,,,,,
,,,,,,00033,2023-09-18_06h33.31.336,vbt_B1_day1,2022.2.4,Win32,60.00960154,,,,,,,,,,,,,,,,,,,0.288888931,0.127777771,1,0,0,5.7334,0,0,0,5,1,f,images/br_f.png,images/cb_f.png,,,,,,,,,,,,,,,,,,,,,,,,,
,,,,,,00033,2023-09-18_06h33.31.336,vbt_B1_day1,2022.2.4,Win32,60.00960154,,,,,,,,,,,,,,,,,,,0.288888931,0.127777771,1,0,0,9.5973,0,1,1,24,1,y,images/br_y.png,images/cb_y.png,,,,,,,,,,,,,,,,,,,,,,,,,
,,,,,,00033,2023-09-18_06h33.31.336,vbt_B1_day1,2022.2.4,Win32,60.00960154,,,,,,,,,,,,,,,,,,,0.288888931,0.127777771,1,0,0,5.351,0,2,2,17,1,r,images/br_r.png,images/cb_r.png,,,,,,,,,,,,,,,,,,,,,,,,,
,,,,,,00033,2023-09-18_06h33.31.336,vbt_B1_day1,2022.2.4,Win32,60.00960154,,,,,,,,,,,,,,,,,,,0.288888931,0.127777771,1,0,0,10.433,0,3,3,15,1,p,images/br_p.png,images/cb_p.png,,,,,,,,,,,,,,,,,,,,,,,,,
,,,,,,00033,2023-09-18_06h33.31.336,vbt_B1_day1,2022.2.4,Win32,60.00960154,,,,,,,,,,,,,,,,,,,0.288888931,0.127777771,1,0,0,6.383,0,4,4,13,1,n,images/br_n.png,images/cb_n.png,,,,,,,,,,,,,,,,,,,,,,,,,
,,,,,,00033,2023-09-18_06h33.31.336,vbt_B1_day1,2022.2.4,Win32,60.00960154,,,,,,,,,,,,,,,,,,,0.288888931,0.127777771,1,0,0,6.8003,0,5,5,0,1,a,images/br_a.png,images/cb_a.png,,,,,,,,,,,,,,,,,,,,,,,,,
,,,,,,00033,2023-09-18_06h33.31.336,vbt_B1_day1,2022.2.4,Win32,60.00960154,,,,,,,,,,,,,,,,,,,0.288888931,0.127777771,1,0,0,2.5724,0,6,6,2,1,c,images/br_c.png,images/cb_c.png,,,,,,,,,,,,,,,,,,,,,,,,,
,,,,,,00033,2023-09-18_06h33.31.336,vbt_B1_day1,2022.2.4,Win32,60.00960154,,,,,,,,,,,,,,,,,,,0.288888931,0.127777771,1,0,0,6.6663,0,7,7,22,1,w,images/br_w.png,images/cb_w.png,,,,,,,,,,,,,,,,,,,,,,,,,
,,,,,,00033,2023-09-18_06h33.31.336,vbt_B1_day1,2022.2.4,Win32,60.00960154,,,,,,,,,,,,,,,,,,,0.288888931,0.127777771,1,0,0,5.7786,0,8,8,7,1,h,images/br_h.png,images/cb_h.png,,,,,,,,,,,,,,,,,,,,,,,,,
,,,,,,00033,2023-09-18_06h33.31.336,vbt_B1_day1,2022.2.4,Win32,60.00960154,,,,,,,,,,,,,,,,,,,0.288888931,0.127777771,1,0,0,6.6498,0,9,9,10,1,k,images/br_k.png,images/cb_k.png,,,,,,,,,,,,,,,,,,,,,,,,,
,,,,,,00033,2023-09-18_06h33.31.336,vbt_B1_day1,2022.2.4,Win32,60.00960154,,,,,,,,,,,,,,,,,,,0.288888931,0.127777771,1,0,0,27.7302,0,10,10,1,1,b,images/br_b.png,images/cb_b.png,,,,,,,,,,,,,,,,,,,,,,,,,
,,,,,,00033,2023-09-18_06h33.31.336,vbt_B1_day1,2022.2.4,Win32,60.00960154,,,,,,,,,,,,,,,,,,,0.288888931,0.127777771,1,0,0,22.3978,0,11,11,6,1,g,images/br_g.png,images/cb_g.png,,,,,,,,,,,,,,,,,,,,,,,,,
,,,,,,00033,2023-09-18_06h33.31.336,vbt_B1_day1,2022.2.4,Win32,60.00960154,,,,,,,,,,,,,,,,,,,0.288888931,0.127777771,1,0,0,16.2652,0,12,12,23,1,x,images/br_x.png,images/cb_x.png,,,,,,,,,,,,,,,,,,,,,,,,,
,,,,,,00033,2023-09-18_06h33.31.336,vbt_B1_day1,2022.2.4,Win32,60.00960154,,,,,,,,,,,,,,,,,,,0.288888931,0.127777771,1,0,0,11.215,0,13,13,18,1,s,images/br_s.png,images/cb_s.png,,,,,,,,,,,,,,,,,,,,,,,,,
,,,,,,00033,2023-09-18_06h33.31.336,vbt_B1_day1,2022.2.4,Win32,60.00960154,,,,,,,,,,,,,,,,,,,0.288888931,0.127777771,1,0,0,14.4326,0,14,14,16,1,q,images/br_q.png,images/cb_q.png,,,,,,,,,,,,,,,,,,,,,,,,,
,,,,,,00033,2023-09-18_06h33.31.336,vbt_B1_day1,2022.2.4,Win32,60.00960154,,,,,,,,,,,,,,,,,,,0.288888931,0.127777771,1,0,0,4.3555,0,15,15,21,1,v,images/br_v.png,images/cb_v.png,,,,,,,,,,,,,,,,,,,,,,,,,
,,,,,,00033,2023-09-18_06h33.31.336,vbt_B1_day1,2022.2.4,Win32,60.00960154,,,,,,,,,,,,,,,,,,,0.288888931,0.127777771,1,0,0,4.3162,0,16,16,14,1,o,images/br_o.png,images/cb_o.png,,,,,,,,,,,,,,,,,,,,,,,,,
,,,,,,00033,2023-09-18_06h33.31.336,vbt_B1_day1,2022.2.4,Win32,60.00960154,,,,,,,,,,,,,,,,,,,0.288888931,0.127777771,1,0,0,0.0164,0,17,17,11,1,l,images/br_l.png,images/cb_l.png,,,,,,,,,,,,,,,,,,,,,,,,,
,,,,,,00033,2023-09-18_06h33.31.336,vbt_B1_day1,2022.2.4,Win32,60.00960154,,,,,,,,,,,,,,,,,,,0.288888931,0.127777771,1,0,0,16.1653,0,18,18,4,1,e,images/br_e.png,images/cb_e.png,,,,,,,,,,,,,,,,,,,,,,,,,
,,,,,,00033,2023-09-18_06h33.31.336,vbt_B1_day1,2022.2.4,Win32,60.00960154,,,,,,,,,,,,,,,,,,,0.288888931,0.127777771,1,0,0,7.883,0,19,19,3,1,d,images/br_d.png,images/cb_d.png,,,,,,,,,,,,,,,,,,,,,,,,,
,,,,,,00033,2023-09-18_06h33.31.336,vbt_B1_day1,2022.2.4,Win32,60.00960154,,,,,,,,,,,,,,,,,,,0.288888931,0.127777771,1,0,0,5.8663,0,20,20,9,1,j,images/br_j.png,images/cb_j.png,,,,,,,,,,,,,,,,,,,,,,,,,
,,,,,,00033,2023-09-18_06h33.31.336,vbt_B1_day1,2022.2.4,Win32,60.00960154,,,,,,,,,,,,,,,,,,,0.288888931,0.127777771,1,0,0,12.4983,0,21,21,12,1,m,images/br_m.png,images/cb_m.png,,,,,,,,,,,,,,,,,,,,,,,,,
,,,,,,00033,2023-09-18_06h33.31.336,vbt_B1_day1,2022.2.4,Win32,60.00960154,,,,,,,,,,,,,,,,,,,0.288888931,0.127777771,1,0,0,3.534,0,22,22,20,1,u,images/br_u.png,images/cb_u.png,,,,,,,,,,,,,,,,,,,,,,,,,
,,,,,,00033,2023-09-18_06h33.31.336,vbt_B1_day1,2022.2.4,Win32,60.00960154,,,,,,,,,,,,,,,,,,,0.288888931,0.127777771,1,0,0,5.8331,0,23,23,19,1,t,images/br_t.png,images/cb_t.png,,,,,,,,,,,,,,,,,,,,,,,,,
,,,,,,00033,2023-09-18_06h33.31.336,vbt_B1_day1,2022.2.4,Win32,60.00960154,,,,,,,,,,,,,,,,,,,0.288888931,0.127777771,1,0,0,3.9669,0,24,24,8,1,i,images/br_i.png,images/cb_i.png,,,,,,,,,,,,,,,,,,,,,,,,,
,,,,,,00033,2023-09-18_06h33.31.336,vbt_B1_day1,2022.2.4,Win32,60.00960154,,,,,,,,,,,,,,,,,,,0.288888931,0.127777771,1,0,0,6.5887,0,25,25,25,1,z,images/br_z.png,images/cb_z.png,,,,,,,,,,,,,,,,,,,,,,,,,
,,,,,,00033,2023-09-18_06h33.31.336,vbt_B1_day1,2022.2.4,Win32,60.00960154,,,,,,,,,,,,,,,,,,,0.288888931,0.127777771,1,0,0,5.7044,1,0,26,25,1,z,images/br_z.png,images/cb_z.png,,,,,,,,,,,,,,,,,,,,,,,,,
,,,,,,00033,2023-09-18_06h33.31.336,vbt_B1_day1,2022.2.4,Win32,60.00960154,,,,,,,,,,,,,,,,,,,0.291666667,0.095370363,1,0,0,4.0166,1,1,27,11,1,l,images/br_l.png,images/cb_l.png,,,,,,,,,,,,,,,,,,,,,,,,,
,,,,,,00033,2023-09-18_06h33.31.336,vbt_B1_day1,2022.2.4,Win32,60.00960154,,,,,,,,,,,,,,,,,,,0.291666667,0.095370363,1,0,0,10.0148,1,2,28,15,1,p,images/br_p.png,images/cb_p.png,,,,,,,,,,,,,,,,,,,,,,,,,
,,,,,,00033,2023-09-18_06h33.31.336,vbt_B1_day1,2022.2.4,Win32,60.00960154,,,,,,,,,,,,,,,,,,,0.291666667,0.095370363,1,0,0,2.4659,1,3,29,10,1,k,images/br_k.png,images/cb_k.png,,,,,,,,,,,,,,,,,,,,,,,,,
,,,,,,00033,2023-09-18_06h33.31.336,vbt_B1_day1,2022.2.4,Win32,60.00960154,,,,,,,,,,,,,,,,,,,0.291666667,0.095370363,1,0,0,1.6172,1,4,30,1,1,b,images/br_b.png,images/cb_b.png,,,,,,,,,,,,,,,,,,,,,,,,,
,,,,,,00033,2023-09-18_06h33.31.336,vbt_B1_day1,2022.2.4,Win32,60.00960154,,,,,,,,,,,,,,,,,,,0.291666667,0.095370363,1,0,0,0.1228,1,5,31,4,1,e,images/br_e.png,images/cb_e.png,,,,,,,,,,,,,,,,,,,,,,,,,
,,,,,,00033,2023-09-18_06h33.31.336,vbt_B1_day1,2022.2.4,Win32,60.00960154,,,,,,,,,,,,,,,,,,,0.291666667,0.095370363,1,0,0,2.1892,1,6,32,19,1,t,images/br_t.png,images/cb_t.png,,,,,,,,,,,,,,,,,,,,,,,,,
,,,,,,00033,2023-09-18_06h33.31.336,vbt_B1_day1,2022.2.4,Win32,60.00960154,,,,,,,,,,,,,,,,,,,0.291666667,0.095370363,1,0,0,0.7673,1,7,33,8,1,i,images/br_i.png,images/cb_i.png,,,,,,,,,,,,,,,,,,,,,,,,,
,,,,,,00033,2023-09-18_06h33.31.336,vbt_B1_day1,2022.2.4,Win32,60.00960154,,,,,,,,,,,,,,,,,,,0.291666667,0.095370363,1,0,0,10.7493,1,8,34,13,1,n,images/br_n.png,images/cb_n.png,,,,,,,,,,,,,,,,,,,,,,,,,
,,,,,,00033,2023-09-18_06h33.31.336,vbt_B1_day1,2022.2.4,Win32,60.00960154,,,,,,,,,,,,,,,,,,,0.291666667,0.095370363,1,0,0,5.7836,1,9,35,12,1,m,images/br_m.png,images/cb_m.png,,,,,,,,,,,,,,,,,,,,,,,,,
,,,,,,00033,2023-09-18_06h33.31.336,vbt_B1_day1,2022.2.4,Win32,60.00960154,,,,,,,,,,,,,,,,,,,0.291666667,0.095370363,1,0,0,1.2842,1,10,36,24,1,y,images/br_y.png,images/cb_y.png,,,,,,,,,,,,,,,,,,,,,,,,,
,,,,,,00033,2023-09-18_06h33.31.336,vbt_B1_day1,2022.2.4,Win32,60.00960154,,,,,,,,,,,,,,,,,,,0.291666667,0.095370363,1,0,0,0.4837,1,11,37,0,1,a,images/br_a.png,images/cb_a.png,,,,,,,,,,,,,,,,,,,,,,,,,
,,,,,,00033,2023-09-18_06h33.31.336,vbt_B1_day1,2022.2.4,Win32,60.00960154,,,,,,,,,,,,,,,,,,,0.291666667,0.095370363,1,0,0,8.783,1,12,38,20,1,u,images/br_u.png,images/cb_u.png,,,,,,,,,,,,,,,,,,,,,,,,,
,,,,,,00033,2023-09-18_06h33.31.336,vbt_B1_day1,2022.2.4,Win32,60.00960154,,,,,,,,,,,,,,,,,,,0.291666667,0.095370363,1,0,0,1.5984,1,13,39,23,1,x,images/br_x.png,images/cb_x.png,,,,,,,,,,,,,,,,,,,,,,,,,
,,,,,,00033,2023-09-18_06h33.31.336,vbt_B1_day1,2022.2.4,Win32,60.00960154,,,,,,,,,,,,,,,,,,,0.291666667,0.095370363,1,0,0,2.6998,1,14,40,17,1,r,images/br_r.png,images/cb_r.png,,,,,,,,,,,,,,,,,,,,,,,,,
,,,,,,00033,2023-09-18_06h33.31.336,vbt_B1_day1,2022.2.4,Win32,60.00960154,,,,,,,,,,,,,,,,,,,0.291666667,0.095370363,1,0,0,0.4,1,15,41,14,1,o,images/br_o.png,images/cb_o.png,,,,,,,,,,,,,,,,,,,,,,,,,
,,,,,,00033,2023-09-18_06h33.31.336,vbt_B1_day1,2022.2.4,Win32,60.00960154,,,,,,,,,,,,,,,,,,,0.291666667,0.095370363,1,0,0,5.9283,1,16,42,3,1,d,images/br_d.png,images/cb_d.png,,,,,,,,,,,,,,,,,,,,,,,,,
,,,,,,00033,2023-09-18_06h33.31.336,vbt_B1_day1,2022.2.4,Win32,60.00960154,,,,,,,,,,,,,,,,,,,0.291666667,0.095370363,1,0,0,5.4049,1,17,43,18,1,s,images/br_s.png,images/cb_s.png,,,,,,,,,,,,,,,,,,,,,,,,,
,,,,,,00033,2023-09-18_06h33.31.336,vbt_B1_day1,2022.2.4,Win32,60.00960154,,,,,,,,,,,,,,,,,,,0.291666667,0.095370363,1,0,0,1.4676,1,18,44,16,1,q,images/br_q.png,images/cb_q.png,,,,,,,,,,,,,,,,,,,,,,,,,
,,,,,,00033,2023-09-18_06h33.31.336,vbt_B1_day1,2022.2.4,Win32,60.00960154,,,,,,,,,,,,,,,,,,,0.291666667,0.095370363,1,0,0,0.5177,1,19,45,2,1,c,images/br_c.png,images/cb_c.png,,,,,,,,,,,,,,,,,,,,,,,,,
,,,,,,00033,2023-09-18_06h33.31.336,vbt_B1_day1,2022.2.4,Win32,60.00960154,,,,,,,,,,,,,,,,,,,0.291666667,0.095370363,1,0,0,1.1542,1,20,46,5,1,f,images/br_f.png,images/cb_f.png,,,,,,,,,,,,,,,,,,,,,,,,,
,,,,,,00033,2023-09-18_06h33.31.336,vbt_B1_day1,2022.2.4,Win32,60.00960154,,,,,,,,,,,,,,,,,,,0.291666667,0.095370363,1,0,0,6.5163,1,21,47,6,1,g,images/br_g.png,images/cb_g.png,,,,,,,,,,,,,,,,,,,,,,,,,
,,,,,,00033,2023-09-18_06h33.31.336,vbt_B1_day1,2022.2.4,Win32,60.00960154,,,,,,,,,,,,,,,,,,,0.291666667,0.095370363,1,0,0,1.0013,1,22,48,22,1,w,images/br_w.png,images/cb_w.png,,,,,,,,,,,,,,,,,,,,,,,,,
,,,,,,00033,2023-09-18_06h33.31.336,vbt_B1_day1,2022.2.4,Win32,60.00960154,,,,,,,,,,,,,,,,,,,0.291666667,0.095370363,1,0,0,30.2131,1,23,49,7,1,h,images/br_h.png,images/cb_h.png,,,,,,,,,,,,,,,,,,,,,,,,,
,,,,,,00033,2023-09-18_06h33.31.336,vbt_B1_day1,2022.2.4,Win32,60.00960154,,,,,,,,,,,,,,,,,,,0.291666667,0.095370363,1,0,0,1.7328,1,24,50,9,1,j,images/br_j.png,images/cb_j.png,,,,,,,,,,,,,,,,,,,,,,,,,
,,,,,,00033,2023-09-18_06h33.31.336,vbt_B1_day1,2022.2.4,Win32,60.00960154,,,,,,,,,,,,,,,,,,,0.291666667,0.095370363,1,0,0,2.8294,1,25,51,21,1,v,images/br_v.png,images/cb_v.png,,,,,,,,,,,,,,,,,,,,,,,,,
,,,,,,00033,2023-09-18_06h33.31.336,vbt_B1_day1,2022.2.4,Win32,60.00960154,,,,,,,,,,,,,,,,,,,0.291666667,0.095370363,1,0,0,2.8496,2,0,52,6,1,g,images/br_g.png,images/cb_g.png,,,,,,,,,,,,,,,,,,,,,,,,,
,,,,,,00033,2023-09-18_06h33.31.336,vbt_B1_day1,2022.2.4,Win32,60.00960154,,,,,,,,,,,,,,,,,,,0.291666667,0.095370363,1,0,0,2.5332,2,1,53,12,1,m,images/br_m.png,images/cb_m.png,,,,,,,,,,,,,,,,,,,,,,,,,
,,,,,,00033,2023-09-18_06h33.31.336,vbt_B1_day1,2022.2.4,Win32,60.00960154,,,,,,,,,,,,,,,,,,,0.291666667,0.095370363,1,0,0,0.1002,2,2,54,4,1,e,images/br_e.png,images/cb_e.png,,,,,,,,,,,,,,,,,,,,,,,,,
,,,,,,00033,2023-09-18_06h33.31.336,vbt_B1_day1,2022.2.4,Win32,60.00960154,,,,,,,,,,,,,,,,,,,0.291666667,0.095370363,1,0,0,1.7669,2,3,55,19,1,t,images/br_t.png,images/cb_t.png,,,,,,,,,,,,,,,,,,,,,,,,,
,,,,,,00033,2023-09-18_06h33.31.336,vbt_B1_day1,2022.2.4,Win32,60.00960154,,,,,,,,,,,,,,,,,,,0.291666667,0.095370363,1,0,0,3.5883,2,4,56,11,1,l,images/br_l.png,images/cb_l.png,,,,,,,,,,,,,,,,,,,,,,,,,
,,,,,,00033,2023-09-18_06h33.31.336,vbt_B1_day1,2022.2.4,Win32,60.00960154,,,,,,,,,,,,,,,,,,,0.291666667,0.095370363,1,0,0,3.2504,2,5,57,9,1,j,images/br_j.png,images/cb_j.png,,,,,,,,,,,,,,,,,,,,,,,,,
,,,,,,00033,2023-09-18_06h33.31.336,vbt_B1_day1,2022.2.4,Win32,60.00960154,,,,,,,,,,,,,,,,,,,0.291666667,0.095370363,1,0,0,0.5392,2,6,58,5,1,f,images/br_f.png,images/cb_f.png,,,,,,,,,,,,,,,,,,,,,,,,,
,,,,,,00033,2023-09-18_06h33.31.336,vbt_B1_day1,2022.2.4,Win32,60.00960154,,,,,,,,,,,,,,,,,,,0.291666667,0.095370363,1,0,0,0.4657,2,7,59,17,1,r,images/br_r.png,images/cb_r.png,,,,,,,,,,,,,,,,,,,,,,,,,
,,,,,,00033,2023-09-18_06h33.31.336,vbt_B1_day1,2022.2.4,Win32,60.00960154,,,,,,,,,,,,,,,,,,,0.291666667,0.095370363,1,0,0,1.5298,2,8,60,2,1,c,images/br_c.png,images/cb_c.png,,,,,,,,,,,,,,,,,,,,,,,,,
,,,,,,00033,2023-09-18_06h33.31.336,vbt_B1_day1,2022.2.4,Win32,60.00960154,,,,,,,,,,,,,,,,,,,0.291666667,0.095370363,1,0,0,0.0511,2,9,61,24,1,y,images/br_y.png,images/cb_y.png,,,,,,,,,,,,,,,,,,,,,,,,,
,,,,,,00033,2023-09-18_06h33.31.336,vbt_B1_day1,2022.2.4,Win32,60.00960154,,,,,,,,,,,,,,,,,,,0.291666667,0.095370363,1,0,0,4.2161,2,10,62,21,1,v,images/br_v.png,images/cb_v.png,,,,,,,,,,,,,,,,,,,,,,,,,
,,,,,,00033,2023-09-18_06h33.31.336,vbt_B1_day1,2022.2.4,Win32,60.00960154,,,,,,,,,,,,,,,,,,,0.291666667,0.095370363,1,0,0,31.8962,2,11,63,15,1,p,images/br_p.png,images/cb_p.png,,,,,,,,,,,,,,,,,,,,,,,,,
,,,,,,00033,2023-09-18_06h33.31.336,vbt_B1_day1,2022.2.4,Win32,60.00960154,,,,,,,,,,,,,,,,,,,0.291666667,0.095370363,1,0,0,1.0222,2,12,64,23,1,x,images/br_x.png,images/cb_x.png,,,,,,,,,,,,,,,,,,,,,,,,,
,,,,,,00033,2023-09-18_06h33.31.336,vbt_B1_day1,2022.2.4,Win32,60.00960154,,,,,,,,,,,,,,,,,,,0.291666667,0.095370363,1,0,0,1.1334,2,13,65,20,1,u,images/br_u.png,images/cb_u.png,,,,,,,,,,,,,,,,,,,,,,,,,
,,,,,,00033,2023-09-18_06h33.31.336,vbt_B1_day1,2022.2.4,Win32,60.00960154,,,,,,,,,,,,,,,,,,,0.291666667,0.095370363,1,0,0,2.3169,2,14,66,8,1,i,images/br_i.png,images/cb_i.png,,,,,,,,,,,,,,,,,,,,,,,,,
,,,,,,00033,2023-09-18_06h33.31.336,vbt_B1_day1,2022.2.4,Win32,60.00960154,,,,,,,,,,,,,,,,,,,0.291666667,0.095370363,1,0,0,3.7494,2,15,67,22,1,w,images/br_w.png,images/cb_w.png,,,,,,,,,,,,,,,,,,,,,,,,,
,,,,,,00033,2023-09-18_06h33.31.336,vbt_B1_day1,2022.2.4,Win32,60.00960154,,,,,,,,,,,,,,,,,,,0.291666667,0.095370363,1,0,0,26.2309,2,16,68,3,1,d,images/br_d.png,images/cb_d.png,,,,,,,,,,,,,,,,,,,,,,,,,
,,,,,,00033,2023-09-18_06h33.31.336,vbt_B1_day1,2022.2.4,Win32,60.00960154,,,,,,,,,,,,,,,,,,,0.291666667,0.095370363,1,0,0,1.0794,2,17,69,7,1,h,images/br_h.png,images/cb_h.png,,,,,,,,,,,,,,,,,,,,,,,,,
,,,,,,00033,2023-09-18_06h33.31.336,vbt_B1_day1,2022.2.4,Win32,60.00960154,,,,,,,,,,,,,,,,,,,0.291666667,0.095370363,1,0,0,14.2159,2,18,70,10,1,k,images/br_k.png,images/cb_k.png,,,,,,,,,,,,,,,,,,,,,,,,,
,,,,,,00033,2023-09-18_06h33.31.336,vbt_B1_day1,2022.2.4,Win32,60.00960154,,,,,,,,,,,,,,,,,,,0.291666667,0.095370363,1,0,0,1.7,2,19,71,0,1,a,images/br_a.png,images/cb_a.png,,,,,,,,,,,,,,,,,,,,,,,,,
,,,,,,00033,2023-09-18_06h33.31.336,vbt_B1_day1,2022.2.4,Win32,60.00960154,,,,,,,,,,,,,,,,,,,0.291666667,0.095370363,1,0,0,0.6949,2,20,72,1,1,b,images/br_b.png,images/cb_b.png,,,,,,,,,,,,,,,,,,,,,,,,,
,,,,,,00033,2023-09-18_06h33.31.336,vbt_B1_day1,2022.2.4,Win32,60.00960154,,,,,,,,,,,,,,,,,,,0.291666667,0.095370363,1,0,0,21.1992,2,21,73,13,1,n,images/br_n.png,images/cb_n.png,,,,,,,,,,,,,,,,,,,,,,,,,
,,,,,,00033,2023-09-18_06h33.31.336,vbt_B1_day1,2022.2.4,Win32,60.00960154,,,,,,,,,,,,,,,,,,,0.291666667,0.095370363,1,0,0,1.9836,2,22,74,16,1,q,images/br_q.png,images/cb_q.png,,,,,,,,,,,,,,,,,,,,,,,,,
,,,,,,00033,2023-09-18_06h33.31.336,vbt_B1_day1,2022.2.4,Win32,60.00960154,,,,,,,,,,,,,,,,,,,0.291666667,0.095370363,1,0,0,1.3226,2,23,75,25,1,z,images/br_z.png,images/cb_z.png,,,,,,,,,,,,,,,,,,,,,,,,,
,,,,,,00033,2023-09-18_06h33.31.336,vbt_B1_day1,2022.2.4,Win32,60.00960154,,,,,,,,,,,,,,,,,,,0.291666667,0.095370363,1,0,0,1.4503,2,24,76,14,1,o,images/br_o.png,images/cb_o.png,,,,,,,,,,,,,,,,,,,,,,,,,
,,,,,,00033,2023-09-18_06h33.31.336,vbt_B1_day1,2022.2.4,Win32,60.00960154,,,,,,,,,,,,,,,,,,,0.291666667,0.095370363,1,0,0,16.5653,2,25,77,18,1,s,images/br_s.png,images/cb_s.png,,,,,,,,,,,,,,,,,,,,,,,,,
,,,,,,00033,2023-09-18_06h33.31.336,vbt_B1_day1,2022.2.4,Win32,60.00960154,,,,,,,,,,,,,,,,,,,0.291666667,0.095370363,1,0,0,0.1848,3,0,78,16,1,q,images/br_q.png,images/cb_q.png,,,,,,,,,,,,,,,,,,,,,,,,,
,,,,,,00033,2023-09-18_06h33.31.336,vbt_B1_day1,2022.2.4,Win32,60.00960154,,,,,,,,,,,,,,,,,,,0.291666667,0.095370363,1,0,0,1.4508,3,1,79,6,1,g,images/br_g.png,images/cb_g.png,,,,,,,,,,,,,,,,,,,,,,,,,
,,,,,,00033,2023-09-18_06h33.31.336,vbt_B1_day1,2022.2.4,Win32,60.00960154,,,,,,,,,,,,,,,,,,,0.291666667,0.095370363,1,0,0,0.1669,3,2,80,18,1,s,images/br_s.png,images/cb_s.png,,,,,,,,,,,,,,,,,,,,,,,,,
,,,,,,00033,2023-09-18_06h33.31.336,vbt_B1_day1,2022.2.4,Win32,60.00960154,,,,,,,,,,,,,,,,,,,0.291666667,0.095370363,1,0,0,0.2671,3,3,81,21,1,v,images/br_v.png,images/cb_v.png,,,,,,,,,,,,,,,,,,,,,,,,,
,,,,,,00033,2023-09-18_06h33.31.336,vbt_B1_day1,2022.2.4,Win32,60.00960154,,,,,,,,,,,,,,,,,,,0.291666667,0.095370363,1,0,0,0.7176,3,4,82,19,1,t,images/br_t.png,images/cb_t.png,,,,,,,,,,,,,,,,,,,,,,,,,
,,,,,,00033,2023-09-18_06h33.31.336,vbt_B1_day1,2022.2.4,Win32,60.00960154,,,,,,,,,,,,,,,,,,,0.291666667,0.095370363,1,0,0,1.8505,3,5,83,10,1,k,images/br_k.png,images/cb_k.png,,,,,,,,,,,,,,,,,,,,,,,,,
,,,,,,00033,2023-09-18_06h33.31.336,vbt_B1_day1,2022.2.4,Win32,60.00960154,,,,,,,,,,,,,,,,,,,0.291666667,0.095370363,1,0,0,1.0663,3,6,84,20,1,u,images/br_u.png,images/cb_u.png,,,,,,,,,,,,,,,,,,,,,,,,,
,,,,,,00033,2023-09-18_06h33.31.336,vbt_B1_day1,2022.2.4,Win32,60.00960154,,,,,,,,,,,,,,,,,,,0.291666667,0.095370363,1,0,0,6.1383,3,7,85,5,1,f,images/br_f.png,images/cb_f.png,,,,,,,,,,,,,,,,,,,,,,,,,
,,,,,,00033,2023-09-18_06h33.31.336,vbt_B1_day1,2022.2.4,Win32,60.00960154,,,,,,,,,,,,,,,,,,,0.291666667,0.095370363,1,0,0,1.1883,3,8,86,9,1,j,images/br_j.png,images/cb_j.png,,,,,,,,,,,,,,,,,,,,,,,,,
,,,,,,00033,2023-09-18_06h33.31.336,vbt_B1_day1,2022.2.4,Win32,60.00960154,,,,,,,,,,,,,,,,,,,0.291666667,0.095370363,1,0,0,1.0723,3,9,87,3,1,d,images/br_d.png,images/cb_d.png,,,,,,,,,,,,,,,,,,,,,,,,,
,,,,,,00033,2023-09-18_06h33.31.336,vbt_B1_day1,2022.2.4,Win32,60.00960154,,,,,,,,,,,,,,,,,,,0.291666667,0.095370363,1,0,0,8.3861,3,10,88,4,1,e,images/br_e.png,images/cb_e.png,,,,,,,,,,,,,,,,,,,,,,,,,
,,,,,,00033,2023-09-18_06h33.31.336,vbt_B1_day1,2022.2.4,Win32,60.00960154,,,,,,,,,,,,,,,,,,,0.291666667,0.095370363,1,0,0,0.7651,3,11,89,15,1,p,images/br_p.png,images/cb_p.png,,,,,,,,,,,,,,,,,,,,,,,,,
,,,,,,00033,2023-09-18_06h33.31.336,vbt_B1_day1,2022.2.4,Win32,60.00960154,,,,,,,,,,,,,,,,,,,0.291666667,0.095370363,1,0,0,10.8317,3,12,90,25,1,z,images/br_z.png,images/cb_z.png,,,,,,,,,,,,,,,,,,,,,,,,,
,,,,,,00033,2023-09-18_06h33.31.336,vbt_B1_day1,2022.2.4,Win32,60.00960154,,,,,,,,,,,,,,,,,,,0.291666667,0.095370363,1,0,0,1.0501,3,13,91,0,1,a,images/br_a.png,images/cb_a.png,,,,,,,,,,,,,,,,,,,,,,,,,
,,,,,,00033,2023-09-18_06h33.31.336,vbt_B1_day1,2022.2.4,Win32,60.00960154,,,,,,,,,,,,,,,,,,,0.291666667,0.095370363,1,0,0,4.2053,3,14,92,8,1,i,images/br_i.png,images/cb_i.png,,,,,,,,,,,,,,,,,,,,,,,,,
,,,,,,00033,2023-09-18_06h33.31.336,vbt_B1_day1,2022.2.4,Win32,60.00960154,,,,,,,,,,,,,,,,,,,0.291666667,0.095370363,1,0,0,2.2341,3,15,93,22,1,w,images/br_w.png,images/cb_w.png,,,,,,,,,,,,,,,,,,,,,,,,,
,,,,,,00033,2023-09-18_06h33.31.336,vbt_B1_day1,2022.2.4,Win32,60.00960154,,,,,,,,,,,,,,,,,,,0.291666667,0.095370363,1,0,0,1.5338,3,16,94,11,1,l,images/br_l.png,images/cb_l.png,,,,,,,,,,,,,,,,,,,,,,,,,
,,,,,,00033,2023-09-18_06h33.31.336,vbt_B1_day1,2022.2.4,Win32,60.00960154,,,,,,,,,,,,,,,,,,,0.291666667,0.095370363,1,0,0,0.0228,3,17,95,13,1,n,images/br_n.png,images/cb_n.png,,,,,,,,,,,,,,,,,,,,,,,,,
,,,,,,00033,2023-09-18_06h33.31.336,vbt_B1_day1,2022.2.4,Win32,60.00960154,,,,,,,,,,,,,,,,,,,0.291666667,0.095370363,1,0,0,1.0335,3,18,96,14,1,o,images/br_o.png,images/cb_o.png,,,,,,,,,,,,,,,,,,,,,,,,,
,,,,,,00033,2023-09-18_06h33.31.336,vbt_B1_day1,2022.2.4,Win32,60.00960154,,,,,,,,,,,,,,,,,,,0.291666667,0.095370363,1,0,0,1.1669,3,19,97,1,1,b,images/br_b.png,images/cb_b.png,,,,,,,,,,,,,,,,,,,,,,,,,
,,,,,,00033,2023-09-18_06h33.31.336,vbt_B1_day1,2022.2.4,Win32,60.00960154,,,,,,,,,,,,,,,,,,,0.291666667,0.095370363,1,0,0,1.0545,3,20,98,24,1,y,images/br_y.png,images/cb_y.png,,,,,,,,,,,,,,,,,,,,,,,,,
,,,,,,00033,2023-09-18_06h33.31.336,vbt_B1_day1,2022.2.4,Win32,60.00960154,,,,,,,,,,,,,,,,,,,0.291666667,0.095370363,1,0,0,2.683,3,21,99,12,1,m,images/br_m.png,images/cb_m.png,,,,,,,,,,,,,,,,,,,,,,,,,
,,,,,,00033,2023-09-18_06h33.31.336,vbt_B1_day1,2022.2.4,Win32,60.00960154,,,,,,,,,,,,,,,,,,,0.291666667,0.095370363,1,0,0,1.7502,3,22,100,17,1,r,images/br_r.png,images/cb_r.png,,,,,,,,,,,,,,,,,,,,,,,,,
,,,,,,00033,2023-09-18_06h33.31.336,vbt_B1_day1,2022.2.4,Win32,60.00960154,,,,,,,,,,,,,,,,,,,0.291666667,0.095370363,1,0,0,0.8169,3,23,101,2,1,c,images/br_c.png,images/cb_c.png,,,,,,,,,,,,,,,,,,,,,,,,,
,,,,,,00033,2023-09-18_06h33.31.336,vbt_B1_day1,2022.2.4,Win32,60.00960154,,,,,,,,,,,,,,,,,,,0.291666667,0.095370363,1,0,0,0.4505,3,24,102,23,1,x,images/br_x.png,images/cb_x.png,,,,,,,,,,,,,,,,,,,,,,,,,
,,,,,,00033,2023-09-18_06h33.31.336,vbt_B1_day1,2022.2.4,Win32,60.00960154,,,,,,,,,,,,,,,,,,,0.291666667,0.095370363,1,0,0,1.3499,3,25,103,7,1,h,images/br_h.png,images/cb_h.png,,,,,,,,,,,,,,,,,,,,,,,,,
,,,,,,00033,2023-09-18_06h33.31.336,vbt_B1_day1,2022.2.4,Win32,60.00960154,,,,,,,,,,,,,,,,,,,0.291666667,0.095370363,1,0,0,0.9837,4,0,104,18,1,s,images/br_s.png,images/cb_s.png,,,,,,,,,,,,,,,,,,,,,,,,,
,,,,,,00033,2023-09-18_06h33.31.336,vbt_B1_day1,2022.2.4,Win32,60.00960154,,,,,,,,,,,,,,,,,,,0.291666667,0.095370363,1,0,0,0.6005,4,1,105,24,1,y,images/br_y.png,images/cb_y.png,,,,,,,,,,,,,,,,,,,,,,,,,
,,,,,,00033,2023-09-18_06h33.31.336,vbt_B1_day1,2022.2.4,Win32,60.00960154,,,,,,,,,,,,,,,,,,,0.291666667,0.095370363,1,0,0,0.4007,4,2,106,12,1,m,images/br_m.png,images/cb_m.png,,,,,,,,,,,,,,,,,,,,,,,,,
,,,,,,00033,2023-09-18_06h33.31.336,vbt_B1_day1,2022.2.4,Win32,60.00960154,,,,,,,,,,,,,,,,,,,0.291666667,0.095370363,1,0,0,0.312,4,3,107,6,1,g,images/br_g.png,images/cb_g.png,,,,,,,,,,,,,,,,,,,,,,,,,
,,,,,,00033,2023-09-18_06h33.31.336,vbt_B1_day1,2022.2.4,Win32,60.00960154,,,,,,,,,,,,,,,,,,,0.291666667,0.095370363,1,0,0,0.9126,4,4,108,11,1,l,images/br_l.png,images/cb_l.png,,,,,,,,,,,,,,,,,,,,,,,,,
,,,,,,00033,2023-09-18_06h33.31.336,vbt_B1_day1,2022.2.4,Win32,60.00960154,,,,,,,,,,,,,,,,,,,0.291666667,0.095370363,1,0,0,0.7336,4,5,109,20,1,u,images/br_u.png,images/cb_u.png,,,,,,,,,,,,,,,,,,,,,,,,,
,,,,,,00033,2023-09-18_06h33.31.336,vbt_B1_day1,2022.2.4,Win32,60.00960154,,,,,,,,,,,,,,,,,,,0.291666667,0.095370363,1,0,0,0.0996,4,6,110,17,1,r,images/br_r.png,images/cb_r.png,,,,,,,,,,,,,,,,,,,,,,,,,
,,,,,,00033,2023-09-18_06h33.31.336,vbt_B1_day1,2022.2.4,Win32,60.00960154,,,,,,,,,,,,,,,,,,,0.291666667,0.095370363,1,0,0,2.4004,4,7,111,5,1,f,images/br_f.png,images/cb_f.png,,,,,,,,,,,,,,,,,,,,,,,,,
,,,,,,00033,2023-09-18_06h33.31.336,vbt_B1_day1,2022.2.4,Win32,60.00960154,,,,,,,,,,,,,,,,,,,0.291666667,0.095370363,1,0,0,2.7827,4,8,112,2,1,c,images/br_c.png,images/cb_c.png,,,,,,,,,,,,,,,,,,,,,,,,,
,,,,,,00033,2023-09-18_06h33.31.336,vbt_B1_day1,2022.2.4,Win32,60.00960154,,,,,,,,,,,,,,,,,,,0.291666667,0.095370363,1,0,0,0.49,4,9,113,19,1,t,images/br_t.png,images/cb_t.png,,,,,,,,,,,,,,,,,,,,,,,,,
,,,,,,00033,2023-09-18_06h33.31.336,vbt_B1_day1,2022.2.4,Win32,60.00960154,,,,,,,,,,,,,,,,,,,0.291666667,0.095370363,1,0,0,0.2825,4,10,114,8,1,i,images/br_i.png,images/cb_i.png,,,,,,,,,,,,,,,,,,,,,,,,,
,,,,,,00033,2023-09-18_06h33.31.336,vbt_B1_day1,2022.2.4,Win32,60.00960154,,,,,,,,,,,,,,,,,,,0.291666667,0.095370363,1,0,0,0.6501,4,11,115,23,1,x,images/br_x.png,images/cb_x.png,,,,,,,,,,,,,,,,,,,,,,,,,
,,,,,,00033,2023-09-18_06h33.31.336,vbt_B1_day1,2022.2.4,Win32,60.00960154,,,,,,,,,,,,,,,,,,,0.291666667,0.095370363,1,0,0,3.2999,4,12,116,3,1,d,images/br_d.png,images/cb_d.png,,,,,,,,,,,,,,,,,,,,,,,,,
,,,,,,00033,2023-09-18_06h33.31.336,vbt_B1_day1,2022.2.4,Win32,60.00960154,,,,,,,,,,,,,,,,,,,0.291666667,0.095370363,1,0,0,0.9332,4,13,117,7,1,h,images/br_h.png,images/cb_h.png,,,,,,,,,,,,,,,,,,,,,,,,,
,,,,,,00033,2023-09-18_06h33.31.336,vbt_B1_day1,2022.2.4,Win32,60.00960154,,,,,,,,,,,,,,,,,,,0.291666667,0.095370363,1,0,0,1.1163,4,14,118,9,1,j,images/br_j.png,images/cb_j.png,,,,,,,,,,,,,,,,,,,,,,,,,
,,,,,,00033,2023-09-18_06h33.31.336,vbt_B1_day1,2022.2.4,Win32,60.00960154,,,,,,,,,,,,,,,,,,,0.291666667,0.095370363,1,0,0,1.7831,4,15,119,25,1,z,images/br_z.png,images/cb_z.png,,,,,,,,,,,,,,,,,,,,,,,,,
,,,,,,00033,2023-09-18_06h33.31.336,vbt_B1_day1,2022.2.4,Win32,60.00960154,,,,,,,,,,,,,,,,,,,0.291666667,0.095370363,1,0,0,0.9,4,16,120,22,1,w,images/br_w.png,images/cb_w.png,,,,,,,,,,,,,,,,,,,,,,,,,
,,,,,,00033,2023-09-18_06h33.31.336,vbt_B1_day1,2022.2.4,Win32,60.00960154,,,,,,,,,,,,,,,,,,,0.291666667,0.095370363,1,0,0,0.4385,4,17,121,15,1,p,images/br_p.png,images/cb_p.png,,,,,,,,,,,,,,,,,,,,,,,,,
,,,,,,00033,2023-09-18_06h33.31.336,vbt_B1_day1,2022.2.4,Win32,60.00960154,,,,,,,,,,,,,,,,,,,0.291666667,0.095370363,1,0,0,0.6617,4,18,122,21,1,v,images/br_v.png,images/cb_v.png,,,,,,,,,,,,,,,,,,,,,,,,,
,,,,,,00033,2023-09-18_06h33.31.336,vbt_B1_day1,2022.2.4,Win32,60.00960154,,,,,,,,,,,,,,,,,,,0.291666667,0.095370363,1,0,0,0.6346,4,19,123,13,1,n,images/br_n.png,images/cb_n.png,,,,,,,,,,,,,,,,,,,,,,,,,
,,,,,,00033,2023-09-18_06h33.31.336,vbt_B1_day1,2022.2.4,Win32,60.00960154,,,,,,,,,,,,,,,,,,,0.291666667,0.095370363,1,0,0,0.3334,4,20,124,10,1,k,images/br_k.png,images/cb_k.png,,,,,,,,,,,,,,,,,,,,,,,,,
,,,,,,00033,2023-09-18_06h33.31.336,vbt_B1_day1,2022.2.4,Win32,60.00960154,,,,,,,,,,,,,,,,,,,0.291666667,0.095370363,1,0,0,1.0839,4,21,125,16,1,q,images/br_q.png,images/cb_q.png,,,,,,,,,,,,,,,,,,,,,,,,,
,,,,,,00033,2023-09-18_06h33.31.336,vbt_B1_day1,2022.2.4,Win32,60.00960154,,,,,,,,,,,,,,,,,,,0.291666667,0.095370363,1,0,0,0.5,4,22,126,0,1,a,images/br_a.png,images/cb_a.png,,,,,,,,,,,,,,,,,,,,,,,,,
,,,,,,00033,2023-09-18_06h33.31.336,vbt_B1_day1,2022.2.4,Win32,60.00960154,,,,,,,,,,,,,,,,,,,0.291666667,0.095370363,1,0,0,0.2666,4,23,127,4,1,e,images/br_e.png,images/cb_e.png,,,,,,,,,,,,,,,,,,,,,,,,,
,,,,,,00033,2023-09-18_06h33.31.336,vbt_B1_day1,2022.2.4,Win32,60.00960154,,,,,,,,,,,,,,,,,,,0.291666667,0.095370363,1,0,0,0.6,4,24,128,14,1,o,images/br_o.png,images/cb_o.png,,,,,,,,,,,,,,,,,,,,,,,,,
,,,,,,00033,2023-09-18_06h33.31.336,vbt_B1_day1,2022.2.4,Win32,60.00960154,,,,,,,,,,,,,,,,,,,0.291666667,0.095370363,1,0,0,1.4156,4,25,129,1,1,b,images/br_b.png,images/cb_b.png,,,,,,,,,,,,,,,,,,,,,,,,,
,,,,,,00033,2023-09-18_06h33.31.336,vbt_B1_day1,2022.2.4,Win32,60.00960154,,,,,,,,,,,,,,,,,,,0.291666667,0.095370363,1,0,0,0.4012,5,0,130,2,1,c,images/br_c.png,images/cb_c.png,,,,,,,,,,,,,,,,,,,,,,,,,
,,,,,,00033,2023-09-18_06h33.31.336,vbt_B1_day1,2022.2.4,Win32,60.00960154,,,,,,,,,,,,,,,,,,,0.291666667,0.095370363,1,0,0,1.4491,5,1,131,1,1,b,images/br_b.png,images/cb_b.png,,,,,,,,,,,,,,,,,,,,,,,,,
,,,,,,00033,2023-09-18_06h33.31.336,vbt_B1_day1,2022.2.4,Win32,60.00960154,,,,,,,,,,,,,,,,,,,0.291666667,0.095370363,1,0,0,0.679,5,2,132,8,1,i,images/br_i.png,images/cb_i.png,,,,,,,,,,,,,,,,,,,,,,,,,
,,,,,,00033,2023-09-18_06h33.31.336,vbt_B1_day1,2022.2.4,Win32,60.00960154,,,,,,,,,,,,,,,,,,,0.291666667,0.095370363,1,0,0,1.0714,5,3,133,14,1,o,images/br_o.png,images/cb_o.png,,,,,,,,,,,,,,,,,,,,,,,,,
,,,,,,00033,2023-09-18_06h33.31.336,vbt_B1_day1,2022.2.4,Win32,60.00960154,,,,,,,,,,,,,,,,,,,0.291666667,0.095370363,1,0,0,0.7825,5,4,134,11,1,l,images/br_l.png,images/cb_l.png,,,,,,,,,,,,,,,,,,,,,,,,,
,,,,,,00033,2023-09-18_06h33.31.336,vbt_B1_day1,2022.2.4,Win32,60.00960154,,,,,,,,,,,,,,,,,,,0.291666667,0.095370363,1,0,0,1.1055,5,5,135,18,1,s,images/br_s.png,images/cb_s.png,,,,,,,,,,,,,,,,,,,,,,,,,
,,,,,,00033,2023-09-18_06h33.31.336,vbt_B1_day1,2022.2.4,Win32,60.00960154,,,,,,,,,,,,,,,,,,,0.291666667,0.095370363,1,0,0,0.4451,5,6,136,7,1,h,images/br_h.png,images/cb_h.png,,,,,,,,,,,,,,,,,,,,,,,,,
,,,,,,00033,2023-09-18_06h33.31.336,vbt_B1_day1,2022.2.4,Win32,60.00960154,,,,,,,,,,,,,,,,,,,0.291666667,0.095370363,1,0,0,0.3211,5,7,137,9,1,j,images/br_j.png,images/cb_j.png,,,,,,,,,,,,,,,,,,,,,,,,,
,,,,,,00033,2023-09-18_06h33.31.336,vbt_B1_day1,2022.2.4,Win32,60.00960154,,,,,,,,,,,,,,,,,,,0.291666667,0.095370363,1,0,0,0.5883,5,8,138,16,1,q,images/br_q.png,images/cb_q.png,,,,,,,,,,,,,,,,,,,,,,,,,
,,,,,,00033,2023-09-18_06h33.31.336,vbt_B1_day1,2022.2.4,Win32,60.00960154,,,,,,,,,,,,,,,,,,,0.291666667,0.095370363,1,0,0,1.7667,5,9,139,21,1,v,images/br_v.png,images/cb_v.png,,,,,,,,,,,,,,,,,,,,,,,,,
,,,,,,00033,2023-09-18_06h33.31.336,vbt_B1_day1,2022.2.4,Win32,60.00960154,,,,,,,,,,,,,,,,,,,0.291666667,0.095370363,1,0,0,0.6339,5,10,140,3,1,d,images/br_d.png,images/cb_d.png,,,,,,,,,,,,,,,,,,,,,,,,,
,,,,,,00033,2023-09-18_06h33.31.336,vbt_B1_day1,2022.2.4,Win32,60.00960154,,,,,,,,,,,,,,,,,,,0.291666667,0.095370363,1,0,0,2.2169,5,11,141,22,1,w,images/br_w.png,images/cb_w.png,,,,,,,,,,,,,,,,,,,,,,,,,
,,,,,,00033,2023-09-18_06h33.31.336,vbt_B1_day1,2022.2.4,Win32,60.00960154,,,,,,,,,,,,,,,,,,,0.291666667,0.095370363,1,0,0,0.1291,5,12,142,4,1,e,images/br_e.png,images/cb_e.png,,,,,,,,,,,,,,,,,,,,,,,,,
,,,,,,00033,2023-09-18_06h33.31.336,vbt_B1_day1,2022.2.4,Win32,60.00960154,,,,,,,,,,,,,,,,,,,0.291666667,0.095370363,1,0,0,0.3492,5,13,143,24,1,y,images/br_y.png,images/cb_y.png,,,,,,,,,,,,,,,,,,,,,,,,,
,,,,,,00033,2023-09-18_06h33.31.336,vbt_B1_day1,2022.2.4,Win32,60.00960154,,,,,,,,,,,,,,,,,,,0.291666667,0.095370363,1,0,0,0.4017,5,14,144,19,1,t,images/br_t.png,images/cb_t.png,,,,,,,,,,,,,,,,,,,,,,,,,
,,,,,,00033,2023-09-18_06h33.31.336,vbt_B1_day1,2022.2.4,Win32,60.00960154,,,,,,,,,,,,,,,,,,,0.291666667,0.095370363,1,0,0,1.9664,5,15,145,25,1,z,images/br_z.png,images/cb_z.png,,,,,,,,,,,,,,,,,,,,,,,,,
,,,,,,00033,2023-09-18_06h33.31.336,vbt_B1_day1,2022.2.4,Win32,60.00960154,,,,,,,,,,,,,,,,,,,0.291666667,0.095370363,1,0,0,0.4177,5,16,146,0,1,a,images/br_a.png,images/cb_a.png,,,,,,,,,,,,,,,,,,,,,,,,,
,,,,,,00033,2023-09-18_06h33.31.336,vbt_B1_day1,2022.2.4,Win32,60.00960154,,,,,,,,,,,,,,,,,,,0.291666667,0.095370363,1,0,0,0.3887,5,17,147,5,1,f,images/br_f.png,images/cb_f.png,,,,,,,,,,,,,,,,,,,,,,,,,
,,,,,,00033,2023-09-18_06h33.31.336,vbt_B1_day1,2022.2.4,Win32,60.00960154,,,,,,,,,,,,,,,,,,,0.291666667,0.095370363,1,0,0,0.7327,5,18,148,6,1,g,images/br_g.png,images/cb_g.png,,,,,,,,,,,,,,,,,,,,,,,,,
,,,,,,00033,2023-09-18_06h33.31.336,vbt_B1_day1,2022.2.4,Win32,60.00960154,,,,,,,,,,,,,,,,,,,0.291666667,0.095370363,1,0,0,17.7309,5,19,149,13,1,n,images/br_n.png,images/cb_n.png,,,,,,,,,,,,,,,,,,,,,,,,,
,,,,,,00033,2023-09-18_06h33.31.336,vbt_B1_day1,2022.2.4,Win32,60.00960154,,,,,,,,,,,,,,,,,,,0.291666667,0.095370363,1,0,0,0.7332,5,20,150,10,1,k,images/br_k.png,images/cb_k.png,,,,,,,,,,,,,,,,,,,,,,,,,
,,,,,,00033,2023-09-18_06h33.31.336,vbt_B1_day1,2022.2.4,Win32,60.00960154,,,,,,,,,,,,,,,,,,,0.291666667,0.095370363,1,0,0,0.5721,5,21,151,17,1,r,images/br_r.png,images/cb_r.png,,,,,,,,,,,,,,,,,,,,,,,,,
,,,,,,00033,2023-09-18_06h33.31.336,vbt_B1_day1,2022.2.4,Win32,60.00960154,,,,,,,,,,,,,,,,,,,0.291666667,0.095370363,1,0,0,0.4842,5,22,152,15,1,p,images/br_p.png,images/cb_p.png,,,,,,,,,,,,,,,,,,,,,,,,,
,,,,,,00033,2023-09-18_06h33.31.336,vbt_B1_day1,2022.2.4,Win32,60.00960154,,,,,,,,,,,,,,,,,,,0.291666667,0.095370363,1,0,0,0.5669,5,23,153,20,1,u,images/br_u.png,images/cb_u.png,,,,,,,,,,,,,,,,,,,,,,,,,
,,,,,,00033,2023-09-18_06h33.31.336,vbt_B1_day1,2022.2.4,Win32,60.00960154,,,,,,,,,,,,,,,,,,,0.291666667,0.095370363,1,0,0,0.6672,5,24,154,12,1,m,images/br_m.png,images/cb_m.png,,,,,,,,,,,,,,,,,,,,,,,,,
,,,,,,00033,2023-09-18_06h33.31.336,vbt_B1_day1,2022.2.4,Win32,60.00960154,,,,,,,,,,,,,,,,,,,0.291666667,0.095370363,1,0,0,1.2335,5,25,155,23,1,x,images/br_x.png,images/cb_x.png,,,,,,,,,,,,,,,,,,,,,,,,,
,,,,,,00033,2023-09-18_06h33.31.336,vbt_B1_day1,2022.2.4,Win32,60.00960154,,,,,,,,,,,,,,,,,,,0.291666667,0.095370363,1,0,0,0.1343,6,0,156,3,1,d,images/br_d.png,images/cb_d.png,,,,,,,,,,,,,,,,,,,,,,,,,
,,,,,,00033,2023-09-18_06h33.31.336,vbt_B1_day1,2022.2.4,Win32,60.00960154,,,,,,,,,,,,,,,,,,,0.291666667,0.095370363,1,0,0,0.5342,6,1,157,7,1,h,images/br_h.png,images/cb_h.png,,,,,,,,,,,,,,,,,,,,,,,,,
,,,,,,00033,2023-09-18_06h33.31.336,vbt_B1_day1,2022.2.4,Win32,60.00960154,,,,,,,,,,,,,,,,,,,0.291666667,0.095370363,1,0,0,0.084,6,2,158,22,1,w,images/br_w.png,images/cb_w.png,,,,,,,,,,,,,,,,,,,,,,,,,
,,,,,,00033,2023-09-18_06h33.31.336,vbt_B1_day1,2022.2.4,Win32,60.00960154,,,,,,,,,,,,,,,,,,,0.291666667,0.095370363,1,0,0,1.1842,6,3,159,0,1,a,images/br_a.png,images/cb_a.png,,,,,,,,,,,,,,,,,,,,,,,,,
,,,,,,00033,2023-09-18_06h33.31.336,vbt_B1_day1,2022.2.4,Win32,60.00960154,,,,,,,,,,,,,,,,,,,0.291666667,0.095370363,1,0,0,0.667,6,4,160,17,1,r,images/br_r.png,images/cb_r.png,,,,,,,,,,,,,,,,,,,,,,,,,
,,,,,,00033,2023-09-18_06h33.31.336,vbt_B1_day1,2022.2.4,Win32,60.00960154,,,,,,,,,,,,,,,,,,,0.291666667,0.095370363,1,0,0,2.5781,6,5,161,16,1,q,images/br_q.png,images/cb_q.png,,,,,,,,,,,,,,,,,,,,,,,,,
,,,,,,00033,2023-09-18_06h33.31.336,vbt_B1_day1,2022.2.4,Win32,60.00960154,,,,,,,,,,,,,,,,,,,0.291666667,0.095370363,1,0,0,3.0505,6,6,162,21,1,v,images/br_v.png,images/cb_v.png,,,,,,,,,,,,,,,,,,,,,,,,,
,,,,,,00033,2023-09-18_06h33.31.336,vbt_B1_day1,2022.2.4,Win32,60.00960154,,,,,,,,,,,,,,,,,,,0.291666667,0.095370363,1,0,0,0.2677,6,7,163,1,1,b,images/br_b.png,images/cb_b.png,,,,,,,,,,,,,,,,,,,,,,,,,
,,,,,,00033,2023-09-18_06h33.31.336,vbt_B1_day1,2022.2.4,Win32,60.00960154,,,,,,,,,,,,,,,,,,,0.291666667,0.095370363,1,0,0,5.2331,6,8,164,13,1,n,images/br_n.png,images/cb_n.png,,,,,,,,,,,,,,,,,,,,,,,,,
,,,,,,00033,2023-09-18_06h33.31.336,vbt_B1_day1,2022.2.4,Win32,60.00960154,,,,,,,,,,,,,,,,,,,0.291666667,0.095370363,1,0,0,4.849,6,9,165,12,1,m,images/br_m.png,images/cb_m.png,,,,,,,,,,,,,,,,,,,,,,,,,
,,,,,,00033,2023-09-18_06h33.31.336,vbt_B1_day1,2022.2.4,Win32,60.00960154,,,,,,,,,,,,,,,,,,,0.291666667,0.095370363,1,0,0,0.2496,6,10,166,11,1,l,images/br_l.png,images/cb_l.png,,,,,,,,,,,,,,,,,,,,,,,,,
,,,,,,00033,2023-09-18_06h33.31.336,vbt_B1_day1,2022.2.4,Win32,60.00960154,,,,,,,,,,,,,,,,,,,0.291666667,0.095370363,1,0,0,0.0547,6,11,167,8,1,i,images/br_i.png,images/cb_i.png,,,,,,,,,,,,,,,,,,,,,,,,,
,,,,,,00033,2023-09-18_06h33.31.336,vbt_B1_day1,2022.2.4,Win32,60.00960154,,,,,,,,,,,,,,,,,,,0.291666667,0.095370363,1,0,0,1.6664,6,12,168,2,1,c,images/br_c.png,images/cb_c.png,,,,,,,,,,,,,,,,,,,,,,,,,
,,,,,,00033,2023-09-18_06h33.31.336,vbt_B1_day1,2022.2.4,Win32,60.00960154,,,,,,,,,,,,,,,,,,,0.291666667,0.095370363,1,0,0,0.067,6,13,169,23,1,x,images/br_x.png,images/cb_x.png,,,,,,,,,,,,,,,,,,,,,,,,,
,,,,,,00033,2023-09-18_06h33.31.336,vbt_B1_day1,2022.2.4,Win32,60.00960154,,,,,,,,,,,,,,,,,,,0.291666667,0.095370363,1,0,0,0.0831,6,14,170,14,1,o,images/br_o.png,images/cb_o.png,,,,,,,,,,,,,,,,,,,,,,,,,
,,,,,,00033,2023-09-18_06h33.31.336,vbt_B1_day1,2022.2.4,Win32,60.00960154,,,,,,,,,,,,,,,,,,,0.291666667,0.095370363,1,0,0,0.3664,6,15,171,15,1,p,images/br_p.png,images/cb_p.png,,,,,,,,,,,,,,,,,,,,,,,,,
,,,,,,00033,2023-09-18_06h33.31.336,vbt_B1_day1,2022.2.4,Win32,60.00960154,,,,,,,,,,,,,,,,,,,0.291666667,0.095370363,1,0,0,0.5508,6,16,172,24,1,y,images/br_y.png,images/cb_y.png,,,,,,,,,,,,,,,,,,,,,,,,,
,,,,,,00033,2023-09-18_06h33.31.336,vbt_B1_day1,2022.2.4,Win32,60.00960154,,,,,,,,,,,,,,,,,,,0.291666667,0.095370363,1,0,0,0.2954,6,17,173,19,1,t,images/br_t.png,images/cb_t.png,,,,,,,,,,,,,,,,,,,,,,,,,
,,,,,,00033,2023-09-18_06h33.31.336,vbt_B1_day1,2022.2.4,Win32,60.00960154,,,,,,,,,,,,,,,,,,,0.291666667,0.095370363,1,0,0,0.3383,6,18,174,6,1,g,images/br_g.png,images/cb_g.png,,,,,,,,,,,,,,,,,,,,,,,,,
,,,,,,00033,2023-09-18_06h33.31.336,vbt_B1_day1,2022.2.4,Win32,60.00960154,,,,,,,,,,,,,,,,,,,0.291666667,0.095370363,1,0,0,0.4004,6,19,175,5,1,f,images/br_f.png,images/cb_f.png,,,,,,,,,,,,,,,,,,,,,,,,,
,,,,,,00033,2023-09-18_06h33.31.336,vbt_B1_day1,2022.2.4,Win32,60.00960154,,,,,,,,,,,,,,,,,,,0.291666667,0.095370363,1,0,0,0.5509,6,20,176,18,1,s,images/br_s.png,images/cb_s.png,,,,,,,,,,,,,,,,,,,,,,,,,
,,,,,,00033,2023-09-18_06h33.31.336,vbt_B1_day1,2022.2.4,Win32,60.00960154,,,,,,,,,,,,,,,,,,,0.291666667,0.095370363,1,0,0,0.5163,6,21,177,4,1,e,images/br_e.png,images/cb_e.png,,,,,,,,,,,,,,,,,,,,,,,,,
,,,,,,00033,2023-09-18_06h33.31.336,vbt_B1_day1,2022.2.4,Win32,60.00960154,,,,,,,,,,,,,,,,,,,0.291666667,0.095370363,1,0,0,0.0175,6,22,178,9,1,j,images/br_j.png,images/cb_j.png,,,,,,,,,,,,,,,,,,,,,,,,,
,,,,,,00033,2023-09-18_06h33.31.336,vbt_B1_day1,2022.2.4,Win32,60.00960154,,,,,,,,,,,,,,,,,,,0.291666667,0.095370363,1,0,0,6.7994,6,23,179,25,1,z,images/br_z.png,images/cb_z.png,,,,,,,,,,,,,,,,,,,,,,,,,
,,,,,,00033,2023-09-18_06h33.31.336,vbt_B1_day1,2022.2.4,Win32,60.00960154,,,,,,,,,,,,,,,,,,,0.291666667,0.095370363,1,0,0,0.852,6,24,180,10,1,k,images/br_k.png,images/cb_k.png,,,,,,,,,,,,,,,,,,,,,,,,,
,,,,,,00033,2023-09-18_06h33.31.336,vbt_B1_day1,2022.2.4,Win32,60.00960154,,,,,,,,,,,,,,,,,,,0.291666667,0.095370363,1,0,0,0.4677,6,25,181,20,1,u,images/br_u.png,images/cb_u.png,,,,,,,,,,,,,,,,,,,,,,,,,
,,,,,,00033,2023-09-18_06h33.31.336,vbt_B1_day1,2022.2.4,Win32,60.00960154,,,,,,,,,,,,,,,,,,,,,,,,,,,,,,,,,0.385185242,0.168518526,1,0,0,,,,,,,,,,,,,,,,,,,,
,,,,,,00033,2023-09-18_06h33.31.336,vbt_B1_day1,2022.2.4,Win32,60.00960154,,,,,,,,,,,,,,,,,,,,,,,,,,,,,,,,,,,,,,0.193518533,-0.08888891,1,0,0,,,,,,,,,,,,,,,
,,,,,,00033,2023-09-18_06h33.31.336,vbt_B1_day1,2022.2.4,Win32,60.00960154,,,,,,,,,,,,,,,,,,,,,,,,,,,,,,,,,,,,,,,,,,,0.193518533,-0.08888891,1,0,0,vi....,vi....,0,0,0,49,1,vizier,images/br_vizier.png,images/cb_vizier.png
,,,,,,00033,2023-09-18_06h33.31.336,vbt_B1_day1,2022.2.4,Win32,60.00960154,,,,,,,,,,,,,,,,,,,,,,,,,,,,,,,,,,,,,,,,,,,0.193518533,-0.08888891,1,0,0,vai...,vai...,0,1,1,26,1,valop,images/br_valop.png,images/cb_valop.png
,,,,,,00033,2023-09-18_06h33.31.336,vbt_B1_day1,2022.2.4,Win32,60.00960154,,,,,,,,,,,,,,,,,,,,,,,,,,,,,,,,,,,,,,,,,,,0.193518533,-0.08888891,1,0,0,bomi,bomi,0,2,2,23,1,booi,images/br_booi.png,images/cb_booi.png
,,,,,,00033,2023-09-18_06h33.31.336,vbt_B1_day1,2022.2.4,Win32,60.00960154,,,,,,,,,,,,,,,,,,,,,,,,,,,,,,,,,,,,,,,,,,,0.193518533,-0.08888891,1,0,0,waarp..,waarp..,0,3,3,14,1,waarvan,images/br_waarvan.png,images/cb_waarvan.png
,,,,,,00033,2023-09-18_06h33.31.336,vbt_B1_day1,2022.2.4,Win32,60.00960154,,,,,,,,,,,,,,,,,,,,,,,,,,,,,,,,,,,,,,,,,,,0.193518533,-0.08888891,1,0,0,kzoe,kzoe,0,4,4,22,1,knoe,images/br_knoe.png,images/cb_knoe.png
,,,,,,00033,2023-09-18_06h33.31.336,vbt_B1_day1,2022.2.4,Win32,60.00960154,,,,,,,,,,,,,,,,,,,,,,,,,,,,,,,,,,,,,,,,,,,0.193518533,-0.08888891,1,0,0,meene...,meene...,0,5,5,57,1,meenemen,images/br_meenemen.png,images/cb_meenemen.png
,,,,,,00033,2023-09-18_06h33.31.336,vbt_B1_day1,2022.2.4,Win32,60.00960154,,,,,,,,,,,,,,,,,,,,,,,,,,,,,,,,,,,,,,,,,,,0.193518533,-0.08888891,1,0,0,stnk,stnk,0,6,6,42,1,stuk,images/br_stuk.png,images/cb_stuk.png
,,,,,,00033,2023-09-18_06h33.31.336,vbt_B1_day1,2022.2.4,Win32,60.00960154,,,,,,,,,,,,,,,,,,,,,,,,,,,,,,,,,,,,,,,,,,,0.193518533,-0.08888891,1,0,0,.azd,.azd,0,7,7,3,1,mand,images/br_mand.png,images/cb_mand.png
,,,,,,00033,2023-09-18_06h33.31.336,vbt_B1_day1,2022.2.4,Win32,60.00960154,,,,,,,,,,,,,,,,,,,,,,,,,,,,,,,,,,,,,,,,,,,0.193518533,-0.08888891,1,0,0,prort,prort,0,8,8,27,1,prort,images/br_prort.png,images/cb_prort.png
,,,,,,00033,2023-09-18_06h33.31.336,vbt_B1_day1,2022.2.4,Win32,60.00960154,,,,,,,,,,,,,,,,,,,,,,,,,,,,,,,,,,,,,,,,,,,0.193518533,-0.08888891,1,0,0,klimmen,klimmen,0,9,9,12,1,klimmen,images/br_klimmen.png,images/cb_klimmen.png
,,,,,,00033,2023-09-18_06h33.31.336,vbt_B1_day1,2022.2.4,Win32,60.00960154,,,,,,,,,,,,,,,,,,,,,,,,,,,,,,,,,,,,,,,,,,,0.193518533,-0.08888891,1,0,0,voorlu.,voorlu.,0,10,10,58,1,voorkeur,images/br_voorkeur.png,images/cb_voorkeur.png
,,,,,,00033,2023-09-18_06h33.31.336,vbt_B1_day1,2022.2.4,Win32,60.00960154,,,,,,,,,,,,,,,,,,,,,,,,,,,,,,,,,,,,,,,,,,,0.193518533,-0.08888891,1,0,0,lava,lava,0,11,11,43,1,lava,images/br_lava.png,images/cb_lava.png
,,,,,,00033,2023-09-18_06h33.31.336,vbt_B1_day1,2022.2.4,Win32,60.00960154,,,,,,,,,,,,,,,,,,,,,,,,,,,,,,,,,,,,,,,,,,,0.193518533,-0.08888891,1,0,0,daarh... (daarheen?),daarh... (daarheen?),0,12,12,16,1,daarheen,images/br_daarheen.png,images/cb_daarheen.png
,,,,,,00033,2023-09-18_06h33.31.336,vbt_B1_day1,2022.2.4,Win32,60.00960154,,,,,,,,,,,,,,,,,,,,,,,,,,,,,,,,,,,,,,,,,,,0.193518533,-0.08888891,1,0,0,fred,fred,0,13,13,21,1,dred,images/br_dred.png,images/cb_dred.png
,,,,,,00033,2023-09-18_06h33.31.336,vbt_B1_day1,2022.2.4,Win32,60.00960154,,,,,,,,,,,,,,,,,,,,,,,,,,,,,,,,,,,,,,,,,,,0.193518533,-0.08888891,1,0,0,schie...,schie...,0,14,14,38,1,schielen,images/br_schielen.png,images/cb_schielen.png
,,,,,,00033,2023-09-18_06h33.31.336,vbt_B1_day1,2022.2.4,Win32,60.00960154,,,,,,,,,,,,,,,,,,,,,,,,,,,,,,,,,,,,,,,,,,,0.193518533,-0.08888891,1,0,0,mezi.g,mezi.g,0,15,15,11,1,mening,images/br_mening.png,images/cb_mening.png
,,,,,,00033,2023-09-18_06h33.31.336,vbt_B1_day1,2022.2.4,Win32,60.00960154,,,,,,,,,,,,,,,,,,,,,,,,,,,,,,,,,,,,,,,,,,,0.193518533,-0.08888891,1,0,0,muziek,muziek,0,16,16,10,1,muziek,images/br_muziek.png,images/cb_muziek.png
,,,,,,00033,2023-09-18_06h33.31.336,vbt_B1_day1,2022.2.4,Win32,60.00960154,,,,,,,,,,,,,,,,,,,,,,,,,,,,,,,,,,,,,,,,,,,0.193518533,-0.08888891,1,0,0,uitdel..,uitdel..,0,17,17,18,1,uitdelen,images/br_uitdelen.png,images/cb_uitdelen.png
,,,,,,00033,2023-09-18_06h33.31.336,vbt_B1_day1,2022.2.4,Win32,60.00960154,,,,,,,,,,,,,,,,,,,,,,,,,,,,,,,,,,,,,,,,,,,0.193518533,-0.08888891,1,0,0,slak,slak,0,18,18,0,1,slak,images/br_slak.png,images/cb_slak.png
,,,,,,00033,2023-09-18_06h33.31.336,vbt_B1_day1,2022.2.4,Win32,60.00960154,,,,,,,,,,,,,,,,,,,,,,,,,,,,,,,,,,,,,,,,,,,0.193518533,-0.08888891,1,0,0,alten..,alten..,0,19,19,17,1,attentie,images/br_attentie.png,images/cb_attentie.png
,,,,,,00033,2023-09-18_06h33.31.336,vbt_B1_day1,2022.2.4,Win32,60.00960154,,,,,,,,,,,,,,,,,,,,,,,,,,,,,,,,,,,,,,,,,,,0.193518533,-0.08888891,1,0,0,dief,dief,0,20,20,40,1,dief,images/br_dief.png,images/cb_dief.png
,,,,,,00033,2023-09-18_06h33.31.336,vbt_B1_day1,2022.2.4,Win32,60.00960154,,,,,,,,,,,,,,,,,,,,,,,,,,,,,,,,,,,,,,,,,,,0.193518533,-0.08888891,1,0,0,twij...,twij...,0,21,21,13,1,twijfel,images/br_twijfel.png,images/cb_twijfel.png
,,,,,,00033,2023-09-18_06h33.31.336,vbt_B1_day1,2022.2.4,Win32,60.00960154,,,,,,,,,,,,,,,,,,,,,,,,,,,,,,,,,,,,,,,,,,,0.193518533,-0.08888891,1,0,0,toize..,toize..,0,22,22,56,1,toezicht,images/br_toezicht.png,images/cb_toezicht.png
,,,,,,00033,2023-09-18_06h33.31.336,vbt_B1_day1,2022.2.4,Win32,60.00960154,,,,,,,,,,,,,,,,,,,,,,,,,,,,,,,,,,,,,,,,,,,0.193518533,-0.08888891,1,0,0,opplaan,opplaan,0,23,23,32,1,opplaan,images/br_opplaan.png,images/cb_opplaan.png
,,,,,,00033,2023-09-18_06h33.31.336,vbt_B1_day1,2022.2.4,Win32,60.00960154,,,,,,,,,,,,,,,,,,,,,,,,,,,,,,,,,,,,,,,,,,,0.193518533,-0.08888891,1,0,0,hei....,hei....,0,24,24,15,1,hiervan,images/br_hiervan.png,images/cb_hiervan.png
,,,,,,00033,2023-09-18_06h33.31.336,vbt_B1_day1,2022.2.4,Win32,60.00960154,,,,,,,,,,,,,,,,,,,,,,,,,,,,,,,,,,,,,,,,,,,0.193518533,-0.08888891,1,0,0,dubbel,dubbel,0,25,25,9,1,dubbel,images/br_dubbel.png,images/cb_dubbel.png
,,,,,,00033,2023-09-18_06h33.31.336,vbt_B1_day1,2022.2.4,Win32,60.00960154,,,,,,,,,,,,,,,,,,,,,,,,,,,,,,,,,,,,,,,,,,,0.193518533,-0.08888891,1,0,0,maken,maken,0,26,26,5,1,maken,images/br_maken.png,images/cb_maken.png
,,,,,,00033,2023-09-18_06h33.31.336,vbt_B1_day1,2022.2.4,Win32,60.00960154,,,,,,,,,,,,,,,,,,,,,,,,,,,,,,,,,,,,,,,,,,,0.193518533,-0.08888891,1,0,0,loods,loods,0,27,27,47,1,loods,images/br_loods.png,images/cb_loods.png
,,,,,,00033,2023-09-18_06h33.31.336,vbt_B1_day1,2022.2.4,Win32,60.00960154,,,,,,,,,,,,,,,,,,,,,,,,,,,,,,,,,,,,,,,,,,,0.193518533,-0.08888891,1,0,0,bleek,bleek,0,28,28,6,1,bleek,images/br_bleek.png,images/cb_bleek.png
,,,,,,00033,2023-09-18_06h33.31.336,vbt_B1_day1,2022.2.4,Win32,60.00960154,,,,,,,,,,,,,,,,,,,,,,,,,,,,,,,,,,,,,,,,,,,0.193518533,-0.08888891,1,0,0,reedje,reedje,0,29,29,30,1,reedje,images/br_reedje.png,images/cb_reedje.png
,,,,,,00033,2023-09-18_06h33.31.336,vbt_B1_day1,2022.2.4,Win32,60.00960154,,,,,,,,,,,,,,,,,,,,,,,,,,,,,,,,,,,,,,,,,,,0.193518533,-0.08888891,1,0,0,stuikem,stuikem,0,30,30,35,1,stuikem,images/br_stuikem.png,images/cb_stuikem.png
,,,,,,00033,2023-09-18_06h33.31.336,vbt_B1_day1,2022.2.4,Win32,60.00960154,,,,,,,,,,,,,,,,,,,,,,,,,,,,,,,,,,,,,,,,,,,0.193518533,-0.08888891,1,0,0,vijftig,vijftig,0,31,31,54,1,vijftig,images/br_vijftig.png,images/cb_vijftig.png
,,,,,,00033,2023-09-18_06h33.31.336,vbt_B1_day1,2022.2.4,Win32,60.00960154,,,,,,,,,,,,,,,,,,,,,,,,,,,,,,,,,,,,,,,,,,,0.193518533,-0.08888891,1,0,0,kanjer,kanjer,0,32,32,8,1,kanjer,images/br_kanjer.png,images/cb_kanjer.png
,,,,,,00033,2023-09-18_06h33.31.336,vbt_B1_day1,2022.2.4,Win32,60.00960154,,,,,,,,,,,,,,,,,,,,,,,,,,,,,,,,,,,,,,,,,,,0.193518533,-0.08888891,1,0,0,jaar,jaar,0,33,33,2,1,jaar,images/br_jaar.png,images/cb_jaar.png
,,,,,,00033,2023-09-18_06h33.31.336,vbt_B1_day1,2022.2.4,Win32,60.00960154,,,,,,,,,,,,,,,,,,,,,,,,,,,,,,,,,,,,,,,,,,,0.193518533,-0.08888891,1,0,0,fictie,fictie,0,34,34,48,1,fictie,images/br_fictie.png,images/cb_fictie.png
,,,,,,00033,2023-09-18_06h33.31.336,vbt_B1_day1,2022.2.4,Win32,60.00960154,,,,,,,,,,,,,,,,,,,,,,,,,,,,,,,,,,,,,,,,,,,0.193518533,-0.08888891,1,0,0,sche.,sche.,0,35,35,4,1,schep,images/br_schep.png,images/cb_schep.png
,,,,,,00033,2023-09-18_06h33.31.336,vbt_B1_day1,2022.2.4,Win32,60.00960154,,,,,,,,,,,,,,,,,,,,,,,,,,,,,,,,,,,,,,,,,,,0.193518533,-0.08888891,1,0,0,liefde,liefde,0,36,36,51,1,liefde,images/br_liefde.png,images/cb_liefde.png
,,,,,,00033,2023-09-18_06h33.31.336,vbt_B1_day1,2022.2.4,Win32,60.00960154,,,,,,,,,,,,,,,,,,,,,,,,,,,,,,,,,,,,,,,,,,,0.193518533,-0.08888891,1,0,0,rezer,rezer,0,37,37,24,1,rezer,images/br_rezer.png,images/cb_rezer.png
,,,,,,00033,2023-09-18_06h33.31.336,vbt_B1_day1,2022.2.4,Win32,60.00960154,,,,,,,,,,,,,,,,,,,,,,,,,,,,,,,,,,,,,,,,,,,0.193518533,-0.08888891,1,0,0,liegen,liegen,0,38,38,50,1,liegen,images/br_liegen.png,images/cb_liegen.png
,,,,,,00033,2023-09-18_06h33.31.336,vbt_B1_day1,2022.2.4,Win32,60.00960154,,,,,,,,,,,,,,,,,,,,,,,,,,,,,,,,,,,,,,,,,,,0.193518533,-0.08888891,1,0,0,w..n.,w..n.,0,39,39,44,1,wijze,images/br_wijze.png,images/cb_wijze.png
,,,,,,00033,2023-09-18_06h33.31.336,vbt_B1_day1,2022.2.4,Win32,60.00960154,,,,,,,,,,,,,,,,,,,,,,,,,,,,,,,,,,,,,,,,,,,0.193518533,-0.08888891,1,0,0,klauw,klauw,0,40,40,7,1,klauw,images/br_klauw.png,images/cb_klauw.png
,,,,,,00033,2023-09-18_06h33.31.336,vbt_B1_day1,2022.2.4,Win32,60.00960154,,,,,,,,,,,,,,,,,,,,,,,,,,,,,,,,,,,,,,,,,,,0.193518533,-0.08888891,1,0,0,opslaan,opslaan,0,41,41,53,1,opslaan,images/br_opslaan.png,images/cb_opslaan.png
,,,,,,00033,2023-09-18_06h33.31.336,vbt_B1_day1,2022.2.4,Win32,60.00960154,,,,,,,,,,,,,,,,,,,,,,,,,,,,,,,,,,,,,,,,,,,0.193518533,-0.08888891,1,0,0,femel,femel,0,42,42,45,1,hemel,images/br_hemel.png,images/cb_hemel.png
,,,,,,00033,2023-09-18_06h33.31.336,vbt_B1_day1,2022.2.4,Win32,60.00960154,,,,,,,,,,,,,,,,,,,,,,,,,,,,,,,,,,,,,,,,,,,0.193518533,-0.08888891,1,0,0,flullen,flullen,0,43,43,33,1,flullen,images/br_flullen.png,images/cb_flullen.png
,,,,,,00033,2023-09-18_06h33.31.336,vbt_B1_day1,2022.2.4,Win32,60.00960154,,,,,,,,,,,,,,,,,,,,,,,,,,,,,,,,,,,,,,,,,,,0.193518533,-0.08888891,1,0,0,voorreu.,voorreu.,0,44,44,39,1,voorreur,images/br_voorreur.png,images/cb_voorreur.png
,,,,,,00033,2023-09-18_06h33.31.336,vbt_B1_day1,2022.2.4,Win32,60.00960154,,,,,,,,,,,,,,,,,,,,,,,,,,,,,,,,,,,,,,,,,,,0.193518533,-0.08888891,1,0,0,opvatten,opvatten,0,45,45,59,1,opvatten,images/br_opvatten.png,images/cb_opvatten.png
,,,,,,00033,2023-09-18_06h33.31.336,vbt_B1_day1,2022.2.4,Win32,60.00960154,,,,,,,,,,,,,,,,,,,,,,,,,,,,,,,,,,,,,,,,,,,0.193518533,-0.08888891,1,0,0,hoog,hoog,0,46,46,41,1,hoog,images/br_hoog.png,images/cb_hoog.png
,,,,,,00033,2023-09-18_06h33.31.336,vbt_B1_day1,2022.2.4,Win32,60.00960154,,,,,,,,,,,,,,,,,,,,,,,,,,,,,,,,,,,,,,,,,,,0.193518533,-0.08888891,1,0,0,lezen,lezen,0,47,47,46,1,lezen,images/br_lezen.png,images/cb_lezen.png
,,,,,,00033,2023-09-18_06h33.31.336,vbt_B1_day1,2022.2.4,Win32,60.00960154,,,,,,,,,,,,,,,,,,,,,,,,,,,,,,,,,,,,,,,,,,,0.193518533,-0.08888891,1,0,0,.ebri.,.ebri.,0,48,48,28,1,bebrip,images/br_bebrip.png,images/cb_bebrip.png
,,,,,,00033,2023-09-18_06h33.31.336,vbt_B1_day1,2022.2.4,Win32,60.00960154,,,,,,,,,,,,,,,,,,,,,,,,,,,,,,,,,,,,,,,,,,,0.193518533,-0.08888891,1,0,0,zue...,zue...,0,49,49,52,1,zuiplap,images/br_zuiplap.png,images/cb_zuiplap.png
,,,,,,00033,2023-09-18_06h33.31.336,vbt_B1_day1,2022.2.4,Win32,60.00960154,,,,,,,,,,,,,,,,,,,,,,,,,,,,,,,,,,,,,,,,,,,0.193518533,-0.08888891,1,0,0,genozd,genozd,0,50,50,29,1,genond,images/br_genond.png,images/cb_genond.png
,,,,,,00033,2023-09-18_06h33.31.336,vbt_B1_day1,2022.2.4,Win32,60.00960154,,,,,,,,,,,,,,,,,,,,,,,,,,,,,,,,,,,,,,,,,,,0.193518533,-0.08888891,1,0,0,lochten,lochten,0,51,51,34,1,lochten,images/br_lochten.png,images/cb_lochten.png
,,,,,,00033,2023-09-18_06h33.31.336,vbt_B1_day1,2022.2.4,Win32,60.00960154,,,,,,,,,,,,,,,,,,,,,,,,,,,,,,,,,,,,,,,,,,,0.193518533,-0.08888891,1,0,0,stamen,stamen,0,52,52,31,1,stamen,images/br_stamen.png,images/cb_stamen.png
,,,,,,00033,2023-09-18_06h33.31.336,vbt_B1_day1,2022.2.4,Win32,60.00960154,,,,,,,,,,,,,,,,,,,,,,,,,,,,,,,,,,,,,,,,,,,0.193518533,-0.08888891,1,0,0,tars,tars,0,53,53,20,1,tars,images/br_tars.png,images/cb_tars.png
,,,,,,00033,2023-09-18_06h33.31.336,vbt_B1_day1,2022.2.4,Win32,60.00960154,,,,,,,,,,,,,,,,,,,,,,,,,,,,,,,,,,,,,,,,,,,0.193518533,-0.08888891,1,0,0,zaal,zaal,0,54,54,1,1,zaal,images/br_zaal.png,images/cb_zaal.png
,,,,,,00033,2023-09-18_06h33.31.336,vbt_B1_day1,2022.2.4,Win32,60.00960154,,,,,,,,,,,,,,,,,,,,,,,,,,,,,,,,,,,,,,,,,,,0.193518533,-0.08888891,1,0,0,spanzi..,spanzi..,0,55,55,37,1,spanzing,images/br_spanzing.png,images/cb_spanzing.png
,,,,,,00033,2023-09-18_06h33.31.336,vbt_B1_day1,2022.2.4,Win32,60.00960154,,,,,,,,,,,,,,,,,,,,,,,,,,,,,,,,,,,,,,,,,,,0.193518533,-0.08888891,1,0,0,verpad..,verpad..,0,56,56,36,1,vervaden,images/br_vervaden.png,images/cb_vervaden.png
,,,,,,00033,2023-09-18_06h33.31.336,vbt_B1_day1,2022.2.4,Win32,60.00960154,,,,,,,,,,,,,,,,,,,,,,,,,,,,,,,,,,,,,,,,,,,0.193518533,-0.08888891,1,0,0,sch....,sch....,0,57,57,19,1,schuilen,images/br_schuilen.png,images/cb_schuilen.png
,,,,,,00033,2023-09-18_06h33.31.336,vbt_B1_day1,2022.2.4,Win32,60.00960154,,,,,,,,,,,,,,,,,,,,,,,,,,,,,,,,,,,,,,,,,,,0.193518533,-0.08888891,1,0,0,tekenen,tekenen,0,58,58,55,1,tekenen,images/br_tekenen.png,images/cb_tekenen.png
,,,,,,00033,2023-09-18_06h33.31.336,vbt_B1_day1,2022.2.4,Win32,60.00960154,,,,,,,,,,,,,,,,,,,,,,,,,,,,,,,,,,,,,,,,,,,0.193518533,-0.08888891,1,0,0,bridk,bridk,0,59,59,25,1,brijk,images/br_brijk.png,images/cb_brijk.png
,,,,,,00033,2023-09-18_06h33.31.336,vbt_B1_day1,2022.2.4,Win32,60.00960154,,,,,,,,,,,,,,,,,,,,,,,,,,,,,,,,,,,,,,,,,,,,,,,,,,,,,,,,,
