welcome_mouse.x,welcome_mouse.y,welcome_mouse.leftButton,welcome_mouse.midButton,welcome_mouse.rightButton,welcome_mouse.time,"ID",date,expName,psychopyVersion,OS,frameRate,mouse_2.x,mouse_2.y,mouse_2.leftButton,mouse_2.midButton,mouse_2.rightButton,mouse_2.time,mouse_3.x,mouse_3.y,mouse_3.leftButton,mouse_3.midButton,mouse_3.rightButton,mouse_3.time,train_mouse.x,train_mouse.y,train_mouse.leftButton,train_mouse.midButton,train_mouse.rightButton,train_mouse.time,braille_mouse.x,braille_mouse.y,braille_mouse.leftButton,braille_mouse.midButton,braille_mouse.rightButton,braille_mouse.time,trials.thisRepN,trials.thisTrialN,trials.thisN,trials.thisIndex,trials.ran,nlLet,brLet,cbLet,mouse.x,mouse.y,mouse.leftButton,mouse.midButton,mouse.rightButton,testInstr_mouse.x,testInstr_mouse.y,testInstr_mouse.leftButton,testInstr_mouse.midButton,testInstr_mouse.rightButton,test_mouse.x,test_mouse.y,test_mouse.leftButton,test_mouse.midButton,test_mouse.rightButton,test_response.text,testResp,test_loop.thisRepN,test_loop.thisTrialN,test_loop.thisN,test_loop.thisIndex,test_loop.ran,nlWrd,brWrd,cbWrd
-0.153467882,-0.261414931,1,0,0,20.8569,00008,2023-07-24_17h55.44.608,vbt_B1_day1,2022.2.4,MacIntel,60.0024001,,,,,,,,,,,,,,,,,,,,,,,,,,,,,,,,,,,,,,,,,,,,,,,,,,,,,,,,,
,,,,,,00008,2023-07-24_17h55.44.608,vbt_B1_day1,2022.2.4,MacIntel,60.0024001,-0.153467882,-0.261414931,1,0,0,6.076,,,,,,,,,,,,,,,,,,,,,,,,,,,,,,,,,,,,,,,,,,,,,,,,,,,
,,,,,,00008,2023-07-24_17h55.44.608,vbt_B1_day1,2022.2.4,MacIntel,60.0024001,,,,,,,-0.153467882,-0.261414931,1,0,0,11.413,,,,,,,,,,,,,,,,,,,,,,,,,,,,,,,,,,,,,,,,,,,,,
,,,,,,00008,2023-07-24_17h55.44.608,vbt_B1_day1,2022.2.4,MacIntel,60.0024001,,,,,,,,,,,,,-0.153467882,-0.261414931,1,0,0,22.3953,,,,,,,,,,,,,,,,,,,,,,,,,,,,,,,,,,,,,,,
,,,,,,00008,2023-07-24_17h55.44.608,vbt_B1_day1,2022.2.4,MacIntel,60.0024001,,,,,,,,,,,,,,,,,,,-0.033220486,-0.280030382,1,0,0,10.0153,0,0,0,3,1,d,images/br_d.png,images/cb_d.png,,,,,,,,,,,,,,,,,,,,,,,,,
,,,,,,00008,2023-07-24_17h55.44.608,vbt_B1_day1,2022.2.4,MacIntel,60.0024001,,,,,,,,,,,,,,,,,,,-0.530538194,-0.273914931,1,0,0,4.2497,0,1,1,6,1,g,images/br_g.png,images/cb_g.png,,,,,,,,,,,,,,,,,,,,,,,,,
,,,,,,00008,2023-07-24_17h55.44.608,vbt_B1_day1,2022.2.4,MacIntel,60.0024001,,,,,,,,,,,,,,,,,,,-0.528376736,-0.285334201,1,0,0,6.2326,0,2,2,7,1,h,images/br_h.png,images/cb_h.png,,,,,,,,,,,,,,,,,,,,,,,,,
,,,,,,00008,2023-07-24_17h55.44.608,vbt_B1_day1,2022.2.4,MacIntel,60.0024001,,,,,,,,,,,,,,,,,,,-0.527864583,-0.284782986,1,0,0,4.4671,0,3,3,21,1,v,images/br_v.png,images/cb_v.png,,,,,,,,,,,,,,,,,,,,,,,,,
,,,,,,00008,2023-07-24_17h55.44.608,vbt_B1_day1,2022.2.4,MacIntel,60.0024001,,,,,,,,,,,,,,,,,,,-0.528654514,-0.284522569,1,0,0,1.3011,0,4,4,20,1,u,images/br_u.png,images/cb_u.png,,,,,,,,,,,,,,,,,,,,,,,,,
,,,,,,00008,2023-07-24_17h55.44.608,vbt_B1_day1,2022.2.4,MacIntel,60.0024001,,,,,,,,,,,,,,,,,,,-0.529448785,-0.282144097,1,0,0,3.715,0,5,5,4,1,e,images/br_e.png,images/cb_e.png,,,,,,,,,,,,,,,,,,,,,,,,,
,,,,,,00008,2023-07-24_17h55.44.608,vbt_B1_day1,2022.2.4,MacIntel,60.0024001,,,,,,,,,,,,,,,,,,,-0.164791667,-0.162604167,1,0,0,8.8646,0,6,6,11,1,l,images/br_l.png,images/cb_l.png,,,,,,,,,,,,,,,,,,,,,,,,,
,,,,,,00008,2023-07-24_17h55.44.608,vbt_B1_day1,2022.2.4,MacIntel,60.0024001,,,,,,,,,,,,,,,,,,,-0.165082465,-0.161289062,1,0,0,2.5486,0,7,7,8,1,i,images/br_i.png,images/cb_i.png,,,,,,,,,,,,,,,,,,,,,,,,,
,,,,,,00008,2023-07-24_17h55.44.608,vbt_B1_day1,2022.2.4,MacIntel,60.0024001,,,,,,,,,,,,,,,,,,,-0.165082465,-0.159618056,1,0,0,3.2482,0,8,8,18,1,s,images/br_s.png,images/cb_s.png,,,,,,,,,,,,,,,,,,,,,,,,,
,,,,,,00008,2023-07-24_17h55.44.608,vbt_B1_day1,2022.2.4,MacIntel,60.0024001,,,,,,,,,,,,,,,,,,,-0.162942708,-0.160169271,1,0,0,0.352,0,9,9,16,1,q,images/br_q.png,images/cb_q.png,,,,,,,,,,,,,,,,,,,,,,,,,
,,,,,,00008,2023-07-24_17h55.44.608,vbt_B1_day1,2022.2.4,MacIntel,60.0024001,,,,,,,,,,,,,,,,,,,-0.163459201,-0.158038194,1,0,0,4.0336,0,10,10,23,1,x,images/br_x.png,images/cb_x.png,,,,,,,,,,,,,,,,,,,,,,,,,
,,,,,,00008,2023-07-24_17h55.44.608,vbt_B1_day1,2022.2.4,MacIntel,60.0024001,,,,,,,,,,,,,,,,,,,-0.165685764,-0.157782118,1,0,0,3.7658,0,11,11,24,1,y,images/br_y.png,images/cb_y.png,,,,,,,,,,,,,,,,,,,,,,,,,
,,,,,,00008,2023-07-24_17h55.44.608,vbt_B1_day1,2022.2.4,MacIntel,60.0024001,,,,,,,,,,,,,,,,,,,-0.165147569,-0.155863715,1,0,0,0.8988,0,12,12,17,1,r,images/br_r.png,images/cb_r.png,,,,,,,,,,,,,,,,,,,,,,,,,
,,,,,,00008,2023-07-24_17h55.44.608,vbt_B1_day1,2022.2.4,MacIntel,60.0024001,,,,,,,,,,,,,,,,,,,-0.166679688,-0.139991319,1,0,0,2.7667,0,13,13,22,1,w,images/br_w.png,images/cb_w.png,,,,,,,,,,,,,,,,,,,,,,,,,
,,,,,,00008,2023-07-24_17h55.44.608,vbt_B1_day1,2022.2.4,MacIntel,60.0024001,,,,,,,,,,,,,,,,,,,-0.167491319,-0.139157986,1,0,0,2.2811,0,14,14,13,1,n,images/br_n.png,images/cb_n.png,,,,,,,,,,,,,,,,,,,,,,,,,
,,,,,,00008,2023-07-24_17h55.44.608,vbt_B1_day1,2022.2.4,MacIntel,60.0024001,,,,,,,,,,,,,,,,,,,-0.167491319,-0.139157986,1,0,0,1.7168,0,15,15,19,1,t,images/br_t.png,images/cb_t.png,,,,,,,,,,,,,,,,,,,,,,,,,
,,,,,,00008,2023-07-24_17h55.44.608,vbt_B1_day1,2022.2.4,MacIntel,60.0024001,,,,,,,,,,,,,,,,,,,-0.166701389,-0.139678819,1,0,0,2.133,0,16,16,10,1,k,images/br_k.png,images/cb_k.png,,,,,,,,,,,,,,,,,,,,,,,,,
,,,,,,00008,2023-07-24_17h55.44.608,vbt_B1_day1,2022.2.4,MacIntel,60.0024001,,,,,,,,,,,,,,,,,,,-0.166935764,-0.138346354,1,0,0,1.5974,0,17,17,15,1,p,images/br_p.png,images/cb_p.png,,,,,,,,,,,,,,,,,,,,,,,,,
,,,,,,00008,2023-07-24_17h55.44.608,vbt_B1_day1,2022.2.4,MacIntel,60.0024001,,,,,,,,,,,,,,,,,,,-0.167447917,-0.138606771,1,0,0,10.7831,0,18,18,5,1,f,images/br_f.png,images/cb_f.png,,,,,,,,,,,,,,,,,,,,,,,,,
,,,,,,00008,2023-07-24_17h55.44.608,vbt_B1_day1,2022.2.4,MacIntel,60.0024001,,,,,,,,,,,,,,,,,,,-0.162044271,-0.135603299,1,0,0,2.05,0,19,19,12,1,m,images/br_m.png,images/cb_m.png,,,,,,,,,,,,,,,,,,,,,,,,,
,,,,,,00008,2023-07-24_17h55.44.608,vbt_B1_day1,2022.2.4,MacIntel,60.0024001,,,,,,,,,,,,,,,,,,,-0.162048611,-0.135859375,1,0,0,0.9497,0,20,20,14,1,o,images/br_o.png,images/cb_o.png,,,,,,,,,,,,,,,,,,,,,,,,,
,,,,,,00008,2023-07-24_17h55.44.608,vbt_B1_day1,2022.2.4,MacIntel,60.0024001,,,,,,,,,,,,,,,,,,,-0.162886285,-0.13953125,1,0,0,1.8821,0,21,21,1,1,b,images/br_b.png,images/cb_b.png,,,,,,,,,,,,,,,,,,,,,,,,,
,,,,,,00008,2023-07-24_17h55.44.608,vbt_B1_day1,2022.2.4,MacIntel,60.0024001,,,,,,,,,,,,,,,,,,,-0.163159722,-0.137942708,1,0,0,0.6189,0,22,22,2,1,c,images/br_c.png,images/cb_c.png,,,,,,,,,,,,,,,,,,,,,,,,,
,,,,,,00008,2023-07-24_17h55.44.608,vbt_B1_day1,2022.2.4,MacIntel,60.0024001,,,,,,,,,,,,,,,,,,,-0.123702257,-0.122287326,1,0,0,1.2007,0,23,23,25,1,z,images/br_z.png,images/cb_z.png,,,,,,,,,,,,,,,,,,,,,,,,,
,,,,,,00008,2023-07-24_17h55.44.608,vbt_B1_day1,2022.2.4,MacIntel,60.0024001,,,,,,,,,,,,,,,,,,,-0.127144097,-0.122287326,1,0,0,6.5666,0,24,24,9,1,j,images/br_j.png,images/cb_j.png,,,,,,,,,,,,,,,,,,,,,,,,,
,,,,,,00008,2023-07-24_17h55.44.608,vbt_B1_day1,2022.2.4,MacIntel,60.0024001,,,,,,,,,,,,,,,,,,,-0.056271701,-0.108389757,1,0,0,2.4667,0,25,25,0,1,a,images/br_a.png,images/cb_a.png,,,,,,,,,,,,,,,,,,,,,,,,,
,,,,,,00008,2023-07-24_17h55.44.608,vbt_B1_day1,2022.2.4,MacIntel,60.0024001,,,,,,,,,,,,,,,,,,,-0.056532118,-0.108389757,1,0,0,42.2134,1,0,26,18,1,s,images/br_s.png,images/cb_s.png,,,,,,,,,,,,,,,,,,,,,,,,,
,,,,,,00008,2023-07-24_17h55.44.608,vbt_B1_day1,2022.2.4,MacIntel,60.0024001,,,,,,,,,,,,,,,,,,,-0.056532118,-0.108389757,1,0,0,3.9853,1,1,27,8,1,i,images/br_i.png,images/cb_i.png,,,,,,,,,,,,,,,,,,,,,,,,,
,,,,,,00008,2023-07-24_17h55.44.608,vbt_B1_day1,2022.2.4,MacIntel,60.0024001,,,,,,,,,,,,,,,,,,,-0.056788194,-0.108389757,1,0,0,7.8354,1,2,28,24,1,y,images/br_y.png,images/cb_y.png,,,,,,,,,,,,,,,,,,,,,,,,,
,,,,,,00008,2023-07-24_17h55.44.608,vbt_B1_day1,2022.2.4,MacIntel,60.0024001,,,,,,,,,,,,,,,,,,,-0.056788194,-0.108389757,1,0,0,4.5667,1,3,29,20,1,u,images/br_u.png,images/cb_u.png,,,,,,,,,,,,,,,,,,,,,,,,,
,,,,,,00008,2023-07-24_17h55.44.608,vbt_B1_day1,2022.2.4,MacIntel,60.0024001,,,,,,,,,,,,,,,,,,,-0.056788194,-0.108389757,1,0,0,5.135,1,4,30,17,1,r,images/br_r.png,images/cb_r.png,,,,,,,,,,,,,,,,,,,,,,,,,
,,,,,,00008,2023-07-24_17h55.44.608,vbt_B1_day1,2022.2.4,MacIntel,60.0024001,,,,,,,,,,,,,,,,,,,-0.056788194,-0.108389757,1,0,0,4.6327,1,5,31,19,1,t,images/br_t.png,images/cb_t.png,,,,,,,,,,,,,,,,,,,,,,,,,
,,,,,,00008,2023-07-24_17h55.44.608,vbt_B1_day1,2022.2.4,MacIntel,60.0024001,,,,,,,,,,,,,,,,,,,-0.056788194,-0.108133681,1,0,0,4.0329,1,6,32,23,1,x,images/br_x.png,images/cb_x.png,,,,,,,,,,,,,,,,,,,,,,,,,
,,,,,,00008,2023-07-24_17h55.44.608,vbt_B1_day1,2022.2.4,MacIntel,60.0024001,,,,,,,,,,,,,,,,,,,-0.057048611,-0.104513889,1,0,0,5.5477,1,7,33,1,1,b,images/br_b.png,images/cb_b.png,,,,,,,,,,,,,,,,,,,,,,,,,
,,,,,,00008,2023-07-24_17h55.44.608,vbt_B1_day1,2022.2.4,MacIntel,60.0024001,,,,,,,,,,,,,,,,,,,-0.057048611,-0.104513889,1,0,0,4.2161,1,8,34,15,1,p,images/br_p.png,images/cb_p.png,,,,,,,,,,,,,,,,,,,,,,,,,
,,,,,,00008,2023-07-24_17h55.44.608,vbt_B1_day1,2022.2.4,MacIntel,60.0024001,,,,,,,,,,,,,,,,,,,-0.057048611,-0.103988715,1,0,0,12.0005,1,9,35,21,1,v,images/br_v.png,images/cb_v.png,,,,,,,,,,,,,,,,,,,,,,,,,
,,,,,,00008,2023-07-24_17h55.44.608,vbt_B1_day1,2022.2.4,MacIntel,60.0024001,,,,,,,,,,,,,,,,,,,-0.057048611,-0.103988715,1,0,0,5.3983,1,10,36,13,1,n,images/br_n.png,images/cb_n.png,,,,,,,,,,,,,,,,,,,,,,,,,
,,,,,,00008,2023-07-24_17h55.44.608,vbt_B1_day1,2022.2.4,MacIntel,60.0024001,,,,,,,,,,,,,,,,,,,-0.057048611,-0.103988715,1,0,0,3.9001,1,11,37,3,1,d,images/br_d.png,images/cb_d.png,,,,,,,,,,,,,,,,,,,,,,,,,
,,,,,,00008,2023-07-24_17h55.44.608,vbt_B1_day1,2022.2.4,MacIntel,60.0024001,,,,,,,,,,,,,,,,,,,-0.057048611,-0.103988715,1,0,0,2.5167,1,12,38,7,1,h,images/br_h.png,images/cb_h.png,,,,,,,,,,,,,,,,,,,,,,,,,
,,,,,,00008,2023-07-24_17h55.44.608,vbt_B1_day1,2022.2.4,MacIntel,60.0024001,,,,,,,,,,,,,,,,,,,-0.057048611,-0.103988715,1,0,0,5.551,1,13,39,5,1,f,images/br_f.png,images/cb_f.png,,,,,,,,,,,,,,,,,,,,,,,,,
,,,,,,00008,2023-07-24_17h55.44.608,vbt_B1_day1,2022.2.4,MacIntel,60.0024001,,,,,,,,,,,,,,,,,,,-0.057048611,-0.103988715,1,0,0,9.7663,1,14,40,6,1,g,images/br_g.png,images/cb_g.png,,,,,,,,,,,,,,,,,,,,,,,,,
,,,,,,00008,2023-07-24_17h55.44.608,vbt_B1_day1,2022.2.4,MacIntel,60.0024001,,,,,,,,,,,,,,,,,,,-0.057048611,-0.103988715,1,0,0,3.1171,1,15,41,16,1,q,images/br_q.png,images/cb_q.png,,,,,,,,,,,,,,,,,,,,,,,,,
,,,,,,00008,2023-07-24_17h55.44.608,vbt_B1_day1,2022.2.4,MacIntel,60.0024001,,,,,,,,,,,,,,,,,,,-0.057048611,-0.103988715,1,0,0,2.9179,1,16,42,25,1,z,images/br_z.png,images/cb_z.png,,,,,,,,,,,,,,,,,,,,,,,,,
,,,,,,00008,2023-07-24_17h55.44.608,vbt_B1_day1,2022.2.4,MacIntel,60.0024001,,,,,,,,,,,,,,,,,,,-0.057048611,-0.103988715,1,0,0,1.9834,1,17,43,4,1,e,images/br_e.png,images/cb_e.png,,,,,,,,,,,,,,,,,,,,,,,,,
,,,,,,00008,2023-07-24_17h55.44.608,vbt_B1_day1,2022.2.4,MacIntel,60.0024001,,,,,,,,,,,,,,,,,,,-0.057048611,-0.103988715,1,0,0,3.9002,1,18,44,2,1,c,images/br_c.png,images/cb_c.png,,,,,,,,,,,,,,,,,,,,,,,,,
,,,,,,00008,2023-07-24_17h55.44.608,vbt_B1_day1,2022.2.4,MacIntel,60.0024001,,,,,,,,,,,,,,,,,,,-0.057048611,-0.103988715,1,0,0,5.8168,1,19,45,10,1,k,images/br_k.png,images/cb_k.png,,,,,,,,,,,,,,,,,,,,,,,,,
,,,,,,00008,2023-07-24_17h55.44.608,vbt_B1_day1,2022.2.4,MacIntel,60.0024001,,,,,,,,,,,,,,,,,,,-0.057048611,-0.103988715,1,0,0,2.1003,1,20,46,14,1,o,images/br_o.png,images/cb_o.png,,,,,,,,,,,,,,,,,,,,,,,,,
,,,,,,00008,2023-07-24_17h55.44.608,vbt_B1_day1,2022.2.4,MacIntel,60.0024001,,,,,,,,,,,,,,,,,,,-0.057048611,-0.103988715,1,0,0,10.4321,1,21,47,0,1,a,images/br_a.png,images/cb_a.png,,,,,,,,,,,,,,,,,,,,,,,,,
,,,,,,00008,2023-07-24_17h55.44.608,vbt_B1_day1,2022.2.4,MacIntel,60.0024001,,,,,,,,,,,,,,,,,,,-0.057048611,-0.103988715,1,0,0,20.9495,1,22,48,9,1,j,images/br_j.png,images/cb_j.png,,,,,,,,,,,,,,,,,,,,,,,,,
,,,,,,00008,2023-07-24_17h55.44.608,vbt_B1_day1,2022.2.4,MacIntel,60.0024001,,,,,,,,,,,,,,,,,,,-0.057048611,-0.104496528,1,0,0,5.433,1,23,49,22,1,w,images/br_w.png,images/cb_w.png,,,,,,,,,,,,,,,,,,,,,,,,,
,,,,,,00008,2023-07-24_17h55.44.608,vbt_B1_day1,2022.2.4,MacIntel,60.0024001,,,,,,,,,,,,,,,,,,,-0.055668403,-0.100985243,1,0,0,4.9012,1,24,50,12,1,m,images/br_m.png,images/cb_m.png,,,,,,,,,,,,,,,,,,,,,,,,,
,,,,,,00008,2023-07-24_17h55.44.608,vbt_B1_day1,2022.2.4,MacIntel,60.0024001,,,,,,,,,,,,,,,,,,,-0.055668403,-0.100985243,1,0,0,0.4485,1,25,51,11,1,l,images/br_l.png,images/cb_l.png,,,,,,,,,,,,,,,,,,,,,,,,,
,,,,,,00008,2023-07-24_17h55.44.608,vbt_B1_day1,2022.2.4,MacIntel,60.0024001,,,,,,,,,,,,,,,,,,,-0.055668403,-0.100985243,1,0,0,22.6992,2,0,52,15,1,p,images/br_p.png,images/cb_p.png,,,,,,,,,,,,,,,,,,,,,,,,,
,,,,,,00008,2023-07-24_17h55.44.608,vbt_B1_day1,2022.2.4,MacIntel,60.0024001,,,,,,,,,,,,,,,,,,,-0.055668403,-0.099960937,1,0,0,4.0511,2,1,53,24,1,y,images/br_y.png,images/cb_y.png,,,,,,,,,,,,,,,,,,,,,,,,,
,,,,,,00008,2023-07-24_17h55.44.608,vbt_B1_day1,2022.2.4,MacIntel,60.0024001,,,,,,,,,,,,,,,,,,,-0.055668403,-0.099960937,1,0,0,4.3333,2,2,54,22,1,w,images/br_w.png,images/cb_w.png,,,,,,,,,,,,,,,,,,,,,,,,,
,,,,,,00008,2023-07-24_17h55.44.608,vbt_B1_day1,2022.2.4,MacIntel,60.0024001,,,,,,,,,,,,,,,,,,,-0.055668403,-0.099960937,1,0,0,3.4667,2,3,55,25,1,z,images/br_z.png,images/cb_z.png,,,,,,,,,,,,,,,,,,,,,,,,,
,,,,,,00008,2023-07-24_17h55.44.608,vbt_B1_day1,2022.2.4,MacIntel,60.0024001,,,,,,,,,,,,,,,,,,,-0.055668403,-0.099960937,1,0,0,3.3491,2,4,56,19,1,t,images/br_t.png,images/cb_t.png,,,,,,,,,,,,,,,,,,,,,,,,,
,,,,,,00008,2023-07-24_17h55.44.608,vbt_B1_day1,2022.2.4,MacIntel,60.0024001,,,,,,,,,,,,,,,,,,,-0.055668403,-0.099960937,1,0,0,1.0333,2,5,57,12,1,m,images/br_m.png,images/cb_m.png,,,,,,,,,,,,,,,,,,,,,,,,,
,,,,,,00008,2023-07-24_17h55.44.608,vbt_B1_day1,2022.2.4,MacIntel,60.0024001,,,,,,,,,,,,,,,,,,,-0.055668403,-0.099960937,1,0,0,2.6349,2,6,58,5,1,f,images/br_f.png,images/cb_f.png,,,,,,,,,,,,,,,,,,,,,,,,,
,,,,,,00008,2023-07-24_17h55.44.608,vbt_B1_day1,2022.2.4,MacIntel,60.0024001,,,,,,,,,,,,,,,,,,,-0.055668403,-0.099960937,1,0,0,14.9991,2,7,59,23,1,x,images/br_x.png,images/cb_x.png,,,,,,,,,,,,,,,,,,,,,,,,,
,,,,,,00008,2023-07-24_17h55.44.608,vbt_B1_day1,2022.2.4,MacIntel,60.0024001,,,,,,,,,,,,,,,,,,,-0.055668403,-0.099960937,1,0,0,10.1975,2,8,60,17,1,r,images/br_r.png,images/cb_r.png,,,,,,,,,,,,,,,,,,,,,,,,,
,,,,,,00008,2023-07-24_17h55.44.608,vbt_B1_day1,2022.2.4,MacIntel,60.0024001,,,,,,,,,,,,,,,,,,,-0.057226563,-0.099960937,1,0,0,3.5482,2,9,61,18,1,s,images/br_s.png,images/cb_s.png,,,,,,,,,,,,,,,,,,,,,,,,,
,,,,,,00008,2023-07-24_17h55.44.608,vbt_B1_day1,2022.2.4,MacIntel,60.0024001,,,,,,,,,,,,,,,,,,,-0.057226563,-0.099960937,1,0,0,3.331,2,10,62,9,1,j,images/br_j.png,images/cb_j.png,,,,,,,,,,,,,,,,,,,,,,,,,
,,,,,,00008,2023-07-24_17h55.44.608,vbt_B1_day1,2022.2.4,MacIntel,60.0024001,,,,,,,,,,,,,,,,,,,-0.057226563,-0.099960937,1,0,0,1.6314,2,11,63,8,1,i,images/br_i.png,images/cb_i.png,,,,,,,,,,,,,,,,,,,,,,,,,
,,,,,,00008,2023-07-24_17h55.44.608,vbt_B1_day1,2022.2.4,MacIntel,60.0024001,,,,,,,,,,,,,,,,,,,-0.057226563,-0.099960937,1,0,0,4.5988,2,12,64,21,1,v,images/br_v.png,images/cb_v.png,,,,,,,,,,,,,,,,,,,,,,,,,
,,,,,,00008,2023-07-24_17h55.44.608,vbt_B1_day1,2022.2.4,MacIntel,60.0024001,,,,,,,,,,,,,,,,,,,-0.057226563,-0.099960937,1,0,0,8.948,2,13,65,1,1,b,images/br_b.png,images/cb_b.png,,,,,,,,,,,,,,,,,,,,,,,,,
,,,,,,00008,2023-07-24_17h55.44.608,vbt_B1_day1,2022.2.4,MacIntel,60.0024001,,,,,,,,,,,,,,,,,,,-0.057226563,-0.099960937,1,0,0,2.0145,2,14,66,2,1,c,images/br_c.png,images/cb_c.png,,,,,,,,,,,,,,,,,,,,,,,,,
,,,,,,00008,2023-07-24_17h55.44.608,vbt_B1_day1,2022.2.4,MacIntel,60.0024001,,,,,,,,,,,,,,,,,,,-0.057226563,-0.099704861,1,0,0,4.6657,2,15,67,0,1,a,images/br_a.png,images/cb_a.png,,,,,,,,,,,,,,,,,,,,,,,,,
,,,,,,00008,2023-07-24_17h55.44.608,vbt_B1_day1,2022.2.4,MacIntel,60.0024001,,,,,,,,,,,,,,,,,,,-0.062777778,-0.101462674,1,0,0,3.4155,2,16,68,7,1,h,images/br_h.png,images/cb_h.png,,,,,,,,,,,,,,,,,,,,,,,,,
,,,,,,00008,2023-07-24_17h55.44.608,vbt_B1_day1,2022.2.4,MacIntel,60.0024001,,,,,,,,,,,,,,,,,,,-0.062777778,-0.101462674,1,0,0,0.9004,2,17,69,3,1,d,images/br_d.png,images/cb_d.png,,,,,,,,,,,,,,,,,,,,,,,,,
,,,,,,00008,2023-07-24_17h55.44.608,vbt_B1_day1,2022.2.4,MacIntel,60.0024001,,,,,,,,,,,,,,,,,,,-0.062777778,-0.101462674,1,0,0,8.4163,2,18,70,16,1,q,images/br_q.png,images/cb_q.png,,,,,,,,,,,,,,,,,,,,,,,,,
,,,,,,00008,2023-07-24_17h55.44.608,vbt_B1_day1,2022.2.4,MacIntel,60.0024001,,,,,,,,,,,,,,,,,,,-0.062777778,-0.101462674,1,0,0,4.0994,2,19,71,14,1,o,images/br_o.png,images/cb_o.png,,,,,,,,,,,,,,,,,,,,,,,,,
,,,,,,00008,2023-07-24_17h55.44.608,vbt_B1_day1,2022.2.4,MacIntel,60.0024001,,,,,,,,,,,,,,,,,,,-0.062777778,-0.101462674,1,0,0,2.3832,2,20,72,11,1,l,images/br_l.png,images/cb_l.png,,,,,,,,,,,,,,,,,,,,,,,,,
,,,,,,00008,2023-07-24_17h55.44.608,vbt_B1_day1,2022.2.4,MacIntel,60.0024001,,,,,,,,,,,,,,,,,,,-0.062777778,-0.101462674,1,0,0,1.1173,2,21,73,4,1,e,images/br_e.png,images/cb_e.png,,,,,,,,,,,,,,,,,,,,,,,,,
,,,,,,00008,2023-07-24_17h55.44.608,vbt_B1_day1,2022.2.4,MacIntel,60.0024001,,,,,,,,,,,,,,,,,,,-0.062777778,-0.101462674,1,0,0,4.9666,2,22,74,20,1,u,images/br_u.png,images/cb_u.png,,,,,,,,,,,,,,,,,,,,,,,,,
,,,,,,00008,2023-07-24_17h55.44.608,vbt_B1_day1,2022.2.4,MacIntel,60.0024001,,,,,,,,,,,,,,,,,,,-0.062777778,-0.101462674,1,0,0,4.3165,2,23,75,13,1,n,images/br_n.png,images/cb_n.png,,,,,,,,,,,,,,,,,,,,,,,,,
,,,,,,00008,2023-07-24_17h55.44.608,vbt_B1_day1,2022.2.4,MacIntel,60.0024001,,,,,,,,,,,,,,,,,,,-0.062777778,-0.101462674,1,0,0,2.5652,2,24,76,10,1,k,images/br_k.png,images/cb_k.png,,,,,,,,,,,,,,,,,,,,,,,,,
,,,,,,00008,2023-07-24_17h55.44.608,vbt_B1_day1,2022.2.4,MacIntel,60.0024001,,,,,,,,,,,,,,,,,,,-0.062777778,-0.101462674,1,0,0,6.8817,2,25,77,6,1,g,images/br_g.png,images/cb_g.png,,,,,,,,,,,,,,,,,,,,,,,,,
,,,,,,00008,2023-07-24_17h55.44.608,vbt_B1_day1,2022.2.4,MacIntel,60.0024001,,,,,,,,,,,,,,,,,,,-0.062777778,-0.101462674,1,0,0,3.8176,3,0,78,22,1,w,images/br_w.png,images/cb_w.png,,,,,,,,,,,,,,,,,,,,,,,,,
,,,,,,00008,2023-07-24_17h55.44.608,vbt_B1_day1,2022.2.4,MacIntel,60.0024001,,,,,,,,,,,,,,,,,,,-0.079804687,-0.113085937,1,0,0,3.5331,3,1,79,13,1,n,images/br_n.png,images/cb_n.png,,,,,,,,,,,,,,,,,,,,,,,,,
,,,,,,00008,2023-07-24_17h55.44.608,vbt_B1_day1,2022.2.4,MacIntel,60.0024001,,,,,,,,,,,,,,,,,,,-0.079804687,-0.113085937,1,0,0,4.6156,3,2,80,1,1,b,images/br_b.png,images/cb_b.png,,,,,,,,,,,,,,,,,,,,,,,,,
,,,,,,00008,2023-07-24_17h55.44.608,vbt_B1_day1,2022.2.4,MacIntel,60.0024001,,,,,,,,,,,,,,,,,,,-0.081080729,-0.115112847,1,0,0,5.083,3,3,81,5,1,f,images/br_f.png,images/cb_f.png,,,,,,,,,,,,,,,,,,,,,,,,,
,,,,,,00008,2023-07-24_17h55.44.608,vbt_B1_day1,2022.2.4,MacIntel,60.0024001,,,,,,,,,,,,,,,,,,,-0.081080729,-0.115112847,1,0,0,2.4474,3,4,82,3,1,d,images/br_d.png,images/cb_d.png,,,,,,,,,,,,,,,,,,,,,,,,,
,,,,,,00008,2023-07-24_17h55.44.608,vbt_B1_day1,2022.2.4,MacIntel,60.0024001,,,,,,,,,,,,,,,,,,,-0.081080729,-0.115112847,1,0,0,7.1664,3,5,83,20,1,u,images/br_u.png,images/cb_u.png,,,,,,,,,,,,,,,,,,,,,,,,,
,,,,,,00008,2023-07-24_17h55.44.608,vbt_B1_day1,2022.2.4,MacIntel,60.0024001,,,,,,,,,,,,,,,,,,,-0.081080729,-0.115112847,1,0,0,2.5485,3,6,84,9,1,j,images/br_j.png,images/cb_j.png,,,,,,,,,,,,,,,,,,,,,,,,,
,,,,,,00008,2023-07-24_17h55.44.608,vbt_B1_day1,2022.2.4,MacIntel,60.0024001,,,,,,,,,,,,,,,,,,,-0.081080729,-0.115112847,1,0,0,3.7986,3,7,85,15,1,p,images/br_p.png,images/cb_p.png,,,,,,,,,,,,,,,,,,,,,,,,,
,,,,,,00008,2023-07-24_17h55.44.608,vbt_B1_day1,2022.2.4,MacIntel,60.0024001,,,,,,,,,,,,,,,,,,,-0.081080729,-0.115112847,1,0,0,3.7328,3,8,86,0,1,a,images/br_a.png,images/cb_a.png,,,,,,,,,,,,,,,,,,,,,,,,,
,,,,,,00008,2023-07-24_17h55.44.608,vbt_B1_day1,2022.2.4,MacIntel,60.0024001,,,,,,,,,,,,,,,,,,,-0.081080729,-0.115112847,1,0,0,3.6666,3,9,87,19,1,t,images/br_t.png,images/cb_t.png,,,,,,,,,,,,,,,,,,,,,,,,,
,,,,,,00008,2023-07-24_17h55.44.608,vbt_B1_day1,2022.2.4,MacIntel,60.0024001,,,,,,,,,,,,,,,,,,,-0.081080729,-0.115112847,1,0,0,16.2668,3,10,88,10,1,k,images/br_k.png,images/cb_k.png,,,,,,,,,,,,,,,,,,,,,,,,,
,,,,,,00008,2023-07-24_17h55.44.608,vbt_B1_day1,2022.2.4,MacIntel,60.0024001,,,,,,,,,,,,,,,,,,,-0.081080729,-0.115112847,1,0,0,2.7996,3,11,89,23,1,x,images/br_x.png,images/cb_x.png,,,,,,,,,,,,,,,,,,,,,,,,,
,,,,,,00008,2023-07-24_17h55.44.608,vbt_B1_day1,2022.2.4,MacIntel,60.0024001,,,,,,,,,,,,,,,,,,,-0.081080729,-0.115112847,1,0,0,108.864,3,12,90,17,1,r,images/br_r.png,images/cb_r.png,,,,,,,,,,,,,,,,,,,,,,,,,
,,,,,,00008,2023-07-24_17h55.44.608,vbt_B1_day1,2022.2.4,MacIntel,60.0024001,,,,,,,,,,,,,,,,,,,-0.081080729,-0.115112847,1,0,0,3.5651,3,13,91,6,1,g,images/br_g.png,images/cb_g.png,,,,,,,,,,,,,,,,,,,,,,,,,
,,,,,,00008,2023-07-24_17h55.44.608,vbt_B1_day1,2022.2.4,MacIntel,60.0024001,,,,,,,,,,,,,,,,,,,-0.081080729,-0.115112847,1,0,0,3.2497,3,14,92,2,1,c,images/br_c.png,images/cb_c.png,,,,,,,,,,,,,,,,,,,,,,,,,
,,,,,,00008,2023-07-24_17h55.44.608,vbt_B1_day1,2022.2.4,MacIntel,60.0024001,,,,,,,,,,,,,,,,,,,-0.081848958,-0.113320313,1,0,0,3.2837,3,15,93,7,1,h,images/br_h.png,images/cb_h.png,,,,,,,,,,,,,,,,,,,,,,,,,
,,,,,,00008,2023-07-24_17h55.44.608,vbt_B1_day1,2022.2.4,MacIntel,60.0024001,,,,,,,,,,,,,,,,,,,-0.186514757,-0.137821181,1,0,0,182.3608,3,16,94,16,1,q,images/br_q.png,images/cb_q.png,,,,,,,,,,,,,,,,,,,,,,,,,
,,,,,,00008,2023-07-24_17h55.44.608,vbt_B1_day1,2022.2.4,MacIntel,60.0024001,,,,,,,,,,,,,,,,,,,-0.186514757,-0.137821181,1,0,0,4.5502,3,17,95,18,1,s,images/br_s.png,images/cb_s.png,,,,,,,,,,,,,,,,,,,,,,,,,
,,,,,,00008,2023-07-24_17h55.44.608,vbt_B1_day1,2022.2.4,MacIntel,60.0024001,,,,,,,,,,,,,,,,,,,-0.186514757,-0.137821181,1,0,0,63.6951,3,18,96,12,1,m,images/br_m.png,images/cb_m.png,,,,,,,,,,,,,,,,,,,,,,,,,
,,,,,,00008,2023-07-24_17h55.44.608,vbt_B1_day1,2022.2.4,MacIntel,60.0024001,,,,,,,,,,,,,,,,,,,-0.186514757,-0.137821181,1,0,0,3.2663,3,19,97,8,1,i,images/br_i.png,images/cb_i.png,,,,,,,,,,,,,,,,,,,,,,,,,
,,,,,,00008,2023-07-24_17h55.44.608,vbt_B1_day1,2022.2.4,MacIntel,60.0024001,,,,,,,,,,,,,,,,,,,-0.186514757,-0.137821181,1,0,0,1.2662,3,20,98,11,1,l,images/br_l.png,images/cb_l.png,,,,,,,,,,,,,,,,,,,,,,,,,
,,,,,,00008,2023-07-24_17h55.44.608,vbt_B1_day1,2022.2.4,MacIntel,60.0024001,,,,,,,,,,,,,,,,,,,-0.186514757,-0.137821181,1,0,0,3.099,3,21,99,4,1,e,images/br_e.png,images/cb_e.png,,,,,,,,,,,,,,,,,,,,,,,,,
,,,,,,00008,2023-07-24_17h55.44.608,vbt_B1_day1,2022.2.4,MacIntel,60.0024001,,,,,,,,,,,,,,,,,,,-0.186514757,-0.137821181,1,0,0,2.982,3,22,100,14,1,o,images/br_o.png,images/cb_o.png,,,,,,,,,,,,,,,,,,,,,,,,,
,,,,,,00008,2023-07-24_17h55.44.608,vbt_B1_day1,2022.2.4,MacIntel,60.0024001,,,,,,,,,,,,,,,,,,,-0.185972222,-0.13453125,1,0,0,4.7305,3,23,101,24,1,y,images/br_y.png,images/cb_y.png,,,,,,,,,,,,,,,,,,,,,,,,,
,,,,,,00008,2023-07-24_17h55.44.608,vbt_B1_day1,2022.2.4,MacIntel,60.0024001,,,,,,,,,,,,,,,,,,,-0.185972222,-0.13453125,1,0,0,7.3148,3,24,102,21,1,v,images/br_v.png,images/cb_v.png,,,,,,,,,,,,,,,,,,,,,,,,,
,,,,,,00008,2023-07-24_17h55.44.608,vbt_B1_day1,2022.2.4,MacIntel,60.0024001,,,,,,,,,,,,,,,,,,,-0.185972222,-0.13453125,1,0,0,4.0686,3,25,103,25,1,z,images/br_z.png,images/cb_z.png,,,,,,,,,,,,,,,,,,,,,,,,,
,,,,,,00008,2023-07-24_17h55.44.608,vbt_B1_day1,2022.2.4,MacIntel,60.0024001,,,,,,,,,,,,,,,,,,,-0.185972222,-0.13453125,1,0,0,3.4503,4,0,104,7,1,h,images/br_h.png,images/cb_h.png,,,,,,,,,,,,,,,,,,,,,,,,,
,,,,,,00008,2023-07-24_17h55.44.608,vbt_B1_day1,2022.2.4,MacIntel,60.0024001,,,,,,,,,,,,,,,,,,,-0.185972222,-0.13453125,1,0,0,2.983,4,1,105,10,1,k,images/br_k.png,images/cb_k.png,,,,,,,,,,,,,,,,,,,,,,,,,
,,,,,,00008,2023-07-24_17h55.44.608,vbt_B1_day1,2022.2.4,MacIntel,60.0024001,,,,,,,,,,,,,,,,,,,-0.185972222,-0.13453125,1,0,0,3.0665,4,2,106,18,1,s,images/br_s.png,images/cb_s.png,,,,,,,,,,,,,,,,,,,,,,,,,
,,,,,,00008,2023-07-24_17h55.44.608,vbt_B1_day1,2022.2.4,MacIntel,60.0024001,,,,,,,,,,,,,,,,,,,-0.185972222,-0.13453125,1,0,0,4.9842,4,3,107,16,1,q,images/br_q.png,images/cb_q.png,,,,,,,,,,,,,,,,,,,,,,,,,
,,,,,,00008,2023-07-24_17h55.44.608,vbt_B1_day1,2022.2.4,MacIntel,60.0024001,,,,,,,,,,,,,,,,,,,-0.185972222,-0.13453125,1,0,0,11.2658,4,4,108,24,1,y,images/br_y.png,images/cb_y.png,,,,,,,,,,,,,,,,,,,,,,,,,
,,,,,,00008,2023-07-24_17h55.44.608,vbt_B1_day1,2022.2.4,MacIntel,60.0024001,,,,,,,,,,,,,,,,,,,-0.186532118,-0.131076389,1,0,0,3.2857,4,5,109,12,1,m,images/br_m.png,images/cb_m.png,,,,,,,,,,,,,,,,,,,,,,,,,
,,,,,,00008,2023-07-24_17h55.44.608,vbt_B1_day1,2022.2.4,MacIntel,60.0024001,,,,,,,,,,,,,,,,,,,-0.186532118,-0.131076389,1,0,0,8.0181,4,6,110,4,1,e,images/br_e.png,images/cb_e.png,,,,,,,,,,,,,,,,,,,,,,,,,
,,,,,,00008,2023-07-24_17h55.44.608,vbt_B1_day1,2022.2.4,MacIntel,60.0024001,,,,,,,,,,,,,,,,,,,-0.186788194,-0.12953559,1,0,0,5.3841,4,7,111,9,1,j,images/br_j.png,images/cb_j.png,,,,,,,,,,,,,,,,,,,,,,,,,
,,,,,,00008,2023-07-24_17h55.44.608,vbt_B1_day1,2022.2.4,MacIntel,60.0024001,,,,,,,,,,,,,,,,,,,-0.186788194,-0.12953559,1,0,0,3.2989,4,8,112,14,1,o,images/br_o.png,images/cb_o.png,,,,,,,,,,,,,,,,,,,,,,,,,
,,,,,,00008,2023-07-24_17h55.44.608,vbt_B1_day1,2022.2.4,MacIntel,60.0024001,,,,,,,,,,,,,,,,,,,-0.186788194,-0.12953559,1,0,0,2.8857,4,9,113,11,1,l,images/br_l.png,images/cb_l.png,,,,,,,,,,,,,,,,,,,,,,,,,
,,,,,,00008,2023-07-24_17h55.44.608,vbt_B1_day1,2022.2.4,MacIntel,60.0024001,,,,,,,,,,,,,,,,,,,-0.186788194,-0.12953559,1,0,0,5.516,4,10,114,5,1,f,images/br_f.png,images/cb_f.png,,,,,,,,,,,,,,,,,,,,,,,,,
,,,,,,00008,2023-07-24_17h55.44.608,vbt_B1_day1,2022.2.4,MacIntel,60.0024001,,,,,,,,,,,,,,,,,,,-0.186788194,-0.12953559,1,0,0,2.2334,4,11,115,8,1,i,images/br_i.png,images/cb_i.png,,,,,,,,,,,,,,,,,,,,,,,,,
,,,,,,00008,2023-07-24_17h55.44.608,vbt_B1_day1,2022.2.4,MacIntel,60.0024001,,,,,,,,,,,,,,,,,,,-0.186788194,-0.12953559,1,0,0,4.6156,4,12,116,0,1,a,images/br_a.png,images/cb_a.png,,,,,,,,,,,,,,,,,,,,,,,,,
,,,,,,00008,2023-07-24_17h55.44.608,vbt_B1_day1,2022.2.4,MacIntel,60.0024001,,,,,,,,,,,,,,,,,,,-0.186788194,-0.12953559,1,0,0,2.9991,4,13,117,1,1,b,images/br_b.png,images/cb_b.png,,,,,,,,,,,,,,,,,,,,,,,,,
,,,,,,00008,2023-07-24_17h55.44.608,vbt_B1_day1,2022.2.4,MacIntel,60.0024001,,,,,,,,,,,,,,,,,,,-0.186788194,-0.12953559,1,0,0,3.4662,4,14,118,21,1,v,images/br_v.png,images/cb_v.png,,,,,,,,,,,,,,,,,,,,,,,,,
,,,,,,00008,2023-07-24_17h55.44.608,vbt_B1_day1,2022.2.4,MacIntel,60.0024001,,,,,,,,,,,,,,,,,,,-0.186788194,-0.12953559,1,0,0,4.4498,4,15,119,22,1,w,images/br_w.png,images/cb_w.png,,,,,,,,,,,,,,,,,,,,,,,,,
,,,,,,00008,2023-07-24_17h55.44.608,vbt_B1_day1,2022.2.4,MacIntel,60.0024001,,,,,,,,,,,,,,,,,,,-0.186788194,-0.12953559,1,0,0,9.0659,4,16,120,6,1,g,images/br_g.png,images/cb_g.png,,,,,,,,,,,,,,,,,,,,,,,,,
,,,,,,00008,2023-07-24_17h55.44.608,vbt_B1_day1,2022.2.4,MacIntel,60.0024001,,,,,,,,,,,,,,,,,,,-0.186788194,-0.12953559,1,0,0,4.3675,4,17,121,15,1,p,images/br_p.png,images/cb_p.png,,,,,,,,,,,,,,,,,,,,,,,,,
,,,,,,00008,2023-07-24_17h55.44.608,vbt_B1_day1,2022.2.4,MacIntel,60.0024001,,,,,,,,,,,,,,,,,,,-0.186788194,-0.134618056,1,0,0,5.2003,4,18,122,25,1,z,images/br_z.png,images/cb_z.png,,,,,,,,,,,,,,,,,,,,,,,,,
,,,,,,00008,2023-07-24_17h55.44.608,vbt_B1_day1,2022.2.4,MacIntel,60.0024001,,,,,,,,,,,,,,,,,,,-0.186788194,-0.1359375,1,0,0,4.7338,4,19,123,19,1,t,images/br_t.png,images/cb_t.png,,,,,,,,,,,,,,,,,,,,,,,,,
,,,,,,00008,2023-07-24_17h55.44.608,vbt_B1_day1,2022.2.4,MacIntel,60.0024001,,,,,,,,,,,,,,,,,,,-0.186788194,-0.1359375,1,0,0,3.9669,4,20,124,20,1,u,images/br_u.png,images/cb_u.png,,,,,,,,,,,,,,,,,,,,,,,,,
,,,,,,00008,2023-07-24_17h55.44.608,vbt_B1_day1,2022.2.4,MacIntel,60.0024001,,,,,,,,,,,,,,,,,,,-0.186788194,-0.1359375,1,0,0,3.7986,4,21,125,13,1,n,images/br_n.png,images/cb_n.png,,,,,,,,,,,,,,,,,,,,,,,,,
,,,,,,00008,2023-07-24_17h55.44.608,vbt_B1_day1,2022.2.4,MacIntel,60.0024001,,,,,,,,,,,,,,,,,,,-0.186788194,-0.1359375,1,0,0,2.1493,4,22,126,23,1,x,images/br_x.png,images/cb_x.png,,,,,,,,,,,,,,,,,,,,,,,,,
,,,,,,00008,2023-07-24_17h55.44.608,vbt_B1_day1,2022.2.4,MacIntel,60.0024001,,,,,,,,,,,,,,,,,,,-0.183658854,-0.151289062,1,0,0,3.9993,4,23,127,3,1,d,images/br_d.png,images/cb_d.png,,,,,,,,,,,,,,,,,,,,,,,,,
,,,,,,00008,2023-07-24_17h55.44.608,vbt_B1_day1,2022.2.4,MacIntel,60.0024001,,,,,,,,,,,,,,,,,,,-0.183658854,-0.151289062,1,0,0,2.184,4,24,128,2,1,c,images/br_c.png,images/cb_c.png,,,,,,,,,,,,,,,,,,,,,,,,,
,,,,,,00008,2023-07-24_17h55.44.608,vbt_B1_day1,2022.2.4,MacIntel,60.0024001,,,,,,,,,,,,,,,,,,,-0.183658854,-0.151289062,1,0,0,3.181,4,25,129,17,1,r,images/br_r.png,images/cb_r.png,,,,,,,,,,,,,,,,,,,,,,,,,
,,,,,,00008,2023-07-24_17h55.44.608,vbt_B1_day1,2022.2.4,MacIntel,60.0024001,,,,,,,,,,,,,,,,,,,-0.183658854,-0.142578125,1,0,0,2.8361,5,0,130,4,1,e,images/br_e.png,images/cb_e.png,,,,,,,,,,,,,,,,,,,,,,,,,
,,,,,,00008,2023-07-24_17h55.44.608,vbt_B1_day1,2022.2.4,MacIntel,60.0024001,,,,,,,,,,,,,,,,,,,-0.184270833,-0.146653646,1,0,0,4.917,5,1,131,15,1,p,images/br_p.png,images/cb_p.png,,,,,,,,,,,,,,,,,,,,,,,,,
,,,,,,00008,2023-07-24_17h55.44.608,vbt_B1_day1,2022.2.4,MacIntel,60.0024001,,,,,,,,,,,,,,,,,,,-0.184270833,-0.146653646,1,0,0,19.1317,5,2,132,9,1,j,images/br_j.png,images/cb_j.png,,,,,,,,,,,,,,,,,,,,,,,,,
,,,,,,00008,2023-07-24_17h55.44.608,vbt_B1_day1,2022.2.4,MacIntel,60.0024001,,,,,,,,,,,,,,,,,,,-0.184270833,-0.146653646,1,0,0,2.8179,5,3,133,25,1,z,images/br_z.png,images/cb_z.png,,,,,,,,,,,,,,,,,,,,,,,,,
,,,,,,00008,2023-07-24_17h55.44.608,vbt_B1_day1,2022.2.4,MacIntel,60.0024001,,,,,,,,,,,,,,,,,,,-0.184270833,-0.146653646,1,0,0,3.7819,5,4,134,19,1,t,images/br_t.png,images/cb_t.png,,,,,,,,,,,,,,,,,,,,,,,,,
,,,,,,00008,2023-07-24_17h55.44.608,vbt_B1_day1,2022.2.4,MacIntel,60.0024001,,,,,,,,,,,,,,,,,,,-0.184270833,-0.146653646,1,0,0,8.0524,5,5,135,24,1,y,images/br_y.png,images/cb_y.png,,,,,,,,,,,,,,,,,,,,,,,,,
,,,,,,00008,2023-07-24_17h55.44.608,vbt_B1_day1,2022.2.4,MacIntel,60.0024001,,,,,,,,,,,,,,,,,,,-0.184270833,-0.146653646,1,0,0,2.6329,5,6,136,2,1,c,images/br_c.png,images/cb_c.png,,,,,,,,,,,,,,,,,,,,,,,,,
,,,,,,00008,2023-07-24_17h55.44.608,vbt_B1_day1,2022.2.4,MacIntel,60.0024001,,,,,,,,,,,,,,,,,,,-0.184270833,-0.146653646,1,0,0,4.5659,5,7,137,23,1,x,images/br_x.png,images/cb_x.png,,,,,,,,,,,,,,,,,,,,,,,,,
,,,,,,00008,2023-07-24_17h55.44.608,vbt_B1_day1,2022.2.4,MacIntel,60.0024001,,,,,,,,,,,,,,,,,,,-0.184270833,-0.146653646,1,0,0,2.8146,5,8,138,14,1,o,images/br_o.png,images/cb_o.png,,,,,,,,,,,,,,,,,,,,,,,,,
,,,,,,00008,2023-07-24_17h55.44.608,vbt_B1_day1,2022.2.4,MacIntel,60.0024001,,,,,,,,,,,,,,,,,,,-0.184270833,-0.146653646,1,0,0,2.3996,5,9,139,7,1,h,images/br_h.png,images/cb_h.png,,,,,,,,,,,,,,,,,,,,,,,,,
,,,,,,00008,2023-07-24_17h55.44.608,vbt_B1_day1,2022.2.4,MacIntel,60.0024001,,,,,,,,,,,,,,,,,,,-0.184270833,-0.146653646,1,0,0,3.6676,5,10,140,22,1,w,images/br_w.png,images/cb_w.png,,,,,,,,,,,,,,,,,,,,,,,,,
,,,,,,00008,2023-07-24_17h55.44.608,vbt_B1_day1,2022.2.4,MacIntel,60.0024001,,,,,,,,,,,,,,,,,,,-0.184270833,-0.146653646,1,0,0,1.7829,5,11,141,8,1,i,images/br_i.png,images/cb_i.png,,,,,,,,,,,,,,,,,,,,,,,,,
,,,,,,00008,2023-07-24_17h55.44.608,vbt_B1_day1,2022.2.4,MacIntel,60.0024001,,,,,,,,,,,,,,,,,,,-0.183072917,-0.146679687,1,0,0,14.6155,5,12,142,3,1,d,images/br_d.png,images/cb_d.png,,,,,,,,,,,,,,,,,,,,,,,,,
,,,,,,00008,2023-07-24_17h55.44.608,vbt_B1_day1,2022.2.4,MacIntel,60.0024001,,,,,,,,,,,,,,,,,,,-0.183072917,-0.146679687,1,0,0,8.8165,5,13,143,13,1,n,images/br_n.png,images/cb_n.png,,,,,,,,,,,,,,,,,,,,,,,,,
,,,,,,00008,2023-07-24_17h55.44.608,vbt_B1_day1,2022.2.4,MacIntel,60.0024001,,,,,,,,,,,,,,,,,,,-0.183072917,-0.146679687,1,0,0,3.8669,5,14,144,18,1,s,images/br_s.png,images/cb_s.png,,,,,,,,,,,,,,,,,,,,,,,,,
,,,,,,00008,2023-07-24_17h55.44.608,vbt_B1_day1,2022.2.4,MacIntel,60.0024001,,,,,,,,,,,,,,,,,,,-0.183072917,-0.146679687,1,0,0,3.1499,5,15,145,21,1,v,images/br_v.png,images/cb_v.png,,,,,,,,,,,,,,,,,,,,,,,,,
,,,,,,00008,2023-07-24_17h55.44.608,vbt_B1_day1,2022.2.4,MacIntel,60.0024001,,,,,,,,,,,,,,,,,,,-0.183072917,-0.146679687,1,0,0,4.4517,5,16,146,10,1,k,images/br_k.png,images/cb_k.png,,,,,,,,,,,,,,,,,,,,,,,,,
,,,,,,00008,2023-07-24_17h55.44.608,vbt_B1_day1,2022.2.4,MacIntel,60.0024001,,,,,,,,,,,,,,,,,,,-0.183072917,-0.146679687,1,0,0,6.3343,5,17,147,0,1,a,images/br_a.png,images/cb_a.png,,,,,,,,,,,,,,,,,,,,,,,,,
,,,,,,00008,2023-07-24_17h55.44.608,vbt_B1_day1,2022.2.4,MacIntel,60.0024001,,,,,,,,,,,,,,,,,,,-0.183072917,-0.146679687,1,0,0,4.3152,5,18,148,6,1,g,images/br_g.png,images/cb_g.png,,,,,,,,,,,,,,,,,,,,,,,,,
,,,,,,00008,2023-07-24_17h55.44.608,vbt_B1_day1,2022.2.4,MacIntel,60.0024001,,,,,,,,,,,,,,,,,,,-0.183072917,-0.146679687,1,0,0,8.933,5,19,149,1,1,b,images/br_b.png,images/cb_b.png,,,,,,,,,,,,,,,,,,,,,,,,,
,,,,,,00008,2023-07-24_17h55.44.608,vbt_B1_day1,2022.2.4,MacIntel,60.0024001,,,,,,,,,,,,,,,,,,,-0.183072917,-0.146679687,1,0,0,2.5323,5,20,150,11,1,l,images/br_l.png,images/cb_l.png,,,,,,,,,,,,,,,,,,,,,,,,,
,,,,,,00008,2023-07-24_17h55.44.608,vbt_B1_day1,2022.2.4,MacIntel,60.0024001,,,,,,,,,,,,,,,,,,,-0.183072917,-0.146679687,1,0,0,6.2155,5,21,151,16,1,q,images/br_q.png,images/cb_q.png,,,,,,,,,,,,,,,,,,,,,,,,,
,,,,,,00008,2023-07-24_17h55.44.608,vbt_B1_day1,2022.2.4,MacIntel,60.0024001,,,,,,,,,,,,,,,,,,,-0.183072917,-0.146679687,1,0,0,2.633,5,22,152,17,1,r,images/br_r.png,images/cb_r.png,,,,,,,,,,,,,,,,,,,,,,,,,
,,,,,,00008,2023-07-24_17h55.44.608,vbt_B1_day1,2022.2.4,MacIntel,60.0024001,,,,,,,,,,,,,,,,,,,-0.183072917,-0.146679687,1,0,0,2.8,5,23,153,5,1,f,images/br_f.png,images/cb_f.png,,,,,,,,,,,,,,,,,,,,,,,,,
,,,,,,00008,2023-07-24_17h55.44.608,vbt_B1_day1,2022.2.4,MacIntel,60.0024001,,,,,,,,,,,,,,,,,,,-0.183072917,-0.146679687,1,0,0,3.5145,5,24,154,20,1,u,images/br_u.png,images/cb_u.png,,,,,,,,,,,,,,,,,,,,,,,,,
,,,,,,00008,2023-07-24_17h55.44.608,vbt_B1_day1,2022.2.4,MacIntel,60.0024001,,,,,,,,,,,,,,,,,,,-0.183072917,-0.146679687,1,0,0,20.1827,5,25,155,12,1,m,images/br_m.png,images/cb_m.png,,,,,,,,,,,,,,,,,,,,,,,,,
,,,,,,00008,2023-07-24_17h55.44.608,vbt_B1_day1,2022.2.4,MacIntel,60.0024001,,,,,,,,,,,,,,,,,,,-0.183072917,-0.146679687,1,0,0,1.2852,6,0,156,8,1,i,images/br_i.png,images/cb_i.png,,,,,,,,,,,,,,,,,,,,,,,,,
,,,,,,00008,2023-07-24_17h55.44.608,vbt_B1_day1,2022.2.4,MacIntel,60.0024001,,,,,,,,,,,,,,,,,,,-0.183072917,-0.146679687,1,0,0,5.9157,6,1,157,0,1,a,images/br_a.png,images/cb_a.png,,,,,,,,,,,,,,,,,,,,,,,,,
,,,,,,00008,2023-07-24_17h55.44.608,vbt_B1_day1,2022.2.4,MacIntel,60.0024001,,,,,,,,,,,,,,,,,,,-0.183072917,-0.146679687,1,0,0,4.8334,6,2,158,13,1,n,images/br_n.png,images/cb_n.png,,,,,,,,,,,,,,,,,,,,,,,,,
,,,,,,00008,2023-07-24_17h55.44.608,vbt_B1_day1,2022.2.4,MacIntel,60.0024001,,,,,,,,,,,,,,,,,,,-0.183346354,-0.148424479,1,0,0,2.6679,6,3,159,11,1,l,images/br_l.png,images/cb_l.png,,,,,,,,,,,,,,,,,,,,,,,,,
,,,,,,00008,2023-07-24_17h55.44.608,vbt_B1_day1,2022.2.4,MacIntel,60.0024001,,,,,,,,,,,,,,,,,,,-0.183346354,-0.148424479,1,0,0,2.8827,6,4,160,21,1,v,images/br_v.png,images/cb_v.png,,,,,,,,,,,,,,,,,,,,,,,,,
,,,,,,00008,2023-07-24_17h55.44.608,vbt_B1_day1,2022.2.4,MacIntel,60.0024001,,,,,,,,,,,,,,,,,,,-0.183346354,-0.146106771,1,0,0,3.4329,6,5,161,6,1,g,images/br_g.png,images/cb_g.png,,,,,,,,,,,,,,,,,,,,,,,,,
,,,,,,00008,2023-07-24_17h55.44.608,vbt_B1_day1,2022.2.4,MacIntel,60.0024001,,,,,,,,,,,,,,,,,,,-0.183346354,-0.146106771,1,0,0,3.7355,6,6,162,14,1,o,images/br_o.png,images/cb_o.png,,,,,,,,,,,,,,,,,,,,,,,,,
,,,,,,00008,2023-07-24_17h55.44.608,vbt_B1_day1,2022.2.4,MacIntel,60.0024001,,,,,,,,,,,,,,,,,,,-0.183346354,-0.146106771,1,0,0,3.1646,6,7,163,19,1,t,images/br_t.png,images/cb_t.png,,,,,,,,,,,,,,,,,,,,,,,,,
,,,,,,00008,2023-07-24_17h55.44.608,vbt_B1_day1,2022.2.4,MacIntel,60.0024001,,,,,,,,,,,,,,,,,,,-0.183346354,-0.146085069,1,0,0,3.1829,6,8,164,18,1,s,images/br_s.png,images/cb_s.png,,,,,,,,,,,,,,,,,,,,,,,,,
,,,,,,00008,2023-07-24_17h55.44.608,vbt_B1_day1,2022.2.4,MacIntel,60.0024001,,,,,,,,,,,,,,,,,,,-0.18359809,-0.147686632,1,0,0,3.6313,6,9,165,22,1,w,images/br_w.png,images/cb_w.png,,,,,,,,,,,,,,,,,,,,,,,,,
,,,,,,00008,2023-07-24_17h55.44.608,vbt_B1_day1,2022.2.4,MacIntel,60.0024001,,,,,,,,,,,,,,,,,,,-0.184157986,-0.148654514,1,0,0,3.7826,6,10,166,15,1,p,images/br_p.png,images/cb_p.png,,,,,,,,,,,,,,,,,,,,,,,,,
,,,,,,00008,2023-07-24_17h55.44.608,vbt_B1_day1,2022.2.4,MacIntel,60.0024001,,,,,,,,,,,,,,,,,,,-0.184157986,-0.148654514,1,0,0,45.3319,6,11,167,2,1,c,images/br_c.png,images/cb_c.png,,,,,,,,,,,,,,,,,,,,,,,,,
,,,,,,00008,2023-07-24_17h55.44.608,vbt_B1_day1,2022.2.4,MacIntel,60.0024001,,,,,,,,,,,,,,,,,,,-0.184157986,-0.148654514,1,0,0,2.7175,6,12,168,23,1,x,images/br_x.png,images/cb_x.png,,,,,,,,,,,,,,,,,,,,,,,,,
,,,,,,00008,2023-07-24_17h55.44.608,vbt_B1_day1,2022.2.4,MacIntel,60.0024001,,,,,,,,,,,,,,,,,,,-0.184157986,-0.148654514,1,0,0,2.5498,6,13,169,20,1,u,images/br_u.png,images/cb_u.png,,,,,,,,,,,,,,,,,,,,,,,,,
,,,,,,00008,2023-07-24_17h55.44.608,vbt_B1_day1,2022.2.4,MacIntel,60.0024001,,,,,,,,,,,,,,,,,,,-0.184157986,-0.148654514,1,0,0,2.901,6,14,170,12,1,m,images/br_m.png,images/cb_m.png,,,,,,,,,,,,,,,,,,,,,,,,,
,,,,,,00008,2023-07-24_17h55.44.608,vbt_B1_day1,2022.2.4,MacIntel,60.0024001,,,,,,,,,,,,,,,,,,,-0.184157986,-0.148654514,1,0,0,2.9494,6,15,171,17,1,r,images/br_r.png,images/cb_r.png,,,,,,,,,,,,,,,,,,,,,,,,,
,,,,,,00008,2023-07-24_17h55.44.608,vbt_B1_day1,2022.2.4,MacIntel,60.0024001,,,,,,,,,,,,,,,,,,,-0.184157986,-0.148654514,1,0,0,1.7169,6,16,172,1,1,b,images/br_b.png,images/cb_b.png,,,,,,,,,,,,,,,,,,,,,,,,,
,,,,,,00008,2023-07-24_17h55.44.608,vbt_B1_day1,2022.2.4,MacIntel,60.0024001,,,,,,,,,,,,,,,,,,,-0.184157986,-0.148654514,1,0,0,3.0994,6,17,173,25,1,z,images/br_z.png,images/cb_z.png,,,,,,,,,,,,,,,,,,,,,,,,,
,,,,,,00008,2023-07-24_17h55.44.608,vbt_B1_day1,2022.2.4,MacIntel,60.0024001,,,,,,,,,,,,,,,,,,,-0.184157986,-0.148654514,1,0,0,6.2314,6,18,174,24,1,y,images/br_y.png,images/cb_y.png,,,,,,,,,,,,,,,,,,,,,,,,,
,,,,,,00008,2023-07-24_17h55.44.608,vbt_B1_day1,2022.2.4,MacIntel,60.0024001,,,,,,,,,,,,,,,,,,,-0.184157986,-0.148654514,1,0,0,3.7986,6,19,175,3,1,d,images/br_d.png,images/cb_d.png,,,,,,,,,,,,,,,,,,,,,,,,,
,,,,,,00008,2023-07-24_17h55.44.608,vbt_B1_day1,2022.2.4,MacIntel,60.0024001,,,,,,,,,,,,,,,,,,,-0.184157986,-0.148654514,1,0,0,3.2809,6,20,176,7,1,h,images/br_h.png,images/cb_h.png,,,,,,,,,,,,,,,,,,,,,,,,,
,,,,,,00008,2023-07-24_17h55.44.608,vbt_B1_day1,2022.2.4,MacIntel,60.0024001,,,,,,,,,,,,,,,,,,,-0.184157986,-0.148654514,1,0,0,2.6979,6,21,177,4,1,e,images/br_e.png,images/cb_e.png,,,,,,,,,,,,,,,,,,,,,,,,,
,,,,,,00008,2023-07-24_17h55.44.608,vbt_B1_day1,2022.2.4,MacIntel,60.0024001,,,,,,,,,,,,,,,,,,,-0.184157986,-0.148654514,1,0,0,8.8515,6,22,178,5,1,f,images/br_f.png,images/cb_f.png,,,,,,,,,,,,,,,,,,,,,,,,,
,,,,,,00008,2023-07-24_17h55.44.608,vbt_B1_day1,2022.2.4,MacIntel,60.0024001,,,,,,,,,,,,,,,,,,,-0.184157986,-0.148654514,1,0,0,8.0157,6,23,179,16,1,q,images/br_q.png,images/cb_q.png,,,,,,,,,,,,,,,,,,,,,,,,,
,,,,,,00008,2023-07-24_17h55.44.608,vbt_B1_day1,2022.2.4,MacIntel,60.0024001,,,,,,,,,,,,,,,,,,,-0.184157986,-0.148654514,1,0,0,3.2335,6,24,180,9,1,j,images/br_j.png,images/cb_j.png,,,,,,,,,,,,,,,,,,,,,,,,,
,,,,,,00008,2023-07-24_17h55.44.608,vbt_B1_day1,2022.2.4,MacIntel,60.0024001,,,,,,,,,,,,,,,,,,,-0.184157986,-0.148654514,1,0,0,3.1012,6,25,181,10,1,k,images/br_k.png,images/cb_k.png,,,,,,,,,,,,,,,,,,,,,,,,,
,,,,,,00008,2023-07-24_17h55.44.608,vbt_B1_day1,2022.2.4,MacIntel,60.0024001,,,,,,,,,,,,,,,,,,,,,,,,,,,,,,,,,0.111705729,-0.046102431,1,0,0,,,,,,,,,,,,,,,,,,,,
,,,,,,00008,2023-07-24_17h55.44.608,vbt_B1_day1,2022.2.4,MacIntel,60.0024001,,,,,,,,,,,,,,,,,,,,,,,,,,,,,,,,,,,,,,0.111705729,-0.046102431,1,0,0,,,,,,,,,,,,,,,
,,,,,,00008,2023-07-24_17h55.44.608,vbt_B1_day1,2022.2.4,MacIntel,60.0024001,,,,,,,,,,,,,,,,,,,,,,,,,,,,,,,,,,,,,,,,,,,0.111705729,-0.046102431,1,0,0,.....,.....,0,0,0,25,1,brijk,images/br_brijk.png,images/cb_brijk.png
,,,,,,00008,2023-07-24_17h55.44.608,vbt_B1_day1,2022.2.4,MacIntel,60.0024001,,,,,,,,,,,,,,,,,,,,,,,,,,,,,,,,,,,,,,,,,,,0.026783854,-0.208077257,1,0,0,ffvk,ffvk,0,1,1,42,1,stuk,images/br_stuk.png,images/cb_stuk.png
,,,,,,00008,2023-07-24_17h55.44.608,vbt_B1_day1,2022.2.4,MacIntel,60.0024001,,,,,,,,,,,,,,,,,,,,,,,,,,,,,,,,,,,,,,,,,,,0.026783854,-0.208077257,1,0,0,f.bb.,f.bb.,0,2,2,9,1,dubbel,images/br_dubbel.png,images/cb_dubbel.png
,,,,,,00008,2023-07-24_17h55.44.608,vbt_B1_day1,2022.2.4,MacIntel,60.0024001,,,,,,,,,,,,,,,,,,,,,,,,,,,,,,,,,,,,,,,,,,,0.026783854,-0.208077257,1,0,0,hallo,hallo,0,3,3,45,1,hemel,images/br_hemel.png,images/cb_hemel.png
,,,,,,00008,2023-07-24_17h55.44.608,vbt_B1_day1,2022.2.4,MacIntel,60.0024001,,,,,,,,,,,,,,,,,,,,,,,,,,,,,,,,,,,,,,,,,,,0.026783854,-0.208077257,1,0,0,k,k,0,4,4,55,1,tekenen,images/br_tekenen.png,images/cb_tekenen.png
,,,,,,00008,2023-07-24_17h55.44.608,vbt_B1_day1,2022.2.4,MacIntel,60.0024001,,,,,,,,,,,,,,,,,,,,,,,,,,,,,,,,,,,,,,,,,,,0.026783854,-0.208077257,0,0,1,pee..e,pee..e,0,5,5,30,1,reedje,images/br_reedje.png,images/cb_reedje.png
,,,,,,00008,2023-07-24_17h55.44.608,vbt_B1_day1,2022.2.4,MacIntel,60.0024001,,,,,,,,,,,,,,,,,,,,,,,,,,,,,,,,,,,,,,,,,,,-0.247439236,-0.153940972,1,0,1,,,0,6,6,13,1,twijfel,images/br_twijfel.png,images/cb_twijfel.png
,,,,,,00008,2023-07-24_17h55.44.608,vbt_B1_day1,2022.2.4,MacIntel,60.0024001,,,,,,,,,,,,,,,,,,,,,,,,,,,,,,,,,,,,,,,,,,,-0.247439236,-0.153940972,1,0,1,t..k.,t..k.,0,7,7,5,1,maken,images/br_maken.png,images/cb_maken.png
,,,,,,00008,2023-07-24_17h55.44.608,vbt_B1_day1,2022.2.4,MacIntel,60.0024001,,,,,,,,,,,,,,,,,,,,,,,,,,,,,,,,,,,,,,,,,,,-0.247439236,-0.153940972,1,0,1,f.....,f.....,0,8,8,37,1,spanzing,images/br_spanzing.png,images/cb_spanzing.png
,,,,,,00008,2023-07-24_17h55.44.608,vbt_B1_day1,2022.2.4,MacIntel,60.0024001,,,,,,,,,,,,,,,,,,,,,,,,,,,,,,,,,,,,,,,,,,,-0.248207465,-0.153940972,1,0,1,le.e.,le.e.,0,9,9,46,1,lezen,images/br_lezen.png,images/cb_lezen.png
,,,,,,00008,2023-07-24_17h55.44.608,vbt_B1_day1,2022.2.4,MacIntel,60.0024001,,,,,,,,,,,,,,,,,,,,,,,,,,,,,,,,,,,,,,,,,,,-0.255759549,-0.153940972,1,0,1,ui...,ui...,0,10,10,19,1,schuilen,images/br_schuilen.png,images/cb_schuilen.png
,,,,,,00008,2023-07-24_17h55.44.608,vbt_B1_day1,2022.2.4,MacIntel,60.0024001,,,,,,,,,,,,,,,,,,,,,,,,,,,,,,,,,,,,,,,,,,,-0.256970486,-0.153940972,1,0,1,died,died,0,11,11,40,1,dief,images/br_dief.png,images/cb_dief.png
,,,,,,00008,2023-07-24_17h55.44.608,vbt_B1_day1,2022.2.4,MacIntel,60.0024001,,,,,,,,,,,,,,,,,,,,,,,,,,,,,,,,,,,,,,,,,,,-0.256970486,-0.153940972,1,0,1,lier..,lier..,0,12,12,51,1,liefde,images/br_liefde.png,images/cb_liefde.png
,,,,,,00008,2023-07-24_17h55.44.608,vbt_B1_day1,2022.2.4,MacIntel,60.0024001,,,,,,,,,,,,,,,,,,,,,,,,,,,,,,,,,,,,,,,,,,,-0.256970486,-0.153940972,1,0,1,.....,.....,0,13,13,53,1,opslaan,images/br_opslaan.png,images/cb_opslaan.png
,,,,,,00008,2023-07-24_17h55.44.608,vbt_B1_day1,2022.2.4,MacIntel,60.0024001,,,,,,,,,,,,,,,,,,,,,,,,,,,,,,,,,,,,,,,,,,,-0.256970486,-0.153940972,1,0,1,off...,off...,0,14,14,32,1,opplaan,images/br_opplaan.png,images/cb_opplaan.png
,,,,,,00008,2023-07-24_17h55.44.608,vbt_B1_day1,2022.2.4,MacIntel,60.0024001,,,,,,,,,,,,,,,,,,,,,,,,,,,,,,,,,,,,,,,,,,,-0.256970486,-0.153940972,1,0,1,op....,op....,0,15,15,59,1,opvatten,images/br_opvatten.png,images/cb_opvatten.png
,,,,,,00008,2023-07-24_17h55.44.608,vbt_B1_day1,2022.2.4,MacIntel,60.0024001,,,,,,,,,,,,,,,,,,,,,,,,,,,,,,,,,,,,,,,,,,,-0.256970486,-0.153940972,1,0,1,t..e.,t..e.,0,16,16,4,1,schep,images/br_schep.png,images/cb_schep.png
,,,,,,00008,2023-07-24_17h55.44.608,vbt_B1_day1,2022.2.4,MacIntel,60.0024001,,,,,,,,,,,,,,,,,,,,,,,,,,,,,,,,,,,,,,,,,,,-0.429440104,0.100047743,1,0,1,t....,t....,0,17,17,24,1,rezer,images/br_rezer.png,images/cb_rezer.png
,,,,,,00008,2023-07-24_17h55.44.608,vbt_B1_day1,2022.2.4,MacIntel,60.0024001,,,,,,,,,,,,,,,,,,,,,,,,,,,,,,,,,,,,,,,,,,,-0.429440104,0.100047743,1,0,1,.e.ie.,.e.ie.,0,18,18,49,1,vizier,images/br_vizier.png,images/cb_vizier.png
,,,,,,00008,2023-07-24_17h55.44.608,vbt_B1_day1,2022.2.4,MacIntel,60.0024001,,,,,,,,,,,,,,,,,,,,,,,,,,,,,,,,,,,,,,,,,,,-0.43984809,0.096475694,1,0,1,.edh.,.edh.,0,19,19,54,1,vijftig,images/br_vijftig.png,images/cb_vijftig.png
,,,,,,00008,2023-07-24_17h55.44.608,vbt_B1_day1,2022.2.4,MacIntel,60.0024001,,,,,,,,,,,,,,,,,,,,,,,,,,,,,,,,,,,,,,,,,,,-0.43984809,0.096475694,1,0,1,lie.e.,lie.e.,0,20,20,50,1,liegen,images/br_liegen.png,images/cb_liegen.png
,,,,,,00008,2023-07-24_17h55.44.608,vbt_B1_day1,2022.2.4,MacIntel,60.0024001,,,,,,,,,,,,,,,,,,,,,,,,,,,,,,,,,,,,,,,,,,,-0.446345486,0.096128472,1,0,1,l....e.,l....e.,0,21,21,34,1,lochten,images/br_lochten.png,images/cb_lochten.png
,,,,,,00008,2023-07-24_17h55.44.608,vbt_B1_day1,2022.2.4,MacIntel,60.0024001,,,,,,,,,,,,,,,,,,,,,,,,,,,,,,,,,,,,,,,,,,,-0.446345486,0.096128472,1,0,1,...l...,...l...,0,22,22,52,1,zuiplap,images/br_zuiplap.png,images/cb_zuiplap.png
,,,,,,00008,2023-07-24_17h55.44.608,vbt_B1_day1,2022.2.4,MacIntel,60.0024001,,,,,,,,,,,,,,,,,,,,,,,,,,,,,,,,,,,,,,,,,,,-0.446345486,0.096128472,1,0,1,k...,k...,0,23,23,22,1,knoe,images/br_knoe.png,images/cb_knoe.png
,,,,,,00008,2023-07-24_17h55.44.608,vbt_B1_day1,2022.2.4,MacIntel,60.0024001,,,,,,,,,,,,,,,,,,,,,,,,,,,,,,,,,,,,,,,,,,,-0.446345486,0.096128472,1,0,1,.ar.,.ar.,0,24,24,2,1,jaar,images/br_jaar.png,images/cb_jaar.png
,,,,,,00008,2023-07-24_17h55.44.608,vbt_B1_day1,2022.2.4,MacIntel,60.0024001,,,,,,,,,,,,,,,,,,,,,,,,,,,,,,,,,,,,,,,,,,,-0.446345486,0.096128472,1,0,1,la.a,la.a,0,25,25,43,1,lava,images/br_lava.png,images/cb_lava.png
,,,,,,00008,2023-07-24_17h55.44.608,vbt_B1_day1,2022.2.4,MacIntel,60.0024001,,,,,,,,,,,,,,,,,,,,,,,,,,,,,,,,,,,,,,,,,,,-0.446345486,0.096128472,1,0,1,kla..a,kla..a,0,26,26,7,1,klauw,images/br_klauw.png,images/cb_klauw.png
,,,,,,00008,2023-07-24_17h55.44.608,vbt_B1_day1,2022.2.4,MacIntel,60.0024001,,,,,,,,,,,,,,,,,,,,,,,,,,,,,,,,,,,,,,,,,,,-0.446345486,0.096128472,1,0,1,.ar.,.ar.,0,27,27,20,1,tars,images/br_tars.png,images/cb_tars.png
,,,,,,00008,2023-07-24_17h55.44.608,vbt_B1_day1,2022.2.4,MacIntel,60.0024001,,,,,,,,,,,,,,,,,,,,,,,,,,,,,,,,,,,,,,,,,,,-0.446345486,0.096128472,1,0,1,...a...,...a...,0,28,28,58,1,voorkeur,images/br_voorkeur.png,images/cb_voorkeur.png
,,,,,,00008,2023-07-24_17h55.44.608,vbt_B1_day1,2022.2.4,MacIntel,60.0024001,,,,,,,,,,,,,,,,,,,,,,,,,,,,,,,,,,,,,,,,,,,-0.446345486,0.096128472,1,0,1,..rr..r,..rr..r,0,29,29,39,1,voorreur,images/br_voorreur.png,images/cb_voorreur.png
,,,,,,00008,2023-07-24_17h55.44.608,vbt_B1_day1,2022.2.4,MacIntel,60.0024001,,,,,,,,,,,,,,,,,,,,,,,,,,,,,,,,,,,,,,,,,,,-0.446345486,0.096128472,1,0,1,.l..l..,.l..l..,0,30,30,33,1,flullen,images/br_flullen.png,images/cb_flullen.png
,,,,,,00008,2023-07-24_17h55.44.608,vbt_B1_day1,2022.2.4,MacIntel,60.0024001,,,,,,,,,,,,,,,,,,,,,,,,,,,,,,,,,,,,,,,,,,,-0.449244792,0.093446181,1,0,1,a.....ei,a.....ei,0,31,31,17,1,attentie,images/br_attentie.png,images/cb_attentie.png
,,,,,,00008,2023-07-24_17h55.44.608,vbt_B1_day1,2022.2.4,MacIntel,60.0024001,,,,,,,,,,,,,,,,,,,,,,,,,,,,,,,,,,,,,,,,,,,-0.449244792,0.093446181,1,0,1,...ele.,...ele.,0,32,32,18,1,uitdelen,images/br_uitdelen.png,images/cb_uitdelen.png
,,,,,,00008,2023-07-24_17h55.44.608,vbt_B1_day1,2022.2.4,MacIntel,60.0024001,,,,,,,,,,,,,,,,,,,,,,,,,,,,,,,,,,,,,,,,,,,-0.449244792,0.093446181,1,0,1,.o..ee.e.,.o..ee.e.,0,33,33,38,1,schielen,images/br_schielen.png,images/cb_schielen.png
,,,,,,00008,2023-07-24_17h55.44.608,vbt_B1_day1,2022.2.4,MacIntel,60.0024001,,,,,,,,,,,,,,,,,,,,,,,,,,,,,,,,,,,,,,,,,,,-0.451857639,0.0928125,1,0,1,.el.,.el.,0,34,34,21,1,dred,images/br_dred.png,images/cb_dred.png
,,,,,,00008,2023-07-24_17h55.44.608,vbt_B1_day1,2022.2.4,MacIntel,60.0024001,,,,,,,,,,,,,,,,,,,,,,,,,,,,,,,,,,,,,,,,,,,-0.451857639,0.0928125,1,0,1,.i...,.i...,0,35,35,44,1,wijze,images/br_wijze.png,images/cb_wijze.png
,,,,,,00008,2023-07-24_17h55.44.608,vbt_B1_day1,2022.2.4,MacIntel,60.0024001,,,,,,,,,,,,,,,,,,,,,,,,,,,,,,,,,,,,,,,,,,,-0.451857639,0.0928125,1,0,1,.er.r...,.er.r...,0,36,36,36,1,vervaden,images/br_vervaden.png,images/cb_vervaden.png
,,,,,,00008,2023-07-24_17h55.44.608,vbt_B1_day1,2022.2.4,MacIntel,60.0024001,,,,,,,,,,,,,,,,,,,,,,,,,,,,,,,,,,,,,,,,,,,-0.451857639,0.0928125,1,0,1,..al..,..al..,0,37,37,26,1,valop,images/br_valop.png,images/cb_valop.png
,,,,,,00008,2023-07-24_17h55.44.608,vbt_B1_day1,2022.2.4,MacIntel,60.0024001,,,,,,,,,,,,,,,,,,,,,,,,,,,,,,,,,,,,,,,,,,,-0.452751736,0.0928125,1,0,1,.e....,.e....,0,38,38,29,1,genond,images/br_genond.png,images/cb_genond.png
,,,,,,00008,2023-07-24_17h55.44.608,vbt_B1_day1,2022.2.4,MacIntel,60.0024001,,,,,,,,,,,,,,,,,,,,,,,,,,,,,,,,,,,,,,,,,,,-0.452751736,0.0928125,1,0,1,ka....,ka....,0,39,39,8,1,kanjer,images/br_kanjer.png,images/cb_kanjer.png
,,,,,,00008,2023-07-24_17h55.44.608,vbt_B1_day1,2022.2.4,MacIntel,60.0024001,,,,,,,,,,,,,,,,,,,,,,,,,,,,,,,,,,,,,,,,,,,-0.452751736,0.0928125,1,0,1,.aar.a..,.aar.a..,0,40,40,14,1,waarvan,images/br_waarvan.png,images/cb_waarvan.png
,,,,,,00008,2023-07-24_17h55.44.608,vbt_B1_day1,2022.2.4,MacIntel,60.0024001,,,,,,,,,,,,,,,,,,,,,,,,,,,,,,,,,,,,,,,,,,,-0.452751736,0.0928125,1,0,1,loo..,loo..,0,41,41,47,1,loods,images/br_loods.png,images/cb_loods.png
,,,,,,00008,2023-07-24_17h55.44.608,vbt_B1_day1,2022.2.4,MacIntel,60.0024001,,,,,,,,,,,,,,,,,,,,,,,,,,,,,,,,,,,,,,,,,,,-0.452751736,0.0928125,1,0,1,.ro.rr,.ro.rr,0,42,42,27,1,prort,images/br_prort.png,images/cb_prort.png
,,,,,,00008,2023-07-24_17h55.44.608,vbt_B1_day1,2022.2.4,MacIntel,60.0024001,,,,,,,,,,,,,,,,,,,,,,,,,,,,,,,,,,,,,,,,,,,-0.452751736,0.0928125,1,0,1,.aal,.aal,0,43,43,1,1,zaal,images/br_zaal.png,images/cb_zaal.png
,,,,,,00008,2023-07-24_17h55.44.608,vbt_B1_day1,2022.2.4,MacIntel,60.0024001,,,,,,,,,,,,,,,,,,,,,,,,,,,,,,,,,,,,,,,,,,,-0.452751736,0.0928125,1,0,1,..i..e.,..i..e.,0,44,44,35,1,stuikem,images/br_stuikem.png,images/cb_stuikem.png
,,,,,,00008,2023-07-24_17h55.44.608,vbt_B1_day1,2022.2.4,MacIntel,60.0024001,,,,,,,,,,,,,,,,,,,,,,,,,,,,,,,,,,,,,,,,,,,-0.011770833,-0.203576389,1,0,1,...e....,...e....,0,45,45,11,1,mening,images/br_mening.png,images/cb_mening.png
,,,,,,00008,2023-07-24_17h55.44.608,vbt_B1_day1,2022.2.4,MacIntel,60.0024001,,,,,,,,,,,,,,,,,,,,,,,,,,,,,,,,,,,,,,,,,,,-0.011770833,-0.203576389,1,0,1,.oo..,.oo..,0,46,46,41,1,hoog,images/br_hoog.png,images/cb_hoog.png
,,,,,,00008,2023-07-24_17h55.44.608,vbt_B1_day1,2022.2.4,MacIntel,60.0024001,,,,,,,,,,,,,,,,,,,,,,,,,,,,,,,,,,,,,,,,,,,-0.011770833,-0.203576389,1,0,1,...eih,...eih,0,47,47,10,1,muziek,images/br_muziek.png,images/cb_muziek.png
,,,,,,00008,2023-07-24_17h55.44.608,vbt_B1_day1,2022.2.4,MacIntel,60.0024001,,,,,,,,,,,,,,,,,,,,,,,,,,,,,,,,,,,,,,,,,,,-0.011770833,-0.203576389,1,0,1,.ee.e..e.,.ee.e..e.,0,48,48,57,1,meenemen,images/br_meenemen.png,images/cb_meenemen.png
,,,,,,00008,2023-07-24_17h55.44.608,vbt_B1_day1,2022.2.4,MacIntel,60.0024001,,,,,,,,,,,,,,,,,,,,,,,,,,,,,,,,,,,,,,,,,,,-0.011770833,-0.203576389,1,0,1,.ooi,.ooi,0,49,49,23,1,booi,images/br_booi.png,images/cb_booi.png
,,,,,,00008,2023-07-24_17h55.44.608,vbt_B1_day1,2022.2.4,MacIntel,60.0024001,,,,,,,,,,,,,,,,,,,,,,,,,,,,,,,,,,,,,,,,,,,-0.011770833,-0.209522569,1,0,1,.i..ii,.i..ii,0,50,50,48,1,fictie,images/br_fictie.png,images/cb_fictie.png
,,,,,,00008,2023-07-24_17h55.44.608,vbt_B1_day1,2022.2.4,MacIntel,60.0024001,,,,,,,,,,,,,,,,,,,,,,,,,,,,,,,,,,,,,,,,,,,0.011931424,-0.246770833,1,0,1,..i.....,..i.....,0,51,51,56,1,toezicht,images/br_toezicht.png,images/cb_toezicht.png
,,,,,,00008,2023-07-24_17h55.44.608,vbt_B1_day1,2022.2.4,MacIntel,60.0024001,,,,,,,,,,,,,,,,,,,,,,,,,,,,,,,,,,,,,,,,,,,0.011931424,-0.246770833,1,0,1,.ar..i..,.ar..i..,0,52,52,31,1,stamen,images/br_stamen.png,images/cb_stamen.png
,,,,,,00008,2023-07-24_17h55.44.608,vbt_B1_day1,2022.2.4,MacIntel,60.0024001,,,,,,,,,,,,,,,,,,,,,,,,,,,,,,,,,,,,,,,,,,,0.011931424,-0.246770833,1,0,1,.lak,.lak,0,53,53,0,1,slak,images/br_slak.png,images/cb_slak.png
,,,,,,00008,2023-07-24_17h55.44.608,vbt_B1_day1,2022.2.4,MacIntel,60.0024001,,,,,,,,,,,,,,,,,,,,,,,,,,,,,,,,,,,,,,,,,,,0.011931424,-0.246770833,1,0,1,.li..i.,.li..i.,0,54,54,12,1,klimmen,images/br_klimmen.png,images/cb_klimmen.png
,,,,,,00008,2023-07-24_17h55.44.608,vbt_B1_day1,2022.2.4,MacIntel,60.0024001,,,,,,,,,,,,,,,,,,,,,,,,,,,,,,,,,,,,,,,,,,,0.011931424,-0.246770833,1,0,1,.a...,.a...,0,55,55,3,1,mand,images/br_mand.png,images/cb_mand.png
,,,,,,00008,2023-07-24_17h55.44.608,vbt_B1_day1,2022.2.4,MacIntel,60.0024001,,,,,,,,,,,,,,,,,,,,,,,,,,,,,,,,,,,,,,,,,,,0.011931424,-0.246770833,1,0,1,.e.r.i.,.e.r.i.,0,56,56,28,1,bebrip,images/br_bebrip.png,images/cb_bebrip.png
,,,,,,00008,2023-07-24_17h55.44.608,vbt_B1_day1,2022.2.4,MacIntel,60.0024001,,,,,,,,,,,,,,,,,,,,,,,,,,,,,,,,,,,,,,,,,,,0.011931424,-0.246770833,1,0,1,.aar.ii.,.aar.ii.,0,57,57,16,1,daarheen,images/br_daarheen.png,images/cb_daarheen.png
,,,,,,00008,2023-07-24_17h55.44.608,vbt_B1_day1,2022.2.4,MacIntel,60.0024001,,,,,,,,,,,,,,,,,,,,,,,,,,,,,,,,,,,,,,,,,,,0.014570312,-0.246770833,1,0,1,.lee.,.lee.,0,58,58,6,1,bleek,images/br_bleek.png,images/cb_bleek.png
,,,,,,00008,2023-07-24_17h55.44.608,vbt_B1_day1,2022.2.4,MacIntel,60.0024001,,,,,,,,,,,,,,,,,,,,,,,,,,,,,,,,,,,,,,,,,,,0.014570312,-0.246770833,1,0,1,.ier...,.ier...,0,59,59,15,1,hiervan,images/br_hiervan.png,images/cb_hiervan.png
,,,,,,00008,2023-07-24_17h55.44.608,vbt_B1_day1,2022.2.4,MacIntel,60.0024001,,,,,,,,,,,,,,,,,,,,,,,,,,,,,,,,,,,,,,,,,,,,,,,,,,,,,,,,,
