welcome_mouse.x,welcome_mouse.y,welcome_mouse.leftButton,welcome_mouse.midButton,welcome_mouse.rightButton,welcome_mouse.time,"ID",date,expName,psychopyVersion,OS,frameRate,participant,mouse_2.x,mouse_2.y,mouse_2.leftButton,mouse_2.midButton,mouse_2.rightButton,mouse_2.time,mouse_3.x,mouse_3.y,mouse_3.leftButton,mouse_3.midButton,mouse_3.rightButton,mouse_3.time,train_mouse.x,train_mouse.y,train_mouse.leftButton,train_mouse.midButton,train_mouse.rightButton,train_mouse.time,braille_mouse.x,braille_mouse.y,braille_mouse.leftButton,braille_mouse.midButton,braille_mouse.rightButton,braille_mouse.time,trials.thisRepN,trials.thisTrialN,trials.thisN,trials.thisIndex,trials.ran,nlLet,brLet,cbLet,mouse.x,mouse.y,mouse.leftButton,mouse.midButton,mouse.rightButton,testInstr_mouse.x,testInstr_mouse.y,testInstr_mouse.leftButton,testInstr_mouse.midButton,testInstr_mouse.rightButton,test_mouse.x,test_mouse.y,test_mouse.leftButton,test_mouse.midButton,test_mouse.rightButton,test_response.text,testResp,test_loop.thisRepN,test_loop.thisTrialN,test_loop.thisN,test_loop.thisIndex,test_loop.ran,nlWrd,brWrd,cbWrd
-0.147777778,-0.225555556,1,0,0,26.135,,2023-09-25_09h59.42.351,vbt_B1_day1,2022.2.4,MacIntel,59.4530321,55918,,,,,,,,,,,,,,,,,,,,,,,,,,,,,,,,,,,,,,,,,,,,,,,,,,,,,,,,,
,,,,,,,2023-09-25_09h59.42.351,vbt_B1_day1,2022.2.4,MacIntel,59.4530321,55918,-0.082222222,-0.185555556,1,0,0,19.321,,,,,,,,,,,,,,,,,,,,,,,,,,,,,,,,,,,,,,,,,,,,,,,,,,,
,,,,,,,2023-09-25_09h59.42.351,vbt_B1_day1,2022.2.4,MacIntel,59.4530321,55918,,,,,,,0.282222222,-0.064444444,1,0,0,59.493,,,,,,,,,,,,,,,,,,,,,,,,,,,,,,,,,,,,,,,,,,,,,
,,,,,,,2023-09-25_09h59.42.351,vbt_B1_day1,2022.2.4,MacIntel,59.4530321,55918,,,,,,,,,,,,,-0.495555556,-0.177777778,1,0,0,45.302,,,,,,,,,,,,,,,,,,,,,,,,,,,,,,,,,,,,,,,
,,,,,,,2023-09-25_09h59.42.351,vbt_B1_day1,2022.2.4,MacIntel,59.4530321,55918,,,,,,,,,,,,,,,,,,,-0.508888889,-0.051111111,1,0,0,12.801,0,0,0,21,1,v,images/br_v.png,images/cb_v.png,,,,,,,,,,,,,,,,,,,,,,,,,
,,,,,,,2023-09-25_09h59.42.351,vbt_B1_day1,2022.2.4,MacIntel,59.4530321,55918,,,,,,,,,,,,,,,,,,,-0.163333333,0.047777778,1,0,0,26.336,0,1,1,25,1,z,images/br_z.png,images/cb_z.png,,,,,,,,,,,,,,,,,,,,,,,,,
,,,,,,,2023-09-25_09h59.42.351,vbt_B1_day1,2022.2.4,MacIntel,59.4530321,55918,,,,,,,,,,,,,,,,,,,-0.165555556,0.051111111,1,0,0,12.285,0,2,2,18,1,s,images/br_s.png,images/cb_s.png,,,,,,,,,,,,,,,,,,,,,,,,,
,,,,,,,2023-09-25_09h59.42.351,vbt_B1_day1,2022.2.4,MacIntel,59.4530321,55918,,,,,,,,,,,,,,,,,,,-0.165555556,0.05,1,0,0,15.985,0,3,3,22,1,w,images/br_w.png,images/cb_w.png,,,,,,,,,,,,,,,,,,,,,,,,,
,,,,,,,2023-09-25_09h59.42.351,vbt_B1_day1,2022.2.4,MacIntel,59.4530321,55918,,,,,,,,,,,,,,,,,,,-0.284444444,0.116666667,1,0,0,32.902,0,4,4,20,1,u,images/br_u.png,images/cb_u.png,,,,,,,,,,,,,,,,,,,,,,,,,
,,,,,,,2023-09-25_09h59.42.351,vbt_B1_day1,2022.2.4,MacIntel,59.4530321,55918,,,,,,,,,,,,,,,,,,,-0.144444444,0.105555556,1,0,0,26.919,0,5,5,6,1,g,images/br_g.png,images/cb_g.png,,,,,,,,,,,,,,,,,,,,,,,,,
,,,,,,,2023-09-25_09h59.42.351,vbt_B1_day1,2022.2.4,MacIntel,59.4530321,55918,,,,,,,,,,,,,,,,,,,-0.266666667,0.046666667,1,0,0,42.153,0,6,6,12,1,m,images/br_m.png,images/cb_m.png,,,,,,,,,,,,,,,,,,,,,,,,,
,,,,,,,2023-09-25_09h59.42.351,vbt_B1_day1,2022.2.4,MacIntel,59.4530321,55918,,,,,,,,,,,,,,,,,,,-0.266666667,0.046666667,1,0,0,22.568,0,7,7,16,1,q,images/br_q.png,images/cb_q.png,,,,,,,,,,,,,,,,,,,,,,,,,
,,,,,,,2023-09-25_09h59.42.351,vbt_B1_day1,2022.2.4,MacIntel,59.4530321,55918,,,,,,,,,,,,,,,,,,,-0.267777778,0.045555556,1,0,0,41.323,0,8,8,13,1,n,images/br_n.png,images/cb_n.png,,,,,,,,,,,,,,,,,,,,,,,,,
,,,,,,,2023-09-25_09h59.42.351,vbt_B1_day1,2022.2.4,MacIntel,59.4530321,55918,,,,,,,,,,,,,,,,,,,-0.173333333,0.114444444,1,0,0,9.817,0,9,9,10,1,k,images/br_k.png,images/cb_k.png,,,,,,,,,,,,,,,,,,,,,,,,,
,,,,,,,2023-09-25_09h59.42.351,vbt_B1_day1,2022.2.4,MacIntel,59.4530321,55918,,,,,,,,,,,,,,,,,,,-0.172222222,0.115555556,1,0,0,2.683,0,10,10,9,1,j,images/br_j.png,images/cb_j.png,,,,,,,,,,,,,,,,,,,,,,,,,
,,,,,,,2023-09-25_09h59.42.351,vbt_B1_day1,2022.2.4,MacIntel,59.4530321,55918,,,,,,,,,,,,,,,,,,,-0.15,0.023333333,1,0,0,23.986,0,11,11,15,1,p,images/br_p.png,images/cb_p.png,,,,,,,,,,,,,,,,,,,,,,,,,
,,,,,,,2023-09-25_09h59.42.351,vbt_B1_day1,2022.2.4,MacIntel,59.4530321,55918,,,,,,,,,,,,,,,,,,,-0.018888889,-0.096666667,1,0,0,13.85,0,12,12,14,1,o,images/br_o.png,images/cb_o.png,,,,,,,,,,,,,,,,,,,,,,,,,
,,,,,,,2023-09-25_09h59.42.351,vbt_B1_day1,2022.2.4,MacIntel,59.4530321,55918,,,,,,,,,,,,,,,,,,,-0.026666667,0.002222222,1,0,0,32.003,0,13,13,3,1,d,images/br_d.png,images/cb_d.png,,,,,,,,,,,,,,,,,,,,,,,,,
,,,,,,,2023-09-25_09h59.42.351,vbt_B1_day1,2022.2.4,MacIntel,59.4530321,55918,,,,,,,,,,,,,,,,,,,-0.026666667,0.002222222,1,0,0,17.618,0,14,14,0,1,a,images/br_a.png,images/cb_a.png,,,,,,,,,,,,,,,,,,,,,,,,,
,,,,,,,2023-09-25_09h59.42.351,vbt_B1_day1,2022.2.4,MacIntel,59.4530321,55918,,,,,,,,,,,,,,,,,,,-0.026666667,-0.001111111,1,0,0,11.167,0,15,15,11,1,l,images/br_l.png,images/cb_l.png,,,,,,,,,,,,,,,,,,,,,,,,,
,,,,,,,2023-09-25_09h59.42.351,vbt_B1_day1,2022.2.4,MacIntel,59.4530321,55918,,,,,,,,,,,,,,,,,,,0.03,0.024444444,1,0,0,16.451,0,16,16,4,1,e,images/br_e.png,images/cb_e.png,,,,,,,,,,,,,,,,,,,,,,,,,
,,,,,,,2023-09-25_09h59.42.351,vbt_B1_day1,2022.2.4,MacIntel,59.4530321,55918,,,,,,,,,,,,,,,,,,,-0.042222222,-0.045555556,1,0,0,94.727,0,17,17,19,1,t,images/br_t.png,images/cb_t.png,,,,,,,,,,,,,,,,,,,,,,,,,
,,,,,,,2023-09-25_09h59.42.351,vbt_B1_day1,2022.2.4,MacIntel,59.4530321,55918,,,,,,,,,,,,,,,,,,,0.031111111,-0.057777778,1,0,0,24.868,0,18,18,8,1,i,images/br_i.png,images/cb_i.png,,,,,,,,,,,,,,,,,,,,,,,,,
,,,,,,,2023-09-25_09h59.42.351,vbt_B1_day1,2022.2.4,MacIntel,59.4530321,55918,,,,,,,,,,,,,,,,,,,-0.074444444,-0.007777778,1,0,0,31.503,0,19,19,5,1,f,images/br_f.png,images/cb_f.png,,,,,,,,,,,,,,,,,,,,,,,,,
,,,,,,,2023-09-25_09h59.42.351,vbt_B1_day1,2022.2.4,MacIntel,59.4530321,55918,,,,,,,,,,,,,,,,,,,-0.074444444,-0.007777778,1,0,0,4.283,0,20,20,23,1,x,images/br_x.png,images/cb_x.png,,,,,,,,,,,,,,,,,,,,,,,,,
,,,,,,,2023-09-25_09h59.42.351,vbt_B1_day1,2022.2.4,MacIntel,59.4530321,55918,,,,,,,,,,,,,,,,,,,-0.074444444,-0.007777778,1,0,0,4.7,0,21,21,1,1,b,images/br_b.png,images/cb_b.png,,,,,,,,,,,,,,,,,,,,,,,,,
,,,,,,,2023-09-25_09h59.42.351,vbt_B1_day1,2022.2.4,MacIntel,59.4530321,55918,,,,,,,,,,,,,,,,,,,-0.116666667,-0.05,1,0,0,55.554,0,22,22,24,1,y,images/br_y.png,images/cb_y.png,,,,,,,,,,,,,,,,,,,,,,,,,
,,,,,,,2023-09-25_09h59.42.351,vbt_B1_day1,2022.2.4,MacIntel,59.4530321,55918,,,,,,,,,,,,,,,,,,,0.046666667,-0.014444444,1,0,0,3.484,0,23,23,17,1,r,images/br_r.png,images/cb_r.png,,,,,,,,,,,,,,,,,,,,,,,,,
,,,,,,,2023-09-25_09h59.42.351,vbt_B1_day1,2022.2.4,MacIntel,59.4530321,55918,,,,,,,,,,,,,,,,,,,0.086666667,0.175555556,1,0,0,19.35,0,24,24,2,1,c,images/br_c.png,images/cb_c.png,,,,,,,,,,,,,,,,,,,,,,,,,
,,,,,,,2023-09-25_09h59.42.351,vbt_B1_day1,2022.2.4,MacIntel,59.4530321,55918,,,,,,,,,,,,,,,,,,,0.086666667,0.175555556,1,0,0,111.458,0,25,25,7,1,h,images/br_h.png,images/cb_h.png,,,,,,,,,,,,,,,,,,,,,,,,,
,,,,,,,2023-09-25_09h59.42.351,vbt_B1_day1,2022.2.4,MacIntel,59.4530321,55918,,,,,,,,,,,,,,,,,,,0.086666667,0.175555556,1,0,0,3.717,1,0,26,1,1,b,images/br_b.png,images/cb_b.png,,,,,,,,,,,,,,,,,,,,,,,,,
,,,,,,,2023-09-25_09h59.42.351,vbt_B1_day1,2022.2.4,MacIntel,59.4530321,55918,,,,,,,,,,,,,,,,,,,0.242222222,0.12,1,0,0,5.75,1,1,27,5,1,f,images/br_f.png,images/cb_f.png,,,,,,,,,,,,,,,,,,,,,,,,,
,,,,,,,2023-09-25_09h59.42.351,vbt_B1_day1,2022.2.4,MacIntel,59.4530321,55918,,,,,,,,,,,,,,,,,,,0.246666667,0.12,1,0,0,1.433,1,2,28,6,1,g,images/br_g.png,images/cb_g.png,,,,,,,,,,,,,,,,,,,,,,,,,
,,,,,,,2023-09-25_09h59.42.351,vbt_B1_day1,2022.2.4,MacIntel,59.4530321,55918,,,,,,,,,,,,,,,,,,,0.248888889,0.094444444,1,0,0,2.185,1,3,29,20,1,u,images/br_u.png,images/cb_u.png,,,,,,,,,,,,,,,,,,,,,,,,,
,,,,,,,2023-09-25_09h59.42.351,vbt_B1_day1,2022.2.4,MacIntel,59.4530321,55918,,,,,,,,,,,,,,,,,,,0.286666667,0.051111111,1,0,0,2.416,1,4,30,18,1,s,images/br_s.png,images/cb_s.png,,,,,,,,,,,,,,,,,,,,,,,,,
,,,,,,,2023-09-25_09h59.42.351,vbt_B1_day1,2022.2.4,MacIntel,59.4530321,55918,,,,,,,,,,,,,,,,,,,0.286666667,0.051111111,1,0,0,25.801,1,5,31,13,1,n,images/br_n.png,images/cb_n.png,,,,,,,,,,,,,,,,,,,,,,,,,
,,,,,,,2023-09-25_09h59.42.351,vbt_B1_day1,2022.2.4,MacIntel,59.4530321,55918,,,,,,,,,,,,,,,,,,,0.286666667,0.051111111,1,0,0,1.334,1,6,32,25,1,z,images/br_z.png,images/cb_z.png,,,,,,,,,,,,,,,,,,,,,,,,,
,,,,,,,2023-09-25_09h59.42.351,vbt_B1_day1,2022.2.4,MacIntel,59.4530321,55918,,,,,,,,,,,,,,,,,,,0.286666667,0.052222222,1,0,0,0.201,1,7,33,22,1,w,images/br_w.png,images/cb_w.png,,,,,,,,,,,,,,,,,,,,,,,,,
,,,,,,,2023-09-25_09h59.42.351,vbt_B1_day1,2022.2.4,MacIntel,59.4530321,55918,,,,,,,,,,,,,,,,,,,0.286666667,0.052222222,1,0,0,0.684,1,8,34,21,1,v,images/br_v.png,images/cb_v.png,,,,,,,,,,,,,,,,,,,,,,,,,
,,,,,,,2023-09-25_09h59.42.351,vbt_B1_day1,2022.2.4,MacIntel,59.4530321,55918,,,,,,,,,,,,,,,,,,,0.07,-0.014444444,1,0,0,2.4,1,9,35,0,1,a,images/br_a.png,images/cb_a.png,,,,,,,,,,,,,,,,,,,,,,,,,
,,,,,,,2023-09-25_09h59.42.351,vbt_B1_day1,2022.2.4,MacIntel,59.4530321,55918,,,,,,,,,,,,,,,,,,,0.07,-0.014444444,1,0,0,7.485,1,10,36,15,1,p,images/br_p.png,images/cb_p.png,,,,,,,,,,,,,,,,,,,,,,,,,
,,,,,,,2023-09-25_09h59.42.351,vbt_B1_day1,2022.2.4,MacIntel,59.4530321,55918,,,,,,,,,,,,,,,,,,,0.087777778,-0.038888889,1,0,0,2.115,1,11,37,2,1,c,images/br_c.png,images/cb_c.png,,,,,,,,,,,,,,,,,,,,,,,,,
,,,,,,,2023-09-25_09h59.42.351,vbt_B1_day1,2022.2.4,MacIntel,59.4530321,55918,,,,,,,,,,,,,,,,,,,0.087777778,-0.038888889,1,0,0,0.918,1,12,38,17,1,r,images/br_r.png,images/cb_r.png,,,,,,,,,,,,,,,,,,,,,,,,,
,,,,,,,2023-09-25_09h59.42.351,vbt_B1_day1,2022.2.4,MacIntel,59.4530321,55918,,,,,,,,,,,,,,,,,,,0.097777778,-0.042222222,1,0,0,76.423,1,13,39,9,1,j,images/br_j.png,images/cb_j.png,,,,,,,,,,,,,,,,,,,,,,,,,
,,,,,,,2023-09-25_09h59.42.351,vbt_B1_day1,2022.2.4,MacIntel,59.4530321,55918,,,,,,,,,,,,,,,,,,,0.097777778,-0.042222222,1,0,0,0.618,1,14,40,12,1,m,images/br_m.png,images/cb_m.png,,,,,,,,,,,,,,,,,,,,,,,,,
,,,,,,,2023-09-25_09h59.42.351,vbt_B1_day1,2022.2.4,MacIntel,59.4530321,55918,,,,,,,,,,,,,,,,,,,0.097777778,-0.042222222,1,0,0,2.584,1,15,41,4,1,e,images/br_e.png,images/cb_e.png,,,,,,,,,,,,,,,,,,,,,,,,,
,,,,,,,2023-09-25_09h59.42.351,vbt_B1_day1,2022.2.4,MacIntel,59.4530321,55918,,,,,,,,,,,,,,,,,,,0.134444444,-0.055555556,1,0,0,0.983,1,16,42,23,1,x,images/br_x.png,images/cb_x.png,,,,,,,,,,,,,,,,,,,,,,,,,
,,,,,,,2023-09-25_09h59.42.351,vbt_B1_day1,2022.2.4,MacIntel,59.4530321,55918,,,,,,,,,,,,,,,,,,,0.134444444,-0.055555556,1,0,0,5.283,1,17,43,11,1,l,images/br_l.png,images/cb_l.png,,,,,,,,,,,,,,,,,,,,,,,,,
,,,,,,,2023-09-25_09h59.42.351,vbt_B1_day1,2022.2.4,MacIntel,59.4530321,55918,,,,,,,,,,,,,,,,,,,0.134444444,-0.055555556,1,0,0,98.525,1,18,44,19,1,t,images/br_t.png,images/cb_t.png,,,,,,,,,,,,,,,,,,,,,,,,,
,,,,,,,2023-09-25_09h59.42.351,vbt_B1_day1,2022.2.4,MacIntel,59.4530321,55918,,,,,,,,,,,,,,,,,,,0.134444444,-0.054444444,1,0,0,4.698,1,19,45,24,1,y,images/br_y.png,images/cb_y.png,,,,,,,,,,,,,,,,,,,,,,,,,
,,,,,,,2023-09-25_09h59.42.351,vbt_B1_day1,2022.2.4,MacIntel,59.4530321,55918,,,,,,,,,,,,,,,,,,,-0.045555556,-0.082222222,1,0,0,3.383,1,20,46,7,1,h,images/br_h.png,images/cb_h.png,,,,,,,,,,,,,,,,,,,,,,,,,
,,,,,,,2023-09-25_09h59.42.351,vbt_B1_day1,2022.2.4,MacIntel,59.4530321,55918,,,,,,,,,,,,,,,,,,,-0.045555556,-0.082222222,1,0,0,0.5,1,21,47,14,1,o,images/br_o.png,images/cb_o.png,,,,,,,,,,,,,,,,,,,,,,,,,
,,,,,,,2023-09-25_09h59.42.351,vbt_B1_day1,2022.2.4,MacIntel,59.4530321,55918,,,,,,,,,,,,,,,,,,,-0.045555556,-0.082222222,1,0,0,1.749,1,22,48,8,1,i,images/br_i.png,images/cb_i.png,,,,,,,,,,,,,,,,,,,,,,,,,
,,,,,,,2023-09-25_09h59.42.351,vbt_B1_day1,2022.2.4,MacIntel,59.4530321,55918,,,,,,,,,,,,,,,,,,,-0.046666667,-0.083333333,1,0,0,0.883,1,23,49,10,1,k,images/br_k.png,images/cb_k.png,,,,,,,,,,,,,,,,,,,,,,,,,
,,,,,,,2023-09-25_09h59.42.351,vbt_B1_day1,2022.2.4,MacIntel,59.4530321,55918,,,,,,,,,,,,,,,,,,,0.007777778,-0.16,1,0,0,15.651,1,24,50,3,1,d,images/br_d.png,images/cb_d.png,,,,,,,,,,,,,,,,,,,,,,,,,
,,,,,,,2023-09-25_09h59.42.351,vbt_B1_day1,2022.2.4,MacIntel,59.4530321,55918,,,,,,,,,,,,,,,,,,,0.007777778,-0.16,1,0,0,4.3,1,25,51,16,1,q,images/br_q.png,images/cb_q.png,,,,,,,,,,,,,,,,,,,,,,,,,
,,,,,,,2023-09-25_09h59.42.351,vbt_B1_day1,2022.2.4,MacIntel,59.4530321,55918,,,,,,,,,,,,,,,,,,,0.007777778,-0.16,1,0,0,0.5,2,0,52,19,1,t,images/br_t.png,images/cb_t.png,,,,,,,,,,,,,,,,,,,,,,,,,
,,,,,,,2023-09-25_09h59.42.351,vbt_B1_day1,2022.2.4,MacIntel,59.4530321,55918,,,,,,,,,,,,,,,,,,,0,-0.116666667,1,0,0,1.399,2,1,53,23,1,x,images/br_x.png,images/cb_x.png,,,,,,,,,,,,,,,,,,,,,,,,,
,,,,,,,2023-09-25_09h59.42.351,vbt_B1_day1,2022.2.4,MacIntel,59.4530321,55918,,,,,,,,,,,,,,,,,,,0,-0.116666667,1,0,0,1.751,2,2,54,12,1,m,images/br_m.png,images/cb_m.png,,,,,,,,,,,,,,,,,,,,,,,,,
,,,,,,,2023-09-25_09h59.42.351,vbt_B1_day1,2022.2.4,MacIntel,59.4530321,55918,,,,,,,,,,,,,,,,,,,0,-0.116666667,1,0,0,1.099,2,3,55,11,1,l,images/br_l.png,images/cb_l.png,,,,,,,,,,,,,,,,,,,,,,,,,
,,,,,,,2023-09-25_09h59.42.351,vbt_B1_day1,2022.2.4,MacIntel,59.4530321,55918,,,,,,,,,,,,,,,,,,,0,-0.116666667,1,0,0,3.117,2,4,56,5,1,f,images/br_f.png,images/cb_f.png,,,,,,,,,,,,,,,,,,,,,,,,,
,,,,,,,2023-09-25_09h59.42.351,vbt_B1_day1,2022.2.4,MacIntel,59.4530321,55918,,,,,,,,,,,,,,,,,,,0,-0.116666667,1,0,0,8.867,2,5,57,1,1,b,images/br_b.png,images/cb_b.png,,,,,,,,,,,,,,,,,,,,,,,,,
,,,,,,,2023-09-25_09h59.42.351,vbt_B1_day1,2022.2.4,MacIntel,59.4530321,55918,,,,,,,,,,,,,,,,,,,0,-0.116666667,1,0,0,0.583,2,6,58,8,1,i,images/br_i.png,images/cb_i.png,,,,,,,,,,,,,,,,,,,,,,,,,
,,,,,,,2023-09-25_09h59.42.351,vbt_B1_day1,2022.2.4,MacIntel,59.4530321,55918,,,,,,,,,,,,,,,,,,,0,-0.116666667,1,0,0,2.618,2,7,59,13,1,n,images/br_n.png,images/cb_n.png,,,,,,,,,,,,,,,,,,,,,,,,,
,,,,,,,2023-09-25_09h59.42.351,vbt_B1_day1,2022.2.4,MacIntel,59.4530321,55918,,,,,,,,,,,,,,,,,,,0,-0.116666667,1,0,0,0.799,2,8,60,22,1,w,images/br_w.png,images/cb_w.png,,,,,,,,,,,,,,,,,,,,,,,,,
,,,,,,,2023-09-25_09h59.42.351,vbt_B1_day1,2022.2.4,MacIntel,59.4530321,55918,,,,,,,,,,,,,,,,,,,0,-0.116666667,1,0,0,0.366,2,9,61,9,1,j,images/br_j.png,images/cb_j.png,,,,,,,,,,,,,,,,,,,,,,,,,
,,,,,,,2023-09-25_09h59.42.351,vbt_B1_day1,2022.2.4,MacIntel,59.4530321,55918,,,,,,,,,,,,,,,,,,,0,-0.116666667,1,0,0,0.201,2,10,62,16,1,q,images/br_q.png,images/cb_q.png,,,,,,,,,,,,,,,,,,,,,,,,,
,,,,,,,2023-09-25_09h59.42.351,vbt_B1_day1,2022.2.4,MacIntel,59.4530321,55918,,,,,,,,,,,,,,,,,,,0,-0.116666667,1,0,0,1.032,2,11,63,15,1,p,images/br_p.png,images/cb_p.png,,,,,,,,,,,,,,,,,,,,,,,,,
,,,,,,,2023-09-25_09h59.42.351,vbt_B1_day1,2022.2.4,MacIntel,59.4530321,55918,,,,,,,,,,,,,,,,,,,0,-0.116666667,1,0,0,1.518,2,12,64,6,1,g,images/br_g.png,images/cb_g.png,,,,,,,,,,,,,,,,,,,,,,,,,
,,,,,,,2023-09-25_09h59.42.351,vbt_B1_day1,2022.2.4,MacIntel,59.4530321,55918,,,,,,,,,,,,,,,,,,,0,-0.116666667,1,0,0,0.717,2,13,65,21,1,v,images/br_v.png,images/cb_v.png,,,,,,,,,,,,,,,,,,,,,,,,,
,,,,,,,2023-09-25_09h59.42.351,vbt_B1_day1,2022.2.4,MacIntel,59.4530321,55918,,,,,,,,,,,,,,,,,,,0,-0.116666667,1,0,0,5.118,2,14,66,24,1,y,images/br_y.png,images/cb_y.png,,,,,,,,,,,,,,,,,,,,,,,,,
,,,,,,,2023-09-25_09h59.42.351,vbt_B1_day1,2022.2.4,MacIntel,59.4530321,55918,,,,,,,,,,,,,,,,,,,-0.002222222,-0.116666667,1,0,0,0.934,2,15,67,10,1,k,images/br_k.png,images/cb_k.png,,,,,,,,,,,,,,,,,,,,,,,,,
,,,,,,,2023-09-25_09h59.42.351,vbt_B1_day1,2022.2.4,MacIntel,59.4530321,55918,,,,,,,,,,,,,,,,,,,-0.002222222,-0.116666667,1,0,0,0.451,2,16,68,14,1,o,images/br_o.png,images/cb_o.png,,,,,,,,,,,,,,,,,,,,,,,,,
,,,,,,,2023-09-25_09h59.42.351,vbt_B1_day1,2022.2.4,MacIntel,59.4530321,55918,,,,,,,,,,,,,,,,,,,-0.002222222,-0.116666667,1,0,0,0.016,2,17,69,20,1,u,images/br_u.png,images/cb_u.png,,,,,,,,,,,,,,,,,,,,,,,,,
,,,,,,,2023-09-25_09h59.42.351,vbt_B1_day1,2022.2.4,MacIntel,59.4530321,55918,,,,,,,,,,,,,,,,,,,0.008888889,-0.12,1,0,0,0.998,2,18,70,2,1,c,images/br_c.png,images/cb_c.png,,,,,,,,,,,,,,,,,,,,,,,,,
,,,,,,,2023-09-25_09h59.42.351,vbt_B1_day1,2022.2.4,MacIntel,59.4530321,55918,,,,,,,,,,,,,,,,,,,0.008888889,-0.12,1,0,0,5.65,2,19,71,17,1,r,images/br_r.png,images/cb_r.png,,,,,,,,,,,,,,,,,,,,,,,,,
,,,,,,,2023-09-25_09h59.42.351,vbt_B1_day1,2022.2.4,MacIntel,59.4530321,55918,,,,,,,,,,,,,,,,,,,0.008888889,-0.12,1,0,0,12.202,2,20,72,18,1,s,images/br_s.png,images/cb_s.png,,,,,,,,,,,,,,,,,,,,,,,,,
,,,,,,,2023-09-25_09h59.42.351,vbt_B1_day1,2022.2.4,MacIntel,59.4530321,55918,,,,,,,,,,,,,,,,,,,0.008888889,-0.12,1,0,0,4.317,2,21,73,25,1,z,images/br_z.png,images/cb_z.png,,,,,,,,,,,,,,,,,,,,,,,,,
,,,,,,,2023-09-25_09h59.42.351,vbt_B1_day1,2022.2.4,MacIntel,59.4530321,55918,,,,,,,,,,,,,,,,,,,0.008888889,-0.12,1,0,0,13.935,2,22,74,0,1,a,images/br_a.png,images/cb_a.png,,,,,,,,,,,,,,,,,,,,,,,,,
,,,,,,,2023-09-25_09h59.42.351,vbt_B1_day1,2022.2.4,MacIntel,59.4530321,55918,,,,,,,,,,,,,,,,,,,0.008888889,-0.12,1,0,0,2.516,2,23,75,3,1,d,images/br_d.png,images/cb_d.png,,,,,,,,,,,,,,,,,,,,,,,,,
,,,,,,,2023-09-25_09h59.42.351,vbt_B1_day1,2022.2.4,MacIntel,59.4530321,55918,,,,,,,,,,,,,,,,,,,-0.021111111,-0.12,1,0,0,0.835,2,24,76,4,1,e,images/br_e.png,images/cb_e.png,,,,,,,,,,,,,,,,,,,,,,,,,
,,,,,,,2023-09-25_09h59.42.351,vbt_B1_day1,2022.2.4,MacIntel,59.4530321,55918,,,,,,,,,,,,,,,,,,,-0.023333333,-0.12,1,0,0,1.433,2,25,77,7,1,h,images/br_h.png,images/cb_h.png,,,,,,,,,,,,,,,,,,,,,,,,,
,,,,,,,2023-09-25_09h59.42.351,vbt_B1_day1,2022.2.4,MacIntel,59.4530321,55918,,,,,,,,,,,,,,,,,,,-0.023333333,-0.12,1,0,0,0.651,3,0,78,8,1,i,images/br_i.png,images/cb_i.png,,,,,,,,,,,,,,,,,,,,,,,,,
,,,,,,,2023-09-25_09h59.42.351,vbt_B1_day1,2022.2.4,MacIntel,59.4530321,55918,,,,,,,,,,,,,,,,,,,-0.023333333,-0.123333333,1,0,0,0.45,3,1,79,22,1,w,images/br_w.png,images/cb_w.png,,,,,,,,,,,,,,,,,,,,,,,,,
,,,,,,,2023-09-25_09h59.42.351,vbt_B1_day1,2022.2.4,MacIntel,59.4530321,55918,,,,,,,,,,,,,,,,,,,-0.024444444,-0.123333333,1,0,0,1.035,3,2,80,11,1,l,images/br_l.png,images/cb_l.png,,,,,,,,,,,,,,,,,,,,,,,,,
,,,,,,,2023-09-25_09h59.42.351,vbt_B1_day1,2022.2.4,MacIntel,59.4530321,55918,,,,,,,,,,,,,,,,,,,-0.025555556,-0.125555556,1,0,0,1.05,3,3,81,6,1,g,images/br_g.png,images/cb_g.png,,,,,,,,,,,,,,,,,,,,,,,,,
,,,,,,,2023-09-25_09h59.42.351,vbt_B1_day1,2022.2.4,MacIntel,59.4530321,55918,,,,,,,,,,,,,,,,,,,-0.026666667,-0.126666667,1,0,0,1.915,3,4,82,9,1,j,images/br_j.png,images/cb_j.png,,,,,,,,,,,,,,,,,,,,,,,,,
,,,,,,,2023-09-25_09h59.42.351,vbt_B1_day1,2022.2.4,MacIntel,59.4530321,55918,,,,,,,,,,,,,,,,,,,-0.024444444,-0.135555556,1,0,0,0.616,3,5,83,4,1,e,images/br_e.png,images/cb_e.png,,,,,,,,,,,,,,,,,,,,,,,,,
,,,,,,,2023-09-25_09h59.42.351,vbt_B1_day1,2022.2.4,MacIntel,59.4530321,55918,,,,,,,,,,,,,,,,,,,-0.017777778,-0.142222222,1,0,0,1.484,3,6,84,14,1,o,images/br_o.png,images/cb_o.png,,,,,,,,,,,,,,,,,,,,,,,,,
,,,,,,,2023-09-25_09h59.42.351,vbt_B1_day1,2022.2.4,MacIntel,59.4530321,55918,,,,,,,,,,,,,,,,,,,-0.018888889,-0.143333333,1,0,0,1.05,3,7,85,2,1,c,images/br_c.png,images/cb_c.png,,,,,,,,,,,,,,,,,,,,,,,,,
,,,,,,,2023-09-25_09h59.42.351,vbt_B1_day1,2022.2.4,MacIntel,59.4530321,55918,,,,,,,,,,,,,,,,,,,-0.017777778,-0.143333333,1,0,0,0.067,3,8,86,23,1,x,images/br_x.png,images/cb_x.png,,,,,,,,,,,,,,,,,,,,,,,,,
,,,,,,,2023-09-25_09h59.42.351,vbt_B1_day1,2022.2.4,MacIntel,59.4530321,55918,,,,,,,,,,,,,,,,,,,-0.017777778,-0.143333333,1,0,0,0.166,3,9,87,12,1,m,images/br_m.png,images/cb_m.png,,,,,,,,,,,,,,,,,,,,,,,,,
,,,,,,,2023-09-25_09h59.42.351,vbt_B1_day1,2022.2.4,MacIntel,59.4530321,55918,,,,,,,,,,,,,,,,,,,-0.016666667,-0.143333333,1,0,0,1.167,3,10,88,16,1,q,images/br_q.png,images/cb_q.png,,,,,,,,,,,,,,,,,,,,,,,,,
,,,,,,,2023-09-25_09h59.42.351,vbt_B1_day1,2022.2.4,MacIntel,59.4530321,55918,,,,,,,,,,,,,,,,,,,-0.016666667,-0.143333333,1,0,0,2.785,3,11,89,15,1,p,images/br_p.png,images/cb_p.png,,,,,,,,,,,,,,,,,,,,,,,,,
,,,,,,,2023-09-25_09h59.42.351,vbt_B1_day1,2022.2.4,MacIntel,59.4530321,55918,,,,,,,,,,,,,,,,,,,-0.016666667,-0.143333333,1,0,0,4.966,3,12,90,7,1,h,images/br_h.png,images/cb_h.png,,,,,,,,,,,,,,,,,,,,,,,,,
,,,,,,,2023-09-25_09h59.42.351,vbt_B1_day1,2022.2.4,MacIntel,59.4530321,55918,,,,,,,,,,,,,,,,,,,-0.015555556,-0.125555556,1,0,0,1.8,3,13,91,24,1,y,images/br_y.png,images/cb_y.png,,,,,,,,,,,,,,,,,,,,,,,,,
,,,,,,,2023-09-25_09h59.42.351,vbt_B1_day1,2022.2.4,MacIntel,59.4530321,55918,,,,,,,,,,,,,,,,,,,-0.015555556,-0.125555556,1,0,0,0.216,3,14,92,20,1,u,images/br_u.png,images/cb_u.png,,,,,,,,,,,,,,,,,,,,,,,,,
,,,,,,,2023-09-25_09h59.42.351,vbt_B1_day1,2022.2.4,MacIntel,59.4530321,55918,,,,,,,,,,,,,,,,,,,-0.015555556,-0.114444444,1,0,0,0.433,3,15,93,21,1,v,images/br_v.png,images/cb_v.png,,,,,,,,,,,,,,,,,,,,,,,,,
,,,,,,,2023-09-25_09h59.42.351,vbt_B1_day1,2022.2.4,MacIntel,59.4530321,55918,,,,,,,,,,,,,,,,,,,-0.018888889,-0.114444444,1,0,0,0.199,3,16,94,0,1,a,images/br_a.png,images/cb_a.png,,,,,,,,,,,,,,,,,,,,,,,,,
,,,,,,,2023-09-25_09h59.42.351,vbt_B1_day1,2022.2.4,MacIntel,59.4530321,55918,,,,,,,,,,,,,,,,,,,-0.016666667,-0.115555556,1,0,0,0.15,3,17,95,10,1,k,images/br_k.png,images/cb_k.png,,,,,,,,,,,,,,,,,,,,,,,,,
,,,,,,,2023-09-25_09h59.42.351,vbt_B1_day1,2022.2.4,MacIntel,59.4530321,55918,,,,,,,,,,,,,,,,,,,-0.01,-0.12,1,0,0,5.517,3,18,96,1,1,b,images/br_b.png,images/cb_b.png,,,,,,,,,,,,,,,,,,,,,,,,,
,,,,,,,2023-09-25_09h59.42.351,vbt_B1_day1,2022.2.4,MacIntel,59.4530321,55918,,,,,,,,,,,,,,,,,,,-0.01,-0.12,1,0,0,0.234,3,19,97,3,1,d,images/br_d.png,images/cb_d.png,,,,,,,,,,,,,,,,,,,,,,,,,
,,,,,,,2023-09-25_09h59.42.351,vbt_B1_day1,2022.2.4,MacIntel,59.4530321,55918,,,,,,,,,,,,,,,,,,,-0.01,-0.12,1,0,0,2.433,3,20,98,18,1,s,images/br_s.png,images/cb_s.png,,,,,,,,,,,,,,,,,,,,,,,,,
,,,,,,,2023-09-25_09h59.42.351,vbt_B1_day1,2022.2.4,MacIntel,59.4530321,55918,,,,,,,,,,,,,,,,,,,-0.01,-0.12,1,0,0,4.385,3,21,99,13,1,n,images/br_n.png,images/cb_n.png,,,,,,,,,,,,,,,,,,,,,,,,,
,,,,,,,2023-09-25_09h59.42.351,vbt_B1_day1,2022.2.4,MacIntel,59.4530321,55918,,,,,,,,,,,,,,,,,,,-0.01,-0.12,1,0,0,2.401,3,22,100,5,1,f,images/br_f.png,images/cb_f.png,,,,,,,,,,,,,,,,,,,,,,,,,
,,,,,,,2023-09-25_09h59.42.351,vbt_B1_day1,2022.2.4,MacIntel,59.4530321,55918,,,,,,,,,,,,,,,,,,,-0.01,-0.122222222,1,0,0,0.917,3,23,101,25,1,z,images/br_z.png,images/cb_z.png,,,,,,,,,,,,,,,,,,,,,,,,,
,,,,,,,2023-09-25_09h59.42.351,vbt_B1_day1,2022.2.4,MacIntel,59.4530321,55918,,,,,,,,,,,,,,,,,,,-0.022222222,-0.124444444,1,0,0,1.601,3,24,102,19,1,t,images/br_t.png,images/cb_t.png,,,,,,,,,,,,,,,,,,,,,,,,,
,,,,,,,2023-09-25_09h59.42.351,vbt_B1_day1,2022.2.4,MacIntel,59.4530321,55918,,,,,,,,,,,,,,,,,,,-0.023333333,-0.124444444,1,0,0,0.917,3,25,103,17,1,r,images/br_r.png,images/cb_r.png,,,,,,,,,,,,,,,,,,,,,,,,,
,,,,,,,2023-09-25_09h59.42.351,vbt_B1_day1,2022.2.4,MacIntel,59.4530321,55918,,,,,,,,,,,,,,,,,,,-0.023333333,-0.124444444,1,0,0,0.367,4,0,104,10,1,k,images/br_k.png,images/cb_k.png,,,,,,,,,,,,,,,,,,,,,,,,,
,,,,,,,2023-09-25_09h59.42.351,vbt_B1_day1,2022.2.4,MacIntel,59.4530321,55918,,,,,,,,,,,,,,,,,,,-0.023333333,-0.124444444,1,0,0,1.751,4,1,105,4,1,e,images/br_e.png,images/cb_e.png,,,,,,,,,,,,,,,,,,,,,,,,,
,,,,,,,2023-09-25_09h59.42.351,vbt_B1_day1,2022.2.4,MacIntel,59.4530321,55918,,,,,,,,,,,,,,,,,,,-0.023333333,-0.124444444,1,0,0,0.8,4,2,106,1,1,b,images/br_b.png,images/cb_b.png,,,,,,,,,,,,,,,,,,,,,,,,,
,,,,,,,2023-09-25_09h59.42.351,vbt_B1_day1,2022.2.4,MacIntel,59.4530321,55918,,,,,,,,,,,,,,,,,,,-0.023333333,-0.124444444,1,0,0,2.167,4,3,107,5,1,f,images/br_f.png,images/cb_f.png,,,,,,,,,,,,,,,,,,,,,,,,,
,,,,,,,2023-09-25_09h59.42.351,vbt_B1_day1,2022.2.4,MacIntel,59.4530321,55918,,,,,,,,,,,,,,,,,,,-0.023333333,-0.124444444,1,0,0,0.502,4,4,108,16,1,q,images/br_q.png,images/cb_q.png,,,,,,,,,,,,,,,,,,,,,,,,,
,,,,,,,2023-09-25_09h59.42.351,vbt_B1_day1,2022.2.4,MacIntel,59.4530321,55918,,,,,,,,,,,,,,,,,,,-0.023333333,-0.126666667,1,0,0,0.069,4,5,109,21,1,v,images/br_v.png,images/cb_v.png,,,,,,,,,,,,,,,,,,,,,,,,,
,,,,,,,2023-09-25_09h59.42.351,vbt_B1_day1,2022.2.4,MacIntel,59.4530321,55918,,,,,,,,,,,,,,,,,,,-0.023333333,-0.126666667,1,0,0,0.084,4,6,110,2,1,c,images/br_c.png,images/cb_c.png,,,,,,,,,,,,,,,,,,,,,,,,,
,,,,,,,2023-09-25_09h59.42.351,vbt_B1_day1,2022.2.4,MacIntel,59.4530321,55918,,,,,,,,,,,,,,,,,,,-0.023333333,-0.126666667,1,0,0,0.633,4,7,111,8,1,i,images/br_i.png,images/cb_i.png,,,,,,,,,,,,,,,,,,,,,,,,,
,,,,,,,2023-09-25_09h59.42.351,vbt_B1_day1,2022.2.4,MacIntel,59.4530321,55918,,,,,,,,,,,,,,,,,,,-0.023333333,-0.125555556,1,0,0,28.036,4,8,112,24,1,y,images/br_y.png,images/cb_y.png,,,,,,,,,,,,,,,,,,,,,,,,,
,,,,,,,2023-09-25_09h59.42.351,vbt_B1_day1,2022.2.4,MacIntel,59.4530321,55918,,,,,,,,,,,,,,,,,,,-0.028888889,-0.117777778,1,0,0,7.62,4,9,113,20,1,u,images/br_u.png,images/cb_u.png,,,,,,,,,,,,,,,,,,,,,,,,,
,,,,,,,2023-09-25_09h59.42.351,vbt_B1_day1,2022.2.4,MacIntel,59.4530321,55918,,,,,,,,,,,,,,,,,,,-0.028888889,-0.114444444,1,0,0,0.618,4,10,114,18,1,s,images/br_s.png,images/cb_s.png,,,,,,,,,,,,,,,,,,,,,,,,,
,,,,,,,2023-09-25_09h59.42.351,vbt_B1_day1,2022.2.4,MacIntel,59.4530321,55918,,,,,,,,,,,,,,,,,,,-0.03,-0.116666667,0,0,1,0.172,4,11,115,6,1,g,images/br_g.png,images/cb_g.png,,,,,,,,,,,,,,,,,,,,,,,,,
,,,,,,,2023-09-25_09h59.42.351,vbt_B1_day1,2022.2.4,MacIntel,59.4530321,55918,,,,,,,,,,,,,,,,,,,-0.117777778,-0.117777778,1,0,0,2.201,4,12,116,25,1,z,images/br_z.png,images/cb_z.png,,,,,,,,,,,,,,,,,,,,,,,,,
,,,,,,,2023-09-25_09h59.42.351,vbt_B1_day1,2022.2.4,MacIntel,59.4530321,55918,,,,,,,,,,,,,,,,,,,-0.115555556,-0.113333333,1,0,0,0.534,4,13,117,7,1,h,images/br_h.png,images/cb_h.png,,,,,,,,,,,,,,,,,,,,,,,,,
,,,,,,,2023-09-25_09h59.42.351,vbt_B1_day1,2022.2.4,MacIntel,59.4530321,55918,,,,,,,,,,,,,,,,,,,-0.118888889,-0.113333333,1,0,0,1.899,4,14,118,11,1,l,images/br_l.png,images/cb_l.png,,,,,,,,,,,,,,,,,,,,,,,,,
,,,,,,,2023-09-25_09h59.42.351,vbt_B1_day1,2022.2.4,MacIntel,59.4530321,55918,,,,,,,,,,,,,,,,,,,-0.118888889,-0.123333333,1,0,0,0.699,4,15,119,9,1,j,images/br_j.png,images/cb_j.png,,,,,,,,,,,,,,,,,,,,,,,,,
,,,,,,,2023-09-25_09h59.42.351,vbt_B1_day1,2022.2.4,MacIntel,59.4530321,55918,,,,,,,,,,,,,,,,,,,-0.12,-0.123333333,1,0,0,1.25,4,16,120,23,1,x,images/br_x.png,images/cb_x.png,,,,,,,,,,,,,,,,,,,,,,,,,
,,,,,,,2023-09-25_09h59.42.351,vbt_B1_day1,2022.2.4,MacIntel,59.4530321,55918,,,,,,,,,,,,,,,,,,,-0.121111111,-0.12,1,0,0,0.466,4,17,121,17,1,r,images/br_r.png,images/cb_r.png,,,,,,,,,,,,,,,,,,,,,,,,,
,,,,,,,2023-09-25_09h59.42.351,vbt_B1_day1,2022.2.4,MacIntel,59.4530321,55918,,,,,,,,,,,,,,,,,,,-0.117777778,-0.112222222,1,0,0,0.015,4,18,122,19,1,t,images/br_t.png,images/cb_t.png,,,,,,,,,,,,,,,,,,,,,,,,,
,,,,,,,2023-09-25_09h59.42.351,vbt_B1_day1,2022.2.4,MacIntel,59.4530321,55918,,,,,,,,,,,,,,,,,,,-0.115555556,-0.117777778,1,0,0,0.817,4,19,123,0,1,a,images/br_a.png,images/cb_a.png,,,,,,,,,,,,,,,,,,,,,,,,,
,,,,,,,2023-09-25_09h59.42.351,vbt_B1_day1,2022.2.4,MacIntel,59.4530321,55918,,,,,,,,,,,,,,,,,,,-0.111111111,-0.113333333,1,0,0,1.368,4,20,124,15,1,p,images/br_p.png,images/cb_p.png,,,,,,,,,,,,,,,,,,,,,,,,,
,,,,,,,2023-09-25_09h59.42.351,vbt_B1_day1,2022.2.4,MacIntel,59.4530321,55918,,,,,,,,,,,,,,,,,,,-0.112222222,-0.12,1,0,0,1.1,4,21,125,22,1,w,images/br_w.png,images/cb_w.png,,,,,,,,,,,,,,,,,,,,,,,,,
,,,,,,,2023-09-25_09h59.42.351,vbt_B1_day1,2022.2.4,MacIntel,59.4530321,55918,,,,,,,,,,,,,,,,,,,-0.112222222,-0.122222222,1,0,0,0.867,4,22,126,13,1,n,images/br_n.png,images/cb_n.png,,,,,,,,,,,,,,,,,,,,,,,,,
,,,,,,,2023-09-25_09h59.42.351,vbt_B1_day1,2022.2.4,MacIntel,59.4530321,55918,,,,,,,,,,,,,,,,,,,-0.107777778,-0.133333333,1,0,0,0.733,4,23,127,3,1,d,images/br_d.png,images/cb_d.png,,,,,,,,,,,,,,,,,,,,,,,,,
,,,,,,,2023-09-25_09h59.42.351,vbt_B1_day1,2022.2.4,MacIntel,59.4530321,55918,,,,,,,,,,,,,,,,,,,-0.105555556,-0.137777778,1,0,0,0.201,4,24,128,14,1,o,images/br_o.png,images/cb_o.png,,,,,,,,,,,,,,,,,,,,,,,,,
,,,,,,,2023-09-25_09h59.42.351,vbt_B1_day1,2022.2.4,MacIntel,59.4530321,55918,,,,,,,,,,,,,,,,,,,-0.105555556,-0.138888889,1,0,0,0.516,4,25,129,12,1,m,images/br_m.png,images/cb_m.png,,,,,,,,,,,,,,,,,,,,,,,,,
,,,,,,,2023-09-25_09h59.42.351,vbt_B1_day1,2022.2.4,MacIntel,59.4530321,55918,,,,,,,,,,,,,,,,,,,-0.102222222,-0.147777778,1,0,0,0.433,5,0,130,7,1,h,images/br_h.png,images/cb_h.png,,,,,,,,,,,,,,,,,,,,,,,,,
,,,,,,,2023-09-25_09h59.42.351,vbt_B1_day1,2022.2.4,MacIntel,59.4530321,55918,,,,,,,,,,,,,,,,,,,-0.105555556,-0.152222222,1,0,0,0.451,5,1,131,22,1,w,images/br_w.png,images/cb_w.png,,,,,,,,,,,,,,,,,,,,,,,,,
,,,,,,,2023-09-25_09h59.42.351,vbt_B1_day1,2022.2.4,MacIntel,59.4530321,55918,,,,,,,,,,,,,,,,,,,-0.105555556,-0.152222222,1,0,0,0.75,5,2,132,21,1,v,images/br_v.png,images/cb_v.png,,,,,,,,,,,,,,,,,,,,,,,,,
,,,,,,,2023-09-25_09h59.42.351,vbt_B1_day1,2022.2.4,MacIntel,59.4530321,55918,,,,,,,,,,,,,,,,,,,-0.105555556,-0.152222222,1,0,0,0.166,5,3,133,24,1,y,images/br_y.png,images/cb_y.png,,,,,,,,,,,,,,,,,,,,,,,,,
,,,,,,,2023-09-25_09h59.42.351,vbt_B1_day1,2022.2.4,MacIntel,59.4530321,55918,,,,,,,,,,,,,,,,,,,-0.098888889,-0.142222222,1,0,0,3.434,5,4,134,5,1,f,images/br_f.png,images/cb_f.png,,,,,,,,,,,,,,,,,,,,,,,,,
,,,,,,,2023-09-25_09h59.42.351,vbt_B1_day1,2022.2.4,MacIntel,59.4530321,55918,,,,,,,,,,,,,,,,,,,-0.098888889,-0.142222222,1,0,0,0.634,5,5,135,9,1,j,images/br_j.png,images/cb_j.png,,,,,,,,,,,,,,,,,,,,,,,,,
,,,,,,,2023-09-25_09h59.42.351,vbt_B1_day1,2022.2.4,MacIntel,59.4530321,55918,,,,,,,,,,,,,,,,,,,-0.101111111,-0.144444444,1,0,0,2.734,5,6,136,10,1,k,images/br_k.png,images/cb_k.png,,,,,,,,,,,,,,,,,,,,,,,,,
,,,,,,,2023-09-25_09h59.42.351,vbt_B1_day1,2022.2.4,MacIntel,59.4530321,55918,,,,,,,,,,,,,,,,,,,-0.103333333,-0.148888889,1,0,0,1.468,5,7,137,19,1,t,images/br_t.png,images/cb_t.png,,,,,,,,,,,,,,,,,,,,,,,,,
,,,,,,,2023-09-25_09h59.42.351,vbt_B1_day1,2022.2.4,MacIntel,59.4530321,55918,,,,,,,,,,,,,,,,,,,-0.102222222,-0.153333333,1,0,0,0.383,5,8,138,1,1,b,images/br_b.png,images/cb_b.png,,,,,,,,,,,,,,,,,,,,,,,,,
,,,,,,,2023-09-25_09h59.42.351,vbt_B1_day1,2022.2.4,MacIntel,59.4530321,55918,,,,,,,,,,,,,,,,,,,-0.096666667,-0.162222222,1,0,0,0.733,5,9,139,11,1,l,images/br_l.png,images/cb_l.png,,,,,,,,,,,,,,,,,,,,,,,,,
,,,,,,,2023-09-25_09h59.42.351,vbt_B1_day1,2022.2.4,MacIntel,59.4530321,55918,,,,,,,,,,,,,,,,,,,-0.097777778,-0.164444444,1,0,0,1.701,5,10,140,14,1,o,images/br_o.png,images/cb_o.png,,,,,,,,,,,,,,,,,,,,,,,,,
,,,,,,,2023-09-25_09h59.42.351,vbt_B1_day1,2022.2.4,MacIntel,59.4530321,55918,,,,,,,,,,,,,,,,,,,-0.085555556,-0.172222222,1,0,0,0.884,5,11,141,8,1,i,images/br_i.png,images/cb_i.png,,,,,,,,,,,,,,,,,,,,,,,,,
,,,,,,,2023-09-25_09h59.42.351,vbt_B1_day1,2022.2.4,MacIntel,59.4530321,55918,,,,,,,,,,,,,,,,,,,-0.01,-0.157777778,1,0,0,1.249,5,12,142,0,1,a,images/br_a.png,images/cb_a.png,,,,,,,,,,,,,,,,,,,,,,,,,
,,,,,,,2023-09-25_09h59.42.351,vbt_B1_day1,2022.2.4,MacIntel,59.4530321,55918,,,,,,,,,,,,,,,,,,,-0.01,-0.153333333,1,0,0,1.184,5,13,143,20,1,u,images/br_u.png,images/cb_u.png,,,,,,,,,,,,,,,,,,,,,,,,,
,,,,,,,2023-09-25_09h59.42.351,vbt_B1_day1,2022.2.4,MacIntel,59.4530321,55918,,,,,,,,,,,,,,,,,,,-0.008888889,-0.153333333,1,0,0,0.834,5,14,144,17,1,r,images/br_r.png,images/cb_r.png,,,,,,,,,,,,,,,,,,,,,,,,,
,,,,,,,2023-09-25_09h59.42.351,vbt_B1_day1,2022.2.4,MacIntel,59.4530321,55918,,,,,,,,,,,,,,,,,,,-0.008888889,-0.155555556,1,0,0,0.117,5,15,145,25,1,z,images/br_z.png,images/cb_z.png,,,,,,,,,,,,,,,,,,,,,,,,,
,,,,,,,2023-09-25_09h59.42.351,vbt_B1_day1,2022.2.4,MacIntel,59.4530321,55918,,,,,,,,,,,,,,,,,,,-0.008888889,-0.156666667,1,0,0,0.316,5,16,146,23,1,x,images/br_x.png,images/cb_x.png,,,,,,,,,,,,,,,,,,,,,,,,,
,,,,,,,2023-09-25_09h59.42.351,vbt_B1_day1,2022.2.4,MacIntel,59.4530321,55918,,,,,,,,,,,,,,,,,,,-0.006666667,-0.154444444,1,0,0,0.184,5,17,147,4,1,e,images/br_e.png,images/cb_e.png,,,,,,,,,,,,,,,,,,,,,,,,,
,,,,,,,2023-09-25_09h59.42.351,vbt_B1_day1,2022.2.4,MacIntel,59.4530321,55918,,,,,,,,,,,,,,,,,,,-0.005555556,-0.152222222,1,0,0,6.734,5,18,148,13,1,n,images/br_n.png,images/cb_n.png,,,,,,,,,,,,,,,,,,,,,,,,,
,,,,,,,2023-09-25_09h59.42.351,vbt_B1_day1,2022.2.4,MacIntel,59.4530321,55918,,,,,,,,,,,,,,,,,,,-0.001111111,-0.155555556,1,0,0,0.05,5,19,149,12,1,m,images/br_m.png,images/cb_m.png,,,,,,,,,,,,,,,,,,,,,,,,,
,,,,,,,2023-09-25_09h59.42.351,vbt_B1_day1,2022.2.4,MacIntel,59.4530321,55918,,,,,,,,,,,,,,,,,,,0.002222222,-0.155555556,1,0,0,0.834,5,20,150,2,1,c,images/br_c.png,images/cb_c.png,,,,,,,,,,,,,,,,,,,,,,,,,
,,,,,,,2023-09-25_09h59.42.351,vbt_B1_day1,2022.2.4,MacIntel,59.4530321,55918,,,,,,,,,,,,,,,,,,,0.002222222,-0.153333333,1,0,0,82.655,5,21,151,3,1,d,images/br_d.png,images/cb_d.png,,,,,,,,,,,,,,,,,,,,,,,,,
,,,,,,,2023-09-25_09h59.42.351,vbt_B1_day1,2022.2.4,MacIntel,59.4530321,55918,,,,,,,,,,,,,,,,,,,0.002222222,-0.153333333,1,0,0,58.154,5,22,152,15,1,p,images/br_p.png,images/cb_p.png,,,,,,,,,,,,,,,,,,,,,,,,,
,,,,,,,2023-09-25_09h59.42.351,vbt_B1_day1,2022.2.4,MacIntel,59.4530321,55918,,,,,,,,,,,,,,,,,,,0.002222222,-0.153333333,1,0,0,12.134,5,23,153,18,1,s,images/br_s.png,images/cb_s.png,,,,,,,,,,,,,,,,,,,,,,,,,
,,,,,,,2023-09-25_09h59.42.351,vbt_B1_day1,2022.2.4,MacIntel,59.4530321,55918,,,,,,,,,,,,,,,,,,,0.016666667,-0.151111111,1,0,0,0.317,5,24,154,16,1,q,images/br_q.png,images/cb_q.png,,,,,,,,,,,,,,,,,,,,,,,,,
,,,,,,,2023-09-25_09h59.42.351,vbt_B1_day1,2022.2.4,MacIntel,59.4530321,55918,,,,,,,,,,,,,,,,,,,0.016666667,-0.152222222,1,0,0,1.534,5,25,155,6,1,g,images/br_g.png,images/cb_g.png,,,,,,,,,,,,,,,,,,,,,,,,,
,,,,,,,2023-09-25_09h59.42.351,vbt_B1_day1,2022.2.4,MacIntel,59.4530321,55918,,,,,,,,,,,,,,,,,,,0.016666667,-0.152222222,1,0,0,1.066,6,0,156,8,1,i,images/br_i.png,images/cb_i.png,,,,,,,,,,,,,,,,,,,,,,,,,
,,,,,,,2023-09-25_09h59.42.351,vbt_B1_day1,2022.2.4,MacIntel,59.4530321,55918,,,,,,,,,,,,,,,,,,,0.015555556,-0.153333333,1,0,0,1.151,6,1,157,24,1,y,images/br_y.png,images/cb_y.png,,,,,,,,,,,,,,,,,,,,,,,,,
,,,,,,,2023-09-25_09h59.42.351,vbt_B1_day1,2022.2.4,MacIntel,59.4530321,55918,,,,,,,,,,,,,,,,,,,0.015555556,-0.152222222,1,0,0,0.584,6,2,158,18,1,s,images/br_s.png,images/cb_s.png,,,,,,,,,,,,,,,,,,,,,,,,,
,,,,,,,2023-09-25_09h59.42.351,vbt_B1_day1,2022.2.4,MacIntel,59.4530321,55918,,,,,,,,,,,,,,,,,,,0.015555556,-0.152222222,1,0,0,1.283,6,3,159,2,1,c,images/br_c.png,images/cb_c.png,,,,,,,,,,,,,,,,,,,,,,,,,
,,,,,,,2023-09-25_09h59.42.351,vbt_B1_day1,2022.2.4,MacIntel,59.4530321,55918,,,,,,,,,,,,,,,,,,,0.015555556,-0.151111111,1,0,0,0.3,6,4,160,10,1,k,images/br_k.png,images/cb_k.png,,,,,,,,,,,,,,,,,,,,,,,,,
,,,,,,,2023-09-25_09h59.42.351,vbt_B1_day1,2022.2.4,MacIntel,59.4530321,55918,,,,,,,,,,,,,,,,,,,0.014444444,-0.153333333,1,0,0,1.917,6,5,161,6,1,g,images/br_g.png,images/cb_g.png,,,,,,,,,,,,,,,,,,,,,,,,,
,,,,,,,2023-09-25_09h59.42.351,vbt_B1_day1,2022.2.4,MacIntel,59.4530321,55918,,,,,,,,,,,,,,,,,,,0.013333333,-0.153333333,1,0,0,0.316,6,6,162,1,1,b,images/br_b.png,images/cb_b.png,,,,,,,,,,,,,,,,,,,,,,,,,
,,,,,,,2023-09-25_09h59.42.351,vbt_B1_day1,2022.2.4,MacIntel,59.4530321,55918,,,,,,,,,,,,,,,,,,,0.013333333,-0.154444444,1,0,0,0.133,6,7,163,15,1,p,images/br_p.png,images/cb_p.png,,,,,,,,,,,,,,,,,,,,,,,,,
,,,,,,,2023-09-25_09h59.42.351,vbt_B1_day1,2022.2.4,MacIntel,59.4530321,55918,,,,,,,,,,,,,,,,,,,-0.001111111,-0.154444444,1,0,0,0.533,6,8,164,16,1,q,images/br_q.png,images/cb_q.png,,,,,,,,,,,,,,,,,,,,,,,,,
,,,,,,,2023-09-25_09h59.42.351,vbt_B1_day1,2022.2.4,MacIntel,59.4530321,55918,,,,,,,,,,,,,,,,,,,-0.007777778,-0.148888889,1,0,0,1.183,6,9,165,25,1,z,images/br_z.png,images/cb_z.png,,,,,,,,,,,,,,,,,,,,,,,,,
,,,,,,,2023-09-25_09h59.42.351,vbt_B1_day1,2022.2.4,MacIntel,59.4530321,55918,,,,,,,,,,,,,,,,,,,-0.007777778,-0.135555556,1,0,0,0.4,6,10,166,13,1,n,images/br_n.png,images/cb_n.png,,,,,,,,,,,,,,,,,,,,,,,,,
,,,,,,,2023-09-25_09h59.42.351,vbt_B1_day1,2022.2.4,MacIntel,59.4530321,55918,,,,,,,,,,,,,,,,,,,-0.008888889,-0.133333333,1,0,0,0.466,6,11,167,11,1,l,images/br_l.png,images/cb_l.png,,,,,,,,,,,,,,,,,,,,,,,,,
,,,,,,,2023-09-25_09h59.42.351,vbt_B1_day1,2022.2.4,MacIntel,59.4530321,55918,,,,,,,,,,,,,,,,,,,-0.008888889,-0.133333333,1,0,0,0.7,6,12,168,22,1,w,images/br_w.png,images/cb_w.png,,,,,,,,,,,,,,,,,,,,,,,,,
,,,,,,,2023-09-25_09h59.42.351,vbt_B1_day1,2022.2.4,MacIntel,59.4530321,55918,,,,,,,,,,,,,,,,,,,-0.008888889,-0.133333333,1,0,0,0.517,6,13,169,20,1,u,images/br_u.png,images/cb_u.png,,,,,,,,,,,,,,,,,,,,,,,,,
,,,,,,,2023-09-25_09h59.42.351,vbt_B1_day1,2022.2.4,MacIntel,59.4530321,55918,,,,,,,,,,,,,,,,,,,-0.012222222,-0.13,1,0,0,0.583,6,14,170,21,1,v,images/br_v.png,images/cb_v.png,,,,,,,,,,,,,,,,,,,,,,,,,
,,,,,,,2023-09-25_09h59.42.351,vbt_B1_day1,2022.2.4,MacIntel,59.4530321,55918,,,,,,,,,,,,,,,,,,,0.043333333,-0.105555556,1,0,0,2.766,6,15,171,14,1,o,images/br_o.png,images/cb_o.png,,,,,,,,,,,,,,,,,,,,,,,,,
,,,,,,,2023-09-25_09h59.42.351,vbt_B1_day1,2022.2.4,MacIntel,59.4530321,55918,,,,,,,,,,,,,,,,,,,0.044444444,-0.11,1,0,0,0.316,6,16,172,12,1,m,images/br_m.png,images/cb_m.png,,,,,,,,,,,,,,,,,,,,,,,,,
,,,,,,,2023-09-25_09h59.42.351,vbt_B1_day1,2022.2.4,MacIntel,59.4530321,55918,,,,,,,,,,,,,,,,,,,0.041111111,-0.11,1,0,0,50.504,6,17,173,5,1,f,images/br_f.png,images/cb_f.png,,,,,,,,,,,,,,,,,,,,,,,,,
,,,,,,,2023-09-25_09h59.42.351,vbt_B1_day1,2022.2.4,MacIntel,59.4530321,55918,,,,,,,,,,,,,,,,,,,0.042222222,-0.111111111,1,0,0,0.417,6,18,174,3,1,d,images/br_d.png,images/cb_d.png,,,,,,,,,,,,,,,,,,,,,,,,,
,,,,,,,2023-09-25_09h59.42.351,vbt_B1_day1,2022.2.4,MacIntel,59.4530321,55918,,,,,,,,,,,,,,,,,,,0.041111111,-0.11,1,0,0,0.234,6,19,175,4,1,e,images/br_e.png,images/cb_e.png,,,,,,,,,,,,,,,,,,,,,,,,,
,,,,,,,2023-09-25_09h59.42.351,vbt_B1_day1,2022.2.4,MacIntel,59.4530321,55918,,,,,,,,,,,,,,,,,,,0.042222222,-0.111111111,1,0,0,0.667,6,20,176,19,1,t,images/br_t.png,images/cb_t.png,,,,,,,,,,,,,,,,,,,,,,,,,
,,,,,,,2023-09-25_09h59.42.351,vbt_B1_day1,2022.2.4,MacIntel,59.4530321,55918,,,,,,,,,,,,,,,,,,,0.042222222,-0.111111111,1,0,0,0.083,6,21,177,0,1,a,images/br_a.png,images/cb_a.png,,,,,,,,,,,,,,,,,,,,,,,,,
,,,,,,,2023-09-25_09h59.42.351,vbt_B1_day1,2022.2.4,MacIntel,59.4530321,55918,,,,,,,,,,,,,,,,,,,0.042222222,-0.111111111,1,0,0,0.116,6,22,178,23,1,x,images/br_x.png,images/cb_x.png,,,,,,,,,,,,,,,,,,,,,,,,,
,,,,,,,2023-09-25_09h59.42.351,vbt_B1_day1,2022.2.4,MacIntel,59.4530321,55918,,,,,,,,,,,,,,,,,,,0.042222222,-0.111111111,1,0,0,0.251,6,23,179,9,1,j,images/br_j.png,images/cb_j.png,,,,,,,,,,,,,,,,,,,,,,,,,
,,,,,,,2023-09-25_09h59.42.351,vbt_B1_day1,2022.2.4,MacIntel,59.4530321,55918,,,,,,,,,,,,,,,,,,,0.042222222,-0.111111111,1,0,0,2.766,6,24,180,17,1,r,images/br_r.png,images/cb_r.png,,,,,,,,,,,,,,,,,,,,,,,,,
,,,,,,,2023-09-25_09h59.42.351,vbt_B1_day1,2022.2.4,MacIntel,59.4530321,55918,,,,,,,,,,,,,,,,,,,0.042222222,-0.111111111,1,0,0,1.418,6,25,181,7,1,h,images/br_h.png,images/cb_h.png,,,,,,,,,,,,,,,,,,,,,,,,,
,,,,,,,2023-09-25_09h59.42.351,vbt_B1_day1,2022.2.4,MacIntel,59.4530321,55918,,,,,,,,,,,,,,,,,,,,,,,,,,,,,,,,,0.62,0.12,1,0,0,,,,,,,,,,,,,,,,,,,,
,,,,,,,2023-09-25_09h59.42.351,vbt_B1_day1,2022.2.4,MacIntel,59.4530321,55918,,,,,,,,,,,,,,,,,,,,,,,,,,,,,,,,,,,,,,0.53,0.017777778,1,0,0,,,,,,,,,,,,,,,
,,,,,,,2023-09-25_09h59.42.351,vbt_B1_day1,2022.2.4,MacIntel,59.4530321,55918,,,,,,,,,,,,,,,,,,,,,,,,,,,,,,,,,,,,,,,,,,,0.334444444,0.083333333,1,0,0,uin...,uin...,0,0,0,11,1,mening,images/br_mening.png,images/cb_mening.png
,,,,,,,2023-09-25_09h59.42.351,vbt_B1_day1,2022.2.4,MacIntel,59.4530321,55918,,,,,,,,,,,,,,,,,,,,,,,,,,,,,,,,,,,,,,,,,,,0.435555556,0.057777778,1,0,0,bleek,bleek,0,1,1,6,1,bleek,images/br_bleek.png,images/cb_bleek.png
,,,,,,,2023-09-25_09h59.42.351,vbt_B1_day1,2022.2.4,MacIntel,59.4530321,55918,,,,,,,,,,,,,,,,,,,,,,,,,,,,,,,,,,,,,,,,,,,0.442222222,0.113333333,1,0,0,vervaden,vervaden,0,2,2,36,1,vervaden,images/br_vervaden.png,images/cb_vervaden.png
,,,,,,,2023-09-25_09h59.42.351,vbt_B1_day1,2022.2.4,MacIntel,59.4530321,55918,,,,,,,,,,,,,,,,,,,,,,,,,,,,,,,,,,,,,,,,,,,0.442222222,0.113333333,1,0,0,liegen,liegen,0,3,3,50,1,liegen,images/br_liegen.png,images/cb_liegen.png
,,,,,,,2023-09-25_09h59.42.351,vbt_B1_day1,2022.2.4,MacIntel,59.4530321,55918,,,,,,,,,,,,,,,,,,,,,,,,,,,,,,,,,,,,,,,,,,,0.536666667,0.146666667,1,0,0,klauw,klauw,0,4,4,7,1,klauw,images/br_klauw.png,images/cb_klauw.png
,,,,,,,2023-09-25_09h59.42.351,vbt_B1_day1,2022.2.4,MacIntel,59.4530321,55918,,,,,,,,,,,,,,,,,,,,,,,,,,,,,,,,,,,,,,,,,,,0.536666667,0.146666667,1,0,0,prort,prort,0,5,5,27,1,prort,images/br_prort.png,images/cb_prort.png
,,,,,,,2023-09-25_09h59.42.351,vbt_B1_day1,2022.2.4,MacIntel,59.4530321,55918,,,,,,,,,,,,,,,,,,,,,,,,,,,,,,,,,,,,,,,,,,,0.537777778,0.144444444,1,0,0,dubbel,dubbel,0,6,6,9,1,dubbel,images/br_dubbel.png,images/cb_dubbel.png
,,,,,,,2023-09-25_09h59.42.351,vbt_B1_day1,2022.2.4,MacIntel,59.4530321,55918,,,,,,,,,,,,,,,,,,,,,,,,,,,,,,,,,,,,,,,,,,,0.594444444,0.137777778,1,0,0,valop,valop,0,7,7,26,1,valop,images/br_valop.png,images/cb_valop.png
,,,,,,,2023-09-25_09h59.42.351,vbt_B1_day1,2022.2.4,MacIntel,59.4530321,55918,,,,,,,,,,,,,,,,,,,,,,,,,,,,,,,,,,,,,,,,,,,0.594444444,0.137777778,1,0,0,gezond,gezond,0,8,8,29,1,genond,images/br_genond.png,images/cb_genond.png
,,,,,,,2023-09-25_09h59.42.351,vbt_B1_day1,2022.2.4,MacIntel,59.4530321,55918,,,,,,,,,,,,,,,,,,,,,,,,,,,,,,,,,,,,,,,,,,,0.465555556,0.053333333,1,0,0,lava,lava,0,9,9,43,1,lava,images/br_lava.png,images/cb_lava.png
,,,,,,,2023-09-25_09h59.42.351,vbt_B1_day1,2022.2.4,MacIntel,59.4530321,55918,,,,,,,,,,,,,,,,,,,,,,,,,,,,,,,,,,,,,,,,,,,0.48,0.103333333,1,0,0,ovp....,ovp....,0,10,10,59,1,opvatten,images/br_opvatten.png,images/cb_opvatten.png
,,,,,,,2023-09-25_09h59.42.351,vbt_B1_day1,2022.2.4,MacIntel,59.4530321,55918,,,,,,,,,,,,,,,,,,,,,,,,,,,,,,,,,,,,,,,,,,,0.321111111,0.072222222,1,0,0,schep,schep,0,11,11,4,1,schep,images/br_schep.png,images/cb_schep.png
,,,,,,,2023-09-25_09h59.42.351,vbt_B1_day1,2022.2.4,MacIntel,59.4530321,55918,,,,,,,,,,,,,,,,,,,,,,,,,,,,,,,,,,,,,,,,,,,0.321111111,0.072222222,1,0,0,muniek,muniek,0,12,12,10,1,muziek,images/br_muziek.png,images/cb_muziek.png
,,,,,,,2023-09-25_09h59.42.351,vbt_B1_day1,2022.2.4,MacIntel,59.4530321,55918,,,,,,,,,,,,,,,,,,,,,,,,,,,,,,,,,,,,,,,,,,,0.294444444,0.041111111,1,0,0,flullen,flullen,0,13,13,33,1,flullen,images/br_flullen.png,images/cb_flullen.png
,,,,,,,2023-09-25_09h59.42.351,vbt_B1_day1,2022.2.4,MacIntel,59.4530321,55918,,,,,,,,,,,,,,,,,,,,,,,,,,,,,,,,,,,,,,,,,,,0.218888889,0.155555556,1,0,0,stuikem,stuikem,0,14,14,35,1,stuikem,images/br_stuikem.png,images/cb_stuikem.png
,,,,,,,2023-09-25_09h59.42.351,vbt_B1_day1,2022.2.4,MacIntel,59.4530321,55918,,,,,,,,,,,,,,,,,,,,,,,,,,,,,,,,,,,,,,,,,,,0.218888889,0.155555556,1,0,0,liehje,liehje,0,15,15,51,1,liefde,images/br_liefde.png,images/cb_liefde.png
,,,,,,,2023-09-25_09h59.42.351,vbt_B1_day1,2022.2.4,MacIntel,59.4530321,55918,,,,,,,,,,,,,,,,,,,,,,,,,,,,,,,,,,,,,,,,,,,0.257777778,0.213333333,1,0,0,booi,booi,0,16,16,23,1,booi,images/br_booi.png,images/cb_booi.png
,,,,,,,2023-09-25_09h59.42.351,vbt_B1_day1,2022.2.4,MacIntel,59.4530321,55918,,,,,,,,,,,,,,,,,,,,,,,,,,,,,,,,,,,,,,,,,,,0.257777778,0.213333333,1,0,0,wijne,wijne,0,17,17,44,1,wijze,images/br_wijze.png,images/cb_wijze.png
,,,,,,,2023-09-25_09h59.42.351,vbt_B1_day1,2022.2.4,MacIntel,59.4530321,55918,,,,,,,,,,,,,,,,,,,,,,,,,,,,,,,,,,,,,,,,,,,0.257777778,0.213333333,1,0,0,jief,jief,0,18,18,40,1,dief,images/br_dief.png,images/cb_dief.png
,,,,,,,2023-09-25_09h59.42.351,vbt_B1_day1,2022.2.4,MacIntel,59.4530321,55918,,,,,,,,,,,,,,,,,,,,,,,,,,,,,,,,,,,,,,,,,,,0.257777778,0.213333333,1,0,0,voorkeur,voorkeur,0,19,19,58,1,voorkeur,images/br_voorkeur.png,images/cb_voorkeur.png
,,,,,,,2023-09-25_09h59.42.351,vbt_B1_day1,2022.2.4,MacIntel,59.4530321,55918,,,,,,,,,,,,,,,,,,,,,,,,,,,,,,,,,,,,,,,,,,,0.257777778,0.213333333,1,0,0,slak,slak,0,20,20,0,1,slak,images/br_slak.png,images/cb_slak.png
,,,,,,,2023-09-25_09h59.42.351,vbt_B1_day1,2022.2.4,MacIntel,59.4530321,55918,,,,,,,,,,,,,,,,,,,,,,,,,,,,,,,,,,,,,,,,,,,0.257777778,0.213333333,1,0,0,opslaan,opslaan,0,21,21,53,1,opslaan,images/br_opslaan.png,images/cb_opslaan.png
,,,,,,,2023-09-25_09h59.42.351,vbt_B1_day1,2022.2.4,MacIntel,59.4530321,55918,,,,,,,,,,,,,,,,,,,,,,,,,,,,,,,,,,,,,,,,,,,0.257777778,0.213333333,1,0,0,jaar,jaar,0,22,22,2,1,jaar,images/br_jaar.png,images/cb_jaar.png
,,,,,,,2023-09-25_09h59.42.351,vbt_B1_day1,2022.2.4,MacIntel,59.4530321,55918,,,,,,,,,,,,,,,,,,,,,,,,,,,,,,,,,,,,,,,,,,,0.233333333,0.23,1,0,0,waarvan,waarvan,0,23,23,14,1,waarvan,images/br_waarvan.png,images/cb_waarvan.png
,,,,,,,2023-09-25_09h59.42.351,vbt_B1_day1,2022.2.4,MacIntel,59.4530321,55918,,,,,,,,,,,,,,,,,,,,,,,,,,,,,,,,,,,,,,,,,,,0.233333333,0.23,1,0,0,loods,loods,0,24,24,47,1,loods,images/br_loods.png,images/cb_loods.png
,,,,,,,2023-09-25_09h59.42.351,vbt_B1_day1,2022.2.4,MacIntel,59.4530321,55918,,,,,,,,,,,,,,,,,,,,,,,,,,,,,,,,,,,,,,,,,,,0.233333333,0.23,1,0,0,schielen,schielen,0,25,25,38,1,schielen,images/br_schielen.png,images/cb_schielen.png
,,,,,,,2023-09-25_09h59.42.351,vbt_B1_day1,2022.2.4,MacIntel,59.4530321,55918,,,,,,,,,,,,,,,,,,,,,,,,,,,,,,,,,,,,,,,,,,,0.233333333,0.23,1,0,0,stuk,stuk,0,26,26,42,1,stuk,images/br_stuk.png,images/cb_stuk.png
,,,,,,,2023-09-25_09h59.42.351,vbt_B1_day1,2022.2.4,MacIntel,59.4530321,55918,,,,,,,,,,,,,,,,,,,,,,,,,,,,,,,,,,,,,,,,,,,0.233333333,0.23,1,0,0,toezicht,toezicht,0,27,27,56,1,toezicht,images/br_toezicht.png,images/cb_toezicht.png
,,,,,,,2023-09-25_09h59.42.351,vbt_B1_day1,2022.2.4,MacIntel,59.4530321,55918,,,,,,,,,,,,,,,,,,,,,,,,,,,,,,,,,,,,,,,,,,,0.233333333,0.23,1,0,0,rezer,rezer,0,28,28,24,1,rezer,images/br_rezer.png,images/cb_rezer.png
,,,,,,,2023-09-25_09h59.42.351,vbt_B1_day1,2022.2.4,MacIntel,59.4530321,55918,,,,,,,,,,,,,,,,,,,,,,,,,,,,,,,,,,,,,,,,,,,0.233333333,0.23,1,0,0,lochten,lochten,0,29,29,34,1,lochten,images/br_lochten.png,images/cb_lochten.png
,,,,,,,2023-09-25_09h59.42.351,vbt_B1_day1,2022.2.4,MacIntel,59.4530321,55918,,,,,,,,,,,,,,,,,,,,,,,,,,,,,,,,,,,,,,,,,,,0.233333333,0.23,1,0,0,hoog,hoog,0,30,30,41,1,hoog,images/br_hoog.png,images/cb_hoog.png
,,,,,,,2023-09-25_09h59.42.351,vbt_B1_day1,2022.2.4,MacIntel,59.4530321,55918,,,,,,,,,,,,,,,,,,,,,,,,,,,,,,,,,,,,,,,,,,,0.233333333,0.23,1,0,0,tekenen,tekenen,0,31,31,55,1,tekenen,images/br_tekenen.png,images/cb_tekenen.png
,,,,,,,2023-09-25_09h59.42.351,vbt_B1_day1,2022.2.4,MacIntel,59.4530321,55918,,,,,,,,,,,,,,,,,,,,,,,,,,,,,,,,,,,,,,,,,,,0.233333333,0.23,1,0,0,kanjer,kanjer,0,32,32,8,1,kanjer,images/br_kanjer.png,images/cb_kanjer.png
,,,,,,,2023-09-25_09h59.42.351,vbt_B1_day1,2022.2.4,MacIntel,59.4530321,55918,,,,,,,,,,,,,,,,,,,,,,,,,,,,,,,,,,,,,,,,,,,0.233333333,0.23,1,0,0,nuiplar,nuiplar,0,33,33,52,1,zuiplap,images/br_zuiplap.png,images/cb_zuiplap.png
,,,,,,,2023-09-25_09h59.42.351,vbt_B1_day1,2022.2.4,MacIntel,59.4530321,55918,,,,,,,,,,,,,,,,,,,,,,,,,,,,,,,,,,,,,,,,,,,0.233333333,0.23,1,0,0,twijfel,twijfel,0,34,34,13,1,twijfel,images/br_twijfel.png,images/cb_twijfel.png
,,,,,,,2023-09-25_09h59.42.351,vbt_B1_day1,2022.2.4,MacIntel,59.4530321,55918,,,,,,,,,,,,,,,,,,,,,,,,,,,,,,,,,,,,,,,,,,,0.233333333,0.23,1,0,0,dhed,dhed,0,35,35,21,1,dred,images/br_dred.png,images/cb_dred.png
,,,,,,,2023-09-25_09h59.42.351,vbt_B1_day1,2022.2.4,MacIntel,59.4530321,55918,,,,,,,,,,,,,,,,,,,,,,,,,,,,,,,,,,,,,,,,,,,0.233333333,0.23,1,0,0,hiervan,hiervan,0,36,36,15,1,hiervan,images/br_hiervan.png,images/cb_hiervan.png
,,,,,,,2023-09-25_09h59.42.351,vbt_B1_day1,2022.2.4,MacIntel,59.4530321,55918,,,,,,,,,,,,,,,,,,,,,,,,,,,,,,,,,,,,,,,,,,,0.233333333,0.23,1,0,0,attentie,attentie,0,37,37,17,1,attentie,images/br_attentie.png,images/cb_attentie.png
,,,,,,,2023-09-25_09h59.42.351,vbt_B1_day1,2022.2.4,MacIntel,59.4530321,55918,,,,,,,,,,,,,,,,,,,,,,,,,,,,,,,,,,,,,,,,,,,0.233333333,0.23,1,0,0,vijftig,vijftig,0,38,38,54,1,vijftig,images/br_vijftig.png,images/cb_vijftig.png
,,,,,,,2023-09-25_09h59.42.351,vbt_B1_day1,2022.2.4,MacIntel,59.4530321,55918,,,,,,,,,,,,,,,,,,,,,,,,,,,,,,,,,,,,,,,,,,,0.261111111,0.303333333,1,0,0,vie...,vie...,0,39,39,49,1,vizier,images/br_vizier.png,images/cb_vizier.png
,,,,,,,2023-09-25_09h59.42.351,vbt_B1_day1,2022.2.4,MacIntel,59.4530321,55918,,,,,,,,,,,,,,,,,,,,,,,,,,,,,,,,,,,,,,,,,,,0.261111111,0.303333333,1,0,0,reedje,reedje,0,40,40,30,1,reedje,images/br_reedje.png,images/cb_reedje.png
,,,,,,,2023-09-25_09h59.42.351,vbt_B1_day1,2022.2.4,MacIntel,59.4530321,55918,,,,,,,,,,,,,,,,,,,,,,,,,,,,,,,,,,,,,,,,,,,0.233333333,0.244444444,1,0,0,mazd,mazd,0,41,41,3,1,mand,images/br_mand.png,images/cb_mand.png
,,,,,,,2023-09-25_09h59.42.351,vbt_B1_day1,2022.2.4,MacIntel,59.4530321,55918,,,,,,,,,,,,,,,,,,,,,,,,,,,,,,,,,,,,,,,,,,,0.147777778,0.184444444,1,0,0,zaal,zaal,0,42,42,1,1,zaal,images/br_zaal.png,images/cb_zaal.png
,,,,,,,2023-09-25_09h59.42.351,vbt_B1_day1,2022.2.4,MacIntel,59.4530321,55918,,,,,,,,,,,,,,,,,,,,,,,,,,,,,,,,,,,,,,,,,,,-0.054444444,0.21,1,0,0,hictie,hictie,0,43,43,48,1,fictie,images/br_fictie.png,images/cb_fictie.png
,,,,,,,2023-09-25_09h59.42.351,vbt_B1_day1,2022.2.4,MacIntel,59.4530321,55918,,,,,,,,,,,,,,,,,,,,,,,,,,,,,,,,,,,,,,,,,,,-0.336666667,0.252222222,1,0,0,vitdelen,vitdelen,0,44,44,18,1,uitdelen,images/br_uitdelen.png,images/cb_uitdelen.png
,,,,,,,2023-09-25_09h59.42.351,vbt_B1_day1,2022.2.4,MacIntel,59.4530321,55918,,,,,,,,,,,,,,,,,,,,,,,,,,,,,,,,,,,,,,,,,,,-0.336666667,0.252222222,1,0,0,vemel,vemel,0,45,45,45,1,hemel,images/br_hemel.png,images/cb_hemel.png
,,,,,,,2023-09-25_09h59.42.351,vbt_B1_day1,2022.2.4,MacIntel,59.4530321,55918,,,,,,,,,,,,,,,,,,,,,,,,,,,,,,,,,,,,,,,,,,,-0.438888889,0.284444444,1,0,0,stamen,stamen,0,46,46,31,1,stamen,images/br_stamen.png,images/cb_stamen.png
,,,,,,,2023-09-25_09h59.42.351,vbt_B1_day1,2022.2.4,MacIntel,59.4530321,55918,,,,,,,,,,,,,,,,,,,,,,,,,,,,,,,,,,,,,,,,,,,-0.454444444,0.284444444,1,0,0,spany...,spany...,0,47,47,37,1,spanzing,images/br_spanzing.png,images/cb_spanzing.png
,,,,,,,2023-09-25_09h59.42.351,vbt_B1_day1,2022.2.4,MacIntel,59.4530321,55918,,,,,,,,,,,,,,,,,,,,,,,,,,,,,,,,,,,,,,,,,,,-0.454444444,0.284444444,1,0,0,leyen,leyen,0,48,48,46,1,lezen,images/br_lezen.png,images/cb_lezen.png
,,,,,,,2023-09-25_09h59.42.351,vbt_B1_day1,2022.2.4,MacIntel,59.4530321,55918,,,,,,,,,,,,,,,,,,,,,,,,,,,,,,,,,,,,,,,,,,,-0.454444444,0.284444444,1,0,0,voorkeur,voorkeur,0,49,49,39,1,voorreur,images/br_voorreur.png,images/cb_voorreur.png
,,,,,,,2023-09-25_09h59.42.351,vbt_B1_day1,2022.2.4,MacIntel,59.4530321,55918,,,,,,,,,,,,,,,,,,,,,,,,,,,,,,,,,,,,,,,,,,,-0.454444444,0.284444444,1,0,0,vaarheez,vaarheez,0,50,50,16,1,daarheen,images/br_daarheen.png,images/cb_daarheen.png
,,,,,,,2023-09-25_09h59.42.351,vbt_B1_day1,2022.2.4,MacIntel,59.4530321,55918,,,,,,,,,,,,,,,,,,,,,,,,,,,,,,,,,,,,,,,,,,,-0.454444444,0.285555556,1,0,0,wnoe,wnoe,0,51,51,22,1,knoe,images/br_knoe.png,images/cb_knoe.png
,,,,,,,2023-09-25_09h59.42.351,vbt_B1_day1,2022.2.4,MacIntel,59.4530321,55918,,,,,,,,,,,,,,,,,,,,,,,,,,,,,,,,,,,,,,,,,,,-0.697777778,0.031111111,1,0,0,brujk,brujk,0,52,52,25,1,brijk,images/br_brijk.png,images/cb_brijk.png
,,,,,,,2023-09-25_09h59.42.351,vbt_B1_day1,2022.2.4,MacIntel,59.4530321,55918,,,,,,,,,,,,,,,,,,,,,,,,,,,,,,,,,,,,,,,,,,,-0.697777778,0.031111111,1,0,0,tars,tars,0,53,53,20,1,tars,images/br_tars.png,images/cb_tars.png
,,,,,,,2023-09-25_09h59.42.351,vbt_B1_day1,2022.2.4,MacIntel,59.4530321,55918,,,,,,,,,,,,,,,,,,,,,,,,,,,,,,,,,,,,,,,,,,,-0.697777778,0.031111111,1,0,0,opplaan,opplaan,0,54,54,32,1,opplaan,images/br_opplaan.png,images/cb_opplaan.png
,,,,,,,2023-09-25_09h59.42.351,vbt_B1_day1,2022.2.4,MacIntel,59.4530321,55918,,,,,,,,,,,,,,,,,,,,,,,,,,,,,,,,,,,,,,,,,,,-0.697777778,0.031111111,1,0,0,bebrip,bebrip,0,55,55,28,1,bebrip,images/br_bebrip.png,images/cb_bebrip.png
,,,,,,,2023-09-25_09h59.42.351,vbt_B1_day1,2022.2.4,MacIntel,59.4530321,55918,,,,,,,,,,,,,,,,,,,,,,,,,,,,,,,,,,,,,,,,,,,-0.695555556,0.031111111,1,0,0,haken,haken,0,56,56,5,1,maken,images/br_maken.png,images/cb_maken.png
,,,,,,,2023-09-25_09h59.42.351,vbt_B1_day1,2022.2.4,MacIntel,59.4530321,55918,,,,,,,,,,,,,,,,,,,,,,,,,,,,,,,,,,,,,,,,,,,-0.695555556,0.031111111,1,0,0,klemmen,klemmen,0,57,57,12,1,klimmen,images/br_klimmen.png,images/cb_klimmen.png
,,,,,,,2023-09-25_09h59.42.351,vbt_B1_day1,2022.2.4,MacIntel,59.4530321,55918,,,,,,,,,,,,,,,,,,,,,,,,,,,,,,,,,,,,,,,,,,,-0.695555556,0.031111111,1,0,0,schuiven,schuiven,0,58,58,19,1,schuilen,images/br_schuilen.png,images/cb_schuilen.png
,,,,,,,2023-09-25_09h59.42.351,vbt_B1_day1,2022.2.4,MacIntel,59.4530321,55918,,,,,,,,,,,,,,,,,,,,,,,,,,,,,,,,,,,,,,,,,,,-0.695555556,0.031111111,1,0,0,meenemen,meenemen,0,59,59,57,1,meenemen,images/br_meenemen.png,images/cb_meenemen.png
,,,,,,,2023-09-25_09h59.42.351,vbt_B1_day1,2022.2.4,MacIntel,59.4530321,55918,,,,,,,,,,,,,,,,,,,,,,,,,,,,,,,,,,,,,,,,,,,,,,,,,,,,,,,,,
