welcome_mouse.x,welcome_mouse.y,welcome_mouse.leftButton,welcome_mouse.midButton,welcome_mouse.rightButton,welcome_mouse.time,"ID",date,expName,psychopyVersion,OS,frameRate,refresh_mouse.x,refresh_mouse.y,refresh_mouse.leftButton,refresh_mouse.midButton,refresh_mouse.rightButton,refresh_mouse.time,braille_mouse.x,braille_mouse.y,braille_mouse.leftButton,braille_mouse.midButton,braille_mouse.rightButton,braille_mouse.time,trials.thisRepN,trials.thisTrialN,trials.thisN,trials.thisIndex,trials.ran,nlLet,brLet,cbLet,trainInstr_mouse.x,trainInstr_mouse.y,trainInstr_mouse.leftButton,trainInstr_mouse.midButton,trainInstr_mouse.rightButton,trainInstr_mouse.time,translation_key.keys,translation_key.corr,translation_key.rt,word_rsp.text,word_mouse.x,word_mouse.y,word_mouse.leftButton,word_mouse.midButton,word_mouse.rightButton,word_mouse.time,train_loop.thisRepN,train_loop.thisTrialN,train_loop.thisN,train_loop.thisIndex,train_loop.ran,nlWrd,brWrd,cbWrd,test,testResp,mouse.x,mouse.y,mouse.leftButton,mouse.midButton,mouse.rightButton,testInstr_mouse.x,testInstr_mouse.y,testInstr_mouse.leftButton,testInstr_mouse.midButton,testInstr_mouse.rightButton,test_mouse.x,test_mouse.y,test_mouse.leftButton,test_mouse.midButton,test_mouse.rightButton,test_response.text,test_loop.thisRepN,test_loop.thisTrialN,test_loop.thisN,test_loop.thisIndex,test_loop.ran
-0.230324074,-0.266203704,1,0,0,5.875,00095,2023-11-22_17h00.05.396,vbt_B2_day2,2022.2.4,Win32,59.95203837,,,,,,,,,,,,,,,,,,,,,,,,,,,,,,,,,,,,,,,,,,,,,,,,,,,,,,,,,,,,,,,,,,,
,,,,,,00095,2023-11-22_17h00.05.396,vbt_B2_day2,2022.2.4,Win32,59.95203837,-0.238425926,-0.237268519,1,0,0,4.38,,,,,,,,,,,,,,,,,,,,,,,,,,,,,,,,,,,,,,,,,,,,,,,,,,,,,,,,,,,,,
,,,,,,00095,2023-11-22_17h00.05.396,vbt_B2_day2,2022.2.4,Win32,59.95203837,,,,,,,-0.238425926,-0.236111111,1,0,0,0.583,0,0,0,16,1,q,images/br_q.png,images/cb_q.png,,,,,,,,,,,,,,,,,,,,,,,,,,,,,,,,,,,,,,,,,,,,,,,
,,,,,,00095,2023-11-22_17h00.05.396,vbt_B2_day2,2022.2.4,Win32,59.95203837,,,,,,,-0.165509259,-0.157407407,1,0,0,0.332,0,1,1,12,1,m,images/br_m.png,images/cb_m.png,,,,,,,,,,,,,,,,,,,,,,,,,,,,,,,,,,,,,,,,,,,,,,,
,,,,,,00095,2023-11-22_17h00.05.396,vbt_B2_day2,2022.2.4,Win32,59.95203837,,,,,,,-0.118055556,-0.125,1,0,0,0.316,0,2,2,15,1,p,images/br_p.png,images/cb_p.png,,,,,,,,,,,,,,,,,,,,,,,,,,,,,,,,,,,,,,,,,,,,,,,
,,,,,,00095,2023-11-22_17h00.05.396,vbt_B2_day2,2022.2.4,Win32,59.95203837,,,,,,,0.076388889,-0.113425926,1,0,0,0.532,0,3,3,5,1,f,images/br_f.png,images/cb_f.png,,,,,,,,,,,,,,,,,,,,,,,,,,,,,,,,,,,,,,,,,,,,,,,
,,,,,,00095,2023-11-22_17h00.05.396,vbt_B2_day2,2022.2.4,Win32,59.95203837,,,,,,,0.005787037,-0.131944444,1,0,0,2.15,0,4,4,24,1,y,images/br_y.png,images/cb_y.png,,,,,,,,,,,,,,,,,,,,,,,,,,,,,,,,,,,,,,,,,,,,,,,
,,,,,,00095,2023-11-22_17h00.05.396,vbt_B2_day2,2022.2.4,Win32,59.95203837,,,,,,,0.00462963,-0.119212963,1,0,0,0.016,0,5,5,14,1,o,images/br_o.png,images/cb_o.png,,,,,,,,,,,,,,,,,,,,,,,,,,,,,,,,,,,,,,,,,,,,,,,
,,,,,,00095,2023-11-22_17h00.05.396,vbt_B2_day2,2022.2.4,Win32,59.95203837,,,,,,,0.00462963,-0.119212963,1,0,0,0.032,0,6,6,2,1,c,images/br_c.png,images/cb_c.png,,,,,,,,,,,,,,,,,,,,,,,,,,,,,,,,,,,,,,,,,,,,,,,
,,,,,,00095,2023-11-22_17h00.05.396,vbt_B2_day2,2022.2.4,Win32,59.95203837,,,,,,,0.052083333,-0.141203704,1,0,0,0.499,0,7,7,7,1,h,images/br_h.png,images/cb_h.png,,,,,,,,,,,,,,,,,,,,,,,,,,,,,,,,,,,,,,,,,,,,,,,
,,,,,,00095,2023-11-22_17h00.05.396,vbt_B2_day2,2022.2.4,Win32,59.95203837,,,,,,,0.025462963,-0.118055556,1,0,0,0.416,0,8,8,6,1,g,images/br_g.png,images/cb_g.png,,,,,,,,,,,,,,,,,,,,,,,,,,,,,,,,,,,,,,,,,,,,,,,
,,,,,,00095,2023-11-22_17h00.05.396,vbt_B2_day2,2022.2.4,Win32,59.95203837,,,,,,,0.025462963,-0.107638889,1,0,0,0.366,0,9,9,17,1,r,images/br_r.png,images/cb_r.png,,,,,,,,,,,,,,,,,,,,,,,,,,,,,,,,,,,,,,,,,,,,,,,
,,,,,,00095,2023-11-22_17h00.05.396,vbt_B2_day2,2022.2.4,Win32,59.95203837,,,,,,,0.025462963,-0.09837963,1,0,0,5.95,0,10,10,4,1,e,images/br_e.png,images/cb_e.png,,,,,,,,,,,,,,,,,,,,,,,,,,,,,,,,,,,,,,,,,,,,,,,
,,,,,,00095,2023-11-22_17h00.05.396,vbt_B2_day2,2022.2.4,Win32,59.95203837,,,,,,,0.016203704,-0.114583333,1,0,0,0.216,0,11,11,13,1,n,images/br_n.png,images/cb_n.png,,,,,,,,,,,,,,,,,,,,,,,,,,,,,,,,,,,,,,,,,,,,,,,
,,,,,,00095,2023-11-22_17h00.05.396,vbt_B2_day2,2022.2.4,Win32,59.95203837,,,,,,,0.016203704,-0.123842593,1,0,0,0.417,0,12,12,0,1,a,images/br_a.png,images/cb_a.png,,,,,,,,,,,,,,,,,,,,,,,,,,,,,,,,,,,,,,,,,,,,,,,
,,,,,,00095,2023-11-22_17h00.05.396,vbt_B2_day2,2022.2.4,Win32,59.95203837,,,,,,,0.018518519,-0.127314815,1,0,0,0.367,0,13,13,18,1,s,images/br_s.png,images/cb_s.png,,,,,,,,,,,,,,,,,,,,,,,,,,,,,,,,,,,,,,,,,,,,,,,
,,,,,,00095,2023-11-22_17h00.05.396,vbt_B2_day2,2022.2.4,Win32,59.95203837,,,,,,,0.059027778,-0.136574074,1,0,0,0.334,0,14,14,1,1,b,images/br_b.png,images/cb_b.png,,,,,,,,,,,,,,,,,,,,,,,,,,,,,,,,,,,,,,,,,,,,,,,
,,,,,,00095,2023-11-22_17h00.05.396,vbt_B2_day2,2022.2.4,Win32,59.95203837,,,,,,,0.055555556,-0.136574074,1,0,0,0.467,0,15,15,22,1,w,images/br_w.png,images/cb_w.png,,,,,,,,,,,,,,,,,,,,,,,,,,,,,,,,,,,,,,,,,,,,,,,
,,,,,,00095,2023-11-22_17h00.05.396,vbt_B2_day2,2022.2.4,Win32,59.95203837,,,,,,,0.055555556,-0.136574074,1,0,0,6.651,0,16,16,3,1,d,images/br_d.png,images/cb_d.png,,,,,,,,,,,,,,,,,,,,,,,,,,,,,,,,,,,,,,,,,,,,,,,
,,,,,,00095,2023-11-22_17h00.05.396,vbt_B2_day2,2022.2.4,Win32,59.95203837,,,,,,,0.048611111,-0.130787037,1,0,0,0.299,0,17,17,19,1,t,images/br_t.png,images/cb_t.png,,,,,,,,,,,,,,,,,,,,,,,,,,,,,,,,,,,,,,,,,,,,,,,
,,,,,,00095,2023-11-22_17h00.05.396,vbt_B2_day2,2022.2.4,Win32,59.95203837,,,,,,,0.064814815,-0.144675926,1,0,0,0.299,0,18,18,20,1,u,images/br_u.png,images/cb_u.png,,,,,,,,,,,,,,,,,,,,,,,,,,,,,,,,,,,,,,,,,,,,,,,
,,,,,,00095,2023-11-22_17h00.05.396,vbt_B2_day2,2022.2.4,Win32,59.95203837,,,,,,,0.091435185,-0.166666667,1,0,0,0.601,0,19,19,10,1,k,images/br_k.png,images/cb_k.png,,,,,,,,,,,,,,,,,,,,,,,,,,,,,,,,,,,,,,,,,,,,,,,
,,,,,,00095,2023-11-22_17h00.05.396,vbt_B2_day2,2022.2.4,Win32,59.95203837,,,,,,,0.064814815,-0.148148148,1,0,0,1.433,0,20,20,9,1,j,images/br_j.png,images/cb_j.png,,,,,,,,,,,,,,,,,,,,,,,,,,,,,,,,,,,,,,,,,,,,,,,
,,,,,,00095,2023-11-22_17h00.05.396,vbt_B2_day2,2022.2.4,Win32,59.95203837,,,,,,,0.063657407,-0.137731481,1,0,0,0.115,0,21,21,23,1,x,images/br_x.png,images/cb_x.png,,,,,,,,,,,,,,,,,,,,,,,,,,,,,,,,,,,,,,,,,,,,,,,
,,,,,,00095,2023-11-22_17h00.05.396,vbt_B2_day2,2022.2.4,Win32,59.95203837,,,,,,,0.053240741,-0.127314815,1,0,0,0.033,0,22,22,11,1,l,images/br_l.png,images/cb_l.png,,,,,,,,,,,,,,,,,,,,,,,,,,,,,,,,,,,,,,,,,,,,,,,
,,,,,,00095,2023-11-22_17h00.05.396,vbt_B2_day2,2022.2.4,Win32,59.95203837,,,,,,,0.052083333,-0.127314815,1,0,0,0.234,0,23,23,8,1,i,images/br_i.png,images/cb_i.png,,,,,,,,,,,,,,,,,,,,,,,,,,,,,,,,,,,,,,,,,,,,,,,
,,,,,,00095,2023-11-22_17h00.05.396,vbt_B2_day2,2022.2.4,Win32,59.95203837,,,,,,,0.034722222,-0.123842593,1,0,0,0.184,0,24,24,21,1,v,images/br_v.png,images/cb_v.png,,,,,,,,,,,,,,,,,,,,,,,,,,,,,,,,,,,,,,,,,,,,,,,
,,,,,,00095,2023-11-22_17h00.05.396,vbt_B2_day2,2022.2.4,Win32,59.95203837,,,,,,,0.041666667,-0.09837963,1,0,0,0.4,0,25,25,25,1,z,images/br_z.png,images/cb_z.png,,,,,,,,,,,,,,,,,,,,,,,,,,,,,,,,,,,,,,,,,,,,,,,
,,,,,,00095,2023-11-22_17h00.05.396,vbt_B2_day2,2022.2.4,Win32,59.95203837,,,,,,,,,,,,,,,,,,,,,0.086805556,-0.127314815,1,0,0,15.178,,,,,,,,,,,,,,,,,,,,,,,,,,,,,,,,,,,,,,,,,
,,,,,,00095,2023-11-22_17h00.05.396,vbt_B2_day2,2022.2.4,Win32,59.95203837,,,,,,,,,,,,,,,,,,,,,,,,,,,down,0,3.683,,0.085648148,-0.12962963,1,0,0,2.667,0,0,0,28,1,stal,images/br_stal.png,images/cb_stal.png,0,,,,,,,,,,,,,,,,,,,,,,
,,,,,,00095,2023-11-22_17h00.05.396,vbt_B2_day2,2022.2.4,Win32,59.95203837,,,,,,,,,,,,,,,,,,,,,,,,,,,down,0,3.333,,0.040509259,-0.12962963,1,0,0,1.082,0,1,1,173,1,apparaat,images/br_apparaat.png,images/cb_apparaat.png,0,,,,,,,,,,,,,,,,,,,,,,
,,,,,,00095,2023-11-22_17h00.05.396,vbt_B2_day2,2022.2.4,Win32,59.95203837,,,,,,,,,,,,,,,,,,,,,,,,,,,down,0,9.237,,0.333333333,-0.240740741,1,0,0,1.098,0,2,2,18,1,blik,images/br_blik.png,images/cb_blik.png,1,blikblik,,,,,,,,,,,,,,,,,,,,,
,,,,,,00095,2023-11-22_17h00.05.396,vbt_B2_day2,2022.2.4,Win32,59.95203837,,,,,,,,,,,,,,,,,,,,,,,,,,,down,0,4.551,,0.101851852,-0.136574074,1,0,0,0.9,0,3,3,74,1,graaf,images/br_graaf.png,images/cb_graaf.png,0,,,,,,,,,,,,,,,,,,,,,,
,,,,,,00095,2023-11-22_17h00.05.396,vbt_B2_day2,2022.2.4,Win32,59.95203837,,,,,,,,,,,,,,,,,,,,,,,,,,,down,0,4.834,,0.082175926,-0.136574074,1,0,0,0.55,0,4,4,54,1,gebit,images/br_gebit.png,images/cb_gebit.png,0,,,,,,,,,,,,,,,,,,,,,,
,,,,,,00095,2023-11-22_17h00.05.396,vbt_B2_day2,2022.2.4,Win32,59.95203837,,,,,,,,,,,,,,,,,,,,,,,,,,,down,0,3.984,,0.082175926,-0.136574074,1,0,0,0.801,0,5,5,71,1,bever,images/br_bever.png,images/cb_bever.png,0,,,,,,,,,,,,,,,,,,,,,,
,,,,,,00095,2023-11-22_17h00.05.396,vbt_B2_day2,2022.2.4,Win32,59.95203837,,,,,,,,,,,,,,,,,,,,,,,,,,,down,0,3.103,,0.079861111,-0.136574074,1,0,0,1.117,0,6,6,49,1,laken,images/br_laken.png,images/cb_laken.png,0,,,,,,,,,,,,,,,,,,,,,,
,,,,,,00095,2023-11-22_17h00.05.396,vbt_B2_day2,2022.2.4,Win32,59.95203837,,,,,,,,,,,,,,,,,,,,,,,,,,,down,0,6.101,,0.079861111,-0.136574074,1,0,0,0.667,0,7,7,157,1,uitlaat,images/br_uitlaat.png,images/cb_uitlaat.png,0,,,,,,,,,,,,,,,,,,,,,,
,,,,,,00095,2023-11-22_17h00.05.396,vbt_B2_day2,2022.2.4,Win32,59.95203837,,,,,,,,,,,,,,,,,,,,,,,,,,,down,0,3.285,,0.079861111,-0.136574074,1,0,0,0.7,0,8,8,110,1,zuster,images/br_zuster.png,images/cb_zuster.png,0,,,,,,,,,,,,,,,,,,,,,,
,,,,,,00095,2023-11-22_17h00.05.396,vbt_B2_day2,2022.2.4,Win32,59.95203837,,,,,,,,,,,,,,,,,,,,,,,,,,,down,0,3.317,,0.071759259,-0.137731481,1,0,0,1.083,0,9,9,141,1,knielen,images/br_knielen.png,images/cb_knielen.png,0,,,,,,,,,,,,,,,,,,,,,,
,,,,,,00095,2023-11-22_17h00.05.396,vbt_B2_day2,2022.2.4,Win32,59.95203837,,,,,,,,,,,,,,,,,,,,,,,,,,,down,0,8.401,,0.071759259,-0.137731481,1,0,0,0.6,0,10,10,165,1,feestdag,images/br_feestdag.png,images/cb_feestdag.png,0,,,,,,,,,,,,,,,,,,,,,,
,,,,,,00095,2023-11-22_17h00.05.396,vbt_B2_day2,2022.2.4,Win32,59.95203837,,,,,,,,,,,,,,,,,,,,,,,,,,,down,0,3.068,,0.071759259,-0.137731481,1,0,0,0.75,0,11,11,43,1,klauw,images/br_klauw.png,images/cb_klauw.png,0,,,,,,,,,,,,,,,,,,,,,,
,,,,,,00095,2023-11-22_17h00.05.396,vbt_B2_day2,2022.2.4,Win32,59.95203837,,,,,,,,,,,,,,,,,,,,,,,,,,,down,0,4.118,,0.013888889,-0.298611111,1,0,0,0.857,0,12,12,19,1,geit,images/br_geit.png,images/cb_geit.png,1,geit,,,,,,,,,,,,,,,,,,,,,
,,,,,,00095,2023-11-22_17h00.05.396,vbt_B2_day2,2022.2.4,Win32,59.95203837,,,,,,,,,,,,,,,,,,,,,,,,,,,down,0,5.507,,0.013888889,-0.298611111,1,0,0,0.716,0,13,13,189,1,aanraden,images/br_aanraden.png,images/cb_aanraden.png,0,,,,,,,,,,,,,,,,,,,,,,
,,,,,,00095,2023-11-22_17h00.05.396,vbt_B2_day2,2022.2.4,Win32,59.95203837,,,,,,,,,,,,,,,,,,,,,,,,,,,down,0,4.983,,0.013888889,-0.298611111,1,0,0,0.7,0,14,14,127,1,doodmoe,images/br_doodmoe.png,images/cb_doodmoe.png,0,,,,,,,,,,,,,,,,,,,,,,
,,,,,,00095,2023-11-22_17h00.05.396,vbt_B2_day2,2022.2.4,Win32,59.95203837,,,,,,,,,,,,,,,,,,,,,,,,,,,down,0,4.658,,0.015046296,-0.298611111,1,0,0,0.516,0,15,15,104,1,zweven,images/br_zweven.png,images/cb_zweven.png,0,,,,,,,,,,,,,,,,,,,,,,
,,,,,,00095,2023-11-22_17h00.05.396,vbt_B2_day2,2022.2.4,Win32,59.95203837,,,,,,,,,,,,,,,,,,,,,,,,,,,down,0,3.767,,0.078703704,-0.280092593,1,0,0,0.858,0,16,16,58,1,tekst,images/br_tekst.png,images/cb_tekst.png,1,tekst,,,,,,,,,,,,,,,,,,,,,
,,,,,,00095,2023-11-22_17h00.05.396,vbt_B2_day2,2022.2.4,Win32,59.95203837,,,,,,,,,,,,,,,,,,,,,,,,,,,down,0,4.602,,0.084490741,-0.277777778,1,0,0,0.65,0,17,17,191,1,opheffen,images/br_opheffen.png,images/cb_opheffen.png,0,,,,,,,,,,,,,,,,,,,,,,
,,,,,,00095,2023-11-22_17h00.05.396,vbt_B2_day2,2022.2.4,Win32,59.95203837,,,,,,,,,,,,,,,,,,,,,,,,,,,down,0,2.334,,0.084490741,-0.277777778,1,0,0,0.668,0,18,18,47,1,kabel,images/br_kabel.png,images/cb_kabel.png,0,,,,,,,,,,,,,,,,,,,,,,
,,,,,,00095,2023-11-22_17h00.05.396,vbt_B2_day2,2022.2.4,Win32,59.95203837,,,,,,,,,,,,,,,,,,,,,,,,,,,down,0,3.202,,0.084490741,-0.277777778,1,0,0,0.65,0,19,19,87,1,toeval,images/br_toeval.png,images/cb_toeval.png,0,,,,,,,,,,,,,,,,,,,,,,
,,,,,,00095,2023-11-22_17h00.05.396,vbt_B2_day2,2022.2.4,Win32,59.95203837,,,,,,,,,,,,,,,,,,,,,,,,,,,down,0,5.935,,0.084490741,-0.277777778,1,0,0,0.598,0,20,20,34,1,vorm,images/br_vorm.png,images/cb_vorm.png,0,,,,,,,,,,,,,,,,,,,,,,
,,,,,,00095,2023-11-22_17h00.05.396,vbt_B2_day2,2022.2.4,Win32,59.95203837,,,,,,,,,,,,,,,,,,,,,,,,,,,down,0,4.423,,0.12962963,-0.277777778,1,0,0,0.634,0,21,21,168,1,bisschop,images/br_bisschop.png,images/cb_bisschop.png,0,,,,,,,,,,,,,,,,,,,,,,
,,,,,,00095,2023-11-22_17h00.05.396,vbt_B2_day2,2022.2.4,Win32,59.95203837,,,,,,,,,,,,,,,,,,,,,,,,,,,down,0,9.188,,0.155092593,-0.247685185,1,0,0,2.983,0,22,22,140,1,blijven,images/br_blijven.png,images/cb_blijven.png,0,,,,,,,,,,,,,,,,,,,,,,
,,,,,,00095,2023-11-22_17h00.05.396,vbt_B2_day2,2022.2.4,Win32,59.95203837,,,,,,,,,,,,,,,,,,,,,,,,,,,down,0,1.751,,0.155092593,-0.244212963,1,0,0,0.816,0,23,23,86,1,woning,images/br_woning.png,images/cb_woning.png,0,,,,,,,,,,,,,,,,,,,,,,
,,,,,,00095,2023-11-22_17h00.05.396,vbt_B2_day2,2022.2.4,Win32,59.95203837,,,,,,,,,,,,,,,,,,,,,,,,,,,down,0,0.534,,0.155092593,-0.244212963,1,0,0,0.65,0,24,24,13,1,kaal,images/br_kaal.png,images/cb_kaal.png,0,,,,,,,,,,,,,,,,,,,,,,
,,,,,,00095,2023-11-22_17h00.05.396,vbt_B2_day2,2022.2.4,Win32,59.95203837,,,,,,,,,,,,,,,,,,,,,,,,,,,down,0,2.857,,0.155092593,-0.244212963,1,0,0,0.949,0,25,25,90,1,geluid,images/br_geluid.png,images/cb_geluid.png,0,,,,,,,,,,,,,,,,,,,,,,
,,,,,,00095,2023-11-22_17h00.05.396,vbt_B2_day2,2022.2.4,Win32,59.95203837,,,,,,,,,,,,,,,,,,,,,,,,,,,down,0,2.287,,0.155092593,-0.244212963,1,0,0,0.634,0,26,26,53,1,baron,images/br_baron.png,images/cb_baron.png,0,,,,,,,,,,,,,,,,,,,,,,
,,,,,,00095,2023-11-22_17h00.05.396,vbt_B2_day2,2022.2.4,Win32,59.95203837,,,,,,,,,,,,,,,,,,,,,,,,,,,down,0,11.802,,0.155092593,-0.244212963,1,0,0,0.581,0,27,27,134,1,geliefd,images/br_geliefd.png,images/cb_geliefd.png,0,,,,,,,,,,,,,,,,,,,,,,
,,,,,,00095,2023-11-22_17h00.05.396,vbt_B2_day2,2022.2.4,Win32,59.95203837,,,,,,,,,,,,,,,,,,,,,,,,,,,down,0,3.383,,0.155092593,-0.244212963,1,0,0,0.584,0,28,28,156,1,rechten,images/br_rechten.png,images/cb_rechten.png,0,,,,,,,,,,,,,,,,,,,,,,
,,,,,,00095,2023-11-22_17h00.05.396,vbt_B2_day2,2022.2.4,Win32,59.95203837,,,,,,,,,,,,,,,,,,,,,,,,,,,down,0,13.817,,0.155092593,-0.244212963,1,0,0,0.867,0,29,29,118,1,vinger,images/br_vinger.png,images/cb_vinger.png,0,,,,,,,,,,,,,,,,,,,,,,
,,,,,,00095,2023-11-22_17h00.05.396,vbt_B2_day2,2022.2.4,Win32,59.95203837,,,,,,,,,,,,,,,,,,,,,,,,,,,down,0,3.689,,0.37962963,-0.30787037,1,0,0,0.765,0,30,30,97,1,loyaal,images/br_loyaal.png,images/cb_loyaal.png,1,loyaal,,,,,,,,,,,,,,,,,,,,,
,,,,,,00095,2023-11-22_17h00.05.396,vbt_B2_day2,2022.2.4,Win32,59.95203837,,,,,,,,,,,,,,,,,,,,,,,,,,,down,0,7.217,,0.162037037,-0.233796296,1,0,0,0.55,0,31,31,63,1,flirt,images/br_flirt.png,images/cb_flirt.png,0,,,,,,,,,,,,,,,,,,,,,,
,,,,,,00095,2023-11-22_17h00.05.396,vbt_B2_day2,2022.2.4,Win32,59.95203837,,,,,,,,,,,,,,,,,,,,,,,,,,,down,0,4.117,,0.157407407,-0.203703704,1,0,0,0.768,0,32,32,132,1,grappen,images/br_grappen.png,images/cb_grappen.png,0,,,,,,,,,,,,,,,,,,,,,,
,,,,,,00095,2023-11-22_17h00.05.396,vbt_B2_day2,2022.2.4,Win32,59.95203837,,,,,,,,,,,,,,,,,,,,,,,,,,,down,0,4.917,,0.136574074,-0.144675926,1,0,0,0.917,0,33,33,155,1,gerucht,images/br_gerucht.png,images/cb_gerucht.png,0,,,,,,,,,,,,,,,,,,,,,,
,,,,,,00095,2023-11-22_17h00.05.396,vbt_B2_day2,2022.2.4,Win32,59.95203837,,,,,,,,,,,,,,,,,,,,,,,,,,,down,0,4.436,,0.136574074,-0.141203704,1,0,0,0.736,0,34,34,70,1,ijdel,images/br_ijdel.png,images/cb_ijdel.png,0,,,,,,,,,,,,,,,,,,,,,,
,,,,,,00095,2023-11-22_17h00.05.396,vbt_B2_day2,2022.2.4,Win32,59.95203837,,,,,,,,,,,,,,,,,,,,,,,,,,,down,0,2.523,,0.121527778,-0.125,1,0,0,1.217,0,35,35,52,1,wagon,images/br_wagon.png,images/cb_wagon.png,0,,,,,,,,,,,,,,,,,,,,,,
,,,,,,00095,2023-11-22_17h00.05.396,vbt_B2_day2,2022.2.4,Win32,59.95203837,,,,,,,,,,,,,,,,,,,,,,,,,,,down,0,1.807,,0.071759259,-0.152777778,1,0,0,0.533,0,36,36,68,1,schat,images/br_schat.png,images/cb_schat.png,0,,,,,,,,,,,,,,,,,,,,,,
,,,,,,00095,2023-11-22_17h00.05.396,vbt_B2_day2,2022.2.4,Win32,59.95203837,,,,,,,,,,,,,,,,,,,,,,,,,,,down,0,1.941,,0.068287037,-0.152777778,1,0,0,0.783,0,37,37,33,1,vlek,images/br_vlek.png,images/cb_vlek.png,0,,,,,,,,,,,,,,,,,,,,,,
,,,,,,00095,2023-11-22_17h00.05.396,vbt_B2_day2,2022.2.4,Win32,59.95203837,,,,,,,,,,,,,,,,,,,,,,,,,,,down,0,4.866,,0.113425926,-0.119212963,1,0,0,0.951,0,38,38,77,1,woede,images/br_woede.png,images/cb_woede.png,0,,,,,,,,,,,,,,,,,,,,,,
,,,,,,00095,2023-11-22_17h00.05.396,vbt_B2_day2,2022.2.4,Win32,59.95203837,,,,,,,,,,,,,,,,,,,,,,,,,,,down,0,2.168,,0.113425926,-0.119212963,1,0,0,2.35,0,39,39,81,1,dubbel,images/br_dubbel.png,images/cb_dubbel.png,0,,,,,,,,,,,,,,,,,,,,,,
,,,,,,00095,2023-11-22_17h00.05.396,vbt_B2_day2,2022.2.4,Win32,59.95203837,,,,,,,,,,,,,,,,,,,,,,,,,,,down,0,1.957,,0.082175926,-0.119212963,1,0,0,0.784,0,40,40,11,1,mode,images/br_mode.png,images/cb_mode.png,0,,,,,,,,,,,,,,,,,,,,,,
,,,,,,00095,2023-11-22_17h00.05.396,vbt_B2_day2,2022.2.4,Win32,59.95203837,,,,,,,,,,,,,,,,,,,,,,,,,,,down,0,4.401,,0.081018519,-0.119212963,1,0,0,0.666,0,41,41,105,1,wijlen,images/br_wijlen.png,images/cb_wijlen.png,0,,,,,,,,,,,,,,,,,,,,,,
,,,,,,00095,2023-11-22_17h00.05.396,vbt_B2_day2,2022.2.4,Win32,59.95203837,,,,,,,,,,,,,,,,,,,,,,,,,,,down,0,1.4,,0.071759259,-0.119212963,1,0,0,1.184,0,42,42,25,1,plek,images/br_plek.png,images/cb_plek.png,0,,,,,,,,,,,,,,,,,,,,,,
,,,,,,00095,2023-11-22_17h00.05.396,vbt_B2_day2,2022.2.4,Win32,59.95203837,,,,,,,,,,,,,,,,,,,,,,,,,,,down,0,3.608,,0.070601852,-0.118055556,1,0,0,1.001,0,43,43,133,1,seizoen,images/br_seizoen.png,images/cb_seizoen.png,0,,,,,,,,,,,,,,,,,,,,,,
,,,,,,00095,2023-11-22_17h00.05.396,vbt_B2_day2,2022.2.4,Win32,59.95203837,,,,,,,,,,,,,,,,,,,,,,,,,,,down,0,3.703,,0.071759259,-0.123842593,1,0,0,1.1,0,44,44,131,1,opzicht,images/br_opzicht.png,images/cb_opzicht.png,0,,,,,,,,,,,,,,,,,,,,,,
,,,,,,00095,2023-11-22_17h00.05.396,vbt_B2_day2,2022.2.4,Win32,59.95203837,,,,,,,,,,,,,,,,,,,,,,,,,,,down,0,1.807,,0.071759259,-0.123842593,1,0,0,0.65,0,45,45,2,1,jaar,images/br_jaar.png,images/cb_jaar.png,0,,,,,,,,,,,,,,,,,,,,,,
,,,,,,00095,2023-11-22_17h00.05.396,vbt_B2_day2,2022.2.4,Win32,59.95203837,,,,,,,,,,,,,,,,,,,,,,,,,,,down,0,1.018,,0.071759259,-0.123842593,1,0,0,0.784,0,46,46,29,1,baas,images/br_baas.png,images/cb_baas.png,0,,,,,,,,,,,,,,,,,,,,,,
,,,,,,00095,2023-11-22_17h00.05.396,vbt_B2_day2,2022.2.4,Win32,59.95203837,,,,,,,,,,,,,,,,,,,,,,,,,,,down,0,1.539,,0.071759259,-0.123842593,1,0,0,0.783,0,47,47,62,1,knaap,images/br_knaap.png,images/cb_knaap.png,0,,,,,,,,,,,,,,,,,,,,,,
,,,,,,00095,2023-11-22_17h00.05.396,vbt_B2_day2,2022.2.4,Win32,59.95203837,,,,,,,,,,,,,,,,,,,,,,,,,,,down,0,16.767,,0.326388889,-0.122685185,1,0,0,0.774,0,48,48,136,1,waarbij,images/br_waarbij.png,images/cb_waarbij.png,1,waarbij,,,,,,,,,,,,,,,,,,,,,
,,,,,,00095,2023-11-22_17h00.05.396,vbt_B2_day2,2022.2.4,Win32,59.95203837,,,,,,,,,,,,,,,,,,,,,,,,,,,down,0,5.668,,0.180555556,-0.103009259,1,0,0,0.933,0,49,49,107,1,maling,images/br_maling.png,images/cb_maling.png,0,,,,,,,,,,,,,,,,,,,,,,
,,,,,,00095,2023-11-22_17h00.05.396,vbt_B2_day2,2022.2.4,Win32,59.95203837,,,,,,,,,,,,,,,,,,,,,,,,,,,down,0,3.221,,0.09837963,-0.1875,1,0,0,1.382,0,50,50,8,1,knie,images/br_knie.png,images/cb_knie.png,0,,,,,,,,,,,,,,,,,,,,,,
,,,,,,00095,2023-11-22_17h00.05.396,vbt_B2_day2,2022.2.4,Win32,59.95203837,,,,,,,,,,,,,,,,,,,,,,,,,,,down,0,2.168,,0.113425926,-0.157407407,1,0,0,0.917,0,51,51,89,1,slapen,images/br_slapen.png,images/cb_slapen.png,0,,,,,,,,,,,,,,,,,,,,,,
,,,,,,00095,2023-11-22_17h00.05.396,vbt_B2_day2,2022.2.4,Win32,59.95203837,,,,,,,,,,,,,,,,,,,,,,,,,,,down,0,5.751,,0.113425926,-0.155092593,1,0,0,0.933,0,52,52,198,1,bedoelen,images/br_bedoelen.png,images/cb_bedoelen.png,0,,,,,,,,,,,,,,,,,,,,,,
,,,,,,00095,2023-11-22_17h00.05.396,vbt_B2_day2,2022.2.4,Win32,59.95203837,,,,,,,,,,,,,,,,,,,,,,,,,,,down,0,1.822,,0.113425926,-0.155092593,1,0,0,0.799,0,53,53,144,1,eetlust,images/br_eetlust.png,images/cb_eetlust.png,0,,,,,,,,,,,,,,,,,,,,,,
,,,,,,00095,2023-11-22_17h00.05.396,vbt_B2_day2,2022.2.4,Win32,59.95203837,,,,,,,,,,,,,,,,,,,,,,,,,,,down,0,4.355,,0.113425926,-0.155092593,1,0,0,1.65,0,54,54,1,1,zaal,images/br_zaal.png,images/cb_zaal.png,0,,,,,,,,,,,,,,,,,,,,,,
,,,,,,00095,2023-11-22_17h00.05.396,vbt_B2_day2,2022.2.4,Win32,59.95203837,,,,,,,,,,,,,,,,,,,,,,,,,,,down,0,2.452,,0.113425926,-0.16087963,1,0,0,1.233,0,55,55,148,1,smullen,images/br_smullen.png,images/cb_smullen.png,0,,,,,,,,,,,,,,,,,,,,,,
,,,,,,00095,2023-11-22_17h00.05.396,vbt_B2_day2,2022.2.4,Win32,59.95203837,,,,,,,,,,,,,,,,,,,,,,,,,,,down,0,3.152,,0.100694444,-0.230324074,1,0,0,0.741,0,56,56,59,1,kring,images/br_kring.png,images/cb_kring.png,1,kring,,,,,,,,,,,,,,,,,,,,,
,,,,,,00095,2023-11-22_17h00.05.396,vbt_B2_day2,2022.2.4,Win32,59.95203837,,,,,,,,,,,,,,,,,,,,,,,,,,,down,0,2.023,,0.100694444,-0.230324074,1,0,0,0.533,0,57,57,3,1,mand,images/br_mand.png,images/cb_mand.png,0,,,,,,,,,,,,,,,,,,,,,,
,,,,,,00095,2023-11-22_17h00.05.396,vbt_B2_day2,2022.2.4,Win32,59.95203837,,,,,,,,,,,,,,,,,,,,,,,,,,,down,0,5.286,,0.181712963,-0.158564815,1,0,0,0.799,0,58,58,116,1,besmet,images/br_besmet.png,images/cb_besmet.png,0,,,,,,,,,,,,,,,,,,,,,,
,,,,,,00095,2023-11-22_17h00.05.396,vbt_B2_day2,2022.2.4,Win32,59.95203837,,,,,,,,,,,,,,,,,,,,,,,,,,,down,0,5.571,,0.181712963,-0.158564815,1,0,0,0.616,0,59,59,159,1,sufferd,images/br_sufferd.png,images/cb_sufferd.png,0,,,,,,,,,,,,,,,,,,,,,,
,,,,,,00095,2023-11-22_17h00.05.396,vbt_B2_day2,2022.2.4,Win32,59.95203837,,,,,,,,,,,,,,,,,,,,,,,,,,,down,0,3.537,,0.199074074,-0.144675926,1,0,0,0.833,0,60,60,177,1,maaltijd,images/br_maaltijd.png,images/cb_maaltijd.png,1,maaltijd,,,,,,,,,,,,,,,,,,,,,
,,,,,,00095,2023-11-22_17h00.05.396,vbt_B2_day2,2022.2.4,Win32,59.95203837,,,,,,,,,,,,,,,,,,,,,,,,,,,down,0,6.101,,0.200231481,-0.142361111,1,0,0,0.74,0,61,61,176,1,techniek,images/br_techniek.png,images/cb_techniek.png,1,techniek,,,,,,,,,,,,,,,,,,,,,
,,,,,,00095,2023-11-22_17h00.05.396,vbt_B2_day2,2022.2.4,Win32,59.95203837,,,,,,,,,,,,,,,,,,,,,,,,,,,down,0,7.098,,0.197916667,-0.142361111,1,0,0,0.75,0,62,62,182,1,bijkomen,images/br_bijkomen.png,images/cb_bijkomen.png,0,,,,,,,,,,,,,,,,,,,,,,
,,,,,,00095,2023-11-22_17h00.05.396,vbt_B2_day2,2022.2.4,Win32,59.95203837,,,,,,,,,,,,,,,,,,,,,,,,,,,down,0,13.1,,0.197916667,-0.142361111,1,0,0,0.666,0,63,63,185,1,mijnheer,images/br_mijnheer.png,images/cb_mijnheer.png,0,,,,,,,,,,,,,,,,,,,,,,
,,,,,,00095,2023-11-22_17h00.05.396,vbt_B2_day2,2022.2.4,Win32,59.95203837,,,,,,,,,,,,,,,,,,,,,,,,,,,down,0,2.15,,0.168981481,-0.150462963,1,0,0,0.783,0,64,64,21,1,mist,images/br_mist.png,images/cb_mist.png,0,,,,,,,,,,,,,,,,,,,,,,
,,,,,,00095,2023-11-22_17h00.05.396,vbt_B2_day2,2022.2.4,Win32,59.95203837,,,,,,,,,,,,,,,,,,,,,,,,,,,down,0,5.966,,0.12962963,-0.150462963,1,0,0,0.683,0,65,65,145,1,invloed,images/br_invloed.png,images/cb_invloed.png,0,,,,,,,,,,,,,,,,,,,,,,
,,,,,,00095,2023-11-22_17h00.05.396,vbt_B2_day2,2022.2.4,Win32,59.95203837,,,,,,,,,,,,,,,,,,,,,,,,,,,down,0,3.105,,0.12962963,-0.150462963,1,0,0,0.882,0,66,66,67,1,zwart,images/br_zwart.png,images/cb_zwart.png,0,,,,,,,,,,,,,,,,,,,,,,
,,,,,,00095,2023-11-22_17h00.05.396,vbt_B2_day2,2022.2.4,Win32,59.95203837,,,,,,,,,,,,,,,,,,,,,,,,,,,down,0,2.804,,0.107638889,-0.143518519,1,0,0,0.85,0,67,67,192,1,schaamte,images/br_schaamte.png,images/cb_schaamte.png,0,,,,,,,,,,,,,,,,,,,,,,
,,,,,,00095,2023-11-22_17h00.05.396,vbt_B2_day2,2022.2.4,Win32,59.95203837,,,,,,,,,,,,,,,,,,,,,,,,,,,down,0,0.941,,0.107638889,-0.143518519,1,0,0,1.018,0,68,68,109,1,totaal,images/br_totaal.png,images/cb_totaal.png,0,,,,,,,,,,,,,,,,,,,,,,
,,,,,,00095,2023-11-22_17h00.05.396,vbt_B2_day2,2022.2.4,Win32,59.95203837,,,,,,,,,,,,,,,,,,,,,,,,,,,down,0,0.8,,0.101851852,-0.143518519,1,0,0,0.982,0,69,69,32,1,palm,images/br_palm.png,images/cb_palm.png,0,,,,,,,,,,,,,,,,,,,,,,
,,,,,,00095,2023-11-22_17h00.05.396,vbt_B2_day2,2022.2.4,Win32,59.95203837,,,,,,,,,,,,,,,,,,,,,,,,,,,down,0,1.734,,0.106481481,-0.136574074,1,0,0,1.984,0,70,70,85,1,heilig,images/br_heilig.png,images/cb_heilig.png,0,,,,,,,,,,,,,,,,,,,,,,
,,,,,,00095,2023-11-22_17h00.05.396,vbt_B2_day2,2022.2.4,Win32,59.95203837,,,,,,,,,,,,,,,,,,,,,,,,,,,down,0,7.622,,0.106481481,-0.136574074,1,0,0,4.335,0,71,71,152,1,afnemen,images/br_afnemen.png,images/cb_afnemen.png,0,,,,,,,,,,,,,,,,,,,,,,
,,,,,,00095,2023-11-22_17h00.05.396,vbt_B2_day2,2022.2.4,Win32,59.95203837,,,,,,,,,,,,,,,,,,,,,,,,,,,down,0,10.818,,0.106481481,-0.136574074,1,0,0,0.599,0,72,72,108,1,excuus,images/br_excuus.png,images/cb_excuus.png,0,,,,,,,,,,,,,,,,,,,,,,
,,,,,,00095,2023-11-22_17h00.05.396,vbt_B2_day2,2022.2.4,Win32,59.95203837,,,,,,,,,,,,,,,,,,,,,,,,,,,down,0,4.256,,0.076388889,-0.159722222,1,0,0,0.817,0,73,73,75,1,snoep,images/br_snoep.png,images/cb_snoep.png,0,,,,,,,,,,,,,,,,,,,,,,
,,,,,,00095,2023-11-22_17h00.05.396,vbt_B2_day2,2022.2.4,Win32,59.95203837,,,,,,,,,,,,,,,,,,,,,,,,,,,down,0,4.435,,0.108796296,-0.188657407,1,0,0,1.616,0,74,74,48,1,steel,images/br_steel.png,images/cb_steel.png,0,,,,,,,,,,,,,,,,,,,,,,
,,,,,,00095,2023-11-22_17h00.05.396,vbt_B2_day2,2022.2.4,Win32,59.95203837,,,,,,,,,,,,,,,,,,,,,,,,,,,down,0,2.821,,0.097222222,-0.140046296,1,0,0,1.15,0,75,75,79,1,nodig,images/br_nodig.png,images/cb_nodig.png,0,,,,,,,,,,,,,,,,,,,,,,
,,,,,,00095,2023-11-22_17h00.05.396,vbt_B2_day2,2022.2.4,Win32,59.95203837,,,,,,,,,,,,,,,,,,,,,,,,,,,down,0,1.268,,0.084490741,-0.141203704,1,0,0,1.667,0,76,76,51,1,samen,images/br_samen.png,images/cb_samen.png,0,,,,,,,,,,,,,,,,,,,,,,
,,,,,,00095,2023-11-22_17h00.05.396,vbt_B2_day2,2022.2.4,Win32,59.95203837,,,,,,,,,,,,,,,,,,,,,,,,,,,down,0,3.256,,0.082175926,-0.141203704,1,0,0,0.768,0,77,77,197,1,spanning,images/br_spanning.png,images/cb_spanning.png,0,,,,,,,,,,,,,,,,,,,,,,
,,,,,,00095,2023-11-22_17h00.05.396,vbt_B2_day2,2022.2.4,Win32,59.95203837,,,,,,,,,,,,,,,,,,,,,,,,,,,down,0,3.251,,0.210648148,-0.146990741,1,0,0,0.806,0,78,78,138,1,akkoord,images/br_akkoord.png,images/cb_akkoord.png,1,akkoord,,,,,,,,,,,,,,,,,,,,,
,,,,,,00095,2023-11-22_17h00.05.396,vbt_B2_day2,2022.2.4,Win32,59.95203837,,,,,,,,,,,,,,,,,,,,,,,,,,,down,0,2.333,,0.208333333,-0.148148148,1,0,0,0.866,0,79,79,65,1,parel,images/br_parel.png,images/cb_parel.png,0,,,,,,,,,,,,,,,,,,,,,,
,,,,,,00095,2023-11-22_17h00.05.396,vbt_B2_day2,2022.2.4,Win32,59.95203837,,,,,,,,,,,,,,,,,,,,,,,,,,,down,0,4.619,,0.208333333,-0.148148148,1,0,0,0.867,0,80,80,76,1,afval,images/br_afval.png,images/cb_afval.png,0,,,,,,,,,,,,,,,,,,,,,,
,,,,,,00095,2023-11-22_17h00.05.396,vbt_B2_day2,2022.2.4,Win32,59.95203837,,,,,,,,,,,,,,,,,,,,,,,,,,,down,0,5.768,,0.206018519,-0.148148148,1,0,0,7.833,0,81,81,162,1,uitdelen,images/br_uitdelen.png,images/cb_uitdelen.png,0,,,,,,,,,,,,,,,,,,,,,,
,,,,,,00095,2023-11-22_17h00.05.396,vbt_B2_day2,2022.2.4,Win32,59.95203837,,,,,,,,,,,,,,,,,,,,,,,,,,,down,0,2.435,,0.206018519,-0.148148148,1,0,0,1.4,0,82,82,64,1,wegen,images/br_wegen.png,images/cb_wegen.png,0,,,,,,,,,,,,,,,,,,,,,,
,,,,,,00095,2023-11-22_17h00.05.396,vbt_B2_day2,2022.2.4,Win32,59.95203837,,,,,,,,,,,,,,,,,,,,,,,,,,,down,0,3.25,,0.137731481,-0.159722222,1,0,0,1.117,0,83,83,128,1,prikken,images/br_prikken.png,images/cb_prikken.png,0,,,,,,,,,,,,,,,,,,,,,,
,,,,,,00095,2023-11-22_17h00.05.396,vbt_B2_day2,2022.2.4,Win32,59.95203837,,,,,,,,,,,,,,,,,,,,,,,,,,,down,0,2.901,,0.12962963,-0.163194444,1,0,0,2.884,0,84,84,119,1,liefje,images/br_liefje.png,images/cb_liefje.png,0,,,,,,,,,,,,,,,,,,,,,,
,,,,,,00095,2023-11-22_17h00.05.396,vbt_B2_day2,2022.2.4,Win32,59.95203837,,,,,,,,,,,,,,,,,,,,,,,,,,,down,0,2.734,,0.12962963,-0.163194444,1,0,0,0.667,0,85,85,15,1,soda,images/br_soda.png,images/cb_soda.png,0,,,,,,,,,,,,,,,,,,,,,,
,,,,,,00095,2023-11-22_17h00.05.396,vbt_B2_day2,2022.2.4,Win32,59.95203837,,,,,,,,,,,,,,,,,,,,,,,,,,,down,0,4.284,,0.12962963,-0.163194444,1,0,0,0.834,0,86,86,121,1,twijfel,images/br_twijfel.png,images/cb_twijfel.png,0,,,,,,,,,,,,,,,,,,,,,,
,,,,,,00095,2023-11-22_17h00.05.396,vbt_B2_day2,2022.2.4,Win32,59.95203837,,,,,,,,,,,,,,,,,,,,,,,,,,,down,0,5.253,,0.12962963,-0.163194444,1,0,0,1.017,0,87,87,111,1,ticket,images/br_ticket.png,images/cb_ticket.png,0,,,,,,,,,,,,,,,,,,,,,,
,,,,,,00095,2023-11-22_17h00.05.396,vbt_B2_day2,2022.2.4,Win32,59.95203837,,,,,,,,,,,,,,,,,,,,,,,,,,,down,0,8.502,,0.12962963,-0.163194444,1,0,0,1.017,0,88,88,161,1,attentie,images/br_attentie.png,images/cb_attentie.png,0,,,,,,,,,,,,,,,,,,,,,,
,,,,,,00095,2023-11-22_17h00.05.396,vbt_B2_day2,2022.2.4,Win32,59.95203837,,,,,,,,,,,,,,,,,,,,,,,,,,,down,0,0.401,,0.076388889,-0.164351852,1,0,0,0.8,0,89,89,0,1,slak,images/br_slak.png,images/cb_slak.png,0,,,,,,,,,,,,,,,,,,,,,,
,,,,,,00095,2023-11-22_17h00.05.396,vbt_B2_day2,2022.2.4,Win32,59.95203837,,,,,,,,,,,,,,,,,,,,,,,,,,,down,0,2.917,,0.077546296,-0.150462963,1,0,0,0.816,0,90,90,186,1,voorraad,images/br_voorraad.png,images/cb_voorraad.png,0,,,,,,,,,,,,,,,,,,,,,,
,,,,,,00095,2023-11-22_17h00.05.396,vbt_B2_day2,2022.2.4,Win32,59.95203837,,,,,,,,,,,,,,,,,,,,,,,,,,,down,0,1.666,,0.184027778,-0.197916667,1,0,0,1.091,0,91,91,57,1,steek,images/br_steek.png,images/cb_steek.png,1,steek,,,,,,,,,,,,,,,,,,,,,
,,,,,,00095,2023-11-22_17h00.05.396,vbt_B2_day2,2022.2.4,Win32,59.95203837,,,,,,,,,,,,,,,,,,,,,,,,,,,down,0,3.568,,0.184027778,-0.197916667,1,0,0,0.667,0,92,92,160,1,daarheen,images/br_daarheen.png,images/cb_daarheen.png,0,,,,,,,,,,,,,,,,,,,,,,
,,,,,,00095,2023-11-22_17h00.05.396,vbt_B2_day2,2022.2.4,Win32,59.95203837,,,,,,,,,,,,,,,,,,,,,,,,,,,down,0,1.866,,0.175925926,-0.194444444,1,0,0,1.082,0,93,93,126,1,kasteel,images/br_kasteel.png,images/cb_kasteel.png,0,,,,,,,,,,,,,,,,,,,,,,
,,,,,,00095,2023-11-22_17h00.05.396,vbt_B2_day2,2022.2.4,Win32,59.95203837,,,,,,,,,,,,,,,,,,,,,,,,,,,down,0,6.286,,0.178240741,-0.193287037,1,0,0,1.049,0,94,94,158,1,innemen,images/br_innemen.png,images/cb_innemen.png,0,,,,,,,,,,,,,,,,,,,,,,
,,,,,,00095,2023-11-22_17h00.05.396,vbt_B2_day2,2022.2.4,Win32,59.95203837,,,,,,,,,,,,,,,,,,,,,,,,,,,down,0,6.701,,0.155092593,-0.163194444,1,0,0,1.049,0,95,95,175,1,heengaan,images/br_heengaan.png,images/cb_heengaan.png,0,,,,,,,,,,,,,,,,,,,,,,
,,,,,,00095,2023-11-22_17h00.05.396,vbt_B2_day2,2022.2.4,Win32,59.95203837,,,,,,,,,,,,,,,,,,,,,,,,,,,down,0,4.008,,0.170138889,-0.155092593,1,0,0,0.817,0,96,96,137,1,trekker,images/br_trekker.png,images/cb_trekker.png,1,trekker,,,,,,,,,,,,,,,,,,,,,
,,,,,,00095,2023-11-22_17h00.05.396,vbt_B2_day2,2022.2.4,Win32,59.95203837,,,,,,,,,,,,,,,,,,,,,,,,,,,down,0,3.656,,0.170138889,-0.155092593,1,0,0,0.683,0,97,97,147,1,komisch,images/br_komisch.png,images/cb_komisch.png,0,,,,,,,,,,,,,,,,,,,,,,
,,,,,,00095,2023-11-22_17h00.05.396,vbt_B2_day2,2022.2.4,Win32,59.95203837,,,,,,,,,,,,,,,,,,,,,,,,,,,down,0,4.022,,0.170138889,-0.155092593,1,0,0,0.55,0,98,98,164,1,anarchie,images/br_anarchie.png,images/cb_anarchie.png,0,,,,,,,,,,,,,,,,,,,,,,
,,,,,,00095,2023-11-22_17h00.05.396,vbt_B2_day2,2022.2.4,Win32,59.95203837,,,,,,,,,,,,,,,,,,,,,,,,,,,down,0,4.705,,0.170138889,-0.155092593,1,0,0,0.601,0,99,99,9,1,hier,images/br_hier.png,images/cb_hier.png,0,,,,,,,,,,,,,,,,,,,,,,
,,,,,,00095,2023-11-22_17h00.05.396,vbt_B2_day2,2022.2.4,Win32,59.95203837,,,,,,,,,,,,,,,,,,,,,,,,,,,down,0,4.051,,0.130787037,-0.145833333,1,0,0,0.75,0,100,100,69,1,waken,images/br_waken.png,images/cb_waken.png,0,,,,,,,,,,,,,,,,,,,,,,
,,,,,,00095,2023-11-22_17h00.05.396,vbt_B2_day2,2022.2.4,Win32,59.95203837,,,,,,,,,,,,,,,,,,,,,,,,,,,down,0,3.084,,0.130787037,-0.145833333,1,0,0,0.717,0,101,101,100,1,geduld,images/br_geduld.png,images/cb_geduld.png,0,,,,,,,,,,,,,,,,,,,,,,
,,,,,,00095,2023-11-22_17h00.05.396,vbt_B2_day2,2022.2.4,Win32,59.95203837,,,,,,,,,,,,,,,,,,,,,,,,,,,down,0,4.269,,0.134259259,-0.141203704,1,0,0,0.807,0,102,102,99,1,koffie,images/br_koffie.png,images/cb_koffie.png,1,koffie,,,,,,,,,,,,,,,,,,,,,
,,,,,,00095,2023-11-22_17h00.05.396,vbt_B2_day2,2022.2.4,Win32,59.95203837,,,,,,,,,,,,,,,,,,,,,,,,,,,down,0,1.018,,0.133101852,-0.141203704,1,0,0,0.633,0,103,103,103,1,joggen,images/br_joggen.png,images/cb_joggen.png,0,,,,,,,,,,,,,,,,,,,,,,
,,,,,,00095,2023-11-22_17h00.05.396,vbt_B2_day2,2022.2.4,Win32,59.95203837,,,,,,,,,,,,,,,,,,,,,,,,,,,down,0,0.783,,0.133101852,-0.141203704,1,0,0,0.559,0,104,104,17,1,taal,images/br_taal.png,images/cb_taal.png,1,taal,,,,,,,,,,,,,,,,,,,,,
,,,,,,00095,2023-11-22_17h00.05.396,vbt_B2_day2,2022.2.4,Win32,59.95203837,,,,,,,,,,,,,,,,,,,,,,,,,,,down,0,0.957,,0.133101852,-0.143518519,1,0,0,0.85,0,105,105,20,1,site,images/br_site.png,images/cb_site.png,0,,,,,,,,,,,,,,,,,,,,,,
,,,,,,00095,2023-11-22_17h00.05.396,vbt_B2_day2,2022.2.4,Win32,59.95203837,,,,,,,,,,,,,,,,,,,,,,,,,,,down,0,2.542,,0.131944444,-0.144675926,1,0,0,0.567,0,106,106,72,1,strak,images/br_strak.png,images/cb_strak.png,0,,,,,,,,,,,,,,,,,,,,,,
,,,,,,00095,2023-11-22_17h00.05.396,vbt_B2_day2,2022.2.4,Win32,59.95203837,,,,,,,,,,,,,,,,,,,,,,,,,,,down,0,8.788,,0.131944444,-0.144675926,1,0,0,0.55,0,107,107,80,1,kanjer,images/br_kanjer.png,images/cb_kanjer.png,0,,,,,,,,,,,,,,,,,,,,,,
,,,,,,00095,2023-11-22_17h00.05.396,vbt_B2_day2,2022.2.4,Win32,59.95203837,,,,,,,,,,,,,,,,,,,,,,,,,,,down,0,4.935,,0.118055556,-0.141203704,1,0,0,0.717,0,108,108,187,1,opkijken,images/br_opkijken.png,images/cb_opkijken.png,0,,,,,,,,,,,,,,,,,,,,,,
,,,,,,00095,2023-11-22_17h00.05.396,vbt_B2_day2,2022.2.4,Win32,59.95203837,,,,,,,,,,,,,,,,,,,,,,,,,,,down,0,2.634,,0.122685185,-0.141203704,1,0,0,1.283,0,109,109,22,1,stof,images/br_stof.png,images/cb_stof.png,0,,,,,,,,,,,,,,,,,,,,,,
,,,,,,00095,2023-11-22_17h00.05.396,vbt_B2_day2,2022.2.4,Win32,59.95203837,,,,,,,,,,,,,,,,,,,,,,,,,,,down,0,4.502,,0.113425926,-0.141203704,1,0,0,0.633,0,110,110,183,1,getuigen,images/br_getuigen.png,images/cb_getuigen.png,0,,,,,,,,,,,,,,,,,,,,,,
,,,,,,00095,2023-11-22_17h00.05.396,vbt_B2_day2,2022.2.4,Win32,59.95203837,,,,,,,,,,,,,,,,,,,,,,,,,,,down,0,2.001,,0.100694444,-0.138888889,1,0,0,0.734,0,111,111,27,1,dans,images/br_dans.png,images/cb_dans.png,0,,,,,,,,,,,,,,,,,,,,,,
,,,,,,00095,2023-11-22_17h00.05.396,vbt_B2_day2,2022.2.4,Win32,59.95203837,,,,,,,,,,,,,,,,,,,,,,,,,,,down,0,1.65,,0.099537037,-0.137731481,1,0,0,0.567,0,112,112,42,1,bleek,images/br_bleek.png,images/cb_bleek.png,0,,,,,,,,,,,,,,,,,,,,,,
,,,,,,00095,2023-11-22_17h00.05.396,vbt_B2_day2,2022.2.4,Win32,59.95203837,,,,,,,,,,,,,,,,,,,,,,,,,,,down,0,2.686,,0.12037037,-0.137731481,1,0,0,1.15,0,113,113,125,1,aanzien,images/br_aanzien.png,images/cb_aanzien.png,0,,,,,,,,,,,,,,,,,,,,,,
,,,,,,00095,2023-11-22_17h00.05.396,vbt_B2_day2,2022.2.4,Win32,59.95203837,,,,,,,,,,,,,,,,,,,,,,,,,,,down,0,2.317,,0.090277778,-0.112268519,1,0,0,1.233,0,114,114,40,1,schep,images/br_schep.png,images/cb_schep.png,0,,,,,,,,,,,,,,,,,,,,,,
,,,,,,00095,2023-11-22_17h00.05.396,vbt_B2_day2,2022.2.4,Win32,59.95203837,,,,,,,,,,,,,,,,,,,,,,,,,,,down,0,3.55,,0.08912037,-0.112268519,1,0,0,0.666,0,115,115,113,1,koppen,images/br_koppen.png,images/cb_koppen.png,0,,,,,,,,,,,,,,,,,,,,,,
,,,,,,00095,2023-11-22_17h00.05.396,vbt_B2_day2,2022.2.4,Win32,59.95203837,,,,,,,,,,,,,,,,,,,,,,,,,,,down,0,3.486,,0.087962963,-0.112268519,1,0,0,0.8,0,116,116,14,1,rijp,images/br_rijp.png,images/cb_rijp.png,0,,,,,,,,,,,,,,,,,,,,,,
,,,,,,00095,2023-11-22_17h00.05.396,vbt_B2_day2,2022.2.4,Win32,59.95203837,,,,,,,,,,,,,,,,,,,,,,,,,,,down,0,4.167,,0.087962963,-0.112268519,1,0,0,0.633,0,117,117,199,1,beseffen,images/br_beseffen.png,images/cb_beseffen.png,0,,,,,,,,,,,,,,,,,,,,,,
,,,,,,00095,2023-11-22_17h00.05.396,vbt_B2_day2,2022.2.4,Win32,59.95203837,,,,,,,,,,,,,,,,,,,,,,,,,,,down,0,4.584,,0.087962963,-0.112268519,1,0,0,0.75,0,118,118,166,1,strikken,images/br_strikken.png,images/cb_strikken.png,0,,,,,,,,,,,,,,,,,,,,,,
,,,,,,00095,2023-11-22_17h00.05.396,vbt_B2_day2,2022.2.4,Win32,59.95203837,,,,,,,,,,,,,,,,,,,,,,,,,,,down,0,1.225,,0.087962963,-0.112268519,1,0,0,0.717,0,119,119,84,1,lokken,images/br_lokken.png,images/cb_lokken.png,0,,,,,,,,,,,,,,,,,,,,,,
,,,,,,00095,2023-11-22_17h00.05.396,vbt_B2_day2,2022.2.4,Win32,59.95203837,,,,,,,,,,,,,,,,,,,,,,,,,,,down,0,3.855,,0.087962963,-0.112268519,1,0,0,0.617,0,120,120,190,1,goedkoop,images/br_goedkoop.png,images/cb_goedkoop.png,0,,,,,,,,,,,,,,,,,,,,,,
,,,,,,00095,2023-11-22_17h00.05.396,vbt_B2_day2,2022.2.4,Win32,59.95203837,,,,,,,,,,,,,,,,,,,,,,,,,,,down,0,3.55,,0.087962963,-0.112268519,1,0,0,0.667,0,121,121,180,1,openbaar,images/br_openbaar.png,images/cb_openbaar.png,0,,,,,,,,,,,,,,,,,,,,,,
,,,,,,00095,2023-11-22_17h00.05.396,vbt_B2_day2,2022.2.4,Win32,59.95203837,,,,,,,,,,,,,,,,,,,,,,,,,,,down,0,2.223,,0.086805556,-0.113425926,1,0,0,0.733,0,122,122,122,1,waarvan,images/br_waarvan.png,images/cb_waarvan.png,0,,,,,,,,,,,,,,,,,,,,,,
,,,,,,00095,2023-11-22_17h00.05.396,vbt_B2_day2,2022.2.4,Win32,59.95203837,,,,,,,,,,,,,,,,,,,,,,,,,,,down,0,6.068,,0.086805556,-0.113425926,1,0,0,0.99,0,123,123,56,1,traag,images/br_traag.png,images/cb_traag.png,1,traag,,,,,,,,,,,,,,,,,,,,,
,,,,,,00095,2023-11-22_17h00.05.396,vbt_B2_day2,2022.2.4,Win32,59.95203837,,,,,,,,,,,,,,,,,,,,,,,,,,,down,0,2.789,,0.086805556,-0.119212963,1,0,0,0.767,0,124,124,169,1,oprotten,images/br_oprotten.png,images/cb_oprotten.png,0,,,,,,,,,,,,,,,,,,,,,,
,,,,,,00095,2023-11-22_17h00.05.396,vbt_B2_day2,2022.2.4,Win32,59.95203837,,,,,,,,,,,,,,,,,,,,,,,,,,,down,0,1.785,,0.086805556,-0.119212963,1,0,0,0.667,0,125,125,151,1,aanzoek,images/br_aanzoek.png,images/cb_aanzoek.png,0,,,,,,,,,,,,,,,,,,,,,,
,,,,,,00095,2023-11-22_17h00.05.396,vbt_B2_day2,2022.2.4,Win32,59.95203837,,,,,,,,,,,,,,,,,,,,,,,,,,,down,0,2.702,,0.091435185,-0.127314815,1,0,0,0.634,0,126,126,41,1,maken,images/br_maken.png,images/cb_maken.png,0,,,,,,,,,,,,,,,,,,,,,,
,,,,,,00095,2023-11-22_17h00.05.396,vbt_B2_day2,2022.2.4,Win32,59.95203837,,,,,,,,,,,,,,,,,,,,,,,,,,,down,0,2.606,,0.091435185,-0.127314815,1,0,0,0.65,0,127,127,174,1,stemming,images/br_stemming.png,images/cb_stemming.png,0,,,,,,,,,,,,,,,,,,,,,,
,,,,,,00095,2023-11-22_17h00.05.396,vbt_B2_day2,2022.2.4,Win32,59.95203837,,,,,,,,,,,,,,,,,,,,,,,,,,,down,0,2.55,,0.091435185,-0.127314815,1,0,0,1.268,0,128,128,172,1,weigeren,images/br_weigeren.png,images/cb_weigeren.png,0,,,,,,,,,,,,,,,,,,,,,,
,,,,,,00095,2023-11-22_17h00.05.396,vbt_B2_day2,2022.2.4,Win32,59.95203837,,,,,,,,,,,,,,,,,,,,,,,,,,,down,0,7.235,,0.091435185,-0.127314815,1,0,0,0.884,0,129,129,196,1,nakijken,images/br_nakijken.png,images/cb_nakijken.png,0,,,,,,,,,,,,,,,,,,,,,,
,,,,,,00095,2023-11-22_17h00.05.396,vbt_B2_day2,2022.2.4,Win32,59.95203837,,,,,,,,,,,,,,,,,,,,,,,,,,,down,0,5.673,,0.091435185,-0.127314815,1,0,0,0.6,0,130,130,106,1,zingen,images/br_zingen.png,images/cb_zingen.png,0,,,,,,,,,,,,,,,,,,,,,,
,,,,,,00095,2023-11-22_17h00.05.396,vbt_B2_day2,2022.2.4,Win32,59.95203837,,,,,,,,,,,,,,,,,,,,,,,,,,,down,0,2.103,,0.047453704,-0.134259259,1,0,0,0.767,0,131,131,45,1,piste,images/br_piste.png,images/cb_piste.png,0,,,,,,,,,,,,,,,,,,,,,,
,,,,,,00095,2023-11-22_17h00.05.396,vbt_B2_day2,2022.2.4,Win32,59.95203837,,,,,,,,,,,,,,,,,,,,,,,,,,,down,0,3.367,,0.047453704,-0.134259259,1,0,0,0.65,0,132,132,101,1,staren,images/br_staren.png,images/cb_staren.png,0,,,,,,,,,,,,,,,,,,,,,,
,,,,,,00095,2023-11-22_17h00.05.396,vbt_B2_day2,2022.2.4,Win32,59.95203837,,,,,,,,,,,,,,,,,,,,,,,,,,,down,0,2.572,,0.047453704,-0.134259259,1,0,0,0.6,0,133,133,139,1,stiekem,images/br_stiekem.png,images/cb_stiekem.png,1,stiekem,,,,,,,,,,,,,,,,,,,,,
,,,,,,00095,2023-11-22_17h00.05.396,vbt_B2_day2,2022.2.4,Win32,59.95203837,,,,,,,,,,,,,,,,,,,,,,,,,,,down,0,0.867,,0.047453704,-0.134259259,1,0,0,0.584,0,134,134,10,1,leek,images/br_leek.png,images/cb_leek.png,0,,,,,,,,,,,,,,,,,,,,,,
,,,,,,00095,2023-11-22_17h00.05.396,vbt_B2_day2,2022.2.4,Win32,59.95203837,,,,,,,,,,,,,,,,,,,,,,,,,,,down,0,3.534,,0.050925926,-0.136574074,1,0,0,0.6,0,135,135,143,1,hechten,images/br_hechten.png,images/cb_hechten.png,0,,,,,,,,,,,,,,,,,,,,,,
,,,,,,00095,2023-11-22_17h00.05.396,vbt_B2_day2,2022.2.4,Win32,59.95203837,,,,,,,,,,,,,,,,,,,,,,,,,,,down,0,8.137,,0.050925926,-0.136574074,1,0,0,0.683,0,136,136,167,1,eenhoorn,images/br_eenhoorn.png,images/cb_eenhoorn.png,0,,,,,,,,,,,,,,,,,,,,,,
,,,,,,00095,2023-11-22_17h00.05.396,vbt_B2_day2,2022.2.4,Win32,59.95203837,,,,,,,,,,,,,,,,,,,,,,,,,,,down,0,4.984,,0.050925926,-0.135416667,1,0,0,0.533,0,137,137,146,1,opkomen,images/br_opkomen.png,images/cb_opkomen.png,0,,,,,,,,,,,,,,,,,,,,,,
,,,,,,00095,2023-11-22_17h00.05.396,vbt_B2_day2,2022.2.4,Win32,59.95203837,,,,,,,,,,,,,,,,,,,,,,,,,,,down,0,3.085,,0.050925926,-0.135416667,1,0,0,0.566,0,138,138,154,1,aflopen,images/br_aflopen.png,images/cb_aflopen.png,0,,,,,,,,,,,,,,,,,,,,,,
,,,,,,00095,2023-11-22_17h00.05.396,vbt_B2_day2,2022.2.4,Win32,59.95203837,,,,,,,,,,,,,,,,,,,,,,,,,,,down,0,2.001,,0.052083333,-0.140046296,1,0,0,0.951,0,139,139,30,1,uien,images/br_uien.png,images/cb_uien.png,0,,,,,,,,,,,,,,,,,,,,,,
,,,,,,00095,2023-11-22_17h00.05.396,vbt_B2_day2,2022.2.4,Win32,59.95203837,,,,,,,,,,,,,,,,,,,,,,,,,,,down,0,0.352,,0.0625,-0.137731481,1,0,0,0.65,0,140,140,5,1,blad,images/br_blad.png,images/cb_blad.png,0,,,,,,,,,,,,,,,,,,,,,,
,,,,,,00095,2023-11-22_17h00.05.396,vbt_B2_day2,2022.2.4,Win32,59.95203837,,,,,,,,,,,,,,,,,,,,,,,,,,,down,0,6.09,,0.0625,-0.137731481,1,0,0,0.633,0,141,141,179,1,woestijn,images/br_woestijn.png,images/cb_woestijn.png,1,woestijn,,,,,,,,,,,,,,,,,,,,,
,,,,,,00095,2023-11-22_17h00.05.396,vbt_B2_day2,2022.2.4,Win32,59.95203837,,,,,,,,,,,,,,,,,,,,,,,,,,,down,0,1.818,,0.0625,-0.137731481,1,0,0,0.767,0,142,142,170,1,schatten,images/br_schatten.png,images/cb_schatten.png,0,,,,,,,,,,,,,,,,,,,,,,
,,,,,,00095,2023-11-22_17h00.05.396,vbt_B2_day2,2022.2.4,Win32,59.95203837,,,,,,,,,,,,,,,,,,,,,,,,,,,down,0,0.901,,0.065972222,-0.134259259,1,0,0,0.683,0,143,143,55,1,praat,images/br_praat.png,images/cb_praat.png,0,,,,,,,,,,,,,,,,,,,,,,
,,,,,,00095,2023-11-22_17h00.05.396,vbt_B2_day2,2022.2.4,Win32,59.95203837,,,,,,,,,,,,,,,,,,,,,,,,,,,down,0,2,,0.0625,-0.134259259,1,0,0,0.849,0,144,144,82,1,muziek,images/br_muziek.png,images/cb_muziek.png,0,,,,,,,,,,,,,,,,,,,,,,
,,,,,,00095,2023-11-22_17h00.05.396,vbt_B2_day2,2022.2.4,Win32,59.95203837,,,,,,,,,,,,,,,,,,,,,,,,,,,down,0,2.823,,0.0625,-0.134259259,1,0,0,0.65,0,145,145,36,1,vuur,images/br_vuur.png,images/cb_vuur.png,0,,,,,,,,,,,,,,,,,,,,,,
,,,,,,00095,2023-11-22_17h00.05.396,vbt_B2_day2,2022.2.4,Win32,59.95203837,,,,,,,,,,,,,,,,,,,,,,,,,,,down,0,3.251,,0.0625,-0.134259259,1,0,0,0.532,0,146,146,120,1,klimmen,images/br_klimmen.png,images/cb_klimmen.png,0,,,,,,,,,,,,,,,,,,,,,,
,,,,,,00095,2023-11-22_17h00.05.396,vbt_B2_day2,2022.2.4,Win32,59.95203837,,,,,,,,,,,,,,,,,,,,,,,,,,,down,0,0.89,,0.06712963,-0.135416667,1,0,0,0.667,0,147,147,50,1,stoom,images/br_stoom.png,images/cb_stoom.png,0,,,,,,,,,,,,,,,,,,,,,,
,,,,,,00095,2023-11-22_17h00.05.396,vbt_B2_day2,2022.2.4,Win32,59.95203837,,,,,,,,,,,,,,,,,,,,,,,,,,,down,0,2.068,,0.071759259,-0.135416667,1,0,0,0.767,0,148,148,188,1,strekken,images/br_strekken.png,images/cb_strekken.png,0,,,,,,,,,,,,,,,,,,,,,,
,,,,,,00095,2023-11-22_17h00.05.396,vbt_B2_day2,2022.2.4,Win32,59.95203837,,,,,,,,,,,,,,,,,,,,,,,,,,,down,0,5.457,,0.070601852,-0.135416667,1,0,0,0.817,0,149,149,73,1,volop,images/br_volop.png,images/cb_volop.png,0,,,,,,,,,,,,,,,,,,,,,,
,,,,,,00095,2023-11-22_17h00.05.396,vbt_B2_day2,2022.2.4,Win32,59.95203837,,,,,,,,,,,,,,,,,,,,,,,,,,,down,0,3.234,,0.070601852,-0.135416667,1,0,0,0.783,0,150,150,142,1,snuiven,images/br_snuiven.png,images/cb_snuiven.png,0,,,,,,,,,,,,,,,,,,,,,,
,,,,,,00095,2023-11-22_17h00.05.396,vbt_B2_day2,2022.2.4,Win32,59.95203837,,,,,,,,,,,,,,,,,,,,,,,,,,,down,0,2.433,,0.071759259,-0.135416667,1,0,0,0.667,0,151,151,163,1,schuilen,images/br_schuilen.png,images/cb_schuilen.png,0,,,,,,,,,,,,,,,,,,,,,,
,,,,,,00095,2023-11-22_17h00.05.396,vbt_B2_day2,2022.2.4,Win32,59.95203837,,,,,,,,,,,,,,,,,,,,,,,,,,,down,0,1.3,,0.070601852,-0.131944444,1,0,0,0.75,0,152,152,46,1,jagen,images/br_jagen.png,images/cb_jagen.png,0,,,,,,,,,,,,,,,,,,,,,,
,,,,,,00095,2023-11-22_17h00.05.396,vbt_B2_day2,2022.2.4,Win32,59.95203837,,,,,,,,,,,,,,,,,,,,,,,,,,,down,0,7.701,,0.011574074,-0.137731481,1,0,0,0.549,0,153,153,181,1,toegeven,images/br_toegeven.png,images/cb_toegeven.png,0,,,,,,,,,,,,,,,,,,,,,,
,,,,,,00095,2023-11-22_17h00.05.396,vbt_B2_day2,2022.2.4,Win32,59.95203837,,,,,,,,,,,,,,,,,,,,,,,,,,,down,0,2.204,,0.018518519,-0.136574074,1,0,0,0.616,0,154,154,4,1,moes,images/br_moes.png,images/cb_moes.png,0,,,,,,,,,,,,,,,,,,,,,,
,,,,,,00095,2023-11-22_17h00.05.396,vbt_B2_day2,2022.2.4,Win32,59.95203837,,,,,,,,,,,,,,,,,,,,,,,,,,,down,0,2.834,,0.018518519,-0.136574074,1,0,0,0.616,0,155,155,44,1,flits,images/br_flits.png,images/cb_flits.png,0,,,,,,,,,,,,,,,,,,,,,,
,,,,,,00095,2023-11-22_17h00.05.396,vbt_B2_day2,2022.2.4,Win32,59.95203837,,,,,,,,,,,,,,,,,,,,,,,,,,,down,0,3.908,,0.010416667,-0.135416667,1,0,0,0.767,0,156,156,194,1,driemaal,images/br_driemaal.png,images/cb_driemaal.png,0,,,,,,,,,,,,,,,,,,,,,,
,,,,,,00095,2023-11-22_17h00.05.396,vbt_B2_day2,2022.2.4,Win32,59.95203837,,,,,,,,,,,,,,,,,,,,,,,,,,,down,0,2.384,,0.010416667,-0.135416667,1,0,0,0.534,0,157,157,135,1,gedicht,images/br_gedicht.png,images/cb_gedicht.png,0,,,,,,,,,,,,,,,,,,,,,,
,,,,,,00095,2023-11-22_17h00.05.396,vbt_B2_day2,2022.2.4,Win32,59.95203837,,,,,,,,,,,,,,,,,,,,,,,,,,,down,0,2.118,,0.010416667,-0.134259259,1,0,0,0.717,0,158,158,37,1,mijn,images/br_mijn.png,images/cb_mijn.png,0,,,,,,,,,,,,,,,,,,,,,,
,,,,,,00095,2023-11-22_17h00.05.396,vbt_B2_day2,2022.2.4,Win32,59.95203837,,,,,,,,,,,,,,,,,,,,,,,,,,,down,0,0.931,,0.159722222,-0.15162037,1,0,0,0.911,0,159,159,61,1,groen,images/br_groen.png,images/cb_groen.png,0,,,,,,,,,,,,,,,,,,,,,,
,,,,,,00095,2023-11-22_17h00.05.396,vbt_B2_day2,2022.2.4,Win32,59.95203837,,,,,,,,,,,,,,,,,,,,,,,,,,,down,0,3.919,,0.16087963,-0.152777778,1,0,0,0.7,0,160,160,91,1,gezond,images/br_gezond.png,images/cb_gezond.png,0,,,,,,,,,,,,,,,,,,,,,,
,,,,,,00095,2023-11-22_17h00.05.396,vbt_B2_day2,2022.2.4,Win32,59.95203837,,,,,,,,,,,,,,,,,,,,,,,,,,,down,0,1.408,,0.199074074,-0.141203704,1,0,0,0.632,0,161,161,96,1,slagen,images/br_slagen.png,images/cb_slagen.png,1,slagen,,,,,,,,,,,,,,,,,,,,,
,,,,,,00095,2023-11-22_17h00.05.396,vbt_B2_day2,2022.2.4,Win32,59.95203837,,,,,,,,,,,,,,,,,,,,,,,,,,,down,0,0.702,,0.173611111,-0.178240741,1,0,0,0.501,0,162,162,102,1,legaal,images/br_legaal.png,images/cb_legaal.png,0,,,,,,,,,,,,,,,,,,,,,,
,,,,,,00095,2023-11-22_17h00.05.396,vbt_B2_day2,2022.2.4,Win32,59.95203837,,,,,,,,,,,,,,,,,,,,,,,,,,,down,0,0.356,,0.173611111,-0.178240741,1,0,0,0.35,0,163,163,39,1,laag,images/br_laag.png,images/cb_laag.png,0,,,,,,,,,,,,,,,,,,,,,,
,,,,,,00095,2023-11-22_17h00.05.396,vbt_B2_day2,2022.2.4,Win32,59.95203837,,,,,,,,,,,,,,,,,,,,,,,,,,,down,0,1.206,,0.144675926,-0.177083333,1,0,0,0.733,0,164,164,66,1,lever,images/br_lever.png,images/cb_lever.png,0,,,,,,,,,,,,,,,,,,,,,,
,,,,,,00095,2023-11-22_17h00.05.396,vbt_B2_day2,2022.2.4,Win32,59.95203837,,,,,,,,,,,,,,,,,,,,,,,,,,,down,0,5.502,,0.152777778,-0.177083333,1,0,0,0.833,0,165,165,26,1,leuk,images/br_leuk.png,images/cb_leuk.png,0,,,,,,,,,,,,,,,,,,,,,,
,,,,,,00095,2023-11-22_17h00.05.396,vbt_B2_day2,2022.2.4,Win32,59.95203837,,,,,,,,,,,,,,,,,,,,,,,,,,,down,0,3.435,,0.137731481,-0.173611111,1,0,0,0.799,0,166,166,12,1,kust,images/br_kust.png,images/cb_kust.png,0,,,,,,,,,,,,,,,,,,,,,,
,,,,,,00095,2023-11-22_17h00.05.396,vbt_B2_day2,2022.2.4,Win32,59.95203837,,,,,,,,,,,,,,,,,,,,,,,,,,,down,0,5.005,,0.137731481,-0.173611111,1,0,0,0.567,0,167,167,129,1,verhaal,images/br_verhaal.png,images/cb_verhaal.png,0,,,,,,,,,,,,,,,,,,,,,,
,,,,,,00095,2023-11-22_17h00.05.396,vbt_B2_day2,2022.2.4,Win32,59.95203837,,,,,,,,,,,,,,,,,,,,,,,,,,,down,0,18.987,,0.142361111,-0.172453704,1,0,0,5.5,0,168,168,94,1,oceaan,images/br_oceaan.png,images/cb_oceaan.png,0,,,,,,,,,,,,,,,,,,,,,,
,,,,,,00095,2023-11-22_17h00.05.396,vbt_B2_day2,2022.2.4,Win32,59.95203837,,,,,,,,,,,,,,,,,,,,,,,,,,,down,0,3.938,,0.148148148,-0.170138889,1,0,0,0.717,0,169,169,6,1,diep,images/br_diep.png,images/cb_diep.png,0,,,,,,,,,,,,,,,,,,,,,,
,,,,,,00095,2023-11-22_17h00.05.396,vbt_B2_day2,2022.2.4,Win32,59.95203837,,,,,,,,,,,,,,,,,,,,,,,,,,,down,0,9.839,,0.148148148,-0.170138889,1,0,0,0.849,0,170,170,130,1,keihard,images/br_keihard.png,images/cb_keihard.png,0,,,,,,,,,,,,,,,,,,,,,,
,,,,,,00095,2023-11-22_17h00.05.396,vbt_B2_day2,2022.2.4,Win32,59.95203837,,,,,,,,,,,,,,,,,,,,,,,,,,,down,0,2.651,,0.146990741,-0.170138889,1,0,0,0.716,0,171,171,92,1,geheim,images/br_geheim.png,images/cb_geheim.png,0,,,,,,,,,,,,,,,,,,,,,,
,,,,,,00095,2023-11-22_17h00.05.396,vbt_B2_day2,2022.2.4,Win32,59.95203837,,,,,,,,,,,,,,,,,,,,,,,,,,,down,0,8.509,,0.141203704,-0.171296296,1,0,0,0.6,0,172,172,60,1,jasje,images/br_jasje.png,images/cb_jasje.png,0,,,,,,,,,,,,,,,,,,,,,,
,,,,,,00095,2023-11-22_17h00.05.396,vbt_B2_day2,2022.2.4,Win32,59.95203837,,,,,,,,,,,,,,,,,,,,,,,,,,,down,0,3.484,,0.141203704,-0.171296296,1,0,0,0.632,0,173,173,195,1,middelen,images/br_middelen.png,images/cb_middelen.png,0,,,,,,,,,,,,,,,,,,,,,,
,,,,,,00095,2023-11-22_17h00.05.396,vbt_B2_day2,2022.2.4,Win32,59.95203837,,,,,,,,,,,,,,,,,,,,,,,,,,,down,0,0.906,,0.141203704,-0.171296296,1,0,0,0.651,0,174,174,31,1,poes,images/br_poes.png,images/cb_poes.png,0,,,,,,,,,,,,,,,,,,,,,,
,,,,,,00095,2023-11-22_17h00.05.396,vbt_B2_day2,2022.2.4,Win32,59.95203837,,,,,,,,,,,,,,,,,,,,,,,,,,,down,0,0.787,,0.123842593,-0.178240741,1,0,0,0.833,0,175,175,112,1,lukken,images/br_lukken.png,images/cb_lukken.png,0,,,,,,,,,,,,,,,,,,,,,,
,,,,,,00095,2023-11-22_17h00.05.396,vbt_B2_day2,2022.2.4,Win32,59.95203837,,,,,,,,,,,,,,,,,,,,,,,,,,,down,0,2.702,,0.119212963,-0.179398148,1,0,0,0.583,0,176,176,95,1,vreten,images/br_vreten.png,images/cb_vreten.png,0,,,,,,,,,,,,,,,,,,,,,,
,,,,,,00095,2023-11-22_17h00.05.396,vbt_B2_day2,2022.2.4,Win32,59.95203837,,,,,,,,,,,,,,,,,,,,,,,,,,,down,0,1.15,,0.119212963,-0.179398148,1,0,0,0.684,0,177,177,184,1,aandelen,images/br_aandelen.png,images/cb_aandelen.png,0,,,,,,,,,,,,,,,,,,,,,,
,,,,,,00095,2023-11-22_17h00.05.396,vbt_B2_day2,2022.2.4,Win32,59.95203837,,,,,,,,,,,,,,,,,,,,,,,,,,,down,0,2.386,,0.119212963,-0.179398148,1,0,0,0.572,0,178,178,16,1,ziek,images/br_ziek.png,images/cb_ziek.png,1,ziek,,,,,,,,,,,,,,,,,,,,,
,,,,,,00095,2023-11-22_17h00.05.396,vbt_B2_day2,2022.2.4,Win32,59.95203837,,,,,,,,,,,,,,,,,,,,,,,,,,,down,0,1.117,,0.119212963,-0.179398148,1,0,0,0.566,0,179,179,124,1,bloeien,images/br_bloeien.png,images/cb_bloeien.png,0,,,,,,,,,,,,,,,,,,,,,,
,,,,,,00095,2023-11-22_17h00.05.396,vbt_B2_day2,2022.2.4,Win32,59.95203837,,,,,,,,,,,,,,,,,,,,,,,,,,,down,0,3.268,,0.118055556,-0.181712963,1,0,0,0.717,0,180,180,123,1,hiervan,images/br_hiervan.png,images/cb_hiervan.png,0,,,,,,,,,,,,,,,,,,,,,,
,,,,,,00095,2023-11-22_17h00.05.396,vbt_B2_day2,2022.2.4,Win32,59.95203837,,,,,,,,,,,,,,,,,,,,,,,,,,,down,0,2.067,,0.118055556,-0.181712963,1,0,0,0.55,0,181,181,23,1,zout,images/br_zout.png,images/cb_zout.png,0,,,,,,,,,,,,,,,,,,,,,,
,,,,,,00095,2023-11-22_17h00.05.396,vbt_B2_day2,2022.2.4,Win32,59.95203837,,,,,,,,,,,,,,,,,,,,,,,,,,,down,0,2.968,,0.145833333,-0.18287037,1,0,0,0.483,0,182,182,117,1,kennis,images/br_kennis.png,images/cb_kennis.png,0,,,,,,,,,,,,,,,,,,,,,,
,,,,,,00095,2023-11-22_17h00.05.396,vbt_B2_day2,2022.2.4,Win32,59.95203837,,,,,,,,,,,,,,,,,,,,,,,,,,,down,0,2.301,,0.141203704,-0.1875,1,0,0,0.717,0,183,183,149,1,redding,images/br_redding.png,images/cb_redding.png,0,,,,,,,,,,,,,,,,,,,,,,
,,,,,,00095,2023-11-22_17h00.05.396,vbt_B2_day2,2022.2.4,Win32,59.95203837,,,,,,,,,,,,,,,,,,,,,,,,,,,down,0,3.501,,0.141203704,-0.1875,1,0,0,0.725,0,184,184,178,1,huisdier,images/br_huisdier.png,images/cb_huisdier.png,1,huisdier,,,,,,,,,,,,,,,,,,,,,
,,,,,,00095,2023-11-22_17h00.05.396,vbt_B2_day2,2022.2.4,Win32,59.95203837,,,,,,,,,,,,,,,,,,,,,,,,,,,down,0,0.573,,0.15625,-0.189814815,1,0,0,0.566,0,185,185,114,1,vullen,images/br_vullen.png,images/cb_vullen.png,0,,,,,,,,,,,,,,,,,,,,,,
,,,,,,00095,2023-11-22_17h00.05.396,vbt_B2_day2,2022.2.4,Win32,59.95203837,,,,,,,,,,,,,,,,,,,,,,,,,,,down,0,4,,0.159722222,-0.1875,1,0,0,0.667,0,186,186,153,1,vervoer,images/br_vervoer.png,images/cb_vervoer.png,0,,,,,,,,,,,,,,,,,,,,,,
,,,,,,00095,2023-11-22_17h00.05.396,vbt_B2_day2,2022.2.4,Win32,59.95203837,,,,,,,,,,,,,,,,,,,,,,,,,,,down,0,0.4,,0.159722222,-0.1875,1,0,0,0.667,0,187,187,35,1,lust,images/br_lust.png,images/cb_lust.png,0,,,,,,,,,,,,,,,,,,,,,,
,,,,,,00095,2023-11-22_17h00.05.396,vbt_B2_day2,2022.2.4,Win32,59.95203837,,,,,,,,,,,,,,,,,,,,,,,,,,,down,0,1.932,,0.140046296,-0.184027778,1,0,0,1.434,0,188,188,93,1,waarop,images/br_waarop.png,images/cb_waarop.png,0,,,,,,,,,,,,,,,,,,,,,,
,,,,,,00095,2023-11-22_17h00.05.396,vbt_B2_day2,2022.2.4,Win32,59.95203837,,,,,,,,,,,,,,,,,,,,,,,,,,,down,0,5.849,,0.140046296,-0.184027778,1,0,0,0.517,0,189,189,193,1,weeshuis,images/br_weeshuis.png,images/cb_weeshuis.png,0,,,,,,,,,,,,,,,,,,,,,,
,,,,,,00095,2023-11-22_17h00.05.396,vbt_B2_day2,2022.2.4,Win32,59.95203837,,,,,,,,,,,,,,,,,,,,,,,,,,,down,0,1.169,,0.140046296,-0.184027778,1,0,0,0.583,0,190,190,115,1,kleren,images/br_kleren.png,images/cb_kleren.png,0,,,,,,,,,,,,,,,,,,,,,,
,,,,,,00095,2023-11-22_17h00.05.396,vbt_B2_day2,2022.2.4,Win32,59.95203837,,,,,,,,,,,,,,,,,,,,,,,,,,,down,0,1.787,,0.063657407,-0.173611111,1,0,0,0.866,0,191,191,83,1,mening,images/br_mening.png,images/cb_mening.png,0,,,,,,,,,,,,,,,,,,,,,,
,,,,,,00095,2023-11-22_17h00.05.396,vbt_B2_day2,2022.2.4,Win32,59.95203837,,,,,,,,,,,,,,,,,,,,,,,,,,,down,0,0.219,,0.086805556,-0.118055556,1,0,0,0.7,0,192,192,7,1,geld,images/br_geld.png,images/cb_geld.png,0,,,,,,,,,,,,,,,,,,,,,,
,,,,,,00095,2023-11-22_17h00.05.396,vbt_B2_day2,2022.2.4,Win32,59.95203837,,,,,,,,,,,,,,,,,,,,,,,,,,,down,0,0.683,,0.091435185,-0.096064815,1,0,0,1.066,0,193,193,150,1,gegeven,images/br_gegeven.png,images/cb_gegeven.png,0,,,,,,,,,,,,,,,,,,,,,,
,,,,,,00095,2023-11-22_17h00.05.396,vbt_B2_day2,2022.2.4,Win32,59.95203837,,,,,,,,,,,,,,,,,,,,,,,,,,,down,0,1.27,,0.091435185,-0.096064815,1,0,0,0.8,0,194,194,24,1,jurk,images/br_jurk.png,images/cb_jurk.png,0,,,,,,,,,,,,,,,,,,,,,,
,,,,,,00095,2023-11-22_17h00.05.396,vbt_B2_day2,2022.2.4,Win32,59.95203837,,,,,,,,,,,,,,,,,,,,,,,,,,,down,0,3.704,,0.091435185,-0.096064815,1,0,0,0.633,0,195,195,98,1,kreeft,images/br_kreeft.png,images/cb_kreeft.png,1,kreeft,,,,,,,,,,,,,,,,,,,,,
,,,,,,00095,2023-11-22_17h00.05.396,vbt_B2_day2,2022.2.4,Win32,59.95203837,,,,,,,,,,,,,,,,,,,,,,,,,,,down,0,1.407,,0.09375,-0.094907407,1,0,0,0.733,0,196,196,171,1,aarzelen,images/br_aarzelen.png,images/cb_aarzelen.png,0,,,,,,,,,,,,,,,,,,,,,,
,,,,,,00095,2023-11-22_17h00.05.396,vbt_B2_day2,2022.2.4,Win32,59.95203837,,,,,,,,,,,,,,,,,,,,,,,,,,,down,0,0.8,,0.09375,-0.094907407,1,0,0,0.65,0,197,197,88,1,boeien,images/br_boeien.png,images/cb_boeien.png,0,,,,,,,,,,,,,,,,,,,,,,
,,,,,,00095,2023-11-22_17h00.05.396,vbt_B2_day2,2022.2.4,Win32,59.95203837,,,,,,,,,,,,,,,,,,,,,,,,,,,down,0,3.407,,0.09375,-0.094907407,1,0,0,0.5,0,198,198,38,1,baai,images/br_baai.png,images/cb_baai.png,0,,,,,,,,,,,,,,,,,,,,,,
,,,,,,00095,2023-11-22_17h00.05.396,vbt_B2_day2,2022.2.4,Win32,59.95203837,,,,,,,,,,,,,,,,,,,,,,,,,,,down,0,0.354,,0.09375,-0.094907407,1,0,0,0.5,0,199,199,78,1,leren,images/br_leren.png,images/cb_leren.png,0,,,,,,,,,,,,,,,,,,,,,,
,,,,,,00095,2023-11-22_17h00.05.396,vbt_B2_day2,2022.2.4,Win32,59.95203837,,,,,,,,,,,,,,,,,,,,,,,,,,,,,,,,,,,,,,,,,,,,,,,-0.188657407,-0.290509259,1,0,0,,,,,,,,,,,,,,,,
,,,,,,00095,2023-11-22_17h00.05.396,vbt_B2_day2,2022.2.4,Win32,59.95203837,,,,,,,,,,,,,,,,,,,,,,,,,,,,,,,,,,,,,,,,,,,,,,,,,,,,-0.194444444,-0.290509259,1,0,0,,,,,,,,,,,
,,,,,,00095,2023-11-22_17h00.05.396,vbt_B2_day2,2022.2.4,Win32,59.95203837,,,,,,,,,,,,,,,,,,,,,,,,,,,,,,,,,,,,,,,,,,negel,images/br_negel.png,images/cb_negel.png,,negel,,,,,,,,,,,-0.194444444,-0.290509259,1,0,0,negel,0,0,0,24,1
,,,,,,00095,2023-11-22_17h00.05.396,vbt_B2_day2,2022.2.4,Win32,59.95203837,,,,,,,,,,,,,,,,,,,,,,,,,,,,,,,,,,,,,,,,,,stes,images/br_stes.png,images/cb_stes.png,,stes,,,,,,,,,,,-0.158564815,-0.287037037,1,0,0,stes,0,1,1,21,1
,,,,,,00095,2023-11-22_17h00.05.396,vbt_B2_day2,2022.2.4,Win32,59.95203837,,,,,,,,,,,,,,,,,,,,,,,,,,,,,,,,,,,,,,,,,,strikken,images/br_strikken.png,images/cb_strikken.png,,,,,,,,,,,,,0.083333333,-0.203703704,1,0,0,,0,2,2,18,1
,,,,,,00095,2023-11-22_17h00.05.396,vbt_B2_day2,2022.2.4,Win32,59.95203837,,,,,,,,,,,,,,,,,,,,,,,,,,,,,,,,,,,,,,,,,,lurgen,images/br_lurgen.png,images/cb_lurgen.png,,lurgen,,,,,,,,,,,-0.173611111,-0.011574074,1,0,0,lurgen,0,3,3,29,1
,,,,,,00095,2023-11-22_17h00.05.396,vbt_B2_day2,2022.2.4,Win32,59.95203837,,,,,,,,,,,,,,,,,,,,,,,,,,,,,,,,,,,,,,,,,,bereuwen,images/br_bereuwen.png,images/cb_bereuwen.png,,berui...,,,,,,,,,,,-0.172453704,-0.011574074,1,0,0,berui...,0,4,4,39,1
,,,,,,00095,2023-11-22_17h00.05.396,vbt_B2_day2,2022.2.4,Win32,59.95203837,,,,,,,,,,,,,,,,,,,,,,,,,,,,,,,,,,,,,,,,,,badon,images/br_badon.png,images/cb_badon.png,,badon,,,,,,,,,,,-0.18287037,-0.011574074,1,0,0,badon,0,5,5,26,1
,,,,,,00095,2023-11-22_17h00.05.396,vbt_B2_day2,2022.2.4,Win32,59.95203837,,,,,,,,,,,,,,,,,,,,,,,,,,,,,,,,,,,,,,,,,,piste,images/br_piste.png,images/cb_piste.png,,piste,,,,,,,,,,,-0.171296296,-0.00462963,1,0,0,piste,0,6,6,5,1
,,,,,,00095,2023-11-22_17h00.05.396,vbt_B2_day2,2022.2.4,Win32,59.95203837,,,,,,,,,,,,,,,,,,,,,,,,,,,,,,,,,,,,,,,,,,ningen,images/br_ningen.png,images/cb_ningen.png,,ningen,,,,,,,,,,,-0.175925926,-0.00462963,1,0,0,ningen,0,7,7,28,1
,,,,,,00095,2023-11-22_17h00.05.396,vbt_B2_day2,2022.2.4,Win32,59.95203837,,,,,,,,,,,,,,,,,,,,,,,,,,,,,,,,,,,,,,,,,,sifferd,images/br_sifferd.png,images/cb_sifferd.png,,sufferd,,,,,,,,,,,-0.175925926,-0.00462963,1,0,0,sufferd,0,8,8,32,1
,,,,,,00095,2023-11-22_17h00.05.396,vbt_B2_day2,2022.2.4,Win32,59.95203837,,,,,,,,,,,,,,,,,,,,,,,,,,,,,,,,,,,,,,,,,,wijve,images/br_wijve.png,images/cb_wijve.png,,wijve,,,,,,,,,,,-0.178240741,-0.009259259,1,0,0,wijve,0,9,9,27,1
,,,,,,00095,2023-11-22_17h00.05.396,vbt_B2_day2,2022.2.4,Win32,59.95203837,,,,,,,,,,,,,,,,,,,,,,,,,,,,,,,,,,,,,,,,,,krimmen,images/br_krimmen.png,images/cb_krimmen.png,,krimmig,,,,,,,,,,,-0.178240741,-0.009259259,1,0,0,krimmig,0,10,10,35,1
,,,,,,00095,2023-11-22_17h00.05.396,vbt_B2_day2,2022.2.4,Win32,59.95203837,,,,,,,,,,,,,,,,,,,,,,,,,,,,,,,,,,,,,,,,,,clan,images/br_clan.png,images/cb_clan.png,,clan,,,,,,,,,,,-0.175925926,0,1,0,0,clan,0,11,11,40,1
,,,,,,00095,2023-11-22_17h00.05.396,vbt_B2_day2,2022.2.4,Win32,59.95203837,,,,,,,,,,,,,,,,,,,,,,,,,,,,,,,,,,,,,,,,,,lijnen,images/br_lijnen.png,images/cb_lijnen.png,,lijnen,,,,,,,,,,,-0.175925926,0.001157407,1,0,0,lijnen,0,12,12,51,1
,,,,,,00095,2023-11-22_17h00.05.396,vbt_B2_day2,2022.2.4,Win32,59.95203837,,,,,,,,,,,,,,,,,,,,,,,,,,,,,,,,,,,,,,,,,,trots,images/br_trots.png,images/cb_trots.png,,trots,,,,,,,,,,,-0.179398148,-0.002314815,1,0,0,trots,0,13,13,44,1
,,,,,,00095,2023-11-22_17h00.05.396,vbt_B2_day2,2022.2.4,Win32,59.95203837,,,,,,,,,,,,,,,,,,,,,,,,,,,,,,,,,,,,,,,,,,blad,images/br_blad.png,images/cb_blad.png,,blad,,,,,,,,,,,-0.177083333,0,1,0,0,blad,0,14,14,1,1
,,,,,,00095,2023-11-22_17h00.05.396,vbt_B2_day2,2022.2.4,Win32,59.95203837,,,,,,,,,,,,,,,,,,,,,,,,,,,,,,,,,,,,,,,,,,kijlen,images/br_kijlen.png,images/cb_kijlen.png,,kijlen,,,,,,,,,,,-0.177083333,0.001157407,1,0,0,kijlen,0,15,15,31,1
,,,,,,00095,2023-11-22_17h00.05.396,vbt_B2_day2,2022.2.4,Win32,59.95203837,,,,,,,,,,,,,,,,,,,,,,,,,,,,,,,,,,,,,,,,,,jong,images/br_jong.png,images/cb_jong.png,,jong,,,,,,,,,,,-0.177083333,0.001157407,1,0,0,jong,0,16,16,43,1
,,,,,,00095,2023-11-22_17h00.05.396,vbt_B2_day2,2022.2.4,Win32,59.95203837,,,,,,,,,,,,,,,,,,,,,,,,,,,,,,,,,,,,,,,,,,woning,images/br_woning.png,images/cb_woning.png,,woning,,,,,,,,,,,-0.177083333,0.001157407,1,0,0,woning,0,17,17,10,1
,,,,,,00095,2023-11-22_17h00.05.396,vbt_B2_day2,2022.2.4,Win32,59.95203837,,,,,,,,,,,,,,,,,,,,,,,,,,,,,,,,,,,,,,,,,,kenzis,images/br_kenzis.png,images/cb_kenzis.png,,kenzis,,,,,,,,,,,-0.174768519,0.002314815,1,0,0,kenzis,0,18,18,30,1
,,,,,,00095,2023-11-22_17h00.05.396,vbt_B2_day2,2022.2.4,Win32,59.95203837,,,,,,,,,,,,,,,,,,,,,,,,,,,,,,,,,,,,,,,,,,anarchie,images/br_anarchie.png,images/cb_anarchie.png,,anarchie,,,,,,,,,,,-0.172453704,0.002314815,1,0,0,anarchie,0,19,19,16,1
,,,,,,00095,2023-11-22_17h00.05.396,vbt_B2_day2,2022.2.4,Win32,59.95203837,,,,,,,,,,,,,,,,,,,,,,,,,,,,,,,,,,,,,,,,,,tand,images/br_tand.png,images/cb_tand.png,,tand,,,,,,,,,,,-0.173611111,0.003472222,1,0,0,tand,0,20,20,42,1
,,,,,,00095,2023-11-22_17h00.05.396,vbt_B2_day2,2022.2.4,Win32,59.95203837,,,,,,,,,,,,,,,,,,,,,,,,,,,,,,,,,,,,,,,,,,diep,images/br_diep.png,images/cb_diep.png,,diep,,,,,,,,,,,-0.175925926,0.003472222,1,0,0,diep,0,21,21,2,1
,,,,,,00095,2023-11-22_17h00.05.396,vbt_B2_day2,2022.2.4,Win32,59.95203837,,,,,,,,,,,,,,,,,,,,,,,,,,,,,,,,,,,,,,,,,,manieren,images/br_manieren.png,images/cb_manieren.png,,manieren,,,,,,,,,,,-0.168981481,0.00462963,1,0,0,manieren,0,22,22,56,1
,,,,,,00095,2023-11-22_17h00.05.396,vbt_B2_day2,2022.2.4,Win32,59.95203837,,,,,,,,,,,,,,,,,,,,,,,,,,,,,,,,,,,,,,,,,,moes,images/br_moes.png,images/cb_moes.png,,moes,,,,,,,,,,,-0.150462963,-0.00462963,1,0,0,moes,0,23,23,0,1
,,,,,,00095,2023-11-22_17h00.05.396,vbt_B2_day2,2022.2.4,Win32,59.95203837,,,,,,,,,,,,,,,,,,,,,,,,,,,,,,,,,,,,,,,,,,joes,images/br_joes.png,images/cb_joes.png,,joes,,,,,,,,,,,-0.15625,-0.018518519,1,0,0,joes,0,24,24,20,1
,,,,,,00095,2023-11-22_17h00.05.396,vbt_B2_day2,2022.2.4,Win32,59.95203837,,,,,,,,,,,,,,,,,,,,,,,,,,,,,,,,,,,,,,,,,,plannen,images/br_plannen.png,images/cb_plannen.png,,plannen,,,,,,,,,,,-0.15625,-0.018518519,1,0,0,plannen,0,25,25,55,1
,,,,,,00095,2023-11-22_17h00.05.396,vbt_B2_day2,2022.2.4,Win32,59.95203837,,,,,,,,,,,,,,,,,,,,,,,,,,,,,,,,,,,,,,,,,,zwager,images/br_zwager.png,images/cb_zwager.png,,zwager,,,,,,,,,,,-0.159722222,-0.019675926,1,0,0,zwager,0,26,26,49,1
,,,,,,00095,2023-11-22_17h00.05.396,vbt_B2_day2,2022.2.4,Win32,59.95203837,,,,,,,,,,,,,,,,,,,,,,,,,,,,,,,,,,,,,,,,,,lokken,images/br_lokken.png,images/cb_lokken.png,,lokken,,,,,,,,,,,-0.159722222,-0.019675926,1,0,0,lokken,0,27,27,8,1
,,,,,,00095,2023-11-22_17h00.05.396,vbt_B2_day2,2022.2.4,Win32,59.95203837,,,,,,,,,,,,,,,,,,,,,,,,,,,,,,,,,,,,,,,,,,toeval,images/br_toeval.png,images/cb_toeval.png,,toeval,,,,,,,,,,,-0.190972222,-0.046296296,1,0,0,toeval,0,28,28,11,1
,,,,,,00095,2023-11-22_17h00.05.396,vbt_B2_day2,2022.2.4,Win32,59.95203837,,,,,,,,,,,,,,,,,,,,,,,,,,,,,,,,,,,,,,,,,,aanvraag,images/br_aanvraag.png,images/cb_aanvraag.png,,aanvraag,,,,,,,,,,,-0.19212963,-0.043981481,1,0,0,aanvraag,0,29,29,57,1
,,,,,,00095,2023-11-22_17h00.05.396,vbt_B2_day2,2022.2.4,Win32,59.95203837,,,,,,,,,,,,,,,,,,,,,,,,,,,,,,,,,,,,,,,,,,systeem,images/br_systeem.png,images/cb_systeem.png,,systeem,,,,,,,,,,,-0.175925926,-0.063657407,1,0,0,systeem,0,30,30,54,1
,,,,,,00095,2023-11-22_17h00.05.396,vbt_B2_day2,2022.2.4,Win32,59.95203837,,,,,,,,,,,,,,,,,,,,,,,,,,,,,,,,,,,,,,,,,,doodmoe,images/br_doodmoe.png,images/cb_doodmoe.png,,doodmoe,,,,,,,,,,,-0.168981481,-0.064814815,1,0,0,doodmoe,0,31,31,15,1
,,,,,,00095,2023-11-22_17h00.05.396,vbt_B2_day2,2022.2.4,Win32,59.95203837,,,,,,,,,,,,,,,,,,,,,,,,,,,,,,,,,,,,,,,,,,breuk,images/br_breuk.png,images/cb_breuk.png,,breuk,,,,,,,,,,,-0.130787037,-0.081018519,1,0,0,breuk,0,32,32,45,1
,,,,,,00095,2023-11-22_17h00.05.396,vbt_B2_day2,2022.2.4,Win32,59.95203837,,,,,,,,,,,,,,,,,,,,,,,,,,,,,,,,,,,,,,,,,,inzicht,images/br_inzicht.png,images/cb_inzicht.png,,inzicht,,,,,,,,,,,-0.072916667,-0.090277778,1,0,0,inzicht,0,33,33,53,1
,,,,,,00095,2023-11-22_17h00.05.396,vbt_B2_day2,2022.2.4,Win32,59.95203837,,,,,,,,,,,,,,,,,,,,,,,,,,,,,,,,,,,,,,,,,,goon,images/br_goon.png,images/cb_goon.png,,goon,,,,,,,,,,,-0.053240741,-0.094907407,1,0,0,goon,0,34,34,23,1
,,,,,,00095,2023-11-22_17h00.05.396,vbt_B2_day2,2022.2.4,Win32,59.95203837,,,,,,,,,,,,,,,,,,,,,,,,,,,,,,,,,,,,,,,,,,aanzien,images/br_aanzien.png,images/cb_aanzien.png,,aanzien,,,,,,,,,,,-0.041666667,-0.094907407,1,0,0,aanzien,0,35,35,13,1
,,,,,,00095,2023-11-22_17h00.05.396,vbt_B2_day2,2022.2.4,Win32,59.95203837,,,,,,,,,,,,,,,,,,,,,,,,,,,,,,,,,,,,,,,,,,thema,images/br_thema.png,images/cb_thema.png,,thema,,,,,,,,,,,0.002314815,-0.112268519,1,0,0,thema,0,36,36,47,1
,,,,,,00095,2023-11-22_17h00.05.396,vbt_B2_day2,2022.2.4,Win32,59.95203837,,,,,,,,,,,,,,,,,,,,,,,,,,,,,,,,,,,,,,,,,,prekken,images/br_prekken.png,images/cb_prekken.png,,prekken,,,,,,,,,,,-0.12037037,-0.076388889,1,0,0,prekken,0,37,37,34,1
,,,,,,00095,2023-11-22_17h00.05.396,vbt_B2_day2,2022.2.4,Win32,59.95203837,,,,,,,,,,,,,,,,,,,,,,,,,,,,,,,,,,,,,,,,,,geld,images/br_geld.png,images/cb_geld.png,,geld,,,,,,,,,,,-0.133101852,-0.078703704,1,0,0,geld,0,38,38,3,1
,,,,,,00095,2023-11-22_17h00.05.396,vbt_B2_day2,2022.2.4,Win32,59.95203837,,,,,,,,,,,,,,,,,,,,,,,,,,,,,,,,,,,,,,,,,,flits,images/br_flits.png,images/cb_flits.png,,flits,,,,,,,,,,,-0.123842593,-0.081018519,1,0,0,flits,0,39,39,4,1
,,,,,,00095,2023-11-22_17h00.05.396,vbt_B2_day2,2022.2.4,Win32,59.95203837,,,,,,,,,,,,,,,,,,,,,,,,,,,,,,,,,,,,,,,,,,sjijfel,images/br_sjijfel.png,images/cb_sjijfel.png,,sjij...,,,,,,,,,,,-0.152777778,-0.077546296,1,0,0,sjij...,0,40,40,33,1
,,,,,,00095,2023-11-22_17h00.05.396,vbt_B2_day2,2022.2.4,Win32,59.95203837,,,,,,,,,,,,,,,,,,,,,,,,,,,,,,,,,,,,,,,,,,kabel,images/br_kabel.png,images/cb_kabel.png,,kabel,,,,,,,,,,,-0.113425926,-0.082175926,1,0,0,kabel,0,41,41,7,1
,,,,,,00095,2023-11-22_17h00.05.396,vbt_B2_day2,2022.2.4,Win32,59.95203837,,,,,,,,,,,,,,,,,,,,,,,,,,,,,,,,,,,,,,,,,,agressie,images/br_agressie.png,images/cb_agressie.png,,agressie,,,,,,,,,,,-0.08912037,-0.094907407,1,0,0,agressie,0,42,42,59,1
,,,,,,00095,2023-11-22_17h00.05.396,vbt_B2_day2,2022.2.4,Win32,59.95203837,,,,,,,,,,,,,,,,,,,,,,,,,,,,,,,,,,,,,,,,,,remel,images/br_remel.png,images/cb_remel.png,,remel,,,,,,,,,,,-0.090277778,-0.09837963,1,0,0,remel,0,43,43,25,1
,,,,,,00095,2023-11-22_17h00.05.396,vbt_B2_day2,2022.2.4,Win32,59.95203837,,,,,,,,,,,,,,,,,,,,,,,,,,,,,,,,,,,,,,,,,,bloeien,images/br_bloeien.png,images/cb_bloeien.png,,bloeien,,,,,,,,,,,0.020833333,-0.099537037,1,0,0,bloeien,0,44,44,12,1
,,,,,,00095,2023-11-22_17h00.05.396,vbt_B2_day2,2022.2.4,Win32,59.95203837,,,,,,,,,,,,,,,,,,,,,,,,,,,,,,,,,,,,,,,,,,sora,images/br_sora.png,images/cb_sora.png,,sora,,,,,,,,,,,0.068287037,-0.099537037,1,0,0,sora,0,45,45,22,1
,,,,,,00095,2023-11-22_17h00.05.396,vbt_B2_day2,2022.2.4,Win32,59.95203837,,,,,,,,,,,,,,,,,,,,,,,,,,,,,,,,,,,,,,,,,,tweeling,images/br_tweeling.png,images/cb_tweeling.png,,tweeling,,,,,,,,,,,0.042824074,-0.096064815,1,0,0,tweeling,0,46,46,58,1
,,,,,,00095,2023-11-22_17h00.05.396,vbt_B2_day2,2022.2.4,Win32,59.95203837,,,,,,,,,,,,,,,,,,,,,,,,,,,,,,,,,,,,,,,,,,welzijn,images/br_welzijn.png,images/cb_welzijn.png,,welzijn,,,,,,,,,,,0.046296296,-0.092592593,1,0,0,welzijn,0,47,47,52,1
,,,,,,00095,2023-11-22_17h00.05.396,vbt_B2_day2,2022.2.4,Win32,59.95203837,,,,,,,,,,,,,,,,,,,,,,,,,,,,,,,,,,,,,,,,,,eenhoorn,images/br_eenhoorn.png,images/cb_eenhoorn.png,,eenhoorn,,,,,,,,,,,0.046296296,-0.090277778,1,0,0,eenhoorn,0,48,48,19,1
,,,,,,00095,2023-11-22_17h00.05.396,vbt_B2_day2,2022.2.4,Win32,59.95203837,,,,,,,,,,,,,,,,,,,,,,,,,,,,,,,,,,,,,,,,,,ophuimen,images/br_ophuimen.png,images/cb_ophuimen.png,,ophuimen,,,,,,,,,,,0.049768519,-0.091435185,1,0,0,ophuimen,0,49,49,36,1
,,,,,,00095,2023-11-22_17h00.05.396,vbt_B2_day2,2022.2.4,Win32,59.95203837,,,,,,,,,,,,,,,,,,,,,,,,,,,,,,,,,,,,,,,,,,heilig,images/br_heilig.png,images/cb_heilig.png,,heilig,,,,,,,,,,,0.042824074,-0.094907407,1,0,0,heilig,0,50,50,9,1
,,,,,,00095,2023-11-22_17h00.05.396,vbt_B2_day2,2022.2.4,Win32,59.95203837,,,,,,,,,,,,,,,,,,,,,,,,,,,,,,,,,,,,,,,,,,dode,images/br_dode.png,images/cb_dode.png,,dode,,,,,,,,,,,0.039351852,-0.092592593,1,0,0,dode,0,51,51,41,1
,,,,,,00095,2023-11-22_17h00.05.396,vbt_B2_day2,2022.2.4,Win32,59.95203837,,,,,,,,,,,,,,,,,,,,,,,,,,,,,,,,,,,,,,,,,,zegel,images/br_zegel.png,images/cb_zegel.png,,zegel,,,,,,,,,,,0.016203704,-0.113425926,1,0,0,zegel,0,52,52,46,1
,,,,,,00095,2023-11-22_17h00.05.396,vbt_B2_day2,2022.2.4,Win32,59.95203837,,,,,,,,,,,,,,,,,,,,,,,,,,,,,,,,,,,,,,,,,,koorts,images/br_koorts.png,images/cb_koorts.png,,koorts,,,,,,,,,,,0.016203704,-0.113425926,1,0,0,koorts,0,53,53,50,1
,,,,,,00095,2023-11-22_17h00.05.396,vbt_B2_day2,2022.2.4,Win32,59.95203837,,,,,,,,,,,,,,,,,,,,,,,,,,,,,,,,,,,,,,,,,,kasteel,images/br_kasteel.png,images/cb_kasteel.png,,kasteel,,,,,,,,,,,0.053240741,-0.131944444,1,0,0,kasteel,0,54,54,14,1
,,,,,,00095,2023-11-22_17h00.05.396,vbt_B2_day2,2022.2.4,Win32,59.95203837,,,,,,,,,,,,,,,,,,,,,,,,,,,,,,,,,,,,,,,,,,jagen,images/br_jagen.png,images/cb_jagen.png,,jagen,,,,,,,,,,,0.053240741,-0.134259259,1,0,0,jagen,0,55,55,6,1
,,,,,,00095,2023-11-22_17h00.05.396,vbt_B2_day2,2022.2.4,Win32,59.95203837,,,,,,,,,,,,,,,,,,,,,,,,,,,,,,,,,,,,,,,,,,feestdag,images/br_feestdag.png,images/cb_feestdag.png,,feestdag,,,,,,,,,,,0.053240741,-0.134259259,1,0,0,feestdag,0,56,56,17,1
,,,,,,00095,2023-11-22_17h00.05.396,vbt_B2_day2,2022.2.4,Win32,59.95203837,,,,,,,,,,,,,,,,,,,,,,,,,,,,,,,,,,,,,,,,,,opdatten,images/br_opdatten.png,images/cb_opdatten.png,,opdatten,,,,,,,,,,,0.055555556,-0.135416667,1,0,0,opdatten,0,57,57,37,1
,,,,,,00095,2023-11-22_17h00.05.396,vbt_B2_day2,2022.2.4,Win32,59.95203837,,,,,,,,,,,,,,,,,,,,,,,,,,,,,,,,,,,,,,,,,,heengeen,images/br_heengeen.png,images/cb_heengeen.png,,heengeen,,,,,,,,,,,0.059027778,-0.122685185,1,0,0,heengeen,0,58,58,38,1
,,,,,,00095,2023-11-22_17h00.05.396,vbt_B2_day2,2022.2.4,Win32,59.95203837,,,,,,,,,,,,,,,,,,,,,,,,,,,,,,,,,,,,,,,,,,zomers,images/br_zomers.png,images/cb_zomers.png,,zomers,,,,,,,,,,,0.016203704,-0.123842593,1,0,0,zomers,0,59,59,48,1
,,,,,,00095,2023-11-22_17h00.05.396,vbt_B2_day2,2022.2.4,Win32,59.95203837,,,,,,,,,,,,,,,,,,,,,,,,,,,,,,,,,,,,,,,,,,,,,,,,,,,,,,,,,,,,,,,,,,,
