welcome_mouse.x,welcome_mouse.y,welcome_mouse.leftButton,welcome_mouse.midButton,welcome_mouse.rightButton,welcome_mouse.time,"ID",date,expName,psychopyVersion,OS,frameRate,refresh_mouse.x,refresh_mouse.y,refresh_mouse.leftButton,refresh_mouse.midButton,refresh_mouse.rightButton,refresh_mouse.time,braille_mouse.x,braille_mouse.y,braille_mouse.leftButton,braille_mouse.midButton,braille_mouse.rightButton,braille_mouse.time,trials.thisRepN,trials.thisTrialN,trials.thisN,trials.thisIndex,trials.ran,nlLet,brLet,cbLet,trainInstr_mouse.x,trainInstr_mouse.y,trainInstr_mouse.leftButton,trainInstr_mouse.midButton,trainInstr_mouse.rightButton,trainInstr_mouse.time,translation_key.keys,translation_key.corr,translation_key.rt,word_rsp.text,word_mouse.x,word_mouse.y,word_mouse.leftButton,word_mouse.midButton,word_mouse.rightButton,word_mouse.time,train_loop.thisRepN,train_loop.thisTrialN,train_loop.thisN,train_loop.thisIndex,train_loop.ran,nlWrd,brWrd,cbWrd,test,testResp,mouse.x,mouse.y,mouse.leftButton,mouse.midButton,mouse.rightButton,testInstr_mouse.x,testInstr_mouse.y,testInstr_mouse.leftButton,testInstr_mouse.midButton,testInstr_mouse.rightButton,test_mouse.x,test_mouse.y,test_mouse.leftButton,test_mouse.midButton,test_mouse.rightButton,test_response.text,test_loop.thisRepN,test_loop.thisTrialN,test_loop.thisN,test_loop.thisIndex,test_loop.ran
-0.072222222,-0.063333333,1,0,0,3.098,00071,2023-10-14_15h33.33.540,vbt_B2_day2,2022.2.4,MacIntel,166.6666667,,,,,,,,,,,,,,,,,,,,,,,,,,,,,,,,,,,,,,,,,,,,,,,,,,,,,,,,,,,,,,,,,,,
,,,,,,00071,2023-10-14_15h33.33.540,vbt_B2_day2,2022.2.4,MacIntel,166.6666667,-0.072222222,-0.063333333,1,0,0,2.881,,,,,,,,,,,,,,,,,,,,,,,,,,,,,,,,,,,,,,,,,,,,,,,,,,,,,,,,,,,,,
,,,,,,00071,2023-10-14_15h33.33.540,vbt_B2_day2,2022.2.4,MacIntel,166.6666667,,,,,,,-0.072222222,-0.063333333,1,0,0,3.001,0,0,0,12,1,m,images/br_m.png,images/cb_m.png,,,,,,,,,,,,,,,,,,,,,,,,,,,,,,,,,,,,,,,,,,,,,,,
,,,,,,00071,2023-10-14_15h33.33.540,vbt_B2_day2,2022.2.4,MacIntel,166.6666667,,,,,,,-0.072222222,-0.063333333,1,0,0,0.449,0,1,1,10,1,k,images/br_k.png,images/cb_k.png,,,,,,,,,,,,,,,,,,,,,,,,,,,,,,,,,,,,,,,,,,,,,,,
,,,,,,00071,2023-10-14_15h33.33.540,vbt_B2_day2,2022.2.4,MacIntel,166.6666667,,,,,,,-0.072222222,-0.063333333,1,0,0,0.683,0,2,2,0,1,a,images/br_a.png,images/cb_a.png,,,,,,,,,,,,,,,,,,,,,,,,,,,,,,,,,,,,,,,,,,,,,,,
,,,,,,00071,2023-10-14_15h33.33.540,vbt_B2_day2,2022.2.4,MacIntel,166.6666667,,,,,,,-0.072222222,-0.063333333,1,0,0,0.716,0,3,3,13,1,n,images/br_n.png,images/cb_n.png,,,,,,,,,,,,,,,,,,,,,,,,,,,,,,,,,,,,,,,,,,,,,,,
,,,,,,00071,2023-10-14_15h33.33.540,vbt_B2_day2,2022.2.4,MacIntel,166.6666667,,,,,,,-0.072222222,-0.063333333,1,0,0,0.666,0,4,4,21,1,v,images/br_v.png,images/cb_v.png,,,,,,,,,,,,,,,,,,,,,,,,,,,,,,,,,,,,,,,,,,,,,,,
,,,,,,00071,2023-10-14_15h33.33.540,vbt_B2_day2,2022.2.4,MacIntel,166.6666667,,,,,,,-0.072222222,-0.063333333,1,0,0,0.067,0,5,5,1,1,b,images/br_b.png,images/cb_b.png,,,,,,,,,,,,,,,,,,,,,,,,,,,,,,,,,,,,,,,,,,,,,,,
,,,,,,00071,2023-10-14_15h33.33.540,vbt_B2_day2,2022.2.4,MacIntel,166.6666667,,,,,,,0.123333333,-0.043333333,1,0,0,1.049,0,6,6,3,1,d,images/br_d.png,images/cb_d.png,,,,,,,,,,,,,,,,,,,,,,,,,,,,,,,,,,,,,,,,,,,,,,,
,,,,,,00071,2023-10-14_15h33.33.540,vbt_B2_day2,2022.2.4,MacIntel,166.6666667,,,,,,,0.123333333,-0.043333333,1,0,0,0.251,0,7,7,19,1,t,images/br_t.png,images/cb_t.png,,,,,,,,,,,,,,,,,,,,,,,,,,,,,,,,,,,,,,,,,,,,,,,
,,,,,,00071,2023-10-14_15h33.33.540,vbt_B2_day2,2022.2.4,MacIntel,166.6666667,,,,,,,0.123333333,-0.041111111,1,0,0,0.033,0,8,8,5,1,f,images/br_f.png,images/cb_f.png,,,,,,,,,,,,,,,,,,,,,,,,,,,,,,,,,,,,,,,,,,,,,,,
,,,,,,00071,2023-10-14_15h33.33.540,vbt_B2_day2,2022.2.4,MacIntel,166.6666667,,,,,,,0.123333333,-0.041111111,1,0,0,0.499,0,9,9,15,1,p,images/br_p.png,images/cb_p.png,,,,,,,,,,,,,,,,,,,,,,,,,,,,,,,,,,,,,,,,,,,,,,,
,,,,,,00071,2023-10-14_15h33.33.540,vbt_B2_day2,2022.2.4,MacIntel,166.6666667,,,,,,,0.123333333,-0.041111111,1,0,0,4.667,0,10,10,25,1,z,images/br_z.png,images/cb_z.png,,,,,,,,,,,,,,,,,,,,,,,,,,,,,,,,,,,,,,,,,,,,,,,
,,,,,,00071,2023-10-14_15h33.33.540,vbt_B2_day2,2022.2.4,MacIntel,166.6666667,,,,,,,0.123333333,-0.041111111,1,0,0,0.65,0,11,11,8,1,i,images/br_i.png,images/cb_i.png,,,,,,,,,,,,,,,,,,,,,,,,,,,,,,,,,,,,,,,,,,,,,,,
,,,,,,00071,2023-10-14_15h33.33.540,vbt_B2_day2,2022.2.4,MacIntel,166.6666667,,,,,,,0.123333333,-0.041111111,1,0,0,0.734,0,12,12,4,1,e,images/br_e.png,images/cb_e.png,,,,,,,,,,,,,,,,,,,,,,,,,,,,,,,,,,,,,,,,,,,,,,,
,,,,,,00071,2023-10-14_15h33.33.540,vbt_B2_day2,2022.2.4,MacIntel,166.6666667,,,,,,,0.123333333,-0.041111111,1,0,0,2.534,0,13,13,24,1,y,images/br_y.png,images/cb_y.png,,,,,,,,,,,,,,,,,,,,,,,,,,,,,,,,,,,,,,,,,,,,,,,
,,,,,,00071,2023-10-14_15h33.33.540,vbt_B2_day2,2022.2.4,MacIntel,166.6666667,,,,,,,0.123333333,-0.041111111,1,0,0,0.851,0,14,14,6,1,g,images/br_g.png,images/cb_g.png,,,,,,,,,,,,,,,,,,,,,,,,,,,,,,,,,,,,,,,,,,,,,,,
,,,,,,00071,2023-10-14_15h33.33.540,vbt_B2_day2,2022.2.4,MacIntel,166.6666667,,,,,,,0.123333333,-0.041111111,1,0,0,0.116,0,15,15,22,1,w,images/br_w.png,images/cb_w.png,,,,,,,,,,,,,,,,,,,,,,,,,,,,,,,,,,,,,,,,,,,,,,,
,,,,,,00071,2023-10-14_15h33.33.540,vbt_B2_day2,2022.2.4,MacIntel,166.6666667,,,,,,,0.123333333,-0.041111111,1,0,0,2.849,0,16,16,18,1,s,images/br_s.png,images/cb_s.png,,,,,,,,,,,,,,,,,,,,,,,,,,,,,,,,,,,,,,,,,,,,,,,
,,,,,,00071,2023-10-14_15h33.33.540,vbt_B2_day2,2022.2.4,MacIntel,166.6666667,,,,,,,0.123333333,-0.041111111,1,0,0,1.216,0,17,17,11,1,l,images/br_l.png,images/cb_l.png,,,,,,,,,,,,,,,,,,,,,,,,,,,,,,,,,,,,,,,,,,,,,,,
,,,,,,00071,2023-10-14_15h33.33.540,vbt_B2_day2,2022.2.4,MacIntel,166.6666667,,,,,,,0.123333333,-0.041111111,1,0,0,0.133,0,18,18,23,1,x,images/br_x.png,images/cb_x.png,,,,,,,,,,,,,,,,,,,,,,,,,,,,,,,,,,,,,,,,,,,,,,,
,,,,,,00071,2023-10-14_15h33.33.540,vbt_B2_day2,2022.2.4,MacIntel,166.6666667,,,,,,,0.123333333,-0.041111111,1,0,0,0.416,0,19,19,9,1,j,images/br_j.png,images/cb_j.png,,,,,,,,,,,,,,,,,,,,,,,,,,,,,,,,,,,,,,,,,,,,,,,
,,,,,,00071,2023-10-14_15h33.33.540,vbt_B2_day2,2022.2.4,MacIntel,166.6666667,,,,,,,0.123333333,-0.041111111,1,0,0,0.384,0,20,20,7,1,h,images/br_h.png,images/cb_h.png,,,,,,,,,,,,,,,,,,,,,,,,,,,,,,,,,,,,,,,,,,,,,,,
,,,,,,00071,2023-10-14_15h33.33.540,vbt_B2_day2,2022.2.4,MacIntel,166.6666667,,,,,,,0.123333333,-0.041111111,1,0,0,0.317,0,21,21,14,1,o,images/br_o.png,images/cb_o.png,,,,,,,,,,,,,,,,,,,,,,,,,,,,,,,,,,,,,,,,,,,,,,,
,,,,,,00071,2023-10-14_15h33.33.540,vbt_B2_day2,2022.2.4,MacIntel,166.6666667,,,,,,,0.123333333,-0.041111111,1,0,0,0.134,0,22,22,2,1,c,images/br_c.png,images/cb_c.png,,,,,,,,,,,,,,,,,,,,,,,,,,,,,,,,,,,,,,,,,,,,,,,
,,,,,,00071,2023-10-14_15h33.33.540,vbt_B2_day2,2022.2.4,MacIntel,166.6666667,,,,,,,0.123333333,-0.041111111,1,0,0,1.251,0,23,23,20,1,u,images/br_u.png,images/cb_u.png,,,,,,,,,,,,,,,,,,,,,,,,,,,,,,,,,,,,,,,,,,,,,,,
,,,,,,00071,2023-10-14_15h33.33.540,vbt_B2_day2,2022.2.4,MacIntel,166.6666667,,,,,,,0.123333333,-0.041111111,1,0,0,0.666,0,24,24,17,1,r,images/br_r.png,images/cb_r.png,,,,,,,,,,,,,,,,,,,,,,,,,,,,,,,,,,,,,,,,,,,,,,,
,,,,,,00071,2023-10-14_15h33.33.540,vbt_B2_day2,2022.2.4,MacIntel,166.6666667,,,,,,,0.123333333,-0.041111111,1,0,0,1.233,0,25,25,16,1,q,images/br_q.png,images/cb_q.png,,,,,,,,,,,,,,,,,,,,,,,,,,,,,,,,,,,,,,,,,,,,,,,
,,,,,,00071,2023-10-14_15h33.33.540,vbt_B2_day2,2022.2.4,MacIntel,166.6666667,,,,,,,,,,,,,,,,,,,,,0.198888889,-0.096666667,1,0,0,20.615,,,,,,,,,,,,,,,,,,,,,,,,,,,,,,,,,,,,,,,,,
,,,,,,00071,2023-10-14_15h33.33.540,vbt_B2_day2,2022.2.4,MacIntel,166.6666667,,,,,,,,,,,,,,,,,,,,,,,,,,,down,0,11.541,,0.198888889,-0.096666667,1,0,0,2,0,0,0,102,1,legaal,images/br_legaal.png,images/cb_legaal.png,0,,,,,,,,,,,,,,,,,,,,,,
,,,,,,00071,2023-10-14_15h33.33.540,vbt_B2_day2,2022.2.4,MacIntel,166.6666667,,,,,,,,,,,,,,,,,,,,,,,,,,,down,0,2.216,,0.198888889,-0.096666667,1,0,0,0.951,0,1,1,34,1,vorm,images/br_vorm.png,images/cb_vorm.png,0,,,,,,,,,,,,,,,,,,,,,,
,,,,,,00071,2023-10-14_15h33.33.540,vbt_B2_day2,2022.2.4,MacIntel,166.6666667,,,,,,,,,,,,,,,,,,,,,,,,,,,down,0,18.342,,0.198888889,-0.096666667,1,0,0,0.867,0,2,2,124,1,bloeien,images/br_bloeien.png,images/cb_bloeien.png,0,,,,,,,,,,,,,,,,,,,,,,
,,,,,,00071,2023-10-14_15h33.33.540,vbt_B2_day2,2022.2.4,MacIntel,166.6666667,,,,,,,,,,,,,,,,,,,,,,,,,,,down,0,15.183,,0.198888889,-0.096666667,1,0,0,5.1,0,3,3,67,1,zwart,images/br_zwart.png,images/cb_zwart.png,0,,,,,,,,,,,,,,,,,,,,,,
,,,,,,00071,2023-10-14_15h33.33.540,vbt_B2_day2,2022.2.4,MacIntel,166.6666667,,,,,,,,,,,,,,,,,,,,,,,,,,,down,0,14.621,,0.198888889,-0.096666667,1,0,0,0.618,0,4,4,106,1,zingen,images/br_zingen.png,images/cb_zingen.png,0,,,,,,,,,,,,,,,,,,,,,,
,,,,,,00071,2023-10-14_15h33.33.540,vbt_B2_day2,2022.2.4,MacIntel,166.6666667,,,,,,,,,,,,,,,,,,,,,,,,,,,down,0,18.628,,0.198888889,-0.096666667,1,0,0,2.618,0,5,5,188,1,strekken,images/br_strekken.png,images/cb_strekken.png,0,,,,,,,,,,,,,,,,,,,,,,
,,,,,,00071,2023-10-14_15h33.33.540,vbt_B2_day2,2022.2.4,MacIntel,166.6666667,,,,,,,,,,,,,,,,,,,,,,,,,,,down,0,12.574,,0.198888889,-0.093333333,1,0,0,0.951,0,6,6,143,1,hechten,images/br_hechten.png,images/cb_hechten.png,0,,,,,,,,,,,,,,,,,,,,,,
,,,,,,00071,2023-10-14_15h33.33.540,vbt_B2_day2,2022.2.4,MacIntel,166.6666667,,,,,,,,,,,,,,,,,,,,,,,,,,,down,0,7.349,,0.198888889,-0.093333333,1,0,0,0.851,0,7,7,74,1,graaf,images/br_graaf.png,images/cb_graaf.png,0,,,,,,,,,,,,,,,,,,,,,,
,,,,,,00071,2023-10-14_15h33.33.540,vbt_B2_day2,2022.2.4,MacIntel,166.6666667,,,,,,,,,,,,,,,,,,,,,,,,,,,down,0,6.834,,0.198888889,-0.093333333,1,0,0,0.499,0,8,8,11,1,mode,images/br_mode.png,images/cb_mode.png,0,,,,,,,,,,,,,,,,,,,,,,
,,,,,,00071,2023-10-14_15h33.33.540,vbt_B2_day2,2022.2.4,MacIntel,166.6666667,,,,,,,,,,,,,,,,,,,,,,,,,,,down,0,11.987,,0.198888889,-0.093333333,1,0,0,0.633,0,9,9,65,1,parel,images/br_parel.png,images/cb_parel.png,0,,,,,,,,,,,,,,,,,,,,,,
,,,,,,00071,2023-10-14_15h33.33.540,vbt_B2_day2,2022.2.4,MacIntel,166.6666667,,,,,,,,,,,,,,,,,,,,,,,,,,,down,0,5.069,,0.198888889,-0.093333333,1,0,0,0.699,0,10,10,68,1,schat,images/br_schat.png,images/cb_schat.png,0,,,,,,,,,,,,,,,,,,,,,,
,,,,,,00071,2023-10-14_15h33.33.540,vbt_B2_day2,2022.2.4,MacIntel,166.6666667,,,,,,,,,,,,,,,,,,,,,,,,,,,down,0,19.379,,0.198888889,-0.093333333,1,0,0,0.517,0,11,11,195,1,middelen,images/br_middelen.png,images/cb_middelen.png,0,,,,,,,,,,,,,,,,,,,,,,
,,,,,,00071,2023-10-14_15h33.33.540,vbt_B2_day2,2022.2.4,MacIntel,166.6666667,,,,,,,,,,,,,,,,,,,,,,,,,,,down,0,14.844,,0.198888889,-0.093333333,1,0,0,0.751,0,12,12,133,1,seizoen,images/br_seizoen.png,images/cb_seizoen.png,0,,,,,,,,,,,,,,,,,,,,,,
,,,,,,00071,2023-10-14_15h33.33.540,vbt_B2_day2,2022.2.4,MacIntel,166.6666667,,,,,,,,,,,,,,,,,,,,,,,,,,,down,0,18.054,,0.198888889,-0.093333333,1,0,0,0.733,0,13,13,185,1,mijnheer,images/br_mijnheer.png,images/cb_mijnheer.png,0,,,,,,,,,,,,,,,,,,,,,,
,,,,,,00071,2023-10-14_15h33.33.540,vbt_B2_day2,2022.2.4,MacIntel,166.6666667,,,,,,,,,,,,,,,,,,,,,,,,,,,down,0,26.335,,0.264444444,0.132222222,1,0,0,0.682,0,14,14,142,1,snuiven,images/br_snuiven.png,images/cb_snuiven.png,0,,,,,,,,,,,,,,,,,,,,,,
,,,,,,00071,2023-10-14_15h33.33.540,vbt_B2_day2,2022.2.4,MacIntel,166.6666667,,,,,,,,,,,,,,,,,,,,,,,,,,,down,0,11.777,,0.264444444,0.132222222,1,0,0,0.617,0,15,15,194,1,driemaal,images/br_driemaal.png,images/cb_driemaal.png,0,,,,,,,,,,,,,,,,,,,,,,
,,,,,,00071,2023-10-14_15h33.33.540,vbt_B2_day2,2022.2.4,MacIntel,166.6666667,,,,,,,,,,,,,,,,,,,,,,,,,,,down,0,21.34,,0.264444444,0.132222222,1,0,0,8.235,0,16,16,161,1,attentie,images/br_attentie.png,images/cb_attentie.png,0,,,,,,,,,,,,,,,,,,,,,,
,,,,,,00071,2023-10-14_15h33.33.540,vbt_B2_day2,2022.2.4,MacIntel,166.6666667,,,,,,,,,,,,,,,,,,,,,,,,,,,down,0,15.217,,-0.151111111,-0.002222222,1,0,0,1.867,0,17,17,85,1,heilig,images/br_heilig.png,images/cb_heilig.png,0,,,,,,,,,,,,,,,,,,,,,,
,,,,,,00071,2023-10-14_15h33.33.540,vbt_B2_day2,2022.2.4,MacIntel,166.6666667,,,,,,,,,,,,,,,,,,,,,,,,,,,down,0,8.959,,-0.151111111,-0.002222222,1,0,0,0.467,0,18,18,5,1,blad,images/br_blad.png,images/cb_blad.png,0,,,,,,,,,,,,,,,,,,,,,,
,,,,,,00071,2023-10-14_15h33.33.540,vbt_B2_day2,2022.2.4,MacIntel,166.6666667,,,,,,,,,,,,,,,,,,,,,,,,,,,down,0,12.585,,-0.06,0.241111111,1,0,0,1.018,0,19,19,69,1,waken,images/br_waken.png,images/cb_waken.png,0,,,,,,,,,,,,,,,,,,,,,,
,,,,,,00071,2023-10-14_15h33.33.540,vbt_B2_day2,2022.2.4,MacIntel,166.6666667,,,,,,,,,,,,,,,,,,,,,,,,,,,down,0,2.916,,-0.06,0.241111111,1,0,0,0.799,0,20,20,48,1,steel,images/br_steel.png,images/cb_steel.png,0,,,,,,,,,,,,,,,,,,,,,,
,,,,,,00071,2023-10-14_15h33.33.540,vbt_B2_day2,2022.2.4,MacIntel,166.6666667,,,,,,,,,,,,,,,,,,,,,,,,,,,down,0,6.791,,-0.06,0.241111111,1,0,0,0.533,0,21,21,170,1,schatten,images/br_schatten.png,images/cb_schatten.png,0,,,,,,,,,,,,,,,,,,,,,,
,,,,,,00071,2023-10-14_15h33.33.540,vbt_B2_day2,2022.2.4,MacIntel,166.6666667,,,,,,,,,,,,,,,,,,,,,,,,,,,down,0,9.367,,-0.06,0.241111111,1,0,0,2.083,0,22,22,186,1,voorraad,images/br_voorraad.png,images/cb_voorraad.png,0,,,,,,,,,,,,,,,,,,,,,,
,,,,,,00071,2023-10-14_15h33.33.540,vbt_B2_day2,2022.2.4,MacIntel,166.6666667,,,,,,,,,,,,,,,,,,,,,,,,,,,down,0,5.859,,-0.06,0.241111111,1,0,0,0.518,0,23,23,76,1,afval,images/br_afval.png,images/cb_afval.png,0,,,,,,,,,,,,,,,,,,,,,,
,,,,,,00071,2023-10-14_15h33.33.540,vbt_B2_day2,2022.2.4,MacIntel,166.6666667,,,,,,,,,,,,,,,,,,,,,,,,,,,down,0,5.09,,-0.06,0.241111111,1,0,0,0.601,0,24,24,26,1,leuk,images/br_leuk.png,images/cb_leuk.png,0,,,,,,,,,,,,,,,,,,,,,,
,,,,,,00071,2023-10-14_15h33.33.540,vbt_B2_day2,2022.2.4,MacIntel,166.6666667,,,,,,,,,,,,,,,,,,,,,,,,,,,down,0,5.033,,-0.06,0.241111111,1,0,0,0.484,0,25,25,127,1,doodmoe,images/br_doodmoe.png,images/cb_doodmoe.png,0,,,,,,,,,,,,,,,,,,,,,,
,,,,,,00071,2023-10-14_15h33.33.540,vbt_B2_day2,2022.2.4,MacIntel,166.6666667,,,,,,,,,,,,,,,,,,,,,,,,,,,down,0,12.532,,-0.06,0.241111111,1,0,0,0.801,0,26,26,140,1,blijven,images/br_blijven.png,images/cb_blijven.png,0,,,,,,,,,,,,,,,,,,,,,,
,,,,,,00071,2023-10-14_15h33.33.540,vbt_B2_day2,2022.2.4,MacIntel,166.6666667,,,,,,,,,,,,,,,,,,,,,,,,,,,down,0,18.951,,-0.06,0.241111111,1,0,0,0.55,0,27,27,60,1,jasje,images/br_jasje.png,images/cb_jasje.png,0,,,,,,,,,,,,,,,,,,,,,,
,,,,,,00071,2023-10-14_15h33.33.540,vbt_B2_day2,2022.2.4,MacIntel,166.6666667,,,,,,,,,,,,,,,,,,,,,,,,,,,down,0,7.223,,-0.06,0.241111111,1,0,0,0.534,0,28,28,167,1,eenhoorn,images/br_eenhoorn.png,images/cb_eenhoorn.png,0,,,,,,,,,,,,,,,,,,,,,,
,,,,,,00071,2023-10-14_15h33.33.540,vbt_B2_day2,2022.2.4,MacIntel,166.6666667,,,,,,,,,,,,,,,,,,,,,,,,,,,down,0,7.916,,-0.06,0.241111111,1,0,0,0.534,0,29,29,116,1,besmet,images/br_besmet.png,images/cb_besmet.png,0,,,,,,,,,,,,,,,,,,,,,,
,,,,,,00071,2023-10-14_15h33.33.540,vbt_B2_day2,2022.2.4,MacIntel,166.6666667,,,,,,,,,,,,,,,,,,,,,,,,,,,down,0,5.573,,-0.06,0.241111111,1,0,0,0.568,0,30,30,82,1,muziek,images/br_muziek.png,images/cb_muziek.png,0,,,,,,,,,,,,,,,,,,,,,,
,,,,,,00071,2023-10-14_15h33.33.540,vbt_B2_day2,2022.2.4,MacIntel,166.6666667,,,,,,,,,,,,,,,,,,,,,,,,,,,down,0,7.451,,-0.06,0.241111111,1,0,0,0.483,0,31,31,112,1,lukken,images/br_lukken.png,images/cb_lukken.png,0,,,,,,,,,,,,,,,,,,,,,,
,,,,,,00071,2023-10-14_15h33.33.540,vbt_B2_day2,2022.2.4,MacIntel,166.6666667,,,,,,,,,,,,,,,,,,,,,,,,,,,down,0,4.101,,-0.06,0.241111111,1,0,0,0.583,0,32,32,43,1,klauw,images/br_klauw.png,images/cb_klauw.png,0,,,,,,,,,,,,,,,,,,,,,,
,,,,,,00071,2023-10-14_15h33.33.540,vbt_B2_day2,2022.2.4,MacIntel,166.6666667,,,,,,,,,,,,,,,,,,,,,,,,,,,down,0,6.3,,0.06,0.185555556,1,0,0,2.416,0,33,33,57,1,steek,images/br_steek.png,images/cb_steek.png,1,steek,,,,,,,,,,,,,,,,,,,,,
,,,,,,00071,2023-10-14_15h33.33.540,vbt_B2_day2,2022.2.4,MacIntel,166.6666667,,,,,,,,,,,,,,,,,,,,,,,,,,,down,0,5.872,,0.06,0.185555556,1,0,0,0.517,0,34,34,79,1,nodig,images/br_nodig.png,images/cb_nodig.png,0,,,,,,,,,,,,,,,,,,,,,,
,,,,,,00071,2023-10-14_15h33.33.540,vbt_B2_day2,2022.2.4,MacIntel,166.6666667,,,,,,,,,,,,,,,,,,,,,,,,,,,down,0,2.401,,0.06,0.185555556,1,0,0,0.384,0,35,35,39,1,laag,images/br_laag.png,images/cb_laag.png,0,,,,,,,,,,,,,,,,,,,,,,
,,,,,,00071,2023-10-14_15h33.33.540,vbt_B2_day2,2022.2.4,MacIntel,166.6666667,,,,,,,,,,,,,,,,,,,,,,,,,,,down,0,7.159,,0.06,0.185555556,1,0,0,0.6,0,36,36,114,1,vullen,images/br_vullen.png,images/cb_vullen.png,0,,,,,,,,,,,,,,,,,,,,,,
,,,,,,00071,2023-10-14_15h33.33.540,vbt_B2_day2,2022.2.4,MacIntel,166.6666667,,,,,,,,,,,,,,,,,,,,,,,,,,,down,0,13.883,,0.06,0.185555556,1,0,0,0.449,0,37,37,172,1,weigeren,images/br_weigeren.png,images/cb_weigeren.png,0,,,,,,,,,,,,,,,,,,,,,,
,,,,,,00071,2023-10-14_15h33.33.540,vbt_B2_day2,2022.2.4,MacIntel,166.6666667,,,,,,,,,,,,,,,,,,,,,,,,,,,down,0,7.184,,0.06,0.185555556,1,0,0,0.501,0,38,38,23,1,zout,images/br_zout.png,images/cb_zout.png,0,,,,,,,,,,,,,,,,,,,,,,
,,,,,,00071,2023-10-14_15h33.33.540,vbt_B2_day2,2022.2.4,MacIntel,166.6666667,,,,,,,,,,,,,,,,,,,,,,,,,,,down,0,7.699,,0.06,0.185555556,1,0,0,0.716,0,39,39,47,1,kabel,images/br_kabel.png,images/cb_kabel.png,0,,,,,,,,,,,,,,,,,,,,,,
,,,,,,00071,2023-10-14_15h33.33.540,vbt_B2_day2,2022.2.4,MacIntel,166.6666667,,,,,,,,,,,,,,,,,,,,,,,,,,,down,0,4.192,,0.06,0.185555556,1,0,0,0.467,0,40,40,51,1,samen,images/br_samen.png,images/cb_samen.png,0,,,,,,,,,,,,,,,,,,,,,,
,,,,,,00071,2023-10-14_15h33.33.540,vbt_B2_day2,2022.2.4,MacIntel,166.6666667,,,,,,,,,,,,,,,,,,,,,,,,,,,down,0,9.469,,0.06,0.185555556,1,0,0,1.734,0,41,41,77,1,woede,images/br_woede.png,images/cb_woede.png,0,,,,,,,,,,,,,,,,,,,,,,
,,,,,,00071,2023-10-14_15h33.33.540,vbt_B2_day2,2022.2.4,MacIntel,166.6666667,,,,,,,,,,,,,,,,,,,,,,,,,,,down,0,6.668,,0.121111111,-0.141111111,1,0,0,2.416,0,42,42,59,1,kring,images/br_kring.png,images/cb_kring.png,1,kring,,,,,,,,,,,,,,,,,,,,,
,,,,,,00071,2023-10-14_15h33.33.540,vbt_B2_day2,2022.2.4,MacIntel,166.6666667,,,,,,,,,,,,,,,,,,,,,,,,,,,down,0,3.582,,0.121111111,-0.141111111,1,0,0,0.517,0,43,43,171,1,aarzelen,images/br_aarzelen.png,images/cb_aarzelen.png,0,,,,,,,,,,,,,,,,,,,,,,
,,,,,,00071,2023-10-14_15h33.33.540,vbt_B2_day2,2022.2.4,MacIntel,166.6666667,,,,,,,,,,,,,,,,,,,,,,,,,,,down,0,6.051,,0.478888889,-0.006666667,1,0,0,5.883,0,44,44,179,1,woestijn,images/br_woestijn.png,images/cb_woestijn.png,1,woestijnwoestijn,,,,,,,,,,,,,,,,,,,,,
,,,,,,00071,2023-10-14_15h33.33.540,vbt_B2_day2,2022.2.4,MacIntel,166.6666667,,,,,,,,,,,,,,,,,,,,,,,,,,,down,0,12.427,,0.478888889,-0.006666667,1,0,0,0.618,0,45,45,92,1,geheim,images/br_geheim.png,images/cb_geheim.png,0,,,,,,,,,,,,,,,,,,,,,,
,,,,,,00071,2023-10-14_15h33.33.540,vbt_B2_day2,2022.2.4,MacIntel,166.6666667,,,,,,,,,,,,,,,,,,,,,,,,,,,down,0,13.05,,0.472222222,0.234444444,1,0,0,0.451,0,46,46,27,1,dans,images/br_dans.png,images/cb_dans.png,0,,,,,,,,,,,,,,,,,,,,,,
,,,,,,00071,2023-10-14_15h33.33.540,vbt_B2_day2,2022.2.4,MacIntel,166.6666667,,,,,,,,,,,,,,,,,,,,,,,,,,,down,0,0.886,,0.472222222,0.232222222,1,0,0,0.582,0,47,47,10,1,leek,images/br_leek.png,images/cb_leek.png,0,,,,,,,,,,,,,,,,,,,,,,
,,,,,,00071,2023-10-14_15h33.33.540,vbt_B2_day2,2022.2.4,MacIntel,166.6666667,,,,,,,,,,,,,,,,,,,,,,,,,,,down,0,3.038,,0.628888889,0.198888889,1,0,0,0.868,0,48,48,19,1,geit,images/br_geit.png,images/cb_geit.png,1,geit,,,,,,,,,,,,,,,,,,,,,
,,,,,,00071,2023-10-14_15h33.33.540,vbt_B2_day2,2022.2.4,MacIntel,166.6666667,,,,,,,,,,,,,,,,,,,,,,,,,,,down,0,9.592,,0.187777778,0.122222222,1,0,0,0.667,0,49,49,62,1,knaap,images/br_knaap.png,images/cb_knaap.png,0,,,,,,,,,,,,,,,,,,,,,,
,,,,,,00071,2023-10-14_15h33.33.540,vbt_B2_day2,2022.2.4,MacIntel,166.6666667,,,,,,,,,,,,,,,,,,,,,,,,,,,down,0,4.294,,0.187777778,0.122222222,1,0,0,0.483,0,50,50,1,1,zaal,images/br_zaal.png,images/cb_zaal.png,0,,,,,,,,,,,,,,,,,,,,,,
,,,,,,00071,2023-10-14_15h33.33.540,vbt_B2_day2,2022.2.4,MacIntel,166.6666667,,,,,,,,,,,,,,,,,,,,,,,,,,,down,0,8.925,,0.187777778,0.122222222,1,0,0,0.533,0,51,51,132,1,grappen,images/br_grappen.png,images/cb_grappen.png,0,,,,,,,,,,,,,,,,,,,,,,
,,,,,,00071,2023-10-14_15h33.33.540,vbt_B2_day2,2022.2.4,MacIntel,166.6666667,,,,,,,,,,,,,,,,,,,,,,,,,,,down,0,4.09,,0.187777778,0.122222222,1,0,0,0.467,0,52,52,160,1,daarheen,images/br_daarheen.png,images/cb_daarheen.png,0,,,,,,,,,,,,,,,,,,,,,,
,,,,,,00071,2023-10-14_15h33.33.540,vbt_B2_day2,2022.2.4,MacIntel,166.6666667,,,,,,,,,,,,,,,,,,,,,,,,,,,down,0,3.706,,0.47,0.415555556,1,0,0,0.452,0,53,53,28,1,stal,images/br_stal.png,images/cb_stal.png,0,,,,,,,,,,,,,,,,,,,,,,
,,,,,,00071,2023-10-14_15h33.33.540,vbt_B2_day2,2022.2.4,MacIntel,166.6666667,,,,,,,,,,,,,,,,,,,,,,,,,,,down,0,3.09,,0.47,0.415555556,1,0,0,0.434,0,54,54,141,1,knielen,images/br_knielen.png,images/cb_knielen.png,0,,,,,,,,,,,,,,,,,,,,,,
,,,,,,00071,2023-10-14_15h33.33.540,vbt_B2_day2,2022.2.4,MacIntel,166.6666667,,,,,,,,,,,,,,,,,,,,,,,,,,,down,0,2.311,,0.47,0.415555556,1,0,0,0.533,0,55,55,29,1,baas,images/br_baas.png,images/cb_baas.png,0,,,,,,,,,,,,,,,,,,,,,,
,,,,,,00071,2023-10-14_15h33.33.540,vbt_B2_day2,2022.2.4,MacIntel,166.6666667,,,,,,,,,,,,,,,,,,,,,,,,,,,down,0,5.093,,0.436666667,0.173333333,1,0,0,0.734,0,56,56,97,1,loyaal,images/br_loyaal.png,images/cb_loyaal.png,1,loyaal,,,,,,,,,,,,,,,,,,,,,
,,,,,,00071,2023-10-14_15h33.33.540,vbt_B2_day2,2022.2.4,MacIntel,166.6666667,,,,,,,,,,,,,,,,,,,,,,,,,,,down,0,13.358,,0.436666667,0.173333333,1,0,0,0.451,0,57,57,182,1,bijkomen,images/br_bijkomen.png,images/cb_bijkomen.png,0,,,,,,,,,,,,,,,,,,,,,,
,,,,,,00071,2023-10-14_15h33.33.540,vbt_B2_day2,2022.2.4,MacIntel,166.6666667,,,,,,,,,,,,,,,,,,,,,,,,,,,down,0,3.21,,0.436666667,0.173333333,1,0,0,0.567,0,58,58,37,1,mijn,images/br_mijn.png,images/cb_mijn.png,0,,,,,,,,,,,,,,,,,,,,,,
,,,,,,00071,2023-10-14_15h33.33.540,vbt_B2_day2,2022.2.4,MacIntel,166.6666667,,,,,,,,,,,,,,,,,,,,,,,,,,,down,0,5.374,,0.436666667,0.173333333,1,0,0,0.434,0,59,59,144,1,eetlust,images/br_eetlust.png,images/cb_eetlust.png,0,,,,,,,,,,,,,,,,,,,,,,
,,,,,,00071,2023-10-14_15h33.33.540,vbt_B2_day2,2022.2.4,MacIntel,166.6666667,,,,,,,,,,,,,,,,,,,,,,,,,,,down,0,10.867,,0.436666667,0.173333333,1,0,0,0.749,0,60,60,105,1,wijlen,images/br_wijlen.png,images/cb_wijlen.png,0,,,,,,,,,,,,,,,,,,,,,,
,,,,,,00071,2023-10-14_15h33.33.540,vbt_B2_day2,2022.2.4,MacIntel,166.6666667,,,,,,,,,,,,,,,,,,,,,,,,,,,down,0,2.582,,0.436666667,0.173333333,1,0,0,0.717,0,61,61,64,1,wegen,images/br_wegen.png,images/cb_wegen.png,0,,,,,,,,,,,,,,,,,,,,,,
,,,,,,00071,2023-10-14_15h33.33.540,vbt_B2_day2,2022.2.4,MacIntel,166.6666667,,,,,,,,,,,,,,,,,,,,,,,,,,,down,0,5.495,,0.436666667,0.173333333,1,0,0,0.584,0,62,62,110,1,zuster,images/br_zuster.png,images/cb_zuster.png,0,,,,,,,,,,,,,,,,,,,,,,
,,,,,,00071,2023-10-14_15h33.33.540,vbt_B2_day2,2022.2.4,MacIntel,166.6666667,,,,,,,,,,,,,,,,,,,,,,,,,,,down,0,14.392,,0.436666667,0.173333333,1,0,0,0.668,0,63,63,165,1,feestdag,images/br_feestdag.png,images/cb_feestdag.png,0,,,,,,,,,,,,,,,,,,,,,,
,,,,,,00071,2023-10-14_15h33.33.540,vbt_B2_day2,2022.2.4,MacIntel,166.6666667,,,,,,,,,,,,,,,,,,,,,,,,,,,down,0,2.656,,0.436666667,0.173333333,1,0,0,0.566,0,64,64,32,1,palm,images/br_palm.png,images/cb_palm.png,0,,,,,,,,,,,,,,,,,,,,,,
,,,,,,00071,2023-10-14_15h33.33.540,vbt_B2_day2,2022.2.4,MacIntel,166.6666667,,,,,,,,,,,,,,,,,,,,,,,,,,,down,0,13.823,,0.436666667,0.173333333,1,0,0,0.501,0,65,65,70,1,ijdel,images/br_ijdel.png,images/cb_ijdel.png,0,,,,,,,,,,,,,,,,,,,,,,
,,,,,,00071,2023-10-14_15h33.33.540,vbt_B2_day2,2022.2.4,MacIntel,166.6666667,,,,,,,,,,,,,,,,,,,,,,,,,,,down,0,9.007,,0.436666667,0.173333333,1,0,0,0.434,0,66,66,196,1,nakijken,images/br_nakijken.png,images/cb_nakijken.png,0,,,,,,,,,,,,,,,,,,,,,,
,,,,,,00071,2023-10-14_15h33.33.540,vbt_B2_day2,2022.2.4,MacIntel,166.6666667,,,,,,,,,,,,,,,,,,,,,,,,,,,down,0,2.99,,0.436666667,0.173333333,1,0,0,0.366,0,67,67,78,1,leren,images/br_leren.png,images/cb_leren.png,0,,,,,,,,,,,,,,,,,,,,,,
,,,,,,00071,2023-10-14_15h33.33.540,vbt_B2_day2,2022.2.4,MacIntel,166.6666667,,,,,,,,,,,,,,,,,,,,,,,,,,,down,0,2.856,,0.436666667,0.173333333,1,0,0,0.883,0,68,68,6,1,diep,images/br_diep.png,images/cb_diep.png,0,,,,,,,,,,,,,,,,,,,,,,
,,,,,,00071,2023-10-14_15h33.33.540,vbt_B2_day2,2022.2.4,MacIntel,166.6666667,,,,,,,,,,,,,,,,,,,,,,,,,,,down,0,6.333,,0.444444444,0.196666667,1,0,0,0.483,0,69,69,91,1,gezond,images/br_gezond.png,images/cb_gezond.png,0,,,,,,,,,,,,,,,,,,,,,,
,,,,,,00071,2023-10-14_15h33.33.540,vbt_B2_day2,2022.2.4,MacIntel,166.6666667,,,,,,,,,,,,,,,,,,,,,,,,,,,down,0,10.224,,0.444444444,0.196666667,1,0,0,0.568,0,70,70,129,1,verhaal,images/br_verhaal.png,images/cb_verhaal.png,0,,,,,,,,,,,,,,,,,,,,,,
,,,,,,00071,2023-10-14_15h33.33.540,vbt_B2_day2,2022.2.4,MacIntel,166.6666667,,,,,,,,,,,,,,,,,,,,,,,,,,,down,0,4.606,,0.445555556,0.193333333,1,0,0,0.467,0,71,71,180,1,openbaar,images/br_openbaar.png,images/cb_openbaar.png,0,,,,,,,,,,,,,,,,,,,,,,
,,,,,,00071,2023-10-14_15h33.33.540,vbt_B2_day2,2022.2.4,MacIntel,166.6666667,,,,,,,,,,,,,,,,,,,,,,,,,,,down,0,2.775,,0.445555556,0.193333333,1,0,0,0.518,0,72,72,49,1,laken,images/br_laken.png,images/cb_laken.png,0,,,,,,,,,,,,,,,,,,,,,,
,,,,,,00071,2023-10-14_15h33.33.540,vbt_B2_day2,2022.2.4,MacIntel,166.6666667,,,,,,,,,,,,,,,,,,,,,,,,,,,down,0,7.856,,0.54,0.195555556,1,0,0,0.682,0,73,73,136,1,waarbij,images/br_waarbij.png,images/cb_waarbij.png,1,waarbij,,,,,,,,,,,,,,,,,,,,,
,,,,,,00071,2023-10-14_15h33.33.540,vbt_B2_day2,2022.2.4,MacIntel,166.6666667,,,,,,,,,,,,,,,,,,,,,,,,,,,down,0,13.842,,0.537777778,0.194444444,1,0,0,0.434,0,74,74,121,1,twijfel,images/br_twijfel.png,images/cb_twijfel.png,0,,,,,,,,,,,,,,,,,,,,,,
,,,,,,00071,2023-10-14_15h33.33.540,vbt_B2_day2,2022.2.4,MacIntel,166.6666667,,,,,,,,,,,,,,,,,,,,,,,,,,,down,0,4.175,,0.466666667,0.194444444,1,0,0,0.566,0,75,75,38,1,baai,images/br_baai.png,images/cb_baai.png,0,,,,,,,,,,,,,,,,,,,,,,
,,,,,,00071,2023-10-14_15h33.33.540,vbt_B2_day2,2022.2.4,MacIntel,166.6666667,,,,,,,,,,,,,,,,,,,,,,,,,,,down,0,5.635,,0.466666667,0.194444444,1,0,0,1.166,0,76,76,158,1,innemen,images/br_innemen.png,images/cb_innemen.png,0,,,,,,,,,,,,,,,,,,,,,,
,,,,,,00071,2023-10-14_15h33.33.540,vbt_B2_day2,2022.2.4,MacIntel,166.6666667,,,,,,,,,,,,,,,,,,,,,,,,,,,down,0,3.467,,0.466666667,0.194444444,1,0,0,0.433,0,77,77,118,1,vinger,images/br_vinger.png,images/cb_vinger.png,0,,,,,,,,,,,,,,,,,,,,,,
,,,,,,00071,2023-10-14_15h33.33.540,vbt_B2_day2,2022.2.4,MacIntel,166.6666667,,,,,,,,,,,,,,,,,,,,,,,,,,,down,0,5.035,,0.466666667,0.194444444,1,0,0,0.549,0,78,78,177,1,maaltijd,images/br_maaltijd.png,images/cb_maaltijd.png,1,maaltijd,,,,,,,,,,,,,,,,,,,,,
,,,,,,00071,2023-10-14_15h33.33.540,vbt_B2_day2,2022.2.4,MacIntel,166.6666667,,,,,,,,,,,,,,,,,,,,,,,,,,,down,0,12.506,,0.466666667,0.194444444,1,0,0,0.466,0,79,79,181,1,toegeven,images/br_toegeven.png,images/cb_toegeven.png,0,,,,,,,,,,,,,,,,,,,,,,
,,,,,,00071,2023-10-14_15h33.33.540,vbt_B2_day2,2022.2.4,MacIntel,166.6666667,,,,,,,,,,,,,,,,,,,,,,,,,,,down,0,2.323,,0.466666667,0.194444444,1,0,0,0.503,0,80,80,4,1,moes,images/br_moes.png,images/cb_moes.png,0,,,,,,,,,,,,,,,,,,,,,,
,,,,,,00071,2023-10-14_15h33.33.540,vbt_B2_day2,2022.2.4,MacIntel,166.6666667,,,,,,,,,,,,,,,,,,,,,,,,,,,down,0,15.671,,0.647777778,0.033333333,1,0,0,0.467,0,81,81,155,1,gerucht,images/br_gerucht.png,images/cb_gerucht.png,0,,,,,,,,,,,,,,,,,,,,,,
,,,,,,00071,2023-10-14_15h33.33.540,vbt_B2_day2,2022.2.4,MacIntel,166.6666667,,,,,,,,,,,,,,,,,,,,,,,,,,,down,0,9.868,,0.647777778,0.033333333,1,0,0,0.584,0,82,82,7,1,geld,images/br_geld.png,images/cb_geld.png,0,,,,,,,,,,,,,,,,,,,,,,
,,,,,,00071,2023-10-14_15h33.33.540,vbt_B2_day2,2022.2.4,MacIntel,166.6666667,,,,,,,,,,,,,,,,,,,,,,,,,,,down,0,7.177,,0.647777778,0.033333333,1,0,0,0.45,0,83,83,157,1,uitlaat,images/br_uitlaat.png,images/cb_uitlaat.png,0,,,,,,,,,,,,,,,,,,,,,,
,,,,,,00071,2023-10-14_15h33.33.540,vbt_B2_day2,2022.2.4,MacIntel,166.6666667,,,,,,,,,,,,,,,,,,,,,,,,,,,down,0,19.075,,0.647777778,0.033333333,1,0,0,0.434,0,84,84,164,1,anarchie,images/br_anarchie.png,images/cb_anarchie.png,0,,,,,,,,,,,,,,,,,,,,,,
,,,,,,00071,2023-10-14_15h33.33.540,vbt_B2_day2,2022.2.4,MacIntel,166.6666667,,,,,,,,,,,,,,,,,,,,,,,,,,,down,0,4.404,,0.647777778,0.033333333,1,0,0,0.434,0,85,85,58,1,tekst,images/br_tekst.png,images/cb_tekst.png,1,tekst,,,,,,,,,,,,,,,,,,,,,
,,,,,,00071,2023-10-14_15h33.33.540,vbt_B2_day2,2022.2.4,MacIntel,166.6666667,,,,,,,,,,,,,,,,,,,,,,,,,,,down,0,3.222,,0.647777778,0.033333333,1,0,0,2.251,0,86,86,113,1,koppen,images/br_koppen.png,images/cb_koppen.png,0,,,,,,,,,,,,,,,,,,,,,,
,,,,,,00071,2023-10-14_15h33.33.540,vbt_B2_day2,2022.2.4,MacIntel,166.6666667,,,,,,,,,,,,,,,,,,,,,,,,,,,down,0,2.35,,0.647777778,0.033333333,1,0,0,0.367,0,87,87,24,1,jurk,images/br_jurk.png,images/cb_jurk.png,0,,,,,,,,,,,,,,,,,,,,,,
,,,,,,00071,2023-10-14_15h33.33.540,vbt_B2_day2,2022.2.4,MacIntel,166.6666667,,,,,,,,,,,,,,,,,,,,,,,,,,,down,0,4.584,,0.647777778,0.033333333,1,0,0,0.567,0,88,88,173,1,apparaat,images/br_apparaat.png,images/cb_apparaat.png,0,,,,,,,,,,,,,,,,,,,,,,
,,,,,,00071,2023-10-14_15h33.33.540,vbt_B2_day2,2022.2.4,MacIntel,166.6666667,,,,,,,,,,,,,,,,,,,,,,,,,,,down,0,13.9,,0.647777778,0.033333333,1,0,0,0.634,0,89,89,168,1,bisschop,images/br_bisschop.png,images/cb_bisschop.png,0,,,,,,,,,,,,,,,,,,,,,,
,,,,,,00071,2023-10-14_15h33.33.540,vbt_B2_day2,2022.2.4,MacIntel,166.6666667,,,,,,,,,,,,,,,,,,,,,,,,,,,down,0,4.057,,0.611111111,0.031111111,1,0,0,1.017,0,90,90,87,1,toeval,images/br_toeval.png,images/cb_toeval.png,0,,,,,,,,,,,,,,,,,,,,,,
,,,,,,00071,2023-10-14_15h33.33.540,vbt_B2_day2,2022.2.4,MacIntel,166.6666667,,,,,,,,,,,,,,,,,,,,,,,,,,,down,0,11.309,,0.611111111,0.031111111,1,0,0,1.283,0,91,91,31,1,poes,images/br_poes.png,images/cb_poes.png,0,,,,,,,,,,,,,,,,,,,,,,
,,,,,,00071,2023-10-14_15h33.33.540,vbt_B2_day2,2022.2.4,MacIntel,166.6666667,,,,,,,,,,,,,,,,,,,,,,,,,,,down,0,6.934,,0.611111111,0.031111111,1,0,0,1.083,0,92,92,75,1,snoep,images/br_snoep.png,images/cb_snoep.png,0,,,,,,,,,,,,,,,,,,,,,,
,,,,,,00071,2023-10-14_15h33.33.540,vbt_B2_day2,2022.2.4,MacIntel,166.6666667,,,,,,,,,,,,,,,,,,,,,,,,,,,down,0,5.118,,0.611111111,0.031111111,1,0,0,1.401,0,93,93,199,1,beseffen,images/br_beseffen.png,images/cb_beseffen.png,0,,,,,,,,,,,,,,,,,,,,,,
,,,,,,00071,2023-10-14_15h33.33.540,vbt_B2_day2,2022.2.4,MacIntel,166.6666667,,,,,,,,,,,,,,,,,,,,,,,,,,,down,0,8.202,,0.611111111,0.031111111,1,0,0,0.651,0,94,94,131,1,opzicht,images/br_opzicht.png,images/cb_opzicht.png,0,,,,,,,,,,,,,,,,,,,,,,
,,,,,,00071,2023-10-14_15h33.33.540,vbt_B2_day2,2022.2.4,MacIntel,166.6666667,,,,,,,,,,,,,,,,,,,,,,,,,,,down,0,0.567,,0.611111111,0.031111111,1,0,0,0.601,0,95,95,2,1,jaar,images/br_jaar.png,images/cb_jaar.png,0,,,,,,,,,,,,,,,,,,,,,,
,,,,,,00071,2023-10-14_15h33.33.540,vbt_B2_day2,2022.2.4,MacIntel,166.6666667,,,,,,,,,,,,,,,,,,,,,,,,,,,down,0,6.49,,0.611111111,0.031111111,1,0,0,0.701,0,96,96,163,1,schuilen,images/br_schuilen.png,images/cb_schuilen.png,0,,,,,,,,,,,,,,,,,,,,,,
,,,,,,00071,2023-10-14_15h33.33.540,vbt_B2_day2,2022.2.4,MacIntel,166.6666667,,,,,,,,,,,,,,,,,,,,,,,,,,,down,0,4.309,,0.611111111,0.031111111,1,0,0,4.385,0,97,97,104,1,zweven,images/br_zweven.png,images/cb_zweven.png,0,,,,,,,,,,,,,,,,,,,,,,
,,,,,,00071,2023-10-14_15h33.33.540,vbt_B2_day2,2022.2.4,MacIntel,166.6666667,,,,,,,,,,,,,,,,,,,,,,,,,,,down,0,16.069,,0.611111111,0.031111111,1,0,0,0.567,0,98,98,159,1,sufferd,images/br_sufferd.png,images/cb_sufferd.png,0,,,,,,,,,,,,,,,,,,,,,,
,,,,,,00071,2023-10-14_15h33.33.540,vbt_B2_day2,2022.2.4,MacIntel,166.6666667,,,,,,,,,,,,,,,,,,,,,,,,,,,down,0,7.161,,0.611111111,0.031111111,1,0,0,0.568,0,99,99,83,1,mening,images/br_mening.png,images/cb_mening.png,0,,,,,,,,,,,,,,,,,,,,,,
,,,,,,00071,2023-10-14_15h33.33.540,vbt_B2_day2,2022.2.4,MacIntel,166.6666667,,,,,,,,,,,,,,,,,,,,,,,,,,,down,0,8.942,,0.611111111,0.031111111,1,0,0,0.601,0,100,100,130,1,keihard,images/br_keihard.png,images/cb_keihard.png,0,,,,,,,,,,,,,,,,,,,,,,
,,,,,,00071,2023-10-14_15h33.33.540,vbt_B2_day2,2022.2.4,MacIntel,166.6666667,,,,,,,,,,,,,,,,,,,,,,,,,,,down,0,5.893,,0.611111111,0.031111111,1,0,0,0.451,0,101,101,40,1,schep,images/br_schep.png,images/cb_schep.png,0,,,,,,,,,,,,,,,,,,,,,,
,,,,,,00071,2023-10-14_15h33.33.540,vbt_B2_day2,2022.2.4,MacIntel,166.6666667,,,,,,,,,,,,,,,,,,,,,,,,,,,down,0,1.101,,0.611111111,0.031111111,1,0,0,3.984,0,102,102,108,1,excuus,images/br_excuus.png,images/cb_excuus.png,0,,,,,,,,,,,,,,,,,,,,,,
,,,,,,00071,2023-10-14_15h33.33.540,vbt_B2_day2,2022.2.4,MacIntel,166.6666667,,,,,,,,,,,,,,,,,,,,,,,,,,,down,0,5.552,,0.611111111,0.031111111,1,0,0,1.666,0,103,103,153,1,vervoer,images/br_vervoer.png,images/cb_vervoer.png,0,,,,,,,,,,,,,,,,,,,,,,
,,,,,,00071,2023-10-14_15h33.33.540,vbt_B2_day2,2022.2.4,MacIntel,166.6666667,,,,,,,,,,,,,,,,,,,,,,,,,,,down,0,5.69,,0.611111111,0.031111111,1,0,0,0.651,0,104,104,0,1,slak,images/br_slak.png,images/cb_slak.png,0,,,,,,,,,,,,,,,,,,,,,,
,,,,,,00071,2023-10-14_15h33.33.540,vbt_B2_day2,2022.2.4,MacIntel,166.6666667,,,,,,,,,,,,,,,,,,,,,,,,,,,down,0,10.241,,0.611111111,0.031111111,1,0,0,6.952,0,105,105,147,1,komisch,images/br_komisch.png,images/cb_komisch.png,0,,,,,,,,,,,,,,,,,,,,,,
,,,,,,00071,2023-10-14_15h33.33.540,vbt_B2_day2,2022.2.4,MacIntel,166.6666667,,,,,,,,,,,,,,,,,,,,,,,,,,,down,0,5.385,,0.611111111,0.032222222,1,0,0,6.901,0,106,106,95,1,vreten,images/br_vreten.png,images/cb_vreten.png,0,,,,,,,,,,,,,,,,,,,,,,
,,,,,,00071,2023-10-14_15h33.33.540,vbt_B2_day2,2022.2.4,MacIntel,166.6666667,,,,,,,,,,,,,,,,,,,,,,,,,,,down,0,3.933,,0.611111111,0.032222222,1,0,0,0.55,0,107,107,94,1,oceaan,images/br_oceaan.png,images/cb_oceaan.png,0,,,,,,,,,,,,,,,,,,,,,,
,,,,,,00071,2023-10-14_15h33.33.540,vbt_B2_day2,2022.2.4,MacIntel,166.6666667,,,,,,,,,,,,,,,,,,,,,,,,,,,down,0,11.869,,0.611111111,0.032222222,1,0,0,0.916,0,108,108,175,1,heengaan,images/br_heengaan.png,images/cb_heengaan.png,0,,,,,,,,,,,,,,,,,,,,,,
,,,,,,00071,2023-10-14_15h33.33.540,vbt_B2_day2,2022.2.4,MacIntel,166.6666667,,,,,,,,,,,,,,,,,,,,,,,,,,,down,0,9.536,,0.611111111,0.032222222,1,0,0,3.383,0,109,109,42,1,bleek,images/br_bleek.png,images/cb_bleek.png,0,,,,,,,,,,,,,,,,,,,,,,
,,,,,,00071,2023-10-14_15h33.33.540,vbt_B2_day2,2022.2.4,MacIntel,166.6666667,,,,,,,,,,,,,,,,,,,,,,,,,,,down,0,5.149,,0.611111111,0.032222222,1,0,0,1.083,0,110,110,89,1,slapen,images/br_slapen.png,images/cb_slapen.png,0,,,,,,,,,,,,,,,,,,,,,,
,,,,,,00071,2023-10-14_15h33.33.540,vbt_B2_day2,2022.2.4,MacIntel,166.6666667,,,,,,,,,,,,,,,,,,,,,,,,,,,down,0,6.218,,0.612222222,0.037777778,1,0,0,1.434,0,111,111,120,1,klimmen,images/br_klimmen.png,images/cb_klimmen.png,0,,,,,,,,,,,,,,,,,,,,,,
,,,,,,00071,2023-10-14_15h33.33.540,vbt_B2_day2,2022.2.4,MacIntel,166.6666667,,,,,,,,,,,,,,,,,,,,,,,,,,,down,0,15.508,,0.612222222,0.037777778,1,0,0,2.051,0,112,112,190,1,goedkoop,images/br_goedkoop.png,images/cb_goedkoop.png,0,,,,,,,,,,,,,,,,,,,,,,
,,,,,,00071,2023-10-14_15h33.33.540,vbt_B2_day2,2022.2.4,MacIntel,166.6666667,,,,,,,,,,,,,,,,,,,,,,,,,,,down,0,7.635,,0.612222222,0.037777778,1,0,0,0.467,0,113,113,14,1,rijp,images/br_rijp.png,images/cb_rijp.png,0,,,,,,,,,,,,,,,,,,,,,,
,,,,,,00071,2023-10-14_15h33.33.540,vbt_B2_day2,2022.2.4,MacIntel,166.6666667,,,,,,,,,,,,,,,,,,,,,,,,,,,down,0,7.918,,0.612222222,0.037777778,1,0,0,0.465,0,114,114,169,1,oprotten,images/br_oprotten.png,images/cb_oprotten.png,0,,,,,,,,,,,,,,,,,,,,,,
,,,,,,00071,2023-10-14_15h33.33.540,vbt_B2_day2,2022.2.4,MacIntel,166.6666667,,,,,,,,,,,,,,,,,,,,,,,,,,,down,0,10.151,,0.612222222,0.037777778,1,0,0,0.583,0,115,115,81,1,dubbel,images/br_dubbel.png,images/cb_dubbel.png,0,,,,,,,,,,,,,,,,,,,,,,
,,,,,,00071,2023-10-14_15h33.33.540,vbt_B2_day2,2022.2.4,MacIntel,166.6666667,,,,,,,,,,,,,,,,,,,,,,,,,,,down,0,32.127,,0.582222222,0.331111111,1,0,0,0.734,0,116,116,21,1,mist,images/br_mist.png,images/cb_mist.png,0,,,,,,,,,,,,,,,,,,,,,,
,,,,,,00071,2023-10-14_15h33.33.540,vbt_B2_day2,2022.2.4,MacIntel,166.6666667,,,,,,,,,,,,,,,,,,,,,,,,,,,down,0,2.052,,0.582222222,0.331111111,1,0,0,0.617,0,117,117,109,1,totaal,images/br_totaal.png,images/cb_totaal.png,0,,,,,,,,,,,,,,,,,,,,,,
,,,,,,00071,2023-10-14_15h33.33.540,vbt_B2_day2,2022.2.4,MacIntel,166.6666667,,,,,,,,,,,,,,,,,,,,,,,,,,,down,0,0.141,,0.582222222,0.331111111,1,0,0,1.318,0,118,118,36,1,vuur,images/br_vuur.png,images/cb_vuur.png,0,,,,,,,,,,,,,,,,,,,,,,
,,,,,,00071,2023-10-14_15h33.33.540,vbt_B2_day2,2022.2.4,MacIntel,166.6666667,,,,,,,,,,,,,,,,,,,,,,,,,,,down,0,14.04,,0.582222222,0.331111111,1,0,0,0.684,0,119,119,152,1,afnemen,images/br_afnemen.png,images/cb_afnemen.png,0,,,,,,,,,,,,,,,,,,,,,,
,,,,,,00071,2023-10-14_15h33.33.540,vbt_B2_day2,2022.2.4,MacIntel,166.6666667,,,,,,,,,,,,,,,,,,,,,,,,,,,down,0,6.253,,0.582222222,0.331111111,1,0,0,0.433,0,120,120,46,1,jagen,images/br_jagen.png,images/cb_jagen.png,0,,,,,,,,,,,,,,,,,,,,,,
,,,,,,00071,2023-10-14_15h33.33.540,vbt_B2_day2,2022.2.4,MacIntel,166.6666667,,,,,,,,,,,,,,,,,,,,,,,,,,,down,0,3.252,,0.582222222,0.331111111,1,0,0,0.601,0,121,121,101,1,staren,images/br_staren.png,images/cb_staren.png,0,,,,,,,,,,,,,,,,,,,,,,
,,,,,,00071,2023-10-14_15h33.33.540,vbt_B2_day2,2022.2.4,MacIntel,166.6666667,,,,,,,,,,,,,,,,,,,,,,,,,,,down,0,9.652,,0.593333333,0.332222222,1,0,0,1.1,0,122,122,103,1,joggen,images/br_joggen.png,images/cb_joggen.png,0,,,,,,,,,,,,,,,,,,,,,,
,,,,,,00071,2023-10-14_15h33.33.540,vbt_B2_day2,2022.2.4,MacIntel,166.6666667,,,,,,,,,,,,,,,,,,,,,,,,,,,down,0,4.335,,0.593333333,0.332222222,1,0,0,0.435,0,123,123,154,1,aflopen,images/br_aflopen.png,images/cb_aflopen.png,0,,,,,,,,,,,,,,,,,,,,,,
,,,,,,00071,2023-10-14_15h33.33.540,vbt_B2_day2,2022.2.4,MacIntel,166.6666667,,,,,,,,,,,,,,,,,,,,,,,,,,,down,0,6.186,,0.593333333,0.332222222,1,0,0,0.451,0,124,124,139,1,stiekem,images/br_stiekem.png,images/cb_stiekem.png,1,stiekem,,,,,,,,,,,,,,,,,,,,,
,,,,,,00071,2023-10-14_15h33.33.540,vbt_B2_day2,2022.2.4,MacIntel,166.6666667,,,,,,,,,,,,,,,,,,,,,,,,,,,down,0,5.048,,0.593333333,0.332222222,1,0,0,0.449,0,125,125,187,1,opkijken,images/br_opkijken.png,images/cb_opkijken.png,0,,,,,,,,,,,,,,,,,,,,,,
,,,,,,00071,2023-10-14_15h33.33.540,vbt_B2_day2,2022.2.4,MacIntel,166.6666667,,,,,,,,,,,,,,,,,,,,,,,,,,,down,0,6.877,,0.593333333,0.332222222,1,0,0,0.285,0,126,126,100,1,geduld,images/br_geduld.png,images/cb_geduld.png,0,,,,,,,,,,,,,,,,,,,,,,
,,,,,,00071,2023-10-14_15h33.33.540,vbt_B2_day2,2022.2.4,MacIntel,166.6666667,,,,,,,,,,,,,,,,,,,,,,,,,,,down,0,2.32,,0.593333333,0.332222222,1,0,0,0.499,0,127,127,66,1,lever,images/br_lever.png,images/cb_lever.png,0,,,,,,,,,,,,,,,,,,,,,,
,,,,,,00071,2023-10-14_15h33.33.540,vbt_B2_day2,2022.2.4,MacIntel,166.6666667,,,,,,,,,,,,,,,,,,,,,,,,,,,down,0,21.418,,0.593333333,0.332222222,1,0,0,0.4,0,128,128,135,1,gedicht,images/br_gedicht.png,images/cb_gedicht.png,0,,,,,,,,,,,,,,,,,,,,,,
,,,,,,00071,2023-10-14_15h33.33.540,vbt_B2_day2,2022.2.4,MacIntel,166.6666667,,,,,,,,,,,,,,,,,,,,,,,,,,,down,0,4.474,,0.593333333,0.332222222,1,0,0,1.217,0,129,129,18,1,blik,images/br_blik.png,images/cb_blik.png,1,blik,,,,,,,,,,,,,,,,,,,,,
,,,,,,00071,2023-10-14_15h33.33.540,vbt_B2_day2,2022.2.4,MacIntel,166.6666667,,,,,,,,,,,,,,,,,,,,,,,,,,,down,0,5.233,,0.593333333,0.332222222,1,0,0,0.434,0,130,130,162,1,uitdelen,images/br_uitdelen.png,images/cb_uitdelen.png,0,,,,,,,,,,,,,,,,,,,,,,
,,,,,,00071,2023-10-14_15h33.33.540,vbt_B2_day2,2022.2.4,MacIntel,166.6666667,,,,,,,,,,,,,,,,,,,,,,,,,,,down,0,8.625,,0.593333333,0.332222222,1,0,0,0.866,0,131,131,98,1,kreeft,images/br_kreeft.png,images/cb_kreeft.png,1,kreeft,,,,,,,,,,,,,,,,,,,,,
,,,,,,00071,2023-10-14_15h33.33.540,vbt_B2_day2,2022.2.4,MacIntel,166.6666667,,,,,,,,,,,,,,,,,,,,,,,,,,,down,0,9.435,,0.593333333,0.332222222,1,0,0,0.4,0,132,132,8,1,knie,images/br_knie.png,images/cb_knie.png,0,,,,,,,,,,,,,,,,,,,,,,
,,,,,,00071,2023-10-14_15h33.33.540,vbt_B2_day2,2022.2.4,MacIntel,166.6666667,,,,,,,,,,,,,,,,,,,,,,,,,,,down,0,8.836,,0.601111111,0.322222222,1,0,0,0.751,0,133,133,178,1,huisdier,images/br_huisdier.png,images/cb_huisdier.png,1,huisdier,,,,,,,,,,,,,,,,,,,,,
,,,,,,00071,2023-10-14_15h33.33.540,vbt_B2_day2,2022.2.4,MacIntel,166.6666667,,,,,,,,,,,,,,,,,,,,,,,,,,,down,0,5.935,,0.601111111,0.322222222,1,0,0,0.468,0,134,134,50,1,stoom,images/br_stoom.png,images/cb_stoom.png,0,,,,,,,,,,,,,,,,,,,,,,
,,,,,,00071,2023-10-14_15h33.33.540,vbt_B2_day2,2022.2.4,MacIntel,166.6666667,,,,,,,,,,,,,,,,,,,,,,,,,,,down,0,5.69,,0.601111111,0.322222222,1,0,0,0.333,0,135,135,191,1,opheffen,images/br_opheffen.png,images/cb_opheffen.png,0,,,,,,,,,,,,,,,,,,,,,,
,,,,,,00071,2023-10-14_15h33.33.540,vbt_B2_day2,2022.2.4,MacIntel,166.6666667,,,,,,,,,,,,,,,,,,,,,,,,,,,down,0,1.972,,0.601111111,0.322222222,1,0,0,0.352,0,136,136,35,1,lust,images/br_lust.png,images/cb_lust.png,0,,,,,,,,,,,,,,,,,,,,,,
,,,,,,00071,2023-10-14_15h33.33.540,vbt_B2_day2,2022.2.4,MacIntel,166.6666667,,,,,,,,,,,,,,,,,,,,,,,,,,,down,0,3.69,,0.601111111,0.322222222,1,0,0,0.351,0,137,137,53,1,baron,images/br_baron.png,images/cb_baron.png,0,,,,,,,,,,,,,,,,,,,,,,
,,,,,,00071,2023-10-14_15h33.33.540,vbt_B2_day2,2022.2.4,MacIntel,166.6666667,,,,,,,,,,,,,,,,,,,,,,,,,,,down,0,3.069,,0.601111111,0.322222222,1,0,0,0.317,0,138,138,117,1,kennis,images/br_kennis.png,images/cb_kennis.png,0,,,,,,,,,,,,,,,,,,,,,,
,,,,,,00071,2023-10-14_15h33.33.540,vbt_B2_day2,2022.2.4,MacIntel,166.6666667,,,,,,,,,,,,,,,,,,,,,,,,,,,down,0,5.808,,0.601111111,0.322222222,1,0,0,0.317,0,139,139,12,1,kust,images/br_kust.png,images/cb_kust.png,0,,,,,,,,,,,,,,,,,,,,,,
,,,,,,00071,2023-10-14_15h33.33.540,vbt_B2_day2,2022.2.4,MacIntel,166.6666667,,,,,,,,,,,,,,,,,,,,,,,,,,,down,0,8.585,,0.601111111,0.322222222,1,0,0,0.583,0,140,140,30,1,uien,images/br_uien.png,images/cb_uien.png,0,,,,,,,,,,,,,,,,,,,,,,
,,,,,,00071,2023-10-14_15h33.33.540,vbt_B2_day2,2022.2.4,MacIntel,166.6666667,,,,,,,,,,,,,,,,,,,,,,,,,,,down,0,2.055,,0.601111111,0.322222222,1,0,0,0.583,0,141,141,3,1,mand,images/br_mand.png,images/cb_mand.png,0,,,,,,,,,,,,,,,,,,,,,,
,,,,,,00071,2023-10-14_15h33.33.540,vbt_B2_day2,2022.2.4,MacIntel,166.6666667,,,,,,,,,,,,,,,,,,,,,,,,,,,down,0,3.525,,0.563333333,0.236666667,1,0,0,0.384,0,142,142,151,1,aanzoek,images/br_aanzoek.png,images/cb_aanzoek.png,0,,,,,,,,,,,,,,,,,,,,,,
,,,,,,00071,2023-10-14_15h33.33.540,vbt_B2_day2,2022.2.4,MacIntel,166.6666667,,,,,,,,,,,,,,,,,,,,,,,,,,,down,0,3.186,,0.563333333,0.236666667,1,0,0,0.583,0,143,143,88,1,boeien,images/br_boeien.png,images/cb_boeien.png,0,,,,,,,,,,,,,,,,,,,,,,
,,,,,,00071,2023-10-14_15h33.33.540,vbt_B2_day2,2022.2.4,MacIntel,166.6666667,,,,,,,,,,,,,,,,,,,,,,,,,,,down,0,9.367,,0.563333333,0.236666667,1,0,0,0.465,0,144,144,119,1,liefje,images/br_liefje.png,images/cb_liefje.png,0,,,,,,,,,,,,,,,,,,,,,,
,,,,,,00071,2023-10-14_15h33.33.540,vbt_B2_day2,2022.2.4,MacIntel,166.6666667,,,,,,,,,,,,,,,,,,,,,,,,,,,down,0,2.968,,0.563333333,0.236666667,1,0,0,0.267,0,145,145,84,1,lokken,images/br_lokken.png,images/cb_lokken.png,0,,,,,,,,,,,,,,,,,,,,,,
,,,,,,00071,2023-10-14_15h33.33.540,vbt_B2_day2,2022.2.4,MacIntel,166.6666667,,,,,,,,,,,,,,,,,,,,,,,,,,,down,0,6.002,,0.585555556,0.243333333,1,0,0,0.417,0,146,146,138,1,akkoord,images/br_akkoord.png,images/cb_akkoord.png,1,akkoord,,,,,,,,,,,,,,,,,,,,,
,,,,,,00071,2023-10-14_15h33.33.540,vbt_B2_day2,2022.2.4,MacIntel,166.6666667,,,,,,,,,,,,,,,,,,,,,,,,,,,down,0,19.384,,0.585555556,0.243333333,1,0,0,0.651,0,147,147,197,1,spanning,images/br_spanning.png,images/cb_spanning.png,0,,,,,,,,,,,,,,,,,,,,,,
,,,,,,00071,2023-10-14_15h33.33.540,vbt_B2_day2,2022.2.4,MacIntel,166.6666667,,,,,,,,,,,,,,,,,,,,,,,,,,,down,0,8.583,,0.585555556,0.243333333,1,0,0,0.618,0,148,148,90,1,geluid,images/br_geluid.png,images/cb_geluid.png,0,,,,,,,,,,,,,,,,,,,,,,
,,,,,,00071,2023-10-14_15h33.33.540,vbt_B2_day2,2022.2.4,MacIntel,166.6666667,,,,,,,,,,,,,,,,,,,,,,,,,,,down,0,21.752,,0.585555556,0.243333333,1,0,0,0.983,0,149,149,63,1,flirt,images/br_flirt.png,images/cb_flirt.png,0,,,,,,,,,,,,,,,,,,,,,,
,,,,,,00071,2023-10-14_15h33.33.540,vbt_B2_day2,2022.2.4,MacIntel,166.6666667,,,,,,,,,,,,,,,,,,,,,,,,,,,down,0,18.894,,0.585555556,0.243333333,1,0,0,0.401,0,150,150,189,1,aanraden,images/br_aanraden.png,images/cb_aanraden.png,0,,,,,,,,,,,,,,,,,,,,,,
,,,,,,00071,2023-10-14_15h33.33.540,vbt_B2_day2,2022.2.4,MacIntel,166.6666667,,,,,,,,,,,,,,,,,,,,,,,,,,,down,0,3.565,,0.585555556,0.243333333,1,0,0,0.401,0,151,151,107,1,maling,images/br_maling.png,images/cb_maling.png,0,,,,,,,,,,,,,,,,,,,,,,
,,,,,,00071,2023-10-14_15h33.33.540,vbt_B2_day2,2022.2.4,MacIntel,166.6666667,,,,,,,,,,,,,,,,,,,,,,,,,,,down,0,5.491,,0.585555556,0.243333333,1,0,0,0.417,0,152,152,123,1,hiervan,images/br_hiervan.png,images/cb_hiervan.png,0,,,,,,,,,,,,,,,,,,,,,,
,,,,,,00071,2023-10-14_15h33.33.540,vbt_B2_day2,2022.2.4,MacIntel,166.6666667,,,,,,,,,,,,,,,,,,,,,,,,,,,down,0,3.07,,0.585555556,0.226666667,1,0,0,0.55,0,153,153,56,1,traag,images/br_traag.png,images/cb_traag.png,1,traag,,,,,,,,,,,,,,,,,,,,,
,,,,,,00071,2023-10-14_15h33.33.540,vbt_B2_day2,2022.2.4,MacIntel,166.6666667,,,,,,,,,,,,,,,,,,,,,,,,,,,down,0,15.177,,0.585555556,0.226666667,1,0,0,0.384,0,154,154,111,1,ticket,images/br_ticket.png,images/cb_ticket.png,0,,,,,,,,,,,,,,,,,,,,,,
,,,,,,00071,2023-10-14_15h33.33.540,vbt_B2_day2,2022.2.4,MacIntel,166.6666667,,,,,,,,,,,,,,,,,,,,,,,,,,,down,0,3.451,,0.585555556,0.226666667,1,0,0,0.633,0,155,155,17,1,taal,images/br_taal.png,images/cb_taal.png,1,taal,,,,,,,,,,,,,,,,,,,,,
,,,,,,00071,2023-10-14_15h33.33.540,vbt_B2_day2,2022.2.4,MacIntel,166.6666667,,,,,,,,,,,,,,,,,,,,,,,,,,,down,0,3.635,,0.585555556,0.226666667,1,0,0,0.8,0,156,156,41,1,maken,images/br_maken.png,images/cb_maken.png,0,,,,,,,,,,,,,,,,,,,,,,
,,,,,,00071,2023-10-14_15h33.33.540,vbt_B2_day2,2022.2.4,MacIntel,166.6666667,,,,,,,,,,,,,,,,,,,,,,,,,,,down,0,3.367,,0.585555556,0.226666667,1,0,0,0.483,0,157,157,184,1,aandelen,images/br_aandelen.png,images/cb_aandelen.png,0,,,,,,,,,,,,,,,,,,,,,,
,,,,,,00071,2023-10-14_15h33.33.540,vbt_B2_day2,2022.2.4,MacIntel,166.6666667,,,,,,,,,,,,,,,,,,,,,,,,,,,down,0,6.493,,0.586666667,0.226666667,1,0,0,0.884,0,158,158,44,1,flits,images/br_flits.png,images/cb_flits.png,0,,,,,,,,,,,,,,,,,,,,,,
,,,,,,00071,2023-10-14_15h33.33.540,vbt_B2_day2,2022.2.4,MacIntel,166.6666667,,,,,,,,,,,,,,,,,,,,,,,,,,,down,0,7.399,,0.586666667,0.231111111,1,0,0,0.549,0,159,159,80,1,kanjer,images/br_kanjer.png,images/cb_kanjer.png,0,,,,,,,,,,,,,,,,,,,,,,
,,,,,,00071,2023-10-14_15h33.33.540,vbt_B2_day2,2022.2.4,MacIntel,166.6666667,,,,,,,,,,,,,,,,,,,,,,,,,,,down,0,2.334,,0.586666667,0.231111111,1,0,0,0.366,0,160,160,15,1,soda,images/br_soda.png,images/cb_soda.png,0,,,,,,,,,,,,,,,,,,,,,,
,,,,,,00071,2023-10-14_15h33.33.540,vbt_B2_day2,2022.2.4,MacIntel,166.6666667,,,,,,,,,,,,,,,,,,,,,,,,,,,down,0,0.972,,0.586666667,0.231111111,1,0,0,0.561,0,161,161,13,1,kaal,images/br_kaal.png,images/cb_kaal.png,0,,,,,,,,,,,,,,,,,,,,,,
,,,,,,00071,2023-10-14_15h33.33.540,vbt_B2_day2,2022.2.4,MacIntel,166.6666667,,,,,,,,,,,,,,,,,,,,,,,,,,,down,0,5.185,,0.586666667,0.231111111,1,0,0,0.4,0,162,162,174,1,stemming,images/br_stemming.png,images/cb_stemming.png,0,,,,,,,,,,,,,,,,,,,,,,
,,,,,,00071,2023-10-14_15h33.33.540,vbt_B2_day2,2022.2.4,MacIntel,166.6666667,,,,,,,,,,,,,,,,,,,,,,,,,,,down,0,6.25,,0.586666667,0.23,1,0,0,1.4,0,163,163,71,1,bever,images/br_bever.png,images/cb_bever.png,0,,,,,,,,,,,,,,,,,,,,,,
,,,,,,00071,2023-10-14_15h33.33.540,vbt_B2_day2,2022.2.4,MacIntel,166.6666667,,,,,,,,,,,,,,,,,,,,,,,,,,,down,0,12.4,,0.587777778,0.228888889,1,0,0,0.6,0,164,164,193,1,weeshuis,images/br_weeshuis.png,images/cb_weeshuis.png,0,,,,,,,,,,,,,,,,,,,,,,
,,,,,,00071,2023-10-14_15h33.33.540,vbt_B2_day2,2022.2.4,MacIntel,166.6666667,,,,,,,,,,,,,,,,,,,,,,,,,,,down,0,4.442,,0.586666667,0.226666667,1,0,0,0.534,0,165,165,54,1,gebit,images/br_gebit.png,images/cb_gebit.png,0,,,,,,,,,,,,,,,,,,,,,,
,,,,,,00071,2023-10-14_15h33.33.540,vbt_B2_day2,2022.2.4,MacIntel,166.6666667,,,,,,,,,,,,,,,,,,,,,,,,,,,down,0,5.749,,0.584444444,0.225555556,1,0,0,0.667,0,166,166,156,1,rechten,images/br_rechten.png,images/cb_rechten.png,0,,,,,,,,,,,,,,,,,,,,,,
,,,,,,00071,2023-10-14_15h33.33.540,vbt_B2_day2,2022.2.4,MacIntel,166.6666667,,,,,,,,,,,,,,,,,,,,,,,,,,,down,0,3.133,,0.584444444,0.225555556,1,0,0,0.35,0,167,167,16,1,ziek,images/br_ziek.png,images/cb_ziek.png,1,ziek,,,,,,,,,,,,,,,,,,,,,
,,,,,,00071,2023-10-14_15h33.33.540,vbt_B2_day2,2022.2.4,MacIntel,166.6666667,,,,,,,,,,,,,,,,,,,,,,,,,,,down,0,10.509,,0.584444444,0.225555556,1,0,0,0.45,0,168,168,176,1,techniek,images/br_techniek.png,images/cb_techniek.png,1,techniek,,,,,,,,,,,,,,,,,,,,,
,,,,,,00071,2023-10-14_15h33.33.540,vbt_B2_day2,2022.2.4,MacIntel,166.6666667,,,,,,,,,,,,,,,,,,,,,,,,,,,down,0,3.96,,0.584444444,0.225555556,1,0,0,0.433,0,169,169,125,1,aanzien,images/br_aanzien.png,images/cb_aanzien.png,0,,,,,,,,,,,,,,,,,,,,,,
,,,,,,00071,2023-10-14_15h33.33.540,vbt_B2_day2,2022.2.4,MacIntel,166.6666667,,,,,,,,,,,,,,,,,,,,,,,,,,,down,0,1.6,,0.584444444,0.225555556,1,0,0,0.382,0,170,170,55,1,praat,images/br_praat.png,images/cb_praat.png,0,,,,,,,,,,,,,,,,,,,,,,
,,,,,,00071,2023-10-14_15h33.33.540,vbt_B2_day2,2022.2.4,MacIntel,166.6666667,,,,,,,,,,,,,,,,,,,,,,,,,,,down,0,1.456,,0.584444444,0.225555556,1,0,0,0.701,0,171,171,52,1,wagon,images/br_wagon.png,images/cb_wagon.png,0,,,,,,,,,,,,,,,,,,,,,,
,,,,,,00071,2023-10-14_15h33.33.540,vbt_B2_day2,2022.2.4,MacIntel,166.6666667,,,,,,,,,,,,,,,,,,,,,,,,,,,down,0,2.199,,0.584444444,0.225555556,1,0,0,0.383,0,172,172,72,1,strak,images/br_strak.png,images/cb_strak.png,0,,,,,,,,,,,,,,,,,,,,,,
,,,,,,00071,2023-10-14_15h33.33.540,vbt_B2_day2,2022.2.4,MacIntel,166.6666667,,,,,,,,,,,,,,,,,,,,,,,,,,,down,0,1.307,,0.584444444,0.225555556,1,0,0,0.4,0,173,173,73,1,volop,images/br_volop.png,images/cb_volop.png,0,,,,,,,,,,,,,,,,,,,,,,
,,,,,,00071,2023-10-14_15h33.33.540,vbt_B2_day2,2022.2.4,MacIntel,166.6666667,,,,,,,,,,,,,,,,,,,,,,,,,,,down,0,8.893,,0.584444444,0.225555556,1,0,0,0.433,0,174,174,122,1,waarvan,images/br_waarvan.png,images/cb_waarvan.png,0,,,,,,,,,,,,,,,,,,,,,,
,,,,,,00071,2023-10-14_15h33.33.540,vbt_B2_day2,2022.2.4,MacIntel,166.6666667,,,,,,,,,,,,,,,,,,,,,,,,,,,down,0,3.358,,0.584444444,0.225555556,1,0,0,0.418,0,175,175,166,1,strikken,images/br_strikken.png,images/cb_strikken.png,0,,,,,,,,,,,,,,,,,,,,,,
,,,,,,00071,2023-10-14_15h33.33.540,vbt_B2_day2,2022.2.4,MacIntel,166.6666667,,,,,,,,,,,,,,,,,,,,,,,,,,,down,0,2.903,,0.584444444,0.225555556,1,0,0,0.749,0,176,176,134,1,geliefd,images/br_geliefd.png,images/cb_geliefd.png,0,,,,,,,,,,,,,,,,,,,,,,
,,,,,,00071,2023-10-14_15h33.33.540,vbt_B2_day2,2022.2.4,MacIntel,166.6666667,,,,,,,,,,,,,,,,,,,,,,,,,,,down,0,2.724,,0.584444444,0.225555556,1,0,0,0.349,0,177,177,33,1,vlek,images/br_vlek.png,images/cb_vlek.png,0,,,,,,,,,,,,,,,,,,,,,,
,,,,,,00071,2023-10-14_15h33.33.540,vbt_B2_day2,2022.2.4,MacIntel,166.6666667,,,,,,,,,,,,,,,,,,,,,,,,,,,down,0,2.209,,0.584444444,0.225555556,1,0,0,0.385,0,178,178,148,1,smullen,images/br_smullen.png,images/cb_smullen.png,0,,,,,,,,,,,,,,,,,,,,,,
,,,,,,00071,2023-10-14_15h33.33.540,vbt_B2_day2,2022.2.4,MacIntel,166.6666667,,,,,,,,,,,,,,,,,,,,,,,,,,,down,0,4.031,,0.584444444,0.225555556,1,0,0,0.35,0,179,179,22,1,stof,images/br_stof.png,images/cb_stof.png,0,,,,,,,,,,,,,,,,,,,,,,
,,,,,,00071,2023-10-14_15h33.33.540,vbt_B2_day2,2022.2.4,MacIntel,166.6666667,,,,,,,,,,,,,,,,,,,,,,,,,,,down,0,2.548,,0.584444444,0.225555556,1,0,0,0.534,0,180,180,93,1,waarop,images/br_waarop.png,images/cb_waarop.png,0,,,,,,,,,,,,,,,,,,,,,,
,,,,,,00071,2023-10-14_15h33.33.540,vbt_B2_day2,2022.2.4,MacIntel,166.6666667,,,,,,,,,,,,,,,,,,,,,,,,,,,down,0,3.025,,0.584444444,0.225555556,1,0,0,0.75,0,181,181,128,1,prikken,images/br_prikken.png,images/cb_prikken.png,0,,,,,,,,,,,,,,,,,,,,,,
,,,,,,00071,2023-10-14_15h33.33.540,vbt_B2_day2,2022.2.4,MacIntel,166.6666667,,,,,,,,,,,,,,,,,,,,,,,,,,,down,0,4.085,,0.584444444,0.225555556,1,0,0,0.433,0,182,182,192,1,schaamte,images/br_schaamte.png,images/cb_schaamte.png,0,,,,,,,,,,,,,,,,,,,,,,
,,,,,,00071,2023-10-14_15h33.33.540,vbt_B2_day2,2022.2.4,MacIntel,166.6666667,,,,,,,,,,,,,,,,,,,,,,,,,,,down,0,2.117,,0.584444444,0.225555556,1,0,0,0.416,0,183,183,150,1,gegeven,images/br_gegeven.png,images/cb_gegeven.png,0,,,,,,,,,,,,,,,,,,,,,,
,,,,,,00071,2023-10-14_15h33.33.540,vbt_B2_day2,2022.2.4,MacIntel,166.6666667,,,,,,,,,,,,,,,,,,,,,,,,,,,down,0,9.819,,0.584444444,0.225555556,1,0,0,0.351,0,184,184,198,1,bedoelen,images/br_bedoelen.png,images/cb_bedoelen.png,0,,,,,,,,,,,,,,,,,,,,,,
,,,,,,00071,2023-10-14_15h33.33.540,vbt_B2_day2,2022.2.4,MacIntel,166.6666667,,,,,,,,,,,,,,,,,,,,,,,,,,,down,0,7.837,,0.584444444,0.225555556,1,0,0,1.132,0,185,185,137,1,trekker,images/br_trekker.png,images/cb_trekker.png,1,trekker,,,,,,,,,,,,,,,,,,,,,
,,,,,,00071,2023-10-14_15h33.33.540,vbt_B2_day2,2022.2.4,MacIntel,166.6666667,,,,,,,,,,,,,,,,,,,,,,,,,,,down,0,0.537,,0.584444444,0.225555556,1,0,0,0.684,0,186,186,25,1,plek,images/br_plek.png,images/cb_plek.png,0,,,,,,,,,,,,,,,,,,,,,,
,,,,,,00071,2023-10-14_15h33.33.540,vbt_B2_day2,2022.2.4,MacIntel,166.6666667,,,,,,,,,,,,,,,,,,,,,,,,,,,down,0,0.868,,0.584444444,0.225555556,1,0,0,0.883,0,187,187,115,1,kleren,images/br_kleren.png,images/cb_kleren.png,0,,,,,,,,,,,,,,,,,,,,,,
,,,,,,00071,2023-10-14_15h33.33.540,vbt_B2_day2,2022.2.4,MacIntel,166.6666667,,,,,,,,,,,,,,,,,,,,,,,,,,,down,0,9.376,,0.584444444,0.225555556,1,0,0,0.418,0,188,188,99,1,koffie,images/br_koffie.png,images/cb_koffie.png,1,koffie,,,,,,,,,,,,,,,,,,,,,
,,,,,,00071,2023-10-14_15h33.33.540,vbt_B2_day2,2022.2.4,MacIntel,166.6666667,,,,,,,,,,,,,,,,,,,,,,,,,,,down,0,1.201,,0.584444444,0.225555556,1,0,0,0.983,0,189,189,86,1,woning,images/br_woning.png,images/cb_woning.png,0,,,,,,,,,,,,,,,,,,,,,,
,,,,,,00071,2023-10-14_15h33.33.540,vbt_B2_day2,2022.2.4,MacIntel,166.6666667,,,,,,,,,,,,,,,,,,,,,,,,,,,down,0,5.233,,0.584444444,0.225555556,1,0,0,1.251,0,190,190,146,1,opkomen,images/br_opkomen.png,images/cb_opkomen.png,0,,,,,,,,,,,,,,,,,,,,,,
,,,,,,00071,2023-10-14_15h33.33.540,vbt_B2_day2,2022.2.4,MacIntel,166.6666667,,,,,,,,,,,,,,,,,,,,,,,,,,,down,0,4.406,,0.584444444,0.225555556,1,0,0,0.45,0,191,191,183,1,getuigen,images/br_getuigen.png,images/cb_getuigen.png,0,,,,,,,,,,,,,,,,,,,,,,
,,,,,,00071,2023-10-14_15h33.33.540,vbt_B2_day2,2022.2.4,MacIntel,166.6666667,,,,,,,,,,,,,,,,,,,,,,,,,,,down,0,6.226,,0.584444444,0.225555556,1,0,0,0.467,0,192,192,96,1,slagen,images/br_slagen.png,images/cb_slagen.png,1,slagen,,,,,,,,,,,,,,,,,,,,,
,,,,,,00071,2023-10-14_15h33.33.540,vbt_B2_day2,2022.2.4,MacIntel,166.6666667,,,,,,,,,,,,,,,,,,,,,,,,,,,down,0,0.816,,0.584444444,0.225555556,1,0,0,0.633,0,193,193,145,1,invloed,images/br_invloed.png,images/cb_invloed.png,0,,,,,,,,,,,,,,,,,,,,,,
,,,,,,00071,2023-10-14_15h33.33.540,vbt_B2_day2,2022.2.4,MacIntel,166.6666667,,,,,,,,,,,,,,,,,,,,,,,,,,,down,0,1.202,,0.592222222,0.236666667,1,0,0,1.301,0,194,194,61,1,groen,images/br_groen.png,images/cb_groen.png,0,,,,,,,,,,,,,,,,,,,,,,
,,,,,,00071,2023-10-14_15h33.33.540,vbt_B2_day2,2022.2.4,MacIntel,166.6666667,,,,,,,,,,,,,,,,,,,,,,,,,,,down,0,0.749,,0.592222222,0.236666667,1,0,0,2.285,0,195,195,45,1,piste,images/br_piste.png,images/cb_piste.png,0,,,,,,,,,,,,,,,,,,,,,,
,,,,,,00071,2023-10-14_15h33.33.540,vbt_B2_day2,2022.2.4,MacIntel,166.6666667,,,,,,,,,,,,,,,,,,,,,,,,,,,down,0,2.324,,0.592222222,0.236666667,1,0,0,2.683,0,196,196,149,1,redding,images/br_redding.png,images/cb_redding.png,0,,,,,,,,,,,,,,,,,,,,,,
,,,,,,00071,2023-10-14_15h33.33.540,vbt_B2_day2,2022.2.4,MacIntel,166.6666667,,,,,,,,,,,,,,,,,,,,,,,,,,,down,0,0.267,,0.592222222,0.236666667,1,0,0,0.667,0,197,197,20,1,site,images/br_site.png,images/cb_site.png,0,,,,,,,,,,,,,,,,,,,,,,
,,,,,,00071,2023-10-14_15h33.33.540,vbt_B2_day2,2022.2.4,MacIntel,166.6666667,,,,,,,,,,,,,,,,,,,,,,,,,,,down,0,4.152,,0.592222222,0.236666667,1,0,0,1.167,0,198,198,126,1,kasteel,images/br_kasteel.png,images/cb_kasteel.png,0,,,,,,,,,,,,,,,,,,,,,,
,,,,,,00071,2023-10-14_15h33.33.540,vbt_B2_day2,2022.2.4,MacIntel,166.6666667,,,,,,,,,,,,,,,,,,,,,,,,,,,down,0,5.184,,0.592222222,0.236666667,1,0,0,1.266,0,199,199,9,1,hier,images/br_hier.png,images/cb_hier.png,0,,,,,,,,,,,,,,,,,,,,,,
,,,,,,00071,2023-10-14_15h33.33.540,vbt_B2_day2,2022.2.4,MacIntel,166.6666667,,,,,,,,,,,,,,,,,,,,,,,,,,,,,,,,,,,,,,,,,,,,,,,0.594444444,0.236666667,1,0,0,,,,,,,,,,,,,,,,
,,,,,,00071,2023-10-14_15h33.33.540,vbt_B2_day2,2022.2.4,MacIntel,166.6666667,,,,,,,,,,,,,,,,,,,,,,,,,,,,,,,,,,,,,,,,,,,,,,,,,,,,0.594444444,0.236666667,1,0,0,,,,,,,,,,,
,,,,,,00071,2023-10-14_15h33.33.540,vbt_B2_day2,2022.2.4,MacIntel,166.6666667,,,,,,,,,,,,,,,,,,,,,,,,,,,,,,,,,,,,,,,,,,bloeien,images/br_bloeien.png,images/cb_bloeien.png,,bloeien,,,,,,,,,,,0.577777778,0.186666667,1,0,0,bloeien,0,0,0,12,1
,,,,,,00071,2023-10-14_15h33.33.540,vbt_B2_day2,2022.2.4,MacIntel,166.6666667,,,,,,,,,,,,,,,,,,,,,,,,,,,,,,,,,,,,,,,,,,thema,images/br_thema.png,images/cb_thema.png,,thema,,,,,,,,,,,0.592222222,0.221111111,1,0,0,thema,0,1,1,47,1
,,,,,,00071,2023-10-14_15h33.33.540,vbt_B2_day2,2022.2.4,MacIntel,166.6666667,,,,,,,,,,,,,,,,,,,,,,,,,,,,,,,,,,,,,,,,,,sora,images/br_sora.png,images/cb_sora.png,,sora,,,,,,,,,,,0.587777778,0.238888889,1,0,0,sora,0,2,2,22,1
,,,,,,00071,2023-10-14_15h33.33.540,vbt_B2_day2,2022.2.4,MacIntel,166.6666667,,,,,,,,,,,,,,,,,,,,,,,,,,,,,,,,,,,,,,,,,,ningen,images/br_ningen.png,images/cb_ningen.png,,nengen,,,,,,,,,,,0.585555556,0.158888889,1,0,0,nengen,0,3,3,28,1
,,,,,,00071,2023-10-14_15h33.33.540,vbt_B2_day2,2022.2.4,MacIntel,166.6666667,,,,,,,,,,,,,,,,,,,,,,,,,,,,,,,,,,,,,,,,,,woning,images/br_woning.png,images/cb_woning.png,,koning,,,,,,,,,,,0.593333333,0.173333333,1,0,0,koning,0,4,4,10,1
,,,,,,00071,2023-10-14_15h33.33.540,vbt_B2_day2,2022.2.4,MacIntel,166.6666667,,,,,,,,,,,,,,,,,,,,,,,,,,,,,,,,,,,,,,,,,,jong,images/br_jong.png,images/cb_jong.png,,jong,,,,,,,,,,,0.598888889,0.174444444,1,0,0,jong,0,5,5,43,1
,,,,,,00071,2023-10-14_15h33.33.540,vbt_B2_day2,2022.2.4,MacIntel,166.6666667,,,,,,,,,,,,,,,,,,,,,,,,,,,,,,,,,,,,,,,,,,kabel,images/br_kabel.png,images/cb_kabel.png,,kabel,,,,,,,,,,,0.644444444,0.183333333,1,0,0,kabel,0,6,6,7,1
,,,,,,00071,2023-10-14_15h33.33.540,vbt_B2_day2,2022.2.4,MacIntel,166.6666667,,,,,,,,,,,,,,,,,,,,,,,,,,,,,,,,,,,,,,,,,,zwager,images/br_zwager.png,images/cb_zwager.png,,zwag..,,,,,,,,,,,0.63,0.11,1,0,0,zwag..,0,7,7,49,1
,,,,,,00071,2023-10-14_15h33.33.540,vbt_B2_day2,2022.2.4,MacIntel,166.6666667,,,,,,,,,,,,,,,,,,,,,,,,,,,,,,,,,,,,,,,,,,blad,images/br_blad.png,images/cb_blad.png,,blad,,,,,,,,,,,0.632222222,0.11,1,0,0,blad,0,8,8,1,1
,,,,,,00071,2023-10-14_15h33.33.540,vbt_B2_day2,2022.2.4,MacIntel,166.6666667,,,,,,,,,,,,,,,,,,,,,,,,,,,,,,,,,,,,,,,,,,tweeling,images/br_tweeling.png,images/cb_tweeling.png,,tweeling,,,,,,,,,,,0.663333333,0.12,1,0,0,tweeling,0,9,9,58,1
,,,,,,00071,2023-10-14_15h33.33.540,vbt_B2_day2,2022.2.4,MacIntel,166.6666667,,,,,,,,,,,,,,,,,,,,,,,,,,,,,,,,,,,,,,,,,,doodmoe,images/br_doodmoe.png,images/cb_doodmoe.png,,doodmoe,,,,,,,,,,,0.685555556,0.128888889,1,0,0,doodmoe,0,10,10,15,1
,,,,,,00071,2023-10-14_15h33.33.540,vbt_B2_day2,2022.2.4,MacIntel,166.6666667,,,,,,,,,,,,,,,,,,,,,,,,,,,,,,,,,,,,,,,,,,feestdag,images/br_feestdag.png,images/cb_feestdag.png,,feestdag,,,,,,,,,,,0.694444444,0.116666667,1,0,0,feestdag,0,11,11,17,1
,,,,,,00071,2023-10-14_15h33.33.540,vbt_B2_day2,2022.2.4,MacIntel,166.6666667,,,,,,,,,,,,,,,,,,,,,,,,,,,,,,,,,,,,,,,,,,ophuimen,images/br_ophuimen.png,images/cb_ophuimen.png,,op....,,,,,,,,,,,0.694444444,0.075555556,1,0,0,op....,0,12,12,36,1
,,,,,,00071,2023-10-14_15h33.33.540,vbt_B2_day2,2022.2.4,MacIntel,166.6666667,,,,,,,,,,,,,,,,,,,,,,,,,,,,,,,,,,,,,,,,,,sifferd,images/br_sifferd.png,images/cb_sifferd.png,,siff...,,,,,,,,,,,0.151111111,-0.247777778,1,0,0,siff...,0,13,13,32,1
,,,,,,00071,2023-10-14_15h33.33.540,vbt_B2_day2,2022.2.4,MacIntel,166.6666667,,,,,,,,,,,,,,,,,,,,,,,,,,,,,,,,,,,,,,,,,,krimmen,images/br_krimmen.png,images/cb_krimmen.png,,kr....,,,,,,,,,,,0.266666667,0.025555556,1,0,0,kr....,0,14,14,35,1
,,,,,,00071,2023-10-14_15h33.33.540,vbt_B2_day2,2022.2.4,MacIntel,166.6666667,,,,,,,,,,,,,,,,,,,,,,,,,,,,,,,,,,,,,,,,,,remel,images/br_remel.png,images/cb_remel.png,,remel,,,,,,,,,,,0.096666667,-0.088888889,1,0,0,remel,0,15,15,25,1
,,,,,,00071,2023-10-14_15h33.33.540,vbt_B2_day2,2022.2.4,MacIntel,166.6666667,,,,,,,,,,,,,,,,,,,,,,,,,,,,,,,,,,,,,,,,,,agressie,images/br_agressie.png,images/cb_agressie.png,,agress..,,,,,,,,,,,0.054444444,-0.047777778,1,0,0,agress..,0,16,16,59,1
,,,,,,00071,2023-10-14_15h33.33.540,vbt_B2_day2,2022.2.4,MacIntel,166.6666667,,,,,,,,,,,,,,,,,,,,,,,,,,,,,,,,,,,,,,,,,,plannen,images/br_plannen.png,images/cb_plannen.png,,plannen,,,,,,,,,,,0.053333333,-0.047777778,1,0,0,plannen,0,17,17,55,1
,,,,,,00071,2023-10-14_15h33.33.540,vbt_B2_day2,2022.2.4,MacIntel,166.6666667,,,,,,,,,,,,,,,,,,,,,,,,,,,,,,,,,,,,,,,,,,aanzien,images/br_aanzien.png,images/cb_aanzien.png,,aanzien,,,,,,,,,,,0.108888889,-0.036666667,1,0,0,aanzien,0,18,18,13,1
,,,,,,00071,2023-10-14_15h33.33.540,vbt_B2_day2,2022.2.4,MacIntel,166.6666667,,,,,,,,,,,,,,,,,,,,,,,,,,,,,,,,,,,,,,,,,,moes,images/br_moes.png,images/cb_moes.png,,moes,,,,,,,,,,,0.111111111,-0.002222222,1,0,0,moes,0,19,19,0,1
,,,,,,00071,2023-10-14_15h33.33.540,vbt_B2_day2,2022.2.4,MacIntel,166.6666667,,,,,,,,,,,,,,,,,,,,,,,,,,,,,,,,,,,,,,,,,,aanvraag,images/br_aanvraag.png,images/cb_aanvraag.png,,aanlraan,,,,,,,,,,,0.125555556,-0.265555556,1,0,0,aanlraan,0,20,20,57,1
,,,,,,00071,2023-10-14_15h33.33.540,vbt_B2_day2,2022.2.4,MacIntel,166.6666667,,,,,,,,,,,,,,,,,,,,,,,,,,,,,,,,,,,,,,,,,,welzijn,images/br_welzijn.png,images/cb_welzijn.png,,welzi.n,,,,,,,,,,,0.118888889,-0.275555556,1,0,0,welzi.n,0,21,21,52,1
,,,,,,00071,2023-10-14_15h33.33.540,vbt_B2_day2,2022.2.4,MacIntel,166.6666667,,,,,,,,,,,,,,,,,,,,,,,,,,,,,,,,,,,,,,,,,,anarchie,images/br_anarchie.png,images/cb_anarchie.png,,anarchie,,,,,,,,,,,0.19,-0.102222222,1,0,0,anarchie,0,22,22,16,1
,,,,,,00071,2023-10-14_15h33.33.540,vbt_B2_day2,2022.2.4,MacIntel,166.6666667,,,,,,,,,,,,,,,,,,,,,,,,,,,,,,,,,,,,,,,,,,kijlen,images/br_kijlen.png,images/cb_kijlen.png,,kijl..,,,,,,,,,,,0.216666667,0.008888889,1,0,0,kijl..,0,23,23,31,1
,,,,,,00071,2023-10-14_15h33.33.540,vbt_B2_day2,2022.2.4,MacIntel,166.6666667,,,,,,,,,,,,,,,,,,,,,,,,,,,,,,,,,,,,,,,,,,goon,images/br_goon.png,images/cb_goon.png,,goon,,,,,,,,,,,0.235555556,0.037777778,1,0,0,goon,0,24,24,23,1
,,,,,,00071,2023-10-14_15h33.33.540,vbt_B2_day2,2022.2.4,MacIntel,166.6666667,,,,,,,,,,,,,,,,,,,,,,,,,,,,,,,,,,,,,,,,,,wijve,images/br_wijve.png,images/cb_wijve.png,,wijv.,,,,,,,,,,,0.026666667,-0.09,1,0,0,wijv.,0,25,25,27,1
,,,,,,00071,2023-10-14_15h33.33.540,vbt_B2_day2,2022.2.4,MacIntel,166.6666667,,,,,,,,,,,,,,,,,,,,,,,,,,,,,,,,,,,,,,,,,,piste,images/br_piste.png,images/cb_piste.png,,piste,,,,,,,,,,,0.171111111,0.053333333,1,0,0,piste,0,26,26,5,1
,,,,,,00071,2023-10-14_15h33.33.540,vbt_B2_day2,2022.2.4,MacIntel,166.6666667,,,,,,,,,,,,,,,,,,,,,,,,,,,,,,,,,,,,,,,,,,joes,images/br_joes.png,images/cb_joes.png,,j...,,,,,,,,,,,0.113333333,0.018888889,1,0,0,j...,0,27,27,20,1
,,,,,,00071,2023-10-14_15h33.33.540,vbt_B2_day2,2022.2.4,MacIntel,166.6666667,,,,,,,,,,,,,,,,,,,,,,,,,,,,,,,,,,,,,,,,,,tand,images/br_tand.png,images/cb_tand.png,,tand,,,,,,,,,,,0.086666667,0.085555556,1,0,0,tand,0,28,28,42,1
,,,,,,00071,2023-10-14_15h33.33.540,vbt_B2_day2,2022.2.4,MacIntel,166.6666667,,,,,,,,,,,,,,,,,,,,,,,,,,,,,,,,,,,,,,,,,,bereuwen,images/br_bereuwen.png,images/cb_bereuwen.png,,bereuw..,,,,,,,,,,,0.014444444,-0.111111111,1,0,0,bereuw..,0,29,29,39,1
,,,,,,00071,2023-10-14_15h33.33.540,vbt_B2_day2,2022.2.4,MacIntel,166.6666667,,,,,,,,,,,,,,,,,,,,,,,,,,,,,,,,,,,,,,,,,,geld,images/br_geld.png,images/cb_geld.png,,geld,,,,,,,,,,,0.151111111,0.022222222,1,0,0,geld,0,30,30,3,1
,,,,,,00071,2023-10-14_15h33.33.540,vbt_B2_day2,2022.2.4,MacIntel,166.6666667,,,,,,,,,,,,,,,,,,,,,,,,,,,,,,,,,,,,,,,,,,sjijfel,images/br_sjijfel.png,images/cb_sjijfel.png,,sji....,,,,,,,,,,,0.038888889,0.005555556,1,0,0,sji....,0,31,31,33,1
,,,,,,00071,2023-10-14_15h33.33.540,vbt_B2_day2,2022.2.4,MacIntel,166.6666667,,,,,,,,,,,,,,,,,,,,,,,,,,,,,,,,,,,,,,,,,,flits,images/br_flits.png,images/cb_flits.png,,flits,,,,,,,,,,,0.152222222,0.077777778,1,0,0,flits,0,32,32,4,1
,,,,,,00071,2023-10-14_15h33.33.540,vbt_B2_day2,2022.2.4,MacIntel,166.6666667,,,,,,,,,,,,,,,,,,,,,,,,,,,,,,,,,,,,,,,,,,prekken,images/br_prekken.png,images/cb_prekken.png,,prekk..,,,,,,,,,,,0.05,-0.101111111,1,0,0,prekk..,0,33,33,34,1
,,,,,,00071,2023-10-14_15h33.33.540,vbt_B2_day2,2022.2.4,MacIntel,166.6666667,,,,,,,,,,,,,,,,,,,,,,,,,,,,,,,,,,,,,,,,,,lijnen,images/br_lijnen.png,images/cb_lijnen.png,,lijnen,,,,,,,,,,,0.154444444,0.061111111,1,0,0,lijnen,0,34,34,51,1
,,,,,,00071,2023-10-14_15h33.33.540,vbt_B2_day2,2022.2.4,MacIntel,166.6666667,,,,,,,,,,,,,,,,,,,,,,,,,,,,,,,,,,,,,,,,,,opdatten,images/br_opdatten.png,images/cb_opdatten.png,,opdatt..,,,,,,,,,,,0.027777778,-0.077777778,1,0,0,opdatt..,0,35,35,37,1
,,,,,,00071,2023-10-14_15h33.33.540,vbt_B2_day2,2022.2.4,MacIntel,166.6666667,,,,,,,,,,,,,,,,,,,,,,,,,,,,,,,,,,,,,,,,,,systeem,images/br_systeem.png,images/cb_systeem.png,,systeem,,,,,,,,,,,-0.03,-0.015555556,1,0,0,systeem,0,36,36,54,1
,,,,,,00071,2023-10-14_15h33.33.540,vbt_B2_day2,2022.2.4,MacIntel,166.6666667,,,,,,,,,,,,,,,,,,,,,,,,,,,,,,,,,,,,,,,,,,strikken,images/br_strikken.png,images/cb_strikken.png,,strikken,,,,,,,,,,,-0.01,0.037777778,1,0,0,strikken,0,37,37,18,1
,,,,,,00071,2023-10-14_15h33.33.540,vbt_B2_day2,2022.2.4,MacIntel,166.6666667,,,,,,,,,,,,,,,,,,,,,,,,,,,,,,,,,,,,,,,,,,stes,images/br_stes.png,images/cb_stes.png,,stes,,,,,,,,,,,0.034444444,0.102222222,1,0,0,stes,0,38,38,21,1
,,,,,,00071,2023-10-14_15h33.33.540,vbt_B2_day2,2022.2.4,MacIntel,166.6666667,,,,,,,,,,,,,,,,,,,,,,,,,,,,,,,,,,,,,,,,,,lokken,images/br_lokken.png,images/cb_lokken.png,,lokken ,,,,,,,,,,,0.072222222,0.118888889,1,0,0,lokken ,0,39,39,8,1
,,,,,,00071,2023-10-14_15h33.33.540,vbt_B2_day2,2022.2.4,MacIntel,166.6666667,,,,,,,,,,,,,,,,,,,,,,,,,,,,,,,,,,,,,,,,,,negel,images/br_negel.png,images/cb_negel.png,,negel,,,,,,,,,,,0.068888889,-0.133333333,1,0,0,negel,0,40,40,24,1
,,,,,,00071,2023-10-14_15h33.33.540,vbt_B2_day2,2022.2.4,MacIntel,166.6666667,,,,,,,,,,,,,,,,,,,,,,,,,,,,,,,,,,,,,,,,,,eenhoorn,images/br_eenhoorn.png,images/cb_eenhoorn.png,,eenhoorn,,,,,,,,,,,0.043333333,-0.047777778,1,0,0,eenhoorn,0,41,41,19,1
,,,,,,00071,2023-10-14_15h33.33.540,vbt_B2_day2,2022.2.4,MacIntel,166.6666667,,,,,,,,,,,,,,,,,,,,,,,,,,,,,,,,,,,,,,,,,,dode,images/br_dode.png,images/cb_dode.png,,dode,,,,,,,,,,,0.047777778,0.037777778,1,0,0,dode,0,42,42,41,1
,,,,,,00071,2023-10-14_15h33.33.540,vbt_B2_day2,2022.2.4,MacIntel,166.6666667,,,,,,,,,,,,,,,,,,,,,,,,,,,,,,,,,,,,,,,,,,manieren,images/br_manieren.png,images/cb_manieren.png,,manieren,,,,,,,,,,,0.056666667,0.078888889,1,0,0,manieren,0,43,43,56,1
,,,,,,00071,2023-10-14_15h33.33.540,vbt_B2_day2,2022.2.4,MacIntel,166.6666667,,,,,,,,,,,,,,,,,,,,,,,,,,,,,,,,,,,,,,,,,,lurgen,images/br_lurgen.png,images/cb_lurgen.png,,lukgen,,,,,,,,,,,0.023333333,-0.12,1,0,0,lukgen,0,44,44,29,1
,,,,,,00071,2023-10-14_15h33.33.540,vbt_B2_day2,2022.2.4,MacIntel,166.6666667,,,,,,,,,,,,,,,,,,,,,,,,,,,,,,,,,,,,,,,,,,heengeen,images/br_heengeen.png,images/cb_heengeen.png,,heengeen,,,,,,,,,,,0.04,-0.123333333,1,0,0,heengeen,0,45,45,38,1
,,,,,,00071,2023-10-14_15h33.33.540,vbt_B2_day2,2022.2.4,MacIntel,166.6666667,,,,,,,,,,,,,,,,,,,,,,,,,,,,,,,,,,,,,,,,,,clan,images/br_clan.png,images/cb_clan.png,,clan,,,,,,,,,,,0.066666667,-0.096666667,1,0,0,clan,0,46,46,40,1
,,,,,,00071,2023-10-14_15h33.33.540,vbt_B2_day2,2022.2.4,MacIntel,166.6666667,,,,,,,,,,,,,,,,,,,,,,,,,,,,,,,,,,,,,,,,,,zegel,images/br_zegel.png,images/cb_zegel.png,,zegel,,,,,,,,,,,0.177777778,0.006666667,1,0,0,zegel,0,47,47,46,1
,,,,,,00071,2023-10-14_15h33.33.540,vbt_B2_day2,2022.2.4,MacIntel,166.6666667,,,,,,,,,,,,,,,,,,,,,,,,,,,,,,,,,,,,,,,,,,diep,images/br_diep.png,images/cb_diep.png,,diep,,,,,,,,,,,0.221111111,0.016666667,1,0,0,diep,0,48,48,2,1
,,,,,,00071,2023-10-14_15h33.33.540,vbt_B2_day2,2022.2.4,MacIntel,166.6666667,,,,,,,,,,,,,,,,,,,,,,,,,,,,,,,,,,,,,,,,,,breuk,images/br_breuk.png,images/cb_breuk.png,,breuk,,,,,,,,,,,0.097777778,0.053333333,1,0,0,breuk,0,49,49,45,1
,,,,,,00071,2023-10-14_15h33.33.540,vbt_B2_day2,2022.2.4,MacIntel,166.6666667,,,,,,,,,,,,,,,,,,,,,,,,,,,,,,,,,,,,,,,,,,inzicht,images/br_inzicht.png,images/cb_inzicht.png,,inzic..,,,,,,,,,,,0.038888889,-0.007777778,1,0,0,inzic..,0,50,50,53,1
,,,,,,00071,2023-10-14_15h33.33.540,vbt_B2_day2,2022.2.4,MacIntel,166.6666667,,,,,,,,,,,,,,,,,,,,,,,,,,,,,,,,,,,,,,,,,,jagen,images/br_jagen.png,images/cb_jagen.png,,jagen,,,,,,,,,,,0.021111111,0.023333333,1,0,0,jagen,0,51,51,6,1
,,,,,,00071,2023-10-14_15h33.33.540,vbt_B2_day2,2022.2.4,MacIntel,166.6666667,,,,,,,,,,,,,,,,,,,,,,,,,,,,,,,,,,,,,,,,,,heilig,images/br_heilig.png,images/cb_heilig.png,,heilig,,,,,,,,,,,-0.021111111,0.043333333,1,0,0,heilig,0,52,52,9,1
,,,,,,00071,2023-10-14_15h33.33.540,vbt_B2_day2,2022.2.4,MacIntel,166.6666667,,,,,,,,,,,,,,,,,,,,,,,,,,,,,,,,,,,,,,,,,,kasteel,images/br_kasteel.png,images/cb_kasteel.png,,kas...,,,,,,,,,,,-0.1,0.094444444,1,0,0,kas...,0,53,53,14,1
,,,,,,00071,2023-10-14_15h33.33.540,vbt_B2_day2,2022.2.4,MacIntel,166.6666667,,,,,,,,,,,,,,,,,,,,,,,,,,,,,,,,,,,,,,,,,,kenzis,images/br_kenzis.png,images/cb_kenzis.png,,kenses,,,,,,,,,,,0.027777778,-0.122222222,1,0,0,kenses,0,54,54,30,1
,,,,,,00071,2023-10-14_15h33.33.540,vbt_B2_day2,2022.2.4,MacIntel,166.6666667,,,,,,,,,,,,,,,,,,,,,,,,,,,,,,,,,,,,,,,,,,toeval,images/br_toeval.png,images/cb_toeval.png,,toeval,,,,,,,,,,,0.035555556,0.096666667,1,0,0,toeval,0,55,55,11,1
,,,,,,00071,2023-10-14_15h33.33.540,vbt_B2_day2,2022.2.4,MacIntel,166.6666667,,,,,,,,,,,,,,,,,,,,,,,,,,,,,,,,,,,,,,,,,,koorts,images/br_koorts.png,images/cb_koorts.png,,koorts,,,,,,,,,,,0.051111111,0.131111111,1,0,0,koorts,0,56,56,50,1
,,,,,,00071,2023-10-14_15h33.33.540,vbt_B2_day2,2022.2.4,MacIntel,166.6666667,,,,,,,,,,,,,,,,,,,,,,,,,,,,,,,,,,,,,,,,,,trots,images/br_trots.png,images/cb_trots.png,,trots,,,,,,,,,,,0.028888889,0.044444444,1,0,0,trots,0,57,57,44,1
,,,,,,00071,2023-10-14_15h33.33.540,vbt_B2_day2,2022.2.4,MacIntel,166.6666667,,,,,,,,,,,,,,,,,,,,,,,,,,,,,,,,,,,,,,,,,,badon,images/br_badon.png,images/cb_badon.png,,badon,,,,,,,,,,,0.08,-0.068888889,1,0,0,badon,0,58,58,26,1
,,,,,,00071,2023-10-14_15h33.33.540,vbt_B2_day2,2022.2.4,MacIntel,166.6666667,,,,,,,,,,,,,,,,,,,,,,,,,,,,,,,,,,,,,,,,,,zomers,images/br_zomers.png,images/cb_zomers.png,,nomers,,,,,,,,,,,0.066666667,-0.062222222,1,0,0,nomers,0,59,59,48,1
,,,,,,00071,2023-10-14_15h33.33.540,vbt_B2_day2,2022.2.4,MacIntel,166.6666667,,,,,,,,,,,,,,,,,,,,,,,,,,,,,,,,,,,,,,,,,,,,,,,,,,,,,,,,,,,,,,,,,,,
