welcome_mouse.x,welcome_mouse.y,welcome_mouse.leftButton,welcome_mouse.midButton,welcome_mouse.rightButton,welcome_mouse.time,"ID",date,expName,psychopyVersion,OS,frameRate,refresh_mouse.x,refresh_mouse.y,refresh_mouse.leftButton,refresh_mouse.midButton,refresh_mouse.rightButton,refresh_mouse.time,braille_mouse.x,braille_mouse.y,braille_mouse.leftButton,braille_mouse.midButton,braille_mouse.rightButton,braille_mouse.time,trials.thisRepN,trials.thisTrialN,trials.thisN,trials.thisIndex,trials.ran,nlLet,brLet,cbLet,trainInstr_mouse.x,trainInstr_mouse.y,trainInstr_mouse.leftButton,trainInstr_mouse.midButton,trainInstr_mouse.rightButton,trainInstr_mouse.time,translation_key.keys,translation_key.corr,translation_key.rt,word_rsp.text,word_mouse.x,word_mouse.y,word_mouse.leftButton,word_mouse.midButton,word_mouse.rightButton,word_mouse.time,train_loop.thisRepN,train_loop.thisTrialN,train_loop.thisN,train_loop.thisIndex,train_loop.ran,nlWrd,brWrd,cbWrd,test,testResp,mouse.x,mouse.y,mouse.leftButton,mouse.midButton,mouse.rightButton,testInstr_mouse.x,testInstr_mouse.y,testInstr_mouse.leftButton,testInstr_mouse.midButton,testInstr_mouse.rightButton,test_mouse.x,test_mouse.y,test_mouse.leftButton,test_mouse.midButton,test_mouse.rightButton,test_response.text,test_loop.thisRepN,test_loop.thisTrialN,test_loop.thisN,test_loop.thisIndex,test_loop.ran
0.387037065,-0.016666667,1,0,0,10.4814,00018,2023-08-12_11h48.13.089,vbt_B2_day2,2022.2.4,Win32,58.47269325,,,,,,,,,,,,,,,,,,,,,,,,,,,,,,,,,,,,,,,,,,,,,,,,,,,,,,,,,,,,,,,,,,,
,,,,,,00018,2023-08-12_11h48.13.089,vbt_B2_day2,2022.2.4,Win32,58.47269325,0.56203715,0.024074046,1,0,0,8.6577,,,,,,,,,,,,,,,,,,,,,,,,,,,,,,,,,,,,,,,,,,,,,,,,,,,,,,,,,,,,,
,,,,,,00018,2023-08-12_11h48.13.089,vbt_B2_day2,2022.2.4,Win32,58.47269325,,,,,,,0.485185242,0.011111111,1,0,0,5.1136,0,0,0,4,1,e,images/br_e.png,images/cb_e.png,,,,,,,,,,,,,,,,,,,,,,,,,,,,,,,,,,,,,,,,,,,,,,,
,,,,,,00018,2023-08-12_11h48.13.089,vbt_B2_day2,2022.2.4,Win32,58.47269325,,,,,,,0.486111111,0.011111111,1,0,0,1.8148,0,1,1,21,1,v,images/br_v.png,images/cb_v.png,,,,,,,,,,,,,,,,,,,,,,,,,,,,,,,,,,,,,,,,,,,,,,,
,,,,,,00018,2023-08-12_11h48.13.089,vbt_B2_day2,2022.2.4,Win32,58.47269325,,,,,,,0.487037065,0.011111111,1,0,0,5.3463,0,2,2,7,1,h,images/br_h.png,images/cb_h.png,,,,,,,,,,,,,,,,,,,,,,,,,,,,,,,,,,,,,,,,,,,,,,,
,,,,,,00018,2023-08-12_11h48.13.089,vbt_B2_day2,2022.2.4,Win32,58.47269325,,,,,,,0.407407464,0.01851849,1,0,0,10.9935,0,3,3,11,1,l,images/br_l.png,images/cb_l.png,,,,,,,,,,,,,,,,,,,,,,,,,,,,,,,,,,,,,,,,,,,,,,,
,,,,,,00018,2023-08-12_11h48.13.089,vbt_B2_day2,2022.2.4,Win32,58.47269325,,,,,,,0.348148176,-0.036111111,1,0,0,1.2989,0,4,4,9,1,j,images/br_j.png,images/cb_j.png,,,,,,,,,,,,,,,,,,,,,,,,,,,,,,,,,,,,,,,,,,,,,,,
,,,,,,00018,2023-08-12_11h48.13.089,vbt_B2_day2,2022.2.4,Win32,58.47269325,,,,,,,0.348148176,-0.036111111,1,0,0,0.8495,0,5,5,3,1,d,images/br_d.png,images/cb_d.png,,,,,,,,,,,,,,,,,,,,,,,,,,,,,,,,,,,,,,,,,,,,,,,
,,,,,,00018,2023-08-12_11h48.13.089,vbt_B2_day2,2022.2.4,Win32,58.47269325,,,,,,,0.339814843,-0.035185199,1,0,0,4.6141,0,6,6,17,1,r,images/br_r.png,images/cb_r.png,,,,,,,,,,,,,,,,,,,,,,,,,,,,,,,,,,,,,,,,,,,,,,,
,,,,,,00018,2023-08-12_11h48.13.089,vbt_B2_day2,2022.2.4,Win32,58.47269325,,,,,,,0.289814843,-0.072222222,1,0,0,4.0471,0,7,7,10,1,k,images/br_k.png,images/cb_k.png,,,,,,,,,,,,,,,,,,,,,,,,,,,,,,,,,,,,,,,,,,,,,,,
,,,,,,00018,2023-08-12_11h48.13.089,vbt_B2_day2,2022.2.4,Win32,58.47269325,,,,,,,0.289814843,-0.072222222,1,0,0,4.0645,0,8,8,22,1,w,images/br_w.png,images/cb_w.png,,,,,,,,,,,,,,,,,,,,,,,,,,,,,,,,,,,,,,,,,,,,,,,
,,,,,,00018,2023-08-12_11h48.13.089,vbt_B2_day2,2022.2.4,Win32,58.47269325,,,,,,,0.289814843,-0.072222222,1,0,0,4.38,0,9,9,25,1,z,images/br_z.png,images/cb_z.png,,,,,,,,,,,,,,,,,,,,,,,,,,,,,,,,,,,,,,,,,,,,,,,
,,,,,,00018,2023-08-12_11h48.13.089,vbt_B2_day2,2022.2.4,Win32,58.47269325,,,,,,,0.270370399,-0.079629644,1,0,0,1.4823,0,10,10,18,1,s,images/br_s.png,images/cb_s.png,,,,,,,,,,,,,,,,,,,,,,,,,,,,,,,,,,,,,,,,,,,,,,,
,,,,,,00018,2023-08-12_11h48.13.089,vbt_B2_day2,2022.2.4,Win32,58.47269325,,,,,,,0.270370399,-0.079629644,1,0,0,4.5305,0,11,11,20,1,u,images/br_u.png,images/cb_u.png,,,,,,,,,,,,,,,,,,,,,,,,,,,,,,,,,,,,,,,,,,,,,,,
,,,,,,00018,2023-08-12_11h48.13.089,vbt_B2_day2,2022.2.4,Win32,58.47269325,,,,,,,0.275925954,-0.076851866,1,0,0,0.4496,0,12,12,15,1,p,images/br_p.png,images/cb_p.png,,,,,,,,,,,,,,,,,,,,,,,,,,,,,,,,,,,,,,,,,,,,,,,
,,,,,,00018,2023-08-12_11h48.13.089,vbt_B2_day2,2022.2.4,Win32,58.47269325,,,,,,,0.28148151,-0.074074088,1,0,0,0.184,0,13,13,19,1,t,images/br_t.png,images/cb_t.png,,,,,,,,,,,,,,,,,,,,,,,,,,,,,,,,,,,,,,,,,,,,,,,
,,,,,,00018,2023-08-12_11h48.13.089,vbt_B2_day2,2022.2.4,Win32,58.47269325,,,,,,,0.285185242,-0.072222222,1,0,0,1.8656,0,14,14,13,1,n,images/br_n.png,images/cb_n.png,,,,,,,,,,,,,,,,,,,,,,,,,,,,,,,,,,,,,,,,,,,,,,,
,,,,,,00018,2023-08-12_11h48.13.089,vbt_B2_day2,2022.2.4,Win32,58.47269325,,,,,,,0.312963019,-0.037037065,1,0,0,5.2806,0,15,15,5,1,f,images/br_f.png,images/cb_f.png,,,,,,,,,,,,,,,,,,,,,,,,,,,,,,,,,,,,,,,,,,,,,,,
,,,,,,00018,2023-08-12_11h48.13.089,vbt_B2_day2,2022.2.4,Win32,58.47269325,,,,,,,0.321296353,-0.037037065,1,0,0,5.5129,0,16,16,1,1,b,images/br_b.png,images/cb_b.png,,,,,,,,,,,,,,,,,,,,,,,,,,,,,,,,,,,,,,,,,,,,,,,
,,,,,,00018,2023-08-12_11h48.13.089,vbt_B2_day2,2022.2.4,Win32,58.47269325,,,,,,,0.320370399,-0.037037065,1,0,0,5.8296,0,17,17,2,1,c,images/br_c.png,images/cb_c.png,,,,,,,,,,,,,,,,,,,,,,,,,,,,,,,,,,,,,,,,,,,,,,,
,,,,,,00018,2023-08-12_11h48.13.089,vbt_B2_day2,2022.2.4,Win32,58.47269325,,,,,,,0.313888889,-0.028703732,1,0,0,0.433,0,18,18,23,1,x,images/br_x.png,images/cb_x.png,,,,,,,,,,,,,,,,,,,,,,,,,,,,,,,,,,,,,,,,,,,,,,,
,,,,,,00018,2023-08-12_11h48.13.089,vbt_B2_day2,2022.2.4,Win32,58.47269325,,,,,,,0.313888889,-0.028703732,1,0,0,5.7968,0,19,19,8,1,i,images/br_i.png,images/cb_i.png,,,,,,,,,,,,,,,,,,,,,,,,,,,,,,,,,,,,,,,,,,,,,,,
,,,,,,00018,2023-08-12_11h48.13.089,vbt_B2_day2,2022.2.4,Win32,58.47269325,,,,,,,0.28148151,-0.043518533,1,0,0,5.9629,0,20,20,6,1,g,images/br_g.png,images/cb_g.png,,,,,,,,,,,,,,,,,,,,,,,,,,,,,,,,,,,,,,,,,,,,,,,
,,,,,,00018,2023-08-12_11h48.13.089,vbt_B2_day2,2022.2.4,Win32,58.47269325,,,,,,,0.28148151,-0.029629644,1,0,0,1.6155,0,21,21,12,1,m,images/br_m.png,images/cb_m.png,,,,,,,,,,,,,,,,,,,,,,,,,,,,,,,,,,,,,,,,,,,,,,,
,,,,,,00018,2023-08-12_11h48.13.089,vbt_B2_day2,2022.2.4,Win32,58.47269325,,,,,,,0.557407464,0.113888889,1,0,0,7.5624,0,22,22,16,1,q,images/br_q.png,images/cb_q.png,,,,,,,,,,,,,,,,,,,,,,,,,,,,,,,,,,,,,,,,,,,,,,,
,,,,,,00018,2023-08-12_11h48.13.089,vbt_B2_day2,2022.2.4,Win32,58.47269325,,,,,,,0.337963019,-0.019444444,1,0,0,0.733,0,23,23,24,1,y,images/br_y.png,images/cb_y.png,,,,,,,,,,,,,,,,,,,,,,,,,,,,,,,,,,,,,,,,,,,,,,,
,,,,,,00018,2023-08-12_11h48.13.089,vbt_B2_day2,2022.2.4,Win32,58.47269325,,,,,,,0.337963019,-0.019444444,1,0,0,4.6813,0,24,24,0,1,a,images/br_a.png,images/cb_a.png,,,,,,,,,,,,,,,,,,,,,,,,,,,,,,,,,,,,,,,,,,,,,,,
,,,,,,00018,2023-08-12_11h48.13.089,vbt_B2_day2,2022.2.4,Win32,58.47269325,,,,,,,0.337963019,-0.019444444,1,0,0,0.9825,0,25,25,14,1,o,images/br_o.png,images/cb_o.png,,,,,,,,,,,,,,,,,,,,,,,,,,,,,,,,,,,,,,,,,,,,,,,
,,,,,,00018,2023-08-12_11h48.13.089,vbt_B2_day2,2022.2.4,Win32,58.47269325,,,,,,,,,,,,,,,,,,,,,0.512037065,0.037037023,1,0,0,19.6831,,,,,,,,,,,,,,,,,,,,,,,,,,,,,,,,,,,,,,,,,
,,,,,,00018,2023-08-12_11h48.13.089,vbt_B2_day2,2022.2.4,Win32,58.47269325,,,,,,,,,,,,,,,,,,,,,,,,,,,down,0,7.4227,,0.478703732,0.059259245,1,0,0,1.8987,0,0,0,31,1,poes,images/br_poes.png,images/cb_poes.png,0,,,,,,,,,,,,,,,,,,,,,,
,,,,,,00018,2023-08-12_11h48.13.089,vbt_B2_day2,2022.2.4,Win32,58.47269325,,,,,,,,,,,,,,,,,,,,,,,,,,,down,0,9.9797,,0.478703732,0.059259245,1,0,0,1.216,0,1,1,91,1,gezond,images/br_gezond.png,images/cb_gezond.png,0,,,,,,,,,,,,,,,,,,,,,,
,,,,,,00018,2023-08-12_11h48.13.089,vbt_B2_day2,2022.2.4,Win32,58.47269325,,,,,,,,,,,,,,,,,,,,,,,,,,,down,0,5.1679,,0.532407464,-0.015740755,1,0,0,1.1492,0,2,2,1,1,zaal,images/br_zaal.png,images/cb_zaal.png,0,,,,,,,,,,,,,,,,,,,,,,
,,,,,,00018,2023-08-12_11h48.13.089,vbt_B2_day2,2022.2.4,Win32,58.47269325,,,,,,,,,,,,,,,,,,,,,,,,,,,down,0,3.5363,,0.342592621,0.023148134,1,0,0,0.883,0,3,3,22,1,stof,images/br_stof.png,images/cb_stof.png,0,,,,,,,,,,,,,,,,,,,,,,
,,,,,,00018,2023-08-12_11h48.13.089,vbt_B2_day2,2022.2.4,Win32,58.47269325,,,,,,,,,,,,,,,,,,,,,,,,,,,down,0,1.9832,,0.312037065,0.090740712,1,0,0,0.9326,0,4,4,17,1,taal,images/br_taal.png,images/cb_taal.png,1,taal,,,,,,,,,,,,,,,,,,,,,
,,,,,,00018,2023-08-12_11h48.13.089,vbt_B2_day2,2022.2.4,Win32,58.47269325,,,,,,,,,,,,,,,,,,,,,,,,,,,down,0,22.2232,,0.312037065,0.115740712,1,0,0,1.183,0,5,5,167,1,eenhoorn,images/br_eenhoorn.png,images/cb_eenhoorn.png,0,,,,,,,,,,,,,,,,,,,,,,
,,,,,,00018,2023-08-12_11h48.13.089,vbt_B2_day2,2022.2.4,Win32,58.47269325,,,,,,,,,,,,,,,,,,,,,,,,,,,down,0,10.59,,0.304629686,0.115740712,1,0,0,13.3918,0,6,6,181,1,toegeven,images/br_toegeven.png,images/cb_toegeven.png,0,,,,,,,,,,,,,,,,,,,,,,
,,,,,,00018,2023-08-12_11h48.13.089,vbt_B2_day2,2022.2.4,Win32,58.47269325,,,,,,,,,,,,,,,,,,,,,,,,,,,down,0,11.7317,,0.304629686,0.115740712,1,0,0,1.0658,0,7,7,176,1,techniek,images/br_techniek.png,images/cb_techniek.png,1,techniek,,,,,,,,,,,,,,,,,,,,,
,,,,,,00018,2023-08-12_11h48.13.089,vbt_B2_day2,2022.2.4,Win32,58.47269325,,,,,,,,,,,,,,,,,,,,,,,,,,,down,0,17.8677,,0.304629686,0.115740712,1,0,0,1.1331,0,8,8,81,1,dubbel,images/br_dubbel.png,images/cb_dubbel.png,0,,,,,,,,,,,,,,,,,,,,,,
,,,,,,00018,2023-08-12_11h48.13.089,vbt_B2_day2,2022.2.4,Win32,58.47269325,,,,,,,,,,,,,,,,,,,,,,,,,,,down,0,21.2556,,0.304629686,0.115740712,1,0,0,3.9978,0,9,9,73,1,volop,images/br_volop.png,images/cb_volop.png,0,,,,,,,,,,,,,,,,,,,,,,
,,,,,,00018,2023-08-12_11h48.13.089,vbt_B2_day2,2022.2.4,Win32,58.47269325,,,,,,,,,,,,,,,,,,,,,,,,,,,down,0,8.6946,,0.289814843,0.109259245,1,0,0,1.4984,0,10,10,195,1,middelen,images/br_middelen.png,images/cb_middelen.png,0,,,,,,,,,,,,,,,,,,,,,,
,,,,,,00018,2023-08-12_11h48.13.089,vbt_B2_day2,2022.2.4,Win32,58.47269325,,,,,,,,,,,,,,,,,,,,,,,,,,,down,0,6.8468,,0.289814843,0.109259245,1,0,0,1.1161,0,11,11,188,1,strekken,images/br_strekken.png,images/cb_strekken.png,0,,,,,,,,,,,,,,,,,,,,,,
,,,,,,00018,2023-08-12_11h48.13.089,vbt_B2_day2,2022.2.4,Win32,58.47269325,,,,,,,,,,,,,,,,,,,,,,,,,,,down,0,5.2842,,0.302777778,0.187037023,1,0,0,1.7984,0,12,12,66,1,lever,images/br_lever.png,images/cb_lever.png,0,,,,,,,,,,,,,,,,,,,,,,
,,,,,,00018,2023-08-12_11h48.13.089,vbt_B2_day2,2022.2.4,Win32,58.47269325,,,,,,,,,,,,,,,,,,,,,,,,,,,down,0,11.3047,,0.312963019,0.245370356,1,0,0,0.8995,0,13,13,111,1,ticket,images/br_ticket.png,images/cb_ticket.png,0,,,,,,,,,,,,,,,,,,,,,,
,,,,,,00018,2023-08-12_11h48.13.089,vbt_B2_day2,2022.2.4,Win32,58.47269325,,,,,,,,,,,,,,,,,,,,,,,,,,,down,0,13.0802,,0.344444444,0.109259245,1,0,0,3.4811,0,14,14,107,1,maling,images/br_maling.png,images/cb_maling.png,0,,,,,,,,,,,,,,,,,,,,,,
,,,,,,00018,2023-08-12_11h48.13.089,vbt_B2_day2,2022.2.4,Win32,58.47269325,,,,,,,,,,,,,,,,,,,,,,,,,,,down,0,15.3765,,0.344444444,0.109259245,1,0,0,0.7665,0,15,15,172,1,weigeren,images/br_weigeren.png,images/cb_weigeren.png,0,,,,,,,,,,,,,,,,,,,,,,
,,,,,,00018,2023-08-12_11h48.13.089,vbt_B2_day2,2022.2.4,Win32,58.47269325,,,,,,,,,,,,,,,,,,,,,,,,,,,down,0,7.0999,,0.321296353,0.130555556,1,0,0,1.2001,0,16,16,38,1,baai,images/br_baai.png,images/cb_baai.png,0,,,,,,,,,,,,,,,,,,,,,,
,,,,,,00018,2023-08-12_11h48.13.089,vbt_B2_day2,2022.2.4,Win32,58.47269325,,,,,,,,,,,,,,,,,,,,,,,,,,,down,0,1.4103,,0.312963019,0.129629601,1,0,0,0.4,0,17,17,29,1,baas,images/br_baas.png,images/cb_baas.png,0,,,,,,,,,,,,,,,,,,,,,,
,,,,,,00018,2023-08-12_11h48.13.089,vbt_B2_day2,2022.2.4,Win32,58.47269325,,,,,,,,,,,,,,,,,,,,,,,,,,,down,0,7.44,,0.314814843,0.126851824,1,0,0,0.5673,0,18,18,158,1,innemen,images/br_innemen.png,images/cb_innemen.png,0,,,,,,,,,,,,,,,,,,,,,,
,,,,,,00018,2023-08-12_11h48.13.089,vbt_B2_day2,2022.2.4,Win32,58.47269325,,,,,,,,,,,,,,,,,,,,,,,,,,,down,0,4.1652,,0.321296353,0.127777778,1,0,0,1.1824,0,19,19,113,1,koppen,images/br_koppen.png,images/cb_koppen.png,0,,,,,,,,,,,,,,,,,,,,,,
,,,,,,00018,2023-08-12_11h48.13.089,vbt_B2_day2,2022.2.4,Win32,58.47269325,,,,,,,,,,,,,,,,,,,,,,,,,,,down,0,6.7222,,0.349074131,0.100925912,1,0,0,0.5332,0,20,20,184,1,aandelen,images/br_aandelen.png,images/cb_aandelen.png,0,,,,,,,,,,,,,,,,,,,,,,
,,,,,,00018,2023-08-12_11h48.13.089,vbt_B2_day2,2022.2.4,Win32,58.47269325,,,,,,,,,,,,,,,,,,,,,,,,,,,down,0,4.167,,0.326851908,0.020370356,1,0,0,0.5332,0,21,21,10,1,leek,images/br_leek.png,images/cb_leek.png,0,,,,,,,,,,,,,,,,,,,,,,
,,,,,,00018,2023-08-12_11h48.13.089,vbt_B2_day2,2022.2.4,Win32,58.47269325,,,,,,,,,,,,,,,,,,,,,,,,,,,down,0,15.1424,,0.320370399,0.01851849,1,0,0,0.4833,0,22,22,129,1,verhaal,images/br_verhaal.png,images/cb_verhaal.png,0,,,,,,,,,,,,,,,,,,,,,,
,,,,,,00018,2023-08-12_11h48.13.089,vbt_B2_day2,2022.2.4,Win32,58.47269325,,,,,,,,,,,,,,,,,,,,,,,,,,,down,0,12.8384,,0.312963019,0.015740712,1,0,0,1.3835,0,23,23,20,1,site,images/br_site.png,images/cb_site.png,0,,,,,,,,,,,,,,,,,,,,,,
,,,,,,00018,2023-08-12_11h48.13.089,vbt_B2_day2,2022.2.4,Win32,58.47269325,,,,,,,,,,,,,,,,,,,,,,,,,,,down,0,9.1469,,0.377777778,0.074074046,1,0,0,0.7657,0,24,24,118,1,vinger,images/br_vinger.png,images/cb_vinger.png,0,,,,,,,,,,,,,,,,,,,,,,
,,,,,,00018,2023-08-12_11h48.13.089,vbt_B2_day2,2022.2.4,Win32,58.47269325,,,,,,,,,,,,,,,,,,,,,,,,,,,down,0,12.3267,,0.314814843,0.041666667,1,0,0,1.6988,0,25,25,26,1,leuk,images/br_leuk.png,images/cb_leuk.png,0,,,,,,,,,,,,,,,,,,,,,,
,,,,,,00018,2023-08-12_11h48.13.089,vbt_B2_day2,2022.2.4,Win32,58.47269325,,,,,,,,,,,,,,,,,,,,,,,,,,,down,0,4.0671,,0.314814843,0.041666667,1,0,0,0.3832,0,26,26,53,1,baron,images/br_baron.png,images/cb_baron.png,0,,,,,,,,,,,,,,,,,,,,,,
,,,,,,00018,2023-08-12_11h48.13.089,vbt_B2_day2,2022.2.4,Win32,58.47269325,,,,,,,,,,,,,,,,,,,,,,,,,,,down,0,12.4807,,0.317592621,0.041666667,1,0,0,4.1317,0,27,27,70,1,ijdel,images/br_ijdel.png,images/cb_ijdel.png,0,,,,,,,,,,,,,,,,,,,,,,
,,,,,,00018,2023-08-12_11h48.13.089,vbt_B2_day2,2022.2.4,Win32,58.47269325,,,,,,,,,,,,,,,,,,,,,,,,,,,down,0,14.5781,,0.320370399,0.04351849,1,0,0,0.916,0,28,28,135,1,gedicht,images/br_gedicht.png,images/cb_gedicht.png,0,,,,,,,,,,,,,,,,,,,,,,
,,,,,,00018,2023-08-12_11h48.13.089,vbt_B2_day2,2022.2.4,Win32,58.47269325,,,,,,,,,,,,,,,,,,,,,,,,,,,down,0,10.798,,0.311111111,0.05,1,0,0,5.2133,0,29,29,80,1,kanjer,images/br_kanjer.png,images/cb_kanjer.png,0,,,,,,,,,,,,,,,,,,,,,,
,,,,,,00018,2023-08-12_11h48.13.089,vbt_B2_day2,2022.2.4,Win32,58.47269325,,,,,,,,,,,,,,,,,,,,,,,,,,,down,0,35.2835,,0.327777778,0.015740712,1,0,0,1.4493,0,30,30,159,1,sufferd,images/br_sufferd.png,images/cb_sufferd.png,0,,,,,,,,,,,,,,,,,,,,,,
,,,,,,00018,2023-08-12_11h48.13.089,vbt_B2_day2,2022.2.4,Win32,58.47269325,,,,,,,,,,,,,,,,,,,,,,,,,,,down,0,6.2506,,0.327777778,0.015740712,1,0,0,0.6329,0,31,31,87,1,toeval,images/br_toeval.png,images/cb_toeval.png,0,,,,,,,,,,,,,,,,,,,,,,
,,,,,,00018,2023-08-12_11h48.13.089,vbt_B2_day2,2022.2.4,Win32,58.47269325,,,,,,,,,,,,,,,,,,,,,,,,,,,down,0,2.5998,,0.327777778,0.015740712,1,0,0,0.7827,0,32,32,36,1,vuur,images/br_vuur.png,images/cb_vuur.png,0,,,,,,,,,,,,,,,,,,,,,,
,,,,,,00018,2023-08-12_11h48.13.089,vbt_B2_day2,2022.2.4,Win32,58.47269325,,,,,,,,,,,,,,,,,,,,,,,,,,,down,0,13.3958,,0.327777778,0.015740712,1,0,0,1.1003,0,33,33,116,1,besmet,images/br_besmet.png,images/cb_besmet.png,0,,,,,,,,,,,,,,,,,,,,,,
,,,,,,00018,2023-08-12_11h48.13.089,vbt_B2_day2,2022.2.4,Win32,58.47269325,,,,,,,,,,,,,,,,,,,,,,,,,,,down,0,8.683,,0.327777778,0.015740712,1,0,0,0.6995,0,34,34,24,1,jurk,images/br_jurk.png,images/cb_jurk.png,0,,,,,,,,,,,,,,,,,,,,,,
,,,,,,00018,2023-08-12_11h48.13.089,vbt_B2_day2,2022.2.4,Win32,58.47269325,,,,,,,,,,,,,,,,,,,,,,,,,,,down,0,16.2769,,0.327777778,0.015740712,1,0,0,1.0823,0,35,35,128,1,prikken,images/br_prikken.png,images/cb_prikken.png,0,,,,,,,,,,,,,,,,,,,,,,
,,,,,,00018,2023-08-12_11h48.13.089,vbt_B2_day2,2022.2.4,Win32,58.47269325,,,,,,,,,,,,,,,,,,,,,,,,,,,down,0,2.7665,,0.325,0.014814801,1,0,0,0.7328,0,36,36,171,1,aarzelen,images/br_aarzelen.png,images/cb_aarzelen.png,0,,,,,,,,,,,,,,,,,,,,,,
,,,,,,00018,2023-08-12_11h48.13.089,vbt_B2_day2,2022.2.4,Win32,58.47269325,,,,,,,,,,,,,,,,,,,,,,,,,,,down,0,16.5101,,0.327777778,0.01851849,1,0,0,2.5823,0,37,37,104,1,zweven,images/br_zweven.png,images/cb_zweven.png,0,,,,,,,,,,,,,,,,,,,,,,
,,,,,,00018,2023-08-12_11h48.13.089,vbt_B2_day2,2022.2.4,Win32,58.47269325,,,,,,,,,,,,,,,,,,,,,,,,,,,down,0,3.0924,,0.289814843,0.01851849,1,0,0,0.7662,0,38,38,0,1,slak,images/br_slak.png,images/cb_slak.png,0,,,,,,,,,,,,,,,,,,,,,,
,,,,,,00018,2023-08-12_11h48.13.089,vbt_B2_day2,2022.2.4,Win32,58.47269325,,,,,,,,,,,,,,,,,,,,,,,,,,,down,0,5.0828,,0.312963019,0.031481467,1,0,0,0.899,0,39,39,33,1,vlek,images/br_vlek.png,images/cb_vlek.png,0,,,,,,,,,,,,,,,,,,,,,,
,,,,,,00018,2023-08-12_11h48.13.089,vbt_B2_day2,2022.2.4,Win32,58.47269325,,,,,,,,,,,,,,,,,,,,,,,,,,,down,0,3.6974,,0.312037065,0.04351849,1,0,0,0.8166,0,40,40,43,1,klauw,images/br_klauw.png,images/cb_klauw.png,0,,,,,,,,,,,,,,,,,,,,,,
,,,,,,00018,2023-08-12_11h48.13.089,vbt_B2_day2,2022.2.4,Win32,58.47269325,,,,,,,,,,,,,,,,,,,,,,,,,,,down,0,5.0984,,0.312037065,0.04351849,1,0,0,0.7162,0,41,41,101,1,staren,images/br_staren.png,images/cb_staren.png,0,,,,,,,,,,,,,,,,,,,,,,
,,,,,,00018,2023-08-12_11h48.13.089,vbt_B2_day2,2022.2.4,Win32,58.47269325,,,,,,,,,,,,,,,,,,,,,,,,,,,down,0,13.0947,,0.311111111,0.044444444,1,0,0,2.4152,0,42,42,105,1,wijlen,images/br_wijlen.png,images/cb_wijlen.png,0,,,,,,,,,,,,,,,,,,,,,,
,,,,,,00018,2023-08-12_11h48.13.089,vbt_B2_day2,2022.2.4,Win32,58.47269325,,,,,,,,,,,,,,,,,,,,,,,,,,,down,0,15.0993,,0.318518575,0.075,1,0,0,0.9496,0,43,43,146,1,opkomen,images/br_opkomen.png,images/cb_opkomen.png,0,,,,,,,,,,,,,,,,,,,,,,
,,,,,,00018,2023-08-12_11h48.13.089,vbt_B2_day2,2022.2.4,Win32,58.47269325,,,,,,,,,,,,,,,,,,,,,,,,,,,down,0,4.5669,,0.28148151,0.076851824,1,0,0,0.9154,0,44,44,11,1,mode,images/br_mode.png,images/cb_mode.png,0,,,,,,,,,,,,,,,,,,,,,,
,,,,,,00018,2023-08-12_11h48.13.089,vbt_B2_day2,2022.2.4,Win32,58.47269325,,,,,,,,,,,,,,,,,,,,,,,,,,,down,0,20.655,,0.294444444,0.077777778,1,0,0,1.0994,0,45,45,48,1,steel,images/br_steel.png,images/cb_steel.png,0,,,,,,,,,,,,,,,,,,,,,,
,,,,,,00018,2023-08-12_11h48.13.089,vbt_B2_day2,2022.2.4,Win32,58.47269325,,,,,,,,,,,,,,,,,,,,,,,,,,,down,0,5.7811,,0.303703732,0.079629601,1,0,0,2.6481,0,46,46,102,1,legaal,images/br_legaal.png,images/cb_legaal.png,0,,,,,,,,,,,,,,,,,,,,,,
,,,,,,00018,2023-08-12_11h48.13.089,vbt_B2_day2,2022.2.4,Win32,58.47269325,,,,,,,,,,,,,,,,,,,,,,,,,,,down,0,12.8459,,0.324074131,0.127777778,1,0,0,1.1491,0,47,47,154,1,aflopen,images/br_aflopen.png,images/cb_aflopen.png,0,,,,,,,,,,,,,,,,,,,,,,
,,,,,,00018,2023-08-12_11h48.13.089,vbt_B2_day2,2022.2.4,Win32,58.47269325,,,,,,,,,,,,,,,,,,,,,,,,,,,down,0,3.0494,,0.336111111,0.15,1,0,0,0.7156,0,48,48,51,1,samen,images/br_samen.png,images/cb_samen.png,0,,,,,,,,,,,,,,,,,,,,,,
,,,,,,00018,2023-08-12_11h48.13.089,vbt_B2_day2,2022.2.4,Win32,58.47269325,,,,,,,,,,,,,,,,,,,,,,,,,,,down,0,31.5018,,0.35648151,0.163888889,1,0,0,0.8159,0,49,49,65,1,parel,images/br_parel.png,images/cb_parel.png,0,,,,,,,,,,,,,,,,,,,,,,
,,,,,,00018,2023-08-12_11h48.13.089,vbt_B2_day2,2022.2.4,Win32,58.47269325,,,,,,,,,,,,,,,,,,,,,,,,,,,down,0,5.4554,,0.351851908,0.163888889,1,0,0,1.5493,0,50,50,117,1,kennis,images/br_kennis.png,images/cb_kennis.png,0,,,,,,,,,,,,,,,,,,,,,,
,,,,,,00018,2023-08-12_11h48.13.089,vbt_B2_day2,2022.2.4,Win32,58.47269325,,,,,,,,,,,,,,,,,,,,,,,,,,,down,0,6.6745,,0.355555556,0.159259245,1,0,0,1.5162,0,51,51,163,1,schuilen,images/br_schuilen.png,images/cb_schuilen.png,0,,,,,,,,,,,,,,,,,,,,,,
,,,,,,00018,2023-08-12_11h48.13.089,vbt_B2_day2,2022.2.4,Win32,58.47269325,,,,,,,,,,,,,,,,,,,,,,,,,,,down,0,17.559,,0.362037065,0.162037023,1,0,0,1.0324,0,52,52,82,1,muziek,images/br_muziek.png,images/cb_muziek.png,0,,,,,,,,,,,,,,,,,,,,,,
,,,,,,00018,2023-08-12_11h48.13.089,vbt_B2_day2,2022.2.4,Win32,58.47269325,,,,,,,,,,,,,,,,,,,,,,,,,,,down,0,29.0579,,0.362037065,0.162037023,1,0,0,0.783,0,53,53,89,1,slapen,images/br_slapen.png,images/cb_slapen.png,0,,,,,,,,,,,,,,,,,,,,,,
,,,,,,00018,2023-08-12_11h48.13.089,vbt_B2_day2,2022.2.4,Win32,58.47269325,,,,,,,,,,,,,,,,,,,,,,,,,,,down,0,8.3797,,0.365740797,0.162037023,1,0,0,0.8443,0,54,54,21,1,mist,images/br_mist.png,images/cb_mist.png,0,,,,,,,,,,,,,,,,,,,,,,
,,,,,,00018,2023-08-12_11h48.13.089,vbt_B2_day2,2022.2.4,Win32,58.47269325,,,,,,,,,,,,,,,,,,,,,,,,,,,down,0,2.5318,,0.368518575,0.162037023,1,0,0,1.1329,0,55,55,189,1,aanraden,images/br_aanraden.png,images/cb_aanraden.png,0,,,,,,,,,,,,,,,,,,,,,,
,,,,,,00018,2023-08-12_11h48.13.089,vbt_B2_day2,2022.2.4,Win32,58.47269325,,,,,,,,,,,,,,,,,,,,,,,,,,,down,0,1.9512,,0.376851908,0.176851845,1,0,0,0.7831,0,56,56,125,1,aanzien,images/br_aanzien.png,images/cb_aanzien.png,0,,,,,,,,,,,,,,,,,,,,,,
,,,,,,00018,2023-08-12_11h48.13.089,vbt_B2_day2,2022.2.4,Win32,58.47269325,,,,,,,,,,,,,,,,,,,,,,,,,,,down,0,0.5835,,0.382407464,0.180555556,1,0,0,0.9115,0,57,57,109,1,totaal,images/br_totaal.png,images/cb_totaal.png,0,,,,,,,,,,,,,,,,,,,,,,
,,,,,,00018,2023-08-12_11h48.13.089,vbt_B2_day2,2022.2.4,Win32,58.47269325,,,,,,,,,,,,,,,,,,,,,,,,,,,down,0,9.9441,,0.572222222,0.237037023,1,0,0,0.9659,0,58,58,140,1,blijven,images/br_blijven.png,images/cb_blijven.png,0,,,,,,,,,,,,,,,,,,,,,,
,,,,,,00018,2023-08-12_11h48.13.089,vbt_B2_day2,2022.2.4,Win32,58.47269325,,,,,,,,,,,,,,,,,,,,,,,,,,,down,0,7.0728,,0.525,0.224074067,1,0,0,0.904,0,59,59,180,1,openbaar,images/br_openbaar.png,images/cb_openbaar.png,0,,,,,,,,,,,,,,,,,,,,,,
,,,,,,00018,2023-08-12_11h48.13.089,vbt_B2_day2,2022.2.4,Win32,58.47269325,,,,,,,,,,,,,,,,,,,,,,,,,,,down,0,15.2753,,0.420370399,0.162037023,1,0,0,1.5155,0,60,60,122,1,waarvan,images/br_waarvan.png,images/cb_waarvan.png,0,,,,,,,,,,,,,,,,,,,,,,
,,,,,,00018,2023-08-12_11h48.13.089,vbt_B2_day2,2022.2.4,Win32,58.47269325,,,,,,,,,,,,,,,,,,,,,,,,,,,down,0,8.9465,,0.420370399,0.162037023,1,0,0,0.5497,0,61,61,160,1,daarheen,images/br_daarheen.png,images/cb_daarheen.png,0,,,,,,,,,,,,,,,,,,,,,,
,,,,,,00018,2023-08-12_11h48.13.089,vbt_B2_day2,2022.2.4,Win32,58.47269325,,,,,,,,,,,,,,,,,,,,,,,,,,,down,0,3.4847,,0.447222222,0.186111111,1,0,0,0.8496,0,62,62,50,1,stoom,images/br_stoom.png,images/cb_stoom.png,0,,,,,,,,,,,,,,,,,,,,,,
,,,,,,00018,2023-08-12_11h48.13.089,vbt_B2_day2,2022.2.4,Win32,58.47269325,,,,,,,,,,,,,,,,,,,,,,,,,,,down,0,12.2507,,0.462037065,0.191666667,1,0,0,0.4537,0,63,63,63,1,flirt,images/br_flirt.png,images/cb_flirt.png,0,,,,,,,,,,,,,,,,,,,,,,
,,,,,,00018,2023-08-12_11h48.13.089,vbt_B2_day2,2022.2.4,Win32,58.47269325,,,,,,,,,,,,,,,,,,,,,,,,,,,down,0,9.4128,,0.470370399,0.2,1,0,0,1.4368,0,64,64,67,1,zwart,images/br_zwart.png,images/cb_zwart.png,0,,,,,,,,,,,,,,,,,,,,,,
,,,,,,00018,2023-08-12_11h48.13.089,vbt_B2_day2,2022.2.4,Win32,58.47269325,,,,,,,,,,,,,,,,,,,,,,,,,,,down,0,5.0485,,0.473148176,0.2,1,0,0,0.9155,0,65,65,124,1,bloeien,images/br_bloeien.png,images/cb_bloeien.png,0,,,,,,,,,,,,,,,,,,,,,,
,,,,,,00018,2023-08-12_11h48.13.089,vbt_B2_day2,2022.2.4,Win32,58.47269325,,,,,,,,,,,,,,,,,,,,,,,,,,,down,0,2.8897,,0.473148176,0.2,1,0,0,0.7826,0,66,66,7,1,geld,images/br_geld.png,images/cb_geld.png,0,,,,,,,,,,,,,,,,,,,,,,
,,,,,,00018,2023-08-12_11h48.13.089,vbt_B2_day2,2022.2.4,Win32,58.47269325,,,,,,,,,,,,,,,,,,,,,,,,,,,down,0,8.5538,,0.508333333,0.198148134,1,0,0,0.9884,0,67,67,97,1,loyaal,images/br_loyaal.png,images/cb_loyaal.png,1,loyaal,,,,,,,,,,,,,,,,,,,,,
,,,,,,00018,2023-08-12_11h48.13.089,vbt_B2_day2,2022.2.4,Win32,58.47269325,,,,,,,,,,,,,,,,,,,,,,,,,,,down,0,6.6091,,0.515740797,0.212037023,1,0,0,5.2807,0,68,68,23,1,zout,images/br_zout.png,images/cb_zout.png,0,,,,,,,,,,,,,,,,,,,,,,
,,,,,,00018,2023-08-12_11h48.13.089,vbt_B2_day2,2022.2.4,Win32,58.47269325,,,,,,,,,,,,,,,,,,,,,,,,,,,down,0,5.563,,0.487963019,0.230555556,1,0,0,1.1283,0,69,69,84,1,lokken,images/br_lokken.png,images/cb_lokken.png,0,,,,,,,,,,,,,,,,,,,,,,
,,,,,,00018,2023-08-12_11h48.13.089,vbt_B2_day2,2022.2.4,Win32,58.47269325,,,,,,,,,,,,,,,,,,,,,,,,,,,down,0,11.5032,,0.487963019,0.230555556,1,0,0,1.0878,0,70,70,59,1,kring,images/br_kring.png,images/cb_kring.png,1,kring,,,,,,,,,,,,,,,,,,,,,
,,,,,,00018,2023-08-12_11h48.13.089,vbt_B2_day2,2022.2.4,Win32,58.47269325,,,,,,,,,,,,,,,,,,,,,,,,,,,down,0,1.8946,,0.483333333,0.192592578,1,0,0,0.2828,0,71,71,28,1,stal,images/br_stal.png,images/cb_stal.png,0,,,,,,,,,,,,,,,,,,,,,,
,,,,,,00018,2023-08-12_11h48.13.089,vbt_B2_day2,2022.2.4,Win32,58.47269325,,,,,,,,,,,,,,,,,,,,,,,,,,,down,0,5.2973,,0.483333333,0.192592578,1,0,0,0.9494,0,72,72,139,1,stiekem,images/br_stiekem.png,images/cb_stiekem.png,1,stiekem,,,,,,,,,,,,,,,,,,,,,
,,,,,,00018,2023-08-12_11h48.13.089,vbt_B2_day2,2022.2.4,Win32,58.47269325,,,,,,,,,,,,,,,,,,,,,,,,,,,down,0,4.5926,,0.28148151,0.152777778,1,0,0,1.116,0,73,73,55,1,praat,images/br_praat.png,images/cb_praat.png,0,,,,,,,,,,,,,,,,,,,,,,
,,,,,,00018,2023-08-12_11h48.13.089,vbt_B2_day2,2022.2.4,Win32,58.47269325,,,,,,,,,,,,,,,,,,,,,,,,,,,down,0,10.6765,,0.305555556,0.25,1,0,0,1.2953,0,74,74,44,1,flits,images/br_flits.png,images/cb_flits.png,0,,,,,,,,,,,,,,,,,,,,,,
,,,,,,00018,2023-08-12_11h48.13.089,vbt_B2_day2,2022.2.4,Win32,58.47269325,,,,,,,,,,,,,,,,,,,,,,,,,,,down,0,32.1847,,0.305555556,0.25,1,0,0,1.283,0,75,75,99,1,koffie,images/br_koffie.png,images/cb_koffie.png,1,koffie,,,,,,,,,,,,,,,,,,,,,
,,,,,,00018,2023-08-12_11h48.13.089,vbt_B2_day2,2022.2.4,Win32,58.47269325,,,,,,,,,,,,,,,,,,,,,,,,,,,down,0,8.0222,,0.337963019,0.380555556,1,0,0,0.2998,0,76,76,100,1,geduld,images/br_geduld.png,images/cb_geduld.png,0,,,,,,,,,,,,,,,,,,,,,,
,,,,,,00018,2023-08-12_11h48.13.089,vbt_B2_day2,2022.2.4,Win32,58.47269325,,,,,,,,,,,,,,,,,,,,,,,,,,,down,0,3.0885,,0.333333333,0.377777778,1,0,0,1.0373,0,77,77,78,1,leren,images/br_leren.png,images/cb_leren.png,0,,,,,,,,,,,,,,,,,,,,,,
,,,,,,00018,2023-08-12_11h48.13.089,vbt_B2_day2,2022.2.4,Win32,58.47269325,,,,,,,,,,,,,,,,,,,,,,,,,,,down,0,7.7284,,0.329629686,0.405555556,1,0,0,0.9657,0,78,78,131,1,opzicht,images/br_opzicht.png,images/cb_opzicht.png,0,,,,,,,,,,,,,,,,,,,,,,
,,,,,,00018,2023-08-12_11h48.13.089,vbt_B2_day2,2022.2.4,Win32,58.47269325,,,,,,,,,,,,,,,,,,,,,,,,,,,down,0,11.5843,,0.329629686,0.395370367,1,0,0,2.4153,0,79,79,103,1,joggen,images/br_joggen.png,images/cb_joggen.png,0,,,,,,,,,,,,,,,,,,,,,,
,,,,,,00018,2023-08-12_11h48.13.089,vbt_B2_day2,2022.2.4,Win32,58.47269325,,,,,,,,,,,,,,,,,,,,,,,,,,,down,0,2.9656,,0.433333333,0.3537037,1,0,0,2.6697,0,80,80,19,1,geit,images/br_geit.png,images/cb_geit.png,1,geit,,,,,,,,,,,,,,,,,,,,,
,,,,,,00018,2023-08-12_11h48.13.089,vbt_B2_day2,2022.2.4,Win32,58.47269325,,,,,,,,,,,,,,,,,,,,,,,,,,,down,0,5.8134,,0.476851908,0.165740734,1,0,0,1.3657,0,81,81,72,1,strak,images/br_strak.png,images/cb_strak.png,0,,,,,,,,,,,,,,,,,,,,,,
,,,,,,00018,2023-08-12_11h48.13.089,vbt_B2_day2,2022.2.4,Win32,58.47269325,,,,,,,,,,,,,,,,,,,,,,,,,,,down,0,25.7688,,0.480555556,0.165740734,1,0,0,1.1827,0,82,82,144,1,eetlust,images/br_eetlust.png,images/cb_eetlust.png,0,,,,,,,,,,,,,,,,,,,,,,
,,,,,,00018,2023-08-12_11h48.13.089,vbt_B2_day2,2022.2.4,Win32,58.47269325,,,,,,,,,,,,,,,,,,,,,,,,,,,down,0,13.5949,,0.470370399,0.164814801,1,0,0,4.7141,0,83,83,197,1,spanning,images/br_spanning.png,images/cb_spanning.png,0,,,,,,,,,,,,,,,,,,,,,,
,,,,,,00018,2023-08-12_11h48.13.089,vbt_B2_day2,2022.2.4,Win32,58.47269325,,,,,,,,,,,,,,,,,,,,,,,,,,,down,0,6.5308,,0.470370399,0.162037023,1,0,0,0.8332,0,84,84,138,1,akkoord,images/br_akkoord.png,images/cb_akkoord.png,1,akkoord,,,,,,,,,,,,,,,,,,,,,
,,,,,,00018,2023-08-12_11h48.13.089,vbt_B2_day2,2022.2.4,Win32,58.47269325,,,,,,,,,,,,,,,,,,,,,,,,,,,down,0,10.6855,,0.486111111,0.163888889,1,0,0,1.0991,0,85,85,162,1,uitdelen,images/br_uitdelen.png,images/cb_uitdelen.png,0,,,,,,,,,,,,,,,,,,,,,,
,,,,,,00018,2023-08-12_11h48.13.089,vbt_B2_day2,2022.2.4,Win32,58.47269325,,,,,,,,,,,,,,,,,,,,,,,,,,,down,0,20.9084,,0.475925954,0.160185178,1,0,0,0.7999,0,86,86,79,1,nodig,images/br_nodig.png,images/cb_nodig.png,0,,,,,,,,,,,,,,,,,,,,,,
,,,,,,00018,2023-08-12_11h48.13.089,vbt_B2_day2,2022.2.4,Win32,58.47269325,,,,,,,,,,,,,,,,,,,,,,,,,,,down,0,5.9414,,0.475925954,0.160185178,1,0,0,0.766,0,87,87,132,1,grappen,images/br_grappen.png,images/cb_grappen.png,0,,,,,,,,,,,,,,,,,,,,,,
,,,,,,00018,2023-08-12_11h48.13.089,vbt_B2_day2,2022.2.4,Win32,58.47269325,,,,,,,,,,,,,,,,,,,,,,,,,,,down,0,0.8365,,0.387963019,0.174074067,1,0,0,0.7495,0,88,88,74,1,graaf,images/br_graaf.png,images/cb_graaf.png,0,,,,,,,,,,,,,,,,,,,,,,
,,,,,,00018,2023-08-12_11h48.13.089,vbt_B2_day2,2022.2.4,Win32,58.47269325,,,,,,,,,,,,,,,,,,,,,,,,,,,down,0,9.5175,,0.387963019,0.174074067,1,0,0,0.9497,0,89,89,177,1,maaltijd,images/br_maaltijd.png,images/cb_maaltijd.png,1,maaltijd,,,,,,,,,,,,,,,,,,,,,
,,,,,,00018,2023-08-12_11h48.13.089,vbt_B2_day2,2022.2.4,Win32,58.47269325,,,,,,,,,,,,,,,,,,,,,,,,,,,down,0,6.5551,,0.461111111,0.274074067,1,0,0,0.7829,0,90,90,90,1,geluid,images/br_geluid.png,images/cb_geluid.png,0,,,,,,,,,,,,,,,,,,,,,,
,,,,,,00018,2023-08-12_11h48.13.089,vbt_B2_day2,2022.2.4,Win32,58.47269325,,,,,,,,,,,,,,,,,,,,,,,,,,,down,0,1.5667,,0.460185242,0.260185178,1,0,0,0.661,0,91,91,112,1,lukken,images/br_lukken.png,images/cb_lukken.png,0,,,,,,,,,,,,,,,,,,,,,,
,,,,,,00018,2023-08-12_11h48.13.089,vbt_B2_day2,2022.2.4,Win32,58.47269325,,,,,,,,,,,,,,,,,,,,,,,,,,,down,0,5.6069,,0.451851908,0.260185178,1,0,0,0.8539,0,92,92,41,1,maken,images/br_maken.png,images/cb_maken.png,0,,,,,,,,,,,,,,,,,,,,,,
,,,,,,00018,2023-08-12_11h48.13.089,vbt_B2_day2,2022.2.4,Win32,58.47269325,,,,,,,,,,,,,,,,,,,,,,,,,,,down,0,1.5002,,0.448148176,0.266666667,1,0,0,0.8374,0,93,93,42,1,bleek,images/br_bleek.png,images/cb_bleek.png,0,,,,,,,,,,,,,,,,,,,,,,
,,,,,,00018,2023-08-12_11h48.13.089,vbt_B2_day2,2022.2.4,Win32,58.47269325,,,,,,,,,,,,,,,,,,,,,,,,,,,down,0,6.7304,,0.492592621,0.325,1,0,0,0.9161,0,94,94,54,1,gebit,images/br_gebit.png,images/cb_gebit.png,0,,,,,,,,,,,,,,,,,,,,,,
,,,,,,00018,2023-08-12_11h48.13.089,vbt_B2_day2,2022.2.4,Win32,58.47269325,,,,,,,,,,,,,,,,,,,,,,,,,,,down,0,11.9975,,0.488888889,0.205555556,1,0,0,4.9136,0,95,95,182,1,bijkomen,images/br_bijkomen.png,images/cb_bijkomen.png,0,,,,,,,,,,,,,,,,,,,,,,
,,,,,,00018,2023-08-12_11h48.13.089,vbt_B2_day2,2022.2.4,Win32,58.47269325,,,,,,,,,,,,,,,,,,,,,,,,,,,down,0,18.7615,,0.515740797,0.201851845,1,0,0,1.2664,0,96,96,165,1,feestdag,images/br_feestdag.png,images/cb_feestdag.png,0,,,,,,,,,,,,,,,,,,,,,,
,,,,,,00018,2023-08-12_11h48.13.089,vbt_B2_day2,2022.2.4,Win32,58.47269325,,,,,,,,,,,,,,,,,,,,,,,,,,,down,0,4.5643,,0.50648151,0.225,1,0,0,0.7494,0,97,97,126,1,kasteel,images/br_kasteel.png,images/cb_kasteel.png,0,,,,,,,,,,,,,,,,,,,,,,
,,,,,,00018,2023-08-12_11h48.13.089,vbt_B2_day2,2022.2.4,Win32,58.47269325,,,,,,,,,,,,,,,,,,,,,,,,,,,down,0,4.6308,,0.523148176,0.245370356,1,0,0,0.7827,0,98,98,39,1,laag,images/br_laag.png,images/cb_laag.png,0,,,,,,,,,,,,,,,,,,,,,,
,,,,,,00018,2023-08-12_11h48.13.089,vbt_B2_day2,2022.2.4,Win32,58.47269325,,,,,,,,,,,,,,,,,,,,,,,,,,,down,0,13.2444,,0.680555556,-0.08148151,1,0,0,2.2657,0,99,99,88,1,boeien,images/br_boeien.png,images/cb_boeien.png,0,,,,,,,,,,,,,,,,,,,,,,
,,,,,,00018,2023-08-12_11h48.13.089,vbt_B2_day2,2022.2.4,Win32,58.47269325,,,,,,,,,,,,,,,,,,,,,,,,,,,down,0,5.3018,,0.535185242,0.04351849,1,0,0,0.9491,0,100,100,192,1,schaamte,images/br_schaamte.png,images/cb_schaamte.png,0,,,,,,,,,,,,,,,,,,,,,,
,,,,,,00018,2023-08-12_11h48.13.089,vbt_B2_day2,2022.2.4,Win32,58.47269325,,,,,,,,,,,,,,,,,,,,,,,,,,,down,0,13.7437,,0.491666667,0.098148134,1,0,0,4.4636,0,101,101,153,1,vervoer,images/br_vervoer.png,images/cb_vervoer.png,0,,,,,,,,,,,,,,,,,,,,,,
,,,,,,00018,2023-08-12_11h48.13.089,vbt_B2_day2,2022.2.4,Win32,58.47269325,,,,,,,,,,,,,,,,,,,,,,,,,,,down,0,10.6713,,0.491666667,0.098148134,1,0,0,0.9657,0,102,102,108,1,excuus,images/br_excuus.png,images/cb_excuus.png,0,,,,,,,,,,,,,,,,,,,,,,
,,,,,,00018,2023-08-12_11h48.13.089,vbt_B2_day2,2022.2.4,Win32,58.47269325,,,,,,,,,,,,,,,,,,,,,,,,,,,down,0,0.8709,,0.491666667,0.098148134,1,0,0,0.9324,0,103,103,3,1,mand,images/br_mand.png,images/cb_mand.png,0,,,,,,,,,,,,,,,,,,,,,,
,,,,,,00018,2023-08-12_11h48.13.089,vbt_B2_day2,2022.2.4,Win32,58.47269325,,,,,,,,,,,,,,,,,,,,,,,,,,,down,0,2.078,,0.490740797,0.098148134,1,0,0,0.966,0,104,104,150,1,gegeven,images/br_gegeven.png,images/cb_gegeven.png,0,,,,,,,,,,,,,,,,,,,,,,
,,,,,,00018,2023-08-12_11h48.13.089,vbt_B2_day2,2022.2.4,Win32,58.47269325,,,,,,,,,,,,,,,,,,,,,,,,,,,down,0,6.9331,,0.485185242,0.156481467,1,0,0,7.3123,0,105,105,155,1,gerucht,images/br_gerucht.png,images/cb_gerucht.png,0,,,,,,,,,,,,,,,,,,,,,,
,,,,,,00018,2023-08-12_11h48.13.089,vbt_B2_day2,2022.2.4,Win32,58.47269325,,,,,,,,,,,,,,,,,,,,,,,,,,,down,0,20.1664,,0.485185242,0.156481467,1,0,0,1.5212,0,106,106,193,1,weeshuis,images/br_weeshuis.png,images/cb_weeshuis.png,0,,,,,,,,,,,,,,,,,,,,,,
,,,,,,00018,2023-08-12_11h48.13.089,vbt_B2_day2,2022.2.4,Win32,58.47269325,,,,,,,,,,,,,,,,,,,,,,,,,,,down,0,9.272,,0.485185242,0.156481467,1,0,0,1.6322,0,107,107,199,1,beseffen,images/br_beseffen.png,images/cb_beseffen.png,0,,,,,,,,,,,,,,,,,,,,,,
,,,,,,00018,2023-08-12_11h48.13.089,vbt_B2_day2,2022.2.4,Win32,58.47269325,,,,,,,,,,,,,,,,,,,,,,,,,,,down,0,7.8309,,0.485185242,0.159259245,1,0,0,0.7286,0,108,108,137,1,trekker,images/br_trekker.png,images/cb_trekker.png,1,trekker,,,,,,,,,,,,,,,,,,,,,
,,,,,,00018,2023-08-12_11h48.13.089,vbt_B2_day2,2022.2.4,Win32,58.47269325,,,,,,,,,,,,,,,,,,,,,,,,,,,down,0,10.2608,,0.485185242,0.159259245,1,0,0,0.8827,0,109,109,169,1,oprotten,images/br_oprotten.png,images/cb_oprotten.png,0,,,,,,,,,,,,,,,,,,,,,,
,,,,,,00018,2023-08-12_11h48.13.089,vbt_B2_day2,2022.2.4,Win32,58.47269325,,,,,,,,,,,,,,,,,,,,,,,,,,,down,0,12.5621,,0.483333333,0.161111111,1,0,0,1.0328,0,110,110,75,1,snoep,images/br_snoep.png,images/cb_snoep.png,0,,,,,,,,,,,,,,,,,,,,,,
,,,,,,00018,2023-08-12_11h48.13.089,vbt_B2_day2,2022.2.4,Win32,58.47269325,,,,,,,,,,,,,,,,,,,,,,,,,,,down,0,30.4054,,0.339814843,-0.084259288,1,0,0,0.8989,0,111,111,194,1,driemaal,images/br_driemaal.png,images/cb_driemaal.png,0,,,,,,,,,,,,,,,,,,,,,,
,,,,,,00018,2023-08-12_11h48.13.089,vbt_B2_day2,2022.2.4,Win32,58.47269325,,,,,,,,,,,,,,,,,,,,,,,,,,,down,0,16.1615,,0.345370399,-0.043518533,1,0,0,0.7489,0,112,112,178,1,huisdier,images/br_huisdier.png,images/cb_huisdier.png,1,huisdier,,,,,,,,,,,,,,,,,,,,,
,,,,,,00018,2023-08-12_11h48.13.089,vbt_B2_day2,2022.2.4,Win32,58.47269325,,,,,,,,,,,,,,,,,,,,,,,,,,,down,0,3.2765,,0.35,-0.042592621,1,0,0,0.8331,0,113,113,56,1,traag,images/br_traag.png,images/cb_traag.png,1,traag,,,,,,,,,,,,,,,,,,,,,
,,,,,,00018,2023-08-12_11h48.13.089,vbt_B2_day2,2022.2.4,Win32,58.47269325,,,,,,,,,,,,,,,,,,,,,,,,,,,down,0,22.5696,,0.397222222,-0.019444444,1,0,0,1.1162,0,114,114,123,1,hiervan,images/br_hiervan.png,images/cb_hiervan.png,0,,,,,,,,,,,,,,,,,,,,,,
,,,,,,00018,2023-08-12_11h48.13.089,vbt_B2_day2,2022.2.4,Win32,58.47269325,,,,,,,,,,,,,,,,,,,,,,,,,,,down,0,23.1793,,0.394444444,-0.012962977,1,0,0,1.2493,0,115,115,142,1,snuiven,images/br_snuiven.png,images/cb_snuiven.png,0,,,,,,,,,,,,,,,,,,,,,,
,,,,,,00018,2023-08-12_11h48.13.089,vbt_B2_day2,2022.2.4,Win32,58.47269325,,,,,,,,,,,,,,,,,,,,,,,,,,,down,0,7.1634,,0.386111111,-0.012037065,1,0,0,0.9493,0,116,116,149,1,redding,images/br_redding.png,images/cb_redding.png,0,,,,,,,,,,,,,,,,,,,,,,
,,,,,,00018,2023-08-12_11h48.13.089,vbt_B2_day2,2022.2.4,Win32,58.47269325,,,,,,,,,,,,,,,,,,,,,,,,,,,down,0,4.0481,,0.380555556,0.011111111,1,0,0,1.7931,0,117,117,60,1,jasje,images/br_jasje.png,images/cb_jasje.png,0,,,,,,,,,,,,,,,,,,,,,,
,,,,,,00018,2023-08-12_11h48.13.089,vbt_B2_day2,2022.2.4,Win32,58.47269325,,,,,,,,,,,,,,,,,,,,,,,,,,,down,0,10.3491,,0.325,0.14351849,1,0,0,0.7386,0,118,118,8,1,knie,images/br_knie.png,images/cb_knie.png,0,,,,,,,,,,,,,,,,,,,,,,
,,,,,,00018,2023-08-12_11h48.13.089,vbt_B2_day2,2022.2.4,Win32,58.47269325,,,,,,,,,,,,,,,,,,,,,,,,,,,down,0,17.6399,,0.325,0.162962956,1,0,0,1.1823,0,119,119,168,1,bisschop,images/br_bisschop.png,images/cb_bisschop.png,0,,,,,,,,,,,,,,,,,,,,,,
,,,,,,00018,2023-08-12_11h48.13.089,vbt_B2_day2,2022.2.4,Win32,58.47269325,,,,,,,,,,,,,,,,,,,,,,,,,,,down,0,5.2916,,0.359259288,0.183333333,1,0,0,0.7662,0,120,120,121,1,twijfel,images/br_twijfel.png,images/cb_twijfel.png,0,,,,,,,,,,,,,,,,,,,,,,
,,,,,,00018,2023-08-12_11h48.13.089,vbt_B2_day2,2022.2.4,Win32,58.47269325,,,,,,,,,,,,,,,,,,,,,,,,,,,down,0,17.2745,,0.372222222,0.117592578,1,0,0,2.9146,0,121,121,185,1,mijnheer,images/br_mijnheer.png,images/cb_mijnheer.png,0,,,,,,,,,,,,,,,,,,,,,,
,,,,,,00018,2023-08-12_11h48.13.089,vbt_B2_day2,2022.2.4,Win32,58.47269325,,,,,,,,,,,,,,,,,,,,,,,,,,,down,0,2.2578,,0.374074131,0.112037023,1,0,0,0.7995,0,122,122,12,1,kust,images/br_kust.png,images/cb_kust.png,0,,,,,,,,,,,,,,,,,,,,,,
,,,,,,00018,2023-08-12_11h48.13.089,vbt_B2_day2,2022.2.4,Win32,58.47269325,,,,,,,,,,,,,,,,,,,,,,,,,,,down,0,33.5454,,0.546296353,0.109259245,1,0,0,1.2327,0,123,123,156,1,rechten,images/br_rechten.png,images/cb_rechten.png,0,,,,,,,,,,,,,,,,,,,,,,
,,,,,,00018,2023-08-12_11h48.13.089,vbt_B2_day2,2022.2.4,Win32,58.47269325,,,,,,,,,,,,,,,,,,,,,,,,,,,down,0,5.751,,0.451851908,0.073148134,1,0,0,0.8325,0,124,124,161,1,attentie,images/br_attentie.png,images/cb_attentie.png,0,,,,,,,,,,,,,,,,,,,,,,
,,,,,,00018,2023-08-12_11h48.13.089,vbt_B2_day2,2022.2.4,Win32,58.47269325,,,,,,,,,,,,,,,,,,,,,,,,,,,down,0,21.1879,,0.458333333,0.075,1,0,0,0.8163,0,125,125,196,1,nakijken,images/br_nakijken.png,images/cb_nakijken.png,0,,,,,,,,,,,,,,,,,,,,,,
,,,,,,00018,2023-08-12_11h48.13.089,vbt_B2_day2,2022.2.4,Win32,58.47269325,,,,,,,,,,,,,,,,,,,,,,,,,,,down,0,6.05,,0.516666667,0.072222222,1,0,0,1.4309,0,126,126,57,1,steek,images/br_steek.png,images/cb_steek.png,1,steek,,,,,,,,,,,,,,,,,,,,,
,,,,,,00018,2023-08-12_11h48.13.089,vbt_B2_day2,2022.2.4,Win32,58.47269325,,,,,,,,,,,,,,,,,,,,,,,,,,,down,0,8.6949,,0.354629686,0.044444444,1,0,0,0.8321,0,127,127,152,1,afnemen,images/br_afnemen.png,images/cb_afnemen.png,0,,,,,,,,,,,,,,,,,,,,,,
,,,,,,00018,2023-08-12_11h48.13.089,vbt_B2_day2,2022.2.4,Win32,58.47269325,,,,,,,,,,,,,,,,,,,,,,,,,,,down,0,7.7552,,0.337963019,0.051851824,1,0,0,0.8499,0,128,128,83,1,mening,images/br_mening.png,images/cb_mening.png,0,,,,,,,,,,,,,,,,,,,,,,
,,,,,,00018,2023-08-12_11h48.13.089,vbt_B2_day2,2022.2.4,Win32,58.47269325,,,,,,,,,,,,,,,,,,,,,,,,,,,down,0,20.2247,,0.337963019,0.051851824,1,0,0,0.7657,0,129,129,27,1,dans,images/br_dans.png,images/cb_dans.png,0,,,,,,,,,,,,,,,,,,,,,,
,,,,,,00018,2023-08-12_11h48.13.089,vbt_B2_day2,2022.2.4,Win32,58.47269325,,,,,,,,,,,,,,,,,,,,,,,,,,,down,0,7.7147,,0.285185242,0.317592578,1,0,0,1.4988,0,130,130,127,1,doodmoe,images/br_doodmoe.png,images/cb_doodmoe.png,0,,,,,,,,,,,,,,,,,,,,,,
,,,,,,00018,2023-08-12_11h48.13.089,vbt_B2_day2,2022.2.4,Win32,58.47269325,,,,,,,,,,,,,,,,,,,,,,,,,,,down,0,4.9662,,0.285185242,0.327777778,1,0,0,0.6823,0,131,131,5,1,blad,images/br_blad.png,images/cb_blad.png,0,,,,,,,,,,,,,,,,,,,,,,
,,,,,,00018,2023-08-12_11h48.13.089,vbt_B2_day2,2022.2.4,Win32,58.47269325,,,,,,,,,,,,,,,,,,,,,,,,,,,down,0,3.437,,0.291666667,0.317592578,1,0,0,0.7657,0,132,132,96,1,slagen,images/br_slagen.png,images/cb_slagen.png,1,slagen,,,,,,,,,,,,,,,,,,,,,
,,,,,,00018,2023-08-12_11h48.13.089,vbt_B2_day2,2022.2.4,Win32,58.47269325,,,,,,,,,,,,,,,,,,,,,,,,,,,down,0,8.5016,,0.291666667,0.317592578,1,0,0,0.8166,0,133,133,147,1,komisch,images/br_komisch.png,images/cb_komisch.png,0,,,,,,,,,,,,,,,,,,,,,,
,,,,,,00018,2023-08-12_11h48.13.089,vbt_B2_day2,2022.2.4,Win32,58.47269325,,,,,,,,,,,,,,,,,,,,,,,,,,,down,0,1.5831,,0.291666667,0.317592578,1,0,0,0.6327,0,134,134,9,1,hier,images/br_hier.png,images/cb_hier.png,0,,,,,,,,,,,,,,,,,,,,,,
,,,,,,00018,2023-08-12_11h48.13.089,vbt_B2_day2,2022.2.4,Win32,58.47269325,,,,,,,,,,,,,,,,,,,,,,,,,,,down,0,9.4677,,0.291666667,0.317592578,1,0,0,1.3988,0,135,135,198,1,bedoelen,images/br_bedoelen.png,images/cb_bedoelen.png,0,,,,,,,,,,,,,,,,,,,,,,
,,,,,,00018,2023-08-12_11h48.13.089,vbt_B2_day2,2022.2.4,Win32,58.47269325,,,,,,,,,,,,,,,,,,,,,,,,,,,down,0,5.1149,,0.291666667,0.317592578,1,0,0,0.8668,0,136,136,37,1,mijn,images/br_mijn.png,images/cb_mijn.png,0,,,,,,,,,,,,,,,,,,,,,,
,,,,,,00018,2023-08-12_11h48.13.089,vbt_B2_day2,2022.2.4,Win32,58.47269325,,,,,,,,,,,,,,,,,,,,,,,,,,,down,0,5.7022,,0.324074131,0.054629601,1,0,0,0.6998,0,137,137,106,1,zingen,images/br_zingen.png,images/cb_zingen.png,0,,,,,,,,,,,,,,,,,,,,,,
,,,,,,00018,2023-08-12_11h48.13.089,vbt_B2_day2,2022.2.4,Win32,58.47269325,,,,,,,,,,,,,,,,,,,,,,,,,,,down,0,9.8613,,0.335185242,0.069444444,1,0,0,0.7498,0,138,138,114,1,vullen,images/br_vullen.png,images/cb_vullen.png,0,,,,,,,,,,,,,,,,,,,,,,
,,,,,,00018,2023-08-12_11h48.13.089,vbt_B2_day2,2022.2.4,Win32,58.47269325,,,,,,,,,,,,,,,,,,,,,,,,,,,down,0,3.9236,,0.348148176,0.137037023,1,0,0,0.7996,0,139,139,64,1,wegen,images/br_wegen.png,images/cb_wegen.png,0,,,,,,,,,,,,,,,,,,,,,,
,,,,,,00018,2023-08-12_11h48.13.089,vbt_B2_day2,2022.2.4,Win32,58.47269325,,,,,,,,,,,,,,,,,,,,,,,,,,,down,0,1.4936,,0.366666667,0.152777778,1,0,0,0.9998,0,140,140,61,1,groen,images/br_groen.png,images/cb_groen.png,0,,,,,,,,,,,,,,,,,,,,,,
,,,,,,00018,2023-08-12_11h48.13.089,vbt_B2_day2,2022.2.4,Win32,58.47269325,,,,,,,,,,,,,,,,,,,,,,,,,,,down,0,3.9141,,0.362963019,0.156481467,1,0,0,0.9825,0,141,141,71,1,bever,images/br_bever.png,images/cb_bever.png,0,,,,,,,,,,,,,,,,,,,,,,
,,,,,,00018,2023-08-12_11h48.13.089,vbt_B2_day2,2022.2.4,Win32,58.47269325,,,,,,,,,,,,,,,,,,,,,,,,,,,down,0,1.7836,,0.265740797,0.209259245,1,0,0,0.6996,0,142,142,13,1,kaal,images/br_kaal.png,images/cb_kaal.png,0,,,,,,,,,,,,,,,,,,,,,,
,,,,,,00018,2023-08-12_11h48.13.089,vbt_B2_day2,2022.2.4,Win32,58.47269325,,,,,,,,,,,,,,,,,,,,,,,,,,,down,0,7.3207,,0.265740797,0.209259245,1,0,0,0.816,0,143,143,15,1,soda,images/br_soda.png,images/cb_soda.png,0,,,,,,,,,,,,,,,,,,,,,,
,,,,,,00018,2023-08-12_11h48.13.089,vbt_B2_day2,2022.2.4,Win32,58.47269325,,,,,,,,,,,,,,,,,,,,,,,,,,,down,0,36.7327,,0.253703732,0.200925912,1,0,0,1.083,0,144,144,62,1,knaap,images/br_knaap.png,images/cb_knaap.png,0,,,,,,,,,,,,,,,,,,,,,,
,,,,,,00018,2023-08-12_11h48.13.089,vbt_B2_day2,2022.2.4,Win32,58.47269325,,,,,,,,,,,,,,,,,,,,,,,,,,,down,0,1.2164,,0.253703732,0.200925912,1,0,0,0.6829,0,145,145,93,1,waarop,images/br_waarop.png,images/cb_waarop.png,0,,,,,,,,,,,,,,,,,,,,,,
,,,,,,00018,2023-08-12_11h48.13.089,vbt_B2_day2,2022.2.4,Win32,58.47269325,,,,,,,,,,,,,,,,,,,,,,,,,,,down,0,12.584,,0.253703732,0.200925912,1,0,0,0.833,0,146,146,130,1,keihard,images/br_keihard.png,images/cb_keihard.png,0,,,,,,,,,,,,,,,,,,,,,,
,,,,,,00018,2023-08-12_11h48.13.089,vbt_B2_day2,2022.2.4,Win32,58.47269325,,,,,,,,,,,,,,,,,,,,,,,,,,,down,0,6.6014,,0.307407464,0.20370369,1,0,0,0.6835,0,147,147,136,1,waarbij,images/br_waarbij.png,images/cb_waarbij.png,1,waarbij,,,,,,,,,,,,,,,,,,,,,
,,,,,,00018,2023-08-12_11h48.13.089,vbt_B2_day2,2022.2.4,Win32,58.47269325,,,,,,,,,,,,,,,,,,,,,,,,,,,down,0,6.9164,,0.312037065,0.208333333,1,0,0,0.6993,0,148,148,35,1,lust,images/br_lust.png,images/cb_lust.png,0,,,,,,,,,,,,,,,,,,,,,,
,,,,,,00018,2023-08-12_11h48.13.089,vbt_B2_day2,2022.2.4,Win32,58.47269325,,,,,,,,,,,,,,,,,,,,,,,,,,,down,0,4.6974,,0.383333333,0.225,1,0,0,0.6828,0,149,149,175,1,heengaan,images/br_heengaan.png,images/cb_heengaan.png,0,,,,,,,,,,,,,,,,,,,,,,
,,,,,,00018,2023-08-12_11h48.13.089,vbt_B2_day2,2022.2.4,Win32,58.47269325,,,,,,,,,,,,,,,,,,,,,,,,,,,down,0,6.7491,,0.336111111,0.235185178,1,0,0,1.6996,0,150,150,49,1,laken,images/br_laken.png,images/cb_laken.png,0,,,,,,,,,,,,,,,,,,,,,,
,,,,,,00018,2023-08-12_11h48.13.089,vbt_B2_day2,2022.2.4,Win32,58.47269325,,,,,,,,,,,,,,,,,,,,,,,,,,,down,0,2.7234,,0.321296353,0.236111111,1,0,0,0.7662,0,151,151,174,1,stemming,images/br_stemming.png,images/cb_stemming.png,0,,,,,,,,,,,,,,,,,,,,,,
,,,,,,00018,2023-08-12_11h48.13.089,vbt_B2_day2,2022.2.4,Win32,58.47269325,,,,,,,,,,,,,,,,,,,,,,,,,,,down,0,10.8949,,0.319444444,0.236111111,1,0,0,0.8332,0,152,152,143,1,hechten,images/br_hechten.png,images/cb_hechten.png,0,,,,,,,,,,,,,,,,,,,,,,
,,,,,,00018,2023-08-12_11h48.13.089,vbt_B2_day2,2022.2.4,Win32,58.47269325,,,,,,,,,,,,,,,,,,,,,,,,,,,down,0,18.0749,,0.322222222,0.238888889,1,0,0,2.032,0,153,153,145,1,invloed,images/br_invloed.png,images/cb_invloed.png,0,,,,,,,,,,,,,,,,,,,,,,
,,,,,,00018,2023-08-12_11h48.13.089,vbt_B2_day2,2022.2.4,Win32,58.47269325,,,,,,,,,,,,,,,,,,,,,,,,,,,down,0,6.3797,,0.327777778,0.247222222,1,0,0,0.7663,0,154,154,190,1,goedkoop,images/br_goedkoop.png,images/cb_goedkoop.png,0,,,,,,,,,,,,,,,,,,,,,,
,,,,,,00018,2023-08-12_11h48.13.089,vbt_B2_day2,2022.2.4,Win32,58.47269325,,,,,,,,,,,,,,,,,,,,,,,,,,,down,0,1.9501,,0.328703732,0.248148134,1,0,0,0.7164,0,155,155,18,1,blik,images/br_blik.png,images/cb_blik.png,1,blik,,,,,,,,,,,,,,,,,,,,,
,,,,,,00018,2023-08-12_11h48.13.089,vbt_B2_day2,2022.2.4,Win32,58.47269325,,,,,,,,,,,,,,,,,,,,,,,,,,,down,0,11.0479,,0.343518575,0.2574074,1,0,0,1.0498,0,156,156,170,1,schatten,images/br_schatten.png,images/cb_schatten.png,0,,,,,,,,,,,,,,,,,,,,,,
,,,,,,00018,2023-08-12_11h48.13.089,vbt_B2_day2,2022.2.4,Win32,58.47269325,,,,,,,,,,,,,,,,,,,,,,,,,,,down,0,10.9154,,0.343518575,0.2574074,1,0,0,1.7651,0,157,157,187,1,opkijken,images/br_opkijken.png,images/cb_opkijken.png,0,,,,,,,,,,,,,,,,,,,,,,
,,,,,,00018,2023-08-12_11h48.13.089,vbt_B2_day2,2022.2.4,Win32,58.47269325,,,,,,,,,,,,,,,,,,,,,,,,,,,down,0,0.5666,,0.344444444,0.259259245,1,0,0,1.1661,0,158,158,86,1,woning,images/br_woning.png,images/cb_woning.png,0,,,,,,,,,,,,,,,,,,,,,,
,,,,,,00018,2023-08-12_11h48.13.089,vbt_B2_day2,2022.2.4,Win32,58.47269325,,,,,,,,,,,,,,,,,,,,,,,,,,,down,0,3.5329,,0.345370399,0.259259245,1,0,0,0.8994,0,159,159,68,1,schat,images/br_schat.png,images/cb_schat.png,0,,,,,,,,,,,,,,,,,,,,,,
,,,,,,00018,2023-08-12_11h48.13.089,vbt_B2_day2,2022.2.4,Win32,58.47269325,,,,,,,,,,,,,,,,,,,,,,,,,,,down,0,2.5165,,0.346296353,0.260185178,1,0,0,1.2989,0,160,160,120,1,klimmen,images/br_klimmen.png,images/cb_klimmen.png,0,,,,,,,,,,,,,,,,,,,,,,
,,,,,,00018,2023-08-12_11h48.13.089,vbt_B2_day2,2022.2.4,Win32,58.47269325,,,,,,,,,,,,,,,,,,,,,,,,,,,down,0,5.6006,,0.346296353,0.260185178,1,0,0,1.4831,0,161,161,164,1,anarchie,images/br_anarchie.png,images/cb_anarchie.png,0,,,,,,,,,,,,,,,,,,,,,,
,,,,,,00018,2023-08-12_11h48.13.089,vbt_B2_day2,2022.2.4,Win32,58.47269325,,,,,,,,,,,,,,,,,,,,,,,,,,,down,0,8.0012,,0.371296353,0.261111111,1,0,0,1.7988,0,162,162,115,1,kleren,images/br_kleren.png,images/cb_kleren.png,0,,,,,,,,,,,,,,,,,,,,,,
,,,,,,00018,2023-08-12_11h48.13.089,vbt_B2_day2,2022.2.4,Win32,58.47269325,,,,,,,,,,,,,,,,,,,,,,,,,,,down,0,8.0788,,0.379629686,0.261111111,1,0,0,1.0828,0,163,163,166,1,strikken,images/br_strikken.png,images/cb_strikken.png,0,,,,,,,,,,,,,,,,,,,,,,
,,,,,,00018,2023-08-12_11h48.13.089,vbt_B2_day2,2022.2.4,Win32,58.47269325,,,,,,,,,,,,,,,,,,,,,,,,,,,down,0,8.9832,,0.379629686,0.261111111,1,0,0,2.2651,0,164,164,94,1,oceaan,images/br_oceaan.png,images/cb_oceaan.png,0,,,,,,,,,,,,,,,,,,,,,,
,,,,,,00018,2023-08-12_11h48.13.089,vbt_B2_day2,2022.2.4,Win32,58.47269325,,,,,,,,,,,,,,,,,,,,,,,,,,,down,0,5.1977,,0.38148151,0.261111111,1,0,0,3.6812,0,165,165,186,1,voorraad,images/br_voorraad.png,images/cb_voorraad.png,0,,,,,,,,,,,,,,,,,,,,,,
,,,,,,00018,2023-08-12_11h48.13.089,vbt_B2_day2,2022.2.4,Win32,58.47269325,,,,,,,,,,,,,,,,,,,,,,,,,,,down,0,11.5664,,0.407407464,0.285185178,1,0,0,1.2667,0,166,166,47,1,kabel,images/br_kabel.png,images/cb_kabel.png,0,,,,,,,,,,,,,,,,,,,,,,
,,,,,,00018,2023-08-12_11h48.13.089,vbt_B2_day2,2022.2.4,Win32,58.47269325,,,,,,,,,,,,,,,,,,,,,,,,,,,down,0,5.8547,,0.408333333,0.286111111,1,0,0,0.7665,0,167,167,85,1,heilig,images/br_heilig.png,images/cb_heilig.png,0,,,,,,,,,,,,,,,,,,,,,,
,,,,,,00018,2023-08-12_11h48.13.089,vbt_B2_day2,2022.2.4,Win32,58.47269325,,,,,,,,,,,,,,,,,,,,,,,,,,,down,0,3.8,,0.417592621,0.281481467,1,0,0,0.7994,0,168,168,52,1,wagon,images/br_wagon.png,images/cb_wagon.png,0,,,,,,,,,,,,,,,,,,,,,,
,,,,,,00018,2023-08-12_11h48.13.089,vbt_B2_day2,2022.2.4,Win32,58.47269325,,,,,,,,,,,,,,,,,,,,,,,,,,,down,0,1.3203,,0.416666667,0.298148134,1,0,0,1.016,0,169,169,4,1,moes,images/br_moes.png,images/cb_moes.png,0,,,,,,,,,,,,,,,,,,,,,,
,,,,,,00018,2023-08-12_11h48.13.089,vbt_B2_day2,2022.2.4,Win32,58.47269325,,,,,,,,,,,,,,,,,,,,,,,,,,,down,0,2.7093,,0.393518575,0.301851845,1,0,0,0.7828,0,170,170,141,1,knielen,images/br_knielen.png,images/cb_knielen.png,0,,,,,,,,,,,,,,,,,,,,,,
,,,,,,00018,2023-08-12_11h48.13.089,vbt_B2_day2,2022.2.4,Win32,58.47269325,,,,,,,,,,,,,,,,,,,,,,,,,,,down,0,5.983,,0.375925954,0.299074067,1,0,0,0.8493,0,171,171,45,1,piste,images/br_piste.png,images/cb_piste.png,0,,,,,,,,,,,,,,,,,,,,,,
,,,,,,00018,2023-08-12_11h48.13.089,vbt_B2_day2,2022.2.4,Win32,58.47269325,,,,,,,,,,,,,,,,,,,,,,,,,,,down,0,6.6155,,0.387963019,0.319444444,1,0,0,0.7332,0,172,172,183,1,getuigen,images/br_getuigen.png,images/cb_getuigen.png,0,,,,,,,,,,,,,,,,,,,,,,
,,,,,,00018,2023-08-12_11h48.13.089,vbt_B2_day2,2022.2.4,Win32,58.47269325,,,,,,,,,,,,,,,,,,,,,,,,,,,down,0,11.5934,,0.398148176,0.288888889,1,0,0,1.2158,0,173,173,34,1,vorm,images/br_vorm.png,images/cb_vorm.png,0,,,,,,,,,,,,,,,,,,,,,,
,,,,,,00018,2023-08-12_11h48.13.089,vbt_B2_day2,2022.2.4,Win32,58.47269325,,,,,,,,,,,,,,,,,,,,,,,,,,,down,0,2.467,,0.403703732,0.275,1,0,0,1.0331,0,174,174,30,1,uien,images/br_uien.png,images/cb_uien.png,0,,,,,,,,,,,,,,,,,,,,,,
,,,,,,00018,2023-08-12_11h48.13.089,vbt_B2_day2,2022.2.4,Win32,58.47269325,,,,,,,,,,,,,,,,,,,,,,,,,,,down,0,9.8791,,0.404629686,0.275,1,0,0,1.832,0,175,175,157,1,uitlaat,images/br_uitlaat.png,images/cb_uitlaat.png,0,,,,,,,,,,,,,,,,,,,,,,
,,,,,,00018,2023-08-12_11h48.13.089,vbt_B2_day2,2022.2.4,Win32,58.47269325,,,,,,,,,,,,,,,,,,,,,,,,,,,down,0,4.1821,,0.421296353,0.267592578,1,0,0,0.8159,0,176,176,77,1,woede,images/br_woede.png,images/cb_woede.png,0,,,,,,,,,,,,,,,,,,,,,,
,,,,,,00018,2023-08-12_11h48.13.089,vbt_B2_day2,2022.2.4,Win32,58.47269325,,,,,,,,,,,,,,,,,,,,,,,,,,,down,0,14.8435,,0.439814843,0.267592578,1,0,0,1.0327,0,177,177,16,1,ziek,images/br_ziek.png,images/cb_ziek.png,1,ziek,,,,,,,,,,,,,,,,,,,,,
,,,,,,00018,2023-08-12_11h48.13.089,vbt_B2_day2,2022.2.4,Win32,58.47269325,,,,,,,,,,,,,,,,,,,,,,,,,,,down,0,3.2064,,0.383333333,0.393518511,1,0,0,0.8997,0,178,178,6,1,diep,images/br_diep.png,images/cb_diep.png,0,,,,,,,,,,,,,,,,,,,,,,
,,,,,,00018,2023-08-12_11h48.13.089,vbt_B2_day2,2022.2.4,Win32,58.47269325,,,,,,,,,,,,,,,,,,,,,,,,,,,down,0,6.7371,,0.363888889,0.393518511,1,0,0,0.7834,0,179,179,58,1,tekst,images/br_tekst.png,images/cb_tekst.png,1,tekst,,,,,,,,,,,,,,,,,,,,,
,,,,,,00018,2023-08-12_11h48.13.089,vbt_B2_day2,2022.2.4,Win32,58.47269325,,,,,,,,,,,,,,,,,,,,,,,,,,,down,0,6.0786,,0.307407464,0.004629601,1,0,0,2.5982,0,180,180,14,1,rijp,images/br_rijp.png,images/cb_rijp.png,0,,,,,,,,,,,,,,,,,,,,,,
,,,,,,00018,2023-08-12_11h48.13.089,vbt_B2_day2,2022.2.4,Win32,58.47269325,,,,,,,,,,,,,,,,,,,,,,,,,,,down,0,3.3011,,0.309259288,0.006481467,1,0,0,0.7168,0,181,181,40,1,schep,images/br_schep.png,images/cb_schep.png,0,,,,,,,,,,,,,,,,,,,,,,
,,,,,,00018,2023-08-12_11h48.13.089,vbt_B2_day2,2022.2.4,Win32,58.47269325,,,,,,,,,,,,,,,,,,,,,,,,,,,down,0,8.0518,,0.316666667,0.012037023,1,0,0,0.7161,0,182,182,191,1,opheffen,images/br_opheffen.png,images/cb_opheffen.png,0,,,,,,,,,,,,,,,,,,,,,,
,,,,,,00018,2023-08-12_11h48.13.089,vbt_B2_day2,2022.2.4,Win32,58.47269325,,,,,,,,,,,,,,,,,,,,,,,,,,,down,0,3.7176,,0.316666667,0.012037023,1,0,0,2.3316,0,183,183,134,1,geliefd,images/br_geliefd.png,images/cb_geliefd.png,0,,,,,,,,,,,,,,,,,,,,,,
,,,,,,00018,2023-08-12_11h48.13.089,vbt_B2_day2,2022.2.4,Win32,58.47269325,,,,,,,,,,,,,,,,,,,,,,,,,,,down,0,8.4361,,0.328703732,0.016666667,1,0,0,0.8166,0,184,184,133,1,seizoen,images/br_seizoen.png,images/cb_seizoen.png,0,,,,,,,,,,,,,,,,,,,,,,
,,,,,,00018,2023-08-12_11h48.13.089,vbt_B2_day2,2022.2.4,Win32,58.47269325,,,,,,,,,,,,,,,,,,,,,,,,,,,down,0,4.2397,,0.362037065,0.031481467,1,0,0,0.7496,0,185,185,2,1,jaar,images/br_jaar.png,images/cb_jaar.png,0,,,,,,,,,,,,,,,,,,,,,,
,,,,,,00018,2023-08-12_11h48.13.089,vbt_B2_day2,2022.2.4,Win32,58.47269325,,,,,,,,,,,,,,,,,,,,,,,,,,,down,0,3.6761,,0.352777778,0.01851849,1,0,0,1.0994,0,186,186,32,1,palm,images/br_palm.png,images/cb_palm.png,0,,,,,,,,,,,,,,,,,,,,,,
,,,,,,00018,2023-08-12_11h48.13.089,vbt_B2_day2,2022.2.4,Win32,58.47269325,,,,,,,,,,,,,,,,,,,,,,,,,,,down,0,8.748,,0.35,0.016666667,1,0,0,0.8497,0,187,187,46,1,jagen,images/br_jagen.png,images/cb_jagen.png,0,,,,,,,,,,,,,,,,,,,,,,
,,,,,,00018,2023-08-12_11h48.13.089,vbt_B2_day2,2022.2.4,Win32,58.47269325,,,,,,,,,,,,,,,,,,,,,,,,,,,down,0,6.8427,,0.372222222,0.021296268,1,0,0,1.4164,0,188,188,76,1,afval,images/br_afval.png,images/cb_afval.png,0,,,,,,,,,,,,,,,,,,,,,,
,,,,,,00018,2023-08-12_11h48.13.089,vbt_B2_day2,2022.2.4,Win32,58.47269325,,,,,,,,,,,,,,,,,,,,,,,,,,,down,0,7.5028,,0.367592621,0.022222222,1,0,0,2.2986,0,189,189,92,1,geheim,images/br_geheim.png,images/cb_geheim.png,0,,,,,,,,,,,,,,,,,,,,,,
,,,,,,00018,2023-08-12_11h48.13.089,vbt_B2_day2,2022.2.4,Win32,58.47269325,,,,,,,,,,,,,,,,,,,,,,,,,,,down,0,1.5742,,0.441666667,0.1,1,0,0,0.883,0,190,190,25,1,plek,images/br_plek.png,images/cb_plek.png,0,,,,,,,,,,,,,,,,,,,,,,
,,,,,,00018,2023-08-12_11h48.13.089,vbt_B2_day2,2022.2.4,Win32,58.47269325,,,,,,,,,,,,,,,,,,,,,,,,,,,down,0,15.4697,,0.357407464,0.127777778,1,0,0,1.2827,0,191,191,119,1,liefje,images/br_liefje.png,images/cb_liefje.png,0,,,,,,,,,,,,,,,,,,,,,,
,,,,,,00018,2023-08-12_11h48.13.089,vbt_B2_day2,2022.2.4,Win32,58.47269325,,,,,,,,,,,,,,,,,,,,,,,,,,,down,0,3.0677,,0.358333333,0.131481467,1,0,0,0.9312,0,192,192,151,1,aanzoek,images/br_aanzoek.png,images/cb_aanzoek.png,0,,,,,,,,,,,,,,,,,,,,,,
,,,,,,00018,2023-08-12_11h48.13.089,vbt_B2_day2,2022.2.4,Win32,58.47269325,,,,,,,,,,,,,,,,,,,,,,,,,,,down,0,5.9836,,0.361111111,0.175925912,1,0,0,0.7488,0,193,193,173,1,apparaat,images/br_apparaat.png,images/cb_apparaat.png,0,,,,,,,,,,,,,,,,,,,,,,
,,,,,,00018,2023-08-12_11h48.13.089,vbt_B2_day2,2022.2.4,Win32,58.47269325,,,,,,,,,,,,,,,,,,,,,,,,,,,down,0,5.3844,,0.352777778,0.173148134,1,0,0,0.7497,0,194,194,179,1,woestijn,images/br_woestijn.png,images/cb_woestijn.png,1,woestijn,,,,,,,,,,,,,,,,,,,,,
,,,,,,00018,2023-08-12_11h48.13.089,vbt_B2_day2,2022.2.4,Win32,58.47269325,,,,,,,,,,,,,,,,,,,,,,,,,,,down,0,19.0478,,0.436111111,0.259259245,1,0,0,0.8994,0,195,195,69,1,waken,images/br_waken.png,images/cb_waken.png,0,,,,,,,,,,,,,,,,,,,,,,
,,,,,,00018,2023-08-12_11h48.13.089,vbt_B2_day2,2022.2.4,Win32,58.47269325,,,,,,,,,,,,,,,,,,,,,,,,,,,down,0,1.6591,,0.242592621,0.163888889,1,0,0,1.016,0,196,196,110,1,zuster,images/br_zuster.png,images/cb_zuster.png,0,,,,,,,,,,,,,,,,,,,,,,
,,,,,,00018,2023-08-12_11h48.13.089,vbt_B2_day2,2022.2.4,Win32,58.47269325,,,,,,,,,,,,,,,,,,,,,,,,,,,down,0,8.5989,,0.269444444,0.166666667,1,0,0,0.9493,0,197,197,95,1,vreten,images/br_vreten.png,images/cb_vreten.png,0,,,,,,,,,,,,,,,,,,,,,,
,,,,,,00018,2023-08-12_11h48.13.089,vbt_B2_day2,2022.2.4,Win32,58.47269325,,,,,,,,,,,,,,,,,,,,,,,,,,,down,0,5.1384,,0.269444444,0.166666667,1,0,0,0.7328,0,198,198,98,1,kreeft,images/br_kreeft.png,images/cb_kreeft.png,1,kreeft,,,,,,,,,,,,,,,,,,,,,
,,,,,,00018,2023-08-12_11h48.13.089,vbt_B2_day2,2022.2.4,Win32,58.47269325,,,,,,,,,,,,,,,,,,,,,,,,,,,down,0,4.3694,,0.272222222,0.166666667,1,0,0,0.8328,0,199,199,148,1,smullen,images/br_smullen.png,images/cb_smullen.png,0,,,,,,,,,,,,,,,,,,,,,,
,,,,,,00018,2023-08-12_11h48.13.089,vbt_B2_day2,2022.2.4,Win32,58.47269325,,,,,,,,,,,,,,,,,,,,,,,,,,,,,,,,,,,,,,,,,,,,,,,0.283333333,0.162962956,1,0,0,,,,,,,,,,,,,,,,
,,,,,,00018,2023-08-12_11h48.13.089,vbt_B2_day2,2022.2.4,Win32,58.47269325,,,,,,,,,,,,,,,,,,,,,,,,,,,,,,,,,,,,,,,,,,,,,,,,,,,,0.261111111,0.162037023,1,0,0,,,,,,,,,,,
,,,,,,00018,2023-08-12_11h48.13.089,vbt_B2_day2,2022.2.4,Win32,58.47269325,,,,,,,,,,,,,,,,,,,,,,,,,,,,,,,,,,,,,,,,,,krimmen,images/br_krimmen.png,images/cb_krimmen.png,,kri..en,,,,,,,,,,,0.272222222,0.162962956,1,0,0,kri..en,0,0,0,35,1
,,,,,,00018,2023-08-12_11h48.13.089,vbt_B2_day2,2022.2.4,Win32,58.47269325,,,,,,,,,,,,,,,,,,,,,,,,,,,,,,,,,,,,,,,,,,ophuimen,images/br_ophuimen.png,images/cb_ophuimen.png,,opnemen,,,,,,,,,,,0.279629686,0.162962956,1,0,0,opnemen,0,1,1,36,1
,,,,,,00018,2023-08-12_11h48.13.089,vbt_B2_day2,2022.2.4,Win32,58.47269325,,,,,,,,,,,,,,,,,,,,,,,,,,,,,,,,,,,,,,,,,,eenhoorn,images/br_eenhoorn.png,images/cb_eenhoorn.png,,op.eeln,,,,,,,,,,,0.280555556,0.167592578,1,0,0,op.eeln,0,2,2,19,1
,,,,,,00018,2023-08-12_11h48.13.089,vbt_B2_day2,2022.2.4,Win32,58.47269325,,,,,,,,,,,,,,,,,,,,,,,,,,,,,,,,,,,,,,,,,,badon,images/br_badon.png,images/cb_badon.png,,badon,,,,,,,,,,,0.280555556,0.167592578,1,0,0,badon,0,3,3,26,1
,,,,,,00018,2023-08-12_11h48.13.089,vbt_B2_day2,2022.2.4,Win32,58.47269325,,,,,,,,,,,,,,,,,,,,,,,,,,,,,,,,,,,,,,,,,,lijnen,images/br_lijnen.png,images/cb_lijnen.png,,lijnen,,,,,,,,,,,0.280555556,0.167592578,1,0,0,lijnen,0,4,4,51,1
,,,,,,00018,2023-08-12_11h48.13.089,vbt_B2_day2,2022.2.4,Win32,58.47269325,,,,,,,,,,,,,,,,,,,,,,,,,,,,,,,,,,,,,,,,,,dode,images/br_dode.png,images/cb_dode.png,,dode,,,,,,,,,,,0.279629686,0.168518511,1,0,0,dode,0,5,5,41,1
,,,,,,00018,2023-08-12_11h48.13.089,vbt_B2_day2,2022.2.4,Win32,58.47269325,,,,,,,,,,,,,,,,,,,,,,,,,,,,,,,,,,,,,,,,,,piste,images/br_piste.png,images/cb_piste.png,,piste,,,,,,,,,,,0.273148176,0.176851845,1,0,0,piste,0,6,6,5,1
,,,,,,00018,2023-08-12_11h48.13.089,vbt_B2_day2,2022.2.4,Win32,58.47269325,,,,,,,,,,,,,,,,,,,,,,,,,,,,,,,,,,,,,,,,,,flits,images/br_flits.png,images/cb_flits.png,,flits,,,,,,,,,,,0.280555556,0.184259245,1,0,0,flits,0,7,7,4,1
,,,,,,00018,2023-08-12_11h48.13.089,vbt_B2_day2,2022.2.4,Win32,58.47269325,,,,,,,,,,,,,,,,,,,,,,,,,,,,,,,,,,,,,,,,,,trots,images/br_trots.png,images/cb_trots.png,,trots,,,,,,,,,,,0.399074131,0.249074067,1,0,0,trots,0,8,8,44,1
,,,,,,00018,2023-08-12_11h48.13.089,vbt_B2_day2,2022.2.4,Win32,58.47269325,,,,,,,,,,,,,,,,,,,,,,,,,,,,,,,,,,,,,,,,,,ningen,images/br_ningen.png,images/cb_ningen.png,,ningin,,,,,,,,,,,0.399074131,0.249074067,1,0,0,ningin,0,9,9,28,1
,,,,,,00018,2023-08-12_11h48.13.089,vbt_B2_day2,2022.2.4,Win32,58.47269325,,,,,,,,,,,,,,,,,,,,,,,,,,,,,,,,,,,,,,,,,,opdatten,images/br_opdatten.png,images/cb_opdatten.png,,opd.tten,,,,,,,,,,,0.397222222,0.249074067,1,0,0,opd.tten,0,10,10,37,1
,,,,,,00018,2023-08-12_11h48.13.089,vbt_B2_day2,2022.2.4,Win32,58.47269325,,,,,,,,,,,,,,,,,,,,,,,,,,,,,,,,,,,,,,,,,,kenzis,images/br_kenzis.png,images/cb_kenzis.png,,kenzis,,,,,,,,,,,0.395370399,0.249074067,1,0,0,kenzis,0,11,11,30,1
,,,,,,00018,2023-08-12_11h48.13.089,vbt_B2_day2,2022.2.4,Win32,58.47269325,,,,,,,,,,,,,,,,,,,,,,,,,,,,,,,,,,,,,,,,,,kasteel,images/br_kasteel.png,images/cb_kasteel.png,,kasteel,,,,,,,,,,,0.513888889,0.281481467,1,0,0,kasteel,0,12,12,14,1
,,,,,,00018,2023-08-12_11h48.13.089,vbt_B2_day2,2022.2.4,Win32,58.47269325,,,,,,,,,,,,,,,,,,,,,,,,,,,,,,,,,,,,,,,,,,strikken,images/br_strikken.png,images/cb_strikken.png,,strekken,,,,,,,,,,,0.513888889,0.281481467,1,0,0,strekken,0,13,13,18,1
,,,,,,00018,2023-08-12_11h48.13.089,vbt_B2_day2,2022.2.4,Win32,58.47269325,,,,,,,,,,,,,,,,,,,,,,,,,,,,,,,,,,,,,,,,,,diep,images/br_diep.png,images/cb_diep.png,,diep,,,,,,,,,,,0.509259288,0.289814801,1,0,0,diep,0,14,14,2,1
,,,,,,00018,2023-08-12_11h48.13.089,vbt_B2_day2,2022.2.4,Win32,58.47269325,,,,,,,,,,,,,,,,,,,,,,,,,,,,,,,,,,,,,,,,,,anarchie,images/br_anarchie.png,images/cb_anarchie.png,,aradijs,,,,,,,,,,,0.509259288,0.289814801,1,0,0,aradijs,0,15,15,16,1
,,,,,,00018,2023-08-12_11h48.13.089,vbt_B2_day2,2022.2.4,Win32,58.47269325,,,,,,,,,,,,,,,,,,,,,,,,,,,,,,,,,,,,,,,,,,sjijfel,images/br_sjijfel.png,images/cb_sjijfel.png,,sjijfen,,,,,,,,,,,0.510185242,0.293518511,1,0,0,sjijfen,0,16,16,33,1
,,,,,,00018,2023-08-12_11h48.13.089,vbt_B2_day2,2022.2.4,Win32,58.47269325,,,,,,,,,,,,,,,,,,,,,,,,,,,,,,,,,,,,,,,,,,moes,images/br_moes.png,images/cb_moes.png,,moes,,,,,,,,,,,0.510185242,0.293518511,1,0,0,moes,0,17,17,0,1
,,,,,,00018,2023-08-12_11h48.13.089,vbt_B2_day2,2022.2.4,Win32,58.47269325,,,,,,,,,,,,,,,,,,,,,,,,,,,,,,,,,,,,,,,,,,blad,images/br_blad.png,images/cb_blad.png,,blas,,,,,,,,,,,0.510185242,0.293518511,1,0,0,blas,0,18,18,1,1
,,,,,,00018,2023-08-12_11h48.13.089,vbt_B2_day2,2022.2.4,Win32,58.47269325,,,,,,,,,,,,,,,,,,,,,,,,,,,,,,,,,,,,,,,,,,koorts,images/br_koorts.png,images/cb_koorts.png,,koorts,,,,,,,,,,,0.517592621,0.301851845,1,0,0,koorts,0,19,19,50,1
,,,,,,00018,2023-08-12_11h48.13.089,vbt_B2_day2,2022.2.4,Win32,58.47269325,,,,,,,,,,,,,,,,,,,,,,,,,,,,,,,,,,,,,,,,,,jong,images/br_jong.png,images/cb_jong.png,,dong,,,,,,,,,,,0.517592621,0.301851845,1,0,0,dong,0,20,20,43,1
,,,,,,00018,2023-08-12_11h48.13.089,vbt_B2_day2,2022.2.4,Win32,58.47269325,,,,,,,,,,,,,,,,,,,,,,,,,,,,,,,,,,,,,,,,,,joes,images/br_joes.png,images/cb_joes.png,,joes,,,,,,,,,,,0.517592621,0.301851845,1,0,0,joes,0,21,21,20,1
,,,,,,00018,2023-08-12_11h48.13.089,vbt_B2_day2,2022.2.4,Win32,58.47269325,,,,,,,,,,,,,,,,,,,,,,,,,,,,,,,,,,,,,,,,,,tweeling,images/br_tweeling.png,images/cb_tweeling.png,,twaaling,,,,,,,,,,,0.514814843,0.311111111,1,0,0,twaaling,0,22,22,58,1
,,,,,,00018,2023-08-12_11h48.13.089,vbt_B2_day2,2022.2.4,Win32,58.47269325,,,,,,,,,,,,,,,,,,,,,,,,,,,,,,,,,,,,,,,,,,plannen,images/br_plannen.png,images/cb_plannen.png,,..,,,,,,,,,,,0.513888889,0.312962956,1,0,0,..,0,23,23,55,1
,,,,,,00018,2023-08-12_11h48.13.089,vbt_B2_day2,2022.2.4,Win32,58.47269325,,,,,,,,,,,,,,,,,,,,,,,,,,,,,,,,,,,,,,,,,,woning,images/br_woning.png,images/cb_woning.png,,woning,,,,,,,,,,,0.509259288,0.283333333,1,0,0,woning,0,24,24,10,1
,,,,,,00018,2023-08-12_11h48.13.089,vbt_B2_day2,2022.2.4,Win32,58.47269325,,,,,,,,,,,,,,,,,,,,,,,,,,,,,,,,,,,,,,,,,,kijlen,images/br_kijlen.png,images/cb_kijlen.png,,kijlen,,,,,,,,,,,0.509259288,0.283333333,1,0,0,kijlen,0,25,25,31,1
,,,,,,00018,2023-08-12_11h48.13.089,vbt_B2_day2,2022.2.4,Win32,58.47269325,,,,,,,,,,,,,,,,,,,,,,,,,,,,,,,,,,,,,,,,,,wijve,images/br_wijve.png,images/cb_wijve.png,,wijve,,,,,,,,,,,0.351851908,0.086111111,1,0,0,wijve,0,26,26,27,1
,,,,,,00018,2023-08-12_11h48.13.089,vbt_B2_day2,2022.2.4,Win32,58.47269325,,,,,,,,,,,,,,,,,,,,,,,,,,,,,,,,,,,,,,,,,,sifferd,images/br_sifferd.png,images/cb_sifferd.png,,siffe..,,,,,,,,,,,0.283333333,0.065740712,1,0,0,siffe..,0,27,27,32,1
,,,,,,00018,2023-08-12_11h48.13.089,vbt_B2_day2,2022.2.4,Win32,58.47269325,,,,,,,,,,,,,,,,,,,,,,,,,,,,,,,,,,,,,,,,,,geld,images/br_geld.png,images/cb_geld.png,,geld,,,,,,,,,,,0.289814843,0.066666667,1,0,0,geld,0,28,28,3,1
,,,,,,00018,2023-08-12_11h48.13.089,vbt_B2_day2,2022.2.4,Win32,58.47269325,,,,,,,,,,,,,,,,,,,,,,,,,,,,,,,,,,,,,,,,,,kabel,images/br_kabel.png,images/cb_kabel.png,,kabel,,,,,,,,,,,0.290740797,0.066666667,1,0,0,kabel,0,29,29,7,1
,,,,,,00018,2023-08-12_11h48.13.089,vbt_B2_day2,2022.2.4,Win32,58.47269325,,,,,,,,,,,,,,,,,,,,,,,,,,,,,,,,,,,,,,,,,,aanvraag,images/br_aanvraag.png,images/cb_aanvraag.png,,aanvraag,,,,,,,,,,,0.291666667,0.066666667,1,0,0,aanvraag,0,30,30,57,1
,,,,,,00018,2023-08-12_11h48.13.089,vbt_B2_day2,2022.2.4,Win32,58.47269325,,,,,,,,,,,,,,,,,,,,,,,,,,,,,,,,,,,,,,,,,,inzicht,images/br_inzicht.png,images/cb_inzicht.png,,..,,,,,,,,,,,0.343518575,-0.029629644,1,0,0,..,0,31,31,53,1
,,,,,,00018,2023-08-12_11h48.13.089,vbt_B2_day2,2022.2.4,Win32,58.47269325,,,,,,,,,,,,,,,,,,,,,,,,,,,,,,,,,,,,,,,,,,doodmoe,images/br_doodmoe.png,images/cb_doodmoe.png,,doodmoe,,,,,,,,,,,0.343518575,-0.029629644,1,0,0,doodmoe,0,32,32,15,1
,,,,,,00018,2023-08-12_11h48.13.089,vbt_B2_day2,2022.2.4,Win32,58.47269325,,,,,,,,,,,,,,,,,,,,,,,,,,,,,,,,,,,,,,,,,,heilig,images/br_heilig.png,images/cb_heilig.png,,heilig,,,,,,,,,,,0.475925954,0.047222222,1,0,0,heilig,0,33,33,9,1
,,,,,,00018,2023-08-12_11h48.13.089,vbt_B2_day2,2022.2.4,Win32,58.47269325,,,,,,,,,,,,,,,,,,,,,,,,,,,,,,,,,,,,,,,,,,heengeen,images/br_heengeen.png,images/cb_heengeen.png,,heengaan,,,,,,,,,,,0.475925954,0.047222222,1,0,0,heengaan,0,34,34,38,1
,,,,,,00018,2023-08-12_11h48.13.089,vbt_B2_day2,2022.2.4,Win32,58.47269325,,,,,,,,,,,,,,,,,,,,,,,,,,,,,,,,,,,,,,,,,,thema,images/br_thema.png,images/cb_thema.png,,thema,,,,,,,,,,,0.475925954,0.047222222,1,0,0,thema,0,35,35,47,1
,,,,,,00018,2023-08-12_11h48.13.089,vbt_B2_day2,2022.2.4,Win32,58.47269325,,,,,,,,,,,,,,,,,,,,,,,,,,,,,,,,,,,,,,,,,,stes,images/br_stes.png,images/cb_stes.png,,stes,,,,,,,,,,,0.475925954,0.047222222,1,0,0,stes,0,36,36,21,1
,,,,,,00018,2023-08-12_11h48.13.089,vbt_B2_day2,2022.2.4,Win32,58.47269325,,,,,,,,,,,,,,,,,,,,,,,,,,,,,,,,,,,,,,,,,,breuk,images/br_breuk.png,images/cb_breuk.png,,breuk,,,,,,,,,,,0.475925954,0.047222222,1,0,0,breuk,0,37,37,45,1
,,,,,,00018,2023-08-12_11h48.13.089,vbt_B2_day2,2022.2.4,Win32,58.47269325,,,,,,,,,,,,,,,,,,,,,,,,,,,,,,,,,,,,,,,,,,sora,images/br_sora.png,images/cb_sora.png,,sora,,,,,,,,,,,0.472222222,0.050925912,1,0,0,sora,0,38,38,22,1
,,,,,,00018,2023-08-12_11h48.13.089,vbt_B2_day2,2022.2.4,Win32,58.47269325,,,,,,,,,,,,,,,,,,,,,,,,,,,,,,,,,,,,,,,,,,clan,images/br_clan.png,images/cb_clan.png,,blan,,,,,,,,,,,0.382407464,0.069444444,1,0,0,blan,0,39,39,40,1
,,,,,,00018,2023-08-12_11h48.13.089,vbt_B2_day2,2022.2.4,Win32,58.47269325,,,,,,,,,,,,,,,,,,,,,,,,,,,,,,,,,,,,,,,,,,goon,images/br_goon.png,images/cb_goon.png,,goon,,,,,,,,,,,0.389814843,0.071296268,1,0,0,goon,0,40,40,23,1
,,,,,,00018,2023-08-12_11h48.13.089,vbt_B2_day2,2022.2.4,Win32,58.47269325,,,,,,,,,,,,,,,,,,,,,,,,,,,,,,,,,,,,,,,,,,jagen,images/br_jagen.png,images/cb_jagen.png,,janen,,,,,,,,,,,0.394444444,0.073148134,1,0,0,janen,0,41,41,6,1
,,,,,,00018,2023-08-12_11h48.13.089,vbt_B2_day2,2022.2.4,Win32,58.47269325,,,,,,,,,,,,,,,,,,,,,,,,,,,,,,,,,,,,,,,,,,zomers,images/br_zomers.png,images/cb_zomers.png,,zoue..,,,,,,,,,,,0.396296353,0.074074046,1,0,0,zoue..,0,42,42,48,1
,,,,,,00018,2023-08-12_11h48.13.089,vbt_B2_day2,2022.2.4,Win32,58.47269325,,,,,,,,,,,,,,,,,,,,,,,,,,,,,,,,,,,,,,,,,,systeem,images/br_systeem.png,images/cb_systeem.png,,systeem,,,,,,,,,,,0.400925954,0.075,1,0,0,systeem,0,43,43,54,1
,,,,,,00018,2023-08-12_11h48.13.089,vbt_B2_day2,2022.2.4,Win32,58.47269325,,,,,,,,,,,,,,,,,,,,,,,,,,,,,,,,,,,,,,,,,,tand,images/br_tand.png,images/cb_tand.png,,tand,,,,,,,,,,,0.400925954,0.075,1,0,0,tand,0,44,44,42,1
,,,,,,00018,2023-08-12_11h48.13.089,vbt_B2_day2,2022.2.4,Win32,58.47269325,,,,,,,,,,,,,,,,,,,,,,,,,,,,,,,,,,,,,,,,,,prekken,images/br_prekken.png,images/cb_prekken.png,,prekken,,,,,,,,,,,0.402777778,0.075,1,0,0,prekken,0,45,45,34,1
,,,,,,00018,2023-08-12_11h48.13.089,vbt_B2_day2,2022.2.4,Win32,58.47269325,,,,,,,,,,,,,,,,,,,,,,,,,,,,,,,,,,,,,,,,,,zegel,images/br_zegel.png,images/cb_zegel.png,,zegel,,,,,,,,,,,0.402777778,0.075,1,0,0,zegel,0,46,46,46,1
,,,,,,00018,2023-08-12_11h48.13.089,vbt_B2_day2,2022.2.4,Win32,58.47269325,,,,,,,,,,,,,,,,,,,,,,,,,,,,,,,,,,,,,,,,,,bereuwen,images/br_bereuwen.png,images/cb_bereuwen.png,,bereuwen,,,,,,,,,,,0.35648151,0.162037023,1,0,0,bereuwen,0,47,47,39,1
,,,,,,00018,2023-08-12_11h48.13.089,vbt_B2_day2,2022.2.4,Win32,58.47269325,,,,,,,,,,,,,,,,,,,,,,,,,,,,,,,,,,,,,,,,,,zwager,images/br_zwager.png,images/cb_zwager.png,,uwagen,,,,,,,,,,,0.337037065,0.160185178,1,0,0,uwagen,0,48,48,49,1
,,,,,,00018,2023-08-12_11h48.13.089,vbt_B2_day2,2022.2.4,Win32,58.47269325,,,,,,,,,,,,,,,,,,,,,,,,,,,,,,,,,,,,,,,,,,agressie,images/br_agressie.png,images/cb_agressie.png,,agressie,,,,,,,,,,,0.337963019,0.160185178,1,0,0,agressie,0,49,49,59,1
,,,,,,00018,2023-08-12_11h48.13.089,vbt_B2_day2,2022.2.4,Win32,58.47269325,,,,,,,,,,,,,,,,,,,,,,,,,,,,,,,,,,,,,,,,,,lurgen,images/br_lurgen.png,images/cb_lurgen.png,,lutgen,,,,,,,,,,,0.350925954,0.166666667,1,0,0,lutgen,0,50,50,29,1
,,,,,,00018,2023-08-12_11h48.13.089,vbt_B2_day2,2022.2.4,Win32,58.47269325,,,,,,,,,,,,,,,,,,,,,,,,,,,,,,,,,,,,,,,,,,lokken,images/br_lokken.png,images/cb_lokken.png,,lokken,,,,,,,,,,,0.350925954,0.166666667,1,0,0,lokken,0,51,51,8,1
,,,,,,00018,2023-08-12_11h48.13.089,vbt_B2_day2,2022.2.4,Win32,58.47269325,,,,,,,,,,,,,,,,,,,,,,,,,,,,,,,,,,,,,,,,,,manieren,images/br_manieren.png,images/cb_manieren.png,,manieren,,,,,,,,,,,0.349074131,0.213888889,1,0,0,manieren,0,52,52,56,1
,,,,,,00018,2023-08-12_11h48.13.089,vbt_B2_day2,2022.2.4,Win32,58.47269325,,,,,,,,,,,,,,,,,,,,,,,,,,,,,,,,,,,,,,,,,,remel,images/br_remel.png,images/cb_remel.png,,remel,,,,,,,,,,,0.349074131,0.213888889,1,0,0,remel,0,53,53,25,1
,,,,,,00018,2023-08-12_11h48.13.089,vbt_B2_day2,2022.2.4,Win32,58.47269325,,,,,,,,,,,,,,,,,,,,,,,,,,,,,,,,,,,,,,,,,,bloeien,images/br_bloeien.png,images/cb_bloeien.png,,bloeien,,,,,,,,,,,0.357407464,0.211111111,1,0,0,bloeien,0,54,54,12,1
,,,,,,00018,2023-08-12_11h48.13.089,vbt_B2_day2,2022.2.4,Win32,58.47269325,,,,,,,,,,,,,,,,,,,,,,,,,,,,,,,,,,,,,,,,,,feestdag,images/br_feestdag.png,images/cb_feestdag.png,,feest...,,,,,,,,,,,0.357407464,0.211111111,1,0,0,feest...,0,55,55,17,1
,,,,,,00018,2023-08-12_11h48.13.089,vbt_B2_day2,2022.2.4,Win32,58.47269325,,,,,,,,,,,,,,,,,,,,,,,,,,,,,,,,,,,,,,,,,,toeval,images/br_toeval.png,images/cb_toeval.png,,toeval,,,,,,,,,,,0.357407464,0.211111111,1,0,0,toeval,0,56,56,11,1
,,,,,,00018,2023-08-12_11h48.13.089,vbt_B2_day2,2022.2.4,Win32,58.47269325,,,,,,,,,,,,,,,,,,,,,,,,,,,,,,,,,,,,,,,,,,negel,images/br_negel.png,images/cb_negel.png,,zegel,,,,,,,,,,,0.355555556,0.229629623,1,0,0,zegel,0,57,57,24,1
,,,,,,00018,2023-08-12_11h48.13.089,vbt_B2_day2,2022.2.4,Win32,58.47269325,,,,,,,,,,,,,,,,,,,,,,,,,,,,,,,,,,,,,,,,,,welzijn,images/br_welzijn.png,images/cb_welzijn.png,,weln..,,,,,,,,,,,0.340740797,0.226851845,1,0,0,weln..,0,58,58,52,1
,,,,,,00018,2023-08-12_11h48.13.089,vbt_B2_day2,2022.2.4,Win32,58.47269325,,,,,,,,,,,,,,,,,,,,,,,,,,,,,,,,,,,,,,,,,,aanzien,images/br_aanzien.png,images/cb_aanzien.png,,aanzien,,,,,,,,,,,0.363888889,0.211111111,1,0,0,aanzien,0,59,59,13,1
,,,,,,00018,2023-08-12_11h48.13.089,vbt_B2_day2,2022.2.4,Win32,58.47269325,,,,,,,,,,,,,,,,,,,,,,,,,,,,,,,,,,,,,,,,,,,,,,,,,,,,,,,,,,,,,,,,,,,
