welcome_mouse.x,welcome_mouse.y,welcome_mouse.leftButton,welcome_mouse.midButton,welcome_mouse.rightButton,welcome_mouse.time,"ID",date,expName,psychopyVersion,OS,frameRate,participant,refresh_mouse.x,refresh_mouse.y,refresh_mouse.leftButton,refresh_mouse.midButton,refresh_mouse.rightButton,refresh_mouse.time,braille_mouse.x,braille_mouse.y,braille_mouse.leftButton,braille_mouse.midButton,braille_mouse.rightButton,braille_mouse.time,trials.thisRepN,trials.thisTrialN,trials.thisN,trials.thisIndex,trials.ran,nlLet,brLet,cbLet,trainInstr_mouse.x,trainInstr_mouse.y,trainInstr_mouse.leftButton,trainInstr_mouse.midButton,trainInstr_mouse.rightButton,trainInstr_mouse.time,translation_key.keys,translation_key.corr,translation_key.rt,word_rsp.text,word_mouse.x,word_mouse.y,word_mouse.leftButton,word_mouse.midButton,word_mouse.rightButton,word_mouse.time,train_loop.thisRepN,train_loop.thisTrialN,train_loop.thisN,train_loop.thisIndex,train_loop.ran,nlWrd,brWrd,cbWrd,test,testResp,mouse.x,mouse.y,mouse.leftButton,mouse.midButton,mouse.rightButton,testInstr_mouse.x,testInstr_mouse.y,testInstr_mouse.leftButton,testInstr_mouse.midButton,testInstr_mouse.rightButton,test_mouse.x,test_mouse.y,test_mouse.leftButton,test_mouse.midButton,test_mouse.rightButton,test_response.text,test_loop.thisRepN,test_loop.thisTrialN,test_loop.thisN,test_loop.thisIndex,test_loop.ran
-0.130555556,-0.214814815,1,0,0,1.7168,,2023-09-06_17h51.01.465,vbt_B2_day2,2022.2.4,Win32,60.0528465,55756,,,,,,,,,,,,,,,,,,,,,,,,,,,,,,,,,,,,,,,,,,,,,,,,,,,,,,,,,,,,,,,,,,,
,,,,,,,2023-09-06_17h51.01.465,vbt_B2_day2,2022.2.4,Win32,60.0528465,55756,-0.130555556,-0.214814815,1,0,0,0.5374,,,,,,,,,,,,,,,,,,,,,,,,,,,,,,,,,,,,,,,,,,,,,,,,,,,,,,,,,,,,,
,,,,,,,2023-09-06_17h51.01.465,vbt_B2_day2,2022.2.4,Win32,60.0528465,55756,,,,,,,-0.130555556,-0.214814815,1,0,0,0.5002,0,0,0,1,1,b,images/br_b.png,images/cb_b.png,,,,,,,,,,,,,,,,,,,,,,,,,,,,,,,,,,,,,,,,,,,,,,,
,,,,,,,2023-09-06_17h51.01.465,vbt_B2_day2,2022.2.4,Win32,60.0528465,55756,,,,,,,-0.130555556,-0.214814815,1,0,0,0.3006,0,1,1,23,1,x,images/br_x.png,images/cb_x.png,,,,,,,,,,,,,,,,,,,,,,,,,,,,,,,,,,,,,,,,,,,,,,,
,,,,,,,2023-09-06_17h51.01.465,vbt_B2_day2,2022.2.4,Win32,60.0528465,55756,,,,,,,-0.130555556,-0.214814815,1,0,0,0.6332,0,2,2,11,1,l,images/br_l.png,images/cb_l.png,,,,,,,,,,,,,,,,,,,,,,,,,,,,,,,,,,,,,,,,,,,,,,,
,,,,,,,2023-09-06_17h51.01.465,vbt_B2_day2,2022.2.4,Win32,60.0528465,55756,,,,,,,-0.130555556,-0.214814815,1,0,0,1.0159,0,3,3,16,1,q,images/br_q.png,images/cb_q.png,,,,,,,,,,,,,,,,,,,,,,,,,,,,,,,,,,,,,,,,,,,,,,,
,,,,,,,2023-09-06_17h51.01.465,vbt_B2_day2,2022.2.4,Win32,60.0528465,55756,,,,,,,-0.130555556,-0.214814815,1,0,0,0.2169,0,4,4,4,1,e,images/br_e.png,images/cb_e.png,,,,,,,,,,,,,,,,,,,,,,,,,,,,,,,,,,,,,,,,,,,,,,,
,,,,,,,2023-09-06_17h51.01.465,vbt_B2_day2,2022.2.4,Win32,60.0528465,55756,,,,,,,-0.130555556,-0.214814815,1,0,0,0.1162,0,5,5,14,1,o,images/br_o.png,images/cb_o.png,,,,,,,,,,,,,,,,,,,,,,,,,,,,,,,,,,,,,,,,,,,,,,,
,,,,,,,2023-09-06_17h51.01.465,vbt_B2_day2,2022.2.4,Win32,60.0528465,55756,,,,,,,-0.130555556,-0.214814815,1,0,0,0.15,0,6,6,0,1,a,images/br_a.png,images/cb_a.png,,,,,,,,,,,,,,,,,,,,,,,,,,,,,,,,,,,,,,,,,,,,,,,
,,,,,,,2023-09-06_17h51.01.465,vbt_B2_day2,2022.2.4,Win32,60.0528465,55756,,,,,,,-0.130555556,-0.214814815,1,0,0,0.6003,0,7,7,21,1,v,images/br_v.png,images/cb_v.png,,,,,,,,,,,,,,,,,,,,,,,,,,,,,,,,,,,,,,,,,,,,,,,
,,,,,,,2023-09-06_17h51.01.465,vbt_B2_day2,2022.2.4,Win32,60.0528465,55756,,,,,,,-0.130555556,-0.214814815,1,0,0,0.7163,0,8,8,6,1,g,images/br_g.png,images/cb_g.png,,,,,,,,,,,,,,,,,,,,,,,,,,,,,,,,,,,,,,,,,,,,,,,
,,,,,,,2023-09-06_17h51.01.465,vbt_B2_day2,2022.2.4,Win32,60.0528465,55756,,,,,,,-0.130555556,-0.214814815,1,0,0,0.1,0,9,9,7,1,h,images/br_h.png,images/cb_h.png,,,,,,,,,,,,,,,,,,,,,,,,,,,,,,,,,,,,,,,,,,,,,,,
,,,,,,,2023-09-06_17h51.01.465,vbt_B2_day2,2022.2.4,Win32,60.0528465,55756,,,,,,,-0.130555556,-0.214814815,1,0,0,0.0838,0,10,10,24,1,y,images/br_y.png,images/cb_y.png,,,,,,,,,,,,,,,,,,,,,,,,,,,,,,,,,,,,,,,,,,,,,,,
,,,,,,,2023-09-06_17h51.01.465,vbt_B2_day2,2022.2.4,Win32,60.0528465,55756,,,,,,,-0.130555556,-0.214814815,1,0,0,1.0827,0,11,11,19,1,t,images/br_t.png,images/cb_t.png,,,,,,,,,,,,,,,,,,,,,,,,,,,,,,,,,,,,,,,,,,,,,,,
,,,,,,,2023-09-06_17h51.01.465,vbt_B2_day2,2022.2.4,Win32,60.0528465,55756,,,,,,,-0.130555556,-0.214814815,1,0,0,0.0165,0,12,12,15,1,p,images/br_p.png,images/cb_p.png,,,,,,,,,,,,,,,,,,,,,,,,,,,,,,,,,,,,,,,,,,,,,,,
,,,,,,,2023-09-06_17h51.01.465,vbt_B2_day2,2022.2.4,Win32,60.0528465,55756,,,,,,,-0.130555556,-0.214814815,1,0,0,1.9489,0,13,13,5,1,f,images/br_f.png,images/cb_f.png,,,,,,,,,,,,,,,,,,,,,,,,,,,,,,,,,,,,,,,,,,,,,,,
,,,,,,,2023-09-06_17h51.01.465,vbt_B2_day2,2022.2.4,Win32,60.0528465,55756,,,,,,,-0.130555556,-0.214814815,1,0,0,1.0659,0,14,14,17,1,r,images/br_r.png,images/cb_r.png,,,,,,,,,,,,,,,,,,,,,,,,,,,,,,,,,,,,,,,,,,,,,,,
,,,,,,,2023-09-06_17h51.01.465,vbt_B2_day2,2022.2.4,Win32,60.0528465,55756,,,,,,,-0.130555556,-0.214814815,1,0,0,1.6159,0,15,15,22,1,w,images/br_w.png,images/cb_w.png,,,,,,,,,,,,,,,,,,,,,,,,,,,,,,,,,,,,,,,,,,,,,,,
,,,,,,,2023-09-06_17h51.01.465,vbt_B2_day2,2022.2.4,Win32,60.0528465,55756,,,,,,,-0.130555556,-0.214814815,1,0,0,0.1167,0,16,16,20,1,u,images/br_u.png,images/cb_u.png,,,,,,,,,,,,,,,,,,,,,,,,,,,,,,,,,,,,,,,,,,,,,,,
,,,,,,,2023-09-06_17h51.01.465,vbt_B2_day2,2022.2.4,Win32,60.0528465,55756,,,,,,,-0.130555556,-0.214814815,1,0,0,4.6476,0,17,17,18,1,s,images/br_s.png,images/cb_s.png,,,,,,,,,,,,,,,,,,,,,,,,,,,,,,,,,,,,,,,,,,,,,,,
,,,,,,,2023-09-06_17h51.01.465,vbt_B2_day2,2022.2.4,Win32,60.0528465,55756,,,,,,,-0.130555556,-0.214814815,1,0,0,1.3833,0,18,18,2,1,c,images/br_c.png,images/cb_c.png,,,,,,,,,,,,,,,,,,,,,,,,,,,,,,,,,,,,,,,,,,,,,,,
,,,,,,,2023-09-06_17h51.01.465,vbt_B2_day2,2022.2.4,Win32,60.0528465,55756,,,,,,,-0.130555556,-0.214814815,1,0,0,0.316,0,19,19,8,1,i,images/br_i.png,images/cb_i.png,,,,,,,,,,,,,,,,,,,,,,,,,,,,,,,,,,,,,,,,,,,,,,,
,,,,,,,2023-09-06_17h51.01.465,vbt_B2_day2,2022.2.4,Win32,60.0528465,55756,,,,,,,-0.130555556,-0.214814815,1,0,0,0.1665,0,20,20,12,1,m,images/br_m.png,images/cb_m.png,,,,,,,,,,,,,,,,,,,,,,,,,,,,,,,,,,,,,,,,,,,,,,,
,,,,,,,2023-09-06_17h51.01.465,vbt_B2_day2,2022.2.4,Win32,60.0528465,55756,,,,,,,-0.130555556,-0.214814815,1,0,0,0.9829,0,21,21,10,1,k,images/br_k.png,images/cb_k.png,,,,,,,,,,,,,,,,,,,,,,,,,,,,,,,,,,,,,,,,,,,,,,,
,,,,,,,2023-09-06_17h51.01.465,vbt_B2_day2,2022.2.4,Win32,60.0528465,55756,,,,,,,-0.130555556,-0.214814815,1,0,0,0.8997,0,22,22,25,1,z,images/br_z.png,images/cb_z.png,,,,,,,,,,,,,,,,,,,,,,,,,,,,,,,,,,,,,,,,,,,,,,,
,,,,,,,2023-09-06_17h51.01.465,vbt_B2_day2,2022.2.4,Win32,60.0528465,55756,,,,,,,-0.130555556,-0.214814815,1,0,0,0.683,0,23,23,9,1,j,images/br_j.png,images/cb_j.png,,,,,,,,,,,,,,,,,,,,,,,,,,,,,,,,,,,,,,,,,,,,,,,
,,,,,,,2023-09-06_17h51.01.465,vbt_B2_day2,2022.2.4,Win32,60.0528465,55756,,,,,,,-0.130555556,-0.214814815,1,0,0,0.3166,0,24,24,3,1,d,images/br_d.png,images/cb_d.png,,,,,,,,,,,,,,,,,,,,,,,,,,,,,,,,,,,,,,,,,,,,,,,
,,,,,,,2023-09-06_17h51.01.465,vbt_B2_day2,2022.2.4,Win32,60.0528465,55756,,,,,,,-0.130555556,-0.214814815,1,0,0,0.2166,0,25,25,13,1,n,images/br_n.png,images/cb_n.png,,,,,,,,,,,,,,,,,,,,,,,,,,,,,,,,,,,,,,,,,,,,,,,
,,,,,,,2023-09-06_17h51.01.465,vbt_B2_day2,2022.2.4,Win32,60.0528465,55756,,,,,,,,,,,,,,,,,,,,,-0.130555556,-0.214814815,1,0,0,9.4018,,,,,,,,,,,,,,,,,,,,,,,,,,,,,,,,,,,,,,,,,
,,,,,,,2023-09-06_17h51.01.465,vbt_B2_day2,2022.2.4,Win32,60.0528465,55756,,,,,,,,,,,,,,,,,,,,,,,,,,,down,0,0.5421,,0.015740741,-0.212037037,1,0,0,1.2989,0,0,0,4,1,moes,images/br_moes.png,images/cb_moes.png,0,,,,,,,,,,,,,,,,,,,,,,
,,,,,,,2023-09-06_17h51.01.465,vbt_B2_day2,2022.2.4,Win32,60.0528465,55756,,,,,,,,,,,,,,,,,,,,,,,,,,,down,0,0.9205,,0.015740741,-0.212037037,1,0,0,0.8328,0,1,1,166,1,strikken,images/br_strikken.png,images/cb_strikken.png,0,,,,,,,,,,,,,,,,,,,,,,
,,,,,,,2023-09-06_17h51.01.465,vbt_B2_day2,2022.2.4,Win32,60.0528465,55756,,,,,,,,,,,,,,,,,,,,,,,,,,,down,0,46.4758,,0.046296296,-0.319444444,1,0,0,1.9494,0,2,2,136,1,waarbij,images/br_waarbij.png,images/cb_waarbij.png,1,waarbij,,,,,,,,,,,,,,,,,,,,,
,,,,,,,2023-09-06_17h51.01.465,vbt_B2_day2,2022.2.4,Win32,60.0528465,55756,,,,,,,,,,,,,,,,,,,,,,,,,,,down,0,1.6728,,0.046296296,-0.319444444,1,0,0,0.6835,0,3,3,160,1,daarheen,images/br_daarheen.png,images/cb_daarheen.png,0,,,,,,,,,,,,,,,,,,,,,,
,,,,,,,2023-09-06_17h51.01.465,vbt_B2_day2,2022.2.4,Win32,60.0528465,55756,,,,,,,,,,,,,,,,,,,,,,,,,,,down,0,1.345,,0.046296296,-0.319444444,1,0,0,1.5494,0,4,4,131,1,opzicht,images/br_opzicht.png,images/cb_opzicht.png,0,,,,,,,,,,,,,,,,,,,,,,
,,,,,,,2023-09-06_17h51.01.465,vbt_B2_day2,2022.2.4,Win32,60.0528465,55756,,,,,,,,,,,,,,,,,,,,,,,,,,,down,0,1.1352,,0.046296296,-0.319444444,1,0,0,1.0492,0,5,5,50,1,stoom,images/br_stoom.png,images/cb_stoom.png,0,,,,,,,,,,,,,,,,,,,,,,
,,,,,,,2023-09-06_17h51.01.465,vbt_B2_day2,2022.2.4,Win32,60.0528465,55756,,,,,,,,,,,,,,,,,,,,,,,,,,,down,0,0.063,,0.046296296,-0.319444444,1,0,0,1.1494,0,6,6,191,1,opheffen,images/br_opheffen.png,images/cb_opheffen.png,0,,,,,,,,,,,,,,,,,,,,,,
,,,,,,,2023-09-06_17h51.01.465,vbt_B2_day2,2022.2.4,Win32,60.0528465,55756,,,,,,,,,,,,,,,,,,,,,,,,,,,down,0,23.9404,,0.046296296,-0.319444444,1,0,0,1.6992,0,7,7,99,1,koffie,images/br_koffie.png,images/cb_koffie.png,1,koffie,,,,,,,,,,,,,,,,,,,,,
,,,,,,,2023-09-06_17h51.01.465,vbt_B2_day2,2022.2.4,Win32,60.0528465,55756,,,,,,,,,,,,,,,,,,,,,,,,,,,down,0,1.6448,,0.046296296,-0.319444444,1,0,0,1.1829,0,8,8,17,1,taal,images/br_taal.png,images/cb_taal.png,1,taal,,,,,,,,,,,,,,,,,,,,,
,,,,,,,2023-09-06_17h51.01.465,vbt_B2_day2,2022.2.4,Win32,60.0528465,55756,,,,,,,,,,,,,,,,,,,,,,,,,,,down,0,0.8322,,0.046296296,-0.319444444,1,0,0,0.7828,0,9,9,48,1,steel,images/br_steel.png,images/cb_steel.png,0,,,,,,,,,,,,,,,,,,,,,,
,,,,,,,2023-09-06_17h51.01.465,vbt_B2_day2,2022.2.4,Win32,60.0528465,55756,,,,,,,,,,,,,,,,,,,,,,,,,,,down,0,0.1548,,0.046296296,-0.319444444,1,0,0,0.7661,0,10,10,102,1,legaal,images/br_legaal.png,images/cb_legaal.png,0,,,,,,,,,,,,,,,,,,,,,,
,,,,,,,2023-09-06_17h51.01.465,vbt_B2_day2,2022.2.4,Win32,60.0528465,55756,,,,,,,,,,,,,,,,,,,,,,,,,,,down,0,2.0935,,0.046296296,-0.319444444,1,0,0,0.6997,0,11,11,78,1,leren,images/br_leren.png,images/cb_leren.png,0,,,,,,,,,,,,,,,,,,,,,,
,,,,,,,2023-09-06_17h51.01.465,vbt_B2_day2,2022.2.4,Win32,60.0528465,55756,,,,,,,,,,,,,,,,,,,,,,,,,,,down,0,12.2558,,0.046296296,-0.319444444,1,0,0,2.7986,0,12,12,144,1,eetlust,images/br_eetlust.png,images/cb_eetlust.png,0,,,,,,,,,,,,,,,,,,,,,,
,,,,,,,2023-09-06_17h51.01.465,vbt_B2_day2,2022.2.4,Win32,60.0528465,55756,,,,,,,,,,,,,,,,,,,,,,,,,,,down,0,4.7329,,0.046296296,-0.319444444,1,0,0,0.6996,0,13,13,120,1,klimmen,images/br_klimmen.png,images/cb_klimmen.png,0,,,,,,,,,,,,,,,,,,,,,,
,,,,,,,2023-09-06_17h51.01.465,vbt_B2_day2,2022.2.4,Win32,60.0528465,55756,,,,,,,,,,,,,,,,,,,,,,,,,,,down,0,7.1415,,0.046296296,-0.319444444,1,0,0,2.9318,0,14,14,30,1,uien,images/br_uien.png,images/cb_uien.png,0,,,,,,,,,,,,,,,,,,,,,,
,,,,,,,2023-09-06_17h51.01.465,vbt_B2_day2,2022.2.4,Win32,60.0528465,55756,,,,,,,,,,,,,,,,,,,,,,,,,,,down,0,2.4769,,0.046296296,-0.319444444,1,0,0,0.9,0,15,15,19,1,geit,images/br_geit.png,images/cb_geit.png,1,geit,,,,,,,,,,,,,,,,,,,,,
,,,,,,,2023-09-06_17h51.01.465,vbt_B2_day2,2022.2.4,Win32,60.0528465,55756,,,,,,,,,,,,,,,,,,,,,,,,,,,down,0,1.7155,,0.046296296,-0.319444444,1,0,0,0.716,0,16,16,95,1,vreten,images/br_vreten.png,images/cb_vreten.png,0,,,,,,,,,,,,,,,,,,,,,,
,,,,,,,2023-09-06_17h51.01.465,vbt_B2_day2,2022.2.4,Win32,60.0528465,55756,,,,,,,,,,,,,,,,,,,,,,,,,,,down,0,0.6321,,0.046296296,-0.319444444,1,0,0,1.0661,0,17,17,134,1,geliefd,images/br_geliefd.png,images/cb_geliefd.png,0,,,,,,,,,,,,,,,,,,,,,,
,,,,,,,2023-09-06_17h51.01.465,vbt_B2_day2,2022.2.4,Win32,60.0528465,55756,,,,,,,,,,,,,,,,,,,,,,,,,,,down,0,0.7321,,0.046296296,-0.319444444,1,0,0,1.4157,0,18,18,111,1,ticket,images/br_ticket.png,images/cb_ticket.png,0,,,,,,,,,,,,,,,,,,,,,,
,,,,,,,2023-09-06_17h51.01.465,vbt_B2_day2,2022.2.4,Win32,60.0528465,55756,,,,,,,,,,,,,,,,,,,,,,,,,,,down,0,28.9786,,0.046296296,-0.319444444,1,0,0,1.4492,0,19,19,159,1,sufferd,images/br_sufferd.png,images/cb_sufferd.png,0,,,,,,,,,,,,,,,,,,,,,,
,,,,,,,2023-09-06_17h51.01.465,vbt_B2_day2,2022.2.4,Win32,60.0528465,55756,,,,,,,,,,,,,,,,,,,,,,,,,,,down,0,17.0614,,0.046296296,-0.319444444,1,0,0,0.7162,0,20,20,135,1,gedicht,images/br_gedicht.png,images/cb_gedicht.png,0,,,,,,,,,,,,,,,,,,,,,,
,,,,,,,2023-09-06_17h51.01.465,vbt_B2_day2,2022.2.4,Win32,60.0528465,55756,,,,,,,,,,,,,,,,,,,,,,,,,,,down,0,0.7846,,0.046296296,-0.319444444,1,0,0,0.7329,0,21,21,115,1,kleren,images/br_kleren.png,images/cb_kleren.png,0,,,,,,,,,,,,,,,,,,,,,,
,,,,,,,2023-09-06_17h51.01.465,vbt_B2_day2,2022.2.4,Win32,60.0528465,55756,,,,,,,,,,,,,,,,,,,,,,,,,,,down,0,0.0771,,0.046296296,-0.319444444,1,0,0,0.6831,0,22,22,70,1,ijdel,images/br_ijdel.png,images/cb_ijdel.png,0,,,,,,,,,,,,,,,,,,,,,,
,,,,,,,2023-09-06_17h51.01.465,vbt_B2_day2,2022.2.4,Win32,60.0528465,55756,,,,,,,,,,,,,,,,,,,,,,,,,,,down,0,3.9357,,0.046296296,-0.319444444,1,0,0,1.1998,0,23,23,150,1,gegeven,images/br_gegeven.png,images/cb_gegeven.png,0,,,,,,,,,,,,,,,,,,,,,,
,,,,,,,2023-09-06_17h51.01.465,vbt_B2_day2,2022.2.4,Win32,60.0528465,55756,,,,,,,,,,,,,,,,,,,,,,,,,,,down,0,2.6288,,0.046296296,-0.319444444,1,0,0,0.5328,0,24,24,33,1,vlek,images/br_vlek.png,images/cb_vlek.png,0,,,,,,,,,,,,,,,,,,,,,,
,,,,,,,2023-09-06_17h51.01.465,vbt_B2_day2,2022.2.4,Win32,60.0528465,55756,,,,,,,,,,,,,,,,,,,,,,,,,,,down,0,1.0905,,0.046296296,-0.319444444,1,0,0,0.5163,0,25,25,121,1,twijfel,images/br_twijfel.png,images/cb_twijfel.png,0,,,,,,,,,,,,,,,,,,,,,,
,,,,,,,2023-09-06_17h51.01.465,vbt_B2_day2,2022.2.4,Win32,60.0528465,55756,,,,,,,,,,,,,,,,,,,,,,,,,,,down,0,1.1553,,0.046296296,-0.319444444,1,0,0,0.4999,0,26,26,156,1,rechten,images/br_rechten.png,images/cb_rechten.png,0,,,,,,,,,,,,,,,,,,,,,,
,,,,,,,2023-09-06_17h51.01.465,vbt_B2_day2,2022.2.4,Win32,60.0528465,55756,,,,,,,,,,,,,,,,,,,,,,,,,,,down,0,15.3168,,0.046296296,-0.319444444,1,0,0,5.4307,0,27,27,65,1,parel,images/br_parel.png,images/cb_parel.png,0,,,,,,,,,,,,,,,,,,,,,,
,,,,,,,2023-09-06_17h51.01.465,vbt_B2_day2,2022.2.4,Win32,60.0528465,55756,,,,,,,,,,,,,,,,,,,,,,,,,,,down,0,7.1485,,0.046296296,-0.319444444,1,0,0,0.6995,0,28,28,141,1,knielen,images/br_knielen.png,images/cb_knielen.png,0,,,,,,,,,,,,,,,,,,,,,,
,,,,,,,2023-09-06_17h51.01.465,vbt_B2_day2,2022.2.4,Win32,60.0528465,55756,,,,,,,,,,,,,,,,,,,,,,,,,,,down,0,0.8198,,0.046296296,-0.319444444,1,0,0,0.5996,0,29,29,142,1,snuiven,images/br_snuiven.png,images/cb_snuiven.png,0,,,,,,,,,,,,,,,,,,,,,,
,,,,,,,2023-09-06_17h51.01.465,vbt_B2_day2,2022.2.4,Win32,60.0528465,55756,,,,,,,,,,,,,,,,,,,,,,,,,,,down,0,0.8579,,0.046296296,-0.319444444,1,0,0,0.8323,0,30,30,66,1,lever,images/br_lever.png,images/cb_lever.png,0,,,,,,,,,,,,,,,,,,,,,,
,,,,,,,2023-09-06_17h51.01.465,vbt_B2_day2,2022.2.4,Win32,60.0528465,55756,,,,,,,,,,,,,,,,,,,,,,,,,,,down,0,1.4912,,0.046296296,-0.319444444,1,0,0,0.5162,0,31,31,14,1,rijp,images/br_rijp.png,images/cb_rijp.png,0,,,,,,,,,,,,,,,,,,,,,,
,,,,,,,2023-09-06_17h51.01.465,vbt_B2_day2,2022.2.4,Win32,60.0528465,55756,,,,,,,,,,,,,,,,,,,,,,,,,,,down,0,7.867,,0.046296296,-0.319444444,1,0,0,0.4996,0,32,32,170,1,schatten,images/br_schatten.png,images/cb_schatten.png,0,,,,,,,,,,,,,,,,,,,,,,
,,,,,,,2023-09-06_17h51.01.465,vbt_B2_day2,2022.2.4,Win32,60.0528465,55756,,,,,,,,,,,,,,,,,,,,,,,,,,,down,0,15.96,,0.046296296,-0.319444444,1,0,0,3.9146,0,33,33,92,1,geheim,images/br_geheim.png,images/cb_geheim.png,0,,,,,,,,,,,,,,,,,,,,,,
,,,,,,,2023-09-06_17h51.01.465,vbt_B2_day2,2022.2.4,Win32,60.0528465,55756,,,,,,,,,,,,,,,,,,,,,,,,,,,down,0,1.4407,,0.046296296,-0.319444444,1,0,0,0.4993,0,34,34,185,1,mijnheer,images/br_mijnheer.png,images/cb_mijnheer.png,0,,,,,,,,,,,,,,,,,,,,,,
,,,,,,,2023-09-06_17h51.01.465,vbt_B2_day2,2022.2.4,Win32,60.0528465,55756,,,,,,,,,,,,,,,,,,,,,,,,,,,down,0,4.0895,,0.046296296,-0.319444444,1,0,0,0.4162,0,35,35,55,1,praat,images/br_praat.png,images/cb_praat.png,0,,,,,,,,,,,,,,,,,,,,,,
,,,,,,,2023-09-06_17h51.01.465,vbt_B2_day2,2022.2.4,Win32,60.0528465,55756,,,,,,,,,,,,,,,,,,,,,,,,,,,down,0,4.9695,,0.046296296,-0.319444444,1,0,0,1.9156,0,36,36,86,1,woning,images/br_woning.png,images/cb_woning.png,0,,,,,,,,,,,,,,,,,,,,,,
,,,,,,,2023-09-06_17h51.01.465,vbt_B2_day2,2022.2.4,Win32,60.0528465,55756,,,,,,,,,,,,,,,,,,,,,,,,,,,down,0,10.7576,,0.046296296,-0.319444444,1,0,0,5.1141,0,37,37,169,1,oprotten,images/br_oprotten.png,images/cb_oprotten.png,0,,,,,,,,,,,,,,,,,,,,,,
,,,,,,,2023-09-06_17h51.01.465,vbt_B2_day2,2022.2.4,Win32,60.0528465,55756,,,,,,,,,,,,,,,,,,,,,,,,,,,down,0,9.9224,,0.046296296,-0.319444444,1,0,0,0.4167,0,38,38,167,1,eenhoorn,images/br_eenhoorn.png,images/cb_eenhoorn.png,0,,,,,,,,,,,,,,,,,,,,,,
,,,,,,,2023-09-06_17h51.01.465,vbt_B2_day2,2022.2.4,Win32,60.0528465,55756,,,,,,,,,,,,,,,,,,,,,,,,,,,down,0,5.2412,,0.046296296,-0.319444444,1,0,0,0.4661,0,39,39,188,1,strekken,images/br_strekken.png,images/cb_strekken.png,0,,,,,,,,,,,,,,,,,,,,,,
,,,,,,,2023-09-06_17h51.01.465,vbt_B2_day2,2022.2.4,Win32,60.0528465,55756,,,,,,,,,,,,,,,,,,,,,,,,,,,down,0,3.958,,0.046296296,-0.319444444,1,0,0,1.4495,0,40,40,58,1,tekst,images/br_tekst.png,images/cb_tekst.png,1,tekst,,,,,,,,,,,,,,,,,,,,,
,,,,,,,2023-09-06_17h51.01.465,vbt_B2_day2,2022.2.4,Win32,60.0528465,55756,,,,,,,,,,,,,,,,,,,,,,,,,,,down,0,0.4592,,0.046296296,-0.319444444,1,0,0,0.8823,0,41,41,3,1,mand,images/br_mand.png,images/cb_mand.png,0,,,,,,,,,,,,,,,,,,,,,,
,,,,,,,2023-09-06_17h51.01.465,vbt_B2_day2,2022.2.4,Win32,60.0528465,55756,,,,,,,,,,,,,,,,,,,,,,,,,,,down,0,0.0554,,0.046296296,-0.319444444,1,0,0,1.3159,0,42,42,10,1,leek,images/br_leek.png,images/cb_leek.png,0,,,,,,,,,,,,,,,,,,,,,,
,,,,,,,2023-09-06_17h51.01.465,vbt_B2_day2,2022.2.4,Win32,60.0528465,55756,,,,,,,,,,,,,,,,,,,,,,,,,,,down,0,0.7281,,0.046296296,-0.319444444,1,0,0,0.5663,0,43,43,64,1,wegen,images/br_wegen.png,images/cb_wegen.png,0,,,,,,,,,,,,,,,,,,,,,,
,,,,,,,2023-09-06_17h51.01.465,vbt_B2_day2,2022.2.4,Win32,60.0528465,55756,,,,,,,,,,,,,,,,,,,,,,,,,,,down,0,9.1853,,0.046296296,-0.319444444,1,0,0,12.4772,0,44,44,179,1,woestijn,images/br_woestijn.png,images/cb_woestijn.png,1,woestijnwoenstijn,,,,,,,,,,,,,,,,,,,,,
,,,,,,,2023-09-06_17h51.01.465,vbt_B2_day2,2022.2.4,Win32,60.0528465,55756,,,,,,,,,,,,,,,,,,,,,,,,,,,down,0,1.1447,,0.046296296,-0.319444444,1,0,0,0.6491,0,45,45,175,1,heengaan,images/br_heengaan.png,images/cb_heengaan.png,0,,,,,,,,,,,,,,,,,,,,,,
,,,,,,,2023-09-06_17h51.01.465,vbt_B2_day2,2022.2.4,Win32,60.0528465,55756,,,,,,,,,,,,,,,,,,,,,,,,,,,down,0,0.6174,,0.046296296,-0.319444444,1,0,0,0.5326,0,46,46,126,1,kasteel,images/br_kasteel.png,images/cb_kasteel.png,0,,,,,,,,,,,,,,,,,,,,,,
,,,,,,,2023-09-06_17h51.01.465,vbt_B2_day2,2022.2.4,Win32,60.0528465,55756,,,,,,,,,,,,,,,,,,,,,,,,,,,down,0,0.1394,,0.046296296,-0.319444444,1,0,0,0.5163,0,47,47,180,1,openbaar,images/br_openbaar.png,images/cb_openbaar.png,0,,,,,,,,,,,,,,,,,,,,,,
,,,,,,,2023-09-06_17h51.01.465,vbt_B2_day2,2022.2.4,Win32,60.0528465,55756,,,,,,,,,,,,,,,,,,,,,,,,,,,down,0,0.667,,0.046296296,-0.319444444,1,0,0,0.4668,0,48,48,165,1,feestdag,images/br_feestdag.png,images/cb_feestdag.png,0,,,,,,,,,,,,,,,,,,,,,,
,,,,,,,2023-09-06_17h51.01.465,vbt_B2_day2,2022.2.4,Win32,60.0528465,55756,,,,,,,,,,,,,,,,,,,,,,,,,,,down,0,0.3312,,0.046296296,-0.319444444,1,0,0,0.4996,0,49,49,40,1,schep,images/br_schep.png,images/cb_schep.png,0,,,,,,,,,,,,,,,,,,,,,,
,,,,,,,2023-09-06_17h51.01.465,vbt_B2_day2,2022.2.4,Win32,60.0528465,55756,,,,,,,,,,,,,,,,,,,,,,,,,,,down,0,0.6547,,0.046296296,-0.319444444,1,0,0,0.5829,0,50,50,145,1,invloed,images/br_invloed.png,images/cb_invloed.png,0,,,,,,,,,,,,,,,,,,,,,,
,,,,,,,2023-09-06_17h51.01.465,vbt_B2_day2,2022.2.4,Win32,60.0528465,55756,,,,,,,,,,,,,,,,,,,,,,,,,,,down,0,0.9708,,0.046296296,-0.319444444,1,0,0,1.6663,0,51,51,194,1,driemaal,images/br_driemaal.png,images/cb_driemaal.png,0,,,,,,,,,,,,,,,,,,,,,,
,,,,,,,2023-09-06_17h51.01.465,vbt_B2_day2,2022.2.4,Win32,60.0528465,55756,,,,,,,,,,,,,,,,,,,,,,,,,,,down,0,9.1018,,0.046296296,-0.319444444,1,0,0,0.4165,0,52,52,171,1,aarzelen,images/br_aarzelen.png,images/cb_aarzelen.png,0,,,,,,,,,,,,,,,,,,,,,,
,,,,,,,2023-09-06_17h51.01.465,vbt_B2_day2,2022.2.4,Win32,60.0528465,55756,,,,,,,,,,,,,,,,,,,,,,,,,,,down,0,0.1527,,0.046296296,-0.319444444,1,0,0,0.5662,0,53,53,90,1,geluid,images/br_geluid.png,images/cb_geluid.png,0,,,,,,,,,,,,,,,,,,,,,,
,,,,,,,2023-09-06_17h51.01.465,vbt_B2_day2,2022.2.4,Win32,60.0528465,55756,,,,,,,,,,,,,,,,,,,,,,,,,,,down,0,8.1525,,0.046296296,-0.319444444,1,0,0,0.5163,0,54,54,186,1,voorraad,images/br_voorraad.png,images/cb_voorraad.png,0,,,,,,,,,,,,,,,,,,,,,,
,,,,,,,2023-09-06_17h51.01.465,vbt_B2_day2,2022.2.4,Win32,60.0528465,55756,,,,,,,,,,,,,,,,,,,,,,,,,,,down,0,0.7956,,0.046296296,-0.319444444,1,0,0,0.5661,0,55,55,23,1,zout,images/br_zout.png,images/cb_zout.png,0,,,,,,,,,,,,,,,,,,,,,,
,,,,,,,2023-09-06_17h51.01.465,vbt_B2_day2,2022.2.4,Win32,60.0528465,55756,,,,,,,,,,,,,,,,,,,,,,,,,,,down,0,1.1914,,0.046296296,-0.319444444,1,0,0,0.4831,0,56,56,83,1,mening,images/br_mening.png,images/cb_mening.png,0,,,,,,,,,,,,,,,,,,,,,,
,,,,,,,2023-09-06_17h51.01.465,vbt_B2_day2,2022.2.4,Win32,60.0528465,55756,,,,,,,,,,,,,,,,,,,,,,,,,,,down,0,0.3099,,0.046296296,-0.319444444,1,0,0,0.5164,0,57,57,87,1,toeval,images/br_toeval.png,images/cb_toeval.png,0,,,,,,,,,,,,,,,,,,,,,,
,,,,,,,2023-09-06_17h51.01.465,vbt_B2_day2,2022.2.4,Win32,60.0528465,55756,,,,,,,,,,,,,,,,,,,,,,,,,,,down,0,0.7949,,0.046296296,-0.319444444,1,0,0,0.6498,0,58,58,190,1,goedkoop,images/br_goedkoop.png,images/cb_goedkoop.png,0,,,,,,,,,,,,,,,,,,,,,,
,,,,,,,2023-09-06_17h51.01.465,vbt_B2_day2,2022.2.4,Win32,60.0528465,55756,,,,,,,,,,,,,,,,,,,,,,,,,,,down,0,4.0861,,0.046296296,-0.319444444,1,0,0,0.3999,0,59,59,148,1,smullen,images/br_smullen.png,images/cb_smullen.png,0,,,,,,,,,,,,,,,,,,,,,,
,,,,,,,2023-09-06_17h51.01.465,vbt_B2_day2,2022.2.4,Win32,60.0528465,55756,,,,,,,,,,,,,,,,,,,,,,,,,,,down,0,2.1084,,0.046296296,-0.319444444,1,0,0,0.5162,0,60,60,158,1,innemen,images/br_innemen.png,images/cb_innemen.png,0,,,,,,,,,,,,,,,,,,,,,,
,,,,,,,2023-09-06_17h51.01.465,vbt_B2_day2,2022.2.4,Win32,60.0528465,55756,,,,,,,,,,,,,,,,,,,,,,,,,,,down,0,0.1081,,0.046296296,-0.319444444,1,0,0,0.5165,0,61,61,49,1,laken,images/br_laken.png,images/cb_laken.png,0,,,,,,,,,,,,,,,,,,,,,,
,,,,,,,2023-09-06_17h51.01.465,vbt_B2_day2,2022.2.4,Win32,60.0528465,55756,,,,,,,,,,,,,,,,,,,,,,,,,,,down,0,0.8811,,0.046296296,-0.319444444,1,0,0,0.4827,0,62,62,0,1,slak,images/br_slak.png,images/cb_slak.png,0,,,,,,,,,,,,,,,,,,,,,,
,,,,,,,2023-09-06_17h51.01.465,vbt_B2_day2,2022.2.4,Win32,60.0528465,55756,,,,,,,,,,,,,,,,,,,,,,,,,,,down,0,0.3136,,0.046296296,-0.319444444,1,0,0,0.5158,0,63,63,25,1,plek,images/br_plek.png,images/cb_plek.png,0,,,,,,,,,,,,,,,,,,,,,,
,,,,,,,2023-09-06_17h51.01.465,vbt_B2_day2,2022.2.4,Win32,60.0528465,55756,,,,,,,,,,,,,,,,,,,,,,,,,,,down,0,0.6943,,0.046296296,-0.319444444,1,0,0,0.4502,0,64,64,146,1,opkomen,images/br_opkomen.png,images/cb_opkomen.png,0,,,,,,,,,,,,,,,,,,,,,,
,,,,,,,2023-09-06_17h51.01.465,vbt_B2_day2,2022.2.4,Win32,60.0528465,55756,,,,,,,,,,,,,,,,,,,,,,,,,,,down,0,0.6986,,0.046296296,-0.319444444,1,0,0,0.5498,0,65,65,123,1,hiervan,images/br_hiervan.png,images/cb_hiervan.png,0,,,,,,,,,,,,,,,,,,,,,,
,,,,,,,2023-09-06_17h51.01.465,vbt_B2_day2,2022.2.4,Win32,60.0528465,55756,,,,,,,,,,,,,,,,,,,,,,,,,,,down,0,1.1558,,0.046296296,-0.319444444,1,0,0,0.3825,0,66,66,157,1,uitlaat,images/br_uitlaat.png,images/cb_uitlaat.png,0,,,,,,,,,,,,,,,,,,,,,,
,,,,,,,2023-09-06_17h51.01.465,vbt_B2_day2,2022.2.4,Win32,60.0528465,55756,,,,,,,,,,,,,,,,,,,,,,,,,,,down,0,0.6045,,0.046296296,-0.319444444,1,0,0,0.4824,0,67,67,5,1,blad,images/br_blad.png,images/cb_blad.png,0,,,,,,,,,,,,,,,,,,,,,,
,,,,,,,2023-09-06_17h51.01.465,vbt_B2_day2,2022.2.4,Win32,60.0528465,55756,,,,,,,,,,,,,,,,,,,,,,,,,,,down,0,0.4078,,0.046296296,-0.319444444,1,0,0,0.4499,0,68,68,61,1,groen,images/br_groen.png,images/cb_groen.png,0,,,,,,,,,,,,,,,,,,,,,,
,,,,,,,2023-09-06_17h51.01.465,vbt_B2_day2,2022.2.4,Win32,60.0528465,55756,,,,,,,,,,,,,,,,,,,,,,,,,,,down,0,0.4115,,0.046296296,-0.319444444,1,0,0,0.5327,0,69,69,112,1,lukken,images/br_lukken.png,images/cb_lukken.png,0,,,,,,,,,,,,,,,,,,,,,,
,,,,,,,2023-09-06_17h51.01.465,vbt_B2_day2,2022.2.4,Win32,60.0528465,55756,,,,,,,,,,,,,,,,,,,,,,,,,,,down,0,1.6039,,0.046296296,-0.319444444,1,0,0,0.6163,0,70,70,197,1,spanning,images/br_spanning.png,images/cb_spanning.png,0,,,,,,,,,,,,,,,,,,,,,,
,,,,,,,2023-09-06_17h51.01.465,vbt_B2_day2,2022.2.4,Win32,60.0528465,55756,,,,,,,,,,,,,,,,,,,,,,,,,,,down,0,0.3272,,0.046296296,-0.319444444,1,0,0,0.5337,0,71,71,195,1,middelen,images/br_middelen.png,images/cb_middelen.png,0,,,,,,,,,,,,,,,,,,,,,,
,,,,,,,2023-09-06_17h51.01.465,vbt_B2_day2,2022.2.4,Win32,60.0528465,55756,,,,,,,,,,,,,,,,,,,,,,,,,,,down,0,0.2024,,0.046296296,-0.319444444,1,0,0,0.4829,0,72,72,72,1,strak,images/br_strak.png,images/cb_strak.png,0,,,,,,,,,,,,,,,,,,,,,,
,,,,,,,2023-09-06_17h51.01.465,vbt_B2_day2,2022.2.4,Win32,60.0528465,55756,,,,,,,,,,,,,,,,,,,,,,,,,,,down,0,0.6197,,0.046296296,-0.319444444,1,0,0,0.6829,0,73,73,152,1,afnemen,images/br_afnemen.png,images/cb_afnemen.png,0,,,,,,,,,,,,,,,,,,,,,,
,,,,,,,2023-09-06_17h51.01.465,vbt_B2_day2,2022.2.4,Win32,60.0528465,55756,,,,,,,,,,,,,,,,,,,,,,,,,,,down,0,0.2936,,0.046296296,-0.319444444,1,0,0,0.4829,0,74,74,89,1,slapen,images/br_slapen.png,images/cb_slapen.png,0,,,,,,,,,,,,,,,,,,,,,,
,,,,,,,2023-09-06_17h51.01.465,vbt_B2_day2,2022.2.4,Win32,60.0528465,55756,,,,,,,,,,,,,,,,,,,,,,,,,,,down,0,1.0007,,0.046296296,-0.319444444,1,0,0,0.4822,0,75,75,106,1,zingen,images/br_zingen.png,images/cb_zingen.png,0,,,,,,,,,,,,,,,,,,,,,,
,,,,,,,2023-09-06_17h51.01.465,vbt_B2_day2,2022.2.4,Win32,60.0528465,55756,,,,,,,,,,,,,,,,,,,,,,,,,,,down,0,0.7046,,0.046296296,-0.319444444,1,0,0,0.5162,0,76,76,20,1,site,images/br_site.png,images/cb_site.png,0,,,,,,,,,,,,,,,,,,,,,,
,,,,,,,2023-09-06_17h51.01.465,vbt_B2_day2,2022.2.4,Win32,60.0528465,55756,,,,,,,,,,,,,,,,,,,,,,,,,,,down,0,10.2072,,0.046296296,-0.319444444,1,0,0,4.7971,0,77,77,43,1,klauw,images/br_klauw.png,images/cb_klauw.png,0,,,,,,,,,,,,,,,,,,,,,,
,,,,,,,2023-09-06_17h51.01.465,vbt_B2_day2,2022.2.4,Win32,60.0528465,55756,,,,,,,,,,,,,,,,,,,,,,,,,,,down,0,12.5821,,0.20462963,-0.367592593,1,0,0,1.6659,0,78,78,97,1,loyaal,images/br_loyaal.png,images/cb_loyaal.png,1,loyaal,,,,,,,,,,,,,,,,,,,,,
,,,,,,,2023-09-06_17h51.01.465,vbt_B2_day2,2022.2.4,Win32,60.0528465,55756,,,,,,,,,,,,,,,,,,,,,,,,,,,down,0,0.7891,,0.20462963,-0.367592593,1,0,0,0.6003,0,79,79,9,1,hier,images/br_hier.png,images/cb_hier.png,0,,,,,,,,,,,,,,,,,,,,,,
,,,,,,,2023-09-06_17h51.01.465,vbt_B2_day2,2022.2.4,Win32,60.0528465,55756,,,,,,,,,,,,,,,,,,,,,,,,,,,down,0,0.8271,,0.20462963,-0.367592593,1,0,0,0.5665,0,80,80,181,1,toegeven,images/br_toegeven.png,images/cb_toegeven.png,0,,,,,,,,,,,,,,,,,,,,,,
,,,,,,,2023-09-06_17h51.01.465,vbt_B2_day2,2022.2.4,Win32,60.0528465,55756,,,,,,,,,,,,,,,,,,,,,,,,,,,down,0,0.4023,,0.20462963,-0.367592593,1,0,0,0.4998,0,81,81,28,1,stal,images/br_stal.png,images/cb_stal.png,0,,,,,,,,,,,,,,,,,,,,,,
,,,,,,,2023-09-06_17h51.01.465,vbt_B2_day2,2022.2.4,Win32,60.0528465,55756,,,,,,,,,,,,,,,,,,,,,,,,,,,down,0,0.2951,,0.20462963,-0.367592593,1,0,0,0.4331,0,82,82,193,1,weeshuis,images/br_weeshuis.png,images/cb_weeshuis.png,0,,,,,,,,,,,,,,,,,,,,,,
,,,,,,,2023-09-06_17h51.01.465,vbt_B2_day2,2022.2.4,Win32,60.0528465,55756,,,,,,,,,,,,,,,,,,,,,,,,,,,down,0,0.2677,,0.20462963,-0.367592593,1,0,0,0.5664,0,83,83,110,1,zuster,images/br_zuster.png,images/cb_zuster.png,0,,,,,,,,,,,,,,,,,,,,,,
,,,,,,,2023-09-06_17h51.01.465,vbt_B2_day2,2022.2.4,Win32,60.0528465,55756,,,,,,,,,,,,,,,,,,,,,,,,,,,down,0,10.0815,,0.20462963,-0.367592593,1,0,0,0.4494,0,84,84,88,1,boeien,images/br_boeien.png,images/cb_boeien.png,0,,,,,,,,,,,,,,,,,,,,,,
,,,,,,,2023-09-06_17h51.01.465,vbt_B2_day2,2022.2.4,Win32,60.0528465,55756,,,,,,,,,,,,,,,,,,,,,,,,,,,down,0,0.276,,0.20462963,-0.367592593,1,0,0,0.8657,0,85,85,26,1,leuk,images/br_leuk.png,images/cb_leuk.png,0,,,,,,,,,,,,,,,,,,,,,,
,,,,,,,2023-09-06_17h51.01.465,vbt_B2_day2,2022.2.4,Win32,60.0528465,55756,,,,,,,,,,,,,,,,,,,,,,,,,,,down,0,0.8064,,0.20462963,-0.367592593,1,0,0,0.4169,0,86,86,143,1,hechten,images/br_hechten.png,images/cb_hechten.png,0,,,,,,,,,,,,,,,,,,,,,,
,,,,,,,2023-09-06_17h51.01.465,vbt_B2_day2,2022.2.4,Win32,60.0528465,55756,,,,,,,,,,,,,,,,,,,,,,,,,,,down,0,3.4635,,0.20462963,-0.367592593,1,0,0,1.0995,0,87,87,96,1,slagen,images/br_slagen.png,images/cb_slagen.png,1,slagen,,,,,,,,,,,,,,,,,,,,,
,,,,,,,2023-09-06_17h51.01.465,vbt_B2_day2,2022.2.4,Win32,60.0528465,55756,,,,,,,,,,,,,,,,,,,,,,,,,,,down,0,8.2834,,0.20462963,-0.367592593,1,0,0,0.7158,0,88,88,174,1,stemming,images/br_stemming.png,images/cb_stemming.png,0,,,,,,,,,,,,,,,,,,,,,,
,,,,,,,2023-09-06_17h51.01.465,vbt_B2_day2,2022.2.4,Win32,60.0528465,55756,,,,,,,,,,,,,,,,,,,,,,,,,,,down,0,1.7315,,0.20462963,-0.367592593,1,0,0,0.5332,0,89,89,73,1,volop,images/br_volop.png,images/cb_volop.png,0,,,,,,,,,,,,,,,,,,,,,,
,,,,,,,2023-09-06_17h51.01.465,vbt_B2_day2,2022.2.4,Win32,60.0528465,55756,,,,,,,,,,,,,,,,,,,,,,,,,,,down,0,0.8105,,0.20462963,-0.367592593,1,0,0,0.5163,0,90,90,196,1,nakijken,images/br_nakijken.png,images/cb_nakijken.png,0,,,,,,,,,,,,,,,,,,,,,,
,,,,,,,2023-09-06_17h51.01.465,vbt_B2_day2,2022.2.4,Win32,60.0528465,55756,,,,,,,,,,,,,,,,,,,,,,,,,,,down,0,0.9046,,0.20462963,-0.367592593,1,0,0,0.4669,0,91,91,161,1,attentie,images/br_attentie.png,images/cb_attentie.png,0,,,,,,,,,,,,,,,,,,,,,,
,,,,,,,2023-09-06_17h51.01.465,vbt_B2_day2,2022.2.4,Win32,60.0528465,55756,,,,,,,,,,,,,,,,,,,,,,,,,,,down,0,0.2676,,0.20462963,-0.367592593,1,0,0,0.4996,0,92,92,80,1,kanjer,images/br_kanjer.png,images/cb_kanjer.png,0,,,,,,,,,,,,,,,,,,,,,,
,,,,,,,2023-09-06_17h51.01.465,vbt_B2_day2,2022.2.4,Win32,60.0528465,55756,,,,,,,,,,,,,,,,,,,,,,,,,,,down,0,0.7789,,0.20462963,-0.367592593,1,0,0,0.4662,0,93,93,1,1,zaal,images/br_zaal.png,images/cb_zaal.png,0,,,,,,,,,,,,,,,,,,,,,,
,,,,,,,2023-09-06_17h51.01.465,vbt_B2_day2,2022.2.4,Win32,60.0528465,55756,,,,,,,,,,,,,,,,,,,,,,,,,,,down,0,0.1869,,0.20462963,-0.367592593,1,0,0,0.4492,0,94,94,127,1,doodmoe,images/br_doodmoe.png,images/cb_doodmoe.png,0,,,,,,,,,,,,,,,,,,,,,,
,,,,,,,2023-09-06_17h51.01.465,vbt_B2_day2,2022.2.4,Win32,60.0528465,55756,,,,,,,,,,,,,,,,,,,,,,,,,,,down,0,0.6009,,0.20462963,-0.367592593,1,0,0,0.7491,0,95,95,163,1,schuilen,images/br_schuilen.png,images/cb_schuilen.png,0,,,,,,,,,,,,,,,,,,,,,,
,,,,,,,2023-09-06_17h51.01.465,vbt_B2_day2,2022.2.4,Win32,60.0528465,55756,,,,,,,,,,,,,,,,,,,,,,,,,,,down,0,7.9284,,0.20462963,-0.367592593,1,0,0,1.2833,0,96,96,154,1,aflopen,images/br_aflopen.png,images/cb_aflopen.png,0,,,,,,,,,,,,,,,,,,,,,,
,,,,,,,2023-09-06_17h51.01.465,vbt_B2_day2,2022.2.4,Win32,60.0528465,55756,,,,,,,,,,,,,,,,,,,,,,,,,,,down,0,1.9261,,0.20462963,-0.367592593,1,0,0,0.483,0,97,97,172,1,weigeren,images/br_weigeren.png,images/cb_weigeren.png,0,,,,,,,,,,,,,,,,,,,,,,
,,,,,,,2023-09-06_17h51.01.465,vbt_B2_day2,2022.2.4,Win32,60.0528465,55756,,,,,,,,,,,,,,,,,,,,,,,,,,,down,0,14.7715,,0.20462963,-0.367592593,1,0,0,1.0498,0,98,98,178,1,huisdier,images/br_huisdier.png,images/cb_huisdier.png,1,huisdier,,,,,,,,,,,,,,,,,,,,,
,,,,,,,2023-09-06_17h51.01.465,vbt_B2_day2,2022.2.4,Win32,60.0528465,55756,,,,,,,,,,,,,,,,,,,,,,,,,,,down,0,0.79,,0.20462963,-0.367592593,1,0,0,0.5169,0,99,99,71,1,bever,images/br_bever.png,images/cb_bever.png,0,,,,,,,,,,,,,,,,,,,,,,
,,,,,,,2023-09-06_17h51.01.465,vbt_B2_day2,2022.2.4,Win32,60.0528465,55756,,,,,,,,,,,,,,,,,,,,,,,,,,,down,0,2.8921,,0.20462963,-0.367592593,1,0,0,0.6165,0,100,100,75,1,snoep,images/br_snoep.png,images/cb_snoep.png,0,,,,,,,,,,,,,,,,,,,,,,
,,,,,,,2023-09-06_17h51.01.465,vbt_B2_day2,2022.2.4,Win32,60.0528465,55756,,,,,,,,,,,,,,,,,,,,,,,,,,,down,0,0.6016,,0.20462963,-0.367592593,1,0,0,0.4329,0,101,101,183,1,getuigen,images/br_getuigen.png,images/cb_getuigen.png,0,,,,,,,,,,,,,,,,,,,,,,
,,,,,,,2023-09-06_17h51.01.465,vbt_B2_day2,2022.2.4,Win32,60.0528465,55756,,,,,,,,,,,,,,,,,,,,,,,,,,,down,0,0.4393,,0.20462963,-0.367592593,1,0,0,0.6165,0,102,102,22,1,stof,images/br_stof.png,images/cb_stof.png,0,,,,,,,,,,,,,,,,,,,,,,
,,,,,,,2023-09-06_17h51.01.465,vbt_B2_day2,2022.2.4,Win32,60.0528465,55756,,,,,,,,,,,,,,,,,,,,,,,,,,,down,0,0.2429,,0.20462963,-0.367592593,1,0,0,0.4499,0,103,103,21,1,mist,images/br_mist.png,images/cb_mist.png,0,,,,,,,,,,,,,,,,,,,,,,
,,,,,,,2023-09-06_17h51.01.465,vbt_B2_day2,2022.2.4,Win32,60.0528465,55756,,,,,,,,,,,,,,,,,,,,,,,,,,,down,0,0.4022,,0.20462963,-0.367592593,1,0,0,0.4831,0,104,104,85,1,heilig,images/br_heilig.png,images/cb_heilig.png,0,,,,,,,,,,,,,,,,,,,,,,
,,,,,,,2023-09-06_17h51.01.465,vbt_B2_day2,2022.2.4,Win32,60.0528465,55756,,,,,,,,,,,,,,,,,,,,,,,,,,,down,0,0.0998,,0.20462963,-0.367592593,1,0,0,0.4326,0,105,105,129,1,verhaal,images/br_verhaal.png,images/cb_verhaal.png,0,,,,,,,,,,,,,,,,,,,,,,
,,,,,,,2023-09-06_17h51.01.465,vbt_B2_day2,2022.2.4,Win32,60.0528465,55756,,,,,,,,,,,,,,,,,,,,,,,,,,,down,0,7.2597,,0.20462963,-0.367592593,1,0,0,1.4162,0,106,106,137,1,trekker,images/br_trekker.png,images/cb_trekker.png,1,trekker,,,,,,,,,,,,,,,,,,,,,
,,,,,,,2023-09-06_17h51.01.465,vbt_B2_day2,2022.2.4,Win32,60.0528465,55756,,,,,,,,,,,,,,,,,,,,,,,,,,,down,0,0.2035,,0.20462963,-0.367592593,1,0,0,0.4999,0,107,107,140,1,blijven,images/br_blijven.png,images/cb_blijven.png,0,,,,,,,,,,,,,,,,,,,,,,
,,,,,,,2023-09-06_17h51.01.465,vbt_B2_day2,2022.2.4,Win32,60.0528465,55756,,,,,,,,,,,,,,,,,,,,,,,,,,,down,0,0.6407,,0.20462963,-0.367592593,1,0,0,0.5997,0,108,108,42,1,bleek,images/br_bleek.png,images/cb_bleek.png,0,,,,,,,,,,,,,,,,,,,,,,
,,,,,,,2023-09-06_17h51.01.465,vbt_B2_day2,2022.2.4,Win32,60.0528465,55756,,,,,,,,,,,,,,,,,,,,,,,,,,,down,0,0.1681,,0.20462963,-0.367592593,1,0,0,0.5,0,109,109,77,1,woede,images/br_woede.png,images/cb_woede.png,0,,,,,,,,,,,,,,,,,,,,,,
,,,,,,,2023-09-06_17h51.01.465,vbt_B2_day2,2022.2.4,Win32,60.0528465,55756,,,,,,,,,,,,,,,,,,,,,,,,,,,down,0,0.2584,,0.20462963,-0.367592593,1,0,0,0.4672,0,110,110,94,1,oceaan,images/br_oceaan.png,images/cb_oceaan.png,0,,,,,,,,,,,,,,,,,,,,,,
,,,,,,,2023-09-06_17h51.01.465,vbt_B2_day2,2022.2.4,Win32,60.0528465,55756,,,,,,,,,,,,,,,,,,,,,,,,,,,down,0,0.2648,,0.20462963,-0.367592593,1,0,0,0.434,0,111,111,8,1,knie,images/br_knie.png,images/cb_knie.png,0,,,,,,,,,,,,,,,,,,,,,,
,,,,,,,2023-09-06_17h51.01.465,vbt_B2_day2,2022.2.4,Win32,60.0528465,55756,,,,,,,,,,,,,,,,,,,,,,,,,,,down,0,3.7784,,0.20462963,-0.367592593,1,0,0,0.3995,0,112,112,7,1,geld,images/br_geld.png,images/cb_geld.png,0,,,,,,,,,,,,,,,,,,,,,,
,,,,,,,2023-09-06_17h51.01.465,vbt_B2_day2,2022.2.4,Win32,60.0528465,55756,,,,,,,,,,,,,,,,,,,,,,,,,,,down,0,0.1053,,0.20462963,-0.367592593,1,0,0,0.583,0,113,113,13,1,kaal,images/br_kaal.png,images/cb_kaal.png,0,,,,,,,,,,,,,,,,,,,,,,
,,,,,,,2023-09-06_17h51.01.465,vbt_B2_day2,2022.2.4,Win32,60.0528465,55756,,,,,,,,,,,,,,,,,,,,,,,,,,,down,0,3.2548,,0.20462963,-0.367592593,1,0,0,0.4007,0,114,114,138,1,akkoord,images/br_akkoord.png,images/cb_akkoord.png,1,akkoord,,,,,,,,,,,,,,,,,,,,,
,,,,,,,2023-09-06_17h51.01.465,vbt_B2_day2,2022.2.4,Win32,60.0528465,55756,,,,,,,,,,,,,,,,,,,,,,,,,,,down,0,0.2142,,0.20462963,-0.367592593,1,0,0,0.4994,0,115,115,32,1,palm,images/br_palm.png,images/cb_palm.png,0,,,,,,,,,,,,,,,,,,,,,,
,,,,,,,2023-09-06_17h51.01.465,vbt_B2_day2,2022.2.4,Win32,60.0528465,55756,,,,,,,,,,,,,,,,,,,,,,,,,,,down,0,0.5062,,0.20462963,-0.367592593,1,0,0,0.5168,0,116,116,100,1,geduld,images/br_geduld.png,images/cb_geduld.png,0,,,,,,,,,,,,,,,,,,,,,,
,,,,,,,2023-09-06_17h51.01.465,vbt_B2_day2,2022.2.4,Win32,60.0528465,55756,,,,,,,,,,,,,,,,,,,,,,,,,,,down,0,0.4362,,0.20462963,-0.367592593,1,0,0,0.5496,0,117,117,81,1,dubbel,images/br_dubbel.png,images/cb_dubbel.png,0,,,,,,,,,,,,,,,,,,,,,,
,,,,,,,2023-09-06_17h51.01.465,vbt_B2_day2,2022.2.4,Win32,60.0528465,55756,,,,,,,,,,,,,,,,,,,,,,,,,,,down,0,0.309,,0.20462963,-0.367592593,1,0,0,0.4999,0,118,118,130,1,keihard,images/br_keihard.png,images/cb_keihard.png,0,,,,,,,,,,,,,,,,,,,,,,
,,,,,,,2023-09-06_17h51.01.465,vbt_B2_day2,2022.2.4,Win32,60.0528465,55756,,,,,,,,,,,,,,,,,,,,,,,,,,,down,0,0.4856,,0.20462963,-0.367592593,1,0,0,0.4333,0,119,119,12,1,kust,images/br_kust.png,images/cb_kust.png,0,,,,,,,,,,,,,,,,,,,,,,
,,,,,,,2023-09-06_17h51.01.465,vbt_B2_day2,2022.2.4,Win32,60.0528465,55756,,,,,,,,,,,,,,,,,,,,,,,,,,,down,0,0.2783,,0.20462963,-0.367592593,1,0,0,0.4492,0,120,120,37,1,mijn,images/br_mijn.png,images/cb_mijn.png,0,,,,,,,,,,,,,,,,,,,,,,
,,,,,,,2023-09-06_17h51.01.465,vbt_B2_day2,2022.2.4,Win32,60.0528465,55756,,,,,,,,,,,,,,,,,,,,,,,,,,,down,0,0.4049,,0.20462963,-0.367592593,1,0,0,0.4494,0,121,121,38,1,baai,images/br_baai.png,images/cb_baai.png,0,,,,,,,,,,,,,,,,,,,,,,
,,,,,,,2023-09-06_17h51.01.465,vbt_B2_day2,2022.2.4,Win32,60.0528465,55756,,,,,,,,,,,,,,,,,,,,,,,,,,,down,0,3.0009,,0.20462963,-0.367592593,1,0,0,0.3831,0,122,122,93,1,waarop,images/br_waarop.png,images/cb_waarop.png,0,,,,,,,,,,,,,,,,,,,,,,
,,,,,,,2023-09-06_17h51.01.465,vbt_B2_day2,2022.2.4,Win32,60.0528465,55756,,,,,,,,,,,,,,,,,,,,,,,,,,,down,0,0.422,,0.20462963,-0.367592593,1,0,0,0.4662,0,123,123,116,1,besmet,images/br_besmet.png,images/cb_besmet.png,0,,,,,,,,,,,,,,,,,,,,,,
,,,,,,,2023-09-06_17h51.01.465,vbt_B2_day2,2022.2.4,Win32,60.0528465,55756,,,,,,,,,,,,,,,,,,,,,,,,,,,down,0,0.8995,,0.20462963,-0.367592593,1,0,0,0.566,0,124,124,107,1,maling,images/br_maling.png,images/cb_maling.png,0,,,,,,,,,,,,,,,,,,,,,,
,,,,,,,2023-09-06_17h51.01.465,vbt_B2_day2,2022.2.4,Win32,60.0528465,55756,,,,,,,,,,,,,,,,,,,,,,,,,,,down,0,2.7852,,0.20462963,-0.367592593,1,0,0,0.6829,0,125,125,56,1,traag,images/br_traag.png,images/cb_traag.png,1,traag,,,,,,,,,,,,,,,,,,,,,
,,,,,,,2023-09-06_17h51.01.465,vbt_B2_day2,2022.2.4,Win32,60.0528465,55756,,,,,,,,,,,,,,,,,,,,,,,,,,,down,0,0.9203,,0.20462963,-0.367592593,1,0,0,0.5,0,126,126,108,1,excuus,images/br_excuus.png,images/cb_excuus.png,0,,,,,,,,,,,,,,,,,,,,,,
,,,,,,,2023-09-06_17h51.01.465,vbt_B2_day2,2022.2.4,Win32,60.0528465,55756,,,,,,,,,,,,,,,,,,,,,,,,,,,down,0,0.4681,,0.20462963,-0.367592593,1,0,0,0.5829,0,127,127,67,1,zwart,images/br_zwart.png,images/cb_zwart.png,0,,,,,,,,,,,,,,,,,,,,,,
,,,,,,,2023-09-06_17h51.01.465,vbt_B2_day2,2022.2.4,Win32,60.0528465,55756,,,,,,,,,,,,,,,,,,,,,,,,,,,down,0,8.3953,,0.20462963,-0.367592593,1,0,0,0.699,0,128,128,18,1,blik,images/br_blik.png,images/cb_blik.png,1,blik,,,,,,,,,,,,,,,,,,,,,
,,,,,,,2023-09-06_17h51.01.465,vbt_B2_day2,2022.2.4,Win32,60.0528465,55756,,,,,,,,,,,,,,,,,,,,,,,,,,,down,0,0.7902,,0.20462963,-0.367592593,1,0,0,0.4324,0,129,129,91,1,gezond,images/br_gezond.png,images/cb_gezond.png,0,,,,,,,,,,,,,,,,,,,,,,
,,,,,,,2023-09-06_17h51.01.465,vbt_B2_day2,2022.2.4,Win32,60.0528465,55756,,,,,,,,,,,,,,,,,,,,,,,,,,,down,0,5.0484,,0.20462963,-0.367592593,1,0,0,0.5834,0,130,130,98,1,kreeft,images/br_kreeft.png,images/cb_kreeft.png,1,kreeft,,,,,,,,,,,,,,,,,,,,,
,,,,,,,2023-09-06_17h51.01.465,vbt_B2_day2,2022.2.4,Win32,60.0528465,55756,,,,,,,,,,,,,,,,,,,,,,,,,,,down,0,0.0191,,0.20462963,-0.367592593,1,0,0,0.449,0,131,131,11,1,mode,images/br_mode.png,images/cb_mode.png,0,,,,,,,,,,,,,,,,,,,,,,
,,,,,,,2023-09-06_17h51.01.465,vbt_B2_day2,2022.2.4,Win32,60.0528465,55756,,,,,,,,,,,,,,,,,,,,,,,,,,,down,0,0.1469,,0.20462963,-0.367592593,1,0,0,0.5991,0,132,132,192,1,schaamte,images/br_schaamte.png,images/cb_schaamte.png,0,,,,,,,,,,,,,,,,,,,,,,
,,,,,,,2023-09-06_17h51.01.465,vbt_B2_day2,2022.2.4,Win32,60.0528465,55756,,,,,,,,,,,,,,,,,,,,,,,,,,,down,0,6.0619,,0.20462963,-0.367592593,1,0,0,0.5492,0,133,133,177,1,maaltijd,images/br_maaltijd.png,images/cb_maaltijd.png,1,maaltijd,,,,,,,,,,,,,,,,,,,,,
,,,,,,,2023-09-06_17h51.01.465,vbt_B2_day2,2022.2.4,Win32,60.0528465,55756,,,,,,,,,,,,,,,,,,,,,,,,,,,down,0,2.2352,,0.20462963,-0.367592593,1,0,0,0.5829,0,134,134,128,1,prikken,images/br_prikken.png,images/cb_prikken.png,0,,,,,,,,,,,,,,,,,,,,,,
,,,,,,,2023-09-06_17h51.01.465,vbt_B2_day2,2022.2.4,Win32,60.0528465,55756,,,,,,,,,,,,,,,,,,,,,,,,,,,down,0,0.5107,,0.20462963,-0.367592593,1,0,0,0.4996,0,135,135,44,1,flits,images/br_flits.png,images/cb_flits.png,0,,,,,,,,,,,,,,,,,,,,,,
,,,,,,,2023-09-06_17h51.01.465,vbt_B2_day2,2022.2.4,Win32,60.0528465,55756,,,,,,,,,,,,,,,,,,,,,,,,,,,down,0,0.8692,,0.20462963,-0.367592593,1,0,0,0.3829,0,136,136,164,1,anarchie,images/br_anarchie.png,images/cb_anarchie.png,0,,,,,,,,,,,,,,,,,,,,,,
,,,,,,,2023-09-06_17h51.01.465,vbt_B2_day2,2022.2.4,Win32,60.0528465,55756,,,,,,,,,,,,,,,,,,,,,,,,,,,down,0,0.5859,,0.20462963,-0.367592593,1,0,0,0.5163,0,137,137,147,1,komisch,images/br_komisch.png,images/cb_komisch.png,0,,,,,,,,,,,,,,,,,,,,,,
,,,,,,,2023-09-06_17h51.01.465,vbt_B2_day2,2022.2.4,Win32,60.0528465,55756,,,,,,,,,,,,,,,,,,,,,,,,,,,down,0,0.6789,,0.20462963,-0.367592593,1,0,0,0.5996,0,138,138,109,1,totaal,images/br_totaal.png,images/cb_totaal.png,0,,,,,,,,,,,,,,,,,,,,,,
,,,,,,,2023-09-06_17h51.01.465,vbt_B2_day2,2022.2.4,Win32,60.0528465,55756,,,,,,,,,,,,,,,,,,,,,,,,,,,down,0,0.3571,,0.20462963,-0.367592593,1,0,0,0.483,0,139,139,133,1,seizoen,images/br_seizoen.png,images/cb_seizoen.png,0,,,,,,,,,,,,,,,,,,,,,,
,,,,,,,2023-09-06_17h51.01.465,vbt_B2_day2,2022.2.4,Win32,60.0528465,55756,,,,,,,,,,,,,,,,,,,,,,,,,,,down,0,8.9864,,0.20462963,-0.367592593,1,0,0,0.9994,0,140,140,41,1,maken,images/br_maken.png,images/cb_maken.png,0,,,,,,,,,,,,,,,,,,,,,,
,,,,,,,2023-09-06_17h51.01.465,vbt_B2_day2,2022.2.4,Win32,60.0528465,55756,,,,,,,,,,,,,,,,,,,,,,,,,,,down,0,9.4491,,0.20462963,-0.367592593,1,0,0,1.3827,0,141,141,124,1,bloeien,images/br_bloeien.png,images/cb_bloeien.png,0,,,,,,,,,,,,,,,,,,,,,,
,,,,,,,2023-09-06_17h51.01.465,vbt_B2_day2,2022.2.4,Win32,60.0528465,55756,,,,,,,,,,,,,,,,,,,,,,,,,,,down,0,6.18,,0.20462963,-0.367592593,1,0,0,1.8145,0,142,142,168,1,bisschop,images/br_bisschop.png,images/cb_bisschop.png,0,,,,,,,,,,,,,,,,,,,,,,
,,,,,,,2023-09-06_17h51.01.465,vbt_B2_day2,2022.2.4,Win32,60.0528465,55756,,,,,,,,,,,,,,,,,,,,,,,,,,,down,0,0.1125,,0.20462963,-0.367592593,1,0,0,0.7328,0,143,143,35,1,lust,images/br_lust.png,images/cb_lust.png,0,,,,,,,,,,,,,,,,,,,,,,
,,,,,,,2023-09-06_17h51.01.465,vbt_B2_day2,2022.2.4,Win32,60.0528465,55756,,,,,,,,,,,,,,,,,,,,,,,,,,,down,0,7.6753,,0.20462963,-0.367592593,1,0,0,0.3497,0,144,144,76,1,afval,images/br_afval.png,images/cb_afval.png,0,,,,,,,,,,,,,,,,,,,,,,
,,,,,,,2023-09-06_17h51.01.465,vbt_B2_day2,2022.2.4,Win32,60.0528465,55756,,,,,,,,,,,,,,,,,,,,,,,,,,,down,0,0.6131,,0.20462963,-0.367592593,1,0,0,0.5331,0,145,145,15,1,soda,images/br_soda.png,images/cb_soda.png,0,,,,,,,,,,,,,,,,,,,,,,
,,,,,,,2023-09-06_17h51.01.465,vbt_B2_day2,2022.2.4,Win32,60.0528465,55756,,,,,,,,,,,,,,,,,,,,,,,,,,,down,0,0.4579,,0.20462963,-0.367592593,1,0,0,0.5497,0,146,146,79,1,nodig,images/br_nodig.png,images/cb_nodig.png,0,,,,,,,,,,,,,,,,,,,,,,
,,,,,,,2023-09-06_17h51.01.465,vbt_B2_day2,2022.2.4,Win32,60.0528465,55756,,,,,,,,,,,,,,,,,,,,,,,,,,,down,0,0.004,,0.20462963,-0.367592593,1,0,0,0.3997,0,147,147,46,1,jagen,images/br_jagen.png,images/cb_jagen.png,0,,,,,,,,,,,,,,,,,,,,,,
,,,,,,,2023-09-06_17h51.01.465,vbt_B2_day2,2022.2.4,Win32,60.0528465,55756,,,,,,,,,,,,,,,,,,,,,,,,,,,down,0,0.4598,,0.20462963,-0.367592593,1,0,0,0.9654,0,148,148,184,1,aandelen,images/br_aandelen.png,images/cb_aandelen.png,0,,,,,,,,,,,,,,,,,,,,,,
,,,,,,,2023-09-06_17h51.01.465,vbt_B2_day2,2022.2.4,Win32,60.0528465,55756,,,,,,,,,,,,,,,,,,,,,,,,,,,down,0,1.2896,,0.20462963,-0.367592593,1,0,0,0.4664,0,149,149,117,1,kennis,images/br_kennis.png,images/cb_kennis.png,0,,,,,,,,,,,,,,,,,,,,,,
,,,,,,,2023-09-06_17h51.01.465,vbt_B2_day2,2022.2.4,Win32,60.0528465,55756,,,,,,,,,,,,,,,,,,,,,,,,,,,down,0,0.5214,,0.20462963,-0.367592593,1,0,0,1.799,0,150,150,36,1,vuur,images/br_vuur.png,images/cb_vuur.png,0,,,,,,,,,,,,,,,,,,,,,,
,,,,,,,2023-09-06_17h51.01.465,vbt_B2_day2,2022.2.4,Win32,60.0528465,55756,,,,,,,,,,,,,,,,,,,,,,,,,,,down,0,5.8169,,0.20462963,-0.367592593,1,0,0,0.4658,0,151,151,34,1,vorm,images/br_vorm.png,images/cb_vorm.png,0,,,,,,,,,,,,,,,,,,,,,,
,,,,,,,2023-09-06_17h51.01.465,vbt_B2_day2,2022.2.4,Win32,60.0528465,55756,,,,,,,,,,,,,,,,,,,,,,,,,,,down,0,2.7899,,0.20462963,-0.367592593,1,0,0,0.5162,0,152,152,6,1,diep,images/br_diep.png,images/cb_diep.png,0,,,,,,,,,,,,,,,,,,,,,,
,,,,,,,2023-09-06_17h51.01.465,vbt_B2_day2,2022.2.4,Win32,60.0528465,55756,,,,,,,,,,,,,,,,,,,,,,,,,,,down,0,1.8098,,0.20462963,-0.367592593,1,0,0,1.9326,0,153,153,119,1,liefje,images/br_liefje.png,images/cb_liefje.png,0,,,,,,,,,,,,,,,,,,,,,,
,,,,,,,2023-09-06_17h51.01.465,vbt_B2_day2,2022.2.4,Win32,60.0528465,55756,,,,,,,,,,,,,,,,,,,,,,,,,,,down,0,5.2569,,0.20462963,-0.367592593,1,0,0,0.5162,0,154,154,2,1,jaar,images/br_jaar.png,images/cb_jaar.png,0,,,,,,,,,,,,,,,,,,,,,,
,,,,,,,2023-09-06_17h51.01.465,vbt_B2_day2,2022.2.4,Win32,60.0528465,55756,,,,,,,,,,,,,,,,,,,,,,,,,,,down,0,1.0087,,0.20462963,-0.367592593,1,0,0,0.4664,0,155,155,187,1,opkijken,images/br_opkijken.png,images/cb_opkijken.png,0,,,,,,,,,,,,,,,,,,,,,,
,,,,,,,2023-09-06_17h51.01.465,vbt_B2_day2,2022.2.4,Win32,60.0528465,55756,,,,,,,,,,,,,,,,,,,,,,,,,,,down,0,0.6696,,0.20462963,-0.367592593,1,0,0,0.4495,0,156,156,45,1,piste,images/br_piste.png,images/cb_piste.png,0,,,,,,,,,,,,,,,,,,,,,,
,,,,,,,2023-09-06_17h51.01.465,vbt_B2_day2,2022.2.4,Win32,60.0528465,55756,,,,,,,,,,,,,,,,,,,,,,,,,,,down,0,0.355,,0.20462963,-0.367592593,1,0,0,0.483,0,157,157,153,1,vervoer,images/br_vervoer.png,images/cb_vervoer.png,0,,,,,,,,,,,,,,,,,,,,,,
,,,,,,,2023-09-06_17h51.01.465,vbt_B2_day2,2022.2.4,Win32,60.0528465,55756,,,,,,,,,,,,,,,,,,,,,,,,,,,down,0,0.5591,,0.20462963,-0.367592593,1,0,0,0.5329,0,158,158,39,1,laag,images/br_laag.png,images/cb_laag.png,0,,,,,,,,,,,,,,,,,,,,,,
,,,,,,,2023-09-06_17h51.01.465,vbt_B2_day2,2022.2.4,Win32,60.0528465,55756,,,,,,,,,,,,,,,,,,,,,,,,,,,down,0,0.046,,0.20462963,-0.367592593,1,0,0,0.6663,0,159,159,103,1,joggen,images/br_joggen.png,images/cb_joggen.png,0,,,,,,,,,,,,,,,,,,,,,,
,,,,,,,2023-09-06_17h51.01.465,vbt_B2_day2,2022.2.4,Win32,60.0528465,55756,,,,,,,,,,,,,,,,,,,,,,,,,,,down,0,10.6972,,0.20462963,-0.367592593,1,0,0,0.7331,0,160,160,189,1,aanraden,images/br_aanraden.png,images/cb_aanraden.png,0,,,,,,,,,,,,,,,,,,,,,,
,,,,,,,2023-09-06_17h51.01.465,vbt_B2_day2,2022.2.4,Win32,60.0528465,55756,,,,,,,,,,,,,,,,,,,,,,,,,,,down,0,3.8965,,0.20462963,-0.367592593,1,0,0,0.4498,0,161,161,59,1,kring,images/br_kring.png,images/cb_kring.png,1,kring,,,,,,,,,,,,,,,,,,,,,
,,,,,,,2023-09-06_17h51.01.465,vbt_B2_day2,2022.2.4,Win32,60.0528465,55756,,,,,,,,,,,,,,,,,,,,,,,,,,,down,0,1.2269,,0.20462963,-0.367592593,1,0,0,0.9493,0,162,162,101,1,staren,images/br_staren.png,images/cb_staren.png,0,,,,,,,,,,,,,,,,,,,,,,
,,,,,,,2023-09-06_17h51.01.465,vbt_B2_day2,2022.2.4,Win32,60.0528465,55756,,,,,,,,,,,,,,,,,,,,,,,,,,,down,0,2.0114,,0.20462963,-0.367592593,1,0,0,0.5163,0,163,163,182,1,bijkomen,images/br_bijkomen.png,images/cb_bijkomen.png,0,,,,,,,,,,,,,,,,,,,,,,
,,,,,,,2023-09-06_17h51.01.465,vbt_B2_day2,2022.2.4,Win32,60.0528465,55756,,,,,,,,,,,,,,,,,,,,,,,,,,,down,0,0.4251,,0.20462963,-0.367592593,1,0,0,0.5164,0,164,164,24,1,jurk,images/br_jurk.png,images/cb_jurk.png,0,,,,,,,,,,,,,,,,,,,,,,
,,,,,,,2023-09-06_17h51.01.465,vbt_B2_day2,2022.2.4,Win32,60.0528465,55756,,,,,,,,,,,,,,,,,,,,,,,,,,,down,0,0.0955,,0.20462963,-0.367592593,1,0,0,0.4163,0,165,165,74,1,graaf,images/br_graaf.png,images/cb_graaf.png,0,,,,,,,,,,,,,,,,,,,,,,
,,,,,,,2023-09-06_17h51.01.465,vbt_B2_day2,2022.2.4,Win32,60.0528465,55756,,,,,,,,,,,,,,,,,,,,,,,,,,,down,0,8.5512,,0.20462963,-0.367592593,1,0,0,1.6993,0,166,166,57,1,steek,images/br_steek.png,images/cb_steek.png,1,steek,,,,,,,,,,,,,,,,,,,,,
,,,,,,,2023-09-06_17h51.01.465,vbt_B2_day2,2022.2.4,Win32,60.0528465,55756,,,,,,,,,,,,,,,,,,,,,,,,,,,down,0,0.2787,,0.20462963,-0.367592593,1,0,0,0.5497,0,167,167,199,1,beseffen,images/br_beseffen.png,images/cb_beseffen.png,0,,,,,,,,,,,,,,,,,,,,,,
,,,,,,,2023-09-06_17h51.01.465,vbt_B2_day2,2022.2.4,Win32,60.0528465,55756,,,,,,,,,,,,,,,,,,,,,,,,,,,down,0,1.7008,,0.20462963,-0.367592593,1,0,0,0.449,0,168,168,118,1,vinger,images/br_vinger.png,images/cb_vinger.png,0,,,,,,,,,,,,,,,,,,,,,,
,,,,,,,2023-09-06_17h51.01.465,vbt_B2_day2,2022.2.4,Win32,60.0528465,55756,,,,,,,,,,,,,,,,,,,,,,,,,,,down,0,0.3134,,0.20462963,-0.367592593,1,0,0,0.5157,0,169,169,198,1,bedoelen,images/br_bedoelen.png,images/cb_bedoelen.png,0,,,,,,,,,,,,,,,,,,,,,,
,,,,,,,2023-09-06_17h51.01.465,vbt_B2_day2,2022.2.4,Win32,60.0528465,55756,,,,,,,,,,,,,,,,,,,,,,,,,,,down,0,3.5599,,0.20462963,-0.367592593,1,0,0,0.649,0,170,170,60,1,jasje,images/br_jasje.png,images/cb_jasje.png,0,,,,,,,,,,,,,,,,,,,,,,
,,,,,,,2023-09-06_17h51.01.465,vbt_B2_day2,2022.2.4,Win32,60.0528465,55756,,,,,,,,,,,,,,,,,,,,,,,,,,,down,0,0.2042,,0.20462963,-0.367592593,1,0,0,0.5004,0,171,171,113,1,koppen,images/br_koppen.png,images/cb_koppen.png,0,,,,,,,,,,,,,,,,,,,,,,
,,,,,,,2023-09-06_17h51.01.465,vbt_B2_day2,2022.2.4,Win32,60.0528465,55756,,,,,,,,,,,,,,,,,,,,,,,,,,,down,0,3.2527,,0.20462963,-0.367592593,1,0,0,0.4496,0,172,172,29,1,baas,images/br_baas.png,images/cb_baas.png,0,,,,,,,,,,,,,,,,,,,,,,
,,,,,,,2023-09-06_17h51.01.465,vbt_B2_day2,2022.2.4,Win32,60.0528465,55756,,,,,,,,,,,,,,,,,,,,,,,,,,,down,0,0.9072,,0.20462963,-0.367592593,1,0,0,0.3665,0,173,173,69,1,waken,images/br_waken.png,images/cb_waken.png,0,,,,,,,,,,,,,,,,,,,,,,
,,,,,,,2023-09-06_17h51.01.465,vbt_B2_day2,2022.2.4,Win32,60.0528465,55756,,,,,,,,,,,,,,,,,,,,,,,,,,,down,0,0.3036,,0.20462963,-0.367592593,1,0,0,0.583,0,174,174,54,1,gebit,images/br_gebit.png,images/cb_gebit.png,0,,,,,,,,,,,,,,,,,,,,,,
,,,,,,,2023-09-06_17h51.01.465,vbt_B2_day2,2022.2.4,Win32,60.0528465,55756,,,,,,,,,,,,,,,,,,,,,,,,,,,down,0,0.5695,,0.20462963,-0.367592593,1,0,0,0.499,0,175,175,114,1,vullen,images/br_vullen.png,images/cb_vullen.png,0,,,,,,,,,,,,,,,,,,,,,,
,,,,,,,2023-09-06_17h51.01.465,vbt_B2_day2,2022.2.4,Win32,60.0528465,55756,,,,,,,,,,,,,,,,,,,,,,,,,,,down,0,1.7583,,0.20462963,-0.367592593,1,0,0,0.5496,0,176,176,149,1,redding,images/br_redding.png,images/cb_redding.png,0,,,,,,,,,,,,,,,,,,,,,,
,,,,,,,2023-09-06_17h51.01.465,vbt_B2_day2,2022.2.4,Win32,60.0528465,55756,,,,,,,,,,,,,,,,,,,,,,,,,,,down,0,4.0907,,0.20462963,-0.367592593,1,0,0,1.8824,0,177,177,16,1,ziek,images/br_ziek.png,images/cb_ziek.png,1,ziek,,,,,,,,,,,,,,,,,,,,,
,,,,,,,2023-09-06_17h51.01.465,vbt_B2_day2,2022.2.4,Win32,60.0528465,55756,,,,,,,,,,,,,,,,,,,,,,,,,,,down,0,2.613,,0.20462963,-0.367592593,1,0,0,0.483,0,178,178,132,1,grappen,images/br_grappen.png,images/cb_grappen.png,0,,,,,,,,,,,,,,,,,,,,,,
,,,,,,,2023-09-06_17h51.01.465,vbt_B2_day2,2022.2.4,Win32,60.0528465,55756,,,,,,,,,,,,,,,,,,,,,,,,,,,down,0,2.983,,0.20462963,-0.367592593,1,0,0,1.0328,0,179,179,139,1,stiekem,images/br_stiekem.png,images/cb_stiekem.png,1,stiekem,,,,,,,,,,,,,,,,,,,,,
,,,,,,,2023-09-06_17h51.01.465,vbt_B2_day2,2022.2.4,Win32,60.0528465,55756,,,,,,,,,,,,,,,,,,,,,,,,,,,down,0,0.3822,,0.20462963,-0.367592593,1,0,0,0.5658,0,180,180,51,1,samen,images/br_samen.png,images/cb_samen.png,0,,,,,,,,,,,,,,,,,,,,,,
,,,,,,,2023-09-06_17h51.01.465,vbt_B2_day2,2022.2.4,Win32,60.0528465,55756,,,,,,,,,,,,,,,,,,,,,,,,,,,down,0,0.0514,,0.20462963,-0.367592593,1,0,0,0.433,0,181,181,53,1,baron,images/br_baron.png,images/cb_baron.png,0,,,,,,,,,,,,,,,,,,,,,,
,,,,,,,2023-09-06_17h51.01.465,vbt_B2_day2,2022.2.4,Win32,60.0528465,55756,,,,,,,,,,,,,,,,,,,,,,,,,,,down,0,1.1511,,0.20462963,-0.367592593,1,0,0,0.3501,0,182,182,63,1,flirt,images/br_flirt.png,images/cb_flirt.png,0,,,,,,,,,,,,,,,,,,,,,,
,,,,,,,2023-09-06_17h51.01.465,vbt_B2_day2,2022.2.4,Win32,60.0528465,55756,,,,,,,,,,,,,,,,,,,,,,,,,,,down,0,2.5845,,0.20462963,-0.367592593,1,0,0,0.3997,0,183,183,151,1,aanzoek,images/br_aanzoek.png,images/cb_aanzoek.png,0,,,,,,,,,,,,,,,,,,,,,,
,,,,,,,2023-09-06_17h51.01.465,vbt_B2_day2,2022.2.4,Win32,60.0528465,55756,,,,,,,,,,,,,,,,,,,,,,,,,,,down,0,0.094,,0.20462963,-0.367592593,1,0,0,0.3831,0,184,184,52,1,wagon,images/br_wagon.png,images/cb_wagon.png,0,,,,,,,,,,,,,,,,,,,,,,
,,,,,,,2023-09-06_17h51.01.465,vbt_B2_day2,2022.2.4,Win32,60.0528465,55756,,,,,,,,,,,,,,,,,,,,,,,,,,,down,0,0.5323,,0.20462963,-0.367592593,1,0,0,0.5163,0,185,185,68,1,schat,images/br_schat.png,images/cb_schat.png,0,,,,,,,,,,,,,,,,,,,,,,
,,,,,,,2023-09-06_17h51.01.465,vbt_B2_day2,2022.2.4,Win32,60.0528465,55756,,,,,,,,,,,,,,,,,,,,,,,,,,,down,0,0.1097,,0.20462963,-0.367592593,1,0,0,0.5164,0,186,186,104,1,zweven,images/br_zweven.png,images/cb_zweven.png,0,,,,,,,,,,,,,,,,,,,,,,
,,,,,,,2023-09-06_17h51.01.465,vbt_B2_day2,2022.2.4,Win32,60.0528465,55756,,,,,,,,,,,,,,,,,,,,,,,,,,,down,0,0.3543,,0.20462963,-0.367592593,1,0,0,0.533,0,187,187,47,1,kabel,images/br_kabel.png,images/cb_kabel.png,0,,,,,,,,,,,,,,,,,,,,,,
,,,,,,,2023-09-06_17h51.01.465,vbt_B2_day2,2022.2.4,Win32,60.0528465,55756,,,,,,,,,,,,,,,,,,,,,,,,,,,down,0,0.5399,,0.20462963,-0.367592593,1,0,0,0.5663,0,188,188,122,1,waarvan,images/br_waarvan.png,images/cb_waarvan.png,0,,,,,,,,,,,,,,,,,,,,,,
,,,,,,,2023-09-06_17h51.01.465,vbt_B2_day2,2022.2.4,Win32,60.0528465,55756,,,,,,,,,,,,,,,,,,,,,,,,,,,down,0,0.9038,,0.20462963,-0.367592593,1,0,0,0.5162,0,189,189,105,1,wijlen,images/br_wijlen.png,images/cb_wijlen.png,0,,,,,,,,,,,,,,,,,,,,,,
,,,,,,,2023-09-06_17h51.01.465,vbt_B2_day2,2022.2.4,Win32,60.0528465,55756,,,,,,,,,,,,,,,,,,,,,,,,,,,down,0,8.4527,,0.20462963,-0.367592593,1,0,0,0.4995,0,190,190,31,1,poes,images/br_poes.png,images/cb_poes.png,0,,,,,,,,,,,,,,,,,,,,,,
,,,,,,,2023-09-06_17h51.01.465,vbt_B2_day2,2022.2.4,Win32,60.0528465,55756,,,,,,,,,,,,,,,,,,,,,,,,,,,down,0,7.4457,,0.20462963,-0.367592593,1,0,0,2.2484,0,191,191,173,1,apparaat,images/br_apparaat.png,images/cb_apparaat.png,0,,,,,,,,,,,,,,,,,,,,,,
,,,,,,,2023-09-06_17h51.01.465,vbt_B2_day2,2022.2.4,Win32,60.0528465,55756,,,,,,,,,,,,,,,,,,,,,,,,,,,down,0,0.5937,,0.20462963,-0.367592593,1,0,0,0.7329,0,192,192,27,1,dans,images/br_dans.png,images/cb_dans.png,0,,,,,,,,,,,,,,,,,,,,,,
,,,,,,,2023-09-06_17h51.01.465,vbt_B2_day2,2022.2.4,Win32,60.0528465,55756,,,,,,,,,,,,,,,,,,,,,,,,,,,down,0,0.2749,,0.20462963,-0.367592593,1,0,0,0.5495,0,193,193,155,1,gerucht,images/br_gerucht.png,images/cb_gerucht.png,0,,,,,,,,,,,,,,,,,,,,,,
,,,,,,,2023-09-06_17h51.01.465,vbt_B2_day2,2022.2.4,Win32,60.0528465,55756,,,,,,,,,,,,,,,,,,,,,,,,,,,down,0,1.0266,,0.20462963,-0.367592593,1,0,0,0.5335,0,194,194,82,1,muziek,images/br_muziek.png,images/cb_muziek.png,0,,,,,,,,,,,,,,,,,,,,,,
,,,,,,,2023-09-06_17h51.01.465,vbt_B2_day2,2022.2.4,Win32,60.0528465,55756,,,,,,,,,,,,,,,,,,,,,,,,,,,down,0,0.1906,,0.20462963,-0.367592593,1,0,0,0.9494,0,195,195,62,1,knaap,images/br_knaap.png,images/cb_knaap.png,0,,,,,,,,,,,,,,,,,,,,,,
,,,,,,,2023-09-06_17h51.01.465,vbt_B2_day2,2022.2.4,Win32,60.0528465,55756,,,,,,,,,,,,,,,,,,,,,,,,,,,down,0,1.4933,,0.20462963,-0.367592593,1,0,0,2.7653,0,196,196,84,1,lokken,images/br_lokken.png,images/cb_lokken.png,0,,,,,,,,,,,,,,,,,,,,,,
,,,,,,,2023-09-06_17h51.01.465,vbt_B2_day2,2022.2.4,Win32,60.0528465,55756,,,,,,,,,,,,,,,,,,,,,,,,,,,down,0,7.674,,0.20462963,-0.367592593,1,0,0,0.4996,0,197,197,125,1,aanzien,images/br_aanzien.png,images/cb_aanzien.png,0,,,,,,,,,,,,,,,,,,,,,,
,,,,,,,2023-09-06_17h51.01.465,vbt_B2_day2,2022.2.4,Win32,60.0528465,55756,,,,,,,,,,,,,,,,,,,,,,,,,,,down,0,4.38,,0.20462963,-0.367592593,1,0,0,1.6323,0,198,198,162,1,uitdelen,images/br_uitdelen.png,images/cb_uitdelen.png,0,,,,,,,,,,,,,,,,,,,,,,
,,,,,,,2023-09-06_17h51.01.465,vbt_B2_day2,2022.2.4,Win32,60.0528465,55756,,,,,,,,,,,,,,,,,,,,,,,,,,,down,0,8.9031,,0.20462963,-0.367592593,1,0,0,1.6659,0,199,199,176,1,techniek,images/br_techniek.png,images/cb_techniek.png,1,techniek,,,,,,,,,,,,,,,,,,,,,
,,,,,,,2023-09-06_17h51.01.465,vbt_B2_day2,2022.2.4,Win32,60.0528465,55756,,,,,,,,,,,,,,,,,,,,,,,,,,,,,,,,,,,,,,,,,,,,,,,0.20462963,-0.367592593,1,0,0,,,,,,,,,,,,,,,,
,,,,,,,2023-09-06_17h51.01.465,vbt_B2_day2,2022.2.4,Win32,60.0528465,55756,,,,,,,,,,,,,,,,,,,,,,,,,,,,,,,,,,,,,,,,,,,,,,,,,,,,0.20462963,-0.367592593,1,0,0,,,,,,,,,,,
,,,,,,,2023-09-06_17h51.01.465,vbt_B2_day2,2022.2.4,Win32,60.0528465,55756,,,,,,,,,,,,,,,,,,,,,,,,,,,,,,,,,,,,,,,,,,lijnen,images/br_lijnen.png,images/cb_lijnen.png,,lijnen,,,,,,,,,,,0.20462963,-0.367592593,1,0,0,lijnen,0,0,0,51,1
,,,,,,,2023-09-06_17h51.01.465,vbt_B2_day2,2022.2.4,Win32,60.0528465,55756,,,,,,,,,,,,,,,,,,,,,,,,,,,,,,,,,,,,,,,,,,welzijn,images/br_welzijn.png,images/cb_welzijn.png,,welzijn,,,,,,,,,,,0.20462963,-0.367592593,1,0,0,welzijn,0,1,1,52,1
,,,,,,,2023-09-06_17h51.01.465,vbt_B2_day2,2022.2.4,Win32,60.0528465,55756,,,,,,,,,,,,,,,,,,,,,,,,,,,,,,,,,,,,,,,,,,flits,images/br_flits.png,images/cb_flits.png,,flits,,,,,,,,,,,0.20462963,-0.367592593,1,0,0,flits,0,2,2,4,1
,,,,,,,2023-09-06_17h51.01.465,vbt_B2_day2,2022.2.4,Win32,60.0528465,55756,,,,,,,,,,,,,,,,,,,,,,,,,,,,,,,,,,,,,,,,,,jagen,images/br_jagen.png,images/cb_jagen.png,,jagen,,,,,,,,,,,0.20462963,-0.367592593,1,0,0,jagen,0,3,3,6,1
,,,,,,,2023-09-06_17h51.01.465,vbt_B2_day2,2022.2.4,Win32,60.0528465,55756,,,,,,,,,,,,,,,,,,,,,,,,,,,,,,,,,,,,,,,,,,wijve,images/br_wijve.png,images/cb_wijve.png,,wijve,,,,,,,,,,,0.20462963,-0.367592593,1,0,0,wijve,0,4,4,27,1
,,,,,,,2023-09-06_17h51.01.465,vbt_B2_day2,2022.2.4,Win32,60.0528465,55756,,,,,,,,,,,,,,,,,,,,,,,,,,,,,,,,,,,,,,,,,,systeem,images/br_systeem.png,images/cb_systeem.png,,systeem,,,,,,,,,,,0.20462963,-0.367592593,1,0,0,systeem,0,5,5,54,1
,,,,,,,2023-09-06_17h51.01.465,vbt_B2_day2,2022.2.4,Win32,60.0528465,55756,,,,,,,,,,,,,,,,,,,,,,,,,,,,,,,,,,,,,,,,,,heengeen,images/br_heengeen.png,images/cb_heengeen.png,,heengeen,,,,,,,,,,,0.20462963,-0.367592593,1,0,0,heengeen,0,6,6,38,1
,,,,,,,2023-09-06_17h51.01.465,vbt_B2_day2,2022.2.4,Win32,60.0528465,55756,,,,,,,,,,,,,,,,,,,,,,,,,,,,,,,,,,,,,,,,,,zwager,images/br_zwager.png,images/cb_zwager.png,,zwager,,,,,,,,,,,0.20462963,-0.367592593,1,0,0,zwager,0,7,7,49,1
,,,,,,,2023-09-06_17h51.01.465,vbt_B2_day2,2022.2.4,Win32,60.0528465,55756,,,,,,,,,,,,,,,,,,,,,,,,,,,,,,,,,,,,,,,,,,lokken,images/br_lokken.png,images/cb_lokken.png,,lokken,,,,,,,,,,,0.20462963,-0.367592593,1,0,0,lokken,0,8,8,8,1
,,,,,,,2023-09-06_17h51.01.465,vbt_B2_day2,2022.2.4,Win32,60.0528465,55756,,,,,,,,,,,,,,,,,,,,,,,,,,,,,,,,,,,,,,,,,,sjijfel,images/br_sjijfel.png,images/cb_sjijfel.png,,shejfel,,,,,,,,,,,0.20462963,-0.367592593,1,0,0,shejfel,0,9,9,33,1
,,,,,,,2023-09-06_17h51.01.465,vbt_B2_day2,2022.2.4,Win32,60.0528465,55756,,,,,,,,,,,,,,,,,,,,,,,,,,,,,,,,,,,,,,,,,,bereuwen,images/br_bereuwen.png,images/cb_bereuwen.png,,bereuwen,,,,,,,,,,,0.20462963,-0.367592593,1,0,0,bereuwen,0,10,10,39,1
,,,,,,,2023-09-06_17h51.01.465,vbt_B2_day2,2022.2.4,Win32,60.0528465,55756,,,,,,,,,,,,,,,,,,,,,,,,,,,,,,,,,,,,,,,,,,kenzis,images/br_kenzis.png,images/cb_kenzis.png,,kenzis,,,,,,,,,,,0.20462963,-0.367592593,1,0,0,kenzis,0,11,11,30,1
,,,,,,,2023-09-06_17h51.01.465,vbt_B2_day2,2022.2.4,Win32,60.0528465,55756,,,,,,,,,,,,,,,,,,,,,,,,,,,,,,,,,,,,,,,,,,kasteel,images/br_kasteel.png,images/cb_kasteel.png,,kasteel,,,,,,,,,,,0.20462963,-0.367592593,1,0,0,kasteel,0,12,12,14,1
,,,,,,,2023-09-06_17h51.01.465,vbt_B2_day2,2022.2.4,Win32,60.0528465,55756,,,,,,,,,,,,,,,,,,,,,,,,,,,,,,,,,,,,,,,,,,joes,images/br_joes.png,images/cb_joes.png,,joes,,,,,,,,,,,0.20462963,-0.367592593,1,0,0,joes,0,13,13,20,1
,,,,,,,2023-09-06_17h51.01.465,vbt_B2_day2,2022.2.4,Win32,60.0528465,55756,,,,,,,,,,,,,,,,,,,,,,,,,,,,,,,,,,,,,,,,,,remel,images/br_remel.png,images/cb_remel.png,,remel,,,,,,,,,,,0.20462963,-0.367592593,1,0,0,remel,0,14,14,25,1
,,,,,,,2023-09-06_17h51.01.465,vbt_B2_day2,2022.2.4,Win32,60.0528465,55756,,,,,,,,,,,,,,,,,,,,,,,,,,,,,,,,,,,,,,,,,,opdatten,images/br_opdatten.png,images/cb_opdatten.png,,opdatten,,,,,,,,,,,0.20462963,-0.367592593,1,0,0,opdatten,0,15,15,37,1
,,,,,,,2023-09-06_17h51.01.465,vbt_B2_day2,2022.2.4,Win32,60.0528465,55756,,,,,,,,,,,,,,,,,,,,,,,,,,,,,,,,,,,,,,,,,,krimmen,images/br_krimmen.png,images/cb_krimmen.png,,krimmen,,,,,,,,,,,0.20462963,-0.367592593,1,0,0,krimmen,0,16,16,35,1
,,,,,,,2023-09-06_17h51.01.465,vbt_B2_day2,2022.2.4,Win32,60.0528465,55756,,,,,,,,,,,,,,,,,,,,,,,,,,,,,,,,,,,,,,,,,,strikken,images/br_strikken.png,images/cb_strikken.png,,strikken,,,,,,,,,,,0.20462963,-0.367592593,1,0,0,strikken,0,17,17,18,1
,,,,,,,2023-09-06_17h51.01.465,vbt_B2_day2,2022.2.4,Win32,60.0528465,55756,,,,,,,,,,,,,,,,,,,,,,,,,,,,,,,,,,,,,,,,,,dode,images/br_dode.png,images/cb_dode.png,,dode,,,,,,,,,,,0.20462963,-0.367592593,1,0,0,dode,0,18,18,41,1
,,,,,,,2023-09-06_17h51.01.465,vbt_B2_day2,2022.2.4,Win32,60.0528465,55756,,,,,,,,,,,,,,,,,,,,,,,,,,,,,,,,,,,,,,,,,,piste,images/br_piste.png,images/cb_piste.png,,piste,,,,,,,,,,,0.20462963,-0.367592593,1,0,0,piste,0,19,19,5,1
,,,,,,,2023-09-06_17h51.01.465,vbt_B2_day2,2022.2.4,Win32,60.0528465,55756,,,,,,,,,,,,,,,,,,,,,,,,,,,,,,,,,,,,,,,,,,zegel,images/br_zegel.png,images/cb_zegel.png,,zegek,,,,,,,,,,,0.20462963,-0.367592593,1,0,0,zegek,0,20,20,46,1
,,,,,,,2023-09-06_17h51.01.465,vbt_B2_day2,2022.2.4,Win32,60.0528465,55756,,,,,,,,,,,,,,,,,,,,,,,,,,,,,,,,,,,,,,,,,,agressie,images/br_agressie.png,images/cb_agressie.png,,agressie,,,,,,,,,,,0.20462963,-0.367592593,1,0,0,agressie,0,21,21,59,1
,,,,,,,2023-09-06_17h51.01.465,vbt_B2_day2,2022.2.4,Win32,60.0528465,55756,,,,,,,,,,,,,,,,,,,,,,,,,,,,,,,,,,,,,,,,,,breuk,images/br_breuk.png,images/cb_breuk.png,,breuk,,,,,,,,,,,0.20462963,-0.367592593,1,0,0,breuk,0,22,22,45,1
,,,,,,,2023-09-06_17h51.01.465,vbt_B2_day2,2022.2.4,Win32,60.0528465,55756,,,,,,,,,,,,,,,,,,,,,,,,,,,,,,,,,,,,,,,,,,kijlen,images/br_kijlen.png,images/cb_kijlen.png,,kijlen,,,,,,,,,,,0.20462963,-0.367592593,1,0,0,kijlen,0,23,23,31,1
,,,,,,,2023-09-06_17h51.01.465,vbt_B2_day2,2022.2.4,Win32,60.0528465,55756,,,,,,,,,,,,,,,,,,,,,,,,,,,,,,,,,,,,,,,,,,manieren,images/br_manieren.png,images/cb_manieren.png,,manieren,,,,,,,,,,,0.20462963,-0.367592593,1,0,0,manieren,0,24,24,56,1
,,,,,,,2023-09-06_17h51.01.465,vbt_B2_day2,2022.2.4,Win32,60.0528465,55756,,,,,,,,,,,,,,,,,,,,,,,,,,,,,,,,,,,,,,,,,,goon,images/br_goon.png,images/cb_goon.png,,goon,,,,,,,,,,,0.20462963,-0.367592593,1,0,0,goon,0,25,25,23,1
,,,,,,,2023-09-06_17h51.01.465,vbt_B2_day2,2022.2.4,Win32,60.0528465,55756,,,,,,,,,,,,,,,,,,,,,,,,,,,,,,,,,,,,,,,,,,clan,images/br_clan.png,images/cb_clan.png,,clan,,,,,,,,,,,0.20462963,-0.367592593,1,0,0,clan,0,26,26,40,1
,,,,,,,2023-09-06_17h51.01.465,vbt_B2_day2,2022.2.4,Win32,60.0528465,55756,,,,,,,,,,,,,,,,,,,,,,,,,,,,,,,,,,,,,,,,,,aanvraag,images/br_aanvraag.png,images/cb_aanvraag.png,,aanvraag,,,,,,,,,,,0.20462963,-0.367592593,1,0,0,aanvraag,0,27,27,57,1
,,,,,,,2023-09-06_17h51.01.465,vbt_B2_day2,2022.2.4,Win32,60.0528465,55756,,,,,,,,,,,,,,,,,,,,,,,,,,,,,,,,,,,,,,,,,,moes,images/br_moes.png,images/cb_moes.png,,moes,,,,,,,,,,,0.20462963,-0.367592593,1,0,0,moes,0,28,28,0,1
,,,,,,,2023-09-06_17h51.01.465,vbt_B2_day2,2022.2.4,Win32,60.0528465,55756,,,,,,,,,,,,,,,,,,,,,,,,,,,,,,,,,,,,,,,,,,thema,images/br_thema.png,images/cb_thema.png,,thema,,,,,,,,,,,0.20462963,-0.367592593,1,0,0,thema,0,29,29,47,1
,,,,,,,2023-09-06_17h51.01.465,vbt_B2_day2,2022.2.4,Win32,60.0528465,55756,,,,,,,,,,,,,,,,,,,,,,,,,,,,,,,,,,,,,,,,,,negel,images/br_negel.png,images/cb_negel.png,,negel,,,,,,,,,,,0.20462963,-0.367592593,1,0,0,negel,0,30,30,24,1
,,,,,,,2023-09-06_17h51.01.465,vbt_B2_day2,2022.2.4,Win32,60.0528465,55756,,,,,,,,,,,,,,,,,,,,,,,,,,,,,,,,,,,,,,,,,,tweeling,images/br_tweeling.png,images/cb_tweeling.png,,tweeling,,,,,,,,,,,0.20462963,-0.367592593,1,0,0,tweeling,0,31,31,58,1
,,,,,,,2023-09-06_17h51.01.465,vbt_B2_day2,2022.2.4,Win32,60.0528465,55756,,,,,,,,,,,,,,,,,,,,,,,,,,,,,,,,,,,,,,,,,,feestdag,images/br_feestdag.png,images/cb_feestdag.png,,feestdag,,,,,,,,,,,0.20462963,-0.367592593,1,0,0,feestdag,0,32,32,17,1
,,,,,,,2023-09-06_17h51.01.465,vbt_B2_day2,2022.2.4,Win32,60.0528465,55756,,,,,,,,,,,,,,,,,,,,,,,,,,,,,,,,,,,,,,,,,,aanzien,images/br_aanzien.png,images/cb_aanzien.png,,aanzien,,,,,,,,,,,0.20462963,-0.367592593,1,0,0,aanzien,0,33,33,13,1
,,,,,,,2023-09-06_17h51.01.465,vbt_B2_day2,2022.2.4,Win32,60.0528465,55756,,,,,,,,,,,,,,,,,,,,,,,,,,,,,,,,,,,,,,,,,,zomers,images/br_zomers.png,images/cb_zomers.png,,zomers,,,,,,,,,,,0.20462963,-0.367592593,1,0,0,zomers,0,34,34,48,1
,,,,,,,2023-09-06_17h51.01.465,vbt_B2_day2,2022.2.4,Win32,60.0528465,55756,,,,,,,,,,,,,,,,,,,,,,,,,,,,,,,,,,,,,,,,,,prekken,images/br_prekken.png,images/cb_prekken.png,,prekken,,,,,,,,,,,0.20462963,-0.367592593,1,0,0,prekken,0,35,35,34,1
,,,,,,,2023-09-06_17h51.01.465,vbt_B2_day2,2022.2.4,Win32,60.0528465,55756,,,,,,,,,,,,,,,,,,,,,,,,,,,,,,,,,,,,,,,,,,ningen,images/br_ningen.png,images/cb_ningen.png,,ningen,,,,,,,,,,,0.20462963,-0.367592593,1,0,0,ningen,0,36,36,28,1
,,,,,,,2023-09-06_17h51.01.465,vbt_B2_day2,2022.2.4,Win32,60.0528465,55756,,,,,,,,,,,,,,,,,,,,,,,,,,,,,,,,,,,,,,,,,,badon,images/br_badon.png,images/cb_badon.png,,badon,,,,,,,,,,,0.20462963,-0.367592593,1,0,0,badon,0,37,37,26,1
,,,,,,,2023-09-06_17h51.01.465,vbt_B2_day2,2022.2.4,Win32,60.0528465,55756,,,,,,,,,,,,,,,,,,,,,,,,,,,,,,,,,,,,,,,,,,lurgen,images/br_lurgen.png,images/cb_lurgen.png,,lurgen,,,,,,,,,,,0.20462963,-0.367592593,1,0,0,lurgen,0,38,38,29,1
,,,,,,,2023-09-06_17h51.01.465,vbt_B2_day2,2022.2.4,Win32,60.0528465,55756,,,,,,,,,,,,,,,,,,,,,,,,,,,,,,,,,,,,,,,,,,sora,images/br_sora.png,images/cb_sora.png,,sora,,,,,,,,,,,0.20462963,-0.367592593,1,0,0,sora,0,39,39,22,1
,,,,,,,2023-09-06_17h51.01.465,vbt_B2_day2,2022.2.4,Win32,60.0528465,55756,,,,,,,,,,,,,,,,,,,,,,,,,,,,,,,,,,,,,,,,,,plannen,images/br_plannen.png,images/cb_plannen.png,,plannen,,,,,,,,,,,0.20462963,-0.367592593,1,0,0,plannen,0,40,40,55,1
,,,,,,,2023-09-06_17h51.01.465,vbt_B2_day2,2022.2.4,Win32,60.0528465,55756,,,,,,,,,,,,,,,,,,,,,,,,,,,,,,,,,,,,,,,,,,blad,images/br_blad.png,images/cb_blad.png,,blad,,,,,,,,,,,0.20462963,-0.367592593,0,1,0,blad,0,41,41,1,1
,,,,,,,2023-09-06_17h51.01.465,vbt_B2_day2,2022.2.4,Win32,60.0528465,55756,,,,,,,,,,,,,,,,,,,,,,,,,,,,,,,,,,,,,,,,,,sifferd,images/br_sifferd.png,images/cb_sifferd.png,,sidderd,,,,,,,,,,,0.20462963,-0.367592593,1,0,0,sidderd,0,42,42,32,1
,,,,,,,2023-09-06_17h51.01.465,vbt_B2_day2,2022.2.4,Win32,60.0528465,55756,,,,,,,,,,,,,,,,,,,,,,,,,,,,,,,,,,,,,,,,,,geld,images/br_geld.png,images/cb_geld.png,,geld,,,,,,,,,,,0.20462963,-0.367592593,1,0,0,geld,0,43,43,3,1
,,,,,,,2023-09-06_17h51.01.465,vbt_B2_day2,2022.2.4,Win32,60.0528465,55756,,,,,,,,,,,,,,,,,,,,,,,,,,,,,,,,,,,,,,,,,,inzicht,images/br_inzicht.png,images/cb_inzicht.png,,inzicht,,,,,,,,,,,0.20462963,-0.367592593,1,0,0,inzicht,0,44,44,53,1
,,,,,,,2023-09-06_17h51.01.465,vbt_B2_day2,2022.2.4,Win32,60.0528465,55756,,,,,,,,,,,,,,,,,,,,,,,,,,,,,,,,,,,,,,,,,,ophuimen,images/br_ophuimen.png,images/cb_ophuimen.png,,ophuimen,,,,,,,,,,,0.20462963,-0.367592593,1,0,0,ophuimen,0,45,45,36,1
,,,,,,,2023-09-06_17h51.01.465,vbt_B2_day2,2022.2.4,Win32,60.0528465,55756,,,,,,,,,,,,,,,,,,,,,,,,,,,,,,,,,,,,,,,,,,bloeien,images/br_bloeien.png,images/cb_bloeien.png,,bloeien,,,,,,,,,,,0.20462963,-0.367592593,1,0,0,bloeien,0,46,46,12,1
,,,,,,,2023-09-06_17h51.01.465,vbt_B2_day2,2022.2.4,Win32,60.0528465,55756,,,,,,,,,,,,,,,,,,,,,,,,,,,,,,,,,,,,,,,,,,diep,images/br_diep.png,images/cb_diep.png,,diep,,,,,,,,,,,0.20462963,-0.367592593,1,0,0,diep,0,47,47,2,1
,,,,,,,2023-09-06_17h51.01.465,vbt_B2_day2,2022.2.4,Win32,60.0528465,55756,,,,,,,,,,,,,,,,,,,,,,,,,,,,,,,,,,,,,,,,,,heilig,images/br_heilig.png,images/cb_heilig.png,,deilig,,,,,,,,,,,0.20462963,-0.367592593,1,0,0,deilig,0,48,48,9,1
,,,,,,,2023-09-06_17h51.01.465,vbt_B2_day2,2022.2.4,Win32,60.0528465,55756,,,,,,,,,,,,,,,,,,,,,,,,,,,,,,,,,,,,,,,,,,eenhoorn,images/br_eenhoorn.png,images/cb_eenhoorn.png,,eenhoorn,,,,,,,,,,,0.20462963,-0.367592593,1,0,0,eenhoorn,0,49,49,19,1
,,,,,,,2023-09-06_17h51.01.465,vbt_B2_day2,2022.2.4,Win32,60.0528465,55756,,,,,,,,,,,,,,,,,,,,,,,,,,,,,,,,,,,,,,,,,,doodmoe,images/br_doodmoe.png,images/cb_doodmoe.png,,doodmoe,,,,,,,,,,,0.20462963,-0.367592593,1,0,0,doodmoe,0,50,50,15,1
,,,,,,,2023-09-06_17h51.01.465,vbt_B2_day2,2022.2.4,Win32,60.0528465,55756,,,,,,,,,,,,,,,,,,,,,,,,,,,,,,,,,,,,,,,,,,anarchie,images/br_anarchie.png,images/cb_anarchie.png,,anarchie,,,,,,,,,,,0.20462963,-0.367592593,1,0,0,anarchie,0,51,51,16,1
,,,,,,,2023-09-06_17h51.01.465,vbt_B2_day2,2022.2.4,Win32,60.0528465,55756,,,,,,,,,,,,,,,,,,,,,,,,,,,,,,,,,,,,,,,,,,kabel,images/br_kabel.png,images/cb_kabel.png,,kabel,,,,,,,,,,,0.20462963,-0.367592593,1,0,0,kabel,0,52,52,7,1
,,,,,,,2023-09-06_17h51.01.465,vbt_B2_day2,2022.2.4,Win32,60.0528465,55756,,,,,,,,,,,,,,,,,,,,,,,,,,,,,,,,,,,,,,,,,,trots,images/br_trots.png,images/cb_trots.png,,trots,,,,,,,,,,,0.20462963,-0.367592593,1,0,0,trots,0,53,53,44,1
,,,,,,,2023-09-06_17h51.01.465,vbt_B2_day2,2022.2.4,Win32,60.0528465,55756,,,,,,,,,,,,,,,,,,,,,,,,,,,,,,,,,,,,,,,,,,woning,images/br_woning.png,images/cb_woning.png,,woning,,,,,,,,,,,0.203703704,-0.366666667,1,0,0,woning,0,54,54,10,1
,,,,,,,2023-09-06_17h51.01.465,vbt_B2_day2,2022.2.4,Win32,60.0528465,55756,,,,,,,,,,,,,,,,,,,,,,,,,,,,,,,,,,,,,,,,,,jong,images/br_jong.png,images/cb_jong.png,,jong,,,,,,,,,,,0.203703704,-0.366666667,1,0,0,jong,0,55,55,43,1
,,,,,,,2023-09-06_17h51.01.465,vbt_B2_day2,2022.2.4,Win32,60.0528465,55756,,,,,,,,,,,,,,,,,,,,,,,,,,,,,,,,,,,,,,,,,,tand,images/br_tand.png,images/cb_tand.png,,tand,,,,,,,,,,,0.203703704,-0.366666667,1,0,0,tand,0,56,56,42,1
,,,,,,,2023-09-06_17h51.01.465,vbt_B2_day2,2022.2.4,Win32,60.0528465,55756,,,,,,,,,,,,,,,,,,,,,,,,,,,,,,,,,,,,,,,,,,stes,images/br_stes.png,images/cb_stes.png,,stes,,,,,,,,,,,0.203703704,-0.366666667,1,0,0,stes,0,57,57,21,1
,,,,,,,2023-09-06_17h51.01.465,vbt_B2_day2,2022.2.4,Win32,60.0528465,55756,,,,,,,,,,,,,,,,,,,,,,,,,,,,,,,,,,,,,,,,,,toeval,images/br_toeval.png,images/cb_toeval.png,,toeval,,,,,,,,,,,0.203703704,-0.366666667,1,0,0,toeval,0,58,58,11,1
,,,,,,,2023-09-06_17h51.01.465,vbt_B2_day2,2022.2.4,Win32,60.0528465,55756,,,,,,,,,,,,,,,,,,,,,,,,,,,,,,,,,,,,,,,,,,koorts,images/br_koorts.png,images/cb_koorts.png,,koorts,,,,,,,,,,,0.203703704,-0.366666667,1,0,0,koorts,0,59,59,50,1
,,,,,,,2023-09-06_17h51.01.465,vbt_B2_day2,2022.2.4,Win32,60.0528465,55756,,,,,,,,,,,,,,,,,,,,,,,,,,,,,,,,,,,,,,,,,,,,,,,,,,,,,,,,,,,,,,,,,,,
