welcome_mouse.x,welcome_mouse.y,welcome_mouse.leftButton,welcome_mouse.midButton,welcome_mouse.rightButton,welcome_mouse.time,"ID",date,expName,psychopyVersion,OS,frameRate,refresh_mouse.x,refresh_mouse.y,refresh_mouse.leftButton,refresh_mouse.midButton,refresh_mouse.rightButton,refresh_mouse.time,braille_mouse.x,braille_mouse.y,braille_mouse.leftButton,braille_mouse.midButton,braille_mouse.rightButton,braille_mouse.time,trials.thisRepN,trials.thisTrialN,trials.thisN,trials.thisIndex,trials.ran,nlLet,brLet,cbLet,trainInstr_mouse.x,trainInstr_mouse.y,trainInstr_mouse.leftButton,trainInstr_mouse.midButton,trainInstr_mouse.rightButton,trainInstr_mouse.time,translation_key.keys,translation_key.corr,translation_key.rt,word_rsp.text,word_mouse.x,word_mouse.y,word_mouse.leftButton,word_mouse.midButton,word_mouse.rightButton,word_mouse.time,train_loop.thisRepN,train_loop.thisTrialN,train_loop.thisN,train_loop.thisIndex,train_loop.ran,nlWrd,brWrd,cbWrd,test,testResp,mouse.x,mouse.y,mouse.leftButton,mouse.midButton,mouse.rightButton,testInstr_mouse.x,testInstr_mouse.y,testInstr_mouse.leftButton,testInstr_mouse.midButton,testInstr_mouse.rightButton,test_mouse.x,test_mouse.y,test_mouse.leftButton,test_mouse.midButton,test_mouse.rightButton,test_response.text,test_loop.thisRepN,test_loop.thisTrialN,test_loop.thisN,test_loop.thisIndex,test_loop.ran
-0.041666667,-0.110416667,1,0,0,6.1508,,2023-10-12_19h15.12.760,vbt_B2_day2,2022.2.4,Win32,143.9884809,,,,,,,,,,,,,,,,,,,,,,,,,,,,,,,,,,,,,,,,,,,,,,,,,,,,,,,,,,,,,,,,,,,
,,,,,,,2023-10-12_19h15.12.760,vbt_B2_day2,2022.2.4,Win32,143.9884809,-0.247916667,-0.04375,1,0,0,5.9365,,,,,,,,,,,,,,,,,,,,,,,,,,,,,,,,,,,,,,,,,,,,,,,,,,,,,,,,,,,,,
,,,,,,,2023-10-12_19h15.12.760,vbt_B2_day2,2022.2.4,Win32,143.9884809,,,,,,,0.075,-0.049305556,1,0,0,0.5696,0,0,0,23,1,x,images/br_x.png,images/cb_x.png,,,,,,,,,,,,,,,,,,,,,,,,,,,,,,,,,,,,,,,,,,,,,,,
,,,,,,,2023-10-12_19h15.12.760,vbt_B2_day2,2022.2.4,Win32,143.9884809,,,,,,,0.139583333,-0.047222222,1,0,0,0.2431,0,1,1,12,1,m,images/br_m.png,images/cb_m.png,,,,,,,,,,,,,,,,,,,,,,,,,,,,,,,,,,,,,,,,,,,,,,,
,,,,,,,2023-10-12_19h15.12.760,vbt_B2_day2,2022.2.4,Win32,143.9884809,,,,,,,0.139583333,-0.047222222,1,0,0,0.8267,0,2,2,10,1,k,images/br_k.png,images/cb_k.png,,,,,,,,,,,,,,,,,,,,,,,,,,,,,,,,,,,,,,,,,,,,,,,
,,,,,,,2023-10-12_19h15.12.760,vbt_B2_day2,2022.2.4,Win32,143.9884809,,,,,,,0.139583333,-0.047222222,1,0,0,0.389,0,3,3,21,1,v,images/br_v.png,images/cb_v.png,,,,,,,,,,,,,,,,,,,,,,,,,,,,,,,,,,,,,,,,,,,,,,,
,,,,,,,2023-10-12_19h15.12.760,vbt_B2_day2,2022.2.4,Win32,143.9884809,,,,,,,0.139583333,-0.047222222,1,0,0,0.7987,0,4,4,9,1,j,images/br_j.png,images/cb_j.png,,,,,,,,,,,,,,,,,,,,,,,,,,,,,,,,,,,,,,,,,,,,,,,
,,,,,,,2023-10-12_19h15.12.760,vbt_B2_day2,2022.2.4,Win32,143.9884809,,,,,,,0.139583333,-0.047222222,1,0,0,0.1459,0,5,5,20,1,u,images/br_u.png,images/cb_u.png,,,,,,,,,,,,,,,,,,,,,,,,,,,,,,,,,,,,,,,,,,,,,,,
,,,,,,,2023-10-12_19h15.12.760,vbt_B2_day2,2022.2.4,Win32,143.9884809,,,,,,,0.139583333,-0.047222222,1,0,0,0.2778,0,6,6,14,1,o,images/br_o.png,images/cb_o.png,,,,,,,,,,,,,,,,,,,,,,,,,,,,,,,,,,,,,,,,,,,,,,,
,,,,,,,2023-10-12_19h15.12.760,vbt_B2_day2,2022.2.4,Win32,143.9884809,,,,,,,0.139583333,-0.047222222,1,0,0,0.1043,0,7,7,13,1,n,images/br_n.png,images/cb_n.png,,,,,,,,,,,,,,,,,,,,,,,,,,,,,,,,,,,,,,,,,,,,,,,
,,,,,,,2023-10-12_19h15.12.760,vbt_B2_day2,2022.2.4,Win32,143.9884809,,,,,,,0.139583333,-0.047222222,1,0,0,0.2154,0,8,8,22,1,w,images/br_w.png,images/cb_w.png,,,,,,,,,,,,,,,,,,,,,,,,,,,,,,,,,,,,,,,,,,,,,,,
,,,,,,,2023-10-12_19h15.12.760,vbt_B2_day2,2022.2.4,Win32,143.9884809,,,,,,,0.286111111,-0.0375,1,0,0,0.1185,0,9,9,0,1,a,images/br_a.png,images/cb_a.png,,,,,,,,,,,,,,,,,,,,,,,,,,,,,,,,,,,,,,,,,,,,,,,
,,,,,,,2023-10-12_19h15.12.760,vbt_B2_day2,2022.2.4,Win32,143.9884809,,,,,,,0.286111111,-0.0375,1,0,0,0.0626,0,10,10,4,1,e,images/br_e.png,images/cb_e.png,,,,,,,,,,,,,,,,,,,,,,,,,,,,,,,,,,,,,,,,,,,,,,,
,,,,,,,2023-10-12_19h15.12.760,vbt_B2_day2,2022.2.4,Win32,143.9884809,,,,,,,0.293055556,-0.034722222,1,0,0,0.1875,0,11,11,17,1,r,images/br_r.png,images/cb_r.png,,,,,,,,,,,,,,,,,,,,,,,,,,,,,,,,,,,,,,,,,,,,,,,
,,,,,,,2023-10-12_19h15.12.760,vbt_B2_day2,2022.2.4,Win32,143.9884809,,,,,,,0.293055556,-0.034722222,1,0,0,0.2084,0,12,12,15,1,p,images/br_p.png,images/cb_p.png,,,,,,,,,,,,,,,,,,,,,,,,,,,,,,,,,,,,,,,,,,,,,,,
,,,,,,,2023-10-12_19h15.12.760,vbt_B2_day2,2022.2.4,Win32,143.9884809,,,,,,,0.293055556,-0.034722222,1,0,0,1.3057,0,13,13,16,1,q,images/br_q.png,images/cb_q.png,,,,,,,,,,,,,,,,,,,,,,,,,,,,,,,,,,,,,,,,,,,,,,,
,,,,,,,2023-10-12_19h15.12.760,vbt_B2_day2,2022.2.4,Win32,143.9884809,,,,,,,0.297916667,-0.044444444,1,0,0,0.4029,0,14,14,8,1,i,images/br_i.png,images/cb_i.png,,,,,,,,,,,,,,,,,,,,,,,,,,,,,,,,,,,,,,,,,,,,,,,
,,,,,,,2023-10-12_19h15.12.760,vbt_B2_day2,2022.2.4,Win32,143.9884809,,,,,,,0.297916667,-0.044444444,1,0,0,0.0139,0,15,15,2,1,c,images/br_c.png,images/cb_c.png,,,,,,,,,,,,,,,,,,,,,,,,,,,,,,,,,,,,,,,,,,,,,,,
,,,,,,,2023-10-12_19h15.12.760,vbt_B2_day2,2022.2.4,Win32,143.9884809,,,,,,,0.298611111,-0.044444444,1,0,0,0.0626,0,16,16,24,1,y,images/br_y.png,images/cb_y.png,,,,,,,,,,,,,,,,,,,,,,,,,,,,,,,,,,,,,,,,,,,,,,,
,,,,,,,2023-10-12_19h15.12.760,vbt_B2_day2,2022.2.4,Win32,143.9884809,,,,,,,0.297222222,-0.039583333,1,0,0,0.0626,0,17,17,6,1,g,images/br_g.png,images/cb_g.png,,,,,,,,,,,,,,,,,,,,,,,,,,,,,,,,,,,,,,,,,,,,,,,
,,,,,,,2023-10-12_19h15.12.760,vbt_B2_day2,2022.2.4,Win32,143.9884809,,,,,,,0.311805556,-0.060416667,1,0,0,0.3889,0,18,18,25,1,z,images/br_z.png,images/cb_z.png,,,,,,,,,,,,,,,,,,,,,,,,,,,,,,,,,,,,,,,,,,,,,,,
,,,,,,,2023-10-12_19h15.12.760,vbt_B2_day2,2022.2.4,Win32,143.9884809,,,,,,,0.311805556,-0.060416667,1,0,0,2.9311,0,19,19,11,1,l,images/br_l.png,images/cb_l.png,,,,,,,,,,,,,,,,,,,,,,,,,,,,,,,,,,,,,,,,,,,,,,,
,,,,,,,2023-10-12_19h15.12.760,vbt_B2_day2,2022.2.4,Win32,143.9884809,,,,,,,0.311805556,-0.050694444,1,0,0,0.4376,0,20,20,18,1,s,images/br_s.png,images/cb_s.png,,,,,,,,,,,,,,,,,,,,,,,,,,,,,,,,,,,,,,,,,,,,,,,
,,,,,,,2023-10-12_19h15.12.760,vbt_B2_day2,2022.2.4,Win32,143.9884809,,,,,,,0.311805556,-0.050694444,1,0,0,0.4237,0,21,21,7,1,h,images/br_h.png,images/cb_h.png,,,,,,,,,,,,,,,,,,,,,,,,,,,,,,,,,,,,,,,,,,,,,,,
,,,,,,,2023-10-12_19h15.12.760,vbt_B2_day2,2022.2.4,Win32,143.9884809,,,,,,,0.3125,-0.05,1,0,0,0.3543,0,22,22,3,1,d,images/br_d.png,images/cb_d.png,,,,,,,,,,,,,,,,,,,,,,,,,,,,,,,,,,,,,,,,,,,,,,,
,,,,,,,2023-10-12_19h15.12.760,vbt_B2_day2,2022.2.4,Win32,143.9884809,,,,,,,0.3125,-0.05,1,0,0,0.1529,0,23,23,19,1,t,images/br_t.png,images/cb_t.png,,,,,,,,,,,,,,,,,,,,,,,,,,,,,,,,,,,,,,,,,,,,,,,
,,,,,,,2023-10-12_19h15.12.760,vbt_B2_day2,2022.2.4,Win32,143.9884809,,,,,,,0.3125,-0.05,1,0,0,0.0279,0,24,24,1,1,b,images/br_b.png,images/cb_b.png,,,,,,,,,,,,,,,,,,,,,,,,,,,,,,,,,,,,,,,,,,,,,,,
,,,,,,,2023-10-12_19h15.12.760,vbt_B2_day2,2022.2.4,Win32,143.9884809,,,,,,,0.3125,-0.05,1,0,0,6.7303,0,25,25,5,1,f,images/br_f.png,images/cb_f.png,,,,,,,,,,,,,,,,,,,,,,,,,,,,,,,,,,,,,,,,,,,,,,,
,,,,,,,2023-10-12_19h15.12.760,vbt_B2_day2,2022.2.4,Win32,143.9884809,,,,,,,,,,,,,,,,,,,,,0.322222222,-0.023611111,1,0,0,29.8313,,,,,,,,,,,,,,,,,,,,,,,,,,,,,,,,,,,,,,,,,
,,,,,,,2023-10-12_19h15.12.760,vbt_B2_day2,2022.2.4,Win32,143.9884809,,,,,,,,,,,,,,,,,,,,,,,,,,,down,0,11.0379,,0.360416667,-0.015277778,1,0,0,2.1361,0,0,0,154,1,aflopen,images/br_aflopen.png,images/cb_aflopen.png,0,,,,,,,,,,,,,,,,,,,,,,
,,,,,,,2023-10-12_19h15.12.760,vbt_B2_day2,2022.2.4,Win32,143.9884809,,,,,,,,,,,,,,,,,,,,,,,,,,,down,0,21.1401,,0.328472222,-0.18125,1,0,0,2.3199,0,1,1,179,1,woestijn,images/br_woestijn.png,images/cb_woestijn.png,1,woestijn,,,,,,,,,,,,,,,,,,,,,
,,,,,,,2023-10-12_19h15.12.760,vbt_B2_day2,2022.2.4,Win32,143.9884809,,,,,,,,,,,,,,,,,,,,,,,,,,,down,0,8.7489,,0.328472222,-0.18125,1,0,0,5.1536,0,2,2,165,1,feestdag,images/br_feestdag.png,images/cb_feestdag.png,0,,,,,,,,,,,,,,,,,,,,,,
,,,,,,,2023-10-12_19h15.12.760,vbt_B2_day2,2022.2.4,Win32,143.9884809,,,,,,,,,,,,,,,,,,,,,,,,,,,down,0,9.7373,,0.328472222,-0.18125,1,0,0,2.4518,0,3,3,80,1,kanjer,images/br_kanjer.png,images/cb_kanjer.png,0,,,,,,,,,,,,,,,,,,,,,,
,,,,,,,2023-10-12_19h15.12.760,vbt_B2_day2,2022.2.4,Win32,143.9884809,,,,,,,,,,,,,,,,,,,,,,,,,,,down,0,6.6132,,0.328472222,-0.18125,1,0,0,0.9724,0,4,4,76,1,afval,images/br_afval.png,images/cb_afval.png,0,,,,,,,,,,,,,,,,,,,,,,
,,,,,,,2023-10-12_19h15.12.760,vbt_B2_day2,2022.2.4,Win32,143.9884809,,,,,,,,,,,,,,,,,,,,,,,,,,,down,0,3.3209,,0.481944444,-0.238194444,1,0,0,0.7155,0,5,5,44,1,flits,images/br_flits.png,images/cb_flits.png,0,,,,,,,,,,,,,,,,,,,,,,
,,,,,,,2023-10-12_19h15.12.760,vbt_B2_day2,2022.2.4,Win32,143.9884809,,,,,,,,,,,,,,,,,,,,,,,,,,,down,0,12.1557,,0.486805556,-0.186805556,1,0,0,1.0974,0,6,6,105,1,wijlen,images/br_wijlen.png,images/cb_wijlen.png,0,,,,,,,,,,,,,,,,,,,,,,
,,,,,,,2023-10-12_19h15.12.760,vbt_B2_day2,2022.2.4,Win32,143.9884809,,,,,,,,,,,,,,,,,,,,,,,,,,,down,0,5.2681,,0.486805556,-0.186805556,1,0,0,0.8057,0,7,7,77,1,woede,images/br_woede.png,images/cb_woede.png,0,,,,,,,,,,,,,,,,,,,,,,
,,,,,,,2023-10-12_19h15.12.760,vbt_B2_day2,2022.2.4,Win32,143.9884809,,,,,,,,,,,,,,,,,,,,,,,,,,,down,0,8.3336,,0.486805556,-0.186805556,1,0,0,1.0141,0,8,8,155,1,gerucht,images/br_gerucht.png,images/cb_gerucht.png,0,,,,,,,,,,,,,,,,,,,,,,
,,,,,,,2023-10-12_19h15.12.760,vbt_B2_day2,2022.2.4,Win32,143.9884809,,,,,,,,,,,,,,,,,,,,,,,,,,,down,0,3.573,,0.486805556,-0.186805556,1,0,0,1.3196,0,9,9,109,1,totaal,images/br_totaal.png,images/cb_totaal.png,0,,,,,,,,,,,,,,,,,,,,,,
,,,,,,,2023-10-12_19h15.12.760,vbt_B2_day2,2022.2.4,Win32,143.9884809,,,,,,,,,,,,,,,,,,,,,,,,,,,down,0,4.5159,,0.486805556,-0.186805556,1,0,0,1.2781,0,10,10,120,1,klimmen,images/br_klimmen.png,images/cb_klimmen.png,0,,,,,,,,,,,,,,,,,,,,,,
,,,,,,,2023-10-12_19h15.12.760,vbt_B2_day2,2022.2.4,Win32,143.9884809,,,,,,,,,,,,,,,,,,,,,,,,,,,down,0,4.7676,,0.486805556,-0.186805556,1,0,0,0.9585,0,11,11,99,1,koffie,images/br_koffie.png,images/cb_koffie.png,1,koffie,,,,,,,,,,,,,,,,,,,,,
,,,,,,,2023-10-12_19h15.12.760,vbt_B2_day2,2022.2.4,Win32,143.9884809,,,,,,,,,,,,,,,,,,,,,,,,,,,down,0,4.8159,,0.486805556,-0.186805556,1,0,0,1.0071,0,12,12,66,1,lever,images/br_lever.png,images/cb_lever.png,0,,,,,,,,,,,,,,,,,,,,,,
,,,,,,,2023-10-12_19h15.12.760,vbt_B2_day2,2022.2.4,Win32,143.9884809,,,,,,,,,,,,,,,,,,,,,,,,,,,down,0,13.1766,,0.486805556,-0.186805556,1,0,0,1.4378,0,13,13,136,1,waarbij,images/br_waarbij.png,images/cb_waarbij.png,1,waarbij,,,,,,,,,,,,,,,,,,,,,
,,,,,,,2023-10-12_19h15.12.760,vbt_B2_day2,2022.2.4,Win32,143.9884809,,,,,,,,,,,,,,,,,,,,,,,,,,,down,0,6.8729,,0.486805556,-0.186805556,1,0,0,0.4167,0,14,14,190,1,goedkoop,images/br_goedkoop.png,images/cb_goedkoop.png,0,,,,,,,,,,,,,,,,,,,,,,
,,,,,,,2023-10-12_19h15.12.760,vbt_B2_day2,2022.2.4,Win32,143.9884809,,,,,,,,,,,,,,,,,,,,,,,,,,,down,0,5.9946,,0.486805556,-0.186805556,1,0,0,2.167,0,15,15,107,1,maling,images/br_maling.png,images/cb_maling.png,0,,,,,,,,,,,,,,,,,,,,,,
,,,,,,,2023-10-12_19h15.12.760,vbt_B2_day2,2022.2.4,Win32,143.9884809,,,,,,,,,,,,,,,,,,,,,,,,,,,down,0,3.2329,,0.486805556,-0.186805556,1,0,0,0.3403,0,16,16,95,1,vreten,images/br_vreten.png,images/cb_vreten.png,0,,,,,,,,,,,,,,,,,,,,,,
,,,,,,,2023-10-12_19h15.12.760,vbt_B2_day2,2022.2.4,Win32,143.9884809,,,,,,,,,,,,,,,,,,,,,,,,,,,down,0,6.8487,,0.486805556,-0.186805556,1,0,0,0.5209,0,17,17,171,1,aarzelen,images/br_aarzelen.png,images/cb_aarzelen.png,0,,,,,,,,,,,,,,,,,,,,,,
,,,,,,,2023-10-12_19h15.12.760,vbt_B2_day2,2022.2.4,Win32,143.9884809,,,,,,,,,,,,,,,,,,,,,,,,,,,down,0,8.9199,,0.438888889,-0.127777778,1,0,0,2.7782,0,18,18,79,1,nodig,images/br_nodig.png,images/cb_nodig.png,0,,,,,,,,,,,,,,,,,,,,,,
,,,,,,,2023-10-12_19h15.12.760,vbt_B2_day2,2022.2.4,Win32,143.9884809,,,,,,,,,,,,,,,,,,,,,,,,,,,down,0,9.1479,,0.388194444,-0.098611111,1,0,0,0.5765,0,19,19,91,1,gezond,images/br_gezond.png,images/cb_gezond.png,0,,,,,,,,,,,,,,,,,,,,,,
,,,,,,,2023-10-12_19h15.12.760,vbt_B2_day2,2022.2.4,Win32,143.9884809,,,,,,,,,,,,,,,,,,,,,,,,,,,down,0,8.211,,0.389583333,-0.098611111,1,0,0,0.8473,0,20,20,191,1,opheffen,images/br_opheffen.png,images/cb_opheffen.png,0,,,,,,,,,,,,,,,,,,,,,,
,,,,,,,2023-10-12_19h15.12.760,vbt_B2_day2,2022.2.4,Win32,143.9884809,,,,,,,,,,,,,,,,,,,,,,,,,,,down,0,5.0261,,0.389583333,-0.098611111,1,0,0,0.5001,0,21,21,143,1,hechten,images/br_hechten.png,images/cb_hechten.png,0,,,,,,,,,,,,,,,,,,,,,,
,,,,,,,2023-10-12_19h15.12.760,vbt_B2_day2,2022.2.4,Win32,143.9884809,,,,,,,,,,,,,,,,,,,,,,,,,,,down,0,7.4617,,0.369444444,-0.080555556,1,0,0,0.5626,0,22,22,139,1,stiekem,images/br_stiekem.png,images/cb_stiekem.png,1,stiekem,,,,,,,,,,,,,,,,,,,,,
,,,,,,,2023-10-12_19h15.12.760,vbt_B2_day2,2022.2.4,Win32,143.9884809,,,,,,,,,,,,,,,,,,,,,,,,,,,down,0,6.8315,,0.369444444,-0.080555556,1,0,0,2.7783,0,23,23,132,1,grappen,images/br_grappen.png,images/cb_grappen.png,0,,,,,,,,,,,,,,,,,,,,,,
,,,,,,,2023-10-12_19h15.12.760,vbt_B2_day2,2022.2.4,Win32,143.9884809,,,,,,,,,,,,,,,,,,,,,,,,,,,down,0,6.5639,,0.369444444,-0.080555556,1,0,0,0.4028,0,24,24,71,1,bever,images/br_bever.png,images/cb_bever.png,0,,,,,,,,,,,,,,,,,,,,,,
,,,,,,,2023-10-12_19h15.12.760,vbt_B2_day2,2022.2.4,Win32,143.9884809,,,,,,,,,,,,,,,,,,,,,,,,,,,down,0,8.8542,,0.369444444,-0.080555556,1,0,0,0.4167,0,25,25,162,1,uitdelen,images/br_uitdelen.png,images/cb_uitdelen.png,0,,,,,,,,,,,,,,,,,,,,,,
,,,,,,,2023-10-12_19h15.12.760,vbt_B2_day2,2022.2.4,Win32,143.9884809,,,,,,,,,,,,,,,,,,,,,,,,,,,down,0,1.2574,,0.369444444,-0.080555556,1,0,0,0.3612,0,26,26,7,1,geld,images/br_geld.png,images/cb_geld.png,0,,,,,,,,,,,,,,,,,,,,,,
,,,,,,,2023-10-12_19h15.12.760,vbt_B2_day2,2022.2.4,Win32,143.9884809,,,,,,,,,,,,,,,,,,,,,,,,,,,down,0,1.4921,,0.369444444,-0.080555556,1,0,0,0.3126,0,27,27,27,1,dans,images/br_dans.png,images/cb_dans.png,0,,,,,,,,,,,,,,,,,,,,,,
,,,,,,,2023-10-12_19h15.12.760,vbt_B2_day2,2022.2.4,Win32,143.9884809,,,,,,,,,,,,,,,,,,,,,,,,,,,down,0,2.8799,,0.369444444,-0.080555556,1,0,0,0.4237,0,28,28,4,1,moes,images/br_moes.png,images/cb_moes.png,0,,,,,,,,,,,,,,,,,,,,,,
,,,,,,,2023-10-12_19h15.12.760,vbt_B2_day2,2022.2.4,Win32,143.9884809,,,,,,,,,,,,,,,,,,,,,,,,,,,down,0,3.588,,0.369444444,-0.080555556,1,0,0,0.4098,0,29,29,141,1,knielen,images/br_knielen.png,images/cb_knielen.png,0,,,,,,,,,,,,,,,,,,,,,,
,,,,,,,2023-10-12_19h15.12.760,vbt_B2_day2,2022.2.4,Win32,143.9884809,,,,,,,,,,,,,,,,,,,,,,,,,,,down,0,6.7381,,0.369444444,-0.080555556,1,0,0,0.8057,0,30,30,64,1,wegen,images/br_wegen.png,images/cb_wegen.png,0,,,,,,,,,,,,,,,,,,,,,,
,,,,,,,2023-10-12_19h15.12.760,vbt_B2_day2,2022.2.4,Win32,143.9884809,,,,,,,,,,,,,,,,,,,,,,,,,,,down,0,6.0161,,0.369444444,-0.080555556,1,0,0,0.896,0,31,31,178,1,huisdier,images/br_huisdier.png,images/cb_huisdier.png,1,huisdier,,,,,,,,,,,,,,,,,,,,,
,,,,,,,2023-10-12_19h15.12.760,vbt_B2_day2,2022.2.4,Win32,143.9884809,,,,,,,,,,,,,,,,,,,,,,,,,,,down,0,7.1752,,0.369444444,-0.080555556,1,0,0,0.4931,0,32,32,189,1,aanraden,images/br_aanraden.png,images/cb_aanraden.png,0,,,,,,,,,,,,,,,,,,,,,,
,,,,,,,2023-10-12_19h15.12.760,vbt_B2_day2,2022.2.4,Win32,143.9884809,,,,,,,,,,,,,,,,,,,,,,,,,,,down,0,5.3789,,0.369444444,-0.080555556,1,0,0,0.3681,0,33,33,167,1,eenhoorn,images/br_eenhoorn.png,images/cb_eenhoorn.png,0,,,,,,,,,,,,,,,,,,,,,,
,,,,,,,2023-10-12_19h15.12.760,vbt_B2_day2,2022.2.4,Win32,143.9884809,,,,,,,,,,,,,,,,,,,,,,,,,,,down,0,3.6028,,0.369444444,-0.080555556,1,0,0,0.9516,0,34,34,57,1,steek,images/br_steek.png,images/cb_steek.png,1,steek,,,,,,,,,,,,,,,,,,,,,
,,,,,,,2023-10-12_19h15.12.760,vbt_B2_day2,2022.2.4,Win32,143.9884809,,,,,,,,,,,,,,,,,,,,,,,,,,,down,0,3.7577,,0.369444444,-0.080555556,1,0,0,0.8336,0,35,35,50,1,stoom,images/br_stoom.png,images/cb_stoom.png,0,,,,,,,,,,,,,,,,,,,,,,
,,,,,,,2023-10-12_19h15.12.760,vbt_B2_day2,2022.2.4,Win32,143.9884809,,,,,,,,,,,,,,,,,,,,,,,,,,,down,0,2.5181,,0.369444444,-0.080555556,1,0,0,0.4793,0,36,36,6,1,diep,images/br_diep.png,images/cb_diep.png,0,,,,,,,,,,,,,,,,,,,,,,
,,,,,,,2023-10-12_19h15.12.760,vbt_B2_day2,2022.2.4,Win32,143.9884809,,,,,,,,,,,,,,,,,,,,,,,,,,,down,0,2.598,,0.369444444,-0.080555556,1,0,0,1.0905,0,37,37,96,1,slagen,images/br_slagen.png,images/cb_slagen.png,1,slagen,,,,,,,,,,,,,,,,,,,,,
,,,,,,,2023-10-12_19h15.12.760,vbt_B2_day2,2022.2.4,Win32,143.9884809,,,,,,,,,,,,,,,,,,,,,,,,,,,down,0,5.0923,,0.369444444,-0.080555556,1,0,0,1.0418,0,38,38,56,1,traag,images/br_traag.png,images/cb_traag.png,1,traag,,,,,,,,,,,,,,,,,,,,,
,,,,,,,2023-10-12_19h15.12.760,vbt_B2_day2,2022.2.4,Win32,143.9884809,,,,,,,,,,,,,,,,,,,,,,,,,,,down,0,7.9115,,0.369444444,-0.080555556,1,0,0,0.3612,0,39,39,197,1,spanning,images/br_spanning.png,images/cb_spanning.png,0,,,,,,,,,,,,,,,,,,,,,,
,,,,,,,2023-10-12_19h15.12.760,vbt_B2_day2,2022.2.4,Win32,143.9884809,,,,,,,,,,,,,,,,,,,,,,,,,,,down,0,4.0061,,0.369444444,-0.080555556,1,0,0,0.9863,0,40,40,17,1,taal,images/br_taal.png,images/cb_taal.png,1,taal,,,,,,,,,,,,,,,,,,,,,
,,,,,,,2023-10-12_19h15.12.760,vbt_B2_day2,2022.2.4,Win32,143.9884809,,,,,,,,,,,,,,,,,,,,,,,,,,,down,0,13.734,,0.369444444,-0.080555556,1,0,0,0.4307,0,41,41,13,1,kaal,images/br_kaal.png,images/cb_kaal.png,0,,,,,,,,,,,,,,,,,,,,,,
,,,,,,,2023-10-12_19h15.12.760,vbt_B2_day2,2022.2.4,Win32,143.9884809,,,,,,,,,,,,,,,,,,,,,,,,,,,down,0,2.33,,0.369444444,-0.080555556,1,0,0,0.3755,0,42,42,25,1,plek,images/br_plek.png,images/cb_plek.png,0,,,,,,,,,,,,,,,,,,,,,,
,,,,,,,2023-10-12_19h15.12.760,vbt_B2_day2,2022.2.4,Win32,143.9884809,,,,,,,,,,,,,,,,,,,,,,,,,,,down,0,6.1604,,0.369444444,-0.080555556,1,0,0,0.789,0,43,43,108,1,excuus,images/br_excuus.png,images/cb_excuus.png,0,,,,,,,,,,,,,,,,,,,,,,
,,,,,,,2023-10-12_19h15.12.760,vbt_B2_day2,2022.2.4,Win32,143.9884809,,,,,,,,,,,,,,,,,,,,,,,,,,,down,0,0.737,,0.369444444,-0.080555556,1,0,0,0.7084,0,44,44,35,1,lust,images/br_lust.png,images/cb_lust.png,0,,,,,,,,,,,,,,,,,,,,,,
,,,,,,,2023-10-12_19h15.12.760,vbt_B2_day2,2022.2.4,Win32,143.9884809,,,,,,,,,,,,,,,,,,,,,,,,,,,down,0,1.9888,,0.369444444,-0.080555556,1,0,0,0.5418,0,45,45,78,1,leren,images/br_leren.png,images/cb_leren.png,0,,,,,,,,,,,,,,,,,,,,,,
,,,,,,,2023-10-12_19h15.12.760,vbt_B2_day2,2022.2.4,Win32,143.9884809,,,,,,,,,,,,,,,,,,,,,,,,,,,down,0,3.8595,,0.369444444,-0.080555556,1,0,0,0.5627,0,46,46,175,1,heengaan,images/br_heengaan.png,images/cb_heengaan.png,0,,,,,,,,,,,,,,,,,,,,,,
,,,,,,,2023-10-12_19h15.12.760,vbt_B2_day2,2022.2.4,Win32,143.9884809,,,,,,,,,,,,,,,,,,,,,,,,,,,down,0,1.9124,,0.369444444,-0.080555556,1,0,0,0.7988,0,47,47,144,1,eetlust,images/br_eetlust.png,images/cb_eetlust.png,0,,,,,,,,,,,,,,,,,,,,,,
,,,,,,,2023-10-12_19h15.12.760,vbt_B2_day2,2022.2.4,Win32,143.9884809,,,,,,,,,,,,,,,,,,,,,,,,,,,down,0,6.3094,,0.369444444,-0.080555556,1,0,0,0.7014,0,48,48,65,1,parel,images/br_parel.png,images/cb_parel.png,0,,,,,,,,,,,,,,,,,,,,,,
,,,,,,,2023-10-12_19h15.12.760,vbt_B2_day2,2022.2.4,Win32,143.9884809,,,,,,,,,,,,,,,,,,,,,,,,,,,down,0,3.4737,,0.369444444,-0.080555556,1,0,0,0.4514,0,49,49,42,1,bleek,images/br_bleek.png,images/cb_bleek.png,0,,,,,,,,,,,,,,,,,,,,,,
,,,,,,,2023-10-12_19h15.12.760,vbt_B2_day2,2022.2.4,Win32,143.9884809,,,,,,,,,,,,,,,,,,,,,,,,,,,down,0,3.4737,,0.369444444,-0.080555556,1,0,0,0.5347,0,50,50,93,1,waarop,images/br_waarop.png,images/cb_waarop.png,0,,,,,,,,,,,,,,,,,,,,,,
,,,,,,,2023-10-12_19h15.12.760,vbt_B2_day2,2022.2.4,Win32,143.9884809,,,,,,,,,,,,,,,,,,,,,,,,,,,down,0,8.1521,,0.371527778,-0.070833333,1,0,0,0.3473,0,51,51,149,1,redding,images/br_redding.png,images/cb_redding.png,0,,,,,,,,,,,,,,,,,,,,,,
,,,,,,,2023-10-12_19h15.12.760,vbt_B2_day2,2022.2.4,Win32,143.9884809,,,,,,,,,,,,,,,,,,,,,,,,,,,down,0,10.6823,,0.371527778,-0.070833333,1,0,0,0.6529,0,52,52,119,1,liefje,images/br_liefje.png,images/cb_liefje.png,0,,,,,,,,,,,,,,,,,,,,,,
,,,,,,,2023-10-12_19h15.12.760,vbt_B2_day2,2022.2.4,Win32,143.9884809,,,,,,,,,,,,,,,,,,,,,,,,,,,down,0,9.1412,,0.371527778,-0.070833333,1,0,0,0.8334,0,53,53,100,1,geduld,images/br_geduld.png,images/cb_geduld.png,0,,,,,,,,,,,,,,,,,,,,,,
,,,,,,,2023-10-12_19h15.12.760,vbt_B2_day2,2022.2.4,Win32,143.9884809,,,,,,,,,,,,,,,,,,,,,,,,,,,down,0,5.7803,,0.372916667,-0.067361111,1,0,0,0.507,0,54,54,128,1,prikken,images/br_prikken.png,images/cb_prikken.png,0,,,,,,,,,,,,,,,,,,,,,,
,,,,,,,2023-10-12_19h15.12.760,vbt_B2_day2,2022.2.4,Win32,143.9884809,,,,,,,,,,,,,,,,,,,,,,,,,,,down,0,7.7689,,0.297222222,-0.027777778,1,0,0,0.4654,0,55,55,187,1,opkijken,images/br_opkijken.png,images/cb_opkijken.png,0,,,,,,,,,,,,,,,,,,,,,,
,,,,,,,2023-10-12_19h15.12.760,vbt_B2_day2,2022.2.4,Win32,143.9884809,,,,,,,,,,,,,,,,,,,,,,,,,,,down,0,25.7989,,0.270138889,0.030555556,1,0,0,3.3339,0,56,56,111,1,ticket,images/br_ticket.png,images/cb_ticket.png,0,,,,,,,,,,,,,,,,,,,,,,
,,,,,,,2023-10-12_19h15.12.760,vbt_B2_day2,2022.2.4,Win32,143.9884809,,,,,,,,,,,,,,,,,,,,,,,,,,,down,0,9.046,,0.321527778,0.054861111,1,0,0,0.3681,0,57,57,199,1,beseffen,images/br_beseffen.png,images/cb_beseffen.png,0,,,,,,,,,,,,,,,,,,,,,,
,,,,,,,2023-10-12_19h15.12.760,vbt_B2_day2,2022.2.4,Win32,143.9884809,,,,,,,,,,,,,,,,,,,,,,,,,,,down,0,4.464,,0.321527778,0.054861111,1,0,0,0.4514,0,58,58,127,1,doodmoe,images/br_doodmoe.png,images/cb_doodmoe.png,0,,,,,,,,,,,,,,,,,,,,,,
,,,,,,,2023-10-12_19h15.12.760,vbt_B2_day2,2022.2.4,Win32,143.9884809,,,,,,,,,,,,,,,,,,,,,,,,,,,down,0,8.6129,,0.321527778,0.054861111,1,0,0,0.5487,0,59,59,182,1,bijkomen,images/br_bijkomen.png,images/cb_bijkomen.png,0,,,,,,,,,,,,,,,,,,,,,,
,,,,,,,2023-10-12_19h15.12.760,vbt_B2_day2,2022.2.4,Win32,143.9884809,,,,,,,,,,,,,,,,,,,,,,,,,,,down,0,14.8656,,0.322222222,0.117361111,1,0,0,0.9376,0,60,60,163,1,schuilen,images/br_schuilen.png,images/cb_schuilen.png,0,,,,,,,,,,,,,,,,,,,,,,
,,,,,,,2023-10-12_19h15.12.760,vbt_B2_day2,2022.2.4,Win32,143.9884809,,,,,,,,,,,,,,,,,,,,,,,,,,,down,0,6.1338,,0.322222222,0.117361111,1,0,0,0.5764,0,61,61,43,1,klauw,images/br_klauw.png,images/cb_klauw.png,0,,,,,,,,,,,,,,,,,,,,,,
,,,,,,,2023-10-12_19h15.12.760,vbt_B2_day2,2022.2.4,Win32,143.9884809,,,,,,,,,,,,,,,,,,,,,,,,,,,down,0,5.9134,,0.322222222,0.117361111,1,0,0,0.4791,0,62,62,94,1,oceaan,images/br_oceaan.png,images/cb_oceaan.png,0,,,,,,,,,,,,,,,,,,,,,,
,,,,,,,2023-10-12_19h15.12.760,vbt_B2_day2,2022.2.4,Win32,143.9884809,,,,,,,,,,,,,,,,,,,,,,,,,,,down,0,3.5115,,0.322222222,0.117361111,1,0,0,1.2016,0,63,63,166,1,strikken,images/br_strikken.png,images/cb_strikken.png,0,,,,,,,,,,,,,,,,,,,,,,
,,,,,,,2023-10-12_19h15.12.760,vbt_B2_day2,2022.2.4,Win32,143.9884809,,,,,,,,,,,,,,,,,,,,,,,,,,,down,0,11.3218,,0.322222222,0.117361111,1,0,0,1.007,0,64,64,58,1,tekst,images/br_tekst.png,images/cb_tekst.png,1,tekst,,,,,,,,,,,,,,,,,,,,,
,,,,,,,2023-10-12_19h15.12.760,vbt_B2_day2,2022.2.4,Win32,143.9884809,,,,,,,,,,,,,,,,,,,,,,,,,,,down,0,8.6248,,0.322222222,0.117361111,1,0,0,1.0487,0,65,65,173,1,apparaat,images/br_apparaat.png,images/cb_apparaat.png,0,,,,,,,,,,,,,,,,,,,,,,
,,,,,,,2023-10-12_19h15.12.760,vbt_B2_day2,2022.2.4,Win32,143.9884809,,,,,,,,,,,,,,,,,,,,,,,,,,,down,0,6.3282,,0.326388889,0.088888889,1,0,0,0.1112,0,66,66,121,1,twijfel,images/br_twijfel.png,images/cb_twijfel.png,0,,,,,,,,,,,,,,,,,,,,,,
,,,,,,,2023-10-12_19h15.12.760,vbt_B2_day2,2022.2.4,Win32,143.9884809,,,,,,,,,,,,,,,,,,,,,,,,,,,down,0,27.6881,,0.347222222,0.035416667,1,0,0,0.6182,0,67,67,130,1,keihard,images/br_keihard.png,images/cb_keihard.png,0,,,,,,,,,,,,,,,,,,,,,,
,,,,,,,2023-10-12_19h15.12.760,vbt_B2_day2,2022.2.4,Win32,143.9884809,,,,,,,,,,,,,,,,,,,,,,,,,,,down,0,4.5635,,0.343055556,0.042361111,1,0,0,0.9723,0,68,68,90,1,geluid,images/br_geluid.png,images/cb_geluid.png,0,,,,,,,,,,,,,,,,,,,,,,
,,,,,,,2023-10-12_19h15.12.760,vbt_B2_day2,2022.2.4,Win32,143.9884809,,,,,,,,,,,,,,,,,,,,,,,,,,,down,0,6.4408,,0.343055556,0.042361111,1,0,0,1.2363,0,69,69,21,1,mist,images/br_mist.png,images/cb_mist.png,0,,,,,,,,,,,,,,,,,,,,,,
,,,,,,,2023-10-12_19h15.12.760,vbt_B2_day2,2022.2.4,Win32,143.9884809,,,,,,,,,,,,,,,,,,,,,,,,,,,down,0,1.7091,,0.329861111,0.046527778,1,0,0,1.3821,0,70,70,10,1,leek,images/br_leek.png,images/cb_leek.png,0,,,,,,,,,,,,,,,,,,,,,,
,,,,,,,2023-10-12_19h15.12.760,vbt_B2_day2,2022.2.4,Win32,143.9884809,,,,,,,,,,,,,,,,,,,,,,,,,,,down,0,1.8685,,0.329861111,0.046527778,1,0,0,0.4514,0,71,71,89,1,slapen,images/br_slapen.png,images/cb_slapen.png,0,,,,,,,,,,,,,,,,,,,,,,
,,,,,,,2023-10-12_19h15.12.760,vbt_B2_day2,2022.2.4,Win32,143.9884809,,,,,,,,,,,,,,,,,,,,,,,,,,,down,0,6.6535,,0.329861111,0.046527778,1,0,0,0.5209,0,72,72,146,1,opkomen,images/br_opkomen.png,images/cb_opkomen.png,0,,,,,,,,,,,,,,,,,,,,,,
,,,,,,,2023-10-12_19h15.12.760,vbt_B2_day2,2022.2.4,Win32,143.9884809,,,,,,,,,,,,,,,,,,,,,,,,,,,down,0,7.8696,,0.329861111,0.046527778,1,0,0,0.8405,0,73,73,137,1,trekker,images/br_trekker.png,images/cb_trekker.png,1,trekker,,,,,,,,,,,,,,,,,,,,,
,,,,,,,2023-10-12_19h15.12.760,vbt_B2_day2,2022.2.4,Win32,143.9884809,,,,,,,,,,,,,,,,,,,,,,,,,,,down,0,11.7214,,0.329861111,0.046527778,1,0,0,3.8479,0,74,74,60,1,jasje,images/br_jasje.png,images/cb_jasje.png,0,,,,,,,,,,,,,,,,,,,,,,
,,,,,,,2023-10-12_19h15.12.760,vbt_B2_day2,2022.2.4,Win32,143.9884809,,,,,,,,,,,,,,,,,,,,,,,,,,,down,0,3.4877,,0.329861111,0.046527778,1,0,0,1.0558,0,75,75,59,1,kring,images/br_kring.png,images/cb_kring.png,1,kring,,,,,,,,,,,,,,,,,,,,,
,,,,,,,2023-10-12_19h15.12.760,vbt_B2_day2,2022.2.4,Win32,143.9884809,,,,,,,,,,,,,,,,,,,,,,,,,,,down,0,12.8202,,0.339583333,0.0625,1,0,0,0.3126,0,76,76,195,1,middelen,images/br_middelen.png,images/cb_middelen.png,0,,,,,,,,,,,,,,,,,,,,,,
,,,,,,,2023-10-12_19h15.12.760,vbt_B2_day2,2022.2.4,Win32,143.9884809,,,,,,,,,,,,,,,,,,,,,,,,,,,down,0,5.9967,,0.351388889,0.05625,1,0,0,0.264,0,77,77,115,1,kleren,images/br_kleren.png,images/cb_kleren.png,0,,,,,,,,,,,,,,,,,,,,,,
,,,,,,,2023-10-12_19h15.12.760,vbt_B2_day2,2022.2.4,Win32,143.9884809,,,,,,,,,,,,,,,,,,,,,,,,,,,down,0,7.3434,,0.422222222,-0.054861111,1,0,0,0.4167,0,78,78,176,1,techniek,images/br_techniek.png,images/cb_techniek.png,1,techniek,,,,,,,,,,,,,,,,,,,,,
,,,,,,,2023-10-12_19h15.12.760,vbt_B2_day2,2022.2.4,Win32,143.9884809,,,,,,,,,,,,,,,,,,,,,,,,,,,down,0,4.8669,,0.422222222,-0.054861111,1,0,0,0.2777,0,79,79,152,1,afnemen,images/br_afnemen.png,images/cb_afnemen.png,0,,,,,,,,,,,,,,,,,,,,,,
,,,,,,,2023-10-12_19h15.12.760,vbt_B2_day2,2022.2.4,Win32,143.9884809,,,,,,,,,,,,,,,,,,,,,,,,,,,down,0,3.3695,,0.422222222,-0.054861111,1,0,0,0.2501,0,80,80,122,1,waarvan,images/br_waarvan.png,images/cb_waarvan.png,0,,,,,,,,,,,,,,,,,,,,,,
,,,,,,,2023-10-12_19h15.12.760,vbt_B2_day2,2022.2.4,Win32,143.9884809,,,,,,,,,,,,,,,,,,,,,,,,,,,down,0,2.998,,0.422222222,-0.054861111,1,0,0,0.3541,0,81,81,106,1,zingen,images/br_zingen.png,images/cb_zingen.png,0,,,,,,,,,,,,,,,,,,,,,,
,,,,,,,2023-10-12_19h15.12.760,vbt_B2_day2,2022.2.4,Win32,143.9884809,,,,,,,,,,,,,,,,,,,,,,,,,,,down,0,3.2486,,0.422222222,-0.054861111,1,0,0,0.4167,0,82,82,67,1,zwart,images/br_zwart.png,images/cb_zwart.png,0,,,,,,,,,,,,,,,,,,,,,,
,,,,,,,2023-10-12_19h15.12.760,vbt_B2_day2,2022.2.4,Win32,143.9884809,,,,,,,,,,,,,,,,,,,,,,,,,,,down,0,9.1752,,0.422222222,-0.054861111,1,0,0,0.4306,0,83,83,183,1,getuigen,images/br_getuigen.png,images/cb_getuigen.png,0,,,,,,,,,,,,,,,,,,,,,,
,,,,,,,2023-10-12_19h15.12.760,vbt_B2_day2,2022.2.4,Win32,143.9884809,,,,,,,,,,,,,,,,,,,,,,,,,,,down,0,6.2245,,0.422222222,-0.054861111,1,0,0,0.4375,0,84,84,68,1,schat,images/br_schat.png,images/cb_schat.png,0,,,,,,,,,,,,,,,,,,,,,,
,,,,,,,2023-10-12_19h15.12.760,vbt_B2_day2,2022.2.4,Win32,143.9884809,,,,,,,,,,,,,,,,,,,,,,,,,,,down,0,4.0425,,0.422222222,-0.054861111,1,0,0,0.3681,0,85,85,161,1,attentie,images/br_attentie.png,images/cb_attentie.png,0,,,,,,,,,,,,,,,,,,,,,,
,,,,,,,2023-10-12_19h15.12.760,vbt_B2_day2,2022.2.4,Win32,143.9884809,,,,,,,,,,,,,,,,,,,,,,,,,,,down,0,4.1952,,0.422222222,-0.055555556,1,0,0,0.3612,0,86,86,70,1,ijdel,images/br_ijdel.png,images/cb_ijdel.png,0,,,,,,,,,,,,,,,,,,,,,,
,,,,,,,2023-10-12_19h15.12.760,vbt_B2_day2,2022.2.4,Win32,143.9884809,,,,,,,,,,,,,,,,,,,,,,,,,,,down,0,5.4301,,0.422222222,-0.055555556,1,0,0,0.625,0,87,87,41,1,maken,images/br_maken.png,images/cb_maken.png,0,,,,,,,,,,,,,,,,,,,,,,
,,,,,,,2023-10-12_19h15.12.760,vbt_B2_day2,2022.2.4,Win32,143.9884809,,,,,,,,,,,,,,,,,,,,,,,,,,,down,0,1.8277,,0.422222222,-0.055555556,1,0,0,0.5834,0,88,88,48,1,steel,images/br_steel.png,images/cb_steel.png,0,,,,,,,,,,,,,,,,,,,,,,
,,,,,,,2023-10-12_19h15.12.760,vbt_B2_day2,2022.2.4,Win32,143.9884809,,,,,,,,,,,,,,,,,,,,,,,,,,,down,0,5.4763,,0.422222222,-0.055555556,1,0,0,0.4098,0,89,89,184,1,aandelen,images/br_aandelen.png,images/cb_aandelen.png,0,,,,,,,,,,,,,,,,,,,,,,
,,,,,,,2023-10-12_19h15.12.760,vbt_B2_day2,2022.2.4,Win32,143.9884809,,,,,,,,,,,,,,,,,,,,,,,,,,,down,0,3.6228,,0.423611111,-0.053472222,1,0,0,2.0072,0,90,90,158,1,innemen,images/br_innemen.png,images/cb_innemen.png,0,,,,,,,,,,,,,,,,,,,,,,
,,,,,,,2023-10-12_19h15.12.760,vbt_B2_day2,2022.2.4,Win32,143.9884809,,,,,,,,,,,,,,,,,,,,,,,,,,,down,0,4.8984,,0.423611111,-0.053472222,1,0,0,0.625,0,91,91,164,1,anarchie,images/br_anarchie.png,images/cb_anarchie.png,0,,,,,,,,,,,,,,,,,,,,,,
,,,,,,,2023-10-12_19h15.12.760,vbt_B2_day2,2022.2.4,Win32,143.9884809,,,,,,,,,,,,,,,,,,,,,,,,,,,down,0,0.9453,,0.423611111,-0.053472222,1,0,0,0.3958,0,92,92,3,1,mand,images/br_mand.png,images/cb_mand.png,0,,,,,,,,,,,,,,,,,,,,,,
,,,,,,,2023-10-12_19h15.12.760,vbt_B2_day2,2022.2.4,Win32,143.9884809,,,,,,,,,,,,,,,,,,,,,,,,,,,down,0,5.5161,,0.436805556,-0.061111111,1,0,0,1.1529,0,93,93,138,1,akkoord,images/br_akkoord.png,images/cb_akkoord.png,1,akkoord,,,,,,,,,,,,,,,,,,,,,
,,,,,,,2023-10-12_19h15.12.760,vbt_B2_day2,2022.2.4,Win32,143.9884809,,,,,,,,,,,,,,,,,,,,,,,,,,,down,0,14.9126,,0.436805556,-0.063194444,1,0,0,3.3825,0,94,94,88,1,boeien,images/br_boeien.png,images/cb_boeien.png,0,,,,,,,,,,,,,,,,,,,,,,
,,,,,,,2023-10-12_19h15.12.760,vbt_B2_day2,2022.2.4,Win32,143.9884809,,,,,,,,,,,,,,,,,,,,,,,,,,,down,0,7.0645,,0.452083333,-0.077777778,1,0,0,1.3474,0,95,95,156,1,rechten,images/br_rechten.png,images/cb_rechten.png,0,,,,,,,,,,,,,,,,,,,,,,
,,,,,,,2023-10-12_19h15.12.760,vbt_B2_day2,2022.2.4,Win32,143.9884809,,,,,,,,,,,,,,,,,,,,,,,,,,,down,0,1.9449,,0.474305556,-0.074305556,1,0,0,0.3889,0,96,96,101,1,staren,images/br_staren.png,images/cb_staren.png,0,,,,,,,,,,,,,,,,,,,,,,
,,,,,,,2023-10-12_19h15.12.760,vbt_B2_day2,2022.2.4,Win32,143.9884809,,,,,,,,,,,,,,,,,,,,,,,,,,,down,0,3.6792,,0.479166667,-0.073611111,1,0,0,0.4863,0,97,97,36,1,vuur,images/br_vuur.png,images/cb_vuur.png,0,,,,,,,,,,,,,,,,,,,,,,
,,,,,,,2023-10-12_19h15.12.760,vbt_B2_day2,2022.2.4,Win32,143.9884809,,,,,,,,,,,,,,,,,,,,,,,,,,,down,0,3.1168,,0.473611111,0.004166667,1,0,0,0.3611,0,98,98,142,1,snuiven,images/br_snuiven.png,images/cb_snuiven.png,0,,,,,,,,,,,,,,,,,,,,,,
,,,,,,,2023-10-12_19h15.12.760,vbt_B2_day2,2022.2.4,Win32,143.9884809,,,,,,,,,,,,,,,,,,,,,,,,,,,down,0,0.7605,,0.473611111,0.004166667,1,0,0,0.3404,0,99,99,8,1,knie,images/br_knie.png,images/cb_knie.png,0,,,,,,,,,,,,,,,,,,,,,,
,,,,,,,2023-10-12_19h15.12.760,vbt_B2_day2,2022.2.4,Win32,143.9884809,,,,,,,,,,,,,,,,,,,,,,,,,,,down,0,3.1574,,0.473611111,0.004166667,1,0,0,0.3681,0,100,100,72,1,strak,images/br_strak.png,images/cb_strak.png,0,,,,,,,,,,,,,,,,,,,,,,
,,,,,,,2023-10-12_19h15.12.760,vbt_B2_day2,2022.2.4,Win32,143.9884809,,,,,,,,,,,,,,,,,,,,,,,,,,,down,0,16.1125,,0.474305556,0.011805556,1,0,0,0.4166,0,101,101,185,1,mijnheer,images/br_mijnheer.png,images/cb_mijnheer.png,0,,,,,,,,,,,,,,,,,,,,,,
,,,,,,,2023-10-12_19h15.12.760,vbt_B2_day2,2022.2.4,Win32,143.9884809,,,,,,,,,,,,,,,,,,,,,,,,,,,down,0,2.3467,,0.474305556,0.011805556,1,0,0,0.3195,0,102,102,104,1,zweven,images/br_zweven.png,images/cb_zweven.png,0,,,,,,,,,,,,,,,,,,,,,,
,,,,,,,2023-10-12_19h15.12.760,vbt_B2_day2,2022.2.4,Win32,143.9884809,,,,,,,,,,,,,,,,,,,,,,,,,,,down,0,2.321,,0.474305556,0.011805556,1,0,0,0.4444,0,103,103,38,1,baai,images/br_baai.png,images/cb_baai.png,0,,,,,,,,,,,,,,,,,,,,,,
,,,,,,,2023-10-12_19h15.12.760,vbt_B2_day2,2022.2.4,Win32,143.9884809,,,,,,,,,,,,,,,,,,,,,,,,,,,down,0,3.2589,,0.474305556,0.011805556,1,0,0,0.3195,0,104,104,112,1,lukken,images/br_lukken.png,images/cb_lukken.png,0,,,,,,,,,,,,,,,,,,,,,,
,,,,,,,2023-10-12_19h15.12.760,vbt_B2_day2,2022.2.4,Win32,143.9884809,,,,,,,,,,,,,,,,,,,,,,,,,,,down,0,2.9323,,0.474305556,0.011805556,1,0,0,0.4237,0,105,105,114,1,vullen,images/br_vullen.png,images/cb_vullen.png,0,,,,,,,,,,,,,,,,,,,,,,
,,,,,,,2023-10-12_19h15.12.760,vbt_B2_day2,2022.2.4,Win32,143.9884809,,,,,,,,,,,,,,,,,,,,,,,,,,,down,0,2.1324,,0.474305556,0.011805556,1,0,0,0.3821,0,106,106,12,1,kust,images/br_kust.png,images/cb_kust.png,0,,,,,,,,,,,,,,,,,,,,,,
,,,,,,,2023-10-12_19h15.12.760,vbt_B2_day2,2022.2.4,Win32,143.9884809,,,,,,,,,,,,,,,,,,,,,,,,,,,down,0,2.5177,,0.474305556,0.011805556,1,0,0,1.2641,0,107,107,14,1,rijp,images/br_rijp.png,images/cb_rijp.png,0,,,,,,,,,,,,,,,,,,,,,,
,,,,,,,2023-10-12_19h15.12.760,vbt_B2_day2,2022.2.4,Win32,143.9884809,,,,,,,,,,,,,,,,,,,,,,,,,,,down,0,0.5958,,0.411805556,0.003472222,1,0,0,0.3889,0,108,108,84,1,lokken,images/br_lokken.png,images/cb_lokken.png,0,,,,,,,,,,,,,,,,,,,,,,
,,,,,,,2023-10-12_19h15.12.760,vbt_B2_day2,2022.2.4,Win32,143.9884809,,,,,,,,,,,,,,,,,,,,,,,,,,,down,0,6.2394,,0.4125,-0.032638889,1,0,0,1.4447,0,109,109,18,1,blik,images/br_blik.png,images/cb_blik.png,1,blikblik,,,,,,,,,,,,,,,,,,,,,
,,,,,,,2023-10-12_19h15.12.760,vbt_B2_day2,2022.2.4,Win32,143.9884809,,,,,,,,,,,,,,,,,,,,,,,,,,,down,0,11.2837,,0.322222222,0.013194444,1,0,0,0.2152,0,110,110,83,1,mening,images/br_mening.png,images/cb_mening.png,0,,,,,,,,,,,,,,,,,,,,,,
,,,,,,,2023-10-12_19h15.12.760,vbt_B2_day2,2022.2.4,Win32,143.9884809,,,,,,,,,,,,,,,,,,,,,,,,,,,down,0,1.9535,,0.288888889,-0.03125,1,0,0,0.361,0,111,111,40,1,schep,images/br_schep.png,images/cb_schep.png,0,,,,,,,,,,,,,,,,,,,,,,
,,,,,,,2023-10-12_19h15.12.760,vbt_B2_day2,2022.2.4,Win32,143.9884809,,,,,,,,,,,,,,,,,,,,,,,,,,,down,0,3.1164,,0.286805556,-0.039583333,1,0,0,0.493,0,112,112,52,1,wagon,images/br_wagon.png,images/cb_wagon.png,0,,,,,,,,,,,,,,,,,,,,,,
,,,,,,,2023-10-12_19h15.12.760,vbt_B2_day2,2022.2.4,Win32,143.9884809,,,,,,,,,,,,,,,,,,,,,,,,,,,down,0,4.4877,,0.3,0.000694444,1,0,0,0.7708,0,113,113,53,1,baron,images/br_baron.png,images/cb_baron.png,0,,,,,,,,,,,,,,,,,,,,,,
,,,,,,,2023-10-12_19h15.12.760,vbt_B2_day2,2022.2.4,Win32,143.9884809,,,,,,,,,,,,,,,,,,,,,,,,,,,down,0,3.2514,,0.289583333,0.000694444,1,0,0,0.3264,0,114,114,73,1,volop,images/br_volop.png,images/cb_volop.png,0,,,,,,,,,,,,,,,,,,,,,,
,,,,,,,2023-10-12_19h15.12.760,vbt_B2_day2,2022.2.4,Win32,143.9884809,,,,,,,,,,,,,,,,,,,,,,,,,,,down,0,8.6345,,0.308333333,-0.088888889,1,0,0,1.1669,0,115,115,134,1,geliefd,images/br_geliefd.png,images/cb_geliefd.png,0,,,,,,,,,,,,,,,,,,,,,,
,,,,,,,2023-10-12_19h15.12.760,vbt_B2_day2,2022.2.4,Win32,143.9884809,,,,,,,,,,,,,,,,,,,,,,,,,,,down,0,0.4317,,0.308333333,-0.091666667,1,0,0,0.4028,0,116,116,39,1,laag,images/br_laag.png,images/cb_laag.png,0,,,,,,,,,,,,,,,,,,,,,,
,,,,,,,2023-10-12_19h15.12.760,vbt_B2_day2,2022.2.4,Win32,143.9884809,,,,,,,,,,,,,,,,,,,,,,,,,,,down,0,3.284,,0.308333333,-0.091666667,1,0,0,0.3403,0,117,117,15,1,soda,images/br_soda.png,images/cb_soda.png,0,,,,,,,,,,,,,,,,,,,,,,
,,,,,,,2023-10-12_19h15.12.760,vbt_B2_day2,2022.2.4,Win32,143.9884809,,,,,,,,,,,,,,,,,,,,,,,,,,,down,0,5.9724,,0.309027778,-0.088194444,1,0,0,0.3682,0,118,118,24,1,jurk,images/br_jurk.png,images/cb_jurk.png,0,,,,,,,,,,,,,,,,,,,,,,
,,,,,,,2023-10-12_19h15.12.760,vbt_B2_day2,2022.2.4,Win32,143.9884809,,,,,,,,,,,,,,,,,,,,,,,,,,,down,0,3.2784,,0.309027778,-0.088194444,1,0,0,0.5279,0,119,119,169,1,oprotten,images/br_oprotten.png,images/cb_oprotten.png,0,,,,,,,,,,,,,,,,,,,,,,
,,,,,,,2023-10-12_19h15.12.760,vbt_B2_day2,2022.2.4,Win32,143.9884809,,,,,,,,,,,,,,,,,,,,,,,,,,,down,0,11.4414,,0.309027778,-0.088194444,1,0,0,0.4375,0,120,120,54,1,gebit,images/br_gebit.png,images/cb_gebit.png,0,,,,,,,,,,,,,,,,,,,,,,
,,,,,,,2023-10-12_19h15.12.760,vbt_B2_day2,2022.2.4,Win32,143.9884809,,,,,,,,,,,,,,,,,,,,,,,,,,,down,0,9.1973,,0.309027778,-0.088194444,1,0,0,0.5904,0,121,121,135,1,gedicht,images/br_gedicht.png,images/cb_gedicht.png,0,,,,,,,,,,,,,,,,,,,,,,
,,,,,,,2023-10-12_19h15.12.760,vbt_B2_day2,2022.2.4,Win32,143.9884809,,,,,,,,,,,,,,,,,,,,,,,,,,,down,0,5.9033,,0.309027778,-0.088194444,1,0,0,0.3543,0,122,122,172,1,weigeren,images/br_weigeren.png,images/cb_weigeren.png,0,,,,,,,,,,,,,,,,,,,,,,
,,,,,,,2023-10-12_19h15.12.760,vbt_B2_day2,2022.2.4,Win32,143.9884809,,,,,,,,,,,,,,,,,,,,,,,,,,,down,0,4.086,,0.309027778,-0.088194444,1,0,0,0.3612,0,123,123,181,1,toegeven,images/br_toegeven.png,images/cb_toegeven.png,0,,,,,,,,,,,,,,,,,,,,,,
,,,,,,,2023-10-12_19h15.12.760,vbt_B2_day2,2022.2.4,Win32,143.9884809,,,,,,,,,,,,,,,,,,,,,,,,,,,down,0,3.138,,0.309027778,-0.088194444,1,0,0,0.4445,0,124,124,75,1,snoep,images/br_snoep.png,images/cb_snoep.png,0,,,,,,,,,,,,,,,,,,,,,,
,,,,,,,2023-10-12_19h15.12.760,vbt_B2_day2,2022.2.4,Win32,143.9884809,,,,,,,,,,,,,,,,,,,,,,,,,,,down,0,7.8406,,0.309027778,-0.088194444,1,0,0,0.4584,0,125,125,160,1,daarheen,images/br_daarheen.png,images/cb_daarheen.png,0,,,,,,,,,,,,,,,,,,,,,,
,,,,,,,2023-10-12_19h15.12.760,vbt_B2_day2,2022.2.4,Win32,143.9884809,,,,,,,,,,,,,,,,,,,,,,,,,,,down,0,3.9459,,0.309027778,-0.088194444,1,0,0,0.2987,0,126,126,37,1,mijn,images/br_mijn.png,images/cb_mijn.png,0,,,,,,,,,,,,,,,,,,,,,,
,,,,,,,2023-10-12_19h15.12.760,vbt_B2_day2,2022.2.4,Win32,143.9884809,,,,,,,,,,,,,,,,,,,,,,,,,,,down,0,8.8704,,0.309027778,-0.088194444,1,0,0,0.4029,0,127,127,92,1,geheim,images/br_geheim.png,images/cb_geheim.png,0,,,,,,,,,,,,,,,,,,,,,,
,,,,,,,2023-10-12_19h15.12.760,vbt_B2_day2,2022.2.4,Win32,143.9884809,,,,,,,,,,,,,,,,,,,,,,,,,,,down,0,14.5042,,0.309027778,-0.088194444,1,0,0,1.9656,0,128,128,147,1,komisch,images/br_komisch.png,images/cb_komisch.png,0,,,,,,,,,,,,,,,,,,,,,,
,,,,,,,2023-10-12_19h15.12.760,vbt_B2_day2,2022.2.4,Win32,143.9884809,,,,,,,,,,,,,,,,,,,,,,,,,,,down,0,5.1746,,0.309027778,-0.088194444,1,0,0,0.3125,0,129,129,125,1,aanzien,images/br_aanzien.png,images/cb_aanzien.png,0,,,,,,,,,,,,,,,,,,,,,,
,,,,,,,2023-10-12_19h15.12.760,vbt_B2_day2,2022.2.4,Win32,143.9884809,,,,,,,,,,,,,,,,,,,,,,,,,,,down,0,1.968,,0.309027778,-0.088194444,1,0,0,0.375,0,130,130,33,1,vlek,images/br_vlek.png,images/cb_vlek.png,0,,,,,,,,,,,,,,,,,,,,,,
,,,,,,,2023-10-12_19h15.12.760,vbt_B2_day2,2022.2.4,Win32,143.9884809,,,,,,,,,,,,,,,,,,,,,,,,,,,down,0,3.5077,,0.309027778,-0.088194444,1,0,0,0.4793,0,131,131,131,1,opzicht,images/br_opzicht.png,images/cb_opzicht.png,0,,,,,,,,,,,,,,,,,,,,,,
,,,,,,,2023-10-12_19h15.12.760,vbt_B2_day2,2022.2.4,Win32,143.9884809,,,,,,,,,,,,,,,,,,,,,,,,,,,down,0,3.0937,,0.309027778,-0.088194444,1,0,0,0.9099,0,132,132,29,1,baas,images/br_baas.png,images/cb_baas.png,0,,,,,,,,,,,,,,,,,,,,,,
,,,,,,,2023-10-12_19h15.12.760,vbt_B2_day2,2022.2.4,Win32,143.9884809,,,,,,,,,,,,,,,,,,,,,,,,,,,down,0,2.5456,,0.309027778,-0.088194444,1,0,0,0.3125,0,133,133,20,1,site,images/br_site.png,images/cb_site.png,0,,,,,,,,,,,,,,,,,,,,,,
,,,,,,,2023-10-12_19h15.12.760,vbt_B2_day2,2022.2.4,Win32,143.9884809,,,,,,,,,,,,,,,,,,,,,,,,,,,down,0,1.0719,,0.309027778,-0.088194444,1,0,0,0.2848,0,134,134,0,1,slak,images/br_slak.png,images/cb_slak.png,0,,,,,,,,,,,,,,,,,,,,,,
,,,,,,,2023-10-12_19h15.12.760,vbt_B2_day2,2022.2.4,Win32,143.9884809,,,,,,,,,,,,,,,,,,,,,,,,,,,down,0,7.4331,,0.309027778,-0.088194444,1,0,0,0.3196,0,135,135,129,1,verhaal,images/br_verhaal.png,images/cb_verhaal.png,0,,,,,,,,,,,,,,,,,,,,,,
,,,,,,,2023-10-12_19h15.12.760,vbt_B2_day2,2022.2.4,Win32,143.9884809,,,,,,,,,,,,,,,,,,,,,,,,,,,down,0,4.3013,,0.309027778,-0.088194444,1,0,0,0.5973,0,136,136,170,1,schatten,images/br_schatten.png,images/cb_schatten.png,0,,,,,,,,,,,,,,,,,,,,,,
,,,,,,,2023-10-12_19h15.12.760,vbt_B2_day2,2022.2.4,Win32,143.9884809,,,,,,,,,,,,,,,,,,,,,,,,,,,down,0,14.2132,,0.309027778,-0.088194444,1,0,0,1.9586,0,137,137,133,1,seizoen,images/br_seizoen.png,images/cb_seizoen.png,0,,,,,,,,,,,,,,,,,,,,,,
,,,,,,,2023-10-12_19h15.12.760,vbt_B2_day2,2022.2.4,Win32,143.9884809,,,,,,,,,,,,,,,,,,,,,,,,,,,down,0,2.519,,0.309027778,-0.088194444,1,0,0,0.3473,0,138,138,86,1,woning,images/br_woning.png,images/cb_woning.png,0,,,,,,,,,,,,,,,,,,,,,,
,,,,,,,2023-10-12_19h15.12.760,vbt_B2_day2,2022.2.4,Win32,143.9884809,,,,,,,,,,,,,,,,,,,,,,,,,,,down,0,5.1581,,0.309027778,-0.088194444,1,0,0,0.2848,0,139,139,196,1,nakijken,images/br_nakijken.png,images/cb_nakijken.png,0,,,,,,,,,,,,,,,,,,,,,,
,,,,,,,2023-10-12_19h15.12.760,vbt_B2_day2,2022.2.4,Win32,143.9884809,,,,,,,,,,,,,,,,,,,,,,,,,,,down,0,8.1956,,0.309027778,-0.088194444,1,0,0,1.0141,0,140,140,177,1,maaltijd,images/br_maaltijd.png,images/cb_maaltijd.png,1,maaltijd,,,,,,,,,,,,,,,,,,,,,
,,,,,,,2023-10-12_19h15.12.760,vbt_B2_day2,2022.2.4,Win32,143.9884809,,,,,,,,,,,,,,,,,,,,,,,,,,,down,0,2.8446,,0.309027778,-0.088194444,1,0,0,0.3126,0,141,141,148,1,smullen,images/br_smullen.png,images/cb_smullen.png,0,,,,,,,,,,,,,,,,,,,,,,
,,,,,,,2023-10-12_19h15.12.760,vbt_B2_day2,2022.2.4,Win32,143.9884809,,,,,,,,,,,,,,,,,,,,,,,,,,,down,0,11.0709,,0.309027778,-0.088194444,1,0,0,0.4306,0,142,142,74,1,graaf,images/br_graaf.png,images/cb_graaf.png,0,,,,,,,,,,,,,,,,,,,,,,
,,,,,,,2023-10-12_19h15.12.760,vbt_B2_day2,2022.2.4,Win32,143.9884809,,,,,,,,,,,,,,,,,,,,,,,,,,,down,0,1.7883,,0.309027778,-0.088194444,1,0,0,0.4028,0,143,143,150,1,gegeven,images/br_gegeven.png,images/cb_gegeven.png,0,,,,,,,,,,,,,,,,,,,,,,
,,,,,,,2023-10-12_19h15.12.760,vbt_B2_day2,2022.2.4,Win32,143.9884809,,,,,,,,,,,,,,,,,,,,,,,,,,,down,0,4.7282,,0.309027778,-0.088194444,1,0,0,0.3056,0,144,144,45,1,piste,images/br_piste.png,images/cb_piste.png,0,,,,,,,,,,,,,,,,,,,,,,
,,,,,,,2023-10-12_19h15.12.760,vbt_B2_day2,2022.2.4,Win32,143.9884809,,,,,,,,,,,,,,,,,,,,,,,,,,,down,0,1.6127,,0.309027778,-0.088194444,1,0,0,0.3958,0,145,145,102,1,legaal,images/br_legaal.png,images/cb_legaal.png,0,,,,,,,,,,,,,,,,,,,,,,
,,,,,,,2023-10-12_19h15.12.760,vbt_B2_day2,2022.2.4,Win32,143.9884809,,,,,,,,,,,,,,,,,,,,,,,,,,,down,0,0.6163,,0.309027778,-0.088194444,1,0,0,0.4653,0,146,146,22,1,stof,images/br_stof.png,images/cb_stof.png,0,,,,,,,,,,,,,,,,,,,,,,
,,,,,,,2023-10-12_19h15.12.760,vbt_B2_day2,2022.2.4,Win32,143.9884809,,,,,,,,,,,,,,,,,,,,,,,,,,,down,0,3.2971,,0.309027778,-0.088194444,1,0,0,0.2987,0,147,147,188,1,strekken,images/br_strekken.png,images/cb_strekken.png,0,,,,,,,,,,,,,,,,,,,,,,
,,,,,,,2023-10-12_19h15.12.760,vbt_B2_day2,2022.2.4,Win32,143.9884809,,,,,,,,,,,,,,,,,,,,,,,,,,,down,0,2.6216,,0.309027778,-0.088194444,1,0,0,0.3959,0,148,148,69,1,waken,images/br_waken.png,images/cb_waken.png,0,,,,,,,,,,,,,,,,,,,,,,
,,,,,,,2023-10-12_19h15.12.760,vbt_B2_day2,2022.2.4,Win32,143.9884809,,,,,,,,,,,,,,,,,,,,,,,,,,,down,0,1.0459,,0.332638889,-0.067361111,1,0,0,0.3889,0,149,149,26,1,leuk,images/br_leuk.png,images/cb_leuk.png,0,,,,,,,,,,,,,,,,,,,,,,
,,,,,,,2023-10-12_19h15.12.760,vbt_B2_day2,2022.2.4,Win32,143.9884809,,,,,,,,,,,,,,,,,,,,,,,,,,,down,0,2.1835,,0.332638889,-0.067361111,1,0,0,0.3541,0,150,150,5,1,blad,images/br_blad.png,images/cb_blad.png,0,,,,,,,,,,,,,,,,,,,,,,
,,,,,,,2023-10-12_19h15.12.760,vbt_B2_day2,2022.2.4,Win32,143.9884809,,,,,,,,,,,,,,,,,,,,,,,,,,,down,0,2.1394,,0.332638889,-0.067361111,1,0,0,0.5,0,151,151,11,1,mode,images/br_mode.png,images/cb_mode.png,0,,,,,,,,,,,,,,,,,,,,,,
,,,,,,,2023-10-12_19h15.12.760,vbt_B2_day2,2022.2.4,Win32,143.9884809,,,,,,,,,,,,,,,,,,,,,,,,,,,down,0,10.8712,,0.328472222,-0.032638889,1,0,0,0.375,0,152,152,85,1,heilig,images/br_heilig.png,images/cb_heilig.png,0,,,,,,,,,,,,,,,,,,,,,,
,,,,,,,2023-10-12_19h15.12.760,vbt_B2_day2,2022.2.4,Win32,143.9884809,,,,,,,,,,,,,,,,,,,,,,,,,,,down,0,1.5881,,0.328472222,-0.032638889,1,0,0,0.3403,0,153,153,34,1,vorm,images/br_vorm.png,images/cb_vorm.png,0,,,,,,,,,,,,,,,,,,,,,,
,,,,,,,2023-10-12_19h15.12.760,vbt_B2_day2,2022.2.4,Win32,143.9884809,,,,,,,,,,,,,,,,,,,,,,,,,,,down,0,5.5161,,0.334722222,-0.032638889,1,0,0,0.4306,0,154,154,194,1,driemaal,images/br_driemaal.png,images/cb_driemaal.png,0,,,,,,,,,,,,,,,,,,,,,,
,,,,,,,2023-10-12_19h15.12.760,vbt_B2_day2,2022.2.4,Win32,143.9884809,,,,,,,,,,,,,,,,,,,,,,,,,,,down,0,4.9331,,0.334722222,-0.032638889,1,0,0,0.3264,0,155,155,113,1,koppen,images/br_koppen.png,images/cb_koppen.png,0,,,,,,,,,,,,,,,,,,,,,,
,,,,,,,2023-10-12_19h15.12.760,vbt_B2_day2,2022.2.4,Win32,143.9884809,,,,,,,,,,,,,,,,,,,,,,,,,,,down,0,10.0853,,0.3375,-0.051388889,1,0,0,0.9515,0,156,156,174,1,stemming,images/br_stemming.png,images/cb_stemming.png,0,,,,,,,,,,,,,,,,,,,,,,
,,,,,,,2023-10-12_19h15.12.760,vbt_B2_day2,2022.2.4,Win32,143.9884809,,,,,,,,,,,,,,,,,,,,,,,,,,,down,0,2.6899,,0.3375,-0.051388889,1,0,0,0.4723,0,157,157,2,1,jaar,images/br_jaar.png,images/cb_jaar.png,0,,,,,,,,,,,,,,,,,,,,,,
,,,,,,,2023-10-12_19h15.12.760,vbt_B2_day2,2022.2.4,Win32,143.9884809,,,,,,,,,,,,,,,,,,,,,,,,,,,down,0,3.1835,,0.3375,-0.051388889,1,0,0,0.7154,0,158,158,16,1,ziek,images/br_ziek.png,images/cb_ziek.png,1,ziek,,,,,,,,,,,,,,,,,,,,,
,,,,,,,2023-10-12_19h15.12.760,vbt_B2_day2,2022.2.4,Win32,143.9884809,,,,,,,,,,,,,,,,,,,,,,,,,,,down,0,7.3581,,0.3375,-0.051388889,1,0,0,0.4306,0,159,159,126,1,kasteel,images/br_kasteel.png,images/cb_kasteel.png,0,,,,,,,,,,,,,,,,,,,,,,
,,,,,,,2023-10-12_19h15.12.760,vbt_B2_day2,2022.2.4,Win32,143.9884809,,,,,,,,,,,,,,,,,,,,,,,,,,,down,0,12.4634,,0.3375,-0.051388889,1,0,0,1.5072,0,160,160,103,1,joggen,images/br_joggen.png,images/cb_joggen.png,0,,,,,,,,,,,,,,,,,,,,,,
,,,,,,,2023-10-12_19h15.12.760,vbt_B2_day2,2022.2.4,Win32,143.9884809,,,,,,,,,,,,,,,,,,,,,,,,,,,down,0,5.2927,,0.347222222,-0.208333333,1,0,0,0.4237,0,161,161,51,1,samen,images/br_samen.png,images/cb_samen.png,0,,,,,,,,,,,,,,,,,,,,,,
,,,,,,,2023-10-12_19h15.12.760,vbt_B2_day2,2022.2.4,Win32,143.9884809,,,,,,,,,,,,,,,,,,,,,,,,,,,down,0,1.4738,,0.343055556,-0.179861111,1,0,0,0.5071,0,162,162,23,1,zout,images/br_zout.png,images/cb_zout.png,0,,,,,,,,,,,,,,,,,,,,,,
,,,,,,,2023-10-12_19h15.12.760,vbt_B2_day2,2022.2.4,Win32,143.9884809,,,,,,,,,,,,,,,,,,,,,,,,,,,down,0,5.687,,0.343055556,-0.179861111,1,0,0,0.9307,0,163,163,98,1,kreeft,images/br_kreeft.png,images/cb_kreeft.png,1,kreeft,,,,,,,,,,,,,,,,,,,,,
,,,,,,,2023-10-12_19h15.12.760,vbt_B2_day2,2022.2.4,Win32,143.9884809,,,,,,,,,,,,,,,,,,,,,,,,,,,down,0,1.259,,0.343055556,-0.179861111,1,0,0,0.2777,0,164,164,1,1,zaal,images/br_zaal.png,images/cb_zaal.png,0,,,,,,,,,,,,,,,,,,,,,,
,,,,,,,2023-10-12_19h15.12.760,vbt_B2_day2,2022.2.4,Win32,143.9884809,,,,,,,,,,,,,,,,,,,,,,,,,,,down,0,2.9952,,0.343055556,-0.179861111,1,0,0,0.3751,0,165,165,87,1,toeval,images/br_toeval.png,images/cb_toeval.png,0,,,,,,,,,,,,,,,,,,,,,,
,,,,,,,2023-10-12_19h15.12.760,vbt_B2_day2,2022.2.4,Win32,143.9884809,,,,,,,,,,,,,,,,,,,,,,,,,,,down,0,1.1547,,0.343055556,-0.179861111,1,0,0,0.4236,0,166,166,55,1,praat,images/br_praat.png,images/cb_praat.png,0,,,,,,,,,,,,,,,,,,,,,,
,,,,,,,2023-10-12_19h15.12.760,vbt_B2_day2,2022.2.4,Win32,143.9884809,,,,,,,,,,,,,,,,,,,,,,,,,,,down,0,2.3785,,0.343055556,-0.179861111,1,0,0,0.3264,0,167,167,9,1,hier,images/br_hier.png,images/cb_hier.png,0,,,,,,,,,,,,,,,,,,,,,,
,,,,,,,2023-10-12_19h15.12.760,vbt_B2_day2,2022.2.4,Win32,143.9884809,,,,,,,,,,,,,,,,,,,,,,,,,,,down,0,2.2296,,0.343055556,-0.179861111,1,0,0,0.5486,0,168,168,30,1,uien,images/br_uien.png,images/cb_uien.png,0,,,,,,,,,,,,,,,,,,,,,,
,,,,,,,2023-10-12_19h15.12.760,vbt_B2_day2,2022.2.4,Win32,143.9884809,,,,,,,,,,,,,,,,,,,,,,,,,,,down,0,19.7276,,0.343055556,-0.179861111,1,0,0,0.3611,0,169,169,145,1,invloed,images/br_invloed.png,images/cb_invloed.png,0,,,,,,,,,,,,,,,,,,,,,,
,,,,,,,2023-10-12_19h15.12.760,vbt_B2_day2,2022.2.4,Win32,143.9884809,,,,,,,,,,,,,,,,,,,,,,,,,,,down,0,9.9075,,0.375,-0.147916667,1,0,0,0.3195,0,170,170,153,1,vervoer,images/br_vervoer.png,images/cb_vervoer.png,0,,,,,,,,,,,,,,,,,,,,,,
,,,,,,,2023-10-12_19h15.12.760,vbt_B2_day2,2022.2.4,Win32,143.9884809,,,,,,,,,,,,,,,,,,,,,,,,,,,down,0,2.3807,,0.376388889,-0.148611111,1,0,0,0.4375,0,171,171,186,1,voorraad,images/br_voorraad.png,images/cb_voorraad.png,0,,,,,,,,,,,,,,,,,,,,,,
,,,,,,,2023-10-12_19h15.12.760,vbt_B2_day2,2022.2.4,Win32,143.9884809,,,,,,,,,,,,,,,,,,,,,,,,,,,down,0,4.3304,,0.376388889,-0.148611111,1,0,0,0.3472,0,172,172,123,1,hiervan,images/br_hiervan.png,images/cb_hiervan.png,0,,,,,,,,,,,,,,,,,,,,,,
,,,,,,,2023-10-12_19h15.12.760,vbt_B2_day2,2022.2.4,Win32,143.9884809,,,,,,,,,,,,,,,,,,,,,,,,,,,down,0,5.874,,0.401388889,-0.147222222,1,0,0,0.4934,0,173,173,159,1,sufferd,images/br_sufferd.png,images/cb_sufferd.png,0,,,,,,,,,,,,,,,,,,,,,,
,,,,,,,2023-10-12_19h15.12.760,vbt_B2_day2,2022.2.4,Win32,143.9884809,,,,,,,,,,,,,,,,,,,,,,,,,,,down,0,18.2688,,0.400694444,-0.125694444,1,0,0,1.7781,0,174,174,63,1,flirt,images/br_flirt.png,images/cb_flirt.png,0,,,,,,,,,,,,,,,,,,,,,,
,,,,,,,2023-10-12_19h15.12.760,vbt_B2_day2,2022.2.4,Win32,143.9884809,,,,,,,,,,,,,,,,,,,,,,,,,,,down,0,4.0925,,0.378472222,-0.130555556,1,0,0,0.5487,0,175,175,192,1,schaamte,images/br_schaamte.png,images/cb_schaamte.png,0,,,,,,,,,,,,,,,,,,,,,,
,,,,,,,2023-10-12_19h15.12.760,vbt_B2_day2,2022.2.4,Win32,143.9884809,,,,,,,,,,,,,,,,,,,,,,,,,,,down,0,5.5273,,0.378472222,-0.130555556,1,0,0,0.3263,0,176,176,198,1,bedoelen,images/br_bedoelen.png,images/cb_bedoelen.png,0,,,,,,,,,,,,,,,,,,,,,,
,,,,,,,2023-10-12_19h15.12.760,vbt_B2_day2,2022.2.4,Win32,143.9884809,,,,,,,,,,,,,,,,,,,,,,,,,,,down,0,0.5468,,0.376388889,-0.14375,1,0,0,0.4098,0,177,177,31,1,poes,images/br_poes.png,images/cb_poes.png,0,,,,,,,,,,,,,,,,,,,,,,
,,,,,,,2023-10-12_19h15.12.760,vbt_B2_day2,2022.2.4,Win32,143.9884809,,,,,,,,,,,,,,,,,,,,,,,,,,,down,0,5.4092,,0.376388889,-0.14375,1,0,0,0.3611,0,178,178,118,1,vinger,images/br_vinger.png,images/cb_vinger.png,0,,,,,,,,,,,,,,,,,,,,,,
,,,,,,,2023-10-12_19h15.12.760,vbt_B2_day2,2022.2.4,Win32,143.9884809,,,,,,,,,,,,,,,,,,,,,,,,,,,down,0,0.6762,,0.370833333,-0.145138889,1,0,0,0.4375,0,179,179,28,1,stal,images/br_stal.png,images/cb_stal.png,0,,,,,,,,,,,,,,,,,,,,,,
,,,,,,,2023-10-12_19h15.12.760,vbt_B2_day2,2022.2.4,Win32,143.9884809,,,,,,,,,,,,,,,,,,,,,,,,,,,down,0,2.3178,,0.370833333,-0.145138889,1,0,0,0.4307,0,180,180,110,1,zuster,images/br_zuster.png,images/cb_zuster.png,0,,,,,,,,,,,,,,,,,,,,,,
,,,,,,,2023-10-12_19h15.12.760,vbt_B2_day2,2022.2.4,Win32,143.9884809,,,,,,,,,,,,,,,,,,,,,,,,,,,down,0,2.6884,,0.370833333,-0.145138889,1,0,0,0.3472,0,181,181,19,1,geit,images/br_geit.png,images/cb_geit.png,1,geit,,,,,,,,,,,,,,,,,,,,,
,,,,,,,2023-10-12_19h15.12.760,vbt_B2_day2,2022.2.4,Win32,143.9884809,,,,,,,,,,,,,,,,,,,,,,,,,,,down,0,6.9992,,0.326388889,-0.114583333,1,0,0,4.0632,0,182,182,180,1,openbaar,images/br_openbaar.png,images/cb_openbaar.png,0,,,,,,,,,,,,,,,,,,,,,,
,,,,,,,2023-10-12_19h15.12.760,vbt_B2_day2,2022.2.4,Win32,143.9884809,,,,,,,,,,,,,,,,,,,,,,,,,,,down,0,3.0002,,0.326388889,-0.114583333,1,0,0,0.3404,0,183,183,49,1,laken,images/br_laken.png,images/cb_laken.png,0,,,,,,,,,,,,,,,,,,,,,,
,,,,,,,2023-10-12_19h15.12.760,vbt_B2_day2,2022.2.4,Win32,143.9884809,,,,,,,,,,,,,,,,,,,,,,,,,,,down,0,3.1488,,0.326388889,-0.114583333,1,0,0,0.3056,0,184,184,116,1,besmet,images/br_besmet.png,images/cb_besmet.png,0,,,,,,,,,,,,,,,,,,,,,,
,,,,,,,2023-10-12_19h15.12.760,vbt_B2_day2,2022.2.4,Win32,143.9884809,,,,,,,,,,,,,,,,,,,,,,,,,,,down,0,2.5808,,0.326388889,-0.114583333,1,0,0,0.1944,0,185,185,97,1,loyaal,images/br_loyaal.png,images/cb_loyaal.png,1,loyaal,,,,,,,,,,,,,,,,,,,,,
,,,,,,,2023-10-12_19h15.12.760,vbt_B2_day2,2022.2.4,Win32,143.9884809,,,,,,,,,,,,,,,,,,,,,,,,,,,down,0,9.2848,,0.326388889,-0.114583333,1,0,0,0.4792,0,186,186,117,1,kennis,images/br_kennis.png,images/cb_kennis.png,0,,,,,,,,,,,,,,,,,,,,,,
,,,,,,,2023-10-12_19h15.12.760,vbt_B2_day2,2022.2.4,Win32,143.9884809,,,,,,,,,,,,,,,,,,,,,,,,,,,down,0,10.0899,,0.336111111,-0.113888889,1,0,0,0.3889,0,187,187,168,1,bisschop,images/br_bisschop.png,images/cb_bisschop.png,0,,,,,,,,,,,,,,,,,,,,,,
,,,,,,,2023-10-12_19h15.12.760,vbt_B2_day2,2022.2.4,Win32,143.9884809,,,,,,,,,,,,,,,,,,,,,,,,,,,down,0,9.1132,,0.336111111,-0.109722222,1,0,0,0.3056,0,188,188,47,1,kabel,images/br_kabel.png,images/cb_kabel.png,0,,,,,,,,,,,,,,,,,,,,,,
,,,,,,,2023-10-12_19h15.12.760,vbt_B2_day2,2022.2.4,Win32,143.9884809,,,,,,,,,,,,,,,,,,,,,,,,,,,down,0,4.4368,,0.339583333,-0.097916667,1,0,0,0.3404,0,189,189,62,1,knaap,images/br_knaap.png,images/cb_knaap.png,0,,,,,,,,,,,,,,,,,,,,,,
,,,,,,,2023-10-12_19h15.12.760,vbt_B2_day2,2022.2.4,Win32,143.9884809,,,,,,,,,,,,,,,,,,,,,,,,,,,down,0,6.7445,,0.339583333,-0.099305556,1,0,0,0.382,0,190,190,46,1,jagen,images/br_jagen.png,images/cb_jagen.png,0,,,,,,,,,,,,,,,,,,,,,,
,,,,,,,2023-10-12_19h15.12.760,vbt_B2_day2,2022.2.4,Win32,143.9884809,,,,,,,,,,,,,,,,,,,,,,,,,,,down,0,12.763,,0.339583333,-0.099305556,1,0,0,0.2917,0,191,191,124,1,bloeien,images/br_bloeien.png,images/cb_bloeien.png,0,,,,,,,,,,,,,,,,,,,,,,
,,,,,,,2023-10-12_19h15.12.760,vbt_B2_day2,2022.2.4,Win32,143.9884809,,,,,,,,,,,,,,,,,,,,,,,,,,,down,0,3.7376,,0.339583333,-0.099305556,1,0,0,0.3334,0,192,192,151,1,aanzoek,images/br_aanzoek.png,images/cb_aanzoek.png,0,,,,,,,,,,,,,,,,,,,,,,
,,,,,,,2023-10-12_19h15.12.760,vbt_B2_day2,2022.2.4,Win32,143.9884809,,,,,,,,,,,,,,,,,,,,,,,,,,,down,0,1.9097,,0.339583333,-0.099305556,1,0,0,0.3473,0,193,193,32,1,palm,images/br_palm.png,images/cb_palm.png,0,,,,,,,,,,,,,,,,,,,,,,
,,,,,,,2023-10-12_19h15.12.760,vbt_B2_day2,2022.2.4,Win32,143.9884809,,,,,,,,,,,,,,,,,,,,,,,,,,,down,0,6.4865,,0.339583333,-0.099305556,1,0,0,0.3125,0,194,194,82,1,muziek,images/br_muziek.png,images/cb_muziek.png,0,,,,,,,,,,,,,,,,,,,,,,
,,,,,,,2023-10-12_19h15.12.760,vbt_B2_day2,2022.2.4,Win32,143.9884809,,,,,,,,,,,,,,,,,,,,,,,,,,,down,0,11.963,,0.339583333,-0.099305556,1,0,0,0.3264,0,195,195,157,1,uitlaat,images/br_uitlaat.png,images/cb_uitlaat.png,0,,,,,,,,,,,,,,,,,,,,,,
,,,,,,,2023-10-12_19h15.12.760,vbt_B2_day2,2022.2.4,Win32,143.9884809,,,,,,,,,,,,,,,,,,,,,,,,,,,down,0,3.8454,,0.339583333,-0.099305556,1,0,0,0.3611,0,196,196,140,1,blijven,images/br_blijven.png,images/cb_blijven.png,0,,,,,,,,,,,,,,,,,,,,,,
,,,,,,,2023-10-12_19h15.12.760,vbt_B2_day2,2022.2.4,Win32,143.9884809,,,,,,,,,,,,,,,,,,,,,,,,,,,down,0,10.5532,,0.339583333,-0.099305556,1,0,0,1.3544,0,197,197,193,1,weeshuis,images/br_weeshuis.png,images/cb_weeshuis.png,0,,,,,,,,,,,,,,,,,,,,,,
,,,,,,,2023-10-12_19h15.12.760,vbt_B2_day2,2022.2.4,Win32,143.9884809,,,,,,,,,,,,,,,,,,,,,,,,,,,down,0,2.6542,,0.339583333,-0.099305556,1,0,0,0.3542,0,198,198,61,1,groen,images/br_groen.png,images/cb_groen.png,0,,,,,,,,,,,,,,,,,,,,,,
,,,,,,,2023-10-12_19h15.12.760,vbt_B2_day2,2022.2.4,Win32,143.9884809,,,,,,,,,,,,,,,,,,,,,,,,,,,down,0,1.9489,,0.339583333,-0.10625,1,0,0,0.3195,0,199,199,81,1,dubbel,images/br_dubbel.png,images/cb_dubbel.png,0,,,,,,,,,,,,,,,,,,,,,,
,,,,,,,2023-10-12_19h15.12.760,vbt_B2_day2,2022.2.4,Win32,143.9884809,,,,,,,,,,,,,,,,,,,,,,,,,,,,,,,,,,,,,,,,,,,,,,,0.343055556,-0.110416667,1,0,0,,,,,,,,,,,,,,,,
,,,,,,,2023-10-12_19h15.12.760,vbt_B2_day2,2022.2.4,Win32,143.9884809,,,,,,,,,,,,,,,,,,,,,,,,,,,,,,,,,,,,,,,,,,,,,,,,,,,,0.64375,0.053472222,1,0,0,,,,,,,,,,,
,,,,,,,2023-10-12_19h15.12.760,vbt_B2_day2,2022.2.4,Win32,143.9884809,,,,,,,,,,,,,,,,,,,,,,,,,,,,,,,,,,,,,,,,,,sifferd,images/br_sifferd.png,images/cb_sifferd.png,,seff...,,,,,,,,,,,0.638888889,0.051388889,1,0,0,seff...,0,0,0,32,1
,,,,,,,2023-10-12_19h15.12.760,vbt_B2_day2,2022.2.4,Win32,143.9884809,,,,,,,,,,,,,,,,,,,,,,,,,,,,,,,,,,,,,,,,,,welzijn,images/br_welzijn.png,images/cb_welzijn.png,,kilzij.,,,,,,,,,,,0.638888889,0.051388889,1,0,0,kilzij.,0,1,1,52,1
,,,,,,,2023-10-12_19h15.12.760,vbt_B2_day2,2022.2.4,Win32,143.9884809,,,,,,,,,,,,,,,,,,,,,,,,,,,,,,,,,,,,,,,,,,prekken,images/br_prekken.png,images/cb_prekken.png,,prekken,,,,,,,,,,,0.638888889,0.051388889,1,0,0,prekken,0,2,2,34,1
,,,,,,,2023-10-12_19h15.12.760,vbt_B2_day2,2022.2.4,Win32,143.9884809,,,,,,,,,,,,,,,,,,,,,,,,,,,,,,,,,,,,,,,,,,lurgen,images/br_lurgen.png,images/cb_lurgen.png,,lurgen,,,,,,,,,,,0.638888889,0.051388889,1,0,0,lurgen,0,3,3,29,1
,,,,,,,2023-10-12_19h15.12.760,vbt_B2_day2,2022.2.4,Win32,143.9884809,,,,,,,,,,,,,,,,,,,,,,,,,,,,,,,,,,,,,,,,,,thema,images/br_thema.png,images/cb_thema.png,,thuia,,,,,,,,,,,0.638888889,0.051388889,1,0,0,thuia,0,4,4,47,1
,,,,,,,2023-10-12_19h15.12.760,vbt_B2_day2,2022.2.4,Win32,143.9884809,,,,,,,,,,,,,,,,,,,,,,,,,,,,,,,,,,,,,,,,,,opdatten,images/br_opdatten.png,images/cb_opdatten.png,,opdatten,,,,,,,,,,,0.638888889,0.051388889,1,0,0,opdatten,0,5,5,37,1
,,,,,,,2023-10-12_19h15.12.760,vbt_B2_day2,2022.2.4,Win32,143.9884809,,,,,,,,,,,,,,,,,,,,,,,,,,,,,,,,,,,,,,,,,,tweeling,images/br_tweeling.png,images/cb_tweeling.png,,tweeling,,,,,,,,,,,0.638888889,0.051388889,1,0,0,tweeling,0,6,6,58,1
,,,,,,,2023-10-12_19h15.12.760,vbt_B2_day2,2022.2.4,Win32,143.9884809,,,,,,,,,,,,,,,,,,,,,,,,,,,,,,,,,,,,,,,,,,diep,images/br_diep.png,images/cb_diep.png,,diep,,,,,,,,,,,0.709027778,-0.141666667,1,0,0,diep,0,7,7,2,1
,,,,,,,2023-10-12_19h15.12.760,vbt_B2_day2,2022.2.4,Win32,143.9884809,,,,,,,,,,,,,,,,,,,,,,,,,,,,,,,,,,,,,,,,,,sjijfel,images/br_sjijfel.png,images/cb_sjijfel.png,,sjij...,,,,,,,,,,,0.597916667,-0.077083333,1,0,0,sjij...,0,8,8,33,1
,,,,,,,2023-10-12_19h15.12.760,vbt_B2_day2,2022.2.4,Win32,143.9884809,,,,,,,,,,,,,,,,,,,,,,,,,,,,,,,,,,,,,,,,,,heilig,images/br_heilig.png,images/cb_heilig.png,,heilen,,,,,,,,,,,0.597916667,-0.077083333,1,0,0,heilen,0,9,9,9,1
,,,,,,,2023-10-12_19h15.12.760,vbt_B2_day2,2022.2.4,Win32,143.9884809,,,,,,,,,,,,,,,,,,,,,,,,,,,,,,,,,,,,,,,,,,aanvraag,images/br_aanvraag.png,images/cb_aanvraag.png,,aanvraag,,,,,,,,,,,0.597916667,-0.077083333,1,0,0,aanvraag,0,10,10,57,1
,,,,,,,2023-10-12_19h15.12.760,vbt_B2_day2,2022.2.4,Win32,143.9884809,,,,,,,,,,,,,,,,,,,,,,,,,,,,,,,,,,,,,,,,,,doodmoe,images/br_doodmoe.png,images/cb_doodmoe.png,,doodoui,,,,,,,,,,,0.597916667,-0.077083333,1,0,0,doodoui,0,11,11,15,1
,,,,,,,2023-10-12_19h15.12.760,vbt_B2_day2,2022.2.4,Win32,143.9884809,,,,,,,,,,,,,,,,,,,,,,,,,,,,,,,,,,,,,,,,,,geld,images/br_geld.png,images/cb_geld.png,,geld,,,,,,,,,,,0.597916667,-0.077083333,1,0,0,geld,0,12,12,3,1
,,,,,,,2023-10-12_19h15.12.760,vbt_B2_day2,2022.2.4,Win32,143.9884809,,,,,,,,,,,,,,,,,,,,,,,,,,,,,,,,,,,,,,,,,,stes,images/br_stes.png,images/cb_stes.png,,stes,,,,,,,,,,,0.597916667,-0.077083333,1,0,0,stes,0,13,13,21,1
,,,,,,,2023-10-12_19h15.12.760,vbt_B2_day2,2022.2.4,Win32,143.9884809,,,,,,,,,,,,,,,,,,,,,,,,,,,,,,,,,,,,,,,,,,remel,images/br_remel.png,images/cb_remel.png,,remel,,,,,,,,,,,0.597916667,-0.077083333,1,0,0,remel,0,14,14,25,1
,,,,,,,2023-10-12_19h15.12.760,vbt_B2_day2,2022.2.4,Win32,143.9884809,,,,,,,,,,,,,,,,,,,,,,,,,,,,,,,,,,,,,,,,,,kijlen,images/br_kijlen.png,images/cb_kijlen.png,,keilen,,,,,,,,,,,0.597916667,-0.077083333,1,0,0,keilen,0,15,15,31,1
,,,,,,,2023-10-12_19h15.12.760,vbt_B2_day2,2022.2.4,Win32,143.9884809,,,,,,,,,,,,,,,,,,,,,,,,,,,,,,,,,,,,,,,,,,eenhoorn,images/br_eenhoorn.png,images/cb_eenhoorn.png,,eenhoorn,,,,,,,,,,,0.597916667,-0.077083333,1,0,0,eenhoorn,0,16,16,19,1
,,,,,,,2023-10-12_19h15.12.760,vbt_B2_day2,2022.2.4,Win32,143.9884809,,,,,,,,,,,,,,,,,,,,,,,,,,,,,,,,,,,,,,,,,,breuk,images/br_breuk.png,images/cb_breuk.png,,breuk,,,,,,,,,,,0.597916667,-0.077083333,1,0,0,breuk,0,17,17,45,1
,,,,,,,2023-10-12_19h15.12.760,vbt_B2_day2,2022.2.4,Win32,143.9884809,,,,,,,,,,,,,,,,,,,,,,,,,,,,,,,,,,,,,,,,,,strikken,images/br_strikken.png,images/cb_strikken.png,,strikken,,,,,,,,,,,0.597916667,-0.077083333,1,0,0,strikken,0,18,18,18,1
,,,,,,,2023-10-12_19h15.12.760,vbt_B2_day2,2022.2.4,Win32,143.9884809,,,,,,,,,,,,,,,,,,,,,,,,,,,,,,,,,,,,,,,,,,flits,images/br_flits.png,images/cb_flits.png,,fl....,,,,,,,,,,,0.597916667,-0.077083333,1,0,0,fl....,0,19,19,4,1
,,,,,,,2023-10-12_19h15.12.760,vbt_B2_day2,2022.2.4,Win32,143.9884809,,,,,,,,,,,,,,,,,,,,,,,,,,,,,,,,,,,,,,,,,,feestdag,images/br_feestdag.png,images/cb_feestdag.png,,feestdag,,,,,,,,,,,0.597916667,-0.077083333,1,0,0,feestdag,0,20,20,17,1
,,,,,,,2023-10-12_19h15.12.760,vbt_B2_day2,2022.2.4,Win32,143.9884809,,,,,,,,,,,,,,,,,,,,,,,,,,,,,,,,,,,,,,,,,,jagen,images/br_jagen.png,images/cb_jagen.png,,jagen,,,,,,,,,,,0.599305556,-0.081944444,1,0,0,jagen,0,21,21,6,1
,,,,,,,2023-10-12_19h15.12.760,vbt_B2_day2,2022.2.4,Win32,143.9884809,,,,,,,,,,,,,,,,,,,,,,,,,,,,,,,,,,,,,,,,,,tand,images/br_tand.png,images/cb_tand.png,,tand,,,,,,,,,,,0.599305556,-0.081944444,1,0,0,tand,0,22,22,42,1
,,,,,,,2023-10-12_19h15.12.760,vbt_B2_day2,2022.2.4,Win32,143.9884809,,,,,,,,,,,,,,,,,,,,,,,,,,,,,,,,,,,,,,,,,,bloeien,images/br_bloeien.png,images/cb_bloeien.png,,bloeien,,,,,,,,,,,0.564583333,-0.041666667,1,0,0,bloeien,0,23,23,12,1
,,,,,,,2023-10-12_19h15.12.760,vbt_B2_day2,2022.2.4,Win32,143.9884809,,,,,,,,,,,,,,,,,,,,,,,,,,,,,,,,,,,,,,,,,,zwager,images/br_zwager.png,images/cb_zwager.png,,zwager,,,,,,,,,,,0.564583333,-0.041666667,1,0,0,zwager,0,24,24,49,1
,,,,,,,2023-10-12_19h15.12.760,vbt_B2_day2,2022.2.4,Win32,143.9884809,,,,,,,,,,,,,,,,,,,,,,,,,,,,,,,,,,,,,,,,,,inzicht,images/br_inzicht.png,images/cb_inzicht.png,,inzicht,,,,,,,,,,,0.564583333,-0.041666667,1,0,0,inzicht,0,25,25,53,1
,,,,,,,2023-10-12_19h15.12.760,vbt_B2_day2,2022.2.4,Win32,143.9884809,,,,,,,,,,,,,,,,,,,,,,,,,,,,,,,,,,,,,,,,,,krimmen,images/br_krimmen.png,images/cb_krimmen.png,,krimmen,,,,,,,,,,,0.564583333,-0.041666667,1,0,0,krimmen,0,26,26,35,1
,,,,,,,2023-10-12_19h15.12.760,vbt_B2_day2,2022.2.4,Win32,143.9884809,,,,,,,,,,,,,,,,,,,,,,,,,,,,,,,,,,,,,,,,,,badon,images/br_badon.png,images/cb_badon.png,,badon,,,,,,,,,,,0.564583333,-0.041666667,1,0,0,badon,0,27,27,26,1
,,,,,,,2023-10-12_19h15.12.760,vbt_B2_day2,2022.2.4,Win32,143.9884809,,,,,,,,,,,,,,,,,,,,,,,,,,,,,,,,,,,,,,,,,,moes,images/br_moes.png,images/cb_moes.png,,moes,,,,,,,,,,,0.564583333,-0.041666667,1,0,0,moes,0,28,28,0,1
,,,,,,,2023-10-12_19h15.12.760,vbt_B2_day2,2022.2.4,Win32,143.9884809,,,,,,,,,,,,,,,,,,,,,,,,,,,,,,,,,,,,,,,,,,lokken,images/br_lokken.png,images/cb_lokken.png,,lokken,,,,,,,,,,,0.564583333,-0.041666667,1,0,0,lokken,0,29,29,8,1
,,,,,,,2023-10-12_19h15.12.760,vbt_B2_day2,2022.2.4,Win32,143.9884809,,,,,,,,,,,,,,,,,,,,,,,,,,,,,,,,,,,,,,,,,,bereuwen,images/br_bereuwen.png,images/cb_bereuwen.png,,bereuk..,,,,,,,,,,,0.564583333,-0.041666667,1,0,0,bereuk..,0,30,30,39,1
,,,,,,,2023-10-12_19h15.12.760,vbt_B2_day2,2022.2.4,Win32,143.9884809,,,,,,,,,,,,,,,,,,,,,,,,,,,,,,,,,,,,,,,,,,kabel,images/br_kabel.png,images/cb_kabel.png,,kab..,,,,,,,,,,,0.564583333,-0.041666667,1,0,0,kab..,0,31,31,7,1
,,,,,,,2023-10-12_19h15.12.760,vbt_B2_day2,2022.2.4,Win32,143.9884809,,,,,,,,,,,,,,,,,,,,,,,,,,,,,,,,,,,,,,,,,,dode,images/br_dode.png,images/cb_dode.png,,dode,,,,,,,,,,,0.564583333,-0.041666667,1,0,0,dode,0,32,32,41,1
,,,,,,,2023-10-12_19h15.12.760,vbt_B2_day2,2022.2.4,Win32,143.9884809,,,,,,,,,,,,,,,,,,,,,,,,,,,,,,,,,,,,,,,,,,agressie,images/br_agressie.png,images/cb_agressie.png,,agressie,,,,,,,,,,,0.564583333,-0.041666667,1,0,0,agressie,0,33,33,59,1
,,,,,,,2023-10-12_19h15.12.760,vbt_B2_day2,2022.2.4,Win32,143.9884809,,,,,,,,,,,,,,,,,,,,,,,,,,,,,,,,,,,,,,,,,,kasteel,images/br_kasteel.png,images/cb_kasteel.png,,kasteel,,,,,,,,,,,0.564583333,-0.041666667,1,0,0,kasteel,0,34,34,14,1
,,,,,,,2023-10-12_19h15.12.760,vbt_B2_day2,2022.2.4,Win32,143.9884809,,,,,,,,,,,,,,,,,,,,,,,,,,,,,,,,,,,,,,,,,,systeem,images/br_systeem.png,images/cb_systeem.png,,systeem,,,,,,,,,,,0.564583333,-0.041666667,1,0,0,systeem,0,35,35,54,1
,,,,,,,2023-10-12_19h15.12.760,vbt_B2_day2,2022.2.4,Win32,143.9884809,,,,,,,,,,,,,,,,,,,,,,,,,,,,,,,,,,,,,,,,,,wijve,images/br_wijve.png,images/cb_wijve.png,,kijve,,,,,,,,,,,0.564583333,-0.041666667,1,0,0,kijve,0,36,36,27,1
,,,,,,,2023-10-12_19h15.12.760,vbt_B2_day2,2022.2.4,Win32,143.9884809,,,,,,,,,,,,,,,,,,,,,,,,,,,,,,,,,,,,,,,,,,joes,images/br_joes.png,images/cb_joes.png,,joes,,,,,,,,,,,0.564583333,-0.041666667,1,0,0,joes,0,37,37,20,1
,,,,,,,2023-10-12_19h15.12.760,vbt_B2_day2,2022.2.4,Win32,143.9884809,,,,,,,,,,,,,,,,,,,,,,,,,,,,,,,,,,,,,,,,,,kenzis,images/br_kenzis.png,images/cb_kenzis.png,,kenzis,,,,,,,,,,,0.564583333,-0.041666667,1,0,0,kenzis,0,38,38,30,1
,,,,,,,2023-10-12_19h15.12.760,vbt_B2_day2,2022.2.4,Win32,143.9884809,,,,,,,,,,,,,,,,,,,,,,,,,,,,,,,,,,,,,,,,,,sora,images/br_sora.png,images/cb_sora.png,,sora,,,,,,,,,,,0.564583333,-0.041666667,1,0,0,sora,0,39,39,22,1
,,,,,,,2023-10-12_19h15.12.760,vbt_B2_day2,2022.2.4,Win32,143.9884809,,,,,,,,,,,,,,,,,,,,,,,,,,,,,,,,,,,,,,,,,,ningen,images/br_ningen.png,images/cb_ningen.png,,ningen,,,,,,,,,,,0.564583333,-0.041666667,1,0,0,ningen,0,40,40,28,1
,,,,,,,2023-10-12_19h15.12.760,vbt_B2_day2,2022.2.4,Win32,143.9884809,,,,,,,,,,,,,,,,,,,,,,,,,,,,,,,,,,,,,,,,,,zomers,images/br_zomers.png,images/cb_zomers.png,,zomers,,,,,,,,,,,0.564583333,-0.041666667,1,0,0,zomers,0,41,41,48,1
,,,,,,,2023-10-12_19h15.12.760,vbt_B2_day2,2022.2.4,Win32,143.9884809,,,,,,,,,,,,,,,,,,,,,,,,,,,,,,,,,,,,,,,,,,lijnen,images/br_lijnen.png,images/cb_lijnen.png,,lijnen,,,,,,,,,,,0.564583333,-0.041666667,1,0,0,lijnen,0,42,42,51,1
,,,,,,,2023-10-12_19h15.12.760,vbt_B2_day2,2022.2.4,Win32,143.9884809,,,,,,,,,,,,,,,,,,,,,,,,,,,,,,,,,,,,,,,,,,koorts,images/br_koorts.png,images/cb_koorts.png,,koorts,,,,,,,,,,,0.5625,-0.042361111,1,0,0,koorts,0,43,43,50,1
,,,,,,,2023-10-12_19h15.12.760,vbt_B2_day2,2022.2.4,Win32,143.9884809,,,,,,,,,,,,,,,,,,,,,,,,,,,,,,,,,,,,,,,,,,clan,images/br_clan.png,images/cb_clan.png,,clan,,,,,,,,,,,0.5625,-0.042361111,1,0,0,clan,0,44,44,40,1
,,,,,,,2023-10-12_19h15.12.760,vbt_B2_day2,2022.2.4,Win32,143.9884809,,,,,,,,,,,,,,,,,,,,,,,,,,,,,,,,,,,,,,,,,,aanzien,images/br_aanzien.png,images/cb_aanzien.png,,aanzien,,,,,,,,,,,0.556944444,-0.04375,1,0,0,aanzien,0,45,45,13,1
,,,,,,,2023-10-12_19h15.12.760,vbt_B2_day2,2022.2.4,Win32,143.9884809,,,,,,,,,,,,,,,,,,,,,,,,,,,,,,,,,,,,,,,,,,zegel,images/br_zegel.png,images/cb_zegel.png,,zegel,,,,,,,,,,,0.556944444,-0.04375,1,0,0,zegel,0,46,46,46,1
,,,,,,,2023-10-12_19h15.12.760,vbt_B2_day2,2022.2.4,Win32,143.9884809,,,,,,,,,,,,,,,,,,,,,,,,,,,,,,,,,,,,,,,,,,piste,images/br_piste.png,images/cb_piste.png,,piste,,,,,,,,,,,0.556944444,-0.042361111,1,0,0,piste,0,47,47,5,1
,,,,,,,2023-10-12_19h15.12.760,vbt_B2_day2,2022.2.4,Win32,143.9884809,,,,,,,,,,,,,,,,,,,,,,,,,,,,,,,,,,,,,,,,,,trots,images/br_trots.png,images/cb_trots.png,,trots,,,,,,,,,,,0.556944444,-0.042361111,1,0,0,trots,0,48,48,44,1
,,,,,,,2023-10-12_19h15.12.760,vbt_B2_day2,2022.2.4,Win32,143.9884809,,,,,,,,,,,,,,,,,,,,,,,,,,,,,,,,,,,,,,,,,,anarchie,images/br_anarchie.png,images/cb_anarchie.png,,anarchie,,,,,,,,,,,0.556944444,-0.042361111,1,0,0,anarchie,0,49,49,16,1
,,,,,,,2023-10-12_19h15.12.760,vbt_B2_day2,2022.2.4,Win32,143.9884809,,,,,,,,,,,,,,,,,,,,,,,,,,,,,,,,,,,,,,,,,,toeval,images/br_toeval.png,images/cb_toeval.png,,toeval,,,,,,,,,,,0.556944444,-0.042361111,1,0,0,toeval,0,50,50,11,1
,,,,,,,2023-10-12_19h15.12.760,vbt_B2_day2,2022.2.4,Win32,143.9884809,,,,,,,,,,,,,,,,,,,,,,,,,,,,,,,,,,,,,,,,,,plannen,images/br_plannen.png,images/cb_plannen.png,,plannen,,,,,,,,,,,0.556944444,-0.042361111,1,0,0,plannen,0,51,51,55,1
,,,,,,,2023-10-12_19h15.12.760,vbt_B2_day2,2022.2.4,Win32,143.9884809,,,,,,,,,,,,,,,,,,,,,,,,,,,,,,,,,,,,,,,,,,negel,images/br_negel.png,images/cb_negel.png,,negel,,,,,,,,,,,0.556944444,-0.045833333,1,0,0,negel,0,52,52,24,1
,,,,,,,2023-10-12_19h15.12.760,vbt_B2_day2,2022.2.4,Win32,143.9884809,,,,,,,,,,,,,,,,,,,,,,,,,,,,,,,,,,,,,,,,,,blad,images/br_blad.png,images/cb_blad.png,,clad,,,,,,,,,,,0.556944444,-0.045833333,1,0,0,clad,0,53,53,1,1
,,,,,,,2023-10-12_19h15.12.760,vbt_B2_day2,2022.2.4,Win32,143.9884809,,,,,,,,,,,,,,,,,,,,,,,,,,,,,,,,,,,,,,,,,,heengeen,images/br_heengeen.png,images/cb_heengeen.png,,heengaa.,,,,,,,,,,,0.556944444,-0.045833333,1,0,0,heengaa.,0,54,54,38,1
,,,,,,,2023-10-12_19h15.12.760,vbt_B2_day2,2022.2.4,Win32,143.9884809,,,,,,,,,,,,,,,,,,,,,,,,,,,,,,,,,,,,,,,,,,manieren,images/br_manieren.png,images/cb_manieren.png,,manie....,,,,,,,,,,,0.556944444,-0.045833333,1,0,0,manie....,0,55,55,56,1
,,,,,,,2023-10-12_19h15.12.760,vbt_B2_day2,2022.2.4,Win32,143.9884809,,,,,,,,,,,,,,,,,,,,,,,,,,,,,,,,,,,,,,,,,,jong,images/br_jong.png,images/cb_jong.png,,jong,,,,,,,,,,,0.505555556,0.040972222,1,0,0,jong,0,56,56,43,1
,,,,,,,2023-10-12_19h15.12.760,vbt_B2_day2,2022.2.4,Win32,143.9884809,,,,,,,,,,,,,,,,,,,,,,,,,,,,,,,,,,,,,,,,,,woning,images/br_woning.png,images/cb_woning.png,,woning,,,,,,,,,,,0.491666667,0.009027778,1,0,0,woning,0,57,57,10,1
,,,,,,,2023-10-12_19h15.12.760,vbt_B2_day2,2022.2.4,Win32,143.9884809,,,,,,,,,,,,,,,,,,,,,,,,,,,,,,,,,,,,,,,,,,goon,images/br_goon.png,images/cb_goon.png,,goon,,,,,,,,,,,0.491666667,0.009027778,1,0,0,goon,0,58,58,23,1
,,,,,,,2023-10-12_19h15.12.760,vbt_B2_day2,2022.2.4,Win32,143.9884809,,,,,,,,,,,,,,,,,,,,,,,,,,,,,,,,,,,,,,,,,,ophuimen,images/br_ophuimen.png,images/cb_ophuimen.png,,ophuimen,,,,,,,,,,,0.491666667,0.009027778,1,0,0,ophuimen,0,59,59,36,1
,,,,,,,2023-10-12_19h15.12.760,vbt_B2_day2,2022.2.4,Win32,143.9884809,,,,,,,,,,,,,,,,,,,,,,,,,,,,,,,,,,,,,,,,,,,,,,,,,,,,,,,,,,,,,,,,,,,
