welcome_mouse.x,welcome_mouse.y,welcome_mouse.leftButton,welcome_mouse.midButton,welcome_mouse.rightButton,welcome_mouse.time,"ID",date,expName,psychopyVersion,OS,frameRate,refresh_mouse.x,refresh_mouse.y,refresh_mouse.leftButton,refresh_mouse.midButton,refresh_mouse.rightButton,refresh_mouse.time,braille_mouse.x,braille_mouse.y,braille_mouse.leftButton,braille_mouse.midButton,braille_mouse.rightButton,braille_mouse.time,trials.thisRepN,trials.thisTrialN,trials.thisN,trials.thisIndex,trials.ran,nlLet,brLet,cbLet,trainInstr_mouse.x,trainInstr_mouse.y,trainInstr_mouse.leftButton,trainInstr_mouse.midButton,trainInstr_mouse.rightButton,trainInstr_mouse.time,translation_key.keys,translation_key.corr,translation_key.rt,testResp,word_rsp.text,word_mouse.x,word_mouse.y,word_mouse.leftButton,word_mouse.midButton,word_mouse.rightButton,word_mouse.time,train_loop.thisRepN,train_loop.thisTrialN,train_loop.thisN,train_loop.thisIndex,train_loop.ran,nlWrd,brWrd,cbWrd,test,mouse.x,mouse.y,mouse.leftButton,mouse.midButton,mouse.rightButton,testInstr_mouse.x,testInstr_mouse.y,testInstr_mouse.leftButton,testInstr_mouse.midButton,testInstr_mouse.rightButton,test_mouse.x,test_mouse.y,test_mouse.leftButton,test_mouse.midButton,test_mouse.rightButton,test_response.text,test_loop.thisRepN,test_loop.thisTrialN,test_loop.thisN,test_loop.thisIndex,test_loop.ran
-0.166666667,-0.264444444,1,0,0,15.692,00104,2023-11-21_15h56.18.358,vbt_B2_day2,2022.2.4,MacIntel,32.25806452,,,,,,,,,,,,,,,,,,,,,,,,,,,,,,,,,,,,,,,,,,,,,,,,,,,,,,,,,,,,,,,,,,,
,,,,,,00104,2023-11-21_15h56.18.358,vbt_B2_day2,2022.2.4,MacIntel,32.25806452,-0.165555556,-0.266666667,1,0,0,2.279,,,,,,,,,,,,,,,,,,,,,,,,,,,,,,,,,,,,,,,,,,,,,,,,,,,,,,,,,,,,,
,,,,,,00104,2023-11-21_15h56.18.358,vbt_B2_day2,2022.2.4,MacIntel,32.25806452,,,,,,,-0.167777778,-0.254444444,1,0,0,17.519,0,0,0,10,1,k,images/br_k.png,images/cb_k.png,,,,,,,,,,,,,,,,,,,,,,,,,,,,,,,,,,,,,,,,,,,,,,,
,,,,,,00104,2023-11-21_15h56.18.358,vbt_B2_day2,2022.2.4,MacIntel,32.25806452,,,,,,,-0.167777778,-0.254444444,1,0,0,3.1,0,1,1,6,1,g,images/br_g.png,images/cb_g.png,,,,,,,,,,,,,,,,,,,,,,,,,,,,,,,,,,,,,,,,,,,,,,,
,,,,,,00104,2023-11-21_15h56.18.358,vbt_B2_day2,2022.2.4,MacIntel,32.25806452,,,,,,,-0.167777778,-0.254444444,1,0,0,0.85,0,2,2,24,1,y,images/br_y.png,images/cb_y.png,,,,,,,,,,,,,,,,,,,,,,,,,,,,,,,,,,,,,,,,,,,,,,,
,,,,,,00104,2023-11-21_15h56.18.358,vbt_B2_day2,2022.2.4,MacIntel,32.25806452,,,,,,,-0.167777778,-0.254444444,1,0,0,1.933,0,3,3,16,1,q,images/br_q.png,images/cb_q.png,,,,,,,,,,,,,,,,,,,,,,,,,,,,,,,,,,,,,,,,,,,,,,,
,,,,,,00104,2023-11-21_15h56.18.358,vbt_B2_day2,2022.2.4,MacIntel,32.25806452,,,,,,,-0.167777778,-0.254444444,1,0,0,0.733,0,4,4,3,1,d,images/br_d.png,images/cb_d.png,,,,,,,,,,,,,,,,,,,,,,,,,,,,,,,,,,,,,,,,,,,,,,,
,,,,,,00104,2023-11-21_15h56.18.358,vbt_B2_day2,2022.2.4,MacIntel,32.25806452,,,,,,,-0.167777778,-0.254444444,1,0,0,2.066,0,5,5,17,1,r,images/br_r.png,images/cb_r.png,,,,,,,,,,,,,,,,,,,,,,,,,,,,,,,,,,,,,,,,,,,,,,,
,,,,,,00104,2023-11-21_15h56.18.358,vbt_B2_day2,2022.2.4,MacIntel,32.25806452,,,,,,,-0.167777778,-0.254444444,1,0,0,0.05,0,6,6,1,1,b,images/br_b.png,images/cb_b.png,,,,,,,,,,,,,,,,,,,,,,,,,,,,,,,,,,,,,,,,,,,,,,,
,,,,,,00104,2023-11-21_15h56.18.358,vbt_B2_day2,2022.2.4,MacIntel,32.25806452,,,,,,,-0.167777778,-0.254444444,1,0,0,3.716,0,7,7,5,1,f,images/br_f.png,images/cb_f.png,,,,,,,,,,,,,,,,,,,,,,,,,,,,,,,,,,,,,,,,,,,,,,,
,,,,,,00104,2023-11-21_15h56.18.358,vbt_B2_day2,2022.2.4,MacIntel,32.25806452,,,,,,,-0.167777778,-0.254444444,1,0,0,0.283,0,8,8,2,1,c,images/br_c.png,images/cb_c.png,,,,,,,,,,,,,,,,,,,,,,,,,,,,,,,,,,,,,,,,,,,,,,,
,,,,,,00104,2023-11-21_15h56.18.358,vbt_B2_day2,2022.2.4,MacIntel,32.25806452,,,,,,,-0.167777778,-0.254444444,1,0,0,5.35,0,9,9,23,1,x,images/br_x.png,images/cb_x.png,,,,,,,,,,,,,,,,,,,,,,,,,,,,,,,,,,,,,,,,,,,,,,,
,,,,,,00104,2023-11-21_15h56.18.358,vbt_B2_day2,2022.2.4,MacIntel,32.25806452,,,,,,,-0.167777778,-0.254444444,1,0,0,4.2,0,10,10,15,1,p,images/br_p.png,images/cb_p.png,,,,,,,,,,,,,,,,,,,,,,,,,,,,,,,,,,,,,,,,,,,,,,,
,,,,,,00104,2023-11-21_15h56.18.358,vbt_B2_day2,2022.2.4,MacIntel,32.25806452,,,,,,,-0.167777778,-0.254444444,1,0,0,2.232,0,11,11,21,1,v,images/br_v.png,images/cb_v.png,,,,,,,,,,,,,,,,,,,,,,,,,,,,,,,,,,,,,,,,,,,,,,,
,,,,,,00104,2023-11-21_15h56.18.358,vbt_B2_day2,2022.2.4,MacIntel,32.25806452,,,,,,,-0.167777778,-0.254444444,1,0,0,0.833,0,12,12,13,1,n,images/br_n.png,images/cb_n.png,,,,,,,,,,,,,,,,,,,,,,,,,,,,,,,,,,,,,,,,,,,,,,,
,,,,,,00104,2023-11-21_15h56.18.358,vbt_B2_day2,2022.2.4,MacIntel,32.25806452,,,,,,,-0.167777778,-0.254444444,1,0,0,2.867,0,13,13,0,1,a,images/br_a.png,images/cb_a.png,,,,,,,,,,,,,,,,,,,,,,,,,,,,,,,,,,,,,,,,,,,,,,,
,,,,,,00104,2023-11-21_15h56.18.358,vbt_B2_day2,2022.2.4,MacIntel,32.25806452,,,,,,,-0.167777778,-0.254444444,1,0,0,3.682,0,14,14,4,1,e,images/br_e.png,images/cb_e.png,,,,,,,,,,,,,,,,,,,,,,,,,,,,,,,,,,,,,,,,,,,,,,,
,,,,,,00104,2023-11-21_15h56.18.358,vbt_B2_day2,2022.2.4,MacIntel,32.25806452,,,,,,,-0.167777778,-0.254444444,1,0,0,0.267,0,15,15,19,1,t,images/br_t.png,images/cb_t.png,,,,,,,,,,,,,,,,,,,,,,,,,,,,,,,,,,,,,,,,,,,,,,,
,,,,,,00104,2023-11-21_15h56.18.358,vbt_B2_day2,2022.2.4,MacIntel,32.25806452,,,,,,,-0.167777778,-0.254444444,1,0,0,3.183,0,16,16,12,1,m,images/br_m.png,images/cb_m.png,,,,,,,,,,,,,,,,,,,,,,,,,,,,,,,,,,,,,,,,,,,,,,,
,,,,,,00104,2023-11-21_15h56.18.358,vbt_B2_day2,2022.2.4,MacIntel,32.25806452,,,,,,,-0.167777778,-0.254444444,1,0,0,7.783,0,17,17,20,1,u,images/br_u.png,images/cb_u.png,,,,,,,,,,,,,,,,,,,,,,,,,,,,,,,,,,,,,,,,,,,,,,,
,,,,,,00104,2023-11-21_15h56.18.358,vbt_B2_day2,2022.2.4,MacIntel,32.25806452,,,,,,,-0.167777778,-0.254444444,1,0,0,1.65,0,18,18,9,1,j,images/br_j.png,images/cb_j.png,,,,,,,,,,,,,,,,,,,,,,,,,,,,,,,,,,,,,,,,,,,,,,,
,,,,,,00104,2023-11-21_15h56.18.358,vbt_B2_day2,2022.2.4,MacIntel,32.25806452,,,,,,,-0.167777778,-0.254444444,1,0,0,2.866,0,19,19,25,1,z,images/br_z.png,images/cb_z.png,,,,,,,,,,,,,,,,,,,,,,,,,,,,,,,,,,,,,,,,,,,,,,,
,,,,,,00104,2023-11-21_15h56.18.358,vbt_B2_day2,2022.2.4,MacIntel,32.25806452,,,,,,,-0.167777778,-0.254444444,1,0,0,2.05,0,20,20,8,1,i,images/br_i.png,images/cb_i.png,,,,,,,,,,,,,,,,,,,,,,,,,,,,,,,,,,,,,,,,,,,,,,,
,,,,,,00104,2023-11-21_15h56.18.358,vbt_B2_day2,2022.2.4,MacIntel,32.25806452,,,,,,,-0.167777778,-0.254444444,1,0,0,8.5,0,21,21,22,1,w,images/br_w.png,images/cb_w.png,,,,,,,,,,,,,,,,,,,,,,,,,,,,,,,,,,,,,,,,,,,,,,,
,,,,,,00104,2023-11-21_15h56.18.358,vbt_B2_day2,2022.2.4,MacIntel,32.25806452,,,,,,,-0.167777778,-0.254444444,1,0,0,54.252,0,22,22,7,1,h,images/br_h.png,images/cb_h.png,,,,,,,,,,,,,,,,,,,,,,,,,,,,,,,,,,,,,,,,,,,,,,,
,,,,,,00104,2023-11-21_15h56.18.358,vbt_B2_day2,2022.2.4,MacIntel,32.25806452,,,,,,,-0.167777778,-0.254444444,1,0,0,3.033,0,23,23,14,1,o,images/br_o.png,images/cb_o.png,,,,,,,,,,,,,,,,,,,,,,,,,,,,,,,,,,,,,,,,,,,,,,,
,,,,,,00104,2023-11-21_15h56.18.358,vbt_B2_day2,2022.2.4,MacIntel,32.25806452,,,,,,,-0.167777778,-0.254444444,1,0,0,1.434,0,24,24,11,1,l,images/br_l.png,images/cb_l.png,,,,,,,,,,,,,,,,,,,,,,,,,,,,,,,,,,,,,,,,,,,,,,,
,,,,,,00104,2023-11-21_15h56.18.358,vbt_B2_day2,2022.2.4,MacIntel,32.25806452,,,,,,,-0.167777778,-0.254444444,1,0,0,4.584,0,25,25,18,1,s,images/br_s.png,images/cb_s.png,,,,,,,,,,,,,,,,,,,,,,,,,,,,,,,,,,,,,,,,,,,,,,,
,,,,,,00104,2023-11-21_15h56.18.358,vbt_B2_day2,2022.2.4,MacIntel,32.25806452,,,,,,,,,,,,,,,,,,,,,-0.167777778,-0.254444444,1,0,0,36.161,,,,,,,,,,,,,,,,,,,,,,,,,,,,,,,,,,,,,,,,,
,,,,,,00104,2023-11-21_15h56.18.358,vbt_B2_day2,2022.2.4,MacIntel,32.25806452,,,,,,,,,,,,,,,,,,,,,,,,,,,down,0,26.694,kreeft,,-0.167777778,-0.254444444,1,0,0,4.443,0,0,0,98,1,kreeft,images/br_kreeft.png,images/cb_kreeft.png,1,,,,,,,,,,,,,,,,,,,,,
,,,,,,00104,2023-11-21_15h56.18.358,vbt_B2_day2,2022.2.4,MacIntel,32.25806452,,,,,,,,,,,,,,,,,,,,,,,,,,,down,0,25.837,,,-0.167777778,-0.254444444,1,0,0,9.851,0,1,1,133,1,seizoen,images/br_seizoen.png,images/cb_seizoen.png,0,,,,,,,,,,,,,,,,,,,,,
,,,,,,00104,2023-11-21_15h56.18.358,vbt_B2_day2,2022.2.4,MacIntel,32.25806452,,,,,,,,,,,,,,,,,,,,,,,,,,,down,0,26.623,,,-0.167777778,-0.254444444,1,0,0,2.068,0,2,2,124,1,bloeien,images/br_bloeien.png,images/cb_bloeien.png,0,,,,,,,,,,,,,,,,,,,,,
,,,,,,00104,2023-11-21_15h56.18.358,vbt_B2_day2,2022.2.4,MacIntel,32.25806452,,,,,,,,,,,,,,,,,,,,,,,,,,,down,0,6.606,,,-0.167777778,-0.254444444,1,0,0,1.05,0,3,3,53,1,baron,images/br_baron.png,images/cb_baron.png,0,,,,,,,,,,,,,,,,,,,,,
,,,,,,00104,2023-11-21_15h56.18.358,vbt_B2_day2,2022.2.4,MacIntel,32.25806452,,,,,,,,,,,,,,,,,,,,,,,,,,,down,0,6.789,,,-0.167777778,-0.254444444,1,0,0,0.751,0,4,4,61,1,groen,images/br_groen.png,images/cb_groen.png,0,,,,,,,,,,,,,,,,,,,,,
,,,,,,00104,2023-11-21_15h56.18.358,vbt_B2_day2,2022.2.4,MacIntel,32.25806452,,,,,,,,,,,,,,,,,,,,,,,,,,,down,0,2.5,,,-0.167777778,-0.254444444,1,0,0,0.817,0,5,5,1,1,zaal,images/br_zaal.png,images/cb_zaal.png,0,,,,,,,,,,,,,,,,,,,,,
,,,,,,00104,2023-11-21_15h56.18.358,vbt_B2_day2,2022.2.4,MacIntel,32.25806452,,,,,,,,,,,,,,,,,,,,,,,,,,,down,0,18.637,,,-0.167777778,-0.254444444,1,0,0,9.584,0,6,6,60,1,jasje,images/br_jasje.png,images/cb_jasje.png,0,,,,,,,,,,,,,,,,,,,,,
,,,,,,00104,2023-11-21_15h56.18.358,vbt_B2_day2,2022.2.4,MacIntel,32.25806452,,,,,,,,,,,,,,,,,,,,,,,,,,,down,0,22.019,steek,,-0.167777778,-0.254444444,1,0,0,4.85,0,7,7,57,1,steek,images/br_steek.png,images/cb_steek.png,1,,,,,,,,,,,,,,,,,,,,,
,,,,,,00104,2023-11-21_15h56.18.358,vbt_B2_day2,2022.2.4,MacIntel,32.25806452,,,,,,,,,,,,,,,,,,,,,,,,,,,down,0,24.719,,,-0.168888889,-0.254444444,1,0,0,14.618,0,8,8,142,1,snuiven,images/br_snuiven.png,images/cb_snuiven.png,0,,,,,,,,,,,,,,,,,,,,,
,,,,,,00104,2023-11-21_15h56.18.358,vbt_B2_day2,2022.2.4,MacIntel,32.25806452,,,,,,,,,,,,,,,,,,,,,,,,,,,down,0,38.358,,,-0.168888889,-0.254444444,1,0,0,19.835,0,9,9,193,1,weeshuis,images/br_weeshuis.png,images/cb_weeshuis.png,0,,,,,,,,,,,,,,,,,,,,,
,,,,,,00104,2023-11-21_15h56.18.358,vbt_B2_day2,2022.2.4,MacIntel,32.25806452,,,,,,,,,,,,,,,,,,,,,,,,,,,down,0,11.189,,,-0.168888889,-0.254444444,1,0,0,0.983,0,10,10,106,1,zingen,images/br_zingen.png,images/cb_zingen.png,0,,,,,,,,,,,,,,,,,,,,,
,,,,,,00104,2023-11-21_15h56.18.358,vbt_B2_day2,2022.2.4,MacIntel,32.25806452,,,,,,,,,,,,,,,,,,,,,,,,,,,down,0,7.6,,,-0.168888889,-0.254444444,1,0,0,10.669,0,11,11,32,1,palm,images/br_palm.png,images/cb_palm.png,0,,,,,,,,,,,,,,,,,,,,,
,,,,,,00104,2023-11-21_15h56.18.358,vbt_B2_day2,2022.2.4,MacIntel,32.25806452,,,,,,,,,,,,,,,,,,,,,,,,,,,down,0,11.018,,,-0.168888889,-0.254444444,1,0,0,0.683,0,12,12,46,1,jagen,images/br_jagen.png,images/cb_jagen.png,0,,,,,,,,,,,,,,,,,,,,,
,,,,,,00104,2023-11-21_15h56.18.358,vbt_B2_day2,2022.2.4,MacIntel,32.25806452,,,,,,,,,,,,,,,,,,,,,,,,,,,down,0,11.24,,,-0.168888889,-0.254444444,1,0,0,0.766,0,13,13,86,1,woning,images/br_woning.png,images/cb_woning.png,0,,,,,,,,,,,,,,,,,,,,,
,,,,,,00104,2023-11-21_15h56.18.358,vbt_B2_day2,2022.2.4,MacIntel,32.25806452,,,,,,,,,,,,,,,,,,,,,,,,,,,down,0,16.135,,,-0.168888889,-0.254444444,1,0,0,4.351,0,14,14,33,1,vlek,images/br_vlek.png,images/cb_vlek.png,0,,,,,,,,,,,,,,,,,,,,,
,,,,,,00104,2023-11-21_15h56.18.358,vbt_B2_day2,2022.2.4,MacIntel,32.25806452,,,,,,,,,,,,,,,,,,,,,,,,,,,down,0,26.936,,,-0.168888889,-0.254444444,1,0,0,6.217,0,15,15,157,1,uitlaat,images/br_uitlaat.png,images/cb_uitlaat.png,0,,,,,,,,,,,,,,,,,,,,,
,,,,,,00104,2023-11-21_15h56.18.358,vbt_B2_day2,2022.2.4,MacIntel,32.25806452,,,,,,,,,,,,,,,,,,,,,,,,,,,down,0,12.858,,,-0.168888889,-0.254444444,1,0,0,16.135,0,16,16,92,1,geheim,images/br_geheim.png,images/cb_geheim.png,0,,,,,,,,,,,,,,,,,,,,,
,,,,,,00104,2023-11-21_15h56.18.358,vbt_B2_day2,2022.2.4,MacIntel,32.25806452,,,,,,,,,,,,,,,,,,,,,,,,,,,down,0,18.309,,,-0.168888889,-0.254444444,1,0,0,12.334,0,17,17,163,1,schuilen,images/br_schuilen.png,images/cb_schuilen.png,0,,,,,,,,,,,,,,,,,,,,,
,,,,,,00104,2023-11-21_15h56.18.358,vbt_B2_day2,2022.2.4,MacIntel,32.25806452,,,,,,,,,,,,,,,,,,,,,,,,,,,down,0,7.124,,,-0.168888889,-0.254444444,1,0,0,9.366,0,18,18,104,1,zweven,images/br_zweven.png,images/cb_zweven.png,0,,,,,,,,,,,,,,,,,,,,,
,,,,,,00104,2023-11-21_15h56.18.358,vbt_B2_day2,2022.2.4,MacIntel,32.25806452,,,,,,,,,,,,,,,,,,,,,,,,,,,down,0,5.317,,,-0.168888889,-0.254444444,1,0,0,0.849,0,19,19,84,1,lokken,images/br_lokken.png,images/cb_lokken.png,0,,,,,,,,,,,,,,,,,,,,,
,,,,,,00104,2023-11-21_15h56.18.358,vbt_B2_day2,2022.2.4,MacIntel,32.25806452,,,,,,,,,,,,,,,,,,,,,,,,,,,down,0,8.571,tekst,,-0.168888889,-0.254444444,1,0,0,0.933,0,20,20,58,1,tekst,images/br_tekst.png,images/cb_tekst.png,1,,,,,,,,,,,,,,,,,,,,,
,,,,,,00104,2023-11-21_15h56.18.358,vbt_B2_day2,2022.2.4,MacIntel,32.25806452,,,,,,,,,,,,,,,,,,,,,,,,,,,down,0,6.534,,,-0.168888889,-0.254444444,1,0,0,2.951,0,21,21,6,1,diep,images/br_diep.png,images/cb_diep.png,0,,,,,,,,,,,,,,,,,,,,,
,,,,,,00104,2023-11-21_15h56.18.358,vbt_B2_day2,2022.2.4,MacIntel,32.25806452,,,,,,,,,,,,,,,,,,,,,,,,,,,down,0,2.751,,,-0.168888889,-0.254444444,1,0,0,1.117,0,22,22,13,1,kaal,images/br_kaal.png,images/cb_kaal.png,0,,,,,,,,,,,,,,,,,,,,,
,,,,,,00104,2023-11-21_15h56.18.358,vbt_B2_day2,2022.2.4,MacIntel,32.25806452,,,,,,,,,,,,,,,,,,,,,,,,,,,down,0,19.553,,,-0.168888889,-0.254444444,1,0,0,0.732,0,23,23,76,1,afval,images/br_afval.png,images/cb_afval.png,0,,,,,,,,,,,,,,,,,,,,,
,,,,,,00104,2023-11-21_15h56.18.358,vbt_B2_day2,2022.2.4,MacIntel,32.25806452,,,,,,,,,,,,,,,,,,,,,,,,,,,down,0,21.308,,,-0.168888889,-0.254444444,1,0,0,10.134,0,24,24,129,1,verhaal,images/br_verhaal.png,images/cb_verhaal.png,0,,,,,,,,,,,,,,,,,,,,,
,,,,,,00104,2023-11-21_15h56.18.358,vbt_B2_day2,2022.2.4,MacIntel,32.25806452,,,,,,,,,,,,,,,,,,,,,,,,,,,down,0,15.34,,,-0.168888889,-0.254444444,1,0,0,0.749,0,25,25,197,1,spanning,images/br_spanning.png,images/cb_spanning.png,0,,,,,,,,,,,,,,,,,,,,,
,,,,,,00104,2023-11-21_15h56.18.358,vbt_B2_day2,2022.2.4,MacIntel,32.25806452,,,,,,,,,,,,,,,,,,,,,,,,,,,down,0,17.935,,,-0.168888889,-0.254444444,1,0,0,0.984,0,26,26,114,1,vullen,images/br_vullen.png,images/cb_vullen.png,0,,,,,,,,,,,,,,,,,,,,,
,,,,,,00104,2023-11-21_15h56.18.358,vbt_B2_day2,2022.2.4,MacIntel,32.25806452,,,,,,,,,,,,,,,,,,,,,,,,,,,down,0,4.707,,,-0.168888889,-0.254444444,1,0,0,5.95,0,27,27,120,1,klimmen,images/br_klimmen.png,images/cb_klimmen.png,0,,,,,,,,,,,,,,,,,,,,,
,,,,,,00104,2023-11-21_15h56.18.358,vbt_B2_day2,2022.2.4,MacIntel,32.25806452,,,,,,,,,,,,,,,,,,,,,,,,,,,down,0,8.305,,,-0.168888889,-0.254444444,1,0,0,4.385,0,28,28,161,1,attentie,images/br_attentie.png,images/cb_attentie.png,0,,,,,,,,,,,,,,,,,,,,,
,,,,,,00104,2023-11-21_15h56.18.358,vbt_B2_day2,2022.2.4,MacIntel,32.25806452,,,,,,,,,,,,,,,,,,,,,,,,,,,down,0,5.79,,,-0.168888889,-0.254444444,1,0,0,1.949,0,29,29,34,1,vorm,images/br_vorm.png,images/cb_vorm.png,0,,,,,,,,,,,,,,,,,,,,,
,,,,,,00104,2023-11-21_15h56.18.358,vbt_B2_day2,2022.2.4,MacIntel,32.25806452,,,,,,,,,,,,,,,,,,,,,,,,,,,down,0,6.5,,,-0.168888889,-0.254444444,1,0,0,0.618,0,30,30,79,1,nodig,images/br_nodig.png,images/cb_nodig.png,0,,,,,,,,,,,,,,,,,,,,,
,,,,,,00104,2023-11-21_15h56.18.358,vbt_B2_day2,2022.2.4,MacIntel,32.25806452,,,,,,,,,,,,,,,,,,,,,,,,,,,down,0,11.539,,,-0.168888889,-0.254444444,1,0,0,0.617,0,31,31,195,1,middelen,images/br_middelen.png,images/cb_middelen.png,0,,,,,,,,,,,,,,,,,,,,,
,,,,,,00104,2023-11-21_15h56.18.358,vbt_B2_day2,2022.2.4,MacIntel,32.25806452,,,,,,,,,,,,,,,,,,,,,,,,,,,down,0,6.232,,,-0.168888889,-0.254444444,1,0,0,0.6,0,32,32,186,1,voorraad,images/br_voorraad.png,images/cb_voorraad.png,0,,,,,,,,,,,,,,,,,,,,,
,,,,,,00104,2023-11-21_15h56.18.358,vbt_B2_day2,2022.2.4,MacIntel,32.25806452,,,,,,,,,,,,,,,,,,,,,,,,,,,down,0,21.667,,,-0.168888889,-0.254444444,1,0,0,8.167,0,33,33,70,1,ijdel,images/br_ijdel.png,images/cb_ijdel.png,0,,,,,,,,,,,,,,,,,,,,,
,,,,,,00104,2023-11-21_15h56.18.358,vbt_B2_day2,2022.2.4,MacIntel,32.25806452,,,,,,,,,,,,,,,,,,,,,,,,,,,down,0,11.257,,,-0.168888889,-0.254444444,1,0,0,6.151,0,34,34,148,1,smullen,images/br_smullen.png,images/cb_smullen.png,0,,,,,,,,,,,,,,,,,,,,,
,,,,,,00104,2023-11-21_15h56.18.358,vbt_B2_day2,2022.2.4,MacIntel,32.25806452,,,,,,,,,,,,,,,,,,,,,,,,,,,down,0,12.584,,,-0.168888889,-0.254444444,1,0,0,0.683,0,35,35,49,1,laken,images/br_laken.png,images/cb_laken.png,0,,,,,,,,,,,,,,,,,,,,,
,,,,,,00104,2023-11-21_15h56.18.358,vbt_B2_day2,2022.2.4,MacIntel,32.25806452,,,,,,,,,,,,,,,,,,,,,,,,,,,down,0,6.569,,,-0.168888889,-0.254444444,1,0,0,0.732,0,36,36,22,1,stof,images/br_stof.png,images/cb_stof.png,0,,,,,,,,,,,,,,,,,,,,,
,,,,,,00104,2023-11-21_15h56.18.358,vbt_B2_day2,2022.2.4,MacIntel,32.25806452,,,,,,,,,,,,,,,,,,,,,,,,,,,down,0,20.817,,,-0.168888889,-0.254444444,1,0,0,4.15,0,37,37,25,1,plek,images/br_plek.png,images/cb_plek.png,0,,,,,,,,,,,,,,,,,,,,,
,,,,,,00104,2023-11-21_15h56.18.358,vbt_B2_day2,2022.2.4,MacIntel,32.25806452,,,,,,,,,,,,,,,,,,,,,,,,,,,down,0,5.917,,,-0.168888889,-0.254444444,1,0,0,0.716,0,38,38,23,1,zout,images/br_zout.png,images/cb_zout.png,0,,,,,,,,,,,,,,,,,,,,,
,,,,,,00104,2023-11-21_15h56.18.358,vbt_B2_day2,2022.2.4,MacIntel,32.25806452,,,,,,,,,,,,,,,,,,,,,,,,,,,down,0,16.451,,,-0.168888889,-0.254444444,1,0,0,0.517,0,39,39,82,1,muziek,images/br_muziek.png,images/cb_muziek.png,0,,,,,,,,,,,,,,,,,,,,,
,,,,,,00104,2023-11-21_15h56.18.358,vbt_B2_day2,2022.2.4,MacIntel,32.25806452,,,,,,,,,,,,,,,,,,,,,,,,,,,down,0,10.068,slagen,,-0.168888889,-0.254444444,1,0,0,0.9,0,40,40,96,1,slagen,images/br_slagen.png,images/cb_slagen.png,1,,,,,,,,,,,,,,,,,,,,,
,,,,,,00104,2023-11-21_15h56.18.358,vbt_B2_day2,2022.2.4,MacIntel,32.25806452,,,,,,,,,,,,,,,,,,,,,,,,,,,down,0,13.306,,,-0.168888889,-0.254444444,1,0,0,11.117,0,41,41,164,1,anarchie,images/br_anarchie.png,images/cb_anarchie.png,0,,,,,,,,,,,,,,,,,,,,,
,,,,,,00104,2023-11-21_15h56.18.358,vbt_B2_day2,2022.2.4,MacIntel,32.25806452,,,,,,,,,,,,,,,,,,,,,,,,,,,down,0,14.401,,,-0.168888889,-0.254444444,1,0,0,1.3,0,42,42,187,1,opkijken,images/br_opkijken.png,images/cb_opkijken.png,0,,,,,,,,,,,,,,,,,,,,,
,,,,,,00104,2023-11-21_15h56.18.358,vbt_B2_day2,2022.2.4,MacIntel,32.25806452,,,,,,,,,,,,,,,,,,,,,,,,,,,down,0,10.425,,,-0.168888889,-0.254444444,1,0,0,5.167,0,43,43,64,1,wegen,images/br_wegen.png,images/cb_wegen.png,0,,,,,,,,,,,,,,,,,,,,,
,,,,,,00104,2023-11-21_15h56.18.358,vbt_B2_day2,2022.2.4,MacIntel,32.25806452,,,,,,,,,,,,,,,,,,,,,,,,,,,down,0,14.712,,,-0.168888889,-0.254444444,1,0,0,3.666,0,44,44,192,1,schaamte,images/br_schaamte.png,images/cb_schaamte.png,0,,,,,,,,,,,,,,,,,,,,,
,,,,,,00104,2023-11-21_15h56.18.358,vbt_B2_day2,2022.2.4,MacIntel,32.25806452,,,,,,,,,,,,,,,,,,,,,,,,,,,down,0,11.116,,,-0.168888889,-0.254444444,1,0,0,1.282,0,45,45,119,1,liefje,images/br_liefje.png,images/cb_liefje.png,0,,,,,,,,,,,,,,,,,,,,,
,,,,,,00104,2023-11-21_15h56.18.358,vbt_B2_day2,2022.2.4,MacIntel,32.25806452,,,,,,,,,,,,,,,,,,,,,,,,,,,down,0,12.52,,,-0.168888889,-0.254444444,1,0,0,9.668,0,46,46,158,1,innemen,images/br_innemen.png,images/cb_innemen.png,0,,,,,,,,,,,,,,,,,,,,,
,,,,,,00104,2023-11-21_15h56.18.358,vbt_B2_day2,2022.2.4,MacIntel,32.25806452,,,,,,,,,,,,,,,,,,,,,,,,,,,down,0,16.883,,,-0.168888889,-0.254444444,1,0,0,8.9,0,47,47,175,1,heengaan,images/br_heengaan.png,images/cb_heengaan.png,0,,,,,,,,,,,,,,,,,,,,,
,,,,,,00104,2023-11-21_15h56.18.358,vbt_B2_day2,2022.2.4,MacIntel,32.25806452,,,,,,,,,,,,,,,,,,,,,,,,,,,down,0,17.223,,,-0.168888889,-0.254444444,1,0,0,9.584,0,48,48,159,1,sufferd,images/br_sufferd.png,images/cb_sufferd.png,0,,,,,,,,,,,,,,,,,,,,,
,,,,,,00104,2023-11-21_15h56.18.358,vbt_B2_day2,2022.2.4,MacIntel,32.25806452,,,,,,,,,,,,,,,,,,,,,,,,,,,down,0,4.407,,,-0.168888889,-0.254444444,1,0,0,3.149,0,49,49,29,1,baas,images/br_baas.png,images/cb_baas.png,0,,,,,,,,,,,,,,,,,,,,,
,,,,,,00104,2023-11-21_15h56.18.358,vbt_B2_day2,2022.2.4,MacIntel,32.25806452,,,,,,,,,,,,,,,,,,,,,,,,,,,down,0,21.658,,,-0.168888889,-0.254444444,1,0,0,9.502,0,50,50,162,1,uitdelen,images/br_uitdelen.png,images/cb_uitdelen.png,0,,,,,,,,,,,,,,,,,,,,,
,,,,,,00104,2023-11-21_15h56.18.358,vbt_B2_day2,2022.2.4,MacIntel,32.25806452,,,,,,,,,,,,,,,,,,,,,,,,,,,down,0,20.16,,,-0.168888889,-0.254444444,1,0,0,7.583,0,51,51,172,1,weigeren,images/br_weigeren.png,images/cb_weigeren.png,0,,,,,,,,,,,,,,,,,,,,,
,,,,,,00104,2023-11-21_15h56.18.358,vbt_B2_day2,2022.2.4,MacIntel,32.25806452,,,,,,,,,,,,,,,,,,,,,,,,,,,down,0,24.707,,,-0.168888889,-0.254444444,1,0,0,3.518,0,52,52,194,1,driemaal,images/br_driemaal.png,images/cb_driemaal.png,0,,,,,,,,,,,,,,,,,,,,,
,,,,,,00104,2023-11-21_15h56.18.358,vbt_B2_day2,2022.2.4,MacIntel,32.25806452,,,,,,,,,,,,,,,,,,,,,,,,,,,down,0,18.835,trekker,,-0.168888889,-0.254444444,1,0,0,1.209,0,53,53,137,1,trekker,images/br_trekker.png,images/cb_trekker.png,1,,,,,,,,,,,,,,,,,,,,,
,,,,,,00104,2023-11-21_15h56.18.358,vbt_B2_day2,2022.2.4,MacIntel,32.25806452,,,,,,,,,,,,,,,,,,,,,,,,,,,down,0,11.718,,,-0.168888889,-0.254444444,1,0,0,7.268,0,54,54,43,1,klauw,images/br_klauw.png,images/cb_klauw.png,0,,,,,,,,,,,,,,,,,,,,,
,,,,,,00104,2023-11-21_15h56.18.358,vbt_B2_day2,2022.2.4,MacIntel,32.25806452,,,,,,,,,,,,,,,,,,,,,,,,,,,down,0,36.226,paarbij,,-0.168888889,-0.254444444,1,0,0,4.55,0,55,55,136,1,waarbij,images/br_waarbij.png,images/cb_waarbij.png,1,,,,,,,,,,,,,,,,,,,,,
,,,,,,00104,2023-11-21_15h56.18.358,vbt_B2_day2,2022.2.4,MacIntel,32.25806452,,,,,,,,,,,,,,,,,,,,,,,,,,,down,0,7.55,,,-0.168888889,-0.254444444,1,0,0,1.199,0,56,56,103,1,joggen,images/br_joggen.png,images/cb_joggen.png,0,,,,,,,,,,,,,,,,,,,,,
,,,,,,00104,2023-11-21_15h56.18.358,vbt_B2_day2,2022.2.4,MacIntel,32.25806452,,,,,,,,,,,,,,,,,,,,,,,,,,,down,0,6.167,,,-0.168888889,-0.254444444,1,0,0,8.651,0,57,57,63,1,flirt,images/br_flirt.png,images/cb_flirt.png,0,,,,,,,,,,,,,,,,,,,,,
,,,,,,00104,2023-11-21_15h56.18.358,vbt_B2_day2,2022.2.4,MacIntel,32.25806452,,,,,,,,,,,,,,,,,,,,,,,,,,,down,0,14.521,,,-0.168888889,-0.254444444,1,0,0,0.682,0,58,58,165,1,feestdag,images/br_feestdag.png,images/cb_feestdag.png,0,,,,,,,,,,,,,,,,,,,,,
,,,,,,00104,2023-11-21_15h56.18.358,vbt_B2_day2,2022.2.4,MacIntel,32.25806452,,,,,,,,,,,,,,,,,,,,,,,,,,,down,0,2.257,,,-0.168888889,-0.254444444,1,0,0,0.499,0,59,59,78,1,leren,images/br_leren.png,images/cb_leren.png,0,,,,,,,,,,,,,,,,,,,,,
,,,,,,00104,2023-11-21_15h56.18.358,vbt_B2_day2,2022.2.4,MacIntel,32.25806452,,,,,,,,,,,,,,,,,,,,,,,,,,,down,0,0.656,,,-0.168888889,-0.254444444,1,0,0,1.199,0,60,60,39,1,laag,images/br_laag.png,images/cb_laag.png,0,,,,,,,,,,,,,,,,,,,,,
,,,,,,00104,2023-11-21_15h56.18.358,vbt_B2_day2,2022.2.4,MacIntel,32.25806452,,,,,,,,,,,,,,,,,,,,,,,,,,,down,0,11.042,,,-0.168888889,-0.254444444,1,0,0,4.882,0,61,61,167,1,eenhoorn,images/br_eenhoorn.png,images/cb_eenhoorn.png,0,,,,,,,,,,,,,,,,,,,,,
,,,,,,00104,2023-11-21_15h56.18.358,vbt_B2_day2,2022.2.4,MacIntel,32.25806452,,,,,,,,,,,,,,,,,,,,,,,,,,,down,0,4.067,,,-0.168888889,-0.254444444,1,0,0,0.734,0,62,62,15,1,soda,images/br_soda.png,images/cb_soda.png,0,,,,,,,,,,,,,,,,,,,,,
,,,,,,00104,2023-11-21_15h56.18.358,vbt_B2_day2,2022.2.4,MacIntel,32.25806452,,,,,,,,,,,,,,,,,,,,,,,,,,,down,0,18.44,,,-0.168888889,-0.254444444,1,0,0,1.1,0,63,63,146,1,opkomen,images/br_opkomen.png,images/cb_opkomen.png,0,,,,,,,,,,,,,,,,,,,,,
,,,,,,00104,2023-11-21_15h56.18.358,vbt_B2_day2,2022.2.4,MacIntel,32.25806452,,,,,,,,,,,,,,,,,,,,,,,,,,,down,0,9.457,,,-0.168888889,-0.254444444,1,0,0,1.7,0,64,64,55,1,praat,images/br_praat.png,images/cb_praat.png,0,,,,,,,,,,,,,,,,,,,,,
,,,,,,00104,2023-11-21_15h56.18.358,vbt_B2_day2,2022.2.4,MacIntel,32.25806452,,,,,,,,,,,,,,,,,,,,,,,,,,,down,0,4.917,,,-0.168888889,-0.254444444,1,0,0,0.834,0,65,65,31,1,poes,images/br_poes.png,images/cb_poes.png,0,,,,,,,,,,,,,,,,,,,,,
,,,,,,00104,2023-11-21_15h56.18.358,vbt_B2_day2,2022.2.4,MacIntel,32.25806452,,,,,,,,,,,,,,,,,,,,,,,,,,,down,0,5.453,,,-0.168888889,-0.254444444,1,0,0,2.467,0,66,66,113,1,koppen,images/br_koppen.png,images/cb_koppen.png,0,,,,,,,,,,,,,,,,,,,,,
,,,,,,00104,2023-11-21_15h56.18.358,vbt_B2_day2,2022.2.4,MacIntel,32.25806452,,,,,,,,,,,,,,,,,,,,,,,,,,,down,0,9.519,,,-0.168888889,-0.254444444,1,0,0,0.834,0,67,67,45,1,piste,images/br_piste.png,images/cb_piste.png,0,,,,,,,,,,,,,,,,,,,,,
,,,,,,00104,2023-11-21_15h56.18.358,vbt_B2_day2,2022.2.4,MacIntel,32.25806452,,,,,,,,,,,,,,,,,,,,,,,,,,,down,0,6.218,,,-0.168888889,-0.254444444,1,0,0,0.667,0,68,68,91,1,gezond,images/br_gezond.png,images/cb_gezond.png,0,,,,,,,,,,,,,,,,,,,,,
,,,,,,00104,2023-11-21_15h56.18.358,vbt_B2_day2,2022.2.4,MacIntel,32.25806452,,,,,,,,,,,,,,,,,,,,,,,,,,,down,0,12.928,,,-0.168888889,-0.254444444,1,0,0,0.551,0,69,69,123,1,hiervan,images/br_hiervan.png,images/cb_hiervan.png,0,,,,,,,,,,,,,,,,,,,,,
,,,,,,00104,2023-11-21_15h56.18.358,vbt_B2_day2,2022.2.4,MacIntel,32.25806452,,,,,,,,,,,,,,,,,,,,,,,,,,,down,0,4.906,akkoord,,-0.168888889,-0.254444444,1,0,0,0.651,0,70,70,138,1,akkoord,images/br_akkoord.png,images/cb_akkoord.png,1,,,,,,,,,,,,,,,,,,,,,
,,,,,,00104,2023-11-21_15h56.18.358,vbt_B2_day2,2022.2.4,MacIntel,32.25806452,,,,,,,,,,,,,,,,,,,,,,,,,,,down,0,12.624,,,-0.168888889,-0.254444444,1,0,0,2.116,0,71,71,147,1,komisch,images/br_komisch.png,images/cb_komisch.png,0,,,,,,,,,,,,,,,,,,,,,
,,,,,,00104,2023-11-21_15h56.18.358,vbt_B2_day2,2022.2.4,MacIntel,32.25806452,,,,,,,,,,,,,,,,,,,,,,,,,,,down,0,7.909,koffie,,-0.168888889,-0.254444444,1,0,0,12.167,0,72,72,99,1,koffie,images/br_koffie.png,images/cb_koffie.png,1,,,,,,,,,,,,,,,,,,,,,
,,,,,,00104,2023-11-21_15h56.18.358,vbt_B2_day2,2022.2.4,MacIntel,32.25806452,,,,,,,,,,,,,,,,,,,,,,,,,,,down,0,10.485,,,-0.168888889,-0.254444444,1,0,0,0.716,0,73,73,20,1,site,images/br_site.png,images/cb_site.png,0,,,,,,,,,,,,,,,,,,,,,
,,,,,,00104,2023-11-21_15h56.18.358,vbt_B2_day2,2022.2.4,MacIntel,32.25806452,,,,,,,,,,,,,,,,,,,,,,,,,,,down,0,25.013,,,-0.168888889,-0.254444444,1,0,0,0.751,0,74,74,182,1,bijkomen,images/br_bijkomen.png,images/cb_bijkomen.png,0,,,,,,,,,,,,,,,,,,,,,
,,,,,,00104,2023-11-21_15h56.18.358,vbt_B2_day2,2022.2.4,MacIntel,32.25806452,,,,,,,,,,,,,,,,,,,,,,,,,,,down,0,21.42,,,-0.168888889,-0.254444444,1,0,0,3.733,0,75,75,143,1,hechten,images/br_hechten.png,images/cb_hechten.png,0,,,,,,,,,,,,,,,,,,,,,
,,,,,,00104,2023-11-21_15h56.18.358,vbt_B2_day2,2022.2.4,MacIntel,32.25806452,,,,,,,,,,,,,,,,,,,,,,,,,,,down,0,10.818,,,-0.168888889,-0.254444444,1,0,0,4.234,0,76,76,93,1,waarop,images/br_waarop.png,images/cb_waarop.png,0,,,,,,,,,,,,,,,,,,,,,
,,,,,,00104,2023-11-21_15h56.18.358,vbt_B2_day2,2022.2.4,MacIntel,32.25806452,,,,,,,,,,,,,,,,,,,,,,,,,,,down,0,6.951,,,-0.168888889,-0.254444444,1,0,0,0.4,0,77,77,151,1,aanzoek,images/br_aanzoek.png,images/cb_aanzoek.png,0,,,,,,,,,,,,,,,,,,,,,
,,,,,,00104,2023-11-21_15h56.18.358,vbt_B2_day2,2022.2.4,MacIntel,32.25806452,,,,,,,,,,,,,,,,,,,,,,,,,,,down,0,6.224,,,-0.168888889,-0.254444444,1,0,0,0.799,0,78,78,41,1,maken,images/br_maken.png,images/cb_maken.png,0,,,,,,,,,,,,,,,,,,,,,
,,,,,,00104,2023-11-21_15h56.18.358,vbt_B2_day2,2022.2.4,MacIntel,32.25806452,,,,,,,,,,,,,,,,,,,,,,,,,,,down,0,19.752,,,-0.168888889,-0.254444444,1,0,0,1.049,0,79,79,196,1,nakijken,images/br_nakijken.png,images/cb_nakijken.png,0,,,,,,,,,,,,,,,,,,,,,
,,,,,,00104,2023-11-21_15h56.18.358,vbt_B2_day2,2022.2.4,MacIntel,32.25806452,,,,,,,,,,,,,,,,,,,,,,,,,,,down,0,8.151,,,-0.168888889,-0.254444444,1,0,0,0.533,0,80,80,75,1,snoep,images/br_snoep.png,images/cb_snoep.png,0,,,,,,,,,,,,,,,,,,,,,
,,,,,,00104,2023-11-21_15h56.18.358,vbt_B2_day2,2022.2.4,MacIntel,32.25806452,,,,,,,,,,,,,,,,,,,,,,,,,,,down,0,3.974,,,-0.168888889,-0.254444444,1,0,0,0.883,0,81,81,89,1,slapen,images/br_slapen.png,images/cb_slapen.png,0,,,,,,,,,,,,,,,,,,,,,
,,,,,,00104,2023-11-21_15h56.18.358,vbt_B2_day2,2022.2.4,MacIntel,32.25806452,,,,,,,,,,,,,,,,,,,,,,,,,,,down,0,20.494,,,-0.168888889,-0.254444444,1,0,0,4.034,0,82,82,199,1,beseffen,images/br_beseffen.png,images/cb_beseffen.png,0,,,,,,,,,,,,,,,,,,,,,
,,,,,,00104,2023-11-21_15h56.18.358,vbt_B2_day2,2022.2.4,MacIntel,32.25806452,,,,,,,,,,,,,,,,,,,,,,,,,,,down,0,25.051,,,-0.168888889,-0.254444444,1,0,0,10.051,0,83,83,121,1,twijfel,images/br_twijfel.png,images/cb_twijfel.png,0,,,,,,,,,,,,,,,,,,,,,
,,,,,,00104,2023-11-21_15h56.18.358,vbt_B2_day2,2022.2.4,MacIntel,32.25806452,,,,,,,,,,,,,,,,,,,,,,,,,,,down,0,18.111,,,-0.168888889,-0.254444444,1,0,0,5.401,0,84,84,168,1,bisschop,images/br_bisschop.png,images/cb_bisschop.png,0,,,,,,,,,,,,,,,,,,,,,
,,,,,,00104,2023-11-21_15h56.18.358,vbt_B2_day2,2022.2.4,MacIntel,32.25806452,,,,,,,,,,,,,,,,,,,,,,,,,,,down,0,1.557,taal,,-0.168888889,-0.254444444,1,0,0,0.883,0,85,85,17,1,taal,images/br_taal.png,images/cb_taal.png,1,,,,,,,,,,,,,,,,,,,,,
,,,,,,00104,2023-11-21_15h56.18.358,vbt_B2_day2,2022.2.4,MacIntel,32.25806452,,,,,,,,,,,,,,,,,,,,,,,,,,,down,0,9.917,,,-0.168888889,-0.254444444,1,0,0,1.982,0,86,86,166,1,strikken,images/br_strikken.png,images/cb_strikken.png,0,,,,,,,,,,,,,,,,,,,,,
,,,,,,00104,2023-11-21_15h56.18.358,vbt_B2_day2,2022.2.4,MacIntel,32.25806452,,,,,,,,,,,,,,,,,,,,,,,,,,,down,0,24.753,huisdier,,-0.168888889,-0.254444444,1,0,0,0.793,0,87,87,178,1,huisdier,images/br_huisdier.png,images/cb_huisdier.png,1,,,,,,,,,,,,,,,,,,,,,
,,,,,,00104,2023-11-21_15h56.18.358,vbt_B2_day2,2022.2.4,MacIntel,32.25806452,,,,,,,,,,,,,,,,,,,,,,,,,,,down,0,15.456,,,-0.168888889,-0.254444444,1,0,0,2.45,0,88,88,150,1,gegeven,images/br_gegeven.png,images/cb_gegeven.png,0,,,,,,,,,,,,,,,,,,,,,
,,,,,,00104,2023-11-21_15h56.18.358,vbt_B2_day2,2022.2.4,MacIntel,32.25806452,,,,,,,,,,,,,,,,,,,,,,,,,,,down,0,2.459,,,-0.168888889,-0.254444444,1,0,0,0.65,0,89,89,11,1,mode,images/br_mode.png,images/cb_mode.png,0,,,,,,,,,,,,,,,,,,,,,
,,,,,,00104,2023-11-21_15h56.18.358,vbt_B2_day2,2022.2.4,MacIntel,32.25806452,,,,,,,,,,,,,,,,,,,,,,,,,,,down,0,22.857,,,-0.168888889,-0.254444444,1,0,0,11.218,0,90,90,155,1,gerucht,images/br_gerucht.png,images/cb_gerucht.png,0,,,,,,,,,,,,,,,,,,,,,
,,,,,,00104,2023-11-21_15h56.18.358,vbt_B2_day2,2022.2.4,MacIntel,32.25806452,,,,,,,,,,,,,,,,,,,,,,,,,,,down,0,14.358,,,-0.168888889,-0.254444444,1,0,0,5.65,0,91,91,30,1,uien,images/br_uien.png,images/cb_uien.png,0,,,,,,,,,,,,,,,,,,,,,
,,,,,,00104,2023-11-21_15h56.18.358,vbt_B2_day2,2022.2.4,MacIntel,32.25806452,,,,,,,,,,,,,,,,,,,,,,,,,,,down,0,11.218,,,-0.168888889,-0.254444444,1,0,0,0.534,0,92,92,116,1,besmet,images/br_besmet.png,images/cb_besmet.png,0,,,,,,,,,,,,,,,,,,,,,
,,,,,,00104,2023-11-21_15h56.18.358,vbt_B2_day2,2022.2.4,MacIntel,32.25806452,,,,,,,,,,,,,,,,,,,,,,,,,,,down,0,6.883,,,-0.168888889,-0.254444444,1,0,0,5.75,0,93,93,9,1,hier,images/br_hier.png,images/cb_hier.png,0,,,,,,,,,,,,,,,,,,,,,
,,,,,,00104,2023-11-21_15h56.18.358,vbt_B2_day2,2022.2.4,MacIntel,32.25806452,,,,,,,,,,,,,,,,,,,,,,,,,,,down,0,10.767,,,-0.168888889,-0.254444444,1,0,0,1.016,0,94,94,38,1,baai,images/br_baai.png,images/cb_baai.png,0,,,,,,,,,,,,,,,,,,,,,
,,,,,,00104,2023-11-21_15h56.18.358,vbt_B2_day2,2022.2.4,MacIntel,32.25806452,,,,,,,,,,,,,,,,,,,,,,,,,,,down,0,15.85,,,-0.168888889,-0.254444444,1,0,0,0.568,0,95,95,14,1,rijp,images/br_rijp.png,images/cb_rijp.png,0,,,,,,,,,,,,,,,,,,,,,
,,,,,,00104,2023-11-21_15h56.18.358,vbt_B2_day2,2022.2.4,MacIntel,32.25806452,,,,,,,,,,,,,,,,,,,,,,,,,,,down,0,7.041,,,-0.168888889,-0.254444444,1,0,0,0.651,0,96,96,115,1,kleren,images/br_kleren.png,images/cb_kleren.png,0,,,,,,,,,,,,,,,,,,,,,
,,,,,,00104,2023-11-21_15h56.18.358,vbt_B2_day2,2022.2.4,MacIntel,32.25806452,,,,,,,,,,,,,,,,,,,,,,,,,,,down,0,3.8,,,-0.168888889,-0.254444444,1,0,0,0.5,0,97,97,7,1,geld,images/br_geld.png,images/cb_geld.png,0,,,,,,,,,,,,,,,,,,,,,
,,,,,,00104,2023-11-21_15h56.18.358,vbt_B2_day2,2022.2.4,MacIntel,32.25806452,,,,,,,,,,,,,,,,,,,,,,,,,,,down,0,2.566,,,-0.168888889,-0.254444444,1,0,0,0.417,0,98,98,5,1,blad,images/br_blad.png,images/cb_blad.png,0,,,,,,,,,,,,,,,,,,,,,
,,,,,,00104,2023-11-21_15h56.18.358,vbt_B2_day2,2022.2.4,MacIntel,32.25806452,,,,,,,,,,,,,,,,,,,,,,,,,,,down,0,9.3,,,-0.168888889,-0.254444444,1,0,0,2.484,0,99,99,90,1,geluid,images/br_geluid.png,images/cb_geluid.png,0,,,,,,,,,,,,,,,,,,,,,
,,,,,,00104,2023-11-21_15h56.18.358,vbt_B2_day2,2022.2.4,MacIntel,32.25806452,,,,,,,,,,,,,,,,,,,,,,,,,,,down,0,15.444,,,-0.168888889,-0.254444444,1,0,0,0.618,0,100,100,183,1,getuigen,images/br_getuigen.png,images/cb_getuigen.png,0,,,,,,,,,,,,,,,,,,,,,
,,,,,,00104,2023-11-21_15h56.18.358,vbt_B2_day2,2022.2.4,MacIntel,32.25806452,,,,,,,,,,,,,,,,,,,,,,,,,,,down,0,8.886,,,-0.168888889,-0.254444444,1,0,0,0.866,0,101,101,170,1,schatten,images/br_schatten.png,images/cb_schatten.png,0,,,,,,,,,,,,,,,,,,,,,
,,,,,,00104,2023-11-21_15h56.18.358,vbt_B2_day2,2022.2.4,MacIntel,32.25806452,,,,,,,,,,,,,,,,,,,,,,,,,,,down,0,14.534,,,-0.168888889,-0.254444444,1,0,0,0.733,0,102,102,180,1,openbaar,images/br_openbaar.png,images/cb_openbaar.png,0,,,,,,,,,,,,,,,,,,,,,
,,,,,,00104,2023-11-21_15h56.18.358,vbt_B2_day2,2022.2.4,MacIntel,32.25806452,,,,,,,,,,,,,,,,,,,,,,,,,,,down,0,6.976,,,-0.168888889,-0.254444444,1,0,0,2.567,0,103,103,26,1,leuk,images/br_leuk.png,images/cb_leuk.png,0,,,,,,,,,,,,,,,,,,,,,
,,,,,,00104,2023-11-21_15h56.18.358,vbt_B2_day2,2022.2.4,MacIntel,32.25806452,,,,,,,,,,,,,,,,,,,,,,,,,,,down,0,9.958,,,-0.168888889,-0.254444444,1,0,0,0.534,0,104,104,88,1,boeien,images/br_boeien.png,images/cb_boeien.png,0,,,,,,,,,,,,,,,,,,,,,
,,,,,,00104,2023-11-21_15h56.18.358,vbt_B2_day2,2022.2.4,MacIntel,32.25806452,,,,,,,,,,,,,,,,,,,,,,,,,,,down,0,5.425,,,-0.168888889,-0.254444444,1,0,0,0.55,0,105,105,71,1,bever,images/br_bever.png,images/cb_bever.png,0,,,,,,,,,,,,,,,,,,,,,
,,,,,,00104,2023-11-21_15h56.18.358,vbt_B2_day2,2022.2.4,MacIntel,32.25806452,,,,,,,,,,,,,,,,,,,,,,,,,,,down,0,6.435,,,-0.168888889,-0.254444444,1,0,0,0.583,0,106,106,171,1,aarzelen,images/br_aarzelen.png,images/cb_aarzelen.png,0,,,,,,,,,,,,,,,,,,,,,
,,,,,,00104,2023-11-21_15h56.18.358,vbt_B2_day2,2022.2.4,MacIntel,32.25806452,,,,,,,,,,,,,,,,,,,,,,,,,,,down,0,10.61,,,-0.168888889,-0.254444444,1,0,0,0.752,0,107,107,141,1,knielen,images/br_knielen.png,images/cb_knielen.png,0,,,,,,,,,,,,,,,,,,,,,
,,,,,,00104,2023-11-21_15h56.18.358,vbt_B2_day2,2022.2.4,MacIntel,32.25806452,,,,,,,,,,,,,,,,,,,,,,,,,,,down,0,4.802,,,-0.168888889,-0.254444444,1,0,0,4.433,0,108,108,2,1,jaar,images/br_jaar.png,images/cb_jaar.png,0,,,,,,,,,,,,,,,,,,,,,
,,,,,,00104,2023-11-21_15h56.18.358,vbt_B2_day2,2022.2.4,MacIntel,32.25806452,,,,,,,,,,,,,,,,,,,,,,,,,,,down,0,13.738,maaltijd,,-0.168888889,-0.254444444,1,0,0,0.767,0,109,109,177,1,maaltijd,images/br_maaltijd.png,images/cb_maaltijd.png,1,,,,,,,,,,,,,,,,,,,,,
,,,,,,00104,2023-11-21_15h56.18.358,vbt_B2_day2,2022.2.4,MacIntel,32.25806452,,,,,,,,,,,,,,,,,,,,,,,,,,,down,0,10.293,,,-0.168888889,-0.254444444,1,0,0,0.501,0,110,110,77,1,woede,images/br_woede.png,images/cb_woede.png,0,,,,,,,,,,,,,,,,,,,,,
,,,,,,00104,2023-11-21_15h56.18.358,vbt_B2_day2,2022.2.4,MacIntel,32.25806452,,,,,,,,,,,,,,,,,,,,,,,,,,,down,0,7.85,,,-0.168888889,-0.254444444,1,0,0,0.715,0,111,111,35,1,lust,images/br_lust.png,images/cb_lust.png,0,,,,,,,,,,,,,,,,,,,,,
,,,,,,00104,2023-11-21_15h56.18.358,vbt_B2_day2,2022.2.4,MacIntel,32.25806452,,,,,,,,,,,,,,,,,,,,,,,,,,,down,0,3.59,,,-0.168888889,-0.254444444,1,0,0,0.75,0,112,112,27,1,dans,images/br_dans.png,images/cb_dans.png,0,,,,,,,,,,,,,,,,,,,,,
,,,,,,00104,2023-11-21_15h56.18.358,vbt_B2_day2,2022.2.4,MacIntel,32.25806452,,,,,,,,,,,,,,,,,,,,,,,,,,,down,0,9.224,techniek,,-0.168888889,-0.254444444,1,0,0,0.9,0,113,113,176,1,techniek,images/br_techniek.png,images/cb_techniek.png,1,,,,,,,,,,,,,,,,,,,,,
,,,,,,00104,2023-11-21_15h56.18.358,vbt_B2_day2,2022.2.4,MacIntel,32.25806452,,,,,,,,,,,,,,,,,,,,,,,,,,,down,0,6.686,,,-0.168888889,-0.254444444,1,0,0,1.883,0,114,114,48,1,steel,images/br_steel.png,images/cb_steel.png,0,,,,,,,,,,,,,,,,,,,,,
,,,,,,00104,2023-11-21_15h56.18.358,vbt_B2_day2,2022.2.4,MacIntel,32.25806452,,,,,,,,,,,,,,,,,,,,,,,,,,,down,0,4.456,giet,,-0.166666667,-0.253333333,1,0,0,2.784,0,115,115,19,1,geit,images/br_geit.png,images/cb_geit.png,1,,,,,,,,,,,,,,,,,,,,,
,,,,,,00104,2023-11-21_15h56.18.358,vbt_B2_day2,2022.2.4,MacIntel,32.25806452,,,,,,,,,,,,,,,,,,,,,,,,,,,down,0,7.242,,,-0.167777778,-0.251111111,1,0,0,1.784,0,116,116,68,1,schat,images/br_schat.png,images/cb_schat.png,0,,,,,,,,,,,,,,,,,,,,,
,,,,,,00104,2023-11-21_15h56.18.358,vbt_B2_day2,2022.2.4,MacIntel,32.25806452,,,,,,,,,,,,,,,,,,,,,,,,,,,down,0,3.039,,,-0.167777778,-0.251111111,1,0,0,0.501,0,117,117,28,1,stal,images/br_stal.png,images/cb_stal.png,0,,,,,,,,,,,,,,,,,,,,,
,,,,,,00104,2023-11-21_15h56.18.358,vbt_B2_day2,2022.2.4,MacIntel,32.25806452,,,,,,,,,,,,,,,,,,,,,,,,,,,down,0,32.286,,,-0.167777778,-0.251111111,1,0,0,0.949,0,118,118,118,1,vinger,images/br_vinger.png,images/cb_vinger.png,0,,,,,,,,,,,,,,,,,,,,,
,,,,,,00104,2023-11-21_15h56.18.358,vbt_B2_day2,2022.2.4,MacIntel,32.25806452,,,,,,,,,,,,,,,,,,,,,,,,,,,down,0,5.351,,,-0.167777778,-0.251111111,1,0,0,0.634,0,119,119,109,1,totaal,images/br_totaal.png,images/cb_totaal.png,0,,,,,,,,,,,,,,,,,,,,,
,,,,,,00104,2023-11-21_15h56.18.358,vbt_B2_day2,2022.2.4,MacIntel,32.25806452,,,,,,,,,,,,,,,,,,,,,,,,,,,down,0,4.917,,,-0.167777778,-0.251111111,1,0,0,0.517,0,120,120,184,1,aandelen,images/br_aandelen.png,images/cb_aandelen.png,0,,,,,,,,,,,,,,,,,,,,,
,,,,,,00104,2023-11-21_15h56.18.358,vbt_B2_day2,2022.2.4,MacIntel,32.25806452,,,,,,,,,,,,,,,,,,,,,,,,,,,down,0,12.49,,,-0.167777778,-0.251111111,1,0,0,2.8,0,121,121,191,1,opheffen,images/br_opheffen.png,images/cb_opheffen.png,0,,,,,,,,,,,,,,,,,,,,,
,,,,,,00104,2023-11-21_15h56.18.358,vbt_B2_day2,2022.2.4,MacIntel,32.25806452,,,,,,,,,,,,,,,,,,,,,,,,,,,down,0,17.355,,,-0.167777778,-0.251111111,1,0,0,0.417,0,122,122,127,1,doodmoe,images/br_doodmoe.png,images/cb_doodmoe.png,0,,,,,,,,,,,,,,,,,,,,,
,,,,,,00104,2023-11-21_15h56.18.358,vbt_B2_day2,2022.2.4,MacIntel,32.25806452,,,,,,,,,,,,,,,,,,,,,,,,,,,down,0,17.235,,,-0.167777778,-0.251111111,1,0,0,1.034,0,123,123,153,1,vervoer,images/br_vervoer.png,images/cb_vervoer.png,0,,,,,,,,,,,,,,,,,,,,,
,,,,,,00104,2023-11-21_15h56.18.358,vbt_B2_day2,2022.2.4,MacIntel,32.25806452,,,,,,,,,,,,,,,,,,,,,,,,,,,down,0,7.044,stiekem,,-0.167777778,-0.251111111,1,0,0,1.001,0,124,124,139,1,stiekem,images/br_stiekem.png,images/cb_stiekem.png,1,,,,,,,,,,,,,,,,,,,,,
,,,,,,00104,2023-11-21_15h56.18.358,vbt_B2_day2,2022.2.4,MacIntel,32.25806452,,,,,,,,,,,,,,,,,,,,,,,,,,,down,0,12.335,,,-0.167777778,-0.251111111,1,0,0,5.484,0,125,125,85,1,heilig,images/br_heilig.png,images/cb_heilig.png,0,,,,,,,,,,,,,,,,,,,,,
,,,,,,00104,2023-11-21_15h56.18.358,vbt_B2_day2,2022.2.4,MacIntel,32.25806452,,,,,,,,,,,,,,,,,,,,,,,,,,,down,0,13.632,,,-0.167777778,-0.251111111,1,0,0,0.517,0,126,126,198,1,bedoelen,images/br_bedoelen.png,images/cb_bedoelen.png,0,,,,,,,,,,,,,,,,,,,,,
,,,,,,00104,2023-11-21_15h56.18.358,vbt_B2_day2,2022.2.4,MacIntel,32.25806452,,,,,,,,,,,,,,,,,,,,,,,,,,,down,0,7.81,,,-0.167777778,-0.251111111,1,0,0,0.599,0,127,127,125,1,aanzien,images/br_aanzien.png,images/cb_aanzien.png,0,,,,,,,,,,,,,,,,,,,,,
,,,,,,00104,2023-11-21_15h56.18.358,vbt_B2_day2,2022.2.4,MacIntel,32.25806452,,,,,,,,,,,,,,,,,,,,,,,,,,,down,0,19.635,,,-0.167777778,-0.251111111,1,0,0,0.767,0,128,128,131,1,opzicht,images/br_opzicht.png,images/cb_opzicht.png,0,,,,,,,,,,,,,,,,,,,,,
,,,,,,00104,2023-11-21_15h56.18.358,vbt_B2_day2,2022.2.4,MacIntel,32.25806452,,,,,,,,,,,,,,,,,,,,,,,,,,,down,0,8.769,,,-0.167777778,-0.251111111,1,0,0,0.733,0,129,129,128,1,prikken,images/br_prikken.png,images/cb_prikken.png,0,,,,,,,,,,,,,,,,,,,,,
,,,,,,00104,2023-11-21_15h56.18.358,vbt_B2_day2,2022.2.4,MacIntel,32.25806452,,,,,,,,,,,,,,,,,,,,,,,,,,,down,0,8.356,,,-0.167777778,-0.251111111,1,0,0,1.182,0,130,130,173,1,apparaat,images/br_apparaat.png,images/cb_apparaat.png,0,,,,,,,,,,,,,,,,,,,,,
,,,,,,00104,2023-11-21_15h56.18.358,vbt_B2_day2,2022.2.4,MacIntel,32.25806452,,,,,,,,,,,,,,,,,,,,,,,,,,,down,0,4.002,traag,,-0.167777778,-0.251111111,1,0,0,0.483,0,131,131,56,1,traag,images/br_traag.png,images/cb_traag.png,1,,,,,,,,,,,,,,,,,,,,,
,,,,,,00104,2023-11-21_15h56.18.358,vbt_B2_day2,2022.2.4,MacIntel,32.25806452,,,,,,,,,,,,,,,,,,,,,,,,,,,down,0,8.267,,,-0.167777778,-0.251111111,1,0,0,0.783,0,132,132,24,1,jurk,images/br_jurk.png,images/cb_jurk.png,0,,,,,,,,,,,,,,,,,,,,,
,,,,,,00104,2023-11-21_15h56.18.358,vbt_B2_day2,2022.2.4,MacIntel,32.25806452,,,,,,,,,,,,,,,,,,,,,,,,,,,down,0,12.651,,,-0.167777778,-0.251111111,1,0,0,7.084,0,133,133,156,1,rechten,images/br_rechten.png,images/cb_rechten.png,0,,,,,,,,,,,,,,,,,,,,,
,,,,,,00104,2023-11-21_15h56.18.358,vbt_B2_day2,2022.2.4,MacIntel,32.25806452,,,,,,,,,,,,,,,,,,,,,,,,,,,down,0,10.973,,,-0.167777778,-0.251111111,1,0,0,0.6,0,134,134,135,1,gedicht,images/br_gedicht.png,images/cb_gedicht.png,0,,,,,,,,,,,,,,,,,,,,,
,,,,,,00104,2023-11-21_15h56.18.358,vbt_B2_day2,2022.2.4,MacIntel,32.25806452,,,,,,,,,,,,,,,,,,,,,,,,,,,down,0,10.818,,,-0.167777778,-0.251111111,1,0,0,2.084,0,135,135,111,1,ticket,images/br_ticket.png,images/cb_ticket.png,0,,,,,,,,,,,,,,,,,,,,,
,,,,,,00104,2023-11-21_15h56.18.358,vbt_B2_day2,2022.2.4,MacIntel,32.25806452,,,,,,,,,,,,,,,,,,,,,,,,,,,down,0,6.633,,,-0.167777778,-0.251111111,1,0,0,0.551,0,136,136,101,1,staren,images/br_staren.png,images/cb_staren.png,0,,,,,,,,,,,,,,,,,,,,,
,,,,,,00104,2023-11-21_15h56.18.358,vbt_B2_day2,2022.2.4,MacIntel,32.25806452,,,,,,,,,,,,,,,,,,,,,,,,,,,down,0,10.2,,,-0.167777778,-0.251111111,1,0,0,0.368,0,137,137,190,1,goedkoop,images/br_goedkoop.png,images/cb_goedkoop.png,0,,,,,,,,,,,,,,,,,,,,,
,,,,,,00104,2023-11-21_15h56.18.358,vbt_B2_day2,2022.2.4,MacIntel,32.25806452,,,,,,,,,,,,,,,,,,,,,,,,,,,down,0,7.173,,,-0.167777778,-0.251111111,1,0,0,0.949,0,138,138,3,1,mand,images/br_mand.png,images/cb_mand.png,0,,,,,,,,,,,,,,,,,,,,,
,,,,,,00104,2023-11-21_15h56.18.358,vbt_B2_day2,2022.2.4,MacIntel,32.25806452,,,,,,,,,,,,,,,,,,,,,,,,,,,down,0,6.773,,,-0.167777778,-0.251111111,1,0,0,0.434,0,139,139,145,1,invloed,images/br_invloed.png,images/cb_invloed.png,0,,,,,,,,,,,,,,,,,,,,,
,,,,,,00104,2023-11-21_15h56.18.358,vbt_B2_day2,2022.2.4,MacIntel,32.25806452,,,,,,,,,,,,,,,,,,,,,,,,,,,down,0,23.359,,,-0.167777778,-0.251111111,1,0,0,8.934,0,140,140,108,1,excuus,images/br_excuus.png,images/cb_excuus.png,0,,,,,,,,,,,,,,,,,,,,,
,,,,,,00104,2023-11-21_15h56.18.358,vbt_B2_day2,2022.2.4,MacIntel,32.25806452,,,,,,,,,,,,,,,,,,,,,,,,,,,down,0,11.702,,,-0.167777778,-0.251111111,1,0,0,1.034,0,141,141,132,1,grappen,images/br_grappen.png,images/cb_grappen.png,0,,,,,,,,,,,,,,,,,,,,,
,,,,,,00104,2023-11-21_15h56.18.358,vbt_B2_day2,2022.2.4,MacIntel,32.25806452,,,,,,,,,,,,,,,,,,,,,,,,,,,down,0,12.7,,,-0.167777778,-0.251111111,1,0,0,0.85,0,142,142,80,1,kanjer,images/br_kanjer.png,images/cb_kanjer.png,0,,,,,,,,,,,,,,,,,,,,,
,,,,,,00104,2023-11-21_15h56.18.358,vbt_B2_day2,2022.2.4,MacIntel,32.25806452,,,,,,,,,,,,,,,,,,,,,,,,,,,down,0,11.233,,,-0.167777778,-0.251111111,1,0,0,2.316,0,143,143,122,1,waarvan,images/br_waarvan.png,images/cb_waarvan.png,0,,,,,,,,,,,,,,,,,,,,,
,,,,,,00104,2023-11-21_15h56.18.358,vbt_B2_day2,2022.2.4,MacIntel,32.25806452,,,,,,,,,,,,,,,,,,,,,,,,,,,down,0,13.394,,,-0.167777778,-0.251111111,1,0,0,0.468,0,144,144,188,1,strekken,images/br_strekken.png,images/cb_strekken.png,0,,,,,,,,,,,,,,,,,,,,,
,,,,,,00104,2023-11-21_15h56.18.358,vbt_B2_day2,2022.2.4,MacIntel,32.25806452,,,,,,,,,,,,,,,,,,,,,,,,,,,down,0,10.051,,,-0.167777778,-0.251111111,1,0,0,0.334,0,145,145,52,1,wagon,images/br_wagon.png,images/cb_wagon.png,0,,,,,,,,,,,,,,,,,,,,,
,,,,,,00104,2023-11-21_15h56.18.358,vbt_B2_day2,2022.2.4,MacIntel,32.25806452,,,,,,,,,,,,,,,,,,,,,,,,,,,down,0,6.841,,,-0.167777778,-0.251111111,1,0,0,0.466,0,146,146,72,1,strak,images/br_strak.png,images/cb_strak.png,0,,,,,,,,,,,,,,,,,,,,,
,,,,,,00104,2023-11-21_15h56.18.358,vbt_B2_day2,2022.2.4,MacIntel,32.25806452,,,,,,,,,,,,,,,,,,,,,,,,,,,down,0,6.1,,,-0.167777778,-0.251111111,1,0,0,1.183,0,147,147,51,1,samen,images/br_samen.png,images/cb_samen.png,0,,,,,,,,,,,,,,,,,,,,,
,,,,,,00104,2023-11-21_15h56.18.358,vbt_B2_day2,2022.2.4,MacIntel,32.25806452,,,,,,,,,,,,,,,,,,,,,,,,,,,down,0,4.757,loyaal,,-0.167777778,-0.251111111,1,0,0,0.833,0,148,148,97,1,loyaal,images/br_loyaal.png,images/cb_loyaal.png,1,,,,,,,,,,,,,,,,,,,,,
,,,,,,00104,2023-11-21_15h56.18.358,vbt_B2_day2,2022.2.4,MacIntel,32.25806452,,,,,,,,,,,,,,,,,,,,,,,,,,,down,0,15.276,,,-0.167777778,-0.251111111,1,0,0,0.866,0,149,149,169,1,oprotten,images/br_oprotten.png,images/cb_oprotten.png,0,,,,,,,,,,,,,,,,,,,,,
,,,,,,00104,2023-11-21_15h56.18.358,vbt_B2_day2,2022.2.4,MacIntel,32.25806452,,,,,,,,,,,,,,,,,,,,,,,,,,,down,0,15.076,,,-0.167777778,-0.251111111,1,0,0,0.9,0,150,150,130,1,keihard,images/br_keihard.png,images/cb_keihard.png,0,,,,,,,,,,,,,,,,,,,,,
,,,,,,00104,2023-11-21_15h56.18.358,vbt_B2_day2,2022.2.4,MacIntel,32.25806452,,,,,,,,,,,,,,,,,,,,,,,,,,,down,0,5.708,blik,,-0.167777778,-0.251111111,1,0,0,0.601,0,151,151,18,1,blik,images/br_blik.png,images/cb_blik.png,1,,,,,,,,,,,,,,,,,,,,,
,,,,,,00104,2023-11-21_15h56.18.358,vbt_B2_day2,2022.2.4,MacIntel,32.25806452,,,,,,,,,,,,,,,,,,,,,,,,,,,down,0,1.518,,,-0.167777778,-0.251111111,1,0,0,0.702,0,152,152,8,1,knie,images/br_knie.png,images/cb_knie.png,0,,,,,,,,,,,,,,,,,,,,,
,,,,,,00104,2023-11-21_15h56.18.358,vbt_B2_day2,2022.2.4,MacIntel,32.25806452,,,,,,,,,,,,,,,,,,,,,,,,,,,down,0,3.335,,,-0.167777778,-0.251111111,1,0,0,0.717,0,153,153,102,1,legaal,images/br_legaal.png,images/cb_legaal.png,0,,,,,,,,,,,,,,,,,,,,,
,,,,,,00104,2023-11-21_15h56.18.358,vbt_B2_day2,2022.2.4,MacIntel,32.25806452,,,,,,,,,,,,,,,,,,,,,,,,,,,down,0,7.623,,,-0.167777778,-0.251111111,1,0,0,0.867,0,154,154,152,1,afnemen,images/br_afnemen.png,images/cb_afnemen.png,0,,,,,,,,,,,,,,,,,,,,,
,,,,,,00104,2023-11-21_15h56.18.358,vbt_B2_day2,2022.2.4,MacIntel,32.25806452,,,,,,,,,,,,,,,,,,,,,,,,,,,down,0,8.784,,,-0.167777778,-0.251111111,1,0,0,0.851,0,155,155,100,1,geduld,images/br_geduld.png,images/cb_geduld.png,0,,,,,,,,,,,,,,,,,,,,,
,,,,,,00104,2023-11-21_15h56.18.358,vbt_B2_day2,2022.2.4,MacIntel,32.25806452,,,,,,,,,,,,,,,,,,,,,,,,,,,down,0,4.017,,,-0.167777778,-0.251111111,1,0,0,0.934,0,156,156,65,1,parel,images/br_parel.png,images/cb_parel.png,0,,,,,,,,,,,,,,,,,,,,,
,,,,,,00104,2023-11-21_15h56.18.358,vbt_B2_day2,2022.2.4,MacIntel,32.25806452,,,,,,,,,,,,,,,,,,,,,,,,,,,down,0,7.592,,,-0.167777778,-0.251111111,1,0,0,1.234,0,157,157,47,1,kabel,images/br_kabel.png,images/cb_kabel.png,0,,,,,,,,,,,,,,,,,,,,,
,,,,,,00104,2023-11-21_15h56.18.358,vbt_B2_day2,2022.2.4,MacIntel,32.25806452,,,,,,,,,,,,,,,,,,,,,,,,,,,down,0,7.652,,,-0.167777778,-0.251111111,1,0,0,0.9,0,158,158,110,1,zuster,images/br_zuster.png,images/cb_zuster.png,0,,,,,,,,,,,,,,,,,,,,,
,,,,,,00104,2023-11-21_15h56.18.358,vbt_B2_day2,2022.2.4,MacIntel,32.25806452,,,,,,,,,,,,,,,,,,,,,,,,,,,down,0,10.385,,,-0.167777778,-0.251111111,1,0,0,1.132,0,159,159,83,1,mening,images/br_mening.png,images/cb_mening.png,0,,,,,,,,,,,,,,,,,,,,,
,,,,,,00104,2023-11-21_15h56.18.358,vbt_B2_day2,2022.2.4,MacIntel,32.25806452,,,,,,,,,,,,,,,,,,,,,,,,,,,down,0,8.049,,,-0.167777778,-0.251111111,1,0,0,0.701,0,160,160,81,1,dubbel,images/br_dubbel.png,images/cb_dubbel.png,0,,,,,,,,,,,,,,,,,,,,,
,,,,,,00104,2023-11-21_15h56.18.358,vbt_B2_day2,2022.2.4,MacIntel,32.25806452,,,,,,,,,,,,,,,,,,,,,,,,,,,down,0,12.972,,,-0.167777778,-0.251111111,1,0,0,1.367,0,161,161,149,1,redding,images/br_redding.png,images/cb_redding.png,0,,,,,,,,,,,,,,,,,,,,,
,,,,,,00104,2023-11-21_15h56.18.358,vbt_B2_day2,2022.2.4,MacIntel,32.25806452,,,,,,,,,,,,,,,,,,,,,,,,,,,down,0,8.126,,,-0.167777778,-0.251111111,1,0,0,0.701,0,162,162,42,1,bleek,images/br_bleek.png,images/cb_bleek.png,0,,,,,,,,,,,,,,,,,,,,,
,,,,,,00104,2023-11-21_15h56.18.358,vbt_B2_day2,2022.2.4,MacIntel,32.25806452,,,,,,,,,,,,,,,,,,,,,,,,,,,down,0,12.7,,,-0.167777778,-0.251111111,1,0,0,0.883,0,163,163,160,1,daarheen,images/br_daarheen.png,images/cb_daarheen.png,0,,,,,,,,,,,,,,,,,,,,,
,,,,,,00104,2023-11-21_15h56.18.358,vbt_B2_day2,2022.2.4,MacIntel,32.25806452,,,,,,,,,,,,,,,,,,,,,,,,,,,down,0,10.161,kring,,-0.167777778,-0.251111111,1,0,0,0.633,0,164,164,59,1,kring,images/br_kring.png,images/cb_kring.png,1,,,,,,,,,,,,,,,,,,,,,
,,,,,,00104,2023-11-21_15h56.18.358,vbt_B2_day2,2022.2.4,MacIntel,32.25806452,,,,,,,,,,,,,,,,,,,,,,,,,,,down,0,10.601,,,-0.167777778,-0.251111111,1,0,0,2.333,0,165,165,74,1,graaf,images/br_graaf.png,images/cb_graaf.png,0,,,,,,,,,,,,,,,,,,,,,
,,,,,,00104,2023-11-21_15h56.18.358,vbt_B2_day2,2022.2.4,MacIntel,32.25806452,,,,,,,,,,,,,,,,,,,,,,,,,,,down,0,5.277,,,-0.167777778,-0.251111111,1,0,0,5.868,0,166,166,62,1,knaap,images/br_knaap.png,images/cb_knaap.png,0,,,,,,,,,,,,,,,,,,,,,
,,,,,,00104,2023-11-21_15h56.18.358,vbt_B2_day2,2022.2.4,MacIntel,32.25806452,,,,,,,,,,,,,,,,,,,,,,,,,,,down,0,1.369,,,-0.167777778,-0.251111111,1,0,0,0.683,0,167,167,10,1,leek,images/br_leek.png,images/cb_leek.png,0,,,,,,,,,,,,,,,,,,,,,
,,,,,,00104,2023-11-21_15h56.18.358,vbt_B2_day2,2022.2.4,MacIntel,32.25806452,,,,,,,,,,,,,,,,,,,,,,,,,,,down,0,22.724,woestijn,,-0.167777778,-0.251111111,1,0,0,0.719,0,168,168,179,1,woestijn,images/br_woestijn.png,images/cb_woestijn.png,1,,,,,,,,,,,,,,,,,,,,,
,,,,,,00104,2023-11-21_15h56.18.358,vbt_B2_day2,2022.2.4,MacIntel,32.25806452,,,,,,,,,,,,,,,,,,,,,,,,,,,down,0,9.05,,,-0.167777778,-0.251111111,1,0,0,0.499,0,169,169,117,1,kennis,images/br_kennis.png,images/cb_kennis.png,0,,,,,,,,,,,,,,,,,,,,,
,,,,,,00104,2023-11-21_15h56.18.358,vbt_B2_day2,2022.2.4,MacIntel,32.25806452,,,,,,,,,,,,,,,,,,,,,,,,,,,down,0,8.227,,,-0.167777778,-0.251111111,1,0,0,0.434,0,170,170,144,1,eetlust,images/br_eetlust.png,images/cb_eetlust.png,0,,,,,,,,,,,,,,,,,,,,,
,,,,,,00104,2023-11-21_15h56.18.358,vbt_B2_day2,2022.2.4,MacIntel,32.25806452,,,,,,,,,,,,,,,,,,,,,,,,,,,down,0,17.338,,,-0.167777778,-0.251111111,1,0,0,0.682,0,171,171,87,1,toeval,images/br_toeval.png,images/cb_toeval.png,0,,,,,,,,,,,,,,,,,,,,,
,,,,,,00104,2023-11-21_15h56.18.358,vbt_B2_day2,2022.2.4,MacIntel,32.25806452,,,,,,,,,,,,,,,,,,,,,,,,,,,down,0,4.042,,,-0.167777778,-0.251111111,1,0,0,1.1,0,172,172,73,1,volop,images/br_volop.png,images/cb_volop.png,0,,,,,,,,,,,,,,,,,,,,,
,,,,,,00104,2023-11-21_15h56.18.358,vbt_B2_day2,2022.2.4,MacIntel,32.25806452,,,,,,,,,,,,,,,,,,,,,,,,,,,down,0,6.51,,,-0.167777778,-0.251111111,1,0,0,0.434,0,173,173,54,1,gebit,images/br_gebit.png,images/cb_gebit.png,0,,,,,,,,,,,,,,,,,,,,,
,,,,,,00104,2023-11-21_15h56.18.358,vbt_B2_day2,2022.2.4,MacIntel,32.25806452,,,,,,,,,,,,,,,,,,,,,,,,,,,down,0,6.022,,,-0.167777778,-0.251111111,1,0,0,0.767,0,174,174,21,1,mist,images/br_mist.png,images/cb_mist.png,0,,,,,,,,,,,,,,,,,,,,,
,,,,,,00104,2023-11-21_15h56.18.358,vbt_B2_day2,2022.2.4,MacIntel,32.25806452,,,,,,,,,,,,,,,,,,,,,,,,,,,down,0,3.003,,,-0.167777778,-0.251111111,1,0,0,0.933,0,175,175,4,1,moes,images/br_moes.png,images/cb_moes.png,0,,,,,,,,,,,,,,,,,,,,,
,,,,,,00104,2023-11-21_15h56.18.358,vbt_B2_day2,2022.2.4,MacIntel,32.25806452,,,,,,,,,,,,,,,,,,,,,,,,,,,down,0,10.325,,,-0.167777778,-0.251111111,1,0,0,0.884,0,176,176,105,1,wijlen,images/br_wijlen.png,images/cb_wijlen.png,0,,,,,,,,,,,,,,,,,,,,,
,,,,,,00104,2023-11-21_15h56.18.358,vbt_B2_day2,2022.2.4,MacIntel,32.25806452,,,,,,,,,,,,,,,,,,,,,,,,,,,down,0,9.607,,,-0.167777778,-0.251111111,1,0,0,0.334,0,177,177,140,1,blijven,images/br_blijven.png,images/cb_blijven.png,0,,,,,,,,,,,,,,,,,,,,,
,,,,,,00104,2023-11-21_15h56.18.358,vbt_B2_day2,2022.2.4,MacIntel,32.25806452,,,,,,,,,,,,,,,,,,,,,,,,,,,down,0,10.376,,,-0.167777778,-0.251111111,1,0,0,0.683,0,178,178,107,1,maling,images/br_maling.png,images/cb_maling.png,0,,,,,,,,,,,,,,,,,,,,,
,,,,,,00104,2023-11-21_15h56.18.358,vbt_B2_day2,2022.2.4,MacIntel,32.25806452,,,,,,,,,,,,,,,,,,,,,,,,,,,down,0,6.868,ziek,,-0.167777778,-0.251111111,1,0,0,0.417,0,179,179,16,1,ziek,images/br_ziek.png,images/cb_ziek.png,1,,,,,,,,,,,,,,,,,,,,,
,,,,,,00104,2023-11-21_15h56.18.358,vbt_B2_day2,2022.2.4,MacIntel,32.25806452,,,,,,,,,,,,,,,,,,,,,,,,,,,down,0,8.519,,,-0.167777778,-0.251111111,1,0,0,0.601,0,180,180,95,1,vreten,images/br_vreten.png,images/cb_vreten.png,0,,,,,,,,,,,,,,,,,,,,,
,,,,,,00104,2023-11-21_15h56.18.358,vbt_B2_day2,2022.2.4,MacIntel,32.25806452,,,,,,,,,,,,,,,,,,,,,,,,,,,down,0,5.201,,,-0.167777778,-0.251111111,1,0,0,0.417,0,181,181,112,1,lukken,images/br_lukken.png,images/cb_lukken.png,0,,,,,,,,,,,,,,,,,,,,,
,,,,,,00104,2023-11-21_15h56.18.358,vbt_B2_day2,2022.2.4,MacIntel,32.25806452,,,,,,,,,,,,,,,,,,,,,,,,,,,down,0,18.001,,,-0.167777778,-0.251111111,1,0,0,4.533,0,182,182,94,1,oceaan,images/br_oceaan.png,images/cb_oceaan.png,0,,,,,,,,,,,,,,,,,,,,,
,,,,,,00104,2023-11-21_15h56.18.358,vbt_B2_day2,2022.2.4,MacIntel,32.25806452,,,,,,,,,,,,,,,,,,,,,,,,,,,down,0,6.452,,,-0.167777778,-0.251111111,1,0,0,0.267,0,183,183,37,1,mijn,images/br_mijn.png,images/cb_mijn.png,0,,,,,,,,,,,,,,,,,,,,,
,,,,,,00104,2023-11-21_15h56.18.358,vbt_B2_day2,2022.2.4,MacIntel,32.25806452,,,,,,,,,,,,,,,,,,,,,,,,,,,down,0,5.868,,,-0.167777778,-0.251111111,1,0,0,0.617,0,184,184,66,1,lever,images/br_lever.png,images/cb_lever.png,0,,,,,,,,,,,,,,,,,,,,,
,,,,,,00104,2023-11-21_15h56.18.358,vbt_B2_day2,2022.2.4,MacIntel,32.25806452,,,,,,,,,,,,,,,,,,,,,,,,,,,down,0,3.54,,,-0.167777778,-0.251111111,1,0,0,0.432,0,185,185,50,1,stoom,images/br_stoom.png,images/cb_stoom.png,0,,,,,,,,,,,,,,,,,,,,,
,,,,,,00104,2023-11-21_15h56.18.358,vbt_B2_day2,2022.2.4,MacIntel,32.25806452,,,,,,,,,,,,,,,,,,,,,,,,,,,down,0,9.503,,,-0.167777778,-0.251111111,1,0,0,0.333,0,186,186,69,1,waken,images/br_waken.png,images/cb_waken.png,0,,,,,,,,,,,,,,,,,,,,,
,,,,,,00104,2023-11-21_15h56.18.358,vbt_B2_day2,2022.2.4,MacIntel,32.25806452,,,,,,,,,,,,,,,,,,,,,,,,,,,down,0,10.14,,,-0.167777778,-0.251111111,1,0,0,2.166,0,187,187,44,1,flits,images/br_flits.png,images/cb_flits.png,0,,,,,,,,,,,,,,,,,,,,,
,,,,,,00104,2023-11-21_15h56.18.358,vbt_B2_day2,2022.2.4,MacIntel,32.25806452,,,,,,,,,,,,,,,,,,,,,,,,,,,down,0,8.939,,,-0.167777778,-0.245555556,1,0,0,0.8,0,188,188,0,1,slak,images/br_slak.png,images/cb_slak.png,0,,,,,,,,,,,,,,,,,,,,,
,,,,,,00104,2023-11-21_15h56.18.358,vbt_B2_day2,2022.2.4,MacIntel,32.25806452,,,,,,,,,,,,,,,,,,,,,,,,,,,down,0,9.851,,,-0.167777778,-0.241111111,1,0,0,0.716,0,189,189,189,1,aanraden,images/br_aanraden.png,images/cb_aanraden.png,0,,,,,,,,,,,,,,,,,,,,,
,,,,,,00104,2023-11-21_15h56.18.358,vbt_B2_day2,2022.2.4,MacIntel,32.25806452,,,,,,,,,,,,,,,,,,,,,,,,,,,down,0,6.525,,,-0.167777778,-0.241111111,1,0,0,0.501,0,190,190,67,1,zwart,images/br_zwart.png,images/cb_zwart.png,0,,,,,,,,,,,,,,,,,,,,,
,,,,,,00104,2023-11-21_15h56.18.358,vbt_B2_day2,2022.2.4,MacIntel,32.25806452,,,,,,,,,,,,,,,,,,,,,,,,,,,down,0,5.96,,,-0.167777778,-0.241111111,1,0,0,0.684,0,191,191,126,1,kasteel,images/br_kasteel.png,images/cb_kasteel.png,0,,,,,,,,,,,,,,,,,,,,,
,,,,,,00104,2023-11-21_15h56.18.358,vbt_B2_day2,2022.2.4,MacIntel,32.25806452,,,,,,,,,,,,,,,,,,,,,,,,,,,down,0,3.44,,,-0.167777778,-0.241111111,1,0,0,0.4,0,192,192,36,1,vuur,images/br_vuur.png,images/cb_vuur.png,0,,,,,,,,,,,,,,,,,,,,,
,,,,,,00104,2023-11-21_15h56.18.358,vbt_B2_day2,2022.2.4,MacIntel,32.25806452,,,,,,,,,,,,,,,,,,,,,,,,,,,down,0,19.807,,,-0.167777778,-0.241111111,1,0,0,3.118,0,193,193,185,1,mijnheer,images/br_mijnheer.png,images/cb_mijnheer.png,0,,,,,,,,,,,,,,,,,,,,,
,,,,,,00104,2023-11-21_15h56.18.358,vbt_B2_day2,2022.2.4,MacIntel,32.25806452,,,,,,,,,,,,,,,,,,,,,,,,,,,down,0,9.317,,,-0.167777778,-0.241111111,1,0,0,0.533,0,194,194,154,1,aflopen,images/br_aflopen.png,images/cb_aflopen.png,0,,,,,,,,,,,,,,,,,,,,,
,,,,,,00104,2023-11-21_15h56.18.358,vbt_B2_day2,2022.2.4,MacIntel,32.25806452,,,,,,,,,,,,,,,,,,,,,,,,,,,down,0,7.085,,,-0.167777778,-0.241111111,1,0,0,0.35,0,195,195,12,1,kust,images/br_kust.png,images/cb_kust.png,0,,,,,,,,,,,,,,,,,,,,,
,,,,,,00104,2023-11-21_15h56.18.358,vbt_B2_day2,2022.2.4,MacIntel,32.25806452,,,,,,,,,,,,,,,,,,,,,,,,,,,down,0,12.367,,,-0.167777778,-0.241111111,1,0,0,1.683,0,196,196,134,1,geliefd,images/br_geliefd.png,images/cb_geliefd.png,0,,,,,,,,,,,,,,,,,,,,,
,,,,,,00104,2023-11-21_15h56.18.358,vbt_B2_day2,2022.2.4,MacIntel,32.25806452,,,,,,,,,,,,,,,,,,,,,,,,,,,down,0,16.3,,,-0.167777778,-0.241111111,1,0,0,0.933,0,197,197,181,1,toegeven,images/br_toegeven.png,images/cb_toegeven.png,0,,,,,,,,,,,,,,,,,,,,,
,,,,,,00104,2023-11-21_15h56.18.358,vbt_B2_day2,2022.2.4,MacIntel,32.25806452,,,,,,,,,,,,,,,,,,,,,,,,,,,down,0,8.652,,,-0.167777778,-0.241111111,1,0,0,0.934,0,198,198,174,1,stemming,images/br_stemming.png,images/cb_stemming.png,0,,,,,,,,,,,,,,,,,,,,,
,,,,,,00104,2023-11-21_15h56.18.358,vbt_B2_day2,2022.2.4,MacIntel,32.25806452,,,,,,,,,,,,,,,,,,,,,,,,,,,down,0,7.917,,,-0.167777778,-0.241111111,1,0,0,0.915,0,199,199,40,1,schep,images/br_schep.png,images/cb_schep.png,0,,,,,,,,,,,,,,,,,,,,,
,,,,,,00104,2023-11-21_15h56.18.358,vbt_B2_day2,2022.2.4,MacIntel,32.25806452,,,,,,,,,,,,,,,,,,,,,,,,,,,,,,,,,,,,,,,,,,,,,,,-0.262222222,-0.161111111,1,0,0,,,,,,,,,,,,,,,,
,,,,,,00104,2023-11-21_15h56.18.358,vbt_B2_day2,2022.2.4,MacIntel,32.25806452,,,,,,,,,,,,,,,,,,,,,,,,,,,,,,,,,,,,,,,,,,,,,,,,,,,,-0.262222222,-0.161111111,1,0,0,,,,,,,,,,,
,,,,,,00104,2023-11-21_15h56.18.358,vbt_B2_day2,2022.2.4,MacIntel,32.25806452,,,,,,,,,,,,,,,,,,,,,,,,,,,,,,pielen,,,,,,,,,,,,,heilig,images/br_heilig.png,images/cb_heilig.png,,,,,,,,,,,,-0.026666667,-0.197777778,1,0,0,pielen,0,0,0,9,1
,,,,,,00104,2023-11-21_15h56.18.358,vbt_B2_day2,2022.2.4,MacIntel,32.25806452,,,,,,,,,,,,,,,,,,,,,,,,,,,,,,eenpo..,,,,,,,,,,,,,eenhoorn,images/br_eenhoorn.png,images/cb_eenhoorn.png,,,,,,,,,,,,-0.026666667,-0.197777778,1,0,0,eenpo..,0,1,1,19,1
,,,,,,00104,2023-11-21_15h56.18.358,vbt_B2_day2,2022.2.4,MacIntel,32.25806452,,,,,,,,,,,,,,,,,,,,,,,,,,,,,,jong,,,,,,,,,,,,,jong,images/br_jong.png,images/cb_jong.png,,,,,,,,,,,,-0.03,-0.196666667,1,0,0,jong,0,2,2,43,1
,,,,,,00104,2023-11-21_15h56.18.358,vbt_B2_day2,2022.2.4,MacIntel,32.25806452,,,,,,,,,,,,,,,,,,,,,,,,,,,,,,ningen,,,,,,,,,,,,,ningen,images/br_ningen.png,images/cb_ningen.png,,,,,,,,,,,,-0.03,-0.196666667,1,0,0,ningen,0,3,3,28,1
,,,,,,00104,2023-11-21_15h56.18.358,vbt_B2_day2,2022.2.4,MacIntel,32.25806452,,,,,,,,,,,,,,,,,,,,,,,,,,,,,,diep,,,,,,,,,,,,,diep,images/br_diep.png,images/cb_diep.png,,,,,,,,,,,,-0.03,-0.196666667,1,0,0,diep,0,4,4,2,1
,,,,,,00104,2023-11-21_15h56.18.358,vbt_B2_day2,2022.2.4,MacIntel,32.25806452,,,,,,,,,,,,,,,,,,,,,,,,,,,,,,op.....,,,,,,,,,,,,,ophuimen,images/br_ophuimen.png,images/cb_ophuimen.png,,,,,,,,,,,,-0.03,-0.196666667,1,0,0,op.....,0,5,5,36,1
,,,,,,00104,2023-11-21_15h56.18.358,vbt_B2_day2,2022.2.4,MacIntel,32.25806452,,,,,,,,,,,,,,,,,,,,,,,,,,,,,,kennis,,,,,,,,,,,,,kenzis,images/br_kenzis.png,images/cb_kenzis.png,,,,,,,,,,,,-0.03,-0.196666667,1,0,0,kennis,0,6,6,30,1
,,,,,,00104,2023-11-21_15h56.18.358,vbt_B2_day2,2022.2.4,MacIntel,32.25806452,,,,,,,,,,,,,,,,,,,,,,,,,,,,,,inzicht,,,,,,,,,,,,,inzicht,images/br_inzicht.png,images/cb_inzicht.png,,,,,,,,,,,,-0.03,-0.196666667,1,0,0,inzicht,0,7,7,53,1
,,,,,,00104,2023-11-21_15h56.18.358,vbt_B2_day2,2022.2.4,MacIntel,32.25806452,,,,,,,,,,,,,,,,,,,,,,,,,,,,,,aanzoek,,,,,,,,,,,,,aanzien,images/br_aanzien.png,images/cb_aanzien.png,,,,,,,,,,,,-0.03,-0.196666667,1,0,0,aanzoek,0,8,8,13,1
,,,,,,00104,2023-11-21_15h56.18.358,vbt_B2_day2,2022.2.4,MacIntel,32.25806452,,,,,,,,,,,,,,,,,,,,,,,,,,,,,,lijnen,,,,,,,,,,,,,lijnen,images/br_lijnen.png,images/cb_lijnen.png,,,,,,,,,,,,-0.03,-0.196666667,1,0,0,lijnen,0,9,9,51,1
,,,,,,00104,2023-11-21_15h56.18.358,vbt_B2_day2,2022.2.4,MacIntel,32.25806452,,,,,,,,,,,,,,,,,,,,,,,,,,,,,,opdraaien,,,,,,,,,,,,,opdatten,images/br_opdatten.png,images/cb_opdatten.png,,,,,,,,,,,,-0.03,-0.196666667,1,0,0,opdraaien,0,10,10,37,1
,,,,,,00104,2023-11-21_15h56.18.358,vbt_B2_day2,2022.2.4,MacIntel,32.25806452,,,,,,,,,,,,,,,,,,,,,,,,,,,,,,plannen,,,,,,,,,,,,,plannen,images/br_plannen.png,images/cb_plannen.png,,,,,,,,,,,,-0.03,-0.196666667,1,0,0,plannen,0,11,11,55,1
,,,,,,00104,2023-11-21_15h56.18.358,vbt_B2_day2,2022.2.4,MacIntel,32.25806452,,,,,,,,,,,,,,,,,,,,,,,,,,,,,,kasteel,,,,,,,,,,,,,kasteel,images/br_kasteel.png,images/cb_kasteel.png,,,,,,,,,,,,-0.03,-0.196666667,1,0,0,kasteel,0,12,12,14,1
,,,,,,00104,2023-11-21_15h56.18.358,vbt_B2_day2,2022.2.4,MacIntel,32.25806452,,,,,,,,,,,,,,,,,,,,,,,,,,,,,,jagen,,,,,,,,,,,,,jagen,images/br_jagen.png,images/cb_jagen.png,,,,,,,,,,,,-0.03,-0.196666667,1,0,0,jagen,0,13,13,6,1
,,,,,,00104,2023-11-21_15h56.18.358,vbt_B2_day2,2022.2.4,MacIntel,32.25806452,,,,,,,,,,,,,,,,,,,,,,,,,,,,,,prekkel,,,,,,,,,,,,,prekken,images/br_prekken.png,images/cb_prekken.png,,,,,,,,,,,,-0.03,-0.196666667,1,0,0,prekkel,0,14,14,34,1
,,,,,,00104,2023-11-21_15h56.18.358,vbt_B2_day2,2022.2.4,MacIntel,32.25806452,,,,,,,,,,,,,,,,,,,,,,,,,,,,,,zegel,,,,,,,,,,,,,negel,images/br_negel.png,images/cb_negel.png,,,,,,,,,,,,-0.041111111,-0.216666667,1,0,0,zegel,0,15,15,24,1
,,,,,,00104,2023-11-21_15h56.18.358,vbt_B2_day2,2022.2.4,MacIntel,32.25806452,,,,,,,,,,,,,,,,,,,,,,,,,,,,,,zegel,,,,,,,,,,,,,zegel,images/br_zegel.png,images/cb_zegel.png,,,,,,,,,,,,-0.041111111,-0.216666667,1,0,0,zegel,0,16,16,46,1
,,,,,,00104,2023-11-21_15h56.18.358,vbt_B2_day2,2022.2.4,MacIntel,32.25806452,,,,,,,,,,,,,,,,,,,,,,,,,,,,,,stikken,,,,,,,,,,,,,strikken,images/br_strikken.png,images/cb_strikken.png,,,,,,,,,,,,-0.041111111,-0.216666667,1,0,0,stikken,0,17,17,18,1
,,,,,,00104,2023-11-21_15h56.18.358,vbt_B2_day2,2022.2.4,MacIntel,32.25806452,,,,,,,,,,,,,,,,,,,,,,,,,,,,,,.ijve,,,,,,,,,,,,,wijve,images/br_wijve.png,images/cb_wijve.png,,,,,,,,,,,,-0.041111111,-0.216666667,1,0,0,.ijve,0,18,18,27,1
,,,,,,00104,2023-11-21_15h56.18.358,vbt_B2_day2,2022.2.4,MacIntel,32.25806452,,,,,,,,,,,,,,,,,,,,,,,,,,,,,,pestram,,,,,,,,,,,,,feestdag,images/br_feestdag.png,images/cb_feestdag.png,,,,,,,,,,,,-0.041111111,-0.216666667,1,0,0,pestram,0,19,19,17,1
,,,,,,00104,2023-11-21_15h56.18.358,vbt_B2_day2,2022.2.4,MacIntel,32.25806452,,,,,,,,,,,,,,,,,,,,,,,,,,,,,,krassen,,,,,,,,,,,,,krimmen,images/br_krimmen.png,images/cb_krimmen.png,,,,,,,,,,,,-0.041111111,-0.216666667,1,0,0,krassen,0,20,20,35,1
,,,,,,00104,2023-11-21_15h56.18.358,vbt_B2_day2,2022.2.4,MacIntel,32.25806452,,,,,,,,,,,,,,,,,,,,,,,,,,,,,,dood.o.,,,,,,,,,,,,,doodmoe,images/br_doodmoe.png,images/cb_doodmoe.png,,,,,,,,,,,,-0.041111111,-0.216666667,1,0,0,dood.o.,0,21,21,15,1
,,,,,,00104,2023-11-21_15h56.18.358,vbt_B2_day2,2022.2.4,MacIntel,32.25806452,,,,,,,,,,,,,,,,,,,,,,,,,,,,,,kabel,,,,,,,,,,,,,kabel,images/br_kabel.png,images/cb_kabel.png,,,,,,,,,,,,-0.041111111,-0.211111111,1,0,0,kabel,0,22,22,7,1
,,,,,,00104,2023-11-21_15h56.18.358,vbt_B2_day2,2022.2.4,MacIntel,32.25806452,,,,,,,,,,,,,,,,,,,,,,,,,,,,,,goon,,,,,,,,,,,,,goon,images/br_goon.png,images/cb_goon.png,,,,,,,,,,,,-0.041111111,-0.211111111,1,0,0,goon,0,23,23,23,1
,,,,,,00104,2023-11-21_15h56.18.358,vbt_B2_day2,2022.2.4,MacIntel,32.25806452,,,,,,,,,,,,,,,,,,,,,,,,,,,,,,anarchis..,,,,,,,,,,,,,anarchie,images/br_anarchie.png,images/cb_anarchie.png,,,,,,,,,,,,-0.041111111,-0.211111111,1,0,0,anarchis..,0,24,24,16,1
,,,,,,00104,2023-11-21_15h56.18.358,vbt_B2_day2,2022.2.4,MacIntel,32.25806452,,,,,,,,,,,,,,,,,,,,,,,,,,,,,,z.a...,,,,,,,,,,,,,zwager,images/br_zwager.png,images/cb_zwager.png,,,,,,,,,,,,-0.041111111,-0.211111111,1,0,0,z.a...,0,25,25,49,1
,,,,,,00104,2023-11-21_15h56.18.358,vbt_B2_day2,2022.2.4,MacIntel,32.25806452,,,,,,,,,,,,,,,,,,,,,,,,,,,,,,siffe..,,,,,,,,,,,,,sifferd,images/br_sifferd.png,images/cb_sifferd.png,,,,,,,,,,,,-0.041111111,-0.211111111,1,0,0,siffe..,0,26,26,32,1
,,,,,,00104,2023-11-21_15h56.18.358,vbt_B2_day2,2022.2.4,MacIntel,32.25806452,,,,,,,,,,,,,,,,,,,,,,,,,,,,,,koorts,,,,,,,,,,,,,koorts,images/br_koorts.png,images/cb_koorts.png,,,,,,,,,,,,-0.041111111,-0.211111111,1,0,0,koorts,0,27,27,50,1
,,,,,,00104,2023-11-21_15h56.18.358,vbt_B2_day2,2022.2.4,MacIntel,32.25806452,,,,,,,,,,,,,,,,,,,,,,,,,,,,,,sys...,,,,,,,,,,,,,systeem,images/br_systeem.png,images/cb_systeem.png,,,,,,,,,,,,-0.041111111,-0.211111111,1,0,0,sys...,0,28,28,54,1
,,,,,,00104,2023-11-21_15h56.18.358,vbt_B2_day2,2022.2.4,MacIntel,32.25806452,,,,,,,,,,,,,,,,,,,,,,,,,,,,,,aanvaard,,,,,,,,,,,,,aanvraag,images/br_aanvraag.png,images/cb_aanvraag.png,,,,,,,,,,,,-0.041111111,-0.211111111,1,0,0,aanvaard,0,29,29,57,1
,,,,,,00104,2023-11-21_15h56.18.358,vbt_B2_day2,2022.2.4,MacIntel,32.25806452,,,,,,,,,,,,,,,,,,,,,,,,,,,,,,manieren,,,,,,,,,,,,,manieren,images/br_manieren.png,images/cb_manieren.png,,,,,,,,,,,,-0.041111111,-0.211111111,1,0,0,manieren,0,30,30,56,1
,,,,,,00104,2023-11-21_15h56.18.358,vbt_B2_day2,2022.2.4,MacIntel,32.25806452,,,,,,,,,,,,,,,,,,,,,,,,,,,,,,clan,,,,,,,,,,,,,clan,images/br_clan.png,images/cb_clan.png,,,,,,,,,,,,-0.041111111,-0.211111111,1,0,0,clan,0,31,31,40,1
,,,,,,00104,2023-11-21_15h56.18.358,vbt_B2_day2,2022.2.4,MacIntel,32.25806452,,,,,,,,,,,,,,,,,,,,,,,,,,,,,,pisa.,,,,,,,,,,,,,piste,images/br_piste.png,images/cb_piste.png,,,,,,,,,,,,-0.041111111,-0.211111111,1,0,0,pisa.,0,32,32,5,1
,,,,,,00104,2023-11-21_15h56.18.358,vbt_B2_day2,2022.2.4,MacIntel,32.25806452,,,,,,,,,,,,,,,,,,,,,,,,,,,,,,badon,,,,,,,,,,,,,badon,images/br_badon.png,images/cb_badon.png,,,,,,,,,,,,-0.041111111,-0.211111111,1,0,0,badon,0,33,33,26,1
,,,,,,00104,2023-11-21_15h56.18.358,vbt_B2_day2,2022.2.4,MacIntel,32.25806452,,,,,,,,,,,,,,,,,,,,,,,,,,,,,,kijlen,,,,,,,,,,,,,kijlen,images/br_kijlen.png,images/cb_kijlen.png,,,,,,,,,,,,-0.041111111,-0.211111111,1,0,0,kijlen,0,34,34,31,1
,,,,,,00104,2023-11-21_15h56.18.358,vbt_B2_day2,2022.2.4,MacIntel,32.25806452,,,,,,,,,,,,,,,,,,,,,,,,,,,,,,dode,,,,,,,,,,,,,dode,images/br_dode.png,images/cb_dode.png,,,,,,,,,,,,-0.041111111,-0.211111111,1,0,0,dode,0,35,35,41,1
,,,,,,00104,2023-11-21_15h56.18.358,vbt_B2_day2,2022.2.4,MacIntel,32.25806452,,,,,,,,,,,,,,,,,,,,,,,,,,,,,,trots,,,,,,,,,,,,,trots,images/br_trots.png,images/cb_trots.png,,,,,,,,,,,,-0.041111111,-0.211111111,1,0,0,trots,0,36,36,44,1
,,,,,,00104,2023-11-21_15h56.18.358,vbt_B2_day2,2022.2.4,MacIntel,32.25806452,,,,,,,,,,,,,,,,,,,,,,,,,,,,,,regel,,,,,,,,,,,,,remel,images/br_remel.png,images/cb_remel.png,,,,,,,,,,,,-0.041111111,-0.211111111,1,0,0,regel,0,37,37,25,1
,,,,,,00104,2023-11-21_15h56.18.358,vbt_B2_day2,2022.2.4,MacIntel,32.25806452,,,,,,,,,,,,,,,,,,,,,,,,,,,,,,blad,,,,,,,,,,,,,blad,images/br_blad.png,images/cb_blad.png,,,,,,,,,,,,-0.041111111,-0.211111111,1,0,0,blad,0,38,38,1,1
,,,,,,00104,2023-11-21_15h56.18.358,vbt_B2_day2,2022.2.4,MacIntel,32.25806452,,,,,,,,,,,,,,,,,,,,,,,,,,,,,,the..,,,,,,,,,,,,,thema,images/br_thema.png,images/cb_thema.png,,,,,,,,,,,,-0.041111111,-0.211111111,1,0,0,the..,0,39,39,47,1
,,,,,,00104,2023-11-21_15h56.18.358,vbt_B2_day2,2022.2.4,MacIntel,32.25806452,,,,,,,,,,,,,,,,,,,,,,,,,,,,,,stes,,,,,,,,,,,,,stes,images/br_stes.png,images/cb_stes.png,,,,,,,,,,,,-0.041111111,-0.211111111,1,0,0,stes,0,40,40,21,1
,,,,,,00104,2023-11-21_15h56.18.358,vbt_B2_day2,2022.2.4,MacIntel,32.25806452,,,,,,,,,,,,,,,,,,,,,,,,,,,,,,agressie,,,,,,,,,,,,,agressie,images/br_agressie.png,images/cb_agressie.png,,,,,,,,,,,,-0.041111111,-0.211111111,1,0,0,agressie,0,41,41,59,1
,,,,,,00104,2023-11-21_15h56.18.358,vbt_B2_day2,2022.2.4,MacIntel,32.25806452,,,,,,,,,,,,,,,,,,,,,,,,,,,,,,lokken,,,,,,,,,,,,,lokken,images/br_lokken.png,images/cb_lokken.png,,,,,,,,,,,,-0.041111111,-0.211111111,1,0,0,lokken,0,42,42,8,1
,,,,,,00104,2023-11-21_15h56.18.358,vbt_B2_day2,2022.2.4,MacIntel,32.25806452,,,,,,,,,,,,,,,,,,,,,,,,,,,,,,joe.,,,,,,,,,,,,,joes,images/br_joes.png,images/cb_joes.png,,,,,,,,,,,,-0.041111111,-0.211111111,1,0,0,joe.,0,43,43,20,1
,,,,,,00104,2023-11-21_15h56.18.358,vbt_B2_day2,2022.2.4,MacIntel,32.25806452,,,,,,,,,,,,,,,,,,,,,,,,,,,,,,toeval,,,,,,,,,,,,,toeval,images/br_toeval.png,images/cb_toeval.png,,,,,,,,,,,,-0.041111111,-0.211111111,1,0,0,toeval,0,44,44,11,1
,,,,,,00104,2023-11-21_15h56.18.358,vbt_B2_day2,2022.2.4,MacIntel,32.25806452,,,,,,,,,,,,,,,,,,,,,,,,,,,,,,lur...,,,,,,,,,,,,,lurgen,images/br_lurgen.png,images/cb_lurgen.png,,,,,,,,,,,,-0.041111111,-0.211111111,1,0,0,lur...,0,45,45,29,1
,,,,,,00104,2023-11-21_15h56.18.358,vbt_B2_day2,2022.2.4,MacIntel,32.25806452,,,,,,,,,,,,,,,,,,,,,,,,,,,,,,heengaan,,,,,,,,,,,,,heengeen,images/br_heengeen.png,images/cb_heengeen.png,,,,,,,,,,,,-0.041111111,-0.211111111,1,0,0,heengaan,0,46,46,38,1
,,,,,,00104,2023-11-21_15h56.18.358,vbt_B2_day2,2022.2.4,MacIntel,32.25806452,,,,,,,,,,,,,,,,,,,,,,,,,,,,,,bere...,,,,,,,,,,,,,bereuwen,images/br_bereuwen.png,images/cb_bereuwen.png,,,,,,,,,,,,-0.041111111,-0.211111111,1,0,0,bere...,0,47,47,39,1
,,,,,,00104,2023-11-21_15h56.18.358,vbt_B2_day2,2022.2.4,MacIntel,32.25806452,,,,,,,,,,,,,,,,,,,,,,,,,,,,,,zom..s,,,,,,,,,,,,,zomers,images/br_zomers.png,images/cb_zomers.png,,,,,,,,,,,,-0.041111111,-0.211111111,1,0,0,zom..s,0,48,48,48,1
,,,,,,00104,2023-11-21_15h56.18.358,vbt_B2_day2,2022.2.4,MacIntel,32.25806452,,,,,,,,,,,,,,,,,,,,,,,,,,,,,,zonnig,,,,,,,,,,,,,woning,images/br_woning.png,images/cb_woning.png,,,,,,,,,,,,-0.041111111,-0.211111111,1,0,0,zonnig,0,49,49,10,1
,,,,,,00104,2023-11-21_15h56.18.358,vbt_B2_day2,2022.2.4,MacIntel,32.25806452,,,,,,,,,,,,,,,,,,,,,,,,,,,,,,tand,,,,,,,,,,,,,tand,images/br_tand.png,images/cb_tand.png,,,,,,,,,,,,-0.041111111,-0.211111111,1,0,0,tand,0,50,50,42,1
,,,,,,00104,2023-11-21_15h56.18.358,vbt_B2_day2,2022.2.4,MacIntel,32.25806452,,,,,,,,,,,,,,,,,,,,,,,,,,,,,,shij..,,,,,,,,,,,,,sjijfel,images/br_sjijfel.png,images/cb_sjijfel.png,,,,,,,,,,,,-0.041111111,-0.211111111,1,0,0,shij..,0,51,51,33,1
,,,,,,00104,2023-11-21_15h56.18.358,vbt_B2_day2,2022.2.4,MacIntel,32.25806452,,,,,,,,,,,,,,,,,,,,,,,,,,,,,,felzi...,,,,,,,,,,,,,welzijn,images/br_welzijn.png,images/cb_welzijn.png,,,,,,,,,,,,-0.041111111,-0.211111111,1,0,0,felzi...,0,52,52,52,1
,,,,,,00104,2023-11-21_15h56.18.358,vbt_B2_day2,2022.2.4,MacIntel,32.25806452,,,,,,,,,,,,,,,,,,,,,,,,,,,,,,poes,,,,,,,,,,,,,moes,images/br_moes.png,images/cb_moes.png,,,,,,,,,,,,-0.041111111,-0.211111111,1,0,0,poes,0,53,53,0,1
,,,,,,00104,2023-11-21_15h56.18.358,vbt_B2_day2,2022.2.4,MacIntel,32.25806452,,,,,,,,,,,,,,,,,,,,,,,,,,,,,,geld,,,,,,,,,,,,,geld,images/br_geld.png,images/cb_geld.png,,,,,,,,,,,,-0.041111111,-0.211111111,1,0,0,geld,0,54,54,3,1
,,,,,,00104,2023-11-21_15h56.18.358,vbt_B2_day2,2022.2.4,MacIntel,32.25806452,,,,,,,,,,,,,,,,,,,,,,,,,,,,,,flits,,,,,,,,,,,,,flits,images/br_flits.png,images/cb_flits.png,,,,,,,,,,,,-0.041111111,-0.211111111,1,0,0,flits,0,55,55,4,1
,,,,,,00104,2023-11-21_15h56.18.358,vbt_B2_day2,2022.2.4,MacIntel,32.25806452,,,,,,,,,,,,,,,,,,,,,,,,,,,,,,t.ee..i..,,,,,,,,,,,,,tweeling,images/br_tweeling.png,images/cb_tweeling.png,,,,,,,,,,,,-0.041111111,-0.211111111,1,0,0,t.ee..i..,0,56,56,58,1
,,,,,,00104,2023-11-21_15h56.18.358,vbt_B2_day2,2022.2.4,MacIntel,32.25806452,,,,,,,,,,,,,,,,,,,,,,,,,,,,,,sora,,,,,,,,,,,,,sora,images/br_sora.png,images/cb_sora.png,,,,,,,,,,,,-0.041111111,-0.211111111,1,0,0,sora,0,57,57,22,1
,,,,,,00104,2023-11-21_15h56.18.358,vbt_B2_day2,2022.2.4,MacIntel,32.25806452,,,,,,,,,,,,,,,,,,,,,,,,,,,,,,bloeien,,,,,,,,,,,,,bloeien,images/br_bloeien.png,images/cb_bloeien.png,,,,,,,,,,,,-0.041111111,-0.225555556,1,0,0,bloeien,0,58,58,12,1
,,,,,,00104,2023-11-21_15h56.18.358,vbt_B2_day2,2022.2.4,MacIntel,32.25806452,,,,,,,,,,,,,,,,,,,,,,,,,,,,,,bleu..,,,,,,,,,,,,,breuk,images/br_breuk.png,images/cb_breuk.png,,,,,,,,,,,,-0.041111111,-0.225555556,1,0,0,bleu..,0,59,59,45,1
,,,,,,00104,2023-11-21_15h56.18.358,vbt_B2_day2,2022.2.4,MacIntel,32.25806452,,,,,,,,,,,,,,,,,,,,,,,,,,,,,,,,,,,,,,,,,,,,,,,,,,,,,,,,,,,,,,,,,,,
