welcome_mouse.x,welcome_mouse.y,welcome_mouse.leftButton,welcome_mouse.midButton,welcome_mouse.rightButton,welcome_mouse.time,"ID",date,expName,psychopyVersion,OS,frameRate,participant,refresh_mouse.x,refresh_mouse.y,refresh_mouse.leftButton,refresh_mouse.midButton,refresh_mouse.rightButton,refresh_mouse.time,braille_mouse.x,braille_mouse.y,braille_mouse.leftButton,braille_mouse.midButton,braille_mouse.rightButton,braille_mouse.time,trials.thisRepN,trials.thisTrialN,trials.thisN,trials.thisIndex,trials.ran,nlLet,brLet,cbLet,trainInstr_mouse.x,trainInstr_mouse.y,trainInstr_mouse.leftButton,trainInstr_mouse.midButton,trainInstr_mouse.rightButton,trainInstr_mouse.time,translation_key.keys,translation_key.corr,translation_key.rt,word_rsp.text,word_mouse.x,word_mouse.y,word_mouse.leftButton,word_mouse.midButton,word_mouse.rightButton,word_mouse.time,train_loop.thisRepN,train_loop.thisTrialN,train_loop.thisN,train_loop.thisIndex,train_loop.ran,nlWrd,brWrd,cbWrd,test,testResp,mouse.x,mouse.y,mouse.leftButton,mouse.midButton,mouse.rightButton,testInstr_mouse.x,testInstr_mouse.y,testInstr_mouse.leftButton,testInstr_mouse.midButton,testInstr_mouse.rightButton,test_mouse.x,test_mouse.y,test_mouse.leftButton,test_mouse.midButton,test_mouse.rightButton,test_response.text,test_loop.thisRepN,test_loop.thisTrialN,test_loop.thisN,test_loop.thisIndex,test_loop.ran
-0.742694066,-0.092616752,1,0,0,480.3188,,2023-07-25_14h51.09.523,vbt_B2_day2,2022.2.4,Linux armv81,61.15833894,52204,,,,,,,,,,,,,,,,,,,,,,,,,,,,,,,,,,,,,,,,,,,,,,,,,,,,,,,,,,,,,,,,,,,
,,,,,,,2023-07-25_14h51.09.523,vbt_B2_day2,2022.2.4,Linux armv81,61.15833894,52204,-0.101890418,0.103319755,1,0,0,5.465,,,,,,,,,,,,,,,,,,,,,,,,,,,,,,,,,,,,,,,,,,,,,,,,,,,,,,,,,,,,,
,,,,,,,2023-07-25_14h51.09.523,vbt_B2_day2,2022.2.4,Linux armv81,61.15833894,52204,,,,,,,-0.101890418,0.103319755,1,0,0,1.7647,0,0,0,10,1,k,images/br_k.png,images/cb_k.png,,,,,,,,,,,,,,,,,,,,,,,,,,,,,,,,,,,,,,,,,,,,,,,
,,,,,,,2023-07-25_14h51.09.523,vbt_B2_day2,2022.2.4,Linux armv81,61.15833894,52204,,,,,,,0.400703576,-0.045687147,1,0,0,8.3715,0,1,1,5,1,f,images/br_f.png,images/cb_f.png,,,,,,,,,,,,,,,,,,,,,,,,,,,,,,,,,,,,,,,,,,,,,,,
,,,,,,,2023-07-25_14h51.09.523,vbt_B2_day2,2022.2.4,Linux armv81,61.15833894,52204,,,,,,,0.267885504,0.055259883,1,0,0,1.7975,0,2,2,20,1,u,images/br_u.png,images/cb_u.png,,,,,,,,,,,,,,,,,,,,,,,,,,,,,,,,,,,,,,,,,,,,,,,
,,,,,,,2023-07-25_14h51.09.523,vbt_B2_day2,2022.2.4,Linux armv81,61.15833894,52204,,,,,,,0.267885504,0.055259883,1,0,0,0.7933,0,3,3,23,1,x,images/br_x.png,images/cb_x.png,,,,,,,,,,,,,,,,,,,,,,,,,,,,,,,,,,,,,,,,,,,,,,,
,,,,,,,2023-07-25_14h51.09.523,vbt_B2_day2,2022.2.4,Linux armv81,61.15833894,52204,,,,,,,0.267885504,0.055259883,1,0,0,0.5367,0,4,4,13,1,n,images/br_n.png,images/cb_n.png,,,,,,,,,,,,,,,,,,,,,,,,,,,,,,,,,,,,,,,,,,,,,,,
,,,,,,,2023-07-25_14h51.09.523,vbt_B2_day2,2022.2.4,Linux armv81,61.15833894,52204,,,,,,,0.267885504,0.055259883,1,0,0,1.8998,0,5,5,7,1,h,images/br_h.png,images/cb_h.png,,,,,,,,,,,,,,,,,,,,,,,,,,,,,,,,,,,,,,,,,,,,,,,
,,,,,,,2023-07-25_14h51.09.523,vbt_B2_day2,2022.2.4,Linux armv81,61.15833894,52204,,,,,,,0.267885504,0.055259883,1,0,0,3.5943,0,6,6,25,1,z,images/br_z.png,images/cb_z.png,,,,,,,,,,,,,,,,,,,,,,,,,,,,,,,,,,,,,,,,,,,,,,,
,,,,,,,2023-07-25_14h51.09.523,vbt_B2_day2,2022.2.4,Linux armv81,61.15833894,52204,,,,,,,0.267885504,0.055259883,1,0,0,0.3248,0,7,7,2,1,c,images/br_c.png,images/cb_c.png,,,,,,,,,,,,,,,,,,,,,,,,,,,,,,,,,,,,,,,,,,,,,,,
,,,,,,,2023-07-25_14h51.09.523,vbt_B2_day2,2022.2.4,Linux armv81,61.15833894,52204,,,,,,,0.267885504,0.055259883,1,0,0,0.8249,0,8,8,6,1,g,images/br_g.png,images/cb_g.png,,,,,,,,,,,,,,,,,,,,,,,,,,,,,,,,,,,,,,,,,,,,,,,
,,,,,,,2023-07-25_14h51.09.523,vbt_B2_day2,2022.2.4,Linux armv81,61.15833894,52204,,,,,,,0.267885504,0.055259883,1,0,0,2.4903,0,9,9,3,1,d,images/br_d.png,images/cb_d.png,,,,,,,,,,,,,,,,,,,,,,,,,,,,,,,,,,,,,,,,,,,,,,,
,,,,,,,2023-07-25_14h51.09.523,vbt_B2_day2,2022.2.4,Linux armv81,61.15833894,52204,,,,,,,0.267885504,0.055259883,1,0,0,0.1766,0,10,10,24,1,y,images/br_y.png,images/cb_y.png,,,,,,,,,,,,,,,,,,,,,,,,,,,,,,,,,,,,,,,,,,,,,,,
,,,,,,,2023-07-25_14h51.09.523,vbt_B2_day2,2022.2.4,Linux armv81,61.15833894,52204,,,,,,,0.267885504,0.055259883,1,0,0,1.662,0,11,11,21,1,v,images/br_v.png,images/cb_v.png,,,,,,,,,,,,,,,,,,,,,,,,,,,,,,,,,,,,,,,,,,,,,,,
,,,,,,,2023-07-25_14h51.09.523,vbt_B2_day2,2022.2.4,Linux armv81,61.15833894,52204,,,,,,,0.267885504,0.055259883,1,0,0,0.7992,0,12,12,14,1,o,images/br_o.png,images/cb_o.png,,,,,,,,,,,,,,,,,,,,,,,,,,,,,,,,,,,,,,,,,,,,,,,
,,,,,,,2023-07-25_14h51.09.523,vbt_B2_day2,2022.2.4,Linux armv81,61.15833894,52204,,,,,,,0.267885504,0.055259883,1,0,0,0.831,0,13,13,18,1,s,images/br_s.png,images/cb_s.png,,,,,,,,,,,,,,,,,,,,,,,,,,,,,,,,,,,,,,,,,,,,,,,
,,,,,,,2023-07-25_14h51.09.523,vbt_B2_day2,2022.2.4,Linux armv81,61.15833894,52204,,,,,,,0.267885504,0.055259883,1,0,0,4.9269,0,14,14,1,1,b,images/br_b.png,images/cb_b.png,,,,,,,,,,,,,,,,,,,,,,,,,,,,,,,,,,,,,,,,,,,,,,,
,,,,,,,2023-07-25_14h51.09.523,vbt_B2_day2,2022.2.4,Linux armv81,61.15833894,52204,,,,,,,0.267885504,0.055259883,1,0,0,0.3957,0,15,15,4,1,e,images/br_e.png,images/cb_e.png,,,,,,,,,,,,,,,,,,,,,,,,,,,,,,,,,,,,,,,,,,,,,,,
,,,,,,,2023-07-25_14h51.09.523,vbt_B2_day2,2022.2.4,Linux armv81,61.15833894,52204,,,,,,,0.267885504,0.055259883,1,0,0,1.4578,0,16,16,19,1,t,images/br_t.png,images/cb_t.png,,,,,,,,,,,,,,,,,,,,,,,,,,,,,,,,,,,,,,,,,,,,,,,
,,,,,,,2023-07-25_14h51.09.523,vbt_B2_day2,2022.2.4,Linux armv81,61.15833894,52204,,,,,,,0.267885504,0.055259883,1,0,0,1.9782,0,17,17,0,1,a,images/br_a.png,images/cb_a.png,,,,,,,,,,,,,,,,,,,,,,,,,,,,,,,,,,,,,,,,,,,,,,,
,,,,,,,2023-07-25_14h51.09.523,vbt_B2_day2,2022.2.4,Linux armv81,61.15833894,52204,,,,,,,0.267885504,0.055259883,1,0,0,1.1685,0,18,18,17,1,r,images/br_r.png,images/cb_r.png,,,,,,,,,,,,,,,,,,,,,,,,,,,,,,,,,,,,,,,,,,,,,,,
,,,,,,,2023-07-25_14h51.09.523,vbt_B2_day2,2022.2.4,Linux armv81,61.15833894,52204,,,,,,,0.267885504,0.055259883,1,0,0,1.4465,0,19,19,11,1,l,images/br_l.png,images/cb_l.png,,,,,,,,,,,,,,,,,,,,,,,,,,,,,,,,,,,,,,,,,,,,,,,
,,,,,,,2023-07-25_14h51.09.523,vbt_B2_day2,2022.2.4,Linux armv81,61.15833894,52204,,,,,,,0.267885504,0.055259883,1,0,0,2.2583,0,20,20,9,1,j,images/br_j.png,images/cb_j.png,,,,,,,,,,,,,,,,,,,,,,,,,,,,,,,,,,,,,,,,,,,,,,,
,,,,,,,2023-07-25_14h51.09.523,vbt_B2_day2,2022.2.4,Linux armv81,61.15833894,52204,,,,,,,0.267885504,0.055259883,1,0,0,0.9836,0,21,21,12,1,m,images/br_m.png,images/cb_m.png,,,,,,,,,,,,,,,,,,,,,,,,,,,,,,,,,,,,,,,,,,,,,,,
,,,,,,,2023-07-25_14h51.09.523,vbt_B2_day2,2022.2.4,Linux armv81,61.15833894,52204,,,,,,,0.267885504,0.055259883,1,0,0,0.6037,0,22,22,8,1,i,images/br_i.png,images/cb_i.png,,,,,,,,,,,,,,,,,,,,,,,,,,,,,,,,,,,,,,,,,,,,,,,
,,,,,,,2023-07-25_14h51.09.523,vbt_B2_day2,2022.2.4,Linux armv81,61.15833894,52204,,,,,,,0.267885504,0.055259883,1,0,0,7.9884,0,23,23,22,1,w,images/br_w.png,images/cb_w.png,,,,,,,,,,,,,,,,,,,,,,,,,,,,,,,,,,,,,,,,,,,,,,,
,,,,,,,2023-07-25_14h51.09.523,vbt_B2_day2,2022.2.4,Linux armv81,61.15833894,52204,,,,,,,0.267885504,0.055259883,1,0,0,2.1678,0,24,24,16,1,q,images/br_q.png,images/cb_q.png,,,,,,,,,,,,,,,,,,,,,,,,,,,,,,,,,,,,,,,,,,,,,,,
,,,,,,,2023-07-25_14h51.09.523,vbt_B2_day2,2022.2.4,Linux armv81,61.15833894,52204,,,,,,,0.267885504,0.055259883,1,0,0,0.9158,0,25,25,15,1,p,images/br_p.png,images/cb_p.png,,,,,,,,,,,,,,,,,,,,,,,,,,,,,,,,,,,,,,,,,,,,,,,
,,,,,,,2023-07-25_14h51.09.523,vbt_B2_day2,2022.2.4,Linux armv81,61.15833894,52204,,,,,,,,,,,,,,,,,,,,,0.267885504,0.055259883,1,0,0,31.1876,,,,,,,,,,,,,,,,,,,,,,,,,,,,,,,,,,,,,,,,,
,,,,,,,2023-07-25_14h51.09.523,vbt_B2_day2,2022.2.4,Linux armv81,61.15833894,52204,,,,,,,,,,,,,,,,,,,,,,,,,,,down,0,10.7273,,0.281244169,0.111327315,1,0,0,14.784,0,0,0,189,1,aanraden,images/br_aanraden.png,images/cb_aanraden.png,0,,,,,,,,,,,,,,,,,,,,,,
,,,,,,,2023-07-25_14h51.09.523,vbt_B2_day2,2022.2.4,Linux armv81,61.15833894,52204,,,,,,,,,,,,,,,,,,,,,,,,,,,down,0,5.8654,,0.281244169,0.111327315,1,0,0,3.9455,0,1,1,118,1,vinger,images/br_vinger.png,images/cb_vinger.png,0,,,,,,,,,,,,,,,,,,,,,,
,,,,,,,2023-07-25_14h51.09.523,vbt_B2_day2,2022.2.4,Linux armv81,61.15833894,52204,,,,,,,,,,,,,,,,,,,,,,,,,,,down,0,37.4054,,0.281244169,0.111327315,1,0,0,17.0004,0,2,2,121,1,twijfel,images/br_twijfel.png,images/cb_twijfel.png,0,,,,,,,,,,,,,,,,,,,,,,
,,,,,,,2023-07-25_14h51.09.523,vbt_B2_day2,2022.2.4,Linux armv81,61.15833894,52204,,,,,,,,,,,,,,,,,,,,,,,,,,,down,0,6.0961,,0.281244169,0.111327315,1,0,0,3.2911,0,3,3,87,1,toeval,images/br_toeval.png,images/cb_toeval.png,0,,,,,,,,,,,,,,,,,,,,,,
,,,,,,,2023-07-25_14h51.09.523,vbt_B2_day2,2022.2.4,Linux armv81,61.15833894,52204,,,,,,,,,,,,,,,,,,,,,,,,,,,down,0,36.4662,,0.547628285,0.134817395,1,0,0,3.6564,0,4,4,30,1,uien,images/br_uien.png,images/cb_uien.png,0,,,,,,,,,,,,,,,,,,,,,,
,,,,,,,2023-07-25_14h51.09.523,vbt_B2_day2,2022.2.4,Linux armv81,61.15833894,52204,,,,,,,,,,,,,,,,,,,,,,,,,,,down,0,3.4999,,0.513347002,0.275852309,1,0,0,5.6839,0,5,5,5,1,blad,images/br_blad.png,images/cb_blad.png,0,,,,,,,,,,,,,,,,,,,,,,
,,,,,,,2023-07-25_14h51.09.523,vbt_B2_day2,2022.2.4,Linux armv81,61.15833894,52204,,,,,,,,,,,,,,,,,,,,,,,,,,,down,0,20.8428,,0.430056173,0.339436428,1,0,0,2.4148,0,6,6,48,1,steel,images/br_steel.png,images/cb_steel.png,0,,,,,,,,,,,,,,,,,,,,,,
,,,,,,,2023-07-25_14h51.09.523,vbt_B2_day2,2022.2.4,Linux armv81,61.15833894,52204,,,,,,,,,,,,,,,,,,,,,,,,,,,down,0,4.8294,,0.430056173,0.339436428,1,0,0,1.7965,0,7,7,110,1,zuster,images/br_zuster.png,images/cb_zuster.png,0,,,,,,,,,,,,,,,,,,,,,,
,,,,,,,2023-07-25_14h51.09.523,vbt_B2_day2,2022.2.4,Linux armv81,61.15833894,52204,,,,,,,,,,,,,,,,,,,,,,,,,,,down,0,26.7541,,0.430056173,0.339436428,1,0,0,9.5967,0,8,8,107,1,maling,images/br_maling.png,images/cb_maling.png,0,,,,,,,,,,,,,,,,,,,,,,
,,,,,,,2023-07-25_14h51.09.523,vbt_B2_day2,2022.2.4,Linux armv81,61.15833894,52204,,,,,,,,,,,,,,,,,,,,,,,,,,,down,0,2.6769,,0.430056173,0.339436428,1,0,0,3.6736,0,9,9,3,1,mand,images/br_mand.png,images/cb_mand.png,0,,,,,,,,,,,,,,,,,,,,,,
,,,,,,,2023-07-25_14h51.09.523,vbt_B2_day2,2022.2.4,Linux armv81,61.15833894,52204,,,,,,,,,,,,,,,,,,,,,,,,,,,down,0,2.8192,,0.430056173,0.339436428,1,0,0,2.5551,0,10,10,148,1,smullen,images/br_smullen.png,images/cb_smullen.png,0,,,,,,,,,,,,,,,,,,,,,,
,,,,,,,2023-07-25_14h51.09.523,vbt_B2_day2,2022.2.4,Linux armv81,61.15833894,52204,,,,,,,,,,,,,,,,,,,,,,,,,,,down,0,48.4821,,0.528136689,0.284859546,1,0,0,2.5223,0,11,11,14,1,rijp,images/br_rijp.png,images/cb_rijp.png,0,,,,,,,,,,,,,,,,,,,,,,
,,,,,,,2023-07-25_14h51.09.523,vbt_B2_day2,2022.2.4,Linux armv81,61.15833894,52204,,,,,,,,,,,,,,,,,,,,,,,,,,,down,0,5.5534,,0.497984933,0.351575313,1,0,0,2.6846,0,12,12,146,1,opkomen,images/br_opkomen.png,images/cb_opkomen.png,0,,,,,,,,,,,,,,,,,,,,,,
,,,,,,,2023-07-25_14h51.09.523,vbt_B2_day2,2022.2.4,Linux armv81,61.15833894,52204,,,,,,,,,,,,,,,,,,,,,,,,,,,down,0,18.2527,,0.418942073,0.247250308,1,0,0,2.0745,0,13,13,152,1,afnemen,images/br_afnemen.png,images/cb_afnemen.png,0,,,,,,,,,,,,,,,,,,,,,,
,,,,,,,2023-07-25_14h51.09.523,vbt_B2_day2,2022.2.4,Linux armv81,61.15833894,52204,,,,,,,,,,,,,,,,,,,,,,,,,,,down,0,4.682,,0.556090272,0.124259997,1,0,0,1.8713,0,14,14,186,1,voorraad,images/br_voorraad.png,images/cb_voorraad.png,0,,,,,,,,,,,,,,,,,,,,,,
,,,,,,,2023-07-25_14h51.09.523,vbt_B2_day2,2022.2.4,Linux armv81,61.15833894,52204,,,,,,,,,,,,,,,,,,,,,,,,,,,down,0,1.8706,,0.556090272,0.124259997,1,0,0,1.3183,0,15,15,44,1,flits,images/br_flits.png,images/cb_flits.png,0,,,,,,,,,,,,,,,,,,,,,,
,,,,,,,2023-07-25_14h51.09.523,vbt_B2_day2,2022.2.4,Linux armv81,61.15833894,52204,,,,,,,,,,,,,,,,,,,,,,,,,,,down,0,47.8051,,0.49379748,0.195775739,1,0,0,1.4659,0,16,16,182,1,bijkomen,images/br_bijkomen.png,images/cb_bijkomen.png,0,,,,,,,,,,,,,,,,,,,,,,
,,,,,,,2023-07-25_14h51.09.523,vbt_B2_day2,2022.2.4,Linux armv81,61.15833894,52204,,,,,,,,,,,,,,,,,,,,,,,,,,,down,0,4.0328,,0.49379748,0.195775739,1,0,0,0.6944,0,17,17,33,1,vlek,images/br_vlek.png,images/cb_vlek.png,0,,,,,,,,,,,,,,,,,,,,,,
,,,,,,,2023-07-25_14h51.09.523,vbt_B2_day2,2022.2.4,Linux armv81,61.15833894,52204,,,,,,,,,,,,,,,,,,,,,,,,,,,down,0,5.5523,,0.47918118,0.248941004,1,0,0,3.0107,0,18,18,151,1,aanzoek,images/br_aanzoek.png,images/cb_aanzoek.png,0,,,,,,,,,,,,,,,,,,,,,,
,,,,,,,2023-07-25_14h51.09.523,vbt_B2_day2,2022.2.4,Linux armv81,61.15833894,52204,,,,,,,,,,,,,,,,,,,,,,,,,,,down,0,3.6475,,0.47918118,0.248941004,1,0,0,0.8163,0,19,19,36,1,vuur,images/br_vuur.png,images/cb_vuur.png,0,,,,,,,,,,,,,,,,,,,,,,
,,,,,,,2023-07-25_14h51.09.523,vbt_B2_day2,2022.2.4,Linux armv81,61.15833894,52204,,,,,,,,,,,,,,,,,,,,,,,,,,,down,0,11.6574,,0.335005645,0.290686038,1,0,0,1.6716,0,20,20,133,1,seizoen,images/br_seizoen.png,images/cb_seizoen.png,0,,,,,,,,,,,,,,,,,,,,,,
,,,,,,,2023-07-25_14h51.09.523,vbt_B2_day2,2022.2.4,Linux armv81,61.15833894,52204,,,,,,,,,,,,,,,,,,,,,,,,,,,down,0,18.6029,,0.335005645,0.290686038,1,0,0,1.6745,0,21,21,95,1,vreten,images/br_vreten.png,images/cb_vreten.png,0,,,,,,,,,,,,,,,,,,,,,,
,,,,,,,2023-07-25_14h51.09.523,vbt_B2_day2,2022.2.4,Linux armv81,61.15833894,52204,,,,,,,,,,,,,,,,,,,,,,,,,,,down,0,11.3064,,0.291415917,0.289518628,1,0,0,1.154,0,22,22,81,1,dubbel,images/br_dubbel.png,images/cb_dubbel.png,0,,,,,,,,,,,,,,,,,,,,,,
,,,,,,,2023-07-25_14h51.09.523,vbt_B2_day2,2022.2.4,Linux armv81,61.15833894,52204,,,,,,,,,,,,,,,,,,,,,,,,,,,down,0,4.4923,,0.789224612,0.268661321,1,0,0,1.6961,0,23,23,11,1,mode,images/br_mode.png,images/cb_mode.png,0,,,,,,,,,,,,,,,,,,,,,,
,,,,,,,2023-07-25_14h51.09.523,vbt_B2_day2,2022.2.4,Linux armv81,61.15833894,52204,,,,,,,,,,,,,,,,,,,,,,,,,,,down,0,5.8081,,0.630923909,0.371166375,1,0,0,5.068,0,24,24,166,1,strikken,images/br_strikken.png,images/cb_strikken.png,0,,,,,,,,,,,,,,,,,,,,,,
,,,,,,,2023-07-25_14h51.09.523,vbt_B2_day2,2022.2.4,Linux armv81,61.15833894,52204,,,,,,,,,,,,,,,,,,,,,,,,,,,down,0,7.218,,0.571651256,0.406864085,1,0,0,1.2891,0,25,25,79,1,nodig,images/br_nodig.png,images/cb_nodig.png,0,,,,,,,,,,,,,,,,,,,,,,
,,,,,,,2023-07-25_14h51.09.523,vbt_B2_day2,2022.2.4,Linux armv81,61.15833894,52204,,,,,,,,,,,,,,,,,,,,,,,,,,,down,0,7.9732,,0.692855155,0.263578735,1,0,0,1.0642,0,26,26,195,1,middelen,images/br_middelen.png,images/cb_middelen.png,0,,,,,,,,,,,,,,,,,,,,,,
,,,,,,,2023-07-25_14h51.09.523,vbt_B2_day2,2022.2.4,Linux armv81,61.15833894,52204,,,,,,,,,,,,,,,,,,,,,,,,,,,down,0,1.5167,,0.513767251,0.200759434,1,0,0,1.0543,0,27,27,84,1,lokken,images/br_lokken.png,images/cb_lokken.png,0,,,,,,,,,,,,,,,,,,,,,,
,,,,,,,2023-07-25_14h51.09.523,vbt_B2_day2,2022.2.4,Linux armv81,61.15833894,52204,,,,,,,,,,,,,,,,,,,,,,,,,,,down,0,2.2319,,0.513767251,0.200759434,1,0,0,0.8485,0,28,28,140,1,blijven,images/br_blijven.png,images/cb_blijven.png,0,,,,,,,,,,,,,,,,,,,,,,
,,,,,,,2023-07-25_14h51.09.523,vbt_B2_day2,2022.2.4,Linux armv81,61.15833894,52204,,,,,,,,,,,,,,,,,,,,,,,,,,,down,0,0.87,,0.513767251,0.200759434,1,0,0,0.6482,0,29,29,41,1,maken,images/br_maken.png,images/cb_maken.png,0,,,,,,,,,,,,,,,,,,,,,,
,,,,,,,2023-07-25_14h51.09.523,vbt_B2_day2,2022.2.4,Linux armv81,61.15833894,52204,,,,,,,,,,,,,,,,,,,,,,,,,,,down,0,14.5181,,0.627685936,0.166337841,1,0,0,3.0835,0,30,30,196,1,nakijken,images/br_nakijken.png,images/cb_nakijken.png,0,,,,,,,,,,,,,,,,,,,,,,
,,,,,,,2023-07-25_14h51.09.523,vbt_B2_day2,2022.2.4,Linux armv81,61.15833894,52204,,,,,,,,,,,,,,,,,,,,,,,,,,,down,0,11.8712,,0.573283914,0.172341511,1,0,0,0.8291,0,31,31,78,1,leren,images/br_leren.png,images/cb_leren.png,0,,,,,,,,,,,,,,,,,,,,,,
,,,,,,,2023-07-25_14h51.09.523,vbt_B2_day2,2022.2.4,Linux armv81,61.15833894,52204,,,,,,,,,,,,,,,,,,,,,,,,,,,down,0,5.2998,,0.573283914,0.172341511,1,0,0,0.6883,0,32,32,55,1,praat,images/br_praat.png,images/cb_praat.png,0,,,,,,,,,,,,,,,,,,,,,,
,,,,,,,2023-07-25_14h51.09.523,vbt_B2_day2,2022.2.4,Linux armv81,61.15833894,52204,,,,,,,,,,,,,,,,,,,,,,,,,,,down,0,7.5506,,0.429743093,0.420536082,1,0,0,1.0247,0,33,33,63,1,flirt,images/br_flirt.png,images/cb_flirt.png,0,,,,,,,,,,,,,,,,,,,,,,
,,,,,,,2023-07-25_14h51.09.523,vbt_B2_day2,2022.2.4,Linux armv81,61.15833894,52204,,,,,,,,,,,,,,,,,,,,,,,,,,,down,0,1.3753,,0.331146305,0.290949568,1,0,0,1.0298,0,34,34,34,1,vorm,images/br_vorm.png,images/cb_vorm.png,0,,,,,,,,,,,,,,,,,,,,,,
,,,,,,,2023-07-25_14h51.09.523,vbt_B2_day2,2022.2.4,Linux armv81,61.15833894,52204,,,,,,,,,,,,,,,,,,,,,,,,,,,down,0,0.9989,,0.349012371,-0.008700717,1,0,0,1.4759,0,35,35,126,1,kasteel,images/br_kasteel.png,images/cb_kasteel.png,0,,,,,,,,,,,,,,,,,,,,,,
,,,,,,,2023-07-25_14h51.09.523,vbt_B2_day2,2022.2.4,Linux armv81,61.15833894,52204,,,,,,,,,,,,,,,,,,,,,,,,,,,down,0,4.7537,,0.236852172,0.146330912,1,0,0,0.9627,0,36,36,69,1,waken,images/br_waken.png,images/cb_waken.png,0,,,,,,,,,,,,,,,,,,,,,,
,,,,,,,2023-07-25_14h51.09.523,vbt_B2_day2,2022.2.4,Linux armv81,61.15833894,52204,,,,,,,,,,,,,,,,,,,,,,,,,,,down,0,3.6917,,0.214321064,0.138319886,1,0,0,1.5766,0,37,37,171,1,aarzelen,images/br_aarzelen.png,images/cb_aarzelen.png,0,,,,,,,,,,,,,,,,,,,,,,
,,,,,,,2023-07-25_14h51.09.523,vbt_B2_day2,2022.2.4,Linux armv81,61.15833894,52204,,,,,,,,,,,,,,,,,,,,,,,,,,,down,0,63.3496,,0.508052883,-0.135458653,1,0,0,3.5685,0,38,38,96,1,slagen,images/br_slagen.png,images/cb_slagen.png,1,slagen,,,,,,,,,,,,,,,,,,,,,
,,,,,,,2023-07-25_14h51.09.523,vbt_B2_day2,2022.2.4,Linux armv81,61.15833894,52204,,,,,,,,,,,,,,,,,,,,,,,,,,,down,0,10.0414,,0.491716842,-0.10497859,1,0,0,0.951,0,39,39,61,1,groen,images/br_groen.png,images/cb_groen.png,0,,,,,,,,,,,,,,,,,,,,,,
,,,,,,,2023-07-25_14h51.09.523,vbt_B2_day2,2022.2.4,Linux armv81,61.15833894,52204,,,,,,,,,,,,,,,,,,,,,,,,,,,down,0,7.3252,,0.347003394,-0.134476842,1,0,0,1.4112,0,40,40,51,1,samen,images/br_samen.png,images/cb_samen.png,0,,,,,,,,,,,,,,,,,,,,,,
,,,,,,,2023-07-25_14h51.09.523,vbt_B2_day2,2022.2.4,Linux armv81,61.15833894,52204,,,,,,,,,,,,,,,,,,,,,,,,,,,down,0,9.7935,,-0.059839139,0.023701629,1,0,0,1.0981,0,41,41,123,1,hiervan,images/br_hiervan.png,images/cb_hiervan.png,0,,,,,,,,,,,,,,,,,,,,,,
,,,,,,,2023-07-25_14h51.09.523,vbt_B2_day2,2022.2.4,Linux armv81,61.15833894,52204,,,,,,,,,,,,,,,,,,,,,,,,,,,down,0,11.1808,,0.598192349,0.294086189,1,0,0,2.1798,0,42,42,183,1,getuigen,images/br_getuigen.png,images/cb_getuigen.png,0,,,,,,,,,,,,,,,,,,,,,,
,,,,,,,2023-07-25_14h51.09.523,vbt_B2_day2,2022.2.4,Linux armv81,61.15833894,52204,,,,,,,,,,,,,,,,,,,,,,,,,,,down,0,4.527,,0.598192349,0.294086189,1,0,0,0.7113,0,43,43,154,1,aflopen,images/br_aflopen.png,images/cb_aflopen.png,0,,,,,,,,,,,,,,,,,,,,,,
,,,,,,,2023-07-25_14h51.09.523,vbt_B2_day2,2022.2.4,Linux armv81,61.15833894,52204,,,,,,,,,,,,,,,,,,,,,,,,,,,down,0,15.8571,,0.569418095,0.405975253,1,0,0,1.3441,0,44,44,198,1,bedoelen,images/br_bedoelen.png,images/cb_bedoelen.png,0,,,,,,,,,,,,,,,,,,,,,,
,,,,,,,2023-07-25_14h51.09.523,vbt_B2_day2,2022.2.4,Linux armv81,61.15833894,52204,,,,,,,,,,,,,,,,,,,,,,,,,,,down,0,24.5162,,0.55889439,0.400909853,1,0,0,1.627,0,45,45,80,1,kanjer,images/br_kanjer.png,images/cb_kanjer.png,0,,,,,,,,,,,,,,,,,,,,,,
,,,,,,,2023-07-25_14h51.09.523,vbt_B2_day2,2022.2.4,Linux armv81,61.15833894,52204,,,,,,,,,,,,,,,,,,,,,,,,,,,down,0,13.147,,0.73579397,0.192994298,1,0,0,2.5432,0,46,46,188,1,strekken,images/br_strekken.png,images/cb_strekken.png,0,,,,,,,,,,,,,,,,,,,,,,
,,,,,,,2023-07-25_14h51.09.523,vbt_B2_day2,2022.2.4,Linux armv81,61.15833894,52204,,,,,,,,,,,,,,,,,,,,,,,,,,,down,0,7.806,,0.300865352,0.145236848,1,0,0,1.189,0,47,47,108,1,excuus,images/br_excuus.png,images/cb_excuus.png,0,,,,,,,,,,,,,,,,,,,,,,
,,,,,,,2023-07-25_14h51.09.523,vbt_B2_day2,2022.2.4,Linux armv81,61.15833894,52204,,,,,,,,,,,,,,,,,,,,,,,,,,,down,0,8.8676,,0.166311147,0.181272762,1,0,0,0.9278,0,48,48,127,1,doodmoe,images/br_doodmoe.png,images/cb_doodmoe.png,0,,,,,,,,,,,,,,,,,,,,,,
,,,,,,,2023-07-25_14h51.09.523,vbt_B2_day2,2022.2.4,Linux armv81,61.15833894,52204,,,,,,,,,,,,,,,,,,,,,,,,,,,down,0,23.4394,,0.084015929,0.229906848,1,0,0,0.9709,0,49,49,115,1,kleren,images/br_kleren.png,images/cb_kleren.png,0,,,,,,,,,,,,,,,,,,,,,,
,,,,,,,2023-07-25_14h51.09.523,vbt_B2_day2,2022.2.4,Linux armv81,61.15833894,52204,,,,,,,,,,,,,,,,,,,,,,,,,,,down,0,14.9032,,0.33958678,-0.11695554,1,0,0,1.4783,0,50,50,56,1,traag,images/br_traag.png,images/cb_traag.png,1,traag,,,,,,,,,,,,,,,,,,,,,
,,,,,,,2023-07-25_14h51.09.523,vbt_B2_day2,2022.2.4,Linux armv81,61.15833894,52204,,,,,,,,,,,,,,,,,,,,,,,,,,,down,0,10.7624,,0.281582389,-0.086127279,1,0,0,1.1834,0,51,51,104,1,zweven,images/br_zweven.png,images/cb_zweven.png,0,,,,,,,,,,,,,,,,,,,,,,
,,,,,,,2023-07-25_14h51.09.523,vbt_B2_day2,2022.2.4,Linux armv81,61.15833894,52204,,,,,,,,,,,,,,,,,,,,,,,,,,,down,0,1.7989,,0.261024427,-0.071592424,1,0,0,0.9363,0,52,52,42,1,bleek,images/br_bleek.png,images/cb_bleek.png,0,,,,,,,,,,,,,,,,,,,,,,
,,,,,,,2023-07-25_14h51.09.523,vbt_B2_day2,2022.2.4,Linux armv81,61.15833894,52204,,,,,,,,,,,,,,,,,,,,,,,,,,,down,0,1.7845,,0.200197321,-0.022098485,1,0,0,1.4882,0,53,53,73,1,volop,images/br_volop.png,images/cb_volop.png,0,,,,,,,,,,,,,,,,,,,,,,
,,,,,,,2023-07-25_14h51.09.523,vbt_B2_day2,2022.2.4,Linux armv81,61.15833894,52204,,,,,,,,,,,,,,,,,,,,,,,,,,,down,0,1.7466,,0.077419014,0.128464523,1,0,0,0.9325,0,54,54,68,1,schat,images/br_schat.png,images/cb_schat.png,0,,,,,,,,,,,,,,,,,,,,,,
,,,,,,,2023-07-25_14h51.09.523,vbt_B2_day2,2022.2.4,Linux armv81,61.15833894,52204,,,,,,,,,,,,,,,,,,,,,,,,,,,down,0,24.7436,,0.158468059,0.11577831,1,0,0,2.4544,0,55,55,139,1,stiekem,images/br_stiekem.png,images/cb_stiekem.png,1,stiekem,,,,,,,,,,,,,,,,,,,,,
,,,,,,,2023-07-25_14h51.09.523,vbt_B2_day2,2022.2.4,Linux armv81,61.15833894,52204,,,,,,,,,,,,,,,,,,,,,,,,,,,down,0,14.6285,,0.583257914,-0.107902122,1,0,0,1.0571,0,56,56,18,1,blik,images/br_blik.png,images/cb_blik.png,1,blik,,,,,,,,,,,,,,,,,,,,,
,,,,,,,2023-07-25_14h51.09.523,vbt_B2_day2,2022.2.4,Linux armv81,61.15833894,52204,,,,,,,,,,,,,,,,,,,,,,,,,,,down,0,8.7843,,0.500243752,-0.081289757,1,0,0,0.9347,0,57,57,85,1,heilig,images/br_heilig.png,images/cb_heilig.png,0,,,,,,,,,,,,,,,,,,,,,,
,,,,,,,2023-07-25_14h51.09.523,vbt_B2_day2,2022.2.4,Linux armv81,61.15833894,52204,,,,,,,,,,,,,,,,,,,,,,,,,,,down,0,2.2255,,0.394883206,0.018857304,1,0,0,1.148,0,58,58,106,1,zingen,images/br_zingen.png,images/cb_zingen.png,0,,,,,,,,,,,,,,,,,,,,,,
,,,,,,,2023-07-25_14h51.09.523,vbt_B2_day2,2022.2.4,Linux armv81,61.15833894,52204,,,,,,,,,,,,,,,,,,,,,,,,,,,down,0,4.7896,,0.360835567,0.04804037,1,0,0,1.3164,0,59,59,131,1,opzicht,images/br_opzicht.png,images/cb_opzicht.png,0,,,,,,,,,,,,,,,,,,,,,,
,,,,,,,2023-07-25_14h51.09.523,vbt_B2_day2,2022.2.4,Linux armv81,61.15833894,52204,,,,,,,,,,,,,,,,,,,,,,,,,,,down,0,0.5386,,0.342275178,0.089699326,1,0,0,1.8517,0,60,60,119,1,liefje,images/br_liefje.png,images/cb_liefje.png,0,,,,,,,,,,,,,,,,,,,,,,
,,,,,,,2023-07-25_14h51.09.523,vbt_B2_day2,2022.2.4,Linux armv81,61.15833894,52204,,,,,,,,,,,,,,,,,,,,,,,,,,,down,0,36.9776,,0.690781774,0.125413316,1,0,0,1.1815,0,61,61,176,1,techniek,images/br_techniek.png,images/cb_techniek.png,1,techniek,,,,,,,,,,,,,,,,,,,,,
,,,,,,,2023-07-25_14h51.09.523,vbt_B2_day2,2022.2.4,Linux armv81,61.15833894,52204,,,,,,,,,,,,,,,,,,,,,,,,,,,down,0,11.1973,,0.670997053,0.149766149,1,0,0,1.0328,0,62,62,53,1,baron,images/br_baron.png,images/cb_baron.png,0,,,,,,,,,,,,,,,,,,,,,,
,,,,,,,2023-07-25_14h51.09.523,vbt_B2_day2,2022.2.4,Linux armv81,61.15833894,52204,,,,,,,,,,,,,,,,,,,,,,,,,,,down,0,16.8424,,0.615561192,0.206946209,1,0,0,1.0846,0,63,63,144,1,eetlust,images/br_eetlust.png,images/cb_eetlust.png,0,,,,,,,,,,,,,,,,,,,,,,
,,,,,,,2023-07-25_14h51.09.523,vbt_B2_day2,2022.2.4,Linux armv81,61.15833894,52204,,,,,,,,,,,,,,,,,,,,,,,,,,,down,0,6.4596,,0.581249067,0.214587266,1,0,0,1.0013,0,64,64,70,1,ijdel,images/br_ijdel.png,images/cb_ijdel.png,0,,,,,,,,,,,,,,,,,,,,,,
,,,,,,,2023-07-25_14h51.09.523,vbt_B2_day2,2022.2.4,Linux armv81,61.15833894,52204,,,,,,,,,,,,,,,,,,,,,,,,,,,down,0,15.8325,,0.581249067,0.214587266,1,0,0,0.5824,0,65,65,8,1,knie,images/br_knie.png,images/cb_knie.png,0,,,,,,,,,,,,,,,,,,,,,,
,,,,,,,2023-07-25_14h51.09.523,vbt_B2_day2,2022.2.4,Linux armv81,61.15833894,52204,,,,,,,,,,,,,,,,,,,,,,,,,,,down,0,5.9754,,0.572020707,0.208721412,1,0,0,1.6048,0,66,66,6,1,diep,images/br_diep.png,images/cb_diep.png,0,,,,,,,,,,,,,,,,,,,,,,
,,,,,,,2023-07-25_14h51.09.523,vbt_B2_day2,2022.2.4,Linux armv81,61.15833894,52204,,,,,,,,,,,,,,,,,,,,,,,,,,,down,0,10.8724,,0.505624435,0.24882794,1,0,0,1.7807,0,67,67,141,1,knielen,images/br_knielen.png,images/cb_knielen.png,0,,,,,,,,,,,,,,,,,,,,,,
,,,,,,,2023-07-25_14h51.09.523,vbt_B2_day2,2022.2.4,Linux armv81,61.15833894,52204,,,,,,,,,,,,,,,,,,,,,,,,,,,down,0,14.784,,0.433130868,0.31803941,1,0,0,1.3427,0,68,68,165,1,feestdag,images/br_feestdag.png,images/cb_feestdag.png,0,,,,,,,,,,,,,,,,,,,,,,
,,,,,,,2023-07-25_14h51.09.523,vbt_B2_day2,2022.2.4,Linux armv81,61.15833894,52204,,,,,,,,,,,,,,,,,,,,,,,,,,,down,0,5.4945,,0.34134747,0.315372589,1,0,0,2.2191,0,69,69,88,1,boeien,images/br_boeien.png,images/cb_boeien.png,0,,,,,,,,,,,,,,,,,,,,,,
,,,,,,,2023-07-25_14h51.09.523,vbt_B2_day2,2022.2.4,Linux armv81,61.15833894,52204,,,,,,,,,,,,,,,,,,,,,,,,,,,down,0,4.6779,,0.315185158,0.456645156,1,0,0,5.9122,0,70,70,52,1,wagon,images/br_wagon.png,images/cb_wagon.png,0,,,,,,,,,,,,,,,,,,,,,,
,,,,,,,2023-07-25_14h51.09.523,vbt_B2_day2,2022.2.4,Linux armv81,61.15833894,52204,,,,,,,,,,,,,,,,,,,,,,,,,,,down,0,22.9039,,0.448080075,0.346552369,1,0,0,6.6542,0,71,71,158,1,innemen,images/br_innemen.png,images/cb_innemen.png,0,,,,,,,,,,,,,,,,,,,,,,
,,,,,,,2023-07-25_14h51.09.523,vbt_B2_day2,2022.2.4,Linux armv81,61.15833894,52204,,,,,,,,,,,,,,,,,,,,,,,,,,,down,0,4.0519,,0.656093978,0.293962466,1,0,0,6.0317,0,72,72,26,1,leuk,images/br_leuk.png,images/cb_leuk.png,0,,,,,,,,,,,,,,,,,,,,,,
,,,,,,,2023-07-25_14h51.09.523,vbt_B2_day2,2022.2.4,Linux armv81,61.15833894,52204,,,,,,,,,,,,,,,,,,,,,,,,,,,down,0,23.9822,,0.702371907,0.206574557,1,0,0,1.5399,0,73,73,178,1,huisdier,images/br_huisdier.png,images/cb_huisdier.png,1,huisdier,,,,,,,,,,,,,,,,,,,,,
,,,,,,,2023-07-25_14h51.09.523,vbt_B2_day2,2022.2.4,Linux armv81,61.15833894,52204,,,,,,,,,,,,,,,,,,,,,,,,,,,down,0,4.6614,,0.696055807,0.218225435,1,0,0,1.2898,0,74,74,128,1,prikken,images/br_prikken.png,images/cb_prikken.png,0,,,,,,,,,,,,,,,,,,,,,,
,,,,,,,2023-07-25_14h51.09.523,vbt_B2_day2,2022.2.4,Linux armv81,61.15833894,52204,,,,,,,,,,,,,,,,,,,,,,,,,,,down,0,18.8218,,0.29923062,0.246228325,1,0,0,4.8147,0,75,75,150,1,gegeven,images/br_gegeven.png,images/cb_gegeven.png,0,,,,,,,,,,,,,,,,,,,,,,
,,,,,,,2023-07-25_14h51.09.523,vbt_B2_day2,2022.2.4,Linux armv81,61.15833894,52204,,,,,,,,,,,,,,,,,,,,,,,,,,,down,0,12.3113,,0.217800067,0.427734739,1,0,0,1.8785,0,76,76,77,1,woede,images/br_woede.png,images/cb_woede.png,0,,,,,,,,,,,,,,,,,,,,,,
,,,,,,,2023-07-25_14h51.09.523,vbt_B2_day2,2022.2.4,Linux armv81,61.15833894,52204,,,,,,,,,,,,,,,,,,,,,,,,,,,down,0,12.979,,0.468007341,-0.073934114,1,0,0,2.1504,0,77,77,143,1,hechten,images/br_hechten.png,images/cb_hechten.png,0,,,,,,,,,,,,,,,,,,,,,,
,,,,,,,2023-07-25_14h51.09.523,vbt_B2_day2,2022.2.4,Linux armv81,61.15833894,52204,,,,,,,,,,,,,,,,,,,,,,,,,,,down,0,13.8331,,0.354057037,-0.024469525,1,0,0,1.1434,0,78,78,90,1,geluid,images/br_geluid.png,images/cb_geluid.png,0,,,,,,,,,,,,,,,,,,,,,,
,,,,,,,2023-07-25_14h51.09.523,vbt_B2_day2,2022.2.4,Linux armv81,61.15833894,52204,,,,,,,,,,,,,,,,,,,,,,,,,,,down,0,3.4078,,0.620618557,0.132776313,1,0,0,7.5391,0,79,79,193,1,weeshuis,images/br_weeshuis.png,images/cb_weeshuis.png,0,,,,,,,,,,,,,,,,,,,,,,
,,,,,,,2023-07-25_14h51.09.523,vbt_B2_day2,2022.2.4,Linux armv81,61.15833894,52204,,,,,,,,,,,,,,,,,,,,,,,,,,,down,0,2.4444,,0.620618557,0.132776313,1,0,0,0.5763,0,80,80,50,1,stoom,images/br_stoom.png,images/cb_stoom.png,0,,,,,,,,,,,,,,,,,,,,,,
,,,,,,,2023-07-25_14h51.09.523,vbt_B2_day2,2022.2.4,Linux armv81,61.15833894,52204,,,,,,,,,,,,,,,,,,,,,,,,,,,down,0,21.3327,,0.556674188,0.147412958,1,0,0,1.3243,0,81,81,130,1,keihard,images/br_keihard.png,images/cb_keihard.png,0,,,,,,,,,,,,,,,,,,,,,,
,,,,,,,2023-07-25_14h51.09.523,vbt_B2_day2,2022.2.4,Linux armv81,61.15833894,52204,,,,,,,,,,,,,,,,,,,,,,,,,,,down,0,51.4187,,0.426903079,0.218821953,1,0,0,2.1594,0,82,82,105,1,wijlen,images/br_wijlen.png,images/cb_wijlen.png,0,,,,,,,,,,,,,,,,,,,,,,
,,,,,,,2023-07-25_14h51.09.523,vbt_B2_day2,2022.2.4,Linux armv81,61.15833894,52204,,,,,,,,,,,,,,,,,,,,,,,,,,,down,0,15.337,,0.388200699,0.247396368,1,0,0,0.6033,0,83,83,185,1,mijnheer,images/br_mijnheer.png,images/cb_mijnheer.png,0,,,,,,,,,,,,,,,,,,,,,,
,,,,,,,2023-07-25_14h51.09.523,vbt_B2_day2,2022.2.4,Linux armv81,61.15833894,52204,,,,,,,,,,,,,,,,,,,,,,,,,,,down,0,16.195,,0.355704338,0.278966689,1,0,0,1.0708,0,84,84,60,1,jasje,images/br_jasje.png,images/cb_jasje.png,0,,,,,,,,,,,,,,,,,,,,,,
,,,,,,,2023-07-25_14h51.09.523,vbt_B2_day2,2022.2.4,Linux armv81,61.15833894,52204,,,,,,,,,,,,,,,,,,,,,,,,,,,down,0,31.3459,,0.549489482,0.103364566,1,0,0,6.968,0,85,85,177,1,maaltijd,images/br_maaltijd.png,images/cb_maaltijd.png,1,maaltijd,,,,,,,,,,,,,,,,,,,,,
,,,,,,,2023-07-25_14h51.09.523,vbt_B2_day2,2022.2.4,Linux armv81,61.15833894,52204,,,,,,,,,,,,,,,,,,,,,,,,,,,down,0,2.6771,,0.551489828,0.123066605,1,0,0,1.4977,0,86,86,181,1,toegeven,images/br_toegeven.png,images/cb_toegeven.png,0,,,,,,,,,,,,,,,,,,,,,,
,,,,,,,2023-07-25_14h51.09.523,vbt_B2_day2,2022.2.4,Linux armv81,61.15833894,52204,,,,,,,,,,,,,,,,,,,,,,,,,,,down,0,9.3711,,0.49635681,0.121984462,1,0,0,1.4388,0,87,87,168,1,bisschop,images/br_bisschop.png,images/cb_bisschop.png,0,,,,,,,,,,,,,,,,,,,,,,
,,,,,,,2023-07-25_14h51.09.523,vbt_B2_day2,2022.2.4,Linux armv81,61.15833894,52204,,,,,,,,,,,,,,,,,,,,,,,,,,,down,0,11.4748,,0.409419681,0.140479021,1,0,0,1.131,0,88,88,72,1,strak,images/br_strak.png,images/cb_strak.png,0,,,,,,,,,,,,,,,,,,,,,,
,,,,,,,2023-07-25_14h51.09.523,vbt_B2_day2,2022.2.4,Linux armv81,61.15833894,52204,,,,,,,,,,,,,,,,,,,,,,,,,,,down,0,20.2821,,0.417659168,0.181116837,1,0,0,1.01,0,89,89,74,1,graaf,images/br_graaf.png,images/cb_graaf.png,0,,,,,,,,,,,,,,,,,,,,,,
,,,,,,,2023-07-25_14h51.09.523,vbt_B2_day2,2022.2.4,Linux armv81,61.15833894,52204,,,,,,,,,,,,,,,,,,,,,,,,,,,down,0,4.7522,,0.303673487,0.398876352,1,0,0,0.8962,0,90,90,92,1,geheim,images/br_geheim.png,images/cb_geheim.png,0,,,,,,,,,,,,,,,,,,,,,,
,,,,,,,2023-07-25_14h51.09.523,vbt_B2_day2,2022.2.4,Linux armv81,61.15833894,52204,,,,,,,,,,,,,,,,,,,,,,,,,,,down,0,3.6652,,0.234572684,0.40560909,1,0,0,1.2545,0,91,91,62,1,knaap,images/br_knaap.png,images/cb_knaap.png,0,,,,,,,,,,,,,,,,,,,,,,
,,,,,,,2023-07-25_14h51.09.523,vbt_B2_day2,2022.2.4,Linux armv81,61.15833894,52204,,,,,,,,,,,,,,,,,,,,,,,,,,,down,0,2.8293,,0.174378932,0.427731548,1,0,0,1.1171,0,92,92,157,1,uitlaat,images/br_uitlaat.png,images/cb_uitlaat.png,0,,,,,,,,,,,,,,,,,,,,,,
,,,,,,,2023-07-25_14h51.09.523,vbt_B2_day2,2022.2.4,Linux armv81,61.15833894,52204,,,,,,,,,,,,,,,,,,,,,,,,,,,down,0,3.3148,,0.058530123,0.475234993,1,0,0,0.9937,0,93,93,31,1,poes,images/br_poes.png,images/cb_poes.png,0,,,,,,,,,,,,,,,,,,,,,,
,,,,,,,2023-07-25_14h51.09.523,vbt_B2_day2,2022.2.4,Linux armv81,61.15833894,52204,,,,,,,,,,,,,,,,,,,,,,,,,,,down,0,0.9907,,0.019827484,0.46925534,1,0,0,0.7465,0,94,94,0,1,slak,images/br_slak.png,images/cb_slak.png,0,,,,,,,,,,,,,,,,,,,,,,
,,,,,,,2023-07-25_14h51.09.523,vbt_B2_day2,2022.2.4,Linux armv81,61.15833894,52204,,,,,,,,,,,,,,,,,,,,,,,,,,,down,0,6.9271,,-0.061415298,0.461582666,1,0,0,1.0517,0,95,95,46,1,jagen,images/br_jagen.png,images/cb_jagen.png,0,,,,,,,,,,,,,,,,,,,,,,
,,,,,,,2023-07-25_14h51.09.523,vbt_B2_day2,2022.2.4,Linux armv81,61.15833894,52204,,,,,,,,,,,,,,,,,,,,,,,,,,,down,0,9.5714,,0.135324336,0.372687897,1,0,0,1.2416,0,96,96,57,1,steek,images/br_steek.png,images/cb_steek.png,1,steek,,,,,,,,,,,,,,,,,,,,,
,,,,,,,2023-07-25_14h51.09.523,vbt_B2_day2,2022.2.4,Linux armv81,61.15833894,52204,,,,,,,,,,,,,,,,,,,,,,,,,,,down,0,28.4872,,0.314614719,0.315949669,1,0,0,0.9813,0,97,97,179,1,woestijn,images/br_woestijn.png,images/cb_woestijn.png,1,woestijn,,,,,,,,,,,,,,,,,,,,,
,,,,,,,2023-07-25_14h51.09.523,vbt_B2_day2,2022.2.4,Linux armv81,61.15833894,52204,,,,,,,,,,,,,,,,,,,,,,,,,,,down,0,4.3755,,0.299683395,0.350331252,1,0,0,0.9966,0,98,98,192,1,schaamte,images/br_schaamte.png,images/cb_schaamte.png,0,,,,,,,,,,,,,,,,,,,,,,
,,,,,,,2023-07-25_14h51.09.523,vbt_B2_day2,2022.2.4,Linux armv81,61.15833894,52204,,,,,,,,,,,,,,,,,,,,,,,,,,,down,0,7.1629,,0.299683395,0.350331252,1,0,0,0.8636,0,99,99,9,1,hier,images/br_hier.png,images/cb_hier.png,0,,,,,,,,,,,,,,,,,,,,,,
,,,,,,,2023-07-25_14h51.09.523,vbt_B2_day2,2022.2.4,Linux armv81,61.15833894,52204,,,,,,,,,,,,,,,,,,,,,,,,,,,down,0,6.3126,,0.265079895,0.38490783,1,0,0,0.9926,0,100,100,173,1,apparaat,images/br_apparaat.png,images/cb_apparaat.png,0,,,,,,,,,,,,,,,,,,,,,,
,,,,,,,2023-07-25_14h51.09.523,vbt_B2_day2,2022.2.4,Linux armv81,61.15833894,52204,,,,,,,,,,,,,,,,,,,,,,,,,,,down,0,18.0474,,0.265079895,0.38490783,1,0,0,26.3329,0,101,101,180,1,openbaar,images/br_openbaar.png,images/cb_openbaar.png,0,,,,,,,,,,,,,,,,,,,,,,
,,,,,,,2023-07-25_14h51.09.523,vbt_B2_day2,2022.2.4,Linux armv81,61.15833894,52204,,,,,,,,,,,,,,,,,,,,,,,,,,,down,0,7.7933,,0.439434853,0.5,1,0,0,0.9141,0,102,102,65,1,parel,images/br_parel.png,images/cb_parel.png,0,,,,,,,,,,,,,,,,,,,,,,
,,,,,,,2023-07-25_14h51.09.523,vbt_B2_day2,2022.2.4,Linux armv81,61.15833894,52204,,,,,,,,,,,,,,,,,,,,,,,,,,,down,0,14.1499,,0.680375085,0.17874531,1,0,0,0.9785,0,103,103,191,1,opheffen,images/br_opheffen.png,images/cb_opheffen.png,0,,,,,,,,,,,,,,,,,,,,,,
,,,,,,,2023-07-25_14h51.09.523,vbt_B2_day2,2022.2.4,Linux armv81,61.15833894,52204,,,,,,,,,,,,,,,,,,,,,,,,,,,down,0,13.2867,,0.586541631,0.203293171,1,0,0,2.0576,0,104,104,134,1,geliefd,images/br_geliefd.png,images/cb_geliefd.png,0,,,,,,,,,,,,,,,,,,,,,,
,,,,,,,2023-07-25_14h51.09.523,vbt_B2_day2,2022.2.4,Linux armv81,61.15833894,52204,,,,,,,,,,,,,,,,,,,,,,,,,,,down,0,6.6565,,0.561696954,0.13502888,1,0,0,1.2553,0,105,105,113,1,koppen,images/br_koppen.png,images/cb_koppen.png,0,,,,,,,,,,,,,,,,,,,,,,
,,,,,,,2023-07-25_14h51.09.523,vbt_B2_day2,2022.2.4,Linux armv81,61.15833894,52204,,,,,,,,,,,,,,,,,,,,,,,,,,,down,0,6.5444,,0.500440723,0.203771215,1,0,0,0.9138,0,106,106,76,1,afval,images/br_afval.png,images/cb_afval.png,0,,,,,,,,,,,,,,,,,,,,,,
,,,,,,,2023-07-25_14h51.09.523,vbt_B2_day2,2022.2.4,Linux armv81,61.15833894,52204,,,,,,,,,,,,,,,,,,,,,,,,,,,down,0,9.5032,,0.486445271,0.304805667,1,0,0,1.0972,0,107,107,103,1,joggen,images/br_joggen.png,images/cb_joggen.png,0,,,,,,,,,,,,,,,,,,,,,,
,,,,,,,2023-07-25_14h51.09.523,vbt_B2_day2,2022.2.4,Linux armv81,61.15833894,52204,,,,,,,,,,,,,,,,,,,,,,,,,,,down,0,0.9379,,0.486445271,0.304805667,1,0,0,0.8051,0,108,108,2,1,jaar,images/br_jaar.png,images/cb_jaar.png,0,,,,,,,,,,,,,,,,,,,,,,
,,,,,,,2023-07-25_14h51.09.523,vbt_B2_day2,2022.2.4,Linux armv81,61.15833894,52204,,,,,,,,,,,,,,,,,,,,,,,,,,,down,0,2.5439,,0.365550047,0.161355636,1,0,0,1.2773,0,109,109,120,1,klimmen,images/br_klimmen.png,images/cb_klimmen.png,0,,,,,,,,,,,,,,,,,,,,,,
,,,,,,,2023-07-25_14h51.09.523,vbt_B2_day2,2022.2.4,Linux armv81,61.15833894,52204,,,,,,,,,,,,,,,,,,,,,,,,,,,down,0,3.1956,,0.340157608,0.14976009,1,0,0,0.882,0,110,110,114,1,vullen,images/br_vullen.png,images/cb_vullen.png,0,,,,,,,,,,,,,,,,,,,,,,
,,,,,,,2023-07-25_14h51.09.523,vbt_B2_day2,2022.2.4,Linux armv81,61.15833894,52204,,,,,,,,,,,,,,,,,,,,,,,,,,,down,0,0.643,,0.340157608,0.14976009,1,0,0,0.9606,0,111,111,101,1,staren,images/br_staren.png,images/cb_staren.png,0,,,,,,,,,,,,,,,,,,,,,,
,,,,,,,2023-07-25_14h51.09.523,vbt_B2_day2,2022.2.4,Linux armv81,61.15833894,52204,,,,,,,,,,,,,,,,,,,,,,,,,,,down,0,38.5596,,0.219876883,0.20161749,1,0,0,1.8002,0,112,112,155,1,gerucht,images/br_gerucht.png,images/cb_gerucht.png,0,,,,,,,,,,,,,,,,,,,,,,
,,,,,,,2023-07-25_14h51.09.523,vbt_B2_day2,2022.2.4,Linux armv81,61.15833894,52204,,,,,,,,,,,,,,,,,,,,,,,,,,,down,0,3.362,,0.219876883,0.20161749,1,0,0,1.5981,0,113,113,197,1,spanning,images/br_spanning.png,images/cb_spanning.png,0,,,,,,,,,,,,,,,,,,,,,,
,,,,,,,2023-07-25_14h51.09.523,vbt_B2_day2,2022.2.4,Linux armv81,61.15833894,52204,,,,,,,,,,,,,,,,,,,,,,,,,,,down,0,15.2244,,0.132677341,0.344627656,1,0,0,7.7807,0,114,114,174,1,stemming,images/br_stemming.png,images/cb_stemming.png,0,,,,,,,,,,,,,,,,,,,,,,
,,,,,,,2023-07-25_14h51.09.523,vbt_B2_day2,2022.2.4,Linux armv81,61.15833894,52204,,,,,,,,,,,,,,,,,,,,,,,,,,,down,0,4.249,,0.132677341,0.344627656,1,0,0,0.7452,0,115,115,24,1,jurk,images/br_jurk.png,images/cb_jurk.png,0,,,,,,,,,,,,,,,,,,,,,,
,,,,,,,2023-07-25_14h51.09.523,vbt_B2_day2,2022.2.4,Linux armv81,61.15833894,52204,,,,,,,,,,,,,,,,,,,,,,,,,,,down,0,1.9816,,0.132677341,0.344627656,1,0,0,0.9147,0,116,116,12,1,kust,images/br_kust.png,images/cb_kust.png,0,,,,,,,,,,,,,,,,,,,,,,
,,,,,,,2023-07-25_14h51.09.523,vbt_B2_day2,2022.2.4,Linux armv81,61.15833894,52204,,,,,,,,,,,,,,,,,,,,,,,,,,,down,0,19.5495,,0.088555727,0.385499537,1,0,0,3.1625,0,117,117,156,1,rechten,images/br_rechten.png,images/cb_rechten.png,0,,,,,,,,,,,,,,,,,,,,,,
,,,,,,,2023-07-25_14h51.09.523,vbt_B2_day2,2022.2.4,Linux armv81,61.15833894,52204,,,,,,,,,,,,,,,,,,,,,,,,,,,down,0,15.9124,,0.354299622,0.192308365,1,0,0,3.6839,0,118,118,122,1,waarvan,images/br_waarvan.png,images/cb_waarvan.png,0,,,,,,,,,,,,,,,,,,,,,,
,,,,,,,2023-07-25_14h51.09.523,vbt_B2_day2,2022.2.4,Linux armv81,61.15833894,52204,,,,,,,,,,,,,,,,,,,,,,,,,,,down,0,6.163,,0.305889413,0.219895478,1,0,0,1.599,0,119,119,25,1,plek,images/br_plek.png,images/cb_plek.png,0,,,,,,,,,,,,,,,,,,,,,,
,,,,,,,2023-07-25_14h51.09.523,vbt_B2_day2,2022.2.4,Linux armv81,61.15833894,52204,,,,,,,,,,,,,,,,,,,,,,,,,,,down,0,1.269,,0.225058068,0.272158904,1,0,0,2.2579,0,120,120,169,1,oprotten,images/br_oprotten.png,images/cb_oprotten.png,0,,,,,,,,,,,,,,,,,,,,,,
,,,,,,,2023-07-25_14h51.09.523,vbt_B2_day2,2022.2.4,Linux armv81,61.15833894,52204,,,,,,,,,,,,,,,,,,,,,,,,,,,down,0,5.7549,,0.215044155,0.296192193,1,0,0,1.2862,0,121,121,194,1,driemaal,images/br_driemaal.png,images/cb_driemaal.png,0,,,,,,,,,,,,,,,,,,,,,,
,,,,,,,2023-07-25_14h51.09.523,vbt_B2_day2,2022.2.4,Linux armv81,61.15833894,52204,,,,,,,,,,,,,,,,,,,,,,,,,,,down,0,7.0574,,0.177972943,0.336568796,1,0,0,1.2504,0,122,122,125,1,aanzien,images/br_aanzien.png,images/cb_aanzien.png,0,,,,,,,,,,,,,,,,,,,,,,
,,,,,,,2023-07-25_14h51.09.523,vbt_B2_day2,2022.2.4,Linux armv81,61.15833894,52204,,,,,,,,,,,,,,,,,,,,,,,,,,,down,0,10.6327,,-0.011106649,0.416607721,1,0,0,1.6756,0,123,123,147,1,komisch,images/br_komisch.png,images/cb_komisch.png,0,,,,,,,,,,,,,,,,,,,,,,
,,,,,,,2023-07-25_14h51.09.523,vbt_B2_day2,2022.2.4,Linux armv81,61.15833894,52204,,,,,,,,,,,,,,,,,,,,,,,,,,,down,0,5.0853,,-0.025126075,0.432629895,1,0,0,1.0181,0,124,124,22,1,stof,images/br_stof.png,images/cb_stof.png,0,,,,,,,,,,,,,,,,,,,,,,
,,,,,,,2023-07-25_14h51.09.523,vbt_B2_day2,2022.2.4,Linux armv81,61.15833894,52204,,,,,,,,,,,,,,,,,,,,,,,,,,,down,0,3.2154,,-0.049087557,0.448726909,1,0,0,1.6521,0,125,125,67,1,zwart,images/br_zwart.png,images/cb_zwart.png,0,,,,,,,,,,,,,,,,,,,,,,
,,,,,,,2023-07-25_14h51.09.523,vbt_B2_day2,2022.2.4,Linux armv81,61.15833894,52204,,,,,,,,,,,,,,,,,,,,,,,,,,,down,0,12.9917,,-0.008419223,0.352451268,1,0,0,5.9589,0,126,126,162,1,uitdelen,images/br_uitdelen.png,images/cb_uitdelen.png,0,,,,,,,,,,,,,,,,,,,,,,
,,,,,,,2023-07-25_14h51.09.523,vbt_B2_day2,2022.2.4,Linux armv81,61.15833894,52204,,,,,,,,,,,,,,,,,,,,,,,,,,,down,0,3.3709,,0.041002796,0.441730924,1,0,0,1.099,0,127,127,1,1,zaal,images/br_zaal.png,images/cb_zaal.png,0,,,,,,,,,,,,,,,,,,,,,,
,,,,,,,2023-07-25_14h51.09.523,vbt_B2_day2,2022.2.4,Linux armv81,61.15833894,52204,,,,,,,,,,,,,,,,,,,,,,,,,,,down,0,1.6723,,-0.531769593,0.142897782,1,0,0,2.3055,0,128,128,75,1,snoep,images/br_snoep.png,images/cb_snoep.png,0,,,,,,,,,,,,,,,,,,,,,,
,,,,,,,2023-07-25_14h51.09.523,vbt_B2_day2,2022.2.4,Linux armv81,61.15833894,52204,,,,,,,,,,,,,,,,,,,,,,,,,,,down,0,3.7593,,-0.540782046,0.153412384,1,0,0,2.1886,0,129,129,132,1,grappen,images/br_grappen.png,images/cb_grappen.png,0,,,,,,,,,,,,,,,,,,,,,,
,,,,,,,2023-07-25_14h51.09.523,vbt_B2_day2,2022.2.4,Linux armv81,61.15833894,52204,,,,,,,,,,,,,,,,,,,,,,,,,,,down,0,2.6472,,0.354359232,0.108361052,1,0,0,2.3828,0,130,130,199,1,beseffen,images/br_beseffen.png,images/cb_beseffen.png,0,,,,,,,,,,,,,,,,,,,,,,
,,,,,,,2023-07-25_14h51.09.523,vbt_B2_day2,2022.2.4,Linux armv81,61.15833894,52204,,,,,,,,,,,,,,,,,,,,,,,,,,,down,0,4.3317,,0.345265642,0.135087161,1,0,0,1.1687,0,131,131,135,1,gedicht,images/br_gedicht.png,images/cb_gedicht.png,0,,,,,,,,,,,,,,,,,,,,,,
,,,,,,,2023-07-25_14h51.09.523,vbt_B2_day2,2022.2.4,Linux armv81,61.15833894,52204,,,,,,,,,,,,,,,,,,,,,,,,,,,down,0,18.5739,,0.57724472,0.016052991,1,0,0,2.5719,0,132,132,137,1,trekker,images/br_trekker.png,images/cb_trekker.png,1,stekker,,,,,,,,,,,,,,,,,,,,,
,,,,,,,2023-07-25_14h51.09.523,vbt_B2_day2,2022.2.4,Linux armv81,61.15833894,52204,,,,,,,,,,,,,,,,,,,,,,,,,,,down,0,7.5521,,0.57724472,0.016052991,1,0,0,0.5298,0,133,133,109,1,totaal,images/br_totaal.png,images/cb_totaal.png,0,,,,,,,,,,,,,,,,,,,,,,
,,,,,,,2023-07-25_14h51.09.523,vbt_B2_day2,2022.2.4,Linux armv81,61.15833894,52204,,,,,,,,,,,,,,,,,,,,,,,,,,,down,0,3.0913,,0.500813284,0.05484566,1,0,0,1.5417,0,134,134,71,1,bever,images/br_bever.png,images/cb_bever.png,0,,,,,,,,,,,,,,,,,,,,,,
,,,,,,,2023-07-25_14h51.09.523,vbt_B2_day2,2022.2.4,Linux armv81,61.15833894,52204,,,,,,,,,,,,,,,,,,,,,,,,,,,down,0,9.051,,0.414041248,0.143440295,1,0,0,1.0259,0,135,135,190,1,goedkoop,images/br_goedkoop.png,images/cb_goedkoop.png,0,,,,,,,,,,,,,,,,,,,,,,
,,,,,,,2023-07-25_14h51.09.523,vbt_B2_day2,2022.2.4,Linux armv81,61.15833894,52204,,,,,,,,,,,,,,,,,,,,,,,,,,,down,0,14.5154,,0.395237863,0.170793736,1,0,0,0.9322,0,136,136,97,1,loyaal,images/br_loyaal.png,images/cb_loyaal.png,1,loyaal,,,,,,,,,,,,,,,,,,,,,
,,,,,,,2023-07-25_14h51.09.523,vbt_B2_day2,2022.2.4,Linux armv81,61.15833894,52204,,,,,,,,,,,,,,,,,,,,,,,,,,,down,0,4.0679,,0.419881703,0.181289835,1,0,0,0.899,0,137,137,29,1,baas,images/br_baas.png,images/cb_baas.png,0,,,,,,,,,,,,,,,,,,,,,,
,,,,,,,2023-07-25_14h51.09.523,vbt_B2_day2,2022.2.4,Linux armv81,61.15833894,52204,,,,,,,,,,,,,,,,,,,,,,,,,,,down,0,12.1922,,0.002526868,0.5,1,0,0,2.6835,0,138,138,153,1,vervoer,images/br_vervoer.png,images/cb_vervoer.png,0,,,,,,,,,,,,,,,,,,,,,,
,,,,,,,2023-07-25_14h51.09.523,vbt_B2_day2,2022.2.4,Linux armv81,61.15833894,52204,,,,,,,,,,,,,,,,,,,,,,,,,,,down,0,7.3463,,-0.173007844,0.499879121,1,0,0,1.0357,0,139,139,94,1,oceaan,images/br_oceaan.png,images/cb_oceaan.png,0,,,,,,,,,,,,,,,,,,,,,,
,,,,,,,2023-07-25_14h51.09.523,vbt_B2_day2,2022.2.4,Linux armv81,61.15833894,52204,,,,,,,,,,,,,,,,,,,,,,,,,,,down,0,10.6484,,-0.290001353,0.5,1,0,0,2.3883,0,140,140,175,1,heengaan,images/br_heengaan.png,images/cb_heengaan.png,0,,,,,,,,,,,,,,,,,,,,,,
,,,,,,,2023-07-25_14h51.09.523,vbt_B2_day2,2022.2.4,Linux armv81,61.15833894,52204,,,,,,,,,,,,,,,,,,,,,,,,,,,down,0,5.0966,,-0.349331736,0.5,1,0,0,0.832,0,141,141,21,1,mist,images/br_mist.png,images/cb_mist.png,0,,,,,,,,,,,,,,,,,,,,,,
,,,,,,,2023-07-25_14h51.09.523,vbt_B2_day2,2022.2.4,Linux armv81,61.15833894,52204,,,,,,,,,,,,,,,,,,,,,,,,,,,down,0,6.2012,,0.079897676,0.232017857,1,0,0,1.0744,0,142,142,91,1,gezond,images/br_gezond.png,images/cb_gezond.png,0,,,,,,,,,,,,,,,,,,,,,,
,,,,,,,2023-07-25_14h51.09.523,vbt_B2_day2,2022.2.4,Linux armv81,61.15833894,52204,,,,,,,,,,,,,,,,,,,,,,,,,,,down,0,13.1122,,0.065932936,0.241309099,1,0,0,0.7566,0,143,143,161,1,attentie,images/br_attentie.png,images/cb_attentie.png,0,,,,,,,,,,,,,,,,,,,,,,
,,,,,,,2023-07-25_14h51.09.523,vbt_B2_day2,2022.2.4,Linux armv81,61.15833894,52204,,,,,,,,,,,,,,,,,,,,,,,,,,,down,0,5.9215,,0.155837073,0.162088706,1,0,0,1.0479,0,144,144,17,1,taal,images/br_taal.png,images/cb_taal.png,1,taal,,,,,,,,,,,,,,,,,,,,,
,,,,,,,2023-07-25_14h51.09.523,vbt_B2_day2,2022.2.4,Linux armv81,61.15833894,52204,,,,,,,,,,,,,,,,,,,,,,,,,,,down,0,16.8288,,0.108060282,0.141421211,1,0,0,1.0487,0,145,145,164,1,anarchie,images/br_anarchie.png,images/cb_anarchie.png,0,,,,,,,,,,,,,,,,,,,,,,
,,,,,,,2023-07-25_14h51.09.523,vbt_B2_day2,2022.2.4,Linux armv81,61.15833894,52204,,,,,,,,,,,,,,,,,,,,,,,,,,,down,0,10.2249,,0.082896303,0.16606801,1,0,0,1.058,0,146,146,15,1,soda,images/br_soda.png,images/cb_soda.png,0,,,,,,,,,,,,,,,,,,,,,,
,,,,,,,2023-07-25_14h51.09.523,vbt_B2_day2,2022.2.4,Linux armv81,61.15833894,52204,,,,,,,,,,,,,,,,,,,,,,,,,,,down,0,4.5994,,0.145977692,0.272143872,1,0,0,0.9264,0,147,147,54,1,gebit,images/br_gebit.png,images/cb_gebit.png,0,,,,,,,,,,,,,,,,,,,,,,
,,,,,,,2023-07-25_14h51.09.523,vbt_B2_day2,2022.2.4,Linux armv81,61.15833894,52204,,,,,,,,,,,,,,,,,,,,,,,,,,,down,0,7.3665,,0.141972244,0.309195193,1,0,0,1.352,0,148,148,170,1,schatten,images/br_schatten.png,images/cb_schatten.png,0,,,,,,,,,,,,,,,,,,,,,,
,,,,,,,2023-07-25_14h51.09.523,vbt_B2_day2,2022.2.4,Linux armv81,61.15833894,52204,,,,,,,,,,,,,,,,,,,,,,,,,,,down,0,3.1494,,0.09756554,0.336679301,1,0,0,1.3236,0,149,149,100,1,geduld,images/br_geduld.png,images/cb_geduld.png,0,,,,,,,,,,,,,,,,,,,,,,
,,,,,,,2023-07-25_14h51.09.523,vbt_B2_day2,2022.2.4,Linux armv81,61.15833894,52204,,,,,,,,,,,,,,,,,,,,,,,,,,,down,0,15.1974,,0.030539219,0.401975984,1,0,0,1.9649,0,150,150,172,1,weigeren,images/br_weigeren.png,images/cb_weigeren.png,0,,,,,,,,,,,,,,,,,,,,,,
,,,,,,,2023-07-25_14h51.09.523,vbt_B2_day2,2022.2.4,Linux armv81,61.15833894,52204,,,,,,,,,,,,,,,,,,,,,,,,,,,down,0,4.9282,,0.102329003,0.103637209,1,0,0,2.6518,0,151,151,142,1,snuiven,images/br_snuiven.png,images/cb_snuiven.png,0,,,,,,,,,,,,,,,,,,,,,,
,,,,,,,2023-07-25_14h51.09.523,vbt_B2_day2,2022.2.4,Linux armv81,61.15833894,52204,,,,,,,,,,,,,,,,,,,,,,,,,,,down,0,5.1339,,0.102329003,0.103637209,1,0,0,1.1131,0,152,152,117,1,kennis,images/br_kennis.png,images/cb_kennis.png,0,,,,,,,,,,,,,,,,,,,,,,
,,,,,,,2023-07-25_14h51.09.523,vbt_B2_day2,2022.2.4,Linux armv81,61.15833894,52204,,,,,,,,,,,,,,,,,,,,,,,,,,,down,0,5.3426,,0.06372796,0.140506688,1,0,0,0.8533,0,153,153,187,1,opkijken,images/br_opkijken.png,images/cb_opkijken.png,0,,,,,,,,,,,,,,,,,,,,,,
,,,,,,,2023-07-25_14h51.09.523,vbt_B2_day2,2022.2.4,Linux armv81,61.15833894,52204,,,,,,,,,,,,,,,,,,,,,,,,,,,down,0,2.3744,,0.029947852,0.14116544,1,0,0,1.2345,0,154,154,83,1,mening,images/br_mening.png,images/cb_mening.png,0,,,,,,,,,,,,,,,,,,,,,,
,,,,,,,2023-07-25_14h51.09.523,vbt_B2_day2,2022.2.4,Linux armv81,61.15833894,52204,,,,,,,,,,,,,,,,,,,,,,,,,,,down,0,1.8529,,0.023438601,0.155685749,1,0,0,1.0959,0,155,155,7,1,geld,images/br_geld.png,images/cb_geld.png,0,,,,,,,,,,,,,,,,,,,,,,
,,,,,,,2023-07-25_14h51.09.523,vbt_B2_day2,2022.2.4,Linux armv81,61.15833894,52204,,,,,,,,,,,,,,,,,,,,,,,,,,,down,0,1.3302,,0.01092147,0.179218333,1,0,0,1.1407,0,156,156,23,1,zout,images/br_zout.png,images/cb_zout.png,0,,,,,,,,,,,,,,,,,,,,,,
,,,,,,,2023-07-25_14h51.09.523,vbt_B2_day2,2022.2.4,Linux armv81,61.15833894,52204,,,,,,,,,,,,,,,,,,,,,,,,,,,down,0,4.8902,,-0.001095069,0.185226667,1,0,0,1.0303,0,157,157,93,1,waarop,images/br_waarop.png,images/cb_waarop.png,0,,,,,,,,,,,,,,,,,,,,,,
,,,,,,,2023-07-25_14h51.09.523,vbt_B2_day2,2022.2.4,Linux armv81,61.15833894,52204,,,,,,,,,,,,,,,,,,,,,,,,,,,down,0,4.9823,,-0.009909919,0.240798594,1,0,0,1.1362,0,158,158,86,1,woning,images/br_woning.png,images/cb_woning.png,0,,,,,,,,,,,,,,,,,,,,,,
,,,,,,,2023-07-25_14h51.09.523,vbt_B2_day2,2022.2.4,Linux armv81,61.15833894,52204,,,,,,,,,,,,,,,,,,,,,,,,,,,down,0,6.968,,-0.020006378,0.261951698,1,0,0,1.0124,0,159,159,145,1,invloed,images/br_invloed.png,images/cb_invloed.png,0,,,,,,,,,,,,,,,,,,,,,,
,,,,,,,2023-07-25_14h51.09.523,vbt_B2_day2,2022.2.4,Linux armv81,61.15833894,52204,,,,,,,,,,,,,,,,,,,,,,,,,,,down,0,18.479,,-0.049661948,0.294131658,1,0,0,1.0233,0,160,160,111,1,ticket,images/br_ticket.png,images/cb_ticket.png,0,,,,,,,,,,,,,,,,,,,,,,
,,,,,,,2023-07-25_14h51.09.523,vbt_B2_day2,2022.2.4,Linux armv81,61.15833894,52204,,,,,,,,,,,,,,,,,,,,,,,,,,,down,0,3.673,,-0.062179403,0.299138565,1,0,0,1.1401,0,161,161,38,1,baai,images/br_baai.png,images/cb_baai.png,0,,,,,,,,,,,,,,,,,,,,,,
,,,,,,,2023-07-25_14h51.09.523,vbt_B2_day2,2022.2.4,Linux armv81,61.15833894,52204,,,,,,,,,,,,,,,,,,,,,,,,,,,down,0,6.7656,,-0.113945704,0.375242723,1,0,0,0.89,0,162,162,49,1,laken,images/br_laken.png,images/cb_laken.png,0,,,,,,,,,,,,,,,,,,,,,,
,,,,,,,2023-07-25_14h51.09.523,vbt_B2_day2,2022.2.4,Linux armv81,61.15833894,52204,,,,,,,,,,,,,,,,,,,,,,,,,,,down,0,5.7112,,-0.112443604,0.39577114,1,0,0,1.047,0,163,163,45,1,piste,images/br_piste.png,images/cb_piste.png,0,,,,,,,,,,,,,,,,,,,,,,
,,,,,,,2023-07-25_14h51.09.523,vbt_B2_day2,2022.2.4,Linux armv81,61.15833894,52204,,,,,,,,,,,,,,,,,,,,,,,,,,,down,0,3.8165,,-0.112443604,0.39577114,1,0,0,1.0418,0,164,164,124,1,bloeien,images/br_bloeien.png,images/cb_bloeien.png,0,,,,,,,,,,,,,,,,,,,,,,
,,,,,,,2023-07-25_14h51.09.523,vbt_B2_day2,2022.2.4,Linux armv81,61.15833894,52204,,,,,,,,,,,,,,,,,,,,,,,,,,,down,0,12.907,,0.542121126,0.082638168,1,0,0,1.0263,0,165,165,19,1,geit,images/br_geit.png,images/cb_geit.png,1,geit,,,,,,,,,,,,,,,,,,,,,
,,,,,,,2023-07-25_14h51.09.523,vbt_B2_day2,2022.2.4,Linux armv81,61.15833894,52204,,,,,,,,,,,,,,,,,,,,,,,,,,,down,0,18.7832,,0.487950143,0.129533175,1,0,0,4.4932,0,166,166,138,1,akkoord,images/br_akkoord.png,images/cb_akkoord.png,1,akkoord,,,,,,,,,,,,,,,,,,,,,
,,,,,,,2023-07-25_14h51.09.523,vbt_B2_day2,2022.2.4,Linux armv81,61.15833894,52204,,,,,,,,,,,,,,,,,,,,,,,,,,,down,0,0.1224,,0.516957795,0.10750967,1,0,0,0.6526,0,167,167,28,1,stal,images/br_stal.png,images/cb_stal.png,0,,,,,,,,,,,,,,,,,,,,,,
,,,,,,,2023-07-25_14h51.09.523,vbt_B2_day2,2022.2.4,Linux armv81,61.15833894,52204,,,,,,,,,,,,,,,,,,,,,,,,,,,down,0,0.6915,,0.495154638,0.216445275,1,0,0,1.2805,0,168,168,112,1,lukken,images/br_lukken.png,images/cb_lukken.png,0,,,,,,,,,,,,,,,,,,,,,,
,,,,,,,2023-07-25_14h51.09.523,vbt_B2_day2,2022.2.4,Linux armv81,61.15833894,52204,,,,,,,,,,,,,,,,,,,,,,,,,,,down,0,0.4469,,0.458081547,0.247518487,1,0,0,0.9282,0,169,169,39,1,laag,images/br_laag.png,images/cb_laag.png,0,,,,,,,,,,,,,,,,,,,,,,
,,,,,,,2023-07-25_14h51.09.523,vbt_B2_day2,2022.2.4,Linux armv81,61.15833894,52204,,,,,,,,,,,,,,,,,,,,,,,,,,,down,0,1.9249,,0.458081547,0.247518487,1,0,0,0.9676,0,170,170,47,1,kabel,images/br_kabel.png,images/cb_kabel.png,0,,,,,,,,,,,,,,,,,,,,,,
,,,,,,,2023-07-25_14h51.09.523,vbt_B2_day2,2022.2.4,Linux armv81,61.15833894,52204,,,,,,,,,,,,,,,,,,,,,,,,,,,down,0,2.1564,,0.450070521,0.258033088,1,0,0,1.1234,0,171,171,4,1,moes,images/br_moes.png,images/cb_moes.png,0,,,,,,,,,,,,,,,,,,,,,,
,,,,,,,2023-07-25_14h51.09.523,vbt_B2_day2,2022.2.4,Linux armv81,61.15833894,52204,,,,,,,,,,,,,,,,,,,,,,,,,,,down,0,8.8385,,0.365925977,0.38097708,1,0,0,1.3124,0,172,172,40,1,schep,images/br_schep.png,images/cb_schep.png,0,,,,,,,,,,,,,,,,,,,,,,
,,,,,,,2023-07-25_14h51.09.523,vbt_B2_day2,2022.2.4,Linux armv81,61.15833894,52204,,,,,,,,,,,,,,,,,,,,,,,,,,,down,0,4.0126,,0.340348748,0.407847629,1,0,0,0.9923,0,173,173,160,1,daarheen,images/br_daarheen.png,images/cb_daarheen.png,0,,,,,,,,,,,,,,,,,,,,,,
,,,,,,,2023-07-25_14h51.09.523,vbt_B2_day2,2022.2.4,Linux armv81,61.15833894,52204,,,,,,,,,,,,,,,,,,,,,,,,,,,down,0,24.8717,,0.320341527,0.5,1,0,0,0.9161,0,174,174,136,1,waarbij,images/br_waarbij.png,images/cb_waarbij.png,1,waarbij,,,,,,,,,,,,,,,,,,,,,
,,,,,,,2023-07-25_14h51.09.523,vbt_B2_day2,2022.2.4,Linux armv81,61.15833894,52204,,,,,,,,,,,,,,,,,,,,,,,,,,,down,0,11.6306,,0.304780413,0.5,1,0,0,0.8462,0,175,175,64,1,wegen,images/br_wegen.png,images/cb_wegen.png,0,,,,,,,,,,,,,,,,,,,,,,
,,,,,,,2023-07-25_14h51.09.523,vbt_B2_day2,2022.2.4,Linux armv81,61.15833894,52204,,,,,,,,,,,,,,,,,,,,,,,,,,,down,0,2.1401,,0.253112275,0.498497921,1,0,0,0.9052,0,176,176,32,1,palm,images/br_palm.png,images/cb_palm.png,0,,,,,,,,,,,,,,,,,,,,,,
,,,,,,,2023-07-25_14h51.09.523,vbt_B2_day2,2022.2.4,Linux armv81,61.15833894,52204,,,,,,,,,,,,,,,,,,,,,,,,,,,down,0,3.2612,,0.20626546,0.5,1,0,0,1.4759,0,177,177,43,1,klauw,images/br_klauw.png,images/cb_klauw.png,0,,,,,,,,,,,,,,,,,,,,,,
,,,,,,,2023-07-25_14h51.09.523,vbt_B2_day2,2022.2.4,Linux armv81,61.15833894,52204,,,,,,,,,,,,,,,,,,,,,,,,,,,down,0,1.5726,,0.107660314,0.5,1,0,0,0.9781,0,178,178,35,1,lust,images/br_lust.png,images/cb_lust.png,0,,,,,,,,,,,,,,,,,,,,,,
,,,,,,,2023-07-25_14h51.09.523,vbt_B2_day2,2022.2.4,Linux armv81,61.15833894,52204,,,,,,,,,,,,,,,,,,,,,,,,,,,down,0,23.8257,,0.110828699,0.164565036,1,0,0,0.6844,0,179,179,99,1,koffie,images/br_koffie.png,images/cb_koffie.png,1,koffie,,,,,,,,,,,,,,,,,,,,,
,,,,,,,2023-07-25_14h51.09.523,vbt_B2_day2,2022.2.4,Linux armv81,61.15833894,52204,,,,,,,,,,,,,,,,,,,,,,,,,,,down,0,6.9375,,0.109827386,0.189599655,1,0,0,0.958,0,180,180,163,1,schuilen,images/br_schuilen.png,images/cb_schuilen.png,0,,,,,,,,,,,,,,,,,,,,,,
,,,,,,,2023-07-25_14h51.09.523,vbt_B2_day2,2022.2.4,Linux armv81,61.15833894,52204,,,,,,,,,,,,,,,,,,,,,,,,,,,down,0,7.9734,,-0.146287209,0.183112013,1,0,0,1.1336,0,181,181,129,1,verhaal,images/br_verhaal.png,images/cb_verhaal.png,0,,,,,,,,,,,,,,,,,,,,,,
,,,,,,,2023-07-25_14h51.09.523,vbt_B2_day2,2022.2.4,Linux armv81,61.15833894,52204,,,,,,,,,,,,,,,,,,,,,,,,,,,down,0,10.6968,,0.529888048,0.016690167,1,0,0,1.087,0,182,182,16,1,ziek,images/br_ziek.png,images/cb_ziek.png,1,ziek,,,,,,,,,,,,,,,,,,,,,
,,,,,,,2023-07-25_14h51.09.523,vbt_B2_day2,2022.2.4,Linux armv81,61.15833894,52204,,,,,,,,,,,,,,,,,,,,,,,,,,,down,0,6.8542,,0.5466087,0.054180105,1,0,0,0.897,0,183,183,167,1,eenhoorn,images/br_eenhoorn.png,images/cb_eenhoorn.png,0,,,,,,,,,,,,,,,,,,,,,,
,,,,,,,2023-07-25_14h51.09.523,vbt_B2_day2,2022.2.4,Linux armv81,61.15833894,52204,,,,,,,,,,,,,,,,,,,,,,,,,,,down,0,2.9124,,0.5466087,0.054180105,1,0,0,0.9228,0,184,184,184,1,aandelen,images/br_aandelen.png,images/cb_aandelen.png,0,,,,,,,,,,,,,,,,,,,,,,
,,,,,,,2023-07-25_14h51.09.523,vbt_B2_day2,2022.2.4,Linux armv81,61.15833894,52204,,,,,,,,,,,,,,,,,,,,,,,,,,,down,0,2.9741,,0.5436045,0.069701565,1,0,0,0.8268,0,185,185,89,1,slapen,images/br_slapen.png,images/cb_slapen.png,0,,,,,,,,,,,,,,,,,,,,,,
,,,,,,,2023-07-25_14h51.09.523,vbt_B2_day2,2022.2.4,Linux armv81,61.15833894,52204,,,,,,,,,,,,,,,,,,,,,,,,,,,down,0,2.9058,,0.468099865,0.148839509,1,0,0,0.8881,0,186,186,82,1,muziek,images/br_muziek.png,images/cb_muziek.png,0,,,,,,,,,,,,,,,,,,,,,,
,,,,,,,2023-07-25_14h51.09.523,vbt_B2_day2,2022.2.4,Linux armv81,61.15833894,52204,,,,,,,,,,,,,,,,,,,,,,,,,,,down,0,0.9986,,0.469602548,0.172376823,1,0,0,1.0982,0,187,187,159,1,sufferd,images/br_sufferd.png,images/cb_sufferd.png,0,,,,,,,,,,,,,,,,,,,,,,
,,,,,,,2023-07-25_14h51.09.523,vbt_B2_day2,2022.2.4,Linux armv81,61.15833894,52204,,,,,,,,,,,,,,,,,,,,,,,,,,,down,0,5.6612,,0.442640301,0.221458613,1,0,0,1.1235,0,188,188,37,1,mijn,images/br_mijn.png,images/cb_mijn.png,0,,,,,,,,,,,,,,,,,,,,,,
,,,,,,,2023-07-25_14h51.09.523,vbt_B2_day2,2022.2.4,Linux armv81,61.15833894,52204,,,,,,,,,,,,,,,,,,,,,,,,,,,down,0,3.0766,,0.425209386,0.250909421,1,0,0,0.9387,0,189,189,20,1,site,images/br_site.png,images/cb_site.png,0,,,,,,,,,,,,,,,,,,,,,,
,,,,,,,2023-07-25_14h51.09.523,vbt_B2_day2,2022.2.4,Linux armv81,61.15833894,52204,,,,,,,,,,,,,,,,,,,,,,,,,,,down,0,0.1514,,0.425209386,0.250909421,1,0,0,0.968,0,190,190,116,1,besmet,images/br_besmet.png,images/cb_besmet.png,0,,,,,,,,,,,,,,,,,,,,,,
,,,,,,,2023-07-25_14h51.09.523,vbt_B2_day2,2022.2.4,Linux armv81,61.15833894,52204,,,,,,,,,,,,,,,,,,,,,,,,,,,down,0,0.3451,,0.425209386,0.250909421,1,0,0,1.0958,0,191,191,10,1,leek,images/br_leek.png,images/cb_leek.png,0,,,,,,,,,,,,,,,,,,,,,,
,,,,,,,2023-07-25_14h51.09.523,vbt_B2_day2,2022.2.4,Linux armv81,61.15833894,52204,,,,,,,,,,,,,,,,,,,,,,,,,,,down,0,5.5209,,0.425209386,0.250909421,1,0,0,0.8295,0,192,192,149,1,redding,images/br_redding.png,images/cb_redding.png,0,,,,,,,,,,,,,,,,,,,,,,
,,,,,,,2023-07-25_14h51.09.523,vbt_B2_day2,2022.2.4,Linux armv81,61.15833894,52204,,,,,,,,,,,,,,,,,,,,,,,,,,,down,0,16.936,,0.576266547,0.390691524,1,0,0,0.9741,0,193,193,98,1,kreeft,images/br_kreeft.png,images/cb_kreeft.png,1,kreeft,,,,,,,,,,,,,,,,,,,,,
,,,,,,,2023-07-25_14h51.09.523,vbt_B2_day2,2022.2.4,Linux armv81,61.15833894,52204,,,,,,,,,,,,,,,,,,,,,,,,,,,down,0,1.1959,,0.531853095,0.354910929,1,0,0,1.1769,0,194,194,13,1,kaal,images/br_kaal.png,images/cb_kaal.png,0,,,,,,,,,,,,,,,,,,,,,,
,,,,,,,2023-07-25_14h51.09.523,vbt_B2_day2,2022.2.4,Linux armv81,61.15833894,52204,,,,,,,,,,,,,,,,,,,,,,,,,,,down,0,14.4899,,0.506262525,0.345566102,1,0,0,0.8248,0,195,195,59,1,kring,images/br_kring.png,images/cb_kring.png,1,kring,,,,,,,,,,,,,,,,,,,,,
,,,,,,,2023-07-25_14h51.09.523,vbt_B2_day2,2022.2.4,Linux armv81,61.15833894,52204,,,,,,,,,,,,,,,,,,,,,,,,,,,down,0,2.2155,,0.533354871,0.331879067,1,0,0,0.8293,0,196,196,102,1,legaal,images/br_legaal.png,images/cb_legaal.png,0,,,,,,,,,,,,,,,,,,,,,,
,,,,,,,2023-07-25_14h51.09.523,vbt_B2_day2,2022.2.4,Linux armv81,61.15833894,52204,,,,,,,,,,,,,,,,,,,,,,,,,,,down,0,0.8454,,0.533354871,0.331879067,1,0,0,0.9375,0,197,197,27,1,dans,images/br_dans.png,images/cb_dans.png,0,,,,,,,,,,,,,,,,,,,,,,
,,,,,,,2023-07-25_14h51.09.523,vbt_B2_day2,2022.2.4,Linux armv81,61.15833894,52204,,,,,,,,,,,,,,,,,,,,,,,,,,,down,0,0.7607,,0.533354871,0.331879067,1,0,0,0.8192,0,198,198,66,1,lever,images/br_lever.png,images/cb_lever.png,0,,,,,,,,,,,,,,,,,,,,,,
,,,,,,,2023-07-25_14h51.09.523,vbt_B2_day2,2022.2.4,Linux armv81,61.15833894,52204,,,,,,,,,,,,,,,,,,,,,,,,,,,down,0,18.9694,,0.79861366,0.242785104,1,0,0,1.0985,0,199,199,58,1,tekst,images/br_tekst.png,images/cb_tekst.png,1,tekst,,,,,,,,,,,,,,,,,,,,,
,,,,,,,2023-07-25_14h51.09.523,vbt_B2_day2,2022.2.4,Linux armv81,61.15833894,52204,,,,,,,,,,,,,,,,,,,,,,,,,,,,,,,,,,,,,,,,,,,,,,,0.603991466,0.319234455,1,0,0,,,,,,,,,,,,,,,,
,,,,,,,2023-07-25_14h51.09.523,vbt_B2_day2,2022.2.4,Linux armv81,61.15833894,52204,,,,,,,,,,,,,,,,,,,,,,,,,,,,,,,,,,,,,,,,,,,,,,,,,,,,0.504145466,0.388262374,1,0,0,,,,,,,,,,,
,,,,,,,2023-07-25_14h51.09.523,vbt_B2_day2,2022.2.4,Linux armv81,61.15833894,52204,,,,,,,,,,,,,,,,,,,,,,,,,,,,,,,,,,,,,,,,,,inzicht,images/br_inzicht.png,images/cb_inzicht.png,,inzicht,,,,,,,,,,,0.358023674,0.139952965,1,0,0,inzicht,0,0,0,53,1
,,,,,,,2023-07-25_14h51.09.523,vbt_B2_day2,2022.2.4,Linux armv81,61.15833894,52204,,,,,,,,,,,,,,,,,,,,,,,,,,,,,,,,,,,,,,,,,,thema,images/br_thema.png,images/cb_thema.png,,thema,,,,,,,,,,,0.210355852,0.243553275,1,0,0,thema,0,1,1,47,1
,,,,,,,2023-07-25_14h51.09.523,vbt_B2_day2,2022.2.4,Linux armv81,61.15833894,52204,,,,,,,,,,,,,,,,,,,,,,,,,,,,,,,,,,,,,,,,,,bereuwen,images/br_bereuwen.png,images/cb_bereuwen.png,,uken,,,,,,,,,,,0.210355852,0.243553275,1,0,0,uken,0,2,2,39,1
,,,,,,,2023-07-25_14h51.09.523,vbt_B2_day2,2022.2.4,Linux armv81,61.15833894,52204,,,,,,,,,,,,,,,,,,,,,,,,,,,,,,,,,,,,,,,,,,zomers,images/br_zomers.png,images/cb_zomers.png,,somer.,,,,,,,,,,,0.199277906,0.242733091,1,0,0,somer.,0,3,3,48,1
,,,,,,,2023-07-25_14h51.09.523,vbt_B2_day2,2022.2.4,Linux armv81,61.15833894,52204,,,,,,,,,,,,,,,,,,,,,,,,,,,,,,,,,,,,,,,,,,prekken,images/br_prekken.png,images/cb_prekken.png,,prekken,,,,,,,,,,,0.472116523,0.172955296,1,0,0,prekken,0,4,4,34,1
,,,,,,,2023-07-25_14h51.09.523,vbt_B2_day2,2022.2.4,Linux armv81,61.15833894,52204,,,,,,,,,,,,,,,,,,,,,,,,,,,,,,,,,,,,,,,,,,zwager,images/br_zwager.png,images/cb_zwager.png,,swager,,,,,,,,,,,0.450941341,0.145446356,1,0,0,swager,0,5,5,49,1
,,,,,,,2023-07-25_14h51.09.523,vbt_B2_day2,2022.2.4,Linux armv81,61.15833894,52204,,,,,,,,,,,,,,,,,,,,,,,,,,,,,,,,,,,,,,,,,,kasteel,images/br_kasteel.png,images/cb_kasteel.png,,kasteel,,,,,,,,,,,0.415188346,0.211508069,1,0,0,kasteel,0,6,6,14,1
,,,,,,,2023-07-25_14h51.09.523,vbt_B2_day2,2022.2.4,Linux armv81,61.15833894,52204,,,,,,,,,,,,,,,,,,,,,,,,,,,,,,,,,,,,,,,,,,joes,images/br_joes.png,images/cb_joes.png,,joes,,,,,,,,,,,0.292774759,0.269744565,1,0,0,joes,0,7,7,20,1
,,,,,,,2023-07-25_14h51.09.523,vbt_B2_day2,2022.2.4,Linux armv81,61.15833894,52204,,,,,,,,,,,,,,,,,,,,,,,,,,,,,,,,,,,,,,,,,,bloeien,images/br_bloeien.png,images/cb_bloeien.png,,bloeien,,,,,,,,,,,0.187767855,0.305108704,1,0,0,bloeien,0,8,8,12,1
,,,,,,,2023-07-25_14h51.09.523,vbt_B2_day2,2022.2.4,Linux armv81,61.15833894,52204,,,,,,,,,,,,,,,,,,,,,,,,,,,,,,,,,,,,,,,,,,remel,images/br_remel.png,images/cb_remel.png,,remel,,,,,,,,,,,0.228058509,0.253616949,1,0,0,remel,0,9,9,25,1
,,,,,,,2023-07-25_14h51.09.523,vbt_B2_day2,2022.2.4,Linux armv81,61.15833894,52204,,,,,,,,,,,,,,,,,,,,,,,,,,,,,,,,,,,,,,,,,,plannen,images/br_plannen.png,images/cb_plannen.png,,plannen,,,,,,,,,,,0.216003612,0.485351747,1,0,0,plannen,0,10,10,55,1
,,,,,,,2023-07-25_14h51.09.523,vbt_B2_day2,2022.2.4,Linux armv81,61.15833894,52204,,,,,,,,,,,,,,,,,,,,,,,,,,,,,,,,,,,,,,,,,,diep,images/br_diep.png,images/cb_diep.png,,diep,,,,,,,,,,,0.188981366,0.471557688,1,0,0,diep,0,11,11,2,1
,,,,,,,2023-07-25_14h51.09.523,vbt_B2_day2,2022.2.4,Linux armv81,61.15833894,52204,,,,,,,,,,,,,,,,,,,,,,,,,,,,,,,,,,,,,,,,,,wijve,images/br_wijve.png,images/cb_wijve.png,,wijve,,,,,,,,,,,0.217206821,0.325439518,1,0,0,wijve,0,12,12,27,1
,,,,,,,2023-07-25_14h51.09.523,vbt_B2_day2,2022.2.4,Linux armv81,61.15833894,52204,,,,,,,,,,,,,,,,,,,,,,,,,,,,,,,,,,,,,,,,,,blad,images/br_blad.png,images/cb_blad.png,,blad,,,,,,,,,,,0.215152554,-0.122679239,1,0,0,blad,0,13,13,1,1
,,,,,,,2023-07-25_14h51.09.523,vbt_B2_day2,2022.2.4,Linux armv81,61.15833894,52204,,,,,,,,,,,,,,,,,,,,,,,,,,,,,,,,,,,,,,,,,,heengeen,images/br_heengeen.png,images/cb_heengeen.png,,heengeen,,,,,,,,,,,0.090081023,-0.045072908,1,0,0,heengeen,0,14,14,38,1
,,,,,,,2023-07-25_14h51.09.523,vbt_B2_day2,2022.2.4,Linux armv81,61.15833894,52204,,,,,,,,,,,,,,,,,,,,,,,,,,,,,,,,,,,,,,,,,,lijnen,images/br_lijnen.png,images/cb_lijnen.png,,lijnen,,,,,,,,,,,0.016456037,-0.067271303,1,0,0,lijnen,0,15,15,51,1
,,,,,,,2023-07-25_14h51.09.523,vbt_B2_day2,2022.2.4,Linux armv81,61.15833894,52204,,,,,,,,,,,,,,,,,,,,,,,,,,,,,,,,,,,,,,,,,,manieren,images/br_manieren.png,images/cb_manieren.png,,manieren,,,,,,,,,,,0.018102366,0.123281394,1,0,0,manieren,0,16,16,56,1
,,,,,,,2023-07-25_14h51.09.523,vbt_B2_day2,2022.2.4,Linux armv81,61.15833894,52204,,,,,,,,,,,,,,,,,,,,,,,,,,,,,,,,,,,,,,,,,,aanvraag,images/br_aanvraag.png,images/cb_aanvraag.png,,aanvraag,,,,,,,,,,,-0.099687386,0.329840771,1,0,0,aanvraag,0,17,17,57,1
,,,,,,,2023-07-25_14h51.09.523,vbt_B2_day2,2022.2.4,Linux armv81,61.15833894,52204,,,,,,,,,,,,,,,,,,,,,,,,,,,,,,,,,,,,,,,,,,toeval,images/br_toeval.png,images/cb_toeval.png,,toeval,,,,,,,,,,,0.154979536,0.39338207,1,0,0,toeval,0,18,18,11,1
,,,,,,,2023-07-25_14h51.09.523,vbt_B2_day2,2022.2.4,Linux armv81,61.15833894,52204,,,,,,,,,,,,,,,,,,,,,,,,,,,,,,,,,,,,,,,,,,aanzien,images/br_aanzien.png,images/cb_aanzien.png,,aanzien,,,,,,,,,,,0.016170947,0.40973328,1,0,0,aanzien,0,19,19,13,1
,,,,,,,2023-07-25_14h51.09.523,vbt_B2_day2,2022.2.4,Linux armv81,61.15833894,52204,,,,,,,,,,,,,,,,,,,,,,,,,,,,,,,,,,,,,,,,,,feestdag,images/br_feestdag.png,images/cb_feestdag.png,,feestdan,,,,,,,,,,,0.242161259,-0.125199822,1,0,0,feestdan,0,20,20,17,1
,,,,,,,2023-07-25_14h51.09.523,vbt_B2_day2,2022.2.4,Linux armv81,61.15833894,52204,,,,,,,,,,,,,,,,,,,,,,,,,,,,,,,,,,,,,,,,,,ophuimen,images/br_ophuimen.png,images/cb_ophuimen.png,,ophuimen,,,,,,,,,,,0.142142391,-0.056907184,1,0,0,ophuimen,0,21,21,36,1
,,,,,,,2023-07-25_14h51.09.523,vbt_B2_day2,2022.2.4,Linux armv81,61.15833894,52204,,,,,,,,,,,,,,,,,,,,,,,,,,,,,,,,,,,,,,,,,,lokken,images/br_lokken.png,images/cb_lokken.png,,lokken,,,,,,,,,,,0.61745704,0.066343141,1,0,0,lokken,0,22,22,8,1
,,,,,,,2023-07-25_14h51.09.523,vbt_B2_day2,2022.2.4,Linux armv81,61.15833894,52204,,,,,,,,,,,,,,,,,,,,,,,,,,,,,,,,,,,,,,,,,,koorts,images/br_koorts.png,images/cb_koorts.png,,koorts,,,,,,,,,,,0.566224181,0.108073241,1,0,0,koorts,0,23,23,50,1
,,,,,,,2023-07-25_14h51.09.523,vbt_B2_day2,2022.2.4,Linux armv81,61.15833894,52204,,,,,,,,,,,,,,,,,,,,,,,,,,,,,,,,,,,,,,,,,,badon,images/br_badon.png,images/cb_badon.png,,badon,,,,,,,,,,,0.504302395,0.15933707,1,0,0,badon,0,24,24,26,1
,,,,,,,2023-07-25_14h51.09.523,vbt_B2_day2,2022.2.4,Linux armv81,61.15833894,52204,,,,,,,,,,,,,,,,,,,,,,,,,,,,,,,,,,,,,,,,,,lurgen,images/br_lurgen.png,images/cb_lurgen.png,,lurgen,,,,,,,,,,,0.415413567,0.280520672,1,0,0,lurgen,0,25,25,29,1
,,,,,,,2023-07-25_14h51.09.523,vbt_B2_day2,2022.2.4,Linux armv81,61.15833894,52204,,,,,,,,,,,,,,,,,,,,,,,,,,,,,,,,,,,,,,,,,,trots,images/br_trots.png,images/cb_trots.png,,trots,,,,,,,,,,,-0.012262559,0.357716749,1,0,0,trots,0,26,26,44,1
,,,,,,,2023-07-25_14h51.09.523,vbt_B2_day2,2022.2.4,Linux armv81,61.15833894,52204,,,,,,,,,,,,,,,,,,,,,,,,,,,,,,,,,,,,,,,,,,kijlen,images/br_kijlen.png,images/cb_kijlen.png,,kijlen,,,,,,,,,,,-0.092475454,0.449348632,1,0,0,kijlen,0,27,27,31,1
,,,,,,,2023-07-25_14h51.09.523,vbt_B2_day2,2022.2.4,Linux armv81,61.15833894,52204,,,,,,,,,,,,,,,,,,,,,,,,,,,,,,,,,,,,,,,,,,moes,images/br_moes.png,images/cb_moes.png,,moes,,,,,,,,,,,-0.087915311,0.5,1,0,0,moes,0,28,28,0,1
,,,,,,,2023-07-25_14h51.09.523,vbt_B2_day2,2022.2.4,Linux armv81,61.15833894,52204,,,,,,,,,,,,,,,,,,,,,,,,,,,,,,,,,,,,,,,,,,tand,images/br_tand.png,images/cb_tand.png,,tand,,,,,,,,,,,0.224895761,0.027765715,1,0,0,tand,0,29,29,42,1
,,,,,,,2023-07-25_14h51.09.523,vbt_B2_day2,2022.2.4,Linux armv81,61.15833894,52204,,,,,,,,,,,,,,,,,,,,,,,,,,,,,,,,,,,,,,,,,,flits,images/br_flits.png,images/cb_flits.png,,flits,,,,,,,,,,,0.239314053,0.03405995,1,0,0,flits,0,30,30,4,1
,,,,,,,2023-07-25_14h51.09.523,vbt_B2_day2,2022.2.4,Linux armv81,61.15833894,52204,,,,,,,,,,,,,,,,,,,,,,,,,,,,,,,,,,,,,,,,,,ningen,images/br_ningen.png,images/cb_ningen.png,,nengen,,,,,,,,,,,0.217419019,0.080900933,1,0,0,nengen,0,31,31,28,1
,,,,,,,2023-07-25_14h51.09.523,vbt_B2_day2,2022.2.4,Linux armv81,61.15833894,52204,,,,,,,,,,,,,,,,,,,,,,,,,,,,,,,,,,,,,,,,,,krimmen,images/br_krimmen.png,images/cb_krimmen.png,,krimmen,,,,,,,,,,,0.128592262,0.215580837,1,0,0,krimmen,0,32,32,35,1
,,,,,,,2023-07-25_14h51.09.523,vbt_B2_day2,2022.2.4,Linux armv81,61.15833894,52204,,,,,,,,,,,,,,,,,,,,,,,,,,,,,,,,,,,,,,,,,,kenzis,images/br_kenzis.png,images/cb_kenzis.png,,kenzis,,,,,,,,,,,0.100330782,0.241797753,1,0,0,kenzis,0,33,33,30,1
,,,,,,,2023-07-25_14h51.09.523,vbt_B2_day2,2022.2.4,Linux armv81,61.15833894,52204,,,,,,,,,,,,,,,,,,,,,,,,,,,,,,,,,,,,,,,,,,jagen,images/br_jagen.png,images/cb_jagen.png,,en,,,,,,,,,,,0.100330782,0.241797753,1,0,0,en,0,34,34,6,1
,,,,,,,2023-07-25_14h51.09.523,vbt_B2_day2,2022.2.4,Linux armv81,61.15833894,52204,,,,,,,,,,,,,,,,,,,,,,,,,,,,,,,,,,,,,,,,,,anarchie,images/br_anarchie.png,images/cb_anarchie.png,,,,,,,,,,,,,0.242205512,0.118205789,1,0,0,,0,35,35,16,1
,,,,,,,2023-07-25_14h51.09.523,vbt_B2_day2,2022.2.4,Linux armv81,61.15833894,52204,,,,,,,,,,,,,,,,,,,,,,,,,,,,,,,,,,,,,,,,,,doodmoe,images/br_doodmoe.png,images/cb_doodmoe.png,,doodmoe,,,,,,,,,,,0.410359701,0.029028113,1,0,0,doodmoe,0,36,36,15,1
,,,,,,,2023-07-25_14h51.09.523,vbt_B2_day2,2022.2.4,Linux armv81,61.15833894,52204,,,,,,,,,,,,,,,,,,,,,,,,,,,,,,,,,,,,,,,,,,negel,images/br_negel.png,images/cb_negel.png,,negel,,,,,,,,,,,0.37800731,0.07221703,1,0,0,negel,0,37,37,24,1
,,,,,,,2023-07-25_14h51.09.523,vbt_B2_day2,2022.2.4,Linux armv81,61.15833894,52204,,,,,,,,,,,,,,,,,,,,,,,,,,,,,,,,,,,,,,,,,,opdatten,images/br_opdatten.png,images/cb_opdatten.png,,opdatten,,,,,,,,,,,0.331305307,0.31171793,1,0,0,opdatten,0,38,38,37,1
,,,,,,,2023-07-25_14h51.09.523,vbt_B2_day2,2022.2.4,Linux armv81,61.15833894,52204,,,,,,,,,,,,,,,,,,,,,,,,,,,,,,,,,,,,,,,,,,systeem,images/br_systeem.png,images/cb_systeem.png,,systeem,,,,,,,,,,,0.313533192,0.412241739,1,0,0,systeem,0,39,39,54,1
,,,,,,,2023-07-25_14h51.09.523,vbt_B2_day2,2022.2.4,Linux armv81,61.15833894,52204,,,,,,,,,,,,,,,,,,,,,,,,,,,,,,,,,,,,,,,,,,zegel,images/br_zegel.png,images/cb_zegel.png,,zegel,,,,,,,,,,,0.318032817,0.290979875,1,0,0,zegel,0,40,40,46,1
,,,,,,,2023-07-25_14h51.09.523,vbt_B2_day2,2022.2.4,Linux armv81,61.15833894,52204,,,,,,,,,,,,,,,,,,,,,,,,,,,,,,,,,,,,,,,,,,eenhoorn,images/br_eenhoorn.png,images/cb_eenhoorn.png,,eenhoorn,,,,,,,,,,,0.239589813,0.16786061,1,0,0,eenhoorn,0,41,41,19,1
,,,,,,,2023-07-25_14h51.09.523,vbt_B2_day2,2022.2.4,Linux armv81,61.15833894,52204,,,,,,,,,,,,,,,,,,,,,,,,,,,,,,,,,,,,,,,,,,breuk,images/br_breuk.png,images/cb_breuk.png,,bremk,,,,,,,,,,,0.210334081,0.263336311,1,0,0,bremk,0,42,42,45,1
,,,,,,,2023-07-25_14h51.09.523,vbt_B2_day2,2022.2.4,Linux armv81,61.15833894,52204,,,,,,,,,,,,,,,,,,,,,,,,,,,,,,,,,,,,,,,,,,jong,images/br_jong.png,images/cb_jong.png,,jong,,,,,,,,,,,0.140724652,0.129518221,1,0,0,jong,0,43,43,43,1
,,,,,,,2023-07-25_14h51.09.523,vbt_B2_day2,2022.2.4,Linux armv81,61.15833894,52204,,,,,,,,,,,,,,,,,,,,,,,,,,,,,,,,,,,,,,,,,,agressie,images/br_agressie.png,images/cb_agressie.png,,agtessie,,,,,,,,,,,0.132828279,0.150306778,1,0,0,agtessie,0,44,44,59,1
,,,,,,,2023-07-25_14h51.09.523,vbt_B2_day2,2022.2.4,Linux armv81,61.15833894,52204,,,,,,,,,,,,,,,,,,,,,,,,,,,,,,,,,,,,,,,,,,goon,images/br_goon.png,images/cb_goon.png,,goon,,,,,,,,,,,0.681940617,0.383427622,1,0,0,goon,0,45,45,23,1
,,,,,,,2023-07-25_14h51.09.523,vbt_B2_day2,2022.2.4,Linux armv81,61.15833894,52204,,,,,,,,,,,,,,,,,,,,,,,,,,,,,,,,,,,,,,,,,,welzijn,images/br_welzijn.png,images/cb_welzijn.png,,welzijn,,,,,,,,,,,0.537507594,0.258366692,1,0,0,welzijn,0,46,46,52,1
,,,,,,,2023-07-25_14h51.09.523,vbt_B2_day2,2022.2.4,Linux armv81,61.15833894,52204,,,,,,,,,,,,,,,,,,,,,,,,,,,,,,,,,,,,,,,,,,kabel,images/br_kabel.png,images/cb_kabel.png,,kabel,,,,,,,,,,,0.445369,0.357270599,1,0,0,kabel,0,47,47,7,1
,,,,,,,2023-07-25_14h51.09.523,vbt_B2_day2,2022.2.4,Linux armv81,61.15833894,52204,,,,,,,,,,,,,,,,,,,,,,,,,,,,,,,,,,,,,,,,,,piste,images/br_piste.png,images/cb_piste.png,,piste,,,,,,,,,,,0.401523469,0.451227528,1,0,0,piste,0,48,48,5,1
,,,,,,,2023-07-25_14h51.09.523,vbt_B2_day2,2022.2.4,Linux armv81,61.15833894,52204,,,,,,,,,,,,,,,,,,,,,,,,,,,,,,,,,,,,,,,,,,sora,images/br_sora.png,images/cb_sora.png,,sora,,,,,,,,,,,0.360416744,0.481150619,1,0,0,sora,0,49,49,22,1
,,,,,,,2023-07-25_14h51.09.523,vbt_B2_day2,2022.2.4,Linux armv81,61.15833894,52204,,,,,,,,,,,,,,,,,,,,,,,,,,,,,,,,,,,,,,,,,,strikken,images/br_strikken.png,images/cb_strikken.png,,strikken,,,,,,,,,,,0.158408066,0.5,1,0,0,strikken,0,50,50,18,1
,,,,,,,2023-07-25_14h51.09.523,vbt_B2_day2,2022.2.4,Linux armv81,61.15833894,52204,,,,,,,,,,,,,,,,,,,,,,,,,,,,,,,,,,,,,,,,,,tweeling,images/br_tweeling.png,images/cb_tweeling.png,,tweeling,,,,,,,,,,,0.209211086,0.180795495,1,0,0,tweeling,0,51,51,58,1
,,,,,,,2023-07-25_14h51.09.523,vbt_B2_day2,2022.2.4,Linux armv81,61.15833894,52204,,,,,,,,,,,,,,,,,,,,,,,,,,,,,,,,,,,,,,,,,,geld,images/br_geld.png,images/cb_geld.png,,geld,,,,,,,,,,,0.08039749,0.171349527,1,0,0,geld,0,52,52,3,1
,,,,,,,2023-07-25_14h51.09.523,vbt_B2_day2,2022.2.4,Linux armv81,61.15833894,52204,,,,,,,,,,,,,,,,,,,,,,,,,,,,,,,,,,,,,,,,,,stes,images/br_stes.png,images/cb_stes.png,,stes,,,,,,,,,,,0.069883181,0.202392546,1,0,0,stes,0,53,53,21,1
,,,,,,,2023-07-25_14h51.09.523,vbt_B2_day2,2022.2.4,Linux armv81,61.15833894,52204,,,,,,,,,,,,,,,,,,,,,,,,,,,,,,,,,,,,,,,,,,dode,images/br_dode.png,images/cb_dode.png,,dode,,,,,,,,,,,-0.218485579,0.273510473,1,0,0,dode,0,54,54,41,1
,,,,,,,2023-07-25_14h51.09.523,vbt_B2_day2,2022.2.4,Linux armv81,61.15833894,52204,,,,,,,,,,,,,,,,,,,,,,,,,,,,,,,,,,,,,,,,,,woning,images/br_woning.png,images/cb_woning.png,,,,,,,,,,,,,-0.218485579,0.273510473,1,0,0,,0,55,55,10,1
,,,,,,,2023-07-25_14h51.09.523,vbt_B2_day2,2022.2.4,Linux armv81,61.15833894,52204,,,,,,,,,,,,,,,,,,,,,,,,,,,,,,,,,,,,,,,,,,heilig,images/br_heilig.png,images/cb_heilig.png,,hielen,,,,,,,,,,,-0.218485579,0.273510473,1,0,0,hielen,0,56,56,9,1
,,,,,,,2023-07-25_14h51.09.523,vbt_B2_day2,2022.2.4,Linux armv81,61.15833894,52204,,,,,,,,,,,,,,,,,,,,,,,,,,,,,,,,,,,,,,,,,,sifferd,images/br_sifferd.png,images/cb_sifferd.png,,sefferd,,,,,,,,,,,-0.218485579,0.273510473,1,0,0,sefferd,0,57,57,32,1
,,,,,,,2023-07-25_14h51.09.523,vbt_B2_day2,2022.2.4,Linux armv81,61.15833894,52204,,,,,,,,,,,,,,,,,,,,,,,,,,,,,,,,,,,,,,,,,,sjijfel,images/br_sjijfel.png,images/cb_sjijfel.png,,sjij,,,,,,,,,,,-0.156095533,0.285210061,1,0,0,sjij,0,58,58,33,1
,,,,,,,2023-07-25_14h51.09.523,vbt_B2_day2,2022.2.4,Linux armv81,61.15833894,52204,,,,,,,,,,,,,,,,,,,,,,,,,,,,,,,,,,,,,,,,,,clan,images/br_clan.png,images/cb_clan.png,,clan,,,,,,,,,,,0.068237564,0.065729259,1,0,0,clan,0,59,59,40,1
,,,,,,,2023-07-25_14h51.09.523,vbt_B2_day2,2022.2.4,Linux armv81,61.15833894,52204,,,,,,,,,,,,,,,,,,,,,,,,,,,,,,,,,,,,,,,,,,,,,,,,,,,,,,,,,,,,,,,,,,,
