welcome_mouse.x,welcome_mouse.y,welcome_mouse.leftButton,welcome_mouse.midButton,welcome_mouse.rightButton,welcome_mouse.time,"ID",date,expName,psychopyVersion,OS,frameRate,refresh_mouse.x,refresh_mouse.y,refresh_mouse.leftButton,refresh_mouse.midButton,refresh_mouse.rightButton,refresh_mouse.time,braille_mouse.x,braille_mouse.y,braille_mouse.leftButton,braille_mouse.midButton,braille_mouse.rightButton,braille_mouse.time,trials.thisRepN,trials.thisTrialN,trials.thisN,trials.thisIndex,trials.ran,nlLet,brLet,cbLet,trainInstr_mouse.x,trainInstr_mouse.y,trainInstr_mouse.leftButton,trainInstr_mouse.midButton,trainInstr_mouse.rightButton,trainInstr_mouse.time,translation_key.keys,translation_key.corr,translation_key.rt,word_rsp.text,word_mouse.x,word_mouse.y,word_mouse.leftButton,word_mouse.midButton,word_mouse.rightButton,word_mouse.time,train_loop.thisRepN,train_loop.thisTrialN,train_loop.thisN,train_loop.thisIndex,train_loop.ran,nlWrd,brWrd,cbWrd,test,testResp,mouse.x,mouse.y,mouse.leftButton,mouse.midButton,mouse.rightButton,testInstr_mouse.x,testInstr_mouse.y,testInstr_mouse.leftButton,testInstr_mouse.midButton,testInstr_mouse.rightButton,test_mouse.x,test_mouse.y,test_mouse.leftButton,test_mouse.midButton,test_mouse.rightButton,test_response.text,test_loop.thisRepN,test_loop.thisTrialN,test_loop.thisN,test_loop.thisIndex,test_loop.ran
-0.15370369,-0.241666653,1,0,0,8.7844,00093,2023-11-03_11h22.42.863,vbt_B2_day2,2022.2.4,Win32,60.3682463,,,,,,,,,,,,,,,,,,,,,,,,,,,,,,,,,,,,,,,,,,,,,,,,,,,,,,,,,,,,,,,,,,,
,,,,,,00093,2023-11-03_11h22.42.863,vbt_B2_day2,2022.2.4,Win32,60.3682463,-0.15370369,-0.241666653,1,0,0,12.1467,,,,,,,,,,,,,,,,,,,,,,,,,,,,,,,,,,,,,,,,,,,,,,,,,,,,,,,,,,,,,
,,,,,,00093,2023-11-03_11h22.42.863,vbt_B2_day2,2022.2.4,Win32,60.3682463,,,,,,,-0.15370369,-0.241666653,1,0,0,0.25,0,0,0,17,1,r,images/br_r.png,images/cb_r.png,,,,,,,,,,,,,,,,,,,,,,,,,,,,,,,,,,,,,,,,,,,,,,,
,,,,,,00093,2023-11-03_11h22.42.863,vbt_B2_day2,2022.2.4,Win32,60.3682463,,,,,,,0.207407422,-0.140740783,1,0,0,1.57,0,1,1,7,1,h,images/br_h.png,images/cb_h.png,,,,,,,,,,,,,,,,,,,,,,,,,,,,,,,,,,,,,,,,,,,,,,,
,,,,,,00093,2023-11-03_11h22.42.863,vbt_B2_day2,2022.2.4,Win32,60.3682463,,,,,,,0.207407422,-0.140740783,1,0,0,0.3665,0,2,2,25,1,z,images/br_z.png,images/cb_z.png,,,,,,,,,,,,,,,,,,,,,,,,,,,,,,,,,,,,,,,,,,,,,,,
,,,,,,00093,2023-11-03_11h22.42.863,vbt_B2_day2,2022.2.4,Win32,60.3682463,,,,,,,0.207407422,-0.140740783,1,0,0,13.7994,0,3,3,24,1,y,images/br_y.png,images/cb_y.png,,,,,,,,,,,,,,,,,,,,,,,,,,,,,,,,,,,,,,,,,,,,,,,
,,,,,,00093,2023-11-03_11h22.42.863,vbt_B2_day2,2022.2.4,Win32,60.3682463,,,,,,,0.207407422,-0.140740783,1,0,0,0.4165,0,4,4,23,1,x,images/br_x.png,images/cb_x.png,,,,,,,,,,,,,,,,,,,,,,,,,,,,,,,,,,,,,,,,,,,,,,,
,,,,,,00093,2023-11-03_11h22.42.863,vbt_B2_day2,2022.2.4,Win32,60.3682463,,,,,,,0.207407422,-0.140740783,1,0,0,3.1499,0,5,5,3,1,d,images/br_d.png,images/cb_d.png,,,,,,,,,,,,,,,,,,,,,,,,,,,,,,,,,,,,,,,,,,,,,,,
,,,,,,00093,2023-11-03_11h22.42.863,vbt_B2_day2,2022.2.4,Win32,60.3682463,,,,,,,0.207407422,-0.140740783,1,0,0,0.4165,0,6,6,1,1,b,images/br_b.png,images/cb_b.png,,,,,,,,,,,,,,,,,,,,,,,,,,,,,,,,,,,,,,,,,,,,,,,
,,,,,,00093,2023-11-03_11h22.42.863,vbt_B2_day2,2022.2.4,Win32,60.3682463,,,,,,,0.207407422,-0.140740783,1,0,0,0.5333,0,7,7,8,1,i,images/br_i.png,images/cb_i.png,,,,,,,,,,,,,,,,,,,,,,,,,,,,,,,,,,,,,,,,,,,,,,,
,,,,,,00093,2023-11-03_11h22.42.863,vbt_B2_day2,2022.2.4,Win32,60.3682463,,,,,,,0.207407422,-0.140740783,1,0,0,0.3334,0,8,8,10,1,k,images/br_k.png,images/cb_k.png,,,,,,,,,,,,,,,,,,,,,,,,,,,,,,,,,,,,,,,,,,,,,,,
,,,,,,00093,2023-11-03_11h22.42.863,vbt_B2_day2,2022.2.4,Win32,60.3682463,,,,,,,0.207407422,-0.140740783,1,0,0,0.5835,0,9,9,20,1,u,images/br_u.png,images/cb_u.png,,,,,,,,,,,,,,,,,,,,,,,,,,,,,,,,,,,,,,,,,,,,,,,
,,,,,,00093,2023-11-03_11h22.42.863,vbt_B2_day2,2022.2.4,Win32,60.3682463,,,,,,,0.207407422,-0.140740783,1,0,0,0.5835,0,10,10,9,1,j,images/br_j.png,images/cb_j.png,,,,,,,,,,,,,,,,,,,,,,,,,,,,,,,,,,,,,,,,,,,,,,,
,,,,,,00093,2023-11-03_11h22.42.863,vbt_B2_day2,2022.2.4,Win32,60.3682463,,,,,,,0.207407422,-0.140740783,1,0,0,0.5002,0,11,11,2,1,c,images/br_c.png,images/cb_c.png,,,,,,,,,,,,,,,,,,,,,,,,,,,,,,,,,,,,,,,,,,,,,,,
,,,,,,00093,2023-11-03_11h22.42.863,vbt_B2_day2,2022.2.4,Win32,60.3682463,,,,,,,0.207407422,-0.140740783,1,0,0,0.216,0,12,12,22,1,w,images/br_w.png,images/cb_w.png,,,,,,,,,,,,,,,,,,,,,,,,,,,,,,,,,,,,,,,,,,,,,,,
,,,,,,00093,2023-11-03_11h22.42.863,vbt_B2_day2,2022.2.4,Win32,60.3682463,,,,,,,0.207407422,-0.140740783,1,0,0,0.5166,0,13,13,18,1,s,images/br_s.png,images/cb_s.png,,,,,,,,,,,,,,,,,,,,,,,,,,,,,,,,,,,,,,,,,,,,,,,
,,,,,,00093,2023-11-03_11h22.42.863,vbt_B2_day2,2022.2.4,Win32,60.3682463,,,,,,,0.207407422,-0.140740783,1,0,0,0.7501,0,14,14,19,1,t,images/br_t.png,images/cb_t.png,,,,,,,,,,,,,,,,,,,,,,,,,,,,,,,,,,,,,,,,,,,,,,,
,,,,,,00093,2023-11-03_11h22.42.863,vbt_B2_day2,2022.2.4,Win32,60.3682463,,,,,,,0.207407422,-0.140740783,1,0,0,0.2167,0,15,15,11,1,l,images/br_l.png,images/cb_l.png,,,,,,,,,,,,,,,,,,,,,,,,,,,,,,,,,,,,,,,,,,,,,,,
,,,,,,00093,2023-11-03_11h22.42.863,vbt_B2_day2,2022.2.4,Win32,60.3682463,,,,,,,0.207407422,-0.140740783,1,0,0,0.6165,0,16,16,5,1,f,images/br_f.png,images/cb_f.png,,,,,,,,,,,,,,,,,,,,,,,,,,,,,,,,,,,,,,,,,,,,,,,
,,,,,,00093,2023-11-03_11h22.42.863,vbt_B2_day2,2022.2.4,Win32,60.3682463,,,,,,,0.207407422,-0.140740783,1,0,0,0.1664,0,17,17,13,1,n,images/br_n.png,images/cb_n.png,,,,,,,,,,,,,,,,,,,,,,,,,,,,,,,,,,,,,,,,,,,,,,,
,,,,,,00093,2023-11-03_11h22.42.863,vbt_B2_day2,2022.2.4,Win32,60.3682463,,,,,,,0.207407422,-0.140740783,1,0,0,0.6668,0,18,18,6,1,g,images/br_g.png,images/cb_g.png,,,,,,,,,,,,,,,,,,,,,,,,,,,,,,,,,,,,,,,,,,,,,,,
,,,,,,00093,2023-11-03_11h22.42.863,vbt_B2_day2,2022.2.4,Win32,60.3682463,,,,,,,0.207407422,-0.140740783,1,0,0,0.2,0,19,19,4,1,e,images/br_e.png,images/cb_e.png,,,,,,,,,,,,,,,,,,,,,,,,,,,,,,,,,,,,,,,,,,,,,,,
,,,,,,00093,2023-11-03_11h22.42.863,vbt_B2_day2,2022.2.4,Win32,60.3682463,,,,,,,0.207407422,-0.140740783,1,0,0,0.5498,0,20,20,0,1,a,images/br_a.png,images/cb_a.png,,,,,,,,,,,,,,,,,,,,,,,,,,,,,,,,,,,,,,,,,,,,,,,
,,,,,,00093,2023-11-03_11h22.42.863,vbt_B2_day2,2022.2.4,Win32,60.3682463,,,,,,,0.207407422,-0.140740783,1,0,0,0.2,0,21,21,21,1,v,images/br_v.png,images/cb_v.png,,,,,,,,,,,,,,,,,,,,,,,,,,,,,,,,,,,,,,,,,,,,,,,
,,,,,,00093,2023-11-03_11h22.42.863,vbt_B2_day2,2022.2.4,Win32,60.3682463,,,,,,,0.207407422,-0.140740783,1,0,0,0.1498,0,22,22,15,1,p,images/br_p.png,images/cb_p.png,,,,,,,,,,,,,,,,,,,,,,,,,,,,,,,,,,,,,,,,,,,,,,,
,,,,,,00093,2023-11-03_11h22.42.863,vbt_B2_day2,2022.2.4,Win32,60.3682463,,,,,,,0.207407422,-0.140740783,1,0,0,0.1168,0,23,23,12,1,m,images/br_m.png,images/cb_m.png,,,,,,,,,,,,,,,,,,,,,,,,,,,,,,,,,,,,,,,,,,,,,,,
,,,,,,00093,2023-11-03_11h22.42.863,vbt_B2_day2,2022.2.4,Win32,60.3682463,,,,,,,0.207407422,-0.140740783,1,0,0,0.6335,0,24,24,14,1,o,images/br_o.png,images/cb_o.png,,,,,,,,,,,,,,,,,,,,,,,,,,,,,,,,,,,,,,,,,,,,,,,
,,,,,,00093,2023-11-03_11h22.42.863,vbt_B2_day2,2022.2.4,Win32,60.3682463,,,,,,,0.207407422,-0.140740783,1,0,0,1.1332,0,25,25,16,1,q,images/br_q.png,images/cb_q.png,,,,,,,,,,,,,,,,,,,,,,,,,,,,,,,,,,,,,,,,,,,,,,,
,,,,,,00093,2023-11-03_11h22.42.863,vbt_B2_day2,2022.2.4,Win32,60.3682463,,,,,,,,,,,,,,,,,,,,,0.482407464,0.334259263,1,0,0,31.8771,,,,,,,,,,,,,,,,,,,,,,,,,,,,,,,,,,,,,,,,,
,,,,,,00093,2023-11-03_11h22.42.863,vbt_B2_day2,2022.2.4,Win32,60.3682463,,,,,,,,,,,,,,,,,,,,,,,,,,,down,0,5.2379,,0.482407464,0.334259263,1,0,0,4.0497,0,0,0,94,1,oceaan,images/br_oceaan.png,images/cb_oceaan.png,0,,,,,,,,,,,,,,,,,,,,,,
,,,,,,00093,2023-11-03_11h22.42.863,vbt_B2_day2,2022.2.4,Win32,60.3682463,,,,,,,,,,,,,,,,,,,,,,,,,,,down,0,4.8174,,0.482407464,0.334259263,1,0,0,1.6831,0,1,1,52,1,wagon,images/br_wagon.png,images/cb_wagon.png,0,,,,,,,,,,,,,,,,,,,,,,
,,,,,,00093,2023-11-03_11h22.42.863,vbt_B2_day2,2022.2.4,Win32,60.3682463,,,,,,,,,,,,,,,,,,,,,,,,,,,down,0,4.651,,0.482407464,0.334259263,1,0,0,1.6826,0,2,2,101,1,staren,images/br_staren.png,images/cb_staren.png,0,,,,,,,,,,,,,,,,,,,,,,
,,,,,,00093,2023-11-03_11h22.42.863,vbt_B2_day2,2022.2.4,Win32,60.3682463,,,,,,,,,,,,,,,,,,,,,,,,,,,down,0,4.1336,,0.482407464,0.334259263,1,0,0,2.8499,0,3,3,127,1,doodmoe,images/br_doodmoe.png,images/cb_doodmoe.png,0,,,,,,,,,,,,,,,,,,,,,,
,,,,,,00093,2023-11-03_11h22.42.863,vbt_B2_day2,2022.2.4,Win32,60.3682463,,,,,,,,,,,,,,,,,,,,,,,,,,,down,0,1.6171,,0.482407464,0.334259263,1,0,0,1.7492,0,4,4,2,1,jaar,images/br_jaar.png,images/cb_jaar.png,0,,,,,,,,,,,,,,,,,,,,,,
,,,,,,00093,2023-11-03_11h22.42.863,vbt_B2_day2,2022.2.4,Win32,60.3682463,,,,,,,,,,,,,,,,,,,,,,,,,,,down,0,2.276,,0.482407464,0.334259263,1,0,0,2.1192,0,5,5,77,1,woede,images/br_woede.png,images/cb_woede.png,0,,,,,,,,,,,,,,,,,,,,,,
,,,,,,00093,2023-11-03_11h22.42.863,vbt_B2_day2,2022.2.4,Win32,60.3682463,,,,,,,,,,,,,,,,,,,,,,,,,,,down,0,7.1626,,0.486111111,0.346296293,1,0,0,2.1,0,6,6,134,1,geliefd,images/br_geliefd.png,images/cb_geliefd.png,0,,,,,,,,,,,,,,,,,,,,,,
,,,,,,00093,2023-11-03_11h22.42.863,vbt_B2_day2,2022.2.4,Win32,60.3682463,,,,,,,,,,,,,,,,,,,,,,,,,,,down,0,5.8674,,0.486111111,0.346296293,1,0,0,1.7002,0,7,7,198,1,bedoelen,images/br_bedoelen.png,images/cb_bedoelen.png,0,,,,,,,,,,,,,,,,,,,,,,
,,,,,,00093,2023-11-03_11h22.42.863,vbt_B2_day2,2022.2.4,Win32,60.3682463,,,,,,,,,,,,,,,,,,,,,,,,,,,down,0,6.6181,,0.486111111,0.346296293,1,0,0,1.917,0,8,8,182,1,bijkomen,images/br_bijkomen.png,images/cb_bijkomen.png,0,,,,,,,,,,,,,,,,,,,,,,
,,,,,,00093,2023-11-03_11h22.42.863,vbt_B2_day2,2022.2.4,Win32,60.3682463,,,,,,,,,,,,,,,,,,,,,,,,,,,down,0,1.3959,,0.486111111,0.346296293,1,0,0,0.8337,0,9,9,29,1,baas,images/br_baas.png,images/cb_baas.png,0,,,,,,,,,,,,,,,,,,,,,,
,,,,,,00093,2023-11-03_11h22.42.863,vbt_B2_day2,2022.2.4,Win32,60.3682463,,,,,,,,,,,,,,,,,,,,,,,,,,,down,0,3.4305,,0.486111111,0.346296293,1,0,0,2.267,0,10,10,64,1,wegen,images/br_wegen.png,images/cb_wegen.png,0,,,,,,,,,,,,,,,,,,,,,,
,,,,,,00093,2023-11-03_11h22.42.863,vbt_B2_day2,2022.2.4,Win32,60.3682463,,,,,,,,,,,,,,,,,,,,,,,,,,,down,0,1.6779,,0.486111111,0.346296293,1,0,0,1.533,0,11,11,27,1,dans,images/br_dans.png,images/cb_dans.png,0,,,,,,,,,,,,,,,,,,,,,,
,,,,,,00093,2023-11-03_11h22.42.863,vbt_B2_day2,2022.2.4,Win32,60.3682463,,,,,,,,,,,,,,,,,,,,,,,,,,,down,0,7.407,,0.486111111,0.346296293,1,0,0,2.1858,0,12,12,136,1,waarbij,images/br_waarbij.png,images/cb_waarbij.png,1,waarbij,,,,,,,,,,,,,,,,,,,,,
,,,,,,00093,2023-11-03_11h22.42.863,vbt_B2_day2,2022.2.4,Win32,60.3682463,,,,,,,,,,,,,,,,,,,,,,,,,,,down,0,5.6678,,0.486111111,0.346296293,1,0,0,1.1167,0,13,13,65,1,parel,images/br_parel.png,images/cb_parel.png,0,,,,,,,,,,,,,,,,,,,,,,
,,,,,,00093,2023-11-03_11h22.42.863,vbt_B2_day2,2022.2.4,Win32,60.3682463,,,,,,,,,,,,,,,,,,,,,,,,,,,down,0,5.6502,,0.486111111,0.346296293,1,0,0,1.2825,0,14,14,151,1,aanzoek,images/br_aanzoek.png,images/cb_aanzoek.png,0,,,,,,,,,,,,,,,,,,,,,,
,,,,,,00093,2023-11-03_11h22.42.863,vbt_B2_day2,2022.2.4,Win32,60.3682463,,,,,,,,,,,,,,,,,,,,,,,,,,,down,0,4.1391,,0.486111111,0.346296293,1,0,0,1.2326,0,15,15,104,1,zweven,images/br_zweven.png,images/cb_zweven.png,0,,,,,,,,,,,,,,,,,,,,,,
,,,,,,00093,2023-11-03_11h22.42.863,vbt_B2_day2,2022.2.4,Win32,60.3682463,,,,,,,,,,,,,,,,,,,,,,,,,,,down,0,3.3646,,0.486111111,0.346296293,1,0,0,1.0168,0,16,16,19,1,geit,images/br_geit.png,images/cb_geit.png,1,geit,,,,,,,,,,,,,,,,,,,,,
,,,,,,00093,2023-11-03_11h22.42.863,vbt_B2_day2,2022.2.4,Win32,60.3682463,,,,,,,,,,,,,,,,,,,,,,,,,,,down,0,6.6606,,0.486111111,0.346296293,1,0,0,0.8994,0,17,17,163,1,schuilen,images/br_schuilen.png,images/cb_schuilen.png,0,,,,,,,,,,,,,,,,,,,,,,
,,,,,,00093,2023-11-03_11h22.42.863,vbt_B2_day2,2022.2.4,Win32,60.3682463,,,,,,,,,,,,,,,,,,,,,,,,,,,down,0,5.2269,,0.486111111,0.346296293,1,0,0,1.183,0,18,18,109,1,totaal,images/br_totaal.png,images/cb_totaal.png,0,,,,,,,,,,,,,,,,,,,,,,
,,,,,,00093,2023-11-03_11h22.42.863,vbt_B2_day2,2022.2.4,Win32,60.3682463,,,,,,,,,,,,,,,,,,,,,,,,,,,down,0,4.5125,,0.486111111,0.346296293,1,0,0,0.8839,0,19,19,95,1,vreten,images/br_vreten.png,images/cb_vreten.png,0,,,,,,,,,,,,,,,,,,,,,,
,,,,,,00093,2023-11-03_11h22.42.863,vbt_B2_day2,2022.2.4,Win32,60.3682463,,,,,,,,,,,,,,,,,,,,,,,,,,,down,0,6.0565,,0.486111111,0.346296293,1,0,0,0.8496,0,20,20,138,1,akkoord,images/br_akkoord.png,images/cb_akkoord.png,1,akkoord,,,,,,,,,,,,,,,,,,,,,
,,,,,,00093,2023-11-03_11h22.42.863,vbt_B2_day2,2022.2.4,Win32,60.3682463,,,,,,,,,,,,,,,,,,,,,,,,,,,down,0,10.9058,,0.486111111,0.346296293,1,0,0,3.4833,0,21,21,196,1,nakijken,images/br_nakijken.png,images/cb_nakijken.png,0,,,,,,,,,,,,,,,,,,,,,,
,,,,,,00093,2023-11-03_11h22.42.863,vbt_B2_day2,2022.2.4,Win32,60.3682463,,,,,,,,,,,,,,,,,,,,,,,,,,,down,0,8.8115,,0.486111111,0.346296293,1,0,0,0.7834,0,22,22,142,1,snuiven,images/br_snuiven.png,images/cb_snuiven.png,0,,,,,,,,,,,,,,,,,,,,,,
,,,,,,00093,2023-11-03_11h22.42.863,vbt_B2_day2,2022.2.4,Win32,60.3682463,,,,,,,,,,,,,,,,,,,,,,,,,,,down,0,2.5198,,0.486111111,0.346296293,1,0,0,0.9332,0,23,23,162,1,uitdelen,images/br_uitdelen.png,images/cb_uitdelen.png,0,,,,,,,,,,,,,,,,,,,,,,
,,,,,,00093,2023-11-03_11h22.42.863,vbt_B2_day2,2022.2.4,Win32,60.3682463,,,,,,,,,,,,,,,,,,,,,,,,,,,down,0,10.8506,,0.486111111,0.346296293,1,0,0,0.7664,0,24,24,82,1,muziek,images/br_muziek.png,images/cb_muziek.png,0,,,,,,,,,,,,,,,,,,,,,,
,,,,,,00093,2023-11-03_11h22.42.863,vbt_B2_day2,2022.2.4,Win32,60.3682463,,,,,,,,,,,,,,,,,,,,,,,,,,,down,0,4.5615,,0.486111111,0.346296293,1,0,0,1.1,0,25,25,72,1,strak,images/br_strak.png,images/cb_strak.png,0,,,,,,,,,,,,,,,,,,,,,,
,,,,,,00093,2023-11-03_11h22.42.863,vbt_B2_day2,2022.2.4,Win32,60.3682463,,,,,,,,,,,,,,,,,,,,,,,,,,,down,0,15.1537,,0.486111111,0.346296293,1,0,0,1.9166,0,26,26,117,1,kennis,images/br_kennis.png,images/cb_kennis.png,0,,,,,,,,,,,,,,,,,,,,,,
,,,,,,00093,2023-11-03_11h22.42.863,vbt_B2_day2,2022.2.4,Win32,60.3682463,,,,,,,,,,,,,,,,,,,,,,,,,,,down,0,1.6555,,0.486111111,0.346296293,1,0,0,0.8004,0,27,27,84,1,lokken,images/br_lokken.png,images/cb_lokken.png,0,,,,,,,,,,,,,,,,,,,,,,
,,,,,,00093,2023-11-03_11h22.42.863,vbt_B2_day2,2022.2.4,Win32,60.3682463,,,,,,,,,,,,,,,,,,,,,,,,,,,down,0,4.4868,,0.486111111,0.346296293,1,0,0,0.733,0,28,28,81,1,dubbel,images/br_dubbel.png,images/cb_dubbel.png,0,,,,,,,,,,,,,,,,,,,,,,
,,,,,,00093,2023-11-03_11h22.42.863,vbt_B2_day2,2022.2.4,Win32,60.3682463,,,,,,,,,,,,,,,,,,,,,,,,,,,down,0,11.706,,0.486111111,0.346296293,1,0,0,1.6997,0,29,29,124,1,bloeien,images/br_bloeien.png,images/cb_bloeien.png,0,,,,,,,,,,,,,,,,,,,,,,
,,,,,,00093,2023-11-03_11h22.42.863,vbt_B2_day2,2022.2.4,Win32,60.3682463,,,,,,,,,,,,,,,,,,,,,,,,,,,down,0,1.4198,,0.486111111,0.346296293,1,0,0,2.3164,0,30,30,10,1,leek,images/br_leek.png,images/cb_leek.png,0,,,,,,,,,,,,,,,,,,,,,,
,,,,,,00093,2023-11-03_11h22.42.863,vbt_B2_day2,2022.2.4,Win32,60.3682463,,,,,,,,,,,,,,,,,,,,,,,,,,,down,0,3.2173,,0.486111111,0.346296293,1,0,0,0.7492,0,31,31,30,1,uien,images/br_uien.png,images/cb_uien.png,0,,,,,,,,,,,,,,,,,,,,,,
,,,,,,00093,2023-11-03_11h22.42.863,vbt_B2_day2,2022.2.4,Win32,60.3682463,,,,,,,,,,,,,,,,,,,,,,,,,,,down,0,5.9341,,0.486111111,0.346296293,1,0,0,0.8167,0,32,32,102,1,legaal,images/br_legaal.png,images/cb_legaal.png,0,,,,,,,,,,,,,,,,,,,,,,
,,,,,,00093,2023-11-03_11h22.42.863,vbt_B2_day2,2022.2.4,Win32,60.3682463,,,,,,,,,,,,,,,,,,,,,,,,,,,down,0,1.1005,,0.486111111,0.346296293,1,0,0,1.1832,0,33,33,88,1,boeien,images/br_boeien.png,images/cb_boeien.png,0,,,,,,,,,,,,,,,,,,,,,,
,,,,,,00093,2023-11-03_11h22.42.863,vbt_B2_day2,2022.2.4,Win32,60.3682463,,,,,,,,,,,,,,,,,,,,,,,,,,,down,0,11.1833,,0.486111111,0.346296293,1,0,0,0.8191,0,34,34,178,1,huisdier,images/br_huisdier.png,images/cb_huisdier.png,1,huisdier,,,,,,,,,,,,,,,,,,,,,
,,,,,,00093,2023-11-03_11h22.42.863,vbt_B2_day2,2022.2.4,Win32,60.3682463,,,,,,,,,,,,,,,,,,,,,,,,,,,down,0,4.6498,,0.486111111,0.346296293,1,0,0,0.6686,0,35,35,87,1,toeval,images/br_toeval.png,images/cb_toeval.png,0,,,,,,,,,,,,,,,,,,,,,,
,,,,,,00093,2023-11-03_11h22.42.863,vbt_B2_day2,2022.2.4,Win32,60.3682463,,,,,,,,,,,,,,,,,,,,,,,,,,,down,0,3.2812,,0.486111111,0.346296293,1,0,0,0.835,0,36,36,118,1,vinger,images/br_vinger.png,images/cb_vinger.png,0,,,,,,,,,,,,,,,,,,,,,,
,,,,,,00093,2023-11-03_11h22.42.863,vbt_B2_day2,2022.2.4,Win32,60.3682463,,,,,,,,,,,,,,,,,,,,,,,,,,,down,0,1.9862,,0.486111111,0.346296293,1,0,0,0.7834,0,37,37,103,1,joggen,images/br_joggen.png,images/cb_joggen.png,0,,,,,,,,,,,,,,,,,,,,,,
,,,,,,00093,2023-11-03_11h22.42.863,vbt_B2_day2,2022.2.4,Win32,60.3682463,,,,,,,,,,,,,,,,,,,,,,,,,,,down,0,5.3386,,0.486111111,0.346296293,1,0,0,1.0667,0,38,38,176,1,techniek,images/br_techniek.png,images/cb_techniek.png,1,techniek,,,,,,,,,,,,,,,,,,,,,
,,,,,,00093,2023-11-03_11h22.42.863,vbt_B2_day2,2022.2.4,Win32,60.3682463,,,,,,,,,,,,,,,,,,,,,,,,,,,down,0,6.4749,,0.486111111,0.346296293,1,0,0,1.4015,0,39,39,47,1,kabel,images/br_kabel.png,images/cb_kabel.png,0,,,,,,,,,,,,,,,,,,,,,,
,,,,,,00093,2023-11-03_11h22.42.863,vbt_B2_day2,2022.2.4,Win32,60.3682463,,,,,,,,,,,,,,,,,,,,,,,,,,,down,0,1.8694,,0.486111111,0.346296293,1,0,0,0.9165,0,40,40,16,1,ziek,images/br_ziek.png,images/cb_ziek.png,1,ziek,,,,,,,,,,,,,,,,,,,,,
,,,,,,00093,2023-11-03_11h22.42.863,vbt_B2_day2,2022.2.4,Win32,60.3682463,,,,,,,,,,,,,,,,,,,,,,,,,,,down,0,6.7117,,0.486111111,0.346296293,1,0,0,0.8497,0,41,41,147,1,komisch,images/br_komisch.png,images/cb_komisch.png,0,,,,,,,,,,,,,,,,,,,,,,
,,,,,,00093,2023-11-03_11h22.42.863,vbt_B2_day2,2022.2.4,Win32,60.3682463,,,,,,,,,,,,,,,,,,,,,,,,,,,down,0,3.2662,,0.486111111,0.346296293,1,0,0,0.6827,0,42,42,34,1,vorm,images/br_vorm.png,images/cb_vorm.png,0,,,,,,,,,,,,,,,,,,,,,,
,,,,,,00093,2023-11-03_11h22.42.863,vbt_B2_day2,2022.2.4,Win32,60.3682463,,,,,,,,,,,,,,,,,,,,,,,,,,,down,0,8.5573,,0.486111111,0.346296293,1,0,0,0.7833,0,43,43,154,1,aflopen,images/br_aflopen.png,images/cb_aflopen.png,0,,,,,,,,,,,,,,,,,,,,,,
,,,,,,00093,2023-11-03_11h22.42.863,vbt_B2_day2,2022.2.4,Win32,60.3682463,,,,,,,,,,,,,,,,,,,,,,,,,,,down,0,3.8882,,0.486111111,0.346296293,1,0,0,0.6326,0,44,44,152,1,afnemen,images/br_afnemen.png,images/cb_afnemen.png,0,,,,,,,,,,,,,,,,,,,,,,
,,,,,,00093,2023-11-03_11h22.42.863,vbt_B2_day2,2022.2.4,Win32,60.3682463,,,,,,,,,,,,,,,,,,,,,,,,,,,down,0,3.2032,,0.486111111,0.346296293,1,0,0,1.0995,0,45,45,43,1,klauw,images/br_klauw.png,images/cb_klauw.png,0,,,,,,,,,,,,,,,,,,,,,,
,,,,,,00093,2023-11-03_11h22.42.863,vbt_B2_day2,2022.2.4,Win32,60.3682463,,,,,,,,,,,,,,,,,,,,,,,,,,,down,0,2.7011,,0.486111111,0.346296293,1,0,0,2.7997,0,46,46,119,1,liefje,images/br_liefje.png,images/cb_liefje.png,0,,,,,,,,,,,,,,,,,,,,,,
,,,,,,00093,2023-11-03_11h22.42.863,vbt_B2_day2,2022.2.4,Win32,60.3682463,,,,,,,,,,,,,,,,,,,,,,,,,,,down,0,6.1167,,0.486111111,0.346296293,1,0,0,0.9171,0,47,47,96,1,slagen,images/br_slagen.png,images/cb_slagen.png,1,slagen,,,,,,,,,,,,,,,,,,,,,
,,,,,,00093,2023-11-03_11h22.42.863,vbt_B2_day2,2022.2.4,Win32,60.3682463,,,,,,,,,,,,,,,,,,,,,,,,,,,down,0,4.6043,,0.486111111,0.346296293,1,0,0,0.8493,0,48,48,174,1,stemming,images/br_stemming.png,images/cb_stemming.png,0,,,,,,,,,,,,,,,,,,,,,,
,,,,,,00093,2023-11-03_11h22.42.863,vbt_B2_day2,2022.2.4,Win32,60.3682463,,,,,,,,,,,,,,,,,,,,,,,,,,,down,0,1.2012,,0.486111111,0.346296293,1,0,0,1.1831,0,49,49,22,1,stof,images/br_stof.png,images/cb_stof.png,0,,,,,,,,,,,,,,,,,,,,,,
,,,,,,00093,2023-11-03_11h22.42.863,vbt_B2_day2,2022.2.4,Win32,60.3682463,,,,,,,,,,,,,,,,,,,,,,,,,,,down,0,40.8664,,0.084259245,0.045370349,1,0,0,16.1825,0,50,50,161,1,attentie,images/br_attentie.png,images/cb_attentie.png,0,,,,,,,,,,,,,,,,,,,,,,
,,,,,,00093,2023-11-03_11h22.42.863,vbt_B2_day2,2022.2.4,Win32,60.3682463,,,,,,,,,,,,,,,,,,,,,,,,,,,down,0,20.8163,,0.291666667,-0.087037051,1,0,0,3.9326,0,51,51,12,1,kust,images/br_kust.png,images/cb_kust.png,0,,,,,,,,,,,,,,,,,,,,,,
,,,,,,00093,2023-11-03_11h22.42.863,vbt_B2_day2,2022.2.4,Win32,60.3682463,,,,,,,,,,,,,,,,,,,,,,,,,,,down,0,5.6509,,0.02407406,-0.40370369,1,0,0,3.6331,0,52,52,187,1,opkijken,images/br_opkijken.png,images/cb_opkijken.png,0,,,,,,,,,,,,,,,,,,,,,,
,,,,,,00093,2023-11-03_11h22.42.863,vbt_B2_day2,2022.2.4,Win32,60.3682463,,,,,,,,,,,,,,,,,,,,,,,,,,,down,0,7.7838,,0.127777806,-0.050925926,1,0,0,0.6164,0,53,53,3,1,mand,images/br_mand.png,images/cb_mand.png,0,,,,,,,,,,,,,,,,,,,,,,
,,,,,,00093,2023-11-03_11h22.42.863,vbt_B2_day2,2022.2.4,Win32,60.3682463,,,,,,,,,,,,,,,,,,,,,,,,,,,down,0,14.4951,,0.262037065,-0.124074088,1,0,0,3,0,54,54,190,1,goedkoop,images/br_goedkoop.png,images/cb_goedkoop.png,0,,,,,,,,,,,,,,,,,,,,,,
,,,,,,00093,2023-11-03_11h22.42.863,vbt_B2_day2,2022.2.4,Win32,60.3682463,,,,,,,,,,,,,,,,,,,,,,,,,,,down,0,11.7339,,0.262037065,-0.124074088,1,0,0,1.1833,0,55,55,120,1,klimmen,images/br_klimmen.png,images/cb_klimmen.png,0,,,,,,,,,,,,,,,,,,,,,,
,,,,,,00093,2023-11-03_11h22.42.863,vbt_B2_day2,2022.2.4,Win32,60.3682463,,,,,,,,,,,,,,,,,,,,,,,,,,,down,0,24.303,,0.262037065,-0.124074088,1,0,0,1.15,0,56,56,70,1,ijdel,images/br_ijdel.png,images/cb_ijdel.png,0,,,,,,,,,,,,,,,,,,,,,,
,,,,,,00093,2023-11-03_11h22.42.863,vbt_B2_day2,2022.2.4,Win32,60.3682463,,,,,,,,,,,,,,,,,,,,,,,,,,,down,0,6.1828,,0.262037065,-0.124074088,1,0,0,0.6524,0,57,57,75,1,snoep,images/br_snoep.png,images/cb_snoep.png,0,,,,,,,,,,,,,,,,,,,,,,
,,,,,,00093,2023-11-03_11h22.42.863,vbt_B2_day2,2022.2.4,Win32,60.3682463,,,,,,,,,,,,,,,,,,,,,,,,,,,down,0,1.234,,0.262037065,-0.124074088,1,0,0,1.1829,0,58,58,26,1,leuk,images/br_leuk.png,images/cb_leuk.png,0,,,,,,,,,,,,,,,,,,,,,,
,,,,,,00093,2023-11-03_11h22.42.863,vbt_B2_day2,2022.2.4,Win32,60.3682463,,,,,,,,,,,,,,,,,,,,,,,,,,,down,0,4.9238,,0.262037065,-0.124074088,1,0,0,0.5162,0,59,59,170,1,schatten,images/br_schatten.png,images/cb_schatten.png,0,,,,,,,,,,,,,,,,,,,,,,
,,,,,,00093,2023-11-03_11h22.42.863,vbt_B2_day2,2022.2.4,Win32,60.3682463,,,,,,,,,,,,,,,,,,,,,,,,,,,down,0,2.8592,,0.262037065,-0.124074088,1,0,0,1.3335,0,60,60,93,1,waarop,images/br_waarop.png,images/cb_waarop.png,0,,,,,,,,,,,,,,,,,,,,,,
,,,,,,00093,2023-11-03_11h22.42.863,vbt_B2_day2,2022.2.4,Win32,60.3682463,,,,,,,,,,,,,,,,,,,,,,,,,,,down,0,7.8879,,0.262037065,-0.124074088,1,0,0,0.6828,0,61,61,145,1,invloed,images/br_invloed.png,images/cb_invloed.png,0,,,,,,,,,,,,,,,,,,,,,,
,,,,,,00093,2023-11-03_11h22.42.863,vbt_B2_day2,2022.2.4,Win32,60.3682463,,,,,,,,,,,,,,,,,,,,,,,,,,,down,0,12.4249,,0.262037065,-0.124074088,1,0,0,1.9497,0,62,62,165,1,feestdag,images/br_feestdag.png,images/cb_feestdag.png,0,,,,,,,,,,,,,,,,,,,,,,
,,,,,,00093,2023-11-03_11h22.42.863,vbt_B2_day2,2022.2.4,Win32,60.3682463,,,,,,,,,,,,,,,,,,,,,,,,,,,down,0,10.1294,,0.262037065,-0.124074088,1,0,0,0.8504,0,63,63,194,1,driemaal,images/br_driemaal.png,images/cb_driemaal.png,0,,,,,,,,,,,,,,,,,,,,,,
,,,,,,00093,2023-11-03_11h22.42.863,vbt_B2_day2,2022.2.4,Win32,60.3682463,,,,,,,,,,,,,,,,,,,,,,,,,,,down,0,3.2334,,0.262037065,-0.124074088,1,0,0,0.4998,0,64,64,107,1,maling,images/br_maling.png,images/cb_maling.png,0,,,,,,,,,,,,,,,,,,,,,,
,,,,,,00093,2023-11-03_11h22.42.863,vbt_B2_day2,2022.2.4,Win32,60.3682463,,,,,,,,,,,,,,,,,,,,,,,,,,,down,0,2.3922,,0.262037065,-0.124074088,1,0,0,0.8498,0,65,65,157,1,uitlaat,images/br_uitlaat.png,images/cb_uitlaat.png,0,,,,,,,,,,,,,,,,,,,,,,
,,,,,,00093,2023-11-03_11h22.42.863,vbt_B2_day2,2022.2.4,Win32,60.3682463,,,,,,,,,,,,,,,,,,,,,,,,,,,down,0,11.5243,,0.262037065,-0.124074088,1,0,0,0.6332,0,66,66,191,1,opheffen,images/br_opheffen.png,images/cb_opheffen.png,0,,,,,,,,,,,,,,,,,,,,,,
,,,,,,00093,2023-11-03_11h22.42.863,vbt_B2_day2,2022.2.4,Win32,60.3682463,,,,,,,,,,,,,,,,,,,,,,,,,,,down,0,8.8744,,0.262037065,-0.124074088,1,0,0,0.5665,0,67,67,155,1,gerucht,images/br_gerucht.png,images/cb_gerucht.png,0,,,,,,,,,,,,,,,,,,,,,,
,,,,,,00093,2023-11-03_11h22.42.863,vbt_B2_day2,2022.2.4,Win32,60.3682463,,,,,,,,,,,,,,,,,,,,,,,,,,,down,0,2.3846,,0.262037065,-0.124074088,1,0,0,1.1523,0,68,68,56,1,traag,images/br_traag.png,images/cb_traag.png,1,traag,,,,,,,,,,,,,,,,,,,,,
,,,,,,00093,2023-11-03_11h22.42.863,vbt_B2_day2,2022.2.4,Win32,60.3682463,,,,,,,,,,,,,,,,,,,,,,,,,,,down,0,6.7683,,0.116666653,-0.145370413,1,0,0,0.7498,0,69,69,140,1,blijven,images/br_blijven.png,images/cb_blijven.png,0,,,,,,,,,,,,,,,,,,,,,,
,,,,,,00093,2023-11-03_11h22.42.863,vbt_B2_day2,2022.2.4,Win32,60.3682463,,,,,,,,,,,,,,,,,,,,,,,,,,,down,0,7.0055,,0.116666653,-0.145370413,1,0,0,0.6495,0,70,70,173,1,apparaat,images/br_apparaat.png,images/cb_apparaat.png,0,,,,,,,,,,,,,,,,,,,,,,
,,,,,,00093,2023-11-03_11h22.42.863,vbt_B2_day2,2022.2.4,Win32,60.3682463,,,,,,,,,,,,,,,,,,,,,,,,,,,down,0,2.3187,,0.116666653,-0.145370413,1,0,0,0.835,0,71,71,90,1,geluid,images/br_geluid.png,images/cb_geluid.png,0,,,,,,,,,,,,,,,,,,,,,,
,,,,,,00093,2023-11-03_11h22.42.863,vbt_B2_day2,2022.2.4,Win32,60.3682463,,,,,,,,,,,,,,,,,,,,,,,,,,,down,0,4.8999,,0.116666653,-0.145370413,1,0,0,0.781,0,72,72,137,1,trekker,images/br_trekker.png,images/cb_trekker.png,1,trekker,,,,,,,,,,,,,,,,,,,,,
,,,,,,00093,2023-11-03_11h22.42.863,vbt_B2_day2,2022.2.4,Win32,60.3682463,,,,,,,,,,,,,,,,,,,,,,,,,,,down,0,1.1118,,0.116666653,-0.145370413,1,0,0,1.1672,0,73,73,121,1,twijfel,images/br_twijfel.png,images/cb_twijfel.png,0,,,,,,,,,,,,,,,,,,,,,,
,,,,,,00093,2023-11-03_11h22.42.863,vbt_B2_day2,2022.2.4,Win32,60.3682463,,,,,,,,,,,,,,,,,,,,,,,,,,,down,0,10.9395,,0.116666653,-0.145370413,1,0,0,0.6332,0,74,74,144,1,eetlust,images/br_eetlust.png,images/cb_eetlust.png,0,,,,,,,,,,,,,,,,,,,,,,
,,,,,,00093,2023-11-03_11h22.42.863,vbt_B2_day2,2022.2.4,Win32,60.3682463,,,,,,,,,,,,,,,,,,,,,,,,,,,down,0,1.0528,,0.116666653,-0.145370413,1,0,0,0.6331,0,75,75,62,1,knaap,images/br_knaap.png,images/cb_knaap.png,0,,,,,,,,,,,,,,,,,,,,,,
,,,,,,00093,2023-11-03_11h22.42.863,vbt_B2_day2,2022.2.4,Win32,60.3682463,,,,,,,,,,,,,,,,,,,,,,,,,,,down,0,6.8276,,0.116666653,-0.145370413,1,0,0,2.267,0,76,76,23,1,zout,images/br_zout.png,images/cb_zout.png,0,,,,,,,,,,,,,,,,,,,,,,
,,,,,,00093,2023-11-03_11h22.42.863,vbt_B2_day2,2022.2.4,Win32,60.3682463,,,,,,,,,,,,,,,,,,,,,,,,,,,down,0,4.6882,,0.116666653,-0.145370413,1,0,0,0.5832,0,77,77,49,1,laken,images/br_laken.png,images/cb_laken.png,0,,,,,,,,,,,,,,,,,,,,,,
,,,,,,00093,2023-11-03_11h22.42.863,vbt_B2_day2,2022.2.4,Win32,60.3682463,,,,,,,,,,,,,,,,,,,,,,,,,,,down,0,17.0061,,0.116666653,-0.145370413,1,0,0,0.6333,0,78,78,181,1,toegeven,images/br_toegeven.png,images/cb_toegeven.png,0,,,,,,,,,,,,,,,,,,,,,,
,,,,,,00093,2023-11-03_11h22.42.863,vbt_B2_day2,2022.2.4,Win32,60.3682463,,,,,,,,,,,,,,,,,,,,,,,,,,,down,0,7.7842,,0.116666653,-0.145370413,1,0,0,0.6661,0,79,79,172,1,weigeren,images/br_weigeren.png,images/cb_weigeren.png,0,,,,,,,,,,,,,,,,,,,,,,
,,,,,,00093,2023-11-03_11h22.42.863,vbt_B2_day2,2022.2.4,Win32,60.3682463,,,,,,,,,,,,,,,,,,,,,,,,,,,down,0,1.5013,,0.116666653,-0.145370413,1,0,0,0.6324,0,80,80,132,1,grappen,images/br_grappen.png,images/cb_grappen.png,0,,,,,,,,,,,,,,,,,,,,,,
,,,,,,00093,2023-11-03_11h22.42.863,vbt_B2_day2,2022.2.4,Win32,60.3682463,,,,,,,,,,,,,,,,,,,,,,,,,,,down,0,2.9962,,0.116666653,-0.145370413,1,0,0,0.5008,0,81,81,24,1,jurk,images/br_jurk.png,images/cb_jurk.png,0,,,,,,,,,,,,,,,,,,,,,,
,,,,,,00093,2023-11-03_11h22.42.863,vbt_B2_day2,2022.2.4,Win32,60.3682463,,,,,,,,,,,,,,,,,,,,,,,,,,,down,0,1.3999,,0.116666653,-0.145370413,1,0,0,0.5494,0,82,82,113,1,koppen,images/br_koppen.png,images/cb_koppen.png,0,,,,,,,,,,,,,,,,,,,,,,
,,,,,,00093,2023-11-03_11h22.42.863,vbt_B2_day2,2022.2.4,Win32,60.3682463,,,,,,,,,,,,,,,,,,,,,,,,,,,down,0,0.389,,0.116666653,-0.145370413,1,0,0,0.4664,0,83,83,13,1,kaal,images/br_kaal.png,images/cb_kaal.png,0,,,,,,,,,,,,,,,,,,,,,,
,,,,,,00093,2023-11-03_11h22.42.863,vbt_B2_day2,2022.2.4,Win32,60.3682463,,,,,,,,,,,,,,,,,,,,,,,,,,,down,0,6.0512,,0.116666653,-0.145370413,1,0,0,0.5828,0,84,84,80,1,kanjer,images/br_kanjer.png,images/cb_kanjer.png,0,,,,,,,,,,,,,,,,,,,,,,
,,,,,,00093,2023-11-03_11h22.42.863,vbt_B2_day2,2022.2.4,Win32,60.3682463,,,,,,,,,,,,,,,,,,,,,,,,,,,down,0,1.1426,,0.116666653,-0.145370413,1,0,0,0.5521,0,85,85,35,1,lust,images/br_lust.png,images/cb_lust.png,0,,,,,,,,,,,,,,,,,,,,,,
,,,,,,00093,2023-11-03_11h22.42.863,vbt_B2_day2,2022.2.4,Win32,60.3682463,,,,,,,,,,,,,,,,,,,,,,,,,,,down,0,5.9396,,0.116666653,-0.145370413,1,0,0,0.4332,0,86,86,8,1,knie,images/br_knie.png,images/cb_knie.png,0,,,,,,,,,,,,,,,,,,,,,,
,,,,,,00093,2023-11-03_11h22.42.863,vbt_B2_day2,2022.2.4,Win32,60.3682463,,,,,,,,,,,,,,,,,,,,,,,,,,,down,0,1.6402,,0.116666653,-0.145370413,1,0,0,2.6998,0,87,87,9,1,hier,images/br_hier.png,images/cb_hier.png,0,,,,,,,,,,,,,,,,,,,,,,
,,,,,,00093,2023-11-03_11h22.42.863,vbt_B2_day2,2022.2.4,Win32,60.3682463,,,,,,,,,,,,,,,,,,,,,,,,,,,down,0,4.8175,,0.116666653,-0.145370413,1,0,0,0.5998,0,88,88,128,1,prikken,images/br_prikken.png,images/cb_prikken.png,0,,,,,,,,,,,,,,,,,,,,,,
,,,,,,00093,2023-11-03_11h22.42.863,vbt_B2_day2,2022.2.4,Win32,60.3682463,,,,,,,,,,,,,,,,,,,,,,,,,,,down,0,2.305,,0.116666653,-0.145370413,1,0,0,0.5666,0,89,89,69,1,waken,images/br_waken.png,images/cb_waken.png,0,,,,,,,,,,,,,,,,,,,,,,
,,,,,,00093,2023-11-03_11h22.42.863,vbt_B2_day2,2022.2.4,Win32,60.3682463,,,,,,,,,,,,,,,,,,,,,,,,,,,down,0,9.7009,,0.116666653,-0.145370413,1,0,0,0.7331,0,90,90,85,1,heilig,images/br_heilig.png,images/cb_heilig.png,0,,,,,,,,,,,,,,,,,,,,,,
,,,,,,00093,2023-11-03_11h22.42.863,vbt_B2_day2,2022.2.4,Win32,60.3682463,,,,,,,,,,,,,,,,,,,,,,,,,,,down,0,8.5268,,0.116666653,-0.145370413,1,0,0,2.8493,0,91,91,168,1,bisschop,images/br_bisschop.png,images/cb_bisschop.png,0,,,,,,,,,,,,,,,,,,,,,,
,,,,,,00093,2023-11-03_11h22.42.863,vbt_B2_day2,2022.2.4,Win32,60.3682463,,,,,,,,,,,,,,,,,,,,,,,,,,,down,0,0.5173,,0.116666653,-0.145370413,1,0,0,0.5994,0,92,92,112,1,lukken,images/br_lukken.png,images/cb_lukken.png,0,,,,,,,,,,,,,,,,,,,,,,
,,,,,,00093,2023-11-03_11h22.42.863,vbt_B2_day2,2022.2.4,Win32,60.3682463,,,,,,,,,,,,,,,,,,,,,,,,,,,down,0,2.8557,,0.116666653,-0.145370413,1,0,0,0.6683,0,93,93,53,1,baron,images/br_baron.png,images/cb_baron.png,0,,,,,,,,,,,,,,,,,,,,,,
,,,,,,00093,2023-11-03_11h22.42.863,vbt_B2_day2,2022.2.4,Win32,60.3682463,,,,,,,,,,,,,,,,,,,,,,,,,,,down,0,1.1611,,0.116666653,-0.145370413,1,0,0,0.6356,0,94,94,5,1,blad,images/br_blad.png,images/cb_blad.png,0,,,,,,,,,,,,,,,,,,,,,,
,,,,,,00093,2023-11-03_11h22.42.863,vbt_B2_day2,2022.2.4,Win32,60.3682463,,,,,,,,,,,,,,,,,,,,,,,,,,,down,0,2.0261,,0.116666653,-0.145370413,1,0,0,0.5191,0,95,95,50,1,stoom,images/br_stoom.png,images/cb_stoom.png,0,,,,,,,,,,,,,,,,,,,,,,
,,,,,,00093,2023-11-03_11h22.42.863,vbt_B2_day2,2022.2.4,Win32,60.3682463,,,,,,,,,,,,,,,,,,,,,,,,,,,down,0,3.8667,,0.116666653,-0.145370413,1,0,0,0.5171,0,96,96,100,1,geduld,images/br_geduld.png,images/cb_geduld.png,0,,,,,,,,,,,,,,,,,,,,,,
,,,,,,00093,2023-11-03_11h22.42.863,vbt_B2_day2,2022.2.4,Win32,60.3682463,,,,,,,,,,,,,,,,,,,,,,,,,,,down,0,6.8273,,0.116666653,-0.145370413,1,0,0,1.1165,0,97,97,106,1,zingen,images/br_zingen.png,images/cb_zingen.png,0,,,,,,,,,,,,,,,,,,,,,,
,,,,,,00093,2023-11-03_11h22.42.863,vbt_B2_day2,2022.2.4,Win32,60.3682463,,,,,,,,,,,,,,,,,,,,,,,,,,,down,0,5.066,,0.116666653,-0.145370413,1,0,0,0.6002,0,98,98,33,1,vlek,images/br_vlek.png,images/cb_vlek.png,0,,,,,,,,,,,,,,,,,,,,,,
,,,,,,00093,2023-11-03_11h22.42.863,vbt_B2_day2,2022.2.4,Win32,60.3682463,,,,,,,,,,,,,,,,,,,,,,,,,,,down,0,3.1497,,0.116666653,-0.145370413,1,0,0,0.502,0,99,99,114,1,vullen,images/br_vullen.png,images/cb_vullen.png,0,,,,,,,,,,,,,,,,,,,,,,
,,,,,,00093,2023-11-03_11h22.42.863,vbt_B2_day2,2022.2.4,Win32,60.3682463,,,,,,,,,,,,,,,,,,,,,,,,,,,down,0,3.9195,,0.116666653,-0.145370413,1,0,0,0.6331,0,100,100,40,1,schep,images/br_schep.png,images/cb_schep.png,0,,,,,,,,,,,,,,,,,,,,,,
,,,,,,00093,2023-11-03_11h22.42.863,vbt_B2_day2,2022.2.4,Win32,60.3682463,,,,,,,,,,,,,,,,,,,,,,,,,,,down,0,2.9216,,0.116666653,-0.145370413,1,0,0,0.6665,0,101,101,15,1,soda,images/br_soda.png,images/cb_soda.png,0,,,,,,,,,,,,,,,,,,,,,,
,,,,,,00093,2023-11-03_11h22.42.863,vbt_B2_day2,2022.2.4,Win32,60.3682463,,,,,,,,,,,,,,,,,,,,,,,,,,,down,0,5.2242,,0.116666653,-0.145370413,1,0,0,2.0166,0,102,102,98,1,kreeft,images/br_kreeft.png,images/cb_kreeft.png,1,kreeft,,,,,,,,,,,,,,,,,,,,,
,,,,,,00093,2023-11-03_11h22.42.863,vbt_B2_day2,2022.2.4,Win32,60.3682463,,,,,,,,,,,,,,,,,,,,,,,,,,,down,0,12.5461,,0.116666653,-0.145370413,1,0,0,1.2002,0,103,103,185,1,mijnheer,images/br_mijnheer.png,images/cb_mijnheer.png,0,,,,,,,,,,,,,,,,,,,,,,
,,,,,,00093,2023-11-03_11h22.42.863,vbt_B2_day2,2022.2.4,Win32,60.3682463,,,,,,,,,,,,,,,,,,,,,,,,,,,down,0,5.1917,,0.116666653,-0.145370413,1,0,0,0.6333,0,104,104,197,1,spanning,images/br_spanning.png,images/cb_spanning.png,0,,,,,,,,,,,,,,,,,,,,,,
,,,,,,00093,2023-11-03_11h22.42.863,vbt_B2_day2,2022.2.4,Win32,60.3682463,,,,,,,,,,,,,,,,,,,,,,,,,,,down,0,7.3501,,0.116666653,-0.145370413,1,0,0,0.7161,0,105,105,153,1,vervoer,images/br_vervoer.png,images/cb_vervoer.png,0,,,,,,,,,,,,,,,,,,,,,,
,,,,,,00093,2023-11-03_11h22.42.863,vbt_B2_day2,2022.2.4,Win32,60.3682463,,,,,,,,,,,,,,,,,,,,,,,,,,,down,0,0.9743,,0.116666653,-0.145370413,1,0,0,0.7661,0,106,106,18,1,blik,images/br_blik.png,images/cb_blik.png,1,blik,,,,,,,,,,,,,,,,,,,,,
,,,,,,00093,2023-11-03_11h22.42.863,vbt_B2_day2,2022.2.4,Win32,60.3682463,,,,,,,,,,,,,,,,,,,,,,,,,,,down,0,3.8738,,0.116666653,-0.145370413,1,0,0,1.0525,0,107,107,55,1,praat,images/br_praat.png,images/cb_praat.png,0,,,,,,,,,,,,,,,,,,,,,,
,,,,,,00093,2023-11-03_11h22.42.863,vbt_B2_day2,2022.2.4,Win32,60.3682463,,,,,,,,,,,,,,,,,,,,,,,,,,,down,0,11.6551,,0.116666653,-0.145370413,1,0,0,0.8169,0,108,108,92,1,geheim,images/br_geheim.png,images/cb_geheim.png,0,,,,,,,,,,,,,,,,,,,,,,
,,,,,,00093,2023-11-03_11h22.42.863,vbt_B2_day2,2022.2.4,Win32,60.3682463,,,,,,,,,,,,,,,,,,,,,,,,,,,down,0,5.887,,0.116666653,-0.145370413,1,0,0,0.4999,0,109,109,51,1,samen,images/br_samen.png,images/cb_samen.png,0,,,,,,,,,,,,,,,,,,,,,,
,,,,,,00093,2023-11-03_11h22.42.863,vbt_B2_day2,2022.2.4,Win32,60.3682463,,,,,,,,,,,,,,,,,,,,,,,,,,,down,0,4.8752,,0.116666653,-0.145370413,1,0,0,0.516,0,110,110,91,1,gezond,images/br_gezond.png,images/cb_gezond.png,0,,,,,,,,,,,,,,,,,,,,,,
,,,,,,00093,2023-11-03_11h22.42.863,vbt_B2_day2,2022.2.4,Win32,60.3682463,,,,,,,,,,,,,,,,,,,,,,,,,,,down,0,14.2333,,0.116666653,-0.145370413,1,0,0,2.7159,0,111,111,20,1,site,images/br_site.png,images/cb_site.png,0,,,,,,,,,,,,,,,,,,,,,,
,,,,,,00093,2023-11-03_11h22.42.863,vbt_B2_day2,2022.2.4,Win32,60.3682463,,,,,,,,,,,,,,,,,,,,,,,,,,,down,0,2.0444,,0.116666653,-0.145370413,1,0,0,0.466,0,112,112,54,1,gebit,images/br_gebit.png,images/cb_gebit.png,0,,,,,,,,,,,,,,,,,,,,,,
,,,,,,00093,2023-11-03_11h22.42.863,vbt_B2_day2,2022.2.4,Win32,60.3682463,,,,,,,,,,,,,,,,,,,,,,,,,,,down,0,10.2701,,0.116666653,-0.145370413,1,0,0,0.566,0,113,113,41,1,maken,images/br_maken.png,images/cb_maken.png,0,,,,,,,,,,,,,,,,,,,,,,
,,,,,,00093,2023-11-03_11h22.42.863,vbt_B2_day2,2022.2.4,Win32,60.3682463,,,,,,,,,,,,,,,,,,,,,,,,,,,down,0,4.2858,,0.116666653,-0.145370413,1,0,0,0.3997,0,114,114,188,1,strekken,images/br_strekken.png,images/cb_strekken.png,0,,,,,,,,,,,,,,,,,,,,,,
,,,,,,00093,2023-11-03_11h22.42.863,vbt_B2_day2,2022.2.4,Win32,60.3682463,,,,,,,,,,,,,,,,,,,,,,,,,,,down,0,0.6251,,0.116666653,-0.145370413,1,0,0,0.5335,0,115,115,42,1,bleek,images/br_bleek.png,images/cb_bleek.png,0,,,,,,,,,,,,,,,,,,,,,,
,,,,,,00093,2023-11-03_11h22.42.863,vbt_B2_day2,2022.2.4,Win32,60.3682463,,,,,,,,,,,,,,,,,,,,,,,,,,,down,0,2.2715,,0.116666653,-0.145370413,1,0,0,0.6019,0,116,116,89,1,slapen,images/br_slapen.png,images/cb_slapen.png,0,,,,,,,,,,,,,,,,,,,,,,
,,,,,,00093,2023-11-03_11h22.42.863,vbt_B2_day2,2022.2.4,Win32,60.3682463,,,,,,,,,,,,,,,,,,,,,,,,,,,down,0,0.9847,,0.116666653,-0.145370413,1,0,0,0.483,0,117,117,39,1,laag,images/br_laag.png,images/cb_laag.png,0,,,,,,,,,,,,,,,,,,,,,,
,,,,,,00093,2023-11-03_11h22.42.863,vbt_B2_day2,2022.2.4,Win32,60.3682463,,,,,,,,,,,,,,,,,,,,,,,,,,,down,0,5.9045,,0.116666653,-0.145370413,1,0,0,0.5328,0,118,118,123,1,hiervan,images/br_hiervan.png,images/cb_hiervan.png,0,,,,,,,,,,,,,,,,,,,,,,
,,,,,,00093,2023-11-03_11h22.42.863,vbt_B2_day2,2022.2.4,Win32,60.3682463,,,,,,,,,,,,,,,,,,,,,,,,,,,down,0,2.7774,,0.116666653,-0.145370413,1,0,0,0.5162,0,119,119,4,1,moes,images/br_moes.png,images/cb_moes.png,0,,,,,,,,,,,,,,,,,,,,,,
,,,,,,00093,2023-11-03_11h22.42.863,vbt_B2_day2,2022.2.4,Win32,60.3682463,,,,,,,,,,,,,,,,,,,,,,,,,,,down,0,7.0996,,0.116666653,-0.145370413,1,0,0,0.7494,0,120,120,108,1,excuus,images/br_excuus.png,images/cb_excuus.png,0,,,,,,,,,,,,,,,,,,,,,,
,,,,,,00093,2023-11-03_11h22.42.863,vbt_B2_day2,2022.2.4,Win32,60.3682463,,,,,,,,,,,,,,,,,,,,,,,,,,,down,0,6.1853,,0.116666653,-0.145370413,1,0,0,0.4657,0,121,121,37,1,mijn,images/br_mijn.png,images/cb_mijn.png,0,,,,,,,,,,,,,,,,,,,,,,
,,,,,,00093,2023-11-03_11h22.42.863,vbt_B2_day2,2022.2.4,Win32,60.3682463,,,,,,,,,,,,,,,,,,,,,,,,,,,down,0,0.8128,,0.116666653,-0.145370413,1,0,0,0.784,0,122,122,17,1,taal,images/br_taal.png,images/cb_taal.png,1,taal,,,,,,,,,,,,,,,,,,,,,
,,,,,,00093,2023-11-03_11h22.42.863,vbt_B2_day2,2022.2.4,Win32,60.3682463,,,,,,,,,,,,,,,,,,,,,,,,,,,down,0,2.8374,,0.116666653,-0.145370413,1,0,0,0.6172,0,123,123,175,1,heengaan,images/br_heengaan.png,images/cb_heengaan.png,0,,,,,,,,,,,,,,,,,,,,,,
,,,,,,00093,2023-11-03_11h22.42.863,vbt_B2_day2,2022.2.4,Win32,60.3682463,,,,,,,,,,,,,,,,,,,,,,,,,,,down,0,5.1499,,0.116666653,-0.145370413,1,0,0,0.5328,0,124,124,143,1,hechten,images/br_hechten.png,images/cb_hechten.png,0,,,,,,,,,,,,,,,,,,,,,,
,,,,,,00093,2023-11-03_11h22.42.863,vbt_B2_day2,2022.2.4,Win32,60.3682463,,,,,,,,,,,,,,,,,,,,,,,,,,,down,0,6.9393,,0.116666653,-0.145370413,1,0,0,0.6332,0,125,125,116,1,besmet,images/br_besmet.png,images/cb_besmet.png,0,,,,,,,,,,,,,,,,,,,,,,
,,,,,,00093,2023-11-03_11h22.42.863,vbt_B2_day2,2022.2.4,Win32,60.3682463,,,,,,,,,,,,,,,,,,,,,,,,,,,down,0,3.6022,,0.116666653,-0.145370413,1,0,0,0.5834,0,126,126,68,1,schat,images/br_schat.png,images/cb_schat.png,0,,,,,,,,,,,,,,,,,,,,,,
,,,,,,00093,2023-11-03_11h22.42.863,vbt_B2_day2,2022.2.4,Win32,60.3682463,,,,,,,,,,,,,,,,,,,,,,,,,,,down,0,20.3825,,0.116666653,-0.145370413,1,0,0,2.0658,0,127,127,180,1,openbaar,images/br_openbaar.png,images/cb_openbaar.png,0,,,,,,,,,,,,,,,,,,,,,,
,,,,,,00093,2023-11-03_11h22.42.863,vbt_B2_day2,2022.2.4,Win32,60.3682463,,,,,,,,,,,,,,,,,,,,,,,,,,,down,0,2.3743,,0.116666653,-0.145370413,1,0,0,0.4501,0,128,128,79,1,nodig,images/br_nodig.png,images/cb_nodig.png,0,,,,,,,,,,,,,,,,,,,,,,
,,,,,,00093,2023-11-03_11h22.42.863,vbt_B2_day2,2022.2.4,Win32,60.3682463,,,,,,,,,,,,,,,,,,,,,,,,,,,down,0,2.86,,0.116666653,-0.145370413,1,0,0,0.5332,0,129,129,189,1,aanraden,images/br_aanraden.png,images/cb_aanraden.png,0,,,,,,,,,,,,,,,,,,,,,,
,,,,,,00093,2023-11-03_11h22.42.863,vbt_B2_day2,2022.2.4,Win32,60.3682463,,,,,,,,,,,,,,,,,,,,,,,,,,,down,0,1.6405,,0.116666653,-0.145370413,1,0,0,0.4833,0,130,130,6,1,diep,images/br_diep.png,images/cb_diep.png,0,,,,,,,,,,,,,,,,,,,,,,
,,,,,,00093,2023-11-03_11h22.42.863,vbt_B2_day2,2022.2.4,Win32,60.3682463,,,,,,,,,,,,,,,,,,,,,,,,,,,down,0,8.1848,,0.116666653,-0.145370413,1,0,0,0.4668,0,131,131,73,1,volop,images/br_volop.png,images/cb_volop.png,0,,,,,,,,,,,,,,,,,,,,,,
,,,,,,00093,2023-11-03_11h22.42.863,vbt_B2_day2,2022.2.4,Win32,60.3682463,,,,,,,,,,,,,,,,,,,,,,,,,,,down,0,11.6173,,0.116666653,-0.145370413,1,0,0,0.4659,0,132,132,45,1,piste,images/br_piste.png,images/cb_piste.png,0,,,,,,,,,,,,,,,,,,,,,,
,,,,,,00093,2023-11-03_11h22.42.863,vbt_B2_day2,2022.2.4,Win32,60.3682463,,,,,,,,,,,,,,,,,,,,,,,,,,,down,0,2.9509,,0.116666653,-0.145370413,1,0,0,1.0493,0,133,133,83,1,mening,images/br_mening.png,images/cb_mening.png,0,,,,,,,,,,,,,,,,,,,,,,
,,,,,,00093,2023-11-03_11h22.42.863,vbt_B2_day2,2022.2.4,Win32,60.3682463,,,,,,,,,,,,,,,,,,,,,,,,,,,down,0,15.7981,,0.116666653,-0.145370413,1,0,0,0.5493,0,134,134,110,1,zuster,images/br_zuster.png,images/cb_zuster.png,0,,,,,,,,,,,,,,,,,,,,,,
,,,,,,00093,2023-11-03_11h22.42.863,vbt_B2_day2,2022.2.4,Win32,60.3682463,,,,,,,,,,,,,,,,,,,,,,,,,,,down,0,10.8613,,0.116666653,-0.145370413,1,0,0,0.6502,0,135,135,158,1,innemen,images/br_innemen.png,images/cb_innemen.png,0,,,,,,,,,,,,,,,,,,,,,,
,,,,,,00093,2023-11-03_11h22.42.863,vbt_B2_day2,2022.2.4,Win32,60.3682463,,,,,,,,,,,,,,,,,,,,,,,,,,,down,0,3.3452,,0.116666653,-0.145370413,1,0,0,0.4994,0,136,136,160,1,daarheen,images/br_daarheen.png,images/cb_daarheen.png,0,,,,,,,,,,,,,,,,,,,,,,
,,,,,,00093,2023-11-03_11h22.42.863,vbt_B2_day2,2022.2.4,Win32,60.3682463,,,,,,,,,,,,,,,,,,,,,,,,,,,down,0,12.2745,,0.116666653,-0.145370413,1,0,0,0.6334,0,137,137,164,1,anarchie,images/br_anarchie.png,images/cb_anarchie.png,0,,,,,,,,,,,,,,,,,,,,,,
,,,,,,00093,2023-11-03_11h22.42.863,vbt_B2_day2,2022.2.4,Win32,60.3682463,,,,,,,,,,,,,,,,,,,,,,,,,,,down,0,5.5254,,0.116666653,-0.145370413,1,0,0,0.533,0,138,138,192,1,schaamte,images/br_schaamte.png,images/cb_schaamte.png,0,,,,,,,,,,,,,,,,,,,,,,
,,,,,,00093,2023-11-03_11h22.42.863,vbt_B2_day2,2022.2.4,Win32,60.3682463,,,,,,,,,,,,,,,,,,,,,,,,,,,down,0,0.9389,,0.116666653,-0.145370413,1,0,0,0.5162,0,139,139,1,1,zaal,images/br_zaal.png,images/cb_zaal.png,0,,,,,,,,,,,,,,,,,,,,,,
,,,,,,00093,2023-11-03_11h22.42.863,vbt_B2_day2,2022.2.4,Win32,60.3682463,,,,,,,,,,,,,,,,,,,,,,,,,,,down,0,1.0358,,0.116666653,-0.145370413,1,0,0,0.6498,0,140,140,126,1,kasteel,images/br_kasteel.png,images/cb_kasteel.png,0,,,,,,,,,,,,,,,,,,,,,,
,,,,,,00093,2023-11-03_11h22.42.863,vbt_B2_day2,2022.2.4,Win32,60.3682463,,,,,,,,,,,,,,,,,,,,,,,,,,,down,0,10.6659,,0.116666653,-0.145370413,0,0,1,0.5336,0,141,141,167,1,eenhoorn,images/br_eenhoorn.png,images/cb_eenhoorn.png,0,,,,,,,,,,,,,,,,,,,,,,
,,,,,,00093,2023-11-03_11h22.42.863,vbt_B2_day2,2022.2.4,Win32,60.3682463,,,,,,,,,,,,,,,,,,,,,,,,,,,down,0,4.7301,,0.011111153,-0.150000042,1,0,0,0.484,0,142,142,66,1,lever,images/br_lever.png,images/cb_lever.png,0,,,,,,,,,,,,,,,,,,,,,,
,,,,,,00093,2023-11-03_11h22.42.863,vbt_B2_day2,2022.2.4,Win32,60.3682463,,,,,,,,,,,,,,,,,,,,,,,,,,,down,0,2.523,,0.011111153,-0.150000042,1,0,0,0.5999,0,143,143,193,1,weeshuis,images/br_weeshuis.png,images/cb_weeshuis.png,0,,,,,,,,,,,,,,,,,,,,,,
,,,,,,00093,2023-11-03_11h22.42.863,vbt_B2_day2,2022.2.4,Win32,60.3682463,,,,,,,,,,,,,,,,,,,,,,,,,,,down,0,1.4865,,0.011111153,-0.150000042,1,0,0,2.2335,0,144,144,125,1,aanzien,images/br_aanzien.png,images/cb_aanzien.png,0,,,,,,,,,,,,,,,,,,,,,,
,,,,,,00093,2023-11-03_11h22.42.863,vbt_B2_day2,2022.2.4,Win32,60.3682463,,,,,,,,,,,,,,,,,,,,,,,,,,,down,0,4.8008,,0.011111153,-0.150000042,1,0,0,0.5634,0,145,145,44,1,flits,images/br_flits.png,images/cb_flits.png,0,,,,,,,,,,,,,,,,,,,,,,
,,,,,,00093,2023-11-03_11h22.42.863,vbt_B2_day2,2022.2.4,Win32,60.3682463,,,,,,,,,,,,,,,,,,,,,,,,,,,down,0,5.0379,,0.011111153,-0.150000042,1,0,0,0.6525,0,146,146,177,1,maaltijd,images/br_maaltijd.png,images/cb_maaltijd.png,1,maaltijd,,,,,,,,,,,,,,,,,,,,,
,,,,,,00093,2023-11-03_11h22.42.863,vbt_B2_day2,2022.2.4,Win32,60.3682463,,,,,,,,,,,,,,,,,,,,,,,,,,,down,0,3.6838,,0.011111153,-0.150000042,1,0,0,0.4833,0,147,147,61,1,groen,images/br_groen.png,images/cb_groen.png,0,,,,,,,,,,,,,,,,,,,,,,
,,,,,,00093,2023-11-03_11h22.42.863,vbt_B2_day2,2022.2.4,Win32,60.3682463,,,,,,,,,,,,,,,,,,,,,,,,,,,down,0,5.1712,,0.011111153,-0.150000042,1,0,0,0.5166,0,148,148,150,1,gegeven,images/br_gegeven.png,images/cb_gegeven.png,0,,,,,,,,,,,,,,,,,,,,,,
,,,,,,00093,2023-11-03_11h22.42.863,vbt_B2_day2,2022.2.4,Win32,60.3682463,,,,,,,,,,,,,,,,,,,,,,,,,,,down,0,3.411,,0.011111153,-0.150000042,1,0,0,0.5498,0,149,149,99,1,koffie,images/br_koffie.png,images/cb_koffie.png,1,koffie,,,,,,,,,,,,,,,,,,,,,
,,,,,,00093,2023-11-03_11h22.42.863,vbt_B2_day2,2022.2.4,Win32,60.3682463,,,,,,,,,,,,,,,,,,,,,,,,,,,down,0,4.1047,,0.011111153,-0.150000042,1,0,0,0.5836,0,150,150,58,1,tekst,images/br_tekst.png,images/cb_tekst.png,1,,,,,,,,,,,,,,,,,,,,,,
,,,,,,00093,2023-11-03_11h22.42.863,vbt_B2_day2,2022.2.4,Win32,60.3682463,,,,,,,,,,,,,,,,,,,,,,,,,,,down,0,12.6757,,0.031481496,-0.156481496,1,0,0,1.6182,0,151,151,105,1,wijlen,images/br_wijlen.png,images/cb_wijlen.png,0,,,,,,,,,,,,,,,,,,,,,,
,,,,,,00093,2023-11-03_11h22.42.863,vbt_B2_day2,2022.2.4,Win32,60.3682463,,,,,,,,,,,,,,,,,,,,,,,,,,,down,0,3.6068,,0.031481496,-0.156481496,1,0,0,0.5831,0,152,152,169,1,oprotten,images/br_oprotten.png,images/cb_oprotten.png,0,,,,,,,,,,,,,,,,,,,,,,
,,,,,,00093,2023-11-03_11h22.42.863,vbt_B2_day2,2022.2.4,Win32,60.3682463,,,,,,,,,,,,,,,,,,,,,,,,,,,down,0,6.6059,,0.031481496,-0.156481496,1,0,0,0.4661,0,153,153,166,1,strikken,images/br_strikken.png,images/cb_strikken.png,0,,,,,,,,,,,,,,,,,,,,,,
,,,,,,00093,2023-11-03_11h22.42.863,vbt_B2_day2,2022.2.4,Win32,60.3682463,,,,,,,,,,,,,,,,,,,,,,,,,,,down,0,1.4337,,0.031481496,-0.156481496,1,0,0,2.6999,0,154,154,57,1,steek,images/br_steek.png,images/cb_steek.png,1,staak,,,,,,,,,,,,,,,,,,,,,
,,,,,,00093,2023-11-03_11h22.42.863,vbt_B2_day2,2022.2.4,Win32,60.3682463,,,,,,,,,,,,,,,,,,,,,,,,,,,down,0,6.476,,0.031481496,-0.156481496,1,0,0,0.4834,0,155,155,183,1,getuigen,images/br_getuigen.png,images/cb_getuigen.png,0,,,,,,,,,,,,,,,,,,,,,,
,,,,,,00093,2023-11-03_11h22.42.863,vbt_B2_day2,2022.2.4,Win32,60.3682463,,,,,,,,,,,,,,,,,,,,,,,,,,,down,0,9.1956,,0.031481496,-0.156481496,1,0,0,0.5162,0,156,156,199,1,beseffen,images/br_beseffen.png,images/cb_beseffen.png,0,,,,,,,,,,,,,,,,,,,,,,
,,,,,,00093,2023-11-03_11h22.42.863,vbt_B2_day2,2022.2.4,Win32,60.3682463,,,,,,,,,,,,,,,,,,,,,,,,,,,down,0,1.2632,,0.031481496,-0.156481496,1,0,0,0.5006,0,157,157,36,1,vuur,images/br_vuur.png,images/cb_vuur.png,0,,,,,,,,,,,,,,,,,,,,,,
,,,,,,00093,2023-11-03_11h22.42.863,vbt_B2_day2,2022.2.4,Win32,60.3682463,,,,,,,,,,,,,,,,,,,,,,,,,,,down,0,1.0689,,0.031481496,-0.156481496,1,0,0,0.4664,0,158,158,28,1,stal,images/br_stal.png,images/cb_stal.png,0,,,,,,,,,,,,,,,,,,,,,,
,,,,,,00093,2023-11-03_11h22.42.863,vbt_B2_day2,2022.2.4,Win32,60.3682463,,,,,,,,,,,,,,,,,,,,,,,,,,,down,0,2.1497,,0.031481496,-0.156481496,1,0,0,0.4827,0,159,159,146,1,opkomen,images/br_opkomen.png,images/cb_opkomen.png,0,,,,,,,,,,,,,,,,,,,,,,
,,,,,,00093,2023-11-03_11h22.42.863,vbt_B2_day2,2022.2.4,Win32,60.3682463,,,,,,,,,,,,,,,,,,,,,,,,,,,down,0,2.2005,,0.031481496,-0.156481496,1,0,0,0.7474,0,160,160,149,1,redding,images/br_redding.png,images/cb_redding.png,0,,,,,,,,,,,,,,,,,,,,,,
,,,,,,00093,2023-11-03_11h22.42.863,vbt_B2_day2,2022.2.4,Win32,60.3682463,,,,,,,,,,,,,,,,,,,,,,,,,,,down,0,11.7729,,0.031481496,-0.156481496,1,0,0,0.4993,0,161,161,111,1,ticket,images/br_ticket.png,images/cb_ticket.png,0,,,,,,,,,,,,,,,,,,,,,,
,,,,,,00093,2023-11-03_11h22.42.863,vbt_B2_day2,2022.2.4,Win32,60.3682463,,,,,,,,,,,,,,,,,,,,,,,,,,,down,0,2.9342,,0.031481496,-0.156481496,1,0,0,0.5662,0,162,162,97,1,loyaal,images/br_loyaal.png,images/cb_loyaal.png,1,loyaal,,,,,,,,,,,,,,,,,,,,,
,,,,,,00093,2023-11-03_11h22.42.863,vbt_B2_day2,2022.2.4,Win32,60.3682463,,,,,,,,,,,,,,,,,,,,,,,,,,,down,0,3.377,,0.031481496,-0.156481496,1,0,0,0.4521,0,163,163,63,1,flirt,images/br_flirt.png,images/cb_flirt.png,0,,,,,,,,,,,,,,,,,,,,,,
,,,,,,00093,2023-11-03_11h22.42.863,vbt_B2_day2,2022.2.4,Win32,60.3682463,,,,,,,,,,,,,,,,,,,,,,,,,,,down,0,8.5744,,0.031481496,-0.156481496,1,0,0,0.5334,0,164,164,179,1,woestijn,images/br_woestijn.png,images/cb_woestijn.png,1,woestijn,,,,,,,,,,,,,,,,,,,,,
,,,,,,00093,2023-11-03_11h22.42.863,vbt_B2_day2,2022.2.4,Win32,60.3682463,,,,,,,,,,,,,,,,,,,,,,,,,,,down,0,3.3725,,0.031481496,-0.156481496,1,0,0,1.3827,0,165,165,71,1,bever,images/br_bever.png,images/cb_bever.png,0,,,,,,,,,,,,,,,,,,,,,,
,,,,,,00093,2023-11-03_11h22.42.863,vbt_B2_day2,2022.2.4,Win32,60.3682463,,,,,,,,,,,,,,,,,,,,,,,,,,,down,0,6.9183,,0.031481496,-0.156481496,1,0,0,0.5833,0,166,166,195,1,middelen,images/br_middelen.png,images/cb_middelen.png,0,,,,,,,,,,,,,,,,,,,,,,
,,,,,,00093,2023-11-03_11h22.42.863,vbt_B2_day2,2022.2.4,Win32,60.3682463,,,,,,,,,,,,,,,,,,,,,,,,,,,down,0,2.0908,,0.031481496,-0.156481496,1,0,0,0.8521,0,167,167,25,1,plek,images/br_plek.png,images/cb_plek.png,0,,,,,,,,,,,,,,,,,,,,,,
,,,,,,00093,2023-11-03_11h22.42.863,vbt_B2_day2,2022.2.4,Win32,60.3682463,,,,,,,,,,,,,,,,,,,,,,,,,,,down,0,17.3544,,0.031481496,-0.156481496,1,0,0,0.6831,0,168,168,130,1,keihard,images/br_keihard.png,images/cb_keihard.png,0,,,,,,,,,,,,,,,,,,,,,,
,,,,,,00093,2023-11-03_11h22.42.863,vbt_B2_day2,2022.2.4,Win32,60.3682463,,,,,,,,,,,,,,,,,,,,,,,,,,,down,0,3.1845,,0.031481496,-0.156481496,1,0,0,0.4665,0,169,169,11,1,mode,images/br_mode.png,images/cb_mode.png,0,,,,,,,,,,,,,,,,,,,,,,
,,,,,,00093,2023-11-03_11h22.42.863,vbt_B2_day2,2022.2.4,Win32,60.3682463,,,,,,,,,,,,,,,,,,,,,,,,,,,down,0,0.7102,,0.031481496,-0.156481496,1,0,0,0.55,0,170,170,0,1,slak,images/br_slak.png,images/cb_slak.png,0,,,,,,,,,,,,,,,,,,,,,,
,,,,,,00093,2023-11-03_11h22.42.863,vbt_B2_day2,2022.2.4,Win32,60.3682463,,,,,,,,,,,,,,,,,,,,,,,,,,,down,0,1.1671,,0.031481496,-0.156481496,1,0,0,0.5666,0,171,171,184,1,aandelen,images/br_aandelen.png,images/cb_aandelen.png,0,,,,,,,,,,,,,,,,,,,,,,
,,,,,,00093,2023-11-03_11h22.42.863,vbt_B2_day2,2022.2.4,Win32,60.3682463,,,,,,,,,,,,,,,,,,,,,,,,,,,down,0,3.7501,,0.031481496,-0.156481496,1,0,0,0.4332,0,172,172,186,1,voorraad,images/br_voorraad.png,images/cb_voorraad.png,0,,,,,,,,,,,,,,,,,,,,,,
,,,,,,00093,2023-11-03_11h22.42.863,vbt_B2_day2,2022.2.4,Win32,60.3682463,,,,,,,,,,,,,,,,,,,,,,,,,,,down,0,1.9393,,0.031481496,-0.156481496,1,0,0,0.4163,0,173,173,7,1,geld,images/br_geld.png,images/cb_geld.png,0,,,,,,,,,,,,,,,,,,,,,,
,,,,,,00093,2023-11-03_11h22.42.863,vbt_B2_day2,2022.2.4,Win32,60.3682463,,,,,,,,,,,,,,,,,,,,,,,,,,,down,0,1.13,,-0.015740712,-0.183333362,1,0,0,1.3672,0,174,174,48,1,steel,images/br_steel.png,images/cb_steel.png,0,,,,,,,,,,,,,,,,,,,,,,
,,,,,,00093,2023-11-03_11h22.42.863,vbt_B2_day2,2022.2.4,Win32,60.3682463,,,,,,,,,,,,,,,,,,,,,,,,,,,down,0,6.3996,,0.027777778,-0.102777764,1,0,0,1.5151,0,175,175,156,1,rechten,images/br_rechten.png,images/cb_rechten.png,0,,,,,,,,,,,,,,,,,,,,,,
,,,,,,00093,2023-11-03_11h22.42.863,vbt_B2_day2,2022.2.4,Win32,60.3682463,,,,,,,,,,,,,,,,,,,,,,,,,,,down,0,4.7093,,0.027777778,-0.102777764,1,0,0,0.5333,0,176,176,74,1,graaf,images/br_graaf.png,images/cb_graaf.png,0,,,,,,,,,,,,,,,,,,,,,,
,,,,,,00093,2023-11-03_11h22.42.863,vbt_B2_day2,2022.2.4,Win32,60.3682463,,,,,,,,,,,,,,,,,,,,,,,,,,,down,0,2.0558,,0.027777778,-0.102777764,1,0,0,0.6333,0,177,177,31,1,poes,images/br_poes.png,images/cb_poes.png,0,,,,,,,,,,,,,,,,,,,,,,
,,,,,,00093,2023-11-03_11h22.42.863,vbt_B2_day2,2022.2.4,Win32,60.3682463,,,,,,,,,,,,,,,,,,,,,,,,,,,down,0,4.1587,,0.027777778,-0.102777764,1,0,0,0.6525,0,178,178,59,1,kring,images/br_kring.png,images/cb_kring.png,1,kring,,,,,,,,,,,,,,,,,,,,,
,,,,,,00093,2023-11-03_11h22.42.863,vbt_B2_day2,2022.2.4,Win32,60.3682463,,,,,,,,,,,,,,,,,,,,,,,,,,,down,0,30.8729,,0.437037009,-0.183333362,1,0,0,0.5834,0,179,179,131,1,opzicht,images/br_opzicht.png,images/cb_opzicht.png,0,,,,,,,,,,,,,,,,,,,,,,
,,,,,,00093,2023-11-03_11h22.42.863,vbt_B2_day2,2022.2.4,Win32,60.3682463,,,,,,,,,,,,,,,,,,,,,,,,,,,down,0,5.0957,,0.437037009,-0.183333362,1,0,0,0.4669,0,180,180,133,1,seizoen,images/br_seizoen.png,images/cb_seizoen.png,0,,,,,,,,,,,,,,,,,,,,,,
,,,,,,00093,2023-11-03_11h22.42.863,vbt_B2_day2,2022.2.4,Win32,60.3682463,,,,,,,,,,,,,,,,,,,,,,,,,,,down,0,2.6504,,0.437037009,-0.183333362,1,0,0,0.4666,0,181,181,38,1,baai,images/br_baai.png,images/cb_baai.png,0,,,,,,,,,,,,,,,,,,,,,,
,,,,,,00093,2023-11-03_11h22.42.863,vbt_B2_day2,2022.2.4,Win32,60.3682463,,,,,,,,,,,,,,,,,,,,,,,,,,,down,0,2.2269,,0.437037009,-0.183333362,1,0,0,0.5001,0,182,182,78,1,leren,images/br_leren.png,images/cb_leren.png,0,,,,,,,,,,,,,,,,,,,,,,
,,,,,,00093,2023-11-03_11h22.42.863,vbt_B2_day2,2022.2.4,Win32,60.3682463,,,,,,,,,,,,,,,,,,,,,,,,,,,down,0,3.0338,,0.437037009,-0.183333362,1,0,0,0.6161,0,183,183,129,1,verhaal,images/br_verhaal.png,images/cb_verhaal.png,0,,,,,,,,,,,,,,,,,,,,,,
,,,,,,00093,2023-11-03_11h22.42.863,vbt_B2_day2,2022.2.4,Win32,60.3682463,,,,,,,,,,,,,,,,,,,,,,,,,,,down,0,2.4258,,0.437037009,-0.183333362,1,0,0,0.5161,0,184,184,148,1,smullen,images/br_smullen.png,images/cb_smullen.png,0,,,,,,,,,,,,,,,,,,,,,,
,,,,,,00093,2023-11-03_11h22.42.863,vbt_B2_day2,2022.2.4,Win32,60.3682463,,,,,,,,,,,,,,,,,,,,,,,,,,,down,0,6.1243,,0.437037009,-0.183333362,1,0,0,0.5524,0,185,185,46,1,jagen,images/br_jagen.png,images/cb_jagen.png,0,,,,,,,,,,,,,,,,,,,,,,
,,,,,,00093,2023-11-03_11h22.42.863,vbt_B2_day2,2022.2.4,Win32,60.3682463,,,,,,,,,,,,,,,,,,,,,,,,,,,down,0,1.5359,,0.437037009,-0.183333362,1,0,0,0.6164,0,186,186,122,1,waarvan,images/br_waarvan.png,images/cb_waarvan.png,0,,,,,,,,,,,,,,,,,,,,,,
,,,,,,00093,2023-11-03_11h22.42.863,vbt_B2_day2,2022.2.4,Win32,60.3682463,,,,,,,,,,,,,,,,,,,,,,,,,,,down,0,1.7146,,0.437037009,-0.183333362,1,0,0,0.4335,0,187,187,115,1,kleren,images/br_kleren.png,images/cb_kleren.png,0,,,,,,,,,,,,,,,,,,,,,,
,,,,,,00093,2023-11-03_11h22.42.863,vbt_B2_day2,2022.2.4,Win32,60.3682463,,,,,,,,,,,,,,,,,,,,,,,,,,,down,0,9.2518,,0.437037009,-0.183333362,1,0,0,1.5164,0,188,188,139,1,stiekem,images/br_stiekem.png,images/cb_stiekem.png,1,stiekem,,,,,,,,,,,,,,,,,,,,,
,,,,,,00093,2023-11-03_11h22.42.863,vbt_B2_day2,2022.2.4,Win32,60.3682463,,,,,,,,,,,,,,,,,,,,,,,,,,,down,0,2.0464,,0.437037009,-0.183333362,1,0,0,0.5337,0,189,189,14,1,rijp,images/br_rijp.png,images/cb_rijp.png,0,,,,,,,,,,,,,,,,,,,,,,
,,,,,,00093,2023-11-03_11h22.42.863,vbt_B2_day2,2022.2.4,Win32,60.3682463,,,,,,,,,,,,,,,,,,,,,,,,,,,down,0,7.3233,,0.437037009,-0.183333362,1,0,0,0.4824,0,190,190,141,1,knielen,images/br_knielen.png,images/cb_knielen.png,0,,,,,,,,,,,,,,,,,,,,,,
,,,,,,00093,2023-11-03_11h22.42.863,vbt_B2_day2,2022.2.4,Win32,60.3682463,,,,,,,,,,,,,,,,,,,,,,,,,,,down,0,0.4526,,0.437037009,-0.183333362,1,0,0,0.4338,0,191,191,21,1,mist,images/br_mist.png,images/cb_mist.png,0,,,,,,,,,,,,,,,,,,,,,,
,,,,,,00093,2023-11-03_11h22.42.863,vbt_B2_day2,2022.2.4,Win32,60.3682463,,,,,,,,,,,,,,,,,,,,,,,,,,,down,0,4.1827,,0.437037009,-0.183333362,1,0,0,0.4837,0,192,192,32,1,palm,images/br_palm.png,images/cb_palm.png,0,,,,,,,,,,,,,,,,,,,,,,
,,,,,,00093,2023-11-03_11h22.42.863,vbt_B2_day2,2022.2.4,Win32,60.3682463,,,,,,,,,,,,,,,,,,,,,,,,,,,down,0,4.9668,,0.437037009,-0.183333362,1,0,0,0.4833,0,193,193,171,1,aarzelen,images/br_aarzelen.png,images/cb_aarzelen.png,0,,,,,,,,,,,,,,,,,,,,,,
,,,,,,00093,2023-11-03_11h22.42.863,vbt_B2_day2,2022.2.4,Win32,60.3682463,,,,,,,,,,,,,,,,,,,,,,,,,,,down,0,6.2011,,0.437037009,-0.183333362,1,0,0,0.4996,0,194,194,159,1,sufferd,images/br_sufferd.png,images/cb_sufferd.png,0,,,,,,,,,,,,,,,,,,,,,,
,,,,,,00093,2023-11-03_11h22.42.863,vbt_B2_day2,2022.2.4,Win32,60.3682463,,,,,,,,,,,,,,,,,,,,,,,,,,,down,0,7.0359,,0.437037009,-0.183333362,1,0,0,0.4996,0,195,195,135,1,gedicht,images/br_gedicht.png,images/cb_gedicht.png,0,,,,,,,,,,,,,,,,,,,,,,
,,,,,,00093,2023-11-03_11h22.42.863,vbt_B2_day2,2022.2.4,Win32,60.3682463,,,,,,,,,,,,,,,,,,,,,,,,,,,down,0,4.5419,,0.437037009,-0.183333362,1,0,0,0.5165,0,196,196,76,1,afval,images/br_afval.png,images/cb_afval.png,0,,,,,,,,,,,,,,,,,,,,,,
,,,,,,00093,2023-11-03_11h22.42.863,vbt_B2_day2,2022.2.4,Win32,60.3682463,,,,,,,,,,,,,,,,,,,,,,,,,,,down,0,2.5203,,0.437037009,-0.183333362,1,0,0,0.8663,0,197,197,67,1,zwart,images/br_zwart.png,images/cb_zwart.png,0,,,,,,,,,,,,,,,,,,,,,,
,,,,,,00093,2023-11-03_11h22.42.863,vbt_B2_day2,2022.2.4,Win32,60.3682463,,,,,,,,,,,,,,,,,,,,,,,,,,,down,0,6.1566,,0.437037009,-0.183333362,1,0,0,0.7504,0,198,198,86,1,woning,images/br_woning.png,images/cb_woning.png,0,,,,,,,,,,,,,,,,,,,,,,
,,,,,,00093,2023-11-03_11h22.42.863,vbt_B2_day2,2022.2.4,Win32,60.3682463,,,,,,,,,,,,,,,,,,,,,,,,,,,down,0,18.727,,0.437037009,-0.183333362,1,0,0,0.6999,0,199,199,60,1,jasje,images/br_jasje.png,images/cb_jasje.png,0,,,,,,,,,,,,,,,,,,,,,,
,,,,,,00093,2023-11-03_11h22.42.863,vbt_B2_day2,2022.2.4,Win32,60.3682463,,,,,,,,,,,,,,,,,,,,,,,,,,,,,,,,,,,,,,,,,,,,,,,0.437037009,-0.183333362,1,0,0,,,,,,,,,,,,,,,,
,,,,,,00093,2023-11-03_11h22.42.863,vbt_B2_day2,2022.2.4,Win32,60.3682463,,,,,,,,,,,,,,,,,,,,,,,,,,,,,,,,,,,,,,,,,,,,,,,,,,,,0.437037009,-0.183333362,1,0,0,,,,,,,,,,,
,,,,,,00093,2023-11-03_11h22.42.863,vbt_B2_day2,2022.2.4,Win32,60.3682463,,,,,,,,,,,,,,,,,,,,,,,,,,,,,,,,,,,,,,,,,,dode,images/br_dode.png,images/cb_dode.png,,dode,,,,,,,,,,,0.437037009,-0.183333362,1,0,0,dode,0,0,0,41,1
,,,,,,00093,2023-11-03_11h22.42.863,vbt_B2_day2,2022.2.4,Win32,60.3682463,,,,,,,,,,,,,,,,,,,,,,,,,,,,,,,,,,,,,,,,,,anarchie,images/br_anarchie.png,images/cb_anarchie.png,,anarchie,,,,,,,,,,,0.437037009,-0.183333362,1,0,0,anarchie,0,1,1,16,1
,,,,,,00093,2023-11-03_11h22.42.863,vbt_B2_day2,2022.2.4,Win32,60.3682463,,,,,,,,,,,,,,,,,,,,,,,,,,,,,,,,,,,,,,,,,,diep,images/br_diep.png,images/cb_diep.png,,diep,,,,,,,,,,,0.437037009,-0.183333362,1,0,0,diep,0,2,2,2,1
,,,,,,00093,2023-11-03_11h22.42.863,vbt_B2_day2,2022.2.4,Win32,60.3682463,,,,,,,,,,,,,,,,,,,,,,,,,,,,,,,,,,,,,,,,,,zomers,images/br_zomers.png,images/cb_zomers.png,,zomers,,,,,,,,,,,0.437037009,-0.183333362,1,0,0,zomers,0,3,3,48,1
,,,,,,00093,2023-11-03_11h22.42.863,vbt_B2_day2,2022.2.4,Win32,60.3682463,,,,,,,,,,,,,,,,,,,,,,,,,,,,,,,,,,,,,,,,,,kenzis,images/br_kenzis.png,images/cb_kenzis.png,,kan.is,,,,,,,,,,,0.437037009,-0.183333362,1,0,0,kan.is,0,4,4,30,1
,,,,,,00093,2023-11-03_11h22.42.863,vbt_B2_day2,2022.2.4,Win32,60.3682463,,,,,,,,,,,,,,,,,,,,,,,,,,,,,,,,,,,,,,,,,,jagen,images/br_jagen.png,images/cb_jagen.png,,jagen,,,,,,,,,,,0.276851866,-0.037037037,1,0,0,jagen,0,5,5,6,1
,,,,,,00093,2023-11-03_11h22.42.863,vbt_B2_day2,2022.2.4,Win32,60.3682463,,,,,,,,,,,,,,,,,,,,,,,,,,,,,,,,,,,,,,,,,,tweeling,images/br_tweeling.png,images/cb_tweeling.png,,tweeling,,,,,,,,,,,0.323148233,-0.041666667,1,0,0,tweeling,0,6,6,58,1
,,,,,,00093,2023-11-03_11h22.42.863,vbt_B2_day2,2022.2.4,Win32,60.3682463,,,,,,,,,,,,,,,,,,,,,,,,,,,,,,,,,,,,,,,,,,piste,images/br_piste.png,images/cb_piste.png,,piste,,,,,,,,,,,0.363888917,-0.037037037,1,0,0,piste,0,7,7,5,1
,,,,,,00093,2023-11-03_11h22.42.863,vbt_B2_day2,2022.2.4,Win32,60.3682463,,,,,,,,,,,,,,,,,,,,,,,,,,,,,,,,,,,,,,,,,,opdatten,images/br_opdatten.png,images/cb_opdatten.png,,opdatten,,,,,,,,,,,0.363888917,-0.037037037,1,0,0,opdatten,0,8,8,37,1
,,,,,,00093,2023-11-03_11h22.42.863,vbt_B2_day2,2022.2.4,Win32,60.3682463,,,,,,,,,,,,,,,,,,,,,,,,,,,,,,,,,,,,,,,,,,zegel,images/br_zegel.png,images/cb_zegel.png,,zegel,,,,,,,,,,,0.399999972,-0.046296296,1,0,0,zegel,0,9,9,46,1
,,,,,,00093,2023-11-03_11h22.42.863,vbt_B2_day2,2022.2.4,Win32,60.3682463,,,,,,,,,,,,,,,,,,,,,,,,,,,,,,,,,,,,,,,,,,geld,images/br_geld.png,images/cb_geld.png,,geld,,,,,,,,,,,0.450000057,-0.047222243,1,0,0,geld,0,10,10,3,1
,,,,,,00093,2023-11-03_11h22.42.863,vbt_B2_day2,2022.2.4,Win32,60.3682463,,,,,,,,,,,,,,,,,,,,,,,,,,,,,,,,,,,,,,,,,,sifferd,images/br_sifferd.png,images/cb_sifferd.png,,siffe..,,,,,,,,,,,0.450000057,-0.047222243,1,0,0,siffe..,0,11,11,32,1
,,,,,,00093,2023-11-03_11h22.42.863,vbt_B2_day2,2022.2.4,Win32,60.3682463,,,,,,,,,,,,,,,,,,,,,,,,,,,,,,,,,,,,,,,,,,feestdag,images/br_feestdag.png,images/cb_feestdag.png,,feestdag,,,,,,,,,,,0.366666723,-0.09629631,1,0,0,feestdag,0,12,12,17,1
,,,,,,00093,2023-11-03_11h22.42.863,vbt_B2_day2,2022.2.4,Win32,60.3682463,,,,,,,,,,,,,,,,,,,,,,,,,,,,,,,,,,,,,,,,,,negel,images/br_negel.png,images/cb_negel.png,,zegel,,,,,,,,,,,0.366666723,-0.09629631,1,0,0,zegel,0,13,13,24,1
,,,,,,00093,2023-11-03_11h22.42.863,vbt_B2_day2,2022.2.4,Win32,60.3682463,,,,,,,,,,,,,,,,,,,,,,,,,,,,,,,,,,,,,,,,,,heilig,images/br_heilig.png,images/cb_heilig.png,,heilig,,,,,,,,,,,0.415740826,-0.075000021,1,0,0,heilig,0,14,14,9,1
,,,,,,00093,2023-11-03_11h22.42.863,vbt_B2_day2,2022.2.4,Win32,60.3682463,,,,,,,,,,,,,,,,,,,,,,,,,,,,,,,,,,,,,,,,,,bereuwen,images/br_bereuwen.png,images/cb_bereuwen.png,,beduiden,,,,,,,,,,,0.378703788,-0.118518547,1,0,0,beduiden,0,15,15,39,1
,,,,,,00093,2023-11-03_11h22.42.863,vbt_B2_day2,2022.2.4,Win32,60.3682463,,,,,,,,,,,,,,,,,,,,,,,,,,,,,,,,,,,,,,,,,,kijlen,images/br_kijlen.png,images/cb_kijlen.png,,kijlen,,,,,,,,,,,0.397222307,-0.148148148,1,0,0,kijlen,0,16,16,31,1
,,,,,,00093,2023-11-03_11h22.42.863,vbt_B2_day2,2022.2.4,Win32,60.3682463,,,,,,,,,,,,,,,,,,,,,,,,,,,,,,,,,,,,,,,,,,remel,images/br_remel.png,images/cb_remel.png,,remel,,,,,,,,,,,0.448148233,-0.150000042,1,0,0,remel,0,17,17,25,1
,,,,,,00093,2023-11-03_11h22.42.863,vbt_B2_day2,2022.2.4,Win32,60.3682463,,,,,,,,,,,,,,,,,,,,,,,,,,,,,,,,,,,,,,,,,,sora,images/br_sora.png,images/cb_sora.png,,sora,,,,,,,,,,,0.416666667,-0.167592578,1,0,0,sora,0,18,18,22,1
,,,,,,00093,2023-11-03_11h22.42.863,vbt_B2_day2,2022.2.4,Win32,60.3682463,,,,,,,,,,,,,,,,,,,,,,,,,,,,,,,,,,,,,,,,,,kasteel,images/br_kasteel.png,images/cb_kasteel.png,,kasteel,,,,,,,,,,,0.347222222,-0.180555556,1,0,0,kasteel,0,19,19,14,1
,,,,,,00093,2023-11-03_11h22.42.863,vbt_B2_day2,2022.2.4,Win32,60.3682463,,,,,,,,,,,,,,,,,,,,,,,,,,,,,,,,,,,,,,,,,,goon,images/br_goon.png,images/cb_goon.png,,goon,,,,,,,,,,,0.347222222,-0.180555556,1,0,0,goon,0,20,20,23,1
,,,,,,00093,2023-11-03_11h22.42.863,vbt_B2_day2,2022.2.4,Win32,60.3682463,,,,,,,,,,,,,,,,,,,,,,,,,,,,,,,,,,,,,,,,,,thema,images/br_thema.png,images/cb_thema.png,,thema,,,,,,,,,,,0.392592677,-0.176851838,1,0,0,thema,0,21,21,47,1
,,,,,,00093,2023-11-03_11h22.42.863,vbt_B2_day2,2022.2.4,Win32,60.3682463,,,,,,,,,,,,,,,,,,,,,,,,,,,,,,,,,,,,,,,,,,systeem,images/br_systeem.png,images/cb_systeem.png,,systeem,,,,,,,,,,,0.311111168,-0.176851838,1,0,0,systeem,0,22,22,54,1
,,,,,,00093,2023-11-03_11h22.42.863,vbt_B2_day2,2022.2.4,Win32,60.3682463,,,,,,,,,,,,,,,,,,,,,,,,,,,,,,,,,,,,,,,,,,krimmen,images/br_krimmen.png,images/cb_krimmen.png,,krimmen,,,,,,,,,,,0.311111168,-0.176851838,1,0,0,krimmen,0,23,23,35,1
,,,,,,00093,2023-11-03_11h22.42.863,vbt_B2_day2,2022.2.4,Win32,60.3682463,,,,,,,,,,,,,,,,,,,,,,,,,,,,,,,,,,,,,,,,,,ophuimen,images/br_ophuimen.png,images/cb_ophuimen.png,,opruimen,,,,,,,,,,,0.373148176,-0.103703746,1,0,0,opruimen,0,24,24,36,1
,,,,,,00093,2023-11-03_11h22.42.863,vbt_B2_day2,2022.2.4,Win32,60.3682463,,,,,,,,,,,,,,,,,,,,,,,,,,,,,,,,,,,,,,,,,,ningen,images/br_ningen.png,images/cb_ningen.png,,sis..,,,,,,,,,,,0.373148176,-0.103703746,1,0,0,sis..,0,25,25,28,1
,,,,,,00093,2023-11-03_11h22.42.863,vbt_B2_day2,2022.2.4,Win32,60.3682463,,,,,,,,,,,,,,,,,,,,,,,,,,,,,,,,,,,,,,,,,,bloeien,images/br_bloeien.png,images/cb_bloeien.png,,bloeien,,,,,,,,,,,0.42314812,-0.091666681,1,0,0,bloeien,0,26,26,12,1
,,,,,,00093,2023-11-03_11h22.42.863,vbt_B2_day2,2022.2.4,Win32,60.3682463,,,,,,,,,,,,,,,,,,,,,,,,,,,,,,,,,,,,,,,,,,toeval,images/br_toeval.png,images/cb_toeval.png,,toeval,,,,,,,,,,,0.42314812,-0.091666681,1,0,0,toeval,0,27,27,11,1
,,,,,,00093,2023-11-03_11h22.42.863,vbt_B2_day2,2022.2.4,Win32,60.3682463,,,,,,,,,,,,,,,,,,,,,,,,,,,,,,,,,,,,,,,,,,wijve,images/br_wijve.png,images/cb_wijve.png,,wijve,,,,,,,,,,,0.42314812,-0.091666681,1,0,0,wijve,0,28,28,27,1
,,,,,,00093,2023-11-03_11h22.42.863,vbt_B2_day2,2022.2.4,Win32,60.3682463,,,,,,,,,,,,,,,,,,,,,,,,,,,,,,,,,,,,,,,,,,heengeen,images/br_heengeen.png,images/cb_heengeen.png,,feeng..,,,,,,,,,,,0.328703704,-0.132407436,1,0,0,feeng..,0,29,29,38,1
,,,,,,00093,2023-11-03_11h22.42.863,vbt_B2_day2,2022.2.4,Win32,60.3682463,,,,,,,,,,,,,,,,,,,,,,,,,,,,,,,,,,,,,,,,,,joes,images/br_joes.png,images/cb_joes.png,,jaos,,,,,,,,,,,0.328703704,-0.132407436,1,0,0,jaos,0,30,30,20,1
,,,,,,00093,2023-11-03_11h22.42.863,vbt_B2_day2,2022.2.4,Win32,60.3682463,,,,,,,,,,,,,,,,,,,,,,,,,,,,,,,,,,,,,,,,,,aanzien,images/br_aanzien.png,images/cb_aanzien.png,,aanzien,,,,,,,,,,,0.328703704,-0.132407436,1,0,0,aanzien,0,31,31,13,1
,,,,,,00093,2023-11-03_11h22.42.863,vbt_B2_day2,2022.2.4,Win32,60.3682463,,,,,,,,,,,,,,,,,,,,,,,,,,,,,,,,,,,,,,,,,,eenhoorn,images/br_eenhoorn.png,images/cb_eenhoorn.png,,eenhoorn,,,,,,,,,,,0.328703704,-0.132407436,1,0,0,eenhoorn,0,32,32,19,1
,,,,,,00093,2023-11-03_11h22.42.863,vbt_B2_day2,2022.2.4,Win32,60.3682463,,,,,,,,,,,,,,,,,,,,,,,,,,,,,,,,,,,,,,,,,,plannen,images/br_plannen.png,images/cb_plannen.png,,plannen,,,,,,,,,,,0.359259288,-0.101851852,1,0,0,plannen,0,33,33,55,1
,,,,,,00093,2023-11-03_11h22.42.863,vbt_B2_day2,2022.2.4,Win32,60.3682463,,,,,,,,,,,,,,,,,,,,,,,,,,,,,,,,,,,,,,,,,,manieren,images/br_manieren.png,images/cb_manieren.png,,manieren,,,,,,,,,,,0.297222279,-0.140740783,1,0,0,manieren,0,34,34,56,1
,,,,,,00093,2023-11-03_11h22.42.863,vbt_B2_day2,2022.2.4,Win32,60.3682463,,,,,,,,,,,,,,,,,,,,,,,,,,,,,,,,,,,,,,,,,,tand,images/br_tand.png,images/cb_tand.png,,tand,,,,,,,,,,,0.333333333,-0.121296282,1,0,0,tand,0,35,35,42,1
,,,,,,00093,2023-11-03_11h22.42.863,vbt_B2_day2,2022.2.4,Win32,60.3682463,,,,,,,,,,,,,,,,,,,,,,,,,,,,,,,,,,,,,,,,,,flits,images/br_flits.png,images/cb_flits.png,,flits,,,,,,,,,,,0.378703788,-0.108333376,1,0,0,flits,0,36,36,4,1
,,,,,,00093,2023-11-03_11h22.42.863,vbt_B2_day2,2022.2.4,Win32,60.3682463,,,,,,,,,,,,,,,,,,,,,,,,,,,,,,,,,,,,,,,,,,moes,images/br_moes.png,images/cb_moes.png,,moes,,,,,,,,,,,0.328703704,-0.145370413,1,0,0,moes,0,37,37,0,1
,,,,,,00093,2023-11-03_11h22.42.863,vbt_B2_day2,2022.2.4,Win32,60.3682463,,,,,,,,,,,,,,,,,,,,,,,,,,,,,,,,,,,,,,,,,,blad,images/br_blad.png,images/cb_blad.png,,blad,,,,,,,,,,,0.387963048,-0.122222265,1,0,0,blad,0,38,38,1,1
,,,,,,00093,2023-11-03_11h22.42.863,vbt_B2_day2,2022.2.4,Win32,60.3682463,,,,,,,,,,,,,,,,,,,,,,,,,,,,,,,,,,,,,,,,,,breuk,images/br_breuk.png,images/cb_breuk.png,,breuk,,,,,,,,,,,0.387963048,-0.122222265,1,0,0,breuk,0,39,39,45,1
,,,,,,00093,2023-11-03_11h22.42.863,vbt_B2_day2,2022.2.4,Win32,60.3682463,,,,,,,,,,,,,,,,,,,,,,,,,,,,,,,,,,,,,,,,,,aanvraag,images/br_aanvraag.png,images/cb_aanvraag.png,,aanvraag,,,,,,,,,,,0.33148151,-0.162962949,1,0,0,aanvraag,0,40,40,57,1
,,,,,,00093,2023-11-03_11h22.42.863,vbt_B2_day2,2022.2.4,Win32,60.3682463,,,,,,,,,,,,,,,,,,,,,,,,,,,,,,,,,,,,,,,,,,agressie,images/br_agressie.png,images/cb_agressie.png,,agressie,,,,,,,,,,,0.416666667,-0.145370413,1,0,0,agressie,0,41,41,59,1
,,,,,,00093,2023-11-03_11h22.42.863,vbt_B2_day2,2022.2.4,Win32,60.3682463,,,,,,,,,,,,,,,,,,,,,,,,,,,,,,,,,,,,,,,,,,woning,images/br_woning.png,images/cb_woning.png,,woning,,,,,,,,,,,0.337962963,-0.180555556,1,0,0,woning,0,42,42,10,1
,,,,,,00093,2023-11-03_11h22.42.863,vbt_B2_day2,2022.2.4,Win32,60.3682463,,,,,,,,,,,,,,,,,,,,,,,,,,,,,,,,,,,,,,,,,,lurgen,images/br_lurgen.png,images/cb_lurgen.png,,lui.ig,,,,,,,,,,,0.337962963,-0.180555556,1,0,0,lui.ig,0,43,43,29,1
,,,,,,00093,2023-11-03_11h22.42.863,vbt_B2_day2,2022.2.4,Win32,60.3682463,,,,,,,,,,,,,,,,,,,,,,,,,,,,,,,,,,,,,,,,,,welzijn,images/br_welzijn.png,images/cb_welzijn.png,,wilzi..,,,,,,,,,,,0.380555612,-0.161111125,1,0,0,wilzi..,0,44,44,52,1
,,,,,,00093,2023-11-03_11h22.42.863,vbt_B2_day2,2022.2.4,Win32,60.3682463,,,,,,,,,,,,,,,,,,,,,,,,,,,,,,,,,,,,,,,,,,stes,images/br_stes.png,images/cb_stes.png,,stes,,,,,,,,,,,0.400925954,-0.118518547,1,0,0,stes,0,45,45,21,1
,,,,,,00093,2023-11-03_11h22.42.863,vbt_B2_day2,2022.2.4,Win32,60.3682463,,,,,,,,,,,,,,,,,,,,,,,,,,,,,,,,,,,,,,,,,,zwager,images/br_zwager.png,images/cb_zwager.png,,zw...,,,,,,,,,,,0.419444473,-0.10555557,1,0,0,zw...,0,46,46,49,1
,,,,,,00093,2023-11-03_11h22.42.863,vbt_B2_day2,2022.2.4,Win32,60.3682463,,,,,,,,,,,,,,,,,,,,,,,,,,,,,,,,,,,,,,,,,,jong,images/br_jong.png,images/cb_jong.png,,jong,,,,,,,,,,,0.437037009,-0.092592593,1,0,0,jong,0,47,47,43,1
,,,,,,00093,2023-11-03_11h22.42.863,vbt_B2_day2,2022.2.4,Win32,60.3682463,,,,,,,,,,,,,,,,,,,,,,,,,,,,,,,,,,,,,,,,,,kabel,images/br_kabel.png,images/cb_kabel.png,,kabel,,,,,,,,,,,0.372222194,-0.141666695,1,0,0,kabel,0,48,48,7,1
,,,,,,00093,2023-11-03_11h22.42.863,vbt_B2_day2,2022.2.4,Win32,60.3682463,,,,,,,,,,,,,,,,,,,,,,,,,,,,,,,,,,,,,,,,,,clan,images/br_clan.png,images/cb_clan.png,,clan,,,,,,,,,,,0.372222194,-0.141666695,1,0,0,clan,0,49,49,40,1
,,,,,,00093,2023-11-03_11h22.42.863,vbt_B2_day2,2022.2.4,Win32,60.3682463,,,,,,,,,,,,,,,,,,,,,,,,,,,,,,,,,,,,,,,,,,koorts,images/br_koorts.png,images/cb_koorts.png,,koorts,,,,,,,,,,,0.313888974,-0.150925954,1,0,0,koorts,0,50,50,50,1
,,,,,,00093,2023-11-03_11h22.42.863,vbt_B2_day2,2022.2.4,Win32,60.3682463,,,,,,,,,,,,,,,,,,,,,,,,,,,,,,,,,,,,,,,,,,doodmoe,images/br_doodmoe.png,images/cb_doodmoe.png,,doodmoe,,,,,,,,,,,0.363888917,-0.115740741,1,0,0,doodmoe,0,51,51,15,1
,,,,,,00093,2023-11-03_11h22.42.863,vbt_B2_day2,2022.2.4,Win32,60.3682463,,,,,,,,,,,,,,,,,,,,,,,,,,,,,,,,,,,,,,,,,,badon,images/br_badon.png,images/cb_badon.png,,bado.,,,,,,,,,,,0.363888917,-0.115740741,1,0,0,bado.,0,52,52,26,1
,,,,,,00093,2023-11-03_11h22.42.863,vbt_B2_day2,2022.2.4,Win32,60.3682463,,,,,,,,,,,,,,,,,,,,,,,,,,,,,,,,,,,,,,,,,,trots,images/br_trots.png,images/cb_trots.png,,trots,,,,,,,,,,,0.391666695,-0.104629658,1,0,0,trots,0,53,53,44,1
,,,,,,00093,2023-11-03_11h22.42.863,vbt_B2_day2,2022.2.4,Win32,60.3682463,,,,,,,,,,,,,,,,,,,,,,,,,,,,,,,,,,,,,,,,,,lokken,images/br_lokken.png,images/cb_lokken.png,,lokken,,,,,,,,,,,0.362037094,-0.125925912,1,0,0,lokken,0,54,54,8,1
,,,,,,00093,2023-11-03_11h22.42.863,vbt_B2_day2,2022.2.4,Win32,60.3682463,,,,,,,,,,,,,,,,,,,,,,,,,,,,,,,,,,,,,,,,,,strikken,images/br_strikken.png,images/cb_strikken.png,,strikken,,,,,,,,,,,0.381481453,-0.111111111,1,0,0,strikken,0,55,55,18,1
,,,,,,00093,2023-11-03_11h22.42.863,vbt_B2_day2,2022.2.4,Win32,60.3682463,,,,,,,,,,,,,,,,,,,,,,,,,,,,,,,,,,,,,,,,,,inzicht,images/br_inzicht.png,images/cb_inzicht.png,,inzicht,,,,,,,,,,,0.371296353,-0.112037023,1,0,0,inzicht,0,56,56,53,1
,,,,,,00093,2023-11-03_11h22.42.863,vbt_B2_day2,2022.2.4,Win32,60.3682463,,,,,,,,,,,,,,,,,,,,,,,,,,,,,,,,,,,,,,,,,,prekken,images/br_prekken.png,images/cb_prekken.png,,prekken,,,,,,,,,,,0.371296353,-0.112037023,1,0,0,prekken,0,57,57,34,1
,,,,,,00093,2023-11-03_11h22.42.863,vbt_B2_day2,2022.2.4,Win32,60.3682463,,,,,,,,,,,,,,,,,,,,,,,,,,,,,,,,,,,,,,,,,,sjijfel,images/br_sjijfel.png,images/cb_sjijfel.png,,sji...,,,,,,,,,,,0.422222279,-0.044444437,1,0,0,sji...,0,58,58,33,1
,,,,,,00093,2023-11-03_11h22.42.863,vbt_B2_day2,2022.2.4,Win32,60.3682463,,,,,,,,,,,,,,,,,,,,,,,,,,,,,,,,,,,,,,,,,,lijnen,images/br_lijnen.png,images/cb_lijnen.png,,lijnen,,,,,,,,,,,0.439814815,-0.045370384,1,0,0,lijnen,0,59,59,51,1
,,,,,,00093,2023-11-03_11h22.42.863,vbt_B2_day2,2022.2.4,Win32,60.3682463,,,,,,,,,,,,,,,,,,,,,,,,,,,,,,,,,,,,,,,,,,,,,,,,,,,,,,,,,,,,,,,,,,,
