welcome_mouse.x,welcome_mouse.y,welcome_mouse.leftButton,welcome_mouse.midButton,welcome_mouse.rightButton,welcome_mouse.time,"ID",date,expName,psychopyVersion,OS,frameRate,refresh_mouse.x,refresh_mouse.y,refresh_mouse.leftButton,refresh_mouse.midButton,refresh_mouse.rightButton,refresh_mouse.time,braille_mouse.x,braille_mouse.y,braille_mouse.leftButton,braille_mouse.midButton,braille_mouse.rightButton,braille_mouse.time,trials.thisRepN,trials.thisTrialN,trials.thisN,trials.thisIndex,trials.ran,nlLet,brLet,cbLet,trainInstr_mouse.x,trainInstr_mouse.y,trainInstr_mouse.leftButton,trainInstr_mouse.midButton,trainInstr_mouse.rightButton,trainInstr_mouse.time,translation_key.keys,translation_key.corr,translation_key.rt,word_rsp.text,word_mouse.x,word_mouse.y,word_mouse.leftButton,word_mouse.midButton,word_mouse.rightButton,word_mouse.time,train_loop.thisRepN,train_loop.thisTrialN,train_loop.thisN,train_loop.thisIndex,train_loop.ran,nlWrd,brWrd,cbWrd,test,testResp,mouse.x,mouse.y,mouse.leftButton,mouse.midButton,mouse.rightButton,testInstr_mouse.x,testInstr_mouse.y,testInstr_mouse.leftButton,testInstr_mouse.midButton,testInstr_mouse.rightButton,test_mouse.x,test_mouse.y,test_mouse.leftButton,test_mouse.midButton,test_mouse.rightButton,test_response.text,test_loop.thisRepN,test_loop.thisTrialN,test_loop.thisN,test_loop.thisIndex,test_loop.ran
-0.038888889,-0.254444444,1,0,0,4.656,00051,2023-10-14_15h40.17.264,vbt_B2_day2,2022.2.4,MacIntel,58.82352941,,,,,,,,,,,,,,,,,,,,,,,,,,,,,,,,,,,,,,,,,,,,,,,,,,,,,,,,,,,,,,,,,,,
,,,,,,00051,2023-10-14_15h40.17.264,vbt_B2_day2,2022.2.4,MacIntel,58.82352941,-0.064444444,-0.164444444,1,0,0,6.694,,,,,,,,,,,,,,,,,,,,,,,,,,,,,,,,,,,,,,,,,,,,,,,,,,,,,,,,,,,,,
,,,,,,00051,2023-10-14_15h40.17.264,vbt_B2_day2,2022.2.4,MacIntel,58.82352941,,,,,,,-0.06,-0.166666667,1,0,0,1.083,0,0,0,13,1,n,images/br_n.png,images/cb_n.png,,,,,,,,,,,,,,,,,,,,,,,,,,,,,,,,,,,,,,,,,,,,,,,
,,,,,,00051,2023-10-14_15h40.17.264,vbt_B2_day2,2022.2.4,MacIntel,58.82352941,,,,,,,0.051111111,-0.082222222,1,0,0,0.316,0,1,1,12,1,m,images/br_m.png,images/cb_m.png,,,,,,,,,,,,,,,,,,,,,,,,,,,,,,,,,,,,,,,,,,,,,,,
,,,,,,00051,2023-10-14_15h40.17.264,vbt_B2_day2,2022.2.4,MacIntel,58.82352941,,,,,,,-0.024444444,-0.062222222,1,0,0,0.166,0,2,2,5,1,f,images/br_f.png,images/cb_f.png,,,,,,,,,,,,,,,,,,,,,,,,,,,,,,,,,,,,,,,,,,,,,,,
,,,,,,00051,2023-10-14_15h40.17.264,vbt_B2_day2,2022.2.4,MacIntel,58.82352941,,,,,,,0.12,-0.115555556,1,0,0,0.051,0,3,3,1,1,b,images/br_b.png,images/cb_b.png,,,,,,,,,,,,,,,,,,,,,,,,,,,,,,,,,,,,,,,,,,,,,,,
,,,,,,00051,2023-10-14_15h40.17.264,vbt_B2_day2,2022.2.4,MacIntel,58.82352941,,,,,,,0.114444444,-0.105555556,1,0,0,0.433,0,4,4,0,1,a,images/br_a.png,images/cb_a.png,,,,,,,,,,,,,,,,,,,,,,,,,,,,,,,,,,,,,,,,,,,,,,,
,,,,,,00051,2023-10-14_15h40.17.264,vbt_B2_day2,2022.2.4,MacIntel,58.82352941,,,,,,,0.117777778,-0.095555556,1,0,0,0.067,0,5,5,8,1,i,images/br_i.png,images/cb_i.png,,,,,,,,,,,,,,,,,,,,,,,,,,,,,,,,,,,,,,,,,,,,,,,
,,,,,,00051,2023-10-14_15h40.17.264,vbt_B2_day2,2022.2.4,MacIntel,58.82352941,,,,,,,0.117777778,-0.095555556,1,0,0,3.233,0,6,6,20,1,u,images/br_u.png,images/cb_u.png,,,,,,,,,,,,,,,,,,,,,,,,,,,,,,,,,,,,,,,,,,,,,,,
,,,,,,00051,2023-10-14_15h40.17.264,vbt_B2_day2,2022.2.4,MacIntel,58.82352941,,,,,,,0.106666667,-0.131111111,1,0,0,0.415,0,7,7,15,1,p,images/br_p.png,images/cb_p.png,,,,,,,,,,,,,,,,,,,,,,,,,,,,,,,,,,,,,,,,,,,,,,,
,,,,,,00051,2023-10-14_15h40.17.264,vbt_B2_day2,2022.2.4,MacIntel,58.82352941,,,,,,,0.138888889,-0.001111111,1,0,0,0.516,0,8,8,17,1,r,images/br_r.png,images/cb_r.png,,,,,,,,,,,,,,,,,,,,,,,,,,,,,,,,,,,,,,,,,,,,,,,
,,,,,,00051,2023-10-14_15h40.17.264,vbt_B2_day2,2022.2.4,MacIntel,58.82352941,,,,,,,0.058888889,-0.047777778,1,0,0,0.951,0,9,9,22,1,w,images/br_w.png,images/cb_w.png,,,,,,,,,,,,,,,,,,,,,,,,,,,,,,,,,,,,,,,,,,,,,,,
,,,,,,00051,2023-10-14_15h40.17.264,vbt_B2_day2,2022.2.4,MacIntel,58.82352941,,,,,,,0.194444444,0.017777778,1,0,0,0.383,0,10,10,24,1,y,images/br_y.png,images/cb_y.png,,,,,,,,,,,,,,,,,,,,,,,,,,,,,,,,,,,,,,,,,,,,,,,
,,,,,,00051,2023-10-14_15h40.17.264,vbt_B2_day2,2022.2.4,MacIntel,58.82352941,,,,,,,0.111111111,0.051111111,1,0,0,1.982,0,11,11,3,1,d,images/br_d.png,images/cb_d.png,,,,,,,,,,,,,,,,,,,,,,,,,,,,,,,,,,,,,,,,,,,,,,,
,,,,,,00051,2023-10-14_15h40.17.264,vbt_B2_day2,2022.2.4,MacIntel,58.82352941,,,,,,,0.08,0.05,1,0,0,3,0,12,12,4,1,e,images/br_e.png,images/cb_e.png,,,,,,,,,,,,,,,,,,,,,,,,,,,,,,,,,,,,,,,,,,,,,,,
,,,,,,00051,2023-10-14_15h40.17.264,vbt_B2_day2,2022.2.4,MacIntel,58.82352941,,,,,,,0.126666667,0.03,1,0,0,0.967,0,13,13,16,1,q,images/br_q.png,images/cb_q.png,,,,,,,,,,,,,,,,,,,,,,,,,,,,,,,,,,,,,,,,,,,,,,,
,,,,,,00051,2023-10-14_15h40.17.264,vbt_B2_day2,2022.2.4,MacIntel,58.82352941,,,,,,,0.121111111,0.047777778,1,0,0,0.35,0,14,14,14,1,o,images/br_o.png,images/cb_o.png,,,,,,,,,,,,,,,,,,,,,,,,,,,,,,,,,,,,,,,,,,,,,,,
,,,,,,00051,2023-10-14_15h40.17.264,vbt_B2_day2,2022.2.4,MacIntel,58.82352941,,,,,,,0.182222222,-0.055555556,1,0,0,3.166,0,15,15,10,1,k,images/br_k.png,images/cb_k.png,,,,,,,,,,,,,,,,,,,,,,,,,,,,,,,,,,,,,,,,,,,,,,,
,,,,,,00051,2023-10-14_15h40.17.264,vbt_B2_day2,2022.2.4,MacIntel,58.82352941,,,,,,,0.168888889,0.003333333,1,0,0,0.134,0,16,16,23,1,x,images/br_x.png,images/cb_x.png,,,,,,,,,,,,,,,,,,,,,,,,,,,,,,,,,,,,,,,,,,,,,,,
,,,,,,00051,2023-10-14_15h40.17.264,vbt_B2_day2,2022.2.4,MacIntel,58.82352941,,,,,,,0.096666667,0.002222222,1,0,0,1.2,0,17,17,19,1,t,images/br_t.png,images/cb_t.png,,,,,,,,,,,,,,,,,,,,,,,,,,,,,,,,,,,,,,,,,,,,,,,
,,,,,,00051,2023-10-14_15h40.17.264,vbt_B2_day2,2022.2.4,MacIntel,58.82352941,,,,,,,0.175555556,0.015555556,1,0,0,1.349,0,18,18,11,1,l,images/br_l.png,images/cb_l.png,,,,,,,,,,,,,,,,,,,,,,,,,,,,,,,,,,,,,,,,,,,,,,,
,,,,,,00051,2023-10-14_15h40.17.264,vbt_B2_day2,2022.2.4,MacIntel,58.82352941,,,,,,,0.115555556,0.013333333,1,0,0,0.15,0,19,19,9,1,j,images/br_j.png,images/cb_j.png,,,,,,,,,,,,,,,,,,,,,,,,,,,,,,,,,,,,,,,,,,,,,,,
,,,,,,00051,2023-10-14_15h40.17.264,vbt_B2_day2,2022.2.4,MacIntel,58.82352941,,,,,,,0.115555556,0.015555556,1,0,0,1.199,0,20,20,18,1,s,images/br_s.png,images/cb_s.png,,,,,,,,,,,,,,,,,,,,,,,,,,,,,,,,,,,,,,,,,,,,,,,
,,,,,,00051,2023-10-14_15h40.17.264,vbt_B2_day2,2022.2.4,MacIntel,58.82352941,,,,,,,0.146666667,-0.014444444,1,0,0,0.417,0,21,21,6,1,g,images/br_g.png,images/cb_g.png,,,,,,,,,,,,,,,,,,,,,,,,,,,,,,,,,,,,,,,,,,,,,,,
,,,,,,00051,2023-10-14_15h40.17.264,vbt_B2_day2,2022.2.4,MacIntel,58.82352941,,,,,,,0.154444444,0.034444444,1,0,0,0.534,0,22,22,25,1,z,images/br_z.png,images/cb_z.png,,,,,,,,,,,,,,,,,,,,,,,,,,,,,,,,,,,,,,,,,,,,,,,
,,,,,,00051,2023-10-14_15h40.17.264,vbt_B2_day2,2022.2.4,MacIntel,58.82352941,,,,,,,0.153333333,0.044444444,1,0,0,1.101,0,23,23,2,1,c,images/br_c.png,images/cb_c.png,,,,,,,,,,,,,,,,,,,,,,,,,,,,,,,,,,,,,,,,,,,,,,,
,,,,,,00051,2023-10-14_15h40.17.264,vbt_B2_day2,2022.2.4,MacIntel,58.82352941,,,,,,,0.157777778,0.05,1,0,0,0.268,0,24,24,7,1,h,images/br_h.png,images/cb_h.png,,,,,,,,,,,,,,,,,,,,,,,,,,,,,,,,,,,,,,,,,,,,,,,
,,,,,,00051,2023-10-14_15h40.17.264,vbt_B2_day2,2022.2.4,MacIntel,58.82352941,,,,,,,0.157777778,0.05,1,0,0,0.833,0,25,25,21,1,v,images/br_v.png,images/cb_v.png,,,,,,,,,,,,,,,,,,,,,,,,,,,,,,,,,,,,,,,,,,,,,,,
,,,,,,00051,2023-10-14_15h40.17.264,vbt_B2_day2,2022.2.4,MacIntel,58.82352941,,,,,,,,,,,,,,,,,,,,,0.033333333,0.028888889,1,0,0,27.995,,,,,,,,,,,,,,,,,,,,,,,,,,,,,,,,,,,,,,,,,
,,,,,,00051,2023-10-14_15h40.17.264,vbt_B2_day2,2022.2.4,MacIntel,58.82352941,,,,,,,,,,,,,,,,,,,,,,,,,,,down,0,22.373,,0.396666667,-0.041111111,1,0,0,3.316,0,0,0,43,1,klauw,images/br_klauw.png,images/cb_klauw.png,0,,,,,,,,,,,,,,,,,,,,,,
,,,,,,00051,2023-10-14_15h40.17.264,vbt_B2_day2,2022.2.4,MacIntel,58.82352941,,,,,,,,,,,,,,,,,,,,,,,,,,,down,0,2.017,,0.26,-0.048888889,1,0,0,1.301,0,1,1,20,1,site,images/br_site.png,images/cb_site.png,0,,,,,,,,,,,,,,,,,,,,,,
,,,,,,00051,2023-10-14_15h40.17.264,vbt_B2_day2,2022.2.4,MacIntel,58.82352941,,,,,,,,,,,,,,,,,,,,,,,,,,,down,0,4.684,,0.222222222,-0.068888889,1,0,0,0.834,0,2,2,188,1,strekken,images/br_strekken.png,images/cb_strekken.png,0,,,,,,,,,,,,,,,,,,,,,,
,,,,,,00051,2023-10-14_15h40.17.264,vbt_B2_day2,2022.2.4,MacIntel,58.82352941,,,,,,,,,,,,,,,,,,,,,,,,,,,down,0,12.16,,0.227777778,-0.036666667,1,0,0,1.049,0,3,3,175,1,heengaan,images/br_heengaan.png,images/cb_heengaan.png,0,,,,,,,,,,,,,,,,,,,,,,
,,,,,,00051,2023-10-14_15h40.17.264,vbt_B2_day2,2022.2.4,MacIntel,58.82352941,,,,,,,,,,,,,,,,,,,,,,,,,,,down,0,6.32,,0.227777778,-0.036666667,1,0,0,1.05,0,4,4,184,1,aandelen,images/br_aandelen.png,images/cb_aandelen.png,0,,,,,,,,,,,,,,,,,,,,,,
,,,,,,00051,2023-10-14_15h40.17.264,vbt_B2_day2,2022.2.4,MacIntel,58.82352941,,,,,,,,,,,,,,,,,,,,,,,,,,,down,0,4.538,,0.457777778,-0.021111111,1,0,0,0.817,0,5,5,83,1,mening,images/br_mening.png,images/cb_mening.png,0,,,,,,,,,,,,,,,,,,,,,,
,,,,,,00051,2023-10-14_15h40.17.264,vbt_B2_day2,2022.2.4,MacIntel,58.82352941,,,,,,,,,,,,,,,,,,,,,,,,,,,down,0,6.119,,0.402222222,-0.108888889,1,0,0,1.466,0,6,6,139,1,stiekem,images/br_stiekem.png,images/cb_stiekem.png,1,stiekem,,,,,,,,,,,,,,,,,,,,,
,,,,,,00051,2023-10-14_15h40.17.264,vbt_B2_day2,2022.2.4,MacIntel,58.82352941,,,,,,,,,,,,,,,,,,,,,,,,,,,down,0,2.05,,0.402222222,-0.108888889,1,0,0,0.983,0,7,7,72,1,strak,images/br_strak.png,images/cb_strak.png,0,,,,,,,,,,,,,,,,,,,,,,
,,,,,,00051,2023-10-14_15h40.17.264,vbt_B2_day2,2022.2.4,MacIntel,58.82352941,,,,,,,,,,,,,,,,,,,,,,,,,,,down,0,1.86,,0.445555556,-0.138888889,1,0,0,1.334,0,8,8,18,1,blik,images/br_blik.png,images/cb_blik.png,1,blik,,,,,,,,,,,,,,,,,,,,,
,,,,,,00051,2023-10-14_15h40.17.264,vbt_B2_day2,2022.2.4,MacIntel,58.82352941,,,,,,,,,,,,,,,,,,,,,,,,,,,down,0,6.388,,0.39,-0.103333333,1,0,0,0.717,0,9,9,63,1,flirt,images/br_flirt.png,images/cb_flirt.png,0,,,,,,,,,,,,,,,,,,,,,,
,,,,,,00051,2023-10-14_15h40.17.264,vbt_B2_day2,2022.2.4,MacIntel,58.82352941,,,,,,,,,,,,,,,,,,,,,,,,,,,down,0,7.504,,0.39,-0.101111111,1,0,0,0.75,0,10,10,133,1,seizoen,images/br_seizoen.png,images/cb_seizoen.png,0,,,,,,,,,,,,,,,,,,,,,,
,,,,,,00051,2023-10-14_15h40.17.264,vbt_B2_day2,2022.2.4,MacIntel,58.82352941,,,,,,,,,,,,,,,,,,,,,,,,,,,down,0,2.039,,0.39,-0.108888889,1,0,0,0.7,0,11,11,120,1,klimmen,images/br_klimmen.png,images/cb_klimmen.png,0,,,,,,,,,,,,,,,,,,,,,,
,,,,,,00051,2023-10-14_15h40.17.264,vbt_B2_day2,2022.2.4,MacIntel,58.82352941,,,,,,,,,,,,,,,,,,,,,,,,,,,down,0,11.395,,0.292222222,-0.068888889,1,0,0,4.167,0,12,12,76,1,afval,images/br_afval.png,images/cb_afval.png,0,,,,,,,,,,,,,,,,,,,,,,
,,,,,,00051,2023-10-14_15h40.17.264,vbt_B2_day2,2022.2.4,MacIntel,58.82352941,,,,,,,,,,,,,,,,,,,,,,,,,,,down,0,17.846,,0.292222222,-0.068888889,1,0,0,0.544,0,13,13,100,1,geduld,images/br_geduld.png,images/cb_geduld.png,0,,,,,,,,,,,,,,,,,,,,,,
,,,,,,00051,2023-10-14_15h40.17.264,vbt_B2_day2,2022.2.4,MacIntel,58.82352941,,,,,,,,,,,,,,,,,,,,,,,,,,,down,0,1.417,,0.288888889,-0.067777778,1,0,0,0.467,0,14,14,51,1,samen,images/br_samen.png,images/cb_samen.png,0,,,,,,,,,,,,,,,,,,,,,,
,,,,,,00051,2023-10-14_15h40.17.264,vbt_B2_day2,2022.2.4,MacIntel,58.82352941,,,,,,,,,,,,,,,,,,,,,,,,,,,down,0,2.5,,0.204444444,-0.077777778,1,0,0,0.6,0,15,15,55,1,praat,images/br_praat.png,images/cb_praat.png,0,,,,,,,,,,,,,,,,,,,,,,
,,,,,,00051,2023-10-14_15h40.17.264,vbt_B2_day2,2022.2.4,MacIntel,58.82352941,,,,,,,,,,,,,,,,,,,,,,,,,,,down,0,1.621,,0.204444444,-0.077777778,1,0,0,0.7,0,16,16,132,1,grappen,images/br_grappen.png,images/cb_grappen.png,0,,,,,,,,,,,,,,,,,,,,,,
,,,,,,00051,2023-10-14_15h40.17.264,vbt_B2_day2,2022.2.4,MacIntel,58.82352941,,,,,,,,,,,,,,,,,,,,,,,,,,,down,0,1.908,,0.204444444,-0.077777778,1,0,0,0.684,0,17,17,41,1,maken,images/br_maken.png,images/cb_maken.png,0,,,,,,,,,,,,,,,,,,,,,,
,,,,,,00051,2023-10-14_15h40.17.264,vbt_B2_day2,2022.2.4,MacIntel,58.82352941,,,,,,,,,,,,,,,,,,,,,,,,,,,down,0,4.057,,0.205555556,-0.077777778,1,0,0,0.567,0,18,18,169,1,oprotten,images/br_oprotten.png,images/cb_oprotten.png,0,,,,,,,,,,,,,,,,,,,,,,
,,,,,,00051,2023-10-14_15h40.17.264,vbt_B2_day2,2022.2.4,MacIntel,58.82352941,,,,,,,,,,,,,,,,,,,,,,,,,,,down,0,7.226,,0.027777778,-0.021111111,1,0,0,5.467,0,19,19,196,1,nakijken,images/br_nakijken.png,images/cb_nakijken.png,0,,,,,,,,,,,,,,,,,,,,,,
,,,,,,00051,2023-10-14_15h40.17.264,vbt_B2_day2,2022.2.4,MacIntel,58.82352941,,,,,,,,,,,,,,,,,,,,,,,,,,,down,0,9.543,,0.201111111,-0.111111111,1,0,0,4.468,0,20,20,198,1,bedoelen,images/br_bedoelen.png,images/cb_bedoelen.png,0,,,,,,,,,,,,,,,,,,,,,,
,,,,,,00051,2023-10-14_15h40.17.264,vbt_B2_day2,2022.2.4,MacIntel,58.82352941,,,,,,,,,,,,,,,,,,,,,,,,,,,down,0,2.988,,0.315555556,0.034444444,1,0,0,0.515,0,21,21,21,1,mist,images/br_mist.png,images/cb_mist.png,0,,,,,,,,,,,,,,,,,,,,,,
,,,,,,00051,2023-10-14_15h40.17.264,vbt_B2_day2,2022.2.4,MacIntel,58.82352941,,,,,,,,,,,,,,,,,,,,,,,,,,,down,0,11.051,,0.271111111,-0.06,1,0,0,0.65,0,22,22,156,1,rechten,images/br_rechten.png,images/cb_rechten.png,0,,,,,,,,,,,,,,,,,,,,,,
,,,,,,00051,2023-10-14_15h40.17.264,vbt_B2_day2,2022.2.4,MacIntel,58.82352941,,,,,,,,,,,,,,,,,,,,,,,,,,,down,0,4.471,,0.271111111,-0.06,1,0,0,0.5,0,23,23,163,1,schuilen,images/br_schuilen.png,images/cb_schuilen.png,0,,,,,,,,,,,,,,,,,,,,,,
,,,,,,00051,2023-10-14_15h40.17.264,vbt_B2_day2,2022.2.4,MacIntel,58.82352941,,,,,,,,,,,,,,,,,,,,,,,,,,,down,0,2.675,,0.271111111,-0.06,1,0,0,0.4,0,24,24,30,1,uien,images/br_uien.png,images/cb_uien.png,0,,,,,,,,,,,,,,,,,,,,,,
,,,,,,00051,2023-10-14_15h40.17.264,vbt_B2_day2,2022.2.4,MacIntel,58.82352941,,,,,,,,,,,,,,,,,,,,,,,,,,,down,0,1.643,,0.271111111,-0.06,1,0,0,0.599,0,25,25,49,1,laken,images/br_laken.png,images/cb_laken.png,0,,,,,,,,,,,,,,,,,,,,,,
,,,,,,00051,2023-10-14_15h40.17.264,vbt_B2_day2,2022.2.4,MacIntel,58.82352941,,,,,,,,,,,,,,,,,,,,,,,,,,,down,0,2.774,,0.271111111,-0.058888889,1,0,0,0.384,0,26,26,74,1,graaf,images/br_graaf.png,images/cb_graaf.png,0,,,,,,,,,,,,,,,,,,,,,,
,,,,,,00051,2023-10-14_15h40.17.264,vbt_B2_day2,2022.2.4,MacIntel,58.82352941,,,,,,,,,,,,,,,,,,,,,,,,,,,down,0,4.336,,0.25,-0.068888889,1,0,0,2.899,0,27,27,161,1,attentie,images/br_attentie.png,images/cb_attentie.png,0,,,,,,,,,,,,,,,,,,,,,,
,,,,,,00051,2023-10-14_15h40.17.264,vbt_B2_day2,2022.2.4,MacIntel,58.82352941,,,,,,,,,,,,,,,,,,,,,,,,,,,down,0,3.855,,0.25,-0.068888889,1,0,0,0.551,0,28,28,12,1,kust,images/br_kust.png,images/cb_kust.png,0,,,,,,,,,,,,,,,,,,,,,,
,,,,,,00051,2023-10-14_15h40.17.264,vbt_B2_day2,2022.2.4,MacIntel,58.82352941,,,,,,,,,,,,,,,,,,,,,,,,,,,down,0,4.283,,0.25,-0.068888889,1,0,0,0.434,0,29,29,11,1,mode,images/br_mode.png,images/cb_mode.png,0,,,,,,,,,,,,,,,,,,,,,,
,,,,,,00051,2023-10-14_15h40.17.264,vbt_B2_day2,2022.2.4,MacIntel,58.82352941,,,,,,,,,,,,,,,,,,,,,,,,,,,down,0,7.09,,0.25,-0.068888889,1,0,0,2.083,0,30,30,65,1,parel,images/br_parel.png,images/cb_parel.png,0,,,,,,,,,,,,,,,,,,,,,,
,,,,,,00051,2023-10-14_15h40.17.264,vbt_B2_day2,2022.2.4,MacIntel,58.82352941,,,,,,,,,,,,,,,,,,,,,,,,,,,down,0,2.577,,0.253333333,-0.057777778,1,0,0,0.365,0,31,31,84,1,lokken,images/br_lokken.png,images/cb_lokken.png,0,,,,,,,,,,,,,,,,,,,,,,
,,,,,,00051,2023-10-14_15h40.17.264,vbt_B2_day2,2022.2.4,MacIntel,58.82352941,,,,,,,,,,,,,,,,,,,,,,,,,,,down,0,6.501,,0.251111111,-0.052222222,1,0,0,0.866,0,32,32,102,1,legaal,images/br_legaal.png,images/cb_legaal.png,0,,,,,,,,,,,,,,,,,,,,,,
,,,,,,00051,2023-10-14_15h40.17.264,vbt_B2_day2,2022.2.4,MacIntel,58.82352941,,,,,,,,,,,,,,,,,,,,,,,,,,,down,0,8.92,,0.416666667,0.146666667,1,0,0,0.601,0,33,33,162,1,uitdelen,images/br_uitdelen.png,images/cb_uitdelen.png,0,,,,,,,,,,,,,,,,,,,,,,
,,,,,,00051,2023-10-14_15h40.17.264,vbt_B2_day2,2022.2.4,MacIntel,58.82352941,,,,,,,,,,,,,,,,,,,,,,,,,,,down,0,4.877,,0.416666667,0.146666667,1,0,0,0.418,0,34,34,127,1,doodmoe,images/br_doodmoe.png,images/cb_doodmoe.png,0,,,,,,,,,,,,,,,,,,,,,,
,,,,,,00051,2023-10-14_15h40.17.264,vbt_B2_day2,2022.2.4,MacIntel,58.82352941,,,,,,,,,,,,,,,,,,,,,,,,,,,down,0,7.075,,0.404444444,0.148888889,1,0,0,0.551,0,35,35,189,1,aanraden,images/br_aanraden.png,images/cb_aanraden.png,0,,,,,,,,,,,,,,,,,,,,,,
,,,,,,00051,2023-10-14_15h40.17.264,vbt_B2_day2,2022.2.4,MacIntel,58.82352941,,,,,,,,,,,,,,,,,,,,,,,,,,,down,0,2.323,,0.25,-0.017777778,1,0,0,0.533,0,36,36,166,1,strikken,images/br_strikken.png,images/cb_strikken.png,0,,,,,,,,,,,,,,,,,,,,,,
,,,,,,00051,2023-10-14_15h40.17.264,vbt_B2_day2,2022.2.4,MacIntel,58.82352941,,,,,,,,,,,,,,,,,,,,,,,,,,,down,0,4.376,,0.25,-0.017777778,1,0,0,0.401,0,37,37,124,1,bloeien,images/br_bloeien.png,images/cb_bloeien.png,0,,,,,,,,,,,,,,,,,,,,,,
,,,,,,00051,2023-10-14_15h40.17.264,vbt_B2_day2,2022.2.4,MacIntel,58.82352941,,,,,,,,,,,,,,,,,,,,,,,,,,,down,0,6.592,,0.25,-0.017777778,1,0,0,0.434,0,38,38,193,1,weeshuis,images/br_weeshuis.png,images/cb_weeshuis.png,0,,,,,,,,,,,,,,,,,,,,,,
,,,,,,00051,2023-10-14_15h40.17.264,vbt_B2_day2,2022.2.4,MacIntel,58.82352941,,,,,,,,,,,,,,,,,,,,,,,,,,,down,0,0.415,,0.244444444,-0.017777778,1,0,0,0.483,0,39,39,48,1,steel,images/br_steel.png,images/cb_steel.png,0,,,,,,,,,,,,,,,,,,,,,,
,,,,,,00051,2023-10-14_15h40.17.264,vbt_B2_day2,2022.2.4,MacIntel,58.82352941,,,,,,,,,,,,,,,,,,,,,,,,,,,down,0,2.894,,0.242222222,-0.025555556,1,0,0,0.484,0,40,40,10,1,leek,images/br_leek.png,images/cb_leek.png,0,,,,,,,,,,,,,,,,,,,,,,
,,,,,,00051,2023-10-14_15h40.17.264,vbt_B2_day2,2022.2.4,MacIntel,58.82352941,,,,,,,,,,,,,,,,,,,,,,,,,,,down,0,8.911,,0.23,-0.053333333,1,0,0,4.867,0,41,41,9,1,hier,images/br_hier.png,images/cb_hier.png,0,,,,,,,,,,,,,,,,,,,,,,
,,,,,,00051,2023-10-14_15h40.17.264,vbt_B2_day2,2022.2.4,MacIntel,58.82352941,,,,,,,,,,,,,,,,,,,,,,,,,,,down,0,11.439,,0.241111111,-0.044444444,1,0,0,5.617,0,42,42,135,1,gedicht,images/br_gedicht.png,images/cb_gedicht.png,0,,,,,,,,,,,,,,,,,,,,,,
,,,,,,00051,2023-10-14_15h40.17.264,vbt_B2_day2,2022.2.4,MacIntel,58.82352941,,,,,,,,,,,,,,,,,,,,,,,,,,,down,0,0.757,,0.22,-0.044444444,1,0,0,0.866,0,43,43,0,1,slak,images/br_slak.png,images/cb_slak.png,0,,,,,,,,,,,,,,,,,,,,,,
,,,,,,00051,2023-10-14_15h40.17.264,vbt_B2_day2,2022.2.4,MacIntel,58.82352941,,,,,,,,,,,,,,,,,,,,,,,,,,,down,0,2.74,,0.22,-0.044444444,1,0,0,0.516,0,44,44,15,1,soda,images/br_soda.png,images/cb_soda.png,0,,,,,,,,,,,,,,,,,,,,,,
,,,,,,00051,2023-10-14_15h40.17.264,vbt_B2_day2,2022.2.4,MacIntel,58.82352941,,,,,,,,,,,,,,,,,,,,,,,,,,,down,0,3.125,,0.224444444,-0.111111111,1,0,0,2.317,0,45,45,174,1,stemming,images/br_stemming.png,images/cb_stemming.png,0,,,,,,,,,,,,,,,,,,,,,,
,,,,,,00051,2023-10-14_15h40.17.264,vbt_B2_day2,2022.2.4,MacIntel,58.82352941,,,,,,,,,,,,,,,,,,,,,,,,,,,down,0,2.742,,0.224444444,-0.111111111,1,0,0,0.616,0,46,46,152,1,afnemen,images/br_afnemen.png,images/cb_afnemen.png,0,,,,,,,,,,,,,,,,,,,,,,
,,,,,,00051,2023-10-14_15h40.17.264,vbt_B2_day2,2022.2.4,MacIntel,58.82352941,,,,,,,,,,,,,,,,,,,,,,,,,,,down,0,19.945,,0.224444444,-0.108888889,1,0,0,0.501,0,47,47,87,1,toeval,images/br_toeval.png,images/cb_toeval.png,0,,,,,,,,,,,,,,,,,,,,,,
,,,,,,00051,2023-10-14_15h40.17.264,vbt_B2_day2,2022.2.4,MacIntel,58.82352941,,,,,,,,,,,,,,,,,,,,,,,,,,,down,0,2.501,,0.224444444,-0.108888889,1,0,0,0.801,0,48,48,61,1,groen,images/br_groen.png,images/cb_groen.png,0,,,,,,,,,,,,,,,,,,,,,,
,,,,,,00051,2023-10-14_15h40.17.264,vbt_B2_day2,2022.2.4,MacIntel,58.82352941,,,,,,,,,,,,,,,,,,,,,,,,,,,down,0,8.544,,0.098888889,-0.038888889,1,0,0,6.551,0,49,49,142,1,snuiven,images/br_snuiven.png,images/cb_snuiven.png,0,,,,,,,,,,,,,,,,,,,,,,
,,,,,,00051,2023-10-14_15h40.17.264,vbt_B2_day2,2022.2.4,MacIntel,58.82352941,,,,,,,,,,,,,,,,,,,,,,,,,,,down,0,7.991,,0.163333333,-0.108888889,1,0,0,5.701,0,50,50,14,1,rijp,images/br_rijp.png,images/cb_rijp.png,0,,,,,,,,,,,,,,,,,,,,,,
,,,,,,00051,2023-10-14_15h40.17.264,vbt_B2_day2,2022.2.4,MacIntel,58.82352941,,,,,,,,,,,,,,,,,,,,,,,,,,,down,0,4.899,,0.163333333,-0.108888889,1,0,0,0.382,0,51,51,141,1,knielen,images/br_knielen.png,images/cb_knielen.png,0,,,,,,,,,,,,,,,,,,,,,,
,,,,,,00051,2023-10-14_15h40.17.264,vbt_B2_day2,2022.2.4,MacIntel,58.82352941,,,,,,,,,,,,,,,,,,,,,,,,,,,down,0,5.256,,0.163333333,-0.108888889,1,0,0,0.401,0,52,52,121,1,twijfel,images/br_twijfel.png,images/cb_twijfel.png,0,,,,,,,,,,,,,,,,,,,,,,
,,,,,,00051,2023-10-14_15h40.17.264,vbt_B2_day2,2022.2.4,MacIntel,58.82352941,,,,,,,,,,,,,,,,,,,,,,,,,,,down,0,4.4,,0.163333333,-0.108888889,1,0,0,1.399,0,53,53,194,1,driemaal,images/br_driemaal.png,images/cb_driemaal.png,0,,,,,,,,,,,,,,,,,,,,,,
,,,,,,00051,2023-10-14_15h40.17.264,vbt_B2_day2,2022.2.4,MacIntel,58.82352941,,,,,,,,,,,,,,,,,,,,,,,,,,,down,0,2.232,,0.171111111,-0.101111111,1,0,0,0.534,0,54,54,113,1,koppen,images/br_koppen.png,images/cb_koppen.png,0,,,,,,,,,,,,,,,,,,,,,,
,,,,,,00051,2023-10-14_15h40.17.264,vbt_B2_day2,2022.2.4,MacIntel,58.82352941,,,,,,,,,,,,,,,,,,,,,,,,,,,down,0,2.368,,0.171111111,-0.101111111,1,0,0,0.534,0,55,55,140,1,blijven,images/br_blijven.png,images/cb_blijven.png,0,,,,,,,,,,,,,,,,,,,,,,
,,,,,,00051,2023-10-14_15h40.17.264,vbt_B2_day2,2022.2.4,MacIntel,58.82352941,,,,,,,,,,,,,,,,,,,,,,,,,,,down,0,9.182,,0.157777778,-0.106666667,1,0,0,3.717,0,56,56,93,1,waarop,images/br_waarop.png,images/cb_waarop.png,0,,,,,,,,,,,,,,,,,,,,,,
,,,,,,00051,2023-10-14_15h40.17.264,vbt_B2_day2,2022.2.4,MacIntel,58.82352941,,,,,,,,,,,,,,,,,,,,,,,,,,,down,0,5.627,,0.283333333,-0.147777778,1,0,0,1.167,0,57,57,99,1,koffie,images/br_koffie.png,images/cb_koffie.png,1,koffie,,,,,,,,,,,,,,,,,,,,,
,,,,,,00051,2023-10-14_15h40.17.264,vbt_B2_day2,2022.2.4,MacIntel,58.82352941,,,,,,,,,,,,,,,,,,,,,,,,,,,down,0,4.049,,0.285555556,-0.134444444,1,0,0,0.485,0,58,58,7,1,geld,images/br_geld.png,images/cb_geld.png,0,,,,,,,,,,,,,,,,,,,,,,
,,,,,,00051,2023-10-14_15h40.17.264,vbt_B2_day2,2022.2.4,MacIntel,58.82352941,,,,,,,,,,,,,,,,,,,,,,,,,,,down,0,1.307,,0.251111111,-0.146666667,1,0,0,0.984,0,59,59,6,1,diep,images/br_diep.png,images/cb_diep.png,0,,,,,,,,,,,,,,,,,,,,,,
,,,,,,00051,2023-10-14_15h40.17.264,vbt_B2_day2,2022.2.4,MacIntel,58.82352941,,,,,,,,,,,,,,,,,,,,,,,,,,,down,0,5.103,,0.244444444,-0.122222222,1,0,0,0.566,0,60,60,181,1,toegeven,images/br_toegeven.png,images/cb_toegeven.png,0,,,,,,,,,,,,,,,,,,,,,,
,,,,,,00051,2023-10-14_15h40.17.264,vbt_B2_day2,2022.2.4,MacIntel,58.82352941,,,,,,,,,,,,,,,,,,,,,,,,,,,down,0,1.15,,0.231111111,-0.12,1,0,0,0.383,0,61,61,2,1,jaar,images/br_jaar.png,images/cb_jaar.png,0,,,,,,,,,,,,,,,,,,,,,,
,,,,,,00051,2023-10-14_15h40.17.264,vbt_B2_day2,2022.2.4,MacIntel,58.82352941,,,,,,,,,,,,,,,,,,,,,,,,,,,down,0,3.118,,0.204444444,-0.101111111,1,0,0,0.434,0,62,62,126,1,kasteel,images/br_kasteel.png,images/cb_kasteel.png,0,,,,,,,,,,,,,,,,,,,,,,
,,,,,,00051,2023-10-14_15h40.17.264,vbt_B2_day2,2022.2.4,MacIntel,58.82352941,,,,,,,,,,,,,,,,,,,,,,,,,,,down,0,3.974,,0.214444444,-0.054444444,1,0,0,1.734,0,63,63,64,1,wegen,images/br_wegen.png,images/cb_wegen.png,0,,,,,,,,,,,,,,,,,,,,,,
,,,,,,00051,2023-10-14_15h40.17.264,vbt_B2_day2,2022.2.4,MacIntel,58.82352941,,,,,,,,,,,,,,,,,,,,,,,,,,,down,0,2.5,,0.211111111,-0.057777778,1,0,0,0.484,0,64,64,75,1,snoep,images/br_snoep.png,images/cb_snoep.png,0,,,,,,,,,,,,,,,,,,,,,,
,,,,,,00051,2023-10-14_15h40.17.264,vbt_B2_day2,2022.2.4,MacIntel,58.82352941,,,,,,,,,,,,,,,,,,,,,,,,,,,down,0,6.569,,0.21,-0.047777778,1,0,0,2.701,0,65,65,191,1,opheffen,images/br_opheffen.png,images/cb_opheffen.png,0,,,,,,,,,,,,,,,,,,,,,,
,,,,,,00051,2023-10-14_15h40.17.264,vbt_B2_day2,2022.2.4,MacIntel,58.82352941,,,,,,,,,,,,,,,,,,,,,,,,,,,down,0,5.04,,0.235555556,0.001111111,1,0,0,0.699,0,66,66,116,1,besmet,images/br_besmet.png,images/cb_besmet.png,0,,,,,,,,,,,,,,,,,,,,,,
,,,,,,00051,2023-10-14_15h40.17.264,vbt_B2_day2,2022.2.4,MacIntel,58.82352941,,,,,,,,,,,,,,,,,,,,,,,,,,,down,0,4.173,,0.217777778,-0.008888889,1,0,0,0.701,0,67,67,183,1,getuigen,images/br_getuigen.png,images/cb_getuigen.png,0,,,,,,,,,,,,,,,,,,,,,,
,,,,,,00051,2023-10-14_15h40.17.264,vbt_B2_day2,2022.2.4,MacIntel,58.82352941,,,,,,,,,,,,,,,,,,,,,,,,,,,down,0,0.489,,0.216666667,-0.006666667,1,0,0,0.417,0,68,68,22,1,stof,images/br_stof.png,images/cb_stof.png,0,,,,,,,,,,,,,,,,,,,,,,
,,,,,,00051,2023-10-14_15h40.17.264,vbt_B2_day2,2022.2.4,MacIntel,58.82352941,,,,,,,,,,,,,,,,,,,,,,,,,,,down,0,2.86,,0.215555556,-0.001111111,1,0,0,0.701,0,69,69,5,1,blad,images/br_blad.png,images/cb_blad.png,0,,,,,,,,,,,,,,,,,,,,,,
,,,,,,00051,2023-10-14_15h40.17.264,vbt_B2_day2,2022.2.4,MacIntel,58.82352941,,,,,,,,,,,,,,,,,,,,,,,,,,,down,0,6.522,,0.205555556,-0.19,1,0,0,0.633,0,70,70,58,1,tekst,images/br_tekst.png,images/cb_tekst.png,1,tekst,,,,,,,,,,,,,,,,,,,,,
,,,,,,00051,2023-10-14_15h40.17.264,vbt_B2_day2,2022.2.4,MacIntel,58.82352941,,,,,,,,,,,,,,,,,,,,,,,,,,,down,0,6.488,,0.205555556,-0.19,1,0,0,0.416,0,71,71,129,1,verhaal,images/br_verhaal.png,images/cb_verhaal.png,0,,,,,,,,,,,,,,,,,,,,,,
,,,,,,00051,2023-10-14_15h40.17.264,vbt_B2_day2,2022.2.4,MacIntel,58.82352941,,,,,,,,,,,,,,,,,,,,,,,,,,,down,0,3.806,,0.176666667,-0.27,1,0,0,0.583,0,72,72,148,1,smullen,images/br_smullen.png,images/cb_smullen.png,0,,,,,,,,,,,,,,,,,,,,,,
,,,,,,00051,2023-10-14_15h40.17.264,vbt_B2_day2,2022.2.4,MacIntel,58.82352941,,,,,,,,,,,,,,,,,,,,,,,,,,,down,0,8.941,,0.176666667,-0.272222222,1,0,0,2.301,0,73,73,130,1,keihard,images/br_keihard.png,images/cb_keihard.png,0,,,,,,,,,,,,,,,,,,,,,,
,,,,,,00051,2023-10-14_15h40.17.264,vbt_B2_day2,2022.2.4,MacIntel,58.82352941,,,,,,,,,,,,,,,,,,,,,,,,,,,down,0,2.99,,0.205555556,-0.205555556,1,0,0,1.201,0,74,74,66,1,lever,images/br_lever.png,images/cb_lever.png,0,,,,,,,,,,,,,,,,,,,,,,
,,,,,,00051,2023-10-14_15h40.17.264,vbt_B2_day2,2022.2.4,MacIntel,58.82352941,,,,,,,,,,,,,,,,,,,,,,,,,,,down,0,5.602,,0.203333333,-0.208888889,1,0,0,0.435,0,75,75,53,1,baron,images/br_baron.png,images/cb_baron.png,0,,,,,,,,,,,,,,,,,,,,,,
,,,,,,00051,2023-10-14_15h40.17.264,vbt_B2_day2,2022.2.4,MacIntel,58.82352941,,,,,,,,,,,,,,,,,,,,,,,,,,,down,0,5.538,,0.212222222,-0.193333333,1,0,0,0.433,0,76,76,104,1,zweven,images/br_zweven.png,images/cb_zweven.png,0,,,,,,,,,,,,,,,,,,,,,,
,,,,,,00051,2023-10-14_15h40.17.264,vbt_B2_day2,2022.2.4,MacIntel,58.82352941,,,,,,,,,,,,,,,,,,,,,,,,,,,down,0,3.954,,0.213333333,-0.193333333,1,0,0,0.868,0,77,77,70,1,ijdel,images/br_ijdel.png,images/cb_ijdel.png,0,,,,,,,,,,,,,,,,,,,,,,
,,,,,,00051,2023-10-14_15h40.17.264,vbt_B2_day2,2022.2.4,MacIntel,58.82352941,,,,,,,,,,,,,,,,,,,,,,,,,,,down,0,2.204,,0.207777778,-0.19,1,0,0,0.566,0,78,78,40,1,schep,images/br_schep.png,images/cb_schep.png,0,,,,,,,,,,,,,,,,,,,,,,
,,,,,,00051,2023-10-14_15h40.17.264,vbt_B2_day2,2022.2.4,MacIntel,58.82352941,,,,,,,,,,,,,,,,,,,,,,,,,,,down,0,0.976,,0.197777778,-0.178888889,1,0,0,0.85,0,79,79,117,1,kennis,images/br_kennis.png,images/cb_kennis.png,0,,,,,,,,,,,,,,,,,,,,,,
,,,,,,00051,2023-10-14_15h40.17.264,vbt_B2_day2,2022.2.4,MacIntel,58.82352941,,,,,,,,,,,,,,,,,,,,,,,,,,,down,0,2.923,,0.197777778,-0.182222222,1,0,0,0.416,0,80,80,115,1,kleren,images/br_kleren.png,images/cb_kleren.png,0,,,,,,,,,,,,,,,,,,,,,,
,,,,,,00051,2023-10-14_15h40.17.264,vbt_B2_day2,2022.2.4,MacIntel,58.82352941,,,,,,,,,,,,,,,,,,,,,,,,,,,down,0,0.386,,0.228888889,-0.154444444,1,0,0,1.001,0,81,81,28,1,stal,images/br_stal.png,images/cb_stal.png,0,,,,,,,,,,,,,,,,,,,,,,
,,,,,,00051,2023-10-14_15h40.17.264,vbt_B2_day2,2022.2.4,MacIntel,58.82352941,,,,,,,,,,,,,,,,,,,,,,,,,,,down,0,3.651,,0.256666667,-0.201111111,1,0,0,0.532,0,82,82,177,1,maaltijd,images/br_maaltijd.png,images/cb_maaltijd.png,1,maaltijd,,,,,,,,,,,,,,,,,,,,,
,,,,,,00051,2023-10-14_15h40.17.264,vbt_B2_day2,2022.2.4,MacIntel,58.82352941,,,,,,,,,,,,,,,,,,,,,,,,,,,down,0,2.509,,0.255555556,-0.201111111,1,0,0,2.25,0,83,83,26,1,leuk,images/br_leuk.png,images/cb_leuk.png,0,,,,,,,,,,,,,,,,,,,,,,
,,,,,,00051,2023-10-14_15h40.17.264,vbt_B2_day2,2022.2.4,MacIntel,58.82352941,,,,,,,,,,,,,,,,,,,,,,,,,,,down,0,0.659,,0.25,-0.201111111,1,0,0,0.434,0,84,84,3,1,mand,images/br_mand.png,images/cb_mand.png,0,,,,,,,,,,,,,,,,,,,,,,
,,,,,,00051,2023-10-14_15h40.17.264,vbt_B2_day2,2022.2.4,MacIntel,58.82352941,,,,,,,,,,,,,,,,,,,,,,,,,,,down,0,0.289,,0.304444444,-0.184444444,1,0,0,0.434,0,85,85,50,1,stoom,images/br_stoom.png,images/cb_stoom.png,0,,,,,,,,,,,,,,,,,,,,,,
,,,,,,00051,2023-10-14_15h40.17.264,vbt_B2_day2,2022.2.4,MacIntel,58.82352941,,,,,,,,,,,,,,,,,,,,,,,,,,,down,0,4.291,,0.465555556,-0.202222222,1,0,0,0.332,0,86,86,138,1,akkoord,images/br_akkoord.png,images/cb_akkoord.png,1,akkoord,,,,,,,,,,,,,,,,,,,,,
,,,,,,00051,2023-10-14_15h40.17.264,vbt_B2_day2,2022.2.4,MacIntel,58.82352941,,,,,,,,,,,,,,,,,,,,,,,,,,,down,0,13.76,,0.48,-0.187777778,1,0,0,0.801,0,87,87,179,1,woestijn,images/br_woestijn.png,images/cb_woestijn.png,1,woestijn,,,,,,,,,,,,,,,,,,,,,
,,,,,,00051,2023-10-14_15h40.17.264,vbt_B2_day2,2022.2.4,MacIntel,58.82352941,,,,,,,,,,,,,,,,,,,,,,,,,,,down,0,7.358,,0.48,-0.175555556,1,0,0,0.634,0,88,88,69,1,waken,images/br_waken.png,images/cb_waken.png,0,,,,,,,,,,,,,,,,,,,,,,
,,,,,,00051,2023-10-14_15h40.17.264,vbt_B2_day2,2022.2.4,MacIntel,58.82352941,,,,,,,,,,,,,,,,,,,,,,,,,,,down,0,19.921,,0.407777778,-0.076666667,1,0,0,2.65,0,89,89,164,1,anarchie,images/br_anarchie.png,images/cb_anarchie.png,0,,,,,,,,,,,,,,,,,,,,,,
,,,,,,00051,2023-10-14_15h40.17.264,vbt_B2_day2,2022.2.4,MacIntel,58.82352941,,,,,,,,,,,,,,,,,,,,,,,,,,,down,0,4.385,,0.407777778,-0.087777778,1,0,0,0.966,0,90,90,91,1,gezond,images/br_gezond.png,images/cb_gezond.png,0,,,,,,,,,,,,,,,,,,,,,,
,,,,,,00051,2023-10-14_15h40.17.264,vbt_B2_day2,2022.2.4,MacIntel,58.82352941,,,,,,,,,,,,,,,,,,,,,,,,,,,down,0,7.523,,0.304444444,-0.191111111,1,0,0,0.466,0,91,91,176,1,techniek,images/br_techniek.png,images/cb_techniek.png,1,techniek,,,,,,,,,,,,,,,,,,,,,
,,,,,,00051,2023-10-14_15h40.17.264,vbt_B2_day2,2022.2.4,MacIntel,58.82352941,,,,,,,,,,,,,,,,,,,,,,,,,,,down,0,4.599,,0.304444444,-0.145555556,1,0,0,0.349,0,92,92,182,1,bijkomen,images/br_bijkomen.png,images/cb_bijkomen.png,0,,,,,,,,,,,,,,,,,,,,,,
,,,,,,00051,2023-10-14_15h40.17.264,vbt_B2_day2,2022.2.4,MacIntel,58.82352941,,,,,,,,,,,,,,,,,,,,,,,,,,,down,0,2.467,,0.575555556,-0.134444444,1,0,0,0.466,0,93,93,56,1,traag,images/br_traag.png,images/cb_traag.png,1,traag,,,,,,,,,,,,,,,,,,,,,
,,,,,,00051,2023-10-14_15h40.17.264,vbt_B2_day2,2022.2.4,MacIntel,58.82352941,,,,,,,,,,,,,,,,,,,,,,,,,,,down,0,0.856,,0.437777778,-0.057777778,1,0,0,0.367,0,94,94,13,1,kaal,images/br_kaal.png,images/cb_kaal.png,0,,,,,,,,,,,,,,,,,,,,,,
,,,,,,00051,2023-10-14_15h40.17.264,vbt_B2_day2,2022.2.4,MacIntel,58.82352941,,,,,,,,,,,,,,,,,,,,,,,,,,,down,0,0.51,,0.435555556,-0.056666667,1,0,0,0.483,0,95,95,42,1,bleek,images/br_bleek.png,images/cb_bleek.png,0,,,,,,,,,,,,,,,,,,,,,,
,,,,,,00051,2023-10-14_15h40.17.264,vbt_B2_day2,2022.2.4,MacIntel,58.82352941,,,,,,,,,,,,,,,,,,,,,,,,,,,down,0,2.886,,0.233333333,-0.101111111,1,0,0,0.334,0,96,96,52,1,wagon,images/br_wagon.png,images/cb_wagon.png,0,,,,,,,,,,,,,,,,,,,,,,
,,,,,,00051,2023-10-14_15h40.17.264,vbt_B2_day2,2022.2.4,MacIntel,58.82352941,,,,,,,,,,,,,,,,,,,,,,,,,,,down,0,1.837,,0.233333333,-0.101111111,1,0,0,0.433,0,97,97,134,1,geliefd,images/br_geliefd.png,images/cb_geliefd.png,0,,,,,,,,,,,,,,,,,,,,,,
,,,,,,00051,2023-10-14_15h40.17.264,vbt_B2_day2,2022.2.4,MacIntel,58.82352941,,,,,,,,,,,,,,,,,,,,,,,,,,,down,0,4.233,,0.251111111,-0.097777778,1,0,0,1.651,0,98,98,165,1,feestdag,images/br_feestdag.png,images/cb_feestdag.png,0,,,,,,,,,,,,,,,,,,,,,,
,,,,,,00051,2023-10-14_15h40.17.264,vbt_B2_day2,2022.2.4,MacIntel,58.82352941,,,,,,,,,,,,,,,,,,,,,,,,,,,down,0,3.883,,0.252222222,-0.083333333,1,0,0,0.766,0,99,99,149,1,redding,images/br_redding.png,images/cb_redding.png,0,,,,,,,,,,,,,,,,,,,,,,
,,,,,,00051,2023-10-14_15h40.17.264,vbt_B2_day2,2022.2.4,MacIntel,58.82352941,,,,,,,,,,,,,,,,,,,,,,,,,,,down,0,10.533,,0.237777778,-0.087777778,1,0,0,0.934,0,100,100,186,1,voorraad,images/br_voorraad.png,images/cb_voorraad.png,0,,,,,,,,,,,,,,,,,,,,,,
,,,,,,00051,2023-10-14_15h40.17.264,vbt_B2_day2,2022.2.4,MacIntel,58.82352941,,,,,,,,,,,,,,,,,,,,,,,,,,,down,0,2.351,,0.234444444,-0.077777778,1,0,0,0.617,0,101,101,197,1,spanning,images/br_spanning.png,images/cb_spanning.png,0,,,,,,,,,,,,,,,,,,,,,,
,,,,,,00051,2023-10-14_15h40.17.264,vbt_B2_day2,2022.2.4,MacIntel,58.82352941,,,,,,,,,,,,,,,,,,,,,,,,,,,down,0,4.616,,0.254444444,-0.044444444,1,0,0,0.784,0,102,102,105,1,wijlen,images/br_wijlen.png,images/cb_wijlen.png,0,,,,,,,,,,,,,,,,,,,,,,
,,,,,,00051,2023-10-14_15h40.17.264,vbt_B2_day2,2022.2.4,MacIntel,58.82352941,,,,,,,,,,,,,,,,,,,,,,,,,,,down,0,6.771,,0.211111111,-0.035555556,1,0,0,0.45,0,103,103,33,1,vlek,images/br_vlek.png,images/cb_vlek.png,0,,,,,,,,,,,,,,,,,,,,,,
,,,,,,00051,2023-10-14_15h40.17.264,vbt_B2_day2,2022.2.4,MacIntel,58.82352941,,,,,,,,,,,,,,,,,,,,,,,,,,,down,0,0.802,,0.211111111,-0.035555556,1,0,0,0.699,0,104,104,29,1,baas,images/br_baas.png,images/cb_baas.png,0,,,,,,,,,,,,,,,,,,,,,,
,,,,,,00051,2023-10-14_15h40.17.264,vbt_B2_day2,2022.2.4,MacIntel,58.82352941,,,,,,,,,,,,,,,,,,,,,,,,,,,down,0,3.169,,0.237777778,-0.012222222,1,0,0,0.616,0,105,105,62,1,knaap,images/br_knaap.png,images/cb_knaap.png,0,,,,,,,,,,,,,,,,,,,,,,
,,,,,,00051,2023-10-14_15h40.17.264,vbt_B2_day2,2022.2.4,MacIntel,58.82352941,,,,,,,,,,,,,,,,,,,,,,,,,,,down,0,2.918,,0.237777778,-0.004444444,1,0,0,0.467,0,106,106,82,1,muziek,images/br_muziek.png,images/cb_muziek.png,0,,,,,,,,,,,,,,,,,,,,,,
,,,,,,00051,2023-10-14_15h40.17.264,vbt_B2_day2,2022.2.4,MacIntel,58.82352941,,,,,,,,,,,,,,,,,,,,,,,,,,,down,0,4.993,,0.222222222,-0.118888889,1,0,0,3.5,0,107,107,151,1,aanzoek,images/br_aanzoek.png,images/cb_aanzoek.png,0,,,,,,,,,,,,,,,,,,,,,,
,,,,,,00051,2023-10-14_15h40.17.264,vbt_B2_day2,2022.2.4,MacIntel,58.82352941,,,,,,,,,,,,,,,,,,,,,,,,,,,down,0,1.199,,0.222222222,-0.118888889,1,0,0,0.432,0,108,108,68,1,schat,images/br_schat.png,images/cb_schat.png,0,,,,,,,,,,,,,,,,,,,,,,
,,,,,,00051,2023-10-14_15h40.17.264,vbt_B2_day2,2022.2.4,MacIntel,58.82352941,,,,,,,,,,,,,,,,,,,,,,,,,,,down,0,6.257,,0.215555556,-0.096666667,1,0,0,0.534,0,109,109,103,1,joggen,images/br_joggen.png,images/cb_joggen.png,0,,,,,,,,,,,,,,,,,,,,,,
,,,,,,00051,2023-10-14_15h40.17.264,vbt_B2_day2,2022.2.4,MacIntel,58.82352941,,,,,,,,,,,,,,,,,,,,,,,,,,,down,0,2.571,,0.203333333,-0.116666667,1,0,0,0.45,0,110,110,199,1,beseffen,images/br_beseffen.png,images/cb_beseffen.png,0,,,,,,,,,,,,,,,,,,,,,,
,,,,,,00051,2023-10-14_15h40.17.264,vbt_B2_day2,2022.2.4,MacIntel,58.82352941,,,,,,,,,,,,,,,,,,,,,,,,,,,down,0,0.807,,0.203333333,-0.116666667,1,0,0,0.517,0,111,111,171,1,aarzelen,images/br_aarzelen.png,images/cb_aarzelen.png,0,,,,,,,,,,,,,,,,,,,,,,
,,,,,,00051,2023-10-14_15h40.17.264,vbt_B2_day2,2022.2.4,MacIntel,58.82352941,,,,,,,,,,,,,,,,,,,,,,,,,,,down,0,5.342,,0.482222222,0.067777778,1,0,0,0.416,0,112,112,97,1,loyaal,images/br_loyaal.png,images/cb_loyaal.png,1,loyaal,,,,,,,,,,,,,,,,,,,,,
,,,,,,00051,2023-10-14_15h40.17.264,vbt_B2_day2,2022.2.4,MacIntel,58.82352941,,,,,,,,,,,,,,,,,,,,,,,,,,,down,0,17.386,,0.296666667,-0.122222222,1,0,0,2.851,0,113,113,85,1,heilig,images/br_heilig.png,images/cb_heilig.png,0,,,,,,,,,,,,,,,,,,,,,,
,,,,,,00051,2023-10-14_15h40.17.264,vbt_B2_day2,2022.2.4,MacIntel,58.82352941,,,,,,,,,,,,,,,,,,,,,,,,,,,down,0,8.07,,0.295555556,-0.122222222,1,0,0,0.401,0,114,114,81,1,dubbel,images/br_dubbel.png,images/cb_dubbel.png,0,,,,,,,,,,,,,,,,,,,,,,
,,,,,,00051,2023-10-14_15h40.17.264,vbt_B2_day2,2022.2.4,MacIntel,58.82352941,,,,,,,,,,,,,,,,,,,,,,,,,,,down,0,3.002,,0.266666667,-0.157777778,1,0,0,0.633,0,115,115,128,1,prikken,images/br_prikken.png,images/cb_prikken.png,0,,,,,,,,,,,,,,,,,,,,,,
,,,,,,00051,2023-10-14_15h40.17.264,vbt_B2_day2,2022.2.4,MacIntel,58.82352941,,,,,,,,,,,,,,,,,,,,,,,,,,,down,0,5.509,,0.353333333,-0.285555556,1,0,0,0.499,0,116,116,137,1,trekker,images/br_trekker.png,images/cb_trekker.png,1,trekker,,,,,,,,,,,,,,,,,,,,,
,,,,,,00051,2023-10-14_15h40.17.264,vbt_B2_day2,2022.2.4,MacIntel,58.82352941,,,,,,,,,,,,,,,,,,,,,,,,,,,down,0,3.568,,0.351111111,-0.253333333,1,0,0,3.316,0,117,117,111,1,ticket,images/br_ticket.png,images/cb_ticket.png,0,,,,,,,,,,,,,,,,,,,,,,
,,,,,,00051,2023-10-14_15h40.17.264,vbt_B2_day2,2022.2.4,MacIntel,58.82352941,,,,,,,,,,,,,,,,,,,,,,,,,,,down,0,7.744,,0.242222222,-0.175555556,1,0,0,0.552,0,118,118,158,1,innemen,images/br_innemen.png,images/cb_innemen.png,0,,,,,,,,,,,,,,,,,,,,,,
,,,,,,00051,2023-10-14_15h40.17.264,vbt_B2_day2,2022.2.4,MacIntel,58.82352941,,,,,,,,,,,,,,,,,,,,,,,,,,,down,0,3.777,,0.242222222,-0.175555556,1,0,0,0.55,0,119,119,160,1,daarheen,images/br_daarheen.png,images/cb_daarheen.png,0,,,,,,,,,,,,,,,,,,,,,,
,,,,,,00051,2023-10-14_15h40.17.264,vbt_B2_day2,2022.2.4,MacIntel,58.82352941,,,,,,,,,,,,,,,,,,,,,,,,,,,down,0,11.088,,0.244444444,-0.137777778,1,0,0,1.934,0,120,120,34,1,vorm,images/br_vorm.png,images/cb_vorm.png,0,,,,,,,,,,,,,,,,,,,,,,
,,,,,,00051,2023-10-14_15h40.17.264,vbt_B2_day2,2022.2.4,MacIntel,58.82352941,,,,,,,,,,,,,,,,,,,,,,,,,,,down,0,8.29,,0.244444444,-0.137777778,1,0,0,0.716,0,121,121,92,1,geheim,images/br_geheim.png,images/cb_geheim.png,0,,,,,,,,,,,,,,,,,,,,,,
,,,,,,00051,2023-10-14_15h40.17.264,vbt_B2_day2,2022.2.4,MacIntel,58.82352941,,,,,,,,,,,,,,,,,,,,,,,,,,,down,0,5.394,,0.257777778,-0.133333333,1,0,0,0.917,0,122,122,110,1,zuster,images/br_zuster.png,images/cb_zuster.png,0,,,,,,,,,,,,,,,,,,,,,,
,,,,,,00051,2023-10-14_15h40.17.264,vbt_B2_day2,2022.2.4,MacIntel,58.82352941,,,,,,,,,,,,,,,,,,,,,,,,,,,down,0,1.153,,0.287777778,-0.163333333,1,0,0,0.599,0,123,123,19,1,geit,images/br_geit.png,images/cb_geit.png,1,geit,,,,,,,,,,,,,,,,,,,,,
,,,,,,00051,2023-10-14_15h40.17.264,vbt_B2_day2,2022.2.4,MacIntel,58.82352941,,,,,,,,,,,,,,,,,,,,,,,,,,,down,0,3.125,,0.287777778,-0.161111111,1,0,0,0.618,0,124,124,67,1,zwart,images/br_zwart.png,images/cb_zwart.png,0,,,,,,,,,,,,,,,,,,,,,,
,,,,,,00051,2023-10-14_15h40.17.264,vbt_B2_day2,2022.2.4,MacIntel,58.82352941,,,,,,,,,,,,,,,,,,,,,,,,,,,down,0,7.187,,0.257777778,-0.22,1,0,0,0.717,0,125,125,136,1,waarbij,images/br_waarbij.png,images/cb_waarbij.png,1,waarbij,,,,,,,,,,,,,,,,,,,,,
,,,,,,00051,2023-10-14_15h40.17.264,vbt_B2_day2,2022.2.4,MacIntel,58.82352941,,,,,,,,,,,,,,,,,,,,,,,,,,,down,0,13.321,,0.285555556,-0.126666667,1,0,0,0.418,0,126,126,143,1,hechten,images/br_hechten.png,images/cb_hechten.png,0,,,,,,,,,,,,,,,,,,,,,,
,,,,,,00051,2023-10-14_15h40.17.264,vbt_B2_day2,2022.2.4,MacIntel,58.82352941,,,,,,,,,,,,,,,,,,,,,,,,,,,down,0,0.353,,0.285555556,-0.126666667,1,0,0,0.433,0,127,127,25,1,plek,images/br_plek.png,images/cb_plek.png,0,,,,,,,,,,,,,,,,,,,,,,
,,,,,,00051,2023-10-14_15h40.17.264,vbt_B2_day2,2022.2.4,MacIntel,58.82352941,,,,,,,,,,,,,,,,,,,,,,,,,,,down,0,3.377,,0.41,-0.117777778,1,0,0,0.667,0,128,128,59,1,kring,images/br_kring.png,images/cb_kring.png,1,kring,,,,,,,,,,,,,,,,,,,,,
,,,,,,00051,2023-10-14_15h40.17.264,vbt_B2_day2,2022.2.4,MacIntel,58.82352941,,,,,,,,,,,,,,,,,,,,,,,,,,,down,0,5.493,,0.391111111,-0.148888889,1,0,0,0.418,0,129,129,144,1,eetlust,images/br_eetlust.png,images/cb_eetlust.png,0,,,,,,,,,,,,,,,,,,,,,,
,,,,,,00051,2023-10-14_15h40.17.264,vbt_B2_day2,2022.2.4,MacIntel,58.82352941,,,,,,,,,,,,,,,,,,,,,,,,,,,down,0,2.16,,0.391111111,-0.148888889,1,0,0,0.567,0,130,130,47,1,kabel,images/br_kabel.png,images/cb_kabel.png,0,,,,,,,,,,,,,,,,,,,,,,
,,,,,,00051,2023-10-14_15h40.17.264,vbt_B2_day2,2022.2.4,MacIntel,58.82352941,,,,,,,,,,,,,,,,,,,,,,,,,,,down,0,2.703,,0.391111111,-0.148888889,1,0,0,0.466,0,131,131,157,1,uitlaat,images/br_uitlaat.png,images/cb_uitlaat.png,0,,,,,,,,,,,,,,,,,,,,,,
,,,,,,00051,2023-10-14_15h40.17.264,vbt_B2_day2,2022.2.4,MacIntel,58.82352941,,,,,,,,,,,,,,,,,,,,,,,,,,,down,0,0.974,,0.391111111,-0.148888889,1,0,0,0.501,0,132,132,54,1,gebit,images/br_gebit.png,images/cb_gebit.png,0,,,,,,,,,,,,,,,,,,,,,,
,,,,,,00051,2023-10-14_15h40.17.264,vbt_B2_day2,2022.2.4,MacIntel,58.82352941,,,,,,,,,,,,,,,,,,,,,,,,,,,down,0,8.791,,0.486666667,-0.142222222,1,0,0,0.516,0,133,133,178,1,huisdier,images/br_huisdier.png,images/cb_huisdier.png,1,huisdier,,,,,,,,,,,,,,,,,,,,,
,,,,,,00051,2023-10-14_15h40.17.264,vbt_B2_day2,2022.2.4,MacIntel,58.82352941,,,,,,,,,,,,,,,,,,,,,,,,,,,down,0,8.86,,0.421111111,-0.121111111,1,0,0,0.551,0,134,134,90,1,geluid,images/br_geluid.png,images/cb_geluid.png,0,,,,,,,,,,,,,,,,,,,,,,
,,,,,,00051,2023-10-14_15h40.17.264,vbt_B2_day2,2022.2.4,MacIntel,58.82352941,,,,,,,,,,,,,,,,,,,,,,,,,,,down,0,5.284,,0.421111111,-0.114444444,1,0,0,2.05,0,135,135,94,1,oceaan,images/br_oceaan.png,images/cb_oceaan.png,0,,,,,,,,,,,,,,,,,,,,,,
,,,,,,00051,2023-10-14_15h40.17.264,vbt_B2_day2,2022.2.4,MacIntel,58.82352941,,,,,,,,,,,,,,,,,,,,,,,,,,,down,0,0.993,,0.423333333,-0.097777778,1,0,0,0.65,0,136,136,4,1,moes,images/br_moes.png,images/cb_moes.png,0,,,,,,,,,,,,,,,,,,,,,,
,,,,,,00051,2023-10-14_15h40.17.264,vbt_B2_day2,2022.2.4,MacIntel,58.82352941,,,,,,,,,,,,,,,,,,,,,,,,,,,down,0,13.553,,0.423333333,-0.097777778,1,0,0,0.651,0,137,137,60,1,jasje,images/br_jasje.png,images/cb_jasje.png,0,,,,,,,,,,,,,,,,,,,,,,
,,,,,,00051,2023-10-14_15h40.17.264,vbt_B2_day2,2022.2.4,MacIntel,58.82352941,,,,,,,,,,,,,,,,,,,,,,,,,,,down,0,1.766,,0.423333333,-0.097777778,1,0,0,0.417,0,138,138,89,1,slapen,images/br_slapen.png,images/cb_slapen.png,0,,,,,,,,,,,,,,,,,,,,,,
,,,,,,00051,2023-10-14_15h40.17.264,vbt_B2_day2,2022.2.4,MacIntel,58.82352941,,,,,,,,,,,,,,,,,,,,,,,,,,,down,0,4.707,,0.423333333,-0.097777778,1,0,0,0.45,0,139,139,195,1,middelen,images/br_middelen.png,images/cb_middelen.png,0,,,,,,,,,,,,,,,,,,,,,,
,,,,,,00051,2023-10-14_15h40.17.264,vbt_B2_day2,2022.2.4,MacIntel,58.82352941,,,,,,,,,,,,,,,,,,,,,,,,,,,down,0,4.766,,0.432222222,-0.092222222,1,0,0,0.634,0,140,140,167,1,eenhoorn,images/br_eenhoorn.png,images/cb_eenhoorn.png,0,,,,,,,,,,,,,,,,,,,,,,
,,,,,,00051,2023-10-14_15h40.17.264,vbt_B2_day2,2022.2.4,MacIntel,58.82352941,,,,,,,,,,,,,,,,,,,,,,,,,,,down,0,3.815,,0.432222222,-0.092222222,1,0,0,0.75,0,141,141,131,1,opzicht,images/br_opzicht.png,images/cb_opzicht.png,0,,,,,,,,,,,,,,,,,,,,,,
,,,,,,00051,2023-10-14_15h40.17.264,vbt_B2_day2,2022.2.4,MacIntel,58.82352941,,,,,,,,,,,,,,,,,,,,,,,,,,,down,0,3.557,,0.435555556,-0.038888889,1,0,0,0.701,0,142,142,147,1,komisch,images/br_komisch.png,images/cb_komisch.png,0,,,,,,,,,,,,,,,,,,,,,,
,,,,,,00051,2023-10-14_15h40.17.264,vbt_B2_day2,2022.2.4,MacIntel,58.82352941,,,,,,,,,,,,,,,,,,,,,,,,,,,down,0,2.092,,0.44,-0.016666667,1,0,0,0.433,0,143,143,46,1,jagen,images/br_jagen.png,images/cb_jagen.png,0,,,,,,,,,,,,,,,,,,,,,,
,,,,,,00051,2023-10-14_15h40.17.264,vbt_B2_day2,2022.2.4,MacIntel,58.82352941,,,,,,,,,,,,,,,,,,,,,,,,,,,down,0,1.724,,0.438888889,-0.006666667,1,0,0,0.467,0,144,144,192,1,schaamte,images/br_schaamte.png,images/cb_schaamte.png,0,,,,,,,,,,,,,,,,,,,,,,
,,,,,,00051,2023-10-14_15h40.17.264,vbt_B2_day2,2022.2.4,MacIntel,58.82352941,,,,,,,,,,,,,,,,,,,,,,,,,,,down,0,4.72,,0.438888889,-0.005555556,1,0,0,0.666,0,145,145,95,1,vreten,images/br_vreten.png,images/cb_vreten.png,0,,,,,,,,,,,,,,,,,,,,,,
,,,,,,00051,2023-10-14_15h40.17.264,vbt_B2_day2,2022.2.4,MacIntel,58.82352941,,,,,,,,,,,,,,,,,,,,,,,,,,,down,0,15.653,,0.438888889,-0.005555556,1,0,0,0.434,0,146,146,79,1,nodig,images/br_nodig.png,images/cb_nodig.png,0,,,,,,,,,,,,,,,,,,,,,,
,,,,,,00051,2023-10-14_15h40.17.264,vbt_B2_day2,2022.2.4,MacIntel,58.82352941,,,,,,,,,,,,,,,,,,,,,,,,,,,down,0,2,,0.445555556,0.023333333,1,0,0,0.466,0,147,147,107,1,maling,images/br_maling.png,images/cb_maling.png,0,,,,,,,,,,,,,,,,,,,,,,
,,,,,,00051,2023-10-14_15h40.17.264,vbt_B2_day2,2022.2.4,MacIntel,58.82352941,,,,,,,,,,,,,,,,,,,,,,,,,,,down,0,4.738,,0.501111111,0.126666667,1,0,0,0.466,0,148,148,173,1,apparaat,images/br_apparaat.png,images/cb_apparaat.png,0,,,,,,,,,,,,,,,,,,,,,,
,,,,,,00051,2023-10-14_15h40.17.264,vbt_B2_day2,2022.2.4,MacIntel,58.82352941,,,,,,,,,,,,,,,,,,,,,,,,,,,down,0,5.209,,0.405555556,0.013333333,1,0,0,0.8,0,149,149,185,1,mijnheer,images/br_mijnheer.png,images/cb_mijnheer.png,0,,,,,,,,,,,,,,,,,,,,,,
,,,,,,00051,2023-10-14_15h40.17.264,vbt_B2_day2,2022.2.4,MacIntel,58.82352941,,,,,,,,,,,,,,,,,,,,,,,,,,,down,0,1.675,,0.412222222,0.01,1,0,0,0.451,0,150,150,27,1,dans,images/br_dans.png,images/cb_dans.png,0,,,,,,,,,,,,,,,,,,,,,,
,,,,,,00051,2023-10-14_15h40.17.264,vbt_B2_day2,2022.2.4,MacIntel,58.82352941,,,,,,,,,,,,,,,,,,,,,,,,,,,down,0,1.543,,0.412222222,0.01,1,0,0,0.518,0,151,151,31,1,poes,images/br_poes.png,images/cb_poes.png,0,,,,,,,,,,,,,,,,,,,,,,
,,,,,,00051,2023-10-14_15h40.17.264,vbt_B2_day2,2022.2.4,MacIntel,58.82352941,,,,,,,,,,,,,,,,,,,,,,,,,,,down,0,1.951,,0.316666667,-0.01,1,0,0,0.765,0,152,152,37,1,mijn,images/br_mijn.png,images/cb_mijn.png,0,,,,,,,,,,,,,,,,,,,,,,
,,,,,,00051,2023-10-14_15h40.17.264,vbt_B2_day2,2022.2.4,MacIntel,58.82352941,,,,,,,,,,,,,,,,,,,,,,,,,,,down,0,4.974,,0.317777778,-0.01,1,0,0,0.916,0,153,153,122,1,waarvan,images/br_waarvan.png,images/cb_waarvan.png,0,,,,,,,,,,,,,,,,,,,,,,
,,,,,,00051,2023-10-14_15h40.17.264,vbt_B2_day2,2022.2.4,MacIntel,58.82352941,,,,,,,,,,,,,,,,,,,,,,,,,,,down,0,3.943,,0.77,-0.045555556,1,0,0,0.451,0,154,154,98,1,kreeft,images/br_kreeft.png,images/cb_kreeft.png,1,kreeft,,,,,,,,,,,,,,,,,,,,,
,,,,,,00051,2023-10-14_15h40.17.264,vbt_B2_day2,2022.2.4,MacIntel,58.82352941,,,,,,,,,,,,,,,,,,,,,,,,,,,down,0,28.286,,0.61,0.186666667,1,0,0,0.401,0,155,155,88,1,boeien,images/br_boeien.png,images/cb_boeien.png,0,,,,,,,,,,,,,,,,,,,,,,
,,,,,,00051,2023-10-14_15h40.17.264,vbt_B2_day2,2022.2.4,MacIntel,58.82352941,,,,,,,,,,,,,,,,,,,,,,,,,,,down,0,6.758,,0.037777778,-0.14,1,0,0,0.868,0,156,156,44,1,flits,images/br_flits.png,images/cb_flits.png,0,,,,,,,,,,,,,,,,,,,,,,
,,,,,,00051,2023-10-14_15h40.17.264,vbt_B2_day2,2022.2.4,MacIntel,58.82352941,,,,,,,,,,,,,,,,,,,,,,,,,,,down,0,3.769,,0.037777778,-0.14,1,0,0,0.449,0,157,157,24,1,jurk,images/br_jurk.png,images/cb_jurk.png,0,,,,,,,,,,,,,,,,,,,,,,
,,,,,,00051,2023-10-14_15h40.17.264,vbt_B2_day2,2022.2.4,MacIntel,58.82352941,,,,,,,,,,,,,,,,,,,,,,,,,,,down,0,5.141,,0.043333333,-0.134444444,1,0,0,0.566,0,158,158,180,1,openbaar,images/br_openbaar.png,images/cb_openbaar.png,0,,,,,,,,,,,,,,,,,,,,,,
,,,,,,00051,2023-10-14_15h40.17.264,vbt_B2_day2,2022.2.4,MacIntel,58.82352941,,,,,,,,,,,,,,,,,,,,,,,,,,,down,0,1.459,,0.056666667,-0.125555556,1,0,0,0.418,0,159,159,78,1,leren,images/br_leren.png,images/cb_leren.png,0,,,,,,,,,,,,,,,,,,,,,,
,,,,,,00051,2023-10-14_15h40.17.264,vbt_B2_day2,2022.2.4,MacIntel,58.82352941,,,,,,,,,,,,,,,,,,,,,,,,,,,down,0,2.349,,0.056666667,-0.121111111,1,0,0,0.433,0,160,160,32,1,palm,images/br_palm.png,images/cb_palm.png,0,,,,,,,,,,,,,,,,,,,,,,
,,,,,,00051,2023-10-14_15h40.17.264,vbt_B2_day2,2022.2.4,MacIntel,58.82352941,,,,,,,,,,,,,,,,,,,,,,,,,,,down,0,0.685,,0.056666667,-0.115555556,1,0,0,0.45,0,161,161,112,1,lukken,images/br_lukken.png,images/cb_lukken.png,0,,,,,,,,,,,,,,,,,,,,,,
,,,,,,00051,2023-10-14_15h40.17.264,vbt_B2_day2,2022.2.4,MacIntel,58.82352941,,,,,,,,,,,,,,,,,,,,,,,,,,,down,0,5.083,,0.056666667,-0.115555556,1,0,0,0.868,0,162,162,118,1,vinger,images/br_vinger.png,images/cb_vinger.png,0,,,,,,,,,,,,,,,,,,,,,,
,,,,,,00051,2023-10-14_15h40.17.264,vbt_B2_day2,2022.2.4,MacIntel,58.82352941,,,,,,,,,,,,,,,,,,,,,,,,,,,down,0,3.582,,0.056666667,-0.115555556,1,0,0,0.616,0,163,163,155,1,gerucht,images/br_gerucht.png,images/cb_gerucht.png,0,,,,,,,,,,,,,,,,,,,,,,
,,,,,,00051,2023-10-14_15h40.17.264,vbt_B2_day2,2022.2.4,MacIntel,58.82352941,,,,,,,,,,,,,,,,,,,,,,,,,,,down,0,3.168,,0.058888889,-0.115555556,1,0,0,0.767,0,164,164,108,1,excuus,images/br_excuus.png,images/cb_excuus.png,0,,,,,,,,,,,,,,,,,,,,,,
,,,,,,00051,2023-10-14_15h40.17.264,vbt_B2_day2,2022.2.4,MacIntel,58.82352941,,,,,,,,,,,,,,,,,,,,,,,,,,,down,0,1.902,,0.057777778,-0.098888889,1,0,0,0.516,0,165,165,73,1,volop,images/br_volop.png,images/cb_volop.png,0,,,,,,,,,,,,,,,,,,,,,,
,,,,,,00051,2023-10-14_15h40.17.264,vbt_B2_day2,2022.2.4,MacIntel,58.82352941,,,,,,,,,,,,,,,,,,,,,,,,,,,down,0,2.433,,0.058888889,-0.097777778,1,0,0,0.55,0,166,166,150,1,gegeven,images/br_gegeven.png,images/cb_gegeven.png,0,,,,,,,,,,,,,,,,,,,,,,
,,,,,,00051,2023-10-14_15h40.17.264,vbt_B2_day2,2022.2.4,MacIntel,58.82352941,,,,,,,,,,,,,,,,,,,,,,,,,,,down,0,6.138,,0.06,-0.095555556,1,0,0,0.415,0,167,167,8,1,knie,images/br_knie.png,images/cb_knie.png,0,,,,,,,,,,,,,,,,,,,,,,
,,,,,,00051,2023-10-14_15h40.17.264,vbt_B2_day2,2022.2.4,MacIntel,58.82352941,,,,,,,,,,,,,,,,,,,,,,,,,,,down,0,7.161,,0.06,-0.095555556,1,0,0,0.4,0,168,168,153,1,vervoer,images/br_vervoer.png,images/cb_vervoer.png,0,,,,,,,,,,,,,,,,,,,,,,
,,,,,,00051,2023-10-14_15h40.17.264,vbt_B2_day2,2022.2.4,MacIntel,58.82352941,,,,,,,,,,,,,,,,,,,,,,,,,,,down,0,1.885,,0.46,0.13,1,0,0,0.765,0,169,169,17,1,taal,images/br_taal.png,images/cb_taal.png,1,taal,,,,,,,,,,,,,,,,,,,,,
,,,,,,00051,2023-10-14_15h40.17.264,vbt_B2_day2,2022.2.4,MacIntel,58.82352941,,,,,,,,,,,,,,,,,,,,,,,,,,,down,0,4.809,,0.357777778,0.147777778,1,0,0,0.983,0,170,170,45,1,piste,images/br_piste.png,images/cb_piste.png,0,,,,,,,,,,,,,,,,,,,,,,
,,,,,,00051,2023-10-14_15h40.17.264,vbt_B2_day2,2022.2.4,MacIntel,58.82352941,,,,,,,,,,,,,,,,,,,,,,,,,,,down,0,0.05,,0.357777778,0.125555556,1,0,0,0.416,0,171,171,39,1,laag,images/br_laag.png,images/cb_laag.png,0,,,,,,,,,,,,,,,,,,,,,,
,,,,,,00051,2023-10-14_15h40.17.264,vbt_B2_day2,2022.2.4,MacIntel,58.82352941,,,,,,,,,,,,,,,,,,,,,,,,,,,down,0,2.636,,0.335555556,-0.032222222,1,0,0,0.433,0,172,172,86,1,woning,images/br_woning.png,images/cb_woning.png,0,,,,,,,,,,,,,,,,,,,,,,
,,,,,,00051,2023-10-14_15h40.17.264,vbt_B2_day2,2022.2.4,MacIntel,58.82352941,,,,,,,,,,,,,,,,,,,,,,,,,,,down,0,2.633,,0.331111111,0.113333333,1,0,0,0.351,0,173,173,172,1,weigeren,images/br_weigeren.png,images/cb_weigeren.png,0,,,,,,,,,,,,,,,,,,,,,,
,,,,,,00051,2023-10-14_15h40.17.264,vbt_B2_day2,2022.2.4,MacIntel,58.82352941,,,,,,,,,,,,,,,,,,,,,,,,,,,down,0,1.96,,0.321111111,0.01,1,0,0,0.568,0,174,174,23,1,zout,images/br_zout.png,images/cb_zout.png,0,,,,,,,,,,,,,,,,,,,,,,
,,,,,,00051,2023-10-14_15h40.17.264,vbt_B2_day2,2022.2.4,MacIntel,58.82352941,,,,,,,,,,,,,,,,,,,,,,,,,,,down,0,4.027,,0.26,-0.03,1,0,0,1.084,0,175,175,77,1,woede,images/br_woede.png,images/cb_woede.png,0,,,,,,,,,,,,,,,,,,,,,,
,,,,,,00051,2023-10-14_15h40.17.264,vbt_B2_day2,2022.2.4,MacIntel,58.82352941,,,,,,,,,,,,,,,,,,,,,,,,,,,down,0,0.8,,0.268888889,0.005555556,1,0,0,0.4,0,176,176,125,1,aanzien,images/br_aanzien.png,images/cb_aanzien.png,0,,,,,,,,,,,,,,,,,,,,,,
,,,,,,00051,2023-10-14_15h40.17.264,vbt_B2_day2,2022.2.4,MacIntel,58.82352941,,,,,,,,,,,,,,,,,,,,,,,,,,,down,0,19.936,,0.275555556,-0.186666667,1,0,0,0.516,0,177,177,123,1,hiervan,images/br_hiervan.png,images/cb_hiervan.png,0,,,,,,,,,,,,,,,,,,,,,,
,,,,,,00051,2023-10-14_15h40.17.264,vbt_B2_day2,2022.2.4,MacIntel,58.82352941,,,,,,,,,,,,,,,,,,,,,,,,,,,down,0,4.183,,0.312222222,-0.216666667,1,0,0,0.449,0,178,178,187,1,opkijken,images/br_opkijken.png,images/cb_opkijken.png,0,,,,,,,,,,,,,,,,,,,,,,
,,,,,,00051,2023-10-14_15h40.17.264,vbt_B2_day2,2022.2.4,MacIntel,58.82352941,,,,,,,,,,,,,,,,,,,,,,,,,,,down,0,2.768,,0.312222222,-0.216666667,1,0,0,0.483,0,179,179,101,1,staren,images/br_staren.png,images/cb_staren.png,0,,,,,,,,,,,,,,,,,,,,,,
,,,,,,00051,2023-10-14_15h40.17.264,vbt_B2_day2,2022.2.4,MacIntel,58.82352941,,,,,,,,,,,,,,,,,,,,,,,,,,,down,0,10.693,,0.355555556,-0.071111111,1,0,0,0.399,0,180,180,80,1,kanjer,images/br_kanjer.png,images/cb_kanjer.png,0,,,,,,,,,,,,,,,,,,,,,,
,,,,,,00051,2023-10-14_15h40.17.264,vbt_B2_day2,2022.2.4,MacIntel,58.82352941,,,,,,,,,,,,,,,,,,,,,,,,,,,down,0,5.118,,0.346666667,-0.087777778,1,0,0,0.666,0,181,181,159,1,sufferd,images/br_sufferd.png,images/cb_sufferd.png,0,,,,,,,,,,,,,,,,,,,,,,
,,,,,,00051,2023-10-14_15h40.17.264,vbt_B2_day2,2022.2.4,MacIntel,58.82352941,,,,,,,,,,,,,,,,,,,,,,,,,,,down,0,4.017,,0.416666667,0.071111111,1,0,0,0.666,0,182,182,36,1,vuur,images/br_vuur.png,images/cb_vuur.png,0,,,,,,,,,,,,,,,,,,,,,,
,,,,,,00051,2023-10-14_15h40.17.264,vbt_B2_day2,2022.2.4,MacIntel,58.82352941,,,,,,,,,,,,,,,,,,,,,,,,,,,down,0,7.185,,0.418888889,0.077777778,1,0,0,0.883,0,183,183,119,1,liefje,images/br_liefje.png,images/cb_liefje.png,0,,,,,,,,,,,,,,,,,,,,,,
,,,,,,00051,2023-10-14_15h40.17.264,vbt_B2_day2,2022.2.4,MacIntel,58.82352941,,,,,,,,,,,,,,,,,,,,,,,,,,,down,0,3.044,,0.554444444,-0.015555556,1,0,0,0.45,0,184,184,16,1,ziek,images/br_ziek.png,images/cb_ziek.png,1,ziek,,,,,,,,,,,,,,,,,,,,,
,,,,,,00051,2023-10-14_15h40.17.264,vbt_B2_day2,2022.2.4,MacIntel,58.82352941,,,,,,,,,,,,,,,,,,,,,,,,,,,down,0,16.723,,0.168888889,-0.1,1,0,0,3.166,0,185,185,145,1,invloed,images/br_invloed.png,images/cb_invloed.png,0,,,,,,,,,,,,,,,,,,,,,,
,,,,,,00051,2023-10-14_15h40.17.264,vbt_B2_day2,2022.2.4,MacIntel,58.82352941,,,,,,,,,,,,,,,,,,,,,,,,,,,down,0,2.332,,0.171111111,-0.08,1,0,0,0.367,0,186,186,109,1,totaal,images/br_totaal.png,images/cb_totaal.png,0,,,,,,,,,,,,,,,,,,,,,,
,,,,,,00051,2023-10-14_15h40.17.264,vbt_B2_day2,2022.2.4,MacIntel,58.82352941,,,,,,,,,,,,,,,,,,,,,,,,,,,down,0,0.093,,0.171111111,-0.075555556,1,0,0,0.4,0,187,187,35,1,lust,images/br_lust.png,images/cb_lust.png,0,,,,,,,,,,,,,,,,,,,,,,
,,,,,,00051,2023-10-14_15h40.17.264,vbt_B2_day2,2022.2.4,MacIntel,58.82352941,,,,,,,,,,,,,,,,,,,,,,,,,,,down,0,1.883,,0.103333333,-0.081111111,1,0,0,0.499,0,188,188,96,1,slagen,images/br_slagen.png,images/cb_slagen.png,1,slagen,,,,,,,,,,,,,,,,,,,,,
,,,,,,00051,2023-10-14_15h40.17.264,vbt_B2_day2,2022.2.4,MacIntel,58.82352941,,,,,,,,,,,,,,,,,,,,,,,,,,,down,0,5.799,,0.13,-0.168888889,1,0,0,0.8,0,189,189,168,1,bisschop,images/br_bisschop.png,images/cb_bisschop.png,0,,,,,,,,,,,,,,,,,,,,,,
,,,,,,00051,2023-10-14_15h40.17.264,vbt_B2_day2,2022.2.4,MacIntel,58.82352941,,,,,,,,,,,,,,,,,,,,,,,,,,,down,0,4.749,,0.125555556,-0.167777778,1,0,0,3.233,0,190,190,190,1,goedkoop,images/br_goedkoop.png,images/cb_goedkoop.png,0,,,,,,,,,,,,,,,,,,,,,,
,,,,,,00051,2023-10-14_15h40.17.264,vbt_B2_day2,2022.2.4,MacIntel,58.82352941,,,,,,,,,,,,,,,,,,,,,,,,,,,down,0,12.452,,0.128888889,-0.163333333,1,0,0,0.616,0,191,191,106,1,zingen,images/br_zingen.png,images/cb_zingen.png,0,,,,,,,,,,,,,,,,,,,,,,
,,,,,,00051,2023-10-14_15h40.17.264,vbt_B2_day2,2022.2.4,MacIntel,58.82352941,,,,,,,,,,,,,,,,,,,,,,,,,,,down,0,1.292,,0.128888889,-0.163333333,1,0,0,0.567,0,192,192,38,1,baai,images/br_baai.png,images/cb_baai.png,0,,,,,,,,,,,,,,,,,,,,,,
,,,,,,00051,2023-10-14_15h40.17.264,vbt_B2_day2,2022.2.4,MacIntel,58.82352941,,,,,,,,,,,,,,,,,,,,,,,,,,,down,0,0.071,,0.132222222,-0.153333333,1,0,0,0.417,0,193,193,1,1,zaal,images/br_zaal.png,images/cb_zaal.png,0,,,,,,,,,,,,,,,,,,,,,,
,,,,,,00051,2023-10-14_15h40.17.264,vbt_B2_day2,2022.2.4,MacIntel,58.82352941,,,,,,,,,,,,,,,,,,,,,,,,,,,down,0,2.026,,0.132222222,-0.153333333,1,0,0,0.433,0,194,194,154,1,aflopen,images/br_aflopen.png,images/cb_aflopen.png,0,,,,,,,,,,,,,,,,,,,,,,
,,,,,,00051,2023-10-14_15h40.17.264,vbt_B2_day2,2022.2.4,MacIntel,58.82352941,,,,,,,,,,,,,,,,,,,,,,,,,,,down,0,4.477,,0.132222222,-0.153333333,1,0,0,1.133,0,195,195,71,1,bever,images/br_bever.png,images/cb_bever.png,0,,,,,,,,,,,,,,,,,,,,,,
,,,,,,00051,2023-10-14_15h40.17.264,vbt_B2_day2,2022.2.4,MacIntel,58.82352941,,,,,,,,,,,,,,,,,,,,,,,,,,,down,0,1.501,,0.134444444,-0.142222222,1,0,0,0.383,0,196,196,170,1,schatten,images/br_schatten.png,images/cb_schatten.png,0,,,,,,,,,,,,,,,,,,,,,,
,,,,,,00051,2023-10-14_15h40.17.264,vbt_B2_day2,2022.2.4,MacIntel,58.82352941,,,,,,,,,,,,,,,,,,,,,,,,,,,down,0,4.299,,0.134444444,-0.134444444,1,0,0,0.366,0,197,197,114,1,vullen,images/br_vullen.png,images/cb_vullen.png,0,,,,,,,,,,,,,,,,,,,,,,
,,,,,,00051,2023-10-14_15h40.17.264,vbt_B2_day2,2022.2.4,MacIntel,58.82352941,,,,,,,,,,,,,,,,,,,,,,,,,,,down,0,3.204,,0.134444444,-0.157777778,1,0,0,0.55,0,198,198,146,1,opkomen,images/br_opkomen.png,images/cb_opkomen.png,0,,,,,,,,,,,,,,,,,,,,,,
,,,,,,00051,2023-10-14_15h40.17.264,vbt_B2_day2,2022.2.4,MacIntel,58.82352941,,,,,,,,,,,,,,,,,,,,,,,,,,,down,0,1.908,,0.225555556,-0.106666667,1,0,0,0.5,0,199,199,57,1,steek,images/br_steek.png,images/cb_steek.png,1,steek,,,,,,,,,,,,,,,,,,,,,
,,,,,,00051,2023-10-14_15h40.17.264,vbt_B2_day2,2022.2.4,MacIntel,58.82352941,,,,,,,,,,,,,,,,,,,,,,,,,,,,,,,,,,,,,,,,,,,,,,,0.11,-0.108888889,1,0,0,,,,,,,,,,,,,,,,
,,,,,,00051,2023-10-14_15h40.17.264,vbt_B2_day2,2022.2.4,MacIntel,58.82352941,,,,,,,,,,,,,,,,,,,,,,,,,,,,,,,,,,,,,,,,,,,,,,,,,,,,0.11,-0.108888889,1,0,0,,,,,,,,,,,
,,,,,,00051,2023-10-14_15h40.17.264,vbt_B2_day2,2022.2.4,MacIntel,58.82352941,,,,,,,,,,,,,,,,,,,,,,,,,,,,,,,,,,,,,,,,,,aanvraag,images/br_aanvraag.png,images/cb_aanvraag.png,,aanraken,,,,,,,,,,,0.42,-0.194444444,1,0,0,aanraken,0,0,0,57,1
,,,,,,00051,2023-10-14_15h40.17.264,vbt_B2_day2,2022.2.4,MacIntel,58.82352941,,,,,,,,,,,,,,,,,,,,,,,,,,,,,,,,,,,,,,,,,,kijlen,images/br_kijlen.png,images/cb_kijlen.png,,kiljen,,,,,,,,,,,0.377777778,-0.318888889,1,0,0,kiljen,0,1,1,31,1
,,,,,,00051,2023-10-14_15h40.17.264,vbt_B2_day2,2022.2.4,MacIntel,58.82352941,,,,,,,,,,,,,,,,,,,,,,,,,,,,,,,,,,,,,,,,,,sifferd,images/br_sifferd.png,images/cb_sifferd.png,,siffert,,,,,,,,,,,0.421111111,-0.151111111,1,0,0,siffert,0,2,2,32,1
,,,,,,00051,2023-10-14_15h40.17.264,vbt_B2_day2,2022.2.4,MacIntel,58.82352941,,,,,,,,,,,,,,,,,,,,,,,,,,,,,,,,,,,,,,,,,,tweeling,images/br_tweeling.png,images/cb_tweeling.png,,tweeling,,,,,,,,,,,0.518888889,-0.157777778,1,0,0,tweeling,0,3,3,58,1
,,,,,,00051,2023-10-14_15h40.17.264,vbt_B2_day2,2022.2.4,MacIntel,58.82352941,,,,,,,,,,,,,,,,,,,,,,,,,,,,,,,,,,,,,,,,,,agressie,images/br_agressie.png,images/cb_agressie.png,,agressie,,,,,,,,,,,0.442222222,-0.128888889,1,0,0,agressie,0,4,4,59,1
,,,,,,00051,2023-10-14_15h40.17.264,vbt_B2_day2,2022.2.4,MacIntel,58.82352941,,,,,,,,,,,,,,,,,,,,,,,,,,,,,,,,,,,,,,,,,,eenhoorn,images/br_eenhoorn.png,images/cb_eenhoorn.png,,eenhoorn,,,,,,,,,,,0.081111111,0.116666667,1,0,0,eenhoorn,0,5,5,19,1
,,,,,,00051,2023-10-14_15h40.17.264,vbt_B2_day2,2022.2.4,MacIntel,58.82352941,,,,,,,,,,,,,,,,,,,,,,,,,,,,,,,,,,,,,,,,,,bereuwen,images/br_bereuwen.png,images/cb_bereuwen.png,,bereu,,,,,,,,,,,0.265555556,-0.068888889,1,0,0,bereu,0,6,6,39,1
,,,,,,00051,2023-10-14_15h40.17.264,vbt_B2_day2,2022.2.4,MacIntel,58.82352941,,,,,,,,,,,,,,,,,,,,,,,,,,,,,,,,,,,,,,,,,,systeem,images/br_systeem.png,images/cb_systeem.png,,systeem,,,,,,,,,,,0.273333333,0.011111111,1,0,0,systeem,0,7,7,54,1
,,,,,,00051,2023-10-14_15h40.17.264,vbt_B2_day2,2022.2.4,MacIntel,58.82352941,,,,,,,,,,,,,,,,,,,,,,,,,,,,,,,,,,,,,,,,,,breuk,images/br_breuk.png,images/cb_breuk.png,,briu.,,,,,,,,,,,0.194444444,-0.01,1,0,0,briu.,0,8,8,45,1
,,,,,,00051,2023-10-14_15h40.17.264,vbt_B2_day2,2022.2.4,MacIntel,58.82352941,,,,,,,,,,,,,,,,,,,,,,,,,,,,,,,,,,,,,,,,,,lurgen,images/br_lurgen.png,images/cb_lurgen.png,,lurgen,,,,,,,,,,,0.204444444,-0.365555556,1,0,0,lurgen,0,9,9,29,1
,,,,,,00051,2023-10-14_15h40.17.264,vbt_B2_day2,2022.2.4,MacIntel,58.82352941,,,,,,,,,,,,,,,,,,,,,,,,,,,,,,,,,,,,,,,,,,ningen,images/br_ningen.png,images/cb_ningen.png,,ninig,,,,,,,,,,,0.138888889,-0.301111111,1,0,0,ninig,0,10,10,28,1
,,,,,,00051,2023-10-14_15h40.17.264,vbt_B2_day2,2022.2.4,MacIntel,58.82352941,,,,,,,,,,,,,,,,,,,,,,,,,,,,,,,,,,,,,,,,,,lokken,images/br_lokken.png,images/cb_lokken.png,,lokken,,,,,,,,,,,0.346666667,-0.327777778,1,0,0,lokken,0,11,11,8,1
,,,,,,00051,2023-10-14_15h40.17.264,vbt_B2_day2,2022.2.4,MacIntel,58.82352941,,,,,,,,,,,,,,,,,,,,,,,,,,,,,,,,,,,,,,,,,,kasteel,images/br_kasteel.png,images/cb_kasteel.png,,kasteel,,,,,,,,,,,0.318888889,-0.342222222,1,0,0,kasteel,0,12,12,14,1
,,,,,,00051,2023-10-14_15h40.17.264,vbt_B2_day2,2022.2.4,MacIntel,58.82352941,,,,,,,,,,,,,,,,,,,,,,,,,,,,,,,,,,,,,,,,,,clan,images/br_clan.png,images/cb_clan.png,,clan,,,,,,,,,,,0.065555556,-0.271111111,1,0,0,clan,0,13,13,40,1
,,,,,,00051,2023-10-14_15h40.17.264,vbt_B2_day2,2022.2.4,MacIntel,58.82352941,,,,,,,,,,,,,,,,,,,,,,,,,,,,,,,,,,,,,,,,,,trots,images/br_trots.png,images/cb_trots.png,,trots,,,,,,,,,,,-0.053333333,-0.09,1,0,0,trots,0,14,14,44,1
,,,,,,00051,2023-10-14_15h40.17.264,vbt_B2_day2,2022.2.4,MacIntel,58.82352941,,,,,,,,,,,,,,,,,,,,,,,,,,,,,,,,,,,,,,,,,,diep,images/br_diep.png,images/cb_diep.png,,diep,,,,,,,,,,,0.148888889,0.088888889,1,0,0,diep,0,15,15,2,1
,,,,,,00051,2023-10-14_15h40.17.264,vbt_B2_day2,2022.2.4,MacIntel,58.82352941,,,,,,,,,,,,,,,,,,,,,,,,,,,,,,,,,,,,,,,,,,badon,images/br_badon.png,images/cb_badon.png,,badon,,,,,,,,,,,0.1,-0.305555556,1,0,0,badon,0,16,16,26,1
,,,,,,00051,2023-10-14_15h40.17.264,vbt_B2_day2,2022.2.4,MacIntel,58.82352941,,,,,,,,,,,,,,,,,,,,,,,,,,,,,,,,,,,,,,,,,,heilig,images/br_heilig.png,images/cb_heilig.png,,heilig,,,,,,,,,,,0.058888889,-0.34,1,0,0,heilig,0,17,17,9,1
,,,,,,00051,2023-10-14_15h40.17.264,vbt_B2_day2,2022.2.4,MacIntel,58.82352941,,,,,,,,,,,,,,,,,,,,,,,,,,,,,,,,,,,,,,,,,,inzicht,images/br_inzicht.png,images/cb_inzicht.png,,i,,,,,,,,,,,0.318888889,-0.344444444,1,0,0,i,0,18,18,53,1
,,,,,,00051,2023-10-14_15h40.17.264,vbt_B2_day2,2022.2.4,MacIntel,58.82352941,,,,,,,,,,,,,,,,,,,,,,,,,,,,,,,,,,,,,,,,,,zwager,images/br_zwager.png,images/cb_zwager.png,,zwanger,,,,,,,,,,,0.241111111,-0.294444444,1,0,0,zwanger,0,19,19,49,1
,,,,,,00051,2023-10-14_15h40.17.264,vbt_B2_day2,2022.2.4,MacIntel,58.82352941,,,,,,,,,,,,,,,,,,,,,,,,,,,,,,,,,,,,,,,,,,plannen,images/br_plannen.png,images/cb_plannen.png,,plannen,,,,,,,,,,,0.396666667,-0.22,1,0,0,plannen,0,20,20,55,1
,,,,,,00051,2023-10-14_15h40.17.264,vbt_B2_day2,2022.2.4,MacIntel,58.82352941,,,,,,,,,,,,,,,,,,,,,,,,,,,,,,,,,,,,,,,,,,negel,images/br_negel.png,images/cb_negel.png,,negel,,,,,,,,,,,0.073333333,-0.3,1,0,0,negel,0,21,21,24,1
,,,,,,00051,2023-10-14_15h40.17.264,vbt_B2_day2,2022.2.4,MacIntel,58.82352941,,,,,,,,,,,,,,,,,,,,,,,,,,,,,,,,,,,,,,,,,,jong,images/br_jong.png,images/cb_jong.png,,jong,,,,,,,,,,,0.224444444,-0.08,1,0,0,jong,0,22,22,43,1
,,,,,,00051,2023-10-14_15h40.17.264,vbt_B2_day2,2022.2.4,MacIntel,58.82352941,,,,,,,,,,,,,,,,,,,,,,,,,,,,,,,,,,,,,,,,,,zegel,images/br_zegel.png,images/cb_zegel.png,,zegel,,,,,,,,,,,0.25,-0.293333333,1,0,0,zegel,0,23,23,46,1
,,,,,,00051,2023-10-14_15h40.17.264,vbt_B2_day2,2022.2.4,MacIntel,58.82352941,,,,,,,,,,,,,,,,,,,,,,,,,,,,,,,,,,,,,,,,,,heengeen,images/br_heengeen.png,images/cb_heengeen.png,,heengaan,,,,,,,,,,,0.182222222,-0.091111111,1,0,0,heengaan,0,24,24,38,1
,,,,,,00051,2023-10-14_15h40.17.264,vbt_B2_day2,2022.2.4,MacIntel,58.82352941,,,,,,,,,,,,,,,,,,,,,,,,,,,,,,,,,,,,,,,,,,sjijfel,images/br_sjijfel.png,images/cb_sjijfel.png,,sjijf,,,,,,,,,,,0.233333333,-0.024444444,1,0,0,sjijf,0,25,25,33,1
,,,,,,00051,2023-10-14_15h40.17.264,vbt_B2_day2,2022.2.4,MacIntel,58.82352941,,,,,,,,,,,,,,,,,,,,,,,,,,,,,,,,,,,,,,,,,,wijve,images/br_wijve.png,images/cb_wijve.png,,wieven,,,,,,,,,,,0.228888889,-0.073333333,1,0,0,wieven,0,26,26,27,1
,,,,,,00051,2023-10-14_15h40.17.264,vbt_B2_day2,2022.2.4,MacIntel,58.82352941,,,,,,,,,,,,,,,,,,,,,,,,,,,,,,,,,,,,,,,,,,jagen,images/br_jagen.png,images/cb_jagen.png,,jagen,,,,,,,,,,,0.088888889,-0.046666667,1,0,0,jagen,0,27,27,6,1
,,,,,,00051,2023-10-14_15h40.17.264,vbt_B2_day2,2022.2.4,MacIntel,58.82352941,,,,,,,,,,,,,,,,,,,,,,,,,,,,,,,,,,,,,,,,,,moes,images/br_moes.png,images/cb_moes.png,,moes,,,,,,,,,,,0.108888889,0.091111111,1,0,0,moes,0,28,28,0,1
,,,,,,00051,2023-10-14_15h40.17.264,vbt_B2_day2,2022.2.4,MacIntel,58.82352941,,,,,,,,,,,,,,,,,,,,,,,,,,,,,,,,,,,,,,,,,,toeval,images/br_toeval.png,images/cb_toeval.png,,toeval,,,,,,,,,,,0.176666667,0.074444444,1,0,0,toeval,0,29,29,11,1
,,,,,,00051,2023-10-14_15h40.17.264,vbt_B2_day2,2022.2.4,MacIntel,58.82352941,,,,,,,,,,,,,,,,,,,,,,,,,,,,,,,,,,,,,,,,,,kenzis,images/br_kenzis.png,images/cb_kenzis.png,,k,,,,,,,,,,,0.251111111,-0.071111111,1,0,0,k,0,30,30,30,1
,,,,,,00051,2023-10-14_15h40.17.264,vbt_B2_day2,2022.2.4,MacIntel,58.82352941,,,,,,,,,,,,,,,,,,,,,,,,,,,,,,,,,,,,,,,,,,prekken,images/br_prekken.png,images/cb_prekken.png,,prekken,,,,,,,,,,,0.222222222,-0.024444444,1,0,0,prekken,0,31,31,34,1
,,,,,,00051,2023-10-14_15h40.17.264,vbt_B2_day2,2022.2.4,MacIntel,58.82352941,,,,,,,,,,,,,,,,,,,,,,,,,,,,,,,,,,,,,,,,,,manieren,images/br_manieren.png,images/cb_manieren.png,,manieren,,,,,,,,,,,0.353333333,0.075555556,1,0,0,manieren,0,32,32,56,1
,,,,,,00051,2023-10-14_15h40.17.264,vbt_B2_day2,2022.2.4,MacIntel,58.82352941,,,,,,,,,,,,,,,,,,,,,,,,,,,,,,,,,,,,,,,,,,feestdag,images/br_feestdag.png,images/cb_feestdag.png,,festijn,,,,,,,,,,,0.21,-0.001111111,1,0,0,festijn,0,33,33,17,1
,,,,,,00051,2023-10-14_15h40.17.264,vbt_B2_day2,2022.2.4,MacIntel,58.82352941,,,,,,,,,,,,,,,,,,,,,,,,,,,,,,,,,,,,,,,,,,remel,images/br_remel.png,images/cb_remel.png,,remel,,,,,,,,,,,0.272222222,-0.022222222,1,0,0,remel,0,34,34,25,1
,,,,,,00051,2023-10-14_15h40.17.264,vbt_B2_day2,2022.2.4,MacIntel,58.82352941,,,,,,,,,,,,,,,,,,,,,,,,,,,,,,,,,,,,,,,,,,welzijn,images/br_welzijn.png,images/cb_welzijn.png,,welzijn,,,,,,,,,,,0.287777778,-0.054444444,1,0,0,welzijn,0,35,35,52,1
,,,,,,00051,2023-10-14_15h40.17.264,vbt_B2_day2,2022.2.4,MacIntel,58.82352941,,,,,,,,,,,,,,,,,,,,,,,,,,,,,,,,,,,,,,,,,,doodmoe,images/br_doodmoe.png,images/cb_doodmoe.png,,doodmoe,,,,,,,,,,,0.211111111,-0.055555556,1,0,0,doodmoe,0,36,36,15,1
,,,,,,00051,2023-10-14_15h40.17.264,vbt_B2_day2,2022.2.4,MacIntel,58.82352941,,,,,,,,,,,,,,,,,,,,,,,,,,,,,,,,,,,,,,,,,,anarchie,images/br_anarchie.png,images/cb_anarchie.png,,anarchie,,,,,,,,,,,0.203333333,-0.036666667,1,0,0,anarchie,0,37,37,16,1
,,,,,,00051,2023-10-14_15h40.17.264,vbt_B2_day2,2022.2.4,MacIntel,58.82352941,,,,,,,,,,,,,,,,,,,,,,,,,,,,,,,,,,,,,,,,,,geld,images/br_geld.png,images/cb_geld.png,,geld,,,,,,,,,,,0.088888889,-0.047777778,1,0,0,geld,0,38,38,3,1
,,,,,,00051,2023-10-14_15h40.17.264,vbt_B2_day2,2022.2.4,MacIntel,58.82352941,,,,,,,,,,,,,,,,,,,,,,,,,,,,,,,,,,,,,,,,,,strikken,images/br_strikken.png,images/cb_strikken.png,,strikken,,,,,,,,,,,-0.083333333,-0.108888889,1,0,0,strikken,0,39,39,18,1
,,,,,,00051,2023-10-14_15h40.17.264,vbt_B2_day2,2022.2.4,MacIntel,58.82352941,,,,,,,,,,,,,,,,,,,,,,,,,,,,,,,,,,,,,,,,,,dode,images/br_dode.png,images/cb_dode.png,,dode,,,,,,,,,,,0.013333333,-0.046666667,1,0,0,dode,0,40,40,41,1
,,,,,,00051,2023-10-14_15h40.17.264,vbt_B2_day2,2022.2.4,MacIntel,58.82352941,,,,,,,,,,,,,,,,,,,,,,,,,,,,,,,,,,,,,,,,,,krimmen,images/br_krimmen.png,images/cb_krimmen.png,,krimmen,,,,,,,,,,,0.227777778,-0.067777778,1,0,0,krimmen,0,41,41,35,1
,,,,,,00051,2023-10-14_15h40.17.264,vbt_B2_day2,2022.2.4,MacIntel,58.82352941,,,,,,,,,,,,,,,,,,,,,,,,,,,,,,,,,,,,,,,,,,piste,images/br_piste.png,images/cb_piste.png,,piste,,,,,,,,,,,0.062222222,0.003333333,1,0,0,piste,0,42,42,5,1
,,,,,,00051,2023-10-14_15h40.17.264,vbt_B2_day2,2022.2.4,MacIntel,58.82352941,,,,,,,,,,,,,,,,,,,,,,,,,,,,,,,,,,,,,,,,,,joes,images/br_joes.png,images/cb_joes.png,,joes,,,,,,,,,,,0.236666667,-0.181111111,1,0,0,joes,0,43,43,20,1
,,,,,,00051,2023-10-14_15h40.17.264,vbt_B2_day2,2022.2.4,MacIntel,58.82352941,,,,,,,,,,,,,,,,,,,,,,,,,,,,,,,,,,,,,,,,,,bloeien,images/br_bloeien.png,images/cb_bloeien.png,,bloeien,,,,,,,,,,,0.242222222,-0.08,1,0,0,bloeien,0,44,44,12,1
,,,,,,00051,2023-10-14_15h40.17.264,vbt_B2_day2,2022.2.4,MacIntel,58.82352941,,,,,,,,,,,,,,,,,,,,,,,,,,,,,,,,,,,,,,,,,,goon,images/br_goon.png,images/cb_goon.png,,goon,,,,,,,,,,,-0.003333333,-0.052222222,1,0,0,goon,0,45,45,23,1
,,,,,,00051,2023-10-14_15h40.17.264,vbt_B2_day2,2022.2.4,MacIntel,58.82352941,,,,,,,,,,,,,,,,,,,,,,,,,,,,,,,,,,,,,,,,,,aanzien,images/br_aanzien.png,images/cb_aanzien.png,,aanzien,,,,,,,,,,,0.142222222,0.034444444,1,0,0,aanzien,0,46,46,13,1
,,,,,,00051,2023-10-14_15h40.17.264,vbt_B2_day2,2022.2.4,MacIntel,58.82352941,,,,,,,,,,,,,,,,,,,,,,,,,,,,,,,,,,,,,,,,,,stes,images/br_stes.png,images/cb_stes.png,,stes,,,,,,,,,,,0.091111111,-0.285555556,1,0,0,stes,0,47,47,21,1
,,,,,,00051,2023-10-14_15h40.17.264,vbt_B2_day2,2022.2.4,MacIntel,58.82352941,,,,,,,,,,,,,,,,,,,,,,,,,,,,,,,,,,,,,,,,,,koorts,images/br_koorts.png,images/cb_koorts.png,,koorts,,,,,,,,,,,0.043333333,-0.094444444,1,0,0,koorts,0,48,48,50,1
,,,,,,00051,2023-10-14_15h40.17.264,vbt_B2_day2,2022.2.4,MacIntel,58.82352941,,,,,,,,,,,,,,,,,,,,,,,,,,,,,,,,,,,,,,,,,,opdatten,images/br_opdatten.png,images/cb_opdatten.png,,opdatten,,,,,,,,,,,0.063333333,-0.321111111,1,0,0,opdatten,0,49,49,37,1
,,,,,,00051,2023-10-14_15h40.17.264,vbt_B2_day2,2022.2.4,MacIntel,58.82352941,,,,,,,,,,,,,,,,,,,,,,,,,,,,,,,,,,,,,,,,,,woning,images/br_woning.png,images/cb_woning.png,,woning,,,,,,,,,,,0.195555556,-0.387777778,1,0,0,woning,0,50,50,10,1
,,,,,,00051,2023-10-14_15h40.17.264,vbt_B2_day2,2022.2.4,MacIntel,58.82352941,,,,,,,,,,,,,,,,,,,,,,,,,,,,,,,,,,,,,,,,,,sora,images/br_sora.png,images/cb_sora.png,,sora,,,,,,,,,,,0.114444444,-0.273333333,1,0,0,sora,0,51,51,22,1
,,,,,,00051,2023-10-14_15h40.17.264,vbt_B2_day2,2022.2.4,MacIntel,58.82352941,,,,,,,,,,,,,,,,,,,,,,,,,,,,,,,,,,,,,,,,,,lijnen,images/br_lijnen.png,images/cb_lijnen.png,,lijnen,,,,,,,,,,,0.175555556,-0.385555556,1,0,0,lijnen,0,52,52,51,1
,,,,,,00051,2023-10-14_15h40.17.264,vbt_B2_day2,2022.2.4,MacIntel,58.82352941,,,,,,,,,,,,,,,,,,,,,,,,,,,,,,,,,,,,,,,,,,zomers,images/br_zomers.png,images/cb_zomers.png,,zomers,,,,,,,,,,,0.064444444,-0.407777778,1,0,0,zomers,0,53,53,48,1
,,,,,,00051,2023-10-14_15h40.17.264,vbt_B2_day2,2022.2.4,MacIntel,58.82352941,,,,,,,,,,,,,,,,,,,,,,,,,,,,,,,,,,,,,,,,,,kabel,images/br_kabel.png,images/cb_kabel.png,,kabel,,,,,,,,,,,0.095555556,-0.164444444,1,0,0,kabel,0,54,54,7,1
,,,,,,00051,2023-10-14_15h40.17.264,vbt_B2_day2,2022.2.4,MacIntel,58.82352941,,,,,,,,,,,,,,,,,,,,,,,,,,,,,,,,,,,,,,,,,,flits,images/br_flits.png,images/cb_flits.png,,flits,,,,,,,,,,,0.077777778,-0.291111111,1,0,0,flits,0,55,55,4,1
,,,,,,00051,2023-10-14_15h40.17.264,vbt_B2_day2,2022.2.4,MacIntel,58.82352941,,,,,,,,,,,,,,,,,,,,,,,,,,,,,,,,,,,,,,,,,,tand,images/br_tand.png,images/cb_tand.png,,tand,,,,,,,,,,,0.061111111,-0.383333333,1,0,0,tand,0,56,56,42,1
,,,,,,00051,2023-10-14_15h40.17.264,vbt_B2_day2,2022.2.4,MacIntel,58.82352941,,,,,,,,,,,,,,,,,,,,,,,,,,,,,,,,,,,,,,,,,,thema,images/br_thema.png,images/cb_thema.png,,the..,,,,,,,,,,,0.06,-0.344444444,1,0,0,the..,0,57,57,47,1
,,,,,,00051,2023-10-14_15h40.17.264,vbt_B2_day2,2022.2.4,MacIntel,58.82352941,,,,,,,,,,,,,,,,,,,,,,,,,,,,,,,,,,,,,,,,,,ophuimen,images/br_ophuimen.png,images/cb_ophuimen.png,,ophuiven,,,,,,,,,,,0.017777778,-0.253333333,1,0,0,ophuiven,0,58,58,36,1
,,,,,,00051,2023-10-14_15h40.17.264,vbt_B2_day2,2022.2.4,MacIntel,58.82352941,,,,,,,,,,,,,,,,,,,,,,,,,,,,,,,,,,,,,,,,,,blad,images/br_blad.png,images/cb_blad.png,,blad,,,,,,,,,,,0.031111111,-0.357777778,1,0,0,blad,0,59,59,1,1
,,,,,,00051,2023-10-14_15h40.17.264,vbt_B2_day2,2022.2.4,MacIntel,58.82352941,,,,,,,,,,,,,,,,,,,,,,,,,,,,,,,,,,,,,,,,,,,,,,,,,,,,,,,,,,,,,,,,,,,
