welcome_mouse.x,welcome_mouse.y,welcome_mouse.leftButton,welcome_mouse.midButton,welcome_mouse.rightButton,welcome_mouse.time,"ID",date,expName,psychopyVersion,OS,frameRate,refresh_mouse.x,refresh_mouse.y,refresh_mouse.leftButton,refresh_mouse.midButton,refresh_mouse.rightButton,refresh_mouse.time,braille_mouse.x,braille_mouse.y,braille_mouse.leftButton,braille_mouse.midButton,braille_mouse.rightButton,braille_mouse.time,trials.thisRepN,trials.thisTrialN,trials.thisN,trials.thisIndex,trials.ran,nlLet,brLet,cbLet,trainInstr_mouse.x,trainInstr_mouse.y,trainInstr_mouse.leftButton,trainInstr_mouse.midButton,trainInstr_mouse.rightButton,trainInstr_mouse.time,translation_key.keys,translation_key.corr,translation_key.rt,word_rsp.text,word_mouse.x,word_mouse.y,word_mouse.leftButton,word_mouse.midButton,word_mouse.rightButton,word_mouse.time,train_loop.thisRepN,train_loop.thisTrialN,train_loop.thisN,train_loop.thisIndex,train_loop.ran,nlWrd,brWrd,cbWrd,test,testResp,mouse.x,mouse.y,mouse.leftButton,mouse.midButton,mouse.rightButton,testInstr_mouse.x,testInstr_mouse.y,testInstr_mouse.leftButton,testInstr_mouse.midButton,testInstr_mouse.rightButton,test_mouse.x,test_mouse.y,test_mouse.leftButton,test_mouse.midButton,test_mouse.rightButton,test_response.text,test_loop.thisRepN,test_loop.thisTrialN,test_loop.thisN,test_loop.thisIndex,test_loop.ran
-0.126851824,-0.275,1,0,0,9.423,00004,2023-08-01_15h15.32.946,vbt_B2_day2,2022.2.4,Win32,59.79073244,,,,,,,,,,,,,,,,,,,,,,,,,,,,,,,,,,,,,,,,,,,,,,,,,,,,,,,,,,,,,,,,,,,
,,,,,,00004,2023-08-01_15h15.32.946,vbt_B2_day2,2022.2.4,Win32,59.79073244,-0.126851824,-0.275,1,0,0,7.9078,,,,,,,,,,,,,,,,,,,,,,,,,,,,,,,,,,,,,,,,,,,,,,,,,,,,,,,,,,,,,
,,,,,,00004,2023-08-01_15h15.32.946,vbt_B2_day2,2022.2.4,Win32,59.79073244,,,,,,,0.098148176,-0.3,1,0,0,0.2336,0,0,0,18,1,s,images/br_s.png,images/cb_s.png,,,,,,,,,,,,,,,,,,,,,,,,,,,,,,,,,,,,,,,,,,,,,,,
,,,,,,00004,2023-08-01_15h15.32.946,vbt_B2_day2,2022.2.4,Win32,59.79073244,,,,,,,0.186111111,-0.202777778,1,0,0,0.6836,0,1,1,25,1,z,images/br_z.png,images/cb_z.png,,,,,,,,,,,,,,,,,,,,,,,,,,,,,,,,,,,,,,,,,,,,,,,
,,,,,,00004,2023-08-01_15h15.32.946,vbt_B2_day2,2022.2.4,Win32,59.79073244,,,,,,,0.186111111,-0.202777778,1,0,0,0.5332,0,2,2,16,1,q,images/br_q.png,images/cb_q.png,,,,,,,,,,,,,,,,,,,,,,,,,,,,,,,,,,,,,,,,,,,,,,,
,,,,,,00004,2023-08-01_15h15.32.946,vbt_B2_day2,2022.2.4,Win32,59.79073244,,,,,,,0.186111111,-0.202777778,1,0,0,0.4666,0,3,3,2,1,c,images/br_c.png,images/cb_c.png,,,,,,,,,,,,,,,,,,,,,,,,,,,,,,,,,,,,,,,,,,,,,,,
,,,,,,00004,2023-08-01_15h15.32.946,vbt_B2_day2,2022.2.4,Win32,59.79073244,,,,,,,0.186111111,-0.202777778,1,0,0,0.3333,0,4,4,14,1,o,images/br_o.png,images/cb_o.png,,,,,,,,,,,,,,,,,,,,,,,,,,,,,,,,,,,,,,,,,,,,,,,
,,,,,,00004,2023-08-01_15h15.32.946,vbt_B2_day2,2022.2.4,Win32,59.79073244,,,,,,,0.186111111,-0.202777778,1,0,0,0.6502,0,5,5,13,1,n,images/br_n.png,images/cb_n.png,,,,,,,,,,,,,,,,,,,,,,,,,,,,,,,,,,,,,,,,,,,,,,,
,,,,,,00004,2023-08-01_15h15.32.946,vbt_B2_day2,2022.2.4,Win32,59.79073244,,,,,,,0.186111111,-0.202777778,1,0,0,2.3668,0,6,6,15,1,p,images/br_p.png,images/cb_p.png,,,,,,,,,,,,,,,,,,,,,,,,,,,,,,,,,,,,,,,,,,,,,,,
,,,,,,00004,2023-08-01_15h15.32.946,vbt_B2_day2,2022.2.4,Win32,59.79073244,,,,,,,0.186111111,-0.202777778,1,0,0,0.1667,0,7,7,12,1,m,images/br_m.png,images/cb_m.png,,,,,,,,,,,,,,,,,,,,,,,,,,,,,,,,,,,,,,,,,,,,,,,
,,,,,,00004,2023-08-01_15h15.32.946,vbt_B2_day2,2022.2.4,Win32,59.79073244,,,,,,,0.186111111,-0.202777778,1,0,0,4.0832,0,8,8,9,1,j,images/br_j.png,images/cb_j.png,,,,,,,,,,,,,,,,,,,,,,,,,,,,,,,,,,,,,,,,,,,,,,,
,,,,,,00004,2023-08-01_15h15.32.946,vbt_B2_day2,2022.2.4,Win32,59.79073244,,,,,,,0.186111111,-0.202777778,1,0,0,0.4341,0,9,9,24,1,y,images/br_y.png,images/cb_y.png,,,,,,,,,,,,,,,,,,,,,,,,,,,,,,,,,,,,,,,,,,,,,,,
,,,,,,00004,2023-08-01_15h15.32.946,vbt_B2_day2,2022.2.4,Win32,59.79073244,,,,,,,0.186111111,-0.202777778,1,0,0,0.9088,0,10,10,6,1,g,images/br_g.png,images/cb_g.png,,,,,,,,,,,,,,,,,,,,,,,,,,,,,,,,,,,,,,,,,,,,,,,
,,,,,,00004,2023-08-01_15h15.32.946,vbt_B2_day2,2022.2.4,Win32,59.79073244,,,,,,,0.186111111,-0.202777778,1,0,0,1.5332,0,11,11,0,1,a,images/br_a.png,images/cb_a.png,,,,,,,,,,,,,,,,,,,,,,,,,,,,,,,,,,,,,,,,,,,,,,,
,,,,,,00004,2023-08-01_15h15.32.946,vbt_B2_day2,2022.2.4,Win32,59.79073244,,,,,,,0.186111111,-0.202777778,1,0,0,0.0169,0,12,12,8,1,i,images/br_i.png,images/cb_i.png,,,,,,,,,,,,,,,,,,,,,,,,,,,,,,,,,,,,,,,,,,,,,,,
,,,,,,00004,2023-08-01_15h15.32.946,vbt_B2_day2,2022.2.4,Win32,59.79073244,,,,,,,0.186111111,-0.202777778,1,0,0,0.9998,0,13,13,3,1,d,images/br_d.png,images/cb_d.png,,,,,,,,,,,,,,,,,,,,,,,,,,,,,,,,,,,,,,,,,,,,,,,
,,,,,,00004,2023-08-01_15h15.32.946,vbt_B2_day2,2022.2.4,Win32,59.79073244,,,,,,,0.186111111,-0.202777778,1,0,0,0.0334,0,14,14,1,1,b,images/br_b.png,images/cb_b.png,,,,,,,,,,,,,,,,,,,,,,,,,,,,,,,,,,,,,,,,,,,,,,,
,,,,,,00004,2023-08-01_15h15.32.946,vbt_B2_day2,2022.2.4,Win32,59.79073244,,,,,,,0.186111111,-0.202777778,1,0,0,0.917,0,15,15,23,1,x,images/br_x.png,images/cb_x.png,,,,,,,,,,,,,,,,,,,,,,,,,,,,,,,,,,,,,,,,,,,,,,,
,,,,,,00004,2023-08-01_15h15.32.946,vbt_B2_day2,2022.2.4,Win32,59.79073244,,,,,,,0.186111111,-0.202777778,1,0,0,0.0836,0,16,16,10,1,k,images/br_k.png,images/cb_k.png,,,,,,,,,,,,,,,,,,,,,,,,,,,,,,,,,,,,,,,,,,,,,,,
,,,,,,00004,2023-08-01_15h15.32.946,vbt_B2_day2,2022.2.4,Win32,59.79073244,,,,,,,0.186111111,-0.202777778,1,0,0,9.2488,0,17,17,7,1,h,images/br_h.png,images/cb_h.png,,,,,,,,,,,,,,,,,,,,,,,,,,,,,,,,,,,,,,,,,,,,,,,
,,,,,,00004,2023-08-01_15h15.32.946,vbt_B2_day2,2022.2.4,Win32,59.79073244,,,,,,,0.186111111,-0.202777778,1,0,0,0.1673,0,18,18,19,1,t,images/br_t.png,images/cb_t.png,,,,,,,,,,,,,,,,,,,,,,,,,,,,,,,,,,,,,,,,,,,,,,,
,,,,,,00004,2023-08-01_15h15.32.946,vbt_B2_day2,2022.2.4,Win32,59.79073244,,,,,,,0.186111111,-0.202777778,1,0,0,0.6498,0,19,19,22,1,w,images/br_w.png,images/cb_w.png,,,,,,,,,,,,,,,,,,,,,,,,,,,,,,,,,,,,,,,,,,,,,,,
,,,,,,00004,2023-08-01_15h15.32.946,vbt_B2_day2,2022.2.4,Win32,59.79073244,,,,,,,0.186111111,-0.202777778,1,0,0,0.1665,0,20,20,21,1,v,images/br_v.png,images/cb_v.png,,,,,,,,,,,,,,,,,,,,,,,,,,,,,,,,,,,,,,,,,,,,,,,
,,,,,,00004,2023-08-01_15h15.32.946,vbt_B2_day2,2022.2.4,Win32,59.79073244,,,,,,,0.186111111,-0.202777778,1,0,0,0.1165,0,21,21,17,1,r,images/br_r.png,images/cb_r.png,,,,,,,,,,,,,,,,,,,,,,,,,,,,,,,,,,,,,,,,,,,,,,,
,,,,,,00004,2023-08-01_15h15.32.946,vbt_B2_day2,2022.2.4,Win32,59.79073244,,,,,,,0.186111111,-0.202777778,1,0,0,0.4838,0,22,22,5,1,f,images/br_f.png,images/cb_f.png,,,,,,,,,,,,,,,,,,,,,,,,,,,,,,,,,,,,,,,,,,,,,,,
,,,,,,00004,2023-08-01_15h15.32.946,vbt_B2_day2,2022.2.4,Win32,59.79073244,,,,,,,0.186111111,-0.202777778,1,0,0,1.5164,0,23,23,20,1,u,images/br_u.png,images/cb_u.png,,,,,,,,,,,,,,,,,,,,,,,,,,,,,,,,,,,,,,,,,,,,,,,
,,,,,,00004,2023-08-01_15h15.32.946,vbt_B2_day2,2022.2.4,Win32,59.79073244,,,,,,,0.186111111,-0.202777778,1,0,0,0.5171,0,24,24,4,1,e,images/br_e.png,images/cb_e.png,,,,,,,,,,,,,,,,,,,,,,,,,,,,,,,,,,,,,,,,,,,,,,,
,,,,,,00004,2023-08-01_15h15.32.946,vbt_B2_day2,2022.2.4,Win32,59.79073244,,,,,,,0.186111111,-0.202777778,1,0,0,0.3669,0,25,25,11,1,l,images/br_l.png,images/cb_l.png,,,,,,,,,,,,,,,,,,,,,,,,,,,,,,,,,,,,,,,,,,,,,,,
,,,,,,00004,2023-08-01_15h15.32.946,vbt_B2_day2,2022.2.4,Win32,59.79073244,,,,,,,,,,,,,,,,,,,,,0.339814843,-0.297222222,1,0,0,21.26,,,,,,,,,,,,,,,,,,,,,,,,,,,,,,,,,,,,,,,,,
,,,,,,00004,2023-08-01_15h15.32.946,vbt_B2_day2,2022.2.4,Win32,59.79073244,,,,,,,,,,,,,,,,,,,,,,,,,,,down,0,6.0004,,0.403703732,-0.114814843,1,0,0,1.5077,0,0,0,74,1,graaf,images/br_graaf.png,images/cb_graaf.png,0,,,,,,,,,,,,,,,,,,,,,,
,,,,,,00004,2023-08-01_15h15.32.946,vbt_B2_day2,2022.2.4,Win32,59.79073244,,,,,,,,,,,,,,,,,,,,,,,,,,,down,0,2.1007,,0.403703732,-0.114814843,1,0,0,0.8883,0,1,1,28,1,stal,images/br_stal.png,images/cb_stal.png,0,,,,,,,,,,,,,,,,,,,,,,
,,,,,,00004,2023-08-01_15h15.32.946,vbt_B2_day2,2022.2.4,Win32,59.79073244,,,,,,,,,,,,,,,,,,,,,,,,,,,down,0,4.3873,,0.279629686,-0.124074088,1,0,0,1.4661,0,2,2,36,1,vuur,images/br_vuur.png,images/cb_vuur.png,0,,,,,,,,,,,,,,,,,,,,,,
,,,,,,00004,2023-08-01_15h15.32.946,vbt_B2_day2,2022.2.4,Win32,59.79073244,,,,,,,,,,,,,,,,,,,,,,,,,,,down,0,12.0415,,0.236111111,-0.099074088,1,0,0,3.6408,0,3,3,153,1,vervoer,images/br_vervoer.png,images/cb_vervoer.png,0,,,,,,,,,,,,,,,,,,,,,,
,,,,,,00004,2023-08-01_15h15.32.946,vbt_B2_day2,2022.2.4,Win32,59.79073244,,,,,,,,,,,,,,,,,,,,,,,,,,,down,0,8.6333,,0.141666667,-0.038888889,1,0,0,0.8675,0,4,4,68,1,schat,images/br_schat.png,images/cb_schat.png,0,,,,,,,,,,,,,,,,,,,,,,
,,,,,,00004,2023-08-01_15h15.32.946,vbt_B2_day2,2022.2.4,Win32,59.79073244,,,,,,,,,,,,,,,,,,,,,,,,,,,down,0,7.3672,,0.166666667,-0.143518533,1,0,0,2.4006,0,5,5,118,1,vinger,images/br_vinger.png,images/cb_vinger.png,0,,,,,,,,,,,,,,,,,,,,,,
,,,,,,00004,2023-08-01_15h15.32.946,vbt_B2_day2,2022.2.4,Win32,59.79073244,,,,,,,,,,,,,,,,,,,,,,,,,,,down,0,9.3414,,0.187963019,-0.107407422,1,0,0,1.8173,0,6,6,40,1,schep,images/br_schep.png,images/cb_schep.png,0,,,,,,,,,,,,,,,,,,,,,,
,,,,,,00004,2023-08-01_15h15.32.946,vbt_B2_day2,2022.2.4,Win32,59.79073244,,,,,,,,,,,,,,,,,,,,,,,,,,,down,0,3.288,,0.123148176,-0.059259288,1,0,0,0.5499,0,7,7,21,1,mist,images/br_mist.png,images/cb_mist.png,0,,,,,,,,,,,,,,,,,,,,,,
,,,,,,00004,2023-08-01_15h15.32.946,vbt_B2_day2,2022.2.4,Win32,59.79073244,,,,,,,,,,,,,,,,,,,,,,,,,,,down,0,8.7831,,0.229629686,-0.042592621,1,0,0,1.0003,0,8,8,124,1,bloeien,images/br_bloeien.png,images/cb_bloeien.png,0,,,,,,,,,,,,,,,,,,,,,,
,,,,,,00004,2023-08-01_15h15.32.946,vbt_B2_day2,2022.2.4,Win32,59.79073244,,,,,,,,,,,,,,,,,,,,,,,,,,,down,0,8.9578,,0.209259288,-0.040740755,1,0,0,0.9339,0,9,9,159,1,sufferd,images/br_sufferd.png,images/cb_sufferd.png,0,,,,,,,,,,,,,,,,,,,,,,
,,,,,,00004,2023-08-01_15h15.32.946,vbt_B2_day2,2022.2.4,Win32,59.79073244,,,,,,,,,,,,,,,,,,,,,,,,,,,down,0,11.0036,,0.224074131,-0.07129631,1,0,0,0.9752,0,10,10,193,1,weeshuis,images/br_weeshuis.png,images/cb_weeshuis.png,0,,,,,,,,,,,,,,,,,,,,,,
,,,,,,00004,2023-08-01_15h15.32.946,vbt_B2_day2,2022.2.4,Win32,59.79073244,,,,,,,,,,,,,,,,,,,,,,,,,,,down,0,5.5674,,0.224074131,-0.072222222,1,0,0,0.5664,0,11,11,27,1,dans,images/br_dans.png,images/cb_dans.png,0,,,,,,,,,,,,,,,,,,,,,,
,,,,,,00004,2023-08-01_15h15.32.946,vbt_B2_day2,2022.2.4,Win32,59.79073244,,,,,,,,,,,,,,,,,,,,,,,,,,,down,0,7.54,,0.224074131,-0.072222222,1,0,0,0.5824,0,12,12,129,1,verhaal,images/br_verhaal.png,images/cb_verhaal.png,0,,,,,,,,,,,,,,,,,,,,,,
,,,,,,00004,2023-08-01_15h15.32.946,vbt_B2_day2,2022.2.4,Win32,59.79073244,,,,,,,,,,,,,,,,,,,,,,,,,,,down,0,6.3338,,0.265740797,-0.050925954,1,0,0,2.2323,0,13,13,90,1,geluid,images/br_geluid.png,images/cb_geluid.png,0,,,,,,,,,,,,,,,,,,,,,,
,,,,,,00004,2023-08-01_15h15.32.946,vbt_B2_day2,2022.2.4,Win32,59.79073244,,,,,,,,,,,,,,,,,,,,,,,,,,,down,0,5.7867,,0.25648151,-0.03148151,1,0,0,1.6834,0,14,14,160,1,daarheen,images/br_daarheen.png,images/cb_daarheen.png,0,,,,,,,,,,,,,,,,,,,,,,
,,,,,,00004,2023-08-01_15h15.32.946,vbt_B2_day2,2022.2.4,Win32,59.79073244,,,,,,,,,,,,,,,,,,,,,,,,,,,down,0,9.2913,,0.227777778,-0.068518533,1,0,0,1.8498,0,15,15,125,1,aanzien,images/br_aanzien.png,images/cb_aanzien.png,0,,,,,,,,,,,,,,,,,,,,,,
,,,,,,00004,2023-08-01_15h15.32.946,vbt_B2_day2,2022.2.4,Win32,59.79073244,,,,,,,,,,,,,,,,,,,,,,,,,,,down,0,3.0059,,0.227777778,-0.068518533,1,0,0,1.9332,0,16,16,49,1,laken,images/br_laken.png,images/cb_laken.png,0,,,,,,,,,,,,,,,,,,,,,,
,,,,,,00004,2023-08-01_15h15.32.946,vbt_B2_day2,2022.2.4,Win32,59.79073244,,,,,,,,,,,,,,,,,,,,,,,,,,,down,0,4.7347,,0.227777778,-0.068518533,1,0,0,0.9165,0,17,17,82,1,muziek,images/br_muziek.png,images/cb_muziek.png,0,,,,,,,,,,,,,,,,,,,,,,
,,,,,,00004,2023-08-01_15h15.32.946,vbt_B2_day2,2022.2.4,Win32,59.79073244,,,,,,,,,,,,,,,,,,,,,,,,,,,down,0,9.0673,,0.237963019,-0.152777778,1,0,0,1.341,0,18,18,18,1,blik,images/br_blik.png,images/cb_blik.png,1,BLIK,,,,,,,,,,,,,,,,,,,,,
,,,,,,00004,2023-08-01_15h15.32.946,vbt_B2_day2,2022.2.4,Win32,59.79073244,,,,,,,,,,,,,,,,,,,,,,,,,,,down,0,14.7187,,0.247222222,-0.055555556,1,0,0,1.4495,0,19,19,112,1,lukken,images/br_lukken.png,images/cb_lukken.png,0,,,,,,,,,,,,,,,,,,,,,,
,,,,,,00004,2023-08-01_15h15.32.946,vbt_B2_day2,2022.2.4,Win32,59.79073244,,,,,,,,,,,,,,,,,,,,,,,,,,,down,0,3.5836,,0.187963019,-0.043518533,1,0,0,1.1168,0,20,20,45,1,piste,images/br_piste.png,images/cb_piste.png,0,,,,,,,,,,,,,,,,,,,,,,
,,,,,,00004,2023-08-01_15h15.32.946,vbt_B2_day2,2022.2.4,Win32,59.79073244,,,,,,,,,,,,,,,,,,,,,,,,,,,down,0,8.1001,,0.15648151,-0.022222222,1,0,0,0.6329,0,21,21,3,1,mand,images/br_mand.png,images/cb_mand.png,0,,,,,,,,,,,,,,,,,,,,,,
,,,,,,00004,2023-08-01_15h15.32.946,vbt_B2_day2,2022.2.4,Win32,59.79073244,,,,,,,,,,,,,,,,,,,,,,,,,,,down,0,3.384,,0.199074131,-0.022222222,1,0,0,1.5085,0,22,22,72,1,strak,images/br_strak.png,images/cb_strak.png,0,,,,,,,,,,,,,,,,,,,,,,
,,,,,,00004,2023-08-01_15h15.32.946,vbt_B2_day2,2022.2.4,Win32,59.79073244,,,,,,,,,,,,,,,,,,,,,,,,,,,down,0,10.3329,,0.111111111,-0.087962977,1,0,0,0.6676,0,23,23,80,1,kanjer,images/br_kanjer.png,images/cb_kanjer.png,0,,,,,,,,,,,,,,,,,,,,,,
,,,,,,00004,2023-08-01_15h15.32.946,vbt_B2_day2,2022.2.4,Win32,59.79073244,,,,,,,,,,,,,,,,,,,,,,,,,,,down,0,0.551,,0.217592621,-0.023148176,1,0,0,0.6916,0,24,24,0,1,slak,images/br_slak.png,images/cb_slak.png,0,,,,,,,,,,,,,,,,,,,,,,
,,,,,,00004,2023-08-01_15h15.32.946,vbt_B2_day2,2022.2.4,Win32,59.79073244,,,,,,,,,,,,,,,,,,,,,,,,,,,down,0,4.6511,,0.244444444,-0.012962977,1,0,0,1.0831,0,25,25,110,1,zuster,images/br_zuster.png,images/cb_zuster.png,0,,,,,,,,,,,,,,,,,,,,,,
,,,,,,00004,2023-08-01_15h15.32.946,vbt_B2_day2,2022.2.4,Win32,59.79073244,,,,,,,,,,,,,,,,,,,,,,,,,,,down,0,1.1177,,0.244444444,-0.012962977,1,0,0,0.9327,0,26,26,31,1,poes,images/br_poes.png,images/cb_poes.png,0,,,,,,,,,,,,,,,,,,,,,,
,,,,,,00004,2023-08-01_15h15.32.946,vbt_B2_day2,2022.2.4,Win32,59.79073244,,,,,,,,,,,,,,,,,,,,,,,,,,,down,0,6.9754,,0.244444444,-0.012962977,1,0,0,0.8403,0,27,27,139,1,stiekem,images/br_stiekem.png,images/cb_stiekem.png,1,STIEKEM,,,,,,,,,,,,,,,,,,,,,
,,,,,,00004,2023-08-01_15h15.32.946,vbt_B2_day2,2022.2.4,Win32,59.79073244,,,,,,,,,,,,,,,,,,,,,,,,,,,down,0,5.5404,,0.244444444,-0.012962977,1,0,0,0.5833,0,28,28,41,1,maken,images/br_maken.png,images/cb_maken.png,0,,,,,,,,,,,,,,,,,,,,,,
,,,,,,00004,2023-08-01_15h15.32.946,vbt_B2_day2,2022.2.4,Win32,59.79073244,,,,,,,,,,,,,,,,,,,,,,,,,,,down,0,3.8575,,0.244444444,-0.012962977,1,0,0,0.5669,0,29,29,55,1,praat,images/br_praat.png,images/cb_praat.png,0,,,,,,,,,,,,,,,,,,,,,,
,,,,,,00004,2023-08-01_15h15.32.946,vbt_B2_day2,2022.2.4,Win32,59.79073244,,,,,,,,,,,,,,,,,,,,,,,,,,,down,0,8.0389,,0.267592621,-0.105555556,1,0,0,0.4831,0,30,30,180,1,openbaar,images/br_openbaar.png,images/cb_openbaar.png,0,,,,,,,,,,,,,,,,,,,,,,
,,,,,,00004,2023-08-01_15h15.32.946,vbt_B2_day2,2022.2.4,Win32,59.79073244,,,,,,,,,,,,,,,,,,,,,,,,,,,down,0,3.3667,,0.267592621,-0.105555556,1,0,0,0.8827,0,31,31,11,1,mode,images/br_mode.png,images/cb_mode.png,0,,,,,,,,,,,,,,,,,,,,,,
,,,,,,00004,2023-08-01_15h15.32.946,vbt_B2_day2,2022.2.4,Win32,59.79073244,,,,,,,,,,,,,,,,,,,,,,,,,,,down,0,4.4373,,0.267592621,-0.105555556,1,0,0,0.4995,0,32,32,115,1,kleren,images/br_kleren.png,images/cb_kleren.png,0,,,,,,,,,,,,,,,,,,,,,,
,,,,,,00004,2023-08-01_15h15.32.946,vbt_B2_day2,2022.2.4,Win32,59.79073244,,,,,,,,,,,,,,,,,,,,,,,,,,,down,0,16.6554,,0.265740797,-0.047222222,1,0,0,1.4828,0,33,33,79,1,nodig,images/br_nodig.png,images/cb_nodig.png,0,,,,,,,,,,,,,,,,,,,,,,
,,,,,,00004,2023-08-01_15h15.32.946,vbt_B2_day2,2022.2.4,Win32,59.79073244,,,,,,,,,,,,,,,,,,,,,,,,,,,down,0,1.8405,,0.265740797,-0.047222222,1,0,0,0.4831,0,34,34,77,1,woede,images/br_woede.png,images/cb_woede.png,0,,,,,,,,,,,,,,,,,,,,,,
,,,,,,00004,2023-08-01_15h15.32.946,vbt_B2_day2,2022.2.4,Win32,59.79073244,,,,,,,,,,,,,,,,,,,,,,,,,,,down,0,4.003,,0.265740797,-0.047222222,1,0,0,0.5829,0,35,35,157,1,uitlaat,images/br_uitlaat.png,images/cb_uitlaat.png,0,,,,,,,,,,,,,,,,,,,,,,
,,,,,,00004,2023-08-01_15h15.32.946,vbt_B2_day2,2022.2.4,Win32,59.79073244,,,,,,,,,,,,,,,,,,,,,,,,,,,down,0,4.917,,0.265740797,-0.047222222,1,0,0,0.5502,0,36,36,163,1,schuilen,images/br_schuilen.png,images/cb_schuilen.png,0,,,,,,,,,,,,,,,,,,,,,,
,,,,,,00004,2023-08-01_15h15.32.946,vbt_B2_day2,2022.2.4,Win32,59.79073244,,,,,,,,,,,,,,,,,,,,,,,,,,,down,0,13.5709,,0.265740797,-0.047222222,1,0,0,0.6667,0,37,37,131,1,opzicht,images/br_opzicht.png,images/cb_opzicht.png,0,,,,,,,,,,,,,,,,,,,,,,
,,,,,,00004,2023-08-01_15h15.32.946,vbt_B2_day2,2022.2.4,Win32,59.79073244,,,,,,,,,,,,,,,,,,,,,,,,,,,down,0,10.6,,0.265740797,-0.047222222,1,0,0,18.947,0,38,38,149,1,redding,images/br_redding.png,images/cb_redding.png,0,,,,,,,,,,,,,,,,,,,,,,
,,,,,,00004,2023-08-01_15h15.32.946,vbt_B2_day2,2022.2.4,Win32,59.79073244,,,,,,,,,,,,,,,,,,,,,,,,,,,down,0,2.9067,,0.265740797,-0.047222222,1,0,0,1.1166,0,39,39,151,1,aanzoek,images/br_aanzoek.png,images/cb_aanzoek.png,0,,,,,,,,,,,,,,,,,,,,,,
,,,,,,00004,2023-08-01_15h15.32.946,vbt_B2_day2,2022.2.4,Win32,59.79073244,,,,,,,,,,,,,,,,,,,,,,,,,,,down,0,10.1412,,0.265740797,-0.047222222,1,0,0,0.5336,0,40,40,123,1,hiervan,images/br_hiervan.png,images/cb_hiervan.png,0,,,,,,,,,,,,,,,,,,,,,,
,,,,,,00004,2023-08-01_15h15.32.946,vbt_B2_day2,2022.2.4,Win32,59.79073244,,,,,,,,,,,,,,,,,,,,,,,,,,,down,0,6.2171,,0.265740797,-0.047222222,1,0,0,0.5494,0,41,41,32,1,palm,images/br_palm.png,images/cb_palm.png,0,,,,,,,,,,,,,,,,,,,,,,
,,,,,,00004,2023-08-01_15h15.32.946,vbt_B2_day2,2022.2.4,Win32,59.79073244,,,,,,,,,,,,,,,,,,,,,,,,,,,down,0,6.0671,,0.265740797,-0.047222222,1,0,0,10.0485,0,42,42,172,1,weigeren,images/br_weigeren.png,images/cb_weigeren.png,0,,,,,,,,,,,,,,,,,,,,,,
,,,,,,00004,2023-08-01_15h15.32.946,vbt_B2_day2,2022.2.4,Win32,59.79073244,,,,,,,,,,,,,,,,,,,,,,,,,,,down,0,4.6004,,0.272222222,-0.08148151,1,0,0,0.6995,0,43,43,192,1,schaamte,images/br_schaamte.png,images/cb_schaamte.png,0,,,,,,,,,,,,,,,,,,,,,,
,,,,,,00004,2023-08-01_15h15.32.946,vbt_B2_day2,2022.2.4,Win32,59.79073244,,,,,,,,,,,,,,,,,,,,,,,,,,,down,0,5.4676,,0.270370399,-0.079629644,1,0,0,0.5001,0,44,44,33,1,vlek,images/br_vlek.png,images/cb_vlek.png,0,,,,,,,,,,,,,,,,,,,,,,
,,,,,,00004,2023-08-01_15h15.32.946,vbt_B2_day2,2022.2.4,Win32,59.79073244,,,,,,,,,,,,,,,,,,,,,,,,,,,down,0,6.8507,,0.270370399,-0.079629644,1,0,0,0.9668,0,45,45,195,1,middelen,images/br_middelen.png,images/cb_middelen.png,0,,,,,,,,,,,,,,,,,,,,,,
,,,,,,00004,2023-08-01_15h15.32.946,vbt_B2_day2,2022.2.4,Win32,59.79073244,,,,,,,,,,,,,,,,,,,,,,,,,,,down,0,2.1347,,0.270370399,-0.079629644,1,0,0,0.5829,0,46,46,64,1,wegen,images/br_wegen.png,images/cb_wegen.png,0,,,,,,,,,,,,,,,,,,,,,,
,,,,,,00004,2023-08-01_15h15.32.946,vbt_B2_day2,2022.2.4,Win32,59.79073244,,,,,,,,,,,,,,,,,,,,,,,,,,,down,0,10.4689,,0.270370399,-0.079629644,1,0,0,0.6832,0,47,47,70,1,ijdel,images/br_ijdel.png,images/cb_ijdel.png,0,,,,,,,,,,,,,,,,,,,,,,
,,,,,,00004,2023-08-01_15h15.32.946,vbt_B2_day2,2022.2.4,Win32,59.79073244,,,,,,,,,,,,,,,,,,,,,,,,,,,down,0,3.9693,,0.270370399,-0.079629644,1,0,0,4.8161,0,48,48,170,1,schatten,images/br_schatten.png,images/cb_schatten.png,0,,,,,,,,,,,,,,,,,,,,,,
,,,,,,00004,2023-08-01_15h15.32.946,vbt_B2_day2,2022.2.4,Win32,59.79073244,,,,,,,,,,,,,,,,,,,,,,,,,,,down,0,14.4815,,0.111111111,-0.097222222,1,0,0,0.8926,0,49,49,119,1,liefje,images/br_liefje.png,images/cb_liefje.png,0,,,,,,,,,,,,,,,,,,,,,,
,,,,,,00004,2023-08-01_15h15.32.946,vbt_B2_day2,2022.2.4,Win32,59.79073244,,,,,,,,,,,,,,,,,,,,,,,,,,,down,0,4.6969,,0.111111111,-0.097222222,1,0,0,0.8919,0,50,50,4,1,moes,images/br_moes.png,images/cb_moes.png,0,,,,,,,,,,,,,,,,,,,,,,
,,,,,,00004,2023-08-01_15h15.32.946,vbt_B2_day2,2022.2.4,Win32,59.79073244,,,,,,,,,,,,,,,,,,,,,,,,,,,down,0,5.6341,,0.199074131,-0.043518533,1,0,0,0.6995,0,51,51,142,1,snuiven,images/br_snuiven.png,images/cb_snuiven.png,0,,,,,,,,,,,,,,,,,,,,,,
,,,,,,00004,2023-08-01_15h15.32.946,vbt_B2_day2,2022.2.4,Win32,59.79073244,,,,,,,,,,,,,,,,,,,,,,,,,,,down,0,5.3672,,-0.044444444,-0.07129631,1,0,0,1.1326,0,52,52,52,1,wagon,images/br_wagon.png,images/cb_wagon.png,0,,,,,,,,,,,,,,,,,,,,,,
,,,,,,00004,2023-08-01_15h15.32.946,vbt_B2_day2,2022.2.4,Win32,59.79073244,,,,,,,,,,,,,,,,,,,,,,,,,,,down,0,2.1117,,-0.044444444,-0.07129631,1,0,0,0.4833,0,53,53,101,1,staren,images/br_staren.png,images/cb_staren.png,0,,,,,,,,,,,,,,,,,,,,,,
,,,,,,00004,2023-08-01_15h15.32.946,vbt_B2_day2,2022.2.4,Win32,59.79073244,,,,,,,,,,,,,,,,,,,,,,,,,,,down,0,2.3511,,-0.044444444,-0.07129631,1,0,0,0.5335,0,54,54,62,1,knaap,images/br_knaap.png,images/cb_knaap.png,0,,,,,,,,,,,,,,,,,,,,,,
,,,,,,00004,2023-08-01_15h15.32.946,vbt_B2_day2,2022.2.4,Win32,59.79073244,,,,,,,,,,,,,,,,,,,,,,,,,,,down,0,10.719,,0.307407464,0.01851849,1,0,0,47.127,0,55,55,168,1,bisschop,images/br_bisschop.png,images/cb_bisschop.png,0,,,,,,,,,,,,,,,,,,,,,,
,,,,,,00004,2023-08-01_15h15.32.946,vbt_B2_day2,2022.2.4,Win32,59.79073244,,,,,,,,,,,,,,,,,,,,,,,,,,,down,0,6.5412,,0.307407464,0.01851849,1,0,0,1.3917,0,56,56,100,1,geduld,images/br_geduld.png,images/cb_geduld.png,0,,,,,,,,,,,,,,,,,,,,,,
,,,,,,00004,2023-08-01_15h15.32.946,vbt_B2_day2,2022.2.4,Win32,59.79073244,,,,,,,,,,,,,,,,,,,,,,,,,,,down,0,5.5842,,0.307407464,0.01851849,1,0,0,0.4999,0,57,57,146,1,opkomen,images/br_opkomen.png,images/cb_opkomen.png,0,,,,,,,,,,,,,,,,,,,,,,
,,,,,,00004,2023-08-01_15h15.32.946,vbt_B2_day2,2022.2.4,Win32,59.79073244,,,,,,,,,,,,,,,,,,,,,,,,,,,down,0,0.6454,,0.301851908,0.010185157,1,0,0,0.933,0,58,58,5,1,blad,images/br_blad.png,images/cb_blad.png,0,,,,,,,,,,,,,,,,,,,,,,
,,,,,,00004,2023-08-01_15h15.32.946,vbt_B2_day2,2022.2.4,Win32,59.79073244,,,,,,,,,,,,,,,,,,,,,,,,,,,down,0,6.4662,,0.300925954,0.008333333,1,0,0,0.6335,0,59,59,148,1,smullen,images/br_smullen.png,images/cb_smullen.png,0,,,,,,,,,,,,,,,,,,,,,,
,,,,,,00004,2023-08-01_15h15.32.946,vbt_B2_day2,2022.2.4,Win32,59.79073244,,,,,,,,,,,,,,,,,,,,,,,,,,,down,0,8.8848,,0.300925954,0.008333333,1,0,0,0.7167,0,60,60,176,1,techniek,images/br_techniek.png,images/cb_techniek.png,1,TECHNIEK,,,,,,,,,,,,,,,,,,,,,
,,,,,,00004,2023-08-01_15h15.32.946,vbt_B2_day2,2022.2.4,Win32,59.79073244,,,,,,,,,,,,,,,,,,,,,,,,,,,down,0,5.6509,,0.144444444,-0.043518533,1,0,0,0.8994,0,61,61,71,1,bever,images/br_bever.png,images/cb_bever.png,0,,,,,,,,,,,,,,,,,,,,,,
,,,,,,00004,2023-08-01_15h15.32.946,vbt_B2_day2,2022.2.4,Win32,59.79073244,,,,,,,,,,,,,,,,,,,,,,,,,,,down,0,1.2842,,0.146296353,-0.039814843,1,0,0,1.2665,0,62,62,51,1,samen,images/br_samen.png,images/cb_samen.png,0,,,,,,,,,,,,,,,,,,,,,,
,,,,,,00004,2023-08-01_15h15.32.946,vbt_B2_day2,2022.2.4,Win32,59.79073244,,,,,,,,,,,,,,,,,,,,,,,,,,,down,0,1.1412,,0.468518575,-0.15648151,1,0,0,1.7251,0,63,63,126,1,kasteel,images/br_kasteel.png,images/cb_kasteel.png,0,,,,,,,,,,,,,,,,,,,,,,
,,,,,,00004,2023-08-01_15h15.32.946,vbt_B2_day2,2022.2.4,Win32,59.79073244,,,,,,,,,,,,,,,,,,,,,,,,,,,down,0,2.7412,,0.309259288,-0.004629644,1,0,0,2.0326,0,64,64,132,1,grappen,images/br_grappen.png,images/cb_grappen.png,0,,,,,,,,,,,,,,,,,,,,,,
,,,,,,00004,2023-08-01_15h15.32.946,vbt_B2_day2,2022.2.4,Win32,59.79073244,,,,,,,,,,,,,,,,,,,,,,,,,,,down,0,6.2745,,0.284259288,-0.073148176,1,0,0,0.6912,0,65,65,177,1,maaltijd,images/br_maaltijd.png,images/cb_maaltijd.png,1,MAALTIJD,,,,,,,,,,,,,,,,,,,,,
,,,,,,00004,2023-08-01_15h15.32.946,vbt_B2_day2,2022.2.4,Win32,59.79073244,,,,,,,,,,,,,,,,,,,,,,,,,,,down,0,5.6905,,0.433333333,0.033333333,1,0,0,0.5168,0,66,66,167,1,eenhoorn,images/br_eenhoorn.png,images/cb_eenhoorn.png,0,,,,,,,,,,,,,,,,,,,,,,
,,,,,,00004,2023-08-01_15h15.32.946,vbt_B2_day2,2022.2.4,Win32,59.79073244,,,,,,,,,,,,,,,,,,,,,,,,,,,down,0,9.417,,0.433333333,0.033333333,1,0,0,0.5329,0,67,67,92,1,geheim,images/br_geheim.png,images/cb_geheim.png,0,,,,,,,,,,,,,,,,,,,,,,
,,,,,,00004,2023-08-01_15h15.32.946,vbt_B2_day2,2022.2.4,Win32,59.79073244,,,,,,,,,,,,,,,,,,,,,,,,,,,down,0,10.6827,,0.433333333,0.033333333,1,0,0,0.7332,0,68,68,76,1,afval,images/br_afval.png,images/cb_afval.png,0,,,,,,,,,,,,,,,,,,,,,,
,,,,,,00004,2023-08-01_15h15.32.946,vbt_B2_day2,2022.2.4,Win32,59.79073244,,,,,,,,,,,,,,,,,,,,,,,,,,,down,0,3.1343,,0.285185242,-0.117592621,1,0,0,1.9386,0,69,69,75,1,snoep,images/br_snoep.png,images/cb_snoep.png,0,,,,,,,,,,,,,,,,,,,,,,
,,,,,,00004,2023-08-01_15h15.32.946,vbt_B2_day2,2022.2.4,Win32,59.79073244,,,,,,,,,,,,,,,,,,,,,,,,,,,down,0,8.0344,,0.285185242,-0.117592621,1,0,0,3.1332,0,70,70,99,1,koffie,images/br_koffie.png,images/cb_koffie.png,1,KOFFIE,,,,,,,,,,,,,,,,,,,,,
,,,,,,00004,2023-08-01_15h15.32.946,vbt_B2_day2,2022.2.4,Win32,59.79073244,,,,,,,,,,,,,,,,,,,,,,,,,,,down,0,1.9741,,0.285185242,-0.117592621,1,0,0,55.2928,0,71,71,26,1,leuk,images/br_leuk.png,images/cb_leuk.png,0,,,,,,,,,,,,,,,,,,,,,,
,,,,,,00004,2023-08-01_15h15.32.946,vbt_B2_day2,2022.2.4,Win32,59.79073244,,,,,,,,,,,,,,,,,,,,,,,,,,,down,0,3.4193,,0.285185242,-0.117592621,1,0,0,0.4998,0,72,72,14,1,rijp,images/br_rijp.png,images/cb_rijp.png,0,,,,,,,,,,,,,,,,,,,,,,
,,,,,,00004,2023-08-01_15h15.32.946,vbt_B2_day2,2022.2.4,Win32,59.79073244,,,,,,,,,,,,,,,,,,,,,,,,,,,down,0,6.8756,,0.28148151,-0.124074088,1,0,0,0.6,0,73,73,147,1,komisch,images/br_komisch.png,images/cb_komisch.png,0,,,,,,,,,,,,,,,,,,,,,,
,,,,,,00004,2023-08-01_15h15.32.946,vbt_B2_day2,2022.2.4,Win32,59.79073244,,,,,,,,,,,,,,,,,,,,,,,,,,,down,0,5.5003,,0.275925954,-0.104629644,1,0,0,0.6498,0,74,74,91,1,gezond,images/br_gezond.png,images/cb_gezond.png,0,,,,,,,,,,,,,,,,,,,,,,
,,,,,,00004,2023-08-01_15h15.32.946,vbt_B2_day2,2022.2.4,Win32,59.79073244,,,,,,,,,,,,,,,,,,,,,,,,,,,down,0,6.7032,,0.443518575,-0.038888889,1,0,0,0.5495,0,75,75,186,1,voorraad,images/br_voorraad.png,images/cb_voorraad.png,0,,,,,,,,,,,,,,,,,,,,,,
,,,,,,00004,2023-08-01_15h15.32.946,vbt_B2_day2,2022.2.4,Win32,59.79073244,,,,,,,,,,,,,,,,,,,,,,,,,,,down,0,0.8181,,0.076851908,0.004629601,1,0,0,0.6498,0,76,76,25,1,plek,images/br_plek.png,images/cb_plek.png,0,,,,,,,,,,,,,,,,,,,,,,
,,,,,,00004,2023-08-01_15h15.32.946,vbt_B2_day2,2022.2.4,Win32,59.79073244,,,,,,,,,,,,,,,,,,,,,,,,,,,down,0,4.7034,,0.383333333,0.079629601,1,0,0,0.5574,0,77,77,189,1,aanraden,images/br_aanraden.png,images/cb_aanraden.png,0,,,,,,,,,,,,,,,,,,,,,,
,,,,,,00004,2023-08-01_15h15.32.946,vbt_B2_day2,2022.2.4,Win32,59.79073244,,,,,,,,,,,,,,,,,,,,,,,,,,,down,0,1.5532,,0.303703732,-0.011111111,1,0,0,0.617,0,78,78,48,1,steel,images/br_steel.png,images/cb_steel.png,0,,,,,,,,,,,,,,,,,,,,,,
,,,,,,00004,2023-08-01_15h15.32.946,vbt_B2_day2,2022.2.4,Win32,59.79073244,,,,,,,,,,,,,,,,,,,,,,,,,,,down,0,12.2495,,0.578703817,-0.042592621,1,0,0,0.5339,0,79,79,133,1,seizoen,images/br_seizoen.png,images/cb_seizoen.png,0,,,,,,,,,,,,,,,,,,,,,,
,,,,,,00004,2023-08-01_15h15.32.946,vbt_B2_day2,2022.2.4,Win32,59.79073244,,,,,,,,,,,,,,,,,,,,,,,,,,,down,0,5.2857,,0.090740797,-0.016666667,1,0,0,0.6167,0,80,80,7,1,geld,images/br_geld.png,images/cb_geld.png,0,,,,,,,,,,,,,,,,,,,,,,
,,,,,,00004,2023-08-01_15h15.32.946,vbt_B2_day2,2022.2.4,Win32,59.79073244,,,,,,,,,,,,,,,,,,,,,,,,,,,down,0,5.1834,,0.325925954,0.059259245,1,0,0,0.6998,0,81,81,108,1,excuus,images/br_excuus.png,images/cb_excuus.png,0,,,,,,,,,,,,,,,,,,,,,,
,,,,,,00004,2023-08-01_15h15.32.946,vbt_B2_day2,2022.2.4,Win32,59.79073244,,,,,,,,,,,,,,,,,,,,,,,,,,,down,0,2.776,,-0.088888889,0.033333333,1,0,0,1.2832,0,82,82,65,1,parel,images/br_parel.png,images/cb_parel.png,0,,,,,,,,,,,,,,,,,,,,,,
,,,,,,00004,2023-08-01_15h15.32.946,vbt_B2_day2,2022.2.4,Win32,59.79073244,,,,,,,,,,,,,,,,,,,,,,,,,,,down,0,3.5833,,-0.052777778,-0.126851866,1,0,0,1.4491,0,83,83,197,1,spanning,images/br_spanning.png,images/cb_spanning.png,0,,,,,,,,,,,,,,,,,,,,,,
,,,,,,00004,2023-08-01_15h15.32.946,vbt_B2_day2,2022.2.4,Win32,59.79073244,,,,,,,,,,,,,,,,,,,,,,,,,,,down,0,3.2539,,0.122222222,-0.054629644,1,0,0,0.4667,0,84,84,23,1,zout,images/br_zout.png,images/cb_zout.png,0,,,,,,,,,,,,,,,,,,,,,,
,,,,,,00004,2023-08-01_15h15.32.946,vbt_B2_day2,2022.2.4,Win32,59.79073244,,,,,,,,,,,,,,,,,,,,,,,,,,,down,0,6.7087,,0.122222222,-0.054629644,1,0,0,0.5296,0,85,85,96,1,slagen,images/br_slagen.png,images/cb_slagen.png,1,SLAGEN,,,,,,,,,,,,,,,,,,,,,
,,,,,,00004,2023-08-01_15h15.32.946,vbt_B2_day2,2022.2.4,Win32,59.79073244,,,,,,,,,,,,,,,,,,,,,,,,,,,down,0,9.2512,,0.147222222,-0.004629644,1,0,0,0.5675,0,86,86,187,1,opkijken,images/br_opkijken.png,images/cb_opkijken.png,0,,,,,,,,,,,,,,,,,,,,,,
,,,,,,00004,2023-08-01_15h15.32.946,vbt_B2_day2,2022.2.4,Win32,59.79073244,,,,,,,,,,,,,,,,,,,,,,,,,,,down,0,3.4012,,0.552777778,0.033333333,1,0,0,0.9077,0,87,87,97,1,loyaal,images/br_loyaal.png,images/cb_loyaal.png,1,LOYAAL,,,,,,,,,,,,,,,,,,,,,
,,,,,,00004,2023-08-01_15h15.32.946,vbt_B2_day2,2022.2.4,Win32,59.79073244,,,,,,,,,,,,,,,,,,,,,,,,,,,down,0,12.0341,,0.405555556,0.188888889,1,0,0,0.6333,0,88,88,111,1,ticket,images/br_ticket.png,images/cb_ticket.png,0,,,,,,,,,,,,,,,,,,,,,,
,,,,,,00004,2023-08-01_15h15.32.946,vbt_B2_day2,2022.2.4,Win32,59.79073244,,,,,,,,,,,,,,,,,,,,,,,,,,,down,0,7.5004,,0.125,-0.000925954,1,0,0,0.6161,0,89,89,154,1,aflopen,images/br_aflopen.png,images/cb_aflopen.png,0,,,,,,,,,,,,,,,,,,,,,,
,,,,,,00004,2023-08-01_15h15.32.946,vbt_B2_day2,2022.2.4,Win32,59.79073244,,,,,,,,,,,,,,,,,,,,,,,,,,,down,0,4.2009,,0.348148176,0.079629601,1,0,0,1.0163,0,90,90,54,1,gebit,images/br_gebit.png,images/cb_gebit.png,0,,,,,,,,,,,,,,,,,,,,,,
,,,,,,00004,2023-08-01_15h15.32.946,vbt_B2_day2,2022.2.4,Win32,59.79073244,,,,,,,,,,,,,,,,,,,,,,,,,,,down,0,3.0507,,0.132407464,-0.002777778,1,0,0,0.4494,0,91,91,81,1,dubbel,images/br_dubbel.png,images/cb_dubbel.png,0,,,,,,,,,,,,,,,,,,,,,,
,,,,,,00004,2023-08-01_15h15.32.946,vbt_B2_day2,2022.2.4,Win32,59.79073244,,,,,,,,,,,,,,,,,,,,,,,,,,,down,0,15.8054,,0.214814843,-0.048148176,1,0,0,8.6156,0,92,92,22,1,stof,images/br_stof.png,images/cb_stof.png,0,,,,,,,,,,,,,,,,,,,,,,
,,,,,,00004,2023-08-01_15h15.32.946,vbt_B2_day2,2022.2.4,Win32,59.79073244,,,,,,,,,,,,,,,,,,,,,,,,,,,down,0,6.4408,,0.279629686,-0.125,1,0,0,0.5501,0,93,93,155,1,gerucht,images/br_gerucht.png,images/cb_gerucht.png,0,,,,,,,,,,,,,,,,,,,,,,
,,,,,,00004,2023-08-01_15h15.32.946,vbt_B2_day2,2022.2.4,Win32,59.79073244,,,,,,,,,,,,,,,,,,,,,,,,,,,down,0,5.0419,,0.279629686,-0.125,1,0,0,0.5834,0,94,94,83,1,mening,images/br_mening.png,images/cb_mening.png,0,,,,,,,,,,,,,,,,,,,,,,
,,,,,,00004,2023-08-01_15h15.32.946,vbt_B2_day2,2022.2.4,Win32,59.79073244,,,,,,,,,,,,,,,,,,,,,,,,,,,down,0,5.4838,,0.275925954,-0.120370399,1,0,0,0.4416,0,95,95,24,1,jurk,images/br_jurk.png,images/cb_jurk.png,0,,,,,,,,,,,,,,,,,,,,,,
,,,,,,00004,2023-08-01_15h15.32.946,vbt_B2_day2,2022.2.4,Win32,59.79073244,,,,,,,,,,,,,,,,,,,,,,,,,,,down,0,3.4911,,0.275925954,-0.120370399,1,0,0,0.6659,0,96,96,87,1,toeval,images/br_toeval.png,images/cb_toeval.png,0,,,,,,,,,,,,,,,,,,,,,,
,,,,,,00004,2023-08-01_15h15.32.946,vbt_B2_day2,2022.2.4,Win32,59.79073244,,,,,,,,,,,,,,,,,,,,,,,,,,,down,0,3.77,,0.275925954,-0.120370399,1,0,0,0.6164,0,97,97,20,1,site,images/br_site.png,images/cb_site.png,0,,,,,,,,,,,,,,,,,,,,,,
,,,,,,00004,2023-08-01_15h15.32.946,vbt_B2_day2,2022.2.4,Win32,59.79073244,,,,,,,,,,,,,,,,,,,,,,,,,,,down,0,1.9723,,0.280555556,-0.116666667,1,0,0,0.5665,0,98,98,89,1,slapen,images/br_slapen.png,images/cb_slapen.png,0,,,,,,,,,,,,,,,,,,,,,,
,,,,,,00004,2023-08-01_15h15.32.946,vbt_B2_day2,2022.2.4,Win32,59.79073244,,,,,,,,,,,,,,,,,,,,,,,,,,,down,0,3.2156,,0.280555556,-0.116666667,1,0,0,0.5334,0,99,99,2,1,jaar,images/br_jaar.png,images/cb_jaar.png,0,,,,,,,,,,,,,,,,,,,,,,
,,,,,,00004,2023-08-01_15h15.32.946,vbt_B2_day2,2022.2.4,Win32,59.79073244,,,,,,,,,,,,,,,,,,,,,,,,,,,down,0,24.1186,,-0.022222222,-0.067592621,1,0,0,16.7817,0,100,100,143,1,hechten,images/br_hechten.png,images/cb_hechten.png,0,,,,,,,,,,,,,,,,,,,,,,
,,,,,,00004,2023-08-01_15h15.32.946,vbt_B2_day2,2022.2.4,Win32,59.79073244,,,,,,,,,,,,,,,,,,,,,,,,,,,down,0,0.6175,,-0.061111111,-0.090740755,1,0,0,0.5497,0,101,101,29,1,baas,images/br_baas.png,images/cb_baas.png,0,,,,,,,,,,,,,,,,,,,,,,
,,,,,,00004,2023-08-01_15h15.32.946,vbt_B2_day2,2022.2.4,Win32,59.79073244,,,,,,,,,,,,,,,,,,,,,,,,,,,down,0,3.6514,,0.253703732,-0.140740755,1,0,0,0.5331,0,102,102,30,1,uien,images/br_uien.png,images/cb_uien.png,0,,,,,,,,,,,,,,,,,,,,,,
,,,,,,00004,2023-08-01_15h15.32.946,vbt_B2_day2,2022.2.4,Win32,59.79073244,,,,,,,,,,,,,,,,,,,,,,,,,,,down,0,3.0878,,0.253703732,-0.140740755,1,0,0,0.4995,0,103,103,171,1,aarzelen,images/br_aarzelen.png,images/cb_aarzelen.png,0,,,,,,,,,,,,,,,,,,,,,,
,,,,,,00004,2023-08-01_15h15.32.946,vbt_B2_day2,2022.2.4,Win32,59.79073244,,,,,,,,,,,,,,,,,,,,,,,,,,,down,0,1.9702,,0.253703732,-0.140740755,1,0,0,0.5503,0,104,104,113,1,koppen,images/br_koppen.png,images/cb_koppen.png,0,,,,,,,,,,,,,,,,,,,,,,
,,,,,,00004,2023-08-01_15h15.32.946,vbt_B2_day2,2022.2.4,Win32,59.79073244,,,,,,,,,,,,,,,,,,,,,,,,,,,down,0,7.8933,,0.253703732,-0.140740755,1,0,0,0.6305,0,105,105,145,1,invloed,images/br_invloed.png,images/cb_invloed.png,0,,,,,,,,,,,,,,,,,,,,,,
,,,,,,00004,2023-08-01_15h15.32.946,vbt_B2_day2,2022.2.4,Win32,59.79073244,,,,,,,,,,,,,,,,,,,,,,,,,,,down,0,2.772,,0.18148151,-0.187037065,1,0,0,0.6907,0,106,106,60,1,jasje,images/br_jasje.png,images/cb_jasje.png,0,,,,,,,,,,,,,,,,,,,,,,
,,,,,,00004,2023-08-01_15h15.32.946,vbt_B2_day2,2022.2.4,Win32,59.79073244,,,,,,,,,,,,,,,,,,,,,,,,,,,down,0,4.6513,,0.18148151,-0.186111111,1,0,0,0.4835,0,107,107,98,1,kreeft,images/br_kreeft.png,images/cb_kreeft.png,1,KREEFT,,,,,,,,,,,,,,,,,,,,,
,,,,,,00004,2023-08-01_15h15.32.946,vbt_B2_day2,2022.2.4,Win32,59.79073244,,,,,,,,,,,,,,,,,,,,,,,,,,,down,0,4.0027,,0.18148151,-0.186111111,1,0,0,0.5748,0,108,108,56,1,traag,images/br_traag.png,images/cb_traag.png,1,TRAAG,,,,,,,,,,,,,,,,,,,,,
,,,,,,00004,2023-08-01_15h15.32.946,vbt_B2_day2,2022.2.4,Win32,59.79073244,,,,,,,,,,,,,,,,,,,,,,,,,,,down,0,7.8862,,0.139814843,-0.174074088,1,0,0,0.517,0,109,109,103,1,joggen,images/br_joggen.png,images/cb_joggen.png,0,,,,,,,,,,,,,,,,,,,,,,
,,,,,,00004,2023-08-01_15h15.32.946,vbt_B2_day2,2022.2.4,Win32,59.79073244,,,,,,,,,,,,,,,,,,,,,,,,,,,down,0,3.4507,,0.139814843,-0.175,1,0,0,0.4998,0,110,110,58,1,tekst,images/br_tekst.png,images/cb_tekst.png,1,TEKST,,,,,,,,,,,,,,,,,,,,,
,,,,,,00004,2023-08-01_15h15.32.946,vbt_B2_day2,2022.2.4,Win32,59.79073244,,,,,,,,,,,,,,,,,,,,,,,,,,,down,0,7.5837,,0.139814843,-0.175,1,0,0,0.6665,0,111,111,199,1,beseffen,images/br_beseffen.png,images/cb_beseffen.png,0,,,,,,,,,,,,,,,,,,,,,,
,,,,,,00004,2023-08-01_15h15.32.946,vbt_B2_day2,2022.2.4,Win32,59.79073244,,,,,,,,,,,,,,,,,,,,,,,,,,,down,0,2.0495,,0.139814843,-0.175,1,0,0,0.6334,0,112,112,38,1,baai,images/br_baai.png,images/cb_baai.png,0,,,,,,,,,,,,,,,,,,,,,,
,,,,,,00004,2023-08-01_15h15.32.946,vbt_B2_day2,2022.2.4,Win32,59.79073244,,,,,,,,,,,,,,,,,,,,,,,,,,,down,0,6.4506,,0.139814843,-0.175,1,0,0,1.0222,0,113,113,63,1,flirt,images/br_flirt.png,images/cb_flirt.png,0,,,,,,,,,,,,,,,,,,,,,,
,,,,,,00004,2023-08-01_15h15.32.946,vbt_B2_day2,2022.2.4,Win32,59.79073244,,,,,,,,,,,,,,,,,,,,,,,,,,,down,0,1.5691,,0.139814843,-0.175,1,0,0,0.5166,0,114,114,61,1,groen,images/br_groen.png,images/cb_groen.png,0,,,,,,,,,,,,,,,,,,,,,,
,,,,,,00004,2023-08-01_15h15.32.946,vbt_B2_day2,2022.2.4,Win32,59.79073244,,,,,,,,,,,,,,,,,,,,,,,,,,,down,0,5.1177,,0.139814843,-0.175,1,0,0,0.483,0,115,115,88,1,boeien,images/br_boeien.png,images/cb_boeien.png,0,,,,,,,,,,,,,,,,,,,,,,
,,,,,,00004,2023-08-01_15h15.32.946,vbt_B2_day2,2022.2.4,Win32,59.79073244,,,,,,,,,,,,,,,,,,,,,,,,,,,down,0,0.8259,,0.139814843,-0.175,1,0,0,0.582,0,116,116,42,1,bleek,images/br_bleek.png,images/cb_bleek.png,0,,,,,,,,,,,,,,,,,,,,,,
,,,,,,00004,2023-08-01_15h15.32.946,vbt_B2_day2,2022.2.4,Win32,59.79073244,,,,,,,,,,,,,,,,,,,,,,,,,,,down,0,10.7203,,0.139814843,-0.175,1,0,0,2.3502,0,117,117,85,1,heilig,images/br_heilig.png,images/cb_heilig.png,0,,,,,,,,,,,,,,,,,,,,,,
,,,,,,00004,2023-08-01_15h15.32.946,vbt_B2_day2,2022.2.4,Win32,59.79073244,,,,,,,,,,,,,,,,,,,,,,,,,,,down,0,19.9652,,0.139814843,-0.175,1,0,0,2.0159,0,118,118,181,1,toegeven,images/br_toegeven.png,images/cb_toegeven.png,0,,,,,,,,,,,,,,,,,,,,,,
,,,,,,00004,2023-08-01_15h15.32.946,vbt_B2_day2,2022.2.4,Win32,59.79073244,,,,,,,,,,,,,,,,,,,,,,,,,,,down,0,9.5795,,0.322222222,-0.237963019,1,0,0,2.5811,0,119,119,86,1,woning,images/br_woning.png,images/cb_woning.png,0,,,,,,,,,,,,,,,,,,,,,,
,,,,,,00004,2023-08-01_15h15.32.946,vbt_B2_day2,2022.2.4,Win32,59.79073244,,,,,,,,,,,,,,,,,,,,,,,,,,,down,0,5.9499,,0.502777778,-0.175925954,1,0,0,1.4577,0,120,120,121,1,twijfel,images/br_twijfel.png,images/cb_twijfel.png,0,,,,,,,,,,,,,,,,,,,,,,
,,,,,,00004,2023-08-01_15h15.32.946,vbt_B2_day2,2022.2.4,Win32,59.79073244,,,,,,,,,,,,,,,,,,,,,,,,,,,down,0,3.4929,,0.228703732,0.033333333,1,0,0,1.4829,0,121,121,47,1,kabel,images/br_kabel.png,images/cb_kabel.png,0,,,,,,,,,,,,,,,,,,,,,,
,,,,,,00004,2023-08-01_15h15.32.946,vbt_B2_day2,2022.2.4,Win32,59.79073244,,,,,,,,,,,,,,,,,,,,,,,,,,,down,0,17.3871,,-0.059259203,-0.08148151,1,0,0,39.8509,0,122,122,164,1,anarchie,images/br_anarchie.png,images/cb_anarchie.png,0,,,,,,,,,,,,,,,,,,,,,,
,,,,,,00004,2023-08-01_15h15.32.946,vbt_B2_day2,2022.2.4,Win32,59.79073244,,,,,,,,,,,,,,,,,,,,,,,,,,,down,0,2.4316,,0.025,-0.107407422,1,0,0,0.5505,0,123,123,57,1,steek,images/br_steek.png,images/cb_steek.png,1,STEEK,,,,,,,,,,,,,,,,,,,,,
,,,,,,00004,2023-08-01_15h15.32.946,vbt_B2_day2,2022.2.4,Win32,59.79073244,,,,,,,,,,,,,,,,,,,,,,,,,,,down,0,3.007,,0.368518575,-0.138888889,1,0,0,0.6332,0,124,124,43,1,klauw,images/br_klauw.png,images/cb_klauw.png,0,,,,,,,,,,,,,,,,,,,,,,
,,,,,,00004,2023-08-01_15h15.32.946,vbt_B2_day2,2022.2.4,Win32,59.79073244,,,,,,,,,,,,,,,,,,,,,,,,,,,down,0,0.4351,,0.368518575,-0.138888889,1,0,0,2.8994,0,125,125,12,1,kust,images/br_kust.png,images/cb_kust.png,0,,,,,,,,,,,,,,,,,,,,,,
,,,,,,00004,2023-08-01_15h15.32.946,vbt_B2_day2,2022.2.4,Win32,59.79073244,,,,,,,,,,,,,,,,,,,,,,,,,,,down,0,0.3173,,0.367592621,-0.143518533,1,0,0,0.5834,0,126,126,39,1,laag,images/br_laag.png,images/cb_laag.png,0,,,,,,,,,,,,,,,,,,,,,,
,,,,,,00004,2023-08-01_15h15.32.946,vbt_B2_day2,2022.2.4,Win32,59.79073244,,,,,,,,,,,,,,,,,,,,,,,,,,,down,0,7.0669,,0.367592621,-0.155555556,1,0,0,0.7162,0,127,127,15,1,soda,images/br_soda.png,images/cb_soda.png,0,,,,,,,,,,,,,,,,,,,,,,
,,,,,,00004,2023-08-01_15h15.32.946,vbt_B2_day2,2022.2.4,Win32,59.79073244,,,,,,,,,,,,,,,,,,,,,,,,,,,down,0,7.4733,,0.028703732,-0.087037065,1,0,0,0.8337,0,128,128,166,1,strikken,images/br_strikken.png,images/cb_strikken.png,0,,,,,,,,,,,,,,,,,,,,,,
,,,,,,00004,2023-08-01_15h15.32.946,vbt_B2_day2,2022.2.4,Win32,59.79073244,,,,,,,,,,,,,,,,,,,,,,,,,,,down,0,7.503,,-0.055555556,-0.105555556,1,0,0,0.6666,0,129,129,190,1,goedkoop,images/br_goedkoop.png,images/cb_goedkoop.png,0,,,,,,,,,,,,,,,,,,,,,,
,,,,,,00004,2023-08-01_15h15.32.946,vbt_B2_day2,2022.2.4,Win32,59.79073244,,,,,,,,,,,,,,,,,,,,,,,,,,,down,0,9.6897,,-0.055555556,-0.105555556,1,0,0,2.6655,0,130,130,19,1,geit,images/br_geit.png,images/cb_geit.png,1,GEIT,,,,,,,,,,,,,,,,,,,,,
,,,,,,00004,2023-08-01_15h15.32.946,vbt_B2_day2,2022.2.4,Win32,59.79073244,,,,,,,,,,,,,,,,,,,,,,,,,,,down,0,20.0171,,-0.055555556,-0.105555556,1,0,0,0.8,0,131,131,188,1,strekken,images/br_strekken.png,images/cb_strekken.png,0,,,,,,,,,,,,,,,,,,,,,,
,,,,,,00004,2023-08-01_15h15.32.946,vbt_B2_day2,2022.2.4,Win32,59.79073244,,,,,,,,,,,,,,,,,,,,,,,,,,,down,0,2.7974,,-0.056481425,-0.107407422,1,0,0,0.5936,0,132,132,114,1,vullen,images/br_vullen.png,images/cb_vullen.png,0,,,,,,,,,,,,,,,,,,,,,,
,,,,,,00004,2023-08-01_15h15.32.946,vbt_B2_day2,2022.2.4,Win32,59.79073244,,,,,,,,,,,,,,,,,,,,,,,,,,,down,0,7.717,,-0.056481425,-0.107407422,1,0,0,0.7994,0,133,133,104,1,zweven,images/br_zweven.png,images/cb_zweven.png,0,,,,,,,,,,,,,,,,,,,,,,
,,,,,,00004,2023-08-01_15h15.32.946,vbt_B2_day2,2022.2.4,Win32,59.79073244,,,,,,,,,,,,,,,,,,,,,,,,,,,down,0,9.3712,,-0.163888889,-0.063888889,1,0,0,0.6501,0,134,134,165,1,feestdag,images/br_feestdag.png,images/cb_feestdag.png,0,,,,,,,,,,,,,,,,,,,,,,
,,,,,,00004,2023-08-01_15h15.32.946,vbt_B2_day2,2022.2.4,Win32,59.79073244,,,,,,,,,,,,,,,,,,,,,,,,,,,down,0,12.9838,,0.144444444,-0.051851866,1,0,0,0.6333,0,135,135,59,1,kring,images/br_kring.png,images/cb_kring.png,1,KRING,,,,,,,,,,,,,,,,,,,,,
,,,,,,00004,2023-08-01_15h15.32.946,vbt_B2_day2,2022.2.4,Win32,59.79073244,,,,,,,,,,,,,,,,,,,,,,,,,,,down,0,6.3174,,0.212037065,-0.043518533,1,0,0,2.1666,0,136,136,84,1,lokken,images/br_lokken.png,images/cb_lokken.png,0,,,,,,,,,,,,,,,,,,,,,,
,,,,,,00004,2023-08-01_15h15.32.946,vbt_B2_day2,2022.2.4,Win32,59.79073244,,,,,,,,,,,,,,,,,,,,,,,,,,,down,0,6.1975,,0.199074131,-0.024074088,1,0,0,0.7997,0,137,137,162,1,uitdelen,images/br_uitdelen.png,images/cb_uitdelen.png,0,,,,,,,,,,,,,,,,,,,,,,
,,,,,,00004,2023-08-01_15h15.32.946,vbt_B2_day2,2022.2.4,Win32,59.79073244,,,,,,,,,,,,,,,,,,,,,,,,,,,down,0,5.9076,,0.399074131,-0.052777778,1,0,0,0.8647,0,138,138,174,1,stemming,images/br_stemming.png,images/cb_stemming.png,0,,,,,,,,,,,,,,,,,,,,,,
,,,,,,00004,2023-08-01_15h15.32.946,vbt_B2_day2,2022.2.4,Win32,59.79073244,,,,,,,,,,,,,,,,,,,,,,,,,,,down,0,4.2021,,0.398148176,-0.052777778,1,0,0,0.6832,0,139,139,150,1,gegeven,images/br_gegeven.png,images/cb_gegeven.png,0,,,,,,,,,,,,,,,,,,,,,,
,,,,,,00004,2023-08-01_15h15.32.946,vbt_B2_day2,2022.2.4,Win32,59.79073244,,,,,,,,,,,,,,,,,,,,,,,,,,,down,0,4.4085,,0.396296353,-0.050925954,1,0,0,0.6658,0,140,140,140,1,blijven,images/br_blijven.png,images/cb_blijven.png,0,,,,,,,,,,,,,,,,,,,,,,
,,,,,,00004,2023-08-01_15h15.32.946,vbt_B2_day2,2022.2.4,Win32,59.79073244,,,,,,,,,,,,,,,,,,,,,,,,,,,down,0,5.373,,0.389814843,-0.058333333,1,0,0,2.0165,0,141,141,6,1,diep,images/br_diep.png,images/cb_diep.png,0,,,,,,,,,,,,,,,,,,,,,,
,,,,,,00004,2023-08-01_15h15.32.946,vbt_B2_day2,2022.2.4,Win32,59.79073244,,,,,,,,,,,,,,,,,,,,,,,,,,,down,0,8.7665,,0.389814843,-0.058333333,1,0,0,0.5903,0,142,142,161,1,attentie,images/br_attentie.png,images/cb_attentie.png,0,,,,,,,,,,,,,,,,,,,,,,
,,,,,,00004,2023-08-01_15h15.32.946,vbt_B2_day2,2022.2.4,Win32,59.79073244,,,,,,,,,,,,,,,,,,,,,,,,,,,down,0,0.7072,,0.389814843,-0.058333333,1,0,0,0.6651,0,143,143,35,1,lust,images/br_lust.png,images/cb_lust.png,0,,,,,,,,,,,,,,,,,,,,,,
,,,,,,00004,2023-08-01_15h15.32.946,vbt_B2_day2,2022.2.4,Win32,59.79073244,,,,,,,,,,,,,,,,,,,,,,,,,,,down,0,0.3707,,0.389814843,-0.058333333,1,0,0,0.7331,0,144,144,10,1,leek,images/br_leek.png,images/cb_leek.png,0,,,,,,,,,,,,,,,,,,,,,,
,,,,,,00004,2023-08-01_15h15.32.946,vbt_B2_day2,2022.2.4,Win32,59.79073244,,,,,,,,,,,,,,,,,,,,,,,,,,,down,0,5.8885,,0.389814843,-0.058333333,1,0,0,3.6163,0,145,145,194,1,driemaal,images/br_driemaal.png,images/cb_driemaal.png,0,,,,,,,,,,,,,,,,,,,,,,
,,,,,,00004,2023-08-01_15h15.32.946,vbt_B2_day2,2022.2.4,Win32,59.79073244,,,,,,,,,,,,,,,,,,,,,,,,,,,down,0,8.3138,,0.389814843,-0.058333333,1,0,0,0.8332,0,146,146,191,1,opheffen,images/br_opheffen.png,images/cb_opheffen.png,0,,,,,,,,,,,,,,,,,,,,,,
,,,,,,00004,2023-08-01_15h15.32.946,vbt_B2_day2,2022.2.4,Win32,59.79073244,,,,,,,,,,,,,,,,,,,,,,,,,,,down,0,3.9379,,0.389814843,-0.058333333,1,0,0,1.0666,0,147,147,53,1,baron,images/br_baron.png,images/cb_baron.png,0,,,,,,,,,,,,,,,,,,,,,,
,,,,,,00004,2023-08-01_15h15.32.946,vbt_B2_day2,2022.2.4,Win32,59.79073244,,,,,,,,,,,,,,,,,,,,,,,,,,,down,0,2.8791,,0.386111111,-0.062037065,1,0,0,0.7059,0,148,148,67,1,zwart,images/br_zwart.png,images/cb_zwart.png,0,,,,,,,,,,,,,,,,,,,,,,
,,,,,,00004,2023-08-01_15h15.32.946,vbt_B2_day2,2022.2.4,Win32,59.79073244,,,,,,,,,,,,,,,,,,,,,,,,,,,down,0,0.053,,0.384259288,-0.063888889,1,0,0,0.6347,0,149,149,50,1,stoom,images/br_stoom.png,images/cb_stoom.png,0,,,,,,,,,,,,,,,,,,,,,,
,,,,,,00004,2023-08-01_15h15.32.946,vbt_B2_day2,2022.2.4,Win32,59.79073244,,,,,,,,,,,,,,,,,,,,,,,,,,,down,0,17.0111,,0.384259288,-0.063888889,1,0,0,1.2998,0,150,150,182,1,bijkomen,images/br_bijkomen.png,images/cb_bijkomen.png,0,,,,,,,,,,,,,,,,,,,,,,
,,,,,,00004,2023-08-01_15h15.32.946,vbt_B2_day2,2022.2.4,Win32,59.79073244,,,,,,,,,,,,,,,,,,,,,,,,,,,down,0,3.4679,,0.382407464,-0.065740755,1,0,0,0.75,0,151,151,9,1,hier,images/br_hier.png,images/cb_hier.png,0,,,,,,,,,,,,,,,,,,,,,,
,,,,,,00004,2023-08-01_15h15.32.946,vbt_B2_day2,2022.2.4,Win32,59.79073244,,,,,,,,,,,,,,,,,,,,,,,,,,,down,0,5.9005,,0.379629686,-0.064814843,1,0,0,1.3664,0,152,152,144,1,eetlust,images/br_eetlust.png,images/cb_eetlust.png,0,,,,,,,,,,,,,,,,,,,,,,
,,,,,,00004,2023-08-01_15h15.32.946,vbt_B2_day2,2022.2.4,Win32,59.79073244,,,,,,,,,,,,,,,,,,,,,,,,,,,down,0,5.6836,,0.376851908,-0.065740755,1,0,0,0.733,0,153,153,95,1,vreten,images/br_vreten.png,images/cb_vreten.png,0,,,,,,,,,,,,,,,,,,,,,,
,,,,,,00004,2023-08-01_15h15.32.946,vbt_B2_day2,2022.2.4,Win32,59.79073244,,,,,,,,,,,,,,,,,,,,,,,,,,,down,0,10.6827,,0.376851908,-0.065740755,1,0,0,2.333,0,154,154,156,1,rechten,images/br_rechten.png,images/cb_rechten.png,0,,,,,,,,,,,,,,,,,,,,,,
,,,,,,00004,2023-08-01_15h15.32.946,vbt_B2_day2,2022.2.4,Win32,59.79073244,,,,,,,,,,,,,,,,,,,,,,,,,,,down,0,7.1836,,0.348148176,-0.102777778,1,0,0,1.4244,0,155,155,183,1,getuigen,images/br_getuigen.png,images/cb_getuigen.png,0,,,,,,,,,,,,,,,,,,,,,,
,,,,,,00004,2023-08-01_15h15.32.946,vbt_B2_day2,2022.2.4,Win32,59.79073244,,,,,,,,,,,,,,,,,,,,,,,,,,,down,0,7.1923,,0.346296353,-0.104629644,1,0,0,0.8161,0,156,156,136,1,waarbij,images/br_waarbij.png,images/cb_waarbij.png,1,WAARBIJ,,,,,,,,,,,,,,,,,,,,,
,,,,,,00004,2023-08-01_15h15.32.946,vbt_B2_day2,2022.2.4,Win32,59.79073244,,,,,,,,,,,,,,,,,,,,,,,,,,,down,0,5.8504,,0.346296353,-0.104629644,1,0,0,2.2168,0,157,157,122,1,waarvan,images/br_waarvan.png,images/cb_waarvan.png,0,,,,,,,,,,,,,,,,,,,,,,
,,,,,,00004,2023-08-01_15h15.32.946,vbt_B2_day2,2022.2.4,Win32,59.79073244,,,,,,,,,,,,,,,,,,,,,,,,,,,down,0,5.1332,,0.343518575,-0.102777778,1,0,0,2.5165,0,158,158,173,1,apparaat,images/br_apparaat.png,images/cb_apparaat.png,0,,,,,,,,,,,,,,,,,,,,,,
,,,,,,00004,2023-08-01_15h15.32.946,vbt_B2_day2,2022.2.4,Win32,59.79073244,,,,,,,,,,,,,,,,,,,,,,,,,,,down,0,10.5002,,0.343518575,-0.102777778,1,0,0,3.1992,0,159,159,130,1,keihard,images/br_keihard.png,images/cb_keihard.png,0,,,,,,,,,,,,,,,,,,,,,,
,,,,,,00004,2023-08-01_15h15.32.946,vbt_B2_day2,2022.2.4,Win32,59.79073244,,,,,,,,,,,,,,,,,,,,,,,,,,,down,0,7.1181,,0.343518575,-0.102777778,1,0,0,1.4661,0,160,160,116,1,besmet,images/br_besmet.png,images/cb_besmet.png,0,,,,,,,,,,,,,,,,,,,,,,
,,,,,,00004,2023-08-01_15h15.32.946,vbt_B2_day2,2022.2.4,Win32,59.79073244,,,,,,,,,,,,,,,,,,,,,,,,,,,down,0,1.8248,,0.343518575,-0.102777778,1,0,0,1.0163,0,161,161,93,1,waarop,images/br_waarop.png,images/cb_waarop.png,0,,,,,,,,,,,,,,,,,,,,,,
,,,,,,00004,2023-08-01_15h15.32.946,vbt_B2_day2,2022.2.4,Win32,59.79073244,,,,,,,,,,,,,,,,,,,,,,,,,,,down,0,4.5276,,0.343518575,-0.102777778,1,0,0,0.8636,0,162,162,1,1,zaal,images/br_zaal.png,images/cb_zaal.png,0,,,,,,,,,,,,,,,,,,,,,,
,,,,,,00004,2023-08-01_15h15.32.946,vbt_B2_day2,2022.2.4,Win32,59.79073244,,,,,,,,,,,,,,,,,,,,,,,,,,,down,0,5.9758,,0.343518575,-0.102777778,1,0,0,1.2152,0,163,163,46,1,jagen,images/br_jagen.png,images/cb_jagen.png,0,,,,,,,,,,,,,,,,,,,,,,
,,,,,,00004,2023-08-01_15h15.32.946,vbt_B2_day2,2022.2.4,Win32,59.79073244,,,,,,,,,,,,,,,,,,,,,,,,,,,down,0,16.4323,,0.343518575,-0.102777778,1,0,0,0.8144,0,164,164,178,1,huisdier,images/br_huisdier.png,images/cb_huisdier.png,1,HUISDIER,,,,,,,,,,,,,,,,,,,,,
,,,,,,00004,2023-08-01_15h15.32.946,vbt_B2_day2,2022.2.4,Win32,59.79073244,,,,,,,,,,,,,,,,,,,,,,,,,,,down,0,8.4828,,0.343518575,-0.102777778,1,0,0,0.8666,0,165,165,8,1,knie,images/br_knie.png,images/cb_knie.png,0,,,,,,,,,,,,,,,,,,,,,,
,,,,,,00004,2023-08-01_15h15.32.946,vbt_B2_day2,2022.2.4,Win32,59.79073244,,,,,,,,,,,,,,,,,,,,,,,,,,,down,0,8.5037,,0.343518575,-0.102777778,1,0,0,0.8345,0,166,166,137,1,trekker,images/br_trekker.png,images/cb_trekker.png,1,TREKKER,,,,,,,,,,,,,,,,,,,,,
,,,,,,00004,2023-08-01_15h15.32.946,vbt_B2_day2,2022.2.4,Win32,59.79073244,,,,,,,,,,,,,,,,,,,,,,,,,,,down,0,1.0842,,0.343518575,-0.102777778,1,0,0,0.9166,0,167,167,73,1,volop,images/br_volop.png,images/cb_volop.png,0,,,,,,,,,,,,,,,,,,,,,,
,,,,,,00004,2023-08-01_15h15.32.946,vbt_B2_day2,2022.2.4,Win32,59.79073244,,,,,,,,,,,,,,,,,,,,,,,,,,,down,0,9.1831,,0.343518575,-0.102777778,1,0,0,0.783,0,168,168,105,1,wijlen,images/br_wijlen.png,images/cb_wijlen.png,0,,,,,,,,,,,,,,,,,,,,,,
,,,,,,00004,2023-08-01_15h15.32.946,vbt_B2_day2,2022.2.4,Win32,59.79073244,,,,,,,,,,,,,,,,,,,,,,,,,,,down,0,9.9996,,0.343518575,-0.102777778,1,0,0,0.7332,0,169,169,175,1,heengaan,images/br_heengaan.png,images/cb_heengaan.png,0,,,,,,,,,,,,,,,,,,,,,,
,,,,,,00004,2023-08-01_15h15.32.946,vbt_B2_day2,2022.2.4,Win32,59.79073244,,,,,,,,,,,,,,,,,,,,,,,,,,,down,0,7.9851,,0.343518575,-0.102777778,1,0,0,1.4161,0,170,170,152,1,afnemen,images/br_afnemen.png,images/cb_afnemen.png,0,,,,,,,,,,,,,,,,,,,,,,
,,,,,,00004,2023-08-01_15h15.32.946,vbt_B2_day2,2022.2.4,Win32,59.79073244,,,,,,,,,,,,,,,,,,,,,,,,,,,down,0,1.7845,,0.343518575,-0.102777778,1,0,0,0.6667,0,171,171,109,1,totaal,images/br_totaal.png,images/cb_totaal.png,0,,,,,,,,,,,,,,,,,,,,,,
,,,,,,00004,2023-08-01_15h15.32.946,vbt_B2_day2,2022.2.4,Win32,59.79073244,,,,,,,,,,,,,,,,,,,,,,,,,,,down,0,8.1528,,0.343518575,-0.102777778,1,0,0,0.7674,0,172,172,16,1,ziek,images/br_ziek.png,images/cb_ziek.png,1,ZIEK,,,,,,,,,,,,,,,,,,,,,
,,,,,,00004,2023-08-01_15h15.32.946,vbt_B2_day2,2022.2.4,Win32,59.79073244,,,,,,,,,,,,,,,,,,,,,,,,,,,down,0,7.7231,,0.343518575,-0.102777778,1,0,0,71.6067,0,173,173,196,1,nakijken,images/br_nakijken.png,images/cb_nakijken.png,0,,,,,,,,,,,,,,,,,,,,,,
,,,,,,00004,2023-08-01_15h15.32.946,vbt_B2_day2,2022.2.4,Win32,59.79073244,,,,,,,,,,,,,,,,,,,,,,,,,,,down,0,0.4344,,0.343518575,-0.102777778,1,0,0,0.7334,0,174,174,13,1,kaal,images/br_kaal.png,images/cb_kaal.png,0,,,,,,,,,,,,,,,,,,,,,,
,,,,,,00004,2023-08-01_15h15.32.946,vbt_B2_day2,2022.2.4,Win32,59.79073244,,,,,,,,,,,,,,,,,,,,,,,,,,,down,0,6.6555,,0.343518575,-0.102777778,1,0,0,0.717,0,175,175,141,1,knielen,images/br_knielen.png,images/cb_knielen.png,0,,,,,,,,,,,,,,,,,,,,,,
,,,,,,00004,2023-08-01_15h15.32.946,vbt_B2_day2,2022.2.4,Win32,59.79073244,,,,,,,,,,,,,,,,,,,,,,,,,,,down,0,6.1718,,0.343518575,-0.102777778,1,0,0,1.2002,0,176,176,102,1,legaal,images/br_legaal.png,images/cb_legaal.png,0,,,,,,,,,,,,,,,,,,,,,,
,,,,,,00004,2023-08-01_15h15.32.946,vbt_B2_day2,2022.2.4,Win32,59.79073244,,,,,,,,,,,,,,,,,,,,,,,,,,,down,0,7.2171,,0.343518575,-0.102777778,1,0,0,0.9994,0,177,177,128,1,prikken,images/br_prikken.png,images/cb_prikken.png,0,,,,,,,,,,,,,,,,,,,,,,
,,,,,,00004,2023-08-01_15h15.32.946,vbt_B2_day2,2022.2.4,Win32,59.79073244,,,,,,,,,,,,,,,,,,,,,,,,,,,down,0,7.4175,,0.332407464,-0.100925954,1,0,0,0.583,0,178,178,184,1,aandelen,images/br_aandelen.png,images/cb_aandelen.png,0,,,,,,,,,,,,,,,,,,,,,,
,,,,,,00004,2023-08-01_15h15.32.946,vbt_B2_day2,2022.2.4,Win32,59.79073244,,,,,,,,,,,,,,,,,,,,,,,,,,,down,0,1.5233,,0.332407464,-0.100925954,1,0,0,0.731,0,179,179,17,1,taal,images/br_taal.png,images/cb_taal.png,1,TAAL,,,,,,,,,,,,,,,,,,,,,
,,,,,,00004,2023-08-01_15h15.32.946,vbt_B2_day2,2022.2.4,Win32,59.79073244,,,,,,,,,,,,,,,,,,,,,,,,,,,down,0,8.0087,,0.332407464,-0.100925954,1,0,0,0.6654,0,180,180,44,1,flits,images/br_flits.png,images/cb_flits.png,0,,,,,,,,,,,,,,,,,,,,,,
,,,,,,00004,2023-08-01_15h15.32.946,vbt_B2_day2,2022.2.4,Win32,59.79073244,,,,,,,,,,,,,,,,,,,,,,,,,,,down,0,9.8074,,0.33148151,-0.100925954,1,0,0,1.1326,0,181,181,107,1,maling,images/br_maling.png,images/cb_maling.png,0,,,,,,,,,,,,,,,,,,,,,,
,,,,,,00004,2023-08-01_15h15.32.946,vbt_B2_day2,2022.2.4,Win32,59.79073244,,,,,,,,,,,,,,,,,,,,,,,,,,,down,0,6.2171,,0.33148151,-0.100925954,1,0,0,0.8665,0,182,182,69,1,waken,images/br_waken.png,images/cb_waken.png,0,,,,,,,,,,,,,,,,,,,,,,
,,,,,,00004,2023-08-01_15h15.32.946,vbt_B2_day2,2022.2.4,Win32,59.79073244,,,,,,,,,,,,,,,,,,,,,,,,,,,down,0,3.4507,,0.33148151,-0.100925954,1,0,0,1.0165,0,183,183,78,1,leren,images/br_leren.png,images/cb_leren.png,0,,,,,,,,,,,,,,,,,,,,,,
,,,,,,00004,2023-08-01_15h15.32.946,vbt_B2_day2,2022.2.4,Win32,59.79073244,,,,,,,,,,,,,,,,,,,,,,,,,,,down,0,8.3172,,-0.446296268,-0.352777778,1,0,0,0.5915,0,184,184,135,1,gedicht,images/br_gedicht.png,images/cb_gedicht.png,0,,,,,,,,,,,,,,,,,,,,,,
,,,,,,00004,2023-08-01_15h15.32.946,vbt_B2_day2,2022.2.4,Win32,59.79073244,,,,,,,,,,,,,,,,,,,,,,,,,,,down,0,2.4423,,-0.423148134,-0.337037065,1,0,0,0.8382,0,185,185,169,1,oprotten,images/br_oprotten.png,images/cb_oprotten.png,0,,,,,,,,,,,,,,,,,,,,,,
,,,,,,00004,2023-08-01_15h15.32.946,vbt_B2_day2,2022.2.4,Win32,59.79073244,,,,,,,,,,,,,,,,,,,,,,,,,,,down,0,7.3335,,-0.422222222,-0.336111111,1,0,0,0.8238,0,186,186,94,1,oceaan,images/br_oceaan.png,images/cb_oceaan.png,0,,,,,,,,,,,,,,,,,,,,,,
,,,,,,00004,2023-08-01_15h15.32.946,vbt_B2_day2,2022.2.4,Win32,59.79073244,,,,,,,,,,,,,,,,,,,,,,,,,,,down,0,14.0517,,-0.422222222,-0.336111111,1,0,0,0.8002,0,187,187,185,1,mijnheer,images/br_mijnheer.png,images/cb_mijnheer.png,0,,,,,,,,,,,,,,,,,,,,,,
,,,,,,00004,2023-08-01_15h15.32.946,vbt_B2_day2,2022.2.4,Win32,59.79073244,,,,,,,,,,,,,,,,,,,,,,,,,,,down,0,4.3201,,-0.422222222,-0.336111111,1,0,0,0.95,0,188,188,34,1,vorm,images/br_vorm.png,images/cb_vorm.png,0,,,,,,,,,,,,,,,,,,,,,,
,,,,,,00004,2023-08-01_15h15.32.946,vbt_B2_day2,2022.2.4,Win32,59.79073244,,,,,,,,,,,,,,,,,,,,,,,,,,,down,0,9.7029,,-0.422222222,-0.336111111,1,0,0,0.7745,0,189,189,106,1,zingen,images/br_zingen.png,images/cb_zingen.png,0,,,,,,,,,,,,,,,,,,,,,,
,,,,,,00004,2023-08-01_15h15.32.946,vbt_B2_day2,2022.2.4,Win32,59.79073244,,,,,,,,,,,,,,,,,,,,,,,,,,,down,0,7.7508,,-0.422222222,-0.336111111,1,0,0,0.8331,0,190,190,198,1,bedoelen,images/br_bedoelen.png,images/cb_bedoelen.png,0,,,,,,,,,,,,,,,,,,,,,,
,,,,,,00004,2023-08-01_15h15.32.946,vbt_B2_day2,2022.2.4,Win32,59.79073244,,,,,,,,,,,,,,,,,,,,,,,,,,,down,0,6.5834,,-0.422222222,-0.336111111,1,0,0,1.1994,0,191,191,66,1,lever,images/br_lever.png,images/cb_lever.png,0,,,,,,,,,,,,,,,,,,,,,,
,,,,,,00004,2023-08-01_15h15.32.946,vbt_B2_day2,2022.2.4,Win32,59.79073244,,,,,,,,,,,,,,,,,,,,,,,,,,,down,0,2.2344,,-0.422222222,-0.336111111,1,0,0,0.7662,0,192,192,134,1,geliefd,images/br_geliefd.png,images/cb_geliefd.png,0,,,,,,,,,,,,,,,,,,,,,,
,,,,,,00004,2023-08-01_15h15.32.946,vbt_B2_day2,2022.2.4,Win32,59.79073244,,,,,,,,,,,,,,,,,,,,,,,,,,,down,0,5.5714,,-0.422222222,-0.336111111,1,0,0,0.6831,0,193,193,120,1,klimmen,images/br_klimmen.png,images/cb_klimmen.png,0,,,,,,,,,,,,,,,,,,,,,,
,,,,,,00004,2023-08-01_15h15.32.946,vbt_B2_day2,2022.2.4,Win32,59.79073244,,,,,,,,,,,,,,,,,,,,,,,,,,,down,0,3.1006,,-0.422222222,-0.336111111,1,0,0,0.8999,0,194,194,117,1,kennis,images/br_kennis.png,images/cb_kennis.png,0,,,,,,,,,,,,,,,,,,,,,,
,,,,,,00004,2023-08-01_15h15.32.946,vbt_B2_day2,2022.2.4,Win32,59.79073244,,,,,,,,,,,,,,,,,,,,,,,,,,,down,0,4.9173,,-0.422222222,-0.336111111,1,0,0,0.9833,0,195,195,179,1,woestijn,images/br_woestijn.png,images/cb_woestijn.png,1,WOESTIJN,,,,,,,,,,,,,,,,,,,,,
,,,,,,00004,2023-08-01_15h15.32.946,vbt_B2_day2,2022.2.4,Win32,59.79073244,,,,,,,,,,,,,,,,,,,,,,,,,,,down,0,3.0696,,-0.422222222,-0.336111111,1,0,0,0.8663,0,196,196,37,1,mijn,images/br_mijn.png,images/cb_mijn.png,0,,,,,,,,,,,,,,,,,,,,,,
,,,,,,00004,2023-08-01_15h15.32.946,vbt_B2_day2,2022.2.4,Win32,59.79073244,,,,,,,,,,,,,,,,,,,,,,,,,,,down,0,5.9222,,-0.423148134,-0.336111111,1,0,0,0.7664,0,197,197,158,1,innemen,images/br_innemen.png,images/cb_innemen.png,0,,,,,,,,,,,,,,,,,,,,,,
,,,,,,00004,2023-08-01_15h15.32.946,vbt_B2_day2,2022.2.4,Win32,59.79073244,,,,,,,,,,,,,,,,,,,,,,,,,,,down,0,6.1349,,-0.423148134,-0.336111111,1,0,0,1.2499,0,198,198,138,1,akkoord,images/br_akkoord.png,images/cb_akkoord.png,1,AKKOORD,,,,,,,,,,,,,,,,,,,,,
,,,,,,00004,2023-08-01_15h15.32.946,vbt_B2_day2,2022.2.4,Win32,59.79073244,,,,,,,,,,,,,,,,,,,,,,,,,,,down,0,6.9206,,-0.423148134,-0.336111111,1,0,0,0.6667,0,199,199,127,1,doodmoe,images/br_doodmoe.png,images/cb_doodmoe.png,0,,,,,,,,,,,,,,,,,,,,,,
,,,,,,00004,2023-08-01_15h15.32.946,vbt_B2_day2,2022.2.4,Win32,59.79073244,,,,,,,,,,,,,,,,,,,,,,,,,,,,,,,,,,,,,,,,,,,,,,,0.166666667,-0.003703732,1,0,0,,,,,,,,,,,,,,,,
,,,,,,00004,2023-08-01_15h15.32.946,vbt_B2_day2,2022.2.4,Win32,59.79073244,,,,,,,,,,,,,,,,,,,,,,,,,,,,,,,,,,,,,,,,,,,,,,,,,,,,0.517592621,0.010185157,1,0,0,,,,,,,,,,,
,,,,,,00004,2023-08-01_15h15.32.946,vbt_B2_day2,2022.2.4,Win32,59.79073244,,,,,,,,,,,,,,,,,,,,,,,,,,,,,,,,,,,,,,,,,,jagen,images/br_jagen.png,images/cb_jagen.png,,DAGEN,,,,,,,,,,,0.103703732,-0.025925954,1,0,0,DAGEN,0,0,0,6,1
,,,,,,00004,2023-08-01_15h15.32.946,vbt_B2_day2,2022.2.4,Win32,59.79073244,,,,,,,,,,,,,,,,,,,,,,,,,,,,,,,,,,,,,,,,,,woning,images/br_woning.png,images/cb_woning.png,,KONIJN,,,,,,,,,,,0.203703732,-0.011111111,1,0,0,KONIJN,0,1,1,10,1
,,,,,,00004,2023-08-01_15h15.32.946,vbt_B2_day2,2022.2.4,Win32,59.79073244,,,,,,,,,,,,,,,,,,,,,,,,,,,,,,,,,,,,,,,,,,sifferd,images/br_sifferd.png,images/cb_sifferd.png,,SIFFER.,,,,,,,,,,,0.093518575,-0.012962977,1,0,0,SIFFER.,0,2,2,32,1
,,,,,,00004,2023-08-01_15h15.32.946,vbt_B2_day2,2022.2.4,Win32,59.79073244,,,,,,,,,,,,,,,,,,,,,,,,,,,,,,,,,,,,,,,,,,blad,images/br_blad.png,images/cb_blad.png,,BLAD,,,,,,,,,,,0.111111111,-0.032407422,1,0,0,BLAD,0,3,3,1,1
,,,,,,00004,2023-08-01_15h15.32.946,vbt_B2_day2,2022.2.4,Win32,59.79073244,,,,,,,,,,,,,,,,,,,,,,,,,,,,,,,,,,,,,,,,,,feestdag,images/br_feestdag.png,images/cb_feestdag.png,,FEESTDAG,,,,,,,,,,,0.105555556,-0.022222222,1,0,0,FEESTDAG,0,4,4,17,1
,,,,,,00004,2023-08-01_15h15.32.946,vbt_B2_day2,2022.2.4,Win32,59.79073244,,,,,,,,,,,,,,,,,,,,,,,,,,,,,,,,,,,,,,,,,,plannen,images/br_plannen.png,images/cb_plannen.png,,PLANNEN,,,,,,,,,,,0.198148176,-0.047222222,1,0,0,PLANNEN,0,5,5,55,1
,,,,,,00004,2023-08-01_15h15.32.946,vbt_B2_day2,2022.2.4,Win32,59.79073244,,,,,,,,,,,,,,,,,,,,,,,,,,,,,,,,,,,,,,,,,,inzicht,images/br_inzicht.png,images/cb_inzicht.png,,INZ,,,,,,,,,,,-0.197222222,-0.024074088,1,0,0,INZ,0,6,6,53,1
,,,,,,00004,2023-08-01_15h15.32.946,vbt_B2_day2,2022.2.4,Win32,59.79073244,,,,,,,,,,,,,,,,,,,,,,,,,,,,,,,,,,,,,,,,,,geld,images/br_geld.png,images/cb_geld.png,,GELD,,,,,,,,,,,0.162037065,-0.048148176,1,0,0,GELD,0,7,7,3,1
,,,,,,00004,2023-08-01_15h15.32.946,vbt_B2_day2,2022.2.4,Win32,59.79073244,,,,,,,,,,,,,,,,,,,,,,,,,,,,,,,,,,,,,,,,,,kenzis,images/br_kenzis.png,images/cb_kenzis.png,,KINZEN,,,,,,,,,,,0.093518575,-0.023148176,1,0,0,KINZEN,0,8,8,30,1
,,,,,,00004,2023-08-01_15h15.32.946,vbt_B2_day2,2022.2.4,Win32,59.79073244,,,,,,,,,,,,,,,,,,,,,,,,,,,,,,,,,,,,,,,,,,jong,images/br_jong.png,images/cb_jong.png,,JONG,,,,,,,,,,,0.114814843,-0.000925954,1,0,0,JONG,0,9,9,43,1
,,,,,,00004,2023-08-01_15h15.32.946,vbt_B2_day2,2022.2.4,Win32,59.79073244,,,,,,,,,,,,,,,,,,,,,,,,,,,,,,,,,,,,,,,,,,agressie,images/br_agressie.png,images/cb_agressie.png,,AGREPIE,,,,,,,,,,,0.068518575,-0.018518533,1,0,0,AGREPIE,0,10,10,59,1
,,,,,,00004,2023-08-01_15h15.32.946,vbt_B2_day2,2022.2.4,Win32,59.79073244,,,,,,,,,,,,,,,,,,,,,,,,,,,,,,,,,,,,,,,,,,remel,images/br_remel.png,images/cb_remel.png,,RIUIL,,,,,,,,,,,-0.112962935,-0.025,1,0,0,RIUIL,0,11,11,25,1
,,,,,,00004,2023-08-01_15h15.32.946,vbt_B2_day2,2022.2.4,Win32,59.79073244,,,,,,,,,,,,,,,,,,,,,,,,,,,,,,,,,,,,,,,,,,opdatten,images/br_opdatten.png,images/cb_opdatten.png,,OPDA,,,,,,,,,,,-0.037962935,-0.024074088,1,0,0,OPDA,0,12,12,37,1
,,,,,,00004,2023-08-01_15h15.32.946,vbt_B2_day2,2022.2.4,Win32,59.79073244,,,,,,,,,,,,,,,,,,,,,,,,,,,,,,,,,,,,,,,,,,kasteel,images/br_kasteel.png,images/cb_kasteel.png,,KASTEEL,,,,,,,,,,,0.388888889,-0.022222222,1,0,0,KASTEEL,0,13,13,14,1
,,,,,,00004,2023-08-01_15h15.32.946,vbt_B2_day2,2022.2.4,Win32,59.79073244,,,,,,,,,,,,,,,,,,,,,,,,,,,,,,,,,,,,,,,,,,zomers,images/br_zomers.png,images/cb_zomers.png,,ZOMERS,,,,,,,,,,,0.278703732,-0.04629631,1,0,0,ZOMERS,0,14,14,48,1
,,,,,,00004,2023-08-01_15h15.32.946,vbt_B2_day2,2022.2.4,Win32,59.79073244,,,,,,,,,,,,,,,,,,,,,,,,,,,,,,,,,,,,,,,,,,anarchie,images/br_anarchie.png,images/cb_anarchie.png,,ANARCHIE,,,,,,,,,,,0.135185242,-0.012037065,1,0,0,ANARCHIE,0,15,15,16,1
,,,,,,00004,2023-08-01_15h15.32.946,vbt_B2_day2,2022.2.4,Win32,59.79073244,,,,,,,,,,,,,,,,,,,,,,,,,,,,,,,,,,,,,,,,,,zwager,images/br_zwager.png,images/cb_zwager.png,,ZWAGER,,,,,,,,,,,0.038888889,-0.02129631,1,0,0,ZWAGER,0,16,16,49,1
,,,,,,00004,2023-08-01_15h15.32.946,vbt_B2_day2,2022.2.4,Win32,59.79073244,,,,,,,,,,,,,,,,,,,,,,,,,,,,,,,,,,,,,,,,,,lokken,images/br_lokken.png,images/cb_lokken.png,,LOKKEN,,,,,,,,,,,0.209259288,-0.018518533,1,0,0,LOKKEN,0,17,17,8,1
,,,,,,00004,2023-08-01_15h15.32.946,vbt_B2_day2,2022.2.4,Win32,59.79073244,,,,,,,,,,,,,,,,,,,,,,,,,,,,,,,,,,,,,,,,,,doodmoe,images/br_doodmoe.png,images/cb_doodmoe.png,,DOODMOE,,,,,,,,,,,0.274074131,-0.014814843,1,0,0,DOODMOE,0,18,18,15,1
,,,,,,00004,2023-08-01_15h15.32.946,vbt_B2_day2,2022.2.4,Win32,59.79073244,,,,,,,,,,,,,,,,,,,,,,,,,,,,,,,,,,,,,,,,,,moes,images/br_moes.png,images/cb_moes.png,,MOES,,,,,,,,,,,0.090740797,-0.012962977,1,0,0,MOES,0,19,19,0,1
,,,,,,00004,2023-08-01_15h15.32.946,vbt_B2_day2,2022.2.4,Win32,59.79073244,,,,,,,,,,,,,,,,,,,,,,,,,,,,,,,,,,,,,,,,,,lijnen,images/br_lijnen.png,images/cb_lijnen.png,,LIJNEN,,,,,,,,,,,0.195370399,-0.011111111,1,0,0,LIJNEN,0,20,20,51,1
,,,,,,00004,2023-08-01_15h15.32.946,vbt_B2_day2,2022.2.4,Win32,59.79073244,,,,,,,,,,,,,,,,,,,,,,,,,,,,,,,,,,,,,,,,,,heengeen,images/br_heengeen.png,images/cb_heengeen.png,,HEENGAAN,,,,,,,,,,,0.036111111,-0.002777778,1,0,0,HEENGAAN,0,21,21,38,1
,,,,,,00004,2023-08-01_15h15.32.946,vbt_B2_day2,2022.2.4,Win32,59.79073244,,,,,,,,,,,,,,,,,,,,,,,,,,,,,,,,,,,,,,,,,,thema,images/br_thema.png,images/cb_thema.png,,THE,,,,,,,,,,,-0.013888889,0.001851824,1,0,0,THE,0,22,22,47,1
,,,,,,00004,2023-08-01_15h15.32.946,vbt_B2_day2,2022.2.4,Win32,59.79073244,,,,,,,,,,,,,,,,,,,,,,,,,,,,,,,,,,,,,,,,,,koorts,images/br_koorts.png,images/cb_koorts.png,,KOORTS,,,,,,,,,,,0.117592621,-0.012037065,1,0,0,KOORTS,0,23,23,50,1
,,,,,,00004,2023-08-01_15h15.32.946,vbt_B2_day2,2022.2.4,Win32,59.79073244,,,,,,,,,,,,,,,,,,,,,,,,,,,,,,,,,,,,,,,,,,krimmen,images/br_krimmen.png,images/cb_krimmen.png,,KAIMM,,,,,,,,,,,-0.019444444,-0.012962977,1,0,0,KAIMM,0,24,24,35,1
,,,,,,00004,2023-08-01_15h15.32.946,vbt_B2_day2,2022.2.4,Win32,59.79073244,,,,,,,,,,,,,,,,,,,,,,,,,,,,,,,,,,,,,,,,,,dode,images/br_dode.png,images/cb_dode.png,,DODE,,,,,,,,,,,0.073148176,-0.05648151,1,0,0,DODE,0,25,25,41,1
,,,,,,00004,2023-08-01_15h15.32.946,vbt_B2_day2,2022.2.4,Win32,59.79073244,,,,,,,,,,,,,,,,,,,,,,,,,,,,,,,,,,,,,,,,,,welzijn,images/br_welzijn.png,images/cb_welzijn.png,,WELZIJN,,,,,,,,,,,0.303703732,0.00370369,1,0,0,WELZIJN,0,26,26,52,1
,,,,,,00004,2023-08-01_15h15.32.946,vbt_B2_day2,2022.2.4,Win32,59.79073244,,,,,,,,,,,,,,,,,,,,,,,,,,,,,,,,,,,,,,,,,,stes,images/br_stes.png,images/cb_stes.png,,STES,,,,,,,,,,,0.234259288,-0.098148176,1,0,0,STES,0,27,27,21,1
,,,,,,00004,2023-08-01_15h15.32.946,vbt_B2_day2,2022.2.4,Win32,59.79073244,,,,,,,,,,,,,,,,,,,,,,,,,,,,,,,,,,,,,,,,,,sjijfel,images/br_sjijfel.png,images/cb_sjijfel.png,,SJ.J,,,,,,,,,,,-0.065740712,-0.012962977,1,0,0,SJ.J,0,28,28,33,1
,,,,,,00004,2023-08-01_15h15.32.946,vbt_B2_day2,2022.2.4,Win32,59.79073244,,,,,,,,,,,,,,,,,,,,,,,,,,,,,,,,,,,,,,,,,,prekken,images/br_prekken.png,images/cb_prekken.png,,PREKKEN,,,,,,,,,,,-0.050925869,-0.010185199,1,0,0,PREKKEN,0,29,29,34,1
,,,,,,00004,2023-08-01_15h15.32.946,vbt_B2_day2,2022.2.4,Win32,59.79073244,,,,,,,,,,,,,,,,,,,,,,,,,,,,,,,,,,,,,,,,,,flits,images/br_flits.png,images/cb_flits.png,,FLITS,,,,,,,,,,,0.203703732,-0.011111111,1,0,0,FLITS,0,30,30,4,1
,,,,,,00004,2023-08-01_15h15.32.946,vbt_B2_day2,2022.2.4,Win32,59.79073244,,,,,,,,,,,,,,,,,,,,,,,,,,,,,,,,,,,,,,,,,,sora,images/br_sora.png,images/cb_sora.png,,SORA,,,,,,,,,,,0.014814843,-0.007407422,1,0,0,SORA,0,31,31,22,1
,,,,,,00004,2023-08-01_15h15.32.946,vbt_B2_day2,2022.2.4,Win32,59.79073244,,,,,,,,,,,,,,,,,,,,,,,,,,,,,,,,,,,,,,,,,,eenhoorn,images/br_eenhoorn.png,images/cb_eenhoorn.png,,EENHOORN,,,,,,,,,,,0.348148176,-0.004629644,1,0,0,EENHOORN,0,32,32,19,1
,,,,,,00004,2023-08-01_15h15.32.946,vbt_B2_day2,2022.2.4,Win32,59.79073244,,,,,,,,,,,,,,,,,,,,,,,,,,,,,,,,,,,,,,,,,,lurgen,images/br_lurgen.png,images/cb_lurgen.png,,LURGEN,,,,,,,,,,,-0.139814758,-0.028703732,1,0,0,LURGEN,0,33,33,29,1
,,,,,,00004,2023-08-01_15h15.32.946,vbt_B2_day2,2022.2.4,Win32,59.79073244,,,,,,,,,,,,,,,,,,,,,,,,,,,,,,,,,,,,,,,,,,wijve,images/br_wijve.png,images/cb_wijve.png,,WIJVI,,,,,,,,,,,0.102777778,-0.024074088,1,0,0,WIJVI,0,34,34,27,1
,,,,,,00004,2023-08-01_15h15.32.946,vbt_B2_day2,2022.2.4,Win32,59.79073244,,,,,,,,,,,,,,,,,,,,,,,,,,,,,,,,,,,,,,,,,,bereuwen,images/br_bereuwen.png,images/cb_bereuwen.png,,BEREU,,,,,,,,,,,0.00648151,-0.025,1,0,0,BEREU,0,35,35,39,1
,,,,,,00004,2023-08-01_15h15.32.946,vbt_B2_day2,2022.2.4,Win32,59.79073244,,,,,,,,,,,,,,,,,,,,,,,,,,,,,,,,,,,,,,,,,,aanzien,images/br_aanzien.png,images/cb_aanzien.png,,AANZIEN,,,,,,,,,,,0.080555556,-0.028703732,1,0,0,AANZIEN,0,36,36,13,1
,,,,,,00004,2023-08-01_15h15.32.946,vbt_B2_day2,2022.2.4,Win32,59.79073244,,,,,,,,,,,,,,,,,,,,,,,,,,,,,,,,,,,,,,,,,,bloeien,images/br_bloeien.png,images/cb_bloeien.png,,BLOEIEN,,,,,,,,,,,0.217592621,-0.025,1,0,0,BLOEIEN,0,37,37,12,1
,,,,,,00004,2023-08-01_15h15.32.946,vbt_B2_day2,2022.2.4,Win32,59.79073244,,,,,,,,,,,,,,,,,,,,,,,,,,,,,,,,,,,,,,,,,,aanvraag,images/br_aanvraag.png,images/cb_aanvraag.png,,AANVRAAG,,,,,,,,,,,0.322222222,-0.001851866,1,0,0,AANVRAAG,0,38,38,57,1
,,,,,,00004,2023-08-01_15h15.32.946,vbt_B2_day2,2022.2.4,Win32,59.79073244,,,,,,,,,,,,,,,,,,,,,,,,,,,,,,,,,,,,,,,,,,toeval,images/br_toeval.png,images/cb_toeval.png,,TOEVAL,,,,,,,,,,,0.237963019,-0.011111111,1,0,0,TOEVAL,0,39,39,11,1
,,,,,,00004,2023-08-01_15h15.32.946,vbt_B2_day2,2022.2.4,Win32,59.79073244,,,,,,,,,,,,,,,,,,,,,,,,,,,,,,,,,,,,,,,,,,kijlen,images/br_kijlen.png,images/cb_kijlen.png,,KIJLEN,,,,,,,,,,,0.161111111,0,1,0,0,KIJLEN,0,40,40,31,1
,,,,,,00004,2023-08-01_15h15.32.946,vbt_B2_day2,2022.2.4,Win32,59.79073244,,,,,,,,,,,,,,,,,,,,,,,,,,,,,,,,,,,,,,,,,,joes,images/br_joes.png,images/cb_joes.png,,JOES,,,,,,,,,,,-0.062036981,-0.001851866,1,0,0,JOES,0,41,41,20,1
,,,,,,00004,2023-08-01_15h15.32.946,vbt_B2_day2,2022.2.4,Win32,59.79073244,,,,,,,,,,,,,,,,,,,,,,,,,,,,,,,,,,,,,,,,,,goon,images/br_goon.png,images/cb_goon.png,,GOON,,,,,,,,,,,0.078703732,-0.057407422,1,0,0,GOON,0,42,42,23,1
,,,,,,00004,2023-08-01_15h15.32.946,vbt_B2_day2,2022.2.4,Win32,59.79073244,,,,,,,,,,,,,,,,,,,,,,,,,,,,,,,,,,,,,,,,,,tand,images/br_tand.png,images/cb_tand.png,,TAND,,,,,,,,,,,0.124074131,0.004629601,1,0,0,TAND,0,43,43,42,1
,,,,,,00004,2023-08-01_15h15.32.946,vbt_B2_day2,2022.2.4,Win32,59.79073244,,,,,,,,,,,,,,,,,,,,,,,,,,,,,,,,,,,,,,,,,,diep,images/br_diep.png,images/cb_diep.png,,DIEP,,,,,,,,,,,0.127777778,-0.009259288,1,0,0,DIEP,0,44,44,2,1
,,,,,,00004,2023-08-01_15h15.32.946,vbt_B2_day2,2022.2.4,Win32,59.79073244,,,,,,,,,,,,,,,,,,,,,,,,,,,,,,,,,,,,,,,,,,ningen,images/br_ningen.png,images/cb_ningen.png,,NINGEN,,,,,,,,,,,-0.028703647,-0.017592621,1,0,0,NINGEN,0,45,45,28,1
,,,,,,00004,2023-08-01_15h15.32.946,vbt_B2_day2,2022.2.4,Win32,59.79073244,,,,,,,,,,,,,,,,,,,,,,,,,,,,,,,,,,,,,,,,,,systeem,images/br_systeem.png,images/cb_systeem.png,,SYSTEEM,,,,,,,,,,,-0.01851849,-0.011111111,1,0,0,SYSTEEM,0,46,46,54,1
,,,,,,00004,2023-08-01_15h15.32.946,vbt_B2_day2,2022.2.4,Win32,59.79073244,,,,,,,,,,,,,,,,,,,,,,,,,,,,,,,,,,,,,,,,,,ophuimen,images/br_ophuimen.png,images/cb_ophuimen.png,,OPHUIMEN,,,,,,,,,,,0.172222222,-0.018518533,1,0,0,OPHUIMEN,0,47,47,36,1
,,,,,,00004,2023-08-01_15h15.32.946,vbt_B2_day2,2022.2.4,Win32,59.79073244,,,,,,,,,,,,,,,,,,,,,,,,,,,,,,,,,,,,,,,,,,negel,images/br_negel.png,images/cb_negel.png,,NEGEL,,,,,,,,,,,0.058333333,-0.008333333,1,0,0,NEGEL,0,48,48,24,1
,,,,,,00004,2023-08-01_15h15.32.946,vbt_B2_day2,2022.2.4,Win32,59.79073244,,,,,,,,,,,,,,,,,,,,,,,,,,,,,,,,,,,,,,,,,,heilig,images/br_heilig.png,images/cb_heilig.png,,HEILEN,,,,,,,,,,,-0.126851824,-0.002777778,1,0,0,HEILEN,0,49,49,9,1
,,,,,,00004,2023-08-01_15h15.32.946,vbt_B2_day2,2022.2.4,Win32,59.79073244,,,,,,,,,,,,,,,,,,,,,,,,,,,,,,,,,,,,,,,,,,piste,images/br_piste.png,images/cb_piste.png,,PISTE,,,,,,,,,,,-0.050925869,0.006481467,1,0,0,PISTE,0,50,50,5,1
,,,,,,00004,2023-08-01_15h15.32.946,vbt_B2_day2,2022.2.4,Win32,59.79073244,,,,,,,,,,,,,,,,,,,,,,,,,,,,,,,,,,,,,,,,,,strikken,images/br_strikken.png,images/cb_strikken.png,,STREKKEN,,,,,,,,,,,0.196296353,-0.016666667,1,0,0,STREKKEN,0,51,51,18,1
,,,,,,00004,2023-08-01_15h15.32.946,vbt_B2_day2,2022.2.4,Win32,59.79073244,,,,,,,,,,,,,,,,,,,,,,,,,,,,,,,,,,,,,,,,,,trots,images/br_trots.png,images/cb_trots.png,,TROTS,,,,,,,,,,,0.196296353,-0.016666667,1,0,0,TROTS,0,52,52,44,1
,,,,,,00004,2023-08-01_15h15.32.946,vbt_B2_day2,2022.2.4,Win32,59.79073244,,,,,,,,,,,,,,,,,,,,,,,,,,,,,,,,,,,,,,,,,,tweeling,images/br_tweeling.png,images/cb_tweeling.png,,TWEELING,,,,,,,,,,,0.095370399,-0.016666667,1,0,0,TWEELING,0,53,53,58,1
,,,,,,00004,2023-08-01_15h15.32.946,vbt_B2_day2,2022.2.4,Win32,59.79073244,,,,,,,,,,,,,,,,,,,,,,,,,,,,,,,,,,,,,,,,,,zegel,images/br_zegel.png,images/cb_zegel.png,,ZEGEL,,,,,,,,,,,0.161111111,-0.02129631,1,0,0,ZEGEL,0,54,54,46,1
,,,,,,00004,2023-08-01_15h15.32.946,vbt_B2_day2,2022.2.4,Win32,59.79073244,,,,,,,,,,,,,,,,,,,,,,,,,,,,,,,,,,,,,,,,,,manieren,images/br_manieren.png,images/cb_manieren.png,,MANIER,,,,,,,,,,,0.050925954,-0.010185199,1,0,0,MANIER,0,55,55,56,1
,,,,,,00004,2023-08-01_15h15.32.946,vbt_B2_day2,2022.2.4,Win32,59.79073244,,,,,,,,,,,,,,,,,,,,,,,,,,,,,,,,,,,,,,,,,,breuk,images/br_breuk.png,images/cb_breuk.png,,BREUK,,,,,,,,,,,0.126851908,-0.014814843,1,0,0,BREUK,0,56,56,45,1
,,,,,,00004,2023-08-01_15h15.32.946,vbt_B2_day2,2022.2.4,Win32,59.79073244,,,,,,,,,,,,,,,,,,,,,,,,,,,,,,,,,,,,,,,,,,badon,images/br_badon.png,images/cb_badon.png,,BADON,,,,,,,,,,,0.126851908,-0.014814843,1,0,0,BADON,0,57,57,26,1
,,,,,,00004,2023-08-01_15h15.32.946,vbt_B2_day2,2022.2.4,Win32,59.79073244,,,,,,,,,,,,,,,,,,,,,,,,,,,,,,,,,,,,,,,,,,kabel,images/br_kabel.png,images/cb_kabel.png,,KABEL,,,,,,,,,,,0.142592621,-0.012037065,1,0,0,KABEL,0,58,58,7,1
,,,,,,00004,2023-08-01_15h15.32.946,vbt_B2_day2,2022.2.4,Win32,59.79073244,,,,,,,,,,,,,,,,,,,,,,,,,,,,,,,,,,,,,,,,,,clan,images/br_clan.png,images/cb_clan.png,,CLAS,,,,,,,,,,,0.119444444,-0.049074088,1,0,0,CLAS,0,59,59,40,1
,,,,,,00004,2023-08-01_15h15.32.946,vbt_B2_day2,2022.2.4,Win32,59.79073244,,,,,,,,,,,,,,,,,,,,,,,,,,,,,,,,,,,,,,,,,,,,,,,,,,,,,,,,,,,,,,,,,,,
