welcome_mouse.x,welcome_mouse.y,welcome_mouse.leftButton,welcome_mouse.midButton,welcome_mouse.rightButton,welcome_mouse.time,"ID",date,expName,psychopyVersion,OS,frameRate,refresh_mouse.x,refresh_mouse.y,refresh_mouse.leftButton,refresh_mouse.midButton,refresh_mouse.rightButton,refresh_mouse.time,braille_mouse.x,braille_mouse.y,braille_mouse.leftButton,braille_mouse.midButton,braille_mouse.rightButton,braille_mouse.time,trials.thisRepN,trials.thisTrialN,trials.thisN,trials.thisIndex,trials.ran,nlLet,brLet,cbLet,trainInstr_mouse.x,trainInstr_mouse.y,trainInstr_mouse.leftButton,trainInstr_mouse.midButton,trainInstr_mouse.rightButton,trainInstr_mouse.time,translation_key.keys,translation_key.corr,translation_key.rt,word_rsp.text,word_mouse.x,word_mouse.y,word_mouse.leftButton,word_mouse.midButton,word_mouse.rightButton,word_mouse.time,train_loop.thisRepN,train_loop.thisTrialN,train_loop.thisN,train_loop.thisIndex,train_loop.ran,nlWrd,brWrd,cbWrd,test,testResp,mouse.x,mouse.y,mouse.leftButton,mouse.midButton,mouse.rightButton,testInstr_mouse.x,testInstr_mouse.y,testInstr_mouse.leftButton,testInstr_mouse.midButton,testInstr_mouse.rightButton,test_mouse.x,test_mouse.y,test_mouse.leftButton,test_mouse.midButton,test_mouse.rightButton,test_response.text,test_loop.thisRepN,test_loop.thisTrialN,test_loop.thisN,test_loop.thisIndex,test_loop.ran
-0.180555556,-0.248148176,1,0,0,0.8638,00113,2023-12-12_11h35.19.220,vbt_B2_day2,2022.2.4,Win32,60.33546519,,,,,,,,,,,,,,,,,,,,,,,,,,,,,,,,,,,,,,,,,,,,,,,,,,,,,,,,,,,,,,,,,,,
,,,,,,00113,2023-12-12_11h35.19.220,vbt_B2_day2,2022.2.4,Win32,60.33546519,-0.180555556,-0.248148176,1,0,0,0.4848,,,,,,,,,,,,,,,,,,,,,,,,,,,,,,,,,,,,,,,,,,,,,,,,,,,,,,,,,,,,,
,,,,,,00113,2023-12-12_11h35.19.220,vbt_B2_day2,2022.2.4,Win32,60.33546519,,,,,,,-0.180555556,-0.248148176,1,0,0,0.4482,0,0,0,17,1,r,images/br_r.png,images/cb_r.png,,,,,,,,,,,,,,,,,,,,,,,,,,,,,,,,,,,,,,,,,,,,,,,
,,,,,,00113,2023-12-12_11h35.19.220,vbt_B2_day2,2022.2.4,Win32,60.33546519,,,,,,,-0.180555556,-0.248148176,1,0,0,0.5051,0,1,1,3,1,d,images/br_d.png,images/cb_d.png,,,,,,,,,,,,,,,,,,,,,,,,,,,,,,,,,,,,,,,,,,,,,,,
,,,,,,00113,2023-12-12_11h35.19.220,vbt_B2_day2,2022.2.4,Win32,60.33546519,,,,,,,-0.180555556,-0.248148176,1,0,0,0.1334,0,2,2,18,1,s,images/br_s.png,images/cb_s.png,,,,,,,,,,,,,,,,,,,,,,,,,,,,,,,,,,,,,,,,,,,,,,,
,,,,,,00113,2023-12-12_11h35.19.220,vbt_B2_day2,2022.2.4,Win32,60.33546519,,,,,,,-0.040740755,-0.186111097,1,0,0,3.6962,0,3,3,8,1,i,images/br_i.png,images/cb_i.png,,,,,,,,,,,,,,,,,,,,,,,,,,,,,,,,,,,,,,,,,,,,,,,
,,,,,,00113,2023-12-12_11h35.19.220,vbt_B2_day2,2022.2.4,Win32,60.33546519,,,,,,,0.106481481,-0.119444459,1,0,0,1.6866,0,4,4,1,1,b,images/br_b.png,images/cb_b.png,,,,,,,,,,,,,,,,,,,,,,,,,,,,,,,,,,,,,,,,,,,,,,,
,,,,,,00113,2023-12-12_11h35.19.220,vbt_B2_day2,2022.2.4,Win32,60.33546519,,,,,,,0.106481481,-0.119444459,1,0,0,2.5975,0,5,5,11,1,l,images/br_l.png,images/cb_l.png,,,,,,,,,,,,,,,,,,,,,,,,,,,,,,,,,,,,,,,,,,,,,,,
,,,,,,00113,2023-12-12_11h35.19.220,vbt_B2_day2,2022.2.4,Win32,60.33546519,,,,,,,0.106481481,-0.119444459,1,0,0,0.5504,0,6,6,21,1,v,images/br_v.png,images/cb_v.png,,,,,,,,,,,,,,,,,,,,,,,,,,,,,,,,,,,,,,,,,,,,,,,
,,,,,,00113,2023-12-12_11h35.19.220,vbt_B2_day2,2022.2.4,Win32,60.33546519,,,,,,,0.106481481,-0.119444459,1,0,0,0.3335,0,7,7,14,1,o,images/br_o.png,images/cb_o.png,,,,,,,,,,,,,,,,,,,,,,,,,,,,,,,,,,,,,,,,,,,,,,,
,,,,,,00113,2023-12-12_11h35.19.220,vbt_B2_day2,2022.2.4,Win32,60.33546519,,,,,,,0.106481481,-0.119444459,1,0,0,0.4001,0,8,8,9,1,j,images/br_j.png,images/cb_j.png,,,,,,,,,,,,,,,,,,,,,,,,,,,,,,,,,,,,,,,,,,,,,,,
,,,,,,00113,2023-12-12_11h35.19.220,vbt_B2_day2,2022.2.4,Win32,60.33546519,,,,,,,0.113888917,0.044444437,1,0,0,4.596,0,9,9,10,1,k,images/br_k.png,images/cb_k.png,,,,,,,,,,,,,,,,,,,,,,,,,,,,,,,,,,,,,,,,,,,,,,,
,,,,,,00113,2023-12-12_11h35.19.220,vbt_B2_day2,2022.2.4,Win32,60.33546519,,,,,,,0.113888917,0.044444437,1,0,0,1.5986,0,10,10,6,1,g,images/br_g.png,images/cb_g.png,,,,,,,,,,,,,,,,,,,,,,,,,,,,,,,,,,,,,,,,,,,,,,,
,,,,,,00113,2023-12-12_11h35.19.220,vbt_B2_day2,2022.2.4,Win32,60.33546519,,,,,,,0.113888917,0.044444437,1,0,0,1.7813,0,11,11,12,1,m,images/br_m.png,images/cb_m.png,,,,,,,,,,,,,,,,,,,,,,,,,,,,,,,,,,,,,,,,,,,,,,,
,,,,,,00113,2023-12-12_11h35.19.220,vbt_B2_day2,2022.2.4,Win32,60.33546519,,,,,,,0.113888917,0.044444437,1,0,0,0.566,0,12,12,15,1,p,images/br_p.png,images/cb_p.png,,,,,,,,,,,,,,,,,,,,,,,,,,,,,,,,,,,,,,,,,,,,,,,
,,,,,,00113,2023-12-12_11h35.19.220,vbt_B2_day2,2022.2.4,Win32,60.33546519,,,,,,,0.113888917,0.044444437,1,0,0,1.2474,0,13,13,16,1,q,images/br_q.png,images/cb_q.png,,,,,,,,,,,,,,,,,,,,,,,,,,,,,,,,,,,,,,,,,,,,,,,
,,,,,,00113,2023-12-12_11h35.19.220,vbt_B2_day2,2022.2.4,Win32,60.33546519,,,,,,,0.113888917,0.044444437,1,0,0,1.8986,0,14,14,25,1,z,images/br_z.png,images/cb_z.png,,,,,,,,,,,,,,,,,,,,,,,,,,,,,,,,,,,,,,,,,,,,,,,
,,,,,,00113,2023-12-12_11h35.19.220,vbt_B2_day2,2022.2.4,Win32,60.33546519,,,,,,,0.113888917,0.044444437,1,0,0,1.6813,0,15,15,7,1,h,images/br_h.png,images/cb_h.png,,,,,,,,,,,,,,,,,,,,,,,,,,,,,,,,,,,,,,,,,,,,,,,
,,,,,,00113,2023-12-12_11h35.19.220,vbt_B2_day2,2022.2.4,Win32,60.33546519,,,,,,,0.113888917,0.044444437,1,0,0,2.5142,0,16,16,19,1,t,images/br_t.png,images/cb_t.png,,,,,,,,,,,,,,,,,,,,,,,,,,,,,,,,,,,,,,,,,,,,,,,
,,,,,,00113,2023-12-12_11h35.19.220,vbt_B2_day2,2022.2.4,Win32,60.33546519,,,,,,,0.113888917,0.044444437,1,0,0,0.1332,0,17,17,4,1,e,images/br_e.png,images/cb_e.png,,,,,,,,,,,,,,,,,,,,,,,,,,,,,,,,,,,,,,,,,,,,,,,
,,,,,,00113,2023-12-12_11h35.19.220,vbt_B2_day2,2022.2.4,Win32,60.33546519,,,,,,,0.113888917,0.044444437,1,0,0,1.2774,0,18,18,20,1,u,images/br_u.png,images/cb_u.png,,,,,,,,,,,,,,,,,,,,,,,,,,,,,,,,,,,,,,,,,,,,,,,
,,,,,,00113,2023-12-12_11h35.19.220,vbt_B2_day2,2022.2.4,Win32,60.33546519,,,,,,,0.113888917,0.044444437,1,0,0,6.3435,0,19,19,5,1,f,images/br_f.png,images/cb_f.png,,,,,,,,,,,,,,,,,,,,,,,,,,,,,,,,,,,,,,,,,,,,,,,
,,,,,,00113,2023-12-12_11h35.19.220,vbt_B2_day2,2022.2.4,Win32,60.33546519,,,,,,,0.113888917,0.044444437,1,0,0,0.1499,0,20,20,23,1,x,images/br_x.png,images/cb_x.png,,,,,,,,,,,,,,,,,,,,,,,,,,,,,,,,,,,,,,,,,,,,,,,
,,,,,,00113,2023-12-12_11h35.19.220,vbt_B2_day2,2022.2.4,Win32,60.33546519,,,,,,,0.113888917,0.044444437,1,0,0,0.6829,0,21,21,0,1,a,images/br_a.png,images/cb_a.png,,,,,,,,,,,,,,,,,,,,,,,,,,,,,,,,,,,,,,,,,,,,,,,
,,,,,,00113,2023-12-12_11h35.19.220,vbt_B2_day2,2022.2.4,Win32,60.33546519,,,,,,,0.113888917,0.044444437,1,0,0,0.999,0,22,22,22,1,w,images/br_w.png,images/cb_w.png,,,,,,,,,,,,,,,,,,,,,,,,,,,,,,,,,,,,,,,,,,,,,,,
,,,,,,00113,2023-12-12_11h35.19.220,vbt_B2_day2,2022.2.4,Win32,60.33546519,,,,,,,0.113888917,0.044444437,1,0,0,6.8599,0,23,23,24,1,y,images/br_y.png,images/cb_y.png,,,,,,,,,,,,,,,,,,,,,,,,,,,,,,,,,,,,,,,,,,,,,,,
,,,,,,00113,2023-12-12_11h35.19.220,vbt_B2_day2,2022.2.4,Win32,60.33546519,,,,,,,0.113888917,0.044444437,1,0,0,0.7495,0,24,24,2,1,c,images/br_c.png,images/cb_c.png,,,,,,,,,,,,,,,,,,,,,,,,,,,,,,,,,,,,,,,,,,,,,,,
,,,,,,00113,2023-12-12_11h35.19.220,vbt_B2_day2,2022.2.4,Win32,60.33546519,,,,,,,0.113888917,0.044444437,1,0,0,1.7806,0,25,25,13,1,n,images/br_n.png,images/cb_n.png,,,,,,,,,,,,,,,,,,,,,,,,,,,,,,,,,,,,,,,,,,,,,,,
,,,,,,00113,2023-12-12_11h35.19.220,vbt_B2_day2,2022.2.4,Win32,60.33546519,,,,,,,,,,,,,,,,,,,,,0.112963005,-0.186111097,1,0,0,41.5485,,,,,,,,,,,,,,,,,,,,,,,,,,,,,,,,,,,,,,,,,
,,,,,,00113,2023-12-12_11h35.19.220,vbt_B2_day2,2022.2.4,Win32,60.33546519,,,,,,,,,,,,,,,,,,,,,,,,,,,down,0,6.1165,,0.112963005,-0.186111097,1,0,0,3.9303,0,0,0,32,1,palm,images/br_palm.png,images/cb_palm.png,0,,,,,,,,,,,,,,,,,,,,,,
,,,,,,00113,2023-12-12_11h35.19.220,vbt_B2_day2,2022.2.4,Win32,60.33546519,,,,,,,,,,,,,,,,,,,,,,,,,,,down,0,18.5338,,0.112963005,-0.186111097,1,0,0,2.539,0,1,1,106,1,zingen,images/br_zingen.png,images/cb_zingen.png,0,,,,,,,,,,,,,,,,,,,,,,
,,,,,,00113,2023-12-12_11h35.19.220,vbt_B2_day2,2022.2.4,Win32,60.33546519,,,,,,,,,,,,,,,,,,,,,,,,,,,down,0,5.5795,,0.112963005,-0.186111097,1,0,0,1.2484,0,2,2,28,1,stal,images/br_stal.png,images/cb_stal.png,0,,,,,,,,,,,,,,,,,,,,,,
,,,,,,00113,2023-12-12_11h35.19.220,vbt_B2_day2,2022.2.4,Win32,60.33546519,,,,,,,,,,,,,,,,,,,,,,,,,,,down,0,14.3203,,0.112963005,-0.186111097,1,0,0,2.1149,0,3,3,167,1,eenhoorn,images/br_eenhoorn.png,images/cb_eenhoorn.png,0,,,,,,,,,,,,,,,,,,,,,,
,,,,,,00113,2023-12-12_11h35.19.220,vbt_B2_day2,2022.2.4,Win32,60.33546519,,,,,,,,,,,,,,,,,,,,,,,,,,,down,0,9.168,,0.112963005,-0.186111097,1,0,0,1.6316,0,4,4,146,1,opkomen,images/br_opkomen.png,images/cb_opkomen.png,0,,,,,,,,,,,,,,,,,,,,,,
,,,,,,00113,2023-12-12_11h35.19.220,vbt_B2_day2,2022.2.4,Win32,60.33546519,,,,,,,,,,,,,,,,,,,,,,,,,,,down,0,18.9525,,0.112963005,-0.186111097,1,0,0,5.8109,0,5,5,140,1,blijven,images/br_blijven.png,images/cb_blijven.png,0,,,,,,,,,,,,,,,,,,,,,,
,,,,,,00113,2023-12-12_11h35.19.220,vbt_B2_day2,2022.2.4,Win32,60.33546519,,,,,,,,,,,,,,,,,,,,,,,,,,,down,0,33.4574,,-0.017592607,-0.101851852,1,0,0,3.8134,0,6,6,179,1,woestijn,images/br_woestijn.png,images/cb_woestijn.png,1,woestijn,,,,,,,,,,,,,,,,,,,,,
,,,,,,00113,2023-12-12_11h35.19.220,vbt_B2_day2,2022.2.4,Win32,60.33546519,,,,,,,,,,,,,,,,,,,,,,,,,,,down,0,5.6,,-0.017592607,-0.101851852,1,0,0,1.1726,0,7,7,8,1,knie,images/br_knie.png,images/cb_knie.png,0,,,,,,,,,,,,,,,,,,,,,,
,,,,,,00113,2023-12-12_11h35.19.220,vbt_B2_day2,2022.2.4,Win32,60.33546519,,,,,,,,,,,,,,,,,,,,,,,,,,,down,0,24.6513,,0.204629616,-0.058333326,1,0,0,7.1593,0,8,8,136,1,waarbij,images/br_waarbij.png,images/cb_waarbij.png,1,kaarbij,,,,,,,,,,,,,,,,,,,,,
,,,,,,00113,2023-12-12_11h35.19.220,vbt_B2_day2,2022.2.4,Win32,60.33546519,,,,,,,,,,,,,,,,,,,,,,,,,,,down,0,6.2488,,0.204629616,-0.058333326,1,0,0,1.3565,0,9,9,25,1,plek,images/br_plek.png,images/cb_plek.png,0,,,,,,,,,,,,,,,,,,,,,,
,,,,,,00113,2023-12-12_11h35.19.220,vbt_B2_day2,2022.2.4,Win32,60.33546519,,,,,,,,,,,,,,,,,,,,,,,,,,,down,0,25.3958,,0.030555584,-0.12037037,1,0,0,1.0149,0,10,10,195,1,middelen,images/br_middelen.png,images/cb_middelen.png,0,,,,,,,,,,,,,,,,,,,,,,
,,,,,,00113,2023-12-12_11h35.19.220,vbt_B2_day2,2022.2.4,Win32,60.33546519,,,,,,,,,,,,,,,,,,,,,,,,,,,down,0,8.6939,,-0.047222208,-0.052777785,1,0,0,3.0962,0,11,11,45,1,piste,images/br_piste.png,images/cb_piste.png,0,,,,,,,,,,,,,,,,,,,,,,
,,,,,,00113,2023-12-12_11h35.19.220,vbt_B2_day2,2022.2.4,Win32,60.33546519,,,,,,,,,,,,,,,,,,,,,,,,,,,down,0,8.7776,,-0.047222208,-0.052777785,1,0,0,3.1796,0,12,12,158,1,innemen,images/br_innemen.png,images/cb_innemen.png,0,,,,,,,,,,,,,,,,,,,,,,
,,,,,,00113,2023-12-12_11h35.19.220,vbt_B2_day2,2022.2.4,Win32,60.33546519,,,,,,,,,,,,,,,,,,,,,,,,,,,down,0,9.2516,,-0.047222208,-0.052777785,1,0,0,2.4313,0,13,13,86,1,woning,images/br_woning.png,images/cb_woning.png,0,,,,,,,,,,,,,,,,,,,,,,
,,,,,,00113,2023-12-12_11h35.19.220,vbt_B2_day2,2022.2.4,Win32,60.33546519,,,,,,,,,,,,,,,,,,,,,,,,,,,down,0,10.674,,-0.037962949,-0.101851852,1,0,0,1.6479,0,14,14,98,1,kreeft,images/br_kreeft.png,images/cb_kreeft.png,1,kreeft,,,,,,,,,,,,,,,,,,,,,
,,,,,,00113,2023-12-12_11h35.19.220,vbt_B2_day2,2022.2.4,Win32,60.33546519,,,,,,,,,,,,,,,,,,,,,,,,,,,down,0,8.3284,,-0.031481496,-0.110185199,1,0,0,3.1298,0,15,15,139,1,stiekem,images/br_stiekem.png,images/cb_stiekem.png,1,stiekem,,,,,,,,,,,,,,,,,,,,,
,,,,,,00113,2023-12-12_11h35.19.220,vbt_B2_day2,2022.2.4,Win32,60.33546519,,,,,,,,,,,,,,,,,,,,,,,,,,,down,0,18.2754,,-0.031481496,-0.110185199,1,0,0,1.0653,0,16,16,138,1,akkoord,images/br_akkoord.png,images/cb_akkoord.png,1,akkoord,,,,,,,,,,,,,,,,,,,,,
,,,,,,00113,2023-12-12_11h35.19.220,vbt_B2_day2,2022.2.4,Win32,60.33546519,,,,,,,,,,,,,,,,,,,,,,,,,,,down,0,15.38,,-0.031481496,-0.110185199,1,0,0,2.3476,0,17,17,131,1,opzicht,images/br_opzicht.png,images/cb_opzicht.png,0,,,,,,,,,,,,,,,,,,,,,,
,,,,,,00113,2023-12-12_11h35.19.220,vbt_B2_day2,2022.2.4,Win32,60.33546519,,,,,,,,,,,,,,,,,,,,,,,,,,,down,0,12.3241,,-0.031481496,-0.110185199,1,0,0,1.2649,0,18,18,181,1,toegeven,images/br_toegeven.png,images/cb_toegeven.png,0,,,,,,,,,,,,,,,,,,,,,,
,,,,,,00113,2023-12-12_11h35.19.220,vbt_B2_day2,2022.2.4,Win32,60.33546519,,,,,,,,,,,,,,,,,,,,,,,,,,,down,0,16.5906,,-0.031481496,-0.110185199,1,0,0,2.1651,0,19,19,182,1,bijkomen,images/br_bijkomen.png,images/cb_bijkomen.png,0,,,,,,,,,,,,,,,,,,,,,,
,,,,,,00113,2023-12-12_11h35.19.220,vbt_B2_day2,2022.2.4,Win32,60.33546519,,,,,,,,,,,,,,,,,,,,,,,,,,,down,0,5.0733,,-0.031481496,-0.110185199,1,0,0,1.0993,0,20,20,31,1,poes,images/br_poes.png,images/cb_poes.png,0,,,,,,,,,,,,,,,,,,,,,,
,,,,,,00113,2023-12-12_11h35.19.220,vbt_B2_day2,2022.2.4,Win32,60.33546519,,,,,,,,,,,,,,,,,,,,,,,,,,,down,0,7.7305,,-0.031481496,-0.110185199,1,0,0,1.0161,0,21,21,23,1,zout,images/br_zout.png,images/cb_zout.png,0,,,,,,,,,,,,,,,,,,,,,,
,,,,,,00113,2023-12-12_11h35.19.220,vbt_B2_day2,2022.2.4,Win32,60.33546519,,,,,,,,,,,,,,,,,,,,,,,,,,,down,0,6.4125,,-0.031481496,-0.110185199,1,0,0,1.1991,0,22,22,3,1,mand,images/br_mand.png,images/cb_mand.png,0,,,,,,,,,,,,,,,,,,,,,,
,,,,,,00113,2023-12-12_11h35.19.220,vbt_B2_day2,2022.2.4,Win32,60.33546519,,,,,,,,,,,,,,,,,,,,,,,,,,,down,0,7.6792,,-0.031481496,-0.110185199,1,0,0,0.749,0,23,23,186,1,voorraad,images/br_voorraad.png,images/cb_voorraad.png,0,,,,,,,,,,,,,,,,,,,,,,
,,,,,,00113,2023-12-12_11h35.19.220,vbt_B2_day2,2022.2.4,Win32,60.33546519,,,,,,,,,,,,,,,,,,,,,,,,,,,down,0,5.1167,,-0.031481496,-0.110185199,1,0,0,0.8328,0,24,24,62,1,knaap,images/br_knaap.png,images/cb_knaap.png,0,,,,,,,,,,,,,,,,,,,,,,
,,,,,,00113,2023-12-12_11h35.19.220,vbt_B2_day2,2022.2.4,Win32,60.33546519,,,,,,,,,,,,,,,,,,,,,,,,,,,down,0,15.5062,,-0.031481496,-0.110185199,0,0,1,1.0874,0,25,25,178,1,huisdier,images/br_huisdier.png,images/cb_huisdier.png,1,huisdier,,,,,,,,,,,,,,,,,,,,,
,,,,,,00113,2023-12-12_11h35.19.220,vbt_B2_day2,2022.2.4,Win32,60.33546519,,,,,,,,,,,,,,,,,,,,,,,,,,,down,0,14.8711,,-0.031481496,-0.110185199,1,0,0,2.4157,0,26,26,159,1,sufferd,images/br_sufferd.png,images/cb_sufferd.png,0,,,,,,,,,,,,,,,,,,,,,,
,,,,,,00113,2023-12-12_11h35.19.220,vbt_B2_day2,2022.2.4,Win32,60.33546519,,,,,,,,,,,,,,,,,,,,,,,,,,,down,0,17.3496,,-0.031481496,-0.110185199,1,0,0,1.1815,0,27,27,193,1,weeshuis,images/br_weeshuis.png,images/cb_weeshuis.png,0,,,,,,,,,,,,,,,,,,,,,,
,,,,,,00113,2023-12-12_11h35.19.220,vbt_B2_day2,2022.2.4,Win32,60.33546519,,,,,,,,,,,,,,,,,,,,,,,,,,,down,0,4.1866,,-0.031481496,-0.110185199,1,0,0,1.9476,0,28,28,7,1,geld,images/br_geld.png,images/cb_geld.png,0,,,,,,,,,,,,,,,,,,,,,,
,,,,,,00113,2023-12-12_11h35.19.220,vbt_B2_day2,2022.2.4,Win32,60.33546519,,,,,,,,,,,,,,,,,,,,,,,,,,,down,0,4.629,,-0.031481496,-0.110185199,1,0,0,0.9159,0,29,29,89,1,slapen,images/br_slapen.png,images/cb_slapen.png,0,,,,,,,,,,,,,,,,,,,,,,
,,,,,,00113,2023-12-12_11h35.19.220,vbt_B2_day2,2022.2.4,Win32,60.33546519,,,,,,,,,,,,,,,,,,,,,,,,,,,down,0,6.8825,,-0.031481496,-0.110185199,1,0,0,0.7655,0,30,30,26,1,leuk,images/br_leuk.png,images/cb_leuk.png,0,,,,,,,,,,,,,,,,,,,,,,
,,,,,,00113,2023-12-12_11h35.19.220,vbt_B2_day2,2022.2.4,Win32,60.33546519,,,,,,,,,,,,,,,,,,,,,,,,,,,down,0,16.3219,,-0.031481496,-0.110185199,1,0,0,2.8142,0,31,31,168,1,bisschop,images/br_bisschop.png,images/cb_bisschop.png,0,,,,,,,,,,,,,,,,,,,,,,
,,,,,,00113,2023-12-12_11h35.19.220,vbt_B2_day2,2022.2.4,Win32,60.33546519,,,,,,,,,,,,,,,,,,,,,,,,,,,down,0,11.2841,,-0.031481496,-0.110185199,1,0,0,1.7982,0,32,32,166,1,strikken,images/br_strikken.png,images/cb_strikken.png,0,,,,,,,,,,,,,,,,,,,,,,
,,,,,,00113,2023-12-12_11h35.19.220,vbt_B2_day2,2022.2.4,Win32,60.33546519,,,,,,,,,,,,,,,,,,,,,,,,,,,down,0,5.3345,,-0.031481496,-0.110185199,1,0,0,0.6831,0,33,33,73,1,volop,images/br_volop.png,images/cb_volop.png,0,,,,,,,,,,,,,,,,,,,,,,
,,,,,,00113,2023-12-12_11h35.19.220,vbt_B2_day2,2022.2.4,Win32,60.33546519,,,,,,,,,,,,,,,,,,,,,,,,,,,down,0,22.1859,,-0.031481496,-0.110185199,1,0,0,1.4648,0,34,34,133,1,seizoen,images/br_seizoen.png,images/cb_seizoen.png,0,,,,,,,,,,,,,,,,,,,,,,
,,,,,,00113,2023-12-12_11h35.19.220,vbt_B2_day2,2022.2.4,Win32,60.33546519,,,,,,,,,,,,,,,,,,,,,,,,,,,down,0,4.3155,,-0.031481496,-0.110185199,1,0,0,1.099,0,35,35,101,1,staren,images/br_staren.png,images/cb_staren.png,0,,,,,,,,,,,,,,,,,,,,,,
,,,,,,00113,2023-12-12_11h35.19.220,vbt_B2_day2,2022.2.4,Win32,60.33546519,,,,,,,,,,,,,,,,,,,,,,,,,,,down,0,6.1186,,-0.031481496,-0.110185199,1,0,0,1.9153,0,36,36,55,1,praat,images/br_praat.png,images/cb_praat.png,0,,,,,,,,,,,,,,,,,,,,,,
,,,,,,00113,2023-12-12_11h35.19.220,vbt_B2_day2,2022.2.4,Win32,60.33546519,,,,,,,,,,,,,,,,,,,,,,,,,,,down,0,6.1517,,-0.031481496,-0.110185199,1,0,0,1.0964,0,37,37,171,1,aarzelen,images/br_aarzelen.png,images/cb_aarzelen.png,0,,,,,,,,,,,,,,,,,,,,,,
,,,,,,00113,2023-12-12_11h35.19.220,vbt_B2_day2,2022.2.4,Win32,60.33546519,,,,,,,,,,,,,,,,,,,,,,,,,,,down,0,10.9167,,-0.031481496,-0.110185199,1,0,0,1.1492,0,38,38,84,1,lokken,images/br_lokken.png,images/cb_lokken.png,0,,,,,,,,,,,,,,,,,,,,,,
,,,,,,00113,2023-12-12_11h35.19.220,vbt_B2_day2,2022.2.4,Win32,60.33546519,,,,,,,,,,,,,,,,,,,,,,,,,,,down,0,7.6469,,-0.031481496,-0.110185199,1,0,0,1.3489,0,39,39,35,1,lust,images/br_lust.png,images/cb_lust.png,0,,,,,,,,,,,,,,,,,,,,,,
,,,,,,00113,2023-12-12_11h35.19.220,vbt_B2_day2,2022.2.4,Win32,60.33546519,,,,,,,,,,,,,,,,,,,,,,,,,,,down,0,12.5552,,-0.031481496,-0.110185199,1,0,0,0.9491,0,40,40,34,1,vorm,images/br_vorm.png,images/cb_vorm.png,0,,,,,,,,,,,,,,,,,,,,,,
,,,,,,00113,2023-12-12_11h35.19.220,vbt_B2_day2,2022.2.4,Win32,60.33546519,,,,,,,,,,,,,,,,,,,,,,,,,,,down,0,9.1966,,-0.031481496,-0.110185199,1,0,0,1.1659,0,41,41,93,1,waarop,images/br_waarop.png,images/cb_waarop.png,0,,,,,,,,,,,,,,,,,,,,,,
,,,,,,00113,2023-12-12_11h35.19.220,vbt_B2_day2,2022.2.4,Win32,60.33546519,,,,,,,,,,,,,,,,,,,,,,,,,,,down,0,2.0098,,-0.031481496,-0.110185199,1,0,0,0.6491,0,42,42,5,1,blad,images/br_blad.png,images/cb_blad.png,0,,,,,,,,,,,,,,,,,,,,,,
,,,,,,00113,2023-12-12_11h35.19.220,vbt_B2_day2,2022.2.4,Win32,60.33546519,,,,,,,,,,,,,,,,,,,,,,,,,,,down,0,1.6979,,-0.031481496,-0.110185199,1,0,0,0.9332,0,43,43,21,1,mist,images/br_mist.png,images/cb_mist.png,0,,,,,,,,,,,,,,,,,,,,,,
,,,,,,00113,2023-12-12_11h35.19.220,vbt_B2_day2,2022.2.4,Win32,60.33546519,,,,,,,,,,,,,,,,,,,,,,,,,,,down,0,13.1446,,-0.031481496,-0.110185199,1,0,0,0.8161,0,44,44,198,1,bedoelen,images/br_bedoelen.png,images/cb_bedoelen.png,0,,,,,,,,,,,,,,,,,,,,,,
,,,,,,00113,2023-12-12_11h35.19.220,vbt_B2_day2,2022.2.4,Win32,60.33546519,,,,,,,,,,,,,,,,,,,,,,,,,,,down,0,6.2972,,0.14444443,-0.158333319,1,0,0,0.6499,0,45,45,176,1,techniek,images/br_techniek.png,images/cb_techniek.png,1,techniek,,,,,,,,,,,,,,,,,,,,,
,,,,,,00113,2023-12-12_11h35.19.220,vbt_B2_day2,2022.2.4,Win32,60.33546519,,,,,,,,,,,,,,,,,,,,,,,,,,,down,0,16.4301,,0.071296339,-0.094444487,1,0,0,0.8321,0,46,46,163,1,schuilen,images/br_schuilen.png,images/cb_schuilen.png,0,,,,,,,,,,,,,,,,,,,,,,
,,,,,,00113,2023-12-12_11h35.19.220,vbt_B2_day2,2022.2.4,Win32,60.33546519,,,,,,,,,,,,,,,,,,,,,,,,,,,down,0,4.3667,,0.071296339,-0.094444487,1,0,0,0.6323,0,47,47,175,1,heengaan,images/br_heengaan.png,images/cb_heengaan.png,0,,,,,,,,,,,,,,,,,,,,,,
,,,,,,00113,2023-12-12_11h35.19.220,vbt_B2_day2,2022.2.4,Win32,60.33546519,,,,,,,,,,,,,,,,,,,,,,,,,,,down,0,12.7887,,0.071296339,-0.094444487,1,0,0,2.1308,0,48,48,54,1,gebit,images/br_gebit.png,images/cb_gebit.png,0,,,,,,,,,,,,,,,,,,,,,,
,,,,,,00113,2023-12-12_11h35.19.220,vbt_B2_day2,2022.2.4,Win32,60.33546519,,,,,,,,,,,,,,,,,,,,,,,,,,,down,0,7.2992,,0.071296339,-0.094444487,1,0,0,0.5328,0,49,49,44,1,flits,images/br_flits.png,images/cb_flits.png,0,,,,,,,,,,,,,,,,,,,,,,
,,,,,,00113,2023-12-12_11h35.19.220,vbt_B2_day2,2022.2.4,Win32,60.33546519,,,,,,,,,,,,,,,,,,,,,,,,,,,down,0,5.7673,,0.071296339,-0.094444487,1,0,0,0.5664,0,50,50,190,1,goedkoop,images/br_goedkoop.png,images/cb_goedkoop.png,0,,,,,,,,,,,,,,,,,,,,,,
,,,,,,00113,2023-12-12_11h35.19.220,vbt_B2_day2,2022.2.4,Win32,60.33546519,,,,,,,,,,,,,,,,,,,,,,,,,,,down,0,6.0181,,0.071296339,-0.094444487,1,0,0,1.3818,0,51,51,11,1,mode,images/br_mode.png,images/cb_mode.png,0,,,,,,,,,,,,,,,,,,,,,,
,,,,,,00113,2023-12-12_11h35.19.220,vbt_B2_day2,2022.2.4,Win32,60.33546519,,,,,,,,,,,,,,,,,,,,,,,,,,,down,0,11.8941,,0.071296339,-0.094444487,1,0,0,0.4496,0,52,52,174,1,stemming,images/br_stemming.png,images/cb_stemming.png,0,,,,,,,,,,,,,,,,,,,,,,
,,,,,,00113,2023-12-12_11h35.19.220,vbt_B2_day2,2022.2.4,Win32,60.33546519,,,,,,,,,,,,,,,,,,,,,,,,,,,down,0,5.0156,,0.071296339,-0.094444487,1,0,0,1.9145,0,53,53,2,1,jaar,images/br_jaar.png,images/cb_jaar.png,0,,,,,,,,,,,,,,,,,,,,,,
,,,,,,00113,2023-12-12_11h35.19.220,vbt_B2_day2,2022.2.4,Win32,60.33546519,,,,,,,,,,,,,,,,,,,,,,,,,,,down,0,4.3374,,0.071296339,-0.094444487,1,0,0,0.816,0,54,54,24,1,jurk,images/br_jurk.png,images/cb_jurk.png,0,,,,,,,,,,,,,,,,,,,,,,
,,,,,,00113,2023-12-12_11h35.19.220,vbt_B2_day2,2022.2.4,Win32,60.33546519,,,,,,,,,,,,,,,,,,,,,,,,,,,down,0,4.8498,,0.071296339,-0.094444487,1,0,0,0.4829,0,55,55,67,1,zwart,images/br_zwart.png,images/cb_zwart.png,0,,,,,,,,,,,,,,,,,,,,,,
,,,,,,00113,2023-12-12_11h35.19.220,vbt_B2_day2,2022.2.4,Win32,60.33546519,,,,,,,,,,,,,,,,,,,,,,,,,,,down,0,4.7984,,0.071296339,-0.094444487,1,0,0,1.0068,0,56,56,58,1,tekst,images/br_tekst.png,images/cb_tekst.png,1,tekst,,,,,,,,,,,,,,,,,,,,,
,,,,,,00113,2023-12-12_11h35.19.220,vbt_B2_day2,2022.2.4,Win32,60.33546519,,,,,,,,,,,,,,,,,,,,,,,,,,,down,0,9.9949,,0.071296339,-0.094444487,1,0,0,2.3643,0,57,57,63,1,flirt,images/br_flirt.png,images/cb_flirt.png,0,,,,,,,,,,,,,,,,,,,,,,
,,,,,,00113,2023-12-12_11h35.19.220,vbt_B2_day2,2022.2.4,Win32,60.33546519,,,,,,,,,,,,,,,,,,,,,,,,,,,down,0,12.1105,,0.071296339,-0.094444487,1,0,0,1.216,0,58,58,143,1,hechten,images/br_hechten.png,images/cb_hechten.png,0,,,,,,,,,,,,,,,,,,,,,,
,,,,,,00113,2023-12-12_11h35.19.220,vbt_B2_day2,2022.2.4,Win32,60.33546519,,,,,,,,,,,,,,,,,,,,,,,,,,,down,0,9.0587,,0.071296339,-0.094444487,1,0,0,1.7317,0,59,59,196,1,nakijken,images/br_nakijken.png,images/cb_nakijken.png,0,,,,,,,,,,,,,,,,,,,,,,
,,,,,,00113,2023-12-12_11h35.19.220,vbt_B2_day2,2022.2.4,Win32,60.33546519,,,,,,,,,,,,,,,,,,,,,,,,,,,down,0,2.0533,,0.071296339,-0.094444487,1,0,0,0.4496,0,60,60,48,1,steel,images/br_steel.png,images/cb_steel.png,0,,,,,,,,,,,,,,,,,,,,,,
,,,,,,00113,2023-12-12_11h35.19.220,vbt_B2_day2,2022.2.4,Win32,60.33546519,,,,,,,,,,,,,,,,,,,,,,,,,,,down,0,15.1175,,0.071296339,-0.094444487,1,0,0,1.3482,0,61,61,135,1,gedicht,images/br_gedicht.png,images/cb_gedicht.png,0,,,,,,,,,,,,,,,,,,,,,,
,,,,,,00113,2023-12-12_11h35.19.220,vbt_B2_day2,2022.2.4,Win32,60.33546519,,,,,,,,,,,,,,,,,,,,,,,,,,,down,0,6.4845,,0.071296339,-0.094444487,1,0,0,0.5821,0,62,62,155,1,gerucht,images/br_gerucht.png,images/cb_gerucht.png,0,,,,,,,,,,,,,,,,,,,,,,
,,,,,,00113,2023-12-12_11h35.19.220,vbt_B2_day2,2022.2.4,Win32,60.33546519,,,,,,,,,,,,,,,,,,,,,,,,,,,down,0,11.2801,,0.071296339,-0.094444487,1,0,0,0.7299,0,63,63,0,1,slak,images/br_slak.png,images/cb_slak.png,0,,,,,,,,,,,,,,,,,,,,,,
,,,,,,00113,2023-12-12_11h35.19.220,vbt_B2_day2,2022.2.4,Win32,60.33546519,,,,,,,,,,,,,,,,,,,,,,,,,,,down,0,1.895,,0.071296339,-0.094444487,1,0,0,0.4488,0,64,64,39,1,laag,images/br_laag.png,images/cb_laag.png,0,,,,,,,,,,,,,,,,,,,,,,
,,,,,,00113,2023-12-12_11h35.19.220,vbt_B2_day2,2022.2.4,Win32,60.33546519,,,,,,,,,,,,,,,,,,,,,,,,,,,down,0,4.5303,,0.071296339,-0.094444487,1,0,0,0.5333,0,65,65,187,1,opkijken,images/br_opkijken.png,images/cb_opkijken.png,0,,,,,,,,,,,,,,,,,,,,,,
,,,,,,00113,2023-12-12_11h35.19.220,vbt_B2_day2,2022.2.4,Win32,60.33546519,,,,,,,,,,,,,,,,,,,,,,,,,,,down,0,5.9769,,0.071296339,-0.094444487,1,0,0,0.6001,0,66,66,199,1,beseffen,images/br_beseffen.png,images/cb_beseffen.png,0,,,,,,,,,,,,,,,,,,,,,,
,,,,,,00113,2023-12-12_11h35.19.220,vbt_B2_day2,2022.2.4,Win32,60.33546519,,,,,,,,,,,,,,,,,,,,,,,,,,,down,0,20.5071,,0.071296339,-0.094444487,1,0,0,1.7325,0,67,67,165,1,feestdag,images/br_feestdag.png,images/cb_feestdag.png,0,,,,,,,,,,,,,,,,,,,,,,
,,,,,,00113,2023-12-12_11h35.19.220,vbt_B2_day2,2022.2.4,Win32,60.33546519,,,,,,,,,,,,,,,,,,,,,,,,,,,down,0,4.8543,,0.071296339,-0.094444487,1,0,0,0.4659,0,68,68,134,1,geliefd,images/br_geliefd.png,images/cb_geliefd.png,0,,,,,,,,,,,,,,,,,,,,,,
,,,,,,00113,2023-12-12_11h35.19.220,vbt_B2_day2,2022.2.4,Win32,60.33546519,,,,,,,,,,,,,,,,,,,,,,,,,,,down,0,10.6558,,0.071296339,-0.094444487,1,0,0,0.7329,0,69,69,129,1,verhaal,images/br_verhaal.png,images/cb_verhaal.png,0,,,,,,,,,,,,,,,,,,,,,,
,,,,,,00113,2023-12-12_11h35.19.220,vbt_B2_day2,2022.2.4,Win32,60.33546519,,,,,,,,,,,,,,,,,,,,,,,,,,,down,0,3.4892,,0.071296339,-0.094444487,1,0,0,0.8152,0,70,70,42,1,bleek,images/br_bleek.png,images/cb_bleek.png,0,,,,,,,,,,,,,,,,,,,,,,
,,,,,,00113,2023-12-12_11h35.19.220,vbt_B2_day2,2022.2.4,Win32,60.33546519,,,,,,,,,,,,,,,,,,,,,,,,,,,down,0,6.7155,,0.071296339,-0.094444487,1,0,0,0.4664,0,71,71,161,1,attentie,images/br_attentie.png,images/cb_attentie.png,0,,,,,,,,,,,,,,,,,,,,,,
,,,,,,00113,2023-12-12_11h35.19.220,vbt_B2_day2,2022.2.4,Win32,60.33546519,,,,,,,,,,,,,,,,,,,,,,,,,,,down,0,2.368,,0.071296339,-0.094444487,1,0,0,0.5996,0,72,72,4,1,moes,images/br_moes.png,images/cb_moes.png,0,,,,,,,,,,,,,,,,,,,,,,
,,,,,,00113,2023-12-12_11h35.19.220,vbt_B2_day2,2022.2.4,Win32,60.33546519,,,,,,,,,,,,,,,,,,,,,,,,,,,down,0,7.3928,,0.071296339,-0.094444487,1,0,0,0.6657,0,73,73,137,1,trekker,images/br_trekker.png,images/cb_trekker.png,1,trekker,,,,,,,,,,,,,,,,,,,,,
,,,,,,00113,2023-12-12_11h35.19.220,vbt_B2_day2,2022.2.4,Win32,60.33546519,,,,,,,,,,,,,,,,,,,,,,,,,,,down,0,21.6968,,-0.024999972,0.0074074,1,0,0,1.7145,0,74,74,83,1,mening,images/br_mening.png,images/cb_mening.png,0,,,,,,,,,,,,,,,,,,,,,,
,,,,,,00113,2023-12-12_11h35.19.220,vbt_B2_day2,2022.2.4,Win32,60.33546519,,,,,,,,,,,,,,,,,,,,,,,,,,,down,0,4.9455,,-0.024999972,0.0074074,1,0,0,0.9658,0,75,75,151,1,aanzoek,images/br_aanzoek.png,images/cb_aanzoek.png,0,,,,,,,,,,,,,,,,,,,,,,
,,,,,,00113,2023-12-12_11h35.19.220,vbt_B2_day2,2022.2.4,Win32,60.33546519,,,,,,,,,,,,,,,,,,,,,,,,,,,down,0,1.4755,,-0.024999972,0.0074074,1,0,0,0.7659,0,76,76,29,1,baas,images/br_baas.png,images/cb_baas.png,0,,,,,,,,,,,,,,,,,,,,,,
,,,,,,00113,2023-12-12_11h35.19.220,vbt_B2_day2,2022.2.4,Win32,60.33546519,,,,,,,,,,,,,,,,,,,,,,,,,,,down,0,5.4464,,-0.024999972,0.0074074,1,0,0,1.9649,0,77,77,79,1,nodig,images/br_nodig.png,images/cb_nodig.png,0,,,,,,,,,,,,,,,,,,,,,,
,,,,,,00113,2023-12-12_11h35.19.220,vbt_B2_day2,2022.2.4,Win32,60.33546519,,,,,,,,,,,,,,,,,,,,,,,,,,,down,0,6.6638,,-0.024999972,0.0074074,1,0,0,2.0469,0,78,78,105,1,wijlen,images/br_wijlen.png,images/cb_wijlen.png,0,,,,,,,,,,,,,,,,,,,,,,
,,,,,,00113,2023-12-12_11h35.19.220,vbt_B2_day2,2022.2.4,Win32,60.33546519,,,,,,,,,,,,,,,,,,,,,,,,,,,down,0,4.9709,,-0.024999972,0.0074074,1,0,0,0.3157,0,79,79,128,1,prikken,images/br_prikken.png,images/cb_prikken.png,0,,,,,,,,,,,,,,,,,,,,,,
,,,,,,00113,2023-12-12_11h35.19.220,vbt_B2_day2,2022.2.4,Win32,60.33546519,,,,,,,,,,,,,,,,,,,,,,,,,,,down,0,9.6957,,-0.024999972,0.0074074,1,0,0,0.8154,0,80,80,37,1,mijn,images/br_mijn.png,images/cb_mijn.png,0,,,,,,,,,,,,,,,,,,,,,,
,,,,,,00113,2023-12-12_11h35.19.220,vbt_B2_day2,2022.2.4,Win32,60.33546519,,,,,,,,,,,,,,,,,,,,,,,,,,,down,0,5.6814,,-0.024999972,0.0074074,1,0,0,0.9822,0,81,81,125,1,aanzien,images/br_aanzien.png,images/cb_aanzien.png,0,,,,,,,,,,,,,,,,,,,,,,
,,,,,,00113,2023-12-12_11h35.19.220,vbt_B2_day2,2022.2.4,Win32,60.33546519,,,,,,,,,,,,,,,,,,,,,,,,,,,down,0,9.3398,,-0.024999972,0.0074074,1,0,0,0.8658,0,82,82,191,1,opheffen,images/br_opheffen.png,images/cb_opheffen.png,0,,,,,,,,,,,,,,,,,,,,,,
,,,,,,00113,2023-12-12_11h35.19.220,vbt_B2_day2,2022.2.4,Win32,60.33546519,,,,,,,,,,,,,,,,,,,,,,,,,,,down,0,6.2845,,-0.024999972,0.0074074,1,0,0,0.5995,0,83,83,141,1,knielen,images/br_knielen.png,images/cb_knielen.png,0,,,,,,,,,,,,,,,,,,,,,,
,,,,,,00113,2023-12-12_11h35.19.220,vbt_B2_day2,2022.2.4,Win32,60.33546519,,,,,,,,,,,,,,,,,,,,,,,,,,,down,0,15.703,,-0.024999972,0.0074074,1,0,0,0.9159,0,84,84,173,1,apparaat,images/br_apparaat.png,images/cb_apparaat.png,0,,,,,,,,,,,,,,,,,,,,,,
,,,,,,00113,2023-12-12_11h35.19.220,vbt_B2_day2,2022.2.4,Win32,60.33546519,,,,,,,,,,,,,,,,,,,,,,,,,,,down,0,3.5205,,-0.024999972,0.0074074,1,0,0,0.6828,0,85,85,114,1,vullen,images/br_vullen.png,images/cb_vullen.png,0,,,,,,,,,,,,,,,,,,,,,,
,,,,,,00113,2023-12-12_11h35.19.220,vbt_B2_day2,2022.2.4,Win32,60.33546519,,,,,,,,,,,,,,,,,,,,,,,,,,,down,0,3.2158,,-0.024999972,0.0074074,1,0,0,0.4824,0,86,86,71,1,bever,images/br_bever.png,images/cb_bever.png,0,,,,,,,,,,,,,,,,,,,,,,
,,,,,,00113,2023-12-12_11h35.19.220,vbt_B2_day2,2022.2.4,Win32,60.33546519,,,,,,,,,,,,,,,,,,,,,,,,,,,down,0,14.1577,,-0.024999972,0.0074074,1,0,0,3.1798,0,87,87,172,1,weigeren,images/br_weigeren.png,images/cb_weigeren.png,0,,,,,,,,,,,,,,,,,,,,,,
,,,,,,00113,2023-12-12_11h35.19.220,vbt_B2_day2,2022.2.4,Win32,60.33546519,,,,,,,,,,,,,,,,,,,,,,,,,,,down,0,4.3046,,-0.024999972,0.0074074,1,0,0,0.3996,0,88,88,52,1,wagon,images/br_wagon.png,images/cb_wagon.png,0,,,,,,,,,,,,,,,,,,,,,,
,,,,,,00113,2023-12-12_11h35.19.220,vbt_B2_day2,2022.2.4,Win32,60.33546519,,,,,,,,,,,,,,,,,,,,,,,,,,,down,0,3.7814,,-0.012962977,0.001851859,1,0,0,0.5991,0,89,89,18,1,blik,images/br_blik.png,images/cb_blik.png,1,blik,,,,,,,,,,,,,,,,,,,,,
,,,,,,00113,2023-12-12_11h35.19.220,vbt_B2_day2,2022.2.4,Win32,60.33546519,,,,,,,,,,,,,,,,,,,,,,,,,,,down,0,10.0588,,-0.012962977,0.001851859,1,0,0,0.966,0,90,90,145,1,invloed,images/br_invloed.png,images/cb_invloed.png,0,,,,,,,,,,,,,,,,,,,,,,
,,,,,,00113,2023-12-12_11h35.19.220,vbt_B2_day2,2022.2.4,Win32,60.33546519,,,,,,,,,,,,,,,,,,,,,,,,,,,down,0,10.528,,-0.012962977,0.001851859,1,0,0,3.0474,0,91,91,130,1,keihard,images/br_keihard.png,images/cb_keihard.png,0,,,,,,,,,,,,,,,,,,,,,,
,,,,,,00113,2023-12-12_11h35.19.220,vbt_B2_day2,2022.2.4,Win32,60.33546519,,,,,,,,,,,,,,,,,,,,,,,,,,,down,0,11.375,,-0.012962977,0.001851859,1,0,0,1.4315,0,92,92,160,1,daarheen,images/br_daarheen.png,images/cb_daarheen.png,0,,,,,,,,,,,,,,,,,,,,,,
,,,,,,00113,2023-12-12_11h35.19.220,vbt_B2_day2,2022.2.4,Win32,60.33546519,,,,,,,,,,,,,,,,,,,,,,,,,,,down,0,4.9004,,-0.012962977,0.001851859,1,0,0,3.3472,0,93,93,120,1,klimmen,images/br_klimmen.png,images/cb_klimmen.png,0,,,,,,,,,,,,,,,,,,,,,,
,,,,,,00113,2023-12-12_11h35.19.220,vbt_B2_day2,2022.2.4,Win32,60.33546519,,,,,,,,,,,,,,,,,,,,,,,,,,,down,0,5.746,,-0.012962977,0.001851859,1,0,0,1.3988,0,94,94,77,1,woede,images/br_woede.png,images/cb_woede.png,0,,,,,,,,,,,,,,,,,,,,,,
,,,,,,00113,2023-12-12_11h35.19.220,vbt_B2_day2,2022.2.4,Win32,60.33546519,,,,,,,,,,,,,,,,,,,,,,,,,,,down,0,14.0594,,-0.012962977,0.001851859,1,0,0,1.4659,0,95,95,185,1,mijnheer,images/br_mijnheer.png,images/cb_mijnheer.png,0,,,,,,,,,,,,,,,,,,,,,,
,,,,,,00113,2023-12-12_11h35.19.220,vbt_B2_day2,2022.2.4,Win32,60.33546519,,,,,,,,,,,,,,,,,,,,,,,,,,,down,0,8.4481,,-0.012962977,0.001851859,1,0,0,1.2664,0,96,96,184,1,aandelen,images/br_aandelen.png,images/cb_aandelen.png,0,,,,,,,,,,,,,,,,,,,,,,
,,,,,,00113,2023-12-12_11h35.19.220,vbt_B2_day2,2022.2.4,Win32,60.33546519,,,,,,,,,,,,,,,,,,,,,,,,,,,down,0,11.8807,,-0.012962977,0.001851859,1,0,0,2.3319,0,97,97,147,1,komisch,images/br_komisch.png,images/cb_komisch.png,0,,,,,,,,,,,,,,,,,,,,,,
,,,,,,00113,2023-12-12_11h35.19.220,vbt_B2_day2,2022.2.4,Win32,60.33546519,,,,,,,,,,,,,,,,,,,,,,,,,,,down,0,9.1088,,-0.012962977,0.001851859,1,0,0,0.7666,0,98,98,10,1,leek,images/br_leek.png,images/cb_leek.png,0,,,,,,,,,,,,,,,,,,,,,,
,,,,,,00113,2023-12-12_11h35.19.220,vbt_B2_day2,2022.2.4,Win32,60.33546519,,,,,,,,,,,,,,,,,,,,,,,,,,,down,0,1.915,,-0.012962977,0.001851859,1,0,0,0.9992,0,99,99,50,1,stoom,images/br_stoom.png,images/cb_stoom.png,0,,,,,,,,,,,,,,,,,,,,,,
,,,,,,00113,2023-12-12_11h35.19.220,vbt_B2_day2,2022.2.4,Win32,60.33546519,,,,,,,,,,,,,,,,,,,,,,,,,,,down,0,0.4573,,-0.012962977,0.001851859,1,0,0,0.4828,0,100,100,33,1,vlek,images/br_vlek.png,images/cb_vlek.png,0,,,,,,,,,,,,,,,,,,,,,,
,,,,,,00113,2023-12-12_11h35.19.220,vbt_B2_day2,2022.2.4,Win32,60.33546519,,,,,,,,,,,,,,,,,,,,,,,,,,,down,0,6.27,,-0.012962977,0.001851859,1,0,0,1.0326,0,101,101,109,1,totaal,images/br_totaal.png,images/cb_totaal.png,0,,,,,,,,,,,,,,,,,,,,,,
,,,,,,00113,2023-12-12_11h35.19.220,vbt_B2_day2,2022.2.4,Win32,60.33546519,,,,,,,,,,,,,,,,,,,,,,,,,,,down,0,2.2849,,0.000925912,0.069444444,1,0,0,1.0159,0,102,102,17,1,taal,images/br_taal.png,images/cb_taal.png,1,taal,,,,,,,,,,,,,,,,,,,,,
,,,,,,00113,2023-12-12_11h35.19.220,vbt_B2_day2,2022.2.4,Win32,60.33546519,,,,,,,,,,,,,,,,,,,,,,,,,,,down,0,4.9336,,0.000925912,0.069444444,1,0,0,1.0658,0,103,103,117,1,kennis,images/br_kennis.png,images/cb_kennis.png,0,,,,,,,,,,,,,,,,,,,,,,
,,,,,,00113,2023-12-12_11h35.19.220,vbt_B2_day2,2022.2.4,Win32,60.33546519,,,,,,,,,,,,,,,,,,,,,,,,,,,down,0,4.8654,,0.000925912,0.069444444,1,0,0,0.716,0,104,104,9,1,hier,images/br_hier.png,images/cb_hier.png,0,,,,,,,,,,,,,,,,,,,,,,
,,,,,,00113,2023-12-12_11h35.19.220,vbt_B2_day2,2022.2.4,Win32,60.33546519,,,,,,,,,,,,,,,,,,,,,,,,,,,down,0,2.4521,,-0.021296254,0.010185171,1,0,0,1.2728,0,105,105,19,1,geit,images/br_geit.png,images/cb_geit.png,1,geit,,,,,,,,,,,,,,,,,,,,,
,,,,,,00113,2023-12-12_11h35.19.220,vbt_B2_day2,2022.2.4,Win32,60.33546519,,,,,,,,,,,,,,,,,,,,,,,,,,,down,0,7.6201,,-0.021296254,0.010185171,1,0,0,1.9481,0,106,106,110,1,zuster,images/br_zuster.png,images/cb_zuster.png,0,,,,,,,,,,,,,,,,,,,,,,
,,,,,,00113,2023-12-12_11h35.19.220,vbt_B2_day2,2022.2.4,Win32,60.33546519,,,,,,,,,,,,,,,,,,,,,,,,,,,down,0,8.6594,,-0.021296254,0.010185171,1,0,0,3.3637,0,107,107,126,1,kasteel,images/br_kasteel.png,images/cb_kasteel.png,0,,,,,,,,,,,,,,,,,,,,,,
,,,,,,00113,2023-12-12_11h35.19.220,vbt_B2_day2,2022.2.4,Win32,60.33546519,,,,,,,,,,,,,,,,,,,,,,,,,,,down,0,4.2984,,-0.021296254,0.010185171,1,0,0,0.9662,0,108,108,115,1,kleren,images/br_kleren.png,images/cb_kleren.png,0,,,,,,,,,,,,,,,,,,,,,,
,,,,,,00113,2023-12-12_11h35.19.220,vbt_B2_day2,2022.2.4,Win32,60.33546519,,,,,,,,,,,,,,,,,,,,,,,,,,,down,0,8.2637,,-0.021296254,0.010185171,1,0,0,2.4971,0,109,109,107,1,maling,images/br_maling.png,images/cb_maling.png,0,,,,,,,,,,,,,,,,,,,,,,
,,,,,,00113,2023-12-12_11h35.19.220,vbt_B2_day2,2022.2.4,Win32,60.33546519,,,,,,,,,,,,,,,,,,,,,,,,,,,down,0,12.3295,,-0.021296254,0.010185171,1,0,0,3.8827,0,110,110,30,1,uien,images/br_uien.png,images/cb_uien.png,0,,,,,,,,,,,,,,,,,,,,,,
,,,,,,00113,2023-12-12_11h35.19.220,vbt_B2_day2,2022.2.4,Win32,60.33546519,,,,,,,,,,,,,,,,,,,,,,,,,,,down,0,5.7283,,-0.021296254,0.010185171,1,0,0,0.9489,0,111,111,1,1,zaal,images/br_zaal.png,images/cb_zaal.png,0,,,,,,,,,,,,,,,,,,,,,,
,,,,,,00113,2023-12-12_11h35.19.220,vbt_B2_day2,2022.2.4,Win32,60.33546519,,,,,,,,,,,,,,,,,,,,,,,,,,,down,0,3.7184,,-0.021296254,0.010185171,1,0,0,0.9857,0,112,112,61,1,groen,images/br_groen.png,images/cb_groen.png,0,,,,,,,,,,,,,,,,,,,,,,
,,,,,,00113,2023-12-12_11h35.19.220,vbt_B2_day2,2022.2.4,Win32,60.33546519,,,,,,,,,,,,,,,,,,,,,,,,,,,down,0,11.8165,,-0.021296254,0.010185171,1,0,0,4.9785,0,113,113,153,1,vervoer,images/br_vervoer.png,images/cb_vervoer.png,0,,,,,,,,,,,,,,,,,,,,,,
,,,,,,00113,2023-12-12_11h35.19.220,vbt_B2_day2,2022.2.4,Win32,60.33546519,,,,,,,,,,,,,,,,,,,,,,,,,,,down,0,7.0965,,-0.021296254,0.010185171,1,0,0,0.6825,0,114,114,183,1,getuigen,images/br_getuigen.png,images/cb_getuigen.png,0,,,,,,,,,,,,,,,,,,,,,,
,,,,,,00113,2023-12-12_11h35.19.220,vbt_B2_day2,2022.2.4,Win32,60.33546519,,,,,,,,,,,,,,,,,,,,,,,,,,,down,0,18.4361,,-0.021296254,0.010185171,1,0,0,3.4139,0,115,115,85,1,heilig,images/br_heilig.png,images/cb_heilig.png,0,,,,,,,,,,,,,,,,,,,,,,
,,,,,,00113,2023-12-12_11h35.19.220,vbt_B2_day2,2022.2.4,Win32,60.33546519,,,,,,,,,,,,,,,,,,,,,,,,,,,down,0,2.7376,,-0.021296254,0.010185171,1,0,0,0.8877,0,116,116,70,1,ijdel,images/br_ijdel.png,images/cb_ijdel.png,0,,,,,,,,,,,,,,,,,,,,,,
,,,,,,00113,2023-12-12_11h35.19.220,vbt_B2_day2,2022.2.4,Win32,60.33546519,,,,,,,,,,,,,,,,,,,,,,,,,,,down,0,1.5385,,-0.021296254,0.010185171,1,0,0,0.616,0,117,117,22,1,stof,images/br_stof.png,images/cb_stof.png,0,,,,,,,,,,,,,,,,,,,,,,
,,,,,,00113,2023-12-12_11h35.19.220,vbt_B2_day2,2022.2.4,Win32,60.33546519,,,,,,,,,,,,,,,,,,,,,,,,,,,down,0,2.2987,,-0.021296254,0.010185171,1,0,0,0.8109,0,118,118,57,1,steek,images/br_steek.png,images/cb_steek.png,1,steek,,,,,,,,,,,,,,,,,,,,,
,,,,,,00113,2023-12-12_11h35.19.220,vbt_B2_day2,2022.2.4,Win32,60.33546519,,,,,,,,,,,,,,,,,,,,,,,,,,,down,0,14.4274,,-0.021296254,0.010185171,1,0,0,4.2294,0,119,119,74,1,graaf,images/br_graaf.png,images/cb_graaf.png,0,,,,,,,,,,,,,,,,,,,,,,
,,,,,,00113,2023-12-12_11h35.19.220,vbt_B2_day2,2022.2.4,Win32,60.33546519,,,,,,,,,,,,,,,,,,,,,,,,,,,down,0,11.8999,,-0.021296254,0.010185171,1,0,0,0.9833,0,120,120,177,1,maaltijd,images/br_maaltijd.png,images/cb_maaltijd.png,1,maaltijd,,,,,,,,,,,,,,,,,,,,,
,,,,,,00113,2023-12-12_11h35.19.220,vbt_B2_day2,2022.2.4,Win32,60.33546519,,,,,,,,,,,,,,,,,,,,,,,,,,,down,0,5.3565,,-0.021296254,0.010185171,1,0,0,0.8933,0,121,121,40,1,schep,images/br_schep.png,images/cb_schep.png,0,,,,,,,,,,,,,,,,,,,,,,
,,,,,,00113,2023-12-12_11h35.19.220,vbt_B2_day2,2022.2.4,Win32,60.33546519,,,,,,,,,,,,,,,,,,,,,,,,,,,down,0,1.875,,-0.021296254,0.010185171,1,0,0,0.6491,0,122,122,12,1,kust,images/br_kust.png,images/cb_kust.png,0,,,,,,,,,,,,,,,,,,,,,,
,,,,,,00113,2023-12-12_11h35.19.220,vbt_B2_day2,2022.2.4,Win32,60.33546519,,,,,,,,,,,,,,,,,,,,,,,,,,,down,0,12.7425,,-0.021296254,0.010185171,1,0,0,2.0818,0,123,123,162,1,uitdelen,images/br_uitdelen.png,images/cb_uitdelen.png,0,,,,,,,,,,,,,,,,,,,,,,
,,,,,,00113,2023-12-12_11h35.19.220,vbt_B2_day2,2022.2.4,Win32,60.33546519,,,,,,,,,,,,,,,,,,,,,,,,,,,down,0,14.421,,-0.021296254,0.010185171,1,0,0,1.0987,0,124,124,142,1,snuiven,images/br_snuiven.png,images/cb_snuiven.png,0,,,,,,,,,,,,,,,,,,,,,,
,,,,,,00113,2023-12-12_11h35.19.220,vbt_B2_day2,2022.2.4,Win32,60.33546519,,,,,,,,,,,,,,,,,,,,,,,,,,,down,0,6.5373,,-0.021296254,0.010185171,1,0,0,0.6661,0,125,125,104,1,zweven,images/br_zweven.png,images/cb_zweven.png,0,,,,,,,,,,,,,,,,,,,,,,
,,,,,,00113,2023-12-12_11h35.19.220,vbt_B2_day2,2022.2.4,Win32,60.33546519,,,,,,,,,,,,,,,,,,,,,,,,,,,down,0,6.1264,,-0.021296254,0.010185171,1,0,0,0.5603,0,126,126,97,1,loyaal,images/br_loyaal.png,images/cb_loyaal.png,1,loyaal,,,,,,,,,,,,,,,,,,,,,
,,,,,,00113,2023-12-12_11h35.19.220,vbt_B2_day2,2022.2.4,Win32,60.33546519,,,,,,,,,,,,,,,,,,,,,,,,,,,down,0,7.2041,,-0.021296254,0.010185171,1,0,0,1.0661,0,127,127,66,1,lever,images/br_lever.png,images/cb_lever.png,0,,,,,,,,,,,,,,,,,,,,,,
,,,,,,00113,2023-12-12_11h35.19.220,vbt_B2_day2,2022.2.4,Win32,60.33546519,,,,,,,,,,,,,,,,,,,,,,,,,,,down,0,0.7659,,-0.021296254,0.010185171,1,0,0,0.5094,0,128,128,123,1,hiervan,images/br_hiervan.png,images/cb_hiervan.png,0,,,,,,,,,,,,,,,,,,,,,,
,,,,,,00113,2023-12-12_11h35.19.220,vbt_B2_day2,2022.2.4,Win32,60.33546519,,,,,,,,,,,,,,,,,,,,,,,,,,,down,0,5.4931,,-0.021296254,0.010185171,1,0,0,4.6801,0,129,129,149,1,redding,images/br_redding.png,images/cb_redding.png,0,,,,,,,,,,,,,,,,,,,,,,
,,,,,,00113,2023-12-12_11h35.19.220,vbt_B2_day2,2022.2.4,Win32,60.33546519,,,,,,,,,,,,,,,,,,,,,,,,,,,down,0,4.8707,,0.037037037,-0.01203703,1,0,0,5.9944,0,130,130,14,1,rijp,images/br_rijp.png,images/cb_rijp.png,0,,,,,,,,,,,,,,,,,,,,,,
,,,,,,00113,2023-12-12_11h35.19.220,vbt_B2_day2,2022.2.4,Win32,60.33546519,,,,,,,,,,,,,,,,,,,,,,,,,,,down,0,9.3903,,0.083333333,-0.039814808,1,0,0,7.677,0,131,131,157,1,uitlaat,images/br_uitlaat.png,images/cb_uitlaat.png,0,,,,,,,,,,,,,,,,,,,,,,
,,,,,,00113,2023-12-12_11h35.19.220,vbt_B2_day2,2022.2.4,Win32,60.33546519,,,,,,,,,,,,,,,,,,,,,,,,,,,down,0,8.6813,,0.083333333,-0.039814808,1,0,0,6.1966,0,132,132,188,1,strekken,images/br_strekken.png,images/cb_strekken.png,0,,,,,,,,,,,,,,,,,,,,,,
,,,,,,00113,2023-12-12_11h35.19.220,vbt_B2_day2,2022.2.4,Win32,60.33546519,,,,,,,,,,,,,,,,,,,,,,,,,,,down,0,4.7146,,0.083333333,-0.039814808,1,0,0,0.5488,0,133,133,150,1,gegeven,images/br_gegeven.png,images/cb_gegeven.png,0,,,,,,,,,,,,,,,,,,,,,,
,,,,,,00113,2023-12-12_11h35.19.220,vbt_B2_day2,2022.2.4,Win32,60.33546519,,,,,,,,,,,,,,,,,,,,,,,,,,,down,0,4.9526,,0.083333333,-0.039814808,1,0,0,1.1651,0,134,134,15,1,soda,images/br_soda.png,images/cb_soda.png,0,,,,,,,,,,,,,,,,,,,,,,
,,,,,,00113,2023-12-12_11h35.19.220,vbt_B2_day2,2022.2.4,Win32,60.33546519,,,,,,,,,,,,,,,,,,,,,,,,,,,down,0,8.676,,0.083333333,-0.039814808,1,0,0,1.5817,0,135,135,132,1,grappen,images/br_grappen.png,images/cb_grappen.png,0,,,,,,,,,,,,,,,,,,,,,,
,,,,,,00113,2023-12-12_11h35.19.220,vbt_B2_day2,2022.2.4,Win32,60.33546519,,,,,,,,,,,,,,,,,,,,,,,,,,,down,0,2.988,,0.083333333,-0.039814808,1,0,0,1.4819,0,136,136,68,1,schat,images/br_schat.png,images/cb_schat.png,0,,,,,,,,,,,,,,,,,,,,,,
,,,,,,00113,2023-12-12_11h35.19.220,vbt_B2_day2,2022.2.4,Win32,60.33546519,,,,,,,,,,,,,,,,,,,,,,,,,,,down,0,6.0773,,0.083333333,-0.039814808,1,0,0,0.7499,0,137,137,88,1,boeien,images/br_boeien.png,images/cb_boeien.png,0,,,,,,,,,,,,,,,,,,,,,,
,,,,,,00113,2023-12-12_11h35.19.220,vbt_B2_day2,2022.2.4,Win32,60.33546519,,,,,,,,,,,,,,,,,,,,,,,,,,,down,0,0.9263,,0.083333333,-0.039814808,1,0,0,0.6161,0,138,138,36,1,vuur,images/br_vuur.png,images/cb_vuur.png,0,,,,,,,,,,,,,,,,,,,,,,
,,,,,,00113,2023-12-12_11h35.19.220,vbt_B2_day2,2022.2.4,Win32,60.33546519,,,,,,,,,,,,,,,,,,,,,,,,,,,down,0,11.1882,,0.083333333,-0.039814808,1,0,0,0.4657,0,139,139,91,1,gezond,images/br_gezond.png,images/cb_gezond.png,0,,,,,,,,,,,,,,,,,,,,,,
,,,,,,00113,2023-12-12_11h35.19.220,vbt_B2_day2,2022.2.4,Win32,60.33546519,,,,,,,,,,,,,,,,,,,,,,,,,,,down,0,6.7827,,0.083333333,-0.039814808,1,0,0,1.1987,0,140,140,111,1,ticket,images/br_ticket.png,images/cb_ticket.png,0,,,,,,,,,,,,,,,,,,,,,,
,,,,,,00113,2023-12-12_11h35.19.220,vbt_B2_day2,2022.2.4,Win32,60.33546519,,,,,,,,,,,,,,,,,,,,,,,,,,,down,0,6.886,,0.083333333,-0.039814808,1,0,0,0.5334,0,141,141,81,1,dubbel,images/br_dubbel.png,images/cb_dubbel.png,0,,,,,,,,,,,,,,,,,,,,,,
,,,,,,00113,2023-12-12_11h35.19.220,vbt_B2_day2,2022.2.4,Win32,60.33546519,,,,,,,,,,,,,,,,,,,,,,,,,,,down,0,7.8349,,0.083333333,-0.039814808,1,0,0,0.7322,0,142,142,76,1,afval,images/br_afval.png,images/cb_afval.png,0,,,,,,,,,,,,,,,,,,,,,,
,,,,,,00113,2023-12-12_11h35.19.220,vbt_B2_day2,2022.2.4,Win32,60.33546519,,,,,,,,,,,,,,,,,,,,,,,,,,,down,0,4.6136,,0.083333333,-0.039814808,1,0,0,0.5595,0,143,143,197,1,spanning,images/br_spanning.png,images/cb_spanning.png,0,,,,,,,,,,,,,,,,,,,,,,
,,,,,,00113,2023-12-12_11h35.19.220,vbt_B2_day2,2022.2.4,Win32,60.33546519,,,,,,,,,,,,,,,,,,,,,,,,,,,down,0,3.339,,0.083333333,-0.039814808,1,0,0,1.6815,0,144,144,96,1,slagen,images/br_slagen.png,images/cb_slagen.png,1,slagen,,,,,,,,,,,,,,,,,,,,,
,,,,,,00113,2023-12-12_11h35.19.220,vbt_B2_day2,2022.2.4,Win32,60.33546519,,,,,,,,,,,,,,,,,,,,,,,,,,,down,0,4.6047,,0.083333333,-0.039814808,1,0,0,0.6992,0,145,145,49,1,laken,images/br_laken.png,images/cb_laken.png,0,,,,,,,,,,,,,,,,,,,,,,
,,,,,,00113,2023-12-12_11h35.19.220,vbt_B2_day2,2022.2.4,Win32,60.33546519,,,,,,,,,,,,,,,,,,,,,,,,,,,down,0,2.9004,,0.083333333,-0.039814808,1,0,0,0.7988,0,146,146,124,1,bloeien,images/br_bloeien.png,images/cb_bloeien.png,0,,,,,,,,,,,,,,,,,,,,,,
,,,,,,00113,2023-12-12_11h35.19.220,vbt_B2_day2,2022.2.4,Win32,60.33546519,,,,,,,,,,,,,,,,,,,,,,,,,,,down,0,3.4905,,0.083333333,-0.039814808,1,0,0,0.5324,0,147,147,82,1,muziek,images/br_muziek.png,images/cb_muziek.png,0,,,,,,,,,,,,,,,,,,,,,,
,,,,,,00113,2023-12-12_11h35.19.220,vbt_B2_day2,2022.2.4,Win32,60.33546519,,,,,,,,,,,,,,,,,,,,,,,,,,,down,0,6.8219,,0.083333333,-0.041666667,1,0,0,0.7655,0,148,148,27,1,dans,images/br_dans.png,images/cb_dans.png,0,,,,,,,,,,,,,,,,,,,,,,
,,,,,,00113,2023-12-12_11h35.19.220,vbt_B2_day2,2022.2.4,Win32,60.33546519,,,,,,,,,,,,,,,,,,,,,,,,,,,down,0,6.6849,,0.083333333,-0.041666667,1,0,0,1.0654,0,149,149,99,1,koffie,images/br_koffie.png,images/cb_koffie.png,1,koffie,,,,,,,,,,,,,,,,,,,,,
,,,,,,00113,2023-12-12_11h35.19.220,vbt_B2_day2,2022.2.4,Win32,60.33546519,,,,,,,,,,,,,,,,,,,,,,,,,,,down,0,10.4233,,0.083333333,-0.041666667,1,0,0,0.982,0,150,150,189,1,aanraden,images/br_aanraden.png,images/cb_aanraden.png,0,,,,,,,,,,,,,,,,,,,,,,
,,,,,,00113,2023-12-12_11h35.19.220,vbt_B2_day2,2022.2.4,Win32,60.33546519,,,,,,,,,,,,,,,,,,,,,,,,,,,down,0,8.379,,0.083333333,-0.041666667,1,0,0,1.432,0,151,151,92,1,geheim,images/br_geheim.png,images/cb_geheim.png,0,,,,,,,,,,,,,,,,,,,,,,
,,,,,,00113,2023-12-12_11h35.19.220,vbt_B2_day2,2022.2.4,Win32,60.33546519,,,,,,,,,,,,,,,,,,,,,,,,,,,down,0,2.6723,,0.083333333,-0.041666667,1,0,0,0.8327,0,152,152,102,1,legaal,images/br_legaal.png,images/cb_legaal.png,0,,,,,,,,,,,,,,,,,,,,,,
,,,,,,00113,2023-12-12_11h35.19.220,vbt_B2_day2,2022.2.4,Win32,60.33546519,,,,,,,,,,,,,,,,,,,,,,,,,,,down,0,2.9499,,0.083333333,-0.041666667,1,0,0,0.6325,0,153,153,60,1,jasje,images/br_jasje.png,images/cb_jasje.png,0,,,,,,,,,,,,,,,,,,,,,,
,,,,,,00113,2023-12-12_11h35.19.220,vbt_B2_day2,2022.2.4,Win32,60.33546519,,,,,,,,,,,,,,,,,,,,,,,,,,,down,0,3.7657,,0.083333333,-0.041666667,1,0,0,0.6542,0,154,154,87,1,toeval,images/br_toeval.png,images/cb_toeval.png,0,,,,,,,,,,,,,,,,,,,,,,
,,,,,,00113,2023-12-12_11h35.19.220,vbt_B2_day2,2022.2.4,Win32,60.33546519,,,,,,,,,,,,,,,,,,,,,,,,,,,down,0,4.0631,,0.083333333,-0.041666667,1,0,0,0.4998,0,155,155,43,1,klauw,images/br_klauw.png,images/cb_klauw.png,0,,,,,,,,,,,,,,,,,,,,,,
,,,,,,00113,2023-12-12_11h35.19.220,vbt_B2_day2,2022.2.4,Win32,60.33546519,,,,,,,,,,,,,,,,,,,,,,,,,,,down,0,3.0493,,0.083333333,-0.041666667,1,0,0,0.5989,0,156,156,51,1,samen,images/br_samen.png,images/cb_samen.png,0,,,,,,,,,,,,,,,,,,,,,,
,,,,,,00113,2023-12-12_11h35.19.220,vbt_B2_day2,2022.2.4,Win32,60.33546519,,,,,,,,,,,,,,,,,,,,,,,,,,,down,0,0.951,,0.083333333,-0.041666667,1,0,0,0.4493,0,157,157,103,1,joggen,images/br_joggen.png,images/cb_joggen.png,0,,,,,,,,,,,,,,,,,,,,,,
,,,,,,00113,2023-12-12_11h35.19.220,vbt_B2_day2,2022.2.4,Win32,60.33546519,,,,,,,,,,,,,,,,,,,,,,,,,,,down,0,2.3486,,0.083333333,-0.041666667,1,0,0,1.2493,0,158,158,56,1,traag,images/br_traag.png,images/cb_traag.png,1,traag,,,,,,,,,,,,,,,,,,,,,
,,,,,,00113,2023-12-12_11h35.19.220,vbt_B2_day2,2022.2.4,Win32,60.33546519,,,,,,,,,,,,,,,,,,,,,,,,,,,down,0,4.9808,,0.083333333,-0.041666667,1,0,0,2.8474,0,159,159,156,1,rechten,images/br_rechten.png,images/cb_rechten.png,0,,,,,,,,,,,,,,,,,,,,,,
,,,,,,00113,2023-12-12_11h35.19.220,vbt_B2_day2,2022.2.4,Win32,60.33546519,,,,,,,,,,,,,,,,,,,,,,,,,,,down,0,9.4853,,0.083333333,-0.041666667,1,0,0,5.295,0,160,160,95,1,vreten,images/br_vreten.png,images/cb_vreten.png,0,,,,,,,,,,,,,,,,,,,,,,
,,,,,,00113,2023-12-12_11h35.19.220,vbt_B2_day2,2022.2.4,Win32,60.33546519,,,,,,,,,,,,,,,,,,,,,,,,,,,down,0,6.7803,,0.083333333,-0.041666667,1,0,0,0.6664,0,161,161,108,1,excuus,images/br_excuus.png,images/cb_excuus.png,0,,,,,,,,,,,,,,,,,,,,,,
,,,,,,00113,2023-12-12_11h35.19.220,vbt_B2_day2,2022.2.4,Win32,60.33546519,,,,,,,,,,,,,,,,,,,,,,,,,,,down,0,11.6591,,0.083333333,-0.041666667,1,0,0,0.9645,0,162,162,127,1,doodmoe,images/br_doodmoe.png,images/cb_doodmoe.png,0,,,,,,,,,,,,,,,,,,,,,,
,,,,,,00113,2023-12-12_11h35.19.220,vbt_B2_day2,2022.2.4,Win32,60.33546519,,,,,,,,,,,,,,,,,,,,,,,,,,,down,0,4.3659,,0.083333333,-0.041666667,1,0,0,0.4999,0,163,163,80,1,kanjer,images/br_kanjer.png,images/cb_kanjer.png,0,,,,,,,,,,,,,,,,,,,,,,
,,,,,,00113,2023-12-12_11h35.19.220,vbt_B2_day2,2022.2.4,Win32,60.33546519,,,,,,,,,,,,,,,,,,,,,,,,,,,down,0,2.7069,,0.083333333,-0.041666667,1,0,0,0.6497,0,164,164,116,1,besmet,images/br_besmet.png,images/cb_besmet.png,0,,,,,,,,,,,,,,,,,,,,,,
,,,,,,00113,2023-12-12_11h35.19.220,vbt_B2_day2,2022.2.4,Win32,60.33546519,,,,,,,,,,,,,,,,,,,,,,,,,,,down,0,0.9922,,0.083333333,-0.041666667,1,0,0,0.4831,0,165,165,20,1,site,images/br_site.png,images/cb_site.png,0,,,,,,,,,,,,,,,,,,,,,,
,,,,,,00113,2023-12-12_11h35.19.220,vbt_B2_day2,2022.2.4,Win32,60.33546519,,,,,,,,,,,,,,,,,,,,,,,,,,,down,0,2.3064,,0.083333333,-0.041666667,1,0,0,0.318,0,166,166,148,1,smullen,images/br_smullen.png,images/cb_smullen.png,0,,,,,,,,,,,,,,,,,,,,,,
,,,,,,00113,2023-12-12_11h35.19.220,vbt_B2_day2,2022.2.4,Win32,60.33546519,,,,,,,,,,,,,,,,,,,,,,,,,,,down,0,1.6829,,0.083333333,-0.041666667,1,0,0,0.4654,0,167,167,46,1,jagen,images/br_jagen.png,images/cb_jagen.png,0,,,,,,,,,,,,,,,,,,,,,,
,,,,,,00113,2023-12-12_11h35.19.220,vbt_B2_day2,2022.2.4,Win32,60.33546519,,,,,,,,,,,,,,,,,,,,,,,,,,,down,0,3.3574,,0.083333333,-0.041666667,1,0,0,0.6808,0,168,168,144,1,eetlust,images/br_eetlust.png,images/cb_eetlust.png,0,,,,,,,,,,,,,,,,,,,,,,
,,,,,,00113,2023-12-12_11h35.19.220,vbt_B2_day2,2022.2.4,Win32,60.33546519,,,,,,,,,,,,,,,,,,,,,,,,,,,down,0,5.7901,,0.094444487,-0.050000014,1,0,0,0.6493,0,169,169,122,1,waarvan,images/br_waarvan.png,images/cb_waarvan.png,0,,,,,,,,,,,,,,,,,,,,,,
,,,,,,00113,2023-12-12_11h35.19.220,vbt_B2_day2,2022.2.4,Win32,60.33546519,,,,,,,,,,,,,,,,,,,,,,,,,,,down,0,3.8699,,0.094444487,-0.050000014,1,0,0,0.4655,0,170,170,75,1,snoep,images/br_snoep.png,images/cb_snoep.png,0,,,,,,,,,,,,,,,,,,,,,,
,,,,,,00113,2023-12-12_11h35.19.220,vbt_B2_day2,2022.2.4,Win32,60.33546519,,,,,,,,,,,,,,,,,,,,,,,,,,,down,0,2.2372,,0.094444487,-0.050000014,1,0,0,1.1488,0,171,171,78,1,leren,images/br_leren.png,images/cb_leren.png,0,,,,,,,,,,,,,,,,,,,,,,
,,,,,,00113,2023-12-12_11h35.19.220,vbt_B2_day2,2022.2.4,Win32,60.33546519,,,,,,,,,,,,,,,,,,,,,,,,,,,down,0,7.3773,,0.094444487,-0.050000014,1,0,0,1.9997,0,172,172,100,1,geduld,images/br_geduld.png,images/cb_geduld.png,0,,,,,,,,,,,,,,,,,,,,,,
,,,,,,00113,2023-12-12_11h35.19.220,vbt_B2_day2,2022.2.4,Win32,60.33546519,,,,,,,,,,,,,,,,,,,,,,,,,,,down,0,4.2495,,0.094444487,-0.050000014,1,0,0,0.7161,0,173,173,16,1,ziek,images/br_ziek.png,images/cb_ziek.png,1,ziek,,,,,,,,,,,,,,,,,,,,,
,,,,,,00113,2023-12-12_11h35.19.220,vbt_B2_day2,2022.2.4,Win32,60.33546519,,,,,,,,,,,,,,,,,,,,,,,,,,,down,0,0.8716,,0.094444487,-0.050000014,1,0,0,0.6991,0,174,174,180,1,openbaar,images/br_openbaar.png,images/cb_openbaar.png,0,,,,,,,,,,,,,,,,,,,,,,
,,,,,,00113,2023-12-12_11h35.19.220,vbt_B2_day2,2022.2.4,Win32,60.33546519,,,,,,,,,,,,,,,,,,,,,,,,,,,down,0,3.7039,,0.094444487,-0.050000014,1,0,0,0.8488,0,175,175,47,1,kabel,images/br_kabel.png,images/cb_kabel.png,0,,,,,,,,,,,,,,,,,,,,,,
,,,,,,00113,2023-12-12_11h35.19.220,vbt_B2_day2,2022.2.4,Win32,60.33546519,,,,,,,,,,,,,,,,,,,,,,,,,,,down,0,0.0009,,0.094444487,-0.050000014,1,0,0,1.6087,0,176,176,69,1,waken,images/br_waken.png,images/cb_waken.png,0,,,,,,,,,,,,,,,,,,,,,,
,,,,,,00113,2023-12-12_11h35.19.220,vbt_B2_day2,2022.2.4,Win32,60.33546519,,,,,,,,,,,,,,,,,,,,,,,,,,,down,0,0.5876,,0.094444487,-0.050000014,1,0,0,0.8164,0,177,177,112,1,lukken,images/br_lukken.png,images/cb_lukken.png,0,,,,,,,,,,,,,,,,,,,,,,
,,,,,,00113,2023-12-12_11h35.19.220,vbt_B2_day2,2022.2.4,Win32,60.33546519,,,,,,,,,,,,,,,,,,,,,,,,,,,down,0,7.7508,,0.094444487,-0.050000014,1,0,0,1.7495,0,178,178,194,1,driemaal,images/br_driemaal.png,images/cb_driemaal.png,0,,,,,,,,,,,,,,,,,,,,,,
,,,,,,00113,2023-12-12_11h35.19.220,vbt_B2_day2,2022.2.4,Win32,60.33546519,,,,,,,,,,,,,,,,,,,,,,,,,,,down,0,7.4973,,0.094444487,-0.050000014,1,0,0,0.699,0,179,179,152,1,afnemen,images/br_afnemen.png,images/cb_afnemen.png,0,,,,,,,,,,,,,,,,,,,,,,
,,,,,,00113,2023-12-12_11h35.19.220,vbt_B2_day2,2022.2.4,Win32,60.33546519,,,,,,,,,,,,,,,,,,,,,,,,,,,down,0,4.8008,,0.094444487,-0.050000014,1,0,0,0.6497,0,180,180,192,1,schaamte,images/br_schaamte.png,images/cb_schaamte.png,0,,,,,,,,,,,,,,,,,,,,,,
,,,,,,00113,2023-12-12_11h35.19.220,vbt_B2_day2,2022.2.4,Win32,60.33546519,,,,,,,,,,,,,,,,,,,,,,,,,,,down,0,3.0479,,0.092592593,-0.055555556,1,0,0,1.3318,0,181,181,90,1,geluid,images/br_geluid.png,images/cb_geluid.png,0,,,,,,,,,,,,,,,,,,,,,,
,,,,,,00113,2023-12-12_11h35.19.220,vbt_B2_day2,2022.2.4,Win32,60.33546519,,,,,,,,,,,,,,,,,,,,,,,,,,,down,0,5.3648,,0.092592593,-0.055555556,1,0,0,0.3996,0,182,182,119,1,liefje,images/br_liefje.png,images/cb_liefje.png,0,,,,,,,,,,,,,,,,,,,,,,
,,,,,,00113,2023-12-12_11h35.19.220,vbt_B2_day2,2022.2.4,Win32,60.33546519,,,,,,,,,,,,,,,,,,,,,,,,,,,down,0,7.399,,0.092592593,-0.055555556,1,0,0,0.3882,0,183,183,121,1,twijfel,images/br_twijfel.png,images/cb_twijfel.png,0,,,,,,,,,,,,,,,,,,,,,,
,,,,,,00113,2023-12-12_11h35.19.220,vbt_B2_day2,2022.2.4,Win32,60.33546519,,,,,,,,,,,,,,,,,,,,,,,,,,,down,0,8.1304,,0.092592593,-0.055555556,1,0,0,1.0826,0,184,184,59,1,kring,images/br_kring.png,images/cb_kring.png,1,kring,,,,,,,,,,,,,,,,,,,,,
,,,,,,00113,2023-12-12_11h35.19.220,vbt_B2_day2,2022.2.4,Win32,60.33546519,,,,,,,,,,,,,,,,,,,,,,,,,,,down,0,3.4144,,0.092592593,-0.055555556,1,0,0,0.5328,0,185,185,65,1,parel,images/br_parel.png,images/cb_parel.png,0,,,,,,,,,,,,,,,,,,,,,,
,,,,,,00113,2023-12-12_11h35.19.220,vbt_B2_day2,2022.2.4,Win32,60.33546519,,,,,,,,,,,,,,,,,,,,,,,,,,,down,0,1.37,,0.092592593,-0.055555556,1,0,0,2.1478,0,186,186,154,1,aflopen,images/br_aflopen.png,images/cb_aflopen.png,0,,,,,,,,,,,,,,,,,,,,,,
,,,,,,00113,2023-12-12_11h35.19.220,vbt_B2_day2,2022.2.4,Win32,60.33546519,,,,,,,,,,,,,,,,,,,,,,,,,,,down,0,1.1556,,0.092592593,-0.055555556,1,0,0,2.481,0,187,187,169,1,oprotten,images/br_oprotten.png,images/cb_oprotten.png,0,,,,,,,,,,,,,,,,,,,,,,
,,,,,,00113,2023-12-12_11h35.19.220,vbt_B2_day2,2022.2.4,Win32,60.33546519,,,,,,,,,,,,,,,,,,,,,,,,,,,down,0,1.9561,,0.092592593,-0.055555556,1,0,0,1.0825,0,188,188,41,1,maken,images/br_maken.png,images/cb_maken.png,0,,,,,,,,,,,,,,,,,,,,,,
,,,,,,00113,2023-12-12_11h35.19.220,vbt_B2_day2,2022.2.4,Win32,60.33546519,,,,,,,,,,,,,,,,,,,,,,,,,,,down,0,1.8651,,0.092592593,-0.056481503,1,0,0,0.9388,0,189,189,72,1,strak,images/br_strak.png,images/cb_strak.png,0,,,,,,,,,,,,,,,,,,,,,,
,,,,,,00113,2023-12-12_11h35.19.220,vbt_B2_day2,2022.2.4,Win32,60.33546519,,,,,,,,,,,,,,,,,,,,,,,,,,,down,0,0.1006,,0.092592593,-0.056481503,1,0,0,0.6662,0,190,190,13,1,kaal,images/br_kaal.png,images/cb_kaal.png,0,,,,,,,,,,,,,,,,,,,,,,
,,,,,,00113,2023-12-12_11h35.19.220,vbt_B2_day2,2022.2.4,Win32,60.33546519,,,,,,,,,,,,,,,,,,,,,,,,,,,down,0,6.761,,0.092592593,-0.056481503,1,0,0,1.6217,0,191,191,94,1,oceaan,images/br_oceaan.png,images/cb_oceaan.png,0,,,,,,,,,,,,,,,,,,,,,,
,,,,,,00113,2023-12-12_11h35.19.220,vbt_B2_day2,2022.2.4,Win32,60.33546519,,,,,,,,,,,,,,,,,,,,,,,,,,,down,0,5.1466,,0.092592593,-0.056481503,1,0,0,1.1662,0,192,192,170,1,schatten,images/br_schatten.png,images/cb_schatten.png,0,,,,,,,,,,,,,,,,,,,,,,
,,,,,,00113,2023-12-12_11h35.19.220,vbt_B2_day2,2022.2.4,Win32,60.33546519,,,,,,,,,,,,,,,,,,,,,,,,,,,down,0,5.2177,,0.092592593,-0.056481503,1,0,0,0.8979,0,193,193,118,1,vinger,images/br_vinger.png,images/cb_vinger.png,0,,,,,,,,,,,,,,,,,,,,,,
,,,,,,00113,2023-12-12_11h35.19.220,vbt_B2_day2,2022.2.4,Win32,60.33546519,,,,,,,,,,,,,,,,,,,,,,,,,,,down,0,3.224,,0.092592593,-0.056481503,1,0,0,1.4477,0,194,194,53,1,baron,images/br_baron.png,images/cb_baron.png,0,,,,,,,,,,,,,,,,,,,,,,
,,,,,,00113,2023-12-12_11h35.19.220,vbt_B2_day2,2022.2.4,Win32,60.33546519,,,,,,,,,,,,,,,,,,,,,,,,,,,down,0,2.6669,,0.092592593,-0.056481503,1,0,0,4.6622,0,195,195,38,1,baai,images/br_baai.png,images/cb_baai.png,0,,,,,,,,,,,,,,,,,,,,,,
,,,,,,00113,2023-12-12_11h35.19.220,vbt_B2_day2,2022.2.4,Win32,60.33546519,,,,,,,,,,,,,,,,,,,,,,,,,,,down,0,0.5701,,0.092592593,-0.056481503,1,0,0,0.8321,0,196,196,6,1,diep,images/br_diep.png,images/cb_diep.png,0,,,,,,,,,,,,,,,,,,,,,,
,,,,,,00113,2023-12-12_11h35.19.220,vbt_B2_day2,2022.2.4,Win32,60.33546519,,,,,,,,,,,,,,,,,,,,,,,,,,,down,0,0.9337,,0.092592593,-0.058333326,1,0,0,1.3653,0,197,197,64,1,wegen,images/br_wegen.png,images/cb_wegen.png,0,,,,,,,,,,,,,,,,,,,,,,
,,,,,,00113,2023-12-12_11h35.19.220,vbt_B2_day2,2022.2.4,Win32,60.33546519,,,,,,,,,,,,,,,,,,,,,,,,,,,down,0,7.1082,,0.092592593,-0.058333326,1,0,0,0.5877,0,198,198,164,1,anarchie,images/br_anarchie.png,images/cb_anarchie.png,0,,,,,,,,,,,,,,,,,,,,,,
,,,,,,00113,2023-12-12_11h35.19.220,vbt_B2_day2,2022.2.4,Win32,60.33546519,,,,,,,,,,,,,,,,,,,,,,,,,,,down,0,1.7582,,0.092592593,-0.058333326,1,0,0,1.0658,0,199,199,113,1,koppen,images/br_koppen.png,images/cb_koppen.png,0,,,,,,,,,,,,,,,,,,,,,,
,,,,,,00113,2023-12-12_11h35.19.220,vbt_B2_day2,2022.2.4,Win32,60.33546519,,,,,,,,,,,,,,,,,,,,,,,,,,,,,,,,,,,,,,,,,,,,,,,0.07685188,0.070370356,1,0,0,,,,,,,,,,,,,,,,
,,,,,,00113,2023-12-12_11h35.19.220,vbt_B2_day2,2022.2.4,Win32,60.33546519,,,,,,,,,,,,,,,,,,,,,,,,,,,,,,,,,,,,,,,,,,,,,,,,,,,,0.094444487,0.160185178,1,0,0,,,,,,,,,,,
,,,,,,00113,2023-12-12_11h35.19.220,vbt_B2_day2,2022.2.4,Win32,60.33546519,,,,,,,,,,,,,,,,,,,,,,,,,,,,,,,,,,,,,,,,,,welzijn,images/br_welzijn.png,images/cb_welzijn.png,,welnijn,,,,,,,,,,,0.014814801,-0.199999986,1,0,0,welnijn,0,0,0,52,1
,,,,,,00113,2023-12-12_11h35.19.220,vbt_B2_day2,2022.2.4,Win32,60.33546519,,,,,,,,,,,,,,,,,,,,,,,,,,,,,,,,,,,,,,,,,,jong,images/br_jong.png,images/cb_jong.png,,jong,,,,,,,,,,,0.050925926,-0.064814815,1,0,0,jong,0,1,1,43,1
,,,,,,00113,2023-12-12_11h35.19.220,vbt_B2_day2,2022.2.4,Win32,60.33546519,,,,,,,,,,,,,,,,,,,,,,,,,,,,,,,,,,,,,,,,,,moes,images/br_moes.png,images/cb_moes.png,,moes,,,,,,,,,,,0.050925926,-0.064814815,1,0,0,moes,0,2,2,0,1
,,,,,,00113,2023-12-12_11h35.19.220,vbt_B2_day2,2022.2.4,Win32,60.33546519,,,,,,,,,,,,,,,,,,,,,,,,,,,,,,,,,,,,,,,,,,doodmoe,images/br_doodmoe.png,images/cb_doodmoe.png,,doodmoe,,,,,,,,,,,0.050925926,-0.064814815,1,0,0,doodmoe,0,3,3,15,1
,,,,,,00113,2023-12-12_11h35.19.220,vbt_B2_day2,2022.2.4,Win32,60.33546519,,,,,,,,,,,,,,,,,,,,,,,,,,,,,,,,,,,,,,,,,,ophuimen,images/br_ophuimen.png,images/cb_ophuimen.png,,ophuimen,,,,,,,,,,,0.050925926,-0.064814815,1,0,0,ophuimen,0,4,4,36,1
,,,,,,00113,2023-12-12_11h35.19.220,vbt_B2_day2,2022.2.4,Win32,60.33546519,,,,,,,,,,,,,,,,,,,,,,,,,,,,,,,,,,,,,,,,,,toeval,images/br_toeval.png,images/cb_toeval.png,,toeval,,,,,,,,,,,0.050925926,-0.064814815,1,0,0,toeval,0,5,5,11,1
,,,,,,00113,2023-12-12_11h35.19.220,vbt_B2_day2,2022.2.4,Win32,60.33546519,,,,,,,,,,,,,,,,,,,,,,,,,,,,,,,,,,,,,,,,,,bloeien,images/br_bloeien.png,images/cb_bloeien.png,,bloeien,,,,,,,,,,,0.050925926,-0.064814815,1,0,0,bloeien,0,6,6,12,1
,,,,,,00113,2023-12-12_11h35.19.220,vbt_B2_day2,2022.2.4,Win32,60.33546519,,,,,,,,,,,,,,,,,,,,,,,,,,,,,,,,,,,,,,,,,,kijlen,images/br_kijlen.png,images/cb_kijlen.png,,kijlen,,,,,,,,,,,0.050925926,-0.064814815,1,0,0,kijlen,0,7,7,31,1
,,,,,,00113,2023-12-12_11h35.19.220,vbt_B2_day2,2022.2.4,Win32,60.33546519,,,,,,,,,,,,,,,,,,,,,,,,,,,,,,,,,,,,,,,,,,stes,images/br_stes.png,images/cb_stes.png,,stes,,,,,,,,,,,0.050925926,-0.064814815,1,0,0,stes,0,8,8,21,1
,,,,,,00113,2023-12-12_11h35.19.220,vbt_B2_day2,2022.2.4,Win32,60.33546519,,,,,,,,,,,,,,,,,,,,,,,,,,,,,,,,,,,,,,,,,,jagen,images/br_jagen.png,images/cb_jagen.png,,jtgen,,,,,,,,,,,0.050925926,-0.064814815,1,0,0,jtgen,0,9,9,6,1
,,,,,,00113,2023-12-12_11h35.19.220,vbt_B2_day2,2022.2.4,Win32,60.33546519,,,,,,,,,,,,,,,,,,,,,,,,,,,,,,,,,,,,,,,,,,kenzis,images/br_kenzis.png,images/cb_kenzis.png,,kenzes,,,,,,,,,,,0.050925926,-0.064814815,1,0,0,kenzes,0,10,10,30,1
,,,,,,00113,2023-12-12_11h35.19.220,vbt_B2_day2,2022.2.4,Win32,60.33546519,,,,,,,,,,,,,,,,,,,,,,,,,,,,,,,,,,,,,,,,,,breuk,images/br_breuk.png,images/cb_breuk.png,,bteuk,,,,,,,,,,,0.050925926,-0.064814815,1,0,0,bteuk,0,11,11,45,1
,,,,,,00113,2023-12-12_11h35.19.220,vbt_B2_day2,2022.2.4,Win32,60.33546519,,,,,,,,,,,,,,,,,,,,,,,,,,,,,,,,,,,,,,,,,,strikken,images/br_strikken.png,images/cb_strikken.png,,strikken,,,,,,,,,,,0.050925926,-0.064814815,1,0,0,strikken,0,12,12,18,1
,,,,,,00113,2023-12-12_11h35.19.220,vbt_B2_day2,2022.2.4,Win32,60.33546519,,,,,,,,,,,,,,,,,,,,,,,,,,,,,,,,,,,,,,,,,,remel,images/br_remel.png,images/cb_remel.png,,temel,,,,,,,,,,,0.050925926,-0.064814815,1,0,0,temel,0,13,13,25,1
,,,,,,00113,2023-12-12_11h35.19.220,vbt_B2_day2,2022.2.4,Win32,60.33546519,,,,,,,,,,,,,,,,,,,,,,,,,,,,,,,,,,,,,,,,,,diep,images/br_diep.png,images/cb_diep.png,,diep,,,,,,,,,,,0.050925926,-0.064814815,1,0,0,diep,0,14,14,2,1
,,,,,,00113,2023-12-12_11h35.19.220,vbt_B2_day2,2022.2.4,Win32,60.33546519,,,,,,,,,,,,,,,,,,,,,,,,,,,,,,,,,,,,,,,,,,aanvraag,images/br_aanvraag.png,images/cb_aanvraag.png,,aanvraag,,,,,,,,,,,0.050925926,-0.064814815,1,0,0,aanvraag,0,15,15,57,1
,,,,,,00113,2023-12-12_11h35.19.220,vbt_B2_day2,2022.2.4,Win32,60.33546519,,,,,,,,,,,,,,,,,,,,,,,,,,,,,,,,,,,,,,,,,,plannen,images/br_plannen.png,images/cb_plannen.png,,plannen,,,,,,,,,,,0.050925926,-0.064814815,1,0,0,plannen,0,16,16,55,1
,,,,,,00113,2023-12-12_11h35.19.220,vbt_B2_day2,2022.2.4,Win32,60.33546519,,,,,,,,,,,,,,,,,,,,,,,,,,,,,,,,,,,,,,,,,,thema,images/br_thema.png,images/cb_thema.png,,thema,,,,,,,,,,,0.050925926,-0.064814815,1,0,0,thema,0,17,17,47,1
,,,,,,00113,2023-12-12_11h35.19.220,vbt_B2_day2,2022.2.4,Win32,60.33546519,,,,,,,,,,,,,,,,,,,,,,,,,,,,,,,,,,,,,,,,,,trots,images/br_trots.png,images/cb_trots.png,,trots,,,,,,,,,,,0.050925926,-0.064814815,1,0,0,trots,0,18,18,44,1
,,,,,,00113,2023-12-12_11h35.19.220,vbt_B2_day2,2022.2.4,Win32,60.33546519,,,,,,,,,,,,,,,,,,,,,,,,,,,,,,,,,,,,,,,,,,krimmen,images/br_krimmen.png,images/cb_krimmen.png,,krimmen,,,,,,,,,,,0.050925926,-0.064814815,1,0,0,krimmen,0,19,19,35,1
,,,,,,00113,2023-12-12_11h35.19.220,vbt_B2_day2,2022.2.4,Win32,60.33546519,,,,,,,,,,,,,,,,,,,,,,,,,,,,,,,,,,,,,,,,,,sora,images/br_sora.png,images/cb_sora.png,,sora,,,,,,,,,,,0.050925926,-0.064814815,1,0,0,sora,0,20,20,22,1
,,,,,,00113,2023-12-12_11h35.19.220,vbt_B2_day2,2022.2.4,Win32,60.33546519,,,,,,,,,,,,,,,,,,,,,,,,,,,,,,,,,,,,,,,,,,negel,images/br_negel.png,images/cb_negel.png,,negel,,,,,,,,,,,0.050925926,-0.064814815,1,0,0,negel,0,21,21,24,1
,,,,,,00113,2023-12-12_11h35.19.220,vbt_B2_day2,2022.2.4,Win32,60.33546519,,,,,,,,,,,,,,,,,,,,,,,,,,,,,,,,,,,,,,,,,,heengeen,images/br_heengeen.png,images/cb_heengeen.png,,heengeen,,,,,,,,,,,0.050925926,-0.064814815,1,0,0,heengeen,0,22,22,38,1
,,,,,,00113,2023-12-12_11h35.19.220,vbt_B2_day2,2022.2.4,Win32,60.33546519,,,,,,,,,,,,,,,,,,,,,,,,,,,,,,,,,,,,,,,,,,systeem,images/br_systeem.png,images/cb_systeem.png,,systeem,,,,,,,,,,,0.050925926,-0.064814815,1,0,0,systeem,0,23,23,54,1
,,,,,,00113,2023-12-12_11h35.19.220,vbt_B2_day2,2022.2.4,Win32,60.33546519,,,,,,,,,,,,,,,,,,,,,,,,,,,,,,,,,,,,,,,,,,lurgen,images/br_lurgen.png,images/cb_lurgen.png,,lutgen,,,,,,,,,,,0.050925926,-0.064814815,1,0,0,lutgen,0,24,24,29,1
,,,,,,00113,2023-12-12_11h35.19.220,vbt_B2_day2,2022.2.4,Win32,60.33546519,,,,,,,,,,,,,,,,,,,,,,,,,,,,,,,,,,,,,,,,,,koorts,images/br_koorts.png,images/cb_koorts.png,,koorts,,,,,,,,,,,0.050925926,-0.064814815,1,0,0,koorts,0,25,25,50,1
,,,,,,00113,2023-12-12_11h35.19.220,vbt_B2_day2,2022.2.4,Win32,60.33546519,,,,,,,,,,,,,,,,,,,,,,,,,,,,,,,,,,,,,,,,,,clan,images/br_clan.png,images/cb_clan.png,,slan,,,,,,,,,,,0.050925926,-0.064814815,1,0,0,slan,0,26,26,40,1
,,,,,,00113,2023-12-12_11h35.19.220,vbt_B2_day2,2022.2.4,Win32,60.33546519,,,,,,,,,,,,,,,,,,,,,,,,,,,,,,,,,,,,,,,,,,dode,images/br_dode.png,images/cb_dode.png,,dode,,,,,,,,,,,0.050925926,-0.064814815,1,0,0,dode,0,27,27,41,1
,,,,,,00113,2023-12-12_11h35.19.220,vbt_B2_day2,2022.2.4,Win32,60.33546519,,,,,,,,,,,,,,,,,,,,,,,,,,,,,,,,,,,,,,,,,,geld,images/br_geld.png,images/cb_geld.png,,geld,,,,,,,,,,,0.050925926,-0.064814815,1,0,0,geld,0,28,28,3,1
,,,,,,00113,2023-12-12_11h35.19.220,vbt_B2_day2,2022.2.4,Win32,60.33546519,,,,,,,,,,,,,,,,,,,,,,,,,,,,,,,,,,,,,,,,,,blad,images/br_blad.png,images/cb_blad.png,,blad,,,,,,,,,,,0.050925926,-0.064814815,1,0,0,blad,0,29,29,1,1
,,,,,,00113,2023-12-12_11h35.19.220,vbt_B2_day2,2022.2.4,Win32,60.33546519,,,,,,,,,,,,,,,,,,,,,,,,,,,,,,,,,,,,,,,,,,sjijfel,images/br_sjijfel.png,images/cb_sjijfel.png,,sjijfel,,,,,,,,,,,0.050925926,-0.064814815,1,0,0,sjijfel,0,30,30,33,1
,,,,,,00113,2023-12-12_11h35.19.220,vbt_B2_day2,2022.2.4,Win32,60.33546519,,,,,,,,,,,,,,,,,,,,,,,,,,,,,,,,,,,,,,,,,,agressie,images/br_agressie.png,images/cb_agressie.png,,agressie,,,,,,,,,,,0.050925926,-0.064814815,1,0,0,agressie,0,31,31,59,1
,,,,,,00113,2023-12-12_11h35.19.220,vbt_B2_day2,2022.2.4,Win32,60.33546519,,,,,,,,,,,,,,,,,,,,,,,,,,,,,,,,,,,,,,,,,,opdatten,images/br_opdatten.png,images/cb_opdatten.png,,opdatten,,,,,,,,,,,0.050925926,-0.064814815,1,0,0,opdatten,0,32,32,37,1
,,,,,,00113,2023-12-12_11h35.19.220,vbt_B2_day2,2022.2.4,Win32,60.33546519,,,,,,,,,,,,,,,,,,,,,,,,,,,,,,,,,,,,,,,,,,kasteel,images/br_kasteel.png,images/cb_kasteel.png,,kasteel,,,,,,,,,,,0.050925926,-0.064814815,1,0,0,kasteel,0,33,33,14,1
,,,,,,00113,2023-12-12_11h35.19.220,vbt_B2_day2,2022.2.4,Win32,60.33546519,,,,,,,,,,,,,,,,,,,,,,,,,,,,,,,,,,,,,,,,,,sifferd,images/br_sifferd.png,images/cb_sifferd.png,,sifferd,,,,,,,,,,,0.050925926,-0.064814815,1,0,0,sifferd,0,34,34,32,1
,,,,,,00113,2023-12-12_11h35.19.220,vbt_B2_day2,2022.2.4,Win32,60.33546519,,,,,,,,,,,,,,,,,,,,,,,,,,,,,,,,,,,,,,,,,,lijnen,images/br_lijnen.png,images/cb_lijnen.png,,lijnen,,,,,,,,,,,0.050925926,-0.064814815,1,0,0,lijnen,0,35,35,51,1
,,,,,,00113,2023-12-12_11h35.19.220,vbt_B2_day2,2022.2.4,Win32,60.33546519,,,,,,,,,,,,,,,,,,,,,,,,,,,,,,,,,,,,,,,,,,zwager,images/br_zwager.png,images/cb_zwager.png,,zwager,,,,,,,,,,,0.050925926,-0.064814815,1,0,0,zwager,0,36,36,49,1
,,,,,,00113,2023-12-12_11h35.19.220,vbt_B2_day2,2022.2.4,Win32,60.33546519,,,,,,,,,,,,,,,,,,,,,,,,,,,,,,,,,,,,,,,,,,manieren,images/br_manieren.png,images/cb_manieren.png,,manieren,,,,,,,,,,,0.050925926,-0.064814815,1,0,0,manieren,0,37,37,56,1
,,,,,,00113,2023-12-12_11h35.19.220,vbt_B2_day2,2022.2.4,Win32,60.33546519,,,,,,,,,,,,,,,,,,,,,,,,,,,,,,,,,,,,,,,,,,aanzien,images/br_aanzien.png,images/cb_aanzien.png,,aanzien,,,,,,,,,,,0.050925926,-0.064814815,1,0,0,aanzien,0,38,38,13,1
,,,,,,00113,2023-12-12_11h35.19.220,vbt_B2_day2,2022.2.4,Win32,60.33546519,,,,,,,,,,,,,,,,,,,,,,,,,,,,,,,,,,,,,,,,,,ningen,images/br_ningen.png,images/cb_ningen.png,,ningen,,,,,,,,,,,0.050925926,-0.064814815,1,0,0,ningen,0,39,39,28,1
,,,,,,00113,2023-12-12_11h35.19.220,vbt_B2_day2,2022.2.4,Win32,60.33546519,,,,,,,,,,,,,,,,,,,,,,,,,,,,,,,,,,,,,,,,,,tand,images/br_tand.png,images/cb_tand.png,,trend,,,,,,,,,,,0.050925926,-0.064814815,1,0,0,trend,0,40,40,42,1
,,,,,,00113,2023-12-12_11h35.19.220,vbt_B2_day2,2022.2.4,Win32,60.33546519,,,,,,,,,,,,,,,,,,,,,,,,,,,,,,,,,,,,,,,,,,kabel,images/br_kabel.png,images/cb_kabel.png,,kabel,,,,,,,,,,,0.050925926,-0.064814815,1,0,0,kabel,0,41,41,7,1
,,,,,,00113,2023-12-12_11h35.19.220,vbt_B2_day2,2022.2.4,Win32,60.33546519,,,,,,,,,,,,,,,,,,,,,,,,,,,,,,,,,,,,,,,,,,joes,images/br_joes.png,images/cb_joes.png,,joes,,,,,,,,,,,0.050925926,-0.064814815,1,0,0,joes,0,42,42,20,1
,,,,,,00113,2023-12-12_11h35.19.220,vbt_B2_day2,2022.2.4,Win32,60.33546519,,,,,,,,,,,,,,,,,,,,,,,,,,,,,,,,,,,,,,,,,,badon,images/br_badon.png,images/cb_badon.png,,baden,,,,,,,,,,,0.050925926,-0.064814815,1,0,0,baden,0,43,43,26,1
,,,,,,00113,2023-12-12_11h35.19.220,vbt_B2_day2,2022.2.4,Win32,60.33546519,,,,,,,,,,,,,,,,,,,,,,,,,,,,,,,,,,,,,,,,,,bereuwen,images/br_bereuwen.png,images/cb_bereuwen.png,,bireuwen,,,,,,,,,,,0.050925926,-0.064814815,1,0,0,bireuwen,0,44,44,39,1
,,,,,,00113,2023-12-12_11h35.19.220,vbt_B2_day2,2022.2.4,Win32,60.33546519,,,,,,,,,,,,,,,,,,,,,,,,,,,,,,,,,,,,,,,,,,zomers,images/br_zomers.png,images/cb_zomers.png,,zomers,,,,,,,,,,,0.050925926,-0.064814815,1,0,0,zomers,0,45,45,48,1
,,,,,,00113,2023-12-12_11h35.19.220,vbt_B2_day2,2022.2.4,Win32,60.33546519,,,,,,,,,,,,,,,,,,,,,,,,,,,,,,,,,,,,,,,,,,piste,images/br_piste.png,images/cb_piste.png,,piste,,,,,,,,,,,0.050925926,-0.064814815,1,0,0,piste,0,46,46,5,1
,,,,,,00113,2023-12-12_11h35.19.220,vbt_B2_day2,2022.2.4,Win32,60.33546519,,,,,,,,,,,,,,,,,,,,,,,,,,,,,,,,,,,,,,,,,,feestdag,images/br_feestdag.png,images/cb_feestdag.png,,peestdag,,,,,,,,,,,-0.054629644,-0.208333333,1,0,0,peestdag,0,47,47,17,1
,,,,,,00113,2023-12-12_11h35.19.220,vbt_B2_day2,2022.2.4,Win32,60.33546519,,,,,,,,,,,,,,,,,,,,,,,,,,,,,,,,,,,,,,,,,,flits,images/br_flits.png,images/cb_flits.png,,flits,,,,,,,,,,,-0.054629644,-0.208333333,1,0,0,flits,0,48,48,4,1
,,,,,,00113,2023-12-12_11h35.19.220,vbt_B2_day2,2022.2.4,Win32,60.33546519,,,,,,,,,,,,,,,,,,,,,,,,,,,,,,,,,,,,,,,,,,woning,images/br_woning.png,images/cb_woning.png,,woning,,,,,,,,,,,-0.016666624,-0.301851838,1,0,0,woning,0,49,49,10,1
,,,,,,00113,2023-12-12_11h35.19.220,vbt_B2_day2,2022.2.4,Win32,60.33546519,,,,,,,,,,,,,,,,,,,,,,,,,,,,,,,,,,,,,,,,,,goon,images/br_goon.png,images/cb_goon.png,,goon,,,,,,,,,,,-0.016666624,-0.301851838,1,0,0,goon,0,50,50,23,1
,,,,,,00113,2023-12-12_11h35.19.220,vbt_B2_day2,2022.2.4,Win32,60.33546519,,,,,,,,,,,,,,,,,,,,,,,,,,,,,,,,,,,,,,,,,,lokken,images/br_lokken.png,images/cb_lokken.png,,lokken,,,,,,,,,,,-0.016666624,-0.301851838,1,0,0,lokken,0,51,51,8,1
,,,,,,00113,2023-12-12_11h35.19.220,vbt_B2_day2,2022.2.4,Win32,60.33546519,,,,,,,,,,,,,,,,,,,,,,,,,,,,,,,,,,,,,,,,,,wijve,images/br_wijve.png,images/cb_wijve.png,,wijve,,,,,,,,,,,-0.016666624,-0.301851838,1,0,0,wijve,0,52,52,27,1
,,,,,,00113,2023-12-12_11h35.19.220,vbt_B2_day2,2022.2.4,Win32,60.33546519,,,,,,,,,,,,,,,,,,,,,,,,,,,,,,,,,,,,,,,,,,heilig,images/br_heilig.png,images/cb_heilig.png,,heileg,,,,,,,,,,,-0.016666624,-0.301851838,1,0,0,heileg,0,53,53,9,1
,,,,,,00113,2023-12-12_11h35.19.220,vbt_B2_day2,2022.2.4,Win32,60.33546519,,,,,,,,,,,,,,,,,,,,,,,,,,,,,,,,,,,,,,,,,,anarchie,images/br_anarchie.png,images/cb_anarchie.png,,anatchie,,,,,,,,,,,-0.016666624,-0.301851838,1,0,0,anatchie,0,54,54,16,1
,,,,,,00113,2023-12-12_11h35.19.220,vbt_B2_day2,2022.2.4,Win32,60.33546519,,,,,,,,,,,,,,,,,,,,,,,,,,,,,,,,,,,,,,,,,,zegel,images/br_zegel.png,images/cb_zegel.png,,zigel,,,,,,,,,,,-0.016666624,-0.301851838,1,0,0,zigel,0,55,55,46,1
,,,,,,00113,2023-12-12_11h35.19.220,vbt_B2_day2,2022.2.4,Win32,60.33546519,,,,,,,,,,,,,,,,,,,,,,,,,,,,,,,,,,,,,,,,,,prekken,images/br_prekken.png,images/cb_prekken.png,,prekken,,,,,,,,,,,-0.016666624,-0.301851838,1,0,0,prekken,0,56,56,34,1
,,,,,,00113,2023-12-12_11h35.19.220,vbt_B2_day2,2022.2.4,Win32,60.33546519,,,,,,,,,,,,,,,,,,,,,,,,,,,,,,,,,,,,,,,,,,tweeling,images/br_tweeling.png,images/cb_tweeling.png,,tweeling,,,,,,,,,,,-0.016666624,-0.301851838,1,0,0,tweeling,0,57,57,58,1
,,,,,,00113,2023-12-12_11h35.19.220,vbt_B2_day2,2022.2.4,Win32,60.33546519,,,,,,,,,,,,,,,,,,,,,,,,,,,,,,,,,,,,,,,,,,eenhoorn,images/br_eenhoorn.png,images/cb_eenhoorn.png,,eenhoorn,,,,,,,,,,,-0.016666624,-0.301851838,1,0,0,eenhoorn,0,58,58,19,1
,,,,,,00113,2023-12-12_11h35.19.220,vbt_B2_day2,2022.2.4,Win32,60.33546519,,,,,,,,,,,,,,,,,,,,,,,,,,,,,,,,,,,,,,,,,,inzicht,images/br_inzicht.png,images/cb_inzicht.png,,inzicht,,,,,,,,,,,-0.016666624,-0.301851838,1,0,0,inzicht,0,59,59,53,1
,,,,,,00113,2023-12-12_11h35.19.220,vbt_B2_day2,2022.2.4,Win32,60.33546519,,,,,,,,,,,,,,,,,,,,,,,,,,,,,,,,,,,,,,,,,,,,,,,,,,,,,,,,,,,,,,,,,,,
