welcome_mouse.x,welcome_mouse.y,welcome_mouse.leftButton,welcome_mouse.midButton,welcome_mouse.rightButton,welcome_mouse.time,"ID",date,expName,psychopyVersion,OS,frameRate,refresh_mouse.x,refresh_mouse.y,refresh_mouse.leftButton,refresh_mouse.midButton,refresh_mouse.rightButton,refresh_mouse.time,braille_mouse.x,braille_mouse.y,braille_mouse.leftButton,braille_mouse.midButton,braille_mouse.rightButton,braille_mouse.time,trials.thisRepN,trials.thisTrialN,trials.thisN,trials.thisIndex,trials.ran,nlLet,brLet,cbLet,trainInstr_mouse.x,trainInstr_mouse.y,trainInstr_mouse.leftButton,trainInstr_mouse.midButton,trainInstr_mouse.rightButton,trainInstr_mouse.time,translation_key.keys,translation_key.corr,translation_key.rt,word_rsp.text,word_mouse.x,word_mouse.y,word_mouse.leftButton,word_mouse.midButton,word_mouse.rightButton,word_mouse.time,train_loop.thisRepN,train_loop.thisTrialN,train_loop.thisN,train_loop.thisIndex,train_loop.ran,nlWrd,brWrd,cbWrd,test,testResp,mouse.x,mouse.y,mouse.leftButton,mouse.midButton,mouse.rightButton,testInstr_mouse.x,testInstr_mouse.y,testInstr_mouse.leftButton,testInstr_mouse.midButton,testInstr_mouse.rightButton,test_mouse.x,test_mouse.y,test_mouse.leftButton,test_mouse.midButton,test_mouse.rightButton,test_response.text,test_loop.thisRepN,test_loop.thisTrialN,test_loop.thisN,test_loop.thisIndex,test_loop.ran
0.139814801,-0.202777792,1,0,0,8.1186,00111,2023-12-07_17h56.35.842,vbt_B2_day2,2022.2.4,Win32,60.16485169,,,,,,,,,,,,,,,,,,,,,,,,,,,,,,,,,,,,,,,,,,,,,,,,,,,,,,,,,,,,,,,,,,,
,,,,,,00111,2023-12-07_17h56.35.842,vbt_B2_day2,2022.2.4,Win32,60.16485169,0.139814801,-0.202777792,1,0,0,5.336099999,,,,,,,,,,,,,,,,,,,,,,,,,,,,,,,,,,,,,,,,,,,,,,,,,,,,,,,,,,,,,
,,,,,,00111,2023-12-07_17h56.35.842,vbt_B2_day2,2022.2.4,Win32,60.16485169,,,,,,,0.139814801,-0.202777792,1,0,0,2.813,0,0,0,4,1,e,images/br_e.png,images/cb_e.png,,,,,,,,,,,,,,,,,,,,,,,,,,,,,,,,,,,,,,,,,,,,,,,
,,,,,,00111,2023-12-07_17h56.35.842,vbt_B2_day2,2022.2.4,Win32,60.16485169,,,,,,,0.139814801,-0.202777792,1,0,0,2.379700001,0,1,1,9,1,j,images/br_j.png,images/cb_j.png,,,,,,,,,,,,,,,,,,,,,,,,,,,,,,,,,,,,,,,,,,,,,,,
,,,,,,00111,2023-12-07_17h56.35.842,vbt_B2_day2,2022.2.4,Win32,60.16485169,,,,,,,0.139814801,-0.202777792,1,0,0,1.3343,0,2,2,13,1,n,images/br_n.png,images/cb_n.png,,,,,,,,,,,,,,,,,,,,,,,,,,,,,,,,,,,,,,,,,,,,,,,
,,,,,,00111,2023-12-07_17h56.35.842,vbt_B2_day2,2022.2.4,Win32,60.16485169,,,,,,,0.139814801,-0.202777792,1,0,0,3.277400001,0,3,3,22,1,w,images/br_w.png,images/cb_w.png,,,,,,,,,,,,,,,,,,,,,,,,,,,,,,,,,,,,,,,,,,,,,,,
,,,,,,00111,2023-12-07_17h56.35.842,vbt_B2_day2,2022.2.4,Win32,60.16485169,,,,,,,0.139814801,-0.202777792,1,0,0,1.0652,0,4,4,6,1,g,images/br_g.png,images/cb_g.png,,,,,,,,,,,,,,,,,,,,,,,,,,,,,,,,,,,,,,,,,,,,,,,
,,,,,,00111,2023-12-07_17h56.35.842,vbt_B2_day2,2022.2.4,Win32,60.16485169,,,,,,,0.139814801,-0.202777792,1,0,0,1.598,0,5,5,17,1,r,images/br_r.png,images/cb_r.png,,,,,,,,,,,,,,,,,,,,,,,,,,,,,,,,,,,,,,,,,,,,,,,
,,,,,,00111,2023-12-07_17h56.35.842,vbt_B2_day2,2022.2.4,Win32,60.16485169,,,,,,,0.139814801,-0.202777792,1,0,0,3.2451,0,6,6,11,1,l,images/br_l.png,images/cb_l.png,,,,,,,,,,,,,,,,,,,,,,,,,,,,,,,,,,,,,,,,,,,,,,,
,,,,,,00111,2023-12-07_17h56.35.842,vbt_B2_day2,2022.2.4,Win32,60.16485169,,,,,,,0.139814801,-0.202777792,1,0,0,2.4993,0,7,7,7,1,h,images/br_h.png,images/cb_h.png,,,,,,,,,,,,,,,,,,,,,,,,,,,,,,,,,,,,,,,,,,,,,,,
,,,,,,00111,2023-12-07_17h56.35.842,vbt_B2_day2,2022.2.4,Win32,60.16485169,,,,,,,0.139814801,-0.202777792,1,0,0,1.4476,0,8,8,1,1,b,images/br_b.png,images/cb_b.png,,,,,,,,,,,,,,,,,,,,,,,,,,,,,,,,,,,,,,,,,,,,,,,
,,,,,,00111,2023-12-07_17h56.35.842,vbt_B2_day2,2022.2.4,Win32,60.16485169,,,,,,,0.139814801,-0.202777792,1,0,0,1.763700001,0,9,9,8,1,i,images/br_i.png,images/cb_i.png,,,,,,,,,,,,,,,,,,,,,,,,,,,,,,,,,,,,,,,,,,,,,,,
,,,,,,00111,2023-12-07_17h56.35.842,vbt_B2_day2,2022.2.4,Win32,60.16485169,,,,,,,0.139814801,-0.202777792,1,0,0,3.2176,0,10,10,3,1,d,images/br_d.png,images/cb_d.png,,,,,,,,,,,,,,,,,,,,,,,,,,,,,,,,,,,,,,,,,,,,,,,
,,,,,,00111,2023-12-07_17h56.35.842,vbt_B2_day2,2022.2.4,Win32,60.16485169,,,,,,,0.139814801,-0.202777792,1,0,0,0.9016,0,11,11,24,1,y,images/br_y.png,images/cb_y.png,,,,,,,,,,,,,,,,,,,,,,,,,,,,,,,,,,,,,,,,,,,,,,,
,,,,,,00111,2023-12-07_17h56.35.842,vbt_B2_day2,2022.2.4,Win32,60.16485169,,,,,,,0.139814801,-0.202777792,1,0,0,0.4658,0,12,12,5,1,f,images/br_f.png,images/cb_f.png,,,,,,,,,,,,,,,,,,,,,,,,,,,,,,,,,,,,,,,,,,,,,,,
,,,,,,00111,2023-12-07_17h56.35.842,vbt_B2_day2,2022.2.4,Win32,60.16485169,,,,,,,0.139814801,-0.202777792,1,0,0,1.102,0,13,13,16,1,q,images/br_q.png,images/cb_q.png,,,,,,,,,,,,,,,,,,,,,,,,,,,,,,,,,,,,,,,,,,,,,,,
,,,,,,00111,2023-12-07_17h56.35.842,vbt_B2_day2,2022.2.4,Win32,60.16485169,,,,,,,0.139814801,-0.202777792,1,0,0,2.496,0,14,14,12,1,m,images/br_m.png,images/cb_m.png,,,,,,,,,,,,,,,,,,,,,,,,,,,,,,,,,,,,,,,,,,,,,,,
,,,,,,00111,2023-12-07_17h56.35.842,vbt_B2_day2,2022.2.4,Win32,60.16485169,,,,,,,0.139814801,-0.202777792,1,0,0,2.08,0,15,15,25,1,z,images/br_z.png,images/cb_z.png,,,,,,,,,,,,,,,,,,,,,,,,,,,,,,,,,,,,,,,,,,,,,,,
,,,,,,00111,2023-12-07_17h56.35.842,vbt_B2_day2,2022.2.4,Win32,60.16485169,,,,,,,0.139814801,-0.202777792,1,0,0,2.2633,0,16,16,10,1,k,images/br_k.png,images/cb_k.png,,,,,,,,,,,,,,,,,,,,,,,,,,,,,,,,,,,,,,,,,,,,,,,
,,,,,,00111,2023-12-07_17h56.35.842,vbt_B2_day2,2022.2.4,Win32,60.16485169,,,,,,,0.139814801,-0.202777792,1,0,0,1.4306,0,17,17,23,1,x,images/br_x.png,images/cb_x.png,,,,,,,,,,,,,,,,,,,,,,,,,,,,,,,,,,,,,,,,,,,,,,,
,,,,,,00111,2023-12-07_17h56.35.842,vbt_B2_day2,2022.2.4,Win32,60.16485169,,,,,,,0.139814801,-0.202777792,1,0,0,1.231299999,0,18,18,14,1,o,images/br_o.png,images/cb_o.png,,,,,,,,,,,,,,,,,,,,,,,,,,,,,,,,,,,,,,,,,,,,,,,
,,,,,,00111,2023-12-07_17h56.35.842,vbt_B2_day2,2022.2.4,Win32,60.16485169,,,,,,,0.139814801,-0.202777792,1,0,0,0.5988,0,19,19,15,1,p,images/br_p.png,images/cb_p.png,,,,,,,,,,,,,,,,,,,,,,,,,,,,,,,,,,,,,,,,,,,,,,,
,,,,,,00111,2023-12-07_17h56.35.842,vbt_B2_day2,2022.2.4,Win32,60.16485169,,,,,,,0.139814801,-0.202777792,1,0,0,1.3312,0,20,20,2,1,c,images/br_c.png,images/cb_c.png,,,,,,,,,,,,,,,,,,,,,,,,,,,,,,,,,,,,,,,,,,,,,,,
,,,,,,00111,2023-12-07_17h56.35.842,vbt_B2_day2,2022.2.4,Win32,60.16485169,,,,,,,0.139814801,-0.202777792,1,0,0,0.9168,0,21,21,0,1,a,images/br_a.png,images/cb_a.png,,,,,,,,,,,,,,,,,,,,,,,,,,,,,,,,,,,,,,,,,,,,,,,
,,,,,,00111,2023-12-07_17h56.35.842,vbt_B2_day2,2022.2.4,Win32,60.16485169,,,,,,,0.139814801,-0.202777792,1,0,0,0.4995,0,22,22,18,1,s,images/br_s.png,images/cb_s.png,,,,,,,,,,,,,,,,,,,,,,,,,,,,,,,,,,,,,,,,,,,,,,,
,,,,,,00111,2023-12-07_17h56.35.842,vbt_B2_day2,2022.2.4,Win32,60.16485169,,,,,,,0.139814801,-0.202777792,1,0,0,1.0821,0,23,23,19,1,t,images/br_t.png,images/cb_t.png,,,,,,,,,,,,,,,,,,,,,,,,,,,,,,,,,,,,,,,,,,,,,,,
,,,,,,00111,2023-12-07_17h56.35.842,vbt_B2_day2,2022.2.4,Win32,60.16485169,,,,,,,0.139814801,-0.202777792,1,0,0,0.6744,0,24,24,20,1,u,images/br_u.png,images/cb_u.png,,,,,,,,,,,,,,,,,,,,,,,,,,,,,,,,,,,,,,,,,,,,,,,
,,,,,,00111,2023-12-07_17h56.35.842,vbt_B2_day2,2022.2.4,Win32,60.16485169,,,,,,,0.139814801,-0.202777792,1,0,0,0.1828,0,25,25,21,1,v,images/br_v.png,images/cb_v.png,,,,,,,,,,,,,,,,,,,,,,,,,,,,,,,,,,,,,,,,,,,,,,,
,,,,,,00111,2023-12-07_17h56.35.842,vbt_B2_day2,2022.2.4,Win32,60.16485169,,,,,,,,,,,,,,,,,,,,,0.315740797,0.041666667,1,0,0,27.3754,,,,,,,,,,,,,,,,,,,,,,,,,,,,,,,,,,,,,,,,,
,,,,,,00111,2023-12-07_17h56.35.842,vbt_B2_day2,2022.2.4,Win32,60.16485169,,,,,,,,,,,,,,,,,,,,,,,,,,,down,0,7.611,,0.315740797,0.041666667,1,0,0,2.2889,0,0,0,148,1,smullen,images/br_smullen.png,images/cb_smullen.png,0,,,,,,,,,,,,,,,,,,,,,,
,,,,,,00111,2023-12-07_17h56.35.842,vbt_B2_day2,2022.2.4,Win32,60.16485169,,,,,,,,,,,,,,,,,,,,,,,,,,,down,0,5.3828,,0.323148233,-0.052777785,1,0,0,4.3104,0,1,1,137,1,trekker,images/br_trekker.png,images/cb_trekker.png,1,trekken,,,,,,,,,,,,,,,,,,,,,
,,,,,,00111,2023-12-07_17h56.35.842,vbt_B2_day2,2022.2.4,Win32,60.16485169,,,,,,,,,,,,,,,,,,,,,,,,,,,down,0,8.3417,,0.323148233,-0.052777785,1,0,0,3.8109,0,2,2,67,1,zwart,images/br_zwart.png,images/cb_zwart.png,0,,,,,,,,,,,,,,,,,,,,,,
,,,,,,00111,2023-12-07_17h56.35.842,vbt_B2_day2,2022.2.4,Win32,60.16485169,,,,,,,,,,,,,,,,,,,,,,,,,,,down,0,3.1347,,0.323148233,-0.052777785,1,0,0,1.231299999,0,3,3,69,1,waken,images/br_waken.png,images/cb_waken.png,0,,,,,,,,,,,,,,,,,,,,,,
,,,,,,00111,2023-12-07_17h56.35.842,vbt_B2_day2,2022.2.4,Win32,60.16485169,,,,,,,,,,,,,,,,,,,,,,,,,,,down,0,25.4875,,0.323148233,-0.052777785,1,0,0,4.109599999,0,4,4,196,1,nakijken,images/br_nakijken.png,images/cb_nakijken.png,0,,,,,,,,,,,,,,,,,,,,,,
,,,,,,00111,2023-12-07_17h56.35.842,vbt_B2_day2,2022.2.4,Win32,60.16485169,,,,,,,,,,,,,,,,,,,,,,,,,,,down,0,3.3416,,0.323148233,-0.052777785,1,0,0,1.048299999,0,5,5,71,1,bever,images/br_bever.png,images/cb_bever.png,0,,,,,,,,,,,,,,,,,,,,,,
,,,,,,00111,2023-12-07_17h56.35.842,vbt_B2_day2,2022.2.4,Win32,60.16485169,,,,,,,,,,,,,,,,,,,,,,,,,,,down,0,6.099099999,,0.323148233,-0.052777785,1,0,0,1.0816,0,6,6,189,1,aanraden,images/br_aanraden.png,images/cb_aanraden.png,0,,,,,,,,,,,,,,,,,,,,,,
,,,,,,00111,2023-12-07_17h56.35.842,vbt_B2_day2,2022.2.4,Win32,60.16485169,,,,,,,,,,,,,,,,,,,,,,,,,,,down,0,2.7112,,0.323148233,-0.052777785,1,0,0,1.3218,0,7,7,73,1,volop,images/br_volop.png,images/cb_volop.png,0,,,,,,,,,,,,,,,,,,,,,,
,,,,,,00111,2023-12-07_17h56.35.842,vbt_B2_day2,2022.2.4,Win32,60.16485169,,,,,,,,,,,,,,,,,,,,,,,,,,,down,0,1.815,,0.323148233,-0.052777785,1,0,0,0.666400001,0,8,8,11,1,mode,images/br_mode.png,images/cb_mode.png,0,,,,,,,,,,,,,,,,,,,,,,
,,,,,,00111,2023-12-07_17h56.35.842,vbt_B2_day2,2022.2.4,Win32,60.16485169,,,,,,,,,,,,,,,,,,,,,,,,,,,down,0,4.311,,0.323148233,-0.052777785,1,0,0,0.9824,0,9,9,59,1,kring,images/br_kring.png,images/cb_kring.png,1,kring,,,,,,,,,,,,,,,,,,,,,
,,,,,,00111,2023-12-07_17h56.35.842,vbt_B2_day2,2022.2.4,Win32,60.16485169,,,,,,,,,,,,,,,,,,,,,,,,,,,down,0,2.4665,,0.323148233,-0.052777785,1,0,0,0.998,0,10,10,16,1,ziek,images/br_ziek.png,images/cb_ziek.png,1,ziek,,,,,,,,,,,,,,,,,,,,,
,,,,,,00111,2023-12-07_17h56.35.842,vbt_B2_day2,2022.2.4,Win32,60.16485169,,,,,,,,,,,,,,,,,,,,,,,,,,,down,0,3.6348,,0.323148233,-0.052777785,1,0,0,3.6774,0,11,11,77,1,woede,images/br_woede.png,images/cb_woede.png,0,,,,,,,,,,,,,,,,,,,,,,
,,,,,,00111,2023-12-07_17h56.35.842,vbt_B2_day2,2022.2.4,Win32,60.16485169,,,,,,,,,,,,,,,,,,,,,,,,,,,down,0,4.6415,,0.323148233,-0.052777785,1,0,0,0.8077,0,12,12,120,1,klimmen,images/br_klimmen.png,images/cb_klimmen.png,0,,,,,,,,,,,,,,,,,,,,,,
,,,,,,00111,2023-12-07_17h56.35.842,vbt_B2_day2,2022.2.4,Win32,60.16485169,,,,,,,,,,,,,,,,,,,,,,,,,,,down,0,5.0947,,0.323148233,-0.052777785,1,0,0,1.4636,0,13,13,124,1,bloeien,images/br_bloeien.png,images/cb_bloeien.png,0,,,,,,,,,,,,,,,,,,,,,,
,,,,,,00111,2023-12-07_17h56.35.842,vbt_B2_day2,2022.2.4,Win32,60.16485169,,,,,,,,,,,,,,,,,,,,,,,,,,,down,0,2.5817,,0.323148233,-0.052777785,1,0,0,0.8895,0,14,14,103,1,joggen,images/br_joggen.png,images/cb_joggen.png,0,,,,,,,,,,,,,,,,,,,,,,
,,,,,,00111,2023-12-07_17h56.35.842,vbt_B2_day2,2022.2.4,Win32,60.16485169,,,,,,,,,,,,,,,,,,,,,,,,,,,down,0,1.9657,,0.323148233,-0.052777785,1,0,0,1.1167,0,15,15,84,1,lokken,images/br_lokken.png,images/cb_lokken.png,0,,,,,,,,,,,,,,,,,,,,,,
,,,,,,00111,2023-12-07_17h56.35.842,vbt_B2_day2,2022.2.4,Win32,60.16485169,,,,,,,,,,,,,,,,,,,,,,,,,,,down,0,4.094599999,,0.394444501,0.027777778,1,0,0,7.304599999,0,16,16,58,1,tekst,images/br_tekst.png,images/cb_tekst.png,1,tekst,,,,,,,,,,,,,,,,,,,,,
,,,,,,00111,2023-12-07_17h56.35.842,vbt_B2_day2,2022.2.4,Win32,60.16485169,,,,,,,,,,,,,,,,,,,,,,,,,,,down,0,1.8358,,0.394444501,0.027777778,1,0,0,0.7988,0,17,17,46,1,jagen,images/br_jagen.png,images/cb_jagen.png,0,,,,,,,,,,,,,,,,,,,,,,
,,,,,,00111,2023-12-07_17h56.35.842,vbt_B2_day2,2022.2.4,Win32,60.16485169,,,,,,,,,,,,,,,,,,,,,,,,,,,down,0,3.709099999,,0.394444501,0.027777778,1,0,0,0.6848,0,18,18,82,1,muziek,images/br_muziek.png,images/cb_muziek.png,0,,,,,,,,,,,,,,,,,,,,,,
,,,,,,00111,2023-12-07_17h56.35.842,vbt_B2_day2,2022.2.4,Win32,60.16485169,,,,,,,,,,,,,,,,,,,,,,,,,,,down,0,5.2124,,0.394444501,0.027777778,1,0,0,0.7834,0,19,19,192,1,schaamte,images/br_schaamte.png,images/cb_schaamte.png,0,,,,,,,,,,,,,,,,,,,,,,
,,,,,,00111,2023-12-07_17h56.35.842,vbt_B2_day2,2022.2.4,Win32,60.16485169,,,,,,,,,,,,,,,,,,,,,,,,,,,down,0,5.5232,,0.394444501,0.027777778,1,0,0,1.0312,0,20,20,147,1,komisch,images/br_komisch.png,images/cb_komisch.png,0,,,,,,,,,,,,,,,,,,,,,,
,,,,,,00111,2023-12-07_17h56.35.842,vbt_B2_day2,2022.2.4,Win32,60.16485169,,,,,,,,,,,,,,,,,,,,,,,,,,,down,0,0.4829,,0.394444501,0.027777778,1,0,0,0.8899,0,21,21,1,1,zaal,images/br_zaal.png,images/cb_zaal.png,0,,,,,,,,,,,,,,,,,,,,,,
,,,,,,00111,2023-12-07_17h56.35.842,vbt_B2_day2,2022.2.4,Win32,60.16485169,,,,,,,,,,,,,,,,,,,,,,,,,,,down,0,4.4236,,0.394444501,0.027777778,1,0,0,1.2272,0,22,22,116,1,besmet,images/br_besmet.png,images/cb_besmet.png,0,,,,,,,,,,,,,,,,,,,,,,
,,,,,,00111,2023-12-07_17h56.35.842,vbt_B2_day2,2022.2.4,Win32,60.16485169,,,,,,,,,,,,,,,,,,,,,,,,,,,down,0,0.183799999,,0.394444501,0.027777778,1,0,0,0.8135,0,23,23,28,1,stal,images/br_stal.png,images/cb_stal.png,0,,,,,,,,,,,,,,,,,,,,,,
,,,,,,00111,2023-12-07_17h56.35.842,vbt_B2_day2,2022.2.4,Win32,60.16485169,,,,,,,,,,,,,,,,,,,,,,,,,,,down,0,0.8842,,0.394444501,0.027777778,1,0,0,0.620799999,0,24,24,89,1,slapen,images/br_slapen.png,images/cb_slapen.png,0,,,,,,,,,,,,,,,,,,,,,,
,,,,,,00111,2023-12-07_17h56.35.842,vbt_B2_day2,2022.2.4,Win32,60.16485169,,,,,,,,,,,,,,,,,,,,,,,,,,,down,0,2.730900001,,0.394444501,0.027777778,1,0,0,0.992,0,25,25,81,1,dubbel,images/br_dubbel.png,images/cb_dubbel.png,0,,,,,,,,,,,,,,,,,,,,,,
,,,,,,00111,2023-12-07_17h56.35.842,vbt_B2_day2,2022.2.4,Win32,60.16485169,,,,,,,,,,,,,,,,,,,,,,,,,,,down,0,2.5516,,0.394444501,0.027777778,1,0,0,3.4811,0,26,26,188,1,strekken,images/br_strekken.png,images/cb_strekken.png,0,,,,,,,,,,,,,,,,,,,,,,
,,,,,,00111,2023-12-07_17h56.35.842,vbt_B2_day2,2022.2.4,Win32,60.16485169,,,,,,,,,,,,,,,,,,,,,,,,,,,down,0,2.2812,,0.394444501,0.027777778,1,0,0,1.9631,0,27,27,55,1,praat,images/br_praat.png,images/cb_praat.png,0,,,,,,,,,,,,,,,,,,,,,,
,,,,,,00111,2023-12-07_17h56.35.842,vbt_B2_day2,2022.2.4,Win32,60.16485169,,,,,,,,,,,,,,,,,,,,,,,,,,,down,0,0.3213,,0.394444501,0.027777778,1,0,0,0.7818,0,28,28,39,1,laag,images/br_laag.png,images/cb_laag.png,0,,,,,,,,,,,,,,,,,,,,,,
,,,,,,00111,2023-12-07_17h56.35.842,vbt_B2_day2,2022.2.4,Win32,60.16485169,,,,,,,,,,,,,,,,,,,,,,,,,,,down,0,0.489,,0.377777806,0.062037044,1,0,0,1.6638,0,29,29,48,1,steel,images/br_steel.png,images/cb_steel.png,0,,,,,,,,,,,,,,,,,,,,,,
,,,,,,00111,2023-12-07_17h56.35.842,vbt_B2_day2,2022.2.4,Win32,60.16485169,,,,,,,,,,,,,,,,,,,,,,,,,,,down,0,5.8577,,0.377777806,0.062037044,1,0,0,0.6987,0,30,30,172,1,weigeren,images/br_weigeren.png,images/cb_weigeren.png,0,,,,,,,,,,,,,,,,,,,,,,
,,,,,,00111,2023-12-07_17h56.35.842,vbt_B2_day2,2022.2.4,Win32,60.16485169,,,,,,,,,,,,,,,,,,,,,,,,,,,down,0,3.3977,,0.377777806,0.062037044,1,0,0,0.698599999,0,31,31,157,1,uitlaat,images/br_uitlaat.png,images/cb_uitlaat.png,0,,,,,,,,,,,,,,,,,,,,,,
,,,,,,00111,2023-12-07_17h56.35.842,vbt_B2_day2,2022.2.4,Win32,60.16485169,,,,,,,,,,,,,,,,,,,,,,,,,,,down,0,5.9455,,0.377777806,0.062037044,1,0,0,1.5983,0,32,32,180,1,openbaar,images/br_openbaar.png,images/cb_openbaar.png,0,,,,,,,,,,,,,,,,,,,,,,
,,,,,,00111,2023-12-07_17h56.35.842,vbt_B2_day2,2022.2.4,Win32,60.16485169,,,,,,,,,,,,,,,,,,,,,,,,,,,down,0,2.0809,,0.377777806,0.062037044,1,0,0,0.6985,0,33,33,36,1,vuur,images/br_vuur.png,images/cb_vuur.png,0,,,,,,,,,,,,,,,,,,,,,,
,,,,,,00111,2023-12-07_17h56.35.842,vbt_B2_day2,2022.2.4,Win32,60.16485169,,,,,,,,,,,,,,,,,,,,,,,,,,,down,0,1.279900001,,0.377777806,0.062037044,1,0,0,1.1693,0,34,34,9,1,hier,images/br_hier.png,images/cb_hier.png,0,,,,,,,,,,,,,,,,,,,,,,
,,,,,,00111,2023-12-07_17h56.35.842,vbt_B2_day2,2022.2.4,Win32,60.16485169,,,,,,,,,,,,,,,,,,,,,,,,,,,down,0,6.0466,,0.375,-0.025925919,1,0,0,2.2125,0,35,35,138,1,akkoord,images/br_akkoord.png,images/cb_akkoord.png,1,akkoord,,,,,,,,,,,,,,,,,,,,,
,,,,,,00111,2023-12-07_17h56.35.842,vbt_B2_day2,2022.2.4,Win32,60.16485169,,,,,,,,,,,,,,,,,,,,,,,,,,,down,0,4.2361,,0.375,-0.025925919,1,0,0,0.6325,0,36,36,15,1,soda,images/br_soda.png,images/cb_soda.png,0,,,,,,,,,,,,,,,,,,,,,,
,,,,,,00111,2023-12-07_17h56.35.842,vbt_B2_day2,2022.2.4,Win32,60.16485169,,,,,,,,,,,,,,,,,,,,,,,,,,,down,0,10.6212,,0.375,-0.025925919,1,0,0,1.947,0,37,37,131,1,opzicht,images/br_opzicht.png,images/cb_opzicht.png,0,,,,,,,,,,,,,,,,,,,,,,
,,,,,,00111,2023-12-07_17h56.35.842,vbt_B2_day2,2022.2.4,Win32,60.16485169,,,,,,,,,,,,,,,,,,,,,,,,,,,down,0,2.089,,0.375,-0.025925919,1,0,0,0.7355,0,38,38,42,1,bleek,images/br_bleek.png,images/cb_bleek.png,0,,,,,,,,,,,,,,,,,,,,,,
,,,,,,00111,2023-12-07_17h56.35.842,vbt_B2_day2,2022.2.4,Win32,60.16485169,,,,,,,,,,,,,,,,,,,,,,,,,,,down,0,4.076400001,,0.375,-0.025925919,1,0,0,1.2236,0,39,39,171,1,aarzelen,images/br_aarzelen.png,images/cb_aarzelen.png,0,,,,,,,,,,,,,,,,,,,,,,
,,,,,,00111,2023-12-07_17h56.35.842,vbt_B2_day2,2022.2.4,Win32,60.16485169,,,,,,,,,,,,,,,,,,,,,,,,,,,down,0,8.4687,,0.375,-0.025925919,1,0,0,0.675599999,0,40,40,176,1,techniek,images/br_techniek.png,images/cb_techniek.png,1,techniek,,,,,,,,,,,,,,,,,,,,,
,,,,,,00111,2023-12-07_17h56.35.842,vbt_B2_day2,2022.2.4,Win32,60.16485169,,,,,,,,,,,,,,,,,,,,,,,,,,,down,0,4.476599999,,0.375,-0.025925919,1,0,0,1.6618,0,41,41,134,1,geliefd,images/br_geliefd.png,images/cb_geliefd.png,0,,,,,,,,,,,,,,,,,,,,,,
,,,,,,00111,2023-12-07_17h56.35.842,vbt_B2_day2,2022.2.4,Win32,60.16485169,,,,,,,,,,,,,,,,,,,,,,,,,,,down,0,2.1712,,0.375,-0.025925919,1,0,0,0.5694,0,42,42,102,1,legaal,images/br_legaal.png,images/cb_legaal.png,0,,,,,,,,,,,,,,,,,,,,,,
,,,,,,00111,2023-12-07_17h56.35.842,vbt_B2_day2,2022.2.4,Win32,60.16485169,,,,,,,,,,,,,,,,,,,,,,,,,,,down,0,1.2365,,0.375,-0.025925919,1,0,0,0.483099999,0,43,43,66,1,lever,images/br_lever.png,images/cb_lever.png,0,,,,,,,,,,,,,,,,,,,,,,
,,,,,,00111,2023-12-07_17h56.35.842,vbt_B2_day2,2022.2.4,Win32,60.16485169,,,,,,,,,,,,,,,,,,,,,,,,,,,down,0,2.347,,0.375,-0.025925919,1,0,0,0.7351,0,44,44,47,1,kabel,images/br_kabel.png,images/cb_kabel.png,0,,,,,,,,,,,,,,,,,,,,,,
,,,,,,00111,2023-12-07_17h56.35.842,vbt_B2_day2,2022.2.4,Win32,60.16485169,,,,,,,,,,,,,,,,,,,,,,,,,,,down,0,4.9724,,0.375,-0.025925919,1,0,0,2.2286,0,45,45,70,1,ijdel,images/br_ijdel.png,images/cb_ijdel.png,0,,,,,,,,,,,,,,,,,,,,,,
,,,,,,00111,2023-12-07_17h56.35.842,vbt_B2_day2,2022.2.4,Win32,60.16485169,,,,,,,,,,,,,,,,,,,,,,,,,,,down,0,5.9587,,0.375,-0.025925919,1,0,0,1.5373,0,46,46,194,1,driemaal,images/br_driemaal.png,images/cb_driemaal.png,0,,,,,,,,,,,,,,,,,,,,,,
,,,,,,00111,2023-12-07_17h56.35.842,vbt_B2_day2,2022.2.4,Win32,60.16485169,,,,,,,,,,,,,,,,,,,,,,,,,,,down,0,10.2229,,0.375,-0.025925919,1,0,0,0.6042,0,47,47,107,1,maling,images/br_maling.png,images/cb_maling.png,0,,,,,,,,,,,,,,,,,,,,,,
,,,,,,00111,2023-12-07_17h56.35.842,vbt_B2_day2,2022.2.4,Win32,60.16485169,,,,,,,,,,,,,,,,,,,,,,,,,,,down,0,1.8542,,0.375,-0.025925919,1,0,0,0.5397,0,48,48,146,1,opkomen,images/br_opkomen.png,images/cb_opkomen.png,0,,,,,,,,,,,,,,,,,,,,,,
,,,,,,00111,2023-12-07_17h56.35.842,vbt_B2_day2,2022.2.4,Win32,60.16485169,,,,,,,,,,,,,,,,,,,,,,,,,,,down,0,4.91,,0.375,-0.025925919,1,0,0,0.754900001,0,49,49,161,1,attentie,images/br_attentie.png,images/cb_attentie.png,0,,,,,,,,,,,,,,,,,,,,,,
,,,,,,00111,2023-12-07_17h56.35.842,vbt_B2_day2,2022.2.4,Win32,60.16485169,,,,,,,,,,,,,,,,,,,,,,,,,,,down,0,1.9628,,0.375,-0.025925919,1,0,0,0.7319,0,50,50,3,1,mand,images/br_mand.png,images/cb_mand.png,0,,,,,,,,,,,,,,,,,,,,,,
,,,,,,00111,2023-12-07_17h56.35.842,vbt_B2_day2,2022.2.4,Win32,60.16485169,,,,,,,,,,,,,,,,,,,,,,,,,,,down,0,4.6521,,0.375,-0.025925919,1,0,0,0.8319,0,51,51,159,1,sufferd,images/br_sufferd.png,images/cb_sufferd.png,0,,,,,,,,,,,,,,,,,,,,,,
,,,,,,00111,2023-12-07_17h56.35.842,vbt_B2_day2,2022.2.4,Win32,60.16485169,,,,,,,,,,,,,,,,,,,,,,,,,,,down,0,0.4005,,0.375,-0.025925919,1,0,0,0.6807,0,52,52,0,1,slak,images/br_slak.png,images/cb_slak.png,0,,,,,,,,,,,,,,,,,,,,,,
,,,,,,00111,2023-12-07_17h56.35.842,vbt_B2_day2,2022.2.4,Win32,60.16485169,,,,,,,,,,,,,,,,,,,,,,,,,,,down,0,4.7821,,0.375,-0.025925919,1,0,0,2.0706,0,53,53,187,1,opkijken,images/br_opkijken.png,images/cb_opkijken.png,0,,,,,,,,,,,,,,,,,,,,,,
,,,,,,00111,2023-12-07_17h56.35.842,vbt_B2_day2,2022.2.4,Win32,60.16485169,,,,,,,,,,,,,,,,,,,,,,,,,,,down,0,2.478700001,,0.375,-0.025925919,1,0,0,0.5823,0,54,54,29,1,baas,images/br_baas.png,images/cb_baas.png,0,,,,,,,,,,,,,,,,,,,,,,
,,,,,,00111,2023-12-07_17h56.35.842,vbt_B2_day2,2022.2.4,Win32,60.16485169,,,,,,,,,,,,,,,,,,,,,,,,,,,down,0,2.946,,0.375,-0.025925919,1,0,0,2.8795,0,55,55,22,1,stof,images/br_stof.png,images/cb_stof.png,0,,,,,,,,,,,,,,,,,,,,,,
,,,,,,00111,2023-12-07_17h56.35.842,vbt_B2_day2,2022.2.4,Win32,60.16485169,,,,,,,,,,,,,,,,,,,,,,,,,,,down,0,6.9555,,0.375,-0.025925919,1,0,0,1.1316,0,56,56,183,1,getuigen,images/br_getuigen.png,images/cb_getuigen.png,0,,,,,,,,,,,,,,,,,,,,,,
,,,,,,00111,2023-12-07_17h56.35.842,vbt_B2_day2,2022.2.4,Win32,60.16485169,,,,,,,,,,,,,,,,,,,,,,,,,,,down,0,2.0975,,0.375,-0.025925919,1,0,0,1.6972,0,57,57,96,1,slagen,images/br_slagen.png,images/cb_slagen.png,1,slagen,,,,,,,,,,,,,,,,,,,,,
,,,,,,00111,2023-12-07_17h56.35.842,vbt_B2_day2,2022.2.4,Win32,60.16485169,,,,,,,,,,,,,,,,,,,,,,,,,,,down,0,3.8129,,0.375,-0.025925919,1,0,0,0.719,0,58,58,199,1,beseffen,images/br_beseffen.png,images/cb_beseffen.png,0,,,,,,,,,,,,,,,,,,,,,,
,,,,,,00111,2023-12-07_17h56.35.842,vbt_B2_day2,2022.2.4,Win32,60.16485169,,,,,,,,,,,,,,,,,,,,,,,,,,,down,0,4.012,,0.375,-0.025925919,1,0,0,0.649,0,59,59,76,1,afval,images/br_afval.png,images/cb_afval.png,0,,,,,,,,,,,,,,,,,,,,,,
,,,,,,00111,2023-12-07_17h56.35.842,vbt_B2_day2,2022.2.4,Win32,60.16485169,,,,,,,,,,,,,,,,,,,,,,,,,,,down,0,1.3644,,0.375,-0.025925919,1,0,0,1.1652,0,60,60,4,1,moes,images/br_moes.png,images/cb_moes.png,0,,,,,,,,,,,,,,,,,,,,,,
,,,,,,00111,2023-12-07_17h56.35.842,vbt_B2_day2,2022.2.4,Win32,60.16485169,,,,,,,,,,,,,,,,,,,,,,,,,,,down,0,1.2495,,0.375,-0.025925919,1,0,0,0.5657,0,61,61,12,1,kust,images/br_kust.png,images/cb_kust.png,0,,,,,,,,,,,,,,,,,,,,,,
,,,,,,00111,2023-12-07_17h56.35.842,vbt_B2_day2,2022.2.4,Win32,60.16485169,,,,,,,,,,,,,,,,,,,,,,,,,,,down,0,4.4229,,0.375,-0.025925919,1,0,0,0.6839,0,62,62,191,1,opheffen,images/br_opheffen.png,images/cb_opheffen.png,0,,,,,,,,,,,,,,,,,,,,,,
,,,,,,00111,2023-12-07_17h56.35.842,vbt_B2_day2,2022.2.4,Win32,60.16485169,,,,,,,,,,,,,,,,,,,,,,,,,,,down,0,1.014400001,,0.375,-0.025925919,1,0,0,0.6171,0,63,63,101,1,staren,images/br_staren.png,images/cb_staren.png,0,,,,,,,,,,,,,,,,,,,,,,
,,,,,,00111,2023-12-07_17h56.35.842,vbt_B2_day2,2022.2.4,Win32,60.16485169,,,,,,,,,,,,,,,,,,,,,,,,,,,down,0,4.6442,,0.375,-0.025925919,1,0,0,1.3418,0,64,64,98,1,kreeft,images/br_kreeft.png,images/cb_kreeft.png,1,kreeft,,,,,,,,,,,,,,,,,,,,,
,,,,,,00111,2023-12-07_17h56.35.842,vbt_B2_day2,2022.2.4,Win32,60.16485169,,,,,,,,,,,,,,,,,,,,,,,,,,,down,0,5.5503,,0.375,-0.025925919,1,0,0,0.5335,0,65,65,97,1,loyaal,images/br_loyaal.png,images/cb_loyaal.png,1,loyaal,,,,,,,,,,,,,,,,,,,,,
,,,,,,00111,2023-12-07_17h56.35.842,vbt_B2_day2,2022.2.4,Win32,60.16485169,,,,,,,,,,,,,,,,,,,,,,,,,,,down,0,3.6707,,0.375,-0.025925919,1,0,0,0.7636,0,66,66,141,1,knielen,images/br_knielen.png,images/cb_knielen.png,0,,,,,,,,,,,,,,,,,,,,,,
,,,,,,00111,2023-12-07_17h56.35.842,vbt_B2_day2,2022.2.4,Win32,60.16485169,,,,,,,,,,,,,,,,,,,,,,,,,,,down,0,2.3043,,0.375,-0.025925919,1,0,0,0.582900001,0,67,67,113,1,koppen,images/br_koppen.png,images/cb_koppen.png,0,,,,,,,,,,,,,,,,,,,,,,
,,,,,,00111,2023-12-07_17h56.35.842,vbt_B2_day2,2022.2.4,Win32,60.16485169,,,,,,,,,,,,,,,,,,,,,,,,,,,down,0,7.639,,0.375,-0.025925919,1,0,0,0.615200001,0,68,68,143,1,hechten,images/br_hechten.png,images/cb_hechten.png,0,,,,,,,,,,,,,,,,,,,,,,
,,,,,,00111,2023-12-07_17h56.35.842,vbt_B2_day2,2022.2.4,Win32,60.16485169,,,,,,,,,,,,,,,,,,,,,,,,,,,down,0,0.7026,,0.375,-0.025925919,1,0,0,0.4492,0,69,69,109,1,totaal,images/br_totaal.png,images/cb_totaal.png,0,,,,,,,,,,,,,,,,,,,,,,
,,,,,,00111,2023-12-07_17h56.35.842,vbt_B2_day2,2022.2.4,Win32,60.16485169,,,,,,,,,,,,,,,,,,,,,,,,,,,down,0,2.4078,,0.375,-0.025925919,1,0,0,1.113700001,0,70,70,63,1,flirt,images/br_flirt.png,images/cb_flirt.png,0,,,,,,,,,,,,,,,,,,,,,,
,,,,,,00111,2023-12-07_17h56.35.842,vbt_B2_day2,2022.2.4,Win32,60.16485169,,,,,,,,,,,,,,,,,,,,,,,,,,,down,0,0.4565,,0.375,-0.025925919,1,0,0,0.4158,0,71,71,112,1,lukken,images/br_lukken.png,images/cb_lukken.png,0,,,,,,,,,,,,,,,,,,,,,,
,,,,,,00111,2023-12-07_17h56.35.842,vbt_B2_day2,2022.2.4,Win32,60.16485169,,,,,,,,,,,,,,,,,,,,,,,,,,,down,0,1.5736,,0.375,-0.025925919,1,0,0,0.4984,0,72,72,8,1,knie,images/br_knie.png,images/cb_knie.png,0,,,,,,,,,,,,,,,,,,,,,,
,,,,,,00111,2023-12-07_17h56.35.842,vbt_B2_day2,2022.2.4,Win32,60.16485169,,,,,,,,,,,,,,,,,,,,,,,,,,,down,0,12.0254,,0.375,-0.025925919,1,0,0,4.426,0,73,73,121,1,twijfel,images/br_twijfel.png,images/cb_twijfel.png,0,,,,,,,,,,,,,,,,,,,,,,
,,,,,,00111,2023-12-07_17h56.35.842,vbt_B2_day2,2022.2.4,Win32,60.16485169,,,,,,,,,,,,,,,,,,,,,,,,,,,down,0,4.8625,,0.375,-0.025925919,1,0,0,0.4992,0,74,74,170,1,schatten,images/br_schatten.png,images/cb_schatten.png,0,,,,,,,,,,,,,,,,,,,,,,
,,,,,,00111,2023-12-07_17h56.35.842,vbt_B2_day2,2022.2.4,Win32,60.16485169,,,,,,,,,,,,,,,,,,,,,,,,,,,down,0,2.3487,,0.375,-0.025925919,1,0,0,1.1036,0,75,75,87,1,toeval,images/br_toeval.png,images/cb_toeval.png,0,,,,,,,,,,,,,,,,,,,,,,
,,,,,,00111,2023-12-07_17h56.35.842,vbt_B2_day2,2022.2.4,Win32,60.16485169,,,,,,,,,,,,,,,,,,,,,,,,,,,down,0,0.8764,,0.375,-0.025925919,1,0,0,0.7148,0,76,76,132,1,grappen,images/br_grappen.png,images/cb_grappen.png,0,,,,,,,,,,,,,,,,,,,,,,
,,,,,,00111,2023-12-07_17h56.35.842,vbt_B2_day2,2022.2.4,Win32,60.16485169,,,,,,,,,,,,,,,,,,,,,,,,,,,down,0,6.8195,,0.375,-0.025925919,1,0,0,3.7674,0,77,77,193,1,weeshuis,images/br_weeshuis.png,images/cb_weeshuis.png,0,,,,,,,,,,,,,,,,,,,,,,
,,,,,,00111,2023-12-07_17h56.35.842,vbt_B2_day2,2022.2.4,Win32,60.16485169,,,,,,,,,,,,,,,,,,,,,,,,,,,down,0,3.8201,,0.375,-0.025925919,1,0,0,2.2521,0,78,78,57,1,steek,images/br_steek.png,images/cb_steek.png,1,steek,,,,,,,,,,,,,,,,,,,,,
,,,,,,00111,2023-12-07_17h56.35.842,vbt_B2_day2,2022.2.4,Win32,60.16485169,,,,,,,,,,,,,,,,,,,,,,,,,,,down,0,5.9771,,0.375,-0.025925919,1,0,0,1.5312,0,79,79,181,1,toegeven,images/br_toegeven.png,images/cb_toegeven.png,0,,,,,,,,,,,,,,,,,,,,,,
,,,,,,00111,2023-12-07_17h56.35.842,vbt_B2_day2,2022.2.4,Win32,60.16485169,,,,,,,,,,,,,,,,,,,,,,,,,,,down,0,3.5939,,0.375,-0.025925919,1,0,0,10.1822,0,80,80,151,1,aanzoek,images/br_aanzoek.png,images/cb_aanzoek.png,0,,,,,,,,,,,,,,,,,,,,,,
,,,,,,00111,2023-12-07_17h56.35.842,vbt_B2_day2,2022.2.4,Win32,60.16485169,,,,,,,,,,,,,,,,,,,,,,,,,,,down,0,3.771900001,,0.375,-0.025925919,1,0,0,0.7098,0,81,81,85,1,heilig,images/br_heilig.png,images/cb_heilig.png,0,,,,,,,,,,,,,,,,,,,,,,
,,,,,,00111,2023-12-07_17h56.35.842,vbt_B2_day2,2022.2.4,Win32,60.16485169,,,,,,,,,,,,,,,,,,,,,,,,,,,down,0,1.148400001,,0.375,-0.025925919,1,0,0,0.9985,0,82,82,79,1,nodig,images/br_nodig.png,images/cb_nodig.png,0,,,,,,,,,,,,,,,,,,,,,,
,,,,,,00111,2023-12-07_17h56.35.842,vbt_B2_day2,2022.2.4,Win32,60.16485169,,,,,,,,,,,,,,,,,,,,,,,,,,,down,0,8.223099999,,0.375,-0.025925919,1,0,0,1.7803,0,83,83,179,1,woestijn,images/br_woestijn.png,images/cb_woestijn.png,1,woestijn,,,,,,,,,,,,,,,,,,,,,
,,,,,,00111,2023-12-07_17h56.35.842,vbt_B2_day2,2022.2.4,Win32,60.16485169,,,,,,,,,,,,,,,,,,,,,,,,,,,down,0,4.452599999,,0.375,-0.025925919,1,0,0,1.5974,0,84,84,74,1,graaf,images/br_graaf.png,images/cb_graaf.png,0,,,,,,,,,,,,,,,,,,,,,,
,,,,,,00111,2023-12-07_17h56.35.842,vbt_B2_day2,2022.2.4,Win32,60.16485169,,,,,,,,,,,,,,,,,,,,,,,,,,,down,0,2.3621,,0.375,-0.025925919,1,0,0,1.2985,0,85,85,41,1,maken,images/br_maken.png,images/cb_maken.png,0,,,,,,,,,,,,,,,,,,,,,,
,,,,,,00111,2023-12-07_17h56.35.842,vbt_B2_day2,2022.2.4,Win32,60.16485169,,,,,,,,,,,,,,,,,,,,,,,,,,,down,0,4.7165,,0.375,-0.025925919,1,0,0,0.8988,0,86,86,95,1,vreten,images/br_vreten.png,images/cb_vreten.png,0,,,,,,,,,,,,,,,,,,,,,,
,,,,,,00111,2023-12-07_17h56.35.842,vbt_B2_day2,2022.2.4,Win32,60.16485169,,,,,,,,,,,,,,,,,,,,,,,,,,,down,0,0.736200001,,0.375,-0.025925919,1,0,0,0.5325,0,87,87,26,1,leuk,images/br_leuk.png,images/cb_leuk.png,0,,,,,,,,,,,,,,,,,,,,,,
,,,,,,00111,2023-12-07_17h56.35.842,vbt_B2_day2,2022.2.4,Win32,60.16485169,,,,,,,,,,,,,,,,,,,,,,,,,,,down,0,2.964,,0.375,-0.025925919,1,0,0,1.148,0,88,88,44,1,flits,images/br_flits.png,images/cb_flits.png,0,,,,,,,,,,,,,,,,,,,,,,
,,,,,,00111,2023-12-07_17h56.35.842,vbt_B2_day2,2022.2.4,Win32,60.16485169,,,,,,,,,,,,,,,,,,,,,,,,,,,down,0,2.4995,,0.375,-0.025925919,1,0,0,0.4651,0,89,89,104,1,zweven,images/br_zweven.png,images/cb_zweven.png,0,,,,,,,,,,,,,,,,,,,,,,
,,,,,,00111,2023-12-07_17h56.35.842,vbt_B2_day2,2022.2.4,Win32,60.16485169,,,,,,,,,,,,,,,,,,,,,,,,,,,down,0,6.3597,,0.375,-0.025925919,1,0,0,0.681799999,0,90,90,164,1,anarchie,images/br_anarchie.png,images/cb_anarchie.png,0,,,,,,,,,,,,,,,,,,,,,,
,,,,,,00111,2023-12-07_17h56.35.842,vbt_B2_day2,2022.2.4,Win32,60.16485169,,,,,,,,,,,,,,,,,,,,,,,,,,,down,0,10.3565,,0.375,-0.025925919,1,0,0,1.3643,0,91,91,130,1,keihard,images/br_keihard.png,images/cb_keihard.png,0,,,,,,,,,,,,,,,,,,,,,,
,,,,,,00111,2023-12-07_17h56.35.842,vbt_B2_day2,2022.2.4,Win32,60.16485169,,,,,,,,,,,,,,,,,,,,,,,,,,,down,0,4.6827,,0.375,-0.025925919,1,0,0,1.65,0,92,92,156,1,rechten,images/br_rechten.png,images/cb_rechten.png,0,,,,,,,,,,,,,,,,,,,,,,
,,,,,,00111,2023-12-07_17h56.35.842,vbt_B2_day2,2022.2.4,Win32,60.16485169,,,,,,,,,,,,,,,,,,,,,,,,,,,down,0,4.5613,,0.375,-0.025925919,1,0,0,0.5822,0,93,93,111,1,ticket,images/br_ticket.png,images/cb_ticket.png,0,,,,,,,,,,,,,,,,,,,,,,
,,,,,,00111,2023-12-07_17h56.35.842,vbt_B2_day2,2022.2.4,Win32,60.16485169,,,,,,,,,,,,,,,,,,,,,,,,,,,down,0,4.083099999,,0.375,-0.025925919,1,0,0,1.031700001,0,94,94,123,1,hiervan,images/br_hiervan.png,images/cb_hiervan.png,0,,,,,,,,,,,,,,,,,,,,,,
,,,,,,00111,2023-12-07_17h56.35.842,vbt_B2_day2,2022.2.4,Win32,60.16485169,,,,,,,,,,,,,,,,,,,,,,,,,,,down,0,8.5691,,0.375,-0.025925919,1,0,0,4.05,0,95,95,165,1,feestdag,images/br_feestdag.png,images/cb_feestdag.png,0,,,,,,,,,,,,,,,,,,,,,,
,,,,,,00111,2023-12-07_17h56.35.842,vbt_B2_day2,2022.2.4,Win32,60.16485169,,,,,,,,,,,,,,,,,,,,,,,,,,,down,0,1.755599999,,0.375,-0.025925919,1,0,0,0.7488,0,96,96,53,1,baron,images/br_baron.png,images/cb_baron.png,0,,,,,,,,,,,,,,,,,,,,,,
,,,,,,00111,2023-12-07_17h56.35.842,vbt_B2_day2,2022.2.4,Win32,60.16485169,,,,,,,,,,,,,,,,,,,,,,,,,,,down,0,3.9772,,0.375,-0.025925919,1,0,0,1.6336,0,97,97,195,1,middelen,images/br_middelen.png,images/cb_middelen.png,0,,,,,,,,,,,,,,,,,,,,,,
,,,,,,00111,2023-12-07_17h56.35.842,vbt_B2_day2,2022.2.4,Win32,60.16485169,,,,,,,,,,,,,,,,,,,,,,,,,,,down,0,2.139,,0.375,-0.025925919,1,0,0,0.781900001,0,98,98,128,1,prikken,images/br_prikken.png,images/cb_prikken.png,0,,,,,,,,,,,,,,,,,,,,,,
,,,,,,00111,2023-12-07_17h56.35.842,vbt_B2_day2,2022.2.4,Win32,60.16485169,,,,,,,,,,,,,,,,,,,,,,,,,,,down,0,3.4949,,0.375,-0.025925919,1,0,0,0.8828,0,99,99,78,1,leren,images/br_leren.png,images/cb_leren.png,0,,,,,,,,,,,,,,,,,,,,,,
,,,,,,00111,2023-12-07_17h56.35.842,vbt_B2_day2,2022.2.4,Win32,60.16485169,,,,,,,,,,,,,,,,,,,,,,,,,,,down,0,6.6943,,0.375,-0.025925919,1,0,0,0.4996,0,100,100,162,1,uitdelen,images/br_uitdelen.png,images/cb_uitdelen.png,0,,,,,,,,,,,,,,,,,,,,,,
,,,,,,00111,2023-12-07_17h56.35.842,vbt_B2_day2,2022.2.4,Win32,60.16485169,,,,,,,,,,,,,,,,,,,,,,,,,,,down,0,3.4838,,0.375,-0.025925919,1,0,0,0.599,0,101,101,145,1,invloed,images/br_invloed.png,images/cb_invloed.png,0,,,,,,,,,,,,,,,,,,,,,,
,,,,,,00111,2023-12-07_17h56.35.842,vbt_B2_day2,2022.2.4,Win32,60.16485169,,,,,,,,,,,,,,,,,,,,,,,,,,,down,0,3.5121,,0.375,-0.025925919,1,0,0,0.9648,0,102,102,163,1,schuilen,images/br_schuilen.png,images/cb_schuilen.png,0,,,,,,,,,,,,,,,,,,,,,,
,,,,,,00111,2023-12-07_17h56.35.842,vbt_B2_day2,2022.2.4,Win32,60.16485169,,,,,,,,,,,,,,,,,,,,,,,,,,,down,0,2.1232,,0.375,-0.025925919,1,0,0,0.6573,0,103,103,24,1,jurk,images/br_jurk.png,images/cb_jurk.png,0,,,,,,,,,,,,,,,,,,,,,,
,,,,,,00111,2023-12-07_17h56.35.842,vbt_B2_day2,2022.2.4,Win32,60.16485169,,,,,,,,,,,,,,,,,,,,,,,,,,,down,0,4.607,,0.375,-0.025925919,1,0,0,4.842900001,0,104,104,153,1,vervoer,images/br_vervoer.png,images/cb_vervoer.png,0,,,,,,,,,,,,,,,,,,,,,,
,,,,,,00111,2023-12-07_17h56.35.842,vbt_B2_day2,2022.2.4,Win32,60.16485169,,,,,,,,,,,,,,,,,,,,,,,,,,,down,0,7.1703,,0.375,-0.025925919,1,0,0,0.4161,0,105,105,129,1,verhaal,images/br_verhaal.png,images/cb_verhaal.png,0,,,,,,,,,,,,,,,,,,,,,,
,,,,,,00111,2023-12-07_17h56.35.842,vbt_B2_day2,2022.2.4,Win32,60.16485169,,,,,,,,,,,,,,,,,,,,,,,,,,,down,0,4.385799999,,0.375,-0.025925919,1,0,0,0.4987,0,106,106,149,1,redding,images/br_redding.png,images/cb_redding.png,0,,,,,,,,,,,,,,,,,,,,,,
,,,,,,00111,2023-12-07_17h56.35.842,vbt_B2_day2,2022.2.4,Win32,60.16485169,,,,,,,,,,,,,,,,,,,,,,,,,,,down,0,1.371700001,,0.375,-0.025925919,1,0,0,0.6152,0,107,107,75,1,snoep,images/br_snoep.png,images/cb_snoep.png,0,,,,,,,,,,,,,,,,,,,,,,
,,,,,,00111,2023-12-07_17h56.35.842,vbt_B2_day2,2022.2.4,Win32,60.16485169,,,,,,,,,,,,,,,,,,,,,,,,,,,down,0,2.718599999,,0.375,-0.025925919,1,0,0,0.499099999,0,108,108,106,1,zingen,images/br_zingen.png,images/cb_zingen.png,0,,,,,,,,,,,,,,,,,,,,,,
,,,,,,00111,2023-12-07_17h56.35.842,vbt_B2_day2,2022.2.4,Win32,60.16485169,,,,,,,,,,,,,,,,,,,,,,,,,,,down,0,2.481,,0.375,-0.025925919,1,0,0,0.5987,0,109,109,56,1,traag,images/br_traag.png,images/cb_traag.png,1,traag,,,,,,,,,,,,,,,,,,,,,
,,,,,,00111,2023-12-07_17h56.35.842,vbt_B2_day2,2022.2.4,Win32,60.16485169,,,,,,,,,,,,,,,,,,,,,,,,,,,down,0,7.3633,,0.375,-0.025925919,1,0,0,5.524200001,0,110,110,175,1,heengaan,images/br_heengaan.png,images/cb_heengaan.png,0,,,,,,,,,,,,,,,,,,,,,,
,,,,,,00111,2023-12-07_17h56.35.842,vbt_B2_day2,2022.2.4,Win32,60.16485169,,,,,,,,,,,,,,,,,,,,,,,,,,,down,0,0.5874,,0.375,-0.025925919,1,0,0,0.4989,0,111,111,51,1,samen,images/br_samen.png,images/cb_samen.png,0,,,,,,,,,,,,,,,,,,,,,,
,,,,,,00111,2023-12-07_17h56.35.842,vbt_B2_day2,2022.2.4,Win32,60.16485169,,,,,,,,,,,,,,,,,,,,,,,,,,,down,0,6.9139,,0.375,-0.025925919,1,0,0,0.533,0,112,112,122,1,waarvan,images/br_waarvan.png,images/cb_waarvan.png,0,,,,,,,,,,,,,,,,,,,,,,
,,,,,,00111,2023-12-07_17h56.35.842,vbt_B2_day2,2022.2.4,Win32,60.16485169,,,,,,,,,,,,,,,,,,,,,,,,,,,down,0,3.6956,,0.375,-0.025925919,1,0,0,0.5823,0,113,113,186,1,voorraad,images/br_voorraad.png,images/cb_voorraad.png,0,,,,,,,,,,,,,,,,,,,,,,
,,,,,,00111,2023-12-07_17h56.35.842,vbt_B2_day2,2022.2.4,Win32,60.16485169,,,,,,,,,,,,,,,,,,,,,,,,,,,down,0,2.506299999,,0.375,-0.025925919,1,0,0,0.4168,0,114,114,43,1,klauw,images/br_klauw.png,images/cb_klauw.png,0,,,,,,,,,,,,,,,,,,,,,,
,,,,,,00111,2023-12-07_17h56.35.842,vbt_B2_day2,2022.2.4,Win32,60.16485169,,,,,,,,,,,,,,,,,,,,,,,,,,,down,0,4.1632,,0.375,-0.025925919,1,0,0,0.649099999,0,115,115,14,1,rijp,images/br_rijp.png,images/cb_rijp.png,0,,,,,,,,,,,,,,,,,,,,,,
,,,,,,00111,2023-12-07_17h56.35.842,vbt_B2_day2,2022.2.4,Win32,60.16485169,,,,,,,,,,,,,,,,,,,,,,,,,,,down,0,0.8523,,0.375,-0.025925919,1,0,0,0.6486,0,116,116,30,1,uien,images/br_uien.png,images/cb_uien.png,0,,,,,,,,,,,,,,,,,,,,,,
,,,,,,00111,2023-12-07_17h56.35.842,vbt_B2_day2,2022.2.4,Win32,60.16485169,,,,,,,,,,,,,,,,,,,,,,,,,,,down,0,0.488400001,,0.375,-0.025925919,1,0,0,0.8817,0,117,117,32,1,palm,images/br_palm.png,images/cb_palm.png,0,,,,,,,,,,,,,,,,,,,,,,
,,,,,,00111,2023-12-07_17h56.35.842,vbt_B2_day2,2022.2.4,Win32,60.16485169,,,,,,,,,,,,,,,,,,,,,,,,,,,down,0,3.2662,,0.375,-0.025925919,1,0,0,0.534299999,0,118,118,100,1,geduld,images/br_geduld.png,images/cb_geduld.png,0,,,,,,,,,,,,,,,,,,,,,,
,,,,,,00111,2023-12-07_17h56.35.842,vbt_B2_day2,2022.2.4,Win32,60.16485169,,,,,,,,,,,,,,,,,,,,,,,,,,,down,0,5.9789,,0.375,-0.025925919,1,0,0,0.4822,0,119,119,83,1,mening,images/br_mening.png,images/cb_mening.png,0,,,,,,,,,,,,,,,,,,,,,,
,,,,,,00111,2023-12-07_17h56.35.842,vbt_B2_day2,2022.2.4,Win32,60.16485169,,,,,,,,,,,,,,,,,,,,,,,,,,,down,0,0.6878,,0.375,-0.025925919,1,0,0,0.532400001,0,120,120,34,1,vorm,images/br_vorm.png,images/cb_vorm.png,0,,,,,,,,,,,,,,,,,,,,,,
,,,,,,00111,2023-12-07_17h56.35.842,vbt_B2_day2,2022.2.4,Win32,60.16485169,,,,,,,,,,,,,,,,,,,,,,,,,,,down,0,5.9374,,0.375,-0.025925919,1,0,0,27.158,0,121,121,168,1,bisschop,images/br_bisschop.png,images/cb_bisschop.png,0,,,,,,,,,,,,,,,,,,,,,,
,,,,,,00111,2023-12-07_17h56.35.842,vbt_B2_day2,2022.2.4,Win32,60.16485169,,,,,,,,,,,,,,,,,,,,,,,,,,,down,0,4.1605,,0.375,-0.025925919,1,0,0,0.6225,0,122,122,91,1,gezond,images/br_gezond.png,images/cb_gezond.png,0,,,,,,,,,,,,,,,,,,,,,,
,,,,,,00111,2023-12-07_17h56.35.842,vbt_B2_day2,2022.2.4,Win32,60.16485169,,,,,,,,,,,,,,,,,,,,,,,,,,,down,0,6.528900001,,0.375,-0.025925919,1,0,0,2.546599999,0,123,123,40,1,schep,images/br_schep.png,images/cb_schep.png,0,,,,,,,,,,,,,,,,,,,,,,
,,,,,,00111,2023-12-07_17h56.35.842,vbt_B2_day2,2022.2.4,Win32,60.16485169,,,,,,,,,,,,,,,,,,,,,,,,,,,down,0,0.0026,,0.375,-0.025925919,1,0,0,0.4157,0,124,124,13,1,kaal,images/br_kaal.png,images/cb_kaal.png,0,,,,,,,,,,,,,,,,,,,,,,
,,,,,,00111,2023-12-07_17h56.35.842,vbt_B2_day2,2022.2.4,Win32,60.16485169,,,,,,,,,,,,,,,,,,,,,,,,,,,down,0,5.1987,,0.375,-0.025925919,1,0,0,1.4307,0,125,125,133,1,seizoen,images/br_seizoen.png,images/cb_seizoen.png,0,,,,,,,,,,,,,,,,,,,,,,
,,,,,,00111,2023-12-07_17h56.35.842,vbt_B2_day2,2022.2.4,Win32,60.16485169,,,,,,,,,,,,,,,,,,,,,,,,,,,down,0,5.8415,,0.375,-0.025925919,1,0,0,0.6825,0,126,126,94,1,oceaan,images/br_oceaan.png,images/cb_oceaan.png,0,,,,,,,,,,,,,,,,,,,,,,
,,,,,,00111,2023-12-07_17h56.35.842,vbt_B2_day2,2022.2.4,Win32,60.16485169,,,,,,,,,,,,,,,,,,,,,,,,,,,down,0,2.485299999,,0.375,-0.025925919,1,0,0,0.948900001,0,127,127,90,1,geluid,images/br_geluid.png,images/cb_geluid.png,0,,,,,,,,,,,,,,,,,,,,,,
,,,,,,00111,2023-12-07_17h56.35.842,vbt_B2_day2,2022.2.4,Win32,60.16485169,,,,,,,,,,,,,,,,,,,,,,,,,,,down,0,2.5415,,0.375,-0.025925919,1,0,0,1.1872,0,128,128,154,1,aflopen,images/br_aflopen.png,images/cb_aflopen.png,0,,,,,,,,,,,,,,,,,,,,,,
,,,,,,00111,2023-12-07_17h56.35.842,vbt_B2_day2,2022.2.4,Win32,60.16485169,,,,,,,,,,,,,,,,,,,,,,,,,,,down,0,1.8613,,0.375,-0.025925919,1,0,0,0.7035,0,129,129,150,1,gegeven,images/br_gegeven.png,images/cb_gegeven.png,0,,,,,,,,,,,,,,,,,,,,,,
,,,,,,00111,2023-12-07_17h56.35.842,vbt_B2_day2,2022.2.4,Win32,60.16485169,,,,,,,,,,,,,,,,,,,,,,,,,,,down,0,1.2138,,0.376851824,-0.035185178,1,0,0,0.9762,0,130,130,126,1,kasteel,images/br_kasteel.png,images/cb_kasteel.png,0,,,,,,,,,,,,,,,,,,,,,,
,,,,,,00111,2023-12-07_17h56.35.842,vbt_B2_day2,2022.2.4,Win32,60.16485169,,,,,,,,,,,,,,,,,,,,,,,,,,,down,0,1.476,,0.376851824,-0.035185178,1,0,0,0.5831,0,131,131,61,1,groen,images/br_groen.png,images/cb_groen.png,0,,,,,,,,,,,,,,,,,,,,,,
,,,,,,00111,2023-12-07_17h56.35.842,vbt_B2_day2,2022.2.4,Win32,60.16485169,,,,,,,,,,,,,,,,,,,,,,,,,,,down,0,3.5335,,0.376851824,-0.035185178,1,0,0,1.0823,0,132,132,197,1,spanning,images/br_spanning.png,images/cb_spanning.png,0,,,,,,,,,,,,,,,,,,,,,,
,,,,,,00111,2023-12-07_17h56.35.842,vbt_B2_day2,2022.2.4,Win32,60.16485169,,,,,,,,,,,,,,,,,,,,,,,,,,,down,0,2.930599999,,0.376851824,-0.035185178,1,0,0,0.8154,0,133,133,118,1,vinger,images/br_vinger.png,images/cb_vinger.png,0,,,,,,,,,,,,,,,,,,,,,,
,,,,,,00111,2023-12-07_17h56.35.842,vbt_B2_day2,2022.2.4,Win32,60.16485169,,,,,,,,,,,,,,,,,,,,,,,,,,,down,0,0.3584,,0.376851824,-0.035185178,1,0,0,0.5056,0,134,134,50,1,stoom,images/br_stoom.png,images/cb_stoom.png,0,,,,,,,,,,,,,,,,,,,,,,
,,,,,,00111,2023-12-07_17h56.35.842,vbt_B2_day2,2022.2.4,Win32,60.16485169,,,,,,,,,,,,,,,,,,,,,,,,,,,down,0,1.0648,,0.376851824,-0.035185178,1,0,0,1.0315,0,135,135,31,1,poes,images/br_poes.png,images/cb_poes.png,0,,,,,,,,,,,,,,,,,,,,,,
,,,,,,00111,2023-12-07_17h56.35.842,vbt_B2_day2,2022.2.4,Win32,60.16485169,,,,,,,,,,,,,,,,,,,,,,,,,,,down,0,1.1572,,0.376851824,-0.035185178,1,0,0,0.4831,0,136,136,169,1,oprotten,images/br_oprotten.png,images/cb_oprotten.png,0,,,,,,,,,,,,,,,,,,,,,,
,,,,,,00111,2023-12-07_17h56.35.842,vbt_B2_day2,2022.2.4,Win32,60.16485169,,,,,,,,,,,,,,,,,,,,,,,,,,,down,0,3.7316,,0.376851824,-0.035185178,1,0,0,0.6492,0,137,137,105,1,wijlen,images/br_wijlen.png,images/cb_wijlen.png,0,,,,,,,,,,,,,,,,,,,,,,
,,,,,,00111,2023-12-07_17h56.35.842,vbt_B2_day2,2022.2.4,Win32,60.16485169,,,,,,,,,,,,,,,,,,,,,,,,,,,down,0,2.680099999,,0.376851824,-0.035185178,1,0,0,0.4499,0,138,138,140,1,blijven,images/br_blijven.png,images/cb_blijven.png,0,,,,,,,,,,,,,,,,,,,,,,
,,,,,,00111,2023-12-07_17h56.35.842,vbt_B2_day2,2022.2.4,Win32,60.16485169,,,,,,,,,,,,,,,,,,,,,,,,,,,down,0,2.0002,,0.376851824,-0.035185178,1,0,0,0.4823,0,139,139,68,1,schat,images/br_schat.png,images/cb_schat.png,0,,,,,,,,,,,,,,,,,,,,,,
,,,,,,00111,2023-12-07_17h56.35.842,vbt_B2_day2,2022.2.4,Win32,60.16485169,,,,,,,,,,,,,,,,,,,,,,,,,,,down,0,4.3825,,0.376851824,-0.035185178,1,0,0,0.882,0,140,140,155,1,gerucht,images/br_gerucht.png,images/cb_gerucht.png,0,,,,,,,,,,,,,,,,,,,,,,
,,,,,,00111,2023-12-07_17h56.35.842,vbt_B2_day2,2022.2.4,Win32,60.16485169,,,,,,,,,,,,,,,,,,,,,,,,,,,down,0,0.371700001,,0.376851824,-0.035185178,1,0,0,0.8232,0,141,141,117,1,kennis,images/br_kennis.png,images/cb_kennis.png,0,,,,,,,,,,,,,,,,,,,,,,
,,,,,,00111,2023-12-07_17h56.35.842,vbt_B2_day2,2022.2.4,Win32,60.16485169,,,,,,,,,,,,,,,,,,,,,,,,,,,down,0,2.715299999,,0.376851824,-0.035185178,1,0,0,0.548599999,0,142,142,135,1,gedicht,images/br_gedicht.png,images/cb_gedicht.png,0,,,,,,,,,,,,,,,,,,,,,,
,,,,,,00111,2023-12-07_17h56.35.842,vbt_B2_day2,2022.2.4,Win32,60.16485169,,,,,,,,,,,,,,,,,,,,,,,,,,,down,0,4.9352,,0.376851824,-0.035185178,1,0,0,0.482900001,0,143,143,92,1,geheim,images/br_geheim.png,images/cb_geheim.png,0,,,,,,,,,,,,,,,,,,,,,,
,,,,,,00111,2023-12-07_17h56.35.842,vbt_B2_day2,2022.2.4,Win32,60.16485169,,,,,,,,,,,,,,,,,,,,,,,,,,,down,0,2.2289,,0.376851824,-0.035185178,1,0,0,0.6317,0,144,144,127,1,doodmoe,images/br_doodmoe.png,images/cb_doodmoe.png,0,,,,,,,,,,,,,,,,,,,,,,
,,,,,,00111,2023-12-07_17h56.35.842,vbt_B2_day2,2022.2.4,Win32,60.16485169,,,,,,,,,,,,,,,,,,,,,,,,,,,down,0,0.195599999,,0.376851824,-0.035185178,1,0,0,0.631700001,0,145,145,115,1,kleren,images/br_kleren.png,images/cb_kleren.png,0,,,,,,,,,,,,,,,,,,,,,,
,,,,,,00111,2023-12-07_17h56.35.842,vbt_B2_day2,2022.2.4,Win32,60.16485169,,,,,,,,,,,,,,,,,,,,,,,,,,,down,0,4.726900001,,0.376851824,-0.035185178,1,0,0,0.4653,0,146,146,108,1,excuus,images/br_excuus.png,images/cb_excuus.png,0,,,,,,,,,,,,,,,,,,,,,,
,,,,,,00111,2023-12-07_17h56.35.842,vbt_B2_day2,2022.2.4,Win32,60.16485169,,,,,,,,,,,,,,,,,,,,,,,,,,,down,0,1.267,,0.376851824,-0.035185178,1,0,0,0.4496,0,147,147,21,1,mist,images/br_mist.png,images/cb_mist.png,0,,,,,,,,,,,,,,,,,,,,,,
,,,,,,00111,2023-12-07_17h56.35.842,vbt_B2_day2,2022.2.4,Win32,60.16485169,,,,,,,,,,,,,,,,,,,,,,,,,,,down,0,7.8223,,0.376851824,-0.035185178,1,0,0,1.7967,0,148,148,136,1,waarbij,images/br_waarbij.png,images/cb_waarbij.png,1,waarbij,,,,,,,,,,,,,,,,,,,,,
,,,,,,00111,2023-12-07_17h56.35.842,vbt_B2_day2,2022.2.4,Win32,60.16485169,,,,,,,,,,,,,,,,,,,,,,,,,,,down,0,0.1896,,0.376851824,-0.035185178,1,0,0,0.4651,0,149,149,25,1,plek,images/br_plek.png,images/cb_plek.png,0,,,,,,,,,,,,,,,,,,,,,,
,,,,,,00111,2023-12-07_17h56.35.842,vbt_B2_day2,2022.2.4,Win32,60.16485169,,,,,,,,,,,,,,,,,,,,,,,,,,,down,0,1.215900001,,0.376851824,-0.035185178,1,0,0,0.6669,0,150,150,184,1,aandelen,images/br_aandelen.png,images/cb_aandelen.png,0,,,,,,,,,,,,,,,,,,,,,,
,,,,,,00111,2023-12-07_17h56.35.842,vbt_B2_day2,2022.2.4,Win32,60.16485169,,,,,,,,,,,,,,,,,,,,,,,,,,,down,0,1.6236,,0.376851824,-0.035185178,1,0,0,0.6654,0,151,151,86,1,woning,images/br_woning.png,images/cb_woning.png,0,,,,,,,,,,,,,,,,,,,,,,
,,,,,,00111,2023-12-07_17h56.35.842,vbt_B2_day2,2022.2.4,Win32,60.16485169,,,,,,,,,,,,,,,,,,,,,,,,,,,down,0,1.2496,,0.376851824,-0.035185178,1,0,0,0.7338,0,152,152,23,1,zout,images/br_zout.png,images/cb_zout.png,0,,,,,,,,,,,,,,,,,,,,,,
,,,,,,00111,2023-12-07_17h56.35.842,vbt_B2_day2,2022.2.4,Win32,60.16485169,,,,,,,,,,,,,,,,,,,,,,,,,,,down,0,2.4879,,0.376851824,-0.035185178,1,0,0,1.1894,0,153,153,125,1,aanzien,images/br_aanzien.png,images/cb_aanzien.png,0,,,,,,,,,,,,,,,,,,,,,,
,,,,,,00111,2023-12-07_17h56.35.842,vbt_B2_day2,2022.2.4,Win32,60.16485169,,,,,,,,,,,,,,,,,,,,,,,,,,,down,0,4.2023,,0.376851824,-0.035185178,1,0,0,0.998,0,154,154,160,1,daarheen,images/br_daarheen.png,images/cb_daarheen.png,0,,,,,,,,,,,,,,,,,,,,,,
,,,,,,00111,2023-12-07_17h56.35.842,vbt_B2_day2,2022.2.4,Win32,60.16485169,,,,,,,,,,,,,,,,,,,,,,,,,,,down,0,0.749799999,,0.376851824,-0.035185178,1,0,0,1.081700001,0,155,155,33,1,vlek,images/br_vlek.png,images/cb_vlek.png,0,,,,,,,,,,,,,,,,,,,,,,
,,,,,,00111,2023-12-07_17h56.35.842,vbt_B2_day2,2022.2.4,Win32,60.16485169,,,,,,,,,,,,,,,,,,,,,,,,,,,down,0,1.6651,,0.376851824,-0.035185178,1,0,0,1.041900001,0,156,156,110,1,zuster,images/br_zuster.png,images/cb_zuster.png,0,,,,,,,,,,,,,,,,,,,,,,
,,,,,,00111,2023-12-07_17h56.35.842,vbt_B2_day2,2022.2.4,Win32,60.16485169,,,,,,,,,,,,,,,,,,,,,,,,,,,down,0,0.9688,,0.369444529,-0.059259273,1,0,0,0.475,0,157,157,17,1,taal,images/br_taal.png,images/cb_taal.png,1,taal,,,,,,,,,,,,,,,,,,,,,
,,,,,,00111,2023-12-07_17h56.35.842,vbt_B2_day2,2022.2.4,Win32,60.16485169,,,,,,,,,,,,,,,,,,,,,,,,,,,down,0,2.1295,,0.175925926,-0.067592586,1,0,0,1.2734,0,158,158,54,1,gebit,images/br_gebit.png,images/cb_gebit.png,0,,,,,,,,,,,,,,,,,,,,,,
,,,,,,00111,2023-12-07_17h56.35.842,vbt_B2_day2,2022.2.4,Win32,60.16485169,,,,,,,,,,,,,,,,,,,,,,,,,,,down,0,0.8209,,0.175925926,-0.067592586,1,0,0,0.5238,0,159,159,65,1,parel,images/br_parel.png,images/cb_parel.png,0,,,,,,,,,,,,,,,,,,,,,,
,,,,,,00111,2023-12-07_17h56.35.842,vbt_B2_day2,2022.2.4,Win32,60.16485169,,,,,,,,,,,,,,,,,,,,,,,,,,,down,0,0.0193,,0.175925926,-0.067592586,1,0,0,0.638900001,0,160,160,144,1,eetlust,images/br_eetlust.png,images/cb_eetlust.png,0,,,,,,,,,,,,,,,,,,,,,,
,,,,,,00111,2023-12-07_17h56.35.842,vbt_B2_day2,2022.2.4,Win32,60.16485169,,,,,,,,,,,,,,,,,,,,,,,,,,,down,0,10.055,,0.175925926,-0.067592586,1,0,0,0.5988,0,161,161,185,1,mijnheer,images/br_mijnheer.png,images/cb_mijnheer.png,0,,,,,,,,,,,,,,,,,,,,,,
,,,,,,00111,2023-12-07_17h56.35.842,vbt_B2_day2,2022.2.4,Win32,60.16485169,,,,,,,,,,,,,,,,,,,,,,,,,,,down,0,1.5874,,0.175925926,-0.067592586,1,0,0,0.482599999,0,162,162,62,1,knaap,images/br_knaap.png,images/cb_knaap.png,0,,,,,,,,,,,,,,,,,,,,,,
,,,,,,00111,2023-12-07_17h56.35.842,vbt_B2_day2,2022.2.4,Win32,60.16485169,,,,,,,,,,,,,,,,,,,,,,,,,,,down,0,3.054799999,,0.175925926,-0.067592586,1,0,0,0.4664,0,163,163,182,1,bijkomen,images/br_bijkomen.png,images/cb_bijkomen.png,0,,,,,,,,,,,,,,,,,,,,,,
,,,,,,00111,2023-12-07_17h56.35.842,vbt_B2_day2,2022.2.4,Win32,60.16485169,,,,,,,,,,,,,,,,,,,,,,,,,,,down,0,5.7629,,0.175925926,-0.067592586,1,0,0,0.7988,0,164,164,167,1,eenhoorn,images/br_eenhoorn.png,images/cb_eenhoorn.png,0,,,,,,,,,,,,,,,,,,,,,,
,,,,,,00111,2023-12-07_17h56.35.842,vbt_B2_day2,2022.2.4,Win32,60.16485169,,,,,,,,,,,,,,,,,,,,,,,,,,,down,0,2.4767,,0.175925926,-0.067592586,1,0,0,1.7135,0,165,165,18,1,blik,images/br_blik.png,images/cb_blik.png,1,blik,,,,,,,,,,,,,,,,,,,,,
,,,,,,00111,2023-12-07_17h56.35.842,vbt_B2_day2,2022.2.4,Win32,60.16485169,,,,,,,,,,,,,,,,,,,,,,,,,,,down,0,8.040400001,,0.400925954,-0.073148162,1,0,0,0.565900001,0,166,166,177,1,maaltijd,images/br_maaltijd.png,images/cb_maaltijd.png,1,maaltijd,,,,,,,,,,,,,,,,,,,,,
,,,,,,00111,2023-12-07_17h56.35.842,vbt_B2_day2,2022.2.4,Win32,60.16485169,,,,,,,,,,,,,,,,,,,,,,,,,,,down,0,0.623599999,,0.400925954,-0.073148162,1,0,0,0.7816,0,167,167,27,1,dans,images/br_dans.png,images/cb_dans.png,0,,,,,,,,,,,,,,,,,,,,,,
,,,,,,00111,2023-12-07_17h56.35.842,vbt_B2_day2,2022.2.4,Win32,60.16485169,,,,,,,,,,,,,,,,,,,,,,,,,,,down,0,16.192,,0.074074074,-0.299074102,1,0,0,0.665599999,0,168,168,178,1,huisdier,images/br_huisdier.png,images/cb_huisdier.png,1,huisdier,,,,,,,,,,,,,,,,,,,,,
,,,,,,00111,2023-12-07_17h56.35.842,vbt_B2_day2,2022.2.4,Win32,60.16485169,,,,,,,,,,,,,,,,,,,,,,,,,,,down,0,2.4298,,0.117592635,-0.276851866,1,0,0,0.549099999,0,169,169,166,1,strikken,images/br_strikken.png,images/cb_strikken.png,0,,,,,,,,,,,,,,,,,,,,,,
,,,,,,00111,2023-12-07_17h56.35.842,vbt_B2_day2,2022.2.4,Win32,60.16485169,,,,,,,,,,,,,,,,,,,,,,,,,,,down,0,3.496599999,,0.437037009,-0.036111125,1,0,0,1.2478,0,170,170,99,1,koffie,images/br_koffie.png,images/cb_koffie.png,1,koffie,,,,,,,,,,,,,,,,,,,,,
,,,,,,00111,2023-12-07_17h56.35.842,vbt_B2_day2,2022.2.4,Win32,60.16485169,,,,,,,,,,,,,,,,,,,,,,,,,,,down,0,2.0159,,0.121296282,-0.156481496,1,0,0,0.5486,0,171,171,52,1,wagon,images/br_wagon.png,images/cb_wagon.png,0,,,,,,,,,,,,,,,,,,,,,,
,,,,,,00111,2023-12-07_17h56.35.842,vbt_B2_day2,2022.2.4,Win32,60.16485169,,,,,,,,,,,,,,,,,,,,,,,,,,,down,0,0.1006,,0.263888889,-0.12962963,1,0,0,0.5162,0,172,172,38,1,baai,images/br_baai.png,images/cb_baai.png,0,,,,,,,,,,,,,,,,,,,,,,
,,,,,,00111,2023-12-07_17h56.35.842,vbt_B2_day2,2022.2.4,Win32,60.16485169,,,,,,,,,,,,,,,,,,,,,,,,,,,down,0,4.990900001,,0.263888889,-0.12962963,1,0,0,0.698900001,0,173,173,198,1,bedoelen,images/br_bedoelen.png,images/cb_bedoelen.png,0,,,,,,,,,,,,,,,,,,,,,,
,,,,,,00111,2023-12-07_17h56.35.842,vbt_B2_day2,2022.2.4,Win32,60.16485169,,,,,,,,,,,,,,,,,,,,,,,,,,,down,0,5.577099999,,0.263888889,-0.12962963,1,0,0,0.7988,0,174,174,158,1,innemen,images/br_innemen.png,images/cb_innemen.png,0,,,,,,,,,,,,,,,,,,,,,,
,,,,,,00111,2023-12-07_17h56.35.842,vbt_B2_day2,2022.2.4,Win32,60.16485169,,,,,,,,,,,,,,,,,,,,,,,,,,,down,0,3.9487,,0.263888889,-0.12962963,1,0,0,0.440599999,0,175,175,119,1,liefje,images/br_liefje.png,images/cb_liefje.png,0,,,,,,,,,,,,,,,,,,,,,,
,,,,,,00111,2023-12-07_17h56.35.842,vbt_B2_day2,2022.2.4,Win32,60.16485169,,,,,,,,,,,,,,,,,,,,,,,,,,,down,0,1.0379,,0.263888889,-0.12962963,1,0,0,0.5157,0,176,176,20,1,site,images/br_site.png,images/cb_site.png,0,,,,,,,,,,,,,,,,,,,,,,
,,,,,,00111,2023-12-07_17h56.35.842,vbt_B2_day2,2022.2.4,Win32,60.16485169,,,,,,,,,,,,,,,,,,,,,,,,,,,down,0,3.7459,,0.478703675,-0.090740734,1,0,0,1.896799999,0,177,177,139,1,stiekem,images/br_stiekem.png,images/cb_stiekem.png,1,stiekem,,,,,,,,,,,,,,,,,,,,,
,,,,,,00111,2023-12-07_17h56.35.842,vbt_B2_day2,2022.2.4,Win32,60.16485169,,,,,,,,,,,,,,,,,,,,,,,,,,,down,0,2.4812,,0.202777792,-0.09629631,1,0,0,0.8174,0,178,178,37,1,mijn,images/br_mijn.png,images/cb_mijn.png,0,,,,,,,,,,,,,,,,,,,,,,
,,,,,,00111,2023-12-07_17h56.35.842,vbt_B2_day2,2022.2.4,Win32,60.16485169,,,,,,,,,,,,,,,,,,,,,,,,,,,down,0,0.29,,0.202777792,-0.09629631,1,0,0,0.5325,0,179,179,72,1,strak,images/br_strak.png,images/cb_strak.png,0,,,,,,,,,,,,,,,,,,,,,,
,,,,,,00111,2023-12-07_17h56.35.842,vbt_B2_day2,2022.2.4,Win32,60.16485169,,,,,,,,,,,,,,,,,,,,,,,,,,,down,0,0.0617,,0.202777792,-0.09629631,1,0,0,0.7152,0,180,180,5,1,blad,images/br_blad.png,images/cb_blad.png,0,,,,,,,,,,,,,,,,,,,,,,
,,,,,,00111,2023-12-07_17h56.35.842,vbt_B2_day2,2022.2.4,Win32,60.16485169,,,,,,,,,,,,,,,,,,,,,,,,,,,down,0,2.212400001,,0.202777792,-0.09629631,1,0,0,0.975599999,0,181,181,174,1,stemming,images/br_stemming.png,images/cb_stemming.png,0,,,,,,,,,,,,,,,,,,,,,,
,,,,,,00111,2023-12-07_17h56.35.842,vbt_B2_day2,2022.2.4,Win32,60.16485169,,,,,,,,,,,,,,,,,,,,,,,,,,,down,0,0.9276,,0.202777792,-0.09629631,1,0,0,0.530200001,0,182,182,114,1,vullen,images/br_vullen.png,images/cb_vullen.png,0,,,,,,,,,,,,,,,,,,,,,,
,,,,,,00111,2023-12-07_17h56.35.842,vbt_B2_day2,2022.2.4,Win32,60.16485169,,,,,,,,,,,,,,,,,,,,,,,,,,,down,0,3.714599999,,0.202777792,-0.09629631,1,0,0,0.9318,0,183,183,88,1,boeien,images/br_boeien.png,images/cb_boeien.png,0,,,,,,,,,,,,,,,,,,,,,,
,,,,,,00111,2023-12-07_17h56.35.842,vbt_B2_day2,2022.2.4,Win32,60.16485169,,,,,,,,,,,,,,,,,,,,,,,,,,,down,0,0.782400001,,0.202777792,-0.09629631,1,0,0,0.6157,0,184,184,6,1,diep,images/br_diep.png,images/cb_diep.png,0,,,,,,,,,,,,,,,,,,,,,,
,,,,,,00111,2023-12-07_17h56.35.842,vbt_B2_day2,2022.2.4,Win32,60.16485169,,,,,,,,,,,,,,,,,,,,,,,,,,,down,0,3.1872,,0.202777792,-0.09629631,1,0,0,0.5824,0,185,185,142,1,snuiven,images/br_snuiven.png,images/cb_snuiven.png,0,,,,,,,,,,,,,,,,,,,,,,
,,,,,,00111,2023-12-07_17h56.35.842,vbt_B2_day2,2022.2.4,Win32,60.16485169,,,,,,,,,,,,,,,,,,,,,,,,,,,down,0,0.1516,,0.202777792,-0.09629631,1,0,0,0.499200001,0,186,186,49,1,laken,images/br_laken.png,images/cb_laken.png,0,,,,,,,,,,,,,,,,,,,,,,
,,,,,,00111,2023-12-07_17h56.35.842,vbt_B2_day2,2022.2.4,Win32,60.16485169,,,,,,,,,,,,,,,,,,,,,,,,,,,down,0,0.7826,,0.202777792,-0.09629631,1,0,0,0.8322,0,187,187,2,1,jaar,images/br_jaar.png,images/cb_jaar.png,0,,,,,,,,,,,,,,,,,,,,,,
,,,,,,00111,2023-12-07_17h56.35.842,vbt_B2_day2,2022.2.4,Win32,60.16485169,,,,,,,,,,,,,,,,,,,,,,,,,,,down,0,0.3515,,0.202777792,-0.09629631,1,0,0,0.5493,0,188,188,93,1,waarop,images/br_waarop.png,images/cb_waarop.png,0,,,,,,,,,,,,,,,,,,,,,,
,,,,,,00111,2023-12-07_17h56.35.842,vbt_B2_day2,2022.2.4,Win32,60.16485169,,,,,,,,,,,,,,,,,,,,,,,,,,,down,0,0.958599999,,0.202777792,-0.09629631,1,0,0,0.649,0,189,189,7,1,geld,images/br_geld.png,images/cb_geld.png,0,,,,,,,,,,,,,,,,,,,,,,
,,,,,,00111,2023-12-07_17h56.35.842,vbt_B2_day2,2022.2.4,Win32,60.16485169,,,,,,,,,,,,,,,,,,,,,,,,,,,down,0,0.325900001,,0.202777792,-0.09629631,1,0,0,0.6491,0,190,190,45,1,piste,images/br_piste.png,images/cb_piste.png,0,,,,,,,,,,,,,,,,,,,,,,
,,,,,,00111,2023-12-07_17h56.35.842,vbt_B2_day2,2022.2.4,Win32,60.16485169,,,,,,,,,,,,,,,,,,,,,,,,,,,down,0,2.1471,,0.100000028,-0.289814843,1,0,0,0.4827,0,191,191,19,1,geit,images/br_geit.png,images/cb_geit.png,1,geit,,,,,,,,,,,,,,,,,,,,,
,,,,,,00111,2023-12-07_17h56.35.842,vbt_B2_day2,2022.2.4,Win32,60.16485169,,,,,,,,,,,,,,,,,,,,,,,,,,,down,0,7.4306,,0.212962963,-0.175925926,1,0,0,0.616299999,0,192,192,152,1,afnemen,images/br_afnemen.png,images/cb_afnemen.png,0,,,,,,,,,,,,,,,,,,,,,,
,,,,,,00111,2023-12-07_17h56.35.842,vbt_B2_day2,2022.2.4,Win32,60.16485169,,,,,,,,,,,,,,,,,,,,,,,,,,,down,0,0.3844,,0.212962963,-0.175925926,1,0,0,0.5157,0,193,193,10,1,leek,images/br_leek.png,images/cb_leek.png,0,,,,,,,,,,,,,,,,,,,,,,
,,,,,,00111,2023-12-07_17h56.35.842,vbt_B2_day2,2022.2.4,Win32,60.16485169,,,,,,,,,,,,,,,,,,,,,,,,,,,down,0,0.378900001,,0.212962963,-0.175925926,1,0,0,0.5388,0,194,194,35,1,lust,images/br_lust.png,images/cb_lust.png,0,,,,,,,,,,,,,,,,,,,,,,
,,,,,,00111,2023-12-07_17h56.35.842,vbt_B2_day2,2022.2.4,Win32,60.16485169,,,,,,,,,,,,,,,,,,,,,,,,,,,down,0,1.446799999,,0.212962963,-0.175925926,1,0,0,0.500099999,0,195,195,60,1,jasje,images/br_jasje.png,images/cb_jasje.png,0,,,,,,,,,,,,,,,,,,,,,,
,,,,,,00111,2023-12-07_17h56.35.842,vbt_B2_day2,2022.2.4,Win32,60.16485169,,,,,,,,,,,,,,,,,,,,,,,,,,,down,0,2.1748,,0.212962963,-0.175925926,1,0,0,0.5002,0,196,196,173,1,apparaat,images/br_apparaat.png,images/cb_apparaat.png,0,,,,,,,,,,,,,,,,,,,,,,
,,,,,,00111,2023-12-07_17h56.35.842,vbt_B2_day2,2022.2.4,Win32,60.16485169,,,,,,,,,,,,,,,,,,,,,,,,,,,down,0,0.326200001,,0.212962963,-0.175925926,1,0,0,0.5199,0,197,197,64,1,wegen,images/br_wegen.png,images/cb_wegen.png,0,,,,,,,,,,,,,,,,,,,,,,
,,,,,,00111,2023-12-07_17h56.35.842,vbt_B2_day2,2022.2.4,Win32,60.16485169,,,,,,,,,,,,,,,,,,,,,,,,,,,down,0,4.4795,,0.212962963,-0.175925926,1,0,0,0.7973,0,198,198,190,1,goedkoop,images/br_goedkoop.png,images/cb_goedkoop.png,0,,,,,,,,,,,,,,,,,,,,,,
,,,,,,00111,2023-12-07_17h56.35.842,vbt_B2_day2,2022.2.4,Win32,60.16485169,,,,,,,,,,,,,,,,,,,,,,,,,,,down,0,1.104299999,,0.212962963,-0.175925926,1,0,0,0.565900001,0,199,199,80,1,kanjer,images/br_kanjer.png,images/cb_kanjer.png,0,,,,,,,,,,,,,,,,,,,,,,
,,,,,,00111,2023-12-07_17h56.35.842,vbt_B2_day2,2022.2.4,Win32,60.16485169,,,,,,,,,,,,,,,,,,,,,,,,,,,,,,,,,,,,,,,,,,,,,,,0.212962963,-0.175925926,1,0,0,,,,,,,,,,,,,,,,
,,,,,,00111,2023-12-07_17h56.35.842,vbt_B2_day2,2022.2.4,Win32,60.16485169,,,,,,,,,,,,,,,,,,,,,,,,,,,,,,,,,,,,,,,,,,,,,,,,,,,,0.212962963,-0.175925926,1,0,0,,,,,,,,,,,
,,,,,,00111,2023-12-07_17h56.35.842,vbt_B2_day2,2022.2.4,Win32,60.16485169,,,,,,,,,,,,,,,,,,,,,,,,,,,,,,,,,,,,,,,,,,heilig,images/br_heilig.png,images/cb_heilig.png,,heilig,,,,,,,,,,,0.389814871,-0.174074102,1,0,0,heilig,0,0,0,9,1
,,,,,,00111,2023-12-07_17h56.35.842,vbt_B2_day2,2022.2.4,Win32,60.16485169,,,,,,,,,,,,,,,,,,,,,,,,,,,,,,,,,,,,,,,,,,zegel,images/br_zegel.png,images/cb_zegel.png,,zegel,,,,,,,,,,,0.389814871,-0.174074102,1,0,0,zegel,0,1,1,46,1
,,,,,,00111,2023-12-07_17h56.35.842,vbt_B2_day2,2022.2.4,Win32,60.16485169,,,,,,,,,,,,,,,,,,,,,,,,,,,,,,,,,,,,,,,,,,zwager,images/br_zwager.png,images/cb_zwager.png,,zwager,,,,,,,,,,,0.389814871,-0.174074102,1,0,0,zwager,0,2,2,49,1
,,,,,,00111,2023-12-07_17h56.35.842,vbt_B2_day2,2022.2.4,Win32,60.16485169,,,,,,,,,,,,,,,,,,,,,,,,,,,,,,,,,,,,,,,,,,flits,images/br_flits.png,images/cb_flits.png,,flits,,,,,,,,,,,0.389814871,-0.174074102,1,0,0,flits,0,3,3,4,1
,,,,,,00111,2023-12-07_17h56.35.842,vbt_B2_day2,2022.2.4,Win32,60.16485169,,,,,,,,,,,,,,,,,,,,,,,,,,,,,,,,,,,,,,,,,,aanzien,images/br_aanzien.png,images/cb_aanzien.png,,aanzien,,,,,,,,,,,0.455555527,-0.077777792,1,0,0,aanzien,0,4,4,13,1
,,,,,,00111,2023-12-07_17h56.35.842,vbt_B2_day2,2022.2.4,Win32,60.16485169,,,,,,,,,,,,,,,,,,,,,,,,,,,,,,,,,,,,,,,,,,kasteel,images/br_kasteel.png,images/cb_kasteel.png,,kasteel,,,,,,,,,,,0.450000057,-0.175925926,1,0,0,kasteel,0,5,5,14,1
,,,,,,00111,2023-12-07_17h56.35.842,vbt_B2_day2,2022.2.4,Win32,60.16485169,,,,,,,,,,,,,,,,,,,,,,,,,,,,,,,,,,,,,,,,,,ningen,images/br_ningen.png,images/cb_ningen.png,,ningig,,,,,,,,,,,0.425000085,0.006481489,1,0,0,ningig,0,6,6,28,1
,,,,,,00111,2023-12-07_17h56.35.842,vbt_B2_day2,2022.2.4,Win32,60.16485169,,,,,,,,,,,,,,,,,,,,,,,,,,,,,,,,,,,,,,,,,,piste,images/br_piste.png,images/cb_piste.png,,piste,,,,,,,,,,,0.29814812,0.054629608,1,0,0,piste,0,7,7,5,1
,,,,,,00111,2023-12-07_17h56.35.842,vbt_B2_day2,2022.2.4,Win32,60.16485169,,,,,,,,,,,,,,,,,,,,,,,,,,,,,,,,,,,,,,,,,,moes,images/br_moes.png,images/cb_moes.png,,moes,,,,,,,,,,,0.373148176,0.055555556,1,0,0,moes,0,8,8,0,1
,,,,,,00111,2023-12-07_17h56.35.842,vbt_B2_day2,2022.2.4,Win32,60.16485169,,,,,,,,,,,,,,,,,,,,,,,,,,,,,,,,,,,,,,,,,,inzicht,images/br_inzicht.png,images/cb_inzicht.png,,ingicht,,,,,,,,,,,0.373148176,0.055555556,1,0,0,ingicht,0,9,9,53,1
,,,,,,00111,2023-12-07_17h56.35.842,vbt_B2_day2,2022.2.4,Win32,60.16485169,,,,,,,,,,,,,,,,,,,,,,,,,,,,,,,,,,,,,,,,,,toeval,images/br_toeval.png,images/cb_toeval.png,,toeval,,,,,,,,,,,0.373148176,0.055555556,1,0,0,toeval,0,10,10,11,1
,,,,,,00111,2023-12-07_17h56.35.842,vbt_B2_day2,2022.2.4,Win32,60.16485169,,,,,,,,,,,,,,,,,,,,,,,,,,,,,,,,,,,,,,,,,,sjijfel,images/br_sjijfel.png,images/cb_sjijfel.png,,sjij...,,,,,,,,,,,0.373148176,0.055555556,1,0,0,sjij...,0,11,11,33,1
,,,,,,00111,2023-12-07_17h56.35.842,vbt_B2_day2,2022.2.4,Win32,60.16485169,,,,,,,,,,,,,,,,,,,,,,,,,,,,,,,,,,,,,,,,,,welzijn,images/br_welzijn.png,images/cb_welzijn.png,,welzijn,,,,,,,,,,,0.373148176,0.055555556,1,0,0,welzijn,0,12,12,52,1
,,,,,,00111,2023-12-07_17h56.35.842,vbt_B2_day2,2022.2.4,Win32,60.16485169,,,,,,,,,,,,,,,,,,,,,,,,,,,,,,,,,,,,,,,,,,heengeen,images/br_heengeen.png,images/cb_heengeen.png,,heengeen,,,,,,,,,,,0.373148176,0.055555556,1,0,0,heengeen,0,13,13,38,1
,,,,,,00111,2023-12-07_17h56.35.842,vbt_B2_day2,2022.2.4,Win32,60.16485169,,,,,,,,,,,,,,,,,,,,,,,,,,,,,,,,,,,,,,,,,,eenhoorn,images/br_eenhoorn.png,images/cb_eenhoorn.png,,eenhoorn,,,,,,,,,,,0.373148176,0.055555556,1,0,0,eenhoorn,0,14,14,19,1
,,,,,,00111,2023-12-07_17h56.35.842,vbt_B2_day2,2022.2.4,Win32,60.16485169,,,,,,,,,,,,,,,,,,,,,,,,,,,,,,,,,,,,,,,,,,stes,images/br_stes.png,images/cb_stes.png,,stes,,,,,,,,,,,0.373148176,0.055555556,1,0,0,stes,0,15,15,21,1
,,,,,,00111,2023-12-07_17h56.35.842,vbt_B2_day2,2022.2.4,Win32,60.16485169,,,,,,,,,,,,,,,,,,,,,,,,,,,,,,,,,,,,,,,,,,anarchie,images/br_anarchie.png,images/cb_anarchie.png,,anarchie,,,,,,,,,,,0.373148176,0.055555556,1,0,0,anarchie,0,16,16,16,1
,,,,,,00111,2023-12-07_17h56.35.842,vbt_B2_day2,2022.2.4,Win32,60.16485169,,,,,,,,,,,,,,,,,,,,,,,,,,,,,,,,,,,,,,,,,,agressie,images/br_agressie.png,images/cb_agressie.png,,agressie,,,,,,,,,,,0.373148176,0.055555556,1,0,0,agressie,0,17,17,59,1
,,,,,,00111,2023-12-07_17h56.35.842,vbt_B2_day2,2022.2.4,Win32,60.16485169,,,,,,,,,,,,,,,,,,,,,,,,,,,,,,,,,,,,,,,,,,tweeling,images/br_tweeling.png,images/cb_tweeling.png,,tweeling,,,,,,,,,,,0.373148176,0.055555556,1,0,0,tweeling,0,18,18,58,1
,,,,,,00111,2023-12-07_17h56.35.842,vbt_B2_day2,2022.2.4,Win32,60.16485169,,,,,,,,,,,,,,,,,,,,,,,,,,,,,,,,,,,,,,,,,,feestdag,images/br_feestdag.png,images/cb_feestdag.png,,feeldrgd,,,,,,,,,,,0.380555612,-0.033333355,1,0,0,feeldrgd,0,19,19,17,1
,,,,,,00111,2023-12-07_17h56.35.842,vbt_B2_day2,2022.2.4,Win32,60.16485169,,,,,,,,,,,,,,,,,,,,,,,,,,,,,,,,,,,,,,,,,,strikken,images/br_strikken.png,images/cb_strikken.png,,strikken,,,,,,,,,,,0.380555612,-0.033333355,1,0,0,strikken,0,20,20,18,1
,,,,,,00111,2023-12-07_17h56.35.842,vbt_B2_day2,2022.2.4,Win32,60.16485169,,,,,,,,,,,,,,,,,,,,,,,,,,,,,,,,,,,,,,,,,,prekken,images/br_prekken.png,images/cb_prekken.png,,prekken,,,,,,,,,,,0.380555612,-0.033333355,1,0,0,prekken,0,21,21,34,1
,,,,,,00111,2023-12-07_17h56.35.842,vbt_B2_day2,2022.2.4,Win32,60.16485169,,,,,,,,,,,,,,,,,,,,,,,,,,,,,,,,,,,,,,,,,,zomers,images/br_zomers.png,images/cb_zomers.png,,zomers,,,,,,,,,,,0.380555612,-0.033333355,1,0,0,zomers,0,22,22,48,1
,,,,,,00111,2023-12-07_17h56.35.842,vbt_B2_day2,2022.2.4,Win32,60.16485169,,,,,,,,,,,,,,,,,,,,,,,,,,,,,,,,,,,,,,,,,,goon,images/br_goon.png,images/cb_goon.png,,goon,,,,,,,,,,,0.380555612,-0.033333355,1,0,0,goon,0,23,23,23,1
,,,,,,00111,2023-12-07_17h56.35.842,vbt_B2_day2,2022.2.4,Win32,60.16485169,,,,,,,,,,,,,,,,,,,,,,,,,,,,,,,,,,,,,,,,,,opdatten,images/br_opdatten.png,images/cb_opdatten.png,,opdatten,,,,,,,,,,,0.380555612,-0.033333355,1,0,0,opdatten,0,24,24,37,1
,,,,,,00111,2023-12-07_17h56.35.842,vbt_B2_day2,2022.2.4,Win32,60.16485169,,,,,,,,,,,,,,,,,,,,,,,,,,,,,,,,,,,,,,,,,,clan,images/br_clan.png,images/cb_clan.png,,clan,,,,,,,,,,,0.380555612,-0.033333355,1,0,0,clan,0,25,25,40,1
,,,,,,00111,2023-12-07_17h56.35.842,vbt_B2_day2,2022.2.4,Win32,60.16485169,,,,,,,,,,,,,,,,,,,,,,,,,,,,,,,,,,,,,,,,,,kenzis,images/br_kenzis.png,images/cb_kenzis.png,,kenzis,,,,,,,,,,,0.380555612,-0.033333355,1,0,0,kenzis,0,26,26,30,1
,,,,,,00111,2023-12-07_17h56.35.842,vbt_B2_day2,2022.2.4,Win32,60.16485169,,,,,,,,,,,,,,,,,,,,,,,,,,,,,,,,,,,,,,,,,,dode,images/br_dode.png,images/cb_dode.png,,dode,,,,,,,,,,,0.380555612,-0.033333355,1,0,0,dode,0,27,27,41,1
,,,,,,00111,2023-12-07_17h56.35.842,vbt_B2_day2,2022.2.4,Win32,60.16485169,,,,,,,,,,,,,,,,,,,,,,,,,,,,,,,,,,,,,,,,,,bloeien,images/br_bloeien.png,images/cb_bloeien.png,,bleien,,,,,,,,,,,0.380555612,-0.033333355,1,0,0,bleien,0,28,28,12,1
,,,,,,00111,2023-12-07_17h56.35.842,vbt_B2_day2,2022.2.4,Win32,60.16485169,,,,,,,,,,,,,,,,,,,,,,,,,,,,,,,,,,,,,,,,,,woning,images/br_woning.png,images/cb_woning.png,,woning,,,,,,,,,,,0.380555612,-0.033333355,1,0,0,woning,0,29,29,10,1
,,,,,,00111,2023-12-07_17h56.35.842,vbt_B2_day2,2022.2.4,Win32,60.16485169,,,,,,,,,,,,,,,,,,,,,,,,,,,,,,,,,,,,,,,,,,doodmoe,images/br_doodmoe.png,images/cb_doodmoe.png,,doodmoe,,,,,,,,,,,0.380555612,-0.033333355,1,0,0,doodmoe,0,30,30,15,1
,,,,,,00111,2023-12-07_17h56.35.842,vbt_B2_day2,2022.2.4,Win32,60.16485169,,,,,,,,,,,,,,,,,,,,,,,,,,,,,,,,,,,,,,,,,,lijnen,images/br_lijnen.png,images/cb_lijnen.png,,lijning,,,,,,,,,,,0.380555612,-0.033333355,1,0,0,lijning,0,31,31,51,1
,,,,,,00111,2023-12-07_17h56.35.842,vbt_B2_day2,2022.2.4,Win32,60.16485169,,,,,,,,,,,,,,,,,,,,,,,,,,,,,,,,,,,,,,,,,,sora,images/br_sora.png,images/cb_sora.png,,sora,,,,,,,,,,,0.380555612,-0.033333355,1,0,0,sora,0,32,32,22,1
,,,,,,00111,2023-12-07_17h56.35.842,vbt_B2_day2,2022.2.4,Win32,60.16485169,,,,,,,,,,,,,,,,,,,,,,,,,,,,,,,,,,,,,,,,,,diep,images/br_diep.png,images/cb_diep.png,,diep,,,,,,,,,,,0.380555612,-0.033333355,1,0,0,diep,0,33,33,2,1
,,,,,,00111,2023-12-07_17h56.35.842,vbt_B2_day2,2022.2.4,Win32,60.16485169,,,,,,,,,,,,,,,,,,,,,,,,,,,,,,,,,,,,,,,,,,geld,images/br_geld.png,images/cb_geld.png,,geld,,,,,,,,,,,0.380555612,-0.033333355,1,0,0,geld,0,34,34,3,1
,,,,,,00111,2023-12-07_17h56.35.842,vbt_B2_day2,2022.2.4,Win32,60.16485169,,,,,,,,,,,,,,,,,,,,,,,,,,,,,,,,,,,,,,,,,,breuk,images/br_breuk.png,images/cb_breuk.png,,breuk,,,,,,,,,,,0.380555612,-0.033333355,1,0,0,breuk,0,35,35,45,1
,,,,,,00111,2023-12-07_17h56.35.842,vbt_B2_day2,2022.2.4,Win32,60.16485169,,,,,,,,,,,,,,,,,,,,,,,,,,,,,,,,,,,,,,,,,,jagen,images/br_jagen.png,images/cb_jagen.png,,jagen,,,,,,,,,,,0.380555612,-0.033333355,1,0,0,jagen,0,36,36,6,1
,,,,,,00111,2023-12-07_17h56.35.842,vbt_B2_day2,2022.2.4,Win32,60.16485169,,,,,,,,,,,,,,,,,,,,,,,,,,,,,,,,,,,,,,,,,,manieren,images/br_manieren.png,images/cb_manieren.png,,manierin,,,,,,,,,,,0.380555612,-0.033333355,1,0,0,manierin,0,37,37,56,1
,,,,,,00111,2023-12-07_17h56.35.842,vbt_B2_day2,2022.2.4,Win32,60.16485169,,,,,,,,,,,,,,,,,,,,,,,,,,,,,,,,,,,,,,,,,,systeem,images/br_systeem.png,images/cb_systeem.png,,systeem,,,,,,,,,,,0.380555612,-0.033333355,1,0,0,systeem,0,38,38,54,1
,,,,,,00111,2023-12-07_17h56.35.842,vbt_B2_day2,2022.2.4,Win32,60.16485169,,,,,,,,,,,,,,,,,,,,,,,,,,,,,,,,,,,,,,,,,,tand,images/br_tand.png,images/cb_tand.png,,tand,,,,,,,,,,,0.380555612,-0.033333355,1,0,0,tand,0,39,39,42,1
,,,,,,00111,2023-12-07_17h56.35.842,vbt_B2_day2,2022.2.4,Win32,60.16485169,,,,,,,,,,,,,,,,,,,,,,,,,,,,,,,,,,,,,,,,,,badon,images/br_badon.png,images/cb_badon.png,,badom,,,,,,,,,,,0.380555612,-0.033333355,1,0,0,badom,0,40,40,26,1
,,,,,,00111,2023-12-07_17h56.35.842,vbt_B2_day2,2022.2.4,Win32,60.16485169,,,,,,,,,,,,,,,,,,,,,,,,,,,,,,,,,,,,,,,,,,jong,images/br_jong.png,images/cb_jong.png,,jong,,,,,,,,,,,0.380555612,-0.033333355,1,0,0,jong,0,41,41,43,1
,,,,,,00111,2023-12-07_17h56.35.842,vbt_B2_day2,2022.2.4,Win32,60.16485169,,,,,,,,,,,,,,,,,,,,,,,,,,,,,,,,,,,,,,,,,,bereuwen,images/br_bereuwen.png,images/cb_bereuwen.png,,bereuwen,,,,,,,,,,,0.380555612,-0.033333355,1,0,0,bereuwen,0,42,42,39,1
,,,,,,00111,2023-12-07_17h56.35.842,vbt_B2_day2,2022.2.4,Win32,60.16485169,,,,,,,,,,,,,,,,,,,,,,,,,,,,,,,,,,,,,,,,,,plannen,images/br_plannen.png,images/cb_plannen.png,,plannen,,,,,,,,,,,0.380555612,-0.033333355,1,0,0,plannen,0,43,43,55,1
,,,,,,00111,2023-12-07_17h56.35.842,vbt_B2_day2,2022.2.4,Win32,60.16485169,,,,,,,,,,,,,,,,,,,,,,,,,,,,,,,,,,,,,,,,,,aanvraag,images/br_aanvraag.png,images/cb_aanvraag.png,,aanvraag,,,,,,,,,,,0.380555612,-0.033333355,1,0,0,aanvraag,0,44,44,57,1
,,,,,,00111,2023-12-07_17h56.35.842,vbt_B2_day2,2022.2.4,Win32,60.16485169,,,,,,,,,,,,,,,,,,,,,,,,,,,,,,,,,,,,,,,,,,kabel,images/br_kabel.png,images/cb_kabel.png,,kabel,,,,,,,,,,,0.380555612,-0.033333355,1,0,0,kabel,0,45,45,7,1
,,,,,,00111,2023-12-07_17h56.35.842,vbt_B2_day2,2022.2.4,Win32,60.16485169,,,,,,,,,,,,,,,,,,,,,,,,,,,,,,,,,,,,,,,,,,remel,images/br_remel.png,images/cb_remel.png,,remel,,,,,,,,,,,0.380555612,-0.033333355,1,0,0,remel,0,46,46,25,1
,,,,,,00111,2023-12-07_17h56.35.842,vbt_B2_day2,2022.2.4,Win32,60.16485169,,,,,,,,,,,,,,,,,,,,,,,,,,,,,,,,,,,,,,,,,,krimmen,images/br_krimmen.png,images/cb_krimmen.png,,krimmen,,,,,,,,,,,0.380555612,-0.033333355,1,0,0,krimmen,0,47,47,35,1
,,,,,,00111,2023-12-07_17h56.35.842,vbt_B2_day2,2022.2.4,Win32,60.16485169,,,,,,,,,,,,,,,,,,,,,,,,,,,,,,,,,,,,,,,,,,lokken,images/br_lokken.png,images/cb_lokken.png,,lokken,,,,,,,,,,,0.380555612,-0.033333355,1,0,0,lokken,0,48,48,8,1
,,,,,,00111,2023-12-07_17h56.35.842,vbt_B2_day2,2022.2.4,Win32,60.16485169,,,,,,,,,,,,,,,,,,,,,,,,,,,,,,,,,,,,,,,,,,blad,images/br_blad.png,images/cb_blad.png,,blad,,,,,,,,,,,0.380555612,-0.033333355,1,0,0,blad,0,49,49,1,1
,,,,,,00111,2023-12-07_17h56.35.842,vbt_B2_day2,2022.2.4,Win32,60.16485169,,,,,,,,,,,,,,,,,,,,,,,,,,,,,,,,,,,,,,,,,,lurgen,images/br_lurgen.png,images/cb_lurgen.png,,lurgen,,,,,,,,,,,0.380555612,-0.033333355,1,0,0,lurgen,0,50,50,29,1
,,,,,,00111,2023-12-07_17h56.35.842,vbt_B2_day2,2022.2.4,Win32,60.16485169,,,,,,,,,,,,,,,,,,,,,,,,,,,,,,,,,,,,,,,,,,thema,images/br_thema.png,images/cb_thema.png,,themr,,,,,,,,,,,0.383333418,-0.062962956,1,0,0,themr,0,51,51,47,1
,,,,,,00111,2023-12-07_17h56.35.842,vbt_B2_day2,2022.2.4,Win32,60.16485169,,,,,,,,,,,,,,,,,,,,,,,,,,,,,,,,,,,,,,,,,,koorts,images/br_koorts.png,images/cb_koorts.png,,koorts,,,,,,,,,,,0.383333418,-0.062962956,1,0,0,koorts,0,52,52,50,1
,,,,,,00111,2023-12-07_17h56.35.842,vbt_B2_day2,2022.2.4,Win32,60.16485169,,,,,,,,,,,,,,,,,,,,,,,,,,,,,,,,,,,,,,,,,,ophuimen,images/br_ophuimen.png,images/cb_ophuimen.png,,ophuimen,,,,,,,,,,,0.383333418,-0.062962956,1,0,0,ophuimen,0,53,53,36,1
,,,,,,00111,2023-12-07_17h56.35.842,vbt_B2_day2,2022.2.4,Win32,60.16485169,,,,,,,,,,,,,,,,,,,,,,,,,,,,,,,,,,,,,,,,,,trots,images/br_trots.png,images/cb_trots.png,,trots,,,,,,,,,,,0.487962935,0.01203703,1,0,0,trots,0,54,54,44,1
,,,,,,00111,2023-12-07_17h56.35.842,vbt_B2_day2,2022.2.4,Win32,60.16485169,,,,,,,,,,,,,,,,,,,,,,,,,,,,,,,,,,,,,,,,,,sifferd,images/br_sifferd.png,images/cb_sifferd.png,,siffren,,,,,,,,,,,0.514814871,-0.08888891,1,0,0,siffren,0,55,55,32,1
,,,,,,00111,2023-12-07_17h56.35.842,vbt_B2_day2,2022.2.4,Win32,60.16485169,,,,,,,,,,,,,,,,,,,,,,,,,,,,,,,,,,,,,,,,,,wijve,images/br_wijve.png,images/cb_wijve.png,,wijve,,,,,,,,,,,0.514814871,-0.08888891,1,0,0,wijve,0,56,56,27,1
,,,,,,00111,2023-12-07_17h56.35.842,vbt_B2_day2,2022.2.4,Win32,60.16485169,,,,,,,,,,,,,,,,,,,,,,,,,,,,,,,,,,,,,,,,,,negel,images/br_negel.png,images/cb_negel.png,,negel,,,,,,,,,,,0.514814871,-0.08888891,1,0,0,negel,0,57,57,24,1
,,,,,,00111,2023-12-07_17h56.35.842,vbt_B2_day2,2022.2.4,Win32,60.16485169,,,,,,,,,,,,,,,,,,,,,,,,,,,,,,,,,,,,,,,,,,kijlen,images/br_kijlen.png,images/cb_kijlen.png,,kijlen,,,,,,,,,,,0.514814871,-0.08888891,1,0,0,kijlen,0,58,58,31,1
,,,,,,00111,2023-12-07_17h56.35.842,vbt_B2_day2,2022.2.4,Win32,60.16485169,,,,,,,,,,,,,,,,,,,,,,,,,,,,,,,,,,,,,,,,,,joes,images/br_joes.png,images/cb_joes.png,,joes,,,,,,,,,,,0.514814871,-0.08888891,1,0,0,joes,0,59,59,20,1
,,,,,,00111,2023-12-07_17h56.35.842,vbt_B2_day2,2022.2.4,Win32,60.16485169,,,,,,,,,,,,,,,,,,,,,,,,,,,,,,,,,,,,,,,,,,,,,,,,,,,,,,,,,,,,,,,,,,,
