welcome_mouse.x,welcome_mouse.y,welcome_mouse.leftButton,welcome_mouse.midButton,welcome_mouse.rightButton,welcome_mouse.time,"ID",date,expName,psychopyVersion,OS,frameRate,refresh_mouse.x,refresh_mouse.y,refresh_mouse.leftButton,refresh_mouse.midButton,refresh_mouse.rightButton,refresh_mouse.time,braille_mouse.x,braille_mouse.y,braille_mouse.leftButton,braille_mouse.midButton,braille_mouse.rightButton,braille_mouse.time,trials.thisRepN,trials.thisTrialN,trials.thisN,trials.thisIndex,trials.ran,nlLet,brLet,cbLet,trainInstr_mouse.x,trainInstr_mouse.y,trainInstr_mouse.leftButton,trainInstr_mouse.midButton,trainInstr_mouse.rightButton,trainInstr_mouse.time,translation_key.keys,translation_key.corr,translation_key.rt,word_rsp.text,word_mouse.x,word_mouse.y,word_mouse.leftButton,word_mouse.midButton,word_mouse.rightButton,word_mouse.time,train_loop.thisRepN,train_loop.thisTrialN,train_loop.thisN,train_loop.thisIndex,train_loop.ran,nlWrd,brWrd,cbWrd,test,testResp,mouse.x,mouse.y,mouse.leftButton,mouse.midButton,mouse.rightButton,testInstr_mouse.x,testInstr_mouse.y,testInstr_mouse.leftButton,testInstr_mouse.midButton,testInstr_mouse.rightButton,test_mouse.x,test_mouse.y,test_mouse.leftButton,test_mouse.midButton,test_mouse.rightButton,test_response.text,test_loop.thisRepN,test_loop.thisTrialN,test_loop.thisN,test_loop.thisIndex,test_loop.ran
-0.06759255,-0.122222265,1,0,0,2.8202,00097,2023-11-07_10h00.57.913,vbt_B2_day2,2022.2.4,Win32,143.9884809,,,,,,,,,,,,,,,,,,,,,,,,,,,,,,,,,,,,,,,,,,,,,,,,,,,,,,,,,,,,,,,,,,,
,,,,,,00097,2023-11-07_10h00.57.913,vbt_B2_day2,2022.2.4,Win32,143.9884809,0.018518519,-0.19722225,1,0,0,1.6879,,,,,,,,,,,,,,,,,,,,,,,,,,,,,,,,,,,,,,,,,,,,,,,,,,,,,,,,,,,,,
,,,,,,00097,2023-11-07_10h00.57.913,vbt_B2_day2,2022.2.4,Win32,143.9884809,,,,,,,0.018518519,-0.19722225,0,0,1,0.1249,0,0,0,15,1,p,images/br_p.png,images/cb_p.png,,,,,,,,,,,,,,,,,,,,,,,,,,,,,,,,,,,,,,,,,,,,,,,
,,,,,,00097,2023-11-07_10h00.57.913,vbt_B2_day2,2022.2.4,Win32,143.9884809,,,,,,,0.018518519,-0.19722225,0,0,1,0.118,0,1,1,13,1,n,images/br_n.png,images/cb_n.png,,,,,,,,,,,,,,,,,,,,,,,,,,,,,,,,,,,,,,,,,,,,,,,
,,,,,,00097,2023-11-07_10h00.57.913,vbt_B2_day2,2022.2.4,Win32,143.9884809,,,,,,,0.01944443,-0.198148162,1,0,0,0.2311,0,2,2,9,1,j,images/br_j.png,images/cb_j.png,,,,,,,,,,,,,,,,,,,,,,,,,,,,,,,,,,,,,,,,,,,,,,,
,,,,,,00097,2023-11-07_10h00.57.913,vbt_B2_day2,2022.2.4,Win32,143.9884809,,,,,,,0.01944443,-0.198148162,1,0,0,0.081,0,3,3,23,1,x,images/br_x.png,images/cb_x.png,,,,,,,,,,,,,,,,,,,,,,,,,,,,,,,,,,,,,,,,,,,,,,,
,,,,,,00097,2023-11-07_10h00.57.913,vbt_B2_day2,2022.2.4,Win32,143.9884809,,,,,,,0.01944443,-0.198148162,1,0,0,0.0136,0,4,4,3,1,d,images/br_d.png,images/cb_d.png,,,,,,,,,,,,,,,,,,,,,,,,,,,,,,,,,,,,,,,,,,,,,,,
,,,,,,00097,2023-11-07_10h00.57.913,vbt_B2_day2,2022.2.4,Win32,143.9884809,,,,,,,0.01944443,-0.198148162,1,0,0,0.4076,0,5,5,22,1,w,images/br_w.png,images/cb_w.png,,,,,,,,,,,,,,,,,,,,,,,,,,,,,,,,,,,,,,,,,,,,,,,
,,,,,,00097,2023-11-07_10h00.57.913,vbt_B2_day2,2022.2.4,Win32,143.9884809,,,,,,,0.01944443,-0.198148162,1,0,0,0.2015,0,6,6,19,1,t,images/br_t.png,images/cb_t.png,,,,,,,,,,,,,,,,,,,,,,,,,,,,,,,,,,,,,,,,,,,,,,,
,,,,,,00097,2023-11-07_10h00.57.913,vbt_B2_day2,2022.2.4,Win32,143.9884809,,,,,,,0.01944443,-0.198148162,1,0,0,0.0717,0,7,7,16,1,q,images/br_q.png,images/cb_q.png,,,,,,,,,,,,,,,,,,,,,,,,,,,,,,,,,,,,,,,,,,,,,,,
,,,,,,00097,2023-11-07_10h00.57.913,vbt_B2_day2,2022.2.4,Win32,143.9884809,,,,,,,0.01944443,-0.198148162,1,0,0,0.3299,0,8,8,25,1,z,images/br_z.png,images/cb_z.png,,,,,,,,,,,,,,,,,,,,,,,,,,,,,,,,,,,,,,,,,,,,,,,
,,,,,,00097,2023-11-07_10h00.57.913,vbt_B2_day2,2022.2.4,Win32,143.9884809,,,,,,,0.01944443,-0.198148162,1,0,0,0.2503,0,9,9,21,1,v,images/br_v.png,images/cb_v.png,,,,,,,,,,,,,,,,,,,,,,,,,,,,,,,,,,,,,,,,,,,,,,,
,,,,,,00097,2023-11-07_10h00.57.913,vbt_B2_day2,2022.2.4,Win32,143.9884809,,,,,,,0.01944443,-0.198148162,0,0,1,0.1346,0,10,10,10,1,k,images/br_k.png,images/cb_k.png,,,,,,,,,,,,,,,,,,,,,,,,,,,,,,,,,,,,,,,,,,,,,,,
,,,,,,00097,2023-11-07_10h00.57.913,vbt_B2_day2,2022.2.4,Win32,143.9884809,,,,,,,0.01944443,-0.198148162,1,0,0,0.1042,0,11,11,1,1,b,images/br_b.png,images/cb_b.png,,,,,,,,,,,,,,,,,,,,,,,,,,,,,,,,,,,,,,,,,,,,,,,
,,,,,,00097,2023-11-07_10h00.57.913,vbt_B2_day2,2022.2.4,Win32,143.9884809,,,,,,,0.01944443,-0.198148162,0,0,1,0.11,0,12,12,5,1,f,images/br_f.png,images/cb_f.png,,,,,,,,,,,,,,,,,,,,,,,,,,,,,,,,,,,,,,,,,,,,,,,
,,,,,,00097,2023-11-07_10h00.57.913,vbt_B2_day2,2022.2.4,Win32,143.9884809,,,,,,,0.015740783,-0.163888931,0,0,1,0.0467,0,13,13,8,1,i,images/br_i.png,images/cb_i.png,,,,,,,,,,,,,,,,,,,,,,,,,,,,,,,,,,,,,,,,,,,,,,,
,,,,,,00097,2023-11-07_10h00.57.913,vbt_B2_day2,2022.2.4,Win32,143.9884809,,,,,,,0.166666667,-0.08425928,1,0,0,0.0979,0,14,14,4,1,e,images/br_e.png,images/cb_e.png,,,,,,,,,,,,,,,,,,,,,,,,,,,,,,,,,,,,,,,,,,,,,,,
,,,,,,00097,2023-11-07_10h00.57.913,vbt_B2_day2,2022.2.4,Win32,143.9884809,,,,,,,0.166666667,-0.08425928,1,0,0,0.3196,0,15,15,18,1,s,images/br_s.png,images/cb_s.png,,,,,,,,,,,,,,,,,,,,,,,,,,,,,,,,,,,,,,,,,,,,,,,
,,,,,,00097,2023-11-07_10h00.57.913,vbt_B2_day2,2022.2.4,Win32,143.9884809,,,,,,,0.166666667,-0.08425928,1,0,0,0.419,0,16,16,11,1,l,images/br_l.png,images/cb_l.png,,,,,,,,,,,,,,,,,,,,,,,,,,,,,,,,,,,,,,,,,,,,,,,
,,,,,,00097,2023-11-07_10h00.57.913,vbt_B2_day2,2022.2.4,Win32,143.9884809,,,,,,,0.166666667,-0.08425928,1,0,0,0.6504,0,17,17,12,1,m,images/br_m.png,images/cb_m.png,,,,,,,,,,,,,,,,,,,,,,,,,,,,,,,,,,,,,,,,,,,,,,,
,,,,,,00097,2023-11-07_10h00.57.913,vbt_B2_day2,2022.2.4,Win32,143.9884809,,,,,,,0.166666667,-0.08425928,0,0,1,0.8664,0,18,18,7,1,h,images/br_h.png,images/cb_h.png,,,,,,,,,,,,,,,,,,,,,,,,,,,,,,,,,,,,,,,,,,,,,,,
,,,,,,00097,2023-11-07_10h00.57.913,vbt_B2_day2,2022.2.4,Win32,143.9884809,,,,,,,0.166666667,-0.08425928,1,0,0,0.1395,0,19,19,17,1,r,images/br_r.png,images/cb_r.png,,,,,,,,,,,,,,,,,,,,,,,,,,,,,,,,,,,,,,,,,,,,,,,
,,,,,,00097,2023-11-07_10h00.57.913,vbt_B2_day2,2022.2.4,Win32,143.9884809,,,,,,,0.166666667,-0.08425928,1,0,0,0.7369,0,20,20,14,1,o,images/br_o.png,images/cb_o.png,,,,,,,,,,,,,,,,,,,,,,,,,,,,,,,,,,,,,,,,,,,,,,,
,,,,,,00097,2023-11-07_10h00.57.913,vbt_B2_day2,2022.2.4,Win32,143.9884809,,,,,,,0.166666667,-0.08425928,1,0,0,0.2852,0,21,21,0,1,a,images/br_a.png,images/cb_a.png,,,,,,,,,,,,,,,,,,,,,,,,,,,,,,,,,,,,,,,,,,,,,,,
,,,,,,00097,2023-11-07_10h00.57.913,vbt_B2_day2,2022.2.4,Win32,143.9884809,,,,,,,0.166666667,-0.08425928,1,0,0,0.1466,0,22,22,24,1,y,images/br_y.png,images/cb_y.png,,,,,,,,,,,,,,,,,,,,,,,,,,,,,,,,,,,,,,,,,,,,,,,
,,,,,,00097,2023-11-07_10h00.57.913,vbt_B2_day2,2022.2.4,Win32,143.9884809,,,,,,,0.165740755,-0.079629651,1,0,0,1.0602,0,23,23,20,1,u,images/br_u.png,images/cb_u.png,,,,,,,,,,,,,,,,,,,,,,,,,,,,,,,,,,,,,,,,,,,,,,,
,,,,,,00097,2023-11-07_10h00.57.913,vbt_B2_day2,2022.2.4,Win32,143.9884809,,,,,,,0.165740755,-0.079629651,1,0,0,0.1355,0,24,24,6,1,g,images/br_g.png,images/cb_g.png,,,,,,,,,,,,,,,,,,,,,,,,,,,,,,,,,,,,,,,,,,,,,,,
,,,,,,00097,2023-11-07_10h00.57.913,vbt_B2_day2,2022.2.4,Win32,143.9884809,,,,,,,0.165740755,-0.079629651,1,0,0,0.6284,0,25,25,2,1,c,images/br_c.png,images/cb_c.png,,,,,,,,,,,,,,,,,,,,,,,,,,,,,,,,,,,,,,,,,,,,,,,
,,,,,,00097,2023-11-07_10h00.57.913,vbt_B2_day2,2022.2.4,Win32,143.9884809,,,,,,,,,,,,,,,,,,,,,0.165740755,-0.079629651,1,0,0,0.1421,,,,,,,,,,,,,,,,,,,,,,,,,,,,,,,,,,,,,,,,,
,,,,,,00097,2023-11-07_10h00.57.913,vbt_B2_day2,2022.2.4,Win32,143.9884809,,,,,,,,,,,,,,,,,,,,,,,,,,,down,0,15.1408,,0.108333376,-0.106481481,1,0,0,2.008,0,0,0,141,1,knielen,images/br_knielen.png,images/cb_knielen.png,0,,,,,,,,,,,,,,,,,,,,,,
,,,,,,00097,2023-11-07_10h00.57.913,vbt_B2_day2,2022.2.4,Win32,143.9884809,,,,,,,,,,,,,,,,,,,,,,,,,,,down,0,2.1057,,0.108333376,-0.106481481,1,0,0,0.503,0,1,1,17,1,taal,images/br_taal.png,images/cb_taal.png,1,taal,,,,,,,,,,,,,,,,,,,,,
,,,,,,00097,2023-11-07_10h00.57.913,vbt_B2_day2,2022.2.4,Win32,143.9884809,,,,,,,,,,,,,,,,,,,,,,,,,,,down,0,0.2388,,0.108333376,-0.106481481,1,0,0,0.7521,0,2,2,190,1,goedkoop,images/br_goedkoop.png,images/cb_goedkoop.png,0,,,,,,,,,,,,,,,,,,,,,,
,,,,,,00097,2023-11-07_10h00.57.913,vbt_B2_day2,2022.2.4,Win32,143.9884809,,,,,,,,,,,,,,,,,,,,,,,,,,,down,0,0.4239,,0.108333376,-0.106481481,1,0,0,0.4487,0,3,3,41,1,maken,images/br_maken.png,images/cb_maken.png,0,,,,,,,,,,,,,,,,,,,,,,
,,,,,,00097,2023-11-07_10h00.57.913,vbt_B2_day2,2022.2.4,Win32,143.9884809,,,,,,,,,,,,,,,,,,,,,,,,,,,down,0,3.44,,0.108333376,-0.106481481,1,0,0,3.8372,0,4,4,92,1,geheim,images/br_geheim.png,images/cb_geheim.png,0,,,,,,,,,,,,,,,,,,,,,,
,,,,,,00097,2023-11-07_10h00.57.913,vbt_B2_day2,2022.2.4,Win32,143.9884809,,,,,,,,,,,,,,,,,,,,,,,,,,,down,0,0.3197,,0.108333376,-0.106481481,1,0,0,0.493,0,5,5,77,1,woede,images/br_woede.png,images/cb_woede.png,0,,,,,,,,,,,,,,,,,,,,,,
,,,,,,00097,2023-11-07_10h00.57.913,vbt_B2_day2,2022.2.4,Win32,143.9884809,,,,,,,,,,,,,,,,,,,,,,,,,,,down,0,1.8782,,0.108333376,-0.106481481,1,0,0,0.2709,0,6,6,96,1,slagen,images/br_slagen.png,images/cb_slagen.png,1,slagen,,,,,,,,,,,,,,,,,,,,,
,,,,,,00097,2023-11-07_10h00.57.913,vbt_B2_day2,2022.2.4,Win32,143.9884809,,,,,,,,,,,,,,,,,,,,,,,,,,,down,0,0.3705,,0.108333376,-0.106481481,1,0,0,0.5208,0,7,7,22,1,stof,images/br_stof.png,images/cb_stof.png,0,,,,,,,,,,,,,,,,,,,,,,
,,,,,,00097,2023-11-07_10h00.57.913,vbt_B2_day2,2022.2.4,Win32,143.9884809,,,,,,,,,,,,,,,,,,,,,,,,,,,down,0,0.354,,0.108333376,-0.106481481,1,0,0,0.4999,0,8,8,163,1,schuilen,images/br_schuilen.png,images/cb_schuilen.png,0,,,,,,,,,,,,,,,,,,,,,,
,,,,,,00097,2023-11-07_10h00.57.913,vbt_B2_day2,2022.2.4,Win32,143.9884809,,,,,,,,,,,,,,,,,,,,,,,,,,,down,0,0.1839,,0.108333376,-0.106481481,1,0,0,0.3933,0,9,9,34,1,vorm,images/br_vorm.png,images/cb_vorm.png,0,,,,,,,,,,,,,,,,,,,,,,
,,,,,,00097,2023-11-07_10h00.57.913,vbt_B2_day2,2022.2.4,Win32,143.9884809,,,,,,,,,,,,,,,,,,,,,,,,,,,down,0,0.3145,,0.108333376,-0.106481481,1,0,0,0.5195,0,10,10,195,1,middelen,images/br_middelen.png,images/cb_middelen.png,0,,,,,,,,,,,,,,,,,,,,,,
,,,,,,00097,2023-11-07_10h00.57.913,vbt_B2_day2,2022.2.4,Win32,143.9884809,,,,,,,,,,,,,,,,,,,,,,,,,,,down,0,0.2997,,0.108333376,-0.106481481,1,0,0,0.5283,0,11,11,61,1,groen,images/br_groen.png,images/cb_groen.png,0,,,,,,,,,,,,,,,,,,,,,,
,,,,,,00097,2023-11-07_10h00.57.913,vbt_B2_day2,2022.2.4,Win32,143.9884809,,,,,,,,,,,,,,,,,,,,,,,,,,,down,0,2.7848,,0.108333376,-0.106481481,1,0,0,0.2541,0,12,12,59,1,kring,images/br_kring.png,images/cb_kring.png,1,kring,,,,,,,,,,,,,,,,,,,,,
,,,,,,00097,2023-11-07_10h00.57.913,vbt_B2_day2,2022.2.4,Win32,143.9884809,,,,,,,,,,,,,,,,,,,,,,,,,,,down,0,0.4158,,0.108333376,-0.106481481,1,0,0,0.3986,0,13,13,45,1,piste,images/br_piste.png,images/cb_piste.png,0,,,,,,,,,,,,,,,,,,,,,,
,,,,,,00097,2023-11-07_10h00.57.913,vbt_B2_day2,2022.2.4,Win32,143.9884809,,,,,,,,,,,,,,,,,,,,,,,,,,,down,0,0.3947,,0.108333376,-0.106481481,1,0,0,0.4097,0,14,14,134,1,geliefd,images/br_geliefd.png,images/cb_geliefd.png,0,,,,,,,,,,,,,,,,,,,,,,
,,,,,,00097,2023-11-07_10h00.57.913,vbt_B2_day2,2022.2.4,Win32,143.9884809,,,,,,,,,,,,,,,,,,,,,,,,,,,down,0,0.2632,,0.108333376,-0.106481481,1,0,0,0.3501,0,15,15,171,1,aarzelen,images/br_aarzelen.png,images/cb_aarzelen.png,0,,,,,,,,,,,,,,,,,,,,,,
,,,,,,00097,2023-11-07_10h00.57.913,vbt_B2_day2,2022.2.4,Win32,143.9884809,,,,,,,,,,,,,,,,,,,,,,,,,,,down,0,0.1567,,0.108333376,-0.106481481,1,0,0,0.3638,0,16,16,83,1,mening,images/br_mening.png,images/cb_mening.png,0,,,,,,,,,,,,,,,,,,,,,,
,,,,,,00097,2023-11-07_10h00.57.913,vbt_B2_day2,2022.2.4,Win32,143.9884809,,,,,,,,,,,,,,,,,,,,,,,,,,,down,0,0.2295,,0.108333376,-0.106481481,1,0,0,0.3793,0,17,17,84,1,lokken,images/br_lokken.png,images/cb_lokken.png,0,,,,,,,,,,,,,,,,,,,,,,
,,,,,,00097,2023-11-07_10h00.57.913,vbt_B2_day2,2022.2.4,Win32,143.9884809,,,,,,,,,,,,,,,,,,,,,,,,,,,down,0,2.6101,,0.108333376,-0.106481481,1,0,0,0.3012,0,18,18,138,1,akkoord,images/br_akkoord.png,images/cb_akkoord.png,1,akkoord,,,,,,,,,,,,,,,,,,,,,
,,,,,,00097,2023-11-07_10h00.57.913,vbt_B2_day2,2022.2.4,Win32,143.9884809,,,,,,,,,,,,,,,,,,,,,,,,,,,down,0,0.0847,,0.108333376,-0.106481481,1,0,0,0.4362,0,19,19,38,1,baai,images/br_baai.png,images/cb_baai.png,0,,,,,,,,,,,,,,,,,,,,,,
,,,,,,00097,2023-11-07_10h00.57.913,vbt_B2_day2,2022.2.4,Win32,143.9884809,,,,,,,,,,,,,,,,,,,,,,,,,,,down,0,57.5046,,0.108333376,-0.106481481,1,0,0,0.5209,0,20,20,182,1,bijkomen,images/br_bijkomen.png,images/cb_bijkomen.png,0,,,,,,,,,,,,,,,,,,,,,,
,,,,,,00097,2023-11-07_10h00.57.913,vbt_B2_day2,2022.2.4,Win32,143.9884809,,,,,,,,,,,,,,,,,,,,,,,,,,,down,0,0.2775,,0.108333376,-0.106481481,1,0,0,0.32,0,21,21,14,1,rijp,images/br_rijp.png,images/cb_rijp.png,0,,,,,,,,,,,,,,,,,,,,,,
,,,,,,00097,2023-11-07_10h00.57.913,vbt_B2_day2,2022.2.4,Win32,143.9884809,,,,,,,,,,,,,,,,,,,,,,,,,,,down,0,0.2022,,0.108333376,-0.106481481,1,0,0,0.3595,0,22,22,124,1,bloeien,images/br_bloeien.png,images/cb_bloeien.png,0,,,,,,,,,,,,,,,,,,,,,,
,,,,,,00097,2023-11-07_10h00.57.913,vbt_B2_day2,2022.2.4,Win32,143.9884809,,,,,,,,,,,,,,,,,,,,,,,,,,,down,0,0.1806,,0.108333376,-0.106481481,1,0,0,0.3264,0,23,23,192,1,schaamte,images/br_schaamte.png,images/cb_schaamte.png,0,,,,,,,,,,,,,,,,,,,,,,
,,,,,,00097,2023-11-07_10h00.57.913,vbt_B2_day2,2022.2.4,Win32,143.9884809,,,,,,,,,,,,,,,,,,,,,,,,,,,down,0,0.2606,,0.108333376,-0.106481481,1,0,0,0.3098,0,24,24,15,1,soda,images/br_soda.png,images/cb_soda.png,0,,,,,,,,,,,,,,,,,,,,,,
,,,,,,00097,2023-11-07_10h00.57.913,vbt_B2_day2,2022.2.4,Win32,143.9884809,,,,,,,,,,,,,,,,,,,,,,,,,,,down,0,0.515,,0.108333376,-0.106481481,1,0,0,0.5235,0,25,25,3,1,mand,images/br_mand.png,images/cb_mand.png,0,,,,,,,,,,,,,,,,,,,,,,
,,,,,,00097,2023-11-07_10h00.57.913,vbt_B2_day2,2022.2.4,Win32,143.9884809,,,,,,,,,,,,,,,,,,,,,,,,,,,down,0,0.1613,,0.108333376,-0.106481481,1,0,0,0.385,0,26,26,52,1,wagon,images/br_wagon.png,images/cb_wagon.png,0,,,,,,,,,,,,,,,,,,,,,,
,,,,,,00097,2023-11-07_10h00.57.913,vbt_B2_day2,2022.2.4,Win32,143.9884809,,,,,,,,,,,,,,,,,,,,,,,,,,,down,0,0.2006,,0.108333376,-0.106481481,1,0,0,0.343,0,27,27,188,1,strekken,images/br_strekken.png,images/cb_strekken.png,0,,,,,,,,,,,,,,,,,,,,,,
,,,,,,00097,2023-11-07_10h00.57.913,vbt_B2_day2,2022.2.4,Win32,143.9884809,,,,,,,,,,,,,,,,,,,,,,,,,,,down,0,0.2303,,0.108333376,-0.106481481,1,0,0,0.3346,0,28,28,0,1,slak,images/br_slak.png,images/cb_slak.png,0,,,,,,,,,,,,,,,,,,,,,,
,,,,,,00097,2023-11-07_10h00.57.913,vbt_B2_day2,2022.2.4,Win32,143.9884809,,,,,,,,,,,,,,,,,,,,,,,,,,,down,0,0.2118,,0.108333376,-0.106481481,1,0,0,0.2987,0,29,29,145,1,invloed,images/br_invloed.png,images/cb_invloed.png,0,,,,,,,,,,,,,,,,,,,,,,
,,,,,,00097,2023-11-07_10h00.57.913,vbt_B2_day2,2022.2.4,Win32,143.9884809,,,,,,,,,,,,,,,,,,,,,,,,,,,down,0,0.2785,,0.108333376,-0.106481481,1,0,0,0.3054,0,30,30,28,1,stal,images/br_stal.png,images/cb_stal.png,0,,,,,,,,,,,,,,,,,,,,,,
,,,,,,00097,2023-11-07_10h00.57.913,vbt_B2_day2,2022.2.4,Win32,143.9884809,,,,,,,,,,,,,,,,,,,,,,,,,,,down,0,0.2699,,0.108333376,-0.106481481,1,0,0,0.331,0,31,31,12,1,kust,images/br_kust.png,images/cb_kust.png,0,,,,,,,,,,,,,,,,,,,,,,
,,,,,,00097,2023-11-07_10h00.57.913,vbt_B2_day2,2022.2.4,Win32,143.9884809,,,,,,,,,,,,,,,,,,,,,,,,,,,down,0,0.2621,,0.108333376,-0.106481481,1,0,0,0.3513,0,32,32,120,1,klimmen,images/br_klimmen.png,images/cb_klimmen.png,0,,,,,,,,,,,,,,,,,,,,,,
,,,,,,00097,2023-11-07_10h00.57.913,vbt_B2_day2,2022.2.4,Win32,143.9884809,,,,,,,,,,,,,,,,,,,,,,,,,,,down,0,0.1484,,0.108333376,-0.106481481,1,0,0,0.3436,0,33,33,91,1,gezond,images/br_gezond.png,images/cb_gezond.png,0,,,,,,,,,,,,,,,,,,,,,,
,,,,,,00097,2023-11-07_10h00.57.913,vbt_B2_day2,2022.2.4,Win32,143.9884809,,,,,,,,,,,,,,,,,,,,,,,,,,,down,0,0.127,,0.108333376,-0.106481481,1,0,0,0.0306,0,34,34,151,1,aanzoek,images/br_aanzoek.png,images/cb_aanzoek.png,0,,,,,,,,,,,,,,,,,,,,,,
,,,,,,00097,2023-11-07_10h00.57.913,vbt_B2_day2,2022.2.4,Win32,143.9884809,,,,,,,,,,,,,,,,,,,,,,,,,,,down,0,0.0341,,0.108333376,-0.106481481,1,0,0,0.1651,0,35,35,156,1,rechten,images/br_rechten.png,images/cb_rechten.png,0,,,,,,,,,,,,,,,,,,,,,,
,,,,,,00097,2023-11-07_10h00.57.913,vbt_B2_day2,2022.2.4,Win32,143.9884809,,,,,,,,,,,,,,,,,,,,,,,,,,,down,0,0.6257,,0.108333376,-0.106481481,1,0,0,0.5479,0,36,36,35,1,lust,images/br_lust.png,images/cb_lust.png,0,,,,,,,,,,,,,,,,,,,,,,
,,,,,,00097,2023-11-07_10h00.57.913,vbt_B2_day2,2022.2.4,Win32,143.9884809,,,,,,,,,,,,,,,,,,,,,,,,,,,down,0,0.1143,,0.108333376,-0.106481481,1,0,0,0.0384,0,37,37,103,1,joggen,images/br_joggen.png,images/cb_joggen.png,0,,,,,,,,,,,,,,,,,,,,,,
,,,,,,00097,2023-11-07_10h00.57.913,vbt_B2_day2,2022.2.4,Win32,143.9884809,,,,,,,,,,,,,,,,,,,,,,,,,,,down,0,1.4597,,0.108333376,-0.106481481,1,0,0,0.3134,0,38,38,18,1,blik,images/br_blik.png,images/cb_blik.png,1,blik,,,,,,,,,,,,,,,,,,,,,
,,,,,,00097,2023-11-07_10h00.57.913,vbt_B2_day2,2022.2.4,Win32,143.9884809,,,,,,,,,,,,,,,,,,,,,,,,,,,down,0,0.4763,,0.108333376,-0.106481481,1,0,0,0.5007,0,39,39,165,1,feestdag,images/br_feestdag.png,images/cb_feestdag.png,0,,,,,,,,,,,,,,,,,,,,,,
,,,,,,00097,2023-11-07_10h00.57.913,vbt_B2_day2,2022.2.4,Win32,143.9884809,,,,,,,,,,,,,,,,,,,,,,,,,,,down,0,0.1211,,0.108333376,-0.106481481,1,0,0,0.1093,0,40,40,199,1,beseffen,images/br_beseffen.png,images/cb_beseffen.png,0,,,,,,,,,,,,,,,,,,,,,,
,,,,,,00097,2023-11-07_10h00.57.913,vbt_B2_day2,2022.2.4,Win32,143.9884809,,,,,,,,,,,,,,,,,,,,,,,,,,,down,0,0.0022,,0.108333376,-0.106481481,1,0,0,0.0372,0,41,41,33,1,vlek,images/br_vlek.png,images/cb_vlek.png,0,,,,,,,,,,,,,,,,,,,,,,
,,,,,,00097,2023-11-07_10h00.57.913,vbt_B2_day2,2022.2.4,Win32,143.9884809,,,,,,,,,,,,,,,,,,,,,,,,,,,down,0,0.0372,,0.108333376,-0.106481481,1,0,0,0.0829,0,42,42,152,1,afnemen,images/br_afnemen.png,images/cb_afnemen.png,0,,,,,,,,,,,,,,,,,,,,,,
,,,,,,00097,2023-11-07_10h00.57.913,vbt_B2_day2,2022.2.4,Win32,143.9884809,,,,,,,,,,,,,,,,,,,,,,,,,,,down,0,0.2788,,0.108333376,-0.106481481,1,0,0,0.2228,0,43,43,63,1,flirt,images/br_flirt.png,images/cb_flirt.png,0,,,,,,,,,,,,,,,,,,,,,,
,,,,,,00097,2023-11-07_10h00.57.913,vbt_B2_day2,2022.2.4,Win32,143.9884809,,,,,,,,,,,,,,,,,,,,,,,,,,,down,0,0.2303,,0.108333376,-0.106481481,1,0,0,0.2362,0,44,44,150,1,gegeven,images/br_gegeven.png,images/cb_gegeven.png,0,,,,,,,,,,,,,,,,,,,,,,
,,,,,,00097,2023-11-07_10h00.57.913,vbt_B2_day2,2022.2.4,Win32,143.9884809,,,,,,,,,,,,,,,,,,,,,,,,,,,down,0,0.4345,,0.108333376,-0.106481481,1,0,0,0.4421,0,45,45,118,1,vinger,images/br_vinger.png,images/cb_vinger.png,0,,,,,,,,,,,,,,,,,,,,,,
,,,,,,00097,2023-11-07_10h00.57.913,vbt_B2_day2,2022.2.4,Win32,143.9884809,,,,,,,,,,,,,,,,,,,,,,,,,,,down,0,1.8276,,0.108333376,-0.106481481,1,0,0,0.406,0,46,46,57,1,steek,images/br_steek.png,images/cb_steek.png,1,steek,,,,,,,,,,,,,,,,,,,,,
,,,,,,00097,2023-11-07_10h00.57.913,vbt_B2_day2,2022.2.4,Win32,143.9884809,,,,,,,,,,,,,,,,,,,,,,,,,,,down,0,0.5102,,0.108333376,-0.106481481,1,0,0,0.5138,0,47,47,153,1,vervoer,images/br_vervoer.png,images/cb_vervoer.png,0,,,,,,,,,,,,,,,,,,,,,,
,,,,,,00097,2023-11-07_10h00.57.913,vbt_B2_day2,2022.2.4,Win32,143.9884809,,,,,,,,,,,,,,,,,,,,,,,,,,,down,0,0.6255,,0.108333376,-0.106481481,1,0,0,0.4959,0,48,48,143,1,hechten,images/br_hechten.png,images/cb_hechten.png,0,,,,,,,,,,,,,,,,,,,,,,
,,,,,,00097,2023-11-07_10h00.57.913,vbt_B2_day2,2022.2.4,Win32,143.9884809,,,,,,,,,,,,,,,,,,,,,,,,,,,down,0,0.0247,,0.108333376,-0.106481481,1,0,0,0.0578,0,49,49,132,1,grappen,images/br_grappen.png,images/cb_grappen.png,0,,,,,,,,,,,,,,,,,,,,,,
,,,,,,00097,2023-11-07_10h00.57.913,vbt_B2_day2,2022.2.4,Win32,143.9884809,,,,,,,,,,,,,,,,,,,,,,,,,,,down,0,0.2398,,0.108333376,-0.106481481,1,0,0,0.2339,0,50,50,26,1,leuk,images/br_leuk.png,images/cb_leuk.png,0,,,,,,,,,,,,,,,,,,,,,,
,,,,,,00097,2023-11-07_10h00.57.913,vbt_B2_day2,2022.2.4,Win32,143.9884809,,,,,,,,,,,,,,,,,,,,,,,,,,,down,0,0.0913,,0.108333376,-0.106481481,1,0,0,0.0668,0,51,51,86,1,woning,images/br_woning.png,images/cb_woning.png,0,,,,,,,,,,,,,,,,,,,,,,
,,,,,,00097,2023-11-07_10h00.57.913,vbt_B2_day2,2022.2.4,Win32,143.9884809,,,,,,,,,,,,,,,,,,,,,,,,,,,down,0,0.138,,0.108333376,-0.106481481,1,0,0,0.0975,0,52,52,131,1,opzicht,images/br_opzicht.png,images/cb_opzicht.png,0,,,,,,,,,,,,,,,,,,,,,,
,,,,,,00097,2023-11-07_10h00.57.913,vbt_B2_day2,2022.2.4,Win32,143.9884809,,,,,,,,,,,,,,,,,,,,,,,,,,,down,0,0.2813,,0.108333376,-0.106481481,1,0,0,0.1009,0,53,53,13,1,kaal,images/br_kaal.png,images/cb_kaal.png,0,,,,,,,,,,,,,,,,,,,,,,
,,,,,,00097,2023-11-07_10h00.57.913,vbt_B2_day2,2022.2.4,Win32,143.9884809,,,,,,,,,,,,,,,,,,,,,,,,,,,down,0,0.3292,,0.108333376,-0.106481481,1,0,0,0.3116,0,54,54,76,1,afval,images/br_afval.png,images/cb_afval.png,0,,,,,,,,,,,,,,,,,,,,,,
,,,,,,00097,2023-11-07_10h00.57.913,vbt_B2_day2,2022.2.4,Win32,143.9884809,,,,,,,,,,,,,,,,,,,,,,,,,,,down,0,0.0771,,0.108333376,-0.106481481,1,0,0,0.0947,0,55,55,7,1,geld,images/br_geld.png,images/cb_geld.png,0,,,,,,,,,,,,,,,,,,,,,,
,,,,,,00097,2023-11-07_10h00.57.913,vbt_B2_day2,2022.2.4,Win32,143.9884809,,,,,,,,,,,,,,,,,,,,,,,,,,,down,0,0.0985,,0.108333376,-0.106481481,1,0,0,0.0556,0,56,56,95,1,vreten,images/br_vreten.png,images/cb_vreten.png,0,,,,,,,,,,,,,,,,,,,,,,
,,,,,,00097,2023-11-07_10h00.57.913,vbt_B2_day2,2022.2.4,Win32,143.9884809,,,,,,,,,,,,,,,,,,,,,,,,,,,down,0,0.1425,,0.108333376,-0.106481481,1,0,0,0.0772,0,57,57,181,1,toegeven,images/br_toegeven.png,images/cb_toegeven.png,0,,,,,,,,,,,,,,,,,,,,,,
,,,,,,00097,2023-11-07_10h00.57.913,vbt_B2_day2,2022.2.4,Win32,143.9884809,,,,,,,,,,,,,,,,,,,,,,,,,,,down,0,4.2029,,-0.047222208,-0.334259245,1,0,0,1.7193,0,58,58,137,1,trekker,images/br_trekker.png,images/cb_trekker.png,1,stekker,,,,,,,,,,,,,,,,,,,,,
,,,,,,00097,2023-11-07_10h00.57.913,vbt_B2_day2,2022.2.4,Win32,143.9884809,,,,,,,,,,,,,,,,,,,,,,,,,,,down,0,0.2029,,-0.047222208,-0.334259245,1,0,0,0.2853,0,59,59,127,1,doodmoe,images/br_doodmoe.png,images/cb_doodmoe.png,0,,,,,,,,,,,,,,,,,,,,,,
,,,,,,00097,2023-11-07_10h00.57.913,vbt_B2_day2,2022.2.4,Win32,143.9884809,,,,,,,,,,,,,,,,,,,,,,,,,,,down,0,0.7026,,-0.047222208,-0.334259245,1,0,0,0.3773,0,60,60,19,1,geit,images/br_geit.png,images/cb_geit.png,1,giet,,,,,,,,,,,,,,,,,,,,,
,,,,,,00097,2023-11-07_10h00.57.913,vbt_B2_day2,2022.2.4,Win32,143.9884809,,,,,,,,,,,,,,,,,,,,,,,,,,,down,0,0.1947,,-0.047222208,-0.334259245,1,0,0,0.2803,0,61,61,50,1,stoom,images/br_stoom.png,images/cb_stoom.png,0,,,,,,,,,,,,,,,,,,,,,,
,,,,,,00097,2023-11-07_10h00.57.913,vbt_B2_day2,2022.2.4,Win32,143.9884809,,,,,,,,,,,,,,,,,,,,,,,,,,,down,0,0.0911,,-0.047222208,-0.334259245,1,0,0,0.1225,0,62,62,189,1,aanraden,images/br_aanraden.png,images/cb_aanraden.png,0,,,,,,,,,,,,,,,,,,,,,,
,,,,,,00097,2023-11-07_10h00.57.913,vbt_B2_day2,2022.2.4,Win32,143.9884809,,,,,,,,,,,,,,,,,,,,,,,,,,,down,0,0.12,,-0.047222208,-0.334259245,1,0,0,0.1041,0,63,63,75,1,snoep,images/br_snoep.png,images/cb_snoep.png,0,,,,,,,,,,,,,,,,,,,,,,
,,,,,,00097,2023-11-07_10h00.57.913,vbt_B2_day2,2022.2.4,Win32,143.9884809,,,,,,,,,,,,,,,,,,,,,,,,,,,down,0,0.0911,,-0.047222208,-0.334259245,1,0,0,0.0808,0,64,64,158,1,innemen,images/br_innemen.png,images/cb_innemen.png,0,,,,,,,,,,,,,,,,,,,,,,
,,,,,,00097,2023-11-07_10h00.57.913,vbt_B2_day2,2022.2.4,Win32,143.9884809,,,,,,,,,,,,,,,,,,,,,,,,,,,down,0,7.2082,,-0.047222208,-0.334259245,1,0,0,0.4654,0,65,65,177,1,maaltijd,images/br_maaltijd.png,images/cb_maaltijd.png,1,maaltijd,,,,,,,,,,,,,,,,,,,,,
,,,,,,00097,2023-11-07_10h00.57.913,vbt_B2_day2,2022.2.4,Win32,143.9884809,,,,,,,,,,,,,,,,,,,,,,,,,,,down,0,0.0339,,-0.047222208,-0.334259245,1,0,0,0.0668,0,66,66,64,1,wegen,images/br_wegen.png,images/cb_wegen.png,0,,,,,,,,,,,,,,,,,,,,,,
,,,,,,00097,2023-11-07_10h00.57.913,vbt_B2_day2,2022.2.4,Win32,143.9884809,,,,,,,,,,,,,,,,,,,,,,,,,,,down,0,4.06,,-0.047222208,-0.334259245,1,0,0,0.385,0,67,67,58,1,tekst,images/br_tekst.png,images/cb_tekst.png,1,tekst,,,,,,,,,,,,,,,,,,,,,
,,,,,,00097,2023-11-07_10h00.57.913,vbt_B2_day2,2022.2.4,Win32,143.9884809,,,,,,,,,,,,,,,,,,,,,,,,,,,down,0,0.114,,-0.047222208,-0.334259245,1,0,0,0.069,0,68,68,53,1,baron,images/br_baron.png,images/cb_baron.png,0,,,,,,,,,,,,,,,,,,,,,,
,,,,,,00097,2023-11-07_10h00.57.913,vbt_B2_day2,2022.2.4,Win32,143.9884809,,,,,,,,,,,,,,,,,,,,,,,,,,,down,0,0.4779,,-0.047222208,-0.334259245,1,0,0,0.4031,0,69,69,148,1,smullen,images/br_smullen.png,images/cb_smullen.png,0,,,,,,,,,,,,,,,,,,,,,,
,,,,,,00097,2023-11-07_10h00.57.913,vbt_B2_day2,2022.2.4,Win32,143.9884809,,,,,,,,,,,,,,,,,,,,,,,,,,,down,0,0.2439,,-0.047222208,-0.334259245,1,0,0,0.2697,0,70,70,133,1,seizoen,images/br_seizoen.png,images/cb_seizoen.png,0,,,,,,,,,,,,,,,,,,,,,,
,,,,,,00097,2023-11-07_10h00.57.913,vbt_B2_day2,2022.2.4,Win32,143.9884809,,,,,,,,,,,,,,,,,,,,,,,,,,,down,0,0.504,,-0.047222208,-0.334259245,1,0,0,0.438,0,71,71,80,1,kanjer,images/br_kanjer.png,images/cb_kanjer.png,0,,,,,,,,,,,,,,,,,,,,,,
,,,,,,00097,2023-11-07_10h00.57.913,vbt_B2_day2,2022.2.4,Win32,143.9884809,,,,,,,,,,,,,,,,,,,,,,,,,,,down,0,0.139,,-0.047222208,-0.334259245,1,0,0,0.1116,0,72,72,66,1,lever,images/br_lever.png,images/cb_lever.png,0,,,,,,,,,,,,,,,,,,,,,,
,,,,,,00097,2023-11-07_10h00.57.913,vbt_B2_day2,2022.2.4,Win32,143.9884809,,,,,,,,,,,,,,,,,,,,,,,,,,,down,0,0.0493,,-0.047222208,-0.334259245,1,0,0,0.0838,0,73,73,135,1,gedicht,images/br_gedicht.png,images/cb_gedicht.png,0,,,,,,,,,,,,,,,,,,,,,,
,,,,,,00097,2023-11-07_10h00.57.913,vbt_B2_day2,2022.2.4,Win32,143.9884809,,,,,,,,,,,,,,,,,,,,,,,,,,,down,0,0.3855,,-0.047222208,-0.334259245,1,0,0,0.4189,0,74,74,90,1,geluid,images/br_geluid.png,images/cb_geluid.png,0,,,,,,,,,,,,,,,,,,,,,,
,,,,,,00097,2023-11-07_10h00.57.913,vbt_B2_day2,2022.2.4,Win32,143.9884809,,,,,,,,,,,,,,,,,,,,,,,,,,,down,0,0.0426,,-0.047222208,-0.334259245,1,0,0,0.0624,0,75,75,126,1,kasteel,images/br_kasteel.png,images/cb_kasteel.png,0,,,,,,,,,,,,,,,,,,,,,,
,,,,,,00097,2023-11-07_10h00.57.913,vbt_B2_day2,2022.2.4,Win32,143.9884809,,,,,,,,,,,,,,,,,,,,,,,,,,,down,0,0.1174,,-0.047222208,-0.334259245,1,0,0,0.0808,0,76,76,159,1,sufferd,images/br_sufferd.png,images/cb_sufferd.png,0,,,,,,,,,,,,,,,,,,,,,,
,,,,,,00097,2023-11-07_10h00.57.913,vbt_B2_day2,2022.2.4,Win32,143.9884809,,,,,,,,,,,,,,,,,,,,,,,,,,,down,0,0.098,,-0.047222208,-0.334259245,1,0,0,0.1088,0,77,77,180,1,openbaar,images/br_openbaar.png,images/cb_openbaar.png,0,,,,,,,,,,,,,,,,,,,,,,
,,,,,,00097,2023-11-07_10h00.57.913,vbt_B2_day2,2022.2.4,Win32,143.9884809,,,,,,,,,,,,,,,,,,,,,,,,,,,down,0,0.0774,,-0.047222208,-0.334259245,1,0,0,0.1736,0,78,78,40,1,schep,images/br_schep.png,images/cb_schep.png,0,,,,,,,,,,,,,,,,,,,,,,
,,,,,,00097,2023-11-07_10h00.57.913,vbt_B2_day2,2022.2.4,Win32,143.9884809,,,,,,,,,,,,,,,,,,,,,,,,,,,down,0,13.1149,,-0.047222208,-0.334259245,1,0,0,0.239,0,79,79,25,1,plek,images/br_plek.png,images/cb_plek.png,0,,,,,,,,,,,,,,,,,,,,,,
,,,,,,00097,2023-11-07_10h00.57.913,vbt_B2_day2,2022.2.4,Win32,143.9884809,,,,,,,,,,,,,,,,,,,,,,,,,,,down,0,0.0372,,-0.047222208,-0.334259245,1,0,0,0.0973,0,80,80,198,1,bedoelen,images/br_bedoelen.png,images/cb_bedoelen.png,0,,,,,,,,,,,,,,,,,,,,,,
,,,,,,00097,2023-11-07_10h00.57.913,vbt_B2_day2,2022.2.4,Win32,143.9884809,,,,,,,,,,,,,,,,,,,,,,,,,,,down,0,3.9994,,-0.047222208,-0.334259245,1,0,0,0.3753,0,81,81,98,1,kreeft,images/br_kreeft.png,images/cb_kreeft.png,1,kreeft,,,,,,,,,,,,,,,,,,,,,
,,,,,,00097,2023-11-07_10h00.57.913,vbt_B2_day2,2022.2.4,Win32,143.9884809,,,,,,,,,,,,,,,,,,,,,,,,,,,down,0,0.0362,,-0.047222208,-0.334259245,1,0,0,0.1048,0,82,82,122,1,waarvan,images/br_waarvan.png,images/cb_waarvan.png,0,,,,,,,,,,,,,,,,,,,,,,
,,,,,,00097,2023-11-07_10h00.57.913,vbt_B2_day2,2022.2.4,Win32,143.9884809,,,,,,,,,,,,,,,,,,,,,,,,,,,down,0,9.458,,-0.047222208,-0.334259245,1,0,0,0.1877,0,83,83,176,1,techniek,images/br_techniek.png,images/cb_techniek.png,1,techniek,,,,,,,,,,,,,,,,,,,,,
,,,,,,00097,2023-11-07_10h00.57.913,vbt_B2_day2,2022.2.4,Win32,143.9884809,,,,,,,,,,,,,,,,,,,,,,,,,,,down,0,0.077,,-0.047222208,-0.334259245,1,0,0,0.0767,0,84,84,102,1,legaal,images/br_legaal.png,images/cb_legaal.png,0,,,,,,,,,,,,,,,,,,,,,,
,,,,,,00097,2023-11-07_10h00.57.913,vbt_B2_day2,2022.2.4,Win32,143.9884809,,,,,,,,,,,,,,,,,,,,,,,,,,,down,0,0.4211,,-0.047222208,-0.334259245,1,0,0,0.3846,0,85,85,5,1,blad,images/br_blad.png,images/cb_blad.png,0,,,,,,,,,,,,,,,,,,,,,,
,,,,,,00097,2023-11-07_10h00.57.913,vbt_B2_day2,2022.2.4,Win32,143.9884809,,,,,,,,,,,,,,,,,,,,,,,,,,,down,0,0.1403,,-0.047222208,-0.334259245,1,0,0,0.0626,0,86,86,43,1,klauw,images/br_klauw.png,images/cb_klauw.png,0,,,,,,,,,,,,,,,,,,,,,,
,,,,,,00097,2023-11-07_10h00.57.913,vbt_B2_day2,2022.2.4,Win32,143.9884809,,,,,,,,,,,,,,,,,,,,,,,,,,,down,0,0.3315,,-0.047222208,-0.334259245,1,0,0,0.1878,0,87,87,129,1,verhaal,images/br_verhaal.png,images/cb_verhaal.png,0,,,,,,,,,,,,,,,,,,,,,,
,,,,,,00097,2023-11-07_10h00.57.913,vbt_B2_day2,2022.2.4,Win32,143.9884809,,,,,,,,,,,,,,,,,,,,,,,,,,,down,0,0.1644,,-0.047222208,-0.334259245,1,0,0,0.0688,0,88,88,113,1,koppen,images/br_koppen.png,images/cb_koppen.png,0,,,,,,,,,,,,,,,,,,,,,,
,,,,,,00097,2023-11-07_10h00.57.913,vbt_B2_day2,2022.2.4,Win32,143.9884809,,,,,,,,,,,,,,,,,,,,,,,,,,,down,0,0.1453,,-0.047222208,-0.334259245,1,0,0,0.0589,0,89,89,173,1,apparaat,images/br_apparaat.png,images/cb_apparaat.png,0,,,,,,,,,,,,,,,,,,,,,,
,,,,,,00097,2023-11-07_10h00.57.913,vbt_B2_day2,2022.2.4,Win32,143.9884809,,,,,,,,,,,,,,,,,,,,,,,,,,,down,0,0.3141,,-0.047222208,-0.334259245,1,0,0,0.2595,0,90,90,55,1,praat,images/br_praat.png,images/cb_praat.png,0,,,,,,,,,,,,,,,,,,,,,,
,,,,,,00097,2023-11-07_10h00.57.913,vbt_B2_day2,2022.2.4,Win32,143.9884809,,,,,,,,,,,,,,,,,,,,,,,,,,,down,0,0.0286,,-0.047222208,-0.334259245,1,0,0,0.0876,0,91,91,142,1,snuiven,images/br_snuiven.png,images/cb_snuiven.png,0,,,,,,,,,,,,,,,,,,,,,,
,,,,,,00097,2023-11-07_10h00.57.913,vbt_B2_day2,2022.2.4,Win32,143.9884809,,,,,,,,,,,,,,,,,,,,,,,,,,,down,0,0.3067,,-0.047222208,-0.334259245,1,0,0,0.2637,0,92,92,166,1,strikken,images/br_strikken.png,images/cb_strikken.png,0,,,,,,,,,,,,,,,,,,,,,,
,,,,,,00097,2023-11-07_10h00.57.913,vbt_B2_day2,2022.2.4,Win32,143.9884809,,,,,,,,,,,,,,,,,,,,,,,,,,,down,0,0.08,,-0.047222208,-0.334259245,1,0,0,0.1138,0,93,93,30,1,uien,images/br_uien.png,images/cb_uien.png,0,,,,,,,,,,,,,,,,,,,,,,
,,,,,,00097,2023-11-07_10h00.57.913,vbt_B2_day2,2022.2.4,Win32,143.9884809,,,,,,,,,,,,,,,,,,,,,,,,,,,down,0,0.1058,,-0.047222208,-0.334259245,1,0,0,0.1008,0,94,94,70,1,ijdel,images/br_ijdel.png,images/cb_ijdel.png,0,,,,,,,,,,,,,,,,,,,,,,
,,,,,,00097,2023-11-07_10h00.57.913,vbt_B2_day2,2022.2.4,Win32,143.9884809,,,,,,,,,,,,,,,,,,,,,,,,,,,down,0,0.0008,,-0.047222208,-0.334259245,1,0,0,0.0734,0,95,95,87,1,toeval,images/br_toeval.png,images/cb_toeval.png,0,,,,,,,,,,,,,,,,,,,,,,
,,,,,,00097,2023-11-07_10h00.57.913,vbt_B2_day2,2022.2.4,Win32,143.9884809,,,,,,,,,,,,,,,,,,,,,,,,,,,down,0,0.0286,,-0.047222208,-0.334259245,1,0,0,0.0807,0,96,96,9,1,hier,images/br_hier.png,images/cb_hier.png,0,,,,,,,,,,,,,,,,,,,,,,
,,,,,,00097,2023-11-07_10h00.57.913,vbt_B2_day2,2022.2.4,Win32,143.9884809,,,,,,,,,,,,,,,,,,,,,,,,,,,down,0,0.1374,,-0.047222208,-0.334259245,1,0,0,0.0838,0,97,97,170,1,schatten,images/br_schatten.png,images/cb_schatten.png,0,,,,,,,,,,,,,,,,,,,,,,
,,,,,,00097,2023-11-07_10h00.57.913,vbt_B2_day2,2022.2.4,Win32,143.9884809,,,,,,,,,,,,,,,,,,,,,,,,,,,down,0,0.0168,,-0.047222208,-0.334259245,1,0,0,0.0825,0,98,98,27,1,dans,images/br_dans.png,images/cb_dans.png,0,,,,,,,,,,,,,,,,,,,,,,
,,,,,,00097,2023-11-07_10h00.57.913,vbt_B2_day2,2022.2.4,Win32,143.9884809,,,,,,,,,,,,,,,,,,,,,,,,,,,down,0,0.1004,,-0.047222208,-0.334259245,1,0,0,0.0726,0,99,99,69,1,waken,images/br_waken.png,images/cb_waken.png,0,,,,,,,,,,,,,,,,,,,,,,
,,,,,,00097,2023-11-07_10h00.57.913,vbt_B2_day2,2022.2.4,Win32,143.9884809,,,,,,,,,,,,,,,,,,,,,,,,,,,down,0,0.0987,,-0.047222208,-0.334259245,1,0,0,0.0837,0,100,100,154,1,aflopen,images/br_aflopen.png,images/cb_aflopen.png,0,,,,,,,,,,,,,,,,,,,,,,
,,,,,,00097,2023-11-07_10h00.57.913,vbt_B2_day2,2022.2.4,Win32,143.9884809,,,,,,,,,,,,,,,,,,,,,,,,,,,down,0,0.3972,,-0.047222208,-0.334259245,1,0,0,0.2924,0,101,101,47,1,kabel,images/br_kabel.png,images/cb_kabel.png,0,,,,,,,,,,,,,,,,,,,,,,
,,,,,,00097,2023-11-07_10h00.57.913,vbt_B2_day2,2022.2.4,Win32,143.9884809,,,,,,,,,,,,,,,,,,,,,,,,,,,down,0,0.5976,,-0.047222208,-0.334259245,1,0,0,0.2406,0,102,102,194,1,driemaal,images/br_driemaal.png,images/cb_driemaal.png,0,,,,,,,,,,,,,,,,,,,,,,
,,,,,,00097,2023-11-07_10h00.57.913,vbt_B2_day2,2022.2.4,Win32,143.9884809,,,,,,,,,,,,,,,,,,,,,,,,,,,down,0,0.0662,,-0.047222208,-0.334259245,1,0,0,0.0974,0,103,103,51,1,samen,images/br_samen.png,images/cb_samen.png,0,,,,,,,,,,,,,,,,,,,,,,
,,,,,,00097,2023-11-07_10h00.57.913,vbt_B2_day2,2022.2.4,Win32,143.9884809,,,,,,,,,,,,,,,,,,,,,,,,,,,down,0,0.4948,,-0.047222208,-0.334259245,1,0,0,0.3599,0,104,104,73,1,volop,images/br_volop.png,images/cb_volop.png,0,,,,,,,,,,,,,,,,,,,,,,
,,,,,,00097,2023-11-07_10h00.57.913,vbt_B2_day2,2022.2.4,Win32,143.9884809,,,,,,,,,,,,,,,,,,,,,,,,,,,down,0,1.0776,,-0.047222208,-0.334259245,1,0,0,0.6666,0,105,105,88,1,boeien,images/br_boeien.png,images/cb_boeien.png,0,,,,,,,,,,,,,,,,,,,,,,
,,,,,,00097,2023-11-07_10h00.57.913,vbt_B2_day2,2022.2.4,Win32,143.9884809,,,,,,,,,,,,,,,,,,,,,,,,,,,down,0,1.4311,,-0.047222208,-0.334259245,1,0,0,0.1669,0,106,106,82,1,muziek,images/br_muziek.png,images/cb_muziek.png,0,,,,,,,,,,,,,,,,,,,,,,
,,,,,,00097,2023-11-07_10h00.57.913,vbt_B2_day2,2022.2.4,Win32,143.9884809,,,,,,,,,,,,,,,,,,,,,,,,,,,down,0,0.893,,-0.047222208,-0.334259245,1,0,0,0.0976,0,107,107,104,1,zweven,images/br_zweven.png,images/cb_zweven.png,0,,,,,,,,,,,,,,,,,,,,,,
,,,,,,00097,2023-11-07_10h00.57.913,vbt_B2_day2,2022.2.4,Win32,143.9884809,,,,,,,,,,,,,,,,,,,,,,,,,,,down,0,1.2374,,-0.047222208,-0.334259245,1,0,0,0.2567,0,108,108,108,1,excuus,images/br_excuus.png,images/cb_excuus.png,0,,,,,,,,,,,,,,,,,,,,,,
,,,,,,00097,2023-11-07_10h00.57.913,vbt_B2_day2,2022.2.4,Win32,143.9884809,,,,,,,,,,,,,,,,,,,,,,,,,,,down,0,1.2614,,-0.047222208,-0.334259245,1,0,0,0.0877,0,109,109,109,1,totaal,images/br_totaal.png,images/cb_totaal.png,0,,,,,,,,,,,,,,,,,,,,,,
,,,,,,00097,2023-11-07_10h00.57.913,vbt_B2_day2,2022.2.4,Win32,143.9884809,,,,,,,,,,,,,,,,,,,,,,,,,,,down,0,0.8221,,-0.047222208,-0.334259245,1,0,0,0.1115,0,110,110,8,1,knie,images/br_knie.png,images/cb_knie.png,0,,,,,,,,,,,,,,,,,,,,,,
,,,,,,00097,2023-11-07_10h00.57.913,vbt_B2_day2,2022.2.4,Win32,143.9884809,,,,,,,,,,,,,,,,,,,,,,,,,,,down,0,1.4736,,-0.050925926,-0.335185228,1,0,0,0.1952,0,111,111,187,1,opkijken,images/br_opkijken.png,images/cb_opkijken.png,0,,,,,,,,,,,,,,,,,,,,,,
,,,,,,00097,2023-11-07_10h00.57.913,vbt_B2_day2,2022.2.4,Win32,143.9884809,,,,,,,,,,,,,,,,,,,,,,,,,,,down,0,2.0729,,-0.050925926,-0.335185228,1,0,0,0.3268,0,112,112,62,1,knaap,images/br_knaap.png,images/cb_knaap.png,0,,,,,,,,,,,,,,,,,,,,,,
,,,,,,00097,2023-11-07_10h00.57.913,vbt_B2_day2,2022.2.4,Win32,143.9884809,,,,,,,,,,,,,,,,,,,,,,,,,,,down,0,3.9587,,-0.050925926,-0.335185228,1,0,0,0.967,0,113,113,110,1,zuster,images/br_zuster.png,images/cb_zuster.png,0,,,,,,,,,,,,,,,,,,,,,,
,,,,,,00097,2023-11-07_10h00.57.913,vbt_B2_day2,2022.2.4,Win32,143.9884809,,,,,,,,,,,,,,,,,,,,,,,,,,,down,0,1.3283,,-0.050925926,-0.335185228,1,0,0,0.1438,0,114,114,71,1,bever,images/br_bever.png,images/cb_bever.png,0,,,,,,,,,,,,,,,,,,,,,,
,,,,,,00097,2023-11-07_10h00.57.913,vbt_B2_day2,2022.2.4,Win32,143.9884809,,,,,,,,,,,,,,,,,,,,,,,,,,,down,0,1.1676,,-0.050925926,-0.335185228,1,0,0,0.2406,0,115,115,48,1,steel,images/br_steel.png,images/cb_steel.png,0,,,,,,,,,,,,,,,,,,,,,,
,,,,,,00097,2023-11-07_10h00.57.913,vbt_B2_day2,2022.2.4,Win32,143.9884809,,,,,,,,,,,,,,,,,,,,,,,,,,,down,0,3.152,,-0.050925926,-0.335185228,1,0,0,0.3152,0,116,116,111,1,ticket,images/br_ticket.png,images/cb_ticket.png,0,,,,,,,,,,,,,,,,,,,,,,
,,,,,,00097,2023-11-07_10h00.57.913,vbt_B2_day2,2022.2.4,Win32,143.9884809,,,,,,,,,,,,,,,,,,,,,,,,,,,down,0,7.4456,,-0.050925926,-0.335185228,1,0,0,0.7471,0,117,117,74,1,graaf,images/br_graaf.png,images/cb_graaf.png,0,,,,,,,,,,,,,,,,,,,,,,
,,,,,,00097,2023-11-07_10h00.57.913,vbt_B2_day2,2022.2.4,Win32,143.9884809,,,,,,,,,,,,,,,,,,,,,,,,,,,down,0,0.0592,,-0.050925926,-0.335185228,1,0,0,0.0973,0,118,118,140,1,blijven,images/br_blijven.png,images/cb_blijven.png,0,,,,,,,,,,,,,,,,,,,,,,
,,,,,,00097,2023-11-07_10h00.57.913,vbt_B2_day2,2022.2.4,Win32,143.9884809,,,,,,,,,,,,,,,,,,,,,,,,,,,down,0,0.332,,-0.050925926,-0.335185228,1,0,0,0.4061,0,119,119,193,1,weeshuis,images/br_weeshuis.png,images/cb_weeshuis.png,0,,,,,,,,,,,,,,,,,,,,,,
,,,,,,00097,2023-11-07_10h00.57.913,vbt_B2_day2,2022.2.4,Win32,143.9884809,,,,,,,,,,,,,,,,,,,,,,,,,,,down,0,0.0812,,-0.050925926,-0.335185228,1,0,0,0.073,0,120,120,49,1,laken,images/br_laken.png,images/cb_laken.png,0,,,,,,,,,,,,,,,,,,,,,,
,,,,,,00097,2023-11-07_10h00.57.913,vbt_B2_day2,2022.2.4,Win32,143.9884809,,,,,,,,,,,,,,,,,,,,,,,,,,,down,0,0.0423,,-0.050925926,-0.335185228,1,0,0,0.1181,0,121,121,119,1,liefje,images/br_liefje.png,images/cb_liefje.png,0,,,,,,,,,,,,,,,,,,,,,,
,,,,,,00097,2023-11-07_10h00.57.913,vbt_B2_day2,2022.2.4,Win32,143.9884809,,,,,,,,,,,,,,,,,,,,,,,,,,,down,0,4.5011,,-0.050925926,-0.335185228,1,0,0,1.5139,0,122,122,139,1,stiekem,images/br_stiekem.png,images/cb_stiekem.png,1,stiekem,,,,,,,,,,,,,,,,,,,,,
,,,,,,00097,2023-11-07_10h00.57.913,vbt_B2_day2,2022.2.4,Win32,143.9884809,,,,,,,,,,,,,,,,,,,,,,,,,,,down,0,0.1069,,-0.050925926,-0.335185228,1,0,0,0.1115,0,123,123,184,1,aandelen,images/br_aandelen.png,images/cb_aandelen.png,0,,,,,,,,,,,,,,,,,,,,,,
,,,,,,00097,2023-11-07_10h00.57.913,vbt_B2_day2,2022.2.4,Win32,143.9884809,,,,,,,,,,,,,,,,,,,,,,,,,,,down,0,0.0093,,-0.050925926,-0.335185228,1,0,0,0.0909,0,124,124,112,1,lukken,images/br_lukken.png,images/cb_lukken.png,0,,,,,,,,,,,,,,,,,,,,,,
,,,,,,00097,2023-11-07_10h00.57.913,vbt_B2_day2,2022.2.4,Win32,143.9884809,,,,,,,,,,,,,,,,,,,,,,,,,,,down,0,0.1118,,-0.050925926,-0.335185228,1,0,0,0.0668,0,125,125,106,1,zingen,images/br_zingen.png,images/cb_zingen.png,0,,,,,,,,,,,,,,,,,,,,,,
,,,,,,00097,2023-11-07_10h00.57.913,vbt_B2_day2,2022.2.4,Win32,143.9884809,,,,,,,,,,,,,,,,,,,,,,,,,,,down,0,0.4504,,-0.050925926,-0.335185228,1,0,0,0.4022,0,126,126,146,1,opkomen,images/br_opkomen.png,images/cb_opkomen.png,0,,,,,,,,,,,,,,,,,,,,,,
,,,,,,00097,2023-11-07_10h00.57.913,vbt_B2_day2,2022.2.4,Win32,143.9884809,,,,,,,,,,,,,,,,,,,,,,,,,,,down,0,1.4007,,-0.050925926,-0.335185228,1,0,0,1.4172,0,127,127,162,1,uitdelen,images/br_uitdelen.png,images/cb_uitdelen.png,0,,,,,,,,,,,,,,,,,,,,,,
,,,,,,00097,2023-11-07_10h00.57.913,vbt_B2_day2,2022.2.4,Win32,143.9884809,,,,,,,,,,,,,,,,,,,,,,,,,,,down,0,0.1117,,-0.050925926,-0.335185228,1,0,0,0.0976,0,128,128,197,1,spanning,images/br_spanning.png,images/cb_spanning.png,0,,,,,,,,,,,,,,,,,,,,,,
,,,,,,00097,2023-11-07_10h00.57.913,vbt_B2_day2,2022.2.4,Win32,143.9884809,,,,,,,,,,,,,,,,,,,,,,,,,,,down,0,1.1226,,-0.050925926,-0.335185228,1,0,0,1.2241,0,129,129,42,1,bleek,images/br_bleek.png,images/cb_bleek.png,0,,,,,,,,,,,,,,,,,,,,,,
,,,,,,00097,2023-11-07_10h00.57.913,vbt_B2_day2,2022.2.4,Win32,143.9884809,,,,,,,,,,,,,,,,,,,,,,,,,,,down,0,0.2574,,-0.050925926,-0.335185228,1,0,0,0.1991,0,130,130,37,1,mijn,images/br_mijn.png,images/cb_mijn.png,0,,,,,,,,,,,,,,,,,,,,,,
,,,,,,00097,2023-11-07_10h00.57.913,vbt_B2_day2,2022.2.4,Win32,143.9884809,,,,,,,,,,,,,,,,,,,,,,,,,,,down,0,0.6465,,-0.050925926,-0.335185228,1,0,0,0.6323,0,131,131,44,1,flits,images/br_flits.png,images/cb_flits.png,0,,,,,,,,,,,,,,,,,,,,,,
,,,,,,00097,2023-11-07_10h00.57.913,vbt_B2_day2,2022.2.4,Win32,143.9884809,,,,,,,,,,,,,,,,,,,,,,,,,,,down,0,0.1187,,-0.050925926,-0.335185228,1,0,0,0.1043,0,132,132,196,1,nakijken,images/br_nakijken.png,images/cb_nakijken.png,0,,,,,,,,,,,,,,,,,,,,,,
,,,,,,00097,2023-11-07_10h00.57.913,vbt_B2_day2,2022.2.4,Win32,143.9884809,,,,,,,,,,,,,,,,,,,,,,,,,,,down,0,1.083,,-0.050925926,-0.335185228,1,0,0,1.1983,0,133,133,78,1,leren,images/br_leren.png,images/cb_leren.png,0,,,,,,,,,,,,,,,,,,,,,,
,,,,,,00097,2023-11-07_10h00.57.913,vbt_B2_day2,2022.2.4,Win32,143.9884809,,,,,,,,,,,,,,,,,,,,,,,,,,,down,0,0.0548,,-0.050925926,-0.335185228,1,0,0,0.1044,0,134,134,160,1,daarheen,images/br_daarheen.png,images/cb_daarheen.png,0,,,,,,,,,,,,,,,,,,,,,,
,,,,,,00097,2023-11-07_10h00.57.913,vbt_B2_day2,2022.2.4,Win32,143.9884809,,,,,,,,,,,,,,,,,,,,,,,,,,,down,0,0.0627,,-0.050925926,-0.335185228,1,0,0,0.081,0,135,135,46,1,jagen,images/br_jagen.png,images/cb_jagen.png,0,,,,,,,,,,,,,,,,,,,,,,
,,,,,,00097,2023-11-07_10h00.57.913,vbt_B2_day2,2022.2.4,Win32,143.9884809,,,,,,,,,,,,,,,,,,,,,,,,,,,down,0,0.1208,,-0.050925926,-0.335185228,1,0,0,0.2714,0,136,136,29,1,baas,images/br_baas.png,images/cb_baas.png,0,,,,,,,,,,,,,,,,,,,,,,
,,,,,,00097,2023-11-07_10h00.57.913,vbt_B2_day2,2022.2.4,Win32,143.9884809,,,,,,,,,,,,,,,,,,,,,,,,,,,down,0,10.1771,,-0.050925926,-0.335185228,1,0,0,0.3504,0,137,137,178,1,huisdier,images/br_huisdier.png,images/cb_huisdier.png,1,huisdier,,,,,,,,,,,,,,,,,,,,,
,,,,,,00097,2023-11-07_10h00.57.913,vbt_B2_day2,2022.2.4,Win32,143.9884809,,,,,,,,,,,,,,,,,,,,,,,,,,,down,0,0.121,,-0.050925926,-0.335185228,1,0,0,0.1417,0,138,138,175,1,heengaan,images/br_heengaan.png,images/cb_heengaan.png,0,,,,,,,,,,,,,,,,,,,,,,
,,,,,,00097,2023-11-07_10h00.57.913,vbt_B2_day2,2022.2.4,Win32,143.9884809,,,,,,,,,,,,,,,,,,,,,,,,,,,down,0,0.1397,,-0.050925926,-0.335185228,1,0,0,0.0976,0,139,139,6,1,diep,images/br_diep.png,images/cb_diep.png,0,,,,,,,,,,,,,,,,,,,,,,
,,,,,,00097,2023-11-07_10h00.57.913,vbt_B2_day2,2022.2.4,Win32,143.9884809,,,,,,,,,,,,,,,,,,,,,,,,,,,down,0,0.2444,,-0.050925926,-0.335185228,1,0,0,0.2664,0,140,140,2,1,jaar,images/br_jaar.png,images/cb_jaar.png,0,,,,,,,,,,,,,,,,,,,,,,
,,,,,,00097,2023-11-07_10h00.57.913,vbt_B2_day2,2022.2.4,Win32,143.9884809,,,,,,,,,,,,,,,,,,,,,,,,,,,down,0,0.2444,,-0.050925926,-0.335185228,1,0,0,0.2641,0,141,141,60,1,jasje,images/br_jasje.png,images/cb_jasje.png,0,,,,,,,,,,,,,,,,,,,,,,
,,,,,,00097,2023-11-07_10h00.57.913,vbt_B2_day2,2022.2.4,Win32,143.9884809,,,,,,,,,,,,,,,,,,,,,,,,,,,down,0,3.1811,,-0.050925926,-0.335185228,1,0,0,0.3715,0,142,142,97,1,loyaal,images/br_loyaal.png,images/cb_loyaal.png,1,loyaal,,,,,,,,,,,,,,,,,,,,,
,,,,,,00097,2023-11-07_10h00.57.913,vbt_B2_day2,2022.2.4,Win32,143.9884809,,,,,,,,,,,,,,,,,,,,,,,,,,,down,0,0.0094,,-0.050925926,-0.335185228,1,0,0,0.0627,0,143,143,11,1,mode,images/br_mode.png,images/cb_mode.png,0,,,,,,,,,,,,,,,,,,,,,,
,,,,,,00097,2023-11-07_10h00.57.913,vbt_B2_day2,2022.2.4,Win32,143.9884809,,,,,,,,,,,,,,,,,,,,,,,,,,,down,0,1.049,,-0.050925926,-0.335185228,1,0,0,1.2872,0,144,144,107,1,maling,images/br_maling.png,images/cb_maling.png,0,,,,,,,,,,,,,,,,,,,,,,
,,,,,,00097,2023-11-07_10h00.57.913,vbt_B2_day2,2022.2.4,Win32,143.9884809,,,,,,,,,,,,,,,,,,,,,,,,,,,down,0,0.4024,,-0.050925926,-0.335185228,1,0,0,0.5027,0,145,145,172,1,weigeren,images/br_weigeren.png,images/cb_weigeren.png,0,,,,,,,,,,,,,,,,,,,,,,
,,,,,,00097,2023-11-07_10h00.57.913,vbt_B2_day2,2022.2.4,Win32,143.9884809,,,,,,,,,,,,,,,,,,,,,,,,,,,down,0,0.3905,,-0.050925926,-0.335185228,1,0,0,0.4444,0,146,146,21,1,mist,images/br_mist.png,images/cb_mist.png,0,,,,,,,,,,,,,,,,,,,,,,
,,,,,,00097,2023-11-07_10h00.57.913,vbt_B2_day2,2022.2.4,Win32,143.9884809,,,,,,,,,,,,,,,,,,,,,,,,,,,down,0,0.3548,,-0.050925926,-0.335185228,1,0,0,0.4173,0,147,147,1,1,zaal,images/br_zaal.png,images/cb_zaal.png,0,,,,,,,,,,,,,,,,,,,,,,
,,,,,,00097,2023-11-07_10h00.57.913,vbt_B2_day2,2022.2.4,Win32,143.9884809,,,,,,,,,,,,,,,,,,,,,,,,,,,down,0,0.2824,,-0.050925926,-0.335185228,1,0,0,0.2514,0,148,148,105,1,wijlen,images/br_wijlen.png,images/cb_wijlen.png,0,,,,,,,,,,,,,,,,,,,,,,
,,,,,,00097,2023-11-07_10h00.57.913,vbt_B2_day2,2022.2.4,Win32,143.9884809,,,,,,,,,,,,,,,,,,,,,,,,,,,down,0,0.0178,,-0.050925926,-0.335185228,1,0,0,0.0811,0,149,149,65,1,parel,images/br_parel.png,images/cb_parel.png,0,,,,,,,,,,,,,,,,,,,,,,
,,,,,,00097,2023-11-07_10h00.57.913,vbt_B2_day2,2022.2.4,Win32,143.9884809,,,,,,,,,,,,,,,,,,,,,,,,,,,down,0,0.4396,,-0.050925926,-0.335185228,1,0,0,0.3837,0,150,150,20,1,site,images/br_site.png,images/cb_site.png,0,,,,,,,,,,,,,,,,,,,,,,
,,,,,,00097,2023-11-07_10h00.57.913,vbt_B2_day2,2022.2.4,Win32,143.9884809,,,,,,,,,,,,,,,,,,,,,,,,,,,down,0,0.4718,,-0.050925926,-0.335185228,1,0,0,0.4126,0,151,151,157,1,uitlaat,images/br_uitlaat.png,images/cb_uitlaat.png,0,,,,,,,,,,,,,,,,,,,,,,
,,,,,,00097,2023-11-07_10h00.57.913,vbt_B2_day2,2022.2.4,Win32,143.9884809,,,,,,,,,,,,,,,,,,,,,,,,,,,down,0,1.0013,,-0.050925926,-0.335185228,1,0,0,1.0417,0,152,152,85,1,heilig,images/br_heilig.png,images/cb_heilig.png,0,,,,,,,,,,,,,,,,,,,,,,
,,,,,,00097,2023-11-07_10h00.57.913,vbt_B2_day2,2022.2.4,Win32,143.9884809,,,,,,,,,,,,,,,,,,,,,,,,,,,down,0,0.0611,,-0.050925926,-0.335185228,1,0,0,0.1743,0,153,153,36,1,vuur,images/br_vuur.png,images/cb_vuur.png,0,,,,,,,,,,,,,,,,,,,,,,
,,,,,,00097,2023-11-07_10h00.57.913,vbt_B2_day2,2022.2.4,Win32,143.9884809,,,,,,,,,,,,,,,,,,,,,,,,,,,down,0,1.0427,,-0.050925926,-0.335185228,1,0,0,1.0075,0,154,154,31,1,poes,images/br_poes.png,images/cb_poes.png,0,,,,,,,,,,,,,,,,,,,,,,
,,,,,,00097,2023-11-07_10h00.57.913,vbt_B2_day2,2022.2.4,Win32,143.9884809,,,,,,,,,,,,,,,,,,,,,,,,,,,down,0,0.0428,,-0.050925926,-0.335185228,1,0,0,0.0837,0,155,155,125,1,aanzien,images/br_aanzien.png,images/cb_aanzien.png,0,,,,,,,,,,,,,,,,,,,,,,
,,,,,,00097,2023-11-07_10h00.57.913,vbt_B2_day2,2022.2.4,Win32,143.9884809,,,,,,,,,,,,,,,,,,,,,,,,,,,down,0,0.4305,,-0.050925926,-0.335185228,1,0,0,0.4326,0,156,156,155,1,gerucht,images/br_gerucht.png,images/cb_gerucht.png,0,,,,,,,,,,,,,,,,,,,,,,
,,,,,,00097,2023-11-07_10h00.57.913,vbt_B2_day2,2022.2.4,Win32,143.9884809,,,,,,,,,,,,,,,,,,,,,,,,,,,down,0,0.8575,,-0.050925926,-0.335185228,1,0,0,0.9801,0,157,157,183,1,getuigen,images/br_getuigen.png,images/cb_getuigen.png,0,,,,,,,,,,,,,,,,,,,,,,
,,,,,,00097,2023-11-07_10h00.57.913,vbt_B2_day2,2022.2.4,Win32,143.9884809,,,,,,,,,,,,,,,,,,,,,,,,,,,down,0,0.0146,,-0.050925926,-0.335185228,1,0,0,0.0958,0,158,158,115,1,kleren,images/br_kleren.png,images/cb_kleren.png,0,,,,,,,,,,,,,,,,,,,,,,
,,,,,,00097,2023-11-07_10h00.57.913,vbt_B2_day2,2022.2.4,Win32,143.9884809,,,,,,,,,,,,,,,,,,,,,,,,,,,down,0,0.3131,,-0.050925926,-0.335185228,1,0,0,0.2989,0,159,159,67,1,zwart,images/br_zwart.png,images/cb_zwart.png,0,,,,,,,,,,,,,,,,,,,,,,
,,,,,,00097,2023-11-07_10h00.57.913,vbt_B2_day2,2022.2.4,Win32,143.9884809,,,,,,,,,,,,,,,,,,,,,,,,,,,down,0,0.0611,,-0.050925926,-0.335185228,1,0,0,0.0833,0,160,160,123,1,hiervan,images/br_hiervan.png,images/cb_hiervan.png,0,,,,,,,,,,,,,,,,,,,,,,
,,,,,,00097,2023-11-07_10h00.57.913,vbt_B2_day2,2022.2.4,Win32,143.9884809,,,,,,,,,,,,,,,,,,,,,,,,,,,down,0,1.7119,,-0.050925926,-0.335185228,1,0,0,0.6279,0,161,161,16,1,ziek,images/br_ziek.png,images/cb_ziek.png,1,ziek,,,,,,,,,,,,,,,,,,,,,
,,,,,,00097,2023-11-07_10h00.57.913,vbt_B2_day2,2022.2.4,Win32,143.9884809,,,,,,,,,,,,,,,,,,,,,,,,,,,down,0,0.0011,,-0.050925926,-0.335185228,1,0,0,0.0803,0,162,162,32,1,palm,images/br_palm.png,images/cb_palm.png,0,,,,,,,,,,,,,,,,,,,,,,
,,,,,,00097,2023-11-07_10h00.57.913,vbt_B2_day2,2022.2.4,Win32,143.9884809,,,,,,,,,,,,,,,,,,,,,,,,,,,down,0,0.1084,,-0.050925926,-0.335185228,1,0,0,0.0839,0,163,163,130,1,keihard,images/br_keihard.png,images/cb_keihard.png,0,,,,,,,,,,,,,,,,,,,,,,
,,,,,,00097,2023-11-07_10h00.57.913,vbt_B2_day2,2022.2.4,Win32,143.9884809,,,,,,,,,,,,,,,,,,,,,,,,,,,down,0,0.4448,,-0.050925926,-0.335185228,1,0,0,0.4659,0,164,164,128,1,prikken,images/br_prikken.png,images/cb_prikken.png,0,,,,,,,,,,,,,,,,,,,,,,
,,,,,,00097,2023-11-07_10h00.57.913,vbt_B2_day2,2022.2.4,Win32,143.9884809,,,,,,,,,,,,,,,,,,,,,,,,,,,down,0,0.9005,,-0.050925926,-0.335185228,1,0,0,0.7692,0,165,165,191,1,opheffen,images/br_opheffen.png,images/cb_opheffen.png,0,,,,,,,,,,,,,,,,,,,,,,
,,,,,,00097,2023-11-07_10h00.57.913,vbt_B2_day2,2022.2.4,Win32,143.9884809,,,,,,,,,,,,,,,,,,,,,,,,,,,down,0,0.2798,,-0.050925926,-0.335185228,1,0,0,0.0456,0,166,166,23,1,zout,images/br_zout.png,images/cb_zout.png,0,,,,,,,,,,,,,,,,,,,,,,
,,,,,,00097,2023-11-07_10h00.57.913,vbt_B2_day2,2022.2.4,Win32,143.9884809,,,,,,,,,,,,,,,,,,,,,,,,,,,down,0,0.4123,,-0.050925926,-0.335185228,1,0,0,0.4989,0,167,167,114,1,vullen,images/br_vullen.png,images/cb_vullen.png,0,,,,,,,,,,,,,,,,,,,,,,
,,,,,,00097,2023-11-07_10h00.57.913,vbt_B2_day2,2022.2.4,Win32,143.9884809,,,,,,,,,,,,,,,,,,,,,,,,,,,down,0,3.9652,,-0.050925926,-0.335185228,1,0,0,0.4059,0,168,168,99,1,koffie,images/br_koffie.png,images/cb_koffie.png,1,koffie,,,,,,,,,,,,,,,,,,,,,
,,,,,,00097,2023-11-07_10h00.57.913,vbt_B2_day2,2022.2.4,Win32,143.9884809,,,,,,,,,,,,,,,,,,,,,,,,,,,down,0,0.1396,,-0.050925926,-0.335185228,1,0,0,0.0246,0,169,169,161,1,attentie,images/br_attentie.png,images/cb_attentie.png,0,,,,,,,,,,,,,,,,,,,,,,
,,,,,,00097,2023-11-07_10h00.57.913,vbt_B2_day2,2022.2.4,Win32,143.9884809,,,,,,,,,,,,,,,,,,,,,,,,,,,down,0,8.0037,,-0.050925926,-0.335185228,1,0,0,0.3236,0,170,170,136,1,waarbij,images/br_waarbij.png,images/cb_waarbij.png,1,waarbij,,,,,,,,,,,,,,,,,,,,,
,,,,,,00097,2023-11-07_10h00.57.913,vbt_B2_day2,2022.2.4,Win32,143.9884809,,,,,,,,,,,,,,,,,,,,,,,,,,,down,0,0.1253,,-0.050925926,-0.335185228,1,0,0,0.07,0,171,171,79,1,nodig,images/br_nodig.png,images/cb_nodig.png,0,,,,,,,,,,,,,,,,,,,,,,
,,,,,,00097,2023-11-07_10h00.57.913,vbt_B2_day2,2022.2.4,Win32,143.9884809,,,,,,,,,,,,,,,,,,,,,,,,,,,down,0,0.7993,,-0.050925926,-0.333333333,1,0,0,1.0416,0,172,172,167,1,eenhoorn,images/br_eenhoorn.png,images/cb_eenhoorn.png,0,,,,,,,,,,,,,,,,,,,,,,
,,,,,,00097,2023-11-07_10h00.57.913,vbt_B2_day2,2022.2.4,Win32,143.9884809,,,,,,,,,,,,,,,,,,,,,,,,,,,down,0,0.1957,,-0.050925926,-0.333333333,1,0,0,0.2501,0,173,173,185,1,mijnheer,images/br_mijnheer.png,images/cb_mijnheer.png,0,,,,,,,,,,,,,,,,,,,,,,
,,,,,,00097,2023-11-07_10h00.57.913,vbt_B2_day2,2022.2.4,Win32,143.9884809,,,,,,,,,,,,,,,,,,,,,,,,,,,down,0,0.2574,,-0.050925926,-0.333333333,1,0,0,0.313,0,174,174,24,1,jurk,images/br_jurk.png,images/cb_jurk.png,0,,,,,,,,,,,,,,,,,,,,,,
,,,,,,00097,2023-11-07_10h00.57.913,vbt_B2_day2,2022.2.4,Win32,143.9884809,,,,,,,,,,,,,,,,,,,,,,,,,,,down,0,0.9141,,-0.050925926,-0.333333333,1,0,0,1.119,0,175,175,54,1,gebit,images/br_gebit.png,images/cb_gebit.png,0,,,,,,,,,,,,,,,,,,,,,,
,,,,,,00097,2023-11-07_10h00.57.913,vbt_B2_day2,2022.2.4,Win32,143.9884809,,,,,,,,,,,,,,,,,,,,,,,,,,,down,0,0.3481,,-0.050925926,-0.333333333,1,0,0,0.5194,0,176,176,117,1,kennis,images/br_kennis.png,images/cb_kennis.png,0,,,,,,,,,,,,,,,,,,,,,,
,,,,,,00097,2023-11-07_10h00.57.913,vbt_B2_day2,2022.2.4,Win32,143.9884809,,,,,,,,,,,,,,,,,,,,,,,,,,,down,0,0.4065,,-0.050925926,-0.333333333,1,0,0,0.3712,0,177,177,93,1,waarop,images/br_waarop.png,images/cb_waarop.png,0,,,,,,,,,,,,,,,,,,,,,,
,,,,,,00097,2023-11-07_10h00.57.913,vbt_B2_day2,2022.2.4,Win32,143.9884809,,,,,,,,,,,,,,,,,,,,,,,,,,,down,0,0.2718,,-0.050925926,-0.333333333,1,0,0,0.3225,0,178,178,89,1,slapen,images/br_slapen.png,images/cb_slapen.png,0,,,,,,,,,,,,,,,,,,,,,,
,,,,,,00097,2023-11-07_10h00.57.913,vbt_B2_day2,2022.2.4,Win32,143.9884809,,,,,,,,,,,,,,,,,,,,,,,,,,,down,0,0.4918,,-0.050925926,-0.333333333,1,0,0,0.3934,0,179,179,101,1,staren,images/br_staren.png,images/cb_staren.png,0,,,,,,,,,,,,,,,,,,,,,,
,,,,,,00097,2023-11-07_10h00.57.913,vbt_B2_day2,2022.2.4,Win32,143.9884809,,,,,,,,,,,,,,,,,,,,,,,,,,,down,0,3.327,,-0.050925926,-0.333333333,1,0,0,0.3819,0,180,180,179,1,woestijn,images/br_woestijn.png,images/cb_woestijn.png,1,woestijn,,,,,,,,,,,,,,,,,,,,,
,,,,,,00097,2023-11-07_10h00.57.913,vbt_B2_day2,2022.2.4,Win32,143.9884809,,,,,,,,,,,,,,,,,,,,,,,,,,,down,0,0.1903,,-0.050925926,-0.333333333,1,0,0,0.2642,0,181,181,81,1,dubbel,images/br_dubbel.png,images/cb_dubbel.png,0,,,,,,,,,,,,,,,,,,,,,,
,,,,,,00097,2023-11-07_10h00.57.913,vbt_B2_day2,2022.2.4,Win32,143.9884809,,,,,,,,,,,,,,,,,,,,,,,,,,,down,0,0.2629,,-0.050925926,-0.333333333,1,0,0,0.3339,0,182,182,186,1,voorraad,images/br_voorraad.png,images/cb_voorraad.png,0,,,,,,,,,,,,,,,,,,,,,,
,,,,,,00097,2023-11-07_10h00.57.913,vbt_B2_day2,2022.2.4,Win32,143.9884809,,,,,,,,,,,,,,,,,,,,,,,,,,,down,0,0.1622,,-0.050925926,-0.333333333,1,0,0,0.308,0,183,183,164,1,anarchie,images/br_anarchie.png,images/cb_anarchie.png,0,,,,,,,,,,,,,,,,,,,,,,
,,,,,,00097,2023-11-07_10h00.57.913,vbt_B2_day2,2022.2.4,Win32,143.9884809,,,,,,,,,,,,,,,,,,,,,,,,,,,down,0,0.049,,-0.050925926,-0.333333333,1,0,0,0.0697,0,184,184,121,1,twijfel,images/br_twijfel.png,images/cb_twijfel.png,0,,,,,,,,,,,,,,,,,,,,,,
,,,,,,00097,2023-11-07_10h00.57.913,vbt_B2_day2,2022.2.4,Win32,143.9884809,,,,,,,,,,,,,,,,,,,,,,,,,,,down,0,0.0148,,-0.050925926,-0.333333333,1,0,0,0.1707,0,185,185,169,1,oprotten,images/br_oprotten.png,images/cb_oprotten.png,0,,,,,,,,,,,,,,,,,,,,,,
,,,,,,00097,2023-11-07_10h00.57.913,vbt_B2_day2,2022.2.4,Win32,143.9884809,,,,,,,,,,,,,,,,,,,,,,,,,,,down,0,0.3328,,-0.050925926,-0.333333333,1,0,0,0.2673,0,186,186,116,1,besmet,images/br_besmet.png,images/cb_besmet.png,0,,,,,,,,,,,,,,,,,,,,,,
,,,,,,00097,2023-11-07_10h00.57.913,vbt_B2_day2,2022.2.4,Win32,143.9884809,,,,,,,,,,,,,,,,,,,,,,,,,,,down,0,1.0637,,-0.050925926,-0.333333333,1,0,0,1.105,0,187,187,144,1,eetlust,images/br_eetlust.png,images/cb_eetlust.png,0,,,,,,,,,,,,,,,,,,,,,,
,,,,,,00097,2023-11-07_10h00.57.913,vbt_B2_day2,2022.2.4,Win32,143.9884809,,,,,,,,,,,,,,,,,,,,,,,,,,,down,0,0.0133,,-0.050925926,-0.333333333,1,0,0,0.3264,0,188,188,39,1,laag,images/br_laag.png,images/cb_laag.png,0,,,,,,,,,,,,,,,,,,,,,,
,,,,,,00097,2023-11-07_10h00.57.913,vbt_B2_day2,2022.2.4,Win32,143.9884809,,,,,,,,,,,,,,,,,,,,,,,,,,,down,0,0.3471,,-0.050925926,-0.333333333,1,0,0,0.2402,0,189,189,68,1,schat,images/br_schat.png,images/cb_schat.png,0,,,,,,,,,,,,,,,,,,,,,,
,,,,,,00097,2023-11-07_10h00.57.913,vbt_B2_day2,2022.2.4,Win32,143.9884809,,,,,,,,,,,,,,,,,,,,,,,,,,,down,0,0.2526,,-0.050925926,-0.333333333,1,0,0,0.3681,0,190,190,168,1,bisschop,images/br_bisschop.png,images/cb_bisschop.png,0,,,,,,,,,,,,,,,,,,,,,,
,,,,,,00097,2023-11-07_10h00.57.913,vbt_B2_day2,2022.2.4,Win32,143.9884809,,,,,,,,,,,,,,,,,,,,,,,,,,,down,0,0.0814,,-0.050925926,-0.333333333,1,0,0,0.0161,0,191,191,149,1,redding,images/br_redding.png,images/cb_redding.png,0,,,,,,,,,,,,,,,,,,,,,,
,,,,,,00097,2023-11-07_10h00.57.913,vbt_B2_day2,2022.2.4,Win32,143.9884809,,,,,,,,,,,,,,,,,,,,,,,,,,,down,0,0.7089,,-0.050925926,-0.333333333,1,0,0,0.7151,0,192,192,147,1,komisch,images/br_komisch.png,images/cb_komisch.png,0,,,,,,,,,,,,,,,,,,,,,,
,,,,,,00097,2023-11-07_10h00.57.913,vbt_B2_day2,2022.2.4,Win32,143.9884809,,,,,,,,,,,,,,,,,,,,,,,,,,,down,0,0.0151,,-0.050925926,-0.333333333,1,0,0,0.0764,0,193,193,4,1,moes,images/br_moes.png,images/cb_moes.png,0,,,,,,,,,,,,,,,,,,,,,,
,,,,,,00097,2023-11-07_10h00.57.913,vbt_B2_day2,2022.2.4,Win32,143.9884809,,,,,,,,,,,,,,,,,,,,,,,,,,,down,0,3.7343,,-0.050925926,-0.333333333,1,0,0,0.6531,0,194,194,56,1,traag,images/br_traag.png,images/cb_traag.png,1,traag,,,,,,,,,,,,,,,,,,,,,
,,,,,,00097,2023-11-07_10h00.57.913,vbt_B2_day2,2022.2.4,Win32,143.9884809,,,,,,,,,,,,,,,,,,,,,,,,,,,down,0,0.0267,,-0.050925926,-0.333333333,1,0,0,0.1249,0,195,195,174,1,stemming,images/br_stemming.png,images/cb_stemming.png,0,,,,,,,,,,,,,,,,,,,,,,
,,,,,,00097,2023-11-07_10h00.57.913,vbt_B2_day2,2022.2.4,Win32,143.9884809,,,,,,,,,,,,,,,,,,,,,,,,,,,down,0,0.5567,,-0.050925926,-0.333333333,1,0,0,0.5985,0,196,196,72,1,strak,images/br_strak.png,images/cb_strak.png,0,,,,,,,,,,,,,,,,,,,,,,
,,,,,,00097,2023-11-07_10h00.57.913,vbt_B2_day2,2022.2.4,Win32,143.9884809,,,,,,,,,,,,,,,,,,,,,,,,,,,down,0,0.1398,,-0.050925926,-0.333333333,1,0,0,0.091,0,197,197,10,1,leek,images/br_leek.png,images/cb_leek.png,0,,,,,,,,,,,,,,,,,,,,,,
,,,,,,00097,2023-11-07_10h00.57.913,vbt_B2_day2,2022.2.4,Win32,143.9884809,,,,,,,,,,,,,,,,,,,,,,,,,,,down,0,0.1189,,-0.050925926,-0.333333333,1,0,0,0.1112,0,198,198,94,1,oceaan,images/br_oceaan.png,images/cb_oceaan.png,0,,,,,,,,,,,,,,,,,,,,,,
,,,,,,00097,2023-11-07_10h00.57.913,vbt_B2_day2,2022.2.4,Win32,143.9884809,,,,,,,,,,,,,,,,,,,,,,,,,,,down,0,0.1681,,-0.050925926,-0.333333333,1,0,0,0.0976,0,199,199,100,1,geduld,images/br_geduld.png,images/cb_geduld.png,0,,,,,,,,,,,,,,,,,,,,,,
,,,,,,00097,2023-11-07_10h00.57.913,vbt_B2_day2,2022.2.4,Win32,143.9884809,,,,,,,,,,,,,,,,,,,,,,,,,,,,,,,,,,,,,,,,,,,,,,,-0.050925926,-0.333333333,1,0,0,,,,,,,,,,,,,,,,
,,,,,,00097,2023-11-07_10h00.57.913,vbt_B2_day2,2022.2.4,Win32,143.9884809,,,,,,,,,,,,,,,,,,,,,,,,,,,,,,,,,,,,,,,,,,,,,,,,,,,,-0.050925926,-0.333333333,1,0,0,,,,,,,,,,,
,,,,,,00097,2023-11-07_10h00.57.913,vbt_B2_day2,2022.2.4,Win32,143.9884809,,,,,,,,,,,,,,,,,,,,,,,,,,,,,,,,,,,,,,,,,,opdatten,images/br_opdatten.png,images/cb_opdatten.png,,opdatten,,,,,,,,,,,0.099074116,-0.192592621,1,0,0,opdatten,0,0,0,37,1
,,,,,,00097,2023-11-07_10h00.57.913,vbt_B2_day2,2022.2.4,Win32,143.9884809,,,,,,,,,,,,,,,,,,,,,,,,,,,,,,,,,,,,,,,,,,tand,images/br_tand.png,images/cb_tand.png,,tand,,,,,,,,,,,0.099074116,-0.192592621,1,0,0,tand,0,1,1,42,1
,,,,,,00097,2023-11-07_10h00.57.913,vbt_B2_day2,2022.2.4,Win32,143.9884809,,,,,,,,,,,,,,,,,,,,,,,,,,,,,,,,,,,,,,,,,,blad,images/br_blad.png,images/cb_blad.png,,blad,,,,,,,,,,,0.099074116,-0.192592621,1,0,0,blad,0,2,2,1,1
,,,,,,00097,2023-11-07_10h00.57.913,vbt_B2_day2,2022.2.4,Win32,143.9884809,,,,,,,,,,,,,,,,,,,,,,,,,,,,,,,,,,,,,,,,,,badon,images/br_badon.png,images/cb_badon.png,,badon,,,,,,,,,,,0.099074116,-0.192592621,1,0,0,badon,0,3,3,26,1
,,,,,,00097,2023-11-07_10h00.57.913,vbt_B2_day2,2022.2.4,Win32,143.9884809,,,,,,,,,,,,,,,,,,,,,,,,,,,,,,,,,,,,,,,,,,heilig,images/br_heilig.png,images/cb_heilig.png,,heilig,,,,,,,,,,,0.099074116,-0.192592621,1,0,0,heilig,0,4,4,9,1
,,,,,,00097,2023-11-07_10h00.57.913,vbt_B2_day2,2022.2.4,Win32,143.9884809,,,,,,,,,,,,,,,,,,,,,,,,,,,,,,,,,,,,,,,,,,sjijfel,images/br_sjijfel.png,images/cb_sjijfel.png,,sjijfel,,,,,,,,,,,0.099074116,-0.192592621,1,0,0,sjijfel,0,5,5,33,1
,,,,,,00097,2023-11-07_10h00.57.913,vbt_B2_day2,2022.2.4,Win32,143.9884809,,,,,,,,,,,,,,,,,,,,,,,,,,,,,,,,,,,,,,,,,,heengeen,images/br_heengeen.png,images/cb_heengeen.png,,heengaan,,,,,,,,,,,0.099074116,-0.192592621,1,0,0,heengaan,0,6,6,38,1
,,,,,,00097,2023-11-07_10h00.57.913,vbt_B2_day2,2022.2.4,Win32,143.9884809,,,,,,,,,,,,,,,,,,,,,,,,,,,,,,,,,,,,,,,,,,strikken,images/br_strikken.png,images/cb_strikken.png,,strikken,,,,,,,,,,,0.099074116,-0.192592621,1,0,0,strikken,0,7,7,18,1
,,,,,,00097,2023-11-07_10h00.57.913,vbt_B2_day2,2022.2.4,Win32,143.9884809,,,,,,,,,,,,,,,,,,,,,,,,,,,,,,,,,,,,,,,,,,sifferd,images/br_sifferd.png,images/cb_sifferd.png,,sifferd,,,,,,,,,,,0.099074116,-0.192592621,1,0,0,sifferd,0,8,8,32,1
,,,,,,00097,2023-11-07_10h00.57.913,vbt_B2_day2,2022.2.4,Win32,143.9884809,,,,,,,,,,,,,,,,,,,,,,,,,,,,,,,,,,,,,,,,,,krimmen,images/br_krimmen.png,images/cb_krimmen.png,,krimmen,,,,,,,,,,,0.099074116,-0.192592621,1,0,0,krimmen,0,9,9,35,1
,,,,,,00097,2023-11-07_10h00.57.913,vbt_B2_day2,2022.2.4,Win32,143.9884809,,,,,,,,,,,,,,,,,,,,,,,,,,,,,,,,,,,,,,,,,,eenhoorn,images/br_eenhoorn.png,images/cb_eenhoorn.png,,eenhoorn,,,,,,,,,,,0.099074116,-0.192592621,1,0,0,eenhoorn,0,10,10,19,1
,,,,,,00097,2023-11-07_10h00.57.913,vbt_B2_day2,2022.2.4,Win32,143.9884809,,,,,,,,,,,,,,,,,,,,,,,,,,,,,,,,,,,,,,,,,,ophuimen,images/br_ophuimen.png,images/cb_ophuimen.png,,ophuimen,,,,,,,,,,,0.099074116,-0.192592621,1,0,0,ophuimen,0,11,11,36,1
,,,,,,00097,2023-11-07_10h00.57.913,vbt_B2_day2,2022.2.4,Win32,143.9884809,,,,,,,,,,,,,,,,,,,,,,,,,,,,,,,,,,,,,,,,,,bereuwen,images/br_bereuwen.png,images/cb_bereuwen.png,,bereuwen,,,,,,,,,,,0.099074116,-0.192592621,1,0,0,bereuwen,0,12,12,39,1
,,,,,,00097,2023-11-07_10h00.57.913,vbt_B2_day2,2022.2.4,Win32,143.9884809,,,,,,,,,,,,,,,,,,,,,,,,,,,,,,,,,,,,,,,,,,zwager,images/br_zwager.png,images/cb_zwager.png,,zwanger,,,,,,,,,,,0.099074116,-0.192592621,1,0,0,zwanger,0,13,13,49,1
,,,,,,00097,2023-11-07_10h00.57.913,vbt_B2_day2,2022.2.4,Win32,143.9884809,,,,,,,,,,,,,,,,,,,,,,,,,,,,,,,,,,,,,,,,,,jong,images/br_jong.png,images/cb_jong.png,,jong,,,,,,,,,,,0.099074116,-0.192592621,1,0,0,jong,0,14,14,43,1
,,,,,,00097,2023-11-07_10h00.57.913,vbt_B2_day2,2022.2.4,Win32,143.9884809,,,,,,,,,,,,,,,,,,,,,,,,,,,,,,,,,,,,,,,,,,aanzien,images/br_aanzien.png,images/cb_aanzien.png,,aanzien,,,,,,,,,,,0.099074116,-0.192592621,1,0,0,aanzien,0,15,15,13,1
,,,,,,00097,2023-11-07_10h00.57.913,vbt_B2_day2,2022.2.4,Win32,143.9884809,,,,,,,,,,,,,,,,,,,,,,,,,,,,,,,,,,,,,,,,,,systeem,images/br_systeem.png,images/cb_systeem.png,,systeem,,,,,,,,,,,0.099074116,-0.192592621,1,0,0,systeem,0,16,16,54,1
,,,,,,00097,2023-11-07_10h00.57.913,vbt_B2_day2,2022.2.4,Win32,143.9884809,,,,,,,,,,,,,,,,,,,,,,,,,,,,,,,,,,,,,,,,,,zomers,images/br_zomers.png,images/cb_zomers.png,,zomers,,,,,,,,,,,0.099074116,-0.192592621,1,0,0,zomers,0,17,17,48,1
,,,,,,00097,2023-11-07_10h00.57.913,vbt_B2_day2,2022.2.4,Win32,143.9884809,,,,,,,,,,,,,,,,,,,,,,,,,,,,,,,,,,,,,,,,,,goon,images/br_goon.png,images/cb_goon.png,,goon,,,,,,,,,,,0.099074116,-0.192592621,1,0,0,goon,0,18,18,23,1
,,,,,,00097,2023-11-07_10h00.57.913,vbt_B2_day2,2022.2.4,Win32,143.9884809,,,,,,,,,,,,,,,,,,,,,,,,,,,,,,,,,,,,,,,,,,lokken,images/br_lokken.png,images/cb_lokken.png,,lokken,,,,,,,,,,,0.099074116,-0.192592621,1,0,0,lokken,0,19,19,8,1
,,,,,,00097,2023-11-07_10h00.57.913,vbt_B2_day2,2022.2.4,Win32,143.9884809,,,,,,,,,,,,,,,,,,,,,,,,,,,,,,,,,,,,,,,,,,trots,images/br_trots.png,images/cb_trots.png,,trots,,,,,,,,,,,0.099074116,-0.192592621,1,0,0,trots,0,20,20,44,1
,,,,,,00097,2023-11-07_10h00.57.913,vbt_B2_day2,2022.2.4,Win32,143.9884809,,,,,,,,,,,,,,,,,,,,,,,,,,,,,,,,,,,,,,,,,,breuk,images/br_breuk.png,images/cb_breuk.png,,breuk,,,,,,,,,,,0.099074116,-0.192592621,1,0,0,breuk,0,21,21,45,1
,,,,,,00097,2023-11-07_10h00.57.913,vbt_B2_day2,2022.2.4,Win32,143.9884809,,,,,,,,,,,,,,,,,,,,,,,,,,,,,,,,,,,,,,,,,,inzicht,images/br_inzicht.png,images/cb_inzicht.png,,inzicht,,,,,,,,,,,0.099074116,-0.192592621,1,0,0,inzicht,0,22,22,53,1
,,,,,,00097,2023-11-07_10h00.57.913,vbt_B2_day2,2022.2.4,Win32,143.9884809,,,,,,,,,,,,,,,,,,,,,,,,,,,,,,,,,,,,,,,,,,welzijn,images/br_welzijn.png,images/cb_welzijn.png,,welzijn,,,,,,,,,,,0.099074116,-0.192592621,1,0,0,welzijn,0,23,23,52,1
,,,,,,00097,2023-11-07_10h00.57.913,vbt_B2_day2,2022.2.4,Win32,143.9884809,,,,,,,,,,,,,,,,,,,,,,,,,,,,,,,,,,,,,,,,,,stes,images/br_stes.png,images/cb_stes.png,,stes,,,,,,,,,,,0.099074116,-0.192592621,1,0,0,stes,0,24,24,21,1
,,,,,,00097,2023-11-07_10h00.57.913,vbt_B2_day2,2022.2.4,Win32,143.9884809,,,,,,,,,,,,,,,,,,,,,,,,,,,,,,,,,,,,,,,,,,flits,images/br_flits.png,images/cb_flits.png,,flits,,,,,,,,,,,0.099074116,-0.192592621,1,0,0,flits,0,25,25,4,1
,,,,,,00097,2023-11-07_10h00.57.913,vbt_B2_day2,2022.2.4,Win32,143.9884809,,,,,,,,,,,,,,,,,,,,,,,,,,,,,,,,,,,,,,,,,,manieren,images/br_manieren.png,images/cb_manieren.png,,manieren,,,,,,,,,,,0.099074116,-0.192592621,1,0,0,manieren,0,26,26,56,1
,,,,,,00097,2023-11-07_10h00.57.913,vbt_B2_day2,2022.2.4,Win32,143.9884809,,,,,,,,,,,,,,,,,,,,,,,,,,,,,,,,,,,,,,,,,,tweeling,images/br_tweeling.png,images/cb_tweeling.png,,tweeling,,,,,,,,,,,0.099074116,-0.192592621,1,0,0,tweeling,0,27,27,58,1
,,,,,,00097,2023-11-07_10h00.57.913,vbt_B2_day2,2022.2.4,Win32,143.9884809,,,,,,,,,,,,,,,,,,,,,,,,,,,,,,,,,,,,,,,,,,kijlen,images/br_kijlen.png,images/cb_kijlen.png,,kijlen,,,,,,,,,,,0.099074116,-0.192592621,1,0,0,kijlen,0,28,28,31,1
,,,,,,00097,2023-11-07_10h00.57.913,vbt_B2_day2,2022.2.4,Win32,143.9884809,,,,,,,,,,,,,,,,,,,,,,,,,,,,,,,,,,,,,,,,,,dode,images/br_dode.png,images/cb_dode.png,,dode,,,,,,,,,,,0.099074116,-0.192592621,1,0,0,dode,0,29,29,41,1
,,,,,,00097,2023-11-07_10h00.57.913,vbt_B2_day2,2022.2.4,Win32,143.9884809,,,,,,,,,,,,,,,,,,,,,,,,,,,,,,,,,,,,,,,,,,agressie,images/br_agressie.png,images/cb_agressie.png,,agressie,,,,,,,,,,,0.099074116,-0.192592621,1,0,0,agressie,0,30,30,59,1
,,,,,,00097,2023-11-07_10h00.57.913,vbt_B2_day2,2022.2.4,Win32,143.9884809,,,,,,,,,,,,,,,,,,,,,,,,,,,,,,,,,,,,,,,,,,prekken,images/br_prekken.png,images/cb_prekken.png,,prekken,,,,,,,,,,,0.099074116,-0.192592621,1,0,0,prekken,0,31,31,34,1
,,,,,,00097,2023-11-07_10h00.57.913,vbt_B2_day2,2022.2.4,Win32,143.9884809,,,,,,,,,,,,,,,,,,,,,,,,,,,,,,,,,,,,,,,,,,joes,images/br_joes.png,images/cb_joes.png,,joes,,,,,,,,,,,0.099074116,-0.192592621,1,0,0,joes,0,32,32,20,1
,,,,,,00097,2023-11-07_10h00.57.913,vbt_B2_day2,2022.2.4,Win32,143.9884809,,,,,,,,,,,,,,,,,,,,,,,,,,,,,,,,,,,,,,,,,,kabel,images/br_kabel.png,images/cb_kabel.png,,kabel,,,,,,,,,,,0.099074116,-0.192592621,1,0,0,kabel,0,33,33,7,1
,,,,,,00097,2023-11-07_10h00.57.913,vbt_B2_day2,2022.2.4,Win32,143.9884809,,,,,,,,,,,,,,,,,,,,,,,,,,,,,,,,,,,,,,,,,,bloeien,images/br_bloeien.png,images/cb_bloeien.png,,bloeien,,,,,,,,,,,0.099074116,-0.192592621,1,0,0,bloeien,0,34,34,12,1
,,,,,,00097,2023-11-07_10h00.57.913,vbt_B2_day2,2022.2.4,Win32,143.9884809,,,,,,,,,,,,,,,,,,,,,,,,,,,,,,,,,,,,,,,,,,anarchie,images/br_anarchie.png,images/cb_anarchie.png,,anarchie,,,,,,,,,,,0.099074116,-0.192592621,1,0,0,anarchie,0,35,35,16,1
,,,,,,00097,2023-11-07_10h00.57.913,vbt_B2_day2,2022.2.4,Win32,143.9884809,,,,,,,,,,,,,,,,,,,,,,,,,,,,,,,,,,,,,,,,,,jagen,images/br_jagen.png,images/cb_jagen.png,,jagen,,,,,,,,,,,0.099074116,-0.192592621,1,0,0,jagen,0,36,36,6,1
,,,,,,00097,2023-11-07_10h00.57.913,vbt_B2_day2,2022.2.4,Win32,143.9884809,,,,,,,,,,,,,,,,,,,,,,,,,,,,,,,,,,,,,,,,,,thema,images/br_thema.png,images/cb_thema.png,,thema,,,,,,,,,,,0.099074116,-0.192592621,1,0,0,thema,0,37,37,47,1
,,,,,,00097,2023-11-07_10h00.57.913,vbt_B2_day2,2022.2.4,Win32,143.9884809,,,,,,,,,,,,,,,,,,,,,,,,,,,,,,,,,,,,,,,,,,doodmoe,images/br_doodmoe.png,images/cb_doodmoe.png,,doodmoe,,,,,,,,,,,0.099074116,-0.192592621,1,0,0,doodmoe,0,38,38,15,1
,,,,,,00097,2023-11-07_10h00.57.913,vbt_B2_day2,2022.2.4,Win32,143.9884809,,,,,,,,,,,,,,,,,,,,,,,,,,,,,,,,,,,,,,,,,,woning,images/br_woning.png,images/cb_woning.png,,woning,,,,,,,,,,,0.099074116,-0.192592621,1,0,0,woning,0,39,39,10,1
,,,,,,00097,2023-11-07_10h00.57.913,vbt_B2_day2,2022.2.4,Win32,143.9884809,,,,,,,,,,,,,,,,,,,,,,,,,,,,,,,,,,,,,,,,,,negel,images/br_negel.png,images/cb_negel.png,,negel,,,,,,,,,,,0.099074116,-0.192592621,1,0,0,negel,0,40,40,24,1
,,,,,,00097,2023-11-07_10h00.57.913,vbt_B2_day2,2022.2.4,Win32,143.9884809,,,,,,,,,,,,,,,,,,,,,,,,,,,,,,,,,,,,,,,,,,kenzis,images/br_kenzis.png,images/cb_kenzis.png,,kenzis,,,,,,,,,,,0.099074116,-0.192592621,1,0,0,kenzis,0,41,41,30,1
,,,,,,00097,2023-11-07_10h00.57.913,vbt_B2_day2,2022.2.4,Win32,143.9884809,,,,,,,,,,,,,,,,,,,,,,,,,,,,,,,,,,,,,,,,,,feestdag,images/br_feestdag.png,images/cb_feestdag.png,,feestdag,,,,,,,,,,,0.099074116,-0.192592621,1,0,0,feestdag,0,42,42,17,1
,,,,,,00097,2023-11-07_10h00.57.913,vbt_B2_day2,2022.2.4,Win32,143.9884809,,,,,,,,,,,,,,,,,,,,,,,,,,,,,,,,,,,,,,,,,,remel,images/br_remel.png,images/cb_remel.png,,remel,,,,,,,,,,,0.099074116,-0.192592621,1,0,0,remel,0,43,43,25,1
,,,,,,00097,2023-11-07_10h00.57.913,vbt_B2_day2,2022.2.4,Win32,143.9884809,,,,,,,,,,,,,,,,,,,,,,,,,,,,,,,,,,,,,,,,,,ningen,images/br_ningen.png,images/cb_ningen.png,,ningen,,,,,,,,,,,0.099074116,-0.192592621,1,0,0,ningen,0,44,44,28,1
,,,,,,00097,2023-11-07_10h00.57.913,vbt_B2_day2,2022.2.4,Win32,143.9884809,,,,,,,,,,,,,,,,,,,,,,,,,,,,,,,,,,,,,,,,,,moes,images/br_moes.png,images/cb_moes.png,,moes,,,,,,,,,,,0.099074116,-0.192592621,1,0,0,moes,0,45,45,0,1
,,,,,,00097,2023-11-07_10h00.57.913,vbt_B2_day2,2022.2.4,Win32,143.9884809,,,,,,,,,,,,,,,,,,,,,,,,,,,,,,,,,,,,,,,,,,piste,images/br_piste.png,images/cb_piste.png,,piste,,,,,,,,,,,0.099074116,-0.192592621,1,0,0,piste,0,46,46,5,1
,,,,,,00097,2023-11-07_10h00.57.913,vbt_B2_day2,2022.2.4,Win32,143.9884809,,,,,,,,,,,,,,,,,,,,,,,,,,,,,,,,,,,,,,,,,,plannen,images/br_plannen.png,images/cb_plannen.png,,plannen,,,,,,,,,,,0.099074116,-0.192592621,1,0,0,plannen,0,47,47,55,1
,,,,,,00097,2023-11-07_10h00.57.913,vbt_B2_day2,2022.2.4,Win32,143.9884809,,,,,,,,,,,,,,,,,,,,,,,,,,,,,,,,,,,,,,,,,,lurgen,images/br_lurgen.png,images/cb_lurgen.png,,lurgen,,,,,,,,,,,0.099074116,-0.192592621,1,0,0,lurgen,0,48,48,29,1
,,,,,,00097,2023-11-07_10h00.57.913,vbt_B2_day2,2022.2.4,Win32,143.9884809,,,,,,,,,,,,,,,,,,,,,,,,,,,,,,,,,,,,,,,,,,toeval,images/br_toeval.png,images/cb_toeval.png,,toeval,,,,,,,,,,,0.099074116,-0.192592621,1,0,0,toeval,0,49,49,11,1
,,,,,,00097,2023-11-07_10h00.57.913,vbt_B2_day2,2022.2.4,Win32,143.9884809,,,,,,,,,,,,,,,,,,,,,,,,,,,,,,,,,,,,,,,,,,kasteel,images/br_kasteel.png,images/cb_kasteel.png,,,,,,,,,,,,,0.099074116,-0.192592621,1,0,0,,0,50,50,14,1
,,,,,,00097,2023-11-07_10h00.57.913,vbt_B2_day2,2022.2.4,Win32,143.9884809,,,,,,,,,,,,,,,,,,,,,,,,,,,,,,,,,,,,,,,,,,clan,images/br_clan.png,images/cb_clan.png,,clan,,,,,,,,,,,0.099074116,-0.192592621,1,0,0,clan,0,51,51,40,1
,,,,,,00097,2023-11-07_10h00.57.913,vbt_B2_day2,2022.2.4,Win32,143.9884809,,,,,,,,,,,,,,,,,,,,,,,,,,,,,,,,,,,,,,,,,,aanvraag,images/br_aanvraag.png,images/cb_aanvraag.png,,aanvraag,,,,,,,,,,,0.099074116,-0.192592621,1,0,0,aanvraag,0,52,52,57,1
,,,,,,00097,2023-11-07_10h00.57.913,vbt_B2_day2,2022.2.4,Win32,143.9884809,,,,,,,,,,,,,,,,,,,,,,,,,,,,,,,,,,,,,,,,,,zegel,images/br_zegel.png,images/cb_zegel.png,,zegel,,,,,,,,,,,0.099074116,-0.192592621,1,0,0,zegel,0,53,53,46,1
,,,,,,00097,2023-11-07_10h00.57.913,vbt_B2_day2,2022.2.4,Win32,143.9884809,,,,,,,,,,,,,,,,,,,,,,,,,,,,,,,,,,,,,,,,,,lijnen,images/br_lijnen.png,images/cb_lijnen.png,,lijnen,,,,,,,,,,,0.099074116,-0.192592621,1,0,0,lijnen,0,54,54,51,1
,,,,,,00097,2023-11-07_10h00.57.913,vbt_B2_day2,2022.2.4,Win32,143.9884809,,,,,,,,,,,,,,,,,,,,,,,,,,,,,,,,,,,,,,,,,,sora,images/br_sora.png,images/cb_sora.png,,sora,,,,,,,,,,,0.099074116,-0.192592621,1,0,0,sora,0,55,55,22,1
,,,,,,00097,2023-11-07_10h00.57.913,vbt_B2_day2,2022.2.4,Win32,143.9884809,,,,,,,,,,,,,,,,,,,,,,,,,,,,,,,,,,,,,,,,,,geld,images/br_geld.png,images/cb_geld.png,,geld,,,,,,,,,,,0.099074116,-0.192592621,1,0,0,geld,0,56,56,3,1
,,,,,,00097,2023-11-07_10h00.57.913,vbt_B2_day2,2022.2.4,Win32,143.9884809,,,,,,,,,,,,,,,,,,,,,,,,,,,,,,,,,,,,,,,,,,diep,images/br_diep.png,images/cb_diep.png,,diep,,,,,,,,,,,0.099074116,-0.192592621,1,0,0,diep,0,57,57,2,1
,,,,,,00097,2023-11-07_10h00.57.913,vbt_B2_day2,2022.2.4,Win32,143.9884809,,,,,,,,,,,,,,,,,,,,,,,,,,,,,,,,,,,,,,,,,,koorts,images/br_koorts.png,images/cb_koorts.png,,koorts,,,,,,,,,,,0.099074116,-0.192592621,1,0,0,koorts,0,58,58,50,1
,,,,,,00097,2023-11-07_10h00.57.913,vbt_B2_day2,2022.2.4,Win32,143.9884809,,,,,,,,,,,,,,,,,,,,,,,,,,,,,,,,,,,,,,,,,,wijve,images/br_wijve.png,images/cb_wijve.png,,wijve,,,,,,,,,,,0.099074116,-0.192592621,1,0,0,wijve,0,59,59,27,1
,,,,,,00097,2023-11-07_10h00.57.913,vbt_B2_day2,2022.2.4,Win32,143.9884809,,,,,,,,,,,,,,,,,,,,,,,,,,,,,,,,,,,,,,,,,,,,,,,,,,,,,,,,,,,,,,,,,,,
