welcome_mouse.x,welcome_mouse.y,welcome_mouse.leftButton,welcome_mouse.midButton,welcome_mouse.rightButton,welcome_mouse.time,"ID",date,expName,psychopyVersion,OS,frameRate,participant,refresh_mouse.x,refresh_mouse.y,refresh_mouse.leftButton,refresh_mouse.midButton,refresh_mouse.rightButton,refresh_mouse.time,braille_mouse.x,braille_mouse.y,braille_mouse.leftButton,braille_mouse.midButton,braille_mouse.rightButton,braille_mouse.time,trials.thisRepN,trials.thisTrialN,trials.thisN,trials.thisIndex,trials.ran,nlLet,brLet,cbLet,trainInstr_mouse.x,trainInstr_mouse.y,trainInstr_mouse.leftButton,trainInstr_mouse.midButton,trainInstr_mouse.rightButton,trainInstr_mouse.time,translation_key.keys,translation_key.corr,translation_key.rt,word_rsp.text,word_mouse.x,word_mouse.y,word_mouse.leftButton,word_mouse.midButton,word_mouse.rightButton,word_mouse.time,train_loop.thisRepN,train_loop.thisTrialN,train_loop.thisN,train_loop.thisIndex,train_loop.ran,nlWrd,brWrd,cbWrd,test,testResp,mouse.x,mouse.y,mouse.leftButton,mouse.midButton,mouse.rightButton,testInstr_mouse.x,testInstr_mouse.y,testInstr_mouse.leftButton,testInstr_mouse.midButton,testInstr_mouse.rightButton,test_mouse.x,test_mouse.y,test_mouse.leftButton,test_mouse.midButton,test_mouse.rightButton,test_response.text,test_loop.thisRepN,test_loop.thisTrialN,test_loop.thisN,test_loop.thisIndex,test_loop.ran
-0.205555556,-0.262037065,1,0,0,22.6286,55987,2023-09-28_09h06.29.234,vbt_B2_day2,2022.2.4,Win32,60.5107104,55987,,,,,,,,,,,,,,,,,,,,,,,,,,,,,,,,,,,,,,,,,,,,,,,,,,,,,,,,,,,,,,,,,,,
,,,,,,55987,2023-09-28_09h06.29.234,vbt_B2_day2,2022.2.4,Win32,60.5107104,55987,-0.205555556,-0.262037065,1,0,0,16.0983,,,,,,,,,,,,,,,,,,,,,,,,,,,,,,,,,,,,,,,,,,,,,,,,,,,,,,,,,,,,,
,,,,,,55987,2023-09-28_09h06.29.234,vbt_B2_day2,2022.2.4,Win32,60.5107104,55987,,,,,,,-0.205555556,-0.262037065,1,0,0,0.6334,0,0,0,12,1,m,images/br_m.png,images/cb_m.png,,,,,,,,,,,,,,,,,,,,,,,,,,,,,,,,,,,,,,,,,,,,,,,
,,,,,,55987,2023-09-28_09h06.29.234,vbt_B2_day2,2022.2.4,Win32,60.5107104,55987,,,,,,,-0.205555556,-0.262037065,1,0,0,6.6831,0,1,1,15,1,p,images/br_p.png,images/cb_p.png,,,,,,,,,,,,,,,,,,,,,,,,,,,,,,,,,,,,,,,,,,,,,,,
,,,,,,55987,2023-09-28_09h06.29.234,vbt_B2_day2,2022.2.4,Win32,60.5107104,55987,,,,,,,-0.205555556,-0.262037065,1,0,0,1.3333,0,2,2,11,1,l,images/br_l.png,images/cb_l.png,,,,,,,,,,,,,,,,,,,,,,,,,,,,,,,,,,,,,,,,,,,,,,,
,,,,,,55987,2023-09-28_09h06.29.234,vbt_B2_day2,2022.2.4,Win32,60.5107104,55987,,,,,,,-0.205555556,-0.262037065,1,0,0,0.6664,0,3,3,8,1,i,images/br_i.png,images/cb_i.png,,,,,,,,,,,,,,,,,,,,,,,,,,,,,,,,,,,,,,,,,,,,,,,
,,,,,,55987,2023-09-28_09h06.29.234,vbt_B2_day2,2022.2.4,Win32,60.5107104,55987,,,,,,,-0.205555556,-0.262037065,1,0,0,8.417,0,4,4,21,1,v,images/br_v.png,images/cb_v.png,,,,,,,,,,,,,,,,,,,,,,,,,,,,,,,,,,,,,,,,,,,,,,,
,,,,,,55987,2023-09-28_09h06.29.234,vbt_B2_day2,2022.2.4,Win32,60.5107104,55987,,,,,,,-0.205555556,-0.262037065,1,0,0,0.867,0,5,5,2,1,c,images/br_c.png,images/cb_c.png,,,,,,,,,,,,,,,,,,,,,,,,,,,,,,,,,,,,,,,,,,,,,,,
,,,,,,55987,2023-09-28_09h06.29.234,vbt_B2_day2,2022.2.4,Win32,60.5107104,55987,,,,,,,-0.205555556,-0.262037065,1,0,0,5.1171,0,6,6,10,1,k,images/br_k.png,images/cb_k.png,,,,,,,,,,,,,,,,,,,,,,,,,,,,,,,,,,,,,,,,,,,,,,,
,,,,,,55987,2023-09-28_09h06.29.234,vbt_B2_day2,2022.2.4,Win32,60.5107104,55987,,,,,,,-0.205555556,-0.262037065,1,0,0,2.8667,0,7,7,9,1,j,images/br_j.png,images/cb_j.png,,,,,,,,,,,,,,,,,,,,,,,,,,,,,,,,,,,,,,,,,,,,,,,
,,,,,,55987,2023-09-28_09h06.29.234,vbt_B2_day2,2022.2.4,Win32,60.5107104,55987,,,,,,,-0.205555556,-0.262037065,1,0,0,0.6334,0,8,8,17,1,r,images/br_r.png,images/cb_r.png,,,,,,,,,,,,,,,,,,,,,,,,,,,,,,,,,,,,,,,,,,,,,,,
,,,,,,55987,2023-09-28_09h06.29.234,vbt_B2_day2,2022.2.4,Win32,60.5107104,55987,,,,,,,-0.205555556,-0.262037065,1,0,0,2.5,0,9,9,24,1,y,images/br_y.png,images/cb_y.png,,,,,,,,,,,,,,,,,,,,,,,,,,,,,,,,,,,,,,,,,,,,,,,
,,,,,,55987,2023-09-28_09h06.29.234,vbt_B2_day2,2022.2.4,Win32,60.5107104,55987,,,,,,,-0.162036981,-0.263888889,1,0,0,2.2669,0,10,10,19,1,t,images/br_t.png,images/cb_t.png,,,,,,,,,,,,,,,,,,,,,,,,,,,,,,,,,,,,,,,,,,,,,,,
,,,,,,55987,2023-09-28_09h06.29.234,vbt_B2_day2,2022.2.4,Win32,60.5107104,55987,,,,,,,-0.162036981,-0.263888889,1,0,0,3.8,0,11,11,5,1,f,images/br_f.png,images/cb_f.png,,,,,,,,,,,,,,,,,,,,,,,,,,,,,,,,,,,,,,,,,,,,,,,
,,,,,,55987,2023-09-28_09h06.29.234,vbt_B2_day2,2022.2.4,Win32,60.5107104,55987,,,,,,,-0.162036981,-0.263888889,1,0,0,0.7498,0,12,12,6,1,g,images/br_g.png,images/cb_g.png,,,,,,,,,,,,,,,,,,,,,,,,,,,,,,,,,,,,,,,,,,,,,,,
,,,,,,55987,2023-09-28_09h06.29.234,vbt_B2_day2,2022.2.4,Win32,60.5107104,55987,,,,,,,-0.162036981,-0.263888889,1,0,0,5.9829,0,13,13,3,1,d,images/br_d.png,images/cb_d.png,,,,,,,,,,,,,,,,,,,,,,,,,,,,,,,,,,,,,,,,,,,,,,,
,,,,,,55987,2023-09-28_09h06.29.234,vbt_B2_day2,2022.2.4,Win32,60.5107104,55987,,,,,,,-0.111111111,-0.353703732,1,0,0,1.6007,0,14,14,4,1,e,images/br_e.png,images/cb_e.png,,,,,,,,,,,,,,,,,,,,,,,,,,,,,,,,,,,,,,,,,,,,,,,
,,,,,,55987,2023-09-28_09h06.29.234,vbt_B2_day2,2022.2.4,Win32,60.5107104,55987,,,,,,,-0.209259245,-0.253703732,1,0,0,0.1667,0,15,15,20,1,u,images/br_u.png,images/cb_u.png,,,,,,,,,,,,,,,,,,,,,,,,,,,,,,,,,,,,,,,,,,,,,,,
,,,,,,55987,2023-09-28_09h06.29.234,vbt_B2_day2,2022.2.4,Win32,60.5107104,55987,,,,,,,0.274074131,-0.188888889,1,0,0,1.9002,0,16,16,14,1,o,images/br_o.png,images/cb_o.png,,,,,,,,,,,,,,,,,,,,,,,,,,,,,,,,,,,,,,,,,,,,,,,
,,,,,,55987,2023-09-28_09h06.29.234,vbt_B2_day2,2022.2.4,Win32,60.5107104,55987,,,,,,,0.274074131,-0.188888889,1,0,0,17.3506,0,17,17,1,1,b,images/br_b.png,images/cb_b.png,,,,,,,,,,,,,,,,,,,,,,,,,,,,,,,,,,,,,,,,,,,,,,,
,,,,,,55987,2023-09-28_09h06.29.234,vbt_B2_day2,2022.2.4,Win32,60.5107104,55987,,,,,,,0.274074131,-0.188888889,1,0,0,0.3833,0,18,18,25,1,z,images/br_z.png,images/cb_z.png,,,,,,,,,,,,,,,,,,,,,,,,,,,,,,,,,,,,,,,,,,,,,,,
,,,,,,55987,2023-09-28_09h06.29.234,vbt_B2_day2,2022.2.4,Win32,60.5107104,55987,,,,,,,0.270370399,-0.070370399,1,0,0,1.5662,0,19,19,22,1,w,images/br_w.png,images/cb_w.png,,,,,,,,,,,,,,,,,,,,,,,,,,,,,,,,,,,,,,,,,,,,,,,
,,,,,,55987,2023-09-28_09h06.29.234,vbt_B2_day2,2022.2.4,Win32,60.5107104,55987,,,,,,,0.057407464,0.058333333,1,0,0,8.0996,0,20,20,7,1,h,images/br_h.png,images/cb_h.png,,,,,,,,,,,,,,,,,,,,,,,,,,,,,,,,,,,,,,,,,,,,,,,
,,,,,,55987,2023-09-28_09h06.29.234,vbt_B2_day2,2022.2.4,Win32,60.5107104,55987,,,,,,,0.057407464,0.058333333,1,0,0,2.3996,0,21,21,23,1,x,images/br_x.png,images/cb_x.png,,,,,,,,,,,,,,,,,,,,,,,,,,,,,,,,,,,,,,,,,,,,,,,
,,,,,,55987,2023-09-28_09h06.29.234,vbt_B2_day2,2022.2.4,Win32,60.5107104,55987,,,,,,,0.145370399,-0.051851866,1,0,0,13.3338,0,22,22,16,1,q,images/br_q.png,images/cb_q.png,,,,,,,,,,,,,,,,,,,,,,,,,,,,,,,,,,,,,,,,,,,,,,,
,,,,,,55987,2023-09-28_09h06.29.234,vbt_B2_day2,2022.2.4,Win32,60.5107104,55987,,,,,,,0.145370399,-0.051851866,1,0,0,0.7836,0,23,23,0,1,a,images/br_a.png,images/cb_a.png,,,,,,,,,,,,,,,,,,,,,,,,,,,,,,,,,,,,,,,,,,,,,,,
,,,,,,55987,2023-09-28_09h06.29.234,vbt_B2_day2,2022.2.4,Win32,60.5107104,55987,,,,,,,0.140740797,-0.05648151,1,0,0,1.5334,0,24,24,18,1,s,images/br_s.png,images/cb_s.png,,,,,,,,,,,,,,,,,,,,,,,,,,,,,,,,,,,,,,,,,,,,,,,
,,,,,,55987,2023-09-28_09h06.29.234,vbt_B2_day2,2022.2.4,Win32,60.5107104,55987,,,,,,,0.202777778,-0.183333333,1,0,0,1.1497,0,25,25,13,1,n,images/br_n.png,images/cb_n.png,,,,,,,,,,,,,,,,,,,,,,,,,,,,,,,,,,,,,,,,,,,,,,,
,,,,,,55987,2023-09-28_09h06.29.234,vbt_B2_day2,2022.2.4,Win32,60.5107104,55987,,,,,,,,,,,,,,,,,,,,,0.590740797,-0.050925954,1,0,0,71.4286,,,,,,,,,,,,,,,,,,,,,,,,,,,,,,,,,,,,,,,,,
,,,,,,55987,2023-09-28_09h06.29.234,vbt_B2_day2,2022.2.4,Win32,60.5107104,55987,,,,,,,,,,,,,,,,,,,,,,,,,,,down,0,11.18,,0.590740797,-0.050925954,1,0,0,2.1491,0,0,0,33,1,vlek,images/br_vlek.png,images/cb_vlek.png,0,,,,,,,,,,,,,,,,,,,,,,
,,,,,,55987,2023-09-28_09h06.29.234,vbt_B2_day2,2022.2.4,Win32,60.5107104,55987,,,,,,,,,,,,,,,,,,,,,,,,,,,down,0,15.5266,,0.590740797,-0.050925954,1,0,0,21.3172,0,1,1,135,1,gedicht,images/br_gedicht.png,images/cb_gedicht.png,0,,,,,,,,,,,,,,,,,,,,,,
,,,,,,55987,2023-09-28_09h06.29.234,vbt_B2_day2,2022.2.4,Win32,60.5107104,55987,,,,,,,,,,,,,,,,,,,,,,,,,,,down,0,7.1188,,0.590740797,-0.050925954,1,0,0,1.0168,0,2,2,79,1,nodig,images/br_nodig.png,images/cb_nodig.png,0,,,,,,,,,,,,,,,,,,,,,,
,,,,,,55987,2023-09-28_09h06.29.234,vbt_B2_day2,2022.2.4,Win32,60.5107104,55987,,,,,,,,,,,,,,,,,,,,,,,,,,,down,0,11.9938,,0.491666667,-0.272222222,1,0,0,1.6665,0,3,3,139,1,stiekem,images/br_stiekem.png,images/cb_stiekem.png,1,stiekem,,,,,,,,,,,,,,,,,,,,,
,,,,,,55987,2023-09-28_09h06.29.234,vbt_B2_day2,2022.2.4,Win32,60.5107104,55987,,,,,,,,,,,,,,,,,,,,,,,,,,,down,0,8.3778,,0.491666667,-0.272222222,1,0,0,0.969,0,4,4,59,1,kring,images/br_kring.png,images/cb_kring.png,1,kring,,,,,,,,,,,,,,,,,,,,,
,,,,,,55987,2023-09-28_09h06.29.234,vbt_B2_day2,2022.2.4,Win32,60.5107104,55987,,,,,,,,,,,,,,,,,,,,,,,,,,,down,0,10.8961,,0.491666667,-0.272222222,1,0,0,1.0838,0,5,5,1,1,zaal,images/br_zaal.png,images/cb_zaal.png,0,,,,,,,,,,,,,,,,,,,,,,
,,,,,,55987,2023-09-28_09h06.29.234,vbt_B2_day2,2022.2.4,Win32,60.5107104,55987,,,,,,,,,,,,,,,,,,,,,,,,,,,down,0,12.2564,,0.491666667,-0.272222222,1,0,0,0.7335,0,6,6,188,1,strekken,images/br_strekken.png,images/cb_strekken.png,0,,,,,,,,,,,,,,,,,,,,,,
,,,,,,55987,2023-09-28_09h06.29.234,vbt_B2_day2,2022.2.4,Win32,60.5107104,55987,,,,,,,,,,,,,,,,,,,,,,,,,,,down,0,20.2205,,0.491666667,-0.272222222,1,0,0,4.2997,0,7,7,159,1,sufferd,images/br_sufferd.png,images/cb_sufferd.png,0,,,,,,,,,,,,,,,,,,,,,,
,,,,,,55987,2023-09-28_09h06.29.234,vbt_B2_day2,2022.2.4,Win32,60.5107104,55987,,,,,,,,,,,,,,,,,,,,,,,,,,,down,0,14.9531,,0.491666667,-0.272222222,1,0,0,0.7333,0,8,8,163,1,schuilen,images/br_schuilen.png,images/cb_schuilen.png,0,,,,,,,,,,,,,,,,,,,,,,
,,,,,,55987,2023-09-28_09h06.29.234,vbt_B2_day2,2022.2.4,Win32,60.5107104,55987,,,,,,,,,,,,,,,,,,,,,,,,,,,down,0,8.9195,,0.491666667,-0.272222222,1,0,0,0.7164,0,9,9,129,1,verhaal,images/br_verhaal.png,images/cb_verhaal.png,0,,,,,,,,,,,,,,,,,,,,,,
,,,,,,55987,2023-09-28_09h06.29.234,vbt_B2_day2,2022.2.4,Win32,60.5107104,55987,,,,,,,,,,,,,,,,,,,,,,,,,,,down,0,7.5691,,0.491666667,-0.272222222,1,0,0,0.8164,0,10,10,83,1,mening,images/br_mening.png,images/cb_mening.png,0,,,,,,,,,,,,,,,,,,,,,,
,,,,,,55987,2023-09-28_09h06.29.234,vbt_B2_day2,2022.2.4,Win32,60.5107104,55987,,,,,,,,,,,,,,,,,,,,,,,,,,,down,0,27.3373,,0.491666667,-0.272222222,1,0,0,0.9827,0,11,11,199,1,beseffen,images/br_beseffen.png,images/cb_beseffen.png,0,,,,,,,,,,,,,,,,,,,,,,
,,,,,,55987,2023-09-28_09h06.29.234,vbt_B2_day2,2022.2.4,Win32,60.5107104,55987,,,,,,,,,,,,,,,,,,,,,,,,,,,down,0,15.3835,,0.520370399,-0.210185199,1,0,0,0.87,0,12,12,104,1,zweven,images/br_zweven.png,images/cb_zweven.png,0,,,,,,,,,,,,,,,,,,,,,,
,,,,,,55987,2023-09-28_09h06.29.234,vbt_B2_day2,2022.2.4,Win32,60.5107104,55987,,,,,,,,,,,,,,,,,,,,,,,,,,,down,0,6.2547,,0.520370399,-0.210185199,1,0,0,0.8998,0,13,13,15,1,soda,images/br_soda.png,images/cb_soda.png,0,,,,,,,,,,,,,,,,,,,,,,
,,,,,,55987,2023-09-28_09h06.29.234,vbt_B2_day2,2022.2.4,Win32,60.5107104,55987,,,,,,,,,,,,,,,,,,,,,,,,,,,down,0,4.8197,,0.520370399,-0.210185199,1,0,0,0.0498,0,14,14,3,1,mand,images/br_mand.png,images/cb_mand.png,0,,,,,,,,,,,,,,,,,,,,,,
,,,,,,55987,2023-09-28_09h06.29.234,vbt_B2_day2,2022.2.4,Win32,60.5107104,55987,,,,,,,,,,,,,,,,,,,,,,,,,,,down,0,10.4612,,0.520370399,-0.210185199,1,0,0,10.9506,0,15,15,131,1,opzicht,images/br_opzicht.png,images/cb_opzicht.png,0,,,,,,,,,,,,,,,,,,,,,,
,,,,,,55987,2023-09-28_09h06.29.234,vbt_B2_day2,2022.2.4,Win32,60.5107104,55987,,,,,,,,,,,,,,,,,,,,,,,,,,,down,0,10.1593,,0.520370399,-0.210185199,1,0,0,0.8834,0,16,16,26,1,leuk,images/br_leuk.png,images/cb_leuk.png,0,,,,,,,,,,,,,,,,,,,,,,
,,,,,,55987,2023-09-28_09h06.29.234,vbt_B2_day2,2022.2.4,Win32,60.5107104,55987,,,,,,,,,,,,,,,,,,,,,,,,,,,down,0,17.2613,,0.520370399,-0.210185199,1,0,0,3.1833,0,17,17,183,1,getuigen,images/br_getuigen.png,images/cb_getuigen.png,0,,,,,,,,,,,,,,,,,,,,,,
,,,,,,55987,2023-09-28_09h06.29.234,vbt_B2_day2,2022.2.4,Win32,60.5107104,55987,,,,,,,,,,,,,,,,,,,,,,,,,,,down,0,33.3021,,0.520370399,-0.210185199,1,0,0,7.6668,0,18,18,143,1,hechten,images/br_hechten.png,images/cb_hechten.png,0,,,,,,,,,,,,,,,,,,,,,,
,,,,,,55987,2023-09-28_09h06.29.234,vbt_B2_day2,2022.2.4,Win32,60.5107104,55987,,,,,,,,,,,,,,,,,,,,,,,,,,,down,0,10.5707,,0.520370399,-0.210185199,1,0,0,0.9168,0,19,19,176,1,techniek,images/br_techniek.png,images/cb_techniek.png,1,techniek,,,,,,,,,,,,,,,,,,,,,
,,,,,,55987,2023-09-28_09h06.29.234,vbt_B2_day2,2022.2.4,Win32,60.5107104,55987,,,,,,,,,,,,,,,,,,,,,,,,,,,down,0,13.9345,,0.520370399,-0.210185199,1,0,0,0.7665,0,20,20,153,1,vervoer,images/br_vervoer.png,images/cb_vervoer.png,0,,,,,,,,,,,,,,,,,,,,,,
,,,,,,55987,2023-09-28_09h06.29.234,vbt_B2_day2,2022.2.4,Win32,60.5107104,55987,,,,,,,,,,,,,,,,,,,,,,,,,,,down,0,3.2937,,0.520370399,-0.210185199,1,0,0,0.7001,0,21,21,4,1,moes,images/br_moes.png,images/cb_moes.png,0,,,,,,,,,,,,,,,,,,,,,,
,,,,,,55987,2023-09-28_09h06.29.234,vbt_B2_day2,2022.2.4,Win32,60.5107104,55987,,,,,,,,,,,,,,,,,,,,,,,,,,,down,0,3.9698,,0.520370399,-0.210185199,1,0,0,1.5164,0,22,22,56,1,traag,images/br_traag.png,images/cb_traag.png,1,traag,,,,,,,,,,,,,,,,,,,,,
,,,,,,55987,2023-09-28_09h06.29.234,vbt_B2_day2,2022.2.4,Win32,60.5107104,55987,,,,,,,,,,,,,,,,,,,,,,,,,,,down,0,15.5883,,0.520370399,-0.210185199,1,0,0,3.6,0,23,23,89,1,slapen,images/br_slapen.png,images/cb_slapen.png,0,,,,,,,,,,,,,,,,,,,,,,
,,,,,,55987,2023-09-28_09h06.29.234,vbt_B2_day2,2022.2.4,Win32,60.5107104,55987,,,,,,,,,,,,,,,,,,,,,,,,,,,down,0,8.7447,,0.520370399,-0.210185199,1,0,0,1.9001,0,24,24,64,1,wegen,images/br_wegen.png,images/cb_wegen.png,0,,,,,,,,,,,,,,,,,,,,,,
,,,,,,55987,2023-09-28_09h06.29.234,vbt_B2_day2,2022.2.4,Win32,60.5107104,55987,,,,,,,,,,,,,,,,,,,,,,,,,,,down,0,11.3085,,0.520370399,-0.210185199,1,0,0,0.7333,0,25,25,198,1,bedoelen,images/br_bedoelen.png,images/cb_bedoelen.png,0,,,,,,,,,,,,,,,,,,,,,,
,,,,,,55987,2023-09-28_09h06.29.234,vbt_B2_day2,2022.2.4,Win32,60.5107104,55987,,,,,,,,,,,,,,,,,,,,,,,,,,,down,0,5.8033,,0.520370399,-0.210185199,1,0,0,0.7498,0,26,26,87,1,toeval,images/br_toeval.png,images/cb_toeval.png,0,,,,,,,,,,,,,,,,,,,,,,
,,,,,,55987,2023-09-28_09h06.29.234,vbt_B2_day2,2022.2.4,Win32,60.5107104,55987,,,,,,,,,,,,,,,,,,,,,,,,,,,down,0,12.4173,,0.520370399,-0.210185199,1,0,0,1.4204,0,27,27,23,1,zout,images/br_zout.png,images/cb_zout.png,0,,,,,,,,,,,,,,,,,,,,,,
,,,,,,55987,2023-09-28_09h06.29.234,vbt_B2_day2,2022.2.4,Win32,60.5107104,55987,,,,,,,,,,,,,,,,,,,,,,,,,,,down,0,15.5005,,0.520370399,-0.210185199,1,0,0,1.7168,0,28,28,178,1,huisdier,images/br_huisdier.png,images/cb_huisdier.png,1,huisdier,,,,,,,,,,,,,,,,,,,,,
,,,,,,55987,2023-09-28_09h06.29.234,vbt_B2_day2,2022.2.4,Win32,60.5107104,55987,,,,,,,,,,,,,,,,,,,,,,,,,,,down,0,6.6918,,0.520370399,-0.210185199,1,0,0,0.85,0,29,29,132,1,grappen,images/br_grappen.png,images/cb_grappen.png,0,,,,,,,,,,,,,,,,,,,,,,
,,,,,,55987,2023-09-28_09h06.29.234,vbt_B2_day2,2022.2.4,Win32,60.5107104,55987,,,,,,,,,,,,,,,,,,,,,,,,,,,down,0,4.7383,,0.520370399,-0.210185199,1,0,0,0.6164,0,30,30,109,1,totaal,images/br_totaal.png,images/cb_totaal.png,0,,,,,,,,,,,,,,,,,,,,,,
,,,,,,55987,2023-09-28_09h06.29.234,vbt_B2_day2,2022.2.4,Win32,60.5107104,55987,,,,,,,,,,,,,,,,,,,,,,,,,,,down,0,5.7772,,0.520370399,-0.210185199,1,0,0,0.8333,0,31,31,76,1,afval,images/br_afval.png,images/cb_afval.png,0,,,,,,,,,,,,,,,,,,,,,,
,,,,,,55987,2023-09-28_09h06.29.234,vbt_B2_day2,2022.2.4,Win32,60.5107104,55987,,,,,,,,,,,,,,,,,,,,,,,,,,,down,0,3.5166,,0.520370399,-0.210185199,1,0,0,0.7664,0,32,32,184,1,aandelen,images/br_aandelen.png,images/cb_aandelen.png,0,,,,,,,,,,,,,,,,,,,,,,
,,,,,,55987,2023-09-28_09h06.29.234,vbt_B2_day2,2022.2.4,Win32,60.5107104,55987,,,,,,,,,,,,,,,,,,,,,,,,,,,down,0,4.5532,,0.520370399,-0.210185199,1,0,0,0.6699,0,33,33,0,1,slak,images/br_slak.png,images/cb_slak.png,0,,,,,,,,,,,,,,,,,,,,,,
,,,,,,55987,2023-09-28_09h06.29.234,vbt_B2_day2,2022.2.4,Win32,60.5107104,55987,,,,,,,,,,,,,,,,,,,,,,,,,,,down,0,1.3013,,0.520370399,-0.210185199,1,0,0,0.4998,0,34,34,35,1,lust,images/br_lust.png,images/cb_lust.png,0,,,,,,,,,,,,,,,,,,,,,,
,,,,,,55987,2023-09-28_09h06.29.234,vbt_B2_day2,2022.2.4,Win32,60.5107104,55987,,,,,,,,,,,,,,,,,,,,,,,,,,,down,0,1.9969,,0.520370399,-0.210185199,1,0,0,0.8164,0,35,35,22,1,stof,images/br_stof.png,images/cb_stof.png,0,,,,,,,,,,,,,,,,,,,,,,
,,,,,,55987,2023-09-28_09h06.29.234,vbt_B2_day2,2022.2.4,Win32,60.5107104,55987,,,,,,,,,,,,,,,,,,,,,,,,,,,down,0,2.6698,,0.520370399,-0.210185199,1,0,0,0.7203,0,36,36,34,1,vorm,images/br_vorm.png,images/cb_vorm.png,0,,,,,,,,,,,,,,,,,,,,,,
,,,,,,55987,2023-09-28_09h06.29.234,vbt_B2_day2,2022.2.4,Win32,60.5107104,55987,,,,,,,,,,,,,,,,,,,,,,,,,,,down,0,3.354,,0.520370399,-0.210185199,1,0,0,0.4827,0,37,37,7,1,geld,images/br_geld.png,images/cb_geld.png,0,,,,,,,,,,,,,,,,,,,,,,
,,,,,,55987,2023-09-28_09h06.29.234,vbt_B2_day2,2022.2.4,Win32,60.5107104,55987,,,,,,,,,,,,,,,,,,,,,,,,,,,down,0,6.8284,,0.520370399,-0.210185199,1,0,0,0.5167,0,38,38,148,1,smullen,images/br_smullen.png,images/cb_smullen.png,0,,,,,,,,,,,,,,,,,,,,,,
,,,,,,55987,2023-09-28_09h06.29.234,vbt_B2_day2,2022.2.4,Win32,60.5107104,55987,,,,,,,,,,,,,,,,,,,,,,,,,,,down,0,7.057,,0.520370399,-0.210185199,1,0,0,0.6335,0,39,39,158,1,innemen,images/br_innemen.png,images/cb_innemen.png,0,,,,,,,,,,,,,,,,,,,,,,
,,,,,,55987,2023-09-28_09h06.29.234,vbt_B2_day2,2022.2.4,Win32,60.5107104,55987,,,,,,,,,,,,,,,,,,,,,,,,,,,down,0,2.0631,,0.520370399,-0.210185199,1,0,0,0.5668,0,40,40,102,1,legaal,images/br_legaal.png,images/cb_legaal.png,0,,,,,,,,,,,,,,,,,,,,,,
,,,,,,55987,2023-09-28_09h06.29.234,vbt_B2_day2,2022.2.4,Win32,60.5107104,55987,,,,,,,,,,,,,,,,,,,,,,,,,,,down,0,18.2033,,0.520370399,-0.210185199,1,0,0,6.5332,0,41,41,182,1,bijkomen,images/br_bijkomen.png,images/cb_bijkomen.png,0,,,,,,,,,,,,,,,,,,,,,,
,,,,,,55987,2023-09-28_09h06.29.234,vbt_B2_day2,2022.2.4,Win32,60.5107104,55987,,,,,,,,,,,,,,,,,,,,,,,,,,,down,0,7.4169,,0.520370399,-0.210185199,1,0,0,2.3337,0,42,42,167,1,eenhoorn,images/br_eenhoorn.png,images/cb_eenhoorn.png,0,,,,,,,,,,,,,,,,,,,,,,
,,,,,,55987,2023-09-28_09h06.29.234,vbt_B2_day2,2022.2.4,Win32,60.5107104,55987,,,,,,,,,,,,,,,,,,,,,,,,,,,down,0,2.3291,,0.520370399,-0.210185199,1,0,0,0.5834,0,43,43,32,1,palm,images/br_palm.png,images/cb_palm.png,0,,,,,,,,,,,,,,,,,,,,,,
,,,,,,55987,2023-09-28_09h06.29.234,vbt_B2_day2,2022.2.4,Win32,60.5107104,55987,,,,,,,,,,,,,,,,,,,,,,,,,,,down,0,13.2504,,0.520370399,-0.210185199,1,0,0,3.5667,0,44,44,193,1,weeshuis,images/br_weeshuis.png,images/cb_weeshuis.png,0,,,,,,,,,,,,,,,,,,,,,,
,,,,,,55987,2023-09-28_09h06.29.234,vbt_B2_day2,2022.2.4,Win32,60.5107104,55987,,,,,,,,,,,,,,,,,,,,,,,,,,,down,0,5.5336,,0.520370399,-0.210185199,1,0,0,0.6997,0,45,45,96,1,slagen,images/br_slagen.png,images/cb_slagen.png,1,slagen,,,,,,,,,,,,,,,,,,,,,
,,,,,,55987,2023-09-28_09h06.29.234,vbt_B2_day2,2022.2.4,Win32,60.5107104,55987,,,,,,,,,,,,,,,,,,,,,,,,,,,down,0,7.0018,,0.522222222,-0.210185199,1,0,0,1.5826,0,46,46,63,1,flirt,images/br_flirt.png,images/cb_flirt.png,0,,,,,,,,,,,,,,,,,,,,,,
,,,,,,55987,2023-09-28_09h06.29.234,vbt_B2_day2,2022.2.4,Win32,60.5107104,55987,,,,,,,,,,,,,,,,,,,,,,,,,,,down,0,6.3144,,0.522222222,-0.210185199,1,0,0,0.8499,0,47,47,105,1,wijlen,images/br_wijlen.png,images/cb_wijlen.png,0,,,,,,,,,,,,,,,,,,,,,,
,,,,,,55987,2023-09-28_09h06.29.234,vbt_B2_day2,2022.2.4,Win32,60.5107104,55987,,,,,,,,,,,,,,,,,,,,,,,,,,,down,0,8.8511,,0.522222222,-0.210185199,1,0,0,0.8536,0,48,48,43,1,klauw,images/br_klauw.png,images/cb_klauw.png,0,,,,,,,,,,,,,,,,,,,,,,
,,,,,,55987,2023-09-28_09h06.29.234,vbt_B2_day2,2022.2.4,Win32,60.5107104,55987,,,,,,,,,,,,,,,,,,,,,,,,,,,down,0,12.5125,,0.522222222,-0.210185199,1,0,0,3.9505,0,49,49,155,1,gerucht,images/br_gerucht.png,images/cb_gerucht.png,0,,,,,,,,,,,,,,,,,,,,,,
,,,,,,55987,2023-09-28_09h06.29.234,vbt_B2_day2,2022.2.4,Win32,60.5107104,55987,,,,,,,,,,,,,,,,,,,,,,,,,,,down,0,12.1672,,0.522222222,-0.210185199,1,0,0,1.6163,0,50,50,116,1,besmet,images/br_besmet.png,images/cb_besmet.png,0,,,,,,,,,,,,,,,,,,,,,,
,,,,,,55987,2023-09-28_09h06.29.234,vbt_B2_day2,2022.2.4,Win32,60.5107104,55987,,,,,,,,,,,,,,,,,,,,,,,,,,,down,0,3.7505,,0.522222222,-0.210185199,1,0,0,0.7999,0,51,51,5,1,blad,images/br_blad.png,images/cb_blad.png,0,,,,,,,,,,,,,,,,,,,,,,
,,,,,,55987,2023-09-28_09h06.29.234,vbt_B2_day2,2022.2.4,Win32,60.5107104,55987,,,,,,,,,,,,,,,,,,,,,,,,,,,down,0,4.0475,,0.522222222,-0.210185199,1,0,0,0.8501,0,52,52,53,1,baron,images/br_baron.png,images/cb_baron.png,0,,,,,,,,,,,,,,,,,,,,,,
,,,,,,55987,2023-09-28_09h06.29.234,vbt_B2_day2,2022.2.4,Win32,60.5107104,55987,,,,,,,,,,,,,,,,,,,,,,,,,,,down,0,17.0847,,0.522222222,-0.210185199,1,0,0,1.9998,0,53,53,196,1,nakijken,images/br_nakijken.png,images/cb_nakijken.png,0,,,,,,,,,,,,,,,,,,,,,,
,,,,,,55987,2023-09-28_09h06.29.234,vbt_B2_day2,2022.2.4,Win32,60.5107104,55987,,,,,,,,,,,,,,,,,,,,,,,,,,,down,0,11.5344,,0.522222222,-0.210185199,1,0,0,0.7997,0,54,54,111,1,ticket,images/br_ticket.png,images/cb_ticket.png,0,,,,,,,,,,,,,,,,,,,,,,
,,,,,,55987,2023-09-28_09h06.29.234,vbt_B2_day2,2022.2.4,Win32,60.5107104,55987,,,,,,,,,,,,,,,,,,,,,,,,,,,down,0,16.5675,,0.522222222,-0.210185199,1,0,0,1.7997,0,55,55,100,1,geduld,images/br_geduld.png,images/cb_geduld.png,0,,,,,,,,,,,,,,,,,,,,,,
,,,,,,55987,2023-09-28_09h06.29.234,vbt_B2_day2,2022.2.4,Win32,60.5107104,55987,,,,,,,,,,,,,,,,,,,,,,,,,,,down,0,9.9425,,0.522222222,-0.210185199,1,0,0,0.8168,0,56,56,108,1,excuus,images/br_excuus.png,images/cb_excuus.png,0,,,,,,,,,,,,,,,,,,,,,,
,,,,,,55987,2023-09-28_09h06.29.234,vbt_B2_day2,2022.2.4,Win32,60.5107104,55987,,,,,,,,,,,,,,,,,,,,,,,,,,,down,0,10.0088,,0.522222222,-0.210185199,1,0,0,0.6336,0,57,57,86,1,woning,images/br_woning.png,images/cb_woning.png,0,,,,,,,,,,,,,,,,,,,,,,
,,,,,,55987,2023-09-28_09h06.29.234,vbt_B2_day2,2022.2.4,Win32,60.5107104,55987,,,,,,,,,,,,,,,,,,,,,,,,,,,down,0,4.4622,,0.522222222,-0.210185199,1,0,0,0.6996,0,58,58,90,1,geluid,images/br_geluid.png,images/cb_geluid.png,0,,,,,,,,,,,,,,,,,,,,,,
,,,,,,55987,2023-09-28_09h06.29.234,vbt_B2_day2,2022.2.4,Win32,60.5107104,55987,,,,,,,,,,,,,,,,,,,,,,,,,,,down,0,3.7667,,0.522222222,-0.210185199,1,0,0,0.8331,0,59,59,37,1,mijn,images/br_mijn.png,images/cb_mijn.png,0,,,,,,,,,,,,,,,,,,,,,,
,,,,,,55987,2023-09-28_09h06.29.234,vbt_B2_day2,2022.2.4,Win32,60.5107104,55987,,,,,,,,,,,,,,,,,,,,,,,,,,,down,0,4.7673,,0.522222222,-0.210185199,1,0,0,1.2496,0,60,60,95,1,vreten,images/br_vreten.png,images/cb_vreten.png,0,,,,,,,,,,,,,,,,,,,,,,
,,,,,,55987,2023-09-28_09h06.29.234,vbt_B2_day2,2022.2.4,Win32,60.5107104,55987,,,,,,,,,,,,,,,,,,,,,,,,,,,down,0,6.3179,,0.522222222,-0.210185199,1,0,0,0.9161,0,61,61,45,1,piste,images/br_piste.png,images/cb_piste.png,0,,,,,,,,,,,,,,,,,,,,,,
,,,,,,55987,2023-09-28_09h06.29.234,vbt_B2_day2,2022.2.4,Win32,60.5107104,55987,,,,,,,,,,,,,,,,,,,,,,,,,,,down,0,16.6863,,0.522222222,-0.210185199,1,0,0,5.5201,0,62,62,47,1,kabel,images/br_kabel.png,images/cb_kabel.png,0,,,,,,,,,,,,,,,,,,,,,,
,,,,,,55987,2023-09-28_09h06.29.234,vbt_B2_day2,2022.2.4,Win32,60.5107104,55987,,,,,,,,,,,,,,,,,,,,,,,,,,,down,0,4.5007,,0.522222222,-0.210185199,1,0,0,1.8465,0,63,63,97,1,loyaal,images/br_loyaal.png,images/cb_loyaal.png,1,loyaal,,,,,,,,,,,,,,,,,,,,,
,,,,,,55987,2023-09-28_09h06.29.234,vbt_B2_day2,2022.2.4,Win32,60.5107104,55987,,,,,,,,,,,,,,,,,,,,,,,,,,,down,0,7.0255,,0.522222222,-0.210185199,1,0,0,1.3337,0,64,64,6,1,diep,images/br_diep.png,images/cb_diep.png,0,,,,,,,,,,,,,,,,,,,,,,
,,,,,,55987,2023-09-28_09h06.29.234,vbt_B2_day2,2022.2.4,Win32,60.5107104,55987,,,,,,,,,,,,,,,,,,,,,,,,,,,down,0,1.2165,,0.522222222,-0.210185199,1,0,0,0.9698,0,65,65,20,1,site,images/br_site.png,images/cb_site.png,0,,,,,,,,,,,,,,,,,,,,,,
,,,,,,55987,2023-09-28_09h06.29.234,vbt_B2_day2,2022.2.4,Win32,60.5107104,55987,,,,,,,,,,,,,,,,,,,,,,,,,,,down,0,4.0516,,0.522222222,-0.210185199,1,0,0,0.7331,0,66,66,68,1,schat,images/br_schat.png,images/cb_schat.png,0,,,,,,,,,,,,,,,,,,,,,,
,,,,,,55987,2023-09-28_09h06.29.234,vbt_B2_day2,2022.2.4,Win32,60.5107104,55987,,,,,,,,,,,,,,,,,,,,,,,,,,,down,0,14.8687,,0.522222222,-0.210185199,1,0,0,0.7827,0,67,67,172,1,weigeren,images/br_weigeren.png,images/cb_weigeren.png,0,,,,,,,,,,,,,,,,,,,,,,
,,,,,,55987,2023-09-28_09h06.29.234,vbt_B2_day2,2022.2.4,Win32,60.5107104,55987,,,,,,,,,,,,,,,,,,,,,,,,,,,down,0,8.2192,,0.522222222,-0.210185199,1,0,0,3.4705,0,68,68,57,1,steek,images/br_steek.png,images/cb_steek.png,1,steek,,,,,,,,,,,,,,,,,,,,,
,,,,,,55987,2023-09-28_09h06.29.234,vbt_B2_day2,2022.2.4,Win32,60.5107104,55987,,,,,,,,,,,,,,,,,,,,,,,,,,,down,0,8.2325,,0.522222222,-0.210185199,1,0,0,0.6,0,69,69,162,1,uitdelen,images/br_uitdelen.png,images/cb_uitdelen.png,0,,,,,,,,,,,,,,,,,,,,,,
,,,,,,55987,2023-09-28_09h06.29.234,vbt_B2_day2,2022.2.4,Win32,60.5107104,55987,,,,,,,,,,,,,,,,,,,,,,,,,,,down,0,8.4441,,0.522222222,-0.210185199,1,0,0,0.95,0,70,70,73,1,volop,images/br_volop.png,images/cb_volop.png,0,,,,,,,,,,,,,,,,,,,,,,
,,,,,,55987,2023-09-28_09h06.29.234,vbt_B2_day2,2022.2.4,Win32,60.5107104,55987,,,,,,,,,,,,,,,,,,,,,,,,,,,down,0,3.8665,,0.522222222,-0.210185199,1,0,0,0.6335,0,71,71,174,1,stemming,images/br_stemming.png,images/cb_stemming.png,0,,,,,,,,,,,,,,,,,,,,,,
,,,,,,55987,2023-09-28_09h06.29.234,vbt_B2_day2,2022.2.4,Win32,60.5107104,55987,,,,,,,,,,,,,,,,,,,,,,,,,,,down,0,4.3731,,0.522222222,-0.210185199,1,0,0,0.9165,0,72,72,117,1,kennis,images/br_kennis.png,images/cb_kennis.png,0,,,,,,,,,,,,,,,,,,,,,,
,,,,,,55987,2023-09-28_09h06.29.234,vbt_B2_day2,2022.2.4,Win32,60.5107104,55987,,,,,,,,,,,,,,,,,,,,,,,,,,,down,0,11.2282,,0.522222222,-0.210185199,1,0,0,1.5334,0,73,73,98,1,kreeft,images/br_kreeft.png,images/cb_kreeft.png,1,kreeft,,,,,,,,,,,,,,,,,,,,,
,,,,,,55987,2023-09-28_09h06.29.234,vbt_B2_day2,2022.2.4,Win32,60.5107104,55987,,,,,,,,,,,,,,,,,,,,,,,,,,,down,0,5.379,,0.522222222,-0.210185199,1,0,0,1.4003,0,74,74,125,1,aanzien,images/br_aanzien.png,images/cb_aanzien.png,0,,,,,,,,,,,,,,,,,,,,,,
,,,,,,55987,2023-09-28_09h06.29.234,vbt_B2_day2,2022.2.4,Win32,60.5107104,55987,,,,,,,,,,,,,,,,,,,,,,,,,,,down,0,6.4937,,0.522222222,-0.210185199,1,0,0,0.5001,0,75,75,14,1,rijp,images/br_rijp.png,images/cb_rijp.png,0,,,,,,,,,,,,,,,,,,,,,,
,,,,,,55987,2023-09-28_09h06.29.234,vbt_B2_day2,2022.2.4,Win32,60.5107104,55987,,,,,,,,,,,,,,,,,,,,,,,,,,,down,0,7.5464,,0.522222222,-0.210185199,1,0,0,0.5501,0,76,76,115,1,kleren,images/br_kleren.png,images/cb_kleren.png,0,,,,,,,,,,,,,,,,,,,,,,
,,,,,,55987,2023-09-28_09h06.29.234,vbt_B2_day2,2022.2.4,Win32,60.5107104,55987,,,,,,,,,,,,,,,,,,,,,,,,,,,down,0,2.7507,,0.522222222,-0.210185199,1,0,0,0.5829,0,77,77,2,1,jaar,images/br_jaar.png,images/cb_jaar.png,0,,,,,,,,,,,,,,,,,,,,,,
,,,,,,55987,2023-09-28_09h06.29.234,vbt_B2_day2,2022.2.4,Win32,60.5107104,55987,,,,,,,,,,,,,,,,,,,,,,,,,,,down,0,7.6136,,0.522222222,-0.210185199,1,0,0,0.6666,0,78,78,54,1,gebit,images/br_gebit.png,images/cb_gebit.png,0,,,,,,,,,,,,,,,,,,,,,,
,,,,,,55987,2023-09-28_09h06.29.234,vbt_B2_day2,2022.2.4,Win32,60.5107104,55987,,,,,,,,,,,,,,,,,,,,,,,,,,,down,0,10.3732,,0.522222222,-0.210185199,1,0,0,1.3202,0,79,79,137,1,trekker,images/br_trekker.png,images/cb_trekker.png,1,trekker,,,,,,,,,,,,,,,,,,,,,
,,,,,,55987,2023-09-28_09h06.29.234,vbt_B2_day2,2022.2.4,Win32,60.5107104,55987,,,,,,,,,,,,,,,,,,,,,,,,,,,down,0,11.7333,,0.522222222,-0.210185199,1,0,0,2.2169,0,80,80,144,1,eetlust,images/br_eetlust.png,images/cb_eetlust.png,0,,,,,,,,,,,,,,,,,,,,,,
,,,,,,55987,2023-09-28_09h06.29.234,vbt_B2_day2,2022.2.4,Win32,60.5107104,55987,,,,,,,,,,,,,,,,,,,,,,,,,,,down,0,23.8512,,0.522222222,-0.210185199,1,0,0,2.1995,0,81,81,27,1,dans,images/br_dans.png,images/cb_dans.png,0,,,,,,,,,,,,,,,,,,,,,,
,,,,,,55987,2023-09-28_09h06.29.234,vbt_B2_day2,2022.2.4,Win32,60.5107104,55987,,,,,,,,,,,,,,,,,,,,,,,,,,,down,0,6.9966,,0.505555556,-0.282407464,1,0,0,7.6465,0,82,82,138,1,akkoord,images/br_akkoord.png,images/cb_akkoord.png,1,akkoordakkoord,,,,,,,,,,,,,,,,,,,,,
,,,,,,55987,2023-09-28_09h06.29.234,vbt_B2_day2,2022.2.4,Win32,60.5107104,55987,,,,,,,,,,,,,,,,,,,,,,,,,,,down,0,8.651,,0.505555556,-0.282407464,1,0,0,0.5498,0,83,83,187,1,opkijken,images/br_opkijken.png,images/cb_opkijken.png,0,,,,,,,,,,,,,,,,,,,,,,
,,,,,,55987,2023-09-28_09h06.29.234,vbt_B2_day2,2022.2.4,Win32,60.5107104,55987,,,,,,,,,,,,,,,,,,,,,,,,,,,down,0,8.3341,,0.505555556,-0.282407464,1,0,0,0.5835,0,84,84,149,1,redding,images/br_redding.png,images/cb_redding.png,0,,,,,,,,,,,,,,,,,,,,,,
,,,,,,55987,2023-09-28_09h06.29.234,vbt_B2_day2,2022.2.4,Win32,60.5107104,55987,,,,,,,,,,,,,,,,,,,,,,,,,,,down,0,8.334,,0.505555556,-0.282407464,1,0,0,0.6665,0,85,85,192,1,schaamte,images/br_schaamte.png,images/cb_schaamte.png,0,,,,,,,,,,,,,,,,,,,,,,
,,,,,,55987,2023-09-28_09h06.29.234,vbt_B2_day2,2022.2.4,Win32,60.5107104,55987,,,,,,,,,,,,,,,,,,,,,,,,,,,down,0,6.5134,,0.505555556,-0.282407464,1,0,0,1.2866,0,86,86,58,1,tekst,images/br_tekst.png,images/cb_tekst.png,1,tekst,,,,,,,,,,,,,,,,,,,,,
,,,,,,55987,2023-09-28_09h06.29.234,vbt_B2_day2,2022.2.4,Win32,60.5107104,55987,,,,,,,,,,,,,,,,,,,,,,,,,,,down,0,8.4958,,0.605555556,-0.07129631,1,0,0,0.7335,0,87,87,171,1,aarzelen,images/br_aarzelen.png,images/cb_aarzelen.png,0,,,,,,,,,,,,,,,,,,,,,,
,,,,,,55987,2023-09-28_09h06.29.234,vbt_B2_day2,2022.2.4,Win32,60.5107104,55987,,,,,,,,,,,,,,,,,,,,,,,,,,,down,0,0.8742,,0.605555556,-0.07129631,1,0,0,0.6997,0,88,88,50,1,stoom,images/br_stoom.png,images/cb_stoom.png,0,,,,,,,,,,,,,,,,,,,,,,
,,,,,,55987,2023-09-28_09h06.29.234,vbt_B2_day2,2022.2.4,Win32,60.5107104,55987,,,,,,,,,,,,,,,,,,,,,,,,,,,down,0,7.4007,,0.605555556,-0.07129631,1,0,0,0.7998,0,89,89,181,1,toegeven,images/br_toegeven.png,images/cb_toegeven.png,0,,,,,,,,,,,,,,,,,,,,,,
,,,,,,55987,2023-09-28_09h06.29.234,vbt_B2_day2,2022.2.4,Win32,60.5107104,55987,,,,,,,,,,,,,,,,,,,,,,,,,,,down,0,14.9186,,0.605555556,-0.07129631,1,0,0,0.8327,0,90,90,160,1,daarheen,images/br_daarheen.png,images/cb_daarheen.png,0,,,,,,,,,,,,,,,,,,,,,,
,,,,,,55987,2023-09-28_09h06.29.234,vbt_B2_day2,2022.2.4,Win32,60.5107104,55987,,,,,,,,,,,,,,,,,,,,,,,,,,,down,0,3.275,,0.605555556,-0.07129631,1,0,0,0.6666,0,91,91,93,1,waarop,images/br_waarop.png,images/cb_waarop.png,0,,,,,,,,,,,,,,,,,,,,,,
,,,,,,55987,2023-09-28_09h06.29.234,vbt_B2_day2,2022.2.4,Win32,60.5107104,55987,,,,,,,,,,,,,,,,,,,,,,,,,,,down,0,4.7842,,0.605555556,-0.07129631,1,0,0,0.7999,0,92,92,8,1,knie,images/br_knie.png,images/cb_knie.png,0,,,,,,,,,,,,,,,,,,,,,,
,,,,,,55987,2023-09-28_09h06.29.234,vbt_B2_day2,2022.2.4,Win32,60.5107104,55987,,,,,,,,,,,,,,,,,,,,,,,,,,,down,0,8.7063,,0.605555556,-0.07129631,1,0,0,0.6668,0,93,93,190,1,goedkoop,images/br_goedkoop.png,images/cb_goedkoop.png,0,,,,,,,,,,,,,,,,,,,,,,
,,,,,,55987,2023-09-28_09h06.29.234,vbt_B2_day2,2022.2.4,Win32,60.5107104,55987,,,,,,,,,,,,,,,,,,,,,,,,,,,down,0,2.7515,,0.605555556,-0.07129631,1,0,0,1.0666,0,94,94,19,1,geit,images/br_geit.png,images/cb_geit.png,1,geit,,,,,,,,,,,,,,,,,,,,,
,,,,,,55987,2023-09-28_09h06.29.234,vbt_B2_day2,2022.2.4,Win32,60.5107104,55987,,,,,,,,,,,,,,,,,,,,,,,,,,,down,0,9.1194,,0.605555556,-0.07129631,1,0,0,1.3335,0,95,95,13,1,kaal,images/br_kaal.png,images/cb_kaal.png,0,,,,,,,,,,,,,,,,,,,,,,
,,,,,,55987,2023-09-28_09h06.29.234,vbt_B2_day2,2022.2.4,Win32,60.5107104,55987,,,,,,,,,,,,,,,,,,,,,,,,,,,down,0,1.6534,,0.605555556,-0.07129631,1,0,0,0.9497,0,96,96,65,1,parel,images/br_parel.png,images/cb_parel.png,0,,,,,,,,,,,,,,,,,,,,,,
,,,,,,55987,2023-09-28_09h06.29.234,vbt_B2_day2,2022.2.4,Win32,60.5107104,55987,,,,,,,,,,,,,,,,,,,,,,,,,,,down,0,4.1387,,0.605555556,-0.07129631,1,0,0,0.603,0,97,97,36,1,vuur,images/br_vuur.png,images/cb_vuur.png,0,,,,,,,,,,,,,,,,,,,,,,
,,,,,,55987,2023-09-28_09h06.29.234,vbt_B2_day2,2022.2.4,Win32,60.5107104,55987,,,,,,,,,,,,,,,,,,,,,,,,,,,down,0,3.799,,0.605555556,-0.07129631,1,0,0,0.5809,0,98,98,107,1,maling,images/br_maling.png,images/cb_maling.png,0,,,,,,,,,,,,,,,,,,,,,,
,,,,,,55987,2023-09-28_09h06.29.234,vbt_B2_day2,2022.2.4,Win32,60.5107104,55987,,,,,,,,,,,,,,,,,,,,,,,,,,,down,0,5.4485,,0.605555556,-0.07129631,1,0,0,0.6867,0,99,99,48,1,steel,images/br_steel.png,images/cb_steel.png,0,,,,,,,,,,,,,,,,,,,,,,
,,,,,,55987,2023-09-28_09h06.29.234,vbt_B2_day2,2022.2.4,Win32,60.5107104,55987,,,,,,,,,,,,,,,,,,,,,,,,,,,down,0,8.4725,,0.605555556,-0.07129631,1,0,0,4.0667,0,100,100,121,1,twijfel,images/br_twijfel.png,images/cb_twijfel.png,0,,,,,,,,,,,,,,,,,,,,,,
,,,,,,55987,2023-09-28_09h06.29.234,vbt_B2_day2,2022.2.4,Win32,60.5107104,55987,,,,,,,,,,,,,,,,,,,,,,,,,,,down,0,6.7788,,0.605555556,-0.07129631,1,0,0,0.5837,0,101,101,72,1,strak,images/br_strak.png,images/cb_strak.png,0,,,,,,,,,,,,,,,,,,,,,,
,,,,,,55987,2023-09-28_09h06.29.234,vbt_B2_day2,2022.2.4,Win32,60.5107104,55987,,,,,,,,,,,,,,,,,,,,,,,,,,,down,0,5.3169,,0.605555556,-0.07129631,1,0,0,0.6662,0,102,102,81,1,dubbel,images/br_dubbel.png,images/cb_dubbel.png,0,,,,,,,,,,,,,,,,,,,,,,
,,,,,,55987,2023-09-28_09h06.29.234,vbt_B2_day2,2022.2.4,Win32,60.5107104,55987,,,,,,,,,,,,,,,,,,,,,,,,,,,down,0,10.7513,,0.605555556,-0.07129631,1,0,0,4.8668,0,103,103,151,1,aanzoek,images/br_aanzoek.png,images/cb_aanzoek.png,0,,,,,,,,,,,,,,,,,,,,,,
,,,,,,55987,2023-09-28_09h06.29.234,vbt_B2_day2,2022.2.4,Win32,60.5107104,55987,,,,,,,,,,,,,,,,,,,,,,,,,,,down,0,5.8715,,0.605555556,-0.07129631,1,0,0,0.4831,0,104,104,101,1,staren,images/br_staren.png,images/cb_staren.png,0,,,,,,,,,,,,,,,,,,,,,,
,,,,,,55987,2023-09-28_09h06.29.234,vbt_B2_day2,2022.2.4,Win32,60.5107104,55987,,,,,,,,,,,,,,,,,,,,,,,,,,,down,0,8.5384,,0.605555556,-0.07129631,1,0,0,0.6165,0,105,105,156,1,rechten,images/br_rechten.png,images/cb_rechten.png,0,,,,,,,,,,,,,,,,,,,,,,
,,,,,,55987,2023-09-28_09h06.29.234,vbt_B2_day2,2022.2.4,Win32,60.5107104,55987,,,,,,,,,,,,,,,,,,,,,,,,,,,down,0,2.3404,,0.608333333,-0.076851866,1,0,0,0.9333,0,106,106,51,1,samen,images/br_samen.png,images/cb_samen.png,0,,,,,,,,,,,,,,,,,,,,,,
,,,,,,55987,2023-09-28_09h06.29.234,vbt_B2_day2,2022.2.4,Win32,60.5107104,55987,,,,,,,,,,,,,,,,,,,,,,,,,,,down,0,8.2417,,0.608333333,-0.076851866,1,0,0,0.4662,0,107,107,44,1,flits,images/br_flits.png,images/cb_flits.png,0,,,,,,,,,,,,,,,,,,,,,,
,,,,,,55987,2023-09-28_09h06.29.234,vbt_B2_day2,2022.2.4,Win32,60.5107104,55987,,,,,,,,,,,,,,,,,,,,,,,,,,,down,0,7.734,,0.608333333,-0.076851866,1,0,0,0.7335,0,108,108,195,1,middelen,images/br_middelen.png,images/cb_middelen.png,0,,,,,,,,,,,,,,,,,,,,,,
,,,,,,55987,2023-09-28_09h06.29.234,vbt_B2_day2,2022.2.4,Win32,60.5107104,55987,,,,,,,,,,,,,,,,,,,,,,,,,,,down,0,8.8966,,0.608333333,-0.076851866,1,0,0,0.6038,0,109,109,180,1,openbaar,images/br_openbaar.png,images/cb_openbaar.png,0,,,,,,,,,,,,,,,,,,,,,,
,,,,,,55987,2023-09-28_09h06.29.234,vbt_B2_day2,2022.2.4,Win32,60.5107104,55987,,,,,,,,,,,,,,,,,,,,,,,,,,,down,0,4.2459,,0.608333333,-0.076851866,1,0,0,0.55,0,110,110,67,1,zwart,images/br_zwart.png,images/cb_zwart.png,0,,,,,,,,,,,,,,,,,,,,,,
,,,,,,55987,2023-09-28_09h06.29.234,vbt_B2_day2,2022.2.4,Win32,60.5107104,55987,,,,,,,,,,,,,,,,,,,,,,,,,,,down,0,5.6252,,0.608333333,-0.076851866,1,0,0,0.8836,0,111,111,186,1,voorraad,images/br_voorraad.png,images/cb_voorraad.png,0,,,,,,,,,,,,,,,,,,,,,,
,,,,,,55987,2023-09-28_09h06.29.234,vbt_B2_day2,2022.2.4,Win32,60.5107104,55987,,,,,,,,,,,,,,,,,,,,,,,,,,,down,0,5.5566,,0.608333333,-0.076851866,1,0,0,0.4533,0,112,112,113,1,koppen,images/br_koppen.png,images/cb_koppen.png,0,,,,,,,,,,,,,,,,,,,,,,
,,,,,,55987,2023-09-28_09h06.29.234,vbt_B2_day2,2022.2.4,Win32,60.5107104,55987,,,,,,,,,,,,,,,,,,,,,,,,,,,down,0,10.762,,0.608333333,-0.076851866,1,0,0,1.6667,0,113,113,127,1,doodmoe,images/br_doodmoe.png,images/cb_doodmoe.png,0,,,,,,,,,,,,,,,,,,,,,,
,,,,,,55987,2023-09-28_09h06.29.234,vbt_B2_day2,2022.2.4,Win32,60.5107104,55987,,,,,,,,,,,,,,,,,,,,,,,,,,,down,0,4.1059,,0.608333333,-0.076851866,1,0,0,0.5701,0,114,114,16,1,ziek,images/br_ziek.png,images/cb_ziek.png,1,ziek,,,,,,,,,,,,,,,,,,,,,
,,,,,,55987,2023-09-28_09h06.29.234,vbt_B2_day2,2022.2.4,Win32,60.5107104,55987,,,,,,,,,,,,,,,,,,,,,,,,,,,down,0,21.818,,0.608333333,-0.076851866,1,0,0,1.4166,0,115,115,157,1,uitlaat,images/br_uitlaat.png,images/cb_uitlaat.png,0,,,,,,,,,,,,,,,,,,,,,,
,,,,,,55987,2023-09-28_09h06.29.234,vbt_B2_day2,2022.2.4,Win32,60.5107104,55987,,,,,,,,,,,,,,,,,,,,,,,,,,,down,0,16.5357,,0.608333333,-0.076851866,1,0,0,1.4168,0,116,116,179,1,woestijn,images/br_woestijn.png,images/cb_woestijn.png,1,woestijn,,,,,,,,,,,,,,,,,,,,,
,,,,,,55987,2023-09-28_09h06.29.234,vbt_B2_day2,2022.2.4,Win32,60.5107104,55987,,,,,,,,,,,,,,,,,,,,,,,,,,,down,0,6.517,,0.471296353,-0.043518533,1,0,0,0.446,0,117,117,9,1,hier,images/br_hier.png,images/cb_hier.png,0,,,,,,,,,,,,,,,,,,,,,,
,,,,,,55987,2023-09-28_09h06.29.234,vbt_B2_day2,2022.2.4,Win32,60.5107104,55987,,,,,,,,,,,,,,,,,,,,,,,,,,,down,0,5.4024,,0.471296353,-0.043518533,1,0,0,0.5369,0,118,118,28,1,stal,images/br_stal.png,images/cb_stal.png,0,,,,,,,,,,,,,,,,,,,,,,
,,,,,,55987,2023-09-28_09h06.29.234,vbt_B2_day2,2022.2.4,Win32,60.5107104,55987,,,,,,,,,,,,,,,,,,,,,,,,,,,down,0,2.3835,,0.471296353,-0.043518533,1,0,0,0.4795,0,119,119,55,1,praat,images/br_praat.png,images/cb_praat.png,0,,,,,,,,,,,,,,,,,,,,,,
,,,,,,55987,2023-09-28_09h06.29.234,vbt_B2_day2,2022.2.4,Win32,60.5107104,55987,,,,,,,,,,,,,,,,,,,,,,,,,,,down,0,15.9002,,0.471296353,-0.043518533,1,0,0,0.5342,0,120,120,99,1,koffie,images/br_koffie.png,images/cb_koffie.png,1,koffie,,,,,,,,,,,,,,,,,,,,,
,,,,,,55987,2023-09-28_09h06.29.234,vbt_B2_day2,2022.2.4,Win32,60.5107104,55987,,,,,,,,,,,,,,,,,,,,,,,,,,,down,0,5.3251,,0.471296353,-0.043518533,1,0,0,1.1334,0,121,121,152,1,afnemen,images/br_afnemen.png,images/cb_afnemen.png,0,,,,,,,,,,,,,,,,,,,,,,
,,,,,,55987,2023-09-28_09h06.29.234,vbt_B2_day2,2022.2.4,Win32,60.5107104,55987,,,,,,,,,,,,,,,,,,,,,,,,,,,down,0,2.1064,,0.471296353,-0.043518533,1,0,0,0.7163,0,122,122,10,1,leek,images/br_leek.png,images/cb_leek.png,0,,,,,,,,,,,,,,,,,,,,,,
,,,,,,55987,2023-09-28_09h06.29.234,vbt_B2_day2,2022.2.4,Win32,60.5107104,55987,,,,,,,,,,,,,,,,,,,,,,,,,,,down,0,3.7725,,0.471296353,-0.043518533,1,0,0,4.2165,0,123,123,150,1,gegeven,images/br_gegeven.png,images/cb_gegeven.png,0,,,,,,,,,,,,,,,,,,,,,,
,,,,,,55987,2023-09-28_09h06.29.234,vbt_B2_day2,2022.2.4,Win32,60.5107104,55987,,,,,,,,,,,,,,,,,,,,,,,,,,,down,0,7.9181,,0.471296353,-0.043518533,1,0,0,0.7538,0,124,124,85,1,heilig,images/br_heilig.png,images/cb_heilig.png,0,,,,,,,,,,,,,,,,,,,,,,
,,,,,,55987,2023-09-28_09h06.29.234,vbt_B2_day2,2022.2.4,Win32,60.5107104,55987,,,,,,,,,,,,,,,,,,,,,,,,,,,down,0,9.7186,,0.495370399,-0.020370399,1,0,0,1.8998,0,125,125,194,1,driemaal,images/br_driemaal.png,images/cb_driemaal.png,0,,,,,,,,,,,,,,,,,,,,,,
,,,,,,55987,2023-09-28_09h06.29.234,vbt_B2_day2,2022.2.4,Win32,60.5107104,55987,,,,,,,,,,,,,,,,,,,,,,,,,,,down,0,5.4045,,0.495370399,-0.020370399,1,0,0,0.7536,0,126,126,70,1,ijdel,images/br_ijdel.png,images/cb_ijdel.png,0,,,,,,,,,,,,,,,,,,,,,,
,,,,,,55987,2023-09-28_09h06.29.234,vbt_B2_day2,2022.2.4,Win32,60.5107104,55987,,,,,,,,,,,,,,,,,,,,,,,,,,,down,0,13.3223,,0.514814843,-0.04629631,1,0,0,3.2166,0,127,127,94,1,oceaan,images/br_oceaan.png,images/cb_oceaan.png,0,,,,,,,,,,,,,,,,,,,,,,
,,,,,,55987,2023-09-28_09h06.29.234,vbt_B2_day2,2022.2.4,Win32,60.5107104,55987,,,,,,,,,,,,,,,,,,,,,,,,,,,down,0,4.4339,,0.514814843,-0.04629631,1,0,0,0.7165,0,128,128,69,1,waken,images/br_waken.png,images/cb_waken.png,0,,,,,,,,,,,,,,,,,,,,,,
,,,,,,55987,2023-09-28_09h06.29.234,vbt_B2_day2,2022.2.4,Win32,60.5107104,55987,,,,,,,,,,,,,,,,,,,,,,,,,,,down,0,0.0188,,0.514814843,-0.04629631,1,0,0,1.333,0,129,129,114,1,vullen,images/br_vullen.png,images/cb_vullen.png,0,,,,,,,,,,,,,,,,,,,,,,
,,,,,,55987,2023-09-28_09h06.29.234,vbt_B2_day2,2022.2.4,Win32,60.5107104,55987,,,,,,,,,,,,,,,,,,,,,,,,,,,down,0,3.8029,,0.514814843,-0.04629631,1,0,0,0.5501,0,130,130,82,1,muziek,images/br_muziek.png,images/cb_muziek.png,0,,,,,,,,,,,,,,,,,,,,,,
,,,,,,55987,2023-09-28_09h06.29.234,vbt_B2_day2,2022.2.4,Win32,60.5107104,55987,,,,,,,,,,,,,,,,,,,,,,,,,,,down,0,6.0177,,0.514814843,-0.04629631,1,0,0,0.8996,0,131,131,118,1,vinger,images/br_vinger.png,images/cb_vinger.png,0,,,,,,,,,,,,,,,,,,,,,,
,,,,,,55987,2023-09-28_09h06.29.234,vbt_B2_day2,2022.2.4,Win32,60.5107104,55987,,,,,,,,,,,,,,,,,,,,,,,,,,,down,0,4.0508,,0.514814843,-0.04629631,1,0,0,0.7496,0,132,132,38,1,baai,images/br_baai.png,images/cb_baai.png,0,,,,,,,,,,,,,,,,,,,,,,
,,,,,,55987,2023-09-28_09h06.29.234,vbt_B2_day2,2022.2.4,Win32,60.5107104,55987,,,,,,,,,,,,,,,,,,,,,,,,,,,down,0,19.7678,,0.514814843,-0.04629631,1,0,0,0.5997,0,133,133,123,1,hiervan,images/br_hiervan.png,images/cb_hiervan.png,0,,,,,,,,,,,,,,,,,,,,,,
,,,,,,55987,2023-09-28_09h06.29.234,vbt_B2_day2,2022.2.4,Win32,60.5107104,55987,,,,,,,,,,,,,,,,,,,,,,,,,,,down,0,8.1348,,0.514814843,-0.04629631,1,0,0,1.0872,0,134,134,103,1,joggen,images/br_joggen.png,images/cb_joggen.png,0,,,,,,,,,,,,,,,,,,,,,,
,,,,,,55987,2023-09-28_09h06.29.234,vbt_B2_day2,2022.2.4,Win32,60.5107104,55987,,,,,,,,,,,,,,,,,,,,,,,,,,,down,0,7.1444,,0.514814843,-0.04629631,1,0,0,0.4667,0,135,135,110,1,zuster,images/br_zuster.png,images/cb_zuster.png,0,,,,,,,,,,,,,,,,,,,,,,
,,,,,,55987,2023-09-28_09h06.29.234,vbt_B2_day2,2022.2.4,Win32,60.5107104,55987,,,,,,,,,,,,,,,,,,,,,,,,,,,down,0,10.5679,,0.514814843,-0.04629631,1,0,0,0.85,0,136,136,91,1,gezond,images/br_gezond.png,images/cb_gezond.png,0,,,,,,,,,,,,,,,,,,,,,,
,,,,,,55987,2023-09-28_09h06.29.234,vbt_B2_day2,2022.2.4,Win32,60.5107104,55987,,,,,,,,,,,,,,,,,,,,,,,,,,,down,0,16.6755,,0.514814843,-0.04629631,1,0,0,1.8837,0,137,137,168,1,bisschop,images/br_bisschop.png,images/cb_bisschop.png,0,,,,,,,,,,,,,,,,,,,,,,
,,,,,,55987,2023-09-28_09h06.29.234,vbt_B2_day2,2022.2.4,Win32,60.5107104,55987,,,,,,,,,,,,,,,,,,,,,,,,,,,down,0,13.9121,,0.514814843,-0.04629631,1,0,0,0.7836,0,138,138,189,1,aanraden,images/br_aanraden.png,images/cb_aanraden.png,0,,,,,,,,,,,,,,,,,,,,,,
,,,,,,55987,2023-09-28_09h06.29.234,vbt_B2_day2,2022.2.4,Win32,60.5107104,55987,,,,,,,,,,,,,,,,,,,,,,,,,,,down,0,14.2365,,0.514814843,-0.04629631,1,0,0,0.7833,0,139,139,145,1,invloed,images/br_invloed.png,images/cb_invloed.png,0,,,,,,,,,,,,,,,,,,,,,,
,,,,,,55987,2023-09-28_09h06.29.234,vbt_B2_day2,2022.2.4,Win32,60.5107104,55987,,,,,,,,,,,,,,,,,,,,,,,,,,,down,0,2.9262,,0.514814843,-0.04629631,1,0,0,0.7666,0,140,140,31,1,poes,images/br_poes.png,images/cb_poes.png,0,,,,,,,,,,,,,,,,,,,,,,
,,,,,,55987,2023-09-28_09h06.29.234,vbt_B2_day2,2022.2.4,Win32,60.5107104,55987,,,,,,,,,,,,,,,,,,,,,,,,,,,down,0,0.1993,,0.514814843,-0.04629631,1,0,0,1.1162,0,141,141,141,1,knielen,images/br_knielen.png,images/cb_knielen.png,0,,,,,,,,,,,,,,,,,,,,,,
,,,,,,55987,2023-09-28_09h06.29.234,vbt_B2_day2,2022.2.4,Win32,60.5107104,55987,,,,,,,,,,,,,,,,,,,,,,,,,,,down,0,0.0371,,0.514814843,-0.04629631,1,0,0,1.5169,0,142,142,78,1,leren,images/br_leren.png,images/cb_leren.png,0,,,,,,,,,,,,,,,,,,,,,,
,,,,,,55987,2023-09-28_09h06.29.234,vbt_B2_day2,2022.2.4,Win32,60.5107104,55987,,,,,,,,,,,,,,,,,,,,,,,,,,,down,0,4.3428,,0.514814843,-0.04629631,1,0,0,1.1335,0,143,143,175,1,heengaan,images/br_heengaan.png,images/cb_heengaan.png,0,,,,,,,,,,,,,,,,,,,,,,
,,,,,,55987,2023-09-28_09h06.29.234,vbt_B2_day2,2022.2.4,Win32,60.5107104,55987,,,,,,,,,,,,,,,,,,,,,,,,,,,down,0,7.6681,,0.514814843,-0.04629631,1,0,0,0.5163,0,144,144,133,1,seizoen,images/br_seizoen.png,images/cb_seizoen.png,0,,,,,,,,,,,,,,,,,,,,,,
,,,,,,55987,2023-09-28_09h06.29.234,vbt_B2_day2,2022.2.4,Win32,60.5107104,55987,,,,,,,,,,,,,,,,,,,,,,,,,,,down,0,8.0515,,0.514814843,-0.04629631,1,0,0,0.9869,0,145,145,124,1,bloeien,images/br_bloeien.png,images/cb_bloeien.png,0,,,,,,,,,,,,,,,,,,,,,,
,,,,,,55987,2023-09-28_09h06.29.234,vbt_B2_day2,2022.2.4,Win32,60.5107104,55987,,,,,,,,,,,,,,,,,,,,,,,,,,,down,0,4.3754,,0.514814843,-0.04629631,1,0,0,2.2501,0,146,146,18,1,blik,images/br_blik.png,images/cb_blik.png,1,blik,,,,,,,,,,,,,,,,,,,,,
,,,,,,55987,2023-09-28_09h06.29.234,vbt_B2_day2,2022.2.4,Win32,60.5107104,55987,,,,,,,,,,,,,,,,,,,,,,,,,,,down,0,0.5996,,0.514814843,-0.04629631,1,0,0,1.2202,0,147,147,49,1,laken,images/br_laken.png,images/cb_laken.png,0,,,,,,,,,,,,,,,,,,,,,,
,,,,,,55987,2023-09-28_09h06.29.234,vbt_B2_day2,2022.2.4,Win32,60.5107104,55987,,,,,,,,,,,,,,,,,,,,,,,,,,,down,0,3.8458,,0.514814843,-0.04629631,1,0,0,0.5667,0,148,148,134,1,geliefd,images/br_geliefd.png,images/cb_geliefd.png,0,,,,,,,,,,,,,,,,,,,,,,
,,,,,,55987,2023-09-28_09h06.29.234,vbt_B2_day2,2022.2.4,Win32,60.5107104,55987,,,,,,,,,,,,,,,,,,,,,,,,,,,down,0,7.5008,,0.514814843,-0.04629631,1,0,0,0.6327,0,149,149,177,1,maaltijd,images/br_maaltijd.png,images/cb_maaltijd.png,1,maaltijd,,,,,,,,,,,,,,,,,,,,,
,,,,,,55987,2023-09-28_09h06.29.234,vbt_B2_day2,2022.2.4,Win32,60.5107104,55987,,,,,,,,,,,,,,,,,,,,,,,,,,,down,0,2.7179,,0.514814843,-0.04629631,1,0,0,0.5664,0,150,150,41,1,maken,images/br_maken.png,images/cb_maken.png,0,,,,,,,,,,,,,,,,,,,,,,
,,,,,,55987,2023-09-28_09h06.29.234,vbt_B2_day2,2022.2.4,Win32,60.5107104,55987,,,,,,,,,,,,,,,,,,,,,,,,,,,down,0,8.2934,,0.514814843,-0.04629631,1,0,0,0.9501,0,151,151,146,1,opkomen,images/br_opkomen.png,images/cb_opkomen.png,0,,,,,,,,,,,,,,,,,,,,,,
,,,,,,55987,2023-09-28_09h06.29.234,vbt_B2_day2,2022.2.4,Win32,60.5107104,55987,,,,,,,,,,,,,,,,,,,,,,,,,,,down,0,11.4197,,0.514814843,-0.04629631,1,0,0,4.4835,0,152,152,106,1,zingen,images/br_zingen.png,images/cb_zingen.png,0,,,,,,,,,,,,,,,,,,,,,,
,,,,,,55987,2023-09-28_09h06.29.234,vbt_B2_day2,2022.2.4,Win32,60.5107104,55987,,,,,,,,,,,,,,,,,,,,,,,,,,,down,0,1.8502,,0.514814843,-0.04629631,1,0,0,0.5459,0,153,153,17,1,taal,images/br_taal.png,images/cb_taal.png,1,taal,,,,,,,,,,,,,,,,,,,,,
,,,,,,55987,2023-09-28_09h06.29.234,vbt_B2_day2,2022.2.4,Win32,60.5107104,55987,,,,,,,,,,,,,,,,,,,,,,,,,,,down,0,11.1585,,0.514814843,-0.04629631,1,0,0,11.0499,0,154,154,30,1,uien,images/br_uien.png,images/cb_uien.png,0,,,,,,,,,,,,,,,,,,,,,,
,,,,,,55987,2023-09-28_09h06.29.234,vbt_B2_day2,2022.2.4,Win32,60.5107104,55987,,,,,,,,,,,,,,,,,,,,,,,,,,,down,0,28.4925,,0.514814843,-0.04629631,1,0,0,9.2004,0,155,155,130,1,keihard,images/br_keihard.png,images/cb_keihard.png,0,,,,,,,,,,,,,,,,,,,,,,
,,,,,,55987,2023-09-28_09h06.29.234,vbt_B2_day2,2022.2.4,Win32,60.5107104,55987,,,,,,,,,,,,,,,,,,,,,,,,,,,down,0,3.273,,0.514814843,-0.04629631,1,0,0,0.567,0,156,156,75,1,snoep,images/br_snoep.png,images/cb_snoep.png,0,,,,,,,,,,,,,,,,,,,,,,
,,,,,,55987,2023-09-28_09h06.29.234,vbt_B2_day2,2022.2.4,Win32,60.5107104,55987,,,,,,,,,,,,,,,,,,,,,,,,,,,down,0,0.8122,,0.514814843,-0.04629631,1,0,0,0.8039,0,157,157,164,1,anarchie,images/br_anarchie.png,images/cb_anarchie.png,0,,,,,,,,,,,,,,,,,,,,,,
,,,,,,55987,2023-09-28_09h06.29.234,vbt_B2_day2,2022.2.4,Win32,60.5107104,55987,,,,,,,,,,,,,,,,,,,,,,,,,,,down,0,3.513,,0.514814843,-0.04629631,1,0,0,1.1,0,158,158,92,1,geheim,images/br_geheim.png,images/cb_geheim.png,0,,,,,,,,,,,,,,,,,,,,,,
,,,,,,55987,2023-09-28_09h06.29.234,vbt_B2_day2,2022.2.4,Win32,60.5107104,55987,,,,,,,,,,,,,,,,,,,,,,,,,,,down,0,9.2432,,0.514814843,-0.04629631,1,0,0,1.3038,0,159,159,161,1,attentie,images/br_attentie.png,images/cb_attentie.png,0,,,,,,,,,,,,,,,,,,,,,,
,,,,,,55987,2023-09-28_09h06.29.234,vbt_B2_day2,2022.2.4,Win32,60.5107104,55987,,,,,,,,,,,,,,,,,,,,,,,,,,,down,0,14.0334,,0.514814843,-0.04629631,1,0,0,0.9665,0,160,160,84,1,lokken,images/br_lokken.png,images/cb_lokken.png,0,,,,,,,,,,,,,,,,,,,,,,
,,,,,,55987,2023-09-28_09h06.29.234,vbt_B2_day2,2022.2.4,Win32,60.5107104,55987,,,,,,,,,,,,,,,,,,,,,,,,,,,down,0,4.5052,,0.514814843,-0.04629631,1,0,0,1.3158,0,161,161,147,1,komisch,images/br_komisch.png,images/cb_komisch.png,0,,,,,,,,,,,,,,,,,,,,,,
,,,,,,55987,2023-09-28_09h06.29.234,vbt_B2_day2,2022.2.4,Win32,60.5107104,55987,,,,,,,,,,,,,,,,,,,,,,,,,,,down,0,4.8167,,0.514814843,-0.04629631,1,0,0,0.6365,0,162,162,11,1,mode,images/br_mode.png,images/cb_mode.png,0,,,,,,,,,,,,,,,,,,,,,,
,,,,,,55987,2023-09-28_09h06.29.234,vbt_B2_day2,2022.2.4,Win32,60.5107104,55987,,,,,,,,,,,,,,,,,,,,,,,,,,,down,0,21.3339,,0.514814843,-0.04629631,1,0,0,0.7999,0,163,163,128,1,prikken,images/br_prikken.png,images/cb_prikken.png,0,,,,,,,,,,,,,,,,,,,,,,
,,,,,,55987,2023-09-28_09h06.29.234,vbt_B2_day2,2022.2.4,Win32,60.5107104,55987,,,,,,,,,,,,,,,,,,,,,,,,,,,down,0,19.2008,,0.514814843,-0.04629631,1,0,0,6.2833,0,164,164,122,1,waarvan,images/br_waarvan.png,images/cb_waarvan.png,0,,,,,,,,,,,,,,,,,,,,,,
,,,,,,55987,2023-09-28_09h06.29.234,vbt_B2_day2,2022.2.4,Win32,60.5107104,55987,,,,,,,,,,,,,,,,,,,,,,,,,,,down,0,9.8526,,0.514814843,-0.04629631,1,0,0,0.6519,0,165,165,140,1,blijven,images/br_blijven.png,images/cb_blijven.png,0,,,,,,,,,,,,,,,,,,,,,,
,,,,,,55987,2023-09-28_09h06.29.234,vbt_B2_day2,2022.2.4,Win32,60.5107104,55987,,,,,,,,,,,,,,,,,,,,,,,,,,,down,0,16.3025,,0.514814843,-0.04629631,1,0,0,2.3831,0,166,166,165,1,feestdag,images/br_feestdag.png,images/cb_feestdag.png,0,,,,,,,,,,,,,,,,,,,,,,
,,,,,,55987,2023-09-28_09h06.29.234,vbt_B2_day2,2022.2.4,Win32,60.5107104,55987,,,,,,,,,,,,,,,,,,,,,,,,,,,down,0,17.6747,,0.514814843,-0.04629631,1,0,0,0.6502,0,167,167,120,1,klimmen,images/br_klimmen.png,images/cb_klimmen.png,0,,,,,,,,,,,,,,,,,,,,,,
,,,,,,55987,2023-09-28_09h06.29.234,vbt_B2_day2,2022.2.4,Win32,60.5107104,55987,,,,,,,,,,,,,,,,,,,,,,,,,,,down,0,12.7085,,0.514814843,-0.04629631,1,0,0,0.9038,0,168,168,62,1,knaap,images/br_knaap.png,images/cb_knaap.png,0,,,,,,,,,,,,,,,,,,,,,,
,,,,,,55987,2023-09-28_09h06.29.234,vbt_B2_day2,2022.2.4,Win32,60.5107104,55987,,,,,,,,,,,,,,,,,,,,,,,,,,,down,0,2.8445,,0.514814843,-0.04629631,1,0,0,0.6376,0,169,169,170,1,schatten,images/br_schatten.png,images/cb_schatten.png,0,,,,,,,,,,,,,,,,,,,,,,
,,,,,,55987,2023-09-28_09h06.29.234,vbt_B2_day2,2022.2.4,Win32,60.5107104,55987,,,,,,,,,,,,,,,,,,,,,,,,,,,down,0,11.6138,,0.514814843,-0.04629631,1,0,0,1.1834,0,170,170,24,1,jurk,images/br_jurk.png,images/cb_jurk.png,0,,,,,,,,,,,,,,,,,,,,,,
,,,,,,55987,2023-09-28_09h06.29.234,vbt_B2_day2,2022.2.4,Win32,60.5107104,55987,,,,,,,,,,,,,,,,,,,,,,,,,,,down,0,0.2547,,0.514814843,-0.04629631,1,0,0,0.5499,0,171,171,29,1,baas,images/br_baas.png,images/cb_baas.png,0,,,,,,,,,,,,,,,,,,,,,,
,,,,,,55987,2023-09-28_09h06.29.234,vbt_B2_day2,2022.2.4,Win32,60.5107104,55987,,,,,,,,,,,,,,,,,,,,,,,,,,,down,0,2.2278,,0.514814843,-0.04629631,1,0,0,0.7541,0,172,172,42,1,bleek,images/br_bleek.png,images/cb_bleek.png,0,,,,,,,,,,,,,,,,,,,,,,
,,,,,,55987,2023-09-28_09h06.29.234,vbt_B2_day2,2022.2.4,Win32,60.5107104,55987,,,,,,,,,,,,,,,,,,,,,,,,,,,down,0,19.9509,,0.514814843,-0.04629631,1,0,0,0.6331,0,173,173,154,1,aflopen,images/br_aflopen.png,images/cb_aflopen.png,0,,,,,,,,,,,,,,,,,,,,,,
,,,,,,55987,2023-09-28_09h06.29.234,vbt_B2_day2,2022.2.4,Win32,60.5107104,55987,,,,,,,,,,,,,,,,,,,,,,,,,,,down,0,18.0436,,0.514814843,-0.04629631,1,0,0,0.5704,0,174,174,112,1,lukken,images/br_lukken.png,images/cb_lukken.png,0,,,,,,,,,,,,,,,,,,,,,,
,,,,,,55987,2023-09-28_09h06.29.234,vbt_B2_day2,2022.2.4,Win32,60.5107104,55987,,,,,,,,,,,,,,,,,,,,,,,,,,,down,0,2.1167,,0.514814843,-0.04629631,1,0,0,0.5172,0,175,175,80,1,kanjer,images/br_kanjer.png,images/cb_kanjer.png,0,,,,,,,,,,,,,,,,,,,,,,
,,,,,,55987,2023-09-28_09h06.29.234,vbt_B2_day2,2022.2.4,Win32,60.5107104,55987,,,,,,,,,,,,,,,,,,,,,,,,,,,down,0,4.452,,0.514814843,-0.04629631,1,0,0,0.5666,0,176,176,166,1,strikken,images/br_strikken.png,images/cb_strikken.png,0,,,,,,,,,,,,,,,,,,,,,,
,,,,,,55987,2023-09-28_09h06.29.234,vbt_B2_day2,2022.2.4,Win32,60.5107104,55987,,,,,,,,,,,,,,,,,,,,,,,,,,,down,0,5.8064,,0.514814843,-0.04629631,1,0,0,0.5999,0,177,177,46,1,jagen,images/br_jagen.png,images/cb_jagen.png,0,,,,,,,,,,,,,,,,,,,,,,
,,,,,,55987,2023-09-28_09h06.29.234,vbt_B2_day2,2022.2.4,Win32,60.5107104,55987,,,,,,,,,,,,,,,,,,,,,,,,,,,down,0,2.7629,,0.514814843,-0.04629631,1,0,0,0.6337,0,178,178,25,1,plek,images/br_plek.png,images/cb_plek.png,0,,,,,,,,,,,,,,,,,,,,,,
,,,,,,55987,2023-09-28_09h06.29.234,vbt_B2_day2,2022.2.4,Win32,60.5107104,55987,,,,,,,,,,,,,,,,,,,,,,,,,,,down,0,12.5085,,0.514814843,-0.04629631,1,0,0,0.7838,0,179,179,197,1,spanning,images/br_spanning.png,images/cb_spanning.png,0,,,,,,,,,,,,,,,,,,,,,,
,,,,,,55987,2023-09-28_09h06.29.234,vbt_B2_day2,2022.2.4,Win32,60.5107104,55987,,,,,,,,,,,,,,,,,,,,,,,,,,,down,0,13.6514,,0.514814843,-0.04629631,1,0,0,0.5338,0,180,180,191,1,opheffen,images/br_opheffen.png,images/cb_opheffen.png,0,,,,,,,,,,,,,,,,,,,,,,
,,,,,,55987,2023-09-28_09h06.29.234,vbt_B2_day2,2022.2.4,Win32,60.5107104,55987,,,,,,,,,,,,,,,,,,,,,,,,,,,down,0,1.7995,,0.514814843,-0.04629631,1,0,0,0.5666,0,181,181,39,1,laag,images/br_laag.png,images/cb_laag.png,0,,,,,,,,,,,,,,,,,,,,,,
,,,,,,55987,2023-09-28_09h06.29.234,vbt_B2_day2,2022.2.4,Win32,60.5107104,55987,,,,,,,,,,,,,,,,,,,,,,,,,,,down,0,14.2512,,0.514814843,-0.04629631,1,0,0,0.6331,0,182,182,185,1,mijnheer,images/br_mijnheer.png,images/cb_mijnheer.png,0,,,,,,,,,,,,,,,,,,,,,,
,,,,,,55987,2023-09-28_09h06.29.234,vbt_B2_day2,2022.2.4,Win32,60.5107104,55987,,,,,,,,,,,,,,,,,,,,,,,,,,,down,0,4.178,,0.514814843,-0.04629631,1,0,0,0.5834,0,183,183,21,1,mist,images/br_mist.png,images/cb_mist.png,0,,,,,,,,,,,,,,,,,,,,,,
,,,,,,55987,2023-09-28_09h06.29.234,vbt_B2_day2,2022.2.4,Win32,60.5107104,55987,,,,,,,,,,,,,,,,,,,,,,,,,,,down,0,15.9971,,0.514814843,-0.04629631,1,0,0,0.5537,0,184,184,77,1,woede,images/br_woede.png,images/cb_woede.png,0,,,,,,,,,,,,,,,,,,,,,,
,,,,,,55987,2023-09-28_09h06.29.234,vbt_B2_day2,2022.2.4,Win32,60.5107104,55987,,,,,,,,,,,,,,,,,,,,,,,,,,,down,0,27.8513,,0.514814843,-0.04629631,1,0,0,0.4831,0,185,185,136,1,waarbij,images/br_waarbij.png,images/cb_waarbij.png,1,waarbij,,,,,,,,,,,,,,,,,,,,,
,,,,,,55987,2023-09-28_09h06.29.234,vbt_B2_day2,2022.2.4,Win32,60.5107104,55987,,,,,,,,,,,,,,,,,,,,,,,,,,,down,0,8.5376,,0.514814843,-0.04629631,1,0,0,0.5665,0,186,186,169,1,oprotten,images/br_oprotten.png,images/cb_oprotten.png,0,,,,,,,,,,,,,,,,,,,,,,
,,,,,,55987,2023-09-28_09h06.29.234,vbt_B2_day2,2022.2.4,Win32,60.5107104,55987,,,,,,,,,,,,,,,,,,,,,,,,,,,down,0,6.1237,,0.514814843,-0.04629631,1,0,0,0.5834,0,187,187,119,1,liefje,images/br_liefje.png,images/cb_liefje.png,0,,,,,,,,,,,,,,,,,,,,,,
,,,,,,55987,2023-09-28_09h06.29.234,vbt_B2_day2,2022.2.4,Win32,60.5107104,55987,,,,,,,,,,,,,,,,,,,,,,,,,,,down,0,21.6351,,0.514814843,-0.04629631,1,0,0,1.0497,0,188,188,88,1,boeien,images/br_boeien.png,images/cb_boeien.png,0,,,,,,,,,,,,,,,,,,,,,,
,,,,,,55987,2023-09-28_09h06.29.234,vbt_B2_day2,2022.2.4,Win32,60.5107104,55987,,,,,,,,,,,,,,,,,,,,,,,,,,,down,0,11.6514,,0.514814843,-0.04629631,1,0,0,0.6708,0,189,189,74,1,graaf,images/br_graaf.png,images/cb_graaf.png,0,,,,,,,,,,,,,,,,,,,,,,
,,,,,,55987,2023-09-28_09h06.29.234,vbt_B2_day2,2022.2.4,Win32,60.5107104,55987,,,,,,,,,,,,,,,,,,,,,,,,,,,down,0,6.0718,,0.514814843,-0.04629631,1,0,0,0.7831,0,190,190,142,1,snuiven,images/br_snuiven.png,images/cb_snuiven.png,0,,,,,,,,,,,,,,,,,,,,,,
,,,,,,55987,2023-09-28_09h06.29.234,vbt_B2_day2,2022.2.4,Win32,60.5107104,55987,,,,,,,,,,,,,,,,,,,,,,,,,,,down,0,14.0772,,0.514814843,-0.04629631,1,0,0,0.5186,0,191,191,173,1,apparaat,images/br_apparaat.png,images/cb_apparaat.png,0,,,,,,,,,,,,,,,,,,,,,,
,,,,,,55987,2023-09-28_09h06.29.234,vbt_B2_day2,2022.2.4,Win32,60.5107104,55987,,,,,,,,,,,,,,,,,,,,,,,,,,,down,0,15.1677,,0.514814843,-0.04629631,1,0,0,0.5291,0,192,192,60,1,jasje,images/br_jasje.png,images/cb_jasje.png,0,,,,,,,,,,,,,,,,,,,,,,
,,,,,,55987,2023-09-28_09h06.29.234,vbt_B2_day2,2022.2.4,Win32,60.5107104,55987,,,,,,,,,,,,,,,,,,,,,,,,,,,down,0,5.2746,,0.514814843,-0.04629631,1,0,0,0.5502,0,193,193,40,1,schep,images/br_schep.png,images/cb_schep.png,0,,,,,,,,,,,,,,,,,,,,,,
,,,,,,55987,2023-09-28_09h06.29.234,vbt_B2_day2,2022.2.4,Win32,60.5107104,55987,,,,,,,,,,,,,,,,,,,,,,,,,,,down,0,10.6184,,0.514814843,-0.04629631,1,0,0,0.7979,0,194,194,52,1,wagon,images/br_wagon.png,images/cb_wagon.png,0,,,,,,,,,,,,,,,,,,,,,,
,,,,,,55987,2023-09-28_09h06.29.234,vbt_B2_day2,2022.2.4,Win32,60.5107104,55987,,,,,,,,,,,,,,,,,,,,,,,,,,,down,0,2.8677,,0.514814843,-0.04629631,1,0,0,0.5495,0,195,195,126,1,kasteel,images/br_kasteel.png,images/cb_kasteel.png,0,,,,,,,,,,,,,,,,,,,,,,
,,,,,,55987,2023-09-28_09h06.29.234,vbt_B2_day2,2022.2.4,Win32,60.5107104,55987,,,,,,,,,,,,,,,,,,,,,,,,,,,down,0,3.786,,0.514814843,-0.04629631,1,0,0,0.7835,0,196,196,12,1,kust,images/br_kust.png,images/cb_kust.png,0,,,,,,,,,,,,,,,,,,,,,,
,,,,,,55987,2023-09-28_09h06.29.234,vbt_B2_day2,2022.2.4,Win32,60.5107104,55987,,,,,,,,,,,,,,,,,,,,,,,,,,,down,0,2.3844,,0.514814843,-0.04629631,1,0,0,0.5668,0,197,197,66,1,lever,images/br_lever.png,images/cb_lever.png,0,,,,,,,,,,,,,,,,,,,,,,
,,,,,,55987,2023-09-28_09h06.29.234,vbt_B2_day2,2022.2.4,Win32,60.5107104,55987,,,,,,,,,,,,,,,,,,,,,,,,,,,down,0,15.2204,,0.514814843,-0.04629631,1,0,0,0.9666,0,198,198,61,1,groen,images/br_groen.png,images/cb_groen.png,0,,,,,,,,,,,,,,,,,,,,,,
,,,,,,55987,2023-09-28_09h06.29.234,vbt_B2_day2,2022.2.4,Win32,60.5107104,55987,,,,,,,,,,,,,,,,,,,,,,,,,,,down,0,6.7338,,0.514814843,-0.04629631,1,0,0,0.7171,0,199,199,71,1,bever,images/br_bever.png,images/cb_bever.png,0,,,,,,,,,,,,,,,,,,,,,,
,,,,,,55987,2023-09-28_09h06.29.234,vbt_B2_day2,2022.2.4,Win32,60.5107104,55987,,,,,,,,,,,,,,,,,,,,,,,,,,,,,,,,,,,,,,,,,,,,,,,0.075925954,-0.15,0,0,1,,,,,,,,,,,,,,,,
,,,,,,55987,2023-09-28_09h06.29.234,vbt_B2_day2,2022.2.4,Win32,60.5107104,55987,,,,,,,,,,,,,,,,,,,,,,,,,,,,,,,,,,,,,,,,,,,,,,,,,,,,-0.5824074,-0.073148176,1,0,0,,,,,,,,,,,
,,,,,,55987,2023-09-28_09h06.29.234,vbt_B2_day2,2022.2.4,Win32,60.5107104,55987,,,,,,,,,,,,,,,,,,,,,,,,,,,,,,,,,,,,,,,,,,dode,images/br_dode.png,images/cb_dode.png,,.o..,,,,,,,,,,,-0.054629601,-0.316666667,1,0,0,.o..,0,0,0,41,1
,,,,,,55987,2023-09-28_09h06.29.234,vbt_B2_day2,2022.2.4,Win32,60.5107104,55987,,,,,,,,,,,,,,,,,,,,,,,,,,,,,,,,,,,,,,,,,,sifferd,images/br_sifferd.png,images/cb_sifferd.png,,siffe..,,,,,,,,,,,-0.054629601,-0.316666667,1,0,0,siffe..,0,1,1,32,1
,,,,,,55987,2023-09-28_09h06.29.234,vbt_B2_day2,2022.2.4,Win32,60.5107104,55987,,,,,,,,,,,,,,,,,,,,,,,,,,,,,,,,,,,,,,,,,,ophuimen,images/br_ophuimen.png,images/cb_ophuimen.png,,ophu...,,,,,,,,,,,-0.054629601,-0.316666667,1,0,0,ophu...,0,2,2,36,1
,,,,,,55987,2023-09-28_09h06.29.234,vbt_B2_day2,2022.2.4,Win32,60.5107104,55987,,,,,,,,,,,,,,,,,,,,,,,,,,,,,,,,,,,,,,,,,,kabel,images/br_kabel.png,images/cb_kabel.png,,kabel,,,,,,,,,,,-0.054629601,-0.316666667,1,0,0,kabel,0,3,3,7,1
,,,,,,55987,2023-09-28_09h06.29.234,vbt_B2_day2,2022.2.4,Win32,60.5107104,55987,,,,,,,,,,,,,,,,,,,,,,,,,,,,,,,,,,,,,,,,,,jong,images/br_jong.png,images/cb_jong.png,,jong,,,,,,,,,,,-0.054629601,-0.316666667,1,0,0,jong,0,4,4,43,1
,,,,,,55987,2023-09-28_09h06.29.234,vbt_B2_day2,2022.2.4,Win32,60.5107104,55987,,,,,,,,,,,,,,,,,,,,,,,,,,,,,,,,,,,,,,,,,,plannen,images/br_plannen.png,images/cb_plannen.png,,plannen,,,,,,,,,,,-0.054629601,-0.316666667,1,0,0,plannen,0,5,5,55,1
,,,,,,55987,2023-09-28_09h06.29.234,vbt_B2_day2,2022.2.4,Win32,60.5107104,55987,,,,,,,,,,,,,,,,,,,,,,,,,,,,,,,,,,,,,,,,,,krimmen,images/br_krimmen.png,images/cb_krimmen.png,,krimm..,,,,,,,,,,,-0.054629601,-0.316666667,1,0,0,krimm..,0,6,6,35,1
,,,,,,55987,2023-09-28_09h06.29.234,vbt_B2_day2,2022.2.4,Win32,60.5107104,55987,,,,,,,,,,,,,,,,,,,,,,,,,,,,,,,,,,,,,,,,,,badon,images/br_badon.png,images/cb_badon.png,,bad..,,,,,,,,,,,-0.054629601,-0.316666667,1,0,0,bad..,0,7,7,26,1
,,,,,,55987,2023-09-28_09h06.29.234,vbt_B2_day2,2022.2.4,Win32,60.5107104,55987,,,,,,,,,,,,,,,,,,,,,,,,,,,,,,,,,,,,,,,,,,lokken,images/br_lokken.png,images/cb_lokken.png,,lokken,,,,,,,,,,,-0.054629601,-0.316666667,1,0,0,lokken,0,8,8,8,1
,,,,,,55987,2023-09-28_09h06.29.234,vbt_B2_day2,2022.2.4,Win32,60.5107104,55987,,,,,,,,,,,,,,,,,,,,,,,,,,,,,,,,,,,,,,,,,,blad,images/br_blad.png,images/cb_blad.png,,blad,,,,,,,,,,,-0.054629601,-0.316666667,1,0,0,blad,0,9,9,1,1
,,,,,,55987,2023-09-28_09h06.29.234,vbt_B2_day2,2022.2.4,Win32,60.5107104,55987,,,,,,,,,,,,,,,,,,,,,,,,,,,,,,,,,,,,,,,,,,doodmoe,images/br_doodmoe.png,images/cb_doodmoe.png,,doodmoe,,,,,,,,,,,-0.054629601,-0.316666667,1,0,0,doodmoe,0,10,10,15,1
,,,,,,55987,2023-09-28_09h06.29.234,vbt_B2_day2,2022.2.4,Win32,60.5107104,55987,,,,,,,,,,,,,,,,,,,,,,,,,,,,,,,,,,,,,,,,,,anarchie,images/br_anarchie.png,images/cb_anarchie.png,,anarchie,,,,,,,,,,,-0.054629601,-0.316666667,1,0,0,anarchie,0,11,11,16,1
,,,,,,55987,2023-09-28_09h06.29.234,vbt_B2_day2,2022.2.4,Win32,60.5107104,55987,,,,,,,,,,,,,,,,,,,,,,,,,,,,,,,,,,,,,,,,,,zwager,images/br_zwager.png,images/cb_zwager.png,,zwa...,,,,,,,,,,,-0.054629601,-0.316666667,1,0,0,zwa...,0,12,12,49,1
,,,,,,55987,2023-09-28_09h06.29.234,vbt_B2_day2,2022.2.4,Win32,60.5107104,55987,,,,,,,,,,,,,,,,,,,,,,,,,,,,,,,,,,,,,,,,,,heilig,images/br_heilig.png,images/cb_heilig.png,,heilig,,,,,,,,,,,-0.054629601,-0.316666667,1,0,0,heilig,0,13,13,9,1
,,,,,,55987,2023-09-28_09h06.29.234,vbt_B2_day2,2022.2.4,Win32,60.5107104,55987,,,,,,,,,,,,,,,,,,,,,,,,,,,,,,,,,,,,,,,,,,diep,images/br_diep.png,images/cb_diep.png,,diep,,,,,,,,,,,-0.054629601,-0.316666667,1,0,0,diep,0,14,14,2,1
,,,,,,55987,2023-09-28_09h06.29.234,vbt_B2_day2,2022.2.4,Win32,60.5107104,55987,,,,,,,,,,,,,,,,,,,,,,,,,,,,,,,,,,,,,,,,,,trots,images/br_trots.png,images/cb_trots.png,,trots,,,,,,,,,,,-0.054629601,-0.316666667,1,0,0,trots,0,15,15,44,1
,,,,,,55987,2023-09-28_09h06.29.234,vbt_B2_day2,2022.2.4,Win32,60.5107104,55987,,,,,,,,,,,,,,,,,,,,,,,,,,,,,,,,,,,,,,,,,,prekken,images/br_prekken.png,images/cb_prekken.png,,p.....,,,,,,,,,,,-0.162962935,-0.07129631,1,0,0,p.....,0,16,16,34,1
,,,,,,55987,2023-09-28_09h06.29.234,vbt_B2_day2,2022.2.4,Win32,60.5107104,55987,,,,,,,,,,,,,,,,,,,,,,,,,,,,,,,,,,,,,,,,,,systeem,images/br_systeem.png,images/cb_systeem.png,,systeem,,,,,,,,,,,-0.060185157,-0.423148176,1,0,0,systeem,0,17,17,54,1
,,,,,,55987,2023-09-28_09h06.29.234,vbt_B2_day2,2022.2.4,Win32,60.5107104,55987,,,,,,,,,,,,,,,,,,,,,,,,,,,,,,,,,,,,,,,,,,feestdag,images/br_feestdag.png,images/cb_feestdag.png,,fee....,,,,,,,,,,,-0.041666667,-0.274074131,1,0,0,fee....,0,18,18,17,1
,,,,,,55987,2023-09-28_09h06.29.234,vbt_B2_day2,2022.2.4,Win32,60.5107104,55987,,,,,,,,,,,,,,,,,,,,,,,,,,,,,,,,,,,,,,,,,,clan,images/br_clan.png,images/cb_clan.png,,cla.,,,,,,,,,,,-0.041666667,-0.274074131,1,0,0,cla.,0,19,19,40,1
,,,,,,55987,2023-09-28_09h06.29.234,vbt_B2_day2,2022.2.4,Win32,60.5107104,55987,,,,,,,,,,,,,,,,,,,,,,,,,,,,,,,,,,,,,,,,,,thema,images/br_thema.png,images/cb_thema.png,,th...,,,,,,,,,,,-0.041666667,-0.274074131,1,0,0,th...,0,20,20,47,1
,,,,,,55987,2023-09-28_09h06.29.234,vbt_B2_day2,2022.2.4,Win32,60.5107104,55987,,,,,,,,,,,,,,,,,,,,,,,,,,,,,,,,,,,,,,,,,,bereuwen,images/br_bereuwen.png,images/cb_bereuwen.png,,bere....,,,,,,,,,,,-0.041666667,-0.274074131,1,0,0,bere....,0,21,21,39,1
,,,,,,55987,2023-09-28_09h06.29.234,vbt_B2_day2,2022.2.4,Win32,60.5107104,55987,,,,,,,,,,,,,,,,,,,,,,,,,,,,,,,,,,,,,,,,,,tand,images/br_tand.png,images/cb_tand.png,,sand,,,,,,,,,,,-0.041666667,-0.274074131,1,0,0,sand,0,22,22,42,1
,,,,,,55987,2023-09-28_09h06.29.234,vbt_B2_day2,2022.2.4,Win32,60.5107104,55987,,,,,,,,,,,,,,,,,,,,,,,,,,,,,,,,,,,,,,,,,,zomers,images/br_zomers.png,images/cb_zomers.png,,nom....,,,,,,,,,,,-0.041666667,-0.274074131,1,0,0,nom....,0,23,23,48,1
,,,,,,55987,2023-09-28_09h06.29.234,vbt_B2_day2,2022.2.4,Win32,60.5107104,55987,,,,,,,,,,,,,,,,,,,,,,,,,,,,,,,,,,,,,,,,,,aanzien,images/br_aanzien.png,images/cb_aanzien.png,,aanzien,,,,,,,,,,,0.224074131,-0.308333333,1,0,0,aanzien,0,24,24,13,1
,,,,,,55987,2023-09-28_09h06.29.234,vbt_B2_day2,2022.2.4,Win32,60.5107104,55987,,,,,,,,,,,,,,,,,,,,,,,,,,,,,,,,,,,,,,,,,,joes,images/br_joes.png,images/cb_joes.png,,.oe.,,,,,,,,,,,0.224074131,-0.308333333,1,0,0,.oe.,0,25,25,20,1
,,,,,,55987,2023-09-28_09h06.29.234,vbt_B2_day2,2022.2.4,Win32,60.5107104,55987,,,,,,,,,,,,,,,,,,,,,,,,,,,,,,,,,,,,,,,,,,inzicht,images/br_inzicht.png,images/cb_inzicht.png,,inz.....,,,,,,,,,,,-0.223148134,-0.337963019,1,0,0,inz.....,0,26,26,53,1
,,,,,,55987,2023-09-28_09h06.29.234,vbt_B2_day2,2022.2.4,Win32,60.5107104,55987,,,,,,,,,,,,,,,,,,,,,,,,,,,,,,,,,,,,,,,,,,aanvraag,images/br_aanvraag.png,images/cb_aanvraag.png,,aanvar..,,,,,,,,,,,-0.223148134,-0.337963019,1,0,0,aanvar..,0,27,27,57,1
,,,,,,55987,2023-09-28_09h06.29.234,vbt_B2_day2,2022.2.4,Win32,60.5107104,55987,,,,,,,,,,,,,,,,,,,,,,,,,,,,,,,,,,,,,,,,,,eenhoorn,images/br_eenhoorn.png,images/cb_eenhoorn.png,,eenhorn,,,,,,,,,,,-0.223148134,-0.337963019,1,0,0,eenhorn,0,28,28,19,1
,,,,,,55987,2023-09-28_09h06.29.234,vbt_B2_day2,2022.2.4,Win32,60.5107104,55987,,,,,,,,,,,,,,,,,,,,,,,,,,,,,,,,,,,,,,,,,,woning,images/br_woning.png,images/cb_woning.png,,woning,,,,,,,,,,,-0.223148134,-0.337963019,1,0,0,woning,0,29,29,10,1
,,,,,,55987,2023-09-28_09h06.29.234,vbt_B2_day2,2022.2.4,Win32,60.5107104,55987,,,,,,,,,,,,,,,,,,,,,,,,,,,,,,,,,,,,,,,,,,koorts,images/br_koorts.png,images/cb_koorts.png,,koorts,,,,,,,,,,,-0.223148134,-0.337963019,1,0,0,koorts,0,30,30,50,1
,,,,,,55987,2023-09-28_09h06.29.234,vbt_B2_day2,2022.2.4,Win32,60.5107104,55987,,,,,,,,,,,,,,,,,,,,,,,,,,,,,,,,,,,,,,,,,,stes,images/br_stes.png,images/cb_stes.png,,stes,,,,,,,,,,,-0.223148134,-0.337963019,1,0,0,stes,0,31,31,21,1
,,,,,,55987,2023-09-28_09h06.29.234,vbt_B2_day2,2022.2.4,Win32,60.5107104,55987,,,,,,,,,,,,,,,,,,,,,,,,,,,,,,,,,,,,,,,,,,jagen,images/br_jagen.png,images/cb_jagen.png,,jagen,,,,,,,,,,,0.037037065,-0.010185199,1,0,0,jagen,0,32,32,6,1
,,,,,,55987,2023-09-28_09h06.29.234,vbt_B2_day2,2022.2.4,Win32,60.5107104,55987,,,,,,,,,,,,,,,,,,,,,,,,,,,,,,,,,,,,,,,,,,opdatten,images/br_opdatten.png,images/cb_opdatten.png,,opda....,,,,,,,,,,,0.200925954,-0.309259288,1,0,0,opda....,0,33,33,37,1
,,,,,,55987,2023-09-28_09h06.29.234,vbt_B2_day2,2022.2.4,Win32,60.5107104,55987,,,,,,,,,,,,,,,,,,,,,,,,,,,,,,,,,,,,,,,,,,welzijn,images/br_welzijn.png,images/cb_welzijn.png,,,,,,,,,,,,,-0.001851824,-0.189814843,1,0,0,,0,34,34,52,1
,,,,,,55987,2023-09-28_09h06.29.234,vbt_B2_day2,2022.2.4,Win32,60.5107104,55987,,,,,,,,,,,,,,,,,,,,,,,,,,,,,,,,,,,,,,,,,,lijnen,images/br_lijnen.png,images/cb_lijnen.png,,le...,,,,,,,,,,,-0.000925869,-0.333333333,1,0,0,le...,0,35,35,51,1
,,,,,,55987,2023-09-28_09h06.29.234,vbt_B2_day2,2022.2.4,Win32,60.5107104,55987,,,,,,,,,,,,,,,,,,,,,,,,,,,,,,,,,,,,,,,,,,wijve,images/br_wijve.png,images/cb_wijve.png,,widv.,,,,,,,,,,,-0.000925869,-0.333333333,1,0,0,widv.,0,36,36,27,1
,,,,,,55987,2023-09-28_09h06.29.234,vbt_B2_day2,2022.2.4,Win32,60.5107104,55987,,,,,,,,,,,,,,,,,,,,,,,,,,,,,,,,,,,,,,,,,,agressie,images/br_agressie.png,images/cb_agressie.png,,agressie,,,,,,,,,,,-0.000925869,-0.333333333,1,0,0,agressie,0,37,37,59,1
,,,,,,55987,2023-09-28_09h06.29.234,vbt_B2_day2,2022.2.4,Win32,60.5107104,55987,,,,,,,,,,,,,,,,,,,,,,,,,,,,,,,,,,,,,,,,,,kijlen,images/br_kijlen.png,images/cb_kijlen.png,,kijl..,,,,,,,,,,,-0.000925869,-0.333333333,1,0,0,kijl..,0,38,38,31,1
,,,,,,55987,2023-09-28_09h06.29.234,vbt_B2_day2,2022.2.4,Win32,60.5107104,55987,,,,,,,,,,,,,,,,,,,,,,,,,,,,,,,,,,,,,,,,,,tweeling,images/br_tweeling.png,images/cb_tweeling.png,,tw.....,,,,,,,,,,,-0.000925869,-0.333333333,1,0,0,tw.....,0,39,39,58,1
,,,,,,55987,2023-09-28_09h06.29.234,vbt_B2_day2,2022.2.4,Win32,60.5107104,55987,,,,,,,,,,,,,,,,,,,,,,,,,,,,,,,,,,,,,,,,,,sjijfel,images/br_sjijfel.png,images/cb_sjijfel.png,,sji....,,,,,,,,,,,-0.000925869,-0.333333333,1,0,0,sji....,0,40,40,33,1
,,,,,,55987,2023-09-28_09h06.29.234,vbt_B2_day2,2022.2.4,Win32,60.5107104,55987,,,,,,,,,,,,,,,,,,,,,,,,,,,,,,,,,,,,,,,,,,negel,images/br_negel.png,images/cb_negel.png,,zegel,,,,,,,,,,,-0.000925869,-0.333333333,1,0,0,zegel,0,41,41,24,1
,,,,,,55987,2023-09-28_09h06.29.234,vbt_B2_day2,2022.2.4,Win32,60.5107104,55987,,,,,,,,,,,,,,,,,,,,,,,,,,,,,,,,,,,,,,,,,,flits,images/br_flits.png,images/cb_flits.png,,flets,,,,,,,,,,,-0.000925869,-0.333333333,1,0,0,flets,0,42,42,4,1
,,,,,,55987,2023-09-28_09h06.29.234,vbt_B2_day2,2022.2.4,Win32,60.5107104,55987,,,,,,,,,,,,,,,,,,,,,,,,,,,,,,,,,,,,,,,,,,piste,images/br_piste.png,images/cb_piste.png,,piste,,,,,,,,,,,-0.000925869,-0.333333333,1,0,0,piste,0,43,43,5,1
,,,,,,55987,2023-09-28_09h06.29.234,vbt_B2_day2,2022.2.4,Win32,60.5107104,55987,,,,,,,,,,,,,,,,,,,,,,,,,,,,,,,,,,,,,,,,,,lurgen,images/br_lurgen.png,images/cb_lurgen.png,,lurge.,,,,,,,,,,,-0.000925869,-0.333333333,1,0,0,lurge.,0,44,44,29,1
,,,,,,55987,2023-09-28_09h06.29.234,vbt_B2_day2,2022.2.4,Win32,60.5107104,55987,,,,,,,,,,,,,,,,,,,,,,,,,,,,,,,,,,,,,,,,,,geld,images/br_geld.png,images/cb_geld.png,,geld,,,,,,,,,,,0.437037065,-0.109259288,1,0,0,geld,0,45,45,3,1
,,,,,,55987,2023-09-28_09h06.29.234,vbt_B2_day2,2022.2.4,Win32,60.5107104,55987,,,,,,,,,,,,,,,,,,,,,,,,,,,,,,,,,,,,,,,,,,zegel,images/br_zegel.png,images/cb_zegel.png,,zegel,,,,,,,,,,,0.437037065,-0.109259288,1,0,0,zegel,0,46,46,46,1
,,,,,,55987,2023-09-28_09h06.29.234,vbt_B2_day2,2022.2.4,Win32,60.5107104,55987,,,,,,,,,,,,,,,,,,,,,,,,,,,,,,,,,,,,,,,,,,moes,images/br_moes.png,images/cb_moes.png,,moes,,,,,,,,,,,-0.054629601,-0.155555556,1,0,0,moes,0,47,47,0,1
,,,,,,55987,2023-09-28_09h06.29.234,vbt_B2_day2,2022.2.4,Win32,60.5107104,55987,,,,,,,,,,,,,,,,,,,,,,,,,,,,,,,,,,,,,,,,,,breuk,images/br_breuk.png,images/cb_breuk.png,,bre..,,,,,,,,,,,-0.054629601,-0.155555556,1,0,0,bre..,0,48,48,45,1
,,,,,,55987,2023-09-28_09h06.29.234,vbt_B2_day2,2022.2.4,Win32,60.5107104,55987,,,,,,,,,,,,,,,,,,,,,,,,,,,,,,,,,,,,,,,,,,goon,images/br_goon.png,images/cb_goon.png,,goon,,,,,,,,,,,-0.275,0.063888889,1,0,0,goon,0,49,49,23,1
,,,,,,55987,2023-09-28_09h06.29.234,vbt_B2_day2,2022.2.4,Win32,60.5107104,55987,,,,,,,,,,,,,,,,,,,,,,,,,,,,,,,,,,,,,,,,,,kasteel,images/br_kasteel.png,images/cb_kasteel.png,,kasteel,,,,,,,,,,,-0.291666667,-0.032407422,1,0,0,kasteel,0,50,50,14,1
,,,,,,55987,2023-09-28_09h06.29.234,vbt_B2_day2,2022.2.4,Win32,60.5107104,55987,,,,,,,,,,,,,,,,,,,,,,,,,,,,,,,,,,,,,,,,,,toeval,images/br_toeval.png,images/cb_toeval.png,,toev..,,,,,,,,,,,-0.184259245,-0.264814843,1,0,0,toev..,0,51,51,11,1
,,,,,,55987,2023-09-28_09h06.29.234,vbt_B2_day2,2022.2.4,Win32,60.5107104,55987,,,,,,,,,,,,,,,,,,,,,,,,,,,,,,,,,,,,,,,,,,remel,images/br_remel.png,images/cb_remel.png,,remel,,,,,,,,,,,-0.184259245,-0.264814843,1,0,0,remel,0,52,52,25,1
,,,,,,55987,2023-09-28_09h06.29.234,vbt_B2_day2,2022.2.4,Win32,60.5107104,55987,,,,,,,,,,,,,,,,,,,,,,,,,,,,,,,,,,,,,,,,,,sora,images/br_sora.png,images/cb_sora.png,,sora,,,,,,,,,,,0.023148176,-0.309259288,1,0,0,sora,0,53,53,22,1
,,,,,,55987,2023-09-28_09h06.29.234,vbt_B2_day2,2022.2.4,Win32,60.5107104,55987,,,,,,,,,,,,,,,,,,,,,,,,,,,,,,,,,,,,,,,,,,heengeen,images/br_heengeen.png,images/cb_heengeen.png,,,,,,,,,,,,,0.099074131,-0.313888889,1,0,0,,0,54,54,38,1
,,,,,,55987,2023-09-28_09h06.29.234,vbt_B2_day2,2022.2.4,Win32,60.5107104,55987,,,,,,,,,,,,,,,,,,,,,,,,,,,,,,,,,,,,,,,,,,kenzis,images/br_kenzis.png,images/cb_kenzis.png,,kenzi.,,,,,,,,,,,0.099074131,-0.313888889,1,0,0,kenzi.,0,55,55,30,1
,,,,,,55987,2023-09-28_09h06.29.234,vbt_B2_day2,2022.2.4,Win32,60.5107104,55987,,,,,,,,,,,,,,,,,,,,,,,,,,,,,,,,,,,,,,,,,,ningen,images/br_ningen.png,images/cb_ningen.png,,nengin.,,,,,,,,,,,0.099074131,-0.313888889,1,0,0,nengin.,0,56,56,28,1
,,,,,,55987,2023-09-28_09h06.29.234,vbt_B2_day2,2022.2.4,Win32,60.5107104,55987,,,,,,,,,,,,,,,,,,,,,,,,,,,,,,,,,,,,,,,,,,manieren,images/br_manieren.png,images/cb_manieren.png,,manie...,,,,,,,,,,,0.099074131,-0.313888889,1,0,0,manie...,0,57,57,56,1
,,,,,,55987,2023-09-28_09h06.29.234,vbt_B2_day2,2022.2.4,Win32,60.5107104,55987,,,,,,,,,,,,,,,,,,,,,,,,,,,,,,,,,,,,,,,,,,strikken,images/br_strikken.png,images/cb_strikken.png,,stri....,,,,,,,,,,,0.099074131,-0.313888889,1,0,0,stri....,0,58,58,18,1
,,,,,,55987,2023-09-28_09h06.29.234,vbt_B2_day2,2022.2.4,Win32,60.5107104,55987,,,,,,,,,,,,,,,,,,,,,,,,,,,,,,,,,,,,,,,,,,bloeien,images/br_bloeien.png,images/cb_bloeien.png,,bloeien,,,,,,,,,,,0.377777778,-0.322222222,1,0,0,bloeien,0,59,59,12,1
,,,,,,55987,2023-09-28_09h06.29.234,vbt_B2_day2,2022.2.4,Win32,60.5107104,55987,,,,,,,,,,,,,,,,,,,,,,,,,,,,,,,,,,,,,,,,,,,,,,,,,,,,,,,,,,,,,,,,,,,
