welcome_mouse.x,welcome_mouse.y,welcome_mouse.leftButton,welcome_mouse.midButton,welcome_mouse.rightButton,welcome_mouse.time,"ID",date,expName,psychopyVersion,OS,frameRate,refresh_mouse.x,refresh_mouse.y,refresh_mouse.leftButton,refresh_mouse.midButton,refresh_mouse.rightButton,refresh_mouse.time,braille_mouse.x,braille_mouse.y,braille_mouse.leftButton,braille_mouse.midButton,braille_mouse.rightButton,braille_mouse.time,trials.thisRepN,trials.thisTrialN,trials.thisN,trials.thisIndex,trials.ran,nlLet,brLet,cbLet,trainInstr_mouse.x,trainInstr_mouse.y,trainInstr_mouse.leftButton,trainInstr_mouse.midButton,trainInstr_mouse.rightButton,trainInstr_mouse.time,translation_key.keys,translation_key.corr,translation_key.rt,word_rsp.text,word_mouse.x,word_mouse.y,word_mouse.leftButton,word_mouse.midButton,word_mouse.rightButton,word_mouse.time,train_loop.thisRepN,train_loop.thisTrialN,train_loop.thisN,train_loop.thisIndex,train_loop.ran,nlWrd,brWrd,cbWrd,test,testResp,mouse.x,mouse.y,mouse.leftButton,mouse.midButton,mouse.rightButton,testInstr_mouse.x,testInstr_mouse.y,testInstr_mouse.leftButton,testInstr_mouse.midButton,testInstr_mouse.rightButton,test_mouse.x,test_mouse.y,test_mouse.leftButton,test_mouse.midButton,test_mouse.rightButton,test_response.text,test_loop.thisRepN,test_loop.thisTrialN,test_loop.thisN,test_loop.thisIndex,test_loop.ran
-0.149152764,-0.26606642,1,0,0,13.0467,00014,2023-08-31_16h10.03.940,vbt_B2_day2,2022.2.4,MacIntel,60.0024001,,,,,,,,,,,,,,,,,,,,,,,,,,,,,,,,,,,,,,,,,,,,,,,,,,,,,,,,,,,,,,,,,,,
,,,,,,00014,2023-08-31_16h10.03.940,vbt_B2_day2,2022.2.4,MacIntel,60.0024001,-0.149152764,-0.26606642,1,0,0,10.9921,,,,,,,,,,,,,,,,,,,,,,,,,,,,,,,,,,,,,,,,,,,,,,,,,,,,,,,,,,,,,
,,,,,,00014,2023-08-31_16h10.03.940,vbt_B2_day2,2022.2.4,MacIntel,60.0024001,,,,,,,-0.121117215,-0.200314874,1,0,0,0.8338,0,0,0,4,1,e,images/br_e.png,images/cb_e.png,,,,,,,,,,,,,,,,,,,,,,,,,,,,,,,,,,,,,,,,,,,,,,,
,,,,,,00014,2023-08-31_16h10.03.940,vbt_B2_day2,2022.2.4,MacIntel,60.0024001,,,,,,,-0.121117215,-0.200314874,1,0,0,0.8003,0,1,1,0,1,a,images/br_a.png,images/cb_a.png,,,,,,,,,,,,,,,,,,,,,,,,,,,,,,,,,,,,,,,,,,,,,,,
,,,,,,00014,2023-08-31_16h10.03.940,vbt_B2_day2,2022.2.4,MacIntel,60.0024001,,,,,,,-0.121117215,-0.200314874,1,0,0,0.0831,0,2,2,21,1,v,images/br_v.png,images/cb_v.png,,,,,,,,,,,,,,,,,,,,,,,,,,,,,,,,,,,,,,,,,,,,,,,
,,,,,,00014,2023-08-31_16h10.03.940,vbt_B2_day2,2022.2.4,MacIntel,60.0024001,,,,,,,-0.121117215,-0.200314874,1,0,0,0.1659,0,3,3,6,1,g,images/br_g.png,images/cb_g.png,,,,,,,,,,,,,,,,,,,,,,,,,,,,,,,,,,,,,,,,,,,,,,,
,,,,,,00014,2023-08-31_16h10.03.940,vbt_B2_day2,2022.2.4,MacIntel,60.0024001,,,,,,,-0.121117215,-0.200570882,1,0,0,3.1327,0,4,4,2,1,c,images/br_c.png,images/cb_c.png,,,,,,,,,,,,,,,,,,,,,,,,,,,,,,,,,,,,,,,,,,,,,,,
,,,,,,00014,2023-08-31_16h10.03.940,vbt_B2_day2,2022.2.4,MacIntel,60.0024001,,,,,,,0.037251994,-0.131512451,1,0,0,2.301,0,5,5,15,1,p,images/br_p.png,images/cb_p.png,,,,,,,,,,,,,,,,,,,,,,,,,,,,,,,,,,,,,,,,,,,,,,,
,,,,,,00014,2023-08-31_16h10.03.940,vbt_B2_day2,2022.2.4,MacIntel,60.0024001,,,,,,,0.037251994,-0.131768528,1,0,0,2.1333,0,6,6,5,1,f,images/br_f.png,images/cb_f.png,,,,,,,,,,,,,,,,,,,,,,,,,,,,,,,,,,,,,,,,,,,,,,,
,,,,,,00014,2023-08-31_16h10.03.940,vbt_B2_day2,2022.2.4,MacIntel,60.0024001,,,,,,,0.037251994,-0.131768528,1,0,0,5.1168,0,7,7,7,1,h,images/br_h.png,images/cb_h.png,,,,,,,,,,,,,,,,,,,,,,,,,,,,,,,,,,,,,,,,,,,,,,,
,,,,,,00014,2023-08-31_16h10.03.940,vbt_B2_day2,2022.2.4,MacIntel,60.0024001,,,,,,,0.032636787,-0.129496257,1,0,0,0.516,0,8,8,20,1,u,images/br_u.png,images/cb_u.png,,,,,,,,,,,,,,,,,,,,,,,,,,,,,,,,,,,,,,,,,,,,,,,
,,,,,,00014,2023-08-31_16h10.03.940,vbt_B2_day2,2022.2.4,MacIntel,60.0024001,,,,,,,0.032892863,-0.129496257,1,0,0,0.9996,0,9,9,25,1,z,images/br_z.png,images/cb_z.png,,,,,,,,,,,,,,,,,,,,,,,,,,,,,,,,,,,,,,,,,,,,,,,
,,,,,,00014,2023-08-31_16h10.03.940,vbt_B2_day2,2022.2.4,MacIntel,60.0024001,,,,,,,0.032892863,-0.129496257,1,0,0,0.8846,0,10,10,22,1,w,images/br_w.png,images/cb_w.png,,,,,,,,,,,,,,,,,,,,,,,,,,,,,,,,,,,,,,,,,,,,,,,
,,,,,,00014,2023-08-31_16h10.03.940,vbt_B2_day2,2022.2.4,MacIntel,60.0024001,,,,,,,0.032892863,-0.129496257,1,0,0,1.284,0,11,11,12,1,m,images/br_m.png,images/cb_m.png,,,,,,,,,,,,,,,,,,,,,,,,,,,,,,,,,,,,,,,,,,,,,,,
,,,,,,00014,2023-08-31_16h10.03.940,vbt_B2_day2,2022.2.4,MacIntel,60.0024001,,,,,,,0.032892863,-0.129496257,1,0,0,0.3672,0,12,12,14,1,o,images/br_o.png,images/cb_o.png,,,,,,,,,,,,,,,,,,,,,,,,,,,,,,,,,,,,,,,,,,,,,,,
,,,,,,00014,2023-08-31_16h10.03.940,vbt_B2_day2,2022.2.4,MacIntel,60.0024001,,,,,,,0.032892863,-0.129496257,1,0,0,1.9497,0,13,13,13,1,n,images/br_n.png,images/cb_n.png,,,,,,,,,,,,,,,,,,,,,,,,,,,,,,,,,,,,,,,,,,,,,,,
,,,,,,00014,2023-08-31_16h10.03.940,vbt_B2_day2,2022.2.4,MacIntel,60.0024001,,,,,,,0.032892863,-0.129496257,1,0,0,14.484,0,14,14,3,1,d,images/br_d.png,images/cb_d.png,,,,,,,,,,,,,,,,,,,,,,,,,,,,,,,,,,,,,,,,,,,,,,,
,,,,,,00014,2023-08-31_16h10.03.940,vbt_B2_day2,2022.2.4,MacIntel,60.0024001,,,,,,,0.032892863,-0.129496257,1,0,0,1.6176,0,15,15,24,1,y,images/br_y.png,images/cb_y.png,,,,,,,,,,,,,,,,,,,,,,,,,,,,,,,,,,,,,,,,,,,,,,,
,,,,,,00014,2023-08-31_16h10.03.940,vbt_B2_day2,2022.2.4,MacIntel,60.0024001,,,,,,,0.032892863,-0.129496257,1,0,0,0.0836,0,16,16,17,1,r,images/br_r.png,images/cb_r.png,,,,,,,,,,,,,,,,,,,,,,,,,,,,,,,,,,,,,,,,,,,,,,,
,,,,,,00014,2023-08-31_16h10.03.940,vbt_B2_day2,2022.2.4,MacIntel,60.0024001,,,,,,,0.032892863,-0.129496257,1,0,0,1.1994,0,17,17,18,1,s,images/br_s.png,images/cb_s.png,,,,,,,,,,,,,,,,,,,,,,,,,,,,,,,,,,,,,,,,,,,,,,,
,,,,,,00014,2023-08-31_16h10.03.940,vbt_B2_day2,2022.2.4,MacIntel,60.0024001,,,,,,,0.032892863,-0.129496257,1,0,0,4.451,0,18,18,19,1,t,images/br_t.png,images/cb_t.png,,,,,,,,,,,,,,,,,,,,,,,,,,,,,,,,,,,,,,,,,,,,,,,
,,,,,,00014,2023-08-31_16h10.03.940,vbt_B2_day2,2022.2.4,MacIntel,60.0024001,,,,,,,0.032892863,-0.128973796,1,0,0,11.3483,0,19,19,8,1,i,images/br_i.png,images/cb_i.png,,,,,,,,,,,,,,,,,,,,,,,,,,,,,,,,,,,,,,,,,,,,,,,
,,,,,,00014,2023-08-31_16h10.03.940,vbt_B2_day2,2022.2.4,MacIntel,60.0024001,,,,,,,0.032892863,-0.128973796,1,0,0,2.118,0,20,20,23,1,x,images/br_x.png,images/cb_x.png,,,,,,,,,,,,,,,,,,,,,,,,,,,,,,,,,,,,,,,,,,,,,,,
,,,,,,00014,2023-08-31_16h10.03.940,vbt_B2_day2,2022.2.4,MacIntel,60.0024001,,,,,,,0.032892863,-0.128973796,1,0,0,3.0816,0,21,21,16,1,q,images/br_q.png,images/cb_q.png,,,,,,,,,,,,,,,,,,,,,,,,,,,,,,,,,,,,,,,,,,,,,,,
,,,,,,00014,2023-08-31_16h10.03.940,vbt_B2_day2,2022.2.4,MacIntel,60.0024001,,,,,,,0.032892863,-0.128973796,1,0,0,1.1353,0,22,22,10,1,k,images/br_k.png,images/cb_k.png,,,,,,,,,,,,,,,,,,,,,,,,,,,,,,,,,,,,,,,,,,,,,,,
,,,,,,00014,2023-08-31_16h10.03.940,vbt_B2_day2,2022.2.4,MacIntel,60.0024001,,,,,,,0.032892863,-0.128973796,1,0,0,1.784,0,23,23,9,1,j,images/br_j.png,images/cb_j.png,,,,,,,,,,,,,,,,,,,,,,,,,,,,,,,,,,,,,,,,,,,,,,,
,,,,,,00014,2023-08-31_16h10.03.940,vbt_B2_day2,2022.2.4,MacIntel,60.0024001,,,,,,,0.032892863,-0.128973796,1,0,0,0.916,0,24,24,11,1,l,images/br_l.png,images/cb_l.png,,,,,,,,,,,,,,,,,,,,,,,,,,,,,,,,,,,,,,,,,,,,,,,
,,,,,,00014,2023-08-31_16h10.03.940,vbt_B2_day2,2022.2.4,MacIntel,60.0024001,,,,,,,0.032892863,-0.128973796,1,0,0,1.1162,0,25,25,1,1,b,images/br_b.png,images/cb_b.png,,,,,,,,,,,,,,,,,,,,,,,,,,,,,,,,,,,,,,,,,,,,,,,
,,,,,,00014,2023-08-31_16h10.03.940,vbt_B2_day2,2022.2.4,MacIntel,60.0024001,,,,,,,,,,,,,,,,,,,,,0.032892863,-0.128973796,1,0,0,43.5019,,,,,,,,,,,,,,,,,,,,,,,,,,,,,,,,,,,,,,,,,
,,,,,,00014,2023-08-31_16h10.03.940,vbt_B2_day2,2022.2.4,MacIntel,60.0024001,,,,,,,,,,,,,,,,,,,,,,,,,,,down,0,31.1913,,-0.030036011,-0.102346327,1,0,0,6.0992,0,0,0,199,1,beseffen,images/br_beseffen.png,images/cb_beseffen.png,0,,,,,,,,,,,,,,,,,,,,,,
,,,,,,00014,2023-08-31_16h10.03.940,vbt_B2_day2,2022.2.4,MacIntel,60.0024001,,,,,,,,,,,,,,,,,,,,,,,,,,,down,0,18.2717,,-0.027618544,-0.113308648,1,0,0,4.766,0,1,1,85,1,heilig,images/br_heilig.png,images/cb_heilig.png,0,,,,,,,,,,,,,,,,,,,,,,
,,,,,,00014,2023-08-31_16h10.03.940,vbt_B2_day2,2022.2.4,MacIntel,60.0024001,,,,,,,,,,,,,,,,,,,,,,,,,,,down,0,10.559,,-0.020533786,-0.194981215,1,0,0,0.7819,0,2,2,141,1,knielen,images/br_knielen.png,images/cb_knielen.png,0,,,,,,,,,,,,,,,,,,,,,,
,,,,,,00014,2023-08-31_16h10.03.940,vbt_B2_day2,2022.2.4,MacIntel,60.0024001,,,,,,,,,,,,,,,,,,,,,,,,,,,down,0,9.6659,,-0.020533786,-0.194981215,1,0,0,4.3995,0,3,3,27,1,dans,images/br_dans.png,images/cb_dans.png,0,,,,,,,,,,,,,,,,,,,,,,
,,,,,,00014,2023-08-31_16h10.03.940,vbt_B2_day2,2022.2.4,MacIntel,60.0024001,,,,,,,,,,,,,,,,,,,,,,,,,,,down,0,9.1006,,-0.020533786,-0.194981215,1,0,0,2.0496,0,4,4,11,1,mode,images/br_mode.png,images/cb_mode.png,0,,,,,,,,,,,,,,,,,,,,,,
,,,,,,00014,2023-08-31_16h10.03.940,vbt_B2_day2,2022.2.4,MacIntel,60.0024001,,,,,,,,,,,,,,,,,,,,,,,,,,,down,0,16.5326,,-0.020533786,-0.194981215,1,0,0,2.4668,0,5,5,145,1,invloed,images/br_invloed.png,images/cb_invloed.png,0,,,,,,,,,,,,,,,,,,,,,,
,,,,,,00014,2023-08-31_16h10.03.940,vbt_B2_day2,2022.2.4,MacIntel,60.0024001,,,,,,,,,,,,,,,,,,,,,,,,,,,down,0,10.4663,,-0.020533786,-0.194981215,1,0,0,3.9835,0,6,6,43,1,klauw,images/br_klauw.png,images/cb_klauw.png,0,,,,,,,,,,,,,,,,,,,,,,
,,,,,,00014,2023-08-31_16h10.03.940,vbt_B2_day2,2022.2.4,MacIntel,60.0024001,,,,,,,,,,,,,,,,,,,,,,,,,,,down,0,11.7176,,-0.020533786,-0.194981215,1,0,0,1.1667,0,7,7,121,1,twijfel,images/br_twijfel.png,images/cb_twijfel.png,0,,,,,,,,,,,,,,,,,,,,,,
,,,,,,00014,2023-08-31_16h10.03.940,vbt_B2_day2,2022.2.4,MacIntel,60.0024001,,,,,,,,,,,,,,,,,,,,,,,,,,,down,0,10.2834,,-0.020533786,-0.194981215,1,0,0,1.1009,0,8,8,65,1,parel,images/br_parel.png,images/cb_parel.png,0,,,,,,,,,,,,,,,,,,,,,,
,,,,,,00014,2023-08-31_16h10.03.940,vbt_B2_day2,2022.2.4,MacIntel,60.0024001,,,,,,,,,,,,,,,,,,,,,,,,,,,down,0,5.834,,-0.020533786,-0.194981215,1,0,0,2.4835,0,9,9,150,1,gegeven,images/br_gegeven.png,images/cb_gegeven.png,0,,,,,,,,,,,,,,,,,,,,,,
,,,,,,00014,2023-08-31_16h10.03.940,vbt_B2_day2,2022.2.4,MacIntel,60.0024001,,,,,,,,,,,,,,,,,,,,,,,,,,,down,0,3.0179,,-0.020533786,-0.194981215,1,0,0,0.9156,0,10,10,29,1,baas,images/br_baas.png,images/cb_baas.png,0,,,,,,,,,,,,,,,,,,,,,,
,,,,,,00014,2023-08-31_16h10.03.940,vbt_B2_day2,2022.2.4,MacIntel,60.0024001,,,,,,,,,,,,,,,,,,,,,,,,,,,down,0,4.7828,,-0.020533786,-0.194981215,1,0,0,1.3671,0,11,11,73,1,volop,images/br_volop.png,images/cb_volop.png,0,,,,,,,,,,,,,,,,,,,,,,
,,,,,,00014,2023-08-31_16h10.03.940,vbt_B2_day2,2022.2.4,MacIntel,60.0024001,,,,,,,,,,,,,,,,,,,,,,,,,,,down,0,4.7004,,-0.020533786,-0.194981215,1,0,0,1.2669,0,12,12,102,1,legaal,images/br_legaal.png,images/cb_legaal.png,0,,,,,,,,,,,,,,,,,,,,,,
,,,,,,00014,2023-08-31_16h10.03.940,vbt_B2_day2,2022.2.4,MacIntel,60.0024001,,,,,,,,,,,,,,,,,,,,,,,,,,,down,0,16.9178,,-0.020533786,-0.194981215,1,0,0,1.1988,0,13,13,160,1,daarheen,images/br_daarheen.png,images/cb_daarheen.png,0,,,,,,,,,,,,,,,,,,,,,,
,,,,,,00014,2023-08-31_16h10.03.940,vbt_B2_day2,2022.2.4,MacIntel,60.0024001,,,,,,,,,,,,,,,,,,,,,,,,,,,down,0,18.7847,,-0.018939955,-0.193133274,1,0,0,1.5838,0,14,14,132,1,grappen,images/br_grappen.png,images/cb_grappen.png,0,,,,,,,,,,,,,,,,,,,,,,
,,,,,,00014,2023-08-31_16h10.03.940,vbt_B2_day2,2022.2.4,MacIntel,60.0024001,,,,,,,,,,,,,,,,,,,,,,,,,,,down,0,24.334,,0.056226332,-0.102353583,1,0,0,2.6349,0,15,15,135,1,gedicht,images/br_gedicht.png,images/cb_gedicht.png,0,,,,,,,,,,,,,,,,,,,,,,
,,,,,,00014,2023-08-31_16h10.03.940,vbt_B2_day2,2022.2.4,MacIntel,60.0024001,,,,,,,,,,,,,,,,,,,,,,,,,,,down,0,17.4563,,0.056226332,-0.102097575,1,0,0,2.5152,0,16,16,185,1,mijnheer,images/br_mijnheer.png,images/cb_mijnheer.png,0,,,,,,,,,,,,,,,,,,,,,,
,,,,,,00014,2023-08-31_16h10.03.940,vbt_B2_day2,2022.2.4,MacIntel,60.0024001,,,,,,,,,,,,,,,,,,,,,,,,,,,down,0,5.6508,,0.056226332,-0.102097575,1,0,0,1.0511,0,17,17,45,1,piste,images/br_piste.png,images/cb_piste.png,0,,,,,,,,,,,,,,,,,,,,,,
,,,,,,00014,2023-08-31_16h10.03.940,vbt_B2_day2,2022.2.4,MacIntel,60.0024001,,,,,,,,,,,,,,,,,,,,,,,,,,,down,0,9.3175,,0.11488071,-0.141464776,1,0,0,1.5476,0,18,18,59,1,kring,images/br_kring.png,images/cb_kring.png,1,kring,,,,,,,,,,,,,,,,,,,,,
,,,,,,00014,2023-08-31_16h10.03.940,vbt_B2_day2,2022.2.4,MacIntel,60.0024001,,,,,,,,,,,,,,,,,,,,,,,,,,,down,0,35.7169,,0.11488071,-0.141464776,1,0,0,0.7328,0,19,19,173,1,apparaat,images/br_apparaat.png,images/cb_apparaat.png,0,,,,,,,,,,,,,,,,,,,,,,
,,,,,,00014,2023-08-31_16h10.03.940,vbt_B2_day2,2022.2.4,MacIntel,60.0024001,,,,,,,,,,,,,,,,,,,,,,,,,,,down,0,4.9014,,0.11488071,-0.141464776,1,0,0,0.6168,0,20,20,101,1,staren,images/br_staren.png,images/cb_staren.png,0,,,,,,,,,,,,,,,,,,,,,,
,,,,,,00014,2023-08-31_16h10.03.940,vbt_B2_day2,2022.2.4,MacIntel,60.0024001,,,,,,,,,,,,,,,,,,,,,,,,,,,down,0,8.5507,,0.11488071,-0.141464776,1,0,0,1.0168,0,21,21,91,1,gezond,images/br_gezond.png,images/cb_gezond.png,0,,,,,,,,,,,,,,,,,,,,,,
,,,,,,00014,2023-08-31_16h10.03.940,vbt_B2_day2,2022.2.4,MacIntel,60.0024001,,,,,,,,,,,,,,,,,,,,,,,,,,,down,0,5.5004,,0.123052436,-0.162772352,1,0,0,0.818,0,22,22,51,1,samen,images/br_samen.png,images/cb_samen.png,0,,,,,,,,,,,,,,,,,,,,,,
,,,,,,00014,2023-08-31_16h10.03.940,vbt_B2_day2,2022.2.4,MacIntel,60.0024001,,,,,,,,,,,,,,,,,,,,,,,,,,,down,0,6.418,,0.124171346,-0.158711548,1,0,0,0.5848,0,23,23,38,1,baai,images/br_baai.png,images/cb_baai.png,0,,,,,,,,,,,,,,,,,,,,,,
,,,,,,00014,2023-08-31_16h10.03.940,vbt_B2_day2,2022.2.4,MacIntel,60.0024001,,,,,,,,,,,,,,,,,,,,,,,,,,,down,0,4.1362,,0.126099786,-0.163667603,1,0,0,0.7338,0,24,24,37,1,mijn,images/br_mijn.png,images/cb_mijn.png,0,,,,,,,,,,,,,,,,,,,,,,
,,,,,,00014,2023-08-31_16h10.03.940,vbt_B2_day2,2022.2.4,MacIntel,60.0024001,,,,,,,,,,,,,,,,,,,,,,,,,,,down,0,14.2529,,0.131060316,-0.166449992,1,0,0,0.6664,0,25,25,14,1,rijp,images/br_rijp.png,images/cb_rijp.png,0,,,,,,,,,,,,,,,,,,,,,,
,,,,,,00014,2023-08-31_16h10.03.940,vbt_B2_day2,2022.2.4,MacIntel,60.0024001,,,,,,,,,,,,,,,,,,,,,,,,,,,down,0,12.8998,,0.24863227,-0.128280301,1,0,0,0.6841,0,26,26,179,1,woestijn,images/br_woestijn.png,images/cb_woestijn.png,1,woestijn,,,,,,,,,,,,,,,,,,,,,
,,,,,,00014,2023-08-31_16h10.03.940,vbt_B2_day2,2022.2.4,MacIntel,60.0024001,,,,,,,,,,,,,,,,,,,,,,,,,,,down,0,8.1381,,0.24863227,-0.128280301,1,0,0,0.8008,0,27,27,83,1,mening,images/br_mening.png,images/cb_mening.png,0,,,,,,,,,,,,,,,,,,,,,,
,,,,,,00014,2023-08-31_16h10.03.940,vbt_B2_day2,2022.2.4,MacIntel,60.0024001,,,,,,,,,,,,,,,,,,,,,,,,,,,down,0,7.9743,,0.24863227,-0.128280301,1,0,0,0.9952,0,28,28,192,1,schaamte,images/br_schaamte.png,images/cb_schaamte.png,0,,,,,,,,,,,,,,,,,,,,,,
,,,,,,00014,2023-08-31_16h10.03.940,vbt_B2_day2,2022.2.4,MacIntel,60.0024001,,,,,,,,,,,,,,,,,,,,,,,,,,,down,0,13.7001,,0.24863227,-0.128280301,1,0,0,0.5173,0,29,29,146,1,opkomen,images/br_opkomen.png,images/cb_opkomen.png,0,,,,,,,,,,,,,,,,,,,,,,
,,,,,,00014,2023-08-31_16h10.03.940,vbt_B2_day2,2022.2.4,MacIntel,60.0024001,,,,,,,,,,,,,,,,,,,,,,,,,,,down,0,2.7863,,0.24863227,-0.128280301,1,0,0,0.5016,0,30,30,22,1,stof,images/br_stof.png,images/cb_stof.png,0,,,,,,,,,,,,,,,,,,,,,,
,,,,,,00014,2023-08-31_16h10.03.940,vbt_B2_day2,2022.2.4,MacIntel,60.0024001,,,,,,,,,,,,,,,,,,,,,,,,,,,down,0,2.9854,,0.24863227,-0.128280301,1,0,0,0.5673,0,31,31,12,1,kust,images/br_kust.png,images/cb_kust.png,0,,,,,,,,,,,,,,,,,,,,,,
,,,,,,00014,2023-08-31_16h10.03.940,vbt_B2_day2,2022.2.4,MacIntel,60.0024001,,,,,,,,,,,,,,,,,,,,,,,,,,,down,0,1.9685,,0.24863227,-0.128280301,1,0,0,0.6339,0,32,32,36,1,vuur,images/br_vuur.png,images/cb_vuur.png,0,,,,,,,,,,,,,,,,,,,,,,
,,,,,,00014,2023-08-31_16h10.03.940,vbt_B2_day2,2022.2.4,MacIntel,60.0024001,,,,,,,,,,,,,,,,,,,,,,,,,,,down,0,28.7028,,0.24863227,-0.128280301,1,0,0,114.9116,0,33,33,196,1,nakijken,images/br_nakijken.png,images/cb_nakijken.png,0,,,,,,,,,,,,,,,,,,,,,,
,,,,,,00014,2023-08-31_16h10.03.940,vbt_B2_day2,2022.2.4,MacIntel,60.0024001,,,,,,,,,,,,,,,,,,,,,,,,,,,down,0,9.0026,,0.24863227,-0.128280301,1,0,0,0.5333,0,34,34,168,1,bisschop,images/br_bisschop.png,images/cb_bisschop.png,0,,,,,,,,,,,,,,,,,,,,,,
,,,,,,00014,2023-08-31_16h10.03.940,vbt_B2_day2,2022.2.4,MacIntel,60.0024001,,,,,,,,,,,,,,,,,,,,,,,,,,,down,0,9.3713,,0.24863227,-0.128280301,1,0,0,0.5671,0,35,35,124,1,bloeien,images/br_bloeien.png,images/cb_bloeien.png,0,,,,,,,,,,,,,,,,,,,,,,
,,,,,,00014,2023-08-31_16h10.03.940,vbt_B2_day2,2022.2.4,MacIntel,60.0024001,,,,,,,,,,,,,,,,,,,,,,,,,,,down,0,1.5634,,0.24863227,-0.128280301,1,0,0,0.5785,0,36,36,50,1,stoom,images/br_stoom.png,images/cb_stoom.png,0,,,,,,,,,,,,,,,,,,,,,,
,,,,,,00014,2023-08-31_16h10.03.940,vbt_B2_day2,2022.2.4,MacIntel,60.0024001,,,,,,,,,,,,,,,,,,,,,,,,,,,down,0,12.633,,0.24863227,-0.128280301,1,0,0,0.5505,0,37,37,131,1,opzicht,images/br_opzicht.png,images/cb_opzicht.png,0,,,,,,,,,,,,,,,,,,,,,,
,,,,,,00014,2023-08-31_16h10.03.940,vbt_B2_day2,2022.2.4,MacIntel,60.0024001,,,,,,,,,,,,,,,,,,,,,,,,,,,down,0,9.434,,0.24863227,-0.128280301,1,0,0,0.7153,0,38,38,191,1,opheffen,images/br_opheffen.png,images/cb_opheffen.png,0,,,,,,,,,,,,,,,,,,,,,,
,,,,,,00014,2023-08-31_16h10.03.940,vbt_B2_day2,2022.2.4,MacIntel,60.0024001,,,,,,,,,,,,,,,,,,,,,,,,,,,down,0,1.6826,,0.24863227,-0.128280301,1,0,0,0.5673,0,39,39,35,1,lust,images/br_lust.png,images/cb_lust.png,0,,,,,,,,,,,,,,,,,,,,,,
,,,,,,00014,2023-08-31_16h10.03.940,vbt_B2_day2,2022.2.4,MacIntel,60.0024001,,,,,,,,,,,,,,,,,,,,,,,,,,,down,0,5.1192,,0.262754856,-0.123337674,1,0,0,0.5666,0,40,40,57,1,steek,images/br_steek.png,images/cb_steek.png,1,steek,,,,,,,,,,,,,,,,,,,,,
,,,,,,00014,2023-08-31_16h10.03.940,vbt_B2_day2,2022.2.4,MacIntel,60.0024001,,,,,,,,,,,,,,,,,,,,,,,,,,,down,0,6.7177,,0.262754856,-0.123337674,1,0,0,0.5002,0,41,41,109,1,totaal,images/br_totaal.png,images/cb_totaal.png,0,,,,,,,,,,,,,,,,,,,,,,
,,,,,,00014,2023-08-31_16h10.03.940,vbt_B2_day2,2022.2.4,MacIntel,60.0024001,,,,,,,,,,,,,,,,,,,,,,,,,,,down,0,3.1858,,0.262754856,-0.123337674,1,0,0,0.433,0,42,42,2,1,jaar,images/br_jaar.png,images/cb_jaar.png,0,,,,,,,,,,,,,,,,,,,,,,
,,,,,,00014,2023-08-31_16h10.03.940,vbt_B2_day2,2022.2.4,MacIntel,60.0024001,,,,,,,,,,,,,,,,,,,,,,,,,,,down,0,0.1677,,0.262754856,-0.123337674,1,0,0,2.3662,0,43,43,78,1,leren,images/br_leren.png,images/cb_leren.png,0,,,,,,,,,,,,,,,,,,,,,,
,,,,,,00014,2023-08-31_16h10.03.940,vbt_B2_day2,2022.2.4,MacIntel,60.0024001,,,,,,,,,,,,,,,,,,,,,,,,,,,down,0,5.8345,,0.262754856,-0.123337674,1,0,0,0.5504,0,44,44,95,1,vreten,images/br_vreten.png,images/cb_vreten.png,0,,,,,,,,,,,,,,,,,,,,,,
,,,,,,00014,2023-08-31_16h10.03.940,vbt_B2_day2,2022.2.4,MacIntel,60.0024001,,,,,,,,,,,,,,,,,,,,,,,,,,,down,0,7.151,,0.262754856,-0.123337674,1,0,0,0.6831,0,45,45,198,1,bedoelen,images/br_bedoelen.png,images/cb_bedoelen.png,0,,,,,,,,,,,,,,,,,,,,,,
,,,,,,00014,2023-08-31_16h10.03.940,vbt_B2_day2,2022.2.4,MacIntel,60.0024001,,,,,,,,,,,,,,,,,,,,,,,,,,,down,0,12.7826,,0.262754856,-0.123337674,1,0,0,0.6164,0,46,46,177,1,maaltijd,images/br_maaltijd.png,images/cb_maaltijd.png,1,maaltijd,,,,,,,,,,,,,,,,,,,,,
,,,,,,00014,2023-08-31_16h10.03.940,vbt_B2_day2,2022.2.4,MacIntel,60.0024001,,,,,,,,,,,,,,,,,,,,,,,,,,,down,0,6.6168,,0.262754856,-0.123337674,1,0,0,0.5671,0,47,47,110,1,zuster,images/br_zuster.png,images/cb_zuster.png,0,,,,,,,,,,,,,,,,,,,,,,
,,,,,,00014,2023-08-31_16h10.03.940,vbt_B2_day2,2022.2.4,MacIntel,60.0024001,,,,,,,,,,,,,,,,,,,,,,,,,,,down,0,4.5346,,0.262754856,-0.123337674,1,0,0,0.6164,0,48,48,8,1,knie,images/br_knie.png,images/cb_knie.png,0,,,,,,,,,,,,,,,,,,,,,,
,,,,,,00014,2023-08-31_16h10.03.940,vbt_B2_day2,2022.2.4,MacIntel,60.0024001,,,,,,,,,,,,,,,,,,,,,,,,,,,down,0,1.4522,,0.262754856,-0.123337674,1,0,0,0.5999,0,49,49,114,1,vullen,images/br_vullen.png,images/cb_vullen.png,0,,,,,,,,,,,,,,,,,,,,,,
,,,,,,00014,2023-08-31_16h10.03.940,vbt_B2_day2,2022.2.4,MacIntel,60.0024001,,,,,,,,,,,,,,,,,,,,,,,,,,,down,0,1.8186,,0.262754856,-0.123337674,1,0,0,0.5838,0,50,50,25,1,plek,images/br_plek.png,images/cb_plek.png,0,,,,,,,,,,,,,,,,,,,,,,
,,,,,,00014,2023-08-31_16h10.03.940,vbt_B2_day2,2022.2.4,MacIntel,60.0024001,,,,,,,,,,,,,,,,,,,,,,,,,,,down,0,4.4182,,0.262754856,-0.123337674,1,0,0,1.4006,0,51,51,26,1,leuk,images/br_leuk.png,images/cb_leuk.png,0,,,,,,,,,,,,,,,,,,,,,,
,,,,,,00014,2023-08-31_16h10.03.940,vbt_B2_day2,2022.2.4,MacIntel,60.0024001,,,,,,,,,,,,,,,,,,,,,,,,,,,down,0,15.4889,,0.262754856,-0.123337674,1,0,0,0.6663,0,52,52,147,1,komisch,images/br_komisch.png,images/cb_komisch.png,0,,,,,,,,,,,,,,,,,,,,,,
,,,,,,00014,2023-08-31_16h10.03.940,vbt_B2_day2,2022.2.4,MacIntel,60.0024001,,,,,,,,,,,,,,,,,,,,,,,,,,,down,0,9.0176,,0.262754856,-0.123337674,1,0,0,1.3828,0,53,53,167,1,eenhoorn,images/br_eenhoorn.png,images/cb_eenhoorn.png,0,,,,,,,,,,,,,,,,,,,,,,
,,,,,,00014,2023-08-31_16h10.03.940,vbt_B2_day2,2022.2.4,MacIntel,60.0024001,,,,,,,,,,,,,,,,,,,,,,,,,,,down,0,8.1009,,0.262754856,-0.123337674,1,0,0,0.6004,0,54,54,189,1,aanraden,images/br_aanraden.png,images/cb_aanraden.png,0,,,,,,,,,,,,,,,,,,,,,,
,,,,,,00014,2023-08-31_16h10.03.940,vbt_B2_day2,2022.2.4,MacIntel,60.0024001,,,,,,,,,,,,,,,,,,,,,,,,,,,down,0,5.7845,,0.262754856,-0.123337674,1,0,0,0.4842,0,55,55,72,1,strak,images/br_strak.png,images/cb_strak.png,0,,,,,,,,,,,,,,,,,,,,,,
,,,,,,00014,2023-08-31_16h10.03.940,vbt_B2_day2,2022.2.4,MacIntel,60.0024001,,,,,,,,,,,,,,,,,,,,,,,,,,,down,0,3.052,,0.262754856,-0.123337674,1,0,0,0.5182,0,56,56,106,1,zingen,images/br_zingen.png,images/cb_zingen.png,0,,,,,,,,,,,,,,,,,,,,,,
,,,,,,00014,2023-08-31_16h10.03.940,vbt_B2_day2,2022.2.4,MacIntel,60.0024001,,,,,,,,,,,,,,,,,,,,,,,,,,,down,0,9.3173,,0.262754856,-0.123337674,1,0,0,0.6325,0,57,57,137,1,trekker,images/br_trekker.png,images/cb_trekker.png,1,trekker,,,,,,,,,,,,,,,,,,,,,
,,,,,,00014,2023-08-31_16h10.03.940,vbt_B2_day2,2022.2.4,MacIntel,60.0024001,,,,,,,,,,,,,,,,,,,,,,,,,,,down,0,5.2429,,0.24709866,-0.138471069,1,0,0,0.4142,0,58,58,75,1,snoep,images/br_snoep.png,images/cb_snoep.png,0,,,,,,,,,,,,,,,,,,,,,,
,,,,,,00014,2023-08-31_16h10.03.940,vbt_B2_day2,2022.2.4,MacIntel,60.0024001,,,,,,,,,,,,,,,,,,,,,,,,,,,down,0,3.0837,,0.246543104,-0.138241848,1,0,0,0.5161,0,59,59,81,1,dubbel,images/br_dubbel.png,images/cb_dubbel.png,0,,,,,,,,,,,,,,,,,,,,,,
,,,,,,00014,2023-08-31_16h10.03.940,vbt_B2_day2,2022.2.4,MacIntel,60.0024001,,,,,,,,,,,,,,,,,,,,,,,,,,,down,0,5.9515,,0.246543104,-0.138241848,1,0,0,0.5338,0,60,60,103,1,joggen,images/br_joggen.png,images/cb_joggen.png,0,,,,,,,,,,,,,,,,,,,,,,
,,,,,,00014,2023-08-31_16h10.03.940,vbt_B2_day2,2022.2.4,MacIntel,60.0024001,,,,,,,,,,,,,,,,,,,,,,,,,,,down,0,2.7999,,0.246543104,-0.138241848,1,0,0,0.5168,0,61,61,115,1,kleren,images/br_kleren.png,images/cb_kleren.png,0,,,,,,,,,,,,,,,,,,,,,,
,,,,,,00014,2023-08-31_16h10.03.940,vbt_B2_day2,2022.2.4,MacIntel,60.0024001,,,,,,,,,,,,,,,,,,,,,,,,,,,down,0,3.1211,,0.246543104,-0.138241848,1,0,0,0.5988,0,62,62,89,1,slapen,images/br_slapen.png,images/cb_slapen.png,0,,,,,,,,,,,,,,,,,,,,,,
,,,,,,00014,2023-08-31_16h10.03.940,vbt_B2_day2,2022.2.4,MacIntel,60.0024001,,,,,,,,,,,,,,,,,,,,,,,,,,,down,0,5.3548,,0.246543104,-0.138241848,1,0,0,0.6975,0,63,63,24,1,jurk,images/br_jurk.png,images/cb_jurk.png,0,,,,,,,,,,,,,,,,,,,,,,
,,,,,,00014,2023-08-31_16h10.03.940,vbt_B2_day2,2022.2.4,MacIntel,60.0024001,,,,,,,,,,,,,,,,,,,,,,,,,,,down,0,2.469,,0.246543104,-0.138241848,1,0,0,1.6332,0,64,64,52,1,wagon,images/br_wagon.png,images/cb_wagon.png,0,,,,,,,,,,,,,,,,,,,,,,
,,,,,,00014,2023-08-31_16h10.03.940,vbt_B2_day2,2022.2.4,MacIntel,60.0024001,,,,,,,,,,,,,,,,,,,,,,,,,,,down,0,5.3173,,0.246543104,-0.138241848,1,0,0,0.5339,0,65,65,166,1,strikken,images/br_strikken.png,images/cb_strikken.png,0,,,,,,,,,,,,,,,,,,,,,,
,,,,,,00014,2023-08-31_16h10.03.940,vbt_B2_day2,2022.2.4,MacIntel,60.0024001,,,,,,,,,,,,,,,,,,,,,,,,,,,down,0,6.8005,,0.246543104,-0.138241848,1,0,0,0.5664,0,66,66,77,1,woede,images/br_woede.png,images/cb_woede.png,0,,,,,,,,,,,,,,,,,,,,,,
,,,,,,00014,2023-08-31_16h10.03.940,vbt_B2_day2,2022.2.4,MacIntel,60.0024001,,,,,,,,,,,,,,,,,,,,,,,,,,,down,0,17.9861,,0.246543104,-0.138241848,1,0,0,1.6175,0,67,67,108,1,excuus,images/br_excuus.png,images/cb_excuus.png,0,,,,,,,,,,,,,,,,,,,,,,
,,,,,,00014,2023-08-31_16h10.03.940,vbt_B2_day2,2022.2.4,MacIntel,60.0024001,,,,,,,,,,,,,,,,,,,,,,,,,,,down,0,2.7328,,0.246543104,-0.138241848,1,0,0,0.617,0,68,68,104,1,zweven,images/br_zweven.png,images/cb_zweven.png,0,,,,,,,,,,,,,,,,,,,,,,
,,,,,,00014,2023-08-31_16h10.03.940,vbt_B2_day2,2022.2.4,MacIntel,60.0024001,,,,,,,,,,,,,,,,,,,,,,,,,,,down,0,0.7001,,0.246543104,-0.138241848,1,0,0,0.6314,0,69,69,7,1,geld,images/br_geld.png,images/cb_geld.png,0,,,,,,,,,,,,,,,,,,,,,,
,,,,,,00014,2023-08-31_16h10.03.940,vbt_B2_day2,2022.2.4,MacIntel,60.0024001,,,,,,,,,,,,,,,,,,,,,,,,,,,down,0,0.8306,,0.246543104,-0.138241848,1,0,0,0.5663,0,70,70,4,1,moes,images/br_moes.png,images/cb_moes.png,0,,,,,,,,,,,,,,,,,,,,,,
,,,,,,00014,2023-08-31_16h10.03.940,vbt_B2_day2,2022.2.4,MacIntel,60.0024001,,,,,,,,,,,,,,,,,,,,,,,,,,,down,0,6.8362,,0.246543104,-0.138241848,1,0,0,0.6503,0,71,71,63,1,flirt,images/br_flirt.png,images/cb_flirt.png,0,,,,,,,,,,,,,,,,,,,,,,
,,,,,,00014,2023-08-31_16h10.03.940,vbt_B2_day2,2022.2.4,MacIntel,60.0024001,,,,,,,,,,,,,,,,,,,,,,,,,,,down,0,5.8987,,0.246543104,-0.138241848,1,0,0,0.6347,0,72,72,40,1,schep,images/br_schep.png,images/cb_schep.png,0,,,,,,,,,,,,,,,,,,,,,,
,,,,,,00014,2023-08-31_16h10.03.940,vbt_B2_day2,2022.2.4,MacIntel,60.0024001,,,,,,,,,,,,,,,,,,,,,,,,,,,down,0,10.5641,,0.246543104,-0.13798584,1,0,0,0.651,0,73,73,79,1,nodig,images/br_nodig.png,images/cb_nodig.png,0,,,,,,,,,,,,,,,,,,,,,,
,,,,,,00014,2023-08-31_16h10.03.940,vbt_B2_day2,2022.2.4,MacIntel,60.0024001,,,,,,,,,,,,,,,,,,,,,,,,,,,down,0,10.9846,,0.246543104,-0.13798584,1,0,0,0.4995,0,74,74,123,1,hiervan,images/br_hiervan.png,images/cb_hiervan.png,0,,,,,,,,,,,,,,,,,,,,,,
,,,,,,00014,2023-08-31_16h10.03.940,vbt_B2_day2,2022.2.4,MacIntel,60.0024001,,,,,,,,,,,,,,,,,,,,,,,,,,,down,0,3.1831,,0.246543104,-0.13798584,1,0,0,0.5507,0,75,75,125,1,aanzien,images/br_aanzien.png,images/cb_aanzien.png,0,,,,,,,,,,,,,,,,,,,,,,
,,,,,,00014,2023-08-31_16h10.03.940,vbt_B2_day2,2022.2.4,MacIntel,60.0024001,,,,,,,,,,,,,,,,,,,,,,,,,,,down,0,9.4008,,0.246543104,-0.13798584,1,0,0,0.4852,0,76,76,67,1,zwart,images/br_zwart.png,images/cb_zwart.png,0,,,,,,,,,,,,,,,,,,,,,,
,,,,,,00014,2023-08-31_16h10.03.940,vbt_B2_day2,2022.2.4,MacIntel,60.0024001,,,,,,,,,,,,,,,,,,,,,,,,,,,down,0,3.7529,,0.246543104,-0.13798584,1,0,0,0.5491,0,77,77,169,1,oprotten,images/br_oprotten.png,images/cb_oprotten.png,0,,,,,,,,,,,,,,,,,,,,,,
,,,,,,00014,2023-08-31_16h10.03.940,vbt_B2_day2,2022.2.4,MacIntel,60.0024001,,,,,,,,,,,,,,,,,,,,,,,,,,,down,0,9.7015,,0.246543104,-0.13798584,1,0,0,0.5657,0,78,78,193,1,weeshuis,images/br_weeshuis.png,images/cb_weeshuis.png,0,,,,,,,,,,,,,,,,,,,,,,
,,,,,,00014,2023-08-31_16h10.03.940,vbt_B2_day2,2022.2.4,MacIntel,60.0024001,,,,,,,,,,,,,,,,,,,,,,,,,,,down,0,1.4524,,0.246543104,-0.13798584,1,0,0,0.6331,0,79,79,48,1,steel,images/br_steel.png,images/cb_steel.png,0,,,,,,,,,,,,,,,,,,,,,,
,,,,,,00014,2023-08-31_16h10.03.940,vbt_B2_day2,2022.2.4,MacIntel,60.0024001,,,,,,,,,,,,,,,,,,,,,,,,,,,down,0,3.9363,,0.246543104,-0.13798584,1,0,0,0.5838,0,80,80,134,1,geliefd,images/br_geliefd.png,images/cb_geliefd.png,0,,,,,,,,,,,,,,,,,,,,,,
,,,,,,00014,2023-08-31_16h10.03.940,vbt_B2_day2,2022.2.4,MacIntel,60.0024001,,,,,,,,,,,,,,,,,,,,,,,,,,,down,0,1.4693,,0.246543104,-0.13798584,1,0,0,0.7844,0,81,81,0,1,slak,images/br_slak.png,images/cb_slak.png,0,,,,,,,,,,,,,,,,,,,,,,
,,,,,,00014,2023-08-31_16h10.03.940,vbt_B2_day2,2022.2.4,MacIntel,60.0024001,,,,,,,,,,,,,,,,,,,,,,,,,,,down,0,12.8855,,0.246543104,-0.13798584,1,0,0,0.568,0,82,82,164,1,anarchie,images/br_anarchie.png,images/cb_anarchie.png,0,,,,,,,,,,,,,,,,,,,,,,
,,,,,,00014,2023-08-31_16h10.03.940,vbt_B2_day2,2022.2.4,MacIntel,60.0024001,,,,,,,,,,,,,,,,,,,,,,,,,,,down,0,5.4185,,0.246543104,-0.13798584,1,0,0,0.5674,0,83,83,69,1,waken,images/br_waken.png,images/cb_waken.png,0,,,,,,,,,,,,,,,,,,,,,,
,,,,,,00014,2023-08-31_16h10.03.940,vbt_B2_day2,2022.2.4,MacIntel,60.0024001,,,,,,,,,,,,,,,,,,,,,,,,,,,down,0,22.0863,,0.246543104,-0.13798584,1,0,0,1.0958,0,84,84,152,1,afnemen,images/br_afnemen.png,images/cb_afnemen.png,0,,,,,,,,,,,,,,,,,,,,,,
,,,,,,00014,2023-08-31_16h10.03.940,vbt_B2_day2,2022.2.4,MacIntel,60.0024001,,,,,,,,,,,,,,,,,,,,,,,,,,,down,0,4.0194,,0.246543104,-0.13798584,1,0,0,0.6168,0,85,85,149,1,redding,images/br_redding.png,images/cb_redding.png,0,,,,,,,,,,,,,,,,,,,,,,
,,,,,,00014,2023-08-31_16h10.03.940,vbt_B2_day2,2022.2.4,MacIntel,60.0024001,,,,,,,,,,,,,,,,,,,,,,,,,,,down,0,3.7357,,0.246543104,-0.13798584,1,0,0,0.6329,0,86,86,100,1,geduld,images/br_geduld.png,images/cb_geduld.png,0,,,,,,,,,,,,,,,,,,,,,,
,,,,,,00014,2023-08-31_16h10.03.940,vbt_B2_day2,2022.2.4,MacIntel,60.0024001,,,,,,,,,,,,,,,,,,,,,,,,,,,down,0,5.6347,,0.246543104,-0.13798584,1,0,0,0.6008,0,87,87,76,1,afval,images/br_afval.png,images/cb_afval.png,0,,,,,,,,,,,,,,,,,,,,,,
,,,,,,00014,2023-08-31_16h10.03.940,vbt_B2_day2,2022.2.4,MacIntel,60.0024001,,,,,,,,,,,,,,,,,,,,,,,,,,,down,0,14.49,,0.246543104,-0.13798584,1,0,0,1.5337,0,88,88,116,1,besmet,images/br_besmet.png,images/cb_besmet.png,0,,,,,,,,,,,,,,,,,,,,,,
,,,,,,00014,2023-08-31_16h10.03.940,vbt_B2_day2,2022.2.4,MacIntel,60.0024001,,,,,,,,,,,,,,,,,,,,,,,,,,,down,0,10.929,,0.246543104,-0.13798584,1,0,0,0.9942,0,89,89,155,1,gerucht,images/br_gerucht.png,images/cb_gerucht.png,0,,,,,,,,,,,,,,,,,,,,,,
,,,,,,00014,2023-08-31_16h10.03.940,vbt_B2_day2,2022.2.4,MacIntel,60.0024001,,,,,,,,,,,,,,,,,,,,,,,,,,,down,0,9.102,,0.246543104,-0.138505656,1,0,0,1.0662,0,90,90,163,1,schuilen,images/br_schuilen.png,images/cb_schuilen.png,0,,,,,,,,,,,,,,,,,,,,,,
,,,,,,00014,2023-08-31_16h10.03.940,vbt_B2_day2,2022.2.4,MacIntel,60.0024001,,,,,,,,,,,,,,,,,,,,,,,,,,,down,0,0.5024,,0.246543104,-0.138505656,1,0,0,0.5838,0,91,91,112,1,lukken,images/br_lukken.png,images/cb_lukken.png,0,,,,,,,,,,,,,,,,,,,,,,
,,,,,,00014,2023-08-31_16h10.03.940,vbt_B2_day2,2022.2.4,MacIntel,60.0024001,,,,,,,,,,,,,,,,,,,,,,,,,,,down,0,10.9193,,0.246543104,-0.138505656,1,0,0,0.4002,0,92,92,139,1,stiekem,images/br_stiekem.png,images/cb_stiekem.png,1,stiekem,,,,,,,,,,,,,,,,,,,,,
,,,,,,00014,2023-08-31_16h10.03.940,vbt_B2_day2,2022.2.4,MacIntel,60.0024001,,,,,,,,,,,,,,,,,,,,,,,,,,,down,0,28.8579,,0.246543104,-0.138505656,1,0,0,3.2827,0,93,93,130,1,keihard,images/br_keihard.png,images/cb_keihard.png,0,,,,,,,,,,,,,,,,,,,,,,
,,,,,,00014,2023-08-31_16h10.03.940,vbt_B2_day2,2022.2.4,MacIntel,60.0024001,,,,,,,,,,,,,,,,,,,,,,,,,,,down,0,5.9666,,0.246543104,-0.139018487,1,0,0,3.3665,0,94,94,87,1,toeval,images/br_toeval.png,images/cb_toeval.png,0,,,,,,,,,,,,,,,,,,,,,,
,,,,,,00014,2023-08-31_16h10.03.940,vbt_B2_day2,2022.2.4,MacIntel,60.0024001,,,,,,,,,,,,,,,,,,,,,,,,,,,down,0,4.9218,,0.246543104,-0.139018487,1,0,0,3.334,0,95,95,158,1,innemen,images/br_innemen.png,images/cb_innemen.png,0,,,,,,,,,,,,,,,,,,,,,,
,,,,,,00014,2023-08-31_16h10.03.940,vbt_B2_day2,2022.2.4,MacIntel,60.0024001,,,,,,,,,,,,,,,,,,,,,,,,,,,down,0,11.2732,,0.246799113,-0.139018487,1,0,0,2.2176,0,96,96,190,1,goedkoop,images/br_goedkoop.png,images/cb_goedkoop.png,0,,,,,,,,,,,,,,,,,,,,,,
,,,,,,00014,2023-08-31_16h10.03.940,vbt_B2_day2,2022.2.4,MacIntel,60.0024001,,,,,,,,,,,,,,,,,,,,,,,,,,,down,0,3.3386,,0.246799113,-0.139018487,1,0,0,0.5169,0,97,97,172,1,weigeren,images/br_weigeren.png,images/cb_weigeren.png,0,,,,,,,,,,,,,,,,,,,,,,
,,,,,,00014,2023-08-31_16h10.03.940,vbt_B2_day2,2022.2.4,MacIntel,60.0024001,,,,,,,,,,,,,,,,,,,,,,,,,,,down,0,8.2413,,0.246799113,-0.139018487,1,0,0,0.4327,0,98,98,180,1,openbaar,images/br_openbaar.png,images/cb_openbaar.png,0,,,,,,,,,,,,,,,,,,,,,,
,,,,,,00014,2023-08-31_16h10.03.940,vbt_B2_day2,2022.2.4,MacIntel,60.0024001,,,,,,,,,,,,,,,,,,,,,,,,,,,down,0,5.5837,,0.246799113,-0.139018487,1,0,0,0.4157,0,99,99,128,1,prikken,images/br_prikken.png,images/cb_prikken.png,0,,,,,,,,,,,,,,,,,,,,,,
,,,,,,00014,2023-08-31_16h10.03.940,vbt_B2_day2,2022.2.4,MacIntel,60.0024001,,,,,,,,,,,,,,,,,,,,,,,,,,,down,0,4.6017,,0.246799113,-0.139018487,1,0,0,0.5829,0,100,100,18,1,blik,images/br_blik.png,images/cb_blik.png,1,blik,,,,,,,,,,,,,,,,,,,,,
,,,,,,00014,2023-08-31_16h10.03.940,vbt_B2_day2,2022.2.4,MacIntel,60.0024001,,,,,,,,,,,,,,,,,,,,,,,,,,,down,0,1.2012,,0.246799113,-0.139018487,1,0,0,1.0486,0,101,101,71,1,bever,images/br_bever.png,images/cb_bever.png,0,,,,,,,,,,,,,,,,,,,,,,
,,,,,,00014,2023-08-31_16h10.03.940,vbt_B2_day2,2022.2.4,MacIntel,60.0024001,,,,,,,,,,,,,,,,,,,,,,,,,,,down,0,0.2177,,0.246799113,-0.139018487,1,0,0,0.4832,0,102,102,1,1,zaal,images/br_zaal.png,images/cb_zaal.png,0,,,,,,,,,,,,,,,,,,,,,,
,,,,,,00014,2023-08-31_16h10.03.940,vbt_B2_day2,2022.2.4,MacIntel,60.0024001,,,,,,,,,,,,,,,,,,,,,,,,,,,down,0,3.3701,,0.246799113,-0.139018487,1,0,0,0.5008,0,103,103,175,1,heengaan,images/br_heengaan.png,images/cb_heengaan.png,0,,,,,,,,,,,,,,,,,,,,,,
,,,,,,00014,2023-08-31_16h10.03.940,vbt_B2_day2,2022.2.4,MacIntel,60.0024001,,,,,,,,,,,,,,,,,,,,,,,,,,,down,0,11.5704,,0.246799113,-0.139018487,1,0,0,0.4163,0,104,104,98,1,kreeft,images/br_kreeft.png,images/cb_kreeft.png,1,kreeft,,,,,,,,,,,,,,,,,,,,,
,,,,,,00014,2023-08-31_16h10.03.940,vbt_B2_day2,2022.2.4,MacIntel,60.0024001,,,,,,,,,,,,,,,,,,,,,,,,,,,down,0,11.1829,,0.246799113,-0.139018487,1,0,0,0.6163,0,105,105,156,1,rechten,images/br_rechten.png,images/cb_rechten.png,0,,,,,,,,,,,,,,,,,,,,,,
,,,,,,00014,2023-08-31_16h10.03.940,vbt_B2_day2,2022.2.4,MacIntel,60.0024001,,,,,,,,,,,,,,,,,,,,,,,,,,,down,0,6.7908,,0.246799113,-0.139018487,1,0,0,0.5337,0,106,106,99,1,koffie,images/br_koffie.png,images/cb_koffie.png,1,koffie,,,,,,,,,,,,,,,,,,,,,
,,,,,,00014,2023-08-31_16h10.03.940,vbt_B2_day2,2022.2.4,MacIntel,60.0024001,,,,,,,,,,,,,,,,,,,,,,,,,,,down,0,5.7846,,0.246799113,-0.139018487,1,0,0,0.7606,0,107,107,60,1,jasje,images/br_jasje.png,images/cb_jasje.png,0,,,,,,,,,,,,,,,,,,,,,,
,,,,,,00014,2023-08-31_16h10.03.940,vbt_B2_day2,2022.2.4,MacIntel,60.0024001,,,,,,,,,,,,,,,,,,,,,,,,,,,down,0,2.3671,,0.246799113,-0.139018487,1,0,0,0.4013,0,108,108,61,1,groen,images/br_groen.png,images/cb_groen.png,0,,,,,,,,,,,,,,,,,,,,,,
,,,,,,00014,2023-08-31_16h10.03.940,vbt_B2_day2,2022.2.4,MacIntel,60.0024001,,,,,,,,,,,,,,,,,,,,,,,,,,,down,0,1.0524,,0.246799113,-0.139018487,1,0,0,0.4349,0,109,109,86,1,woning,images/br_woning.png,images/cb_woning.png,0,,,,,,,,,,,,,,,,,,,,,,
,,,,,,00014,2023-08-31_16h10.03.940,vbt_B2_day2,2022.2.4,MacIntel,60.0024001,,,,,,,,,,,,,,,,,,,,,,,,,,,down,0,2.3676,,0.246799113,-0.139018487,1,0,0,0.4667,0,110,110,39,1,laag,images/br_laag.png,images/cb_laag.png,0,,,,,,,,,,,,,,,,,,,,,,
,,,,,,00014,2023-08-31_16h10.03.940,vbt_B2_day2,2022.2.4,MacIntel,60.0024001,,,,,,,,,,,,,,,,,,,,,,,,,,,down,0,1.452,,0.246799113,-0.139018487,1,0,0,0.4999,0,111,111,171,1,aarzelen,images/br_aarzelen.png,images/cb_aarzelen.png,0,,,,,,,,,,,,,,,,,,,,,,
,,,,,,00014,2023-08-31_16h10.03.940,vbt_B2_day2,2022.2.4,MacIntel,60.0024001,,,,,,,,,,,,,,,,,,,,,,,,,,,down,0,4.134,,0.246799113,-0.139018487,1,0,0,0.9336,0,112,112,30,1,uien,images/br_uien.png,images/cb_uien.png,0,,,,,,,,,,,,,,,,,,,,,,
,,,,,,00014,2023-08-31_16h10.03.940,vbt_B2_day2,2022.2.4,MacIntel,60.0024001,,,,,,,,,,,,,,,,,,,,,,,,,,,down,0,2.6507,,0.246799113,-0.139018487,1,0,0,0.468,0,113,113,5,1,blad,images/br_blad.png,images/cb_blad.png,0,,,,,,,,,,,,,,,,,,,,,,
,,,,,,00014,2023-08-31_16h10.03.940,vbt_B2_day2,2022.2.4,MacIntel,60.0024001,,,,,,,,,,,,,,,,,,,,,,,,,,,down,0,3.384,,0.246799113,-0.139018487,1,0,0,0.5837,0,114,114,107,1,maling,images/br_maling.png,images/cb_maling.png,0,,,,,,,,,,,,,,,,,,,,,,
,,,,,,00014,2023-08-31_16h10.03.940,vbt_B2_day2,2022.2.4,MacIntel,60.0024001,,,,,,,,,,,,,,,,,,,,,,,,,,,down,0,8.4347,,0.246799113,-0.139018487,1,0,0,0.4166,0,115,115,129,1,verhaal,images/br_verhaal.png,images/cb_verhaal.png,0,,,,,,,,,,,,,,,,,,,,,,
,,,,,,00014,2023-08-31_16h10.03.940,vbt_B2_day2,2022.2.4,MacIntel,60.0024001,,,,,,,,,,,,,,,,,,,,,,,,,,,down,0,5.5333,,0.246799113,-0.139018487,1,0,0,0.4839,0,116,116,154,1,aflopen,images/br_aflopen.png,images/cb_aflopen.png,0,,,,,,,,,,,,,,,,,,,,,,
,,,,,,00014,2023-08-31_16h10.03.940,vbt_B2_day2,2022.2.4,MacIntel,60.0024001,,,,,,,,,,,,,,,,,,,,,,,,,,,down,0,2.6004,,0.246799113,-0.139018487,1,0,0,0.5335,0,117,117,188,1,strekken,images/br_strekken.png,images/cb_strekken.png,0,,,,,,,,,,,,,,,,,,,,,,
,,,,,,00014,2023-08-31_16h10.03.940,vbt_B2_day2,2022.2.4,MacIntel,60.0024001,,,,,,,,,,,,,,,,,,,,,,,,,,,down,0,0.9839,,0.246799113,-0.139018487,1,0,0,0.5167,0,118,118,13,1,kaal,images/br_kaal.png,images/cb_kaal.png,0,,,,,,,,,,,,,,,,,,,,,,
,,,,,,00014,2023-08-31_16h10.03.940,vbt_B2_day2,2022.2.4,MacIntel,60.0024001,,,,,,,,,,,,,,,,,,,,,,,,,,,down,0,4.1038,,0.246799113,-0.139018487,1,0,0,0.4346,0,119,119,151,1,aanzoek,images/br_aanzoek.png,images/cb_aanzoek.png,0,,,,,,,,,,,,,,,,,,,,,,
,,,,,,00014,2023-08-31_16h10.03.940,vbt_B2_day2,2022.2.4,MacIntel,60.0024001,,,,,,,,,,,,,,,,,,,,,,,,,,,down,0,19.7832,,0.246799113,-0.139018487,1,0,0,0.5167,0,120,120,165,1,feestdag,images/br_feestdag.png,images/cb_feestdag.png,0,,,,,,,,,,,,,,,,,,,,,,
,,,,,,00014,2023-08-31_16h10.03.940,vbt_B2_day2,2022.2.4,MacIntel,60.0024001,,,,,,,,,,,,,,,,,,,,,,,,,,,down,0,8.3167,,0.246799113,-0.139018487,1,0,0,0.4495,0,121,121,195,1,middelen,images/br_middelen.png,images/cb_middelen.png,0,,,,,,,,,,,,,,,,,,,,,,
,,,,,,00014,2023-08-31_16h10.03.940,vbt_B2_day2,2022.2.4,MacIntel,60.0024001,,,,,,,,,,,,,,,,,,,,,,,,,,,down,0,3.7341,,0.246799113,-0.139018487,1,0,0,0.4499,0,122,122,148,1,smullen,images/br_smullen.png,images/cb_smullen.png,0,,,,,,,,,,,,,,,,,,,,,,
,,,,,,00014,2023-08-31_16h10.03.940,vbt_B2_day2,2022.2.4,MacIntel,60.0024001,,,,,,,,,,,,,,,,,,,,,,,,,,,down,0,3.101,,0.246799113,-0.139018487,1,0,0,0.4511,0,123,123,144,1,eetlust,images/br_eetlust.png,images/cb_eetlust.png,0,,,,,,,,,,,,,,,,,,,,,,
,,,,,,00014,2023-08-31_16h10.03.940,vbt_B2_day2,2022.2.4,MacIntel,60.0024001,,,,,,,,,,,,,,,,,,,,,,,,,,,down,0,5.5338,,0.246799113,-0.139018487,1,0,0,0.7678,0,124,124,122,1,waarvan,images/br_waarvan.png,images/cb_waarvan.png,0,,,,,,,,,,,,,,,,,,,,,,
,,,,,,00014,2023-08-31_16h10.03.940,vbt_B2_day2,2022.2.4,MacIntel,60.0024001,,,,,,,,,,,,,,,,,,,,,,,,,,,down,0,5.2671,,0.247314996,-0.138746745,1,0,0,1.9172,0,125,125,161,1,attentie,images/br_attentie.png,images/cb_attentie.png,0,,,,,,,,,,,,,,,,,,,,,,
,,,,,,00014,2023-08-31_16h10.03.940,vbt_B2_day2,2022.2.4,MacIntel,60.0024001,,,,,,,,,,,,,,,,,,,,,,,,,,,down,0,4.7835,,0.247314996,-0.138746745,1,0,0,0.5998,0,126,126,127,1,doodmoe,images/br_doodmoe.png,images/cb_doodmoe.png,0,,,,,,,,,,,,,,,,,,,,,,
,,,,,,00014,2023-08-31_16h10.03.940,vbt_B2_day2,2022.2.4,MacIntel,60.0024001,,,,,,,,,,,,,,,,,,,,,,,,,,,down,0,16.5337,,0.247314996,-0.138746745,1,0,0,0.6833,0,127,127,80,1,kanjer,images/br_kanjer.png,images/cb_kanjer.png,0,,,,,,,,,,,,,,,,,,,,,,
,,,,,,00014,2023-08-31_16h10.03.940,vbt_B2_day2,2022.2.4,MacIntel,60.0024001,,,,,,,,,,,,,,,,,,,,,,,,,,,down,0,15.7665,,0.247314996,-0.138746745,1,0,0,0.8492,0,128,128,94,1,oceaan,images/br_oceaan.png,images/cb_oceaan.png,0,,,,,,,,,,,,,,,,,,,,,,
,,,,,,00014,2023-08-31_16h10.03.940,vbt_B2_day2,2022.2.4,MacIntel,60.0024001,,,,,,,,,,,,,,,,,,,,,,,,,,,down,0,6.1238,,0.247314996,-0.138746745,1,0,0,0.434,0,129,129,97,1,loyaal,images/br_loyaal.png,images/cb_loyaal.png,1,loyaal,,,,,,,,,,,,,,,,,,,,,
,,,,,,00014,2023-08-31_16h10.03.940,vbt_B2_day2,2022.2.4,MacIntel,60.0024001,,,,,,,,,,,,,,,,,,,,,,,,,,,down,0,10.0218,,0.247314996,-0.138746745,1,0,0,0.4336,0,130,130,162,1,uitdelen,images/br_uitdelen.png,images/cb_uitdelen.png,0,,,,,,,,,,,,,,,,,,,,,,
,,,,,,00014,2023-08-31_16h10.03.940,vbt_B2_day2,2022.2.4,MacIntel,60.0024001,,,,,,,,,,,,,,,,,,,,,,,,,,,down,0,3.8552,,0.247314996,-0.138746745,1,0,0,0.4177,0,131,131,42,1,bleek,images/br_bleek.png,images/cb_bleek.png,0,,,,,,,,,,,,,,,,,,,,,,
,,,,,,00014,2023-08-31_16h10.03.940,vbt_B2_day2,2022.2.4,MacIntel,60.0024001,,,,,,,,,,,,,,,,,,,,,,,,,,,down,0,1.4846,,0.247314996,-0.138746745,1,0,0,0.5188,0,132,132,66,1,lever,images/br_lever.png,images/cb_lever.png,0,,,,,,,,,,,,,,,,,,,,,,
,,,,,,00014,2023-08-31_16h10.03.940,vbt_B2_day2,2022.2.4,MacIntel,60.0024001,,,,,,,,,,,,,,,,,,,,,,,,,,,down,0,2.2011,,0.247314996,-0.138746745,1,0,0,0.533,0,133,133,55,1,praat,images/br_praat.png,images/cb_praat.png,0,,,,,,,,,,,,,,,,,,,,,,
,,,,,,00014,2023-08-31_16h10.03.940,vbt_B2_day2,2022.2.4,MacIntel,60.0024001,,,,,,,,,,,,,,,,,,,,,,,,,,,down,0,0.4019,,0.247314996,-0.138746745,1,0,0,0.5833,0,134,134,10,1,leek,images/br_leek.png,images/cb_leek.png,0,,,,,,,,,,,,,,,,,,,,,,
,,,,,,00014,2023-08-31_16h10.03.940,vbt_B2_day2,2022.2.4,MacIntel,60.0024001,,,,,,,,,,,,,,,,,,,,,,,,,,,down,0,4.9516,,0.247314996,-0.138746745,1,0,0,0.6346,0,135,135,157,1,uitlaat,images/br_uitlaat.png,images/cb_uitlaat.png,0,,,,,,,,,,,,,,,,,,,,,,
,,,,,,00014,2023-08-31_16h10.03.940,vbt_B2_day2,2022.2.4,MacIntel,60.0024001,,,,,,,,,,,,,,,,,,,,,,,,,,,down,0,7.6229,,0.247314996,-0.138746745,1,0,0,0.4149,0,136,136,111,1,ticket,images/br_ticket.png,images/cb_ticket.png,0,,,,,,,,,,,,,,,,,,,,,,
,,,,,,00014,2023-08-31_16h10.03.940,vbt_B2_day2,2022.2.4,MacIntel,60.0024001,,,,,,,,,,,,,,,,,,,,,,,,,,,down,0,17.4158,,0.247314996,-0.138746745,1,0,0,0.3497,0,137,137,136,1,waarbij,images/br_waarbij.png,images/cb_waarbij.png,1,waarbij,,,,,,,,,,,,,,,,,,,,,
,,,,,,00014,2023-08-31_16h10.03.940,vbt_B2_day2,2022.2.4,MacIntel,60.0024001,,,,,,,,,,,,,,,,,,,,,,,,,,,down,0,2.6848,,0.247314996,-0.138746745,1,0,0,0.4499,0,138,138,31,1,poes,images/br_poes.png,images/cb_poes.png,0,,,,,,,,,,,,,,,,,,,,,,
,,,,,,00014,2023-08-31_16h10.03.940,vbt_B2_day2,2022.2.4,MacIntel,60.0024001,,,,,,,,,,,,,,,,,,,,,,,,,,,down,0,10.3322,,0.247314996,-0.138746745,1,0,0,0.3836,0,139,139,49,1,laken,images/br_laken.png,images/cb_laken.png,0,,,,,,,,,,,,,,,,,,,,,,
,,,,,,00014,2023-08-31_16h10.03.940,vbt_B2_day2,2022.2.4,MacIntel,60.0024001,,,,,,,,,,,,,,,,,,,,,,,,,,,down,0,9.0322,,0.247314996,-0.138746745,1,0,0,0.3835,0,140,140,183,1,getuigen,images/br_getuigen.png,images/cb_getuigen.png,0,,,,,,,,,,,,,,,,,,,,,,
,,,,,,00014,2023-08-31_16h10.03.940,vbt_B2_day2,2022.2.4,MacIntel,60.0024001,,,,,,,,,,,,,,,,,,,,,,,,,,,down,0,9.6833,,0.247314996,-0.138746745,1,0,0,0.5014,0,141,141,153,1,vervoer,images/br_vervoer.png,images/cb_vervoer.png,0,,,,,,,,,,,,,,,,,,,,,,
,,,,,,00014,2023-08-31_16h10.03.940,vbt_B2_day2,2022.2.4,MacIntel,60.0024001,,,,,,,,,,,,,,,,,,,,,,,,,,,down,0,2.2689,,0.247314996,-0.138746745,1,0,0,1.0344,0,142,142,32,1,palm,images/br_palm.png,images/cb_palm.png,0,,,,,,,,,,,,,,,,,,,,,,
,,,,,,00014,2023-08-31_16h10.03.940,vbt_B2_day2,2022.2.4,MacIntel,60.0024001,,,,,,,,,,,,,,,,,,,,,,,,,,,down,0,0.6521,,0.247314996,-0.138746745,1,0,0,0.4666,0,143,143,9,1,hier,images/br_hier.png,images/cb_hier.png,0,,,,,,,,,,,,,,,,,,,,,,
,,,,,,00014,2023-08-31_16h10.03.940,vbt_B2_day2,2022.2.4,MacIntel,60.0024001,,,,,,,,,,,,,,,,,,,,,,,,,,,down,0,8.6527,,0.247314996,-0.138746745,1,0,0,0.4669,0,144,144,182,1,bijkomen,images/br_bijkomen.png,images/cb_bijkomen.png,0,,,,,,,,,,,,,,,,,,,,,,
,,,,,,00014,2023-08-31_16h10.03.940,vbt_B2_day2,2022.2.4,MacIntel,60.0024001,,,,,,,,,,,,,,,,,,,,,,,,,,,down,0,13.0695,,0.247314996,-0.138746745,1,0,0,0.5343,0,145,145,143,1,hechten,images/br_hechten.png,images/cb_hechten.png,0,,,,,,,,,,,,,,,,,,,,,,
,,,,,,00014,2023-08-31_16h10.03.940,vbt_B2_day2,2022.2.4,MacIntel,60.0024001,,,,,,,,,,,,,,,,,,,,,,,,,,,down,0,0.5667,,0.247314996,-0.138746745,1,0,0,1.8484,0,146,146,6,1,diep,images/br_diep.png,images/cb_diep.png,0,,,,,,,,,,,,,,,,,,,,,,
,,,,,,00014,2023-08-31_16h10.03.940,vbt_B2_day2,2022.2.4,MacIntel,60.0024001,,,,,,,,,,,,,,,,,,,,,,,,,,,down,0,8.657,,0.247314996,-0.138746745,1,0,0,0.8161,0,147,147,138,1,akkoord,images/br_akkoord.png,images/cb_akkoord.png,1,akkoord,,,,,,,,,,,,,,,,,,,,,
,,,,,,00014,2023-08-31_16h10.03.940,vbt_B2_day2,2022.2.4,MacIntel,60.0024001,,,,,,,,,,,,,,,,,,,,,,,,,,,down,0,1.7698,,0.247314996,-0.138746745,1,0,0,0.4498,0,148,148,33,1,vlek,images/br_vlek.png,images/cb_vlek.png,0,,,,,,,,,,,,,,,,,,,,,,
,,,,,,00014,2023-08-31_16h10.03.940,vbt_B2_day2,2022.2.4,MacIntel,60.0024001,,,,,,,,,,,,,,,,,,,,,,,,,,,down,0,3.4335,,0.247314996,-0.138746745,1,0,0,0.3665,0,149,149,41,1,maken,images/br_maken.png,images/cb_maken.png,0,,,,,,,,,,,,,,,,,,,,,,
,,,,,,00014,2023-08-31_16h10.03.940,vbt_B2_day2,2022.2.4,MacIntel,60.0024001,,,,,,,,,,,,,,,,,,,,,,,,,,,down,0,2.533,,0.247314996,-0.138746745,1,0,0,0.8679,0,150,150,28,1,stal,images/br_stal.png,images/cb_stal.png,0,,,,,,,,,,,,,,,,,,,,,,
,,,,,,00014,2023-08-31_16h10.03.940,vbt_B2_day2,2022.2.4,MacIntel,60.0024001,,,,,,,,,,,,,,,,,,,,,,,,,,,down,0,4.6007,,0.247314996,-0.138746745,1,0,0,0.501,0,151,151,142,1,snuiven,images/br_snuiven.png,images/cb_snuiven.png,0,,,,,,,,,,,,,,,,,,,,,,
,,,,,,00014,2023-08-31_16h10.03.940,vbt_B2_day2,2022.2.4,MacIntel,60.0024001,,,,,,,,,,,,,,,,,,,,,,,,,,,down,0,3.6063,,0.247314996,-0.138746745,1,0,0,0.4509,0,152,152,174,1,stemming,images/br_stemming.png,images/cb_stemming.png,0,,,,,,,,,,,,,,,,,,,,,,
,,,,,,00014,2023-08-31_16h10.03.940,vbt_B2_day2,2022.2.4,MacIntel,60.0024001,,,,,,,,,,,,,,,,,,,,,,,,,,,down,0,20.071,,0.247314996,-0.138746745,1,0,0,2.0995,0,153,153,181,1,toegeven,images/br_toegeven.png,images/cb_toegeven.png,0,,,,,,,,,,,,,,,,,,,,,,
,,,,,,00014,2023-08-31_16h10.03.940,vbt_B2_day2,2022.2.4,MacIntel,60.0024001,,,,,,,,,,,,,,,,,,,,,,,,,,,down,0,6.6528,,0.247314996,-0.138746745,1,0,0,0.8153,0,154,154,96,1,slagen,images/br_slagen.png,images/cb_slagen.png,1,slagen,,,,,,,,,,,,,,,,,,,,,
,,,,,,00014,2023-08-31_16h10.03.940,vbt_B2_day2,2022.2.4,MacIntel,60.0024001,,,,,,,,,,,,,,,,,,,,,,,,,,,down,0,4.1388,,0.247314996,-0.138746745,1,0,0,0.4665,0,155,155,186,1,voorraad,images/br_voorraad.png,images/cb_voorraad.png,0,,,,,,,,,,,,,,,,,,,,,,
,,,,,,00014,2023-08-31_16h10.03.940,vbt_B2_day2,2022.2.4,MacIntel,60.0024001,,,,,,,,,,,,,,,,,,,,,,,,,,,down,0,1.4908,,0.247314996,-0.138746745,1,0,0,0.3998,0,156,156,23,1,zout,images/br_zout.png,images/cb_zout.png,0,,,,,,,,,,,,,,,,,,,,,,
,,,,,,00014,2023-08-31_16h10.03.940,vbt_B2_day2,2022.2.4,MacIntel,60.0024001,,,,,,,,,,,,,,,,,,,,,,,,,,,down,0,5.7685,,0.247314996,-0.138746745,1,0,0,0.4671,0,157,157,64,1,wegen,images/br_wegen.png,images/cb_wegen.png,0,,,,,,,,,,,,,,,,,,,,,,
,,,,,,00014,2023-08-31_16h10.03.940,vbt_B2_day2,2022.2.4,MacIntel,60.0024001,,,,,,,,,,,,,,,,,,,,,,,,,,,down,0,7.6724,,0.247314996,-0.138746745,1,0,0,0.4177,0,158,158,117,1,kennis,images/br_kennis.png,images/cb_kennis.png,0,,,,,,,,,,,,,,,,,,,,,,
,,,,,,00014,2023-08-31_16h10.03.940,vbt_B2_day2,2022.2.4,MacIntel,60.0024001,,,,,,,,,,,,,,,,,,,,,,,,,,,down,0,5.0239,,0.247314996,-0.138746745,1,0,0,0.4324,0,159,159,194,1,driemaal,images/br_driemaal.png,images/cb_driemaal.png,0,,,,,,,,,,,,,,,,,,,,,,
,,,,,,00014,2023-08-31_16h10.03.940,vbt_B2_day2,2022.2.4,MacIntel,60.0024001,,,,,,,,,,,,,,,,,,,,,,,,,,,down,0,14.6205,,0.247314996,-0.138746745,1,0,0,2.7318,0,160,160,178,1,huisdier,images/br_huisdier.png,images/cb_huisdier.png,1,huisdier,,,,,,,,,,,,,,,,,,,,,
,,,,,,00014,2023-08-31_16h10.03.940,vbt_B2_day2,2022.2.4,MacIntel,60.0024001,,,,,,,,,,,,,,,,,,,,,,,,,,,down,0,4.8654,,0.247314996,-0.138746745,1,0,0,0.5333,0,161,161,84,1,lokken,images/br_lokken.png,images/cb_lokken.png,0,,,,,,,,,,,,,,,,,,,,,,
,,,,,,00014,2023-08-31_16h10.03.940,vbt_B2_day2,2022.2.4,MacIntel,60.0024001,,,,,,,,,,,,,,,,,,,,,,,,,,,down,0,5.9158,,0.247314996,-0.138746745,1,0,0,0.3502,0,162,162,187,1,opkijken,images/br_opkijken.png,images/cb_opkijken.png,0,,,,,,,,,,,,,,,,,,,,,,
,,,,,,00014,2023-08-31_16h10.03.940,vbt_B2_day2,2022.2.4,MacIntel,60.0024001,,,,,,,,,,,,,,,,,,,,,,,,,,,down,0,8.5506,,0.247314996,-0.138746745,1,0,0,0.5823,0,163,163,70,1,ijdel,images/br_ijdel.png,images/cb_ijdel.png,0,,,,,,,,,,,,,,,,,,,,,,
,,,,,,00014,2023-08-31_16h10.03.940,vbt_B2_day2,2022.2.4,MacIntel,60.0024001,,,,,,,,,,,,,,,,,,,,,,,,,,,down,0,2.6186,,0.247314996,-0.138746745,1,0,0,0.55,0,164,164,44,1,flits,images/br_flits.png,images/cb_flits.png,0,,,,,,,,,,,,,,,,,,,,,,
,,,,,,00014,2023-08-31_16h10.03.940,vbt_B2_day2,2022.2.4,MacIntel,60.0024001,,,,,,,,,,,,,,,,,,,,,,,,,,,down,0,1.8826,,0.247314996,-0.138746745,1,0,0,0.5672,0,165,165,47,1,kabel,images/br_kabel.png,images/cb_kabel.png,0,,,,,,,,,,,,,,,,,,,,,,
,,,,,,00014,2023-08-31_16h10.03.940,vbt_B2_day2,2022.2.4,MacIntel,60.0024001,,,,,,,,,,,,,,,,,,,,,,,,,,,down,0,4.2235,,0.247314996,-0.138746745,1,0,0,0.5344,0,166,166,19,1,geit,images/br_geit.png,images/cb_geit.png,1,geit,,,,,,,,,,,,,,,,,,,,,
,,,,,,00014,2023-08-31_16h10.03.940,vbt_B2_day2,2022.2.4,MacIntel,60.0024001,,,,,,,,,,,,,,,,,,,,,,,,,,,down,0,7.5344,,0.247314996,-0.138746745,1,0,0,0.5173,0,167,167,90,1,geluid,images/br_geluid.png,images/cb_geluid.png,0,,,,,,,,,,,,,,,,,,,,,,
,,,,,,00014,2023-08-31_16h10.03.940,vbt_B2_day2,2022.2.4,MacIntel,60.0024001,,,,,,,,,,,,,,,,,,,,,,,,,,,down,0,1.8338,,0.247058987,-0.138746745,1,0,0,1.0011,0,168,168,93,1,waarop,images/br_waarop.png,images/cb_waarop.png,0,,,,,,,,,,,,,,,,,,,,,,
,,,,,,00014,2023-08-31_16h10.03.940,vbt_B2_day2,2022.2.4,MacIntel,60.0024001,,,,,,,,,,,,,,,,,,,,,,,,,,,down,0,5.2027,,0.247058987,-0.138746745,1,0,0,0.4994,0,169,169,118,1,vinger,images/br_vinger.png,images/cb_vinger.png,0,,,,,,,,,,,,,,,,,,,,,,
,,,,,,00014,2023-08-31_16h10.03.940,vbt_B2_day2,2022.2.4,MacIntel,60.0024001,,,,,,,,,,,,,,,,,,,,,,,,,,,down,0,6.1349,,0.247058987,-0.138746745,1,0,0,1.317,0,170,170,54,1,gebit,images/br_gebit.png,images/cb_gebit.png,0,,,,,,,,,,,,,,,,,,,,,,
,,,,,,00014,2023-08-31_16h10.03.940,vbt_B2_day2,2022.2.4,MacIntel,60.0024001,,,,,,,,,,,,,,,,,,,,,,,,,,,down,0,15.5667,,0.247058987,-0.138746745,1,0,0,0.667,0,171,171,58,1,tekst,images/br_tekst.png,images/cb_tekst.png,1,tekst,,,,,,,,,,,,,,,,,,,,,
,,,,,,00014,2023-08-31_16h10.03.940,vbt_B2_day2,2022.2.4,MacIntel,60.0024001,,,,,,,,,,,,,,,,,,,,,,,,,,,down,0,1.5998,,0.247058987,-0.138746745,1,0,0,0.4001,0,172,172,21,1,mist,images/br_mist.png,images/cb_mist.png,0,,,,,,,,,,,,,,,,,,,,,,
,,,,,,00014,2023-08-31_16h10.03.940,vbt_B2_day2,2022.2.4,MacIntel,60.0024001,,,,,,,,,,,,,,,,,,,,,,,,,,,down,0,3.7879,,0.247058987,-0.138746745,1,0,0,0.4011,0,173,173,53,1,baron,images/br_baron.png,images/cb_baron.png,0,,,,,,,,,,,,,,,,,,,,,,
,,,,,,00014,2023-08-31_16h10.03.940,vbt_B2_day2,2022.2.4,MacIntel,60.0024001,,,,,,,,,,,,,,,,,,,,,,,,,,,down,0,13.3166,,0.247058987,-0.138746745,1,0,0,0.484,0,174,174,184,1,aandelen,images/br_aandelen.png,images/cb_aandelen.png,0,,,,,,,,,,,,,,,,,,,,,,
,,,,,,00014,2023-08-31_16h10.03.940,vbt_B2_day2,2022.2.4,MacIntel,60.0024001,,,,,,,,,,,,,,,,,,,,,,,,,,,down,0,2.7873,,0.247058987,-0.138746745,1,0,0,0.5499,0,175,175,120,1,klimmen,images/br_klimmen.png,images/cb_klimmen.png,0,,,,,,,,,,,,,,,,,,,,,,
,,,,,,00014,2023-08-31_16h10.03.940,vbt_B2_day2,2022.2.4,MacIntel,60.0024001,,,,,,,,,,,,,,,,,,,,,,,,,,,down,0,8.7168,,0.247058987,-0.138746745,1,0,0,0.3832,0,176,176,15,1,soda,images/br_soda.png,images/cb_soda.png,0,,,,,,,,,,,,,,,,,,,,,,
,,,,,,00014,2023-08-31_16h10.03.940,vbt_B2_day2,2022.2.4,MacIntel,60.0024001,,,,,,,,,,,,,,,,,,,,,,,,,,,down,0,2.0667,,0.247058987,-0.138746745,1,0,0,0.4999,0,177,177,62,1,knaap,images/br_knaap.png,images/cb_knaap.png,0,,,,,,,,,,,,,,,,,,,,,,
,,,,,,00014,2023-08-31_16h10.03.940,vbt_B2_day2,2022.2.4,MacIntel,60.0024001,,,,,,,,,,,,,,,,,,,,,,,,,,,down,0,7.4847,,0.247058987,-0.138746745,1,0,0,0.6999,0,178,178,133,1,seizoen,images/br_seizoen.png,images/cb_seizoen.png,0,,,,,,,,,,,,,,,,,,,,,,
,,,,,,00014,2023-08-31_16h10.03.940,vbt_B2_day2,2022.2.4,MacIntel,60.0024001,,,,,,,,,,,,,,,,,,,,,,,,,,,down,0,5.9717,,0.247058987,-0.138746745,1,0,0,0.3494,0,179,179,56,1,traag,images/br_traag.png,images/cb_traag.png,1,traag,,,,,,,,,,,,,,,,,,,,,
,,,,,,00014,2023-08-31_16h10.03.940,vbt_B2_day2,2022.2.4,MacIntel,60.0024001,,,,,,,,,,,,,,,,,,,,,,,,,,,down,0,15.6178,,0.247058987,-0.138746745,1,0,0,0.3847,0,180,180,176,1,techniek,images/br_techniek.png,images/cb_techniek.png,1,techniek,,,,,,,,,,,,,,,,,,,,,
,,,,,,00014,2023-08-31_16h10.03.940,vbt_B2_day2,2022.2.4,MacIntel,60.0024001,,,,,,,,,,,,,,,,,,,,,,,,,,,down,0,3.968,,0.247058987,-0.138746745,1,0,0,0.5162,0,181,181,113,1,koppen,images/br_koppen.png,images/cb_koppen.png,0,,,,,,,,,,,,,,,,,,,,,,
,,,,,,00014,2023-08-31_16h10.03.940,vbt_B2_day2,2022.2.4,MacIntel,60.0024001,,,,,,,,,,,,,,,,,,,,,,,,,,,down,0,2.7329,,0.247058987,-0.138746745,1,0,0,0.6512,0,182,182,88,1,boeien,images/br_boeien.png,images/cb_boeien.png,0,,,,,,,,,,,,,,,,,,,,,,
,,,,,,00014,2023-08-31_16h10.03.940,vbt_B2_day2,2022.2.4,MacIntel,60.0024001,,,,,,,,,,,,,,,,,,,,,,,,,,,down,0,2.2179,,0.247058987,-0.138746745,1,0,0,0.45,0,183,183,34,1,vorm,images/br_vorm.png,images/cb_vorm.png,0,,,,,,,,,,,,,,,,,,,,,,
,,,,,,00014,2023-08-31_16h10.03.940,vbt_B2_day2,2022.2.4,MacIntel,60.0024001,,,,,,,,,,,,,,,,,,,,,,,,,,,down,0,7.6671,,0.247058987,-0.138746745,1,0,0,0.8344,0,184,184,159,1,sufferd,images/br_sufferd.png,images/cb_sufferd.png,0,,,,,,,,,,,,,,,,,,,,,,
,,,,,,00014,2023-08-31_16h10.03.940,vbt_B2_day2,2022.2.4,MacIntel,60.0024001,,,,,,,,,,,,,,,,,,,,,,,,,,,down,0,4.3346,,0.247058987,-0.138746745,1,0,0,1.451,0,185,185,16,1,ziek,images/br_ziek.png,images/cb_ziek.png,1,ziek,,,,,,,,,,,,,,,,,,,,,
,,,,,,00014,2023-08-31_16h10.03.940,vbt_B2_day2,2022.2.4,MacIntel,60.0024001,,,,,,,,,,,,,,,,,,,,,,,,,,,down,0,7.2175,,0.248146769,-0.13985026,1,0,0,0.3998,0,186,186,140,1,blijven,images/br_blijven.png,images/cb_blijven.png,0,,,,,,,,,,,,,,,,,,,,,,
,,,,,,00014,2023-08-31_16h10.03.940,vbt_B2_day2,2022.2.4,MacIntel,60.0024001,,,,,,,,,,,,,,,,,,,,,,,,,,,down,0,5.5008,,0.248146769,-0.13985026,1,0,0,0.5505,0,187,187,126,1,kasteel,images/br_kasteel.png,images/cb_kasteel.png,0,,,,,,,,,,,,,,,,,,,,,,
,,,,,,00014,2023-08-31_16h10.03.940,vbt_B2_day2,2022.2.4,MacIntel,60.0024001,,,,,,,,,,,,,,,,,,,,,,,,,,,down,0,5.4348,,0.248146769,-0.13985026,1,0,0,0.7167,0,188,188,82,1,muziek,images/br_muziek.png,images/cb_muziek.png,0,,,,,,,,,,,,,,,,,,,,,,
,,,,,,00014,2023-08-31_16h10.03.940,vbt_B2_day2,2022.2.4,MacIntel,60.0024001,,,,,,,,,,,,,,,,,,,,,,,,,,,down,0,5.1173,,0.248146769,-0.13985026,1,0,0,0.5672,0,189,189,68,1,schat,images/br_schat.png,images/cb_schat.png,0,,,,,,,,,,,,,,,,,,,,,,
,,,,,,00014,2023-08-31_16h10.03.940,vbt_B2_day2,2022.2.4,MacIntel,60.0024001,,,,,,,,,,,,,,,,,,,,,,,,,,,down,0,6.7011,,0.248146769,-0.13985026,1,0,0,0.5178,0,190,190,170,1,schatten,images/br_schatten.png,images/cb_schatten.png,0,,,,,,,,,,,,,,,,,,,,,,
,,,,,,00014,2023-08-31_16h10.03.940,vbt_B2_day2,2022.2.4,MacIntel,60.0024001,,,,,,,,,,,,,,,,,,,,,,,,,,,down,0,3.7522,,0.248146769,-0.13985026,1,0,0,0.5493,0,191,191,197,1,spanning,images/br_spanning.png,images/cb_spanning.png,0,,,,,,,,,,,,,,,,,,,,,,
,,,,,,00014,2023-08-31_16h10.03.940,vbt_B2_day2,2022.2.4,MacIntel,60.0024001,,,,,,,,,,,,,,,,,,,,,,,,,,,down,0,3.966,,0.248146769,-0.13985026,1,0,0,0.4482,0,192,192,74,1,graaf,images/br_graaf.png,images/cb_graaf.png,0,,,,,,,,,,,,,,,,,,,,,,
,,,,,,00014,2023-08-31_16h10.03.940,vbt_B2_day2,2022.2.4,MacIntel,60.0024001,,,,,,,,,,,,,,,,,,,,,,,,,,,down,0,10.1033,,0.249483303,-0.140418701,1,0,0,0.5996,0,193,193,92,1,geheim,images/br_geheim.png,images/cb_geheim.png,0,,,,,,,,,,,,,,,,,,,,,,
,,,,,,00014,2023-08-31_16h10.03.940,vbt_B2_day2,2022.2.4,MacIntel,60.0024001,,,,,,,,,,,,,,,,,,,,,,,,,,,down,0,4.9469,,0.248881836,-0.138104723,1,0,0,0.6182,0,194,194,119,1,liefje,images/br_liefje.png,images/cb_liefje.png,0,,,,,,,,,,,,,,,,,,,,,,
,,,,,,00014,2023-08-31_16h10.03.940,vbt_B2_day2,2022.2.4,MacIntel,60.0024001,,,,,,,,,,,,,,,,,,,,,,,,,,,down,0,7.0345,,0.248881836,-0.138104723,1,0,0,0.5009,0,195,195,20,1,site,images/br_site.png,images/cb_site.png,0,,,,,,,,,,,,,,,,,,,,,,
,,,,,,00014,2023-08-31_16h10.03.940,vbt_B2_day2,2022.2.4,MacIntel,60.0024001,,,,,,,,,,,,,,,,,,,,,,,,,,,down,0,1.839,,0.248881836,-0.136824409,1,0,0,0.6338,0,196,196,3,1,mand,images/br_mand.png,images/cb_mand.png,0,,,,,,,,,,,,,,,,,,,,,,
,,,,,,00014,2023-08-31_16h10.03.940,vbt_B2_day2,2022.2.4,MacIntel,60.0024001,,,,,,,,,,,,,,,,,,,,,,,,,,,down,0,2.4894,,0.248881836,-0.136824409,1,0,0,0.3998,0,197,197,17,1,taal,images/br_taal.png,images/cb_taal.png,1,taal,,,,,,,,,,,,,,,,,,,,,
,,,,,,00014,2023-08-31_16h10.03.940,vbt_B2_day2,2022.2.4,MacIntel,60.0024001,,,,,,,,,,,,,,,,,,,,,,,,,,,down,0,8.8221,,0.248881836,-0.136824409,1,0,0,0.4514,0,198,198,46,1,jagen,images/br_jagen.png,images/cb_jagen.png,0,,,,,,,,,,,,,,,,,,,,,,
,,,,,,00014,2023-08-31_16h10.03.940,vbt_B2_day2,2022.2.4,MacIntel,60.0024001,,,,,,,,,,,,,,,,,,,,,,,,,,,down,0,9.1015,,0.257772827,-0.145581326,1,0,0,0.4844,0,199,199,105,1,wijlen,images/br_wijlen.png,images/cb_wijlen.png,0,,,,,,,,,,,,,,,,,,,,,,
,,,,,,00014,2023-08-31_16h10.03.940,vbt_B2_day2,2022.2.4,MacIntel,60.0024001,,,,,,,,,,,,,,,,,,,,,,,,,,,,,,,,,,,,,,,,,,,,,,,0.495112701,-0.15871384,1,0,0,,,,,,,,,,,,,,,,
,,,,,,00014,2023-08-31_16h10.03.940,vbt_B2_day2,2022.2.4,MacIntel,60.0024001,,,,,,,,,,,,,,,,,,,,,,,,,,,,,,,,,,,,,,,,,,,,,,,,,,,,0.367272671,0.038241929,1,0,0,,,,,,,,,,,
,,,,,,00014,2023-08-31_16h10.03.940,vbt_B2_day2,2022.2.4,MacIntel,60.0024001,,,,,,,,,,,,,,,,,,,,,,,,,,,,,,,,,,,,,,,,,,clan,images/br_clan.png,images/cb_clan.png,,clan,,,,,,,,,,,0.367272671,0.038241929,1,0,0,clan,0,0,0,40,1
,,,,,,00014,2023-08-31_16h10.03.940,vbt_B2_day2,2022.2.4,MacIntel,60.0024001,,,,,,,,,,,,,,,,,,,,,,,,,,,,,,,,,,,,,,,,,,tweeling,images/br_tweeling.png,images/cb_tweeling.png,,tweeling,,,,,,,,,,,0.367564696,0.038241929,1,0,0,tweeling,0,1,1,58,1
,,,,,,00014,2023-08-31_16h10.03.940,vbt_B2_day2,2022.2.4,MacIntel,60.0024001,,,,,,,,,,,,,,,,,,,,,,,,,,,,,,,,,,,,,,,,,,manieren,images/br_manieren.png,images/cb_manieren.png,,manieren,,,,,,,,,,,0.367564696,0.038241929,1,0,0,manieren,0,2,2,56,1
,,,,,,00014,2023-08-31_16h10.03.940,vbt_B2_day2,2022.2.4,MacIntel,60.0024001,,,,,,,,,,,,,,,,,,,,,,,,,,,,,,,,,,,,,,,,,,feestdag,images/br_feestdag.png,images/cb_feestdag.png,,feestdag,,,,,,,,,,,0.367564696,0.038241929,1,0,0,feestdag,0,3,3,17,1
,,,,,,00014,2023-08-31_16h10.03.940,vbt_B2_day2,2022.2.4,MacIntel,60.0024001,,,,,,,,,,,,,,,,,,,,,,,,,,,,,,,,,,,,,,,,,,breuk,images/br_breuk.png,images/cb_breuk.png,,bruik,,,,,,,,,,,0.367564696,0.038241929,1,0,0,bruik,0,4,4,45,1
,,,,,,00014,2023-08-31_16h10.03.940,vbt_B2_day2,2022.2.4,MacIntel,60.0024001,,,,,,,,,,,,,,,,,,,,,,,,,,,,,,,,,,,,,,,,,,zwager,images/br_zwager.png,images/cb_zwager.png,,zwager,,,,,,,,,,,0.367564696,0.038241929,1,0,0,zwager,0,5,5,49,1
,,,,,,00014,2023-08-31_16h10.03.940,vbt_B2_day2,2022.2.4,MacIntel,60.0024001,,,,,,,,,,,,,,,,,,,,,,,,,,,,,,,,,,,,,,,,,,doodmoe,images/br_doodmoe.png,images/cb_doodmoe.png,,doodmoe,,,,,,,,,,,0.367564696,0.038241929,1,0,0,doodmoe,0,6,6,15,1
,,,,,,00014,2023-08-31_16h10.03.940,vbt_B2_day2,2022.2.4,MacIntel,60.0024001,,,,,,,,,,,,,,,,,,,,,,,,,,,,,,,,,,,,,,,,,,heengeen,images/br_heengeen.png,images/cb_heengeen.png,,heengaan,,,,,,,,,,,0.367564696,0.038241929,1,0,0,heengaan,0,7,7,38,1
,,,,,,00014,2023-08-31_16h10.03.940,vbt_B2_day2,2022.2.4,MacIntel,60.0024001,,,,,,,,,,,,,,,,,,,,,,,,,,,,,,,,,,,,,,,,,,dode,images/br_dode.png,images/cb_dode.png,,dode,,,,,,,,,,,0.367564696,0.038241929,1,0,0,dode,0,8,8,41,1
,,,,,,00014,2023-08-31_16h10.03.940,vbt_B2_day2,2022.2.4,MacIntel,60.0024001,,,,,,,,,,,,,,,,,,,,,,,,,,,,,,,,,,,,,,,,,,ningen,images/br_ningen.png,images/cb_ningen.png,,negen,,,,,,,,,,,0.367564696,0.038828919,1,0,0,negen,0,9,9,28,1
,,,,,,00014,2023-08-31_16h10.03.940,vbt_B2_day2,2022.2.4,MacIntel,60.0024001,,,,,,,,,,,,,,,,,,,,,,,,,,,,,,,,,,,,,,,,,,strikken,images/br_strikken.png,images/cb_strikken.png,,strikken,,,,,,,,,,,0.368485019,0.04015564,1,0,0,strikken,0,10,10,18,1
,,,,,,00014,2023-08-31_16h10.03.940,vbt_B2_day2,2022.2.4,MacIntel,60.0024001,,,,,,,,,,,,,,,,,,,,,,,,,,,,,,,,,,,,,,,,,,sora,images/br_sora.png,images/cb_sora.png,,sora,,,,,,,,,,,0.368485019,0.04015564,1,0,0,sora,0,11,11,22,1
,,,,,,00014,2023-08-31_16h10.03.940,vbt_B2_day2,2022.2.4,MacIntel,60.0024001,,,,,,,,,,,,,,,,,,,,,,,,,,,,,,,,,,,,,,,,,,jong,images/br_jong.png,images/cb_jong.png,,jong,,,,,,,,,,,0.368485019,0.04015564,1,0,0,jong,0,12,12,43,1
,,,,,,00014,2023-08-31_16h10.03.940,vbt_B2_day2,2022.2.4,MacIntel,60.0024001,,,,,,,,,,,,,,,,,,,,,,,,,,,,,,,,,,,,,,,,,,remel,images/br_remel.png,images/cb_remel.png,,remel,,,,,,,,,,,0.368485019,0.04015564,1,0,0,remel,0,13,13,25,1
,,,,,,00014,2023-08-31_16h10.03.940,vbt_B2_day2,2022.2.4,MacIntel,60.0024001,,,,,,,,,,,,,,,,,,,,,,,,,,,,,,,,,,,,,,,,,,bereuwen,images/br_bereuwen.png,images/cb_bereuwen.png,,bereuwen,,,,,,,,,,,0.270258334,-0.051603252,1,0,0,bereuwen,0,14,14,39,1
,,,,,,00014,2023-08-31_16h10.03.940,vbt_B2_day2,2022.2.4,MacIntel,60.0024001,,,,,,,,,,,,,,,,,,,,,,,,,,,,,,,,,,,,,,,,,,kijlen,images/br_kijlen.png,images/cb_kijlen.png,,kijlen,,,,,,,,,,,0.272771219,-0.051603252,1,0,0,kijlen,0,15,15,31,1
,,,,,,00014,2023-08-31_16h10.03.940,vbt_B2_day2,2022.2.4,MacIntel,60.0024001,,,,,,,,,,,,,,,,,,,,,,,,,,,,,,,,,,,,,,,,,,bloeien,images/br_bloeien.png,images/cb_bloeien.png,,bloeien,,,,,,,,,,,0.272771219,-0.051603252,1,0,0,bloeien,0,16,16,12,1
,,,,,,00014,2023-08-31_16h10.03.940,vbt_B2_day2,2022.2.4,MacIntel,60.0024001,,,,,,,,,,,,,,,,,,,,,,,,,,,,,,,,,,,,,,,,,,lokken,images/br_lokken.png,images/cb_lokken.png,,lokken,,,,,,,,,,,0.272771219,-0.051603252,1,0,0,lokken,0,17,17,8,1
,,,,,,00014,2023-08-31_16h10.03.940,vbt_B2_day2,2022.2.4,MacIntel,60.0024001,,,,,,,,,,,,,,,,,,,,,,,,,,,,,,,,,,,,,,,,,,sifferd,images/br_sifferd.png,images/cb_sifferd.png,,siff...,,,,,,,,,,,0.272771219,-0.051603252,1,0,0,siff...,0,18,18,32,1
,,,,,,00014,2023-08-31_16h10.03.940,vbt_B2_day2,2022.2.4,MacIntel,60.0024001,,,,,,,,,,,,,,,,,,,,,,,,,,,,,,,,,,,,,,,,,,thema,images/br_thema.png,images/cb_thema.png,,t....,,,,,,,,,,,0.272771219,-0.051603252,1,0,0,t....,0,19,19,47,1
,,,,,,00014,2023-08-31_16h10.03.940,vbt_B2_day2,2022.2.4,MacIntel,60.0024001,,,,,,,,,,,,,,,,,,,,,,,,,,,,,,,,,,,,,,,,,,aanvraag,images/br_aanvraag.png,images/cb_aanvraag.png,,aanvraag,,,,,,,,,,,0.272771219,-0.051603252,1,0,0,aanvraag,0,20,20,57,1
,,,,,,00014,2023-08-31_16h10.03.940,vbt_B2_day2,2022.2.4,MacIntel,60.0024001,,,,,,,,,,,,,,,,,,,,,,,,,,,,,,,,,,,,,,,,,,inzicht,images/br_inzicht.png,images/cb_inzicht.png,,inzicht,,,,,,,,,,,0.272771219,-0.051603252,1,0,0,inzicht,0,21,21,53,1
,,,,,,00014,2023-08-31_16h10.03.940,vbt_B2_day2,2022.2.4,MacIntel,60.0024001,,,,,,,,,,,,,,,,,,,,,,,,,,,,,,,,,,,,,,,,,,trots,images/br_trots.png,images/cb_trots.png,,trots,,,,,,,,,,,0.268493266,0.002113294,1,0,0,trots,0,22,22,44,1
,,,,,,00014,2023-08-31_16h10.03.940,vbt_B2_day2,2022.2.4,MacIntel,60.0024001,,,,,,,,,,,,,,,,,,,,,,,,,,,,,,,,,,,,,,,,,,eenhoorn,images/br_eenhoorn.png,images/cb_eenhoorn.png,,in.oo..,,,,,,,,,,,0.268493266,0.002113294,1,0,0,in.oo..,0,23,23,19,1
,,,,,,00014,2023-08-31_16h10.03.940,vbt_B2_day2,2022.2.4,MacIntel,60.0024001,,,,,,,,,,,,,,,,,,,,,,,,,,,,,,,,,,,,,,,,,,flits,images/br_flits.png,images/cb_flits.png,,flits,,,,,,,,,,,0.268785291,0.002113294,1,0,0,flits,0,24,24,4,1
,,,,,,00014,2023-08-31_16h10.03.940,vbt_B2_day2,2022.2.4,MacIntel,60.0024001,,,,,,,,,,,,,,,,,,,,,,,,,,,,,,,,,,,,,,,,,,diep,images/br_diep.png,images/cb_diep.png,,diep,,,,,,,,,,,0.268785291,0.002113294,1,0,0,diep,0,25,25,2,1
,,,,,,00014,2023-08-31_16h10.03.940,vbt_B2_day2,2022.2.4,MacIntel,60.0024001,,,,,,,,,,,,,,,,,,,,,,,,,,,,,,,,,,,,,,,,,,toeval,images/br_toeval.png,images/cb_toeval.png,,toeval,,,,,,,,,,,0.268785291,0.002113294,1,0,0,toeval,0,26,26,11,1
,,,,,,00014,2023-08-31_16h10.03.940,vbt_B2_day2,2022.2.4,MacIntel,60.0024001,,,,,,,,,,,,,,,,,,,,,,,,,,,,,,,,,,,,,,,,,,systeem,images/br_systeem.png,images/cb_systeem.png,,sys....,,,,,,,,,,,0.268785291,0.002113294,1,0,0,sys....,0,27,27,54,1
,,,,,,00014,2023-08-31_16h10.03.940,vbt_B2_day2,2022.2.4,MacIntel,60.0024001,,,,,,,,,,,,,,,,,,,,,,,,,,,,,,,,,,,,,,,,,,jagen,images/br_jagen.png,images/cb_jagen.png,,jagen,,,,,,,,,,,0.268785291,0.002113294,1,0,0,jagen,0,28,28,6,1
,,,,,,00014,2023-08-31_16h10.03.940,vbt_B2_day2,2022.2.4,MacIntel,60.0024001,,,,,,,,,,,,,,,,,,,,,,,,,,,,,,,,,,,,,,,,,,stes,images/br_stes.png,images/cb_stes.png,,stres,,,,,,,,,,,0.268785291,0.002113294,1,0,0,stres,0,29,29,21,1
,,,,,,00014,2023-08-31_16h10.03.940,vbt_B2_day2,2022.2.4,MacIntel,60.0024001,,,,,,,,,,,,,,,,,,,,,,,,,,,,,,,,,,,,,,,,,,sjijfel,images/br_sjijfel.png,images/cb_sjijfel.png,,sjij....,,,,,,,,,,,0.268785291,0.002113294,1,0,0,sjij....,0,30,30,33,1
,,,,,,00014,2023-08-31_16h10.03.940,vbt_B2_day2,2022.2.4,MacIntel,60.0024001,,,,,,,,,,,,,,,,,,,,,,,,,,,,,,,,,,,,,,,,,,lurgen,images/br_lurgen.png,images/cb_lurgen.png,,lurgen,,,,,,,,,,,0.268785291,0.002113294,1,0,0,lurgen,0,31,31,29,1
,,,,,,00014,2023-08-31_16h10.03.940,vbt_B2_day2,2022.2.4,MacIntel,60.0024001,,,,,,,,,,,,,,,,,,,,,,,,,,,,,,,,,,,,,,,,,,piste,images/br_piste.png,images/cb_piste.png,,piste,,,,,,,,,,,0.278269179,0.034466684,1,0,0,piste,0,32,32,5,1
,,,,,,00014,2023-08-31_16h10.03.940,vbt_B2_day2,2022.2.4,MacIntel,60.0024001,,,,,,,,,,,,,,,,,,,,,,,,,,,,,,,,,,,,,,,,,,kenzis,images/br_kenzis.png,images/cb_kenzis.png,,ken....,,,,,,,,,,,0.278269179,0.034466684,1,0,0,ken....,0,33,33,30,1
,,,,,,00014,2023-08-31_16h10.03.940,vbt_B2_day2,2022.2.4,MacIntel,60.0024001,,,,,,,,,,,,,,,,,,,,,,,,,,,,,,,,,,,,,,,,,,heilig,images/br_heilig.png,images/cb_heilig.png,,heilig,,,,,,,,,,,0.186043356,-0.08288667,1,0,0,heilig,0,34,34,9,1
,,,,,,00014,2023-08-31_16h10.03.940,vbt_B2_day2,2022.2.4,MacIntel,60.0024001,,,,,,,,,,,,,,,,,,,,,,,,,,,,,,,,,,,,,,,,,,plannen,images/br_plannen.png,images/cb_plannen.png,,plannen,,,,,,,,,,,0.205866244,-0.18426065,1,0,0,plannen,0,35,35,55,1
,,,,,,00014,2023-08-31_16h10.03.940,vbt_B2_day2,2022.2.4,MacIntel,60.0024001,,,,,,,,,,,,,,,,,,,,,,,,,,,,,,,,,,,,,,,,,,woning,images/br_woning.png,images/cb_woning.png,,woning,,,,,,,,,,,0.113268099,-0.114133189,1,0,0,woning,0,36,36,10,1
,,,,,,00014,2023-08-31_16h10.03.940,vbt_B2_day2,2022.2.4,MacIntel,60.0024001,,,,,,,,,,,,,,,,,,,,,,,,,,,,,,,,,,,,,,,,,,blad,images/br_blad.png,images/cb_blad.png,,blad,,,,,,,,,,,0.113268099,-0.114133189,1,0,0,blad,0,37,37,1,1
,,,,,,00014,2023-08-31_16h10.03.940,vbt_B2_day2,2022.2.4,MacIntel,60.0024001,,,,,,,,,,,,,,,,,,,,,,,,,,,,,,,,,,,,,,,,,,krimmen,images/br_krimmen.png,images/cb_krimmen.png,,krimmen,,,,,,,,,,,0.113268099,-0.114133189,1,0,0,krimmen,0,38,38,35,1
,,,,,,00014,2023-08-31_16h10.03.940,vbt_B2_day2,2022.2.4,MacIntel,60.0024001,,,,,,,,,,,,,,,,,,,,,,,,,,,,,,,,,,,,,,,,,,prekken,images/br_prekken.png,images/cb_prekken.png,,prikken,,,,,,,,,,,0.113268099,-0.114133189,1,0,0,prikken,0,39,39,34,1
,,,,,,00014,2023-08-31_16h10.03.940,vbt_B2_day2,2022.2.4,MacIntel,60.0024001,,,,,,,,,,,,,,,,,,,,,,,,,,,,,,,,,,,,,,,,,,joes,images/br_joes.png,images/cb_joes.png,,joes,,,,,,,,,,,-0.027980326,-0.191566226,1,0,0,joes,0,40,40,20,1
,,,,,,00014,2023-08-31_16h10.03.940,vbt_B2_day2,2022.2.4,MacIntel,60.0024001,,,,,,,,,,,,,,,,,,,,,,,,,,,,,,,,,,,,,,,,,,geld,images/br_geld.png,images/cb_geld.png,,geld,,,,,,,,,,,0.046618173,-0.049422464,1,0,0,geld,0,41,41,3,1
,,,,,,00014,2023-08-31_16h10.03.940,vbt_B2_day2,2022.2.4,MacIntel,60.0024001,,,,,,,,,,,,,,,,,,,,,,,,,,,,,,,,,,,,,,,,,,lijnen,images/br_lijnen.png,images/cb_lijnen.png,,lijnen,,,,,,,,,,,0.177125261,-0.017400202,1,0,0,lijnen,0,42,42,51,1
,,,,,,00014,2023-08-31_16h10.03.940,vbt_B2_day2,2022.2.4,MacIntel,60.0024001,,,,,,,,,,,,,,,,,,,,,,,,,,,,,,,,,,,,,,,,,,welzijn,images/br_welzijn.png,images/cb_welzijn.png,,wilz...,,,,,,,,,,,0.058415363,-0.040258371,1,0,0,wilz...,0,43,43,52,1
,,,,,,00014,2023-08-31_16h10.03.940,vbt_B2_day2,2022.2.4,MacIntel,60.0024001,,,,,,,,,,,,,,,,,,,,,,,,,,,,,,,,,,,,,,,,,,moes,images/br_moes.png,images/cb_moes.png,,moes,,,,,,,,,,,0.07159478,-0.074551078,1,0,0,moes,0,44,44,0,1
,,,,,,00014,2023-08-31_16h10.03.940,vbt_B2_day2,2022.2.4,MacIntel,60.0024001,,,,,,,,,,,,,,,,,,,,,,,,,,,,,,,,,,,,,,,,,,opdatten,images/br_opdatten.png,images/cb_opdatten.png,,opdatt..,,,,,,,,,,,0.048740634,-0.092643786,1,0,0,opdatt..,0,45,45,37,1
,,,,,,00014,2023-08-31_16h10.03.940,vbt_B2_day2,2022.2.4,MacIntel,60.0024001,,,,,,,,,,,,,,,,,,,,,,,,,,,,,,,,,,,,,,,,,,anarchie,images/br_anarchie.png,images/cb_anarchie.png,,anarchie,,,,,,,,,,,0.110088624,-0.049176544,1,0,0,anarchie,0,46,46,16,1
,,,,,,00014,2023-08-31_16h10.03.940,vbt_B2_day2,2022.2.4,MacIntel,60.0024001,,,,,,,,,,,,,,,,,,,,,,,,,,,,,,,,,,,,,,,,,,wijve,images/br_wijve.png,images/cb_wijve.png,,wijve,,,,,,,,,,,-0.164111313,-0.073328596,1,0,0,wijve,0,47,47,27,1
,,,,,,00014,2023-08-31_16h10.03.940,vbt_B2_day2,2022.2.4,MacIntel,60.0024001,,,,,,,,,,,,,,,,,,,,,,,,,,,,,,,,,,,,,,,,,,koorts,images/br_koorts.png,images/cb_koorts.png,,koorts,,,,,,,,,,,0.144021154,-0.068481987,1,0,0,koorts,0,48,48,50,1
,,,,,,00014,2023-08-31_16h10.03.940,vbt_B2_day2,2022.2.4,MacIntel,60.0024001,,,,,,,,,,,,,,,,,,,,,,,,,,,,,,,,,,,,,,,,,,negel,images/br_negel.png,images/cb_negel.png,,negel,,,,,,,,,,,0.262798585,-0.111372528,1,0,0,negel,0,49,49,24,1
,,,,,,00014,2023-08-31_16h10.03.940,vbt_B2_day2,2022.2.4,MacIntel,60.0024001,,,,,,,,,,,,,,,,,,,,,,,,,,,,,,,,,,,,,,,,,,kabel,images/br_kabel.png,images/cb_kabel.png,,kabel,,,,,,,,,,,0.132438089,-0.082155177,1,0,0,kabel,0,50,50,7,1
,,,,,,00014,2023-08-31_16h10.03.940,vbt_B2_day2,2022.2.4,MacIntel,60.0024001,,,,,,,,,,,,,,,,,,,,,,,,,,,,,,,,,,,,,,,,,,goon,images/br_goon.png,images/cb_goon.png,,goon,,,,,,,,,,,0.132438089,-0.082155177,1,0,0,goon,0,51,51,23,1
,,,,,,00014,2023-08-31_16h10.03.940,vbt_B2_day2,2022.2.4,MacIntel,60.0024001,,,,,,,,,,,,,,,,,,,,,,,,,,,,,,,,,,,,,,,,,,badon,images/br_badon.png,images/cb_badon.png,,badon,,,,,,,,,,,0.053582601,-0.023966317,1,0,0,badon,0,52,52,26,1
,,,,,,00014,2023-08-31_16h10.03.940,vbt_B2_day2,2022.2.4,MacIntel,60.0024001,,,,,,,,,,,,,,,,,,,,,,,,,,,,,,,,,,,,,,,,,,zegel,images/br_zegel.png,images/cb_zegel.png,,zegel,,,,,,,,,,,0.053582601,-0.023966317,1,0,0,zegel,0,53,53,46,1
,,,,,,00014,2023-08-31_16h10.03.940,vbt_B2_day2,2022.2.4,MacIntel,60.0024001,,,,,,,,,,,,,,,,,,,,,,,,,,,,,,,,,,,,,,,,,,aanzien,images/br_aanzien.png,images/cb_aanzien.png,,aanzien,,,,,,,,,,,0.222197133,-0.068699439,1,0,0,aanzien,0,54,54,13,1
,,,,,,00014,2023-08-31_16h10.03.940,vbt_B2_day2,2022.2.4,MacIntel,60.0024001,,,,,,,,,,,,,,,,,,,,,,,,,,,,,,,,,,,,,,,,,,kasteel,images/br_kasteel.png,images/cb_kasteel.png,,kasteel,,,,,,,,,,,0.041149299,-0.058703134,1,0,0,kasteel,0,55,55,14,1
,,,,,,00014,2023-08-31_16h10.03.940,vbt_B2_day2,2022.2.4,MacIntel,60.0024001,,,,,,,,,,,,,,,,,,,,,,,,,,,,,,,,,,,,,,,,,,agressie,images/br_agressie.png,images/cb_agressie.png,,agressie,,,,,,,,,,,-0.023405629,-0.024027197,1,0,0,agressie,0,56,56,59,1
,,,,,,00014,2023-08-31_16h10.03.940,vbt_B2_day2,2022.2.4,MacIntel,60.0024001,,,,,,,,,,,,,,,,,,,,,,,,,,,,,,,,,,,,,,,,,,tand,images/br_tand.png,images/cb_tand.png,,tand,,,,,,,,,,,0.064455523,-0.064793344,1,0,0,tand,0,57,57,42,1
,,,,,,00014,2023-08-31_16h10.03.940,vbt_B2_day2,2022.2.4,MacIntel,60.0024001,,,,,,,,,,,,,,,,,,,,,,,,,,,,,,,,,,,,,,,,,,zomers,images/br_zomers.png,images/cb_zomers.png,,zomers,,,,,,,,,,,0.064455523,-0.064793344,1,0,0,zomers,0,58,58,48,1
,,,,,,00014,2023-08-31_16h10.03.940,vbt_B2_day2,2022.2.4,MacIntel,60.0024001,,,,,,,,,,,,,,,,,,,,,,,,,,,,,,,,,,,,,,,,,,ophuimen,images/br_ophuimen.png,images/cb_ophuimen.png,,opdeumen,,,,,,,,,,,0.069522679,-0.03040541,1,0,0,opdeumen,0,59,59,36,1
,,,,,,00014,2023-08-31_16h10.03.940,vbt_B2_day2,2022.2.4,MacIntel,60.0024001,,,,,,,,,,,,,,,,,,,,,,,,,,,,,,,,,,,,,,,,,,,,,,,,,,,,,,,,,,,,,,,,,,,
