welcome_mouse.x,welcome_mouse.y,welcome_mouse.leftButton,welcome_mouse.midButton,welcome_mouse.rightButton,welcome_mouse.time,"ID",date,expName,psychopyVersion,OS,frameRate,refresh_mouse.x,refresh_mouse.y,refresh_mouse.leftButton,refresh_mouse.midButton,refresh_mouse.rightButton,refresh_mouse.time,braille_mouse.x,braille_mouse.y,braille_mouse.leftButton,braille_mouse.midButton,braille_mouse.rightButton,braille_mouse.time,trials.thisRepN,trials.thisTrialN,trials.thisN,trials.thisIndex,trials.ran,nlLet,brLet,cbLet,trainInstr_mouse.x,trainInstr_mouse.y,trainInstr_mouse.leftButton,trainInstr_mouse.midButton,trainInstr_mouse.rightButton,trainInstr_mouse.time,translation_key.keys,translation_key.corr,translation_key.rt,testResp,word_rsp.text,word_mouse.x,word_mouse.y,word_mouse.leftButton,word_mouse.midButton,word_mouse.rightButton,word_mouse.time,train_loop.thisRepN,train_loop.thisTrialN,train_loop.thisN,train_loop.thisIndex,train_loop.ran,nlWrd,brWrd,cbWrd,test,mouse.x,mouse.y,mouse.leftButton,mouse.midButton,mouse.rightButton,testInstr_mouse.x,testInstr_mouse.y,testInstr_mouse.leftButton,testInstr_mouse.midButton,testInstr_mouse.rightButton,test_mouse.x,test_mouse.y,test_mouse.leftButton,test_mouse.midButton,test_mouse.rightButton,test_response.text,test_loop.thisRepN,test_loop.thisTrialN,test_loop.thisN,test_loop.thisIndex,test_loop.ran
0.126851908,0.170370356,1,0,0,10.0937,00067,2023-10-18_14h35.27.900,vbt_B2_day2,2022.2.4,Win32,60.27000964,,,,,,,,,,,,,,,,,,,,,,,,,,,,,,,,,,,,,,,,,,,,,,,,,,,,,,,,,,,,,,,,,,,
,,,,,,00067,2023-10-18_14h35.27.900,vbt_B2_day2,2022.2.4,Win32,60.27000964,0.076851908,0.319444444,1,0,0,16.2446,,,,,,,,,,,,,,,,,,,,,,,,,,,,,,,,,,,,,,,,,,,,,,,,,,,,,,,,,,,,,
,,,,,,00067,2023-10-18_14h35.27.900,vbt_B2_day2,2022.2.4,Win32,60.27000964,,,,,,,0.075925954,0.333796289,1,0,0,35.9863,0,0,0,22,1,w,images/br_w.png,images/cb_w.png,,,,,,,,,,,,,,,,,,,,,,,,,,,,,,,,,,,,,,,,,,,,,,,
,,,,,,00067,2023-10-18_14h35.27.900,vbt_B2_day2,2022.2.4,Win32,60.27000964,,,,,,,0.075925954,0.333796289,1,0,0,0.9834,0,1,1,2,1,c,images/br_c.png,images/cb_c.png,,,,,,,,,,,,,,,,,,,,,,,,,,,,,,,,,,,,,,,,,,,,,,,
,,,,,,00067,2023-10-18_14h35.27.900,vbt_B2_day2,2022.2.4,Win32,60.27000964,,,,,,,0.075925954,0.333796289,1,0,0,0.3018,0,2,2,12,1,m,images/br_m.png,images/cb_m.png,,,,,,,,,,,,,,,,,,,,,,,,,,,,,,,,,,,,,,,,,,,,,,,
,,,,,,00067,2023-10-18_14h35.27.900,vbt_B2_day2,2022.2.4,Win32,60.27000964,,,,,,,0.075925954,0.333796289,1,0,0,0.8419,0,3,3,19,1,t,images/br_t.png,images/cb_t.png,,,,,,,,,,,,,,,,,,,,,,,,,,,,,,,,,,,,,,,,,,,,,,,
,,,,,,00067,2023-10-18_14h35.27.900,vbt_B2_day2,2022.2.4,Win32,60.27000964,,,,,,,0.075925954,0.333796289,1,0,0,4.1834,0,4,4,5,1,f,images/br_f.png,images/cb_f.png,,,,,,,,,,,,,,,,,,,,,,,,,,,,,,,,,,,,,,,,,,,,,,,
,,,,,,00067,2023-10-18_14h35.27.900,vbt_B2_day2,2022.2.4,Win32,60.27000964,,,,,,,0.075925954,0.333796289,1,0,0,0.5835,0,5,5,21,1,v,images/br_v.png,images/cb_v.png,,,,,,,,,,,,,,,,,,,,,,,,,,,,,,,,,,,,,,,,,,,,,,,
,,,,,,00067,2023-10-18_14h35.27.900,vbt_B2_day2,2022.2.4,Win32,60.27000964,,,,,,,0.075925954,0.333796289,1,0,0,0.9668,0,6,6,6,1,g,images/br_g.png,images/cb_g.png,,,,,,,,,,,,,,,,,,,,,,,,,,,,,,,,,,,,,,,,,,,,,,,
,,,,,,00067,2023-10-18_14h35.27.900,vbt_B2_day2,2022.2.4,Win32,60.27000964,,,,,,,0.030092621,0.333333333,1,0,0,11.7543,0,7,7,7,1,h,images/br_h.png,images/cb_h.png,,,,,,,,,,,,,,,,,,,,,,,,,,,,,,,,,,,,,,,,,,,,,,,
,,,,,,00067,2023-10-18_14h35.27.900,vbt_B2_day2,2022.2.4,Win32,60.27000964,,,,,,,0.169444444,-0.021759288,1,0,0,1.2832,0,8,8,24,1,y,images/br_y.png,images/cb_y.png,,,,,,,,,,,,,,,,,,,,,,,,,,,,,,,,,,,,,,,,,,,,,,,
,,,,,,00067,2023-10-18_14h35.27.900,vbt_B2_day2,2022.2.4,Win32,60.27000964,,,,,,,0.169444444,-0.021759288,1,0,0,0.1499,0,9,9,11,1,l,images/br_l.png,images/cb_l.png,,,,,,,,,,,,,,,,,,,,,,,,,,,,,,,,,,,,,,,,,,,,,,,
,,,,,,00067,2023-10-18_14h35.27.900,vbt_B2_day2,2022.2.4,Win32,60.27000964,,,,,,,0.174074131,-0.017592621,1,0,0,0.2001,0,10,10,23,1,x,images/br_x.png,images/cb_x.png,,,,,,,,,,,,,,,,,,,,,,,,,,,,,,,,,,,,,,,,,,,,,,,
,,,,,,00067,2023-10-18_14h35.27.900,vbt_B2_day2,2022.2.4,Win32,60.27000964,,,,,,,0.174074131,-0.017592621,1,0,0,2.2833,0,11,11,1,1,b,images/br_b.png,images/cb_b.png,,,,,,,,,,,,,,,,,,,,,,,,,,,,,,,,,,,,,,,,,,,,,,,
,,,,,,00067,2023-10-18_14h35.27.900,vbt_B2_day2,2022.2.4,Win32,60.27000964,,,,,,,0.174074131,-0.017592621,1,0,0,0.0668,0,12,12,17,1,r,images/br_r.png,images/cb_r.png,,,,,,,,,,,,,,,,,,,,,,,,,,,,,,,,,,,,,,,,,,,,,,,
,,,,,,00067,2023-10-18_14h35.27.900,vbt_B2_day2,2022.2.4,Win32,60.27000964,,,,,,,0.174074131,-0.017592621,1,0,0,3.7996,0,13,13,0,1,a,images/br_a.png,images/cb_a.png,,,,,,,,,,,,,,,,,,,,,,,,,,,,,,,,,,,,,,,,,,,,,,,
,,,,,,00067,2023-10-18_14h35.27.900,vbt_B2_day2,2022.2.4,Win32,60.27000964,,,,,,,0.176388889,-0.054629644,1,0,0,1.5833,0,14,14,16,1,q,images/br_q.png,images/cb_q.png,,,,,,,,,,,,,,,,,,,,,,,,,,,,,,,,,,,,,,,,,,,,,,,
,,,,,,00067,2023-10-18_14h35.27.900,vbt_B2_day2,2022.2.4,Win32,60.27000964,,,,,,,0.176388889,-0.054629644,1,0,0,0.3502,0,15,15,8,1,i,images/br_i.png,images/cb_i.png,,,,,,,,,,,,,,,,,,,,,,,,,,,,,,,,,,,,,,,,,,,,,,,
,,,,,,00067,2023-10-18_14h35.27.900,vbt_B2_day2,2022.2.4,Win32,60.27000964,,,,,,,0.181944444,0.000925912,1,0,0,1.9662,0,16,16,4,1,e,images/br_e.png,images/cb_e.png,,,,,,,,,,,,,,,,,,,,,,,,,,,,,,,,,,,,,,,,,,,,,,,
,,,,,,00067,2023-10-18_14h35.27.900,vbt_B2_day2,2022.2.4,Win32,60.27000964,,,,,,,0.217592621,0.036111111,1,0,0,0.7,0,17,17,25,1,z,images/br_z.png,images/cb_z.png,,,,,,,,,,,,,,,,,,,,,,,,,,,,,,,,,,,,,,,,,,,,,,,
,,,,,,00067,2023-10-18_14h35.27.900,vbt_B2_day2,2022.2.4,Win32,60.27000964,,,,,,,0.217592621,0.036111111,1,0,0,7.6956,0,18,18,9,1,j,images/br_j.png,images/cb_j.png,,,,,,,,,,,,,,,,,,,,,,,,,,,,,,,,,,,,,,,,,,,,,,,
,,,,,,00067,2023-10-18_14h35.27.900,vbt_B2_day2,2022.2.4,Win32,60.27000964,,,,,,,0.228240797,0.048148134,1,0,0,0.3833,0,19,19,18,1,s,images/br_s.png,images/cb_s.png,,,,,,,,,,,,,,,,,,,,,,,,,,,,,,,,,,,,,,,,,,,,,,,
,,,,,,00067,2023-10-18_14h35.27.900,vbt_B2_day2,2022.2.4,Win32,60.27000964,,,,,,,0.228240797,0.048148134,1,0,0,0.4334,0,20,20,15,1,p,images/br_p.png,images/cb_p.png,,,,,,,,,,,,,,,,,,,,,,,,,,,,,,,,,,,,,,,,,,,,,,,
,,,,,,00067,2023-10-18_14h35.27.900,vbt_B2_day2,2022.2.4,Win32,60.27000964,,,,,,,0.228240797,0.048148134,1,0,0,7.5498,0,21,21,10,1,k,images/br_k.png,images/cb_k.png,,,,,,,,,,,,,,,,,,,,,,,,,,,,,,,,,,,,,,,,,,,,,,,
,,,,,,00067,2023-10-18_14h35.27.900,vbt_B2_day2,2022.2.4,Win32,60.27000964,,,,,,,0.280092621,0.265740734,1,0,0,1.3,0,22,22,3,1,d,images/br_d.png,images/cb_d.png,,,,,,,,,,,,,,,,,,,,,,,,,,,,,,,,,,,,,,,,,,,,,,,
,,,,,,00067,2023-10-18_14h35.27.900,vbt_B2_day2,2022.2.4,Win32,60.27000964,,,,,,,0.280092621,0.265740734,1,0,0,0.2167,0,23,23,20,1,u,images/br_u.png,images/cb_u.png,,,,,,,,,,,,,,,,,,,,,,,,,,,,,,,,,,,,,,,,,,,,,,,
,,,,,,00067,2023-10-18_14h35.27.900,vbt_B2_day2,2022.2.4,Win32,60.27000964,,,,,,,0.280092621,0.265740734,1,0,0,0.2663,0,24,24,14,1,o,images/br_o.png,images/cb_o.png,,,,,,,,,,,,,,,,,,,,,,,,,,,,,,,,,,,,,,,,,,,,,,,
,,,,,,00067,2023-10-18_14h35.27.900,vbt_B2_day2,2022.2.4,Win32,60.27000964,,,,,,,0.280092621,0.265740734,1,0,0,0.0666,0,25,25,13,1,n,images/br_n.png,images/cb_n.png,,,,,,,,,,,,,,,,,,,,,,,,,,,,,,,,,,,,,,,,,,,,,,,
,,,,,,00067,2023-10-18_14h35.27.900,vbt_B2_day2,2022.2.4,Win32,60.27000964,,,,,,,,,,,,,,,,,,,,,0.388425954,0.292129623,1,0,0,15.2529,,,,,,,,,,,,,,,,,,,,,,,,,,,,,,,,,,,,,,,,,
,,,,,,00067,2023-10-18_14h35.27.900,vbt_B2_day2,2022.2.4,Win32,60.27000964,,,,,,,,,,,,,,,,,,,,,,,,,,,down,0,19.5172,tekst,,0.318055556,0.043981467,1,0,0,3.9572,0,0,0,58,1,tekst,images/br_tekst.png,images/cb_tekst.png,1,,,,,,,,,,,,,,,,,,,,,
,,,,,,00067,2023-10-18_14h35.27.900,vbt_B2_day2,2022.2.4,Win32,60.27000964,,,,,,,,,,,,,,,,,,,,,,,,,,,down,0,13.8665,,,0.317129686,0.043981467,1,0,0,4.3704,0,1,1,71,1,bever,images/br_bever.png,images/cb_bever.png,0,,,,,,,,,,,,,,,,,,,,,
,,,,,,00067,2023-10-18_14h35.27.900,vbt_B2_day2,2022.2.4,Win32,60.27000964,,,,,,,,,,,,,,,,,,,,,,,,,,,down,0,12.8994,,,0.317129686,0.043981467,1,0,0,6.4793,0,2,2,103,1,joggen,images/br_joggen.png,images/cb_joggen.png,0,,,,,,,,,,,,,,,,,,,,,
,,,,,,00067,2023-10-18_14h35.27.900,vbt_B2_day2,2022.2.4,Win32,60.27000964,,,,,,,,,,,,,,,,,,,,,,,,,,,down,0,7.4258,kreeft,,0.317129686,0.043981467,1,0,0,1.9334,0,3,3,98,1,kreeft,images/br_kreeft.png,images/cb_kreeft.png,1,,,,,,,,,,,,,,,,,,,,,
,,,,,,00067,2023-10-18_14h35.27.900,vbt_B2_day2,2022.2.4,Win32,60.27000964,,,,,,,,,,,,,,,,,,,,,,,,,,,down,0,11.5849,,,0.329166667,0.061111111,1,0,0,1.5166,0,4,4,135,1,gedicht,images/br_gedicht.png,images/cb_gedicht.png,0,,,,,,,,,,,,,,,,,,,,,
,,,,,,00067,2023-10-18_14h35.27.900,vbt_B2_day2,2022.2.4,Win32,60.27000964,,,,,,,,,,,,,,,,,,,,,,,,,,,down,0,3.9096,,,0.265277778,0.049074046,1,0,0,0.9833,0,5,5,1,1,zaal,images/br_zaal.png,images/cb_zaal.png,0,,,,,,,,,,,,,,,,,,,,,
,,,,,,00067,2023-10-18_14h35.27.900,vbt_B2_day2,2022.2.4,Win32,60.27000964,,,,,,,,,,,,,,,,,,,,,,,,,,,down,0,25.6146,,,0.295370399,0.071296268,1,0,0,9.8822,0,6,6,185,1,mijnheer,images/br_mijnheer.png,images/cb_mijnheer.png,0,,,,,,,,,,,,,,,,,,,,,
,,,,,,00067,2023-10-18_14h35.27.900,vbt_B2_day2,2022.2.4,Win32,60.27000964,,,,,,,,,,,,,,,,,,,,,,,,,,,down,0,2.478,,,0.296296353,0.071759245,1,0,0,0.6667,0,7,7,34,1,vorm,images/br_vorm.png,images/cb_vorm.png,0,,,,,,,,,,,,,,,,,,,,,
,,,,,,00067,2023-10-18_14h35.27.900,vbt_B2_day2,2022.2.4,Win32,60.27000964,,,,,,,,,,,,,,,,,,,,,,,,,,,down,0,1.5851,,,0.297222222,0.071759245,1,0,0,1.0328,0,8,8,35,1,lust,images/br_lust.png,images/cb_lust.png,0,,,,,,,,,,,,,,,,,,,,,
,,,,,,00067,2023-10-18_14h35.27.900,vbt_B2_day2,2022.2.4,Win32,60.27000964,,,,,,,,,,,,,,,,,,,,,,,,,,,down,0,12.1336,,,0.306018575,0.073148134,1,0,0,0.6329,0,9,9,152,1,afnemen,images/br_afnemen.png,images/cb_afnemen.png,0,,,,,,,,,,,,,,,,,,,,,
,,,,,,00067,2023-10-18_14h35.27.900,vbt_B2_day2,2022.2.4,Win32,60.27000964,,,,,,,,,,,,,,,,,,,,,,,,,,,down,0,2.5675,,,0.30648151,0.073148134,1,0,0,0.5998,0,10,10,41,1,maken,images/br_maken.png,images/cb_maken.png,0,,,,,,,,,,,,,,,,,,,,,
,,,,,,00067,2023-10-18_14h35.27.900,vbt_B2_day2,2022.2.4,Win32,60.27000964,,,,,,,,,,,,,,,,,,,,,,,,,,,down,0,6.5864,,,0.410648176,0.120833333,1,0,0,0.5826,0,11,11,88,1,boeien,images/br_boeien.png,images/cb_boeien.png,0,,,,,,,,,,,,,,,,,,,,,
,,,,,,00067,2023-10-18_14h35.27.900,vbt_B2_day2,2022.2.4,Win32,60.27000964,,,,,,,,,,,,,,,,,,,,,,,,,,,down,0,3.785,,,0.410648176,0.126388889,1,0,0,0.5667,0,12,12,73,1,volop,images/br_volop.png,images/cb_volop.png,0,,,,,,,,,,,,,,,,,,,,,
,,,,,,00067,2023-10-18_14h35.27.900,vbt_B2_day2,2022.2.4,Win32,60.27000964,,,,,,,,,,,,,,,,,,,,,,,,,,,down,0,6.3981,steek,,0.411574131,0.129629601,1,0,0,0.567,0,13,13,57,1,steek,images/br_steek.png,images/cb_steek.png,1,,,,,,,,,,,,,,,,,,,,,
,,,,,,00067,2023-10-18_14h35.27.900,vbt_B2_day2,2022.2.4,Win32,60.27000964,,,,,,,,,,,,,,,,,,,,,,,,,,,down,0,6.4845,,,0.356018575,0.054629601,1,0,0,0.5331,0,14,14,123,1,hiervan,images/br_hiervan.png,images/cb_hiervan.png,0,,,,,,,,,,,,,,,,,,,,,
,,,,,,00067,2023-10-18_14h35.27.900,vbt_B2_day2,2022.2.4,Win32,60.27000964,,,,,,,,,,,,,,,,,,,,,,,,,,,down,0,4.4821,slagen,,0.356018575,0.05601849,1,0,0,0.7874,0,15,15,96,1,slagen,images/br_slagen.png,images/cb_slagen.png,1,,,,,,,,,,,,,,,,,,,,,
,,,,,,00067,2023-10-18_14h35.27.900,vbt_B2_day2,2022.2.4,Win32,60.27000964,,,,,,,,,,,,,,,,,,,,,,,,,,,down,0,2.7179,,,0.261111111,0.066666667,1,0,0,1.2833,0,16,16,0,1,slak,images/br_slak.png,images/cb_slak.png,0,,,,,,,,,,,,,,,,,,,,,
,,,,,,00067,2023-10-18_14h35.27.900,vbt_B2_day2,2022.2.4,Win32,60.27000964,,,,,,,,,,,,,,,,,,,,,,,,,,,down,0,4.4335,,,0.261111111,0.070833333,1,0,0,0.5164,0,17,17,186,1,voorraad,images/br_voorraad.png,images/cb_voorraad.png,0,,,,,,,,,,,,,,,,,,,,,
,,,,,,00067,2023-10-18_14h35.27.900,vbt_B2_day2,2022.2.4,Win32,60.27000964,,,,,,,,,,,,,,,,,,,,,,,,,,,down,0,3.6831,,,0.259722222,0.112962935,1,0,0,0.5831,0,18,18,118,1,vinger,images/br_vinger.png,images/cb_vinger.png,0,,,,,,,,,,,,,,,,,,,,,
,,,,,,00067,2023-10-18_14h35.27.900,vbt_B2_day2,2022.2.4,Win32,60.27000964,,,,,,,,,,,,,,,,,,,,,,,,,,,down,0,9.3158,,,0.278703732,0.122685157,1,0,0,0.5189,0,19,19,150,1,gegeven,images/br_gegeven.png,images/cb_gegeven.png,0,,,,,,,,,,,,,,,,,,,,,
,,,,,,00067,2023-10-18_14h35.27.900,vbt_B2_day2,2022.2.4,Win32,60.27000964,,,,,,,,,,,,,,,,,,,,,,,,,,,down,0,10.0825,,,0.278240797,0.126388889,1,0,0,3.2829,0,20,20,82,1,muziek,images/br_muziek.png,images/cb_muziek.png,0,,,,,,,,,,,,,,,,,,,,,
,,,,,,00067,2023-10-18_14h35.27.900,vbt_B2_day2,2022.2.4,Win32,60.27000964,,,,,,,,,,,,,,,,,,,,,,,,,,,down,0,10.4336,,,0.635185242,0.203240734,1,0,0,0.5626,0,21,21,124,1,bloeien,images/br_bloeien.png,images/cb_bloeien.png,0,,,,,,,,,,,,,,,,,,,,,
,,,,,,00067,2023-10-18_14h35.27.900,vbt_B2_day2,2022.2.4,Win32,60.27000964,,,,,,,,,,,,,,,,,,,,,,,,,,,down,0,12.6327,,,0.292592621,0.216666667,1,0,0,0.7538,0,22,22,172,1,weigeren,images/br_weigeren.png,images/cb_weigeren.png,0,,,,,,,,,,,,,,,,,,,,,
,,,,,,00067,2023-10-18_14h35.27.900,vbt_B2_day2,2022.2.4,Win32,60.27000964,,,,,,,,,,,,,,,,,,,,,,,,,,,down,0,6.0667,,,0.292592621,0.218981467,1,0,0,0.5544,0,23,23,53,1,baron,images/br_baron.png,images/cb_baron.png,0,,,,,,,,,,,,,,,,,,,,,
,,,,,,00067,2023-10-18_14h35.27.900,vbt_B2_day2,2022.2.4,Win32,60.27000964,,,,,,,,,,,,,,,,,,,,,,,,,,,down,0,5.919,,,0.331018575,0.221759245,1,0,0,0.569,0,24,24,22,1,stof,images/br_stof.png,images/cb_stof.png,0,,,,,,,,,,,,,,,,,,,,,
,,,,,,00067,2023-10-18_14h35.27.900,vbt_B2_day2,2022.2.4,Win32,60.27000964,,,,,,,,,,,,,,,,,,,,,,,,,,,down,0,5.9334,,,0.345370399,0.221759245,1,0,0,0.5,0,25,25,192,1,schaamte,images/br_schaamte.png,images/cb_schaamte.png,0,,,,,,,,,,,,,,,,,,,,,
,,,,,,00067,2023-10-18_14h35.27.900,vbt_B2_day2,2022.2.4,Win32,60.27000964,,,,,,,,,,,,,,,,,,,,,,,,,,,down,0,3.6671,,,0.413888889,0.213425912,1,0,0,0.4997,0,26,26,78,1,leren,images/br_leren.png,images/cb_leren.png,0,,,,,,,,,,,,,,,,,,,,,
,,,,,,00067,2023-10-18_14h35.27.900,vbt_B2_day2,2022.2.4,Win32,60.27000964,,,,,,,,,,,,,,,,,,,,,,,,,,,down,0,7.3334,waarbij,,0.416203732,0.2199074,1,0,0,1.6001,0,27,27,136,1,waarbij,images/br_waarbij.png,images/cb_waarbij.png,1,,,,,,,,,,,,,,,,,,,,,
,,,,,,00067,2023-10-18_14h35.27.900,vbt_B2_day2,2022.2.4,Win32,60.27000964,,,,,,,,,,,,,,,,,,,,,,,,,,,down,0,9.5888,,,0.389814843,0.119444444,1,0,0,0.6833,0,28,28,190,1,goedkoop,images/br_goedkoop.png,images/cb_goedkoop.png,0,,,,,,,,,,,,,,,,,,,,,
,,,,,,00067,2023-10-18_14h35.27.900,vbt_B2_day2,2022.2.4,Win32,60.27000964,,,,,,,,,,,,,,,,,,,,,,,,,,,down,0,1.4675,,,0.4625,0.190277778,1,0,0,0.5998,0,29,29,50,1,stoom,images/br_stoom.png,images/cb_stoom.png,0,,,,,,,,,,,,,,,,,,,,,
,,,,,,00067,2023-10-18_14h35.27.900,vbt_B2_day2,2022.2.4,Win32,60.27000964,,,,,,,,,,,,,,,,,,,,,,,,,,,down,0,12.333,,,0.455555556,0.161111111,1,0,0,1.5969,0,30,30,113,1,koppen,images/br_koppen.png,images/cb_koppen.png,0,,,,,,,,,,,,,,,,,,,,,
,,,,,,00067,2023-10-18_14h35.27.900,vbt_B2_day2,2022.2.4,Win32,60.27000964,,,,,,,,,,,,,,,,,,,,,,,,,,,down,0,8.2862,,,0.471296353,0.195370356,1,0,0,0.6655,0,31,31,77,1,woede,images/br_woede.png,images/cb_woede.png,0,,,,,,,,,,,,,,,,,,,,,
,,,,,,00067,2023-10-18_14h35.27.900,vbt_B2_day2,2022.2.4,Win32,60.27000964,,,,,,,,,,,,,,,,,,,,,,,,,,,down,0,6.9892,,,0.472222222,0.197222222,1,0,0,0.5627,0,32,32,68,1,schat,images/br_schat.png,images/cb_schat.png,0,,,,,,,,,,,,,,,,,,,,,
,,,,,,00067,2023-10-18_14h35.27.900,vbt_B2_day2,2022.2.4,Win32,60.27000964,,,,,,,,,,,,,,,,,,,,,,,,,,,down,0,6.1493,,,0.480092621,0.195370356,1,0,0,0.55,0,33,33,87,1,toeval,images/br_toeval.png,images/cb_toeval.png,0,,,,,,,,,,,,,,,,,,,,,
,,,,,,00067,2023-10-18_14h35.27.900,vbt_B2_day2,2022.2.4,Win32,60.27000964,,,,,,,,,,,,,,,,,,,,,,,,,,,down,0,10.1664,,,0.440277778,0.178240734,1,0,0,0.5669,0,34,34,189,1,aanraden,images/br_aanraden.png,images/cb_aanraden.png,0,,,,,,,,,,,,,,,,,,,,,
,,,,,,00067,2023-10-18_14h35.27.900,vbt_B2_day2,2022.2.4,Win32,60.27000964,,,,,,,,,,,,,,,,,,,,,,,,,,,down,0,42.0651,,,0.440277778,0.178240734,1,0,0,4.6831,0,35,35,164,1,anarchie,images/br_anarchie.png,images/cb_anarchie.png,0,,,,,,,,,,,,,,,,,,,,,
,,,,,,00067,2023-10-18_14h35.27.900,vbt_B2_day2,2022.2.4,Win32,60.27000964,,,,,,,,,,,,,,,,,,,,,,,,,,,down,0,100.8764,,,0.4125,0.24120369,1,0,0,0.6331,0,36,36,45,1,piste,images/br_piste.png,images/cb_piste.png,0,,,,,,,,,,,,,,,,,,,,,
,,,,,,00067,2023-10-18_14h35.27.900,vbt_B2_day2,2022.2.4,Win32,60.27000964,,,,,,,,,,,,,,,,,,,,,,,,,,,down,0,12.1661,akkoord,,0.232870399,0.052314801,1,0,0,1.0337,0,37,37,138,1,akkoord,images/br_akkoord.png,images/cb_akkoord.png,1,,,,,,,,,,,,,,,,,,,,,
,,,,,,00067,2023-10-18_14h35.27.900,vbt_B2_day2,2022.2.4,Win32,60.27000964,,,,,,,,,,,,,,,,,,,,,,,,,,,down,0,12.448,woestijn,,0.231018575,0.052314801,1,0,0,0.8002,0,38,38,179,1,woestijn,images/br_woestijn.png,images/cb_woestijn.png,1,,,,,,,,,,,,,,,,,,,,,
,,,,,,00067,2023-10-18_14h35.27.900,vbt_B2_day2,2022.2.4,Win32,60.27000964,,,,,,,,,,,,,,,,,,,,,,,,,,,down,0,5.8337,,,0.228240797,0.052314801,1,0,0,0.9165,0,39,39,195,1,middelen,images/br_middelen.png,images/cb_middelen.png,0,,,,,,,,,,,,,,,,,,,,,
,,,,,,00067,2023-10-18_14h35.27.900,vbt_B2_day2,2022.2.4,Win32,60.27000964,,,,,,,,,,,,,,,,,,,,,,,,,,,down,0,16.9847,,,0.229166667,0.0625,1,0,0,1.5218,0,40,40,47,1,kabel,images/br_kabel.png,images/cb_kabel.png,0,,,,,,,,,,,,,,,,,,,,,
,,,,,,00067,2023-10-18_14h35.27.900,vbt_B2_day2,2022.2.4,Win32,60.27000964,,,,,,,,,,,,,,,,,,,,,,,,,,,down,0,7.717,,,0.229166667,0.0625,1,0,0,1.1001,0,41,41,181,1,toegeven,images/br_toegeven.png,images/cb_toegeven.png,0,,,,,,,,,,,,,,,,,,,,,
,,,,,,00067,2023-10-18_14h35.27.900,vbt_B2_day2,2022.2.4,Win32,60.27000964,,,,,,,,,,,,,,,,,,,,,,,,,,,down,0,0.5003,,,-0.051388889,0.239351845,1,0,0,11.1326,0,42,42,121,1,twijfel,images/br_twijfel.png,images/cb_twijfel.png,0,,,,,,,,,,,,,,,,,,,,,
,,,,,,00067,2023-10-18_14h35.27.900,vbt_B2_day2,2022.2.4,Win32,60.27000964,,,,,,,,,,,,,,,,,,,,,,,,,,,down,0,4.0362,,,-0.051388889,0.239351845,1,0,0,0.9338,0,43,43,46,1,jagen,images/br_jagen.png,images/cb_jagen.png,0,,,,,,,,,,,,,,,,,,,,,
,,,,,,00067,2023-10-18_14h35.27.900,vbt_B2_day2,2022.2.4,Win32,60.27000964,,,,,,,,,,,,,,,,,,,,,,,,,,,down,0,8.3337,,,-0.051388889,0.239351845,1,0,0,0.5665,0,44,44,141,1,knielen,images/br_knielen.png,images/cb_knielen.png,0,,,,,,,,,,,,,,,,,,,,,
,,,,,,00067,2023-10-18_14h35.27.900,vbt_B2_day2,2022.2.4,Win32,60.27000964,,,,,,,,,,,,,,,,,,,,,,,,,,,down,0,60.1321,,,-0.051388889,0.239351845,1,0,0,2.1491,0,45,45,140,1,blijven,images/br_blijven.png,images/cb_blijven.png,0,,,,,,,,,,,,,,,,,,,,,
,,,,,,00067,2023-10-18_14h35.27.900,vbt_B2_day2,2022.2.4,Win32,60.27000964,,,,,,,,,,,,,,,,,,,,,,,,,,,down,0,8.0007,maaltijd,,-0.053240712,0.238425912,1,0,0,4.1832,0,46,46,177,1,maaltijd,images/br_maaltijd.png,images/cb_maaltijd.png,1,,,,,,,,,,,,,,,,,,,,,
,,,,,,00067,2023-10-18_14h35.27.900,vbt_B2_day2,2022.2.4,Win32,60.27000964,,,,,,,,,,,,,,,,,,,,,,,,,,,down,0,2.9855,,,-0.053240712,0.238425912,1,0,0,1.5666,0,47,47,13,1,kaal,images/br_kaal.png,images/cb_kaal.png,0,,,,,,,,,,,,,,,,,,,,,
,,,,,,00067,2023-10-18_14h35.27.900,vbt_B2_day2,2022.2.4,Win32,60.27000964,,,,,,,,,,,,,,,,,,,,,,,,,,,down,0,4.0722,,,-0.008333333,0.215277778,1,0,0,0.8783,0,48,48,52,1,wagon,images/br_wagon.png,images/cb_wagon.png,0,,,,,,,,,,,,,,,,,,,,,
,,,,,,00067,2023-10-18_14h35.27.900,vbt_B2_day2,2022.2.4,Win32,60.27000964,,,,,,,,,,,,,,,,,,,,,,,,,,,down,0,25.2175,techniek,,-0.008333333,0.215740734,1,0,0,0.9305,0,49,49,176,1,techniek,images/br_techniek.png,images/cb_techniek.png,1,,,,,,,,,,,,,,,,,,,,,
,,,,,,00067,2023-10-18_14h35.27.900,vbt_B2_day2,2022.2.4,Win32,60.27000964,,,,,,,,,,,,,,,,,,,,,,,,,,,down,0,8.0185,,,-0.008333333,0.215740734,1,0,0,1.6499,0,50,50,155,1,gerucht,images/br_gerucht.png,images/cb_gerucht.png,0,,,,,,,,,,,,,,,,,,,,,
,,,,,,00067,2023-10-18_14h35.27.900,vbt_B2_day2,2022.2.4,Win32,60.27000964,,,,,,,,,,,,,,,,,,,,,,,,,,,down,0,9.3998,,,-0.006944444,0.217592578,1,0,0,0.5994,0,51,51,117,1,kennis,images/br_kennis.png,images/cb_kennis.png,0,,,,,,,,,,,,,,,,,,,,,
,,,,,,00067,2023-10-18_14h35.27.900,vbt_B2_day2,2022.2.4,Win32,60.27000964,,,,,,,,,,,,,,,,,,,,,,,,,,,down,0,1.2006,,,-0.006944444,0.217592578,1,0,0,0.7794,0,52,52,36,1,vuur,images/br_vuur.png,images/cb_vuur.png,0,,,,,,,,,,,,,,,,,,,,,
,,,,,,00067,2023-10-18_14h35.27.900,vbt_B2_day2,2022.2.4,Win32,60.27000964,,,,,,,,,,,,,,,,,,,,,,,,,,,down,0,2.9334,,,0.016666667,0.243518511,1,0,0,0.6532,0,53,53,102,1,legaal,images/br_legaal.png,images/cb_legaal.png,0,,,,,,,,,,,,,,,,,,,,,
,,,,,,00067,2023-10-18_14h35.27.900,vbt_B2_day2,2022.2.4,Win32,60.27000964,,,,,,,,,,,,,,,,,,,,,,,,,,,down,0,3.0329,,,0.014814843,0.245370356,1,0,0,1.2225,0,54,54,84,1,lokken,images/br_lokken.png,images/cb_lokken.png,0,,,,,,,,,,,,,,,,,,,,,
,,,,,,00067,2023-10-18_14h35.27.900,vbt_B2_day2,2022.2.4,Win32,60.27000964,,,,,,,,,,,,,,,,,,,,,,,,,,,down,0,8.6336,,,0.014814843,0.245370356,1,0,0,3.3497,0,55,55,165,1,feestdag,images/br_feestdag.png,images/cb_feestdag.png,0,,,,,,,,,,,,,,,,,,,,,
,,,,,,00067,2023-10-18_14h35.27.900,vbt_B2_day2,2022.2.4,Win32,60.27000964,,,,,,,,,,,,,,,,,,,,,,,,,,,down,0,3.6845,traag,,0.014351908,0.245370356,1,0,0,0.8847,0,56,56,56,1,traag,images/br_traag.png,images/cb_traag.png,1,,,,,,,,,,,,,,,,,,,,,
,,,,,,00067,2023-10-18_14h35.27.900,vbt_B2_day2,2022.2.4,Win32,60.27000964,,,,,,,,,,,,,,,,,,,,,,,,,,,down,0,7.6669,,,0.017129686,0.2574074,1,0,0,2.5489,0,57,57,23,1,zout,images/br_zout.png,images/cb_zout.png,0,,,,,,,,,,,,,,,,,,,,,
,,,,,,00067,2023-10-18_14h35.27.900,vbt_B2_day2,2022.2.4,Win32,60.27000964,,,,,,,,,,,,,,,,,,,,,,,,,,,down,0,6.0337,,,0.036111111,0.254166667,1,0,0,0.7835,0,58,58,63,1,flirt,images/br_flirt.png,images/cb_flirt.png,0,,,,,,,,,,,,,,,,,,,,,
,,,,,,00067,2023-10-18_14h35.27.900,vbt_B2_day2,2022.2.4,Win32,60.27000964,,,,,,,,,,,,,,,,,,,,,,,,,,,down,0,7.5003,,,0.0375,0.251388889,1,0,0,0.7499,0,59,59,91,1,gezond,images/br_gezond.png,images/cb_gezond.png,0,,,,,,,,,,,,,,,,,,,,,
,,,,,,00067,2023-10-18_14h35.27.900,vbt_B2_day2,2022.2.4,Win32,60.27000964,,,,,,,,,,,,,,,,,,,,,,,,,,,down,0,5.0008,,,0.059722222,0.269444444,1,0,0,0.6332,0,60,60,95,1,vreten,images/br_vreten.png,images/cb_vreten.png,0,,,,,,,,,,,,,,,,,,,,,
,,,,,,00067,2023-10-18_14h35.27.900,vbt_B2_day2,2022.2.4,Win32,60.27000964,,,,,,,,,,,,,,,,,,,,,,,,,,,down,0,1.4232,geit,,0.196296353,0.348148145,1,0,0,1.1629,0,61,61,19,1,geit,images/br_geit.png,images/cb_geit.png,1,,,,,,,,,,,,,,,,,,,,,
,,,,,,00067,2023-10-18_14h35.27.900,vbt_B2_day2,2022.2.4,Win32,60.27000964,,,,,,,,,,,,,,,,,,,,,,,,,,,down,0,8.2491,,,0.196296353,0.348148145,1,0,0,0.6159,0,62,62,180,1,openbaar,images/br_openbaar.png,images/cb_openbaar.png,0,,,,,,,,,,,,,,,,,,,,,
,,,,,,00067,2023-10-18_14h35.27.900,vbt_B2_day2,2022.2.4,Win32,60.27000964,,,,,,,,,,,,,,,,,,,,,,,,,,,down,0,3.7335,,,0.2,0.3375,1,0,0,1.0664,0,63,63,9,1,hier,images/br_hier.png,images/cb_hier.png,0,,,,,,,,,,,,,,,,,,,,,
,,,,,,00067,2023-10-18_14h35.27.900,vbt_B2_day2,2022.2.4,Win32,60.27000964,,,,,,,,,,,,,,,,,,,,,,,,,,,down,0,0.4492,,,0.184722222,0.300925912,1,0,0,1.0956,0,64,64,65,1,parel,images/br_parel.png,images/cb_parel.png,0,,,,,,,,,,,,,,,,,,,,,
,,,,,,00067,2023-10-18_14h35.27.900,vbt_B2_day2,2022.2.4,Win32,60.27000964,,,,,,,,,,,,,,,,,,,,,,,,,,,down,0,1.5682,,,0.185185242,0.301388889,1,0,0,1.1635,0,65,65,197,1,spanning,images/br_spanning.png,images/cb_spanning.png,0,,,,,,,,,,,,,,,,,,,,,
,,,,,,00067,2023-10-18_14h35.27.900,vbt_B2_day2,2022.2.4,Win32,60.27000964,,,,,,,,,,,,,,,,,,,,,,,,,,,down,0,0.0343,,,0.190277778,0.301388889,1,0,0,2.7167,0,66,66,28,1,stal,images/br_stal.png,images/cb_stal.png,0,,,,,,,,,,,,,,,,,,,,,
,,,,,,00067,2023-10-18_14h35.27.900,vbt_B2_day2,2022.2.4,Win32,60.27000964,,,,,,,,,,,,,,,,,,,,,,,,,,,down,0,0.4269,,,0.190277778,0.301388889,1,0,0,3.3496,0,67,67,168,1,bisschop,images/br_bisschop.png,images/cb_bisschop.png,0,,,,,,,,,,,,,,,,,,,,,
,,,,,,00067,2023-10-18_14h35.27.900,vbt_B2_day2,2022.2.4,Win32,60.27000964,,,,,,,,,,,,,,,,,,,,,,,,,,,down,0,1.9336,,,0.190277778,0.301388889,1,0,0,0.6999,0,68,68,42,1,bleek,images/br_bleek.png,images/cb_bleek.png,0,,,,,,,,,,,,,,,,,,,,,
,,,,,,00067,2023-10-18_14h35.27.900,vbt_B2_day2,2022.2.4,Win32,60.27000964,,,,,,,,,,,,,,,,,,,,,,,,,,,down,0,3.2233,,,0.190740797,0.299537023,1,0,0,0.6958,0,69,69,114,1,vullen,images/br_vullen.png,images/cb_vullen.png,0,,,,,,,,,,,,,,,,,,,,,
,,,,,,00067,2023-10-18_14h35.27.900,vbt_B2_day2,2022.2.4,Win32,60.27000964,,,,,,,,,,,,,,,,,,,,,,,,,,,down,0,4.4486,,,0.193518575,0.298148134,1,0,0,1.0385,0,70,70,122,1,waarvan,images/br_waarvan.png,images/cb_waarvan.png,0,,,,,,,,,,,,,,,,,,,,,
,,,,,,00067,2023-10-18_14h35.27.900,vbt_B2_day2,2022.2.4,Win32,60.27000964,,,,,,,,,,,,,,,,,,,,,,,,,,,down,0,9.1768,,,0.191666667,0.314351845,1,0,0,5.3102,0,71,71,119,1,liefje,images/br_liefje.png,images/cb_liefje.png,0,,,,,,,,,,,,,,,,,,,,,
,,,,,,00067,2023-10-18_14h35.27.900,vbt_B2_day2,2022.2.4,Win32,60.27000964,,,,,,,,,,,,,,,,,,,,,,,,,,,down,0,6.4495,,,0.191666667,0.314351845,1,0,0,0.6624,0,72,72,128,1,prikken,images/br_prikken.png,images/cb_prikken.png,0,,,,,,,,,,,,,,,,,,,,,
,,,,,,00067,2023-10-18_14h35.27.900,vbt_B2_day2,2022.2.4,Win32,60.27000964,,,,,,,,,,,,,,,,,,,,,,,,,,,down,0,54.6967,,,0.191666667,0.314351845,1,0,0,1.7828,0,73,73,162,1,uitdelen,images/br_uitdelen.png,images/cb_uitdelen.png,0,,,,,,,,,,,,,,,,,,,,,
,,,,,,00067,2023-10-18_14h35.27.900,vbt_B2_day2,2022.2.4,Win32,60.27000964,,,,,,,,,,,,,,,,,,,,,,,,,,,down,0,1.1674,,,0.191666667,0.314351845,1,0,0,2.2998,0,74,74,43,1,klauw,images/br_klauw.png,images/cb_klauw.png,0,,,,,,,,,,,,,,,,,,,,,
,,,,,,00067,2023-10-18_14h35.27.900,vbt_B2_day2,2022.2.4,Win32,60.27000964,,,,,,,,,,,,,,,,,,,,,,,,,,,down,0,3.8493,,,0.191666667,0.314351845,1,0,0,1.1135,0,75,75,37,1,mijn,images/br_mijn.png,images/cb_mijn.png,0,,,,,,,,,,,,,,,,,,,,,
,,,,,,00067,2023-10-18_14h35.27.900,vbt_B2_day2,2022.2.4,Win32,60.27000964,,,,,,,,,,,,,,,,,,,,,,,,,,,down,0,4.1677,,,0.191666667,0.314351845,1,0,0,0.9295,0,76,76,173,1,apparaat,images/br_apparaat.png,images/cb_apparaat.png,0,,,,,,,,,,,,,,,,,,,,,
,,,,,,00067,2023-10-18_14h35.27.900,vbt_B2_day2,2022.2.4,Win32,60.27000964,,,,,,,,,,,,,,,,,,,,,,,,,,,down,0,8.235,,,0.191666667,0.314351845,1,0,0,2.9698,0,77,77,158,1,innemen,images/br_innemen.png,images/cb_innemen.png,0,,,,,,,,,,,,,,,,,,,,,
,,,,,,00067,2023-10-18_14h35.27.900,vbt_B2_day2,2022.2.4,Win32,60.27000964,,,,,,,,,,,,,,,,,,,,,,,,,,,down,0,1.2004,,,0.191666667,0.314351845,1,0,0,1.3675,0,78,78,48,1,steel,images/br_steel.png,images/cb_steel.png,0,,,,,,,,,,,,,,,,,,,,,
,,,,,,00067,2023-10-18_14h35.27.900,vbt_B2_day2,2022.2.4,Win32,60.27000964,,,,,,,,,,,,,,,,,,,,,,,,,,,down,0,3.9336,loyaal,,0.191666667,0.314351845,1,0,0,0.6999,0,79,79,97,1,loyaal,images/br_loyaal.png,images/cb_loyaal.png,1,,,,,,,,,,,,,,,,,,,,,
,,,,,,00067,2023-10-18_14h35.27.900,vbt_B2_day2,2022.2.4,Win32,60.27000964,,,,,,,,,,,,,,,,,,,,,,,,,,,down,0,5.7346,,,0.191666667,0.314351845,1,0,0,1.1498,0,80,80,188,1,strekken,images/br_strekken.png,images/cb_strekken.png,0,,,,,,,,,,,,,,,,,,,,,
,,,,,,00067,2023-10-18_14h35.27.900,vbt_B2_day2,2022.2.4,Win32,60.27000964,,,,,,,,,,,,,,,,,,,,,,,,,,,down,0,2.9336,,,0.186574131,0.3125,1,0,0,1.0165,0,81,81,129,1,verhaal,images/br_verhaal.png,images/cb_verhaal.png,0,,,,,,,,,,,,,,,,,,,,,
,,,,,,00067,2023-10-18_14h35.27.900,vbt_B2_day2,2022.2.4,Win32,60.27000964,,,,,,,,,,,,,,,,,,,,,,,,,,,down,0,1.3339,,,0.1875,0.321759245,1,0,0,0.8831,0,82,82,33,1,vlek,images/br_vlek.png,images/cb_vlek.png,0,,,,,,,,,,,,,,,,,,,,,
,,,,,,00067,2023-10-18_14h35.27.900,vbt_B2_day2,2022.2.4,Win32,60.27000964,,,,,,,,,,,,,,,,,,,,,,,,,,,down,0,5.6834,,,0.196296353,0.324537034,1,0,0,0.6977,0,83,83,4,1,moes,images/br_moes.png,images/cb_moes.png,0,,,,,,,,,,,,,,,,,,,,,
,,,,,,00067,2023-10-18_14h35.27.900,vbt_B2_day2,2022.2.4,Win32,60.27000964,,,,,,,,,,,,,,,,,,,,,,,,,,,down,0,0.1823,,,0.208333333,0.329629623,1,0,0,3.1024,0,84,84,174,1,stemming,images/br_stemming.png,images/cb_stemming.png,0,,,,,,,,,,,,,,,,,,,,,
,,,,,,00067,2023-10-18_14h35.27.900,vbt_B2_day2,2022.2.4,Win32,60.27000964,,,,,,,,,,,,,,,,,,,,,,,,,,,down,0,8.5839,,,0.202777778,0.333796289,1,0,0,5.9969,0,85,85,182,1,bijkomen,images/br_bijkomen.png,images/cb_bijkomen.png,0,,,,,,,,,,,,,,,,,,,,,
,,,,,,00067,2023-10-18_14h35.27.900,vbt_B2_day2,2022.2.4,Win32,60.27000964,,,,,,,,,,,,,,,,,,,,,,,,,,,down,0,37.3486,,,0.203240797,0.333796289,1,0,0,1.5835,0,86,86,51,1,samen,images/br_samen.png,images/cb_samen.png,0,,,,,,,,,,,,,,,,,,,,,
,,,,,,00067,2023-10-18_14h35.27.900,vbt_B2_day2,2022.2.4,Win32,60.27000964,,,,,,,,,,,,,,,,,,,,,,,,,,,down,0,11.8856,,,0.474537065,-0.443055556,1,0,0,2.2002,0,87,87,75,1,snoep,images/br_snoep.png,images/cb_snoep.png,0,,,,,,,,,,,,,,,,,,,,,
,,,,,,00067,2023-10-18_14h35.27.900,vbt_B2_day2,2022.2.4,Win32,60.27000964,,,,,,,,,,,,,,,,,,,,,,,,,,,down,0,6.6939,,,0.218518575,0.345833333,1,0,0,0.9358,0,88,88,12,1,kust,images/br_kust.png,images/cb_kust.png,0,,,,,,,,,,,,,,,,,,,,,
,,,,,,00067,2023-10-18_14h35.27.900,vbt_B2_day2,2022.2.4,Win32,60.27000964,,,,,,,,,,,,,,,,,,,,,,,,,,,down,0,10.116,,,0.189814843,0.168518511,1,0,0,1.3198,0,89,89,156,1,rechten,images/br_rechten.png,images/cb_rechten.png,0,,,,,,,,,,,,,,,,,,,,,
,,,,,,00067,2023-10-18_14h35.27.900,vbt_B2_day2,2022.2.4,Win32,60.27000964,,,,,,,,,,,,,,,,,,,,,,,,,,,down,0,0.283,,,0.19398151,0.169444444,1,0,0,0.9332,0,90,90,115,1,kleren,images/br_kleren.png,images/cb_kleren.png,0,,,,,,,,,,,,,,,,,,,,,
,,,,,,00067,2023-10-18_14h35.27.900,vbt_B2_day2,2022.2.4,Win32,60.27000964,,,,,,,,,,,,,,,,,,,,,,,,,,,down,0,7.3428,,,0.19398151,0.169444444,1,0,0,1.7191,0,91,91,80,1,kanjer,images/br_kanjer.png,images/cb_kanjer.png,0,,,,,,,,,,,,,,,,,,,,,
,,,,,,00067,2023-10-18_14h35.27.900,vbt_B2_day2,2022.2.4,Win32,60.27000964,,,,,,,,,,,,,,,,,,,,,,,,,,,down,0,15.0156,,,0.220370399,0.088888889,1,0,0,3.9495,0,92,92,163,1,schuilen,images/br_schuilen.png,images/cb_schuilen.png,0,,,,,,,,,,,,,,,,,,,,,
,,,,,,00067,2023-10-18_14h35.27.900,vbt_B2_day2,2022.2.4,Win32,60.27000964,,,,,,,,,,,,,,,,,,,,,,,,,,,down,0,1.7839,,,0.20648151,0.075,1,0,0,0.5998,0,93,93,2,1,jaar,images/br_jaar.png,images/cb_jaar.png,0,,,,,,,,,,,,,,,,,,,,,
,,,,,,00067,2023-10-18_14h35.27.900,vbt_B2_day2,2022.2.4,Win32,60.27000964,,,,,,,,,,,,,,,,,,,,,,,,,,,down,0,2.8341,,,0.207407464,0.075,1,0,0,0.6475,0,94,94,62,1,knaap,images/br_knaap.png,images/cb_knaap.png,0,,,,,,,,,,,,,,,,,,,,,
,,,,,,00067,2023-10-18_14h35.27.900,vbt_B2_day2,2022.2.4,Win32,60.27000964,,,,,,,,,,,,,,,,,,,,,,,,,,,down,0,1.293,,,0.207407464,0.075462935,1,0,0,0.6666,0,95,95,143,1,hechten,images/br_hechten.png,images/cb_hechten.png,0,,,,,,,,,,,,,,,,,,,,,
,,,,,,00067,2023-10-18_14h35.27.900,vbt_B2_day2,2022.2.4,Win32,60.27000964,,,,,,,,,,,,,,,,,,,,,,,,,,,down,0,4.0685,,,0.194907464,0.093055556,1,0,0,0.8498,0,96,96,110,1,zuster,images/br_zuster.png,images/cb_zuster.png,0,,,,,,,,,,,,,,,,,,,,,
,,,,,,00067,2023-10-18_14h35.27.900,vbt_B2_day2,2022.2.4,Win32,60.27000964,,,,,,,,,,,,,,,,,,,,,,,,,,,down,0,12.8992,,,0.194907464,0.093055556,1,0,0,1.2326,0,97,97,81,1,dubbel,images/br_dubbel.png,images/cb_dubbel.png,0,,,,,,,,,,,,,,,,,,,,,
,,,,,,00067,2023-10-18_14h35.27.900,vbt_B2_day2,2022.2.4,Win32,60.27000964,,,,,,,,,,,,,,,,,,,,,,,,,,,down,0,9.4671,,,0.194907464,0.093055556,1,0,0,1.1997,0,98,98,196,1,nakijken,images/br_nakijken.png,images/cb_nakijken.png,0,,,,,,,,,,,,,,,,,,,,,
,,,,,,00067,2023-10-18_14h35.27.900,vbt_B2_day2,2022.2.4,Win32,60.27000964,,,,,,,,,,,,,,,,,,,,,,,,,,,down,0,4.9834,,,0.194907464,0.093055556,1,0,0,1.7014,0,99,99,175,1,heengaan,images/br_heengaan.png,images/cb_heengaan.png,0,,,,,,,,,,,,,,,,,,,,,
,,,,,,00067,2023-10-18_14h35.27.900,vbt_B2_day2,2022.2.4,Win32,60.27000964,,,,,,,,,,,,,,,,,,,,,,,,,,,down,0,2.6673,,,0.193518575,0.093055556,1,0,0,1.2827,0,100,100,92,1,geheim,images/br_geheim.png,images/cb_geheim.png,0,,,,,,,,,,,,,,,,,,,,,
,,,,,,00067,2023-10-18_14h35.27.900,vbt_B2_day2,2022.2.4,Win32,60.27000964,,,,,,,,,,,,,,,,,,,,,,,,,,,down,0,1.834,,,0.193518575,0.093055556,1,0,0,1.0332,0,101,101,20,1,site,images/br_site.png,images/cb_site.png,0,,,,,,,,,,,,,,,,,,,,,
,,,,,,00067,2023-10-18_14h35.27.900,vbt_B2_day2,2022.2.4,Win32,60.27000964,,,,,,,,,,,,,,,,,,,,,,,,,,,down,0,1.5834,,,0.193518575,0.093055556,1,0,0,1.7662,0,102,102,72,1,strak,images/br_strak.png,images/cb_strak.png,0,,,,,,,,,,,,,,,,,,,,,
,,,,,,00067,2023-10-18_14h35.27.900,vbt_B2_day2,2022.2.4,Win32,60.27000964,,,,,,,,,,,,,,,,,,,,,,,,,,,down,0,0.4675,,,0.193518575,0.093055556,1,0,0,0.7194,0,103,103,15,1,soda,images/br_soda.png,images/cb_soda.png,0,,,,,,,,,,,,,,,,,,,,,
,,,,,,00067,2023-10-18_14h35.27.900,vbt_B2_day2,2022.2.4,Win32,60.27000964,,,,,,,,,,,,,,,,,,,,,,,,,,,down,0,2.8833,,,0.193518575,0.093055556,1,0,0,0.8874,0,104,104,144,1,eetlust,images/br_eetlust.png,images/cb_eetlust.png,0,,,,,,,,,,,,,,,,,,,,,
,,,,,,00067,2023-10-18_14h35.27.900,vbt_B2_day2,2022.2.4,Win32,60.27000964,,,,,,,,,,,,,,,,,,,,,,,,,,,down,0,18.951,taal,,0.174074131,0.100925912,1,0,0,0.7169,0,105,105,17,1,taal,images/br_taal.png,images/cb_taal.png,1,,,,,,,,,,,,,,,,,,,,,
,,,,,,00067,2023-10-18_14h35.27.900,vbt_B2_day2,2022.2.4,Win32,60.27000964,,,,,,,,,,,,,,,,,,,,,,,,,,,down,0,68.6797,,,-0.364814801,-0.181944444,1,0,0,1.3554,0,106,106,54,1,gebit,images/br_gebit.png,images/cb_gebit.png,0,,,,,,,,,,,,,,,,,,,,,
,,,,,,00067,2023-10-18_14h35.27.900,vbt_B2_day2,2022.2.4,Win32,60.27000964,,,,,,,,,,,,,,,,,,,,,,,,,,,down,0,24.799,,,-0.364814801,-0.181944444,1,0,0,6.4658,0,107,107,161,1,attentie,images/br_attentie.png,images/cb_attentie.png,0,,,,,,,,,,,,,,,,,,,,,
,,,,,,00067,2023-10-18_14h35.27.900,vbt_B2_day2,2022.2.4,Win32,60.27000964,,,,,,,,,,,,,,,,,,,,,,,,,,,down,0,0.1337,,,-0.364814801,-0.181944444,1,0,0,1.6996,0,108,108,21,1,mist,images/br_mist.png,images/cb_mist.png,0,,,,,,,,,,,,,,,,,,,,,
,,,,,,00067,2023-10-18_14h35.27.900,vbt_B2_day2,2022.2.4,Win32,60.27000964,,,,,,,,,,,,,,,,,,,,,,,,,,,down,0,4.9005,,,-0.364814801,-0.181944444,1,0,0,1.0529,0,109,109,24,1,jurk,images/br_jurk.png,images/cb_jurk.png,0,,,,,,,,,,,,,,,,,,,,,
,,,,,,00067,2023-10-18_14h35.27.900,vbt_B2_day2,2022.2.4,Win32,60.27000964,,,,,,,,,,,,,,,,,,,,,,,,,,,down,0,14.8164,,,-0.364814801,-0.181944444,1,0,0,0.8194,0,110,110,86,1,woning,images/br_woning.png,images/cb_woning.png,0,,,,,,,,,,,,,,,,,,,,,
,,,,,,00067,2023-10-18_14h35.27.900,vbt_B2_day2,2022.2.4,Win32,60.27000964,,,,,,,,,,,,,,,,,,,,,,,,,,,down,0,20.5983,blik,,0.610648261,0.261574067,1,0,0,0.718,0,111,111,18,1,blik,images/br_blik.png,images/cb_blik.png,1,,,,,,,,,,,,,,,,,,,,,
,,,,,,00067,2023-10-18_14h35.27.900,vbt_B2_day2,2022.2.4,Win32,60.27000964,,,,,,,,,,,,,,,,,,,,,,,,,,,down,0,3.185,,,0.610648261,0.261574067,1,0,0,0.5996,0,112,112,60,1,jasje,images/br_jasje.png,images/cb_jasje.png,0,,,,,,,,,,,,,,,,,,,,,
,,,,,,00067,2023-10-18_14h35.27.900,vbt_B2_day2,2022.2.4,Win32,60.27000964,,,,,,,,,,,,,,,,,,,,,,,,,,,down,0,1.4165,,,0.503703732,0.089814801,1,0,0,0.8306,0,113,113,109,1,totaal,images/br_totaal.png,images/cb_totaal.png,0,,,,,,,,,,,,,,,,,,,,,
,,,,,,00067,2023-10-18_14h35.27.900,vbt_B2_day2,2022.2.4,Win32,60.27000964,,,,,,,,,,,,,,,,,,,,,,,,,,,down,0,8.067,,,0.382870399,0.062037023,1,0,0,3.4497,0,114,114,38,1,baai,images/br_baai.png,images/cb_baai.png,0,,,,,,,,,,,,,,,,,,,,,
,,,,,,00067,2023-10-18_14h35.27.900,vbt_B2_day2,2022.2.4,Win32,60.27000964,,,,,,,,,,,,,,,,,,,,,,,,,,,down,0,10.9328,,,0.326388889,0.031944444,1,0,0,0.6333,0,115,115,32,1,palm,images/br_palm.png,images/cb_palm.png,0,,,,,,,,,,,,,,,,,,,,,
,,,,,,00067,2023-10-18_14h35.27.900,vbt_B2_day2,2022.2.4,Win32,60.27000964,,,,,,,,,,,,,,,,,,,,,,,,,,,down,0,1.7006,,,0.273148176,0.054166667,1,0,0,0.8682,0,116,116,184,1,aandelen,images/br_aandelen.png,images/cb_aandelen.png,0,,,,,,,,,,,,,,,,,,,,,
,,,,,,00067,2023-10-18_14h35.27.900,vbt_B2_day2,2022.2.4,Win32,60.27000964,,,,,,,,,,,,,,,,,,,,,,,,,,,down,0,11.5534,trekker,,0.269907464,0.054166667,1,0,0,0.6824,0,117,117,137,1,trekker,images/br_trekker.png,images/cb_trekker.png,1,,,,,,,,,,,,,,,,,,,,,
,,,,,,00067,2023-10-18_14h35.27.900,vbt_B2_day2,2022.2.4,Win32,60.27000964,,,,,,,,,,,,,,,,,,,,,,,,,,,down,0,0.4368,,,0.269907464,0.054166667,1,0,0,1.4151,0,118,118,104,1,zweven,images/br_zweven.png,images/cb_zweven.png,0,,,,,,,,,,,,,,,,,,,,,
,,,,,,00067,2023-10-18_14h35.27.900,vbt_B2_day2,2022.2.4,Win32,60.27000964,,,,,,,,,,,,,,,,,,,,,,,,,,,down,0,2.8013,,,0.241666667,0.070833333,1,0,0,5.649,0,119,119,157,1,uitlaat,images/br_uitlaat.png,images/cb_uitlaat.png,0,,,,,,,,,,,,,,,,,,,,,
,,,,,,00067,2023-10-18_14h35.27.900,vbt_B2_day2,2022.2.4,Win32,60.27000964,,,,,,,,,,,,,,,,,,,,,,,,,,,down,0,7.101,,,0.234259288,0.082870356,1,0,0,0.9486,0,120,120,170,1,schatten,images/br_schatten.png,images/cb_schatten.png,0,,,,,,,,,,,,,,,,,,,,,
,,,,,,00067,2023-10-18_14h35.27.900,vbt_B2_day2,2022.2.4,Win32,60.27000964,,,,,,,,,,,,,,,,,,,,,,,,,,,down,0,2.9183,,,0.234722222,0.082870356,1,0,0,1.919,0,121,121,194,1,driemaal,images/br_driemaal.png,images/cb_driemaal.png,0,,,,,,,,,,,,,,,,,,,,,
,,,,,,00067,2023-10-18_14h35.27.900,vbt_B2_day2,2022.2.4,Win32,60.27000964,,,,,,,,,,,,,,,,,,,,,,,,,,,down,0,17.6469,stiekem,,0.234722222,0.082870356,1,0,0,0.7872,0,122,122,139,1,stiekem,images/br_stiekem.png,images/cb_stiekem.png,1,,,,,,,,,,,,,,,,,,,,,
,,,,,,00067,2023-10-18_14h35.27.900,vbt_B2_day2,2022.2.4,Win32,60.27000964,,,,,,,,,,,,,,,,,,,,,,,,,,,down,0,3.4673,,,0.233333333,0.108796268,1,0,0,0.85,0,123,123,120,1,klimmen,images/br_klimmen.png,images/cb_klimmen.png,0,,,,,,,,,,,,,,,,,,,,,
,,,,,,00067,2023-10-18_14h35.27.900,vbt_B2_day2,2022.2.4,Win32,60.27000964,,,,,,,,,,,,,,,,,,,,,,,,,,,down,0,3.0504,,,0.233333333,0.109722222,1,0,0,0.8486,0,124,124,166,1,strikken,images/br_strikken.png,images/cb_strikken.png,0,,,,,,,,,,,,,,,,,,,,,
,,,,,,00067,2023-10-18_14h35.27.900,vbt_B2_day2,2022.2.4,Win32,60.27000964,,,,,,,,,,,,,,,,,,,,,,,,,,,down,0,0.6514,,,0.233333333,0.109722222,1,0,0,0.6166,0,125,125,74,1,graaf,images/br_graaf.png,images/cb_graaf.png,0,,,,,,,,,,,,,,,,,,,,,
,,,,,,00067,2023-10-18_14h35.27.900,vbt_B2_day2,2022.2.4,Win32,60.27000964,,,,,,,,,,,,,,,,,,,,,,,,,,,down,0,0.2007,,,0.233333333,0.109722222,1,0,0,3.2163,0,126,126,187,1,opkijken,images/br_opkijken.png,images/cb_opkijken.png,0,,,,,,,,,,,,,,,,,,,,,
,,,,,,00067,2023-10-18_14h35.27.900,vbt_B2_day2,2022.2.4,Win32,60.27000964,,,,,,,,,,,,,,,,,,,,,,,,,,,down,0,1.8342,,,0.233333333,0.109722222,1,0,0,0.7353,0,127,127,11,1,mode,images/br_mode.png,images/cb_mode.png,0,,,,,,,,,,,,,,,,,,,,,
,,,,,,00067,2023-10-18_14h35.27.900,vbt_B2_day2,2022.2.4,Win32,60.27000964,,,,,,,,,,,,,,,,,,,,,,,,,,,down,0,6.3537,,,0.233333333,0.109722222,1,0,0,1.1333,0,128,128,132,1,grappen,images/br_grappen.png,images/cb_grappen.png,0,,,,,,,,,,,,,,,,,,,,,
,,,,,,00067,2023-10-18_14h35.27.900,vbt_B2_day2,2022.2.4,Win32,60.27000964,,,,,,,,,,,,,,,,,,,,,,,,,,,down,0,14.1667,,,0.233333333,0.109722222,1,0,0,1.4165,0,129,129,108,1,excuus,images/br_excuus.png,images/cb_excuus.png,0,,,,,,,,,,,,,,,,,,,,,
,,,,,,00067,2023-10-18_14h35.27.900,vbt_B2_day2,2022.2.4,Win32,60.27000964,,,,,,,,,,,,,,,,,,,,,,,,,,,down,0,5.2666,,,0.233333333,0.109722222,1,0,0,0.8838,0,130,130,151,1,aanzoek,images/br_aanzoek.png,images/cb_aanzoek.png,0,,,,,,,,,,,,,,,,,,,,,
,,,,,,00067,2023-10-18_14h35.27.900,vbt_B2_day2,2022.2.4,Win32,60.27000964,,,,,,,,,,,,,,,,,,,,,,,,,,,down,0,5.1834,,,0.233333333,0.109722222,1,0,0,2.033,0,131,131,94,1,oceaan,images/br_oceaan.png,images/cb_oceaan.png,0,,,,,,,,,,,,,,,,,,,,,
,,,,,,00067,2023-10-18_14h35.27.900,vbt_B2_day2,2022.2.4,Win32,60.27000964,,,,,,,,,,,,,,,,,,,,,,,,,,,down,0,8.6195,,,0.233333333,0.109722222,1,0,0,2.5309,0,132,132,70,1,ijdel,images/br_ijdel.png,images/cb_ijdel.png,0,,,,,,,,,,,,,,,,,,,,,
,,,,,,00067,2023-10-18_14h35.27.900,vbt_B2_day2,2022.2.4,Win32,60.27000964,,,,,,,,,,,,,,,,,,,,,,,,,,,down,0,2.085,,,0.233333333,0.109722222,1,0,0,1.0139,0,133,133,148,1,smullen,images/br_smullen.png,images/cb_smullen.png,0,,,,,,,,,,,,,,,,,,,,,
,,,,,,00067,2023-10-18_14h35.27.900,vbt_B2_day2,2022.2.4,Win32,60.27000964,,,,,,,,,,,,,,,,,,,,,,,,,,,down,0,2.9339,,,0.233333333,0.109722222,1,0,0,0.8666,0,134,134,79,1,nodig,images/br_nodig.png,images/cb_nodig.png,0,,,,,,,,,,,,,,,,,,,,,
,,,,,,00067,2023-10-18_14h35.27.900,vbt_B2_day2,2022.2.4,Win32,60.27000964,,,,,,,,,,,,,,,,,,,,,,,,,,,down,0,3.7343,,,0.233333333,0.109722222,1,0,0,0.9499,0,135,135,169,1,oprotten,images/br_oprotten.png,images/cb_oprotten.png,0,,,,,,,,,,,,,,,,,,,,,
,,,,,,00067,2023-10-18_14h35.27.900,vbt_B2_day2,2022.2.4,Win32,60.27000964,,,,,,,,,,,,,,,,,,,,,,,,,,,down,0,0.6228,,,0.233333333,0.109722222,1,0,0,1.0939,0,136,136,159,1,sufferd,images/br_sufferd.png,images/cb_sufferd.png,0,,,,,,,,,,,,,,,,,,,,,
,,,,,,00067,2023-10-18_14h35.27.900,vbt_B2_day2,2022.2.4,Win32,60.27000964,,,,,,,,,,,,,,,,,,,,,,,,,,,down,0,0.1182,,,0.233333333,0.109722222,1,0,0,0.7339,0,137,137,112,1,lukken,images/br_lukken.png,images/cb_lukken.png,0,,,,,,,,,,,,,,,,,,,,,
,,,,,,00067,2023-10-18_14h35.27.900,vbt_B2_day2,2022.2.4,Win32,60.27000964,,,,,,,,,,,,,,,,,,,,,,,,,,,down,0,0.35,,,0.233796353,0.109722222,1,0,0,1.0815,0,138,138,7,1,geld,images/br_geld.png,images/cb_geld.png,0,,,,,,,,,,,,,,,,,,,,,
,,,,,,00067,2023-10-18_14h35.27.900,vbt_B2_day2,2022.2.4,Win32,60.27000964,,,,,,,,,,,,,,,,,,,,,,,,,,,down,0,24.1707,huisdier,,0.233796353,0.109722222,1,0,0,1.0109,0,139,139,178,1,huisdier,images/br_huisdier.png,images/cb_huisdier.png,1,,,,,,,,,,,,,,,,,,,,,
,,,,,,00067,2023-10-18_14h35.27.900,vbt_B2_day2,2022.2.4,Win32,60.27000964,,,,,,,,,,,,,,,,,,,,,,,,,,,down,0,2.2625,,,0.233796353,0.109722222,1,0,0,1.6331,0,140,140,83,1,mening,images/br_mening.png,images/cb_mening.png,0,,,,,,,,,,,,,,,,,,,,,
,,,,,,00067,2023-10-18_14h35.27.900,vbt_B2_day2,2022.2.4,Win32,60.27000964,,,,,,,,,,,,,,,,,,,,,,,,,,,down,0,5.1953,nier,,0.233796353,0.109722222,1,0,0,1.2239,0,141,141,16,1,ziek,images/br_ziek.png,images/cb_ziek.png,1,,,,,,,,,,,,,,,,,,,,,
,,,,,,00067,2023-10-18_14h35.27.900,vbt_B2_day2,2022.2.4,Win32,60.27000964,,,,,,,,,,,,,,,,,,,,,,,,,,,down,0,3.8674,,,0.233796353,0.109722222,1,0,0,0.6667,0,142,142,183,1,getuigen,images/br_getuigen.png,images/cb_getuigen.png,0,,,,,,,,,,,,,,,,,,,,,
,,,,,,00067,2023-10-18_14h35.27.900,vbt_B2_day2,2022.2.4,Win32,60.27000964,,,,,,,,,,,,,,,,,,,,,,,,,,,down,0,3.6512,,,0.233796353,0.109722222,1,0,0,5.2701,0,143,143,116,1,besmet,images/br_besmet.png,images/cb_besmet.png,0,,,,,,,,,,,,,,,,,,,,,
,,,,,,00067,2023-10-18_14h35.27.900,vbt_B2_day2,2022.2.4,Win32,60.27000964,,,,,,,,,,,,,,,,,,,,,,,,,,,down,0,3.6656,,,0.233796353,0.109722222,0,1,0,0.9826,0,144,144,154,1,aflopen,images/br_aflopen.png,images/cb_aflopen.png,0,,,,,,,,,,,,,,,,,,,,,
,,,,,,00067,2023-10-18_14h35.27.900,vbt_B2_day2,2022.2.4,Win32,60.27000964,,,,,,,,,,,,,,,,,,,,,,,,,,,down,0,2.4855,,,0.233796353,0.109722222,1,0,0,8.8319,0,145,145,100,1,geduld,images/br_geduld.png,images/cb_geduld.png,0,,,,,,,,,,,,,,,,,,,,,
,,,,,,00067,2023-10-18_14h35.27.900,vbt_B2_day2,2022.2.4,Win32,60.27000964,,,,,,,,,,,,,,,,,,,,,,,,,,,down,0,1.2391,,,0.233796353,0.109722222,1,0,0,3.427,0,146,146,101,1,staren,images/br_staren.png,images/cb_staren.png,0,,,,,,,,,,,,,,,,,,,,,
,,,,,,00067,2023-10-18_14h35.27.900,vbt_B2_day2,2022.2.4,Win32,60.27000964,,,,,,,,,,,,,,,,,,,,,,,,,,,down,0,1.1518,,,0.233796353,0.109722222,1,0,0,1.1163,0,147,147,3,1,mand,images/br_mand.png,images/cb_mand.png,0,,,,,,,,,,,,,,,,,,,,,
,,,,,,00067,2023-10-18_14h35.27.900,vbt_B2_day2,2022.2.4,Win32,60.27000964,,,,,,,,,,,,,,,,,,,,,,,,,,,down,0,1.8191,,,0.233796353,0.109722222,1,0,0,0.8332,0,148,148,111,1,ticket,images/br_ticket.png,images/cb_ticket.png,0,,,,,,,,,,,,,,,,,,,,,
,,,,,,00067,2023-10-18_14h35.27.900,vbt_B2_day2,2022.2.4,Win32,60.27000964,,,,,,,,,,,,,,,,,,,,,,,,,,,down,0,1.9521,,,0.233796353,0.109722222,1,0,0,1.5331,0,149,149,29,1,baas,images/br_baas.png,images/cb_baas.png,0,,,,,,,,,,,,,,,,,,,,,
,,,,,,00067,2023-10-18_14h35.27.900,vbt_B2_day2,2022.2.4,Win32,60.27000964,,,,,,,,,,,,,,,,,,,,,,,,,,,down,0,3.5167,,,0.233796353,0.109722222,1,0,0,0.9163,0,150,150,26,1,leuk,images/br_leuk.png,images/cb_leuk.png,0,,,,,,,,,,,,,,,,,,,,,
,,,,,,00067,2023-10-18_14h35.27.900,vbt_B2_day2,2022.2.4,Win32,60.27000964,,,,,,,,,,,,,,,,,,,,,,,,,,,down,0,1.4677,,,0.233796353,0.109722222,1,0,0,0.8484,0,151,151,69,1,waken,images/br_waken.png,images/cb_waken.png,0,,,,,,,,,,,,,,,,,,,,,
,,,,,,00067,2023-10-18_14h35.27.900,vbt_B2_day2,2022.2.4,Win32,60.27000964,,,,,,,,,,,,,,,,,,,,,,,,,,,down,0,8.9134,,,0.233796353,0.109722222,1,0,0,4.316,0,152,152,147,1,komisch,images/br_komisch.png,images/cb_komisch.png,0,,,,,,,,,,,,,,,,,,,,,
,,,,,,00067,2023-10-18_14h35.27.900,vbt_B2_day2,2022.2.4,Win32,60.27000964,,,,,,,,,,,,,,,,,,,,,,,,,,,down,0,2.501,,,0.233796353,0.109722222,1,0,0,1.0478,0,153,153,40,1,schep,images/br_schep.png,images/cb_schep.png,0,,,,,,,,,,,,,,,,,,,,,
,,,,,,00067,2023-10-18_14h35.27.900,vbt_B2_day2,2022.2.4,Win32,60.27000964,,,,,,,,,,,,,,,,,,,,,,,,,,,down,0,3.3675,,,0.233796353,0.109722222,1,0,0,1.7665,0,154,154,49,1,laken,images/br_laken.png,images/cb_laken.png,0,,,,,,,,,,,,,,,,,,,,,
,,,,,,00067,2023-10-18_14h35.27.900,vbt_B2_day2,2022.2.4,Win32,60.27000964,,,,,,,,,,,,,,,,,,,,,,,,,,,down,0,5.9863,,,0.237963019,0.109259245,1,0,0,5.8103,0,155,155,6,1,diep,images/br_diep.png,images/cb_diep.png,0,,,,,,,,,,,,,,,,,,,,,
,,,,,,00067,2023-10-18_14h35.27.900,vbt_B2_day2,2022.2.4,Win32,60.27000964,,,,,,,,,,,,,,,,,,,,,,,,,,,down,0,1.9507,,,0.239814843,0.1125,1,0,0,1.1984,0,156,156,66,1,lever,images/br_lever.png,images/cb_lever.png,0,,,,,,,,,,,,,,,,,,,,,
,,,,,,00067,2023-10-18_14h35.27.900,vbt_B2_day2,2022.2.4,Win32,60.27000964,,,,,,,,,,,,,,,,,,,,,,,,,,,down,0,8.3858,kring,,0.404629686,0.076851824,1,0,0,0.3992,0,157,157,59,1,kring,images/br_kring.png,images/cb_kring.png,1,,,,,,,,,,,,,,,,,,,,,
,,,,,,00067,2023-10-18_14h35.27.900,vbt_B2_day2,2022.2.4,Win32,60.27000964,,,,,,,,,,,,,,,,,,,,,,,,,,,down,0,1.401,,,0.404629686,0.076851824,1,0,0,0.851,0,158,158,76,1,afval,images/br_afval.png,images/cb_afval.png,0,,,,,,,,,,,,,,,,,,,,,
,,,,,,00067,2023-10-18_14h35.27.900,vbt_B2_day2,2022.2.4,Win32,60.27000964,,,,,,,,,,,,,,,,,,,,,,,,,,,down,0,0.2934,,,0.404629686,0.076851824,1,0,0,0.6425,0,159,159,198,1,bedoelen,images/br_bedoelen.png,images/cb_bedoelen.png,0,,,,,,,,,,,,,,,,,,,,,
,,,,,,00067,2023-10-18_14h35.27.900,vbt_B2_day2,2022.2.4,Win32,60.27000964,,,,,,,,,,,,,,,,,,,,,,,,,,,down,0,0.134,,,0.399537065,0.065277778,1,0,0,0.6163,0,160,160,55,1,praat,images/br_praat.png,images/cb_praat.png,0,,,,,,,,,,,,,,,,,,,,,
,,,,,,00067,2023-10-18_14h35.27.900,vbt_B2_day2,2022.2.4,Win32,60.27000964,,,,,,,,,,,,,,,,,,,,,,,,,,,down,0,1.7294,,,0.394444444,0.063425912,1,0,0,1.5485,0,161,161,27,1,dans,images/br_dans.png,images/cb_dans.png,0,,,,,,,,,,,,,,,,,,,,,
,,,,,,00067,2023-10-18_14h35.27.900,vbt_B2_day2,2022.2.4,Win32,60.27000964,,,,,,,,,,,,,,,,,,,,,,,,,,,down,0,0.3671,,,0.393518575,0.058333333,1,0,0,0.6326,0,162,162,89,1,slapen,images/br_slapen.png,images/cb_slapen.png,0,,,,,,,,,,,,,,,,,,,,,
,,,,,,00067,2023-10-18_14h35.27.900,vbt_B2_day2,2022.2.4,Win32,60.27000964,,,,,,,,,,,,,,,,,,,,,,,,,,,down,0,0.335,,,0.380555556,0.065277778,1,0,0,0.9194,0,163,163,160,1,daarheen,images/br_daarheen.png,images/cb_daarheen.png,0,,,,,,,,,,,,,,,,,,,,,
,,,,,,00067,2023-10-18_14h35.27.900,vbt_B2_day2,2022.2.4,Win32,60.27000964,,,,,,,,,,,,,,,,,,,,,,,,,,,down,0,1.3006,,,0.380555556,0.065277778,1,0,0,0.8996,0,164,164,30,1,uien,images/br_uien.png,images/cb_uien.png,0,,,,,,,,,,,,,,,,,,,,,
,,,,,,00067,2023-10-18_14h35.27.900,vbt_B2_day2,2022.2.4,Win32,60.27000964,,,,,,,,,,,,,,,,,,,,,,,,,,,down,0,2.0024,,,0.380555556,0.065277778,1,0,0,1.0307,0,165,165,167,1,eenhoorn,images/br_eenhoorn.png,images/cb_eenhoorn.png,0,,,,,,,,,,,,,,,,,,,,,
,,,,,,00067,2023-10-18_14h35.27.900,vbt_B2_day2,2022.2.4,Win32,60.27000964,,,,,,,,,,,,,,,,,,,,,,,,,,,down,0,0.2778,,,0.380555556,0.065277778,1,0,0,0.5636,0,166,166,61,1,groen,images/br_groen.png,images/cb_groen.png,0,,,,,,,,,,,,,,,,,,,,,
,,,,,,00067,2023-10-18_14h35.27.900,vbt_B2_day2,2022.2.4,Win32,60.27000964,,,,,,,,,,,,,,,,,,,,,,,,,,,down,0,1.1188,,,0.380555556,0.065277778,1,0,0,0.9336,0,167,167,134,1,geliefd,images/br_geliefd.png,images/cb_geliefd.png,0,,,,,,,,,,,,,,,,,,,,,
,,,,,,00067,2023-10-18_14h35.27.900,vbt_B2_day2,2022.2.4,Win32,60.27000964,,,,,,,,,,,,,,,,,,,,,,,,,,,down,0,0.3518,,,0.380555556,0.065277778,1,0,0,0.6413,0,168,168,8,1,knie,images/br_knie.png,images/cb_knie.png,0,,,,,,,,,,,,,,,,,,,,,
,,,,,,00067,2023-10-18_14h35.27.900,vbt_B2_day2,2022.2.4,Win32,60.27000964,,,,,,,,,,,,,,,,,,,,,,,,,,,down,0,0.2524,,,0.380555556,0.065277778,1,0,0,0.8354,0,169,169,44,1,flits,images/br_flits.png,images/cb_flits.png,0,,,,,,,,,,,,,,,,,,,,,
,,,,,,00067,2023-10-18_14h35.27.900,vbt_B2_day2,2022.2.4,Win32,60.27000964,,,,,,,,,,,,,,,,,,,,,,,,,,,down,0,0.2177,,,0.380555556,0.065277778,1,0,0,0.6496,0,170,170,133,1,seizoen,images/br_seizoen.png,images/cb_seizoen.png,0,,,,,,,,,,,,,,,,,,,,,
,,,,,,00067,2023-10-18_14h35.27.900,vbt_B2_day2,2022.2.4,Win32,60.27000964,,,,,,,,,,,,,,,,,,,,,,,,,,,down,0,0.0008,,,0.380555556,0.065277778,1,0,0,2.0017,0,171,171,85,1,heilig,images/br_heilig.png,images/cb_heilig.png,0,,,,,,,,,,,,,,,,,,,,,
,,,,,,00067,2023-10-18_14h35.27.900,vbt_B2_day2,2022.2.4,Win32,60.27000964,,,,,,,,,,,,,,,,,,,,,,,,,,,down,0,0.05,,,0.380555556,0.065277778,1,0,0,0.5209,0,172,172,106,1,zingen,images/br_zingen.png,images/cb_zingen.png,0,,,,,,,,,,,,,,,,,,,,,
,,,,,,00067,2023-10-18_14h35.27.900,vbt_B2_day2,2022.2.4,Win32,60.27000964,,,,,,,,,,,,,,,,,,,,,,,,,,,down,0,0.4336,,,0.380555556,0.065277778,1,0,0,0.8994,0,173,173,14,1,rijp,images/br_rijp.png,images/cb_rijp.png,0,,,,,,,,,,,,,,,,,,,,,
,,,,,,00067,2023-10-18_14h35.27.900,vbt_B2_day2,2022.2.4,Win32,60.27000964,,,,,,,,,,,,,,,,,,,,,,,,,,,down,0,1.9162,,,0.380555556,0.065277778,1,0,0,0.9837,0,174,174,171,1,aarzelen,images/br_aarzelen.png,images/cb_aarzelen.png,0,,,,,,,,,,,,,,,,,,,,,
,,,,,,00067,2023-10-18_14h35.27.900,vbt_B2_day2,2022.2.4,Win32,60.27000964,,,,,,,,,,,,,,,,,,,,,,,,,,,down,0,0.4195,,,0.380555556,0.065277778,1,0,0,1.0473,0,175,175,107,1,maling,images/br_maling.png,images/cb_maling.png,0,,,,,,,,,,,,,,,,,,,,,
,,,,,,00067,2023-10-18_14h35.27.900,vbt_B2_day2,2022.2.4,Win32,60.27000964,,,,,,,,,,,,,,,,,,,,,,,,,,,down,0,1.659,,,0.380555556,0.065277778,1,0,0,0.8361,0,176,176,191,1,opheffen,images/br_opheffen.png,images/cb_opheffen.png,0,,,,,,,,,,,,,,,,,,,,,
,,,,,,00067,2023-10-18_14h35.27.900,vbt_B2_day2,2022.2.4,Win32,60.27000964,,,,,,,,,,,,,,,,,,,,,,,,,,,down,0,0.5609,,,0.380555556,0.066666667,1,0,0,0.897,0,177,177,131,1,opzicht,images/br_opzicht.png,images/cb_opzicht.png,0,,,,,,,,,,,,,,,,,,,,,
,,,,,,00067,2023-10-18_14h35.27.900,vbt_B2_day2,2022.2.4,Win32,60.27000964,,,,,,,,,,,,,,,,,,,,,,,,,,,down,0,0.0768,,,0.382870399,0.063425912,1,0,0,1.8921,0,178,178,67,1,zwart,images/br_zwart.png,images/cb_zwart.png,0,,,,,,,,,,,,,,,,,,,,,
,,,,,,00067,2023-10-18_14h35.27.900,vbt_B2_day2,2022.2.4,Win32,60.27000964,,,,,,,,,,,,,,,,,,,,,,,,,,,down,0,2.4009,,,0.382870399,0.063425912,1,0,0,1.0888,0,179,179,142,1,snuiven,images/br_snuiven.png,images/cb_snuiven.png,0,,,,,,,,,,,,,,,,,,,,,
,,,,,,00067,2023-10-18_14h35.27.900,vbt_B2_day2,2022.2.4,Win32,60.27000964,,,,,,,,,,,,,,,,,,,,,,,,,,,down,0,4.0008,,,0.382870399,0.063425912,1,0,0,0.7497,0,180,180,145,1,invloed,images/br_invloed.png,images/cb_invloed.png,0,,,,,,,,,,,,,,,,,,,,,
,,,,,,00067,2023-10-18_14h35.27.900,vbt_B2_day2,2022.2.4,Win32,60.27000964,,,,,,,,,,,,,,,,,,,,,,,,,,,down,0,1.1676,,,0.379629686,0.063888889,1,0,0,0.8,0,181,181,25,1,plek,images/br_plek.png,images/cb_plek.png,0,,,,,,,,,,,,,,,,,,,,,
,,,,,,00067,2023-10-18_14h35.27.900,vbt_B2_day2,2022.2.4,Win32,60.27000964,,,,,,,,,,,,,,,,,,,,,,,,,,,down,0,0.2677,,,0.376388889,0.064351824,1,0,0,0.5357,0,182,182,93,1,waarop,images/br_waarop.png,images/cb_waarop.png,0,,,,,,,,,,,,,,,,,,,,,
,,,,,,00067,2023-10-18_14h35.27.900,vbt_B2_day2,2022.2.4,Win32,60.27000964,,,,,,,,,,,,,,,,,,,,,,,,,,,down,0,1.3833,,,0.376388889,0.064351824,1,0,0,1.2176,0,183,183,31,1,poes,images/br_poes.png,images/cb_poes.png,0,,,,,,,,,,,,,,,,,,,,,
,,,,,,00067,2023-10-18_14h35.27.900,vbt_B2_day2,2022.2.4,Win32,60.27000964,,,,,,,,,,,,,,,,,,,,,,,,,,,down,0,0.1501,,,0.376388889,0.064351824,1,0,0,0.5481,0,184,184,125,1,aanzien,images/br_aanzien.png,images/cb_aanzien.png,0,,,,,,,,,,,,,,,,,,,,,
,,,,,,00067,2023-10-18_14h35.27.900,vbt_B2_day2,2022.2.4,Win32,60.27000964,,,,,,,,,,,,,,,,,,,,,,,,,,,down,0,0.0362,,,0.374537065,0.063888889,1,0,0,0.6836,0,185,185,193,1,weeshuis,images/br_weeshuis.png,images/cb_weeshuis.png,0,,,,,,,,,,,,,,,,,,,,,
,,,,,,00067,2023-10-18_14h35.27.900,vbt_B2_day2,2022.2.4,Win32,60.27000964,,,,,,,,,,,,,,,,,,,,,,,,,,,down,0,0.7819,,,0.374537065,0.063888889,1,0,0,0.8316,0,186,186,39,1,laag,images/br_laag.png,images/cb_laag.png,0,,,,,,,,,,,,,,,,,,,,,
,,,,,,00067,2023-10-18_14h35.27.900,vbt_B2_day2,2022.2.4,Win32,60.27000964,,,,,,,,,,,,,,,,,,,,,,,,,,,down,0,5.9676,,,0.374537065,0.063425912,1,0,0,1.5523,0,187,187,153,1,vervoer,images/br_vervoer.png,images/cb_vervoer.png,0,,,,,,,,,,,,,,,,,,,,,
,,,,,,00067,2023-10-18_14h35.27.900,vbt_B2_day2,2022.2.4,Win32,60.27000964,,,,,,,,,,,,,,,,,,,,,,,,,,,down,0,7.7962,,,0.374537065,0.063425912,1,0,0,6.5113,0,188,188,64,1,wegen,images/br_wegen.png,images/cb_wegen.png,0,,,,,,,,,,,,,,,,,,,,,
,,,,,,00067,2023-10-18_14h35.27.900,vbt_B2_day2,2022.2.4,Win32,60.27000964,,,,,,,,,,,,,,,,,,,,,,,,,,,down,0,1.0893,,,0.360648176,0.025925912,1,0,0,2.063,0,189,189,10,1,leek,images/br_leek.png,images/cb_leek.png,0,,,,,,,,,,,,,,,,,,,,,
,,,,,,00067,2023-10-18_14h35.27.900,vbt_B2_day2,2022.2.4,Win32,60.27000964,,,,,,,,,,,,,,,,,,,,,,,,,,,down,0,2.2333,,,0.363888889,0.030555556,1,0,0,0.9199,0,190,190,146,1,opkomen,images/br_opkomen.png,images/cb_opkomen.png,0,,,,,,,,,,,,,,,,,,,,,
,,,,,,00067,2023-10-18_14h35.27.900,vbt_B2_day2,2022.2.4,Win32,60.27000964,,,,,,,,,,,,,,,,,,,,,,,,,,,down,0,1.6502,,,0.363888889,0.030555556,1,0,0,1.0669,0,191,191,130,1,keihard,images/br_keihard.png,images/cb_keihard.png,0,,,,,,,,,,,,,,,,,,,,,
,,,,,,00067,2023-10-18_14h35.27.900,vbt_B2_day2,2022.2.4,Win32,60.27000964,,,,,,,,,,,,,,,,,,,,,,,,,,,down,0,0.0677,,,0.363888889,0.030555556,1,0,0,0.3805,0,192,192,90,1,geluid,images/br_geluid.png,images/cb_geluid.png,0,,,,,,,,,,,,,,,,,,,,,
,,,,,,00067,2023-10-18_14h35.27.900,vbt_B2_day2,2022.2.4,Win32,60.27000964,,,,,,,,,,,,,,,,,,,,,,,,,,,down,0,1.5358,,,0.363888889,0.030555556,1,0,0,0.8362,0,193,193,5,1,blad,images/br_blad.png,images/cb_blad.png,0,,,,,,,,,,,,,,,,,,,,,
,,,,,,00067,2023-10-18_14h35.27.900,vbt_B2_day2,2022.2.4,Win32,60.27000964,,,,,,,,,,,,,,,,,,,,,,,,,,,down,0,0.4007,,,0.363888889,0.030555556,1,0,0,4.0553,0,194,194,149,1,redding,images/br_redding.png,images/cb_redding.png,0,,,,,,,,,,,,,,,,,,,,,
,,,,,,00067,2023-10-18_14h35.27.900,vbt_B2_day2,2022.2.4,Win32,60.27000964,,,,,,,,,,,,,,,,,,,,,,,,,,,down,0,6.0834,koffie,,0.363888889,0.030555556,1,0,0,0.6011,0,195,195,99,1,koffie,images/br_koffie.png,images/cb_koffie.png,1,,,,,,,,,,,,,,,,,,,,,
,,,,,,00067,2023-10-18_14h35.27.900,vbt_B2_day2,2022.2.4,Win32,60.27000964,,,,,,,,,,,,,,,,,,,,,,,,,,,down,0,1.6844,,,0.363888889,0.031944444,1,0,0,0.9502,0,196,196,126,1,kasteel,images/br_kasteel.png,images/cb_kasteel.png,0,,,,,,,,,,,,,,,,,,,,,
,,,,,,00067,2023-10-18_14h35.27.900,vbt_B2_day2,2022.2.4,Win32,60.27000964,,,,,,,,,,,,,,,,,,,,,,,,,,,down,0,3.0335,,,0.363888889,0.031944444,1,0,0,2.2668,0,197,197,127,1,doodmoe,images/br_doodmoe.png,images/cb_doodmoe.png,0,,,,,,,,,,,,,,,,,,,,,
,,,,,,00067,2023-10-18_14h35.27.900,vbt_B2_day2,2022.2.4,Win32,60.27000964,,,,,,,,,,,,,,,,,,,,,,,,,,,down,0,2.0172,,,0.363888889,0.031944444,1,0,0,0.7184,0,198,198,199,1,beseffen,images/br_beseffen.png,images/cb_beseffen.png,0,,,,,,,,,,,,,,,,,,,,,
,,,,,,00067,2023-10-18_14h35.27.900,vbt_B2_day2,2022.2.4,Win32,60.27000964,,,,,,,,,,,,,,,,,,,,,,,,,,,down,0,2.5248,,,0.363888889,0.031944444,1,0,0,1.4361,0,199,199,105,1,wijlen,images/br_wijlen.png,images/cb_wijlen.png,0,,,,,,,,,,,,,,,,,,,,,
,,,,,,00067,2023-10-18_14h35.27.900,vbt_B2_day2,2022.2.4,Win32,60.27000964,,,,,,,,,,,,,,,,,,,,,,,,,,,,,,,,,,,,,,,,,,,,,,,0.614351908,0.07870369,1,0,0,,,,,,,,,,,,,,,,
,,,,,,00067,2023-10-18_14h35.27.900,vbt_B2_day2,2022.2.4,Win32,60.27000964,,,,,,,,,,,,,,,,,,,,,,,,,,,,,,,,,,,,,,,,,,,,,,,,,,,,0.643055556,0.078240712,1,0,0,,,,,,,,,,,
,,,,,,00067,2023-10-18_14h35.27.900,vbt_B2_day2,2022.2.4,Win32,60.27000964,,,,,,,,,,,,,,,,,,,,,,,,,,,,,,aanvallen,,,,,,,,,,,,,aanvraag,images/br_aanvraag.png,images/cb_aanvraag.png,,,,,,,,,,,,0.643055556,0.078240712,1,0,0,aanvallen,0,0,0,57,1
,,,,,,00067,2023-10-18_14h35.27.900,vbt_B2_day2,2022.2.4,Win32,60.27000964,,,,,,,,,,,,,,,,,,,,,,,,,,,,,,lokken,,,,,,,,,,,,,lokken,images/br_lokken.png,images/cb_lokken.png,,,,,,,,,,,,0.643055556,0.078240712,1,0,0,lokken,0,1,1,8,1
,,,,,,00067,2023-10-18_14h35.27.900,vbt_B2_day2,2022.2.4,Win32,60.27000964,,,,,,,,,,,,,,,,,,,,,,,,,,,,,,welzijn,,,,,,,,,,,,,welzijn,images/br_welzijn.png,images/cb_welzijn.png,,,,,,,,,,,,0.595833333,0.055555556,1,0,0,welzijn,0,2,2,52,1
,,,,,,00067,2023-10-18_14h35.27.900,vbt_B2_day2,2022.2.4,Win32,60.27000964,,,,,,,,,,,,,,,,,,,,,,,,,,,,,,manieren,,,,,,,,,,,,,manieren,images/br_manieren.png,images/cb_manieren.png,,,,,,,,,,,,0.595833333,0.055555556,1,0,0,manieren,0,3,3,56,1
,,,,,,00067,2023-10-18_14h35.27.900,vbt_B2_day2,2022.2.4,Win32,60.27000964,,,,,,,,,,,,,,,,,,,,,,,,,,,,,,doodmoe,,,,,,,,,,,,,doodmoe,images/br_doodmoe.png,images/cb_doodmoe.png,,,,,,,,,,,,0.596759372,0.056481467,1,0,0,doodmoe,0,4,4,15,1
,,,,,,00067,2023-10-18_14h35.27.900,vbt_B2_day2,2022.2.4,Win32,60.27000964,,,,,,,,,,,,,,,,,,,,,,,,,,,,,,tweeling,,,,,,,,,,,,,tweeling,images/br_tweeling.png,images/cb_tweeling.png,,,,,,,,,,,,0.578703817,0.020833333,1,0,0,tweeling,0,5,5,58,1
,,,,,,00067,2023-10-18_14h35.27.900,vbt_B2_day2,2022.2.4,Win32,60.27000964,,,,,,,,,,,,,,,,,,,,,,,,,,,,,,prekken,,,,,,,,,,,,,prekken,images/br_prekken.png,images/cb_prekken.png,,,,,,,,,,,,0.395370399,-0.023611111,1,0,0,prekken,0,6,6,34,1
,,,,,,00067,2023-10-18_14h35.27.900,vbt_B2_day2,2022.2.4,Win32,60.27000964,,,,,,,,,,,,,,,,,,,,,,,,,,,,,,op.u...,,,,,,,,,,,,,ophuimen,images/br_ophuimen.png,images/cb_ophuimen.png,,,,,,,,,,,,0.418055556,0.051388889,1,0,0,op.u...,0,7,7,36,1
,,,,,,00067,2023-10-18_14h35.27.900,vbt_B2_day2,2022.2.4,Win32,60.27000964,,,,,,,,,,,,,,,,,,,,,,,,,,,,,,kilje,,,,,,,,,,,,,kijlen,images/br_kijlen.png,images/cb_kijlen.png,,,,,,,,,,,,0.41898151,0.051388889,1,0,0,kilje,0,8,8,31,1
,,,,,,00067,2023-10-18_14h35.27.900,vbt_B2_day2,2022.2.4,Win32,60.27000964,,,,,,,,,,,,,,,,,,,,,,,,,,,,,,dief,,,,,,,,,,,,,diep,images/br_diep.png,images/cb_diep.png,,,,,,,,,,,,0.41898151,0.051388889,1,0,0,dief,0,9,9,2,1
,,,,,,00067,2023-10-18_14h35.27.900,vbt_B2_day2,2022.2.4,Win32,60.27000964,,,,,,,,,,,,,,,,,,,,,,,,,,,,,,sjij,,,,,,,,,,,,,sjijfel,images/br_sjijfel.png,images/cb_sjijfel.png,,,,,,,,,,,,0.41898151,0.051388889,1,0,0,sjij,0,10,10,33,1
,,,,,,00067,2023-10-18_14h35.27.900,vbt_B2_day2,2022.2.4,Win32,60.27000964,,,,,,,,,,,,,,,,,,,,,,,,,,,,,,op....,,,,,,,,,,,,,opdatten,images/br_opdatten.png,images/cb_opdatten.png,,,,,,,,,,,,0.472685242,0.045833333,1,0,0,op....,0,11,11,37,1
,,,,,,00067,2023-10-18_14h35.27.900,vbt_B2_day2,2022.2.4,Win32,60.27000964,,,,,,,,,,,,,,,,,,,,,,,,,,,,,,bieru,,,,,,,,,,,,,bereuwen,images/br_bereuwen.png,images/cb_bereuwen.png,,,,,,,,,,,,0.472685242,0.045833333,1,0,0,bieru,0,12,12,39,1
,,,,,,00067,2023-10-18_14h35.27.900,vbt_B2_day2,2022.2.4,Win32,60.27000964,,,,,,,,,,,,,,,,,,,,,,,,,,,,,,jagen,,,,,,,,,,,,,jagen,images/br_jagen.png,images/cb_jagen.png,,,,,,,,,,,,0.436111111,0.011111111,1,0,0,jagen,0,13,13,6,1
,,,,,,00067,2023-10-18_14h35.27.900,vbt_B2_day2,2022.2.4,Win32,60.27000964,,,,,,,,,,,,,,,,,,,,,,,,,,,,,,koorts,,,,,,,,,,,,,koorts,images/br_koorts.png,images/cb_koorts.png,,,,,,,,,,,,0.418055556,0.019444444,1,0,0,koorts,0,14,14,50,1
,,,,,,00067,2023-10-18_14h35.27.900,vbt_B2_day2,2022.2.4,Win32,60.27000964,,,,,,,,,,,,,,,,,,,,,,,,,,,,,,heilen,,,,,,,,,,,,,heilig,images/br_heilig.png,images/cb_heilig.png,,,,,,,,,,,,0.417129686,0.025,1,0,0,heilen,0,15,15,9,1
,,,,,,00067,2023-10-18_14h35.27.900,vbt_B2_day2,2022.2.4,Win32,60.27000964,,,,,,,,,,,,,,,,,,,,,,,,,,,,,,kenzil,,,,,,,,,,,,,kenzis,images/br_kenzis.png,images/cb_kenzis.png,,,,,,,,,,,,0.4125,0.004629601,1,0,0,kenzil,0,16,16,30,1
,,,,,,00067,2023-10-18_14h35.27.900,vbt_B2_day2,2022.2.4,Win32,60.27000964,,,,,,,,,,,,,,,,,,,,,,,,,,,,,,tand,,,,,,,,,,,,,tand,images/br_tand.png,images/cb_tand.png,,,,,,,,,,,,0.435648176,0.005555556,1,0,0,tand,0,17,17,42,1
,,,,,,00067,2023-10-18_14h35.27.900,vbt_B2_day2,2022.2.4,Win32,60.27000964,,,,,,,,,,,,,,,,,,,,,,,,,,,,,,soev,,,,,,,,,,,,,toeval,images/br_toeval.png,images/cb_toeval.png,,,,,,,,,,,,0.436111111,0.005555556,1,0,0,soev,0,18,18,11,1
,,,,,,00067,2023-10-18_14h35.27.900,vbt_B2_day2,2022.2.4,Win32,60.27000964,,,,,,,,,,,,,,,,,,,,,,,,,,,,,,systeem,,,,,,,,,,,,,systeem,images/br_systeem.png,images/cb_systeem.png,,,,,,,,,,,,0.468518575,0.028240712,1,0,0,systeem,0,19,19,54,1
,,,,,,00067,2023-10-18_14h35.27.900,vbt_B2_day2,2022.2.4,Win32,60.27000964,,,,,,,,,,,,,,,,,,,,,,,,,,,,,,lurgen,,,,,,,,,,,,,lurgen,images/br_lurgen.png,images/cb_lurgen.png,,,,,,,,,,,,0.468518575,0.028240712,1,0,0,lurgen,0,20,20,29,1
,,,,,,00067,2023-10-18_14h35.27.900,vbt_B2_day2,2022.2.4,Win32,60.27000964,,,,,,,,,,,,,,,,,,,,,,,,,,,,,,heengaan,,,,,,,,,,,,,heengeen,images/br_heengeen.png,images/cb_heengeen.png,,,,,,,,,,,,0.490740797,0.037962935,1,0,0,heengaan,0,21,21,38,1
,,,,,,00067,2023-10-18_14h35.27.900,vbt_B2_day2,2022.2.4,Win32,60.27000964,,,,,,,,,,,,,,,,,,,,,,,,,,,,,,moes,,,,,,,,,,,,,moes,images/br_moes.png,images/cb_moes.png,,,,,,,,,,,,0.49398151,0.037962935,1,0,0,moes,0,22,22,0,1
,,,,,,00067,2023-10-18_14h35.27.900,vbt_B2_day2,2022.2.4,Win32,60.27000964,,,,,,,,,,,,,,,,,,,,,,,,,,,,,,remel,,,,,,,,,,,,,remel,images/br_remel.png,images/cb_remel.png,,,,,,,,,,,,0.504629686,0.043055556,1,0,0,remel,0,23,23,25,1
,,,,,,00067,2023-10-18_14h35.27.900,vbt_B2_day2,2022.2.4,Win32,60.27000964,,,,,,,,,,,,,,,,,,,,,,,,,,,,,,widv,,,,,,,,,,,,,wijve,images/br_wijve.png,images/cb_wijve.png,,,,,,,,,,,,0.444907464,0.011574046,1,0,0,widv,0,24,24,27,1
,,,,,,00067,2023-10-18_14h35.27.900,vbt_B2_day2,2022.2.4,Win32,60.27000964,,,,,,,,,,,,,,,,,,,,,,,,,,,,,,jong,,,,,,,,,,,,,jong,images/br_jong.png,images/cb_jong.png,,,,,,,,,,,,0.465277778,0.000462935,1,0,0,jong,0,25,25,43,1
,,,,,,00067,2023-10-18_14h35.27.900,vbt_B2_day2,2022.2.4,Win32,60.27000964,,,,,,,,,,,,,,,,,,,,,,,,,,,,,,blad,,,,,,,,,,,,,blad,images/br_blad.png,images/cb_blad.png,,,,,,,,,,,,0.471296353,0.005092578,1,0,0,blad,0,26,26,1,1
,,,,,,00067,2023-10-18_14h35.27.900,vbt_B2_day2,2022.2.4,Win32,60.27000964,,,,,,,,,,,,,,,,,,,,,,,,,,,,,,kasteel,,,,,,,,,,,,,kasteel,images/br_kasteel.png,images/cb_kasteel.png,,,,,,,,,,,,0.471296353,0.005092578,1,0,0,kasteel,0,27,27,14,1
,,,,,,00067,2023-10-18_14h35.27.900,vbt_B2_day2,2022.2.4,Win32,60.27000964,,,,,,,,,,,,,,,,,,,,,,,,,,,,,,piste,,,,,,,,,,,,,piste,images/br_piste.png,images/cb_piste.png,,,,,,,,,,,,0.471296353,0.005092578,1,0,0,piste,0,28,28,5,1
,,,,,,00067,2023-10-18_14h35.27.900,vbt_B2_day2,2022.2.4,Win32,60.27000964,,,,,,,,,,,,,,,,,,,,,,,,,,,,,,badon,,,,,,,,,,,,,badon,images/br_badon.png,images/cb_badon.png,,,,,,,,,,,,0.471296353,0.005092578,1,0,0,badon,0,29,29,26,1
,,,,,,00067,2023-10-18_14h35.27.900,vbt_B2_day2,2022.2.4,Win32,60.27000964,,,,,,,,,,,,,,,,,,,,,,,,,,,,,,lijden,,,,,,,,,,,,,lijnen,images/br_lijnen.png,images/cb_lijnen.png,,,,,,,,,,,,0.456944444,-0.003703732,1,0,0,lijden,0,30,30,51,1
,,,,,,00067,2023-10-18_14h35.27.900,vbt_B2_day2,2022.2.4,Win32,60.27000964,,,,,,,,,,,,,,,,,,,,,,,,,,,,,,ningen,,,,,,,,,,,,,ningen,images/br_ningen.png,images/cb_ningen.png,,,,,,,,,,,,0.439351908,0.021759245,1,0,0,ningen,0,31,31,28,1
,,,,,,00067,2023-10-18_14h35.27.900,vbt_B2_day2,2022.2.4,Win32,60.27000964,,,,,,,,,,,,,,,,,,,,,,,,,,,,,,inhee,,,,,,,,,,,,,eenhoorn,images/br_eenhoorn.png,images/cb_eenhoorn.png,,,,,,,,,,,,0.440277778,0.021759245,1,0,0,inhee,0,32,32,19,1
,,,,,,00067,2023-10-18_14h35.27.900,vbt_B2_day2,2022.2.4,Win32,60.27000964,,,,,,,,,,,,,,,,,,,,,,,,,,,,,,agri,,,,,,,,,,,,,agressie,images/br_agressie.png,images/cb_agressie.png,,,,,,,,,,,,0.440277778,0.021759245,1,0,0,agri,0,33,33,59,1
,,,,,,00067,2023-10-18_14h35.27.900,vbt_B2_day2,2022.2.4,Win32,60.27000964,,,,,,,,,,,,,,,,,,,,,,,,,,,,,,sihh,,,,,,,,,,,,,sifferd,images/br_sifferd.png,images/cb_sifferd.png,,,,,,,,,,,,0.440277778,0.021759245,1,0,0,sihh,0,34,34,32,1
,,,,,,00067,2023-10-18_14h35.27.900,vbt_B2_day2,2022.2.4,Win32,60.27000964,,,,,,,,,,,,,,,,,,,,,,,,,,,,,,kabi,,,,,,,,,,,,,kabel,images/br_kabel.png,images/cb_kabel.png,,,,,,,,,,,,0.440277778,0.021759245,1,0,0,kabi,0,35,35,7,1
,,,,,,00067,2023-10-18_14h35.27.900,vbt_B2_day2,2022.2.4,Win32,60.27000964,,,,,,,,,,,,,,,,,,,,,,,,,,,,,,zegel,,,,,,,,,,,,,zegel,images/br_zegel.png,images/cb_zegel.png,,,,,,,,,,,,0.440277778,0.021759245,1,0,0,zegel,0,36,36,46,1
,,,,,,00067,2023-10-18_14h35.27.900,vbt_B2_day2,2022.2.4,Win32,60.27000964,,,,,,,,,,,,,,,,,,,,,,,,,,,,,,strikken,,,,,,,,,,,,,strikken,images/br_strikken.png,images/cb_strikken.png,,,,,,,,,,,,0.440277778,0.021759245,1,0,0,strikken,0,37,37,18,1
,,,,,,00067,2023-10-18_14h35.27.900,vbt_B2_day2,2022.2.4,Win32,60.27000964,,,,,,,,,,,,,,,,,,,,,,,,,,,,,,geld,,,,,,,,,,,,,geld,images/br_geld.png,images/cb_geld.png,,,,,,,,,,,,0.440277778,0.021759245,1,0,0,geld,0,38,38,3,1
,,,,,,00067,2023-10-18_14h35.27.900,vbt_B2_day2,2022.2.4,Win32,60.27000964,,,,,,,,,,,,,,,,,,,,,,,,,,,,,,krimmen,,,,,,,,,,,,,krimmen,images/br_krimmen.png,images/cb_krimmen.png,,,,,,,,,,,,0.423148176,0.018981467,1,0,0,krimmen,0,39,39,35,1
,,,,,,00067,2023-10-18_14h35.27.900,vbt_B2_day2,2022.2.4,Win32,60.27000964,,,,,,,,,,,,,,,,,,,,,,,,,,,,,,negel,,,,,,,,,,,,,negel,images/br_negel.png,images/cb_negel.png,,,,,,,,,,,,0.414351908,0.025462935,1,0,0,negel,0,40,40,24,1
,,,,,,00067,2023-10-18_14h35.27.900,vbt_B2_day2,2022.2.4,Win32,60.27000964,,,,,,,,,,,,,,,,,,,,,,,,,,,,,,trot,,,,,,,,,,,,,trots,images/br_trots.png,images/cb_trots.png,,,,,,,,,,,,0.414351908,0.025462935,1,0,0,trot,0,41,41,44,1
,,,,,,00067,2023-10-18_14h35.27.900,vbt_B2_day2,2022.2.4,Win32,60.27000964,,,,,,,,,,,,,,,,,,,,,,,,,,,,,,dode,,,,,,,,,,,,,dode,images/br_dode.png,images/cb_dode.png,,,,,,,,,,,,0.414351908,0.025462935,1,0,0,dode,0,42,42,41,1
,,,,,,00067,2023-10-18_14h35.27.900,vbt_B2_day2,2022.2.4,Win32,60.27000964,,,,,,,,,,,,,,,,,,,,,,,,,,,,,,woning,,,,,,,,,,,,,woning,images/br_woning.png,images/cb_woning.png,,,,,,,,,,,,0.414351908,0.025462935,1,0,0,woning,0,43,43,10,1
,,,,,,00067,2023-10-18_14h35.27.900,vbt_B2_day2,2022.2.4,Win32,60.27000964,,,,,,,,,,,,,,,,,,,,,,,,,,,,,,an...,,,,,,,,,,,,,anarchie,images/br_anarchie.png,images/cb_anarchie.png,,,,,,,,,,,,0.414351908,0.025462935,1,0,0,an...,0,44,44,16,1
,,,,,,00067,2023-10-18_14h35.27.900,vbt_B2_day2,2022.2.4,Win32,60.27000964,,,,,,,,,,,,,,,,,,,,,,,,,,,,,,aanzien,,,,,,,,,,,,,aanzien,images/br_aanzien.png,images/cb_aanzien.png,,,,,,,,,,,,0.414351908,0.025462935,1,0,0,aanzien,0,45,45,13,1
,,,,,,00067,2023-10-18_14h35.27.900,vbt_B2_day2,2022.2.4,Win32,60.27000964,,,,,,,,,,,,,,,,,,,,,,,,,,,,,,goon,,,,,,,,,,,,,goon,images/br_goon.png,images/cb_goon.png,,,,,,,,,,,,0.403240797,0.03101849,1,0,0,goon,0,46,46,23,1
,,,,,,00067,2023-10-18_14h35.27.900,vbt_B2_day2,2022.2.4,Win32,60.27000964,,,,,,,,,,,,,,,,,,,,,,,,,,,,,,zwagen,,,,,,,,,,,,,zwager,images/br_zwager.png,images/cb_zwager.png,,,,,,,,,,,,0.403240797,0.03101849,1,0,0,zwagen,0,47,47,49,1
,,,,,,00067,2023-10-18_14h35.27.900,vbt_B2_day2,2022.2.4,Win32,60.27000964,,,,,,,,,,,,,,,,,,,,,,,,,,,,,,thema,,,,,,,,,,,,,thema,images/br_thema.png,images/cb_thema.png,,,,,,,,,,,,0.403240797,0.03101849,1,0,0,thema,0,48,48,47,1
,,,,,,00067,2023-10-18_14h35.27.900,vbt_B2_day2,2022.2.4,Win32,60.27000964,,,,,,,,,,,,,,,,,,,,,,,,,,,,,,zomers,,,,,,,,,,,,,zomers,images/br_zomers.png,images/cb_zomers.png,,,,,,,,,,,,0.403240797,0.03101849,1,0,0,zomers,0,49,49,48,1
,,,,,,00067,2023-10-18_14h35.27.900,vbt_B2_day2,2022.2.4,Win32,60.27000964,,,,,,,,,,,,,,,,,,,,,,,,,,,,,,inzicht,,,,,,,,,,,,,inzicht,images/br_inzicht.png,images/cb_inzicht.png,,,,,,,,,,,,0.403240797,0.03101849,1,0,0,inzicht,0,50,50,53,1
,,,,,,00067,2023-10-18_14h35.27.900,vbt_B2_day2,2022.2.4,Win32,60.27000964,,,,,,,,,,,,,,,,,,,,,,,,,,,,,,hlie,,,,,,,,,,,,,flits,images/br_flits.png,images/cb_flits.png,,,,,,,,,,,,0.403240797,0.03101849,1,0,0,hlie,0,51,51,4,1
,,,,,,00067,2023-10-18_14h35.27.900,vbt_B2_day2,2022.2.4,Win32,60.27000964,,,,,,,,,,,,,,,,,,,,,,,,,,,,,,joes,,,,,,,,,,,,,joes,images/br_joes.png,images/cb_joes.png,,,,,,,,,,,,0.389351908,0.03101849,1,0,0,joes,0,52,52,20,1
,,,,,,00067,2023-10-18_14h35.27.900,vbt_B2_day2,2022.2.4,Win32,60.27000964,,,,,,,,,,,,,,,,,,,,,,,,,,,,,,bloeien,,,,,,,,,,,,,bloeien,images/br_bloeien.png,images/cb_bloeien.png,,,,,,,,,,,,0.389351908,0.03101849,1,0,0,bloeien,0,53,53,12,1
,,,,,,00067,2023-10-18_14h35.27.900,vbt_B2_day2,2022.2.4,Win32,60.27000964,,,,,,,,,,,,,,,,,,,,,,,,,,,,,,breuk,,,,,,,,,,,,,breuk,images/br_breuk.png,images/cb_breuk.png,,,,,,,,,,,,0.389351908,0.03101849,1,0,0,breuk,0,54,54,45,1
,,,,,,00067,2023-10-18_14h35.27.900,vbt_B2_day2,2022.2.4,Win32,60.27000964,,,,,,,,,,,,,,,,,,,,,,,,,,,,,,sora,,,,,,,,,,,,,sora,images/br_sora.png,images/cb_sora.png,,,,,,,,,,,,0.389351908,0.03101849,1,0,0,sora,0,55,55,22,1
,,,,,,00067,2023-10-18_14h35.27.900,vbt_B2_day2,2022.2.4,Win32,60.27000964,,,,,,,,,,,,,,,,,,,,,,,,,,,,,,plannen,,,,,,,,,,,,,plannen,images/br_plannen.png,images/cb_plannen.png,,,,,,,,,,,,0.389351908,0.027777778,1,0,0,plannen,0,56,56,55,1
,,,,,,00067,2023-10-18_14h35.27.900,vbt_B2_day2,2022.2.4,Win32,60.27000964,,,,,,,,,,,,,,,,,,,,,,,,,,,,,,stet,,,,,,,,,,,,,stes,images/br_stes.png,images/cb_stes.png,,,,,,,,,,,,0.389351908,0.027777778,1,0,0,stet,0,57,57,21,1
,,,,,,00067,2023-10-18_14h35.27.900,vbt_B2_day2,2022.2.4,Win32,60.27000964,,,,,,,,,,,,,,,,,,,,,,,,,,,,,,chan,,,,,,,,,,,,,clan,images/br_clan.png,images/cb_clan.png,,,,,,,,,,,,0.359259288,0.01851849,1,0,0,chan,0,58,58,40,1
,,,,,,00067,2023-10-18_14h35.27.900,vbt_B2_day2,2022.2.4,Win32,60.27000964,,,,,,,,,,,,,,,,,,,,,,,,,,,,,,feestdag,,,,,,,,,,,,,feestdag,images/br_feestdag.png,images/cb_feestdag.png,,,,,,,,,,,,0.359259288,0.020370356,1,0,0,feestdag,0,59,59,17,1
,,,,,,00067,2023-10-18_14h35.27.900,vbt_B2_day2,2022.2.4,Win32,60.27000964,,,,,,,,,,,,,,,,,,,,,,,,,,,,,,,,,,,,,,,,,,,,,,,,,,,,,,,,,,,,,,,,,,,
