welcome_mouse.x,welcome_mouse.y,welcome_mouse.leftButton,welcome_mouse.midButton,welcome_mouse.rightButton,welcome_mouse.time,"ID",date,expName,psychopyVersion,OS,frameRate,refresh_mouse.x,refresh_mouse.y,refresh_mouse.leftButton,refresh_mouse.midButton,refresh_mouse.rightButton,refresh_mouse.time,braille_mouse.x,braille_mouse.y,braille_mouse.leftButton,braille_mouse.midButton,braille_mouse.rightButton,braille_mouse.time,trials.thisRepN,trials.thisTrialN,trials.thisN,trials.thisIndex,trials.ran,nlLet,brLet,cbLet,trainInstr_mouse.x,trainInstr_mouse.y,trainInstr_mouse.leftButton,trainInstr_mouse.midButton,trainInstr_mouse.rightButton,trainInstr_mouse.time,translation_key.keys,translation_key.corr,translation_key.rt,word_rsp.text,word_mouse.x,word_mouse.y,word_mouse.leftButton,word_mouse.midButton,word_mouse.rightButton,word_mouse.time,train_loop.thisRepN,train_loop.thisTrialN,train_loop.thisN,train_loop.thisIndex,train_loop.ran,nlWrd,brWrd,cbWrd,test,testResp,mouse.x,mouse.y,mouse.leftButton,mouse.midButton,mouse.rightButton,testInstr_mouse.x,testInstr_mouse.y,testInstr_mouse.leftButton,testInstr_mouse.midButton,testInstr_mouse.rightButton,test_mouse.x,test_mouse.y,test_mouse.leftButton,test_mouse.midButton,test_mouse.rightButton,test_response.text,test_loop.thisRepN,test_loop.thisTrialN,test_loop.thisN,test_loop.thisIndex,test_loop.ran
0.388984375,-0.221147461,1,0,0,12.8185,00035,2023-09-26_10h31.33.685,vbt_B2_day2,2022.2.4,MacIntel,59.87665409,,,,,,,,,,,,,,,,,,,,,,,,,,,,,,,,,,,,,,,,,,,,,,,,,,,,,,,,,,,,,,,,,,,
,,,,,,00035,2023-09-26_10h31.33.685,vbt_B2_day2,2022.2.4,MacIntel,59.87665409,0.388984375,-0.221147461,1,0,0,14.1553,,,,,,,,,,,,,,,,,,,,,,,,,,,,,,,,,,,,,,,,,,,,,,,,,,,,,,,,,,,,,
,,,,,,00035,2023-09-26_10h31.33.685,vbt_B2_day2,2022.2.4,MacIntel,59.87665409,,,,,,,0.388984375,-0.221147461,1,0,0,1.7041,0,0,0,12,1,m,images/br_m.png,images/cb_m.png,,,,,,,,,,,,,,,,,,,,,,,,,,,,,,,,,,,,,,,,,,,,,,,
,,,,,,00035,2023-09-26_10h31.33.685,vbt_B2_day2,2022.2.4,MacIntel,59.87665409,,,,,,,0.458388672,-0.114584961,1,0,0,1.3966,0,1,1,24,1,y,images/br_y.png,images/cb_y.png,,,,,,,,,,,,,,,,,,,,,,,,,,,,,,,,,,,,,,,,,,,,,,,
,,,,,,00035,2023-09-26_10h31.33.685,vbt_B2_day2,2022.2.4,MacIntel,59.87665409,,,,,,,0.458388672,-0.114584961,1,0,0,0.2839,0,2,2,7,1,h,images/br_h.png,images/cb_h.png,,,,,,,,,,,,,,,,,,,,,,,,,,,,,,,,,,,,,,,,,,,,,,,
,,,,,,00035,2023-09-26_10h31.33.685,vbt_B2_day2,2022.2.4,MacIntel,59.87665409,,,,,,,0.453657227,-0.108183594,1,0,0,0.6189,0,3,3,22,1,w,images/br_w.png,images/cb_w.png,,,,,,,,,,,,,,,,,,,,,,,,,,,,,,,,,,,,,,,,,,,,,,,
,,,,,,00035,2023-09-26_10h31.33.685,vbt_B2_day2,2022.2.4,MacIntel,59.87665409,,,,,,,0.453657227,-0.108183594,1,0,0,1.6312,0,4,4,11,1,l,images/br_l.png,images/cb_l.png,,,,,,,,,,,,,,,,,,,,,,,,,,,,,,,,,,,,,,,,,,,,,,,
,,,,,,00035,2023-09-26_10h31.33.685,vbt_B2_day2,2022.2.4,MacIntel,59.87665409,,,,,,,0.347246094,-0.125048828,1,0,0,29.5985,0,5,5,0,1,a,images/br_a.png,images/cb_a.png,,,,,,,,,,,,,,,,,,,,,,,,,,,,,,,,,,,,,,,,,,,,,,,
,,,,,,00035,2023-09-26_10h31.33.685,vbt_B2_day2,2022.2.4,MacIntel,59.87665409,,,,,,,0.347246094,-0.125048828,1,0,0,0.3349,0,6,6,14,1,o,images/br_o.png,images/cb_o.png,,,,,,,,,,,,,,,,,,,,,,,,,,,,,,,,,,,,,,,,,,,,,,,
,,,,,,00035,2023-09-26_10h31.33.685,vbt_B2_day2,2022.2.4,MacIntel,59.87665409,,,,,,,0.34875,0.012885742,1,0,0,34.747,0,7,7,19,1,t,images/br_t.png,images/cb_t.png,,,,,,,,,,,,,,,,,,,,,,,,,,,,,,,,,,,,,,,,,,,,,,,
,,,,,,00035,2023-09-26_10h31.33.685,vbt_B2_day2,2022.2.4,MacIntel,59.87665409,,,,,,,0.254614258,-0.092749023,1,0,0,0.018,0,8,8,9,1,j,images/br_j.png,images/cb_j.png,,,,,,,,,,,,,,,,,,,,,,,,,,,,,,,,,,,,,,,,,,,,,,,
,,,,,,00035,2023-09-26_10h31.33.685,vbt_B2_day2,2022.2.4,MacIntel,59.87665409,,,,,,,0.380229492,-0.100600586,1,0,0,2.3054,0,9,9,10,1,k,images/br_k.png,images/cb_k.png,,,,,,,,,,,,,,,,,,,,,,,,,,,,,,,,,,,,,,,,,,,,,,,
,,,,,,00035,2023-09-26_10h31.33.685,vbt_B2_day2,2022.2.4,MacIntel,59.87665409,,,,,,,0.380229492,-0.100600586,1,0,0,4.5883,0,10,10,20,1,u,images/br_u.png,images/cb_u.png,,,,,,,,,,,,,,,,,,,,,,,,,,,,,,,,,,,,,,,,,,,,,,,
,,,,,,00035,2023-09-26_10h31.33.685,vbt_B2_day2,2022.2.4,MacIntel,59.87665409,,,,,,,0.296928711,-0.07828125,1,0,0,20.9951,0,11,11,8,1,i,images/br_i.png,images/cb_i.png,,,,,,,,,,,,,,,,,,,,,,,,,,,,,,,,,,,,,,,,,,,,,,,
,,,,,,00035,2023-09-26_10h31.33.685,vbt_B2_day2,2022.2.4,MacIntel,59.87665409,,,,,,,0.236977539,-0.051547852,1,0,0,2.3613,0,12,12,1,1,b,images/br_b.png,images/cb_b.png,,,,,,,,,,,,,,,,,,,,,,,,,,,,,,,,,,,,,,,,,,,,,,,
,,,,,,00035,2023-09-26_10h31.33.685,vbt_B2_day2,2022.2.4,MacIntel,59.87665409,,,,,,,0.216108398,-0.079003906,1,0,0,2.3563,0,13,13,23,1,x,images/br_x.png,images/cb_x.png,,,,,,,,,,,,,,,,,,,,,,,,,,,,,,,,,,,,,,,,,,,,,,,
,,,,,,00035,2023-09-26_10h31.33.685,vbt_B2_day2,2022.2.4,MacIntel,59.87665409,,,,,,,0.186396484,-0.048110352,1,0,0,6.5471,0,14,14,4,1,e,images/br_e.png,images/cb_e.png,,,,,,,,,,,,,,,,,,,,,,,,,,,,,,,,,,,,,,,,,,,,,,,
,,,,,,00035,2023-09-26_10h31.33.685,vbt_B2_day2,2022.2.4,MacIntel,59.87665409,,,,,,,0.185541992,-0.079042969,1,0,0,2.0881,0,15,15,17,1,r,images/br_r.png,images/cb_r.png,,,,,,,,,,,,,,,,,,,,,,,,,,,,,,,,,,,,,,,,,,,,,,,
,,,,,,00035,2023-09-26_10h31.33.685,vbt_B2_day2,2022.2.4,MacIntel,59.87665409,,,,,,,0.211318359,-0.088642578,1,0,0,7.1667,0,16,16,3,1,d,images/br_d.png,images/cb_d.png,,,,,,,,,,,,,,,,,,,,,,,,,,,,,,,,,,,,,,,,,,,,,,,
,,,,,,00035,2023-09-26_10h31.33.685,vbt_B2_day2,2022.2.4,MacIntel,59.87665409,,,,,,,0.180380859,-0.103100586,1,0,0,12.6112,0,17,17,5,1,f,images/br_f.png,images/cb_f.png,,,,,,,,,,,,,,,,,,,,,,,,,,,,,,,,,,,,,,,,,,,,,,,
,,,,,,00035,2023-09-26_10h31.33.685,vbt_B2_day2,2022.2.4,MacIntel,59.87665409,,,,,,,0.180380859,-0.103100586,1,0,0,3.5118,0,18,18,16,1,q,images/br_q.png,images/cb_q.png,,,,,,,,,,,,,,,,,,,,,,,,,,,,,,,,,,,,,,,,,,,,,,,
,,,,,,00035,2023-09-26_10h31.33.685,vbt_B2_day2,2022.2.4,MacIntel,59.87665409,,,,,,,0.180380859,-0.103100586,1,0,0,8.2858,0,19,19,21,1,v,images/br_v.png,images/cb_v.png,,,,,,,,,,,,,,,,,,,,,,,,,,,,,,,,,,,,,,,,,,,,,,,
,,,,,,00035,2023-09-26_10h31.33.685,vbt_B2_day2,2022.2.4,MacIntel,59.87665409,,,,,,,0.180380859,-0.103100586,1,0,0,0.0825,0,20,20,6,1,g,images/br_g.png,images/cb_g.png,,,,,,,,,,,,,,,,,,,,,,,,,,,,,,,,,,,,,,,,,,,,,,,
,,,,,,00035,2023-09-26_10h31.33.685,vbt_B2_day2,2022.2.4,MacIntel,59.87665409,,,,,,,0.160849609,-0.051499023,1,0,0,9.0432,0,21,21,13,1,n,images/br_n.png,images/cb_n.png,,,,,,,,,,,,,,,,,,,,,,,,,,,,,,,,,,,,,,,,,,,,,,,
,,,,,,00035,2023-09-26_10h31.33.685,vbt_B2_day2,2022.2.4,MacIntel,59.87665409,,,,,,,0.221958008,-0.082944336,1,0,0,17.7892,0,22,22,2,1,c,images/br_c.png,images/cb_c.png,,,,,,,,,,,,,,,,,,,,,,,,,,,,,,,,,,,,,,,,,,,,,,,
,,,,,,00035,2023-09-26_10h31.33.685,vbt_B2_day2,2022.2.4,MacIntel,59.87665409,,,,,,,0.190200195,-0.038701172,1,0,0,50.3187,0,23,23,18,1,s,images/br_s.png,images/cb_s.png,,,,,,,,,,,,,,,,,,,,,,,,,,,,,,,,,,,,,,,,,,,,,,,
,,,,,,00035,2023-09-26_10h31.33.685,vbt_B2_day2,2022.2.4,MacIntel,59.87665409,,,,,,,0.250566406,-0.000405273,1,0,0,2.3733,0,24,24,25,1,z,images/br_z.png,images/cb_z.png,,,,,,,,,,,,,,,,,,,,,,,,,,,,,,,,,,,,,,,,,,,,,,,
,,,,,,00035,2023-09-26_10h31.33.685,vbt_B2_day2,2022.2.4,MacIntel,59.87665409,,,,,,,0.162246094,-0.185014648,1,0,0,39.6514,0,25,25,15,1,p,images/br_p.png,images/cb_p.png,,,,,,,,,,,,,,,,,,,,,,,,,,,,,,,,,,,,,,,,,,,,,,,
,,,,,,00035,2023-09-26_10h31.33.685,vbt_B2_day2,2022.2.4,MacIntel,59.87665409,,,,,,,,,,,,,,,,,,,,,0.151674805,-0.103574219,1,0,0,38.89,,,,,,,,,,,,,,,,,,,,,,,,,,,,,,,,,,,,,,,,,
,,,,,,00035,2023-09-26_10h31.33.685,vbt_B2_day2,2022.2.4,MacIntel,59.87665409,,,,,,,,,,,,,,,,,,,,,,,,,,,down,0,7.3591,,0.240307617,-0.067402344,1,0,0,2.9224,0,0,0,107,1,maling,images/br_maling.png,images/cb_maling.png,0,,,,,,,,,,,,,,,,,,,,,,
,,,,,,00035,2023-09-26_10h31.33.685,vbt_B2_day2,2022.2.4,MacIntel,59.87665409,,,,,,,,,,,,,,,,,,,,,,,,,,,down,0,7.9342,,0.240307617,-0.067402344,1,0,0,1.2031,0,1,1,47,1,kabel,images/br_kabel.png,images/cb_kabel.png,0,,,,,,,,,,,,,,,,,,,,,,
,,,,,,00035,2023-09-26_10h31.33.685,vbt_B2_day2,2022.2.4,MacIntel,59.87665409,,,,,,,,,,,,,,,,,,,,,,,,,,,down,0,12.4437,,0.240307617,-0.067402344,1,0,0,0.8884,0,2,2,68,1,schat,images/br_schat.png,images/cb_schat.png,0,,,,,,,,,,,,,,,,,,,,,,
,,,,,,00035,2023-09-26_10h31.33.685,vbt_B2_day2,2022.2.4,MacIntel,59.87665409,,,,,,,,,,,,,,,,,,,,,,,,,,,down,0,11.1229,,0.240307617,-0.067402344,1,0,0,0.9455,0,3,3,193,1,weeshuis,images/br_weeshuis.png,images/cb_weeshuis.png,0,,,,,,,,,,,,,,,,,,,,,,
,,,,,,00035,2023-09-26_10h31.33.685,vbt_B2_day2,2022.2.4,MacIntel,59.87665409,,,,,,,,,,,,,,,,,,,,,,,,,,,down,0,23.969,,0.453076172,-0.112724609,1,0,0,6.9642,0,4,4,178,1,huisdier,images/br_huisdier.png,images/cb_huisdier.png,1,huisbier,,,,,,,,,,,,,,,,,,,,,
,,,,,,00035,2023-09-26_10h31.33.685,vbt_B2_day2,2022.2.4,MacIntel,59.87665409,,,,,,,,,,,,,,,,,,,,,,,,,,,down,0,9.5588,,0.235341797,-0.225922852,1,0,0,1.241,0,5,5,192,1,schaamte,images/br_schaamte.png,images/cb_schaamte.png,0,,,,,,,,,,,,,,,,,,,,,,
,,,,,,00035,2023-09-26_10h31.33.685,vbt_B2_day2,2022.2.4,MacIntel,59.87665409,,,,,,,,,,,,,,,,,,,,,,,,,,,down,0,41.8237,,0.33815918,-0.185966797,1,0,0,3.1909,0,6,6,179,1,woestijn,images/br_woestijn.png,images/cb_woestijn.png,1,woestijn,,,,,,,,,,,,,,,,,,,,,
,,,,,,00035,2023-09-26_10h31.33.685,vbt_B2_day2,2022.2.4,MacIntel,59.87665409,,,,,,,,,,,,,,,,,,,,,,,,,,,down,0,3.8021,,0.207304688,-0.127426758,1,0,0,4.0983,0,7,7,114,1,vullen,images/br_vullen.png,images/cb_vullen.png,0,,,,,,,,,,,,,,,,,,,,,,
,,,,,,00035,2023-09-26_10h31.33.685,vbt_B2_day2,2022.2.4,MacIntel,59.87665409,,,,,,,,,,,,,,,,,,,,,,,,,,,down,0,50.9695,,0.207304688,-0.127426758,1,0,0,3.7246,0,8,8,120,1,klimmen,images/br_klimmen.png,images/cb_klimmen.png,0,,,,,,,,,,,,,,,,,,,,,,
,,,,,,00035,2023-09-26_10h31.33.685,vbt_B2_day2,2022.2.4,MacIntel,59.87665409,,,,,,,,,,,,,,,,,,,,,,,,,,,down,0,3.642,,0.133261719,-0.140166016,1,0,0,6.0743,0,9,9,10,1,leek,images/br_leek.png,images/cb_leek.png,0,,,,,,,,,,,,,,,,,,,,,,
,,,,,,00035,2023-09-26_10h31.33.685,vbt_B2_day2,2022.2.4,MacIntel,59.87665409,,,,,,,,,,,,,,,,,,,,,,,,,,,down,0,9.1796,,0.133261719,-0.140166016,1,0,0,1.1192,0,10,10,55,1,praat,images/br_praat.png,images/cb_praat.png,0,,,,,,,,,,,,,,,,,,,,,,
,,,,,,00035,2023-09-26_10h31.33.685,vbt_B2_day2,2022.2.4,MacIntel,59.87665409,,,,,,,,,,,,,,,,,,,,,,,,,,,down,0,7.5883,,0.206474609,-0.136342773,1,0,0,0.8914,0,11,11,147,1,komisch,images/br_komisch.png,images/cb_komisch.png,0,,,,,,,,,,,,,,,,,,,,,,
,,,,,,00035,2023-09-26_10h31.33.685,vbt_B2_day2,2022.2.4,MacIntel,59.87665409,,,,,,,,,,,,,,,,,,,,,,,,,,,down,0,12.0355,,0.209853516,-0.134633789,1,0,0,0.9686,0,12,12,64,1,wegen,images/br_wegen.png,images/cb_wegen.png,0,,,,,,,,,,,,,,,,,,,,,,
,,,,,,00035,2023-09-26_10h31.33.685,vbt_B2_day2,2022.2.4,MacIntel,59.87665409,,,,,,,,,,,,,,,,,,,,,,,,,,,down,0,32.588,,0.209853516,-0.134633789,1,0,0,3.5971,0,13,13,145,1,invloed,images/br_invloed.png,images/cb_invloed.png,0,,,,,,,,,,,,,,,,,,,,,,
,,,,,,00035,2023-09-26_10h31.33.685,vbt_B2_day2,2022.2.4,MacIntel,59.87665409,,,,,,,,,,,,,,,,,,,,,,,,,,,down,0,9.6717,,0.209853516,-0.134633789,1,0,0,0.9856,0,14,14,91,1,gezond,images/br_gezond.png,images/cb_gezond.png,0,,,,,,,,,,,,,,,,,,,,,,
,,,,,,00035,2023-09-26_10h31.33.685,vbt_B2_day2,2022.2.4,MacIntel,59.87665409,,,,,,,,,,,,,,,,,,,,,,,,,,,down,0,32.2947,,0.209853516,-0.134633789,1,0,0,2.6287,0,15,15,50,1,stoom,images/br_stoom.png,images/cb_stoom.png,0,,,,,,,,,,,,,,,,,,,,,,
,,,,,,00035,2023-09-26_10h31.33.685,vbt_B2_day2,2022.2.4,MacIntel,59.87665409,,,,,,,,,,,,,,,,,,,,,,,,,,,down,0,4.9541,,0.209853516,-0.134633789,1,0,0,1.046,0,16,16,63,1,flirt,images/br_flirt.png,images/cb_flirt.png,0,,,,,,,,,,,,,,,,,,,,,,
,,,,,,00035,2023-09-26_10h31.33.685,vbt_B2_day2,2022.2.4,MacIntel,59.87665409,,,,,,,,,,,,,,,,,,,,,,,,,,,down,0,2.8989,,0.190629883,-0.12246582,1,0,0,2.1886,0,17,17,49,1,laken,images/br_laken.png,images/cb_laken.png,0,,,,,,,,,,,,,,,,,,,,,,
,,,,,,00035,2023-09-26_10h31.33.685,vbt_B2_day2,2022.2.4,MacIntel,59.87665409,,,,,,,,,,,,,,,,,,,,,,,,,,,down,0,10.1125,,0.190629883,-0.12246582,1,0,0,0.8246,0,18,18,79,1,nodig,images/br_nodig.png,images/cb_nodig.png,0,,,,,,,,,,,,,,,,,,,,,,
,,,,,,00035,2023-09-26_10h31.33.685,vbt_B2_day2,2022.2.4,MacIntel,59.87665409,,,,,,,,,,,,,,,,,,,,,,,,,,,down,0,3.6253,,0.190629883,-0.12246582,1,0,0,0.8021,0,19,19,171,1,aarzelen,images/br_aarzelen.png,images/cb_aarzelen.png,0,,,,,,,,,,,,,,,,,,,,,,
,,,,,,00035,2023-09-26_10h31.33.685,vbt_B2_day2,2022.2.4,MacIntel,59.87665409,,,,,,,,,,,,,,,,,,,,,,,,,,,down,0,85.6278,,0.239492188,-0.123862305,1,0,0,3.1736,0,20,20,159,1,sufferd,images/br_sufferd.png,images/cb_sufferd.png,0,,,,,,,,,,,,,,,,,,,,,,
,,,,,,00035,2023-09-26_10h31.33.685,vbt_B2_day2,2022.2.4,MacIntel,59.87665409,,,,,,,,,,,,,,,,,,,,,,,,,,,down,0,9.6635,,0.239492188,-0.123862305,1,0,0,0.9694,0,21,21,191,1,opheffen,images/br_opheffen.png,images/cb_opheffen.png,0,,,,,,,,,,,,,,,,,,,,,,
,,,,,,00035,2023-09-26_10h31.33.685,vbt_B2_day2,2022.2.4,MacIntel,59.87665409,,,,,,,,,,,,,,,,,,,,,,,,,,,down,0,4.712,,0.338310547,-0.188618164,1,0,0,1.9599,0,22,22,99,1,koffie,images/br_koffie.png,images/cb_koffie.png,1,koffie,,,,,,,,,,,,,,,,,,,,,
,,,,,,00035,2023-09-26_10h31.33.685,vbt_B2_day2,2022.2.4,MacIntel,59.87665409,,,,,,,,,,,,,,,,,,,,,,,,,,,down,0,4.9782,,0.371708984,-0.172578125,1,0,0,1.4373,0,23,23,139,1,stiekem,images/br_stiekem.png,images/cb_stiekem.png,1,stiekem,,,,,,,,,,,,,,,,,,,,,
,,,,,,00035,2023-09-26_10h31.33.685,vbt_B2_day2,2022.2.4,MacIntel,59.87665409,,,,,,,,,,,,,,,,,,,,,,,,,,,down,0,10.4561,,0.371708984,-0.172578125,1,0,0,0.7858,0,24,24,156,1,rechten,images/br_rechten.png,images/cb_rechten.png,0,,,,,,,,,,,,,,,,,,,,,,
,,,,,,00035,2023-09-26_10h31.33.685,vbt_B2_day2,2022.2.4,MacIntel,59.87665409,,,,,,,,,,,,,,,,,,,,,,,,,,,down,0,7.6172,,0.371708984,-0.172578125,1,0,0,0.652,0,25,25,164,1,anarchie,images/br_anarchie.png,images/cb_anarchie.png,0,,,,,,,,,,,,,,,,,,,,,,
,,,,,,00035,2023-09-26_10h31.33.685,vbt_B2_day2,2022.2.4,MacIntel,59.87665409,,,,,,,,,,,,,,,,,,,,,,,,,,,down,0,18.8999,,0.371708984,-0.172578125,1,0,0,3.1792,0,26,26,43,1,klauw,images/br_klauw.png,images/cb_klauw.png,0,,,,,,,,,,,,,,,,,,,,,,
,,,,,,00035,2023-09-26_10h31.33.685,vbt_B2_day2,2022.2.4,MacIntel,59.87665409,,,,,,,,,,,,,,,,,,,,,,,,,,,down,0,6.3901,,0.371708984,-0.172578125,1,0,0,4.2759,0,27,27,62,1,knaap,images/br_knaap.png,images/cb_knaap.png,0,,,,,,,,,,,,,,,,,,,,,,
,,,,,,00035,2023-09-26_10h31.33.685,vbt_B2_day2,2022.2.4,MacIntel,59.87665409,,,,,,,,,,,,,,,,,,,,,,,,,,,down,0,15.9188,,0.371708984,-0.172578125,1,0,0,6.6974,0,28,28,6,1,diep,images/br_diep.png,images/cb_diep.png,0,,,,,,,,,,,,,,,,,,,,,,
,,,,,,00035,2023-09-26_10h31.33.685,vbt_B2_day2,2022.2.4,MacIntel,59.87665409,,,,,,,,,,,,,,,,,,,,,,,,,,,down,0,11.6249,,0.371708984,-0.172578125,1,0,0,2.7067,0,29,29,129,1,verhaal,images/br_verhaal.png,images/cb_verhaal.png,0,,,,,,,,,,,,,,,,,,,,,,
,,,,,,00035,2023-09-26_10h31.33.685,vbt_B2_day2,2022.2.4,MacIntel,59.87665409,,,,,,,,,,,,,,,,,,,,,,,,,,,down,0,1.7047,,0.371708984,-0.172578125,1,0,0,1.8545,0,30,30,35,1,lust,images/br_lust.png,images/cb_lust.png,0,,,,,,,,,,,,,,,,,,,,,,
,,,,,,00035,2023-09-26_10h31.33.685,vbt_B2_day2,2022.2.4,MacIntel,59.87665409,,,,,,,,,,,,,,,,,,,,,,,,,,,down,0,5.4385,,0.377036133,-0.166923828,1,0,0,1.9042,0,31,31,177,1,maaltijd,images/br_maaltijd.png,images/cb_maaltijd.png,1,maaltijd,,,,,,,,,,,,,,,,,,,,,
,,,,,,00035,2023-09-26_10h31.33.685,vbt_B2_day2,2022.2.4,MacIntel,59.87665409,,,,,,,,,,,,,,,,,,,,,,,,,,,down,0,9.2135,,0.393408203,-0.125195312,1,0,0,3.8409,0,32,32,175,1,heengaan,images/br_heengaan.png,images/cb_heengaan.png,0,,,,,,,,,,,,,,,,,,,,,,
,,,,,,00035,2023-09-26_10h31.33.685,vbt_B2_day2,2022.2.4,MacIntel,59.87665409,,,,,,,,,,,,,,,,,,,,,,,,,,,down,0,2.4895,,0.382441406,-0.121953125,1,0,0,1.7633,0,33,33,112,1,lukken,images/br_lukken.png,images/cb_lukken.png,0,,,,,,,,,,,,,,,,,,,,,,
,,,,,,00035,2023-09-26_10h31.33.685,vbt_B2_day2,2022.2.4,MacIntel,59.87665409,,,,,,,,,,,,,,,,,,,,,,,,,,,down,0,2.172,,0.360063477,-0.113642578,1,0,0,1.8371,0,34,34,66,1,lever,images/br_lever.png,images/cb_lever.png,0,,,,,,,,,,,,,,,,,,,,,,
,,,,,,00035,2023-09-26_10h31.33.685,vbt_B2_day2,2022.2.4,MacIntel,59.87665409,,,,,,,,,,,,,,,,,,,,,,,,,,,down,0,14.9664,,0.360063477,-0.113642578,1,0,0,11.6248,0,35,35,94,1,oceaan,images/br_oceaan.png,images/cb_oceaan.png,0,,,,,,,,,,,,,,,,,,,,,,
,,,,,,00035,2023-09-26_10h31.33.685,vbt_B2_day2,2022.2.4,MacIntel,59.87665409,,,,,,,,,,,,,,,,,,,,,,,,,,,down,0,4.3934,,0.360063477,-0.113642578,1,0,0,0.8354,0,36,36,16,1,ziek,images/br_ziek.png,images/cb_ziek.png,1,ziek,,,,,,,,,,,,,,,,,,,,,
,,,,,,00035,2023-09-26_10h31.33.685,vbt_B2_day2,2022.2.4,MacIntel,59.87665409,,,,,,,,,,,,,,,,,,,,,,,,,,,down,0,4.0959,,0.004287109,-0.026689453,1,0,0,1.0524,0,37,37,37,1,mijn,images/br_mijn.png,images/cb_mijn.png,0,,,,,,,,,,,,,,,,,,,,,,
,,,,,,00035,2023-09-26_10h31.33.685,vbt_B2_day2,2022.2.4,MacIntel,59.87665409,,,,,,,,,,,,,,,,,,,,,,,,,,,down,0,12.1692,,0.273291016,-0.100976563,1,0,0,1.0524,0,38,38,161,1,attentie,images/br_attentie.png,images/cb_attentie.png,0,,,,,,,,,,,,,,,,,,,,,,
,,,,,,00035,2023-09-26_10h31.33.685,vbt_B2_day2,2022.2.4,MacIntel,59.87665409,,,,,,,,,,,,,,,,,,,,,,,,,,,down,0,5.4232,,0.32796875,0.04480957,1,0,0,0.5239,0,39,39,24,1,jurk,images/br_jurk.png,images/cb_jurk.png,0,,,,,,,,,,,,,,,,,,,,,,
,,,,,,00035,2023-09-26_10h31.33.685,vbt_B2_day2,2022.2.4,MacIntel,59.87665409,,,,,,,,,,,,,,,,,,,,,,,,,,,down,0,32.9018,,0.192070313,-0.135263672,1,0,0,3.077,0,40,40,195,1,middelen,images/br_middelen.png,images/cb_middelen.png,0,,,,,,,,,,,,,,,,,,,,,,
,,,,,,00035,2023-09-26_10h31.33.685,vbt_B2_day2,2022.2.4,MacIntel,59.87665409,,,,,,,,,,,,,,,,,,,,,,,,,,,down,0,12.8784,,0.374291992,-0.073798828,1,0,0,4.811,0,41,41,15,1,soda,images/br_soda.png,images/cb_soda.png,0,,,,,,,,,,,,,,,,,,,,,,
,,,,,,00035,2023-09-26_10h31.33.685,vbt_B2_day2,2022.2.4,MacIntel,59.87665409,,,,,,,,,,,,,,,,,,,,,,,,,,,down,0,7.2499,,0.501152344,0.008955078,1,0,0,0.7685,0,42,42,104,1,zweven,images/br_zweven.png,images/cb_zweven.png,0,,,,,,,,,,,,,,,,,,,,,,
,,,,,,00035,2023-09-26_10h31.33.685,vbt_B2_day2,2022.2.4,MacIntel,59.87665409,,,,,,,,,,,,,,,,,,,,,,,,,,,down,0,9.1872,,0.501152344,0.008955078,1,0,0,0.6682,0,43,43,80,1,kanjer,images/br_kanjer.png,images/cb_kanjer.png,0,,,,,,,,,,,,,,,,,,,,,,
,,,,,,00035,2023-09-26_10h31.33.685,vbt_B2_day2,2022.2.4,MacIntel,59.87665409,,,,,,,,,,,,,,,,,,,,,,,,,,,down,0,10.9075,,0.361665039,-0.066142578,1,0,0,1.7207,0,44,44,32,1,palm,images/br_palm.png,images/cb_palm.png,0,,,,,,,,,,,,,,,,,,,,,,
,,,,,,00035,2023-09-26_10h31.33.685,vbt_B2_day2,2022.2.4,MacIntel,59.87665409,,,,,,,,,,,,,,,,,,,,,,,,,,,down,0,1.7379,,0.364130859,0.012255859,1,0,0,2.5483,0,45,45,31,1,poes,images/br_poes.png,images/cb_poes.png,0,,,,,,,,,,,,,,,,,,,,,,
,,,,,,00035,2023-09-26_10h31.33.685,vbt_B2_day2,2022.2.4,MacIntel,59.87665409,,,,,,,,,,,,,,,,,,,,,,,,,,,down,0,6.0303,,0.364130859,0.012255859,1,0,0,1.7485,0,46,46,48,1,steel,images/br_steel.png,images/cb_steel.png,0,,,,,,,,,,,,,,,,,,,,,,
,,,,,,00035,2023-09-26_10h31.33.685,vbt_B2_day2,2022.2.4,MacIntel,59.87665409,,,,,,,,,,,,,,,,,,,,,,,,,,,down,0,12.6038,,0.380126953,-0.016425781,1,0,0,16.2846,0,47,47,86,1,woning,images/br_woning.png,images/cb_woning.png,0,,,,,,,,,,,,,,,,,,,,,,
,,,,,,00035,2023-09-26_10h31.33.685,vbt_B2_day2,2022.2.4,MacIntel,59.87665409,,,,,,,,,,,,,,,,,,,,,,,,,,,down,0,8.3667,,0.320810547,-0.08737793,1,0,0,2.1551,0,48,48,122,1,waarvan,images/br_waarvan.png,images/cb_waarvan.png,0,,,,,,,,,,,,,,,,,,,,,,
,,,,,,00035,2023-09-26_10h31.33.685,vbt_B2_day2,2022.2.4,MacIntel,59.87665409,,,,,,,,,,,,,,,,,,,,,,,,,,,down,0,1.5969,,0.312524414,-0.063178711,1,0,0,3.9923,0,49,49,111,1,ticket,images/br_ticket.png,images/cb_ticket.png,0,,,,,,,,,,,,,,,,,,,,,,
,,,,,,00035,2023-09-26_10h31.33.685,vbt_B2_day2,2022.2.4,MacIntel,59.87665409,,,,,,,,,,,,,,,,,,,,,,,,,,,down,0,9.4316,,0.301367188,-0.130561523,1,0,0,12.8345,0,50,50,166,1,strikken,images/br_strikken.png,images/cb_strikken.png,0,,,,,,,,,,,,,,,,,,,,,,
,,,,,,00035,2023-09-26_10h31.33.685,vbt_B2_day2,2022.2.4,MacIntel,59.87665409,,,,,,,,,,,,,,,,,,,,,,,,,,,down,0,6.3397,,0.214921875,-0.206523437,1,0,0,7.4934,0,51,51,181,1,toegeven,images/br_toegeven.png,images/cb_toegeven.png,0,,,,,,,,,,,,,,,,,,,,,,
,,,,,,00035,2023-09-26_10h31.33.685,vbt_B2_day2,2022.2.4,MacIntel,59.87665409,,,,,,,,,,,,,,,,,,,,,,,,,,,down,0,9.7505,,0.328232422,-0.167939453,1,0,0,2.1261,0,52,52,132,1,grappen,images/br_grappen.png,images/cb_grappen.png,0,,,,,,,,,,,,,,,,,,,,,,
,,,,,,00035,2023-09-26_10h31.33.685,vbt_B2_day2,2022.2.4,MacIntel,59.87665409,,,,,,,,,,,,,,,,,,,,,,,,,,,down,0,14.7662,,0.321035156,-0.278041992,1,0,0,7.2885,0,53,53,152,1,afnemen,images/br_afnemen.png,images/cb_afnemen.png,0,,,,,,,,,,,,,,,,,,,,,,
,,,,,,00035,2023-09-26_10h31.33.685,vbt_B2_day2,2022.2.4,MacIntel,59.87665409,,,,,,,,,,,,,,,,,,,,,,,,,,,down,0,15.4005,,0.390395508,-0.119648437,1,0,0,4.326,0,54,54,173,1,apparaat,images/br_apparaat.png,images/cb_apparaat.png,0,,,,,,,,,,,,,,,,,,,,,,
,,,,,,00035,2023-09-26_10h31.33.685,vbt_B2_day2,2022.2.4,MacIntel,59.87665409,,,,,,,,,,,,,,,,,,,,,,,,,,,down,0,0.8109,,0.390395508,-0.119648437,1,0,0,4.4934,0,55,55,28,1,stal,images/br_stal.png,images/cb_stal.png,0,,,,,,,,,,,,,,,,,,,,,,
,,,,,,00035,2023-09-26_10h31.33.685,vbt_B2_day2,2022.2.4,MacIntel,59.87665409,,,,,,,,,,,,,,,,,,,,,,,,,,,down,0,5.1619,,0.390395508,-0.119648437,1,0,0,1.3362,0,56,56,69,1,waken,images/br_waken.png,images/cb_waken.png,0,,,,,,,,,,,,,,,,,,,,,,
,,,,,,00035,2023-09-26_10h31.33.685,vbt_B2_day2,2022.2.4,MacIntel,59.87665409,,,,,,,,,,,,,,,,,,,,,,,,,,,down,0,4.2638,,0.390395508,-0.119648437,1,0,0,4.8663,0,57,57,8,1,knie,images/br_knie.png,images/cb_knie.png,0,,,,,,,,,,,,,,,,,,,,,,
,,,,,,00035,2023-09-26_10h31.33.685,vbt_B2_day2,2022.2.4,MacIntel,59.87665409,,,,,,,,,,,,,,,,,,,,,,,,,,,down,0,6.8825,,0.390395508,-0.119648437,1,0,0,46.3219,0,58,58,141,1,knielen,images/br_knielen.png,images/cb_knielen.png,0,,,,,,,,,,,,,,,,,,,,,,
,,,,,,00035,2023-09-26_10h31.33.685,vbt_B2_day2,2022.2.4,MacIntel,59.87665409,,,,,,,,,,,,,,,,,,,,,,,,,,,down,0,15.2337,,0.219379883,-0.072324219,1,0,0,0.9357,0,59,59,54,1,gebit,images/br_gebit.png,images/cb_gebit.png,0,,,,,,,,,,,,,,,,,,,,,,
,,,,,,00035,2023-09-26_10h31.33.685,vbt_B2_day2,2022.2.4,MacIntel,59.87665409,,,,,,,,,,,,,,,,,,,,,,,,,,,down,0,10.5274,,0.324936523,-0.008032227,1,0,0,6.3849,0,60,60,128,1,prikken,images/br_prikken.png,images/cb_prikken.png,0,,,,,,,,,,,,,,,,,,,,,,
,,,,,,00035,2023-09-26_10h31.33.685,vbt_B2_day2,2022.2.4,MacIntel,59.87665409,,,,,,,,,,,,,,,,,,,,,,,,,,,down,0,4.4937,,0.221787109,-0.086352539,1,0,0,0.601,0,61,61,9,1,hier,images/br_hier.png,images/cb_hier.png,0,,,,,,,,,,,,,,,,,,,,,,
,,,,,,00035,2023-09-26_10h31.33.685,vbt_B2_day2,2022.2.4,MacIntel,59.87665409,,,,,,,,,,,,,,,,,,,,,,,,,,,down,0,12.7544,,0.221787109,-0.086352539,1,0,0,2.5821,0,62,62,184,1,aandelen,images/br_aandelen.png,images/cb_aandelen.png,0,,,,,,,,,,,,,,,,,,,,,,
,,,,,,00035,2023-09-26_10h31.33.685,vbt_B2_day2,2022.2.4,MacIntel,59.87665409,,,,,,,,,,,,,,,,,,,,,,,,,,,down,0,8.428,,0.221787109,-0.086352539,1,0,0,0.835,0,63,63,167,1,eenhoorn,images/br_eenhoorn.png,images/cb_eenhoorn.png,0,,,,,,,,,,,,,,,,,,,,,,
,,,,,,00035,2023-09-26_10h31.33.685,vbt_B2_day2,2022.2.4,MacIntel,59.87665409,,,,,,,,,,,,,,,,,,,,,,,,,,,down,0,4.6437,,0.376650391,-0.130419922,1,0,0,4.6831,0,64,64,190,1,goedkoop,images/br_goedkoop.png,images/cb_goedkoop.png,0,,,,,,,,,,,,,,,,,,,,,,
,,,,,,00035,2023-09-26_10h31.33.685,vbt_B2_day2,2022.2.4,MacIntel,59.87665409,,,,,,,,,,,,,,,,,,,,,,,,,,,down,0,4.1765,,0.376650391,-0.130419922,1,0,0,4.6385,0,65,65,160,1,daarheen,images/br_daarheen.png,images/cb_daarheen.png,0,,,,,,,,,,,,,,,,,,,,,,
,,,,,,00035,2023-09-26_10h31.33.685,vbt_B2_day2,2022.2.4,MacIntel,59.87665409,,,,,,,,,,,,,,,,,,,,,,,,,,,down,0,11.017,,0.30472168,-0.073427734,1,0,0,3.3572,0,66,66,41,1,maken,images/br_maken.png,images/cb_maken.png,0,,,,,,,,,,,,,,,,,,,,,,
,,,,,,00035,2023-09-26_10h31.33.685,vbt_B2_day2,2022.2.4,MacIntel,59.87665409,,,,,,,,,,,,,,,,,,,,,,,,,,,down,0,10.7405,,0.30472168,-0.073427734,1,0,0,0.9352,0,67,67,108,1,excuus,images/br_excuus.png,images/cb_excuus.png,0,,,,,,,,,,,,,,,,,,,,,,
,,,,,,00035,2023-09-26_10h31.33.685,vbt_B2_day2,2022.2.4,MacIntel,59.87665409,,,,,,,,,,,,,,,,,,,,,,,,,,,down,0,1.7544,,0.313994141,-0.075556641,1,0,0,0.6911,0,68,68,36,1,vuur,images/br_vuur.png,images/cb_vuur.png,0,,,,,,,,,,,,,,,,,,,,,,
,,,,,,00035,2023-09-26_10h31.33.685,vbt_B2_day2,2022.2.4,MacIntel,59.87665409,,,,,,,,,,,,,,,,,,,,,,,,,,,down,0,0.3514,,0.313110352,-0.075556641,1,0,0,0.5562,0,69,69,39,1,laag,images/br_laag.png,images/cb_laag.png,0,,,,,,,,,,,,,,,,,,,,,,
,,,,,,00035,2023-09-26_10h31.33.685,vbt_B2_day2,2022.2.4,MacIntel,59.87665409,,,,,,,,,,,,,,,,,,,,,,,,,,,down,0,9.1077,,0.313110352,-0.075556641,1,0,0,0.7336,0,70,70,157,1,uitlaat,images/br_uitlaat.png,images/cb_uitlaat.png,0,,,,,,,,,,,,,,,,,,,,,,
,,,,,,00035,2023-09-26_10h31.33.685,vbt_B2_day2,2022.2.4,MacIntel,59.87665409,,,,,,,,,,,,,,,,,,,,,,,,,,,down,0,13.0216,,0.313110352,-0.075556641,1,0,0,0.9357,0,71,71,4,1,moes,images/br_moes.png,images/cb_moes.png,0,,,,,,,,,,,,,,,,,,,,,,
,,,,,,00035,2023-09-26_10h31.33.685,vbt_B2_day2,2022.2.4,MacIntel,59.87665409,,,,,,,,,,,,,,,,,,,,,,,,,,,down,0,7.6171,,0.313110352,-0.075556641,1,0,0,0.7013,0,72,72,93,1,waarop,images/br_waarop.png,images/cb_waarop.png,0,,,,,,,,,,,,,,,,,,,,,,
,,,,,,00035,2023-09-26_10h31.33.685,vbt_B2_day2,2022.2.4,MacIntel,59.87665409,,,,,,,,,,,,,,,,,,,,,,,,,,,down,0,9.2707,,0.313110352,-0.075556641,1,0,0,0.5177,0,73,73,2,1,jaar,images/br_jaar.png,images/cb_jaar.png,0,,,,,,,,,,,,,,,,,,,,,,
,,,,,,00035,2023-09-26_10h31.33.685,vbt_B2_day2,2022.2.4,MacIntel,59.87665409,,,,,,,,,,,,,,,,,,,,,,,,,,,down,0,2.7563,,0.313110352,-0.075556641,1,0,0,0.7019,0,74,74,186,1,voorraad,images/br_voorraad.png,images/cb_voorraad.png,0,,,,,,,,,,,,,,,,,,,,,,
,,,,,,00035,2023-09-26_10h31.33.685,vbt_B2_day2,2022.2.4,MacIntel,59.87665409,,,,,,,,,,,,,,,,,,,,,,,,,,,down,0,4.3176,,0.313110352,-0.075556641,1,0,0,0.7253,0,75,75,110,1,zuster,images/br_zuster.png,images/cb_zuster.png,0,,,,,,,,,,,,,,,,,,,,,,
,,,,,,00035,2023-09-26_10h31.33.685,vbt_B2_day2,2022.2.4,MacIntel,59.87665409,,,,,,,,,,,,,,,,,,,,,,,,,,,down,0,5.2968,,0.313110352,-0.075556641,1,0,0,0.6573,0,76,76,61,1,groen,images/br_groen.png,images/cb_groen.png,0,,,,,,,,,,,,,,,,,,,,,,
,,,,,,00035,2023-09-26_10h31.33.685,vbt_B2_day2,2022.2.4,MacIntel,59.87665409,,,,,,,,,,,,,,,,,,,,,,,,,,,down,0,17.2882,,0.375874023,0.020273438,1,0,0,0.952,0,77,77,137,1,trekker,images/br_trekker.png,images/cb_trekker.png,1,trekker,,,,,,,,,,,,,,,,,,,,,
,,,,,,00035,2023-09-26_10h31.33.685,vbt_B2_day2,2022.2.4,MacIntel,59.87665409,,,,,,,,,,,,,,,,,,,,,,,,,,,down,0,2.5229,,0.375874023,0.020273438,1,0,0,0.6683,0,78,78,71,1,bever,images/br_bever.png,images/cb_bever.png,0,,,,,,,,,,,,,,,,,,,,,,
,,,,,,00035,2023-09-26_10h31.33.685,vbt_B2_day2,2022.2.4,MacIntel,59.87665409,,,,,,,,,,,,,,,,,,,,,,,,,,,down,0,1.3625,,0.286162109,-0.137524414,1,0,0,1.4026,0,79,79,78,1,leren,images/br_leren.png,images/cb_leren.png,0,,,,,,,,,,,,,,,,,,,,,,
,,,,,,00035,2023-09-26_10h31.33.685,vbt_B2_day2,2022.2.4,MacIntel,59.87665409,,,,,,,,,,,,,,,,,,,,,,,,,,,down,0,4.9539,,0.288188477,-0.138334961,1,0,0,3.2741,0,80,80,65,1,parel,images/br_parel.png,images/cb_parel.png,0,,,,,,,,,,,,,,,,,,,,,,
,,,,,,00035,2023-09-26_10h31.33.685,vbt_B2_day2,2022.2.4,MacIntel,59.87665409,,,,,,,,,,,,,,,,,,,,,,,,,,,down,0,4.7108,,0.290214844,-0.138334961,1,0,0,2.5049,0,81,81,199,1,beseffen,images/br_beseffen.png,images/cb_beseffen.png,0,,,,,,,,,,,,,,,,,,,,,,
,,,,,,00035,2023-09-26_10h31.33.685,vbt_B2_day2,2022.2.4,MacIntel,59.87665409,,,,,,,,,,,,,,,,,,,,,,,,,,,down,0,0.9359,,0.297646484,-0.144853516,1,0,0,2.389,0,82,82,52,1,wagon,images/br_wagon.png,images/cb_wagon.png,0,,,,,,,,,,,,,,,,,,,,,,
,,,,,,00035,2023-09-26_10h31.33.685,vbt_B2_day2,2022.2.4,MacIntel,59.87665409,,,,,,,,,,,,,,,,,,,,,,,,,,,down,0,0.3258,,0.297646484,-0.144853516,1,0,0,2.2106,0,83,83,109,1,totaal,images/br_totaal.png,images/cb_totaal.png,0,,,,,,,,,,,,,,,,,,,,,,
,,,,,,00035,2023-09-26_10h31.33.685,vbt_B2_day2,2022.2.4,MacIntel,59.87665409,,,,,,,,,,,,,,,,,,,,,,,,,,,down,0,8.1273,,0.297646484,-0.144853516,1,0,0,0.6182,0,84,84,143,1,hechten,images/br_hechten.png,images/cb_hechten.png,0,,,,,,,,,,,,,,,,,,,,,,
,,,,,,00035,2023-09-26_10h31.33.685,vbt_B2_day2,2022.2.4,MacIntel,59.87665409,,,,,,,,,,,,,,,,,,,,,,,,,,,down,0,2.5823,,0.297646484,-0.144853516,1,0,0,0.5456,0,85,85,42,1,bleek,images/br_bleek.png,images/cb_bleek.png,0,,,,,,,,,,,,,,,,,,,,,,
,,,,,,00035,2023-09-26_10h31.33.685,vbt_B2_day2,2022.2.4,MacIntel,59.87665409,,,,,,,,,,,,,,,,,,,,,,,,,,,down,0,9.7382,,0.297646484,-0.144853516,1,0,0,1.1695,0,86,86,58,1,tekst,images/br_tekst.png,images/cb_tekst.png,1,tekst,,,,,,,,,,,,,,,,,,,,,
,,,,,,00035,2023-09-26_10h31.33.685,vbt_B2_day2,2022.2.4,MacIntel,59.87665409,,,,,,,,,,,,,,,,,,,,,,,,,,,down,0,2.1548,,0.203793945,-0.181635742,1,0,0,0.5188,0,87,87,34,1,vorm,images/br_vorm.png,images/cb_vorm.png,0,,,,,,,,,,,,,,,,,,,,,,
,,,,,,00035,2023-09-26_10h31.33.685,vbt_B2_day2,2022.2.4,MacIntel,59.87665409,,,,,,,,,,,,,,,,,,,,,,,,,,,down,0,2.3559,,0.203793945,-0.181635742,1,0,0,3.5574,0,88,88,106,1,zingen,images/br_zingen.png,images/cb_zingen.png,0,,,,,,,,,,,,,,,,,,,,,,
,,,,,,00035,2023-09-26_10h31.33.685,vbt_B2_day2,2022.2.4,MacIntel,59.87665409,,,,,,,,,,,,,,,,,,,,,,,,,,,down,0,15.5509,,0.203793945,-0.181635742,1,0,0,12.8612,0,89,89,90,1,geluid,images/br_geluid.png,images/cb_geluid.png,0,,,,,,,,,,,,,,,,,,,,,,
,,,,,,00035,2023-09-26_10h31.33.685,vbt_B2_day2,2022.2.4,MacIntel,59.87665409,,,,,,,,,,,,,,,,,,,,,,,,,,,down,0,3.8015,,0.203793945,-0.181635742,1,0,0,0.6849,0,90,90,76,1,afval,images/br_afval.png,images/cb_afval.png,0,,,,,,,,,,,,,,,,,,,,,,
,,,,,,00035,2023-09-26_10h31.33.685,vbt_B2_day2,2022.2.4,MacIntel,59.87665409,,,,,,,,,,,,,,,,,,,,,,,,,,,down,0,1.8046,,0.203793945,-0.181635742,1,0,0,1.2695,0,91,91,27,1,dans,images/br_dans.png,images/cb_dans.png,0,,,,,,,,,,,,,,,,,,,,,,
,,,,,,00035,2023-09-26_10h31.33.685,vbt_B2_day2,2022.2.4,MacIntel,59.87665409,,,,,,,,,,,,,,,,,,,,,,,,,,,down,0,2.5365,,0.203793945,-0.181635742,1,0,0,1.5561,0,92,92,125,1,aanzien,images/br_aanzien.png,images/cb_aanzien.png,0,,,,,,,,,,,,,,,,,,,,,,
,,,,,,00035,2023-09-26_10h31.33.685,vbt_B2_day2,2022.2.4,MacIntel,59.87665409,,,,,,,,,,,,,,,,,,,,,,,,,,,down,0,10.6156,,0.203793945,-0.181635742,1,0,0,15.4668,0,93,93,127,1,doodmoe,images/br_doodmoe.png,images/cb_doodmoe.png,0,,,,,,,,,,,,,,,,,,,,,,
,,,,,,00035,2023-09-26_10h31.33.685,vbt_B2_day2,2022.2.4,MacIntel,59.87665409,,,,,,,,,,,,,,,,,,,,,,,,,,,down,0,2.4894,,0.415302734,-0.032324219,1,0,0,9.2102,0,94,94,158,1,innemen,images/br_innemen.png,images/cb_innemen.png,0,,,,,,,,,,,,,,,,,,,,,,
,,,,,,00035,2023-09-26_10h31.33.685,vbt_B2_day2,2022.2.4,MacIntel,59.87665409,,,,,,,,,,,,,,,,,,,,,,,,,,,down,0,5.3956,,0.415302734,-0.032324219,1,0,0,1.8372,0,95,95,194,1,driemaal,images/br_driemaal.png,images/cb_driemaal.png,0,,,,,,,,,,,,,,,,,,,,,,
,,,,,,00035,2023-09-26_10h31.33.685,vbt_B2_day2,2022.2.4,MacIntel,59.87665409,,,,,,,,,,,,,,,,,,,,,,,,,,,down,0,4.4602,,0.415302734,-0.032324219,1,0,0,0.5514,0,96,96,87,1,toeval,images/br_toeval.png,images/cb_toeval.png,0,,,,,,,,,,,,,,,,,,,,,,
,,,,,,00035,2023-09-26_10h31.33.685,vbt_B2_day2,2022.2.4,MacIntel,59.87665409,,,,,,,,,,,,,,,,,,,,,,,,,,,down,0,5.4122,,0.415302734,-0.032324219,1,0,0,0.9523,0,97,97,185,1,mijnheer,images/br_mijnheer.png,images/cb_mijnheer.png,0,,,,,,,,,,,,,,,,,,,,,,
,,,,,,00035,2023-09-26_10h31.33.685,vbt_B2_day2,2022.2.4,MacIntel,59.87665409,,,,,,,,,,,,,,,,,,,,,,,,,,,down,0,3.7586,,0.326958008,-0.092670898,1,0,0,1.0698,0,98,98,97,1,loyaal,images/br_loyaal.png,images/cb_loyaal.png,1,loyaal,,,,,,,,,,,,,,,,,,,,,
,,,,,,00035,2023-09-26_10h31.33.685,vbt_B2_day2,2022.2.4,MacIntel,59.87665409,,,,,,,,,,,,,,,,,,,,,,,,,,,down,0,2.9237,,0.256381836,-0.067832031,1,0,0,1.0189,0,99,99,17,1,taal,images/br_taal.png,images/cb_taal.png,1,taal,,,,,,,,,,,,,,,,,,,,,
,,,,,,00035,2023-09-26_10h31.33.685,vbt_B2_day2,2022.2.4,MacIntel,59.87665409,,,,,,,,,,,,,,,,,,,,,,,,,,,down,0,6.1641,,0.256381836,-0.067832031,1,0,0,2.7063,0,100,100,149,1,redding,images/br_redding.png,images/cb_redding.png,0,,,,,,,,,,,,,,,,,,,,,,
,,,,,,00035,2023-09-26_10h31.33.685,vbt_B2_day2,2022.2.4,MacIntel,59.87665409,,,,,,,,,,,,,,,,,,,,,,,,,,,down,0,0.2512,,0.320473633,-0.155288086,1,0,0,2.2215,0,101,101,142,1,snuiven,images/br_snuiven.png,images/cb_snuiven.png,0,,,,,,,,,,,,,,,,,,,,,,
,,,,,,00035,2023-09-26_10h31.33.685,vbt_B2_day2,2022.2.4,MacIntel,59.87665409,,,,,,,,,,,,,,,,,,,,,,,,,,,down,0,1.8299,,0.220239258,-0.082148438,1,0,0,1.4196,0,102,102,12,1,kust,images/br_kust.png,images/cb_kust.png,0,,,,,,,,,,,,,,,,,,,,,,
,,,,,,00035,2023-09-26_10h31.33.685,vbt_B2_day2,2022.2.4,MacIntel,59.87665409,,,,,,,,,,,,,,,,,,,,,,,,,,,down,0,11.0002,,0.221455078,-0.082958984,1,0,0,2.2214,0,103,103,119,1,liefje,images/br_liefje.png,images/cb_liefje.png,0,,,,,,,,,,,,,,,,,,,,,,
,,,,,,00035,2023-09-26_10h31.33.685,vbt_B2_day2,2022.2.4,MacIntel,59.87665409,,,,,,,,,,,,,,,,,,,,,,,,,,,down,0,3.1575,,0.313740234,-0.113457031,1,0,0,10.5727,0,104,104,60,1,jasje,images/br_jasje.png,images/cb_jasje.png,0,,,,,,,,,,,,,,,,,,,,,,
,,,,,,00035,2023-09-26_10h31.33.685,vbt_B2_day2,2022.2.4,MacIntel,59.87665409,,,,,,,,,,,,,,,,,,,,,,,,,,,down,0,1.0865,,0.313740234,-0.113457031,1,0,0,3.6749,0,105,105,13,1,kaal,images/br_kaal.png,images/cb_kaal.png,0,,,,,,,,,,,,,,,,,,,,,,
,,,,,,00035,2023-09-26_10h31.33.685,vbt_B2_day2,2022.2.4,MacIntel,59.87665409,,,,,,,,,,,,,,,,,,,,,,,,,,,down,0,12.4607,,0.313740234,-0.113457031,1,0,0,11.8418,0,106,106,151,1,aanzoek,images/br_aanzoek.png,images/cb_aanzoek.png,0,,,,,,,,,,,,,,,,,,,,,,
,,,,,,00035,2023-09-26_10h31.33.685,vbt_B2_day2,2022.2.4,MacIntel,59.87665409,,,,,,,,,,,,,,,,,,,,,,,,,,,down,0,2.0383,,0.313740234,-0.113457031,1,0,0,5.1948,0,107,107,196,1,nakijken,images/br_nakijken.png,images/cb_nakijken.png,0,,,,,,,,,,,,,,,,,,,,,,
,,,,,,00035,2023-09-26_10h31.33.685,vbt_B2_day2,2022.2.4,MacIntel,59.87665409,,,,,,,,,,,,,,,,,,,,,,,,,,,down,0,8.4522,,0.169057617,-0.013017578,1,0,0,0.7184,0,108,108,140,1,blijven,images/br_blijven.png,images/cb_blijven.png,0,,,,,,,,,,,,,,,,,,,,,,
,,,,,,00035,2023-09-26_10h31.33.685,vbt_B2_day2,2022.2.4,MacIntel,59.87665409,,,,,,,,,,,,,,,,,,,,,,,,,,,down,0,6.5312,,0.169057617,-0.013017578,1,0,0,0.7121,0,109,109,153,1,vervoer,images/br_vervoer.png,images/cb_vervoer.png,0,,,,,,,,,,,,,,,,,,,,,,
,,,,,,00035,2023-09-26_10h31.33.685,vbt_B2_day2,2022.2.4,MacIntel,59.87665409,,,,,,,,,,,,,,,,,,,,,,,,,,,down,0,1.544,,0.169057617,-0.013017578,1,0,0,2.2783,0,110,110,22,1,stof,images/br_stof.png,images/cb_stof.png,0,,,,,,,,,,,,,,,,,,,,,,
,,,,,,00035,2023-09-26_10h31.33.685,vbt_B2_day2,2022.2.4,MacIntel,59.87665409,,,,,,,,,,,,,,,,,,,,,,,,,,,down,0,11.4419,,0.169057617,-0.013017578,1,0,0,0.7014,0,111,111,29,1,baas,images/br_baas.png,images/cb_baas.png,0,,,,,,,,,,,,,,,,,,,,,,
,,,,,,00035,2023-09-26_10h31.33.685,vbt_B2_day2,2022.2.4,MacIntel,59.87665409,,,,,,,,,,,,,,,,,,,,,,,,,,,down,0,0.945,,0.241958008,-0.044990234,1,0,0,2.8503,0,112,112,81,1,dubbel,images/br_dubbel.png,images/cb_dubbel.png,0,,,,,,,,,,,,,,,,,,,,,,
,,,,,,00035,2023-09-26_10h31.33.685,vbt_B2_day2,2022.2.4,MacIntel,59.87665409,,,,,,,,,,,,,,,,,,,,,,,,,,,down,0,8.3849,,0.243173828,-0.04190918,1,0,0,2.1054,0,113,113,182,1,bijkomen,images/br_bijkomen.png,images/cb_bijkomen.png,0,,,,,,,,,,,,,,,,,,,,,,
,,,,,,00035,2023-09-26_10h31.33.685,vbt_B2_day2,2022.2.4,MacIntel,59.87665409,,,,,,,,,,,,,,,,,,,,,,,,,,,down,0,2.4642,,0.301015625,-0.117856445,1,0,0,2.1536,0,114,114,115,1,kleren,images/br_kleren.png,images/cb_kleren.png,0,,,,,,,,,,,,,,,,,,,,,,
,,,,,,00035,2023-09-26_10h31.33.685,vbt_B2_day2,2022.2.4,MacIntel,59.87665409,,,,,,,,,,,,,,,,,,,,,,,,,,,down,0,4.1764,,0.301015625,-0.117856445,1,0,0,9.5038,0,115,115,144,1,eetlust,images/br_eetlust.png,images/cb_eetlust.png,0,,,,,,,,,,,,,,,,,,,,,,
,,,,,,00035,2023-09-26_10h31.33.685,vbt_B2_day2,2022.2.4,MacIntel,59.87665409,,,,,,,,,,,,,,,,,,,,,,,,,,,down,0,0.1346,,0.301015625,-0.117856445,1,0,0,17.1932,0,116,116,162,1,uitdelen,images/br_uitdelen.png,images/cb_uitdelen.png,0,,,,,,,,,,,,,,,,,,,,,,
,,,,,,00035,2023-09-26_10h31.33.685,vbt_B2_day2,2022.2.4,MacIntel,59.87665409,,,,,,,,,,,,,,,,,,,,,,,,,,,down,0,1.212,,0.513364258,-0.136992188,1,0,0,4.7543,0,117,117,187,1,opkijken,images/br_opkijken.png,images/cb_opkijken.png,0,,,,,,,,,,,,,,,,,,,,,,
,,,,,,00035,2023-09-26_10h31.33.685,vbt_B2_day2,2022.2.4,MacIntel,59.87665409,,,,,,,,,,,,,,,,,,,,,,,,,,,down,0,0.4766,,0.432216797,-0.074956055,1,0,0,23.1895,0,118,118,21,1,mist,images/br_mist.png,images/cb_mist.png,0,,,,,,,,,,,,,,,,,,,,,,
,,,,,,00035,2023-09-26_10h31.33.685,vbt_B2_day2,2022.2.4,MacIntel,59.87665409,,,,,,,,,,,,,,,,,,,,,,,,,,,down,0,6.2975,,0.432216797,-0.074956055,1,0,0,5.1109,0,119,119,46,1,jagen,images/br_jagen.png,images/cb_jagen.png,0,,,,,,,,,,,,,,,,,,,,,,
,,,,,,00035,2023-09-26_10h31.33.685,vbt_B2_day2,2022.2.4,MacIntel,59.87665409,,,,,,,,,,,,,,,,,,,,,,,,,,,down,0,2.1219,,0.328178711,-0.086992187,1,0,0,9.7878,0,120,120,14,1,rijp,images/br_rijp.png,images/cb_rijp.png,0,,,,,,,,,,,,,,,,,,,,,,
,,,,,,00035,2023-09-26_10h31.33.685,vbt_B2_day2,2022.2.4,MacIntel,59.87665409,,,,,,,,,,,,,,,,,,,,,,,,,,,down,0,12.9455,,0.408061523,-0.058271484,1,0,0,2.238,0,121,121,136,1,waarbij,images/br_waarbij.png,images/cb_waarbij.png,1,waarbij,,,,,,,,,,,,,,,,,,,,,
,,,,,,00035,2023-09-26_10h31.33.685,vbt_B2_day2,2022.2.4,MacIntel,59.87665409,,,,,,,,,,,,,,,,,,,,,,,,,,,down,0,2.7704,,0.408061523,-0.058271484,1,0,0,0.7045,0,122,122,33,1,vlek,images/br_vlek.png,images/cb_vlek.png,0,,,,,,,,,,,,,,,,,,,,,,
,,,,,,00035,2023-09-26_10h31.33.685,vbt_B2_day2,2022.2.4,MacIntel,59.87665409,,,,,,,,,,,,,,,,,,,,,,,,,,,down,0,0.4653,,0.408061523,-0.058271484,1,0,0,1.4563,0,123,123,20,1,site,images/br_site.png,images/cb_site.png,0,,,,,,,,,,,,,,,,,,,,,,
,,,,,,00035,2023-09-26_10h31.33.685,vbt_B2_day2,2022.2.4,MacIntel,59.87665409,,,,,,,,,,,,,,,,,,,,,,,,,,,down,0,1.0029,,0.356923828,-0.0496875,1,0,0,2.6054,0,124,124,40,1,schep,images/br_schep.png,images/cb_schep.png,0,,,,,,,,,,,,,,,,,,,,,,
,,,,,,00035,2023-09-26_10h31.33.685,vbt_B2_day2,2022.2.4,MacIntel,59.87665409,,,,,,,,,,,,,,,,,,,,,,,,,,,down,0,1.3721,,0.390537109,-0.074677734,1,0,0,3.4459,0,125,125,74,1,graaf,images/br_graaf.png,images/cb_graaf.png,0,,,,,,,,,,,,,,,,,,,,,,
,,,,,,00035,2023-09-26_10h31.33.685,vbt_B2_day2,2022.2.4,MacIntel,59.87665409,,,,,,,,,,,,,,,,,,,,,,,,,,,down,0,10.9408,,0.390537109,-0.074677734,1,0,0,1.687,0,126,126,118,1,vinger,images/br_vinger.png,images/cb_vinger.png,0,,,,,,,,,,,,,,,,,,,,,,
,,,,,,00035,2023-09-26_10h31.33.685,vbt_B2_day2,2022.2.4,MacIntel,59.87665409,,,,,,,,,,,,,,,,,,,,,,,,,,,down,0,13.5391,,0.390537109,-0.074677734,1,0,0,2.6394,0,127,127,38,1,baai,images/br_baai.png,images/cb_baai.png,0,,,,,,,,,,,,,,,,,,,,,,
,,,,,,00035,2023-09-26_10h31.33.685,vbt_B2_day2,2022.2.4,MacIntel,59.87665409,,,,,,,,,,,,,,,,,,,,,,,,,,,down,0,4.5523,,0.390537109,-0.074677734,1,0,0,0.5399,0,128,128,117,1,kennis,images/br_kennis.png,images/cb_kennis.png,0,,,,,,,,,,,,,,,,,,,,,,
,,,,,,00035,2023-09-26_10h31.33.685,vbt_B2_day2,2022.2.4,MacIntel,59.87665409,,,,,,,,,,,,,,,,,,,,,,,,,,,down,0,1.0911,,0.390537109,-0.074677734,1,0,0,2.3612,0,129,129,100,1,geduld,images/br_geduld.png,images/cb_geduld.png,0,,,,,,,,,,,,,,,,,,,,,,
,,,,,,00035,2023-09-26_10h31.33.685,vbt_B2_day2,2022.2.4,MacIntel,59.87665409,,,,,,,,,,,,,,,,,,,,,,,,,,,down,0,2.4393,,0.390537109,-0.074677734,1,0,0,0.7851,0,130,130,51,1,samen,images/br_samen.png,images/cb_samen.png,0,,,,,,,,,,,,,,,,,,,,,,
,,,,,,00035,2023-09-26_10h31.33.685,vbt_B2_day2,2022.2.4,MacIntel,59.87665409,,,,,,,,,,,,,,,,,,,,,,,,,,,down,0,3.2836,,0.390537109,-0.074677734,1,0,0,1.1026,0,131,131,133,1,seizoen,images/br_seizoen.png,images/cb_seizoen.png,0,,,,,,,,,,,,,,,,,,,,,,
,,,,,,00035,2023-09-26_10h31.33.685,vbt_B2_day2,2022.2.4,MacIntel,59.87665409,,,,,,,,,,,,,,,,,,,,,,,,,,,down,0,2.9673,,0.391010742,-0.075688477,1,0,0,1.3258,0,132,132,73,1,volop,images/br_volop.png,images/cb_volop.png,0,,,,,,,,,,,,,,,,,,,,,,
,,,,,,00035,2023-09-26_10h31.33.685,vbt_B2_day2,2022.2.4,MacIntel,59.87665409,,,,,,,,,,,,,,,,,,,,,,,,,,,down,0,0.9861,,0.391010742,-0.075688477,1,0,0,0.545,0,133,133,11,1,mode,images/br_mode.png,images/cb_mode.png,0,,,,,,,,,,,,,,,,,,,,,,
,,,,,,00035,2023-09-26_10h31.33.685,vbt_B2_day2,2022.2.4,MacIntel,59.87665409,,,,,,,,,,,,,,,,,,,,,,,,,,,down,0,9.78,,0.391010742,-0.075688477,1,0,0,1.2089,0,134,134,98,1,kreeft,images/br_kreeft.png,images/cb_kreeft.png,1,kreeft,,,,,,,,,,,,,,,,,,,,,
,,,,,,00035,2023-09-26_10h31.33.685,vbt_B2_day2,2022.2.4,MacIntel,59.87665409,,,,,,,,,,,,,,,,,,,,,,,,,,,down,0,8.1682,,0.717446289,0.389536133,1,0,0,46.1163,0,135,135,77,1,woede,images/br_woede.png,images/cb_woede.png,0,,,,,,,,,,,,,,,,,,,,,,
,,,,,,00035,2023-09-26_10h31.33.685,vbt_B2_day2,2022.2.4,MacIntel,59.87665409,,,,,,,,,,,,,,,,,,,,,,,,,,,down,0,17.1544,,0.301396484,-0.256430664,1,0,0,3.4413,0,136,136,88,1,boeien,images/br_boeien.png,images/cb_boeien.png,0,,,,,,,,,,,,,,,,,,,,,,
,,,,,,00035,2023-09-26_10h31.33.685,vbt_B2_day2,2022.2.4,MacIntel,59.87665409,,,,,,,,,,,,,,,,,,,,,,,,,,,down,0,8.5694,,0.458706055,-0.127304688,1,0,0,0.7015,0,137,137,101,1,staren,images/br_staren.png,images/cb_staren.png,0,,,,,,,,,,,,,,,,,,,,,,
,,,,,,00035,2023-09-26_10h31.33.685,vbt_B2_day2,2022.2.4,MacIntel,59.87665409,,,,,,,,,,,,,,,,,,,,,,,,,,,down,0,2.272,,0.458706055,-0.127304688,1,0,0,1.1526,0,138,138,148,1,smullen,images/br_smullen.png,images/cb_smullen.png,0,,,,,,,,,,,,,,,,,,,,,,
,,,,,,00035,2023-09-26_10h31.33.685,vbt_B2_day2,2022.2.4,MacIntel,59.87665409,,,,,,,,,,,,,,,,,,,,,,,,,,,down,0,5.6381,,0.166875,-0.199350586,1,0,0,3.7244,0,139,139,59,1,kring,images/br_kring.png,images/cb_kring.png,1,kreng,,,,,,,,,,,,,,,,,,,,,
,,,,,,00035,2023-09-26_10h31.33.685,vbt_B2_day2,2022.2.4,MacIntel,59.87665409,,,,,,,,,,,,,,,,,,,,,,,,,,,down,0,6.9826,,0.395927734,-0.006142578,1,0,0,0.9025,0,140,140,96,1,slagen,images/br_slagen.png,images/cb_slagen.png,1,slagen,,,,,,,,,,,,,,,,,,,,,
,,,,,,00035,2023-09-26_10h31.33.685,vbt_B2_day2,2022.2.4,MacIntel,59.87665409,,,,,,,,,,,,,,,,,,,,,,,,,,,down,0,4.5191,,0.413007813,-0.150800781,1,0,0,1.0692,0,141,141,102,1,legaal,images/br_legaal.png,images/cb_legaal.png,0,,,,,,,,,,,,,,,,,,,,,,
,,,,,,00035,2023-09-26_10h31.33.685,vbt_B2_day2,2022.2.4,MacIntel,59.87665409,,,,,,,,,,,,,,,,,,,,,,,,,,,down,0,5.3212,,0.456679687,-0.044897461,1,0,0,2.1382,0,142,142,92,1,geheim,images/br_geheim.png,images/cb_geheim.png,0,,,,,,,,,,,,,,,,,,,,,,
,,,,,,00035,2023-09-26_10h31.33.685,vbt_B2_day2,2022.2.4,MacIntel,59.87665409,,,,,,,,,,,,,,,,,,,,,,,,,,,down,0,22.8498,,0.430522461,-0.13965332,1,0,0,20.6606,0,143,143,1,1,zaal,images/br_zaal.png,images/cb_zaal.png,0,,,,,,,,,,,,,,,,,,,,,,
,,,,,,00035,2023-09-26_10h31.33.685,vbt_B2_day2,2022.2.4,MacIntel,59.87665409,,,,,,,,,,,,,,,,,,,,,,,,,,,down,0,10.3561,,0.430522461,-0.13965332,1,0,0,7.032,0,144,144,121,1,twijfel,images/br_twijfel.png,images/cb_twijfel.png,0,,,,,,,,,,,,,,,,,,,,,,
,,,,,,00035,2023-09-26_10h31.33.685,vbt_B2_day2,2022.2.4,MacIntel,59.87665409,,,,,,,,,,,,,,,,,,,,,,,,,,,down,0,2.3623,,0.371176758,-0.110917969,1,0,0,17.3431,0,145,145,5,1,blad,images/br_blad.png,images/cb_blad.png,0,,,,,,,,,,,,,,,,,,,,,,
,,,,,,00035,2023-09-26_10h31.33.685,vbt_B2_day2,2022.2.4,MacIntel,59.87665409,,,,,,,,,,,,,,,,,,,,,,,,,,,down,0,11.3085,,0.501538086,-0.102353516,1,0,0,7.6668,0,146,146,134,1,geliefd,images/br_geliefd.png,images/cb_geliefd.png,0,,,,,,,,,,,,,,,,,,,,,,
,,,,,,00035,2023-09-26_10h31.33.685,vbt_B2_day2,2022.2.4,MacIntel,59.87665409,,,,,,,,,,,,,,,,,,,,,,,,,,,down,0,12.5778,,0.441123047,-0.09378418,1,0,0,11.5257,0,147,147,155,1,gerucht,images/br_gerucht.png,images/cb_gerucht.png,0,,,,,,,,,,,,,,,,,,,,,,
,,,,,,00035,2023-09-26_10h31.33.685,vbt_B2_day2,2022.2.4,MacIntel,59.87665409,,,,,,,,,,,,,,,,,,,,,,,,,,,down,0,1.0364,,0.35152832,-0.070429688,1,0,0,7.8334,0,148,148,89,1,slapen,images/br_slapen.png,images/cb_slapen.png,0,,,,,,,,,,,,,,,,,,,,,,
,,,,,,00035,2023-09-26_10h31.33.685,vbt_B2_day2,2022.2.4,MacIntel,59.87665409,,,,,,,,,,,,,,,,,,,,,,,,,,,down,0,6.7152,,0.35152832,-0.070429688,1,0,0,0.8679,0,149,149,189,1,aanraden,images/br_aanraden.png,images/cb_aanraden.png,0,,,,,,,,,,,,,,,,,,,,,,
,,,,,,00035,2023-09-26_10h31.33.685,vbt_B2_day2,2022.2.4,MacIntel,59.87665409,,,,,,,,,,,,,,,,,,,,,,,,,,,down,0,2.038,,0.366064453,-0.078842773,1,0,0,1.5371,0,150,150,82,1,muziek,images/br_muziek.png,images/cb_muziek.png,0,,,,,,,,,,,,,,,,,,,,,,
,,,,,,00035,2023-09-26_10h31.33.685,vbt_B2_day2,2022.2.4,MacIntel,59.87665409,,,,,,,,,,,,,,,,,,,,,,,,,,,down,0,14.2314,,0.366064453,-0.078842773,1,0,0,8.2673,0,151,151,198,1,bedoelen,images/br_bedoelen.png,images/cb_bedoelen.png,0,,,,,,,,,,,,,,,,,,,,,,
,,,,,,00035,2023-09-26_10h31.33.685,vbt_B2_day2,2022.2.4,MacIntel,59.87665409,,,,,,,,,,,,,,,,,,,,,,,,,,,down,0,29.5976,,0.447543945,-0.131831055,1,0,0,3.5409,0,152,152,123,1,hiervan,images/br_hiervan.png,images/cb_hiervan.png,0,,,,,,,,,,,,,,,,,,,,,,
,,,,,,00035,2023-09-26_10h31.33.685,vbt_B2_day2,2022.2.4,MacIntel,59.87665409,,,,,,,,,,,,,,,,,,,,,,,,,,,down,0,16.0352,,0.398261719,-0.059731445,1,0,0,24.2188,0,153,153,146,1,opkomen,images/br_opkomen.png,images/cb_opkomen.png,0,,,,,,,,,,,,,,,,,,,,,,
,,,,,,00035,2023-09-26_10h31.33.685,vbt_B2_day2,2022.2.4,MacIntel,59.87665409,,,,,,,,,,,,,,,,,,,,,,,,,,,down,0,30.0912,,0.398261719,-0.059731445,1,0,0,32.2362,0,154,154,165,1,feestdag,images/br_feestdag.png,images/cb_feestdag.png,0,,,,,,,,,,,,,,,,,,,,,,
,,,,,,00035,2023-09-26_10h31.33.685,vbt_B2_day2,2022.2.4,MacIntel,59.87665409,,,,,,,,,,,,,,,,,,,,,,,,,,,down,0,7.1933,,0.435888672,0.030522461,1,0,0,0.8251,0,155,155,18,1,blik,images/br_blik.png,images/cb_blik.png,1,blik,,,,,,,,,,,,,,,,,,,,,
,,,,,,00035,2023-09-26_10h31.33.685,vbt_B2_day2,2022.2.4,MacIntel,59.87665409,,,,,,,,,,,,,,,,,,,,,,,,,,,down,0,1.1702,,0.435888672,0.030522461,1,0,0,0.9015,0,156,156,0,1,slak,images/br_slak.png,images/cb_slak.png,0,,,,,,,,,,,,,,,,,,,,,,
,,,,,,00035,2023-09-26_10h31.33.685,vbt_B2_day2,2022.2.4,MacIntel,59.87665409,,,,,,,,,,,,,,,,,,,,,,,,,,,down,0,7.5501,,0.328935547,0.014824219,1,0,0,0.7522,0,157,157,57,1,steek,images/br_steek.png,images/cb_steek.png,1,steek,,,,,,,,,,,,,,,,,,,,,
,,,,,,00035,2023-09-26_10h31.33.685,vbt_B2_day2,2022.2.4,MacIntel,59.87665409,,,,,,,,,,,,,,,,,,,,,,,,,,,down,0,3.191,,0.267299805,-0.011425781,1,0,0,1.0194,0,158,158,138,1,akkoord,images/br_akkoord.png,images/cb_akkoord.png,1,akkoord,,,,,,,,,,,,,,,,,,,,,
,,,,,,00035,2023-09-26_10h31.33.685,vbt_B2_day2,2022.2.4,MacIntel,59.87665409,,,,,,,,,,,,,,,,,,,,,,,,,,,down,0,3.9767,,0.267299805,-0.011425781,1,0,0,0.9898,0,159,159,72,1,strak,images/br_strak.png,images/cb_strak.png,0,,,,,,,,,,,,,,,,,,,,,,
,,,,,,00035,2023-09-26_10h31.33.685,vbt_B2_day2,2022.2.4,MacIntel,59.87665409,,,,,,,,,,,,,,,,,,,,,,,,,,,down,0,4.9111,,0.267299805,-0.011425781,1,0,0,1.4197,0,160,160,70,1,ijdel,images/br_ijdel.png,images/cb_ijdel.png,0,,,,,,,,,,,,,,,,,,,,,,
,,,,,,00035,2023-09-26_10h31.33.685,vbt_B2_day2,2022.2.4,MacIntel,59.87665409,,,,,,,,,,,,,,,,,,,,,,,,,,,down,0,2.0006,,0.267299805,-0.011425781,1,0,0,0.5848,0,161,161,84,1,lokken,images/br_lokken.png,images/cb_lokken.png,0,,,,,,,,,,,,,,,,,,,,,,
,,,,,,00035,2023-09-26_10h31.33.685,vbt_B2_day2,2022.2.4,MacIntel,59.87665409,,,,,,,,,,,,,,,,,,,,,,,,,,,down,0,8.895,,0.267299805,-0.011425781,1,0,0,0.7083,0,162,162,176,1,techniek,images/br_techniek.png,images/cb_techniek.png,1,techniek,,,,,,,,,,,,,,,,,,,,,
,,,,,,00035,2023-09-26_10h31.33.685,vbt_B2_day2,2022.2.4,MacIntel,59.87665409,,,,,,,,,,,,,,,,,,,,,,,,,,,down,0,9.1149,,0.267299805,-0.011425781,1,0,0,2.2383,0,163,163,44,1,flits,images/br_flits.png,images/cb_flits.png,0,,,,,,,,,,,,,,,,,,,,,,
,,,,,,00035,2023-09-26_10h31.33.685,vbt_B2_day2,2022.2.4,MacIntel,59.87665409,,,,,,,,,,,,,,,,,,,,,,,,,,,down,0,0.4946,,0.267299805,-0.011425781,1,0,0,2.0434,0,164,164,130,1,keihard,images/br_keihard.png,images/cb_keihard.png,0,,,,,,,,,,,,,,,,,,,,,,
,,,,,,00035,2023-09-26_10h31.33.685,vbt_B2_day2,2022.2.4,MacIntel,59.87665409,,,,,,,,,,,,,,,,,,,,,,,,,,,down,0,2.4225,,0.267299805,-0.011425781,1,0,0,1.7875,0,165,165,116,1,besmet,images/br_besmet.png,images/cb_besmet.png,0,,,,,,,,,,,,,,,,,,,,,,
,,,,,,00035,2023-09-26_10h31.33.685,vbt_B2_day2,2022.2.4,MacIntel,59.87665409,,,,,,,,,,,,,,,,,,,,,,,,,,,down,0,4.2327,,0.267299805,-0.011425781,1,0,0,0.6876,0,166,166,188,1,strekken,images/br_strekken.png,images/cb_strekken.png,0,,,,,,,,,,,,,,,,,,,,,,
,,,,,,00035,2023-09-26_10h31.33.685,vbt_B2_day2,2022.2.4,MacIntel,59.87665409,,,,,,,,,,,,,,,,,,,,,,,,,,,down,0,6.4811,,0.267299805,-0.011425781,1,0,0,1.7211,0,167,167,131,1,opzicht,images/br_opzicht.png,images/cb_opzicht.png,0,,,,,,,,,,,,,,,,,,,,,,
,,,,,,00035,2023-09-26_10h31.33.685,vbt_B2_day2,2022.2.4,MacIntel,59.87665409,,,,,,,,,,,,,,,,,,,,,,,,,,,down,0,2.0641,,0.267299805,-0.011425781,1,0,0,0.5177,0,168,168,83,1,mening,images/br_mening.png,images/cb_mening.png,0,,,,,,,,,,,,,,,,,,,,,,
,,,,,,00035,2023-09-26_10h31.33.685,vbt_B2_day2,2022.2.4,MacIntel,59.87665409,,,,,,,,,,,,,,,,,,,,,,,,,,,down,0,0.4014,,0.267299805,-0.011425781,1,0,0,2.339,0,169,169,105,1,wijlen,images/br_wijlen.png,images/cb_wijlen.png,0,,,,,,,,,,,,,,,,,,,,,,
,,,,,,00035,2023-09-26_10h31.33.685,vbt_B2_day2,2022.2.4,MacIntel,59.87665409,,,,,,,,,,,,,,,,,,,,,,,,,,,down,0,27.7604,,0.421943359,-0.051469727,1,0,0,13.8301,0,170,170,135,1,gedicht,images/br_gedicht.png,images/cb_gedicht.png,0,,,,,,,,,,,,,,,,,,,,,,
,,,,,,00035,2023-09-26_10h31.33.685,vbt_B2_day2,2022.2.4,MacIntel,59.87665409,,,,,,,,,,,,,,,,,,,,,,,,,,,down,0,4.6611,,0.404370117,0.0240625,1,0,0,0.8181,0,171,171,56,1,traag,images/br_traag.png,images/cb_traag.png,1,traag,,,,,,,,,,,,,,,,,,,,,
,,,,,,00035,2023-09-26_10h31.33.685,vbt_B2_day2,2022.2.4,MacIntel,59.87665409,,,,,,,,,,,,,,,,,,,,,,,,,,,down,0,3.4581,,0.404370117,0.0240625,1,0,0,3.257,0,172,172,172,1,weigeren,images/br_weigeren.png,images/cb_weigeren.png,0,,,,,,,,,,,,,,,,,,,,,,
,,,,,,00035,2023-09-26_10h31.33.685,vbt_B2_day2,2022.2.4,MacIntel,59.87665409,,,,,,,,,,,,,,,,,,,,,,,,,,,down,0,34.6843,,0.404370117,0.0240625,1,0,0,16.0848,0,173,173,163,1,schuilen,images/br_schuilen.png,images/cb_schuilen.png,0,,,,,,,,,,,,,,,,,,,,,,
,,,,,,00035,2023-09-26_10h31.33.685,vbt_B2_day2,2022.2.4,MacIntel,59.87665409,,,,,,,,,,,,,,,,,,,,,,,,,,,down,0,0.9025,,0.404370117,0.0240625,1,0,0,0.7689,0,174,174,7,1,geld,images/br_geld.png,images/cb_geld.png,0,,,,,,,,,,,,,,,,,,,,,,
,,,,,,00035,2023-09-26_10h31.33.685,vbt_B2_day2,2022.2.4,MacIntel,59.87665409,,,,,,,,,,,,,,,,,,,,,,,,,,,down,0,2.9737,,0.404370117,0.0240625,1,0,0,0.6342,0,175,175,150,1,gegeven,images/br_gegeven.png,images/cb_gegeven.png,0,,,,,,,,,,,,,,,,,,,,,,
,,,,,,00035,2023-09-26_10h31.33.685,vbt_B2_day2,2022.2.4,MacIntel,59.87665409,,,,,,,,,,,,,,,,,,,,,,,,,,,down,0,2.5562,,0.404370117,0.0240625,1,0,0,1.7038,0,176,176,30,1,uien,images/br_uien.png,images/cb_uien.png,0,,,,,,,,,,,,,,,,,,,,,,
,,,,,,00035,2023-09-26_10h31.33.685,vbt_B2_day2,2022.2.4,MacIntel,59.87665409,,,,,,,,,,,,,,,,,,,,,,,,,,,down,0,7.7917,,0.404370117,0.0240625,1,0,0,0.7079,0,177,177,3,1,mand,images/br_mand.png,images/cb_mand.png,0,,,,,,,,,,,,,,,,,,,,,,
,,,,,,00035,2023-09-26_10h31.33.685,vbt_B2_day2,2022.2.4,MacIntel,59.87665409,,,,,,,,,,,,,,,,,,,,,,,,,,,down,0,4.143,,0.410810547,0.022270508,1,0,0,0.8518,0,178,178,23,1,zout,images/br_zout.png,images/cb_zout.png,0,,,,,,,,,,,,,,,,,,,,,,
,,,,,,00035,2023-09-26_10h31.33.685,vbt_B2_day2,2022.2.4,MacIntel,59.87665409,,,,,,,,,,,,,,,,,,,,,,,,,,,down,0,7.7006,,0.410810547,0.022270508,1,0,0,3.1851,0,179,179,25,1,plek,images/br_plek.png,images/cb_plek.png,0,,,,,,,,,,,,,,,,,,,,,,
,,,,,,00035,2023-09-26_10h31.33.685,vbt_B2_day2,2022.2.4,MacIntel,59.87665409,,,,,,,,,,,,,,,,,,,,,,,,,,,down,0,5.0283,,0.410810547,0.022270508,1,0,0,4.6433,0,180,180,170,1,schatten,images/br_schatten.png,images/cb_schatten.png,0,,,,,,,,,,,,,,,,,,,,,,
,,,,,,00035,2023-09-26_10h31.33.685,vbt_B2_day2,2022.2.4,MacIntel,59.87665409,,,,,,,,,,,,,,,,,,,,,,,,,,,down,0,19.7691,,0.410810547,0.022270508,1,0,0,19.392,0,181,181,45,1,piste,images/br_piste.png,images/cb_piste.png,0,,,,,,,,,,,,,,,,,,,,,,
,,,,,,00035,2023-09-26_10h31.33.685,vbt_B2_day2,2022.2.4,MacIntel,59.87665409,,,,,,,,,,,,,,,,,,,,,,,,,,,down,0,9.588,,0.410810547,0.022270508,1,0,0,0.7515,0,182,182,174,1,stemming,images/br_stemming.png,images/cb_stemming.png,0,,,,,,,,,,,,,,,,,,,,,,
,,,,,,00035,2023-09-26_10h31.33.685,vbt_B2_day2,2022.2.4,MacIntel,59.87665409,,,,,,,,,,,,,,,,,,,,,,,,,,,down,0,3.4588,,0.320795898,-0.12949707,1,0,0,2.3714,0,183,183,67,1,zwart,images/br_zwart.png,images/cb_zwart.png,0,,,,,,,,,,,,,,,,,,,,,,
,,,,,,00035,2023-09-26_10h31.33.685,vbt_B2_day2,2022.2.4,MacIntel,59.87665409,,,,,,,,,,,,,,,,,,,,,,,,,,,down,0,3.8758,,0.320795898,-0.12949707,1,0,0,1.0524,0,184,184,124,1,bloeien,images/br_bloeien.png,images/cb_bloeien.png,0,,,,,,,,,,,,,,,,,,,,,,
,,,,,,00035,2023-09-26_10h31.33.685,vbt_B2_day2,2022.2.4,MacIntel,59.87665409,,,,,,,,,,,,,,,,,,,,,,,,,,,down,0,9.137,,0.325532227,-0.13050293,1,0,0,3.5913,0,185,185,183,1,getuigen,images/br_getuigen.png,images/cb_getuigen.png,0,,,,,,,,,,,,,,,,,,,,,,
,,,,,,00035,2023-09-26_10h31.33.685,vbt_B2_day2,2022.2.4,MacIntel,59.87665409,,,,,,,,,,,,,,,,,,,,,,,,,,,down,0,10.4488,,0.325532227,-0.13050293,1,0,0,2.4882,0,186,186,103,1,joggen,images/br_joggen.png,images/cb_joggen.png,0,,,,,,,,,,,,,,,,,,,,,,
,,,,,,00035,2023-09-26_10h31.33.685,vbt_B2_day2,2022.2.4,MacIntel,59.87665409,,,,,,,,,,,,,,,,,,,,,,,,,,,down,0,4.2932,,0.325532227,-0.13050293,1,0,0,0.7683,0,187,187,19,1,geit,images/br_geit.png,images/cb_geit.png,1,geit,,,,,,,,,,,,,,,,,,,,,
,,,,,,00035,2023-09-26_10h31.33.685,vbt_B2_day2,2022.2.4,MacIntel,59.87665409,,,,,,,,,,,,,,,,,,,,,,,,,,,down,0,0.4378,,0.325532227,-0.13050293,1,0,0,3.7468,0,188,188,168,1,bisschop,images/br_bisschop.png,images/cb_bisschop.png,0,,,,,,,,,,,,,,,,,,,,,,
,,,,,,00035,2023-09-26_10h31.33.685,vbt_B2_day2,2022.2.4,MacIntel,59.87665409,,,,,,,,,,,,,,,,,,,,,,,,,,,down,0,2.0883,,0.325532227,-0.13050293,1,0,0,0.5848,0,189,189,26,1,leuk,images/br_leuk.png,images/cb_leuk.png,0,,,,,,,,,,,,,,,,,,,,,,
,,,,,,00035,2023-09-26_10h31.33.685,vbt_B2_day2,2022.2.4,MacIntel,59.87665409,,,,,,,,,,,,,,,,,,,,,,,,,,,down,0,0.0675,,0.325532227,-0.13050293,1,0,0,2.3383,0,190,190,113,1,koppen,images/br_koppen.png,images/cb_koppen.png,0,,,,,,,,,,,,,,,,,,,,,,
,,,,,,00035,2023-09-26_10h31.33.685,vbt_B2_day2,2022.2.4,MacIntel,59.87665409,,,,,,,,,,,,,,,,,,,,,,,,,,,down,0,2.9236,,0.325532227,-0.13050293,1,0,0,5.3453,0,191,191,197,1,spanning,images/br_spanning.png,images/cb_spanning.png,0,,,,,,,,,,,,,,,,,,,,,,
,,,,,,00035,2023-09-26_10h31.33.685,vbt_B2_day2,2022.2.4,MacIntel,59.87665409,,,,,,,,,,,,,,,,,,,,,,,,,,,down,0,7.3665,,0.319946289,-0.131381836,1,0,0,2.4388,0,192,192,85,1,heilig,images/br_heilig.png,images/cb_heilig.png,0,,,,,,,,,,,,,,,,,,,,,,
,,,,,,00035,2023-09-26_10h31.33.685,vbt_B2_day2,2022.2.4,MacIntel,59.87665409,,,,,,,,,,,,,,,,,,,,,,,,,,,down,0,9.2373,,0.319946289,-0.131381836,1,0,0,2.6727,0,193,193,126,1,kasteel,images/br_kasteel.png,images/cb_kasteel.png,0,,,,,,,,,,,,,,,,,,,,,,
,,,,,,00035,2023-09-26_10h31.33.685,vbt_B2_day2,2022.2.4,MacIntel,59.87665409,,,,,,,,,,,,,,,,,,,,,,,,,,,down,0,4.7243,,0.319946289,-0.135683594,1,0,0,0.6544,0,194,194,95,1,vreten,images/br_vreten.png,images/cb_vreten.png,0,,,,,,,,,,,,,,,,,,,,,,
,,,,,,00035,2023-09-26_10h31.33.685,vbt_B2_day2,2022.2.4,MacIntel,59.87665409,,,,,,,,,,,,,,,,,,,,,,,,,,,down,0,1.9805,,0.319946289,-0.136088867,1,0,0,1.4754,0,195,195,180,1,openbaar,images/br_openbaar.png,images/cb_openbaar.png,0,,,,,,,,,,,,,,,,,,,,,,
,,,,,,00035,2023-09-26_10h31.33.685,vbt_B2_day2,2022.2.4,MacIntel,59.87665409,,,,,,,,,,,,,,,,,,,,,,,,,,,down,0,4.0855,,0.319946289,-0.140141602,1,0,0,0.8418,0,196,196,53,1,baron,images/br_baron.png,images/cb_baron.png,0,,,,,,,,,,,,,,,,,,,,,,
,,,,,,00035,2023-09-26_10h31.33.685,vbt_B2_day2,2022.2.4,MacIntel,59.87665409,,,,,,,,,,,,,,,,,,,,,,,,,,,down,0,0.3684,,0.319946289,-0.143383789,1,0,0,1.9372,0,197,197,75,1,snoep,images/br_snoep.png,images/cb_snoep.png,0,,,,,,,,,,,,,,,,,,,,,,
,,,,,,00035,2023-09-26_10h31.33.685,vbt_B2_day2,2022.2.4,MacIntel,59.87665409,,,,,,,,,,,,,,,,,,,,,,,,,,,down,0,0.6687,,0.319536133,-0.14581543,1,0,0,1.8473,0,198,198,154,1,aflopen,images/br_aflopen.png,images/cb_aflopen.png,0,,,,,,,,,,,,,,,,,,,,,,
,,,,,,00035,2023-09-26_10h31.33.685,vbt_B2_day2,2022.2.4,MacIntel,59.87665409,,,,,,,,,,,,,,,,,,,,,,,,,,,down,0,0.908,,0.319536133,-0.146625977,1,0,0,2.0101,0,199,199,169,1,oprotten,images/br_oprotten.png,images/cb_oprotten.png,0,,,,,,,,,,,,,,,,,,,,,,
,,,,,,00035,2023-09-26_10h31.33.685,vbt_B2_day2,2022.2.4,MacIntel,59.87665409,,,,,,,,,,,,,,,,,,,,,,,,,,,,,,,,,,,,,,,,,,,,,,,0.319536133,-0.146625977,1,0,0,,,,,,,,,,,,,,,,
,,,,,,00035,2023-09-26_10h31.33.685,vbt_B2_day2,2022.2.4,MacIntel,59.87665409,,,,,,,,,,,,,,,,,,,,,,,,,,,,,,,,,,,,,,,,,,,,,,,,,,,,0.319536133,-0.146625977,1,0,0,,,,,,,,,,,
,,,,,,00035,2023-09-26_10h31.33.685,vbt_B2_day2,2022.2.4,MacIntel,59.87665409,,,,,,,,,,,,,,,,,,,,,,,,,,,,,,,,,,,,,,,,,,trots,images/br_trots.png,images/cb_trots.png,,trots,,,,,,,,,,,0.319536133,-0.146625977,1,0,0,trots,0,0,0,44,1
,,,,,,00035,2023-09-26_10h31.33.685,vbt_B2_day2,2022.2.4,MacIntel,59.87665409,,,,,,,,,,,,,,,,,,,,,,,,,,,,,,,,,,,,,,,,,,sifferd,images/br_sifferd.png,images/cb_sifferd.png,,seffens,,,,,,,,,,,0.375649414,-0.041132812,1,0,0,seffens,0,1,1,32,1
,,,,,,00035,2023-09-26_10h31.33.685,vbt_B2_day2,2022.2.4,MacIntel,59.87665409,,,,,,,,,,,,,,,,,,,,,,,,,,,,,,,,,,,,,,,,,,zomers,images/br_zomers.png,images/cb_zomers.png,,zomers,,,,,,,,,,,0.493803711,0.078295898,1,0,0,zomers,0,2,2,48,1
,,,,,,00035,2023-09-26_10h31.33.685,vbt_B2_day2,2022.2.4,MacIntel,59.87665409,,,,,,,,,,,,,,,,,,,,,,,,,,,,,,,,,,,,,,,,,,tand,images/br_tand.png,images/cb_tand.png,,tand,,,,,,,,,,,0.384086914,0.091669922,1,0,0,tand,0,3,3,42,1
,,,,,,00035,2023-09-26_10h31.33.685,vbt_B2_day2,2022.2.4,MacIntel,59.87665409,,,,,,,,,,,,,,,,,,,,,,,,,,,,,,,,,,,,,,,,,,flits,images/br_flits.png,images/cb_flits.png,,flets,,,,,,,,,,,0.337836914,0.127250977,1,0,0,flets,0,4,4,4,1
,,,,,,00035,2023-09-26_10h31.33.685,vbt_B2_day2,2022.2.4,MacIntel,59.87665409,,,,,,,,,,,,,,,,,,,,,,,,,,,,,,,,,,,,,,,,,,remel,images/br_remel.png,images/cb_remel.png,,regel,,,,,,,,,,,0.337836914,0.127250977,1,0,0,regel,0,5,5,25,1
,,,,,,00035,2023-09-26_10h31.33.685,vbt_B2_day2,2022.2.4,MacIntel,59.87665409,,,,,,,,,,,,,,,,,,,,,,,,,,,,,,,,,,,,,,,,,,bloeien,images/br_bloeien.png,images/cb_bloeien.png,,bloeien,,,,,,,,,,,0.36559082,0.160185547,1,0,0,bloeien,0,6,6,12,1
,,,,,,00035,2023-09-26_10h31.33.685,vbt_B2_day2,2022.2.4,MacIntel,59.87665409,,,,,,,,,,,,,,,,,,,,,,,,,,,,,,,,,,,,,,,,,,toeval,images/br_toeval.png,images/cb_toeval.png,,toeval,,,,,,,,,,,0.317197266,-0.039638672,1,0,0,toeval,0,7,7,11,1
,,,,,,00035,2023-09-26_10h31.33.685,vbt_B2_day2,2022.2.4,MacIntel,59.87665409,,,,,,,,,,,,,,,,,,,,,,,,,,,,,,,,,,,,,,,,,,sjijfel,images/br_sjijfel.png,images/cb_sjijfel.png,,?,,,,,,,,,,,0.265043945,0.005893555,1,0,0,?,0,8,8,33,1
,,,,,,00035,2023-09-26_10h31.33.685,vbt_B2_day2,2022.2.4,MacIntel,59.87665409,,,,,,,,,,,,,,,,,,,,,,,,,,,,,,,,,,,,,,,,,,lurgen,images/br_lurgen.png,images/cb_lurgen.png,,lurgen ,,,,,,,,,,,0.265854492,0.003867187,1,0,0,lurgen ,0,9,9,29,1
,,,,,,00035,2023-09-26_10h31.33.685,vbt_B2_day2,2022.2.4,MacIntel,59.87665409,,,,,,,,,,,,,,,,,,,,,,,,,,,,,,,,,,,,,,,,,,heilig,images/br_heilig.png,images/cb_heilig.png,,heilig,,,,,,,,,,,0.32175293,0.13565918,1,0,0,heilig,0,10,10,9,1
,,,,,,00035,2023-09-26_10h31.33.685,vbt_B2_day2,2022.2.4,MacIntel,59.87665409,,,,,,,,,,,,,,,,,,,,,,,,,,,,,,,,,,,,,,,,,,koorts,images/br_koorts.png,images/cb_koorts.png,,koorts,,,,,,,,,,,0.293383789,0.143413086,1,0,0,koorts,0,11,11,50,1
,,,,,,00035,2023-09-26_10h31.33.685,vbt_B2_day2,2022.2.4,MacIntel,59.87665409,,,,,,,,,,,,,,,,,,,,,,,,,,,,,,,,,,,,,,,,,,moes,images/br_moes.png,images/cb_moes.png,,moes,,,,,,,,,,,0.293383789,0.143413086,1,0,0,moes,0,12,12,0,1
,,,,,,00035,2023-09-26_10h31.33.685,vbt_B2_day2,2022.2.4,MacIntel,59.87665409,,,,,,,,,,,,,,,,,,,,,,,,,,,,,,,,,,,,,,,,,,lokken,images/br_lokken.png,images/cb_lokken.png,,lokken,,,,,,,,,,,0.306313477,0.251577148,1,0,0,lokken,0,13,13,8,1
,,,,,,00035,2023-09-26_10h31.33.685,vbt_B2_day2,2022.2.4,MacIntel,59.87665409,,,,,,,,,,,,,,,,,,,,,,,,,,,,,,,,,,,,,,,,,,jagen,images/br_jagen.png,images/cb_jagen.png,,jagen,,,,,,,,,,,0.415922852,0.00184082,1,0,0,jagen,0,14,14,6,1
,,,,,,00035,2023-09-26_10h31.33.685,vbt_B2_day2,2022.2.4,MacIntel,59.87665409,,,,,,,,,,,,,,,,,,,,,,,,,,,,,,,,,,,,,,,,,,wijve,images/br_wijve.png,images/cb_wijve.png,,wijve,,,,,,,,,,,0.395854492,0.070927734,1,0,0,wijve,0,15,15,27,1
,,,,,,00035,2023-09-26_10h31.33.685,vbt_B2_day2,2022.2.4,MacIntel,59.87665409,,,,,,,,,,,,,,,,,,,,,,,,,,,,,,,,,,,,,,,,,,bereuwen,images/br_bereuwen.png,images/cb_bereuwen.png,,beremwen ,,,,,,,,,,,0.395854492,0.070927734,1,0,0,beremwen ,0,16,16,39,1
,,,,,,00035,2023-09-26_10h31.33.685,vbt_B2_day2,2022.2.4,MacIntel,59.87665409,,,,,,,,,,,,,,,,,,,,,,,,,,,,,,,,,,,,,,,,,,zegel,images/br_zegel.png,images/cb_zegel.png,,zegel,,,,,,,,,,,0.29590332,0.004282227,1,0,0,zegel,0,17,17,46,1
,,,,,,00035,2023-09-26_10h31.33.685,vbt_B2_day2,2022.2.4,MacIntel,59.87665409,,,,,,,,,,,,,,,,,,,,,,,,,,,,,,,,,,,,,,,,,,piste,images/br_piste.png,images/cb_piste.png,,piste,,,,,,,,,,,0.221826172,0.082392578,1,0,0,piste,0,18,18,5,1
,,,,,,00035,2023-09-26_10h31.33.685,vbt_B2_day2,2022.2.4,MacIntel,59.87665409,,,,,,,,,,,,,,,,,,,,,,,,,,,,,,,,,,,,,,,,,,tweeling,images/br_tweeling.png,images/cb_tweeling.png,,tweeling,,,,,,,,,,,0.221826172,0.082392578,1,0,0,tweeling,0,19,19,58,1
,,,,,,00035,2023-09-26_10h31.33.685,vbt_B2_day2,2022.2.4,MacIntel,59.87665409,,,,,,,,,,,,,,,,,,,,,,,,,,,,,,,,,,,,,,,,,,negel,images/br_negel.png,images/cb_negel.png,,negel ,,,,,,,,,,,0.221826172,0.082392578,1,0,0,negel ,0,20,20,24,1
,,,,,,00035,2023-09-26_10h31.33.685,vbt_B2_day2,2022.2.4,MacIntel,59.87665409,,,,,,,,,,,,,,,,,,,,,,,,,,,,,,,,,,,,,,,,,,inzicht,images/br_inzicht.png,images/cb_inzicht.png,,inzecht ,,,,,,,,,,,0.260966797,0.129077148,1,0,0,inzecht ,0,21,21,53,1
,,,,,,00035,2023-09-26_10h31.33.685,vbt_B2_day2,2022.2.4,MacIntel,59.87665409,,,,,,,,,,,,,,,,,,,,,,,,,,,,,,,,,,,,,,,,,,opdatten,images/br_opdatten.png,images/cb_opdatten.png,,opjatten ,,,,,,,,,,,0.295620117,0.05972168,1,0,0,opjatten ,0,22,22,37,1
,,,,,,00035,2023-09-26_10h31.33.685,vbt_B2_day2,2022.2.4,MacIntel,59.87665409,,,,,,,,,,,,,,,,,,,,,,,,,,,,,,,,,,,,,,,,,,strikken,images/br_strikken.png,images/cb_strikken.png,,strikken,,,,,,,,,,,0.259682617,0.114194336,1,0,0,strikken,0,23,23,18,1
,,,,,,00035,2023-09-26_10h31.33.685,vbt_B2_day2,2022.2.4,MacIntel,59.87665409,,,,,,,,,,,,,,,,,,,,,,,,,,,,,,,,,,,,,,,,,,clan,images/br_clan.png,images/cb_clan.png,,clan,,,,,,,,,,,0.259682617,0.114194336,1,0,0,clan,0,24,24,40,1
,,,,,,00035,2023-09-26_10h31.33.685,vbt_B2_day2,2022.2.4,MacIntel,59.87665409,,,,,,,,,,,,,,,,,,,,,,,,,,,,,,,,,,,,,,,,,,thema,images/br_thema.png,images/cb_thema.png,,thema,,,,,,,,,,,0.259682617,0.114194336,1,0,0,thema,0,25,25,47,1
,,,,,,00035,2023-09-26_10h31.33.685,vbt_B2_day2,2022.2.4,MacIntel,59.87665409,,,,,,,,,,,,,,,,,,,,,,,,,,,,,,,,,,,,,,,,,,zwager,images/br_zwager.png,images/cb_zwager.png,,zwager ,,,,,,,,,,,0.259682617,0.114194336,1,0,0,zwager ,0,26,26,49,1
,,,,,,00035,2023-09-26_10h31.33.685,vbt_B2_day2,2022.2.4,MacIntel,59.87665409,,,,,,,,,,,,,,,,,,,,,,,,,,,,,,,,,,,,,,,,,,stes,images/br_stes.png,images/cb_stes.png,,stes ,,,,,,,,,,,0.259682617,0.114194336,1,0,0,stes ,0,27,27,21,1
,,,,,,00035,2023-09-26_10h31.33.685,vbt_B2_day2,2022.2.4,MacIntel,59.87665409,,,,,,,,,,,,,,,,,,,,,,,,,,,,,,,,,,,,,,,,,,doodmoe,images/br_doodmoe.png,images/cb_doodmoe.png,,doodmoe,,,,,,,,,,,0.33878418,0.215229492,1,0,0,doodmoe,0,28,28,15,1
,,,,,,00035,2023-09-26_10h31.33.685,vbt_B2_day2,2022.2.4,MacIntel,59.87665409,,,,,,,,,,,,,,,,,,,,,,,,,,,,,,,,,,,,,,,,,,kijlen,images/br_kijlen.png,images/cb_kijlen.png,,kijlen ,,,,,,,,,,,0.350712891,0.268901367,1,0,0,kijlen ,0,29,29,31,1
,,,,,,00035,2023-09-26_10h31.33.685,vbt_B2_day2,2022.2.4,MacIntel,59.87665409,,,,,,,,,,,,,,,,,,,,,,,,,,,,,,,,,,,,,,,,,,blad,images/br_blad.png,images/cb_blad.png,,clad ,,,,,,,,,,,0.350712891,0.271362305,1,0,0,clad ,0,30,30,1,1
,,,,,,00035,2023-09-26_10h31.33.685,vbt_B2_day2,2022.2.4,MacIntel,59.87665409,,,,,,,,,,,,,,,,,,,,,,,,,,,,,,,,,,,,,,,,,,manieren,images/br_manieren.png,images/cb_manieren.png,,manieren ,,,,,,,,,,,0.350712891,0.271362305,1,0,0,manieren ,0,31,31,56,1
,,,,,,00035,2023-09-26_10h31.33.685,vbt_B2_day2,2022.2.4,MacIntel,59.87665409,,,,,,,,,,,,,,,,,,,,,,,,,,,,,,,,,,,,,,,,,,anarchie,images/br_anarchie.png,images/cb_anarchie.png,,anarchie,,,,,,,,,,,0.350712891,0.271362305,1,0,0,anarchie,0,32,32,16,1
,,,,,,00035,2023-09-26_10h31.33.685,vbt_B2_day2,2022.2.4,MacIntel,59.87665409,,,,,,,,,,,,,,,,,,,,,,,,,,,,,,,,,,,,,,,,,,aanzien,images/br_aanzien.png,images/cb_aanzien.png,,aanzien,,,,,,,,,,,0.350712891,0.271362305,1,0,0,aanzien,0,33,33,13,1
,,,,,,00035,2023-09-26_10h31.33.685,vbt_B2_day2,2022.2.4,MacIntel,59.87665409,,,,,,,,,,,,,,,,,,,,,,,,,,,,,,,,,,,,,,,,,,goon,images/br_goon.png,images/cb_goon.png,,goon ,,,,,,,,,,,0.350712891,0.271362305,1,0,0,goon ,0,34,34,23,1
,,,,,,00035,2023-09-26_10h31.33.685,vbt_B2_day2,2022.2.4,MacIntel,59.87665409,,,,,,,,,,,,,,,,,,,,,,,,,,,,,,,,,,,,,,,,,,agressie,images/br_agressie.png,images/cb_agressie.png,,agressie ,,,,,,,,,,,0.503647461,0.005405273,1,0,0,agressie ,0,35,35,59,1
,,,,,,00035,2023-09-26_10h31.33.685,vbt_B2_day2,2022.2.4,MacIntel,59.87665409,,,,,,,,,,,,,,,,,,,,,,,,,,,,,,,,,,,,,,,,,,ningen,images/br_ningen.png,images/cb_ningen.png,,negen ,,,,,,,,,,,0.598149414,-0.12375,1,0,0,negen ,0,36,36,28,1
,,,,,,00035,2023-09-26_10h31.33.685,vbt_B2_day2,2022.2.4,MacIntel,59.87665409,,,,,,,,,,,,,,,,,,,,,,,,,,,,,,,,,,,,,,,,,,krimmen,images/br_krimmen.png,images/cb_krimmen.png,,krimmen ,,,,,,,,,,,0.598149414,-0.12375,1,0,0,krimmen ,0,37,37,35,1
,,,,,,00035,2023-09-26_10h31.33.685,vbt_B2_day2,2022.2.4,MacIntel,59.87665409,,,,,,,,,,,,,,,,,,,,,,,,,,,,,,,,,,,,,,,,,,heengeen,images/br_heengeen.png,images/cb_heengeen.png,,heengaan ,,,,,,,,,,,0.598149414,-0.12375,1,0,0,heengaan ,0,38,38,38,1
,,,,,,00035,2023-09-26_10h31.33.685,vbt_B2_day2,2022.2.4,MacIntel,59.87665409,,,,,,,,,,,,,,,,,,,,,,,,,,,,,,,,,,,,,,,,,,woning,images/br_woning.png,images/cb_woning.png,,woning ,,,,,,,,,,,0.647841797,-0.056088867,1,0,0,woning ,0,39,39,10,1
,,,,,,00035,2023-09-26_10h31.33.685,vbt_B2_day2,2022.2.4,MacIntel,59.87665409,,,,,,,,,,,,,,,,,,,,,,,,,,,,,,,,,,,,,,,,,,kabel,images/br_kabel.png,images/cb_kabel.png,,?,,,,,,,,,,,0.138398437,-0.017592773,1,0,0,?,0,40,40,7,1
,,,,,,00035,2023-09-26_10h31.33.685,vbt_B2_day2,2022.2.4,MacIntel,59.87665409,,,,,,,,,,,,,,,,,,,,,,,,,,,,,,,,,,,,,,,,,,ophuimen,images/br_ophuimen.png,images/cb_ophuimen.png,,opruimen ,,,,,,,,,,,0.117851563,-0.009633789,1,0,0,opruimen ,0,41,41,36,1
,,,,,,00035,2023-09-26_10h31.33.685,vbt_B2_day2,2022.2.4,MacIntel,59.87665409,,,,,,,,,,,,,,,,,,,,,,,,,,,,,,,,,,,,,,,,,,jong,images/br_jong.png,images/cb_jong.png,,jong,,,,,,,,,,,0.201210937,0.016787109,1,0,0,jong,0,42,42,43,1
,,,,,,00035,2023-09-26_10h31.33.685,vbt_B2_day2,2022.2.4,MacIntel,59.87665409,,,,,,,,,,,,,,,,,,,,,,,,,,,,,,,,,,,,,,,,,,feestdag,images/br_feestdag.png,images/cb_feestdag.png,,feest... ,,,,,,,,,,,0.152919922,0.01112793,1,0,0,feest... ,0,43,43,17,1
,,,,,,00035,2023-09-26_10h31.33.685,vbt_B2_day2,2022.2.4,MacIntel,59.87665409,,,,,,,,,,,,,,,,,,,,,,,,,,,,,,,,,,,,,,,,,,geld,images/br_geld.png,images/cb_geld.png,,geld,,,,,,,,,,,0.209829102,0.006044922,1,0,0,geld,0,44,44,3,1
,,,,,,00035,2023-09-26_10h31.33.685,vbt_B2_day2,2022.2.4,MacIntel,59.87665409,,,,,,,,,,,,,,,,,,,,,,,,,,,,,,,,,,,,,,,,,,aanvraag,images/br_aanvraag.png,images/cb_aanvraag.png,,?,,,,,,,,,,,0.158212891,0.03640625,1,0,0,?,0,45,45,57,1
,,,,,,00035,2023-09-26_10h31.33.685,vbt_B2_day2,2022.2.4,MacIntel,59.87665409,,,,,,,,,,,,,,,,,,,,,,,,,,,,,,,,,,,,,,,,,,breuk,images/br_breuk.png,images/cb_breuk.png,,cre..,,,,,,,,,,,0.158212891,0.03640625,1,0,0,cre..,0,46,46,45,1
,,,,,,00035,2023-09-26_10h31.33.685,vbt_B2_day2,2022.2.4,MacIntel,59.87665409,,,,,,,,,,,,,,,,,,,,,,,,,,,,,,,,,,,,,,,,,,eenhoorn,images/br_eenhoorn.png,images/cb_eenhoorn.png,,eenhoorn,,,,,,,,,,,0.144086914,0.233603516,1,0,0,eenhoorn,0,47,47,19,1
,,,,,,00035,2023-09-26_10h31.33.685,vbt_B2_day2,2022.2.4,MacIntel,59.87665409,,,,,,,,,,,,,,,,,,,,,,,,,,,,,,,,,,,,,,,,,,dode,images/br_dode.png,images/cb_dode.png,,dode ,,,,,,,,,,,0.11253418,0.346904297,1,0,0,dode ,0,48,48,41,1
,,,,,,00035,2023-09-26_10h31.33.685,vbt_B2_day2,2022.2.4,MacIntel,59.87665409,,,,,,,,,,,,,,,,,,,,,,,,,,,,,,,,,,,,,,,,,,prekken,images/br_prekken.png,images/cb_prekken.png,,? ,,,,,,,,,,,0.332836914,0.125473633,1,0,0,? ,0,49,49,34,1
,,,,,,00035,2023-09-26_10h31.33.685,vbt_B2_day2,2022.2.4,MacIntel,59.87665409,,,,,,,,,,,,,,,,,,,,,,,,,,,,,,,,,,,,,,,,,,sora,images/br_sora.png,images/cb_sora.png,,sora ,,,,,,,,,,,0.332836914,0.125473633,1,0,0,sora ,0,50,50,22,1
,,,,,,00035,2023-09-26_10h31.33.685,vbt_B2_day2,2022.2.4,MacIntel,59.87665409,,,,,,,,,,,,,,,,,,,,,,,,,,,,,,,,,,,,,,,,,,lijnen,images/br_lijnen.png,images/cb_lijnen.png,,lijnen ,,,,,,,,,,,0.332836914,0.125473633,1,0,0,lijnen ,0,51,51,51,1
,,,,,,00035,2023-09-26_10h31.33.685,vbt_B2_day2,2022.2.4,MacIntel,59.87665409,,,,,,,,,,,,,,,,,,,,,,,,,,,,,,,,,,,,,,,,,,systeem,images/br_systeem.png,images/cb_systeem.png,,systeem,,,,,,,,,,,0.332836914,0.125473633,1,0,0,systeem,0,52,52,54,1
,,,,,,00035,2023-09-26_10h31.33.685,vbt_B2_day2,2022.2.4,MacIntel,59.87665409,,,,,,,,,,,,,,,,,,,,,,,,,,,,,,,,,,,,,,,,,,welzijn,images/br_welzijn.png,images/cb_welzijn.png,,welz... ,,,,,,,,,,,0.504741211,0.125844727,1,0,0,welz... ,0,53,53,52,1
,,,,,,00035,2023-09-26_10h31.33.685,vbt_B2_day2,2022.2.4,MacIntel,59.87665409,,,,,,,,,,,,,,,,,,,,,,,,,,,,,,,,,,,,,,,,,,kenzis,images/br_kenzis.png,images/cb_kenzis.png,,kenz..,,,,,,,,,,,0.504741211,0.125844727,1,0,0,kenz..,0,54,54,30,1
,,,,,,00035,2023-09-26_10h31.33.685,vbt_B2_day2,2022.2.4,MacIntel,59.87665409,,,,,,,,,,,,,,,,,,,,,,,,,,,,,,,,,,,,,,,,,,joes,images/br_joes.png,images/cb_joes.png,,joes ,,,,,,,,,,,0.48449707,0.024511719,1,0,0,joes ,0,55,55,20,1
,,,,,,00035,2023-09-26_10h31.33.685,vbt_B2_day2,2022.2.4,MacIntel,59.87665409,,,,,,,,,,,,,,,,,,,,,,,,,,,,,,,,,,,,,,,,,,plannen,images/br_plannen.png,images/cb_plannen.png,,plannen,,,,,,,,,,,0.699667969,-0.063339844,1,0,0,plannen,0,56,56,55,1
,,,,,,00035,2023-09-26_10h31.33.685,vbt_B2_day2,2022.2.4,MacIntel,59.87665409,,,,,,,,,,,,,,,,,,,,,,,,,,,,,,,,,,,,,,,,,,diep,images/br_diep.png,images/cb_diep.png,,diep,,,,,,,,,,,0.555258789,-0.106352539,1,0,0,diep,0,57,57,2,1
,,,,,,00035,2023-09-26_10h31.33.685,vbt_B2_day2,2022.2.4,MacIntel,59.87665409,,,,,,,,,,,,,,,,,,,,,,,,,,,,,,,,,,,,,,,,,,badon,images/br_badon.png,images/cb_badon.png,,kadon ,,,,,,,,,,,0.555258789,-0.106352539,1,0,0,kadon ,0,58,58,26,1
,,,,,,00035,2023-09-26_10h31.33.685,vbt_B2_day2,2022.2.4,MacIntel,59.87665409,,,,,,,,,,,,,,,,,,,,,,,,,,,,,,,,,,,,,,,,,,kasteel,images/br_kasteel.png,images/cb_kasteel.png,,kasteel,,,,,,,,,,,0.555258789,-0.106352539,1,0,0,kasteel,0,59,59,14,1
,,,,,,00035,2023-09-26_10h31.33.685,vbt_B2_day2,2022.2.4,MacIntel,59.87665409,,,,,,,,,,,,,,,,,,,,,,,,,,,,,,,,,,,,,,,,,,,,,,,,,,,,,,,,,,,,,,,,,,,
