welcome_mouse.x,welcome_mouse.y,welcome_mouse.leftButton,welcome_mouse.midButton,welcome_mouse.rightButton,welcome_mouse.time,"ID",date,expName,psychopyVersion,OS,frameRate,refresh_mouse.x,refresh_mouse.y,refresh_mouse.leftButton,refresh_mouse.midButton,refresh_mouse.rightButton,refresh_mouse.time,braille_mouse.x,braille_mouse.y,braille_mouse.leftButton,braille_mouse.midButton,braille_mouse.rightButton,braille_mouse.time,trials.thisRepN,trials.thisTrialN,trials.thisN,trials.thisIndex,trials.ran,nlLet,brLet,cbLet,trainInstr_mouse.x,trainInstr_mouse.y,trainInstr_mouse.leftButton,trainInstr_mouse.midButton,trainInstr_mouse.rightButton,trainInstr_mouse.time,translation_key.keys,translation_key.corr,translation_key.rt,word_rsp.text,word_mouse.x,word_mouse.y,word_mouse.leftButton,word_mouse.midButton,word_mouse.rightButton,word_mouse.time,train_loop.thisRepN,train_loop.thisTrialN,train_loop.thisN,train_loop.thisIndex,train_loop.ran,nlWrd,brWrd,cbWrd,test,testResp,mouse.x,mouse.y,mouse.leftButton,mouse.midButton,mouse.rightButton,testInstr_mouse.x,testInstr_mouse.y,testInstr_mouse.leftButton,testInstr_mouse.midButton,testInstr_mouse.rightButton,test_mouse.x,test_mouse.y,test_mouse.leftButton,test_mouse.midButton,test_mouse.rightButton,test_response.text,test_loop.thisRepN,test_loop.thisTrialN,test_loop.thisN,test_loop.thisIndex,test_loop.ran
-0.118518476,-0.220370399,1,0,0,7.9056,00098,2023-11-09_14h05.37.399,vbt_B2_day2,2022.2.4,Win32,60.07810153,,,,,,,,,,,,,,,,,,,,,,,,,,,,,,,,,,,,,,,,,,,,,,,,,,,,,,,,,,,,,,,,,,,
,,,,,,00098,2023-11-09_14h05.37.399,vbt_B2_day2,2022.2.4,Win32,60.07810153,-0.118518476,-0.220370399,1,0,0,5.8451,,,,,,,,,,,,,,,,,,,,,,,,,,,,,,,,,,,,,,,,,,,,,,,,,,,,,,,,,,,,,
,,,,,,00098,2023-11-09_14h05.37.399,vbt_B2_day2,2022.2.4,Win32,60.07810153,,,,,,,-0.089814787,-0.190740727,1,0,0,0.7996,0,0,0,17,1,r,images/br_r.png,images/cb_r.png,,,,,,,,,,,,,,,,,,,,,,,,,,,,,,,,,,,,,,,,,,,,,,,
,,,,,,00098,2023-11-09_14h05.37.399,vbt_B2_day2,2022.2.4,Win32,60.07810153,,,,,,,0.012962977,-0.135185171,1,0,0,0.6491,0,1,1,2,1,c,images/br_c.png,images/cb_c.png,,,,,,,,,,,,,,,,,,,,,,,,,,,,,,,,,,,,,,,,,,,,,,,
,,,,,,00098,2023-11-09_14h05.37.399,vbt_B2_day2,2022.2.4,Win32,60.07810153,,,,,,,0.012962977,-0.135185171,1,0,0,0.1836,0,2,2,4,1,e,images/br_e.png,images/cb_e.png,,,,,,,,,,,,,,,,,,,,,,,,,,,,,,,,,,,,,,,,,,,,,,,
,,,,,,00098,2023-11-09_14h05.37.399,vbt_B2_day2,2022.2.4,Win32,60.07810153,,,,,,,0.012962977,-0.135185171,1,0,0,1.4669,0,3,3,7,1,h,images/br_h.png,images/cb_h.png,,,,,,,,,,,,,,,,,,,,,,,,,,,,,,,,,,,,,,,,,,,,,,,
,,,,,,00098,2023-11-09_14h05.37.399,vbt_B2_day2,2022.2.4,Win32,60.07810153,,,,,,,0.012962977,-0.135185171,1,0,0,0.4498,0,4,4,0,1,a,images/br_a.png,images/cb_a.png,,,,,,,,,,,,,,,,,,,,,,,,,,,,,,,,,,,,,,,,,,,,,,,
,,,,,,00098,2023-11-09_14h05.37.399,vbt_B2_day2,2022.2.4,Win32,60.07810153,,,,,,,0.012962977,-0.135185171,1,0,0,0.8777,0,5,5,13,1,n,images/br_n.png,images/cb_n.png,,,,,,,,,,,,,,,,,,,,,,,,,,,,,,,,,,,,,,,,,,,,,,,
,,,,,,00098,2023-11-09_14h05.37.399,vbt_B2_day2,2022.2.4,Win32,60.07810153,,,,,,,0.012962977,-0.135185171,1,0,0,7.9655,0,6,6,3,1,d,images/br_d.png,images/cb_d.png,,,,,,,,,,,,,,,,,,,,,,,,,,,,,,,,,,,,,,,,,,,,,,,
,,,,,,00098,2023-11-09_14h05.37.399,vbt_B2_day2,2022.2.4,Win32,60.07810153,,,,,,,0.012962977,-0.135185171,1,0,0,0.4666,0,7,7,6,1,g,images/br_g.png,images/cb_g.png,,,,,,,,,,,,,,,,,,,,,,,,,,,,,,,,,,,,,,,,,,,,,,,
,,,,,,00098,2023-11-09_14h05.37.399,vbt_B2_day2,2022.2.4,Win32,60.07810153,,,,,,,0.012037065,-0.111111111,1,0,0,1.5158,0,8,8,8,1,i,images/br_i.png,images/cb_i.png,,,,,,,,,,,,,,,,,,,,,,,,,,,,,,,,,,,,,,,,,,,,,,,
,,,,,,00098,2023-11-09_14h05.37.399,vbt_B2_day2,2022.2.4,Win32,60.07810153,,,,,,,0.012037065,-0.111111111,1,0,0,1.6329,0,9,9,10,1,k,images/br_k.png,images/cb_k.png,,,,,,,,,,,,,,,,,,,,,,,,,,,,,,,,,,,,,,,,,,,,,,,
,,,,,,00098,2023-11-09_14h05.37.399,vbt_B2_day2,2022.2.4,Win32,60.07810153,,,,,,,0.009259259,-0.122222265,1,0,0,0.9656,0,10,10,16,1,q,images/br_q.png,images/cb_q.png,,,,,,,,,,,,,,,,,,,,,,,,,,,,,,,,,,,,,,,,,,,,,,,
,,,,,,00098,2023-11-09_14h05.37.399,vbt_B2_day2,2022.2.4,Win32,60.07810153,,,,,,,0.009259259,-0.122222265,1,0,0,0.9664,0,11,11,15,1,p,images/br_p.png,images/cb_p.png,,,,,,,,,,,,,,,,,,,,,,,,,,,,,,,,,,,,,,,,,,,,,,,
,,,,,,00098,2023-11-09_14h05.37.399,vbt_B2_day2,2022.2.4,Win32,60.07810153,,,,,,,0.000925912,-0.107407393,1,0,0,0.6834,0,12,12,19,1,t,images/br_t.png,images/cb_t.png,,,,,,,,,,,,,,,,,,,,,,,,,,,,,,,,,,,,,,,,,,,,,,,
,,,,,,00098,2023-11-09_14h05.37.399,vbt_B2_day2,2022.2.4,Win32,60.07810153,,,,,,,0.000925912,-0.106481481,1,0,0,0.8003,0,13,13,14,1,o,images/br_o.png,images/cb_o.png,,,,,,,,,,,,,,,,,,,,,,,,,,,,,,,,,,,,,,,,,,,,,,,
,,,,,,00098,2023-11-09_14h05.37.399,vbt_B2_day2,2022.2.4,Win32,60.07810153,,,,,,,0.000925912,-0.106481481,1,0,0,9.8823,0,14,14,5,1,f,images/br_f.png,images/cb_f.png,,,,,,,,,,,,,,,,,,,,,,,,,,,,,,,,,,,,,,,,,,,,,,,
,,,,,,00098,2023-11-09_14h05.37.399,vbt_B2_day2,2022.2.4,Win32,60.07810153,,,,,,,0.000925912,-0.106481481,1,0,0,0.0776,0,15,15,21,1,v,images/br_v.png,images/cb_v.png,,,,,,,,,,,,,,,,,,,,,,,,,,,,,,,,,,,,,,,,,,,,,,,
,,,,,,00098,2023-11-09_14h05.37.399,vbt_B2_day2,2022.2.4,Win32,60.07810153,,,,,,,0.000925912,-0.106481481,1,0,0,0.9279,0,16,16,24,1,y,images/br_y.png,images/cb_y.png,,,,,,,,,,,,,,,,,,,,,,,,,,,,,,,,,,,,,,,,,,,,,,,
,,,,,,00098,2023-11-09_14h05.37.399,vbt_B2_day2,2022.2.4,Win32,60.07810153,,,,,,,0.000925912,-0.106481481,1,0,0,0.3833,0,17,17,18,1,s,images/br_s.png,images/cb_s.png,,,,,,,,,,,,,,,,,,,,,,,,,,,,,,,,,,,,,,,,,,,,,,,
,,,,,,00098,2023-11-09_14h05.37.399,vbt_B2_day2,2022.2.4,Win32,60.07810153,,,,,,,0.000925912,-0.106481481,1,0,0,2.4829,0,18,18,12,1,m,images/br_m.png,images/cb_m.png,,,,,,,,,,,,,,,,,,,,,,,,,,,,,,,,,,,,,,,,,,,,,,,
,,,,,,00098,2023-11-09_14h05.37.399,vbt_B2_day2,2022.2.4,Win32,60.07810153,,,,,,,0.000925912,-0.106481481,1,0,0,0.2665,0,19,19,22,1,w,images/br_w.png,images/cb_w.png,,,,,,,,,,,,,,,,,,,,,,,,,,,,,,,,,,,,,,,,,,,,,,,
,,,,,,00098,2023-11-09_14h05.37.399,vbt_B2_day2,2022.2.4,Win32,60.07810153,,,,,,,0.000925912,-0.106481481,1,0,0,1.0501,0,20,20,11,1,l,images/br_l.png,images/cb_l.png,,,,,,,,,,,,,,,,,,,,,,,,,,,,,,,,,,,,,,,,,,,,,,,
,,,,,,00098,2023-11-09_14h05.37.399,vbt_B2_day2,2022.2.4,Win32,60.07810153,,,,,,,0.000925912,-0.106481481,1,0,0,0.5,0,21,21,25,1,z,images/br_z.png,images/cb_z.png,,,,,,,,,,,,,,,,,,,,,,,,,,,,,,,,,,,,,,,,,,,,,,,
,,,,,,00098,2023-11-09_14h05.37.399,vbt_B2_day2,2022.2.4,Win32,60.07810153,,,,,,,0.000925912,-0.106481481,1,0,0,2.1496,0,22,22,20,1,u,images/br_u.png,images/cb_u.png,,,,,,,,,,,,,,,,,,,,,,,,,,,,,,,,,,,,,,,,,,,,,,,
,,,,,,00098,2023-11-09_14h05.37.399,vbt_B2_day2,2022.2.4,Win32,60.07810153,,,,,,,0.000925912,-0.106481481,1,0,0,0.2269,0,23,23,23,1,x,images/br_x.png,images/cb_x.png,,,,,,,,,,,,,,,,,,,,,,,,,,,,,,,,,,,,,,,,,,,,,,,
,,,,,,00098,2023-11-09_14h05.37.399,vbt_B2_day2,2022.2.4,Win32,60.07810153,,,,,,,0.000925912,-0.106481481,1,0,0,1.7497,0,24,24,1,1,b,images/br_b.png,images/cb_b.png,,,,,,,,,,,,,,,,,,,,,,,,,,,,,,,,,,,,,,,,,,,,,,,
,,,,,,00098,2023-11-09_14h05.37.399,vbt_B2_day2,2022.2.4,Win32,60.07810153,,,,,,,0.000925912,-0.106481481,1,0,0,0.5164,0,25,25,9,1,j,images/br_j.png,images/cb_j.png,,,,,,,,,,,,,,,,,,,,,,,,,,,,,,,,,,,,,,,,,,,,,,,
,,,,,,00098,2023-11-09_14h05.37.399,vbt_B2_day2,2022.2.4,Win32,60.07810153,,,,,,,,,,,,,,,,,,,,,-0.083333333,-0.172222208,1,0,0,23.4772,,,,,,,,,,,,,,,,,,,,,,,,,,,,,,,,,,,,,,,,,
,,,,,,00098,2023-11-09_14h05.37.399,vbt_B2_day2,2022.2.4,Win32,60.07810153,,,,,,,,,,,,,,,,,,,,,,,,,,,down,0,8.9427,,0.498148176,-0.112037023,1,0,0,4.1821,0,0,0,54,1,gebit,images/br_gebit.png,images/cb_gebit.png,0,,,,,,,,,,,,,,,,,,,,,,
,,,,,,00098,2023-11-09_14h05.37.399,vbt_B2_day2,2022.2.4,Win32,60.07810153,,,,,,,,,,,,,,,,,,,,,,,,,,,down,0,6.967,,0.498148176,-0.112037023,1,0,0,1.9,0,1,1,133,1,seizoen,images/br_seizoen.png,images/cb_seizoen.png,0,,,,,,,,,,,,,,,,,,,,,,
,,,,,,00098,2023-11-09_14h05.37.399,vbt_B2_day2,2022.2.4,Win32,60.07810153,,,,,,,,,,,,,,,,,,,,,,,,,,,down,0,12.7835,,0.532407407,-0.119444459,1,0,0,1.8661,0,2,2,6,1,diep,images/br_diep.png,images/cb_diep.png,0,,,,,,,,,,,,,,,,,,,,,,
,,,,,,00098,2023-11-09_14h05.37.399,vbt_B2_day2,2022.2.4,Win32,60.07810153,,,,,,,,,,,,,,,,,,,,,,,,,,,down,0,3.4379,,0.532407407,-0.119444459,1,0,0,1.5829,0,3,3,126,1,kasteel,images/br_kasteel.png,images/cb_kasteel.png,0,,,,,,,,,,,,,,,,,,,,,,
,,,,,,00098,2023-11-09_14h05.37.399,vbt_B2_day2,2022.2.4,Win32,60.07810153,,,,,,,,,,,,,,,,,,,,,,,,,,,down,0,15.6831,,0.532407407,-0.119444459,1,0,0,3.583,0,4,4,86,1,woning,images/br_woning.png,images/cb_woning.png,0,,,,,,,,,,,,,,,,,,,,,,
,,,,,,00098,2023-11-09_14h05.37.399,vbt_B2_day2,2022.2.4,Win32,60.07810153,,,,,,,,,,,,,,,,,,,,,,,,,,,down,0,1.4676,,0.532407407,-0.119444459,1,0,0,1.6494,0,5,5,109,1,totaal,images/br_totaal.png,images/cb_totaal.png,0,,,,,,,,,,,,,,,,,,,,,,
,,,,,,00098,2023-11-09_14h05.37.399,vbt_B2_day2,2022.2.4,Win32,60.07810153,,,,,,,,,,,,,,,,,,,,,,,,,,,down,0,7.0002,,0.532407407,-0.119444459,1,0,0,2.3728,0,6,6,97,1,loyaal,images/br_loyaal.png,images/cb_loyaal.png,1,loyaal,,,,,,,,,,,,,,,,,,,,,
,,,,,,00098,2023-11-09_14h05.37.399,vbt_B2_day2,2022.2.4,Win32,60.07810153,,,,,,,,,,,,,,,,,,,,,,,,,,,down,0,5.554,,0.532407407,-0.119444459,1,0,0,1.3993,0,7,7,125,1,aanzien,images/br_aanzien.png,images/cb_aanzien.png,0,,,,,,,,,,,,,,,,,,,,,,
,,,,,,00098,2023-11-09_14h05.37.399,vbt_B2_day2,2022.2.4,Win32,60.07810153,,,,,,,,,,,,,,,,,,,,,,,,,,,down,0,6.8186,,0.532407407,-0.119444459,1,0,0,1.2498,0,8,8,71,1,bever,images/br_bever.png,images/cb_bever.png,0,,,,,,,,,,,,,,,,,,,,,,
,,,,,,00098,2023-11-09_14h05.37.399,vbt_B2_day2,2022.2.4,Win32,60.07810153,,,,,,,,,,,,,,,,,,,,,,,,,,,down,0,4.0568,,0.532407407,-0.119444459,1,0,0,1.4163,0,9,9,73,1,volop,images/br_volop.png,images/cb_volop.png,0,,,,,,,,,,,,,,,,,,,,,,
,,,,,,00098,2023-11-09_14h05.37.399,vbt_B2_day2,2022.2.4,Win32,60.07810153,,,,,,,,,,,,,,,,,,,,,,,,,,,down,0,8.2006,,0.532407407,-0.119444459,1,0,0,1.4167,0,10,10,194,1,driemaal,images/br_driemaal.png,images/cb_driemaal.png,0,,,,,,,,,,,,,,,,,,,,,,
,,,,,,00098,2023-11-09_14h05.37.399,vbt_B2_day2,2022.2.4,Win32,60.07810153,,,,,,,,,,,,,,,,,,,,,,,,,,,down,0,5.7592,,0.532407407,-0.119444459,1,0,0,1.4668,0,11,11,180,1,openbaar,images/br_openbaar.png,images/cb_openbaar.png,0,,,,,,,,,,,,,,,,,,,,,,
,,,,,,00098,2023-11-09_14h05.37.399,vbt_B2_day2,2022.2.4,Win32,60.07810153,,,,,,,,,,,,,,,,,,,,,,,,,,,down,0,6.8534,,0.532407407,-0.119444459,1,0,0,1.5664,0,12,12,118,1,vinger,images/br_vinger.png,images/cb_vinger.png,0,,,,,,,,,,,,,,,,,,,,,,
,,,,,,00098,2023-11-09_14h05.37.399,vbt_B2_day2,2022.2.4,Win32,60.07810153,,,,,,,,,,,,,,,,,,,,,,,,,,,down,0,33.8817,,0.532407407,-0.119444459,1,0,0,1.45,0,13,13,134,1,geliefd,images/br_geliefd.png,images/cb_geliefd.png,0,,,,,,,,,,,,,,,,,,,,,,
,,,,,,00098,2023-11-09_14h05.37.399,vbt_B2_day2,2022.2.4,Win32,60.07810153,,,,,,,,,,,,,,,,,,,,,,,,,,,down,0,8.1848,,0.532407407,-0.119444459,1,0,0,9.3656,0,14,14,122,1,waarvan,images/br_waarvan.png,images/cb_waarvan.png,0,,,,,,,,,,,,,,,,,,,,,,
,,,,,,00098,2023-11-09_14h05.37.399,vbt_B2_day2,2022.2.4,Win32,60.07810153,,,,,,,,,,,,,,,,,,,,,,,,,,,down,0,11.25,,0.532407407,-0.119444459,1,0,0,1.4993,0,15,15,119,1,liefje,images/br_liefje.png,images/cb_liefje.png,0,,,,,,,,,,,,,,,,,,,,,,
,,,,,,00098,2023-11-09_14h05.37.399,vbt_B2_day2,2022.2.4,Win32,60.07810153,,,,,,,,,,,,,,,,,,,,,,,,,,,down,0,2.6006,,0.488888917,-0.12037037,1,0,0,1.0832,0,16,16,102,1,legaal,images/br_legaal.png,images/cb_legaal.png,0,,,,,,,,,,,,,,,,,,,,,,
,,,,,,00098,2023-11-09_14h05.37.399,vbt_B2_day2,2022.2.4,Win32,60.07810153,,,,,,,,,,,,,,,,,,,,,,,,,,,down,0,3.0272,,0.488888917,-0.12037037,1,0,0,0.8167,0,17,17,101,1,staren,images/br_staren.png,images/cb_staren.png,0,,,,,,,,,,,,,,,,,,,,,,
,,,,,,00098,2023-11-09_14h05.37.399,vbt_B2_day2,2022.2.4,Win32,60.07810153,,,,,,,,,,,,,,,,,,,,,,,,,,,down,0,8.1101,,0.488888917,-0.12037037,1,0,0,1.4437,0,18,18,139,1,stiekem,images/br_stiekem.png,images/cb_stiekem.png,1,stiekem,,,,,,,,,,,,,,,,,,,,,
,,,,,,00098,2023-11-09_14h05.37.399,vbt_B2_day2,2022.2.4,Win32,60.07810153,,,,,,,,,,,,,,,,,,,,,,,,,,,down,0,5.7906,,0.488888917,-0.12037037,1,0,0,1.3829,0,19,19,12,1,kust,images/br_kust.png,images/cb_kust.png,0,,,,,,,,,,,,,,,,,,,,,,
,,,,,,00098,2023-11-09_14h05.37.399,vbt_B2_day2,2022.2.4,Win32,60.07810153,,,,,,,,,,,,,,,,,,,,,,,,,,,down,0,2.0512,,0.488888917,-0.12037037,1,0,0,1.2165,0,20,20,2,1,jaar,images/br_jaar.png,images/cb_jaar.png,0,,,,,,,,,,,,,,,,,,,,,,
,,,,,,00098,2023-11-09_14h05.37.399,vbt_B2_day2,2022.2.4,Win32,60.07810153,,,,,,,,,,,,,,,,,,,,,,,,,,,down,0,3.002,,0.488888917,-0.12037037,1,0,0,0.7836,0,21,21,181,1,toegeven,images/br_toegeven.png,images/cb_toegeven.png,0,,,,,,,,,,,,,,,,,,,,,,
,,,,,,00098,2023-11-09_14h05.37.399,vbt_B2_day2,2022.2.4,Win32,60.07810153,,,,,,,,,,,,,,,,,,,,,,,,,,,down,0,7.0728,,0.488888917,-0.12037037,1,0,0,0.7676,0,22,22,14,1,rijp,images/br_rijp.png,images/cb_rijp.png,0,,,,,,,,,,,,,,,,,,,,,,
,,,,,,00098,2023-11-09_14h05.37.399,vbt_B2_day2,2022.2.4,Win32,60.07810153,,,,,,,,,,,,,,,,,,,,,,,,,,,down,0,3.3596,,0.488888917,-0.12037037,1,0,0,0.766,0,23,23,120,1,klimmen,images/br_klimmen.png,images/cb_klimmen.png,0,,,,,,,,,,,,,,,,,,,,,,
,,,,,,00098,2023-11-09_14h05.37.399,vbt_B2_day2,2022.2.4,Win32,60.07810153,,,,,,,,,,,,,,,,,,,,,,,,,,,down,0,11.2816,,0.488888917,-0.12037037,1,0,0,1.2104,0,24,24,157,1,uitlaat,images/br_uitlaat.png,images/cb_uitlaat.png,0,,,,,,,,,,,,,,,,,,,,,,
,,,,,,00098,2023-11-09_14h05.37.399,vbt_B2_day2,2022.2.4,Win32,60.07810153,,,,,,,,,,,,,,,,,,,,,,,,,,,down,0,5.5896,,0.488888917,-0.12037037,1,0,0,0.9833,0,25,25,37,1,mijn,images/br_mijn.png,images/cb_mijn.png,0,,,,,,,,,,,,,,,,,,,,,,
,,,,,,00098,2023-11-09_14h05.37.399,vbt_B2_day2,2022.2.4,Win32,60.07810153,,,,,,,,,,,,,,,,,,,,,,,,,,,down,0,6.7244,,0.488888917,-0.12037037,1,0,0,1.0829,0,26,26,40,1,schep,images/br_schep.png,images/cb_schep.png,0,,,,,,,,,,,,,,,,,,,,,,
,,,,,,00098,2023-11-09_14h05.37.399,vbt_B2_day2,2022.2.4,Win32,60.07810153,,,,,,,,,,,,,,,,,,,,,,,,,,,down,0,12.566,,0.492592564,-0.12037037,1,0,0,0.8841,0,27,27,143,1,hechten,images/br_hechten.png,images/cb_hechten.png,0,,,,,,,,,,,,,,,,,,,,,,
,,,,,,00098,2023-11-09_14h05.37.399,vbt_B2_day2,2022.2.4,Win32,60.07810153,,,,,,,,,,,,,,,,,,,,,,,,,,,down,0,5.0582,,0.519444501,-0.118518547,1,0,0,0.8997,0,28,28,47,1,kabel,images/br_kabel.png,images/cb_kabel.png,0,,,,,,,,,,,,,,,,,,,,,,
,,,,,,00098,2023-11-09_14h05.37.399,vbt_B2_day2,2022.2.4,Win32,60.07810153,,,,,,,,,,,,,,,,,,,,,,,,,,,down,0,12.6529,,0.519444501,-0.12037037,1,0,0,1.0332,0,29,29,4,1,moes,images/br_moes.png,images/cb_moes.png,0,,,,,,,,,,,,,,,,,,,,,,
,,,,,,00098,2023-11-09_14h05.37.399,vbt_B2_day2,2022.2.4,Win32,60.07810153,,,,,,,,,,,,,,,,,,,,,,,,,,,down,0,7.2503,,0.519444501,-0.12037037,1,0,0,0.7667,0,30,30,142,1,snuiven,images/br_snuiven.png,images/cb_snuiven.png,0,,,,,,,,,,,,,,,,,,,,,,
,,,,,,00098,2023-11-09_14h05.37.399,vbt_B2_day2,2022.2.4,Win32,60.07810153,,,,,,,,,,,,,,,,,,,,,,,,,,,down,0,11.1835,,0.519444501,-0.118518547,1,0,0,1.3662,0,31,31,105,1,wijlen,images/br_wijlen.png,images/cb_wijlen.png,0,,,,,,,,,,,,,,,,,,,,,,
,,,,,,00098,2023-11-09_14h05.37.399,vbt_B2_day2,2022.2.4,Win32,60.07810153,,,,,,,,,,,,,,,,,,,,,,,,,,,down,0,17.6161,,0.519444501,-0.118518547,1,0,0,0.8003,0,32,32,196,1,nakijken,images/br_nakijken.png,images/cb_nakijken.png,0,,,,,,,,,,,,,,,,,,,,,,
,,,,,,00098,2023-11-09_14h05.37.399,vbt_B2_day2,2022.2.4,Win32,60.07810153,,,,,,,,,,,,,,,,,,,,,,,,,,,down,0,17.1387,,0.519444501,-0.118518547,1,0,0,0.8342,0,33,33,195,1,middelen,images/br_middelen.png,images/cb_middelen.png,0,,,,,,,,,,,,,,,,,,,,,,
,,,,,,00098,2023-11-09_14h05.37.399,vbt_B2_day2,2022.2.4,Win32,60.07810153,,,,,,,,,,,,,,,,,,,,,,,,,,,down,0,5.1006,,0.519444501,-0.118518547,1,0,0,0.8842,0,34,34,46,1,jagen,images/br_jagen.png,images/cb_jagen.png,0,,,,,,,,,,,,,,,,,,,,,,
,,,,,,00098,2023-11-09_14h05.37.399,vbt_B2_day2,2022.2.4,Win32,60.07810153,,,,,,,,,,,,,,,,,,,,,,,,,,,down,0,7.1675,,0.519444501,-0.118518547,1,0,0,0.7497,0,35,35,76,1,afval,images/br_afval.png,images/cb_afval.png,0,,,,,,,,,,,,,,,,,,,,,,
,,,,,,00098,2023-11-09_14h05.37.399,vbt_B2_day2,2022.2.4,Win32,60.07810153,,,,,,,,,,,,,,,,,,,,,,,,,,,down,0,1.8342,,0.519444501,-0.118518547,1,0,0,0.783,0,36,36,42,1,bleek,images/br_bleek.png,images/cb_bleek.png,0,,,,,,,,,,,,,,,,,,,,,,
,,,,,,00098,2023-11-09_14h05.37.399,vbt_B2_day2,2022.2.4,Win32,60.07810153,,,,,,,,,,,,,,,,,,,,,,,,,,,down,0,8.7479,,0.519444501,-0.118518547,1,0,0,0.7339,0,37,37,155,1,gerucht,images/br_gerucht.png,images/cb_gerucht.png,0,,,,,,,,,,,,,,,,,,,,,,
,,,,,,00098,2023-11-09_14h05.37.399,vbt_B2_day2,2022.2.4,Win32,60.07810153,,,,,,,,,,,,,,,,,,,,,,,,,,,down,0,0.425,,0.522222307,-0.116666653,1,0,0,0.9998,0,38,38,66,1,lever,images/br_lever.png,images/cb_lever.png,0,,,,,,,,,,,,,,,,,,,,,,
,,,,,,00098,2023-11-09_14h05.37.399,vbt_B2_day2,2022.2.4,Win32,60.07810153,,,,,,,,,,,,,,,,,,,,,,,,,,,down,0,6.3009,,0.522222307,-0.116666653,1,0,0,0.9998,0,39,39,91,1,gezond,images/br_gezond.png,images/cb_gezond.png,0,,,,,,,,,,,,,,,,,,,,,,
,,,,,,00098,2023-11-09_14h05.37.399,vbt_B2_day2,2022.2.4,Win32,60.07810153,,,,,,,,,,,,,,,,,,,,,,,,,,,down,0,1.344,,0.522222307,-0.116666653,1,0,0,1.1665,0,40,40,113,1,koppen,images/br_koppen.png,images/cb_koppen.png,0,,,,,,,,,,,,,,,,,,,,,,
,,,,,,00098,2023-11-09_14h05.37.399,vbt_B2_day2,2022.2.4,Win32,60.07810153,,,,,,,,,,,,,,,,,,,,,,,,,,,down,0,2.9173,,0.522222307,-0.116666653,1,0,0,0.7998,0,41,41,149,1,redding,images/br_redding.png,images/cb_redding.png,0,,,,,,,,,,,,,,,,,,,,,,
,,,,,,00098,2023-11-09_14h05.37.399,vbt_B2_day2,2022.2.4,Win32,60.07810153,,,,,,,,,,,,,,,,,,,,,,,,,,,down,0,4.3619,,0.522222307,-0.116666653,1,0,0,0.7498,0,42,42,169,1,oprotten,images/br_oprotten.png,images/cb_oprotten.png,0,,,,,,,,,,,,,,,,,,,,,,
,,,,,,00098,2023-11-09_14h05.37.399,vbt_B2_day2,2022.2.4,Win32,60.07810153,,,,,,,,,,,,,,,,,,,,,,,,,,,down,0,3.6443,,0.522222307,-0.116666653,1,0,0,0.7665,0,43,43,146,1,opkomen,images/br_opkomen.png,images/cb_opkomen.png,0,,,,,,,,,,,,,,,,,,,,,,
,,,,,,00098,2023-11-09_14h05.37.399,vbt_B2_day2,2022.2.4,Win32,60.07810153,,,,,,,,,,,,,,,,,,,,,,,,,,,down,0,2.0406,,0.522222307,-0.116666653,1,0,0,0.7334,0,44,44,78,1,leren,images/br_leren.png,images/cb_leren.png,0,,,,,,,,,,,,,,,,,,,,,,
,,,,,,00098,2023-11-09_14h05.37.399,vbt_B2_day2,2022.2.4,Win32,60.07810153,,,,,,,,,,,,,,,,,,,,,,,,,,,down,0,0.8575,,0.522222307,-0.116666653,1,0,0,0.7164,0,45,45,64,1,wegen,images/br_wegen.png,images/cb_wegen.png,0,,,,,,,,,,,,,,,,,,,,,,
,,,,,,00098,2023-11-09_14h05.37.399,vbt_B2_day2,2022.2.4,Win32,60.07810153,,,,,,,,,,,,,,,,,,,,,,,,,,,down,0,4.1238,,0.522222307,-0.116666653,1,0,0,0.7167,0,46,46,3,1,mand,images/br_mand.png,images/cb_mand.png,0,,,,,,,,,,,,,,,,,,,,,,
,,,,,,00098,2023-11-09_14h05.37.399,vbt_B2_day2,2022.2.4,Win32,60.07810153,,,,,,,,,,,,,,,,,,,,,,,,,,,down,0,5.1848,,0.522222307,-0.116666653,1,0,0,0.6998,0,47,47,60,1,jasje,images/br_jasje.png,images/cb_jasje.png,0,,,,,,,,,,,,,,,,,,,,,,
,,,,,,00098,2023-11-09_14h05.37.399,vbt_B2_day2,2022.2.4,Win32,60.07810153,,,,,,,,,,,,,,,,,,,,,,,,,,,down,0,11.801,,0.522222307,-0.116666653,1,0,0,0.7274,0,48,48,164,1,anarchie,images/br_anarchie.png,images/cb_anarchie.png,0,,,,,,,,,,,,,,,,,,,,,,
,,,,,,00098,2023-11-09_14h05.37.399,vbt_B2_day2,2022.2.4,Win32,60.07810153,,,,,,,,,,,,,,,,,,,,,,,,,,,down,0,4.375,,0.522222307,-0.116666653,1,0,0,0.7241,0,49,49,197,1,spanning,images/br_spanning.png,images/cb_spanning.png,0,,,,,,,,,,,,,,,,,,,,,,
,,,,,,00098,2023-11-09_14h05.37.399,vbt_B2_day2,2022.2.4,Win32,60.07810153,,,,,,,,,,,,,,,,,,,,,,,,,,,down,0,7.0832,,0.522222307,-0.116666653,1,0,0,1.6332,0,50,50,56,1,traag,images/br_traag.png,images/cb_traag.png,1,traag,,,,,,,,,,,,,,,,,,,,,
,,,,,,00098,2023-11-09_14h05.37.399,vbt_B2_day2,2022.2.4,Win32,60.07810153,,,,,,,,,,,,,,,,,,,,,,,,,,,down,0,5.9688,,0.522222307,-0.116666653,1,0,0,3.2662,0,51,51,27,1,dans,images/br_dans.png,images/cb_dans.png,0,,,,,,,,,,,,,,,,,,,,,,
,,,,,,00098,2023-11-09_14h05.37.399,vbt_B2_day2,2022.2.4,Win32,60.07810153,,,,,,,,,,,,,,,,,,,,,,,,,,,down,0,8.4693,,0.522222307,-0.116666653,1,0,0,20.3311,0,52,52,129,1,verhaal,images/br_verhaal.png,images/cb_verhaal.png,0,,,,,,,,,,,,,,,,,,,,,,
,,,,,,00098,2023-11-09_14h05.37.399,vbt_B2_day2,2022.2.4,Win32,60.07810153,,,,,,,,,,,,,,,,,,,,,,,,,,,down,0,6.3348,,0.522222307,-0.116666653,1,0,0,1.1223,0,53,53,187,1,opkijken,images/br_opkijken.png,images/cb_opkijken.png,0,,,,,,,,,,,,,,,,,,,,,,
,,,,,,00098,2023-11-09_14h05.37.399,vbt_B2_day2,2022.2.4,Win32,60.07810153,,,,,,,,,,,,,,,,,,,,,,,,,,,down,0,6.5189,,0.522222307,-0.116666653,1,0,0,0.9331,0,54,54,172,1,weigeren,images/br_weigeren.png,images/cb_weigeren.png,0,,,,,,,,,,,,,,,,,,,,,,
,,,,,,00098,2023-11-09_14h05.37.399,vbt_B2_day2,2022.2.4,Win32,60.07810153,,,,,,,,,,,,,,,,,,,,,,,,,,,down,0,5.1184,,0.522222307,-0.116666653,1,0,0,1.3494,0,55,55,59,1,kring,images/br_kring.png,images/cb_kring.png,1,kring,,,,,,,,,,,,,,,,,,,,,
,,,,,,00098,2023-11-09_14h05.37.399,vbt_B2_day2,2022.2.4,Win32,60.07810153,,,,,,,,,,,,,,,,,,,,,,,,,,,down,0,2.5183,,0.522222307,-0.116666653,1,0,0,1.7663,0,56,56,192,1,schaamte,images/br_schaamte.png,images/cb_schaamte.png,0,,,,,,,,,,,,,,,,,,,,,,
,,,,,,00098,2023-11-09_14h05.37.399,vbt_B2_day2,2022.2.4,Win32,60.07810153,,,,,,,,,,,,,,,,,,,,,,,,,,,down,0,4.9933,,0.522222307,-0.116666653,1,0,0,0.7667,0,57,57,19,1,geit,images/br_geit.png,images/cb_geit.png,1,geit,,,,,,,,,,,,,,,,,,,,,
,,,,,,00098,2023-11-09_14h05.37.399,vbt_B2_day2,2022.2.4,Win32,60.07810153,,,,,,,,,,,,,,,,,,,,,,,,,,,down,0,1.6898,,0.522222307,-0.116666653,1,0,0,0.8,0,58,58,33,1,vlek,images/br_vlek.png,images/cb_vlek.png,0,,,,,,,,,,,,,,,,,,,,,,
,,,,,,00098,2023-11-09_14h05.37.399,vbt_B2_day2,2022.2.4,Win32,60.07810153,,,,,,,,,,,,,,,,,,,,,,,,,,,down,0,4.9921,,0.522222307,-0.116666653,1,0,0,0.95,0,59,59,38,1,baai,images/br_baai.png,images/cb_baai.png,0,,,,,,,,,,,,,,,,,,,,,,
,,,,,,00098,2023-11-09_14h05.37.399,vbt_B2_day2,2022.2.4,Win32,60.07810153,,,,,,,,,,,,,,,,,,,,,,,,,,,down,0,2.7245,,0.526851937,-0.116666653,1,0,0,0.7179,0,60,60,10,1,leek,images/br_leek.png,images/cb_leek.png,0,,,,,,,,,,,,,,,,,,,,,,
,,,,,,00098,2023-11-09_14h05.37.399,vbt_B2_day2,2022.2.4,Win32,60.07810153,,,,,,,,,,,,,,,,,,,,,,,,,,,down,0,2.0842,,0.534259231,-0.116666653,1,0,0,0.6992,0,61,61,20,1,site,images/br_site.png,images/cb_site.png,0,,,,,,,,,,,,,,,,,,,,,,
,,,,,,00098,2023-11-09_14h05.37.399,vbt_B2_day2,2022.2.4,Win32,60.07810153,,,,,,,,,,,,,,,,,,,,,,,,,,,down,0,15.4515,,0.534259231,-0.116666653,1,0,0,0.7166,0,62,62,90,1,geluid,images/br_geluid.png,images/cb_geluid.png,0,,,,,,,,,,,,,,,,,,,,,,
,,,,,,00098,2023-11-09_14h05.37.399,vbt_B2_day2,2022.2.4,Win32,60.07810153,,,,,,,,,,,,,,,,,,,,,,,,,,,down,0,1.5069,,0.534259231,-0.116666653,1,0,0,0.9564,0,63,63,17,1,taal,images/br_taal.png,images/cb_taal.png,1,taal,,,,,,,,,,,,,,,,,,,,,
,,,,,,00098,2023-11-09_14h05.37.399,vbt_B2_day2,2022.2.4,Win32,60.07810153,,,,,,,,,,,,,,,,,,,,,,,,,,,down,0,23.4483,,0.534259231,-0.116666653,1,0,0,0.75,0,64,64,193,1,weeshuis,images/br_weeshuis.png,images/cb_weeshuis.png,0,,,,,,,,,,,,,,,,,,,,,,
,,,,,,00098,2023-11-09_14h05.37.399,vbt_B2_day2,2022.2.4,Win32,60.07810153,,,,,,,,,,,,,,,,,,,,,,,,,,,down,0,5.3659,,0.534259231,-0.116666653,1,0,0,0.816,0,65,65,94,1,oceaan,images/br_oceaan.png,images/cb_oceaan.png,0,,,,,,,,,,,,,,,,,,,,,,
,,,,,,00098,2023-11-09_14h05.37.399,vbt_B2_day2,2022.2.4,Win32,60.07810153,,,,,,,,,,,,,,,,,,,,,,,,,,,down,0,9.8329,,0.534259231,-0.116666653,1,0,0,0.7834,0,66,66,82,1,muziek,images/br_muziek.png,images/cb_muziek.png,0,,,,,,,,,,,,,,,,,,,,,,
,,,,,,00098,2023-11-09_14h05.37.399,vbt_B2_day2,2022.2.4,Win32,60.07810153,,,,,,,,,,,,,,,,,,,,,,,,,,,down,0,12.7222,,0.534259231,-0.116666653,1,0,0,0.7166,0,67,67,127,1,doodmoe,images/br_doodmoe.png,images/cb_doodmoe.png,0,,,,,,,,,,,,,,,,,,,,,,
,,,,,,00098,2023-11-09_14h05.37.399,vbt_B2_day2,2022.2.4,Win32,60.07810153,,,,,,,,,,,,,,,,,,,,,,,,,,,down,0,2.4843,,0.534259231,-0.116666653,1,0,0,0.8499,0,68,68,173,1,apparaat,images/br_apparaat.png,images/cb_apparaat.png,0,,,,,,,,,,,,,,,,,,,,,,
,,,,,,00098,2023-11-09_14h05.37.399,vbt_B2_day2,2022.2.4,Win32,60.07810153,,,,,,,,,,,,,,,,,,,,,,,,,,,down,0,3.0503,,0.534259231,-0.116666653,1,0,0,1.1429,0,69,69,141,1,knielen,images/br_knielen.png,images/cb_knielen.png,0,,,,,,,,,,,,,,,,,,,,,,
,,,,,,00098,2023-11-09_14h05.37.399,vbt_B2_day2,2022.2.4,Win32,60.07810153,,,,,,,,,,,,,,,,,,,,,,,,,,,down,0,4.9376,,0.575925898,-0.155555584,1,0,0,0.6852,0,70,70,151,1,aanzoek,images/br_aanzoek.png,images/cb_aanzoek.png,0,,,,,,,,,,,,,,,,,,,,,,
,,,,,,00098,2023-11-09_14h05.37.399,vbt_B2_day2,2022.2.4,Win32,60.07810153,,,,,,,,,,,,,,,,,,,,,,,,,,,down,0,1.1369,,0.592592593,-0.157407407,1,0,0,0.7671,0,71,71,28,1,stal,images/br_stal.png,images/cb_stal.png,0,,,,,,,,,,,,,,,,,,,,,,
,,,,,,00098,2023-11-09_14h05.37.399,vbt_B2_day2,2022.2.4,Win32,60.07810153,,,,,,,,,,,,,,,,,,,,,,,,,,,down,0,2.7022,,0.604629658,-0.209259245,1,0,0,1.3332,0,72,72,104,1,zweven,images/br_zweven.png,images/cb_zweven.png,0,,,,,,,,,,,,,,,,,,,,,,
,,,,,,00098,2023-11-09_14h05.37.399,vbt_B2_day2,2022.2.4,Win32,60.07810153,,,,,,,,,,,,,,,,,,,,,,,,,,,down,0,6.6333,,0.604629658,-0.209259245,1,0,0,0.8997,0,73,73,100,1,geduld,images/br_geduld.png,images/cb_geduld.png,0,,,,,,,,,,,,,,,,,,,,,,
,,,,,,00098,2023-11-09_14h05.37.399,vbt_B2_day2,2022.2.4,Win32,60.07810153,,,,,,,,,,,,,,,,,,,,,,,,,,,down,0,4.0035,,0.604629658,-0.209259245,1,0,0,0.7331,0,74,74,30,1,uien,images/br_uien.png,images/cb_uien.png,0,,,,,,,,,,,,,,,,,,,,,,
,,,,,,00098,2023-11-09_14h05.37.399,vbt_B2_day2,2022.2.4,Win32,60.07810153,,,,,,,,,,,,,,,,,,,,,,,,,,,down,0,3.3504,,0.622222194,-0.207407422,1,0,0,1.0836,0,75,75,107,1,maling,images/br_maling.png,images/cb_maling.png,0,,,,,,,,,,,,,,,,,,,,,,
,,,,,,00098,2023-11-09_14h05.37.399,vbt_B2_day2,2022.2.4,Win32,60.07810153,,,,,,,,,,,,,,,,,,,,,,,,,,,down,0,0.6187,,0.664814843,-0.211111139,1,0,0,0.6997,0,76,76,50,1,stoom,images/br_stoom.png,images/cb_stoom.png,0,,,,,,,,,,,,,,,,,,,,,,
,,,,,,00098,2023-11-09_14h05.37.399,vbt_B2_day2,2022.2.4,Win32,60.07810153,,,,,,,,,,,,,,,,,,,,,,,,,,,down,0,1.3191,,0.67314812,-0.219444487,1,0,0,0.7668,0,77,77,148,1,smullen,images/br_smullen.png,images/cb_smullen.png,0,,,,,,,,,,,,,,,,,,,,,,
,,,,,,00098,2023-11-09_14h05.37.399,vbt_B2_day2,2022.2.4,Win32,60.07810153,,,,,,,,,,,,,,,,,,,,,,,,,,,down,0,8.1518,,0.67314812,-0.22129631,1,0,0,0.7491,0,78,78,159,1,sufferd,images/br_sufferd.png,images/cb_sufferd.png,0,,,,,,,,,,,,,,,,,,,,,,
,,,,,,00098,2023-11-09_14h05.37.399,vbt_B2_day2,2022.2.4,Win32,60.07810153,,,,,,,,,,,,,,,,,,,,,,,,,,,down,0,6.3404,,0.67314812,-0.223148134,1,0,0,0.6668,0,79,79,167,1,eenhoorn,images/br_eenhoorn.png,images/cb_eenhoorn.png,0,,,,,,,,,,,,,,,,,,,,,,
,,,,,,00098,2023-11-09_14h05.37.399,vbt_B2_day2,2022.2.4,Win32,60.07810153,,,,,,,,,,,,,,,,,,,,,,,,,,,down,0,3.6681,,0.675000085,-0.233333376,1,0,0,0.8167,0,80,80,58,1,tekst,images/br_tekst.png,images/cb_tekst.png,1,tekst,,,,,,,,,,,,,,,,,,,,,
,,,,,,00098,2023-11-09_14h05.37.399,vbt_B2_day2,2022.2.4,Win32,60.07810153,,,,,,,,,,,,,,,,,,,,,,,,,,,down,0,2.1026,,0.675000085,-0.233333376,1,0,0,0.8001,0,81,81,117,1,kennis,images/br_kennis.png,images/cb_kennis.png,0,,,,,,,,,,,,,,,,,,,,,,
,,,,,,00098,2023-11-09_14h05.37.399,vbt_B2_day2,2022.2.4,Win32,60.07810153,,,,,,,,,,,,,,,,,,,,,,,,,,,down,0,5.7667,,0.675000085,-0.233333376,1,0,0,0.6831,0,82,82,15,1,soda,images/br_soda.png,images/cb_soda.png,0,,,,,,,,,,,,,,,,,,,,,,
,,,,,,00098,2023-11-09_14h05.37.399,vbt_B2_day2,2022.2.4,Win32,60.07810153,,,,,,,,,,,,,,,,,,,,,,,,,,,down,0,3.0359,,0.675000085,-0.233333376,1,0,0,2.2828,0,83,83,9,1,hier,images/br_hier.png,images/cb_hier.png,0,,,,,,,,,,,,,,,,,,,,,,
,,,,,,00098,2023-11-09_14h05.37.399,vbt_B2_day2,2022.2.4,Win32,60.07810153,,,,,,,,,,,,,,,,,,,,,,,,,,,down,0,3.1102,,0.675000085,-0.233333376,1,0,0,0.6492,0,84,84,111,1,ticket,images/br_ticket.png,images/cb_ticket.png,0,,,,,,,,,,,,,,,,,,,,,,
,,,,,,00098,2023-11-09_14h05.37.399,vbt_B2_day2,2022.2.4,Win32,60.07810153,,,,,,,,,,,,,,,,,,,,,,,,,,,down,0,0.9555,,0.689814815,-0.237963005,1,0,0,0.6835,0,85,85,1,1,zaal,images/br_zaal.png,images/cb_zaal.png,0,,,,,,,,,,,,,,,,,,,,,,
,,,,,,00098,2023-11-09_14h05.37.399,vbt_B2_day2,2022.2.4,Win32,60.07810153,,,,,,,,,,,,,,,,,,,,,,,,,,,down,0,1.7178,,0.689814815,-0.237963005,1,0,0,0.6327,0,86,86,150,1,gegeven,images/br_gegeven.png,images/cb_gegeven.png,0,,,,,,,,,,,,,,,,,,,,,,
,,,,,,00098,2023-11-09_14h05.37.399,vbt_B2_day2,2022.2.4,Win32,60.07810153,,,,,,,,,,,,,,,,,,,,,,,,,,,down,0,4.2685,,0.689814815,-0.237963005,1,0,0,0.6658,0,87,87,69,1,waken,images/br_waken.png,images/cb_waken.png,0,,,,,,,,,,,,,,,,,,,,,,
,,,,,,00098,2023-11-09_14h05.37.399,vbt_B2_day2,2022.2.4,Win32,60.07810153,,,,,,,,,,,,,,,,,,,,,,,,,,,down,0,0.9601,,0.700925898,-0.24537037,1,0,0,0.7009,0,88,88,170,1,schatten,images/br_schatten.png,images/cb_schatten.png,0,,,,,,,,,,,,,,,,,,,,,,
,,,,,,00098,2023-11-09_14h05.37.399,vbt_B2_day2,2022.2.4,Win32,60.07810153,,,,,,,,,,,,,,,,,,,,,,,,,,,down,0,5.3716,,0.700925898,-0.246296282,1,0,0,0.8998,0,89,89,128,1,prikken,images/br_prikken.png,images/cb_prikken.png,0,,,,,,,,,,,,,,,,,,,,,,
,,,,,,00098,2023-11-09_14h05.37.399,vbt_B2_day2,2022.2.4,Win32,60.07810153,,,,,,,,,,,,,,,,,,,,,,,,,,,down,0,2.8342,,0.700925898,-0.246296282,1,0,0,0.9665,0,90,90,11,1,mode,images/br_mode.png,images/cb_mode.png,0,,,,,,,,,,,,,,,,,,,,,,
,,,,,,00098,2023-11-09_14h05.37.399,vbt_B2_day2,2022.2.4,Win32,60.07810153,,,,,,,,,,,,,,,,,,,,,,,,,,,down,0,1.6227,,0.700925898,-0.246296282,1,0,0,0.6661,0,91,91,174,1,stemming,images/br_stemming.png,images/cb_stemming.png,0,,,,,,,,,,,,,,,,,,,,,,
,,,,,,00098,2023-11-09_14h05.37.399,vbt_B2_day2,2022.2.4,Win32,60.07810153,,,,,,,,,,,,,,,,,,,,,,,,,,,down,0,5.6671,,0.700925898,-0.246296282,1,0,0,0.6327,0,92,92,108,1,excuus,images/br_excuus.png,images/cb_excuus.png,0,,,,,,,,,,,,,,,,,,,,,,
,,,,,,00098,2023-11-09_14h05.37.399,vbt_B2_day2,2022.2.4,Win32,60.07810153,,,,,,,,,,,,,,,,,,,,,,,,,,,down,0,10.3195,,0.700925898,-0.246296282,1,0,0,0.6835,0,93,93,175,1,heengaan,images/br_heengaan.png,images/cb_heengaan.png,0,,,,,,,,,,,,,,,,,,,,,,
,,,,,,00098,2023-11-09_14h05.37.399,vbt_B2_day2,2022.2.4,Win32,60.07810153,,,,,,,,,,,,,,,,,,,,,,,,,,,down,0,0.935,,0.700925898,-0.246296282,1,0,0,0.6165,0,94,94,8,1,knie,images/br_knie.png,images/cb_knie.png,0,,,,,,,,,,,,,,,,,,,,,,
,,,,,,00098,2023-11-09_14h05.37.399,vbt_B2_day2,2022.2.4,Win32,60.07810153,,,,,,,,,,,,,,,,,,,,,,,,,,,down,0,6.7386,,0.700925898,-0.246296282,1,0,0,0.856,0,95,95,130,1,keihard,images/br_keihard.png,images/cb_keihard.png,0,,,,,,,,,,,,,,,,,,,,,,
,,,,,,00098,2023-11-09_14h05.37.399,vbt_B2_day2,2022.2.4,Win32,60.07810153,,,,,,,,,,,,,,,,,,,,,,,,,,,down,0,3.9734,,0.700925898,-0.246296282,1,0,0,0.6499,0,96,96,88,1,boeien,images/br_boeien.png,images/cb_boeien.png,0,,,,,,,,,,,,,,,,,,,,,,
,,,,,,00098,2023-11-09_14h05.37.399,vbt_B2_day2,2022.2.4,Win32,60.07810153,,,,,,,,,,,,,,,,,,,,,,,,,,,down,0,2.3524,,0.700925898,-0.246296282,1,0,0,1.0165,0,97,97,79,1,nodig,images/br_nodig.png,images/cb_nodig.png,0,,,,,,,,,,,,,,,,,,,,,,
,,,,,,00098,2023-11-09_14h05.37.399,vbt_B2_day2,2022.2.4,Win32,60.07810153,,,,,,,,,,,,,,,,,,,,,,,,,,,down,0,2.9843,,0.714814787,-0.26944443,1,0,0,0.6,0,98,98,24,1,jurk,images/br_jurk.png,images/cb_jurk.png,0,,,,,,,,,,,,,,,,,,,,,,
,,,,,,00098,2023-11-09_14h05.37.399,vbt_B2_day2,2022.2.4,Win32,60.07810153,,,,,,,,,,,,,,,,,,,,,,,,,,,down,0,10.6231,,0.717592593,-0.279629672,1,0,0,0.5834,0,99,99,81,1,dubbel,images/br_dubbel.png,images/cb_dubbel.png,0,,,,,,,,,,,,,,,,,,,,,,
,,,,,,00098,2023-11-09_14h05.37.399,vbt_B2_day2,2022.2.4,Win32,60.07810153,,,,,,,,,,,,,,,,,,,,,,,,,,,down,0,3.7673,,0.717592593,-0.298148191,1,0,0,0.683,0,100,100,184,1,aandelen,images/br_aandelen.png,images/cb_aandelen.png,0,,,,,,,,,,,,,,,,,,,,,,
,,,,,,00098,2023-11-09_14h05.37.399,vbt_B2_day2,2022.2.4,Win32,60.07810153,,,,,,,,,,,,,,,,,,,,,,,,,,,down,0,7.7382,,0.717592593,-0.298148191,1,0,0,0.8667,0,101,101,138,1,akkoord,images/br_akkoord.png,images/cb_akkoord.png,1,akkoord,,,,,,,,,,,,,,,,,,,,,
,,,,,,00098,2023-11-09_14h05.37.399,vbt_B2_day2,2022.2.4,Win32,60.07810153,,,,,,,,,,,,,,,,,,,,,,,,,,,down,0,7.8441,,0.717592593,-0.298148191,1,0,0,0.8329,0,102,102,178,1,huisdier,images/br_huisdier.png,images/cb_huisdier.png,1,huisdier,,,,,,,,,,,,,,,,,,,,,
,,,,,,00098,2023-11-09_14h05.37.399,vbt_B2_day2,2022.2.4,Win32,60.07810153,,,,,,,,,,,,,,,,,,,,,,,,,,,down,0,1.5087,,0.717592593,-0.298148191,1,0,0,0.8495,0,103,103,25,1,plek,images/br_plek.png,images/cb_plek.png,0,,,,,,,,,,,,,,,,,,,,,,
,,,,,,00098,2023-11-09_14h05.37.399,vbt_B2_day2,2022.2.4,Win32,60.07810153,,,,,,,,,,,,,,,,,,,,,,,,,,,down,0,2.9869,,0.717592593,-0.298148191,1,0,0,1.916,0,104,104,43,1,klauw,images/br_klauw.png,images/cb_klauw.png,0,,,,,,,,,,,,,,,,,,,,,,
,,,,,,00098,2023-11-09_14h05.37.399,vbt_B2_day2,2022.2.4,Win32,60.07810153,,,,,,,,,,,,,,,,,,,,,,,,,,,down,0,4.4775,,0.717592593,-0.298148191,1,0,0,0.717,0,105,105,186,1,voorraad,images/br_voorraad.png,images/cb_voorraad.png,0,,,,,,,,,,,,,,,,,,,,,,
,,,,,,00098,2023-11-09_14h05.37.399,vbt_B2_day2,2022.2.4,Win32,60.07810153,,,,,,,,,,,,,,,,,,,,,,,,,,,down,0,3.9572,,0.722222222,-0.30277782,1,0,0,0.6831,0,106,106,77,1,woede,images/br_woede.png,images/cb_woede.png,0,,,,,,,,,,,,,,,,,,,,,,
,,,,,,00098,2023-11-09_14h05.37.399,vbt_B2_day2,2022.2.4,Win32,60.07810153,,,,,,,,,,,,,,,,,,,,,,,,,,,down,0,6.4179,,0.722222222,-0.30277782,1,0,0,1.1663,0,107,107,44,1,flits,images/br_flits.png,images/cb_flits.png,0,,,,,,,,,,,,,,,,,,,,,,
,,,,,,00098,2023-11-09_14h05.37.399,vbt_B2_day2,2022.2.4,Win32,60.07810153,,,,,,,,,,,,,,,,,,,,,,,,,,,down,0,2.617,,0.722222222,-0.30277782,1,0,0,1.1498,0,108,108,121,1,twijfel,images/br_twijfel.png,images/cb_twijfel.png,0,,,,,,,,,,,,,,,,,,,,,,
,,,,,,00098,2023-11-09_14h05.37.399,vbt_B2_day2,2022.2.4,Win32,60.07810153,,,,,,,,,,,,,,,,,,,,,,,,,,,down,0,9.6739,,0.722222222,-0.30277782,1,0,0,0.9489,0,109,109,123,1,hiervan,images/br_hiervan.png,images/cb_hiervan.png,0,,,,,,,,,,,,,,,,,,,,,,
,,,,,,00098,2023-11-09_14h05.37.399,vbt_B2_day2,2022.2.4,Win32,60.07810153,,,,,,,,,,,,,,,,,,,,,,,,,,,down,0,0.4217,,0.722222222,-0.30277782,1,0,0,1.2329,0,110,110,39,1,laag,images/br_laag.png,images/cb_laag.png,0,,,,,,,,,,,,,,,,,,,,,,
,,,,,,00098,2023-11-09_14h05.37.399,vbt_B2_day2,2022.2.4,Win32,60.07810153,,,,,,,,,,,,,,,,,,,,,,,,,,,down,0,4.5346,,0.722222222,-0.30277782,1,0,0,1.1668,0,111,111,57,1,steek,images/br_steek.png,images/cb_steek.png,1,steek,,,,,,,,,,,,,,,,,,,,,
,,,,,,00098,2023-11-09_14h05.37.399,vbt_B2_day2,2022.2.4,Win32,60.07810153,,,,,,,,,,,,,,,,,,,,,,,,,,,down,0,10.0179,,0.722222222,-0.30277782,1,0,0,0.8164,0,112,112,199,1,beseffen,images/br_beseffen.png,images/cb_beseffen.png,0,,,,,,,,,,,,,,,,,,,,,,
,,,,,,00098,2023-11-09_14h05.37.399,vbt_B2_day2,2022.2.4,Win32,60.07810153,,,,,,,,,,,,,,,,,,,,,,,,,,,down,0,1.5547,,0.722222222,-0.30277782,1,0,0,0.7501,0,113,113,5,1,blad,images/br_blad.png,images/cb_blad.png,0,,,,,,,,,,,,,,,,,,,,,,
,,,,,,00098,2023-11-09_14h05.37.399,vbt_B2_day2,2022.2.4,Win32,60.07810153,,,,,,,,,,,,,,,,,,,,,,,,,,,down,0,3.6264,,0.722222222,-0.30277782,1,0,0,1.0336,0,114,114,161,1,attentie,images/br_attentie.png,images/cb_attentie.png,0,,,,,,,,,,,,,,,,,,,,,,
,,,,,,00098,2023-11-09_14h05.37.399,vbt_B2_day2,2022.2.4,Win32,60.07810153,,,,,,,,,,,,,,,,,,,,,,,,,,,down,0,0.4549,,0.722222222,-0.30277782,1,0,0,0.7165,0,115,115,7,1,geld,images/br_geld.png,images/cb_geld.png,0,,,,,,,,,,,,,,,,,,,,,,
,,,,,,00098,2023-11-09_14h05.37.399,vbt_B2_day2,2022.2.4,Win32,60.07810153,,,,,,,,,,,,,,,,,,,,,,,,,,,down,0,2.6523,,0.722222222,-0.30277782,1,0,0,0.9167,0,116,116,93,1,waarop,images/br_waarop.png,images/cb_waarop.png,0,,,,,,,,,,,,,,,,,,,,,,
,,,,,,00098,2023-11-09_14h05.37.399,vbt_B2_day2,2022.2.4,Win32,60.07810153,,,,,,,,,,,,,,,,,,,,,,,,,,,down,0,6.7029,,0.722222222,-0.30277782,1,0,0,0.8395,0,117,117,182,1,bijkomen,images/br_bijkomen.png,images/cb_bijkomen.png,0,,,,,,,,,,,,,,,,,,,,,,
,,,,,,00098,2023-11-09_14h05.37.399,vbt_B2_day2,2022.2.4,Win32,60.07810153,,,,,,,,,,,,,,,,,,,,,,,,,,,down,0,1.16,,0.722222222,-0.30277782,1,0,0,1.2668,0,118,118,132,1,grappen,images/br_grappen.png,images/cb_grappen.png,0,,,,,,,,,,,,,,,,,,,,,,
,,,,,,00098,2023-11-09_14h05.37.399,vbt_B2_day2,2022.2.4,Win32,60.07810153,,,,,,,,,,,,,,,,,,,,,,,,,,,down,0,2.9244,,0.722222222,-0.30277782,1,0,0,0.9836,0,119,119,72,1,strak,images/br_strak.png,images/cb_strak.png,0,,,,,,,,,,,,,,,,,,,,,,
,,,,,,00098,2023-11-09_14h05.37.399,vbt_B2_day2,2022.2.4,Win32,60.07810153,,,,,,,,,,,,,,,,,,,,,,,,,,,down,0,5.7373,,0.722222222,-0.30277782,1,0,0,0.867,0,120,120,16,1,ziek,images/br_ziek.png,images/cb_ziek.png,1,ziek,,,,,,,,,,,,,,,,,,,,,
,,,,,,00098,2023-11-09_14h05.37.399,vbt_B2_day2,2022.2.4,Win32,60.07810153,,,,,,,,,,,,,,,,,,,,,,,,,,,down,0,4.1817,,0.722222222,-0.30277782,1,0,0,0.9496,0,121,121,131,1,opzicht,images/br_opzicht.png,images/cb_opzicht.png,0,,,,,,,,,,,,,,,,,,,,,,
,,,,,,00098,2023-11-09_14h05.37.399,vbt_B2_day2,2022.2.4,Win32,60.07810153,,,,,,,,,,,,,,,,,,,,,,,,,,,down,0,6.199,,0.722222222,-0.30277782,1,0,0,0.9276,0,122,122,176,1,techniek,images/br_techniek.png,images/cb_techniek.png,1,techniek,,,,,,,,,,,,,,,,,,,,,
,,,,,,00098,2023-11-09_14h05.37.399,vbt_B2_day2,2022.2.4,Win32,60.07810153,,,,,,,,,,,,,,,,,,,,,,,,,,,down,0,5.9683,,0.722222222,-0.30277782,1,0,0,0.7831,0,123,123,153,1,vervoer,images/br_vervoer.png,images/cb_vervoer.png,0,,,,,,,,,,,,,,,,,,,,,,
,,,,,,00098,2023-11-09_14h05.37.399,vbt_B2_day2,2022.2.4,Win32,60.07810153,,,,,,,,,,,,,,,,,,,,,,,,,,,down,0,3.6233,,0.722222222,-0.30277782,1,0,0,0.883,0,124,124,163,1,schuilen,images/br_schuilen.png,images/cb_schuilen.png,0,,,,,,,,,,,,,,,,,,,,,,
,,,,,,00098,2023-11-09_14h05.37.399,vbt_B2_day2,2022.2.4,Win32,60.07810153,,,,,,,,,,,,,,,,,,,,,,,,,,,down,0,1.0521,,0.722222222,-0.30277782,1,0,0,0.75,0,125,125,55,1,praat,images/br_praat.png,images/cb_praat.png,0,,,,,,,,,,,,,,,,,,,,,,
,,,,,,00098,2023-11-09_14h05.37.399,vbt_B2_day2,2022.2.4,Win32,60.07810153,,,,,,,,,,,,,,,,,,,,,,,,,,,down,0,0.8874,,0.722222222,-0.30277782,1,0,0,0.8834,0,126,126,35,1,lust,images/br_lust.png,images/cb_lust.png,0,,,,,,,,,,,,,,,,,,,,,,
,,,,,,00098,2023-11-09_14h05.37.399,vbt_B2_day2,2022.2.4,Win32,60.07810153,,,,,,,,,,,,,,,,,,,,,,,,,,,down,0,2.7769,,0.722222222,-0.30277782,1,0,0,0.7667,0,127,127,166,1,strikken,images/br_strikken.png,images/cb_strikken.png,0,,,,,,,,,,,,,,,,,,,,,,
,,,,,,00098,2023-11-09_14h05.37.399,vbt_B2_day2,2022.2.4,Win32,60.07810153,,,,,,,,,,,,,,,,,,,,,,,,,,,down,0,0.8013,,0.722222222,-0.30277782,1,0,0,0.7829,0,128,128,112,1,lukken,images/br_lukken.png,images/cb_lukken.png,0,,,,,,,,,,,,,,,,,,,,,,
,,,,,,00098,2023-11-09_14h05.37.399,vbt_B2_day2,2022.2.4,Win32,60.07810153,,,,,,,,,,,,,,,,,,,,,,,,,,,down,0,4.4707,,0.744444529,-0.333333333,1,0,0,0.716,0,129,129,183,1,getuigen,images/br_getuigen.png,images/cb_getuigen.png,0,,,,,,,,,,,,,,,,,,,,,,
,,,,,,00098,2023-11-09_14h05.37.399,vbt_B2_day2,2022.2.4,Win32,60.07810153,,,,,,,,,,,,,,,,,,,,,,,,,,,down,0,0.8671,,0.744444529,-0.333333333,1,0,0,0.7329,0,130,130,41,1,maken,images/br_maken.png,images/cb_maken.png,0,,,,,,,,,,,,,,,,,,,,,,
,,,,,,00098,2023-11-09_14h05.37.399,vbt_B2_day2,2022.2.4,Win32,60.07810153,,,,,,,,,,,,,,,,,,,,,,,,,,,down,0,5.4099,,0.744444529,-0.333333333,1,0,0,0.6669,0,131,131,65,1,parel,images/br_parel.png,images/cb_parel.png,0,,,,,,,,,,,,,,,,,,,,,,
,,,,,,00098,2023-11-09_14h05.37.399,vbt_B2_day2,2022.2.4,Win32,60.07810153,,,,,,,,,,,,,,,,,,,,,,,,,,,down,0,4.6502,,0.744444529,-0.333333333,1,0,0,0.8501,0,132,132,74,1,graaf,images/br_graaf.png,images/cb_graaf.png,0,,,,,,,,,,,,,,,,,,,,,,
,,,,,,00098,2023-11-09_14h05.37.399,vbt_B2_day2,2022.2.4,Win32,60.07810153,,,,,,,,,,,,,,,,,,,,,,,,,,,down,0,1.1019,,0.744444529,-0.333333333,1,0,0,0.6164,0,133,133,34,1,vorm,images/br_vorm.png,images/cb_vorm.png,0,,,,,,,,,,,,,,,,,,,,,,
,,,,,,00098,2023-11-09_14h05.37.399,vbt_B2_day2,2022.2.4,Win32,60.07810153,,,,,,,,,,,,,,,,,,,,,,,,,,,down,0,9.3024,,0.744444529,-0.333333333,1,0,0,0.7829,0,134,134,185,1,mijnheer,images/br_mijnheer.png,images/cb_mijnheer.png,0,,,,,,,,,,,,,,,,,,,,,,
,,,,,,00098,2023-11-09_14h05.37.399,vbt_B2_day2,2022.2.4,Win32,60.07810153,,,,,,,,,,,,,,,,,,,,,,,,,,,down,0,0.4687,,0.744444529,-0.333333333,1,0,0,0.6996,0,135,135,0,1,slak,images/br_slak.png,images/cb_slak.png,0,,,,,,,,,,,,,,,,,,,,,,
,,,,,,00098,2023-11-09_14h05.37.399,vbt_B2_day2,2022.2.4,Win32,60.07810153,,,,,,,,,,,,,,,,,,,,,,,,,,,down,0,3.1328,,0.74537037,-0.334259245,1,0,0,0.9833,0,136,136,188,1,strekken,images/br_strekken.png,images/cb_strekken.png,0,,,,,,,,,,,,,,,,,,,,,,
,,,,,,00098,2023-11-09_14h05.37.399,vbt_B2_day2,2022.2.4,Win32,60.07810153,,,,,,,,,,,,,,,,,,,,,,,,,,,down,0,3.6445,,0.74537037,-0.334259245,1,0,0,0.6828,0,137,137,53,1,baron,images/br_baron.png,images/cb_baron.png,0,,,,,,,,,,,,,,,,,,,,,,
,,,,,,00098,2023-11-09_14h05.37.399,vbt_B2_day2,2022.2.4,Win32,60.07810153,,,,,,,,,,,,,,,,,,,,,,,,,,,down,0,3.3183,,0.74537037,-0.334259245,1,0,0,0.7835,0,138,138,92,1,geheim,images/br_geheim.png,images/cb_geheim.png,0,,,,,,,,,,,,,,,,,,,,,,
,,,,,,00098,2023-11-09_14h05.37.399,vbt_B2_day2,2022.2.4,Win32,60.07810153,,,,,,,,,,,,,,,,,,,,,,,,,,,down,0,1.7566,,0.757407436,-0.337037051,1,0,0,0.7166,0,139,139,144,1,eetlust,images/br_eetlust.png,images/cb_eetlust.png,0,,,,,,,,,,,,,,,,,,,,,,
,,,,,,00098,2023-11-09_14h05.37.399,vbt_B2_day2,2022.2.4,Win32,60.07810153,,,,,,,,,,,,,,,,,,,,,,,,,,,down,0,4.4183,,0.757407436,-0.337037051,1,0,0,0.6834,0,140,140,26,1,leuk,images/br_leuk.png,images/cb_leuk.png,0,,,,,,,,,,,,,,,,,,,,,,
,,,,,,00098,2023-11-09_14h05.37.399,vbt_B2_day2,2022.2.4,Win32,60.07810153,,,,,,,,,,,,,,,,,,,,,,,,,,,down,0,1.1854,,0.757407436,-0.337037051,1,0,0,0.7504,0,141,141,95,1,vreten,images/br_vreten.png,images/cb_vreten.png,0,,,,,,,,,,,,,,,,,,,,,,
,,,,,,00098,2023-11-09_14h05.37.399,vbt_B2_day2,2022.2.4,Win32,60.07810153,,,,,,,,,,,,,,,,,,,,,,,,,,,down,0,6.777,,0.757407436,-0.337037051,1,0,0,0.766,0,142,142,179,1,woestijn,images/br_woestijn.png,images/cb_woestijn.png,1,woestijn,,,,,,,,,,,,,,,,,,,,,
,,,,,,00098,2023-11-09_14h05.37.399,vbt_B2_day2,2022.2.4,Win32,60.07810153,,,,,,,,,,,,,,,,,,,,,,,,,,,down,0,8.0165,,0.757407436,-0.337037051,1,0,0,1.577,0,143,143,152,1,afnemen,images/br_afnemen.png,images/cb_afnemen.png,0,,,,,,,,,,,,,,,,,,,,,,
,,,,,,00098,2023-11-09_14h05.37.399,vbt_B2_day2,2022.2.4,Win32,60.07810153,,,,,,,,,,,,,,,,,,,,,,,,,,,down,0,5.0334,,0.757407436,-0.337037051,1,0,0,0.8334,0,144,144,140,1,blijven,images/br_blijven.png,images/cb_blijven.png,0,,,,,,,,,,,,,,,,,,,,,,
,,,,,,00098,2023-11-09_14h05.37.399,vbt_B2_day2,2022.2.4,Win32,60.07810153,,,,,,,,,,,,,,,,,,,,,,,,,,,down,0,6.5686,,0.764814871,-0.337037051,1,0,0,0.8835,0,145,145,154,1,aflopen,images/br_aflopen.png,images/cb_aflopen.png,0,,,,,,,,,,,,,,,,,,,,,,
,,,,,,00098,2023-11-09_14h05.37.399,vbt_B2_day2,2022.2.4,Win32,60.07810153,,,,,,,,,,,,,,,,,,,,,,,,,,,down,0,0.8842,,0.773148148,-0.337037051,1,0,0,0.9999,0,146,146,48,1,steel,images/br_steel.png,images/cb_steel.png,0,,,,,,,,,,,,,,,,,,,,,,
,,,,,,00098,2023-11-09_14h05.37.399,vbt_B2_day2,2022.2.4,Win32,60.07810153,,,,,,,,,,,,,,,,,,,,,,,,,,,down,0,7.5685,,0.776851937,-0.338888875,1,0,0,1.2175,0,147,147,147,1,komisch,images/br_komisch.png,images/cb_komisch.png,0,,,,,,,,,,,,,,,,,,,,,,
,,,,,,00098,2023-11-09_14h05.37.399,vbt_B2_day2,2022.2.4,Win32,60.07810153,,,,,,,,,,,,,,,,,,,,,,,,,,,down,0,12.7159,,0.838888945,-0.407407407,1,0,0,0.7,0,148,148,165,1,feestdag,images/br_feestdag.png,images/cb_feestdag.png,0,,,,,,,,,,,,,,,,,,,,,,
,,,,,,00098,2023-11-09_14h05.37.399,vbt_B2_day2,2022.2.4,Win32,60.07810153,,,,,,,,,,,,,,,,,,,,,,,,,,,down,0,4.003,,0.838888945,-0.407407407,1,0,0,0.5999,0,149,149,52,1,wagon,images/br_wagon.png,images/cb_wagon.png,0,,,,,,,,,,,,,,,,,,,,,,
,,,,,,00098,2023-11-09_14h05.37.399,vbt_B2_day2,2022.2.4,Win32,60.07810153,,,,,,,,,,,,,,,,,,,,,,,,,,,down,0,2.4183,,0.887963048,-0.499074088,1,0,0,2.4498,0,150,150,106,1,zingen,images/br_zingen.png,images/cb_zingen.png,0,,,,,,,,,,,,,,,,,,,,,,
,,,,,,00098,2023-11-09_14h05.37.399,vbt_B2_day2,2022.2.4,Win32,60.07810153,,,,,,,,,,,,,,,,,,,,,,,,,,,down,0,3.167,,0.887963048,-0.499074088,1,0,0,0.7166,0,151,151,160,1,daarheen,images/br_daarheen.png,images/cb_daarheen.png,0,,,,,,,,,,,,,,,,,,,,,,
,,,,,,00098,2023-11-09_14h05.37.399,vbt_B2_day2,2022.2.4,Win32,60.07810153,,,,,,,,,,,,,,,,,,,,,,,,,,,down,0,2.9502,,0.887963048,-0.499074088,1,0,0,0.7829,0,152,152,156,1,rechten,images/br_rechten.png,images/cb_rechten.png,0,,,,,,,,,,,,,,,,,,,,,,
,,,,,,00098,2023-11-09_14h05.37.399,vbt_B2_day2,2022.2.4,Win32,60.07810153,,,,,,,,,,,,,,,,,,,,,,,,,,,down,0,2.1012,,0.887963048,-0.499074088,1,0,0,0.6493,0,153,153,32,1,palm,images/br_palm.png,images/cb_palm.png,0,,,,,,,,,,,,,,,,,,,,,,
,,,,,,00098,2023-11-09_14h05.37.399,vbt_B2_day2,2022.2.4,Win32,60.07810153,,,,,,,,,,,,,,,,,,,,,,,,,,,down,0,4.8728,,0.887963048,-0.499074088,1,0,0,0.9001,0,154,154,137,1,trekker,images/br_trekker.png,images/cb_trekker.png,1,trekker,,,,,,,,,,,,,,,,,,,,,
,,,,,,00098,2023-11-09_14h05.37.399,vbt_B2_day2,2022.2.4,Win32,60.07810153,,,,,,,,,,,,,,,,,,,,,,,,,,,down,0,4.418,,0.887963048,-0.499074088,1,0,0,0.8499,0,155,155,67,1,zwart,images/br_zwart.png,images/cb_zwart.png,0,,,,,,,,,,,,,,,,,,,,,,
,,,,,,00098,2023-11-09_14h05.37.399,vbt_B2_day2,2022.2.4,Win32,60.07810153,,,,,,,,,,,,,,,,,,,,,,,,,,,down,0,3.2752,,0.887963048,-0.499074088,1,0,0,0.85,0,156,156,21,1,mist,images/br_mist.png,images/cb_mist.png,0,,,,,,,,,,,,,,,,,,,,,,
,,,,,,00098,2023-11-09_14h05.37.399,vbt_B2_day2,2022.2.4,Win32,60.07810153,,,,,,,,,,,,,,,,,,,,,,,,,,,down,0,7.5364,,0.887963048,-0.499074088,1,0,0,0.7498,0,157,157,103,1,joggen,images/br_joggen.png,images/cb_joggen.png,0,,,,,,,,,,,,,,,,,,,,,,
,,,,,,00098,2023-11-09_14h05.37.399,vbt_B2_day2,2022.2.4,Win32,60.07810153,,,,,,,,,,,,,,,,,,,,,,,,,,,down,0,2.967,,0.887963048,-0.499074088,1,0,0,0.7997,0,158,158,191,1,opheffen,images/br_opheffen.png,images/cb_opheffen.png,0,,,,,,,,,,,,,,,,,,,,,,
,,,,,,00098,2023-11-09_14h05.37.399,vbt_B2_day2,2022.2.4,Win32,60.07810153,,,,,,,,,,,,,,,,,,,,,,,,,,,down,0,0.452,,0.887963048,-0.499074088,1,0,0,0.7498,0,159,159,29,1,baas,images/br_baas.png,images/cb_baas.png,0,,,,,,,,,,,,,,,,,,,,,,
,,,,,,00098,2023-11-09_14h05.37.399,vbt_B2_day2,2022.2.4,Win32,60.07810153,,,,,,,,,,,,,,,,,,,,,,,,,,,down,0,2.4507,,0.887963048,-0.499074088,1,0,0,1.0666,0,160,160,83,1,mening,images/br_mening.png,images/cb_mening.png,0,,,,,,,,,,,,,,,,,,,,,,
,,,,,,00098,2023-11-09_14h05.37.399,vbt_B2_day2,2022.2.4,Win32,60.07810153,,,,,,,,,,,,,,,,,,,,,,,,,,,down,0,2.0016,,0.887963048,-0.499074088,1,0,0,0.6829,0,161,161,61,1,groen,images/br_groen.png,images/cb_groen.png,0,,,,,,,,,,,,,,,,,,,,,,
,,,,,,00098,2023-11-09_14h05.37.399,vbt_B2_day2,2022.2.4,Win32,60.07810153,,,,,,,,,,,,,,,,,,,,,,,,,,,down,0,4.3522,,0.887963048,-0.499074088,1,0,0,0.8328,0,162,162,190,1,goedkoop,images/br_goedkoop.png,images/cb_goedkoop.png,0,,,,,,,,,,,,,,,,,,,,,,
,,,,,,00098,2023-11-09_14h05.37.399,vbt_B2_day2,2022.2.4,Win32,60.07810153,,,,,,,,,,,,,,,,,,,,,,,,,,,down,0,1.542,,0.887963048,-0.499074088,1,0,0,0.7996,0,163,163,114,1,vullen,images/br_vullen.png,images/cb_vullen.png,0,,,,,,,,,,,,,,,,,,,,,,
,,,,,,00098,2023-11-09_14h05.37.399,vbt_B2_day2,2022.2.4,Win32,60.07810153,,,,,,,,,,,,,,,,,,,,,,,,,,,down,0,13.2242,,0.887963048,-0.499074088,1,0,0,0.9159,0,164,164,63,1,flirt,images/br_flirt.png,images/cb_flirt.png,0,,,,,,,,,,,,,,,,,,,,,,
,,,,,,00098,2023-11-09_14h05.37.399,vbt_B2_day2,2022.2.4,Win32,60.07810153,,,,,,,,,,,,,,,,,,,,,,,,,,,down,0,5.4213,,0.887963048,-0.499074088,1,0,0,0.8997,0,165,165,145,1,invloed,images/br_invloed.png,images/cb_invloed.png,0,,,,,,,,,,,,,,,,,,,,,,
,,,,,,00098,2023-11-09_14h05.37.399,vbt_B2_day2,2022.2.4,Win32,60.07810153,,,,,,,,,,,,,,,,,,,,,,,,,,,down,0,1.8419,,0.887963048,-0.499074088,1,0,0,0.7501,0,166,166,23,1,zout,images/br_zout.png,images/cb_zout.png,0,,,,,,,,,,,,,,,,,,,,,,
,,,,,,00098,2023-11-09_14h05.37.399,vbt_B2_day2,2022.2.4,Win32,60.07810153,,,,,,,,,,,,,,,,,,,,,,,,,,,down,0,2.6754,,0.887963048,-0.499074088,1,0,0,0.7664,0,167,167,189,1,aanraden,images/br_aanraden.png,images/cb_aanraden.png,0,,,,,,,,,,,,,,,,,,,,,,
,,,,,,00098,2023-11-09_14h05.37.399,vbt_B2_day2,2022.2.4,Win32,60.07810153,,,,,,,,,,,,,,,,,,,,,,,,,,,down,0,4.1056,,0.887963048,-0.499074088,1,0,0,0.8004,0,168,168,168,1,bisschop,images/br_bisschop.png,images/cb_bisschop.png,0,,,,,,,,,,,,,,,,,,,,,,
,,,,,,00098,2023-11-09_14h05.37.399,vbt_B2_day2,2022.2.4,Win32,60.07810153,,,,,,,,,,,,,,,,,,,,,,,,,,,down,0,2.2885,,0.887963048,-0.499074088,1,0,0,0.6839,0,169,169,135,1,gedicht,images/br_gedicht.png,images/cb_gedicht.png,0,,,,,,,,,,,,,,,,,,,,,,
,,,,,,00098,2023-11-09_14h05.37.399,vbt_B2_day2,2022.2.4,Win32,60.07810153,,,,,,,,,,,,,,,,,,,,,,,,,,,down,0,5.72,,0.887963048,-0.499074088,1,0,0,0.8162,0,170,170,136,1,waarbij,images/br_waarbij.png,images/cb_waarbij.png,1,waarbij,,,,,,,,,,,,,,,,,,,,,
,,,,,,00098,2023-11-09_14h05.37.399,vbt_B2_day2,2022.2.4,Win32,60.07810153,,,,,,,,,,,,,,,,,,,,,,,,,,,down,0,2.8522,,0.887963048,-0.499074088,1,0,0,0.7666,0,171,171,51,1,samen,images/br_samen.png,images/cb_samen.png,0,,,,,,,,,,,,,,,,,,,,,,
,,,,,,00098,2023-11-09_14h05.37.399,vbt_B2_day2,2022.2.4,Win32,60.07810153,,,,,,,,,,,,,,,,,,,,,,,,,,,down,0,12.6099,,0.887963048,-0.499074088,1,0,0,0.7997,0,172,172,70,1,ijdel,images/br_ijdel.png,images/cb_ijdel.png,0,,,,,,,,,,,,,,,,,,,,,,
,,,,,,00098,2023-11-09_14h05.37.399,vbt_B2_day2,2022.2.4,Win32,60.07810153,,,,,,,,,,,,,,,,,,,,,,,,,,,down,0,5.7671,,0.887963048,-0.499074088,1,0,0,0.7999,0,173,173,98,1,kreeft,images/br_kreeft.png,images/cb_kreeft.png,1,kreeft,,,,,,,,,,,,,,,,,,,,,
,,,,,,00098,2023-11-09_14h05.37.399,vbt_B2_day2,2022.2.4,Win32,60.07810153,,,,,,,,,,,,,,,,,,,,,,,,,,,down,0,3.31,,0.887963048,-0.499074088,1,0,0,0.783,0,174,174,198,1,bedoelen,images/br_bedoelen.png,images/cb_bedoelen.png,0,,,,,,,,,,,,,,,,,,,,,,
,,,,,,00098,2023-11-09_14h05.37.399,vbt_B2_day2,2022.2.4,Win32,60.07810153,,,,,,,,,,,,,,,,,,,,,,,,,,,down,0,1.4059,,0.887963048,-0.499074088,1,0,0,1.0332,0,175,175,45,1,piste,images/br_piste.png,images/cb_piste.png,0,,,,,,,,,,,,,,,,,,,,,,
,,,,,,00098,2023-11-09_14h05.37.399,vbt_B2_day2,2022.2.4,Win32,60.07810153,,,,,,,,,,,,,,,,,,,,,,,,,,,down,0,5.9751,,0.887963048,-0.499074088,1,0,0,1.6331,0,176,176,85,1,heilig,images/br_heilig.png,images/cb_heilig.png,0,,,,,,,,,,,,,,,,,,,,,,
,,,,,,00098,2023-11-09_14h05.37.399,vbt_B2_day2,2022.2.4,Win32,60.07810153,,,,,,,,,,,,,,,,,,,,,,,,,,,down,0,1.8026,,0.887963048,-0.499074088,1,0,0,0.6495,0,177,177,171,1,aarzelen,images/br_aarzelen.png,images/cb_aarzelen.png,0,,,,,,,,,,,,,,,,,,,,,,
,,,,,,00098,2023-11-09_14h05.37.399,vbt_B2_day2,2022.2.4,Win32,60.07810153,,,,,,,,,,,,,,,,,,,,,,,,,,,down,0,1.0366,,0.887963048,-0.499074088,1,0,0,0.7334,0,178,178,89,1,slapen,images/br_slapen.png,images/cb_slapen.png,0,,,,,,,,,,,,,,,,,,,,,,
,,,,,,00098,2023-11-09_14h05.37.399,vbt_B2_day2,2022.2.4,Win32,60.07810153,,,,,,,,,,,,,,,,,,,,,,,,,,,down,0,2.5717,,0.887963048,-0.499074088,1,0,0,0.8827,0,179,179,36,1,vuur,images/br_vuur.png,images/cb_vuur.png,0,,,,,,,,,,,,,,,,,,,,,,
,,,,,,00098,2023-11-09_14h05.37.399,vbt_B2_day2,2022.2.4,Win32,60.07810153,,,,,,,,,,,,,,,,,,,,,,,,,,,down,0,4.95,,0.887963048,-0.499074088,1,0,0,0.8333,0,180,180,80,1,kanjer,images/br_kanjer.png,images/cb_kanjer.png,0,,,,,,,,,,,,,,,,,,,,,,
,,,,,,00098,2023-11-09_14h05.37.399,vbt_B2_day2,2022.2.4,Win32,60.07810153,,,,,,,,,,,,,,,,,,,,,,,,,,,down,0,0.6142,,0.887963048,-0.499074088,1,0,0,0.7332,0,181,181,84,1,lokken,images/br_lokken.png,images/cb_lokken.png,0,,,,,,,,,,,,,,,,,,,,,,
,,,,,,00098,2023-11-09_14h05.37.399,vbt_B2_day2,2022.2.4,Win32,60.07810153,,,,,,,,,,,,,,,,,,,,,,,,,,,down,0,1.7711,,0.887963048,-0.499074088,1,0,0,0.6666,0,182,182,68,1,schat,images/br_schat.png,images/cb_schat.png,0,,,,,,,,,,,,,,,,,,,,,,
,,,,,,00098,2023-11-09_14h05.37.399,vbt_B2_day2,2022.2.4,Win32,60.07810153,,,,,,,,,,,,,,,,,,,,,,,,,,,down,0,3.0676,,0.887963048,-0.499074088,1,0,0,0.9335,0,183,183,18,1,blik,images/br_blik.png,images/cb_blik.png,1,blik,,,,,,,,,,,,,,,,,,,,,
,,,,,,00098,2023-11-09_14h05.37.399,vbt_B2_day2,2022.2.4,Win32,60.07810153,,,,,,,,,,,,,,,,,,,,,,,,,,,down,0,5.4804,,0.887963048,-0.499074088,1,0,0,0.7668,0,184,184,158,1,innemen,images/br_innemen.png,images/cb_innemen.png,0,,,,,,,,,,,,,,,,,,,,,,
,,,,,,00098,2023-11-09_14h05.37.399,vbt_B2_day2,2022.2.4,Win32,60.07810153,,,,,,,,,,,,,,,,,,,,,,,,,,,down,0,5.3344,,0.887963048,-0.499074088,1,0,0,0.7662,0,185,185,22,1,stof,images/br_stof.png,images/cb_stof.png,0,,,,,,,,,,,,,,,,,,,,,,
,,,,,,00098,2023-11-09_14h05.37.399,vbt_B2_day2,2022.2.4,Win32,60.07810153,,,,,,,,,,,,,,,,,,,,,,,,,,,down,0,0.2039,,0.887963048,-0.499074088,1,0,0,1.2993,0,186,186,13,1,kaal,images/br_kaal.png,images/cb_kaal.png,0,,,,,,,,,,,,,,,,,,,,,,
,,,,,,00098,2023-11-09_14h05.37.399,vbt_B2_day2,2022.2.4,Win32,60.07810153,,,,,,,,,,,,,,,,,,,,,,,,,,,down,0,1.4076,,0.887963048,-0.499074088,1,0,0,0.9332,0,187,187,115,1,kleren,images/br_kleren.png,images/cb_kleren.png,0,,,,,,,,,,,,,,,,,,,,,,
,,,,,,00098,2023-11-09_14h05.37.399,vbt_B2_day2,2022.2.4,Win32,60.07810153,,,,,,,,,,,,,,,,,,,,,,,,,,,down,0,4.7699,,0.594444416,-0.270370413,1,0,0,1.0663,0,188,188,162,1,uitdelen,images/br_uitdelen.png,images/cb_uitdelen.png,0,,,,,,,,,,,,,,,,,,,,,,
,,,,,,00098,2023-11-09_14h05.37.399,vbt_B2_day2,2022.2.4,Win32,60.07810153,,,,,,,,,,,,,,,,,,,,,,,,,,,down,0,2.3569,,0.594444416,-0.270370413,1,0,0,1.4663,0,189,189,96,1,slagen,images/br_slagen.png,images/cb_slagen.png,1,slagen,,,,,,,,,,,,,,,,,,,,,
,,,,,,00098,2023-11-09_14h05.37.399,vbt_B2_day2,2022.2.4,Win32,60.07810153,,,,,,,,,,,,,,,,,,,,,,,,,,,down,0,6.3009,,0.598148205,-0.270370413,1,0,0,0.9997,0,190,190,99,1,koffie,images/br_koffie.png,images/cb_koffie.png,1,,,,,,,,,,,,,,,,,,,,,,
,,,,,,00098,2023-11-09_14h05.37.399,vbt_B2_day2,2022.2.4,Win32,60.07810153,,,,,,,,,,,,,,,,,,,,,,,,,,,down,0,7.2556,,0.622222194,-0.266666695,1,0,0,0.9672,0,191,191,177,1,maaltijd,images/br_maaltijd.png,images/cb_maaltijd.png,1,maaltijd,,,,,,,,,,,,,,,,,,,,,
,,,,,,00098,2023-11-09_14h05.37.399,vbt_B2_day2,2022.2.4,Win32,60.07810153,,,,,,,,,,,,,,,,,,,,,,,,,,,down,0,2.5324,,0.622222194,-0.266666695,1,0,0,0.8339,0,192,192,62,1,knaap,images/br_knaap.png,images/cb_knaap.png,0,,,,,,,,,,,,,,,,,,,,,,
,,,,,,00098,2023-11-09_14h05.37.399,vbt_B2_day2,2022.2.4,Win32,60.07810153,,,,,,,,,,,,,,,,,,,,,,,,,,,down,0,6.3698,,0.622222194,-0.266666695,1,0,0,3.9661,0,193,193,110,1,zuster,images/br_zuster.png,images/cb_zuster.png,0,,,,,,,,,,,,,,,,,,,,,,
,,,,,,00098,2023-11-09_14h05.37.399,vbt_B2_day2,2022.2.4,Win32,60.07810153,,,,,,,,,,,,,,,,,,,,,,,,,,,down,0,2.6035,,0.622222194,-0.266666695,1,0,0,1.0996,0,194,194,75,1,snoep,images/br_snoep.png,images/cb_snoep.png,0,,,,,,,,,,,,,,,,,,,,,,
,,,,,,00098,2023-11-09_14h05.37.399,vbt_B2_day2,2022.2.4,Win32,60.07810153,,,,,,,,,,,,,,,,,,,,,,,,,,,down,0,6.1231,,0.622222194,-0.266666695,1,0,0,0.8331,0,195,195,124,1,bloeien,images/br_bloeien.png,images/cb_bloeien.png,0,,,,,,,,,,,,,,,,,,,,,,
,,,,,,00098,2023-11-09_14h05.37.399,vbt_B2_day2,2022.2.4,Win32,60.07810153,,,,,,,,,,,,,,,,,,,,,,,,,,,down,0,5.7416,,0.622222194,-0.266666695,1,0,0,0.8991,0,196,196,49,1,laken,images/br_laken.png,images/cb_laken.png,0,,,,,,,,,,,,,,,,,,,,,,
,,,,,,00098,2023-11-09_14h05.37.399,vbt_B2_day2,2022.2.4,Win32,60.07810153,,,,,,,,,,,,,,,,,,,,,,,,,,,down,0,3.0086,,0.622222194,-0.266666695,1,0,0,1.5334,0,197,197,87,1,toeval,images/br_toeval.png,images/cb_toeval.png,0,,,,,,,,,,,,,,,,,,,,,,
,,,,,,00098,2023-11-09_14h05.37.399,vbt_B2_day2,2022.2.4,Win32,60.07810153,,,,,,,,,,,,,,,,,,,,,,,,,,,down,0,4.9801,,0.622222194,-0.266666695,1,0,0,0.8665,0,198,198,116,1,besmet,images/br_besmet.png,images/cb_besmet.png,0,,,,,,,,,,,,,,,,,,,,,,
,,,,,,00098,2023-11-09_14h05.37.399,vbt_B2_day2,2022.2.4,Win32,60.07810153,,,,,,,,,,,,,,,,,,,,,,,,,,,down,0,1.9007,,0.622222194,-0.266666695,1,0,0,0.733,0,199,199,31,1,poes,images/br_poes.png,images/cb_poes.png,0,,,,,,,,,,,,,,,,,,,,,,
,,,,,,00098,2023-11-09_14h05.37.399,vbt_B2_day2,2022.2.4,Win32,60.07810153,,,,,,,,,,,,,,,,,,,,,,,,,,,,,,,,,,,,,,,,,,,,,,,0.161111125,-0.073148162,1,0,0,,,,,,,,,,,,,,,,
,,,,,,00098,2023-11-09_14h05.37.399,vbt_B2_day2,2022.2.4,Win32,60.07810153,,,,,,,,,,,,,,,,,,,,,,,,,,,,,,,,,,,,,,,,,,,,,,,,,,,,0.415740826,-0.161111125,1,0,0,,,,,,,,,,,
,,,,,,00098,2023-11-09_14h05.37.399,vbt_B2_day2,2022.2.4,Win32,60.07810153,,,,,,,,,,,,,,,,,,,,,,,,,,,,,,,,,,,,,,,,,,kasteel,images/br_kasteel.png,images/cb_kasteel.png,,kasteel,,,,,,,,,,,0.415740826,-0.161111125,1,0,0,kasteel,0,0,0,14,1
,,,,,,00098,2023-11-09_14h05.37.399,vbt_B2_day2,2022.2.4,Win32,60.07810153,,,,,,,,,,,,,,,,,,,,,,,,,,,,,,,,,,,,,,,,,,zegel,images/br_zegel.png,images/cb_zegel.png,,zegel,,,,,,,,,,,0.415740826,-0.161111125,1,0,0,zegel,0,1,1,46,1
,,,,,,00098,2023-11-09_14h05.37.399,vbt_B2_day2,2022.2.4,Win32,60.07810153,,,,,,,,,,,,,,,,,,,,,,,,,,,,,,,,,,,,,,,,,,goon,images/br_goon.png,images/cb_goon.png,,goon,,,,,,,,,,,0.248148176,0.002777771,1,0,0,goon,0,2,2,23,1
,,,,,,00098,2023-11-09_14h05.37.399,vbt_B2_day2,2022.2.4,Win32,60.07810153,,,,,,,,,,,,,,,,,,,,,,,,,,,,,,,,,,,,,,,,,,flits,images/br_flits.png,images/cb_flits.png,,flits,,,,,,,,,,,0.248148176,0.002777771,1,0,0,flits,0,3,3,4,1
,,,,,,00098,2023-11-09_14h05.37.399,vbt_B2_day2,2022.2.4,Win32,60.07810153,,,,,,,,,,,,,,,,,,,,,,,,,,,,,,,,,,,,,,,,,,bereuwen,images/br_bereuwen.png,images/cb_bereuwen.png,,beweren,,,,,,,,,,,0.248148176,0.002777771,1,0,0,beweren,0,4,4,39,1
,,,,,,00098,2023-11-09_14h05.37.399,vbt_B2_day2,2022.2.4,Win32,60.07810153,,,,,,,,,,,,,,,,,,,,,,,,,,,,,,,,,,,,,,,,,,agressie,images/br_agressie.png,images/cb_agressie.png,,attentie,,,,,,,,,,,0.248148176,0.002777771,1,0,0,attentie,0,5,5,59,1
,,,,,,00098,2023-11-09_14h05.37.399,vbt_B2_day2,2022.2.4,Win32,60.07810153,,,,,,,,,,,,,,,,,,,,,,,,,,,,,,,,,,,,,,,,,,manieren,images/br_manieren.png,images/cb_manieren.png,,manieren,,,,,,,,,,,0.250925912,0.0074074,1,0,0,manieren,0,6,6,56,1
,,,,,,00098,2023-11-09_14h05.37.399,vbt_B2_day2,2022.2.4,Win32,60.07810153,,,,,,,,,,,,,,,,,,,,,,,,,,,,,,,,,,,,,,,,,,blad,images/br_blad.png,images/cb_blad.png,,blad,,,,,,,,,,,0.250925912,0.0074074,1,0,0,blad,0,7,7,1,1
,,,,,,00098,2023-11-09_14h05.37.399,vbt_B2_day2,2022.2.4,Win32,60.07810153,,,,,,,,,,,,,,,,,,,,,,,,,,,,,,,,,,,,,,,,,,aanzien,images/br_aanzien.png,images/cb_aanzien.png,,aanzien,,,,,,,,,,,0.17777782,-0.279629672,1,0,0,aanzien,0,8,8,13,1
,,,,,,00098,2023-11-09_14h05.37.399,vbt_B2_day2,2022.2.4,Win32,60.07810153,,,,,,,,,,,,,,,,,,,,,,,,,,,,,,,,,,,,,,,,,,joes,images/br_joes.png,images/cb_joes.png,,joes,,,,,,,,,,,0.330555527,-0.228703746,1,0,0,joes,0,9,9,20,1
,,,,,,00098,2023-11-09_14h05.37.399,vbt_B2_day2,2022.2.4,Win32,60.07810153,,,,,,,,,,,,,,,,,,,,,,,,,,,,,,,,,,,,,,,,,,bloeien,images/br_bloeien.png,images/cb_bloeien.png,,bloeien,,,,,,,,,,,0.330555527,-0.228703746,1,0,0,bloeien,0,10,10,12,1
,,,,,,00098,2023-11-09_14h05.37.399,vbt_B2_day2,2022.2.4,Win32,60.07810153,,,,,,,,,,,,,,,,,,,,,,,,,,,,,,,,,,,,,,,,,,remel,images/br_remel.png,images/cb_remel.png,,remel,,,,,,,,,,,0.330555527,-0.228703746,1,0,0,remel,0,11,11,25,1
,,,,,,00098,2023-11-09_14h05.37.399,vbt_B2_day2,2022.2.4,Win32,60.07810153,,,,,,,,,,,,,,,,,,,,,,,,,,,,,,,,,,,,,,,,,,badon,images/br_badon.png,images/cb_badon.png,,badon,,,,,,,,,,,0.33148151,-0.228703746,1,0,0,badon,0,12,12,26,1
,,,,,,00098,2023-11-09_14h05.37.399,vbt_B2_day2,2022.2.4,Win32,60.07810153,,,,,,,,,,,,,,,,,,,,,,,,,,,,,,,,,,,,,,,,,,tand,images/br_tand.png,images/cb_tand.png,,tand,,,,,,,,,,,0.33148151,-0.228703746,1,0,0,tand,0,13,13,42,1
,,,,,,00098,2023-11-09_14h05.37.399,vbt_B2_day2,2022.2.4,Win32,60.07810153,,,,,,,,,,,,,,,,,,,,,,,,,,,,,,,,,,,,,,,,,,negel,images/br_negel.png,images/cb_negel.png,,negel,,,,,,,,,,,0.33148151,-0.228703746,1,0,0,negel,0,14,14,24,1
,,,,,,00098,2023-11-09_14h05.37.399,vbt_B2_day2,2022.2.4,Win32,60.07810153,,,,,,,,,,,,,,,,,,,,,,,,,,,,,,,,,,,,,,,,,,tweeling,images/br_tweeling.png,images/cb_tweeling.png,,tweeling,,,,,,,,,,,0.33148151,-0.228703746,1,0,0,tweeling,0,15,15,58,1
,,,,,,00098,2023-11-09_14h05.37.399,vbt_B2_day2,2022.2.4,Win32,60.07810153,,,,,,,,,,,,,,,,,,,,,,,,,,,,,,,,,,,,,,,,,,systeem,images/br_systeem.png,images/cb_systeem.png,,systeem,,,,,,,,,,,0.33148151,-0.228703746,1,0,0,systeem,0,16,16,54,1
,,,,,,00098,2023-11-09_14h05.37.399,vbt_B2_day2,2022.2.4,Win32,60.07810153,,,,,,,,,,,,,,,,,,,,,,,,,,,,,,,,,,,,,,,,,,aanvraag,images/br_aanvraag.png,images/cb_aanvraag.png,,aan.raag,,,,,,,,,,,0.54351849,-0.336111139,1,0,0,aan.raag,0,17,17,57,1
,,,,,,00098,2023-11-09_14h05.37.399,vbt_B2_day2,2022.2.4,Win32,60.07810153,,,,,,,,,,,,,,,,,,,,,,,,,,,,,,,,,,,,,,,,,,sjijfel,images/br_sjijfel.png,images/cb_sjijfel.png,,schedel,,,,,,,,,,,0.579629686,-0.291666667,1,0,0,schedel,0,18,18,33,1
,,,,,,00098,2023-11-09_14h05.37.399,vbt_B2_day2,2022.2.4,Win32,60.07810153,,,,,,,,,,,,,,,,,,,,,,,,,,,,,,,,,,,,,,,,,,zomers,images/br_zomers.png,images/cb_zomers.png,,zomers,,,,,,,,,,,0.564814815,-0.287037037,1,0,0,zomers,0,19,19,48,1
,,,,,,00098,2023-11-09_14h05.37.399,vbt_B2_day2,2022.2.4,Win32,60.07810153,,,,,,,,,,,,,,,,,,,,,,,,,,,,,,,,,,,,,,,,,,prekken,images/br_prekken.png,images/cb_prekken.png,,prekken,,,,,,,,,,,0.564814815,-0.287037037,1,0,0,prekken,0,20,20,34,1
,,,,,,00098,2023-11-09_14h05.37.399,vbt_B2_day2,2022.2.4,Win32,60.07810153,,,,,,,,,,,,,,,,,,,,,,,,,,,,,,,,,,,,,,,,,,opdatten,images/br_opdatten.png,images/cb_opdatten.png,,opdatten,,,,,,,,,,,0.564814815,-0.287037037,1,0,0,opdatten,0,21,21,37,1
,,,,,,00098,2023-11-09_14h05.37.399,vbt_B2_day2,2022.2.4,Win32,60.07810153,,,,,,,,,,,,,,,,,,,,,,,,,,,,,,,,,,,,,,,,,,toeval,images/br_toeval.png,images/cb_toeval.png,,toeval,,,,,,,,,,,0.564814815,-0.292592578,1,0,0,toeval,0,22,22,11,1
,,,,,,00098,2023-11-09_14h05.37.399,vbt_B2_day2,2022.2.4,Win32,60.07810153,,,,,,,,,,,,,,,,,,,,,,,,,,,,,,,,,,,,,,,,,,plannen,images/br_plannen.png,images/cb_plannen.png,,plannen,,,,,,,,,,,0.564814815,-0.292592578,1,0,0,plannen,0,23,23,55,1
,,,,,,00098,2023-11-09_14h05.37.399,vbt_B2_day2,2022.2.4,Win32,60.07810153,,,,,,,,,,,,,,,,,,,,,,,,,,,,,,,,,,,,,,,,,,geld,images/br_geld.png,images/cb_geld.png,,geld,,,,,,,,,,,0.563888974,-0.292592578,1,0,0,geld,0,24,24,3,1
,,,,,,00098,2023-11-09_14h05.37.399,vbt_B2_day2,2022.2.4,Win32,60.07810153,,,,,,,,,,,,,,,,,,,,,,,,,,,,,,,,,,,,,,,,,,sora,images/br_sora.png,images/cb_sora.png,,sora,,,,,,,,,,,0.563888974,-0.292592578,1,0,0,sora,0,25,25,22,1
,,,,,,00098,2023-11-09_14h05.37.399,vbt_B2_day2,2022.2.4,Win32,60.07810153,,,,,,,,,,,,,,,,,,,,,,,,,,,,,,,,,,,,,,,,,,krimmen,images/br_krimmen.png,images/cb_krimmen.png,,krimmen,,,,,,,,,,,0.520370342,-0.218518504,1,0,0,krimmen,0,26,26,35,1
,,,,,,00098,2023-11-09_14h05.37.399,vbt_B2_day2,2022.2.4,Win32,60.07810153,,,,,,,,,,,,,,,,,,,,,,,,,,,,,,,,,,,,,,,,,,strikken,images/br_strikken.png,images/cb_strikken.png,,strikken,,,,,,,,,,,0.496296353,-0.202777792,1,0,0,strikken,0,27,27,18,1
,,,,,,00098,2023-11-09_14h05.37.399,vbt_B2_day2,2022.2.4,Win32,60.07810153,,,,,,,,,,,,,,,,,,,,,,,,,,,,,,,,,,,,,,,,,,lokken,images/br_lokken.png,images/cb_lokken.png,,lokken,,,,,,,,,,,0.496296353,-0.202777792,1,0,0,lokken,0,28,28,8,1
,,,,,,00098,2023-11-09_14h05.37.399,vbt_B2_day2,2022.2.4,Win32,60.07810153,,,,,,,,,,,,,,,,,,,,,,,,,,,,,,,,,,,,,,,,,,kenzis,images/br_kenzis.png,images/cb_kenzis.png,,kenzis,,,,,,,,,,,0.511111083,-0.211111139,1,0,0,kenzis,0,29,29,30,1
,,,,,,00098,2023-11-09_14h05.37.399,vbt_B2_day2,2022.2.4,Win32,60.07810153,,,,,,,,,,,,,,,,,,,,,,,,,,,,,,,,,,,,,,,,,,lurgen,images/br_lurgen.png,images/cb_lurgen.png,,lurgen,,,,,,,,,,,0.521296325,-0.214814857,1,0,0,lurgen,0,30,30,29,1
,,,,,,00098,2023-11-09_14h05.37.399,vbt_B2_day2,2022.2.4,Win32,60.07810153,,,,,,,,,,,,,,,,,,,,,,,,,,,,,,,,,,,,,,,,,,inzicht,images/br_inzicht.png,images/cb_inzicht.png,,inzicht,,,,,,,,,,,0.540740826,-0.219444487,1,0,0,inzicht,0,31,31,53,1
,,,,,,00098,2023-11-09_14h05.37.399,vbt_B2_day2,2022.2.4,Win32,60.07810153,,,,,,,,,,,,,,,,,,,,,,,,,,,,,,,,,,,,,,,,,,jagen,images/br_jagen.png,images/cb_jagen.png,,jagen,,,,,,,,,,,0.536111196,-0.22592594,1,0,0,jagen,0,32,32,6,1
,,,,,,00098,2023-11-09_14h05.37.399,vbt_B2_day2,2022.2.4,Win32,60.07810153,,,,,,,,,,,,,,,,,,,,,,,,,,,,,,,,,,,,,,,,,,anarchie,images/br_anarchie.png,images/cb_anarchie.png,,anarchie,,,,,,,,,,,0.530555584,-0.242592635,1,0,0,anarchie,0,33,33,16,1
,,,,,,00098,2023-11-09_14h05.37.399,vbt_B2_day2,2022.2.4,Win32,60.07810153,,,,,,,,,,,,,,,,,,,,,,,,,,,,,,,,,,,,,,,,,,breuk,images/br_breuk.png,images/cb_breuk.png,,breul,,,,,,,,,,,0.530555584,-0.242592635,1,0,0,breul,0,34,34,45,1
,,,,,,00098,2023-11-09_14h05.37.399,vbt_B2_day2,2022.2.4,Win32,60.07810153,,,,,,,,,,,,,,,,,,,,,,,,,,,,,,,,,,,,,,,,,,dode,images/br_dode.png,images/cb_dode.png,,dode,,,,,,,,,,,0.530555584,-0.242592635,1,0,0,dode,0,35,35,41,1
,,,,,,00098,2023-11-09_14h05.37.399,vbt_B2_day2,2022.2.4,Win32,60.07810153,,,,,,,,,,,,,,,,,,,,,,,,,,,,,,,,,,,,,,,,,,kijlen,images/br_kijlen.png,images/cb_kijlen.png,,ki.len,,,,,,,,,,,0.530555584,-0.242592635,1,0,0,ki.len,0,36,36,31,1
,,,,,,00098,2023-11-09_14h05.37.399,vbt_B2_day2,2022.2.4,Win32,60.07810153,,,,,,,,,,,,,,,,,,,,,,,,,,,,,,,,,,,,,,,,,,clan,images/br_clan.png,images/cb_clan.png,,clak,,,,,,,,,,,0.530555584,-0.242592635,1,0,0,clak,0,37,37,40,1
,,,,,,00098,2023-11-09_14h05.37.399,vbt_B2_day2,2022.2.4,Win32,60.07810153,,,,,,,,,,,,,,,,,,,,,,,,,,,,,,,,,,,,,,,,,,diep,images/br_diep.png,images/cb_diep.png,,diep,,,,,,,,,,,0.530555584,-0.258333347,1,0,0,diep,0,38,38,2,1
,,,,,,00098,2023-11-09_14h05.37.399,vbt_B2_day2,2022.2.4,Win32,60.07810153,,,,,,,,,,,,,,,,,,,,,,,,,,,,,,,,,,,,,,,,,,kabel,images/br_kabel.png,images/cb_kabel.png,,kabel,,,,,,,,,,,0.537037037,-0.258333347,1,0,0,kabel,0,39,39,7,1
,,,,,,00098,2023-11-09_14h05.37.399,vbt_B2_day2,2022.2.4,Win32,60.07810153,,,,,,,,,,,,,,,,,,,,,,,,,,,,,,,,,,,,,,,,,,wijve,images/br_wijve.png,images/cb_wijve.png,,wijve,,,,,,,,,,,0.544444473,-0.258333347,1,0,0,wijve,0,40,40,27,1
,,,,,,00098,2023-11-09_14h05.37.399,vbt_B2_day2,2022.2.4,Win32,60.07810153,,,,,,,,,,,,,,,,,,,,,,,,,,,,,,,,,,,,,,,,,,thema,images/br_thema.png,images/cb_thema.png,,theur,,,,,,,,,,,0.544444473,-0.258333347,1,0,0,theur,0,41,41,47,1
,,,,,,00098,2023-11-09_14h05.37.399,vbt_B2_day2,2022.2.4,Win32,60.07810153,,,,,,,,,,,,,,,,,,,,,,,,,,,,,,,,,,,,,,,,,,ophuimen,images/br_ophuimen.png,images/cb_ophuimen.png,,ophuimen,,,,,,,,,,,0.544444473,-0.258333347,1,0,0,ophuimen,0,42,42,36,1
,,,,,,00098,2023-11-09_14h05.37.399,vbt_B2_day2,2022.2.4,Win32,60.07810153,,,,,,,,,,,,,,,,,,,,,,,,,,,,,,,,,,,,,,,,,,moes,images/br_moes.png,images/cb_moes.png,,moes,,,,,,,,,,,0.58148151,-0.300925926,1,0,0,moes,0,43,43,0,1
,,,,,,00098,2023-11-09_14h05.37.399,vbt_B2_day2,2022.2.4,Win32,60.07810153,,,,,,,,,,,,,,,,,,,,,,,,,,,,,,,,,,,,,,,,,,welzijn,images/br_welzijn.png,images/cb_welzijn.png,,welzijn,,,,,,,,,,,0.782407407,-0.494444459,1,0,0,welzijn,0,44,44,52,1
,,,,,,00098,2023-11-09_14h05.37.399,vbt_B2_day2,2022.2.4,Win32,60.07810153,,,,,,,,,,,,,,,,,,,,,,,,,,,,,,,,,,,,,,,,,,doodmoe,images/br_doodmoe.png,images/cb_doodmoe.png,,doodmoe,,,,,,,,,,,0.665740826,0.222222222,1,0,0,doodmoe,0,45,45,15,1
,,,,,,00098,2023-11-09_14h05.37.399,vbt_B2_day2,2022.2.4,Win32,60.07810153,,,,,,,,,,,,,,,,,,,,,,,,,,,,,,,,,,,,,,,,,,jong,images/br_jong.png,images/cb_jong.png,,jong,,,,,,,,,,,0.743518547,0.202777757,1,0,0,jong,0,46,46,43,1
,,,,,,00098,2023-11-09_14h05.37.399,vbt_B2_day2,2022.2.4,Win32,60.07810153,,,,,,,,,,,,,,,,,,,,,,,,,,,,,,,,,,,,,,,,,,koorts,images/br_koorts.png,images/cb_koorts.png,,koorts,,,,,,,,,,,0.74537037,0.202777757,1,0,0,koorts,0,47,47,50,1
,,,,,,00098,2023-11-09_14h05.37.399,vbt_B2_day2,2022.2.4,Win32,60.07810153,,,,,,,,,,,,,,,,,,,,,,,,,,,,,,,,,,,,,,,,,,woning,images/br_woning.png,images/cb_woning.png,,koning,,,,,,,,,,,0.385185242,0.212037034,1,0,0,koning,0,48,48,10,1
,,,,,,00098,2023-11-09_14h05.37.399,vbt_B2_day2,2022.2.4,Win32,60.07810153,,,,,,,,,,,,,,,,,,,,,,,,,,,,,,,,,,,,,,,,,,trots,images/br_trots.png,images/cb_trots.png,,trots,,,,,,,,,,,0.385185242,0.212037034,1,0,0,trots,0,49,49,44,1
,,,,,,00098,2023-11-09_14h05.37.399,vbt_B2_day2,2022.2.4,Win32,60.07810153,,,,,,,,,,,,,,,,,,,,,,,,,,,,,,,,,,,,,,,,,,heilig,images/br_heilig.png,images/cb_heilig.png,,heilig,,,,,,,,,,,0.385185242,0.212037034,1,0,0,heilig,0,50,50,9,1
,,,,,,00098,2023-11-09_14h05.37.399,vbt_B2_day2,2022.2.4,Win32,60.07810153,,,,,,,,,,,,,,,,,,,,,,,,,,,,,,,,,,,,,,,,,,piste,images/br_piste.png,images/cb_piste.png,,piste,,,,,,,,,,,0.385185242,0.212037034,1,0,0,piste,0,51,51,5,1
,,,,,,00098,2023-11-09_14h05.37.399,vbt_B2_day2,2022.2.4,Win32,60.07810153,,,,,,,,,,,,,,,,,,,,,,,,,,,,,,,,,,,,,,,,,,lijnen,images/br_lijnen.png,images/cb_lijnen.png,,lijnen,,,,,,,,,,,0.385185242,0.212037034,1,0,0,lijnen,0,52,52,51,1
,,,,,,00098,2023-11-09_14h05.37.399,vbt_B2_day2,2022.2.4,Win32,60.07810153,,,,,,,,,,,,,,,,,,,,,,,,,,,,,,,,,,,,,,,,,,sifferd,images/br_sifferd.png,images/cb_sifferd.png,,sifferd,,,,,,,,,,,0.385185242,0.212037034,1,0,0,sifferd,0,53,53,32,1
,,,,,,00098,2023-11-09_14h05.37.399,vbt_B2_day2,2022.2.4,Win32,60.07810153,,,,,,,,,,,,,,,,,,,,,,,,,,,,,,,,,,,,,,,,,,heengeen,images/br_heengeen.png,images/cb_heengeen.png,,heengeen,,,,,,,,,,,0.385185242,0.212037034,1,0,0,heengeen,0,54,54,38,1
,,,,,,00098,2023-11-09_14h05.37.399,vbt_B2_day2,2022.2.4,Win32,60.07810153,,,,,,,,,,,,,,,,,,,,,,,,,,,,,,,,,,,,,,,,,,eenhoorn,images/br_eenhoorn.png,images/cb_eenhoorn.png,,eenhoorn,,,,,,,,,,,0.385185242,0.212037034,1,0,0,eenhoorn,0,55,55,19,1
,,,,,,00098,2023-11-09_14h05.37.399,vbt_B2_day2,2022.2.4,Win32,60.07810153,,,,,,,,,,,,,,,,,,,,,,,,,,,,,,,,,,,,,,,,,,ningen,images/br_ningen.png,images/cb_ningen.png,,ningen,,,,,,,,,,,0.385185242,0.212037034,1,0,0,ningen,0,56,56,28,1
,,,,,,00098,2023-11-09_14h05.37.399,vbt_B2_day2,2022.2.4,Win32,60.07810153,,,,,,,,,,,,,,,,,,,,,,,,,,,,,,,,,,,,,,,,,,stes,images/br_stes.png,images/cb_stes.png,,stes,,,,,,,,,,,0.385185242,0.212037034,1,0,0,stes,0,57,57,21,1
,,,,,,00098,2023-11-09_14h05.37.399,vbt_B2_day2,2022.2.4,Win32,60.07810153,,,,,,,,,,,,,,,,,,,,,,,,,,,,,,,,,,,,,,,,,,zwager,images/br_zwager.png,images/cb_zwager.png,,zworger,,,,,,,,,,,0.385185242,0.212037034,1,0,0,zworger,0,58,58,49,1
,,,,,,00098,2023-11-09_14h05.37.399,vbt_B2_day2,2022.2.4,Win32,60.07810153,,,,,,,,,,,,,,,,,,,,,,,,,,,,,,,,,,,,,,,,,,feestdag,images/br_feestdag.png,images/cb_feestdag.png,,feestdag,,,,,,,,,,,0.385185242,0.212037034,1,0,0,feestdag,0,59,59,17,1
,,,,,,00098,2023-11-09_14h05.37.399,vbt_B2_day2,2022.2.4,Win32,60.07810153,,,,,,,,,,,,,,,,,,,,,,,,,,,,,,,,,,,,,,,,,,,,,,,,,,,,,,,,,,,,,,,,,,,
