welcome_mouse.x,welcome_mouse.y,welcome_mouse.leftButton,welcome_mouse.midButton,welcome_mouse.rightButton,welcome_mouse.time,"ID",date,expName,psychopyVersion,OS,frameRate,refresh_mouse.x,refresh_mouse.y,refresh_mouse.leftButton,refresh_mouse.midButton,refresh_mouse.rightButton,refresh_mouse.time,braille_mouse.x,braille_mouse.y,braille_mouse.leftButton,braille_mouse.midButton,braille_mouse.rightButton,braille_mouse.time,trials.thisRepN,trials.thisTrialN,trials.thisN,trials.thisIndex,trials.ran,nlLet,brLet,cbLet,trainInstr_mouse.x,trainInstr_mouse.y,trainInstr_mouse.leftButton,trainInstr_mouse.midButton,trainInstr_mouse.rightButton,trainInstr_mouse.time,translation_key.keys,translation_key.corr,translation_key.rt,word_rsp.text,word_mouse.x,word_mouse.y,word_mouse.leftButton,word_mouse.midButton,word_mouse.rightButton,word_mouse.time,train_loop.thisRepN,train_loop.thisTrialN,train_loop.thisN,train_loop.thisIndex,train_loop.ran,nlWrd,brWrd,cbWrd,test,testResp,mouse.x,mouse.y,mouse.leftButton,mouse.midButton,mouse.rightButton,testInstr_mouse.x,testInstr_mouse.y,testInstr_mouse.leftButton,testInstr_mouse.midButton,testInstr_mouse.rightButton,test_mouse.x,test_mouse.y,test_mouse.leftButton,test_mouse.midButton,test_mouse.rightButton,test_response.text,test_loop.thisRepN,test_loop.thisTrialN,test_loop.thisN,test_loop.thisIndex,test_loop.ran
0.20185188,-0.09629631,1,0,0,14.1227,00055,2023-10-12_20h28.59.796,vbt_B2_day2,2022.2.4,Win32,59.89099838,,,,,,,,,,,,,,,,,,,,,,,,,,,,,,,,,,,,,,,,,,,,,,,,,,,,,,,,,,,,,,,,,,,
,,,,,,00055,2023-10-12_20h28.59.796,vbt_B2_day2,2022.2.4,Win32,59.89099838,0.22129631,-0.175000014,1,0,0,9.7767,,,,,,,,,,,,,,,,,,,,,,,,,,,,,,,,,,,,,,,,,,,,,,,,,,,,,,,,,,,,,
,,,,,,00055,2023-10-12_20h28.59.796,vbt_B2_day2,2022.2.4,Win32,59.89099838,,,,,,,0.22129631,-0.176851838,1,0,0,1.2481,0,0,0,11,1,l,images/br_l.png,images/cb_l.png,,,,,,,,,,,,,,,,,,,,,,,,,,,,,,,,,,,,,,,,,,,,,,,
,,,,,,00055,2023-10-12_20h28.59.796,vbt_B2_day2,2022.2.4,Win32,59.89099838,,,,,,,0.22129631,-0.176851838,1,0,0,1.3795,0,1,1,16,1,q,images/br_q.png,images/cb_q.png,,,,,,,,,,,,,,,,,,,,,,,,,,,,,,,,,,,,,,,,,,,,,,,
,,,,,,00055,2023-10-12_20h28.59.796,vbt_B2_day2,2022.2.4,Win32,59.89099838,,,,,,,0.234259288,-0.083333333,1,0,0,1.8829,0,2,2,18,1,s,images/br_s.png,images/cb_s.png,,,,,,,,,,,,,,,,,,,,,,,,,,,,,,,,,,,,,,,,,,,,,,,
,,,,,,00055,2023-10-12_20h28.59.796,vbt_B2_day2,2022.2.4,Win32,59.89099838,,,,,,,0.234259288,-0.083333333,1,0,0,1.6497,0,3,3,19,1,t,images/br_t.png,images/cb_t.png,,,,,,,,,,,,,,,,,,,,,,,,,,,,,,,,,,,,,,,,,,,,,,,
,,,,,,00055,2023-10-12_20h28.59.796,vbt_B2_day2,2022.2.4,Win32,59.89099838,,,,,,,0.234259288,-0.083333333,1,0,0,1.2698,0,4,4,8,1,i,images/br_i.png,images/cb_i.png,,,,,,,,,,,,,,,,,,,,,,,,,,,,,,,,,,,,,,,,,,,,,,,
,,,,,,00055,2023-10-12_20h28.59.796,vbt_B2_day2,2022.2.4,Win32,59.89099838,,,,,,,0.234259288,-0.083333333,1,0,0,2.4531,0,5,5,15,1,p,images/br_p.png,images/cb_p.png,,,,,,,,,,,,,,,,,,,,,,,,,,,,,,,,,,,,,,,,,,,,,,,
,,,,,,00055,2023-10-12_20h28.59.796,vbt_B2_day2,2022.2.4,Win32,59.89099838,,,,,,,0.234259288,-0.083333333,1,0,0,2.8491,0,6,6,24,1,y,images/br_y.png,images/cb_y.png,,,,,,,,,,,,,,,,,,,,,,,,,,,,,,,,,,,,,,,,,,,,,,,
,,,,,,00055,2023-10-12_20h28.59.796,vbt_B2_day2,2022.2.4,Win32,59.89099838,,,,,,,0.234259288,-0.083333333,1,0,0,2.9528,0,7,7,17,1,r,images/br_r.png,images/cb_r.png,,,,,,,,,,,,,,,,,,,,,,,,,,,,,,,,,,,,,,,,,,,,,,,
,,,,,,00055,2023-10-12_20h28.59.796,vbt_B2_day2,2022.2.4,Win32,59.89099838,,,,,,,0.234259288,-0.083333333,1,0,0,0.9041,0,8,8,20,1,u,images/br_u.png,images/cb_u.png,,,,,,,,,,,,,,,,,,,,,,,,,,,,,,,,,,,,,,,,,,,,,,,
,,,,,,00055,2023-10-12_20h28.59.796,vbt_B2_day2,2022.2.4,Win32,59.89099838,,,,,,,0.234259288,-0.083333333,1,0,0,1.0295,0,9,9,3,1,d,images/br_d.png,images/cb_d.png,,,,,,,,,,,,,,,,,,,,,,,,,,,,,,,,,,,,,,,,,,,,,,,
,,,,,,00055,2023-10-12_20h28.59.796,vbt_B2_day2,2022.2.4,Win32,59.89099838,,,,,,,0.228703746,-0.081481474,1,0,0,0.5667,0,10,10,1,1,b,images/br_b.png,images/cb_b.png,,,,,,,,,,,,,,,,,,,,,,,,,,,,,,,,,,,,,,,,,,,,,,,
,,,,,,00055,2023-10-12_20h28.59.796,vbt_B2_day2,2022.2.4,Win32,59.89099838,,,,,,,0.229629658,-0.081481474,1,0,0,1.6991,0,11,11,7,1,h,images/br_h.png,images/cb_h.png,,,,,,,,,,,,,,,,,,,,,,,,,,,,,,,,,,,,,,,,,,,,,,,
,,,,,,00055,2023-10-12_20h28.59.796,vbt_B2_day2,2022.2.4,Win32,59.89099838,,,,,,,0.234259288,-0.083333333,1,0,0,1.4196,0,12,12,6,1,g,images/br_g.png,images/cb_g.png,,,,,,,,,,,,,,,,,,,,,,,,,,,,,,,,,,,,,,,,,,,,,,,
,,,,,,00055,2023-10-12_20h28.59.796,vbt_B2_day2,2022.2.4,Win32,59.89099838,,,,,,,0.249074088,-0.08888891,1,0,0,2.0989,0,13,13,2,1,c,images/br_c.png,images/cb_c.png,,,,,,,,,,,,,,,,,,,,,,,,,,,,,,,,,,,,,,,,,,,,,,,
,,,,,,00055,2023-10-12_20h28.59.796,vbt_B2_day2,2022.2.4,Win32,59.89099838,,,,,,,0.079629616,-0.214814857,1,0,0,2.8833,0,14,14,21,1,v,images/br_v.png,images/cb_v.png,,,,,,,,,,,,,,,,,,,,,,,,,,,,,,,,,,,,,,,,,,,,,,,
,,,,,,00055,2023-10-12_20h28.59.796,vbt_B2_day2,2022.2.4,Win32,59.89099838,,,,,,,0.079629616,-0.214814857,1,0,0,0.896,0,15,15,9,1,j,images/br_j.png,images/cb_j.png,,,,,,,,,,,,,,,,,,,,,,,,,,,,,,,,,,,,,,,,,,,,,,,
,,,,,,00055,2023-10-12_20h28.59.796,vbt_B2_day2,2022.2.4,Win32,59.89099838,,,,,,,0.150000042,-0.202777792,1,0,0,14.6476,0,16,16,12,1,m,images/br_m.png,images/cb_m.png,,,,,,,,,,,,,,,,,,,,,,,,,,,,,,,,,,,,,,,,,,,,,,,
,,,,,,00055,2023-10-12_20h28.59.796,vbt_B2_day2,2022.2.4,Win32,59.89099838,,,,,,,0.150000042,-0.202777792,1,0,0,1.6332,0,17,17,23,1,x,images/br_x.png,images/cb_x.png,,,,,,,,,,,,,,,,,,,,,,,,,,,,,,,,,,,,,,,,,,,,,,,
,,,,,,00055,2023-10-12_20h28.59.796,vbt_B2_day2,2022.2.4,Win32,59.89099838,,,,,,,0.150000042,-0.202777792,1,0,0,3.495,0,18,18,5,1,f,images/br_f.png,images/cb_f.png,,,,,,,,,,,,,,,,,,,,,,,,,,,,,,,,,,,,,,,,,,,,,,,
,,,,,,00055,2023-10-12_20h28.59.796,vbt_B2_day2,2022.2.4,Win32,59.89099838,,,,,,,0.124074088,-0.199074074,1,0,0,4.9982,0,19,19,0,1,a,images/br_a.png,images/cb_a.png,,,,,,,,,,,,,,,,,,,,,,,,,,,,,,,,,,,,,,,,,,,,,,,
,,,,,,00055,2023-10-12_20h28.59.796,vbt_B2_day2,2022.2.4,Win32,59.89099838,,,,,,,0.126851894,-0.199074074,1,0,0,0.1668,0,20,20,10,1,k,images/br_k.png,images/cb_k.png,,,,,,,,,,,,,,,,,,,,,,,,,,,,,,,,,,,,,,,,,,,,,,,
,,,,,,00055,2023-10-12_20h28.59.796,vbt_B2_day2,2022.2.4,Win32,59.89099838,,,,,,,0.317592621,-0.070370392,1,0,0,0.5812,0,21,21,14,1,o,images/br_o.png,images/cb_o.png,,,,,,,,,,,,,,,,,,,,,,,,,,,,,,,,,,,,,,,,,,,,,,,
,,,,,,00055,2023-10-12_20h28.59.796,vbt_B2_day2,2022.2.4,Win32,59.89099838,,,,,,,0.317592621,-0.070370392,1,0,0,0.216,0,22,22,22,1,w,images/br_w.png,images/cb_w.png,,,,,,,,,,,,,,,,,,,,,,,,,,,,,,,,,,,,,,,,,,,,,,,
,,,,,,00055,2023-10-12_20h28.59.796,vbt_B2_day2,2022.2.4,Win32,59.89099838,,,,,,,0.317592621,-0.070370392,1,0,0,1.5611,0,23,23,25,1,z,images/br_z.png,images/cb_z.png,,,,,,,,,,,,,,,,,,,,,,,,,,,,,,,,,,,,,,,,,,,,,,,
,,,,,,00055,2023-10-12_20h28.59.796,vbt_B2_day2,2022.2.4,Win32,59.89099838,,,,,,,0.317592621,-0.070370392,1,0,0,0.5337,0,24,24,4,1,e,images/br_e.png,images/cb_e.png,,,,,,,,,,,,,,,,,,,,,,,,,,,,,,,,,,,,,,,,,,,,,,,
,,,,,,00055,2023-10-12_20h28.59.796,vbt_B2_day2,2022.2.4,Win32,59.89099838,,,,,,,0.317592621,-0.070370392,1,0,0,2.1297,0,25,25,13,1,n,images/br_n.png,images/cb_n.png,,,,,,,,,,,,,,,,,,,,,,,,,,,,,,,,,,,,,,,,,,,,,,,
,,,,,,00055,2023-10-12_20h28.59.796,vbt_B2_day2,2022.2.4,Win32,59.89099838,,,,,,,,,,,,,,,,,,,,,0.551851908,-0.015740748,1,0,0,35.3275,,,,,,,,,,,,,,,,,,,,,,,,,,,,,,,,,,,,,,,,,
,,,,,,00055,2023-10-12_20h28.59.796,vbt_B2_day2,2022.2.4,Win32,59.89099838,,,,,,,,,,,,,,,,,,,,,,,,,,,down,0,6.0149,,0.551851908,-0.015740748,1,0,0,3.0274,0,0,0,47,1,kabel,images/br_kabel.png,images/cb_kabel.png,0,,,,,,,,,,,,,,,,,,,,,,
,,,,,,00055,2023-10-12_20h28.59.796,vbt_B2_day2,2022.2.4,Win32,59.89099838,,,,,,,,,,,,,,,,,,,,,,,,,,,down,0,12.1093,,0.541666667,-0.019444466,1,0,0,3.833,0,1,1,37,1,mijn,images/br_mijn.png,images/cb_mijn.png,0,,,,,,,,,,,,,,,,,,,,,,
,,,,,,00055,2023-10-12_20h28.59.796,vbt_B2_day2,2022.2.4,Win32,59.89099838,,,,,,,,,,,,,,,,,,,,,,,,,,,down,0,3.4051,,0.541666667,-0.019444466,1,0,0,1.5702,0,2,2,43,1,klauw,images/br_klauw.png,images/cb_klauw.png,0,,,,,,,,,,,,,,,,,,,,,,
,,,,,,00055,2023-10-12_20h28.59.796,vbt_B2_day2,2022.2.4,Win32,59.89099838,,,,,,,,,,,,,,,,,,,,,,,,,,,down,0,4.8809,,0.541666667,-0.019444466,1,0,0,2.649,0,3,3,95,1,vreten,images/br_vreten.png,images/cb_vreten.png,0,,,,,,,,,,,,,,,,,,,,,,
,,,,,,00055,2023-10-12_20h28.59.796,vbt_B2_day2,2022.2.4,Win32,59.89099838,,,,,,,,,,,,,,,,,,,,,,,,,,,down,0,5.3181,,0.541666667,-0.019444466,1,0,0,4.4016,0,4,4,189,1,aanraden,images/br_aanraden.png,images/cb_aanraden.png,0,,,,,,,,,,,,,,,,,,,,,,
,,,,,,00055,2023-10-12_20h28.59.796,vbt_B2_day2,2022.2.4,Win32,59.89099838,,,,,,,,,,,,,,,,,,,,,,,,,,,down,0,1.737,,0.541666667,-0.019444466,1,0,0,0.9167,0,5,5,117,1,kennis,images/br_kennis.png,images/cb_kennis.png,0,,,,,,,,,,,,,,,,,,,,,,
,,,,,,00055,2023-10-12_20h28.59.796,vbt_B2_day2,2022.2.4,Win32,59.89099838,,,,,,,,,,,,,,,,,,,,,,,,,,,down,0,6.2158,,0.541666667,-0.019444466,1,0,0,1.7479,0,6,6,22,1,stof,images/br_stof.png,images/cb_stof.png,0,,,,,,,,,,,,,,,,,,,,,,
,,,,,,00055,2023-10-12_20h28.59.796,vbt_B2_day2,2022.2.4,Win32,59.89099838,,,,,,,,,,,,,,,,,,,,,,,,,,,down,0,25.5012,,0.541666667,-0.019444466,1,0,0,1.832,0,7,7,191,1,opheffen,images/br_opheffen.png,images/cb_opheffen.png,0,,,,,,,,,,,,,,,,,,,,,,
,,,,,,00055,2023-10-12_20h28.59.796,vbt_B2_day2,2022.2.4,Win32,59.89099838,,,,,,,,,,,,,,,,,,,,,,,,,,,down,0,8.5072,,0.541666667,-0.019444466,1,0,0,4.9657,0,8,8,138,1,akkoord,images/br_akkoord.png,images/cb_akkoord.png,1,akkoordakkoord,,,,,,,,,,,,,,,,,,,,,
,,,,,,00055,2023-10-12_20h28.59.796,vbt_B2_day2,2022.2.4,Win32,59.89099838,,,,,,,,,,,,,,,,,,,,,,,,,,,down,0,3.0493,,0.541666667,-0.019444466,1,0,0,7.3809,0,9,9,119,1,liefje,images/br_liefje.png,images/cb_liefje.png,0,,,,,,,,,,,,,,,,,,,,,,
,,,,,,00055,2023-10-12_20h28.59.796,vbt_B2_day2,2022.2.4,Win32,59.89099838,,,,,,,,,,,,,,,,,,,,,,,,,,,down,0,10.4782,,0.541666667,-0.019444466,1,0,0,0.7629,0,10,10,77,1,woede,images/br_woede.png,images/cb_woede.png,0,,,,,,,,,,,,,,,,,,,,,,
,,,,,,00055,2023-10-12_20h28.59.796,vbt_B2_day2,2022.2.4,Win32,59.89099838,,,,,,,,,,,,,,,,,,,,,,,,,,,down,0,4.0016,,0.247222265,-0.067592586,1,0,0,1.4866,0,11,11,134,1,geliefd,images/br_geliefd.png,images/cb_geliefd.png,0,,,,,,,,,,,,,,,,,,,,,,
,,,,,,00055,2023-10-12_20h28.59.796,vbt_B2_day2,2022.2.4,Win32,59.89099838,,,,,,,,,,,,,,,,,,,,,,,,,,,down,0,8.0177,,0.175000014,-0.008333347,1,0,0,1.0198,0,12,12,76,1,afval,images/br_afval.png,images/cb_afval.png,0,,,,,,,,,,,,,,,,,,,,,,
,,,,,,00055,2023-10-12_20h28.59.796,vbt_B2_day2,2022.2.4,Win32,59.89099838,,,,,,,,,,,,,,,,,,,,,,,,,,,down,0,19.3344,,0.141666695,-0.010185206,1,0,0,0.4863,0,13,13,85,1,heilig,images/br_heilig.png,images/cb_heilig.png,0,,,,,,,,,,,,,,,,,,,,,,
,,,,,,00055,2023-10-12_20h28.59.796,vbt_B2_day2,2022.2.4,Win32,59.89099838,,,,,,,,,,,,,,,,,,,,,,,,,,,down,0,2.1564,,0.170370384,-0.025925919,1,0,0,0.4008,0,14,14,120,1,klimmen,images/br_klimmen.png,images/cb_klimmen.png,0,,,,,,,,,,,,,,,,,,,,,,
,,,,,,00055,2023-10-12_20h28.59.796,vbt_B2_day2,2022.2.4,Win32,59.89099838,,,,,,,,,,,,,,,,,,,,,,,,,,,down,0,6.319,,0.186111097,0.010185171,1,0,0,0.7195,0,15,15,93,1,waarop,images/br_waarop.png,images/cb_waarop.png,0,,,,,,,,,,,,,,,,,,,,,,
,,,,,,00055,2023-10-12_20h28.59.796,vbt_B2_day2,2022.2.4,Win32,59.89099838,,,,,,,,,,,,,,,,,,,,,,,,,,,down,0,9.8461,,0.131481524,-0.010185206,1,0,0,0.6291,0,16,16,61,1,groen,images/br_groen.png,images/cb_groen.png,0,,,,,,,,,,,,,,,,,,,,,,
,,,,,,00055,2023-10-12_20h28.59.796,vbt_B2_day2,2022.2.4,Win32,59.89099838,,,,,,,,,,,,,,,,,,,,,,,,,,,down,0,5.4117,,0.207407422,0.000925912,1,0,0,0.5162,0,17,17,129,1,verhaal,images/br_verhaal.png,images/cb_verhaal.png,0,,,,,,,,,,,,,,,,,,,,,,
,,,,,,00055,2023-10-12_20h28.59.796,vbt_B2_day2,2022.2.4,Win32,59.89099838,,,,,,,,,,,,,,,,,,,,,,,,,,,down,0,4.4373,,0.207407422,0.000925912,1,0,0,0.7171,0,18,18,16,1,ziek,images/br_ziek.png,images/cb_ziek.png,1,ziek,,,,,,,,,,,,,,,,,,,,,
,,,,,,00055,2023-10-12_20h28.59.796,vbt_B2_day2,2022.2.4,Win32,59.89099838,,,,,,,,,,,,,,,,,,,,,,,,,,,down,0,7.5787,,0.354629658,-0.046296296,1,0,0,0.5871,0,19,19,83,1,mening,images/br_mening.png,images/cb_mening.png,0,,,,,,,,,,,,,,,,,,,,,,
,,,,,,00055,2023-10-12_20h28.59.796,vbt_B2_day2,2022.2.4,Win32,59.89099838,,,,,,,,,,,,,,,,,,,,,,,,,,,down,0,1.6344,,0.354629658,-0.046296296,1,0,0,0.3485,0,20,20,72,1,strak,images/br_strak.png,images/cb_strak.png,0,,,,,,,,,,,,,,,,,,,,,,
,,,,,,00055,2023-10-12_20h28.59.796,vbt_B2_day2,2022.2.4,Win32,59.89099838,,,,,,,,,,,,,,,,,,,,,,,,,,,down,0,3.8891,,0.354629658,-0.046296296,1,0,0,0.5857,0,21,21,26,1,leuk,images/br_leuk.png,images/cb_leuk.png,0,,,,,,,,,,,,,,,,,,,,,,
,,,,,,00055,2023-10-12_20h28.59.796,vbt_B2_day2,2022.2.4,Win32,59.89099838,,,,,,,,,,,,,,,,,,,,,,,,,,,down,0,316.8534,,0.186111097,-0.112963005,1,0,0,0.5627,0,22,22,44,1,flits,images/br_flits.png,images/cb_flits.png,0,,,,,,,,,,,,,,,,,,,,,,
,,,,,,00055,2023-10-12_20h28.59.796,vbt_B2_day2,2022.2.4,Win32,59.89099838,,,,,,,,,,,,,,,,,,,,,,,,,,,down,0,10.5821,,0.445370427,-0.068518533,1,0,0,0.5147,0,23,23,162,1,uitdelen,images/br_uitdelen.png,images/cb_uitdelen.png,0,,,,,,,,,,,,,,,,,,,,,,
,,,,,,00055,2023-10-12_20h28.59.796,vbt_B2_day2,2022.2.4,Win32,59.89099838,,,,,,,,,,,,,,,,,,,,,,,,,,,down,0,6.5131,,0.4898149,-0.072222215,1,0,0,0.3822,0,24,24,107,1,maling,images/br_maling.png,images/cb_maling.png,0,,,,,,,,,,,,,,,,,,,,,,
,,,,,,00055,2023-10-12_20h28.59.796,vbt_B2_day2,2022.2.4,Win32,59.89099838,,,,,,,,,,,,,,,,,,,,,,,,,,,down,0,17.0443,,0.365740741,-0.212037051,1,0,0,0.3842,0,25,25,65,1,parel,images/br_parel.png,images/cb_parel.png,0,,,,,,,,,,,,,,,,,,,,,,
,,,,,,00055,2023-10-12_20h28.59.796,vbt_B2_day2,2022.2.4,Win32,59.89099838,,,,,,,,,,,,,,,,,,,,,,,,,,,down,0,4.3974,,0.365740741,-0.212037051,1,0,0,0.5606,0,26,26,164,1,anarchie,images/br_anarchie.png,images/cb_anarchie.png,0,,,,,,,,,,,,,,,,,,,,,,
,,,,,,00055,2023-10-12_20h28.59.796,vbt_B2_day2,2022.2.4,Win32,59.89099838,,,,,,,,,,,,,,,,,,,,,,,,,,,down,0,3.2064,,0.365740741,-0.212037051,1,0,0,1.0659,0,27,27,96,1,slagen,images/br_slagen.png,images/cb_slagen.png,1,slagen,,,,,,,,,,,,,,,,,,,,,
,,,,,,00055,2023-10-12_20h28.59.796,vbt_B2_day2,2022.2.4,Win32,59.89099838,,,,,,,,,,,,,,,,,,,,,,,,,,,down,0,2.6687,,0.365740741,-0.212037051,1,0,0,0.7144,0,28,28,13,1,kaal,images/br_kaal.png,images/cb_kaal.png,0,,,,,,,,,,,,,,,,,,,,,,
,,,,,,00055,2023-10-12_20h28.59.796,vbt_B2_day2,2022.2.4,Win32,59.89099838,,,,,,,,,,,,,,,,,,,,,,,,,,,down,0,2.3901,,0.365740741,-0.212037051,1,0,0,1.3678,0,29,29,89,1,slapen,images/br_slapen.png,images/cb_slapen.png,0,,,,,,,,,,,,,,,,,,,,,,
,,,,,,00055,2023-10-12_20h28.59.796,vbt_B2_day2,2022.2.4,Win32,59.89099838,,,,,,,,,,,,,,,,,,,,,,,,,,,down,0,3.1955,,0.365740741,-0.037037037,1,0,0,0.7627,0,30,30,167,1,eenhoorn,images/br_eenhoorn.png,images/cb_eenhoorn.png,0,,,,,,,,,,,,,,,,,,,,,,
,,,,,,00055,2023-10-12_20h28.59.796,vbt_B2_day2,2022.2.4,Win32,59.89099838,,,,,,,,,,,,,,,,,,,,,,,,,,,down,0,12.7279,,0.026851866,-0.148148148,1,0,0,1.316,0,31,31,160,1,daarheen,images/br_daarheen.png,images/cb_daarheen.png,0,,,,,,,,,,,,,,,,,,,,,,
,,,,,,00055,2023-10-12_20h28.59.796,vbt_B2_day2,2022.2.4,Win32,59.89099838,,,,,,,,,,,,,,,,,,,,,,,,,,,down,0,8.8506,,0.313888974,-0.211111139,1,0,0,0.8304,0,32,32,178,1,huisdier,images/br_huisdier.png,images/cb_huisdier.png,1,huisdier,,,,,,,,,,,,,,,,,,,,,
,,,,,,00055,2023-10-12_20h28.59.796,vbt_B2_day2,2022.2.4,Win32,59.89099838,,,,,,,,,,,,,,,,,,,,,,,,,,,down,0,7.1832,,0.313888974,-0.211111139,1,0,0,0.8836,0,33,33,136,1,waarbij,images/br_waarbij.png,images/cb_waarbij.png,1,waarbij,,,,,,,,,,,,,,,,,,,,,
,,,,,,00055,2023-10-12_20h28.59.796,vbt_B2_day2,2022.2.4,Win32,59.89099838,,,,,,,,,,,,,,,,,,,,,,,,,,,down,0,7.3804,,0.313888974,-0.211111139,1,0,0,0.7101,0,34,34,3,1,mand,images/br_mand.png,images/cb_mand.png,0,,,,,,,,,,,,,,,,,,,,,,
,,,,,,00055,2023-10-12_20h28.59.796,vbt_B2_day2,2022.2.4,Win32,59.89099838,,,,,,,,,,,,,,,,,,,,,,,,,,,down,0,10.4438,,0.332407492,-0.22129631,1,0,0,0.8957,0,35,35,171,1,aarzelen,images/br_aarzelen.png,images/cb_aarzelen.png,0,,,,,,,,,,,,,,,,,,,,,,
,,,,,,00055,2023-10-12_20h28.59.796,vbt_B2_day2,2022.2.4,Win32,59.89099838,,,,,,,,,,,,,,,,,,,,,,,,,,,down,0,1.4165,,0.054629644,-0.001851859,1,0,0,0.4333,0,36,36,11,1,mode,images/br_mode.png,images/cb_mode.png,0,,,,,,,,,,,,,,,,,,,,,,
,,,,,,00055,2023-10-12_20h28.59.796,vbt_B2_day2,2022.2.4,Win32,59.89099838,,,,,,,,,,,,,,,,,,,,,,,,,,,down,0,8.8239,,0.219444487,-0.143518519,1,0,0,1.0086,0,37,37,179,1,woestijn,images/br_woestijn.png,images/cb_woestijn.png,1,woestijn,,,,,,,,,,,,,,,,,,,,,
,,,,,,00055,2023-10-12_20h28.59.796,vbt_B2_day2,2022.2.4,Win32,59.89099838,,,,,,,,,,,,,,,,,,,,,,,,,,,down,0,4.6491,,0.219444487,-0.141666695,1,0,0,0.8503,0,38,38,148,1,smullen,images/br_smullen.png,images/cb_smullen.png,0,,,,,,,,,,,,,,,,,,,,,,
,,,,,,00055,2023-10-12_20h28.59.796,vbt_B2_day2,2022.2.4,Win32,59.89099838,,,,,,,,,,,,,,,,,,,,,,,,,,,down,0,3.9321,,0.219444487,-0.141666695,1,0,0,0.5137,0,39,39,32,1,palm,images/br_palm.png,images/cb_palm.png,0,,,,,,,,,,,,,,,,,,,,,,
,,,,,,00055,2023-10-12_20h28.59.796,vbt_B2_day2,2022.2.4,Win32,59.89099838,,,,,,,,,,,,,,,,,,,,,,,,,,,down,0,14.1886,,0.474074046,-0.309259273,1,0,0,4.1451,0,40,40,185,1,mijnheer,images/br_mijnheer.png,images/cb_mijnheer.png,0,,,,,,,,,,,,,,,,,,,,,,
,,,,,,00055,2023-10-12_20h28.59.796,vbt_B2_day2,2022.2.4,Win32,59.89099838,,,,,,,,,,,,,,,,,,,,,,,,,,,down,0,2.3455,,0.474074046,-0.309259273,1,0,0,0.833,0,41,41,86,1,woning,images/br_woning.png,images/cb_woning.png,0,,,,,,,,,,,,,,,,,,,,,,
,,,,,,00055,2023-10-12_20h28.59.796,vbt_B2_day2,2022.2.4,Win32,59.89099838,,,,,,,,,,,,,,,,,,,,,,,,,,,down,0,8.3324,,0.474074046,-0.309259273,1,0,0,1.3205,0,42,42,196,1,nakijken,images/br_nakijken.png,images/cb_nakijken.png,0,,,,,,,,,,,,,,,,,,,,,,
,,,,,,00055,2023-10-12_20h28.59.796,vbt_B2_day2,2022.2.4,Win32,59.89099838,,,,,,,,,,,,,,,,,,,,,,,,,,,down,0,4.152,,0.474074046,-0.309259273,1,0,0,0.7038,0,43,43,87,1,toeval,images/br_toeval.png,images/cb_toeval.png,0,,,,,,,,,,,,,,,,,,,,,,
,,,,,,00055,2023-10-12_20h28.59.796,vbt_B2_day2,2022.2.4,Win32,59.89099838,,,,,,,,,,,,,,,,,,,,,,,,,,,down,0,25.1766,,0.474074046,-0.309259273,1,0,0,0.8869,0,44,44,147,1,komisch,images/br_komisch.png,images/cb_komisch.png,0,,,,,,,,,,,,,,,,,,,,,,
,,,,,,00055,2023-10-12_20h28.59.796,vbt_B2_day2,2022.2.4,Win32,59.89099838,,,,,,,,,,,,,,,,,,,,,,,,,,,down,0,1.2544,,0.474074046,-0.309259273,1,0,0,0.6534,0,45,45,50,1,stoom,images/br_stoom.png,images/cb_stoom.png,0,,,,,,,,,,,,,,,,,,,,,,
,,,,,,00055,2023-10-12_20h28.59.796,vbt_B2_day2,2022.2.4,Win32,59.89099838,,,,,,,,,,,,,,,,,,,,,,,,,,,down,0,6.1832,,0.474074046,-0.309259273,1,0,0,0.5156,0,46,46,60,1,jasje,images/br_jasje.png,images/cb_jasje.png,0,,,,,,,,,,,,,,,,,,,,,,
,,,,,,00055,2023-10-12_20h28.59.796,vbt_B2_day2,2022.2.4,Win32,59.89099838,,,,,,,,,,,,,,,,,,,,,,,,,,,down,0,3.4145,,0.474074046,-0.309259273,1,0,0,0.7956,0,47,47,58,1,tekst,images/br_tekst.png,images/cb_tekst.png,1,tekst,,,,,,,,,,,,,,,,,,,,,
,,,,,,00055,2023-10-12_20h28.59.796,vbt_B2_day2,2022.2.4,Win32,59.89099838,,,,,,,,,,,,,,,,,,,,,,,,,,,down,0,7.1504,,0.474074046,-0.309259273,1,0,0,0.5661,0,48,48,183,1,getuigen,images/br_getuigen.png,images/cb_getuigen.png,0,,,,,,,,,,,,,,,,,,,,,,
,,,,,,00055,2023-10-12_20h28.59.796,vbt_B2_day2,2022.2.4,Win32,59.89099838,,,,,,,,,,,,,,,,,,,,,,,,,,,down,0,7.3174,,0.475000028,-0.309259273,1,0,0,0.502,0,49,49,102,1,legaal,images/br_legaal.png,images/cb_legaal.png,0,,,,,,,,,,,,,,,,,,,,,,
,,,,,,00055,2023-10-12_20h28.59.796,vbt_B2_day2,2022.2.4,Win32,59.89099838,,,,,,,,,,,,,,,,,,,,,,,,,,,down,0,19.9662,,0.259259259,-0.255555541,1,0,0,0.8317,0,50,50,53,1,baron,images/br_baron.png,images/cb_baron.png,0,,,,,,,,,,,,,,,,,,,,,,
,,,,,,00055,2023-10-12_20h28.59.796,vbt_B2_day2,2022.2.4,Win32,59.89099838,,,,,,,,,,,,,,,,,,,,,,,,,,,down,0,3.0149,,0.256481524,-0.106481481,1,0,0,1.3324,0,51,51,79,1,nodig,images/br_nodig.png,images/cb_nodig.png,0,,,,,,,,,,,,,,,,,,,,,,
,,,,,,00055,2023-10-12_20h28.59.796,vbt_B2_day2,2022.2.4,Win32,59.89099838,,,,,,,,,,,,,,,,,,,,,,,,,,,down,0,3.2781,,0.256481524,-0.106481481,1,0,0,0.4166,0,52,52,59,1,kring,images/br_kring.png,images/cb_kring.png,1,kring,,,,,,,,,,,,,,,,,,,,,
,,,,,,00055,2023-10-12_20h28.59.796,vbt_B2_day2,2022.2.4,Win32,59.89099838,,,,,,,,,,,,,,,,,,,,,,,,,,,down,0,11.4126,,0.315740797,-0.128703718,1,0,0,0.6157,0,53,53,193,1,weeshuis,images/br_weeshuis.png,images/cb_weeshuis.png,0,,,,,,,,,,,,,,,,,,,,,,
,,,,,,00055,2023-10-12_20h28.59.796,vbt_B2_day2,2022.2.4,Win32,59.89099838,,,,,,,,,,,,,,,,,,,,,,,,,,,down,0,9.1813,,0.366666723,0.087962963,1,0,0,0.5994,0,54,54,165,1,feestdag,images/br_feestdag.png,images/cb_feestdag.png,0,,,,,,,,,,,,,,,,,,,,,,
,,,,,,00055,2023-10-12_20h28.59.796,vbt_B2_day2,2022.2.4,Win32,59.89099838,,,,,,,,,,,,,,,,,,,,,,,,,,,down,0,5.7984,,0.3648149,0.02870369,1,0,0,0.3002,0,55,55,24,1,jurk,images/br_jurk.png,images/cb_jurk.png,0,,,,,,,,,,,,,,,,,,,,,,
,,,,,,00055,2023-10-12_20h28.59.796,vbt_B2_day2,2022.2.4,Win32,59.89099838,,,,,,,,,,,,,,,,,,,,,,,,,,,down,0,5.1727,,0.345370399,-0.019444466,1,0,0,0.5058,0,56,56,92,1,geheim,images/br_geheim.png,images/cb_geheim.png,0,,,,,,,,,,,,,,,,,,,,,,
,,,,,,00055,2023-10-12_20h28.59.796,vbt_B2_day2,2022.2.4,Win32,59.89099838,,,,,,,,,,,,,,,,,,,,,,,,,,,down,0,5.7443,,0.227777764,0.025000007,1,0,0,0.6466,0,57,57,186,1,voorraad,images/br_voorraad.png,images/cb_voorraad.png,0,,,,,,,,,,,,,,,,,,,,,,
,,,,,,00055,2023-10-12_20h28.59.796,vbt_B2_day2,2022.2.4,Win32,59.89099838,,,,,,,,,,,,,,,,,,,,,,,,,,,down,0,1.2823,,0.132407436,-0.00462963,1,0,0,0.6633,0,58,58,109,1,totaal,images/br_totaal.png,images/cb_totaal.png,0,,,,,,,,,,,,,,,,,,,,,,
,,,,,,00055,2023-10-12_20h28.59.796,vbt_B2_day2,2022.2.4,Win32,59.89099838,,,,,,,,,,,,,,,,,,,,,,,,,,,down,0,1.6257,,0.158333319,0.049074067,1,0,0,0.5335,0,59,59,48,1,steel,images/br_steel.png,images/cb_steel.png,0,,,,,,,,,,,,,,,,,,,,,,
,,,,,,00055,2023-10-12_20h28.59.796,vbt_B2_day2,2022.2.4,Win32,59.89099838,,,,,,,,,,,,,,,,,,,,,,,,,,,down,0,7.7904,,0.20185188,-0.056481503,1,0,0,0.6532,0,60,60,71,1,bever,images/br_bever.png,images/cb_bever.png,0,,,,,,,,,,,,,,,,,,,,,,
,,,,,,00055,2023-10-12_20h28.59.796,vbt_B2_day2,2022.2.4,Win32,59.89099838,,,,,,,,,,,,,,,,,,,,,,,,,,,down,0,27.7408,,0.268518519,-0.113888917,1,0,0,2.8998,0,61,61,66,1,lever,images/br_lever.png,images/cb_lever.png,0,,,,,,,,,,,,,,,,,,,,,,
,,,,,,00055,2023-10-12_20h28.59.796,vbt_B2_day2,2022.2.4,Win32,59.89099838,,,,,,,,,,,,,,,,,,,,,,,,,,,down,0,9.1319,,0.275925954,-0.115740741,1,0,0,1.4494,0,62,62,7,1,geld,images/br_geld.png,images/cb_geld.png,0,,,,,,,,,,,,,,,,,,,,,,
,,,,,,00055,2023-10-12_20h28.59.796,vbt_B2_day2,2022.2.4,Win32,59.89099838,,,,,,,,,,,,,,,,,,,,,,,,,,,down,0,10.0006,,0.270370413,-0.112963005,1,0,0,1.4506,0,63,63,176,1,techniek,images/br_techniek.png,images/cb_techniek.png,1,techniek,,,,,,,,,,,,,,,,,,,,,
,,,,,,00055,2023-10-12_20h28.59.796,vbt_B2_day2,2022.2.4,Win32,59.89099838,,,,,,,,,,,,,,,,,,,,,,,,,,,down,0,6.8322,,0.270370413,-0.112963005,1,0,0,1.9826,0,64,64,140,1,blijven,images/br_blijven.png,images/cb_blijven.png,0,,,,,,,,,,,,,,,,,,,,,,
,,,,,,00055,2023-10-12_20h28.59.796,vbt_B2_day2,2022.2.4,Win32,59.89099838,,,,,,,,,,,,,,,,,,,,,,,,,,,down,0,7.1007,,0.267592607,-0.124074088,1,0,0,0.8706,0,65,65,163,1,schuilen,images/br_schuilen.png,images/cb_schuilen.png,0,,,,,,,,,,,,,,,,,,,,,,
,,,,,,00055,2023-10-12_20h28.59.796,vbt_B2_day2,2022.2.4,Win32,59.89099838,,,,,,,,,,,,,,,,,,,,,,,,,,,down,0,11.3456,,0.260185171,-0.128703718,1,0,0,0.6462,0,66,66,141,1,knielen,images/br_knielen.png,images/cb_knielen.png,0,,,,,,,,,,,,,,,,,,,,,,
,,,,,,00055,2023-10-12_20h28.59.796,vbt_B2_day2,2022.2.4,Win32,59.89099838,,,,,,,,,,,,,,,,,,,,,,,,,,,down,0,3.1192,,0.260185171,-0.128703718,1,0,0,0.7535,0,67,67,112,1,lukken,images/br_lukken.png,images/cb_lukken.png,0,,,,,,,,,,,,,,,,,,,,,,
,,,,,,00055,2023-10-12_20h28.59.796,vbt_B2_day2,2022.2.4,Win32,59.89099838,,,,,,,,,,,,,,,,,,,,,,,,,,,down,0,0.8315,,0.260185171,-0.128703718,1,0,0,0.961,0,68,68,34,1,vorm,images/br_vorm.png,images/cb_vorm.png,0,,,,,,,,,,,,,,,,,,,,,,
,,,,,,00055,2023-10-12_20h28.59.796,vbt_B2_day2,2022.2.4,Win32,59.89099838,,,,,,,,,,,,,,,,,,,,,,,,,,,down,0,1.4502,,0.256481524,-0.128703718,1,0,0,0.5994,0,69,69,114,1,vullen,images/br_vullen.png,images/cb_vullen.png,0,,,,,,,,,,,,,,,,,,,,,,
,,,,,,00055,2023-10-12_20h28.59.796,vbt_B2_day2,2022.2.4,Win32,59.89099838,,,,,,,,,,,,,,,,,,,,,,,,,,,down,0,4.5541,,0.156481496,0.000925912,1,0,0,0.5547,0,70,70,170,1,schatten,images/br_schatten.png,images/cb_schatten.png,0,,,,,,,,,,,,,,,,,,,,,,
,,,,,,00055,2023-10-12_20h28.59.796,vbt_B2_day2,2022.2.4,Win32,59.89099838,,,,,,,,,,,,,,,,,,,,,,,,,,,down,0,2.0334,,0.286111125,-0.303703732,1,0,0,0.7995,0,71,71,17,1,taal,images/br_taal.png,images/cb_taal.png,1,taal,,,,,,,,,,,,,,,,,,,,,
,,,,,,00055,2023-10-12_20h28.59.796,vbt_B2_day2,2022.2.4,Win32,59.89099838,,,,,,,,,,,,,,,,,,,,,,,,,,,down,0,2.8155,,0.165740755,-0.044444437,1,0,0,0.632,0,72,72,42,1,bleek,images/br_bleek.png,images/cb_bleek.png,0,,,,,,,,,,,,,,,,,,,,,,
,,,,,,00055,2023-10-12_20h28.59.796,vbt_B2_day2,2022.2.4,Win32,59.89099838,,,,,,,,,,,,,,,,,,,,,,,,,,,down,0,1.9699,,0.172222208,-0.039814808,1,0,0,0.9527,0,73,73,41,1,maken,images/br_maken.png,images/cb_maken.png,0,,,,,,,,,,,,,,,,,,,,,,
,,,,,,00055,2023-10-12_20h28.59.796,vbt_B2_day2,2022.2.4,Win32,59.89099838,,,,,,,,,,,,,,,,,,,,,,,,,,,down,0,4.6651,,0.175000014,-0.043518526,1,0,0,0.6825,0,74,74,81,1,dubbel,images/br_dubbel.png,images/cb_dubbel.png,0,,,,,,,,,,,,,,,,,,,,,,
,,,,,,00055,2023-10-12_20h28.59.796,vbt_B2_day2,2022.2.4,Win32,59.89099838,,,,,,,,,,,,,,,,,,,,,,,,,,,down,0,4.1536,,0.175000014,-0.040740755,1,0,0,1.6164,0,75,75,152,1,afnemen,images/br_afnemen.png,images/cb_afnemen.png,0,,,,,,,,,,,,,,,,,,,,,,
,,,,,,00055,2023-10-12_20h28.59.796,vbt_B2_day2,2022.2.4,Win32,59.89099838,,,,,,,,,,,,,,,,,,,,,,,,,,,down,0,3.5782,,0.176851838,-0.041666667,1,0,0,1.149,0,76,76,110,1,zuster,images/br_zuster.png,images/cb_zuster.png,0,,,,,,,,,,,,,,,,,,,,,,
,,,,,,00055,2023-10-12_20h28.59.796,vbt_B2_day2,2022.2.4,Win32,59.89099838,,,,,,,,,,,,,,,,,,,,,,,,,,,down,0,4.9294,,0.17777782,-0.048148155,1,0,0,1.0202,0,77,77,172,1,weigeren,images/br_weigeren.png,images/cb_weigeren.png,0,,,,,,,,,,,,,,,,,,,,,,
,,,,,,00055,2023-10-12_20h28.59.796,vbt_B2_day2,2022.2.4,Win32,59.89099838,,,,,,,,,,,,,,,,,,,,,,,,,,,down,0,20.9799,,0.17777782,-0.048148155,1,0,0,0.6984,0,78,78,80,1,kanjer,images/br_kanjer.png,images/cb_kanjer.png,0,,,,,,,,,,,,,,,,,,,,,,
,,,,,,00055,2023-10-12_20h28.59.796,vbt_B2_day2,2022.2.4,Win32,59.89099838,,,,,,,,,,,,,,,,,,,,,,,,,,,down,0,6.0442,,0.179629644,-0.047222243,1,0,0,0.7496,0,79,79,27,1,dans,images/br_dans.png,images/cb_dans.png,0,,,,,,,,,,,,,,,,,,,,,,
,,,,,,00055,2023-10-12_20h28.59.796,vbt_B2_day2,2022.2.4,Win32,59.89099838,,,,,,,,,,,,,,,,,,,,,,,,,,,down,0,1.0545,,0.160185213,-0.049074067,1,0,0,0.8204,0,80,80,20,1,site,images/br_site.png,images/cb_site.png,0,,,,,,,,,,,,,,,,,,,,,,
,,,,,,00055,2023-10-12_20h28.59.796,vbt_B2_day2,2022.2.4,Win32,59.89099838,,,,,,,,,,,,,,,,,,,,,,,,,,,down,0,4.1714,,0.125,-0.043518526,1,0,0,0.6653,0,81,81,175,1,heengaan,images/br_heengaan.png,images/cb_heengaan.png,0,,,,,,,,,,,,,,,,,,,,,,
,,,,,,00055,2023-10-12_20h28.59.796,vbt_B2_day2,2022.2.4,Win32,59.89099838,,,,,,,,,,,,,,,,,,,,,,,,,,,down,0,2.3846,,0.140740783,-0.044444437,1,0,0,0.6513,0,82,82,55,1,praat,images/br_praat.png,images/cb_praat.png,0,,,,,,,,,,,,,,,,,,,,,,
,,,,,,00055,2023-10-12_20h28.59.796,vbt_B2_day2,2022.2.4,Win32,59.89099838,,,,,,,,,,,,,,,,,,,,,,,,,,,down,0,4.0144,,0.146296325,-0.045370384,1,0,0,0.6701,0,83,83,46,1,jagen,images/br_jagen.png,images/cb_jagen.png,0,,,,,,,,,,,,,,,,,,,,,,
,,,,,,00055,2023-10-12_20h28.59.796,vbt_B2_day2,2022.2.4,Win32,59.89099838,,,,,,,,,,,,,,,,,,,,,,,,,,,down,0,3.0087,,0.142592607,-0.046296296,1,0,0,0.5741,0,84,84,12,1,kust,images/br_kust.png,images/cb_kust.png,0,,,,,,,,,,,,,,,,,,,,,,
,,,,,,00055,2023-10-12_20h28.59.796,vbt_B2_day2,2022.2.4,Win32,59.89099838,,,,,,,,,,,,,,,,,,,,,,,,,,,down,0,13.4994,,0.150000042,-0.048148155,1,0,0,1.7998,0,85,85,142,1,snuiven,images/br_snuiven.png,images/cb_snuiven.png,0,,,,,,,,,,,,,,,,,,,,,,
,,,,,,00055,2023-10-12_20h28.59.796,vbt_B2_day2,2022.2.4,Win32,59.89099838,,,,,,,,,,,,,,,,,,,,,,,,,,,down,0,101.7573,,0.150000042,-0.048148155,1,0,0,2.4836,0,86,86,181,1,toegeven,images/br_toegeven.png,images/cb_toegeven.png,0,,,,,,,,,,,,,,,,,,,,,,
,,,,,,00055,2023-10-12_20h28.59.796,vbt_B2_day2,2022.2.4,Win32,59.89099838,,,,,,,,,,,,,,,,,,,,,,,,,,,down,0,3.365,,0.148148148,-0.048148155,1,0,0,0.4659,0,87,87,67,1,zwart,images/br_zwart.png,images/cb_zwart.png,0,,,,,,,,,,,,,,,,,,,,,,
,,,,,,00055,2023-10-12_20h28.59.796,vbt_B2_day2,2022.2.4,Win32,59.89099838,,,,,,,,,,,,,,,,,,,,,,,,,,,down,0,7.8524,,0.172222208,0.01203703,1,0,0,0.8496,0,88,88,149,1,redding,images/br_redding.png,images/cb_redding.png,0,,,,,,,,,,,,,,,,,,,,,,
,,,,,,00055,2023-10-12_20h28.59.796,vbt_B2_day2,2022.2.4,Win32,59.89099838,,,,,,,,,,,,,,,,,,,,,,,,,,,down,0,5.1489,,0.172222208,0.01203703,1,0,0,0.8664,0,89,89,40,1,schep,images/br_schep.png,images/cb_schep.png,0,,,,,,,,,,,,,,,,,,,,,,
,,,,,,00055,2023-10-12_20h28.59.796,vbt_B2_day2,2022.2.4,Win32,59.89099838,,,,,,,,,,,,,,,,,,,,,,,,,,,down,0,8.1297,,0.172222208,0.01203703,1,0,0,0.9663,0,90,90,108,1,excuus,images/br_excuus.png,images/cb_excuus.png,0,,,,,,,,,,,,,,,,,,,,,,
,,,,,,00055,2023-10-12_20h28.59.796,vbt_B2_day2,2022.2.4,Win32,59.89099838,,,,,,,,,,,,,,,,,,,,,,,,,,,down,0,11.8532,,0.172222208,0.01203703,1,0,0,1.0874,0,91,91,187,1,opkijken,images/br_opkijken.png,images/cb_opkijken.png,0,,,,,,,,,,,,,,,,,,,,,,
,,,,,,00055,2023-10-12_20h28.59.796,vbt_B2_day2,2022.2.4,Win32,59.89099838,,,,,,,,,,,,,,,,,,,,,,,,,,,down,0,8.3297,,0.172222208,0.01203703,1,0,0,1.0162,0,92,92,68,1,schat,images/br_schat.png,images/cb_schat.png,0,,,,,,,,,,,,,,,,,,,,,,
,,,,,,00055,2023-10-12_20h28.59.796,vbt_B2_day2,2022.2.4,Win32,59.89099838,,,,,,,,,,,,,,,,,,,,,,,,,,,down,0,8.8594,,0.172222208,0.01203703,1,0,0,0.6996,0,93,93,143,1,hechten,images/br_hechten.png,images/cb_hechten.png,0,,,,,,,,,,,,,,,,,,,,,,
,,,,,,00055,2023-10-12_20h28.59.796,vbt_B2_day2,2022.2.4,Win32,59.89099838,,,,,,,,,,,,,,,,,,,,,,,,,,,down,0,8.1033,,0.172222208,0.01203703,1,0,0,3.6152,0,94,94,161,1,attentie,images/br_attentie.png,images/cb_attentie.png,0,,,,,,,,,,,,,,,,,,,,,,
,,,,,,00055,2023-10-12_20h28.59.796,vbt_B2_day2,2022.2.4,Win32,59.89099838,,,,,,,,,,,,,,,,,,,,,,,,,,,down,0,2.3889,,0.172222208,0.01203703,1,0,0,1.0531,0,95,95,10,1,leek,images/br_leek.png,images/cb_leek.png,0,,,,,,,,,,,,,,,,,,,,,,
,,,,,,00055,2023-10-12_20h28.59.796,vbt_B2_day2,2022.2.4,Win32,59.89099838,,,,,,,,,,,,,,,,,,,,,,,,,,,down,0,5.4824,,0.172222208,0.01203703,1,0,0,1.7157,0,96,96,168,1,bisschop,images/br_bisschop.png,images/cb_bisschop.png,0,,,,,,,,,,,,,,,,,,,,,,
,,,,,,00055,2023-10-12_20h28.59.796,vbt_B2_day2,2022.2.4,Win32,59.89099838,,,,,,,,,,,,,,,,,,,,,,,,,,,down,0,1.4312,,0.172222208,0.01203703,1,0,0,2.1989,0,97,97,100,1,geduld,images/br_geduld.png,images/cb_geduld.png,0,,,,,,,,,,,,,,,,,,,,,,
,,,,,,00055,2023-10-12_20h28.59.796,vbt_B2_day2,2022.2.4,Win32,59.89099838,,,,,,,,,,,,,,,,,,,,,,,,,,,down,0,3.8186,,0.172222208,0.01203703,1,0,0,0.8158,0,98,98,146,1,opkomen,images/br_opkomen.png,images/cb_opkomen.png,0,,,,,,,,,,,,,,,,,,,,,,
,,,,,,00055,2023-10-12_20h28.59.796,vbt_B2_day2,2022.2.4,Win32,59.89099838,,,,,,,,,,,,,,,,,,,,,,,,,,,down,0,1.8374,,0.172222208,0.01203703,1,0,0,0.7827,0,99,99,106,1,zingen,images/br_zingen.png,images/cb_zingen.png,0,,,,,,,,,,,,,,,,,,,,,,
,,,,,,00055,2023-10-12_20h28.59.796,vbt_B2_day2,2022.2.4,Win32,59.89099838,,,,,,,,,,,,,,,,,,,,,,,,,,,down,0,2.7103,,0.172222208,0.01203703,1,0,0,0.9331,0,100,100,73,1,volop,images/br_volop.png,images/cb_volop.png,0,,,,,,,,,,,,,,,,,,,,,,
,,,,,,00055,2023-10-12_20h28.59.796,vbt_B2_day2,2022.2.4,Win32,59.89099838,,,,,,,,,,,,,,,,,,,,,,,,,,,down,0,6.4745,,0.172222208,0.01203703,1,0,0,2.7319,0,101,101,104,1,zweven,images/br_zweven.png,images/cb_zweven.png,0,,,,,,,,,,,,,,,,,,,,,,
,,,,,,00055,2023-10-12_20h28.59.796,vbt_B2_day2,2022.2.4,Win32,59.89099838,,,,,,,,,,,,,,,,,,,,,,,,,,,down,0,34.8837,,0.172222208,0.01203703,1,0,0,0.3999,0,102,102,157,1,uitlaat,images/br_uitlaat.png,images/cb_uitlaat.png,0,,,,,,,,,,,,,,,,,,,,,,
,,,,,,00055,2023-10-12_20h28.59.796,vbt_B2_day2,2022.2.4,Win32,59.89099838,,,,,,,,,,,,,,,,,,,,,,,,,,,down,0,5.5348,,0.365740741,-0.189814815,1,0,0,0.7822,0,103,103,122,1,waarvan,images/br_waarvan.png,images/cb_waarvan.png,0,,,,,,,,,,,,,,,,,,,,,,
,,,,,,00055,2023-10-12_20h28.59.796,vbt_B2_day2,2022.2.4,Win32,59.89099838,,,,,,,,,,,,,,,,,,,,,,,,,,,down,0,2.6747,,0.365740741,-0.189814815,1,0,0,0.5161,0,104,104,180,1,openbaar,images/br_openbaar.png,images/cb_openbaar.png,0,,,,,,,,,,,,,,,,,,,,,,
,,,,,,00055,2023-10-12_20h28.59.796,vbt_B2_day2,2022.2.4,Win32,59.89099838,,,,,,,,,,,,,,,,,,,,,,,,,,,down,0,3.2488,,0.365740741,-0.189814815,1,0,0,0.7494,0,105,105,88,1,boeien,images/br_boeien.png,images/cb_boeien.png,0,,,,,,,,,,,,,,,,,,,,,,
,,,,,,00055,2023-10-12_20h28.59.796,vbt_B2_day2,2022.2.4,Win32,59.89099838,,,,,,,,,,,,,,,,,,,,,,,,,,,down,0,11.1995,,0.365740741,-0.189814815,1,0,0,0.7164,0,106,106,130,1,keihard,images/br_keihard.png,images/cb_keihard.png,0,,,,,,,,,,,,,,,,,,,,,,
,,,,,,00055,2023-10-12_20h28.59.796,vbt_B2_day2,2022.2.4,Win32,59.89099838,,,,,,,,,,,,,,,,,,,,,,,,,,,down,0,4.0016,,0.365740741,-0.189814815,1,0,0,0.8833,0,107,107,56,1,traag,images/br_traag.png,images/cb_traag.png,1,traag,,,,,,,,,,,,,,,,,,,,,
,,,,,,00055,2023-10-12_20h28.59.796,vbt_B2_day2,2022.2.4,Win32,59.89099838,,,,,,,,,,,,,,,,,,,,,,,,,,,down,0,12.5816,,0.365740741,-0.189814815,1,0,0,0.7996,0,108,108,124,1,bloeien,images/br_bloeien.png,images/cb_bloeien.png,0,,,,,,,,,,,,,,,,,,,,,,
,,,,,,00055,2023-10-12_20h28.59.796,vbt_B2_day2,2022.2.4,Win32,59.89099838,,,,,,,,,,,,,,,,,,,,,,,,,,,down,0,4.1411,,0.365740741,-0.189814815,1,0,0,0.8499,0,109,109,14,1,rijp,images/br_rijp.png,images/cb_rijp.png,0,,,,,,,,,,,,,,,,,,,,,,
,,,,,,00055,2023-10-12_20h28.59.796,vbt_B2_day2,2022.2.4,Win32,59.89099838,,,,,,,,,,,,,,,,,,,,,,,,,,,down,0,2.271,,0.395370342,-0.192592621,1,0,0,1.1829,0,110,110,173,1,apparaat,images/br_apparaat.png,images/cb_apparaat.png,0,,,,,,,,,,,,,,,,,,,,,,
,,,,,,00055,2023-10-12_20h28.59.796,vbt_B2_day2,2022.2.4,Win32,59.89099838,,,,,,,,,,,,,,,,,,,,,,,,,,,down,0,3.5199,,0.395370342,-0.193518533,1,0,0,0.7997,0,111,111,51,1,samen,images/br_samen.png,images/cb_samen.png,0,,,,,,,,,,,,,,,,,,,,,,
,,,,,,00055,2023-10-12_20h28.59.796,vbt_B2_day2,2022.2.4,Win32,59.89099838,,,,,,,,,,,,,,,,,,,,,,,,,,,down,0,3.8056,,0.387963048,-0.208333333,1,0,0,1.0824,0,112,112,97,1,loyaal,images/br_loyaal.png,images/cb_loyaal.png,1,loyaal,,,,,,,,,,,,,,,,,,,,,
,,,,,,00055,2023-10-12_20h28.59.796,vbt_B2_day2,2022.2.4,Win32,59.89099838,,,,,,,,,,,,,,,,,,,,,,,,,,,down,0,1.6383,,0.387963048,-0.209259245,1,0,0,0.4664,0,113,113,0,1,slak,images/br_slak.png,images/cb_slak.png,0,,,,,,,,,,,,,,,,,,,,,,
,,,,,,00055,2023-10-12_20h28.59.796,vbt_B2_day2,2022.2.4,Win32,59.89099838,,,,,,,,,,,,,,,,,,,,,,,,,,,down,0,5.9822,,0.387963048,-0.209259245,1,0,0,0.5999,0,114,114,35,1,lust,images/br_lust.png,images/cb_lust.png,0,,,,,,,,,,,,,,,,,,,,,,
,,,,,,00055,2023-10-12_20h28.59.796,vbt_B2_day2,2022.2.4,Win32,59.89099838,,,,,,,,,,,,,,,,,,,,,,,,,,,down,0,1.9339,,0.387963048,-0.209259245,1,0,0,0.6495,0,115,115,4,1,moes,images/br_moes.png,images/cb_moes.png,0,,,,,,,,,,,,,,,,,,,,,,
,,,,,,00055,2023-10-12_20h28.59.796,vbt_B2_day2,2022.2.4,Win32,59.89099838,,,,,,,,,,,,,,,,,,,,,,,,,,,down,0,4.3347,,0.387963048,-0.209259245,1,0,0,0.5998,0,116,116,101,1,staren,images/br_staren.png,images/cb_staren.png,0,,,,,,,,,,,,,,,,,,,,,,
,,,,,,00055,2023-10-12_20h28.59.796,vbt_B2_day2,2022.2.4,Win32,59.89099838,,,,,,,,,,,,,,,,,,,,,,,,,,,down,0,6.7319,,0.388888889,-0.209259245,1,0,0,0.5161,0,117,117,197,1,spanning,images/br_spanning.png,images/cb_spanning.png,0,,,,,,,,,,,,,,,,,,,,,,
,,,,,,00055,2023-10-12_20h28.59.796,vbt_B2_day2,2022.2.4,Win32,59.89099838,,,,,,,,,,,,,,,,,,,,,,,,,,,down,0,3.3051,,0.388888889,-0.209259245,1,0,0,0.483,0,118,118,70,1,ijdel,images/br_ijdel.png,images/cb_ijdel.png,0,,,,,,,,,,,,,,,,,,,,,,
,,,,,,00055,2023-10-12_20h28.59.796,vbt_B2_day2,2022.2.4,Win32,59.89099838,,,,,,,,,,,,,,,,,,,,,,,,,,,down,0,6.4057,,0.388888889,-0.209259245,1,0,0,0.866,0,119,119,154,1,aflopen,images/br_aflopen.png,images/cb_aflopen.png,0,,,,,,,,,,,,,,,,,,,,,,
,,,,,,00055,2023-10-12_20h28.59.796,vbt_B2_day2,2022.2.4,Win32,59.89099838,,,,,,,,,,,,,,,,,,,,,,,,,,,down,0,4.0604,,0.388888889,-0.209259245,1,0,0,0.6165,0,120,120,188,1,strekken,images/br_strekken.png,images/cb_strekken.png,0,,,,,,,,,,,,,,,,,,,,,,
,,,,,,00055,2023-10-12_20h28.59.796,vbt_B2_day2,2022.2.4,Win32,59.89099838,,,,,,,,,,,,,,,,,,,,,,,,,,,down,0,3.301,,0.388888889,-0.209259245,1,0,0,0.533,0,121,121,64,1,wegen,images/br_wegen.png,images/cb_wegen.png,0,,,,,,,,,,,,,,,,,,,,,,
,,,,,,00055,2023-10-12_20h28.59.796,vbt_B2_day2,2022.2.4,Win32,59.89099838,,,,,,,,,,,,,,,,,,,,,,,,,,,down,0,1.8093,,0.388888889,-0.209259245,1,0,0,0.5995,0,122,122,15,1,soda,images/br_soda.png,images/cb_soda.png,0,,,,,,,,,,,,,,,,,,,,,,
,,,,,,00055,2023-10-12_20h28.59.796,vbt_B2_day2,2022.2.4,Win32,59.89099838,,,,,,,,,,,,,,,,,,,,,,,,,,,down,0,1.8862,,0.388888889,-0.209259245,1,0,0,0.5994,0,123,123,6,1,diep,images/br_diep.png,images/cb_diep.png,0,,,,,,,,,,,,,,,,,,,,,,
,,,,,,00055,2023-10-12_20h28.59.796,vbt_B2_day2,2022.2.4,Win32,59.89099838,,,,,,,,,,,,,,,,,,,,,,,,,,,down,0,1.7772,,0.388888889,-0.209259245,1,0,0,0.5666,0,124,124,39,1,laag,images/br_laag.png,images/cb_laag.png,0,,,,,,,,,,,,,,,,,,,,,,
,,,,,,00055,2023-10-12_20h28.59.796,vbt_B2_day2,2022.2.4,Win32,59.89099838,,,,,,,,,,,,,,,,,,,,,,,,,,,down,0,4.2788,,0.388888889,-0.209259245,1,0,0,1.1327,0,125,125,155,1,gerucht,images/br_gerucht.png,images/cb_gerucht.png,0,,,,,,,,,,,,,,,,,,,,,,
,,,,,,00055,2023-10-12_20h28.59.796,vbt_B2_day2,2022.2.4,Win32,59.89099838,,,,,,,,,,,,,,,,,,,,,,,,,,,down,0,4.6667,,0.388888889,-0.209259245,1,0,0,0.6537,0,126,126,69,1,waken,images/br_waken.png,images/cb_waken.png,0,,,,,,,,,,,,,,,,,,,,,,
,,,,,,00055,2023-10-12_20h28.59.796,vbt_B2_day2,2022.2.4,Win32,59.89099838,,,,,,,,,,,,,,,,,,,,,,,,,,,down,0,5.1303,,0.388888889,-0.209259245,1,0,0,0.8831,0,127,127,91,1,gezond,images/br_gezond.png,images/cb_gezond.png,0,,,,,,,,,,,,,,,,,,,,,,
,,,,,,00055,2023-10-12_20h28.59.796,vbt_B2_day2,2022.2.4,Win32,59.89099838,,,,,,,,,,,,,,,,,,,,,,,,,,,down,0,2.3829,,0.388888889,-0.209259245,1,0,0,0.5533,0,128,128,150,1,gegeven,images/br_gegeven.png,images/cb_gegeven.png,0,,,,,,,,,,,,,,,,,,,,,,
,,,,,,00055,2023-10-12_20h28.59.796,vbt_B2_day2,2022.2.4,Win32,59.89099838,,,,,,,,,,,,,,,,,,,,,,,,,,,down,0,0.9,,0.388888889,-0.209259245,1,0,0,0.5796,0,129,129,1,1,zaal,images/br_zaal.png,images/cb_zaal.png,0,,,,,,,,,,,,,,,,,,,,,,
,,,,,,00055,2023-10-12_20h28.59.796,vbt_B2_day2,2022.2.4,Win32,59.89099838,,,,,,,,,,,,,,,,,,,,,,,,,,,down,0,22.9106,,0.242592635,-0.125925912,1,0,0,4.2471,0,130,130,153,1,vervoer,images/br_vervoer.png,images/cb_vervoer.png,0,,,,,,,,,,,,,,,,,,,,,,
,,,,,,00055,2023-10-12_20h28.59.796,vbt_B2_day2,2022.2.4,Win32,59.89099838,,,,,,,,,,,,,,,,,,,,,,,,,,,down,0,5.331,,0.190740727,-0.014814836,1,0,0,0.3664,0,131,131,182,1,bijkomen,images/br_bijkomen.png,images/cb_bijkomen.png,0,,,,,,,,,,,,,,,,,,,,,,
,,,,,,00055,2023-10-12_20h28.59.796,vbt_B2_day2,2022.2.4,Win32,59.89099838,,,,,,,,,,,,,,,,,,,,,,,,,,,down,0,11.8089,,0.172222208,-0.013888889,1,0,0,11.2495,0,132,132,105,1,wijlen,images/br_wijlen.png,images/cb_wijlen.png,0,,,,,,,,,,,,,,,,,,,,,,
,,,,,,00055,2023-10-12_20h28.59.796,vbt_B2_day2,2022.2.4,Win32,59.89099838,,,,,,,,,,,,,,,,,,,,,,,,,,,down,0,2.3851,,0.126851894,-0.012962977,1,0,0,0.7021,0,133,133,74,1,graaf,images/br_graaf.png,images/cb_graaf.png,0,,,,,,,,,,,,,,,,,,,,,,
,,,,,,00055,2023-10-12_20h28.59.796,vbt_B2_day2,2022.2.4,Win32,59.89099838,,,,,,,,,,,,,,,,,,,,,,,,,,,down,0,3.3854,,0.110185199,-0.036111125,1,0,0,0.6198,0,134,134,2,1,jaar,images/br_jaar.png,images/cb_jaar.png,0,,,,,,,,,,,,,,,,,,,,,,
,,,,,,00055,2023-10-12_20h28.59.796,vbt_B2_day2,2022.2.4,Win32,59.89099838,,,,,,,,,,,,,,,,,,,,,,,,,,,down,0,5.6656,,0.22129631,-0.020370377,1,0,0,0.4369,0,135,135,135,1,gedicht,images/br_gedicht.png,images/cb_gedicht.png,0,,,,,,,,,,,,,,,,,,,,,,
,,,,,,00055,2023-10-12_20h28.59.796,vbt_B2_day2,2022.2.4,Win32,59.89099838,,,,,,,,,,,,,,,,,,,,,,,,,,,down,0,0.9664,,0.042592578,0.002777771,1,0,0,0.43,0,136,136,49,1,laken,images/br_laken.png,images/cb_laken.png,0,,,,,,,,,,,,,,,,,,,,,,
,,,,,,00055,2023-10-12_20h28.59.796,vbt_B2_day2,2022.2.4,Win32,59.89099838,,,,,,,,,,,,,,,,,,,,,,,,,,,down,0,3.3992,,0.086111139,-0.0074074,1,0,0,0.6294,0,137,137,118,1,vinger,images/br_vinger.png,images/cb_vinger.png,0,,,,,,,,,,,,,,,,,,,,,,
,,,,,,00055,2023-10-12_20h28.59.796,vbt_B2_day2,2022.2.4,Win32,59.89099838,,,,,,,,,,,,,,,,,,,,,,,,,,,down,0,17.4809,,0.086111139,-0.01666666,1,0,0,0.8833,0,138,138,116,1,besmet,images/br_besmet.png,images/cb_besmet.png,0,,,,,,,,,,,,,,,,,,,,,,
,,,,,,00055,2023-10-12_20h28.59.796,vbt_B2_day2,2022.2.4,Win32,59.89099838,,,,,,,,,,,,,,,,,,,,,,,,,,,down,0,9.3694,,0.131481524,-0.073148162,1,0,0,8.3135,0,139,139,199,1,beseffen,images/br_beseffen.png,images/cb_beseffen.png,0,,,,,,,,,,,,,,,,,,,,,,
,,,,,,00055,2023-10-12_20h28.59.796,vbt_B2_day2,2022.2.4,Win32,59.89099838,,,,,,,,,,,,,,,,,,,,,,,,,,,down,0,3.0791,,0.123148176,0.003703683,1,0,0,0.4792,0,140,140,9,1,hier,images/br_hier.png,images/cb_hier.png,0,,,,,,,,,,,,,,,,,,,,,,
,,,,,,00055,2023-10-12_20h28.59.796,vbt_B2_day2,2022.2.4,Win32,59.89099838,,,,,,,,,,,,,,,,,,,,,,,,,,,down,0,1.1667,,0.133333347,-0.039814808,1,0,0,0.5836,0,141,141,38,1,baai,images/br_baai.png,images/cb_baai.png,0,,,,,,,,,,,,,,,,,,,,,,
,,,,,,00055,2023-10-12_20h28.59.796,vbt_B2_day2,2022.2.4,Win32,59.89099838,,,,,,,,,,,,,,,,,,,,,,,,,,,down,0,3.614,,0.087962963,0.003703683,1,0,0,0.417,0,142,142,198,1,bedoelen,images/br_bedoelen.png,images/cb_bedoelen.png,0,,,,,,,,,,,,,,,,,,,,,,
,,,,,,00055,2023-10-12_20h28.59.796,vbt_B2_day2,2022.2.4,Win32,59.89099838,,,,,,,,,,,,,,,,,,,,,,,,,,,down,0,5.2434,,0.136111153,-0.013888889,1,0,0,0.4473,0,143,143,131,1,opzicht,images/br_opzicht.png,images/cb_opzicht.png,0,,,,,,,,,,,,,,,,,,,,,,
,,,,,,00055,2023-10-12_20h28.59.796,vbt_B2_day2,2022.2.4,Win32,59.89099838,,,,,,,,,,,,,,,,,,,,,,,,,,,down,0,0.5299,,0.214814857,0.026851831,1,0,0,0.6293,0,144,144,5,1,blad,images/br_blad.png,images/cb_blad.png,0,,,,,,,,,,,,,,,,,,,,,,
,,,,,,00055,2023-10-12_20h28.59.796,vbt_B2_day2,2022.2.4,Win32,59.89099838,,,,,,,,,,,,,,,,,,,,,,,,,,,down,0,1.3624,,0.371296353,0.044444437,1,0,0,0.5826,0,145,145,36,1,vuur,images/br_vuur.png,images/cb_vuur.png,0,,,,,,,,,,,,,,,,,,,,,,
,,,,,,00055,2023-10-12_20h28.59.796,vbt_B2_day2,2022.2.4,Win32,59.89099838,,,,,,,,,,,,,,,,,,,,,,,,,,,down,0,1.1983,,-0.027777778,-0.013888889,1,0,0,0.6664,0,146,146,33,1,vlek,images/br_vlek.png,images/cb_vlek.png,0,,,,,,,,,,,,,,,,,,,,,,
,,,,,,00055,2023-10-12_20h28.59.796,vbt_B2_day2,2022.2.4,Win32,59.89099838,,,,,,,,,,,,,,,,,,,,,,,,,,,down,0,3.8027,,0.45648151,-0.12962963,1,0,0,0.5661,0,147,147,127,1,doodmoe,images/br_doodmoe.png,images/cb_doodmoe.png,0,,,,,,,,,,,,,,,,,,,,,,
,,,,,,00055,2023-10-12_20h28.59.796,vbt_B2_day2,2022.2.4,Win32,59.89099838,,,,,,,,,,,,,,,,,,,,,,,,,,,down,0,3.2185,,0.252777806,-0.127777806,1,0,0,0.5794,0,148,148,54,1,gebit,images/br_gebit.png,images/cb_gebit.png,0,,,,,,,,,,,,,,,,,,,,,,
,,,,,,00055,2023-10-12_20h28.59.796,vbt_B2_day2,2022.2.4,Win32,59.89099838,,,,,,,,,,,,,,,,,,,,,,,,,,,down,0,0.4431,,0.150925954,0,1,0,0,0.5835,0,149,149,21,1,mist,images/br_mist.png,images/cb_mist.png,0,,,,,,,,,,,,,,,,,,,,,,
,,,,,,00055,2023-10-12_20h28.59.796,vbt_B2_day2,2022.2.4,Win32,59.89099838,,,,,,,,,,,,,,,,,,,,,,,,,,,down,0,13.7542,,-0.05277775,-0.028703725,1,0,0,0.4332,0,150,150,25,1,plek,images/br_plek.png,images/cb_plek.png,0,,,,,,,,,,,,,,,,,,,,,,
,,,,,,00055,2023-10-12_20h28.59.796,vbt_B2_day2,2022.2.4,Win32,59.89099838,,,,,,,,,,,,,,,,,,,,,,,,,,,down,0,3.0998,,0.125925912,-0.140740783,1,0,0,0.733,0,151,151,19,1,geit,images/br_geit.png,images/cb_geit.png,1,geit,,,,,,,,,,,,,,,,,,,,,
,,,,,,00055,2023-10-12_20h28.59.796,vbt_B2_day2,2022.2.4,Win32,59.89099838,,,,,,,,,,,,,,,,,,,,,,,,,,,down,0,3.7038,,0.139814801,-0.140740783,1,0,0,0.35,0,152,152,78,1,leren,images/br_leren.png,images/cb_leren.png,0,,,,,,,,,,,,,,,,,,,,,,
,,,,,,00055,2023-10-12_20h28.59.796,vbt_B2_day2,2022.2.4,Win32,59.89099838,,,,,,,,,,,,,,,,,,,,,,,,,,,down,0,5.2254,,0.139814801,-0.140740783,1,0,0,0.9994,0,153,153,133,1,seizoen,images/br_seizoen.png,images/cb_seizoen.png,0,,,,,,,,,,,,,,,,,,,,,,
,,,,,,00055,2023-10-12_20h28.59.796,vbt_B2_day2,2022.2.4,Win32,59.89099838,,,,,,,,,,,,,,,,,,,,,,,,,,,down,0,8.3032,,0.139814801,-0.140740783,1,0,0,0.4504,0,154,154,159,1,sufferd,images/br_sufferd.png,images/cb_sufferd.png,0,,,,,,,,,,,,,,,,,,,,,,
,,,,,,00055,2023-10-12_20h28.59.796,vbt_B2_day2,2022.2.4,Win32,59.89099838,,,,,,,,,,,,,,,,,,,,,,,,,,,down,0,4.2877,,0.025000042,-0.003703718,1,0,0,0.4998,0,155,155,103,1,joggen,images/br_joggen.png,images/cb_joggen.png,0,,,,,,,,,,,,,,,,,,,,,,
,,,,,,00055,2023-10-12_20h28.59.796,vbt_B2_day2,2022.2.4,Win32,59.89099838,,,,,,,,,,,,,,,,,,,,,,,,,,,down,0,10.0227,,0.106481481,-0.035185178,1,0,0,5.3813,0,156,156,151,1,aanzoek,images/br_aanzoek.png,images/cb_aanzoek.png,0,,,,,,,,,,,,,,,,,,,,,,
,,,,,,00055,2023-10-12_20h28.59.796,vbt_B2_day2,2022.2.4,Win32,59.89099838,,,,,,,,,,,,,,,,,,,,,,,,,,,down,0,48.959,,0.106481481,-0.035185178,1,0,0,0.7163,0,157,157,156,1,rechten,images/br_rechten.png,images/cb_rechten.png,0,,,,,,,,,,,,,,,,,,,,,,
,,,,,,00055,2023-10-12_20h28.59.796,vbt_B2_day2,2022.2.4,Win32,59.89099838,,,,,,,,,,,,,,,,,,,,,,,,,,,down,0,6.4923,,0.106481481,-0.035185178,1,0,0,0.6333,0,158,158,94,1,oceaan,images/br_oceaan.png,images/cb_oceaan.png,0,,,,,,,,,,,,,,,,,,,,,,
,,,,,,00055,2023-10-12_20h28.59.796,vbt_B2_day2,2022.2.4,Win32,59.89099838,,,,,,,,,,,,,,,,,,,,,,,,,,,down,0,0.6567,,0.106481481,-0.035185178,1,0,0,0.7164,0,159,159,28,1,stal,images/br_stal.png,images/cb_stal.png,0,,,,,,,,,,,,,,,,,,,,,,
,,,,,,00055,2023-10-12_20h28.59.796,vbt_B2_day2,2022.2.4,Win32,59.89099838,,,,,,,,,,,,,,,,,,,,,,,,,,,down,0,1.5348,,0.097222222,-0.086111104,1,0,0,0.5163,0,160,160,90,1,geluid,images/br_geluid.png,images/cb_geluid.png,0,,,,,,,,,,,,,,,,,,,,,,
,,,,,,00055,2023-10-12_20h28.59.796,vbt_B2_day2,2022.2.4,Win32,59.89099838,,,,,,,,,,,,,,,,,,,,,,,,,,,down,0,4.72,,0.103703746,-0.085185192,1,0,0,1.0993,0,161,161,45,1,piste,images/br_piste.png,images/cb_piste.png,0,,,,,,,,,,,,,,,,,,,,,,
,,,,,,00055,2023-10-12_20h28.59.796,vbt_B2_day2,2022.2.4,Win32,59.89099838,,,,,,,,,,,,,,,,,,,,,,,,,,,down,0,2.9769,,0.106481481,-0.091666681,1,0,0,0.8003,0,162,162,62,1,knaap,images/br_knaap.png,images/cb_knaap.png,0,,,,,,,,,,,,,,,,,,,,,,
,,,,,,00055,2023-10-12_20h28.59.796,vbt_B2_day2,2022.2.4,Win32,59.89099838,,,,,,,,,,,,,,,,,,,,,,,,,,,down,0,2.5033,,0.107407393,-0.087037051,1,0,0,0.6326,0,163,163,192,1,schaamte,images/br_schaamte.png,images/cb_schaamte.png,0,,,,,,,,,,,,,,,,,,,,,,
,,,,,,00055,2023-10-12_20h28.59.796,vbt_B2_day2,2022.2.4,Win32,59.89099838,,,,,,,,,,,,,,,,,,,,,,,,,,,down,0,1.5238,,0.108333376,-0.087037051,1,0,0,0.6499,0,164,164,166,1,strikken,images/br_strikken.png,images/cb_strikken.png,0,,,,,,,,,,,,,,,,,,,,,,
,,,,,,00055,2023-10-12_20h28.59.796,vbt_B2_day2,2022.2.4,Win32,59.89099838,,,,,,,,,,,,,,,,,,,,,,,,,,,down,0,1.2599,,0.109259288,-0.08888891,1,0,0,0.3997,0,165,165,31,1,poes,images/br_poes.png,images/cb_poes.png,0,,,,,,,,,,,,,,,,,,,,,,
,,,,,,00055,2023-10-12_20h28.59.796,vbt_B2_day2,2022.2.4,Win32,59.89099838,,,,,,,,,,,,,,,,,,,,,,,,,,,down,0,3.5331,,0.107407393,-0.087962963,1,0,0,2.8153,0,166,166,144,1,eetlust,images/br_eetlust.png,images/cb_eetlust.png,0,,,,,,,,,,,,,,,,,,,,,,
,,,,,,00055,2023-10-12_20h28.59.796,vbt_B2_day2,2022.2.4,Win32,59.89099838,,,,,,,,,,,,,,,,,,,,,,,,,,,down,0,4.7921,,0.107407393,-0.086111104,1,0,0,0.6996,0,167,167,30,1,uien,images/br_uien.png,images/cb_uien.png,0,,,,,,,,,,,,,,,,,,,,,,
,,,,,,00055,2023-10-12_20h28.59.796,vbt_B2_day2,2022.2.4,Win32,59.89099838,,,,,,,,,,,,,,,,,,,,,,,,,,,down,0,7.3205,,0.109259288,-0.095370399,1,0,0,1.6158,0,168,168,123,1,hiervan,images/br_hiervan.png,images/cb_hiervan.png,0,,,,,,,,,,,,,,,,,,,,,,
,,,,,,00055,2023-10-12_20h28.59.796,vbt_B2_day2,2022.2.4,Win32,59.89099838,,,,,,,,,,,,,,,,,,,,,,,,,,,down,0,3.2546,,0.110185199,-0.091666681,1,0,0,1.2859,0,169,169,174,1,stemming,images/br_stemming.png,images/cb_stemming.png,0,,,,,,,,,,,,,,,,,,,,,,
,,,,,,00055,2023-10-12_20h28.59.796,vbt_B2_day2,2022.2.4,Win32,59.89099838,,,,,,,,,,,,,,,,,,,,,,,,,,,down,0,1.1181,,0.108333376,-0.089814822,1,0,0,3.4654,0,170,170,75,1,snoep,images/br_snoep.png,images/cb_snoep.png,0,,,,,,,,,,,,,,,,,,,,,,
,,,,,,00055,2023-10-12_20h28.59.796,vbt_B2_day2,2022.2.4,Win32,59.89099838,,,,,,,,,,,,,,,,,,,,,,,,,,,down,0,5.353,,0.108333376,-0.087962963,1,0,0,0.7994,0,171,171,137,1,trekker,images/br_trekker.png,images/cb_trekker.png,1,trekker,,,,,,,,,,,,,,,,,,,,,
,,,,,,00055,2023-10-12_20h28.59.796,vbt_B2_day2,2022.2.4,Win32,59.89099838,,,,,,,,,,,,,,,,,,,,,,,,,,,down,0,23.51,,0.18240745,-0.12962963,1,0,0,8.9297,0,172,172,8,1,knie,images/br_knie.png,images/cb_knie.png,0,,,,,,,,,,,,,,,,,,,,,,
,,,,,,00055,2023-10-12_20h28.59.796,vbt_B2_day2,2022.2.4,Win32,59.89099838,,,,,,,,,,,,,,,,,,,,,,,,,,,down,0,9.9358,,0.175925926,-0.125925912,1,0,0,2.7824,0,173,173,128,1,prikken,images/br_prikken.png,images/cb_prikken.png,0,,,,,,,,,,,,,,,,,,,,,,
,,,,,,00055,2023-10-12_20h28.59.796,vbt_B2_day2,2022.2.4,Win32,59.89099838,,,,,,,,,,,,,,,,,,,,,,,,,,,down,0,1.9867,,0.175925926,-0.125925912,1,0,0,0.5829,0,174,174,84,1,lokken,images/br_lokken.png,images/cb_lokken.png,0,,,,,,,,,,,,,,,,,,,,,,
,,,,,,00055,2023-10-12_20h28.59.796,vbt_B2_day2,2022.2.4,Win32,59.89099838,,,,,,,,,,,,,,,,,,,,,,,,,,,down,0,1.416,,0.175925926,-0.125925912,1,0,0,0.4838,0,175,175,57,1,steek,images/br_steek.png,images/cb_steek.png,1,steek,,,,,,,,,,,,,,,,,,,,,
,,,,,,00055,2023-10-12_20h28.59.796,vbt_B2_day2,2022.2.4,Win32,59.89099838,,,,,,,,,,,,,,,,,,,,,,,,,,,down,0,3.5202,,0.175925926,-0.125925912,1,0,0,0.6166,0,176,176,139,1,stiekem,images/br_stiekem.png,images/cb_stiekem.png,1,stiekem,,,,,,,,,,,,,,,,,,,,,
,,,,,,00055,2023-10-12_20h28.59.796,vbt_B2_day2,2022.2.4,Win32,59.89099838,,,,,,,,,,,,,,,,,,,,,,,,,,,down,0,4.8751,,0.175925926,-0.125925912,1,0,0,0.4665,0,177,177,195,1,middelen,images/br_middelen.png,images/cb_middelen.png,0,,,,,,,,,,,,,,,,,,,,,,
,,,,,,00055,2023-10-12_20h28.59.796,vbt_B2_day2,2022.2.4,Win32,59.89099838,,,,,,,,,,,,,,,,,,,,,,,,,,,down,0,4.5152,,0.175925926,-0.125925912,1,0,0,1.1494,0,178,178,177,1,maaltijd,images/br_maaltijd.png,images/cb_maaltijd.png,1,maaltijd,,,,,,,,,,,,,,,,,,,,,
,,,,,,00055,2023-10-12_20h28.59.796,vbt_B2_day2,2022.2.4,Win32,59.89099838,,,,,,,,,,,,,,,,,,,,,,,,,,,down,0,11.415,,0.175925926,-0.125925912,1,0,0,0.5324,0,179,179,145,1,invloed,images/br_invloed.png,images/cb_invloed.png,0,,,,,,,,,,,,,,,,,,,,,,
,,,,,,00055,2023-10-12_20h28.59.796,vbt_B2_day2,2022.2.4,Win32,59.89099838,,,,,,,,,,,,,,,,,,,,,,,,,,,down,0,1.7864,,0.175925926,-0.125925912,1,0,0,0.5332,0,180,180,29,1,baas,images/br_baas.png,images/cb_baas.png,0,,,,,,,,,,,,,,,,,,,,,,
,,,,,,00055,2023-10-12_20h28.59.796,vbt_B2_day2,2022.2.4,Win32,59.89099838,,,,,,,,,,,,,,,,,,,,,,,,,,,down,0,2.9285,,0.175925926,-0.125925912,1,0,0,0.8122,0,181,181,184,1,aandelen,images/br_aandelen.png,images/cb_aandelen.png,0,,,,,,,,,,,,,,,,,,,,,,
,,,,,,00055,2023-10-12_20h28.59.796,vbt_B2_day2,2022.2.4,Win32,59.89099838,,,,,,,,,,,,,,,,,,,,,,,,,,,down,0,2.9023,,0.175925926,-0.125925912,1,0,0,0.7207,0,182,182,169,1,oprotten,images/br_oprotten.png,images/cb_oprotten.png,0,,,,,,,,,,,,,,,,,,,,,,
,,,,,,00055,2023-10-12_20h28.59.796,vbt_B2_day2,2022.2.4,Win32,59.89099838,,,,,,,,,,,,,,,,,,,,,,,,,,,down,0,2.1496,,0.175925926,-0.125925912,1,0,0,1.0295,0,183,183,132,1,grappen,images/br_grappen.png,images/cb_grappen.png,0,,,,,,,,,,,,,,,,,,,,,,
,,,,,,00055,2023-10-12_20h28.59.796,vbt_B2_day2,2022.2.4,Win32,59.89099838,,,,,,,,,,,,,,,,,,,,,,,,,,,down,0,6.4316,,0.175925926,-0.125925912,1,0,0,0.7827,0,184,184,98,1,kreeft,images/br_kreeft.png,images/cb_kreeft.png,1,kreeft,,,,,,,,,,,,,,,,,,,,,
,,,,,,00055,2023-10-12_20h28.59.796,vbt_B2_day2,2022.2.4,Win32,59.89099838,,,,,,,,,,,,,,,,,,,,,,,,,,,down,0,2.2511,,0.175925926,-0.125925912,1,0,0,1.8994,0,185,185,23,1,zout,images/br_zout.png,images/cb_zout.png,0,,,,,,,,,,,,,,,,,,,,,,
,,,,,,00055,2023-10-12_20h28.59.796,vbt_B2_day2,2022.2.4,Win32,59.89099838,,,,,,,,,,,,,,,,,,,,,,,,,,,down,0,2.5685,,0.175925926,-0.125925912,1,0,0,1.3164,0,186,186,113,1,koppen,images/br_koppen.png,images/cb_koppen.png,0,,,,,,,,,,,,,,,,,,,,,,
,,,,,,00055,2023-10-12_20h28.59.796,vbt_B2_day2,2022.2.4,Win32,59.89099838,,,,,,,,,,,,,,,,,,,,,,,,,,,down,0,27.9099,,0.175925926,-0.125925912,1,0,0,0.5828,0,187,187,82,1,muziek,images/br_muziek.png,images/cb_muziek.png,0,,,,,,,,,,,,,,,,,,,,,,
,,,,,,00055,2023-10-12_20h28.59.796,vbt_B2_day2,2022.2.4,Win32,59.89099838,,,,,,,,,,,,,,,,,,,,,,,,,,,down,0,10.5889,,0.175925926,-0.125925912,1,0,0,0.8521,0,188,188,111,1,ticket,images/br_ticket.png,images/cb_ticket.png,0,,,,,,,,,,,,,,,,,,,,,,
,,,,,,00055,2023-10-12_20h28.59.796,vbt_B2_day2,2022.2.4,Win32,59.89099838,,,,,,,,,,,,,,,,,,,,,,,,,,,down,0,2.3468,,0.175925926,-0.125925912,1,0,0,2.1022,0,189,189,125,1,aanzien,images/br_aanzien.png,images/cb_aanzien.png,0,,,,,,,,,,,,,,,,,,,,,,
,,,,,,00055,2023-10-12_20h28.59.796,vbt_B2_day2,2022.2.4,Win32,59.89099838,,,,,,,,,,,,,,,,,,,,,,,,,,,down,0,5.9912,,0.175925926,-0.125925912,1,0,0,0.5641,0,190,190,190,1,goedkoop,images/br_goedkoop.png,images/cb_goedkoop.png,0,,,,,,,,,,,,,,,,,,,,,,
,,,,,,00055,2023-10-12_20h28.59.796,vbt_B2_day2,2022.2.4,Win32,59.89099838,,,,,,,,,,,,,,,,,,,,,,,,,,,down,0,5.6492,,0.175925926,-0.125925912,1,0,0,0.5995,0,191,191,99,1,koffie,images/br_koffie.png,images/cb_koffie.png,1,koffie,,,,,,,,,,,,,,,,,,,,,
,,,,,,00055,2023-10-12_20h28.59.796,vbt_B2_day2,2022.2.4,Win32,59.89099838,,,,,,,,,,,,,,,,,,,,,,,,,,,down,0,2.8307,,0.175925926,-0.125925912,1,0,0,0.7323,0,192,192,63,1,flirt,images/br_flirt.png,images/cb_flirt.png,0,,,,,,,,,,,,,,,,,,,,,,
,,,,,,00055,2023-10-12_20h28.59.796,vbt_B2_day2,2022.2.4,Win32,59.89099838,,,,,,,,,,,,,,,,,,,,,,,,,,,down,0,1.9855,,0.175925926,-0.125925912,1,0,0,0.5502,0,193,193,18,1,blik,images/br_blik.png,images/cb_blik.png,1,blik,,,,,,,,,,,,,,,,,,,,,
,,,,,,00055,2023-10-12_20h28.59.796,vbt_B2_day2,2022.2.4,Win32,59.89099838,,,,,,,,,,,,,,,,,,,,,,,,,,,down,0,8.9305,,0.174074102,-0.125925912,1,0,0,1.3801,0,194,194,194,1,driemaal,images/br_driemaal.png,images/cb_driemaal.png,0,,,,,,,,,,,,,,,,,,,,,,
,,,,,,00055,2023-10-12_20h28.59.796,vbt_B2_day2,2022.2.4,Win32,59.89099838,,,,,,,,,,,,,,,,,,,,,,,,,,,down,0,8.1462,,0.174074102,-0.125925912,1,0,0,0.4993,0,195,195,126,1,kasteel,images/br_kasteel.png,images/cb_kasteel.png,0,,,,,,,,,,,,,,,,,,,,,,
,,,,,,00055,2023-10-12_20h28.59.796,vbt_B2_day2,2022.2.4,Win32,59.89099838,,,,,,,,,,,,,,,,,,,,,,,,,,,down,0,0.2006,,0.174074102,-0.125925912,1,0,0,3.5159,0,196,196,52,1,wagon,images/br_wagon.png,images/cb_wagon.png,0,,,,,,,,,,,,,,,,,,,,,,
,,,,,,00055,2023-10-12_20h28.59.796,vbt_B2_day2,2022.2.4,Win32,59.89099838,,,,,,,,,,,,,,,,,,,,,,,,,,,down,0,0.5665,,0.174074102,-0.125925912,1,0,0,6.0656,0,197,197,115,1,kleren,images/br_kleren.png,images/cb_kleren.png,0,,,,,,,,,,,,,,,,,,,,,,
,,,,,,00055,2023-10-12_20h28.59.796,vbt_B2_day2,2022.2.4,Win32,59.89099838,,,,,,,,,,,,,,,,,,,,,,,,,,,down,0,3.814,,0.174074102,-0.125925912,1,0,0,0.7197,0,198,198,158,1,innemen,images/br_innemen.png,images/cb_innemen.png,0,,,,,,,,,,,,,,,,,,,,,,
,,,,,,00055,2023-10-12_20h28.59.796,vbt_B2_day2,2022.2.4,Win32,59.89099838,,,,,,,,,,,,,,,,,,,,,,,,,,,down,0,5.8636,,0.174074102,-0.125925912,1,0,0,0.6965,0,199,199,121,1,twijfel,images/br_twijfel.png,images/cb_twijfel.png,0,,,,,,,,,,,,,,,,,,,,,,
,,,,,,00055,2023-10-12_20h28.59.796,vbt_B2_day2,2022.2.4,Win32,59.89099838,,,,,,,,,,,,,,,,,,,,,,,,,,,,,,,,,,,,,,,,,,,,,,,0.174074102,-0.125925912,1,0,0,,,,,,,,,,,,,,,,
,,,,,,00055,2023-10-12_20h28.59.796,vbt_B2_day2,2022.2.4,Win32,59.89099838,,,,,,,,,,,,,,,,,,,,,,,,,,,,,,,,,,,,,,,,,,,,,,,,,,,,0.601851852,-0.119444459,1,0,0,,,,,,,,,,,
,,,,,,00055,2023-10-12_20h28.59.796,vbt_B2_day2,2022.2.4,Win32,59.89099838,,,,,,,,,,,,,,,,,,,,,,,,,,,,,,,,,,,,,,,,,,piste,images/br_piste.png,images/cb_piste.png,,piste,,,,,,,,,,,0.601851852,-0.119444459,1,0,0,piste,0,0,0,5,1
,,,,,,00055,2023-10-12_20h28.59.796,vbt_B2_day2,2022.2.4,Win32,59.89099838,,,,,,,,,,,,,,,,,,,,,,,,,,,,,,,,,,,,,,,,,,flits,images/br_flits.png,images/cb_flits.png,,flits,,,,,,,,,,,0.601851852,-0.119444459,1,0,0,flits,0,1,1,4,1
,,,,,,00055,2023-10-12_20h28.59.796,vbt_B2_day2,2022.2.4,Win32,59.89099838,,,,,,,,,,,,,,,,,,,,,,,,,,,,,,,,,,,,,,,,,,jagen,images/br_jagen.png,images/cb_jagen.png,,jagen,,,,,,,,,,,0.48518527,-0.282407407,1,0,0,jagen,0,2,2,6,1
,,,,,,00055,2023-10-12_20h28.59.796,vbt_B2_day2,2022.2.4,Win32,59.89099838,,,,,,,,,,,,,,,,,,,,,,,,,,,,,,,,,,,,,,,,,,joes,images/br_joes.png,images/cb_joes.png,,joes,,,,,,,,,,,0.588888945,0.054629608,1,0,0,joes,0,3,3,20,1
,,,,,,00055,2023-10-12_20h28.59.796,vbt_B2_day2,2022.2.4,Win32,59.89099838,,,,,,,,,,,,,,,,,,,,,,,,,,,,,,,,,,,,,,,,,,zwager,images/br_zwager.png,images/cb_zwager.png,,zwager,,,,,,,,,,,0.506481453,-0.196296339,1,0,0,zwager,0,4,4,49,1
,,,,,,00055,2023-10-12_20h28.59.796,vbt_B2_day2,2022.2.4,Win32,59.89099838,,,,,,,,,,,,,,,,,,,,,,,,,,,,,,,,,,,,,,,,,,systeem,images/br_systeem.png,images/cb_systeem.png,,systeem,,,,,,,,,,,0.419444473,-0.109259288,1,0,0,systeem,0,5,5,54,1
,,,,,,00055,2023-10-12_20h28.59.796,vbt_B2_day2,2022.2.4,Win32,59.89099838,,,,,,,,,,,,,,,,,,,,,,,,,,,,,,,,,,,,,,,,,,kabel,images/br_kabel.png,images/cb_kabel.png,,kabel,,,,,,,,,,,0.462037122,-0.090740734,1,0,0,kabel,0,6,6,7,1
,,,,,,00055,2023-10-12_20h28.59.796,vbt_B2_day2,2022.2.4,Win32,59.89099838,,,,,,,,,,,,,,,,,,,,,,,,,,,,,,,,,,,,,,,,,,lijnen,images/br_lijnen.png,images/cb_lijnen.png,,lijnen,,,,,,,,,,,0.463888945,-0.193518533,1,0,0,lijnen,0,7,7,51,1
,,,,,,00055,2023-10-12_20h28.59.796,vbt_B2_day2,2022.2.4,Win32,59.89099838,,,,,,,,,,,,,,,,,,,,,,,,,,,,,,,,,,,,,,,,,,ningen,images/br_ningen.png,images/cb_ningen.png,,ningen,,,,,,,,,,,0.482407464,-0.157407407,1,0,0,ningen,0,8,8,28,1
,,,,,,00055,2023-10-12_20h28.59.796,vbt_B2_day2,2022.2.4,Win32,59.89099838,,,,,,,,,,,,,,,,,,,,,,,,,,,,,,,,,,,,,,,,,,blad,images/br_blad.png,images/cb_blad.png,,blad,,,,,,,,,,,0.320370427,-0.053703697,1,0,0,blad,0,9,9,1,1
,,,,,,00055,2023-10-12_20h28.59.796,vbt_B2_day2,2022.2.4,Win32,59.89099838,,,,,,,,,,,,,,,,,,,,,,,,,,,,,,,,,,,,,,,,,,aanvraag,images/br_aanvraag.png,images/cb_aanvraag.png,,aanvraag,,,,,,,,,,,0.550000085,-0.147222236,1,0,0,aanvraag,0,10,10,57,1
,,,,,,00055,2023-10-12_20h28.59.796,vbt_B2_day2,2022.2.4,Win32,59.89099838,,,,,,,,,,,,,,,,,,,,,,,,,,,,,,,,,,,,,,,,,,zegel,images/br_zegel.png,images/cb_zegel.png,,zegel,,,,,,,,,,,0.420370455,-0.135185171,1,0,0,zegel,0,11,11,46,1
,,,,,,00055,2023-10-12_20h28.59.796,vbt_B2_day2,2022.2.4,Win32,59.89099838,,,,,,,,,,,,,,,,,,,,,,,,,,,,,,,,,,,,,,,,,,anarchie,images/br_anarchie.png,images/cb_anarchie.png,,anarchie,,,,,,,,,,,0.442592621,-0.148148148,1,0,0,anarchie,0,12,12,16,1
,,,,,,00055,2023-10-12_20h28.59.796,vbt_B2_day2,2022.2.4,Win32,59.89099838,,,,,,,,,,,,,,,,,,,,,,,,,,,,,,,,,,,,,,,,,,sora,images/br_sora.png,images/cb_sora.png,,sora,,,,,,,,,,,0.398148148,-0.124074088,1,0,0,sora,0,13,13,22,1
,,,,,,00055,2023-10-12_20h28.59.796,vbt_B2_day2,2022.2.4,Win32,59.89099838,,,,,,,,,,,,,,,,,,,,,,,,,,,,,,,,,,,,,,,,,,kijlen,images/br_kijlen.png,images/cb_kijlen.png,,kijlen,,,,,,,,,,,0.285185213,-0.138888889,1,0,0,kijlen,0,14,14,31,1
,,,,,,00055,2023-10-12_20h28.59.796,vbt_B2_day2,2022.2.4,Win32,59.89099838,,,,,,,,,,,,,,,,,,,,,,,,,,,,,,,,,,,,,,,,,,feestdag,images/br_feestdag.png,images/cb_feestdag.png,,feestdag,,,,,,,,,,,0.429629714,-0.066666674,1,0,0,feestdag,0,15,15,17,1
,,,,,,00055,2023-10-12_20h28.59.796,vbt_B2_day2,2022.2.4,Win32,59.89099838,,,,,,,,,,,,,,,,,,,,,,,,,,,,,,,,,,,,,,,,,,trots,images/br_trots.png,images/cb_trots.png,,trots,,,,,,,,,,,0.429629714,-0.066666674,1,0,0,trots,0,16,16,44,1
,,,,,,00055,2023-10-12_20h28.59.796,vbt_B2_day2,2022.2.4,Win32,59.89099838,,,,,,,,,,,,,,,,,,,,,,,,,,,,,,,,,,,,,,,,,,opdatten,images/br_opdatten.png,images/cb_opdatten.png,,opdatten,,,,,,,,,,,0.429629714,-0.066666674,1,0,0,opdatten,0,17,17,37,1
,,,,,,00055,2023-10-12_20h28.59.796,vbt_B2_day2,2022.2.4,Win32,59.89099838,,,,,,,,,,,,,,,,,,,,,,,,,,,,,,,,,,,,,,,,,,eenhoorn,images/br_eenhoorn.png,images/cb_eenhoorn.png,,eenhoorn,,,,,,,,,,,0.429629714,-0.066666674,1,0,0,eenhoorn,0,18,18,19,1
,,,,,,00055,2023-10-12_20h28.59.796,vbt_B2_day2,2022.2.4,Win32,59.89099838,,,,,,,,,,,,,,,,,,,,,,,,,,,,,,,,,,,,,,,,,,strikken,images/br_strikken.png,images/cb_strikken.png,,strikken,,,,,,,,,,,0.429629714,-0.066666674,1,0,0,strikken,0,19,19,18,1
,,,,,,00055,2023-10-12_20h28.59.796,vbt_B2_day2,2022.2.4,Win32,59.89099838,,,,,,,,,,,,,,,,,,,,,,,,,,,,,,,,,,,,,,,,,,plannen,images/br_plannen.png,images/cb_plannen.png,,plannen,,,,,,,,,,,0.429629714,-0.066666674,1,0,0,plannen,0,20,20,55,1
,,,,,,00055,2023-10-12_20h28.59.796,vbt_B2_day2,2022.2.4,Win32,59.89099838,,,,,,,,,,,,,,,,,,,,,,,,,,,,,,,,,,,,,,,,,,clan,images/br_clan.png,images/cb_clan.png,,clan,,,,,,,,,,,0.353703675,-0.087037051,1,0,0,clan,0,21,21,40,1
,,,,,,00055,2023-10-12_20h28.59.796,vbt_B2_day2,2022.2.4,Win32,59.89099838,,,,,,,,,,,,,,,,,,,,,,,,,,,,,,,,,,,,,,,,,,wijve,images/br_wijve.png,images/cb_wijve.png,,wijve,,,,,,,,,,,0.450925898,-0.125925912,1,0,0,wijve,0,22,22,27,1
,,,,,,00055,2023-10-12_20h28.59.796,vbt_B2_day2,2022.2.4,Win32,59.89099838,,,,,,,,,,,,,,,,,,,,,,,,,,,,,,,,,,,,,,,,,,tweeling,images/br_tweeling.png,images/cb_tweeling.png,,tweeling,,,,,,,,,,,0.378703788,-0.143518519,1,0,0,tweeling,0,23,23,58,1
,,,,,,00055,2023-10-12_20h28.59.796,vbt_B2_day2,2022.2.4,Win32,59.89099838,,,,,,,,,,,,,,,,,,,,,,,,,,,,,,,,,,,,,,,,,,toeval,images/br_toeval.png,images/cb_toeval.png,,toeval,,,,,,,,,,,0.437037009,-0.091666681,1,0,0,toeval,0,24,24,11,1
,,,,,,00055,2023-10-12_20h28.59.796,vbt_B2_day2,2022.2.4,Win32,59.89099838,,,,,,,,,,,,,,,,,,,,,,,,,,,,,,,,,,,,,,,,,,tand,images/br_tand.png,images/cb_tand.png,,tand,,,,,,,,,,,0.320370427,-0.073148162,1,0,0,tand,0,25,25,42,1
,,,,,,00055,2023-10-12_20h28.59.796,vbt_B2_day2,2022.2.4,Win32,59.89099838,,,,,,,,,,,,,,,,,,,,,,,,,,,,,,,,,,,,,,,,,,manieren,images/br_manieren.png,images/cb_manieren.png,,manieren,,,,,,,,,,,0.385185242,-0.128703718,1,0,0,manieren,0,26,26,56,1
,,,,,,00055,2023-10-12_20h28.59.796,vbt_B2_day2,2022.2.4,Win32,59.89099838,,,,,,,,,,,,,,,,,,,,,,,,,,,,,,,,,,,,,,,,,,thema,images/br_thema.png,images/cb_thema.png,,thema,,,,,,,,,,,0.361111111,-0.12037037,1,0,0,thema,0,27,27,47,1
,,,,,,00055,2023-10-12_20h28.59.796,vbt_B2_day2,2022.2.4,Win32,59.89099838,,,,,,,,,,,,,,,,,,,,,,,,,,,,,,,,,,,,,,,,,,kenzis,images/br_kenzis.png,images/cb_kenzis.png,,kenzis,,,,,,,,,,,0.361111111,-0.12037037,1,0,0,kenzis,0,28,28,30,1
,,,,,,00055,2023-10-12_20h28.59.796,vbt_B2_day2,2022.2.4,Win32,59.89099838,,,,,,,,,,,,,,,,,,,,,,,,,,,,,,,,,,,,,,,,,,sjijfel,images/br_sjijfel.png,images/cb_sjijfel.png,,cijifer,,,,,,,,,,,0.027777778,-0.002777771,1,0,0,cijifer,0,29,29,33,1
,,,,,,00055,2023-10-12_20h28.59.796,vbt_B2_day2,2022.2.4,Win32,59.89099838,,,,,,,,,,,,,,,,,,,,,,,,,,,,,,,,,,,,,,,,,,kasteel,images/br_kasteel.png,images/cb_kasteel.png,,kasteel,,,,,,,,,,,0.265740783,-0.056481503,1,0,0,kasteel,0,30,30,14,1
,,,,,,00055,2023-10-12_20h28.59.796,vbt_B2_day2,2022.2.4,Win32,59.89099838,,,,,,,,,,,,,,,,,,,,,,,,,,,,,,,,,,,,,,,,,,sifferd,images/br_sifferd.png,images/cb_sifferd.png,,sifferd,,,,,,,,,,,0.172222208,-0.011111118,1,0,0,sifferd,0,31,31,32,1
,,,,,,00055,2023-10-12_20h28.59.796,vbt_B2_day2,2022.2.4,Win32,59.89099838,,,,,,,,,,,,,,,,,,,,,,,,,,,,,,,,,,,,,,,,,,moes,images/br_moes.png,images/cb_moes.png,,moes,,,,,,,,,,,0.299074102,-0.250925912,1,0,0,moes,0,32,32,0,1
,,,,,,00055,2023-10-12_20h28.59.796,vbt_B2_day2,2022.2.4,Win32,59.89099838,,,,,,,,,,,,,,,,,,,,,,,,,,,,,,,,,,,,,,,,,,goon,images/br_goon.png,images/cb_goon.png,,goon,,,,,,,,,,,0.487962935,-0.187962991,1,0,0,goon,0,33,33,23,1
,,,,,,00055,2023-10-12_20h28.59.796,vbt_B2_day2,2022.2.4,Win32,59.89099838,,,,,,,,,,,,,,,,,,,,,,,,,,,,,,,,,,,,,,,,,,lurgen,images/br_lurgen.png,images/cb_lurgen.png,,lurgen,,,,,,,,,,,0.318518603,-0.072222215,1,0,0,lurgen,0,34,34,29,1
,,,,,,00055,2023-10-12_20h28.59.796,vbt_B2_day2,2022.2.4,Win32,59.89099838,,,,,,,,,,,,,,,,,,,,,,,,,,,,,,,,,,,,,,,,,,bloeien,images/br_bloeien.png,images/cb_bloeien.png,,bloeien,,,,,,,,,,,0.440740797,-0.01666666,1,0,0,bloeien,0,35,35,12,1
,,,,,,00055,2023-10-12_20h28.59.796,vbt_B2_day2,2022.2.4,Win32,59.89099838,,,,,,,,,,,,,,,,,,,,,,,,,,,,,,,,,,,,,,,,,,krimmen,images/br_krimmen.png,images/cb_krimmen.png,,krimmen,,,,,,,,,,,0.041666667,-0.005555577,1,0,0,krimmen,0,36,36,35,1
,,,,,,00055,2023-10-12_20h28.59.796,vbt_B2_day2,2022.2.4,Win32,59.89099838,,,,,,,,,,,,,,,,,,,,,,,,,,,,,,,,,,,,,,,,,,geld,images/br_geld.png,images/cb_geld.png,,geld,,,,,,,,,,,0.293518561,-0.112963005,1,0,0,geld,0,37,37,3,1
,,,,,,00055,2023-10-12_20h28.59.796,vbt_B2_day2,2022.2.4,Win32,59.89099838,,,,,,,,,,,,,,,,,,,,,,,,,,,,,,,,,,,,,,,,,,breuk,images/br_breuk.png,images/cb_breuk.png,,breuk,,,,,,,,,,,0.308333362,-0.115740741,1,0,0,breuk,0,38,38,45,1
,,,,,,00055,2023-10-12_20h28.59.796,vbt_B2_day2,2022.2.4,Win32,59.89099838,,,,,,,,,,,,,,,,,,,,,,,,,,,,,,,,,,,,,,,,,,diep,images/br_diep.png,images/cb_diep.png,,diep,,,,,,,,,,,0.332407492,-0.10555557,1,0,0,diep,0,39,39,2,1
,,,,,,00055,2023-10-12_20h28.59.796,vbt_B2_day2,2022.2.4,Win32,59.89099838,,,,,,,,,,,,,,,,,,,,,,,,,,,,,,,,,,,,,,,,,,heengeen,images/br_heengeen.png,images/cb_heengeen.png,,heengeen,,,,,,,,,,,0.332407492,-0.10555557,1,0,0,heengeen,0,40,40,38,1
,,,,,,00055,2023-10-12_20h28.59.796,vbt_B2_day2,2022.2.4,Win32,59.89099838,,,,,,,,,,,,,,,,,,,,,,,,,,,,,,,,,,,,,,,,,,badon,images/br_badon.png,images/cb_badon.png,,badon,,,,,,,,,,,0.433333362,-0.026851866,1,0,0,badon,0,41,41,26,1
,,,,,,00055,2023-10-12_20h28.59.796,vbt_B2_day2,2022.2.4,Win32,59.89099838,,,,,,,,,,,,,,,,,,,,,,,,,,,,,,,,,,,,,,,,,,lokken,images/br_lokken.png,images/cb_lokken.png,,lokken,,,,,,,,,,,0.329629686,-0.064814815,1,0,0,lokken,0,42,42,8,1
,,,,,,00055,2023-10-12_20h28.59.796,vbt_B2_day2,2022.2.4,Win32,59.89099838,,,,,,,,,,,,,,,,,,,,,,,,,,,,,,,,,,,,,,,,,,aanzien,images/br_aanzien.png,images/cb_aanzien.png,,aanzien,,,,,,,,,,,0.428703732,-0.095370399,1,0,0,aanzien,0,43,43,13,1
,,,,,,00055,2023-10-12_20h28.59.796,vbt_B2_day2,2022.2.4,Win32,59.89099838,,,,,,,,,,,,,,,,,,,,,,,,,,,,,,,,,,,,,,,,,,zomers,images/br_zomers.png,images/cb_zomers.png,,zomers,,,,,,,,,,,0.428703732,-0.093518504,1,0,0,zomers,0,44,44,48,1
,,,,,,00055,2023-10-12_20h28.59.796,vbt_B2_day2,2022.2.4,Win32,59.89099838,,,,,,,,,,,,,,,,,,,,,,,,,,,,,,,,,,,,,,,,,,welzijn,images/br_welzijn.png,images/cb_welzijn.png,,welzijn,,,,,,,,,,,0.436111168,-0.09629631,1,0,0,welzijn,0,45,45,52,1
,,,,,,00055,2023-10-12_20h28.59.796,vbt_B2_day2,2022.2.4,Win32,59.89099838,,,,,,,,,,,,,,,,,,,,,,,,,,,,,,,,,,,,,,,,,,heilig,images/br_heilig.png,images/cb_heilig.png,,heilig,,,,,,,,,,,0.436111168,-0.09629631,1,0,0,heilig,0,46,46,9,1
,,,,,,00055,2023-10-12_20h28.59.796,vbt_B2_day2,2022.2.4,Win32,59.89099838,,,,,,,,,,,,,,,,,,,,,,,,,,,,,,,,,,,,,,,,,,jong,images/br_jong.png,images/cb_jong.png,,jong,,,,,,,,,,,0.436111168,-0.09629631,1,0,0,jong,0,47,47,43,1
,,,,,,00055,2023-10-12_20h28.59.796,vbt_B2_day2,2022.2.4,Win32,59.89099838,,,,,,,,,,,,,,,,,,,,,,,,,,,,,,,,,,,,,,,,,,dode,images/br_dode.png,images/cb_dode.png,,dode,,,,,,,,,,,0.436111168,-0.09629631,1,0,0,dode,0,48,48,41,1
,,,,,,00055,2023-10-12_20h28.59.796,vbt_B2_day2,2022.2.4,Win32,59.89099838,,,,,,,,,,,,,,,,,,,,,,,,,,,,,,,,,,,,,,,,,,ophuimen,images/br_ophuimen.png,images/cb_ophuimen.png,,ophuimen,,,,,,,,,,,0.436111168,-0.09629631,1,0,0,ophuimen,0,49,49,36,1
,,,,,,00055,2023-10-12_20h28.59.796,vbt_B2_day2,2022.2.4,Win32,59.89099838,,,,,,,,,,,,,,,,,,,,,,,,,,,,,,,,,,,,,,,,,,koorts,images/br_koorts.png,images/cb_koorts.png,,koorts,,,,,,,,,,,0.436111168,-0.09629631,1,0,0,koorts,0,50,50,50,1
,,,,,,00055,2023-10-12_20h28.59.796,vbt_B2_day2,2022.2.4,Win32,59.89099838,,,,,,,,,,,,,,,,,,,,,,,,,,,,,,,,,,,,,,,,,,woning,images/br_woning.png,images/cb_woning.png,,woning,,,,,,,,,,,0.536111196,0.220370363,1,0,0,woning,0,51,51,10,1
,,,,,,00055,2023-10-12_20h28.59.796,vbt_B2_day2,2022.2.4,Win32,59.89099838,,,,,,,,,,,,,,,,,,,,,,,,,,,,,,,,,,,,,,,,,,negel,images/br_negel.png,images/cb_negel.png,,negel,,,,,,,,,,,0.536111196,0.220370363,1,0,0,negel,0,52,52,24,1
,,,,,,00055,2023-10-12_20h28.59.796,vbt_B2_day2,2022.2.4,Win32,59.89099838,,,,,,,,,,,,,,,,,,,,,,,,,,,,,,,,,,,,,,,,,,stes,images/br_stes.png,images/cb_stes.png,,ster,,,,,,,,,,,0.536111196,0.220370363,1,0,0,ster,0,53,53,21,1
,,,,,,00055,2023-10-12_20h28.59.796,vbt_B2_day2,2022.2.4,Win32,59.89099838,,,,,,,,,,,,,,,,,,,,,,,,,,,,,,,,,,,,,,,,,,prekken,images/br_prekken.png,images/cb_prekken.png,,prekkel,,,,,,,,,,,0.536111196,0.220370363,1,0,0,prekkel,0,54,54,34,1
,,,,,,00055,2023-10-12_20h28.59.796,vbt_B2_day2,2022.2.4,Win32,59.89099838,,,,,,,,,,,,,,,,,,,,,,,,,,,,,,,,,,,,,,,,,,agressie,images/br_agressie.png,images/cb_agressie.png,,agressie,,,,,,,,,,,0.536111196,0.220370363,1,0,0,agressie,0,55,55,59,1
,,,,,,00055,2023-10-12_20h28.59.796,vbt_B2_day2,2022.2.4,Win32,59.89099838,,,,,,,,,,,,,,,,,,,,,,,,,,,,,,,,,,,,,,,,,,remel,images/br_remel.png,images/cb_remel.png,,remel,,,,,,,,,,,0.536111196,0.220370363,1,0,0,remel,0,56,56,25,1
,,,,,,00055,2023-10-12_20h28.59.796,vbt_B2_day2,2022.2.4,Win32,59.89099838,,,,,,,,,,,,,,,,,,,,,,,,,,,,,,,,,,,,,,,,,,bereuwen,images/br_bereuwen.png,images/cb_bereuwen.png,,bereuw..,,,,,,,,,,,0.536111196,0.220370363,1,0,0,bereuw..,0,57,57,39,1
,,,,,,00055,2023-10-12_20h28.59.796,vbt_B2_day2,2022.2.4,Win32,59.89099838,,,,,,,,,,,,,,,,,,,,,,,,,,,,,,,,,,,,,,,,,,inzicht,images/br_inzicht.png,images/cb_inzicht.png,,enzich...,,,,,,,,,,,0.312037009,-0.014814836,1,0,0,enzich...,0,58,58,53,1
,,,,,,00055,2023-10-12_20h28.59.796,vbt_B2_day2,2022.2.4,Win32,59.89099838,,,,,,,,,,,,,,,,,,,,,,,,,,,,,,,,,,,,,,,,,,doodmoe,images/br_doodmoe.png,images/cb_doodmoe.png,,doodmoe,,,,,,,,,,,0.354629658,-0.098148134,1,0,0,doodmoe,0,59,59,15,1
,,,,,,00055,2023-10-12_20h28.59.796,vbt_B2_day2,2022.2.4,Win32,59.89099838,,,,,,,,,,,,,,,,,,,,,,,,,,,,,,,,,,,,,,,,,,,,,,,,,,,,,,,,,,,,,,,,,,,
