welcome_mouse.x,welcome_mouse.y,welcome_mouse.leftButton,welcome_mouse.midButton,welcome_mouse.rightButton,welcome_mouse.time,"ID",date,expName,psychopyVersion,OS,frameRate,refresh_mouse.x,refresh_mouse.y,refresh_mouse.leftButton,refresh_mouse.midButton,refresh_mouse.rightButton,refresh_mouse.time,braille_mouse.x,braille_mouse.y,braille_mouse.leftButton,braille_mouse.midButton,braille_mouse.rightButton,braille_mouse.time,trials.thisRepN,trials.thisTrialN,trials.thisN,trials.thisIndex,trials.ran,nlLet,brLet,cbLet,trainInstr_mouse.x,trainInstr_mouse.y,trainInstr_mouse.leftButton,trainInstr_mouse.midButton,trainInstr_mouse.rightButton,trainInstr_mouse.time,translation_key.keys,translation_key.corr,translation_key.rt,word_rsp.text,word_mouse.x,word_mouse.y,word_mouse.leftButton,word_mouse.midButton,word_mouse.rightButton,word_mouse.time,train_loop.thisRepN,train_loop.thisTrialN,train_loop.thisN,train_loop.thisIndex,train_loop.ran,nlWrd,brWrd,cbWrd,test,testResp,mouse.x,mouse.y,mouse.leftButton,mouse.midButton,mouse.rightButton,testInstr_mouse.x,testInstr_mouse.y,testInstr_mouse.leftButton,testInstr_mouse.midButton,testInstr_mouse.rightButton,test_mouse.x,test_mouse.y,test_mouse.leftButton,test_mouse.midButton,test_mouse.rightButton,test_response.text,test_loop.thisRepN,test_loop.thisTrialN,test_loop.thisN,test_loop.thisIndex,test_loop.ran
-0.055555556,-0.296296353,1,0,0,2.8583,00036,2023-09-27_16h47.19.829,vbt_B2_day2,2022.2.4,Win32,60.0528465,,,,,,,,,,,,,,,,,,,,,,,,,,,,,,,,,,,,,,,,,,,,,,,,,,,,,,,,,,,,,,,,,,,
,,,,,,00036,2023-09-27_16h47.19.829,vbt_B2_day2,2022.2.4,Win32,60.0528465,-0.055555556,-0.296296353,1,0,0,4.0122,,,,,,,,,,,,,,,,,,,,,,,,,,,,,,,,,,,,,,,,,,,,,,,,,,,,,,,,,,,,,
,,,,,,00036,2023-09-27_16h47.19.829,vbt_B2_day2,2022.2.4,Win32,60.0528465,,,,,,,-0.055555556,-0.296296353,1,0,0,0.6835,0,0,0,7,1,h,images/br_h.png,images/cb_h.png,,,,,,,,,,,,,,,,,,,,,,,,,,,,,,,,,,,,,,,,,,,,,,,
,,,,,,00036,2023-09-27_16h47.19.829,vbt_B2_day2,2022.2.4,Win32,60.0528465,,,,,,,-0.055555556,-0.296296353,1,0,0,3.5489,0,1,1,8,1,i,images/br_i.png,images/cb_i.png,,,,,,,,,,,,,,,,,,,,,,,,,,,,,,,,,,,,,,,,,,,,,,,
,,,,,,00036,2023-09-27_16h47.19.829,vbt_B2_day2,2022.2.4,Win32,60.0528465,,,,,,,-0.055555556,-0.296296353,1,0,0,0.0877,0,2,2,24,1,y,images/br_y.png,images/cb_y.png,,,,,,,,,,,,,,,,,,,,,,,,,,,,,,,,,,,,,,,,,,,,,,,
,,,,,,00036,2023-09-27_16h47.19.829,vbt_B2_day2,2022.2.4,Win32,60.0528465,,,,,,,-0.055555556,-0.296296353,1,0,0,0.3167,0,3,3,2,1,c,images/br_c.png,images/cb_c.png,,,,,,,,,,,,,,,,,,,,,,,,,,,,,,,,,,,,,,,,,,,,,,,
,,,,,,00036,2023-09-27_16h47.19.829,vbt_B2_day2,2022.2.4,Win32,60.0528465,,,,,,,-0.055555556,-0.296296353,1,0,0,0.0501,0,4,4,3,1,d,images/br_d.png,images/cb_d.png,,,,,,,,,,,,,,,,,,,,,,,,,,,,,,,,,,,,,,,,,,,,,,,
,,,,,,00036,2023-09-27_16h47.19.829,vbt_B2_day2,2022.2.4,Win32,60.0528465,,,,,,,-0.055555556,-0.296296353,1,0,0,0.0164,0,5,5,22,1,w,images/br_w.png,images/cb_w.png,,,,,,,,,,,,,,,,,,,,,,,,,,,,,,,,,,,,,,,,,,,,,,,
,,,,,,00036,2023-09-27_16h47.19.829,vbt_B2_day2,2022.2.4,Win32,60.0528465,,,,,,,-0.055555556,-0.296296353,1,0,0,0.0338,0,6,6,23,1,x,images/br_x.png,images/cb_x.png,,,,,,,,,,,,,,,,,,,,,,,,,,,,,,,,,,,,,,,,,,,,,,,
,,,,,,00036,2023-09-27_16h47.19.829,vbt_B2_day2,2022.2.4,Win32,60.0528465,,,,,,,-0.055555556,-0.296296353,1,0,0,0.2168,0,7,7,21,1,v,images/br_v.png,images/cb_v.png,,,,,,,,,,,,,,,,,,,,,,,,,,,,,,,,,,,,,,,,,,,,,,,
,,,,,,00036,2023-09-27_16h47.19.829,vbt_B2_day2,2022.2.4,Win32,60.0528465,,,,,,,-0.055555556,-0.296296353,1,0,0,0.6717,0,8,8,0,1,a,images/br_a.png,images/cb_a.png,,,,,,,,,,,,,,,,,,,,,,,,,,,,,,,,,,,,,,,,,,,,,,,
,,,,,,00036,2023-09-27_16h47.19.829,vbt_B2_day2,2022.2.4,Win32,60.0528465,,,,,,,-0.055555556,-0.296296353,1,0,0,0.2004,0,9,9,16,1,q,images/br_q.png,images/cb_q.png,,,,,,,,,,,,,,,,,,,,,,,,,,,,,,,,,,,,,,,,,,,,,,,
,,,,,,00036,2023-09-27_16h47.19.829,vbt_B2_day2,2022.2.4,Win32,60.0528465,,,,,,,-0.055555556,-0.296296353,1,0,0,0.4998,0,10,10,20,1,u,images/br_u.png,images/cb_u.png,,,,,,,,,,,,,,,,,,,,,,,,,,,,,,,,,,,,,,,,,,,,,,,
,,,,,,00036,2023-09-27_16h47.19.829,vbt_B2_day2,2022.2.4,Win32,60.0528465,,,,,,,-0.055555556,-0.296296353,1,0,0,0.1501,0,11,11,25,1,z,images/br_z.png,images/cb_z.png,,,,,,,,,,,,,,,,,,,,,,,,,,,,,,,,,,,,,,,,,,,,,,,
,,,,,,00036,2023-09-27_16h47.19.829,vbt_B2_day2,2022.2.4,Win32,60.0528465,,,,,,,-0.055555556,-0.296296353,1,0,0,0.0957,0,12,12,15,1,p,images/br_p.png,images/cb_p.png,,,,,,,,,,,,,,,,,,,,,,,,,,,,,,,,,,,,,,,,,,,,,,,
,,,,,,00036,2023-09-27_16h47.19.829,vbt_B2_day2,2022.2.4,Win32,60.0528465,,,,,,,-0.055555556,-0.296296353,1,0,0,0.3499,0,13,13,1,1,b,images/br_b.png,images/cb_b.png,,,,,,,,,,,,,,,,,,,,,,,,,,,,,,,,,,,,,,,,,,,,,,,
,,,,,,00036,2023-09-27_16h47.19.829,vbt_B2_day2,2022.2.4,Win32,60.0528465,,,,,,,-0.142592536,-0.35,1,0,0,0.4167,0,14,14,14,1,o,images/br_o.png,images/cb_o.png,,,,,,,,,,,,,,,,,,,,,,,,,,,,,,,,,,,,,,,,,,,,,,,
,,,,,,00036,2023-09-27_16h47.19.829,vbt_B2_day2,2022.2.4,Win32,60.0528465,,,,,,,-0.142592536,-0.35,1,0,0,0.3001,0,15,15,5,1,f,images/br_f.png,images/cb_f.png,,,,,,,,,,,,,,,,,,,,,,,,,,,,,,,,,,,,,,,,,,,,,,,
,,,,,,00036,2023-09-27_16h47.19.829,vbt_B2_day2,2022.2.4,Win32,60.0528465,,,,,,,-0.142592536,-0.35,1,0,0,0.2833,0,16,16,11,1,l,images/br_l.png,images/cb_l.png,,,,,,,,,,,,,,,,,,,,,,,,,,,,,,,,,,,,,,,,,,,,,,,
,,,,,,00036,2023-09-27_16h47.19.829,vbt_B2_day2,2022.2.4,Win32,60.0528465,,,,,,,-0.142592536,-0.35,1,0,0,0.2284,0,17,17,4,1,e,images/br_e.png,images/cb_e.png,,,,,,,,,,,,,,,,,,,,,,,,,,,,,,,,,,,,,,,,,,,,,,,
,,,,,,00036,2023-09-27_16h47.19.829,vbt_B2_day2,2022.2.4,Win32,60.0528465,,,,,,,-0.142592536,-0.35,1,0,0,0.079,0,18,18,6,1,g,images/br_g.png,images/cb_g.png,,,,,,,,,,,,,,,,,,,,,,,,,,,,,,,,,,,,,,,,,,,,,,,
,,,,,,00036,2023-09-27_16h47.19.829,vbt_B2_day2,2022.2.4,Win32,60.0528465,,,,,,,-0.142592536,-0.35,1,0,0,0.0505,0,19,19,18,1,s,images/br_s.png,images/cb_s.png,,,,,,,,,,,,,,,,,,,,,,,,,,,,,,,,,,,,,,,,,,,,,,,
,,,,,,00036,2023-09-27_16h47.19.829,vbt_B2_day2,2022.2.4,Win32,60.0528465,,,,,,,-0.142592536,-0.35,1,0,0,0.0167,0,20,20,19,1,t,images/br_t.png,images/cb_t.png,,,,,,,,,,,,,,,,,,,,,,,,,,,,,,,,,,,,,,,,,,,,,,,
,,,,,,00036,2023-09-27_16h47.19.829,vbt_B2_day2,2022.2.4,Win32,60.0528465,,,,,,,-0.142592536,-0.35,1,0,0,0.7002,0,21,21,17,1,r,images/br_r.png,images/cb_r.png,,,,,,,,,,,,,,,,,,,,,,,,,,,,,,,,,,,,,,,,,,,,,,,
,,,,,,00036,2023-09-27_16h47.19.829,vbt_B2_day2,2022.2.4,Win32,60.0528465,,,,,,,-0.142592536,-0.35,1,0,0,0.0503,0,22,22,10,1,k,images/br_k.png,images/cb_k.png,,,,,,,,,,,,,,,,,,,,,,,,,,,,,,,,,,,,,,,,,,,,,,,
,,,,,,00036,2023-09-27_16h47.19.829,vbt_B2_day2,2022.2.4,Win32,60.0528465,,,,,,,-0.142592536,-0.35,1,0,0,0.0388,0,23,23,9,1,j,images/br_j.png,images/cb_j.png,,,,,,,,,,,,,,,,,,,,,,,,,,,,,,,,,,,,,,,,,,,,,,,
,,,,,,00036,2023-09-27_16h47.19.829,vbt_B2_day2,2022.2.4,Win32,60.0528465,,,,,,,-0.142592536,-0.35,1,0,0,1.8659,0,24,24,13,1,n,images/br_n.png,images/cb_n.png,,,,,,,,,,,,,,,,,,,,,,,,,,,,,,,,,,,,,,,,,,,,,,,
,,,,,,00036,2023-09-27_16h47.19.829,vbt_B2_day2,2022.2.4,Win32,60.0528465,,,,,,,-0.142592536,-0.35,1,0,0,0.0662,0,25,25,12,1,m,images/br_m.png,images/cb_m.png,,,,,,,,,,,,,,,,,,,,,,,,,,,,,,,,,,,,,,,,,,,,,,,
,,,,,,00036,2023-09-27_16h47.19.829,vbt_B2_day2,2022.2.4,Win32,60.0528465,,,,,,,,,,,,,,,,,,,,,-0.142592536,-0.35,1,0,0,0.2797,,,,,,,,,,,,,,,,,,,,,,,,,,,,,,,,,,,,,,,,,
,,,,,,00036,2023-09-27_16h47.19.829,vbt_B2_day2,2022.2.4,Win32,60.0528465,,,,,,,,,,,,,,,,,,,,,,,,,,,down,0,71.2244,,-0.17870369,-0.141666667,1,0,0,9.6378,0,0,0,129,1,verhaal,images/br_verhaal.png,images/cb_verhaal.png,0,,,,,,,,,,,,,,,,,,,,,,
,,,,,,00036,2023-09-27_16h47.19.829,vbt_B2_day2,2022.2.4,Win32,60.0528465,,,,,,,,,,,,,,,,,,,,,,,,,,,down,0,1.5044,,-0.17870369,-0.141666667,1,0,0,3.782,0,1,1,20,1,site,images/br_site.png,images/cb_site.png,0,,,,,,,,,,,,,,,,,,,,,,
,,,,,,00036,2023-09-27_16h47.19.829,vbt_B2_day2,2022.2.4,Win32,60.0528465,,,,,,,,,,,,,,,,,,,,,,,,,,,down,0,13.2228,,-0.17870369,-0.141666667,1,0,0,2.4978,0,2,2,123,1,hiervan,images/br_hiervan.png,images/cb_hiervan.png,0,,,,,,,,,,,,,,,,,,,,,,
,,,,,,00036,2023-09-27_16h47.19.829,vbt_B2_day2,2022.2.4,Win32,60.0528465,,,,,,,,,,,,,,,,,,,,,,,,,,,down,0,31.3469,,-0.17870369,-0.141666667,1,0,0,26.4582,0,3,3,0,1,slak,images/br_slak.png,images/cb_slak.png,0,,,,,,,,,,,,,,,,,,,,,,
,,,,,,00036,2023-09-27_16h47.19.829,vbt_B2_day2,2022.2.4,Win32,60.0528465,,,,,,,,,,,,,,,,,,,,,,,,,,,down,0,2.2268,,-0.17870369,-0.141666667,1,0,0,0.6007,0,4,4,44,1,flits,images/br_flits.png,images/cb_flits.png,0,,,,,,,,,,,,,,,,,,,,,,
,,,,,,00036,2023-09-27_16h47.19.829,vbt_B2_day2,2022.2.4,Win32,60.0528465,,,,,,,,,,,,,,,,,,,,,,,,,,,down,0,17.8775,,-0.037962935,-0.153703732,1,0,0,1.3954,0,5,5,116,1,besmet,images/br_besmet.png,images/cb_besmet.png,0,,,,,,,,,,,,,,,,,,,,,,
,,,,,,00036,2023-09-27_16h47.19.829,vbt_B2_day2,2022.2.4,Win32,60.0528465,,,,,,,,,,,,,,,,,,,,,,,,,,,down,0,8.9023,,-0.037962935,-0.153703732,1,0,0,7.1196,0,6,6,16,1,ziek,images/br_ziek.png,images/cb_ziek.png,1,zout,,,,,,,,,,,,,,,,,,,,,
,,,,,,00036,2023-09-27_16h47.19.829,vbt_B2_day2,2022.2.4,Win32,60.0528465,,,,,,,,,,,,,,,,,,,,,,,,,,,down,0,9.9057,,-0.037962935,-0.153703732,1,0,0,3.116,0,7,7,79,1,nodig,images/br_nodig.png,images/cb_nodig.png,0,,,,,,,,,,,,,,,,,,,,,,
,,,,,,00036,2023-09-27_16h47.19.829,vbt_B2_day2,2022.2.4,Win32,60.0528465,,,,,,,,,,,,,,,,,,,,,,,,,,,down,0,0.6172,,-0.035185157,-0.152777778,1,0,0,2.3329,0,8,8,132,1,grappen,images/br_grappen.png,images/cb_grappen.png,0,,,,,,,,,,,,,,,,,,,,,,
,,,,,,00036,2023-09-27_16h47.19.829,vbt_B2_day2,2022.2.4,Win32,60.0528465,,,,,,,,,,,,,,,,,,,,,,,,,,,down,0,0.0679,,-0.035185157,-0.152777778,1,0,0,0.2164,0,9,9,22,1,stof,images/br_stof.png,images/cb_stof.png,0,,,,,,,,,,,,,,,,,,,,,,
,,,,,,00036,2023-09-27_16h47.19.829,vbt_B2_day2,2022.2.4,Win32,60.0528465,,,,,,,,,,,,,,,,,,,,,,,,,,,down,0,0.5149,,-0.035185157,-0.152777778,1,0,0,0.2847,0,10,10,95,1,vreten,images/br_vreten.png,images/cb_vreten.png,0,,,,,,,,,,,,,,,,,,,,,,
,,,,,,00036,2023-09-27_16h47.19.829,vbt_B2_day2,2022.2.4,Win32,60.0528465,,,,,,,,,,,,,,,,,,,,,,,,,,,down,0,0.3921,,-0.035185157,-0.152777778,1,0,0,0.299,0,11,11,105,1,wijlen,images/br_wijlen.png,images/cb_wijlen.png,0,,,,,,,,,,,,,,,,,,,,,,
,,,,,,00036,2023-09-27_16h47.19.829,vbt_B2_day2,2022.2.4,Win32,60.0528465,,,,,,,,,,,,,,,,,,,,,,,,,,,down,0,0.3341,,-0.035185157,-0.152777778,1,0,0,0.2881,0,12,12,41,1,maken,images/br_maken.png,images/cb_maken.png,0,,,,,,,,,,,,,,,,,,,,,,
,,,,,,00036,2023-09-27_16h47.19.829,vbt_B2_day2,2022.2.4,Win32,60.0528465,,,,,,,,,,,,,,,,,,,,,,,,,,,down,0,0.5171,,-0.035185157,-0.152777778,1,0,0,0.3513,0,13,13,54,1,gebit,images/br_gebit.png,images/cb_gebit.png,0,,,,,,,,,,,,,,,,,,,,,,
,,,,,,00036,2023-09-27_16h47.19.829,vbt_B2_day2,2022.2.4,Win32,60.0528465,,,,,,,,,,,,,,,,,,,,,,,,,,,down,0,0.2011,,-0.035185157,-0.152777778,1,0,0,0.4168,0,14,14,110,1,zuster,images/br_zuster.png,images/cb_zuster.png,0,,,,,,,,,,,,,,,,,,,,,,
,,,,,,00036,2023-09-27_16h47.19.829,vbt_B2_day2,2022.2.4,Win32,60.0528465,,,,,,,,,,,,,,,,,,,,,,,,,,,down,0,0.5675,,-0.035185157,-0.152777778,1,0,0,0.3,0,15,15,66,1,lever,images/br_lever.png,images/cb_lever.png,0,,,,,,,,,,,,,,,,,,,,,,
,,,,,,00036,2023-09-27_16h47.19.829,vbt_B2_day2,2022.2.4,Win32,60.0528465,,,,,,,,,,,,,,,,,,,,,,,,,,,down,0,0.6624,,-0.035185157,-0.152777778,1,0,0,0.4337,0,16,16,23,1,zout,images/br_zout.png,images/cb_zout.png,0,,,,,,,,,,,,,,,,,,,,,,
,,,,,,00036,2023-09-27_16h47.19.829,vbt_B2_day2,2022.2.4,Win32,60.0528465,,,,,,,,,,,,,,,,,,,,,,,,,,,down,0,0.0562,,-0.035185157,-0.152777778,1,0,0,0.333,0,17,17,181,1,toegeven,images/br_toegeven.png,images/cb_toegeven.png,0,,,,,,,,,,,,,,,,,,,,,,
,,,,,,00036,2023-09-27_16h47.19.829,vbt_B2_day2,2022.2.4,Win32,60.0528465,,,,,,,,,,,,,,,,,,,,,,,,,,,down,0,1.2746,,-0.035185157,-0.152777778,1,0,0,0.833,0,18,18,96,1,slagen,images/br_slagen.png,images/cb_slagen.png,1,,,,,,,,,,,,,,,,,,,,,,
,,,,,,00036,2023-09-27_16h47.19.829,vbt_B2_day2,2022.2.4,Win32,60.0528465,,,,,,,,,,,,,,,,,,,,,,,,,,,down,0,0.1247,,-0.035185157,-0.152777778,1,0,0,0.5342,0,19,19,186,1,voorraad,images/br_voorraad.png,images/cb_voorraad.png,0,,,,,,,,,,,,,,,,,,,,,,
,,,,,,00036,2023-09-27_16h47.19.829,vbt_B2_day2,2022.2.4,Win32,60.0528465,,,,,,,,,,,,,,,,,,,,,,,,,,,down,0,0.5844,,-0.035185157,-0.152777778,1,0,0,0.3549,0,20,20,153,1,vervoer,images/br_vervoer.png,images/cb_vervoer.png,0,,,,,,,,,,,,,,,,,,,,,,
,,,,,,00036,2023-09-27_16h47.19.829,vbt_B2_day2,2022.2.4,Win32,60.0528465,,,,,,,,,,,,,,,,,,,,,,,,,,,down,0,0.3605,,-0.035185157,-0.152777778,1,0,0,0.4171,0,21,21,142,1,snuiven,images/br_snuiven.png,images/cb_snuiven.png,0,,,,,,,,,,,,,,,,,,,,,,
,,,,,,00036,2023-09-27_16h47.19.829,vbt_B2_day2,2022.2.4,Win32,60.0528465,,,,,,,,,,,,,,,,,,,,,,,,,,,down,0,0.2183,,-0.035185157,-0.152777778,1,0,0,0.3832,0,22,22,100,1,geduld,images/br_geduld.png,images/cb_geduld.png,0,,,,,,,,,,,,,,,,,,,,,,
,,,,,,00036,2023-09-27_16h47.19.829,vbt_B2_day2,2022.2.4,Win32,60.0528465,,,,,,,,,,,,,,,,,,,,,,,,,,,down,0,0.2016,,-0.035185157,-0.152777778,1,0,0,0.2835,0,23,23,109,1,totaal,images/br_totaal.png,images/cb_totaal.png,0,,,,,,,,,,,,,,,,,,,,,,
,,,,,,00036,2023-09-27_16h47.19.829,vbt_B2_day2,2022.2.4,Win32,60.0528465,,,,,,,,,,,,,,,,,,,,,,,,,,,down,0,17.0047,,-0.035185157,-0.152777778,1,0,0,5.8992,0,24,24,179,1,woestijn,images/br_woestijn.png,images/cb_woestijn.png,1,woetej,,,,,,,,,,,,,,,,,,,,,
,,,,,,00036,2023-09-27_16h47.19.829,vbt_B2_day2,2022.2.4,Win32,60.0528465,,,,,,,,,,,,,,,,,,,,,,,,,,,down,0,5.15,,-0.035185157,-0.152777778,1,0,0,3.1047,0,25,25,93,1,waarop,images/br_waarop.png,images/cb_waarop.png,0,,,,,,,,,,,,,,,,,,,,,,
,,,,,,00036,2023-09-27_16h47.19.829,vbt_B2_day2,2022.2.4,Win32,60.0528465,,,,,,,,,,,,,,,,,,,,,,,,,,,down,0,12.6998,,-0.035185157,-0.152777778,1,0,0,0.2998,0,26,26,71,1,bever,images/br_bever.png,images/cb_bever.png,0,,,,,,,,,,,,,,,,,,,,,,
,,,,,,00036,2023-09-27_16h47.19.829,vbt_B2_day2,2022.2.4,Win32,60.0528465,,,,,,,,,,,,,,,,,,,,,,,,,,,down,0,1.7383,,-0.035185157,-0.152777778,1,0,0,0.3667,0,27,27,167,1,eenhoorn,images/br_eenhoorn.png,images/cb_eenhoorn.png,0,,,,,,,,,,,,,,,,,,,,,,
,,,,,,00036,2023-09-27_16h47.19.829,vbt_B2_day2,2022.2.4,Win32,60.0528465,,,,,,,,,,,,,,,,,,,,,,,,,,,down,0,1.1833,,-0.035185157,-0.152777778,1,0,0,0.333,0,28,28,171,1,aarzelen,images/br_aarzelen.png,images/cb_aarzelen.png,0,,,,,,,,,,,,,,,,,,,,,,
,,,,,,00036,2023-09-27_16h47.19.829,vbt_B2_day2,2022.2.4,Win32,60.0528465,,,,,,,,,,,,,,,,,,,,,,,,,,,down,0,0.3762,,-0.035185157,-0.152777778,1,0,0,0.3665,0,29,29,118,1,vinger,images/br_vinger.png,images/cb_vinger.png,0,,,,,,,,,,,,,,,,,,,,,,
,,,,,,00036,2023-09-27_16h47.19.829,vbt_B2_day2,2022.2.4,Win32,60.0528465,,,,,,,,,,,,,,,,,,,,,,,,,,,down,0,0.0671,,-0.035185157,-0.152777778,1,0,0,0.3001,0,30,30,117,1,kennis,images/br_kennis.png,images/cb_kennis.png,0,,,,,,,,,,,,,,,,,,,,,,
,,,,,,00036,2023-09-27_16h47.19.829,vbt_B2_day2,2022.2.4,Win32,60.0528465,,,,,,,,,,,,,,,,,,,,,,,,,,,down,0,0.2839,,-0.035185157,-0.152777778,1,0,0,0.2836,0,31,31,67,1,zwart,images/br_zwart.png,images/cb_zwart.png,0,,,,,,,,,,,,,,,,,,,,,,
,,,,,,00036,2023-09-27_16h47.19.829,vbt_B2_day2,2022.2.4,Win32,60.0528465,,,,,,,,,,,,,,,,,,,,,,,,,,,down,0,0.2056,,-0.035185157,-0.152777778,1,0,0,0.2832,0,32,32,3,1,mand,images/br_mand.png,images/cb_mand.png,0,,,,,,,,,,,,,,,,,,,,,,
,,,,,,00036,2023-09-27_16h47.19.829,vbt_B2_day2,2022.2.4,Win32,60.0528465,,,,,,,,,,,,,,,,,,,,,,,,,,,down,0,0.4314,,-0.035185157,-0.152777778,1,0,0,0.2466,0,33,33,130,1,keihard,images/br_keihard.png,images/cb_keihard.png,0,,,,,,,,,,,,,,,,,,,,,,
,,,,,,00036,2023-09-27_16h47.19.829,vbt_B2_day2,2022.2.4,Win32,60.0528465,,,,,,,,,,,,,,,,,,,,,,,,,,,down,0,0.4676,,-0.035185157,-0.152777778,1,0,0,0.3046,0,34,34,46,1,jagen,images/br_jagen.png,images/cb_jagen.png,0,,,,,,,,,,,,,,,,,,,,,,
,,,,,,00036,2023-09-27_16h47.19.829,vbt_B2_day2,2022.2.4,Win32,60.0528465,,,,,,,,,,,,,,,,,,,,,,,,,,,down,0,0.2313,,-0.035185157,-0.152777778,1,0,0,0.3493,0,35,35,119,1,liefje,images/br_liefje.png,images/cb_liefje.png,0,,,,,,,,,,,,,,,,,,,,,,
,,,,,,00036,2023-09-27_16h47.19.829,vbt_B2_day2,2022.2.4,Win32,60.0528465,,,,,,,,,,,,,,,,,,,,,,,,,,,down,0,0.3451,,-0.035185157,-0.152777778,1,0,0,0.3501,0,36,36,172,1,weigeren,images/br_weigeren.png,images/cb_weigeren.png,0,,,,,,,,,,,,,,,,,,,,,,
,,,,,,00036,2023-09-27_16h47.19.829,vbt_B2_day2,2022.2.4,Win32,60.0528465,,,,,,,,,,,,,,,,,,,,,,,,,,,down,0,0.4676,,-0.035185157,-0.152777778,1,0,0,0.2835,0,37,37,131,1,opzicht,images/br_opzicht.png,images/cb_opzicht.png,0,,,,,,,,,,,,,,,,,,,,,,
,,,,,,00036,2023-09-27_16h47.19.829,vbt_B2_day2,2022.2.4,Win32,60.0528465,,,,,,,,,,,,,,,,,,,,,,,,,,,down,0,0.0697,,-0.035185157,-0.152777778,1,0,0,0.3165,0,38,38,21,1,mist,images/br_mist.png,images/cb_mist.png,0,,,,,,,,,,,,,,,,,,,,,,
,,,,,,00036,2023-09-27_16h47.19.829,vbt_B2_day2,2022.2.4,Win32,60.0528465,,,,,,,,,,,,,,,,,,,,,,,,,,,down,0,0.0632,,-0.035185157,-0.152777778,1,0,0,0.2386,0,39,39,122,1,waarvan,images/br_waarvan.png,images/cb_waarvan.png,0,,,,,,,,,,,,,,,,,,,,,,
,,,,,,00036,2023-09-27_16h47.19.829,vbt_B2_day2,2022.2.4,Win32,60.0528465,,,,,,,,,,,,,,,,,,,,,,,,,,,down,0,0.3046,,-0.035185157,-0.152777778,1,0,0,0.1995,0,40,40,13,1,kaal,images/br_kaal.png,images/cb_kaal.png,0,,,,,,,,,,,,,,,,,,,,,,
,,,,,,00036,2023-09-27_16h47.19.829,vbt_B2_day2,2022.2.4,Win32,60.0528465,,,,,,,,,,,,,,,,,,,,,,,,,,,down,0,0.3166,,-0.035185157,-0.152777778,1,0,0,0.2328,0,41,41,12,1,kust,images/br_kust.png,images/cb_kust.png,0,,,,,,,,,,,,,,,,,,,,,,
,,,,,,00036,2023-09-27_16h47.19.829,vbt_B2_day2,2022.2.4,Win32,60.0528465,,,,,,,,,,,,,,,,,,,,,,,,,,,down,0,0.1651,,-0.035185157,-0.152777778,1,0,0,7.3651,0,42,42,187,1,opkijken,images/br_opkijken.png,images/cb_opkijken.png,0,,,,,,,,,,,,,,,,,,,,,,
,,,,,,00036,2023-09-27_16h47.19.829,vbt_B2_day2,2022.2.4,Win32,60.0528465,,,,,,,,,,,,,,,,,,,,,,,,,,,down,0,15.563,,-0.012962935,-0.137037065,1,0,0,0.2339,0,43,43,147,1,komisch,images/br_komisch.png,images/cb_komisch.png,0,,,,,,,,,,,,,,,,,,,,,,
,,,,,,00036,2023-09-27_16h47.19.829,vbt_B2_day2,2022.2.4,Win32,60.0528465,,,,,,,,,,,,,,,,,,,,,,,,,,,down,0,0.0005,,-0.012962935,-0.137037065,1,0,0,0.2312,0,44,44,76,1,afval,images/br_afval.png,images/cb_afval.png,0,,,,,,,,,,,,,,,,,,,,,,
,,,,,,00036,2023-09-27_16h47.19.829,vbt_B2_day2,2022.2.4,Win32,60.0528465,,,,,,,,,,,,,,,,,,,,,,,,,,,down,0,0.2508,,-0.012962935,-0.137037065,1,0,0,0.2993,0,45,45,52,1,wagon,images/br_wagon.png,images/cb_wagon.png,0,,,,,,,,,,,,,,,,,,,,,,
,,,,,,00036,2023-09-27_16h47.19.829,vbt_B2_day2,2022.2.4,Win32,60.0528465,,,,,,,,,,,,,,,,,,,,,,,,,,,down,0,0.6591,,-0.012962935,-0.137037065,1,0,0,0.2164,0,46,46,162,1,uitdelen,images/br_uitdelen.png,images/cb_uitdelen.png,0,,,,,,,,,,,,,,,,,,,,,,
,,,,,,00036,2023-09-27_16h47.19.829,vbt_B2_day2,2022.2.4,Win32,60.0528465,,,,,,,,,,,,,,,,,,,,,,,,,,,down,0,0.1977,,-0.012962935,-0.137037065,1,0,0,0.2999,0,47,47,101,1,staren,images/br_staren.png,images/cb_staren.png,0,,,,,,,,,,,,,,,,,,,,,,
,,,,,,00036,2023-09-27_16h47.19.829,vbt_B2_day2,2022.2.4,Win32,60.0528465,,,,,,,,,,,,,,,,,,,,,,,,,,,down,0,7.1902,,-0.012962935,-0.137037065,1,0,0,2.8493,0,48,48,75,1,snoep,images/br_snoep.png,images/cb_snoep.png,0,,,,,,,,,,,,,,,,,,,,,,
,,,,,,00036,2023-09-27_16h47.19.829,vbt_B2_day2,2022.2.4,Win32,60.0528465,,,,,,,,,,,,,,,,,,,,,,,,,,,down,0,1.8595,,-0.012962935,-0.137037065,1,0,0,1.1834,0,49,49,199,1,beseffen,images/br_beseffen.png,images/cb_beseffen.png,0,,,,,,,,,,,,,,,,,,,,,,
,,,,,,00036,2023-09-27_16h47.19.829,vbt_B2_day2,2022.2.4,Win32,60.0528465,,,,,,,,,,,,,,,,,,,,,,,,,,,down,0,7.3924,,-0.012962935,-0.137037065,1,0,0,4.916,0,50,50,56,1,traag,images/br_traag.png,images/cb_traag.png,1,traan,,,,,,,,,,,,,,,,,,,,,
,,,,,,00036,2023-09-27_16h47.19.829,vbt_B2_day2,2022.2.4,Win32,60.0528465,,,,,,,,,,,,,,,,,,,,,,,,,,,down,0,5.2834,,-0.012962935,-0.137037065,1,0,0,0.867,0,51,51,104,1,zweven,images/br_zweven.png,images/cb_zweven.png,0,,,,,,,,,,,,,,,,,,,,,,
,,,,,,00036,2023-09-27_16h47.19.829,vbt_B2_day2,2022.2.4,Win32,60.0528465,,,,,,,,,,,,,,,,,,,,,,,,,,,down,0,0.6503,,-0.012962935,-0.137037065,1,0,0,0.8666,0,52,52,108,1,excuus,images/br_excuus.png,images/cb_excuus.png,0,,,,,,,,,,,,,,,,,,,,,,
,,,,,,00036,2023-09-27_16h47.19.829,vbt_B2_day2,2022.2.4,Win32,60.0528465,,,,,,,,,,,,,,,,,,,,,,,,,,,down,0,0.5784,,-0.012962935,-0.137037065,1,0,0,0.584,0,53,53,149,1,redding,images/br_redding.png,images/cb_redding.png,0,,,,,,,,,,,,,,,,,,,,,,
,,,,,,00036,2023-09-27_16h47.19.829,vbt_B2_day2,2022.2.4,Win32,60.0528465,,,,,,,,,,,,,,,,,,,,,,,,,,,down,0,0.1845,,-0.012962935,-0.137037065,1,0,0,0.4213,0,54,54,78,1,leren,images/br_leren.png,images/cb_leren.png,0,,,,,,,,,,,,,,,,,,,,,,
,,,,,,00036,2023-09-27_16h47.19.829,vbt_B2_day2,2022.2.4,Win32,60.0528465,,,,,,,,,,,,,,,,,,,,,,,,,,,down,0,0.5474,,-0.012962935,-0.137037065,1,0,0,0.5334,0,55,55,159,1,sufferd,images/br_sufferd.png,images/cb_sufferd.png,0,,,,,,,,,,,,,,,,,,,,,,
,,,,,,00036,2023-09-27_16h47.19.829,vbt_B2_day2,2022.2.4,Win32,60.0528465,,,,,,,,,,,,,,,,,,,,,,,,,,,down,0,0.3135,,-0.012962935,-0.137037065,1,0,0,0.3668,0,56,56,69,1,waken,images/br_waken.png,images/cb_waken.png,0,,,,,,,,,,,,,,,,,,,,,,
,,,,,,00036,2023-09-27_16h47.19.829,vbt_B2_day2,2022.2.4,Win32,60.0528465,,,,,,,,,,,,,,,,,,,,,,,,,,,down,0,0.1368,,-0.012962935,-0.137037065,1,0,0,0.1663,0,57,57,64,1,wegen,images/br_wegen.png,images/cb_wegen.png,0,,,,,,,,,,,,,,,,,,,,,,
,,,,,,00036,2023-09-27_16h47.19.829,vbt_B2_day2,2022.2.4,Win32,60.0528465,,,,,,,,,,,,,,,,,,,,,,,,,,,down,0,0.2296,,-0.012962935,-0.137037065,1,0,0,0.405,0,58,58,47,1,kabel,images/br_kabel.png,images/cb_kabel.png,0,,,,,,,,,,,,,,,,,,,,,,
,,,,,,00036,2023-09-27_16h47.19.829,vbt_B2_day2,2022.2.4,Win32,60.0528465,,,,,,,,,,,,,,,,,,,,,,,,,,,down,0,5.4444,,-0.012962935,-0.137037065,1,0,0,1.7116,0,59,59,99,1,koffie,images/br_koffie.png,images/cb_koffie.png,1,woffie,,,,,,,,,,,,,,,,,,,,,
,,,,,,00036,2023-09-27_16h47.19.829,vbt_B2_day2,2022.2.4,Win32,60.0528465,,,,,,,,,,,,,,,,,,,,,,,,,,,down,0,0.8179,,-0.012962935,-0.137037065,1,0,0,0.7878,0,60,60,145,1,invloed,images/br_invloed.png,images/cb_invloed.png,0,,,,,,,,,,,,,,,,,,,,,,
,,,,,,00036,2023-09-27_16h47.19.829,vbt_B2_day2,2022.2.4,Win32,60.0528465,,,,,,,,,,,,,,,,,,,,,,,,,,,down,0,0.7406,,-0.012962935,-0.137037065,1,0,0,0.7334,0,61,61,120,1,klimmen,images/br_klimmen.png,images/cb_klimmen.png,0,,,,,,,,,,,,,,,,,,,,,,
,,,,,,00036,2023-09-27_16h47.19.829,vbt_B2_day2,2022.2.4,Win32,60.0528465,,,,,,,,,,,,,,,,,,,,,,,,,,,down,0,1.3841,,-0.012962935,-0.137037065,1,0,0,1.5857,0,62,62,26,1,leuk,images/br_leuk.png,images/cb_leuk.png,0,,,,,,,,,,,,,,,,,,,,,,
,,,,,,00036,2023-09-27_16h47.19.829,vbt_B2_day2,2022.2.4,Win32,60.0528465,,,,,,,,,,,,,,,,,,,,,,,,,,,down,0,0.5717,,-0.012962935,-0.137037065,1,0,0,0.4673,0,63,63,83,1,mening,images/br_mening.png,images/cb_mening.png,0,,,,,,,,,,,,,,,,,,,,,,
,,,,,,00036,2023-09-27_16h47.19.829,vbt_B2_day2,2022.2.4,Win32,60.0528465,,,,,,,,,,,,,,,,,,,,,,,,,,,down,0,0.2331,,-0.012962935,-0.137037065,1,0,0,0.4694,0,64,64,161,1,attentie,images/br_attentie.png,images/cb_attentie.png,0,,,,,,,,,,,,,,,,,,,,,,
,,,,,,00036,2023-09-27_16h47.19.829,vbt_B2_day2,2022.2.4,Win32,60.0528465,,,,,,,,,,,,,,,,,,,,,,,,,,,down,0,0.3504,,-0.012962935,-0.137037065,1,0,0,2.6999,0,65,65,169,1,oprotten,images/br_oprotten.png,images/cb_oprotten.png,0,,,,,,,,,,,,,,,,,,,,,,
,,,,,,00036,2023-09-27_16h47.19.829,vbt_B2_day2,2022.2.4,Win32,60.0528465,,,,,,,,,,,,,,,,,,,,,,,,,,,down,0,0.785,,-0.012962935,-0.137037065,1,0,0,0.8164,0,66,66,103,1,joggen,images/br_joggen.png,images/cb_joggen.png,0,,,,,,,,,,,,,,,,,,,,,,
,,,,,,00036,2023-09-27_16h47.19.829,vbt_B2_day2,2022.2.4,Win32,60.0528465,,,,,,,,,,,,,,,,,,,,,,,,,,,down,0,0.3968,,-0.012962935,-0.137037065,1,0,0,0.5045,0,67,67,148,1,smullen,images/br_smullen.png,images/cb_smullen.png,0,,,,,,,,,,,,,,,,,,,,,,
,,,,,,00036,2023-09-27_16h47.19.829,vbt_B2_day2,2022.2.4,Win32,60.0528465,,,,,,,,,,,,,,,,,,,,,,,,,,,down,0,0.5779,,-0.012962935,-0.137037065,1,0,0,0.566,0,68,68,68,1,schat,images/br_schat.png,images/cb_schat.png,0,,,,,,,,,,,,,,,,,,,,,,
,,,,,,00036,2023-09-27_16h47.19.829,vbt_B2_day2,2022.2.4,Win32,60.0528465,,,,,,,,,,,,,,,,,,,,,,,,,,,down,0,0.5543,,-0.012962935,-0.137037065,1,0,0,0.55,0,69,69,36,1,vuur,images/br_vuur.png,images/cb_vuur.png,0,,,,,,,,,,,,,,,,,,,,,,
,,,,,,00036,2023-09-27_16h47.19.829,vbt_B2_day2,2022.2.4,Win32,60.0528465,,,,,,,,,,,,,,,,,,,,,,,,,,,down,0,0.4772,,-0.012962935,-0.137037065,1,0,0,0.4385,0,70,70,193,1,weeshuis,images/br_weeshuis.png,images/cb_weeshuis.png,0,,,,,,,,,,,,,,,,,,,,,,
,,,,,,00036,2023-09-27_16h47.19.829,vbt_B2_day2,2022.2.4,Win32,60.0528465,,,,,,,,,,,,,,,,,,,,,,,,,,,down,0,0.646,,-0.012962935,-0.137037065,1,0,0,0.7506,0,71,71,194,1,driemaal,images/br_driemaal.png,images/cb_driemaal.png,0,,,,,,,,,,,,,,,,,,,,,,
,,,,,,00036,2023-09-27_16h47.19.829,vbt_B2_day2,2022.2.4,Win32,60.0528465,,,,,,,,,,,,,,,,,,,,,,,,,,,down,0,0.3504,,-0.012962935,-0.137037065,1,0,0,0.4175,0,72,72,135,1,gedicht,images/br_gedicht.png,images/cb_gedicht.png,0,,,,,,,,,,,,,,,,,,,,,,
,,,,,,00036,2023-09-27_16h47.19.829,vbt_B2_day2,2022.2.4,Win32,60.0528465,,,,,,,,,,,,,,,,,,,,,,,,,,,down,0,9.744,,-0.012962935,-0.137037065,1,0,0,5.3998,0,73,73,177,1,maaltijd,images/br_maaltijd.png,images/cb_maaltijd.png,1,maaltafel,,,,,,,,,,,,,,,,,,,,,
,,,,,,00036,2023-09-27_16h47.19.829,vbt_B2_day2,2022.2.4,Win32,60.0528465,,,,,,,,,,,,,,,,,,,,,,,,,,,down,0,0.495,,-0.012962935,-0.137037065,1,0,0,0.4458,0,74,74,50,1,stoom,images/br_stoom.png,images/cb_stoom.png,0,,,,,,,,,,,,,,,,,,,,,,
,,,,,,00036,2023-09-27_16h47.19.829,vbt_B2_day2,2022.2.4,Win32,60.0528465,,,,,,,,,,,,,,,,,,,,,,,,,,,down,0,0.3276,,-0.012962935,-0.137037065,1,0,0,0.3996,0,75,75,144,1,eetlust,images/br_eetlust.png,images/cb_eetlust.png,0,,,,,,,,,,,,,,,,,,,,,,
,,,,,,00036,2023-09-27_16h47.19.829,vbt_B2_day2,2022.2.4,Win32,60.0528465,,,,,,,,,,,,,,,,,,,,,,,,,,,down,0,0.2634,,-0.012962935,-0.137037065,1,0,0,0.451,0,76,76,94,1,oceaan,images/br_oceaan.png,images/cb_oceaan.png,0,,,,,,,,,,,,,,,,,,,,,,
,,,,,,00036,2023-09-27_16h47.19.829,vbt_B2_day2,2022.2.4,Win32,60.0528465,,,,,,,,,,,,,,,,,,,,,,,,,,,down,0,12.4328,,-0.012962935,-0.137037065,1,0,0,2.2997,0,77,77,139,1,stiekem,images/br_stiekem.png,images/cb_stiekem.png,1,iewem,,,,,,,,,,,,,,,,,,,,,
,,,,,,00036,2023-09-27_16h47.19.829,vbt_B2_day2,2022.2.4,Win32,60.0528465,,,,,,,,,,,,,,,,,,,,,,,,,,,down,0,0.3737,,-0.012962935,-0.137037065,1,0,0,1.1661,0,78,78,86,1,woning,images/br_woning.png,images/cb_woning.png,0,,,,,,,,,,,,,,,,,,,,,,
,,,,,,00036,2023-09-27_16h47.19.829,vbt_B2_day2,2022.2.4,Win32,60.0528465,,,,,,,,,,,,,,,,,,,,,,,,,,,down,0,0.242,,-0.012962935,-0.137037065,1,0,0,0.4161,0,79,79,31,1,poes,images/br_poes.png,images/cb_poes.png,0,,,,,,,,,,,,,,,,,,,,,,
,,,,,,00036,2023-09-27_16h47.19.829,vbt_B2_day2,2022.2.4,Win32,60.0528465,,,,,,,,,,,,,,,,,,,,,,,,,,,down,0,12.2417,,-0.012962935,-0.137037065,1,0,0,3.4133,0,80,80,58,1,tekst,images/br_tekst.png,images/cb_tekst.png,1,tewst,,,,,,,,,,,,,,,,,,,,,
,,,,,,00036,2023-09-27_16h47.19.829,vbt_B2_day2,2022.2.4,Win32,60.0528465,,,,,,,,,,,,,,,,,,,,,,,,,,,down,0,0.767,,-0.012962935,-0.137037065,1,0,0,0.7545,0,81,81,180,1,openbaar,images/br_openbaar.png,images/cb_openbaar.png,0,,,,,,,,,,,,,,,,,,,,,,
,,,,,,00036,2023-09-27_16h47.19.829,vbt_B2_day2,2022.2.4,Win32,60.0528465,,,,,,,,,,,,,,,,,,,,,,,,,,,down,0,0.3222,,-0.012962935,-0.137037065,1,0,0,0.3995,0,82,82,91,1,gezond,images/br_gezond.png,images/cb_gezond.png,0,,,,,,,,,,,,,,,,,,,,,,
,,,,,,00036,2023-09-27_16h47.19.829,vbt_B2_day2,2022.2.4,Win32,60.0528465,,,,,,,,,,,,,,,,,,,,,,,,,,,down,0,0.5445,,-0.012962935,-0.137037065,1,0,0,0.4995,0,83,83,53,1,baron,images/br_baron.png,images/cb_baron.png,0,,,,,,,,,,,,,,,,,,,,,,
,,,,,,00036,2023-09-27_16h47.19.829,vbt_B2_day2,2022.2.4,Win32,60.0528465,,,,,,,,,,,,,,,,,,,,,,,,,,,down,0,0.2338,,-0.012962935,-0.137037065,1,0,0,0.4164,0,84,84,48,1,steel,images/br_steel.png,images/cb_steel.png,0,,,,,,,,,,,,,,,,,,,,,,
,,,,,,00036,2023-09-27_16h47.19.829,vbt_B2_day2,2022.2.4,Win32,60.0528465,,,,,,,,,,,,,,,,,,,,,,,,,,,down,0,0.2006,,-0.012962935,-0.137037065,1,0,0,0.3826,0,85,85,157,1,uitlaat,images/br_uitlaat.png,images/cb_uitlaat.png,0,,,,,,,,,,,,,,,,,,,,,,
,,,,,,00036,2023-09-27_16h47.19.829,vbt_B2_day2,2022.2.4,Win32,60.0528465,,,,,,,,,,,,,,,,,,,,,,,,,,,down,0,0.5182,,-0.012962935,-0.137037065,1,0,0,0.5876,0,86,86,113,1,koppen,images/br_koppen.png,images/cb_koppen.png,0,,,,,,,,,,,,,,,,,,,,,,
,,,,,,00036,2023-09-27_16h47.19.829,vbt_B2_day2,2022.2.4,Win32,60.0528465,,,,,,,,,,,,,,,,,,,,,,,,,,,down,0,0.5264,,-0.012962935,-0.137037065,1,0,0,0.6378,0,87,87,155,1,gerucht,images/br_gerucht.png,images/cb_gerucht.png,0,,,,,,,,,,,,,,,,,,,,,,
,,,,,,00036,2023-09-27_16h47.19.829,vbt_B2_day2,2022.2.4,Win32,60.0528465,,,,,,,,,,,,,,,,,,,,,,,,,,,down,0,0.555,,-0.012962935,-0.137037065,1,0,0,0.5995,0,88,88,85,1,heilig,images/br_heilig.png,images/cb_heilig.png,0,,,,,,,,,,,,,,,,,,,,,,
,,,,,,00036,2023-09-27_16h47.19.829,vbt_B2_day2,2022.2.4,Win32,60.0528465,,,,,,,,,,,,,,,,,,,,,,,,,,,down,0,4.2062,,-0.012962935,-0.137037065,1,0,0,2.6995,0,89,89,128,1,prikken,images/br_prikken.png,images/cb_prikken.png,0,,,,,,,,,,,,,,,,,,,,,,
,,,,,,00036,2023-09-27_16h47.19.829,vbt_B2_day2,2022.2.4,Win32,60.0528465,,,,,,,,,,,,,,,,,,,,,,,,,,,down,0,13.5056,,-0.012962935,-0.137037065,1,0,0,0.6327,0,90,90,42,1,bleek,images/br_bleek.png,images/cb_bleek.png,0,,,,,,,,,,,,,,,,,,,,,,
,,,,,,00036,2023-09-27_16h47.19.829,vbt_B2_day2,2022.2.4,Win32,60.0528465,,,,,,,,,,,,,,,,,,,,,,,,,,,down,0,2.6257,,-0.012962935,-0.137037065,1,0,0,0.3556,0,91,91,65,1,parel,images/br_parel.png,images/cb_parel.png,0,,,,,,,,,,,,,,,,,,,,,,
,,,,,,00036,2023-09-27_16h47.19.829,vbt_B2_day2,2022.2.4,Win32,60.0528465,,,,,,,,,,,,,,,,,,,,,,,,,,,down,0,11.1682,,-0.012962935,-0.137037065,1,0,0,5.4879,0,92,92,127,1,doodmoe,images/br_doodmoe.png,images/cb_doodmoe.png,0,,,,,,,,,,,,,,,,,,,,,,
,,,,,,00036,2023-09-27_16h47.19.829,vbt_B2_day2,2022.2.4,Win32,60.0528465,,,,,,,,,,,,,,,,,,,,,,,,,,,down,0,0.4887,,-0.012962935,-0.137037065,1,0,0,0.5499,0,93,93,81,1,dubbel,images/br_dubbel.png,images/cb_dubbel.png,0,,,,,,,,,,,,,,,,,,,,,,
,,,,,,00036,2023-09-27_16h47.19.829,vbt_B2_day2,2022.2.4,Win32,60.0528465,,,,,,,,,,,,,,,,,,,,,,,,,,,down,0,0.2963,,-0.012962935,-0.137037065,1,0,0,0.3877,0,94,94,74,1,graaf,images/br_graaf.png,images/cb_graaf.png,0,,,,,,,,,,,,,,,,,,,,,,
,,,,,,00036,2023-09-27_16h47.19.829,vbt_B2_day2,2022.2.4,Win32,60.0528465,,,,,,,,,,,,,,,,,,,,,,,,,,,down,0,0.3481,,-0.012962935,-0.137037065,1,0,0,0.4329,0,95,95,9,1,hier,images/br_hier.png,images/cb_hier.png,0,,,,,,,,,,,,,,,,,,,,,,
,,,,,,00036,2023-09-27_16h47.19.829,vbt_B2_day2,2022.2.4,Win32,60.0528465,,,,,,,,,,,,,,,,,,,,,,,,,,,down,0,7.6271,,-0.012962935,-0.137037065,1,0,0,1.2888,0,96,96,138,1,akkoord,images/br_akkoord.png,images/cb_akkoord.png,1,akkoorj,,,,,,,,,,,,,,,,,,,,,
,,,,,,00036,2023-09-27_16h47.19.829,vbt_B2_day2,2022.2.4,Win32,60.0528465,,,,,,,,,,,,,,,,,,,,,,,,,,,down,0,1.6883,,-0.012962935,-0.137037065,1,0,0,1.8334,0,97,97,24,1,jurk,images/br_jurk.png,images/cb_jurk.png,0,,,,,,,,,,,,,,,,,,,,,,
,,,,,,00036,2023-09-27_16h47.19.829,vbt_B2_day2,2022.2.4,Win32,60.0528465,,,,,,,,,,,,,,,,,,,,,,,,,,,down,0,0.5386,,-0.012962935,-0.137037065,1,0,0,0.5786,0,98,98,40,1,schep,images/br_schep.png,images/cb_schep.png,0,,,,,,,,,,,,,,,,,,,,,,
,,,,,,00036,2023-09-27_16h47.19.829,vbt_B2_day2,2022.2.4,Win32,60.0528465,,,,,,,,,,,,,,,,,,,,,,,,,,,down,0,0.5567,,-0.012962935,-0.137037065,1,0,0,0.5286,0,99,99,84,1,lokken,images/br_lokken.png,images/cb_lokken.png,0,,,,,,,,,,,,,,,,,,,,,,
,,,,,,00036,2023-09-27_16h47.19.829,vbt_B2_day2,2022.2.4,Win32,60.0528465,,,,,,,,,,,,,,,,,,,,,,,,,,,down,0,0.2624,,-0.012962935,-0.137037065,1,0,0,0.4836,0,100,100,196,1,nakijken,images/br_nakijken.png,images/cb_nakijken.png,0,,,,,,,,,,,,,,,,,,,,,,
,,,,,,00036,2023-09-27_16h47.19.829,vbt_B2_day2,2022.2.4,Win32,60.0528465,,,,,,,,,,,,,,,,,,,,,,,,,,,down,0,0.496,,-0.012962935,-0.137037065,1,0,0,0.4874,0,101,101,154,1,aflopen,images/br_aflopen.png,images/cb_aflopen.png,0,,,,,,,,,,,,,,,,,,,,,,
,,,,,,00036,2023-09-27_16h47.19.829,vbt_B2_day2,2022.2.4,Win32,60.0528465,,,,,,,,,,,,,,,,,,,,,,,,,,,down,0,0.4677,,-0.012962935,-0.137037065,1,0,0,0.4513,0,102,102,168,1,bisschop,images/br_bisschop.png,images/cb_bisschop.png,0,,,,,,,,,,,,,,,,,,,,,,
,,,,,,00036,2023-09-27_16h47.19.829,vbt_B2_day2,2022.2.4,Win32,60.0528465,,,,,,,,,,,,,,,,,,,,,,,,,,,down,0,12.4606,,-0.012962935,-0.137037065,1,0,0,1.9994,0,103,103,176,1,techniek,images/br_techniek.png,images/cb_techniek.png,1,tefiek,,,,,,,,,,,,,,,,,,,,,
,,,,,,00036,2023-09-27_16h47.19.829,vbt_B2_day2,2022.2.4,Win32,60.0528465,,,,,,,,,,,,,,,,,,,,,,,,,,,down,0,0.3795,,-0.012962935,-0.137037065,1,0,0,0.4387,0,104,104,34,1,vorm,images/br_vorm.png,images/cb_vorm.png,0,,,,,,,,,,,,,,,,,,,,,,
,,,,,,00036,2023-09-27_16h47.19.829,vbt_B2_day2,2022.2.4,Win32,60.0528465,,,,,,,,,,,,,,,,,,,,,,,,,,,down,0,0.2842,,-0.012962935,-0.137037065,1,0,0,0.4338,0,105,105,62,1,knaap,images/br_knaap.png,images/cb_knaap.png,0,,,,,,,,,,,,,,,,,,,,,,
,,,,,,00036,2023-09-27_16h47.19.829,vbt_B2_day2,2022.2.4,Win32,60.0528465,,,,,,,,,,,,,,,,,,,,,,,,,,,down,0,2.0959,,-0.012962935,-0.137037065,1,0,0,2.1278,0,106,106,60,1,jasje,images/br_jasje.png,images/cb_jasje.png,0,,,,,,,,,,,,,,,,,,,,,,
,,,,,,00036,2023-09-27_16h47.19.829,vbt_B2_day2,2022.2.4,Win32,60.0528465,,,,,,,,,,,,,,,,,,,,,,,,,,,down,0,0.4831,,-0.012962935,-0.137037065,1,0,0,0.567,0,107,107,184,1,aandelen,images/br_aandelen.png,images/cb_aandelen.png,0,,,,,,,,,,,,,,,,,,,,,,
,,,,,,00036,2023-09-27_16h47.19.829,vbt_B2_day2,2022.2.4,Win32,60.0528465,,,,,,,,,,,,,,,,,,,,,,,,,,,down,0,5.0051,,-0.012962935,-0.137037065,1,0,0,2.3217,0,108,108,73,1,volop,images/br_volop.png,images/cb_volop.png,0,,,,,,,,,,,,,,,,,,,,,,
,,,,,,00036,2023-09-27_16h47.19.829,vbt_B2_day2,2022.2.4,Win32,60.0528465,,,,,,,,,,,,,,,,,,,,,,,,,,,down,0,2.2687,,-0.012962935,-0.137037065,1,0,0,0.9497,0,109,109,156,1,rechten,images/br_rechten.png,images/cb_rechten.png,0,,,,,,,,,,,,,,,,,,,,,,
,,,,,,00036,2023-09-27_16h47.19.829,vbt_B2_day2,2022.2.4,Win32,60.0528465,,,,,,,,,,,,,,,,,,,,,,,,,,,down,0,1.1007,,-0.012962935,-0.137037065,1,0,0,1.2343,0,110,110,29,1,baas,images/br_baas.png,images/cb_baas.png,0,,,,,,,,,,,,,,,,,,,,,,
,,,,,,00036,2023-09-27_16h47.19.829,vbt_B2_day2,2022.2.4,Win32,60.0528465,,,,,,,,,,,,,,,,,,,,,,,,,,,down,0,1.0968,,-0.012962935,-0.137037065,1,0,0,1.2191,0,111,111,126,1,kasteel,images/br_kasteel.png,images/cb_kasteel.png,0,,,,,,,,,,,,,,,,,,,,,,
,,,,,,00036,2023-09-27_16h47.19.829,vbt_B2_day2,2022.2.4,Win32,60.0528465,,,,,,,,,,,,,,,,,,,,,,,,,,,down,0,0.1924,,-0.012962935,-0.137037065,1,0,0,0.4508,0,112,112,140,1,blijven,images/br_blijven.png,images/cb_blijven.png,0,,,,,,,,,,,,,,,,,,,,,,
,,,,,,00036,2023-09-27_16h47.19.829,vbt_B2_day2,2022.2.4,Win32,60.0528465,,,,,,,,,,,,,,,,,,,,,,,,,,,down,0,0.3224,,-0.012962935,-0.137037065,1,0,0,0.5161,0,113,113,61,1,groen,images/br_groen.png,images/cb_groen.png,0,,,,,,,,,,,,,,,,,,,,,,
,,,,,,00036,2023-09-27_16h47.19.829,vbt_B2_day2,2022.2.4,Win32,60.0528465,,,,,,,,,,,,,,,,,,,,,,,,,,,down,0,0.2171,,-0.012962935,-0.137037065,1,0,0,0.3117,0,114,114,92,1,geheim,images/br_geheim.png,images/cb_geheim.png,0,,,,,,,,,,,,,,,,,,,,,,
,,,,,,00036,2023-09-27_16h47.19.829,vbt_B2_day2,2022.2.4,Win32,60.0528465,,,,,,,,,,,,,,,,,,,,,,,,,,,down,0,1.5174,,-0.012962935,-0.137037065,1,0,0,1.1284,0,115,115,137,1,trekker,images/br_trekker.png,images/cb_trekker.png,1,,,,,,,,,,,,,,,,,,,,,,
,,,,,,00036,2023-09-27_16h47.19.829,vbt_B2_day2,2022.2.4,Win32,60.0528465,,,,,,,,,,,,,,,,,,,,,,,,,,,down,0,0.5173,,-0.012962935,-0.137037065,1,0,0,0.6879,0,116,116,163,1,schuilen,images/br_schuilen.png,images/cb_schuilen.png,0,,,,,,,,,,,,,,,,,,,,,,
,,,,,,00036,2023-09-27_16h47.19.829,vbt_B2_day2,2022.2.4,Win32,60.0528465,,,,,,,,,,,,,,,,,,,,,,,,,,,down,0,7.0498,,-0.012962935,-0.137037065,1,0,0,1.9722,0,117,117,136,1,waarbij,images/br_waarbij.png,images/cb_waarbij.png,1,waarj,,,,,,,,,,,,,,,,,,,,,
,,,,,,00036,2023-09-27_16h47.19.829,vbt_B2_day2,2022.2.4,Win32,60.0528465,,,,,,,,,,,,,,,,,,,,,,,,,,,down,0,1.4948,,-0.012962935,-0.137037065,1,0,0,1.7219,0,118,118,43,1,klauw,images/br_klauw.png,images/cb_klauw.png,0,,,,,,,,,,,,,,,,,,,,,,
,,,,,,00036,2023-09-27_16h47.19.829,vbt_B2_day2,2022.2.4,Win32,60.0528465,,,,,,,,,,,,,,,,,,,,,,,,,,,down,0,0.2881,,-0.012962935,-0.137037065,1,0,0,0.6833,0,119,119,170,1,schatten,images/br_schatten.png,images/cb_schatten.png,0,,,,,,,,,,,,,,,,,,,,,,
,,,,,,00036,2023-09-27_16h47.19.829,vbt_B2_day2,2022.2.4,Win32,60.0528465,,,,,,,,,,,,,,,,,,,,,,,,,,,down,0,5.3279,,-0.012962935,-0.137037065,1,0,0,3.2337,0,120,120,18,1,blik,images/br_blik.png,images/cb_blik.png,1,liw,,,,,,,,,,,,,,,,,,,,,
,,,,,,00036,2023-09-27_16h47.19.829,vbt_B2_day2,2022.2.4,Win32,60.0528465,,,,,,,,,,,,,,,,,,,,,,,,,,,down,0,0.3384,,-0.012962935,-0.137037065,1,0,0,0.5548,0,121,121,14,1,rijp,images/br_rijp.png,images/cb_rijp.png,0,,,,,,,,,,,,,,,,,,,,,,
,,,,,,00036,2023-09-27_16h47.19.829,vbt_B2_day2,2022.2.4,Win32,60.0528465,,,,,,,,,,,,,,,,,,,,,,,,,,,down,0,0.684,,-0.012962935,-0.137037065,1,0,0,0.8843,0,122,122,28,1,stal,images/br_stal.png,images/cb_stal.png,0,,,,,,,,,,,,,,,,,,,,,,
,,,,,,00036,2023-09-27_16h47.19.829,vbt_B2_day2,2022.2.4,Win32,60.0528465,,,,,,,,,,,,,,,,,,,,,,,,,,,down,0,0.4169,,-0.01851849,-0.150925954,1,0,0,0.5449,0,123,123,30,1,uien,images/br_uien.png,images/cb_uien.png,0,,,,,,,,,,,,,,,,,,,,,,
,,,,,,00036,2023-09-27_16h47.19.829,vbt_B2_day2,2022.2.4,Win32,60.0528465,,,,,,,,,,,,,,,,,,,,,,,,,,,down,0,10.4443,,-0.042592536,-0.307407464,1,0,0,2.1653,0,124,124,97,1,loyaal,images/br_loyaal.png,images/cb_loyaal.png,1,ioaal,,,,,,,,,,,,,,,,,,,,,
,,,,,,00036,2023-09-27_16h47.19.829,vbt_B2_day2,2022.2.4,Win32,60.0528465,,,,,,,,,,,,,,,,,,,,,,,,,,,down,0,0.5826,,-0.042592536,-0.307407464,1,0,0,0.5215,0,125,125,15,1,soda,images/br_soda.png,images/cb_soda.png,0,,,,,,,,,,,,,,,,,,,,,,
,,,,,,00036,2023-09-27_16h47.19.829,vbt_B2_day2,2022.2.4,Win32,60.0528465,,,,,,,,,,,,,,,,,,,,,,,,,,,down,0,0.2187,,-0.042592536,-0.307407464,1,0,0,0.4675,0,126,126,151,1,aanzoek,images/br_aanzoek.png,images/cb_aanzoek.png,0,,,,,,,,,,,,,,,,,,,,,,
,,,,,,00036,2023-09-27_16h47.19.829,vbt_B2_day2,2022.2.4,Win32,60.0528465,,,,,,,,,,,,,,,,,,,,,,,,,,,down,0,0.3627,,-0.042592536,-0.307407464,1,0,0,0.6047,0,127,127,35,1,lust,images/br_lust.png,images/cb_lust.png,0,,,,,,,,,,,,,,,,,,,,,,
,,,,,,00036,2023-09-27_16h47.19.829,vbt_B2_day2,2022.2.4,Win32,60.0528465,,,,,,,,,,,,,,,,,,,,,,,,,,,down,0,0.3679,,-0.042592536,-0.307407464,1,0,0,0.6165,0,128,128,38,1,baai,images/br_baai.png,images/cb_baai.png,0,,,,,,,,,,,,,,,,,,,,,,
,,,,,,00036,2023-09-27_16h47.19.829,vbt_B2_day2,2022.2.4,Win32,60.0528465,,,,,,,,,,,,,,,,,,,,,,,,,,,down,0,14.6323,,-0.011111111,-0.379629686,1,0,0,0.6165,0,129,129,98,1,kreeft,images/br_kreeft.png,images/cb_kreeft.png,1,wreeft,,,,,,,,,,,,,,,,,,,,,
,,,,,,00036,2023-09-27_16h47.19.829,vbt_B2_day2,2022.2.4,Win32,60.0528465,,,,,,,,,,,,,,,,,,,,,,,,,,,down,0,1.517,,-0.011111111,-0.379629686,1,0,0,1.0112,0,130,130,165,1,feestdag,images/br_feestdag.png,images/cb_feestdag.png,0,,,,,,,,,,,,,,,,,,,,,,
,,,,,,00036,2023-09-27_16h47.19.829,vbt_B2_day2,2022.2.4,Win32,60.0528465,,,,,,,,,,,,,,,,,,,,,,,,,,,down,0,0.219,,-0.011111111,-0.379629686,1,0,0,0.4444,0,131,131,111,1,ticket,images/br_ticket.png,images/cb_ticket.png,0,,,,,,,,,,,,,,,,,,,,,,
,,,,,,00036,2023-09-27_16h47.19.829,vbt_B2_day2,2022.2.4,Win32,60.0528465,,,,,,,,,,,,,,,,,,,,,,,,,,,down,0,2.0791,,-0.011111111,-0.379629686,1,0,0,2.0453,0,132,132,32,1,palm,images/br_palm.png,images/cb_palm.png,0,,,,,,,,,,,,,,,,,,,,,,
,,,,,,00036,2023-09-27_16h47.19.829,vbt_B2_day2,2022.2.4,Win32,60.0528465,,,,,,,,,,,,,,,,,,,,,,,,,,,down,0,0.4782,,-0.011111111,-0.379629686,1,0,0,0.6659,0,133,133,121,1,twijfel,images/br_twijfel.png,images/cb_twijfel.png,0,,,,,,,,,,,,,,,,,,,,,,
,,,,,,00036,2023-09-27_16h47.19.829,vbt_B2_day2,2022.2.4,Win32,60.0528465,,,,,,,,,,,,,,,,,,,,,,,,,,,down,0,7.992,,-0.011111111,-0.379629686,1,0,0,0.669,0,134,134,17,1,taal,images/br_taal.png,images/cb_taal.png,1,taal,,,,,,,,,,,,,,,,,,,,,
,,,,,,00036,2023-09-27_16h47.19.829,vbt_B2_day2,2022.2.4,Win32,60.0528465,,,,,,,,,,,,,,,,,,,,,,,,,,,down,0,8.3451,,-0.011111111,-0.379629686,1,0,0,0.6832,0,135,135,178,1,huisdier,images/br_huisdier.png,images/cb_huisdier.png,1,fejie,,,,,,,,,,,,,,,,,,,,,
,,,,,,00036,2023-09-27_16h47.19.829,vbt_B2_day2,2022.2.4,Win32,60.0528465,,,,,,,,,,,,,,,,,,,,,,,,,,,down,0,0.6328,,-0.011111111,-0.379629686,1,0,0,0.8203,0,136,136,1,1,zaal,images/br_zaal.png,images/cb_zaal.png,0,,,,,,,,,,,,,,,,,,,,,,
,,,,,,00036,2023-09-27_16h47.19.829,vbt_B2_day2,2022.2.4,Win32,60.0528465,,,,,,,,,,,,,,,,,,,,,,,,,,,down,0,0.4797,,-0.011111111,-0.379629686,1,0,0,0.716,0,137,137,37,1,mijn,images/br_mijn.png,images/cb_mijn.png,0,,,,,,,,,,,,,,,,,,,,,,
,,,,,,00036,2023-09-27_16h47.19.829,vbt_B2_day2,2022.2.4,Win32,60.0528465,,,,,,,,,,,,,,,,,,,,,,,,,,,down,0,0.0014,,-0.011111111,-0.379629686,1,0,0,0.5993,0,138,138,191,1,opheffen,images/br_opheffen.png,images/cb_opheffen.png,0,,,,,,,,,,,,,,,,,,,,,,
,,,,,,00036,2023-09-27_16h47.19.829,vbt_B2_day2,2022.2.4,Win32,60.0528465,,,,,,,,,,,,,,,,,,,,,,,,,,,down,0,1.4957,,-0.011111111,-0.379629686,1,0,0,0.5225,0,139,139,190,1,goedkoop,images/br_goedkoop.png,images/cb_goedkoop.png,0,,,,,,,,,,,,,,,,,,,,,,
,,,,,,00036,2023-09-27_16h47.19.829,vbt_B2_day2,2022.2.4,Win32,60.0528465,,,,,,,,,,,,,,,,,,,,,,,,,,,down,0,0.2602,,-0.011111111,-0.379629686,1,0,0,0.7714,0,140,140,150,1,gegeven,images/br_gegeven.png,images/cb_gegeven.png,0,,,,,,,,,,,,,,,,,,,,,,
,,,,,,00036,2023-09-27_16h47.19.829,vbt_B2_day2,2022.2.4,Win32,60.0528465,,,,,,,,,,,,,,,,,,,,,,,,,,,down,0,0.1406,,-0.011111111,-0.379629686,1,0,0,0.6051,0,141,141,10,1,leek,images/br_leek.png,images/cb_leek.png,0,,,,,,,,,,,,,,,,,,,,,,
,,,,,,00036,2023-09-27_16h47.19.829,vbt_B2_day2,2022.2.4,Win32,60.0528465,,,,,,,,,,,,,,,,,,,,,,,,,,,down,0,0.2506,,-0.011111111,-0.379629686,1,0,0,0.5213,0,142,142,188,1,strekken,images/br_strekken.png,images/cb_strekken.png,0,,,,,,,,,,,,,,,,,,,,,,
,,,,,,00036,2023-09-27_16h47.19.829,vbt_B2_day2,2022.2.4,Win32,60.0528465,,,,,,,,,,,,,,,,,,,,,,,,,,,down,0,1.3832,,-0.011111111,-0.379629686,1,0,0,1.6326,0,143,143,63,1,flirt,images/br_flirt.png,images/cb_flirt.png,0,,,,,,,,,,,,,,,,,,,,,,
,,,,,,00036,2023-09-27_16h47.19.829,vbt_B2_day2,2022.2.4,Win32,60.0528465,,,,,,,,,,,,,,,,,,,,,,,,,,,down,0,0.4504,,-0.011111111,-0.379629686,1,0,0,0.6332,0,144,144,152,1,afnemen,images/br_afnemen.png,images/cb_afnemen.png,0,,,,,,,,,,,,,,,,,,,,,,
,,,,,,00036,2023-09-27_16h47.19.829,vbt_B2_day2,2022.2.4,Win32,60.0528465,,,,,,,,,,,,,,,,,,,,,,,,,,,down,0,0.3984,,-0.011111111,-0.379629686,1,0,0,0.4325,0,145,145,89,1,slapen,images/br_slapen.png,images/cb_slapen.png,0,,,,,,,,,,,,,,,,,,,,,,
,,,,,,00036,2023-09-27_16h47.19.829,vbt_B2_day2,2022.2.4,Win32,60.0528465,,,,,,,,,,,,,,,,,,,,,,,,,,,down,0,0.3794,,-0.011111111,-0.379629686,1,0,0,0.4319,0,146,146,125,1,aanzien,images/br_aanzien.png,images/cb_aanzien.png,0,,,,,,,,,,,,,,,,,,,,,,
,,,,,,00036,2023-09-27_16h47.19.829,vbt_B2_day2,2022.2.4,Win32,60.0528465,,,,,,,,,,,,,,,,,,,,,,,,,,,down,0,0.2171,,-0.011111111,-0.379629686,1,0,0,0.3996,0,147,147,183,1,getuigen,images/br_getuigen.png,images/cb_getuigen.png,0,,,,,,,,,,,,,,,,,,,,,,
,,,,,,00036,2023-09-27_16h47.19.829,vbt_B2_day2,2022.2.4,Win32,60.0528465,,,,,,,,,,,,,,,,,,,,,,,,,,,down,0,0.3977,,-0.011111111,-0.379629686,1,0,0,0.45,0,148,148,146,1,opkomen,images/br_opkomen.png,images/cb_opkomen.png,0,,,,,,,,,,,,,,,,,,,,,,
,,,,,,00036,2023-09-27_16h47.19.829,vbt_B2_day2,2022.2.4,Win32,60.0528465,,,,,,,,,,,,,,,,,,,,,,,,,,,down,0,0.5336,,-0.011111111,-0.379629686,1,0,0,0.7048,0,149,149,197,1,spanning,images/br_spanning.png,images/cb_spanning.png,0,,,,,,,,,,,,,,,,,,,,,,
,,,,,,00036,2023-09-27_16h47.19.829,vbt_B2_day2,2022.2.4,Win32,60.0528465,,,,,,,,,,,,,,,,,,,,,,,,,,,down,0,0.6666,,-0.011111111,-0.379629686,1,0,0,0.7997,0,150,150,6,1,diep,images/br_diep.png,images/cb_diep.png,0,,,,,,,,,,,,,,,,,,,,,,
,,,,,,00036,2023-09-27_16h47.19.829,vbt_B2_day2,2022.2.4,Win32,60.0528465,,,,,,,,,,,,,,,,,,,,,,,,,,,down,0,1.5814,,-0.011111111,-0.379629686,1,0,0,1.6616,0,151,151,27,1,dans,images/br_dans.png,images/cb_dans.png,0,,,,,,,,,,,,,,,,,,,,,,
,,,,,,00036,2023-09-27_16h47.19.829,vbt_B2_day2,2022.2.4,Win32,60.0528465,,,,,,,,,,,,,,,,,,,,,,,,,,,down,0,0.8033,,-0.011111111,-0.379629686,1,0,0,1.0161,0,152,152,25,1,plek,images/br_plek.png,images/cb_plek.png,0,,,,,,,,,,,,,,,,,,,,,,
,,,,,,00036,2023-09-27_16h47.19.829,vbt_B2_day2,2022.2.4,Win32,60.0528465,,,,,,,,,,,,,,,,,,,,,,,,,,,down,0,0.1682,,-0.011111111,-0.379629686,1,0,0,0.1499,0,153,153,107,1,maling,images/br_maling.png,images/cb_maling.png,0,,,,,,,,,,,,,,,,,,,,,,
,,,,,,00036,2023-09-27_16h47.19.829,vbt_B2_day2,2022.2.4,Win32,60.0528465,,,,,,,,,,,,,,,,,,,,,,,,,,,down,0,0.9731,,-0.011111111,-0.379629686,1,0,0,0.6165,0,154,154,106,1,zingen,images/br_zingen.png,images/cb_zingen.png,0,,,,,,,,,,,,,,,,,,,,,,
,,,,,,00036,2023-09-27_16h47.19.829,vbt_B2_day2,2022.2.4,Win32,60.0528465,,,,,,,,,,,,,,,,,,,,,,,,,,,down,0,0.5353,,-0.011111111,-0.379629686,1,0,0,0.5497,0,155,155,134,1,geliefd,images/br_geliefd.png,images/cb_geliefd.png,0,,,,,,,,,,,,,,,,,,,,,,
,,,,,,00036,2023-09-27_16h47.19.829,vbt_B2_day2,2022.2.4,Win32,60.0528465,,,,,,,,,,,,,,,,,,,,,,,,,,,down,0,0.2948,,-0.011111111,-0.379629686,1,0,0,0.5175,0,156,156,115,1,kleren,images/br_kleren.png,images/cb_kleren.png,0,,,,,,,,,,,,,,,,,,,,,,
,,,,,,00036,2023-09-27_16h47.19.829,vbt_B2_day2,2022.2.4,Win32,60.0528465,,,,,,,,,,,,,,,,,,,,,,,,,,,down,0,0.405,,-0.011111111,-0.379629686,1,0,0,0.5333,0,157,157,45,1,piste,images/br_piste.png,images/cb_piste.png,0,,,,,,,,,,,,,,,,,,,,,,
,,,,,,00036,2023-09-27_16h47.19.829,vbt_B2_day2,2022.2.4,Win32,60.0528465,,,,,,,,,,,,,,,,,,,,,,,,,,,down,0,0.4172,,-0.011111111,-0.379629686,1,0,0,0.4333,0,158,158,55,1,praat,images/br_praat.png,images/cb_praat.png,0,,,,,,,,,,,,,,,,,,,,,,
,,,,,,00036,2023-09-27_16h47.19.829,vbt_B2_day2,2022.2.4,Win32,60.0528465,,,,,,,,,,,,,,,,,,,,,,,,,,,down,0,0.3031,,-0.011111111,-0.379629686,1,0,0,0.5834,0,159,159,49,1,laken,images/br_laken.png,images/cb_laken.png,0,,,,,,,,,,,,,,,,,,,,,,
,,,,,,00036,2023-09-27_16h47.19.829,vbt_B2_day2,2022.2.4,Win32,60.0528465,,,,,,,,,,,,,,,,,,,,,,,,,,,down,0,2.5709,,-0.011111111,-0.379629686,1,0,0,0.5992,0,160,160,133,1,seizoen,images/br_seizoen.png,images/cb_seizoen.png,0,,,,,,,,,,,,,,,,,,,,,,
,,,,,,00036,2023-09-27_16h47.19.829,vbt_B2_day2,2022.2.4,Win32,60.0528465,,,,,,,,,,,,,,,,,,,,,,,,,,,down,0,0.351,,-0.011111111,-0.379629686,1,0,0,0.4664,0,161,161,166,1,strikken,images/br_strikken.png,images/cb_strikken.png,0,,,,,,,,,,,,,,,,,,,,,,
,,,,,,00036,2023-09-27_16h47.19.829,vbt_B2_day2,2022.2.4,Win32,60.0528465,,,,,,,,,,,,,,,,,,,,,,,,,,,down,0,0.427,,-0.011111111,-0.379629686,1,0,0,0.4997,0,162,162,88,1,boeien,images/br_boeien.png,images/cb_boeien.png,0,,,,,,,,,,,,,,,,,,,,,,
,,,,,,00036,2023-09-27_16h47.19.829,vbt_B2_day2,2022.2.4,Win32,60.0528465,,,,,,,,,,,,,,,,,,,,,,,,,,,down,0,0.4071,,-0.011111111,-0.379629686,1,0,0,0.6001,0,163,163,174,1,stemming,images/br_stemming.png,images/cb_stemming.png,0,,,,,,,,,,,,,,,,,,,,,,
,,,,,,00036,2023-09-27_16h47.19.829,vbt_B2_day2,2022.2.4,Win32,60.0528465,,,,,,,,,,,,,,,,,,,,,,,,,,,down,0,1.0452,,-0.011111111,-0.379629686,1,0,0,1.15,0,164,164,51,1,samen,images/br_samen.png,images/cb_samen.png,0,,,,,,,,,,,,,,,,,,,,,,
,,,,,,00036,2023-09-27_16h47.19.829,vbt_B2_day2,2022.2.4,Win32,60.0528465,,,,,,,,,,,,,,,,,,,,,,,,,,,down,0,0.2692,,-0.011111111,-0.379629686,1,0,0,0.3992,0,165,165,5,1,blad,images/br_blad.png,images/cb_blad.png,0,,,,,,,,,,,,,,,,,,,,,,
,,,,,,00036,2023-09-27_16h47.19.829,vbt_B2_day2,2022.2.4,Win32,60.0528465,,,,,,,,,,,,,,,,,,,,,,,,,,,down,0,0.2993,,-0.011111111,-0.379629686,1,0,0,0.3832,0,166,166,39,1,laag,images/br_laag.png,images/cb_laag.png,0,,,,,,,,,,,,,,,,,,,,,,
,,,,,,00036,2023-09-27_16h47.19.829,vbt_B2_day2,2022.2.4,Win32,60.0528465,,,,,,,,,,,,,,,,,,,,,,,,,,,down,0,0.4014,,-0.011111111,-0.379629686,1,0,0,0.4997,0,167,167,173,1,apparaat,images/br_apparaat.png,images/cb_apparaat.png,0,,,,,,,,,,,,,,,,,,,,,,
,,,,,,00036,2023-09-27_16h47.19.829,vbt_B2_day2,2022.2.4,Win32,60.0528465,,,,,,,,,,,,,,,,,,,,,,,,,,,down,0,0.5603,,-0.011111111,-0.379629686,1,0,0,0.4838,0,168,168,11,1,mode,images/br_mode.png,images/cb_mode.png,0,,,,,,,,,,,,,,,,,,,,,,
,,,,,,00036,2023-09-27_16h47.19.829,vbt_B2_day2,2022.2.4,Win32,60.0528465,,,,,,,,,,,,,,,,,,,,,,,,,,,down,0,0.5741,,-0.011111111,-0.379629686,1,0,0,0.5664,0,169,169,82,1,muziek,images/br_muziek.png,images/cb_muziek.png,0,,,,,,,,,,,,,,,,,,,,,,
,,,,,,00036,2023-09-27_16h47.19.829,vbt_B2_day2,2022.2.4,Win32,60.0528465,,,,,,,,,,,,,,,,,,,,,,,,,,,down,0,0.5019,,-0.011111111,-0.379629686,1,0,0,0.5664,0,170,170,7,1,geld,images/br_geld.png,images/cb_geld.png,0,,,,,,,,,,,,,,,,,,,,,,
,,,,,,00036,2023-09-27_16h47.19.829,vbt_B2_day2,2022.2.4,Win32,60.0528465,,,,,,,,,,,,,,,,,,,,,,,,,,,down,0,0.0051,,-0.011111111,-0.379629686,1,0,0,0.5185,0,171,171,112,1,lukken,images/br_lukken.png,images/cb_lukken.png,0,,,,,,,,,,,,,,,,,,,,,,
,,,,,,00036,2023-09-27_16h47.19.829,vbt_B2_day2,2022.2.4,Win32,60.0528465,,,,,,,,,,,,,,,,,,,,,,,,,,,down,0,0.4548,,-0.011111111,-0.379629686,1,0,0,0.5328,0,172,172,124,1,bloeien,images/br_bloeien.png,images/cb_bloeien.png,0,,,,,,,,,,,,,,,,,,,,,,
,,,,,,00036,2023-09-27_16h47.19.829,vbt_B2_day2,2022.2.4,Win32,60.0528465,,,,,,,,,,,,,,,,,,,,,,,,,,,down,0,0.5581,,-0.011111111,-0.379629686,1,0,0,0.3665,0,173,173,77,1,woede,images/br_woede.png,images/cb_woede.png,0,,,,,,,,,,,,,,,,,,,,,,
,,,,,,00036,2023-09-27_16h47.19.829,vbt_B2_day2,2022.2.4,Win32,60.0528465,,,,,,,,,,,,,,,,,,,,,,,,,,,down,0,0.5416,,-0.011111111,-0.379629686,1,0,0,0.5836,0,174,174,141,1,knielen,images/br_knielen.png,images/cb_knielen.png,0,,,,,,,,,,,,,,,,,,,,,,
,,,,,,00036,2023-09-27_16h47.19.829,vbt_B2_day2,2022.2.4,Win32,60.0528465,,,,,,,,,,,,,,,,,,,,,,,,,,,down,0,0.175,,-0.011111111,-0.379629686,1,0,0,0.4834,0,175,175,57,1,steek,images/br_steek.png,images/cb_steek.png,1,,,,,,,,,,,,,,,,,,,,,,
,,,,,,00036,2023-09-27_16h47.19.829,vbt_B2_day2,2022.2.4,Win32,60.0528465,,,,,,,,,,,,,,,,,,,,,,,,,,,down,0,1.1019,,-0.011111111,-0.379629686,1,0,0,0.8656,0,176,176,198,1,bedoelen,images/br_bedoelen.png,images/cb_bedoelen.png,0,,,,,,,,,,,,,,,,,,,,,,
,,,,,,00036,2023-09-27_16h47.19.829,vbt_B2_day2,2022.2.4,Win32,60.0528465,,,,,,,,,,,,,,,,,,,,,,,,,,,down,0,0.419,,-0.011111111,-0.379629686,1,0,0,0.517,0,177,177,189,1,aanraden,images/br_aanraden.png,images/cb_aanraden.png,0,,,,,,,,,,,,,,,,,,,,,,
,,,,,,00036,2023-09-27_16h47.19.829,vbt_B2_day2,2022.2.4,Win32,60.0528465,,,,,,,,,,,,,,,,,,,,,,,,,,,down,0,0.3333,,-0.011111111,-0.379629686,1,0,0,0.4166,0,178,178,80,1,kanjer,images/br_kanjer.png,images/cb_kanjer.png,0,,,,,,,,,,,,,,,,,,,,,,
,,,,,,00036,2023-09-27_16h47.19.829,vbt_B2_day2,2022.2.4,Win32,60.0528465,,,,,,,,,,,,,,,,,,,,,,,,,,,down,0,0.1406,,-0.011111111,-0.379629686,1,0,0,0.3666,0,179,179,2,1,jaar,images/br_jaar.png,images/cb_jaar.png,0,,,,,,,,,,,,,,,,,,,,,,
,,,,,,00036,2023-09-27_16h47.19.829,vbt_B2_day2,2022.2.4,Win32,60.0528465,,,,,,,,,,,,,,,,,,,,,,,,,,,down,0,11.2223,,-0.05,-0.386111111,1,0,0,1.916,0,180,180,19,1,geit,images/br_geit.png,images/cb_geit.png,1,geit,,,,,,,,,,,,,,,,,,,,,
,,,,,,00036,2023-09-27_16h47.19.829,vbt_B2_day2,2022.2.4,Win32,60.0528465,,,,,,,,,,,,,,,,,,,,,,,,,,,down,0,2.0204,,-0.05,-0.386111111,1,0,0,1.8996,0,181,181,185,1,mijnheer,images/br_mijnheer.png,images/cb_mijnheer.png,0,,,,,,,,,,,,,,,,,,,,,,
,,,,,,00036,2023-09-27_16h47.19.829,vbt_B2_day2,2022.2.4,Win32,60.0528465,,,,,,,,,,,,,,,,,,,,,,,,,,,down,0,0.4177,,-0.05,-0.386111111,1,0,0,0.417,0,182,182,164,1,anarchie,images/br_anarchie.png,images/cb_anarchie.png,0,,,,,,,,,,,,,,,,,,,,,,
,,,,,,00036,2023-09-27_16h47.19.829,vbt_B2_day2,2022.2.4,Win32,60.0528465,,,,,,,,,,,,,,,,,,,,,,,,,,,down,0,4.0553,,-0.05,-0.386111111,1,0,0,4.1328,0,183,183,72,1,strak,images/br_strak.png,images/cb_strak.png,0,,,,,,,,,,,,,,,,,,,,,,
,,,,,,00036,2023-09-27_16h47.19.829,vbt_B2_day2,2022.2.4,Win32,60.0528465,,,,,,,,,,,,,,,,,,,,,,,,,,,down,0,0.3365,,-0.05,-0.386111111,1,0,0,0.4502,0,184,184,175,1,heengaan,images/br_heengaan.png,images/cb_heengaan.png,0,,,,,,,,,,,,,,,,,,,,,,
,,,,,,00036,2023-09-27_16h47.19.829,vbt_B2_day2,2022.2.4,Win32,60.0528465,,,,,,,,,,,,,,,,,,,,,,,,,,,down,0,0.6248,,-0.05,-0.386111111,1,0,0,0.6164,0,185,185,70,1,ijdel,images/br_ijdel.png,images/cb_ijdel.png,0,,,,,,,,,,,,,,,,,,,,,,
,,,,,,00036,2023-09-27_16h47.19.829,vbt_B2_day2,2022.2.4,Win32,60.0528465,,,,,,,,,,,,,,,,,,,,,,,,,,,down,0,0.3199,,-0.05,-0.386111111,1,0,0,0.4832,0,186,186,102,1,legaal,images/br_legaal.png,images/cb_legaal.png,0,,,,,,,,,,,,,,,,,,,,,,
,,,,,,00036,2023-09-27_16h47.19.829,vbt_B2_day2,2022.2.4,Win32,60.0528465,,,,,,,,,,,,,,,,,,,,,,,,,,,down,0,0.183,,-0.05,-0.386111111,1,0,0,0.3832,0,187,187,160,1,daarheen,images/br_daarheen.png,images/cb_daarheen.png,0,,,,,,,,,,,,,,,,,,,,,,
,,,,,,00036,2023-09-27_16h47.19.829,vbt_B2_day2,2022.2.4,Win32,60.0528465,,,,,,,,,,,,,,,,,,,,,,,,,,,down,0,0.4843,,-0.05,-0.386111111,1,0,0,0.6665,0,188,188,158,1,innemen,images/br_innemen.png,images/cb_innemen.png,0,,,,,,,,,,,,,,,,,,,,,,
,,,,,,00036,2023-09-27_16h47.19.829,vbt_B2_day2,2022.2.4,Win32,60.0528465,,,,,,,,,,,,,,,,,,,,,,,,,,,down,0,0.1281,,-0.05,-0.386111111,1,0,0,0.3998,0,189,189,143,1,hechten,images/br_hechten.png,images/cb_hechten.png,0,,,,,,,,,,,,,,,,,,,,,,
,,,,,,00036,2023-09-27_16h47.19.829,vbt_B2_day2,2022.2.4,Win32,60.0528465,,,,,,,,,,,,,,,,,,,,,,,,,,,down,0,0.6187,,-0.05,-0.386111111,1,0,0,0.783,0,190,190,182,1,bijkomen,images/br_bijkomen.png,images/cb_bijkomen.png,0,,,,,,,,,,,,,,,,,,,,,,
,,,,,,00036,2023-09-27_16h47.19.829,vbt_B2_day2,2022.2.4,Win32,60.0528465,,,,,,,,,,,,,,,,,,,,,,,,,,,down,0,0.2398,,-0.05,-0.386111111,1,0,0,0.3836,0,191,191,87,1,toeval,images/br_toeval.png,images/cb_toeval.png,0,,,,,,,,,,,,,,,,,,,,,,
,,,,,,00036,2023-09-27_16h47.19.829,vbt_B2_day2,2022.2.4,Win32,60.0528465,,,,,,,,,,,,,,,,,,,,,,,,,,,down,0,0.3837,,-0.05,-0.386111111,1,0,0,0.4168,0,192,192,8,1,knie,images/br_knie.png,images/cb_knie.png,0,,,,,,,,,,,,,,,,,,,,,,
,,,,,,00036,2023-09-27_16h47.19.829,vbt_B2_day2,2022.2.4,Win32,60.0528465,,,,,,,,,,,,,,,,,,,,,,,,,,,down,0,11.7768,,-0.05,-0.386111111,1,0,0,2.5498,0,193,193,59,1,kring,images/br_kring.png,images/cb_kring.png,1,btig,,,,,,,,,,,,,,,,,,,,,
,,,,,,00036,2023-09-27_16h47.19.829,vbt_B2_day2,2022.2.4,Win32,60.0528465,,,,,,,,,,,,,,,,,,,,,,,,,,,down,0,0.4077,,-0.05,-0.386111111,1,0,0,0.4498,0,194,194,33,1,vlek,images/br_vlek.png,images/cb_vlek.png,0,,,,,,,,,,,,,,,,,,,,,,
,,,,,,00036,2023-09-27_16h47.19.829,vbt_B2_day2,2022.2.4,Win32,60.0528465,,,,,,,,,,,,,,,,,,,,,,,,,,,down,0,0.4393,,-0.05,-0.386111111,1,0,0,0.4996,0,195,195,114,1,vullen,images/br_vullen.png,images/cb_vullen.png,0,,,,,,,,,,,,,,,,,,,,,,
,,,,,,00036,2023-09-27_16h47.19.829,vbt_B2_day2,2022.2.4,Win32,60.0528465,,,,,,,,,,,,,,,,,,,,,,,,,,,down,0,0.9489,,-0.05,-0.386111111,1,0,0,1.067,0,196,196,195,1,middelen,images/br_middelen.png,images/cb_middelen.png,0,,,,,,,,,,,,,,,,,,,,,,
,,,,,,00036,2023-09-27_16h47.19.829,vbt_B2_day2,2022.2.4,Win32,60.0528465,,,,,,,,,,,,,,,,,,,,,,,,,,,down,0,0.4876,,-0.05,-0.386111111,1,0,0,0.6163,0,197,197,4,1,moes,images/br_moes.png,images/cb_moes.png,0,,,,,,,,,,,,,,,,,,,,,,
,,,,,,00036,2023-09-27_16h47.19.829,vbt_B2_day2,2022.2.4,Win32,60.0528465,,,,,,,,,,,,,,,,,,,,,,,,,,,down,0,0.7842,,-0.05,-0.386111111,1,0,0,0.6,0,198,198,90,1,geluid,images/br_geluid.png,images/cb_geluid.png,0,,,,,,,,,,,,,,,,,,,,,,
,,,,,,00036,2023-09-27_16h47.19.829,vbt_B2_day2,2022.2.4,Win32,60.0528465,,,,,,,,,,,,,,,,,,,,,,,,,,,down,0,2.3554,,-0.05,-0.386111111,1,0,0,2.433,0,199,199,192,1,schaamte,images/br_schaamte.png,images/cb_schaamte.png,0,,,,,,,,,,,,,,,,,,,,,,
,,,,,,00036,2023-09-27_16h47.19.829,vbt_B2_day2,2022.2.4,Win32,60.0528465,,,,,,,,,,,,,,,,,,,,,,,,,,,,,,,,,,,,,,,,,,,,,,,-0.05,-0.386111111,1,0,0,,,,,,,,,,,,,,,,
,,,,,,00036,2023-09-27_16h47.19.829,vbt_B2_day2,2022.2.4,Win32,60.0528465,,,,,,,,,,,,,,,,,,,,,,,,,,,,,,,,,,,,,,,,,,,,,,,,,,,,-0.05,-0.386111111,1,0,0,,,,,,,,,,,
,,,,,,00036,2023-09-27_16h47.19.829,vbt_B2_day2,2022.2.4,Win32,60.0528465,,,,,,,,,,,,,,,,,,,,,,,,,,,,,,,,,,,,,,,,,,negel,images/br_negel.png,images/cb_negel.png,,,,,,,,,,,,,-0.05,-0.386111111,1,0,0,,0,0,0,24,1
,,,,,,00036,2023-09-27_16h47.19.829,vbt_B2_day2,2022.2.4,Win32,60.0528465,,,,,,,,,,,,,,,,,,,,,,,,,,,,,,,,,,,,,,,,,,heilig,images/br_heilig.png,images/cb_heilig.png,,fe,,,,,,,,,,,-0.05,-0.386111111,1,0,0,fe,0,1,1,9,1
,,,,,,00036,2023-09-27_16h47.19.829,vbt_B2_day2,2022.2.4,Win32,60.0528465,,,,,,,,,,,,,,,,,,,,,,,,,,,,,,,,,,,,,,,,,,flits,images/br_flits.png,images/cb_flits.png,,FLIT.,,,,,,,,,,,-0.05,-0.386111111,1,0,0,FLIT.,0,2,2,4,1
,,,,,,00036,2023-09-27_16h47.19.829,vbt_B2_day2,2022.2.4,Win32,60.0528465,,,,,,,,,,,,,,,,,,,,,,,,,,,,,,,,,,,,,,,,,,lokken,images/br_lokken.png,images/cb_lokken.png,,look,,,,,,,,,,,-0.05,-0.386111111,1,0,0,look,0,3,3,8,1
,,,,,,00036,2023-09-27_16h47.19.829,vbt_B2_day2,2022.2.4,Win32,60.0528465,,,,,,,,,,,,,,,,,,,,,,,,,,,,,,,,,,,,,,,,,,ningen,images/br_ningen.png,images/cb_ningen.png,,,,,,,,,,,,,-0.05,-0.386111111,1,0,0,,0,4,4,28,1
,,,,,,00036,2023-09-27_16h47.19.829,vbt_B2_day2,2022.2.4,Win32,60.0528465,,,,,,,,,,,,,,,,,,,,,,,,,,,,,,,,,,,,,,,,,,systeem,images/br_systeem.png,images/cb_systeem.png,,,,,,,,,,,,,-0.05,-0.386111111,1,0,0,,0,5,5,54,1
,,,,,,00036,2023-09-27_16h47.19.829,vbt_B2_day2,2022.2.4,Win32,60.0528465,,,,,,,,,,,,,,,,,,,,,,,,,,,,,,,,,,,,,,,,,,diep,images/br_diep.png,images/cb_diep.png,,ie,,,,,,,,,,,-0.05,-0.386111111,1,0,0,ie,0,6,6,2,1
,,,,,,00036,2023-09-27_16h47.19.829,vbt_B2_day2,2022.2.4,Win32,60.0528465,,,,,,,,,,,,,,,,,,,,,,,,,,,,,,,,,,,,,,,,,,kijlen,images/br_kijlen.png,images/cb_kijlen.png,,kijl,,,,,,,,,,,-0.05,-0.386111111,1,0,0,kijl,0,7,7,31,1
,,,,,,00036,2023-09-27_16h47.19.829,vbt_B2_day2,2022.2.4,Win32,60.0528465,,,,,,,,,,,,,,,,,,,,,,,,,,,,,,,,,,,,,,,,,,heengeen,images/br_heengeen.png,images/cb_heengeen.png,,fee,,,,,,,,,,,-0.05,-0.386111111,1,0,0,fee,0,8,8,38,1
,,,,,,00036,2023-09-27_16h47.19.829,vbt_B2_day2,2022.2.4,Win32,60.0528465,,,,,,,,,,,,,,,,,,,,,,,,,,,,,,,,,,,,,,,,,,stes,images/br_stes.png,images/cb_stes.png,,.te.,,,,,,,,,,,-0.05,-0.386111111,1,0,0,.te.,0,9,9,21,1
,,,,,,00036,2023-09-27_16h47.19.829,vbt_B2_day2,2022.2.4,Win32,60.0528465,,,,,,,,,,,,,,,,,,,,,,,,,,,,,,,,,,,,,,,,,,jong,images/br_jong.png,images/cb_jong.png,,jo.g,,,,,,,,,,,-0.05,-0.386111111,1,0,0,jo.g,0,10,10,43,1
,,,,,,00036,2023-09-27_16h47.19.829,vbt_B2_day2,2022.2.4,Win32,60.0528465,,,,,,,,,,,,,,,,,,,,,,,,,,,,,,,,,,,,,,,,,,strikken,images/br_strikken.png,images/cb_strikken.png,,,,,,,,,,,,,-0.05,-0.386111111,1,0,0,,0,11,11,18,1
,,,,,,00036,2023-09-27_16h47.19.829,vbt_B2_day2,2022.2.4,Win32,60.0528465,,,,,,,,,,,,,,,,,,,,,,,,,,,,,,,,,,,,,,,,,,geld,images/br_geld.png,images/cb_geld.png,,gelj,,,,,,,,,,,-0.05,-0.386111111,1,0,0,gelj,0,12,12,3,1
,,,,,,00036,2023-09-27_16h47.19.829,vbt_B2_day2,2022.2.4,Win32,60.0528465,,,,,,,,,,,,,,,,,,,,,,,,,,,,,,,,,,,,,,,,,,woning,images/br_woning.png,images/cb_woning.png,,wo.i.g,,,,,,,,,,,-0.05,-0.386111111,1,0,0,wo.i.g,0,13,13,10,1
,,,,,,00036,2023-09-27_16h47.19.829,vbt_B2_day2,2022.2.4,Win32,60.0528465,,,,,,,,,,,,,,,,,,,,,,,,,,,,,,,,,,,,,,,,,,bloeien,images/br_bloeien.png,images/cb_bloeien.png,,bloei.,,,,,,,,,,,-0.05,-0.386111111,1,0,0,bloei.,0,14,14,12,1
,,,,,,00036,2023-09-27_16h47.19.829,vbt_B2_day2,2022.2.4,Win32,60.0528465,,,,,,,,,,,,,,,,,,,,,,,,,,,,,,,,,,,,,,,,,,joes,images/br_joes.png,images/cb_joes.png,,joi.,,,,,,,,,,,-0.05,-0.386111111,1,0,0,joi.,0,15,15,20,1
,,,,,,00036,2023-09-27_16h47.19.829,vbt_B2_day2,2022.2.4,Win32,60.0528465,,,,,,,,,,,,,,,,,,,,,,,,,,,,,,,,,,,,,,,,,,anarchie,images/br_anarchie.png,images/cb_anarchie.png,,A.AR,,,,,,,,,,,-0.05,-0.386111111,1,0,0,A.AR,0,16,16,16,1
,,,,,,00036,2023-09-27_16h47.19.829,vbt_B2_day2,2022.2.4,Win32,60.0528465,,,,,,,,,,,,,,,,,,,,,,,,,,,,,,,,,,,,,,,,,,toeval,images/br_toeval.png,images/cb_toeval.png,,,,,,,,,,,,,-0.05,-0.386111111,1,0,0,,0,17,17,11,1
,,,,,,00036,2023-09-27_16h47.19.829,vbt_B2_day2,2022.2.4,Win32,60.0528465,,,,,,,,,,,,,,,,,,,,,,,,,,,,,,,,,,,,,,,,,,jagen,images/br_jagen.png,images/cb_jagen.png,,JAG...,,,,,,,,,,,-0.05,-0.386111111,1,0,0,JAG...,0,18,18,6,1
,,,,,,00036,2023-09-27_16h47.19.829,vbt_B2_day2,2022.2.4,Win32,60.0528465,,,,,,,,,,,,,,,,,,,,,,,,,,,,,,,,,,,,,,,,,,sjijfel,images/br_sjijfel.png,images/cb_sjijfel.png,,,,,,,,,,,,,-0.05,-0.386111111,1,0,0,,0,19,19,33,1
,,,,,,00036,2023-09-27_16h47.19.829,vbt_B2_day2,2022.2.4,Win32,60.0528465,,,,,,,,,,,,,,,,,,,,,,,,,,,,,,,,,,,,,,,,,,lurgen,images/br_lurgen.png,images/cb_lurgen.png,,l.G,,,,,,,,,,,-0.05,-0.386111111,1,0,0,l.G,0,20,20,29,1
,,,,,,00036,2023-09-27_16h47.19.829,vbt_B2_day2,2022.2.4,Win32,60.0528465,,,,,,,,,,,,,,,,,,,,,,,,,,,,,,,,,,,,,,,,,,blad,images/br_blad.png,images/cb_blad.png,,blaj,,,,,,,,,,,-0.05,-0.386111111,1,0,0,blaj,0,21,21,1,1
,,,,,,00036,2023-09-27_16h47.19.829,vbt_B2_day2,2022.2.4,Win32,60.0528465,,,,,,,,,,,,,,,,,,,,,,,,,,,,,,,,,,,,,,,,,,piste,images/br_piste.png,images/cb_piste.png,,,,,,,,,,,,,-0.05,-0.386111111,1,0,0,,0,22,22,5,1
,,,,,,00036,2023-09-27_16h47.19.829,vbt_B2_day2,2022.2.4,Win32,60.0528465,,,,,,,,,,,,,,,,,,,,,,,,,,,,,,,,,,,,,,,,,,doodmoe,images/br_doodmoe.png,images/cb_doodmoe.png,,joojmo,,,,,,,,,,,-0.05,-0.386111111,1,0,0,joojmo,0,23,23,15,1
,,,,,,00036,2023-09-27_16h47.19.829,vbt_B2_day2,2022.2.4,Win32,60.0528465,,,,,,,,,,,,,,,,,,,,,,,,,,,,,,,,,,,,,,,,,,goon,images/br_goon.png,images/cb_goon.png,,gooz ,,,,,,,,,,,-0.05,-0.386111111,1,0,0,gooz ,0,24,24,23,1
,,,,,,00036,2023-09-27_16h47.19.829,vbt_B2_day2,2022.2.4,Win32,60.0528465,,,,,,,,,,,,,,,,,,,,,,,,,,,,,,,,,,,,,,,,,,aanzien,images/br_aanzien.png,images/cb_aanzien.png,,aa...,,,,,,,,,,,-0.05,-0.386111111,1,0,0,aa...,0,25,25,13,1
,,,,,,00036,2023-09-27_16h47.19.829,vbt_B2_day2,2022.2.4,Win32,60.0528465,,,,,,,,,,,,,,,,,,,,,,,,,,,,,,,,,,,,,,,,,,aanvraag,images/br_aanvraag.png,images/cb_aanvraag.png,,aa.vr.aa,,,,,,,,,,,-0.05,-0.386111111,1,0,0,aa.vr.aa,0,26,26,57,1
,,,,,,00036,2023-09-27_16h47.19.829,vbt_B2_day2,2022.2.4,Win32,60.0528465,,,,,,,,,,,,,,,,,,,,,,,,,,,,,,,,,,,,,,,,,,plannen,images/br_plannen.png,images/cb_plannen.png,,pla,,,,,,,,,,,-0.05,-0.386111111,1,0,0,pla,0,27,27,55,1
,,,,,,00036,2023-09-27_16h47.19.829,vbt_B2_day2,2022.2.4,Win32,60.0528465,,,,,,,,,,,,,,,,,,,,,,,,,,,,,,,,,,,,,,,,,,opdatten,images/br_opdatten.png,images/cb_opdatten.png,,opjatt,,,,,,,,,,,-0.05,-0.386111111,1,0,0,opjatt,0,28,28,37,1
,,,,,,00036,2023-09-27_16h47.19.829,vbt_B2_day2,2022.2.4,Win32,60.0528465,,,,,,,,,,,,,,,,,,,,,,,,,,,,,,,,,,,,,,,,,,kenzis,images/br_kenzis.png,images/cb_kenzis.png,,be,,,,,,,,,,,-0.05,-0.386111111,1,0,0,be,0,29,29,30,1
,,,,,,00036,2023-09-27_16h47.19.829,vbt_B2_day2,2022.2.4,Win32,60.0528465,,,,,,,,,,,,,,,,,,,,,,,,,,,,,,,,,,,,,,,,,,tand,images/br_tand.png,images/cb_tand.png,,ta.j,,,,,,,,,,,-0.05,-0.386111111,1,0,0,ta.j,0,30,30,42,1
,,,,,,00036,2023-09-27_16h47.19.829,vbt_B2_day2,2022.2.4,Win32,60.0528465,,,,,,,,,,,,,,,,,,,,,,,,,,,,,,,,,,,,,,,,,,sora,images/br_sora.png,images/cb_sora.png,,ota,,,,,,,,,,,-0.05,-0.386111111,1,0,0,ota,0,31,31,22,1
,,,,,,00036,2023-09-27_16h47.19.829,vbt_B2_day2,2022.2.4,Win32,60.0528465,,,,,,,,,,,,,,,,,,,,,,,,,,,,,,,,,,,,,,,,,,remel,images/br_remel.png,images/cb_remel.png,,rjme,,,,,,,,,,,-0.05,-0.386111111,1,0,0,rjme,0,32,32,25,1
,,,,,,00036,2023-09-27_16h47.19.829,vbt_B2_day2,2022.2.4,Win32,60.0528465,,,,,,,,,,,,,,,,,,,,,,,,,,,,,,,,,,,,,,,,,,lijnen,images/br_lijnen.png,images/cb_lijnen.png,,lj,,,,,,,,,,,-0.05,-0.386111111,1,0,0,lj,0,33,33,51,1
,,,,,,00036,2023-09-27_16h47.19.829,vbt_B2_day2,2022.2.4,Win32,60.0528465,,,,,,,,,,,,,,,,,,,,,,,,,,,,,,,,,,,,,,,,,,clan,images/br_clan.png,images/cb_clan.png,,,,,,,,,,,,,-0.05,-0.386111111,1,0,0,,0,34,34,40,1
,,,,,,00036,2023-09-27_16h47.19.829,vbt_B2_day2,2022.2.4,Win32,60.0528465,,,,,,,,,,,,,,,,,,,,,,,,,,,,,,,,,,,,,,,,,,prekken,images/br_prekken.png,images/cb_prekken.png,,pr,,,,,,,,,,,-0.05,-0.386111111,1,0,0,pr,0,35,35,34,1
,,,,,,00036,2023-09-27_16h47.19.829,vbt_B2_day2,2022.2.4,Win32,60.0528465,,,,,,,,,,,,,,,,,,,,,,,,,,,,,,,,,,,,,,,,,,zegel,images/br_zegel.png,images/cb_zegel.png,,.egel,,,,,,,,,,,-0.05,-0.386111111,1,0,0,.egel,0,36,36,46,1
,,,,,,00036,2023-09-27_16h47.19.829,vbt_B2_day2,2022.2.4,Win32,60.0528465,,,,,,,,,,,,,,,,,,,,,,,,,,,,,,,,,,,,,,,,,,manieren,images/br_manieren.png,images/cb_manieren.png,,maie,,,,,,,,,,,-0.05,-0.386111111,1,0,0,maie,0,37,37,56,1
,,,,,,00036,2023-09-27_16h47.19.829,vbt_B2_day2,2022.2.4,Win32,60.0528465,,,,,,,,,,,,,,,,,,,,,,,,,,,,,,,,,,,,,,,,,,badon,images/br_badon.png,images/cb_badon.png,,bajo,,,,,,,,,,,-0.05,-0.386111111,1,0,0,bajo,0,38,38,26,1
,,,,,,00036,2023-09-27_16h47.19.829,vbt_B2_day2,2022.2.4,Win32,60.0528465,,,,,,,,,,,,,,,,,,,,,,,,,,,,,,,,,,,,,,,,,,krimmen,images/br_krimmen.png,images/cb_krimmen.png,,betimm,,,,,,,,,,,-0.05,-0.386111111,1,0,0,betimm,0,39,39,35,1
,,,,,,00036,2023-09-27_16h47.19.829,vbt_B2_day2,2022.2.4,Win32,60.0528465,,,,,,,,,,,,,,,,,,,,,,,,,,,,,,,,,,,,,,,,,,kabel,images/br_kabel.png,images/cb_kabel.png,,,,,,,,,,,,,-0.05,-0.386111111,1,0,0,,0,40,40,7,1
,,,,,,00036,2023-09-27_16h47.19.829,vbt_B2_day2,2022.2.4,Win32,60.0528465,,,,,,,,,,,,,,,,,,,,,,,,,,,,,,,,,,,,,,,,,,zwager,images/br_zwager.png,images/cb_zwager.png,,,,,,,,,,,,,-0.05,-0.386111111,1,0,0,,0,41,41,49,1
,,,,,,00036,2023-09-27_16h47.19.829,vbt_B2_day2,2022.2.4,Win32,60.0528465,,,,,,,,,,,,,,,,,,,,,,,,,,,,,,,,,,,,,,,,,,kasteel,images/br_kasteel.png,images/cb_kasteel.png,,baee,,,,,,,,,,,-0.05,-0.386111111,1,0,0,baee,0,42,42,14,1
,,,,,,00036,2023-09-27_16h47.19.829,vbt_B2_day2,2022.2.4,Win32,60.0528465,,,,,,,,,,,,,,,,,,,,,,,,,,,,,,,,,,,,,,,,,,koorts,images/br_koorts.png,images/cb_koorts.png,,boort,,,,,,,,,,,-0.05,-0.386111111,1,0,0,boort,0,43,43,50,1
,,,,,,00036,2023-09-27_16h47.19.829,vbt_B2_day2,2022.2.4,Win32,60.0528465,,,,,,,,,,,,,,,,,,,,,,,,,,,,,,,,,,,,,,,,,,eenhoorn,images/br_eenhoorn.png,images/cb_eenhoorn.png,,eefoor,,,,,,,,,,,-0.05,-0.386111111,1,0,0,eefoor,0,44,44,19,1
,,,,,,00036,2023-09-27_16h47.19.829,vbt_B2_day2,2022.2.4,Win32,60.0528465,,,,,,,,,,,,,,,,,,,,,,,,,,,,,,,,,,,,,,,,,,agressie,images/br_agressie.png,images/cb_agressie.png,,,,,,,,,,,,,-0.05,-0.386111111,1,0,0,,0,45,45,59,1
,,,,,,00036,2023-09-27_16h47.19.829,vbt_B2_day2,2022.2.4,Win32,60.0528465,,,,,,,,,,,,,,,,,,,,,,,,,,,,,,,,,,,,,,,,,,dode,images/br_dode.png,images/cb_dode.png,,joj.,,,,,,,,,,,-0.05,-0.386111111,1,0,0,joj.,0,46,46,41,1
,,,,,,00036,2023-09-27_16h47.19.829,vbt_B2_day2,2022.2.4,Win32,60.0528465,,,,,,,,,,,,,,,,,,,,,,,,,,,,,,,,,,,,,,,,,,zomers,images/br_zomers.png,images/cb_zomers.png,,omer,,,,,,,,,,,-0.05,-0.386111111,1,0,0,omer,0,47,47,48,1
,,,,,,00036,2023-09-27_16h47.19.829,vbt_B2_day2,2022.2.4,Win32,60.0528465,,,,,,,,,,,,,,,,,,,,,,,,,,,,,,,,,,,,,,,,,,welzijn,images/br_welzijn.png,images/cb_welzijn.png,,wele,,,,,,,,,,,-0.05,-0.386111111,1,0,0,wele,0,48,48,52,1
,,,,,,00036,2023-09-27_16h47.19.829,vbt_B2_day2,2022.2.4,Win32,60.0528465,,,,,,,,,,,,,,,,,,,,,,,,,,,,,,,,,,,,,,,,,,wijve,images/br_wijve.png,images/cb_wijve.png,,wive,,,,,,,,,,,-0.05,-0.386111111,1,0,0,wive,0,49,49,27,1
,,,,,,00036,2023-09-27_16h47.19.829,vbt_B2_day2,2022.2.4,Win32,60.0528465,,,,,,,,,,,,,,,,,,,,,,,,,,,,,,,,,,,,,,,,,,breuk,images/br_breuk.png,images/cb_breuk.png,,,,,,,,,,,,,-0.05,-0.386111111,1,0,0,,0,50,50,45,1
,,,,,,00036,2023-09-27_16h47.19.829,vbt_B2_day2,2022.2.4,Win32,60.0528465,,,,,,,,,,,,,,,,,,,,,,,,,,,,,,,,,,,,,,,,,,ophuimen,images/br_ophuimen.png,images/cb_ophuimen.png,,,,,,,,,,,,,-0.05,-0.386111111,1,0,0,,0,51,51,36,1
,,,,,,00036,2023-09-27_16h47.19.829,vbt_B2_day2,2022.2.4,Win32,60.0528465,,,,,,,,,,,,,,,,,,,,,,,,,,,,,,,,,,,,,,,,,,thema,images/br_thema.png,images/cb_thema.png,,,,,,,,,,,,,-0.05,-0.386111111,1,0,0,,0,52,52,47,1
,,,,,,00036,2023-09-27_16h47.19.829,vbt_B2_day2,2022.2.4,Win32,60.0528465,,,,,,,,,,,,,,,,,,,,,,,,,,,,,,,,,,,,,,,,,,bereuwen,images/br_bereuwen.png,images/cb_bereuwen.png,,,,,,,,,,,,,-0.05,-0.386111111,1,0,0,,0,53,53,39,1
,,,,,,00036,2023-09-27_16h47.19.829,vbt_B2_day2,2022.2.4,Win32,60.0528465,,,,,,,,,,,,,,,,,,,,,,,,,,,,,,,,,,,,,,,,,,tweeling,images/br_tweeling.png,images/cb_tweeling.png,,tweeli,,,,,,,,,,,-0.05,-0.386111111,1,0,0,tweeli,0,54,54,58,1
,,,,,,00036,2023-09-27_16h47.19.829,vbt_B2_day2,2022.2.4,Win32,60.0528465,,,,,,,,,,,,,,,,,,,,,,,,,,,,,,,,,,,,,,,,,,feestdag,images/br_feestdag.png,images/cb_feestdag.png,,feel,,,,,,,,,,,-0.05,-0.386111111,1,0,0,feel,0,55,55,17,1
,,,,,,00036,2023-09-27_16h47.19.829,vbt_B2_day2,2022.2.4,Win32,60.0528465,,,,,,,,,,,,,,,,,,,,,,,,,,,,,,,,,,,,,,,,,,sifferd,images/br_sifferd.png,images/cb_sifferd.png,,,,,,,,,,,,,-0.05,-0.386111111,1,0,0,,0,56,56,32,1
,,,,,,00036,2023-09-27_16h47.19.829,vbt_B2_day2,2022.2.4,Win32,60.0528465,,,,,,,,,,,,,,,,,,,,,,,,,,,,,,,,,,,,,,,,,,trots,images/br_trots.png,images/cb_trots.png,,rot,,,,,,,,,,,-0.05,-0.386111111,1,0,0,rot,0,57,57,44,1
,,,,,,00036,2023-09-27_16h47.19.829,vbt_B2_day2,2022.2.4,Win32,60.0528465,,,,,,,,,,,,,,,,,,,,,,,,,,,,,,,,,,,,,,,,,,inzicht,images/br_inzicht.png,images/cb_inzicht.png,,e..E,,,,,,,,,,,-0.05,-0.386111111,1,0,0,e..E,0,58,58,53,1
,,,,,,00036,2023-09-27_16h47.19.829,vbt_B2_day2,2022.2.4,Win32,60.0528465,,,,,,,,,,,,,,,,,,,,,,,,,,,,,,,,,,,,,,,,,,moes,images/br_moes.png,images/cb_moes.png,,moe.,,,,,,,,,,,-0.05,-0.386111111,1,0,0,moe.,0,59,59,0,1
,,,,,,00036,2023-09-27_16h47.19.829,vbt_B2_day2,2022.2.4,Win32,60.0528465,,,,,,,,,,,,,,,,,,,,,,,,,,,,,,,,,,,,,,,,,,,,,,,,,,,,,,,,,,,,,,,,,,,
