welcome_mouse.x,welcome_mouse.y,welcome_mouse.leftButton,welcome_mouse.midButton,welcome_mouse.rightButton,welcome_mouse.time,"ID",date,expName,psychopyVersion,OS,frameRate,refresh_mouse.x,refresh_mouse.y,refresh_mouse.leftButton,refresh_mouse.midButton,refresh_mouse.rightButton,refresh_mouse.time,braille_mouse.x,braille_mouse.y,braille_mouse.leftButton,braille_mouse.midButton,braille_mouse.rightButton,braille_mouse.time,trials.thisRepN,trials.thisTrialN,trials.thisN,trials.thisIndex,trials.ran,nlLet,brLet,cbLet,trainInstr_mouse.x,trainInstr_mouse.y,trainInstr_mouse.leftButton,trainInstr_mouse.midButton,trainInstr_mouse.rightButton,trainInstr_mouse.time,translation_key.keys,translation_key.corr,translation_key.rt,testResp,word_rsp.text,word_mouse.x,word_mouse.y,word_mouse.leftButton,word_mouse.midButton,word_mouse.rightButton,word_mouse.time,train_loop.thisRepN,train_loop.thisTrialN,train_loop.thisN,train_loop.thisIndex,train_loop.ran,nlWrd,brWrd,cbWrd,test,mouse.x,mouse.y,mouse.leftButton,mouse.midButton,mouse.rightButton,testInstr_mouse.x,testInstr_mouse.y,testInstr_mouse.leftButton,testInstr_mouse.midButton,testInstr_mouse.rightButton,test_mouse.x,test_mouse.y,test_mouse.leftButton,test_mouse.midButton,test_mouse.rightButton,test_response.text,test_loop.thisRepN,test_loop.thisTrialN,test_loop.thisN,test_loop.thisIndex,test_loop.ran
-0.126952456,-0.221169864,1,0,0,5.1536,00048,2023-10-05_20h14.31.818,vbt_B2_day2,2022.2.4,Win32,60.04924038,,,,,,,,,,,,,,,,,,,,,,,,,,,,,,,,,,,,,,,,,,,,,,,,,,,,,,,,,,,,,,,,,,,
,,,,,,00048,2023-10-05_20h14.31.818,vbt_B2_day2,2022.2.4,Win32,60.04924038,-0.126952456,-0.221169864,1,0,0,7.7791,,,,,,,,,,,,,,,,,,,,,,,,,,,,,,,,,,,,,,,,,,,,,,,,,,,,,,,,,,,,,
,,,,,,00048,2023-10-05_20h14.31.818,vbt_B2_day2,2022.2.4,Win32,60.04924038,,,,,,,-0.126952456,-0.221169864,1,0,0,2.2002,0,0,0,8,1,i,images/br_i.png,images/cb_i.png,,,,,,,,,,,,,,,,,,,,,,,,,,,,,,,,,,,,,,,,,,,,,,,
,,,,,,00048,2023-10-05_20h14.31.818,vbt_B2_day2,2022.2.4,Win32,60.04924038,,,,,,,-0.126952456,-0.221169864,1,0,0,0.6169,0,1,1,17,1,r,images/br_r.png,images/cb_r.png,,,,,,,,,,,,,,,,,,,,,,,,,,,,,,,,,,,,,,,,,,,,,,,
,,,,,,00048,2023-10-05_20h14.31.818,vbt_B2_day2,2022.2.4,Win32,60.04924038,,,,,,,-0.126952456,-0.221169864,1,0,0,1.1333,0,2,2,14,1,o,images/br_o.png,images/cb_o.png,,,,,,,,,,,,,,,,,,,,,,,,,,,,,,,,,,,,,,,,,,,,,,,
,,,,,,00048,2023-10-05_20h14.31.818,vbt_B2_day2,2022.2.4,Win32,60.04924038,,,,,,,-0.126952456,-0.221169864,1,0,0,0.75,0,3,3,18,1,s,images/br_s.png,images/cb_s.png,,,,,,,,,,,,,,,,,,,,,,,,,,,,,,,,,,,,,,,,,,,,,,,
,,,,,,00048,2023-10-05_20h14.31.818,vbt_B2_day2,2022.2.4,Win32,60.04924038,,,,,,,-0.126952456,-0.221169864,1,0,0,3.8847,0,4,4,9,1,j,images/br_j.png,images/cb_j.png,,,,,,,,,,,,,,,,,,,,,,,,,,,,,,,,,,,,,,,,,,,,,,,
,,,,,,00048,2023-10-05_20h14.31.818,vbt_B2_day2,2022.2.4,Win32,60.04924038,,,,,,,-0.126287763,-0.221169864,1,0,0,3.856,0,5,5,1,1,b,images/br_b.png,images/cb_b.png,,,,,,,,,,,,,,,,,,,,,,,,,,,,,,,,,,,,,,,,,,,,,,,
,,,,,,00048,2023-10-05_20h14.31.818,vbt_B2_day2,2022.2.4,Win32,60.04924038,,,,,,,-0.120305709,-0.201894317,1,0,0,0.8015,0,6,6,12,1,m,images/br_m.png,images/cb_m.png,,,,,,,,,,,,,,,,,,,,,,,,,,,,,,,,,,,,,,,,,,,,,,,
,,,,,,00048,2023-10-05_20h14.31.818,vbt_B2_day2,2022.2.4,Win32,60.04924038,,,,,,,-0.103688933,-0.211199775,1,0,0,4.1843,0,7,7,16,1,q,images/br_q.png,images/cb_q.png,,,,,,,,,,,,,,,,,,,,,,,,,,,,,,,,,,,,,,,,,,,,,,,
,,,,,,00048,2023-10-05_20h14.31.818,vbt_B2_day2,2022.2.4,Win32,60.04924038,,,,,,,-0.106347583,-0.215187811,1,0,0,3.9348,0,8,8,22,1,w,images/br_w.png,images/cb_w.png,,,,,,,,,,,,,,,,,,,,,,,,,,,,,,,,,,,,,,,,,,,,,,,
,,,,,,00048,2023-10-05_20h14.31.818,vbt_B2_day2,2022.2.4,Win32,60.04924038,,,,,,,-0.109670987,-0.213858425,1,0,0,1.9845,0,9,9,10,1,k,images/br_k.png,images/cb_k.png,,,,,,,,,,,,,,,,,,,,,,,,,,,,,,,,,,,,,,,,,,,,,,,
,,,,,,00048,2023-10-05_20h14.31.818,vbt_B2_day2,2022.2.4,Win32,60.04924038,,,,,,,-0.114988348,-0.240445351,1,0,0,0.268,0,10,10,6,1,g,images/br_g.png,images/cb_g.png,,,,,,,,,,,,,,,,,,,,,,,,,,,,,,,,,,,,,,,,,,,,,,,
,,,,,,00048,2023-10-05_20h14.31.818,vbt_B2_day2,2022.2.4,Win32,60.04924038,,,,,,,-0.116317673,-0.241774676,1,0,0,0.5449,0,11,11,13,1,n,images/br_n.png,images/cb_n.png,,,,,,,,,,,,,,,,,,,,,,,,,,,,,,,,,,,,,,,,,,,,,,,
,,,,,,00048,2023-10-05_20h14.31.818,vbt_B2_day2,2022.2.4,Win32,60.04924038,,,,,,,-0.116982366,-0.242439369,1,0,0,4.2463,0,12,12,0,1,a,images/br_a.png,images/cb_a.png,,,,,,,,,,,,,,,,,,,,,,,,,,,,,,,,,,,,,,,,,,,,,,,
,,,,,,00048,2023-10-05_20h14.31.818,vbt_B2_day2,2022.2.4,Win32,60.04924038,,,,,,,-0.116982366,-0.242439369,1,0,0,4.1512,0,13,13,19,1,t,images/br_t.png,images/cb_t.png,,,,,,,,,,,,,,,,,,,,,,,,,,,,,,,,,,,,,,,,,,,,,,,
,,,,,,00048,2023-10-05_20h14.31.818,vbt_B2_day2,2022.2.4,Win32,60.04924038,,,,,,,-0.116982366,-0.242439369,1,0,0,3.0347,0,14,14,5,1,f,images/br_f.png,images/cb_f.png,,,,,,,,,,,,,,,,,,,,,,,,,,,,,,,,,,,,,,,,,,,,,,,
,,,,,,00048,2023-10-05_20h14.31.818,vbt_B2_day2,2022.2.4,Win32,60.04924038,,,,,,,-0.120305709,-0.247092098,1,0,0,0.4674,0,15,15,11,1,l,images/br_l.png,images/cb_l.png,,,,,,,,,,,,,,,,,,,,,,,,,,,,,,,,,,,,,,,,,,,,,,,
,,,,,,00048,2023-10-05_20h14.31.818,vbt_B2_day2,2022.2.4,Win32,60.04924038,,,,,,,-0.120305709,-0.249086116,1,0,0,2.0185,0,16,16,2,1,c,images/br_c.png,images/cb_c.png,,,,,,,,,,,,,,,,,,,,,,,,,,,,,,,,,,,,,,,,,,,,,,,
,,,,,,00048,2023-10-05_20h14.31.818,vbt_B2_day2,2022.2.4,Win32,60.04924038,,,,,,,-0.128946474,-0.269690927,1,0,0,3.1018,0,17,17,20,1,u,images/br_u.png,images/cb_u.png,,,,,,,,,,,,,,,,,,,,,,,,,,,,,,,,,,,,,,,,,,,,,,,
,,,,,,00048,2023-10-05_20h14.31.818,vbt_B2_day2,2022.2.4,Win32,60.04924038,,,,,,,-0.136922545,-0.265702891,1,0,0,0.1292,0,18,18,25,1,z,images/br_z.png,images/cb_z.png,,,,,,,,,,,,,,,,,,,,,,,,,,,,,,,,,,,,,,,,,,,,,,,
,,,,,,00048,2023-10-05_20h14.31.818,vbt_B2_day2,2022.2.4,Win32,60.04924038,,,,,,,-0.136922545,-0.265702891,1,0,0,0.1507,0,19,19,15,1,p,images/br_p.png,images/cb_p.png,,,,,,,,,,,,,,,,,,,,,,,,,,,,,,,,,,,,,,,,,,,,,,,
,,,,,,00048,2023-10-05_20h14.31.818,vbt_B2_day2,2022.2.4,Win32,60.04924038,,,,,,,-0.152874689,-0.296942546,1,0,0,1.0337,0,20,20,24,1,y,images/br_y.png,images/cb_y.png,,,,,,,,,,,,,,,,,,,,,,,,,,,,,,,,,,,,,,,,,,,,,,,
,,,,,,00048,2023-10-05_20h14.31.818,vbt_B2_day2,2022.2.4,Win32,60.04924038,,,,,,,-0.152874689,-0.296942546,1,0,0,1.2014,0,21,21,7,1,h,images/br_h.png,images/cb_h.png,,,,,,,,,,,,,,,,,,,,,,,,,,,,,,,,,,,,,,,,,,,,,,,
,,,,,,00048,2023-10-05_20h14.31.818,vbt_B2_day2,2022.2.4,Win32,60.04924038,,,,,,,-0.152874689,-0.296942546,1,0,0,0.88,0,22,22,21,1,v,images/br_v.png,images/cb_v.png,,,,,,,,,,,,,,,,,,,,,,,,,,,,,,,,,,,,,,,,,,,,,,,
,,,,,,00048,2023-10-05_20h14.31.818,vbt_B2_day2,2022.2.4,Win32,60.04924038,,,,,,,-0.16816214,-0.334828887,1,0,0,1.1681,0,23,23,3,1,d,images/br_d.png,images/cb_d.png,,,,,,,,,,,,,,,,,,,,,,,,,,,,,,,,,,,,,,,,,,,,,,,
,,,,,,00048,2023-10-05_20h14.31.818,vbt_B2_day2,2022.2.4,Win32,60.04924038,,,,,,,-0.172814868,-0.330840851,1,0,0,1.2506,0,24,24,4,1,e,images/br_e.png,images/cb_e.png,,,,,,,,,,,,,,,,,,,,,,,,,,,,,,,,,,,,,,,,,,,,,,,
,,,,,,00048,2023-10-05_20h14.31.818,vbt_B2_day2,2022.2.4,Win32,60.04924038,,,,,,,-0.172814868,-0.330840851,1,0,0,1.3511,0,25,25,23,1,x,images/br_x.png,images/cb_x.png,,,,,,,,,,,,,,,,,,,,,,,,,,,,,,,,,,,,,,,,,,,,,,,
,,,,,,00048,2023-10-05_20h14.31.818,vbt_B2_day2,2022.2.4,Win32,60.04924038,,,,,,,,,,,,,,,,,,,,,-0.172814868,-0.330840851,1,0,0,22.4311,,,,,,,,,,,,,,,,,,,,,,,,,,,,,,,,,,,,,,,,,
,,,,,,00048,2023-10-05_20h14.31.818,vbt_B2_day2,2022.2.4,Win32,60.04924038,,,,,,,,,,,,,,,,,,,,,,,,,,,down,0,8.2514,taal,,-0.156198032,-0.365403789,1,0,0,1.0056,0,0,0,17,1,taal,images/br_taal.png,images/cb_taal.png,1,,,,,,,,,,,,,,,,,,,,,
,,,,,,00048,2023-10-05_20h14.31.818,vbt_B2_day2,2022.2.4,Win32,60.04924038,,,,,,,,,,,,,,,,,,,,,,,,,,,down,0,10.085,,,-0.156198032,-0.365403789,1,0,0,6.5171,0,1,1,100,1,geduld,images/br_geduld.png,images/cb_geduld.png,0,,,,,,,,,,,,,,,,,,,,,
,,,,,,00048,2023-10-05_20h14.31.818,vbt_B2_day2,2022.2.4,Win32,60.04924038,,,,,,,,,,,,,,,,,,,,,,,,,,,down,0,6.7957,,,-0.156198032,-0.365403789,1,0,0,2.4219,0,2,2,93,1,waarop,images/br_waarop.png,images/cb_waarop.png,0,,,,,,,,,,,,,,,,,,,,,
,,,,,,00048,2023-10-05_20h14.31.818,vbt_B2_day2,2022.2.4,Win32,60.04924038,,,,,,,,,,,,,,,,,,,,,,,,,,,down,0,16.5523,,,-0.107676969,-0.206547046,1,0,0,3.4458,0,3,3,143,1,hechten,images/br_hechten.png,images/cb_hechten.png,0,,,,,,,,,,,,,,,,,,,,,
,,,,,,00048,2023-10-05_20h14.31.818,vbt_B2_day2,2022.2.4,Win32,60.04924038,,,,,,,,,,,,,,,,,,,,,,,,,,,down,0,16.5845,,,-0.107676969,-0.206547046,1,0,0,6.0169,0,4,4,83,1,mening,images/br_mening.png,images/cb_mening.png,0,,,,,,,,,,,,,,,,,,,,,
,,,,,,00048,2023-10-05_20h14.31.818,vbt_B2_day2,2022.2.4,Win32,60.04924038,,,,,,,,,,,,,,,,,,,,,,,,,,,down,0,5.4348,,,-0.107676969,-0.206547046,1,0,0,1.2778,0,5,5,66,1,lever,images/br_lever.png,images/cb_lever.png,0,,,,,,,,,,,,,,,,,,,,,
,,,,,,00048,2023-10-05_20h14.31.818,vbt_B2_day2,2022.2.4,Win32,60.04924038,,,,,,,,,,,,,,,,,,,,,,,,,,,down,0,11.5798,,,-0.107676969,-0.206547046,1,0,0,2.2504,0,6,6,133,1,seizoen,images/br_seizoen.png,images/cb_seizoen.png,0,,,,,,,,,,,,,,,,,,,,,
,,,,,,00048,2023-10-05_20h14.31.818,vbt_B2_day2,2022.2.4,Win32,60.04924038,,,,,,,,,,,,,,,,,,,,,,,,,,,down,0,6.5738,,,-0.107676969,-0.206547046,1,0,0,5.0894,0,7,7,54,1,gebit,images/br_gebit.png,images/cb_gebit.png,0,,,,,,,,,,,,,,,,,,,,,
,,,,,,00048,2023-10-05_20h14.31.818,vbt_B2_day2,2022.2.4,Win32,60.04924038,,,,,,,,,,,,,,,,,,,,,,,,,,,down,0,78.6353,,,-0.107676969,-0.206547046,1,0,0,5.7342,0,8,8,70,1,ijdel,images/br_ijdel.png,images/cb_ijdel.png,0,,,,,,,,,,,,,,,,,,,,,
,,,,,,00048,2023-10-05_20h14.31.818,vbt_B2_day2,2022.2.4,Win32,60.04924038,,,,,,,,,,,,,,,,,,,,,,,,,,,down,0,7.8847,,,-0.107676969,-0.206547046,1,0,0,1.3613,0,9,9,180,1,openbaar,images/br_openbaar.png,images/cb_openbaar.png,0,,,,,,,,,,,,,,,,,,,,,
,,,,,,00048,2023-10-05_20h14.31.818,vbt_B2_day2,2022.2.4,Win32,60.04924038,,,,,,,,,,,,,,,,,,,,,,,,,,,down,0,3.9347,,,-0.107676969,-0.206547046,1,0,0,0.679,0,10,10,62,1,knaap,images/br_knaap.png,images/cb_knaap.png,0,,,,,,,,,,,,,,,,,,,,,
,,,,,,00048,2023-10-05_20h14.31.818,vbt_B2_day2,2022.2.4,Win32,60.04924038,,,,,,,,,,,,,,,,,,,,,,,,,,,down,0,2.201,,,-0.107676969,-0.206547046,1,0,0,1.234,0,11,11,43,1,klauw,images/br_klauw.png,images/cb_klauw.png,0,,,,,,,,,,,,,,,,,,,,,
,,,,,,00048,2023-10-05_20h14.31.818,vbt_B2_day2,2022.2.4,Win32,60.04924038,,,,,,,,,,,,,,,,,,,,,,,,,,,down,0,3.5852,,,-0.107676969,-0.206547046,1,0,0,1.3165,0,12,12,171,1,aarzelen,images/br_aarzelen.png,images/cb_aarzelen.png,0,,,,,,,,,,,,,,,,,,,,,
,,,,,,00048,2023-10-05_20h14.31.818,vbt_B2_day2,2022.2.4,Win32,60.04924038,,,,,,,,,,,,,,,,,,,,,,,,,,,down,0,45.7351,huisdier,,0.011299476,-0.336158212,1,0,0,6.5174,0,13,13,178,1,huisdier,images/br_huisdier.png,images/cb_huisdier.png,1,,,,,,,,,,,,,,,,,,,,,
,,,,,,00048,2023-10-05_20h14.31.818,vbt_B2_day2,2022.2.4,Win32,60.04924038,,,,,,,,,,,,,,,,,,,,,,,,,,,down,0,6.4675,,,0.012628801,-0.336158212,1,0,0,5.4008,0,14,14,114,1,vullen,images/br_vullen.png,images/cb_vullen.png,0,,,,,,,,,,,,,,,,,,,,,
,,,,,,00048,2023-10-05_20h14.31.818,vbt_B2_day2,2022.2.4,Win32,60.04924038,,,,,,,,,,,,,,,,,,,,,,,,,,,down,0,114.1925,waarbij,,-0.031239594,-0.369391825,1,0,0,11.0169,0,15,15,136,1,waarbij,images/br_waarbij.png,images/cb_waarbij.png,1,,,,,,,,,,,,,,,,,,,,,
,,,,,,00048,2023-10-05_20h14.31.818,vbt_B2_day2,2022.2.4,Win32,60.04924038,,,,,,,,,,,,,,,,,,,,,,,,,,,down,0,6.6182,,,-0.031239594,-0.369391825,1,0,0,1.7838,0,16,16,69,1,waken,images/br_waken.png,images/cb_waken.png,0,,,,,,,,,,,,,,,,,,,,,
,,,,,,00048,2023-10-05_20h14.31.818,vbt_B2_day2,2022.2.4,Win32,60.04924038,,,,,,,,,,,,,,,,,,,,,,,,,,,down,0,4.3517,,,-0.031239594,-0.369391825,1,0,0,3.4001,0,17,17,121,1,twijfel,images/br_twijfel.png,images/cb_twijfel.png,0,,,,,,,,,,,,,,,,,,,,,
,,,,,,00048,2023-10-05_20h14.31.818,vbt_B2_day2,2022.2.4,Win32,60.04924038,,,,,,,,,,,,,,,,,,,,,,,,,,,down,0,6.3683,,,-0.031239594,-0.369391825,1,0,0,0.6331,0,18,18,128,1,prikken,images/br_prikken.png,images/cb_prikken.png,0,,,,,,,,,,,,,,,,,,,,,
,,,,,,00048,2023-10-05_20h14.31.818,vbt_B2_day2,2022.2.4,Win32,60.04924038,,,,,,,,,,,,,,,,,,,,,,,,,,,down,0,38.7195,,,-0.031239594,-0.369391825,1,0,0,0.6335,0,19,19,194,1,driemaal,images/br_driemaal.png,images/cb_driemaal.png,0,,,,,,,,,,,,,,,,,,,,,
,,,,,,00048,2023-10-05_20h14.31.818,vbt_B2_day2,2022.2.4,Win32,60.04924038,,,,,,,,,,,,,,,,,,,,,,,,,,,down,0,8.7187,,,-0.031239594,-0.369391825,1,0,0,0.5666,0,20,20,37,1,mijn,images/br_mijn.png,images/cb_mijn.png,0,,,,,,,,,,,,,,,,,,,,,
,,,,,,00048,2023-10-05_20h14.31.818,vbt_B2_day2,2022.2.4,Win32,60.04924038,,,,,,,,,,,,,,,,,,,,,,,,,,,down,0,5.5843,,,-0.031239594,-0.369391825,1,0,0,0.5386,0,21,21,169,1,oprotten,images/br_oprotten.png,images/cb_oprotten.png,0,,,,,,,,,,,,,,,,,,,,,
,,,,,,00048,2023-10-05_20h14.31.818,vbt_B2_day2,2022.2.4,Win32,60.04924038,,,,,,,,,,,,,,,,,,,,,,,,,,,down,0,3.3179,,,-0.031239594,-0.369391825,1,0,0,0.7839,0,22,22,129,1,verhaal,images/br_verhaal.png,images/cb_verhaal.png,0,,,,,,,,,,,,,,,,,,,,,
,,,,,,00048,2023-10-05_20h14.31.818,vbt_B2_day2,2022.2.4,Win32,60.04924038,,,,,,,,,,,,,,,,,,,,,,,,,,,down,0,1.4014,,,-0.031239594,-0.369391825,1,0,0,1.9507,0,23,23,3,1,mand,images/br_mand.png,images/cb_mand.png,0,,,,,,,,,,,,,,,,,,,,,
,,,,,,00048,2023-10-05_20h14.31.818,vbt_B2_day2,2022.2.4,Win32,60.04924038,,,,,,,,,,,,,,,,,,,,,,,,,,,down,0,6.2514,,,-0.031239594,-0.369391825,1,0,0,0.6002,0,24,24,184,1,aandelen,images/br_aandelen.png,images/cb_aandelen.png,0,,,,,,,,,,,,,,,,,,,,,
,,,,,,00048,2023-10-05_20h14.31.818,vbt_B2_day2,2022.2.4,Win32,60.04924038,,,,,,,,,,,,,,,,,,,,,,,,,,,down,0,3.0179,,,-0.031239594,-0.369391825,1,0,0,1.7331,0,25,25,0,1,slak,images/br_slak.png,images/cb_slak.png,0,,,,,,,,,,,,,,,,,,,,,
,,,,,,00048,2023-10-05_20h14.31.818,vbt_B2_day2,2022.2.4,Win32,60.04924038,,,,,,,,,,,,,,,,,,,,,,,,,,,down,0,4.3127,,,-0.031239594,-0.369391825,1,0,0,0.9884,0,26,26,126,1,kasteel,images/br_kasteel.png,images/cb_kasteel.png,0,,,,,,,,,,,,,,,,,,,,,
,,,,,,00048,2023-10-05_20h14.31.818,vbt_B2_day2,2022.2.4,Win32,60.04924038,,,,,,,,,,,,,,,,,,,,,,,,,,,down,0,8.8363,,,-0.031239594,-0.369391825,1,0,0,25.4511,0,27,27,197,1,spanning,images/br_spanning.png,images/cb_spanning.png,0,,,,,,,,,,,,,,,,,,,,,
,,,,,,00048,2023-10-05_20h14.31.818,vbt_B2_day2,2022.2.4,Win32,60.04924038,,,,,,,,,,,,,,,,,,,,,,,,,,,down,0,1.3676,,,-0.031239594,-0.369391825,1,0,0,1.1999,0,28,28,109,1,totaal,images/br_totaal.png,images/cb_totaal.png,0,,,,,,,,,,,,,,,,,,,,,
,,,,,,00048,2023-10-05_20h14.31.818,vbt_B2_day2,2022.2.4,Win32,60.04924038,,,,,,,,,,,,,,,,,,,,,,,,,,,down,0,14.8077,,,-0.031239594,-0.369391825,1,0,0,2.1334,0,29,29,87,1,toeval,images/br_toeval.png,images/cb_toeval.png,0,,,,,,,,,,,,,,,,,,,,,
,,,,,,00048,2023-10-05_20h14.31.818,vbt_B2_day2,2022.2.4,Win32,60.04924038,,,,,,,,,,,,,,,,,,,,,,,,,,,down,0,0.351,,,-0.03522763,-0.360086428,1,0,0,1.784,0,30,30,80,1,kanjer,images/br_kanjer.png,images/cb_kanjer.png,0,,,,,,,,,,,,,,,,,,,,,
,,,,,,00048,2023-10-05_20h14.31.818,vbt_B2_day2,2022.2.4,Win32,60.04924038,,,,,,,,,,,,,,,,,,,,,,,,,,,down,0,2.5519,,,-0.053173792,-0.366733174,1,0,0,1.05,0,31,31,65,1,parel,images/br_parel.png,images/cb_parel.png,0,,,,,,,,,,,,,,,,,,,,,
,,,,,,00048,2023-10-05_20h14.31.818,vbt_B2_day2,2022.2.4,Win32,60.04924038,,,,,,,,,,,,,,,,,,,,,,,,,,,down,0,83.4903,,,-0.053173792,-0.366733174,1,0,0,1.2659,0,32,32,6,1,diep,images/br_diep.png,images/cb_diep.png,0,,,,,,,,,,,,,,,,,,,,,
,,,,,,00048,2023-10-05_20h14.31.818,vbt_B2_day2,2022.2.4,Win32,60.04924038,,,,,,,,,,,,,,,,,,,,,,,,,,,down,0,11.7492,,,-0.053173792,-0.366733174,1,0,0,0.9838,0,33,33,173,1,apparaat,images/br_apparaat.png,images/cb_apparaat.png,0,,,,,,,,,,,,,,,,,,,,,
,,,,,,00048,2023-10-05_20h14.31.818,vbt_B2_day2,2022.2.4,Win32,60.04924038,,,,,,,,,,,,,,,,,,,,,,,,,,,down,0,0.2171,,,-0.053173792,-0.366733174,1,0,0,0.817,0,34,34,73,1,volop,images/br_volop.png,images/cb_volop.png,0,,,,,,,,,,,,,,,,,,,,,
,,,,,,00048,2023-10-05_20h14.31.818,vbt_B2_day2,2022.2.4,Win32,60.04924038,,,,,,,,,,,,,,,,,,,,,,,,,,,down,0,8.635,woestijn,,-0.053173792,-0.366733174,1,0,0,0.8664,0,35,35,179,1,woestijn,images/br_woestijn.png,images/cb_woestijn.png,1,,,,,,,,,,,,,,,,,,,,,
,,,,,,00048,2023-10-05_20h14.31.818,vbt_B2_day2,2022.2.4,Win32,60.04924038,,,,,,,,,,,,,,,,,,,,,,,,,,,down,0,19.4681,ziek,,-0.053173792,-0.366733174,1,0,0,1.5339,0,36,36,16,1,ziek,images/br_ziek.png,images/cb_ziek.png,1,,,,,,,,,,,,,,,,,,,,,
,,,,,,00048,2023-10-05_20h14.31.818,vbt_B2_day2,2022.2.4,Win32,60.04924038,,,,,,,,,,,,,,,,,,,,,,,,,,,down,0,3.6833,,,-0.053173792,-0.366733174,1,0,0,2.1844,0,37,37,189,1,aanraden,images/br_aanraden.png,images/cb_aanraden.png,0,,,,,,,,,,,,,,,,,,,,,
,,,,,,00048,2023-10-05_20h14.31.818,vbt_B2_day2,2022.2.4,Win32,60.04924038,,,,,,,,,,,,,,,,,,,,,,,,,,,down,0,3.9179,,,-0.053173792,-0.366733174,1,0,0,0.601,0,38,38,112,1,lukken,images/br_lukken.png,images/cb_lukken.png,0,,,,,,,,,,,,,,,,,,,,,
,,,,,,00048,2023-10-05_20h14.31.818,vbt_B2_day2,2022.2.4,Win32,60.04924038,,,,,,,,,,,,,,,,,,,,,,,,,,,down,0,3.9515,akkoord,,-0.053173792,-0.366733174,1,0,0,1.5669,0,39,39,138,1,akkoord,images/br_akkoord.png,images/cb_akkoord.png,1,,,,,,,,,,,,,,,,,,,,,
,,,,,,00048,2023-10-05_20h14.31.818,vbt_B2_day2,2022.2.4,Win32,60.04924038,,,,,,,,,,,,,,,,,,,,,,,,,,,down,0,23.943,,,-0.053173792,-0.366733174,1,0,0,1.4001,0,40,40,149,1,redding,images/br_redding.png,images/cb_redding.png,0,,,,,,,,,,,,,,,,,,,,,
,,,,,,00048,2023-10-05_20h14.31.818,vbt_B2_day2,2022.2.4,Win32,60.04924038,,,,,,,,,,,,,,,,,,,,,,,,,,,down,0,4.0921,,,-0.053173792,-0.366733174,1,0,0,1.0833,0,41,41,40,1,schep,images/br_schep.png,images/cb_schep.png,0,,,,,,,,,,,,,,,,,,,,,
,,,,,,00048,2023-10-05_20h14.31.818,vbt_B2_day2,2022.2.4,Win32,60.04924038,,,,,,,,,,,,,,,,,,,,,,,,,,,down,0,0.6882,,,-0.053173792,-0.366733174,1,0,0,1.5495,0,42,42,67,1,zwart,images/br_zwart.png,images/cb_zwart.png,0,,,,,,,,,,,,,,,,,,,,,
,,,,,,00048,2023-10-05_20h14.31.818,vbt_B2_day2,2022.2.4,Win32,60.04924038,,,,,,,,,,,,,,,,,,,,,,,,,,,down,0,0.3505,,,-0.053173792,-0.366733174,1,0,0,0.6834,0,43,43,10,1,leek,images/br_leek.png,images/cb_leek.png,0,,,,,,,,,,,,,,,,,,,,,
,,,,,,00048,2023-10-05_20h14.31.818,vbt_B2_day2,2022.2.4,Win32,60.04924038,,,,,,,,,,,,,,,,,,,,,,,,,,,down,0,0.6368,,,-0.053173792,-0.366733174,1,0,0,0.6172,0,44,44,35,1,lust,images/br_lust.png,images/cb_lust.png,0,,,,,,,,,,,,,,,,,,,,,
,,,,,,00048,2023-10-05_20h14.31.818,vbt_B2_day2,2022.2.4,Win32,60.04924038,,,,,,,,,,,,,,,,,,,,,,,,,,,down,0,1.3209,,,-0.053173792,-0.366733174,1,0,0,0.4832,0,45,45,29,1,baas,images/br_baas.png,images/cb_baas.png,0,,,,,,,,,,,,,,,,,,,,,
,,,,,,00048,2023-10-05_20h14.31.818,vbt_B2_day2,2022.2.4,Win32,60.04924038,,,,,,,,,,,,,,,,,,,,,,,,,,,down,0,1.8541,,,-0.053173792,-0.366733174,1,0,0,0.5832,0,46,46,47,1,kabel,images/br_kabel.png,images/cb_kabel.png,0,,,,,,,,,,,,,,,,,,,,,
,,,,,,00048,2023-10-05_20h14.31.818,vbt_B2_day2,2022.2.4,Win32,60.04924038,,,,,,,,,,,,,,,,,,,,,,,,,,,down,0,0.8676,,,-0.053173792,-0.366733174,1,0,0,0.8337,0,47,47,21,1,mist,images/br_mist.png,images/cb_mist.png,0,,,,,,,,,,,,,,,,,,,,,
,,,,,,00048,2023-10-05_20h14.31.818,vbt_B2_day2,2022.2.4,Win32,60.04924038,,,,,,,,,,,,,,,,,,,,,,,,,,,down,0,12.2516,,,-0.053173792,-0.366733174,1,0,0,0.6002,0,48,48,130,1,keihard,images/br_keihard.png,images/cb_keihard.png,0,,,,,,,,,,,,,,,,,,,,,
,,,,,,00048,2023-10-05_20h14.31.818,vbt_B2_day2,2022.2.4,Win32,60.04924038,,,,,,,,,,,,,,,,,,,,,,,,,,,down,0,15.2857,,,-0.053173792,-0.366733174,1,0,0,15.5502,0,49,49,41,1,maken,images/br_maken.png,images/cb_maken.png,0,,,,,,,,,,,,,,,,,,,,,
,,,,,,00048,2023-10-05_20h14.31.818,vbt_B2_day2,2022.2.4,Win32,60.04924038,,,,,,,,,,,,,,,,,,,,,,,,,,,down,0,1,,,-0.053173792,-0.366733174,1,0,0,1.528,0,50,50,154,1,aflopen,images/br_aflopen.png,images/cb_aflopen.png,0,,,,,,,,,,,,,,,,,,,,,
,,,,,,00048,2023-10-05_20h14.31.818,vbt_B2_day2,2022.2.4,Win32,60.04924038,,,,,,,,,,,,,,,,,,,,,,,,,,,down,0,2.0342,,,-0.053173792,-0.366733174,1,0,0,0.5335,0,51,51,183,1,getuigen,images/br_getuigen.png,images/cb_getuigen.png,0,,,,,,,,,,,,,,,,,,,,,
,,,,,,00048,2023-10-05_20h14.31.818,vbt_B2_day2,2022.2.4,Win32,60.04924038,,,,,,,,,,,,,,,,,,,,,,,,,,,down,0,25.5695,,,-0.069790628,-0.319541376,1,0,0,0.6671,0,52,52,196,1,nakijken,images/br_nakijken.png,images/cb_nakijken.png,0,,,,,,,,,,,,,,,,,,,,,
,,,,,,00048,2023-10-05_20h14.31.818,vbt_B2_day2,2022.2.4,Win32,60.04924038,,,,,,,,,,,,,,,,,,,,,,,,,,,down,0,25.086,,,-0.073778664,-0.323529412,1,0,0,0.7335,0,53,53,131,1,opzicht,images/br_opzicht.png,images/cb_opzicht.png,0,,,,,,,,,,,,,,,,,,,,,
,,,,,,00048,2023-10-05_20h14.31.818,vbt_B2_day2,2022.2.4,Win32,60.04924038,,,,,,,,,,,,,,,,,,,,,,,,,,,down,0,5.2512,,,-0.07045526,-0.31289469,1,0,0,0.6283,0,54,54,42,1,bleek,images/br_bleek.png,images/cb_bleek.png,0,,,,,,,,,,,,,,,,,,,,,
,,,,,,00048,2023-10-05_20h14.31.818,vbt_B2_day2,2022.2.4,Win32,60.04924038,,,,,,,,,,,,,,,,,,,,,,,,,,,down,0,1.4737,,,-0.07045526,-0.31289469,1,0,0,4.2391,0,55,55,148,1,smullen,images/br_smullen.png,images/cb_smullen.png,0,,,,,,,,,,,,,,,,,,,,,
,,,,,,00048,2023-10-05_20h14.31.818,vbt_B2_day2,2022.2.4,Win32,60.04924038,,,,,,,,,,,,,,,,,,,,,,,,,,,down,0,1.8678,,,-0.07045526,-0.31289469,1,0,0,0.6333,0,56,56,9,1,hier,images/br_hier.png,images/cb_hier.png,0,,,,,,,,,,,,,,,,,,,,,
,,,,,,00048,2023-10-05_20h14.31.818,vbt_B2_day2,2022.2.4,Win32,60.04924038,,,,,,,,,,,,,,,,,,,,,,,,,,,down,0,3.8678,,,-0.07045526,-0.31289469,1,0,0,0.6832,0,57,57,113,1,koppen,images/br_koppen.png,images/cb_koppen.png,0,,,,,,,,,,,,,,,,,,,,,
,,,,,,00048,2023-10-05_20h14.31.818,vbt_B2_day2,2022.2.4,Win32,60.04924038,,,,,,,,,,,,,,,,,,,,,,,,,,,down,0,0.6177,,,-0.07045526,-0.31289469,1,0,0,0.75,0,58,58,13,1,kaal,images/br_kaal.png,images/cb_kaal.png,0,,,,,,,,,,,,,,,,,,,,,
,,,,,,00048,2023-10-05_20h14.31.818,vbt_B2_day2,2022.2.4,Win32,60.04924038,,,,,,,,,,,,,,,,,,,,,,,,,,,down,0,14.3686,,,-0.07045526,-0.31289469,1,0,0,0.6504,0,59,59,79,1,nodig,images/br_nodig.png,images/cb_nodig.png,0,,,,,,,,,,,,,,,,,,,,,
,,,,,,00048,2023-10-05_20h14.31.818,vbt_B2_day2,2022.2.4,Win32,60.04924038,,,,,,,,,,,,,,,,,,,,,,,,,,,down,0,27.0692,,,-0.07045526,-0.31289469,1,0,0,0.4674,0,60,60,85,1,heilig,images/br_heilig.png,images/cb_heilig.png,0,,,,,,,,,,,,,,,,,,,,,
,,,,,,00048,2023-10-05_20h14.31.818,vbt_B2_day2,2022.2.4,Win32,60.04924038,,,,,,,,,,,,,,,,,,,,,,,,,,,down,0,1.4515,,,-0.07045526,-0.31289469,1,0,0,0.7164,0,61,61,150,1,gegeven,images/br_gegeven.png,images/cb_gegeven.png,0,,,,,,,,,,,,,,,,,,,,,
,,,,,,00048,2023-10-05_20h14.31.818,vbt_B2_day2,2022.2.4,Win32,60.04924038,,,,,,,,,,,,,,,,,,,,,,,,,,,down,0,3.8677,traag,,-0.08042535,-0.374709246,1,0,0,0.6841,0,62,62,56,1,traag,images/br_traag.png,images/cb_traag.png,1,,,,,,,,,,,,,,,,,,,,,
,,,,,,00048,2023-10-05_20h14.31.818,vbt_B2_day2,2022.2.4,Win32,60.04924038,,,,,,,,,,,,,,,,,,,,,,,,,,,down,0,3.368,,,-0.08042535,-0.374709246,1,0,0,0.5993,0,63,63,88,1,boeien,images/br_boeien.png,images/cb_boeien.png,0,,,,,,,,,,,,,,,,,,,,,
,,,,,,00048,2023-10-05_20h14.31.818,vbt_B2_day2,2022.2.4,Win32,60.04924038,,,,,,,,,,,,,,,,,,,,,,,,,,,down,0,3.9682,,,-0.08042535,-0.374709246,1,0,0,0.8666,0,64,64,50,1,stoom,images/br_stoom.png,images/cb_stoom.png,0,,,,,,,,,,,,,,,,,,,,,
,,,,,,00048,2023-10-05_20h14.31.818,vbt_B2_day2,2022.2.4,Win32,60.04924038,,,,,,,,,,,,,,,,,,,,,,,,,,,down,0,0.5345,,,-0.08042535,-0.374709246,1,0,0,0.6169,0,65,65,120,1,klimmen,images/br_klimmen.png,images/cb_klimmen.png,0,,,,,,,,,,,,,,,,,,,,,
,,,,,,00048,2023-10-05_20h14.31.818,vbt_B2_day2,2022.2.4,Win32,60.04924038,,,,,,,,,,,,,,,,,,,,,,,,,,,down,0,1.1843,,,-0.08042535,-0.374709246,1,0,0,3.8174,0,66,66,186,1,voorraad,images/br_voorraad.png,images/cb_voorraad.png,0,,,,,,,,,,,,,,,,,,,,,
,,,,,,00048,2023-10-05_20h14.31.818,vbt_B2_day2,2022.2.4,Win32,60.04924038,,,,,,,,,,,,,,,,,,,,,,,,,,,down,0,2.3347,,,-0.08042535,-0.374709246,1,0,0,1.3665,0,67,67,68,1,schat,images/br_schat.png,images/cb_schat.png,0,,,,,,,,,,,,,,,,,,,,,
,,,,,,00048,2023-10-05_20h14.31.818,vbt_B2_day2,2022.2.4,Win32,60.04924038,,,,,,,,,,,,,,,,,,,,,,,,,,,down,0,1.5762,,,-0.08042535,-0.374709246,1,0,0,1.233,0,68,68,22,1,stof,images/br_stof.png,images/cb_stof.png,0,,,,,,,,,,,,,,,,,,,,,
,,,,,,00048,2023-10-05_20h14.31.818,vbt_B2_day2,2022.2.4,Win32,60.04924038,,,,,,,,,,,,,,,,,,,,,,,,,,,down,0,12.119,,,-0.086407404,-0.365403789,1,0,0,6.1341,0,69,69,191,1,opheffen,images/br_opheffen.png,images/cb_opheffen.png,0,,,,,,,,,,,,,,,,,,,,,
,,,,,,00048,2023-10-05_20h14.31.818,vbt_B2_day2,2022.2.4,Win32,60.04924038,,,,,,,,,,,,,,,,,,,,,,,,,,,down,0,6.072,,,-0.086407404,-0.365403789,1,0,0,0.6329,0,70,70,92,1,geheim,images/br_geheim.png,images/cb_geheim.png,0,,,,,,,,,,,,,,,,,,,,,
,,,,,,00048,2023-10-05_20h14.31.818,vbt_B2_day2,2022.2.4,Win32,60.04924038,,,,,,,,,,,,,,,,,,,,,,,,,,,down,0,5.6759,,,-0.237952768,-0.437853128,1,0,0,1.5668,0,71,71,140,1,blijven,images/br_blijven.png,images/cb_blijven.png,0,,,,,,,,,,,,,,,,,,,,,
,,,,,,00048,2023-10-05_20h14.31.818,vbt_B2_day2,2022.2.4,Win32,60.04924038,,,,,,,,,,,,,,,,,,,,,,,,,,,down,0,4.5749,,,0.079096086,-0.267032277,1,0,0,6.535,0,72,72,147,1,komisch,images/br_komisch.png,images/cb_komisch.png,0,,,,,,,,,,,,,,,,,,,,,
,,,,,,00048,2023-10-05_20h14.31.818,vbt_B2_day2,2022.2.4,Win32,60.04924038,,,,,,,,,,,,,,,,,,,,,,,,,,,down,0,2.7427,,,0.079096086,-0.267032277,1,0,0,0.7832,0,73,73,51,1,samen,images/br_samen.png,images/cb_samen.png,0,,,,,,,,,,,,,,,,,,,,,
,,,,,,00048,2023-10-05_20h14.31.818,vbt_B2_day2,2022.2.4,Win32,60.04924038,,,,,,,,,,,,,,,,,,,,,,,,,,,down,0,33.6004,,,0.079096086,-0.267032277,1,0,0,14.8892,0,74,74,30,1,uien,images/br_uien.png,images/cb_uien.png,0,,,,,,,,,,,,,,,,,,,,,
,,,,,,00048,2023-10-05_20h14.31.818,vbt_B2_day2,2022.2.4,Win32,60.04924038,,,,,,,,,,,,,,,,,,,,,,,,,,,down,0,5.2015,koffie,,0.193419741,-0.365403789,1,0,0,1.4676,0,75,75,99,1,koffie,images/br_koffie.png,images/cb_koffie.png,1,,,,,,,,,,,,,,,,,,,,,
,,,,,,00048,2023-10-05_20h14.31.818,vbt_B2_day2,2022.2.4,Win32,60.04924038,,,,,,,,,,,,,,,,,,,,,,,,,,,down,0,4.5524,,,0.193419741,-0.365403789,1,0,0,5.7335,0,76,76,75,1,snoep,images/br_snoep.png,images/cb_snoep.png,0,,,,,,,,,,,,,,,,,,,,,
,,,,,,00048,2023-10-05_20h14.31.818,vbt_B2_day2,2022.2.4,Win32,60.04924038,,,,,,,,,,,,,,,,,,,,,,,,,,,down,0,0.1513,,,0.193419741,-0.365403789,1,0,0,1.1994,0,77,77,108,1,excuus,images/br_excuus.png,images/cb_excuus.png,0,,,,,,,,,,,,,,,,,,,,,
,,,,,,00048,2023-10-05_20h14.31.818,vbt_B2_day2,2022.2.4,Win32,60.04924038,,,,,,,,,,,,,,,,,,,,,,,,,,,down,0,16.1356,,,0.193419741,-0.365403789,1,0,0,1.5669,0,78,78,174,1,stemming,images/br_stemming.png,images/cb_stemming.png,0,,,,,,,,,,,,,,,,,,,,,
,,,,,,00048,2023-10-05_20h14.31.818,vbt_B2_day2,2022.2.4,Win32,60.04924038,,,,,,,,,,,,,,,,,,,,,,,,,,,down,0,3.4569,,,0.193419741,-0.365403789,1,0,0,1.8012,0,79,79,32,1,palm,images/br_palm.png,images/cb_palm.png,0,,,,,,,,,,,,,,,,,,,,,
,,,,,,00048,2023-10-05_20h14.31.818,vbt_B2_day2,2022.2.4,Win32,60.04924038,,,,,,,,,,,,,,,,,,,,,,,,,,,down,0,164.0956,,,0.193419741,-0.365403789,1,0,0,0.8009,0,80,80,60,1,jasje,images/br_jasje.png,images/cb_jasje.png,0,,,,,,,,,,,,,,,,,,,,,
,,,,,,00048,2023-10-05_20h14.31.818,vbt_B2_day2,2022.2.4,Win32,60.04924038,,,,,,,,,,,,,,,,,,,,,,,,,,,down,0,0.2503,,,0.193419741,-0.365403789,1,0,0,1.0171,0,81,81,118,1,vinger,images/br_vinger.png,images/cb_vinger.png,0,,,,,,,,,,,,,,,,,,,,,
,,,,,,00048,2023-10-05_20h14.31.818,vbt_B2_day2,2022.2.4,Win32,60.04924038,,,,,,,,,,,,,,,,,,,,,,,,,,,down,0,1.3845,,,0.193419741,-0.365403789,1,0,0,0.7665,0,82,82,27,1,dans,images/br_dans.png,images/cb_dans.png,0,,,,,,,,,,,,,,,,,,,,,
,,,,,,00048,2023-10-05_20h14.31.818,vbt_B2_day2,2022.2.4,Win32,60.04924038,,,,,,,,,,,,,,,,,,,,,,,,,,,down,0,1.2184,,,0.193419741,-0.365403789,1,0,0,0.9006,0,83,83,134,1,geliefd,images/br_geliefd.png,images/cb_geliefd.png,0,,,,,,,,,,,,,,,,,,,,,
,,,,,,00048,2023-10-05_20h14.31.818,vbt_B2_day2,2022.2.4,Win32,60.04924038,,,,,,,,,,,,,,,,,,,,,,,,,,,down,0,11.6684,,,0.193419741,-0.365403789,1,0,0,7.134,0,84,84,167,1,eenhoorn,images/br_eenhoorn.png,images/cb_eenhoorn.png,0,,,,,,,,,,,,,,,,,,,,,
,,,,,,00048,2023-10-05_20h14.31.818,vbt_B2_day2,2022.2.4,Win32,60.04924038,,,,,,,,,,,,,,,,,,,,,,,,,,,down,0,2.2677,,,0.193419741,-0.365403789,1,0,0,0.3335,0,85,85,117,1,kennis,images/br_kennis.png,images/cb_kennis.png,0,,,,,,,,,,,,,,,,,,,,,
,,,,,,00048,2023-10-05_20h14.31.818,vbt_B2_day2,2022.2.4,Win32,60.04924038,,,,,,,,,,,,,,,,,,,,,,,,,,,down,0,2.9677,,,0.193419741,-0.365403789,1,0,0,0.1338,0,86,86,146,1,opkomen,images/br_opkomen.png,images/cb_opkomen.png,0,,,,,,,,,,,,,,,,,,,,,
,,,,,,00048,2023-10-05_20h14.31.818,vbt_B2_day2,2022.2.4,Win32,60.04924038,,,,,,,,,,,,,,,,,,,,,,,,,,,down,0,1.1511,,,0.193419741,-0.365403789,1,0,0,0.6506,0,87,87,135,1,gedicht,images/br_gedicht.png,images/cb_gedicht.png,0,,,,,,,,,,,,,,,,,,,,,
,,,,,,00048,2023-10-05_20h14.31.818,vbt_B2_day2,2022.2.4,Win32,60.04924038,,,,,,,,,,,,,,,,,,,,,,,,,,,down,0,27.1417,loyaal,,0.193419741,-0.366068482,1,0,0,0.4168,0,88,88,97,1,loyaal,images/br_loyaal.png,images/cb_loyaal.png,1,,,,,,,,,,,,,,,,,,,,,
,,,,,,00048,2023-10-05_20h14.31.818,vbt_B2_day2,2022.2.4,Win32,60.04924038,,,,,,,,,,,,,,,,,,,,,,,,,,,down,0,54.3803,techniek,,0.193419741,-0.366068482,1,0,0,0.567,0,89,89,176,1,techniek,images/br_techniek.png,images/cb_techniek.png,1,,,,,,,,,,,,,,,,,,,,,
,,,,,,00048,2023-10-05_20h14.31.818,vbt_B2_day2,2022.2.4,Win32,60.04924038,,,,,,,,,,,,,,,,,,,,,,,,,,,down,0,2.3773,,,0.193419741,-0.366068482,1,0,0,2.1163,0,90,90,94,1,oceaan,images/br_oceaan.png,images/cb_oceaan.png,0,,,,,,,,,,,,,,,,,,,,,
,,,,,,00048,2023-10-05_20h14.31.818,vbt_B2_day2,2022.2.4,Win32,60.04924038,,,,,,,,,,,,,,,,,,,,,,,,,,,down,0,3.2777,,,0.193419741,-0.366068482,1,0,0,0.6826,0,91,91,101,1,staren,images/br_staren.png,images/cb_staren.png,0,,,,,,,,,,,,,,,,,,,,,
,,,,,,00048,2023-10-05_20h14.31.818,vbt_B2_day2,2022.2.4,Win32,60.04924038,,,,,,,,,,,,,,,,,,,,,,,,,,,down,0,2.3693,,,0.193419741,-0.366068482,1,0,0,0.7326,0,92,92,181,1,toegeven,images/br_toegeven.png,images/cb_toegeven.png,0,,,,,,,,,,,,,,,,,,,,,
,,,,,,00048,2023-10-05_20h14.31.818,vbt_B2_day2,2022.2.4,Win32,60.04924038,,,,,,,,,,,,,,,,,,,,,,,,,,,down,0,157.0306,,,0.193419741,-0.366068482,1,0,0,0.433,0,93,93,164,1,anarchie,images/br_anarchie.png,images/cb_anarchie.png,0,,,,,,,,,,,,,,,,,,,,,
,,,,,,00048,2023-10-05_20h14.31.818,vbt_B2_day2,2022.2.4,Win32,60.04924038,,,,,,,,,,,,,,,,,,,,,,,,,,,down,0,0.9858,,,0.193419741,-0.366068482,1,0,0,0.5996,0,94,94,188,1,strekken,images/br_strekken.png,images/cb_strekken.png,0,,,,,,,,,,,,,,,,,,,,,
,,,,,,00048,2023-10-05_20h14.31.818,vbt_B2_day2,2022.2.4,Win32,60.04924038,,,,,,,,,,,,,,,,,,,,,,,,,,,down,0,2.9248,,,0.193419741,-0.366068482,1,0,0,0.3831,0,95,95,36,1,vuur,images/br_vuur.png,images/cb_vuur.png,0,,,,,,,,,,,,,,,,,,,,,
,,,,,,00048,2023-10-05_20h14.31.818,vbt_B2_day2,2022.2.4,Win32,60.04924038,,,,,,,,,,,,,,,,,,,,,,,,,,,down,0,11.9865,trekker,,0.193419741,-0.366068482,1,0,0,0.4998,0,96,96,137,1,trekker,images/br_trekker.png,images/cb_trekker.png,1,,,,,,,,,,,,,,,,,,,,,
,,,,,,00048,2023-10-05_20h14.31.818,vbt_B2_day2,2022.2.4,Win32,60.04924038,,,,,,,,,,,,,,,,,,,,,,,,,,,down,0,2.7853,,,0.193419741,-0.366068482,1,0,0,0.8666,0,97,97,168,1,bisschop,images/br_bisschop.png,images/cb_bisschop.png,0,,,,,,,,,,,,,,,,,,,,,
,,,,,,00048,2023-10-05_20h14.31.818,vbt_B2_day2,2022.2.4,Win32,60.04924038,,,,,,,,,,,,,,,,,,,,,,,,,,,down,0,0.7183,,,0.160186129,-0.348787013,1,0,0,0.9163,0,98,98,192,1,schaamte,images/br_schaamte.png,images/cb_schaamte.png,0,,,,,,,,,,,,,,,,,,,,,
,,,,,,00048,2023-10-05_20h14.31.818,vbt_B2_day2,2022.2.4,Win32,60.04924038,,,,,,,,,,,,,,,,,,,,,,,,,,,down,0,1.2081,,,0.179461615,-0.352110356,1,0,0,0.8834,0,99,99,122,1,waarvan,images/br_waarvan.png,images/cb_waarvan.png,0,,,,,,,,,,,,,,,,,,,,,
,,,,,,00048,2023-10-05_20h14.31.818,vbt_B2_day2,2022.2.4,Win32,60.04924038,,,,,,,,,,,,,,,,,,,,,,,,,,,down,0,0.6177,,,0.179461615,-0.352110356,1,0,0,0.8175,0,100,100,2,1,jaar,images/br_jaar.png,images/cb_jaar.png,0,,,,,,,,,,,,,,,,,,,,,
,,,,,,00048,2023-10-05_20h14.31.818,vbt_B2_day2,2022.2.4,Win32,60.04924038,,,,,,,,,,,,,,,,,,,,,,,,,,,down,0,2.319,,,0.179461615,-0.352110356,1,0,0,0.5831,0,101,101,190,1,goedkoop,images/br_goedkoop.png,images/cb_goedkoop.png,0,,,,,,,,,,,,,,,,,,,,,
,,,,,,00048,2023-10-05_20h14.31.818,vbt_B2_day2,2022.2.4,Win32,60.04924038,,,,,,,,,,,,,,,,,,,,,,,,,,,down,0,0.2042,,,0.179461615,-0.352110356,1,0,0,1.0333,0,102,102,142,1,snuiven,images/br_snuiven.png,images/cb_snuiven.png,0,,,,,,,,,,,,,,,,,,,,,
,,,,,,00048,2023-10-05_20h14.31.818,vbt_B2_day2,2022.2.4,Win32,60.04924038,,,,,,,,,,,,,,,,,,,,,,,,,,,down,0,0.9678,,,0.179461615,-0.352110356,1,0,0,0.6161,0,103,103,20,1,site,images/br_site.png,images/cb_site.png,0,,,,,,,,,,,,,,,,,,,,,
,,,,,,00048,2023-10-05_20h14.31.818,vbt_B2_day2,2022.2.4,Win32,60.04924038,,,,,,,,,,,,,,,,,,,,,,,,,,,down,0,0.2359,,,0.179461615,-0.352110356,1,0,0,0.6661,0,104,104,90,1,geluid,images/br_geluid.png,images/cb_geluid.png,0,,,,,,,,,,,,,,,,,,,,,
,,,,,,00048,2023-10-05_20h14.31.818,vbt_B2_day2,2022.2.4,Win32,60.04924038,,,,,,,,,,,,,,,,,,,,,,,,,,,down,0,32.4722,,,0.179461615,-0.352110356,1,0,0,0.3665,0,105,105,12,1,kust,images/br_kust.png,images/cb_kust.png,0,,,,,,,,,,,,,,,,,,,,,
,,,,,,00048,2023-10-05_20h14.31.818,vbt_B2_day2,2022.2.4,Win32,60.04924038,,,,,,,,,,,,,,,,,,,,,,,,,,,down,0,8.9701,maaltijd,,0.179461615,-0.352110356,1,0,0,0.5666,0,106,106,177,1,maaltijd,images/br_maaltijd.png,images/cb_maaltijd.png,1,,,,,,,,,,,,,,,,,,,,,
,,,,,,00048,2023-10-05_20h14.31.818,vbt_B2_day2,2022.2.4,Win32,60.04924038,,,,,,,,,,,,,,,,,,,,,,,,,,,down,0,3353.6051,,,0.147557328,-0.209205757,1,0,0,0.7835,0,107,107,152,1,afnemen,images/br_afnemen.png,images/cb_afnemen.png,0,,,,,,,,,,,,,,,,,,,,,
,,,,,,00048,2023-10-05_20h14.31.818,vbt_B2_day2,2022.2.4,Win32,60.04924038,,,,,,,,,,,,,,,,,,,,,,,,,,,down,0,1.7861,,,0.147557328,-0.209205757,1,0,0,0.7659,0,108,108,76,1,afval,images/br_afval.png,images/cb_afval.png,0,,,,,,,,,,,,,,,,,,,,,
,,,,,,00048,2023-10-05_20h14.31.818,vbt_B2_day2,2022.2.4,Win32,60.04924038,,,,,,,,,,,,,,,,,,,,,,,,,,,down,0,0.059,,,0.147557328,-0.209205757,1,0,0,0.6168,0,109,109,89,1,slapen,images/br_slapen.png,images/cb_slapen.png,0,,,,,,,,,,,,,,,,,,,,,
,,,,,,00048,2023-10-05_20h14.31.818,vbt_B2_day2,2022.2.4,Win32,60.04924038,,,,,,,,,,,,,,,,,,,,,,,,,,,down,0,0.7525,,,0.147557328,-0.209205757,1,0,0,0.6664,0,110,110,46,1,jagen,images/br_jagen.png,images/cb_jagen.png,0,,,,,,,,,,,,,,,,,,,,,
,,,,,,00048,2023-10-05_20h14.31.818,vbt_B2_day2,2022.2.4,Win32,60.04924038,,,,,,,,,,,,,,,,,,,,,,,,,,,down,0,1.454,,,0.147557328,-0.209205757,1,0,0,0.633,0,111,111,119,1,liefje,images/br_liefje.png,images/cb_liefje.png,0,,,,,,,,,,,,,,,,,,,,,
,,,,,,00048,2023-10-05_20h14.31.818,vbt_B2_day2,2022.2.4,Win32,60.04924038,,,,,,,,,,,,,,,,,,,,,,,,,,,down,0,1.6715,,,0.147557328,-0.209870389,1,0,0,1.4887,0,112,112,14,1,rijp,images/br_rijp.png,images/cb_rijp.png,0,,,,,,,,,,,,,,,,,,,,,
,,,,,,00048,2023-10-05_20h14.31.818,vbt_B2_day2,2022.2.4,Win32,60.04924038,,,,,,,,,,,,,,,,,,,,,,,,,,,down,0,14.585,,,0.144233985,-0.210535082,1,0,0,14.4841,0,113,113,84,1,lokken,images/br_lokken.png,images/cb_lokken.png,0,,,,,,,,,,,,,,,,,,,,,
,,,,,,00048,2023-10-05_20h14.31.818,vbt_B2_day2,2022.2.4,Win32,60.04924038,,,,,,,,,,,,,,,,,,,,,,,,,,,down,0,6.2519,,,0.14556331,-0.213193793,1,0,0,0.6331,0,114,114,78,1,leren,images/br_leren.png,images/cb_leren.png,0,,,,,,,,,,,,,,,,,,,,,
,,,,,,00048,2023-10-05_20h14.31.818,vbt_B2_day2,2022.2.4,Win32,60.04924038,,,,,,,,,,,,,,,,,,,,,,,,,,,down,0,5.7664,,,0.14556331,-0.213193793,1,0,0,0.7333,0,115,115,103,1,joggen,images/br_joggen.png,images/cb_joggen.png,0,,,,,,,,,,,,,,,,,,,,,
,,,,,,00048,2023-10-05_20h14.31.818,vbt_B2_day2,2022.2.4,Win32,60.04924038,,,,,,,,,,,,,,,,,,,,,,,,,,,down,0,15.6354,,,0.144233985,-0.210535082,1,0,0,10.901,0,116,116,159,1,sufferd,images/br_sufferd.png,images/cb_sufferd.png,0,,,,,,,,,,,,,,,,,,,,,
,,,,,,00048,2023-10-05_20h14.31.818,vbt_B2_day2,2022.2.4,Win32,60.04924038,,,,,,,,,,,,,,,,,,,,,,,,,,,down,0,0.7691,,,0.144233985,-0.210535082,1,0,0,1.5664,0,117,117,199,1,beseffen,images/br_beseffen.png,images/cb_beseffen.png,0,,,,,,,,,,,,,,,,,,,,,
,,,,,,00048,2023-10-05_20h14.31.818,vbt_B2_day2,2022.2.4,Win32,60.04924038,,,,,,,,,,,,,,,,,,,,,,,,,,,down,0,25.2104,,,0.144233985,-0.210535082,1,0,0,11.9669,0,118,118,25,1,plek,images/br_plek.png,images/cb_plek.png,0,,,,,,,,,,,,,,,,,,,,,
,,,,,,00048,2023-10-05_20h14.31.818,vbt_B2_day2,2022.2.4,Win32,60.04924038,,,,,,,,,,,,,,,,,,,,,,,,,,,down,0,13.1188,,,0.158192111,-0.211199775,1,0,0,12.6174,0,119,119,34,1,vorm,images/br_vorm.png,images/cb_vorm.png,0,,,,,,,,,,,,,,,,,,,,,
,,,,,,00048,2023-10-05_20h14.31.818,vbt_B2_day2,2022.2.4,Win32,60.04924038,,,,,,,,,,,,,,,,,,,,,,,,,,,down,0,18.9045,,,0.154868768,-0.217846461,1,0,0,0.8168,0,120,120,52,1,wagon,images/br_wagon.png,images/cb_wagon.png,0,,,,,,,,,,,,,,,,,,,,,
,,,,,,00048,2023-10-05_20h14.31.818,vbt_B2_day2,2022.2.4,Win32,60.04924038,,,,,,,,,,,,,,,,,,,,,,,,,,,down,0,3.7688,,,0.153539382,-0.217181829,1,0,0,1.5838,0,121,121,158,1,innemen,images/br_innemen.png,images/cb_innemen.png,0,,,,,,,,,,,,,,,,,,,,,
,,,,,,00048,2023-10-05_20h14.31.818,vbt_B2_day2,2022.2.4,Win32,60.04924038,,,,,,,,,,,,,,,,,,,,,,,,,,,down,0,13.9854,,,0.153539382,-0.217181829,1,0,0,0.8163,0,122,122,166,1,strikken,images/br_strikken.png,images/cb_strikken.png,0,,,,,,,,,,,,,,,,,,,,,
,,,,,,00048,2023-10-05_20h14.31.818,vbt_B2_day2,2022.2.4,Win32,60.04924038,,,,,,,,,,,,,,,,,,,,,,,,,,,down,0,3.7861,,,0.153539382,-0.217181829,1,0,0,1.3168,0,123,123,81,1,dubbel,images/br_dubbel.png,images/cb_dubbel.png,0,,,,,,,,,,,,,,,,,,,,,
,,,,,,00048,2023-10-05_20h14.31.818,vbt_B2_day2,2022.2.4,Win32,60.04924038,,,,,,,,,,,,,,,,,,,,,,,,,,,down,0,5.6353,stiekem,,0.15287475,-0.217181829,1,0,0,0.6999,0,124,124,139,1,stiekem,images/br_stiekem.png,images/cb_stiekem.png,1,,,,,,,,,,,,,,,,,,,,,
,,,,,,00048,2023-10-05_20h14.31.818,vbt_B2_day2,2022.2.4,Win32,60.04924038,,,,,,,,,,,,,,,,,,,,,,,,,,,down,0,9.2692,,,0.15287475,-0.217181829,1,0,0,4.0022,0,125,125,72,1,strak,images/br_strak.png,images/cb_strak.png,0,,,,,,,,,,,,,,,,,,,,,
,,,,,,00048,2023-10-05_20h14.31.818,vbt_B2_day2,2022.2.4,Win32,60.04924038,,,,,,,,,,,,,,,,,,,,,,,,,,,down,0,27.1722,,,0.152210057,-0.2125291,0,0,1,2.0566,0,126,126,182,1,bijkomen,images/br_bijkomen.png,images/cb_bijkomen.png,0,,,,,,,,,,,,,,,,,,,,,
,,,,,,00048,2023-10-05_20h14.31.818,vbt_B2_day2,2022.2.4,Win32,60.04924038,,,,,,,,,,,,,,,,,,,,,,,,,,,down,0,100.141,,,0.089066175,-0.209205757,1,0,0,2.0334,0,127,127,77,1,woede,images/br_woede.png,images/cb_woede.png,0,,,,,,,,,,,,,,,,,,,,,
,,,,,,00048,2023-10-05_20h14.31.818,vbt_B2_day2,2022.2.4,Win32,60.04924038,,,,,,,,,,,,,,,,,,,,,,,,,,,down,0,17.4707,wreedt,,0.089066175,-0.209205757,1,0,0,9.5338,0,128,128,98,1,kreeft,images/br_kreeft.png,images/cb_kreeft.png,1,,,,,,,,,,,,,,,,,,,,,
,,,,,,00048,2023-10-05_20h14.31.818,vbt_B2_day2,2022.2.4,Win32,60.04924038,,,,,,,,,,,,,,,,,,,,,,,,,,,down,0,10.825,,,0.133599202,-0.213193793,1,0,0,1.1655,0,129,129,145,1,invloed,images/br_invloed.png,images/cb_invloed.png,0,,,,,,,,,,,,,,,,,,,,,
,,,,,,00048,2023-10-05_20h14.31.818,vbt_B2_day2,2022.2.4,Win32,60.04924038,,,,,,,,,,,,,,,,,,,,,,,,,,,down,0,22.5462,,,0.133599202,-0.213193793,1,0,0,1.9332,0,130,130,106,1,zingen,images/br_zingen.png,images/cb_zingen.png,0,,,,,,,,,,,,,,,,,,,,,
,,,,,,00048,2023-10-05_20h14.31.818,vbt_B2_day2,2022.2.4,Win32,60.04924038,,,,,,,,,,,,,,,,,,,,,,,,,,,down,0,2.6456,,,0.105018319,-0.221834497,1,0,0,0.8341,0,131,131,31,1,poes,images/br_poes.png,images/cb_poes.png,0,,,,,,,,,,,,,,,,,,,,,
,,,,,,00048,2023-10-05_20h14.31.818,vbt_B2_day2,2022.2.4,Win32,60.04924038,,,,,,,,,,,,,,,,,,,,,,,,,,,down,0,6.035,,,0.105018319,-0.221834497,1,0,0,0.7332,0,132,132,195,1,middelen,images/br_middelen.png,images/cb_middelen.png,0,,,,,,,,,,,,,,,,,,,,,
,,,,,,00048,2023-10-05_20h14.31.818,vbt_B2_day2,2022.2.4,Win32,60.04924038,,,,,,,,,,,,,,,,,,,,,,,,,,,down,0,7.3166,,,0.105018319,-0.221834497,1,0,0,0.7669,0,133,133,127,1,doodmoe,images/br_doodmoe.png,images/cb_doodmoe.png,0,,,,,,,,,,,,,,,,,,,,,
,,,,,,00048,2023-10-05_20h14.31.818,vbt_B2_day2,2022.2.4,Win32,60.04924038,,,,,,,,,,,,,,,,,,,,,,,,,,,down,0,11.2134,steek,,0.105018319,-0.221834497,1,0,0,1,0,134,134,57,1,steek,images/br_steek.png,images/cb_steek.png,1,,,,,,,,,,,,,,,,,,,,,
,,,,,,00048,2023-10-05_20h14.31.818,vbt_B2_day2,2022.2.4,Win32,60.04924038,,,,,,,,,,,,,,,,,,,,,,,,,,,down,0,4.9093,,,0.105018319,-0.221834497,1,0,0,0.7012,0,135,135,86,1,woning,images/br_woning.png,images/cb_woning.png,0,,,,,,,,,,,,,,,,,,,,,
,,,,,,00048,2023-10-05_20h14.31.818,vbt_B2_day2,2022.2.4,Win32,60.04924038,,,,,,,,,,,,,,,,,,,,,,,,,,,down,0,6.6068,,,0.105018319,-0.221834497,1,0,0,0.9665,0,136,136,63,1,flirt,images/br_flirt.png,images/cb_flirt.png,0,,,,,,,,,,,,,,,,,,,,,
,,,,,,00048,2023-10-05_20h14.31.818,vbt_B2_day2,2022.2.4,Win32,60.04924038,,,,,,,,,,,,,,,,,,,,,,,,,,,down,0,7.7533,,,0.105018319,-0.221834497,1,0,0,1.0666,0,137,137,110,1,zuster,images/br_zuster.png,images/cb_zuster.png,0,,,,,,,,,,,,,,,,,,,,,
,,,,,,00048,2023-10-05_20h14.31.818,vbt_B2_day2,2022.2.4,Win32,60.04924038,,,,,,,,,,,,,,,,,,,,,,,,,,,down,0,5.0442,,,0.105018319,-0.221834497,1,0,0,0.6665,0,138,138,102,1,legaal,images/br_legaal.png,images/cb_legaal.png,0,,,,,,,,,,,,,,,,,,,,,
,,,,,,00048,2023-10-05_20h14.31.818,vbt_B2_day2,2022.2.4,Win32,60.04924038,,,,,,,,,,,,,,,,,,,,,,,,,,,down,0,8.4007,,,0.105018319,-0.221834497,1,0,0,0.6661,0,139,139,153,1,vervoer,images/br_vervoer.png,images/cb_vervoer.png,0,,,,,,,,,,,,,,,,,,,,,
,,,,,,00048,2023-10-05_20h14.31.818,vbt_B2_day2,2022.2.4,Win32,60.04924038,,,,,,,,,,,,,,,,,,,,,,,,,,,down,0,7.2484,,,0.105018319,-0.221834497,1,0,0,0.6337,0,140,140,71,1,bever,images/br_bever.png,images/cb_bever.png,0,,,,,,,,,,,,,,,,,,,,,
,,,,,,00048,2023-10-05_20h14.31.818,vbt_B2_day2,2022.2.4,Win32,60.04924038,,,,,,,,,,,,,,,,,,,,,,,,,,,down,0,6.3559,,,0.105018319,-0.221834497,1,0,0,0.8666,0,141,141,49,1,laken,images/br_laken.png,images/cb_laken.png,0,,,,,,,,,,,,,,,,,,,,,
,,,,,,00048,2023-10-05_20h14.31.818,vbt_B2_day2,2022.2.4,Win32,60.04924038,,,,,,,,,,,,,,,,,,,,,,,,,,,down,0,4.8355,,,0.012628801,-0.221834497,1,0,0,0.5996,0,142,142,23,1,zout,images/br_zout.png,images/cb_zout.png,0,,,,,,,,,,,,,,,,,,,,,
,,,,,,00048,2023-10-05_20h14.31.818,vbt_B2_day2,2022.2.4,Win32,60.04924038,,,,,,,,,,,,,,,,,,,,,,,,,,,down,0,10.0044,,,0.012628801,-0.221834497,1,0,0,0.6665,0,143,143,123,1,hiervan,images/br_hiervan.png,images/cb_hiervan.png,0,,,,,,,,,,,,,,,,,,,,,
,,,,,,00048,2023-10-05_20h14.31.818,vbt_B2_day2,2022.2.4,Win32,60.04924038,,,,,,,,,,,,,,,,,,,,,,,,,,,down,0,4.2427,,,0.012628801,-0.221834497,1,0,0,0.7332,0,144,144,107,1,maling,images/br_maling.png,images/cb_maling.png,0,,,,,,,,,,,,,,,,,,,,,
,,,,,,00048,2023-10-05_20h14.31.818,vbt_B2_day2,2022.2.4,Win32,60.04924038,,,,,,,,,,,,,,,,,,,,,,,,,,,down,0,17.1549,,,0.012628801,-0.221834497,1,0,0,0.9333,0,145,145,151,1,aanzoek,images/br_aanzoek.png,images/cb_aanzoek.png,0,,,,,,,,,,,,,,,,,,,,,
,,,,,,00048,2023-10-05_20h14.31.818,vbt_B2_day2,2022.2.4,Win32,60.04924038,,,,,,,,,,,,,,,,,,,,,,,,,,,down,0,1.8679,,,0.012628801,-0.221834497,1,0,0,1.0331,0,146,146,115,1,kleren,images/br_kleren.png,images/cb_kleren.png,0,,,,,,,,,,,,,,,,,,,,,
,,,,,,00048,2023-10-05_20h14.31.818,vbt_B2_day2,2022.2.4,Win32,60.04924038,,,,,,,,,,,,,,,,,,,,,,,,,,,down,0,1.3173,,,0.012628801,-0.221834497,1,0,0,0.5995,0,147,147,48,1,steel,images/br_steel.png,images/cb_steel.png,0,,,,,,,,,,,,,,,,,,,,,
,,,,,,00048,2023-10-05_20h14.31.818,vbt_B2_day2,2022.2.4,Win32,60.04924038,,,,,,,,,,,,,,,,,,,,,,,,,,,down,0,1.6674,,,0.012628801,-0.221834497,1,0,0,0.466,0,148,148,45,1,piste,images/br_piste.png,images/cb_piste.png,0,,,,,,,,,,,,,,,,,,,,,
,,,,,,00048,2023-10-05_20h14.31.818,vbt_B2_day2,2022.2.4,Win32,60.04924038,,,,,,,,,,,,,,,,,,,,,,,,,,,down,0,7.7396,,,0.012628801,-0.221834497,1,0,0,1.1666,0,149,149,162,1,uitdelen,images/br_uitdelen.png,images/cb_uitdelen.png,0,,,,,,,,,,,,,,,,,,,,,
,,,,,,00048,2023-10-05_20h14.31.818,vbt_B2_day2,2022.2.4,Win32,60.04924038,,,,,,,,,,,,,,,,,,,,,,,,,,,down,0,7.2071,,,0.012628801,-0.221834497,1,0,0,1.0663,0,150,150,7,1,geld,images/br_geld.png,images/cb_geld.png,0,,,,,,,,,,,,,,,,,,,,,
,,,,,,00048,2023-10-05_20h14.31.818,vbt_B2_day2,2022.2.4,Win32,60.04924038,,,,,,,,,,,,,,,,,,,,,,,,,,,down,0,6.2795,,,0.012628801,-0.221834497,1,0,0,0.6324,0,151,151,116,1,besmet,images/br_besmet.png,images/cb_besmet.png,0,,,,,,,,,,,,,,,,,,,,,
,,,,,,00048,2023-10-05_20h14.31.818,vbt_B2_day2,2022.2.4,Win32,60.04924038,,,,,,,,,,,,,,,,,,,,,,,,,,,down,0,6.5843,tekst,,0.012628801,-0.221834497,1,0,0,0.8333,0,152,152,58,1,tekst,images/br_tekst.png,images/cb_tekst.png,1,,,,,,,,,,,,,,,,,,,,,
,,,,,,00048,2023-10-05_20h14.31.818,vbt_B2_day2,2022.2.4,Win32,60.04924038,,,,,,,,,,,,,,,,,,,,,,,,,,,down,0,5.1428,,,0.012628801,-0.221834497,1,0,0,0.6332,0,153,153,170,1,schatten,images/br_schatten.png,images/cb_schatten.png,0,,,,,,,,,,,,,,,,,,,,,
,,,,,,00048,2023-10-05_20h14.31.818,vbt_B2_day2,2022.2.4,Win32,60.04924038,,,,,,,,,,,,,,,,,,,,,,,,,,,down,0,23.543,,,0.012628801,-0.221834497,1,0,0,2.3996,0,154,154,185,1,mijnheer,images/br_mijnheer.png,images/cb_mijnheer.png,0,,,,,,,,,,,,,,,,,,,,,
,,,,,,00048,2023-10-05_20h14.31.818,vbt_B2_day2,2022.2.4,Win32,60.04924038,,,,,,,,,,,,,,,,,,,,,,,,,,,down,0,14.0177,,,0.012628801,-0.221834497,1,0,0,1.233,0,155,155,44,1,flits,images/br_flits.png,images/cb_flits.png,0,,,,,,,,,,,,,,,,,,,,,
,,,,,,00048,2023-10-05_20h14.31.818,vbt_B2_day2,2022.2.4,Win32,60.04924038,,,,,,,,,,,,,,,,,,,,,,,,,,,down,0,1.135,,,0.012628801,-0.221834497,1,0,0,0.833,0,156,156,33,1,vlek,images/br_vlek.png,images/cb_vlek.png,0,,,,,,,,,,,,,,,,,,,,,
,,,,,,00048,2023-10-05_20h14.31.818,vbt_B2_day2,2022.2.4,Win32,60.04924038,,,,,,,,,,,,,,,,,,,,,,,,,,,down,0,3.4672,,,0.012628801,-0.221834497,1,0,0,1.2001,0,157,157,161,1,attentie,images/br_attentie.png,images/cb_attentie.png,0,,,,,,,,,,,,,,,,,,,,,
,,,,,,00048,2023-10-05_20h14.31.818,vbt_B2_day2,2022.2.4,Win32,60.04924038,,,,,,,,,,,,,,,,,,,,,,,,,,,down,0,3.9178,kring,,0.012628801,-0.221834497,1,0,0,1.1993,0,158,158,59,1,kring,images/br_kring.png,images/cb_kring.png,1,,,,,,,,,,,,,,,,,,,,,
,,,,,,00048,2023-10-05_20h14.31.818,vbt_B2_day2,2022.2.4,Win32,60.04924038,,,,,,,,,,,,,,,,,,,,,,,,,,,down,0,4.0095,,,0.012628801,-0.221834497,1,0,0,1.7333,0,159,159,160,1,daarheen,images/br_daarheen.png,images/cb_daarheen.png,0,,,,,,,,,,,,,,,,,,,,,
,,,,,,00048,2023-10-05_20h14.31.818,vbt_B2_day2,2022.2.4,Win32,60.04924038,,,,,,,,,,,,,,,,,,,,,,,,,,,down,0,5.3332,,,0.012628801,-0.221169864,1,0,0,0.7002,0,160,160,125,1,aanzien,images/br_aanzien.png,images/cb_aanzien.png,0,,,,,,,,,,,,,,,,,,,,,
,,,,,,00048,2023-10-05_20h14.31.818,vbt_B2_day2,2022.2.4,Win32,60.04924038,,,,,,,,,,,,,,,,,,,,,,,,,,,down,0,0.7361,,,0.012628801,-0.221169864,1,0,0,0.7329,0,161,161,39,1,laag,images/br_laag.png,images/cb_laag.png,0,,,,,,,,,,,,,,,,,,,,,
,,,,,,00048,2023-10-05_20h14.31.818,vbt_B2_day2,2022.2.4,Win32,60.04924038,,,,,,,,,,,,,,,,,,,,,,,,,,,down,0,180.0997,,,0.012628801,-0.221169864,1,0,0,0.2668,0,162,162,95,1,vreten,images/br_vreten.png,images/cb_vreten.png,0,,,,,,,,,,,,,,,,,,,,,
,,,,,,00048,2023-10-05_20h14.31.818,vbt_B2_day2,2022.2.4,Win32,60.04924038,,,,,,,,,,,,,,,,,,,,,,,,,,,down,0,2.9204,,,0.012628801,-0.221169864,1,0,0,0.4332,0,163,163,132,1,grappen,images/br_grappen.png,images/cb_grappen.png,0,,,,,,,,,,,,,,,,,,,,,
,,,,,,00048,2023-10-05_20h14.31.818,vbt_B2_day2,2022.2.4,Win32,60.04924038,,,,,,,,,,,,,,,,,,,,,,,,,,,down,0,8.2008,,,0.012628801,-0.221169864,1,0,0,0.4659,0,164,164,198,1,bedoelen,images/br_bedoelen.png,images/cb_bedoelen.png,0,,,,,,,,,,,,,,,,,,,,,
,,,,,,00048,2023-10-05_20h14.31.818,vbt_B2_day2,2022.2.4,Win32,60.04924038,,,,,,,,,,,,,,,,,,,,,,,,,,,down,0,64.3724,,,0.012628801,-0.221169864,1,0,0,0.5343,0,165,165,55,1,praat,images/br_praat.png,images/cb_praat.png,0,,,,,,,,,,,,,,,,,,,,,
,,,,,,00048,2023-10-05_20h14.31.818,vbt_B2_day2,2022.2.4,Win32,60.04924038,,,,,,,,,,,,,,,,,,,,,,,,,,,down,0,2.0346,,,0.012628801,-0.221169864,1,0,0,0.4997,0,166,166,74,1,graaf,images/br_graaf.png,images/cb_graaf.png,0,,,,,,,,,,,,,,,,,,,,,
,,,,,,00048,2023-10-05_20h14.31.818,vbt_B2_day2,2022.2.4,Win32,60.04924038,,,,,,,,,,,,,,,,,,,,,,,,,,,down,0,0.9343,,,0.012628801,-0.221169864,1,0,0,0.7326,0,167,167,38,1,baai,images/br_baai.png,images/cb_baai.png,0,,,,,,,,,,,,,,,,,,,,,
,,,,,,00048,2023-10-05_20h14.31.818,vbt_B2_day2,2022.2.4,Win32,60.04924038,,,,,,,,,,,,,,,,,,,,,,,,,,,down,0,0.1685,,,0.012628801,-0.221169864,1,0,0,0.7669,0,168,168,144,1,eetlust,images/br_eetlust.png,images/cb_eetlust.png,0,,,,,,,,,,,,,,,,,,,,,
,,,,,,00048,2023-10-05_20h14.31.818,vbt_B2_day2,2022.2.4,Win32,60.04924038,,,,,,,,,,,,,,,,,,,,,,,,,,,down,0,122.9149,,,0.012628801,-0.221169864,1,0,0,9.1664,0,169,169,187,1,opkijken,images/br_opkijken.png,images/cb_opkijken.png,0,,,,,,,,,,,,,,,,,,,,,
,,,,,,00048,2023-10-05_20h14.31.818,vbt_B2_day2,2022.2.4,Win32,60.04924038,,,,,,,,,,,,,,,,,,,,,,,,,,,down,0,8.2522,,,0.012628801,-0.221169864,1,0,0,2.3664,0,170,170,1,1,zaal,images/br_zaal.png,images/cb_zaal.png,0,,,,,,,,,,,,,,,,,,,,,
,,,,,,00048,2023-10-05_20h14.31.818,vbt_B2_day2,2022.2.4,Win32,60.04924038,,,,,,,,,,,,,,,,,,,,,,,,,,,down,0,17.5364,,,-0.170156158,-0.036390828,1,0,0,2.2658,0,171,171,105,1,wijlen,images/br_wijlen.png,images/cb_wijlen.png,0,,,,,,,,,,,,,,,,,,,,,
,,,,,,00048,2023-10-05_20h14.31.818,vbt_B2_day2,2022.2.4,Win32,60.04924038,,,,,,,,,,,,,,,,,,,,,,,,,,,down,0,13.775,,,-0.14556331,-0.132103689,1,0,0,2.0001,0,172,172,165,1,feestdag,images/br_feestdag.png,images/cb_feestdag.png,0,,,,,,,,,,,,,,,,,,,,,
,,,,,,00048,2023-10-05_20h14.31.818,vbt_B2_day2,2022.2.4,Win32,60.04924038,,,,,,,,,,,,,,,,,,,,,,,,,,,down,0,6.3574,,,0.047856431,-0.04702561,1,0,0,1.7331,0,173,173,26,1,leuk,images/br_leuk.png,images/cb_leuk.png,0,,,,,,,,,,,,,,,,,,,,,
,,,,,,00048,2023-10-05_20h14.31.818,vbt_B2_day2,2022.2.4,Win32,60.04924038,,,,,,,,,,,,,,,,,,,,,,,,,,,down,0,7.3886,,,0.170820911,0.022765018,1,0,0,5.8,0,174,174,4,1,moes,images/br_moes.png,images/cb_moes.png,0,,,,,,,,,,,,,,,,,,,,,
,,,,,,00048,2023-10-05_20h14.31.818,vbt_B2_day2,2022.2.4,Win32,60.04924038,,,,,,,,,,,,,,,,,,,,,,,,,,,down,0,18.8101,,,0.200066488,-0.013127305,1,0,0,1.2331,0,175,175,175,1,heengaan,images/br_heengaan.png,images/cb_heengaan.png,0,,,,,,,,,,,,,,,,,,,,,
,,,,,,00048,2023-10-05_20h14.31.818,vbt_B2_day2,2022.2.4,Win32,60.04924038,,,,,,,,,,,,,,,,,,,,,,,,,,,down,0,20.2199,,,0.113659023,-0.035061503,1,0,0,1.4329,0,176,176,111,1,ticket,images/br_ticket.png,images/cb_ticket.png,0,,,,,,,,,,,,,,,,,,,,,
,,,,,,00048,2023-10-05_20h14.31.818,vbt_B2_day2,2022.2.4,Win32,60.04924038,,,,,,,,,,,,,,,,,,,,,,,,,,,down,0,15.935,,,0.189431705,-0.035061503,1,0,0,3.3995,0,177,177,82,1,muziek,images/br_muziek.png,images/cb_muziek.png,0,,,,,,,,,,,,,,,,,,,,,
,,,,,,00048,2023-10-05_20h14.31.818,vbt_B2_day2,2022.2.4,Win32,60.04924038,,,,,,,,,,,,,,,,,,,,,,,,,,,down,0,8.4124,geit,,-0.007976072,-0.042372881,1,0,0,2.2333,0,178,178,19,1,geit,images/br_geit.png,images/cb_geit.png,1,,,,,,,,,,,,,,,,,,,,,
,,,,,,00048,2023-10-05_20h14.31.818,vbt_B2_day2,2022.2.4,Win32,60.04924038,,,,,,,,,,,,,,,,,,,,,,,,,,,down,0,4.9335,,,0.287138584,-0.039049538,1,0,0,0.6991,0,179,179,141,1,knielen,images/br_knielen.png,images/cb_knielen.png,0,,,,,,,,,,,,,,,,,,,,,
,,,,,,00048,2023-10-05_20h14.31.818,vbt_B2_day2,2022.2.4,Win32,60.04924038,,,,,,,,,,,,,,,,,,,,,,,,,,,down,0,6.8707,,,0.125623131,-0.023097395,1,0,0,0.7997,0,180,180,15,1,soda,images/br_soda.png,images/cb_soda.png,0,,,,,,,,,,,,,,,,,,,,,
,,,,,,00048,2023-10-05_20h14.31.818,vbt_B2_day2,2022.2.4,Win32,60.04924038,,,,,,,,,,,,,,,,,,,,,,,,,,,down,0,3.4845,,,0.140245949,-0.01179798,1,0,0,1.3668,0,181,181,61,1,groen,images/br_groen.png,images/cb_groen.png,0,,,,,,,,,,,,,,,,,,,,,
,,,,,,00048,2023-10-05_20h14.31.818,vbt_B2_day2,2022.2.4,Win32,60.04924038,,,,,,,,,,,,,,,,,,,,,,,,,,,down,0,8.3405,,,0.226653414,-0.01445663,1,0,0,0.6664,0,182,182,172,1,weigeren,images/br_weigeren.png,images/cb_weigeren.png,0,,,,,,,,,,,,,,,,,,,,,
,,,,,,00048,2023-10-05_20h14.31.818,vbt_B2_day2,2022.2.4,Win32,60.04924038,,,,,,,,,,,,,,,,,,,,,,,,,,,down,0,18.7868,,,0.152210057,-0.056331007,1,0,0,0.7995,0,183,183,156,1,rechten,images/br_rechten.png,images/cb_rechten.png,0,,,,,,,,,,,,,,,,,,,,,
,,,,,,00048,2023-10-05_20h14.31.818,vbt_B2_day2,2022.2.4,Win32,60.04924038,,,,,,,,,,,,,,,,,,,,,,,,,,,down,0,10.1377,,,0.208042559,-0.04702561,1,0,0,1.6671,0,184,184,124,1,bloeien,images/br_bloeien.png,images/cb_bloeien.png,0,,,,,,,,,,,,,,,,,,,,,
,,,,,,00048,2023-10-05_20h14.31.818,vbt_B2_day2,2022.2.4,Win32,60.04924038,,,,,,,,,,,,,,,,,,,,,,,,,,,down,0,12.3451,slagen,,0.180791001,0.000166158,1,0,0,2.1662,0,185,185,96,1,slagen,images/br_slagen.png,images/cb_slagen.png,1,,,,,,,,,,,,,,,,,,,,,
,,,,,,00048,2023-10-05_20h14.31.818,vbt_B2_day2,2022.2.4,Win32,60.04924038,,,,,,,,,,,,,,,,,,,,,,,,,,,down,0,10.8057,,,0.150216039,0.005483549,1,0,0,0.5333,0,186,186,104,1,zweven,images/br_zweven.png,images/cb_zweven.png,0,,,,,,,,,,,,,,,,,,,,,
,,,,,,00048,2023-10-05_20h14.31.818,vbt_B2_day2,2022.2.4,Win32,60.04924038,,,,,,,,,,,,,,,,,,,,,,,,,,,down,0,12.4181,,,0.273845212,0.027417747,1,0,0,0.666,0,187,187,157,1,uitlaat,images/br_uitlaat.png,images/cb_uitlaat.png,0,,,,,,,,,,,,,,,,,,,,,
,,,,,,00048,2023-10-05_20h14.31.818,vbt_B2_day2,2022.2.4,Win32,60.04924038,,,,,,,,,,,,,,,,,,,,,,,,,,,down,0,5.9345,,,0.161515454,-0.013127305,1,0,0,2.1661,0,188,188,91,1,gezond,images/br_gezond.png,images/cb_gezond.png,0,,,,,,,,,,,,,,,,,,,,,
,,,,,,00048,2023-10-05_20h14.31.818,vbt_B2_day2,2022.2.4,Win32,60.04924038,,,,,,,,,,,,,,,,,,,,,,,,,,,down,0,86.5742,,,-0.251246261,-0.033732177,0,0,1,1.0329,0,189,189,163,1,schuilen,images/br_schuilen.png,images/cb_schuilen.png,0,,,,,,,,,,,,,,,,,,,,,
,,,,,,00048,2023-10-05_20h14.31.818,vbt_B2_day2,2022.2.4,Win32,60.04924038,,,,,,,,,,,,,,,,,,,,,,,,,,,down,0,4.1683,blik,,-0.010634722,-0.317547358,1,0,0,0.4341,0,190,190,18,1,blik,images/br_blik.png,images/cb_blik.png,1,,,,,,,,,,,,,,,,,,,,,
,,,,,,00048,2023-10-05_20h14.31.818,vbt_B2_day2,2022.2.4,Win32,60.04924038,,,,,,,,,,,,,,,,,,,,,,,,,,,down,0,0.5759,,,-0.010634722,-0.317547358,1,0,0,0.1162,0,191,191,8,1,knie,images/br_knie.png,images/cb_knie.png,0,,,,,,,,,,,,,,,,,,,,,
,,,,,,00048,2023-10-05_20h14.31.818,vbt_B2_day2,2022.2.4,Win32,60.04924038,,,,,,,,,,,,,,,,,,,,,,,,,,,down,0,0.3346,,,-0.010634722,-0.317547358,1,0,0,0.3942,0,192,192,5,1,blad,images/br_blad.png,images/cb_blad.png,0,,,,,,,,,,,,,,,,,,,,,
,,,,,,00048,2023-10-05_20h14.31.818,vbt_B2_day2,2022.2.4,Win32,60.04924038,,,,,,,,,,,,,,,,,,,,,,,,,,,down,0,0.7183,,,-0.010634722,-0.317547358,1,0,0,0.394,0,193,193,53,1,baron,images/br_baron.png,images/cb_baron.png,0,,,,,,,,,,,,,,,,,,,,,
,,,,,,00048,2023-10-05_20h14.31.818,vbt_B2_day2,2022.2.4,Win32,60.04924038,,,,,,,,,,,,,,,,,,,,,,,,,,,down,0,0.5349,,,-0.010634722,-0.317547358,1,0,0,0.3673,0,194,194,64,1,wegen,images/br_wegen.png,images/cb_wegen.png,0,,,,,,,,,,,,,,,,,,,,,
,,,,,,00048,2023-10-05_20h14.31.818,vbt_B2_day2,2022.2.4,Win32,60.04924038,,,,,,,,,,,,,,,,,,,,,,,,,,,down,0,0.3857,,,-0.010634722,-0.317547358,1,0,0,0.2666,0,195,195,155,1,gerucht,images/br_gerucht.png,images/cb_gerucht.png,0,,,,,,,,,,,,,,,,,,,,,
,,,,,,00048,2023-10-05_20h14.31.818,vbt_B2_day2,2022.2.4,Win32,60.04924038,,,,,,,,,,,,,,,,,,,,,,,,,,,down,0,1.551,,,-0.010634722,-0.317547358,1,0,0,0.617,0,196,196,193,1,weeshuis,images/br_weeshuis.png,images/cb_weeshuis.png,0,,,,,,,,,,,,,,,,,,,,,
,,,,,,00048,2023-10-05_20h14.31.818,vbt_B2_day2,2022.2.4,Win32,60.04924038,,,,,,,,,,,,,,,,,,,,,,,,,,,down,0,2.5346,,,-0.027251558,-0.30558325,1,0,0,0.5499,0,197,197,28,1,stal,images/br_stal.png,images/cb_stal.png,0,,,,,,,,,,,,,,,,,,,,,
,,,,,,00048,2023-10-05_20h14.31.818,vbt_B2_day2,2022.2.4,Win32,60.04924038,,,,,,,,,,,,,,,,,,,,,,,,,,,down,0,1.0345,,,-0.027251558,-0.30558325,1,0,0,0.4335,0,198,198,11,1,mode,images/br_mode.png,images/cb_mode.png,0,,,,,,,,,,,,,,,,,,,,,
,,,,,,00048,2023-10-05_20h14.31.818,vbt_B2_day2,2022.2.4,Win32,60.04924038,,,,,,,,,,,,,,,,,,,,,,,,,,,down,0,0.3699,,,-0.038550973,-0.34812232,1,0,0,0.6332,0,199,199,24,1,jurk,images/br_jurk.png,images/cb_jurk.png,0,,,,,,,,,,,,,,,,,,,,,
,,,,,,00048,2023-10-05_20h14.31.818,vbt_B2_day2,2022.2.4,Win32,60.04924038,,,,,,,,,,,,,,,,,,,,,,,,,,,,,,,,,,,,,,,,,,,,,,,-0.038550973,-0.34812232,1,0,0,,,,,,,,,,,,,,,,
,,,,,,00048,2023-10-05_20h14.31.818,vbt_B2_day2,2022.2.4,Win32,60.04924038,,,,,,,,,,,,,,,,,,,,,,,,,,,,,,,,,,,,,,,,,,,,,,,,,,,,-0.038550973,-0.34812232,1,0,0,,,,,,,,,,,
,,,,,,00048,2023-10-05_20h14.31.818,vbt_B2_day2,2022.2.4,Win32,60.04924038,,,,,,,,,,,,,,,,,,,,,,,,,,,,,,s.i....,,,,,,,,,,,,,sjijfel,images/br_sjijfel.png,images/cb_sjijfel.png,,,,,,,,,,,,-0.038550973,-0.34812232,1,0,0,s.i....,0,0,0,33,1
,,,,,,00048,2023-10-05_20h14.31.818,vbt_B2_day2,2022.2.4,Win32,60.04924038,,,,,,,,,,,,,,,,,,,,,,,,,,,,,,prekken,,,,,,,,,,,,,prekken,images/br_prekken.png,images/cb_prekken.png,,,,,,,,,,,,-0.038550973,-0.34812232,1,0,0,prekken,0,1,1,34,1
,,,,,,00048,2023-10-05_20h14.31.818,vbt_B2_day2,2022.2.4,Win32,60.04924038,,,,,,,,,,,,,,,,,,,,,,,,,,,,,,soda,,,,,,,,,,,,,sora,images/br_sora.png,images/cb_sora.png,,,,,,,,,,,,-0.038550973,-0.34812232,1,0,0,soda,0,2,2,22,1
,,,,,,00048,2023-10-05_20h14.31.818,vbt_B2_day2,2022.2.4,Win32,60.04924038,,,,,,,,,,,,,,,,,,,,,,,,,,,,,,negel,,,,,,,,,,,,,negel,images/br_negel.png,images/cb_negel.png,,,,,,,,,,,,-0.114323655,-0.346128302,1,0,0,negel,0,3,3,24,1
,,,,,,00048,2023-10-05_20h14.31.818,vbt_B2_day2,2022.2.4,Win32,60.04924038,,,,,,,,,,,,,,,,,,,,,,,,,,,,,,clan,,,,,,,,,,,,,clan,images/br_clan.png,images/cb_clan.png,,,,,,,,,,,,-0.114323655,-0.346128302,1,0,0,clan,0,4,4,40,1
,,,,,,00048,2023-10-05_20h14.31.818,vbt_B2_day2,2022.2.4,Win32,60.04924038,,,,,,,,,,,,,,,,,,,,,,,,,,,,,,wijve,,,,,,,,,,,,,wijve,images/br_wijve.png,images/cb_wijve.png,,,,,,,,,,,,-0.114323655,-0.346128302,1,0,0,wijve,0,5,5,27,1
,,,,,,00048,2023-10-05_20h14.31.818,vbt_B2_day2,2022.2.4,Win32,60.04924038,,,,,,,,,,,,,,,,,,,,,,,,,,,,,,deilig,,,,,,,,,,,,,heilig,images/br_heilig.png,images/cb_heilig.png,,,,,,,,,,,,-0.114323655,-0.346128302,1,0,0,deilig,0,6,6,9,1
,,,,,,00048,2023-10-05_20h14.31.818,vbt_B2_day2,2022.2.4,Win32,60.04924038,,,,,,,,,,,,,,,,,,,,,,,,,,,,,,stes,,,,,,,,,,,,,stes,images/br_stes.png,images/cb_stes.png,,,,,,,,,,,,-0.114323655,-0.346128302,1,0,0,stes,0,7,7,21,1
,,,,,,00048,2023-10-05_20h14.31.818,vbt_B2_day2,2022.2.4,Win32,60.04924038,,,,,,,,,,,,,,,,,,,,,,,,,,,,,,systeem,,,,,,,,,,,,,systeem,images/br_systeem.png,images/cb_systeem.png,,,,,,,,,,,,-0.114323655,-0.346128302,1,0,0,systeem,0,8,8,54,1
,,,,,,00048,2023-10-05_20h14.31.818,vbt_B2_day2,2022.2.4,Win32,60.04924038,,,,,,,,,,,,,,,,,,,,,,,,,,,,,,moes,,,,,,,,,,,,,moes,images/br_moes.png,images/cb_moes.png,,,,,,,,,,,,-0.114323655,-0.346128302,1,0,0,moes,0,9,9,0,1
,,,,,,00048,2023-10-05_20h14.31.818,vbt_B2_day2,2022.2.4,Win32,60.04924038,,,,,,,,,,,,,,,,,,,,,,,,,,,,,,tweeling,,,,,,,,,,,,,tweeling,images/br_tweeling.png,images/cb_tweeling.png,,,,,,,,,,,,-0.114323655,-0.346128302,1,0,0,tweeling,0,10,10,58,1
,,,,,,00048,2023-10-05_20h14.31.818,vbt_B2_day2,2022.2.4,Win32,60.04924038,,,,,,,,,,,,,,,,,,,,,,,,,,,,,,welzijn,,,,,,,,,,,,,welzijn,images/br_welzijn.png,images/cb_welzijn.png,,,,,,,,,,,,-0.114323655,-0.346128302,1,0,0,welzijn,0,11,11,52,1
,,,,,,00048,2023-10-05_20h14.31.818,vbt_B2_day2,2022.2.4,Win32,60.04924038,,,,,,,,,,,,,,,,,,,,,,,,,,,,,,aanzien,,,,,,,,,,,,,aanzien,images/br_aanzien.png,images/cb_aanzien.png,,,,,,,,,,,,-0.114323655,-0.346128302,1,0,0,aanzien,0,12,12,13,1
,,,,,,00048,2023-10-05_20h14.31.818,vbt_B2_day2,2022.2.4,Win32,60.04924038,,,,,,,,,,,,,,,,,,,,,,,,,,,,,,t.e..,,,,,,,,,,,,,thema,images/br_thema.png,images/cb_thema.png,,,,,,,,,,,,-0.114323655,-0.346128302,1,0,0,t.e..,0,13,13,47,1
,,,,,,00048,2023-10-05_20h14.31.818,vbt_B2_day2,2022.2.4,Win32,60.04924038,,,,,,,,,,,,,,,,,,,,,,,,,,,,,,dief,,,,,,,,,,,,,diep,images/br_diep.png,images/cb_diep.png,,,,,,,,,,,,-0.114323655,-0.346128302,1,0,0,dief,0,14,14,2,1
,,,,,,00048,2023-10-05_20h14.31.818,vbt_B2_day2,2022.2.4,Win32,60.04924038,,,,,,,,,,,,,,,,,,,,,,,,,,,,,,toeval,,,,,,,,,,,,,toeval,images/br_toeval.png,images/cb_toeval.png,,,,,,,,,,,,-0.114323655,-0.346128302,1,0,0,toeval,0,15,15,11,1
,,,,,,00048,2023-10-05_20h14.31.818,vbt_B2_day2,2022.2.4,Win32,60.04924038,,,,,,,,,,,,,,,,,,,,,,,,,,,,,,trots,,,,,,,,,,,,,trots,images/br_trots.png,images/cb_trots.png,,,,,,,,,,,,-0.114323655,-0.346128302,1,0,0,trots,0,16,16,44,1
,,,,,,00048,2023-10-05_20h14.31.818,vbt_B2_day2,2022.2.4,Win32,60.04924038,,,,,,,,,,,,,,,,,,,,,,,,,,,,,,lijden,,,,,,,,,,,,,lijnen,images/br_lijnen.png,images/cb_lijnen.png,,,,,,,,,,,,-0.114323655,-0.346128302,1,0,0,lijden,0,17,17,51,1
,,,,,,00048,2023-10-05_20h14.31.818,vbt_B2_day2,2022.2.4,Win32,60.04924038,,,,,,,,,,,,,,,,,,,,,,,,,,,,,,z.....,,,,,,,,,,,,,zomers,images/br_zomers.png,images/cb_zomers.png,,,,,,,,,,,,-0.114323655,-0.346128302,1,0,0,z.....,0,18,18,48,1
,,,,,,00048,2023-10-05_20h14.31.818,vbt_B2_day2,2022.2.4,Win32,60.04924038,,,,,,,,,,,,,,,,,,,,,,,,,,,,,,manieren,,,,,,,,,,,,,manieren,images/br_manieren.png,images/cb_manieren.png,,,,,,,,,,,,-0.114323655,-0.346128302,1,0,0,manieren,0,19,19,56,1
,,,,,,00048,2023-10-05_20h14.31.818,vbt_B2_day2,2022.2.4,Win32,60.04924038,,,,,,,,,,,,,,,,,,,,,,,,,,,,,,blad,,,,,,,,,,,,,blad,images/br_blad.png,images/cb_blad.png,,,,,,,,,,,,-0.114323655,-0.346128302,1,0,0,blad,0,20,20,1,1
,,,,,,00048,2023-10-05_20h14.31.818,vbt_B2_day2,2022.2.4,Win32,60.04924038,,,,,,,,,,,,,,,,,,,,,,,,,,,,,,agressie,,,,,,,,,,,,,agressie,images/br_agressie.png,images/cb_agressie.png,,,,,,,,,,,,-0.114323655,-0.346128302,1,0,0,agressie,0,21,21,59,1
,,,,,,00048,2023-10-05_20h14.31.818,vbt_B2_day2,2022.2.4,Win32,60.04924038,,,,,,,,,,,,,,,,,,,,,,,,,,,,,,koorts,,,,,,,,,,,,,koorts,images/br_koorts.png,images/cb_koorts.png,,,,,,,,,,,,-0.114323655,-0.346128302,1,0,0,koorts,0,22,22,50,1
,,,,,,00048,2023-10-05_20h14.31.818,vbt_B2_day2,2022.2.4,Win32,60.04924038,,,,,,,,,,,,,,,,,,,,,,,,,,,,,,woning,,,,,,,,,,,,,woning,images/br_woning.png,images/cb_woning.png,,,,,,,,,,,,-0.114323655,-0.346128302,1,0,0,woning,0,23,23,10,1
,,,,,,00048,2023-10-05_20h14.31.818,vbt_B2_day2,2022.2.4,Win32,60.04924038,,,,,,,,,,,,,,,,,,,,,,,,,,,,,,plannen,,,,,,,,,,,,,plannen,images/br_plannen.png,images/cb_plannen.png,,,,,,,,,,,,-0.114323655,-0.346128302,1,0,0,plannen,0,24,24,55,1
,,,,,,00048,2023-10-05_20h14.31.818,vbt_B2_day2,2022.2.4,Win32,60.04924038,,,,,,,,,,,,,,,,,,,,,,,,,,,,,,aanvraag,,,,,,,,,,,,,aanvraag,images/br_aanvraag.png,images/cb_aanvraag.png,,,,,,,,,,,,-0.114323655,-0.346128302,1,0,0,aanvraag,0,25,25,57,1
,,,,,,00048,2023-10-05_20h14.31.818,vbt_B2_day2,2022.2.4,Win32,60.04924038,,,,,,,,,,,,,,,,,,,,,,,,,,,,,,strikken,,,,,,,,,,,,,strikken,images/br_strikken.png,images/cb_strikken.png,,,,,,,,,,,,-0.114323655,-0.346128302,1,0,0,strikken,0,26,26,18,1
,,,,,,00048,2023-10-05_20h14.31.818,vbt_B2_day2,2022.2.4,Win32,60.04924038,,,,,,,,,,,,,,,,,,,,,,,,,,,,,,dagen,,,,,,,,,,,,,jagen,images/br_jagen.png,images/cb_jagen.png,,,,,,,,,,,,-0.114323655,-0.346128302,1,0,0,dagen,0,27,27,6,1
,,,,,,00048,2023-10-05_20h14.31.818,vbt_B2_day2,2022.2.4,Win32,60.04924038,,,,,,,,,,,,,,,,,,,,,,,,,,,,,,.....,,,,,,,,,,,,,flits,images/br_flits.png,images/cb_flits.png,,,,,,,,,,,,-0.126952456,-0.340146248,1,0,0,.....,0,28,28,4,1
,,,,,,00048,2023-10-05_20h14.31.818,vbt_B2_day2,2022.2.4,Win32,60.04924038,,,,,,,,,,,,,,,,,,,,,,,,,,,,,,kenzis,,,,,,,,,,,,,kenzis,images/br_kenzis.png,images/cb_kenzis.png,,,,,,,,,,,,-0.126952456,-0.340146248,1,0,0,kenzis,0,29,29,30,1
,,,,,,00048,2023-10-05_20h14.31.818,vbt_B2_day2,2022.2.4,Win32,60.04924038,,,,,,,,,,,,,,,,,,,,,,,,,,,,,,dong,,,,,,,,,,,,,jong,images/br_jong.png,images/cb_jong.png,,,,,,,,,,,,-0.126952456,-0.340146248,1,0,0,dong,0,30,30,43,1
,,,,,,00048,2023-10-05_20h14.31.818,vbt_B2_day2,2022.2.4,Win32,60.04924038,,,,,,,,,,,,,,,,,,,,,,,,,,,,,,deeng..,,,,,,,,,,,,,heengeen,images/br_heengeen.png,images/cb_heengeen.png,,,,,,,,,,,,-0.126952456,-0.340146248,1,0,0,deeng..,0,31,31,38,1
,,,,,,00048,2023-10-05_20h14.31.818,vbt_B2_day2,2022.2.4,Win32,60.04924038,,,,,,,,,,,,,,,,,,,,,,,,,,,,,,kabel,,,,,,,,,,,,,kabel,images/br_kabel.png,images/cb_kabel.png,,,,,,,,,,,,-0.126952456,-0.340146248,1,0,0,kabel,0,32,32,7,1
,,,,,,00048,2023-10-05_20h14.31.818,vbt_B2_day2,2022.2.4,Win32,60.04924038,,,,,,,,,,,,,,,,,,,,,,,,,,,,,,remcl,,,,,,,,,,,,,remel,images/br_remel.png,images/cb_remel.png,,,,,,,,,,,,-0.126952456,-0.340146248,1,0,0,remcl,0,33,33,25,1
,,,,,,00048,2023-10-05_20h14.31.818,vbt_B2_day2,2022.2.4,Win32,60.04924038,,,,,,,,,,,,,,,,,,,,,,,,,,,,,,feestdag,,,,,,,,,,,,,feestdag,images/br_feestdag.png,images/cb_feestdag.png,,,,,,,,,,,,-0.126952456,-0.340146248,1,0,0,feestdag,0,34,34,17,1
,,,,,,00048,2023-10-05_20h14.31.818,vbt_B2_day2,2022.2.4,Win32,60.04924038,,,,,,,,,,,,,,,,,,,,,,,,,,,,,,wijlen,,,,,,,,,,,,,kijlen,images/br_kijlen.png,images/cb_kijlen.png,,,,,,,,,,,,-0.126952456,-0.340146248,1,0,0,wijlen,0,35,35,31,1
,,,,,,00048,2023-10-05_20h14.31.818,vbt_B2_day2,2022.2.4,Win32,60.04924038,,,,,,,,,,,,,,,,,,,,,,,,,,,,,,inzicht,,,,,,,,,,,,,inzicht,images/br_inzicht.png,images/cb_inzicht.png,,,,,,,,,,,,-0.126952456,-0.340146248,1,0,0,inzicht,0,36,36,53,1
,,,,,,00048,2023-10-05_20h14.31.818,vbt_B2_day2,2022.2.4,Win32,60.04924038,,,,,,,,,,,,,,,,,,,,,,,,,,,,,,kasteel,,,,,,,,,,,,,kasteel,images/br_kasteel.png,images/cb_kasteel.png,,,,,,,,,,,,-0.126952456,-0.340146248,1,0,0,kasteel,0,37,37,14,1
,,,,,,00048,2023-10-05_20h14.31.818,vbt_B2_day2,2022.2.4,Win32,60.04924038,,,,,,,,,,,,,,,,,,,,,,,,,,,,,,dode,,,,,,,,,,,,,dode,images/br_dode.png,images/cb_dode.png,,,,,,,,,,,,-0.126952456,-0.340146248,1,0,0,dode,0,38,38,41,1
,,,,,,00048,2023-10-05_20h14.31.818,vbt_B2_day2,2022.2.4,Win32,60.04924038,,,,,,,,,,,,,,,,,,,,,,,,,,,,,,eenhoorn,,,,,,,,,,,,,eenhoorn,images/br_eenhoorn.png,images/cb_eenhoorn.png,,,,,,,,,,,,-0.038550973,-0.306912636,1,0,0,eenhoorn,0,39,39,19,1
,,,,,,00048,2023-10-05_20h14.31.818,vbt_B2_day2,2022.2.4,Win32,60.04924038,,,,,,,,,,,,,,,,,,,,,,,,,,,,,,goon,,,,,,,,,,,,,goon,images/br_goon.png,images/cb_goon.png,,,,,,,,,,,,-0.038550973,-0.306912636,1,0,0,goon,0,40,40,23,1
,,,,,,00048,2023-10-05_20h14.31.818,vbt_B2_day2,2022.2.4,Win32,60.04924038,,,,,,,,,,,,,,,,,,,,,,,,,,,,,,hoes,,,,,,,,,,,,,joes,images/br_joes.png,images/cb_joes.png,,,,,,,,,,,,-0.038550973,-0.306912636,1,0,0,hoes,0,41,41,20,1
,,,,,,00048,2023-10-05_20h14.31.818,vbt_B2_day2,2022.2.4,Win32,60.04924038,,,,,,,,,,,,,,,,,,,,,,,,,,,,,,opvatten,,,,,,,,,,,,,opdatten,images/br_opdatten.png,images/cb_opdatten.png,,,,,,,,,,,,-0.038550973,-0.306912636,1,0,0,opvatten,0,42,42,37,1
,,,,,,00048,2023-10-05_20h14.31.818,vbt_B2_day2,2022.2.4,Win32,60.04924038,,,,,,,,,,,,,,,,,,,,,,,,,,,,,,bloeien,,,,,,,,,,,,,bloeien,images/br_bloeien.png,images/cb_bloeien.png,,,,,,,,,,,,-0.038550973,-0.306912636,1,0,0,bloeien,0,43,43,12,1
,,,,,,00048,2023-10-05_20h14.31.818,vbt_B2_day2,2022.2.4,Win32,60.04924038,,,,,,,,,,,,,,,,,,,,,,,,,,,,,,......,,,,,,,,,,,,,lurgen,images/br_lurgen.png,images/cb_lurgen.png,,,,,,,,,,,,-0.047856431,-0.370056517,1,0,0,......,0,44,44,29,1
,,,,,,00048,2023-10-05_20h14.31.818,vbt_B2_day2,2022.2.4,Win32,60.04924038,,,,,,,,,,,,,,,,,,,,,,,,,,,,,,lokken,,,,,,,,,,,,,lokken,images/br_lokken.png,images/cb_lokken.png,,,,,,,,,,,,-0.047856431,-0.370056517,1,0,0,lokken,0,45,45,8,1
,,,,,,00048,2023-10-05_20h14.31.818,vbt_B2_day2,2022.2.4,Win32,60.04924038,,,,,,,,,,,,,,,,,,,,,,,,,,,,,,tand,,,,,,,,,,,,,tand,images/br_tand.png,images/cb_tand.png,,,,,,,,,,,,-0.047856431,-0.370056517,1,0,0,tand,0,46,46,42,1
,,,,,,00048,2023-10-05_20h14.31.818,vbt_B2_day2,2022.2.4,Win32,60.04924038,,,,,,,,,,,,,,,,,,,,,,,,,,,,,,anarchie,,,,,,,,,,,,,anarchie,images/br_anarchie.png,images/cb_anarchie.png,,,,,,,,,,,,-0.047856431,-0.370056517,1,0,0,anarchie,0,47,47,16,1
,,,,,,00048,2023-10-05_20h14.31.818,vbt_B2_day2,2022.2.4,Win32,60.04924038,,,,,,,,,,,,,,,,,,,,,,,,,,,,,,doodmoe,,,,,,,,,,,,,doodmoe,images/br_doodmoe.png,images/cb_doodmoe.png,,,,,,,,,,,,-0.047856431,-0.370056517,1,0,0,doodmoe,0,48,48,15,1
,,,,,,00048,2023-10-05_20h14.31.818,vbt_B2_day2,2022.2.4,Win32,60.04924038,,,,,,,,,,,,,,,,,,,,,,,,,,,,,,sidd..n,,,,,,,,,,,,,sifferd,images/br_sifferd.png,images/cb_sifferd.png,,,,,,,,,,,,-0.047856431,-0.370056517,1,0,0,sidd..n,0,49,49,32,1
,,,,,,00048,2023-10-05_20h14.31.818,vbt_B2_day2,2022.2.4,Win32,60.04924038,,,,,,,,,,,,,,,,,,,,,,,,,,,,,,opruimen,,,,,,,,,,,,,ophuimen,images/br_ophuimen.png,images/cb_ophuimen.png,,,,,,,,,,,,-0.047856431,-0.370056517,1,0,0,opruimen,0,50,50,36,1
,,,,,,00048,2023-10-05_20h14.31.818,vbt_B2_day2,2022.2.4,Win32,60.04924038,,,,,,,,,,,,,,,,,,,,,,,,,,,,,,bidon,,,,,,,,,,,,,badon,images/br_badon.png,images/cb_badon.png,,,,,,,,,,,,-0.047856431,-0.370056517,1,0,0,bidon,0,51,51,26,1
,,,,,,00048,2023-10-05_20h14.31.818,vbt_B2_day2,2022.2.4,Win32,60.04924038,,,,,,,,,,,,,,,,,,,,,,,,,,,,,,piste,,,,,,,,,,,,,piste,images/br_piste.png,images/cb_piste.png,,,,,,,,,,,,-0.047856431,-0.370056517,1,0,0,piste,0,52,52,5,1
,,,,,,00048,2023-10-05_20h14.31.818,vbt_B2_day2,2022.2.4,Win32,60.04924038,,,,,,,,,,,,,,,,,,,,,,,,,,,,,,bruik,,,,,,,,,,,,,breuk,images/br_breuk.png,images/cb_breuk.png,,,,,,,,,,,,-0.047856431,-0.370056517,1,0,0,bruik,0,53,53,45,1
,,,,,,00048,2023-10-05_20h14.31.818,vbt_B2_day2,2022.2.4,Win32,60.04924038,,,,,,,,,,,,,,,,,,,,,,,,,,,,,,....ger,,,,,,,,,,,,,zwager,images/br_zwager.png,images/cb_zwager.png,,,,,,,,,,,,-0.047856431,-0.370056517,1,0,0,....ger,0,54,54,49,1
,,,,,,00048,2023-10-05_20h14.31.818,vbt_B2_day2,2022.2.4,Win32,60.04924038,,,,,,,,,,,,,,,,,,,,,,,,,,,,,,geld,,,,,,,,,,,,,geld,images/br_geld.png,images/cb_geld.png,,,,,,,,,,,,-0.047856431,-0.370056517,1,0,0,geld,0,55,55,3,1
,,,,,,00048,2023-10-05_20h14.31.818,vbt_B2_day2,2022.2.4,Win32,60.04924038,,,,,,,,,,,,,,,,,,,,,,,,,,,,,,zegel,,,,,,,,,,,,,zegel,images/br_zegel.png,images/cb_zegel.png,,,,,,,,,,,,-0.047856431,-0.370056517,1,0,0,zegel,0,56,56,46,1
,,,,,,00048,2023-10-05_20h14.31.818,vbt_B2_day2,2022.2.4,Win32,60.04924038,,,,,,,,,,,,,,,,,,,,,,,,,,,,,,beruiwen,,,,,,,,,,,,,bereuwen,images/br_bereuwen.png,images/cb_bereuwen.png,,,,,,,,,,,,-0.047856431,-0.370056517,1,0,0,beruiwen,0,57,57,39,1
,,,,,,00048,2023-10-05_20h14.31.818,vbt_B2_day2,2022.2.4,Win32,60.04924038,,,,,,,,,,,,,,,,,,,,,,,,,,,,,,krimmen,,,,,,,,,,,,,krimmen,images/br_krimmen.png,images/cb_krimmen.png,,,,,,,,,,,,-0.047856431,-0.370056517,1,0,0,krimmen,0,58,58,35,1
,,,,,,00048,2023-10-05_20h14.31.818,vbt_B2_day2,2022.2.4,Win32,60.04924038,,,,,,,,,,,,,,,,,,,,,,,,,,,,,,ningen,,,,,,,,,,,,,ningen,images/br_ningen.png,images/cb_ningen.png,,,,,,,,,,,,-0.047856431,-0.370056517,1,0,0,ningen,0,59,59,28,1
,,,,,,00048,2023-10-05_20h14.31.818,vbt_B2_day2,2022.2.4,Win32,60.04924038,,,,,,,,,,,,,,,,,,,,,,,,,,,,,,,,,,,,,,,,,,,,,,,,,,,,,,,,,,,,,,,,,,,
