welcome_mouse.x,welcome_mouse.y,welcome_mouse.leftButton,welcome_mouse.midButton,welcome_mouse.rightButton,welcome_mouse.time,"ID",date,expName,psychopyVersion,OS,frameRate,refresh_mouse.x,refresh_mouse.y,refresh_mouse.leftButton,refresh_mouse.midButton,refresh_mouse.rightButton,refresh_mouse.time,braille_mouse.x,braille_mouse.y,braille_mouse.leftButton,braille_mouse.midButton,braille_mouse.rightButton,braille_mouse.time,trials.thisRepN,trials.thisTrialN,trials.thisN,trials.thisIndex,trials.ran,nlLet,brLet,cbLet,trainInstr_mouse.x,trainInstr_mouse.y,trainInstr_mouse.leftButton,trainInstr_mouse.midButton,trainInstr_mouse.rightButton,trainInstr_mouse.time,translation_key.keys,translation_key.corr,translation_key.rt,word_rsp.text,word_mouse.x,word_mouse.y,word_mouse.leftButton,word_mouse.midButton,word_mouse.rightButton,word_mouse.time,train_loop.thisRepN,train_loop.thisTrialN,train_loop.thisN,train_loop.thisIndex,train_loop.ran,nlWrd,brWrd,cbWrd,test,testResp,mouse.x,mouse.y,mouse.leftButton,mouse.midButton,mouse.rightButton,testInstr_mouse.x,testInstr_mouse.y,testInstr_mouse.leftButton,testInstr_mouse.midButton,testInstr_mouse.rightButton,test_mouse.x,test_mouse.y,test_mouse.leftButton,test_mouse.midButton,test_mouse.rightButton,test_response.text,test_loop.thisRepN,test_loop.thisTrialN,test_loop.thisN,test_loop.thisIndex,test_loop.ran
0.017391304,-0.132608696,1,0,0,7.888,00017,2023-08-17_18h40.35.346,vbt_B2_day2,2022.2.4,MacIntel,62.5,,,,,,,,,,,,,,,,,,,,,,,,,,,,,,,,,,,,,,,,,,,,,,,,,,,,,,,,,,,,,,,,,,,
,,,,,,00017,2023-08-17_18h40.35.346,vbt_B2_day2,2022.2.4,MacIntel,62.5,-0.002173913,-0.047826087,1,0,0,4.11,,,,,,,,,,,,,,,,,,,,,,,,,,,,,,,,,,,,,,,,,,,,,,,,,,,,,,,,,,,,,
,,,,,,00017,2023-08-17_18h40.35.346,vbt_B2_day2,2022.2.4,MacIntel,62.5,,,,,,,0.033695652,-0.148913043,1,0,0,0.901,0,0,0,5,1,f,images/br_f.png,images/cb_f.png,,,,,,,,,,,,,,,,,,,,,,,,,,,,,,,,,,,,,,,,,,,,,,,
,,,,,,00017,2023-08-17_18h40.35.346,vbt_B2_day2,2022.2.4,MacIntel,62.5,,,,,,,0.013043478,-0.142391304,1,0,0,5.217,0,1,1,9,1,j,images/br_j.png,images/cb_j.png,,,,,,,,,,,,,,,,,,,,,,,,,,,,,,,,,,,,,,,,,,,,,,,
,,,,,,00017,2023-08-17_18h40.35.346,vbt_B2_day2,2022.2.4,MacIntel,62.5,,,,,,,0.013043478,-0.166304348,1,0,0,0.25,0,2,2,16,1,q,images/br_q.png,images/cb_q.png,,,,,,,,,,,,,,,,,,,,,,,,,,,,,,,,,,,,,,,,,,,,,,,
,,,,,,00017,2023-08-17_18h40.35.346,vbt_B2_day2,2022.2.4,MacIntel,62.5,,,,,,,0.013043478,-0.166304348,1,0,0,0.067,0,3,3,0,1,a,images/br_a.png,images/cb_a.png,,,,,,,,,,,,,,,,,,,,,,,,,,,,,,,,,,,,,,,,,,,,,,,
,,,,,,00017,2023-08-17_18h40.35.346,vbt_B2_day2,2022.2.4,MacIntel,62.5,,,,,,,0.013043478,-0.166304348,1,0,0,0.25,0,4,4,3,1,d,images/br_d.png,images/cb_d.png,,,,,,,,,,,,,,,,,,,,,,,,,,,,,,,,,,,,,,,,,,,,,,,
,,,,,,00017,2023-08-17_18h40.35.346,vbt_B2_day2,2022.2.4,MacIntel,62.5,,,,,,,0.013043478,-0.164130435,1,0,0,0.016,0,5,5,15,1,p,images/br_p.png,images/cb_p.png,,,,,,,,,,,,,,,,,,,,,,,,,,,,,,,,,,,,,,,,,,,,,,,
,,,,,,00017,2023-08-17_18h40.35.346,vbt_B2_day2,2022.2.4,MacIntel,62.5,,,,,,,0.004347826,-0.226086957,1,0,0,0.684,0,6,6,18,1,s,images/br_s.png,images/cb_s.png,,,,,,,,,,,,,,,,,,,,,,,,,,,,,,,,,,,,,,,,,,,,,,,
,,,,,,00017,2023-08-17_18h40.35.346,vbt_B2_day2,2022.2.4,MacIntel,62.5,,,,,,,0.007608696,-0.19673913,1,0,0,0.184,0,7,7,8,1,i,images/br_i.png,images/cb_i.png,,,,,,,,,,,,,,,,,,,,,,,,,,,,,,,,,,,,,,,,,,,,,,,
,,,,,,00017,2023-08-17_18h40.35.346,vbt_B2_day2,2022.2.4,MacIntel,62.5,,,,,,,0.010869565,-0.193478261,1,0,0,0.267,0,8,8,6,1,g,images/br_g.png,images/cb_g.png,,,,,,,,,,,,,,,,,,,,,,,,,,,,,,,,,,,,,,,,,,,,,,,
,,,,,,00017,2023-08-17_18h40.35.346,vbt_B2_day2,2022.2.4,MacIntel,62.5,,,,,,,0.010869565,-0.17826087,1,0,0,26.249,0,9,9,25,1,z,images/br_z.png,images/cb_z.png,,,,,,,,,,,,,,,,,,,,,,,,,,,,,,,,,,,,,,,,,,,,,,,
,,,,,,00017,2023-08-17_18h40.35.346,vbt_B2_day2,2022.2.4,MacIntel,62.5,,,,,,,0.009782609,-0.2,1,0,0,0.566,0,10,10,20,1,u,images/br_u.png,images/cb_u.png,,,,,,,,,,,,,,,,,,,,,,,,,,,,,,,,,,,,,,,,,,,,,,,
,,,,,,00017,2023-08-17_18h40.35.346,vbt_B2_day2,2022.2.4,MacIntel,62.5,,,,,,,0.009782609,-0.198913043,1,0,0,0.401,0,11,11,13,1,n,images/br_n.png,images/cb_n.png,,,,,,,,,,,,,,,,,,,,,,,,,,,,,,,,,,,,,,,,,,,,,,,
,,,,,,00017,2023-08-17_18h40.35.346,vbt_B2_day2,2022.2.4,MacIntel,62.5,,,,,,,0.011956522,-0.189130435,1,0,0,0.116,0,12,12,4,1,e,images/br_e.png,images/cb_e.png,,,,,,,,,,,,,,,,,,,,,,,,,,,,,,,,,,,,,,,,,,,,,,,
,,,,,,00017,2023-08-17_18h40.35.346,vbt_B2_day2,2022.2.4,MacIntel,62.5,,,,,,,0.011956522,-0.191304348,1,0,0,0.167,0,13,13,23,1,x,images/br_x.png,images/cb_x.png,,,,,,,,,,,,,,,,,,,,,,,,,,,,,,,,,,,,,,,,,,,,,,,
,,,,,,00017,2023-08-17_18h40.35.346,vbt_B2_day2,2022.2.4,MacIntel,62.5,,,,,,,0.011956522,-0.191304348,1,0,0,0.017,0,14,14,10,1,k,images/br_k.png,images/cb_k.png,,,,,,,,,,,,,,,,,,,,,,,,,,,,,,,,,,,,,,,,,,,,,,,
,,,,,,00017,2023-08-17_18h40.35.346,vbt_B2_day2,2022.2.4,MacIntel,62.5,,,,,,,0.006521739,-0.215217391,1,0,0,0.517,0,15,15,24,1,y,images/br_y.png,images/cb_y.png,,,,,,,,,,,,,,,,,,,,,,,,,,,,,,,,,,,,,,,,,,,,,,,
,,,,,,00017,2023-08-17_18h40.35.346,vbt_B2_day2,2022.2.4,MacIntel,62.5,,,,,,,0.006521739,-0.215217391,1,0,0,0.051,0,16,16,22,1,w,images/br_w.png,images/cb_w.png,,,,,,,,,,,,,,,,,,,,,,,,,,,,,,,,,,,,,,,,,,,,,,,
,,,,,,00017,2023-08-17_18h40.35.346,vbt_B2_day2,2022.2.4,MacIntel,62.5,,,,,,,0.005434783,-0.216304348,1,0,0,0.233,0,17,17,14,1,o,images/br_o.png,images/cb_o.png,,,,,,,,,,,,,,,,,,,,,,,,,,,,,,,,,,,,,,,,,,,,,,,
,,,,,,00017,2023-08-17_18h40.35.346,vbt_B2_day2,2022.2.4,MacIntel,62.5,,,,,,,0.006521739,-0.216304348,1,0,0,0.483,0,18,18,17,1,r,images/br_r.png,images/cb_r.png,,,,,,,,,,,,,,,,,,,,,,,,,,,,,,,,,,,,,,,,,,,,,,,
,,,,,,00017,2023-08-17_18h40.35.346,vbt_B2_day2,2022.2.4,MacIntel,62.5,,,,,,,0.006521739,-0.216304348,1,0,0,0.316,0,19,19,12,1,m,images/br_m.png,images/cb_m.png,,,,,,,,,,,,,,,,,,,,,,,,,,,,,,,,,,,,,,,,,,,,,,,
,,,,,,00017,2023-08-17_18h40.35.346,vbt_B2_day2,2022.2.4,MacIntel,62.5,,,,,,,0.005434783,-0.216304348,1,0,0,0.299,0,20,20,7,1,h,images/br_h.png,images/cb_h.png,,,,,,,,,,,,,,,,,,,,,,,,,,,,,,,,,,,,,,,,,,,,,,,
,,,,,,00017,2023-08-17_18h40.35.346,vbt_B2_day2,2022.2.4,MacIntel,62.5,,,,,,,0.007608696,-0.225,1,0,0,0.1,0,21,21,2,1,c,images/br_c.png,images/cb_c.png,,,,,,,,,,,,,,,,,,,,,,,,,,,,,,,,,,,,,,,,,,,,,,,
,,,,,,00017,2023-08-17_18h40.35.346,vbt_B2_day2,2022.2.4,MacIntel,62.5,,,,,,,-0.004347826,-0.217391304,1,0,0,0.384,0,22,22,11,1,l,images/br_l.png,images/cb_l.png,,,,,,,,,,,,,,,,,,,,,,,,,,,,,,,,,,,,,,,,,,,,,,,
,,,,,,00017,2023-08-17_18h40.35.346,vbt_B2_day2,2022.2.4,MacIntel,62.5,,,,,,,-0.004347826,-0.219565217,1,0,0,0.284,0,23,23,1,1,b,images/br_b.png,images/cb_b.png,,,,,,,,,,,,,,,,,,,,,,,,,,,,,,,,,,,,,,,,,,,,,,,
,,,,,,00017,2023-08-17_18h40.35.346,vbt_B2_day2,2022.2.4,MacIntel,62.5,,,,,,,-0.004347826,-0.219565217,1,0,0,0.7,0,24,24,19,1,t,images/br_t.png,images/cb_t.png,,,,,,,,,,,,,,,,,,,,,,,,,,,,,,,,,,,,,,,,,,,,,,,
,,,,,,00017,2023-08-17_18h40.35.346,vbt_B2_day2,2022.2.4,MacIntel,62.5,,,,,,,-0.004347826,-0.219565217,1,0,0,0.316,0,25,25,21,1,v,images/br_v.png,images/cb_v.png,,,,,,,,,,,,,,,,,,,,,,,,,,,,,,,,,,,,,,,,,,,,,,,
,,,,,,00017,2023-08-17_18h40.35.346,vbt_B2_day2,2022.2.4,MacIntel,62.5,,,,,,,,,,,,,,,,,,,,,0.016304348,-0.177173913,1,0,0,26.527,,,,,,,,,,,,,,,,,,,,,,,,,,,,,,,,,,,,,,,,,
,,,,,,00017,2023-08-17_18h40.35.346,vbt_B2_day2,2022.2.4,MacIntel,62.5,,,,,,,,,,,,,,,,,,,,,,,,,,,down,0,6.799,,0.008695652,-0.076086957,1,0,0,2.132,0,0,0,26,1,leuk,images/br_leuk.png,images/cb_leuk.png,0,,,,,,,,,,,,,,,,,,,,,,
,,,,,,00017,2023-08-17_18h40.35.346,vbt_B2_day2,2022.2.4,MacIntel,62.5,,,,,,,,,,,,,,,,,,,,,,,,,,,down,0,2.793,,0.008695652,-0.076086957,1,0,0,0.849,0,1,1,75,1,snoep,images/br_snoep.png,images/cb_snoep.png,0,,,,,,,,,,,,,,,,,,,,,,
,,,,,,00017,2023-08-17_18h40.35.346,vbt_B2_day2,2022.2.4,MacIntel,62.5,,,,,,,,,,,,,,,,,,,,,,,,,,,down,0,2.529,,0.141304348,-0.069565217,1,0,0,1.167,0,2,2,113,1,koppen,images/br_koppen.png,images/cb_koppen.png,0,,,,,,,,,,,,,,,,,,,,,,
,,,,,,00017,2023-08-17_18h40.35.346,vbt_B2_day2,2022.2.4,MacIntel,62.5,,,,,,,,,,,,,,,,,,,,,,,,,,,down,0,8.682,,0.101086957,-0.125,1,0,0,0.616,0,3,3,163,1,schuilen,images/br_schuilen.png,images/cb_schuilen.png,0,,,,,,,,,,,,,,,,,,,,,,
,,,,,,00017,2023-08-17_18h40.35.346,vbt_B2_day2,2022.2.4,MacIntel,62.5,,,,,,,,,,,,,,,,,,,,,,,,,,,down,0,2.692,,0.090217391,-0.197826087,1,0,0,0.483,0,4,4,141,1,knielen,images/br_knielen.png,images/cb_knielen.png,0,,,,,,,,,,,,,,,,,,,,,,
,,,,,,00017,2023-08-17_18h40.35.346,vbt_B2_day2,2022.2.4,MacIntel,62.5,,,,,,,,,,,,,,,,,,,,,,,,,,,down,0,5.924,,0.090217391,-0.197826087,1,0,0,0.583,0,5,5,5,1,blad,images/br_blad.png,images/cb_blad.png,0,,,,,,,,,,,,,,,,,,,,,,
,,,,,,00017,2023-08-17_18h40.35.346,vbt_B2_day2,2022.2.4,MacIntel,62.5,,,,,,,,,,,,,,,,,,,,,,,,,,,down,0,4.065,,0.090217391,-0.197826087,1,0,0,0.467,0,6,6,108,1,excuus,images/br_excuus.png,images/cb_excuus.png,0,,,,,,,,,,,,,,,,,,,,,,
,,,,,,00017,2023-08-17_18h40.35.346,vbt_B2_day2,2022.2.4,MacIntel,62.5,,,,,,,,,,,,,,,,,,,,,,,,,,,down,0,9.5,,0.008695652,-0.131521739,1,0,0,0.567,0,7,7,182,1,bijkomen,images/br_bijkomen.png,images/cb_bijkomen.png,0,,,,,,,,,,,,,,,,,,,,,,
,,,,,,00017,2023-08-17_18h40.35.346,vbt_B2_day2,2022.2.4,MacIntel,62.5,,,,,,,,,,,,,,,,,,,,,,,,,,,down,0,6.942,,0.008695652,-0.131521739,1,0,0,0.701,0,8,8,78,1,leren,images/br_leren.png,images/cb_leren.png,0,,,,,,,,,,,,,,,,,,,,,,
,,,,,,00017,2023-08-17_18h40.35.346,vbt_B2_day2,2022.2.4,MacIntel,62.5,,,,,,,,,,,,,,,,,,,,,,,,,,,down,0,1.118,,0.186956522,-0.129347826,1,0,0,0.4,0,9,9,12,1,kust,images/br_kust.png,images/cb_kust.png,0,,,,,,,,,,,,,,,,,,,,,,
,,,,,,00017,2023-08-17_18h40.35.346,vbt_B2_day2,2022.2.4,MacIntel,62.5,,,,,,,,,,,,,,,,,,,,,,,,,,,down,0,3.601,,-0.039130435,-0.223913043,1,0,0,0.582,0,10,10,166,1,strikken,images/br_strikken.png,images/cb_strikken.png,0,,,,,,,,,,,,,,,,,,,,,,
,,,,,,00017,2023-08-17_18h40.35.346,vbt_B2_day2,2022.2.4,MacIntel,62.5,,,,,,,,,,,,,,,,,,,,,,,,,,,down,0,1.334,,0.057608696,-0.038043478,1,0,0,0.833,0,11,11,39,1,laag,images/br_laag.png,images/cb_laag.png,0,,,,,,,,,,,,,,,,,,,,,,
,,,,,,00017,2023-08-17_18h40.35.346,vbt_B2_day2,2022.2.4,MacIntel,62.5,,,,,,,,,,,,,,,,,,,,,,,,,,,down,0,4.635,,0.081521739,-0.026086957,1,0,0,0.7,0,12,12,124,1,bloeien,images/br_bloeien.png,images/cb_bloeien.png,0,,,,,,,,,,,,,,,,,,,,,,
,,,,,,00017,2023-08-17_18h40.35.346,vbt_B2_day2,2022.2.4,MacIntel,62.5,,,,,,,,,,,,,,,,,,,,,,,,,,,down,0,5.871,,0.058695652,-0.076086957,1,0,0,0.483,0,13,13,175,1,heengaan,images/br_heengaan.png,images/cb_heengaan.png,0,,,,,,,,,,,,,,,,,,,,,,
,,,,,,00017,2023-08-17_18h40.35.346,vbt_B2_day2,2022.2.4,MacIntel,62.5,,,,,,,,,,,,,,,,,,,,,,,,,,,down,0,2.285,,0.079347826,-0.042391304,1,0,0,1.283,0,14,14,188,1,strekken,images/br_strekken.png,images/cb_strekken.png,0,,,,,,,,,,,,,,,,,,,,,,
,,,,,,00017,2023-08-17_18h40.35.346,vbt_B2_day2,2022.2.4,MacIntel,62.5,,,,,,,,,,,,,,,,,,,,,,,,,,,down,0,0.552,,0.079347826,-0.042391304,1,0,0,0.433,0,15,15,112,1,lukken,images/br_lukken.png,images/cb_lukken.png,0,,,,,,,,,,,,,,,,,,,,,,
,,,,,,00017,2023-08-17_18h40.35.346,vbt_B2_day2,2022.2.4,MacIntel,62.5,,,,,,,,,,,,,,,,,,,,,,,,,,,down,0,0.518,,0.091304348,-0.004347826,1,0,0,0.434,0,16,16,0,1,slak,images/br_slak.png,images/cb_slak.png,0,,,,,,,,,,,,,,,,,,,,,,
,,,,,,00017,2023-08-17_18h40.35.346,vbt_B2_day2,2022.2.4,MacIntel,62.5,,,,,,,,,,,,,,,,,,,,,,,,,,,down,0,9.659,,-0.076086957,-0.157608696,1,0,0,2.933,0,17,17,98,1,kreeft,images/br_kreeft.png,images/cb_kreeft.png,1,kreeft,,,,,,,,,,,,,,,,,,,,,
,,,,,,00017,2023-08-17_18h40.35.346,vbt_B2_day2,2022.2.4,MacIntel,62.5,,,,,,,,,,,,,,,,,,,,,,,,,,,down,0,3.741,,-0.076086957,-0.157608696,1,0,0,0.399,0,18,18,132,1,grappen,images/br_grappen.png,images/cb_grappen.png,0,,,,,,,,,,,,,,,,,,,,,,
,,,,,,00017,2023-08-17_18h40.35.346,vbt_B2_day2,2022.2.4,MacIntel,62.5,,,,,,,,,,,,,,,,,,,,,,,,,,,down,0,12.436,,-0.076086957,-0.157608696,1,0,0,0.583,0,19,19,122,1,waarvan,images/br_waarvan.png,images/cb_waarvan.png,0,,,,,,,,,,,,,,,,,,,,,,
,,,,,,00017,2023-08-17_18h40.35.346,vbt_B2_day2,2022.2.4,MacIntel,62.5,,,,,,,,,,,,,,,,,,,,,,,,,,,down,0,1.989,,-0.076086957,-0.157608696,1,0,0,0.667,0,20,20,62,1,knaap,images/br_knaap.png,images/cb_knaap.png,0,,,,,,,,,,,,,,,,,,,,,,
,,,,,,00017,2023-08-17_18h40.35.346,vbt_B2_day2,2022.2.4,MacIntel,62.5,,,,,,,,,,,,,,,,,,,,,,,,,,,down,0,1.341,,-0.076086957,-0.157608696,1,0,0,0.55,0,21,21,33,1,vlek,images/br_vlek.png,images/cb_vlek.png,0,,,,,,,,,,,,,,,,,,,,,,
,,,,,,00017,2023-08-17_18h40.35.346,vbt_B2_day2,2022.2.4,MacIntel,62.5,,,,,,,,,,,,,,,,,,,,,,,,,,,down,0,11.653,,-0.076086957,-0.157608696,1,0,0,0.65,0,22,22,145,1,invloed,images/br_invloed.png,images/cb_invloed.png,0,,,,,,,,,,,,,,,,,,,,,,
,,,,,,00017,2023-08-17_18h40.35.346,vbt_B2_day2,2022.2.4,MacIntel,62.5,,,,,,,,,,,,,,,,,,,,,,,,,,,down,0,7.823,,0.048913043,-0.12173913,1,0,0,2.883,0,23,23,147,1,komisch,images/br_komisch.png,images/cb_komisch.png,0,,,,,,,,,,,,,,,,,,,,,,
,,,,,,00017,2023-08-17_18h40.35.346,vbt_B2_day2,2022.2.4,MacIntel,62.5,,,,,,,,,,,,,,,,,,,,,,,,,,,down,0,2.975,,0.048913043,-0.12173913,1,0,0,0.45,0,24,24,67,1,zwart,images/br_zwart.png,images/cb_zwart.png,0,,,,,,,,,,,,,,,,,,,,,,
,,,,,,00017,2023-08-17_18h40.35.346,vbt_B2_day2,2022.2.4,MacIntel,62.5,,,,,,,,,,,,,,,,,,,,,,,,,,,down,0,8.184,,0.048913043,-0.12173913,1,0,0,0.517,0,25,25,191,1,opheffen,images/br_opheffen.png,images/cb_opheffen.png,0,,,,,,,,,,,,,,,,,,,,,,
,,,,,,00017,2023-08-17_18h40.35.346,vbt_B2_day2,2022.2.4,MacIntel,62.5,,,,,,,,,,,,,,,,,,,,,,,,,,,down,0,6.026,,0.048913043,-0.12173913,1,0,0,0.533,0,26,26,195,1,middelen,images/br_middelen.png,images/cb_middelen.png,0,,,,,,,,,,,,,,,,,,,,,,
,,,,,,00017,2023-08-17_18h40.35.346,vbt_B2_day2,2022.2.4,MacIntel,62.5,,,,,,,,,,,,,,,,,,,,,,,,,,,down,0,5.559,,0.048913043,-0.12173913,1,0,0,0.533,0,27,27,133,1,seizoen,images/br_seizoen.png,images/cb_seizoen.png,0,,,,,,,,,,,,,,,,,,,,,,
,,,,,,00017,2023-08-17_18h40.35.346,vbt_B2_day2,2022.2.4,MacIntel,62.5,,,,,,,,,,,,,,,,,,,,,,,,,,,down,0,1.409,,0.048913043,-0.12173913,1,0,0,0.65,0,28,28,103,1,joggen,images/br_joggen.png,images/cb_joggen.png,0,,,,,,,,,,,,,,,,,,,,,,
,,,,,,00017,2023-08-17_18h40.35.346,vbt_B2_day2,2022.2.4,MacIntel,62.5,,,,,,,,,,,,,,,,,,,,,,,,,,,down,0,2.752,,0.048913043,-0.12173913,1,0,0,0.434,0,29,29,3,1,mand,images/br_mand.png,images/cb_mand.png,0,,,,,,,,,,,,,,,,,,,,,,
,,,,,,00017,2023-08-17_18h40.35.346,vbt_B2_day2,2022.2.4,MacIntel,62.5,,,,,,,,,,,,,,,,,,,,,,,,,,,down,0,1.661,,0.048913043,-0.12173913,1,0,0,0.566,0,30,30,95,1,vreten,images/br_vreten.png,images/cb_vreten.png,0,,,,,,,,,,,,,,,,,,,,,,
,,,,,,00017,2023-08-17_18h40.35.346,vbt_B2_day2,2022.2.4,MacIntel,62.5,,,,,,,,,,,,,,,,,,,,,,,,,,,down,0,20.132,,0.048913043,-0.12173913,1,0,0,1.234,0,31,31,131,1,opzicht,images/br_opzicht.png,images/cb_opzicht.png,0,,,,,,,,,,,,,,,,,,,,,,
,,,,,,00017,2023-08-17_18h40.35.346,vbt_B2_day2,2022.2.4,MacIntel,62.5,,,,,,,,,,,,,,,,,,,,,,,,,,,down,0,2.818,,0.048913043,-0.12173913,1,0,0,0.534,0,32,32,107,1,maling,images/br_maling.png,images/cb_maling.png,0,,,,,,,,,,,,,,,,,,,,,,
,,,,,,00017,2023-08-17_18h40.35.346,vbt_B2_day2,2022.2.4,MacIntel,62.5,,,,,,,,,,,,,,,,,,,,,,,,,,,down,0,3.99,,0.048913043,-0.12173913,1,0,0,0.667,0,33,33,106,1,zingen,images/br_zingen.png,images/cb_zingen.png,0,,,,,,,,,,,,,,,,,,,,,,
,,,,,,00017,2023-08-17_18h40.35.346,vbt_B2_day2,2022.2.4,MacIntel,62.5,,,,,,,,,,,,,,,,,,,,,,,,,,,down,0,2.158,,0.048913043,-0.12173913,1,0,0,0.466,0,34,34,34,1,vorm,images/br_vorm.png,images/cb_vorm.png,0,,,,,,,,,,,,,,,,,,,,,,
,,,,,,00017,2023-08-17_18h40.35.346,vbt_B2_day2,2022.2.4,MacIntel,62.5,,,,,,,,,,,,,,,,,,,,,,,,,,,down,0,1.337,,0.048913043,-0.12173913,1,0,0,0.449,0,35,35,88,1,boeien,images/br_boeien.png,images/cb_boeien.png,0,,,,,,,,,,,,,,,,,,,,,,
,,,,,,00017,2023-08-17_18h40.35.346,vbt_B2_day2,2022.2.4,MacIntel,62.5,,,,,,,,,,,,,,,,,,,,,,,,,,,down,0,7.095,,0.059782609,-0.281521739,1,0,0,1.083,0,36,36,16,1,ziek,images/br_ziek.png,images/cb_ziek.png,1,ziek,,,,,,,,,,,,,,,,,,,,,
,,,,,,00017,2023-08-17_18h40.35.346,vbt_B2_day2,2022.2.4,MacIntel,62.5,,,,,,,,,,,,,,,,,,,,,,,,,,,down,0,5.173,,0.051086957,-0.172826087,1,0,0,0.483,0,37,37,125,1,aanzien,images/br_aanzien.png,images/cb_aanzien.png,0,,,,,,,,,,,,,,,,,,,,,,
,,,,,,00017,2023-08-17_18h40.35.346,vbt_B2_day2,2022.2.4,MacIntel,62.5,,,,,,,,,,,,,,,,,,,,,,,,,,,down,0,2.016,,0.051086957,-0.172826087,1,0,0,0.5,0,38,38,64,1,wegen,images/br_wegen.png,images/cb_wegen.png,0,,,,,,,,,,,,,,,,,,,,,,
,,,,,,00017,2023-08-17_18h40.35.346,vbt_B2_day2,2022.2.4,MacIntel,62.5,,,,,,,,,,,,,,,,,,,,,,,,,,,down,0,2.469,,0.051086957,-0.172826087,1,0,0,0.435,0,39,39,32,1,palm,images/br_palm.png,images/cb_palm.png,0,,,,,,,,,,,,,,,,,,,,,,
,,,,,,00017,2023-08-17_18h40.35.346,vbt_B2_day2,2022.2.4,MacIntel,62.5,,,,,,,,,,,,,,,,,,,,,,,,,,,down,0,3.945,,0.051086957,-0.172826087,1,0,0,0.616,0,40,40,128,1,prikken,images/br_prikken.png,images/cb_prikken.png,0,,,,,,,,,,,,,,,,,,,,,,
,,,,,,00017,2023-08-17_18h40.35.346,vbt_B2_day2,2022.2.4,MacIntel,62.5,,,,,,,,,,,,,,,,,,,,,,,,,,,down,0,4.339,,0.051086957,-0.172826087,1,0,0,0.5,0,41,41,156,1,rechten,images/br_rechten.png,images/cb_rechten.png,0,,,,,,,,,,,,,,,,,,,,,,
,,,,,,00017,2023-08-17_18h40.35.346,vbt_B2_day2,2022.2.4,MacIntel,62.5,,,,,,,,,,,,,,,,,,,,,,,,,,,down,0,7.113,,0.051086957,-0.172826087,1,0,0,0.55,0,42,42,85,1,heilig,images/br_heilig.png,images/cb_heilig.png,0,,,,,,,,,,,,,,,,,,,,,,
,,,,,,00017,2023-08-17_18h40.35.346,vbt_B2_day2,2022.2.4,MacIntel,62.5,,,,,,,,,,,,,,,,,,,,,,,,,,,down,0,3.459,,0.051086957,-0.172826087,1,0,0,0.567,0,43,43,117,1,kennis,images/br_kennis.png,images/cb_kennis.png,0,,,,,,,,,,,,,,,,,,,,,,
,,,,,,00017,2023-08-17_18h40.35.346,vbt_B2_day2,2022.2.4,MacIntel,62.5,,,,,,,,,,,,,,,,,,,,,,,,,,,down,0,1.844,,0.093478261,-0.122826087,1,0,0,0.583,0,44,44,31,1,poes,images/br_poes.png,images/cb_poes.png,0,,,,,,,,,,,,,,,,,,,,,,
,,,,,,00017,2023-08-17_18h40.35.346,vbt_B2_day2,2022.2.4,MacIntel,62.5,,,,,,,,,,,,,,,,,,,,,,,,,,,down,0,5.849,,0.093478261,-0.118478261,1,0,0,0.75,0,45,45,100,1,geduld,images/br_geduld.png,images/cb_geduld.png,0,,,,,,,,,,,,,,,,,,,,,,
,,,,,,00017,2023-08-17_18h40.35.346,vbt_B2_day2,2022.2.4,MacIntel,62.5,,,,,,,,,,,,,,,,,,,,,,,,,,,down,0,7.854,,0.093478261,-0.118478261,1,0,0,93.114,0,46,46,186,1,voorraad,images/br_voorraad.png,images/cb_voorraad.png,0,,,,,,,,,,,,,,,,,,,,,,
,,,,,,00017,2023-08-17_18h40.35.346,vbt_B2_day2,2022.2.4,MacIntel,62.5,,,,,,,,,,,,,,,,,,,,,,,,,,,down,0,5.92,,0.093478261,-0.118478261,1,0,0,4.067,0,47,47,11,1,mode,images/br_mode.png,images/cb_mode.png,0,,,,,,,,,,,,,,,,,,,,,,
,,,,,,00017,2023-08-17_18h40.35.346,vbt_B2_day2,2022.2.4,MacIntel,62.5,,,,,,,,,,,,,,,,,,,,,,,,,,,down,0,3.7,,0.093478261,-0.118478261,1,0,0,0.533,0,48,48,68,1,schat,images/br_schat.png,images/cb_schat.png,0,,,,,,,,,,,,,,,,,,,,,,
,,,,,,00017,2023-08-17_18h40.35.346,vbt_B2_day2,2022.2.4,MacIntel,62.5,,,,,,,,,,,,,,,,,,,,,,,,,,,down,0,11.307,,0.093478261,-0.118478261,1,0,0,0.516,0,49,49,130,1,keihard,images/br_keihard.png,images/cb_keihard.png,0,,,,,,,,,,,,,,,,,,,,,,
,,,,,,00017,2023-08-17_18h40.35.346,vbt_B2_day2,2022.2.4,MacIntel,62.5,,,,,,,,,,,,,,,,,,,,,,,,,,,down,0,6.006,,0.093478261,-0.118478261,1,0,0,0.483,0,50,50,90,1,geluid,images/br_geluid.png,images/cb_geluid.png,0,,,,,,,,,,,,,,,,,,,,,,
,,,,,,00017,2023-08-17_18h40.35.346,vbt_B2_day2,2022.2.4,MacIntel,62.5,,,,,,,,,,,,,,,,,,,,,,,,,,,down,0,1.708,,0.093478261,-0.118478261,1,0,0,0.416,0,51,51,94,1,oceaan,images/br_oceaan.png,images/cb_oceaan.png,0,,,,,,,,,,,,,,,,,,,,,,
,,,,,,00017,2023-08-17_18h40.35.346,vbt_B2_day2,2022.2.4,MacIntel,62.5,,,,,,,,,,,,,,,,,,,,,,,,,,,down,0,5.236,,0.093478261,-0.118478261,1,0,0,6.184,0,52,52,181,1,toegeven,images/br_toegeven.png,images/cb_toegeven.png,0,,,,,,,,,,,,,,,,,,,,,,
,,,,,,00017,2023-08-17_18h40.35.346,vbt_B2_day2,2022.2.4,MacIntel,62.5,,,,,,,,,,,,,,,,,,,,,,,,,,,down,0,1.901,,0.093478261,-0.118478261,1,0,0,0.783,0,53,53,54,1,gebit,images/br_gebit.png,images/cb_gebit.png,0,,,,,,,,,,,,,,,,,,,,,,
,,,,,,00017,2023-08-17_18h40.35.346,vbt_B2_day2,2022.2.4,MacIntel,62.5,,,,,,,,,,,,,,,,,,,,,,,,,,,down,0,20.349,,0.093478261,-0.118478261,1,0,0,10.05,0,54,54,29,1,baas,images/br_baas.png,images/cb_baas.png,0,,,,,,,,,,,,,,,,,,,,,,
,,,,,,00017,2023-08-17_18h40.35.346,vbt_B2_day2,2022.2.4,MacIntel,62.5,,,,,,,,,,,,,,,,,,,,,,,,,,,down,0,12.434,,0.172826087,-0.025,1,0,0,2.1,0,55,55,121,1,twijfel,images/br_twijfel.png,images/cb_twijfel.png,0,,,,,,,,,,,,,,,,,,,,,,
,,,,,,00017,2023-08-17_18h40.35.346,vbt_B2_day2,2022.2.4,MacIntel,62.5,,,,,,,,,,,,,,,,,,,,,,,,,,,down,0,3.484,,0.164130435,-0.204347826,1,0,0,0.667,0,56,56,17,1,taal,images/br_taal.png,images/cb_taal.png,1,taal,,,,,,,,,,,,,,,,,,,,,
,,,,,,00017,2023-08-17_18h40.35.346,vbt_B2_day2,2022.2.4,MacIntel,62.5,,,,,,,,,,,,,,,,,,,,,,,,,,,down,0,6.836,,0.026086957,-0.260869565,1,0,0,0.667,0,57,57,43,1,klauw,images/br_klauw.png,images/cb_klauw.png,0,,,,,,,,,,,,,,,,,,,,,,
,,,,,,00017,2023-08-17_18h40.35.346,vbt_B2_day2,2022.2.4,MacIntel,62.5,,,,,,,,,,,,,,,,,,,,,,,,,,,down,0,9.601,,0.117391304,0.04673913,1,0,0,0.6,0,58,58,10,1,leek,images/br_leek.png,images/cb_leek.png,0,,,,,,,,,,,,,,,,,,,,,,
,,,,,,00017,2023-08-17_18h40.35.346,vbt_B2_day2,2022.2.4,MacIntel,62.5,,,,,,,,,,,,,,,,,,,,,,,,,,,down,0,3.516,,0.117391304,0.04673913,1,0,0,0.467,0,59,59,190,1,goedkoop,images/br_goedkoop.png,images/cb_goedkoop.png,0,,,,,,,,,,,,,,,,,,,,,,
,,,,,,00017,2023-08-17_18h40.35.346,vbt_B2_day2,2022.2.4,MacIntel,62.5,,,,,,,,,,,,,,,,,,,,,,,,,,,down,0,1.69,,0.117391304,0.04673913,1,0,0,0.616,0,60,60,104,1,zweven,images/br_zweven.png,images/cb_zweven.png,0,,,,,,,,,,,,,,,,,,,,,,
,,,,,,00017,2023-08-17_18h40.35.346,vbt_B2_day2,2022.2.4,MacIntel,62.5,,,,,,,,,,,,,,,,,,,,,,,,,,,down,0,6.317,,0.117391304,0.04673913,1,0,0,0.5,0,61,61,162,1,uitdelen,images/br_uitdelen.png,images/cb_uitdelen.png,0,,,,,,,,,,,,,,,,,,,,,,
,,,,,,00017,2023-08-17_18h40.35.346,vbt_B2_day2,2022.2.4,MacIntel,62.5,,,,,,,,,,,,,,,,,,,,,,,,,,,down,0,2.719,,0.117391304,0.04673913,1,0,0,0.55,0,62,62,168,1,bisschop,images/br_bisschop.png,images/cb_bisschop.png,0,,,,,,,,,,,,,,,,,,,,,,
,,,,,,00017,2023-08-17_18h40.35.346,vbt_B2_day2,2022.2.4,MacIntel,62.5,,,,,,,,,,,,,,,,,,,,,,,,,,,down,0,2.585,,0.366304348,0.275,1,0,0,0.65,0,63,63,4,1,moes,images/br_moes.png,images/cb_moes.png,0,,,,,,,,,,,,,,,,,,,,,,
,,,,,,00017,2023-08-17_18h40.35.346,vbt_B2_day2,2022.2.4,MacIntel,62.5,,,,,,,,,,,,,,,,,,,,,,,,,,,down,0,3.574,,0.318478261,-0.12173913,1,0,0,0.451,0,64,64,77,1,woede,images/br_woede.png,images/cb_woede.png,0,,,,,,,,,,,,,,,,,,,,,,
,,,,,,00017,2023-08-17_18h40.35.346,vbt_B2_day2,2022.2.4,MacIntel,62.5,,,,,,,,,,,,,,,,,,,,,,,,,,,down,0,16.046,,0.32173913,-0.125,1,0,0,11.066,0,65,65,91,1,gezond,images/br_gezond.png,images/cb_gezond.png,0,,,,,,,,,,,,,,,,,,,,,,
,,,,,,00017,2023-08-17_18h40.35.346,vbt_B2_day2,2022.2.4,MacIntel,62.5,,,,,,,,,,,,,,,,,,,,,,,,,,,down,0,3.89,,-0.081521739,-0.283695652,1,0,0,0.566,0,66,66,57,1,steek,images/br_steek.png,images/cb_steek.png,1,steek,,,,,,,,,,,,,,,,,,,,,
,,,,,,00017,2023-08-17_18h40.35.346,vbt_B2_day2,2022.2.4,MacIntel,62.5,,,,,,,,,,,,,,,,,,,,,,,,,,,down,0,7.154,,0.105434783,-0.114130435,1,0,0,0.717,0,67,67,99,1,koffie,images/br_koffie.png,images/cb_koffie.png,1,koffie,,,,,,,,,,,,,,,,,,,,,
,,,,,,00017,2023-08-17_18h40.35.346,vbt_B2_day2,2022.2.4,MacIntel,62.5,,,,,,,,,,,,,,,,,,,,,,,,,,,down,0,9.451,,0.02826087,-0.338043478,1,0,0,0.666,0,68,68,179,1,woestijn,images/br_woestijn.png,images/cb_woestijn.png,1,woestijn,,,,,,,,,,,,,,,,,,,,,
,,,,,,00017,2023-08-17_18h40.35.346,vbt_B2_day2,2022.2.4,MacIntel,62.5,,,,,,,,,,,,,,,,,,,,,,,,,,,down,0,2.585,,0.068478261,-0.268478261,1,0,0,0.466,0,69,69,79,1,nodig,images/br_nodig.png,images/cb_nodig.png,0,,,,,,,,,,,,,,,,,,,,,,
,,,,,,00017,2023-08-17_18h40.35.346,vbt_B2_day2,2022.2.4,MacIntel,62.5,,,,,,,,,,,,,,,,,,,,,,,,,,,down,0,6.489,,0.070652174,-0.225,1,0,0,0.433,0,70,70,170,1,schatten,images/br_schatten.png,images/cb_schatten.png,0,,,,,,,,,,,,,,,,,,,,,,
,,,,,,00017,2023-08-17_18h40.35.346,vbt_B2_day2,2022.2.4,MacIntel,62.5,,,,,,,,,,,,,,,,,,,,,,,,,,,down,0,1.242,,0.070652174,-0.225,1,0,0,0.384,0,71,71,109,1,totaal,images/br_totaal.png,images/cb_totaal.png,0,,,,,,,,,,,,,,,,,,,,,,
,,,,,,00017,2023-08-17_18h40.35.346,vbt_B2_day2,2022.2.4,MacIntel,62.5,,,,,,,,,,,,,,,,,,,,,,,,,,,down,0,2.544,,0.070652174,-0.225,1,0,0,0.45,0,72,72,20,1,site,images/br_site.png,images/cb_site.png,0,,,,,,,,,,,,,,,,,,,,,,
,,,,,,00017,2023-08-17_18h40.35.346,vbt_B2_day2,2022.2.4,MacIntel,62.5,,,,,,,,,,,,,,,,,,,,,,,,,,,down,0,3.19,,0.070652174,-0.225,1,0,0,0.349,0,73,73,140,1,blijven,images/br_blijven.png,images/cb_blijven.png,0,,,,,,,,,,,,,,,,,,,,,,
,,,,,,00017,2023-08-17_18h40.35.346,vbt_B2_day2,2022.2.4,MacIntel,62.5,,,,,,,,,,,,,,,,,,,,,,,,,,,down,0,3.2,,0.070652174,-0.225,1,0,0,0.4,0,74,74,119,1,liefje,images/br_liefje.png,images/cb_liefje.png,0,,,,,,,,,,,,,,,,,,,,,,
,,,,,,00017,2023-08-17_18h40.35.346,vbt_B2_day2,2022.2.4,MacIntel,62.5,,,,,,,,,,,,,,,,,,,,,,,,,,,down,0,7.017,,0.070652174,-0.225,1,0,0,0.382,0,75,75,154,1,aflopen,images/br_aflopen.png,images/cb_aflopen.png,0,,,,,,,,,,,,,,,,,,,,,,
,,,,,,00017,2023-08-17_18h40.35.346,vbt_B2_day2,2022.2.4,MacIntel,62.5,,,,,,,,,,,,,,,,,,,,,,,,,,,down,0,0.791,,0.070652174,-0.225,1,0,0,0.383,0,76,76,71,1,bever,images/br_bever.png,images/cb_bever.png,0,,,,,,,,,,,,,,,,,,,,,,
,,,,,,00017,2023-08-17_18h40.35.346,vbt_B2_day2,2022.2.4,MacIntel,62.5,,,,,,,,,,,,,,,,,,,,,,,,,,,down,0,8.057,,0.070652174,-0.225,1,0,0,0.483,0,77,77,14,1,rijp,images/br_rijp.png,images/cb_rijp.png,0,,,,,,,,,,,,,,,,,,,,,,
,,,,,,00017,2023-08-17_18h40.35.346,vbt_B2_day2,2022.2.4,MacIntel,62.5,,,,,,,,,,,,,,,,,,,,,,,,,,,down,0,1.773,,0.070652174,-0.225,1,0,0,0.384,0,78,78,46,1,jagen,images/br_jagen.png,images/cb_jagen.png,0,,,,,,,,,,,,,,,,,,,,,,
,,,,,,00017,2023-08-17_18h40.35.346,vbt_B2_day2,2022.2.4,MacIntel,62.5,,,,,,,,,,,,,,,,,,,,,,,,,,,down,0,5.051,,0.070652174,-0.225,1,0,0,0.332,0,79,79,129,1,verhaal,images/br_verhaal.png,images/cb_verhaal.png,0,,,,,,,,,,,,,,,,,,,,,,
,,,,,,00017,2023-08-17_18h40.35.346,vbt_B2_day2,2022.2.4,MacIntel,62.5,,,,,,,,,,,,,,,,,,,,,,,,,,,down,0,1.533,,0.070652174,-0.225,1,0,0,0.35,0,80,80,65,1,parel,images/br_parel.png,images/cb_parel.png,0,,,,,,,,,,,,,,,,,,,,,,
,,,,,,00017,2023-08-17_18h40.35.346,vbt_B2_day2,2022.2.4,MacIntel,62.5,,,,,,,,,,,,,,,,,,,,,,,,,,,down,0,10.891,,0.070652174,-0.225,1,0,0,0.466,0,81,81,193,1,weeshuis,images/br_weeshuis.png,images/cb_weeshuis.png,0,,,,,,,,,,,,,,,,,,,,,,
,,,,,,00017,2023-08-17_18h40.35.346,vbt_B2_day2,2022.2.4,MacIntel,62.5,,,,,,,,,,,,,,,,,,,,,,,,,,,down,0,8.601,,0.070652174,-0.225,1,0,0,0.4,0,82,82,116,1,besmet,images/br_besmet.png,images/cb_besmet.png,0,,,,,,,,,,,,,,,,,,,,,,
,,,,,,00017,2023-08-17_18h40.35.346,vbt_B2_day2,2022.2.4,MacIntel,62.5,,,,,,,,,,,,,,,,,,,,,,,,,,,down,0,5.337,,0.070652174,-0.225,1,0,0,0.35,0,83,83,72,1,strak,images/br_strak.png,images/cb_strak.png,0,,,,,,,,,,,,,,,,,,,,,,
,,,,,,00017,2023-08-17_18h40.35.346,vbt_B2_day2,2022.2.4,MacIntel,62.5,,,,,,,,,,,,,,,,,,,,,,,,,,,down,0,2.068,,0.070652174,-0.225,1,0,0,0.383,0,84,84,22,1,stof,images/br_stof.png,images/cb_stof.png,0,,,,,,,,,,,,,,,,,,,,,,
,,,,,,00017,2023-08-17_18h40.35.346,vbt_B2_day2,2022.2.4,MacIntel,62.5,,,,,,,,,,,,,,,,,,,,,,,,,,,down,0,5.116,,0.136956522,-0.176086957,1,0,0,0.401,0,85,85,176,1,techniek,images/br_techniek.png,images/cb_techniek.png,1,techniek,,,,,,,,,,,,,,,,,,,,,
,,,,,,00017,2023-08-17_18h40.35.346,vbt_B2_day2,2022.2.4,MacIntel,62.5,,,,,,,,,,,,,,,,,,,,,,,,,,,down,0,2.52,,0.136956522,-0.176086957,1,0,0,0.416,0,86,86,139,1,stiekem,images/br_stiekem.png,images/cb_stiekem.png,1,stiekem,,,,,,,,,,,,,,,,,,,,,
,,,,,,00017,2023-08-17_18h40.35.346,vbt_B2_day2,2022.2.4,MacIntel,62.5,,,,,,,,,,,,,,,,,,,,,,,,,,,down,0,6.25,,0.226086957,-0.090217391,1,0,0,0.416,0,87,87,136,1,waarbij,images/br_waarbij.png,images/cb_waarbij.png,1,waarbij,,,,,,,,,,,,,,,,,,,,,
,,,,,,00017,2023-08-17_18h40.35.346,vbt_B2_day2,2022.2.4,MacIntel,62.5,,,,,,,,,,,,,,,,,,,,,,,,,,,down,0,5.01,,0.226086957,-0.090217391,1,0,0,0.684,0,88,88,27,1,dans,images/br_dans.png,images/cb_dans.png,0,,,,,,,,,,,,,,,,,,,,,,
,,,,,,00017,2023-08-17_18h40.35.346,vbt_B2_day2,2022.2.4,MacIntel,62.5,,,,,,,,,,,,,,,,,,,,,,,,,,,down,0,0.512,,0.226086957,-0.090217391,1,0,0,0.45,0,89,89,21,1,mist,images/br_mist.png,images/cb_mist.png,0,,,,,,,,,,,,,,,,,,,,,,
,,,,,,00017,2023-08-17_18h40.35.346,vbt_B2_day2,2022.2.4,MacIntel,62.5,,,,,,,,,,,,,,,,,,,,,,,,,,,down,0,1.881,,0.226086957,-0.090217391,1,0,0,0.6,0,90,90,83,1,mening,images/br_mening.png,images/cb_mening.png,0,,,,,,,,,,,,,,,,,,,,,,
,,,,,,00017,2023-08-17_18h40.35.346,vbt_B2_day2,2022.2.4,MacIntel,62.5,,,,,,,,,,,,,,,,,,,,,,,,,,,down,0,3.807,,0.226086957,-0.090217391,1,0,0,0.467,0,91,91,150,1,gegeven,images/br_gegeven.png,images/cb_gegeven.png,0,,,,,,,,,,,,,,,,,,,,,,
,,,,,,00017,2023-08-17_18h40.35.346,vbt_B2_day2,2022.2.4,MacIntel,62.5,,,,,,,,,,,,,,,,,,,,,,,,,,,down,0,6.146,,0.227173913,-0.075,1,0,0,0.418,0,92,92,165,1,feestdag,images/br_feestdag.png,images/cb_feestdag.png,0,,,,,,,,,,,,,,,,,,,,,,
,,,,,,00017,2023-08-17_18h40.35.346,vbt_B2_day2,2022.2.4,MacIntel,62.5,,,,,,,,,,,,,,,,,,,,,,,,,,,down,0,2.901,,0.227173913,-0.075,1,0,0,0.551,0,93,93,15,1,soda,images/br_soda.png,images/cb_soda.png,0,,,,,,,,,,,,,,,,,,,,,,
,,,,,,00017,2023-08-17_18h40.35.346,vbt_B2_day2,2022.2.4,MacIntel,62.5,,,,,,,,,,,,,,,,,,,,,,,,,,,down,0,3.169,,0.227173913,-0.075,1,0,0,0.484,0,94,94,174,1,stemming,images/br_stemming.png,images/cb_stemming.png,0,,,,,,,,,,,,,,,,,,,,,,
,,,,,,00017,2023-08-17_18h40.35.346,vbt_B2_day2,2022.2.4,MacIntel,62.5,,,,,,,,,,,,,,,,,,,,,,,,,,,down,0,0.086,,0.227173913,-0.075,1,0,0,0.334,0,95,95,1,1,zaal,images/br_zaal.png,images/cb_zaal.png,0,,,,,,,,,,,,,,,,,,,,,,
,,,,,,00017,2023-08-17_18h40.35.346,vbt_B2_day2,2022.2.4,MacIntel,62.5,,,,,,,,,,,,,,,,,,,,,,,,,,,down,0,2.358,,0.227173913,-0.075,1,0,0,0.484,0,96,96,92,1,geheim,images/br_geheim.png,images/cb_geheim.png,0,,,,,,,,,,,,,,,,,,,,,,
,,,,,,00017,2023-08-17_18h40.35.346,vbt_B2_day2,2022.2.4,MacIntel,62.5,,,,,,,,,,,,,,,,,,,,,,,,,,,down,0,31.834,,0.227173913,-0.075,1,0,0,19.366,0,97,97,185,1,mijnheer,images/br_mijnheer.png,images/cb_mijnheer.png,0,,,,,,,,,,,,,,,,,,,,,,
,,,,,,00017,2023-08-17_18h40.35.346,vbt_B2_day2,2022.2.4,MacIntel,62.5,,,,,,,,,,,,,,,,,,,,,,,,,,,down,0,103.014,,0.227173913,-0.075,1,0,0,0.367,0,98,98,197,1,spanning,images/br_spanning.png,images/cb_spanning.png,0,,,,,,,,,,,,,,,,,,,,,,
,,,,,,00017,2023-08-17_18h40.35.346,vbt_B2_day2,2022.2.4,MacIntel,62.5,,,,,,,,,,,,,,,,,,,,,,,,,,,down,0,0.717,,0.227173913,-0.075,1,0,0,0.334,0,99,99,110,1,zuster,images/br_zuster.png,images/cb_zuster.png,0,,,,,,,,,,,,,,,,,,,,,,
,,,,,,00017,2023-08-17_18h40.35.346,vbt_B2_day2,2022.2.4,MacIntel,62.5,,,,,,,,,,,,,,,,,,,,,,,,,,,down,0,3.854,,0.227173913,-0.075,1,0,0,0.601,0,100,100,155,1,gerucht,images/br_gerucht.png,images/cb_gerucht.png,0,,,,,,,,,,,,,,,,,,,,,,
,,,,,,00017,2023-08-17_18h40.35.346,vbt_B2_day2,2022.2.4,MacIntel,62.5,,,,,,,,,,,,,,,,,,,,,,,,,,,down,0,2.401,,0.227173913,-0.075,1,0,0,0.3,0,101,101,184,1,aandelen,images/br_aandelen.png,images/cb_aandelen.png,0,,,,,,,,,,,,,,,,,,,,,,
,,,,,,00017,2023-08-17_18h40.35.346,vbt_B2_day2,2022.2.4,MacIntel,62.5,,,,,,,,,,,,,,,,,,,,,,,,,,,down,0,1.041,,0.227173913,-0.075,1,0,0,1.117,0,102,102,135,1,gedicht,images/br_gedicht.png,images/cb_gedicht.png,0,,,,,,,,,,,,,,,,,,,,,,
,,,,,,00017,2023-08-17_18h40.35.346,vbt_B2_day2,2022.2.4,MacIntel,62.5,,,,,,,,,,,,,,,,,,,,,,,,,,,down,0,9.851,,0.475,0.192391304,1,0,0,0.433,0,103,103,159,1,sufferd,images/br_sufferd.png,images/cb_sufferd.png,0,,,,,,,,,,,,,,,,,,,,,,
,,,,,,00017,2023-08-17_18h40.35.346,vbt_B2_day2,2022.2.4,MacIntel,62.5,,,,,,,,,,,,,,,,,,,,,,,,,,,down,0,5.023,,0.45326087,0.205434783,1,0,0,0.383,0,104,104,96,1,slagen,images/br_slagen.png,images/cb_slagen.png,1,slagen,,,,,,,,,,,,,,,,,,,,,
,,,,,,00017,2023-08-17_18h40.35.346,vbt_B2_day2,2022.2.4,MacIntel,62.5,,,,,,,,,,,,,,,,,,,,,,,,,,,down,0,2.054,,0.015217391,-0.138043478,1,0,0,0.35,0,105,105,148,1,smullen,images/br_smullen.png,images/cb_smullen.png,0,,,,,,,,,,,,,,,,,,,,,,
,,,,,,00017,2023-08-17_18h40.35.346,vbt_B2_day2,2022.2.4,MacIntel,62.5,,,,,,,,,,,,,,,,,,,,,,,,,,,down,0,5.018,,0.015217391,-0.138043478,1,0,0,0.434,0,106,106,123,1,hiervan,images/br_hiervan.png,images/cb_hiervan.png,0,,,,,,,,,,,,,,,,,,,,,,
,,,,,,00017,2023-08-17_18h40.35.346,vbt_B2_day2,2022.2.4,MacIntel,62.5,,,,,,,,,,,,,,,,,,,,,,,,,,,down,0,8.896,,0.015217391,-0.138043478,1,0,0,1.233,0,107,107,111,1,ticket,images/br_ticket.png,images/cb_ticket.png,0,,,,,,,,,,,,,,,,,,,,,,
,,,,,,00017,2023-08-17_18h40.35.346,vbt_B2_day2,2022.2.4,MacIntel,62.5,,,,,,,,,,,,,,,,,,,,,,,,,,,down,0,5.725,,0.015217391,-0.138043478,1,0,0,0.75,0,108,108,45,1,piste,images/br_piste.png,images/cb_piste.png,0,,,,,,,,,,,,,,,,,,,,,,
,,,,,,00017,2023-08-17_18h40.35.346,vbt_B2_day2,2022.2.4,MacIntel,62.5,,,,,,,,,,,,,,,,,,,,,,,,,,,down,0,0.206,,0.015217391,-0.138043478,1,0,0,0.4,0,109,109,50,1,stoom,images/br_stoom.png,images/cb_stoom.png,0,,,,,,,,,,,,,,,,,,,,,,
,,,,,,00017,2023-08-17_18h40.35.346,vbt_B2_day2,2022.2.4,MacIntel,62.5,,,,,,,,,,,,,,,,,,,,,,,,,,,down,0,8.223,,0.181521739,-0.032608696,1,0,0,0.467,0,110,110,137,1,trekker,images/br_trekker.png,images/cb_trekker.png,1,trekker,,,,,,,,,,,,,,,,,,,,,
,,,,,,00017,2023-08-17_18h40.35.346,vbt_B2_day2,2022.2.4,MacIntel,62.5,,,,,,,,,,,,,,,,,,,,,,,,,,,down,0,5.742,,0.141304348,-0.039130435,1,0,0,0.467,0,111,111,189,1,aanraden,images/br_aanraden.png,images/cb_aanraden.png,0,,,,,,,,,,,,,,,,,,,,,,
,,,,,,00017,2023-08-17_18h40.35.346,vbt_B2_day2,2022.2.4,MacIntel,62.5,,,,,,,,,,,,,,,,,,,,,,,,,,,down,0,3.814,,0.141304348,-0.039130435,1,0,0,0.468,0,112,112,127,1,doodmoe,images/br_doodmoe.png,images/cb_doodmoe.png,0,,,,,,,,,,,,,,,,,,,,,,
,,,,,,00017,2023-08-17_18h40.35.346,vbt_B2_day2,2022.2.4,MacIntel,62.5,,,,,,,,,,,,,,,,,,,,,,,,,,,down,0,3.782,,0.141304348,-0.039130435,1,0,0,0.5,0,113,113,38,1,baai,images/br_baai.png,images/cb_baai.png,0,,,,,,,,,,,,,,,,,,,,,,
,,,,,,00017,2023-08-17_18h40.35.346,vbt_B2_day2,2022.2.4,MacIntel,62.5,,,,,,,,,,,,,,,,,,,,,,,,,,,down,0,15.653,,0.142391304,-0.039130435,1,0,0,0.683,0,114,114,160,1,daarheen,images/br_daarheen.png,images/cb_daarheen.png,0,,,,,,,,,,,,,,,,,,,,,,
,,,,,,00017,2023-08-17_18h40.35.346,vbt_B2_day2,2022.2.4,MacIntel,62.5,,,,,,,,,,,,,,,,,,,,,,,,,,,down,0,1.756,,0.142391304,-0.039130435,1,0,0,0.366,0,115,115,86,1,woning,images/br_woning.png,images/cb_woning.png,0,,,,,,,,,,,,,,,,,,,,,,
,,,,,,00017,2023-08-17_18h40.35.346,vbt_B2_day2,2022.2.4,MacIntel,62.5,,,,,,,,,,,,,,,,,,,,,,,,,,,down,0,3.102,,0.142391304,-0.039130435,1,0,0,0.367,0,116,116,152,1,afnemen,images/br_afnemen.png,images/cb_afnemen.png,0,,,,,,,,,,,,,,,,,,,,,,
,,,,,,00017,2023-08-17_18h40.35.346,vbt_B2_day2,2022.2.4,MacIntel,62.5,,,,,,,,,,,,,,,,,,,,,,,,,,,down,0,4.233,,0.142391304,-0.039130435,1,0,0,0.417,0,117,117,169,1,oprotten,images/br_oprotten.png,images/cb_oprotten.png,0,,,,,,,,,,,,,,,,,,,,,,
,,,,,,00017,2023-08-17_18h40.35.346,vbt_B2_day2,2022.2.4,MacIntel,62.5,,,,,,,,,,,,,,,,,,,,,,,,,,,down,0,3.65,,0.142391304,-0.039130435,1,0,0,0.734,0,118,118,66,1,lever,images/br_lever.png,images/cb_lever.png,0,,,,,,,,,,,,,,,,,,,,,,
,,,,,,00017,2023-08-17_18h40.35.346,vbt_B2_day2,2022.2.4,MacIntel,62.5,,,,,,,,,,,,,,,,,,,,,,,,,,,down,0,3.052,,0.142391304,-0.039130435,1,0,0,0.4,0,119,119,120,1,klimmen,images/br_klimmen.png,images/cb_klimmen.png,0,,,,,,,,,,,,,,,,,,,,,,
,,,,,,00017,2023-08-17_18h40.35.346,vbt_B2_day2,2022.2.4,MacIntel,62.5,,,,,,,,,,,,,,,,,,,,,,,,,,,down,0,0.883,,0.142391304,-0.039130435,1,0,0,0.483,0,120,120,42,1,bleek,images/br_bleek.png,images/cb_bleek.png,0,,,,,,,,,,,,,,,,,,,,,,
,,,,,,00017,2023-08-17_18h40.35.346,vbt_B2_day2,2022.2.4,MacIntel,62.5,,,,,,,,,,,,,,,,,,,,,,,,,,,down,0,1.578,,0.142391304,-0.039130435,1,0,0,0.683,0,121,121,198,1,bedoelen,images/br_bedoelen.png,images/cb_bedoelen.png,0,,,,,,,,,,,,,,,,,,,,,,
,,,,,,00017,2023-08-17_18h40.35.346,vbt_B2_day2,2022.2.4,MacIntel,62.5,,,,,,,,,,,,,,,,,,,,,,,,,,,down,0,2.585,,0.259782609,0.040217391,1,0,0,0.417,0,122,122,192,1,schaamte,images/br_schaamte.png,images/cb_schaamte.png,0,,,,,,,,,,,,,,,,,,,,,,
,,,,,,00017,2023-08-17_18h40.35.346,vbt_B2_day2,2022.2.4,MacIntel,62.5,,,,,,,,,,,,,,,,,,,,,,,,,,,down,0,0.878,,0.259782609,0.040217391,1,0,0,0.45,0,123,123,115,1,kleren,images/br_kleren.png,images/cb_kleren.png,0,,,,,,,,,,,,,,,,,,,,,,
,,,,,,00017,2023-08-17_18h40.35.346,vbt_B2_day2,2022.2.4,MacIntel,62.5,,,,,,,,,,,,,,,,,,,,,,,,,,,down,0,1.434,,0.111956522,-0.05326087,1,0,0,0.817,0,124,124,53,1,baron,images/br_baron.png,images/cb_baron.png,0,,,,,,,,,,,,,,,,,,,,,,
,,,,,,00017,2023-08-17_18h40.35.346,vbt_B2_day2,2022.2.4,MacIntel,62.5,,,,,,,,,,,,,,,,,,,,,,,,,,,down,0,1.101,,0.131521739,-0.017391304,1,0,0,0.616,0,125,125,69,1,waken,images/br_waken.png,images/cb_waken.png,0,,,,,,,,,,,,,,,,,,,,,,
,,,,,,00017,2023-08-17_18h40.35.346,vbt_B2_day2,2022.2.4,MacIntel,62.5,,,,,,,,,,,,,,,,,,,,,,,,,,,down,0,0.917,,0.131521739,-0.017391304,1,0,0,0.668,0,126,126,73,1,volop,images/br_volop.png,images/cb_volop.png,0,,,,,,,,,,,,,,,,,,,,,,
,,,,,,00017,2023-08-17_18h40.35.346,vbt_B2_day2,2022.2.4,MacIntel,62.5,,,,,,,,,,,,,,,,,,,,,,,,,,,down,0,5.786,,0.131521739,-0.017391304,1,0,0,0.833,0,127,127,194,1,driemaal,images/br_driemaal.png,images/cb_driemaal.png,0,,,,,,,,,,,,,,,,,,,,,,
,,,,,,00017,2023-08-17_18h40.35.346,vbt_B2_day2,2022.2.4,MacIntel,62.5,,,,,,,,,,,,,,,,,,,,,,,,,,,down,0,6.2,,-0.160869565,-0.193478261,1,0,0,0.367,0,128,128,178,1,huisdier,images/br_huisdier.png,images/cb_huisdier.png,1,huisdier,,,,,,,,,,,,,,,,,,,,,
,,,,,,00017,2023-08-17_18h40.35.346,vbt_B2_day2,2022.2.4,MacIntel,62.5,,,,,,,,,,,,,,,,,,,,,,,,,,,down,0,2.588,,-0.015217391,-0.091304348,1,0,0,0.433,0,129,129,74,1,graaf,images/br_graaf.png,images/cb_graaf.png,0,,,,,,,,,,,,,,,,,,,,,,
,,,,,,00017,2023-08-17_18h40.35.346,vbt_B2_day2,2022.2.4,MacIntel,62.5,,,,,,,,,,,,,,,,,,,,,,,,,,,down,0,0.318,,0.117391304,-0.075,1,0,0,0.666,0,130,130,76,1,afval,images/br_afval.png,images/cb_afval.png,0,,,,,,,,,,,,,,,,,,,,,,
,,,,,,00017,2023-08-17_18h40.35.346,vbt_B2_day2,2022.2.4,MacIntel,62.5,,,,,,,,,,,,,,,,,,,,,,,,,,,down,0,2.216,,0.116304348,-0.075,1,0,0,0.85,0,131,131,59,1,kring,images/br_kring.png,images/cb_kring.png,1,kring,,,,,,,,,,,,,,,,,,,,,
,,,,,,00017,2023-08-17_18h40.35.346,vbt_B2_day2,2022.2.4,MacIntel,62.5,,,,,,,,,,,,,,,,,,,,,,,,,,,down,0,3.683,,0.20326087,-0.020652174,1,0,0,0.484,0,132,132,24,1,jurk,images/br_jurk.png,images/cb_jurk.png,0,,,,,,,,,,,,,,,,,,,,,,
,,,,,,00017,2023-08-17_18h40.35.346,vbt_B2_day2,2022.2.4,MacIntel,62.5,,,,,,,,,,,,,,,,,,,,,,,,,,,down,0,1.602,,0.20326087,-0.020652174,1,0,0,0.517,0,133,133,37,1,mijn,images/br_mijn.png,images/cb_mijn.png,0,,,,,,,,,,,,,,,,,,,,,,
,,,,,,00017,2023-08-17_18h40.35.346,vbt_B2_day2,2022.2.4,MacIntel,62.5,,,,,,,,,,,,,,,,,,,,,,,,,,,down,0,6.691,,0.20326087,-0.020652174,1,0,0,0.65,0,134,134,153,1,vervoer,images/br_vervoer.png,images/cb_vervoer.png,0,,,,,,,,,,,,,,,,,,,,,,
,,,,,,00017,2023-08-17_18h40.35.346,vbt_B2_day2,2022.2.4,MacIntel,62.5,,,,,,,,,,,,,,,,,,,,,,,,,,,down,0,0.467,,0.20326087,-0.020652174,1,0,0,0.683,0,135,135,118,1,vinger,images/br_vinger.png,images/cb_vinger.png,0,,,,,,,,,,,,,,,,,,,,,,
,,,,,,00017,2023-08-17_18h40.35.346,vbt_B2_day2,2022.2.4,MacIntel,62.5,,,,,,,,,,,,,,,,,,,,,,,,,,,down,0,1.574,,0.20326087,-0.020652174,1,0,0,1.183,0,136,136,199,1,beseffen,images/br_beseffen.png,images/cb_beseffen.png,0,,,,,,,,,,,,,,,,,,,,,,
,,,,,,00017,2023-08-17_18h40.35.346,vbt_B2_day2,2022.2.4,MacIntel,62.5,,,,,,,,,,,,,,,,,,,,,,,,,,,down,0,2.352,,0.20326087,-0.020652174,1,0,0,0.484,0,137,137,101,1,staren,images/br_staren.png,images/cb_staren.png,0,,,,,,,,,,,,,,,,,,,,,,
,,,,,,00017,2023-08-17_18h40.35.346,vbt_B2_day2,2022.2.4,MacIntel,62.5,,,,,,,,,,,,,,,,,,,,,,,,,,,down,0,1.871,,0.20326087,-0.020652174,1,0,0,0.467,0,138,138,51,1,samen,images/br_samen.png,images/cb_samen.png,0,,,,,,,,,,,,,,,,,,,,,,
,,,,,,00017,2023-08-17_18h40.35.346,vbt_B2_day2,2022.2.4,MacIntel,62.5,,,,,,,,,,,,,,,,,,,,,,,,,,,down,0,1.2,,0.189130435,-0.038043478,1,0,0,1.167,0,139,139,196,1,nakijken,images/br_nakijken.png,images/cb_nakijken.png,0,,,,,,,,,,,,,,,,,,,,,,
,,,,,,00017,2023-08-17_18h40.35.346,vbt_B2_day2,2022.2.4,MacIntel,62.5,,,,,,,,,,,,,,,,,,,,,,,,,,,down,0,0.987,,0.354347826,0.158695652,1,0,0,0.483,0,140,140,49,1,laken,images/br_laken.png,images/cb_laken.png,0,,,,,,,,,,,,,,,,,,,,,,
,,,,,,00017,2023-08-17_18h40.35.346,vbt_B2_day2,2022.2.4,MacIntel,62.5,,,,,,,,,,,,,,,,,,,,,,,,,,,down,0,1.618,,0.018478261,-0.009782609,1,0,0,0.534,0,141,141,102,1,legaal,images/br_legaal.png,images/cb_legaal.png,0,,,,,,,,,,,,,,,,,,,,,,
,,,,,,00017,2023-08-17_18h40.35.346,vbt_B2_day2,2022.2.4,MacIntel,62.5,,,,,,,,,,,,,,,,,,,,,,,,,,,down,0,0.178,,0.018478261,-0.009782609,1,0,0,0.399,0,142,142,82,1,muziek,images/br_muziek.png,images/cb_muziek.png,0,,,,,,,,,,,,,,,,,,,,,,
,,,,,,00017,2023-08-17_18h40.35.346,vbt_B2_day2,2022.2.4,MacIntel,62.5,,,,,,,,,,,,,,,,,,,,,,,,,,,down,0,0.301,,0.201086957,0.191304348,1,0,0,0.366,0,143,143,41,1,maken,images/br_maken.png,images/cb_maken.png,0,,,,,,,,,,,,,,,,,,,,,,
,,,,,,00017,2023-08-17_18h40.35.346,vbt_B2_day2,2022.2.4,MacIntel,62.5,,,,,,,,,,,,,,,,,,,,,,,,,,,down,0,0.517,,0.315217391,0.165217391,1,0,0,0.417,0,144,144,8,1,knie,images/br_knie.png,images/cb_knie.png,0,,,,,,,,,,,,,,,,,,,,,,
,,,,,,00017,2023-08-17_18h40.35.346,vbt_B2_day2,2022.2.4,MacIntel,62.5,,,,,,,,,,,,,,,,,,,,,,,,,,,down,0,1.371,,0.314130435,0.226086957,1,0,0,0.35,0,145,145,172,1,weigeren,images/br_weigeren.png,images/cb_weigeren.png,0,,,,,,,,,,,,,,,,,,,,,,
,,,,,,00017,2023-08-17_18h40.35.346,vbt_B2_day2,2022.2.4,MacIntel,62.5,,,,,,,,,,,,,,,,,,,,,,,,,,,down,0,0.524,,0.201086957,0.17173913,1,0,0,0.417,0,146,146,13,1,kaal,images/br_kaal.png,images/cb_kaal.png,0,,,,,,,,,,,,,,,,,,,,,,
,,,,,,00017,2023-08-17_18h40.35.346,vbt_B2_day2,2022.2.4,MacIntel,62.5,,,,,,,,,,,,,,,,,,,,,,,,,,,down,0,1.669,,0.256521739,0.239130435,1,0,0,0.384,0,147,147,146,1,opkomen,images/br_opkomen.png,images/cb_opkomen.png,0,,,,,,,,,,,,,,,,,,,,,,
,,,,,,00017,2023-08-17_18h40.35.346,vbt_B2_day2,2022.2.4,MacIntel,62.5,,,,,,,,,,,,,,,,,,,,,,,,,,,down,0,6.51,,0.189130435,0.104347826,1,0,0,0.35,0,148,148,180,1,openbaar,images/br_openbaar.png,images/cb_openbaar.png,0,,,,,,,,,,,,,,,,,,,,,,
,,,,,,00017,2023-08-17_18h40.35.346,vbt_B2_day2,2022.2.4,MacIntel,62.5,,,,,,,,,,,,,,,,,,,,,,,,,,,down,0,5.954,,0.139130435,-0.202173913,1,0,0,2.234,0,149,149,138,1,akkoord,images/br_akkoord.png,images/cb_akkoord.png,1,"akkoord
",,,,,,,,,,,,,,,,,,,,,
,,,,,,00017,2023-08-17_18h40.35.346,vbt_B2_day2,2022.2.4,MacIntel,62.5,,,,,,,,,,,,,,,,,,,,,,,,,,,down,0,3.151,,0.057608696,0.044565217,1,0,0,0.483,0,150,150,70,1,ijdel,images/br_ijdel.png,images/cb_ijdel.png,0,,,,,,,,,,,,,,,,,,,,,,
,,,,,,00017,2023-08-17_18h40.35.346,vbt_B2_day2,2022.2.4,MacIntel,62.5,,,,,,,,,,,,,,,,,,,,,,,,,,,down,0,0.155,,0.141304348,0.086956522,1,0,0,0.417,0,151,151,35,1,lust,images/br_lust.png,images/cb_lust.png,0,,,,,,,,,,,,,,,,,,,,,,
,,,,,,00017,2023-08-17_18h40.35.346,vbt_B2_day2,2022.2.4,MacIntel,62.5,,,,,,,,,,,,,,,,,,,,,,,,,,,down,0,3.084,,0.243478261,0.132608696,1,0,0,0.466,0,152,152,164,1,anarchie,images/br_anarchie.png,images/cb_anarchie.png,0,,,,,,,,,,,,,,,,,,,,,,
,,,,,,00017,2023-08-17_18h40.35.346,vbt_B2_day2,2022.2.4,MacIntel,62.5,,,,,,,,,,,,,,,,,,,,,,,,,,,down,0,1.91,,0.261956522,-0.006521739,1,0,0,0.334,0,153,153,56,1,traag,images/br_traag.png,images/cb_traag.png,1,traag,,,,,,,,,,,,,,,,,,,,,
,,,,,,00017,2023-08-17_18h40.35.346,vbt_B2_day2,2022.2.4,MacIntel,62.5,,,,,,,,,,,,,,,,,,,,,,,,,,,down,0,1.801,,0.261956522,-0.006521739,1,0,0,0.401,0,154,154,87,1,toeval,images/br_toeval.png,images/cb_toeval.png,0,,,,,,,,,,,,,,,,,,,,,,
,,,,,,00017,2023-08-17_18h40.35.346,vbt_B2_day2,2022.2.4,MacIntel,62.5,,,,,,,,,,,,,,,,,,,,,,,,,,,down,0,1.834,,0.247826087,0.022826087,1,0,0,0.282,0,155,155,55,1,praat,images/br_praat.png,images/cb_praat.png,0,,,,,,,,,,,,,,,,,,,,,,
,,,,,,00017,2023-08-17_18h40.35.346,vbt_B2_day2,2022.2.4,MacIntel,62.5,,,,,,,,,,,,,,,,,,,,,,,,,,,down,0,0.817,,0.248913043,0.022826087,1,0,0,0.384,0,156,156,25,1,plek,images/br_plek.png,images/cb_plek.png,0,,,,,,,,,,,,,,,,,,,,,,
,,,,,,00017,2023-08-17_18h40.35.346,vbt_B2_day2,2022.2.4,MacIntel,62.5,,,,,,,,,,,,,,,,,,,,,,,,,,,down,0,1.827,,0.210869565,0.061956522,1,0,0,0.417,0,157,157,80,1,kanjer,images/br_kanjer.png,images/cb_kanjer.png,0,,,,,,,,,,,,,,,,,,,,,,
,,,,,,00017,2023-08-17_18h40.35.346,vbt_B2_day2,2022.2.4,MacIntel,62.5,,,,,,,,,,,,,,,,,,,,,,,,,,,down,0,2.2,,0.210869565,0.061956522,1,0,0,0.35,0,158,158,187,1,opkijken,images/br_opkijken.png,images/cb_opkijken.png,0,,,,,,,,,,,,,,,,,,,,,,
,,,,,,00017,2023-08-17_18h40.35.346,vbt_B2_day2,2022.2.4,MacIntel,62.5,,,,,,,,,,,,,,,,,,,,,,,,,,,down,0,1.22,,0.210869565,0.061956522,1,0,0,0.367,0,159,159,18,1,blik,images/br_blik.png,images/cb_blik.png,1,blik,,,,,,,,,,,,,,,,,,,,,
,,,,,,00017,2023-08-17_18h40.35.346,vbt_B2_day2,2022.2.4,MacIntel,62.5,,,,,,,,,,,,,,,,,,,,,,,,,,,down,0,0.806,,0.30326087,0.141304348,1,0,0,0.617,0,160,160,84,1,lokken,images/br_lokken.png,images/cb_lokken.png,0,,,,,,,,,,,,,,,,,,,,,,
,,,,,,00017,2023-08-17_18h40.35.346,vbt_B2_day2,2022.2.4,MacIntel,62.5,,,,,,,,,,,,,,,,,,,,,,,,,,,down,0,3.917,,0.30326087,0.141304348,1,0,0,0.517,0,161,161,149,1,redding,images/br_redding.png,images/cb_redding.png,0,,,,,,,,,,,,,,,,,,,,,,
,,,,,,00017,2023-08-17_18h40.35.346,vbt_B2_day2,2022.2.4,MacIntel,62.5,,,,,,,,,,,,,,,,,,,,,,,,,,,down,0,1,,0.260869565,-0.106521739,1,0,0,0.5,0,162,162,7,1,geld,images/br_geld.png,images/cb_geld.png,0,,,,,,,,,,,,,,,,,,,,,,
,,,,,,00017,2023-08-17_18h40.35.346,vbt_B2_day2,2022.2.4,MacIntel,62.5,,,,,,,,,,,,,,,,,,,,,,,,,,,down,0,1.602,,0.334782609,-0.018478261,1,0,0,0.617,0,163,163,142,1,snuiven,images/br_snuiven.png,images/cb_snuiven.png,0,,,,,,,,,,,,,,,,,,,,,,
,,,,,,00017,2023-08-17_18h40.35.346,vbt_B2_day2,2022.2.4,MacIntel,62.5,,,,,,,,,,,,,,,,,,,,,,,,,,,down,0,1.47,,0.465217391,0.14673913,1,0,0,0.433,0,164,164,60,1,jasje,images/br_jasje.png,images/cb_jasje.png,0,,,,,,,,,,,,,,,,,,,,,,
,,,,,,00017,2023-08-17_18h40.35.346,vbt_B2_day2,2022.2.4,MacIntel,62.5,,,,,,,,,,,,,,,,,,,,,,,,,,,down,0,1.92,,0.263043478,0.093478261,1,0,0,0.433,0,165,165,158,1,innemen,images/br_innemen.png,images/cb_innemen.png,0,,,,,,,,,,,,,,,,,,,,,,
,,,,,,00017,2023-08-17_18h40.35.346,vbt_B2_day2,2022.2.4,MacIntel,62.5,,,,,,,,,,,,,,,,,,,,,,,,,,,down,0,1.829,,0.263043478,0.093478261,1,0,0,0.35,0,166,166,183,1,getuigen,images/br_getuigen.png,images/cb_getuigen.png,0,,,,,,,,,,,,,,,,,,,,,,
,,,,,,00017,2023-08-17_18h40.35.346,vbt_B2_day2,2022.2.4,MacIntel,62.5,,,,,,,,,,,,,,,,,,,,,,,,,,,down,0,2.624,,0.32173913,0.109782609,1,0,0,0.433,0,167,167,97,1,loyaal,images/br_loyaal.png,images/cb_loyaal.png,1,loyaal,,,,,,,,,,,,,,,,,,,,,
,,,,,,00017,2023-08-17_18h40.35.346,vbt_B2_day2,2022.2.4,MacIntel,62.5,,,,,,,,,,,,,,,,,,,,,,,,,,,down,0,1.002,,0.406521739,0.15,1,0,0,0.367,0,168,168,19,1,geit,images/br_geit.png,images/cb_geit.png,1,geit,,,,,,,,,,,,,,,,,,,,,
,,,,,,00017,2023-08-17_18h40.35.346,vbt_B2_day2,2022.2.4,MacIntel,62.5,,,,,,,,,,,,,,,,,,,,,,,,,,,down,0,1.858,,0.426086957,0.158695652,1,0,0,1.484,0,169,169,47,1,kabel,images/br_kabel.png,images/cb_kabel.png,0,,,,,,,,,,,,,,,,,,,,,,
,,,,,,00017,2023-08-17_18h40.35.346,vbt_B2_day2,2022.2.4,MacIntel,62.5,,,,,,,,,,,,,,,,,,,,,,,,,,,down,0,1.144,,0.426086957,0.158695652,1,0,0,0.3,0,170,170,52,1,wagon,images/br_wagon.png,images/cb_wagon.png,0,,,,,,,,,,,,,,,,,,,,,,
,,,,,,00017,2023-08-17_18h40.35.346,vbt_B2_day2,2022.2.4,MacIntel,62.5,,,,,,,,,,,,,,,,,,,,,,,,,,,down,0,3.868,,0.40326087,0.186956522,1,0,0,0.55,0,171,171,44,1,flits,images/br_flits.png,images/cb_flits.png,0,,,,,,,,,,,,,,,,,,,,,,
,,,,,,00017,2023-08-17_18h40.35.346,vbt_B2_day2,2022.2.4,MacIntel,62.5,,,,,,,,,,,,,,,,,,,,,,,,,,,down,0,0.468,,0.40326087,0.186956522,1,0,0,0.365,0,172,172,28,1,stal,images/br_stal.png,images/cb_stal.png,0,,,,,,,,,,,,,,,,,,,,,,
,,,,,,00017,2023-08-17_18h40.35.346,vbt_B2_day2,2022.2.4,MacIntel,62.5,,,,,,,,,,,,,,,,,,,,,,,,,,,down,0,0.523,,0.40326087,0.186956522,1,0,0,0.4,0,173,173,114,1,vullen,images/br_vullen.png,images/cb_vullen.png,0,,,,,,,,,,,,,,,,,,,,,,
,,,,,,00017,2023-08-17_18h40.35.346,vbt_B2_day2,2022.2.4,MacIntel,62.5,,,,,,,,,,,,,,,,,,,,,,,,,,,down,0,0.205,,0.40326087,0.186956522,1,0,0,0.416,0,174,174,30,1,uien,images/br_uien.png,images/cb_uien.png,0,,,,,,,,,,,,,,,,,,,,,,
,,,,,,00017,2023-08-17_18h40.35.346,vbt_B2_day2,2022.2.4,MacIntel,62.5,,,,,,,,,,,,,,,,,,,,,,,,,,,down,0,6.087,,0.40326087,0.186956522,1,0,0,0.767,0,175,175,161,1,attentie,images/br_attentie.png,images/cb_attentie.png,0,,,,,,,,,,,,,,,,,,,,,,
,,,,,,00017,2023-08-17_18h40.35.346,vbt_B2_day2,2022.2.4,MacIntel,62.5,,,,,,,,,,,,,,,,,,,,,,,,,,,down,0,2.718,,0.40326087,0.186956522,1,0,0,0.399,0,176,176,81,1,dubbel,images/br_dubbel.png,images/cb_dubbel.png,0,,,,,,,,,,,,,,,,,,,,,,
,,,,,,00017,2023-08-17_18h40.35.346,vbt_B2_day2,2022.2.4,MacIntel,62.5,,,,,,,,,,,,,,,,,,,,,,,,,,,down,0,1.852,,0.40326087,0.186956522,1,0,0,0.749,0,177,177,143,1,hechten,images/br_hechten.png,images/cb_hechten.png,0,,,,,,,,,,,,,,,,,,,,,,
,,,,,,00017,2023-08-17_18h40.35.346,vbt_B2_day2,2022.2.4,MacIntel,62.5,,,,,,,,,,,,,,,,,,,,,,,,,,,down,0,2.252,,0.40326087,0.186956522,1,0,0,0.584,0,178,178,171,1,aarzelen,images/br_aarzelen.png,images/cb_aarzelen.png,0,,,,,,,,,,,,,,,,,,,,,,
,,,,,,00017,2023-08-17_18h40.35.346,vbt_B2_day2,2022.2.4,MacIntel,62.5,,,,,,,,,,,,,,,,,,,,,,,,,,,down,0,2.42,,0.40326087,0.186956522,1,0,0,0.367,0,179,179,105,1,wijlen,images/br_wijlen.png,images/cb_wijlen.png,0,,,,,,,,,,,,,,,,,,,,,,
,,,,,,00017,2023-08-17_18h40.35.346,vbt_B2_day2,2022.2.4,MacIntel,62.5,,,,,,,,,,,,,,,,,,,,,,,,,,,down,0,0.507,,0.40326087,0.186956522,1,0,0,0.382,0,180,180,48,1,steel,images/br_steel.png,images/cb_steel.png,0,,,,,,,,,,,,,,,,,,,,,,
,,,,,,00017,2023-08-17_18h40.35.346,vbt_B2_day2,2022.2.4,MacIntel,62.5,,,,,,,,,,,,,,,,,,,,,,,,,,,down,0,0.223,,0.40326087,0.186956522,1,0,0,0.368,0,181,181,40,1,schep,images/br_schep.png,images/cb_schep.png,0,,,,,,,,,,,,,,,,,,,,,,
,,,,,,00017,2023-08-17_18h40.35.346,vbt_B2_day2,2022.2.4,MacIntel,62.5,,,,,,,,,,,,,,,,,,,,,,,,,,,down,0,0.034,,0.40326087,0.186956522,1,0,0,0.417,0,182,182,36,1,vuur,images/br_vuur.png,images/cb_vuur.png,0,,,,,,,,,,,,,,,,,,,,,,
,,,,,,00017,2023-08-17_18h40.35.346,vbt_B2_day2,2022.2.4,MacIntel,62.5,,,,,,,,,,,,,,,,,,,,,,,,,,,down,0,0.335,,0.40326087,0.186956522,1,0,0,0.384,0,183,183,63,1,flirt,images/br_flirt.png,images/cb_flirt.png,0,,,,,,,,,,,,,,,,,,,,,,
,,,,,,00017,2023-08-17_18h40.35.346,vbt_B2_day2,2022.2.4,MacIntel,62.5,,,,,,,,,,,,,,,,,,,,,,,,,,,down,0,0.907,,0.40326087,0.186956522,1,0,0,0.318,0,184,184,126,1,kasteel,images/br_kasteel.png,images/cb_kasteel.png,0,,,,,,,,,,,,,,,,,,,,,,
,,,,,,00017,2023-08-17_18h40.35.346,vbt_B2_day2,2022.2.4,MacIntel,62.5,,,,,,,,,,,,,,,,,,,,,,,,,,,down,0,2.001,,0.40326087,0.186956522,1,0,0,0.466,0,185,185,134,1,geliefd,images/br_geliefd.png,images/cb_geliefd.png,0,,,,,,,,,,,,,,,,,,,,,,
,,,,,,00017,2023-08-17_18h40.35.346,vbt_B2_day2,2022.2.4,MacIntel,62.5,,,,,,,,,,,,,,,,,,,,,,,,,,,down,0,1.302,,0.40326087,0.186956522,1,0,0,0.367,0,186,186,2,1,jaar,images/br_jaar.png,images/cb_jaar.png,0,,,,,,,,,,,,,,,,,,,,,,
,,,,,,00017,2023-08-17_18h40.35.346,vbt_B2_day2,2022.2.4,MacIntel,62.5,,,,,,,,,,,,,,,,,,,,,,,,,,,down,0,0.866,,0.40326087,0.186956522,1,0,0,0.384,0,187,187,23,1,zout,images/br_zout.png,images/cb_zout.png,0,,,,,,,,,,,,,,,,,,,,,,
,,,,,,00017,2023-08-17_18h40.35.346,vbt_B2_day2,2022.2.4,MacIntel,62.5,,,,,,,,,,,,,,,,,,,,,,,,,,,down,0,2.421,,0.40326087,0.186956522,1,0,0,0.316,0,188,188,157,1,uitlaat,images/br_uitlaat.png,images/cb_uitlaat.png,0,,,,,,,,,,,,,,,,,,,,,,
,,,,,,00017,2023-08-17_18h40.35.346,vbt_B2_day2,2022.2.4,MacIntel,62.5,,,,,,,,,,,,,,,,,,,,,,,,,,,down,0,1.737,,0.40326087,0.186956522,1,0,0,0.367,0,189,189,6,1,diep,images/br_diep.png,images/cb_diep.png,0,,,,,,,,,,,,,,,,,,,,,,
,,,,,,00017,2023-08-17_18h40.35.346,vbt_B2_day2,2022.2.4,MacIntel,62.5,,,,,,,,,,,,,,,,,,,,,,,,,,,down,0,1.092,,0.40326087,0.186956522,1,0,0,0.416,0,190,190,9,1,hier,images/br_hier.png,images/cb_hier.png,0,,,,,,,,,,,,,,,,,,,,,,
,,,,,,00017,2023-08-17_18h40.35.346,vbt_B2_day2,2022.2.4,MacIntel,62.5,,,,,,,,,,,,,,,,,,,,,,,,,,,down,0,0.867,,0.40326087,0.186956522,1,0,0,0.316,0,191,191,61,1,groen,images/br_groen.png,images/cb_groen.png,0,,,,,,,,,,,,,,,,,,,,,,
,,,,,,00017,2023-08-17_18h40.35.346,vbt_B2_day2,2022.2.4,MacIntel,62.5,,,,,,,,,,,,,,,,,,,,,,,,,,,down,0,2.761,,0.40326087,0.186956522,1,0,0,0.516,0,192,192,167,1,eenhoorn,images/br_eenhoorn.png,images/cb_eenhoorn.png,0,,,,,,,,,,,,,,,,,,,,,,
,,,,,,00017,2023-08-17_18h40.35.346,vbt_B2_day2,2022.2.4,MacIntel,62.5,,,,,,,,,,,,,,,,,,,,,,,,,,,down,0,3.67,,0.40326087,0.186956522,1,0,0,0.483,0,193,193,177,1,maaltijd,images/br_maaltijd.png,images/cb_maaltijd.png,1,maaltijd,,,,,,,,,,,,,,,,,,,,,
,,,,,,00017,2023-08-17_18h40.35.346,vbt_B2_day2,2022.2.4,MacIntel,62.5,,,,,,,,,,,,,,,,,,,,,,,,,,,down,0,1.742,,0.459782609,0.230434783,1,0,0,1.4,0,194,194,173,1,apparaat,images/br_apparaat.png,images/cb_apparaat.png,0,,,,,,,,,,,,,,,,,,,,,,
,,,,,,00017,2023-08-17_18h40.35.346,vbt_B2_day2,2022.2.4,MacIntel,62.5,,,,,,,,,,,,,,,,,,,,,,,,,,,down,0,2.054,,0.459782609,0.230434783,1,0,0,0.416,0,195,195,58,1,tekst,images/br_tekst.png,images/cb_tekst.png,1,tekst,,,,,,,,,,,,,,,,,,,,,
,,,,,,00017,2023-08-17_18h40.35.346,vbt_B2_day2,2022.2.4,MacIntel,62.5,,,,,,,,,,,,,,,,,,,,,,,,,,,down,0,3.867,,0.080434783,-0.094565217,1,0,0,0.499,0,196,196,89,1,slapen,images/br_slapen.png,images/cb_slapen.png,0,,,,,,,,,,,,,,,,,,,,,,
,,,,,,00017,2023-08-17_18h40.35.346,vbt_B2_day2,2022.2.4,MacIntel,62.5,,,,,,,,,,,,,,,,,,,,,,,,,,,down,0,2.581,,-0.063043478,-0.022826087,1,0,0,0.434,0,197,197,144,1,eetlust,images/br_eetlust.png,images/cb_eetlust.png,0,,,,,,,,,,,,,,,,,,,,,,
,,,,,,00017,2023-08-17_18h40.35.346,vbt_B2_day2,2022.2.4,MacIntel,62.5,,,,,,,,,,,,,,,,,,,,,,,,,,,down,0,3.06,,-0.055434783,0,1,0,0,0.366,0,198,198,151,1,aanzoek,images/br_aanzoek.png,images/cb_aanzoek.png,0,,,,,,,,,,,,,,,,,,,,,,
,,,,,,00017,2023-08-17_18h40.35.346,vbt_B2_day2,2022.2.4,MacIntel,62.5,,,,,,,,,,,,,,,,,,,,,,,,,,,down,0,2.994,,0.013043478,-0.036956522,1,0,0,0.633,0,199,199,93,1,waarop,images/br_waarop.png,images/cb_waarop.png,0,,,,,,,,,,,,,,,,,,,,,,
,,,,,,00017,2023-08-17_18h40.35.346,vbt_B2_day2,2022.2.4,MacIntel,62.5,,,,,,,,,,,,,,,,,,,,,,,,,,,,,,,,,,,,,,,,,,,,,,,0.013043478,-0.036956522,1,0,0,,,,,,,,,,,,,,,,
,,,,,,00017,2023-08-17_18h40.35.346,vbt_B2_day2,2022.2.4,MacIntel,62.5,,,,,,,,,,,,,,,,,,,,,,,,,,,,,,,,,,,,,,,,,,,,,,,,,,,,0.05,0.027173913,1,0,0,,,,,,,,,,,
,,,,,,00017,2023-08-17_18h40.35.346,vbt_B2_day2,2022.2.4,MacIntel,62.5,,,,,,,,,,,,,,,,,,,,,,,,,,,,,,,,,,,,,,,,,,piste,images/br_piste.png,images/cb_piste.png,,piste,,,,,,,,,,,0.202173913,0.234782609,1,0,0,piste,0,0,0,5,1
,,,,,,00017,2023-08-17_18h40.35.346,vbt_B2_day2,2022.2.4,MacIntel,62.5,,,,,,,,,,,,,,,,,,,,,,,,,,,,,,,,,,,,,,,,,,jagen,images/br_jagen.png,images/cb_jagen.png,,jagen,,,,,,,,,,,0.139130435,0.132608696,1,0,0,jagen,0,1,1,6,1
,,,,,,00017,2023-08-17_18h40.35.346,vbt_B2_day2,2022.2.4,MacIntel,62.5,,,,,,,,,,,,,,,,,,,,,,,,,,,,,,,,,,,,,,,,,,diep,images/br_diep.png,images/cb_diep.png,,diep,,,,,,,,,,,0.201086957,0.304347826,1,0,0,diep,0,2,2,2,1
,,,,,,00017,2023-08-17_18h40.35.346,vbt_B2_day2,2022.2.4,MacIntel,62.5,,,,,,,,,,,,,,,,,,,,,,,,,,,,,,,,,,,,,,,,,,kabel,images/br_kabel.png,images/cb_kabel.png,,kabel,,,,,,,,,,,0.185869565,0.089130435,1,0,0,kabel,0,3,3,7,1
,,,,,,00017,2023-08-17_18h40.35.346,vbt_B2_day2,2022.2.4,MacIntel,62.5,,,,,,,,,,,,,,,,,,,,,,,,,,,,,,,,,,,,,,,,,,geld,images/br_geld.png,images/cb_geld.png,,geld,,,,,,,,,,,0.194565217,0.10326087,1,0,0,geld,0,4,4,3,1
,,,,,,00017,2023-08-17_18h40.35.346,vbt_B2_day2,2022.2.4,MacIntel,62.5,,,,,,,,,,,,,,,,,,,,,,,,,,,,,,,,,,,,,,,,,,negel,images/br_negel.png,images/cb_negel.png,,negel,,,,,,,,,,,0.051086957,0.218478261,1,0,0,negel,0,5,5,24,1
,,,,,,00017,2023-08-17_18h40.35.346,vbt_B2_day2,2022.2.4,MacIntel,62.5,,,,,,,,,,,,,,,,,,,,,,,,,,,,,,,,,,,,,,,,,,doodmoe,images/br_doodmoe.png,images/cb_doodmoe.png,,doodmoe,,,,,,,,,,,0.05326087,0.067391304,1,0,0,doodmoe,0,6,6,15,1
,,,,,,00017,2023-08-17_18h40.35.346,vbt_B2_day2,2022.2.4,MacIntel,62.5,,,,,,,,,,,,,,,,,,,,,,,,,,,,,,,,,,,,,,,,,,welzijn,images/br_welzijn.png,images/cb_welzijn.png,,welzijn,,,,,,,,,,,0.081521739,0.342391304,1,0,0,welzijn,0,7,7,52,1
,,,,,,00017,2023-08-17_18h40.35.346,vbt_B2_day2,2022.2.4,MacIntel,62.5,,,,,,,,,,,,,,,,,,,,,,,,,,,,,,,,,,,,,,,,,,aanvraag,images/br_aanvraag.png,images/cb_aanvraag.png,,aanslag,,,,,,,,,,,0.009782609,-0.213043478,1,0,0,aanslag,0,8,8,57,1
,,,,,,00017,2023-08-17_18h40.35.346,vbt_B2_day2,2022.2.4,MacIntel,62.5,,,,,,,,,,,,,,,,,,,,,,,,,,,,,,,,,,,,,,,,,,trots,images/br_trots.png,images/cb_trots.png,,trots,,,,,,,,,,,0.057608696,-0.064130435,1,0,0,trots,0,9,9,44,1
,,,,,,00017,2023-08-17_18h40.35.346,vbt_B2_day2,2022.2.4,MacIntel,62.5,,,,,,,,,,,,,,,,,,,,,,,,,,,,,,,,,,,,,,,,,,breuk,images/br_breuk.png,images/cb_breuk.png,,breuk,,,,,,,,,,,0.110869565,0.276086957,1,0,0,breuk,0,10,10,45,1
,,,,,,00017,2023-08-17_18h40.35.346,vbt_B2_day2,2022.2.4,MacIntel,62.5,,,,,,,,,,,,,,,,,,,,,,,,,,,,,,,,,,,,,,,,,,manieren,images/br_manieren.png,images/cb_manieren.png,,manieren,,,,,,,,,,,0.00326087,0.147826087,1,0,0,manieren,0,11,11,56,1
,,,,,,00017,2023-08-17_18h40.35.346,vbt_B2_day2,2022.2.4,MacIntel,62.5,,,,,,,,,,,,,,,,,,,,,,,,,,,,,,,,,,,,,,,,,,koorts,images/br_koorts.png,images/cb_koorts.png,,koorts,,,,,,,,,,,0.22173913,0.109782609,1,0,0,koorts,0,12,12,50,1
,,,,,,00017,2023-08-17_18h40.35.346,vbt_B2_day2,2022.2.4,MacIntel,62.5,,,,,,,,,,,,,,,,,,,,,,,,,,,,,,,,,,,,,,,,,,ningen,images/br_ningen.png,images/cb_ningen.png,,ningen,,,,,,,,,,,0.126086957,-0.019565217,1,0,0,ningen,0,13,13,28,1
,,,,,,00017,2023-08-17_18h40.35.346,vbt_B2_day2,2022.2.4,MacIntel,62.5,,,,,,,,,,,,,,,,,,,,,,,,,,,,,,,,,,,,,,,,,,systeem,images/br_systeem.png,images/cb_systeem.png,,systeem,,,,,,,,,,,0.189130435,0.156521739,1,0,0,systeem,0,14,14,54,1
,,,,,,00017,2023-08-17_18h40.35.346,vbt_B2_day2,2022.2.4,MacIntel,62.5,,,,,,,,,,,,,,,,,,,,,,,,,,,,,,,,,,,,,,,,,,thema,images/br_thema.png,images/cb_thema.png,,thema,,,,,,,,,,,0.236956522,0.139130435,1,0,0,thema,0,15,15,47,1
,,,,,,00017,2023-08-17_18h40.35.346,vbt_B2_day2,2022.2.4,MacIntel,62.5,,,,,,,,,,,,,,,,,,,,,,,,,,,,,,,,,,,,,,,,,,tweeling,images/br_tweeling.png,images/cb_tweeling.png,,tweeling,,,,,,,,,,,0.182608696,0.489130435,1,0,0,tweeling,0,16,16,58,1
,,,,,,00017,2023-08-17_18h40.35.346,vbt_B2_day2,2022.2.4,MacIntel,62.5,,,,,,,,,,,,,,,,,,,,,,,,,,,,,,,,,,,,,,,,,,kasteel,images/br_kasteel.png,images/cb_kasteel.png,,kasteel,,,,,,,,,,,0.165217391,0.226086957,1,0,0,kasteel,0,17,17,14,1
,,,,,,00017,2023-08-17_18h40.35.346,vbt_B2_day2,2022.2.4,MacIntel,62.5,,,,,,,,,,,,,,,,,,,,,,,,,,,,,,,,,,,,,,,,,,wijve,images/br_wijve.png,images/cb_wijve.png,,wijze,,,,,,,,,,,0.170652174,0.256521739,1,0,0,wijze,0,18,18,27,1
,,,,,,00017,2023-08-17_18h40.35.346,vbt_B2_day2,2022.2.4,MacIntel,62.5,,,,,,,,,,,,,,,,,,,,,,,,,,,,,,,,,,,,,,,,,,badon,images/br_badon.png,images/cb_badon.png,,bado.,,,,,,,,,,,0.148913043,0.27826087,1,0,0,bado.,0,19,19,26,1
,,,,,,00017,2023-08-17_18h40.35.346,vbt_B2_day2,2022.2.4,MacIntel,62.5,,,,,,,,,,,,,,,,,,,,,,,,,,,,,,,,,,,,,,,,,,anarchie,images/br_anarchie.png,images/cb_anarchie.png,,anarchie,,,,,,,,,,,0.113043478,0.270652174,1,0,0,anarchie,0,20,20,16,1
,,,,,,00017,2023-08-17_18h40.35.346,vbt_B2_day2,2022.2.4,MacIntel,62.5,,,,,,,,,,,,,,,,,,,,,,,,,,,,,,,,,,,,,,,,,,zomers,images/br_zomers.png,images/cb_zomers.png,,zomers,,,,,,,,,,,0.179347826,0.22173913,1,0,0,zomers,0,21,21,48,1
,,,,,,00017,2023-08-17_18h40.35.346,vbt_B2_day2,2022.2.4,MacIntel,62.5,,,,,,,,,,,,,,,,,,,,,,,,,,,,,,,,,,,,,,,,,,flits,images/br_flits.png,images/cb_flits.png,,flets,,,,,,,,,,,0.110869565,0.238043478,1,0,0,flets,0,22,22,4,1
,,,,,,00017,2023-08-17_18h40.35.346,vbt_B2_day2,2022.2.4,MacIntel,62.5,,,,,,,,,,,,,,,,,,,,,,,,,,,,,,,,,,,,,,,,,,agressie,images/br_agressie.png,images/cb_agressie.png,,agressie,,,,,,,,,,,0.042391304,0.133695652,1,0,0,agressie,0,23,23,59,1
,,,,,,00017,2023-08-17_18h40.35.346,vbt_B2_day2,2022.2.4,MacIntel,62.5,,,,,,,,,,,,,,,,,,,,,,,,,,,,,,,,,,,,,,,,,,krimmen,images/br_krimmen.png,images/cb_krimmen.png,,krimmen,,,,,,,,,,,-0.002173913,0.04673913,1,0,0,krimmen,0,24,24,35,1
,,,,,,00017,2023-08-17_18h40.35.346,vbt_B2_day2,2022.2.4,MacIntel,62.5,,,,,,,,,,,,,,,,,,,,,,,,,,,,,,,,,,,,,,,,,,sifferd,images/br_sifferd.png,images/cb_sifferd.png,,sufferd,,,,,,,,,,,0.02173913,0.15,1,0,0,sufferd,0,25,25,32,1
,,,,,,00017,2023-08-17_18h40.35.346,vbt_B2_day2,2022.2.4,MacIntel,62.5,,,,,,,,,,,,,,,,,,,,,,,,,,,,,,,,,,,,,,,,,,clan,images/br_clan.png,images/cb_clan.png,,"cla,",,,,,,,,,,,0.006521739,0.270652174,1,0,0,"cla,",0,26,26,40,1
,,,,,,00017,2023-08-17_18h40.35.346,vbt_B2_day2,2022.2.4,MacIntel,62.5,,,,,,,,,,,,,,,,,,,,,,,,,,,,,,,,,,,,,,,,,,remel,images/br_remel.png,images/cb_remel.png,,remel,,,,,,,,,,,0,0.195652174,1,0,0,remel,0,27,27,25,1
,,,,,,00017,2023-08-17_18h40.35.346,vbt_B2_day2,2022.2.4,MacIntel,62.5,,,,,,,,,,,,,,,,,,,,,,,,,,,,,,,,,,,,,,,,,,zegel,images/br_zegel.png,images/cb_zegel.png,,zegel,,,,,,,,,,,0.029347826,0.123913043,1,0,0,zegel,0,28,28,46,1
,,,,,,00017,2023-08-17_18h40.35.346,vbt_B2_day2,2022.2.4,MacIntel,62.5,,,,,,,,,,,,,,,,,,,,,,,,,,,,,,,,,,,,,,,,,,zwager,images/br_zwager.png,images/cb_zwager.png,,zwager,,,,,,,,,,,0.095652174,-0.02826087,1,0,0,zwager,0,29,29,49,1
,,,,,,00017,2023-08-17_18h40.35.346,vbt_B2_day2,2022.2.4,MacIntel,62.5,,,,,,,,,,,,,,,,,,,,,,,,,,,,,,,,,,,,,,,,,,heengeen,images/br_heengeen.png,images/cb_heengeen.png,,heengee.,,,,,,,,,,,0.131521739,0.223913043,1,0,0,heengee.,0,30,30,38,1
,,,,,,00017,2023-08-17_18h40.35.346,vbt_B2_day2,2022.2.4,MacIntel,62.5,,,,,,,,,,,,,,,,,,,,,,,,,,,,,,,,,,,,,,,,,,tand,images/br_tand.png,images/cb_tand.png,,tan..,,,,,,,,,,,0.131521739,0.223913043,1,0,0,tan..,0,31,31,42,1
,,,,,,00017,2023-08-17_18h40.35.346,vbt_B2_day2,2022.2.4,MacIntel,62.5,,,,,,,,,,,,,,,,,,,,,,,,,,,,,,,,,,,,,,,,,,sora,images/br_sora.png,images/cb_sora.png,,sora,,,,,,,,,,,0.069565217,0.214130435,1,0,0,sora,0,32,32,22,1
,,,,,,00017,2023-08-17_18h40.35.346,vbt_B2_day2,2022.2.4,MacIntel,62.5,,,,,,,,,,,,,,,,,,,,,,,,,,,,,,,,,,,,,,,,,,jong,images/br_jong.png,images/cb_jong.png,,zong,,,,,,,,,,,0.085869565,0.315217391,1,0,0,zong,0,33,33,43,1
,,,,,,00017,2023-08-17_18h40.35.346,vbt_B2_day2,2022.2.4,MacIntel,62.5,,,,,,,,,,,,,,,,,,,,,,,,,,,,,,,,,,,,,,,,,,lijnen,images/br_lijnen.png,images/cb_lijnen.png,,lejn..,,,,,,,,,,,0.089130435,0.241304348,1,0,0,lejn..,0,34,34,51,1
,,,,,,00017,2023-08-17_18h40.35.346,vbt_B2_day2,2022.2.4,MacIntel,62.5,,,,,,,,,,,,,,,,,,,,,,,,,,,,,,,,,,,,,,,,,,eenhoorn,images/br_eenhoorn.png,images/cb_eenhoorn.png,,eenhoorn,,,,,,,,,,,0.161956522,0.370652174,1,0,0,eenhoorn,0,35,35,19,1
,,,,,,00017,2023-08-17_18h40.35.346,vbt_B2_day2,2022.2.4,MacIntel,62.5,,,,,,,,,,,,,,,,,,,,,,,,,,,,,,,,,,,,,,,,,,aanzien,images/br_aanzien.png,images/cb_aanzien.png,,aanzien,,,,,,,,,,,0.297826087,0.266304348,1,0,0,aanzien,0,36,36,13,1
,,,,,,00017,2023-08-17_18h40.35.346,vbt_B2_day2,2022.2.4,MacIntel,62.5,,,,,,,,,,,,,,,,,,,,,,,,,,,,,,,,,,,,,,,,,,strikken,images/br_strikken.png,images/cb_strikken.png,,strikken,,,,,,,,,,,0.077173913,0.091304348,1,0,0,strikken,0,37,37,18,1
,,,,,,00017,2023-08-17_18h40.35.346,vbt_B2_day2,2022.2.4,MacIntel,62.5,,,,,,,,,,,,,,,,,,,,,,,,,,,,,,,,,,,,,,,,,,sjijfel,images/br_sjijfel.png,images/cb_sjijfel.png,,sji...,,,,,,,,,,,0.044565217,0.223913043,1,0,0,sji...,0,38,38,33,1
,,,,,,00017,2023-08-17_18h40.35.346,vbt_B2_day2,2022.2.4,MacIntel,62.5,,,,,,,,,,,,,,,,,,,,,,,,,,,,,,,,,,,,,,,,,,bloeien,images/br_bloeien.png,images/cb_bloeien.png,,bloeien,,,,,,,,,,,0.060869565,0.163043478,1,0,0,bloeien,0,39,39,12,1
,,,,,,00017,2023-08-17_18h40.35.346,vbt_B2_day2,2022.2.4,MacIntel,62.5,,,,,,,,,,,,,,,,,,,,,,,,,,,,,,,,,,,,,,,,,,lokken,images/br_lokken.png,images/cb_lokken.png,,lokken,,,,,,,,,,,0.058695652,0.140217391,1,0,0,lokken,0,40,40,8,1
,,,,,,00017,2023-08-17_18h40.35.346,vbt_B2_day2,2022.2.4,MacIntel,62.5,,,,,,,,,,,,,,,,,,,,,,,,,,,,,,,,,,,,,,,,,,prekken,images/br_prekken.png,images/cb_prekken.png,,trekken,,,,,,,,,,,-0.040217391,-0.197826087,1,0,0,trekken,0,41,41,34,1
,,,,,,00017,2023-08-17_18h40.35.346,vbt_B2_day2,2022.2.4,MacIntel,62.5,,,,,,,,,,,,,,,,,,,,,,,,,,,,,,,,,,,,,,,,,,ophuimen,images/br_ophuimen.png,images/cb_ophuimen.png,,oph...,,,,,,,,,,,0.008695652,0.17826087,1,0,0,oph...,0,42,42,36,1
,,,,,,00017,2023-08-17_18h40.35.346,vbt_B2_day2,2022.2.4,MacIntel,62.5,,,,,,,,,,,,,,,,,,,,,,,,,,,,,,,,,,,,,,,,,,lurgen,images/br_lurgen.png,images/cb_lurgen.png,,lurgen,,,,,,,,,,,0.034782609,0.183695652,1,0,0,lurgen,0,43,43,29,1
,,,,,,00017,2023-08-17_18h40.35.346,vbt_B2_day2,2022.2.4,MacIntel,62.5,,,,,,,,,,,,,,,,,,,,,,,,,,,,,,,,,,,,,,,,,,plannen,images/br_plannen.png,images/cb_plannen.png,,plannen,,,,,,,,,,,0.1,0.023913043,1,0,0,plannen,0,44,44,55,1
,,,,,,00017,2023-08-17_18h40.35.346,vbt_B2_day2,2022.2.4,MacIntel,62.5,,,,,,,,,,,,,,,,,,,,,,,,,,,,,,,,,,,,,,,,,,toeval,images/br_toeval.png,images/cb_toeval.png,,toeval,,,,,,,,,,,0.17173913,0.161956522,1,0,0,toeval,0,45,45,11,1
,,,,,,00017,2023-08-17_18h40.35.346,vbt_B2_day2,2022.2.4,MacIntel,62.5,,,,,,,,,,,,,,,,,,,,,,,,,,,,,,,,,,,,,,,,,,moes,images/br_moes.png,images/cb_moes.png,,moes,,,,,,,,,,,0.094565217,0.079347826,1,0,0,moes,0,46,46,0,1
,,,,,,00017,2023-08-17_18h40.35.346,vbt_B2_day2,2022.2.4,MacIntel,62.5,,,,,,,,,,,,,,,,,,,,,,,,,,,,,,,,,,,,,,,,,,blad,images/br_blad.png,images/cb_blad.png,,blad,,,,,,,,,,,-0.00326087,0.163043478,1,0,0,blad,0,47,47,1,1
,,,,,,00017,2023-08-17_18h40.35.346,vbt_B2_day2,2022.2.4,MacIntel,62.5,,,,,,,,,,,,,,,,,,,,,,,,,,,,,,,,,,,,,,,,,,kenzis,images/br_kenzis.png,images/cb_kenzis.png,,kenzis,,,,,,,,,,,0.068478261,0.008695652,1,0,0,kenzis,0,48,48,30,1
,,,,,,00017,2023-08-17_18h40.35.346,vbt_B2_day2,2022.2.4,MacIntel,62.5,,,,,,,,,,,,,,,,,,,,,,,,,,,,,,,,,,,,,,,,,,dode,images/br_dode.png,images/cb_dode.png,,dode,,,,,,,,,,,0.127173913,0.129347826,1,0,0,dode,0,49,49,41,1
,,,,,,00017,2023-08-17_18h40.35.346,vbt_B2_day2,2022.2.4,MacIntel,62.5,,,,,,,,,,,,,,,,,,,,,,,,,,,,,,,,,,,,,,,,,,inzicht,images/br_inzicht.png,images/cb_inzicht.png,,inzicht,,,,,,,,,,,0.15326087,0.084782609,1,0,0,inzicht,0,50,50,53,1
,,,,,,00017,2023-08-17_18h40.35.346,vbt_B2_day2,2022.2.4,MacIntel,62.5,,,,,,,,,,,,,,,,,,,,,,,,,,,,,,,,,,,,,,,,,,goon,images/br_goon.png,images/cb_goon.png,,goon,,,,,,,,,,,0.144565217,0.193478261,1,0,0,goon,0,51,51,23,1
,,,,,,00017,2023-08-17_18h40.35.346,vbt_B2_day2,2022.2.4,MacIntel,62.5,,,,,,,,,,,,,,,,,,,,,,,,,,,,,,,,,,,,,,,,,,woning,images/br_woning.png,images/cb_woning.png,,woning,,,,,,,,,,,0.117391304,0.079347826,1,0,0,woning,0,52,52,10,1
,,,,,,00017,2023-08-17_18h40.35.346,vbt_B2_day2,2022.2.4,MacIntel,62.5,,,,,,,,,,,,,,,,,,,,,,,,,,,,,,,,,,,,,,,,,,kijlen,images/br_kijlen.png,images/cb_kijlen.png,,kijlen,,,,,,,,,,,0.052173913,-0.040217391,1,0,0,kijlen,0,53,53,31,1
,,,,,,00017,2023-08-17_18h40.35.346,vbt_B2_day2,2022.2.4,MacIntel,62.5,,,,,,,,,,,,,,,,,,,,,,,,,,,,,,,,,,,,,,,,,,heilig,images/br_heilig.png,images/cb_heilig.png,,heilig,,,,,,,,,,,0.24673913,0.17173913,1,0,0,heilig,0,54,54,9,1
,,,,,,00017,2023-08-17_18h40.35.346,vbt_B2_day2,2022.2.4,MacIntel,62.5,,,,,,,,,,,,,,,,,,,,,,,,,,,,,,,,,,,,,,,,,,opdatten,images/br_opdatten.png,images/cb_opdatten.png,,opdatt..,,,,,,,,,,,0.3,0.219565217,1,0,0,opdatt..,0,55,55,37,1
,,,,,,00017,2023-08-17_18h40.35.346,vbt_B2_day2,2022.2.4,MacIntel,62.5,,,,,,,,,,,,,,,,,,,,,,,,,,,,,,,,,,,,,,,,,,stes,images/br_stes.png,images/cb_stes.png,,.,,,,,,,,,,,0.058695652,-0.023913043,1,0,0,.,0,56,56,21,1
,,,,,,00017,2023-08-17_18h40.35.346,vbt_B2_day2,2022.2.4,MacIntel,62.5,,,,,,,,,,,,,,,,,,,,,,,,,,,,,,,,,,,,,,,,,,joes,images/br_joes.png,images/cb_joes.png,,joes,,,,,,,,,,,0.118478261,0.20326087,1,0,0,joes,0,57,57,20,1
,,,,,,00017,2023-08-17_18h40.35.346,vbt_B2_day2,2022.2.4,MacIntel,62.5,,,,,,,,,,,,,,,,,,,,,,,,,,,,,,,,,,,,,,,,,,bereuwen,images/br_bereuwen.png,images/cb_bereuwen.png,,bereuw..,,,,,,,,,,,0.125,0.004347826,1,0,0,bereuw..,0,58,58,39,1
,,,,,,00017,2023-08-17_18h40.35.346,vbt_B2_day2,2022.2.4,MacIntel,62.5,,,,,,,,,,,,,,,,,,,,,,,,,,,,,,,,,,,,,,,,,,feestdag,images/br_feestdag.png,images/cb_feestdag.png,,fee...,,,,,,,,,,,0.135869565,0.177173913,1,0,0,fee...,0,59,59,17,1
,,,,,,00017,2023-08-17_18h40.35.346,vbt_B2_day2,2022.2.4,MacIntel,62.5,,,,,,,,,,,,,,,,,,,,,,,,,,,,,,,,,,,,,,,,,,,,,,,,,,,,,,,,,,,,,,,,,,,
