welcome_mouse.x,welcome_mouse.y,welcome_mouse.leftButton,welcome_mouse.midButton,welcome_mouse.rightButton,welcome_mouse.time,"ID",date,expName,psychopyVersion,OS,frameRate,refresh_mouse.x,refresh_mouse.y,refresh_mouse.leftButton,refresh_mouse.midButton,refresh_mouse.rightButton,refresh_mouse.time,braille_mouse.x,braille_mouse.y,braille_mouse.leftButton,braille_mouse.midButton,braille_mouse.rightButton,braille_mouse.time,trials.thisRepN,trials.thisTrialN,trials.thisN,trials.thisIndex,trials.ran,nlLet,brLet,cbLet,trainInstr_mouse.x,trainInstr_mouse.y,trainInstr_mouse.leftButton,trainInstr_mouse.midButton,trainInstr_mouse.rightButton,trainInstr_mouse.time,translation_key.keys,translation_key.corr,translation_key.rt,testResp,word_rsp.text,word_mouse.x,word_mouse.y,word_mouse.leftButton,word_mouse.midButton,word_mouse.rightButton,word_mouse.time,train_loop.thisRepN,train_loop.thisTrialN,train_loop.thisN,train_loop.thisIndex,train_loop.ran,nlWrd,brWrd,cbWrd,test,mouse.x,mouse.y,mouse.leftButton,mouse.midButton,mouse.rightButton,testInstr_mouse.x,testInstr_mouse.y,testInstr_mouse.leftButton,testInstr_mouse.midButton,testInstr_mouse.rightButton,test_mouse.x,test_mouse.y,test_mouse.leftButton,test_mouse.midButton,test_mouse.rightButton,test_response.text,test_loop.thisRepN,test_loop.thisTrialN,test_loop.thisN,test_loop.thisIndex,test_loop.ran
-0.194444444,-0.274305556,1,0,0,4.5339,00114,2023-12-08_23h28.35.524,vbt_B2_day2,2022.2.4,Win32,47.92485383,,,,,,,,,,,,,,,,,,,,,,,,,,,,,,,,,,,,,,,,,,,,,,,,,,,,,,,,,,,,,,,,,,,
,,,,,,00114,2023-12-08_23h28.35.524,vbt_B2_day2,2022.2.4,Win32,47.92485383,-0.194444444,-0.274305556,1,0,0,14.8063,,,,,,,,,,,,,,,,,,,,,,,,,,,,,,,,,,,,,,,,,,,,,,,,,,,,,,,,,,,,,
,,,,,,00114,2023-12-08_23h28.35.524,vbt_B2_day2,2022.2.4,Win32,47.92485383,,,,,,,-0.194444444,-0.274305556,1,0,0,1.7508,0,0,0,17,1,r,images/br_r.png,images/cb_r.png,,,,,,,,,,,,,,,,,,,,,,,,,,,,,,,,,,,,,,,,,,,,,,,
,,,,,,00114,2023-12-08_23h28.35.524,vbt_B2_day2,2022.2.4,Win32,47.92485383,,,,,,,-0.194444444,-0.274305556,1,0,0,1.9039,0,1,1,8,1,i,images/br_i.png,images/cb_i.png,,,,,,,,,,,,,,,,,,,,,,,,,,,,,,,,,,,,,,,,,,,,,,,
,,,,,,00114,2023-12-08_23h28.35.524,vbt_B2_day2,2022.2.4,Win32,47.92485383,,,,,,,-0.194444444,-0.274305556,1,0,0,0.5624,0,2,2,21,1,v,images/br_v.png,images/cb_v.png,,,,,,,,,,,,,,,,,,,,,,,,,,,,,,,,,,,,,,,,,,,,,,,
,,,,,,00114,2023-12-08_23h28.35.524,vbt_B2_day2,2022.2.4,Win32,47.92485383,,,,,,,-0.194444444,-0.274305556,1,0,0,0.4798,0,3,3,1,1,b,images/br_b.png,images/cb_b.png,,,,,,,,,,,,,,,,,,,,,,,,,,,,,,,,,,,,,,,,,,,,,,,
,,,,,,00114,2023-12-08_23h28.35.524,vbt_B2_day2,2022.2.4,Win32,47.92485383,,,,,,,-0.194444444,-0.274305556,1,0,0,0.0544,0,4,4,6,1,g,images/br_g.png,images/cb_g.png,,,,,,,,,,,,,,,,,,,,,,,,,,,,,,,,,,,,,,,,,,,,,,,
,,,,,,00114,2023-12-08_23h28.35.524,vbt_B2_day2,2022.2.4,Win32,47.92485383,,,,,,,-0.194444444,-0.274305556,1,0,0,2.3889,0,5,5,4,1,e,images/br_e.png,images/cb_e.png,,,,,,,,,,,,,,,,,,,,,,,,,,,,,,,,,,,,,,,,,,,,,,,
,,,,,,00114,2023-12-08_23h28.35.524,vbt_B2_day2,2022.2.4,Win32,47.92485383,,,,,,,-0.194444444,-0.274305556,1,0,0,0.1258,0,6,6,0,1,a,images/br_a.png,images/cb_a.png,,,,,,,,,,,,,,,,,,,,,,,,,,,,,,,,,,,,,,,,,,,,,,,
,,,,,,00114,2023-12-08_23h28.35.524,vbt_B2_day2,2022.2.4,Win32,47.92485383,,,,,,,-0.194444444,-0.274305556,1,0,0,0.4796,0,7,7,10,1,k,images/br_k.png,images/cb_k.png,,,,,,,,,,,,,,,,,,,,,,,,,,,,,,,,,,,,,,,,,,,,,,,
,,,,,,00114,2023-12-08_23h28.35.524,vbt_B2_day2,2022.2.4,Win32,47.92485383,,,,,,,-0.194444444,-0.274305556,1,0,0,0.1993,0,8,8,9,1,j,images/br_j.png,images/cb_j.png,,,,,,,,,,,,,,,,,,,,,,,,,,,,,,,,,,,,,,,,,,,,,,,
,,,,,,00114,2023-12-08_23h28.35.524,vbt_B2_day2,2022.2.4,Win32,47.92485383,,,,,,,-0.194444444,-0.274305556,1,0,0,5.6054,0,9,9,7,1,h,images/br_h.png,images/cb_h.png,,,,,,,,,,,,,,,,,,,,,,,,,,,,,,,,,,,,,,,,,,,,,,,
,,,,,,00114,2023-12-08_23h28.35.524,vbt_B2_day2,2022.2.4,Win32,47.92485383,,,,,,,-0.194444444,-0.274305556,1,0,0,0.2492,0,10,10,20,1,u,images/br_u.png,images/cb_u.png,,,,,,,,,,,,,,,,,,,,,,,,,,,,,,,,,,,,,,,,,,,,,,,
,,,,,,00114,2023-12-08_23h28.35.524,vbt_B2_day2,2022.2.4,Win32,47.92485383,,,,,,,-0.194444444,-0.274305556,1,0,0,0.1467,0,11,11,12,1,m,images/br_m.png,images/cb_m.png,,,,,,,,,,,,,,,,,,,,,,,,,,,,,,,,,,,,,,,,,,,,,,,
,,,,,,00114,2023-12-08_23h28.35.524,vbt_B2_day2,2022.2.4,Win32,47.92485383,,,,,,,-0.194444444,-0.274305556,1,0,0,0.3751,0,12,12,2,1,c,images/br_c.png,images/cb_c.png,,,,,,,,,,,,,,,,,,,,,,,,,,,,,,,,,,,,,,,,,,,,,,,
,,,,,,00114,2023-12-08_23h28.35.524,vbt_B2_day2,2022.2.4,Win32,47.92485383,,,,,,,-0.194444444,-0.274305556,1,0,0,0.2919,0,13,13,11,1,l,images/br_l.png,images/cb_l.png,,,,,,,,,,,,,,,,,,,,,,,,,,,,,,,,,,,,,,,,,,,,,,,
,,,,,,00114,2023-12-08_23h28.35.524,vbt_B2_day2,2022.2.4,Win32,47.92485383,,,,,,,-0.194444444,-0.274305556,1,0,0,0.6457,0,14,14,18,1,s,images/br_s.png,images/cb_s.png,,,,,,,,,,,,,,,,,,,,,,,,,,,,,,,,,,,,,,,,,,,,,,,
,,,,,,00114,2023-12-08_23h28.35.524,vbt_B2_day2,2022.2.4,Win32,47.92485383,,,,,,,-0.194444444,-0.274305556,1,0,0,0.1046,0,15,15,3,1,d,images/br_d.png,images/cb_d.png,,,,,,,,,,,,,,,,,,,,,,,,,,,,,,,,,,,,,,,,,,,,,,,
,,,,,,00114,2023-12-08_23h28.35.524,vbt_B2_day2,2022.2.4,Win32,47.92485383,,,,,,,-0.194444444,-0.274305556,1,0,0,0.0212,0,16,16,25,1,z,images/br_z.png,images/cb_z.png,,,,,,,,,,,,,,,,,,,,,,,,,,,,,,,,,,,,,,,,,,,,,,,
,,,,,,00114,2023-12-08_23h28.35.524,vbt_B2_day2,2022.2.4,Win32,47.92485383,,,,,,,-0.194444444,-0.274305556,1,0,0,1.187,0,17,17,15,1,p,images/br_p.png,images/cb_p.png,,,,,,,,,,,,,,,,,,,,,,,,,,,,,,,,,,,,,,,,,,,,,,,
,,,,,,00114,2023-12-08_23h28.35.524,vbt_B2_day2,2022.2.4,Win32,47.92485383,,,,,,,-0.194444444,-0.274305556,1,0,0,1.2506,0,18,18,5,1,f,images/br_f.png,images/cb_f.png,,,,,,,,,,,,,,,,,,,,,,,,,,,,,,,,,,,,,,,,,,,,,,,
,,,,,,00114,2023-12-08_23h28.35.524,vbt_B2_day2,2022.2.4,Win32,47.92485383,,,,,,,-0.194444444,-0.274305556,1,0,0,0.1667,0,19,19,19,1,t,images/br_t.png,images/cb_t.png,,,,,,,,,,,,,,,,,,,,,,,,,,,,,,,,,,,,,,,,,,,,,,,
,,,,,,00114,2023-12-08_23h28.35.524,vbt_B2_day2,2022.2.4,Win32,47.92485383,,,,,,,-0.194444444,-0.274305556,1,0,0,0.271,0,20,20,22,1,w,images/br_w.png,images/cb_w.png,,,,,,,,,,,,,,,,,,,,,,,,,,,,,,,,,,,,,,,,,,,,,,,
,,,,,,00114,2023-12-08_23h28.35.524,vbt_B2_day2,2022.2.4,Win32,47.92485383,,,,,,,-0.194444444,-0.274305556,1,0,0,0.1668,0,21,21,16,1,q,images/br_q.png,images/cb_q.png,,,,,,,,,,,,,,,,,,,,,,,,,,,,,,,,,,,,,,,,,,,,,,,
,,,,,,00114,2023-12-08_23h28.35.524,vbt_B2_day2,2022.2.4,Win32,47.92485383,,,,,,,-0.194444444,-0.274305556,1,0,0,0.292,0,22,22,14,1,o,images/br_o.png,images/cb_o.png,,,,,,,,,,,,,,,,,,,,,,,,,,,,,,,,,,,,,,,,,,,,,,,
,,,,,,00114,2023-12-08_23h28.35.524,vbt_B2_day2,2022.2.4,Win32,47.92485383,,,,,,,-0.194444444,-0.274305556,1,0,0,0.4577,0,23,23,23,1,x,images/br_x.png,images/cb_x.png,,,,,,,,,,,,,,,,,,,,,,,,,,,,,,,,,,,,,,,,,,,,,,,
,,,,,,00114,2023-12-08_23h28.35.524,vbt_B2_day2,2022.2.4,Win32,47.92485383,,,,,,,-0.194444444,-0.274305556,1,0,0,2.8962,0,24,24,24,1,y,images/br_y.png,images/cb_y.png,,,,,,,,,,,,,,,,,,,,,,,,,,,,,,,,,,,,,,,,,,,,,,,
,,,,,,00114,2023-12-08_23h28.35.524,vbt_B2_day2,2022.2.4,Win32,47.92485383,,,,,,,-0.194444444,-0.274305556,1,0,0,0.479,0,25,25,13,1,n,images/br_n.png,images/cb_n.png,,,,,,,,,,,,,,,,,,,,,,,,,,,,,,,,,,,,,,,,,,,,,,,
,,,,,,00114,2023-12-08_23h28.35.524,vbt_B2_day2,2022.2.4,Win32,47.92485383,,,,,,,,,,,,,,,,,,,,,-0.244444444,-0.350694444,1,0,0,34.245,,,,,,,,,,,,,,,,,,,,,,,,,,,,,,,,,,,,,,,,,
,,,,,,00114,2023-12-08_23h28.35.524,vbt_B2_day2,2022.2.4,Win32,47.92485383,,,,,,,,,,,,,,,,,,,,,,,,,,,down,0,10.7564,tekst,,-0.291666667,-0.355555556,1,0,0,4.595,0,0,0,58,1,tekst,images/br_tekst.png,images/cb_tekst.png,1,,,,,,,,,,,,,,,,,,,,,
,,,,,,00114,2023-12-08_23h28.35.524,vbt_B2_day2,2022.2.4,Win32,47.92485383,,,,,,,,,,,,,,,,,,,,,,,,,,,down,0,11.5226,,,0.044444444,-0.338194444,1,0,0,1.4374,0,1,1,14,1,rijp,images/br_rijp.png,images/cb_rijp.png,0,,,,,,,,,,,,,,,,,,,,,
,,,,,,00114,2023-12-08_23h28.35.524,vbt_B2_day2,2022.2.4,Win32,47.92485383,,,,,,,,,,,,,,,,,,,,,,,,,,,down,0,8.1054,,,0.044444444,-0.338194444,1,0,0,1.9165,0,2,2,80,1,kanjer,images/br_kanjer.png,images/cb_kanjer.png,0,,,,,,,,,,,,,,,,,,,,,
,,,,,,00114,2023-12-08_23h28.35.524,vbt_B2_day2,2022.2.4,Win32,47.92485383,,,,,,,,,,,,,,,,,,,,,,,,,,,down,0,4.589,,,0.044444444,-0.338194444,1,0,0,0.7293,0,3,3,161,1,attentie,images/br_attentie.png,images/cb_attentie.png,0,,,,,,,,,,,,,,,,,,,,,
,,,,,,00114,2023-12-08_23h28.35.524,vbt_B2_day2,2022.2.4,Win32,47.92485383,,,,,,,,,,,,,,,,,,,,,,,,,,,down,0,8.8552,trekker,,0.044444444,-0.338194444,1,0,0,2.1542,0,4,4,137,1,trekker,images/br_trekker.png,images/cb_trekker.png,1,,,,,,,,,,,,,,,,,,,,,
,,,,,,00114,2023-12-08_23h28.35.524,vbt_B2_day2,2022.2.4,Win32,47.92485383,,,,,,,,,,,,,,,,,,,,,,,,,,,down,0,4.3642,,,0.044444444,-0.338194444,1,0,0,1.0212,0,5,5,35,1,lust,images/br_lust.png,images/cb_lust.png,0,,,,,,,,,,,,,,,,,,,,,
,,,,,,00114,2023-12-08_23h28.35.524,vbt_B2_day2,2022.2.4,Win32,47.92485383,,,,,,,,,,,,,,,,,,,,,,,,,,,down,0,6.1485,,,0.044444444,-0.338194444,1,0,0,0.8534,0,6,6,166,1,strikken,images/br_strikken.png,images/cb_strikken.png,0,,,,,,,,,,,,,,,,,,,,,
,,,,,,00114,2023-12-08_23h28.35.524,vbt_B2_day2,2022.2.4,Win32,47.92485383,,,,,,,,,,,,,,,,,,,,,,,,,,,down,0,2.7085,giet,,0.048611111,-0.366666667,1,0,0,5.6462,0,7,7,19,1,geit,images/br_geit.png,images/cb_geit.png,1,,,,,,,,,,,,,,,,,,,,,
,,,,,,00114,2023-12-08_23h28.35.524,vbt_B2_day2,2022.2.4,Win32,47.92485383,,,,,,,,,,,,,,,,,,,,,,,,,,,down,0,3.7128,slagen,,0.048611111,-0.366666667,1,0,0,0.8956,0,8,8,96,1,slagen,images/br_slagen.png,images/cb_slagen.png,1,,,,,,,,,,,,,,,,,,,,,
,,,,,,00114,2023-12-08_23h28.35.524,vbt_B2_day2,2022.2.4,Win32,47.92485383,,,,,,,,,,,,,,,,,,,,,,,,,,,down,0,3.2817,,,0.048611111,-0.366666667,1,0,0,0.7075,0,9,9,41,1,maken,images/br_maken.png,images/cb_maken.png,0,,,,,,,,,,,,,,,,,,,,,
,,,,,,00114,2023-12-08_23h28.35.524,vbt_B2_day2,2022.2.4,Win32,47.92485383,,,,,,,,,,,,,,,,,,,,,,,,,,,down,0,3.7303,,,0.048611111,-0.366666667,1,0,0,2.6038,0,10,10,186,1,voorraad,images/br_voorraad.png,images/cb_voorraad.png,0,,,,,,,,,,,,,,,,,,,,,
,,,,,,00114,2023-12-08_23h28.35.524,vbt_B2_day2,2022.2.4,Win32,47.92485383,,,,,,,,,,,,,,,,,,,,,,,,,,,down,0,2.8131,,,0.048611111,-0.366666667,1,0,0,0.6669,0,11,11,112,1,lukken,images/br_lukken.png,images/cb_lukken.png,0,,,,,,,,,,,,,,,,,,,,,
,,,,,,00114,2023-12-08_23h28.35.524,vbt_B2_day2,2022.2.4,Win32,47.92485383,,,,,,,,,,,,,,,,,,,,,,,,,,,down,0,3.231,akkoord,,0.048611111,-0.366666667,1,0,0,0.7708,0,12,12,138,1,akkoord,images/br_akkoord.png,images/cb_akkoord.png,1,,,,,,,,,,,,,,,,,,,,,
,,,,,,00114,2023-12-08_23h28.35.524,vbt_B2_day2,2022.2.4,Win32,47.92485383,,,,,,,,,,,,,,,,,,,,,,,,,,,down,0,6.0018,,,0.048611111,-0.366666667,1,0,0,0.5828,0,13,13,163,1,schuilen,images/br_schuilen.png,images/cb_schuilen.png,0,,,,,,,,,,,,,,,,,,,,,
,,,,,,00114,2023-12-08_23h28.35.524,vbt_B2_day2,2022.2.4,Win32,47.92485383,,,,,,,,,,,,,,,,,,,,,,,,,,,down,0,6.0477,,,0.048611111,-0.366666667,1,0,0,0.804,0,14,14,76,1,afval,images/br_afval.png,images/cb_afval.png,0,,,,,,,,,,,,,,,,,,,,,
,,,,,,00114,2023-12-08_23h28.35.524,vbt_B2_day2,2022.2.4,Win32,47.92485383,,,,,,,,,,,,,,,,,,,,,,,,,,,down,0,3.1894,,,0.048611111,-0.366666667,1,0,0,0.9995,0,15,15,85,1,heilig,images/br_heilig.png,images/cb_heilig.png,0,,,,,,,,,,,,,,,,,,,,,
,,,,,,00114,2023-12-08_23h28.35.524,vbt_B2_day2,2022.2.4,Win32,47.92485383,,,,,,,,,,,,,,,,,,,,,,,,,,,down,0,4.4054,,,0.048611111,-0.366666667,1,0,0,0.6456,0,16,16,116,1,besmet,images/br_besmet.png,images/cb_besmet.png,0,,,,,,,,,,,,,,,,,,,,,
,,,,,,00114,2023-12-08_23h28.35.524,vbt_B2_day2,2022.2.4,Win32,47.92485383,,,,,,,,,,,,,,,,,,,,,,,,,,,down,0,1.4028,,,0.048611111,-0.366666667,1,0,0,0.5202,0,17,17,148,1,smullen,images/br_smullen.png,images/cb_smullen.png,0,,,,,,,,,,,,,,,,,,,,,
,,,,,,00114,2023-12-08_23h28.35.524,vbt_B2_day2,2022.2.4,Win32,47.92485383,,,,,,,,,,,,,,,,,,,,,,,,,,,down,0,7.255,,,0.048611111,-0.366666667,1,0,0,13.8334,0,18,18,124,1,bloeien,images/br_bloeien.png,images/cb_bloeien.png,0,,,,,,,,,,,,,,,,,,,,,
,,,,,,00114,2023-12-08_23h28.35.524,vbt_B2_day2,2022.2.4,Win32,47.92485383,,,,,,,,,,,,,,,,,,,,,,,,,,,down,0,5.0425,,,0.048611111,-0.366666667,1,0,0,1.5204,0,19,19,170,1,schatten,images/br_schatten.png,images/cb_schatten.png,0,,,,,,,,,,,,,,,,,,,,,
,,,,,,00114,2023-12-08_23h28.35.524,vbt_B2_day2,2022.2.4,Win32,47.92485383,,,,,,,,,,,,,,,,,,,,,,,,,,,down,0,10.7309,,,0.048611111,-0.366666667,1,0,0,0.5415,0,20,20,81,1,dubbel,images/br_dubbel.png,images/cb_dubbel.png,0,,,,,,,,,,,,,,,,,,,,,
,,,,,,00114,2023-12-08_23h28.35.524,vbt_B2_day2,2022.2.4,Win32,47.92485383,,,,,,,,,,,,,,,,,,,,,,,,,,,down,0,20.9024,,,0.048611111,-0.366666667,1,0,0,0.8334,0,21,21,134,1,geliefd,images/br_geliefd.png,images/cb_geliefd.png,0,,,,,,,,,,,,,,,,,,,,,
,,,,,,00114,2023-12-08_23h28.35.524,vbt_B2_day2,2022.2.4,Win32,47.92485383,,,,,,,,,,,,,,,,,,,,,,,,,,,down,0,1.6778,,,0.048611111,-0.366666667,1,0,0,0.5416,0,22,22,68,1,schat,images/br_schat.png,images/cb_schat.png,0,,,,,,,,,,,,,,,,,,,,,
,,,,,,00114,2023-12-08_23h28.35.524,vbt_B2_day2,2022.2.4,Win32,47.92485383,,,,,,,,,,,,,,,,,,,,,,,,,,,down,0,4.189,,,0.054166667,-0.379166667,1,0,0,1.2296,0,23,23,60,1,jasje,images/br_jasje.png,images/cb_jasje.png,0,,,,,,,,,,,,,,,,,,,,,
,,,,,,00114,2023-12-08_23h28.35.524,vbt_B2_day2,2022.2.4,Win32,47.92485383,,,,,,,,,,,,,,,,,,,,,,,,,,,down,0,4.028,,,0.054166667,-0.379166667,1,0,0,1.5826,0,24,24,174,1,stemming,images/br_stemming.png,images/cb_stemming.png,0,,,,,,,,,,,,,,,,,,,,,
,,,,,,00114,2023-12-08_23h28.35.524,vbt_B2_day2,2022.2.4,Win32,47.92485383,,,,,,,,,,,,,,,,,,,,,,,,,,,down,0,1.3551,,,0.052083333,-0.377777778,1,0,0,0.6253,0,25,25,26,1,leuk,images/br_leuk.png,images/cb_leuk.png,0,,,,,,,,,,,,,,,,,,,,,
,,,,,,00114,2023-12-08_23h28.35.524,vbt_B2_day2,2022.2.4,Win32,47.92485383,,,,,,,,,,,,,,,,,,,,,,,,,,,down,0,8.6467,,,0.052083333,-0.377777778,1,0,0,1.2701,0,26,26,194,1,driemaal,images/br_driemaal.png,images/cb_driemaal.png,0,,,,,,,,,,,,,,,,,,,,,
,,,,,,00114,2023-12-08_23h28.35.524,vbt_B2_day2,2022.2.4,Win32,47.92485383,,,,,,,,,,,,,,,,,,,,,,,,,,,down,0,1.4713,,,0.052083333,-0.377777778,1,0,0,0.8127,0,27,27,12,1,kust,images/br_kust.png,images/cb_kust.png,0,,,,,,,,,,,,,,,,,,,,,
,,,,,,00114,2023-12-08_23h28.35.524,vbt_B2_day2,2022.2.4,Win32,47.92485383,,,,,,,,,,,,,,,,,,,,,,,,,,,down,0,2.5439,,,0.052083333,-0.377777778,1,0,0,0.687,0,28,28,53,1,baron,images/br_baron.png,images/cb_baron.png,0,,,,,,,,,,,,,,,,,,,,,
,,,,,,00114,2023-12-08_23h28.35.524,vbt_B2_day2,2022.2.4,Win32,47.92485383,,,,,,,,,,,,,,,,,,,,,,,,,,,down,0,4.1066,,,0.052083333,-0.377777778,1,0,0,0.6455,0,29,29,140,1,blijven,images/br_blijven.png,images/cb_blijven.png,0,,,,,,,,,,,,,,,,,,,,,
,,,,,,00114,2023-12-08_23h28.35.524,vbt_B2_day2,2022.2.4,Win32,47.92485383,,,,,,,,,,,,,,,,,,,,,,,,,,,down,0,6.0248,,,0.052083333,-0.377777778,1,0,0,0.562,0,30,30,135,1,gedicht,images/br_gedicht.png,images/cb_gedicht.png,0,,,,,,,,,,,,,,,,,,,,,
,,,,,,00114,2023-12-08_23h28.35.524,vbt_B2_day2,2022.2.4,Win32,47.92485383,,,,,,,,,,,,,,,,,,,,,,,,,,,down,0,1.1785,,,0.052083333,-0.377777778,1,0,0,0.5628,0,31,31,9,1,hier,images/br_hier.png,images/cb_hier.png,0,,,,,,,,,,,,,,,,,,,,,
,,,,,,00114,2023-12-08_23h28.35.524,vbt_B2_day2,2022.2.4,Win32,47.92485383,,,,,,,,,,,,,,,,,,,,,,,,,,,down,0,1.6678,,,0.052083333,-0.377777778,1,0,0,0.6252,0,32,32,25,1,plek,images/br_plek.png,images/cb_plek.png,0,,,,,,,,,,,,,,,,,,,,,
,,,,,,00114,2023-12-08_23h28.35.524,vbt_B2_day2,2022.2.4,Win32,47.92485383,,,,,,,,,,,,,,,,,,,,,,,,,,,down,0,6.4139,koffie,,0.052083333,-0.377777778,1,0,0,0.5121,0,33,33,99,1,koffie,images/br_koffie.png,images/cb_koffie.png,1,,,,,,,,,,,,,,,,,,,,,
,,,,,,00114,2023-12-08_23h28.35.524,vbt_B2_day2,2022.2.4,Win32,47.92485383,,,,,,,,,,,,,,,,,,,,,,,,,,,down,0,4.872,,,0.052083333,-0.377777778,1,0,0,0.4503,0,34,34,189,1,aanraden,images/br_aanraden.png,images/cb_aanraden.png,0,,,,,,,,,,,,,,,,,,,,,
,,,,,,00114,2023-12-08_23h28.35.524,vbt_B2_day2,2022.2.4,Win32,47.92485383,,,,,,,,,,,,,,,,,,,,,,,,,,,down,0,1.3986,,,0.052083333,-0.377777778,1,0,0,0.4377,0,35,35,114,1,vullen,images/br_vullen.png,images/cb_vullen.png,0,,,,,,,,,,,,,,,,,,,,,
,,,,,,00114,2023-12-08_23h28.35.524,vbt_B2_day2,2022.2.4,Win32,47.92485383,,,,,,,,,,,,,,,,,,,,,,,,,,,down,0,5.4172,,,0.052083333,-0.377777778,1,0,0,0.5834,0,36,36,153,1,vervoer,images/br_vervoer.png,images/cb_vervoer.png,0,,,,,,,,,,,,,,,,,,,,,
,,,,,,00114,2023-12-08_23h28.35.524,vbt_B2_day2,2022.2.4,Win32,47.92485383,,,,,,,,,,,,,,,,,,,,,,,,,,,down,0,2.1055,steek,,0.052083333,-0.377777778,1,0,0,0.4661,0,37,37,57,1,steek,images/br_steek.png,images/cb_steek.png,1,,,,,,,,,,,,,,,,,,,,,
,,,,,,00114,2023-12-08_23h28.35.524,vbt_B2_day2,2022.2.4,Win32,47.92485383,,,,,,,,,,,,,,,,,,,,,,,,,,,down,0,3.1261,,,0.052083333,-0.377777778,1,0,0,0.6043,0,38,38,55,1,praat,images/br_praat.png,images/cb_praat.png,0,,,,,,,,,,,,,,,,,,,,,
,,,,,,00114,2023-12-08_23h28.35.524,vbt_B2_day2,2022.2.4,Win32,47.92485383,,,,,,,,,,,,,,,,,,,,,,,,,,,down,0,2.1775,,,0.052083333,-0.377777778,1,0,0,0.4167,0,39,39,49,1,laken,images/br_laken.png,images/cb_laken.png,0,,,,,,,,,,,,,,,,,,,,,
,,,,,,00114,2023-12-08_23h28.35.524,vbt_B2_day2,2022.2.4,Win32,47.92485383,,,,,,,,,,,,,,,,,,,,,,,,,,,down,0,2.9593,,,0.052083333,-0.377777778,1,0,0,0.5623,0,40,40,38,1,baai,images/br_baai.png,images/cb_baai.png,0,,,,,,,,,,,,,,,,,,,,,
,,,,,,00114,2023-12-08_23h28.35.524,vbt_B2_day2,2022.2.4,Win32,47.92485383,,,,,,,,,,,,,,,,,,,,,,,,,,,down,0,6.6075,,,0.052083333,-0.377777778,1,0,0,0.4785,0,41,41,154,1,aflopen,images/br_aflopen.png,images/cb_aflopen.png,0,,,,,,,,,,,,,,,,,,,,,
,,,,,,00114,2023-12-08_23h28.35.524,vbt_B2_day2,2022.2.4,Win32,47.92485383,,,,,,,,,,,,,,,,,,,,,,,,,,,down,0,0.1885,,,0.052083333,-0.377777778,1,0,0,0.4788,0,42,42,33,1,vlek,images/br_vlek.png,images/cb_vlek.png,0,,,,,,,,,,,,,,,,,,,,,
,,,,,,00114,2023-12-08_23h28.35.524,vbt_B2_day2,2022.2.4,Win32,47.92485383,,,,,,,,,,,,,,,,,,,,,,,,,,,down,0,3.3131,,,0.052083333,-0.377777778,1,0,0,0.6458,0,43,43,100,1,geduld,images/br_geduld.png,images/cb_geduld.png,0,,,,,,,,,,,,,,,,,,,,,
,,,,,,00114,2023-12-08_23h28.35.524,vbt_B2_day2,2022.2.4,Win32,47.92485383,,,,,,,,,,,,,,,,,,,,,,,,,,,down,0,1.3226,,,0.052083333,-0.377777778,1,0,0,0.5417,0,44,44,43,1,klauw,images/br_klauw.png,images/cb_klauw.png,0,,,,,,,,,,,,,,,,,,,,,
,,,,,,00114,2023-12-08_23h28.35.524,vbt_B2_day2,2022.2.4,Win32,47.92485383,,,,,,,,,,,,,,,,,,,,,,,,,,,down,0,4.0744,,,0.052083333,-0.377777778,1,0,0,0.5426,0,45,45,160,1,daarheen,images/br_daarheen.png,images/cb_daarheen.png,0,,,,,,,,,,,,,,,,,,,,,
,,,,,,00114,2023-12-08_23h28.35.524,vbt_B2_day2,2022.2.4,Win32,47.92485383,,,,,,,,,,,,,,,,,,,,,,,,,,,down,0,3.2511,,,0.052083333,-0.377777778,1,0,0,0.8958,0,46,46,2,1,jaar,images/br_jaar.png,images/cb_jaar.png,0,,,,,,,,,,,,,,,,,,,,,
,,,,,,00114,2023-12-08_23h28.35.524,vbt_B2_day2,2022.2.4,Win32,47.92485383,,,,,,,,,,,,,,,,,,,,,,,,,,,down,0,13.1888,huisdier,,0.052083333,-0.377777778,1,0,0,0.5308,0,47,47,178,1,huisdier,images/br_huisdier.png,images/cb_huisdier.png,1,,,,,,,,,,,,,,,,,,,,,
,,,,,,00114,2023-12-08_23h28.35.524,vbt_B2_day2,2022.2.4,Win32,47.92485383,,,,,,,,,,,,,,,,,,,,,,,,,,,down,0,2.5961,,,0.052083333,-0.377777778,1,0,0,0.8127,0,48,48,123,1,hiervan,images/br_hiervan.png,images/cb_hiervan.png,0,,,,,,,,,,,,,,,,,,,,,
,,,,,,00114,2023-12-08_23h28.35.524,vbt_B2_day2,2022.2.4,Win32,47.92485383,,,,,,,,,,,,,,,,,,,,,,,,,,,down,0,5.6717,,,0.052083333,-0.377777778,1,0,0,0.8551,0,49,49,106,1,zingen,images/br_zingen.png,images/cb_zingen.png,0,,,,,,,,,,,,,,,,,,,,,
,,,,,,00114,2023-12-08_23h28.35.524,vbt_B2_day2,2022.2.4,Win32,47.92485383,,,,,,,,,,,,,,,,,,,,,,,,,,,down,0,14.4178,,,0.052083333,-0.377777778,1,0,0,0.8753,0,50,50,193,1,weeshuis,images/br_weeshuis.png,images/cb_weeshuis.png,0,,,,,,,,,,,,,,,,,,,,,
,,,,,,00114,2023-12-08_23h28.35.524,vbt_B2_day2,2022.2.4,Win32,47.92485383,,,,,,,,,,,,,,,,,,,,,,,,,,,down,0,5.4085,,,0.052083333,-0.377777778,1,0,0,0.6043,0,51,51,180,1,openbaar,images/br_openbaar.png,images/cb_openbaar.png,0,,,,,,,,,,,,,,,,,,,,,
,,,,,,00114,2023-12-08_23h28.35.524,vbt_B2_day2,2022.2.4,Win32,47.92485383,,,,,,,,,,,,,,,,,,,,,,,,,,,down,0,1.7999,,,0.052083333,-0.377777778,1,0,0,1.6038,0,52,52,93,1,waarop,images/br_waarop.png,images/cb_waarop.png,0,,,,,,,,,,,,,,,,,,,,,
,,,,,,00114,2023-12-08_23h28.35.524,vbt_B2_day2,2022.2.4,Win32,47.92485383,,,,,,,,,,,,,,,,,,,,,,,,,,,down,0,1.6584,,,0.052083333,-0.377777778,1,0,0,0.6874,0,53,53,5,1,blad,images/br_blad.png,images/cb_blad.png,0,,,,,,,,,,,,,,,,,,,,,
,,,,,,00114,2023-12-08_23h28.35.524,vbt_B2_day2,2022.2.4,Win32,47.92485383,,,,,,,,,,,,,,,,,,,,,,,,,,,down,0,1.1047,,,0.052083333,-0.377777778,1,0,0,0.5,0,54,54,89,1,slapen,images/br_slapen.png,images/cb_slapen.png,0,,,,,,,,,,,,,,,,,,,,,
,,,,,,00114,2023-12-08_23h28.35.524,vbt_B2_day2,2022.2.4,Win32,47.92485383,,,,,,,,,,,,,,,,,,,,,,,,,,,down,0,2.4517,loyaal,,0.052083333,-0.377777778,1,0,0,0.4664,0,55,55,97,1,loyaal,images/br_loyaal.png,images/cb_loyaal.png,1,,,,,,,,,,,,,,,,,,,,,
,,,,,,00114,2023-12-08_23h28.35.524,vbt_B2_day2,2022.2.4,Win32,47.92485383,,,,,,,,,,,,,,,,,,,,,,,,,,,down,0,4.2934,,,0.052083333,-0.377777778,1,0,0,0.6669,0,56,56,192,1,schaamte,images/br_schaamte.png,images/cb_schaamte.png,0,,,,,,,,,,,,,,,,,,,,,
,,,,,,00114,2023-12-08_23h28.35.524,vbt_B2_day2,2022.2.4,Win32,47.92485383,,,,,,,,,,,,,,,,,,,,,,,,,,,down,0,0.7928,,,0.052083333,-0.377777778,1,0,0,0.6794,0,57,57,36,1,vuur,images/br_vuur.png,images/cb_vuur.png,0,,,,,,,,,,,,,,,,,,,,,
,,,,,,00114,2023-12-08_23h28.35.524,vbt_B2_day2,2022.2.4,Win32,47.92485383,,,,,,,,,,,,,,,,,,,,,,,,,,,down,0,2.4593,,,0.052083333,-0.377777778,1,0,0,0.5829,0,58,58,6,1,diep,images/br_diep.png,images/cb_diep.png,0,,,,,,,,,,,,,,,,,,,,,
,,,,,,00114,2023-12-08_23h28.35.524,vbt_B2_day2,2022.2.4,Win32,47.92485383,,,,,,,,,,,,,,,,,,,,,,,,,,,down,0,3.2746,,,0.052083333,-0.377777778,1,0,0,0.7079,0,59,59,157,1,uitlaat,images/br_uitlaat.png,images/cb_uitlaat.png,0,,,,,,,,,,,,,,,,,,,,,
,,,,,,00114,2023-12-08_23h28.35.524,vbt_B2_day2,2022.2.4,Win32,47.92485383,,,,,,,,,,,,,,,,,,,,,,,,,,,down,0,8.7727,,,0.052083333,-0.377777778,1,0,0,0.604,0,60,60,142,1,snuiven,images/br_snuiven.png,images/cb_snuiven.png,0,,,,,,,,,,,,,,,,,,,,,
,,,,,,00114,2023-12-08_23h28.35.524,vbt_B2_day2,2022.2.4,Win32,47.92485383,,,,,,,,,,,,,,,,,,,,,,,,,,,down,0,9.0104,,,0.052083333,-0.377777778,1,0,0,0.6872,0,61,61,63,1,flirt,images/br_flirt.png,images/cb_flirt.png,0,,,,,,,,,,,,,,,,,,,,,
,,,,,,00114,2023-12-08_23h28.35.524,vbt_B2_day2,2022.2.4,Win32,47.92485383,,,,,,,,,,,,,,,,,,,,,,,,,,,down,0,1.5448,,,0.052083333,-0.377777778,1,0,0,0.8539,0,62,62,10,1,leek,images/br_leek.png,images/cb_leek.png,0,,,,,,,,,,,,,,,,,,,,,
,,,,,,00114,2023-12-08_23h28.35.524,vbt_B2_day2,2022.2.4,Win32,47.92485383,,,,,,,,,,,,,,,,,,,,,,,,,,,down,0,1.9807,,,0.052083333,-0.377083333,1,0,0,0.7916,0,63,63,24,1,jurk,images/br_jurk.png,images/cb_jurk.png,0,,,,,,,,,,,,,,,,,,,,,
,,,,,,00114,2023-12-08_23h28.35.524,vbt_B2_day2,2022.2.4,Win32,47.92485383,,,,,,,,,,,,,,,,,,,,,,,,,,,down,0,4.6802,,,0.052083333,-0.377083333,1,0,0,0.6873,0,64,64,27,1,dans,images/br_dans.png,images/cb_dans.png,0,,,,,,,,,,,,,,,,,,,,,
,,,,,,00114,2023-12-08_23h28.35.524,vbt_B2_day2,2022.2.4,Win32,47.92485383,,,,,,,,,,,,,,,,,,,,,,,,,,,down,0,1.6883,,,0.052083333,-0.377083333,1,0,0,0.5121,0,65,65,120,1,klimmen,images/br_klimmen.png,images/cb_klimmen.png,0,,,,,,,,,,,,,,,,,,,,,
,,,,,,00114,2023-12-08_23h28.35.524,vbt_B2_day2,2022.2.4,Win32,47.92485383,,,,,,,,,,,,,,,,,,,,,,,,,,,down,0,2.7704,,,0.052083333,-0.377083333,1,0,0,0.6464,0,66,66,11,1,mode,images/br_mode.png,images/cb_mode.png,0,,,,,,,,,,,,,,,,,,,,,
,,,,,,00114,2023-12-08_23h28.35.524,vbt_B2_day2,2022.2.4,Win32,47.92485383,,,,,,,,,,,,,,,,,,,,,,,,,,,down,0,2.7161,,,0.052083333,-0.377083333,1,0,0,0.7094,0,67,67,130,1,keihard,images/br_keihard.png,images/cb_keihard.png,0,,,,,,,,,,,,,,,,,,,,,
,,,,,,00114,2023-12-08_23h28.35.524,vbt_B2_day2,2022.2.4,Win32,47.92485383,,,,,,,,,,,,,,,,,,,,,,,,,,,down,0,7.7505,,,0.052083333,-0.377083333,1,0,0,0.5212,0,68,68,92,1,geheim,images/br_geheim.png,images/cb_geheim.png,0,,,,,,,,,,,,,,,,,,,,,
,,,,,,00114,2023-12-08_23h28.35.524,vbt_B2_day2,2022.2.4,Win32,47.92485383,,,,,,,,,,,,,,,,,,,,,,,,,,,down,0,6.1114,,,0.052083333,-0.377083333,1,0,0,0.4791,0,69,69,20,1,site,images/br_site.png,images/cb_site.png,0,,,,,,,,,,,,,,,,,,,,,
,,,,,,00114,2023-12-08_23h28.35.524,vbt_B2_day2,2022.2.4,Win32,47.92485383,,,,,,,,,,,,,,,,,,,,,,,,,,,down,0,4.4258,zeik,,0.052083333,-0.377083333,1,0,0,0.4792,0,70,70,16,1,ziek,images/br_ziek.png,images/cb_ziek.png,1,,,,,,,,,,,,,,,,,,,,,
,,,,,,00114,2023-12-08_23h28.35.524,vbt_B2_day2,2022.2.4,Win32,47.92485383,,,,,,,,,,,,,,,,,,,,,,,,,,,down,0,7.9382,,,0.052083333,-0.377083333,1,0,0,0.7088,0,71,71,185,1,mijnheer,images/br_mijnheer.png,images/cb_mijnheer.png,0,,,,,,,,,,,,,,,,,,,,,
,,,,,,00114,2023-12-08_23h28.35.524,vbt_B2_day2,2022.2.4,Win32,47.92485383,,,,,,,,,,,,,,,,,,,,,,,,,,,down,0,3.3003,,,0.052083333,-0.377083333,1,0,0,0.7704,0,72,72,121,1,twijfel,images/br_twijfel.png,images/cb_twijfel.png,0,,,,,,,,,,,,,,,,,,,,,
,,,,,,00114,2023-12-08_23h28.35.524,vbt_B2_day2,2022.2.4,Win32,47.92485383,,,,,,,,,,,,,,,,,,,,,,,,,,,down,0,1.7088,,,0.05,-0.377083333,1,0,0,1.3966,0,73,73,71,1,bever,images/br_bever.png,images/cb_bever.png,0,,,,,,,,,,,,,,,,,,,,,
,,,,,,00114,2023-12-08_23h28.35.524,vbt_B2_day2,2022.2.4,Win32,47.92485383,,,,,,,,,,,,,,,,,,,,,,,,,,,down,0,6.734,,,0.05,-0.377083333,1,0,0,0.6666,0,74,74,152,1,afnemen,images/br_afnemen.png,images/cb_afnemen.png,0,,,,,,,,,,,,,,,,,,,,,
,,,,,,00114,2023-12-08_23h28.35.524,vbt_B2_day2,2022.2.4,Win32,47.92485383,,,,,,,,,,,,,,,,,,,,,,,,,,,down,0,2.4044,,,0.05,-0.377083333,1,0,0,1.2085,0,75,75,32,1,palm,images/br_palm.png,images/cb_palm.png,0,,,,,,,,,,,,,,,,,,,,,
,,,,,,00114,2023-12-08_23h28.35.524,vbt_B2_day2,2022.2.4,Win32,47.92485383,,,,,,,,,,,,,,,,,,,,,,,,,,,down,0,2.8262,,,0.05,-0.377083333,1,0,0,0.5833,0,76,76,30,1,uien,images/br_uien.png,images/cb_uien.png,0,,,,,,,,,,,,,,,,,,,,,
,,,,,,00114,2023-12-08_23h28.35.524,vbt_B2_day2,2022.2.4,Win32,47.92485383,,,,,,,,,,,,,,,,,,,,,,,,,,,down,0,1.062,,,0.05,-0.377083333,1,0,0,0.6667,0,77,77,42,1,bleek,images/br_bleek.png,images/cb_bleek.png,0,,,,,,,,,,,,,,,,,,,,,
,,,,,,00114,2023-12-08_23h28.35.524,vbt_B2_day2,2022.2.4,Win32,47.92485383,,,,,,,,,,,,,,,,,,,,,,,,,,,down,0,2.3755,,,0.05,-0.377083333,1,0,0,0.6874,0,78,78,183,1,getuigen,images/br_getuigen.png,images/cb_getuigen.png,0,,,,,,,,,,,,,,,,,,,,,
,,,,,,00114,2023-12-08_23h28.35.524,vbt_B2_day2,2022.2.4,Win32,47.92485383,,,,,,,,,,,,,,,,,,,,,,,,,,,down,0,3.876,kreeft,,0.05,-0.377083333,1,0,0,0.667,0,79,79,98,1,kreeft,images/br_kreeft.png,images/cb_kreeft.png,1,,,,,,,,,,,,,,,,,,,,,
,,,,,,00114,2023-12-08_23h28.35.524,vbt_B2_day2,2022.2.4,Win32,47.92485383,,,,,,,,,,,,,,,,,,,,,,,,,,,down,0,1.7163,,,0.05,-0.377083333,1,0,0,0.7705,0,80,80,31,1,poes,images/br_poes.png,images/cb_poes.png,0,,,,,,,,,,,,,,,,,,,,,
,,,,,,00114,2023-12-08_23h28.35.524,vbt_B2_day2,2022.2.4,Win32,47.92485383,,,,,,,,,,,,,,,,,,,,,,,,,,,down,0,2.084,,,0.05,-0.377083333,1,0,0,1.1667,0,81,81,132,1,grappen,images/br_grappen.png,images/cb_grappen.png,0,,,,,,,,,,,,,,,,,,,,,
,,,,,,00114,2023-12-08_23h28.35.524,vbt_B2_day2,2022.2.4,Win32,47.92485383,,,,,,,,,,,,,,,,,,,,,,,,,,,down,0,3.7356,,,0.05,-0.377083333,1,0,0,0.5207,0,82,82,75,1,snoep,images/br_snoep.png,images/cb_snoep.png,0,,,,,,,,,,,,,,,,,,,,,
,,,,,,00114,2023-12-08_23h28.35.524,vbt_B2_day2,2022.2.4,Win32,47.92485383,,,,,,,,,,,,,,,,,,,,,,,,,,,down,0,5.2091,,,0.05,-0.377083333,1,0,0,0.479,0,83,83,168,1,bisschop,images/br_bisschop.png,images/cb_bisschop.png,0,,,,,,,,,,,,,,,,,,,,,
,,,,,,00114,2023-12-08_23h28.35.524,vbt_B2_day2,2022.2.4,Win32,47.92485383,,,,,,,,,,,,,,,,,,,,,,,,,,,down,0,3.622,,,0.05,-0.377083333,1,0,0,0.5624,0,84,84,107,1,maling,images/br_maling.png,images/cb_maling.png,0,,,,,,,,,,,,,,,,,,,,,
,,,,,,00114,2023-12-08_23h28.35.524,vbt_B2_day2,2022.2.4,Win32,47.92485383,,,,,,,,,,,,,,,,,,,,,,,,,,,down,0,2.2304,,,0.05,-0.377083333,1,0,0,0.729,0,85,85,86,1,woning,images/br_woning.png,images/cb_woning.png,0,,,,,,,,,,,,,,,,,,,,,
,,,,,,00114,2023-12-08_23h28.35.524,vbt_B2_day2,2022.2.4,Win32,47.92485383,,,,,,,,,,,,,,,,,,,,,,,,,,,down,0,10.6889,,,0.05,-0.377083333,1,0,0,0.6243,0,86,86,151,1,aanzoek,images/br_aanzoek.png,images/cb_aanzoek.png,0,,,,,,,,,,,,,,,,,,,,,
,,,,,,00114,2023-12-08_23h28.35.524,vbt_B2_day2,2022.2.4,Win32,47.92485383,,,,,,,,,,,,,,,,,,,,,,,,,,,down,0,3.2505,,,0.05,-0.377083333,1,0,0,0.5626,0,87,87,95,1,vreten,images/br_vreten.png,images/cb_vreten.png,0,,,,,,,,,,,,,,,,,,,,,
,,,,,,00114,2023-12-08_23h28.35.524,vbt_B2_day2,2022.2.4,Win32,47.92485383,,,,,,,,,,,,,,,,,,,,,,,,,,,down,0,7.3804,,,0.05,-0.377083333,1,0,0,0.5206,0,88,88,145,1,invloed,images/br_invloed.png,images/cb_invloed.png,0,,,,,,,,,,,,,,,,,,,,,
,,,,,,00114,2023-12-08_23h28.35.524,vbt_B2_day2,2022.2.4,Win32,47.92485383,,,,,,,,,,,,,,,,,,,,,,,,,,,down,0,1.8586,,,0.05,-0.377083333,1,0,0,0.7702,0,89,89,62,1,knaap,images/br_knaap.png,images/cb_knaap.png,0,,,,,,,,,,,,,,,,,,,,,
,,,,,,00114,2023-12-08_23h28.35.524,vbt_B2_day2,2022.2.4,Win32,47.92485383,,,,,,,,,,,,,,,,,,,,,,,,,,,down,0,6.0308,,,0.049305556,-0.377083333,1,0,0,0.5428,0,90,90,127,1,doodmoe,images/br_doodmoe.png,images/cb_doodmoe.png,0,,,,,,,,,,,,,,,,,,,,,
,,,,,,00114,2023-12-08_23h28.35.524,vbt_B2_day2,2022.2.4,Win32,47.92485383,,,,,,,,,,,,,,,,,,,,,,,,,,,down,0,4.4811,kring,,0.049305556,-0.377083333,1,0,0,0.7504,0,91,91,59,1,kring,images/br_kring.png,images/cb_kring.png,1,,,,,,,,,,,,,,,,,,,,,
,,,,,,00114,2023-12-08_23h28.35.524,vbt_B2_day2,2022.2.4,Win32,47.92485383,,,,,,,,,,,,,,,,,,,,,,,,,,,down,0,5.293,,,0.049305556,-0.377083333,1,0,0,0.6884,0,92,92,197,1,spanning,images/br_spanning.png,images/cb_spanning.png,0,,,,,,,,,,,,,,,,,,,,,
,,,,,,00114,2023-12-08_23h28.35.524,vbt_B2_day2,2022.2.4,Win32,47.92485383,,,,,,,,,,,,,,,,,,,,,,,,,,,down,0,4.7534,,,0.049305556,-0.377083333,1,0,0,0.875,0,93,93,147,1,komisch,images/br_komisch.png,images/cb_komisch.png,0,,,,,,,,,,,,,,,,,,,,,
,,,,,,00114,2023-12-08_23h28.35.524,vbt_B2_day2,2022.2.4,Win32,47.92485383,,,,,,,,,,,,,,,,,,,,,,,,,,,down,0,3.0674,,,0.049305556,-0.377083333,1,0,0,0.6459,0,94,94,141,1,knielen,images/br_knielen.png,images/cb_knielen.png,0,,,,,,,,,,,,,,,,,,,,,
,,,,,,00114,2023-12-08_23h28.35.524,vbt_B2_day2,2022.2.4,Win32,47.92485383,,,,,,,,,,,,,,,,,,,,,,,,,,,down,0,3.238,,,0.049305556,-0.377083333,1,0,0,0.7079,0,95,95,72,1,strak,images/br_strak.png,images/cb_strak.png,0,,,,,,,,,,,,,,,,,,,,,
,,,,,,00114,2023-12-08_23h28.35.524,vbt_B2_day2,2022.2.4,Win32,47.92485383,,,,,,,,,,,,,,,,,,,,,,,,,,,down,0,0.7511,,,0.049305556,-0.377083333,1,0,0,0.5626,0,96,96,1,1,zaal,images/br_zaal.png,images/cb_zaal.png,0,,,,,,,,,,,,,,,,,,,,,
,,,,,,00114,2023-12-08_23h28.35.524,vbt_B2_day2,2022.2.4,Win32,47.92485383,,,,,,,,,,,,,,,,,,,,,,,,,,,down,0,5.2092,,,0.049305556,-0.377083333,1,0,0,1.8752,0,97,97,66,1,lever,images/br_lever.png,images/cb_lever.png,0,,,,,,,,,,,,,,,,,,,,,
,,,,,,00114,2023-12-08_23h28.35.524,vbt_B2_day2,2022.2.4,Win32,47.92485383,,,,,,,,,,,,,,,,,,,,,,,,,,,down,0,0.8191,,,0.049305556,-0.377083333,1,0,0,0.521,0,98,98,22,1,stof,images/br_stof.png,images/cb_stof.png,0,,,,,,,,,,,,,,,,,,,,,
,,,,,,00114,2023-12-08_23h28.35.524,vbt_B2_day2,2022.2.4,Win32,47.92485383,,,,,,,,,,,,,,,,,,,,,,,,,,,down,0,1.3865,,,0.049305556,-0.377083333,1,0,0,0.5827,0,99,99,34,1,vorm,images/br_vorm.png,images/cb_vorm.png,0,,,,,,,,,,,,,,,,,,,,,
,,,,,,00114,2023-12-08_23h28.35.524,vbt_B2_day2,2022.2.4,Win32,47.92485383,,,,,,,,,,,,,,,,,,,,,,,,,,,down,0,2.2096,,,0.049305556,-0.377083333,1,0,0,0.7288,0,100,100,128,1,prikken,images/br_prikken.png,images/cb_prikken.png,0,,,,,,,,,,,,,,,,,,,,,
,,,,,,00114,2023-12-08_23h28.35.524,vbt_B2_day2,2022.2.4,Win32,47.92485383,,,,,,,,,,,,,,,,,,,,,,,,,,,down,0,4.5534,,,0.049305556,-0.377083333,1,0,0,0.8749,0,101,101,195,1,middelen,images/br_middelen.png,images/cb_middelen.png,0,,,,,,,,,,,,,,,,,,,,,
,,,,,,00114,2023-12-08_23h28.35.524,vbt_B2_day2,2022.2.4,Win32,47.92485383,,,,,,,,,,,,,,,,,,,,,,,,,,,down,0,1.2579,,,0.049305556,-0.377083333,1,0,0,0.5417,0,102,102,115,1,kleren,images/br_kleren.png,images/cb_kleren.png,0,,,,,,,,,,,,,,,,,,,,,
,,,,,,00114,2023-12-08_23h28.35.524,vbt_B2_day2,2022.2.4,Win32,47.92485383,,,,,,,,,,,,,,,,,,,,,,,,,,,down,0,5.6051,,,0.049305556,-0.377083333,1,0,0,0.6877,0,103,103,118,1,vinger,images/br_vinger.png,images/cb_vinger.png,0,,,,,,,,,,,,,,,,,,,,,
,,,,,,00114,2023-12-08_23h28.35.524,vbt_B2_day2,2022.2.4,Win32,47.92485383,,,,,,,,,,,,,,,,,,,,,,,,,,,down,0,0.0316,,,0.049305556,-0.377083333,1,0,0,0.7915,0,104,104,7,1,geld,images/br_geld.png,images/cb_geld.png,0,,,,,,,,,,,,,,,,,,,,,
,,,,,,00114,2023-12-08_23h28.35.524,vbt_B2_day2,2022.2.4,Win32,47.92485383,,,,,,,,,,,,,,,,,,,,,,,,,,,down,0,1.2925,,,0.049305556,-0.377083333,1,0,0,1.8329,0,105,105,113,1,koppen,images/br_koppen.png,images/cb_koppen.png,0,,,,,,,,,,,,,,,,,,,,,
,,,,,,00114,2023-12-08_23h28.35.524,vbt_B2_day2,2022.2.4,Win32,47.92485383,,,,,,,,,,,,,,,,,,,,,,,,,,,down,0,1.7925,,,0.049305556,-0.377083333,1,0,0,0.6034,0,106,106,90,1,geluid,images/br_geluid.png,images/cb_geluid.png,0,,,,,,,,,,,,,,,,,,,,,
,,,,,,00114,2023-12-08_23h28.35.524,vbt_B2_day2,2022.2.4,Win32,47.92485383,,,,,,,,,,,,,,,,,,,,,,,,,,,down,0,1.862,,,0.049305556,-0.377083333,1,0,0,3.9086,0,107,107,150,1,gegeven,images/br_gegeven.png,images/cb_gegeven.png,0,,,,,,,,,,,,,,,,,,,,,
,,,,,,00114,2023-12-08_23h28.35.524,vbt_B2_day2,2022.2.4,Win32,47.92485383,,,,,,,,,,,,,,,,,,,,,,,,,,,down,0,4.3343,,,0.049305556,-0.377083333,1,0,0,1.7584,0,108,108,61,1,groen,images/br_groen.png,images/cb_groen.png,0,,,,,,,,,,,,,,,,,,,,,
,,,,,,00114,2023-12-08_23h28.35.524,vbt_B2_day2,2022.2.4,Win32,47.92485383,,,,,,,,,,,,,,,,,,,,,,,,,,,down,0,36.3591,,,0.049305556,-0.377083333,1,0,0,1.7415,0,109,109,149,1,redding,images/br_redding.png,images/cb_redding.png,0,,,,,,,,,,,,,,,,,,,,,
,,,,,,00114,2023-12-08_23h28.35.524,vbt_B2_day2,2022.2.4,Win32,47.92485383,,,,,,,,,,,,,,,,,,,,,,,,,,,down,0,2.4805,,,0.049305556,-0.377083333,1,0,0,2.6242,0,110,110,48,1,steel,images/br_steel.png,images/cb_steel.png,0,,,,,,,,,,,,,,,,,,,,,
,,,,,,00114,2023-12-08_23h28.35.524,vbt_B2_day2,2022.2.4,Win32,47.92485383,,,,,,,,,,,,,,,,,,,,,,,,,,,down,0,2.272,,,0.049305556,-0.377083333,1,0,0,0.4372,0,111,111,52,1,wagon,images/br_wagon.png,images/cb_wagon.png,0,,,,,,,,,,,,,,,,,,,,,
,,,,,,00114,2023-12-08_23h28.35.524,vbt_B2_day2,2022.2.4,Win32,47.92485383,,,,,,,,,,,,,,,,,,,,,,,,,,,down,0,26.5242,,,0.049305556,-0.377083333,1,0,0,1.0414,0,112,112,164,1,anarchie,images/br_anarchie.png,images/cb_anarchie.png,0,,,,,,,,,,,,,,,,,,,,,
,,,,,,00114,2023-12-08_23h28.35.524,vbt_B2_day2,2022.2.4,Win32,47.92485383,,,,,,,,,,,,,,,,,,,,,,,,,,,down,0,2.3532,,,0.049305556,-0.377083333,1,0,0,0.4583,0,113,113,65,1,parel,images/br_parel.png,images/cb_parel.png,0,,,,,,,,,,,,,,,,,,,,,
,,,,,,00114,2023-12-08_23h28.35.524,vbt_B2_day2,2022.2.4,Win32,47.92485383,,,,,,,,,,,,,,,,,,,,,,,,,,,down,0,19.5086,,,0.049305556,-0.377083333,1,0,0,2.1669,0,114,114,155,1,gerucht,images/br_gerucht.png,images/cb_gerucht.png,0,,,,,,,,,,,,,,,,,,,,,
,,,,,,00114,2023-12-08_23h28.35.524,vbt_B2_day2,2022.2.4,Win32,47.92485383,,,,,,,,,,,,,,,,,,,,,,,,,,,down,0,2.275,,,0.049305556,-0.377083333,1,0,0,2.2503,0,115,115,125,1,aanzien,images/br_aanzien.png,images/cb_aanzien.png,0,,,,,,,,,,,,,,,,,,,,,
,,,,,,00114,2023-12-08_23h28.35.524,vbt_B2_day2,2022.2.4,Win32,47.92485383,,,,,,,,,,,,,,,,,,,,,,,,,,,down,0,5.8391,,,0.049305556,-0.377083333,1,0,0,0.542,0,116,116,196,1,nakijken,images/br_nakijken.png,images/cb_nakijken.png,0,,,,,,,,,,,,,,,,,,,,,
,,,,,,00114,2023-12-08_23h28.35.524,vbt_B2_day2,2022.2.4,Win32,47.92485383,,,,,,,,,,,,,,,,,,,,,,,,,,,down,0,1.0033,,,0.049305556,-0.377083333,1,0,0,0.4795,0,117,117,82,1,muziek,images/br_muziek.png,images/cb_muziek.png,0,,,,,,,,,,,,,,,,,,,,,
,,,,,,00114,2023-12-08_23h28.35.524,vbt_B2_day2,2022.2.4,Win32,47.92485383,,,,,,,,,,,,,,,,,,,,,,,,,,,down,0,1.3972,,,0.049305556,-0.377083333,1,0,0,0.4791,0,118,118,37,1,mijn,images/br_mijn.png,images/cb_mijn.png,0,,,,,,,,,,,,,,,,,,,,,
,,,,,,00114,2023-12-08_23h28.35.524,vbt_B2_day2,2022.2.4,Win32,47.92485383,,,,,,,,,,,,,,,,,,,,,,,,,,,down,0,4.3139,,,0.049305556,-0.377083333,1,0,0,0.5003,0,119,119,184,1,aandelen,images/br_aandelen.png,images/cb_aandelen.png,0,,,,,,,,,,,,,,,,,,,,,
,,,,,,00114,2023-12-08_23h28.35.524,vbt_B2_day2,2022.2.4,Win32,47.92485383,,,,,,,,,,,,,,,,,,,,,,,,,,,down,0,0.0952,,,0.049305556,-0.377083333,1,0,0,0.5208,0,120,120,84,1,lokken,images/br_lokken.png,images/cb_lokken.png,0,,,,,,,,,,,,,,,,,,,,,
,,,,,,00114,2023-12-08_23h28.35.524,vbt_B2_day2,2022.2.4,Win32,47.92485383,,,,,,,,,,,,,,,,,,,,,,,,,,,down,0,1.4803,blik,,0.049305556,-0.377083333,1,0,0,0.8208,0,121,121,18,1,blik,images/br_blik.png,images/cb_blik.png,1,,,,,,,,,,,,,,,,,,,,,
,,,,,,00114,2023-12-08_23h28.35.524,vbt_B2_day2,2022.2.4,Win32,47.92485383,,,,,,,,,,,,,,,,,,,,,,,,,,,down,0,1.8853,,,0.049305556,-0.377083333,1,0,0,0.7085,0,122,122,88,1,boeien,images/br_boeien.png,images/cb_boeien.png,0,,,,,,,,,,,,,,,,,,,,,
,,,,,,00114,2023-12-08_23h28.35.524,vbt_B2_day2,2022.2.4,Win32,47.92485383,,,,,,,,,,,,,,,,,,,,,,,,,,,down,0,2.7935,,,0.049305556,-0.377083333,1,0,0,0.5206,0,123,123,51,1,samen,images/br_samen.png,images/cb_samen.png,0,,,,,,,,,,,,,,,,,,,,,
,,,,,,00114,2023-12-08_23h28.35.524,vbt_B2_day2,2022.2.4,Win32,47.92485383,,,,,,,,,,,,,,,,,,,,,,,,,,,down,0,2.1941,,,0.049305556,-0.377083333,1,0,0,0.5836,0,124,124,103,1,joggen,images/br_joggen.png,images/cb_joggen.png,0,,,,,,,,,,,,,,,,,,,,,
,,,,,,00114,2023-12-08_23h28.35.524,vbt_B2_day2,2022.2.4,Win32,47.92485383,,,,,,,,,,,,,,,,,,,,,,,,,,,down,0,16.5304,,,0.049305556,-0.377083333,1,0,0,0.4374,0,125,125,94,1,oceaan,images/br_oceaan.png,images/cb_oceaan.png,0,,,,,,,,,,,,,,,,,,,,,
,,,,,,00114,2023-12-08_23h28.35.524,vbt_B2_day2,2022.2.4,Win32,47.92485383,,,,,,,,,,,,,,,,,,,,,,,,,,,down,0,2.3134,,,0.049305556,-0.377083333,1,0,0,0.7803,0,126,126,17,1,taal,images/br_taal.png,images/cb_taal.png,1,,,,,,,,,,,,,,,,,,,,,
,,,,,,00114,2023-12-08_23h28.35.524,vbt_B2_day2,2022.2.4,Win32,47.92485383,,,,,,,,,,,,,,,,,,,,,,,,,,,down,0,3.8585,,,0.049305556,-0.377083333,1,0,0,0.4579,0,127,127,171,1,aarzelen,images/br_aarzelen.png,images/cb_aarzelen.png,0,,,,,,,,,,,,,,,,,,,,,
,,,,,,00114,2023-12-08_23h28.35.524,vbt_B2_day2,2022.2.4,Win32,47.92485383,,,,,,,,,,,,,,,,,,,,,,,,,,,down,0,0.8615,,,0.049305556,-0.377083333,1,0,0,0.3745,0,128,128,21,1,mist,images/br_mist.png,images/cb_mist.png,0,,,,,,,,,,,,,,,,,,,,,
,,,,,,00114,2023-12-08_23h28.35.524,vbt_B2_day2,2022.2.4,Win32,47.92485383,,,,,,,,,,,,,,,,,,,,,,,,,,,down,0,9.773,,,0.049305556,-0.377083333,1,0,0,2.137,0,129,129,15,1,soda,images/br_soda.png,images/cb_soda.png,0,,,,,,,,,,,,,,,,,,,,,
,,,,,,00114,2023-12-08_23h28.35.524,vbt_B2_day2,2022.2.4,Win32,47.92485383,,,,,,,,,,,,,,,,,,,,,,,,,,,down,0,4.7078,,,0.049305556,-0.377083333,1,0,0,0.5734,0,130,130,67,1,zwart,images/br_zwart.png,images/cb_zwart.png,0,,,,,,,,,,,,,,,,,,,,,
,,,,,,00114,2023-12-08_23h28.35.524,vbt_B2_day2,2022.2.4,Win32,47.92485383,,,,,,,,,,,,,,,,,,,,,,,,,,,down,0,2.4383,,,0.049305556,-0.377083333,1,0,0,1.2076,0,131,131,105,1,wijlen,images/br_wijlen.png,images/cb_wijlen.png,0,,,,,,,,,,,,,,,,,,,,,
,,,,,,00114,2023-12-08_23h28.35.524,vbt_B2_day2,2022.2.4,Win32,47.92485383,,,,,,,,,,,,,,,,,,,,,,,,,,,down,0,3.3134,,,0.049305556,-0.377083333,1,0,0,1.1875,0,132,132,198,1,bedoelen,images/br_bedoelen.png,images/cb_bedoelen.png,0,,,,,,,,,,,,,,,,,,,,,
,,,,,,00114,2023-12-08_23h28.35.524,vbt_B2_day2,2022.2.4,Win32,47.92485383,,,,,,,,,,,,,,,,,,,,,,,,,,,down,0,3.5015,stiekem,,0.049305556,-0.377083333,1,0,0,1.2505,0,133,133,139,1,stiekem,images/br_stiekem.png,images/cb_stiekem.png,1,,,,,,,,,,,,,,,,,,,,,
,,,,,,00114,2023-12-08_23h28.35.524,vbt_B2_day2,2022.2.4,Win32,47.92485383,,,,,,,,,,,,,,,,,,,,,,,,,,,down,0,4.294,,,0.049305556,-0.377083333,1,0,0,0.604,0,134,134,122,1,waarvan,images/br_waarvan.png,images/cb_waarvan.png,0,,,,,,,,,,,,,,,,,,,,,
,,,,,,00114,2023-12-08_23h28.35.524,vbt_B2_day2,2022.2.4,Win32,47.92485383,,,,,,,,,,,,,,,,,,,,,,,,,,,down,0,6.4386,,,0.049305556,-0.377083333,1,0,0,0.8329,0,135,135,102,1,legaal,images/br_legaal.png,images/cb_legaal.png,0,,,,,,,,,,,,,,,,,,,,,
,,,,,,00114,2023-12-08_23h28.35.524,vbt_B2_day2,2022.2.4,Win32,47.92485383,,,,,,,,,,,,,,,,,,,,,,,,,,,down,0,0.9556,,,0.049305556,-0.377083333,1,0,0,0.4784,0,136,136,44,1,flits,images/br_flits.png,images/cb_flits.png,0,,,,,,,,,,,,,,,,,,,,,
,,,,,,00114,2023-12-08_23h28.35.524,vbt_B2_day2,2022.2.4,Win32,47.92485383,,,,,,,,,,,,,,,,,,,,,,,,,,,down,0,2.7535,,,0.049305556,-0.377083333,1,0,0,0.3749,0,137,137,45,1,piste,images/br_piste.png,images/cb_piste.png,0,,,,,,,,,,,,,,,,,,,,,
,,,,,,00114,2023-12-08_23h28.35.524,vbt_B2_day2,2022.2.4,Win32,47.92485383,,,,,,,,,,,,,,,,,,,,,,,,,,,down,0,0.9177,,,0.049305556,-0.377083333,1,0,0,0.4167,0,138,138,3,1,mand,images/br_mand.png,images/cb_mand.png,0,,,,,,,,,,,,,,,,,,,,,
,,,,,,00114,2023-12-08_23h28.35.524,vbt_B2_day2,2022.2.4,Win32,47.92485383,,,,,,,,,,,,,,,,,,,,,,,,,,,down,0,3.5427,,,0.049305556,-0.377083333,1,0,0,0.3957,0,139,139,129,1,verhaal,images/br_verhaal.png,images/cb_verhaal.png,0,,,,,,,,,,,,,,,,,,,,,
,,,,,,00114,2023-12-08_23h28.35.524,vbt_B2_day2,2022.2.4,Win32,47.92485383,,,,,,,,,,,,,,,,,,,,,,,,,,,down,0,3.7305,,,0.049305556,-0.377083333,1,0,0,0.4787,0,140,140,188,1,strekken,images/br_strekken.png,images/cb_strekken.png,0,,,,,,,,,,,,,,,,,,,,,
,,,,,,00114,2023-12-08_23h28.35.524,vbt_B2_day2,2022.2.4,Win32,47.92485383,,,,,,,,,,,,,,,,,,,,,,,,,,,down,0,3.2294,,,0.049305556,-0.377083333,1,0,0,0.3546,0,141,141,87,1,toeval,images/br_toeval.png,images/cb_toeval.png,0,,,,,,,,,,,,,,,,,,,,,
,,,,,,00114,2023-12-08_23h28.35.524,vbt_B2_day2,2022.2.4,Win32,47.92485383,,,,,,,,,,,,,,,,,,,,,,,,,,,down,0,6.1775,,,0.049305556,-0.377083333,1,0,0,0.4786,0,142,142,143,1,hechten,images/br_hechten.png,images/cb_hechten.png,0,,,,,,,,,,,,,,,,,,,,,
,,,,,,00114,2023-12-08_23h28.35.524,vbt_B2_day2,2022.2.4,Win32,47.92485383,,,,,,,,,,,,,,,,,,,,,,,,,,,down,0,6.3022,,,0.049305556,-0.377083333,1,0,0,0.5829,0,143,143,91,1,gezond,images/br_gezond.png,images/cb_gezond.png,0,,,,,,,,,,,,,,,,,,,,,
,,,,,,00114,2023-12-08_23h28.35.524,vbt_B2_day2,2022.2.4,Win32,47.92485383,,,,,,,,,,,,,,,,,,,,,,,,,,,down,0,5.9663,,,0.049305556,-0.377083333,1,0,0,0.7703,0,144,144,167,1,eenhoorn,images/br_eenhoorn.png,images/cb_eenhoorn.png,0,,,,,,,,,,,,,,,,,,,,,
,,,,,,00114,2023-12-08_23h28.35.524,vbt_B2_day2,2022.2.4,Win32,47.92485383,,,,,,,,,,,,,,,,,,,,,,,,,,,down,0,16.0057,,,0.049305556,-0.377083333,1,0,0,0.6456,0,145,145,182,1,bijkomen,images/br_bijkomen.png,images/cb_bijkomen.png,0,,,,,,,,,,,,,,,,,,,,,
,,,,,,00114,2023-12-08_23h28.35.524,vbt_B2_day2,2022.2.4,Win32,47.92485383,,,,,,,,,,,,,,,,,,,,,,,,,,,down,0,3.4478,,,0.049305556,-0.377083333,1,0,0,0.6244,0,146,146,119,1,liefje,images/br_liefje.png,images/cb_liefje.png,0,,,,,,,,,,,,,,,,,,,,,
,,,,,,00114,2023-12-08_23h28.35.524,vbt_B2_day2,2022.2.4,Win32,47.92485383,,,,,,,,,,,,,,,,,,,,,,,,,,,down,0,3.9427,,,0.049305556,-0.377083333,1,0,0,0.4461,0,147,147,64,1,wegen,images/br_wegen.png,images/cb_wegen.png,0,,,,,,,,,,,,,,,,,,,,,
,,,,,,00114,2023-12-08_23h28.35.524,vbt_B2_day2,2022.2.4,Win32,47.92485383,,,,,,,,,,,,,,,,,,,,,,,,,,,down,0,0.9765,,,0.049305556,-0.377083333,1,0,0,0.6374,0,148,148,13,1,kaal,images/br_kaal.png,images/cb_kaal.png,0,,,,,,,,,,,,,,,,,,,,,
,,,,,,00114,2023-12-08_23h28.35.524,vbt_B2_day2,2022.2.4,Win32,47.92485383,,,,,,,,,,,,,,,,,,,,,,,,,,,down,0,5.5947,,,0.049305556,-0.377083333,1,0,0,0.5206,0,149,149,83,1,mening,images/br_mening.png,images/cb_mening.png,0,,,,,,,,,,,,,,,,,,,,,
,,,,,,00114,2023-12-08_23h28.35.524,vbt_B2_day2,2022.2.4,Win32,47.92485383,,,,,,,,,,,,,,,,,,,,,,,,,,,down,0,1.5844,,,0.049305556,-0.377083333,1,0,0,0.437,0,150,150,109,1,totaal,images/br_totaal.png,images/cb_totaal.png,0,,,,,,,,,,,,,,,,,,,,,
,,,,,,00114,2023-12-08_23h28.35.524,vbt_B2_day2,2022.2.4,Win32,47.92485383,,,,,,,,,,,,,,,,,,,,,,,,,,,down,0,4.4242,,,0.049305556,-0.377083333,1,0,0,0.8538,0,151,151,23,1,zout,images/br_zout.png,images/cb_zout.png,0,,,,,,,,,,,,,,,,,,,,,
,,,,,,00114,2023-12-08_23h28.35.524,vbt_B2_day2,2022.2.4,Win32,47.92485383,,,,,,,,,,,,,,,,,,,,,,,,,,,down,0,6.5928,,,0.049305556,-0.377083333,1,0,0,1.3743,0,152,152,190,1,goedkoop,images/br_goedkoop.png,images/cb_goedkoop.png,0,,,,,,,,,,,,,,,,,,,,,
,,,,,,00114,2023-12-08_23h28.35.524,vbt_B2_day2,2022.2.4,Win32,47.92485383,,,,,,,,,,,,,,,,,,,,,,,,,,,down,0,5.5242,,,0.049305556,-0.377083333,1,0,0,0.4373,0,153,153,162,1,uitdelen,images/br_uitdelen.png,images/cb_uitdelen.png,0,,,,,,,,,,,,,,,,,,,,,
,,,,,,00114,2023-12-08_23h28.35.524,vbt_B2_day2,2022.2.4,Win32,47.92485383,,,,,,,,,,,,,,,,,,,,,,,,,,,down,0,0.069,,,0.049305556,-0.377083333,1,0,0,0.5206,0,154,154,28,1,stal,images/br_stal.png,images/cb_stal.png,0,,,,,,,,,,,,,,,,,,,,,
,,,,,,00114,2023-12-08_23h28.35.524,vbt_B2_day2,2022.2.4,Win32,47.92485383,,,,,,,,,,,,,,,,,,,,,,,,,,,down,0,0.1294,,,0.049305556,-0.377083333,1,0,0,0.729,0,155,155,4,1,moes,images/br_moes.png,images/cb_moes.png,0,,,,,,,,,,,,,,,,,,,,,
,,,,,,00114,2023-12-08_23h28.35.524,vbt_B2_day2,2022.2.4,Win32,47.92485383,,,,,,,,,,,,,,,,,,,,,,,,,,,down,0,1.4,,,0.049305556,-0.377083333,1,0,0,0.4163,0,156,156,126,1,kasteel,images/br_kasteel.png,images/cb_kasteel.png,0,,,,,,,,,,,,,,,,,,,,,
,,,,,,00114,2023-12-08_23h28.35.524,vbt_B2_day2,2022.2.4,Win32,47.92485383,,,,,,,,,,,,,,,,,,,,,,,,,,,down,0,0.9358,,,0.049305556,-0.377083333,1,0,0,0.9584,0,157,157,173,1,apparaat,images/br_apparaat.png,images/cb_apparaat.png,0,,,,,,,,,,,,,,,,,,,,,
,,,,,,00114,2023-12-08_23h28.35.524,vbt_B2_day2,2022.2.4,Win32,47.92485383,,,,,,,,,,,,,,,,,,,,,,,,,,,down,0,5.1905,,,0.049305556,-0.377083333,1,0,0,0.6873,0,158,158,131,1,opzicht,images/br_opzicht.png,images/cb_opzicht.png,0,,,,,,,,,,,,,,,,,,,,,
,,,,,,00114,2023-12-08_23h28.35.524,vbt_B2_day2,2022.2.4,Win32,47.92485383,,,,,,,,,,,,,,,,,,,,,,,,,,,down,0,11.2189,,,0.049305556,-0.377083333,1,0,0,1.7496,0,159,159,158,1,innemen,images/br_innemen.png,images/cb_innemen.png,0,,,,,,,,,,,,,,,,,,,,,
,,,,,,00114,2023-12-08_23h28.35.524,vbt_B2_day2,2022.2.4,Win32,47.92485383,,,,,,,,,,,,,,,,,,,,,,,,,,,down,0,6.6872,,,0.049305556,-0.377083333,1,0,0,0.7218,0,160,160,199,1,beseffen,images/br_beseffen.png,images/cb_beseffen.png,0,,,,,,,,,,,,,,,,,,,,,
,,,,,,00114,2023-12-08_23h28.35.524,vbt_B2_day2,2022.2.4,Win32,47.92485383,,,,,,,,,,,,,,,,,,,,,,,,,,,down,0,4.063,,,0.049305556,-0.377083333,1,0,0,1.9371,0,161,161,187,1,opkijken,images/br_opkijken.png,images/cb_opkijken.png,0,,,,,,,,,,,,,,,,,,,,,
,,,,,,00114,2023-12-08_23h28.35.524,vbt_B2_day2,2022.2.4,Win32,47.92485383,,,,,,,,,,,,,,,,,,,,,,,,,,,down,0,7.5849,waarheidwaarheid,,0.049305556,-0.377083333,1,0,0,5.5419,0,162,162,136,1,waarbij,images/br_waarbij.png,images/cb_waarbij.png,1,,,,,,,,,,,,,,,,,,,,,
,,,,,,00114,2023-12-08_23h28.35.524,vbt_B2_day2,2022.2.4,Win32,47.92485383,,,,,,,,,,,,,,,,,,,,,,,,,,,down,0,2.5008,,,0.049305556,-0.377083333,1,0,0,0.6245,0,163,163,110,1,zuster,images/br_zuster.png,images/cb_zuster.png,0,,,,,,,,,,,,,,,,,,,,,
,,,,,,00114,2023-12-08_23h28.35.524,vbt_B2_day2,2022.2.4,Win32,47.92485383,,,,,,,,,,,,,,,,,,,,,,,,,,,down,0,3.1886,,,0.049305556,-0.377083333,1,0,0,0.5622,0,164,164,191,1,opheffen,images/br_opheffen.png,images/cb_opheffen.png,0,,,,,,,,,,,,,,,,,,,,,
,,,,,,00114,2023-12-08_23h28.35.524,vbt_B2_day2,2022.2.4,Win32,47.92485383,,,,,,,,,,,,,,,,,,,,,,,,,,,down,0,8.0525,,,0.049305556,-0.377083333,1,0,0,0.4167,0,165,165,101,1,staren,images/br_staren.png,images/cb_staren.png,0,,,,,,,,,,,,,,,,,,,,,
,,,,,,00114,2023-12-08_23h28.35.524,vbt_B2_day2,2022.2.4,Win32,47.92485383,,,,,,,,,,,,,,,,,,,,,,,,,,,down,0,0.4206,,,0.049305556,-0.377083333,1,0,0,0.5831,0,166,166,50,1,stoom,images/br_stoom.png,images/cb_stoom.png,0,,,,,,,,,,,,,,,,,,,,,
,,,,,,00114,2023-12-08_23h28.35.524,vbt_B2_day2,2022.2.4,Win32,47.92485383,,,,,,,,,,,,,,,,,,,,,,,,,,,down,0,1.3556,,,0.049305556,-0.377083333,1,0,0,1.3952,0,167,167,169,1,oprotten,images/br_oprotten.png,images/cb_oprotten.png,0,,,,,,,,,,,,,,,,,,,,,
,,,,,,00114,2023-12-08_23h28.35.524,vbt_B2_day2,2022.2.4,Win32,47.92485383,,,,,,,,,,,,,,,,,,,,,,,,,,,down,0,0.8536,,,0.049305556,-0.377083333,1,0,0,0.4169,0,168,168,39,1,laag,images/br_laag.png,images/cb_laag.png,0,,,,,,,,,,,,,,,,,,,,,
,,,,,,00114,2023-12-08_23h28.35.524,vbt_B2_day2,2022.2.4,Win32,47.92485383,,,,,,,,,,,,,,,,,,,,,,,,,,,down,0,2.3136,,,0.049305556,-0.377083333,1,0,0,0.771,0,169,169,40,1,schep,images/br_schep.png,images/cb_schep.png,0,,,,,,,,,,,,,,,,,,,,,
,,,,,,00114,2023-12-08_23h28.35.524,vbt_B2_day2,2022.2.4,Win32,47.92485383,,,,,,,,,,,,,,,,,,,,,,,,,,,down,0,2.482,,,0.049305556,-0.377083333,1,0,0,0.5204,0,170,170,146,1,opkomen,images/br_opkomen.png,images/cb_opkomen.png,0,,,,,,,,,,,,,,,,,,,,,
,,,,,,00114,2023-12-08_23h28.35.524,vbt_B2_day2,2022.2.4,Win32,47.92485383,,,,,,,,,,,,,,,,,,,,,,,,,,,down,0,2.4591,,,0.049305556,-0.377083333,1,0,0,0.4375,0,171,171,77,1,woede,images/br_woede.png,images/cb_woede.png,0,,,,,,,,,,,,,,,,,,,,,
,,,,,,00114,2023-12-08_23h28.35.524,vbt_B2_day2,2022.2.4,Win32,47.92485383,,,,,,,,,,,,,,,,,,,,,,,,,,,down,0,1.7925,,,0.049305556,-0.377083333,1,0,0,0.6454,0,172,172,70,1,ijdel,images/br_ijdel.png,images/cb_ijdel.png,0,,,,,,,,,,,,,,,,,,,,,
,,,,,,00114,2023-12-08_23h28.35.524,vbt_B2_day2,2022.2.4,Win32,47.92485383,,,,,,,,,,,,,,,,,,,,,,,,,,,down,0,2.9417,,,0.049305556,-0.377083333,1,0,0,0.4374,0,173,173,165,1,feestdag,images/br_feestdag.png,images/cb_feestdag.png,0,,,,,,,,,,,,,,,,,,,,,
,,,,,,00114,2023-12-08_23h28.35.524,vbt_B2_day2,2022.2.4,Win32,47.92485383,,,,,,,,,,,,,,,,,,,,,,,,,,,down,0,3.5927,,,0.049305556,-0.377083333,1,0,0,0.9584,0,174,174,73,1,volop,images/br_volop.png,images/cb_volop.png,0,,,,,,,,,,,,,,,,,,,,,
,,,,,,00114,2023-12-08_23h28.35.524,vbt_B2_day2,2022.2.4,Win32,47.92485383,,,,,,,,,,,,,,,,,,,,,,,,,,,down,0,2.4418,,,0.049305556,-0.377083333,1,0,0,0.896,0,175,175,133,1,seizoen,images/br_seizoen.png,images/cb_seizoen.png,0,,,,,,,,,,,,,,,,,,,,,
,,,,,,00114,2023-12-08_23h28.35.524,vbt_B2_day2,2022.2.4,Win32,47.92485383,,,,,,,,,,,,,,,,,,,,,,,,,,,down,0,2.4506,,,0.049305556,-0.377083333,1,0,0,0.5831,0,176,176,54,1,gebit,images/br_gebit.png,images/cb_gebit.png,0,,,,,,,,,,,,,,,,,,,,,
,,,,,,00114,2023-12-08_23h28.35.524,vbt_B2_day2,2022.2.4,Win32,47.92485383,,,,,,,,,,,,,,,,,,,,,,,,,,,down,0,4.6281,,,0.049305556,-0.377083333,1,0,0,0.5942,0,177,177,156,1,rechten,images/br_rechten.png,images/cb_rechten.png,0,,,,,,,,,,,,,,,,,,,,,
,,,,,,00114,2023-12-08_23h28.35.524,vbt_B2_day2,2022.2.4,Win32,47.92485383,,,,,,,,,,,,,,,,,,,,,,,,,,,down,0,5.5857,,,0.049305556,-0.377083333,1,0,0,0.521,0,178,178,172,1,weigeren,images/br_weigeren.png,images/cb_weigeren.png,0,,,,,,,,,,,,,,,,,,,,,
,,,,,,00114,2023-12-08_23h28.35.524,vbt_B2_day2,2022.2.4,Win32,47.92485383,,,,,,,,,,,,,,,,,,,,,,,,,,,down,0,2.0015,traag,,0.049305556,-0.377083333,1,0,0,0.9576,0,179,179,56,1,traag,images/br_traag.png,images/cb_traag.png,1,,,,,,,,,,,,,,,,,,,,,
,,,,,,00114,2023-12-08_23h28.35.524,vbt_B2_day2,2022.2.4,Win32,47.92485383,,,,,,,,,,,,,,,,,,,,,,,,,,,down,0,7.9599,,,0.049305556,-0.377083333,1,0,0,1.3034,0,180,180,159,1,sufferd,images/br_sufferd.png,images/cb_sufferd.png,0,,,,,,,,,,,,,,,,,,,,,
,,,,,,00114,2023-12-08_23h28.35.524,vbt_B2_day2,2022.2.4,Win32,47.92485383,,,,,,,,,,,,,,,,,,,,,,,,,,,down,0,4.5137,,,0.049305556,-0.377083333,1,0,0,1.6873,0,181,181,111,1,ticket,images/br_ticket.png,images/cb_ticket.png,0,,,,,,,,,,,,,,,,,,,,,
,,,,,,00114,2023-12-08_23h28.35.524,vbt_B2_day2,2022.2.4,Win32,47.92485383,,,,,,,,,,,,,,,,,,,,,,,,,,,down,0,7.4667,,,0.049305556,-0.377083333,1,0,0,0.4584,0,182,182,181,1,toegeven,images/br_toegeven.png,images/cb_toegeven.png,0,,,,,,,,,,,,,,,,,,,,,
,,,,,,00114,2023-12-08_23h28.35.524,vbt_B2_day2,2022.2.4,Win32,47.92485383,,,,,,,,,,,,,,,,,,,,,,,,,,,down,0,1.3759,,,0.049305556,-0.377083333,1,0,0,0.5833,0,183,183,144,1,eetlust,images/br_eetlust.png,images/cb_eetlust.png,0,,,,,,,,,,,,,,,,,,,,,
,,,,,,00114,2023-12-08_23h28.35.524,vbt_B2_day2,2022.2.4,Win32,47.92485383,,,,,,,,,,,,,,,,,,,,,,,,,,,down,0,2.6269,,,0.049305556,-0.377083333,1,0,0,0.4373,0,184,184,69,1,waken,images/br_waken.png,images/cb_waken.png,0,,,,,,,,,,,,,,,,,,,,,
,,,,,,00114,2023-12-08_23h28.35.524,vbt_B2_day2,2022.2.4,Win32,47.92485383,,,,,,,,,,,,,,,,,,,,,,,,,,,down,0,3.71,,,0.049305556,-0.377083333,1,0,0,0.3743,0,185,185,117,1,kennis,images/br_kennis.png,images/cb_kennis.png,0,,,,,,,,,,,,,,,,,,,,,
,,,,,,00114,2023-12-08_23h28.35.524,vbt_B2_day2,2022.2.4,Win32,47.92485383,,,,,,,,,,,,,,,,,,,,,,,,,,,down,0,5.5083,,,0.049305556,-0.377083333,1,0,0,1.5205,0,186,186,108,1,excuus,images/br_excuus.png,images/cb_excuus.png,0,,,,,,,,,,,,,,,,,,,,,
,,,,,,00114,2023-12-08_23h28.35.524,vbt_B2_day2,2022.2.4,Win32,47.92485383,,,,,,,,,,,,,,,,,,,,,,,,,,,down,0,2.758,,,0.049305556,-0.377083333,1,0,0,0.6247,0,187,187,8,1,knie,images/br_knie.png,images/cb_knie.png,0,,,,,,,,,,,,,,,,,,,,,
,,,,,,00114,2023-12-08_23h28.35.524,vbt_B2_day2,2022.2.4,Win32,47.92485383,,,,,,,,,,,,,,,,,,,,,,,,,,,down,0,0.4201,,,0.049305556,-0.377083333,1,0,0,0.5415,0,188,188,0,1,slak,images/br_slak.png,images/cb_slak.png,0,,,,,,,,,,,,,,,,,,,,,
,,,,,,00114,2023-12-08_23h28.35.524,vbt_B2_day2,2022.2.4,Win32,47.92485383,,,,,,,,,,,,,,,,,,,,,,,,,,,down,0,2.7254,maaltijd,,0.049305556,-0.377083333,1,0,0,1.1096,0,189,189,177,1,maaltijd,images/br_maaltijd.png,images/cb_maaltijd.png,1,,,,,,,,,,,,,,,,,,,,,
,,,,,,00114,2023-12-08_23h28.35.524,vbt_B2_day2,2022.2.4,Win32,47.92485383,,,,,,,,,,,,,,,,,,,,,,,,,,,down,0,7.2509,,,0.049305556,-0.377083333,1,0,0,0.4909,0,190,190,46,1,jagen,images/br_jagen.png,images/cb_jagen.png,0,,,,,,,,,,,,,,,,,,,,,
,,,,,,00114,2023-12-08_23h28.35.524,vbt_B2_day2,2022.2.4,Win32,47.92485383,,,,,,,,,,,,,,,,,,,,,,,,,,,down,0,3.0445,,,0.049305556,-0.377083333,1,0,0,0.4587,0,191,191,104,1,zweven,images/br_zweven.png,images/cb_zweven.png,0,,,,,,,,,,,,,,,,,,,,,
,,,,,,00114,2023-12-08_23h28.35.524,vbt_B2_day2,2022.2.4,Win32,47.92485383,,,,,,,,,,,,,,,,,,,,,,,,,,,down,0,1.9045,,,0.049305556,-0.377083333,1,0,0,0.4996,0,192,192,74,1,graaf,images/br_graaf.png,images/cb_graaf.png,0,,,,,,,,,,,,,,,,,,,,,
,,,,,,00114,2023-12-08_23h28.35.524,vbt_B2_day2,2022.2.4,Win32,47.92485383,,,,,,,,,,,,,,,,,,,,,,,,,,,down,0,6.8797,techniek,,0.049305556,-0.377083333,1,0,0,0.8965,0,193,193,176,1,techniek,images/br_techniek.png,images/cb_techniek.png,1,,,,,,,,,,,,,,,,,,,,,
,,,,,,00114,2023-12-08_23h28.35.524,vbt_B2_day2,2022.2.4,Win32,47.92485383,,,,,,,,,,,,,,,,,,,,,,,,,,,down,0,3.9384,,,0.049305556,-0.377083333,1,0,0,0.4794,0,194,194,175,1,heengaan,images/br_heengaan.png,images/cb_heengaan.png,0,,,,,,,,,,,,,,,,,,,,,
,,,,,,00114,2023-12-08_23h28.35.524,vbt_B2_day2,2022.2.4,Win32,47.92485383,,,,,,,,,,,,,,,,,,,,,,,,,,,down,0,0.1066,,,0.049305556,-0.377083333,1,0,0,0.5827,0,195,195,78,1,leren,images/br_leren.png,images/cb_leren.png,0,,,,,,,,,,,,,,,,,,,,,
,,,,,,00114,2023-12-08_23h28.35.524,vbt_B2_day2,2022.2.4,Win32,47.92485383,,,,,,,,,,,,,,,,,,,,,,,,,,,down,0,6.6884,woestijn,,0.049305556,-0.377083333,1,0,0,1.083,0,196,196,179,1,woestijn,images/br_woestijn.png,images/cb_woestijn.png,1,,,,,,,,,,,,,,,,,,,,,
,,,,,,00114,2023-12-08_23h28.35.524,vbt_B2_day2,2022.2.4,Win32,47.92485383,,,,,,,,,,,,,,,,,,,,,,,,,,,down,0,0.2511,,,0.049305556,-0.377083333,1,0,0,1.3413,0,197,197,29,1,baas,images/br_baas.png,images/cb_baas.png,0,,,,,,,,,,,,,,,,,,,,,
,,,,,,00114,2023-12-08_23h28.35.524,vbt_B2_day2,2022.2.4,Win32,47.92485383,,,,,,,,,,,,,,,,,,,,,,,,,,,down,0,5.0104,,,0.049305556,-0.377083333,1,0,0,0.9166,0,198,198,79,1,nodig,images/br_nodig.png,images/cb_nodig.png,0,,,,,,,,,,,,,,,,,,,,,
,,,,,,00114,2023-12-08_23h28.35.524,vbt_B2_day2,2022.2.4,Win32,47.92485383,,,,,,,,,,,,,,,,,,,,,,,,,,,down,0,4.2759,,,0.049305556,-0.377083333,1,0,0,0.4371,0,199,199,47,1,kabel,images/br_kabel.png,images/cb_kabel.png,0,,,,,,,,,,,,,,,,,,,,,
,,,,,,00114,2023-12-08_23h28.35.524,vbt_B2_day2,2022.2.4,Win32,47.92485383,,,,,,,,,,,,,,,,,,,,,,,,,,,,,,,,,,,,,,,,,,,,,,,0.049305556,-0.377083333,1,0,0,,,,,,,,,,,,,,,,
,,,,,,00114,2023-12-08_23h28.35.524,vbt_B2_day2,2022.2.4,Win32,47.92485383,,,,,,,,,,,,,,,,,,,,,,,,,,,,,,,,,,,,,,,,,,,,,,,,,,,,0.049305556,-0.377083333,1,0,0,,,,,,,,,,,
,,,,,,00114,2023-12-08_23h28.35.524,vbt_B2_day2,2022.2.4,Win32,47.92485383,,,,,,,,,,,,,,,,,,,,,,,,,,,,,,heilig,,,,,,,,,,,,,heilig,images/br_heilig.png,images/cb_heilig.png,,,,,,,,,,,,0.052777778,-0.349305556,1,0,0,heilig,0,0,0,9,1
,,,,,,00114,2023-12-08_23h28.35.524,vbt_B2_day2,2022.2.4,Win32,47.92485383,,,,,,,,,,,,,,,,,,,,,,,,,,,,,,deest,,,,,,,,,,,,,feestdag,images/br_feestdag.png,images/cb_feestdag.png,,,,,,,,,,,,-0.020833333,-0.188888889,1,0,0,deest,0,1,1,17,1
,,,,,,00114,2023-12-08_23h28.35.524,vbt_B2_day2,2022.2.4,Win32,47.92485383,,,,,,,,,,,,,,,,,,,,,,,,,,,,,,ophuimen,,,,,,,,,,,,,ophuimen,images/br_ophuimen.png,images/cb_ophuimen.png,,,,,,,,,,,,0.040972222,-0.377777778,1,0,0,ophuimen,0,2,2,36,1
,,,,,,00114,2023-12-08_23h28.35.524,vbt_B2_day2,2022.2.4,Win32,47.92485383,,,,,,,,,,,,,,,,,,,,,,,,,,,,,,bloeien,,,,,,,,,,,,,bloeien,images/br_bloeien.png,images/cb_bloeien.png,,,,,,,,,,,,0.040972222,-0.377777778,1,0,0,bloeien,0,3,3,12,1
,,,,,,00114,2023-12-08_23h28.35.524,vbt_B2_day2,2022.2.4,Win32,47.92485383,,,,,,,,,,,,,,,,,,,,,,,,,,,,,,kasteel,,,,,,,,,,,,,kasteel,images/br_kasteel.png,images/cb_kasteel.png,,,,,,,,,,,,0.040972222,-0.377777778,1,0,0,kasteel,0,4,4,14,1
,,,,,,00114,2023-12-08_23h28.35.524,vbt_B2_day2,2022.2.4,Win32,47.92485383,,,,,,,,,,,,,,,,,,,,,,,,,,,,,,dode,,,,,,,,,,,,,dode,images/br_dode.png,images/cb_dode.png,,,,,,,,,,,,0.040972222,-0.377777778,1,0,0,dode,0,5,5,41,1
,,,,,,00114,2023-12-08_23h28.35.524,vbt_B2_day2,2022.2.4,Win32,47.92485383,,,,,,,,,,,,,,,,,,,,,,,,,,,,,,anarchie,,,,,,,,,,,,,anarchie,images/br_anarchie.png,images/cb_anarchie.png,,,,,,,,,,,,0.040972222,-0.377777778,1,0,0,anarchie,0,6,6,16,1
,,,,,,00114,2023-12-08_23h28.35.524,vbt_B2_day2,2022.2.4,Win32,47.92485383,,,,,,,,,,,,,,,,,,,,,,,,,,,,,,blad,,,,,,,,,,,,,blad,images/br_blad.png,images/cb_blad.png,,,,,,,,,,,,0.040972222,-0.377777778,1,0,0,blad,0,7,7,1,1
,,,,,,00114,2023-12-08_23h28.35.524,vbt_B2_day2,2022.2.4,Win32,47.92485383,,,,,,,,,,,,,,,,,,,,,,,,,,,,,,jagen,,,,,,,,,,,,,jagen,images/br_jagen.png,images/cb_jagen.png,,,,,,,,,,,,0.040972222,-0.377777778,1,0,0,jagen,0,8,8,6,1
,,,,,,00114,2023-12-08_23h28.35.524,vbt_B2_day2,2022.2.4,Win32,47.92485383,,,,,,,,,,,,,,,,,,,,,,,,,,,,,,flits,,,,,,,,,,,,,flits,images/br_flits.png,images/cb_flits.png,,,,,,,,,,,,0.040972222,-0.377777778,1,0,0,flits,0,9,9,4,1
,,,,,,00114,2023-12-08_23h28.35.524,vbt_B2_day2,2022.2.4,Win32,47.92485383,,,,,,,,,,,,,,,,,,,,,,,,,,,,,,bereumen,,,,,,,,,,,,,bereuwen,images/br_bereuwen.png,images/cb_bereuwen.png,,,,,,,,,,,,0.040972222,-0.377777778,1,0,0,bereumen,0,10,10,39,1
,,,,,,00114,2023-12-08_23h28.35.524,vbt_B2_day2,2022.2.4,Win32,47.92485383,,,,,,,,,,,,,,,,,,,,,,,,,,,,,,koorts,,,,,,,,,,,,,koorts,images/br_koorts.png,images/cb_koorts.png,,,,,,,,,,,,0.040972222,-0.377777778,1,0,0,koorts,0,11,11,50,1
,,,,,,00114,2023-12-08_23h28.35.524,vbt_B2_day2,2022.2.4,Win32,47.92485383,,,,,,,,,,,,,,,,,,,,,,,,,,,,,,opdatten,,,,,,,,,,,,,opdatten,images/br_opdatten.png,images/cb_opdatten.png,,,,,,,,,,,,0.040972222,-0.377777778,1,0,0,opdatten,0,12,12,37,1
,,,,,,00114,2023-12-08_23h28.35.524,vbt_B2_day2,2022.2.4,Win32,47.92485383,,,,,,,,,,,,,,,,,,,,,,,,,,,,,,toeval,,,,,,,,,,,,,toeval,images/br_toeval.png,images/cb_toeval.png,,,,,,,,,,,,0.040972222,-0.377777778,1,0,0,toeval,0,13,13,11,1
,,,,,,00114,2023-12-08_23h28.35.524,vbt_B2_day2,2022.2.4,Win32,47.92485383,,,,,,,,,,,,,,,,,,,,,,,,,,,,,,geld,,,,,,,,,,,,,geld,images/br_geld.png,images/cb_geld.png,,,,,,,,,,,,0.040972222,-0.377777778,1,0,0,geld,0,14,14,3,1
,,,,,,00114,2023-12-08_23h28.35.524,vbt_B2_day2,2022.2.4,Win32,47.92485383,,,,,,,,,,,,,,,,,,,,,,,,,,,,,,prekken,,,,,,,,,,,,,prekken,images/br_prekken.png,images/cb_prekken.png,,,,,,,,,,,,0.040972222,-0.377777778,1,0,0,prekken,0,15,15,34,1
,,,,,,00114,2023-12-08_23h28.35.524,vbt_B2_day2,2022.2.4,Win32,47.92485383,,,,,,,,,,,,,,,,,,,,,,,,,,,,,,joeg,,,,,,,,,,,,,joes,images/br_joes.png,images/cb_joes.png,,,,,,,,,,,,0.040972222,-0.377777778,1,0,0,joeg,0,16,16,20,1
,,,,,,00114,2023-12-08_23h28.35.524,vbt_B2_day2,2022.2.4,Win32,47.92485383,,,,,,,,,,,,,,,,,,,,,,,,,,,,,,remel,,,,,,,,,,,,,remel,images/br_remel.png,images/cb_remel.png,,,,,,,,,,,,0.040972222,-0.377777778,1,0,0,remel,0,17,17,25,1
,,,,,,00114,2023-12-08_23h28.35.524,vbt_B2_day2,2022.2.4,Win32,47.92485383,,,,,,,,,,,,,,,,,,,,,,,,,,,,,,inrisch,,,,,,,,,,,,,inzicht,images/br_inzicht.png,images/cb_inzicht.png,,,,,,,,,,,,0.040972222,-0.377777778,1,0,0,inrisch,0,18,18,53,1
,,,,,,00114,2023-12-08_23h28.35.524,vbt_B2_day2,2022.2.4,Win32,47.92485383,,,,,,,,,,,,,,,,,,,,,,,,,,,,,,systeem,,,,,,,,,,,,,systeem,images/br_systeem.png,images/cb_systeem.png,,,,,,,,,,,,0.040972222,-0.377777778,1,0,0,systeem,0,19,19,54,1
,,,,,,00114,2023-12-08_23h28.35.524,vbt_B2_day2,2022.2.4,Win32,47.92485383,,,,,,,,,,,,,,,,,,,,,,,,,,,,,,lurgen,,,,,,,,,,,,,lurgen,images/br_lurgen.png,images/cb_lurgen.png,,,,,,,,,,,,0.040972222,-0.377777778,1,0,0,lurgen,0,20,20,29,1
,,,,,,00114,2023-12-08_23h28.35.524,vbt_B2_day2,2022.2.4,Win32,47.92485383,,,,,,,,,,,,,,,,,,,,,,,,,,,,,,clan,,,,,,,,,,,,,clan,images/br_clan.png,images/cb_clan.png,,,,,,,,,,,,0.040972222,-0.377777778,1,0,0,clan,0,21,21,40,1
,,,,,,00114,2023-12-08_23h28.35.524,vbt_B2_day2,2022.2.4,Win32,47.92485383,,,,,,,,,,,,,,,,,,,,,,,,,,,,,,liehnen,,,,,,,,,,,,,lijnen,images/br_lijnen.png,images/cb_lijnen.png,,,,,,,,,,,,0.040972222,-0.377777778,1,0,0,liehnen,0,22,22,51,1
,,,,,,00114,2023-12-08_23h28.35.524,vbt_B2_day2,2022.2.4,Win32,47.92485383,,,,,,,,,,,,,,,,,,,,,,,,,,,,,,lokken,,,,,,,,,,,,,lokken,images/br_lokken.png,images/cb_lokken.png,,,,,,,,,,,,0.040972222,-0.377777778,1,0,0,lokken,0,23,23,8,1
,,,,,,00114,2023-12-08_23h28.35.524,vbt_B2_day2,2022.2.4,Win32,47.92485383,,,,,,,,,,,,,,,,,,,,,,,,,,,,,,trots,,,,,,,,,,,,,trots,images/br_trots.png,images/cb_trots.png,,,,,,,,,,,,0.040972222,-0.377777778,1,0,0,trots,0,24,24,44,1
,,,,,,00114,2023-12-08_23h28.35.524,vbt_B2_day2,2022.2.4,Win32,47.92485383,,,,,,,,,,,,,,,,,,,,,,,,,,,,,,moes,,,,,,,,,,,,,moes,images/br_moes.png,images/cb_moes.png,,,,,,,,,,,,0.120138889,-0.335416667,1,0,0,moes,0,25,25,0,1
,,,,,,00114,2023-12-08_23h28.35.524,vbt_B2_day2,2022.2.4,Win32,47.92485383,,,,,,,,,,,,,,,,,,,,,,,,,,,,,,piste,,,,,,,,,,,,,piste,images/br_piste.png,images/cb_piste.png,,,,,,,,,,,,0.120138889,-0.335416667,1,0,0,piste,0,26,26,5,1
,,,,,,00114,2023-12-08_23h28.35.524,vbt_B2_day2,2022.2.4,Win32,47.92485383,,,,,,,,,,,,,,,,,,,,,,,,,,,,,,manaaren,,,,,,,,,,,,,manieren,images/br_manieren.png,images/cb_manieren.png,,,,,,,,,,,,0.120138889,-0.335416667,1,0,0,manaaren,0,27,27,56,1
,,,,,,00114,2023-12-08_23h28.35.524,vbt_B2_day2,2022.2.4,Win32,47.92485383,,,,,,,,,,,,,,,,,,,,,,,,,,,,,,breuk,,,,,,,,,,,,,breuk,images/br_breuk.png,images/cb_breuk.png,,,,,,,,,,,,0.120138889,-0.335416667,1,0,0,breuk,0,28,28,45,1
,,,,,,00114,2023-12-08_23h28.35.524,vbt_B2_day2,2022.2.4,Win32,47.92485383,,,,,,,,,,,,,,,,,,,,,,,,,,,,,,zomers,,,,,,,,,,,,,zomers,images/br_zomers.png,images/cb_zomers.png,,,,,,,,,,,,0.120138889,-0.335416667,1,0,0,zomers,0,29,29,48,1
,,,,,,00114,2023-12-08_23h28.35.524,vbt_B2_day2,2022.2.4,Win32,47.92485383,,,,,,,,,,,,,,,,,,,,,,,,,,,,,,hong,,,,,,,,,,,,,jong,images/br_jong.png,images/cb_jong.png,,,,,,,,,,,,0.120138889,-0.335416667,1,0,0,hong,0,30,30,43,1
,,,,,,00114,2023-12-08_23h28.35.524,vbt_B2_day2,2022.2.4,Win32,47.92485383,,,,,,,,,,,,,,,,,,,,,,,,,,,,,,plannen,,,,,,,,,,,,,plannen,images/br_plannen.png,images/cb_plannen.png,,,,,,,,,,,,0.120138889,-0.335416667,1,0,0,plannen,0,31,31,55,1
,,,,,,00114,2023-12-08_23h28.35.524,vbt_B2_day2,2022.2.4,Win32,47.92485383,,,,,,,,,,,,,,,,,,,,,,,,,,,,,,zegel,,,,,,,,,,,,,zegel,images/br_zegel.png,images/cb_zegel.png,,,,,,,,,,,,0.120138889,-0.335416667,1,0,0,zegel,0,32,32,46,1
,,,,,,00114,2023-12-08_23h28.35.524,vbt_B2_day2,2022.2.4,Win32,47.92485383,,,,,,,,,,,,,,,,,,,,,,,,,,,,,,kabel,,,,,,,,,,,,,kabel,images/br_kabel.png,images/cb_kabel.png,,,,,,,,,,,,0.120138889,-0.335416667,1,0,0,kabel,0,33,33,7,1
,,,,,,00114,2023-12-08_23h28.35.524,vbt_B2_day2,2022.2.4,Win32,47.92485383,,,,,,,,,,,,,,,,,,,,,,,,,,,,,,tand,,,,,,,,,,,,,tand,images/br_tand.png,images/cb_tand.png,,,,,,,,,,,,0.120138889,-0.335416667,1,0,0,tand,0,34,34,42,1
,,,,,,00114,2023-12-08_23h28.35.524,vbt_B2_day2,2022.2.4,Win32,47.92485383,,,,,,,,,,,,,,,,,,,,,,,,,,,,,,badon,,,,,,,,,,,,,badon,images/br_badon.png,images/cb_badon.png,,,,,,,,,,,,0.120138889,-0.335416667,1,0,0,badon,0,35,35,26,1
,,,,,,00114,2023-12-08_23h28.35.524,vbt_B2_day2,2022.2.4,Win32,47.92485383,,,,,,,,,,,,,,,,,,,,,,,,,,,,,,agressie,,,,,,,,,,,,,agressie,images/br_agressie.png,images/cb_agressie.png,,,,,,,,,,,,0.120138889,-0.335416667,1,0,0,agressie,0,36,36,59,1
,,,,,,00114,2023-12-08_23h28.35.524,vbt_B2_day2,2022.2.4,Win32,47.92485383,,,,,,,,,,,,,,,,,,,,,,,,,,,,,,krimmen,,,,,,,,,,,,,krimmen,images/br_krimmen.png,images/cb_krimmen.png,,,,,,,,,,,,0.120138889,-0.335416667,1,0,0,krimmen,0,37,37,35,1
,,,,,,00114,2023-12-08_23h28.35.524,vbt_B2_day2,2022.2.4,Win32,47.92485383,,,,,,,,,,,,,,,,,,,,,,,,,,,,,,stes,,,,,,,,,,,,,stes,images/br_stes.png,images/cb_stes.png,,,,,,,,,,,,0.120138889,-0.335416667,1,0,0,stes,0,38,38,21,1
,,,,,,00114,2023-12-08_23h28.35.524,vbt_B2_day2,2022.2.4,Win32,47.92485383,,,,,,,,,,,,,,,,,,,,,,,,,,,,,,goon,,,,,,,,,,,,,goon,images/br_goon.png,images/cb_goon.png,,,,,,,,,,,,0.120138889,-0.335416667,1,0,0,goon,0,39,39,23,1
,,,,,,00114,2023-12-08_23h28.35.524,vbt_B2_day2,2022.2.4,Win32,47.92485383,,,,,,,,,,,,,,,,,,,,,,,,,,,,,,doodmoe,,,,,,,,,,,,,doodmoe,images/br_doodmoe.png,images/cb_doodmoe.png,,,,,,,,,,,,0.120138889,-0.335416667,1,0,0,doodmoe,0,40,40,15,1
,,,,,,00114,2023-12-08_23h28.35.524,vbt_B2_day2,2022.2.4,Win32,47.92485383,,,,,,,,,,,,,,,,,,,,,,,,,,,,,,kijlen,,,,,,,,,,,,,kijlen,images/br_kijlen.png,images/cb_kijlen.png,,,,,,,,,,,,0.120138889,-0.335416667,1,0,0,kijlen,0,41,41,31,1
,,,,,,00114,2023-12-08_23h28.35.524,vbt_B2_day2,2022.2.4,Win32,47.92485383,,,,,,,,,,,,,,,,,,,,,,,,,,,,,,sufferd,,,,,,,,,,,,,sifferd,images/br_sifferd.png,images/cb_sifferd.png,,,,,,,,,,,,0.120138889,-0.335416667,1,0,0,sufferd,0,42,42,32,1
,,,,,,00114,2023-12-08_23h28.35.524,vbt_B2_day2,2022.2.4,Win32,47.92485383,,,,,,,,,,,,,,,,,,,,,,,,,,,,,,welnihm,,,,,,,,,,,,,welzijn,images/br_welzijn.png,images/cb_welzijn.png,,,,,,,,,,,,0.120138889,-0.335416667,1,0,0,welnihm,0,43,43,52,1
,,,,,,00114,2023-12-08_23h28.35.524,vbt_B2_day2,2022.2.4,Win32,47.92485383,,,,,,,,,,,,,,,,,,,,,,,,,,,,,,diep,,,,,,,,,,,,,diep,images/br_diep.png,images/cb_diep.png,,,,,,,,,,,,0.120138889,-0.335416667,1,0,0,diep,0,44,44,2,1
,,,,,,00114,2023-12-08_23h28.35.524,vbt_B2_day2,2022.2.4,Win32,47.92485383,,,,,,,,,,,,,,,,,,,,,,,,,,,,,,wijve,,,,,,,,,,,,,wijve,images/br_wijve.png,images/cb_wijve.png,,,,,,,,,,,,0.120138889,-0.335416667,1,0,0,wijve,0,45,45,27,1
,,,,,,00114,2023-12-08_23h28.35.524,vbt_B2_day2,2022.2.4,Win32,47.92485383,,,,,,,,,,,,,,,,,,,,,,,,,,,,,,ningen,,,,,,,,,,,,,ningen,images/br_ningen.png,images/cb_ningen.png,,,,,,,,,,,,0.120138889,-0.335416667,1,0,0,ningen,0,46,46,28,1
,,,,,,00114,2023-12-08_23h28.35.524,vbt_B2_day2,2022.2.4,Win32,47.92485383,,,,,,,,,,,,,,,,,,,,,,,,,,,,,,heengeen,,,,,,,,,,,,,heengeen,images/br_heengeen.png,images/cb_heengeen.png,,,,,,,,,,,,0.120138889,-0.335416667,1,0,0,heengeen,0,47,47,38,1
,,,,,,00114,2023-12-08_23h28.35.524,vbt_B2_day2,2022.2.4,Win32,47.92485383,,,,,,,,,,,,,,,,,,,,,,,,,,,,,,negel,,,,,,,,,,,,,negel,images/br_negel.png,images/cb_negel.png,,,,,,,,,,,,0.120138889,-0.335416667,1,0,0,negel,0,48,48,24,1
,,,,,,00114,2023-12-08_23h28.35.524,vbt_B2_day2,2022.2.4,Win32,47.92485383,,,,,,,,,,,,,,,,,,,,,,,,,,,,,,tweeling,,,,,,,,,,,,,tweeling,images/br_tweeling.png,images/cb_tweeling.png,,,,,,,,,,,,0.120138889,-0.335416667,1,0,0,tweeling,0,49,49,58,1
,,,,,,00114,2023-12-08_23h28.35.524,vbt_B2_day2,2022.2.4,Win32,47.92485383,,,,,,,,,,,,,,,,,,,,,,,,,,,,,,aanvraag,,,,,,,,,,,,,aanvraag,images/br_aanvraag.png,images/cb_aanvraag.png,,,,,,,,,,,,0.120138889,-0.335416667,1,0,0,aanvraag,0,50,50,57,1
,,,,,,00114,2023-12-08_23h28.35.524,vbt_B2_day2,2022.2.4,Win32,47.92485383,,,,,,,,,,,,,,,,,,,,,,,,,,,,,,woning,,,,,,,,,,,,,woning,images/br_woning.png,images/cb_woning.png,,,,,,,,,,,,0.120138889,-0.335416667,1,0,0,woning,0,51,51,10,1
,,,,,,00114,2023-12-08_23h28.35.524,vbt_B2_day2,2022.2.4,Win32,47.92485383,,,,,,,,,,,,,,,,,,,,,,,,,,,,,,aanzien,,,,,,,,,,,,,aanzien,images/br_aanzien.png,images/cb_aanzien.png,,,,,,,,,,,,0.120138889,-0.335416667,1,0,0,aanzien,0,52,52,13,1
,,,,,,00114,2023-12-08_23h28.35.524,vbt_B2_day2,2022.2.4,Win32,47.92485383,,,,,,,,,,,,,,,,,,,,,,,,,,,,,,tfems,,,,,,,,,,,,,thema,images/br_thema.png,images/cb_thema.png,,,,,,,,,,,,0.120138889,-0.335416667,1,0,0,tfems,0,53,53,47,1
,,,,,,00114,2023-12-08_23h28.35.524,vbt_B2_day2,2022.2.4,Win32,47.92485383,,,,,,,,,,,,,,,,,,,,,,,,,,,,,,sota,,,,,,,,,,,,,sora,images/br_sora.png,images/cb_sora.png,,,,,,,,,,,,0.120138889,-0.335416667,1,0,0,sota,0,54,54,22,1
,,,,,,00114,2023-12-08_23h28.35.524,vbt_B2_day2,2022.2.4,Win32,47.92485383,,,,,,,,,,,,,,,,,,,,,,,,,,,,,,kenzis,,,,,,,,,,,,,kenzis,images/br_kenzis.png,images/cb_kenzis.png,,,,,,,,,,,,0.120138889,-0.335416667,1,0,0,kenzis,0,55,55,30,1
,,,,,,00114,2023-12-08_23h28.35.524,vbt_B2_day2,2022.2.4,Win32,47.92485383,,,,,,,,,,,,,,,,,,,,,,,,,,,,,,eenhoorn,,,,,,,,,,,,,eenhoorn,images/br_eenhoorn.png,images/cb_eenhoorn.png,,,,,,,,,,,,0.120138889,-0.335416667,1,0,0,eenhoorn,0,56,56,19,1
,,,,,,00114,2023-12-08_23h28.35.524,vbt_B2_day2,2022.2.4,Win32,47.92485383,,,,,,,,,,,,,,,,,,,,,,,,,,,,,,zwager,,,,,,,,,,,,,zwager,images/br_zwager.png,images/cb_zwager.png,,,,,,,,,,,,0.170833333,-0.285416667,1,0,0,zwager,0,57,57,49,1
,,,,,,00114,2023-12-08_23h28.35.524,vbt_B2_day2,2022.2.4,Win32,47.92485383,,,,,,,,,,,,,,,,,,,,,,,,,,,,,,sjihfen,,,,,,,,,,,,,sjijfel,images/br_sjijfel.png,images/cb_sjijfel.png,,,,,,,,,,,,0.170833333,-0.285416667,1,0,0,sjihfen,0,58,58,33,1
,,,,,,00114,2023-12-08_23h28.35.524,vbt_B2_day2,2022.2.4,Win32,47.92485383,,,,,,,,,,,,,,,,,,,,,,,,,,,,,,strikken,,,,,,,,,,,,,strikken,images/br_strikken.png,images/cb_strikken.png,,,,,,,,,,,,0.170833333,-0.285416667,1,0,0,strikken,0,59,59,18,1
,,,,,,00114,2023-12-08_23h28.35.524,vbt_B2_day2,2022.2.4,Win32,47.92485383,,,,,,,,,,,,,,,,,,,,,,,,,,,,,,,,,,,,,,,,,,,,,,,,,,,,,,,,,,,,,,,,,,,
