welcome_mouse.x,welcome_mouse.y,welcome_mouse.leftButton,welcome_mouse.midButton,welcome_mouse.rightButton,welcome_mouse.time,"ID",date,expName,psychopyVersion,OS,frameRate,refresh_mouse.x,refresh_mouse.y,refresh_mouse.leftButton,refresh_mouse.midButton,refresh_mouse.rightButton,refresh_mouse.time,braille_mouse.x,braille_mouse.y,braille_mouse.leftButton,braille_mouse.midButton,braille_mouse.rightButton,braille_mouse.time,trials.thisRepN,trials.thisTrialN,trials.thisN,trials.thisIndex,trials.ran,nlLet,brLet,cbLet,trainInstr_mouse.x,trainInstr_mouse.y,trainInstr_mouse.leftButton,trainInstr_mouse.midButton,trainInstr_mouse.rightButton,trainInstr_mouse.time,translation_key.keys,translation_key.corr,translation_key.rt,word_rsp.text,word_mouse.x,word_mouse.y,word_mouse.leftButton,word_mouse.midButton,word_mouse.rightButton,word_mouse.time,train_loop.thisRepN,train_loop.thisTrialN,train_loop.thisN,train_loop.thisIndex,train_loop.ran,nlWrd,brWrd,cbWrd,test,testResp,mouse.x,mouse.y,mouse.leftButton,mouse.midButton,mouse.rightButton,testInstr_mouse.x,testInstr_mouse.y,testInstr_mouse.leftButton,testInstr_mouse.midButton,testInstr_mouse.rightButton,test_mouse.x,test_mouse.y,test_mouse.leftButton,test_mouse.midButton,test_mouse.rightButton,test_response.text,test_loop.thisRepN,test_loop.thisTrialN,test_loop.thisN,test_loop.thisIndex,test_loop.ran
-0.025217014,-0.240234375,1,0,0,3.7172,00025,2023-09-04_12h49.47.430,vbt_B2_day2,2022.2.4,MacIntel,60.0024001,,,,,,,,,,,,,,,,,,,,,,,,,,,,,,,,,,,,,,,,,,,,,,,,,,,,,,,,,,,,,,,,,,,
,,,,,,00025,2023-09-04_12h49.47.430,vbt_B2_day2,2022.2.4,MacIntel,60.0024001,0.012361111,-0.123046875,1,0,0,7.3147,,,,,,,,,,,,,,,,,,,,,,,,,,,,,,,,,,,,,,,,,,,,,,,,,,,,,,,,,,,,,
,,,,,,00025,2023-09-04_12h49.47.430,vbt_B2_day2,2022.2.4,MacIntel,60.0024001,,,,,,,0.013051215,-0.123736979,1,0,0,1.5294,0,0,0,9,1,j,images/br_j.png,images/cb_j.png,,,,,,,,,,,,,,,,,,,,,,,,,,,,,,,,,,,,,,,,,,,,,,,
,,,,,,00025,2023-09-04_12h49.47.430,vbt_B2_day2,2022.2.4,MacIntel,60.0024001,,,,,,,0.013051215,-0.123736979,1,0,0,5.3657,0,1,1,12,1,m,images/br_m.png,images/cb_m.png,,,,,,,,,,,,,,,,,,,,,,,,,,,,,,,,,,,,,,,,,,,,,,,
,,,,,,00025,2023-09-04_12h49.47.430,vbt_B2_day2,2022.2.4,MacIntel,60.0024001,,,,,,,0.013051215,-0.123736979,1,0,0,3.402,0,2,2,17,1,r,images/br_r.png,images/cb_r.png,,,,,,,,,,,,,,,,,,,,,,,,,,,,,,,,,,,,,,,,,,,,,,,
,,,,,,00025,2023-09-04_12h49.47.430,vbt_B2_day2,2022.2.4,MacIntel,60.0024001,,,,,,,0.013051215,-0.123736979,1,0,0,0.9639,0,3,3,3,1,d,images/br_d.png,images/cb_d.png,,,,,,,,,,,,,,,,,,,,,,,,,,,,,,,,,,,,,,,,,,,,,,,
,,,,,,00025,2023-09-04_12h49.47.430,vbt_B2_day2,2022.2.4,MacIntel,60.0024001,,,,,,,0.013051215,-0.123736979,1,0,0,1.3165,0,4,4,14,1,o,images/br_o.png,images/cb_o.png,,,,,,,,,,,,,,,,,,,,,,,,,,,,,,,,,,,,,,,,,,,,,,,
,,,,,,00025,2023-09-04_12h49.47.430,vbt_B2_day2,2022.2.4,MacIntel,60.0024001,,,,,,,0.013051215,-0.123736979,1,0,0,4.2168,0,5,5,7,1,h,images/br_h.png,images/cb_h.png,,,,,,,,,,,,,,,,,,,,,,,,,,,,,,,,,,,,,,,,,,,,,,,
,,,,,,00025,2023-09-04_12h49.47.430,vbt_B2_day2,2022.2.4,MacIntel,60.0024001,,,,,,,0.013051215,-0.123736979,1,0,0,10.9027,0,6,6,10,1,k,images/br_k.png,images/cb_k.png,,,,,,,,,,,,,,,,,,,,,,,,,,,,,,,,,,,,,,,,,,,,,,,
,,,,,,00025,2023-09-04_12h49.47.430,vbt_B2_day2,2022.2.4,MacIntel,60.0024001,,,,,,,0.013051215,-0.123736979,1,0,0,0.1496,0,7,7,20,1,u,images/br_u.png,images/cb_u.png,,,,,,,,,,,,,,,,,,,,,,,,,,,,,,,,,,,,,,,,,,,,,,,
,,,,,,00025,2023-09-04_12h49.47.430,vbt_B2_day2,2022.2.4,MacIntel,60.0024001,,,,,,,0.013051215,-0.123736979,1,0,0,1.5838,0,8,8,16,1,q,images/br_q.png,images/cb_q.png,,,,,,,,,,,,,,,,,,,,,,,,,,,,,,,,,,,,,,,,,,,,,,,
,,,,,,00025,2023-09-04_12h49.47.430,vbt_B2_day2,2022.2.4,MacIntel,60.0024001,,,,,,,0.013051215,-0.123736979,1,0,0,0.7495,0,9,9,22,1,w,images/br_w.png,images/cb_w.png,,,,,,,,,,,,,,,,,,,,,,,,,,,,,,,,,,,,,,,,,,,,,,,
,,,,,,00025,2023-09-04_12h49.47.430,vbt_B2_day2,2022.2.4,MacIntel,60.0024001,,,,,,,0.013051215,-0.123736979,1,0,0,1.6494,0,10,10,23,1,x,images/br_x.png,images/cb_x.png,,,,,,,,,,,,,,,,,,,,,,,,,,,,,,,,,,,,,,,,,,,,,,,
,,,,,,00025,2023-09-04_12h49.47.430,vbt_B2_day2,2022.2.4,MacIntel,60.0024001,,,,,,,0.013051215,-0.123736979,1,0,0,2.833,0,11,11,21,1,v,images/br_v.png,images/cb_v.png,,,,,,,,,,,,,,,,,,,,,,,,,,,,,,,,,,,,,,,,,,,,,,,
,,,,,,00025,2023-09-04_12h49.47.430,vbt_B2_day2,2022.2.4,MacIntel,60.0024001,,,,,,,0.013051215,-0.123736979,1,0,0,1.2342,0,12,12,13,1,n,images/br_n.png,images/cb_n.png,,,,,,,,,,,,,,,,,,,,,,,,,,,,,,,,,,,,,,,,,,,,,,,
,,,,,,00025,2023-09-04_12h49.47.430,vbt_B2_day2,2022.2.4,MacIntel,60.0024001,,,,,,,0.013051215,-0.123736979,1,0,0,13.2505,0,13,13,18,1,s,images/br_s.png,images/cb_s.png,,,,,,,,,,,,,,,,,,,,,,,,,,,,,,,,,,,,,,,,,,,,,,,
,,,,,,00025,2023-09-04_12h49.47.430,vbt_B2_day2,2022.2.4,MacIntel,60.0024001,,,,,,,0.013051215,-0.123736979,1,0,0,0.0997,0,14,14,5,1,f,images/br_f.png,images/cb_f.png,,,,,,,,,,,,,,,,,,,,,,,,,,,,,,,,,,,,,,,,,,,,,,,
,,,,,,00025,2023-09-04_12h49.47.430,vbt_B2_day2,2022.2.4,MacIntel,60.0024001,,,,,,,0.013051215,-0.123736979,1,0,0,1.1335,0,15,15,24,1,y,images/br_y.png,images/cb_y.png,,,,,,,,,,,,,,,,,,,,,,,,,,,,,,,,,,,,,,,,,,,,,,,
,,,,,,00025,2023-09-04_12h49.47.430,vbt_B2_day2,2022.2.4,MacIntel,60.0024001,,,,,,,0.013051215,-0.123736979,1,0,0,2.935,0,16,16,15,1,p,images/br_p.png,images/cb_p.png,,,,,,,,,,,,,,,,,,,,,,,,,,,,,,,,,,,,,,,,,,,,,,,
,,,,,,00025,2023-09-04_12h49.47.430,vbt_B2_day2,2022.2.4,MacIntel,60.0024001,,,,,,,0.013051215,-0.123736979,1,0,0,3.3327,0,17,17,8,1,i,images/br_i.png,images/cb_i.png,,,,,,,,,,,,,,,,,,,,,,,,,,,,,,,,,,,,,,,,,,,,,,,
,,,,,,00025,2023-09-04_12h49.47.430,vbt_B2_day2,2022.2.4,MacIntel,60.0024001,,,,,,,0.013051215,-0.123736979,1,0,0,4.2639,0,18,18,1,1,b,images/br_b.png,images/cb_b.png,,,,,,,,,,,,,,,,,,,,,,,,,,,,,,,,,,,,,,,,,,,,,,,
,,,,,,00025,2023-09-04_12h49.47.430,vbt_B2_day2,2022.2.4,MacIntel,60.0024001,,,,,,,0.013051215,-0.123736979,1,0,0,7.449,0,19,19,11,1,l,images/br_l.png,images/cb_l.png,,,,,,,,,,,,,,,,,,,,,,,,,,,,,,,,,,,,,,,,,,,,,,,
,,,,,,00025,2023-09-04_12h49.47.430,vbt_B2_day2,2022.2.4,MacIntel,60.0024001,,,,,,,0.013051215,-0.123736979,1,0,0,0.2838,0,20,20,6,1,g,images/br_g.png,images/cb_g.png,,,,,,,,,,,,,,,,,,,,,,,,,,,,,,,,,,,,,,,,,,,,,,,
,,,,,,00025,2023-09-04_12h49.47.430,vbt_B2_day2,2022.2.4,MacIntel,60.0024001,,,,,,,0.013051215,-0.123736979,1,0,0,7.0369,0,21,21,2,1,c,images/br_c.png,images/cb_c.png,,,,,,,,,,,,,,,,,,,,,,,,,,,,,,,,,,,,,,,,,,,,,,,
,,,,,,00025,2023-09-04_12h49.47.430,vbt_B2_day2,2022.2.4,MacIntel,60.0024001,,,,,,,0.013051215,-0.123736979,1,0,0,3.1671,0,22,22,25,1,z,images/br_z.png,images/cb_z.png,,,,,,,,,,,,,,,,,,,,,,,,,,,,,,,,,,,,,,,,,,,,,,,
,,,,,,00025,2023-09-04_12h49.47.430,vbt_B2_day2,2022.2.4,MacIntel,60.0024001,,,,,,,0.013051215,-0.123736979,1,0,0,2.2334,0,23,23,19,1,t,images/br_t.png,images/cb_t.png,,,,,,,,,,,,,,,,,,,,,,,,,,,,,,,,,,,,,,,,,,,,,,,
,,,,,,00025,2023-09-04_12h49.47.430,vbt_B2_day2,2022.2.4,MacIntel,60.0024001,,,,,,,0.013051215,-0.123736979,1,0,0,9.1844,0,24,24,4,1,e,images/br_e.png,images/cb_e.png,,,,,,,,,,,,,,,,,,,,,,,,,,,,,,,,,,,,,,,,,,,,,,,
,,,,,,00025,2023-09-04_12h49.47.430,vbt_B2_day2,2022.2.4,MacIntel,60.0024001,,,,,,,0.013051215,-0.123736979,1,0,0,4.5518,0,25,25,0,1,a,images/br_a.png,images/cb_a.png,,,,,,,,,,,,,,,,,,,,,,,,,,,,,,,,,,,,,,,,,,,,,,,
,,,,,,00025,2023-09-04_12h49.47.430,vbt_B2_day2,2022.2.4,MacIntel,60.0024001,,,,,,,,,,,,,,,,,,,,,0.013051215,-0.123736979,1,0,0,19.4739,,,,,,,,,,,,,,,,,,,,,,,,,,,,,,,,,,,,,,,,,
,,,,,,00025,2023-09-04_12h49.47.430,vbt_B2_day2,2022.2.4,MacIntel,60.0024001,,,,,,,,,,,,,,,,,,,,,,,,,,,down,0,5.4361,,0.013051215,-0.123736979,1,0,0,5.1404,0,0,0,79,1,nodig,images/br_nodig.png,images/cb_nodig.png,0,,,,,,,,,,,,,,,,,,,,,,
,,,,,,00025,2023-09-04_12h49.47.430,vbt_B2_day2,2022.2.4,MacIntel,60.0024001,,,,,,,,,,,,,,,,,,,,,,,,,,,down,0,11.3574,,0.013051215,-0.123736979,1,0,0,1.6834,0,1,1,97,1,loyaal,images/br_loyaal.png,images/cb_loyaal.png,1,loyaal,,,,,,,,,,,,,,,,,,,,,
,,,,,,00025,2023-09-04_12h49.47.430,vbt_B2_day2,2022.2.4,MacIntel,60.0024001,,,,,,,,,,,,,,,,,,,,,,,,,,,down,0,4.0014,,0.014661458,-0.123042535,1,0,0,1.4489,0,2,2,13,1,kaal,images/br_kaal.png,images/cb_kaal.png,0,,,,,,,,,,,,,,,,,,,,,,
,,,,,,00025,2023-09-04_12h49.47.430,vbt_B2_day2,2022.2.4,MacIntel,60.0024001,,,,,,,,,,,,,,,,,,,,,,,,,,,down,0,2.5735,,0.014661458,-0.122786458,1,0,0,0.7494,0,3,3,12,1,kust,images/br_kust.png,images/cb_kust.png,0,,,,,,,,,,,,,,,,,,,,,,
,,,,,,00025,2023-09-04_12h49.47.430,vbt_B2_day2,2022.2.4,MacIntel,60.0024001,,,,,,,,,,,,,,,,,,,,,,,,,,,down,0,4.7001,,0.014661458,-0.122786458,1,0,0,11.4811,0,4,4,185,1,mijnheer,images/br_mijnheer.png,images/cb_mijnheer.png,0,,,,,,,,,,,,,,,,,,,,,,
,,,,,,00025,2023-09-04_12h49.47.430,vbt_B2_day2,2022.2.4,MacIntel,60.0024001,,,,,,,,,,,,,,,,,,,,,,,,,,,down,0,3.3068,,0.014661458,-0.122786458,1,0,0,5.1836,0,5,5,2,1,jaar,images/br_jaar.png,images/cb_jaar.png,0,,,,,,,,,,,,,,,,,,,,,,
,,,,,,00025,2023-09-04_12h49.47.430,vbt_B2_day2,2022.2.4,MacIntel,60.0024001,,,,,,,,,,,,,,,,,,,,,,,,,,,down,0,5.5068,,0.011493056,-0.117864583,1,0,0,3.3373,0,6,6,171,1,aarzelen,images/br_aarzelen.png,images/cb_aarzelen.png,0,,,,,,,,,,,,,,,,,,,,,,
,,,,,,00025,2023-09-04_12h49.47.430,vbt_B2_day2,2022.2.4,MacIntel,60.0024001,,,,,,,,,,,,,,,,,,,,,,,,,,,down,0,2.9114,,0.011493056,-0.117864583,1,0,0,6.2507,0,7,7,45,1,piste,images/br_piste.png,images/cb_piste.png,0,,,,,,,,,,,,,,,,,,,,,,
,,,,,,00025,2023-09-04_12h49.47.430,vbt_B2_day2,2022.2.4,MacIntel,60.0024001,,,,,,,,,,,,,,,,,,,,,,,,,,,down,0,3.8324,,0.011493056,-0.117864583,1,0,0,3.3175,0,8,8,43,1,klauw,images/br_klauw.png,images/cb_klauw.png,0,,,,,,,,,,,,,,,,,,,,,,
,,,,,,00025,2023-09-04_12h49.47.430,vbt_B2_day2,2022.2.4,MacIntel,60.0024001,,,,,,,,,,,,,,,,,,,,,,,,,,,down,0,7.282,,-0.014861111,-0.093697917,1,0,0,4.6656,0,9,9,192,1,schaamte,images/br_schaamte.png,images/cb_schaamte.png,0,,,,,,,,,,,,,,,,,,,,,,
,,,,,,00025,2023-09-04_12h49.47.430,vbt_B2_day2,2022.2.4,MacIntel,60.0024001,,,,,,,,,,,,,,,,,,,,,,,,,,,down,0,6.272,,-0.014861111,-0.093697917,1,0,0,4.3198,0,10,10,140,1,blijven,images/br_blijven.png,images/cb_blijven.png,0,,,,,,,,,,,,,,,,,,,,,,
,,,,,,00025,2023-09-04_12h49.47.430,vbt_B2_day2,2022.2.4,MacIntel,60.0024001,,,,,,,,,,,,,,,,,,,,,,,,,,,down,0,51.185,,-0.014861111,-0.093697917,1,0,0,17.8178,0,11,11,195,1,middelen,images/br_middelen.png,images/cb_middelen.png,0,,,,,,,,,,,,,,,,,,,,,,
,,,,,,00025,2023-09-04_12h49.47.430,vbt_B2_day2,2022.2.4,MacIntel,60.0024001,,,,,,,,,,,,,,,,,,,,,,,,,,,down,0,6.0019,,-0.014861111,-0.093697917,1,0,0,13.8829,0,12,12,186,1,voorraad,images/br_voorraad.png,images/cb_voorraad.png,0,,,,,,,,,,,,,,,,,,,,,,
,,,,,,00025,2023-09-04_12h49.47.430,vbt_B2_day2,2022.2.4,MacIntel,60.0024001,,,,,,,,,,,,,,,,,,,,,,,,,,,down,0,21.2758,,-0.014861111,-0.093697917,1,0,0,3.5001,0,13,13,165,1,feestdag,images/br_feestdag.png,images/cb_feestdag.png,0,,,,,,,,,,,,,,,,,,,,,,
,,,,,,00025,2023-09-04_12h49.47.430,vbt_B2_day2,2022.2.4,MacIntel,60.0024001,,,,,,,,,,,,,,,,,,,,,,,,,,,down,0,2.5864,,-0.014861111,-0.093697917,1,0,0,7.5507,0,14,14,5,1,blad,images/br_blad.png,images/cb_blad.png,0,,,,,,,,,,,,,,,,,,,,,,
,,,,,,00025,2023-09-04_12h49.47.430,vbt_B2_day2,2022.2.4,MacIntel,60.0024001,,,,,,,,,,,,,,,,,,,,,,,,,,,down,0,42.4525,,-0.014861111,-0.093697917,1,0,0,5.784,0,15,15,124,1,bloeien,images/br_bloeien.png,images/cb_bloeien.png,0,,,,,,,,,,,,,,,,,,,,,,
,,,,,,00025,2023-09-04_12h49.47.430,vbt_B2_day2,2022.2.4,MacIntel,60.0024001,,,,,,,,,,,,,,,,,,,,,,,,,,,down,0,6.4987,,-0.014861111,-0.093697917,1,0,0,7.2019,0,16,16,110,1,zuster,images/br_zuster.png,images/cb_zuster.png,0,,,,,,,,,,,,,,,,,,,,,,
,,,,,,00025,2023-09-04_12h49.47.430,vbt_B2_day2,2022.2.4,MacIntel,60.0024001,,,,,,,,,,,,,,,,,,,,,,,,,,,down,0,5.8881,,-0.014861111,-0.093697917,1,0,0,11.6674,0,17,17,44,1,flits,images/br_flits.png,images/cb_flits.png,0,,,,,,,,,,,,,,,,,,,,,,
,,,,,,00025,2023-09-04_12h49.47.430,vbt_B2_day2,2022.2.4,MacIntel,60.0024001,,,,,,,,,,,,,,,,,,,,,,,,,,,down,0,15.5307,,-0.014861111,-0.093697917,1,0,0,34.215,0,18,18,149,1,redding,images/br_redding.png,images/cb_redding.png,0,,,,,,,,,,,,,,,,,,,,,,
,,,,,,00025,2023-09-04_12h49.47.430,vbt_B2_day2,2022.2.4,MacIntel,60.0024001,,,,,,,,,,,,,,,,,,,,,,,,,,,down,0,9.5074,,-0.014861111,-0.093697917,1,0,0,2.7148,0,19,19,184,1,aandelen,images/br_aandelen.png,images/cb_aandelen.png,0,,,,,,,,,,,,,,,,,,,,,,
,,,,,,00025,2023-09-04_12h49.47.430,vbt_B2_day2,2022.2.4,MacIntel,60.0024001,,,,,,,,,,,,,,,,,,,,,,,,,,,down,0,1.7546,,-0.014861111,-0.093697917,1,0,0,1.4503,0,20,20,9,1,hier,images/br_hier.png,images/cb_hier.png,0,,,,,,,,,,,,,,,,,,,,,,
,,,,,,00025,2023-09-04_12h49.47.430,vbt_B2_day2,2022.2.4,MacIntel,60.0024001,,,,,,,,,,,,,,,,,,,,,,,,,,,down,0,4.4631,,-0.014861111,-0.093697917,1,0,0,0.6653,0,21,21,53,1,baron,images/br_baron.png,images/cb_baron.png,0,,,,,,,,,,,,,,,,,,,,,,
,,,,,,00025,2023-09-04_12h49.47.430,vbt_B2_day2,2022.2.4,MacIntel,60.0024001,,,,,,,,,,,,,,,,,,,,,,,,,,,down,0,6.3025,,-0.014861111,-0.093697917,1,0,0,0.6302,0,22,22,63,1,flirt,images/br_flirt.png,images/cb_flirt.png,0,,,,,,,,,,,,,,,,,,,,,,
,,,,,,00025,2023-09-04_12h49.47.430,vbt_B2_day2,2022.2.4,MacIntel,60.0024001,,,,,,,,,,,,,,,,,,,,,,,,,,,down,0,2.9331,,-0.014861111,-0.093697917,1,0,0,0.6006,0,23,23,7,1,geld,images/br_geld.png,images/cb_geld.png,0,,,,,,,,,,,,,,,,,,,,,,
,,,,,,00025,2023-09-04_12h49.47.430,vbt_B2_day2,2022.2.4,MacIntel,60.0024001,,,,,,,,,,,,,,,,,,,,,,,,,,,down,0,4.7036,,-0.014861111,-0.093697917,1,0,0,3.0341,0,24,24,125,1,aanzien,images/br_aanzien.png,images/cb_aanzien.png,0,,,,,,,,,,,,,,,,,,,,,,
,,,,,,00025,2023-09-04_12h49.47.430,vbt_B2_day2,2022.2.4,MacIntel,60.0024001,,,,,,,,,,,,,,,,,,,,,,,,,,,down,0,7.9256,,-0.014861111,-0.093697917,1,0,0,3.7477,0,25,25,169,1,oprotten,images/br_oprotten.png,images/cb_oprotten.png,0,,,,,,,,,,,,,,,,,,,,,,
,,,,,,00025,2023-09-04_12h49.47.430,vbt_B2_day2,2022.2.4,MacIntel,60.0024001,,,,,,,,,,,,,,,,,,,,,,,,,,,down,0,14.762,,-0.018715278,-0.300486111,1,0,0,3.6992,0,26,26,98,1,kreeft,images/br_kreeft.png,images/cb_kreeft.png,1,.reedt.reedt,,,,,,,,,,,,,,,,,,,,,
,,,,,,00025,2023-09-04_12h49.47.430,vbt_B2_day2,2022.2.4,MacIntel,60.0024001,,,,,,,,,,,,,,,,,,,,,,,,,,,down,0,3.3238,,-0.018715278,-0.300486111,1,0,0,0.8685,0,27,27,31,1,poes,images/br_poes.png,images/cb_poes.png,0,,,,,,,,,,,,,,,,,,,,,,
,,,,,,00025,2023-09-04_12h49.47.430,vbt_B2_day2,2022.2.4,MacIntel,60.0024001,,,,,,,,,,,,,,,,,,,,,,,,,,,down,0,19.798,,-0.018715278,-0.300486111,1,0,0,49.4004,0,28,28,183,1,getuigen,images/br_getuigen.png,images/cb_getuigen.png,0,,,,,,,,,,,,,,,,,,,,,,
,,,,,,00025,2023-09-04_12h49.47.430,vbt_B2_day2,2022.2.4,MacIntel,60.0024001,,,,,,,,,,,,,,,,,,,,,,,,,,,down,0,3.3031,,-0.018715278,-0.300486111,1,0,0,4.0856,0,29,29,112,1,lukken,images/br_lukken.png,images/cb_lukken.png,0,,,,,,,,,,,,,,,,,,,,,,
,,,,,,00025,2023-09-04_12h49.47.430,vbt_B2_day2,2022.2.4,MacIntel,60.0024001,,,,,,,,,,,,,,,,,,,,,,,,,,,down,0,5.2682,,-0.018715278,-0.300486111,1,0,0,2.6833,0,30,30,91,1,gezond,images/br_gezond.png,images/cb_gezond.png,0,,,,,,,,,,,,,,,,,,,,,,
,,,,,,00025,2023-09-04_12h49.47.430,vbt_B2_day2,2022.2.4,MacIntel,60.0024001,,,,,,,,,,,,,,,,,,,,,,,,,,,down,0,4.9359,,-0.018715278,-0.300486111,1,0,0,0.5807,0,31,31,173,1,apparaat,images/br_apparaat.png,images/cb_apparaat.png,0,,,,,,,,,,,,,,,,,,,,,,
,,,,,,00025,2023-09-04_12h49.47.430,vbt_B2_day2,2022.2.4,MacIntel,60.0024001,,,,,,,,,,,,,,,,,,,,,,,,,,,down,0,13.9868,,-0.018715278,-0.300486111,1,0,0,0.5841,0,32,32,176,1,techniek,images/br_techniek.png,images/cb_techniek.png,1,techniek,,,,,,,,,,,,,,,,,,,,,
,,,,,,00025,2023-09-04_12h49.47.430,vbt_B2_day2,2022.2.4,MacIntel,60.0024001,,,,,,,,,,,,,,,,,,,,,,,,,,,down,0,2.8229,,-0.018715278,-0.300486111,1,0,0,2.1497,0,33,33,30,1,uien,images/br_uien.png,images/cb_uien.png,0,,,,,,,,,,,,,,,,,,,,,,
,,,,,,00025,2023-09-04_12h49.47.430,vbt_B2_day2,2022.2.4,MacIntel,60.0024001,,,,,,,,,,,,,,,,,,,,,,,,,,,down,0,3.12,,-0.018715278,-0.300486111,1,0,0,14.1678,0,34,34,49,1,laken,images/br_laken.png,images/cb_laken.png,0,,,,,,,,,,,,,,,,,,,,,,
,,,,,,00025,2023-09-04_12h49.47.430,vbt_B2_day2,2022.2.4,MacIntel,60.0024001,,,,,,,,,,,,,,,,,,,,,,,,,,,down,0,2.9354,,0.049032118,-0.102105035,1,0,0,0.8836,0,35,35,56,1,traag,images/br_traag.png,images/cb_traag.png,1,traag,,,,,,,,,,,,,,,,,,,,,
,,,,,,00025,2023-09-04_12h49.47.430,vbt_B2_day2,2022.2.4,MacIntel,60.0024001,,,,,,,,,,,,,,,,,,,,,,,,,,,down,0,4.2836,,0.049032118,-0.10266059,1,0,0,1.7666,0,36,36,77,1,woede,images/br_woede.png,images/cb_woede.png,0,,,,,,,,,,,,,,,,,,,,,,
,,,,,,00025,2023-09-04_12h49.47.430,vbt_B2_day2,2022.2.4,MacIntel,60.0024001,,,,,,,,,,,,,,,,,,,,,,,,,,,down,0,1.8884,,0.050677083,-0.105347222,1,0,0,0.5198,0,37,37,78,1,leren,images/br_leren.png,images/cb_leren.png,0,,,,,,,,,,,,,,,,,,,,,,
,,,,,,00025,2023-09-04_12h49.47.430,vbt_B2_day2,2022.2.4,MacIntel,60.0024001,,,,,,,,,,,,,,,,,,,,,,,,,,,down,0,0.4387,,0.050677083,-0.105347222,1,0,0,0.8856,0,38,38,1,1,zaal,images/br_zaal.png,images/cb_zaal.png,0,,,,,,,,,,,,,,,,,,,,,,
,,,,,,00025,2023-09-04_12h49.47.430,vbt_B2_day2,2022.2.4,MacIntel,60.0024001,,,,,,,,,,,,,,,,,,,,,,,,,,,down,0,0.8836,,0.050677083,-0.105347222,1,0,0,0.8025,0,39,39,10,1,leek,images/br_leek.png,images/cb_leek.png,0,,,,,,,,,,,,,,,,,,,,,,
,,,,,,00025,2023-09-04_12h49.47.430,vbt_B2_day2,2022.2.4,MacIntel,60.0024001,,,,,,,,,,,,,,,,,,,,,,,,,,,down,0,3.5212,,0.050677083,-0.106111111,1,0,0,2.4005,0,40,40,82,1,muziek,images/br_muziek.png,images/cb_muziek.png,0,,,,,,,,,,,,,,,,,,,,,,
,,,,,,00025,2023-09-04_12h49.47.430,vbt_B2_day2,2022.2.4,MacIntel,60.0024001,,,,,,,,,,,,,,,,,,,,,,,,,,,down,0,1.7676,,0.050677083,-0.106111111,1,0,0,0.5354,0,41,41,42,1,bleek,images/br_bleek.png,images/cb_bleek.png,0,,,,,,,,,,,,,,,,,,,,,,
,,,,,,00025,2023-09-04_12h49.47.430,vbt_B2_day2,2022.2.4,MacIntel,60.0024001,,,,,,,,,,,,,,,,,,,,,,,,,,,down,0,1.6506,,0.050677083,-0.106111111,1,0,0,0.5998,0,42,42,17,1,taal,images/br_taal.png,images/cb_taal.png,1,taal,,,,,,,,,,,,,,,,,,,,,
,,,,,,00025,2023-09-04_12h49.47.430,vbt_B2_day2,2022.2.4,MacIntel,60.0024001,,,,,,,,,,,,,,,,,,,,,,,,,,,down,0,5.3567,,0.050677083,-0.106111111,1,0,0,0.5178,0,43,43,180,1,openbaar,images/br_openbaar.png,images/cb_openbaar.png,0,,,,,,,,,,,,,,,,,,,,,,
,,,,,,00025,2023-09-04_12h49.47.430,vbt_B2_day2,2022.2.4,MacIntel,60.0024001,,,,,,,,,,,,,,,,,,,,,,,,,,,down,0,5.9164,,0.050677083,-0.106111111,1,0,0,0.547,0,44,44,145,1,invloed,images/br_invloed.png,images/cb_invloed.png,0,,,,,,,,,,,,,,,,,,,,,,
,,,,,,00025,2023-09-04_12h49.47.430,vbt_B2_day2,2022.2.4,MacIntel,60.0024001,,,,,,,,,,,,,,,,,,,,,,,,,,,down,0,3.2534,,0.050677083,-0.106618924,1,0,0,0.7337,0,45,45,141,1,knielen,images/br_knielen.png,images/cb_knielen.png,0,,,,,,,,,,,,,,,,,,,,,,
,,,,,,00025,2023-09-04_12h49.47.430,vbt_B2_day2,2022.2.4,MacIntel,60.0024001,,,,,,,,,,,,,,,,,,,,,,,,,,,down,0,3.0256,,0.050677083,-0.108841146,1,0,0,5.0664,0,46,46,3,1,mand,images/br_mand.png,images/cb_mand.png,0,,,,,,,,,,,,,,,,,,,,,,
,,,,,,00025,2023-09-04_12h49.47.430,vbt_B2_day2,2022.2.4,MacIntel,60.0024001,,,,,,,,,,,,,,,,,,,,,,,,,,,down,0,0.0712,,0.050677083,-0.108841146,1,0,0,7.4372,0,47,47,86,1,woning,images/br_woning.png,images/cb_woning.png,0,,,,,,,,,,,,,,,,,,,,,,
,,,,,,00025,2023-09-04_12h49.47.430,vbt_B2_day2,2022.2.4,MacIntel,60.0024001,,,,,,,,,,,,,,,,,,,,,,,,,,,down,0,3.9856,,0.050677083,-0.108841146,1,0,0,0.534,0,48,48,84,1,lokken,images/br_lokken.png,images/cb_lokken.png,0,,,,,,,,,,,,,,,,,,,,,,
,,,,,,00025,2023-09-04_12h49.47.430,vbt_B2_day2,2022.2.4,MacIntel,60.0024001,,,,,,,,,,,,,,,,,,,,,,,,,,,down,0,4.9394,,0.050677083,-0.108841146,1,0,0,4.1196,0,49,49,152,1,afnemen,images/br_afnemen.png,images/cb_afnemen.png,0,,,,,,,,,,,,,,,,,,,,,,
,,,,,,00025,2023-09-04_12h49.47.430,vbt_B2_day2,2022.2.4,MacIntel,60.0024001,,,,,,,,,,,,,,,,,,,,,,,,,,,down,0,4.5492,,0.050677083,-0.108841146,1,0,0,6.9327,0,50,50,80,1,kanjer,images/br_kanjer.png,images/cb_kanjer.png,0,,,,,,,,,,,,,,,,,,,,,,
,,,,,,00025,2023-09-04_12h49.47.430,vbt_B2_day2,2022.2.4,MacIntel,60.0024001,,,,,,,,,,,,,,,,,,,,,,,,,,,down,0,1.9836,,0.050677083,-0.108841146,1,0,0,0.5256,0,51,51,18,1,blik,images/br_blik.png,images/cb_blik.png,1,blik,,,,,,,,,,,,,,,,,,,,,
,,,,,,00025,2023-09-04_12h49.47.430,vbt_B2_day2,2022.2.4,MacIntel,60.0024001,,,,,,,,,,,,,,,,,,,,,,,,,,,down,0,1.3249,,0.050677083,-0.108841146,1,0,0,0.4526,0,52,52,55,1,praat,images/br_praat.png,images/cb_praat.png,0,,,,,,,,,,,,,,,,,,,,,,
,,,,,,00025,2023-09-04_12h49.47.430,vbt_B2_day2,2022.2.4,MacIntel,60.0024001,,,,,,,,,,,,,,,,,,,,,,,,,,,down,0,19.3151,,0.050677083,-0.108841146,1,0,0,0.6661,0,53,53,29,1,baas,images/br_baas.png,images/cb_baas.png,0,,,,,,,,,,,,,,,,,,,,,,
,,,,,,00025,2023-09-04_12h49.47.430,vbt_B2_day2,2022.2.4,MacIntel,60.0024001,,,,,,,,,,,,,,,,,,,,,,,,,,,down,0,3.5417,,0.050677083,-0.108841146,1,0,0,0.5514,0,54,54,16,1,ziek,images/br_ziek.png,images/cb_ziek.png,1,ziek,,,,,,,,,,,,,,,,,,,,,
,,,,,,00025,2023-09-04_12h49.47.430,vbt_B2_day2,2022.2.4,MacIntel,60.0024001,,,,,,,,,,,,,,,,,,,,,,,,,,,down,0,4.2756,,0.052165799,-0.109813368,1,0,0,3.4997,0,55,55,127,1,doodmoe,images/br_doodmoe.png,images/cb_doodmoe.png,0,,,,,,,,,,,,,,,,,,,,,,
,,,,,,00025,2023-09-04_12h49.47.430,vbt_B2_day2,2022.2.4,MacIntel,60.0024001,,,,,,,,,,,,,,,,,,,,,,,,,,,down,0,0.9713,,0.052460937,-0.110368924,1,0,0,17.9374,0,56,56,70,1,ijdel,images/br_ijdel.png,images/cb_ijdel.png,0,,,,,,,,,,,,,,,,,,,,,,
,,,,,,00025,2023-09-04_12h49.47.430,vbt_B2_day2,2022.2.4,MacIntel,60.0024001,,,,,,,,,,,,,,,,,,,,,,,,,,,down,0,2.7068,,0.052460937,-0.11062066,1,0,0,16.7331,0,57,57,93,1,waarop,images/br_waarop.png,images/cb_waarop.png,0,,,,,,,,,,,,,,,,,,,,,,
,,,,,,00025,2023-09-04_12h49.47.430,vbt_B2_day2,2022.2.4,MacIntel,60.0024001,,,,,,,,,,,,,,,,,,,,,,,,,,,down,0,26.2948,,0.052460937,-0.11062066,1,0,0,21.5339,0,58,58,126,1,kasteel,images/br_kasteel.png,images/cb_kasteel.png,0,,,,,,,,,,,,,,,,,,,,,,
,,,,,,00025,2023-09-04_12h49.47.430,vbt_B2_day2,2022.2.4,MacIntel,60.0024001,,,,,,,,,,,,,,,,,,,,,,,,,,,down,0,3.8851,,0.055134549,-0.112482639,1,0,0,0.5361,0,59,59,190,1,goedkoop,images/br_goedkoop.png,images/cb_goedkoop.png,0,,,,,,,,,,,,,,,,,,,,,,
,,,,,,00025,2023-09-04_12h49.47.430,vbt_B2_day2,2022.2.4,MacIntel,60.0024001,,,,,,,,,,,,,,,,,,,,,,,,,,,down,0,3.3539,,0.054874132,-0.112482639,1,0,0,3.2973,0,60,60,142,1,snuiven,images/br_snuiven.png,images/cb_snuiven.png,0,,,,,,,,,,,,,,,,,,,,,,
,,,,,,00025,2023-09-04_12h49.47.430,vbt_B2_day2,2022.2.4,MacIntel,60.0024001,,,,,,,,,,,,,,,,,,,,,,,,,,,down,0,3.1515,,0.054874132,-0.112482639,1,0,0,4.4497,0,61,61,143,1,hechten,images/br_hechten.png,images/cb_hechten.png,0,,,,,,,,,,,,,,,,,,,,,,
,,,,,,00025,2023-09-04_12h49.47.430,vbt_B2_day2,2022.2.4,MacIntel,60.0024001,,,,,,,,,,,,,,,,,,,,,,,,,,,down,0,5.5706,,0.054874132,-0.112482639,1,0,0,30.787,0,62,62,72,1,strak,images/br_strak.png,images/cb_strak.png,0,,,,,,,,,,,,,,,,,,,,,,
,,,,,,00025,2023-09-04_12h49.47.430,vbt_B2_day2,2022.2.4,MacIntel,60.0024001,,,,,,,,,,,,,,,,,,,,,,,,,,,down,0,3.074,,0.053498264,-0.126710069,1,0,0,0.5834,0,63,63,61,1,groen,images/br_groen.png,images/cb_groen.png,0,,,,,,,,,,,,,,,,,,,,,,
,,,,,,00025,2023-09-04_12h49.47.430,vbt_B2_day2,2022.2.4,MacIntel,60.0024001,,,,,,,,,,,,,,,,,,,,,,,,,,,down,0,21.5062,,0.053498264,-0.126710069,1,0,0,0.8173,0,64,64,46,1,jagen,images/br_jagen.png,images/cb_jagen.png,0,,,,,,,,,,,,,,,,,,,,,,
,,,,,,00025,2023-09-04_12h49.47.430,vbt_B2_day2,2022.2.4,MacIntel,60.0024001,,,,,,,,,,,,,,,,,,,,,,,,,,,down,0,2.3499,,0.053498264,-0.126710069,1,0,0,0.7835,0,65,65,162,1,uitdelen,images/br_uitdelen.png,images/cb_uitdelen.png,0,,,,,,,,,,,,,,,,,,,,,,
,,,,,,00025,2023-09-04_12h49.47.430,vbt_B2_day2,2022.2.4,MacIntel,60.0024001,,,,,,,,,,,,,,,,,,,,,,,,,,,down,0,18.2537,,0.053498264,-0.126710069,1,0,0,1.2187,0,66,66,88,1,boeien,images/br_boeien.png,images/cb_boeien.png,0,,,,,,,,,,,,,,,,,,,,,,
,,,,,,00025,2023-09-04_12h49.47.430,vbt_B2_day2,2022.2.4,MacIntel,60.0024001,,,,,,,,,,,,,,,,,,,,,,,,,,,down,0,2.2327,,0.053498264,-0.126710069,1,0,0,0.7353,0,67,67,41,1,maken,images/br_maken.png,images/cb_maken.png,0,,,,,,,,,,,,,,,,,,,,,,
,,,,,,00025,2023-09-04_12h49.47.430,vbt_B2_day2,2022.2.4,MacIntel,60.0024001,,,,,,,,,,,,,,,,,,,,,,,,,,,down,0,24.5521,,0.050425347,-0.126710069,1,0,0,20.4548,0,68,68,154,1,aflopen,images/br_aflopen.png,images/cb_aflopen.png,0,,,,,,,,,,,,,,,,,,,,,,
,,,,,,00025,2023-09-04_12h49.47.430,vbt_B2_day2,2022.2.4,MacIntel,60.0024001,,,,,,,,,,,,,,,,,,,,,,,,,,,down,0,1.3512,,0.05046441,-0.096223958,1,0,0,0.7022,0,69,69,135,1,gedicht,images/br_gedicht.png,images/cb_gedicht.png,0,,,,,,,,,,,,,,,,,,,,,,
,,,,,,00025,2023-09-04_12h49.47.430,vbt_B2_day2,2022.2.4,MacIntel,60.0024001,,,,,,,,,,,,,,,,,,,,,,,,,,,down,0,1.9672,,0.049769965,-0.095529514,1,0,0,0.6833,0,70,70,32,1,palm,images/br_palm.png,images/cb_palm.png,0,,,,,,,,,,,,,,,,,,,,,,
,,,,,,00025,2023-09-04_12h49.47.430,vbt_B2_day2,2022.2.4,MacIntel,60.0024001,,,,,,,,,,,,,,,,,,,,,,,,,,,down,0,0.9383,,0.049769965,-0.095529514,1,0,0,0.9839,0,71,71,116,1,besmet,images/br_besmet.png,images/cb_besmet.png,0,,,,,,,,,,,,,,,,,,,,,,
,,,,,,00025,2023-09-04_12h49.47.430,vbt_B2_day2,2022.2.4,MacIntel,60.0024001,,,,,,,,,,,,,,,,,,,,,,,,,,,down,0,23.3502,,0.049769965,-0.095529514,1,0,0,0.8498,0,72,72,148,1,smullen,images/br_smullen.png,images/cb_smullen.png,0,,,,,,,,,,,,,,,,,,,,,,
,,,,,,00025,2023-09-04_12h49.47.430,vbt_B2_day2,2022.2.4,MacIntel,60.0024001,,,,,,,,,,,,,,,,,,,,,,,,,,,down,0,4.2535,,0.049769965,-0.095529514,1,0,0,1.3974,0,73,73,187,1,opkijken,images/br_opkijken.png,images/cb_opkijken.png,0,,,,,,,,,,,,,,,,,,,,,,
,,,,,,00025,2023-09-04_12h49.47.430,vbt_B2_day2,2022.2.4,MacIntel,60.0024001,,,,,,,,,,,,,,,,,,,,,,,,,,,down,0,4.9687,,0.049769965,-0.095529514,1,0,0,0.6687,0,74,74,57,1,steek,images/br_steek.png,images/cb_steek.png,1,steek,,,,,,,,,,,,,,,,,,,,,
,,,,,,00025,2023-09-04_12h49.47.430,vbt_B2_day2,2022.2.4,MacIntel,60.0024001,,,,,,,,,,,,,,,,,,,,,,,,,,,down,0,1.5533,,0.049769965,-0.095529514,1,0,0,4.7502,0,75,75,132,1,grappen,images/br_grappen.png,images/cb_grappen.png,0,,,,,,,,,,,,,,,,,,,,,,
,,,,,,00025,2023-09-04_12h49.47.430,vbt_B2_day2,2022.2.4,MacIntel,60.0024001,,,,,,,,,,,,,,,,,,,,,,,,,,,down,0,3.6886,,0.049769965,-0.095529514,1,0,0,0.585,0,76,76,65,1,parel,images/br_parel.png,images/cb_parel.png,0,,,,,,,,,,,,,,,,,,,,,,
,,,,,,00025,2023-09-04_12h49.47.430,vbt_B2_day2,2022.2.4,MacIntel,60.0024001,,,,,,,,,,,,,,,,,,,,,,,,,,,down,0,0.4226,,0.049769965,-0.095529514,1,0,0,0.8677,0,77,77,153,1,vervoer,images/br_vervoer.png,images/cb_vervoer.png,0,,,,,,,,,,,,,,,,,,,,,,
,,,,,,00025,2023-09-04_12h49.47.430,vbt_B2_day2,2022.2.4,MacIntel,60.0024001,,,,,,,,,,,,,,,,,,,,,,,,,,,down,0,1.4852,,0.049769965,-0.095529514,1,0,0,0.6667,0,78,78,117,1,kennis,images/br_kennis.png,images/cb_kennis.png,0,,,,,,,,,,,,,,,,,,,,,,
,,,,,,00025,2023-09-04_12h49.47.430,vbt_B2_day2,2022.2.4,MacIntel,60.0024001,,,,,,,,,,,,,,,,,,,,,,,,,,,down,0,2.4017,,-0.032591146,-0.101875,1,0,0,0.8355,0,79,79,54,1,gebit,images/br_gebit.png,images/cb_gebit.png,0,,,,,,,,,,,,,,,,,,,,,,
,,,,,,00025,2023-09-04_12h49.47.430,vbt_B2_day2,2022.2.4,MacIntel,60.0024001,,,,,,,,,,,,,,,,,,,,,,,,,,,down,0,5.7923,,-0.032591146,-0.101875,1,0,0,0.5175,0,80,80,99,1,koffie,images/br_koffie.png,images/cb_koffie.png,1,koffie,,,,,,,,,,,,,,,,,,,,,
,,,,,,00025,2023-09-04_12h49.47.430,vbt_B2_day2,2022.2.4,MacIntel,60.0024001,,,,,,,,,,,,,,,,,,,,,,,,,,,down,0,0.0345,,-0.032591146,-0.101875,1,0,0,0.4351,0,81,81,158,1,innemen,images/br_innemen.png,images/cb_innemen.png,0,,,,,,,,,,,,,,,,,,,,,,
,,,,,,00025,2023-09-04_12h49.47.430,vbt_B2_day2,2022.2.4,MacIntel,60.0024001,,,,,,,,,,,,,,,,,,,,,,,,,,,down,0,5.7205,,-0.032591146,-0.101875,1,0,0,12.001,0,82,82,130,1,keihard,images/br_keihard.png,images/cb_keihard.png,0,,,,,,,,,,,,,,,,,,,,,,
,,,,,,00025,2023-09-04_12h49.47.430,vbt_B2_day2,2022.2.4,MacIntel,60.0024001,,,,,,,,,,,,,,,,,,,,,,,,,,,down,0,0.2425,,-0.032591146,-0.101875,1,0,0,0.7647,0,83,83,197,1,spanning,images/br_spanning.png,images/cb_spanning.png,0,,,,,,,,,,,,,,,,,,,,,,
,,,,,,00025,2023-09-04_12h49.47.430,vbt_B2_day2,2022.2.4,MacIntel,60.0024001,,,,,,,,,,,,,,,,,,,,,,,,,,,down,0,1.8899,,-0.030902778,-0.101480035,1,0,0,2.4661,0,84,84,133,1,seizoen,images/br_seizoen.png,images/cb_seizoen.png,0,,,,,,,,,,,,,,,,,,,,,,
,,,,,,00025,2023-09-04_12h49.47.430,vbt_B2_day2,2022.2.4,MacIntel,60.0024001,,,,,,,,,,,,,,,,,,,,,,,,,,,down,0,16.7551,,-0.135499132,-0.137087674,1,0,0,0.8001,0,85,85,27,1,dans,images/br_dans.png,images/cb_dans.png,0,,,,,,,,,,,,,,,,,,,,,,
,,,,,,00025,2023-09-04_12h49.47.430,vbt_B2_day2,2022.2.4,MacIntel,60.0024001,,,,,,,,,,,,,,,,,,,,,,,,,,,down,0,7.8057,,-0.135499132,-0.137087674,1,0,0,6.734,0,86,86,175,1,heengaan,images/br_heengaan.png,images/cb_heengaan.png,0,,,,,,,,,,,,,,,,,,,,,,
,,,,,,00025,2023-09-04_12h49.47.430,vbt_B2_day2,2022.2.4,MacIntel,60.0024001,,,,,,,,,,,,,,,,,,,,,,,,,,,down,0,0.7031,,-0.135499132,-0.137087674,1,0,0,0.8661,0,87,87,134,1,geliefd,images/br_geliefd.png,images/cb_geliefd.png,0,,,,,,,,,,,,,,,,,,,,,,
,,,,,,00025,2023-09-04_12h49.47.430,vbt_B2_day2,2022.2.4,MacIntel,60.0024001,,,,,,,,,,,,,,,,,,,,,,,,,,,down,0,0.826,,-0.135499132,-0.137087674,1,0,0,0.6327,0,88,88,48,1,steel,images/br_steel.png,images/cb_steel.png,0,,,,,,,,,,,,,,,,,,,,,,
,,,,,,00025,2023-09-04_12h49.47.430,vbt_B2_day2,2022.2.4,MacIntel,60.0024001,,,,,,,,,,,,,,,,,,,,,,,,,,,down,0,35.6509,,-0.135499132,-0.137087674,1,0,0,0.9309,0,89,89,120,1,klimmen,images/br_klimmen.png,images/cb_klimmen.png,0,,,,,,,,,,,,,,,,,,,,,,
,,,,,,00025,2023-09-04_12h49.47.430,vbt_B2_day2,2022.2.4,MacIntel,60.0024001,,,,,,,,,,,,,,,,,,,,,,,,,,,down,0,31.649,,-0.135499132,-0.137087674,1,0,0,64.0197,0,90,90,199,1,beseffen,images/br_beseffen.png,images/cb_beseffen.png,0,,,,,,,,,,,,,,,,,,,,,,
,,,,,,00025,2023-09-04_12h49.47.430,vbt_B2_day2,2022.2.4,MacIntel,60.0024001,,,,,,,,,,,,,,,,,,,,,,,,,,,down,0,41.4517,,-0.135499132,-0.137087674,1,0,0,24.3033,0,91,91,8,1,knie,images/br_knie.png,images/cb_knie.png,0,,,,,,,,,,,,,,,,,,,,,,
,,,,,,00025,2023-09-04_12h49.47.430,vbt_B2_day2,2022.2.4,MacIntel,60.0024001,,,,,,,,,,,,,,,,,,,,,,,,,,,down,0,0.1655,,-0.135499132,-0.137087674,1,0,0,0.6665,0,92,92,159,1,sufferd,images/br_sufferd.png,images/cb_sufferd.png,0,,,,,,,,,,,,,,,,,,,,,,
,,,,,,00025,2023-09-04_12h49.47.430,vbt_B2_day2,2022.2.4,MacIntel,60.0024001,,,,,,,,,,,,,,,,,,,,,,,,,,,down,0,0.0032,,-0.135499132,-0.137087674,1,0,0,0.8637,0,93,93,94,1,oceaan,images/br_oceaan.png,images/cb_oceaan.png,0,,,,,,,,,,,,,,,,,,,,,,
,,,,,,00025,2023-09-04_12h49.47.430,vbt_B2_day2,2022.2.4,MacIntel,60.0024001,,,,,,,,,,,,,,,,,,,,,,,,,,,down,0,1.1161,,-0.135499132,-0.137087674,1,0,0,1.0492,0,94,94,25,1,plek,images/br_plek.png,images/cb_plek.png,0,,,,,,,,,,,,,,,,,,,,,,
,,,,,,00025,2023-09-04_12h49.47.430,vbt_B2_day2,2022.2.4,MacIntel,60.0024001,,,,,,,,,,,,,,,,,,,,,,,,,,,down,0,0.8033,,-0.135499132,-0.137087674,1,0,0,0.7988,0,95,95,33,1,vlek,images/br_vlek.png,images/cb_vlek.png,0,,,,,,,,,,,,,,,,,,,,,,
,,,,,,00025,2023-09-04_12h49.47.430,vbt_B2_day2,2022.2.4,MacIntel,60.0024001,,,,,,,,,,,,,,,,,,,,,,,,,,,down,0,0.1961,,-0.135499132,-0.137087674,1,0,0,1.1324,0,96,96,20,1,site,images/br_site.png,images/cb_site.png,0,,,,,,,,,,,,,,,,,,,,,,
,,,,,,00025,2023-09-04_12h49.47.430,vbt_B2_day2,2022.2.4,MacIntel,60.0024001,,,,,,,,,,,,,,,,,,,,,,,,,,,down,0,0.6378,,-0.135499132,-0.137087674,1,0,0,1.0671,0,97,97,92,1,geheim,images/br_geheim.png,images/cb_geheim.png,0,,,,,,,,,,,,,,,,,,,,,,
,,,,,,00025,2023-09-04_12h49.47.430,vbt_B2_day2,2022.2.4,MacIntel,60.0024001,,,,,,,,,,,,,,,,,,,,,,,,,,,down,0,14.6204,,-0.057521701,-0.312916667,1,0,0,2.9663,0,98,98,136,1,waarbij,images/br_waarbij.png,images/cb_waarbij.png,1,ddaarbij,,,,,,,,,,,,,,,,,,,,,
,,,,,,00025,2023-09-04_12h49.47.430,vbt_B2_day2,2022.2.4,MacIntel,60.0024001,,,,,,,,,,,,,,,,,,,,,,,,,,,down,0,9.9755,,-0.059123264,-0.31265625,1,0,0,0.5839,0,99,99,174,1,stemming,images/br_stemming.png,images/cb_stemming.png,0,,,,,,,,,,,,,,,,,,,,,,
,,,,,,00025,2023-09-04_12h49.47.430,vbt_B2_day2,2022.2.4,MacIntel,60.0024001,,,,,,,,,,,,,,,,,,,,,,,,,,,down,0,0.9696,,-0.060533854,-0.311948785,1,0,0,0.5862,0,100,100,47,1,kabel,images/br_kabel.png,images/cb_kabel.png,0,,,,,,,,,,,,,,,,,,,,,,
,,,,,,00025,2023-09-04_12h49.47.430,vbt_B2_day2,2022.2.4,MacIntel,60.0024001,,,,,,,,,,,,,,,,,,,,,,,,,,,down,0,0.0748,,-0.060533854,-0.311948785,1,0,0,0.8641,0,101,101,161,1,attentie,images/br_attentie.png,images/cb_attentie.png,0,,,,,,,,,,,,,,,,,,,,,,
,,,,,,00025,2023-09-04_12h49.47.430,vbt_B2_day2,2022.2.4,MacIntel,60.0024001,,,,,,,,,,,,,,,,,,,,,,,,,,,down,0,0.3498,,-0.060533854,-0.311948785,1,0,0,0.8326,0,102,102,37,1,mijn,images/br_mijn.png,images/cb_mijn.png,0,,,,,,,,,,,,,,,,,,,,,,
,,,,,,00025,2023-09-04_12h49.47.430,vbt_B2_day2,2022.2.4,MacIntel,60.0024001,,,,,,,,,,,,,,,,,,,,,,,,,,,down,0,0.1207,,-0.060533854,-0.311948785,1,0,0,1.3824,0,103,103,68,1,schat,images/br_schat.png,images/cb_schat.png,0,,,,,,,,,,,,,,,,,,,,,,
,,,,,,00025,2023-09-04_12h49.47.430,vbt_B2_day2,2022.2.4,MacIntel,60.0024001,,,,,,,,,,,,,,,,,,,,,,,,,,,down,0,16.9186,,-0.064110243,-0.300295139,1,0,0,5.9678,0,104,104,178,1,huisdier,images/br_huisdier.png,images/cb_huisdier.png,1,.uisdierhuisdier,,,,,,,,,,,,,,,,,,,,,
,,,,,,00025,2023-09-04_12h49.47.430,vbt_B2_day2,2022.2.4,MacIntel,60.0024001,,,,,,,,,,,,,,,,,,,,,,,,,,,down,0,0.4733,,-0.064110243,-0.300295139,1,0,0,0.4827,0,105,105,111,1,ticket,images/br_ticket.png,images/cb_ticket.png,0,,,,,,,,,,,,,,,,,,,,,,
,,,,,,00025,2023-09-04_12h49.47.430,vbt_B2_day2,2022.2.4,MacIntel,60.0024001,,,,,,,,,,,,,,,,,,,,,,,,,,,down,0,10.05,,-0.064110243,-0.300295139,1,0,0,5.3163,0,106,106,177,1,maaltijd,images/br_maaltijd.png,images/cb_maaltijd.png,1,aalri,,,,,,,,,,,,,,,,,,,,,
,,,,,,00025,2023-09-04_12h49.47.430,vbt_B2_day2,2022.2.4,MacIntel,60.0024001,,,,,,,,,,,,,,,,,,,,,,,,,,,down,0,6.0528,,-0.064110243,-0.300295139,1,0,0,0.9171,0,107,107,196,1,nakijken,images/br_nakijken.png,images/cb_nakijken.png,0,,,,,,,,,,,,,,,,,,,,,,
,,,,,,00025,2023-09-04_12h49.47.430,vbt_B2_day2,2022.2.4,MacIntel,60.0024001,,,,,,,,,,,,,,,,,,,,,,,,,,,down,0,5.7192,,-0.064110243,-0.300295139,1,0,0,0.7838,0,108,108,90,1,geluid,images/br_geluid.png,images/cb_geluid.png,0,,,,,,,,,,,,,,,,,,,,,,
,,,,,,00025,2023-09-04_12h49.47.430,vbt_B2_day2,2022.2.4,MacIntel,60.0024001,,,,,,,,,,,,,,,,,,,,,,,,,,,down,0,1.9039,,-0.064110243,-0.300295139,1,0,0,8.1845,0,109,109,147,1,komisch,images/br_komisch.png,images/cb_komisch.png,0,,,,,,,,,,,,,,,,,,,,,,
,,,,,,00025,2023-09-04_12h49.47.430,vbt_B2_day2,2022.2.4,MacIntel,60.0024001,,,,,,,,,,,,,,,,,,,,,,,,,,,down,0,2.6684,,-0.064110243,-0.300295139,1,0,0,0.8511,0,110,110,50,1,stoom,images/br_stoom.png,images/cb_stoom.png,0,,,,,,,,,,,,,,,,,,,,,,
,,,,,,00025,2023-09-04_12h49.47.430,vbt_B2_day2,2022.2.4,MacIntel,60.0024001,,,,,,,,,,,,,,,,,,,,,,,,,,,down,0,0.857,,-0.064110243,-0.300295139,1,0,0,0.6674,0,111,111,109,1,totaal,images/br_totaal.png,images/cb_totaal.png,0,,,,,,,,,,,,,,,,,,,,,,
,,,,,,00025,2023-09-04_12h49.47.430,vbt_B2_day2,2022.2.4,MacIntel,60.0024001,,,,,,,,,,,,,,,,,,,,,,,,,,,down,0,0.2197,,-0.064110243,-0.300295139,1,0,0,0.7517,0,112,112,36,1,vuur,images/br_vuur.png,images/cb_vuur.png,0,,,,,,,,,,,,,,,,,,,,,,
,,,,,,00025,2023-09-04_12h49.47.430,vbt_B2_day2,2022.2.4,MacIntel,60.0024001,,,,,,,,,,,,,,,,,,,,,,,,,,,down,0,1.5563,,-0.064110243,-0.300295139,1,0,0,0.6993,0,113,113,150,1,gegeven,images/br_gegeven.png,images/cb_gegeven.png,0,,,,,,,,,,,,,,,,,,,,,,
,,,,,,00025,2023-09-04_12h49.47.430,vbt_B2_day2,2022.2.4,MacIntel,60.0024001,,,,,,,,,,,,,,,,,,,,,,,,,,,down,0,3.925,,-0.064110243,-0.300295139,1,0,0,0.4991,0,114,114,19,1,geit,images/br_geit.png,images/cb_geit.png,1,geit,,,,,,,,,,,,,,,,,,,,,
,,,,,,00025,2023-09-04_12h49.47.430,vbt_B2_day2,2022.2.4,MacIntel,60.0024001,,,,,,,,,,,,,,,,,,,,,,,,,,,down,0,0.6228,,-0.064110243,-0.300295139,1,0,0,0.7677,0,115,115,21,1,mist,images/br_mist.png,images/cb_mist.png,0,,,,,,,,,,,,,,,,,,,,,,
,,,,,,00025,2023-09-04_12h49.47.430,vbt_B2_day2,2022.2.4,MacIntel,60.0024001,,,,,,,,,,,,,,,,,,,,,,,,,,,down,0,23.5061,,-0.064110243,-0.300295139,1,0,0,0.7162,0,116,116,23,1,zout,images/br_zout.png,images/cb_zout.png,0,,,,,,,,,,,,,,,,,,,,,,
,,,,,,00025,2023-09-04_12h49.47.430,vbt_B2_day2,2022.2.4,MacIntel,60.0024001,,,,,,,,,,,,,,,,,,,,,,,,,,,down,0,7.5994,,-0.064110243,-0.300295139,1,0,0,0.4327,0,117,117,73,1,volop,images/br_volop.png,images/cb_volop.png,0,,,,,,,,,,,,,,,,,,,,,,
,,,,,,00025,2023-09-04_12h49.47.430,vbt_B2_day2,2022.2.4,MacIntel,60.0024001,,,,,,,,,,,,,,,,,,,,,,,,,,,down,0,4.8751,,-0.064110243,-0.300295139,1,0,0,0.7312,0,118,118,76,1,afval,images/br_afval.png,images/cb_afval.png,0,,,,,,,,,,,,,,,,,,,,,,
,,,,,,00025,2023-09-04_12h49.47.430,vbt_B2_day2,2022.2.4,MacIntel,60.0024001,,,,,,,,,,,,,,,,,,,,,,,,,,,down,0,2.2123,,-0.064110243,-0.300295139,1,0,0,8.8644,0,119,119,155,1,gerucht,images/br_gerucht.png,images/cb_gerucht.png,0,,,,,,,,,,,,,,,,,,,,,,
,,,,,,00025,2023-09-04_12h49.47.430,vbt_B2_day2,2022.2.4,MacIntel,60.0024001,,,,,,,,,,,,,,,,,,,,,,,,,,,down,0,26.6204,,-0.064110243,-0.300295139,1,0,0,0.4017,0,120,120,118,1,vinger,images/br_vinger.png,images/cb_vinger.png,0,,,,,,,,,,,,,,,,,,,,,,
,,,,,,00025,2023-09-04_12h49.47.430,vbt_B2_day2,2022.2.4,MacIntel,60.0024001,,,,,,,,,,,,,,,,,,,,,,,,,,,down,0,10.2105,,-0.064110243,-0.300295139,1,0,0,0.5489,0,121,121,38,1,baai,images/br_baai.png,images/cb_baai.png,0,,,,,,,,,,,,,,,,,,,,,,
,,,,,,00025,2023-09-04_12h49.47.430,vbt_B2_day2,2022.2.4,MacIntel,60.0024001,,,,,,,,,,,,,,,,,,,,,,,,,,,down,0,1.2841,,-0.064110243,-0.300295139,1,0,0,0.6825,0,122,122,164,1,anarchie,images/br_anarchie.png,images/cb_anarchie.png,0,,,,,,,,,,,,,,,,,,,,,,
,,,,,,00025,2023-09-04_12h49.47.430,vbt_B2_day2,2022.2.4,MacIntel,60.0024001,,,,,,,,,,,,,,,,,,,,,,,,,,,down,0,30.9001,,-0.064110243,-0.300295139,1,0,0,0.5254,0,123,123,144,1,eetlust,images/br_eetlust.png,images/cb_eetlust.png,0,,,,,,,,,,,,,,,,,,,,,,
,,,,,,00025,2023-09-04_12h49.47.430,vbt_B2_day2,2022.2.4,MacIntel,60.0024001,,,,,,,,,,,,,,,,,,,,,,,,,,,down,0,12.4743,,-0.064110243,-0.300295139,1,0,0,0.4501,0,124,124,160,1,daarheen,images/br_daarheen.png,images/cb_daarheen.png,0,,,,,,,,,,,,,,,,,,,,,,
,,,,,,00025,2023-09-04_12h49.47.430,vbt_B2_day2,2022.2.4,MacIntel,60.0024001,,,,,,,,,,,,,,,,,,,,,,,,,,,down,0,3.2994,,-0.064110243,-0.300295139,1,0,0,0.3668,0,125,125,52,1,wagon,images/br_wagon.png,images/cb_wagon.png,0,,,,,,,,,,,,,,,,,,,,,,
,,,,,,00025,2023-09-04_12h49.47.430,vbt_B2_day2,2022.2.4,MacIntel,60.0024001,,,,,,,,,,,,,,,,,,,,,,,,,,,down,0,45.3705,,-0.064110243,-0.300295139,1,0,0,0.885,0,126,126,129,1,verhaal,images/br_verhaal.png,images/cb_verhaal.png,0,,,,,,,,,,,,,,,,,,,,,,
,,,,,,00025,2023-09-04_12h49.47.430,vbt_B2_day2,2022.2.4,MacIntel,60.0024001,,,,,,,,,,,,,,,,,,,,,,,,,,,down,0,8.3892,,-0.064110243,-0.300295139,1,0,0,0.4675,0,127,127,74,1,graaf,images/br_graaf.png,images/cb_graaf.png,0,,,,,,,,,,,,,,,,,,,,,,
,,,,,,00025,2023-09-04_12h49.47.430,vbt_B2_day2,2022.2.4,MacIntel,60.0024001,,,,,,,,,,,,,,,,,,,,,,,,,,,down,0,0.6049,,-0.064110243,-0.300295139,1,0,0,0.4821,0,128,128,102,1,legaal,images/br_legaal.png,images/cb_legaal.png,0,,,,,,,,,,,,,,,,,,,,,,
,,,,,,00025,2023-09-04_12h49.47.430,vbt_B2_day2,2022.2.4,MacIntel,60.0024001,,,,,,,,,,,,,,,,,,,,,,,,,,,down,0,9.5861,,-0.064110243,-0.300295139,1,0,0,0.5008,0,129,129,163,1,schuilen,images/br_schuilen.png,images/cb_schuilen.png,0,,,,,,,,,,,,,,,,,,,,,,
,,,,,,00025,2023-09-04_12h49.47.430,vbt_B2_day2,2022.2.4,MacIntel,60.0024001,,,,,,,,,,,,,,,,,,,,,,,,,,,down,0,7.8397,,-0.064110243,-0.300295139,1,0,0,0.7514,0,130,130,4,1,moes,images/br_moes.png,images/cb_moes.png,0,,,,,,,,,,,,,,,,,,,,,,
,,,,,,00025,2023-09-04_12h49.47.430,vbt_B2_day2,2022.2.4,MacIntel,60.0024001,,,,,,,,,,,,,,,,,,,,,,,,,,,down,0,0.5344,,-0.064110243,-0.300295139,1,0,0,0.5189,0,131,131,104,1,zweven,images/br_zweven.png,images/cb_zweven.png,0,,,,,,,,,,,,,,,,,,,,,,
,,,,,,00025,2023-09-04_12h49.47.430,vbt_B2_day2,2022.2.4,MacIntel,60.0024001,,,,,,,,,,,,,,,,,,,,,,,,,,,down,0,27.6184,,-0.064110243,-0.300295139,1,0,0,0.4179,0,132,132,67,1,zwart,images/br_zwart.png,images/cb_zwart.png,0,,,,,,,,,,,,,,,,,,,,,,
,,,,,,00025,2023-09-04_12h49.47.430,vbt_B2_day2,2022.2.4,MacIntel,60.0024001,,,,,,,,,,,,,,,,,,,,,,,,,,,down,0,29.5671,,-0.064110243,-0.300295139,1,0,0,0.4492,0,133,133,198,1,bedoelen,images/br_bedoelen.png,images/cb_bedoelen.png,0,,,,,,,,,,,,,,,,,,,,,,
,,,,,,00025,2023-09-04_12h49.47.430,vbt_B2_day2,2022.2.4,MacIntel,60.0024001,,,,,,,,,,,,,,,,,,,,,,,,,,,down,0,27.2347,,-0.064110243,-0.300295139,1,0,0,0.6675,0,134,134,128,1,prikken,images/br_prikken.png,images/cb_prikken.png,0,,,,,,,,,,,,,,,,,,,,,,
,,,,,,00025,2023-09-04_12h49.47.430,vbt_B2_day2,2022.2.4,MacIntel,60.0024001,,,,,,,,,,,,,,,,,,,,,,,,,,,down,0,36.9196,,-0.064110243,-0.300295139,1,0,0,3.0843,0,135,135,71,1,bever,images/br_bever.png,images/cb_bever.png,0,,,,,,,,,,,,,,,,,,,,,,
,,,,,,00025,2023-09-04_12h49.47.430,vbt_B2_day2,2022.2.4,MacIntel,60.0024001,,,,,,,,,,,,,,,,,,,,,,,,,,,down,0,3.7726,,-0.064110243,-0.300295139,1,0,0,0.5655,0,136,136,138,1,akkoord,images/br_akkoord.png,images/cb_akkoord.png,1,akkoord,,,,,,,,,,,,,,,,,,,,,
,,,,,,00025,2023-09-04_12h49.47.430,vbt_B2_day2,2022.2.4,MacIntel,60.0024001,,,,,,,,,,,,,,,,,,,,,,,,,,,down,0,7.1006,,-0.064110243,-0.300295139,1,0,0,0.6012,0,137,137,22,1,stof,images/br_stof.png,images/cb_stof.png,0,,,,,,,,,,,,,,,,,,,,,,
,,,,,,00025,2023-09-04_12h49.47.430,vbt_B2_day2,2022.2.4,MacIntel,60.0024001,,,,,,,,,,,,,,,,,,,,,,,,,,,down,0,22.8504,,-0.064110243,-0.300295139,1,0,0,0.3475,0,138,138,34,1,vorm,images/br_vorm.png,images/cb_vorm.png,0,,,,,,,,,,,,,,,,,,,,,,
,,,,,,00025,2023-09-04_12h49.47.430,vbt_B2_day2,2022.2.4,MacIntel,60.0024001,,,,,,,,,,,,,,,,,,,,,,,,,,,down,0,40.5988,,-0.064110243,-0.300295139,1,0,0,0.8342,0,139,139,85,1,heilig,images/br_heilig.png,images/cb_heilig.png,0,,,,,,,,,,,,,,,,,,,,,,
,,,,,,00025,2023-09-04_12h49.47.430,vbt_B2_day2,2022.2.4,MacIntel,60.0024001,,,,,,,,,,,,,,,,,,,,,,,,,,,down,0,3.2168,,-0.064110243,-0.300295139,1,0,0,0.5186,0,140,140,11,1,mode,images/br_mode.png,images/cb_mode.png,0,,,,,,,,,,,,,,,,,,,,,,
,,,,,,00025,2023-09-04_12h49.47.430,vbt_B2_day2,2022.2.4,MacIntel,60.0024001,,,,,,,,,,,,,,,,,,,,,,,,,,,down,0,6.6216,,-0.064110243,-0.300295139,1,0,0,1.2001,0,141,141,105,1,wijlen,images/br_wijlen.png,images/cb_wijlen.png,0,,,,,,,,,,,,,,,,,,,,,,
,,,,,,00025,2023-09-04_12h49.47.430,vbt_B2_day2,2022.2.4,MacIntel,60.0024001,,,,,,,,,,,,,,,,,,,,,,,,,,,down,0,26.3837,,-0.064110243,-0.300295139,1,0,0,0.4506,0,142,142,168,1,bisschop,images/br_bisschop.png,images/cb_bisschop.png,0,,,,,,,,,,,,,,,,,,,,,,
,,,,,,00025,2023-09-04_12h49.47.430,vbt_B2_day2,2022.2.4,MacIntel,60.0024001,,,,,,,,,,,,,,,,,,,,,,,,,,,down,0,3.8559,,-0.064110243,-0.300295139,1,0,0,0.5648,0,143,143,137,1,trekker,images/br_trekker.png,images/cb_trekker.png,1,trekker,,,,,,,,,,,,,,,,,,,,,
,,,,,,00025,2023-09-04_12h49.47.430,vbt_B2_day2,2022.2.4,MacIntel,60.0024001,,,,,,,,,,,,,,,,,,,,,,,,,,,down,0,0.403,,-0.066158854,-0.300295139,1,0,0,0.6986,0,144,144,122,1,waarvan,images/br_waarvan.png,images/cb_waarvan.png,0,,,,,,,,,,,,,,,,,,,,,,
,,,,,,00025,2023-09-04_12h49.47.430,vbt_B2_day2,2022.2.4,MacIntel,60.0024001,,,,,,,,,,,,,,,,,,,,,,,,,,,down,0,27.1586,,-0.066158854,-0.300295139,1,0,0,0.751,0,145,145,51,1,samen,images/br_samen.png,images/cb_samen.png,0,,,,,,,,,,,,,,,,,,,,,,
,,,,,,00025,2023-09-04_12h49.47.430,vbt_B2_day2,2022.2.4,MacIntel,60.0024001,,,,,,,,,,,,,,,,,,,,,,,,,,,down,0,0.2037,,-0.066158854,-0.300295139,1,0,0,0.5007,0,146,146,189,1,aanraden,images/br_aanraden.png,images/cb_aanraden.png,0,,,,,,,,,,,,,,,,,,,,,,
,,,,,,00025,2023-09-04_12h49.47.430,vbt_B2_day2,2022.2.4,MacIntel,60.0024001,,,,,,,,,,,,,,,,,,,,,,,,,,,down,0,0.4849,,-0.066158854,-0.300295139,1,0,0,0.7831,0,147,147,108,1,excuus,images/br_excuus.png,images/cb_excuus.png,0,,,,,,,,,,,,,,,,,,,,,,
,,,,,,00025,2023-09-04_12h49.47.430,vbt_B2_day2,2022.2.4,MacIntel,60.0024001,,,,,,,,,,,,,,,,,,,,,,,,,,,down,0,0.4351,,-0.066158854,-0.300295139,1,0,0,0.551,0,148,148,87,1,toeval,images/br_toeval.png,images/cb_toeval.png,0,,,,,,,,,,,,,,,,,,,,,,
,,,,,,00025,2023-09-04_12h49.47.430,vbt_B2_day2,2022.2.4,MacIntel,60.0024001,,,,,,,,,,,,,,,,,,,,,,,,,,,down,0,0.686,,-0.066158854,-0.300295139,1,0,0,0.4852,0,149,149,39,1,laag,images/br_laag.png,images/cb_laag.png,0,,,,,,,,,,,,,,,,,,,,,,
,,,,,,00025,2023-09-04_12h49.47.430,vbt_B2_day2,2022.2.4,MacIntel,60.0024001,,,,,,,,,,,,,,,,,,,,,,,,,,,down,0,4.9576,,-0.066158854,-0.300295139,1,0,0,7.6341,0,150,150,188,1,strekken,images/br_strekken.png,images/cb_strekken.png,0,,,,,,,,,,,,,,,,,,,,,,
,,,,,,00025,2023-09-04_12h49.47.430,vbt_B2_day2,2022.2.4,MacIntel,60.0024001,,,,,,,,,,,,,,,,,,,,,,,,,,,down,0,6.349,,-0.066158854,-0.300546875,1,0,0,3.0508,0,151,151,106,1,zingen,images/br_zingen.png,images/cb_zingen.png,0,,,,,,,,,,,,,,,,,,,,,,
,,,,,,00025,2023-09-04_12h49.47.430,vbt_B2_day2,2022.2.4,MacIntel,60.0024001,,,,,,,,,,,,,,,,,,,,,,,,,,,down,0,0.2345,,-0.066158854,-0.300546875,1,0,0,0.8321,0,152,152,119,1,liefje,images/br_liefje.png,images/cb_liefje.png,0,,,,,,,,,,,,,,,,,,,,,,
,,,,,,00025,2023-09-04_12h49.47.430,vbt_B2_day2,2022.2.4,MacIntel,60.0024001,,,,,,,,,,,,,,,,,,,,,,,,,,,down,0,9.1838,,-0.066158854,-0.300546875,1,0,0,2.6854,0,153,153,139,1,stiekem,images/br_stiekem.png,images/cb_stiekem.png,1,stiekemstiekem,,,,,,,,,,,,,,,,,,,,,
,,,,,,00025,2023-09-04_12h49.47.430,vbt_B2_day2,2022.2.4,MacIntel,60.0024001,,,,,,,,,,,,,,,,,,,,,,,,,,,down,0,14.6554,,-0.066158854,-0.300546875,1,0,0,0.5335,0,154,154,131,1,opzicht,images/br_opzicht.png,images/cb_opzicht.png,0,,,,,,,,,,,,,,,,,,,,,,
,,,,,,00025,2023-09-04_12h49.47.430,vbt_B2_day2,2022.2.4,MacIntel,60.0024001,,,,,,,,,,,,,,,,,,,,,,,,,,,down,0,0.7722,,-0.066158854,-0.300546875,1,0,0,1.7038,0,155,155,69,1,waken,images/br_waken.png,images/cb_waken.png,0,,,,,,,,,,,,,,,,,,,,,,
,,,,,,00025,2023-09-04_12h49.47.430,vbt_B2_day2,2022.2.4,MacIntel,60.0024001,,,,,,,,,,,,,,,,,,,,,,,,,,,down,0,1.8868,,-0.066158854,-0.300546875,1,0,0,0.5831,0,156,156,40,1,schep,images/br_schep.png,images/cb_schep.png,0,,,,,,,,,,,,,,,,,,,,,,
,,,,,,00025,2023-09-04_12h49.47.430,vbt_B2_day2,2022.2.4,MacIntel,60.0024001,,,,,,,,,,,,,,,,,,,,,,,,,,,down,0,5.4735,,-0.065082465,-0.302174479,1,0,0,0.4347,0,157,157,24,1,jurk,images/br_jurk.png,images/cb_jurk.png,0,,,,,,,,,,,,,,,,,,,,,,
,,,,,,00025,2023-09-04_12h49.47.430,vbt_B2_day2,2022.2.4,MacIntel,60.0024001,,,,,,,,,,,,,,,,,,,,,,,,,,,down,0,0.3049,,-0.065082465,-0.302174479,1,0,0,1.084,0,158,158,115,1,kleren,images/br_kleren.png,images/cb_kleren.png,0,,,,,,,,,,,,,,,,,,,,,,
,,,,,,00025,2023-09-04_12h49.47.430,vbt_B2_day2,2022.2.4,MacIntel,60.0024001,,,,,,,,,,,,,,,,,,,,,,,,,,,down,0,0.4056,,-0.065082465,-0.302174479,1,0,0,0.7182,0,159,159,81,1,dubbel,images/br_dubbel.png,images/cb_dubbel.png,0,,,,,,,,,,,,,,,,,,,,,,
,,,,,,00025,2023-09-04_12h49.47.430,vbt_B2_day2,2022.2.4,MacIntel,60.0024001,,,,,,,,,,,,,,,,,,,,,,,,,,,down,0,0.2447,,-0.065082465,-0.302174479,1,0,0,0.5297,0,160,160,194,1,driemaal,images/br_driemaal.png,images/cb_driemaal.png,0,,,,,,,,,,,,,,,,,,,,,,
,,,,,,00025,2023-09-04_12h49.47.430,vbt_B2_day2,2022.2.4,MacIntel,60.0024001,,,,,,,,,,,,,,,,,,,,,,,,,,,down,0,13.3067,,-0.065082465,-0.302174479,1,0,0,11.3504,0,161,161,0,1,slak,images/br_slak.png,images/cb_slak.png,0,,,,,,,,,,,,,,,,,,,,,,
,,,,,,00025,2023-09-04_12h49.47.430,vbt_B2_day2,2022.2.4,MacIntel,60.0024001,,,,,,,,,,,,,,,,,,,,,,,,,,,down,0,21.0419,,-0.065082465,-0.302174479,1,0,0,0.9667,0,162,162,166,1,strikken,images/br_strikken.png,images/cb_strikken.png,0,,,,,,,,,,,,,,,,,,,,,,
,,,,,,00025,2023-09-04_12h49.47.430,vbt_B2_day2,2022.2.4,MacIntel,60.0024001,,,,,,,,,,,,,,,,,,,,,,,,,,,down,0,6.6051,,-0.070798611,-0.302174479,1,0,0,0.5367,0,163,163,146,1,opkomen,images/br_opkomen.png,images/cb_opkomen.png,0,,,,,,,,,,,,,,,,,,,,,,
,,,,,,00025,2023-09-04_12h49.47.430,vbt_B2_day2,2022.2.4,MacIntel,60.0024001,,,,,,,,,,,,,,,,,,,,,,,,,,,down,0,44.7719,,-0.070798611,-0.302174479,1,0,0,0.9494,0,164,164,182,1,bijkomen,images/br_bijkomen.png,images/cb_bijkomen.png,0,,,,,,,,,,,,,,,,,,,,,,
,,,,,,00025,2023-09-04_12h49.47.430,vbt_B2_day2,2022.2.4,MacIntel,60.0024001,,,,,,,,,,,,,,,,,,,,,,,,,,,down,0,0.0177,,-0.070798611,-0.302174479,1,0,0,0.7318,0,165,165,14,1,rijp,images/br_rijp.png,images/cb_rijp.png,0,,,,,,,,,,,,,,,,,,,,,,
,,,,,,00025,2023-09-04_12h49.47.430,vbt_B2_day2,2022.2.4,MacIntel,60.0024001,,,,,,,,,,,,,,,,,,,,,,,,,,,down,0,0.0812,,-0.070798611,-0.302174479,1,0,0,0.532,0,166,166,123,1,hiervan,images/br_hiervan.png,images/cb_hiervan.png,0,,,,,,,,,,,,,,,,,,,,,,
,,,,,,00025,2023-09-04_12h49.47.430,vbt_B2_day2,2022.2.4,MacIntel,60.0024001,,,,,,,,,,,,,,,,,,,,,,,,,,,down,0,4.4055,,-0.070798611,-0.302174479,1,0,0,0.664,0,167,167,100,1,geduld,images/br_geduld.png,images/cb_geduld.png,0,,,,,,,,,,,,,,,,,,,,,,
,,,,,,00025,2023-09-04_12h49.47.430,vbt_B2_day2,2022.2.4,MacIntel,60.0024001,,,,,,,,,,,,,,,,,,,,,,,,,,,down,0,6.2673,,0.026236979,-0.020442708,1,0,0,0.6326,0,168,168,58,1,tekst,images/br_tekst.png,images/cb_tekst.png,1,tekst,,,,,,,,,,,,,,,,,,,,,
,,,,,,00025,2023-09-04_12h49.47.430,vbt_B2_day2,2022.2.4,MacIntel,60.0024001,,,,,,,,,,,,,,,,,,,,,,,,,,,down,0,17.0814,,0.026236979,-0.020442708,1,0,0,0.6166,0,169,169,113,1,koppen,images/br_koppen.png,images/cb_koppen.png,0,,,,,,,,,,,,,,,,,,,,,,
,,,,,,00025,2023-09-04_12h49.47.430,vbt_B2_day2,2022.2.4,MacIntel,60.0024001,,,,,,,,,,,,,,,,,,,,,,,,,,,down,0,0.058,,0.026236979,-0.020442708,1,0,0,0.8521,0,170,170,66,1,lever,images/br_lever.png,images/cb_lever.png,0,,,,,,,,,,,,,,,,,,,,,,
,,,,,,00025,2023-09-04_12h49.47.430,vbt_B2_day2,2022.2.4,MacIntel,60.0024001,,,,,,,,,,,,,,,,,,,,,,,,,,,down,0,0.8357,,0.026236979,-0.020442708,1,0,0,1.8826,0,171,171,170,1,schatten,images/br_schatten.png,images/cb_schatten.png,0,,,,,,,,,,,,,,,,,,,,,,
,,,,,,00025,2023-09-04_12h49.47.430,vbt_B2_day2,2022.2.4,MacIntel,60.0024001,,,,,,,,,,,,,,,,,,,,,,,,,,,down,0,12.2019,,0.026236979,-0.020442708,1,0,0,12.5351,0,172,172,35,1,lust,images/br_lust.png,images/cb_lust.png,0,,,,,,,,,,,,,,,,,,,,,,
,,,,,,00025,2023-09-04_12h49.47.430,vbt_B2_day2,2022.2.4,MacIntel,60.0024001,,,,,,,,,,,,,,,,,,,,,,,,,,,down,0,0.3857,,0.026236979,-0.020442708,1,0,0,1.3524,0,173,173,60,1,jasje,images/br_jasje.png,images/cb_jasje.png,0,,,,,,,,,,,,,,,,,,,,,,
,,,,,,00025,2023-09-04_12h49.47.430,vbt_B2_day2,2022.2.4,MacIntel,60.0024001,,,,,,,,,,,,,,,,,,,,,,,,,,,down,0,44.4678,,0.026236979,-0.020442708,1,0,0,0.4339,0,174,174,107,1,maling,images/br_maling.png,images/cb_maling.png,0,,,,,,,,,,,,,,,,,,,,,,
,,,,,,00025,2023-09-04_12h49.47.430,vbt_B2_day2,2022.2.4,MacIntel,60.0024001,,,,,,,,,,,,,,,,,,,,,,,,,,,down,0,0.2696,,0.026236979,-0.020442708,1,0,0,0.5361,0,175,175,103,1,joggen,images/br_joggen.png,images/cb_joggen.png,0,,,,,,,,,,,,,,,,,,,,,,
,,,,,,00025,2023-09-04_12h49.47.430,vbt_B2_day2,2022.2.4,MacIntel,60.0024001,,,,,,,,,,,,,,,,,,,,,,,,,,,down,0,7.6066,,0.026236979,-0.020442708,1,0,0,0.5007,0,176,176,114,1,vullen,images/br_vullen.png,images/cb_vullen.png,0,,,,,,,,,,,,,,,,,,,,,,
,,,,,,00025,2023-09-04_12h49.47.430,vbt_B2_day2,2022.2.4,MacIntel,60.0024001,,,,,,,,,,,,,,,,,,,,,,,,,,,down,0,0.0326,,0.026236979,-0.020442708,1,0,0,0.6026,0,177,177,15,1,soda,images/br_soda.png,images/cb_soda.png,0,,,,,,,,,,,,,,,,,,,,,,
,,,,,,00025,2023-09-04_12h49.47.430,vbt_B2_day2,2022.2.4,MacIntel,60.0024001,,,,,,,,,,,,,,,,,,,,,,,,,,,down,0,0.1533,,0.026236979,-0.020442708,1,0,0,0.4861,0,178,178,26,1,leuk,images/br_leuk.png,images/cb_leuk.png,0,,,,,,,,,,,,,,,,,,,,,,
,,,,,,00025,2023-09-04_12h49.47.430,vbt_B2_day2,2022.2.4,MacIntel,60.0024001,,,,,,,,,,,,,,,,,,,,,,,,,,,down,0,0.4425,,0.026236979,-0.020442708,1,0,0,0.4503,0,179,179,62,1,knaap,images/br_knaap.png,images/cb_knaap.png,0,,,,,,,,,,,,,,,,,,,,,,
,,,,,,00025,2023-09-04_12h49.47.430,vbt_B2_day2,2022.2.4,MacIntel,60.0024001,,,,,,,,,,,,,,,,,,,,,,,,,,,down,0,0.1505,,0.026236979,-0.020442708,1,0,0,0.7317,0,180,180,157,1,uitlaat,images/br_uitlaat.png,images/cb_uitlaat.png,0,,,,,,,,,,,,,,,,,,,,,,
,,,,,,00025,2023-09-04_12h49.47.430,vbt_B2_day2,2022.2.4,MacIntel,60.0024001,,,,,,,,,,,,,,,,,,,,,,,,,,,down,0,0.234,,0.026236979,-0.020442708,1,0,0,2.4673,0,181,181,121,1,twijfel,images/br_twijfel.png,images/cb_twijfel.png,0,,,,,,,,,,,,,,,,,,,,,,
,,,,,,00025,2023-09-04_12h49.47.430,vbt_B2_day2,2022.2.4,MacIntel,60.0024001,,,,,,,,,,,,,,,,,,,,,,,,,,,down,0,8.5101,,0.026236979,-0.020442708,1,0,0,8.2762,0,182,182,181,1,toegeven,images/br_toegeven.png,images/cb_toegeven.png,0,,,,,,,,,,,,,,,,,,,,,,
,,,,,,00025,2023-09-04_12h49.47.430,vbt_B2_day2,2022.2.4,MacIntel,60.0024001,,,,,,,,,,,,,,,,,,,,,,,,,,,down,0,0.1045,,0.026236979,-0.020442708,1,0,0,1.2017,0,183,183,151,1,aanzoek,images/br_aanzoek.png,images/cb_aanzoek.png,0,,,,,,,,,,,,,,,,,,,,,,
,,,,,,00025,2023-09-04_12h49.47.430,vbt_B2_day2,2022.2.4,MacIntel,60.0024001,,,,,,,,,,,,,,,,,,,,,,,,,,,down,0,5.0019,,0.026236979,-0.020442708,1,0,0,0.4836,0,184,184,96,1,slagen,images/br_slagen.png,images/cb_slagen.png,1,slagen,,,,,,,,,,,,,,,,,,,,,
,,,,,,00025,2023-09-04_12h49.47.430,vbt_B2_day2,2022.2.4,MacIntel,60.0024001,,,,,,,,,,,,,,,,,,,,,,,,,,,down,0,27.2768,,0.026236979,-0.020442708,1,0,0,26.3518,0,185,185,101,1,staren,images/br_staren.png,images/cb_staren.png,0,,,,,,,,,,,,,,,,,,,,,,
,,,,,,00025,2023-09-04_12h49.47.430,vbt_B2_day2,2022.2.4,MacIntel,60.0024001,,,,,,,,,,,,,,,,,,,,,,,,,,,down,0,3.6859,,0.026236979,-0.020442708,1,0,0,0.5024,0,186,186,167,1,eenhoorn,images/br_eenhoorn.png,images/cb_eenhoorn.png,0,,,,,,,,,,,,,,,,,,,,,,
,,,,,,00025,2023-09-04_12h49.47.430,vbt_B2_day2,2022.2.4,MacIntel,60.0024001,,,,,,,,,,,,,,,,,,,,,,,,,,,down,0,0.3238,,0.026236979,-0.020442708,1,0,0,0.5659,0,187,187,28,1,stal,images/br_stal.png,images/cb_stal.png,0,,,,,,,,,,,,,,,,,,,,,,
,,,,,,00025,2023-09-04_12h49.47.430,vbt_B2_day2,2022.2.4,MacIntel,60.0024001,,,,,,,,,,,,,,,,,,,,,,,,,,,down,0,0.0007,,0.026236979,-0.020442708,1,0,0,0.7853,0,188,188,64,1,wegen,images/br_wegen.png,images/cb_wegen.png,0,,,,,,,,,,,,,,,,,,,,,,
,,,,,,00025,2023-09-04_12h49.47.430,vbt_B2_day2,2022.2.4,MacIntel,60.0024001,,,,,,,,,,,,,,,,,,,,,,,,,,,down,0,2.101,,0.026236979,-0.020442708,1,0,0,1.3171,0,189,189,191,1,opheffen,images/br_opheffen.png,images/cb_opheffen.png,0,,,,,,,,,,,,,,,,,,,,,,
,,,,,,00025,2023-09-04_12h49.47.430,vbt_B2_day2,2022.2.4,MacIntel,60.0024001,,,,,,,,,,,,,,,,,,,,,,,,,,,down,0,0.7781,,0.026236979,-0.020442708,1,0,0,0.547,0,190,190,156,1,rechten,images/br_rechten.png,images/cb_rechten.png,0,,,,,,,,,,,,,,,,,,,,,,
,,,,,,00025,2023-09-04_12h49.47.430,vbt_B2_day2,2022.2.4,MacIntel,60.0024001,,,,,,,,,,,,,,,,,,,,,,,,,,,down,0,1.5321,,0.341801215,-0.051671007,1,0,0,0.7492,0,191,191,95,1,vreten,images/br_vreten.png,images/cb_vreten.png,0,,,,,,,,,,,,,,,,,,,,,,
,,,,,,00025,2023-09-04_12h49.47.430,vbt_B2_day2,2022.2.4,MacIntel,60.0024001,,,,,,,,,,,,,,,,,,,,,,,,,,,down,0,0.489,,0.341801215,-0.051671007,1,0,0,0.4364,0,192,192,89,1,slapen,images/br_slapen.png,images/cb_slapen.png,0,,,,,,,,,,,,,,,,,,,,,,
,,,,,,00025,2023-09-04_12h49.47.430,vbt_B2_day2,2022.2.4,MacIntel,60.0024001,,,,,,,,,,,,,,,,,,,,,,,,,,,down,0,0.0674,,0.341801215,-0.051671007,1,0,0,0.8687,0,193,193,172,1,weigeren,images/br_weigeren.png,images/cb_weigeren.png,0,,,,,,,,,,,,,,,,,,,,,,
,,,,,,00025,2023-09-04_12h49.47.430,vbt_B2_day2,2022.2.4,MacIntel,60.0024001,,,,,,,,,,,,,,,,,,,,,,,,,,,down,0,0.4881,,0.341801215,-0.051671007,1,0,0,0.7354,0,194,194,193,1,weeshuis,images/br_weeshuis.png,images/cb_weeshuis.png,0,,,,,,,,,,,,,,,,,,,,,,
,,,,,,00025,2023-09-04_12h49.47.430,vbt_B2_day2,2022.2.4,MacIntel,60.0024001,,,,,,,,,,,,,,,,,,,,,,,,,,,down,0,3.9674,,0.341801215,-0.051671007,1,0,0,0.3661,0,195,195,59,1,kring,images/br_kring.png,images/cb_kring.png,1,kring,,,,,,,,,,,,,,,,,,,,,
,,,,,,00025,2023-09-04_12h49.47.430,vbt_B2_day2,2022.2.4,MacIntel,60.0024001,,,,,,,,,,,,,,,,,,,,,,,,,,,down,0,7.7849,,0.341801215,-0.051671007,1,0,0,1.8666,0,196,196,179,1,woestijn,images/br_woestijn.png,images/cb_woestijn.png,1,doesti,,,,,,,,,,,,,,,,,,,,,
,,,,,,00025,2023-09-04_12h49.47.430,vbt_B2_day2,2022.2.4,MacIntel,60.0024001,,,,,,,,,,,,,,,,,,,,,,,,,,,down,0,2.7421,,0.340208333,-0.05141059,1,0,0,0.4499,0,197,197,6,1,diep,images/br_diep.png,images/cb_diep.png,0,,,,,,,,,,,,,,,,,,,,,,
,,,,,,00025,2023-09-04_12h49.47.430,vbt_B2_day2,2022.2.4,MacIntel,60.0024001,,,,,,,,,,,,,,,,,,,,,,,,,,,down,0,0.5288,,0.337118056,-0.050256076,1,0,0,1.065,0,198,198,83,1,mening,images/br_mening.png,images/cb_mening.png,0,,,,,,,,,,,,,,,,,,,,,,
,,,,,,00025,2023-09-04_12h49.47.430,vbt_B2_day2,2022.2.4,MacIntel,60.0024001,,,,,,,,,,,,,,,,,,,,,,,,,,,down,0,0.4169,,0.337118056,-0.050256076,1,0,0,0.6512,0,199,199,75,1,snoep,images/br_snoep.png,images/cb_snoep.png,0,,,,,,,,,,,,,,,,,,,,,,
,,,,,,00025,2023-09-04_12h49.47.430,vbt_B2_day2,2022.2.4,MacIntel,60.0024001,,,,,,,,,,,,,,,,,,,,,,,,,,,,,,,,,,,,,,,,,,,,,,,0.337118056,-0.050256076,1,0,0,,,,,,,,,,,,,,,,
,,,,,,00025,2023-09-04_12h49.47.430,vbt_B2_day2,2022.2.4,MacIntel,60.0024001,,,,,,,,,,,,,,,,,,,,,,,,,,,,,,,,,,,,,,,,,,,,,,,,,,,,0.337118056,-0.050256076,1,0,0,,,,,,,,,,,
,,,,,,00025,2023-09-04_12h49.47.430,vbt_B2_day2,2022.2.4,MacIntel,60.0024001,,,,,,,,,,,,,,,,,,,,,,,,,,,,,,,,,,,,,,,,,,sjijfel,images/br_sjijfel.png,images/cb_sjijfel.png,,s....,,,,,,,,,,,-0.142161458,-0.039192708,1,0,0,s....,0,0,0,33,1
,,,,,,00025,2023-09-04_12h49.47.430,vbt_B2_day2,2022.2.4,MacIntel,60.0024001,,,,,,,,,,,,,,,,,,,,,,,,,,,,,,,,,,,,,,,,,,heengeen,images/br_heengeen.png,images/cb_heengeen.png,,deengeen,,,,,,,,,,,0.206063368,0.007317708,1,0,0,deengeen,0,1,1,38,1
,,,,,,00025,2023-09-04_12h49.47.430,vbt_B2_day2,2022.2.4,MacIntel,60.0024001,,,,,,,,,,,,,,,,,,,,,,,,,,,,,,,,,,,,,,,,,,goon,images/br_goon.png,images/cb_goon.png,,goon,,,,,,,,,,,0.052157118,-0.01234375,1,0,0,goon,0,2,2,23,1
,,,,,,00025,2023-09-04_12h49.47.430,vbt_B2_day2,2022.2.4,MacIntel,60.0024001,,,,,,,,,,,,,,,,,,,,,,,,,,,,,,,,,,,,,,,,,,wijve,images/br_wijve.png,images/cb_wijve.png,,kidvi,,,,,,,,,,,-0.022096354,0.024592014,1,0,0,kidvi,0,3,3,27,1
,,,,,,00025,2023-09-04_12h49.47.430,vbt_B2_day2,2022.2.4,MacIntel,60.0024001,,,,,,,,,,,,,,,,,,,,,,,,,,,,,,,,,,,,,,,,,,jong,images/br_jong.png,images/cb_jong.png,,dong,,,,,,,,,,,0.048394097,-0.012565104,1,0,0,dong,0,4,4,43,1
,,,,,,00025,2023-09-04_12h49.47.430,vbt_B2_day2,2022.2.4,MacIntel,60.0024001,,,,,,,,,,,,,,,,,,,,,,,,,,,,,,,,,,,,,,,,,,kasteel,images/br_kasteel.png,images/cb_kasteel.png,,kasteel,,,,,,,,,,,0.048394097,-0.012565104,1,0,0,kasteel,0,5,5,14,1
,,,,,,00025,2023-09-04_12h49.47.430,vbt_B2_day2,2022.2.4,MacIntel,60.0024001,,,,,,,,,,,,,,,,,,,,,,,,,,,,,,,,,,,,,,,,,,sifferd,images/br_sifferd.png,images/cb_sifferd.png,,sidd,,,,,,,,,,,0.048394097,-0.012565104,1,0,0,sidd,0,6,6,32,1
,,,,,,00025,2023-09-04_12h49.47.430,vbt_B2_day2,2022.2.4,MacIntel,60.0024001,,,,,,,,,,,,,,,,,,,,,,,,,,,,,,,,,,,,,,,,,,lijnen,images/br_lijnen.png,images/cb_lijnen.png,,li.nen,,,,,,,,,,,0.13515625,0.012981771,1,0,0,li.nen,0,7,7,51,1
,,,,,,00025,2023-09-04_12h49.47.430,vbt_B2_day2,2022.2.4,MacIntel,60.0024001,,,,,,,,,,,,,,,,,,,,,,,,,,,,,,,,,,,,,,,,,,feestdag,images/br_feestdag.png,images/cb_feestdag.png,,.een,,,,,,,,,,,-0.174882813,0.009140625,1,0,0,.een,0,8,8,17,1
,,,,,,00025,2023-09-04_12h49.47.430,vbt_B2_day2,2022.2.4,MacIntel,60.0024001,,,,,,,,,,,,,,,,,,,,,,,,,,,,,,,,,,,,,,,,,,bereuwen,images/br_bereuwen.png,images/cb_bereuwen.png,,berek,,,,,,,,,,,0.036592882,-0.005520833,1,0,0,berek,0,9,9,39,1
,,,,,,00025,2023-09-04_12h49.47.430,vbt_B2_day2,2022.2.4,MacIntel,60.0024001,,,,,,,,,,,,,,,,,,,,,,,,,,,,,,,,,,,,,,,,,,ningen,images/br_ningen.png,images/cb_ningen.png,,ningen,,,,,,,,,,,0.008806424,0.001015625,1,0,0,ningen,0,10,10,28,1
,,,,,,00025,2023-09-04_12h49.47.430,vbt_B2_day2,2022.2.4,MacIntel,60.0024001,,,,,,,,,,,,,,,,,,,,,,,,,,,,,,,,,,,,,,,,,,heilig,images/br_heilig.png,images/cb_heilig.png,,.eilen,,,,,,,,,,,0.089492188,0.005373264,1,0,0,.eilen,0,11,11,9,1
,,,,,,00025,2023-09-04_12h49.47.430,vbt_B2_day2,2022.2.4,MacIntel,60.0024001,,,,,,,,,,,,,,,,,,,,,,,,,,,,,,,,,,,,,,,,,,opdatten,images/br_opdatten.png,images/cb_opdatten.png,,op.a,,,,,,,,,,,-0.08374566,0.010863715,1,0,0,op.a,0,12,12,37,1
,,,,,,00025,2023-09-04_12h49.47.430,vbt_B2_day2,2022.2.4,MacIntel,60.0024001,,,,,,,,,,,,,,,,,,,,,,,,,,,,,,,,,,,,,,,,,,stes,images/br_stes.png,images/cb_stes.png,,ste.,,,,,,,,,,,0.055720486,0.008858507,1,0,0,ste.,0,13,13,21,1
,,,,,,00025,2023-09-04_12h49.47.430,vbt_B2_day2,2022.2.4,MacIntel,60.0024001,,,,,,,,,,,,,,,,,,,,,,,,,,,,,,,,,,,,,,,,,,krimmen,images/br_krimmen.png,images/cb_krimmen.png,,kri..en,,,,,,,,,,,-0.035347222,0.003546007,1,0,0,kri..en,0,14,14,35,1
,,,,,,00025,2023-09-04_12h49.47.430,vbt_B2_day2,2022.2.4,MacIntel,60.0024001,,,,,,,,,,,,,,,,,,,,,,,,,,,,,,,,,,,,,,,,,,diep,images/br_diep.png,images/cb_diep.png,,diep,,,,,,,,,,,0.058554688,0.005026042,1,0,0,diep,0,15,15,2,1
,,,,,,00025,2023-09-04_12h49.47.430,vbt_B2_day2,2022.2.4,MacIntel,60.0024001,,,,,,,,,,,,,,,,,,,,,,,,,,,,,,,,,,,,,,,,,,manieren,images/br_manieren.png,images/cb_manieren.png,,,,,,,,,,,,,0.058554688,0.005026042,1,0,0,,0,16,16,56,1
,,,,,,00025,2023-09-04_12h49.47.430,vbt_B2_day2,2022.2.4,MacIntel,60.0024001,,,,,,,,,,,,,,,,,,,,,,,,,,,,,,,,,,,,,,,,,,strikken,images/br_strikken.png,images/cb_strikken.png,,strikken,,,,,,,,,,,-0.00375,-0.007065972,1,0,0,strikken,0,17,17,18,1
,,,,,,00025,2023-09-04_12h49.47.430,vbt_B2_day2,2022.2.4,MacIntel,60.0024001,,,,,,,,,,,,,,,,,,,,,,,,,,,,,,,,,,,,,,,,,,zwager,images/br_zwager.png,images/cb_zwager.png,,...ger,,,,,,,,,,,-0.151024306,-0.030199653,1,0,0,...ger,0,18,18,49,1
,,,,,,00025,2023-09-04_12h49.47.430,vbt_B2_day2,2022.2.4,MacIntel,60.0024001,,,,,,,,,,,,,,,,,,,,,,,,,,,,,,,,,,,,,,,,,,aanvraag,images/br_aanvraag.png,images/cb_aanvraag.png,,aanvraag,,,,,,,,,,,0.178780382,-0.030060764,1,0,0,aanvraag,0,19,19,57,1
,,,,,,00025,2023-09-04_12h49.47.430,vbt_B2_day2,2022.2.4,MacIntel,60.0024001,,,,,,,,,,,,,,,,,,,,,,,,,,,,,,,,,,,,,,,,,,plannen,images/br_plannen.png,images/cb_plannen.png,,pla...,,,,,,,,,,,-0.171124132,-0.066605903,1,0,0,pla...,0,20,20,55,1
,,,,,,00025,2023-09-04_12h49.47.430,vbt_B2_day2,2022.2.4,MacIntel,60.0024001,,,,,,,,,,,,,,,,,,,,,,,,,,,,,,,,,,,,,,,,,,woning,images/br_woning.png,images/cb_woning.png,,,,,,,,,,,,,-0.171124132,-0.066605903,1,0,0,,0,21,21,10,1
,,,,,,00025,2023-09-04_12h49.47.430,vbt_B2_day2,2022.2.4,MacIntel,60.0024001,,,,,,,,,,,,,,,,,,,,,,,,,,,,,,,,,,,,,,,,,,ophuimen,images/br_ophuimen.png,images/cb_ophuimen.png,,oprui,,,,,,,,,,,-0.0190625,-0.013003472,1,0,0,oprui,0,22,22,36,1
,,,,,,00025,2023-09-04_12h49.47.430,vbt_B2_day2,2022.2.4,MacIntel,60.0024001,,,,,,,,,,,,,,,,,,,,,,,,,,,,,,,,,,,,,,,,,,blad,images/br_blad.png,images/cb_blad.png,,blad,,,,,,,,,,,0.094982639,-0.003997396,1,0,0,blad,0,23,23,1,1
,,,,,,00025,2023-09-04_12h49.47.430,vbt_B2_day2,2022.2.4,MacIntel,60.0024001,,,,,,,,,,,,,,,,,,,,,,,,,,,,,,,,,,,,,,,,,,eenhoorn,images/br_eenhoorn.png,images/cb_eenhoorn.png,,aan.oo,,,,,,,,,,,0.094982639,-0.003997396,1,0,0,aan.oo,0,24,24,19,1
,,,,,,00025,2023-09-04_12h49.47.430,vbt_B2_day2,2022.2.4,MacIntel,60.0024001,,,,,,,,,,,,,,,,,,,,,,,,,,,,,,,,,,,,,,,,,,geld,images/br_geld.png,images/cb_geld.png,,geld,,,,,,,,,,,0.021019965,-0.006315104,1,0,0,geld,0,25,25,3,1
,,,,,,00025,2023-09-04_12h49.47.430,vbt_B2_day2,2022.2.4,MacIntel,60.0024001,,,,,,,,,,,,,,,,,,,,,,,,,,,,,,,,,,,,,,,,,,piste,images/br_piste.png,images/cb_piste.png,,peste,,,,,,,,,,,-0.077743056,0.008524306,1,0,0,peste,0,26,26,5,1
,,,,,,00025,2023-09-04_12h49.47.430,vbt_B2_day2,2022.2.4,MacIntel,60.0024001,,,,,,,,,,,,,,,,,,,,,,,,,,,,,,,,,,,,,,,,,,badon,images/br_badon.png,images/cb_badon.png,,badon,,,,,,,,,,,0.097881944,-0.031697049,1,0,0,badon,0,27,27,26,1
,,,,,,00025,2023-09-04_12h49.47.430,vbt_B2_day2,2022.2.4,MacIntel,60.0024001,,,,,,,,,,,,,,,,,,,,,,,,,,,,,,,,,,,,,,,,,,bloeien,images/br_bloeien.png,images/cb_bloeien.png,,bleien,,,,,,,,,,,0.048116319,-0.01453125,1,0,0,bleien,0,28,28,12,1
,,,,,,00025,2023-09-04_12h49.47.430,vbt_B2_day2,2022.2.4,MacIntel,60.0024001,,,,,,,,,,,,,,,,,,,,,,,,,,,,,,,,,,,,,,,,,,joes,images/br_joes.png,images/cb_joes.png,,,,,,,,,,,,,-0.097934028,-0.020230035,1,0,0,,0,29,29,20,1
,,,,,,00025,2023-09-04_12h49.47.430,vbt_B2_day2,2022.2.4,MacIntel,60.0024001,,,,,,,,,,,,,,,,,,,,,,,,,,,,,,,,,,,,,,,,,,toeval,images/br_toeval.png,images/cb_toeval.png,,toeval,,,,,,,,,,,0.107000868,-0.014409722,1,0,0,toeval,0,30,30,11,1
,,,,,,00025,2023-09-04_12h49.47.430,vbt_B2_day2,2022.2.4,MacIntel,60.0024001,,,,,,,,,,,,,,,,,,,,,,,,,,,,,,,,,,,,,,,,,,doodmoe,images/br_doodmoe.png,images/cb_doodmoe.png,,dood,,,,,,,,,,,0.041263021,-0.021037326,1,0,0,dood,0,31,31,15,1
,,,,,,00025,2023-09-04_12h49.47.430,vbt_B2_day2,2022.2.4,MacIntel,60.0024001,,,,,,,,,,,,,,,,,,,,,,,,,,,,,,,,,,,,,,,,,,inzicht,images/br_inzicht.png,images/cb_inzicht.png,,in,,,,,,,,,,,-0.088984375,-0.032604167,1,0,0,in,0,32,32,53,1
,,,,,,00025,2023-09-04_12h49.47.430,vbt_B2_day2,2022.2.4,MacIntel,60.0024001,,,,,,,,,,,,,,,,,,,,,,,,,,,,,,,,,,,,,,,,,,negel,images/br_negel.png,images/cb_negel.png,,zegel,,,,,,,,,,,0.076119792,0.002174479,1,0,0,zegel,0,33,33,24,1
,,,,,,00025,2023-09-04_12h49.47.430,vbt_B2_day2,2022.2.4,MacIntel,60.0024001,,,,,,,,,,,,,,,,,,,,,,,,,,,,,,,,,,,,,,,,,,agressie,images/br_agressie.png,images/cb_agressie.png,,agressie,,,,,,,,,,,-0.198841146,-0.0640625,1,0,0,agressie,0,34,34,59,1
,,,,,,00025,2023-09-04_12h49.47.430,vbt_B2_day2,2022.2.4,MacIntel,60.0024001,,,,,,,,,,,,,,,,,,,,,,,,,,,,,,,,,,,,,,,,,,kabel,images/br_kabel.png,images/cb_kabel.png,,kabel,,,,,,,,,,,-0.015746528,0.008003472,1,0,0,kabel,0,35,35,7,1
,,,,,,00025,2023-09-04_12h49.47.430,vbt_B2_day2,2022.2.4,MacIntel,60.0024001,,,,,,,,,,,,,,,,,,,,,,,,,,,,,,,,,,,,,,,,,,flits,images/br_flits.png,images/cb_flits.png,,flits,,,,,,,,,,,0.017565104,0.034149306,1,0,0,flits,0,36,36,4,1
,,,,,,00025,2023-09-04_12h49.47.430,vbt_B2_day2,2022.2.4,MacIntel,60.0024001,,,,,,,,,,,,,,,,,,,,,,,,,,,,,,,,,,,,,,,,,,tand,images/br_tand.png,images/cb_tand.png,,tand,,,,,,,,,,,0.020954861,-0.020286458,1,0,0,tand,0,37,37,42,1
,,,,,,00025,2023-09-04_12h49.47.430,vbt_B2_day2,2022.2.4,MacIntel,60.0024001,,,,,,,,,,,,,,,,,,,,,,,,,,,,,,,,,,,,,,,,,,tweeling,images/br_tweeling.png,images/cb_tweeling.png,,t.ee,,,,,,,,,,,-0.173645833,-0.023125,1,0,0,t.ee,0,38,38,58,1
,,,,,,00025,2023-09-04_12h49.47.430,vbt_B2_day2,2022.2.4,MacIntel,60.0024001,,,,,,,,,,,,,,,,,,,,,,,,,,,,,,,,,,,,,,,,,,aanzien,images/br_aanzien.png,images/cb_aanzien.png,,aanzien,,,,,,,,,,,0.169340278,-0.013988715,1,0,0,aanzien,0,39,39,13,1
,,,,,,00025,2023-09-04_12h49.47.430,vbt_B2_day2,2022.2.4,MacIntel,60.0024001,,,,,,,,,,,,,,,,,,,,,,,,,,,,,,,,,,,,,,,,,,kijlen,images/br_kijlen.png,images/cb_kijlen.png,,kinden,,,,,,,,,,,0.034344618,-0.008229167,1,0,0,kinden,0,40,40,31,1
,,,,,,00025,2023-09-04_12h49.47.430,vbt_B2_day2,2022.2.4,MacIntel,60.0024001,,,,,,,,,,,,,,,,,,,,,,,,,,,,,,,,,,,,,,,,,,systeem,images/br_systeem.png,images/cb_systeem.png,,s....,,,,,,,,,,,-0.201996528,-0.028793403,1,0,0,s....,0,41,41,54,1
,,,,,,00025,2023-09-04_12h49.47.430,vbt_B2_day2,2022.2.4,MacIntel,60.0024001,,,,,,,,,,,,,,,,,,,,,,,,,,,,,,,,,,,,,,,,,,trots,images/br_trots.png,images/cb_trots.png,,trots,,,,,,,,,,,0.01655816,0.025273437,1,0,0,trots,0,42,42,44,1
,,,,,,00025,2023-09-04_12h49.47.430,vbt_B2_day2,2022.2.4,MacIntel,60.0024001,,,,,,,,,,,,,,,,,,,,,,,,,,,,,,,,,,,,,,,,,,dode,images/br_dode.png,images/cb_dode.png,,dode,,,,,,,,,,,0.104852431,0.003949653,1,0,0,dode,0,43,43,41,1
,,,,,,00025,2023-09-04_12h49.47.430,vbt_B2_day2,2022.2.4,MacIntel,60.0024001,,,,,,,,,,,,,,,,,,,,,,,,,,,,,,,,,,,,,,,,,,thema,images/br_thema.png,images/cb_thema.png,,t.e.a,,,,,,,,,,,-0.003967014,-0.021332465,1,0,0,t.e.a,0,44,44,47,1
,,,,,,00025,2023-09-04_12h49.47.430,vbt_B2_day2,2022.2.4,MacIntel,60.0024001,,,,,,,,,,,,,,,,,,,,,,,,,,,,,,,,,,,,,,,,,,moes,images/br_moes.png,images/cb_moes.png,,.oes,,,,,,,,,,,0.121644965,0.007131076,1,0,0,.oes,0,45,45,0,1
,,,,,,00025,2023-09-04_12h49.47.430,vbt_B2_day2,2022.2.4,MacIntel,60.0024001,,,,,,,,,,,,,,,,,,,,,,,,,,,,,,,,,,,,,,,,,,welzijn,images/br_welzijn.png,images/cb_welzijn.png,,.il...,,,,,,,,,,,-0.107569444,-0.020455729,1,0,0,.il...,0,46,46,52,1
,,,,,,00025,2023-09-04_12h49.47.430,vbt_B2_day2,2022.2.4,MacIntel,60.0024001,,,,,,,,,,,,,,,,,,,,,,,,,,,,,,,,,,,,,,,,,,koorts,images/br_koorts.png,images/cb_koorts.png,,koorts,,,,,,,,,,,0.101966146,-0.017300347,1,0,0,koorts,0,47,47,50,1
,,,,,,00025,2023-09-04_12h49.47.430,vbt_B2_day2,2022.2.4,MacIntel,60.0024001,,,,,,,,,,,,,,,,,,,,,,,,,,,,,,,,,,,,,,,,,,zegel,images/br_zegel.png,images/cb_zegel.png,,zegel,,,,,,,,,,,0.143554688,0.007725694,1,0,0,zegel,0,48,48,46,1
,,,,,,00025,2023-09-04_12h49.47.430,vbt_B2_day2,2022.2.4,MacIntel,60.0024001,,,,,,,,,,,,,,,,,,,,,,,,,,,,,,,,,,,,,,,,,,breuk,images/br_breuk.png,images/cb_breuk.png,,breuk,,,,,,,,,,,0.027400174,0.003038194,1,0,0,breuk,0,49,49,45,1
,,,,,,00025,2023-09-04_12h49.47.430,vbt_B2_day2,2022.2.4,MacIntel,60.0024001,,,,,,,,,,,,,,,,,,,,,,,,,,,,,,,,,,,,,,,,,,sora,images/br_sora.png,images/cb_sora.png,,sora,,,,,,,,,,,0.022256944,-0.037222222,1,0,0,sora,0,50,50,22,1
,,,,,,00025,2023-09-04_12h49.47.430,vbt_B2_day2,2022.2.4,MacIntel,60.0024001,,,,,,,,,,,,,,,,,,,,,,,,,,,,,,,,,,,,,,,,,,zomers,images/br_zomers.png,images/cb_zomers.png,,zo.ir,,,,,,,,,,,0.034670139,0.000594618,1,0,0,zo.ir,0,51,51,48,1
,,,,,,00025,2023-09-04_12h49.47.430,vbt_B2_day2,2022.2.4,MacIntel,60.0024001,,,,,,,,,,,,,,,,,,,,,,,,,,,,,,,,,,,,,,,,,,lurgen,images/br_lurgen.png,images/cb_lurgen.png,,lurgen,,,,,,,,,,,0.005976563,0.005737847,1,0,0,lurgen,0,52,52,29,1
,,,,,,00025,2023-09-04_12h49.47.430,vbt_B2_day2,2022.2.4,MacIntel,60.0024001,,,,,,,,,,,,,,,,,,,,,,,,,,,,,,,,,,,,,,,,,,lokken,images/br_lokken.png,images/cb_lokken.png,,lukken,,,,,,,,,,,0.080985243,0.012200521,1,0,0,lukken,0,53,53,8,1
,,,,,,00025,2023-09-04_12h49.47.430,vbt_B2_day2,2022.2.4,MacIntel,60.0024001,,,,,,,,,,,,,,,,,,,,,,,,,,,,,,,,,,,,,,,,,,anarchie,images/br_anarchie.png,images/cb_anarchie.png,,anarchie,,,,,,,,,,,0.080985243,0.012200521,1,0,0,anarchie,0,54,54,16,1
,,,,,,00025,2023-09-04_12h49.47.430,vbt_B2_day2,2022.2.4,MacIntel,60.0024001,,,,,,,,,,,,,,,,,,,,,,,,,,,,,,,,,,,,,,,,,,kenzis,images/br_kenzis.png,images/cb_kenzis.png,,kenz,,,,,,,,,,,-0.020056424,-0.017391493,1,0,0,kenz,0,55,55,30,1
,,,,,,00025,2023-09-04_12h49.47.430,vbt_B2_day2,2022.2.4,MacIntel,60.0024001,,,,,,,,,,,,,,,,,,,,,,,,,,,,,,,,,,,,,,,,,,prekken,images/br_prekken.png,images/cb_prekken.png,,prekken,,,,,,,,,,,0.012786458,-0.047552083,1,0,0,prekken,0,56,56,34,1
,,,,,,00025,2023-09-04_12h49.47.430,vbt_B2_day2,2022.2.4,MacIntel,60.0024001,,,,,,,,,,,,,,,,,,,,,,,,,,,,,,,,,,,,,,,,,,clan,images/br_clan.png,images/cb_clan.png,,clan,,,,,,,,,,,-0.056770833,0.005460069,1,0,0,clan,0,57,57,40,1
,,,,,,00025,2023-09-04_12h49.47.430,vbt_B2_day2,2022.2.4,MacIntel,60.0024001,,,,,,,,,,,,,,,,,,,,,,,,,,,,,,,,,,,,,,,,,,remel,images/br_remel.png,images/cb_remel.png,,re.el,,,,,,,,,,,0.116362847,0.016085069,1,0,0,re.el,0,58,58,25,1
,,,,,,00025,2023-09-04_12h49.47.430,vbt_B2_day2,2022.2.4,MacIntel,60.0024001,,,,,,,,,,,,,,,,,,,,,,,,,,,,,,,,,,,,,,,,,,jagen,images/br_jagen.png,images/cb_jagen.png,,dagen,,,,,,,,,,,0.064865451,0.01469184,1,0,0,dagen,0,59,59,6,1
,,,,,,00025,2023-09-04_12h49.47.430,vbt_B2_day2,2022.2.4,MacIntel,60.0024001,,,,,,,,,,,,,,,,,,,,,,,,,,,,,,,,,,,,,,,,,,,,,,,,,,,,,,,,,,,,,,,,,,,
