welcome_mouse.x,welcome_mouse.y,welcome_mouse.leftButton,welcome_mouse.midButton,welcome_mouse.rightButton,welcome_mouse.time,"ID",date,expName,psychopyVersion,OS,frameRate,refresh_mouse.x,refresh_mouse.y,refresh_mouse.leftButton,refresh_mouse.midButton,refresh_mouse.rightButton,refresh_mouse.time,braille_mouse.x,braille_mouse.y,braille_mouse.leftButton,braille_mouse.midButton,braille_mouse.rightButton,braille_mouse.time,trials.thisRepN,trials.thisTrialN,trials.thisN,trials.thisIndex,trials.ran,nlLet,brLet,cbLet,trainInstr_mouse.x,trainInstr_mouse.y,trainInstr_mouse.leftButton,trainInstr_mouse.midButton,trainInstr_mouse.rightButton,trainInstr_mouse.time,translation_key.keys,translation_key.corr,translation_key.rt,word_rsp.text,word_mouse.x,word_mouse.y,word_mouse.leftButton,word_mouse.midButton,word_mouse.rightButton,word_mouse.time,train_loop.thisRepN,train_loop.thisTrialN,train_loop.thisN,train_loop.thisIndex,train_loop.ran,nlWrd,brWrd,cbWrd,test,testResp,mouse.x,mouse.y,mouse.leftButton,mouse.midButton,mouse.rightButton,testInstr_mouse.x,testInstr_mouse.y,testInstr_mouse.leftButton,testInstr_mouse.midButton,testInstr_mouse.rightButton,test_mouse.x,test_mouse.y,test_mouse.leftButton,test_mouse.midButton,test_mouse.rightButton,test_response.text,test_loop.thisRepN,test_loop.thisTrialN,test_loop.thisN,test_loop.thisIndex,test_loop.ran
-0.143237847,-0.23452691,1,0,0,11.7723,00101,2023-11-28_08h12.02.975,vbt_B2_day2,2022.2.4,MacIntel,60.0024001,,,,,,,,,,,,,,,,,,,,,,,,,,,,,,,,,,,,,,,,,,,,,,,,,,,,,,,,,,,,,,,,,,,
,,,,,,00101,2023-11-28_08h12.02.975,vbt_B2_day2,2022.2.4,MacIntel,60.0024001,-0.143237847,-0.23452691,1,0,0,4.1972,,,,,,,,,,,,,,,,,,,,,,,,,,,,,,,,,,,,,,,,,,,,,,,,,,,,,,,,,,,,,
,,,,,,00101,2023-11-28_08h12.02.975,vbt_B2_day2,2022.2.4,MacIntel,60.0024001,,,,,,,-0.143237847,-0.23452691,1,0,0,0.0505,0,0,0,2,1,c,images/br_c.png,images/cb_c.png,,,,,,,,,,,,,,,,,,,,,,,,,,,,,,,,,,,,,,,,,,,,,,,
,,,,,,00101,2023-11-28_08h12.02.975,vbt_B2_day2,2022.2.4,MacIntel,60.0024001,,,,,,,-0.143237847,-0.23452691,1,0,0,0.3365,0,1,1,15,1,p,images/br_p.png,images/cb_p.png,,,,,,,,,,,,,,,,,,,,,,,,,,,,,,,,,,,,,,,,,,,,,,,
,,,,,,00101,2023-11-28_08h12.02.975,vbt_B2_day2,2022.2.4,MacIntel,60.0024001,,,,,,,-0.095737847,-0.246892361,1,0,0,1.8001,0,2,2,3,1,d,images/br_d.png,images/cb_d.png,,,,,,,,,,,,,,,,,,,,,,,,,,,,,,,,,,,,,,,,,,,,,,,
,,,,,,00101,2023-11-28_08h12.02.975,vbt_B2_day2,2022.2.4,MacIntel,60.0024001,,,,,,,-0.09797309,-0.246553819,1,0,0,6.1492,0,3,3,25,1,z,images/br_z.png,images/cb_z.png,,,,,,,,,,,,,,,,,,,,,,,,,,,,,,,,,,,,,,,,,,,,,,,
,,,,,,00101,2023-11-28_08h12.02.975,vbt_B2_day2,2022.2.4,MacIntel,60.0024001,,,,,,,-0.09797309,-0.246553819,1,0,0,0.4979,0,4,4,16,1,q,images/br_q.png,images/cb_q.png,,,,,,,,,,,,,,,,,,,,,,,,,,,,,,,,,,,,,,,,,,,,,,,
,,,,,,00101,2023-11-28_08h12.02.975,vbt_B2_day2,2022.2.4,MacIntel,60.0024001,,,,,,,-0.09797309,-0.246553819,1,0,0,1.1312,0,5,5,0,1,a,images/br_a.png,images/cb_a.png,,,,,,,,,,,,,,,,,,,,,,,,,,,,,,,,,,,,,,,,,,,,,,,
,,,,,,00101,2023-11-28_08h12.02.975,vbt_B2_day2,2022.2.4,MacIntel,60.0024001,,,,,,,-0.09797309,-0.246553819,1,0,0,0.3494,0,6,6,14,1,o,images/br_o.png,images/cb_o.png,,,,,,,,,,,,,,,,,,,,,,,,,,,,,,,,,,,,,,,,,,,,,,,
,,,,,,00101,2023-11-28_08h12.02.975,vbt_B2_day2,2022.2.4,MacIntel,60.0024001,,,,,,,-0.09797309,-0.247078993,1,0,0,0.6036,0,7,7,18,1,s,images/br_s.png,images/cb_s.png,,,,,,,,,,,,,,,,,,,,,,,,,,,,,,,,,,,,,,,,,,,,,,,
,,,,,,00101,2023-11-28_08h12.02.975,vbt_B2_day2,2022.2.4,MacIntel,60.0024001,,,,,,,-0.09797309,-0.247078993,1,0,0,0.1139,0,8,8,21,1,v,images/br_v.png,images/cb_v.png,,,,,,,,,,,,,,,,,,,,,,,,,,,,,,,,,,,,,,,,,,,,,,,
,,,,,,00101,2023-11-28_08h12.02.975,vbt_B2_day2,2022.2.4,MacIntel,60.0024001,,,,,,,-0.09797309,-0.248125,1,0,0,0.097,0,9,9,24,1,y,images/br_y.png,images/cb_y.png,,,,,,,,,,,,,,,,,,,,,,,,,,,,,,,,,,,,,,,,,,,,,,,
,,,,,,00101,2023-11-28_08h12.02.975,vbt_B2_day2,2022.2.4,MacIntel,60.0024001,,,,,,,-0.09797309,-0.248125,1,0,0,0.4661,0,10,10,8,1,i,images/br_i.png,images/cb_i.png,,,,,,,,,,,,,,,,,,,,,,,,,,,,,,,,,,,,,,,,,,,,,,,
,,,,,,00101,2023-11-28_08h12.02.975,vbt_B2_day2,2022.2.4,MacIntel,60.0024001,,,,,,,-0.09797309,-0.248125,1,0,0,4.6003,0,11,11,12,1,m,images/br_m.png,images/cb_m.png,,,,,,,,,,,,,,,,,,,,,,,,,,,,,,,,,,,,,,,,,,,,,,,
,,,,,,00101,2023-11-28_08h12.02.975,vbt_B2_day2,2022.2.4,MacIntel,60.0024001,,,,,,,-0.09797309,-0.248125,1,0,0,0.1653,0,12,12,22,1,w,images/br_w.png,images/cb_w.png,,,,,,,,,,,,,,,,,,,,,,,,,,,,,,,,,,,,,,,,,,,,,,,
,,,,,,00101,2023-11-28_08h12.02.975,vbt_B2_day2,2022.2.4,MacIntel,60.0024001,,,,,,,-0.09797309,-0.248125,1,0,0,0.2663,0,13,13,6,1,g,images/br_g.png,images/cb_g.png,,,,,,,,,,,,,,,,,,,,,,,,,,,,,,,,,,,,,,,,,,,,,,,
,,,,,,00101,2023-11-28_08h12.02.975,vbt_B2_day2,2022.2.4,MacIntel,60.0024001,,,,,,,-0.09797309,-0.248125,1,0,0,0.531,0,14,14,4,1,e,images/br_e.png,images/cb_e.png,,,,,,,,,,,,,,,,,,,,,,,,,,,,,,,,,,,,,,,,,,,,,,,
,,,,,,00101,2023-11-28_08h12.02.975,vbt_B2_day2,2022.2.4,MacIntel,60.0024001,,,,,,,-0.09797309,-0.248125,1,0,0,26.3012,0,15,15,20,1,u,images/br_u.png,images/cb_u.png,,,,,,,,,,,,,,,,,,,,,,,,,,,,,,,,,,,,,,,,,,,,,,,
,,,,,,00101,2023-11-28_08h12.02.975,vbt_B2_day2,2022.2.4,MacIntel,60.0024001,,,,,,,-0.09797309,-0.248125,1,0,0,18.7323,0,16,16,13,1,n,images/br_n.png,images/cb_n.png,,,,,,,,,,,,,,,,,,,,,,,,,,,,,,,,,,,,,,,,,,,,,,,
,,,,,,00101,2023-11-28_08h12.02.975,vbt_B2_day2,2022.2.4,MacIntel,60.0024001,,,,,,,-0.09797309,-0.248125,1,0,0,49.684,0,17,17,1,1,b,images/br_b.png,images/cb_b.png,,,,,,,,,,,,,,,,,,,,,,,,,,,,,,,,,,,,,,,,,,,,,,,
,,,,,,00101,2023-11-28_08h12.02.975,vbt_B2_day2,2022.2.4,MacIntel,60.0024001,,,,,,,-0.09797309,-0.248125,1,0,0,1.0997,0,18,18,23,1,x,images/br_x.png,images/cb_x.png,,,,,,,,,,,,,,,,,,,,,,,,,,,,,,,,,,,,,,,,,,,,,,,
,,,,,,00101,2023-11-28_08h12.02.975,vbt_B2_day2,2022.2.4,MacIntel,60.0024001,,,,,,,-0.09797309,-0.248125,1,0,0,2.8363,0,19,19,19,1,t,images/br_t.png,images/cb_t.png,,,,,,,,,,,,,,,,,,,,,,,,,,,,,,,,,,,,,,,,,,,,,,,
,,,,,,00101,2023-11-28_08h12.02.975,vbt_B2_day2,2022.2.4,MacIntel,60.0024001,,,,,,,-0.09797309,-0.248125,1,0,0,13.267,0,20,20,10,1,k,images/br_k.png,images/cb_k.png,,,,,,,,,,,,,,,,,,,,,,,,,,,,,,,,,,,,,,,,,,,,,,,
,,,,,,00101,2023-11-28_08h12.02.975,vbt_B2_day2,2022.2.4,MacIntel,60.0024001,,,,,,,-0.09797309,-0.248125,1,0,0,13.5498,0,21,21,11,1,l,images/br_l.png,images/cb_l.png,,,,,,,,,,,,,,,,,,,,,,,,,,,,,,,,,,,,,,,,,,,,,,,
,,,,,,00101,2023-11-28_08h12.02.975,vbt_B2_day2,2022.2.4,MacIntel,60.0024001,,,,,,,-0.098519965,-0.247543403,1,0,0,0.4662,0,22,22,17,1,r,images/br_r.png,images/cb_r.png,,,,,,,,,,,,,,,,,,,,,,,,,,,,,,,,,,,,,,,,,,,,,,,
,,,,,,00101,2023-11-28_08h12.02.975,vbt_B2_day2,2022.2.4,MacIntel,60.0024001,,,,,,,-0.098519965,-0.247543403,1,0,0,0.2986,0,23,23,9,1,j,images/br_j.png,images/cb_j.png,,,,,,,,,,,,,,,,,,,,,,,,,,,,,,,,,,,,,,,,,,,,,,,
,,,,,,00101,2023-11-28_08h12.02.975,vbt_B2_day2,2022.2.4,MacIntel,60.0024001,,,,,,,-0.098519965,-0.247543403,1,0,0,0.1979,0,24,24,5,1,f,images/br_f.png,images/cb_f.png,,,,,,,,,,,,,,,,,,,,,,,,,,,,,,,,,,,,,,,,,,,,,,,
,,,,,,00101,2023-11-28_08h12.02.975,vbt_B2_day2,2022.2.4,MacIntel,60.0024001,,,,,,,-0.098519965,-0.247543403,1,0,0,0.0832,0,25,25,7,1,h,images/br_h.png,images/cb_h.png,,,,,,,,,,,,,,,,,,,,,,,,,,,,,,,,,,,,,,,,,,,,,,,
,,,,,,00101,2023-11-28_08h12.02.975,vbt_B2_day2,2022.2.4,MacIntel,60.0024001,,,,,,,,,,,,,,,,,,,,,-0.098519965,-0.247543403,1,0,0,38.7834,,,,,,,,,,,,,,,,,,,,,,,,,,,,,,,,,,,,,,,,,
,,,,,,00101,2023-11-28_08h12.02.975,vbt_B2_day2,2022.2.4,MacIntel,60.0024001,,,,,,,,,,,,,,,,,,,,,,,,,,,down,0,7.1225,,-0.098519965,-0.247543403,1,0,0,1.8769,0,0,0,35,1,lust,images/br_lust.png,images/cb_lust.png,0,,,,,,,,,,,,,,,,,,,,,,
,,,,,,00101,2023-11-28_08h12.02.975,vbt_B2_day2,2022.2.4,MacIntel,60.0024001,,,,,,,,,,,,,,,,,,,,,,,,,,,down,0,8.0555,,-0.098519965,-0.247543403,1,0,0,1.1197,0,1,1,53,1,baron,images/br_baron.png,images/cb_baron.png,0,,,,,,,,,,,,,,,,,,,,,,
,,,,,,00101,2023-11-28_08h12.02.975,vbt_B2_day2,2022.2.4,MacIntel,60.0024001,,,,,,,,,,,,,,,,,,,,,,,,,,,down,0,16.0684,,-0.098519965,-0.247543403,1,0,0,7.4647,0,2,2,70,1,ijdel,images/br_ijdel.png,images/cb_ijdel.png,0,,,,,,,,,,,,,,,,,,,,,,
,,,,,,00101,2023-11-28_08h12.02.975,vbt_B2_day2,2022.2.4,MacIntel,60.0024001,,,,,,,,,,,,,,,,,,,,,,,,,,,down,0,1.9375,,-0.098519965,-0.247543403,1,0,0,0.7512,0,3,3,81,1,dubbel,images/br_dubbel.png,images/cb_dubbel.png,0,,,,,,,,,,,,,,,,,,,,,,
,,,,,,00101,2023-11-28_08h12.02.975,vbt_B2_day2,2022.2.4,MacIntel,60.0024001,,,,,,,,,,,,,,,,,,,,,,,,,,,down,0,7.1242,,-0.098519965,-0.247543403,1,0,0,1.1004,0,4,4,157,1,uitlaat,images/br_uitlaat.png,images/cb_uitlaat.png,0,,,,,,,,,,,,,,,,,,,,,,
,,,,,,00101,2023-11-28_08h12.02.975,vbt_B2_day2,2022.2.4,MacIntel,60.0024001,,,,,,,,,,,,,,,,,,,,,,,,,,,down,0,7.4056,,-0.098519965,-0.247543403,1,0,0,2.5842,0,5,5,30,1,uien,images/br_uien.png,images/cb_uien.png,0,,,,,,,,,,,,,,,,,,,,,,
,,,,,,00101,2023-11-28_08h12.02.975,vbt_B2_day2,2022.2.4,MacIntel,60.0024001,,,,,,,,,,,,,,,,,,,,,,,,,,,down,0,7.4317,,-0.098519965,-0.247543403,1,0,0,0.9158,0,6,6,148,1,smullen,images/br_smullen.png,images/cb_smullen.png,0,,,,,,,,,,,,,,,,,,,,,,
,,,,,,00101,2023-11-28_08h12.02.975,vbt_B2_day2,2022.2.4,MacIntel,60.0024001,,,,,,,,,,,,,,,,,,,,,,,,,,,down,0,2.2033,,-0.098519965,-0.247543403,1,0,0,0.699,0,7,7,110,1,zuster,images/br_zuster.png,images/cb_zuster.png,0,,,,,,,,,,,,,,,,,,,,,,
,,,,,,00101,2023-11-28_08h12.02.975,vbt_B2_day2,2022.2.4,MacIntel,60.0024001,,,,,,,,,,,,,,,,,,,,,,,,,,,down,0,8.77,,-0.098519965,-0.247543403,1,0,0,4.0202,0,8,8,199,1,beseffen,images/br_beseffen.png,images/cb_beseffen.png,0,,,,,,,,,,,,,,,,,,,,,,
,,,,,,00101,2023-11-28_08h12.02.975,vbt_B2_day2,2022.2.4,MacIntel,60.0024001,,,,,,,,,,,,,,,,,,,,,,,,,,,down,0,5.4225,,-0.098519965,-0.247543403,1,0,0,1.8162,0,9,9,40,1,schep,images/br_schep.png,images/cb_schep.png,0,,,,,,,,,,,,,,,,,,,,,,
,,,,,,00101,2023-11-28_08h12.02.975,vbt_B2_day2,2022.2.4,MacIntel,60.0024001,,,,,,,,,,,,,,,,,,,,,,,,,,,down,0,5.0349,,-0.098519965,-0.247543403,1,0,0,0.7163,0,10,10,193,1,weeshuis,images/br_weeshuis.png,images/cb_weeshuis.png,0,,,,,,,,,,,,,,,,,,,,,,
,,,,,,00101,2023-11-28_08h12.02.975,vbt_B2_day2,2022.2.4,MacIntel,60.0024001,,,,,,,,,,,,,,,,,,,,,,,,,,,down,0,9.5992,,-0.098519965,-0.247543403,1,0,0,4.249,0,11,11,153,1,vervoer,images/br_vervoer.png,images/cb_vervoer.png,0,,,,,,,,,,,,,,,,,,,,,,
,,,,,,00101,2023-11-28_08h12.02.975,vbt_B2_day2,2022.2.4,MacIntel,60.0024001,,,,,,,,,,,,,,,,,,,,,,,,,,,down,0,8.0505,,-0.098519965,-0.247543403,1,0,0,1.5652,0,12,12,96,1,slagen,images/br_slagen.png,images/cb_slagen.png,1,slagen,,,,,,,,,,,,,,,,,,,,,
,,,,,,00101,2023-11-28_08h12.02.975,vbt_B2_day2,2022.2.4,MacIntel,60.0024001,,,,,,,,,,,,,,,,,,,,,,,,,,,down,0,2.7051,,-0.098519965,-0.247795139,1,0,0,3.4303,0,13,13,118,1,vinger,images/br_vinger.png,images/cb_vinger.png,0,,,,,,,,,,,,,,,,,,,,,,
,,,,,,00101,2023-11-28_08h12.02.975,vbt_B2_day2,2022.2.4,MacIntel,60.0024001,,,,,,,,,,,,,,,,,,,,,,,,,,,down,0,3.5839,,-0.095703125,-0.248715278,1,0,0,1.4338,0,14,14,100,1,geduld,images/br_geduld.png,images/cb_geduld.png,0,,,,,,,,,,,,,,,,,,,,,,
,,,,,,00101,2023-11-28_08h12.02.975,vbt_B2_day2,2022.2.4,MacIntel,60.0024001,,,,,,,,,,,,,,,,,,,,,,,,,,,down,0,1.2009,,-0.095703125,-0.248715278,1,0,0,0.9975,0,15,15,93,1,waarop,images/br_waarop.png,images/cb_waarop.png,0,,,,,,,,,,,,,,,,,,,,,,
,,,,,,00101,2023-11-28_08h12.02.975,vbt_B2_day2,2022.2.4,MacIntel,60.0024001,,,,,,,,,,,,,,,,,,,,,,,,,,,down,0,3.4352,,-0.095703125,-0.248715278,1,0,0,0.7997,0,16,16,159,1,sufferd,images/br_sufferd.png,images/cb_sufferd.png,0,,,,,,,,,,,,,,,,,,,,,,
,,,,,,00101,2023-11-28_08h12.02.975,vbt_B2_day2,2022.2.4,MacIntel,60.0024001,,,,,,,,,,,,,,,,,,,,,,,,,,,down,0,1.5355,,-0.095703125,-0.248967014,1,0,0,3.9015,0,17,17,169,1,oprotten,images/br_oprotten.png,images/cb_oprotten.png,0,,,,,,,,,,,,,,,,,,,,,,
,,,,,,00101,2023-11-28_08h12.02.975,vbt_B2_day2,2022.2.4,MacIntel,60.0024001,,,,,,,,,,,,,,,,,,,,,,,,,,,down,0,2.4738,,-0.095703125,-0.248967014,1,0,0,0.465,0,18,18,189,1,aanraden,images/br_aanraden.png,images/cb_aanraden.png,0,,,,,,,,,,,,,,,,,,,,,,
,,,,,,00101,2023-11-28_08h12.02.975,vbt_B2_day2,2022.2.4,MacIntel,60.0024001,,,,,,,,,,,,,,,,,,,,,,,,,,,down,0,0.2157,,-0.095703125,-0.248967014,1,0,0,0.4988,0,19,19,36,1,vuur,images/br_vuur.png,images/cb_vuur.png,0,,,,,,,,,,,,,,,,,,,,,,
,,,,,,00101,2023-11-28_08h12.02.975,vbt_B2_day2,2022.2.4,MacIntel,60.0024001,,,,,,,,,,,,,,,,,,,,,,,,,,,down,0,14.3164,,-0.095703125,-0.248967014,1,0,0,0.8697,0,20,20,139,1,stiekem,images/br_stiekem.png,images/cb_stiekem.png,1,stiekem,,,,,,,,,,,,,,,,,,,,,
,,,,,,00101,2023-11-28_08h12.02.975,vbt_B2_day2,2022.2.4,MacIntel,60.0024001,,,,,,,,,,,,,,,,,,,,,,,,,,,down,0,3.2839,,-0.095703125,-0.248967014,1,0,0,1.2185,0,21,21,69,1,waken,images/br_waken.png,images/cb_waken.png,0,,,,,,,,,,,,,,,,,,,,,,
,,,,,,00101,2023-11-28_08h12.02.975,vbt_B2_day2,2022.2.4,MacIntel,60.0024001,,,,,,,,,,,,,,,,,,,,,,,,,,,down,0,0.2676,,-0.095703125,-0.248967014,1,0,0,1.7007,0,22,22,65,1,parel,images/br_parel.png,images/cb_parel.png,0,,,,,,,,,,,,,,,,,,,,,,
,,,,,,00101,2023-11-28_08h12.02.975,vbt_B2_day2,2022.2.4,MacIntel,60.0024001,,,,,,,,,,,,,,,,,,,,,,,,,,,down,0,9.9102,,-0.095703125,-0.248967014,1,0,0,0.7318,0,23,23,177,1,maaltijd,images/br_maaltijd.png,images/cb_maaltijd.png,1,maaltijd,,,,,,,,,,,,,,,,,,,,,
,,,,,,00101,2023-11-28_08h12.02.975,vbt_B2_day2,2022.2.4,MacIntel,60.0024001,,,,,,,,,,,,,,,,,,,,,,,,,,,down,0,0.5837,,-0.098706597,-0.24859375,1,0,0,2.8668,0,24,24,87,1,toeval,images/br_toeval.png,images/cb_toeval.png,0,,,,,,,,,,,,,,,,,,,,,,
,,,,,,00101,2023-11-28_08h12.02.975,vbt_B2_day2,2022.2.4,MacIntel,60.0024001,,,,,,,,,,,,,,,,,,,,,,,,,,,down,0,0.869,,-0.098706597,-0.24859375,1,0,0,6.9357,0,25,25,45,1,piste,images/br_piste.png,images/cb_piste.png,0,,,,,,,,,,,,,,,,,,,,,,
,,,,,,00101,2023-11-28_08h12.02.975,vbt_B2_day2,2022.2.4,MacIntel,60.0024001,,,,,,,,,,,,,,,,,,,,,,,,,,,down,0,13.9354,,-0.098706597,-0.24859375,1,0,0,7.0132,0,26,26,196,1,nakijken,images/br_nakijken.png,images/cb_nakijken.png,0,,,,,,,,,,,,,,,,,,,,,,
,,,,,,00101,2023-11-28_08h12.02.975,vbt_B2_day2,2022.2.4,MacIntel,60.0024001,,,,,,,,,,,,,,,,,,,,,,,,,,,down,0,5.144,,-0.098706597,-0.24859375,1,0,0,2.1847,0,27,27,185,1,mijnheer,images/br_mijnheer.png,images/cb_mijnheer.png,0,,,,,,,,,,,,,,,,,,,,,,
,,,,,,00101,2023-11-28_08h12.02.975,vbt_B2_day2,2022.2.4,MacIntel,60.0024001,,,,,,,,,,,,,,,,,,,,,,,,,,,down,0,1.4501,,-0.098706597,-0.24859375,1,0,0,0.9336,0,28,28,13,1,kaal,images/br_kaal.png,images/cb_kaal.png,0,,,,,,,,,,,,,,,,,,,,,,
,,,,,,00101,2023-11-28_08h12.02.975,vbt_B2_day2,2022.2.4,MacIntel,60.0024001,,,,,,,,,,,,,,,,,,,,,,,,,,,down,0,4.871,,-0.098706597,-0.24859375,1,0,0,0.6503,0,29,29,134,1,geliefd,images/br_geliefd.png,images/cb_geliefd.png,0,,,,,,,,,,,,,,,,,,,,,,
,,,,,,00101,2023-11-28_08h12.02.975,vbt_B2_day2,2022.2.4,MacIntel,60.0024001,,,,,,,,,,,,,,,,,,,,,,,,,,,down,0,1.136,,-0.099492187,-0.24859375,1,0,0,0.4685,0,30,30,88,1,boeien,images/br_boeien.png,images/cb_boeien.png,0,,,,,,,,,,,,,,,,,,,,,,
,,,,,,00101,2023-11-28_08h12.02.975,vbt_B2_day2,2022.2.4,MacIntel,60.0024001,,,,,,,,,,,,,,,,,,,,,,,,,,,down,0,0.6739,,-0.099492187,-0.24859375,1,0,0,0.4998,0,31,31,38,1,baai,images/br_baai.png,images/cb_baai.png,0,,,,,,,,,,,,,,,,,,,,,,
,,,,,,00101,2023-11-28_08h12.02.975,vbt_B2_day2,2022.2.4,MacIntel,60.0024001,,,,,,,,,,,,,,,,,,,,,,,,,,,down,0,1.1248,,-0.099492187,-0.24859375,1,0,0,1.2328,0,32,32,1,1,zaal,images/br_zaal.png,images/cb_zaal.png,0,,,,,,,,,,,,,,,,,,,,,,
,,,,,,00101,2023-11-28_08h12.02.975,vbt_B2_day2,2022.2.4,MacIntel,60.0024001,,,,,,,,,,,,,,,,,,,,,,,,,,,down,0,1.6642,,-0.099492187,-0.24859375,1,0,0,0.5201,0,33,33,73,1,volop,images/br_volop.png,images/cb_volop.png,0,,,,,,,,,,,,,,,,,,,,,,
,,,,,,00101,2023-11-28_08h12.02.975,vbt_B2_day2,2022.2.4,MacIntel,60.0024001,,,,,,,,,,,,,,,,,,,,,,,,,,,down,0,12.0823,,-0.099492187,-0.24859375,1,0,0,1.2686,0,34,34,99,1,koffie,images/br_koffie.png,images/cb_koffie.png,1,woffie,,,,,,,,,,,,,,,,,,,,,
,,,,,,00101,2023-11-28_08h12.02.975,vbt_B2_day2,2022.2.4,MacIntel,60.0024001,,,,,,,,,,,,,,,,,,,,,,,,,,,down,0,4.1432,,-0.099492187,-0.24859375,1,0,0,0.6985,0,35,35,140,1,blijven,images/br_blijven.png,images/cb_blijven.png,0,,,,,,,,,,,,,,,,,,,,,,
,,,,,,00101,2023-11-28_08h12.02.975,vbt_B2_day2,2022.2.4,MacIntel,60.0024001,,,,,,,,,,,,,,,,,,,,,,,,,,,down,0,5.2311,,-0.099492187,-0.24859375,1,0,0,5.034,0,36,36,195,1,middelen,images/br_middelen.png,images/cb_middelen.png,0,,,,,,,,,,,,,,,,,,,,,,
,,,,,,00101,2023-11-28_08h12.02.975,vbt_B2_day2,2022.2.4,MacIntel,60.0024001,,,,,,,,,,,,,,,,,,,,,,,,,,,down,0,6.4577,,-0.099492187,-0.24859375,1,0,0,0.7157,0,37,37,167,1,eenhoorn,images/br_eenhoorn.png,images/cb_eenhoorn.png,0,,,,,,,,,,,,,,,,,,,,,,
,,,,,,00101,2023-11-28_08h12.02.975,vbt_B2_day2,2022.2.4,MacIntel,60.0024001,,,,,,,,,,,,,,,,,,,,,,,,,,,down,0,1.1524,,-0.099492187,-0.24859375,1,0,0,0.5501,0,38,38,7,1,geld,images/br_geld.png,images/cb_geld.png,0,,,,,,,,,,,,,,,,,,,,,,
,,,,,,00101,2023-11-28_08h12.02.975,vbt_B2_day2,2022.2.4,MacIntel,60.0024001,,,,,,,,,,,,,,,,,,,,,,,,,,,down,0,7.2912,,-0.099492187,-0.24859375,1,0,0,5.365,0,39,39,147,1,komisch,images/br_komisch.png,images/cb_komisch.png,0,,,,,,,,,,,,,,,,,,,,,,
,,,,,,00101,2023-11-28_08h12.02.975,vbt_B2_day2,2022.2.4,MacIntel,60.0024001,,,,,,,,,,,,,,,,,,,,,,,,,,,down,0,10.1014,,-0.099492187,-0.24859375,1,0,0,1.2334,0,40,40,21,1,mist,images/br_mist.png,images/cb_mist.png,0,,,,,,,,,,,,,,,,,,,,,,
,,,,,,00101,2023-11-28_08h12.02.975,vbt_B2_day2,2022.2.4,MacIntel,60.0024001,,,,,,,,,,,,,,,,,,,,,,,,,,,down,0,2.791,,-0.099492187,-0.24859375,1,0,0,1.7866,0,41,41,194,1,driemaal,images/br_driemaal.png,images/cb_driemaal.png,0,,,,,,,,,,,,,,,,,,,,,,
,,,,,,00101,2023-11-28_08h12.02.975,vbt_B2_day2,2022.2.4,MacIntel,60.0024001,,,,,,,,,,,,,,,,,,,,,,,,,,,down,0,4.8057,,-0.098984375,-0.24859375,1,0,0,1.3647,0,42,42,162,1,uitdelen,images/br_uitdelen.png,images/cb_uitdelen.png,0,,,,,,,,,,,,,,,,,,,,,,
,,,,,,00101,2023-11-28_08h12.02.975,vbt_B2_day2,2022.2.4,MacIntel,60.0024001,,,,,,,,,,,,,,,,,,,,,,,,,,,down,0,5.9691,,-0.098984375,-0.24859375,1,0,0,1.9002,0,43,43,144,1,eetlust,images/br_eetlust.png,images/cb_eetlust.png,0,,,,,,,,,,,,,,,,,,,,,,
,,,,,,00101,2023-11-28_08h12.02.975,vbt_B2_day2,2022.2.4,MacIntel,60.0024001,,,,,,,,,,,,,,,,,,,,,,,,,,,down,0,3.0858,,-0.098984375,-0.24859375,1,0,0,1.7023,0,44,44,76,1,afval,images/br_afval.png,images/cb_afval.png,0,,,,,,,,,,,,,,,,,,,,,,
,,,,,,00101,2023-11-28_08h12.02.975,vbt_B2_day2,2022.2.4,MacIntel,60.0024001,,,,,,,,,,,,,,,,,,,,,,,,,,,down,0,3.8379,,-0.098732639,-0.24859375,1,0,0,1.3679,0,45,45,77,1,woede,images/br_woede.png,images/cb_woede.png,0,,,,,,,,,,,,,,,,,,,,,,
,,,,,,00101,2023-11-28_08h12.02.975,vbt_B2_day2,2022.2.4,MacIntel,60.0024001,,,,,,,,,,,,,,,,,,,,,,,,,,,down,0,1.1346,,-0.098732639,-0.249388021,1,0,0,0.701,0,46,46,12,1,kust,images/br_kust.png,images/cb_kust.png,0,,,,,,,,,,,,,,,,,,,,,,
,,,,,,00101,2023-11-28_08h12.02.975,vbt_B2_day2,2022.2.4,MacIntel,60.0024001,,,,,,,,,,,,,,,,,,,,,,,,,,,down,0,4.2584,,-0.098732639,-0.249388021,1,0,0,0.7325,0,47,47,61,1,groen,images/br_groen.png,images/cb_groen.png,0,,,,,,,,,,,,,,,,,,,,,,
,,,,,,00101,2023-11-28_08h12.02.975,vbt_B2_day2,2022.2.4,MacIntel,60.0024001,,,,,,,,,,,,,,,,,,,,,,,,,,,down,0,17.165,,-0.098732639,-0.249388021,1,0,0,0.75,0,48,48,176,1,techniek,images/br_techniek.png,images/cb_techniek.png,1,techniek,,,,,,,,,,,,,,,,,,,,,
,,,,,,00101,2023-11-28_08h12.02.975,vbt_B2_day2,2022.2.4,MacIntel,60.0024001,,,,,,,,,,,,,,,,,,,,,,,,,,,down,0,2.415,,-0.098732639,-0.249388021,1,0,0,3.8322,0,49,49,60,1,jasje,images/br_jasje.png,images/cb_jasje.png,0,,,,,,,,,,,,,,,,,,,,,,
,,,,,,00101,2023-11-28_08h12.02.975,vbt_B2_day2,2022.2.4,MacIntel,60.0024001,,,,,,,,,,,,,,,,,,,,,,,,,,,down,0,2.6666,,-0.098732639,-0.249388021,1,0,0,1.1697,0,50,50,125,1,aanzien,images/br_aanzien.png,images/cb_aanzien.png,0,,,,,,,,,,,,,,,,,,,,,,
,,,,,,00101,2023-11-28_08h12.02.975,vbt_B2_day2,2022.2.4,MacIntel,60.0024001,,,,,,,,,,,,,,,,,,,,,,,,,,,down,0,4.4903,,-0.098732639,-0.249388021,1,0,0,1.4164,0,51,51,41,1,maken,images/br_maken.png,images/cb_maken.png,0,,,,,,,,,,,,,,,,,,,,,,
,,,,,,00101,2023-11-28_08h12.02.975,vbt_B2_day2,2022.2.4,MacIntel,60.0024001,,,,,,,,,,,,,,,,,,,,,,,,,,,down,0,6.6195,,-0.098732639,-0.249388021,1,0,0,6.6687,0,52,52,123,1,hiervan,images/br_hiervan.png,images/cb_hiervan.png,0,,,,,,,,,,,,,,,,,,,,,,
,,,,,,00101,2023-11-28_08h12.02.975,vbt_B2_day2,2022.2.4,MacIntel,60.0024001,,,,,,,,,,,,,,,,,,,,,,,,,,,down,0,2.4008,,-0.098732639,-0.249388021,1,0,0,1.367,0,53,53,113,1,koppen,images/br_koppen.png,images/cb_koppen.png,0,,,,,,,,,,,,,,,,,,,,,,
,,,,,,00101,2023-11-28_08h12.02.975,vbt_B2_day2,2022.2.4,MacIntel,60.0024001,,,,,,,,,,,,,,,,,,,,,,,,,,,down,0,13.104,,-0.097400174,-0.243224826,1,0,0,3.8676,0,54,54,136,1,waarbij,images/br_waarbij.png,images/cb_waarbij.png,1,waarbij,,,,,,,,,,,,,,,,,,,,,
,,,,,,00101,2023-11-28_08h12.02.975,vbt_B2_day2,2022.2.4,MacIntel,60.0024001,,,,,,,,,,,,,,,,,,,,,,,,,,,down,0,0.5419,,-0.097400174,-0.243224826,1,0,0,3.9334,0,55,55,197,1,spanning,images/br_spanning.png,images/cb_spanning.png,0,,,,,,,,,,,,,,,,,,,,,,
,,,,,,00101,2023-11-28_08h12.02.975,vbt_B2_day2,2022.2.4,MacIntel,60.0024001,,,,,,,,,,,,,,,,,,,,,,,,,,,down,0,1.307,,-0.097400174,-0.243224826,1,0,0,4.6507,0,56,56,23,1,zout,images/br_zout.png,images/cb_zout.png,0,,,,,,,,,,,,,,,,,,,,,,
,,,,,,00101,2023-11-28_08h12.02.975,vbt_B2_day2,2022.2.4,MacIntel,60.0024001,,,,,,,,,,,,,,,,,,,,,,,,,,,down,0,0.8009,,-0.097400174,-0.243224826,1,0,0,2.3998,0,57,57,104,1,zweven,images/br_zweven.png,images/cb_zweven.png,0,,,,,,,,,,,,,,,,,,,,,,
,,,,,,00101,2023-11-28_08h12.02.975,vbt_B2_day2,2022.2.4,MacIntel,60.0024001,,,,,,,,,,,,,,,,,,,,,,,,,,,down,0,13.999,,-0.097400174,-0.243224826,1,0,0,2.3852,0,58,58,187,1,opkijken,images/br_opkijken.png,images/cb_opkijken.png,0,,,,,,,,,,,,,,,,,,,,,,
,,,,,,00101,2023-11-28_08h12.02.975,vbt_B2_day2,2022.2.4,MacIntel,60.0024001,,,,,,,,,,,,,,,,,,,,,,,,,,,down,0,0.3149,,-0.097400174,-0.243224826,1,0,0,0.8842,0,59,59,79,1,nodig,images/br_nodig.png,images/cb_nodig.png,0,,,,,,,,,,,,,,,,,,,,,,
,,,,,,00101,2023-11-28_08h12.02.975,vbt_B2_day2,2022.2.4,MacIntel,60.0024001,,,,,,,,,,,,,,,,,,,,,,,,,,,down,0,0.171,,-0.097400174,-0.243224826,1,0,0,1.4846,0,60,60,119,1,liefje,images/br_liefje.png,images/cb_liefje.png,0,,,,,,,,,,,,,,,,,,,,,,
,,,,,,00101,2023-11-28_08h12.02.975,vbt_B2_day2,2022.2.4,MacIntel,60.0024001,,,,,,,,,,,,,,,,,,,,,,,,,,,down,0,2.4178,,-0.097400174,-0.243224826,1,0,0,0.5506,0,61,61,37,1,mijn,images/br_mijn.png,images/cb_mijn.png,0,,,,,,,,,,,,,,,,,,,,,,
,,,,,,00101,2023-11-28_08h12.02.975,vbt_B2_day2,2022.2.4,MacIntel,60.0024001,,,,,,,,,,,,,,,,,,,,,,,,,,,down,0,3.1108,,-0.097400174,-0.243224826,1,0,0,1.3342,0,62,62,54,1,gebit,images/br_gebit.png,images/cb_gebit.png,0,,,,,,,,,,,,,,,,,,,,,,
,,,,,,00101,2023-11-28_08h12.02.975,vbt_B2_day2,2022.2.4,MacIntel,60.0024001,,,,,,,,,,,,,,,,,,,,,,,,,,,down,0,4.4351,,-0.097400174,-0.243224826,1,0,0,5.1669,0,63,63,165,1,feestdag,images/br_feestdag.png,images/cb_feestdag.png,0,,,,,,,,,,,,,,,,,,,,,,
,,,,,,00101,2023-11-28_08h12.02.975,vbt_B2_day2,2022.2.4,MacIntel,60.0024001,,,,,,,,,,,,,,,,,,,,,,,,,,,down,0,4.8008,,-0.097400174,-0.243224826,1,0,0,0.5493,0,64,64,68,1,schat,images/br_schat.png,images/cb_schat.png,0,,,,,,,,,,,,,,,,,,,,,,
,,,,,,00101,2023-11-28_08h12.02.975,vbt_B2_day2,2022.2.4,MacIntel,60.0024001,,,,,,,,,,,,,,,,,,,,,,,,,,,down,0,0.0476,,-0.097400174,-0.243224826,1,0,0,2.3179,0,65,65,126,1,kasteel,images/br_kasteel.png,images/cb_kasteel.png,0,,,,,,,,,,,,,,,,,,,,,,
,,,,,,00101,2023-11-28_08h12.02.975,vbt_B2_day2,2022.2.4,MacIntel,60.0024001,,,,,,,,,,,,,,,,,,,,,,,,,,,down,0,0.072,,-0.097400174,-0.243224826,1,0,0,2.1011,0,66,66,133,1,seizoen,images/br_seizoen.png,images/cb_seizoen.png,0,,,,,,,,,,,,,,,,,,,,,,
,,,,,,00101,2023-11-28_08h12.02.975,vbt_B2_day2,2022.2.4,MacIntel,60.0024001,,,,,,,,,,,,,,,,,,,,,,,,,,,down,0,0.8548,,-0.097400174,-0.243224826,1,0,0,0.6502,0,67,67,112,1,lukken,images/br_lukken.png,images/cb_lukken.png,0,,,,,,,,,,,,,,,,,,,,,,
,,,,,,00101,2023-11-28_08h12.02.975,vbt_B2_day2,2022.2.4,MacIntel,60.0024001,,,,,,,,,,,,,,,,,,,,,,,,,,,down,0,7.1007,,-0.097400174,-0.243224826,1,0,0,0.5032,0,68,68,47,1,kabel,images/br_kabel.png,images/cb_kabel.png,0,,,,,,,,,,,,,,,,,,,,,,
,,,,,,00101,2023-11-28_08h12.02.975,vbt_B2_day2,2022.2.4,MacIntel,60.0024001,,,,,,,,,,,,,,,,,,,,,,,,,,,down,0,2.1489,,-0.097400174,-0.243224826,1,0,0,3.9003,0,69,69,168,1,bisschop,images/br_bisschop.png,images/cb_bisschop.png,0,,,,,,,,,,,,,,,,,,,,,,
,,,,,,00101,2023-11-28_08h12.02.975,vbt_B2_day2,2022.2.4,MacIntel,60.0024001,,,,,,,,,,,,,,,,,,,,,,,,,,,down,0,0.9675,,-0.097925347,-0.244782986,1,0,0,0.7182,0,70,70,50,1,stoom,images/br_stoom.png,images/cb_stoom.png,0,,,,,,,,,,,,,,,,,,,,,,
,,,,,,00101,2023-11-28_08h12.02.975,vbt_B2_day2,2022.2.4,MacIntel,60.0024001,,,,,,,,,,,,,,,,,,,,,,,,,,,down,0,4.3391,,-0.097925347,-0.244782986,1,0,0,0.484,0,71,71,135,1,gedicht,images/br_gedicht.png,images/cb_gedicht.png,0,,,,,,,,,,,,,,,,,,,,,,
,,,,,,00101,2023-11-28_08h12.02.975,vbt_B2_day2,2022.2.4,MacIntel,60.0024001,,,,,,,,,,,,,,,,,,,,,,,,,,,down,0,3.3686,,-0.097925347,-0.244782986,1,0,0,3.6657,0,72,72,175,1,heengaan,images/br_heengaan.png,images/cb_heengaan.png,0,,,,,,,,,,,,,,,,,,,,,,
,,,,,,00101,2023-11-28_08h12.02.975,vbt_B2_day2,2022.2.4,MacIntel,60.0024001,,,,,,,,,,,,,,,,,,,,,,,,,,,down,0,1.2704,,-0.097925347,-0.244782986,1,0,0,0.6823,0,73,73,29,1,baas,images/br_baas.png,images/cb_baas.png,0,,,,,,,,,,,,,,,,,,,,,,
,,,,,,00101,2023-11-28_08h12.02.975,vbt_B2_day2,2022.2.4,MacIntel,60.0024001,,,,,,,,,,,,,,,,,,,,,,,,,,,down,0,2.4373,,-0.097925347,-0.244782986,1,0,0,0.517,0,74,74,129,1,verhaal,images/br_verhaal.png,images/cb_verhaal.png,0,,,,,,,,,,,,,,,,,,,,,,
,,,,,,00101,2023-11-28_08h12.02.975,vbt_B2_day2,2022.2.4,MacIntel,60.0024001,,,,,,,,,,,,,,,,,,,,,,,,,,,down,0,4.1021,,-0.097925347,-0.244782986,1,0,0,0.7527,0,75,75,17,1,taal,images/br_taal.png,images/cb_taal.png,1,taal,,,,,,,,,,,,,,,,,,,,,
,,,,,,00101,2023-11-28_08h12.02.975,vbt_B2_day2,2022.2.4,MacIntel,60.0024001,,,,,,,,,,,,,,,,,,,,,,,,,,,down,0,1.5589,,-0.097925347,-0.244782986,1,0,0,0.6137,0,76,76,103,1,joggen,images/br_joggen.png,images/cb_joggen.png,0,,,,,,,,,,,,,,,,,,,,,,
,,,,,,00101,2023-11-28_08h12.02.975,vbt_B2_day2,2022.2.4,MacIntel,60.0024001,,,,,,,,,,,,,,,,,,,,,,,,,,,down,0,0.6825,,-0.097925347,-0.244782986,1,0,0,1.8983,0,77,77,198,1,bedoelen,images/br_bedoelen.png,images/cb_bedoelen.png,0,,,,,,,,,,,,,,,,,,,,,,
,,,,,,00101,2023-11-28_08h12.02.975,vbt_B2_day2,2022.2.4,MacIntel,60.0024001,,,,,,,,,,,,,,,,,,,,,,,,,,,down,0,3.3843,,-0.097925347,-0.244782986,1,0,0,1.1149,0,78,78,14,1,rijp,images/br_rijp.png,images/cb_rijp.png,0,,,,,,,,,,,,,,,,,,,,,,
,,,,,,00101,2023-11-28_08h12.02.975,vbt_B2_day2,2022.2.4,MacIntel,60.0024001,,,,,,,,,,,,,,,,,,,,,,,,,,,down,0,0.633,,-0.097925347,-0.244782986,1,0,0,2.2696,0,79,79,191,1,opheffen,images/br_opheffen.png,images/cb_opheffen.png,0,,,,,,,,,,,,,,,,,,,,,,
,,,,,,00101,2023-11-28_08h12.02.975,vbt_B2_day2,2022.2.4,MacIntel,60.0024001,,,,,,,,,,,,,,,,,,,,,,,,,,,down,0,11.0588,,-0.097925347,-0.244782986,1,0,0,0.6341,0,80,80,179,1,woestijn,images/br_woestijn.png,images/cb_woestijn.png,1,woestijn,,,,,,,,,,,,,,,,,,,,,
,,,,,,00101,2023-11-28_08h12.02.975,vbt_B2_day2,2022.2.4,MacIntel,60.0024001,,,,,,,,,,,,,,,,,,,,,,,,,,,down,0,2.69,,-0.097925347,-0.244782986,1,0,0,0.5994,0,81,81,11,1,mode,images/br_mode.png,images/cb_mode.png,0,,,,,,,,,,,,,,,,,,,,,,
,,,,,,00101,2023-11-28_08h12.02.975,vbt_B2_day2,2022.2.4,MacIntel,60.0024001,,,,,,,,,,,,,,,,,,,,,,,,,,,down,0,0.3009,,-0.097925347,-0.244782986,1,0,0,3.3325,0,82,82,154,1,aflopen,images/br_aflopen.png,images/cb_aflopen.png,0,,,,,,,,,,,,,,,,,,,,,,
,,,,,,00101,2023-11-28_08h12.02.975,vbt_B2_day2,2022.2.4,MacIntel,60.0024001,,,,,,,,,,,,,,,,,,,,,,,,,,,down,0,0.8172,,-0.097925347,-0.244782986,1,0,0,0.9172,0,83,83,34,1,vorm,images/br_vorm.png,images/cb_vorm.png,0,,,,,,,,,,,,,,,,,,,,,,
,,,,,,00101,2023-11-28_08h12.02.975,vbt_B2_day2,2022.2.4,MacIntel,60.0024001,,,,,,,,,,,,,,,,,,,,,,,,,,,down,0,4.5353,,-0.097925347,-0.244782986,1,0,0,2.3999,0,84,84,111,1,ticket,images/br_ticket.png,images/cb_ticket.png,0,,,,,,,,,,,,,,,,,,,,,,
,,,,,,00101,2023-11-28_08h12.02.975,vbt_B2_day2,2022.2.4,MacIntel,60.0024001,,,,,,,,,,,,,,,,,,,,,,,,,,,down,0,0.0746,,-0.097925347,-0.244782986,1,0,0,2.7308,0,85,85,63,1,flirt,images/br_flirt.png,images/cb_flirt.png,0,,,,,,,,,,,,,,,,,,,,,,
,,,,,,00101,2023-11-28_08h12.02.975,vbt_B2_day2,2022.2.4,MacIntel,60.0024001,,,,,,,,,,,,,,,,,,,,,,,,,,,down,0,2.6513,,-0.097925347,-0.244782986,1,0,0,2.0656,0,86,86,85,1,heilig,images/br_heilig.png,images/cb_heilig.png,0,,,,,,,,,,,,,,,,,,,,,,
,,,,,,00101,2023-11-28_08h12.02.975,vbt_B2_day2,2022.2.4,MacIntel,60.0024001,,,,,,,,,,,,,,,,,,,,,,,,,,,down,0,0.2504,,-0.097925347,-0.244782986,1,0,0,1.3015,0,87,87,86,1,woning,images/br_woning.png,images/cb_woning.png,0,,,,,,,,,,,,,,,,,,,,,,
,,,,,,00101,2023-11-28_08h12.02.975,vbt_B2_day2,2022.2.4,MacIntel,60.0024001,,,,,,,,,,,,,,,,,,,,,,,,,,,down,0,0.5174,,-0.097925347,-0.244782986,1,0,0,2.4848,0,88,88,141,1,knielen,images/br_knielen.png,images/cb_knielen.png,0,,,,,,,,,,,,,,,,,,,,,,
,,,,,,00101,2023-11-28_08h12.02.975,vbt_B2_day2,2022.2.4,MacIntel,60.0024001,,,,,,,,,,,,,,,,,,,,,,,,,,,down,0,0.1527,,-0.097925347,-0.244782986,1,0,0,5.5825,0,89,89,80,1,kanjer,images/br_kanjer.png,images/cb_kanjer.png,0,,,,,,,,,,,,,,,,,,,,,,
,,,,,,00101,2023-11-28_08h12.02.975,vbt_B2_day2,2022.2.4,MacIntel,60.0024001,,,,,,,,,,,,,,,,,,,,,,,,,,,down,0,1.8495,,-0.097925347,-0.244782986,1,0,0,0.5154,0,90,90,106,1,zingen,images/br_zingen.png,images/cb_zingen.png,0,,,,,,,,,,,,,,,,,,,,,,
,,,,,,00101,2023-11-28_08h12.02.975,vbt_B2_day2,2022.2.4,MacIntel,60.0024001,,,,,,,,,,,,,,,,,,,,,,,,,,,down,0,5.0935,,-0.098185764,-0.242947049,1,0,0,0.515,0,91,91,98,1,kreeft,images/br_kreeft.png,images/cb_kreeft.png,1,kreeft,,,,,,,,,,,,,,,,,,,,,
,,,,,,00101,2023-11-28_08h12.02.975,vbt_B2_day2,2022.2.4,MacIntel,60.0024001,,,,,,,,,,,,,,,,,,,,,,,,,,,down,0,3.4371,,-0.098185764,-0.242947049,1,0,0,3.5644,0,92,92,101,1,staren,images/br_staren.png,images/cb_staren.png,0,,,,,,,,,,,,,,,,,,,,,,
,,,,,,00101,2023-11-28_08h12.02.975,vbt_B2_day2,2022.2.4,MacIntel,60.0024001,,,,,,,,,,,,,,,,,,,,,,,,,,,down,0,0.0834,,-0.098706597,-0.242690972,1,0,0,0.4001,0,93,93,2,1,jaar,images/br_jaar.png,images/cb_jaar.png,0,,,,,,,,,,,,,,,,,,,,,,
,,,,,,00101,2023-11-28_08h12.02.975,vbt_B2_day2,2022.2.4,MacIntel,60.0024001,,,,,,,,,,,,,,,,,,,,,,,,,,,down,0,0.3348,,-0.098706597,-0.242690972,1,0,0,1.7513,0,94,94,75,1,snoep,images/br_snoep.png,images/cb_snoep.png,0,,,,,,,,,,,,,,,,,,,,,,
,,,,,,00101,2023-11-28_08h12.02.975,vbt_B2_day2,2022.2.4,MacIntel,60.0024001,,,,,,,,,,,,,,,,,,,,,,,,,,,down,0,4.3866,,-0.098706597,-0.242690972,1,0,0,0.4827,0,95,95,180,1,openbaar,images/br_openbaar.png,images/cb_openbaar.png,0,,,,,,,,,,,,,,,,,,,,,,
,,,,,,00101,2023-11-28_08h12.02.975,vbt_B2_day2,2022.2.4,MacIntel,60.0024001,,,,,,,,,,,,,,,,,,,,,,,,,,,down,0,3.548,,-0.098706597,-0.242690972,1,0,0,0.4643,0,96,96,16,1,ziek,images/br_ziek.png,images/cb_ziek.png,1,ziek,,,,,,,,,,,,,,,,,,,,,
,,,,,,00101,2023-11-28_08h12.02.975,vbt_B2_day2,2022.2.4,MacIntel,60.0024001,,,,,,,,,,,,,,,,,,,,,,,,,,,down,0,3.9756,,-0.098706597,-0.242690972,1,0,0,0.7331,0,97,97,124,1,bloeien,images/br_bloeien.png,images/cb_bloeien.png,0,,,,,,,,,,,,,,,,,,,,,,
,,,,,,00101,2023-11-28_08h12.02.975,vbt_B2_day2,2022.2.4,MacIntel,60.0024001,,,,,,,,,,,,,,,,,,,,,,,,,,,down,0,3.3507,,-0.098706597,-0.242690972,1,0,0,3.9162,0,98,98,108,1,excuus,images/br_excuus.png,images/cb_excuus.png,0,,,,,,,,,,,,,,,,,,,,,,
,,,,,,00101,2023-11-28_08h12.02.975,vbt_B2_day2,2022.2.4,MacIntel,60.0024001,,,,,,,,,,,,,,,,,,,,,,,,,,,down,0,4.6214,,-0.098706597,-0.242690972,1,0,0,4.3824,0,99,99,143,1,hechten,images/br_hechten.png,images/cb_hechten.png,0,,,,,,,,,,,,,,,,,,,,,,
,,,,,,00101,2023-11-28_08h12.02.975,vbt_B2_day2,2022.2.4,MacIntel,60.0024001,,,,,,,,,,,,,,,,,,,,,,,,,,,down,0,4.2823,,-0.098706597,-0.242690972,1,0,0,1.6187,0,100,100,181,1,toegeven,images/br_toegeven.png,images/cb_toegeven.png,0,,,,,,,,,,,,,,,,,,,,,,
,,,,,,00101,2023-11-28_08h12.02.975,vbt_B2_day2,2022.2.4,MacIntel,60.0024001,,,,,,,,,,,,,,,,,,,,,,,,,,,down,0,0.6502,,-0.098706597,-0.242690972,1,0,0,0.3695,0,101,101,120,1,klimmen,images/br_klimmen.png,images/cb_klimmen.png,0,,,,,,,,,,,,,,,,,,,,,,
,,,,,,00101,2023-11-28_08h12.02.975,vbt_B2_day2,2022.2.4,MacIntel,60.0024001,,,,,,,,,,,,,,,,,,,,,,,,,,,down,0,3.49,,-0.098706597,-0.242690972,1,0,0,1.3355,0,102,102,130,1,keihard,images/br_keihard.png,images/cb_keihard.png,0,,,,,,,,,,,,,,,,,,,,,,
,,,,,,00101,2023-11-28_08h12.02.975,vbt_B2_day2,2022.2.4,MacIntel,60.0024001,,,,,,,,,,,,,,,,,,,,,,,,,,,down,0,0.6024,,-0.098706597,-0.242690972,1,0,0,0.5689,0,103,103,49,1,laken,images/br_laken.png,images/cb_laken.png,0,,,,,,,,,,,,,,,,,,,,,,
,,,,,,00101,2023-11-28_08h12.02.975,vbt_B2_day2,2022.2.4,MacIntel,60.0024001,,,,,,,,,,,,,,,,,,,,,,,,,,,down,0,0.7336,,-0.098706597,-0.242690972,1,0,0,1.414,0,104,104,184,1,aandelen,images/br_aandelen.png,images/cb_aandelen.png,0,,,,,,,,,,,,,,,,,,,,,,
,,,,,,00101,2023-11-28_08h12.02.975,vbt_B2_day2,2022.2.4,MacIntel,60.0024001,,,,,,,,,,,,,,,,,,,,,,,,,,,down,0,2.7197,,-0.098706597,-0.242690972,1,0,0,1.5831,0,105,105,146,1,opkomen,images/br_opkomen.png,images/cb_opkomen.png,0,,,,,,,,,,,,,,,,,,,,,,
,,,,,,00101,2023-11-28_08h12.02.975,vbt_B2_day2,2022.2.4,MacIntel,60.0024001,,,,,,,,,,,,,,,,,,,,,,,,,,,down,0,4.1838,,-0.098706597,-0.242690972,1,0,0,1.3647,0,106,106,72,1,strak,images/br_strak.png,images/cb_strak.png,0,,,,,,,,,,,,,,,,,,,,,,
,,,,,,00101,2023-11-28_08h12.02.975,vbt_B2_day2,2022.2.4,MacIntel,60.0024001,,,,,,,,,,,,,,,,,,,,,,,,,,,down,0,2.7397,,-0.101193576,-0.241388889,1,0,0,1.5837,0,107,107,132,1,grappen,images/br_grappen.png,images/cb_grappen.png,0,,,,,,,,,,,,,,,,,,,,,,
,,,,,,00101,2023-11-28_08h12.02.975,vbt_B2_day2,2022.2.4,MacIntel,60.0024001,,,,,,,,,,,,,,,,,,,,,,,,,,,down,0,0.2014,,-0.101193576,-0.241128472,1,0,0,0.9494,0,108,108,66,1,lever,images/br_lever.png,images/cb_lever.png,0,,,,,,,,,,,,,,,,,,,,,,
,,,,,,00101,2023-11-28_08h12.02.975,vbt_B2_day2,2022.2.4,MacIntel,60.0024001,,,,,,,,,,,,,,,,,,,,,,,,,,,down,0,0.0996,,-0.101193576,-0.241128472,1,0,0,2.8008,0,109,109,142,1,snuiven,images/br_snuiven.png,images/cb_snuiven.png,0,,,,,,,,,,,,,,,,,,,,,,
,,,,,,00101,2023-11-28_08h12.02.975,vbt_B2_day2,2022.2.4,MacIntel,60.0024001,,,,,,,,,,,,,,,,,,,,,,,,,,,down,0,0.2173,,-0.10094184,-0.241128472,1,0,0,0.4861,0,110,110,42,1,bleek,images/br_bleek.png,images/cb_bleek.png,0,,,,,,,,,,,,,,,,,,,,,,
,,,,,,00101,2023-11-28_08h12.02.975,vbt_B2_day2,2022.2.4,MacIntel,60.0024001,,,,,,,,,,,,,,,,,,,,,,,,,,,down,0,0.9207,,-0.10094184,-0.241128472,1,0,0,0.8489,0,111,111,95,1,vreten,images/br_vreten.png,images/cb_vreten.png,0,,,,,,,,,,,,,,,,,,,,,,
,,,,,,00101,2023-11-28_08h12.02.975,vbt_B2_day2,2022.2.4,MacIntel,60.0024001,,,,,,,,,,,,,,,,,,,,,,,,,,,down,0,0.0689,,-0.100429688,-0.241128472,1,0,0,1.6188,0,112,112,128,1,prikken,images/br_prikken.png,images/cb_prikken.png,0,,,,,,,,,,,,,,,,,,,,,,
,,,,,,00101,2023-11-28_08h12.02.975,vbt_B2_day2,2022.2.4,MacIntel,60.0024001,,,,,,,,,,,,,,,,,,,,,,,,,,,down,0,0.9482,,-0.100429688,-0.241128472,1,0,0,0.7347,0,113,113,62,1,knaap,images/br_knaap.png,images/cb_knaap.png,0,,,,,,,,,,,,,,,,,,,,,,
,,,,,,00101,2023-11-28_08h12.02.975,vbt_B2_day2,2022.2.4,MacIntel,60.0024001,,,,,,,,,,,,,,,,,,,,,,,,,,,down,0,0.1847,,-0.100177951,-0.241128472,1,0,0,1.1676,0,114,114,116,1,besmet,images/br_besmet.png,images/cb_besmet.png,0,,,,,,,,,,,,,,,,,,,,,,
,,,,,,00101,2023-11-28_08h12.02.975,vbt_B2_day2,2022.2.4,MacIntel,60.0024001,,,,,,,,,,,,,,,,,,,,,,,,,,,down,0,0.1344,,-0.100177951,-0.241128472,1,0,0,0.4328,0,115,115,9,1,hier,images/br_hier.png,images/cb_hier.png,0,,,,,,,,,,,,,,,,,,,,,,
,,,,,,00101,2023-11-28_08h12.02.975,vbt_B2_day2,2022.2.4,MacIntel,60.0024001,,,,,,,,,,,,,,,,,,,,,,,,,,,down,0,1.4005,,-0.100177951,-0.241128472,1,0,0,0.7312,0,116,116,171,1,aarzelen,images/br_aarzelen.png,images/cb_aarzelen.png,0,,,,,,,,,,,,,,,,,,,,,,
,,,,,,00101,2023-11-28_08h12.02.975,vbt_B2_day2,2022.2.4,MacIntel,60.0024001,,,,,,,,,,,,,,,,,,,,,,,,,,,down,0,0.0013,,-0.100177951,-0.241128472,1,0,0,0.4337,0,117,117,24,1,jurk,images/br_jurk.png,images/cb_jurk.png,0,,,,,,,,,,,,,,,,,,,,,,
,,,,,,00101,2023-11-28_08h12.02.975,vbt_B2_day2,2022.2.4,MacIntel,60.0024001,,,,,,,,,,,,,,,,,,,,,,,,,,,down,0,2.8698,,-0.100177951,-0.241128472,1,0,0,1.2527,0,118,118,32,1,palm,images/br_palm.png,images/cb_palm.png,0,,,,,,,,,,,,,,,,,,,,,,
,,,,,,00101,2023-11-28_08h12.02.975,vbt_B2_day2,2022.2.4,MacIntel,60.0024001,,,,,,,,,,,,,,,,,,,,,,,,,,,down,0,0.0518,,-0.100177951,-0.241128472,1,0,0,0.4842,0,119,119,74,1,graaf,images/br_graaf.png,images/cb_graaf.png,0,,,,,,,,,,,,,,,,,,,,,,
,,,,,,00101,2023-11-28_08h12.02.975,vbt_B2_day2,2022.2.4,MacIntel,60.0024001,,,,,,,,,,,,,,,,,,,,,,,,,,,down,0,0.0727,,-0.100177951,-0.241128472,1,0,0,0.9501,0,120,120,44,1,flits,images/br_flits.png,images/cb_flits.png,0,,,,,,,,,,,,,,,,,,,,,,
,,,,,,00101,2023-11-28_08h12.02.975,vbt_B2_day2,2022.2.4,MacIntel,60.0024001,,,,,,,,,,,,,,,,,,,,,,,,,,,down,0,1.1098,,-0.100177951,-0.241128472,1,0,0,0.7331,0,121,121,90,1,geluid,images/br_geluid.png,images/cb_geluid.png,0,,,,,,,,,,,,,,,,,,,,,,
,,,,,,00101,2023-11-28_08h12.02.975,vbt_B2_day2,2022.2.4,MacIntel,60.0024001,,,,,,,,,,,,,,,,,,,,,,,,,,,down,0,0.5086,,-0.100177951,-0.241128472,1,0,0,1.6817,0,122,122,183,1,getuigen,images/br_getuigen.png,images/cb_getuigen.png,0,,,,,,,,,,,,,,,,,,,,,,
,,,,,,00101,2023-11-28_08h12.02.975,vbt_B2_day2,2022.2.4,MacIntel,60.0024001,,,,,,,,,,,,,,,,,,,,,,,,,,,down,0,0.3829,,-0.100177951,-0.241128472,1,0,0,1.0643,0,123,123,91,1,gezond,images/br_gezond.png,images/cb_gezond.png,0,,,,,,,,,,,,,,,,,,,,,,
,,,,,,00101,2023-11-28_08h12.02.975,vbt_B2_day2,2022.2.4,MacIntel,60.0024001,,,,,,,,,,,,,,,,,,,,,,,,,,,down,0,3.7854,,-0.100177951,-0.241128472,1,0,0,0.4678,0,124,124,138,1,akkoord,images/br_akkoord.png,images/cb_akkoord.png,1,akkoord,,,,,,,,,,,,,,,,,,,,,
,,,,,,00101,2023-11-28_08h12.02.975,vbt_B2_day2,2022.2.4,MacIntel,60.0024001,,,,,,,,,,,,,,,,,,,,,,,,,,,down,0,0.4837,,-0.100177951,-0.241128472,1,0,0,0.5335,0,125,125,109,1,totaal,images/br_totaal.png,images/cb_totaal.png,0,,,,,,,,,,,,,,,,,,,,,,
,,,,,,00101,2023-11-28_08h12.02.975,vbt_B2_day2,2022.2.4,MacIntel,60.0024001,,,,,,,,,,,,,,,,,,,,,,,,,,,down,0,3.5673,,-0.100177951,-0.241128472,1,0,0,1.5499,0,126,126,15,1,soda,images/br_soda.png,images/cb_soda.png,0,,,,,,,,,,,,,,,,,,,,,,
,,,,,,00101,2023-11-28_08h12.02.975,vbt_B2_day2,2022.2.4,MacIntel,60.0024001,,,,,,,,,,,,,,,,,,,,,,,,,,,down,0,2.1523,,-0.100177951,-0.241128472,1,0,0,1.0967,0,127,127,64,1,wegen,images/br_wegen.png,images/cb_wegen.png,0,,,,,,,,,,,,,,,,,,,,,,
,,,,,,00101,2023-11-28_08h12.02.975,vbt_B2_day2,2022.2.4,MacIntel,60.0024001,,,,,,,,,,,,,,,,,,,,,,,,,,,down,0,0.5728,,-0.100177951,-0.241128472,1,0,0,1.4505,0,128,128,26,1,leuk,images/br_leuk.png,images/cb_leuk.png,0,,,,,,,,,,,,,,,,,,,,,,
,,,,,,00101,2023-11-28_08h12.02.975,vbt_B2_day2,2022.2.4,MacIntel,60.0024001,,,,,,,,,,,,,,,,,,,,,,,,,,,down,0,21.55,,-0.100177951,-0.241128472,1,0,0,1.2828,0,129,129,28,1,stal,images/br_stal.png,images/cb_stal.png,0,,,,,,,,,,,,,,,,,,,,,,
,,,,,,00101,2023-11-28_08h12.02.975,vbt_B2_day2,2022.2.4,MacIntel,60.0024001,,,,,,,,,,,,,,,,,,,,,,,,,,,down,0,0.8835,,-0.100177951,-0.241128472,1,0,0,1.0827,0,130,130,82,1,muziek,images/br_muziek.png,images/cb_muziek.png,0,,,,,,,,,,,,,,,,,,,,,,
,,,,,,00101,2023-11-28_08h12.02.975,vbt_B2_day2,2022.2.4,MacIntel,60.0024001,,,,,,,,,,,,,,,,,,,,,,,,,,,down,0,0.4531,,-0.100177951,-0.241128472,1,0,0,1.183,0,131,131,114,1,vullen,images/br_vullen.png,images/cb_vullen.png,0,,,,,,,,,,,,,,,,,,,,,,
,,,,,,00101,2023-11-28_08h12.02.975,vbt_B2_day2,2022.2.4,MacIntel,60.0024001,,,,,,,,,,,,,,,,,,,,,,,,,,,down,0,2.8331,,-0.100177951,-0.241128472,1,0,0,1.1857,0,132,132,186,1,voorraad,images/br_voorraad.png,images/cb_voorraad.png,0,,,,,,,,,,,,,,,,,,,,,,
,,,,,,00101,2023-11-28_08h12.02.975,vbt_B2_day2,2022.2.4,MacIntel,60.0024001,,,,,,,,,,,,,,,,,,,,,,,,,,,down,0,0.9985,,-0.100177951,-0.241128472,1,0,0,0.683,0,133,133,71,1,bever,images/br_bever.png,images/cb_bever.png,0,,,,,,,,,,,,,,,,,,,,,,
,,,,,,00101,2023-11-28_08h12.02.975,vbt_B2_day2,2022.2.4,MacIntel,60.0024001,,,,,,,,,,,,,,,,,,,,,,,,,,,down,0,0.0399,,-0.100177951,-0.241128472,1,0,0,1.2184,0,134,134,102,1,legaal,images/br_legaal.png,images/cb_legaal.png,0,,,,,,,,,,,,,,,,,,,,,,
,,,,,,00101,2023-11-28_08h12.02.975,vbt_B2_day2,2022.2.4,MacIntel,60.0024001,,,,,,,,,,,,,,,,,,,,,,,,,,,down,0,0.1499,,-0.100177951,-0.241128472,1,0,0,1.5507,0,135,135,0,1,slak,images/br_slak.png,images/cb_slak.png,0,,,,,,,,,,,,,,,,,,,,,,
,,,,,,00101,2023-11-28_08h12.02.975,vbt_B2_day2,2022.2.4,MacIntel,60.0024001,,,,,,,,,,,,,,,,,,,,,,,,,,,down,0,2.8338,,-0.100177951,-0.241128472,1,0,0,0.4812,0,136,136,57,1,steek,images/br_steek.png,images/cb_steek.png,1,steek,,,,,,,,,,,,,,,,,,,,,
,,,,,,00101,2023-11-28_08h12.02.975,vbt_B2_day2,2022.2.4,MacIntel,60.0024001,,,,,,,,,,,,,,,,,,,,,,,,,,,down,0,0.3903,,-0.100177951,-0.241128472,1,0,0,1.0491,0,137,137,127,1,doodmoe,images/br_doodmoe.png,images/cb_doodmoe.png,0,,,,,,,,,,,,,,,,,,,,,,
,,,,,,00101,2023-11-28_08h12.02.975,vbt_B2_day2,2022.2.4,MacIntel,60.0024001,,,,,,,,,,,,,,,,,,,,,,,,,,,down,0,2.6542,,-0.100177951,-0.241128472,1,0,0,0.7999,0,138,138,150,1,gegeven,images/br_gegeven.png,images/cb_gegeven.png,0,,,,,,,,,,,,,,,,,,,,,,
,,,,,,00101,2023-11-28_08h12.02.975,vbt_B2_day2,2022.2.4,MacIntel,60.0024001,,,,,,,,,,,,,,,,,,,,,,,,,,,down,0,5.8671,,-0.099926215,-0.241128472,1,0,0,2.5002,0,139,139,149,1,redding,images/br_redding.png,images/cb_redding.png,0,,,,,,,,,,,,,,,,,,,,,,
,,,,,,00101,2023-11-28_08h12.02.975,vbt_B2_day2,2022.2.4,MacIntel,60.0024001,,,,,,,,,,,,,,,,,,,,,,,,,,,down,0,5.2509,,-0.099926215,-0.241128472,1,0,0,0.6645,0,140,140,56,1,traag,images/br_traag.png,images/cb_traag.png,1,traag,,,,,,,,,,,,,,,,,,,,,
,,,,,,00101,2023-11-28_08h12.02.975,vbt_B2_day2,2022.2.4,MacIntel,60.0024001,,,,,,,,,,,,,,,,,,,,,,,,,,,down,0,0.3027,,-0.099926215,-0.241128472,1,0,0,3.2676,0,141,141,131,1,opzicht,images/br_opzicht.png,images/cb_opzicht.png,0,,,,,,,,,,,,,,,,,,,,,,
,,,,,,00101,2023-11-28_08h12.02.975,vbt_B2_day2,2022.2.4,MacIntel,60.0024001,,,,,,,,,,,,,,,,,,,,,,,,,,,down,0,7.2242,,-0.099926215,-0.241128472,1,0,0,0.4336,0,142,142,178,1,huisdier,images/br_huisdier.png,images/cb_huisdier.png,1,huisdier,,,,,,,,,,,,,,,,,,,,,
,,,,,,00101,2023-11-28_08h12.02.975,vbt_B2_day2,2022.2.4,MacIntel,60.0024001,,,,,,,,,,,,,,,,,,,,,,,,,,,down,0,0.7037,,-0.099926215,-0.241128472,1,0,0,0.6652,0,143,143,78,1,leren,images/br_leren.png,images/cb_leren.png,0,,,,,,,,,,,,,,,,,,,,,,
,,,,,,00101,2023-11-28_08h12.02.975,vbt_B2_day2,2022.2.4,MacIntel,60.0024001,,,,,,,,,,,,,,,,,,,,,,,,,,,down,0,5.4549,,-0.099926215,-0.241128472,1,0,0,0.6645,0,144,144,43,1,klauw,images/br_klauw.png,images/cb_klauw.png,0,,,,,,,,,,,,,,,,,,,,,,
,,,,,,00101,2023-11-28_08h12.02.975,vbt_B2_day2,2022.2.4,MacIntel,60.0024001,,,,,,,,,,,,,,,,,,,,,,,,,,,down,0,1.2974,,-0.099926215,-0.241128472,1,0,0,0.8018,0,145,145,145,1,invloed,images/br_invloed.png,images/cb_invloed.png,0,,,,,,,,,,,,,,,,,,,,,,
,,,,,,00101,2023-11-28_08h12.02.975,vbt_B2_day2,2022.2.4,MacIntel,60.0024001,,,,,,,,,,,,,,,,,,,,,,,,,,,down,0,1.8272,,-0.099926215,-0.241128472,1,0,0,0.3988,0,146,146,18,1,blik,images/br_blik.png,images/cb_blik.png,1,blik,,,,,,,,,,,,,,,,,,,,,
,,,,,,00101,2023-11-28_08h12.02.975,vbt_B2_day2,2022.2.4,MacIntel,60.0024001,,,,,,,,,,,,,,,,,,,,,,,,,,,down,0,0.1918,,-0.099926215,-0.241128472,1,0,0,2.0173,0,147,147,152,1,afnemen,images/br_afnemen.png,images/cb_afnemen.png,0,,,,,,,,,,,,,,,,,,,,,,
,,,,,,00101,2023-11-28_08h12.02.975,vbt_B2_day2,2022.2.4,MacIntel,60.0024001,,,,,,,,,,,,,,,,,,,,,,,,,,,down,0,1.0703,,-0.099926215,-0.241128472,1,0,0,0.7001,0,148,148,89,1,slapen,images/br_slapen.png,images/cb_slapen.png,0,,,,,,,,,,,,,,,,,,,,,,
,,,,,,00101,2023-11-28_08h12.02.975,vbt_B2_day2,2022.2.4,MacIntel,60.0024001,,,,,,,,,,,,,,,,,,,,,,,,,,,down,0,1.4143,,-0.099926215,-0.241128472,1,0,0,0.9172,0,149,149,83,1,mening,images/br_mening.png,images/cb_mening.png,0,,,,,,,,,,,,,,,,,,,,,,
,,,,,,00101,2023-11-28_08h12.02.975,vbt_B2_day2,2022.2.4,MacIntel,60.0024001,,,,,,,,,,,,,,,,,,,,,,,,,,,down,0,1.0099,,-0.099926215,-0.241128472,1,0,0,1.098,0,150,150,3,1,mand,images/br_mand.png,images/cb_mand.png,0,,,,,,,,,,,,,,,,,,,,,,
,,,,,,00101,2023-11-28_08h12.02.975,vbt_B2_day2,2022.2.4,MacIntel,60.0024001,,,,,,,,,,,,,,,,,,,,,,,,,,,down,0,0.3641,,-0.099926215,-0.241128472,1,0,0,0.6498,0,151,151,39,1,laag,images/br_laag.png,images/cb_laag.png,0,,,,,,,,,,,,,,,,,,,,,,
,,,,,,00101,2023-11-28_08h12.02.975,vbt_B2_day2,2022.2.4,MacIntel,60.0024001,,,,,,,,,,,,,,,,,,,,,,,,,,,down,0,1.8969,,-0.099926215,-0.241128472,1,0,0,2.3664,0,152,152,190,1,goedkoop,images/br_goedkoop.png,images/cb_goedkoop.png,0,,,,,,,,,,,,,,,,,,,,,,
,,,,,,00101,2023-11-28_08h12.02.975,vbt_B2_day2,2022.2.4,MacIntel,60.0024001,,,,,,,,,,,,,,,,,,,,,,,,,,,down,0,3.7835,,-0.099926215,-0.241128472,1,0,0,0.4166,0,153,153,59,1,kring,images/br_kring.png,images/cb_kring.png,1,kring,,,,,,,,,,,,,,,,,,,,,
,,,,,,00101,2023-11-28_08h12.02.975,vbt_B2_day2,2022.2.4,MacIntel,60.0024001,,,,,,,,,,,,,,,,,,,,,,,,,,,down,0,0.1167,,-0.096796875,-0.238342014,1,0,0,3.8329,0,154,154,163,1,schuilen,images/br_schuilen.png,images/cb_schuilen.png,0,,,,,,,,,,,,,,,,,,,,,,
,,,,,,00101,2023-11-28_08h12.02.975,vbt_B2_day2,2022.2.4,MacIntel,60.0024001,,,,,,,,,,,,,,,,,,,,,,,,,,,down,0,14.7648,,-0.096796875,-0.238342014,1,0,0,0.6367,0,155,155,52,1,wagon,images/br_wagon.png,images/cb_wagon.png,0,,,,,,,,,,,,,,,,,,,,,,
,,,,,,00101,2023-11-28_08h12.02.975,vbt_B2_day2,2022.2.4,MacIntel,60.0024001,,,,,,,,,,,,,,,,,,,,,,,,,,,down,0,22.3198,,-0.096796875,-0.238342014,1,0,0,0.4674,0,156,156,84,1,lokken,images/br_lokken.png,images/cb_lokken.png,0,,,,,,,,,,,,,,,,,,,,,,
,,,,,,00101,2023-11-28_08h12.02.975,vbt_B2_day2,2022.2.4,MacIntel,60.0024001,,,,,,,,,,,,,,,,,,,,,,,,,,,down,0,0.1503,,-0.097834201,-0.239114583,1,0,0,0.798,0,157,157,122,1,waarvan,images/br_waarvan.png,images/cb_waarvan.png,0,,,,,,,,,,,,,,,,,,,,,,
,,,,,,00101,2023-11-28_08h12.02.975,vbt_B2_day2,2022.2.4,MacIntel,60.0024001,,,,,,,,,,,,,,,,,,,,,,,,,,,down,0,0.4231,,-0.099197049,-0.239934896,1,0,0,0.7007,0,158,158,55,1,praat,images/br_praat.png,images/cb_praat.png,0,,,,,,,,,,,,,,,,,,,,,,
,,,,,,00101,2023-11-28_08h12.02.975,vbt_B2_day2,2022.2.4,MacIntel,60.0024001,,,,,,,,,,,,,,,,,,,,,,,,,,,down,0,0.3577,,-0.099722222,-0.240199653,1,0,0,0.7338,0,159,159,115,1,kleren,images/br_kleren.png,images/cb_kleren.png,0,,,,,,,,,,,,,,,,,,,,,,
,,,,,,00101,2023-11-28_08h12.02.975,vbt_B2_day2,2022.2.4,MacIntel,60.0024001,,,,,,,,,,,,,,,,,,,,,,,,,,,down,0,1.4262,,-0.099722222,-0.240199653,1,0,0,0.6143,0,160,160,173,1,apparaat,images/br_apparaat.png,images/cb_apparaat.png,0,,,,,,,,,,,,,,,,,,,,,,
,,,,,,00101,2023-11-28_08h12.02.975,vbt_B2_day2,2022.2.4,MacIntel,60.0024001,,,,,,,,,,,,,,,,,,,,,,,,,,,down,0,1.7203,,-0.100512153,-0.24047309,1,0,0,0.5513,0,161,161,5,1,blad,images/br_blad.png,images/cb_blad.png,0,,,,,,,,,,,,,,,,,,,,,,
,,,,,,00101,2023-11-28_08h12.02.975,vbt_B2_day2,2022.2.4,MacIntel,60.0024001,,,,,,,,,,,,,,,,,,,,,,,,,,,down,0,1.4518,,-0.100512153,-0.24047309,1,0,0,0.5323,0,162,162,160,1,daarheen,images/br_daarheen.png,images/cb_daarheen.png,0,,,,,,,,,,,,,,,,,,,,,,
,,,,,,00101,2023-11-28_08h12.02.975,vbt_B2_day2,2022.2.4,MacIntel,60.0024001,,,,,,,,,,,,,,,,,,,,,,,,,,,down,0,1.4854,,-0.100512153,-0.24047309,1,0,0,0.8994,0,163,163,156,1,rechten,images/br_rechten.png,images/cb_rechten.png,0,,,,,,,,,,,,,,,,,,,,,,
,,,,,,00101,2023-11-28_08h12.02.975,vbt_B2_day2,2022.2.4,MacIntel,60.0024001,,,,,,,,,,,,,,,,,,,,,,,,,,,down,0,0.1121,,-0.100512153,-0.24047309,1,0,0,1.4819,0,164,164,94,1,oceaan,images/br_oceaan.png,images/cb_oceaan.png,0,,,,,,,,,,,,,,,,,,,,,,
,,,,,,00101,2023-11-28_08h12.02.975,vbt_B2_day2,2022.2.4,MacIntel,60.0024001,,,,,,,,,,,,,,,,,,,,,,,,,,,down,0,12.1744,,-0.100512153,-0.24047309,1,0,0,0.4852,0,165,165,58,1,tekst,images/br_tekst.png,images/cb_tekst.png,1,tekst,,,,,,,,,,,,,,,,,,,,,
,,,,,,00101,2023-11-28_08h12.02.975,vbt_B2_day2,2022.2.4,MacIntel,60.0024001,,,,,,,,,,,,,,,,,,,,,,,,,,,down,0,1.453,,-0.100512153,-0.24047309,1,0,0,0.8159,0,166,166,107,1,maling,images/br_maling.png,images/cb_maling.png,0,,,,,,,,,,,,,,,,,,,,,,
,,,,,,00101,2023-11-28_08h12.02.975,vbt_B2_day2,2022.2.4,MacIntel,60.0024001,,,,,,,,,,,,,,,,,,,,,,,,,,,down,0,1.0056,,-0.100512153,-0.24047309,1,0,0,0.5146,0,167,167,10,1,leek,images/br_leek.png,images/cb_leek.png,0,,,,,,,,,,,,,,,,,,,,,,
,,,,,,00101,2023-11-28_08h12.02.975,vbt_B2_day2,2022.2.4,MacIntel,60.0024001,,,,,,,,,,,,,,,,,,,,,,,,,,,down,0,10.1843,,-0.100512153,-0.24047309,1,0,0,0.7363,0,168,168,121,1,twijfel,images/br_twijfel.png,images/cb_twijfel.png,0,,,,,,,,,,,,,,,,,,,,,,
,,,,,,00101,2023-11-28_08h12.02.975,vbt_B2_day2,2022.2.4,MacIntel,60.0024001,,,,,,,,,,,,,,,,,,,,,,,,,,,down,0,0.2866,,-0.104913194,-0.243467882,1,0,0,1.2369,0,169,169,117,1,kennis,images/br_kennis.png,images/cb_kennis.png,0,,,,,,,,,,,,,,,,,,,,,,
,,,,,,00101,2023-11-28_08h12.02.975,vbt_B2_day2,2022.2.4,MacIntel,60.0024001,,,,,,,,,,,,,,,,,,,,,,,,,,,down,0,0.2481,,-0.105186632,-0.244001736,1,0,0,0.7679,0,170,170,166,1,strikken,images/br_strikken.png,images/cb_strikken.png,0,,,,,,,,,,,,,,,,,,,,,,
,,,,,,00101,2023-11-28_08h12.02.975,vbt_B2_day2,2022.2.4,MacIntel,60.0024001,,,,,,,,,,,,,,,,,,,,,,,,,,,down,0,0.3401,,-0.105186632,-0.244001736,1,0,0,1.6499,0,171,171,155,1,gerucht,images/br_gerucht.png,images/cb_gerucht.png,0,,,,,,,,,,,,,,,,,,,,,,
,,,,,,00101,2023-11-28_08h12.02.975,vbt_B2_day2,2022.2.4,MacIntel,60.0024001,,,,,,,,,,,,,,,,,,,,,,,,,,,down,0,0.3154,,-0.105186632,-0.244001736,1,0,0,1.1839,0,172,172,192,1,schaamte,images/br_schaamte.png,images/cb_schaamte.png,0,,,,,,,,,,,,,,,,,,,,,,
,,,,,,00101,2023-11-28_08h12.02.975,vbt_B2_day2,2022.2.4,MacIntel,60.0024001,,,,,,,,,,,,,,,,,,,,,,,,,,,down,0,0.868,,-0.106614583,-0.244835069,1,0,0,1.1817,0,173,173,33,1,vlek,images/br_vlek.png,images/cb_vlek.png,0,,,,,,,,,,,,,,,,,,,,,,
,,,,,,00101,2023-11-28_08h12.02.975,vbt_B2_day2,2022.2.4,MacIntel,60.0024001,,,,,,,,,,,,,,,,,,,,,,,,,,,down,0,0.7918,,-0.106614583,-0.244835069,1,0,0,1.1809,0,174,174,67,1,zwart,images/br_zwart.png,images/cb_zwart.png,0,,,,,,,,,,,,,,,,,,,,,,
,,,,,,00101,2023-11-28_08h12.02.975,vbt_B2_day2,2022.2.4,MacIntel,60.0024001,,,,,,,,,,,,,,,,,,,,,,,,,,,down,0,1.9232,,-0.106614583,-0.244835069,1,0,0,1.2663,0,175,175,158,1,innemen,images/br_innemen.png,images/cb_innemen.png,0,,,,,,,,,,,,,,,,,,,,,,
,,,,,,00101,2023-11-28_08h12.02.975,vbt_B2_day2,2022.2.4,MacIntel,60.0024001,,,,,,,,,,,,,,,,,,,,,,,,,,,down,0,0.3037,,-0.106362847,-0.244835069,1,0,0,1.2831,0,176,176,51,1,samen,images/br_samen.png,images/cb_samen.png,0,,,,,,,,,,,,,,,,,,,,,,
,,,,,,00101,2023-11-28_08h12.02.975,vbt_B2_day2,2022.2.4,MacIntel,60.0024001,,,,,,,,,,,,,,,,,,,,,,,,,,,down,0,15.8024,,-0.103519965,-0.244835069,1,0,0,0.9333,0,177,177,97,1,loyaal,images/br_loyaal.png,images/cb_loyaal.png,1,lowaal,,,,,,,,,,,,,,,,,,,,,
,,,,,,00101,2023-11-28_08h12.02.975,vbt_B2_day2,2022.2.4,MacIntel,60.0024001,,,,,,,,,,,,,,,,,,,,,,,,,,,down,0,0.2537,,-0.103519965,-0.244835069,1,0,0,0.9985,0,178,178,174,1,stemming,images/br_stemming.png,images/cb_stemming.png,0,,,,,,,,,,,,,,,,,,,,,,
,,,,,,00101,2023-11-28_08h12.02.975,vbt_B2_day2,2022.2.4,MacIntel,60.0024001,,,,,,,,,,,,,,,,,,,,,,,,,,,down,0,0.2688,,-0.103519965,-0.244835069,1,0,0,1.6031,0,179,179,20,1,site,images/br_site.png,images/cb_site.png,0,,,,,,,,,,,,,,,,,,,,,,
,,,,,,00101,2023-11-28_08h12.02.975,vbt_B2_day2,2022.2.4,MacIntel,60.0024001,,,,,,,,,,,,,,,,,,,,,,,,,,,down,0,29.4892,,-0.103519965,-0.244835069,1,0,0,1.0491,0,180,180,27,1,dans,images/br_dans.png,images/cb_dans.png,0,,,,,,,,,,,,,,,,,,,,,,
,,,,,,00101,2023-11-28_08h12.02.975,vbt_B2_day2,2022.2.4,MacIntel,60.0024001,,,,,,,,,,,,,,,,,,,,,,,,,,,down,0,6.3229,,-0.103519965,-0.244835069,1,0,0,0.6979,0,181,181,19,1,geit,images/br_geit.png,images/cb_geit.png,1,geit,,,,,,,,,,,,,,,,,,,,,
,,,,,,00101,2023-11-28_08h12.02.975,vbt_B2_day2,2022.2.4,MacIntel,60.0024001,,,,,,,,,,,,,,,,,,,,,,,,,,,down,0,0.2161,,-0.103519965,-0.244835069,1,0,0,0.7853,0,182,182,8,1,knie,images/br_knie.png,images/cb_knie.png,0,,,,,,,,,,,,,,,,,,,,,,
,,,,,,00101,2023-11-28_08h12.02.975,vbt_B2_day2,2022.2.4,MacIntel,60.0024001,,,,,,,,,,,,,,,,,,,,,,,,,,,down,0,0.8008,,-0.103528646,-0.244835069,1,0,0,1.7501,0,183,183,161,1,attentie,images/br_attentie.png,images/cb_attentie.png,0,,,,,,,,,,,,,,,,,,,,,,
,,,,,,00101,2023-11-28_08h12.02.975,vbt_B2_day2,2022.2.4,MacIntel,60.0024001,,,,,,,,,,,,,,,,,,,,,,,,,,,down,0,0.3188,,-0.103528646,-0.244835069,1,0,0,1.2817,0,184,184,105,1,wijlen,images/br_wijlen.png,images/cb_wijlen.png,0,,,,,,,,,,,,,,,,,,,,,,
,,,,,,00101,2023-11-28_08h12.02.975,vbt_B2_day2,2022.2.4,MacIntel,60.0024001,,,,,,,,,,,,,,,,,,,,,,,,,,,down,0,0.3062,,-0.103528646,-0.244835069,1,0,0,1.5999,0,185,185,172,1,weigeren,images/br_weigeren.png,images/cb_weigeren.png,0,,,,,,,,,,,,,,,,,,,,,,
,,,,,,00101,2023-11-28_08h12.02.975,vbt_B2_day2,2022.2.4,MacIntel,60.0024001,,,,,,,,,,,,,,,,,,,,,,,,,,,down,0,0.2318,,-0.103528646,-0.244835069,1,0,0,1.0307,0,186,186,6,1,diep,images/br_diep.png,images/cb_diep.png,0,,,,,,,,,,,,,,,,,,,,,,
,,,,,,00101,2023-11-28_08h12.02.975,vbt_B2_day2,2022.2.4,MacIntel,60.0024001,,,,,,,,,,,,,,,,,,,,,,,,,,,down,0,0.6186,,-0.103528646,-0.244835069,1,0,0,1.4471,0,187,187,170,1,schatten,images/br_schatten.png,images/cb_schatten.png,0,,,,,,,,,,,,,,,,,,,,,,
,,,,,,00101,2023-11-28_08h12.02.975,vbt_B2_day2,2022.2.4,MacIntel,60.0024001,,,,,,,,,,,,,,,,,,,,,,,,,,,down,0,0.0673,,-0.103528646,-0.244835069,1,0,0,0.7834,0,188,188,46,1,jagen,images/br_jagen.png,images/cb_jagen.png,0,,,,,,,,,,,,,,,,,,,,,,
,,,,,,00101,2023-11-28_08h12.02.975,vbt_B2_day2,2022.2.4,MacIntel,60.0024001,,,,,,,,,,,,,,,,,,,,,,,,,,,down,0,1.0677,,-0.103528646,-0.244835069,1,0,0,1.2499,0,189,189,188,1,strekken,images/br_strekken.png,images/cb_strekken.png,0,,,,,,,,,,,,,,,,,,,,,,
,,,,,,00101,2023-11-28_08h12.02.975,vbt_B2_day2,2022.2.4,MacIntel,60.0024001,,,,,,,,,,,,,,,,,,,,,,,,,,,down,0,6.7819,,-0.104878472,-0.242243924,1,0,0,0.599,0,190,190,137,1,trekker,images/br_trekker.png,images/cb_trekker.png,1,trekker,,,,,,,,,,,,,,,,,,,,,
,,,,,,00101,2023-11-28_08h12.02.975,vbt_B2_day2,2022.2.4,MacIntel,60.0024001,,,,,,,,,,,,,,,,,,,,,,,,,,,down,0,0.2904,,-0.104878472,-0.242243924,1,0,0,0.8157,0,191,191,151,1,aanzoek,images/br_aanzoek.png,images/cb_aanzoek.png,0,,,,,,,,,,,,,,,,,,,,,,
,,,,,,00101,2023-11-28_08h12.02.975,vbt_B2_day2,2022.2.4,MacIntel,60.0024001,,,,,,,,,,,,,,,,,,,,,,,,,,,down,0,0.2019,,-0.104878472,-0.242243924,1,0,0,0.5165,0,192,192,92,1,geheim,images/br_geheim.png,images/cb_geheim.png,0,,,,,,,,,,,,,,,,,,,,,,
,,,,,,00101,2023-11-28_08h12.02.975,vbt_B2_day2,2022.2.4,MacIntel,60.0024001,,,,,,,,,,,,,,,,,,,,,,,,,,,down,0,0.6369,,-0.104878472,-0.242243924,1,0,0,1.1502,0,193,193,31,1,poes,images/br_poes.png,images/cb_poes.png,0,,,,,,,,,,,,,,,,,,,,,,
,,,,,,00101,2023-11-28_08h12.02.975,vbt_B2_day2,2022.2.4,MacIntel,60.0024001,,,,,,,,,,,,,,,,,,,,,,,,,,,down,0,0.4682,,-0.104878472,-0.242243924,1,0,0,0.6677,0,194,194,48,1,steel,images/br_steel.png,images/cb_steel.png,0,,,,,,,,,,,,,,,,,,,,,,
,,,,,,00101,2023-11-28_08h12.02.975,vbt_B2_day2,2022.2.4,MacIntel,60.0024001,,,,,,,,,,,,,,,,,,,,,,,,,,,down,0,0.3403,,-0.104878472,-0.242243924,1,0,0,2.5143,0,195,195,182,1,bijkomen,images/br_bijkomen.png,images/cb_bijkomen.png,0,,,,,,,,,,,,,,,,,,,,,,
,,,,,,00101,2023-11-28_08h12.02.975,vbt_B2_day2,2022.2.4,MacIntel,60.0024001,,,,,,,,,,,,,,,,,,,,,,,,,,,down,0,0.4684,,-0.104878472,-0.242243924,1,0,0,2.1828,0,196,196,164,1,anarchie,images/br_anarchie.png,images/cb_anarchie.png,0,,,,,,,,,,,,,,,,,,,,,,
,,,,,,00101,2023-11-28_08h12.02.975,vbt_B2_day2,2022.2.4,MacIntel,60.0024001,,,,,,,,,,,,,,,,,,,,,,,,,,,down,0,0.2682,,-0.104878472,-0.242243924,1,0,0,4.285,0,197,197,4,1,moes,images/br_moes.png,images/cb_moes.png,0,,,,,,,,,,,,,,,,,,,,,,
,,,,,,00101,2023-11-28_08h12.02.975,vbt_B2_day2,2022.2.4,MacIntel,60.0024001,,,,,,,,,,,,,,,,,,,,,,,,,,,down,0,0.4863,,-0.104878472,-0.242243924,1,0,0,0.9136,0,198,198,25,1,plek,images/br_plek.png,images/cb_plek.png,0,,,,,,,,,,,,,,,,,,,,,,
,,,,,,00101,2023-11-28_08h12.02.975,vbt_B2_day2,2022.2.4,MacIntel,60.0024001,,,,,,,,,,,,,,,,,,,,,,,,,,,down,0,0.2694,,-0.104878472,-0.242243924,1,0,0,2.2469,0,199,199,22,1,stof,images/br_stof.png,images/cb_stof.png,0,,,,,,,,,,,,,,,,,,,,,,
,,,,,,00101,2023-11-28_08h12.02.975,vbt_B2_day2,2022.2.4,MacIntel,60.0024001,,,,,,,,,,,,,,,,,,,,,,,,,,,,,,,,,,,,,,,,,,,,,,,0.050551215,-0.083967014,1,0,0,,,,,,,,,,,,,,,,
,,,,,,00101,2023-11-28_08h12.02.975,vbt_B2_day2,2022.2.4,MacIntel,60.0024001,,,,,,,,,,,,,,,,,,,,,,,,,,,,,,,,,,,,,,,,,,,,,,,,,,,,0.050551215,-0.083967014,1,0,0,,,,,,,,,,,
,,,,,,00101,2023-11-28_08h12.02.975,vbt_B2_day2,2022.2.4,MacIntel,60.0024001,,,,,,,,,,,,,,,,,,,,,,,,,,,,,,,,,,,,,,,,,,plannen,images/br_plannen.png,images/cb_plannen.png,,plakkaat,,,,,,,,,,,0.050551215,-0.083967014,1,0,0,plakkaat,0,0,0,55,1
,,,,,,00101,2023-11-28_08h12.02.975,vbt_B2_day2,2022.2.4,MacIntel,60.0024001,,,,,,,,,,,,,,,,,,,,,,,,,,,,,,,,,,,,,,,,,,systeem,images/br_systeem.png,images/cb_systeem.png,,systeem,,,,,,,,,,,0.050551215,-0.083967014,1,0,0,systeem,0,1,1,54,1
,,,,,,00101,2023-11-28_08h12.02.975,vbt_B2_day2,2022.2.4,MacIntel,60.0024001,,,,,,,,,,,,,,,,,,,,,,,,,,,,,,,,,,,,,,,,,,breuk,images/br_breuk.png,images/cb_breuk.png,,blauw,,,,,,,,,,,0.049466146,-0.08452691,1,0,0,blauw,0,2,2,45,1
,,,,,,00101,2023-11-28_08h12.02.975,vbt_B2_day2,2022.2.4,MacIntel,60.0024001,,,,,,,,,,,,,,,,,,,,,,,,,,,,,,,,,,,,,,,,,,blad,images/br_blad.png,images/cb_blad.png,,blad,,,,,,,,,,,0.049466146,-0.084266493,1,0,0,blad,0,3,3,1,1
,,,,,,00101,2023-11-28_08h12.02.975,vbt_B2_day2,2022.2.4,MacIntel,60.0024001,,,,,,,,,,,,,,,,,,,,,,,,,,,,,,,,,,,,,,,,,,remel,images/br_remel.png,images/cb_remel.png,,remel,,,,,,,,,,,0.049466146,-0.084266493,1,0,0,remel,0,4,4,25,1
,,,,,,00101,2023-11-28_08h12.02.975,vbt_B2_day2,2022.2.4,MacIntel,60.0024001,,,,,,,,,,,,,,,,,,,,,,,,,,,,,,,,,,,,,,,,,,woning,images/br_woning.png,images/cb_woning.png,,woning,,,,,,,,,,,0.049466146,-0.084266493,1,0,0,woning,0,5,5,10,1
,,,,,,00101,2023-11-28_08h12.02.975,vbt_B2_day2,2022.2.4,MacIntel,60.0024001,,,,,,,,,,,,,,,,,,,,,,,,,,,,,,,,,,,,,,,,,,krimmen,images/br_krimmen.png,images/cb_krimmen.png,,krimmen,,,,,,,,,,,0.049466146,-0.084266493,1,0,0,krimmen,0,6,6,35,1
,,,,,,00101,2023-11-28_08h12.02.975,vbt_B2_day2,2022.2.4,MacIntel,60.0024001,,,,,,,,,,,,,,,,,,,,,,,,,,,,,,,,,,,,,,,,,,prekken,images/br_prekken.png,images/cb_prekken.png,,prekken,,,,,,,,,,,0.049466146,-0.084266493,1,0,0,prekken,0,7,7,34,1
,,,,,,00101,2023-11-28_08h12.02.975,vbt_B2_day2,2022.2.4,MacIntel,60.0024001,,,,,,,,,,,,,,,,,,,,,,,,,,,,,,,,,,,,,,,,,,welzijn,images/br_welzijn.png,images/cb_welzijn.png,,wolni..,,,,,,,,,,,0.049466146,-0.084266493,1,0,0,wolni..,0,8,8,52,1
,,,,,,00101,2023-11-28_08h12.02.975,vbt_B2_day2,2022.2.4,MacIntel,60.0024001,,,,,,,,,,,,,,,,,,,,,,,,,,,,,,,,,,,,,,,,,,kijlen,images/br_kijlen.png,images/cb_kijlen.png,,kijlen,,,,,,,,,,,0.049466146,-0.084266493,1,0,0,kijlen,0,9,9,31,1
,,,,,,00101,2023-11-28_08h12.02.975,vbt_B2_day2,2022.2.4,MacIntel,60.0024001,,,,,,,,,,,,,,,,,,,,,,,,,,,,,,,,,,,,,,,,,,kasteel,images/br_kasteel.png,images/cb_kasteel.png,,kasteel,,,,,,,,,,,0.049466146,-0.084266493,1,0,0,kasteel,0,10,10,14,1
,,,,,,00101,2023-11-28_08h12.02.975,vbt_B2_day2,2022.2.4,MacIntel,60.0024001,,,,,,,,,,,,,,,,,,,,,,,,,,,,,,,,,,,,,,,,,,clan,images/br_clan.png,images/cb_clan.png,,clan,,,,,,,,,,,0.049466146,-0.084266493,1,0,0,clan,0,11,11,40,1
,,,,,,00101,2023-11-28_08h12.02.975,vbt_B2_day2,2022.2.4,MacIntel,60.0024001,,,,,,,,,,,,,,,,,,,,,,,,,,,,,,,,,,,,,,,,,,diep,images/br_diep.png,images/cb_diep.png,,diep,,,,,,,,,,,0.049466146,-0.084266493,1,0,0,diep,0,12,12,2,1
,,,,,,00101,2023-11-28_08h12.02.975,vbt_B2_day2,2022.2.4,MacIntel,60.0024001,,,,,,,,,,,,,,,,,,,,,,,,,,,,,,,,,,,,,,,,,,jong,images/br_jong.png,images/cb_jong.png,,jong,,,,,,,,,,,0.049466146,-0.084266493,1,0,0,jong,0,13,13,43,1
,,,,,,00101,2023-11-28_08h12.02.975,vbt_B2_day2,2022.2.4,MacIntel,60.0024001,,,,,,,,,,,,,,,,,,,,,,,,,,,,,,,,,,,,,,,,,,aanzien,images/br_aanzien.png,images/cb_aanzien.png,,aanzien,,,,,,,,,,,0.049466146,-0.084266493,1,0,0,aanzien,0,14,14,13,1
,,,,,,00101,2023-11-28_08h12.02.975,vbt_B2_day2,2022.2.4,MacIntel,60.0024001,,,,,,,,,,,,,,,,,,,,,,,,,,,,,,,,,,,,,,,,,,aanvraag,images/br_aanvraag.png,images/cb_aanvraag.png,,aanvraag,,,,,,,,,,,0.049466146,-0.084266493,1,0,0,aanvraag,0,15,15,57,1
,,,,,,00101,2023-11-28_08h12.02.975,vbt_B2_day2,2022.2.4,MacIntel,60.0024001,,,,,,,,,,,,,,,,,,,,,,,,,,,,,,,,,,,,,,,,,,badon,images/br_badon.png,images/cb_badon.png,,badok,,,,,,,,,,,0.049466146,-0.084266493,1,0,0,badok,0,16,16,26,1
,,,,,,00101,2023-11-28_08h12.02.975,vbt_B2_day2,2022.2.4,MacIntel,60.0024001,,,,,,,,,,,,,,,,,,,,,,,,,,,,,,,,,,,,,,,,,,eenhoorn,images/br_eenhoorn.png,images/cb_eenhoorn.png,,eenhoorn,,,,,,,,,,,0.049466146,-0.084266493,1,0,0,eenhoorn,0,17,17,19,1
,,,,,,00101,2023-11-28_08h12.02.975,vbt_B2_day2,2022.2.4,MacIntel,60.0024001,,,,,,,,,,,,,,,,,,,,,,,,,,,,,,,,,,,,,,,,,,tand,images/br_tand.png,images/cb_tand.png,,tand,,,,,,,,,,,0.049466146,-0.084266493,1,0,0,tand,0,18,18,42,1
,,,,,,00101,2023-11-28_08h12.02.975,vbt_B2_day2,2022.2.4,MacIntel,60.0024001,,,,,,,,,,,,,,,,,,,,,,,,,,,,,,,,,,,,,,,,,,thema,images/br_thema.png,images/cb_thema.png,,thou.,,,,,,,,,,,0.049466146,-0.083493924,1,0,0,thou.,0,19,19,47,1
,,,,,,00101,2023-11-28_08h12.02.975,vbt_B2_day2,2022.2.4,MacIntel,60.0024001,,,,,,,,,,,,,,,,,,,,,,,,,,,,,,,,,,,,,,,,,,bloeien,images/br_bloeien.png,images/cb_bloeien.png,,bloeien,,,,,,,,,,,0.049466146,-0.083493924,1,0,0,bloeien,0,20,20,12,1
,,,,,,00101,2023-11-28_08h12.02.975,vbt_B2_day2,2022.2.4,MacIntel,60.0024001,,,,,,,,,,,,,,,,,,,,,,,,,,,,,,,,,,,,,,,,,,heengeen,images/br_heengeen.png,images/cb_heengeen.png,,heengeen,,,,,,,,,,,0.049466146,-0.083493924,1,0,0,heengeen,0,21,21,38,1
,,,,,,00101,2023-11-28_08h12.02.975,vbt_B2_day2,2022.2.4,MacIntel,60.0024001,,,,,,,,,,,,,,,,,,,,,,,,,,,,,,,,,,,,,,,,,,kabel,images/br_kabel.png,images/cb_kabel.png,,kabel,,,,,,,,,,,0.049466146,-0.083493924,1,0,0,kabel,0,22,22,7,1
,,,,,,00101,2023-11-28_08h12.02.975,vbt_B2_day2,2022.2.4,MacIntel,60.0024001,,,,,,,,,,,,,,,,,,,,,,,,,,,,,,,,,,,,,,,,,,lokken,images/br_lokken.png,images/cb_lokken.png,,lokken,,,,,,,,,,,0.049466146,-0.083493924,1,0,0,lokken,0,23,23,8,1
,,,,,,00101,2023-11-28_08h12.02.975,vbt_B2_day2,2022.2.4,MacIntel,60.0024001,,,,,,,,,,,,,,,,,,,,,,,,,,,,,,,,,,,,,,,,,,zwager,images/br_zwager.png,images/cb_zwager.png,,zwag..,,,,,,,,,,,0.049466146,-0.083493924,1,0,0,zwag..,0,24,24,49,1
,,,,,,00101,2023-11-28_08h12.02.975,vbt_B2_day2,2022.2.4,MacIntel,60.0024001,,,,,,,,,,,,,,,,,,,,,,,,,,,,,,,,,,,,,,,,,,tweeling,images/br_tweeling.png,images/cb_tweeling.png,,zweeling,,,,,,,,,,,0.049466146,-0.083493924,1,0,0,zweeling,0,25,25,58,1
,,,,,,00101,2023-11-28_08h12.02.975,vbt_B2_day2,2022.2.4,MacIntel,60.0024001,,,,,,,,,,,,,,,,,,,,,,,,,,,,,,,,,,,,,,,,,,stes,images/br_stes.png,images/cb_stes.png,,stes,,,,,,,,,,,0.049466146,-0.083493924,1,0,0,stes,0,26,26,21,1
,,,,,,00101,2023-11-28_08h12.02.975,vbt_B2_day2,2022.2.4,MacIntel,60.0024001,,,,,,,,,,,,,,,,,,,,,,,,,,,,,,,,,,,,,,,,,,trots,images/br_trots.png,images/cb_trots.png,,trots,,,,,,,,,,,0.049466146,-0.083493924,1,0,0,trots,0,27,27,44,1
,,,,,,00101,2023-11-28_08h12.02.975,vbt_B2_day2,2022.2.4,MacIntel,60.0024001,,,,,,,,,,,,,,,,,,,,,,,,,,,,,,,,,,,,,,,,,,flits,images/br_flits.png,images/cb_flits.png,,blits,,,,,,,,,,,0.049466146,-0.083493924,1,0,0,blits,0,28,28,4,1
,,,,,,00101,2023-11-28_08h12.02.975,vbt_B2_day2,2022.2.4,MacIntel,60.0024001,,,,,,,,,,,,,,,,,,,,,,,,,,,,,,,,,,,,,,,,,,sjijfel,images/br_sjijfel.png,images/cb_sjijfel.png,,sjij..,,,,,,,,,,,0.049466146,-0.083493924,1,0,0,sjij..,0,29,29,33,1
,,,,,,00101,2023-11-28_08h12.02.975,vbt_B2_day2,2022.2.4,MacIntel,60.0024001,,,,,,,,,,,,,,,,,,,,,,,,,,,,,,,,,,,,,,,,,,dode,images/br_dode.png,images/cb_dode.png,,dode,,,,,,,,,,,0.049466146,-0.083493924,1,0,0,dode,0,30,30,41,1
,,,,,,00101,2023-11-28_08h12.02.975,vbt_B2_day2,2022.2.4,MacIntel,60.0024001,,,,,,,,,,,,,,,,,,,,,,,,,,,,,,,,,,,,,,,,,,ophuimen,images/br_ophuimen.png,images/cb_ophuimen.png,,ophu..len,,,,,,,,,,,0.049466146,-0.083493924,1,0,0,ophu..len,0,31,31,36,1
,,,,,,00101,2023-11-28_08h12.02.975,vbt_B2_day2,2022.2.4,MacIntel,60.0024001,,,,,,,,,,,,,,,,,,,,,,,,,,,,,,,,,,,,,,,,,,doodmoe,images/br_doodmoe.png,images/cb_doodmoe.png,,doodmoe,,,,,,,,,,,0.049466146,-0.083493924,1,0,0,doodmoe,0,32,32,15,1
,,,,,,00101,2023-11-28_08h12.02.975,vbt_B2_day2,2022.2.4,MacIntel,60.0024001,,,,,,,,,,,,,,,,,,,,,,,,,,,,,,,,,,,,,,,,,,goon,images/br_goon.png,images/cb_goon.png,,goon,,,,,,,,,,,0.049466146,-0.083493924,1,0,0,goon,0,33,33,23,1
,,,,,,00101,2023-11-28_08h12.02.975,vbt_B2_day2,2022.2.4,MacIntel,60.0024001,,,,,,,,,,,,,,,,,,,,,,,,,,,,,,,,,,,,,,,,,,lijnen,images/br_lijnen.png,images/cb_lijnen.png,,lijnen,,,,,,,,,,,0.049717882,-0.083493924,1,0,0,lijnen,0,34,34,51,1
,,,,,,00101,2023-11-28_08h12.02.975,vbt_B2_day2,2022.2.4,MacIntel,60.0024001,,,,,,,,,,,,,,,,,,,,,,,,,,,,,,,,,,,,,,,,,,manieren,images/br_manieren.png,images/cb_manieren.png,,manieren,,,,,,,,,,,0.050225694,-0.08374566,1,0,0,manieren,0,35,35,56,1
,,,,,,00101,2023-11-28_08h12.02.975,vbt_B2_day2,2022.2.4,MacIntel,60.0024001,,,,,,,,,,,,,,,,,,,,,,,,,,,,,,,,,,,,,,,,,,joes,images/br_joes.png,images/cb_joes.png,,joes,,,,,,,,,,,0.049965278,-0.08374566,1,0,0,joes,0,36,36,20,1
,,,,,,00101,2023-11-28_08h12.02.975,vbt_B2_day2,2022.2.4,MacIntel,60.0024001,,,,,,,,,,,,,,,,,,,,,,,,,,,,,,,,,,,,,,,,,,strikken,images/br_strikken.png,images/cb_strikken.png,,strikken,,,,,,,,,,,0.049965278,-0.08374566,1,0,0,strikken,0,37,37,18,1
,,,,,,00101,2023-11-28_08h12.02.975,vbt_B2_day2,2022.2.4,MacIntel,60.0024001,,,,,,,,,,,,,,,,,,,,,,,,,,,,,,,,,,,,,,,,,,kenzis,images/br_kenzis.png,images/cb_kenzis.png,,kenzis,,,,,,,,,,,0.052009549,-0.084253472,1,0,0,kenzis,0,38,38,30,1
,,,,,,00101,2023-11-28_08h12.02.975,vbt_B2_day2,2022.2.4,MacIntel,60.0024001,,,,,,,,,,,,,,,,,,,,,,,,,,,,,,,,,,,,,,,,,,moes,images/br_moes.png,images/cb_moes.png,,moes,,,,,,,,,,,0.047018229,-0.084253472,1,0,0,moes,0,39,39,0,1
,,,,,,00101,2023-11-28_08h12.02.975,vbt_B2_day2,2022.2.4,MacIntel,60.0024001,,,,,,,,,,,,,,,,,,,,,,,,,,,,,,,,,,,,,,,,,,piste,images/br_piste.png,images/cb_piste.png,,piste,,,,,,,,,,,0.047018229,-0.084253472,1,0,0,piste,0,40,40,5,1
,,,,,,00101,2023-11-28_08h12.02.975,vbt_B2_day2,2022.2.4,MacIntel,60.0024001,,,,,,,,,,,,,,,,,,,,,,,,,,,,,,,,,,,,,,,,,,bereuwen,images/br_bereuwen.png,images/cb_bereuwen.png,,bereuken,,,,,,,,,,,0.047018229,-0.084253472,1,0,0,bereuken,0,41,41,39,1
,,,,,,00101,2023-11-28_08h12.02.975,vbt_B2_day2,2022.2.4,MacIntel,60.0024001,,,,,,,,,,,,,,,,,,,,,,,,,,,,,,,,,,,,,,,,,,sifferd,images/br_sifferd.png,images/cb_sifferd.png,,sufferd,,,,,,,,,,,0.047018229,-0.084253472,1,0,0,sufferd,0,42,42,32,1
,,,,,,00101,2023-11-28_08h12.02.975,vbt_B2_day2,2022.2.4,MacIntel,60.0024001,,,,,,,,,,,,,,,,,,,,,,,,,,,,,,,,,,,,,,,,,,sora,images/br_sora.png,images/cb_sora.png,,sura,,,,,,,,,,,0.047018229,-0.084253472,1,0,0,sura,0,43,43,22,1
,,,,,,00101,2023-11-28_08h12.02.975,vbt_B2_day2,2022.2.4,MacIntel,60.0024001,,,,,,,,,,,,,,,,,,,,,,,,,,,,,,,,,,,,,,,,,,toeval,images/br_toeval.png,images/cb_toeval.png,,toeval,,,,,,,,,,,0.047018229,-0.084253472,1,0,0,toeval,0,44,44,11,1
,,,,,,00101,2023-11-28_08h12.02.975,vbt_B2_day2,2022.2.4,MacIntel,60.0024001,,,,,,,,,,,,,,,,,,,,,,,,,,,,,,,,,,,,,,,,,,jagen,images/br_jagen.png,images/cb_jagen.png,,jagen,,,,,,,,,,,0.0490625,-0.084761285,1,0,0,jagen,0,45,45,6,1
,,,,,,00101,2023-11-28_08h12.02.975,vbt_B2_day2,2022.2.4,MacIntel,60.0024001,,,,,,,,,,,,,,,,,,,,,,,,,,,,,,,,,,,,,,,,,,koorts,images/br_koorts.png,images/cb_koorts.png,,koorts,,,,,,,,,,,0.047313368,-0.084461806,1,0,0,koorts,0,46,46,50,1
,,,,,,00101,2023-11-28_08h12.02.975,vbt_B2_day2,2022.2.4,MacIntel,60.0024001,,,,,,,,,,,,,,,,,,,,,,,,,,,,,,,,,,,,,,,,,,zegel,images/br_zegel.png,images/cb_zegel.png,,zegel,,,,,,,,,,,0.047313368,-0.084461806,1,0,0,zegel,0,47,47,46,1
,,,,,,00101,2023-11-28_08h12.02.975,vbt_B2_day2,2022.2.4,MacIntel,60.0024001,,,,,,,,,,,,,,,,,,,,,,,,,,,,,,,,,,,,,,,,,,zomers,images/br_zomers.png,images/cb_zomers.png,,zomers,,,,,,,,,,,0.047313368,-0.084461806,1,0,0,zomers,0,48,48,48,1
,,,,,,00101,2023-11-28_08h12.02.975,vbt_B2_day2,2022.2.4,MacIntel,60.0024001,,,,,,,,,,,,,,,,,,,,,,,,,,,,,,,,,,,,,,,,,,negel,images/br_negel.png,images/cb_negel.png,,zegel,,,,,,,,,,,0.047313368,-0.084461806,1,0,0,zegel,0,49,49,24,1
,,,,,,00101,2023-11-28_08h12.02.975,vbt_B2_day2,2022.2.4,MacIntel,60.0024001,,,,,,,,,,,,,,,,,,,,,,,,,,,,,,,,,,,,,,,,,,ningen,images/br_ningen.png,images/cb_ningen.png,,ningen,,,,,,,,,,,0.047313368,-0.084461806,1,0,0,ningen,0,50,50,28,1
,,,,,,00101,2023-11-28_08h12.02.975,vbt_B2_day2,2022.2.4,MacIntel,60.0024001,,,,,,,,,,,,,,,,,,,,,,,,,,,,,,,,,,,,,,,,,,heilig,images/br_heilig.png,images/cb_heilig.png,,heilig,,,,,,,,,,,0.047313368,-0.084461806,1,0,0,heilig,0,51,51,9,1
,,,,,,00101,2023-11-28_08h12.02.975,vbt_B2_day2,2022.2.4,MacIntel,60.0024001,,,,,,,,,,,,,,,,,,,,,,,,,,,,,,,,,,,,,,,,,,geld,images/br_geld.png,images/cb_geld.png,,geld,,,,,,,,,,,0.047313368,-0.084461806,1,0,0,geld,0,52,52,3,1
,,,,,,00101,2023-11-28_08h12.02.975,vbt_B2_day2,2022.2.4,MacIntel,60.0024001,,,,,,,,,,,,,,,,,,,,,,,,,,,,,,,,,,,,,,,,,,wijve,images/br_wijve.png,images/cb_wijve.png,,wijve,,,,,,,,,,,0.047313368,-0.084461806,1,0,0,wijve,0,53,53,27,1
,,,,,,00101,2023-11-28_08h12.02.975,vbt_B2_day2,2022.2.4,MacIntel,60.0024001,,,,,,,,,,,,,,,,,,,,,,,,,,,,,,,,,,,,,,,,,,feestdag,images/br_feestdag.png,images/cb_feestdag.png,,feestdag,,,,,,,,,,,0.047313368,-0.084461806,1,0,0,feestdag,0,54,54,17,1
,,,,,,00101,2023-11-28_08h12.02.975,vbt_B2_day2,2022.2.4,MacIntel,60.0024001,,,,,,,,,,,,,,,,,,,,,,,,,,,,,,,,,,,,,,,,,,lurgen,images/br_lurgen.png,images/cb_lurgen.png,,lurgel,,,,,,,,,,,0.047313368,-0.084461806,1,0,0,lurgel,0,55,55,29,1
,,,,,,00101,2023-11-28_08h12.02.975,vbt_B2_day2,2022.2.4,MacIntel,60.0024001,,,,,,,,,,,,,,,,,,,,,,,,,,,,,,,,,,,,,,,,,,anarchie,images/br_anarchie.png,images/cb_anarchie.png,,anarchie,,,,,,,,,,,0.047313368,-0.084461806,1,0,0,anarchie,0,56,56,16,1
,,,,,,00101,2023-11-28_08h12.02.975,vbt_B2_day2,2022.2.4,MacIntel,60.0024001,,,,,,,,,,,,,,,,,,,,,,,,,,,,,,,,,,,,,,,,,,opdatten,images/br_opdatten.png,images/cb_opdatten.png,,opdass..,,,,,,,,,,,0.047313368,-0.084461806,1,0,0,opdass..,0,57,57,37,1
,,,,,,00101,2023-11-28_08h12.02.975,vbt_B2_day2,2022.2.4,MacIntel,60.0024001,,,,,,,,,,,,,,,,,,,,,,,,,,,,,,,,,,,,,,,,,,agressie,images/br_agressie.png,images/cb_agressie.png,,agressie,,,,,,,,,,,0.047313368,-0.084461806,1,0,0,agressie,0,58,58,59,1
,,,,,,00101,2023-11-28_08h12.02.975,vbt_B2_day2,2022.2.4,MacIntel,60.0024001,,,,,,,,,,,,,,,,,,,,,,,,,,,,,,,,,,,,,,,,,,inzicht,images/br_inzicht.png,images/cb_inzicht.png,,inzicht,,,,,,,,,,,0.047313368,-0.084461806,1,0,0,inzicht,0,59,59,53,1
,,,,,,00101,2023-11-28_08h12.02.975,vbt_B2_day2,2022.2.4,MacIntel,60.0024001,,,,,,,,,,,,,,,,,,,,,,,,,,,,,,,,,,,,,,,,,,,,,,,,,,,,,,,,,,,,,,,,,,,
