welcome_mouse.x,welcome_mouse.y,welcome_mouse.leftButton,welcome_mouse.midButton,welcome_mouse.rightButton,welcome_mouse.time,"ID",date,expName,psychopyVersion,OS,frameRate,refresh_mouse.x,refresh_mouse.y,refresh_mouse.leftButton,refresh_mouse.midButton,refresh_mouse.rightButton,refresh_mouse.time,braille_mouse.x,braille_mouse.y,braille_mouse.leftButton,braille_mouse.midButton,braille_mouse.rightButton,braille_mouse.time,trials.thisRepN,trials.thisTrialN,trials.thisN,trials.thisIndex,trials.ran,nlLet,brLet,cbLet,trainInstr_mouse.x,trainInstr_mouse.y,trainInstr_mouse.leftButton,trainInstr_mouse.midButton,trainInstr_mouse.rightButton,trainInstr_mouse.time,translation_key.keys,translation_key.corr,translation_key.rt,word_rsp.text,word_mouse.x,word_mouse.y,word_mouse.leftButton,word_mouse.midButton,word_mouse.rightButton,word_mouse.time,train_loop.thisRepN,train_loop.thisTrialN,train_loop.thisN,train_loop.thisIndex,train_loop.ran,nlWrd,brWrd,cbWrd,test,testResp,mouse.x,mouse.y,mouse.leftButton,mouse.midButton,mouse.rightButton,testInstr_mouse.x,testInstr_mouse.y,testInstr_mouse.leftButton,testInstr_mouse.midButton,testInstr_mouse.rightButton,test_mouse.x,test_mouse.y,test_mouse.leftButton,test_mouse.midButton,test_mouse.rightButton,test_response.text,test_loop.thisRepN,test_loop.thisTrialN,test_loop.thisN,test_loop.thisIndex,test_loop.ran
-0.175961401,-0.256568938,1,0,0,13.1185,00053 ,2023-10-19_20h04.29.277,vbt_B2_day2,2022.2.4,Linux x86_64,60.0060006,,,,,,,,,,,,,,,,,,,,,,,,,,,,,,,,,,,,,,,,,,,,,,,,,,,,,,,,,,,,,,,,,,,
,,,,,,00053 ,2023-10-19_20h04.29.277,vbt_B2_day2,2022.2.4,Linux x86_64,60.0060006,-0.175961401,-0.256568938,1,0,0,13.6745,,,,,,,,,,,,,,,,,,,,,,,,,,,,,,,,,,,,,,,,,,,,,,,,,,,,,,,,,,,,,
,,,,,,00053 ,2023-10-19_20h04.29.277,vbt_B2_day2,2022.2.4,Linux x86_64,60.0060006,,,,,,,-0.175961401,-0.256568938,1,0,0,1.7166,0,0,0,16,1,q,images/br_q.png,images/cb_q.png,,,,,,,,,,,,,,,,,,,,,,,,,,,,,,,,,,,,,,,,,,,,,,,
,,,,,,00053 ,2023-10-19_20h04.29.277,vbt_B2_day2,2022.2.4,Linux x86_64,60.0060006,,,,,,,-0.175961401,-0.256568938,1,0,0,1.0334,0,1,1,10,1,k,images/br_k.png,images/cb_k.png,,,,,,,,,,,,,,,,,,,,,,,,,,,,,,,,,,,,,,,,,,,,,,,
,,,,,,00053 ,2023-10-19_20h04.29.277,vbt_B2_day2,2022.2.4,Linux x86_64,60.0060006,,,,,,,0.062139232,-0.169816133,1,0,0,1.8331,0,2,2,12,1,m,images/br_m.png,images/cb_m.png,,,,,,,,,,,,,,,,,,,,,,,,,,,,,,,,,,,,,,,,,,,,,,,
,,,,,,00053 ,2023-10-19_20h04.29.277,vbt_B2_day2,2022.2.4,Linux x86_64,60.0060006,,,,,,,0.062139232,-0.169816133,1,0,0,2.6166,0,3,3,25,1,z,images/br_z.png,images/cb_z.png,,,,,,,,,,,,,,,,,,,,,,,,,,,,,,,,,,,,,,,,,,,,,,,
,,,,,,00053 ,2023-10-19_20h04.29.277,vbt_B2_day2,2022.2.4,Linux x86_64,60.0060006,,,,,,,0.062139232,-0.169816133,1,0,0,3.3013,0,4,4,21,1,v,images/br_v.png,images/cb_v.png,,,,,,,,,,,,,,,,,,,,,,,,,,,,,,,,,,,,,,,,,,,,,,,
,,,,,,00053 ,2023-10-19_20h04.29.277,vbt_B2_day2,2022.2.4,Linux x86_64,60.0060006,,,,,,,0.062139232,-0.169816133,1,0,0,3.8665,0,5,5,18,1,s,images/br_s.png,images/cb_s.png,,,,,,,,,,,,,,,,,,,,,,,,,,,,,,,,,,,,,,,,,,,,,,,
,,,,,,00053 ,2023-10-19_20h04.29.277,vbt_B2_day2,2022.2.4,Linux x86_64,60.0060006,,,,,,,0.062139232,-0.169816133,1,0,0,0.984,0,6,6,19,1,t,images/br_t.png,images/cb_t.png,,,,,,,,,,,,,,,,,,,,,,,,,,,,,,,,,,,,,,,,,,,,,,,
,,,,,,00053 ,2023-10-19_20h04.29.277,vbt_B2_day2,2022.2.4,Linux x86_64,60.0060006,,,,,,,0.062139232,-0.169816133,1,0,0,1.8033,0,7,7,8,1,i,images/br_i.png,images/cb_i.png,,,,,,,,,,,,,,,,,,,,,,,,,,,,,,,,,,,,,,,,,,,,,,,
,,,,,,00053 ,2023-10-19_20h04.29.277,vbt_B2_day2,2022.2.4,Linux x86_64,60.0060006,,,,,,,0.062139232,-0.169816133,1,0,0,0.5314,0,8,8,1,1,b,images/br_b.png,images/cb_b.png,,,,,,,,,,,,,,,,,,,,,,,,,,,,,,,,,,,,,,,,,,,,,,,
,,,,,,00053 ,2023-10-19_20h04.29.277,vbt_B2_day2,2022.2.4,Linux x86_64,60.0060006,,,,,,,0.062139232,-0.169816133,1,0,0,3.2159,0,9,9,14,1,o,images/br_o.png,images/cb_o.png,,,,,,,,,,,,,,,,,,,,,,,,,,,,,,,,,,,,,,,,,,,,,,,
,,,,,,00053 ,2023-10-19_20h04.29.277,vbt_B2_day2,2022.2.4,Linux x86_64,60.0060006,,,,,,,0.062139232,-0.169816133,1,0,0,9.6491,0,10,10,4,1,e,images/br_e.png,images/cb_e.png,,,,,,,,,,,,,,,,,,,,,,,,,,,,,,,,,,,,,,,,,,,,,,,
,,,,,,00053 ,2023-10-19_20h04.29.277,vbt_B2_day2,2022.2.4,Linux x86_64,60.0060006,,,,,,,0.062139232,-0.169816133,1,0,0,4.9486,0,11,11,6,1,g,images/br_g.png,images/cb_g.png,,,,,,,,,,,,,,,,,,,,,,,,,,,,,,,,,,,,,,,,,,,,,,,
,,,,,,00053 ,2023-10-19_20h04.29.277,vbt_B2_day2,2022.2.4,Linux x86_64,60.0060006,,,,,,,0.062139232,-0.169816133,1,0,0,0.1832,0,12,12,20,1,u,images/br_u.png,images/cb_u.png,,,,,,,,,,,,,,,,,,,,,,,,,,,,,,,,,,,,,,,,,,,,,,,
,,,,,,00053 ,2023-10-19_20h04.29.277,vbt_B2_day2,2022.2.4,Linux x86_64,60.0060006,,,,,,,0.062139232,-0.169816133,1,0,0,0.2991,0,13,13,11,1,l,images/br_l.png,images/cb_l.png,,,,,,,,,,,,,,,,,,,,,,,,,,,,,,,,,,,,,,,,,,,,,,,
,,,,,,00053 ,2023-10-19_20h04.29.277,vbt_B2_day2,2022.2.4,Linux x86_64,60.0060006,,,,,,,0.062139232,-0.169816133,1,0,0,1.783,0,14,14,17,1,r,images/br_r.png,images/cb_r.png,,,,,,,,,,,,,,,,,,,,,,,,,,,,,,,,,,,,,,,,,,,,,,,
,,,,,,00053 ,2023-10-19_20h04.29.277,vbt_B2_day2,2022.2.4,Linux x86_64,60.0060006,,,,,,,0.062139232,-0.169816133,1,0,0,0.3664,0,15,15,24,1,y,images/br_y.png,images/cb_y.png,,,,,,,,,,,,,,,,,,,,,,,,,,,,,,,,,,,,,,,,,,,,,,,
,,,,,,00053 ,2023-10-19_20h04.29.277,vbt_B2_day2,2022.2.4,Linux x86_64,60.0060006,,,,,,,0.062139232,-0.169816133,1,0,0,11.0647,0,16,16,9,1,j,images/br_j.png,images/cb_j.png,,,,,,,,,,,,,,,,,,,,,,,,,,,,,,,,,,,,,,,,,,,,,,,
,,,,,,00053 ,2023-10-19_20h04.29.277,vbt_B2_day2,2022.2.4,Linux x86_64,60.0060006,,,,,,,0.062139232,-0.169816133,1,0,0,9.2652,0,17,17,22,1,w,images/br_w.png,images/cb_w.png,,,,,,,,,,,,,,,,,,,,,,,,,,,,,,,,,,,,,,,,,,,,,,,
,,,,,,00053 ,2023-10-19_20h04.29.277,vbt_B2_day2,2022.2.4,Linux x86_64,60.0060006,,,,,,,0.062139232,-0.169816133,1,0,0,14.1649,0,18,18,13,1,n,images/br_n.png,images/cb_n.png,,,,,,,,,,,,,,,,,,,,,,,,,,,,,,,,,,,,,,,,,,,,,,,
,,,,,,00053 ,2023-10-19_20h04.29.277,vbt_B2_day2,2022.2.4,Linux x86_64,60.0060006,,,,,,,0.062139232,-0.169816133,1,0,0,10.5654,0,19,19,23,1,x,images/br_x.png,images/cb_x.png,,,,,,,,,,,,,,,,,,,,,,,,,,,,,,,,,,,,,,,,,,,,,,,
,,,,,,00053 ,2023-10-19_20h04.29.277,vbt_B2_day2,2022.2.4,Linux x86_64,60.0060006,,,,,,,0.062139232,-0.169816133,1,0,0,6.9987,0,20,20,5,1,f,images/br_f.png,images/cb_f.png,,,,,,,,,,,,,,,,,,,,,,,,,,,,,,,,,,,,,,,,,,,,,,,
,,,,,,00053 ,2023-10-19_20h04.29.277,vbt_B2_day2,2022.2.4,Linux x86_64,60.0060006,,,,,,,0.062139232,-0.169816133,1,0,0,1.7993,0,21,21,15,1,p,images/br_p.png,images/cb_p.png,,,,,,,,,,,,,,,,,,,,,,,,,,,,,,,,,,,,,,,,,,,,,,,
,,,,,,00053 ,2023-10-19_20h04.29.277,vbt_B2_day2,2022.2.4,Linux x86_64,60.0060006,,,,,,,0.062139232,-0.169816133,1,0,0,21.3964,0,22,22,3,1,d,images/br_d.png,images/cb_d.png,,,,,,,,,,,,,,,,,,,,,,,,,,,,,,,,,,,,,,,,,,,,,,,
,,,,,,00053 ,2023-10-19_20h04.29.277,vbt_B2_day2,2022.2.4,Linux x86_64,60.0060006,,,,,,,0.062139232,-0.169816133,1,0,0,1.0656,0,23,23,2,1,c,images/br_c.png,images/cb_c.png,,,,,,,,,,,,,,,,,,,,,,,,,,,,,,,,,,,,,,,,,,,,,,,
,,,,,,00053 ,2023-10-19_20h04.29.277,vbt_B2_day2,2022.2.4,Linux x86_64,60.0060006,,,,,,,0.062139232,-0.169816133,1,0,0,1.283,0,24,24,7,1,h,images/br_h.png,images/cb_h.png,,,,,,,,,,,,,,,,,,,,,,,,,,,,,,,,,,,,,,,,,,,,,,,
,,,,,,00053 ,2023-10-19_20h04.29.277,vbt_B2_day2,2022.2.4,Linux x86_64,60.0060006,,,,,,,0.062139232,-0.169816133,1,0,0,0.8661,0,25,25,0,1,a,images/br_a.png,images/cb_a.png,,,,,,,,,,,,,,,,,,,,,,,,,,,,,,,,,,,,,,,,,,,,,,,
,,,,,,00053 ,2023-10-19_20h04.29.277,vbt_B2_day2,2022.2.4,Linux x86_64,60.0060006,,,,,,,,,,,,,,,,,,,,,0.062139232,-0.169816133,1,0,0,52.9589,,,,,,,,,,,,,,,,,,,,,,,,,,,,,,,,,,,,,,,,,
,,,,,,00053 ,2023-10-19_20h04.29.277,vbt_B2_day2,2022.2.4,Linux x86_64,60.0060006,,,,,,,,,,,,,,,,,,,,,,,,,,,down,0,18.9747,,0.166159777,-0.127333681,1,0,0,33.5054,0,0,0,146,1,opkomen,images/br_opkomen.png,images/cb_opkomen.png,0,,,,,,,,,,,,,,,,,,,,,,
,,,,,,00053 ,2023-10-19_20h04.29.277,vbt_B2_day2,2022.2.4,Linux x86_64,60.0060006,,,,,,,,,,,,,,,,,,,,,,,,,,,down,0,5.0548,,0.166159777,-0.127333681,1,0,0,4.2002,0,1,1,12,1,kust,images/br_kust.png,images/cb_kust.png,0,,,,,,,,,,,,,,,,,,,,,,
,,,,,,00053 ,2023-10-19_20h04.29.277,vbt_B2_day2,2022.2.4,Linux x86_64,60.0060006,,,,,,,,,,,,,,,,,,,,,,,,,,,down,0,86.4186,,0.070769681,-0.220975412,1,0,0,25.9819,0,2,2,136,1,waarbij,images/br_waarbij.png,images/cb_waarbij.png,1,aarbi,,,,,,,,,,,,,,,,,,,,,
,,,,,,00053 ,2023-10-19_20h04.29.277,vbt_B2_day2,2022.2.4,Linux x86_64,60.0060006,,,,,,,,,,,,,,,,,,,,,,,,,,,down,0,18.6666,,0.183050187,-0.101364972,1,0,0,12.9307,0,3,3,58,1,tekst,images/br_tekst.png,images/cb_tekst.png,1,tekst,,,,,,,,,,,,,,,,,,,,,
,,,,,,00053 ,2023-10-19_20h04.29.277,vbt_B2_day2,2022.2.4,Linux x86_64,60.0060006,,,,,,,,,,,,,,,,,,,,,,,,,,,down,0,9.4779,,0.120472746,-0.133615637,1,0,0,6.5494,0,4,4,78,1,leren,images/br_leren.png,images/cb_leren.png,0,,,,,,,,,,,,,,,,,,,,,,
,,,,,,00053 ,2023-10-19_20h04.29.277,vbt_B2_day2,2022.2.4,Linux x86_64,60.0060006,,,,,,,,,,,,,,,,,,,,,,,,,,,down,0,17.5301,,0.064704574,-0.141724877,1,0,0,5.3494,0,5,5,63,1,flirt,images/br_flirt.png,images/cb_flirt.png,0,,,,,,,,,,,,,,,,,,,,,,
,,,,,,00053 ,2023-10-19_20h04.29.277,vbt_B2_day2,2022.2.4,Linux x86_64,60.0060006,,,,,,,,,,,,,,,,,,,,,,,,,,,down,0,14.114,,0.150385416,-0.056015578,1,0,0,18.7968,0,6,6,189,1,aanraden,images/br_aanraden.png,images/cb_aanraden.png,0,,,,,,,,,,,,,,,,,,,,,,
,,,,,,00053 ,2023-10-19_20h04.29.277,vbt_B2_day2,2022.2.4,Linux x86_64,60.0060006,,,,,,,,,,,,,,,,,,,,,,,,,,,down,0,14.0995,,0.101476196,-0.069866399,1,0,0,3.5995,0,7,7,87,1,toeval,images/br_toeval.png,images/cb_toeval.png,0,,,,,,,,,,,,,,,,,,,,,,
,,,,,,00053 ,2023-10-19_20h04.29.277,vbt_B2_day2,2022.2.4,Linux x86_64,60.0060006,,,,,,,,,,,,,,,,,,,,,,,,,,,down,0,13.8992,,0.064161323,-0.199235622,1,0,0,12.281,0,8,8,70,1,ijdel,images/br_ijdel.png,images/cb_ijdel.png,0,,,,,,,,,,,,,,,,,,,,,,
,,,,,,00053 ,2023-10-19_20h04.29.277,vbt_B2_day2,2022.2.4,Linux x86_64,60.0060006,,,,,,,,,,,,,,,,,,,,,,,,,,,down,0,4.9502,,0.111507576,-0.038244007,1,0,0,2.5145,0,9,9,51,1,samen,images/br_samen.png,images/cb_samen.png,0,,,,,,,,,,,,,,,,,,,,,,
,,,,,,00053 ,2023-10-19_20h04.29.277,vbt_B2_day2,2022.2.4,Linux x86_64,60.0060006,,,,,,,,,,,,,,,,,,,,,,,,,,,down,0,40.4325,,0.077506718,-0.203461899,1,0,0,9.298,0,10,10,59,1,kring,images/br_kring.png,images/cb_kring.png,1,krin,,,,,,,,,,,,,,,,,,,,,
,,,,,,00053 ,2023-10-19_20h04.29.277,vbt_B2_day2,2022.2.4,Linux x86_64,60.0060006,,,,,,,,,,,,,,,,,,,,,,,,,,,down,0,17.4983,,0.075589903,-0.131233478,1,0,0,5.2659,0,11,11,165,1,feestdag,images/br_feestdag.png,images/cb_feestdag.png,0,,,,,,,,,,,,,,,,,,,,,,
,,,,,,00053 ,2023-10-19_20h04.29.277,vbt_B2_day2,2022.2.4,Linux x86_64,60.0060006,,,,,,,,,,,,,,,,,,,,,,,,,,,down,0,8.9051,,0.048552961,-0.096379799,1,0,0,2.1478,0,12,12,44,1,flits,images/br_flits.png,images/cb_flits.png,0,,,,,,,,,,,,,,,,,,,,,,
,,,,,,00053 ,2023-10-19_20h04.29.277,vbt_B2_day2,2022.2.4,Linux x86_64,60.0060006,,,,,,,,,,,,,,,,,,,,,,,,,,,down,0,8.3218,,0.103476749,-0.140127622,1,0,0,1.7493,0,13,13,98,1,kreeft,images/br_kreeft.png,images/cb_kreeft.png,1,kreeft,,,,,,,,,,,,,,,,,,,,,
,,,,,,00053 ,2023-10-19_20h04.29.277,vbt_B2_day2,2022.2.4,Linux x86_64,60.0060006,,,,,,,,,,,,,,,,,,,,,,,,,,,down,0,8.4321,,0.038891913,-0.1642631,1,0,0,1.9995,0,14,14,84,1,lokken,images/br_lokken.png,images/cb_lokken.png,0,,,,,,,,,,,,,,,,,,,,,,
,,,,,,00053 ,2023-10-19_20h04.29.277,vbt_B2_day2,2022.2.4,Linux x86_64,60.0060006,,,,,,,,,,,,,,,,,,,,,,,,,,,down,0,3.163,,0.067559465,-0.134674539,1,0,0,1.3666,0,15,15,109,1,totaal,images/br_totaal.png,images/cb_totaal.png,0,,,,,,,,,,,,,,,,,,,,,,
,,,,,,00053 ,2023-10-19_20h04.29.277,vbt_B2_day2,2022.2.4,Linux x86_64,60.0060006,,,,,,,,,,,,,,,,,,,,,,,,,,,down,0,16.5493,,0.125360924,-0.170104825,1,0,0,4.4825,0,16,16,100,1,geduld,images/br_geduld.png,images/cb_geduld.png,0,,,,,,,,,,,,,,,,,,,,,,
,,,,,,00053 ,2023-10-19_20h04.29.277,vbt_B2_day2,2022.2.4,Linux x86_64,60.0060006,,,,,,,,,,,,,,,,,,,,,,,,,,,down,0,13.7855,,0.11440212,-0.116817596,1,0,0,4.7652,0,17,17,77,1,woede,images/br_woede.png,images/cb_woede.png,0,,,,,,,,,,,,,,,,,,,,,,
,,,,,,00053 ,2023-10-19_20h04.29.277,vbt_B2_day2,2022.2.4,Linux x86_64,60.0060006,,,,,,,,,,,,,,,,,,,,,,,,,,,down,0,11.6358,,-0.013056392,-0.062927985,1,0,0,8.1129,0,18,18,160,1,daarheen,images/br_daarheen.png,images/cb_daarheen.png,0,,,,,,,,,,,,,,,,,,,,,,
,,,,,,00053 ,2023-10-19_20h04.29.277,vbt_B2_day2,2022.2.4,Linux x86_64,60.0060006,,,,,,,,,,,,,,,,,,,,,,,,,,,down,0,18.4462,,0.121984863,-0.117328581,1,0,0,9.6025,0,19,19,91,1,gezond,images/br_gezond.png,images/cb_gezond.png,0,,,,,,,,,,,,,,,,,,,,,,
,,,,,,00053 ,2023-10-19_20h04.29.277,vbt_B2_day2,2022.2.4,Linux x86_64,60.0060006,,,,,,,,,,,,,,,,,,,,,,,,,,,down,0,7.353,,0.110600524,-0.11200371,1,0,0,2.2664,0,20,20,95,1,vreten,images/br_vreten.png,images/cb_vreten.png,0,,,,,,,,,,,,,,,,,,,,,,
,,,,,,00053 ,2023-10-19_20h04.29.277,vbt_B2_day2,2022.2.4,Linux x86_64,60.0060006,,,,,,,,,,,,,,,,,,,,,,,,,,,down,0,4.0493,,0.091137229,-0.107780544,1,0,0,1.6497,0,21,21,112,1,lukken,images/br_lukken.png,images/cb_lukken.png,0,,,,,,,,,,,,,,,,,,,,,,
,,,,,,00053 ,2023-10-19_20h04.29.277,vbt_B2_day2,2022.2.4,Linux x86_64,60.0060006,,,,,,,,,,,,,,,,,,,,,,,,,,,down,0,15.4317,,0.01275868,-0.145406074,1,0,0,4.3329,0,22,22,52,1,wagon,images/br_wagon.png,images/cb_wagon.png,0,,,,,,,,,,,,,,,,,,,,,,
,,,,,,00053 ,2023-10-19_20h04.29.277,vbt_B2_day2,2022.2.4,Linux x86_64,60.0060006,,,,,,,,,,,,,,,,,,,,,,,,,,,down,0,14.7646,,-0.001580927,-0.148980868,1,0,0,4.8483,0,23,23,8,1,knie,images/br_knie.png,images/cb_knie.png,0,,,,,,,,,,,,,,,,,,,,,,
,,,,,,00053 ,2023-10-19_20h04.29.277,vbt_B2_day2,2022.2.4,Linux x86_64,60.0060006,,,,,,,,,,,,,,,,,,,,,,,,,,,down,0,9.7679,,0.004145881,-0.132019004,1,0,0,1.2847,0,24,24,127,1,doodmoe,images/br_doodmoe.png,images/cb_doodmoe.png,0,,,,,,,,,,,,,,,,,,,,,,
,,,,,,00053 ,2023-10-19_20h04.29.277,vbt_B2_day2,2022.2.4,Linux x86_64,60.0060006,,,,,,,,,,,,,,,,,,,,,,,,,,,down,0,7.9351,,-0.006136638,-0.122838189,1,0,0,1.6489,0,25,25,38,1,baai,images/br_baai.png,images/cb_baai.png,0,,,,,,,,,,,,,,,,,,,,,,
,,,,,,00053 ,2023-10-19_20h04.29.277,vbt_B2_day2,2022.2.4,Linux x86_64,60.0060006,,,,,,,,,,,,,,,,,,,,,,,,,,,down,0,4.0693,,0.023271889,-0.129629342,1,0,0,1.0183,0,26,26,54,1,gebit,images/br_gebit.png,images/cb_gebit.png,0,,,,,,,,,,,,,,,,,,,,,,
,,,,,,00053 ,2023-10-19_20h04.29.277,vbt_B2_day2,2022.2.4,Linux x86_64,60.0060006,,,,,,,,,,,,,,,,,,,,,,,,,,,down,0,4.2498,,0.011704133,-0.123019156,1,0,0,1.3482,0,27,27,15,1,soda,images/br_soda.png,images/cb_soda.png,0,,,,,,,,,,,,,,,,,,,,,,
,,,,,,00053 ,2023-10-19_20h04.29.277,vbt_B2_day2,2022.2.4,Linux x86_64,60.0060006,,,,,,,,,,,,,,,,,,,,,,,,,,,down,0,1.9032,,-0.011961025,-0.12473094,1,0,0,1.3163,0,28,28,53,1,baron,images/br_baron.png,images/cb_baron.png,0,,,,,,,,,,,,,,,,,,,,,,
,,,,,,00053 ,2023-10-19_20h04.29.277,vbt_B2_day2,2022.2.4,Linux x86_64,60.0060006,,,,,,,,,,,,,,,,,,,,,,,,,,,down,0,16.2872,,-0.030139005,-0.127117959,1,0,0,1.5002,0,29,29,183,1,getuigen,images/br_getuigen.png,images/cb_getuigen.png,0,,,,,,,,,,,,,,,,,,,,,,
,,,,,,00053 ,2023-10-19_20h04.29.277,vbt_B2_day2,2022.2.4,Linux x86_64,60.0060006,,,,,,,,,,,,,,,,,,,,,,,,,,,down,0,7.816,,0.062443086,-0.139422491,1,0,0,2.9497,0,30,30,26,1,leuk,images/br_leuk.png,images/cb_leuk.png,0,,,,,,,,,,,,,,,,,,,,,,
,,,,,,00053 ,2023-10-19_20h04.29.277,vbt_B2_day2,2022.2.4,Linux x86_64,60.0060006,,,,,,,,,,,,,,,,,,,,,,,,,,,down,0,4.117,,0.060239678,-0.136851861,1,0,0,1.0844,0,31,31,47,1,kabel,images/br_kabel.png,images/cb_kabel.png,0,,,,,,,,,,,,,,,,,,,,,,
,,,,,,00053 ,2023-10-19_20h04.29.277,vbt_B2_day2,2022.2.4,Linux x86_64,60.0060006,,,,,,,,,,,,,,,,,,,,,,,,,,,down,0,2.217,,0.039355469,-0.142458543,1,0,0,2.1849,0,32,32,22,1,stof,images/br_stof.png,images/cb_stof.png,0,,,,,,,,,,,,,,,,,,,,,,
,,,,,,00053 ,2023-10-19_20h04.29.277,vbt_B2_day2,2022.2.4,Linux x86_64,60.0060006,,,,,,,,,,,,,,,,,,,,,,,,,,,down,0,8.3345,,0.01592069,-0.094173125,1,0,0,1.5993,0,33,33,116,1,besmet,images/br_besmet.png,images/cb_besmet.png,0,,,,,,,,,,,,,,,,,,,,,,
,,,,,,00053 ,2023-10-19_20h04.29.277,vbt_B2_day2,2022.2.4,Linux x86_64,60.0060006,,,,,,,,,,,,,,,,,,,,,,,,,,,down,0,11.7493,,-0.000604598,-0.100966921,1,0,0,8.0475,0,34,34,158,1,innemen,images/br_innemen.png,images/cb_innemen.png,0,,,,,,,,,,,,,,,,,,,,,,
,,,,,,00053 ,2023-10-19_20h04.29.277,vbt_B2_day2,2022.2.4,Linux x86_64,60.0060006,,,,,,,,,,,,,,,,,,,,,,,,,,,down,0,14.268,,0.029208549,-0.105331363,1,0,0,1.1322,0,35,35,154,1,aflopen,images/br_aflopen.png,images/cb_aflopen.png,0,,,,,,,,,,,,,,,,,,,,,,
,,,,,,00053 ,2023-10-19_20h04.29.277,vbt_B2_day2,2022.2.4,Linux x86_64,60.0060006,,,,,,,,,,,,,,,,,,,,,,,,,,,down,0,9.3331,,0.027923234,-0.100741013,1,0,0,1.2334,0,36,36,122,1,waarvan,images/br_waarvan.png,images/cb_waarvan.png,0,,,,,,,,,,,,,,,,,,,,,,
,,,,,,00053 ,2023-10-19_20h04.29.277,vbt_B2_day2,2022.2.4,Linux x86_64,60.0060006,,,,,,,,,,,,,,,,,,,,,,,,,,,down,0,2.7597,,0.037838376,-0.101108196,1,0,0,4.5609,0,37,37,46,1,jagen,images/br_jagen.png,images/cb_jagen.png,0,,,,,,,,,,,,,,,,,,,,,,
,,,,,,00053 ,2023-10-19_20h04.29.277,vbt_B2_day2,2022.2.4,Linux x86_64,60.0060006,,,,,,,,,,,,,,,,,,,,,,,,,,,down,0,33.6082,,0.091307194,-0.144416644,1,0,0,18.1302,0,38,38,131,1,opzicht,images/br_opzicht.png,images/cb_opzicht.png,0,,,,,,,,,,,,,,,,,,,,,,
,,,,,,00053 ,2023-10-19_20h04.29.277,vbt_B2_day2,2022.2.4,Linux x86_64,60.0060006,,,,,,,,,,,,,,,,,,,,,,,,,,,down,0,17.4321,,0.125245385,-0.121691506,1,0,0,4.6009,0,39,39,85,1,heilig,images/br_heilig.png,images/cb_heilig.png,0,,,,,,,,,,,,,,,,,,,,,,
,,,,,,00053 ,2023-10-19_20h04.29.277,vbt_B2_day2,2022.2.4,Linux x86_64,60.0060006,,,,,,,,,,,,,,,,,,,,,,,,,,,down,0,6.6996,,0.047898602,-0.125511024,1,0,0,1.0997,0,40,40,120,1,klimmen,images/br_klimmen.png,images/cb_klimmen.png,0,,,,,,,,,,,,,,,,,,,,,,
,,,,,,00053 ,2023-10-19_20h04.29.277,vbt_B2_day2,2022.2.4,Linux x86_64,60.0060006,,,,,,,,,,,,,,,,,,,,,,,,,,,down,0,13.934,,0.018251844,-0.124188116,1,0,0,1.283,0,41,41,75,1,snoep,images/br_snoep.png,images/cb_snoep.png,0,,,,,,,,,,,,,,,,,,,,,,
,,,,,,00053 ,2023-10-19_20h04.29.277,vbt_B2_day2,2022.2.4,Linux x86_64,60.0060006,,,,,,,,,,,,,,,,,,,,,,,,,,,down,0,8.9667,,0.011641542,-0.117761619,1,0,0,2.6164,0,42,42,133,1,seizoen,images/br_seizoen.png,images/cb_seizoen.png,0,,,,,,,,,,,,,,,,,,,,,,
,,,,,,00053 ,2023-10-19_20h04.29.277,vbt_B2_day2,2022.2.4,Linux x86_64,60.0060006,,,,,,,,,,,,,,,,,,,,,,,,,,,down,0,5.3487,,-0.025964355,-0.10467988,1,0,0,1.3667,0,43,43,174,1,stemming,images/br_stemming.png,images/cb_stemming.png,0,,,,,,,,,,,,,,,,,,,,,,
,,,,,,00053 ,2023-10-19_20h04.29.277,vbt_B2_day2,2022.2.4,Linux x86_64,60.0060006,,,,,,,,,,,,,,,,,,,,,,,,,,,down,0,4.0174,,0.037473409,-0.116122534,1,0,0,1.4003,0,44,44,171,1,aarzelen,images/br_aarzelen.png,images/cb_aarzelen.png,0,,,,,,,,,,,,,,,,,,,,,,
,,,,,,00053 ,2023-10-19_20h04.29.277,vbt_B2_day2,2022.2.4,Linux x86_64,60.0060006,,,,,,,,,,,,,,,,,,,,,,,,,,,down,0,20.93,,-0.005386722,-0.107044623,1,0,0,11.3838,0,45,45,185,1,mijnheer,images/br_mijnheer.png,images/cb_mijnheer.png,0,,,,,,,,,,,,,,,,,,,,,,
,,,,,,00053 ,2023-10-19_20h04.29.277,vbt_B2_day2,2022.2.4,Linux x86_64,60.0060006,,,,,,,,,,,,,,,,,,,,,,,,,,,down,0,7.2838,,-0.026502009,-0.111635011,1,0,0,9.6406,0,46,46,105,1,wijlen,images/br_wijlen.png,images/cb_wijlen.png,0,,,,,,,,,,,,,,,,,,,,,,
,,,,,,00053 ,2023-10-19_20h04.29.277,vbt_B2_day2,2022.2.4,Linux x86_64,60.0060006,,,,,,,,,,,,,,,,,,,,,,,,,,,down,0,7.4504,,-0.015852346,-0.116776271,1,0,0,0.9334,0,47,47,82,1,muziek,images/br_muziek.png,images/cb_muziek.png,0,,,,,,,,,,,,,,,,,,,,,,
,,,,,,00053 ,2023-10-19_20h04.29.277,vbt_B2_day2,2022.2.4,Linux x86_64,60.0060006,,,,,,,,,,,,,,,,,,,,,,,,,,,down,0,11.2151,,0.028358877,-0.117909503,1,0,0,1.2837,0,48,48,179,1,woestijn,images/br_woestijn.png,images/cb_woestijn.png,1,woestijn,,,,,,,,,,,,,,,,,,,,,
,,,,,,00053 ,2023-10-19_20h04.29.277,vbt_B2_day2,2022.2.4,Linux x86_64,60.0060006,,,,,,,,,,,,,,,,,,,,,,,,,,,down,0,10.8854,,-0.011538055,-0.125513745,1,0,0,3.8332,0,49,49,108,1,excuus,images/br_excuus.png,images/cb_excuus.png,0,,,,,,,,,,,,,,,,,,,,,,
,,,,,,00053 ,2023-10-19_20h04.29.277,vbt_B2_day2,2022.2.4,Linux x86_64,60.0060006,,,,,,,,,,,,,,,,,,,,,,,,,,,down,0,2.2523,,-0.011538055,-0.125513745,1,0,0,1.1662,0,50,50,101,1,staren,images/br_staren.png,images/cb_staren.png,0,,,,,,,,,,,,,,,,,,,,,,
,,,,,,00053 ,2023-10-19_20h04.29.277,vbt_B2_day2,2022.2.4,Linux x86_64,60.0060006,,,,,,,,,,,,,,,,,,,,,,,,,,,down,0,7.9973,,0.008476034,-0.13212393,1,0,0,1.4667,0,51,51,134,1,geliefd,images/br_geliefd.png,images/cb_geliefd.png,0,,,,,,,,,,,,,,,,,,,,,,
,,,,,,00053 ,2023-10-19_20h04.29.277,vbt_B2_day2,2022.2.4,Linux x86_64,60.0060006,,,,,,,,,,,,,,,,,,,,,,,,,,,down,0,9.4252,,-0.024976208,-0.178590111,1,0,0,4.72,0,52,52,168,1,bisschop,images/br_bisschop.png,images/cb_bisschop.png,0,,,,,,,,,,,,,,,,,,,,,,
,,,,,,00053 ,2023-10-19_20h04.29.277,vbt_B2_day2,2022.2.4,Linux x86_64,60.0060006,,,,,,,,,,,,,,,,,,,,,,,,,,,down,0,12.2822,,0.003025011,-0.180517578,1,0,0,1.6158,0,53,53,184,1,aandelen,images/br_aandelen.png,images/cb_aandelen.png,0,,,,,,,,,,,,,,,,,,,,,,
,,,,,,00053 ,2023-10-19_20h04.29.277,vbt_B2_day2,2022.2.4,Linux x86_64,60.0060006,,,,,,,,,,,,,,,,,,,,,,,,,,,down,0,7.7608,,-0.054457743,-0.160218685,1,0,0,1.156,0,54,54,138,1,akkoord,images/br_akkoord.png,images/cb_akkoord.png,1,akkoord,,,,,,,,,,,,,,,,,,,,,
,,,,,,00053 ,2023-10-19_20h04.29.277,vbt_B2_day2,2022.2.4,Linux x86_64,60.0060006,,,,,,,,,,,,,,,,,,,,,,,,,,,down,0,4.9749,,-0.068407814,-0.16827828,1,0,0,2.5678,0,55,55,5,1,blad,images/br_blad.png,images/cb_blad.png,0,,,,,,,,,,,,,,,,,,,,,,
,,,,,,00053 ,2023-10-19_20h04.29.277,vbt_B2_day2,2022.2.4,Linux x86_64,60.0060006,,,,,,,,,,,,,,,,,,,,,,,,,,,down,0,9.0336,,-0.040181582,-0.194843812,1,0,0,1.0509,0,56,56,117,1,kennis,images/br_kennis.png,images/cb_kennis.png,0,,,,,,,,,,,,,,,,,,,,,,
,,,,,,00053 ,2023-10-19_20h04.29.277,vbt_B2_day2,2022.2.4,Linux x86_64,60.0060006,,,,,,,,,,,,,,,,,,,,,,,,,,,down,0,11.2805,,0.143477635,-0.185472078,1,0,0,2.7334,0,57,57,97,1,loyaal,images/br_loyaal.png,images/cb_loyaal.png,1,loyaal,,,,,,,,,,,,,,,,,,,,,
,,,,,,00053 ,2023-10-19_20h04.29.277,vbt_B2_day2,2022.2.4,Linux x86_64,60.0060006,,,,,,,,,,,,,,,,,,,,,,,,,,,down,0,3.7342,,0.101015749,-0.182933948,1,0,0,0.9503,0,58,58,61,1,groen,images/br_groen.png,images/cb_groen.png,0,,,,,,,,,,,,,,,,,,,,,,
,,,,,,00053 ,2023-10-19_20h04.29.277,vbt_B2_day2,2022.2.4,Linux x86_64,60.0060006,,,,,,,,,,,,,,,,,,,,,,,,,,,down,0,6.2015,,0.0543562,-0.181639303,1,0,0,0.8669,0,59,59,90,1,geluid,images/br_geluid.png,images/cb_geluid.png,0,,,,,,,,,,,,,,,,,,,,,,
,,,,,,00053 ,2023-10-19_20h04.29.277,vbt_B2_day2,2022.2.4,Linux x86_64,60.0060006,,,,,,,,,,,,,,,,,,,,,,,,,,,down,0,12.9304,,0.012482428,-0.164194367,1,0,0,0.8829,0,60,60,190,1,goedkoop,images/br_goedkoop.png,images/cb_goedkoop.png,0,,,,,,,,,,,,,,,,,,,,,,
,,,,,,00053 ,2023-10-19_20h04.29.277,vbt_B2_day2,2022.2.4,Linux x86_64,60.0060006,,,,,,,,,,,,,,,,,,,,,,,,,,,down,0,6.2978,,-0.004627631,-0.158880343,1,0,0,1.0334,0,61,61,199,1,beseffen,images/br_beseffen.png,images/cb_beseffen.png,0,,,,,,,,,,,,,,,,,,,,,,
,,,,,,00053 ,2023-10-19_20h04.29.277,vbt_B2_day2,2022.2.4,Linux x86_64,60.0060006,,,,,,,,,,,,,,,,,,,,,,,,,,,down,0,7.3468,,-0.021716931,-0.146387924,1,0,0,1.283,0,62,62,121,1,twijfel,images/br_twijfel.png,images/cb_twijfel.png,0,,,,,,,,,,,,,,,,,,,,,,
,,,,,,00053 ,2023-10-19_20h04.29.277,vbt_B2_day2,2022.2.4,Linux x86_64,60.0060006,,,,,,,,,,,,,,,,,,,,,,,,,,,down,0,7.8992,,-0.009047354,-0.14583713,1,0,0,1.7003,0,63,63,72,1,strak,images/br_strak.png,images/cb_strak.png,0,,,,,,,,,,,,,,,,,,,,,,
,,,,,,00053 ,2023-10-19_20h04.29.277,vbt_B2_day2,2022.2.4,Linux x86_64,60.0060006,,,,,,,,,,,,,,,,,,,,,,,,,,,down,0,8.8527,,-0.026531866,-0.133184231,1,0,0,2.4499,0,64,64,149,1,redding,images/br_redding.png,images/cb_redding.png,0,,,,,,,,,,,,,,,,,,,,,,
,,,,,,00053 ,2023-10-19_20h04.29.277,vbt_B2_day2,2022.2.4,Linux x86_64,60.0060006,,,,,,,,,,,,,,,,,,,,,,,,,,,down,0,3.0834,,0.009642077,-0.146971723,1,0,0,0.8998,0,65,65,140,1,blijven,images/br_blijven.png,images/cb_blijven.png,0,,,,,,,,,,,,,,,,,,,,,,
,,,,,,00053 ,2023-10-19_20h04.29.277,vbt_B2_day2,2022.2.4,Linux x86_64,60.0060006,,,,,,,,,,,,,,,,,,,,,,,,,,,down,0,11.1978,,0.002662532,-0.140360527,1,0,0,1.3497,0,66,66,20,1,site,images/br_site.png,images/cb_site.png,0,,,,,,,,,,,,,,,,,,,,,,
,,,,,,00053 ,2023-10-19_20h04.29.277,vbt_B2_day2,2022.2.4,Linux x86_64,60.0060006,,,,,,,,,,,,,,,,,,,,,,,,,,,down,0,4.0654,,0.000826346,-0.140360527,1,0,0,0.5837,0,67,67,128,1,prikken,images/br_prikken.png,images/cb_prikken.png,0,,,,,,,,,,,,,,,,,,,,,,
,,,,,,00053 ,2023-10-19_20h04.29.277,vbt_B2_day2,2022.2.4,Linux x86_64,60.0060006,,,,,,,,,,,,,,,,,,,,,,,,,,,down,0,1.7347,,0.000826346,-0.140360527,1,0,0,0.517,0,68,68,7,1,geld,images/br_geld.png,images/cb_geld.png,0,,,,,,,,,,,,,,,,,,,,,,
,,,,,,00053 ,2023-10-19_20h04.29.277,vbt_B2_day2,2022.2.4,Linux x86_64,60.0060006,,,,,,,,,,,,,,,,,,,,,,,,,,,down,0,1.9497,,-0.002111661,-0.138707913,1,0,0,1.216,0,69,69,10,1,leek,images/br_leek.png,images/cb_leek.png,0,,,,,,,,,,,,,,,,,,,,,,
,,,,,,00053 ,2023-10-19_20h04.29.277,vbt_B2_day2,2022.2.4,Linux x86_64,60.0060006,,,,,,,,,,,,,,,,,,,,,,,,,,,down,0,3.15,,-0.002111661,-0.138707913,1,0,0,0.5333,0,70,70,126,1,kasteel,images/br_kasteel.png,images/cb_kasteel.png,0,,,,,,,,,,,,,,,,,,,,,,
,,,,,,00053 ,2023-10-19_20h04.29.277,vbt_B2_day2,2022.2.4,Linux x86_64,60.0060006,,,,,,,,,,,,,,,,,,,,,,,,,,,down,0,5.9914,,-0.002111661,-0.138707913,1,0,0,1.3442,0,71,71,74,1,graaf,images/br_graaf.png,images/cb_graaf.png,0,,,,,,,,,,,,,,,,,,,,,,
,,,,,,00053 ,2023-10-19_20h04.29.277,vbt_B2_day2,2022.2.4,Linux x86_64,60.0060006,,,,,,,,,,,,,,,,,,,,,,,,,,,down,0,11.4979,,-0.063819526,-0.158970224,1,0,0,1.4038,0,72,72,176,1,techniek,images/br_techniek.png,images/cb_techniek.png,1,techniek,,,,,,,,,,,,,,,,,,,,,
,,,,,,00053 ,2023-10-19_20h04.29.277,vbt_B2_day2,2022.2.4,Linux x86_64,60.0060006,,,,,,,,,,,,,,,,,,,,,,,,,,,down,0,6.2167,,-0.016351513,-0.173106744,1,0,0,1.5001,0,73,73,129,1,verhaal,images/br_verhaal.png,images/cb_verhaal.png,0,,,,,,,,,,,,,,,,,,,,,,
,,,,,,00053 ,2023-10-19_20h04.29.277,vbt_B2_day2,2022.2.4,Linux x86_64,60.0060006,,,,,,,,,,,,,,,,,,,,,,,,,,,down,0,1.2832,,-0.016351513,-0.173106744,1,0,0,0.6348,0,74,74,48,1,steel,images/br_steel.png,images/cb_steel.png,0,,,,,,,,,,,,,,,,,,,,,,
,,,,,,00053 ,2023-10-19_20h04.29.277,vbt_B2_day2,2022.2.4,Linux x86_64,60.0060006,,,,,,,,,,,,,,,,,,,,,,,,,,,down,0,0.7698,,-0.016351513,-0.173106744,1,0,0,0.5501,0,75,75,13,1,kaal,images/br_kaal.png,images/cb_kaal.png,0,,,,,,,,,,,,,,,,,,,,,,
,,,,,,00053 ,2023-10-19_20h04.29.277,vbt_B2_day2,2022.2.4,Linux x86_64,60.0060006,,,,,,,,,,,,,,,,,,,,,,,,,,,down,0,4.2709,,0.086109642,-0.159279365,1,0,0,1.1188,0,76,76,96,1,slagen,images/br_slagen.png,images/cb_slagen.png,1,slagen,,,,,,,,,,,,,,,,,,,,,
,,,,,,00053 ,2023-10-19_20h04.29.277,vbt_B2_day2,2022.2.4,Linux x86_64,60.0060006,,,,,,,,,,,,,,,,,,,,,,,,,,,down,0,2.0832,,0.048287206,-0.122311421,1,0,0,0.5,0,77,77,39,1,laag,images/br_laag.png,images/cb_laag.png,0,,,,,,,,,,,,,,,,,,,,,,
,,,,,,00053 ,2023-10-19_20h04.29.277,vbt_B2_day2,2022.2.4,Linux x86_64,60.0060006,,,,,,,,,,,,,,,,,,,,,,,,,,,down,0,13.0802,,-0.03947715,-0.146118436,1,0,0,0.9997,0,78,78,147,1,komisch,images/br_komisch.png,images/cb_komisch.png,0,,,,,,,,,,,,,,,,,,,,,,
,,,,,,00053 ,2023-10-19_20h04.29.277,vbt_B2_day2,2022.2.4,Linux x86_64,60.0060006,,,,,,,,,,,,,,,,,,,,,,,,,,,down,0,18.5489,,0.008470513,-0.140130149,1,0,0,2.4828,0,79,79,167,1,eenhoorn,images/br_eenhoorn.png,images/cb_eenhoorn.png,0,,,,,,,,,,,,,,,,,,,,,,
,,,,,,00053 ,2023-10-19_20h04.29.277,vbt_B2_day2,2022.2.4,Linux x86_64,60.0060006,,,,,,,,,,,,,,,,,,,,,,,,,,,down,0,0.8041,,0.008286941,-0.139762927,1,0,0,0.4338,0,80,80,29,1,baas,images/br_baas.png,images/cb_baas.png,0,,,,,,,,,,,,,,,,,,,,,,
,,,,,,00053 ,2023-10-19_20h04.29.277,vbt_B2_day2,2022.2.4,Linux x86_64,60.0060006,,,,,,,,,,,,,,,,,,,,,,,,,,,down,0,3.7879,,0.008286941,-0.139762927,1,0,0,0.7844,0,81,81,45,1,piste,images/br_piste.png,images/cb_piste.png,0,,,,,,,,,,,,,,,,,,,,,,
,,,,,,00053 ,2023-10-19_20h04.29.277,vbt_B2_day2,2022.2.4,Linux x86_64,60.0060006,,,,,,,,,,,,,,,,,,,,,,,,,,,down,0,4.2826,,-0.001564833,-0.153708061,1,0,0,0.5838,0,82,82,170,1,schatten,images/br_schatten.png,images/cb_schatten.png,0,,,,,,,,,,,,,,,,,,,,,,
,,,,,,00053 ,2023-10-19_20h04.29.277,vbt_B2_day2,2022.2.4,Linux x86_64,60.0060006,,,,,,,,,,,,,,,,,,,,,,,,,,,down,0,15.7134,,-0.001564833,-0.153708061,1,0,0,0.7834,0,83,83,187,1,opkijken,images/br_opkijken.png,images/cb_opkijken.png,0,,,,,,,,,,,,,,,,,,,,,,
,,,,,,00053 ,2023-10-19_20h04.29.277,vbt_B2_day2,2022.2.4,Linux x86_64,60.0060006,,,,,,,,,,,,,,,,,,,,,,,,,,,down,0,1.3718,,-0.001564833,-0.153708061,1,0,0,0.4993,0,84,84,50,1,stoom,images/br_stoom.png,images/cb_stoom.png,0,,,,,,,,,,,,,,,,,,,,,,
,,,,,,00053 ,2023-10-19_20h04.29.277,vbt_B2_day2,2022.2.4,Linux x86_64,60.0060006,,,,,,,,,,,,,,,,,,,,,,,,,,,down,0,15.7155,,0.003726954,-0.110566507,1,0,0,2.5827,0,85,85,110,1,zuster,images/br_zuster.png,images/cb_zuster.png,0,,,,,,,,,,,,,,,,,,,,,,
,,,,,,00053 ,2023-10-19_20h04.29.277,vbt_B2_day2,2022.2.4,Linux x86_64,60.0060006,,,,,,,,,,,,,,,,,,,,,,,,,,,down,0,3.3851,,0.003726954,-0.110566507,1,0,0,0.6331,0,86,86,3,1,mand,images/br_mand.png,images/cb_mand.png,0,,,,,,,,,,,,,,,,,,,,,,
,,,,,,00053 ,2023-10-19_20h04.29.277,vbt_B2_day2,2022.2.4,Linux x86_64,60.0060006,,,,,,,,,,,,,,,,,,,,,,,,,,,down,0,21.1467,,-0.017990676,-0.103577749,1,0,0,10.3657,0,87,87,135,1,gedicht,images/br_gedicht.png,images/cb_gedicht.png,0,,,,,,,,,,,,,,,,,,,,,,
,,,,,,00053 ,2023-10-19_20h04.29.277,vbt_B2_day2,2022.2.4,Linux x86_64,60.0060006,,,,,,,,,,,,,,,,,,,,,,,,,,,down,0,27.4788,,0.117131052,-0.134386741,1,0,0,7.1501,0,88,88,175,1,heengaan,images/br_heengaan.png,images/cb_heengaan.png,0,,,,,,,,,,,,,,,,,,,,,,
,,,,,,00053 ,2023-10-19_20h04.29.277,vbt_B2_day2,2022.2.4,Linux x86_64,60.0060006,,,,,,,,,,,,,,,,,,,,,,,,,,,down,0,4.09,,0.100540142,-0.114628961,1,0,0,1.8204,0,89,89,177,1,maaltijd,images/br_maaltijd.png,images/cb_maaltijd.png,1,maaltijd,,,,,,,,,,,,,,,,,,,,,
,,,,,,00053 ,2023-10-19_20h04.29.277,vbt_B2_day2,2022.2.4,Linux x86_64,60.0060006,,,,,,,,,,,,,,,,,,,,,,,,,,,down,0,5.9359,,0.005656054,-0.165368575,1,0,0,2.1825,0,90,90,56,1,traag,images/br_traag.png,images/cb_traag.png,1,traag,,,,,,,,,,,,,,,,,,,,,
,,,,,,00053 ,2023-10-19_20h04.29.277,vbt_B2_day2,2022.2.4,Linux x86_64,60.0060006,,,,,,,,,,,,,,,,,,,,,,,,,,,down,0,9.5347,,-0.022053129,-0.167364774,1,0,0,0.9498,0,91,91,106,1,zingen,images/br_zingen.png,images/cb_zingen.png,0,,,,,,,,,,,,,,,,,,,,,,
,,,,,,00053 ,2023-10-19_20h04.29.277,vbt_B2_day2,2022.2.4,Linux x86_64,60.0060006,,,,,,,,,,,,,,,,,,,,,,,,,,,down,0,4.8713,,-0.079421822,-0.141593671,1,0,0,0.7831,0,92,92,182,1,bijkomen,images/br_bijkomen.png,images/cb_bijkomen.png,0,,,,,,,,,,,,,,,,,,,,,,
,,,,,,00053 ,2023-10-19_20h04.29.277,vbt_B2_day2,2022.2.4,Linux x86_64,60.0060006,,,,,,,,,,,,,,,,,,,,,,,,,,,down,0,17.2481,,0.07250891,-0.183810522,1,0,0,0.735,0,93,93,143,1,hechten,images/br_hechten.png,images/cb_hechten.png,0,,,,,,,,,,,,,,,,,,,,,,
,,,,,,00053 ,2023-10-19_20h04.29.277,vbt_B2_day2,2022.2.4,Linux x86_64,60.0060006,,,,,,,,,,,,,,,,,,,,,,,,,,,down,0,32.2977,,-0.004058799,-0.153126633,1,0,0,1.5999,0,94,94,145,1,invloed,images/br_invloed.png,images/cb_invloed.png,0,,,,,,,,,,,,,,,,,,,,,,
,,,,,,00053 ,2023-10-19_20h04.29.277,vbt_B2_day2,2022.2.4,Linux x86_64,60.0060006,,,,,,,,,,,,,,,,,,,,,,,,,,,down,0,7.915,,0.068217478,-0.102930504,1,0,0,3.6839,0,95,95,124,1,bloeien,images/br_bloeien.png,images/cb_bloeien.png,0,,,,,,,,,,,,,,,,,,,,,,
,,,,,,00053 ,2023-10-19_20h04.29.277,vbt_B2_day2,2022.2.4,Linux x86_64,60.0060006,,,,,,,,,,,,,,,,,,,,,,,,,,,down,0,5.7009,,0.033911444,-0.095679411,1,0,0,0.7669,0,96,96,141,1,knielen,images/br_knielen.png,images/cb_knielen.png,0,,,,,,,,,,,,,,,,,,,,,,
,,,,,,00053 ,2023-10-19_20h04.29.277,vbt_B2_day2,2022.2.4,Linux x86_64,60.0060006,,,,,,,,,,,,,,,,,,,,,,,,,,,down,0,2.0339,,0.032442635,-0.094394096,1,0,0,0.6832,0,97,97,49,1,laken,images/br_laken.png,images/cb_laken.png,0,,,,,,,,,,,,,,,,,,,,,,
,,,,,,00053 ,2023-10-19_20h04.29.277,vbt_B2_day2,2022.2.4,Linux x86_64,60.0060006,,,,,,,,,,,,,,,,,,,,,,,,,,,down,0,6.4843,,0.031891686,-0.092190727,1,0,0,0.5505,0,98,98,155,1,gerucht,images/br_gerucht.png,images/cb_gerucht.png,0,,,,,,,,,,,,,,,,,,,,,,
,,,,,,00053 ,2023-10-19_20h04.29.277,vbt_B2_day2,2022.2.4,Linux x86_64,60.0060006,,,,,,,,,,,,,,,,,,,,,,,,,,,down,0,2.9703,,0.096570291,-0.130750989,1,0,0,19.5136,0,99,99,119,1,liefje,images/br_liefje.png,images/cb_liefje.png,0,,,,,,,,,,,,,,,,,,,,,,
,,,,,,00053 ,2023-10-19_20h04.29.277,vbt_B2_day2,2022.2.4,Linux x86_64,60.0060006,,,,,,,,,,,,,,,,,,,,,,,,,,,down,0,13.9655,,0.096570291,-0.130750989,1,0,0,3.6162,0,100,100,130,1,keihard,images/br_keihard.png,images/cb_keihard.png,0,,,,,,,,,,,,,,,,,,,,,,
,,,,,,00053 ,2023-10-19_20h04.29.277,vbt_B2_day2,2022.2.4,Linux x86_64,60.0060006,,,,,,,,,,,,,,,,,,,,,,,,,,,down,0,4.3846,,0.096570291,-0.130750989,1,0,0,0.4496,0,101,101,188,1,strekken,images/br_strekken.png,images/cb_strekken.png,0,,,,,,,,,,,,,,,,,,,,,,
,,,,,,00053 ,2023-10-19_20h04.29.277,vbt_B2_day2,2022.2.4,Linux x86_64,60.0060006,,,,,,,,,,,,,,,,,,,,,,,,,,,down,0,8.9841,,0.042106094,-0.091753723,1,0,0,1.1498,0,102,102,14,1,rijp,images/br_rijp.png,images/cb_rijp.png,0,,,,,,,,,,,,,,,,,,,,,,
,,,,,,00053 ,2023-10-19_20h04.29.277,vbt_B2_day2,2022.2.4,Linux x86_64,60.0060006,,,,,,,,,,,,,,,,,,,,,,,,,,,down,0,3.2223,,0.042106094,-0.091753723,1,0,0,0.4497,0,103,103,115,1,kleren,images/br_kleren.png,images/cb_kleren.png,0,,,,,,,,,,,,,,,,,,,,,,
,,,,,,00053 ,2023-10-19_20h04.29.277,vbt_B2_day2,2022.2.4,Linux x86_64,60.0060006,,,,,,,,,,,,,,,,,,,,,,,,,,,down,0,0.923,,0.042106094,-0.091753723,1,0,0,0.4992,0,104,104,89,1,slapen,images/br_slapen.png,images/cb_slapen.png,0,,,,,,,,,,,,,,,,,,,,,,
,,,,,,00053 ,2023-10-19_20h04.29.277,vbt_B2_day2,2022.2.4,Linux x86_64,60.0060006,,,,,,,,,,,,,,,,,,,,,,,,,,,down,0,0.8025,,0.042106094,-0.091753723,1,0,0,0.5343,0,105,105,41,1,maken,images/br_maken.png,images/cb_maken.png,0,,,,,,,,,,,,,,,,,,,,,,
,,,,,,00053 ,2023-10-19_20h04.29.277,vbt_B2_day2,2022.2.4,Linux x86_64,60.0060006,,,,,,,,,,,,,,,,,,,,,,,,,,,down,0,0.8995,,0.042106094,-0.091753723,1,0,0,0.4831,0,106,106,11,1,mode,images/br_mode.png,images/cb_mode.png,0,,,,,,,,,,,,,,,,,,,,,,
,,,,,,00053 ,2023-10-19_20h04.29.277,vbt_B2_day2,2022.2.4,Linux x86_64,60.0060006,,,,,,,,,,,,,,,,,,,,,,,,,,,down,0,6.2074,,0.040453557,-0.086428814,1,0,0,2.3292,0,107,107,93,1,waarop,images/br_waarop.png,images/cb_waarop.png,0,,,,,,,,,,,,,,,,,,,,,,
,,,,,,00053 ,2023-10-19_20h04.29.277,vbt_B2_day2,2022.2.4,Linux x86_64,60.0060006,,,,,,,,,,,,,,,,,,,,,,,,,,,down,0,9.2594,,0.002969885,-0.129729058,1,0,0,0.719,0,108,108,153,1,vervoer,images/br_vervoer.png,images/cb_vervoer.png,0,,,,,,,,,,,,,,,,,,,,,,
,,,,,,00053 ,2023-10-19_20h04.29.277,vbt_B2_day2,2022.2.4,Linux x86_64,60.0060006,,,,,,,,,,,,,,,,,,,,,,,,,,,down,0,3.7676,,0.003704406,-0.128260133,1,0,0,0.5334,0,109,109,73,1,volop,images/br_volop.png,images/cb_volop.png,0,,,,,,,,,,,,,,,,,,,,,,
,,,,,,00053 ,2023-10-19_20h04.29.277,vbt_B2_day2,2022.2.4,Linux x86_64,60.0060006,,,,,,,,,,,,,,,,,,,,,,,,,,,down,0,2.8676,,0.003704406,-0.128260133,1,0,0,0.4673,0,110,110,32,1,palm,images/br_palm.png,images/cb_palm.png,0,,,,,,,,,,,,,,,,,,,,,,
,,,,,,00053 ,2023-10-19_20h04.29.277,vbt_B2_day2,2022.2.4,Linux x86_64,60.0060006,,,,,,,,,,,,,,,,,,,,,,,,,,,down,0,29.7003,,0.060053229,-0.244567871,1,0,0,0.9976,0,111,111,178,1,huisdier,images/br_huisdier.png,images/cb_huisdier.png,1,huisdier,,,,,,,,,,,,,,,,,,,,,
,,,,,,00053 ,2023-10-19_20h04.29.277,vbt_B2_day2,2022.2.4,Linux x86_64,60.0060006,,,,,,,,,,,,,,,,,,,,,,,,,,,down,0,14.1246,,0.060603945,-0.242548113,1,0,0,0.6154,0,112,112,151,1,aanzoek,images/br_aanzoek.png,images/cb_aanzoek.png,0,,,,,,,,,,,,,,,,,,,,,,
,,,,,,00053 ,2023-10-19_20h04.29.277,vbt_B2_day2,2022.2.4,Linux x86_64,60.0060006,,,,,,,,,,,,,,,,,,,,,,,,,,,down,0,6.5986,,0.059869501,-0.241262798,1,0,0,0.6831,0,113,113,180,1,openbaar,images/br_openbaar.png,images/cb_openbaar.png,0,,,,,,,,,,,,,,,,,,,,,,
,,,,,,00053 ,2023-10-19_20h04.29.277,vbt_B2_day2,2022.2.4,Linux x86_64,60.0060006,,,,,,,,,,,,,,,,,,,,,,,,,,,down,0,1.9681,,0.059685852,-0.240711927,1,0,0,0.4825,0,114,114,113,1,koppen,images/br_koppen.png,images/cb_koppen.png,0,,,,,,,,,,,,,,,,,,,,,,
,,,,,,00053 ,2023-10-19_20h04.29.277,vbt_B2_day2,2022.2.4,Linux x86_64,60.0060006,,,,,,,,,,,,,,,,,,,,,,,,,,,down,0,4.1638,,0.058217043,-0.234652652,1,0,0,0.6668,0,115,115,198,1,bedoelen,images/br_bedoelen.png,images/cb_bedoelen.png,0,,,,,,,,,,,,,,,,,,,,,,
,,,,,,00053 ,2023-10-19_20h04.29.277,vbt_B2_day2,2022.2.4,Linux x86_64,60.0060006,,,,,,,,,,,,,,,,,,,,,,,,,,,down,0,5.2272,,-0.083592584,-0.24221759,1,0,0,0.8615,0,116,116,18,1,blik,images/br_blik.png,images/cb_blik.png,1,blik,,,,,,,,,,,,,,,,,,,,,
,,,,,,00053 ,2023-10-19_20h04.29.277,vbt_B2_day2,2022.2.4,Linux x86_64,60.0060006,,,,,,,,,,,,,,,,,,,,,,,,,,,down,0,4.4326,,-0.083592584,-0.24221759,1,0,0,0.4656,0,117,117,55,1,praat,images/br_praat.png,images/cb_praat.png,0,,,,,,,,,,,,,,,,,,,,,,
,,,,,,00053 ,2023-10-19_20h04.29.277,vbt_B2_day2,2022.2.4,Linux x86_64,60.0060006,,,,,,,,,,,,,,,,,,,,,,,,,,,down,0,8.3023,,-0.11181835,-0.234135447,1,0,0,0.8848,0,118,118,16,1,ziek,images/br_ziek.png,images/cb_ziek.png,1,ziek,,,,,,,,,,,,,,,,,,,,,
,,,,,,00053 ,2023-10-19_20h04.29.277,vbt_B2_day2,2022.2.4,Linux x86_64,60.0060006,,,,,,,,,,,,,,,,,,,,,,,,,,,down,0,2.5005,,-0.142484279,-0.233036581,1,0,0,1.284,0,119,119,66,1,lever,images/br_lever.png,images/cb_lever.png,0,,,,,,,,,,,,,,,,,,,,,,
,,,,,,00053 ,2023-10-19_20h04.29.277,vbt_B2_day2,2022.2.4,Linux x86_64,60.0060006,,,,,,,,,,,,,,,,,,,,,,,,,,,down,0,21.068,,0.023232702,-0.114243584,1,0,0,1.0657,0,120,120,162,1,uitdelen,images/br_uitdelen.png,images/cb_uitdelen.png,0,,,,,,,,,,,,,,,,,,,,,,
,,,,,,00053 ,2023-10-19_20h04.29.277,vbt_B2_day2,2022.2.4,Linux x86_64,60.0060006,,,,,,,,,,,,,,,,,,,,,,,,,,,down,0,20.2482,,0.023232702,-0.114243584,1,0,0,0.567,0,121,121,104,1,zweven,images/br_zweven.png,images/cb_zweven.png,0,,,,,,,,,,,,,,,,,,,,,,
,,,,,,00053 ,2023-10-19_20h04.29.277,vbt_B2_day2,2022.2.4,Linux x86_64,60.0060006,,,,,,,,,,,,,,,,,,,,,,,,,,,down,0,12.8022,,0.023232702,-0.114243584,1,0,0,0.4696,0,122,122,196,1,nakijken,images/br_nakijken.png,images/cb_nakijken.png,0,,,,,,,,,,,,,,,,,,,,,,
,,,,,,00053 ,2023-10-19_20h04.29.277,vbt_B2_day2,2022.2.4,Linux x86_64,60.0060006,,,,,,,,,,,,,,,,,,,,,,,,,,,down,0,3.3526,,0.023232702,-0.114243584,1,0,0,0.5005,0,123,123,169,1,oprotten,images/br_oprotten.png,images/cb_oprotten.png,0,,,,,,,,,,,,,,,,,,,,,,
,,,,,,00053 ,2023-10-19_20h04.29.277,vbt_B2_day2,2022.2.4,Linux x86_64,60.0060006,,,,,,,,,,,,,,,,,,,,,,,,,,,down,0,2.5833,,0.023232702,-0.114243584,1,0,0,0.5329,0,124,124,166,1,strikken,images/br_strikken.png,images/cb_strikken.png,0,,,,,,,,,,,,,,,,,,,,,,
,,,,,,00053 ,2023-10-19_20h04.29.277,vbt_B2_day2,2022.2.4,Linux x86_64,60.0060006,,,,,,,,,,,,,,,,,,,,,,,,,,,down,0,7.9178,,0.023232702,-0.114243584,1,0,0,0.4012,0,125,125,194,1,driemaal,images/br_driemaal.png,images/cb_driemaal.png,0,,,,,,,,,,,,,,,,,,,,,,
,,,,,,00053 ,2023-10-19_20h04.29.277,vbt_B2_day2,2022.2.4,Linux x86_64,60.0060006,,,,,,,,,,,,,,,,,,,,,,,,,,,down,0,4.2679,,0.023232702,-0.114243584,1,0,0,0.6353,0,126,126,31,1,poes,images/br_poes.png,images/cb_poes.png,0,,,,,,,,,,,,,,,,,,,,,,
,,,,,,00053 ,2023-10-19_20h04.29.277,vbt_B2_day2,2022.2.4,Linux x86_64,60.0060006,,,,,,,,,,,,,,,,,,,,,,,,,,,down,0,5.4333,,0.023232702,-0.114243584,1,0,0,0.4673,0,127,127,24,1,jurk,images/br_jurk.png,images/cb_jurk.png,0,,,,,,,,,,,,,,,,,,,,,,
,,,,,,00053 ,2023-10-19_20h04.29.277,vbt_B2_day2,2022.2.4,Linux x86_64,60.0060006,,,,,,,,,,,,,,,,,,,,,,,,,,,down,0,7.0206,,0.023232702,-0.114243584,1,0,0,0.6511,0,128,128,43,1,klauw,images/br_klauw.png,images/cb_klauw.png,0,,,,,,,,,,,,,,,,,,,,,,
,,,,,,00053 ,2023-10-19_20h04.29.277,vbt_B2_day2,2022.2.4,Linux x86_64,60.0060006,,,,,,,,,,,,,,,,,,,,,,,,,,,down,0,9.0666,,0.023232702,-0.114243584,1,0,0,0.4991,0,129,129,172,1,weigeren,images/br_weigeren.png,images/cb_weigeren.png,0,,,,,,,,,,,,,,,,,,,,,,
,,,,,,00053 ,2023-10-19_20h04.29.277,vbt_B2_day2,2022.2.4,Linux x86_64,60.0060006,,,,,,,,,,,,,,,,,,,,,,,,,,,down,0,2.4672,,-0.014458723,-0.150194107,1,0,0,3.7673,0,130,130,30,1,uien,images/br_uien.png,images/cb_uien.png,0,,,,,,,,,,,,,,,,,,,,,,
,,,,,,00053 ,2023-10-19_20h04.29.277,vbt_B2_day2,2022.2.4,Linux x86_64,60.0060006,,,,,,,,,,,,,,,,,,,,,,,,,,,down,0,12.4324,,-0.014458723,-0.150194107,1,0,0,1.1532,0,131,131,159,1,sufferd,images/br_sufferd.png,images/cb_sufferd.png,0,,,,,,,,,,,,,,,,,,,,,,
,,,,,,00053 ,2023-10-19_20h04.29.277,vbt_B2_day2,2022.2.4,Linux x86_64,60.0060006,,,,,,,,,,,,,,,,,,,,,,,,,,,down,0,5.4266,,-0.067501306,-0.139777117,1,0,0,0.8675,0,132,132,139,1,stiekem,images/br_stiekem.png,images/cb_stiekem.png,1,stiekem,,,,,,,,,,,,,,,,,,,,,
,,,,,,00053 ,2023-10-19_20h04.29.277,vbt_B2_day2,2022.2.4,Linux x86_64,60.0060006,,,,,,,,,,,,,,,,,,,,,,,,,,,down,0,5.4844,,-0.140648792,-0.114358229,1,0,0,1.0857,0,133,133,37,1,mijn,images/br_mijn.png,images/cb_mijn.png,0,,,,,,,,,,,,,,,,,,,,,,
,,,,,,00053 ,2023-10-19_20h04.29.277,vbt_B2_day2,2022.2.4,Linux x86_64,60.0060006,,,,,,,,,,,,,,,,,,,,,,,,,,,down,0,5.6661,,-0.141199663,-0.11454184,1,0,0,0.5671,0,134,134,192,1,schaamte,images/br_schaamte.png,images/cb_schaamte.png,0,,,,,,,,,,,,,,,,,,,,,,
,,,,,,00053 ,2023-10-19_20h04.29.277,vbt_B2_day2,2022.2.4,Linux x86_64,60.0060006,,,,,,,,,,,,,,,,,,,,,,,,,,,down,0,2.6186,,-0.141199663,-0.11454184,1,0,0,0.4016,0,135,135,25,1,plek,images/br_plek.png,images/cb_plek.png,0,,,,,,,,,,,,,,,,,,,,,,
,,,,,,00053 ,2023-10-19_20h04.29.277,vbt_B2_day2,2022.2.4,Linux x86_64,60.0060006,,,,,,,,,,,,,,,,,,,,,,,,,,,down,0,2.6326,,-0.141199663,-0.11454184,1,0,0,0.4499,0,136,136,2,1,jaar,images/br_jaar.png,images/cb_jaar.png,0,,,,,,,,,,,,,,,,,,,,,,
,,,,,,00053 ,2023-10-19_20h04.29.277,vbt_B2_day2,2022.2.4,Linux x86_64,60.0060006,,,,,,,,,,,,,,,,,,,,,,,,,,,down,0,4.0313,,-0.141199663,-0.11454184,1,0,0,0.4501,0,137,137,68,1,schat,images/br_schat.png,images/cb_schat.png,0,,,,,,,,,,,,,,,,,,,,,,
,,,,,,00053 ,2023-10-19_20h04.29.277,vbt_B2_day2,2022.2.4,Linux x86_64,60.0060006,,,,,,,,,,,,,,,,,,,,,,,,,,,down,0,7.5005,,-0.142852122,-0.11454184,1,0,0,0.6833,0,138,138,92,1,geheim,images/br_geheim.png,images/cb_geheim.png,0,,,,,,,,,,,,,,,,,,,,,,
,,,,,,00053 ,2023-10-19_20h04.29.277,vbt_B2_day2,2022.2.4,Linux x86_64,60.0060006,,,,,,,,,,,,,,,,,,,,,,,,,,,down,0,2.7676,,-0.142852122,-0.11454184,1,0,0,0.8006,0,139,139,4,1,moes,images/br_moes.png,images/cb_moes.png,0,,,,,,,,,,,,,,,,,,,,,,
,,,,,,00053 ,2023-10-19_20h04.29.277,vbt_B2_day2,2022.2.4,Linux x86_64,60.0060006,,,,,,,,,,,,,,,,,,,,,,,,,,,down,0,14.8169,,-0.142167285,-0.109882253,1,0,0,0.7559,0,140,140,137,1,trekker,images/br_trekker.png,images/cb_trekker.png,1,trekker,,,,,,,,,,,,,,,,,,,,,
,,,,,,00053 ,2023-10-19_20h04.29.277,vbt_B2_day2,2022.2.4,Linux x86_64,60.0060006,,,,,,,,,,,,,,,,,,,,,,,,,,,down,0,16.318,,-0.021461127,-0.115597748,1,0,0,2.0494,0,141,141,23,1,zout,images/br_zout.png,images/cb_zout.png,0,,,,,,,,,,,,,,,,,,,,,,
,,,,,,00053 ,2023-10-19_20h04.29.277,vbt_B2_day2,2022.2.4,Linux x86_64,60.0060006,,,,,,,,,,,,,,,,,,,,,,,,,,,down,0,12.5019,,-0.09511089,-0.096252247,1,0,0,2.9495,0,142,142,103,1,joggen,images/br_joggen.png,images/cb_joggen.png,0,,,,,,,,,,,,,,,,,,,,,,
,,,,,,00053 ,2023-10-19_20h04.29.277,vbt_B2_day2,2022.2.4,Linux x86_64,60.0060006,,,,,,,,,,,,,,,,,,,,,,,,,,,down,0,4.9843,,-0.09511089,-0.096252247,1,0,0,0.4663,0,143,143,1,1,zaal,images/br_zaal.png,images/cb_zaal.png,0,,,,,,,,,,,,,,,,,,,,,,
,,,,,,00053 ,2023-10-19_20h04.29.277,vbt_B2_day2,2022.2.4,Linux x86_64,60.0060006,,,,,,,,,,,,,,,,,,,,,,,,,,,down,0,5.1523,,-0.09511089,-0.096252247,1,0,0,0.4499,0,144,144,76,1,afval,images/br_afval.png,images/cb_afval.png,0,,,,,,,,,,,,,,,,,,,,,,
,,,,,,00053 ,2023-10-19_20h04.29.277,vbt_B2_day2,2022.2.4,Linux x86_64,60.0060006,,,,,,,,,,,,,,,,,,,,,,,,,,,down,0,3.654,,-0.032389764,-0.125606969,1,0,0,0.8488,0,145,145,19,1,geit,images/br_geit.png,images/cb_geit.png,1,geit,,,,,,,,,,,,,,,,,,,,,
,,,,,,00053 ,2023-10-19_20h04.29.277,vbt_B2_day2,2022.2.4,Linux x86_64,60.0060006,,,,,,,,,,,,,,,,,,,,,,,,,,,down,0,16.6674,,-0.032389764,-0.125606969,1,0,0,0.6163,0,146,146,79,1,nodig,images/br_nodig.png,images/cb_nodig.png,0,,,,,,,,,,,,,,,,,,,,,,
,,,,,,00053 ,2023-10-19_20h04.29.277,vbt_B2_day2,2022.2.4,Linux x86_64,60.0060006,,,,,,,,,,,,,,,,,,,,,,,,,,,down,0,4.7973,,-0.032389764,-0.125239748,1,0,0,0.602,0,147,147,64,1,wegen,images/br_wegen.png,images/cb_wegen.png,0,,,,,,,,,,,,,,,,,,,,,,
,,,,,,00053 ,2023-10-19_20h04.29.277,vbt_B2_day2,2022.2.4,Linux x86_64,60.0060006,,,,,,,,,,,,,,,,,,,,,,,,,,,down,0,2.5041,,-0.032389764,-0.125239748,1,0,0,0.4666,0,148,148,69,1,waken,images/br_waken.png,images/cb_waken.png,0,,,,,,,,,,,,,,,,,,,,,,
,,,,,,00053 ,2023-10-19_20h04.29.277,vbt_B2_day2,2022.2.4,Linux x86_64,60.0060006,,,,,,,,,,,,,,,,,,,,,,,,,,,down,0,3.1534,,-0.032389764,-0.123954433,1,0,0,0.5835,0,149,149,132,1,grappen,images/br_grappen.png,images/cb_grappen.png,0,,,,,,,,,,,,,,,,,,,,,,
,,,,,,00053 ,2023-10-19_20h04.29.277,vbt_B2_day2,2022.2.4,Linux x86_64,60.0060006,,,,,,,,,,,,,,,,,,,,,,,,,,,down,0,12.9458,,-0.032389764,-0.123954433,1,0,0,0.5335,0,150,150,60,1,jasje,images/br_jasje.png,images/cb_jasje.png,0,,,,,,,,,,,,,,,,,,,,,,
,,,,,,00053 ,2023-10-19_20h04.29.277,vbt_B2_day2,2022.2.4,Linux x86_64,60.0060006,,,,,,,,,,,,,,,,,,,,,,,,,,,down,0,4.9519,,-0.032389764,-0.123954433,1,0,0,0.6666,0,151,151,9,1,hier,images/br_hier.png,images/cb_hier.png,0,,,,,,,,,,,,,,,,,,,,,,
,,,,,,00053 ,2023-10-19_20h04.29.277,vbt_B2_day2,2022.2.4,Linux x86_64,60.0060006,,,,,,,,,,,,,,,,,,,,,,,,,,,down,0,2.9018,,-0.032389764,-0.123954433,1,0,0,0.4334,0,152,152,148,1,smullen,images/br_smullen.png,images/cb_smullen.png,0,,,,,,,,,,,,,,,,,,,,,,
,,,,,,00053 ,2023-10-19_20h04.29.277,vbt_B2_day2,2022.2.4,Linux x86_64,60.0060006,,,,,,,,,,,,,,,,,,,,,,,,,,,down,0,12.6022,,-0.032389764,-0.123954433,1,0,0,0.5743,0,153,153,27,1,dans,images/br_dans.png,images/cb_dans.png,0,,,,,,,,,,,,,,,,,,,,,,
,,,,,,00053 ,2023-10-19_20h04.29.277,vbt_B2_day2,2022.2.4,Linux x86_64,60.0060006,,,,,,,,,,,,,,,,,,,,,,,,,,,down,0,6.6641,,-0.032389764,-0.123954433,1,0,0,0.4668,0,154,154,67,1,zwart,images/br_zwart.png,images/cb_zwart.png,0,,,,,,,,,,,,,,,,,,,,,,
,,,,,,00053 ,2023-10-19_20h04.29.277,vbt_B2_day2,2022.2.4,Linux x86_64,60.0060006,,,,,,,,,,,,,,,,,,,,,,,,,,,down,0,3.2476,,-0.032389764,-0.123954433,1,0,0,0.401,0,155,155,6,1,diep,images/br_diep.png,images/cb_diep.png,0,,,,,,,,,,,,,,,,,,,,,,
,,,,,,00053 ,2023-10-19_20h04.29.277,vbt_B2_day2,2022.2.4,Linux x86_64,60.0060006,,,,,,,,,,,,,,,,,,,,,,,,,,,down,0,3.5893,,-0.032022542,-0.123403561,1,0,0,1.2664,0,156,156,163,1,schuilen,images/br_schuilen.png,images/cb_schuilen.png,0,,,,,,,,,,,,,,,,,,,,,,
,,,,,,00053 ,2023-10-19_20h04.29.277,vbt_B2_day2,2022.2.4,Linux x86_64,60.0060006,,,,,,,,,,,,,,,,,,,,,,,,,,,down,0,4.3174,,-0.032022542,-0.123403561,1,0,0,0.45,0,157,157,65,1,parel,images/br_parel.png,images/cb_parel.png,0,,,,,,,,,,,,,,,,,,,,,,
,,,,,,00053 ,2023-10-19_20h04.29.277,vbt_B2_day2,2022.2.4,Linux x86_64,60.0060006,,,,,,,,,,,,,,,,,,,,,,,,,,,down,0,6.0339,,-0.032022542,-0.123403561,1,0,0,0.5149,0,158,158,125,1,aanzien,images/br_aanzien.png,images/cb_aanzien.png,0,,,,,,,,,,,,,,,,,,,,,,
,,,,,,00053 ,2023-10-19_20h04.29.277,vbt_B2_day2,2022.2.4,Linux x86_64,60.0060006,,,,,,,,,,,,,,,,,,,,,,,,,,,down,0,6.7362,,-0.032022542,-0.123403561,1,0,0,1.1333,0,159,159,86,1,woning,images/br_woning.png,images/cb_woning.png,0,,,,,,,,,,,,,,,,,,,,,,
,,,,,,00053 ,2023-10-19_20h04.29.277,vbt_B2_day2,2022.2.4,Linux x86_64,60.0060006,,,,,,,,,,,,,,,,,,,,,,,,,,,down,0,2.0199,,-0.032022542,-0.123403561,1,0,0,0.4832,0,160,160,42,1,bleek,images/br_bleek.png,images/cb_bleek.png,0,,,,,,,,,,,,,,,,,,,,,,
,,,,,,00053 ,2023-10-19_20h04.29.277,vbt_B2_day2,2022.2.4,Linux x86_64,60.0060006,,,,,,,,,,,,,,,,,,,,,,,,,,,down,0,2.7499,,-0.032022542,-0.123403561,1,0,0,0.4498,0,161,161,144,1,eetlust,images/br_eetlust.png,images/cb_eetlust.png,0,,,,,,,,,,,,,,,,,,,,,,
,,,,,,00053 ,2023-10-19_20h04.29.277,vbt_B2_day2,2022.2.4,Linux x86_64,60.0060006,,,,,,,,,,,,,,,,,,,,,,,,,,,down,0,1.5533,,-0.032022542,-0.123403561,1,0,0,0.4837,0,162,162,40,1,schep,images/br_schep.png,images/cb_schep.png,0,,,,,,,,,,,,,,,,,,,,,,
,,,,,,00053 ,2023-10-19_20h04.29.277,vbt_B2_day2,2022.2.4,Linux x86_64,60.0060006,,,,,,,,,,,,,,,,,,,,,,,,,,,down,0,2.9846,,-0.032022542,-0.123403561,1,0,0,0.55,0,163,163,71,1,bever,images/br_bever.png,images/cb_bever.png,0,,,,,,,,,,,,,,,,,,,,,,
,,,,,,00053 ,2023-10-19_20h04.29.277,vbt_B2_day2,2022.2.4,Linux x86_64,60.0060006,,,,,,,,,,,,,,,,,,,,,,,,,,,down,0,8.4161,,-0.032022542,-0.123403561,1,0,0,1.8673,0,164,164,111,1,ticket,images/br_ticket.png,images/cb_ticket.png,0,,,,,,,,,,,,,,,,,,,,,,
,,,,,,00053 ,2023-10-19_20h04.29.277,vbt_B2_day2,2022.2.4,Linux x86_64,60.0060006,,,,,,,,,,,,,,,,,,,,,,,,,,,down,0,1.384,,-0.032022542,-0.123403561,1,0,0,0.4503,0,165,165,102,1,legaal,images/br_legaal.png,images/cb_legaal.png,0,,,,,,,,,,,,,,,,,,,,,,
,,,,,,00053 ,2023-10-19_20h04.29.277,vbt_B2_day2,2022.2.4,Linux x86_64,60.0060006,,,,,,,,,,,,,,,,,,,,,,,,,,,down,0,4.2501,,-0.032022542,-0.123403561,1,0,0,0.4355,0,166,166,191,1,opheffen,images/br_opheffen.png,images/cb_opheffen.png,0,,,,,,,,,,,,,,,,,,,,,,
,,,,,,00053 ,2023-10-19_20h04.29.277,vbt_B2_day2,2022.2.4,Linux x86_64,60.0060006,,,,,,,,,,,,,,,,,,,,,,,,,,,down,0,12.8102,,-0.032022542,-0.123403561,1,0,0,0.4994,0,167,167,123,1,hiervan,images/br_hiervan.png,images/cb_hiervan.png,0,,,,,,,,,,,,,,,,,,,,,,
,,,,,,00053 ,2023-10-19_20h04.29.277,vbt_B2_day2,2022.2.4,Linux x86_64,60.0060006,,,,,,,,,,,,,,,,,,,,,,,,,,,down,0,7.115,,-0.032022542,-0.123403561,1,0,0,0.6506,0,168,168,94,1,oceaan,images/br_oceaan.png,images/cb_oceaan.png,0,,,,,,,,,,,,,,,,,,,,,,
,,,,,,00053 ,2023-10-19_20h04.29.277,vbt_B2_day2,2022.2.4,Linux x86_64,60.0060006,,,,,,,,,,,,,,,,,,,,,,,,,,,down,0,3.2823,,-0.06168625,-0.135988855,1,0,0,0.4684,0,169,169,197,1,spanning,images/br_spanning.png,images/cb_spanning.png,0,,,,,,,,,,,,,,,,,,,,,,
,,,,,,00053 ,2023-10-19_20h04.29.277,vbt_B2_day2,2022.2.4,Linux x86_64,60.0060006,,,,,,,,,,,,,,,,,,,,,,,,,,,down,0,1.5821,,-0.06168625,-0.135988855,1,0,0,0.5006,0,170,170,114,1,vullen,images/br_vullen.png,images/cb_vullen.png,0,,,,,,,,,,,,,,,,,,,,,,
,,,,,,00053 ,2023-10-19_20h04.29.277,vbt_B2_day2,2022.2.4,Linux x86_64,60.0060006,,,,,,,,,,,,,,,,,,,,,,,,,,,down,0,11.7136,,-0.061319028,-0.135805244,1,0,0,0.802,0,171,171,80,1,kanjer,images/br_kanjer.png,images/cb_kanjer.png,0,,,,,,,,,,,,,,,,,,,,,,
,,,,,,00053 ,2023-10-19_20h04.29.277,vbt_B2_day2,2022.2.4,Linux x86_64,60.0060006,,,,,,,,,,,,,,,,,,,,,,,,,,,down,0,1.3687,,0.040271074,-0.134422623,1,0,0,0.4683,0,172,172,28,1,stal,images/br_stal.png,images/cb_stal.png,0,,,,,,,,,,,,,,,,,,,,,,
,,,,,,00053 ,2023-10-19_20h04.29.277,vbt_B2_day2,2022.2.4,Linux x86_64,60.0060006,,,,,,,,,,,,,,,,,,,,,,,,,,,down,0,1.3304,,0.040271074,-0.134422623,1,0,0,0.5709,0,173,173,17,1,taal,images/br_taal.png,images/cb_taal.png,1,taal,,,,,,,,,,,,,,,,,,,,,
,,,,,,00053 ,2023-10-19_20h04.29.277,vbt_B2_day2,2022.2.4,Linux x86_64,60.0060006,,,,,,,,,,,,,,,,,,,,,,,,,,,down,0,4.0121,,0.040271074,-0.134422623,1,0,0,0.3992,0,174,174,62,1,knaap,images/br_knaap.png,images/cb_knaap.png,0,,,,,,,,,,,,,,,,,,,,,,
,,,,,,00053 ,2023-10-19_20h04.29.277,vbt_B2_day2,2022.2.4,Linux x86_64,60.0060006,,,,,,,,,,,,,,,,,,,,,,,,,,,down,0,2.0995,,0.042290754,-0.134789922,1,0,0,0.8828,0,175,175,21,1,mist,images/br_mist.png,images/cb_mist.png,0,,,,,,,,,,,,,,,,,,,,,,
,,,,,,00053 ,2023-10-19_20h04.29.277,vbt_B2_day2,2022.2.4,Linux x86_64,60.0060006,,,,,,,,,,,,,,,,,,,,,,,,,,,down,0,13.468,,0.042290754,-0.134789922,1,0,0,0.5157,0,176,176,156,1,rechten,images/br_rechten.png,images/cb_rechten.png,0,,,,,,,,,,,,,,,,,,,,,,
,,,,,,00053 ,2023-10-19_20h04.29.277,vbt_B2_day2,2022.2.4,Linux x86_64,60.0060006,,,,,,,,,,,,,,,,,,,,,,,,,,,down,0,2.7028,,0.042290754,-0.134789922,1,0,0,0.4668,0,177,177,0,1,slak,images/br_slak.png,images/cb_slak.png,0,,,,,,,,,,,,,,,,,,,,,,
,,,,,,00053 ,2023-10-19_20h04.29.277,vbt_B2_day2,2022.2.4,Linux x86_64,60.0060006,,,,,,,,,,,,,,,,,,,,,,,,,,,down,0,22.1029,,-0.024252494,-0.139680277,1,0,0,1.8161,0,178,178,161,1,attentie,images/br_attentie.png,images/cb_attentie.png,0,,,,,,,,,,,,,,,,,,,,,,
,,,,,,00053 ,2023-10-19_20h04.29.277,vbt_B2_day2,2022.2.4,Linux x86_64,60.0060006,,,,,,,,,,,,,,,,,,,,,,,,,,,down,0,1.5301,,-0.024252494,-0.139680277,1,0,0,0.4333,0,179,179,34,1,vorm,images/br_vorm.png,images/cb_vorm.png,0,,,,,,,,,,,,,,,,,,,,,,
,,,,,,00053 ,2023-10-19_20h04.29.277,vbt_B2_day2,2022.2.4,Linux x86_64,60.0060006,,,,,,,,,,,,,,,,,,,,,,,,,,,down,0,7.1841,,0.124996423,-0.14327933,1,0,0,8.0312,0,180,180,35,1,lust,images/br_lust.png,images/cb_lust.png,0,,,,,,,,,,,,,,,,,,,,,,
,,,,,,00053 ,2023-10-19_20h04.29.277,vbt_B2_day2,2022.2.4,Linux x86_64,60.0060006,,,,,,,,,,,,,,,,,,,,,,,,,,,down,0,6.9502,,0.124996423,-0.14327933,1,0,0,0.4997,0,181,181,173,1,apparaat,images/br_apparaat.png,images/cb_apparaat.png,0,,,,,,,,,,,,,,,,,,,,,,
,,,,,,00053 ,2023-10-19_20h04.29.277,vbt_B2_day2,2022.2.4,Linux x86_64,60.0060006,,,,,,,,,,,,,,,,,,,,,,,,,,,down,0,12.8703,,0.124996423,-0.14327933,1,0,0,0.5498,0,182,182,83,1,mening,images/br_mening.png,images/cb_mening.png,0,,,,,,,,,,,,,,,,,,,,,,
,,,,,,00053 ,2023-10-19_20h04.29.277,vbt_B2_day2,2022.2.4,Linux x86_64,60.0060006,,,,,,,,,,,,,,,,,,,,,,,,,,,down,0,3.564,,0.124996423,-0.14327933,1,0,0,0.5001,0,183,183,33,1,vlek,images/br_vlek.png,images/cb_vlek.png,0,,,,,,,,,,,,,,,,,,,,,,
,,,,,,00053 ,2023-10-19_20h04.29.277,vbt_B2_day2,2022.2.4,Linux x86_64,60.0060006,,,,,,,,,,,,,,,,,,,,,,,,,,,down,0,6.6678,,0.124996423,-0.14327933,1,0,0,0.4843,0,184,184,181,1,toegeven,images/br_toegeven.png,images/cb_toegeven.png,0,,,,,,,,,,,,,,,,,,,,,,
,,,,,,00053 ,2023-10-19_20h04.29.277,vbt_B2_day2,2022.2.4,Linux x86_64,60.0060006,,,,,,,,,,,,,,,,,,,,,,,,,,,down,0,4.1851,,0.124996423,-0.14327933,1,0,0,0.6332,0,185,185,152,1,afnemen,images/br_afnemen.png,images/cb_afnemen.png,0,,,,,,,,,,,,,,,,,,,,,,
,,,,,,00053 ,2023-10-19_20h04.29.277,vbt_B2_day2,2022.2.4,Linux x86_64,60.0060006,,,,,,,,,,,,,,,,,,,,,,,,,,,down,0,7.8992,,0.053405217,-0.126667465,1,0,0,1.5332,0,186,186,164,1,anarchie,images/br_anarchie.png,images/cb_anarchie.png,0,,,,,,,,,,,,,,,,,,,,,,
,,,,,,00053 ,2023-10-19_20h04.29.277,vbt_B2_day2,2022.2.4,Linux x86_64,60.0060006,,,,,,,,,,,,,,,,,,,,,,,,,,,down,0,5.8339,,0.053405217,-0.126667465,1,0,0,0.4681,0,187,187,157,1,uitlaat,images/br_uitlaat.png,images/cb_uitlaat.png,0,,,,,,,,,,,,,,,,,,,,,,
,,,,,,00053 ,2023-10-19_20h04.29.277,vbt_B2_day2,2022.2.4,Linux x86_64,60.0060006,,,,,,,,,,,,,,,,,,,,,,,,,,,down,0,4.9872,,0.053405217,-0.126667465,1,0,0,1.0482,0,188,188,99,1,koffie,images/br_koffie.png,images/cb_koffie.png,1,koffie,,,,,,,,,,,,,,,,,,,,,
,,,,,,00053 ,2023-10-19_20h04.29.277,vbt_B2_day2,2022.2.4,Linux x86_64,60.0060006,,,,,,,,,,,,,,,,,,,,,,,,,,,down,0,2.9671,,0.053405217,-0.126667465,1,0,0,0.4167,0,189,189,88,1,boeien,images/br_boeien.png,images/cb_boeien.png,0,,,,,,,,,,,,,,,,,,,,,,
,,,,,,00053 ,2023-10-19_20h04.29.277,vbt_B2_day2,2022.2.4,Linux x86_64,60.0060006,,,,,,,,,,,,,,,,,,,,,,,,,,,down,0,17.416,,0.053405217,-0.126667465,1,0,0,0.7833,0,190,190,193,1,weeshuis,images/br_weeshuis.png,images/cb_weeshuis.png,0,,,,,,,,,,,,,,,,,,,,,,
,,,,,,00053 ,2023-10-19_20h04.29.277,vbt_B2_day2,2022.2.4,Linux x86_64,60.0060006,,,,,,,,,,,,,,,,,,,,,,,,,,,down,0,4.8528,,-0.064270486,-0.076096611,1,0,0,1.0963,0,191,191,57,1,steek,images/br_steek.png,images/cb_steek.png,1,steek,,,,,,,,,,,,,,,,,,,,,
,,,,,,00053 ,2023-10-19_20h04.29.277,vbt_B2_day2,2022.2.4,Linux x86_64,60.0060006,,,,,,,,,,,,,,,,,,,,,,,,,,,down,0,3.2209,,-0.064270486,-0.076096611,1,0,0,0.5339,0,192,192,36,1,vuur,images/br_vuur.png,images/cb_vuur.png,0,,,,,,,,,,,,,,,,,,,,,,
,,,,,,00053 ,2023-10-19_20h04.29.277,vbt_B2_day2,2022.2.4,Linux x86_64,60.0060006,,,,,,,,,,,,,,,,,,,,,,,,,,,down,0,7.783,,-0.064270486,-0.076096611,1,0,0,0.6818,0,193,193,150,1,gegeven,images/br_gegeven.png,images/cb_gegeven.png,0,,,,,,,,,,,,,,,,,,,,,,
,,,,,,00053 ,2023-10-19_20h04.29.277,vbt_B2_day2,2022.2.4,Linux x86_64,60.0060006,,,,,,,,,,,,,,,,,,,,,,,,,,,down,0,6.1654,,-0.128202519,-0.073721372,1,0,0,1.7169,0,194,194,195,1,middelen,images/br_middelen.png,images/cb_middelen.png,0,,,,,,,,,,,,,,,,,,,,,,
,,,,,,00053 ,2023-10-19_20h04.29.277,vbt_B2_day2,2022.2.4,Linux x86_64,60.0060006,,,,,,,,,,,,,,,,,,,,,,,,,,,down,0,13.7529,,-0.128202519,-0.073721372,1,0,0,0.5176,0,195,195,118,1,vinger,images/br_vinger.png,images/cb_vinger.png,0,,,,,,,,,,,,,,,,,,,,,,
,,,,,,00053 ,2023-10-19_20h04.29.277,vbt_B2_day2,2022.2.4,Linux x86_64,60.0060006,,,,,,,,,,,,,,,,,,,,,,,,,,,down,0,5.7511,,-0.128202519,-0.073721372,1,0,0,0.5169,0,196,196,81,1,dubbel,images/br_dubbel.png,images/cb_dubbel.png,0,,,,,,,,,,,,,,,,,,,,,,
,,,,,,00053 ,2023-10-19_20h04.29.277,vbt_B2_day2,2022.2.4,Linux x86_64,60.0060006,,,,,,,,,,,,,,,,,,,,,,,,,,,down,0,5.5556,,-0.128202519,-0.073721372,1,0,0,0.5164,0,197,197,107,1,maling,images/br_maling.png,images/cb_maling.png,0,,,,,,,,,,,,,,,,,,,,,,
,,,,,,00053 ,2023-10-19_20h04.29.277,vbt_B2_day2,2022.2.4,Linux x86_64,60.0060006,,,,,,,,,,,,,,,,,,,,,,,,,,,down,0,6.4991,,-0.126917204,-0.07041626,1,0,0,0.7328,0,198,198,142,1,snuiven,images/br_snuiven.png,images/cb_snuiven.png,0,,,,,,,,,,,,,,,,,,,,,,
,,,,,,00053 ,2023-10-19_20h04.29.277,vbt_B2_day2,2022.2.4,Linux x86_64,60.0060006,,,,,,,,,,,,,,,,,,,,,,,,,,,down,0,4.4349,,-0.126917204,-0.07041626,1,0,0,0.5323,0,199,199,186,1,voorraad,images/br_voorraad.png,images/cb_voorraad.png,0,,,,,,,,,,,,,,,,,,,,,,
,,,,,,00053 ,2023-10-19_20h04.29.277,vbt_B2_day2,2022.2.4,Linux x86_64,60.0060006,,,,,,,,,,,,,,,,,,,,,,,,,,,,,,,,,,,,,,,,,,,,,,,0.146445499,-0.172810432,1,0,0,,,,,,,,,,,,,,,,
,,,,,,00053 ,2023-10-19_20h04.29.277,vbt_B2_day2,2022.2.4,Linux x86_64,60.0060006,,,,,,,,,,,,,,,,,,,,,,,,,,,,,,,,,,,,,,,,,,,,,,,,,,,,0.067711081,-0.160792571,1,0,0,,,,,,,,,,,
,,,,,,00053 ,2023-10-19_20h04.29.277,vbt_B2_day2,2022.2.4,Linux x86_64,60.0060006,,,,,,,,,,,,,,,,,,,,,,,,,,,,,,,,,,,,,,,,,,systeem,images/br_systeem.png,images/cb_systeem.png,,scs...,,,,,,,,,,,0.00845543,-0.146101642,1,0,0,scs...,0,0,0,54,1
,,,,,,00053 ,2023-10-19_20h04.29.277,vbt_B2_day2,2022.2.4,Linux x86_64,60.0060006,,,,,,,,,,,,,,,,,,,,,,,,,,,,,,,,,,,,,,,,,,agressie,images/br_agressie.png,images/cb_agressie.png,,agressie,,,,,,,,,,,-0.052689046,-0.110936062,1,0,0,agressie,0,1,1,59,1
,,,,,,00053 ,2023-10-19_20h04.29.277,vbt_B2_day2,2022.2.4,Linux x86_64,60.0060006,,,,,,,,,,,,,,,,,,,,,,,,,,,,,,,,,,,,,,,,,,kasteel,images/br_kasteel.png,images/cb_kasteel.png,,kasteel,,,,,,,,,,,-0.111067656,-0.110272528,1,0,0,kasteel,0,2,2,14,1
,,,,,,00053 ,2023-10-19_20h04.29.277,vbt_B2_day2,2022.2.4,Linux x86_64,60.0060006,,,,,,,,,,,,,,,,,,,,,,,,,,,,,,,,,,,,,,,,,,doodmoe,images/br_doodmoe.png,images/cb_doodmoe.png,,doodmoe,,,,,,,,,,,-0.111067656,-0.110272528,1,0,0,doodmoe,0,3,3,15,1
,,,,,,00053 ,2023-10-19_20h04.29.277,vbt_B2_day2,2022.2.4,Linux x86_64,60.0060006,,,,,,,,,,,,,,,,,,,,,,,,,,,,,,,,,,,,,,,,,,strikken,images/br_strikken.png,images/cb_strikken.png,,strikken,,,,,,,,,,,-0.326138792,-0.233986163,1,0,0,strikken,0,4,4,18,1
,,,,,,00053 ,2023-10-19_20h04.29.277,vbt_B2_day2,2022.2.4,Linux x86_64,60.0060006,,,,,,,,,,,,,,,,,,,,,,,,,,,,,,,,,,,,,,,,,,kijlen,images/br_kijlen.png,images/cb_kijlen.png,,wijlen,,,,,,,,,,,-0.165020013,-0.061864573,1,0,0,wijlen,0,5,5,31,1
,,,,,,00053 ,2023-10-19_20h04.29.277,vbt_B2_day2,2022.2.4,Linux x86_64,60.0060006,,,,,,,,,,,,,,,,,,,,,,,,,,,,,,,,,,,,,,,,,,welzijn,images/br_welzijn.png,images/cb_welzijn.png,,wilw,,,,,,,,,,,-0.169610401,-0.058008629,1,0,0,wilw,0,6,6,52,1
,,,,,,00053 ,2023-10-19_20h04.29.277,vbt_B2_day2,2022.2.4,Linux x86_64,60.0060006,,,,,,,,,,,,,,,,,,,,,,,,,,,,,,,,,,,,,,,,,,zomers,images/br_zomers.png,images/cb_zomers.png,,zomer,,,,,,,,,,,-0.169610401,-0.058008629,1,0,0,zomer,0,7,7,48,1
,,,,,,00053 ,2023-10-19_20h04.29.277,vbt_B2_day2,2022.2.4,Linux x86_64,60.0060006,,,,,,,,,,,,,,,,,,,,,,,,,,,,,,,,,,,,,,,,,,lokken,images/br_lokken.png,images/cb_lokken.png,,lokken,,,,,,,,,,,-0.169610401,-0.058008629,1,0,0,lokken,0,8,8,8,1
,,,,,,00053 ,2023-10-19_20h04.29.277,vbt_B2_day2,2022.2.4,Linux x86_64,60.0060006,,,,,,,,,,,,,,,,,,,,,,,,,,,,,,,,,,,,,,,,,,stes,images/br_stes.png,images/cb_stes.png,,stes,,,,,,,,,,,-0.169610401,-0.057274147,1,0,0,stes,0,9,9,21,1
,,,,,,00053 ,2023-10-19_20h04.29.277,vbt_B2_day2,2022.2.4,Linux x86_64,60.0060006,,,,,,,,,,,,,,,,,,,,,,,,,,,,,,,,,,,,,,,,,,heengeen,images/br_heengeen.png,images/cb_heengeen.png,,heengeen,,,,,,,,,,,-0.245662383,-0.045694184,1,0,0,heengeen,0,10,10,38,1
,,,,,,00053 ,2023-10-19_20h04.29.277,vbt_B2_day2,2022.2.4,Linux x86_64,60.0060006,,,,,,,,,,,,,,,,,,,,,,,,,,,,,,,,,,,,,,,,,,dode,images/br_dode.png,images/cb_dode.png,,dode,,,,,,,,,,,-0.245662383,-0.045694184,1,0,0,dode,0,11,11,41,1
,,,,,,00053 ,2023-10-19_20h04.29.277,vbt_B2_day2,2022.2.4,Linux x86_64,60.0060006,,,,,,,,,,,,,,,,,,,,,,,,,,,,,,,,,,,,,,,,,,bereuwen,images/br_bereuwen.png,images/cb_bereuwen.png,,bereu..,,,,,,,,,,,-0.245662383,-0.045694184,1,0,0,bereu..,0,12,12,39,1
,,,,,,00053 ,2023-10-19_20h04.29.277,vbt_B2_day2,2022.2.4,Linux x86_64,60.0060006,,,,,,,,,,,,,,,,,,,,,,,,,,,,,,,,,,,,,,,,,,heilig,images/br_heilig.png,images/cb_heilig.png,,heilin,,,,,,,,,,,-0.245662383,-0.045694184,1,0,0,heilin,0,13,13,9,1
,,,,,,00053 ,2023-10-19_20h04.29.277,vbt_B2_day2,2022.2.4,Linux x86_64,60.0060006,,,,,,,,,,,,,,,,,,,,,,,,,,,,,,,,,,,,,,,,,,feestdag,images/br_feestdag.png,images/cb_feestdag.png,,feestdag,,,,,,,,,,,-0.245662383,-0.045694184,1,0,0,feestdag,0,14,14,17,1
,,,,,,00053 ,2023-10-19_20h04.29.277,vbt_B2_day2,2022.2.4,Linux x86_64,60.0060006,,,,,,,,,,,,,,,,,,,,,,,,,,,,,,,,,,,,,,,,,,zwager,images/br_zwager.png,images/cb_zwager.png,,zw...,,,,,,,,,,,-0.311769133,-0.056770743,1,0,0,zw...,0,15,15,49,1
,,,,,,00053 ,2023-10-19_20h04.29.277,vbt_B2_day2,2022.2.4,Linux x86_64,60.0060006,,,,,,,,,,,,,,,,,,,,,,,,,,,,,,,,,,,,,,,,,,koorts,images/br_koorts.png,images/cb_koorts.png,,koorts,,,,,,,,,,,-0.39341213,-0.029067118,1,0,0,koorts,0,16,16,50,1
,,,,,,00053 ,2023-10-19_20h04.29.277,vbt_B2_day2,2022.2.4,Linux x86_64,60.0060006,,,,,,,,,,,,,,,,,,,,,,,,,,,,,,,,,,,,,,,,,,kabel,images/br_kabel.png,images/cb_kabel.png,,kabel,,,,,,,,,,,-0.39359574,-0.028332636,1,0,0,kabel,0,17,17,7,1
,,,,,,00053 ,2023-10-19_20h04.29.277,vbt_B2_day2,2022.2.4,Linux x86_64,60.0060006,,,,,,,,,,,,,,,,,,,,,,,,,,,,,,,,,,,,,,,,,,sora,images/br_sora.png,images/cb_sora.png,,sora,,,,,,,,,,,-0.394697444,-0.028332636,1,0,0,sora,0,18,18,22,1
,,,,,,00053 ,2023-10-19_20h04.29.277,vbt_B2_day2,2022.2.4,Linux x86_64,60.0060006,,,,,,,,,,,,,,,,,,,,,,,,,,,,,,,,,,,,,,,,,,geld,images/br_geld.png,images/cb_geld.png,,geld,,,,,,,,,,,-0.394697444,-0.028332636,1,0,0,geld,0,19,19,3,1
,,,,,,00053 ,2023-10-19_20h04.29.277,vbt_B2_day2,2022.2.4,Linux x86_64,60.0060006,,,,,,,,,,,,,,,,,,,,,,,,,,,,,,,,,,,,,,,,,,eenhoorn,images/br_eenhoorn.png,images/cb_eenhoorn.png,,eend..,,,,,,,,,,,-0.394697444,-0.028332636,1,0,0,eend..,0,20,20,19,1
,,,,,,00053 ,2023-10-19_20h04.29.277,vbt_B2_day2,2022.2.4,Linux x86_64,60.0060006,,,,,,,,,,,,,,,,,,,,,,,,,,,,,,,,,,,,,,,,,,anarchie,images/br_anarchie.png,images/cb_anarchie.png,,anarchist,,,,,,,,,,,-0.394697444,-0.028332636,1,0,0,anarchist,0,21,21,16,1
,,,,,,00053 ,2023-10-19_20h04.29.277,vbt_B2_day2,2022.2.4,Linux x86_64,60.0060006,,,,,,,,,,,,,,,,,,,,,,,,,,,,,,,,,,,,,,,,,,aanzien,images/br_aanzien.png,images/cb_aanzien.png,,aanzien,,,,,,,,,,,-0.394697444,-0.028332636,1,0,0,aanzien,0,22,22,13,1
,,,,,,00053 ,2023-10-19_20h04.29.277,vbt_B2_day2,2022.2.4,Linux x86_64,60.0060006,,,,,,,,,,,,,,,,,,,,,,,,,,,,,,,,,,,,,,,,,,ningen,images/br_ningen.png,images/cb_ningen.png,,ningen,,,,,,,,,,,-0.394697444,-0.028332636,1,0,0,ningen,0,23,23,28,1
,,,,,,00053 ,2023-10-19_20h04.29.277,vbt_B2_day2,2022.2.4,Linux x86_64,60.0060006,,,,,,,,,,,,,,,,,,,,,,,,,,,,,,,,,,,,,,,,,,bloeien,images/br_bloeien.png,images/cb_bloeien.png,,bloeien,,,,,,,,,,,-0.394697444,-0.028332636,1,0,0,bloeien,0,24,24,12,1
,,,,,,00053 ,2023-10-19_20h04.29.277,vbt_B2_day2,2022.2.4,Linux x86_64,60.0060006,,,,,,,,,,,,,,,,,,,,,,,,,,,,,,,,,,,,,,,,,,negel,images/br_negel.png,images/cb_negel.png,,negel,,,,,,,,,,,-0.393962962,-0.027598193,1,0,0,negel,0,25,25,24,1
,,,,,,00053 ,2023-10-19_20h04.29.277,vbt_B2_day2,2022.2.4,Linux x86_64,60.0060006,,,,,,,,,,,,,,,,,,,,,,,,,,,,,,,,,,,,,,,,,,inzicht,images/br_inzicht.png,images/cb_inzicht.png,,enzicht,,,,,,,,,,,-0.393962962,-0.027598193,1,0,0,enzicht,0,26,26,53,1
,,,,,,00053 ,2023-10-19_20h04.29.277,vbt_B2_day2,2022.2.4,Linux x86_64,60.0060006,,,,,,,,,,,,,,,,,,,,,,,,,,,,,,,,,,,,,,,,,,kenzis,images/br_kenzis.png,images/cb_kenzis.png,,kenzis,,,,,,,,,,,-0.393962962,-0.027781804,1,0,0,kenzis,0,27,27,30,1
,,,,,,00053 ,2023-10-19_20h04.29.277,vbt_B2_day2,2022.2.4,Linux x86_64,60.0060006,,,,,,,,,,,,,,,,,,,,,,,,,,,,,,,,,,,,,,,,,,breuk,images/br_breuk.png,images/cb_breuk.png,,breuk,,,,,,,,,,,-0.393962962,-0.027781804,1,0,0,breuk,0,28,28,45,1
,,,,,,00053 ,2023-10-19_20h04.29.277,vbt_B2_day2,2022.2.4,Linux x86_64,60.0060006,,,,,,,,,,,,,,,,,,,,,,,,,,,,,,,,,,,,,,,,,,tand,images/br_tand.png,images/cb_tand.png,,tand,,,,,,,,,,,-0.393962962,-0.027781804,1,0,0,tand,0,29,29,42,1
,,,,,,00053 ,2023-10-19_20h04.29.277,vbt_B2_day2,2022.2.4,Linux x86_64,60.0060006,,,,,,,,,,,,,,,,,,,,,,,,,,,,,,,,,,,,,,,,,,remel,images/br_remel.png,images/cb_remel.png,,remel,,,,,,,,,,,-0.396349981,-0.026496489,1,0,0,remel,0,30,30,25,1
,,,,,,00053 ,2023-10-19_20h04.29.277,vbt_B2_day2,2022.2.4,Linux x86_64,60.0060006,,,,,,,,,,,,,,,,,,,,,,,,,,,,,,,,,,,,,,,,,,manieren,images/br_manieren.png,images/cb_manieren.png,,manieren,,,,,,,,,,,-0.398002518,-0.025394785,1,0,0,manieren,0,31,31,56,1
,,,,,,00053 ,2023-10-19_20h04.29.277,vbt_B2_day2,2022.2.4,Linux x86_64,60.0060006,,,,,,,,,,,,,,,,,,,,,,,,,,,,,,,,,,,,,,,,,,piste,images/br_piste.png,images/cb_piste.png,,piste,,,,,,,,,,,-0.40369461,-0.021722451,1,0,0,piste,0,32,32,5,1
,,,,,,00053 ,2023-10-19_20h04.29.277,vbt_B2_day2,2022.2.4,Linux x86_64,60.0060006,,,,,,,,,,,,,,,,,,,,,,,,,,,,,,,,,,,,,,,,,,lijnen,images/br_lijnen.png,images/cb_lijnen.png,,lijnen,,,,,,,,,,,-0.40369461,-0.021722451,1,0,0,lijnen,0,33,33,51,1
,,,,,,00053 ,2023-10-19_20h04.29.277,vbt_B2_day2,2022.2.4,Linux x86_64,60.0060006,,,,,,,,,,,,,,,,,,,,,,,,,,,,,,,,,,,,,,,,,,aanvraag,images/br_aanvraag.png,images/cb_aanvraag.png,,aanvraag,,,,,,,,,,,-0.40369461,-0.021722451,1,0,0,aanvraag,0,34,34,57,1
,,,,,,00053 ,2023-10-19_20h04.29.277,vbt_B2_day2,2022.2.4,Linux x86_64,60.0060006,,,,,,,,,,,,,,,,,,,,,,,,,,,,,,,,,,,,,,,,,,jagen,images/br_jagen.png,images/cb_jagen.png,,jagen,,,,,,,,,,,-0.404429092,-0.021355229,1,0,0,jagen,0,35,35,6,1
,,,,,,00053 ,2023-10-19_20h04.29.277,vbt_B2_day2,2022.2.4,Linux x86_64,60.0060006,,,,,,,,,,,,,,,,,,,,,,,,,,,,,,,,,,,,,,,,,,flits,images/br_flits.png,images/cb_flits.png,,flits,,,,,,,,,,,-0.404429092,-0.021355229,1,0,0,flits,0,36,36,4,1
,,,,,,00053 ,2023-10-19_20h04.29.277,vbt_B2_day2,2022.2.4,Linux x86_64,60.0060006,,,,,,,,,,,,,,,,,,,,,,,,,,,,,,,,,,,,,,,,,,opdatten,images/br_opdatten.png,images/cb_opdatten.png,,opdatten,,,,,,,,,,,-0.404429092,-0.019886304,1,0,0,opdatten,0,37,37,37,1
,,,,,,00053 ,2023-10-19_20h04.29.277,vbt_B2_day2,2022.2.4,Linux x86_64,60.0060006,,,,,,,,,,,,,,,,,,,,,,,,,,,,,,,,,,,,,,,,,,goon,images/br_goon.png,images/cb_goon.png,,goon,,,,,,,,,,,-0.404429092,-0.019886304,1,0,0,goon,0,38,38,23,1
,,,,,,00053 ,2023-10-19_20h04.29.277,vbt_B2_day2,2022.2.4,Linux x86_64,60.0060006,,,,,,,,,,,,,,,,,,,,,,,,,,,,,,,,,,,,,,,,,,trots,images/br_trots.png,images/cb_trots.png,,trots,,,,,,,,,,,-0.404429092,-0.019886304,1,0,0,trots,0,39,39,44,1
,,,,,,00053 ,2023-10-19_20h04.29.277,vbt_B2_day2,2022.2.4,Linux x86_64,60.0060006,,,,,,,,,,,,,,,,,,,,,,,,,,,,,,,,,,,,,,,,,,krimmen,images/br_krimmen.png,images/cb_krimmen.png,,krimmen,,,,,,,,,,,-0.408835869,-0.020069914,1,0,0,krimmen,0,40,40,35,1
,,,,,,00053 ,2023-10-19_20h04.29.277,vbt_B2_day2,2022.2.4,Linux x86_64,60.0060006,,,,,,,,,,,,,,,,,,,,,,,,,,,,,,,,,,,,,,,,,,clan,images/br_clan.png,images/cb_clan.png,,clan,,,,,,,,,,,-0.408835869,-0.020069914,1,0,0,clan,0,41,41,40,1
,,,,,,00053 ,2023-10-19_20h04.29.277,vbt_B2_day2,2022.2.4,Linux x86_64,60.0060006,,,,,,,,,,,,,,,,,,,,,,,,,,,,,,,,,,,,,,,,,,badon,images/br_badon.png,images/cb_badon.png,,badon,,,,,,,,,,,-0.408835869,-0.020069914,1,0,0,badon,0,42,42,26,1
,,,,,,00053 ,2023-10-19_20h04.29.277,vbt_B2_day2,2022.2.4,Linux x86_64,60.0060006,,,,,,,,,,,,,,,,,,,,,,,,,,,,,,,,,,,,,,,,,,joes,images/br_joes.png,images/cb_joes.png,,joes,,,,,,,,,,,-0.408835869,-0.020069914,1,0,0,joes,0,43,43,20,1
,,,,,,00053 ,2023-10-19_20h04.29.277,vbt_B2_day2,2022.2.4,Linux x86_64,60.0060006,,,,,,,,,,,,,,,,,,,,,,,,,,,,,,,,,,,,,,,,,,jong,images/br_jong.png,images/cb_jong.png,,jong,,,,,,,,,,,-0.408835869,-0.020069914,1,0,0,jong,0,44,44,43,1
,,,,,,00053 ,2023-10-19_20h04.29.277,vbt_B2_day2,2022.2.4,Linux x86_64,60.0060006,,,,,,,,,,,,,,,,,,,,,,,,,,,,,,,,,,,,,,,,,,blad,images/br_blad.png,images/cb_blad.png,,blad,,,,,,,,,,,-0.134715786,0.052133898,1,0,0,blad,0,45,45,1,1
,,,,,,00053 ,2023-10-19_20h04.29.277,vbt_B2_day2,2022.2.4,Linux x86_64,60.0060006,,,,,,,,,,,,,,,,,,,,,,,,,,,,,,,,,,,,,,,,,,toeval,images/br_toeval.png,images/cb_toeval.png,,toeval,,,,,,,,,,,-0.134715786,0.052133898,1,0,0,toeval,0,46,46,11,1
,,,,,,00053 ,2023-10-19_20h04.29.277,vbt_B2_day2,2022.2.4,Linux x86_64,60.0060006,,,,,,,,,,,,,,,,,,,,,,,,,,,,,,,,,,,,,,,,,,woning,images/br_woning.png,images/cb_woning.png,,woning,,,,,,,,,,,-0.134715786,0.052133898,1,0,0,woning,0,47,47,10,1
,,,,,,00053 ,2023-10-19_20h04.29.277,vbt_B2_day2,2022.2.4,Linux x86_64,60.0060006,,,,,,,,,,,,,,,,,,,,,,,,,,,,,,,,,,,,,,,,,,diep,images/br_diep.png,images/cb_diep.png,,diep,,,,,,,,,,,-0.134715786,0.052133898,1,0,0,diep,0,48,48,2,1
,,,,,,00053 ,2023-10-19_20h04.29.277,vbt_B2_day2,2022.2.4,Linux x86_64,60.0060006,,,,,,,,,,,,,,,,,,,,,,,,,,,,,,,,,,,,,,,,,,zegel,images/br_zegel.png,images/cb_zegel.png,,wegel,,,,,,,,,,,-0.134715786,0.052133898,1,0,0,wegel,0,49,49,46,1
,,,,,,00053 ,2023-10-19_20h04.29.277,vbt_B2_day2,2022.2.4,Linux x86_64,60.0060006,,,,,,,,,,,,,,,,,,,,,,,,,,,,,,,,,,,,,,,,,,lurgen,images/br_lurgen.png,images/cb_lurgen.png,,lurgen,,,,,,,,,,,-0.134715786,0.052133898,1,0,0,lurgen,0,50,50,29,1
,,,,,,00053 ,2023-10-19_20h04.29.277,vbt_B2_day2,2022.2.4,Linux x86_64,60.0060006,,,,,,,,,,,,,,,,,,,,,,,,,,,,,,,,,,,,,,,,,,ophuimen,images/br_ophuimen.png,images/cb_ophuimen.png,,op,,,,,,,,,,,-0.134715786,0.052133898,1,0,0,op,0,51,51,36,1
,,,,,,00053 ,2023-10-19_20h04.29.277,vbt_B2_day2,2022.2.4,Linux x86_64,60.0060006,,,,,,,,,,,,,,,,,,,,,,,,,,,,,,,,,,,,,,,,,,thema,images/br_thema.png,images/cb_thema.png,,thema,,,,,,,,,,,-0.14591632,0.051215766,1,0,0,thema,0,52,52,47,1
,,,,,,00053 ,2023-10-19_20h04.29.277,vbt_B2_day2,2022.2.4,Linux x86_64,60.0060006,,,,,,,,,,,,,,,,,,,,,,,,,,,,,,,,,,,,,,,,,,sjijfel,images/br_sjijfel.png,images/cb_sjijfel.png,,sjij..,,,,,,,,,,,-0.14591632,0.051215766,1,0,0,sjij..,0,53,53,33,1
,,,,,,00053 ,2023-10-19_20h04.29.277,vbt_B2_day2,2022.2.4,Linux x86_64,60.0060006,,,,,,,,,,,,,,,,,,,,,,,,,,,,,,,,,,,,,,,,,,wijve,images/br_wijve.png,images/cb_wijve.png,,wi...,,,,,,,,,,,-0.14591632,0.051215766,1,0,0,wi...,0,54,54,27,1
,,,,,,00053 ,2023-10-19_20h04.29.277,vbt_B2_day2,2022.2.4,Linux x86_64,60.0060006,,,,,,,,,,,,,,,,,,,,,,,,,,,,,,,,,,,,,,,,,,prekken,images/br_prekken.png,images/cb_prekken.png,,prekken,,,,,,,,,,,-0.14591632,0.051215766,1,0,0,prekken,0,55,55,34,1
,,,,,,00053 ,2023-10-19_20h04.29.277,vbt_B2_day2,2022.2.4,Linux x86_64,60.0060006,,,,,,,,,,,,,,,,,,,,,,,,,,,,,,,,,,,,,,,,,,tweeling,images/br_tweeling.png,images/cb_tweeling.png,,tweeling,,,,,,,,,,,-0.14591632,0.051215766,1,0,0,tweeling,0,56,56,58,1
,,,,,,00053 ,2023-10-19_20h04.29.277,vbt_B2_day2,2022.2.4,Linux x86_64,60.0060006,,,,,,,,,,,,,,,,,,,,,,,,,,,,,,,,,,,,,,,,,,moes,images/br_moes.png,images/cb_moes.png,,moes,,,,,,,,,,,-0.14591632,0.051215766,1,0,0,moes,0,57,57,0,1
,,,,,,00053 ,2023-10-19_20h04.29.277,vbt_B2_day2,2022.2.4,Linux x86_64,60.0060006,,,,,,,,,,,,,,,,,,,,,,,,,,,,,,,,,,,,,,,,,,plannen,images/br_plannen.png,images/cb_plannen.png,,plannen,,,,,,,,,,,-0.14591632,0.051215766,1,0,0,plannen,0,58,58,55,1
,,,,,,00053 ,2023-10-19_20h04.29.277,vbt_B2_day2,2022.2.4,Linux x86_64,60.0060006,,,,,,,,,,,,,,,,,,,,,,,,,,,,,,,,,,,,,,,,,,sifferd,images/br_sifferd.png,images/cb_sifferd.png,,siffer.,,,,,,,,,,,-0.144080212,0.047543471,1,0,0,siffer.,0,59,59,32,1
,,,,,,00053 ,2023-10-19_20h04.29.277,vbt_B2_day2,2022.2.4,Linux x86_64,60.0060006,,,,,,,,,,,,,,,,,,,,,,,,,,,,,,,,,,,,,,,,,,,,,,,,,,,,,,,,,,,,,,,,,,,
