welcome_mouse.x,welcome_mouse.y,welcome_mouse.leftButton,welcome_mouse.midButton,welcome_mouse.rightButton,welcome_mouse.time,"ID",date,expName,psychopyVersion,OS,frameRate,refresh_mouse.x,refresh_mouse.y,refresh_mouse.leftButton,refresh_mouse.midButton,refresh_mouse.rightButton,refresh_mouse.time,braille_mouse.x,braille_mouse.y,braille_mouse.leftButton,braille_mouse.midButton,braille_mouse.rightButton,braille_mouse.time,trials.thisRepN,trials.thisTrialN,trials.thisN,trials.thisIndex,trials.ran,nlLet,brLet,cbLet,trainInstr_mouse.x,trainInstr_mouse.y,trainInstr_mouse.leftButton,trainInstr_mouse.midButton,trainInstr_mouse.rightButton,trainInstr_mouse.time,translation_key.keys,translation_key.corr,translation_key.rt,word_rsp.text,word_mouse.x,word_mouse.y,word_mouse.leftButton,word_mouse.midButton,word_mouse.rightButton,word_mouse.time,train_loop.thisRepN,train_loop.thisTrialN,train_loop.thisN,train_loop.thisIndex,train_loop.ran,nlWrd,brWrd,cbWrd,test,testResp,mouse.x,mouse.y,mouse.leftButton,mouse.midButton,mouse.rightButton,testInstr_mouse.x,testInstr_mouse.y,testInstr_mouse.leftButton,testInstr_mouse.midButton,testInstr_mouse.rightButton,test_mouse.x,test_mouse.y,test_mouse.leftButton,test_mouse.midButton,test_mouse.rightButton,test_response.text,test_loop.thisRepN,test_loop.thisTrialN,test_loop.thisN,test_loop.thisIndex,test_loop.ran
-0.254421541,-0.026171058,1,0,0,6.8085,00015,2023-08-05_13h51.50.088,vbt_B2_day2,2022.2.4,Win32,59.99520038,,,,,,,,,,,,,,,,,,,,,,,,,,,,,,,,,,,,,,,,,,,,,,,,,,,,,,,,,,,,,,,,,,,
,,,,,,00015,2023-08-05_13h51.50.088,vbt_B2_day2,2022.2.4,Win32,59.99520038,-0.259053292,-0.036360949,1,0,0,0.1288,,,,,,,,,,,,,,,,,,,,,,,,,,,,,,,,,,,,,,,,,,,,,,,,,,,,,,,,,,,,,
,,,,,,00015,2023-08-05_13h51.50.088,vbt_B2_day2,2022.2.4,Win32,59.99520038,,,,,,,-0.238673461,-0.066004427,1,0,0,5.0722,0,0,0,23,1,x,images/br_x.png,images/cb_x.png,,,,,,,,,,,,,,,,,,,,,,,,,,,,,,,,,,,,,,,,,,,,,,,
,,,,,,00015,2023-08-05_13h51.50.088,vbt_B2_day2,2022.2.4,Win32,59.99520038,,,,,,,-0.02005298,-0.150302917,1,0,0,2.4219,0,1,1,4,1,e,images/br_e.png,images/cb_e.png,,,,,,,,,,,,,,,,,,,,,,,,,,,,,,,,,,,,,,,,,,,,,,,
,,,,,,00015,2023-08-05_13h51.50.088,vbt_B2_day2,2022.2.4,Win32,59.99520038,,,,,,,-0.012642255,-0.233675114,1,0,0,3.0673,0,2,2,6,1,g,images/br_g.png,images/cb_g.png,,,,,,,,,,,,,,,,,,,,,,,,,,,,,,,,,,,,,,,,,,,,,,,
,,,,,,00015,2023-08-05_13h51.50.088,vbt_B2_day2,2022.2.4,Win32,59.99520038,,,,,,,-0.0089367,-0.198473544,1,0,0,3.8175,0,3,3,18,1,s,images/br_s.png,images/cb_s.png,,,,,,,,,,,,,,,,,,,,,,,,,,,,,,,,,,,,,,,,,,,,,,,
,,,,,,00015,2023-08-05_13h51.50.088,vbt_B2_day2,2022.2.4,Win32,59.99520038,,,,,,,-0.007084115,-0.194768086,1,0,0,1.8331,0,4,4,3,1,d,images/br_d.png,images/cb_d.png,,,,,,,,,,,,,,,,,,,,,,,,,,,,,,,,,,,,,,,,,,,,,,,
,,,,,,00015,2023-08-05_13h51.50.088,vbt_B2_day2,2022.2.4,Win32,59.99520038,,,,,,,-0.058960057,-0.248496805,1,0,0,1.2187,0,5,5,12,1,m,images/br_m.png,images/cb_m.png,,,,,,,,,,,,,,,,,,,,,,,,,,,,,,,,,,,,,,,,,,,,,,,
,,,,,,00015,2023-08-05_13h51.50.088,vbt_B2_day2,2022.2.4,Win32,59.99520038,,,,,,,-0.080266325,-0.297593773,1,0,0,3.4156,0,6,6,19,1,t,images/br_t.png,images/cb_t.png,,,,,,,,,,,,,,,,,,,,,,,,,,,,,,,,,,,,,,,,,,,,,,,
,,,,,,00015,2023-08-05_13h51.50.088,vbt_B2_day2,2022.2.4,Win32,59.99520038,,,,,,,-0.018200395,-0.260539522,1,0,0,2.1857,0,7,7,17,1,r,images/br_r.png,images/cb_r.png,,,,,,,,,,,,,,,,,,,,,,,,,,,,,,,,,,,,,,,,,,,,,,,
,,,,,,00015,2023-08-05_13h51.50.088,vbt_B2_day2,2022.2.4,Win32,59.99520038,,,,,,,-0.069150045,-0.209589825,1,0,0,5.6842,0,8,8,10,1,k,images/br_k.png,images/cb_k.png,,,,,,,,,,,,,,,,,,,,,,,,,,,,,,,,,,,,,,,,,,,,,,,
,,,,,,00015,2023-08-05_13h51.50.088,vbt_B2_day2,2022.2.4,Win32,59.99520038,,,,,,,-0.064518197,-0.197547156,1,0,0,2.9512,0,9,9,9,1,j,images/br_j.png,images/cb_j.png,,,,,,,,,,,,,,,,,,,,,,,,,,,,,,,,,,,,,,,,,,,,,,,
,,,,,,00015,2023-08-05_13h51.50.088,vbt_B2_day2,2022.2.4,Win32,59.99520038,,,,,,,-0.064518197,-0.186430876,1,0,0,3.2517,0,10,10,5,1,f,images/br_f.png,images/cb_f.png,,,,,,,,,,,,,,,,,,,,,,,,,,,,,,,,,,,,,,,,,,,,,,,
,,,,,,00015,2023-08-05_13h51.50.088,vbt_B2_day2,2022.2.4,Win32,59.99520038,,,,,,,-0.097867038,-0.244791394,1,0,0,1.318,0,11,11,1,1,b,images/br_b.png,images/cb_b.png,,,,,,,,,,,,,,,,,,,,,,,,,,,,,,,,,,,,,,,,,,,,,,,
,,,,,,00015,2023-08-05_13h51.50.088,vbt_B2_day2,2022.2.4,Win32,59.99520038,,,,,,,-0.221998993,-0.163271927,1,0,0,0.3511,0,12,12,14,1,o,images/br_o.png,images/cb_o.png,,,,,,,,,,,,,,,,,,,,,,,,,,,,,,,,,,,,,,,,,,,,,,,
,,,,,,00015,2023-08-05_13h51.50.088,vbt_B2_day2,2022.2.4,Win32,59.99520038,,,,,,,-0.071002726,-0.143818436,1,0,0,3.5084,0,13,13,22,1,w,images/br_w.png,images/cb_w.png,,,,,,,,,,,,,,,,,,,,,,,,,,,,,,,,,,,,,,,,,,,,,,,
,,,,,,00015,2023-08-05_13h51.50.088,vbt_B2_day2,2022.2.4,Win32,59.99520038,,,,,,,-0.111762436,-0.260539522,1,0,0,3.117,0,14,14,16,1,q,images/br_q.png,images/cb_q.png,,,,,,,,,,,,,,,,,,,,,,,,,,,,,,,,,,,,,,,,,,,,,,,
,,,,,,00015,2023-08-05_13h51.50.088,vbt_B2_day2,2022.2.4,Win32,59.99520038,,,,,,,-0.202545502,-0.127144016,1,0,0,3.919,0,15,15,25,1,z,images/br_z.png,images/cb_z.png,,,,,,,,,,,,,,,,,,,,,,,,,,,,,,,,,,,,,,,,,,,,,,,
,,,,,,00015,2023-08-05_13h51.50.088,vbt_B2_day2,2022.2.4,Win32,59.99520038,,,,,,,-0.056180987,-0.233675114,1,0,0,1.2698,0,16,16,2,1,c,images/br_c.png,images/cb_c.png,,,,,,,,,,,,,,,,,,,,,,,,,,,,,,,,,,,,,,,,,,,,,,,
,,,,,,00015,2023-08-05_13h51.50.088,vbt_B2_day2,2022.2.4,Win32,59.99520038,,,,,,,-0.049696554,-0.197547156,1,0,0,2.8187,0,17,17,20,1,u,images/br_u.png,images/cb_u.png,,,,,,,,,,,,,,,,,,,,,,,,,,,,,,,,,,,,,,,,,,,,,,,
,,,,,,00015,2023-08-05_13h51.50.088,vbt_B2_day2,2022.2.4,Win32,59.99520038,,,,,,,-0.073781796,-0.184578146,1,0,0,3.935,0,18,18,13,1,n,images/br_n.png,images/cb_n.png,,,,,,,,,,,,,,,,,,,,,,,,,,,,,,,,,,,,,,,,,,,,,,,
,,,,,,00015,2023-08-05_13h51.50.088,vbt_B2_day2,2022.2.4,Win32,59.99520038,,,,,,,-0.131215926,-0.122512217,1,0,0,1.9177,0,19,19,24,1,y,images/br_y.png,images/cb_y.png,,,,,,,,,,,,,,,,,,,,,,,,,,,,,,,,,,,,,,,,,,,,,,,
,,,,,,00015,2023-08-05_13h51.50.088,vbt_B2_day2,2022.2.4,Win32,59.99520038,,,,,,,-0.306297531,-0.049329959,1,0,0,6.5174,0,20,20,7,1,h,images/br_h.png,images/cb_h.png,,,,,,,,,,,,,,,,,,,,,,,,,,,,,,,,,,,,,,,,,,,,,,,
,,,,,,00015,2023-08-05_13h51.50.088,vbt_B2_day2,2022.2.4,Win32,59.99520038,,,,,,,-0.098793474,-0.214221624,1,0,0,1.1356,0,21,21,15,1,p,images/br_p.png,images/cb_p.png,,,,,,,,,,,,,,,,,,,,,,,,,,,,,,,,,,,,,,,,,,,,,,,
,,,,,,00015,2023-08-05_13h51.50.088,vbt_B2_day2,2022.2.4,Win32,59.99520038,,,,,,,0.02163307,-0.219779764,1,0,0,1.0672,0,22,22,21,1,v,images/br_v.png,images/cb_v.png,,,,,,,,,,,,,,,,,,,,,,,,,,,,,,,,,,,,,,,,,,,,,,,
,,,,,,00015,2023-08-05_13h51.50.088,vbt_B2_day2,2022.2.4,Win32,59.99520038,,,,,,,-0.053401917,-0.158640175,1,0,0,0.72,0,23,23,0,1,a,images/br_a.png,images/cb_a.png,,,,,,,,,,,,,,,,,,,,,,,,,,,,,,,,,,,,,,,,,,,,,,,
,,,,,,00015,2023-08-05_13h51.50.088,vbt_B2_day2,2022.2.4,Win32,59.99520038,,,,,,,-0.113615165,-0.206810754,1,0,0,2.9872,0,24,24,11,1,l,images/br_l.png,images/cb_l.png,,,,,,,,,,,,,,,,,,,,,,,,,,,,,,,,,,,,,,,,,,,,,,,
,,,,,,00015,2023-08-05_13h51.50.088,vbt_B2_day2,2022.2.4,Win32,59.99520038,,,,,,,-0.113615165,-0.025244669,1,0,0,1.018,0,25,25,8,1,i,images/br_i.png,images/cb_i.png,,,,,,,,,,,,,,,,,,,,,,,,,,,,,,,,,,,,,,,,,,,,,,,
,,,,,,00015,2023-08-05_13h51.50.088,vbt_B2_day2,2022.2.4,Win32,59.99520038,,,,,,,,,,,,,,,,,,,,,-0.01171577,0.061832939,1,0,0,44.1578,,,,,,,,,,,,,,,,,,,,,,,,,,,,,,,,,,,,,,,,,
,,,,,,00015,2023-08-05_13h51.50.088,vbt_B2_day2,2022.2.4,Win32,59.99520038,,,,,,,,,,,,,,,,,,,,,,,,,,,down,0,24.0921,,-0.231262592,-0.042845478,1,0,0,4.815,0,0,0,81,1,dubbel,images/br_dubbel.png,images/cb_dubbel.png,0,,,,,,,,,,,,,,,,,,,,,,
,,,,,,00015,2023-08-05_13h51.50.088,vbt_B2_day2,2022.2.4,Win32,59.99520038,,,,,,,,,,,,,,,,,,,,,,,,,,,down,0,10.9005,,-0.071929115,-0.070636179,1,0,0,3.3901,0,1,1,27,1,dans,images/br_dans.png,images/cb_dans.png,0,,,,,,,,,,,,,,,,,,,,,,
,,,,,,00015,2023-08-05_13h51.50.088,vbt_B2_day2,2022.2.4,Win32,59.99520038,,,,,,,,,,,,,,,,,,,,,,,,,,,down,0,14.3171,,-0.187723764,-0.099353268,1,0,0,3.5663,0,2,2,44,1,flits,images/br_flits.png,images/cb_flits.png,0,,,,,,,,,,,,,,,,,,,,,,
,,,,,,00015,2023-08-05_13h51.50.088,vbt_B2_day2,2022.2.4,Win32,59.99520038,,,,,,,,,,,,,,,,,,,,,,,,,,,down,0,17.7846,,-0.176607483,-0.039140019,1,0,0,1.4331,0,3,3,25,1,plek,images/br_plek.png,images/cb_plek.png,0,,,,,,,,,,,,,,,,,,,,,,
,,,,,,00015,2023-08-05_13h51.50.088,vbt_B2_day2,2022.2.4,Win32,59.99520038,,,,,,,,,,,,,,,,,,,,,,,,,,,down,0,14.3899,,-0.206250913,-0.035434609,1,0,0,8.9902,0,4,4,171,1,aarzelen,images/br_aarzelen.png,images/cb_aarzelen.png,0,,,,,,,,,,,,,,,,,,,,,,
,,,,,,00015,2023-08-05_13h51.50.088,vbt_B2_day2,2022.2.4,Win32,59.99520038,,,,,,,,,,,,,,,,,,,,,,,,,,,down,0,3.3126,,-0.116394235,-0.076194319,1,0,0,1.1328,0,5,5,1,1,zaal,images/br_zaal.png,images/cb_zaal.png,0,,,,,,,,,,,,,,,,,,,,,,
,,,,,,00015,2023-08-05_13h51.50.088,vbt_B2_day2,2022.2.4,Win32,59.99520038,,,,,,,,,,,,,,,,,,,,,,,,,,,down,0,11.0402,,0.023485751,-0.091016058,1,0,0,1.5029,0,6,6,146,1,opkomen,images/br_opkomen.png,images/cb_opkomen.png,0,,,,,,,,,,,,,,,,,,,,,,
,,,,,,00015,2023-08-05_13h51.50.088,vbt_B2_day2,2022.2.4,Win32,59.99520038,,,,,,,,,,,,,,,,,,,,,,,,,,,down,0,10.4734,,-0.119173305,-0.138260296,1,0,0,4.8016,0,7,7,34,1,vorm,images/br_vorm.png,images/cb_vorm.png,0,,,,,,,,,,,,,,,,,,,,,,
,,,,,,00015,2023-08-05_13h51.50.088,vbt_B2_day2,2022.2.4,Win32,59.99520038,,,,,,,,,,,,,,,,,,,,,,,,,,,down,0,15.6928,,-0.089529827,-0.103985067,1,0,0,1.4862,0,8,8,104,1,zweven,images/br_zweven.png,images/cb_zweven.png,0,,,,,,,,,,,,,,,,,,,,,,
,,,,,,00015,2023-08-05_13h51.50.088,vbt_B2_day2,2022.2.4,Win32,59.99520038,,,,,,,,,,,,,,,,,,,,,,,,,,,down,0,10.1678,,-0.375774329,-0.092868787,1,0,0,1.5865,0,9,9,154,1,aflopen,images/br_aflopen.png,images/cb_aflopen.png,0,,,,,,,,,,,,,,,,,,,,,,
,,,,,,00015,2023-08-05_13h51.50.088,vbt_B2_day2,2022.2.4,Win32,59.99520038,,,,,,,,,,,,,,,,,,,,,,,,,,,down,0,8.5529,,-0.209956372,-0.196620815,1,0,0,2.2571,0,10,10,170,1,schatten,images/br_schatten.png,images/cb_schatten.png,0,,,,,,,,,,,,,,,,,,,,,,
,,,,,,00015,2023-08-05_13h51.50.088,vbt_B2_day2,2022.2.4,Win32,59.99520038,,,,,,,,,,,,,,,,,,,,,,,,,,,down,0,44.1873,,-0.225704451,-0.074341637,1,0,0,7.599,0,11,11,178,1,huisdier,images/br_huisdier.png,images/cb_huisdier.png,1,huisdierhuisdier,,,,,,,,,,,,,,,,,,,,,
,,,,,,00015,2023-08-05_13h51.50.088,vbt_B2_day2,2022.2.4,Win32,59.99520038,,,,,,,,,,,,,,,,,,,,,,,,,,,down,0,8.8678,,-0.159933063,-0.126217627,1,0,0,1.8012,0,12,12,7,1,geld,images/br_geld.png,images/cb_geld.png,0,,,,,,,,,,,,,,,,,,,,,,
,,,,,,00015,2023-08-05_13h51.50.088,vbt_B2_day2,2022.2.4,Win32,59.99520038,,,,,,,,,,,,,,,,,,,,,,,,,,,down,0,9.0691,,-0.226630792,-0.156787446,1,0,0,1.1523,0,13,13,149,1,redding,images/br_redding.png,images/cb_redding.png,0,,,,,,,,,,,,,,,,,,,,,,
,,,,,,00015,2023-08-05_13h51.50.088,vbt_B2_day2,2022.2.4,Win32,59.99520038,,,,,,,,,,,,,,,,,,,,,,,,,,,down,0,3.4038,,-0.221072652,-0.188283605,1,0,0,1.8838,0,14,14,20,1,site,images/br_site.png,images/cb_site.png,0,,,,,,,,,,,,,,,,,,,,,,
,,,,,,00015,2023-08-05_13h51.50.088,vbt_B2_day2,2022.2.4,Win32,59.99520038,,,,,,,,,,,,,,,,,,,,,,,,,,,down,0,22.6837,,-0.221998993,-0.062298968,1,0,0,14.684,0,15,15,156,1,rechten,images/br_rechten.png,images/cb_rechten.png,0,,,,,,,,,,,,,,,,,,,,,,
,,,,,,00015,2023-08-05_13h51.50.088,vbt_B2_day2,2022.2.4,Win32,59.99520038,,,,,,,,,,,,,,,,,,,,,,,,,,,down,0,5.3175,,-0.219219923,0.057201091,1,0,0,1.5673,0,16,16,42,1,bleek,images/br_bleek.png,images/cb_bleek.png,0,,,,,,,,,,,,,,,,,,,,,,
,,,,,,00015,2023-08-05_13h51.50.088,vbt_B2_day2,2022.2.4,Win32,59.99520038,,,,,,,,,,,,,,,,,,,,,,,,,,,down,0,7.0509,,-0.054328306,-0.099353268,1,0,0,8.936,0,17,17,37,1,mijn,images/br_mijn.png,images/cb_mijn.png,0,,,,,,,,,,,,,,,,,,,,,,
,,,,,,00015,2023-08-05_13h51.50.088,vbt_B2_day2,2022.2.4,Win32,59.99520038,,,,,,,,,,,,,,,,,,,,,,,,,,,down,0,9.983,,0.01607493,0.08499184,1,0,0,1.0339,0,18,18,50,1,stoom,images/br_stoom.png,images/cb_stoom.png,0,,,,,,,,,,,,,,,,,,,,,,
,,,,,,00015,2023-08-05_13h51.50.088,vbt_B2_day2,2022.2.4,Win32,59.99520038,,,,,,,,,,,,,,,,,,,,,,,,,,,down,0,29.8505,,-0.254421541,-0.113248618,1,0,0,1.6684,0,19,19,176,1,techniek,images/br_techniek.png,images/cb_techniek.png,1,techniek,,,,,,,,,,,,,,,,,,,,,
,,,,,,00015,2023-08-05_13h51.50.088,vbt_B2_day2,2022.2.4,Win32,59.99520038,,,,,,,,,,,,,,,,,,,,,,,,,,,down,0,5.855,,-0.198840092,-0.074341637,1,0,0,1.5844,0,20,20,57,1,steek,images/br_steek.png,images/cb_steek.png,1,steek,,,,,,,,,,,,,,,,,,,,,
,,,,,,00015,2023-08-05_13h51.50.088,vbt_B2_day2,2022.2.4,Win32,59.99520038,,,,,,,,,,,,,,,,,,,,,,,,,,,down,0,9.4665,,-0.257200611,0.0145887,1,0,0,2.236,0,21,21,163,1,schuilen,images/br_schuilen.png,images/cb_schuilen.png,0,,,,,,,,,,,,,,,,,,,,,,
,,,,,,00015,2023-08-05_13h51.50.088,vbt_B2_day2,2022.2.4,Win32,59.99520038,,,,,,,,,,,,,,,,,,,,,,,,,,,down,0,14.7194,,0.469063634,-0.141039366,1,0,0,3.051,0,22,22,119,1,liefje,images/br_liefje.png,images/cb_liefje.png,0,,,,,,,,,,,,,,,,,,,,,,
,,,,,,00015,2023-08-05_13h51.50.088,vbt_B2_day2,2022.2.4,Win32,59.99520038,,,,,,,,,,,,,,,,,,,,,,,,,,,down,0,25.2675,,0.442199323,-0.191989016,1,0,0,0.7022,0,23,23,2,1,jaar,images/br_jaar.png,images/cb_jaar.png,0,,,,,,,,,,,,,,,,,,,,,,
,,,,,,00015,2023-08-05_13h51.50.088,vbt_B2_day2,2022.2.4,Win32,59.99520038,,,,,,,,,,,,,,,,,,,,,,,,,,,down,0,16.3379,,0.387544214,-0.167903726,1,0,0,1.7837,0,24,24,4,1,moes,images/br_moes.png,images/cb_moes.png,0,,,,,,,,,,,,,,,,,,,,,,
,,,,,,00015,2023-08-05_13h51.50.088,vbt_B2_day2,2022.2.4,Win32,59.99520038,,,,,,,,,,,,,,,,,,,,,,,,,,,down,0,9.8894,,0.549656761,-0.29666748,1,0,0,0.9857,0,25,25,67,1,zwart,images/br_zwart.png,images/cb_zwart.png,0,,,,,,,,,,,,,,,,,,,,,,
,,,,,,00015,2023-08-05_13h51.50.088,vbt_B2_day2,2022.2.4,Win32,59.99520038,,,,,,,,,,,,,,,,,,,,,,,,,,,down,0,6.4174,,0.469063634,-0.217000694,1,0,0,1.2505,0,26,26,160,1,daarheen,images/br_daarheen.png,images/cb_daarheen.png,0,,,,,,,,,,,,,,,,,,,,,,
,,,,,,00015,2023-08-05_13h51.50.088,vbt_B2_day2,2022.2.4,Win32,59.99520038,,,,,,,,,,,,,,,,,,,,,,,,,,,down,0,3.954,,0.394955036,-0.130849427,1,0,0,0.6516,0,27,27,64,1,wegen,images/br_wegen.png,images/cb_wegen.png,0,,,,,,,,,,,,,,,,,,,,,,
,,,,,,00015,2023-08-05_13h51.50.088,vbt_B2_day2,2022.2.4,Win32,59.99520038,,,,,,,,,,,,,,,,,,,,,,,,,,,down,0,5.2627,,0.58393199,-0.235527892,1,0,0,1.0807,0,28,28,30,1,uien,images/br_uien.png,images/cb_uien.png,0,,,,,,,,,,,,,,,,,,,,,,
,,,,,,00015,2023-08-05_13h51.50.088,vbt_B2_day2,2022.2.4,Win32,59.99520038,,,,,,,,,,,,,,,,,,,,,,,,,,,down,0,5.4169,,0.520013284,-0.188283605,1,0,0,0.8018,0,29,29,68,1,schat,images/br_schat.png,images/cb_schat.png,0,,,,,,,,,,,,,,,,,,,,,,
,,,,,,00015,2023-08-05_13h51.50.088,vbt_B2_day2,2022.2.4,Win32,59.99520038,,,,,,,,,,,,,,,,,,,,,,,,,,,down,0,14.4354,,0.306951087,-0.177167325,1,0,0,0.7345,0,30,30,194,1,driemaal,images/br_driemaal.png,images/cb_driemaal.png,0,,,,,,,,,,,,,,,,,,,,,,
,,,,,,00015,2023-08-05_13h51.50.088,vbt_B2_day2,2022.2.4,Win32,59.99520038,,,,,,,,,,,,,,,,,,,,,,,,,,,down,0,13.2652,,0.577447462,-0.180872735,1,0,0,0.8016,0,31,31,142,1,snuiven,images/br_snuiven.png,images/cb_snuiven.png,0,,,,,,,,,,,,,,,,,,,,,,
,,,,,,00015,2023-08-05_13h51.50.088,vbt_B2_day2,2022.2.4,Win32,59.99520038,,,,,,,,,,,,,,,,,,,,,,,,,,,down,0,1.2513,,0.127237731,-0.095647857,1,0,0,1.6846,0,32,32,10,1,leek,images/br_leek.png,images/cb_leek.png,0,,,,,,,,,,,,,,,,,,,,,,
,,,,,,00015,2023-08-05_13h51.50.088,vbt_B2_day2,2022.2.4,Win32,59.99520038,,,,,,,,,,,,,,,,,,,,,,,,,,,down,0,70.4418,,0.10037342,-0.116954077,1,0,0,2.5498,0,33,33,47,1,kabel,images/br_kabel.png,images/cb_kabel.png,0,,,,,,,,,,,,,,,,,,,,,,
,,,,,,00015,2023-08-05_13h51.50.088,vbt_B2_day2,2022.2.4,Win32,59.99520038,,,,,,,,,,,,,,,,,,,,,,,,,,,down,0,5.4507,,-0.282212241,-0.056740828,1,0,0,1.9037,0,34,34,96,1,slagen,images/br_slagen.png,images/cb_slagen.png,1,slagen,,,,,,,,,,,,,,,,,,,,,
,,,,,,00015,2023-08-05_13h51.50.088,vbt_B2_day2,2022.2.4,Win32,59.99520038,,,,,,,,,,,,,,,,,,,,,,,,,,,down,0,62.9455,,0.352342597,-0.087310647,1,0,0,0.9014,0,35,35,148,1,smullen,images/br_smullen.png,images/cb_smullen.png,0,,,,,,,,,,,,,,,,,,,,,,
,,,,,,00015,2023-08-05_13h51.50.088,vbt_B2_day2,2022.2.4,Win32,59.99520038,,,,,,,,,,,,,,,,,,,,,,,,,,,down,0,0.1676,,0.185598298,-0.076194319,1,0,0,2.0517,0,36,36,109,1,totaal,images/br_totaal.png,images/cb_totaal.png,0,,,,,,,,,,,,,,,,,,,,,,
,,,,,,00015,2023-08-05_13h51.50.088,vbt_B2_day2,2022.2.4,Win32,59.99520038,,,,,,,,,,,,,,,,,,,,,,,,,,,down,0,6.2042,,0.445904685,-0.187357216,1,0,0,0.6999,0,37,37,127,1,doodmoe,images/br_doodmoe.png,images/cb_doodmoe.png,0,,,,,,,,,,,,,,,,,,,,,,
,,,,,,00015,2023-08-05_13h51.50.088,vbt_B2_day2,2022.2.4,Win32,59.99520038,,,,,,,,,,,,,,,,,,,,,,,,,,,down,0,3.8218,,0.372722476,-0.157713786,1,0,0,1.1668,0,38,38,16,1,ziek,images/br_ziek.png,images/cb_ziek.png,1,ziek,,,,,,,,,,,,,,,,,,,,,
,,,,,,00015,2023-08-05_13h51.50.088,vbt_B2_day2,2022.2.4,Win32,59.99520038,,,,,,,,,,,,,,,,,,,,,,,,,,,down,0,8.3891,,0.301392947,-0.135481226,1,0,0,1.5391,0,39,39,152,1,afnemen,images/br_afnemen.png,images/cb_afnemen.png,0,,,,,,,,,,,,,,,,,,,,,,
,,,,,,00015,2023-08-05_13h51.50.088,vbt_B2_day2,2022.2.4,Win32,59.99520038,,,,,,,,,,,,,,,,,,,,,,,,,,,down,0,9.451,,-0.3414991,-0.138260296,1,0,0,0.8014,0,40,40,137,1,trekker,images/br_trekker.png,images/cb_trekker.png,1,trekker,,,,,,,,,,,,,,,,,,,,,
,,,,,,00015,2023-08-05_13h51.50.088,vbt_B2_day2,2022.2.4,Win32,59.99520038,,,,,,,,,,,,,,,,,,,,,,,,,,,down,0,6.539,,0.645071531,-0.183651805,1,0,0,1.0693,0,41,41,129,1,verhaal,images/br_verhaal.png,images/cb_verhaal.png,0,,,,,,,,,,,,,,,,,,,,,,
,,,,,,00015,2023-08-05_13h51.50.088,vbt_B2_day2,2022.2.4,Win32,59.99520038,,,,,,,,,,,,,,,,,,,,,,,,,,,down,0,3.301,,-0.392448798,-0.125291287,1,0,0,0.7176,0,42,42,19,1,geit,images/br_geit.png,images/cb_geit.png,1,geit,,,,,,,,,,,,,,,,,,,,,
,,,,,,00015,2023-08-05_13h51.50.088,vbt_B2_day2,2022.2.4,Win32,59.99520038,,,,,,,,,,,,,,,,,,,,,,,,,,,down,0,0.5199,,-0.372068919,-0.113248618,1,0,0,0.7004,0,43,43,197,1,spanning,images/br_spanning.png,images/cb_spanning.png,0,,,,,,,,,,,,,,,,,,,,,,
,,,,,,00015,2023-08-05_13h51.50.088,vbt_B2_day2,2022.2.4,Win32,59.99520038,,,,,,,,,,,,,,,,,,,,,,,,,,,down,0,0.626,,-0.33316189,-0.138260296,1,0,0,0.7042,0,44,44,77,1,woede,images/br_woede.png,images/cb_woede.png,0,,,,,,,,,,,,,,,,,,,,,,
,,,,,,00015,2023-08-05_13h51.50.088,vbt_B2_day2,2022.2.4,Win32,59.99520038,,,,,,,,,,,,,,,,,,,,,,,,,,,down,0,0.7677,,-0.491569026,-0.131775767,1,0,0,114.847,0,45,45,3,1,mand,images/br_mand.png,images/cb_mand.png,0,,,,,,,,,,,,,,,,,,,,,,
,,,,,,00015,2023-08-05_13h51.50.088,vbt_B2_day2,2022.2.4,Win32,59.99520038,,,,,,,,,,,,,,,,,,,,,,,,,,,down,0,0.1517,,-0.271095961,-0.074341637,1,0,0,0.4184,0,46,46,121,1,twijfel,images/br_twijfel.png,images/cb_twijfel.png,0,,,,,,,,,,,,,,,,,,,,,,
,,,,,,00015,2023-08-05_13h51.50.088,vbt_B2_day2,2022.2.4,Win32,59.99520038,,,,,,,,,,,,,,,,,,,,,,,,,,,down,0,1.7174,,-0.122878716,-0.077120707,1,0,0,0.0496,0,47,47,29,1,baas,images/br_baas.png,images/cb_baas.png,0,,,,,,,,,,,,,,,,,,,,,,
,,,,,,00015,2023-08-05_13h51.50.088,vbt_B2_day2,2022.2.4,Win32,59.99520038,,,,,,,,,,,,,,,,,,,,,,,,,,,down,0,0.6366,,-0.201619162,-0.071562567,1,0,0,0.4166,0,48,48,43,1,klauw,images/br_klauw.png,images/cb_klauw.png,0,,,,,,,,,,,,,,,,,,,,,,
,,,,,,00015,2023-08-05_13h51.50.088,vbt_B2_day2,2022.2.4,Win32,59.99520038,,,,,,,,,,,,,,,,,,,,,,,,,,,down,0,1.7683,,-0.184018353,-0.078047048,1,0,0,0.4004,0,49,49,13,1,kaal,images/br_kaal.png,images/cb_kaal.png,0,,,,,,,,,,,,,,,,,,,,,,
,,,,,,00015,2023-08-05_13h51.50.088,vbt_B2_day2,2022.2.4,Win32,59.99520038,,,,,,,,,,,,,,,,,,,,,,,,,,,down,0,34.533,,-0.34057276,-0.032655539,1,0,0,3.4334,0,50,50,35,1,lust,images/br_lust.png,images/cb_lust.png,0,,,,,,,,,,,,,,,,,,,,,,
,,,,,,00015,2023-08-05_13h51.50.088,vbt_B2_day2,2022.2.4,Win32,59.99520038,,,,,,,,,,,,,,,,,,,,,,,,,,,down,0,2.5961,,-0.386890658,-0.034508268,1,0,0,0.8314,0,51,51,151,1,aanzoek,images/br_aanzoek.png,images/cb_aanzoek.png,0,,,,,,,,,,,,,,,,,,,,,,
,,,,,,00015,2023-08-05_13h51.50.088,vbt_B2_day2,2022.2.4,Win32,59.99520038,,,,,,,,,,,,,,,,,,,,,,,,,,,down,0,1.2022,,-0.236820732,0.03682126,1,0,0,0.4173,0,52,52,60,1,jasje,images/br_jasje.png,images/cb_jasje.png,0,,,,,,,,,,,,,,,,,,,,,,
,,,,,,00015,2023-08-05_13h51.50.088,vbt_B2_day2,2022.2.4,Win32,59.99520038,,,,,,,,,,,,,,,,,,,,,,,,,,,down,0,17.6006,,-0.34890997,0.03682126,1,0,0,1.2515,0,53,53,95,1,vreten,images/br_vreten.png,images/cb_vreten.png,0,,,,,,,,,,,,,,,,,,,,,,
,,,,,,00015,2023-08-05_13h51.50.088,vbt_B2_day2,2022.2.4,Win32,59.99520038,,,,,,,,,,,,,,,,,,,,,,,,,,,down,0,59.0316,,-0.30073939,0.024778639,1,0,0,0.5171,0,54,54,118,1,vinger,images/br_vinger.png,images/cb_vinger.png,0,,,,,,,,,,,,,,,,,,,,,,
,,,,,,00015,2023-08-05_13h51.50.088,vbt_B2_day2,2022.2.4,Win32,59.99520038,,,,,,,,,,,,,,,,,,,,,,,,,,,down,0,1.1254,,-0.288696722,-0.004864838,1,0,0,0.4514,0,55,55,79,1,nodig,images/br_nodig.png,images/cb_nodig.png,0,,,,,,,,,,,,,,,,,,,,,,
,,,,,,00015,2023-08-05_13h51.50.088,vbt_B2_day2,2022.2.4,Win32,59.99520038,,,,,,,,,,,,,,,,,,,,,,,,,,,down,0,470.4114,,0.007209565,-0.016172128,1,0,0,1.2012,0,56,56,49,1,laken,images/br_laken.png,images/cb_laken.png,0,,,,,,,,,,,,,,,,,,,,,,
,,,,,,00015,2023-08-05_13h51.50.088,vbt_B2_day2,2022.2.4,Win32,59.99520038,,,,,,,,,,,,,,,,,,,,,,,,,,,down,0,2.7164,,-0.184963454,-0.101712535,1,0,0,1.4361,0,57,57,9,1,hier,images/br_hier.png,images/cb_hier.png,0,,,,,,,,,,,,,,,,,,,,,,
,,,,,,00015,2023-08-05_13h51.50.088,vbt_B2_day2,2022.2.4,Win32,59.99520038,,,,,,,,,,,,,,,,,,,,,,,,,,,down,0,14.2844,,-0.17207379,-0.126320037,1,0,0,1.1694,0,58,58,185,1,mijnheer,images/br_mijnheer.png,images/cb_mijnheer.png,0,,,,,,,,,,,,,,,,,,,,,,
,,,,,,00015,2023-08-05_13h51.50.088,vbt_B2_day2,2022.2.4,Win32,59.99520038,,,,,,,,,,,,,,,,,,,,,,,,,,,down,0,7.9637,,-0.283393526,-0.024374608,1,0,0,7.9669,0,59,59,91,1,gezond,images/br_gezond.png,images/cb_gezond.png,0,,,,,,,,,,,,,,,,,,,,,,
,,,,,,00015,2023-08-05_13h51.50.088,vbt_B2_day2,2022.2.4,Win32,59.99520038,,,,,,,,,,,,,,,,,,,,,,,,,,,down,0,4.5177,,-0.228319571,-0.009141413,1,0,0,0.6501,0,60,60,112,1,lukken,images/br_lukken.png,images/cb_lukken.png,0,,,,,,,,,,,,,,,,,,,,,,
,,,,,,00015,2023-08-05_13h51.50.088,vbt_B2_day2,2022.2.4,Win32,59.99520038,,,,,,,,,,,,,,,,,,,,,,,,,,,down,0,2.9591,,-0.299798548,-0.066558959,1,0,0,0.8058,0,61,61,56,1,traag,images/br_traag.png,images/cb_traag.png,1,traag,,,,,,,,,,,,,,,,,,,,,
,,,,,,00015,2023-08-05_13h51.50.088,vbt_B2_day2,2022.2.4,Win32,59.99520038,,,,,,,,,,,,,,,,,,,,,,,,,,,down,0,4.3623,,-0.323234285,-0.036092447,1,0,0,1.119,0,62,62,93,1,waarop,images/br_waarop.png,images/cb_waarop.png,0,,,,,,,,,,,,,,,,,,,,,,
,,,,,,00015,2023-08-05_13h51.50.088,vbt_B2_day2,2022.2.4,Win32,59.99520038,,,,,,,,,,,,,,,,,,,,,,,,,,,down,0,8.4197,,-0.092392272,-0.036092447,1,0,0,1.499,0,63,63,159,1,sufferd,images/br_sufferd.png,images/cb_sufferd.png,0,,,,,,,,,,,,,,,,,,,,,,
,,,,,,00015,2023-08-05_13h51.50.088,vbt_B2_day2,2022.2.4,Win32,59.99520038,,,,,,,,,,,,,,,,,,,,,,,,,,,down,0,4.8197,,-0.05606687,-0.048982111,1,0,0,1.9347,0,64,64,133,1,seizoen,images/br_seizoen.png,images/cb_seizoen.png,0,,,,,,,,,,,,,,,,,,,,,,
,,,,,,00015,2023-08-05_13h51.50.088,vbt_B2_day2,2022.2.4,Win32,59.99520038,,,,,,,,,,,,,,,,,,,,,,,,,,,down,0,1.8848,,-0.227147805,-0.140381528,1,0,0,0.7195,0,65,65,11,1,mode,images/br_mode.png,images/cb_mode.png,0,,,,,,,,,,,,,,,,,,,,,,
,,,,,,00015,2023-08-05_13h51.50.088,vbt_B2_day2,2022.2.4,Win32,59.99520038,,,,,,,,,,,,,,,,,,,,,,,,,,,down,0,4.5179,,-0.339639307,-0.030233558,1,0,0,0.4161,0,66,66,169,1,oprotten,images/br_oprotten.png,images/cb_oprotten.png,0,,,,,,,,,,,,,,,,,,,,,,
,,,,,,00015,2023-08-05_13h51.50.088,vbt_B2_day2,2022.2.4,Win32,59.99520038,,,,,,,,,,,,,,,,,,,,,,,,,,,down,0,5.4187,,-0.274019279,-0.053669295,1,0,0,6.3987,0,67,67,92,1,geheim,images/br_geheim.png,images/cb_geheim.png,0,,,,,,,,,,,,,,,,,,,,,,
,,,,,,00015,2023-08-05_13h51.50.088,vbt_B2_day2,2022.2.4,Win32,59.99520038,,,,,,,,,,,,,,,,,,,,,,,,,,,down,0,2.1338,,-0.394713322,-0.031405324,1,0,0,1.2008,0,68,68,107,1,maling,images/br_maling.png,images/cb_maling.png,0,,,,,,,,,,,,,,,,,,,,,,
,,,,,,00015,2023-08-05_13h51.50.088,vbt_B2_day2,2022.2.4,Win32,59.99520038,,,,,,,,,,,,,,,,,,,,,,,,,,,down,0,1.9854,,-0.326749642,-0.164989031,1,0,0,2.2013,0,69,69,167,1,eenhoorn,images/br_eenhoorn.png,images/cb_eenhoorn.png,0,,,,,,,,,,,,,,,,,,,,,,
,,,,,,00015,2023-08-05_13h51.50.088,vbt_B2_day2,2022.2.4,Win32,59.99520038,,,,,,,,,,,,,,,,,,,,,,,,,,,down,0,1.5554,,-0.283393526,-0.19076836,1,0,0,0.9827,0,70,70,199,1,beseffen,images/br_beseffen.png,images/cb_beseffen.png,0,,,,,,,,,,,,,,,,,,,,,,
,,,,,,00015,2023-08-05_13h51.50.088,vbt_B2_day2,2022.2.4,Win32,59.99520038,,,,,,,,,,,,,,,,,,,,,,,,,,,down,0,1.601,,-0.281049994,-0.194283717,1,0,0,0.6677,0,71,71,122,1,waarvan,images/br_waarvan.png,images/cb_waarvan.png,0,,,,,,,,,,,,,,,,,,,,,,
,,,,,,00015,2023-08-05_13h51.50.088,vbt_B2_day2,2022.2.4,Win32,59.99520038,,,,,,,,,,,,,,,,,,,,,,,,,,,down,0,2.0007,,-0.26816033,-0.206001555,1,0,0,0.899,0,72,72,21,1,mist,images/br_mist.png,images/cb_mist.png,0,,,,,,,,,,,,,,,,,,,,,,
,,,,,,00015,2023-08-05_13h51.50.088,vbt_B2_day2,2022.2.4,Win32,59.99520038,,,,,,,,,,,,,,,,,,,,,,,,,,,down,0,18.4673,,-0.249411716,-0.082963981,1,0,0,16.6167,0,73,73,143,1,hechten,images/br_hechten.png,images/cb_hechten.png,0,,,,,,,,,,,,,,,,,,,,,,
,,,,,,00015,2023-08-05_13h51.50.088,vbt_B2_day2,2022.2.4,Win32,59.99520038,,,,,,,,,,,,,,,,,,,,,,,,,,,down,0,4.0357,,0.123216485,0.000232925,1,0,0,0.8519,0,74,74,124,1,bloeien,images/br_bloeien.png,images/cb_bloeien.png,0,,,,,,,,,,,,,,,,,,,,,,
,,,,,,00015,2023-08-05_13h51.50.088,vbt_B2_day2,2022.2.4,Win32,59.99520038,,,,,,,,,,,,,,,,,,,,,,,,,,,down,0,4.3664,,0.202898003,-0.072417909,1,0,0,1.3361,0,75,75,111,1,ticket,images/br_ticket.png,images/cb_ticket.png,0,,,,,,,,,,,,,,,,,,,,,,
,,,,,,00015,2023-08-05_13h51.50.088,vbt_B2_day2,2022.2.4,Win32,59.99520038,,,,,,,,,,,,,,,,,,,,,,,,,,,down,0,4.2017,,0.099780808,-0.228265588,1,0,0,0.863,0,76,76,101,1,staren,images/br_staren.png,images/cb_staren.png,0,,,,,,,,,,,,,,,,,,,,,,
,,,,,,00015,2023-08-05_13h51.50.088,vbt_B2_day2,2022.2.4,Win32,59.99520038,,,,,,,,,,,,,,,,,,,,,,,,,,,down,0,3.1239,,-0.180276331,-0.023202843,1,0,0,1.001,0,77,77,48,1,steel,images/br_steel.png,images/cb_steel.png,0,,,,,,,,,,,,,,,,,,,,,,
,,,,,,00015,2023-08-05_13h51.50.088,vbt_B2_day2,2022.2.4,Win32,59.99520038,,,,,,,,,,,,,,,,,,,,,,,,,,,down,0,10.4458,,-0.207227426,-0.063043541,1,0,0,0.6339,0,78,78,186,1,voorraad,images/br_voorraad.png,images/cb_voorraad.png,0,,,,,,,,,,,,,,,,,,,,,,
,,,,,,00015,2023-08-05_13h51.50.088,vbt_B2_day2,2022.2.4,Win32,59.99520038,,,,,,,,,,,,,,,,,,,,,,,,,,,down,0,1.4616,,-0.259957788,-0.18490941,1,0,0,1.6522,0,79,79,86,1,woning,images/br_woning.png,images/cb_woning.png,0,,,,,,,,,,,,,,,,,,,,,,
,,,,,,00015,2023-08-05_13h51.50.088,vbt_B2_day2,2022.2.4,Win32,59.99520038,,,,,,,,,,,,,,,,,,,,,,,,,,,down,0,2.1789,,-0.243552766,-0.244670549,1,0,0,0.4022,0,80,80,0,1,slak,images/br_slak.png,images/cb_slak.png,0,,,,,,,,,,,,,,,,,,,,,,
,,,,,,00015,2023-08-05_13h51.50.088,vbt_B2_day2,2022.2.4,Win32,59.99520038,,,,,,,,,,,,,,,,,,,,,,,,,,,down,0,0.8353,,-0.285737117,-0.241155191,1,0,0,0.5832,0,81,81,134,1,geliefd,images/br_geliefd.png,images/cb_geliefd.png,0,,,,,,,,,,,,,,,,,,,,,,
,,,,,,00015,2023-08-05_13h51.50.088,vbt_B2_day2,2022.2.4,Win32,59.99520038,,,,,,,,,,,,,,,,,,,,,,,,,,,down,0,1.5204,,-0.283393526,-0.241155191,1,0,0,0.7877,0,82,82,172,1,weigeren,images/br_weigeren.png,images/cb_weigeren.png,0,,,,,,,,,,,,,,,,,,,,,,
,,,,,,00015,2023-08-05_13h51.50.088,vbt_B2_day2,2022.2.4,Win32,59.99520038,,,,,,,,,,,,,,,,,,,,,,,,,,,down,0,0.468,,-0.288080709,-0.270449939,1,0,0,0.8046,0,83,83,62,1,knaap,images/br_knaap.png,images/cb_knaap.png,0,,,,,,,,,,,,,,,,,,,,,,
,,,,,,00015,2023-08-05_13h51.50.088,vbt_B2_day2,2022.2.4,Win32,59.99520038,,,,,,,,,,,,,,,,,,,,,,,,,,,down,0,1.8345,,-0.264644972,-0.2270937,1,0,0,0.669,0,84,84,82,1,muziek,images/br_muziek.png,images/cb_muziek.png,0,,,,,,,,,,,,,,,,,,,,,,
,,,,,,00015,2023-08-05_13h51.50.088,vbt_B2_day2,2022.2.4,Win32,59.99520038,,,,,,,,,,,,,,,,,,,,,,,,,,,down,0,1.4044,,-0.26816033,-0.244670549,1,0,0,0.6168,0,85,85,22,1,stof,images/br_stof.png,images/cb_stof.png,0,,,,,,,,,,,,,,,,,,,,,,
,,,,,,00015,2023-08-05_13h51.50.088,vbt_B2_day2,2022.2.4,Win32,59.99520038,,,,,,,,,,,,,,,,,,,,,,,,,,,down,0,24.2321,,-0.387682546,0.027184019,1,0,0,1.0377,0,86,86,76,1,afval,images/br_afval.png,images/cb_afval.png,0,,,,,,,,,,,,,,,,,,,,,,
,,,,,,00015,2023-08-05_13h51.50.088,vbt_B2_day2,2022.2.4,Win32,59.99520038,,,,,,,,,,,,,,,,,,,,,,,,,,,down,0,0.1183,,-0.323234285,-0.20482979,1,0,0,0.5536,0,87,87,12,1,kust,images/br_kust.png,images/cb_kust.png,0,,,,,,,,,,,,,,,,,,,,,,
,,,,,,00015,2023-08-05_13h51.50.088,vbt_B2_day2,2022.2.4,Win32,59.99520038,,,,,,,,,,,,,,,,,,,,,,,,,,,down,0,0.9169,,-0.154497002,-0.126320037,1,0,0,0.7396,0,88,88,132,1,grappen,images/br_grappen.png,images/cb_grappen.png,0,,,,,,,,,,,,,,,,,,,,,,
,,,,,,00015,2023-08-05_13h51.50.088,vbt_B2_day2,2022.2.4,Win32,59.99520038,,,,,,,,,,,,,,,,,,,,,,,,,,,down,0,1.0344,,-0.297455016,-0.098197177,1,0,0,0.5181,0,89,89,126,1,kasteel,images/br_kasteel.png,images/cb_kasteel.png,0,,,,,,,,,,,,,,,,,,,,,,
,,,,,,00015,2023-08-05_13h51.50.088,vbt_B2_day2,2022.2.4,Win32,59.99520038,,,,,,,,,,,,,,,,,,,,,,,,,,,down,0,0.6007,,-0.281049994,-0.098197177,1,0,0,0.4009,0,90,90,38,1,baai,images/br_baai.png,images/cb_baai.png,0,,,,,,,,,,,,,,,,,,,,,,
,,,,,,00015,2023-08-05_13h51.50.088,vbt_B2_day2,2022.2.4,Win32,59.99520038,,,,,,,,,,,,,,,,,,,,,,,,,,,down,0,1.6897,,-0.320890753,-0.156786489,1,0,0,0.8676,0,91,91,157,1,uitlaat,images/br_uitlaat.png,images/cb_uitlaat.png,0,,,,,,,,,,,,,,,,,,,,,,
,,,,,,00015,2023-08-05_13h51.50.088,vbt_B2_day2,2022.2.4,Win32,59.99520038,,,,,,,,,,,,,,,,,,,,,,,,,,,down,0,73.2182,,-0.395885088,0.119755171,1,0,0,0.8718,0,92,92,184,1,aandelen,images/br_aandelen.png,images/cb_aandelen.png,0,,,,,,,,,,,,,,,,,,,,,,
,,,,,,00015,2023-08-05_13h51.50.088,vbt_B2_day2,2022.2.4,Win32,59.99520038,,,,,,,,,,,,,,,,,,,,,,,,,,,down,0,5.9099,,-0.2540989,-0.08882287,1,0,0,0.6345,0,93,93,108,1,excuus,images/br_excuus.png,images/cb_excuus.png,0,,,,,,,,,,,,,,,,,,,,,,
,,,,,,00015,2023-08-05_13h51.50.088,vbt_B2_day2,2022.2.4,Win32,59.99520038,,,,,,,,,,,,,,,,,,,,,,,,,,,down,0,0.5173,,-0.211914549,0.00726364,1,0,0,0.3997,0,94,94,120,1,klimmen,images/br_klimmen.png,images/cb_klimmen.png,0,,,,,,,,,,,,,,,,,,,,,,
,,,,,,00015,2023-08-05_13h51.50.088,vbt_B2_day2,2022.2.4,Win32,59.99520038,,,,,,,,,,,,,,,,,,,,,,,,,,,down,0,0.3515,,-0.332608592,-0.039607804,1,0,0,0.3513,0,95,95,141,1,knielen,images/br_knielen.png,images/cb_knielen.png,0,,,,,,,,,,,,,,,,,,,,,,
,,,,,,00015,2023-08-05_13h51.50.088,vbt_B2_day2,2022.2.4,Win32,59.99520038,,,,,,,,,,,,,,,,,,,,,,,,,,,down,0,8.1273,,-0.274019279,-0.064215368,1,0,0,0.8834,0,96,96,191,1,opheffen,images/br_opheffen.png,images/cb_opheffen.png,0,,,,,,,,,,,,,,,,,,,,,,
,,,,,,00015,2023-08-05_13h51.50.088,vbt_B2_day2,2022.2.4,Win32,59.99520038,,,,,,,,,,,,,,,,,,,,,,,,,,,down,0,3.1843,,-0.407602926,-0.254044795,1,0,0,1.3005,0,97,97,23,1,zout,images/br_zout.png,images/cb_zout.png,0,,,,,,,,,,,,,,,,,,,,,,
,,,,,,00015,2023-08-05_13h51.50.088,vbt_B2_day2,2022.2.4,Win32,59.99520038,,,,,,,,,,,,,,,,,,,,,,,,,,,down,0,2.6185,,-0.421664417,-0.259903805,1,0,0,0.7346,0,98,98,198,1,bedoelen,images/br_bedoelen.png,images/cb_bedoelen.png,0,,,,,,,,,,,,,,,,,,,,,,
,,,,,,00015,2023-08-05_13h51.50.088,vbt_B2_day2,2022.2.4,Win32,59.99520038,,,,,,,,,,,,,,,,,,,,,,,,,,,down,0,0.75,,-0.411118283,-0.265762694,1,0,0,0.767,0,99,99,117,1,kennis,images/br_kennis.png,images/cb_kennis.png,0,,,,,,,,,,,,,,,,,,,,,,
,,,,,,00015,2023-08-05_13h51.50.088,vbt_B2_day2,2022.2.4,Win32,59.99520038,,,,,,,,,,,,,,,,,,,,,,,,,,,down,0,0.7559,,-0.372449351,-0.255216621,1,0,0,0.4831,0,100,100,181,1,toegeven,images/br_toegeven.png,images/cb_toegeven.png,0,,,,,,,,,,,,,,,,,,,,,,
,,,,,,00015,2023-08-05_13h51.50.088,vbt_B2_day2,2022.2.4,Win32,59.99520038,,,,,,,,,,,,,,,,,,,,,,,,,,,down,0,5.3681,,-0.380651831,-0.091166462,1,0,0,0.7015,0,101,101,139,1,stiekem,images/br_stiekem.png,images/cb_stiekem.png,1,stiekem,,,,,,,,,,,,,,,,,,,,,
,,,,,,00015,2023-08-05_13h51.50.088,vbt_B2_day2,2022.2.4,Win32,59.99520038,,,,,,,,,,,,,,,,,,,,,,,,,,,down,0,0.7012,,-0.460333349,-0.208345147,1,0,0,0.2507,0,102,102,106,1,zingen,images/br_zingen.png,images/cb_zingen.png,0,,,,,,,,,,,,,,,,,,,,,,
,,,,,,00015,2023-08-05_13h51.50.088,vbt_B2_day2,2022.2.4,Win32,59.99520038,,,,,,,,,,,,,,,,,,,,,,,,,,,down,0,5.2346,,-0.449787277,-0.22475023,1,0,0,0.8529,0,103,103,140,1,blijven,images/br_blijven.png,images/cb_blijven.png,0,,,,,,,,,,,,,,,,,,,,,,
,,,,,,00015,2023-08-05_13h51.50.088,vbt_B2_day2,2022.2.4,Win32,59.99520038,,,,,,,,,,,,,,,,,,,,,,,,,,,down,0,141.7141,,-0.347841848,-0.093510054,1,0,0,0.3845,0,104,104,70,1,ijdel,images/br_ijdel.png,images/cb_ijdel.png,0,,,,,,,,,,,,,,,,,,,,,,
,,,,,,00015,2023-08-05_13h51.50.088,vbt_B2_day2,2022.2.4,Win32,59.99520038,,,,,,,,,,,,,,,,,,,,,,,,,,,down,0,0.1192,,-0.291596067,-0.169676154,1,0,0,1.8987,0,105,105,40,1,schep,images/br_schep.png,images/cb_schep.png,0,,,,,,,,,,,,,,,,,,,,,,
,,,,,,00015,2023-08-05_13h51.50.088,vbt_B2_day2,2022.2.4,Win32,59.99520038,,,,,,,,,,,,,,,,,,,,,,,,,,,down,0,2.4597,,-0.341982898,-0.072417909,1,0,0,0.77,0,106,106,17,1,taal,images/br_taal.png,images/cb_taal.png,1,taal,,,,,,,,,,,,,,,,,,,,,
,,,,,,00015,2023-08-05_13h51.50.088,vbt_B2_day2,2022.2.4,Win32,59.99520038,,,,,,,,,,,,,,,,,,,,,,,,,,,down,0,1.0254,,-0.336123949,-0.104056127,1,0,0,0.5011,0,107,107,90,1,geluid,images/br_geluid.png,images/cb_geluid.png,0,,,,,,,,,,,,,,,,,,,,,,
,,,,,,00015,2023-08-05_13h51.50.088,vbt_B2_day2,2022.2.4,Win32,59.99520038,,,,,,,,,,,,,,,,,,,,,,,,,,,down,0,0.3567,,-0.375964708,-0.174363338,1,0,0,0.8009,0,108,108,153,1,vervoer,images/br_vervoer.png,images/cb_vervoer.png,0,,,,,,,,,,,,,,,,,,,,,,
,,,,,,00015,2023-08-05_13h51.50.088,vbt_B2_day2,2022.2.4,Win32,59.99520038,,,,,,,,,,,,,,,,,,,,,,,,,,,down,0,2.101,,-0.337295715,-0.20482979,1,0,0,0.7395,0,109,109,130,1,keihard,images/br_keihard.png,images/cb_keihard.png,0,,,,,,,,,,,,,,,,,,,,,,
,,,,,,00015,2023-08-05_13h51.50.088,vbt_B2_day2,2022.2.4,Win32,59.99520038,,,,,,,,,,,,,,,,,,,,,,,,,,,down,0,0.4685,,-0.331436826,-0.141553294,1,0,0,0.8855,0,110,110,87,1,toeval,images/br_toeval.png,images/cb_toeval.png,0,,,,,,,,,,,,,,,,,,,,,,
,,,,,,00015,2023-08-05_13h51.50.088,vbt_B2_day2,2022.2.4,Win32,59.99520038,,,,,,,,,,,,,,,,,,,,,,,,,,,down,0,4.3853,,-0.422836182,-0.125148272,1,0,0,0.5517,0,111,111,165,1,feestdag,images/br_feestdag.png,images/cb_feestdag.png,0,,,,,,,,,,,,,,,,,,,,,,
,,,,,,00015,2023-08-05_13h51.50.088,vbt_B2_day2,2022.2.4,Win32,59.99520038,,,,,,,,,,,,,,,,,,,,,,,,,,,down,0,10.4211,,-0.39236973,-0.097025412,1,0,0,0.4168,0,112,112,138,1,akkoord,images/br_akkoord.png,images/cb_akkoord.png,1,akkoord,,,,,,,,,,,,,,,,,,,,,
,,,,,,00015,2023-08-05_13h51.50.088,vbt_B2_day2,2022.2.4,Win32,59.99520038,,,,,,,,,,,,,,,,,,,,,,,,,,,down,0,40.0612,,-0.40643116,0.009607201,1,0,0,0.3988,0,113,113,31,1,poes,images/br_poes.png,images/cb_poes.png,0,,,,,,,,,,,,,,,,,,,,,,
,,,,,,00015,2023-08-05_13h51.50.088,vbt_B2_day2,2022.2.4,Win32,59.99520038,,,,,,,,,,,,,,,,,,,,,,,,,,,down,0,2.6342,,0.372807111,-0.173191511,1,0,0,1.1838,0,114,114,147,1,komisch,images/br_komisch.png,images/cb_komisch.png,0,,,,,,,,,,,,,,,,,,,,,,
,,,,,,00015,2023-08-05_13h51.50.088,vbt_B2_day2,2022.2.4,Win32,59.99520038,,,,,,,,,,,,,,,,,,,,,,,,,,,down,0,0.2701,,0.72903029,-0.154442958,1,0,0,7.9691,0,115,115,88,1,boeien,images/br_boeien.png,images/cb_boeien.png,0,,,,,,,,,,,,,,,,,,,,,,
,,,,,,00015,2023-08-05_13h51.50.088,vbt_B2_day2,2022.2.4,Win32,59.99520038,,,,,,,,,,,,,,,,,,,,,,,,,,,down,0,2.4473,,0.212272249,-0.020859251,1,0,0,1.0826,0,116,116,145,1,invloed,images/br_invloed.png,images/cb_invloed.png,0,,,,,,,,,,,,,,,,,,,,,,
,,,,,,00015,2023-08-05_13h51.50.088,vbt_B2_day2,2022.2.4,Win32,59.99520038,,,,,,,,,,,,,,,,,,,,,,,,,,,down,0,2.567,,0.460691049,-0.135694344,1,0,0,0.6862,0,117,117,18,1,blik,images/br_blik.png,images/cb_blik.png,1,blik,,,,,,,,,,,,,,,,,,,,,
,,,,,,00015,2023-08-05_13h51.50.088,vbt_B2_day2,2022.2.4,Win32,59.99520038,,,,,,,,,,,,,,,,,,,,,,,,,,,down,0,2.4404,,0.530998321,-0.048982111,1,0,0,1.1038,0,118,118,128,1,prikken,images/br_prikken.png,images/cb_prikken.png,0,,,,,,,,,,,,,,,,,,,,,,
,,,,,,00015,2023-08-05_13h51.50.088,vbt_B2_day2,2022.2.4,Win32,59.99520038,,,,,,,,,,,,,,,,,,,,,,,,,,,down,0,0.4175,,0.511077881,-0.085307513,1,0,0,1.3509,0,119,119,5,1,blad,images/br_blad.png,images/cb_blad.png,0,,,,,,,,,,,,,,,,,,,,,,
,,,,,,00015,2023-08-05_13h51.50.088,vbt_B2_day2,2022.2.4,Win32,59.99520038,,,,,,,,,,,,,,,,,,,,,,,,,,,down,0,11.1002,,0.446629619,-0.025546374,1,0,0,0.5861,0,120,120,183,1,getuigen,images/br_getuigen.png,images/cb_getuigen.png,0,,,,,,,,,,,,,,,,,,,,,,
,,,,,,00015,2023-08-05_13h51.50.088,vbt_B2_day2,2022.2.4,Win32,59.99520038,,,,,,,,,,,,,,,,,,,,,,,,,,,down,0,21.4167,,-0.31034462,-0.129835395,1,0,0,0.5195,0,121,121,46,1,jagen,images/br_jagen.png,images/cb_jagen.png,0,,,,,,,,,,,,,,,,,,,,,,
,,,,,,00015,2023-08-05_13h51.50.088,vbt_B2_day2,2022.2.4,Win32,59.99520038,,,,,,,,,,,,,,,,,,,,,,,,,,,down,0,0.2008,,-0.363075044,-0.063043541,1,0,0,0.4339,0,122,122,45,1,piste,images/br_piste.png,images/cb_piste.png,0,,,,,,,,,,,,,,,,,,,,,,
,,,,,,00015,2023-08-05_13h51.50.088,vbt_B2_day2,2022.2.4,Win32,59.99520038,,,,,,,,,,,,,,,,,,,,,,,,,,,down,0,0.1507,,-0.416977233,-0.011484944,1,0,0,0.2361,0,123,123,84,1,lokken,images/br_lokken.png,images/cb_lokken.png,0,,,,,,,,,,,,,,,,,,,,,,
,,,,,,00015,2023-08-05_13h51.50.088,vbt_B2_day2,2022.2.4,Win32,59.99520038,,,,,,,,,,,,,,,,,,,,,,,,,,,down,0,0.018,,-0.379480066,-0.052497469,1,0,0,0.4692,0,124,124,61,1,groen,images/br_groen.png,images/cb_groen.png,0,,,,,,,,,,,,,,,,,,,,,,
,,,,,,00015,2023-08-05_13h51.50.088,vbt_B2_day2,2022.2.4,Win32,59.99520038,,,,,,,,,,,,,,,,,,,,,,,,,,,down,0,0.3686,,-0.23417852,-0.119289322,1,0,0,0.4833,0,125,125,32,1,palm,images/br_palm.png,images/cb_palm.png,0,,,,,,,,,,,,,,,,,,,,,,
,,,,,,00015,2023-08-05_13h51.50.088,vbt_B2_day2,2022.2.4,Win32,59.99520038,,,,,,,,,,,,,,,,,,,,,,,,,,,down,0,57.8984,,-0.421664417,-0.101712535,1,0,0,0.3027,0,126,126,14,1,rijp,images/br_rijp.png,images/cb_rijp.png,0,,,,,,,,,,,,,,,,,,,,,,
,,,,,,00015,2023-08-05_13h51.50.088,vbt_B2_day2,2022.2.4,Win32,59.99520038,,,,,,,,,,,,,,,,,,,,,,,,,,,down,0,0.1016,,-0.332608592,-0.037264273,1,0,0,0.4172,0,127,127,75,1,snoep,images/br_snoep.png,images/cb_snoep.png,0,,,,,,,,,,,,,,,,,,,,,,
,,,,,,00015,2023-08-05_13h51.50.088,vbt_B2_day2,2022.2.4,Win32,59.99520038,,,,,,,,,,,,,,,,,,,,,,,,,,,down,0,32.5863,,-0.523609784,-0.061871836,1,0,0,1.2662,0,128,128,168,1,bisschop,images/br_bisschop.png,images/cb_bisschop.png,0,,,,,,,,,,,,,,,,,,,,,,
,,,,,,00015,2023-08-05_13h51.50.088,vbt_B2_day2,2022.2.4,Win32,59.99520038,,,,,,,,,,,,,,,,,,,,,,,,,,,down,0,44.1937,,-0.388854373,-0.182565818,1,0,0,1.2675,0,129,129,110,1,zuster,images/br_zuster.png,images/cb_zuster.png,0,,,,,,,,,,,,,,,,,,,,,,
,,,,,,00015,2023-08-05_13h51.50.088,vbt_B2_day2,2022.2.4,Win32,59.99520038,,,,,,,,,,,,,,,,,,,,,,,,,,,down,0,0.8851,,-0.400572211,-0.230609058,1,0,0,0.4826,0,130,130,131,1,opzicht,images/br_opzicht.png,images/cb_opzicht.png,0,,,,,,,,,,,,,,,,,,,,,,
,,,,,,00015,2023-08-05_13h51.50.088,vbt_B2_day2,2022.2.4,Win32,59.99520038,,,,,,,,,,,,,,,,,,,,,,,,,,,down,0,6.3942,,-0.393541496,-0.09468182,1,0,0,0.6644,0,131,131,99,1,koffie,images/br_koffie.png,images/cb_koffie.png,1,koffie,,,,,,,,,,,,,,,,,,,,,
,,,,,,00015,2023-08-05_13h51.50.088,vbt_B2_day2,2022.2.4,Win32,59.99520038,,,,,,,,,,,,,,,,,,,,,,,,,,,down,0,43.0656,,-0.456817992,-0.180222226,1,0,0,0.4023,0,132,132,189,1,aanraden,images/br_aanraden.png,images/cb_aanraden.png,0,,,,,,,,,,,,,,,,,,,,,,
,,,,,,00015,2023-08-05_13h51.50.088,vbt_B2_day2,2022.2.4,Win32,59.99520038,,,,,,,,,,,,,,,,,,,,,,,,,,,down,0,0.084,,-0.364246809,-0.244670549,1,0,0,0.4216,0,133,133,26,1,leuk,images/br_leuk.png,images/cb_leuk.png,0,,,,,,,,,,,,,,,,,,,,,,
,,,,,,00015,2023-08-05_13h51.50.088,vbt_B2_day2,2022.2.4,Win32,59.99520038,,,,,,,,,,,,,,,,,,,,,,,,,,,down,0,0.2341,,-0.359559686,-0.254044795,1,0,0,1.0503,0,134,134,55,1,praat,images/br_praat.png,images/cb_praat.png,0,,,,,,,,,,,,,,,,,,,,,,
,,,,,,00015,2023-08-05_13h51.50.088,vbt_B2_day2,2022.2.4,Win32,59.99520038,,,,,,,,,,,,,,,,,,,,,,,,,,,down,0,5.5547,,-0.414633641,-0.10874325,1,0,0,5.7658,0,135,135,73,1,volop,images/br_volop.png,images/cb_volop.png,0,,,,,,,,,,,,,,,,,,,,,,
,,,,,,00015,2023-08-05_13h51.50.088,vbt_B2_day2,2022.2.4,Win32,59.99520038,,,,,,,,,,,,,,,,,,,,,,,,,,,down,0,0.4503,,-0.459161584,-0.285683073,1,0,0,0.3887,0,136,136,166,1,strikken,images/br_strikken.png,images/cb_strikken.png,0,,,,,,,,,,,,,,,,,,,,,,
,,,,,,00015,2023-08-05_13h51.50.088,vbt_B2_day2,2022.2.4,Win32,59.99520038,,,,,,,,,,,,,,,,,,,,,,,,,,,down,0,0.1182,,-0.407602926,-0.313805933,1,0,0,0.5315,0,137,137,8,1,knie,images/br_knie.png,images/cb_knie.png,0,,,,,,,,,,,,,,,,,,,,,,
,,,,,,00015,2023-08-05_13h51.50.088,vbt_B2_day2,2022.2.4,Win32,59.99520038,,,,,,,,,,,,,,,,,,,,,,,,,,,down,0,4.0011,,-0.347841848,-0.324352006,1,0,0,0.534,0,138,138,83,1,mening,images/br_mening.png,images/cb_mening.png,0,,,,,,,,,,,,,,,,,,,,,,
,,,,,,00015,2023-08-05_13h51.50.088,vbt_B2_day2,2022.2.4,Win32,59.99520038,,,,,,,,,,,,,,,,,,,,,,,,,,,down,0,4.9337,,-0.5306405,-0.139209702,1,0,0,55.3695,0,139,139,135,1,gedicht,images/br_gedicht.png,images/cb_gedicht.png,0,,,,,,,,,,,,,,,,,,,,,,
,,,,,,00015,2023-08-05_13h51.50.088,vbt_B2_day2,2022.2.4,Win32,59.99520038,,,,,,,,,,,,,,,,,,,,,,,,,,,down,0,8.7342,,-0.3783083,-0.191940125,1,0,0,0.5366,0,140,140,71,1,bever,images/br_bever.png,images/cb_bever.png,0,,,,,,,,,,,,,,,,,,,,,,
,,,,,,00015,2023-08-05_13h51.50.088,vbt_B2_day2,2022.2.4,Win32,59.99520038,,,,,,,,,,,,,,,,,,,,,,,,,,,down,0,2.4747,,-0.442756562,-0.183737584,1,0,0,0.5523,0,141,141,52,1,wagon,images/br_wagon.png,images/cb_wagon.png,0,,,,,,,,,,,,,,,,,,,,,,
,,,,,,00015,2023-08-05_13h51.50.088,vbt_B2_day2,2022.2.4,Win32,59.99520038,,,,,,,,,,,,,,,,,,,,,,,,,,,down,0,0.6101,,-0.377136474,-0.222406577,1,0,0,0.4838,0,142,142,125,1,aanzien,images/br_aanzien.png,images/cb_aanzien.png,0,,,,,,,,,,,,,,,,,,,,,,
,,,,,,00015,2023-08-05_13h51.50.088,vbt_B2_day2,2022.2.4,Win32,59.99520038,,,,,,,,,,,,,,,,,,,,,,,,,,,down,0,0.6344,,-0.384167189,-0.2270937,1,0,0,0.4223,0,143,143,53,1,baron,images/br_baron.png,images/cb_baron.png,0,,,,,,,,,,,,,,,,,,,,,,
,,,,,,00015,2023-08-05_13h51.50.088,vbt_B2_day2,2022.2.4,Win32,59.99520038,,,,,,,,,,,,,,,,,,,,,,,,,,,down,0,0.4881,,-0.374792942,-0.234124476,1,0,0,1.1828,0,144,144,33,1,vlek,images/br_vlek.png,images/cb_vlek.png,0,,,,,,,,,,,,,,,,,,,,,,
,,,,,,00015,2023-08-05_13h51.50.088,vbt_B2_day2,2022.2.4,Win32,59.99520038,,,,,,,,,,,,,,,,,,,,,,,,,,,down,0,4.1186,,-0.336123949,-0.189596533,1,0,0,0.5372,0,145,145,113,1,koppen,images/br_koppen.png,images/cb_koppen.png,0,,,,,,,,,,,,,,,,,,,,,,
,,,,,,00015,2023-08-05_13h51.50.088,vbt_B2_day2,2022.2.4,Win32,59.99520038,,,,,,,,,,,,,,,,,,,,,,,,,,,down,0,2.0013,,-0.500174108,-0.206001555,1,0,0,1.2517,0,146,146,15,1,soda,images/br_soda.png,images/cb_soda.png,0,,,,,,,,,,,,,,,,,,,,,,
,,,,,,00015,2023-08-05_13h51.50.088,vbt_B2_day2,2022.2.4,Win32,59.99520038,,,,,,,,,,,,,,,,,,,,,,,,,,,down,0,0.498,,-0.459161584,-0.215375862,1,0,0,0.5651,0,147,147,80,1,kanjer,images/br_kanjer.png,images/cb_kanjer.png,0,,,,,,,,,,,,,,,,,,,,,,
,,,,,,00015,2023-08-05_13h51.50.088,vbt_B2_day2,2022.2.4,Win32,59.99520038,,,,,,,,,,,,,,,,,,,,,,,,,,,down,0,0.1071,,-0.452130869,-0.220062985,1,0,0,0.5033,0,148,148,89,1,slapen,images/br_slapen.png,images/cb_slapen.png,0,,,,,,,,,,,,,,,,,,,,,,
,,,,,,00015,2023-08-05_13h51.50.088,vbt_B2_day2,2022.2.4,Win32,59.99520038,,,,,,,,,,,,,,,,,,,,,,,,,,,down,0,1.3185,,-0.442756562,-0.225921935,1,0,0,0.349,0,149,149,158,1,innemen,images/br_innemen.png,images/cb_innemen.png,0,,,,,,,,,,,,,,,,,,,,,,
,,,,,,00015,2023-08-05_13h51.50.088,vbt_B2_day2,2022.2.4,Win32,59.99520038,,,,,,,,,,,,,,,,,,,,,,,,,,,down,0,2.2506,,-0.431038663,-0.237639834,1,0,0,0.2515,0,150,150,144,1,eetlust,images/br_eetlust.png,images/cb_eetlust.png,0,,,,,,,,,,,,,,,,,,,,,,
,,,,,,00015,2023-08-05_13h51.50.088,vbt_B2_day2,2022.2.4,Win32,59.99520038,,,,,,,,,,,,,,,,,,,,,,,,,,,down,0,0.6665,,-0.439241204,-0.228265588,1,0,0,0.5496,0,151,151,65,1,parel,images/br_parel.png,images/cb_parel.png,0,,,,,,,,,,,,,,,,,,,,,,
,,,,,,00015,2023-08-05_13h51.50.088,vbt_B2_day2,2022.2.4,Win32,59.99520038,,,,,,,,,,,,,,,,,,,,,,,,,,,down,0,32.1519,,-0.312688212,-0.053669295,1,0,0,1.349,0,152,152,69,1,waken,images/br_waken.png,images/cb_waken.png,0,,,,,,,,,,,,,,,,,,,,,,
,,,,,,00015,2023-08-05_13h51.50.088,vbt_B2_day2,2022.2.4,Win32,59.99520038,,,,,,,,,,,,,,,,,,,,,,,,,,,down,0,0.5019,,-0.416977233,-0.23881166,1,0,0,0.4497,0,153,153,39,1,laag,images/br_laag.png,images/cb_laag.png,0,,,,,,,,,,,,,,,,,,,,,,
,,,,,,00015,2023-08-05_13h51.50.088,vbt_B2_day2,2022.2.4,Win32,59.99520038,,,,,,,,,,,,,,,,,,,,,,,,,,,down,0,0.1175,,-0.364246809,-0.263419163,1,0,0,0.4713,0,154,154,6,1,diep,images/br_diep.png,images/cb_diep.png,0,,,,,,,,,,,,,,,,,,,,,,
,,,,,,00015,2023-08-05_13h51.50.088,vbt_B2_day2,2022.2.4,Win32,59.99520038,,,,,,,,,,,,,,,,,,,,,,,,,,,down,0,0.422,,-0.35838792,-0.258731979,1,0,0,0.4702,0,155,155,105,1,wijlen,images/br_wijlen.png,images/cb_wijlen.png,0,,,,,,,,,,,,,,,,,,,,,,
,,,,,,00015,2023-08-05_13h51.50.088,vbt_B2_day2,2022.2.4,Win32,59.99520038,,,,,,,,,,,,,,,,,,,,,,,,,,,down,0,0.5512,,-0.351357205,-0.259903805,1,0,0,0.4497,0,156,156,192,1,schaamte,images/br_schaamte.png,images/cb_schaamte.png,0,,,,,,,,,,,,,,,,,,,,,,
,,,,,,00015,2023-08-05_13h51.50.088,vbt_B2_day2,2022.2.4,Win32,59.99520038,,,,,,,,,,,,,,,,,,,,,,,,,,,down,0,0.2581,,-0.34432643,-0.262247336,1,0,0,0.4649,0,157,157,63,1,flirt,images/br_flirt.png,images/cb_flirt.png,0,,,,,,,,,,,,,,,,,,,,,,
,,,,,,00015,2023-08-05_13h51.50.088,vbt_B2_day2,2022.2.4,Win32,59.99520038,,,,,,,,,,,,,,,,,,,,,,,,,,,down,0,0.438,,-0.352528971,-0.264590928,1,0,0,0.4331,0,158,158,180,1,openbaar,images/br_openbaar.png,images/cb_openbaar.png,0,,,,,,,,,,,,,,,,,,,,,,
,,,,,,00015,2023-08-05_13h51.50.088,vbt_B2_day2,2022.2.4,Win32,59.99520038,,,,,,,,,,,,,,,,,,,,,,,,,,,down,0,1.775,,-0.332608592,-0.276308766,1,0,0,0.488,0,159,159,36,1,vuur,images/br_vuur.png,images/cb_vuur.png,0,,,,,,,,,,,,,,,,,,,,,,
,,,,,,00015,2023-08-05_13h51.50.088,vbt_B2_day2,2022.2.4,Win32,59.99520038,,,,,,,,,,,,,,,,,,,,,,,,,,,down,0,0.1177,,-0.333780357,-0.275137001,1,0,0,0.566,0,160,160,155,1,gerucht,images/br_gerucht.png,images/cb_gerucht.png,0,,,,,,,,,,,,,,,,,,,,,,
,,,,,,00015,2023-08-05_13h51.50.088,vbt_B2_day2,2022.2.4,Win32,59.99520038,,,,,,,,,,,,,,,,,,,,,,,,,,,down,0,0.9516,,-0.333780357,-0.275137001,1,0,0,0.3354,0,161,161,74,1,graaf,images/br_graaf.png,images/cb_graaf.png,0,,,,,,,,,,,,,,,,,,,,,,
,,,,,,00015,2023-08-05_13h51.50.088,vbt_B2_day2,2022.2.4,Win32,59.99520038,,,,,,,,,,,,,,,,,,,,,,,,,,,down,0,1.2737,,-0.326749642,-0.275137001,1,0,0,0.4179,0,162,162,115,1,kleren,images/br_kleren.png,images/cb_kleren.png,0,,,,,,,,,,,,,,,,,,,,,,
,,,,,,00015,2023-08-05_13h51.50.088,vbt_B2_day2,2022.2.4,Win32,59.99520038,,,,,,,,,,,,,,,,,,,,,,,,,,,down,0,0.8044,,-0.320890753,-0.276308766,1,0,0,0.5044,0,163,163,100,1,geduld,images/br_geduld.png,images/cb_geduld.png,0,,,,,,,,,,,,,,,,,,,,,,
,,,,,,00015,2023-08-05_13h51.50.088,vbt_B2_day2,2022.2.4,Win32,59.99520038,,,,,,,,,,,,,,,,,,,,,,,,,,,down,0,1.8209,,-0.315031804,-0.277480654,1,0,0,0.518,0,164,164,72,1,strak,images/br_strak.png,images/cb_strak.png,0,,,,,,,,,,,,,,,,,,,,,,
,,,,,,00015,2023-08-05_13h51.50.088,vbt_B2_day2,2022.2.4,Win32,59.99520038,,,,,,,,,,,,,,,,,,,,,,,,,,,down,0,6.3672,,-0.386510781,-0.270449939,1,0,0,0.4517,0,165,165,177,1,maaltijd,images/br_maaltijd.png,images/cb_maaltijd.png,1,maaltijd,,,,,,,,,,,,,,,,,,,,,
,,,,,,00015,2023-08-05_13h51.50.088,vbt_B2_day2,2022.2.4,Win32,59.99520038,,,,,,,,,,,,,,,,,,,,,,,,,,,down,0,5.8001,,-0.429866897,-0.23881166,1,0,0,0.4033,0,166,166,41,1,maken,images/br_maken.png,images/cb_maken.png,0,,,,,,,,,,,,,,,,,,,,,,
,,,,,,00015,2023-08-05_13h51.50.088,vbt_B2_day2,2022.2.4,Win32,59.99520038,,,,,,,,,,,,,,,,,,,,,,,,,,,down,0,1.7847,,-0.416977233,-0.25287309,1,0,0,0.7349,0,167,167,150,1,gegeven,images/br_gegeven.png,images/cb_gegeven.png,0,,,,,,,,,,,,,,,,,,,,,,
,,,,,,00015,2023-08-05_13h51.50.088,vbt_B2_day2,2022.2.4,Win32,59.99520038,,,,,,,,,,,,,,,,,,,,,,,,,,,down,0,1.3104,,-0.391197904,-0.230609058,1,0,0,0.3683,0,168,168,193,1,weeshuis,images/br_weeshuis.png,images/cb_weeshuis.png,0,,,,,,,,,,,,,,,,,,,,,,
,,,,,,00015,2023-08-05_13h51.50.088,vbt_B2_day2,2022.2.4,Win32,59.99520038,,,,,,,,,,,,,,,,,,,,,,,,,,,down,0,0.2341,,-0.466192299,-0.248185906,1,0,0,0.7004,0,169,169,114,1,vullen,images/br_vullen.png,images/cb_vullen.png,0,,,,,,,,,,,,,,,,,,,,,,
,,,,,,00015,2023-08-05_13h51.50.088,vbt_B2_day2,2022.2.4,Win32,59.99520038,,,,,,,,,,,,,,,,,,,,,,,,,,,down,0,1.4663,,-0.407602926,-0.334898139,1,0,0,0.5176,0,170,170,116,1,besmet,images/br_besmet.png,images/cb_besmet.png,0,,,,,,,,,,,,,,,,,,,,,,
,,,,,,00015,2023-08-05_13h51.50.088,vbt_B2_day2,2022.2.4,Win32,59.99520038,,,,,,,,,,,,,,,,,,,,,,,,,,,down,0,0.7354,,-0.431038663,-0.320836649,1,0,0,0.7681,0,171,171,182,1,bijkomen,images/br_bijkomen.png,images/cb_bijkomen.png,0,,,,,,,,,,,,,,,,,,,,,,
,,,,,,00015,2023-08-05_13h51.50.088,vbt_B2_day2,2022.2.4,Win32,59.99520038,,,,,,,,,,,,,,,,,,,,,,,,,,,down,0,0.1468,,-0.452130869,-0.305603514,1,0,0,0.4203,0,172,172,161,1,attentie,images/br_attentie.png,images/cb_attentie.png,0,,,,,,,,,,,,,,,,,,,,,,
,,,,,,00015,2023-08-05_13h51.50.088,vbt_B2_day2,2022.2.4,Win32,59.99520038,,,,,,,,,,,,,,,,,,,,,,,,,,,down,0,1.2515,,-0.399400445,-0.311462402,1,0,0,0.8691,0,173,173,190,1,goedkoop,images/br_goedkoop.png,images/cb_goedkoop.png,0,,,,,,,,,,,,,,,,,,,,,,
,,,,,,00015,2023-08-05_13h51.50.088,vbt_B2_day2,2022.2.4,Win32,59.99520038,,,,,,,,,,,,,,,,,,,,,,,,,,,down,0,0.532,,-0.441584796,-0.351303222,1,0,0,1.2641,0,174,174,174,1,stemming,images/br_stemming.png,images/cb_stemming.png,0,,,,,,,,,,,,,,,,,,,,,,
,,,,,,00015,2023-08-05_13h51.50.088,vbt_B2_day2,2022.2.4,Win32,59.99520038,,,,,,,,,,,,,,,,,,,,,,,,,,,down,0,0.4851,,-0.435725847,-0.323180301,1,0,0,0.8007,0,175,175,85,1,heilig,images/br_heilig.png,images/cb_heilig.png,0,,,,,,,,,,,,,,,,,,,,,,
,,,,,,00015,2023-08-05_13h51.50.088,vbt_B2_day2,2022.2.4,Win32,59.99520038,,,,,,,,,,,,,,,,,,,,,,,,,,,down,0,1.2686,,-0.486112678,-0.334898139,1,0,0,0.5365,0,176,176,66,1,lever,images/br_lever.png,images/cb_lever.png,0,,,,,,,,,,,,,,,,,,,,,,
,,,,,,00015,2023-08-05_13h51.50.088,vbt_B2_day2,2022.2.4,Win32,59.99520038,,,,,,,,,,,,,,,,,,,,,,,,,,,down,0,1.0342,,-0.477910137,-0.341928854,1,0,0,0.5682,0,177,177,162,1,uitdelen,images/br_uitdelen.png,images/cb_uitdelen.png,0,,,,,,,,,,,,,,,,,,,,,,
,,,,,,00015,2023-08-05_13h51.50.088,vbt_B2_day2,2022.2.4,Win32,59.99520038,,,,,,,,,,,,,,,,,,,,,,,,,,,down,0,4.3353,,-0.557591655,-0.289198431,1,0,0,0.4684,0,178,178,173,1,apparaat,images/br_apparaat.png,images/cb_apparaat.png,0,,,,,,,,,,,,,,,,,,,,,,
,,,,,,00015,2023-08-05_13h51.50.088,vbt_B2_day2,2022.2.4,Win32,59.99520038,,,,,,,,,,,,,,,,,,,,,,,,,,,down,0,13.5341,,-0.393541496,-0.249357733,1,0,0,0.6687,0,179,179,179,1,woestijn,images/br_woestijn.png,images/cb_woestijn.png,1,woestijn,,,,,,,,,,,,,,,,,,,,,
,,,,,,00015,2023-08-05_13h51.50.088,vbt_B2_day2,2022.2.4,Win32,59.99520038,,,,,,,,,,,,,,,,,,,,,,,,,,,down,0,13.9439,,-0.393541496,-0.322008475,1,0,0,1.1302,0,180,180,59,1,kring,images/br_kring.png,images/cb_kring.png,1,kring,,,,,,,,,,,,,,,,,,,,,
,,,,,,00015,2023-08-05_13h51.50.088,vbt_B2_day2,2022.2.4,Win32,59.99520038,,,,,,,,,,,,,,,,,,,,,,,,,,,down,0,0.6251,,-0.673598544,-0.333726374,1,0,0,0.669,0,181,181,102,1,legaal,images/br_legaal.png,images/cb_legaal.png,0,,,,,,,,,,,,,,,,,,,,,,
,,,,,,00015,2023-08-05_13h51.50.088,vbt_B2_day2,2022.2.4,Win32,59.99520038,,,,,,,,,,,,,,,,,,,,,,,,,,,down,0,2.278,,-0.556419889,-0.306775218,1,0,0,0.5993,0,182,182,196,1,nakijken,images/br_nakijken.png,images/cb_nakijken.png,0,,,,,,,,,,,,,,,,,,,,,,
,,,,,,00015,2023-08-05_13h51.50.088,vbt_B2_day2,2022.2.4,Win32,59.99520038,,,,,,,,,,,,,,,,,,,,,,,,,,,down,0,0.0557,,-0.502517639,-0.389972155,1,0,0,0.5838,0,183,183,175,1,heengaan,images/br_heengaan.png,images/cb_heengaan.png,0,,,,,,,,,,,,,,,,,,,,,,
,,,,,,00015,2023-08-05_13h51.50.088,vbt_B2_day2,2022.2.4,Win32,59.99520038,,,,,,,,,,,,,,,,,,,,,,,,,,,down,0,7.1439,,-0.416977233,-0.201314432,1,0,0,0.4711,0,184,184,58,1,tekst,images/br_tekst.png,images/cb_tekst.png,1,tekst,,,,,,,,,,,,,,,,,,,,,
,,,,,,00015,2023-08-05_13h51.50.088,vbt_B2_day2,2022.2.4,Win32,59.99520038,,,,,,,,,,,,,,,,,,,,,,,,,,,down,0,15.8111,,-0.401744037,-0.262247336,1,0,0,0.4814,0,185,185,136,1,waarbij,images/br_waarbij.png,images/cb_waarbij.png,1,waarbij,,,,,,,,,,,,,,,,,,,,,
,,,,,,00015,2023-08-05_13h51.50.088,vbt_B2_day2,2022.2.4,Win32,59.99520038,,,,,,,,,,,,,,,,,,,,,,,,,,,down,0,5.0509,,-0.673598544,-0.336069905,1,0,0,0.4353,0,186,186,103,1,joggen,images/br_joggen.png,images/cb_joggen.png,0,,,,,,,,,,,,,,,,,,,,,,
,,,,,,00015,2023-08-05_13h51.50.088,vbt_B2_day2,2022.2.4,Win32,59.99520038,,,,,,,,,,,,,,,,,,,,,,,,,,,down,0,0.9538,,-0.677113932,-0.39700287,1,0,0,0.5164,0,187,187,51,1,samen,images/br_samen.png,images/cb_samen.png,0,,,,,,,,,,,,,,,,,,,,,,
,,,,,,00015,2023-08-05_13h51.50.088,vbt_B2_day2,2022.2.4,Win32,59.99520038,,,,,,,,,,,,,,,,,,,,,,,,,,,down,0,6.7568,,-0.462676941,-0.251701264,1,0,0,0.4671,0,188,188,98,1,kreeft,images/br_kreeft.png,images/cb_kreeft.png,1,kreeft,,,,,,,,,,,,,,,,,,,,,
,,,,,,00015,2023-08-05_13h51.50.088,vbt_B2_day2,2022.2.4,Win32,59.99520038,,,,,,,,,,,,,,,,,,,,,,,,,,,down,0,0.0454,,-0.622039917,-0.286854839,1,0,0,0.5678,0,189,189,28,1,stal,images/br_stal.png,images/cb_stal.png,0,,,,,,,,,,,,,,,,,,,,,,
,,,,,,00015,2023-08-05_13h51.50.088,vbt_B2_day2,2022.2.4,Win32,59.99520038,,,,,,,,,,,,,,,,,,,,,,,,,,,down,0,1.9751,,-0.468535891,-0.12280468,1,0,0,0.4676,0,190,190,54,1,gebit,images/br_gebit.png,images/cb_gebit.png,0,,,,,,,,,,,,,,,,,,,,,,
,,,,,,00015,2023-08-05_13h51.50.088,vbt_B2_day2,2022.2.4,Win32,59.99520038,,,,,,,,,,,,,,,,,,,,,,,,,,,down,0,1.4348,,-0.500174108,-0.220062985,1,0,0,0.3852,0,191,191,78,1,leren,images/br_leren.png,images/cb_leren.png,0,,,,,,,,,,,,,,,,,,,,,,
,,,,,,00015,2023-08-05_13h51.50.088,vbt_B2_day2,2022.2.4,Win32,59.99520038,,,,,,,,,,,,,,,,,,,,,,,,,,,down,0,8.4337,,-0.405259395,-0.142725059,1,0,0,0.3936,0,192,192,24,1,jurk,images/br_jurk.png,images/cb_jurk.png,0,,,,,,,,,,,,,,,,,,,,,,
,,,,,,00015,2023-08-05_13h51.50.088,vbt_B2_day2,2022.2.4,Win32,59.99520038,,,,,,,,,,,,,,,,,,,,,,,,,,,down,0,0.2675,,-0.381823658,-0.230609058,1,0,0,0.5681,0,193,193,94,1,oceaan,images/br_oceaan.png,images/cb_oceaan.png,0,,,,,,,,,,,,,,,,,,,,,,
,,,,,,00015,2023-08-05_13h51.50.088,vbt_B2_day2,2022.2.4,Win32,59.99520038,,,,,,,,,,,,,,,,,,,,,,,,,,,down,0,0.9599,,-0.388854373,-0.248185906,1,0,0,0.4834,0,194,194,188,1,strekken,images/br_strekken.png,images/cb_strekken.png,0,,,,,,,,,,,,,,,,,,,,,,
,,,,,,00015,2023-08-05_13h51.50.088,vbt_B2_day2,2022.2.4,Win32,59.99520038,,,,,,,,,,,,,,,,,,,,,,,,,,,down,0,3.6596,,-0.606806721,-0.372395367,1,0,0,0.3829,0,195,195,97,1,loyaal,images/br_loyaal.png,images/cb_loyaal.png,1,loyaal,,,,,,,,,,,,,,,,,,,,,
,,,,,,00015,2023-08-05_13h51.50.088,vbt_B2_day2,2022.2.4,Win32,59.99520038,,,,,,,,,,,,,,,,,,,,,,,,,,,down,0,1.1517,,-0.733359683,-0.359505642,1,0,0,1.0863,0,196,196,123,1,hiervan,images/br_hiervan.png,images/cb_hiervan.png,0,,,,,,,,,,,,,,,,,,,,,,
,,,,,,00015,2023-08-05_13h51.50.088,vbt_B2_day2,2022.2.4,Win32,59.99520038,,,,,,,,,,,,,,,,,,,,,,,,,,,down,0,0.5681,,-0.532984152,-0.296229146,1,0,0,0.2825,0,197,197,195,1,middelen,images/br_middelen.png,images/cb_middelen.png,0,,,,,,,,,,,,,,,,,,,,,,
,,,,,,00015,2023-08-05_13h51.50.088,vbt_B2_day2,2022.2.4,Win32,59.99520038,,,,,,,,,,,,,,,,,,,,,,,,,,,down,0,1.0006,,-0.541186633,-0.291542084,1,0,0,0.4191,0,198,198,164,1,anarchie,images/br_anarchie.png,images/cb_anarchie.png,0,,,,,,,,,,,,,,,,,,,,,,
,,,,,,00015,2023-08-05_13h51.50.088,vbt_B2_day2,2022.2.4,Win32,59.99520038,,,,,,,,,,,,,,,,,,,,,,,,,,,down,0,1.3905,,-0.55876342,-0.289198431,1,0,0,0.4672,0,199,199,187,1,opkijken,images/br_opkijken.png,images/cb_opkijken.png,0,,,,,,,,,,,,,,,,,,,,,,
,,,,,,00015,2023-08-05_13h51.50.088,vbt_B2_day2,2022.2.4,Win32,59.99520038,,,,,,,,,,,,,,,,,,,,,,,,,,,,,,,,,,,,,,,,,,,,,,,-0.393541496,-0.179050461,1,0,0,,,,,,,,,,,,,,,,
,,,,,,00015,2023-08-05_13h51.50.088,vbt_B2_day2,2022.2.4,Win32,59.99520038,,,,,,,,,,,,,,,,,,,,,,,,,,,,,,,,,,,,,,,,,,,,,,,,,,,,-0.411118283,-0.114602199,1,0,0,,,,,,,,,,,
,,,,,,00015,2023-08-05_13h51.50.088,vbt_B2_day2,2022.2.4,Win32,59.99520038,,,,,,,,,,,,,,,,,,,,,,,,,,,,,,,,,,,,,,,,,,lurgen,images/br_lurgen.png,images/cb_lurgen.png,,lurgen,,,,,,,,,,,-0.44041297,-0.034920681,1,0,0,lurgen,0,0,0,29,1
,,,,,,00015,2023-08-05_13h51.50.088,vbt_B2_day2,2022.2.4,Win32,59.99520038,,,,,,,,,,,,,,,,,,,,,,,,,,,,,,,,,,,,,,,,,,koorts,images/br_koorts.png,images/cb_koorts.png,,koorts,,,,,,,,,,,-0.31620357,-0.006797791,1,0,0,koorts,0,1,1,50,1
,,,,,,00015,2023-08-05_13h51.50.088,vbt_B2_day2,2022.2.4,Win32,59.99520038,,,,,,,,,,,,,,,,,,,,,,,,,,,,,,,,,,,,,,,,,,toeval,images/br_toeval.png,images/cb_toeval.png,,toeval,,,,,,,,,,,-0.334952183,-0.075933266,1,0,0,toeval,0,2,2,11,1
,,,,,,00015,2023-08-05_13h51.50.088,vbt_B2_day2,2022.2.4,Win32,59.99520038,,,,,,,,,,,,,,,,,,,,,,,,,,,,,,,,,,,,,,,,,,diep,images/br_diep.png,images/cb_diep.png,,giep,,,,,,,,,,,-0.435725847,0.036558265,1,0,0,giep,0,3,3,2,1
,,,,,,00015,2023-08-05_13h51.50.088,vbt_B2_day2,2022.2.4,Win32,59.99520038,,,,,,,,,,,,,,,,,,,,,,,,,,,,,,,,,,,,,,,,,,jong,images/br_jong.png,images/cb_jong.png,,jong,,,,,,,,,,,-0.238865643,-0.098197177,1,0,0,jong,0,4,4,43,1
,,,,,,00015,2023-08-05_13h51.50.088,vbt_B2_day2,2022.2.4,Win32,59.99520038,,,,,,,,,,,,,,,,,,,,,,,,,,,,,,,,,,,,,,,,,,ningen,images/br_ningen.png,images/cb_ningen.png,,ningen,,,,,,,,,,,-0.364246809,-0.115773965,1,0,0,ningen,0,5,5,28,1
,,,,,,00015,2023-08-05_13h51.50.088,vbt_B2_day2,2022.2.4,Win32,59.99520038,,,,,,,,,,,,,,,,,,,,,,,,,,,,,,,,,,,,,,,,,,kasteel,images/br_kasteel.png,images/cb_kasteel.png,,kasteel,,,,,,,,,,,-0.390026138,-0.12280468,1,0,0,kasteel,0,6,6,14,1
,,,,,,00015,2023-08-05_13h51.50.088,vbt_B2_day2,2022.2.4,Win32,59.99520038,,,,,,,,,,,,,,,,,,,,,,,,,,,,,,,,,,,,,,,,,,welzijn,images/br_welzijn.png,images/cb_welzijn.png,,welzijn,,,,,,,,,,,-0.416977233,-0.004454229,1,0,0,welzijn,0,7,7,52,1
,,,,,,00015,2023-08-05_13h51.50.088,vbt_B2_day2,2022.2.4,Win32,59.99520038,,,,,,,,,,,,,,,,,,,,,,,,,,,,,,,,,,,,,,,,,,systeem,images/br_systeem.png,images/cb_systeem.png,,systeem,,,,,,,,,,,-0.371277585,-0.004454229,1,0,0,systeem,0,8,8,54,1
,,,,,,00015,2023-08-05_13h51.50.088,vbt_B2_day2,2022.2.4,Win32,59.99520038,,,,,,,,,,,,,,,,,,,,,,,,,,,,,,,,,,,,,,,,,,kenzis,images/br_kenzis.png,images/cb_kenzis.png,,ke..es,,,,,,,,,,,-0.432210489,-0.25287309,1,0,0,ke..es,0,9,9,30,1
,,,,,,00015,2023-08-05_13h51.50.088,vbt_B2_day2,2022.2.4,Win32,59.99520038,,,,,,,,,,,,,,,,,,,,,,,,,,,,,,,,,,,,,,,,,,tweeling,images/br_tweeling.png,images/cb_tweeling.png,,tweeling,,,,,,,,,,,-0.480253729,-0.070074317,1,0,0,tweeling,0,10,10,58,1
,,,,,,00015,2023-08-05_13h51.50.088,vbt_B2_day2,2022.2.4,Win32,59.99520038,,,,,,,,,,,,,,,,,,,,,,,,,,,,,,,,,,,,,,,,,,heilig,images/br_heilig.png,images/cb_heilig.png,,heilig,,,,,,,,,,,-0.371277585,-0.236468007,1,0,0,heilig,0,11,11,9,1
,,,,,,00015,2023-08-05_13h51.50.088,vbt_B2_day2,2022.2.4,Win32,59.99520038,,,,,,,,,,,,,,,,,,,,,,,,,,,,,,,,,,,,,,,,,,kijlen,images/br_kijlen.png,images/cb_kijlen.png,,keil..,,,,,,,,,,,-0.242381001,-0.254044795,1,0,0,keil..,0,12,12,31,1
,,,,,,00015,2023-08-05_13h51.50.088,vbt_B2_day2,2022.2.4,Win32,59.99520038,,,,,,,,,,,,,,,,,,,,,,,,,,,,,,,,,,,,,,,,,,aanzien,images/br_aanzien.png,images/cb_aanzien.png,,aanzien,,,,,,,,,,,-0.506032997,-0.228265588,1,0,0,aanzien,0,13,13,13,1
,,,,,,00015,2023-08-05_13h51.50.088,vbt_B2_day2,2022.2.4,Win32,59.99520038,,,,,,,,,,,,,,,,,,,,,,,,,,,,,,,,,,,,,,,,,,krimmen,images/br_krimmen.png,images/cb_krimmen.png,,.........,,,,,,,,,,,-0.540014867,-0.093510054,1,0,0,.........,0,14,14,35,1
,,,,,,00015,2023-08-05_13h51.50.088,vbt_B2_day2,2022.2.4,Win32,59.99520038,,,,,,,,,,,,,,,,,,,,,,,,,,,,,,,,,,,,,,,,,,clan,images/br_clan.png,images/cb_clan.png,,clan,,,,,,,,,,,-0.414633641,-0.166160796,1,0,0,clan,0,15,15,40,1
,,,,,,00015,2023-08-05_13h51.50.088,vbt_B2_day2,2022.2.4,Win32,59.99520038,,,,,,,,,,,,,,,,,,,,,,,,,,,,,,,,,,,,,,,,,,doodmoe,images/br_doodmoe.png,images/cb_doodmoe.png,,doodmoe,,,,,,,,,,,-0.486112678,-0.234124476,1,0,0,doodmoe,0,16,16,15,1
,,,,,,00015,2023-08-05_13h51.50.088,vbt_B2_day2,2022.2.4,Win32,59.99520038,,,,,,,,,,,,,,,,,,,,,,,,,,,,,,,,,,,,,,,,,,remel,images/br_remel.png,images/cb_remel.png,,remel,,,,,,,,,,,-0.393541496,-0.126320037,1,0,0,remel,0,17,17,25,1
,,,,,,00015,2023-08-05_13h51.50.088,vbt_B2_day2,2022.2.4,Win32,59.99520038,,,,,,,,,,,,,,,,,,,,,,,,,,,,,,,,,,,,,,,,,,zwager,images/br_zwager.png,images/cb_zwager.png,,zwa.en,,,,,,,,,,,-0.386510781,-0.269278051,1,0,0,zwa.en,0,18,18,49,1
,,,,,,00015,2023-08-05_13h51.50.088,vbt_B2_day2,2022.2.4,Win32,59.99520038,,,,,,,,,,,,,,,,,,,,,,,,,,,,,,,,,,,,,,,,,,heengeen,images/br_heengeen.png,images/cb_heengeen.png,,heengaan,,,,,,,,,,,-0.645475684,-0.188424768,1,0,0,heengaan,0,19,19,38,1
,,,,,,00015,2023-08-05_13h51.50.088,vbt_B2_day2,2022.2.4,Win32,59.99520038,,,,,,,,,,,,,,,,,,,,,,,,,,,,,,,,,,,,,,,,,,eenhoorn,images/br_eenhoorn.png,images/cb_eenhoorn.png,,eenhoorn,,,,,,,,,,,-0.583370923,-0.18490941,1,0,0,eenhoorn,0,20,20,19,1
,,,,,,00015,2023-08-05_13h51.50.088,vbt_B2_day2,2022.2.4,Win32,59.99520038,,,,,,,,,,,,,,,,,,,,,,,,,,,,,,,,,,,,,,,,,,manieren,images/br_manieren.png,images/cb_manieren.png,,manieren,,,,,,,,,,,-0.453302634,-0.152099366,1,0,0,manieren,0,21,21,56,1
,,,,,,00015,2023-08-05_13h51.50.088,vbt_B2_day2,2022.2.4,Win32,59.99520038,,,,,,,,,,,,,,,,,,,,,,,,,,,,,,,,,,,,,,,,,,badon,images/br_badon.png,images/cb_badon.png,,badon,,,,,,,,,,,-0.401744037,-0.21889122,1,0,0,badon,0,22,22,26,1
,,,,,,00015,2023-08-05_13h51.50.088,vbt_B2_day2,2022.2.4,Win32,59.99520038,,,,,,,,,,,,,,,,,,,,,,,,,,,,,,,,,,,,,,,,,,feestdag,images/br_feestdag.png,images/cb_feestdag.png,,feestdag,,,,,,,,,,,-0.555248063,-0.195455483,1,0,0,feestdag,0,23,23,17,1
,,,,,,00015,2023-08-05_13h51.50.088,vbt_B2_day2,2022.2.4,Win32,59.99520038,,,,,,,,,,,,,,,,,,,,,,,,,,,,,,,,,,,,,,,,,,sora,images/br_sora.png,images/cb_sora.png,,sora,,,,,,,,,,,-0.390026138,-0.249357733,1,0,0,sora,0,24,24,22,1
,,,,,,00015,2023-08-05_13h51.50.088,vbt_B2_day2,2022.2.4,Win32,59.99520038,,,,,,,,,,,,,,,,,,,,,,,,,,,,,,,,,,,,,,,,,,jagen,images/br_jagen.png,images/cb_jagen.png,,jagen,,,,,,,,,,,-0.490799801,-0.245842375,1,0,0,jagen,0,25,25,6,1
,,,,,,00015,2023-08-05_13h51.50.088,vbt_B2_day2,2022.2.4,Win32,59.99520038,,,,,,,,,,,,,,,,,,,,,,,,,,,,,,,,,,,,,,,,,,sjijfel,images/br_sjijfel.png,images/cb_sjijfel.png,,sjej....,,,,,,,,,,,-0.563450604,-0.280996011,1,0,0,sjej....,0,26,26,33,1
,,,,,,00015,2023-08-05_13h51.50.088,vbt_B2_day2,2022.2.4,Win32,59.99520038,,,,,,,,,,,,,,,,,,,,,,,,,,,,,,,,,,,,,,,,,,anarchie,images/br_anarchie.png,images/cb_anarchie.png,,anarchie,,,,,,,,,,,-0.416977233,-0.138037936,1,0,0,anarchie,0,27,27,16,1
,,,,,,00015,2023-08-05_13h51.50.088,vbt_B2_day2,2022.2.4,Win32,59.99520038,,,,,,,,,,,,,,,,,,,,,,,,,,,,,,,,,,,,,,,,,,thema,images/br_thema.png,images/cb_thema.png,,thema,,,,,,,,,,,-0.520094427,-0.280996011,1,0,0,thema,0,28,28,47,1
,,,,,,00015,2023-08-05_13h51.50.088,vbt_B2_day2,2022.2.4,Win32,59.99520038,,,,,,,,,,,,,,,,,,,,,,,,,,,,,,,,,,,,,,,,,,breuk,images/br_breuk.png,images/cb_breuk.png,,breuk,,,,,,,,,,,-0.457989757,-0.242327018,1,0,0,breuk,0,29,29,45,1
,,,,,,00015,2023-08-05_13h51.50.088,vbt_B2_day2,2022.2.4,Win32,59.99520038,,,,,,,,,,,,,,,,,,,,,,,,,,,,,,,,,,,,,,,,,,bloeien,images/br_bloeien.png,images/cb_bloeien.png,,bloeien,,,,,,,,,,,-0.557591655,-0.156786489,1,0,0,bloeien,0,30,30,12,1
,,,,,,00015,2023-08-05_13h51.50.088,vbt_B2_day2,2022.2.4,Win32,59.99520038,,,,,,,,,,,,,,,,,,,,,,,,,,,,,,,,,,,,,,,,,,zegel,images/br_zegel.png,images/cb_zegel.png,,zegel,,,,,,,,,,,-0.504861231,-0.149755774,1,0,0,zegel,0,31,31,46,1
,,,,,,00015,2023-08-05_13h51.50.088,vbt_B2_day2,2022.2.4,Win32,59.99520038,,,,,,,,,,,,,,,,,,,,,,,,,,,,,,,,,,,,,,,,,,tand,images/br_tand.png,images/cb_tand.png,,tand,,,,,,,,,,,-0.421664417,-0.154442958,1,0,0,tand,0,32,32,42,1
,,,,,,00015,2023-08-05_13h51.50.088,vbt_B2_day2,2022.2.4,Win32,59.99520038,,,,,,,,,,,,,,,,,,,,,,,,,,,,,,,,,,,,,,,,,,dode,images/br_dode.png,images/cb_dode.png,,dode,,,,,,,,,,,-0.39236973,-0.225921935,1,0,0,dode,0,33,33,41,1
,,,,,,00015,2023-08-05_13h51.50.088,vbt_B2_day2,2022.2.4,Win32,59.99520038,,,,,,,,,,,,,,,,,,,,,,,,,,,,,,,,,,,,,,,,,,strikken,images/br_strikken.png,images/cb_strikken.png,,strikken,,,,,,,,,,,-0.496658751,-0.270449939,1,0,0,strikken,0,34,34,18,1
,,,,,,00015,2023-08-05_13h51.50.088,vbt_B2_day2,2022.2.4,Win32,59.99520038,,,,,,,,,,,,,,,,,,,,,,,,,,,,,,,,,,,,,,,,,,kabel,images/br_kabel.png,images/cb_kabel.png,,kabel,,,,,,,,,,,-0.511891946,-0.195455483,1,0,0,kabel,0,35,35,7,1
,,,,,,00015,2023-08-05_13h51.50.088,vbt_B2_day2,2022.2.4,Win32,59.99520038,,,,,,,,,,,,,,,,,,,,,,,,,,,,,,,,,,,,,,,,,,opdatten,images/br_opdatten.png,images/cb_opdatten.png,,opdatt..,,,,,,,,,,,-0.452130869,-0.180222226,1,0,0,opdatt..,0,36,36,37,1
,,,,,,00015,2023-08-05_13h51.50.088,vbt_B2_day2,2022.2.4,Win32,59.99520038,,,,,,,,,,,,,,,,,,,,,,,,,,,,,,,,,,,,,,,,,,geld,images/br_geld.png,images/cb_geld.png,,geld,,,,,,,,,,,-0.583370923,-0.147412243,1,0,0,geld,0,37,37,3,1
,,,,,,00015,2023-08-05_13h51.50.088,vbt_B2_day2,2022.2.4,Win32,59.99520038,,,,,,,,,,,,,,,,,,,,,,,,,,,,,,,,,,,,,,,,,,plannen,images/br_plannen.png,images/cb_plannen.png,,plannen,,,,,,,,,,,-0.395885088,-0.183737584,1,0,0,plannen,0,38,38,55,1
,,,,,,00015,2023-08-05_13h51.50.088,vbt_B2_day2,2022.2.4,Win32,59.99520038,,,,,,,,,,,,,,,,,,,,,,,,,,,,,,,,,,,,,,,,,,aanvraag,images/br_aanvraag.png,images/cb_aanvraag.png,,aanvraag,,,,,,,,,,,-0.493143393,-0.195455483,1,0,0,aanvraag,0,39,39,57,1
,,,,,,00015,2023-08-05_13h51.50.088,vbt_B2_day2,2022.2.4,Win32,59.99520038,,,,,,,,,,,,,,,,,,,,,,,,,,,,,,,,,,,,,,,,,,piste,images/br_piste.png,images/cb_piste.png,,piste,,,,,,,,,,,-0.55056094,-0.19897084,1,0,0,piste,0,40,40,5,1
,,,,,,00015,2023-08-05_13h51.50.088,vbt_B2_day2,2022.2.4,Win32,59.99520038,,,,,,,,,,,,,,,,,,,,,,,,,,,,,,,,,,,,,,,,,,stes,images/br_stes.png,images/cb_stes.png,,stes,,,,,,,,,,,-0.606806721,-0.217719454,1,0,0,stes,0,41,41,21,1
,,,,,,00015,2023-08-05_13h51.50.088,vbt_B2_day2,2022.2.4,Win32,59.99520038,,,,,,,,,,,,,,,,,,,,,,,,,,,,,,,,,,,,,,,,,,goon,images/br_goon.png,images/cb_goon.png,,goon,,,,,,,,,,,-0.55876342,-0.200142606,1,0,0,goon,0,42,42,23,1
,,,,,,00015,2023-08-05_13h51.50.088,vbt_B2_day2,2022.2.4,Win32,59.99520038,,,,,,,,,,,,,,,,,,,,,,,,,,,,,,,,,,,,,,,,,,trots,images/br_trots.png,images/cb_trots.png,,trots,,,,,,,,,,,-0.613837436,-0.37122348,1,0,0,trots,0,43,43,44,1
,,,,,,00015,2023-08-05_13h51.50.088,vbt_B2_day2,2022.2.4,Win32,59.99520038,,,,,,,,,,,,,,,,,,,,,,,,,,,,,,,,,,,,,,,,,,agressie,images/br_agressie.png,images/cb_agressie.png,,agressie,,,,,,,,,,,-0.618524529,-0.135694344,1,0,0,agressie,0,44,44,59,1
,,,,,,00015,2023-08-05_13h51.50.088,vbt_B2_day2,2022.2.4,Win32,59.99520038,,,,,,,,,,,,,,,,,,,,,,,,,,,,,,,,,,,,,,,,,,ophuimen,images/br_ophuimen.png,images/cb_ophuimen.png,,ophuim...,,,,,,,,,,,-0.496658751,-0.127491864,1,0,0,ophuim...,0,45,45,36,1
,,,,,,00015,2023-08-05_13h51.50.088,vbt_B2_day2,2022.2.4,Win32,59.99520038,,,,,,,,,,,,,,,,,,,,,,,,,,,,,,,,,,,,,,,,,,zomers,images/br_zomers.png,images/cb_zomers.png,,zomr.,,,,,,,,,,,-0.473223014,-0.133350752,1,0,0,zomr.,0,46,46,48,1
,,,,,,00015,2023-08-05_13h51.50.088,vbt_B2_day2,2022.2.4,Win32,59.99520038,,,,,,,,,,,,,,,,,,,,,,,,,,,,,,,,,,,,,,,,,,inzicht,images/br_inzicht.png,images/cb_inzicht.png,,enzec....,,,,,,,,,,,-0.425179774,-0.005626055,1,0,0,enzec....,0,47,47,53,1
,,,,,,00015,2023-08-05_13h51.50.088,vbt_B2_day2,2022.2.4,Win32,59.99520038,,,,,,,,,,,,,,,,,,,,,,,,,,,,,,,,,,,,,,,,,,blad,images/br_blad.png,images/cb_blad.png,,blad,,,,,,,,,,,-0.672426778,-0.063043541,1,0,0,blad,0,48,48,1,1
,,,,,,00015,2023-08-05_13h51.50.088,vbt_B2_day2,2022.2.4,Win32,59.99520038,,,,,,,,,,,,,,,,,,,,,,,,,,,,,,,,,,,,,,,,,,moes,images/br_moes.png,images/cb_moes.png,,moes,,,,,,,,,,,0.147823987,-0.309118871,1,0,0,moes,0,49,49,0,1
,,,,,,00015,2023-08-05_13h51.50.088,vbt_B2_day2,2022.2.4,Win32,59.99520038,,,,,,,,,,,,,,,,,,,,,,,,,,,,,,,,,,,,,,,,,,lokken,images/br_lokken.png,images/cb_lokken.png,,lokken,,,,,,,,,,,-0.611493814,-0.216547628,1,0,0,lokken,0,50,50,8,1
,,,,,,00015,2023-08-05_13h51.50.088,vbt_B2_day2,2022.2.4,Win32,59.99520038,,,,,,,,,,,,,,,,,,,,,,,,,,,,,,,,,,,,,,,,,,lijnen,images/br_lijnen.png,images/cb_lijnen.png,,lijnen,,,,,,,,,,,-0.523609784,-0.167332623,1,0,0,lijnen,0,51,51,51,1
,,,,,,00015,2023-08-05_13h51.50.088,vbt_B2_day2,2022.2.4,Win32,59.99520038,,,,,,,,,,,,,,,,,,,,,,,,,,,,,,,,,,,,,,,,,,sifferd,images/br_sifferd.png,images/cb_sifferd.png,,siffe...,,,,,,,,,,,-0.40643116,-0.209516913,1,0,0,siffe...,0,52,52,32,1
,,,,,,00015,2023-08-05_13h51.50.088,vbt_B2_day2,2022.2.4,Win32,59.99520038,,,,,,,,,,,,,,,,,,,,,,,,,,,,,,,,,,,,,,,,,,prekken,images/br_prekken.png,images/cb_prekken.png,,prekken,,,,,,,,,,,0.460691049,-0.1028843,1,0,0,prekken,0,53,53,34,1
,,,,,,00015,2023-08-05_13h51.50.088,vbt_B2_day2,2022.2.4,Win32,59.99520038,,,,,,,,,,,,,,,,,,,,,,,,,,,,,,,,,,,,,,,,,,wijve,images/br_wijve.png,images/cb_wijve.png,,wijve,,,,,,,,,,,-0.431038663,-0.159130081,1,0,0,wijve,0,54,54,27,1
,,,,,,00015,2023-08-05_13h51.50.088,vbt_B2_day2,2022.2.4,Win32,59.99520038,,,,,,,,,,,,,,,,,,,,,,,,,,,,,,,,,,,,,,,,,,negel,images/br_negel.png,images/cb_negel.png,,negel,,,,,,,,,,,-0.497830516,-0.311462402,1,0,0,negel,0,55,55,24,1
,,,,,,00015,2023-08-05_13h51.50.088,vbt_B2_day2,2022.2.4,Win32,59.99520038,,,,,,,,,,,,,,,,,,,,,,,,,,,,,,,,,,,,,,,,,,flits,images/br_flits.png,images/cb_flits.png,,flits,,,,,,,,,,,-0.583370923,-0.206001555,1,0,0,flits,0,56,56,4,1
,,,,,,00015,2023-08-05_13h51.50.088,vbt_B2_day2,2022.2.4,Win32,59.99520038,,,,,,,,,,,,,,,,,,,,,,,,,,,,,,,,,,,,,,,,,,bereuwen,images/br_bereuwen.png,images/cb_bereuwen.png,,bereu....,,,,,,,,,,,-0.629070662,-0.26693452,1,0,0,bereu....,0,57,57,39,1
,,,,,,00015,2023-08-05_13h51.50.088,vbt_B2_day2,2022.2.4,Win32,59.99520038,,,,,,,,,,,,,,,,,,,,,,,,,,,,,,,,,,,,,,,,,,joes,images/br_joes.png,images/cb_joes.png,,joes,,,,,,,,,,,-0.491971567,-0.145068651,1,0,0,joes,0,58,58,20,1
,,,,,,00015,2023-08-05_13h51.50.088,vbt_B2_day2,2022.2.4,Win32,59.99520038,,,,,,,,,,,,,,,,,,,,,,,,,,,,,,,,,,,,,,,,,,woning,images/br_woning.png,images/cb_woning.png,,woning,,,,,,,,,,,-0.571653115,-0.133350752,1,0,0,woning,0,59,59,10,1
,,,,,,00015,2023-08-05_13h51.50.088,vbt_B2_day2,2022.2.4,Win32,59.99520038,,,,,,,,,,,,,,,,,,,,,,,,,,,,,,,,,,,,,,,,,,,,,,,,,,,,,,,,,,,,,,,,,,,
