welcome_mouse.x,welcome_mouse.y,welcome_mouse.leftButton,welcome_mouse.midButton,welcome_mouse.rightButton,welcome_mouse.time,"ID",date,expName,psychopyVersion,OS,frameRate,refresh_mouse.x,refresh_mouse.y,refresh_mouse.leftButton,refresh_mouse.midButton,refresh_mouse.rightButton,refresh_mouse.time,braille_mouse.x,braille_mouse.y,braille_mouse.leftButton,braille_mouse.midButton,braille_mouse.rightButton,braille_mouse.time,trials.thisRepN,trials.thisTrialN,trials.thisN,trials.thisIndex,trials.ran,nlLet,brLet,cbLet,trainInstr_mouse.x,trainInstr_mouse.y,trainInstr_mouse.leftButton,trainInstr_mouse.midButton,trainInstr_mouse.rightButton,trainInstr_mouse.time,translation_key.keys,translation_key.corr,translation_key.rt,word_rsp.text,word_mouse.x,word_mouse.y,word_mouse.leftButton,word_mouse.midButton,word_mouse.rightButton,word_mouse.time,train_loop.thisRepN,train_loop.thisTrialN,train_loop.thisN,train_loop.thisIndex,train_loop.ran,nlWrd,brWrd,cbWrd,test,testResp,mouse.x,mouse.y,mouse.leftButton,mouse.midButton,mouse.rightButton,testInstr_mouse.x,testInstr_mouse.y,testInstr_mouse.leftButton,testInstr_mouse.midButton,testInstr_mouse.rightButton,test_mouse.x,test_mouse.y,test_mouse.leftButton,test_mouse.midButton,test_mouse.rightButton,test_response.text,test_loop.thisRepN,test_loop.thisTrialN,test_loop.thisN,test_loop.thisIndex,test_loop.ran
0.486585366,-0.148780488,1,0,0,18.333,00056,2023-10-13_14h54.08.973,vbt_B2_day2,2022.2.4,MacIntel,47.61904762,,,,,,,,,,,,,,,,,,,,,,,,,,,,,,,,,,,,,,,,,,,,,,,,,,,,,,,,,,,,,,,,,,,
,,,,,,00056,2023-10-13_14h54.08.973,vbt_B2_day2,2022.2.4,MacIntel,47.61904762,0.330487805,-0.285365854,1,0,0,7.662,,,,,,,,,,,,,,,,,,,,,,,,,,,,,,,,,,,,,,,,,,,,,,,,,,,,,,,,,,,,,
,,,,,,00056,2023-10-13_14h54.08.973,vbt_B2_day2,2022.2.4,MacIntel,47.61904762,,,,,,,0.501219512,-0.043902439,1,0,0,15.676,0,0,0,21,1,v,images/br_v.png,images/cb_v.png,,,,,,,,,,,,,,,,,,,,,,,,,,,,,,,,,,,,,,,,,,,,,,,
,,,,,,00056,2023-10-13_14h54.08.973,vbt_B2_day2,2022.2.4,MacIntel,47.61904762,,,,,,,0.474390244,0.056097561,1,0,0,1.427,0,1,1,12,1,m,images/br_m.png,images/cb_m.png,,,,,,,,,,,,,,,,,,,,,,,,,,,,,,,,,,,,,,,,,,,,,,,
,,,,,,00056,2023-10-13_14h54.08.973,vbt_B2_day2,2022.2.4,MacIntel,47.61904762,,,,,,,0.48902439,-0.051219512,1,0,0,2.295,0,2,2,20,1,u,images/br_u.png,images/cb_u.png,,,,,,,,,,,,,,,,,,,,,,,,,,,,,,,,,,,,,,,,,,,,,,,
,,,,,,00056,2023-10-13_14h54.08.973,vbt_B2_day2,2022.2.4,MacIntel,47.61904762,,,,,,,0.47804878,-0.080487805,1,0,0,1.345,0,3,3,24,1,y,images/br_y.png,images/cb_y.png,,,,,,,,,,,,,,,,,,,,,,,,,,,,,,,,,,,,,,,,,,,,,,,
,,,,,,00056,2023-10-13_14h54.08.973,vbt_B2_day2,2022.2.4,MacIntel,47.61904762,,,,,,,0.497560976,-0.004878049,1,0,0,0.713,0,4,4,19,1,t,images/br_t.png,images/cb_t.png,,,,,,,,,,,,,,,,,,,,,,,,,,,,,,,,,,,,,,,,,,,,,,,
,,,,,,00056,2023-10-13_14h54.08.973,vbt_B2_day2,2022.2.4,MacIntel,47.61904762,,,,,,,0.485365854,-0.017073171,1,0,0,1.279,0,5,5,4,1,e,images/br_e.png,images/cb_e.png,,,,,,,,,,,,,,,,,,,,,,,,,,,,,,,,,,,,,,,,,,,,,,,
,,,,,,00056,2023-10-13_14h54.08.973,vbt_B2_day2,2022.2.4,MacIntel,47.61904762,,,,,,,0.474390244,-0.026829268,1,0,0,1.344,0,6,6,3,1,d,images/br_d.png,images/cb_d.png,,,,,,,,,,,,,,,,,,,,,,,,,,,,,,,,,,,,,,,,,,,,,,,
,,,,,,00056,2023-10-13_14h54.08.973,vbt_B2_day2,2022.2.4,MacIntel,47.61904762,,,,,,,0.458536585,-0.048780488,1,0,0,0.858,0,7,7,14,1,o,images/br_o.png,images/cb_o.png,,,,,,,,,,,,,,,,,,,,,,,,,,,,,,,,,,,,,,,,,,,,,,,
,,,,,,00056,2023-10-13_14h54.08.973,vbt_B2_day2,2022.2.4,MacIntel,47.61904762,,,,,,,0.467073171,0.024390244,1,0,0,1.262,0,8,8,6,1,g,images/br_g.png,images/cb_g.png,,,,,,,,,,,,,,,,,,,,,,,,,,,,,,,,,,,,,,,,,,,,,,,
,,,,,,00056,2023-10-13_14h54.08.973,vbt_B2_day2,2022.2.4,MacIntel,47.61904762,,,,,,,0.487804878,-0.191463415,1,0,0,0.645,0,9,9,9,1,j,images/br_j.png,images/cb_j.png,,,,,,,,,,,,,,,,,,,,,,,,,,,,,,,,,,,,,,,,,,,,,,,
,,,,,,00056,2023-10-13_14h54.08.973,vbt_B2_day2,2022.2.4,MacIntel,47.61904762,,,,,,,0.424390244,0.018292683,1,0,0,1.66,0,10,10,8,1,i,images/br_i.png,images/cb_i.png,,,,,,,,,,,,,,,,,,,,,,,,,,,,,,,,,,,,,,,,,,,,,,,
,,,,,,00056,2023-10-13_14h54.08.973,vbt_B2_day2,2022.2.4,MacIntel,47.61904762,,,,,,,0.545121951,-0.230487805,1,0,0,0.761,0,11,11,18,1,s,images/br_s.png,images/cb_s.png,,,,,,,,,,,,,,,,,,,,,,,,,,,,,,,,,,,,,,,,,,,,,,,
,,,,,,00056,2023-10-13_14h54.08.973,vbt_B2_day2,2022.2.4,MacIntel,47.61904762,,,,,,,0.570731707,-0.208536585,1,0,0,3.53,0,12,12,10,1,k,images/br_k.png,images/cb_k.png,,,,,,,,,,,,,,,,,,,,,,,,,,,,,,,,,,,,,,,,,,,,,,,
,,,,,,00056,2023-10-13_14h54.08.973,vbt_B2_day2,2022.2.4,MacIntel,47.61904762,,,,,,,0.596341463,-0.186585366,1,0,0,6.99,0,13,13,13,1,n,images/br_n.png,images/cb_n.png,,,,,,,,,,,,,,,,,,,,,,,,,,,,,,,,,,,,,,,,,,,,,,,
,,,,,,00056,2023-10-13_14h54.08.973,vbt_B2_day2,2022.2.4,MacIntel,47.61904762,,,,,,,0.567073171,-0.218292683,1,0,0,1.044,0,14,14,16,1,q,images/br_q.png,images/cb_q.png,,,,,,,,,,,,,,,,,,,,,,,,,,,,,,,,,,,,,,,,,,,,,,,
,,,,,,00056,2023-10-13_14h54.08.973,vbt_B2_day2,2022.2.4,MacIntel,47.61904762,,,,,,,0.574390244,-0.206097561,1,0,0,0.662,0,15,15,0,1,a,images/br_a.png,images/cb_a.png,,,,,,,,,,,,,,,,,,,,,,,,,,,,,,,,,,,,,,,,,,,,,,,
,,,,,,00056,2023-10-13_14h54.08.973,vbt_B2_day2,2022.2.4,MacIntel,47.61904762,,,,,,,0.567073171,-0.212195122,1,0,0,0.262,0,16,16,5,1,f,images/br_f.png,images/cb_f.png,,,,,,,,,,,,,,,,,,,,,,,,,,,,,,,,,,,,,,,,,,,,,,,
,,,,,,00056,2023-10-13_14h54.08.973,vbt_B2_day2,2022.2.4,MacIntel,47.61904762,,,,,,,0.603658537,-0.165853659,1,0,0,3.711,0,17,17,23,1,x,images/br_x.png,images/cb_x.png,,,,,,,,,,,,,,,,,,,,,,,,,,,,,,,,,,,,,,,,,,,,,,,
,,,,,,00056,2023-10-13_14h54.08.973,vbt_B2_day2,2022.2.4,MacIntel,47.61904762,,,,,,,0.508536585,0.024390244,1,0,0,1.344,0,18,18,7,1,h,images/br_h.png,images/cb_h.png,,,,,,,,,,,,,,,,,,,,,,,,,,,,,,,,,,,,,,,,,,,,,,,
,,,,,,00056,2023-10-13_14h54.08.973,vbt_B2_day2,2022.2.4,MacIntel,47.61904762,,,,,,,0.519512195,0.1,1,0,0,4.929,0,19,19,15,1,p,images/br_p.png,images/cb_p.png,,,,,,,,,,,,,,,,,,,,,,,,,,,,,,,,,,,,,,,,,,,,,,,
,,,,,,00056,2023-10-13_14h54.08.973,vbt_B2_day2,2022.2.4,MacIntel,47.61904762,,,,,,,0.519512195,0.076829268,1,0,0,1.095,0,20,20,25,1,z,images/br_z.png,images/cb_z.png,,,,,,,,,,,,,,,,,,,,,,,,,,,,,,,,,,,,,,,,,,,,,,,
,,,,,,00056,2023-10-13_14h54.08.973,vbt_B2_day2,2022.2.4,MacIntel,47.61904762,,,,,,,0.524390244,0.086585366,1,0,0,0.158,0,21,21,17,1,r,images/br_r.png,images/cb_r.png,,,,,,,,,,,,,,,,,,,,,,,,,,,,,,,,,,,,,,,,,,,,,,,
,,,,,,00056,2023-10-13_14h54.08.973,vbt_B2_day2,2022.2.4,MacIntel,47.61904762,,,,,,,0.509756098,0.068292683,1,0,0,0.694,0,22,22,22,1,w,images/br_w.png,images/cb_w.png,,,,,,,,,,,,,,,,,,,,,,,,,,,,,,,,,,,,,,,,,,,,,,,
,,,,,,00056,2023-10-13_14h54.08.973,vbt_B2_day2,2022.2.4,MacIntel,47.61904762,,,,,,,0.498780488,0.054878049,1,0,0,2.745,0,23,23,1,1,b,images/br_b.png,images/cb_b.png,,,,,,,,,,,,,,,,,,,,,,,,,,,,,,,,,,,,,,,,,,,,,,,
,,,,,,00056,2023-10-13_14h54.08.973,vbt_B2_day2,2022.2.4,MacIntel,47.61904762,,,,,,,0.519512195,0.129268293,1,0,0,1.611,0,24,24,11,1,l,images/br_l.png,images/cb_l.png,,,,,,,,,,,,,,,,,,,,,,,,,,,,,,,,,,,,,,,,,,,,,,,
,,,,,,00056,2023-10-13_14h54.08.973,vbt_B2_day2,2022.2.4,MacIntel,47.61904762,,,,,,,0.467073171,0.086585366,1,0,0,0.261,0,25,25,2,1,c,images/br_c.png,images/cb_c.png,,,,,,,,,,,,,,,,,,,,,,,,,,,,,,,,,,,,,,,,,,,,,,,
,,,,,,00056,2023-10-13_14h54.08.973,vbt_B2_day2,2022.2.4,MacIntel,47.61904762,,,,,,,,,,,,,,,,,,,,,0.517073171,0.056097561,1,0,0,20.376,,,,,,,,,,,,,,,,,,,,,,,,,,,,,,,,,,,,,,,,,
,,,,,,00056,2023-10-13_14h54.08.973,vbt_B2_day2,2022.2.4,MacIntel,47.61904762,,,,,,,,,,,,,,,,,,,,,,,,,,,down,0,8.517,,0.517073171,-0.024390244,1,0,0,5.202,0,0,0,71,1,bever,images/br_bever.png,images/cb_bever.png,0,,,,,,,,,,,,,,,,,,,,,,
,,,,,,00056,2023-10-13_14h54.08.973,vbt_B2_day2,2022.2.4,MacIntel,47.61904762,,,,,,,,,,,,,,,,,,,,,,,,,,,down,0,12.615,,0.503658537,-0.126829268,1,0,0,6.752,0,1,1,127,1,doodmoe,images/br_doodmoe.png,images/cb_doodmoe.png,0,,,,,,,,,,,,,,,,,,,,,,
,,,,,,00056,2023-10-13_14h54.08.973,vbt_B2_day2,2022.2.4,MacIntel,47.61904762,,,,,,,,,,,,,,,,,,,,,,,,,,,down,0,16.414,,0.459756098,0.1,1,0,0,5.602,0,2,2,155,1,gerucht,images/br_gerucht.png,images/cb_gerucht.png,0,,,,,,,,,,,,,,,,,,,,,,
,,,,,,00056,2023-10-13_14h54.08.973,vbt_B2_day2,2022.2.4,MacIntel,47.61904762,,,,,,,,,,,,,,,,,,,,,,,,,,,down,0,3.114,,0.459756098,0.1,1,0,0,1.104,0,3,3,27,1,dans,images/br_dans.png,images/cb_dans.png,0,,,,,,,,,,,,,,,,,,,,,,
,,,,,,00056,2023-10-13_14h54.08.973,vbt_B2_day2,2022.2.4,MacIntel,47.61904762,,,,,,,,,,,,,,,,,,,,,,,,,,,down,0,5.73,,0.459756098,0.1,1,0,0,0.905,0,4,4,101,1,staren,images/br_staren.png,images/cb_staren.png,0,,,,,,,,,,,,,,,,,,,,,,
,,,,,,00056,2023-10-13_14h54.08.973,vbt_B2_day2,2022.2.4,MacIntel,47.61904762,,,,,,,,,,,,,,,,,,,,,,,,,,,down,0,3.666,,0.536585366,-0.269512195,1,0,0,5.151,0,5,5,103,1,joggen,images/br_joggen.png,images/cb_joggen.png,0,,,,,,,,,,,,,,,,,,,,,,
,,,,,,00056,2023-10-13_14h54.08.973,vbt_B2_day2,2022.2.4,MacIntel,47.61904762,,,,,,,,,,,,,,,,,,,,,,,,,,,down,0,2.881,,0.55,-0.293902439,1,0,0,1.09,0,6,6,31,1,poes,images/br_poes.png,images/cb_poes.png,0,,,,,,,,,,,,,,,,,,,,,,
,,,,,,00056,2023-10-13_14h54.08.973,vbt_B2_day2,2022.2.4,MacIntel,47.61904762,,,,,,,,,,,,,,,,,,,,,,,,,,,down,0,9.531,,0.512195122,-0.356097561,1,0,0,1.688,0,7,7,198,1,bedoelen,images/br_bedoelen.png,images/cb_bedoelen.png,0,,,,,,,,,,,,,,,,,,,,,,
,,,,,,00056,2023-10-13_14h54.08.973,vbt_B2_day2,2022.2.4,MacIntel,47.61904762,,,,,,,,,,,,,,,,,,,,,,,,,,,down,0,4.764,,0.525609756,-0.176829268,1,0,0,0.623,0,8,8,169,1,oprotten,images/br_oprotten.png,images/cb_oprotten.png,0,,,,,,,,,,,,,,,,,,,,,,
,,,,,,00056,2023-10-13_14h54.08.973,vbt_B2_day2,2022.2.4,MacIntel,47.61904762,,,,,,,,,,,,,,,,,,,,,,,,,,,down,0,4.665,,0.486585366,-0.153658537,1,0,0,0.87,0,9,9,79,1,nodig,images/br_nodig.png,images/cb_nodig.png,0,,,,,,,,,,,,,,,,,,,,,,
,,,,,,00056,2023-10-13_14h54.08.973,vbt_B2_day2,2022.2.4,MacIntel,47.61904762,,,,,,,,,,,,,,,,,,,,,,,,,,,down,0,7.781,,0.47804878,-0.130487805,1,0,0,0.758,0,10,10,119,1,liefje,images/br_liefje.png,images/cb_liefje.png,0,,,,,,,,,,,,,,,,,,,,,,
,,,,,,00056,2023-10-13_14h54.08.973,vbt_B2_day2,2022.2.4,MacIntel,47.61904762,,,,,,,,,,,,,,,,,,,,,,,,,,,down,0,29.647,,0.582047686,-0.077840112,1,0,0,2.356,0,11,11,136,1,waarbij,images/br_waarbij.png,images/cb_waarbij.png,1,Waarbij,,,,,,,,,,,,,,,,,,,,,
,,,,,,00056,2023-10-13_14h54.08.973,vbt_B2_day2,2022.2.4,MacIntel,47.61904762,,,,,,,,,,,,,,,,,,,,,,,,,,,down,0,22.45,,0.532959327,-0.149368864,1,0,0,2.968,0,12,12,164,1,anarchie,images/br_anarchie.png,images/cb_anarchie.png,0,,,,,,,,,,,,,,,,,,,,,,
,,,,,,00056,2023-10-13_14h54.08.973,vbt_B2_day2,2022.2.4,MacIntel,47.61904762,,,,,,,,,,,,,,,,,,,,,,,,,,,down,0,25.449,,0.52173913,-0.118513324,1,0,0,1.188,0,13,13,18,1,blik,images/br_blik.png,images/cb_blik.png,1,Blik,,,,,,,,,,,,,,,,,,,,,
,,,,,,00056,2023-10-13_14h54.08.973,vbt_B2_day2,2022.2.4,MacIntel,47.61904762,,,,,,,,,,,,,,,,,,,,,,,,,,,down,0,20.227,,0.527349229,-0.212482468,1,0,0,4.008,0,14,14,147,1,komisch,images/br_komisch.png,images/cb_komisch.png,0,,,,,,,,,,,,,,,,,,,,,,
,,,,,,00056,2023-10-13_14h54.08.973,vbt_B2_day2,2022.2.4,MacIntel,47.61904762,,,,,,,,,,,,,,,,,,,,,,,,,,,down,0,7.249,,0.465638149,-0.107293128,1,0,0,0.652,0,15,15,63,1,flirt,images/br_flirt.png,images/cb_flirt.png,0,,,,,,,,,,,,,,,,,,,,,,
,,,,,,00056,2023-10-13_14h54.08.973,vbt_B2_day2,2022.2.4,MacIntel,47.61904762,,,,,,,,,,,,,,,,,,,,,,,,,,,down,0,13.931,,0.465638149,-0.107293128,1,0,0,0.518,0,16,16,182,1,bijkomen,images/br_bijkomen.png,images/cb_bijkomen.png,0,,,,,,,,,,,,,,,,,,,,,,
,,,,,,00056,2023-10-13_14h54.08.973,vbt_B2_day2,2022.2.4,MacIntel,47.61904762,,,,,,,,,,,,,,,,,,,,,,,,,,,down,0,4.417,,0.443197756,-0.197054698,1,0,0,2.62,0,17,17,6,1,diep,images/br_diep.png,images/cb_diep.png,0,,,,,,,,,,,,,,,,,,,,,,
,,,,,,00056,2023-10-13_14h54.08.973,vbt_B2_day2,2022.2.4,MacIntel,47.61904762,,,,,,,,,,,,,,,,,,,,,,,,,,,down,0,0.483,,0.525946704,-0.112903226,1,0,0,0.6,0,18,18,39,1,laag,images/br_laag.png,images/cb_laag.png,0,,,,,,,,,,,,,,,,,,,,,,
,,,,,,00056,2023-10-13_14h54.08.973,vbt_B2_day2,2022.2.4,MacIntel,47.61904762,,,,,,,,,,,,,,,,,,,,,,,,,,,down,0,7.165,,0.525946704,-0.112903226,1,0,0,0.656,0,19,19,140,1,blijven,images/br_blijven.png,images/cb_blijven.png,0,,,,,,,,,,,,,,,,,,,,,,
,,,,,,00056,2023-10-13_14h54.08.973,vbt_B2_day2,2022.2.4,MacIntel,47.61904762,,,,,,,,,,,,,,,,,,,,,,,,,,,down,0,5.715,,0.525946704,-0.112903226,1,0,0,0.572,0,20,20,151,1,aanzoek,images/br_aanzoek.png,images/cb_aanzoek.png,0,,,,,,,,,,,,,,,,,,,,,,
,,,,,,00056,2023-10-13_14h54.08.973,vbt_B2_day2,2022.2.4,MacIntel,47.61904762,,,,,,,,,,,,,,,,,,,,,,,,,,,down,0,9.648,,0.525946704,-0.111500701,1,0,0,0.503,0,21,21,141,1,knielen,images/br_knielen.png,images/cb_knielen.png,0,,,,,,,,,,,,,,,,,,,,,,
,,,,,,00056,2023-10-13_14h54.08.973,vbt_B2_day2,2022.2.4,MacIntel,47.61904762,,,,,,,,,,,,,,,,,,,,,,,,,,,down,0,15.933,,0.608695652,-0.22230014,1,0,0,1.104,0,22,22,19,1,geit,images/br_geit.png,images/cb_geit.png,1,Geit,,,,,,,,,,,,,,,,,,,,,
,,,,,,00056,2023-10-13_14h54.08.973,vbt_B2_day2,2022.2.4,MacIntel,47.61904762,,,,,,,,,,,,,,,,,,,,,,,,,,,down,0,0.368,,0.412342216,-0.041374474,1,0,0,0.697,0,23,23,29,1,baas,images/br_baas.png,images/cb_baas.png,0,,,,,,,,,,,,,,,,,,,,,,
,,,,,,00056,2023-10-13_14h54.08.973,vbt_B2_day2,2022.2.4,MacIntel,47.61904762,,,,,,,,,,,,,,,,,,,,,,,,,,,down,0,6.982,,0.412342216,-0.041374474,1,0,0,0.603,0,24,24,92,1,geheim,images/br_geheim.png,images/cb_geheim.png,0,,,,,,,,,,,,,,,,,,,,,,
,,,,,,00056,2023-10-13_14h54.08.973,vbt_B2_day2,2022.2.4,MacIntel,47.61904762,,,,,,,,,,,,,,,,,,,,,,,,,,,down,0,7.868,,0.412342216,-0.041374474,1,0,0,0.517,0,25,25,24,1,jurk,images/br_jurk.png,images/cb_jurk.png,0,,,,,,,,,,,,,,,,,,,,,,
,,,,,,00056,2023-10-13_14h54.08.973,vbt_B2_day2,2022.2.4,MacIntel,47.61904762,,,,,,,,,,,,,,,,,,,,,,,,,,,down,0,7.165,,0.489481066,0.007713885,1,0,0,4.809,0,26,26,184,1,aandelen,images/br_aandelen.png,images/cb_aandelen.png,0,,,,,,,,,,,,,,,,,,,,,,
,,,,,,00056,2023-10-13_14h54.08.973,vbt_B2_day2,2022.2.4,MacIntel,47.61904762,,,,,,,,,,,,,,,,,,,,,,,,,,,down,0,19.798,,0.396914446,0.042776999,1,0,0,2.572,0,27,27,81,1,dubbel,images/br_dubbel.png,images/cb_dubbel.png,0,,,,,,,,,,,,,,,,,,,,,,
,,,,,,00056,2023-10-13_14h54.08.973,vbt_B2_day2,2022.2.4,MacIntel,47.61904762,,,,,,,,,,,,,,,,,,,,,,,,,,,down,0,7.98,,0.497896213,-0.138148668,1,0,0,2.322,0,28,28,152,1,afnemen,images/br_afnemen.png,images/cb_afnemen.png,0,,,,,,,,,,,,,,,,,,,,,,
,,,,,,00056,2023-10-13_14h54.08.973,vbt_B2_day2,2022.2.4,MacIntel,47.61904762,,,,,,,,,,,,,,,,,,,,,,,,,,,down,0,2.181,,0.56802244,0.003506311,1,0,0,1.056,0,29,29,68,1,schat,images/br_schat.png,images/cb_schat.png,0,,,,,,,,,,,,,,,,,,,,,,
,,,,,,00056,2023-10-13_14h54.08.973,vbt_B2_day2,2022.2.4,MacIntel,47.61904762,,,,,,,,,,,,,,,,,,,,,,,,,,,down,0,5.517,,0.457223001,0.051192146,1,0,0,0.791,0,30,30,25,1,plek,images/br_plek.png,images/cb_plek.png,0,,,,,,,,,,,,,,,,,,,,,,
,,,,,,00056,2023-10-13_14h54.08.973,vbt_B2_day2,2022.2.4,MacIntel,47.61904762,,,,,,,,,,,,,,,,,,,,,,,,,,,down,0,4.649,,0.49088359,0.077840112,1,0,0,0.708,0,31,31,83,1,mening,images/br_mening.png,images/cb_mening.png,0,,,,,,,,,,,,,,,,,,,,,,
,,,,,,00056,2023-10-13_14h54.08.973,vbt_B2_day2,2022.2.4,MacIntel,47.61904762,,,,,,,,,,,,,,,,,,,,,,,,,,,down,0,3.066,,0.570827489,0.00631136,1,0,0,0.623,0,32,32,48,1,steel,images/br_steel.png,images/cb_steel.png,0,,,,,,,,,,,,,,,,,,,,,,
,,,,,,00056,2023-10-13_14h54.08.973,vbt_B2_day2,2022.2.4,MacIntel,47.61904762,,,,,,,,,,,,,,,,,,,,,,,,,,,down,0,4.166,,0.587657784,-0.02454418,1,0,0,0.671,0,33,33,132,1,grappen,images/br_grappen.png,images/cb_grappen.png,0,,,,,,,,,,,,,,,,,,,,,,
,,,,,,00056,2023-10-13_14h54.08.973,vbt_B2_day2,2022.2.4,MacIntel,47.61904762,,,,,,,,,,,,,,,,,,,,,,,,,,,down,0,11.997,,0.607293128,-0.0371669,1,0,0,0.609,0,34,34,191,1,opheffen,images/br_opheffen.png,images/cb_opheffen.png,0,,,,,,,,,,,,,,,,,,,,,,
,,,,,,00056,2023-10-13_14h54.08.973,vbt_B2_day2,2022.2.4,MacIntel,47.61904762,,,,,,,,,,,,,,,,,,,,,,,,,,,down,0,5.249,,0.646563815,-0.063814867,1,0,0,0.541,0,35,35,166,1,strikken,images/br_strikken.png,images/cb_strikken.png,0,,,,,,,,,,,,,,,,,,,,,,
,,,,,,00056,2023-10-13_14h54.08.973,vbt_B2_day2,2022.2.4,MacIntel,47.61904762,,,,,,,,,,,,,,,,,,,,,,,,,,,down,0,4.332,,0.624123422,-0.079242637,1,0,0,0.541,0,36,36,47,1,kabel,images/br_kabel.png,images/cb_kabel.png,0,,,,,,,,,,,,,,,,,,,,,,
,,,,,,00056,2023-10-13_14h54.08.973,vbt_B2_day2,2022.2.4,MacIntel,47.61904762,,,,,,,,,,,,,,,,,,,,,,,,,,,down,0,7.43,,0.607293128,-0.149368864,1,0,0,0.517,0,37,37,113,1,koppen,images/br_koppen.png,images/cb_koppen.png,0,,,,,,,,,,,,,,,,,,,,,,
,,,,,,00056,2023-10-13_14h54.08.973,vbt_B2_day2,2022.2.4,MacIntel,47.61904762,,,,,,,,,,,,,,,,,,,,,,,,,,,down,0,4.499,,0.624123422,-0.048387097,1,0,0,0.724,0,38,38,67,1,zwart,images/br_zwart.png,images/cb_zwart.png,0,,,,,,,,,,,,,,,,,,,,,,
,,,,,,00056,2023-10-13_14h54.08.973,vbt_B2_day2,2022.2.4,MacIntel,47.61904762,,,,,,,,,,,,,,,,,,,,,,,,,,,down,0,3.415,,0.621318373,-0.077840112,1,0,0,0.574,0,39,39,186,1,voorraad,images/br_voorraad.png,images/cb_voorraad.png,0,,,,,,,,,,,,,,,,,,,,,,
,,,,,,00056,2023-10-13_14h54.08.973,vbt_B2_day2,2022.2.4,MacIntel,47.61904762,,,,,,,,,,,,,,,,,,,,,,,,,,,down,0,4.681,,0.628330996,-0.150771388,1,0,0,0.538,0,40,40,62,1,knaap,images/br_knaap.png,images/cb_knaap.png,0,,,,,,,,,,,,,,,,,,,,,,
,,,,,,00056,2023-10-13_14h54.08.973,vbt_B2_day2,2022.2.4,MacIntel,47.61904762,,,,,,,,,,,,,,,,,,,,,,,,,,,down,0,12.58,,0.633941094,-0.156381487,1,0,0,0.44,0,41,41,187,1,opkijken,images/br_opkijken.png,images/cb_opkijken.png,0,,,,,,,,,,,,,,,,,,,,,,
,,,,,,00056,2023-10-13_14h54.08.973,vbt_B2_day2,2022.2.4,MacIntel,47.61904762,,,,,,,,,,,,,,,,,,,,,,,,,,,down,0,4.367,,0.59887798,-0.150771388,1,0,0,0.557,0,42,42,110,1,zuster,images/br_zuster.png,images/cb_zuster.png,0,,,,,,,,,,,,,,,,,,,,,,
,,,,,,00056,2023-10-13_14h54.08.973,vbt_B2_day2,2022.2.4,MacIntel,47.61904762,,,,,,,,,,,,,,,,,,,,,,,,,,,down,0,16.73,,0.603085554,-0.139551192,1,0,0,2.424,0,43,43,185,1,mijnheer,images/br_mijnheer.png,images/cb_mijnheer.png,0,,,,,,,,,,,,,,,,,,,,,,
,,,,,,00056,2023-10-13_14h54.08.973,vbt_B2_day2,2022.2.4,MacIntel,47.61904762,,,,,,,,,,,,,,,,,,,,,,,,,,,down,0,5.365,,0.638148668,-0.112903226,1,0,0,0.391,0,44,44,75,1,snoep,images/br_snoep.png,images/cb_snoep.png,0,,,,,,,,,,,,,,,,,,,,,,
,,,,,,00056,2023-10-13_14h54.08.973,vbt_B2_day2,2022.2.4,MacIntel,47.61904762,,,,,,,,,,,,,,,,,,,,,,,,,,,down,0,4.415,,0.607293128,-0.084852735,1,0,0,0.675,0,45,45,174,1,stemming,images/br_stemming.png,images/cb_stemming.png,0,,,,,,,,,,,,,,,,,,,,,,
,,,,,,00056,2023-10-13_14h54.08.973,vbt_B2_day2,2022.2.4,MacIntel,47.61904762,,,,,,,,,,,,,,,,,,,,,,,,,,,down,0,6.249,,0.669004208,-0.06802244,1,0,0,0.505,0,46,46,9,1,hier,images/br_hier.png,images/cb_hier.png,0,,,,,,,,,,,,,,,,,,,,,,
,,,,,,00056,2023-10-13_14h54.08.973,vbt_B2_day2,2022.2.4,MacIntel,47.61904762,,,,,,,,,,,,,,,,,,,,,,,,,,,down,0,4.616,,0.608695652,-0.112903226,1,0,0,0.392,0,47,47,87,1,toeval,images/br_toeval.png,images/cb_toeval.png,0,,,,,,,,,,,,,,,,,,,,,,
,,,,,,00056,2023-10-13_14h54.08.973,vbt_B2_day2,2022.2.4,MacIntel,47.61904762,,,,,,,,,,,,,,,,,,,,,,,,,,,down,0,8.449,,0.671809257,-0.111500701,1,0,0,0.49,0,48,48,80,1,kanjer,images/br_kanjer.png,images/cb_kanjer.png,0,,,,,,,,,,,,,,,,,,,,,,
,,,,,,00056,2023-10-13_14h54.08.973,vbt_B2_day2,2022.2.4,MacIntel,47.61904762,,,,,,,,,,,,,,,,,,,,,,,,,,,down,0,3.849,,0.558204769,-0.056802244,1,0,0,1.322,0,49,49,60,1,jasje,images/br_jasje.png,images/cb_jasje.png,0,,,,,,,,,,,,,,,,,,,,,,
,,,,,,00056,2023-10-13_14h54.08.973,vbt_B2_day2,2022.2.4,MacIntel,47.61904762,,,,,,,,,,,,,,,,,,,,,,,,,,,down,0,3.914,,0.642356241,-0.121318373,1,0,0,0.474,0,50,50,20,1,site,images/br_site.png,images/cb_site.png,0,,,,,,,,,,,,,,,,,,,,,,
,,,,,,00056,2023-10-13_14h54.08.973,vbt_B2_day2,2022.2.4,MacIntel,47.61904762,,,,,,,,,,,,,,,,,,,,,,,,,,,down,0,6.998,,0.661991585,-0.044179523,1,0,0,0.542,0,51,51,156,1,rechten,images/br_rechten.png,images/cb_rechten.png,0,,,,,,,,,,,,,,,,,,,,,,
,,,,,,00056,2023-10-13_14h54.08.973,vbt_B2_day2,2022.2.4,MacIntel,47.61904762,,,,,,,,,,,,,,,,,,,,,,,,,,,down,0,3.914,,0.622720898,-0.153576438,1,0,0,0.44,0,52,52,107,1,maling,images/br_maling.png,images/cb_maling.png,0,,,,,,,,,,,,,,,,,,,,,,
,,,,,,00056,2023-10-13_14h54.08.973,vbt_B2_day2,2022.2.4,MacIntel,47.61904762,,,,,,,,,,,,,,,,,,,,,,,,,,,down,0,6.615,,0.646563815,-0.112903226,1,0,0,0.425,0,53,53,193,1,weeshuis,images/br_weeshuis.png,images/cb_weeshuis.png,0,,,,,,,,,,,,,,,,,,,,,,
,,,,,,00056,2023-10-13_14h54.08.973,vbt_B2_day2,2022.2.4,MacIntel,47.61904762,,,,,,,,,,,,,,,,,,,,,,,,,,,down,0,2.149,,0.643758766,-0.094670407,1,0,0,0.441,0,54,54,95,1,vreten,images/br_vreten.png,images/cb_vreten.png,0,,,,,,,,,,,,,,,,,,,,,,
,,,,,,00056,2023-10-13_14h54.08.973,vbt_B2_day2,2022.2.4,MacIntel,47.61904762,,,,,,,,,,,,,,,,,,,,,,,,,,,down,0,9.548,,0.631136045,-0.197054698,1,0,0,0.357,0,55,55,94,1,oceaan,images/br_oceaan.png,images/cb_oceaan.png,0,,,,,,,,,,,,,,,,,,,,,,
,,,,,,00056,2023-10-13_14h54.08.973,vbt_B2_day2,2022.2.4,MacIntel,47.61904762,,,,,,,,,,,,,,,,,,,,,,,,,,,down,0,2.765,,0.603085554,-0.09887798,1,0,0,0.625,0,56,56,32,1,palm,images/br_palm.png,images/cb_palm.png,0,,,,,,,,,,,,,,,,,,,,,,
,,,,,,00056,2023-10-13_14h54.08.973,vbt_B2_day2,2022.2.4,MacIntel,47.61904762,,,,,,,,,,,,,,,,,,,,,,,,,,,down,0,3.581,,0.589060309,-0.285413745,1,0,0,0.558,0,57,57,8,1,knie,images/br_knie.png,images/cb_knie.png,0,,,,,,,,,,,,,,,,,,,,,,
,,,,,,00056,2023-10-13_14h54.08.973,vbt_B2_day2,2022.2.4,MacIntel,47.61904762,,,,,,,,,,,,,,,,,,,,,,,,,,,down,0,3.281,,0.694249649,-0.101683029,1,0,0,0.412,0,58,58,65,1,parel,images/br_parel.png,images/cb_parel.png,0,,,,,,,,,,,,,,,,,,,,,,
,,,,,,00056,2023-10-13_14h54.08.973,vbt_B2_day2,2022.2.4,MacIntel,47.61904762,,,,,,,,,,,,,,,,,,,,,,,,,,,down,0,3.116,,0.572230014,-0.192847125,1,0,0,0.574,0,59,59,109,1,totaal,images/br_totaal.png,images/cb_totaal.png,0,,,,,,,,,,,,,,,,,,,,,,
,,,,,,00056,2023-10-13_14h54.08.973,vbt_B2_day2,2022.2.4,MacIntel,47.61904762,,,,,,,,,,,,,,,,,,,,,,,,,,,down,0,1.351,,0.612903226,-0.142356241,1,0,0,0.507,0,60,60,50,1,stoom,images/br_stoom.png,images/cb_stoom.png,0,,,,,,,,,,,,,,,,,,,,,,
,,,,,,00056,2023-10-13_14h54.08.973,vbt_B2_day2,2022.2.4,MacIntel,47.61904762,,,,,,,,,,,,,,,,,,,,,,,,,,,down,0,4.635,,0.688639551,-0.11430575,1,0,0,0.389,0,61,61,55,1,praat,images/br_praat.png,images/cb_praat.png,0,,,,,,,,,,,,,,,,,,,,,,
,,,,,,00056,2023-10-13_14h54.08.973,vbt_B2_day2,2022.2.4,MacIntel,47.61904762,,,,,,,,,,,,,,,,,,,,,,,,,,,down,0,6.033,,0.698457223,0.000701262,1,0,0,0.403,0,62,62,7,1,geld,images/br_geld.png,images/cb_geld.png,0,,,,,,,,,,,,,,,,,,,,,,
,,,,,,00056,2023-10-13_14h54.08.973,vbt_B2_day2,2022.2.4,MacIntel,47.61904762,,,,,,,,,,,,,,,,,,,,,,,,,,,down,0,14.047,,0.657784011,-0.089060309,1,0,0,0.442,0,63,63,143,1,hechten,images/br_hechten.png,images/cb_hechten.png,0,,,,,,,,,,,,,,,,,,,,,,
,,,,,,00056,2023-10-13_14h54.08.973,vbt_B2_day2,2022.2.4,MacIntel,47.61904762,,,,,,,,,,,,,,,,,,,,,,,,,,,down,0,2.649,,0.640953717,-0.124123422,1,0,0,0.453,0,64,64,171,1,aarzelen,images/br_aarzelen.png,images/cb_aarzelen.png,0,,,,,,,,,,,,,,,,,,,,,,
,,,,,,00056,2023-10-13_14h54.08.973,vbt_B2_day2,2022.2.4,MacIntel,47.61904762,,,,,,,,,,,,,,,,,,,,,,,,,,,down,0,3.546,,0.605890603,-0.12973352,1,0,0,0.458,0,65,65,192,1,schaamte,images/br_schaamte.png,images/cb_schaamte.png,0,,,,,,,,,,,,,,,,,,,,,,
,,,,,,00056,2023-10-13_14h54.08.973,vbt_B2_day2,2022.2.4,MacIntel,47.61904762,,,,,,,,,,,,,,,,,,,,,,,,,,,down,0,3.649,,0.591865358,-0.105890603,1,0,0,0.606,0,66,66,70,1,ijdel,images/br_ijdel.png,images/cb_ijdel.png,0,,,,,,,,,,,,,,,,,,,,,,
,,,,,,00056,2023-10-13_14h54.08.973,vbt_B2_day2,2022.2.4,MacIntel,47.61904762,,,,,,,,,,,,,,,,,,,,,,,,,,,down,0,1.631,,0.61430575,-0.093267882,1,0,0,0.525,0,67,67,21,1,mist,images/br_mist.png,images/cb_mist.png,0,,,,,,,,,,,,,,,,,,,,,,
,,,,,,00056,2023-10-13_14h54.08.973,vbt_B2_day2,2022.2.4,MacIntel,47.61904762,,,,,,,,,,,,,,,,,,,,,,,,,,,down,0,4.915,,0.663394109,-0.094670407,1,0,0,0.408,0,68,68,194,1,driemaal,images/br_driemaal.png,images/cb_driemaal.png,0,,,,,,,,,,,,,,,,,,,,,,
,,,,,,00056,2023-10-13_14h54.08.973,vbt_B2_day2,2022.2.4,MacIntel,47.61904762,,,,,,,,,,,,,,,,,,,,,,,,,,,down,0,1.65,,0.663394109,-0.093267882,1,0,0,0.42,0,69,69,35,1,lust,images/br_lust.png,images/cb_lust.png,0,,,,,,,,,,,,,,,,,,,,,,
,,,,,,00056,2023-10-13_14h54.08.973,vbt_B2_day2,2022.2.4,MacIntel,47.61904762,,,,,,,,,,,,,,,,,,,,,,,,,,,down,0,3.234,,0.647966339,-0.118513324,1,0,0,0.44,0,70,70,53,1,baron,images/br_baron.png,images/cb_baron.png,0,,,,,,,,,,,,,,,,,,,,,,
,,,,,,00056,2023-10-13_14h54.08.973,vbt_B2_day2,2022.2.4,MacIntel,47.61904762,,,,,,,,,,,,,,,,,,,,,,,,,,,down,0,3.899,,0.671809257,-0.121318373,1,0,0,0.423,0,71,71,148,1,smullen,images/br_smullen.png,images/cb_smullen.png,0,,,,,,,,,,,,,,,,,,,,,,
,,,,,,00056,2023-10-13_14h54.08.973,vbt_B2_day2,2022.2.4,MacIntel,47.61904762,,,,,,,,,,,,,,,,,,,,,,,,,,,down,0,2.649,,0.649368864,-0.119915849,1,0,0,0.353,0,72,72,126,1,kasteel,images/br_kasteel.png,images/cb_kasteel.png,0,,,,,,,,,,,,,,,,,,,,,,
,,,,,,00056,2023-10-13_14h54.08.973,vbt_B2_day2,2022.2.4,MacIntel,47.61904762,,,,,,,,,,,,,,,,,,,,,,,,,,,down,0,2.865,,0.643758766,-0.112903226,1,0,0,0.374,0,73,73,10,1,leek,images/br_leek.png,images/cb_leek.png,0,,,,,,,,,,,,,,,,,,,,,,
,,,,,,00056,2023-10-13_14h54.08.973,vbt_B2_day2,2022.2.4,MacIntel,47.61904762,,,,,,,,,,,,,,,,,,,,,,,,,,,down,0,11.98,,0.611500701,-0.075035063,1,0,0,1.857,0,74,74,145,1,invloed,images/br_invloed.png,images/cb_invloed.png,0,,,,,,,,,,,,,,,,,,,,,,
,,,,,,00056,2023-10-13_14h54.08.973,vbt_B2_day2,2022.2.4,MacIntel,47.61904762,,,,,,,,,,,,,,,,,,,,,,,,,,,down,0,3.517,,0.667601683,-0.121318373,1,0,0,0.336,0,75,75,115,1,kleren,images/br_kleren.png,images/cb_kleren.png,0,,,,,,,,,,,,,,,,,,,,,,
,,,,,,00056,2023-10-13_14h54.08.973,vbt_B2_day2,2022.2.4,MacIntel,47.61904762,,,,,,,,,,,,,,,,,,,,,,,,,,,down,0,5.648,,0.612903226,-0.190042076,1,0,0,0.358,0,76,76,23,1,zout,images/br_zout.png,images/cb_zout.png,0,,,,,,,,,,,,,,,,,,,,,,
,,,,,,00056,2023-10-13_14h54.08.973,vbt_B2_day2,2022.2.4,MacIntel,47.61904762,,,,,,,,,,,,,,,,,,,,,,,,,,,down,0,0.667,,0.58345021,-0.122720898,1,0,0,0.409,0,77,77,5,1,blad,images/br_blad.png,images/cb_blad.png,0,,,,,,,,,,,,,,,,,,,,,,
,,,,,,00056,2023-10-13_14h54.08.973,vbt_B2_day2,2022.2.4,MacIntel,47.61904762,,,,,,,,,,,,,,,,,,,,,,,,,,,down,0,1.983,,0.618513324,-0.124123422,1,0,0,0.353,0,78,78,33,1,vlek,images/br_vlek.png,images/cb_vlek.png,0,,,,,,,,,,,,,,,,,,,,,,
,,,,,,00056,2023-10-13_14h54.08.973,vbt_B2_day2,2022.2.4,MacIntel,47.61904762,,,,,,,,,,,,,,,,,,,,,,,,,,,down,0,1.617,,0.615708275,-0.096072931,1,0,0,0.355,0,79,79,100,1,geduld,images/br_geduld.png,images/cb_geduld.png,0,,,,,,,,,,,,,,,,,,,,,,
,,,,,,00056,2023-10-13_14h54.08.973,vbt_B2_day2,2022.2.4,MacIntel,47.61904762,,,,,,,,,,,,,,,,,,,,,,,,,,,down,0,7.731,,0.642356241,-0.046984572,1,0,0,0.375,0,80,80,74,1,graaf,images/br_graaf.png,images/cb_graaf.png,0,,,,,,,,,,,,,,,,,,,,,,
,,,,,,00056,2023-10-13_14h54.08.973,vbt_B2_day2,2022.2.4,MacIntel,47.61904762,,,,,,,,,,,,,,,,,,,,,,,,,,,down,0,2.966,,0.649368864,-0.147966339,1,0,0,0.323,0,81,81,41,1,maken,images/br_maken.png,images/cb_maken.png,0,,,,,,,,,,,,,,,,,,,,,,
,,,,,,00056,2023-10-13_14h54.08.973,vbt_B2_day2,2022.2.4,MacIntel,47.61904762,,,,,,,,,,,,,,,,,,,,,,,,,,,down,0,6.131,,0.590462833,-0.282608696,1,0,0,0.409,0,82,82,12,1,kust,images/br_kust.png,images/cb_kust.png,0,,,,,,,,,,,,,,,,,,,,,,
,,,,,,00056,2023-10-13_14h54.08.973,vbt_B2_day2,2022.2.4,MacIntel,47.61904762,,,,,,,,,,,,,,,,,,,,,,,,,,,down,0,15.265,,0.656381487,-0.244740533,1,0,0,0.774,0,83,83,111,1,ticket,images/br_ticket.png,images/cb_ticket.png,0,,,,,,,,,,,,,,,,,,,,,,
,,,,,,00056,2023-10-13_14h54.08.973,vbt_B2_day2,2022.2.4,MacIntel,47.61904762,,,,,,,,,,,,,,,,,,,,,,,,,,,down,0,3.348,,0.671809257,-0.223702665,1,0,0,0.475,0,84,84,122,1,waarvan,images/br_waarvan.png,images/cb_waarvan.png,0,,,,,,,,,,,,,,,,,,,,,,
,,,,,,00056,2023-10-13_14h54.08.973,vbt_B2_day2,2022.2.4,MacIntel,47.61904762,,,,,,,,,,,,,,,,,,,,,,,,,,,down,0,3.799,,0.701262272,-0.258765778,1,0,0,0.875,0,85,85,14,1,rijp,images/br_rijp.png,images/cb_rijp.png,0,,,,,,,,,,,,,,,,,,,,,,
,,,,,,00056,2023-10-13_14h54.08.973,vbt_B2_day2,2022.2.4,MacIntel,47.61904762,,,,,,,,,,,,,,,,,,,,,,,,,,,down,0,3.065,,0.624123422,-0.298036466,1,0,0,0.507,0,86,86,106,1,zingen,images/br_zingen.png,images/cb_zingen.png,0,,,,,,,,,,,,,,,,,,,,,,
,,,,,,00056,2023-10-13_14h54.08.973,vbt_B2_day2,2022.2.4,MacIntel,47.61904762,,,,,,,,,,,,,,,,,,,,,,,,,,,down,0,3.534,,0.647966339,-0.29943899,1,0,0,0.474,0,87,87,112,1,lukken,images/br_lukken.png,images/cb_lukken.png,0,,,,,,,,,,,,,,,,,,,,,,
,,,,,,00056,2023-10-13_14h54.08.973,vbt_B2_day2,2022.2.4,MacIntel,47.61904762,,,,,,,,,,,,,,,,,,,,,,,,,,,down,0,13.199,,0.584852735,-0.22230014,1,0,0,1.059,0,88,88,57,1,steek,images/br_steek.png,images/cb_steek.png,1,Steek,,,,,,,,,,,,,,,,,,,,,
,,,,,,00056,2023-10-13_14h54.08.973,vbt_B2_day2,2022.2.4,MacIntel,47.61904762,,,,,,,,,,,,,,,,,,,,,,,,,,,down,0,1.998,,0.590462833,-0.208274895,1,0,0,0.429,0,89,89,11,1,mode,images/br_mode.png,images/cb_mode.png,0,,,,,,,,,,,,,,,,,,,,,,
,,,,,,00056,2023-10-13_14h54.08.973,vbt_B2_day2,2022.2.4,MacIntel,47.61904762,,,,,,,,,,,,,,,,,,,,,,,,,,,down,0,9.499,,0.628330996,-0.20687237,1,0,0,0.72,0,90,90,97,1,loyaal,images/br_loyaal.png,images/cb_loyaal.png,1,Loyaal,,,,,,,,,,,,,,,,,,,,,
,,,,,,00056,2023-10-13_14h54.08.973,vbt_B2_day2,2022.2.4,MacIntel,47.61904762,,,,,,,,,,,,,,,,,,,,,,,,,,,down,0,8.131,,0.652173913,-0.23772791,1,0,0,0.804,0,91,91,180,1,openbaar,images/br_openbaar.png,images/cb_openbaar.png,0,,,,,,,,,,,,,,,,,,,,,,
,,,,,,00056,2023-10-13_14h54.08.973,vbt_B2_day2,2022.2.4,MacIntel,47.61904762,,,,,,,,,,,,,,,,,,,,,,,,,,,down,0,7.5,,0.50631136,-0.239130435,1,0,0,1.038,0,92,92,139,1,stiekem,images/br_stiekem.png,images/cb_stiekem.png,1,Stiekem,,,,,,,,,,,,,,,,,,,,,
,,,,,,00056,2023-10-13_14h54.08.973,vbt_B2_day2,2022.2.4,MacIntel,47.61904762,,,,,,,,,,,,,,,,,,,,,,,,,,,down,0,3.082,,0.572230014,-0.258765778,1,0,0,0.391,0,93,93,77,1,woede,images/br_woede.png,images/cb_woede.png,0,,,,,,,,,,,,,,,,,,,,,,
,,,,,,00056,2023-10-13_14h54.08.973,vbt_B2_day2,2022.2.4,MacIntel,47.61904762,,,,,,,,,,,,,,,,,,,,,,,,,,,down,0,4.033,,0.639551192,-0.23772791,1,0,0,0.417,0,94,94,183,1,getuigen,images/br_getuigen.png,images/cb_getuigen.png,0,,,,,,,,,,,,,,,,,,,,,,
,,,,,,00056,2023-10-13_14h54.08.973,vbt_B2_day2,2022.2.4,MacIntel,47.61904762,,,,,,,,,,,,,,,,,,,,,,,,,,,down,0,5.732,,0.666199158,-0.244740533,1,0,0,0.42,0,95,95,172,1,weigeren,images/br_weigeren.png,images/cb_weigeren.png,0,,,,,,,,,,,,,,,,,,,,,,
,,,,,,00056,2023-10-13_14h54.08.973,vbt_B2_day2,2022.2.4,MacIntel,47.61904762,,,,,,,,,,,,,,,,,,,,,,,,,,,down,0,5.116,,0.663394109,-0.230715288,1,0,0,0.439,0,96,96,135,1,gedicht,images/br_gedicht.png,images/cb_gedicht.png,0,,,,,,,,,,,,,,,,,,,,,,
,,,,,,00056,2023-10-13_14h54.08.973,vbt_B2_day2,2022.2.4,MacIntel,47.61904762,,,,,,,,,,,,,,,,,,,,,,,,,,,down,0,3.084,,0.67601683,-0.219495091,1,0,0,0.407,0,97,97,61,1,groen,images/br_groen.png,images/cb_groen.png,0,,,,,,,,,,,,,,,,,,,,,,
,,,,,,00056,2023-10-13_14h54.08.973,vbt_B2_day2,2022.2.4,MacIntel,47.61904762,,,,,,,,,,,,,,,,,,,,,,,,,,,down,0,9.649,,0.762973352,-0.227910238,1,0,0,0.44,0,98,98,118,1,vinger,images/br_vinger.png,images/cb_vinger.png,0,,,,,,,,,,,,,,,,,,,,,,
,,,,,,00056,2023-10-13_14h54.08.973,vbt_B2_day2,2022.2.4,MacIntel,47.61904762,,,,,,,,,,,,,,,,,,,,,,,,,,,down,0,1.398,,0.712482468,-0.276998597,1,0,0,0.359,0,99,99,78,1,leren,images/br_leren.png,images/cb_leren.png,0,,,,,,,,,,,,,,,,,,,,,,
,,,,,,00056,2023-10-13_14h54.08.973,vbt_B2_day2,2022.2.4,MacIntel,47.61904762,,,,,,,,,,,,,,,,,,,,,,,,,,,down,0,5.63,,0.661991585,-0.216690042,1,0,0,0.608,0,100,100,146,1,opkomen,images/br_opkomen.png,images/cb_opkomen.png,0,,,,,,,,,,,,,,,,,,,,,,
,,,,,,00056,2023-10-13_14h54.08.973,vbt_B2_day2,2022.2.4,MacIntel,47.61904762,,,,,,,,,,,,,,,,,,,,,,,,,,,down,0,6.564,,0.670406732,-0.185834502,1,0,0,0.375,0,101,101,121,1,twijfel,images/br_twijfel.png,images/cb_twijfel.png,0,,,,,,,,,,,,,,,,,,,,,,
,,,,,,00056,2023-10-13_14h54.08.973,vbt_B2_day2,2022.2.4,MacIntel,47.61904762,,,,,,,,,,,,,,,,,,,,,,,,,,,down,0,12.932,,0.674614306,-0.257363254,1,0,0,0.492,0,102,102,196,1,nakijken,images/br_nakijken.png,images/cb_nakijken.png,0,,,,,,,,,,,,,,,,,,,,,,
,,,,,,00056,2023-10-13_14h54.08.973,vbt_B2_day2,2022.2.4,MacIntel,47.61904762,,,,,,,,,,,,,,,,,,,,,,,,,,,down,0,2.399,,0.694249649,-0.209677419,1,0,0,0.391,0,103,103,170,1,schatten,images/br_schatten.png,images/cb_schatten.png,0,,,,,,,,,,,,,,,,,,,,,,
,,,,,,00056,2023-10-13_14h54.08.973,vbt_B2_day2,2022.2.4,MacIntel,47.61904762,,,,,,,,,,,,,,,,,,,,,,,,,,,down,0,6.365,,0.631136045,-0.254558205,1,0,0,0.357,0,104,104,116,1,besmet,images/br_besmet.png,images/cb_besmet.png,0,,,,,,,,,,,,,,,,,,,,,,
,,,,,,00056,2023-10-13_14h54.08.973,vbt_B2_day2,2022.2.4,MacIntel,47.61904762,,,,,,,,,,,,,,,,,,,,,,,,,,,down,0,13.716,,0.555399719,-0.26858345,1,0,0,0.971,0,105,105,178,1,huisdier,images/br_huisdier.png,images/cb_huisdier.png,1,Huisdier,,,,,,,,,,,,,,,,,,,,,
,,,,,,00056,2023-10-13_14h54.08.973,vbt_B2_day2,2022.2.4,MacIntel,47.61904762,,,,,,,,,,,,,,,,,,,,,,,,,,,down,0,3.116,,0.559607293,-0.219495091,1,0,0,0.369,0,106,106,4,1,moes,images/br_moes.png,images/cb_moes.png,0,,,,,,,,,,,,,,,,,,,,,,
,,,,,,00056,2023-10-13_14h54.08.973,vbt_B2_day2,2022.2.4,MacIntel,47.61904762,,,,,,,,,,,,,,,,,,,,,,,,,,,down,0,6.648,,0.622720898,-0.124123422,1,0,0,0.424,0,107,107,167,1,eenhoorn,images/br_eenhoorn.png,images/cb_eenhoorn.png,0,,,,,,,,,,,,,,,,,,,,,,
,,,,,,00056,2023-10-13_14h54.08.973,vbt_B2_day2,2022.2.4,MacIntel,47.61904762,,,,,,,,,,,,,,,,,,,,,,,,,,,down,0,5.284,,0.516129032,-0.169004208,1,0,0,0.77,0,108,108,56,1,traag,images/br_traag.png,images/cb_traag.png,1,Traag,,,,,,,,,,,,,,,,,,,,,
,,,,,,00056,2023-10-13_14h54.08.973,vbt_B2_day2,2022.2.4,MacIntel,47.61904762,,,,,,,,,,,,,,,,,,,,,,,,,,,down,0,2.233,,0.541374474,-0.154978962,1,0,0,0.441,0,109,109,15,1,soda,images/br_soda.png,images/cb_soda.png,0,,,,,,,,,,,,,,,,,,,,,,
,,,,,,00056,2023-10-13_14h54.08.973,vbt_B2_day2,2022.2.4,MacIntel,47.61904762,,,,,,,,,,,,,,,,,,,,,,,,,,,down,0,2.031,,0.664796634,-0.241935484,1,0,0,0.441,0,110,110,40,1,schep,images/br_schep.png,images/cb_schep.png,0,,,,,,,,,,,,,,,,,,,,,,
,,,,,,00056,2023-10-13_14h54.08.973,vbt_B2_day2,2022.2.4,MacIntel,47.61904762,,,,,,,,,,,,,,,,,,,,,,,,,,,down,0,4,,0.667601683,-0.125525947,1,0,0,0.423,0,111,111,158,1,innemen,images/br_innemen.png,images/cb_innemen.png,0,,,,,,,,,,,,,,,,,,,,,,
,,,,,,00056,2023-10-13_14h54.08.973,vbt_B2_day2,2022.2.4,MacIntel,47.61904762,,,,,,,,,,,,,,,,,,,,,,,,,,,down,0,3.165,,0.661991585,-0.131136045,1,0,0,0.392,0,112,112,45,1,piste,images/br_piste.png,images/cb_piste.png,0,,,,,,,,,,,,,,,,,,,,,,
,,,,,,00056,2023-10-13_14h54.08.973,vbt_B2_day2,2022.2.4,MacIntel,47.61904762,,,,,,,,,,,,,,,,,,,,,,,,,,,down,0,2.199,,0.600280505,-0.170406732,1,0,0,0.426,0,113,113,52,1,wagon,images/br_wagon.png,images/cb_wagon.png,0,,,,,,,,,,,,,,,,,,,,,,
,,,,,,00056,2023-10-13_14h54.08.973,vbt_B2_day2,2022.2.4,MacIntel,47.61904762,,,,,,,,,,,,,,,,,,,,,,,,,,,down,0,4.796,,0.611500701,-0.216690042,1,0,0,0.374,0,114,114,125,1,aanzien,images/br_aanzien.png,images/cb_aanzien.png,0,,,,,,,,,,,,,,,,,,,,,,
,,,,,,00056,2023-10-13_14h54.08.973,vbt_B2_day2,2022.2.4,MacIntel,47.61904762,,,,,,,,,,,,,,,,,,,,,,,,,,,down,0,2.616,,0.656381487,-0.205469846,1,0,0,0.439,0,115,115,66,1,lever,images/br_lever.png,images/cb_lever.png,0,,,,,,,,,,,,,,,,,,,,,,
,,,,,,00056,2023-10-13_14h54.08.973,vbt_B2_day2,2022.2.4,MacIntel,47.61904762,,,,,,,,,,,,,,,,,,,,,,,,,,,down,0,1.868,,0.611500701,-0.205469846,1,0,0,0.422,0,116,116,64,1,wegen,images/br_wegen.png,images/cb_wegen.png,0,,,,,,,,,,,,,,,,,,,,,,
,,,,,,00056,2023-10-13_14h54.08.973,vbt_B2_day2,2022.2.4,MacIntel,47.61904762,,,,,,,,,,,,,,,,,,,,,,,,,,,down,0,6.117,,0.603085554,-0.240532959,1,0,0,0.503,0,117,117,96,1,slagen,images/br_slagen.png,images/cb_slagen.png,1,Slagen,,,,,,,,,,,,,,,,,,,,,
,,,,,,00056,2023-10-13_14h54.08.973,vbt_B2_day2,2022.2.4,MacIntel,47.61904762,,,,,,,,,,,,,,,,,,,,,,,,,,,down,0,1.015,,0.635343619,-0.285413745,1,0,0,0.343,0,118,118,13,1,kaal,images/br_kaal.png,images/cb_kaal.png,0,,,,,,,,,,,,,,,,,,,,,,
,,,,,,00056,2023-10-13_14h54.08.973,vbt_B2_day2,2022.2.4,MacIntel,47.61904762,,,,,,,,,,,,,,,,,,,,,,,,,,,down,0,4.298,,0.549789621,-0.094670407,1,0,0,0.441,0,119,119,163,1,schuilen,images/br_schuilen.png,images/cb_schuilen.png,0,,,,,,,,,,,,,,,,,,,,,,
,,,,,,00056,2023-10-13_14h54.08.973,vbt_B2_day2,2022.2.4,MacIntel,47.61904762,,,,,,,,,,,,,,,,,,,,,,,,,,,down,0,4.515,,0.626928471,-0.213884993,1,0,0,0.458,0,120,120,197,1,spanning,images/br_spanning.png,images/cb_spanning.png,0,,,,,,,,,,,,,,,,,,,,,,
,,,,,,00056,2023-10-13_14h54.08.973,vbt_B2_day2,2022.2.4,MacIntel,47.61904762,,,,,,,,,,,,,,,,,,,,,,,,,,,down,0,8.598,,0.482468443,-0.140953717,1,0,0,1.175,0,121,121,17,1,taal,images/br_taal.png,images/cb_taal.png,1,Taal,,,,,,,,,,,,,,,,,,,,,
,,,,,,00056,2023-10-13_14h54.08.973,vbt_B2_day2,2022.2.4,MacIntel,47.61904762,,,,,,,,,,,,,,,,,,,,,,,,,,,down,0,5.498,,0.590462833,-0.227910238,1,0,0,0.442,0,122,122,159,1,sufferd,images/br_sufferd.png,images/cb_sufferd.png,0,,,,,,,,,,,,,,,,,,,,,,
,,,,,,00056,2023-10-13_14h54.08.973,vbt_B2_day2,2022.2.4,MacIntel,47.61904762,,,,,,,,,,,,,,,,,,,,,,,,,,,down,0,6.997,,0.640953717,-0.201262272,1,0,0,0.373,0,123,123,142,1,snuiven,images/br_snuiven.png,images/cb_snuiven.png,0,,,,,,,,,,,,,,,,,,,,,,
,,,,,,00056,2023-10-13_14h54.08.973,vbt_B2_day2,2022.2.4,MacIntel,47.61904762,,,,,,,,,,,,,,,,,,,,,,,,,,,down,0,5.497,,0.441795231,-0.028751753,1,0,0,0.51,0,124,124,42,1,bleek,images/br_bleek.png,images/cb_bleek.png,0,,,,,,,,,,,,,,,,,,,,,,
,,,,,,00056,2023-10-13_14h54.08.973,vbt_B2_day2,2022.2.4,MacIntel,47.61904762,,,,,,,,,,,,,,,,,,,,,,,,,,,down,0,14.568,,0.601683029,-0.288218794,1,0,0,0.433,0,125,125,177,1,maaltijd,images/br_maaltijd.png,images/cb_maaltijd.png,1,Maaltijd,,,,,,,,,,,,,,,,,,,,,
,,,,,,00056,2023-10-13_14h54.08.973,vbt_B2_day2,2022.2.4,MacIntel,47.61904762,,,,,,,,,,,,,,,,,,,,,,,,,,,down,0,5.499,,0.62973352,-0.230715288,1,0,0,0.441,0,126,126,114,1,vullen,images/br_vullen.png,images/cb_vullen.png,0,,,,,,,,,,,,,,,,,,,,,,
,,,,,,00056,2023-10-13_14h54.08.973,vbt_B2_day2,2022.2.4,MacIntel,47.61904762,,,,,,,,,,,,,,,,,,,,,,,,,,,down,0,3.833,,0.713884993,-0.209677419,1,0,0,0.338,0,127,127,181,1,toegeven,images/br_toegeven.png,images/cb_toegeven.png,0,,,,,,,,,,,,,,,,,,,,,,
,,,,,,00056,2023-10-13_14h54.08.973,vbt_B2_day2,2022.2.4,MacIntel,47.61904762,,,,,,,,,,,,,,,,,,,,,,,,,,,down,0,2.698,,0.678821879,-0.211079944,1,0,0,0.326,0,128,128,86,1,woning,images/br_woning.png,images/cb_woning.png,0,,,,,,,,,,,,,,,,,,,,,,
,,,,,,00056,2023-10-13_14h54.08.973,vbt_B2_day2,2022.2.4,MacIntel,47.61904762,,,,,,,,,,,,,,,,,,,,,,,,,,,down,0,1.116,,0.624123422,-0.248948107,1,0,0,0.409,0,129,129,22,1,stof,images/br_stof.png,images/cb_stof.png,0,,,,,,,,,,,,,,,,,,,,,,
,,,,,,00056,2023-10-13_14h54.08.973,vbt_B2_day2,2022.2.4,MacIntel,47.61904762,,,,,,,,,,,,,,,,,,,,,,,,,,,down,0,6.649,,0.532959327,-0.178821879,1,0,0,0.621,0,130,130,16,1,ziek,images/br_ziek.png,images/cb_ziek.png,1,Ziek,,,,,,,,,,,,,,,,,,,,,
,,,,,,00056,2023-10-13_14h54.08.973,vbt_B2_day2,2022.2.4,MacIntel,47.61904762,,,,,,,,,,,,,,,,,,,,,,,,,,,down,0,1.464,,0.523141655,-0.169004208,1,0,0,0.388,0,131,131,36,1,vuur,images/br_vuur.png,images/cb_vuur.png,0,,,,,,,,,,,,,,,,,,,,,,
,,,,,,00056,2023-10-13_14h54.08.973,vbt_B2_day2,2022.2.4,MacIntel,47.61904762,,,,,,,,,,,,,,,,,,,,,,,,,,,down,0,5.233,,0.576437588,-0.226507714,1,0,0,0.54,0,132,132,69,1,waken,images/br_waken.png,images/cb_waken.png,0,,,,,,,,,,,,,,,,,,,,,,
,,,,,,00056,2023-10-13_14h54.08.973,vbt_B2_day2,2022.2.4,MacIntel,47.61904762,,,,,,,,,,,,,,,,,,,,,,,,,,,down,0,9.014,,0.622720898,-0.173211781,1,0,0,0.425,0,133,133,133,1,seizoen,images/br_seizoen.png,images/cb_seizoen.png,0,,,,,,,,,,,,,,,,,,,,,,
,,,,,,00056,2023-10-13_14h54.08.973,vbt_B2_day2,2022.2.4,MacIntel,47.61904762,,,,,,,,,,,,,,,,,,,,,,,,,,,down,0,1.567,,0.395511921,-0.069424965,1,0,0,0.489,0,134,134,2,1,jaar,images/br_jaar.png,images/cb_jaar.png,0,,,,,,,,,,,,,,,,,,,,,,
,,,,,,00056,2023-10-13_14h54.08.973,vbt_B2_day2,2022.2.4,MacIntel,47.61904762,,,,,,,,,,,,,,,,,,,,,,,,,,,down,0,3.218,,0.532959327,-0.069424965,1,0,0,0.532,0,135,135,82,1,muziek,images/br_muziek.png,images/cb_muziek.png,0,,,,,,,,,,,,,,,,,,,,,,
,,,,,,00056,2023-10-13_14h54.08.973,vbt_B2_day2,2022.2.4,MacIntel,47.61904762,,,,,,,,,,,,,,,,,,,,,,,,,,,down,0,6.565,,0.586255259,-0.097475456,1,0,0,0.543,0,136,136,165,1,feestdag,images/br_feestdag.png,images/cb_feestdag.png,0,,,,,,,,,,,,,,,,,,,,,,
,,,,,,00056,2023-10-13_14h54.08.973,vbt_B2_day2,2022.2.4,MacIntel,47.61904762,,,,,,,,,,,,,,,,,,,,,,,,,,,down,0,0.046,,0.483870968,-0.025946704,1,0,0,0.571,0,137,137,28,1,stal,images/br_stal.png,images/cb_stal.png,0,,,,,,,,,,,,,,,,,,,,,,
,,,,,,00056,2023-10-13_14h54.08.973,vbt_B2_day2,2022.2.4,MacIntel,47.61904762,,,,,,,,,,,,,,,,,,,,,,,,,,,down,0,15.897,,0.563814867,-0.087657784,1,0,0,0.555,0,138,138,130,1,keihard,images/br_keihard.png,images/cb_keihard.png,0,,,,,,,,,,,,,,,,,,,,,,
,,,,,,00056,2023-10-13_14h54.08.973,vbt_B2_day2,2022.2.4,MacIntel,47.61904762,,,,,,,,,,,,,,,,,,,,,,,,,,,down,0,11.284,,0.542776999,-0.319074334,1,0,0,0.819,0,139,139,179,1,woestijn,images/br_woestijn.png,images/cb_woestijn.png,1,Woestijn,,,,,,,,,,,,,,,,,,,,,
,,,,,,00056,2023-10-13_14h54.08.973,vbt_B2_day2,2022.2.4,MacIntel,47.61904762,,,,,,,,,,,,,,,,,,,,,,,,,,,down,0,7.115,,0.472650771,-0.066619916,1,0,0,0.474,0,140,140,91,1,gezond,images/br_gezond.png,images/cb_gezond.png,0,,,,,,,,,,,,,,,,,,,,,,
,,,,,,00056,2023-10-13_14h54.08.973,vbt_B2_day2,2022.2.4,MacIntel,47.61904762,,,,,,,,,,,,,,,,,,,,,,,,,,,down,0,5.4,,0.446002805,-0.08345021,1,0,0,0.675,0,141,141,58,1,tekst,images/br_tekst.png,images/cb_tekst.png,1,Tekst,,,,,,,,,,,,,,,,,,,,,
,,,,,,00056,2023-10-13_14h54.08.973,vbt_B2_day2,2022.2.4,MacIntel,47.61904762,,,,,,,,,,,,,,,,,,,,,,,,,,,down,0,5.098,,0.464235624,-0.046984572,1,0,0,2.472,0,142,142,157,1,uitlaat,images/br_uitlaat.png,images/cb_uitlaat.png,0,,,,,,,,,,,,,,,,,,,,,,
,,,,,,00056,2023-10-13_14h54.08.973,vbt_B2_day2,2022.2.4,MacIntel,47.61904762,,,,,,,,,,,,,,,,,,,,,,,,,,,down,0,8.583,,0.479663394,-0.117110799,1,0,0,0.736,0,143,143,99,1,koffie,images/br_koffie.png,images/cb_koffie.png,1,Koffie,,,,,,,,,,,,,,,,,,,,,
,,,,,,00056,2023-10-13_14h54.08.973,vbt_B2_day2,2022.2.4,MacIntel,47.61904762,,,,,,,,,,,,,,,,,,,,,,,,,,,down,0,2.331,,0.603085554,-0.150771388,1,0,0,0.655,0,144,144,26,1,leuk,images/br_leuk.png,images/cb_leuk.png,0,,,,,,,,,,,,,,,,,,,,,,
,,,,,,00056,2023-10-13_14h54.08.973,vbt_B2_day2,2022.2.4,MacIntel,47.61904762,,,,,,,,,,,,,,,,,,,,,,,,,,,down,0,4.98,,0.576437588,-0.084852735,1,0,0,0.543,0,145,145,105,1,wijlen,images/br_wijlen.png,images/cb_wijlen.png,0,,,,,,,,,,,,,,,,,,,,,,
,,,,,,00056,2023-10-13_14h54.08.973,vbt_B2_day2,2022.2.4,MacIntel,47.61904762,,,,,,,,,,,,,,,,,,,,,,,,,,,down,0,1.931,,0.680224404,-0.169004208,1,0,0,0.409,0,146,146,89,1,slapen,images/br_slapen.png,images/cb_slapen.png,0,,,,,,,,,,,,,,,,,,,,,,
,,,,,,00056,2023-10-13_14h54.08.973,vbt_B2_day2,2022.2.4,MacIntel,47.61904762,,,,,,,,,,,,,,,,,,,,,,,,,,,down,0,9.167,,0.47545582,-0.061009818,1,0,0,1.821,0,147,147,98,1,kreeft,images/br_kreeft.png,images/cb_kreeft.png,1,Kreeft,,,,,,,,,,,,,,,,,,,,,
,,,,,,00056,2023-10-13_14h54.08.973,vbt_B2_day2,2022.2.4,MacIntel,47.61904762,,,,,,,,,,,,,,,,,,,,,,,,,,,down,0,5.065,,0.430575035,-0.117110799,1,0,0,0.606,0,148,148,189,1,aanraden,images/br_aanraden.png,images/cb_aanraden.png,0,,,,,,,,,,,,,,,,,,,,,,
,,,,,,00056,2023-10-13_14h54.08.973,vbt_B2_day2,2022.2.4,MacIntel,47.61904762,,,,,,,,,,,,,,,,,,,,,,,,,,,down,0,26.064,,0.563814867,-0.066619916,1,0,0,0.922,0,149,149,153,1,vervoer,images/br_vervoer.png,images/cb_vervoer.png,0,,,,,,,,,,,,,,,,,,,,,,
,,,,,,00056,2023-10-13_14h54.08.973,vbt_B2_day2,2022.2.4,MacIntel,47.61904762,,,,,,,,,,,,,,,,,,,,,,,,,,,down,0,2.516,,0.608695652,-0.197054698,1,0,0,0.357,0,150,150,43,1,klauw,images/br_klauw.png,images/cb_klauw.png,0,,,,,,,,,,,,,,,,,,,,,,
,,,,,,00056,2023-10-13_14h54.08.973,vbt_B2_day2,2022.2.4,MacIntel,47.61904762,,,,,,,,,,,,,,,,,,,,,,,,,,,down,0,3.831,,0.586255259,-0.089060309,1,0,0,0.524,0,151,151,44,1,flits,images/br_flits.png,images/cb_flits.png,0,,,,,,,,,,,,,,,,,,,,,,
,,,,,,00056,2023-10-13_14h54.08.973,vbt_B2_day2,2022.2.4,MacIntel,47.61904762,,,,,,,,,,,,,,,,,,,,,,,,,,,down,0,8.398,,0.50911641,-0.147966339,1,0,0,0.573,0,152,152,131,1,opzicht,images/br_opzicht.png,images/cb_opzicht.png,0,,,,,,,,,,,,,,,,,,,,,,
,,,,,,00056,2023-10-13_14h54.08.973,vbt_B2_day2,2022.2.4,MacIntel,47.61904762,,,,,,,,,,,,,,,,,,,,,,,,,,,down,0,4.532,,0.527349229,0.002103787,1,0,0,0.695,0,153,153,134,1,geliefd,images/br_geliefd.png,images/cb_geliefd.png,0,,,,,,,,,,,,,,,,,,,,,,
,,,,,,00056,2023-10-13_14h54.08.973,vbt_B2_day2,2022.2.4,MacIntel,47.61904762,,,,,,,,,,,,,,,,,,,,,,,,,,,down,0,1.682,,0.570827489,-0.044179523,1,0,0,0.44,0,154,154,38,1,baai,images/br_baai.png,images/cb_baai.png,0,,,,,,,,,,,,,,,,,,,,,,
,,,,,,00056,2023-10-13_14h54.08.973,vbt_B2_day2,2022.2.4,MacIntel,47.61904762,,,,,,,,,,,,,,,,,,,,,,,,,,,down,0,4.515,,0.590462833,-0.125525947,1,0,0,0.421,0,155,155,34,1,vorm,images/br_vorm.png,images/cb_vorm.png,0,,,,,,,,,,,,,,,,,,,,,,
,,,,,,00056,2023-10-13_14h54.08.973,vbt_B2_day2,2022.2.4,MacIntel,47.61904762,,,,,,,,,,,,,,,,,,,,,,,,,,,down,0,3.201,,0.50911641,-0.056802244,1,0,0,0.439,0,156,156,199,1,beseffen,images/br_beseffen.png,images/cb_beseffen.png,0,,,,,,,,,,,,,,,,,,,,,,
,,,,,,00056,2023-10-13_14h54.08.973,vbt_B2_day2,2022.2.4,MacIntel,47.61904762,,,,,,,,,,,,,,,,,,,,,,,,,,,down,0,7.264,,0.605890603,-0.167601683,1,0,0,0.476,0,157,157,129,1,verhaal,images/br_verhaal.png,images/cb_verhaal.png,0,,,,,,,,,,,,,,,,,,,,,,
,,,,,,00056,2023-10-13_14h54.08.973,vbt_B2_day2,2022.2.4,MacIntel,47.61904762,,,,,,,,,,,,,,,,,,,,,,,,,,,down,0,3.515,,0.52173913,-0.101683029,1,0,0,0.559,0,158,158,160,1,daarheen,images/br_daarheen.png,images/cb_daarheen.png,0,,,,,,,,,,,,,,,,,,,,,,
,,,,,,00056,2023-10-13_14h54.08.973,vbt_B2_day2,2022.2.4,MacIntel,47.61904762,,,,,,,,,,,,,,,,,,,,,,,,,,,down,0,4.332,,0.495091164,-0.03997195,1,0,0,0.444,0,159,159,128,1,prikken,images/br_prikken.png,images/cb_prikken.png,0,,,,,,,,,,,,,,,,,,,,,,
,,,,,,00056,2023-10-13_14h54.08.973,vbt_B2_day2,2022.2.4,MacIntel,47.61904762,,,,,,,,,,,,,,,,,,,,,,,,,,,down,0,0.948,,0.600280505,-0.108695652,1,0,0,0.326,0,160,160,0,1,slak,images/br_slak.png,images/cb_slak.png,0,,,,,,,,,,,,,,,,,,,,,,
,,,,,,00056,2023-10-13_14h54.08.973,vbt_B2_day2,2022.2.4,MacIntel,47.61904762,,,,,,,,,,,,,,,,,,,,,,,,,,,down,0,8.631,,0.594670407,-0.013323983,1,0,0,0.608,0,161,161,108,1,excuus,images/br_excuus.png,images/cb_excuus.png,0,,,,,,,,,,,,,,,,,,,,,,
,,,,,,00056,2023-10-13_14h54.08.973,vbt_B2_day2,2022.2.4,MacIntel,47.61904762,,,,,,,,,,,,,,,,,,,,,,,,,,,down,0,4.5,,0.545582048,-0.091865358,1,0,0,0.407,0,162,162,161,1,attentie,images/br_attentie.png,images/cb_attentie.png,0,,,,,,,,,,,,,,,,,,,,,,
,,,,,,00056,2023-10-13_14h54.08.973,vbt_B2_day2,2022.2.4,MacIntel,47.61904762,,,,,,,,,,,,,,,,,,,,,,,,,,,down,0,4.365,,0.50911641,-0.002103787,1,0,0,0.459,0,163,163,30,1,uien,images/br_uien.png,images/cb_uien.png,0,,,,,,,,,,,,,,,,,,,,,,
,,,,,,00056,2023-10-13_14h54.08.973,vbt_B2_day2,2022.2.4,MacIntel,47.61904762,,,,,,,,,,,,,,,,,,,,,,,,,,,down,0,4.066,,0.570827489,-0.016129032,1,0,0,0.385,0,164,164,190,1,goedkoop,images/br_goedkoop.png,images/cb_goedkoop.png,0,,,,,,,,,,,,,,,,,,,,,,
,,,,,,00056,2023-10-13_14h54.08.973,vbt_B2_day2,2022.2.4,MacIntel,47.61904762,,,,,,,,,,,,,,,,,,,,,,,,,,,down,0,1.998,,0.590462833,-0.086255259,1,0,0,0.441,0,165,165,51,1,samen,images/br_samen.png,images/cb_samen.png,0,,,,,,,,,,,,,,,,,,,,,,
,,,,,,00056,2023-10-13_14h54.08.973,vbt_B2_day2,2022.2.4,MacIntel,47.61904762,,,,,,,,,,,,,,,,,,,,,,,,,,,down,0,5.45,,0.624123422,-0.048387097,1,0,0,0.425,0,166,166,124,1,bloeien,images/br_bloeien.png,images/cb_bloeien.png,0,,,,,,,,,,,,,,,,,,,,,,
,,,,,,00056,2023-10-13_14h54.08.973,vbt_B2_day2,2022.2.4,MacIntel,47.61904762,,,,,,,,,,,,,,,,,,,,,,,,,,,down,0,4.531,,0.62973352,-0.073632539,1,0,0,0.357,0,167,167,188,1,strekken,images/br_strekken.png,images/cb_strekken.png,0,,,,,,,,,,,,,,,,,,,,,,
,,,,,,00056,2023-10-13_14h54.08.973,vbt_B2_day2,2022.2.4,MacIntel,47.61904762,,,,,,,,,,,,,,,,,,,,,,,,,,,down,0,4.697,,0.492286115,-0.044179523,1,0,0,0.676,0,168,168,175,1,heengaan,images/br_heengaan.png,images/cb_heengaan.png,0,,,,,,,,,,,,,,,,,,,,,,
,,,,,,00056,2023-10-13_14h54.08.973,vbt_B2_day2,2022.2.4,MacIntel,47.61904762,,,,,,,,,,,,,,,,,,,,,,,,,,,down,0,9.949,,0.636746143,-0.121318373,1,0,0,0.987,0,169,169,149,1,redding,images/br_redding.png,images/cb_redding.png,0,,,,,,,,,,,,,,,,,,,,,,
,,,,,,00056,2023-10-13_14h54.08.973,vbt_B2_day2,2022.2.4,MacIntel,47.61904762,,,,,,,,,,,,,,,,,,,,,,,,,,,down,0,4.45,,0.569424965,-0.104488079,1,0,0,0.506,0,170,170,37,1,mijn,images/br_mijn.png,images/cb_mijn.png,0,,,,,,,,,,,,,,,,,,,,,,
,,,,,,00056,2023-10-13_14h54.08.973,vbt_B2_day2,2022.2.4,MacIntel,47.61904762,,,,,,,,,,,,,,,,,,,,,,,,,,,down,0,3.882,,0.607293128,-0.118513324,1,0,0,0.487,0,171,171,150,1,gegeven,images/br_gegeven.png,images/cb_gegeven.png,0,,,,,,,,,,,,,,,,,,,,,,
,,,,,,00056,2023-10-13_14h54.08.973,vbt_B2_day2,2022.2.4,MacIntel,47.61904762,,,,,,,,,,,,,,,,,,,,,,,,,,,down,0,8.249,,0.483870968,-0.089060309,1,0,0,3.074,0,172,172,137,1,trekker,images/br_trekker.png,images/cb_trekker.png,1,Stekker,,,,,,,,,,,,,,,,,,,,,
,,,,,,00056,2023-10-13_14h54.08.973,vbt_B2_day2,2022.2.4,MacIntel,47.61904762,,,,,,,,,,,,,,,,,,,,,,,,,,,down,0,2.132,,0.573632539,0.097475456,1,0,0,0.475,0,173,173,76,1,afval,images/br_afval.png,images/cb_afval.png,0,,,,,,,,,,,,,,,,,,,,,,
,,,,,,00056,2023-10-13_14h54.08.973,vbt_B2_day2,2022.2.4,MacIntel,47.61904762,,,,,,,,,,,,,,,,,,,,,,,,,,,down,0,2.452,,0.503506311,0.011921459,1,0,0,0.505,0,174,174,84,1,lokken,images/br_lokken.png,images/cb_lokken.png,0,,,,,,,,,,,,,,,,,,,,,,
,,,,,,00056,2023-10-13_14h54.08.973,vbt_B2_day2,2022.2.4,MacIntel,47.61904762,,,,,,,,,,,,,,,,,,,,,,,,,,,down,0,3.815,,0.727910238,-0.121318373,1,0,0,0.825,0,175,175,102,1,legaal,images/br_legaal.png,images/cb_legaal.png,0,,,,,,,,,,,,,,,,,,,,,,
,,,,,,00056,2023-10-13_14h54.08.973,vbt_B2_day2,2022.2.4,MacIntel,47.61904762,,,,,,,,,,,,,,,,,,,,,,,,,,,down,0,3.132,,0.525946704,-0.161991585,1,0,0,0.493,0,176,176,117,1,kennis,images/br_kennis.png,images/cb_kennis.png,0,,,,,,,,,,,,,,,,,,,,,,
,,,,,,00056,2023-10-13_14h54.08.973,vbt_B2_day2,2022.2.4,MacIntel,47.61904762,,,,,,,,,,,,,,,,,,,,,,,,,,,down,0,7.718,,0.511921459,-0.153576438,1,0,0,0.442,0,177,177,59,1,kring,images/br_kring.png,images/cb_kring.png,1,Kring,,,,,,,,,,,,,,,,,,,,,
,,,,,,00056,2023-10-13_14h54.08.973,vbt_B2_day2,2022.2.4,MacIntel,47.61904762,,,,,,,,,,,,,,,,,,,,,,,,,,,down,0,5.298,,0.530154278,-0.076437588,1,0,0,0.904,0,178,178,162,1,uitdelen,images/br_uitdelen.png,images/cb_uitdelen.png,0,,,,,,,,,,,,,,,,,,,,,,
,,,,,,00056,2023-10-13_14h54.08.973,vbt_B2_day2,2022.2.4,MacIntel,47.61904762,,,,,,,,,,,,,,,,,,,,,,,,,,,down,0,1.882,,0.511921459,-0.0371669,1,0,0,2.104,0,179,179,49,1,laken,images/br_laken.png,images/cb_laken.png,0,,,,,,,,,,,,,,,,,,,,,,
,,,,,,00056,2023-10-13_14h54.08.973,vbt_B2_day2,2022.2.4,MacIntel,47.61904762,,,,,,,,,,,,,,,,,,,,,,,,,,,down,0,2.998,,0.562412342,0.027349229,1,0,0,0.474,0,180,180,104,1,zweven,images/br_zweven.png,images/cb_zweven.png,0,,,,,,,,,,,,,,,,,,,,,,
,,,,,,00056,2023-10-13_14h54.08.973,vbt_B2_day2,2022.2.4,MacIntel,47.61904762,,,,,,,,,,,,,,,,,,,,,,,,,,,down,0,13.132,,0.527349229,-0.192847125,1,0,0,1.454,0,181,181,176,1,techniek,images/br_techniek.png,images/cb_techniek.png,1,Techniek,,,,,,,,,,,,,,,,,,,,,
,,,,,,00056,2023-10-13_14h54.08.973,vbt_B2_day2,2022.2.4,MacIntel,47.61904762,,,,,,,,,,,,,,,,,,,,,,,,,,,down,0,5.848,,0.67601683,-0.185834502,1,0,0,0.476,0,182,182,123,1,hiervan,images/br_hiervan.png,images/cb_hiervan.png,0,,,,,,,,,,,,,,,,,,,,,,
,,,,,,00056,2023-10-13_14h54.08.973,vbt_B2_day2,2022.2.4,MacIntel,47.61904762,,,,,,,,,,,,,,,,,,,,,,,,,,,down,0,7.864,,0.558204769,0.032959327,1,0,0,0.526,0,183,183,195,1,middelen,images/br_middelen.png,images/cb_middelen.png,0,,,,,,,,,,,,,,,,,,,,,,
,,,,,,00056,2023-10-13_14h54.08.973,vbt_B2_day2,2022.2.4,MacIntel,47.61904762,,,,,,,,,,,,,,,,,,,,,,,,,,,down,0,5.319,,0.55259467,0.020336606,1,0,0,1.552,0,184,184,72,1,strak,images/br_strak.png,images/cb_strak.png,0,,,,,,,,,,,,,,,,,,,,,,
,,,,,,00056,2023-10-13_14h54.08.973,vbt_B2_day2,2022.2.4,MacIntel,47.61904762,,,,,,,,,,,,,,,,,,,,,,,,,,,down,0,3.515,,0.67601683,-0.132538569,1,0,0,0.54,0,185,185,144,1,eetlust,images/br_eetlust.png,images/cb_eetlust.png,0,,,,,,,,,,,,,,,,,,,,,,
,,,,,,00056,2023-10-13_14h54.08.973,vbt_B2_day2,2022.2.4,MacIntel,47.61904762,,,,,,,,,,,,,,,,,,,,,,,,,,,down,0,2.332,,0.631136045,-0.11430575,1,0,0,0.403,0,186,186,3,1,mand,images/br_mand.png,images/cb_mand.png,0,,,,,,,,,,,,,,,,,,,,,,
,,,,,,00056,2023-10-13_14h54.08.973,vbt_B2_day2,2022.2.4,MacIntel,47.61904762,,,,,,,,,,,,,,,,,,,,,,,,,,,down,0,2.519,,0.640953717,-0.065217391,1,0,0,0.37,0,187,187,88,1,boeien,images/br_boeien.png,images/cb_boeien.png,0,,,,,,,,,,,,,,,,,,,,,,
,,,,,,00056,2023-10-13_14h54.08.973,vbt_B2_day2,2022.2.4,MacIntel,47.61904762,,,,,,,,,,,,,,,,,,,,,,,,,,,down,0,9.198,,0.607293128,-0.118513324,1,0,0,0.691,0,188,188,173,1,apparaat,images/br_apparaat.png,images/cb_apparaat.png,0,,,,,,,,,,,,,,,,,,,,,,
,,,,,,00056,2023-10-13_14h54.08.973,vbt_B2_day2,2022.2.4,MacIntel,47.61904762,,,,,,,,,,,,,,,,,,,,,,,,,,,down,0,5.348,,0.542776999,-0.05259467,1,0,0,0.474,0,189,189,154,1,aflopen,images/br_aflopen.png,images/cb_aflopen.png,0,,,,,,,,,,,,,,,,,,,,,,
,,,,,,00056,2023-10-13_14h54.08.973,vbt_B2_day2,2022.2.4,MacIntel,47.61904762,,,,,,,,,,,,,,,,,,,,,,,,,,,down,0,12.567,,0.562412342,-0.103085554,1,0,0,0.471,0,190,190,138,1,akkoord,images/br_akkoord.png,images/cb_akkoord.png,1,Akkoord,,,,,,,,,,,,,,,,,,,,,
,,,,,,00056,2023-10-13_14h54.08.973,vbt_B2_day2,2022.2.4,MacIntel,47.61904762,,,,,,,,,,,,,,,,,,,,,,,,,,,down,0,3.78,,0.575035063,-0.023141655,1,0,0,0.655,0,191,191,90,1,geluid,images/br_geluid.png,images/cb_geluid.png,0,,,,,,,,,,,,,,,,,,,,,,
,,,,,,00056,2023-10-13_14h54.08.973,vbt_B2_day2,2022.2.4,MacIntel,47.61904762,,,,,,,,,,,,,,,,,,,,,,,,,,,down,0,9.663,,0.680224404,-0.125525947,1,0,0,0.57,0,192,192,54,1,gebit,images/br_gebit.png,images/cb_gebit.png,0,,,,,,,,,,,,,,,,,,,,,,
,,,,,,00056,2023-10-13_14h54.08.973,vbt_B2_day2,2022.2.4,MacIntel,47.61904762,,,,,,,,,,,,,,,,,,,,,,,,,,,down,0,1.283,,0.678821879,-0.159186536,1,0,0,0.735,0,193,193,93,1,waarop,images/br_waarop.png,images/cb_waarop.png,0,,,,,,,,,,,,,,,,,,,,,,
,,,,,,00056,2023-10-13_14h54.08.973,vbt_B2_day2,2022.2.4,MacIntel,47.61904762,,,,,,,,,,,,,,,,,,,,,,,,,,,down,0,4.346,,0.678821879,-0.317671809,1,0,0,0.425,0,194,194,85,1,heilig,images/br_heilig.png,images/cb_heilig.png,0,,,,,,,,,,,,,,,,,,,,,,
,,,,,,00056,2023-10-13_14h54.08.973,vbt_B2_day2,2022.2.4,MacIntel,47.61904762,,,,,,,,,,,,,,,,,,,,,,,,,,,down,0,3.7,,0.673211781,-0.23772791,1,0,0,0.341,0,195,195,46,1,jagen,images/br_jagen.png,images/cb_jagen.png,0,,,,,,,,,,,,,,,,,,,,,,
,,,,,,00056,2023-10-13_14h54.08.973,vbt_B2_day2,2022.2.4,MacIntel,47.61904762,,,,,,,,,,,,,,,,,,,,,,,,,,,down,0,5.632,,0.669004208,-0.310659187,1,0,0,0.392,0,196,196,168,1,bisschop,images/br_bisschop.png,images/cb_bisschop.png,0,,,,,,,,,,,,,,,,,,,,,,
,,,,,,00056,2023-10-13_14h54.08.973,vbt_B2_day2,2022.2.4,MacIntel,47.61904762,,,,,,,,,,,,,,,,,,,,,,,,,,,down,0,0.932,,0.615708275,-0.247545582,1,0,0,0.625,0,197,197,1,1,zaal,images/br_zaal.png,images/cb_zaal.png,0,,,,,,,,,,,,,,,,,,,,,,
,,,,,,00056,2023-10-13_14h54.08.973,vbt_B2_day2,2022.2.4,MacIntel,47.61904762,,,,,,,,,,,,,,,,,,,,,,,,,,,down,0,0.199,,0.642356241,-0.251753156,1,0,0,0.391,0,198,198,73,1,volop,images/br_volop.png,images/cb_volop.png,0,,,,,,,,,,,,,,,,,,,,,,
,,,,,,00056,2023-10-13_14h54.08.973,vbt_B2_day2,2022.2.4,MacIntel,47.61904762,,,,,,,,,,,,,,,,,,,,,,,,,,,down,0,2.481,,0.514726508,0.146563815,1,0,0,0.491,0,199,199,120,1,klimmen,images/br_klimmen.png,images/cb_klimmen.png,0,,,,,,,,,,,,,,,,,,,,,,
,,,,,,00056,2023-10-13_14h54.08.973,vbt_B2_day2,2022.2.4,MacIntel,47.61904762,,,,,,,,,,,,,,,,,,,,,,,,,,,,,,,,,,,,,,,,,,,,,,,0.357643759,0.126928471,1,0,0,,,,,,,,,,,,,,,,
,,,,,,00056,2023-10-13_14h54.08.973,vbt_B2_day2,2022.2.4,MacIntel,47.61904762,,,,,,,,,,,,,,,,,,,,,,,,,,,,,,,,,,,,,,,,,,,,,,,,,,,,0.597475456,0.14516129,1,0,0,,,,,,,,,,,
,,,,,,00056,2023-10-13_14h54.08.973,vbt_B2_day2,2022.2.4,MacIntel,47.61904762,,,,,,,,,,,,,,,,,,,,,,,,,,,,,,,,,,,,,,,,,,zwager,images/br_zwager.png,images/cb_zwager.png,,Zwanger,,,,,,,,,,,0.657784011,-0.126928471,1,0,0,Zwanger,0,0,0,49,1
,,,,,,00056,2023-10-13_14h54.08.973,vbt_B2_day2,2022.2.4,MacIntel,47.61904762,,,,,,,,,,,,,,,,,,,,,,,,,,,,,,,,,,,,,,,,,,negel,images/br_negel.png,images/cb_negel.png,,Negel,,,,,,,,,,,0.553997195,-0.161991585,1,0,0,Negel,0,1,1,24,1
,,,,,,00056,2023-10-13_14h54.08.973,vbt_B2_day2,2022.2.4,MacIntel,47.61904762,,,,,,,,,,,,,,,,,,,,,,,,,,,,,,,,,,,,,,,,,,toeval,images/br_toeval.png,images/cb_toeval.png,,Toeval,,,,,,,,,,,0.502103787,-0.149368864,1,0,0,Toeval,0,2,2,11,1
,,,,,,00056,2023-10-13_14h54.08.973,vbt_B2_day2,2022.2.4,MacIntel,47.61904762,,,,,,,,,,,,,,,,,,,,,,,,,,,,,,,,,,,,,,,,,,lokken,images/br_lokken.png,images/cb_lokken.png,,Lokken,,,,,,,,,,,0.481065919,-0.157784011,1,0,0,Lokken,0,3,3,8,1
,,,,,,00056,2023-10-13_14h54.08.973,vbt_B2_day2,2022.2.4,MacIntel,47.61904762,,,,,,,,,,,,,,,,,,,,,,,,,,,,,,,,,,,,,,,,,,aanzien,images/br_aanzien.png,images/cb_aanzien.png,,Aanzien,,,,,,,,,,,0.580645161,-0.128330996,1,0,0,Aanzien,0,4,4,13,1
,,,,,,00056,2023-10-13_14h54.08.973,vbt_B2_day2,2022.2.4,MacIntel,47.61904762,,,,,,,,,,,,,,,,,,,,,,,,,,,,,,,,,,,,,,,,,,wijve,images/br_wijve.png,images/cb_wijve.png,,Wijve,,,,,,,,,,,0.573632539,-0.138148668,1,0,0,Wijve,0,5,5,27,1
,,,,,,00056,2023-10-13_14h54.08.973,vbt_B2_day2,2022.2.4,MacIntel,47.61904762,,,,,,,,,,,,,,,,,,,,,,,,,,,,,,,,,,,,,,,,,,plannen,images/br_plannen.png,images/cb_plannen.png,,Plannen,,,,,,,,,,,0.516129032,-0.087657784,1,0,0,Plannen,0,6,6,55,1
,,,,,,00056,2023-10-13_14h54.08.973,vbt_B2_day2,2022.2.4,MacIntel,47.61904762,,,,,,,,,,,,,,,,,,,,,,,,,,,,,,,,,,,,,,,,,,eenhoorn,images/br_eenhoorn.png,images/cb_eenhoorn.png,,Eenhoorn,,,,,,,,,,,0.549789621,-0.132538569,1,0,0,Eenhoorn,0,7,7,19,1
,,,,,,00056,2023-10-13_14h54.08.973,vbt_B2_day2,2022.2.4,MacIntel,47.61904762,,,,,,,,,,,,,,,,,,,,,,,,,,,,,,,,,,,,,,,,,,krimmen,images/br_krimmen.png,images/cb_krimmen.png,,Krimmen,,,,,,,,,,,0.607293128,-0.121318373,1,0,0,Krimmen,0,8,8,35,1
,,,,,,00056,2023-10-13_14h54.08.973,vbt_B2_day2,2022.2.4,MacIntel,47.61904762,,,,,,,,,,,,,,,,,,,,,,,,,,,,,,,,,,,,,,,,,,koorts,images/br_koorts.png,images/cb_koorts.png,,Koorts,,,,,,,,,,,0.580645161,-0.062412342,1,0,0,Koorts,0,9,9,50,1
,,,,,,00056,2023-10-13_14h54.08.973,vbt_B2_day2,2022.2.4,MacIntel,47.61904762,,,,,,,,,,,,,,,,,,,,,,,,,,,,,,,,,,,,,,,,,,geld,images/br_geld.png,images/cb_geld.png,,Geld,,,,,,,,,,,0.649368864,-0.042776999,1,0,0,Geld,0,10,10,3,1
,,,,,,00056,2023-10-13_14h54.08.973,vbt_B2_day2,2022.2.4,MacIntel,47.61904762,,,,,,,,,,,,,,,,,,,,,,,,,,,,,,,,,,,,,,,,,,zegel,images/br_zegel.png,images/cb_zegel.png,,Zegel,,,,,,,,,,,0.628330996,-0.016129032,1,0,0,Zegel,0,11,11,46,1
,,,,,,00056,2023-10-13_14h54.08.973,vbt_B2_day2,2022.2.4,MacIntel,47.61904762,,,,,,,,,,,,,,,,,,,,,,,,,,,,,,,,,,,,,,,,,,bereuwen,images/br_bereuwen.png,images/cb_bereuwen.png,,Beruiw..,,,,,,,,,,,0.649368864,-0.104488079,1,0,0,Beruiw..,0,12,12,39,1
,,,,,,00056,2023-10-13_14h54.08.973,vbt_B2_day2,2022.2.4,MacIntel,47.61904762,,,,,,,,,,,,,,,,,,,,,,,,,,,,,,,,,,,,,,,,,,stes,images/br_stes.png,images/cb_stes.png,,Stes,,,,,,,,,,,0.650771388,-0.038569425,1,0,0,Stes,0,13,13,21,1
,,,,,,00056,2023-10-13_14h54.08.973,vbt_B2_day2,2022.2.4,MacIntel,47.61904762,,,,,,,,,,,,,,,,,,,,,,,,,,,,,,,,,,,,,,,,,,diep,images/br_diep.png,images/cb_diep.png,,Diep,,,,,,,,,,,0.4628331,-0.031556802,1,0,0,Diep,0,14,14,2,1
,,,,,,00056,2023-10-13_14h54.08.973,vbt_B2_day2,2022.2.4,MacIntel,47.61904762,,,,,,,,,,,,,,,,,,,,,,,,,,,,,,,,,,,,,,,,,,kenzis,images/br_kenzis.png,images/cb_kenzis.png,,Kenzis,,,,,,,,,,,0.591865358,-0.124123422,1,0,0,Kenzis,0,15,15,30,1
,,,,,,00056,2023-10-13_14h54.08.973,vbt_B2_day2,2022.2.4,MacIntel,47.61904762,,,,,,,,,,,,,,,,,,,,,,,,,,,,,,,,,,,,,,,,,,kasteel,images/br_kasteel.png,images/cb_kasteel.png,,Kasteel,,,,,,,,,,,0.56802244,-0.09887798,1,0,0,Kasteel,0,16,16,14,1
,,,,,,00056,2023-10-13_14h54.08.973,vbt_B2_day2,2022.2.4,MacIntel,47.61904762,,,,,,,,,,,,,,,,,,,,,,,,,,,,,,,,,,,,,,,,,,joes,images/br_joes.png,images/cb_joes.png,,Joes,,,,,,,,,,,0.586255259,-0.163394109,1,0,0,Joes,0,17,17,20,1
,,,,,,00056,2023-10-13_14h54.08.973,vbt_B2_day2,2022.2.4,MacIntel,47.61904762,,,,,,,,,,,,,,,,,,,,,,,,,,,,,,,,,,,,,,,,,,manieren,images/br_manieren.png,images/cb_manieren.png,,Manieren,,,,,,,,,,,0.562412342,-0.007713885,1,0,0,Manieren,0,18,18,56,1
,,,,,,00056,2023-10-13_14h54.08.973,vbt_B2_day2,2022.2.4,MacIntel,47.61904762,,,,,,,,,,,,,,,,,,,,,,,,,,,,,,,,,,,,,,,,,,sora,images/br_sora.png,images/cb_sora.png,,Sora,,,,,,,,,,,0.615708275,-0.053997195,1,0,0,Sora,0,19,19,22,1
,,,,,,00056,2023-10-13_14h54.08.973,vbt_B2_day2,2022.2.4,MacIntel,47.61904762,,,,,,,,,,,,,,,,,,,,,,,,,,,,,,,,,,,,,,,,,,welzijn,images/br_welzijn.png,images/cb_welzijn.png,,Welzijn,,,,,,,,,,,0.671809257,0.002103787,1,0,0,Welzijn,0,20,20,52,1
,,,,,,00056,2023-10-13_14h54.08.973,vbt_B2_day2,2022.2.4,MacIntel,47.61904762,,,,,,,,,,,,,,,,,,,,,,,,,,,,,,,,,,,,,,,,,,lijnen,images/br_lijnen.png,images/cb_lijnen.png,,Lijnen,,,,,,,,,,,0.549789621,0.049789621,1,0,0,Lijnen,0,21,21,51,1
,,,,,,00056,2023-10-13_14h54.08.973,vbt_B2_day2,2022.2.4,MacIntel,47.61904762,,,,,,,,,,,,,,,,,,,,,,,,,,,,,,,,,,,,,,,,,,kijlen,images/br_kijlen.png,images/cb_kijlen.png,,Kidlen,,,,,,,,,,,0.661991585,-0.063814867,1,0,0,Kidlen,0,22,22,31,1
,,,,,,00056,2023-10-13_14h54.08.973,vbt_B2_day2,2022.2.4,MacIntel,47.61904762,,,,,,,,,,,,,,,,,,,,,,,,,,,,,,,,,,,,,,,,,,strikken,images/br_strikken.png,images/cb_strikken.png,,Strekken,,,,,,,,,,,0.635343619,-0.049789621,1,0,0,Strekken,0,23,23,18,1
,,,,,,00056,2023-10-13_14h54.08.973,vbt_B2_day2,2022.2.4,MacIntel,47.61904762,,,,,,,,,,,,,,,,,,,,,,,,,,,,,,,,,,,,,,,,,,goon,images/br_goon.png,images/cb_goon.png,,Goon,,,,,,,,,,,0.607293128,-0.096072931,1,0,0,Goon,0,24,24,23,1
,,,,,,00056,2023-10-13_14h54.08.973,vbt_B2_day2,2022.2.4,MacIntel,47.61904762,,,,,,,,,,,,,,,,,,,,,,,,,,,,,,,,,,,,,,,,,,kabel,images/br_kabel.png,images/cb_kabel.png,,Kabel,,,,,,,,,,,0.624123422,0.038569425,1,0,0,Kabel,0,25,25,7,1
,,,,,,00056,2023-10-13_14h54.08.973,vbt_B2_day2,2022.2.4,MacIntel,47.61904762,,,,,,,,,,,,,,,,,,,,,,,,,,,,,,,,,,,,,,,,,,anarchie,images/br_anarchie.png,images/cb_anarchie.png,,Anarchie,,,,,,,,,,,0.596072931,-0.091865358,1,0,0,Anarchie,0,26,26,16,1
,,,,,,00056,2023-10-13_14h54.08.973,vbt_B2_day2,2022.2.4,MacIntel,47.61904762,,,,,,,,,,,,,,,,,,,,,,,,,,,,,,,,,,,,,,,,,,heilig,images/br_heilig.png,images/cb_heilig.png,,Heilig,,,,,,,,,,,0.601683029,-0.042776999,1,0,0,Heilig,0,27,27,9,1
,,,,,,00056,2023-10-13_14h54.08.973,vbt_B2_day2,2022.2.4,MacIntel,47.61904762,,,,,,,,,,,,,,,,,,,,,,,,,,,,,,,,,,,,,,,,,,badon,images/br_badon.png,images/cb_badon.png,,Badon,,,,,,,,,,,0.611500701,-0.065217391,1,0,0,Badon,0,28,28,26,1
,,,,,,00056,2023-10-13_14h54.08.973,vbt_B2_day2,2022.2.4,MacIntel,47.61904762,,,,,,,,,,,,,,,,,,,,,,,,,,,,,,,,,,,,,,,,,,systeem,images/br_systeem.png,images/cb_systeem.png,,Systeem,,,,,,,,,,,0.590462833,-0.101683029,1,0,0,Systeem,0,29,29,54,1
,,,,,,00056,2023-10-13_14h54.08.973,vbt_B2_day2,2022.2.4,MacIntel,47.61904762,,,,,,,,,,,,,,,,,,,,,,,,,,,,,,,,,,,,,,,,,,agressie,images/br_agressie.png,images/cb_agressie.png,,Agressie,,,,,,,,,,,0.649368864,0.020336606,1,0,0,Agressie,0,30,30,59,1
,,,,,,00056,2023-10-13_14h54.08.973,vbt_B2_day2,2022.2.4,MacIntel,47.61904762,,,,,,,,,,,,,,,,,,,,,,,,,,,,,,,,,,,,,,,,,,tweeling,images/br_tweeling.png,images/cb_tweeling.png,,Tweeling,,,,,,,,,,,0.607293128,-0.044179523,1,0,0,Tweeling,0,31,31,58,1
,,,,,,00056,2023-10-13_14h54.08.973,vbt_B2_day2,2022.2.4,MacIntel,47.61904762,,,,,,,,,,,,,,,,,,,,,,,,,,,,,,,,,,,,,,,,,,ningen,images/br_ningen.png,images/cb_ningen.png,,Zingen,,,,,,,,,,,0.687237027,0.06802244,1,0,0,Zingen,0,32,32,28,1
,,,,,,00056,2023-10-13_14h54.08.973,vbt_B2_day2,2022.2.4,MacIntel,47.61904762,,,,,,,,,,,,,,,,,,,,,,,,,,,,,,,,,,,,,,,,,,sjijfel,images/br_sjijfel.png,images/cb_sjijfel.png,,Sjij…,,,,,,,,,,,0.633941094,-0.096072931,1,0,0,Sjij…,0,33,33,33,1
,,,,,,00056,2023-10-13_14h54.08.973,vbt_B2_day2,2022.2.4,MacIntel,47.61904762,,,,,,,,,,,,,,,,,,,,,,,,,,,,,,,,,,,,,,,,,,woning,images/br_woning.png,images/cb_woning.png,,Woning,,,,,,,,,,,0.579242637,-0.149368864,1,0,0,Woning,0,34,34,10,1
,,,,,,00056,2023-10-13_14h54.08.973,vbt_B2_day2,2022.2.4,MacIntel,47.61904762,,,,,,,,,,,,,,,,,,,,,,,,,,,,,,,,,,,,,,,,,,lurgen,images/br_lurgen.png,images/cb_lurgen.png,,Gluren,,,,,,,,,,,0.713884993,-0.142356241,1,0,0,Gluren,0,35,35,29,1
,,,,,,00056,2023-10-13_14h54.08.973,vbt_B2_day2,2022.2.4,MacIntel,47.61904762,,,,,,,,,,,,,,,,,,,,,,,,,,,,,,,,,,,,,,,,,,clan,images/br_clan.png,images/cb_clan.png,,Clan,,,,,,,,,,,0.636746143,-0.173211781,1,0,0,Clan,0,36,36,40,1
,,,,,,00056,2023-10-13_14h54.08.973,vbt_B2_day2,2022.2.4,MacIntel,47.61904762,,,,,,,,,,,,,,,,,,,,,,,,,,,,,,,,,,,,,,,,,,bloeien,images/br_bloeien.png,images/cb_bloeien.png,,Bloeien,,,,,,,,,,,0.654978962,-0.12973352,1,0,0,Bloeien,0,37,37,12,1
,,,,,,00056,2023-10-13_14h54.08.973,vbt_B2_day2,2022.2.4,MacIntel,47.61904762,,,,,,,,,,,,,,,,,,,,,,,,,,,,,,,,,,,,,,,,,,flits,images/br_flits.png,images/cb_flits.png,,Flits,,,,,,,,,,,0.66058906,-0.152173913,1,0,0,Flits,0,38,38,4,1
,,,,,,00056,2023-10-13_14h54.08.973,vbt_B2_day2,2022.2.4,MacIntel,47.61904762,,,,,,,,,,,,,,,,,,,,,,,,,,,,,,,,,,,,,,,,,,sifferd,images/br_sifferd.png,images/cb_sifferd.png,,Sifferd,,,,,,,,,,,0.677419355,-0.209677419,1,0,0,Sifferd,0,39,39,32,1
,,,,,,00056,2023-10-13_14h54.08.973,vbt_B2_day2,2022.2.4,MacIntel,47.61904762,,,,,,,,,,,,,,,,,,,,,,,,,,,,,,,,,,,,,,,,,,moes,images/br_moes.png,images/cb_moes.png,,Moes,,,,,,,,,,,0.626928471,-0.213884993,1,0,0,Moes,0,40,40,0,1
,,,,,,00056,2023-10-13_14h54.08.973,vbt_B2_day2,2022.2.4,MacIntel,47.61904762,,,,,,,,,,,,,,,,,,,,,,,,,,,,,,,,,,,,,,,,,,blad,images/br_blad.png,images/cb_blad.png,,Blad,,,,,,,,,,,0.625525947,-0.197054698,1,0,0,Blad,0,41,41,1,1
,,,,,,00056,2023-10-13_14h54.08.973,vbt_B2_day2,2022.2.4,MacIntel,47.61904762,,,,,,,,,,,,,,,,,,,,,,,,,,,,,,,,,,,,,,,,,,jong,images/br_jong.png,images/cb_jong.png,,Jong,,,,,,,,,,,0.674614306,-0.192847125,1,0,0,Jong,0,42,42,43,1
,,,,,,00056,2023-10-13_14h54.08.973,vbt_B2_day2,2022.2.4,MacIntel,47.61904762,,,,,,,,,,,,,,,,,,,,,,,,,,,,,,,,,,,,,,,,,,thema,images/br_thema.png,images/cb_thema.png,,Theng,,,,,,,,,,,0.716690042,-0.190042076,1,0,0,Theng,0,43,43,47,1
,,,,,,00056,2023-10-13_14h54.08.973,vbt_B2_day2,2022.2.4,MacIntel,47.61904762,,,,,,,,,,,,,,,,,,,,,,,,,,,,,,,,,,,,,,,,,,jagen,images/br_jagen.png,images/cb_jagen.png,,Jagen,,,,,,,,,,,0.647966339,-0.194249649,1,0,0,Jagen,0,44,44,6,1
,,,,,,00056,2023-10-13_14h54.08.973,vbt_B2_day2,2022.2.4,MacIntel,47.61904762,,,,,,,,,,,,,,,,,,,,,,,,,,,,,,,,,,,,,,,,,,trots,images/br_trots.png,images/cb_trots.png,,Trots,,,,,,,,,,,0.612903226,-0.185834502,1,0,0,Trots,0,45,45,44,1
,,,,,,00056,2023-10-13_14h54.08.973,vbt_B2_day2,2022.2.4,MacIntel,47.61904762,,,,,,,,,,,,,,,,,,,,,,,,,,,,,,,,,,,,,,,,,,remel,images/br_remel.png,images/cb_remel.png,,Remel,,,,,,,,,,,0.577840112,-0.243338008,1,0,0,Remel,0,46,46,25,1
,,,,,,00056,2023-10-13_14h54.08.973,vbt_B2_day2,2022.2.4,MacIntel,47.61904762,,,,,,,,,,,,,,,,,,,,,,,,,,,,,,,,,,,,,,,,,,zomers,images/br_zomers.png,images/cb_zomers.png,,Zomers,,,,,,,,,,,0.670406732,-0.166199158,1,0,0,Zomers,0,47,47,48,1
,,,,,,00056,2023-10-13_14h54.08.973,vbt_B2_day2,2022.2.4,MacIntel,47.61904762,,,,,,,,,,,,,,,,,,,,,,,,,,,,,,,,,,,,,,,,,,prekken,images/br_prekken.png,images/cb_prekken.png,,Prekken,,,,,,,,,,,0.661991585,0.02173913,1,0,0,Prekken,0,48,48,34,1
,,,,,,00056,2023-10-13_14h54.08.973,vbt_B2_day2,2022.2.4,MacIntel,47.61904762,,,,,,,,,,,,,,,,,,,,,,,,,,,,,,,,,,,,,,,,,,breuk,images/br_breuk.png,images/cb_breuk.png,,Breum,,,,,,,,,,,0.705469846,-0.156381487,1,0,0,Breum,0,49,49,45,1
,,,,,,00056,2023-10-13_14h54.08.973,vbt_B2_day2,2022.2.4,MacIntel,47.61904762,,,,,,,,,,,,,,,,,,,,,,,,,,,,,,,,,,,,,,,,,,ophuimen,images/br_ophuimen.png,images/cb_ophuimen.png,,Opfuim..,,,,,,,,,,,0.664796634,-0.178821879,1,0,0,Opfuim..,0,50,50,36,1
,,,,,,00056,2023-10-13_14h54.08.973,vbt_B2_day2,2022.2.4,MacIntel,47.61904762,,,,,,,,,,,,,,,,,,,,,,,,,,,,,,,,,,,,,,,,,,feestdag,images/br_feestdag.png,images/cb_feestdag.png,,Feestdrg,,,,,,,,,,,0.624123422,-0.192847125,1,0,0,Feestdrg,0,51,51,17,1
,,,,,,00056,2023-10-13_14h54.08.973,vbt_B2_day2,2022.2.4,MacIntel,47.61904762,,,,,,,,,,,,,,,,,,,,,,,,,,,,,,,,,,,,,,,,,,opdatten,images/br_opdatten.png,images/cb_opdatten.png,,Opdatten,,,,,,,,,,,0.643758766,-0.216690042,1,0,0,Opdatten,0,52,52,37,1
,,,,,,00056,2023-10-13_14h54.08.973,vbt_B2_day2,2022.2.4,MacIntel,47.61904762,,,,,,,,,,,,,,,,,,,,,,,,,,,,,,,,,,,,,,,,,,doodmoe,images/br_doodmoe.png,images/cb_doodmoe.png,,Doodmoe,,,,,,,,,,,0.673211781,-0.25315568,1,0,0,Doodmoe,0,53,53,15,1
,,,,,,00056,2023-10-13_14h54.08.973,vbt_B2_day2,2022.2.4,MacIntel,47.61904762,,,,,,,,,,,,,,,,,,,,,,,,,,,,,,,,,,,,,,,,,,tand,images/br_tand.png,images/cb_tand.png,,Tand,,,,,,,,,,,0.596072931,-0.292426367,1,0,0,Tand,0,54,54,42,1
,,,,,,00056,2023-10-13_14h54.08.973,vbt_B2_day2,2022.2.4,MacIntel,47.61904762,,,,,,,,,,,,,,,,,,,,,,,,,,,,,,,,,,,,,,,,,,piste,images/br_piste.png,images/cb_piste.png,,Piste,,,,,,,,,,,0.590462833,-0.285413745,1,0,0,Piste,0,55,55,5,1
,,,,,,00056,2023-10-13_14h54.08.973,vbt_B2_day2,2022.2.4,MacIntel,47.61904762,,,,,,,,,,,,,,,,,,,,,,,,,,,,,,,,,,,,,,,,,,aanvraag,images/br_aanvraag.png,images/cb_aanvraag.png,,Aanvraag,,,,,,,,,,,0.678821879,-0.232117812,1,0,0,Aanvraag,0,56,56,57,1
,,,,,,00056,2023-10-13_14h54.08.973,vbt_B2_day2,2022.2.4,MacIntel,47.61904762,,,,,,,,,,,,,,,,,,,,,,,,,,,,,,,,,,,,,,,,,,inzicht,images/br_inzicht.png,images/cb_inzicht.png,,Inzicht,,,,,,,,,,,0.628330996,-0.234922861,1,0,0,Inzicht,0,57,57,53,1
,,,,,,00056,2023-10-13_14h54.08.973,vbt_B2_day2,2022.2.4,MacIntel,47.61904762,,,,,,,,,,,,,,,,,,,,,,,,,,,,,,,,,,,,,,,,,,heengeen,images/br_heengeen.png,images/cb_heengeen.png,,Feengeeg,,,,,,,,,,,0.587657784,-0.25315568,1,0,0,Feengeeg,0,58,58,38,1
,,,,,,00056,2023-10-13_14h54.08.973,vbt_B2_day2,2022.2.4,MacIntel,47.61904762,,,,,,,,,,,,,,,,,,,,,,,,,,,,,,,,,,,,,,,,,,dode,images/br_dode.png,images/cb_dode.png,,Dode,,,,,,,,,,,0.628330996,-0.225105189,1,0,0,Dode,0,59,59,41,1
,,,,,,00056,2023-10-13_14h54.08.973,vbt_B2_day2,2022.2.4,MacIntel,47.61904762,,,,,,,,,,,,,,,,,,,,,,,,,,,,,,,,,,,,,,,,,,,,,,,,,,,,,,,,,,,,,,,,,,,
