welcome_mouse.x,welcome_mouse.y,welcome_mouse.leftButton,welcome_mouse.midButton,welcome_mouse.rightButton,welcome_mouse.time,"ID",date,expName,psychopyVersion,OS,frameRate,refresh_mouse.x,refresh_mouse.y,refresh_mouse.leftButton,refresh_mouse.midButton,refresh_mouse.rightButton,refresh_mouse.time,braille_mouse.x,braille_mouse.y,braille_mouse.leftButton,braille_mouse.midButton,braille_mouse.rightButton,braille_mouse.time,trials.thisRepN,trials.thisTrialN,trials.thisN,trials.thisIndex,trials.ran,nlLet,brLet,cbLet,trainInstr_mouse.x,trainInstr_mouse.y,trainInstr_mouse.leftButton,trainInstr_mouse.midButton,trainInstr_mouse.rightButton,trainInstr_mouse.time,translation_key.keys,translation_key.corr,translation_key.rt,word_rsp.text,word_mouse.x,word_mouse.y,word_mouse.leftButton,word_mouse.midButton,word_mouse.rightButton,word_mouse.time,train_loop.thisRepN,train_loop.thisTrialN,train_loop.thisN,train_loop.thisIndex,train_loop.ran,nlWrd,brWrd,cbWrd,test,testResp,mouse.x,mouse.y,mouse.leftButton,mouse.midButton,mouse.rightButton,testInstr_mouse.x,testInstr_mouse.y,testInstr_mouse.leftButton,testInstr_mouse.midButton,testInstr_mouse.rightButton,test_mouse.x,test_mouse.y,test_mouse.leftButton,test_mouse.midButton,test_mouse.rightButton,test_response.text,test_loop.thisRepN,test_loop.thisTrialN,test_loop.thisN,test_loop.thisIndex,test_loop.ran
-0.171296296,-0.24537037,1,0,0,14.8876,00024,2023-09-26_12h58.44.304,vbt_B2_day2,2022.2.4,Win32,60.09615385,,,,,,,,,,,,,,,,,,,,,,,,,,,,,,,,,,,,,,,,,,,,,,,,,,,,,,,,,,,,,,,,,,,
,,,,,,00024,2023-09-26_12h58.44.304,vbt_B2_day2,2022.2.4,Win32,60.09615385,-0.171296296,-0.24537037,1,0,0,32.2191,,,,,,,,,,,,,,,,,,,,,,,,,,,,,,,,,,,,,,,,,,,,,,,,,,,,,,,,,,,,,
,,,,,,00024,2023-09-26_12h58.44.304,vbt_B2_day2,2022.2.4,Win32,60.09615385,,,,,,,-0.171296296,-0.24537037,1,0,0,1.550299999,0,0,0,2,1,c,images/br_c.png,images/cb_c.png,,,,,,,,,,,,,,,,,,,,,,,,,,,,,,,,,,,,,,,,,,,,,,,
,,,,,,00024,2023-09-26_12h58.44.304,vbt_B2_day2,2022.2.4,Win32,60.09615385,,,,,,,-0.171296296,-0.24537037,1,0,0,4.015800001,0,1,1,20,1,u,images/br_u.png,images/cb_u.png,,,,,,,,,,,,,,,,,,,,,,,,,,,,,,,,,,,,,,,,,,,,,,,
,,,,,,00024,2023-09-26_12h58.44.304,vbt_B2_day2,2022.2.4,Win32,60.09615385,,,,,,,-0.176851838,-0.24537037,1,0,0,0.183199999,0,2,2,0,1,a,images/br_a.png,images/cb_a.png,,,,,,,,,,,,,,,,,,,,,,,,,,,,,,,,,,,,,,,,,,,,,,,
,,,,,,00024,2023-09-26_12h58.44.304,vbt_B2_day2,2022.2.4,Win32,60.09615385,,,,,,,-0.176851838,-0.24537037,1,0,0,0.932699999,0,3,3,4,1,e,images/br_e.png,images/cb_e.png,,,,,,,,,,,,,,,,,,,,,,,,,,,,,,,,,,,,,,,,,,,,,,,
,,,,,,00024,2023-09-26_12h58.44.304,vbt_B2_day2,2022.2.4,Win32,60.09615385,,,,,,,-0.176851838,-0.24537037,1,0,0,0.3494,0,4,4,12,1,m,images/br_m.png,images/cb_m.png,,,,,,,,,,,,,,,,,,,,,,,,,,,,,,,,,,,,,,,,,,,,,,,
,,,,,,00024,2023-09-26_12h58.44.304,vbt_B2_day2,2022.2.4,Win32,60.09615385,,,,,,,-0.176851838,-0.24537037,1,0,0,1.150199999,0,5,5,18,1,s,images/br_s.png,images/cb_s.png,,,,,,,,,,,,,,,,,,,,,,,,,,,,,,,,,,,,,,,,,,,,,,,
,,,,,,00024,2023-09-26_12h58.44.304,vbt_B2_day2,2022.2.4,Win32,60.09615385,,,,,,,-0.176851838,-0.24537037,1,0,0,1.576799999,0,6,6,1,1,b,images/br_b.png,images/cb_b.png,,,,,,,,,,,,,,,,,,,,,,,,,,,,,,,,,,,,,,,,,,,,,,,
,,,,,,00024,2023-09-26_12h58.44.304,vbt_B2_day2,2022.2.4,Win32,60.09615385,,,,,,,-0.176851838,-0.24537037,1,0,0,0.666799999,0,7,7,6,1,g,images/br_g.png,images/cb_g.png,,,,,,,,,,,,,,,,,,,,,,,,,,,,,,,,,,,,,,,,,,,,,,,
,,,,,,00024,2023-09-26_12h58.44.304,vbt_B2_day2,2022.2.4,Win32,60.09615385,,,,,,,-0.176851838,-0.24537037,1,0,0,4.0826,0,8,8,25,1,z,images/br_z.png,images/cb_z.png,,,,,,,,,,,,,,,,,,,,,,,,,,,,,,,,,,,,,,,,,,,,,,,
,,,,,,00024,2023-09-26_12h58.44.304,vbt_B2_day2,2022.2.4,Win32,60.09615385,,,,,,,-0.17777775,-0.24537037,1,0,0,1.3929,0,9,9,21,1,v,images/br_v.png,images/cb_v.png,,,,,,,,,,,,,,,,,,,,,,,,,,,,,,,,,,,,,,,,,,,,,,,
,,,,,,00024,2023-09-26_12h58.44.304,vbt_B2_day2,2022.2.4,Win32,60.09615385,,,,,,,-0.176851838,-0.24537037,1,0,0,1.233299999,0,10,10,16,1,q,images/br_q.png,images/cb_q.png,,,,,,,,,,,,,,,,,,,,,,,,,,,,,,,,,,,,,,,,,,,,,,,
,,,,,,00024,2023-09-26_12h58.44.304,vbt_B2_day2,2022.2.4,Win32,60.09615385,,,,,,,-0.176851838,-0.24537037,1,0,0,0.6166,0,11,11,24,1,y,images/br_y.png,images/cb_y.png,,,,,,,,,,,,,,,,,,,,,,,,,,,,,,,,,,,,,,,,,,,,,,,
,,,,,,00024,2023-09-26_12h58.44.304,vbt_B2_day2,2022.2.4,Win32,60.09615385,,,,,,,-0.176851838,-0.24537037,1,0,0,0.833199999,0,12,12,10,1,k,images/br_k.png,images/cb_k.png,,,,,,,,,,,,,,,,,,,,,,,,,,,,,,,,,,,,,,,,,,,,,,,
,,,,,,00024,2023-09-26_12h58.44.304,vbt_B2_day2,2022.2.4,Win32,60.09615385,,,,,,,-0.176851838,-0.24537037,1,0,0,0.066099998,0,13,13,23,1,x,images/br_x.png,images/cb_x.png,,,,,,,,,,,,,,,,,,,,,,,,,,,,,,,,,,,,,,,,,,,,,,,
,,,,,,00024,2023-09-26_12h58.44.304,vbt_B2_day2,2022.2.4,Win32,60.09615385,,,,,,,-0.176851838,-0.249074088,1,0,0,0.799299999,0,14,14,17,1,r,images/br_r.png,images/cb_r.png,,,,,,,,,,,,,,,,,,,,,,,,,,,,,,,,,,,,,,,,,,,,,,,
,,,,,,00024,2023-09-26_12h58.44.304,vbt_B2_day2,2022.2.4,Win32,60.09615385,,,,,,,-0.176851838,-0.249074088,1,0,0,0.499400002,0,15,15,13,1,n,images/br_n.png,images/cb_n.png,,,,,,,,,,,,,,,,,,,,,,,,,,,,,,,,,,,,,,,,,,,,,,,
,,,,,,00024,2023-09-26_12h58.44.304,vbt_B2_day2,2022.2.4,Win32,60.09615385,,,,,,,-0.176851838,-0.249074088,1,0,0,1.5429,0,16,16,15,1,p,images/br_p.png,images/cb_p.png,,,,,,,,,,,,,,,,,,,,,,,,,,,,,,,,,,,,,,,,,,,,,,,
,,,,,,00024,2023-09-26_12h58.44.304,vbt_B2_day2,2022.2.4,Win32,60.09615385,,,,,,,-0.176851838,-0.249074088,1,0,0,0.55,0,17,17,11,1,l,images/br_l.png,images/cb_l.png,,,,,,,,,,,,,,,,,,,,,,,,,,,,,,,,,,,,,,,,,,,,,,,
,,,,,,00024,2023-09-26_12h58.44.304,vbt_B2_day2,2022.2.4,Win32,60.09615385,,,,,,,-0.176851838,-0.249074088,1,0,0,0.499699999,0,18,18,7,1,h,images/br_h.png,images/cb_h.png,,,,,,,,,,,,,,,,,,,,,,,,,,,,,,,,,,,,,,,,,,,,,,,
,,,,,,00024,2023-09-26_12h58.44.304,vbt_B2_day2,2022.2.4,Win32,60.09615385,,,,,,,-0.176851838,-0.249074088,1,0,0,0.1771,0,19,19,8,1,i,images/br_i.png,images/cb_i.png,,,,,,,,,,,,,,,,,,,,,,,,,,,,,,,,,,,,,,,,,,,,,,,
,,,,,,00024,2023-09-26_12h58.44.304,vbt_B2_day2,2022.2.4,Win32,60.09615385,,,,,,,-0.176851838,-0.249074088,1,0,0,0.183400002,0,20,20,22,1,w,images/br_w.png,images/cb_w.png,,,,,,,,,,,,,,,,,,,,,,,,,,,,,,,,,,,,,,,,,,,,,,,
,,,,,,00024,2023-09-26_12h58.44.304,vbt_B2_day2,2022.2.4,Win32,60.09615385,,,,,,,-0.176851838,-0.249074088,1,0,0,1.066299999,0,21,21,3,1,d,images/br_d.png,images/cb_d.png,,,,,,,,,,,,,,,,,,,,,,,,,,,,,,,,,,,,,,,,,,,,,,,
,,,,,,00024,2023-09-26_12h58.44.304,vbt_B2_day2,2022.2.4,Win32,60.09615385,,,,,,,-0.176851838,-0.249074088,1,0,0,6.749,0,22,22,5,1,f,images/br_f.png,images/cb_f.png,,,,,,,,,,,,,,,,,,,,,,,,,,,,,,,,,,,,,,,,,,,,,,,
,,,,,,00024,2023-09-26_12h58.44.304,vbt_B2_day2,2022.2.4,Win32,60.09615385,,,,,,,-0.176851838,-0.249074088,1,0,0,0.593200001,0,23,23,14,1,o,images/br_o.png,images/cb_o.png,,,,,,,,,,,,,,,,,,,,,,,,,,,,,,,,,,,,,,,,,,,,,,,
,,,,,,00024,2023-09-26_12h58.44.304,vbt_B2_day2,2022.2.4,Win32,60.09615385,,,,,,,-0.176851838,-0.249074088,1,0,0,0.715800001,0,24,24,19,1,t,images/br_t.png,images/cb_t.png,,,,,,,,,,,,,,,,,,,,,,,,,,,,,,,,,,,,,,,,,,,,,,,
,,,,,,00024,2023-09-26_12h58.44.304,vbt_B2_day2,2022.2.4,Win32,60.09615385,,,,,,,-0.176851838,-0.249074088,1,0,0,1.087199999,0,25,25,9,1,j,images/br_j.png,images/cb_j.png,,,,,,,,,,,,,,,,,,,,,,,,,,,,,,,,,,,,,,,,,,,,,,,
,,,,,,00024,2023-09-26_12h58.44.304,vbt_B2_day2,2022.2.4,Win32,60.09615385,,,,,,,,,,,,,,,,,,,,,-0.176851838,-0.249074088,1,0,0,28.38,,,,,,,,,,,,,,,,,,,,,,,,,,,,,,,,,,,,,,,,,
,,,,,,00024,2023-09-26_12h58.44.304,vbt_B2_day2,2022.2.4,Win32,60.09615385,,,,,,,,,,,,,,,,,,,,,,,,,,,down,0,18.7815,,-0.176851838,-0.249074088,1,0,0,6.828799999,0,0,0,165,1,feestdag,images/br_feestdag.png,images/cb_feestdag.png,0,,,,,,,,,,,,,,,,,,,,,,
,,,,,,00024,2023-09-26_12h58.44.304,vbt_B2_day2,2022.2.4,Win32,60.09615385,,,,,,,,,,,,,,,,,,,,,,,,,,,down,0,7.3554,,-0.176851838,-0.249074088,1,0,0,2.0995,0,1,1,188,1,strekken,images/br_strekken.png,images/cb_strekken.png,0,,,,,,,,,,,,,,,,,,,,,,
,,,,,,00024,2023-09-26_12h58.44.304,vbt_B2_day2,2022.2.4,Win32,60.09615385,,,,,,,,,,,,,,,,,,,,,,,,,,,down,0,10.199,,-0.176851838,-0.249074088,1,0,0,4.4326,0,2,2,152,1,afnemen,images/br_afnemen.png,images/cb_afnemen.png,0,,,,,,,,,,,,,,,,,,,,,,
,,,,,,00024,2023-09-26_12h58.44.304,vbt_B2_day2,2022.2.4,Win32,60.09615385,,,,,,,,,,,,,,,,,,,,,,,,,,,down,0,4.342099998,,-0.176851838,-0.249074088,1,0,0,1.933799999,0,3,3,11,1,mode,images/br_mode.png,images/cb_mode.png,0,,,,,,,,,,,,,,,,,,,,,,
,,,,,,00024,2023-09-26_12h58.44.304,vbt_B2_day2,2022.2.4,Win32,60.09615385,,,,,,,,,,,,,,,,,,,,,,,,,,,down,0,7.5161,,-0.176851838,-0.249074088,1,0,0,1.999700001,0,4,4,120,1,klimmen,images/br_klimmen.png,images/cb_klimmen.png,0,,,,,,,,,,,,,,,,,,,,,,
,,,,,,00024,2023-09-26_12h58.44.304,vbt_B2_day2,2022.2.4,Win32,60.09615385,,,,,,,,,,,,,,,,,,,,,,,,,,,down,0,1.9506,,-0.176851838,-0.249074088,1,0,0,0.8925,0,5,5,50,1,stoom,images/br_stoom.png,images/cb_stoom.png,0,,,,,,,,,,,,,,,,,,,,,,
,,,,,,00024,2023-09-26_12h58.44.304,vbt_B2_day2,2022.2.4,Win32,60.09615385,,,,,,,,,,,,,,,,,,,,,,,,,,,down,0,11.0307,,-0.176851838,-0.249074088,1,0,0,1.004299999,0,6,6,162,1,uitdelen,images/br_uitdelen.png,images/cb_uitdelen.png,0,,,,,,,,,,,,,,,,,,,,,,
,,,,,,00024,2023-09-26_12h58.44.304,vbt_B2_day2,2022.2.4,Win32,60.09615385,,,,,,,,,,,,,,,,,,,,,,,,,,,down,0,18.8017,,-0.164814772,-0.249074088,1,0,0,0.849700001,0,7,7,70,1,ijdel,images/br_ijdel.png,images/cb_ijdel.png,0,,,,,,,,,,,,,,,,,,,,,,
,,,,,,00024,2023-09-26_12h58.44.304,vbt_B2_day2,2022.2.4,Win32,60.09615385,,,,,,,,,,,,,,,,,,,,,,,,,,,down,0,2.339400002,,-0.164814772,-0.249074088,1,0,0,0.497199999,0,8,8,21,1,mist,images/br_mist.png,images/cb_mist.png,0,,,,,,,,,,,,,,,,,,,,,,
,,,,,,00024,2023-09-26_12h58.44.304,vbt_B2_day2,2022.2.4,Win32,60.09615385,,,,,,,,,,,,,,,,,,,,,,,,,,,down,0,4.966199999,,-0.164814772,-0.249074088,1,0,0,0.8774,0,9,9,125,1,aanzien,images/br_aanzien.png,images/cb_aanzien.png,0,,,,,,,,,,,,,,,,,,,,,,
,,,,,,00024,2023-09-26_12h58.44.304,vbt_B2_day2,2022.2.4,Win32,60.09615385,,,,,,,,,,,,,,,,,,,,,,,,,,,down,0,7.053700001,,-0.164814772,-0.249074088,1,0,0,0.983,0,10,10,113,1,koppen,images/br_koppen.png,images/cb_koppen.png,0,,,,,,,,,,,,,,,,,,,,,,
,,,,,,00024,2023-09-26_12h58.44.304,vbt_B2_day2,2022.2.4,Win32,60.09615385,,,,,,,,,,,,,,,,,,,,,,,,,,,down,0,15.6874,,-0.164814772,-0.249074088,1,0,0,0.916799999,0,11,11,193,1,weeshuis,images/br_weeshuis.png,images/cb_weeshuis.png,0,,,,,,,,,,,,,,,,,,,,,,
,,,,,,00024,2023-09-26_12h58.44.304,vbt_B2_day2,2022.2.4,Win32,60.09615385,,,,,,,,,,,,,,,,,,,,,,,,,,,down,0,15.2906,,-0.164814772,-0.249074088,1,0,0,0.583700001,0,12,12,183,1,getuigen,images/br_getuigen.png,images/cb_getuigen.png,0,,,,,,,,,,,,,,,,,,,,,,
,,,,,,00024,2023-09-26_12h58.44.304,vbt_B2_day2,2022.2.4,Win32,60.09615385,,,,,,,,,,,,,,,,,,,,,,,,,,,down,0,16.9695,,-0.164814772,-0.249074088,1,0,0,0.483,0,13,13,147,1,komisch,images/br_komisch.png,images/cb_komisch.png,0,,,,,,,,,,,,,,,,,,,,,,
,,,,,,00024,2023-09-26_12h58.44.304,vbt_B2_day2,2022.2.4,Win32,60.09615385,,,,,,,,,,,,,,,,,,,,,,,,,,,down,0,7.6556,,-0.164814772,-0.249074088,1,0,0,1.9001,0,14,14,138,1,akkoord,images/br_akkoord.png,images/cb_akkoord.png,1,akkoord,,,,,,,,,,,,,,,,,,,,,
,,,,,,00024,2023-09-26_12h58.44.304,vbt_B2_day2,2022.2.4,Win32,60.09615385,,,,,,,,,,,,,,,,,,,,,,,,,,,down,0,5.3161,,-0.164814772,-0.249074088,1,0,0,0.493800001,0,15,15,7,1,geld,images/br_geld.png,images/cb_geld.png,0,,,,,,,,,,,,,,,,,,,,,,
,,,,,,00024,2023-09-26_12h58.44.304,vbt_B2_day2,2022.2.4,Win32,60.09615385,,,,,,,,,,,,,,,,,,,,,,,,,,,down,0,6.6836,,-0.164814772,-0.249074088,1,0,0,0.933300001,0,16,16,96,1,slagen,images/br_slagen.png,images/cb_slagen.png,1,slagen,,,,,,,,,,,,,,,,,,,,,
,,,,,,00024,2023-09-26_12h58.44.304,vbt_B2_day2,2022.2.4,Win32,60.09615385,,,,,,,,,,,,,,,,,,,,,,,,,,,down,0,12.4851,,-0.112037023,-0.249074088,1,0,0,0.5404,0,17,17,122,1,waarvan,images/br_waarvan.png,images/cb_waarvan.png,0,,,,,,,,,,,,,,,,,,,,,,
,,,,,,00024,2023-09-26_12h58.44.304,vbt_B2_day2,2022.2.4,Win32,60.09615385,,,,,,,,,,,,,,,,,,,,,,,,,,,down,0,6.536900002,,-0.112037023,-0.249074088,1,0,0,0.5165,0,18,18,146,1,opkomen,images/br_opkomen.png,images/cb_opkomen.png,0,,,,,,,,,,,,,,,,,,,,,,
,,,,,,00024,2023-09-26_12h58.44.304,vbt_B2_day2,2022.2.4,Win32,60.09615385,,,,,,,,,,,,,,,,,,,,,,,,,,,down,0,2.3434,,-0.112037023,-0.249074088,1,0,0,0.933599998,0,19,19,148,1,smullen,images/br_smullen.png,images/cb_smullen.png,0,,,,,,,,,,,,,,,,,,,,,,
,,,,,,00024,2023-09-26_12h58.44.304,vbt_B2_day2,2022.2.4,Win32,60.09615385,,,,,,,,,,,,,,,,,,,,,,,,,,,down,0,25.8811,,-0.112037023,-0.249074088,1,0,0,1.292800001,0,20,20,178,1,huisdier,images/br_huisdier.png,images/cb_huisdier.png,1,huisdier,,,,,,,,,,,,,,,,,,,,,
,,,,,,00024,2023-09-26_12h58.44.304,vbt_B2_day2,2022.2.4,Win32,60.09615385,,,,,,,,,,,,,,,,,,,,,,,,,,,down,0,14.3875,,-0.112037023,-0.249074088,1,0,0,0.414,0,21,21,95,1,vreten,images/br_vreten.png,images/cb_vreten.png,0,,,,,,,,,,,,,,,,,,,,,,
,,,,,,00024,2023-09-26_12h58.44.304,vbt_B2_day2,2022.2.4,Win32,60.09615385,,,,,,,,,,,,,,,,,,,,,,,,,,,down,0,2.441799999,,-0.112037023,-0.249074088,1,0,0,1.050299999,0,22,22,66,1,lever,images/br_lever.png,images/cb_lever.png,0,,,,,,,,,,,,,,,,,,,,,,
,,,,,,00024,2023-09-26_12h58.44.304,vbt_B2_day2,2022.2.4,Win32,60.09615385,,,,,,,,,,,,,,,,,,,,,,,,,,,down,0,16.2485,,-0.112037023,-0.249074088,1,0,0,5.4156,0,23,23,182,1,bijkomen,images/br_bijkomen.png,images/cb_bijkomen.png,0,,,,,,,,,,,,,,,,,,,,,,
,,,,,,00024,2023-09-26_12h58.44.304,vbt_B2_day2,2022.2.4,Win32,60.09615385,,,,,,,,,,,,,,,,,,,,,,,,,,,down,0,1.7006,,-0.112037023,-0.249074088,1,0,0,0.6761,0,24,24,22,1,stof,images/br_stof.png,images/cb_stof.png,0,,,,,,,,,,,,,,,,,,,,,,
,,,,,,00024,2023-09-26_12h58.44.304,vbt_B2_day2,2022.2.4,Win32,60.09615385,,,,,,,,,,,,,,,,,,,,,,,,,,,down,0,2.876799999,,-0.112037023,-0.249074088,1,0,0,0.8165,0,25,25,30,1,uien,images/br_uien.png,images/cb_uien.png,0,,,,,,,,,,,,,,,,,,,,,,
,,,,,,00024,2023-09-26_12h58.44.304,vbt_B2_day2,2022.2.4,Win32,60.09615385,,,,,,,,,,,,,,,,,,,,,,,,,,,down,0,10.7151,,-0.112037023,-0.249074088,1,0,0,1.982900002,0,26,26,79,1,nodig,images/br_nodig.png,images/cb_nodig.png,0,,,,,,,,,,,,,,,,,,,,,,
,,,,,,00024,2023-09-26_12h58.44.304,vbt_B2_day2,2022.2.4,Win32,60.09615385,,,,,,,,,,,,,,,,,,,,,,,,,,,down,0,2.484699999,,-0.112037023,-0.249074088,1,0,0,0.6664,0,27,27,112,1,lukken,images/br_lukken.png,images/cb_lukken.png,0,,,,,,,,,,,,,,,,,,,,,,
,,,,,,00024,2023-09-26_12h58.44.304,vbt_B2_day2,2022.2.4,Win32,60.09615385,,,,,,,,,,,,,,,,,,,,,,,,,,,down,0,15.5491,,-0.112037023,-0.249074088,1,0,0,0.7329,0,28,28,131,1,opzicht,images/br_opzicht.png,images/cb_opzicht.png,0,,,,,,,,,,,,,,,,,,,,,,
,,,,,,00024,2023-09-26_12h58.44.304,vbt_B2_day2,2022.2.4,Win32,60.09615385,,,,,,,,,,,,,,,,,,,,,,,,,,,down,0,11.1821,,-0.112037023,-0.249074088,1,0,0,0.899700001,0,29,29,159,1,sufferd,images/br_sufferd.png,images/cb_sufferd.png,0,,,,,,,,,,,,,,,,,,,,,,
,,,,,,00024,2023-09-26_12h58.44.304,vbt_B2_day2,2022.2.4,Win32,60.09615385,,,,,,,,,,,,,,,,,,,,,,,,,,,down,0,9.4206,,-0.112037023,-0.249074088,1,0,0,0.9,0,30,30,49,1,laken,images/br_laken.png,images/cb_laken.png,0,,,,,,,,,,,,,,,,,,,,,,
,,,,,,00024,2023-09-26_12h58.44.304,vbt_B2_day2,2022.2.4,Win32,60.09615385,,,,,,,,,,,,,,,,,,,,,,,,,,,down,0,4.885299999,,-0.112037023,-0.249074088,1,0,0,0.549300001,0,31,31,44,1,flits,images/br_flits.png,images/cb_flits.png,0,,,,,,,,,,,,,,,,,,,,,,
,,,,,,00024,2023-09-26_12h58.44.304,vbt_B2_day2,2022.2.4,Win32,60.09615385,,,,,,,,,,,,,,,,,,,,,,,,,,,down,0,15.3913,,-0.161111125,-0.289814843,1,0,0,6.799299999,0,32,32,191,1,opheffen,images/br_opheffen.png,images/cb_opheffen.png,0,,,,,,,,,,,,,,,,,,,,,,
,,,,,,00024,2023-09-26_12h58.44.304,vbt_B2_day2,2022.2.4,Win32,60.09615385,,,,,,,,,,,,,,,,,,,,,,,,,,,down,0,5.962799999,,-0.165740755,-0.289814843,1,0,0,0.9335,0,33,33,117,1,kennis,images/br_kennis.png,images/cb_kennis.png,0,,,,,,,,,,,,,,,,,,,,,,
,,,,,,00024,2023-09-26_12h58.44.304,vbt_B2_day2,2022.2.4,Win32,60.09615385,,,,,,,,,,,,,,,,,,,,,,,,,,,down,0,11.1388,,-0.165740755,-0.289814843,1,0,0,0.450099998,0,34,34,81,1,dubbel,images/br_dubbel.png,images/cb_dubbel.png,0,,,,,,,,,,,,,,,,,,,,,,
,,,,,,00024,2023-09-26_12h58.44.304,vbt_B2_day2,2022.2.4,Win32,60.09615385,,,,,,,,,,,,,,,,,,,,,,,,,,,down,0,3.321400002,,-0.165740755,-0.289814843,1,0,0,1.299699999,0,35,35,199,1,beseffen,images/br_beseffen.png,images/cb_beseffen.png,0,,,,,,,,,,,,,,,,,,,,,,
,,,,,,00024,2023-09-26_12h58.44.304,vbt_B2_day2,2022.2.4,Win32,60.09615385,,,,,,,,,,,,,,,,,,,,,,,,,,,down,0,6.816,,-0.165740755,-0.289814843,1,0,0,1.1165,0,36,36,75,1,snoep,images/br_snoep.png,images/cb_snoep.png,0,,,,,,,,,,,,,,,,,,,,,,
,,,,,,00024,2023-09-26_12h58.44.304,vbt_B2_day2,2022.2.4,Win32,60.09615385,,,,,,,,,,,,,,,,,,,,,,,,,,,down,0,2.100800001,,-0.165740755,-0.289814843,1,0,0,0.749800001,0,37,37,77,1,woede,images/br_woede.png,images/cb_woede.png,0,,,,,,,,,,,,,,,,,,,,,,
,,,,,,00024,2023-09-26_12h58.44.304,vbt_B2_day2,2022.2.4,Win32,60.09615385,,,,,,,,,,,,,,,,,,,,,,,,,,,down,0,7.425199999,,-0.165740755,-0.289814843,1,0,0,0.816900002,0,38,38,144,1,eetlust,images/br_eetlust.png,images/cb_eetlust.png,0,,,,,,,,,,,,,,,,,,,,,,
,,,,,,00024,2023-09-26_12h58.44.304,vbt_B2_day2,2022.2.4,Win32,60.09615385,,,,,,,,,,,,,,,,,,,,,,,,,,,down,0,14.8298,,-0.165740755,-0.289814843,1,0,0,0.533300001,0,39,39,155,1,gerucht,images/br_gerucht.png,images/cb_gerucht.png,0,,,,,,,,,,,,,,,,,,,,,,
,,,,,,00024,2023-09-26_12h58.44.304,vbt_B2_day2,2022.2.4,Win32,60.09615385,,,,,,,,,,,,,,,,,,,,,,,,,,,down,0,14.765,,-0.165740755,-0.289814843,1,0,0,0.8,0,40,40,194,1,driemaal,images/br_driemaal.png,images/cb_driemaal.png,0,,,,,,,,,,,,,,,,,,,,,,
,,,,,,00024,2023-09-26_12h58.44.304,vbt_B2_day2,2022.2.4,Win32,60.09615385,,,,,,,,,,,,,,,,,,,,,,,,,,,down,0,10.499,,-0.165740755,-0.289814843,1,0,0,0.650099998,0,41,41,76,1,afval,images/br_afval.png,images/cb_afval.png,0,,,,,,,,,,,,,,,,,,,,,,
,,,,,,00024,2023-09-26_12h58.44.304,vbt_B2_day2,2022.2.4,Win32,60.09615385,,,,,,,,,,,,,,,,,,,,,,,,,,,down,0,4.3996,,-0.165740755,-0.289814843,1,0,0,1.2161,0,42,42,67,1,zwart,images/br_zwart.png,images/cb_zwart.png,0,,,,,,,,,,,,,,,,,,,,,,
,,,,,,00024,2023-09-26_12h58.44.304,vbt_B2_day2,2022.2.4,Win32,60.09615385,,,,,,,,,,,,,,,,,,,,,,,,,,,down,0,4.4215,,-0.165740755,-0.289814843,1,0,0,1.1395,0,43,43,29,1,baas,images/br_baas.png,images/cb_baas.png,0,,,,,,,,,,,,,,,,,,,,,,
,,,,,,00024,2023-09-26_12h58.44.304,vbt_B2_day2,2022.2.4,Win32,60.09615385,,,,,,,,,,,,,,,,,,,,,,,,,,,down,0,32.2692,,-0.155555513,-0.312037079,1,0,0,1.2001,0,44,44,127,1,doodmoe,images/br_doodmoe.png,images/cb_doodmoe.png,0,,,,,,,,,,,,,,,,,,,,,,
,,,,,,00024,2023-09-26_12h58.44.304,vbt_B2_day2,2022.2.4,Win32,60.09615385,,,,,,,,,,,,,,,,,,,,,,,,,,,down,0,12.682,,-0.155555513,-0.312037079,1,0,0,0.576700001,0,45,45,62,1,knaap,images/br_knaap.png,images/cb_knaap.png,0,,,,,,,,,,,,,,,,,,,,,,
,,,,,,00024,2023-09-26_12h58.44.304,vbt_B2_day2,2022.2.4,Win32,60.09615385,,,,,,,,,,,,,,,,,,,,,,,,,,,down,0,2.1331,,-0.155555513,-0.312037079,1,0,0,0.383200001,0,46,46,13,1,kaal,images/br_kaal.png,images/cb_kaal.png,0,,,,,,,,,,,,,,,,,,,,,,
,,,,,,00024,2023-09-26_12h58.44.304,vbt_B2_day2,2022.2.4,Win32,60.09615385,,,,,,,,,,,,,,,,,,,,,,,,,,,down,0,1.569799999,,-0.155555513,-0.312037079,1,0,0,0.399400002,0,47,47,63,1,flirt,images/br_flirt.png,images/cb_flirt.png,0,,,,,,,,,,,,,,,,,,,,,,
,,,,,,00024,2023-09-26_12h58.44.304,vbt_B2_day2,2022.2.4,Win32,60.09615385,,,,,,,,,,,,,,,,,,,,,,,,,,,down,0,11.1025,,-0.155555513,-0.312037079,1,0,0,0.549900002,0,48,48,143,1,hechten,images/br_hechten.png,images/cb_hechten.png,0,,,,,,,,,,,,,,,,,,,,,,
,,,,,,00024,2023-09-26_12h58.44.304,vbt_B2_day2,2022.2.4,Win32,60.09615385,,,,,,,,,,,,,,,,,,,,,,,,,,,down,0,6.6994,,-0.155555513,-0.312037079,1,0,0,0.383299999,0,49,49,39,1,laag,images/br_laag.png,images/cb_laag.png,0,,,,,,,,,,,,,,,,,,,,,,
,,,,,,00024,2023-09-26_12h58.44.304,vbt_B2_day2,2022.2.4,Win32,60.09615385,,,,,,,,,,,,,,,,,,,,,,,,,,,down,0,4.5396,,-0.155555513,-0.312037079,1,0,0,0.433200001,0,50,50,46,1,jagen,images/br_jagen.png,images/cb_jagen.png,0,,,,,,,,,,,,,,,,,,,,,,
,,,,,,00024,2023-09-26_12h58.44.304,vbt_B2_day2,2022.2.4,Win32,60.09615385,,,,,,,,,,,,,,,,,,,,,,,,,,,down,0,20.6653,,-0.155555513,-0.312037079,1,0,0,0.533200001,0,51,51,158,1,innemen,images/br_innemen.png,images/cb_innemen.png,0,,,,,,,,,,,,,,,,,,,,,,
,,,,,,00024,2023-09-26_12h58.44.304,vbt_B2_day2,2022.2.4,Win32,60.09615385,,,,,,,,,,,,,,,,,,,,,,,,,,,down,0,8.3394,,-0.155555513,-0.312037079,1,0,0,1.216300001,0,52,52,167,1,eenhoorn,images/br_eenhoorn.png,images/cb_eenhoorn.png,0,,,,,,,,,,,,,,,,,,,,,,
,,,,,,00024,2023-09-26_12h58.44.304,vbt_B2_day2,2022.2.4,Win32,60.09615385,,,,,,,,,,,,,,,,,,,,,,,,,,,down,0,1.142300001,,-0.155555513,-0.312037079,1,0,0,0.5164,0,53,53,12,1,kust,images/br_kust.png,images/cb_kust.png,0,,,,,,,,,,,,,,,,,,,,,,
,,,,,,00024,2023-09-26_12h58.44.304,vbt_B2_day2,2022.2.4,Win32,60.09615385,,,,,,,,,,,,,,,,,,,,,,,,,,,down,0,0.950900002,,-0.155555513,-0.312037079,1,0,0,0.7671,0,54,54,28,1,stal,images/br_stal.png,images/cb_stal.png,0,,,,,,,,,,,,,,,,,,,,,,
,,,,,,00024,2023-09-26_12h58.44.304,vbt_B2_day2,2022.2.4,Win32,60.09615385,,,,,,,,,,,,,,,,,,,,,,,,,,,down,0,3.3665,,-0.159259231,-0.327777792,1,0,0,0.526700001,0,55,55,36,1,vuur,images/br_vuur.png,images/cb_vuur.png,0,,,,,,,,,,,,,,,,,,,,,,
,,,,,,00024,2023-09-26_12h58.44.304,vbt_B2_day2,2022.2.4,Win32,60.09615385,,,,,,,,,,,,,,,,,,,,,,,,,,,down,0,5.549299999,,-0.159259231,-0.327777792,1,0,0,1.016599998,0,56,56,15,1,soda,images/br_soda.png,images/cb_soda.png,0,,,,,,,,,,,,,,,,,,,,,,
,,,,,,00024,2023-09-26_12h58.44.304,vbt_B2_day2,2022.2.4,Win32,60.09615385,,,,,,,,,,,,,,,,,,,,,,,,,,,down,0,6.049800001,,-0.159259231,-0.327777792,1,0,0,0.9499,0,57,57,23,1,zout,images/br_zout.png,images/cb_zout.png,0,,,,,,,,,,,,,,,,,,,,,,
,,,,,,00024,2023-09-26_12h58.44.304,vbt_B2_day2,2022.2.4,Win32,60.09615385,,,,,,,,,,,,,,,,,,,,,,,,,,,down,0,1.841799999,,-0.159259231,-0.327777792,1,0,0,0.6566,0,58,58,0,1,slak,images/br_slak.png,images/cb_slak.png,0,,,,,,,,,,,,,,,,,,,,,,
,,,,,,00024,2023-09-26_12h58.44.304,vbt_B2_day2,2022.2.4,Win32,60.09615385,,,,,,,,,,,,,,,,,,,,,,,,,,,down,0,6.898799999,,-0.159259231,-0.327777792,1,0,0,0.349700001,0,59,59,9,1,hier,images/br_hier.png,images/cb_hier.png,0,,,,,,,,,,,,,,,,,,,,,,
,,,,,,00024,2023-09-26_12h58.44.304,vbt_B2_day2,2022.2.4,Win32,60.09615385,,,,,,,,,,,,,,,,,,,,,,,,,,,down,0,10.6661,,-0.159259231,-0.327777792,1,0,0,0.7264,0,60,60,184,1,aandelen,images/br_aandelen.png,images/cb_aandelen.png,0,,,,,,,,,,,,,,,,,,,,,,
,,,,,,00024,2023-09-26_12h58.44.304,vbt_B2_day2,2022.2.4,Win32,60.09615385,,,,,,,,,,,,,,,,,,,,,,,,,,,down,0,3.934,,-0.159259231,-0.327777792,1,0,0,0.817,0,61,61,102,1,legaal,images/br_legaal.png,images/cb_legaal.png,0,,,,,,,,,,,,,,,,,,,,,,
,,,,,,00024,2023-09-26_12h58.44.304,vbt_B2_day2,2022.2.4,Win32,60.09615385,,,,,,,,,,,,,,,,,,,,,,,,,,,down,0,20.2698,,-0.159259231,-0.327777792,1,0,0,7.565599998,0,62,62,172,1,weigeren,images/br_weigeren.png,images/cb_weigeren.png,0,,,,,,,,,,,,,,,,,,,,,,
,,,,,,00024,2023-09-26_12h58.44.304,vbt_B2_day2,2022.2.4,Win32,60.09615385,,,,,,,,,,,,,,,,,,,,,,,,,,,down,0,1.283799999,,-0.159259231,-0.327777792,1,0,0,3.942800001,0,63,63,41,1,maken,images/br_maken.png,images/cb_maken.png,0,,,,,,,,,,,,,,,,,,,,,,
,,,,,,00024,2023-09-26_12h58.44.304,vbt_B2_day2,2022.2.4,Win32,60.09615385,,,,,,,,,,,,,,,,,,,,,,,,,,,down,0,6.808700001,,-0.159259231,-0.327777792,1,0,0,0.833699999,0,64,64,116,1,besmet,images/br_besmet.png,images/cb_besmet.png,0,,,,,,,,,,,,,,,,,,,,,,
,,,,,,00024,2023-09-26_12h58.44.304,vbt_B2_day2,2022.2.4,Win32,60.09615385,,,,,,,,,,,,,,,,,,,,,,,,,,,down,0,5.7741,,-0.159259231,-0.327777792,1,0,0,0.800200001,0,65,65,110,1,zuster,images/br_zuster.png,images/cb_zuster.png,0,,,,,,,,,,,,,,,,,,,,,,
,,,,,,00024,2023-09-26_12h58.44.304,vbt_B2_day2,2022.2.4,Win32,60.09615385,,,,,,,,,,,,,,,,,,,,,,,,,,,down,0,3.701,,-0.159259231,-0.327777792,1,0,0,0.632699999,0,66,66,140,1,blijven,images/br_blijven.png,images/cb_blijven.png,0,,,,,,,,,,,,,,,,,,,,,,
,,,,,,00024,2023-09-26_12h58.44.304,vbt_B2_day2,2022.2.4,Win32,60.09615385,,,,,,,,,,,,,,,,,,,,,,,,,,,down,0,4.933,,-0.112962935,-0.360185199,1,0,0,0.633,0,67,67,97,1,loyaal,images/br_loyaal.png,images/cb_loyaal.png,1,loyaal,,,,,,,,,,,,,,,,,,,,,
,,,,,,00024,2023-09-26_12h58.44.304,vbt_B2_day2,2022.2.4,Win32,60.09615385,,,,,,,,,,,,,,,,,,,,,,,,,,,down,0,5.583299999,,-0.112962935,-0.360185199,1,0,0,0.6166,0,68,68,5,1,blad,images/br_blad.png,images/cb_blad.png,0,,,,,,,,,,,,,,,,,,,,,,
,,,,,,00024,2023-09-26_12h58.44.304,vbt_B2_day2,2022.2.4,Win32,60.09615385,,,,,,,,,,,,,,,,,,,,,,,,,,,down,0,12.3319,,-0.112962935,-0.360185199,1,0,0,0.4995,0,69,69,4,1,moes,images/br_moes.png,images/cb_moes.png,0,,,,,,,,,,,,,,,,,,,,,,
,,,,,,00024,2023-09-26_12h58.44.304,vbt_B2_day2,2022.2.4,Win32,60.09615385,,,,,,,,,,,,,,,,,,,,,,,,,,,down,0,11.2835,,-0.112962935,-0.360185199,1,0,0,0.7496,0,70,70,187,1,opkijken,images/br_opkijken.png,images/cb_opkijken.png,0,,,,,,,,,,,,,,,,,,,,,,
,,,,,,00024,2023-09-26_12h58.44.304,vbt_B2_day2,2022.2.4,Win32,60.09615385,,,,,,,,,,,,,,,,,,,,,,,,,,,down,0,3.7339,,-0.112962935,-0.360185199,1,0,0,0.583,0,71,71,10,1,leek,images/br_leek.png,images/cb_leek.png,0,,,,,,,,,,,,,,,,,,,,,,
,,,,,,00024,2023-09-26_12h58.44.304,vbt_B2_day2,2022.2.4,Win32,60.09615385,,,,,,,,,,,,,,,,,,,,,,,,,,,down,0,4.784299999,,-0.112962935,-0.360185199,1,0,0,0.683900002,0,72,72,121,1,twijfel,images/br_twijfel.png,images/cb_twijfel.png,0,,,,,,,,,,,,,,,,,,,,,,
,,,,,,00024,2023-09-26_12h58.44.304,vbt_B2_day2,2022.2.4,Win32,60.09615385,,,,,,,,,,,,,,,,,,,,,,,,,,,down,0,4.9685,,0.252777806,-0.089814822,1,0,0,0.840700001,0,73,73,58,1,tekst,images/br_tekst.png,images/cb_tekst.png,1,tekst,,,,,,,,,,,,,,,,,,,,,
,,,,,,00024,2023-09-26_12h58.44.304,vbt_B2_day2,2022.2.4,Win32,60.09615385,,,,,,,,,,,,,,,,,,,,,,,,,,,down,0,10.3886,,0.252777806,-0.089814822,1,0,0,0.734099998,0,74,74,8,1,knie,images/br_knie.png,images/cb_knie.png,0,,,,,,,,,,,,,,,,,,,,,,
,,,,,,00024,2023-09-26_12h58.44.304,vbt_B2_day2,2022.2.4,Win32,60.09615385,,,,,,,,,,,,,,,,,,,,,,,,,,,down,0,7.434,,0.252777806,-0.089814822,1,0,0,0.9494,0,75,75,123,1,hiervan,images/br_hiervan.png,images/cb_hiervan.png,0,,,,,,,,,,,,,,,,,,,,,,
,,,,,,00024,2023-09-26_12h58.44.304,vbt_B2_day2,2022.2.4,Win32,60.09615385,,,,,,,,,,,,,,,,,,,,,,,,,,,down,0,6.802,,0.252777806,-0.089814822,1,0,0,1.5495,0,76,76,27,1,dans,images/br_dans.png,images/cb_dans.png,0,,,,,,,,,,,,,,,,,,,,,,
,,,,,,00024,2023-09-26_12h58.44.304,vbt_B2_day2,2022.2.4,Win32,60.09615385,,,,,,,,,,,,,,,,,,,,,,,,,,,down,0,13.9485,,0.24537037,-0.089814822,1,0,0,0.673799999,0,77,77,107,1,maling,images/br_maling.png,images/cb_maling.png,0,,,,,,,,,,,,,,,,,,,,,,
,,,,,,00024,2023-09-26_12h58.44.304,vbt_B2_day2,2022.2.4,Win32,60.09615385,,,,,,,,,,,,,,,,,,,,,,,,,,,down,0,3.4161,,0.24537037,-0.089814822,1,0,0,0.416799999,0,78,78,171,1,aarzelen,images/br_aarzelen.png,images/cb_aarzelen.png,0,,,,,,,,,,,,,,,,,,,,,,
,,,,,,00024,2023-09-26_12h58.44.304,vbt_B2_day2,2022.2.4,Win32,60.09615385,,,,,,,,,,,,,,,,,,,,,,,,,,,down,0,0.9751,,0.24537037,-0.089814822,1,0,0,1.2501,0,79,79,71,1,bever,images/br_bever.png,images/cb_bever.png,0,,,,,,,,,,,,,,,,,,,,,,
,,,,,,00024,2023-09-26_12h58.44.304,vbt_B2_day2,2022.2.4,Win32,60.09615385,,,,,,,,,,,,,,,,,,,,,,,,,,,down,0,8.4186,,0.24537037,-0.089814822,1,0,0,0.5835,0,80,80,90,1,geluid,images/br_geluid.png,images/cb_geluid.png,0,,,,,,,,,,,,,,,,,,,,,,
,,,,,,00024,2023-09-26_12h58.44.304,vbt_B2_day2,2022.2.4,Win32,60.09615385,,,,,,,,,,,,,,,,,,,,,,,,,,,down,0,23.4809,,0.24537037,-0.089814822,1,0,0,1.133400002,0,81,81,174,1,stemming,images/br_stemming.png,images/cb_stemming.png,0,,,,,,,,,,,,,,,,,,,,,,
,,,,,,00024,2023-09-26_12h58.44.304,vbt_B2_day2,2022.2.4,Win32,60.09615385,,,,,,,,,,,,,,,,,,,,,,,,,,,down,0,6.1085,,0.253703718,-0.089814822,1,0,0,0.356,0,82,82,106,1,zingen,images/br_zingen.png,images/cb_zingen.png,0,,,,,,,,,,,,,,,,,,,,,,
,,,,,,00024,2023-09-26_12h58.44.304,vbt_B2_day2,2022.2.4,Win32,60.09615385,,,,,,,,,,,,,,,,,,,,,,,,,,,down,0,4.837299999,,0.253703718,-0.089814822,1,0,0,0.383699999,0,83,83,34,1,vorm,images/br_vorm.png,images/cb_vorm.png,0,,,,,,,,,,,,,,,,,,,,,,
,,,,,,00024,2023-09-26_12h58.44.304,vbt_B2_day2,2022.2.4,Win32,60.09615385,,,,,,,,,,,,,,,,,,,,,,,,,,,down,0,3.204200001,,0.253703718,-0.089814822,1,0,0,0.4164,0,84,84,192,1,schaamte,images/br_schaamte.png,images/cb_schaamte.png,0,,,,,,,,,,,,,,,,,,,,,,
,,,,,,00024,2023-09-26_12h58.44.304,vbt_B2_day2,2022.2.4,Win32,60.09615385,,,,,,,,,,,,,,,,,,,,,,,,,,,down,0,12.2655,,0.253703718,-0.089814822,1,0,0,0.766199999,0,85,85,104,1,zweven,images/br_zweven.png,images/cb_zweven.png,0,,,,,,,,,,,,,,,,,,,,,,
,,,,,,00024,2023-09-26_12h58.44.304,vbt_B2_day2,2022.2.4,Win32,60.09615385,,,,,,,,,,,,,,,,,,,,,,,,,,,down,0,4.5234,,0.253703718,-0.089814822,1,0,0,0.4669,0,86,86,53,1,baron,images/br_baron.png,images/cb_baron.png,0,,,,,,,,,,,,,,,,,,,,,,
,,,,,,00024,2023-09-26_12h58.44.304,vbt_B2_day2,2022.2.4,Win32,60.09615385,,,,,,,,,,,,,,,,,,,,,,,,,,,down,0,23.6986,,0.253703718,-0.089814822,1,0,0,0.8129,0,87,87,61,1,groen,images/br_groen.png,images/cb_groen.png,0,,,,,,,,,,,,,,,,,,,,,,
,,,,,,00024,2023-09-26_12h58.44.304,vbt_B2_day2,2022.2.4,Win32,60.09615385,,,,,,,,,,,,,,,,,,,,,,,,,,,down,0,3.302799999,,0.253703718,-0.089814822,1,0,0,0.500200001,0,88,88,109,1,totaal,images/br_totaal.png,images/cb_totaal.png,0,,,,,,,,,,,,,,,,,,,,,,
,,,,,,00024,2023-09-26_12h58.44.304,vbt_B2_day2,2022.2.4,Win32,60.09615385,,,,,,,,,,,,,,,,,,,,,,,,,,,down,0,3.316200001,,0.253703718,-0.089814822,1,0,0,0.806800001,0,89,89,52,1,wagon,images/br_wagon.png,images/cb_wagon.png,0,,,,,,,,,,,,,,,,,,,,,,
,,,,,,00024,2023-09-26_12h58.44.304,vbt_B2_day2,2022.2.4,Win32,60.09615385,,,,,,,,,,,,,,,,,,,,,,,,,,,down,0,6.015699999,,0.24537037,-0.097222222,1,0,0,0.4165,0,90,90,72,1,strak,images/br_strak.png,images/cb_strak.png,0,,,,,,,,,,,,,,,,,,,,,,
,,,,,,00024,2023-09-26_12h58.44.304,vbt_B2_day2,2022.2.4,Win32,60.09615385,,,,,,,,,,,,,,,,,,,,,,,,,,,down,0,12.7982,,0.24537037,-0.097222222,1,0,0,0.6161,0,91,91,134,1,geliefd,images/br_geliefd.png,images/cb_geliefd.png,0,,,,,,,,,,,,,,,,,,,,,,
,,,,,,00024,2023-09-26_12h58.44.304,vbt_B2_day2,2022.2.4,Win32,60.09615385,,,,,,,,,,,,,,,,,,,,,,,,,,,down,0,4.6171,,0.24537037,-0.097222222,1,0,0,0.349299999,0,92,92,101,1,staren,images/br_staren.png,images/cb_staren.png,0,,,,,,,,,,,,,,,,,,,,,,
,,,,,,00024,2023-09-26_12h58.44.304,vbt_B2_day2,2022.2.4,Win32,60.09615385,,,,,,,,,,,,,,,,,,,,,,,,,,,down,0,7.2336,,0.24537037,-0.097222222,1,0,0,0.8,0,93,93,149,1,redding,images/br_redding.png,images/cb_redding.png,0,,,,,,,,,,,,,,,,,,,,,,
,,,,,,00024,2023-09-26_12h58.44.304,vbt_B2_day2,2022.2.4,Win32,60.09615385,,,,,,,,,,,,,,,,,,,,,,,,,,,down,0,0.147,,0.24537037,-0.097222222,1,0,0,0.55,0,94,94,2,1,jaar,images/br_jaar.png,images/cb_jaar.png,0,,,,,,,,,,,,,,,,,,,,,,
,,,,,,00024,2023-09-26_12h58.44.304,vbt_B2_day2,2022.2.4,Win32,60.09615385,,,,,,,,,,,,,,,,,,,,,,,,,,,down,0,1.433700001,,0.24537037,-0.097222222,1,0,0,0.426800001,0,95,95,78,1,leren,images/br_leren.png,images/cb_leren.png,0,,,,,,,,,,,,,,,,,,,,,,
,,,,,,00024,2023-09-26_12h58.44.304,vbt_B2_day2,2022.2.4,Win32,60.09615385,,,,,,,,,,,,,,,,,,,,,,,,,,,down,0,8.986799999,,0.24537037,-0.097222222,1,0,0,2.166199999,0,96,96,168,1,bisschop,images/br_bisschop.png,images/cb_bisschop.png,0,,,,,,,,,,,,,,,,,,,,,,
,,,,,,00024,2023-09-26_12h58.44.304,vbt_B2_day2,2022.2.4,Win32,60.09615385,,,,,,,,,,,,,,,,,,,,,,,,,,,down,0,7.949799999,,0.24537037,-0.097222222,1,0,0,0.3834,0,97,97,85,1,heilig,images/br_heilig.png,images/cb_heilig.png,0,,,,,,,,,,,,,,,,,,,,,,
,,,,,,00024,2023-09-26_12h58.44.304,vbt_B2_day2,2022.2.4,Win32,60.09615385,,,,,,,,,,,,,,,,,,,,,,,,,,,down,0,2.8166,,0.248148176,-0.091666681,1,0,0,0.456300001,0,98,98,114,1,vullen,images/br_vullen.png,images/cb_vullen.png,0,,,,,,,,,,,,,,,,,,,,,,
,,,,,,00024,2023-09-26_12h58.44.304,vbt_B2_day2,2022.2.4,Win32,60.09615385,,,,,,,,,,,,,,,,,,,,,,,,,,,down,0,7.732900002,,0.248148176,-0.091666681,1,0,0,2.0229,0,99,99,31,1,poes,images/br_poes.png,images/cb_poes.png,0,,,,,,,,,,,,,,,,,,,,,,
,,,,,,00024,2023-09-26_12h58.44.304,vbt_B2_day2,2022.2.4,Win32,60.09615385,,,,,,,,,,,,,,,,,,,,,,,,,,,down,0,6.4174,,0.248148176,-0.091666681,1,0,0,0.999599998,0,100,100,26,1,leuk,images/br_leuk.png,images/cb_leuk.png,0,,,,,,,,,,,,,,,,,,,,,,
,,,,,,00024,2023-09-26_12h58.44.304,vbt_B2_day2,2022.2.4,Win32,60.09615385,,,,,,,,,,,,,,,,,,,,,,,,,,,down,0,10.1765,,0.248148176,-0.091666681,1,0,0,0.5829,0,101,101,135,1,gedicht,images/br_gedicht.png,images/cb_gedicht.png,0,,,,,,,,,,,,,,,,,,,,,,
,,,,,,00024,2023-09-26_12h58.44.304,vbt_B2_day2,2022.2.4,Win32,60.09615385,,,,,,,,,,,,,,,,,,,,,,,,,,,down,0,8.266700001,,0.248148176,-0.091666681,1,0,0,1.1665,0,102,102,105,1,wijlen,images/br_wijlen.png,images/cb_wijlen.png,0,,,,,,,,,,,,,,,,,,,,,,
,,,,,,00024,2023-09-26_12h58.44.304,vbt_B2_day2,2022.2.4,Win32,60.09615385,,,,,,,,,,,,,,,,,,,,,,,,,,,down,0,6.935300001,,0.248148176,-0.091666681,1,0,0,1.0164,0,103,103,132,1,grappen,images/br_grappen.png,images/cb_grappen.png,0,,,,,,,,,,,,,,,,,,,,,,
,,,,,,00024,2023-09-26_12h58.44.304,vbt_B2_day2,2022.2.4,Win32,60.09615385,,,,,,,,,,,,,,,,,,,,,,,,,,,down,0,13.2787,,0.248148176,-0.091666681,1,0,0,0.8759,0,104,104,55,1,praat,images/br_praat.png,images/cb_praat.png,0,,,,,,,,,,,,,,,,,,,,,,
,,,,,,00024,2023-09-26_12h58.44.304,vbt_B2_day2,2022.2.4,Win32,60.09615385,,,,,,,,,,,,,,,,,,,,,,,,,,,down,0,7.5911,,0.248148176,-0.091666681,1,0,0,1.0004,0,105,105,161,1,attentie,images/br_attentie.png,images/cb_attentie.png,0,,,,,,,,,,,,,,,,,,,,,,
,,,,,,00024,2023-09-26_12h58.44.304,vbt_B2_day2,2022.2.4,Win32,60.09615385,,,,,,,,,,,,,,,,,,,,,,,,,,,down,0,2.101200001,,0.248148176,-0.091666681,1,0,0,0.549799999,0,106,106,25,1,plek,images/br_plek.png,images/cb_plek.png,0,,,,,,,,,,,,,,,,,,,,,,
,,,,,,00024,2023-09-26_12h58.44.304,vbt_B2_day2,2022.2.4,Win32,60.09615385,,,,,,,,,,,,,,,,,,,,,,,,,,,down,0,1.994200001,,0.248148176,-0.091666681,1,0,0,0.366799999,0,107,107,35,1,lust,images/br_lust.png,images/cb_lust.png,0,,,,,,,,,,,,,,,,,,,,,,
,,,,,,00024,2023-09-26_12h58.44.304,vbt_B2_day2,2022.2.4,Win32,60.09615385,,,,,,,,,,,,,,,,,,,,,,,,,,,down,0,5.184299999,,0.248148176,-0.078703704,1,0,0,0.558700001,0,108,108,19,1,geit,images/br_geit.png,images/cb_geit.png,1,geit,,,,,,,,,,,,,,,,,,,,,
,,,,,,00024,2023-09-26_12h58.44.304,vbt_B2_day2,2022.2.4,Win32,60.09615385,,,,,,,,,,,,,,,,,,,,,,,,,,,down,0,2.533700001,,0.248148176,-0.078703704,1,0,0,1.016800001,0,109,109,51,1,samen,images/br_samen.png,images/cb_samen.png,0,,,,,,,,,,,,,,,,,,,,,,
,,,,,,00024,2023-09-26_12h58.44.304,vbt_B2_day2,2022.2.4,Win32,60.09615385,,,,,,,,,,,,,,,,,,,,,,,,,,,down,0,3.566699999,,0.252777806,-0.078703704,1,0,0,0.9995,0,110,110,115,1,kleren,images/br_kleren.png,images/cb_kleren.png,0,,,,,,,,,,,,,,,,,,,,,,
,,,,,,00024,2023-09-26_12h58.44.304,vbt_B2_day2,2022.2.4,Win32,60.09615385,,,,,,,,,,,,,,,,,,,,,,,,,,,down,0,3.5351,,0.252777806,-0.078703704,1,0,0,0.516200001,0,111,111,73,1,volop,images/br_volop.png,images/cb_volop.png,0,,,,,,,,,,,,,,,,,,,,,,
,,,,,,00024,2023-09-26_12h58.44.304,vbt_B2_day2,2022.2.4,Win32,60.09615385,,,,,,,,,,,,,,,,,,,,,,,,,,,down,0,9.255700001,,0.252777806,-0.078703704,1,0,0,1.3994,0,112,112,88,1,boeien,images/br_boeien.png,images/cb_boeien.png,0,,,,,,,,,,,,,,,,,,,,,,
,,,,,,00024,2023-09-26_12h58.44.304,vbt_B2_day2,2022.2.4,Win32,60.09615385,,,,,,,,,,,,,,,,,,,,,,,,,,,down,0,3.9859,,0.252777806,-0.078703704,1,0,0,2.0661,0,113,113,54,1,gebit,images/br_gebit.png,images/cb_gebit.png,0,,,,,,,,,,,,,,,,,,,,,,
,,,,,,00024,2023-09-26_12h58.44.304,vbt_B2_day2,2022.2.4,Win32,60.09615385,,,,,,,,,,,,,,,,,,,,,,,,,,,down,0,6.456200001,,0.252777806,-0.078703704,1,0,0,1.7335,0,114,114,175,1,heengaan,images/br_heengaan.png,images/cb_heengaan.png,0,,,,,,,,,,,,,,,,,,,,,,
,,,,,,00024,2023-09-26_12h58.44.304,vbt_B2_day2,2022.2.4,Win32,60.09615385,,,,,,,,,,,,,,,,,,,,,,,,,,,down,0,6.0391,,0.252777806,-0.078703704,1,0,0,0.832700001,0,115,115,189,1,aanraden,images/br_aanraden.png,images/cb_aanraden.png,0,,,,,,,,,,,,,,,,,,,,,,
,,,,,,00024,2023-09-26_12h58.44.304,vbt_B2_day2,2022.2.4,Win32,60.09615385,,,,,,,,,,,,,,,,,,,,,,,,,,,down,0,2.916599998,,0.252777806,-0.078703704,1,0,0,0.566800001,0,116,116,1,1,zaal,images/br_zaal.png,images/cb_zaal.png,0,,,,,,,,,,,,,,,,,,,,,,
,,,,,,00024,2023-09-26_12h58.44.304,vbt_B2_day2,2022.2.4,Win32,60.09615385,,,,,,,,,,,,,,,,,,,,,,,,,,,down,0,4.4005,,0.252777806,-0.078703704,1,0,0,1.2001,0,117,117,37,1,mijn,images/br_mijn.png,images/cb_mijn.png,0,,,,,,,,,,,,,,,,,,,,,,
,,,,,,00024,2023-09-26_12h58.44.304,vbt_B2_day2,2022.2.4,Win32,60.09615385,,,,,,,,,,,,,,,,,,,,,,,,,,,down,0,15.1989,,0.252777806,-0.078703704,1,0,0,1.116300001,0,118,118,100,1,geduld,images/br_geduld.png,images/cb_geduld.png,0,,,,,,,,,,,,,,,,,,,,,,
,,,,,,00024,2023-09-26_12h58.44.304,vbt_B2_day2,2022.2.4,Win32,60.09615385,,,,,,,,,,,,,,,,,,,,,,,,,,,down,0,7.323900002,,0.232407393,-0.090740734,1,0,0,0.5005,0,119,119,94,1,oceaan,images/br_oceaan.png,images/cb_oceaan.png,0,,,,,,,,,,,,,,,,,,,,,,
,,,,,,00024,2023-09-26_12h58.44.304,vbt_B2_day2,2022.2.4,Win32,60.09615385,,,,,,,,,,,,,,,,,,,,,,,,,,,down,0,6.823,,0.236111111,-0.090740734,1,0,0,0.4565,0,120,120,14,1,rijp,images/br_rijp.png,images/cb_rijp.png,0,,,,,,,,,,,,,,,,,,,,,,
,,,,,,00024,2023-09-26_12h58.44.304,vbt_B2_day2,2022.2.4,Win32,60.09615385,,,,,,,,,,,,,,,,,,,,,,,,,,,down,0,13.0154,,0.236111111,-0.090740734,1,0,0,0.8664,0,121,121,43,1,klauw,images/br_klauw.png,images/cb_klauw.png,0,,,,,,,,,,,,,,,,,,,,,,
,,,,,,00024,2023-09-26_12h58.44.304,vbt_B2_day2,2022.2.4,Win32,60.09615385,,,,,,,,,,,,,,,,,,,,,,,,,,,down,0,8.4991,,0.236111111,-0.090740734,1,0,0,1.4836,0,122,122,91,1,gezond,images/br_gezond.png,images/cb_gezond.png,0,,,,,,,,,,,,,,,,,,,,,,
,,,,,,00024,2023-09-26_12h58.44.304,vbt_B2_day2,2022.2.4,Win32,60.09615385,,,,,,,,,,,,,,,,,,,,,,,,,,,down,0,8.663299999,,0.208333333,-0.066666674,1,0,0,0.3834,0,123,123,169,1,oprotten,images/br_oprotten.png,images/cb_oprotten.png,0,,,,,,,,,,,,,,,,,,,,,,
,,,,,,00024,2023-09-26_12h58.44.304,vbt_B2_day2,2022.2.4,Win32,60.09615385,,,,,,,,,,,,,,,,,,,,,,,,,,,down,0,7.452400002,,0.208333333,-0.066666674,1,0,0,0.649,0,124,124,59,1,kring,images/br_kring.png,images/cb_kring.png,1,kring,,,,,,,,,,,,,,,,,,,,,
,,,,,,00024,2023-09-26_12h58.44.304,vbt_B2_day2,2022.2.4,Win32,60.09615385,,,,,,,,,,,,,,,,,,,,,,,,,,,down,0,12.4491,,0.208333333,-0.066666674,1,0,0,1.2995,0,125,125,179,1,woestijn,images/br_woestijn.png,images/cb_woestijn.png,1,woestijn,,,,,,,,,,,,,,,,,,,,,
,,,,,,00024,2023-09-26_12h58.44.304,vbt_B2_day2,2022.2.4,Win32,60.09615385,,,,,,,,,,,,,,,,,,,,,,,,,,,down,0,2.750099998,,0.208333333,-0.066666674,1,0,0,0.556,0,126,126,57,1,steek,images/br_steek.png,images/cb_steek.png,1,steek,,,,,,,,,,,,,,,,,,,,,
,,,,,,00024,2023-09-26_12h58.44.304,vbt_B2_day2,2022.2.4,Win32,60.09615385,,,,,,,,,,,,,,,,,,,,,,,,,,,down,0,14.5485,,0.208333333,-0.066666674,1,0,0,0.483199999,0,127,127,16,1,ziek,images/br_ziek.png,images/cb_ziek.png,1,ziek,,,,,,,,,,,,,,,,,,,,,
,,,,,,00024,2023-09-26_12h58.44.304,vbt_B2_day2,2022.2.4,Win32,60.09615385,,,,,,,,,,,,,,,,,,,,,,,,,,,down,0,5.9889,,0.194444444,-0.066666674,1,0,0,1.1566,0,128,128,156,1,rechten,images/br_rechten.png,images/cb_rechten.png,0,,,,,,,,,,,,,,,,,,,,,,
,,,,,,00024,2023-09-26_12h58.44.304,vbt_B2_day2,2022.2.4,Win32,60.09615385,,,,,,,,,,,,,,,,,,,,,,,,,,,down,0,6.182599998,,0.194444444,-0.066666674,1,0,0,0.4164,0,129,129,170,1,schatten,images/br_schatten.png,images/cb_schatten.png,0,,,,,,,,,,,,,,,,,,,,,,
,,,,,,00024,2023-09-26_12h58.44.304,vbt_B2_day2,2022.2.4,Win32,60.09615385,,,,,,,,,,,,,,,,,,,,,,,,,,,down,0,28.4991,,0.192592621,-0.066666674,1,0,0,1.199800001,0,130,130,128,1,prikken,images/br_prikken.png,images/cb_prikken.png,0,,,,,,,,,,,,,,,,,,,,,,
,,,,,,00024,2023-09-26_12h58.44.304,vbt_B2_day2,2022.2.4,Win32,60.09615385,,,,,,,,,,,,,,,,,,,,,,,,,,,down,0,23.1997,,0.192592621,-0.066666674,1,0,0,0.636300001,0,131,131,160,1,daarheen,images/br_daarheen.png,images/cb_daarheen.png,0,,,,,,,,,,,,,,,,,,,,,,
,,,,,,00024,2023-09-26_12h58.44.304,vbt_B2_day2,2022.2.4,Win32,60.09615385,,,,,,,,,,,,,,,,,,,,,,,,,,,down,0,5.383200001,,0.18240745,-0.066666674,1,0,0,0.800200001,0,132,132,150,1,gegeven,images/br_gegeven.png,images/cb_gegeven.png,0,,,,,,,,,,,,,,,,,,,,,,
,,,,,,00024,2023-09-26_12h58.44.304,vbt_B2_day2,2022.2.4,Win32,60.09615385,,,,,,,,,,,,,,,,,,,,,,,,,,,down,0,1.437700001,,0.18240745,-0.066666674,1,0,0,0.449699999,0,133,133,33,1,vlek,images/br_vlek.png,images/cb_vlek.png,0,,,,,,,,,,,,,,,,,,,,,,
,,,,,,00024,2023-09-26_12h58.44.304,vbt_B2_day2,2022.2.4,Win32,60.09615385,,,,,,,,,,,,,,,,,,,,,,,,,,,down,0,5.377,,0.18240745,-0.066666674,1,0,0,0.5396,0,134,134,82,1,muziek,images/br_muziek.png,images/cb_muziek.png,0,,,,,,,,,,,,,,,,,,,,,,
,,,,,,00024,2023-09-26_12h58.44.304,vbt_B2_day2,2022.2.4,Win32,60.09615385,,,,,,,,,,,,,,,,,,,,,,,,,,,down,0,7.137200001,,0.18240745,-0.066666674,1,0,0,0.433099998,0,135,135,157,1,uitlaat,images/br_uitlaat.png,images/cb_uitlaat.png,0,,,,,,,,,,,,,,,,,,,,,,
,,,,,,00024,2023-09-26_12h58.44.304,vbt_B2_day2,2022.2.4,Win32,60.09615385,,,,,,,,,,,,,,,,,,,,,,,,,,,down,0,2.8001,,0.18240745,-0.066666674,1,0,0,0.704,0,136,136,74,1,graaf,images/br_graaf.png,images/cb_graaf.png,0,,,,,,,,,,,,,,,,,,,,,,
,,,,,,00024,2023-09-26_12h58.44.304,vbt_B2_day2,2022.2.4,Win32,60.09615385,,,,,,,,,,,,,,,,,,,,,,,,,,,down,0,2.233699999,,0.18240745,-0.066666674,1,0,0,0.3426,0,137,137,87,1,toeval,images/br_toeval.png,images/cb_toeval.png,0,,,,,,,,,,,,,,,,,,,,,,
,,,,,,00024,2023-09-26_12h58.44.304,vbt_B2_day2,2022.2.4,Win32,60.09615385,,,,,,,,,,,,,,,,,,,,,,,,,,,down,0,9.165900002,,0.18240745,-0.066666674,1,0,0,0.7661,0,138,138,153,1,vervoer,images/br_vervoer.png,images/cb_vervoer.png,0,,,,,,,,,,,,,,,,,,,,,,
,,,,,,00024,2023-09-26_12h58.44.304,vbt_B2_day2,2022.2.4,Win32,60.09615385,,,,,,,,,,,,,,,,,,,,,,,,,,,down,0,18.1188,,0.18240745,-0.066666674,1,0,0,0.733200001,0,139,139,130,1,keihard,images/br_keihard.png,images/cb_keihard.png,0,,,,,,,,,,,,,,,,,,,,,,
,,,,,,00024,2023-09-26_12h58.44.304,vbt_B2_day2,2022.2.4,Win32,60.09615385,,,,,,,,,,,,,,,,,,,,,,,,,,,down,0,9.2015,,0.18240745,-0.066666674,1,0,0,0.567,0,140,140,98,1,kreeft,images/br_kreeft.png,images/cb_kreeft.png,1,kreeft,,,,,,,,,,,,,,,,,,,,,
,,,,,,00024,2023-09-26_12h58.44.304,vbt_B2_day2,2022.2.4,Win32,60.09615385,,,,,,,,,,,,,,,,,,,,,,,,,,,down,0,0.7,,0.18240745,-0.066666674,1,0,0,0.37,0,141,141,17,1,taal,images/br_taal.png,images/cb_taal.png,1,taal,,,,,,,,,,,,,,,,,,,,,
,,,,,,00024,2023-09-26_12h58.44.304,vbt_B2_day2,2022.2.4,Win32,60.09615385,,,,,,,,,,,,,,,,,,,,,,,,,,,down,0,5.817400002,,0.18240745,-0.066666674,1,0,0,0.6339,0,142,142,99,1,koffie,images/br_koffie.png,images/cb_koffie.png,1,koffie,,,,,,,,,,,,,,,,,,,,,
,,,,,,00024,2023-09-26_12h58.44.304,vbt_B2_day2,2022.2.4,Win32,60.09615385,,,,,,,,,,,,,,,,,,,,,,,,,,,down,0,10.3414,,0.18240745,-0.066666674,1,0,0,0.766799999,0,143,143,154,1,aflopen,images/br_aflopen.png,images/cb_aflopen.png,0,,,,,,,,,,,,,,,,,,,,,,
,,,,,,00024,2023-09-26_12h58.44.304,vbt_B2_day2,2022.2.4,Win32,60.09615385,,,,,,,,,,,,,,,,,,,,,,,,,,,down,0,2.8044,,0.18240745,-0.066666674,1,0,0,0.366699999,0,144,144,38,1,baai,images/br_baai.png,images/cb_baai.png,0,,,,,,,,,,,,,,,,,,,,,,
,,,,,,00024,2023-09-26_12h58.44.304,vbt_B2_day2,2022.2.4,Win32,60.09615385,,,,,,,,,,,,,,,,,,,,,,,,,,,down,0,5.101199999,,0.18240745,-0.066666674,1,0,0,0.5326,0,145,145,111,1,ticket,images/br_ticket.png,images/cb_ticket.png,0,,,,,,,,,,,,,,,,,,,,,,
,,,,,,00024,2023-09-26_12h58.44.304,vbt_B2_day2,2022.2.4,Win32,60.09615385,,,,,,,,,,,,,,,,,,,,,,,,,,,down,0,4.174800001,,0.18240745,-0.066666674,1,0,0,2.457099998,0,146,146,20,1,site,images/br_site.png,images/cb_site.png,0,,,,,,,,,,,,,,,,,,,,,,
,,,,,,00024,2023-09-26_12h58.44.304,vbt_B2_day2,2022.2.4,Win32,60.09615385,,,,,,,,,,,,,,,,,,,,,,,,,,,down,0,6.164599998,,0.18240745,-0.066666674,1,0,0,0.5165,0,147,147,177,1,maaltijd,images/br_maaltijd.png,images/cb_maaltijd.png,1,maaltijd,,,,,,,,,,,,,,,,,,,,,
,,,,,,00024,2023-09-26_12h58.44.304,vbt_B2_day2,2022.2.4,Win32,60.09615385,,,,,,,,,,,,,,,,,,,,,,,,,,,down,0,10.3972,,0.18240745,-0.066666674,1,0,0,1.8996,0,148,148,185,1,mijnheer,images/br_mijnheer.png,images/cb_mijnheer.png,0,,,,,,,,,,,,,,,,,,,,,,
,,,,,,00024,2023-09-26_12h58.44.304,vbt_B2_day2,2022.2.4,Win32,60.09615385,,,,,,,,,,,,,,,,,,,,,,,,,,,down,0,16.4649,,0.18240745,-0.066666674,1,0,0,0.6166,0,149,149,18,1,blik,images/br_blik.png,images/cb_blik.png,1,blik,,,,,,,,,,,,,,,,,,,,,
,,,,,,00024,2023-09-26_12h58.44.304,vbt_B2_day2,2022.2.4,Win32,60.09615385,,,,,,,,,,,,,,,,,,,,,,,,,,,down,0,2.500700001,,0.18240745,-0.066666674,1,0,0,0.5665,0,150,150,42,1,bleek,images/br_bleek.png,images/cb_bleek.png,0,,,,,,,,,,,,,,,,,,,,,,
,,,,,,00024,2023-09-26_12h58.44.304,vbt_B2_day2,2022.2.4,Win32,60.09615385,,,,,,,,,,,,,,,,,,,,,,,,,,,down,0,2.5576,,0.18240745,-0.066666674,1,0,0,0.549700001,0,151,151,68,1,schat,images/br_schat.png,images/cb_schat.png,0,,,,,,,,,,,,,,,,,,,,,,
,,,,,,00024,2023-09-26_12h58.44.304,vbt_B2_day2,2022.2.4,Win32,60.09615385,,,,,,,,,,,,,,,,,,,,,,,,,,,down,0,17.8229,,0.174074102,-0.073148162,1,0,0,1.3665,0,152,152,176,1,techniek,images/br_techniek.png,images/cb_techniek.png,1,techniek,,,,,,,,,,,,,,,,,,,,,
,,,,,,00024,2023-09-26_12h58.44.304,vbt_B2_day2,2022.2.4,Win32,60.09615385,,,,,,,,,,,,,,,,,,,,,,,,,,,down,0,10.5656,,0.174074102,-0.073148162,1,0,0,1.857300001,0,153,153,136,1,waarbij,images/br_waarbij.png,images/cb_waarbij.png,1,waarbij,,,,,,,,,,,,,,,,,,,,,
,,,,,,00024,2023-09-26_12h58.44.304,vbt_B2_day2,2022.2.4,Win32,60.09615385,,,,,,,,,,,,,,,,,,,,,,,,,,,down,0,7.442299999,,0.174074102,-0.073148162,1,0,0,0.7175,0,154,154,65,1,parel,images/br_parel.png,images/cb_parel.png,0,,,,,,,,,,,,,,,,,,,,,,
,,,,,,00024,2023-09-26_12h58.44.304,vbt_B2_day2,2022.2.4,Win32,60.09615385,,,,,,,,,,,,,,,,,,,,,,,,,,,down,0,8.0359,,0.174074102,-0.073148162,1,0,0,0.566300001,0,155,155,40,1,schep,images/br_schep.png,images/cb_schep.png,0,,,,,,,,,,,,,,,,,,,,,,
,,,,,,00024,2023-09-26_12h58.44.304,vbt_B2_day2,2022.2.4,Win32,60.09615385,,,,,,,,,,,,,,,,,,,,,,,,,,,down,0,37.4987,,0.174074102,-0.073148162,1,0,0,5.068900002,0,156,156,60,1,jasje,images/br_jasje.png,images/cb_jasje.png,0,,,,,,,,,,,,,,,,,,,,,,
,,,,,,00024,2023-09-26_12h58.44.304,vbt_B2_day2,2022.2.4,Win32,60.09615385,,,,,,,,,,,,,,,,,,,,,,,,,,,down,0,11.407,,0.174074102,-0.073148162,1,0,0,0.6834,0,157,157,164,1,anarchie,images/br_anarchie.png,images/cb_anarchie.png,0,,,,,,,,,,,,,,,,,,,,,,
,,,,,,00024,2023-09-26_12h58.44.304,vbt_B2_day2,2022.2.4,Win32,60.09615385,,,,,,,,,,,,,,,,,,,,,,,,,,,down,0,6.232699999,,0.174074102,-0.073148162,1,0,0,5.6491,0,158,158,197,1,spanning,images/br_spanning.png,images/cb_spanning.png,0,,,,,,,,,,,,,,,,,,,,,,
,,,,,,00024,2023-09-26_12h58.44.304,vbt_B2_day2,2022.2.4,Win32,60.09615385,,,,,,,,,,,,,,,,,,,,,,,,,,,down,0,5.371799999,,0.174074102,-0.073148162,1,0,0,0.5166,0,159,159,3,1,mand,images/br_mand.png,images/cb_mand.png,0,,,,,,,,,,,,,,,,,,,,,,
,,,,,,00024,2023-09-26_12h58.44.304,vbt_B2_day2,2022.2.4,Win32,60.09615385,,,,,,,,,,,,,,,,,,,,,,,,,,,down,0,3.090200001,,0.174074102,-0.073148162,1,0,0,0.4665,0,160,160,86,1,woning,images/br_woning.png,images/cb_woning.png,0,,,,,,,,,,,,,,,,,,,,,,
,,,,,,00024,2023-09-26_12h58.44.304,vbt_B2_day2,2022.2.4,Win32,60.09615385,,,,,,,,,,,,,,,,,,,,,,,,,,,down,0,29.8512,,0.174074102,-0.073148162,1,0,0,1.433699999,0,161,161,126,1,kasteel,images/br_kasteel.png,images/cb_kasteel.png,0,,,,,,,,,,,,,,,,,,,,,,
,,,,,,00024,2023-09-26_12h58.44.304,vbt_B2_day2,2022.2.4,Win32,60.09615385,,,,,,,,,,,,,,,,,,,,,,,,,,,down,0,1.5026,,0.165740755,-0.069444444,1,0,0,0.450299999,0,162,162,47,1,kabel,images/br_kabel.png,images/cb_kabel.png,0,,,,,,,,,,,,,,,,,,,,,,
,,,,,,00024,2023-09-26_12h58.44.304,vbt_B2_day2,2022.2.4,Win32,60.09615385,,,,,,,,,,,,,,,,,,,,,,,,,,,down,0,0.8846,,0.165740755,-0.069444444,1,0,0,1.766300001,0,163,163,145,1,invloed,images/br_invloed.png,images/cb_invloed.png,0,,,,,,,,,,,,,,,,,,,,,,
,,,,,,00024,2023-09-26_12h58.44.304,vbt_B2_day2,2022.2.4,Win32,60.09615385,,,,,,,,,,,,,,,,,,,,,,,,,,,down,0,12.2068,,0.165740755,-0.069444444,1,0,0,1.133300001,0,164,164,195,1,middelen,images/br_middelen.png,images/cb_middelen.png,0,,,,,,,,,,,,,,,,,,,,,,
,,,,,,00024,2023-09-26_12h58.44.304,vbt_B2_day2,2022.2.4,Win32,60.09615385,,,,,,,,,,,,,,,,,,,,,,,,,,,down,0,5.358699999,,0.165740755,-0.069444444,1,0,0,0.616299999,0,165,165,108,1,excuus,images/br_excuus.png,images/cb_excuus.png,0,,,,,,,,,,,,,,,,,,,,,,
,,,,,,00024,2023-09-26_12h58.44.304,vbt_B2_day2,2022.2.4,Win32,60.09615385,,,,,,,,,,,,,,,,,,,,,,,,,,,down,0,19.2501,,0.193518533,-0.073148162,1,0,0,0.751,0,166,166,196,1,nakijken,images/br_nakijken.png,images/cb_nakijken.png,0,,,,,,,,,,,,,,,,,,,,,,
,,,,,,00024,2023-09-26_12h58.44.304,vbt_B2_day2,2022.2.4,Win32,60.09615385,,,,,,,,,,,,,,,,,,,,,,,,,,,down,0,9.0825,,0.190740727,-0.102777764,1,0,0,0.3999,0,167,167,45,1,piste,images/br_piste.png,images/cb_piste.png,0,,,,,,,,,,,,,,,,,,,,,,
,,,,,,00024,2023-09-26_12h58.44.304,vbt_B2_day2,2022.2.4,Win32,60.09615385,,,,,,,,,,,,,,,,,,,,,,,,,,,down,0,5.817799999,,0.190740727,-0.102777764,1,0,0,0.416799999,0,168,168,190,1,goedkoop,images/br_goedkoop.png,images/cb_goedkoop.png,0,,,,,,,,,,,,,,,,,,,,,,
,,,,,,00024,2023-09-26_12h58.44.304,vbt_B2_day2,2022.2.4,Win32,60.09615385,,,,,,,,,,,,,,,,,,,,,,,,,,,down,0,3.920699999,,0.190740727,-0.102777764,1,0,0,0.366599998,0,169,169,163,1,schuilen,images/br_schuilen.png,images/cb_schuilen.png,0,,,,,,,,,,,,,,,,,,,,,,
,,,,,,00024,2023-09-26_12h58.44.304,vbt_B2_day2,2022.2.4,Win32,60.09615385,,,,,,,,,,,,,,,,,,,,,,,,,,,down,0,1.2665,,0.190740727,-0.102777764,1,0,0,0.383599998,0,170,170,32,1,palm,images/br_palm.png,images/cb_palm.png,0,,,,,,,,,,,,,,,,,,,,,,
,,,,,,00024,2023-09-26_12h58.44.304,vbt_B2_day2,2022.2.4,Win32,60.09615385,,,,,,,,,,,,,,,,,,,,,,,,,,,down,0,8.2201,,0.190740727,-0.102777764,1,0,0,0.3834,0,171,171,139,1,stiekem,images/br_stiekem.png,images/cb_stiekem.png,1,stiekem,,,,,,,,,,,,,,,,,,,,,
,,,,,,00024,2023-09-26_12h58.44.304,vbt_B2_day2,2022.2.4,Win32,60.09615385,,,,,,,,,,,,,,,,,,,,,,,,,,,down,0,16.7012,,0.190740727,-0.102777764,1,0,0,0.5335,0,172,172,83,1,mening,images/br_mening.png,images/cb_mening.png,0,,,,,,,,,,,,,,,,,,,,,,
,,,,,,00024,2023-09-26_12h58.44.304,vbt_B2_day2,2022.2.4,Win32,60.09615385,,,,,,,,,,,,,,,,,,,,,,,,,,,down,0,2.9215,,0.190740727,-0.102777764,1,0,0,0.6996,0,173,173,151,1,aanzoek,images/br_aanzoek.png,images/cb_aanzoek.png,0,,,,,,,,,,,,,,,,,,,,,,
,,,,,,00024,2023-09-26_12h58.44.304,vbt_B2_day2,2022.2.4,Win32,60.09615385,,,,,,,,,,,,,,,,,,,,,,,,,,,down,0,7.7664,,0.190740727,-0.102777764,1,0,0,0.7161,0,174,174,124,1,bloeien,images/br_bloeien.png,images/cb_bloeien.png,0,,,,,,,,,,,,,,,,,,,,,,
,,,,,,00024,2023-09-26_12h58.44.304,vbt_B2_day2,2022.2.4,Win32,60.09615385,,,,,,,,,,,,,,,,,,,,,,,,,,,down,0,6.722200001,,0.191666709,-0.107407393,1,0,0,1.9989,0,175,175,93,1,waarop,images/br_waarop.png,images/cb_waarop.png,0,,,,,,,,,,,,,,,,,,,,,,
,,,,,,00024,2023-09-26_12h58.44.304,vbt_B2_day2,2022.2.4,Win32,60.09615385,,,,,,,,,,,,,,,,,,,,,,,,,,,down,0,6.107200001,,0.191666709,-0.107407393,1,0,0,2.050700001,0,176,176,56,1,traag,images/br_traag.png,images/cb_traag.png,1,traag,,,,,,,,,,,,,,,,,,,,,
,,,,,,00024,2023-09-26_12h58.44.304,vbt_B2_day2,2022.2.4,Win32,60.09615385,,,,,,,,,,,,,,,,,,,,,,,,,,,down,0,1.5431,,0.191666709,-0.107407393,1,0,0,0.5,0,177,177,64,1,wegen,images/br_wegen.png,images/cb_wegen.png,0,,,,,,,,,,,,,,,,,,,,,,
,,,,,,00024,2023-09-26_12h58.44.304,vbt_B2_day2,2022.2.4,Win32,60.09615385,,,,,,,,,,,,,,,,,,,,,,,,,,,down,0,6.834799999,,0.191666709,-0.107407393,1,0,0,0.666200001,0,178,178,89,1,slapen,images/br_slapen.png,images/cb_slapen.png,0,,,,,,,,,,,,,,,,,,,,,,
,,,,,,00024,2023-09-26_12h58.44.304,vbt_B2_day2,2022.2.4,Win32,60.09615385,,,,,,,,,,,,,,,,,,,,,,,,,,,down,0,7.503,,0.191666709,-0.107407393,1,0,0,1.1666,0,179,179,166,1,strikken,images/br_strikken.png,images/cb_strikken.png,0,,,,,,,,,,,,,,,,,,,,,,
,,,,,,00024,2023-09-26_12h58.44.304,vbt_B2_day2,2022.2.4,Win32,60.09615385,,,,,,,,,,,,,,,,,,,,,,,,,,,down,0,7.836300001,,0.191666709,-0.107407393,1,0,0,0.583300001,0,180,180,137,1,trekker,images/br_trekker.png,images/cb_trekker.png,1,trekker,,,,,,,,,,,,,,,,,,,,,
,,,,,,00024,2023-09-26_12h58.44.304,vbt_B2_day2,2022.2.4,Win32,60.09615385,,,,,,,,,,,,,,,,,,,,,,,,,,,down,0,3.953299999,,0.191666709,-0.107407393,1,0,0,1.266299999,0,181,181,24,1,jurk,images/br_jurk.png,images/cb_jurk.png,0,,,,,,,,,,,,,,,,,,,,,,
,,,,,,00024,2023-09-26_12h58.44.304,vbt_B2_day2,2022.2.4,Win32,60.09615385,,,,,,,,,,,,,,,,,,,,,,,,,,,down,0,1.447299999,,0.191666709,-0.107407393,1,0,0,0.4165,0,182,182,141,1,knielen,images/br_knielen.png,images/cb_knielen.png,0,,,,,,,,,,,,,,,,,,,,,,
,,,,,,00024,2023-09-26_12h58.44.304,vbt_B2_day2,2022.2.4,Win32,60.09615385,,,,,,,,,,,,,,,,,,,,,,,,,,,down,0,9.366299999,,0.191666709,-0.107407393,1,0,0,0.6164,0,183,183,186,1,voorraad,images/br_voorraad.png,images/cb_voorraad.png,0,,,,,,,,,,,,,,,,,,,,,,
,,,,,,00024,2023-09-26_12h58.44.304,vbt_B2_day2,2022.2.4,Win32,60.09615385,,,,,,,,,,,,,,,,,,,,,,,,,,,down,0,14.0861,,0.191666709,-0.107407393,1,0,0,0.733,0,184,184,133,1,seizoen,images/br_seizoen.png,images/cb_seizoen.png,0,,,,,,,,,,,,,,,,,,,,,,
,,,,,,00024,2023-09-26_12h58.44.304,vbt_B2_day2,2022.2.4,Win32,60.09615385,,,,,,,,,,,,,,,,,,,,,,,,,,,down,0,2.399799999,,0.191666709,-0.107407393,1,0,0,0.6669,0,185,185,84,1,lokken,images/br_lokken.png,images/cb_lokken.png,0,,,,,,,,,,,,,,,,,,,,,,
,,,,,,00024,2023-09-26_12h58.44.304,vbt_B2_day2,2022.2.4,Win32,60.09615385,,,,,,,,,,,,,,,,,,,,,,,,,,,down,0,12.3632,,0.191666709,-0.107407393,1,0,0,2.682799999,0,186,186,119,1,liefje,images/br_liefje.png,images/cb_liefje.png,0,,,,,,,,,,,,,,,,,,,,,,
,,,,,,00024,2023-09-26_12h58.44.304,vbt_B2_day2,2022.2.4,Win32,60.09615385,,,,,,,,,,,,,,,,,,,,,,,,,,,down,0,15.9307,,0.191666709,-0.107407393,1,0,0,1.433,0,187,187,129,1,verhaal,images/br_verhaal.png,images/cb_verhaal.png,0,,,,,,,,,,,,,,,,,,,,,,
,,,,,,00024,2023-09-26_12h58.44.304,vbt_B2_day2,2022.2.4,Win32,60.09615385,,,,,,,,,,,,,,,,,,,,,,,,,,,down,0,2.814,,0.191666709,-0.107407393,1,0,0,0.9999,0,188,188,142,1,snuiven,images/br_snuiven.png,images/cb_snuiven.png,0,,,,,,,,,,,,,,,,,,,,,,
,,,,,,00024,2023-09-26_12h58.44.304,vbt_B2_day2,2022.2.4,Win32,60.09615385,,,,,,,,,,,,,,,,,,,,,,,,,,,down,0,4.951199999,,0.191666709,-0.107407393,1,0,0,0.316700001,0,189,189,173,1,apparaat,images/br_apparaat.png,images/cb_apparaat.png,0,,,,,,,,,,,,,,,,,,,,,,
,,,,,,00024,2023-09-26_12h58.44.304,vbt_B2_day2,2022.2.4,Win32,60.09615385,,,,,,,,,,,,,,,,,,,,,,,,,,,down,0,14.6271,,0.191666709,-0.107407393,1,0,0,0.3831,0,190,190,80,1,kanjer,images/br_kanjer.png,images/cb_kanjer.png,0,,,,,,,,,,,,,,,,,,,,,,
,,,,,,00024,2023-09-26_12h58.44.304,vbt_B2_day2,2022.2.4,Win32,60.09615385,,,,,,,,,,,,,,,,,,,,,,,,,,,down,0,3.0955,,0.191666709,-0.107407393,1,0,0,0.6001,0,191,191,6,1,diep,images/br_diep.png,images/cb_diep.png,0,,,,,,,,,,,,,,,,,,,,,,
,,,,,,00024,2023-09-26_12h58.44.304,vbt_B2_day2,2022.2.4,Win32,60.09615385,,,,,,,,,,,,,,,,,,,,,,,,,,,down,0,6.1669,,0.191666709,-0.107407393,1,0,0,0.516699999,0,192,192,180,1,openbaar,images/br_openbaar.png,images/cb_openbaar.png,0,,,,,,,,,,,,,,,,,,,,,,
,,,,,,00024,2023-09-26_12h58.44.304,vbt_B2_day2,2022.2.4,Win32,60.09615385,,,,,,,,,,,,,,,,,,,,,,,,,,,down,0,6.452700001,,0.191666709,-0.107407393,1,0,0,3.6831,0,193,193,118,1,vinger,images/br_vinger.png,images/cb_vinger.png,0,,,,,,,,,,,,,,,,,,,,,,
,,,,,,00024,2023-09-26_12h58.44.304,vbt_B2_day2,2022.2.4,Win32,60.09615385,,,,,,,,,,,,,,,,,,,,,,,,,,,down,0,7.199800001,,0.191666709,-0.107407393,1,0,0,0.5336,0,194,194,181,1,toegeven,images/br_toegeven.png,images/cb_toegeven.png,0,,,,,,,,,,,,,,,,,,,,,,
,,,,,,00024,2023-09-26_12h58.44.304,vbt_B2_day2,2022.2.4,Win32,60.09615385,,,,,,,,,,,,,,,,,,,,,,,,,,,down,0,14.9325,,0.188888903,-0.109259288,1,0,0,0.5826,0,195,195,198,1,bedoelen,images/br_bedoelen.png,images/cb_bedoelen.png,0,,,,,,,,,,,,,,,,,,,,,,
,,,,,,00024,2023-09-26_12h58.44.304,vbt_B2_day2,2022.2.4,Win32,60.09615385,,,,,,,,,,,,,,,,,,,,,,,,,,,down,0,3.0274,,0.188888903,-0.109259288,1,0,0,0.5835,0,196,196,103,1,joggen,images/br_joggen.png,images/cb_joggen.png,0,,,,,,,,,,,,,,,,,,,,,,
,,,,,,00024,2023-09-26_12h58.44.304,vbt_B2_day2,2022.2.4,Win32,60.09615385,,,,,,,,,,,,,,,,,,,,,,,,,,,down,0,13.01,,0.188888903,-0.109259288,1,0,0,1.4169,0,197,197,92,1,geheim,images/br_geheim.png,images/cb_geheim.png,0,,,,,,,,,,,,,,,,,,,,,,
,,,,,,00024,2023-09-26_12h58.44.304,vbt_B2_day2,2022.2.4,Win32,60.09615385,,,,,,,,,,,,,,,,,,,,,,,,,,,down,0,1.1221,,0.188888903,-0.109259288,1,0,0,0.5004,0,198,198,48,1,steel,images/br_steel.png,images/cb_steel.png,0,,,,,,,,,,,,,,,,,,,,,,
,,,,,,00024,2023-09-26_12h58.44.304,vbt_B2_day2,2022.2.4,Win32,60.09615385,,,,,,,,,,,,,,,,,,,,,,,,,,,down,0,2.857700001,,0.188888903,-0.109259288,1,0,0,1.0494,0,199,199,69,1,waken,images/br_waken.png,images/cb_waken.png,0,,,,,,,,,,,,,,,,,,,,,,
,,,,,,00024,2023-09-26_12h58.44.304,vbt_B2_day2,2022.2.4,Win32,60.09615385,,,,,,,,,,,,,,,,,,,,,,,,,,,,,,,,,,,,,,,,,,,,,,,0.365740741,-0.062962956,1,0,0,,,,,,,,,,,,,,,,
,,,,,,00024,2023-09-26_12h58.44.304,vbt_B2_day2,2022.2.4,Win32,60.09615385,,,,,,,,,,,,,,,,,,,,,,,,,,,,,,,,,,,,,,,,,,,,,,,,,,,,0.365740741,-0.062962956,1,0,0,,,,,,,,,,,
,,,,,,00024,2023-09-26_12h58.44.304,vbt_B2_day2,2022.2.4,Win32,60.09615385,,,,,,,,,,,,,,,,,,,,,,,,,,,,,,,,,,,,,,,,,,zomers,images/br_zomers.png,images/cb_zomers.png,,no.ars,,,,,,,,,,,0.365740741,-0.062962956,1,0,0,no.ars,0,0,0,48,1
,,,,,,00024,2023-09-26_12h58.44.304,vbt_B2_day2,2022.2.4,Win32,60.09615385,,,,,,,,,,,,,,,,,,,,,,,,,,,,,,,,,,,,,,,,,,lurgen,images/br_lurgen.png,images/cb_lurgen.png,,lu.gen,,,,,,,,,,,0.365740741,-0.062962956,1,0,0,lu.gen,0,1,1,29,1
,,,,,,00024,2023-09-26_12h58.44.304,vbt_B2_day2,2022.2.4,Win32,60.09615385,,,,,,,,,,,,,,,,,,,,,,,,,,,,,,,,,,,,,,,,,,piste,images/br_piste.png,images/cb_piste.png,,piste,,,,,,,,,,,0.365740741,-0.062962956,1,0,0,piste,0,2,2,5,1
,,,,,,00024,2023-09-26_12h58.44.304,vbt_B2_day2,2022.2.4,Win32,60.09615385,,,,,,,,,,,,,,,,,,,,,,,,,,,,,,,,,,,,,,,,,,sifferd,images/br_sifferd.png,images/cb_sifferd.png,,seffe.d,,,,,,,,,,,0.362037094,-0.062962956,1,0,0,seffe.d,0,3,3,32,1
,,,,,,00024,2023-09-26_12h58.44.304,vbt_B2_day2,2022.2.4,Win32,60.09615385,,,,,,,,,,,,,,,,,,,,,,,,,,,,,,,,,,,,,,,,,,toeval,images/br_toeval.png,images/cb_toeval.png,,toeval,,,,,,,,,,,0.362037094,-0.062962956,1,0,0,toeval,0,4,4,11,1
,,,,,,00024,2023-09-26_12h58.44.304,vbt_B2_day2,2022.2.4,Win32,60.09615385,,,,,,,,,,,,,,,,,,,,,,,,,,,,,,,,,,,,,,,,,,blad,images/br_blad.png,images/cb_blad.png,,blad,,,,,,,,,,,0.352777834,-0.027777778,1,0,0,blad,0,5,5,1,1
,,,,,,00024,2023-09-26_12h58.44.304,vbt_B2_day2,2022.2.4,Win32,60.09615385,,,,,,,,,,,,,,,,,,,,,,,,,,,,,,,,,,,,,,,,,,strikken,images/br_strikken.png,images/cb_strikken.png,,staikken,,,,,,,,,,,0.356481481,-0.01666666,1,0,0,staikken,0,6,6,18,1
,,,,,,00024,2023-09-26_12h58.44.304,vbt_B2_day2,2022.2.4,Win32,60.09615385,,,,,,,,,,,,,,,,,,,,,,,,,,,,,,,,,,,,,,,,,,moes,images/br_moes.png,images/cb_moes.png,,moes,,,,,,,,,,,0.356481481,-0.01666666,1,0,0,moes,0,7,7,0,1
,,,,,,00024,2023-09-26_12h58.44.304,vbt_B2_day2,2022.2.4,Win32,60.09615385,,,,,,,,,,,,,,,,,,,,,,,,,,,,,,,,,,,,,,,,,,kabel,images/br_kabel.png,images/cb_kabel.png,,kabel,,,,,,,,,,,0.356481481,-0.01666666,1,0,0,kabel,0,8,8,7,1
,,,,,,00024,2023-09-26_12h58.44.304,vbt_B2_day2,2022.2.4,Win32,60.09615385,,,,,,,,,,,,,,,,,,,,,,,,,,,,,,,,,,,,,,,,,,dode,images/br_dode.png,images/cb_dode.png,,dode,,,,,,,,,,,0.356481481,-0.01666666,1,0,0,dode,0,9,9,41,1
,,,,,,00024,2023-09-26_12h58.44.304,vbt_B2_day2,2022.2.4,Win32,60.09615385,,,,,,,,,,,,,,,,,,,,,,,,,,,,,,,,,,,,,,,,,,kenzis,images/br_kenzis.png,images/cb_kenzis.png,,kenzes,,,,,,,,,,,0.356481481,-0.01666666,1,0,0,kenzes,0,10,10,30,1
,,,,,,00024,2023-09-26_12h58.44.304,vbt_B2_day2,2022.2.4,Win32,60.09615385,,,,,,,,,,,,,,,,,,,,,,,,,,,,,,,,,,,,,,,,,,koorts,images/br_koorts.png,images/cb_koorts.png,,koorts,,,,,,,,,,,0.356481481,-0.01666666,1,0,0,koorts,0,11,11,50,1
,,,,,,00024,2023-09-26_12h58.44.304,vbt_B2_day2,2022.2.4,Win32,60.09615385,,,,,,,,,,,,,,,,,,,,,,,,,,,,,,,,,,,,,,,,,,inzicht,images/br_inzicht.png,images/cb_inzicht.png,,inzicht,,,,,,,,,,,0.356481481,-0.01666666,1,0,0,inzicht,0,12,12,53,1
,,,,,,00024,2023-09-26_12h58.44.304,vbt_B2_day2,2022.2.4,Win32,60.09615385,,,,,,,,,,,,,,,,,,,,,,,,,,,,,,,,,,,,,,,,,,badon,images/br_badon.png,images/cb_badon.png,,badon,,,,,,,,,,,0.358333305,-0.011111118,1,0,0,badon,0,13,13,26,1
,,,,,,00024,2023-09-26_12h58.44.304,vbt_B2_day2,2022.2.4,Win32,60.09615385,,,,,,,,,,,,,,,,,,,,,,,,,,,,,,,,,,,,,,,,,,heengeen,images/br_heengeen.png,images/cb_heengeen.png,,heeldeen,,,,,,,,,,,0.358333305,-0.011111118,1,0,0,heeldeen,0,14,14,38,1
,,,,,,00024,2023-09-26_12h58.44.304,vbt_B2_day2,2022.2.4,Win32,60.09615385,,,,,,,,,,,,,,,,,,,,,,,,,,,,,,,,,,,,,,,,,,doodmoe,images/br_doodmoe.png,images/cb_doodmoe.png,,deed.oe,,,,,,,,,,,0.358333305,-0.011111118,1,0,0,deed.oe,0,15,15,15,1
,,,,,,00024,2023-09-26_12h58.44.304,vbt_B2_day2,2022.2.4,Win32,60.09615385,,,,,,,,,,,,,,,,,,,,,,,,,,,,,,,,,,,,,,,,,,sjijfel,images/br_sjijfel.png,images/cb_sjijfel.png,,sjijf..,,,,,,,,,,,0.358333305,-0.011111118,1,0,0,sjijf..,0,16,16,33,1
,,,,,,00024,2023-09-26_12h58.44.304,vbt_B2_day2,2022.2.4,Win32,60.09615385,,,,,,,,,,,,,,,,,,,,,,,,,,,,,,,,,,,,,,,,,,geld,images/br_geld.png,images/cb_geld.png,,geld,,,,,,,,,,,0.050000014,0.006481489,1,0,0,geld,0,17,17,3,1
,,,,,,00024,2023-09-26_12h58.44.304,vbt_B2_day2,2022.2.4,Win32,60.09615385,,,,,,,,,,,,,,,,,,,,,,,,,,,,,,,,,,,,,,,,,,krimmen,images/br_krimmen.png,images/cb_krimmen.png,,krimmen,,,,,,,,,,,0.284259302,-0.072222215,1,0,0,krimmen,0,18,18,35,1
,,,,,,00024,2023-09-26_12h58.44.304,vbt_B2_day2,2022.2.4,Win32,60.09615385,,,,,,,,,,,,,,,,,,,,,,,,,,,,,,,,,,,,,,,,,,kasteel,images/br_kasteel.png,images/cb_kasteel.png,,kasteel,,,,,,,,,,,0.093518504,-0.023148148,1,0,0,kasteel,0,19,19,14,1
,,,,,,00024,2023-09-26_12h58.44.304,vbt_B2_day2,2022.2.4,Win32,60.09615385,,,,,,,,,,,,,,,,,,,,,,,,,,,,,,,,,,,,,,,,,,systeem,images/br_systeem.png,images/cb_systeem.png,,systeem,,,,,,,,,,,-0.003703718,-0.014814836,1,0,0,systeem,0,20,20,54,1
,,,,,,00024,2023-09-26_12h58.44.304,vbt_B2_day2,2022.2.4,Win32,60.09615385,,,,,,,,,,,,,,,,,,,,,,,,,,,,,,,,,,,,,,,,,,stes,images/br_stes.png,images/cb_stes.png,,stes,,,,,,,,,,,-0.007407365,0.002777771,1,0,0,stes,0,21,21,21,1
,,,,,,00024,2023-09-26_12h58.44.304,vbt_B2_day2,2022.2.4,Win32,60.09615385,,,,,,,,,,,,,,,,,,,,,,,,,,,,,,,,,,,,,,,,,,tweeling,images/br_tweeling.png,images/cb_tweeling.png,,tweeling,,,,,,,,,,,-0.071296268,-0.019444466,1,0,0,tweeling,0,22,22,58,1
,,,,,,00024,2023-09-26_12h58.44.304,vbt_B2_day2,2022.2.4,Win32,60.09615385,,,,,,,,,,,,,,,,,,,,,,,,,,,,,,,,,,,,,,,,,,plannen,images/br_plannen.png,images/cb_plannen.png,,plakken,,,,,,,,,,,0.25462963,0.01944443,1,0,0,plakken,0,23,23,55,1
,,,,,,00024,2023-09-26_12h58.44.304,vbt_B2_day2,2022.2.4,Win32,60.09615385,,,,,,,,,,,,,,,,,,,,,,,,,,,,,,,,,,,,,,,,,,welzijn,images/br_welzijn.png,images/cb_welzijn.png,,welz...,,,,,,,,,,,0.271296325,-0.069444444,1,0,0,welz...,0,24,24,52,1
,,,,,,00024,2023-09-26_12h58.44.304,vbt_B2_day2,2022.2.4,Win32,60.09615385,,,,,,,,,,,,,,,,,,,,,,,,,,,,,,,,,,,,,,,,,,zwager,images/br_zwager.png,images/cb_zwager.png,,za...er,,,,,,,,,,,0.14907406,-0.010185206,1,0,0,za...er,0,25,25,49,1
,,,,,,00024,2023-09-26_12h58.44.304,vbt_B2_day2,2022.2.4,Win32,60.09615385,,,,,,,,,,,,,,,,,,,,,,,,,,,,,,,,,,,,,,,,,,anarchie,images/br_anarchie.png,images/cb_anarchie.png,,anarchie,,,,,,,,,,,0.145370413,-0.021296289,1,0,0,anarchie,0,26,26,16,1
,,,,,,00024,2023-09-26_12h58.44.304,vbt_B2_day2,2022.2.4,Win32,60.09615385,,,,,,,,,,,,,,,,,,,,,,,,,,,,,,,,,,,,,,,,,,thema,images/br_thema.png,images/cb_thema.png,,stema,,,,,,,,,,,0.065740727,-0.00462963,1,0,0,stema,0,27,27,47,1
,,,,,,00024,2023-09-26_12h58.44.304,vbt_B2_day2,2022.2.4,Win32,60.09615385,,,,,,,,,,,,,,,,,,,,,,,,,,,,,,,,,,,,,,,,,,feestdag,images/br_feestdag.png,images/cb_feestdag.png,,.eest,,,,,,,,,,,-0.020370342,-0.204629616,1,0,0,.eest,0,28,28,17,1
,,,,,,00024,2023-09-26_12h58.44.304,vbt_B2_day2,2022.2.4,Win32,60.09615385,,,,,,,,,,,,,,,,,,,,,,,,,,,,,,,,,,,,,,,,,,heilig,images/br_heilig.png,images/cb_heilig.png,,hielen,,,,,,,,,,,0.358333305,-0.033333355,1,0,0,hielen,0,29,29,9,1
,,,,,,00024,2023-09-26_12h58.44.304,vbt_B2_day2,2022.2.4,Win32,60.09615385,,,,,,,,,,,,,,,,,,,,,,,,,,,,,,,,,,,,,,,,,,opdatten,images/br_opdatten.png,images/cb_opdatten.png,,op.akken,,,,,,,,,,,0.358333305,-0.033333355,1,0,0,op.akken,0,30,30,37,1
,,,,,,00024,2023-09-26_12h58.44.304,vbt_B2_day2,2022.2.4,Win32,60.09615385,,,,,,,,,,,,,,,,,,,,,,,,,,,,,,,,,,,,,,,,,,clan,images/br_clan.png,images/cb_clan.png,,clan,,,,,,,,,,,0.358333305,-0.033333355,1,0,0,clan,0,31,31,40,1
,,,,,,00024,2023-09-26_12h58.44.304,vbt_B2_day2,2022.2.4,Win32,60.09615385,,,,,,,,,,,,,,,,,,,,,,,,,,,,,,,,,,,,,,,,,,aanvraag,images/br_aanvraag.png,images/cb_aanvraag.png,,aanvaard,,,,,,,,,,,0.410185213,-0.049074067,1,0,0,aanvaard,0,32,32,57,1
,,,,,,00024,2023-09-26_12h58.44.304,vbt_B2_day2,2022.2.4,Win32,60.09615385,,,,,,,,,,,,,,,,,,,,,,,,,,,,,,,,,,,,,,,,,,manieren,images/br_manieren.png,images/cb_manieren.png,,manieren,,,,,,,,,,,0.345370399,-0.055555556,1,0,0,manieren,0,33,33,56,1
,,,,,,00024,2023-09-26_12h58.44.304,vbt_B2_day2,2022.2.4,Win32,60.09615385,,,,,,,,,,,,,,,,,,,,,,,,,,,,,,,,,,,,,,,,,,lijnen,images/br_lijnen.png,images/cb_lijnen.png,,lijnen,,,,,,,,,,,0.046296296,-0.023148148,1,0,0,lijnen,0,34,34,51,1
,,,,,,00024,2023-09-26_12h58.44.304,vbt_B2_day2,2022.2.4,Win32,60.09615385,,,,,,,,,,,,,,,,,,,,,,,,,,,,,,,,,,,,,,,,,,bereuwen,images/br_bereuwen.png,images/cb_bereuwen.png,,bereuw..,,,,,,,,,,,0.204629616,-0.131481524,1,0,0,bereuw..,0,35,35,39,1
,,,,,,00024,2023-09-26_12h58.44.304,vbt_B2_day2,2022.2.4,Win32,60.09615385,,,,,,,,,,,,,,,,,,,,,,,,,,,,,,,,,,,,,,,,,,flits,images/br_flits.png,images/cb_flits.png,,flits,,,,,,,,,,,0.382407436,-0.09629631,1,0,0,flits,0,36,36,4,1
,,,,,,00024,2023-09-26_12h58.44.304,vbt_B2_day2,2022.2.4,Win32,60.09615385,,,,,,,,,,,,,,,,,,,,,,,,,,,,,,,,,,,,,,,,,,diep,images/br_diep.png,images/cb_diep.png,,diep,,,,,,,,,,,0.088888875,0.0074074,1,0,0,diep,0,37,37,2,1
,,,,,,00024,2023-09-26_12h58.44.304,vbt_B2_day2,2022.2.4,Win32,60.09615385,,,,,,,,,,,,,,,,,,,,,,,,,,,,,,,,,,,,,,,,,,negel,images/br_negel.png,images/cb_negel.png,,negel,,,,,,,,,,,0.346296381,-0.003703718,1,0,0,negel,0,38,38,24,1
,,,,,,00024,2023-09-26_12h58.44.304,vbt_B2_day2,2022.2.4,Win32,60.09615385,,,,,,,,,,,,,,,,,,,,,,,,,,,,,,,,,,,,,,,,,,prekken,images/br_prekken.png,images/cb_prekken.png,,prakken,,,,,,,,,,,0.184259273,-0.010185206,1,0,0,prakken,0,39,39,34,1
,,,,,,00024,2023-09-26_12h58.44.304,vbt_B2_day2,2022.2.4,Win32,60.09615385,,,,,,,,,,,,,,,,,,,,,,,,,,,,,,,,,,,,,,,,,,aanzien,images/br_aanzien.png,images/cb_aanzien.png,,aanzien,,,,,,,,,,,0.27870369,-0.017592607,1,0,0,aanzien,0,40,40,13,1
,,,,,,00024,2023-09-26_12h58.44.304,vbt_B2_day2,2022.2.4,Win32,60.09615385,,,,,,,,,,,,,,,,,,,,,,,,,,,,,,,,,,,,,,,,,,jagen,images/br_jagen.png,images/cb_jagen.png,,jagen,,,,,,,,,,,0.283333319,-0.019444466,1,0,0,jagen,0,41,41,6,1
,,,,,,00024,2023-09-26_12h58.44.304,vbt_B2_day2,2022.2.4,Win32,60.09615385,,,,,,,,,,,,,,,,,,,,,,,,,,,,,,,,,,,,,,,,,,bloeien,images/br_bloeien.png,images/cb_bloeien.png,,bloeien,,,,,,,,,,,0.220370399,-0.025925919,1,0,0,bloeien,0,42,42,12,1
,,,,,,00024,2023-09-26_12h58.44.304,vbt_B2_day2,2022.2.4,Win32,60.09615385,,,,,,,,,,,,,,,,,,,,,,,,,,,,,,,,,,,,,,,,,,kijlen,images/br_kijlen.png,images/cb_kijlen.png,,kijlen,,,,,,,,,,,0.179629644,-0.044444437,1,0,0,kijlen,0,43,43,31,1
,,,,,,00024,2023-09-26_12h58.44.304,vbt_B2_day2,2022.2.4,Win32,60.09615385,,,,,,,,,,,,,,,,,,,,,,,,,,,,,,,,,,,,,,,,,,goon,images/br_goon.png,images/cb_goon.png,,goon,,,,,,,,,,,0.409259231,-0.053703697,1,0,0,goon,0,44,44,23,1
,,,,,,00024,2023-09-26_12h58.44.304,vbt_B2_day2,2022.2.4,Win32,60.09615385,,,,,,,,,,,,,,,,,,,,,,,,,,,,,,,,,,,,,,,,,,eenhoorn,images/br_eenhoorn.png,images/cb_eenhoorn.png,,eenhoorn,,,,,,,,,,,0.23055557,-0.021296289,1,0,0,eenhoorn,0,45,45,19,1
,,,,,,00024,2023-09-26_12h58.44.304,vbt_B2_day2,2022.2.4,Win32,60.09615385,,,,,,,,,,,,,,,,,,,,,,,,,,,,,,,,,,,,,,,,,,ningen,images/br_ningen.png,images/cb_ningen.png,,ningen,,,,,,,,,,,-0.125,-0.031481496,1,0,0,ningen,0,46,46,28,1
,,,,,,00024,2023-09-26_12h58.44.304,vbt_B2_day2,2022.2.4,Win32,60.09615385,,,,,,,,,,,,,,,,,,,,,,,,,,,,,,,,,,,,,,,,,,breuk,images/br_breuk.png,images/cb_breuk.png,,breuk,,,,,,,,,,,0.411111196,-0.119444459,1,0,0,breuk,0,47,47,45,1
,,,,,,00024,2023-09-26_12h58.44.304,vbt_B2_day2,2022.2.4,Win32,60.09615385,,,,,,,,,,,,,,,,,,,,,,,,,,,,,,,,,,,,,,,,,,trots,images/br_trots.png,images/cb_trots.png,,trots,,,,,,,,,,,0.065740727,-0.009259259,1,0,0,trots,0,48,48,44,1
,,,,,,00024,2023-09-26_12h58.44.304,vbt_B2_day2,2022.2.4,Win32,60.09615385,,,,,,,,,,,,,,,,,,,,,,,,,,,,,,,,,,,,,,,,,,remel,images/br_remel.png,images/cb_remel.png,,remel,,,,,,,,,,,0.20185188,-0.035185178,1,0,0,remel,0,49,49,25,1
,,,,,,00024,2023-09-26_12h58.44.304,vbt_B2_day2,2022.2.4,Win32,60.09615385,,,,,,,,,,,,,,,,,,,,,,,,,,,,,,,,,,,,,,,,,,jong,images/br_jong.png,images/cb_jong.png,,jong,,,,,,,,,,,0.054629644,-0.00462963,1,0,0,jong,0,50,50,43,1
,,,,,,00024,2023-09-26_12h58.44.304,vbt_B2_day2,2022.2.4,Win32,60.09615385,,,,,,,,,,,,,,,,,,,,,,,,,,,,,,,,,,,,,,,,,,sora,images/br_sora.png,images/cb_sora.png,,sora,,,,,,,,,,,0.366666723,-0.090740734,1,0,0,sora,0,51,51,22,1
,,,,,,00024,2023-09-26_12h58.44.304,vbt_B2_day2,2022.2.4,Win32,60.09615385,,,,,,,,,,,,,,,,,,,,,,,,,,,,,,,,,,,,,,,,,,zegel,images/br_zegel.png,images/cb_zegel.png,,zegel,,,,,,,,,,,0.150000042,-0.01666666,1,0,0,zegel,0,52,52,46,1
,,,,,,00024,2023-09-26_12h58.44.304,vbt_B2_day2,2022.2.4,Win32,60.09615385,,,,,,,,,,,,,,,,,,,,,,,,,,,,,,,,,,,,,,,,,,woning,images/br_woning.png,images/cb_woning.png,,woning,,,,,,,,,,,0.152777778,-0.017592607,1,0,0,woning,0,53,53,10,1
,,,,,,00024,2023-09-26_12h58.44.304,vbt_B2_day2,2022.2.4,Win32,60.09615385,,,,,,,,,,,,,,,,,,,,,,,,,,,,,,,,,,,,,,,,,,agressie,images/br_agressie.png,images/cb_agressie.png,,a.rekkei,,,,,,,,,,,0.099074116,-0.066666674,1,0,0,a.rekkei,0,54,54,59,1
,,,,,,00024,2023-09-26_12h58.44.304,vbt_B2_day2,2022.2.4,Win32,60.09615385,,,,,,,,,,,,,,,,,,,,,,,,,,,,,,,,,,,,,,,,,,tand,images/br_tand.png,images/cb_tand.png,,tand,,,,,,,,,,,0.29814812,-0.243518547,1,0,0,tand,0,55,55,42,1
,,,,,,00024,2023-09-26_12h58.44.304,vbt_B2_day2,2022.2.4,Win32,60.09615385,,,,,,,,,,,,,,,,,,,,,,,,,,,,,,,,,,,,,,,,,,joes,images/br_joes.png,images/cb_joes.png,,joes,,,,,,,,,,,0.059259273,-0.002777771,1,0,0,joes,0,56,56,20,1
,,,,,,00024,2023-09-26_12h58.44.304,vbt_B2_day2,2022.2.4,Win32,60.09615385,,,,,,,,,,,,,,,,,,,,,,,,,,,,,,,,,,,,,,,,,,lokken,images/br_lokken.png,images/cb_lokken.png,,lokken,,,,,,,,,,,0.059259273,-0.002777771,1,0,0,lokken,0,57,57,8,1
,,,,,,00024,2023-09-26_12h58.44.304,vbt_B2_day2,2022.2.4,Win32,60.09615385,,,,,,,,,,,,,,,,,,,,,,,,,,,,,,,,,,,,,,,,,,wijve,images/br_wijve.png,images/cb_wijve.png,,wijvi,,,,,,,,,,,0.037962949,0.003703683,1,0,0,wijvi,0,58,58,27,1
,,,,,,00024,2023-09-26_12h58.44.304,vbt_B2_day2,2022.2.4,Win32,60.09615385,,,,,,,,,,,,,,,,,,,,,,,,,,,,,,,,,,,,,,,,,,ophuimen,images/br_ophuimen.png,images/cb_ophuimen.png,,op....en,,,,,,,,,,,0.010185171,-0.205555598,1,0,0,op....en,0,59,59,36,1
,,,,,,00024,2023-09-26_12h58.44.304,vbt_B2_day2,2022.2.4,Win32,60.09615385,,,,,,,,,,,,,,,,,,,,,,,,,,,,,,,,,,,,,,,,,,,,,,,,,,,,,,,,,,,,,,,,,,,
