welcome_mouse.x,welcome_mouse.y,welcome_mouse.leftButton,welcome_mouse.midButton,welcome_mouse.rightButton,welcome_mouse.time,"ID",date,expName,psychopyVersion,OS,frameRate,refresh_mouse.x,refresh_mouse.y,refresh_mouse.leftButton,refresh_mouse.midButton,refresh_mouse.rightButton,refresh_mouse.time,braille_mouse.x,braille_mouse.y,braille_mouse.leftButton,braille_mouse.midButton,braille_mouse.rightButton,braille_mouse.time,trials.thisRepN,trials.thisTrialN,trials.thisN,trials.thisIndex,trials.ran,nlLet,brLet,cbLet,trainInstr_mouse.x,trainInstr_mouse.y,trainInstr_mouse.leftButton,trainInstr_mouse.midButton,trainInstr_mouse.rightButton,trainInstr_mouse.time,translation_key.keys,translation_key.corr,translation_key.rt,word_rsp.text,word_mouse.x,word_mouse.y,word_mouse.leftButton,word_mouse.midButton,word_mouse.rightButton,word_mouse.time,train_loop.thisRepN,train_loop.thisTrialN,train_loop.thisN,train_loop.thisIndex,train_loop.ran,nlWrd,brWrd,cbWrd,test,testResp,mouse.x,mouse.y,mouse.leftButton,mouse.midButton,mouse.rightButton,testInstr_mouse.x,testInstr_mouse.y,testInstr_mouse.leftButton,testInstr_mouse.midButton,testInstr_mouse.rightButton,test_mouse.x,test_mouse.y,test_mouse.leftButton,test_mouse.midButton,test_mouse.rightButton,test_response.text,test_loop.thisRepN,test_loop.thisTrialN,test_loop.thisN,test_loop.thisIndex,test_loop.ran
-0.065740727,-0.160185213,1,0,0,25.2172,00066,2023-10-14_18h24.55.788,vbt_B2_day2,2022.2.4,Win32,143.328078,,,,,,,,,,,,,,,,,,,,,,,,,,,,,,,,,,,,,,,,,,,,,,,,,,,,,,,,,,,,,,,,,,,
,,,,,,00066,2023-10-14_18h24.55.788,vbt_B2_day2,2022.2.4,Win32,143.328078,0.20185188,-0.207407422,1,0,0,10.1148,,,,,,,,,,,,,,,,,,,,,,,,,,,,,,,,,,,,,,,,,,,,,,,,,,,,,,,,,,,,,
,,,,,,00066,2023-10-14_18h24.55.788,vbt_B2_day2,2022.2.4,Win32,143.328078,,,,,,,0.194444444,-0.196296339,1,0,0,2.0837,0,0,0,25,1,z,images/br_z.png,images/cb_z.png,,,,,,,,,,,,,,,,,,,,,,,,,,,,,,,,,,,,,,,,,,,,,,,
,,,,,,00066,2023-10-14_18h24.55.788,vbt_B2_day2,2022.2.4,Win32,143.328078,,,,,,,0.194444444,-0.188888903,1,0,0,0.1181,0,1,1,17,1,r,images/br_r.png,images/cb_r.png,,,,,,,,,,,,,,,,,,,,,,,,,,,,,,,,,,,,,,,,,,,,,,,
,,,,,,00066,2023-10-14_18h24.55.788,vbt_B2_day2,2022.2.4,Win32,143.328078,,,,,,,0.157407407,-0.193518533,1,0,0,0.6806,0,2,2,23,1,x,images/br_x.png,images/cb_x.png,,,,,,,,,,,,,,,,,,,,,,,,,,,,,,,,,,,,,,,,,,,,,,,
,,,,,,00066,2023-10-14_18h24.55.788,vbt_B2_day2,2022.2.4,Win32,143.328078,,,,,,,0.110185199,-0.188888903,1,0,0,1.6318,0,3,3,14,1,o,images/br_o.png,images/cb_o.png,,,,,,,,,,,,,,,,,,,,,,,,,,,,,,,,,,,,,,,,,,,,,,,
,,,,,,00066,2023-10-14_18h24.55.788,vbt_B2_day2,2022.2.4,Win32,143.328078,,,,,,,0.158333319,-0.216666681,1,0,0,0.5691,0,4,4,1,1,b,images/br_b.png,images/cb_b.png,,,,,,,,,,,,,,,,,,,,,,,,,,,,,,,,,,,,,,,,,,,,,,,
,,,,,,00066,2023-10-14_18h24.55.788,vbt_B2_day2,2022.2.4,Win32,143.328078,,,,,,,0.286111125,-0.167592578,1,0,0,0.4516,0,5,5,19,1,t,images/br_t.png,images/cb_t.png,,,,,,,,,,,,,,,,,,,,,,,,,,,,,,,,,,,,,,,,,,,,,,,
,,,,,,00066,2023-10-14_18h24.55.788,vbt_B2_day2,2022.2.4,Win32,143.328078,,,,,,,0.219444487,-0.135185171,1,0,0,1.3197,0,6,6,0,1,a,images/br_a.png,images/cb_a.png,,,,,,,,,,,,,,,,,,,,,,,,,,,,,,,,,,,,,,,,,,,,,,,
,,,,,,00066,2023-10-14_18h24.55.788,vbt_B2_day2,2022.2.4,Win32,143.328078,,,,,,,0.233333376,-0.139814801,1,0,0,2.6041,0,7,7,11,1,l,images/br_l.png,images/cb_l.png,,,,,,,,,,,,,,,,,,,,,,,,,,,,,,,,,,,,,,,,,,,,,,,
,,,,,,00066,2023-10-14_18h24.55.788,vbt_B2_day2,2022.2.4,Win32,143.328078,,,,,,,0.217592593,-0.146296325,1,0,0,1.4379,0,8,8,16,1,q,images/br_q.png,images/cb_q.png,,,,,,,,,,,,,,,,,,,,,,,,,,,,,,,,,,,,,,,,,,,,,,,
,,,,,,00066,2023-10-14_18h24.55.788,vbt_B2_day2,2022.2.4,Win32,143.328078,,,,,,,0.212037051,-0.145370413,1,0,0,2.3405,0,9,9,24,1,y,images/br_y.png,images/cb_y.png,,,,,,,,,,,,,,,,,,,,,,,,,,,,,,,,,,,,,,,,,,,,,,,
,,,,,,00066,2023-10-14_18h24.55.788,vbt_B2_day2,2022.2.4,Win32,143.328078,,,,,,,0.207407422,-0.14444443,1,0,0,1.4241,0,10,10,5,1,f,images/br_f.png,images/cb_f.png,,,,,,,,,,,,,,,,,,,,,,,,,,,,,,,,,,,,,,,,,,,,,,,
,,,,,,00066,2023-10-14_18h24.55.788,vbt_B2_day2,2022.2.4,Win32,143.328078,,,,,,,0.202777792,-0.147222236,1,0,0,1.0975,0,11,11,13,1,n,images/br_n.png,images/cb_n.png,,,,,,,,,,,,,,,,,,,,,,,,,,,,,,,,,,,,,,,,,,,,,,,
,,,,,,00066,2023-10-14_18h24.55.788,vbt_B2_day2,2022.2.4,Win32,143.328078,,,,,,,0.195370356,-0.143518519,1,0,0,1.3195,0,12,12,3,1,d,images/br_d.png,images/cb_d.png,,,,,,,,,,,,,,,,,,,,,,,,,,,,,,,,,,,,,,,,,,,,,,,
,,,,,,00066,2023-10-14_18h24.55.788,vbt_B2_day2,2022.2.4,Win32,143.328078,,,,,,,0.20648151,-0.146296325,1,0,0,0.5902,0,13,13,8,1,i,images/br_i.png,images/cb_i.png,,,,,,,,,,,,,,,,,,,,,,,,,,,,,,,,,,,,,,,,,,,,,,,
,,,,,,00066,2023-10-14_18h24.55.788,vbt_B2_day2,2022.2.4,Win32,143.328078,,,,,,,0.209259245,-0.14907406,1,0,0,0.8957,0,14,14,4,1,e,images/br_e.png,images/cb_e.png,,,,,,,,,,,,,,,,,,,,,,,,,,,,,,,,,,,,,,,,,,,,,,,
,,,,,,00066,2023-10-14_18h24.55.788,vbt_B2_day2,2022.2.4,Win32,143.328078,,,,,,,0.202777792,-0.151851866,1,0,0,0.3611,0,15,15,6,1,g,images/br_g.png,images/cb_g.png,,,,,,,,,,,,,,,,,,,,,,,,,,,,,,,,,,,,,,,,,,,,,,,
,,,,,,00066,2023-10-14_18h24.55.788,vbt_B2_day2,2022.2.4,Win32,143.328078,,,,,,,0.20185188,-0.145370413,1,0,0,0.4374,0,16,16,12,1,m,images/br_m.png,images/cb_m.png,,,,,,,,,,,,,,,,,,,,,,,,,,,,,,,,,,,,,,,,,,,,,,,
,,,,,,00066,2023-10-14_18h24.55.788,vbt_B2_day2,2022.2.4,Win32,143.328078,,,,,,,0.202777792,-0.147222236,1,0,0,0.1809,0,17,17,10,1,k,images/br_k.png,images/cb_k.png,,,,,,,,,,,,,,,,,,,,,,,,,,,,,,,,,,,,,,,,,,,,,,,
,,,,,,00066,2023-10-14_18h24.55.788,vbt_B2_day2,2022.2.4,Win32,143.328078,,,,,,,0.202777792,-0.148148148,1,0,0,0.3198,0,18,18,15,1,p,images/br_p.png,images/cb_p.png,,,,,,,,,,,,,,,,,,,,,,,,,,,,,,,,,,,,,,,,,,,,,,,
,,,,,,00066,2023-10-14_18h24.55.788,vbt_B2_day2,2022.2.4,Win32,143.328078,,,,,,,0.203703704,-0.137962977,1,0,0,2.8818,0,19,19,20,1,u,images/br_u.png,images/cb_u.png,,,,,,,,,,,,,,,,,,,,,,,,,,,,,,,,,,,,,,,,,,,,,,,
,,,,,,00066,2023-10-14_18h24.55.788,vbt_B2_day2,2022.2.4,Win32,143.328078,,,,,,,0.190740727,-0.140740783,1,0,0,0.0837,0,20,20,21,1,v,images/br_v.png,images/cb_v.png,,,,,,,,,,,,,,,,,,,,,,,,,,,,,,,,,,,,,,,,,,,,,,,
,,,,,,00066,2023-10-14_18h24.55.788,vbt_B2_day2,2022.2.4,Win32,143.328078,,,,,,,0.190740727,-0.140740783,1,0,0,1.0283,0,21,21,22,1,w,images/br_w.png,images/cb_w.png,,,,,,,,,,,,,,,,,,,,,,,,,,,,,,,,,,,,,,,,,,,,,,,
,,,,,,00066,2023-10-14_18h24.55.788,vbt_B2_day2,2022.2.4,Win32,143.328078,,,,,,,0.185185185,-0.143518519,1,0,0,0.1046,0,22,22,18,1,s,images/br_s.png,images/cb_s.png,,,,,,,,,,,,,,,,,,,,,,,,,,,,,,,,,,,,,,,,,,,,,,,
,,,,,,00066,2023-10-14_18h24.55.788,vbt_B2_day2,2022.2.4,Win32,143.328078,,,,,,,0.181481467,-0.132407436,1,0,0,0.4164,0,23,23,7,1,h,images/br_h.png,images/cb_h.png,,,,,,,,,,,,,,,,,,,,,,,,,,,,,,,,,,,,,,,,,,,,,,,
,,,,,,00066,2023-10-14_18h24.55.788,vbt_B2_day2,2022.2.4,Win32,143.328078,,,,,,,0.184259273,-0.136111153,1,0,0,0.1458,0,24,24,9,1,j,images/br_j.png,images/cb_j.png,,,,,,,,,,,,,,,,,,,,,,,,,,,,,,,,,,,,,,,,,,,,,,,
,,,,,,00066,2023-10-14_18h24.55.788,vbt_B2_day2,2022.2.4,Win32,143.328078,,,,,,,0.183333362,-0.136111153,1,0,0,0.0206,0,25,25,2,1,c,images/br_c.png,images/cb_c.png,,,,,,,,,,,,,,,,,,,,,,,,,,,,,,,,,,,,,,,,,,,,,,,
,,,,,,00066,2023-10-14_18h24.55.788,vbt_B2_day2,2022.2.4,Win32,143.328078,,,,,,,,,,,,,,,,,,,,,0.183333362,-0.137037065,1,0,0,43.5064,,,,,,,,,,,,,,,,,,,,,,,,,,,,,,,,,,,,,,,,,
,,,,,,00066,2023-10-14_18h24.55.788,vbt_B2_day2,2022.2.4,Win32,143.328078,,,,,,,,,,,,,,,,,,,,,,,,,,,down,0,23.0402,,0.183333362,-0.137037065,1,0,0,2,0,0,0,33,1,vlek,images/br_vlek.png,images/cb_vlek.png,0,,,,,,,,,,,,,,,,,,,,,,
,,,,,,00066,2023-10-14_18h24.55.788,vbt_B2_day2,2022.2.4,Win32,143.328078,,,,,,,,,,,,,,,,,,,,,,,,,,,down,0,9.5139,,0.183333362,-0.137037065,1,0,0,2.1039,0,1,1,31,1,poes,images/br_poes.png,images/cb_poes.png,0,,,,,,,,,,,,,,,,,,,,,,
,,,,,,00066,2023-10-14_18h24.55.788,vbt_B2_day2,2022.2.4,Win32,143.328078,,,,,,,,,,,,,,,,,,,,,,,,,,,down,0,14.4667,,0.183333362,-0.137037065,1,0,0,2.4862,0,2,2,35,1,lust,images/br_lust.png,images/cb_lust.png,0,,,,,,,,,,,,,,,,,,,,,,
,,,,,,00066,2023-10-14_18h24.55.788,vbt_B2_day2,2022.2.4,Win32,143.328078,,,,,,,,,,,,,,,,,,,,,,,,,,,down,0,5.9186,,0.279629672,-0.101851852,1,0,0,3.5072,0,3,3,56,1,traag,images/br_traag.png,images/cb_traag.png,1,traag,,,,,,,,,,,,,,,,,,,,,
,,,,,,00066,2023-10-14_18h24.55.788,vbt_B2_day2,2022.2.4,Win32,143.328078,,,,,,,,,,,,,,,,,,,,,,,,,,,down,0,12.0366,,0.279629672,-0.101851852,1,0,0,1.4517,0,4,4,177,1,maaltijd,images/br_maaltijd.png,images/cb_maaltijd.png,1,maaltijd,,,,,,,,,,,,,,,,,,,,,
,,,,,,00066,2023-10-14_18h24.55.788,vbt_B2_day2,2022.2.4,Win32,143.328078,,,,,,,,,,,,,,,,,,,,,,,,,,,down,0,11.8585,,0.279629672,-0.101851852,1,0,0,1.3265,0,5,5,149,1,redding,images/br_redding.png,images/cb_redding.png,0,,,,,,,,,,,,,,,,,,,,,,
,,,,,,00066,2023-10-14_18h24.55.788,vbt_B2_day2,2022.2.4,Win32,143.328078,,,,,,,,,,,,,,,,,,,,,,,,,,,down,0,15.702,,0.279629672,-0.101851852,1,0,0,0.7086,0,6,6,175,1,heengaan,images/br_heengaan.png,images/cb_heengaan.png,0,,,,,,,,,,,,,,,,,,,,,,
,,,,,,00066,2023-10-14_18h24.55.788,vbt_B2_day2,2022.2.4,Win32,143.328078,,,,,,,,,,,,,,,,,,,,,,,,,,,down,0,39.4542,,0.279629672,-0.101851852,1,0,0,0.6319,0,7,7,131,1,opzicht,images/br_opzicht.png,images/cb_opzicht.png,0,,,,,,,,,,,,,,,,,,,,,,
,,,,,,00066,2023-10-14_18h24.55.788,vbt_B2_day2,2022.2.4,Win32,143.328078,,,,,,,,,,,,,,,,,,,,,,,,,,,down,0,10.5212,,0.279629672,-0.101851852,1,0,0,0.5766,0,8,8,166,1,strikken,images/br_strikken.png,images/cb_strikken.png,0,,,,,,,,,,,,,,,,,,,,,,
,,,,,,00066,2023-10-14_18h24.55.788,vbt_B2_day2,2022.2.4,Win32,143.328078,,,,,,,,,,,,,,,,,,,,,,,,,,,down,0,18.2074,,0.279629672,-0.101851852,1,0,0,1.9588,0,9,9,179,1,woestijn,images/br_woestijn.png,images/cb_woestijn.png,1,woestijn,,,,,,,,,,,,,,,,,,,,,
,,,,,,00066,2023-10-14_18h24.55.788,vbt_B2_day2,2022.2.4,Win32,143.328078,,,,,,,,,,,,,,,,,,,,,,,,,,,down,0,3.5368,,0.279629672,-0.101851852,1,0,0,0.5275,0,10,10,6,1,diep,images/br_diep.png,images/cb_diep.png,0,,,,,,,,,,,,,,,,,,,,,,
,,,,,,00066,2023-10-14_18h24.55.788,vbt_B2_day2,2022.2.4,Win32,143.328078,,,,,,,,,,,,,,,,,,,,,,,,,,,down,0,21.682,,0.279629672,-0.101851852,1,0,0,1.0347,0,11,11,71,1,bever,images/br_bever.png,images/cb_bever.png,0,,,,,,,,,,,,,,,,,,,,,,
,,,,,,00066,2023-10-14_18h24.55.788,vbt_B2_day2,2022.2.4,Win32,143.328078,,,,,,,,,,,,,,,,,,,,,,,,,,,down,0,5.4723,,0.279629672,-0.101851852,1,0,0,0.4789,0,12,12,2,1,jaar,images/br_jaar.png,images/cb_jaar.png,0,,,,,,,,,,,,,,,,,,,,,,
,,,,,,00066,2023-10-14_18h24.55.788,vbt_B2_day2,2022.2.4,Win32,143.328078,,,,,,,,,,,,,,,,,,,,,,,,,,,down,0,4.6322,,0.279629672,-0.101851852,1,0,0,0.4515,0,13,13,117,1,kennis,images/br_kennis.png,images/cb_kennis.png,0,,,,,,,,,,,,,,,,,,,,,,
,,,,,,00066,2023-10-14_18h24.55.788,vbt_B2_day2,2022.2.4,Win32,143.328078,,,,,,,,,,,,,,,,,,,,,,,,,,,down,0,3.7154,,0.279629672,-0.101851852,1,0,0,0.7156,0,14,14,74,1,graaf,images/br_graaf.png,images/cb_graaf.png,0,,,,,,,,,,,,,,,,,,,,,,
,,,,,,00066,2023-10-14_18h24.55.788,vbt_B2_day2,2022.2.4,Win32,143.328078,,,,,,,,,,,,,,,,,,,,,,,,,,,down,0,4.1693,,0.279629672,-0.101851852,1,0,0,1.7501,0,15,15,59,1,kring,images/br_kring.png,images/cb_kring.png,1,kring,,,,,,,,,,,,,,,,,,,,,
,,,,,,00066,2023-10-14_18h24.55.788,vbt_B2_day2,2022.2.4,Win32,143.328078,,,,,,,,,,,,,,,,,,,,,,,,,,,down,0,19.4908,,0.279629672,-0.101851852,1,0,0,0.6181,0,16,16,37,1,mijn,images/br_mijn.png,images/cb_mijn.png,0,,,,,,,,,,,,,,,,,,,,,,
,,,,,,00066,2023-10-14_18h24.55.788,vbt_B2_day2,2022.2.4,Win32,143.328078,,,,,,,,,,,,,,,,,,,,,,,,,,,down,0,2.2436,,0.279629672,-0.101851852,1,0,0,0.5,0,17,17,42,1,bleek,images/br_bleek.png,images/cb_bleek.png,0,,,,,,,,,,,,,,,,,,,,,,
,,,,,,00066,2023-10-14_18h24.55.788,vbt_B2_day2,2022.2.4,Win32,143.328078,,,,,,,,,,,,,,,,,,,,,,,,,,,down,0,4.0697,,0.279629672,-0.101851852,1,0,0,0.5001,0,18,18,93,1,waarop,images/br_waarop.png,images/cb_waarop.png,0,,,,,,,,,,,,,,,,,,,,,,
,,,,,,00066,2023-10-14_18h24.55.788,vbt_B2_day2,2022.2.4,Win32,143.328078,,,,,,,,,,,,,,,,,,,,,,,,,,,down,0,8.9061,,0.279629672,-0.101851852,1,0,0,0.5555,0,19,19,73,1,volop,images/br_volop.png,images/cb_volop.png,0,,,,,,,,,,,,,,,,,,,,,,
,,,,,,00066,2023-10-14_18h24.55.788,vbt_B2_day2,2022.2.4,Win32,143.328078,,,,,,,,,,,,,,,,,,,,,,,,,,,down,0,8.3866,,0.279629672,-0.101851852,1,0,0,0.5207,0,20,20,34,1,vorm,images/br_vorm.png,images/cb_vorm.png,0,,,,,,,,,,,,,,,,,,,,,,
,,,,,,00066,2023-10-14_18h24.55.788,vbt_B2_day2,2022.2.4,Win32,143.328078,,,,,,,,,,,,,,,,,,,,,,,,,,,down,0,3.8292,,0.279629672,-0.101851852,1,0,0,0.4098,0,21,21,128,1,prikken,images/br_prikken.png,images/cb_prikken.png,0,,,,,,,,,,,,,,,,,,,,,,
,,,,,,00066,2023-10-14_18h24.55.788,vbt_B2_day2,2022.2.4,Win32,143.328078,,,,,,,,,,,,,,,,,,,,,,,,,,,down,0,5.5455,,0.279629672,-0.101851852,1,0,0,0.7363,0,22,22,138,1,akkoord,images/br_akkoord.png,images/cb_akkoord.png,1,akkoord,,,,,,,,,,,,,,,,,,,,,
,,,,,,00066,2023-10-14_18h24.55.788,vbt_B2_day2,2022.2.4,Win32,143.328078,,,,,,,,,,,,,,,,,,,,,,,,,,,down,0,2.9068,,0.279629672,-0.101851852,1,0,0,0.4099,0,23,23,72,1,strak,images/br_strak.png,images/cb_strak.png,0,,,,,,,,,,,,,,,,,,,,,,
,,,,,,00066,2023-10-14_18h24.55.788,vbt_B2_day2,2022.2.4,Win32,143.328078,,,,,,,,,,,,,,,,,,,,,,,,,,,down,0,10.5055,,0.279629672,-0.101851852,1,0,0,0.7013,0,24,24,136,1,waarbij,images/br_waarbij.png,images/cb_waarbij.png,1,waarbij,,,,,,,,,,,,,,,,,,,,,
,,,,,,00066,2023-10-14_18h24.55.788,vbt_B2_day2,2022.2.4,Win32,143.328078,,,,,,,,,,,,,,,,,,,,,,,,,,,down,0,7.7366,,0.279629672,-0.101851852,1,0,0,0.6663,0,25,25,96,1,slagen,images/br_slagen.png,images/cb_slagen.png,1,slagen,,,,,,,,,,,,,,,,,,,,,
,,,,,,00066,2023-10-14_18h24.55.788,vbt_B2_day2,2022.2.4,Win32,143.328078,,,,,,,,,,,,,,,,,,,,,,,,,,,down,0,10.3678,,0.279629672,-0.101851852,1,0,0,0.3822,0,26,26,121,1,twijfel,images/br_twijfel.png,images/cb_twijfel.png,0,,,,,,,,,,,,,,,,,,,,,,
,,,,,,00066,2023-10-14_18h24.55.788,vbt_B2_day2,2022.2.4,Win32,143.328078,,,,,,,,,,,,,,,,,,,,,,,,,,,down,0,6.3827,,0.279629672,-0.101851852,1,0,0,0.5558,0,27,27,98,1,kreeft,images/br_kreeft.png,images/cb_kreeft.png,1,kreeft,,,,,,,,,,,,,,,,,,,,,
,,,,,,00066,2023-10-14_18h24.55.788,vbt_B2_day2,2022.2.4,Win32,143.328078,,,,,,,,,,,,,,,,,,,,,,,,,,,down,0,2.5434,,0.279629672,-0.101851852,1,0,0,0.4511,0,28,28,115,1,kleren,images/br_kleren.png,images/cb_kleren.png,0,,,,,,,,,,,,,,,,,,,,,,
,,,,,,00066,2023-10-14_18h24.55.788,vbt_B2_day2,2022.2.4,Win32,143.328078,,,,,,,,,,,,,,,,,,,,,,,,,,,down,0,13.7601,,0.279629672,-0.101851852,1,0,0,3.118,0,29,29,119,1,liefje,images/br_liefje.png,images/cb_liefje.png,0,,,,,,,,,,,,,,,,,,,,,,
,,,,,,00066,2023-10-14_18h24.55.788,vbt_B2_day2,2022.2.4,Win32,143.328078,,,,,,,,,,,,,,,,,,,,,,,,,,,down,0,5.5375,,0.279629672,-0.101851852,1,0,0,0.5209,0,30,30,3,1,mand,images/br_mand.png,images/cb_mand.png,0,,,,,,,,,,,,,,,,,,,,,,
,,,,,,00066,2023-10-14_18h24.55.788,vbt_B2_day2,2022.2.4,Win32,143.328078,,,,,,,,,,,,,,,,,,,,,,,,,,,down,0,4.7163,,0.279629672,-0.101851852,1,0,0,0.4026,0,31,31,54,1,gebit,images/br_gebit.png,images/cb_gebit.png,0,,,,,,,,,,,,,,,,,,,,,,
,,,,,,00066,2023-10-14_18h24.55.788,vbt_B2_day2,2022.2.4,Win32,143.328078,,,,,,,,,,,,,,,,,,,,,,,,,,,down,0,7.069,,0.279629672,-0.101851852,1,0,0,0.424,0,32,32,135,1,gedicht,images/br_gedicht.png,images/cb_gedicht.png,0,,,,,,,,,,,,,,,,,,,,,,
,,,,,,00066,2023-10-14_18h24.55.788,vbt_B2_day2,2022.2.4,Win32,143.328078,,,,,,,,,,,,,,,,,,,,,,,,,,,down,0,7.7848,,0.279629672,-0.101851852,1,0,0,0.3891,0,33,33,140,1,blijven,images/br_blijven.png,images/cb_blijven.png,0,,,,,,,,,,,,,,,,,,,,,,
,,,,,,00066,2023-10-14_18h24.55.788,vbt_B2_day2,2022.2.4,Win32,143.328078,,,,,,,,,,,,,,,,,,,,,,,,,,,down,0,11.7534,,0.279629672,-0.101851852,1,0,0,0.5071,0,34,34,129,1,verhaal,images/br_verhaal.png,images/cb_verhaal.png,0,,,,,,,,,,,,,,,,,,,,,,
,,,,,,00066,2023-10-14_18h24.55.788,vbt_B2_day2,2022.2.4,Win32,143.328078,,,,,,,,,,,,,,,,,,,,,,,,,,,down,0,2.9585,,0.279629672,-0.101851852,1,0,0,0.9096,0,35,35,4,1,moes,images/br_moes.png,images/cb_moes.png,0,,,,,,,,,,,,,,,,,,,,,,
,,,,,,00066,2023-10-14_18h24.55.788,vbt_B2_day2,2022.2.4,Win32,143.328078,,,,,,,,,,,,,,,,,,,,,,,,,,,down,0,10.9313,,0.279629672,-0.101851852,1,0,0,4.0624,0,36,36,108,1,excuus,images/br_excuus.png,images/cb_excuus.png,0,,,,,,,,,,,,,,,,,,,,,,
,,,,,,00066,2023-10-14_18h24.55.788,vbt_B2_day2,2022.2.4,Win32,143.328078,,,,,,,,,,,,,,,,,,,,,,,,,,,down,0,2.8616,,0.279629672,-0.101851852,1,0,0,0.3605,0,37,37,65,1,parel,images/br_parel.png,images/cb_parel.png,0,,,,,,,,,,,,,,,,,,,,,,
,,,,,,00066,2023-10-14_18h24.55.788,vbt_B2_day2,2022.2.4,Win32,143.328078,,,,,,,,,,,,,,,,,,,,,,,,,,,down,0,7.5417,,0.279629672,-0.101851852,1,0,0,0.465,0,38,38,80,1,kanjer,images/br_kanjer.png,images/cb_kanjer.png,0,,,,,,,,,,,,,,,,,,,,,,
,,,,,,00066,2023-10-14_18h24.55.788,vbt_B2_day2,2022.2.4,Win32,143.328078,,,,,,,,,,,,,,,,,,,,,,,,,,,down,0,12.0113,,0.279629672,-0.101851852,1,0,0,0.4519,0,39,39,182,1,bijkomen,images/br_bijkomen.png,images/cb_bijkomen.png,0,,,,,,,,,,,,,,,,,,,,,,
,,,,,,00066,2023-10-14_18h24.55.788,vbt_B2_day2,2022.2.4,Win32,143.328078,,,,,,,,,,,,,,,,,,,,,,,,,,,down,0,6.5172,,0.279629672,-0.101851852,1,0,0,0.41,0,40,40,75,1,snoep,images/br_snoep.png,images/cb_snoep.png,0,,,,,,,,,,,,,,,,,,,,,,
,,,,,,00066,2023-10-14_18h24.55.788,vbt_B2_day2,2022.2.4,Win32,143.328078,,,,,,,,,,,,,,,,,,,,,,,,,,,down,0,9.4673,,0.279629672,-0.101851852,1,0,0,0.4583,0,41,41,193,1,weeshuis,images/br_weeshuis.png,images/cb_weeshuis.png,0,,,,,,,,,,,,,,,,,,,,,,
,,,,,,00066,2023-10-14_18h24.55.788,vbt_B2_day2,2022.2.4,Win32,143.328078,,,,,,,,,,,,,,,,,,,,,,,,,,,down,0,10.6277,,0.279629672,-0.101851852,1,0,0,0.4236,0,42,42,153,1,vervoer,images/br_vervoer.png,images/cb_vervoer.png,0,,,,,,,,,,,,,,,,,,,,,,
,,,,,,00066,2023-10-14_18h24.55.788,vbt_B2_day2,2022.2.4,Win32,143.328078,,,,,,,,,,,,,,,,,,,,,,,,,,,down,0,4.9718,,0.279629672,-0.101851852,1,0,0,0.3751,0,43,43,79,1,nodig,images/br_nodig.png,images/cb_nodig.png,0,,,,,,,,,,,,,,,,,,,,,,
,,,,,,00066,2023-10-14_18h24.55.788,vbt_B2_day2,2022.2.4,Win32,143.328078,,,,,,,,,,,,,,,,,,,,,,,,,,,down,0,7.1564,,0.279629672,-0.101851852,1,0,0,0.3819,0,44,44,88,1,boeien,images/br_boeien.png,images/cb_boeien.png,0,,,,,,,,,,,,,,,,,,,,,,
,,,,,,00066,2023-10-14_18h24.55.788,vbt_B2_day2,2022.2.4,Win32,143.328078,,,,,,,,,,,,,,,,,,,,,,,,,,,down,0,34.4562,,0.279629672,-0.101851852,1,0,0,0.3821,0,45,45,191,1,opheffen,images/br_opheffen.png,images/cb_opheffen.png,0,,,,,,,,,,,,,,,,,,,,,,
,,,,,,00066,2023-10-14_18h24.55.788,vbt_B2_day2,2022.2.4,Win32,143.328078,,,,,,,,,,,,,,,,,,,,,,,,,,,down,0,3.1855,,0.279629672,-0.101851852,1,0,0,0.3549,0,46,46,47,1,kabel,images/br_kabel.png,images/cb_kabel.png,0,,,,,,,,,,,,,,,,,,,,,,
,,,,,,00066,2023-10-14_18h24.55.788,vbt_B2_day2,2022.2.4,Win32,143.328078,,,,,,,,,,,,,,,,,,,,,,,,,,,down,0,3.9819,,0.279629672,-0.101851852,1,0,0,0.6812,0,47,47,25,1,plek,images/br_plek.png,images/cb_plek.png,0,,,,,,,,,,,,,,,,,,,,,,
,,,,,,00066,2023-10-14_18h24.55.788,vbt_B2_day2,2022.2.4,Win32,143.328078,,,,,,,,,,,,,,,,,,,,,,,,,,,down,0,6.5706,,0.279629672,-0.101851852,1,0,0,1.2638,0,48,48,99,1,koffie,images/br_koffie.png,images/cb_koffie.png,1,koffie,,,,,,,,,,,,,,,,,,,,,
,,,,,,00066,2023-10-14_18h24.55.788,vbt_B2_day2,2022.2.4,Win32,143.328078,,,,,,,,,,,,,,,,,,,,,,,,,,,down,0,6.1252,,0.279629672,-0.101851852,1,0,0,0.3615,0,49,49,180,1,openbaar,images/br_openbaar.png,images/cb_openbaar.png,0,,,,,,,,,,,,,,,,,,,,,,
,,,,,,00066,2023-10-14_18h24.55.788,vbt_B2_day2,2022.2.4,Win32,143.328078,,,,,,,,,,,,,,,,,,,,,,,,,,,down,0,5.3292,,0.279629672,-0.101851852,1,0,0,0.3547,0,50,50,186,1,voorraad,images/br_voorraad.png,images/cb_voorraad.png,0,,,,,,,,,,,,,,,,,,,,,,
,,,,,,00066,2023-10-14_18h24.55.788,vbt_B2_day2,2022.2.4,Win32,143.328078,,,,,,,,,,,,,,,,,,,,,,,,,,,down,0,11.3033,,0.279629672,-0.101851852,1,0,0,0.3825,0,51,51,164,1,anarchie,images/br_anarchie.png,images/cb_anarchie.png,0,,,,,,,,,,,,,,,,,,,,,,
,,,,,,00066,2023-10-14_18h24.55.788,vbt_B2_day2,2022.2.4,Win32,143.328078,,,,,,,,,,,,,,,,,,,,,,,,,,,down,0,2.1092,,0.279629672,-0.101851852,1,0,0,0.4657,0,52,52,103,1,joggen,images/br_joggen.png,images/cb_joggen.png,0,,,,,,,,,,,,,,,,,,,,,,
,,,,,,00066,2023-10-14_18h24.55.788,vbt_B2_day2,2022.2.4,Win32,143.328078,,,,,,,,,,,,,,,,,,,,,,,,,,,down,0,12.508,,0.279629672,-0.101851852,1,0,0,0.4669,0,53,53,178,1,huisdier,images/br_huisdier.png,images/cb_huisdier.png,1,huisdier,,,,,,,,,,,,,,,,,,,,,
,,,,,,00066,2023-10-14_18h24.55.788,vbt_B2_day2,2022.2.4,Win32,143.328078,,,,,,,,,,,,,,,,,,,,,,,,,,,down,0,9.2886,,0.279629672,-0.101851852,1,0,0,0.4723,0,54,54,144,1,eetlust,images/br_eetlust.png,images/cb_eetlust.png,0,,,,,,,,,,,,,,,,,,,,,,
,,,,,,00066,2023-10-14_18h24.55.788,vbt_B2_day2,2022.2.4,Win32,143.328078,,,,,,,,,,,,,,,,,,,,,,,,,,,down,0,7.0141,,0.279629672,-0.101851852,1,0,0,2.5208,0,55,55,23,1,zout,images/br_zout.png,images/cb_zout.png,0,,,,,,,,,,,,,,,,,,,,,,
,,,,,,00066,2023-10-14_18h24.55.788,vbt_B2_day2,2022.2.4,Win32,143.328078,,,,,,,,,,,,,,,,,,,,,,,,,,,down,0,6.4204,,0.279629672,-0.101851852,1,0,0,0.3892,0,56,56,68,1,schat,images/br_schat.png,images/cb_schat.png,0,,,,,,,,,,,,,,,,,,,,,,
,,,,,,00066,2023-10-14_18h24.55.788,vbt_B2_day2,2022.2.4,Win32,143.328078,,,,,,,,,,,,,,,,,,,,,,,,,,,down,0,4.6569,,0.279629672,-0.101851852,1,0,0,0.5349,0,57,57,64,1,wegen,images/br_wegen.png,images/cb_wegen.png,0,,,,,,,,,,,,,,,,,,,,,,
,,,,,,00066,2023-10-14_18h24.55.788,vbt_B2_day2,2022.2.4,Win32,143.328078,,,,,,,,,,,,,,,,,,,,,,,,,,,down,0,7.5636,,0.279629672,-0.101851852,1,0,0,0.3261,0,58,58,168,1,bisschop,images/br_bisschop.png,images/cb_bisschop.png,0,,,,,,,,,,,,,,,,,,,,,,
,,,,,,00066,2023-10-14_18h24.55.788,vbt_B2_day2,2022.2.4,Win32,143.328078,,,,,,,,,,,,,,,,,,,,,,,,,,,down,0,8.0074,,0.279629672,-0.101851852,1,0,0,0.4309,0,59,59,142,1,snuiven,images/br_snuiven.png,images/cb_snuiven.png,0,,,,,,,,,,,,,,,,,,,,,,
,,,,,,00066,2023-10-14_18h24.55.788,vbt_B2_day2,2022.2.4,Win32,143.328078,,,,,,,,,,,,,,,,,,,,,,,,,,,down,0,1.493,,0.279629672,-0.101851852,1,0,0,0.4789,0,60,60,17,1,taal,images/br_taal.png,images/cb_taal.png,1,taal,,,,,,,,,,,,,,,,,,,,,
,,,,,,00066,2023-10-14_18h24.55.788,vbt_B2_day2,2022.2.4,Win32,143.328078,,,,,,,,,,,,,,,,,,,,,,,,,,,down,0,29.5857,,0.279629672,-0.101851852,1,0,0,0.3887,0,61,61,187,1,opkijken,images/br_opkijken.png,images/cb_opkijken.png,0,,,,,,,,,,,,,,,,,,,,,,
,,,,,,00066,2023-10-14_18h24.55.788,vbt_B2_day2,2022.2.4,Win32,143.328078,,,,,,,,,,,,,,,,,,,,,,,,,,,down,0,1.8823,,0.279629672,-0.101851852,1,0,0,0.3686,0,62,62,12,1,kust,images/br_kust.png,images/cb_kust.png,0,,,,,,,,,,,,,,,,,,,,,,
,,,,,,00066,2023-10-14_18h24.55.788,vbt_B2_day2,2022.2.4,Win32,143.328078,,,,,,,,,,,,,,,,,,,,,,,,,,,down,0,3.8441,,0.279629672,-0.101851852,1,0,0,0.327,0,63,63,69,1,waken,images/br_waken.png,images/cb_waken.png,0,,,,,,,,,,,,,,,,,,,,,,
,,,,,,00066,2023-10-14_18h24.55.788,vbt_B2_day2,2022.2.4,Win32,143.328078,,,,,,,,,,,,,,,,,,,,,,,,,,,down,0,6.4233,,0.279629672,-0.101851852,1,0,0,0.3012,0,64,64,160,1,daarheen,images/br_daarheen.png,images/cb_daarheen.png,0,,,,,,,,,,,,,,,,,,,,,,
,,,,,,00066,2023-10-14_18h24.55.788,vbt_B2_day2,2022.2.4,Win32,143.328078,,,,,,,,,,,,,,,,,,,,,,,,,,,down,0,1.1559,,0.279629672,-0.101851852,1,0,0,0.382,0,65,65,27,1,dans,images/br_dans.png,images/cb_dans.png,0,,,,,,,,,,,,,,,,,,,,,,
,,,,,,00066,2023-10-14_18h24.55.788,vbt_B2_day2,2022.2.4,Win32,143.328078,,,,,,,,,,,,,,,,,,,,,,,,,,,down,0,3.2796,,0.279629672,-0.101851852,1,0,0,0.3055,0,66,66,109,1,totaal,images/br_totaal.png,images/cb_totaal.png,0,,,,,,,,,,,,,,,,,,,,,,
,,,,,,00066,2023-10-14_18h24.55.788,vbt_B2_day2,2022.2.4,Win32,143.328078,,,,,,,,,,,,,,,,,,,,,,,,,,,down,0,5.2923,,0.279629672,-0.101851852,1,0,0,0.3336,0,67,67,49,1,laken,images/br_laken.png,images/cb_laken.png,0,,,,,,,,,,,,,,,,,,,,,,
,,,,,,00066,2023-10-14_18h24.55.788,vbt_B2_day2,2022.2.4,Win32,143.328078,,,,,,,,,,,,,,,,,,,,,,,,,,,down,0,15.0341,,0.279629672,-0.101851852,1,0,0,4.8538,0,68,68,51,1,samen,images/br_samen.png,images/cb_samen.png,0,,,,,,,,,,,,,,,,,,,,,,
,,,,,,00066,2023-10-14_18h24.55.788,vbt_B2_day2,2022.2.4,Win32,143.328078,,,,,,,,,,,,,,,,,,,,,,,,,,,down,0,1.4341,,0.279629672,-0.101851852,1,0,0,0.3336,0,69,69,113,1,koppen,images/br_koppen.png,images/cb_koppen.png,0,,,,,,,,,,,,,,,,,,,,,,
,,,,,,00066,2023-10-14_18h24.55.788,vbt_B2_day2,2022.2.4,Win32,143.328078,,,,,,,,,,,,,,,,,,,,,,,,,,,down,0,12.8989,,0.279629672,-0.101851852,1,0,0,0.4792,0,70,70,145,1,invloed,images/br_invloed.png,images/cb_invloed.png,0,,,,,,,,,,,,,,,,,,,,,,
,,,,,,00066,2023-10-14_18h24.55.788,vbt_B2_day2,2022.2.4,Win32,143.328078,,,,,,,,,,,,,,,,,,,,,,,,,,,down,0,12.822,,0.279629672,-0.101851852,1,0,0,0.3125,0,71,71,94,1,oceaan,images/br_oceaan.png,images/cb_oceaan.png,0,,,,,,,,,,,,,,,,,,,,,,
,,,,,,00066,2023-10-14_18h24.55.788,vbt_B2_day2,2022.2.4,Win32,143.328078,,,,,,,,,,,,,,,,,,,,,,,,,,,down,0,9.1879,,0.279629672,-0.101851852,1,0,0,0.3884,0,72,72,197,1,spanning,images/br_spanning.png,images/cb_spanning.png,0,,,,,,,,,,,,,,,,,,,,,,
,,,,,,00066,2023-10-14_18h24.55.788,vbt_B2_day2,2022.2.4,Win32,143.328078,,,,,,,,,,,,,,,,,,,,,,,,,,,down,0,19.0286,,0.279629672,-0.101851852,1,0,0,5.1809,0,73,73,77,1,woede,images/br_woede.png,images/cb_woede.png,0,,,,,,,,,,,,,,,,,,,,,,
,,,,,,00066,2023-10-14_18h24.55.788,vbt_B2_day2,2022.2.4,Win32,143.328078,,,,,,,,,,,,,,,,,,,,,,,,,,,down,0,9.302,,0.279629672,-0.101851852,1,0,0,0.3125,0,74,74,122,1,waarvan,images/br_waarvan.png,images/cb_waarvan.png,0,,,,,,,,,,,,,,,,,,,,,,
,,,,,,00066,2023-10-14_18h24.55.788,vbt_B2_day2,2022.2.4,Win32,143.328078,,,,,,,,,,,,,,,,,,,,,,,,,,,down,0,8.003,,0.279629672,-0.101851852,1,0,0,0.4653,0,75,75,114,1,vullen,images/br_vullen.png,images/cb_vullen.png,0,,,,,,,,,,,,,,,,,,,,,,
,,,,,,00066,2023-10-14_18h24.55.788,vbt_B2_day2,2022.2.4,Win32,143.328078,,,,,,,,,,,,,,,,,,,,,,,,,,,down,0,0.2302,,0.279629672,-0.101851852,1,0,0,0.3402,0,76,76,29,1,baas,images/br_baas.png,images/cb_baas.png,0,,,,,,,,,,,,,,,,,,,,,,
,,,,,,00066,2023-10-14_18h24.55.788,vbt_B2_day2,2022.2.4,Win32,143.328078,,,,,,,,,,,,,,,,,,,,,,,,,,,down,0,12.7812,,0.279629672,-0.101851852,1,0,0,0.4725,0,77,77,195,1,middelen,images/br_middelen.png,images/cb_middelen.png,0,,,,,,,,,,,,,,,,,,,,,,
,,,,,,00066,2023-10-14_18h24.55.788,vbt_B2_day2,2022.2.4,Win32,143.328078,,,,,,,,,,,,,,,,,,,,,,,,,,,down,0,5.0019,,0.279629672,-0.101851852,1,0,0,0.3197,0,78,78,83,1,mening,images/br_mening.png,images/cb_mening.png,0,,,,,,,,,,,,,,,,,,,,,,
,,,,,,00066,2023-10-14_18h24.55.788,vbt_B2_day2,2022.2.4,Win32,143.328078,,,,,,,,,,,,,,,,,,,,,,,,,,,down,0,9.28,,0.279629672,-0.101851852,1,0,0,0.438,0,79,79,43,1,klauw,images/br_klauw.png,images/cb_klauw.png,0,,,,,,,,,,,,,,,,,,,,,,
,,,,,,00066,2023-10-14_18h24.55.788,vbt_B2_day2,2022.2.4,Win32,143.328078,,,,,,,,,,,,,,,,,,,,,,,,,,,down,0,2.0863,,0.279629672,-0.101851852,1,0,0,0.3887,0,80,80,7,1,geld,images/br_geld.png,images/cb_geld.png,0,,,,,,,,,,,,,,,,,,,,,,
,,,,,,00066,2023-10-14_18h24.55.788,vbt_B2_day2,2022.2.4,Win32,143.328078,,,,,,,,,,,,,,,,,,,,,,,,,,,down,0,7.9407,,0.279629672,-0.101851852,1,0,0,0.3888,0,81,81,133,1,seizoen,images/br_seizoen.png,images/cb_seizoen.png,0,,,,,,,,,,,,,,,,,,,,,,
,,,,,,00066,2023-10-14_18h24.55.788,vbt_B2_day2,2022.2.4,Win32,143.328078,,,,,,,,,,,,,,,,,,,,,,,,,,,down,0,7.9399,,0.279629672,-0.101851852,1,0,0,0.3402,0,82,82,30,1,uien,images/br_uien.png,images/cb_uien.png,0,,,,,,,,,,,,,,,,,,,,,,
,,,,,,00066,2023-10-14_18h24.55.788,vbt_B2_day2,2022.2.4,Win32,143.328078,,,,,,,,,,,,,,,,,,,,,,,,,,,down,0,3.2946,,0.279629672,-0.101851852,1,0,0,0.3125,0,83,83,124,1,bloeien,images/br_bloeien.png,images/cb_bloeien.png,0,,,,,,,,,,,,,,,,,,,,,,
,,,,,,00066,2023-10-14_18h24.55.788,vbt_B2_day2,2022.2.4,Win32,143.328078,,,,,,,,,,,,,,,,,,,,,,,,,,,down,0,4.8405,,0.279629672,-0.101851852,1,0,0,0.4516,0,84,84,63,1,flirt,images/br_flirt.png,images/cb_flirt.png,0,,,,,,,,,,,,,,,,,,,,,,
,,,,,,00066,2023-10-14_18h24.55.788,vbt_B2_day2,2022.2.4,Win32,143.328078,,,,,,,,,,,,,,,,,,,,,,,,,,,down,0,17.9247,,0.279629672,-0.101851852,1,0,0,0.403,0,85,85,157,1,uitlaat,images/br_uitlaat.png,images/cb_uitlaat.png,0,,,,,,,,,,,,,,,,,,,,,,
,,,,,,00066,2023-10-14_18h24.55.788,vbt_B2_day2,2022.2.4,Win32,143.328078,,,,,,,,,,,,,,,,,,,,,,,,,,,down,0,3.8902,,0.279629672,-0.101851852,1,0,0,0.4517,0,86,86,189,1,aanraden,images/br_aanraden.png,images/cb_aanraden.png,0,,,,,,,,,,,,,,,,,,,,,,
,,,,,,00066,2023-10-14_18h24.55.788,vbt_B2_day2,2022.2.4,Win32,143.328078,,,,,,,,,,,,,,,,,,,,,,,,,,,down,0,6.3058,,0.279629672,-0.101851852,1,0,0,0.3473,0,87,87,66,1,lever,images/br_lever.png,images/cb_lever.png,0,,,,,,,,,,,,,,,,,,,,,,
,,,,,,00066,2023-10-14_18h24.55.788,vbt_B2_day2,2022.2.4,Win32,143.328078,,,,,,,,,,,,,,,,,,,,,,,,,,,down,0,3.4443,,0.27870369,-0.101851852,1,0,0,0.896,0,88,88,198,1,bedoelen,images/br_bedoelen.png,images/cb_bedoelen.png,0,,,,,,,,,,,,,,,,,,,,,,
,,,,,,00066,2023-10-14_18h24.55.788,vbt_B2_day2,2022.2.4,Win32,143.328078,,,,,,,,,,,,,,,,,,,,,,,,,,,down,0,5.301,,0.27870369,-0.101851852,1,0,0,0.3122,0,89,89,40,1,schep,images/br_schep.png,images/cb_schep.png,0,,,,,,,,,,,,,,,,,,,,,,
,,,,,,00066,2023-10-14_18h24.55.788,vbt_B2_day2,2022.2.4,Win32,143.328078,,,,,,,,,,,,,,,,,,,,,,,,,,,down,0,13.0527,,0.27870369,-0.101851852,1,0,0,0.8819,0,90,90,196,1,nakijken,images/br_nakijken.png,images/cb_nakijken.png,0,,,,,,,,,,,,,,,,,,,,,,
,,,,,,00066,2023-10-14_18h24.55.788,vbt_B2_day2,2022.2.4,Win32,143.328078,,,,,,,,,,,,,,,,,,,,,,,,,,,down,0,2.6399,,0.27870369,-0.101851852,1,0,0,0.3616,0,91,91,132,1,grappen,images/br_grappen.png,images/cb_grappen.png,0,,,,,,,,,,,,,,,,,,,,,,
,,,,,,00066,2023-10-14_18h24.55.788,vbt_B2_day2,2022.2.4,Win32,143.328078,,,,,,,,,,,,,,,,,,,,,,,,,,,down,0,3.9001,,0.27870369,-0.101851852,1,0,0,0.7569,0,92,92,16,1,ziek,images/br_ziek.png,images/cb_ziek.png,1,ziek,,,,,,,,,,,,,,,,,,,,,
,,,,,,00066,2023-10-14_18h24.55.788,vbt_B2_day2,2022.2.4,Win32,143.328078,,,,,,,,,,,,,,,,,,,,,,,,,,,down,0,5.7509,,0.27870369,-0.101851852,1,0,0,0.3749,0,93,93,86,1,woning,images/br_woning.png,images/cb_woning.png,0,,,,,,,,,,,,,,,,,,,,,,
,,,,,,00066,2023-10-14_18h24.55.788,vbt_B2_day2,2022.2.4,Win32,143.328078,,,,,,,,,,,,,,,,,,,,,,,,,,,down,0,2.6234,,0.27870369,-0.101851852,1,0,0,0.403,0,94,94,8,1,knie,images/br_knie.png,images/cb_knie.png,0,,,,,,,,,,,,,,,,,,,,,,
,,,,,,00066,2023-10-14_18h24.55.788,vbt_B2_day2,2022.2.4,Win32,143.328078,,,,,,,,,,,,,,,,,,,,,,,,,,,down,0,5.5908,,0.253703718,-0.110185199,1,0,0,2.9159,0,95,95,14,1,rijp,images/br_rijp.png,images/cb_rijp.png,0,,,,,,,,,,,,,,,,,,,,,,
,,,,,,00066,2023-10-14_18h24.55.788,vbt_B2_day2,2022.2.4,Win32,143.328078,,,,,,,,,,,,,,,,,,,,,,,,,,,down,0,9.3852,,0.253703718,-0.110185199,1,0,0,0.4105,0,96,96,107,1,maling,images/br_maling.png,images/cb_maling.png,0,,,,,,,,,,,,,,,,,,,,,,
,,,,,,00066,2023-10-14_18h24.55.788,vbt_B2_day2,2022.2.4,Win32,143.328078,,,,,,,,,,,,,,,,,,,,,,,,,,,down,0,15.3341,,0.253703718,-0.110185199,1,0,0,0.3953,0,97,97,199,1,beseffen,images/br_beseffen.png,images/cb_beseffen.png,0,,,,,,,,,,,,,,,,,,,,,,
,,,,,,00066,2023-10-14_18h24.55.788,vbt_B2_day2,2022.2.4,Win32,143.328078,,,,,,,,,,,,,,,,,,,,,,,,,,,down,0,10.3685,,0.253703718,-0.110185199,1,0,0,0.4791,0,98,98,24,1,jurk,images/br_jurk.png,images/cb_jurk.png,0,,,,,,,,,,,,,,,,,,,,,,
,,,,,,00066,2023-10-14_18h24.55.788,vbt_B2_day2,2022.2.4,Win32,143.328078,,,,,,,,,,,,,,,,,,,,,,,,,,,down,0,0.6335,,0.253703718,-0.110185199,1,0,0,0.3829,0,99,99,38,1,baai,images/br_baai.png,images/cb_baai.png,0,,,,,,,,,,,,,,,,,,,,,,
,,,,,,00066,2023-10-14_18h24.55.788,vbt_B2_day2,2022.2.4,Win32,143.328078,,,,,,,,,,,,,,,,,,,,,,,,,,,down,0,6.847,,0.253703718,-0.110185199,1,0,0,0.7354,0,100,100,139,1,stiekem,images/br_stiekem.png,images/cb_stiekem.png,1,stiekem,,,,,,,,,,,,,,,,,,,,,
,,,,,,00066,2023-10-14_18h24.55.788,vbt_B2_day2,2022.2.4,Win32,143.328078,,,,,,,,,,,,,,,,,,,,,,,,,,,down,0,17.1142,,0.253703718,-0.110185199,1,0,0,0.5074,0,101,101,104,1,zweven,images/br_zweven.png,images/cb_zweven.png,0,,,,,,,,,,,,,,,,,,,,,,
,,,,,,00066,2023-10-14_18h24.55.788,vbt_B2_day2,2022.2.4,Win32,143.328078,,,,,,,,,,,,,,,,,,,,,,,,,,,down,0,2.3961,,0.253703718,-0.110185199,1,0,0,0.3611,0,102,102,1,1,zaal,images/br_zaal.png,images/cb_zaal.png,0,,,,,,,,,,,,,,,,,,,,,,
,,,,,,00066,2023-10-14_18h24.55.788,vbt_B2_day2,2022.2.4,Win32,143.328078,,,,,,,,,,,,,,,,,,,,,,,,,,,down,0,11.3199,,0.253703718,-0.110185199,1,0,0,0.3194,0,103,103,76,1,afval,images/br_afval.png,images/cb_afval.png,0,,,,,,,,,,,,,,,,,,,,,,
,,,,,,00066,2023-10-14_18h24.55.788,vbt_B2_day2,2022.2.4,Win32,143.328078,,,,,,,,,,,,,,,,,,,,,,,,,,,down,0,9.6192,,0.253703718,-0.110185199,1,0,0,0.3341,0,104,104,162,1,uitdelen,images/br_uitdelen.png,images/cb_uitdelen.png,0,,,,,,,,,,,,,,,,,,,,,,
,,,,,,00066,2023-10-14_18h24.55.788,vbt_B2_day2,2022.2.4,Win32,143.328078,,,,,,,,,,,,,,,,,,,,,,,,,,,down,0,4.5767,,0.253703718,-0.110185199,1,0,0,0.3615,0,105,105,60,1,jasje,images/br_jasje.png,images/cb_jasje.png,0,,,,,,,,,,,,,,,,,,,,,,
,,,,,,00066,2023-10-14_18h24.55.788,vbt_B2_day2,2022.2.4,Win32,143.328078,,,,,,,,,,,,,,,,,,,,,,,,,,,down,0,10.5077,,0.253703718,-0.110185199,1,0,0,0.3131,0,106,106,85,1,heilig,images/br_heilig.png,images/cb_heilig.png,0,,,,,,,,,,,,,,,,,,,,,,
,,,,,,00066,2023-10-14_18h24.55.788,vbt_B2_day2,2022.2.4,Win32,143.328078,,,,,,,,,,,,,,,,,,,,,,,,,,,down,0,8.6598,,0.253703718,-0.110185199,1,0,0,0.3332,0,107,107,181,1,toegeven,images/br_toegeven.png,images/cb_toegeven.png,0,,,,,,,,,,,,,,,,,,,,,,
,,,,,,00066,2023-10-14_18h24.55.788,vbt_B2_day2,2022.2.4,Win32,143.328078,,,,,,,,,,,,,,,,,,,,,,,,,,,down,0,3.7645,,0.253703718,-0.110185199,1,0,0,0.3402,0,108,108,188,1,strekken,images/br_strekken.png,images/cb_strekken.png,0,,,,,,,,,,,,,,,,,,,,,,
,,,,,,00066,2023-10-14_18h24.55.788,vbt_B2_day2,2022.2.4,Win32,143.328078,,,,,,,,,,,,,,,,,,,,,,,,,,,down,0,4.1635,,0.253703718,-0.110185199,1,0,0,0.4934,0,109,109,97,1,loyaal,images/br_loyaal.png,images/cb_loyaal.png,1,loyaal,,,,,,,,,,,,,,,,,,,,,
,,,,,,00066,2023-10-14_18h24.55.788,vbt_B2_day2,2022.2.4,Win32,143.328078,,,,,,,,,,,,,,,,,,,,,,,,,,,down,0,3.7676,,0.253703718,-0.110185199,1,0,0,0.2847,0,110,110,126,1,kasteel,images/br_kasteel.png,images/cb_kasteel.png,0,,,,,,,,,,,,,,,,,,,,,,
,,,,,,00066,2023-10-14_18h24.55.788,vbt_B2_day2,2022.2.4,Win32,143.328078,,,,,,,,,,,,,,,,,,,,,,,,,,,down,0,15.1971,,0.253703718,-0.110185199,1,0,0,0.2988,0,111,111,190,1,goedkoop,images/br_goedkoop.png,images/cb_goedkoop.png,0,,,,,,,,,,,,,,,,,,,,,,
,,,,,,00066,2023-10-14_18h24.55.788,vbt_B2_day2,2022.2.4,Win32,143.328078,,,,,,,,,,,,,,,,,,,,,,,,,,,down,0,9.3417,,0.253703718,-0.110185199,1,0,0,0.3963,0,112,112,111,1,ticket,images/br_ticket.png,images/cb_ticket.png,0,,,,,,,,,,,,,,,,,,,,,,
,,,,,,00066,2023-10-14_18h24.55.788,vbt_B2_day2,2022.2.4,Win32,143.328078,,,,,,,,,,,,,,,,,,,,,,,,,,,down,0,6.8162,,0.253703718,-0.110185199,1,0,0,0.3959,0,113,113,183,1,getuigen,images/br_getuigen.png,images/cb_getuigen.png,0,,,,,,,,,,,,,,,,,,,,,,
,,,,,,00066,2023-10-14_18h24.55.788,vbt_B2_day2,2022.2.4,Win32,143.328078,,,,,,,,,,,,,,,,,,,,,,,,,,,down,0,4.7037,,0.253703718,-0.110185199,1,0,0,0.5277,0,114,114,58,1,tekst,images/br_tekst.png,images/cb_tekst.png,1,tekst,,,,,,,,,,,,,,,,,,,,,
,,,,,,00066,2023-10-14_18h24.55.788,vbt_B2_day2,2022.2.4,Win32,143.328078,,,,,,,,,,,,,,,,,,,,,,,,,,,down,0,5.6049,,0.253703718,-0.110185199,1,0,0,5.0416,0,115,115,116,1,besmet,images/br_besmet.png,images/cb_besmet.png,0,,,,,,,,,,,,,,,,,,,,,,
,,,,,,00066,2023-10-14_18h24.55.788,vbt_B2_day2,2022.2.4,Win32,143.328078,,,,,,,,,,,,,,,,,,,,,,,,,,,down,0,6.9387,,0.253703718,-0.110185199,1,0,0,0.3192,0,116,116,146,1,opkomen,images/br_opkomen.png,images/cb_opkomen.png,0,,,,,,,,,,,,,,,,,,,,,,
,,,,,,00066,2023-10-14_18h24.55.788,vbt_B2_day2,2022.2.4,Win32,143.328078,,,,,,,,,,,,,,,,,,,,,,,,,,,down,0,4.2437,,0.253703718,-0.110185199,1,0,0,0.4516,0,117,117,105,1,wijlen,images/br_wijlen.png,images/cb_wijlen.png,0,,,,,,,,,,,,,,,,,,,,,,
,,,,,,00066,2023-10-14_18h24.55.788,vbt_B2_day2,2022.2.4,Win32,143.328078,,,,,,,,,,,,,,,,,,,,,,,,,,,down,0,5.476,,0.253703718,-0.110185199,1,0,0,0.3478,0,118,118,101,1,staren,images/br_staren.png,images/cb_staren.png,0,,,,,,,,,,,,,,,,,,,,,,
,,,,,,00066,2023-10-14_18h24.55.788,vbt_B2_day2,2022.2.4,Win32,143.328078,,,,,,,,,,,,,,,,,,,,,,,,,,,down,0,8.0847,,0.253703718,-0.110185199,1,0,0,0.3821,0,119,119,163,1,schuilen,images/br_schuilen.png,images/cb_schuilen.png,0,,,,,,,,,,,,,,,,,,,,,,
,,,,,,00066,2023-10-14_18h24.55.788,vbt_B2_day2,2022.2.4,Win32,143.328078,,,,,,,,,,,,,,,,,,,,,,,,,,,down,0,3.3686,,0.253703718,-0.110185199,1,0,0,0.5979,0,120,120,127,1,doodmoe,images/br_doodmoe.png,images/cb_doodmoe.png,0,,,,,,,,,,,,,,,,,,,,,,
,,,,,,00066,2023-10-14_18h24.55.788,vbt_B2_day2,2022.2.4,Win32,143.328078,,,,,,,,,,,,,,,,,,,,,,,,,,,down,0,4.3161,,0.253703718,-0.110185199,1,0,0,0.486,0,121,121,52,1,wagon,images/br_wagon.png,images/cb_wagon.png,0,,,,,,,,,,,,,,,,,,,,,,
,,,,,,00066,2023-10-14_18h24.55.788,vbt_B2_day2,2022.2.4,Win32,143.328078,,,,,,,,,,,,,,,,,,,,,,,,,,,down,0,2.9143,,0.253703718,-0.110185199,1,0,0,7.0555,0,122,122,26,1,leuk,images/br_leuk.png,images/cb_leuk.png,0,,,,,,,,,,,,,,,,,,,,,,
,,,,,,00066,2023-10-14_18h24.55.788,vbt_B2_day2,2022.2.4,Win32,143.328078,,,,,,,,,,,,,,,,,,,,,,,,,,,down,0,0.5326,,0.253703718,-0.110185199,1,0,0,0.3774,0,123,123,13,1,kaal,images/br_kaal.png,images/cb_kaal.png,0,,,,,,,,,,,,,,,,,,,,,,
,,,,,,00066,2023-10-14_18h24.55.788,vbt_B2_day2,2022.2.4,Win32,143.328078,,,,,,,,,,,,,,,,,,,,,,,,,,,down,0,19.6618,,0.253703718,-0.110185199,1,0,0,0.4032,0,124,124,62,1,knaap,images/br_knaap.png,images/cb_knaap.png,0,,,,,,,,,,,,,,,,,,,,,,
,,,,,,00066,2023-10-14_18h24.55.788,vbt_B2_day2,2022.2.4,Win32,143.328078,,,,,,,,,,,,,,,,,,,,,,,,,,,down,0,5.3754,,0.253703718,-0.110185199,1,0,0,0.591,0,125,125,167,1,eenhoorn,images/br_eenhoorn.png,images/cb_eenhoorn.png,0,,,,,,,,,,,,,,,,,,,,,,
,,,,,,00066,2023-10-14_18h24.55.788,vbt_B2_day2,2022.2.4,Win32,143.328078,,,,,,,,,,,,,,,,,,,,,,,,,,,down,0,7.7044,,0.253703718,-0.110185199,1,0,0,0.3749,0,126,126,44,1,flits,images/br_flits.png,images/cb_flits.png,0,,,,,,,,,,,,,,,,,,,,,,
,,,,,,00066,2023-10-14_18h24.55.788,vbt_B2_day2,2022.2.4,Win32,143.328078,,,,,,,,,,,,,,,,,,,,,,,,,,,down,0,7.5627,,0.253703718,-0.110185199,1,0,0,0.9374,0,127,127,192,1,schaamte,images/br_schaamte.png,images/cb_schaamte.png,0,,,,,,,,,,,,,,,,,,,,,,
,,,,,,00066,2023-10-14_18h24.55.788,vbt_B2_day2,2022.2.4,Win32,143.328078,,,,,,,,,,,,,,,,,,,,,,,,,,,down,0,3.2704,,0.253703718,-0.110185199,1,0,0,0.4054,0,128,128,9,1,hier,images/br_hier.png,images/cb_hier.png,0,,,,,,,,,,,,,,,,,,,,,,
,,,,,,00066,2023-10-14_18h24.55.788,vbt_B2_day2,2022.2.4,Win32,143.328078,,,,,,,,,,,,,,,,,,,,,,,,,,,down,0,9.493,,0.253703718,-0.110185199,1,0,0,0.4999,0,129,129,91,1,gezond,images/br_gezond.png,images/cb_gezond.png,0,,,,,,,,,,,,,,,,,,,,,,
,,,,,,00066,2023-10-14_18h24.55.788,vbt_B2_day2,2022.2.4,Win32,143.328078,,,,,,,,,,,,,,,,,,,,,,,,,,,down,0,3.709,,0.253703718,-0.110185199,1,0,0,0.3295,0,130,130,102,1,legaal,images/br_legaal.png,images/cb_legaal.png,0,,,,,,,,,,,,,,,,,,,,,,
,,,,,,00066,2023-10-14_18h24.55.788,vbt_B2_day2,2022.2.4,Win32,143.328078,,,,,,,,,,,,,,,,,,,,,,,,,,,down,0,4.1872,,0.253703718,-0.110185199,1,0,0,0.3335,0,131,131,106,1,zingen,images/br_zingen.png,images/cb_zingen.png,0,,,,,,,,,,,,,,,,,,,,,,
,,,,,,00066,2023-10-14_18h24.55.788,vbt_B2_day2,2022.2.4,Win32,143.328078,,,,,,,,,,,,,,,,,,,,,,,,,,,down,0,0.7711,,0.253703718,-0.110185199,1,0,0,0.4309,0,132,132,22,1,stof,images/br_stof.png,images/cb_stof.png,0,,,,,,,,,,,,,,,,,,,,,,
,,,,,,00066,2023-10-14_18h24.55.788,vbt_B2_day2,2022.2.4,Win32,143.328078,,,,,,,,,,,,,,,,,,,,,,,,,,,down,0,6.7036,,0.253703718,-0.110185199,1,0,0,0.3267,0,133,133,194,1,driemaal,images/br_driemaal.png,images/cb_driemaal.png,0,,,,,,,,,,,,,,,,,,,,,,
,,,,,,00066,2023-10-14_18h24.55.788,vbt_B2_day2,2022.2.4,Win32,143.328078,,,,,,,,,,,,,,,,,,,,,,,,,,,down,0,2.3625,,0.253703718,-0.110185199,1,0,0,0.4169,0,134,134,120,1,klimmen,images/br_klimmen.png,images/cb_klimmen.png,0,,,,,,,,,,,,,,,,,,,,,,
,,,,,,00066,2023-10-14_18h24.55.788,vbt_B2_day2,2022.2.4,Win32,143.328078,,,,,,,,,,,,,,,,,,,,,,,,,,,down,0,13.1804,,0.253703718,-0.110185199,1,0,0,0.3194,0,135,135,150,1,gegeven,images/br_gegeven.png,images/cb_gegeven.png,0,,,,,,,,,,,,,,,,,,,,,,
,,,,,,00066,2023-10-14_18h24.55.788,vbt_B2_day2,2022.2.4,Win32,143.328078,,,,,,,,,,,,,,,,,,,,,,,,,,,down,0,6.1644,,0.253703718,-0.110185199,1,0,0,0.3263,0,136,136,159,1,sufferd,images/br_sufferd.png,images/cb_sufferd.png,0,,,,,,,,,,,,,,,,,,,,,,
,,,,,,00066,2023-10-14_18h24.55.788,vbt_B2_day2,2022.2.4,Win32,143.328078,,,,,,,,,,,,,,,,,,,,,,,,,,,down,0,5.0665,,0.253703718,-0.110185199,1,0,0,0.3684,0,137,137,82,1,muziek,images/br_muziek.png,images/cb_muziek.png,0,,,,,,,,,,,,,,,,,,,,,,
,,,,,,00066,2023-10-14_18h24.55.788,vbt_B2_day2,2022.2.4,Win32,143.328078,,,,,,,,,,,,,,,,,,,,,,,,,,,down,0,6.358,,0.253703718,-0.110185199,1,0,0,0.2989,0,138,138,95,1,vreten,images/br_vreten.png,images/cb_vreten.png,0,,,,,,,,,,,,,,,,,,,,,,
,,,,,,00066,2023-10-14_18h24.55.788,vbt_B2_day2,2022.2.4,Win32,143.328078,,,,,,,,,,,,,,,,,,,,,,,,,,,down,0,3.8313,,0.253703718,-0.110185199,1,0,0,0.8562,0,139,139,174,1,stemming,images/br_stemming.png,images/cb_stemming.png,0,,,,,,,,,,,,,,,,,,,,,,
,,,,,,00066,2023-10-14_18h24.55.788,vbt_B2_day2,2022.2.4,Win32,143.328078,,,,,,,,,,,,,,,,,,,,,,,,,,,down,0,1.9103,,0.253703718,-0.110185199,1,0,0,0.4026,0,140,140,53,1,baron,images/br_baron.png,images/cb_baron.png,0,,,,,,,,,,,,,,,,,,,,,,
,,,,,,00066,2023-10-14_18h24.55.788,vbt_B2_day2,2022.2.4,Win32,143.328078,,,,,,,,,,,,,,,,,,,,,,,,,,,down,0,5.7643,,0.253703718,-0.110185199,1,0,0,0.3176,0,141,141,184,1,aandelen,images/br_aandelen.png,images/cb_aandelen.png,0,,,,,,,,,,,,,,,,,,,,,,
,,,,,,00066,2023-10-14_18h24.55.788,vbt_B2_day2,2022.2.4,Win32,143.328078,,,,,,,,,,,,,,,,,,,,,,,,,,,down,0,4.5574,,0.253703718,-0.110185199,1,0,0,0.395,0,142,142,156,1,rechten,images/br_rechten.png,images/cb_rechten.png,0,,,,,,,,,,,,,,,,,,,,,,
,,,,,,00066,2023-10-14_18h24.55.788,vbt_B2_day2,2022.2.4,Win32,143.328078,,,,,,,,,,,,,,,,,,,,,,,,,,,down,0,1.3081,,0.253703718,-0.110185199,1,0,0,0.4723,0,143,143,89,1,slapen,images/br_slapen.png,images/cb_slapen.png,0,,,,,,,,,,,,,,,,,,,,,,
,,,,,,00066,2023-10-14_18h24.55.788,vbt_B2_day2,2022.2.4,Win32,143.328078,,,,,,,,,,,,,,,,,,,,,,,,,,,down,0,1.3507,,0.253703718,-0.110185199,1,0,0,0.3892,0,144,144,5,1,blad,images/br_blad.png,images/cb_blad.png,0,,,,,,,,,,,,,,,,,,,,,,
,,,,,,00066,2023-10-14_18h24.55.788,vbt_B2_day2,2022.2.4,Win32,143.328078,,,,,,,,,,,,,,,,,,,,,,,,,,,down,0,29.8285,,0.253703718,-0.110185199,1,0,0,0.2924,0,145,145,161,1,attentie,images/br_attentie.png,images/cb_attentie.png,0,,,,,,,,,,,,,,,,,,,,,,
,,,,,,00066,2023-10-14_18h24.55.788,vbt_B2_day2,2022.2.4,Win32,143.328078,,,,,,,,,,,,,,,,,,,,,,,,,,,down,0,4.6368,,0.253703718,-0.110185199,1,0,0,1.2776,0,146,146,19,1,geit,images/br_geit.png,images/cb_geit.png,1,meit,,,,,,,,,,,,,,,,,,,,,
,,,,,,00066,2023-10-14_18h24.55.788,vbt_B2_day2,2022.2.4,Win32,143.328078,,,,,,,,,,,,,,,,,,,,,,,,,,,down,0,4.4798,,0.253703718,-0.110185199,1,0,0,0.34,0,147,147,10,1,leek,images/br_leek.png,images/cb_leek.png,0,,,,,,,,,,,,,,,,,,,,,,
,,,,,,00066,2023-10-14_18h24.55.788,vbt_B2_day2,2022.2.4,Win32,143.328078,,,,,,,,,,,,,,,,,,,,,,,,,,,down,0,1.6523,,0.253703718,-0.110185199,1,0,0,0.3191,0,148,148,112,1,lukken,images/br_lukken.png,images/cb_lukken.png,0,,,,,,,,,,,,,,,,,,,,,,
,,,,,,00066,2023-10-14_18h24.55.788,vbt_B2_day2,2022.2.4,Win32,143.328078,,,,,,,,,,,,,,,,,,,,,,,,,,,down,0,3.9544,,0.253703718,-0.110185199,1,0,0,0.278,0,149,149,81,1,dubbel,images/br_dubbel.png,images/cb_dubbel.png,0,,,,,,,,,,,,,,,,,,,,,,
,,,,,,00066,2023-10-14_18h24.55.788,vbt_B2_day2,2022.2.4,Win32,143.328078,,,,,,,,,,,,,,,,,,,,,,,,,,,down,0,6.4387,,0.253703718,-0.110185199,1,0,0,0.4028,0,150,150,134,1,geliefd,images/br_geliefd.png,images/cb_geliefd.png,0,,,,,,,,,,,,,,,,,,,,,,
,,,,,,00066,2023-10-14_18h24.55.788,vbt_B2_day2,2022.2.4,Win32,143.328078,,,,,,,,,,,,,,,,,,,,,,,,,,,down,0,2.6731,,0.253703718,-0.110185199,1,0,0,0.5715,0,151,151,45,1,piste,images/br_piste.png,images/cb_piste.png,0,,,,,,,,,,,,,,,,,,,,,,
,,,,,,00066,2023-10-14_18h24.55.788,vbt_B2_day2,2022.2.4,Win32,143.328078,,,,,,,,,,,,,,,,,,,,,,,,,,,down,0,6.5625,,0.253703718,-0.110185199,1,0,0,0.3195,0,152,152,123,1,hiervan,images/br_hiervan.png,images/cb_hiervan.png,0,,,,,,,,,,,,,,,,,,,,,,
,,,,,,00066,2023-10-14_18h24.55.788,vbt_B2_day2,2022.2.4,Win32,143.328078,,,,,,,,,,,,,,,,,,,,,,,,,,,down,0,5.0852,,0.253703718,-0.110185199,1,0,0,0.3541,0,153,153,155,1,gerucht,images/br_gerucht.png,images/cb_gerucht.png,0,,,,,,,,,,,,,,,,,,,,,,
,,,,,,00066,2023-10-14_18h24.55.788,vbt_B2_day2,2022.2.4,Win32,143.328078,,,,,,,,,,,,,,,,,,,,,,,,,,,down,0,0.536,,0.253703718,-0.110185199,1,0,0,0.368,0,154,154,28,1,stal,images/br_stal.png,images/cb_stal.png,0,,,,,,,,,,,,,,,,,,,,,,
,,,,,,00066,2023-10-14_18h24.55.788,vbt_B2_day2,2022.2.4,Win32,143.328078,,,,,,,,,,,,,,,,,,,,,,,,,,,down,0,5.1746,,0.220370399,-0.092592593,1,0,0,1.4788,0,155,155,169,1,oprotten,images/br_oprotten.png,images/cb_oprotten.png,0,,,,,,,,,,,,,,,,,,,,,,
,,,,,,00066,2023-10-14_18h24.55.788,vbt_B2_day2,2022.2.4,Win32,143.328078,,,,,,,,,,,,,,,,,,,,,,,,,,,down,0,2.869,,0.220370399,-0.092592593,1,0,0,0.3123,0,156,156,141,1,knielen,images/br_knielen.png,images/cb_knielen.png,0,,,,,,,,,,,,,,,,,,,,,,
,,,,,,00066,2023-10-14_18h24.55.788,vbt_B2_day2,2022.2.4,Win32,143.328078,,,,,,,,,,,,,,,,,,,,,,,,,,,down,0,4.2565,,0.220370399,-0.092592593,1,0,0,0.3127,0,157,157,11,1,mode,images/br_mode.png,images/cb_mode.png,0,,,,,,,,,,,,,,,,,,,,,,
,,,,,,00066,2023-10-14_18h24.55.788,vbt_B2_day2,2022.2.4,Win32,143.328078,,,,,,,,,,,,,,,,,,,,,,,,,,,down,0,1.6667,,0.220370399,-0.092592593,1,0,0,0.3747,0,158,158,32,1,palm,images/br_palm.png,images/cb_palm.png,0,,,,,,,,,,,,,,,,,,,,,,
,,,,,,00066,2023-10-14_18h24.55.788,vbt_B2_day2,2022.2.4,Win32,143.328078,,,,,,,,,,,,,,,,,,,,,,,,,,,down,0,7.1215,,0.220370399,-0.092592593,1,0,0,0.2993,0,159,159,171,1,aarzelen,images/br_aarzelen.png,images/cb_aarzelen.png,0,,,,,,,,,,,,,,,,,,,,,,
,,,,,,00066,2023-10-14_18h24.55.788,vbt_B2_day2,2022.2.4,Win32,143.328078,,,,,,,,,,,,,,,,,,,,,,,,,,,down,0,1.2222,,0.220370399,-0.092592593,1,0,0,1.6525,0,160,160,39,1,laag,images/br_laag.png,images/cb_laag.png,0,,,,,,,,,,,,,,,,,,,,,,
,,,,,,00066,2023-10-14_18h24.55.788,vbt_B2_day2,2022.2.4,Win32,143.328078,,,,,,,,,,,,,,,,,,,,,,,,,,,down,0,2.9678,,0.220370399,-0.092592593,1,0,0,0.3051,0,161,161,67,1,zwart,images/br_zwart.png,images/cb_zwart.png,0,,,,,,,,,,,,,,,,,,,,,,
,,,,,,00066,2023-10-14_18h24.55.788,vbt_B2_day2,2022.2.4,Win32,143.328078,,,,,,,,,,,,,,,,,,,,,,,,,,,down,0,5.0036,,0.343518575,-0.125,1,0,0,2.6237,0,162,162,57,1,steek,images/br_steek.png,images/cb_steek.png,1,staak,,,,,,,,,,,,,,,,,,,,,
,,,,,,00066,2023-10-14_18h24.55.788,vbt_B2_day2,2022.2.4,Win32,143.328078,,,,,,,,,,,,,,,,,,,,,,,,,,,down,0,1.4055,,0.343518575,-0.125,1,0,0,0.4101,0,163,163,18,1,blik,images/br_blik.png,images/cb_blik.png,1,blik,,,,,,,,,,,,,,,,,,,,,
,,,,,,00066,2023-10-14_18h24.55.788,vbt_B2_day2,2022.2.4,Win32,143.328078,,,,,,,,,,,,,,,,,,,,,,,,,,,down,0,8.8683,,0.343518575,-0.125,1,0,0,0.3196,0,164,164,100,1,geduld,images/br_geduld.png,images/cb_geduld.png,0,,,,,,,,,,,,,,,,,,,,,,
,,,,,,00066,2023-10-14_18h24.55.788,vbt_B2_day2,2022.2.4,Win32,143.328078,,,,,,,,,,,,,,,,,,,,,,,,,,,down,0,2.8234,,0.343518575,-0.125,1,0,0,0.3125,0,165,165,36,1,vuur,images/br_vuur.png,images/cb_vuur.png,0,,,,,,,,,,,,,,,,,,,,,,
,,,,,,00066,2023-10-14_18h24.55.788,vbt_B2_day2,2022.2.4,Win32,143.328078,,,,,,,,,,,,,,,,,,,,,,,,,,,down,0,1.007,,0.343518575,-0.125,1,0,0,0.3196,0,166,166,0,1,slak,images/br_slak.png,images/cb_slak.png,0,,,,,,,,,,,,,,,,,,,,,,
,,,,,,00066,2023-10-14_18h24.55.788,vbt_B2_day2,2022.2.4,Win32,143.328078,,,,,,,,,,,,,,,,,,,,,,,,,,,down,0,13.0772,,0.343518575,-0.125,1,0,0,0.7709,0,167,167,172,1,weigeren,images/br_weigeren.png,images/cb_weigeren.png,0,,,,,,,,,,,,,,,,,,,,,,
,,,,,,00066,2023-10-14_18h24.55.788,vbt_B2_day2,2022.2.4,Win32,143.328078,,,,,,,,,,,,,,,,,,,,,,,,,,,down,0,10.7295,,0.343518575,-0.125,1,0,0,0.6318,0,168,168,173,1,apparaat,images/br_apparaat.png,images/cb_apparaat.png,0,,,,,,,,,,,,,,,,,,,,,,
,,,,,,00066,2023-10-14_18h24.55.788,vbt_B2_day2,2022.2.4,Win32,143.328078,,,,,,,,,,,,,,,,,,,,,,,,,,,down,0,3.1596,,0.343518575,-0.125,1,0,0,0.377,0,169,169,90,1,geluid,images/br_geluid.png,images/cb_geluid.png,0,,,,,,,,,,,,,,,,,,,,,,
,,,,,,00066,2023-10-14_18h24.55.788,vbt_B2_day2,2022.2.4,Win32,143.328078,,,,,,,,,,,,,,,,,,,,,,,,,,,down,0,1.7734,,0.343518575,-0.125,1,0,0,0.3471,0,170,170,84,1,lokken,images/br_lokken.png,images/cb_lokken.png,0,,,,,,,,,,,,,,,,,,,,,,
,,,,,,00066,2023-10-14_18h24.55.788,vbt_B2_day2,2022.2.4,Win32,143.328078,,,,,,,,,,,,,,,,,,,,,,,,,,,down,0,3.7229,,0.343518575,-0.125,1,0,0,0.4516,0,171,171,154,1,aflopen,images/br_aflopen.png,images/cb_aflopen.png,0,,,,,,,,,,,,,,,,,,,,,,
,,,,,,00066,2023-10-14_18h24.55.788,vbt_B2_day2,2022.2.4,Win32,143.328078,,,,,,,,,,,,,,,,,,,,,,,,,,,down,0,1.8051,,0.343518575,-0.125,1,0,0,0.3316,0,172,172,46,1,jagen,images/br_jagen.png,images/cb_jagen.png,0,,,,,,,,,,,,,,,,,,,,,,
,,,,,,00066,2023-10-14_18h24.55.788,vbt_B2_day2,2022.2.4,Win32,143.328078,,,,,,,,,,,,,,,,,,,,,,,,,,,down,0,6.6089,,0.343518575,-0.125,1,0,0,0.5976,0,173,173,70,1,ijdel,images/br_ijdel.png,images/cb_ijdel.png,0,,,,,,,,,,,,,,,,,,,,,,
,,,,,,00066,2023-10-14_18h24.55.788,vbt_B2_day2,2022.2.4,Win32,143.328078,,,,,,,,,,,,,,,,,,,,,,,,,,,down,0,10.9031,,0.343518575,-0.125,1,0,0,0.4864,0,174,174,130,1,keihard,images/br_keihard.png,images/cb_keihard.png,0,,,,,,,,,,,,,,,,,,,,,,
,,,,,,00066,2023-10-14_18h24.55.788,vbt_B2_day2,2022.2.4,Win32,143.328078,,,,,,,,,,,,,,,,,,,,,,,,,,,down,0,5.3406,,0.343518575,-0.125,1,0,0,0.3265,0,175,175,143,1,hechten,images/br_hechten.png,images/cb_hechten.png,0,,,,,,,,,,,,,,,,,,,,,,
,,,,,,00066,2023-10-14_18h24.55.788,vbt_B2_day2,2022.2.4,Win32,143.328078,,,,,,,,,,,,,,,,,,,,,,,,,,,down,0,10.7988,,0.343518575,-0.125,1,0,0,0.4165,0,176,176,185,1,mijnheer,images/br_mijnheer.png,images/cb_mijnheer.png,0,,,,,,,,,,,,,,,,,,,,,,
,,,,,,00066,2023-10-14_18h24.55.788,vbt_B2_day2,2022.2.4,Win32,143.328078,,,,,,,,,,,,,,,,,,,,,,,,,,,down,0,2.9732,,0.343518575,-0.125,1,0,0,0.986,0,177,177,21,1,mist,images/br_mist.png,images/cb_mist.png,0,,,,,,,,,,,,,,,,,,,,,,
,,,,,,00066,2023-10-14_18h24.55.788,vbt_B2_day2,2022.2.4,Win32,143.328078,,,,,,,,,,,,,,,,,,,,,,,,,,,down,0,7.066,,0.343518575,-0.125,1,0,0,0.327,0,178,178,92,1,geheim,images/br_geheim.png,images/cb_geheim.png,0,,,,,,,,,,,,,,,,,,,,,,
,,,,,,00066,2023-10-14_18h24.55.788,vbt_B2_day2,2022.2.4,Win32,143.328078,,,,,,,,,,,,,,,,,,,,,,,,,,,down,0,6.909,,0.343518575,-0.125,1,0,0,0.3474,0,179,179,165,1,feestdag,images/br_feestdag.png,images/cb_feestdag.png,0,,,,,,,,,,,,,,,,,,,,,,
,,,,,,00066,2023-10-14_18h24.55.788,vbt_B2_day2,2022.2.4,Win32,143.328078,,,,,,,,,,,,,,,,,,,,,,,,,,,down,0,1.7941,,0.343518575,-0.125,1,0,0,0.3886,0,180,180,55,1,praat,images/br_praat.png,images/cb_praat.png,0,,,,,,,,,,,,,,,,,,,,,,
,,,,,,00066,2023-10-14_18h24.55.788,vbt_B2_day2,2022.2.4,Win32,143.328078,,,,,,,,,,,,,,,,,,,,,,,,,,,down,0,1.0147,,0.343518575,-0.125,1,0,0,0.3335,0,181,181,50,1,stoom,images/br_stoom.png,images/cb_stoom.png,0,,,,,,,,,,,,,,,,,,,,,,
,,,,,,00066,2023-10-14_18h24.55.788,vbt_B2_day2,2022.2.4,Win32,143.328078,,,,,,,,,,,,,,,,,,,,,,,,,,,down,0,4.9889,,0.343518575,-0.125,1,0,0,0.2707,0,182,182,125,1,aanzien,images/br_aanzien.png,images/cb_aanzien.png,0,,,,,,,,,,,,,,,,,,,,,,
,,,,,,00066,2023-10-14_18h24.55.788,vbt_B2_day2,2022.2.4,Win32,143.328078,,,,,,,,,,,,,,,,,,,,,,,,,,,down,0,17.7181,,0.343518575,-0.125,1,0,0,0.5833,0,183,183,158,1,innemen,images/br_innemen.png,images/cb_innemen.png,0,,,,,,,,,,,,,,,,,,,,,,
,,,,,,00066,2023-10-14_18h24.55.788,vbt_B2_day2,2022.2.4,Win32,143.328078,,,,,,,,,,,,,,,,,,,,,,,,,,,down,0,4.9197,,0.343518575,-0.125,1,0,0,0.3334,0,184,184,152,1,afnemen,images/br_afnemen.png,images/cb_afnemen.png,0,,,,,,,,,,,,,,,,,,,,,,
,,,,,,00066,2023-10-14_18h24.55.788,vbt_B2_day2,2022.2.4,Win32,143.328078,,,,,,,,,,,,,,,,,,,,,,,,,,,down,0,5.4306,,0.343518575,-0.125,1,0,0,1.3869,0,185,185,137,1,trekker,images/br_trekker.png,images/cb_trekker.png,1,trekker,,,,,,,,,,,,,,,,,,,,,
,,,,,,00066,2023-10-14_18h24.55.788,vbt_B2_day2,2022.2.4,Win32,143.328078,,,,,,,,,,,,,,,,,,,,,,,,,,,down,0,4.3049,,0.343518575,-0.125,1,0,0,0.3614,0,186,186,20,1,site,images/br_site.png,images/cb_site.png,0,,,,,,,,,,,,,,,,,,,,,,
,,,,,,00066,2023-10-14_18h24.55.788,vbt_B2_day2,2022.2.4,Win32,143.328078,,,,,,,,,,,,,,,,,,,,,,,,,,,down,0,10.5242,,0.343518575,-0.125,1,0,0,0.3408,0,187,187,170,1,schatten,images/br_schatten.png,images/cb_schatten.png,0,,,,,,,,,,,,,,,,,,,,,,
,,,,,,00066,2023-10-14_18h24.55.788,vbt_B2_day2,2022.2.4,Win32,143.328078,,,,,,,,,,,,,,,,,,,,,,,,,,,down,0,1.5225,,0.343518575,-0.125,1,0,0,0.3396,0,188,188,148,1,smullen,images/br_smullen.png,images/cb_smullen.png,0,,,,,,,,,,,,,,,,,,,,,,
,,,,,,00066,2023-10-14_18h24.55.788,vbt_B2_day2,2022.2.4,Win32,143.328078,,,,,,,,,,,,,,,,,,,,,,,,,,,down,0,2.3756,,0.343518575,-0.125,1,0,0,0.4719,0,189,189,118,1,vinger,images/br_vinger.png,images/cb_vinger.png,0,,,,,,,,,,,,,,,,,,,,,,
,,,,,,00066,2023-10-14_18h24.55.788,vbt_B2_day2,2022.2.4,Win32,143.328078,,,,,,,,,,,,,,,,,,,,,,,,,,,down,0,1.2365,,0.343518575,-0.125,1,0,0,0.3334,0,190,190,48,1,steel,images/br_steel.png,images/cb_steel.png,0,,,,,,,,,,,,,,,,,,,,,,
,,,,,,00066,2023-10-14_18h24.55.788,vbt_B2_day2,2022.2.4,Win32,143.328078,,,,,,,,,,,,,,,,,,,,,,,,,,,down,0,6.0432,,0.343518575,-0.125,1,0,0,0.2639,0,191,191,78,1,leren,images/br_leren.png,images/cb_leren.png,0,,,,,,,,,,,,,,,,,,,,,,
,,,,,,00066,2023-10-14_18h24.55.788,vbt_B2_day2,2022.2.4,Win32,143.328078,,,,,,,,,,,,,,,,,,,,,,,,,,,down,0,3.2451,,0.343518575,-0.125,1,0,0,0.3266,0,192,192,110,1,zuster,images/br_zuster.png,images/cb_zuster.png,0,,,,,,,,,,,,,,,,,,,,,,
,,,,,,00066,2023-10-14_18h24.55.788,vbt_B2_day2,2022.2.4,Win32,143.328078,,,,,,,,,,,,,,,,,,,,,,,,,,,down,0,3.0377,,0.343518575,-0.125,1,0,0,0.3268,0,193,193,61,1,groen,images/br_groen.png,images/cb_groen.png,0,,,,,,,,,,,,,,,,,,,,,,
,,,,,,00066,2023-10-14_18h24.55.788,vbt_B2_day2,2022.2.4,Win32,143.328078,,,,,,,,,,,,,,,,,,,,,,,,,,,down,0,5.5976,,0.343518575,-0.125,1,0,0,0.3333,0,194,194,87,1,toeval,images/br_toeval.png,images/cb_toeval.png,0,,,,,,,,,,,,,,,,,,,,,,
,,,,,,00066,2023-10-14_18h24.55.788,vbt_B2_day2,2022.2.4,Win32,143.328078,,,,,,,,,,,,,,,,,,,,,,,,,,,down,0,16.6688,,0.343518575,-0.125,1,0,0,0.5623,0,195,195,147,1,komisch,images/br_komisch.png,images/cb_komisch.png,0,,,,,,,,,,,,,,,,,,,,,,
,,,,,,00066,2023-10-14_18h24.55.788,vbt_B2_day2,2022.2.4,Win32,143.328078,,,,,,,,,,,,,,,,,,,,,,,,,,,down,0,1.9032,,0.343518575,-0.125,1,0,0,0.4656,0,196,196,15,1,soda,images/br_soda.png,images/cb_soda.png,0,,,,,,,,,,,,,,,,,,,,,,
,,,,,,00066,2023-10-14_18h24.55.788,vbt_B2_day2,2022.2.4,Win32,143.328078,,,,,,,,,,,,,,,,,,,,,,,,,,,down,0,3.6813,,0.343518575,-0.125,1,0,0,0.3544,0,197,197,41,1,maken,images/br_maken.png,images/cb_maken.png,0,,,,,,,,,,,,,,,,,,,,,,
,,,,,,00066,2023-10-14_18h24.55.788,vbt_B2_day2,2022.2.4,Win32,143.328078,,,,,,,,,,,,,,,,,,,,,,,,,,,down,0,3.4407,,0.343518575,-0.125,1,0,0,0.3475,0,198,198,151,1,aanzoek,images/br_aanzoek.png,images/cb_aanzoek.png,0,,,,,,,,,,,,,,,,,,,,,,
,,,,,,00066,2023-10-14_18h24.55.788,vbt_B2_day2,2022.2.4,Win32,143.328078,,,,,,,,,,,,,,,,,,,,,,,,,,,down,0,10.3125,,0.343518575,-0.125,1,0,0,1.1181,0,199,199,176,1,techniek,images/br_techniek.png,images/cb_techniek.png,1,techniek,,,,,,,,,,,,,,,,,,,,,
,,,,,,00066,2023-10-14_18h24.55.788,vbt_B2_day2,2022.2.4,Win32,143.328078,,,,,,,,,,,,,,,,,,,,,,,,,,,,,,,,,,,,,,,,,,,,,,,0.380555612,-0.069444444,1,0,0,,,,,,,,,,,,,,,,
,,,,,,00066,2023-10-14_18h24.55.788,vbt_B2_day2,2022.2.4,Win32,143.328078,,,,,,,,,,,,,,,,,,,,,,,,,,,,,,,,,,,,,,,,,,,,,,,,,,,,0.550925926,-0.040740755,1,0,0,,,,,,,,,,,
,,,,,,00066,2023-10-14_18h24.55.788,vbt_B2_day2,2022.2.4,Win32,143.328078,,,,,,,,,,,,,,,,,,,,,,,,,,,,,,,,,,,,,,,,,,koorts,images/br_koorts.png,images/cb_koorts.png,,koorts,,,,,,,,,,,0.551851908,-0.038888896,1,0,0,koorts,0,0,0,50,1
,,,,,,00066,2023-10-14_18h24.55.788,vbt_B2_day2,2022.2.4,Win32,143.328078,,,,,,,,,,,,,,,,,,,,,,,,,,,,,,,,,,,,,,,,,,badon,images/br_badon.png,images/cb_badon.png,,badon,,,,,,,,,,,0.313888974,-0.189814815,1,0,0,badon,0,1,1,26,1
,,,,,,00066,2023-10-14_18h24.55.788,vbt_B2_day2,2022.2.4,Win32,143.328078,,,,,,,,,,,,,,,,,,,,,,,,,,,,,,,,,,,,,,,,,,negel,images/br_negel.png,images/cb_negel.png,,negel,,,,,,,,,,,0.335185157,-0.099074116,1,0,0,negel,0,2,2,24,1
,,,,,,00066,2023-10-14_18h24.55.788,vbt_B2_day2,2022.2.4,Win32,143.328078,,,,,,,,,,,,,,,,,,,,,,,,,,,,,,,,,,,,,,,,,,aanvraag,images/br_aanvraag.png,images/cb_aanvraag.png,,aanvragen,,,,,,,,,,,0.340740769,-0.090740734,1,0,0,aanvragen,0,3,3,57,1
,,,,,,00066,2023-10-14_18h24.55.788,vbt_B2_day2,2022.2.4,Win32,143.328078,,,,,,,,,,,,,,,,,,,,,,,,,,,,,,,,,,,,,,,,,,zomers,images/br_zomers.png,images/cb_zomers.png,,zomers,,,,,,,,,,,0.340740769,-0.090740734,1,0,0,zomers,0,4,4,48,1
,,,,,,00066,2023-10-14_18h24.55.788,vbt_B2_day2,2022.2.4,Win32,143.328078,,,,,,,,,,,,,,,,,,,,,,,,,,,,,,,,,,,,,,,,,,eenhoorn,images/br_eenhoorn.png,images/cb_eenhoorn.png,,eenhoorn,,,,,,,,,,,0.340740769,-0.090740734,1,0,0,eenhoorn,0,5,5,19,1
,,,,,,00066,2023-10-14_18h24.55.788,vbt_B2_day2,2022.2.4,Win32,143.328078,,,,,,,,,,,,,,,,,,,,,,,,,,,,,,,,,,,,,,,,,,trots,images/br_trots.png,images/cb_trots.png,,trots,,,,,,,,,,,0.339814787,-0.087962963,1,0,0,trots,0,6,6,44,1
,,,,,,00066,2023-10-14_18h24.55.788,vbt_B2_day2,2022.2.4,Win32,143.328078,,,,,,,,,,,,,,,,,,,,,,,,,,,,,,,,,,,,,,,,,,zwager,images/br_zwager.png,images/cb_zwager.png,,zwager,,,,,,,,,,,0.339814787,-0.087037051,1,0,0,zwager,0,7,7,49,1
,,,,,,00066,2023-10-14_18h24.55.788,vbt_B2_day2,2022.2.4,Win32,143.328078,,,,,,,,,,,,,,,,,,,,,,,,,,,,,,,,,,,,,,,,,,aanzien,images/br_aanzien.png,images/cb_aanzien.png,,aanvien,,,,,,,,,,,0.008333347,-0.196296339,1,0,0,aanvien,0,8,8,13,1
,,,,,,00066,2023-10-14_18h24.55.788,vbt_B2_day2,2022.2.4,Win32,143.328078,,,,,,,,,,,,,,,,,,,,,,,,,,,,,,,,,,,,,,,,,,krimmen,images/br_krimmen.png,images/cb_krimmen.png,,krimmen,,,,,,,,,,,0.225000028,-0.112037023,1,0,0,krimmen,0,9,9,35,1
,,,,,,00066,2023-10-14_18h24.55.788,vbt_B2_day2,2022.2.4,Win32,143.328078,,,,,,,,,,,,,,,,,,,,,,,,,,,,,,,,,,,,,,,,,,plannen,images/br_plannen.png,images/cb_plannen.png,,plannen,,,,,,,,,,,0.225000028,-0.112037023,1,0,0,plannen,0,10,10,55,1
,,,,,,00066,2023-10-14_18h24.55.788,vbt_B2_day2,2022.2.4,Win32,143.328078,,,,,,,,,,,,,,,,,,,,,,,,,,,,,,,,,,,,,,,,,,clan,images/br_clan.png,images/cb_clan.png,,clan,,,,,,,,,,,0.227777764,-0.115740741,1,0,0,clan,0,11,11,40,1
,,,,,,00066,2023-10-14_18h24.55.788,vbt_B2_day2,2022.2.4,Win32,143.328078,,,,,,,,,,,,,,,,,,,,,,,,,,,,,,,,,,,,,,,,,,thema,images/br_thema.png,images/cb_thema.png,,thema,,,,,,,,,,,0.259259259,-0.099074116,1,0,0,thema,0,12,12,47,1
,,,,,,00066,2023-10-14_18h24.55.788,vbt_B2_day2,2022.2.4,Win32,143.328078,,,,,,,,,,,,,,,,,,,,,,,,,,,,,,,,,,,,,,,,,,jong,images/br_jong.png,images/cb_jong.png,,jong,,,,,,,,,,,0.259259259,-0.099074116,1,0,0,jong,0,13,13,43,1
,,,,,,00066,2023-10-14_18h24.55.788,vbt_B2_day2,2022.2.4,Win32,143.328078,,,,,,,,,,,,,,,,,,,,,,,,,,,,,,,,,,,,,,,,,,sifferd,images/br_sifferd.png,images/cb_sifferd.png,,siffer.,,,,,,,,,,,0.262037065,-0.097222222,1,0,0,siffer.,0,14,14,32,1
,,,,,,00066,2023-10-14_18h24.55.788,vbt_B2_day2,2022.2.4,Win32,143.328078,,,,,,,,,,,,,,,,,,,,,,,,,,,,,,,,,,,,,,,,,,dode,images/br_dode.png,images/cb_dode.png,,dode,,,,,,,,,,,0.262037065,-0.09629631,1,0,0,dode,0,15,15,41,1
,,,,,,00066,2023-10-14_18h24.55.788,vbt_B2_day2,2022.2.4,Win32,143.328078,,,,,,,,,,,,,,,,,,,,,,,,,,,,,,,,,,,,,,,,,,opdatten,images/br_opdatten.png,images/cb_opdatten.png,,opvatten,,,,,,,,,,,0.441666638,-0.14907406,1,0,0,opvatten,0,16,16,37,1
,,,,,,00066,2023-10-14_18h24.55.788,vbt_B2_day2,2022.2.4,Win32,143.328078,,,,,,,,,,,,,,,,,,,,,,,,,,,,,,,,,,,,,,,,,,breuk,images/br_breuk.png,images/cb_breuk.png,,bremk,,,,,,,,,,,0.441666638,-0.14907406,1,0,0,bremk,0,17,17,45,1
,,,,,,00066,2023-10-14_18h24.55.788,vbt_B2_day2,2022.2.4,Win32,143.328078,,,,,,,,,,,,,,,,,,,,,,,,,,,,,,,,,,,,,,,,,,sjijfel,images/br_sjijfel.png,images/cb_sjijfel.png,,sj...,,,,,,,,,,,0.441666638,-0.14907406,1,0,0,sj...,0,18,18,33,1
,,,,,,00066,2023-10-14_18h24.55.788,vbt_B2_day2,2022.2.4,Win32,143.328078,,,,,,,,,,,,,,,,,,,,,,,,,,,,,,,,,,,,,,,,,,heengeen,images/br_heengeen.png,images/cb_heengeen.png,,heengaan,,,,,,,,,,,0.441666638,-0.14907406,1,0,0,heengaan,0,19,19,38,1
,,,,,,00066,2023-10-14_18h24.55.788,vbt_B2_day2,2022.2.4,Win32,143.328078,,,,,,,,,,,,,,,,,,,,,,,,,,,,,,,,,,,,,,,,,,heilig,images/br_heilig.png,images/cb_heilig.png,,helling,,,,,,,,,,,0.441666638,-0.14907406,1,0,0,helling,0,20,20,9,1
,,,,,,00066,2023-10-14_18h24.55.788,vbt_B2_day2,2022.2.4,Win32,143.328078,,,,,,,,,,,,,,,,,,,,,,,,,,,,,,,,,,,,,,,,,,piste,images/br_piste.png,images/cb_piste.png,,piste,,,,,,,,,,,0.441666638,-0.14907406,1,0,0,piste,0,21,21,5,1
,,,,,,00066,2023-10-14_18h24.55.788,vbt_B2_day2,2022.2.4,Win32,143.328078,,,,,,,,,,,,,,,,,,,,,,,,,,,,,,,,,,,,,,,,,,tand,images/br_tand.png,images/cb_tand.png,,tand,,,,,,,,,,,0.441666638,-0.14907406,1,0,0,tand,0,22,22,42,1
,,,,,,00066,2023-10-14_18h24.55.788,vbt_B2_day2,2022.2.4,Win32,143.328078,,,,,,,,,,,,,,,,,,,,,,,,,,,,,,,,,,,,,,,,,,jagen,images/br_jagen.png,images/cb_jagen.png,,jagen,,,,,,,,,,,0.441666638,-0.14907406,1,0,0,jagen,0,23,23,6,1
,,,,,,00066,2023-10-14_18h24.55.788,vbt_B2_day2,2022.2.4,Win32,143.328078,,,,,,,,,,,,,,,,,,,,,,,,,,,,,,,,,,,,,,,,,,moes,images/br_moes.png,images/cb_moes.png,,moes,,,,,,,,,,,0.441666638,-0.14907406,1,0,0,moes,0,24,24,0,1
,,,,,,00066,2023-10-14_18h24.55.788,vbt_B2_day2,2022.2.4,Win32,143.328078,,,,,,,,,,,,,,,,,,,,,,,,,,,,,,,,,,,,,,,,,,kenzis,images/br_kenzis.png,images/cb_kenzis.png,,kanzis,,,,,,,,,,,0.441666638,-0.14907406,1,0,0,kanzis,0,25,25,30,1
,,,,,,00066,2023-10-14_18h24.55.788,vbt_B2_day2,2022.2.4,Win32,143.328078,,,,,,,,,,,,,,,,,,,,,,,,,,,,,,,,,,,,,,,,,,kasteel,images/br_kasteel.png,images/cb_kasteel.png,,kasteel,,,,,,,,,,,0.441666638,-0.14907406,1,0,0,kasteel,0,26,26,14,1
,,,,,,00066,2023-10-14_18h24.55.788,vbt_B2_day2,2022.2.4,Win32,143.328078,,,,,,,,,,,,,,,,,,,,,,,,,,,,,,,,,,,,,,,,,,kabel,images/br_kabel.png,images/cb_kabel.png,,kabel,,,,,,,,,,,0.441666638,-0.14907406,1,0,0,kabel,0,27,27,7,1
,,,,,,00066,2023-10-14_18h24.55.788,vbt_B2_day2,2022.2.4,Win32,143.328078,,,,,,,,,,,,,,,,,,,,,,,,,,,,,,,,,,,,,,,,,,ophuimen,images/br_ophuimen.png,images/cb_ophuimen.png,,ophuim..,,,,,,,,,,,0.441666638,-0.14907406,1,0,0,ophuim..,0,28,28,36,1
,,,,,,00066,2023-10-14_18h24.55.788,vbt_B2_day2,2022.2.4,Win32,143.328078,,,,,,,,,,,,,,,,,,,,,,,,,,,,,,,,,,,,,,,,,,tweeling,images/br_tweeling.png,images/cb_tweeling.png,,tweeling,,,,,,,,,,,0.441666638,-0.14907406,1,0,0,tweeling,0,29,29,58,1
,,,,,,00066,2023-10-14_18h24.55.788,vbt_B2_day2,2022.2.4,Win32,143.328078,,,,,,,,,,,,,,,,,,,,,,,,,,,,,,,,,,,,,,,,,,ningen,images/br_ningen.png,images/cb_ningen.png,,ningen...,,,,,,,,,,,0.441666638,-0.14907406,1,0,0,ningen...,0,30,30,28,1
,,,,,,00066,2023-10-14_18h24.55.788,vbt_B2_day2,2022.2.4,Win32,143.328078,,,,,,,,,,,,,,,,,,,,,,,,,,,,,,,,,,,,,,,,,,geld,images/br_geld.png,images/cb_geld.png,,geld,,,,,,,,,,,0.441666638,-0.14907406,1,0,0,geld,0,31,31,3,1
,,,,,,00066,2023-10-14_18h24.55.788,vbt_B2_day2,2022.2.4,Win32,143.328078,,,,,,,,,,,,,,,,,,,,,,,,,,,,,,,,,,,,,,,,,,inzicht,images/br_inzicht.png,images/cb_inzicht.png,,inzicht,,,,,,,,,,,0.441666638,-0.14907406,1,0,0,inzicht,0,32,32,53,1
,,,,,,00066,2023-10-14_18h24.55.788,vbt_B2_day2,2022.2.4,Win32,143.328078,,,,,,,,,,,,,,,,,,,,,,,,,,,,,,,,,,,,,,,,,,blad,images/br_blad.png,images/cb_blad.png,,blad,,,,,,,,,,,0.441666638,-0.14907406,1,0,0,blad,0,33,33,1,1
,,,,,,00066,2023-10-14_18h24.55.788,vbt_B2_day2,2022.2.4,Win32,143.328078,,,,,,,,,,,,,,,,,,,,,,,,,,,,,,,,,,,,,,,,,,agressie,images/br_agressie.png,images/cb_agressie.png,,agressie,,,,,,,,,,,0.441666638,-0.14907406,1,0,0,agressie,0,34,34,59,1
,,,,,,00066,2023-10-14_18h24.55.788,vbt_B2_day2,2022.2.4,Win32,143.328078,,,,,,,,,,,,,,,,,,,,,,,,,,,,,,,,,,,,,,,,,,sora,images/br_sora.png,images/cb_sora.png,,sora,,,,,,,,,,,0.441666638,-0.14907406,1,0,0,sora,0,35,35,22,1
,,,,,,00066,2023-10-14_18h24.55.788,vbt_B2_day2,2022.2.4,Win32,143.328078,,,,,,,,,,,,,,,,,,,,,,,,,,,,,,,,,,,,,,,,,,systeem,images/br_systeem.png,images/cb_systeem.png,,systeem,,,,,,,,,,,0.441666638,-0.14907406,1,0,0,systeem,0,36,36,54,1
,,,,,,00066,2023-10-14_18h24.55.788,vbt_B2_day2,2022.2.4,Win32,143.328078,,,,,,,,,,,,,,,,,,,,,,,,,,,,,,,,,,,,,,,,,,flits,images/br_flits.png,images/cb_flits.png,,flirs,,,,,,,,,,,0.441666638,-0.14907406,1,0,0,flirs,0,37,37,4,1
,,,,,,00066,2023-10-14_18h24.55.788,vbt_B2_day2,2022.2.4,Win32,143.328078,,,,,,,,,,,,,,,,,,,,,,,,,,,,,,,,,,,,,,,,,,stes,images/br_stes.png,images/cb_stes.png,,stes,,,,,,,,,,,0.441666638,-0.14907406,1,0,0,stes,0,38,38,21,1
,,,,,,00066,2023-10-14_18h24.55.788,vbt_B2_day2,2022.2.4,Win32,143.328078,,,,,,,,,,,,,,,,,,,,,,,,,,,,,,,,,,,,,,,,,,welzijn,images/br_welzijn.png,images/cb_welzijn.png,,welzijn,,,,,,,,,,,0.441666638,-0.14907406,1,0,0,welzijn,0,39,39,52,1
,,,,,,00066,2023-10-14_18h24.55.788,vbt_B2_day2,2022.2.4,Win32,143.328078,,,,,,,,,,,,,,,,,,,,,,,,,,,,,,,,,,,,,,,,,,diep,images/br_diep.png,images/cb_diep.png,,diep,,,,,,,,,,,0.441666638,-0.14907406,1,0,0,diep,0,40,40,2,1
,,,,,,00066,2023-10-14_18h24.55.788,vbt_B2_day2,2022.2.4,Win32,143.328078,,,,,,,,,,,,,,,,,,,,,,,,,,,,,,,,,,,,,,,,,,joes,images/br_joes.png,images/cb_joes.png,,joes,,,,,,,,,,,0.441666638,-0.14907406,1,0,0,joes,0,41,41,20,1
,,,,,,00066,2023-10-14_18h24.55.788,vbt_B2_day2,2022.2.4,Win32,143.328078,,,,,,,,,,,,,,,,,,,,,,,,,,,,,,,,,,,,,,,,,,lurgen,images/br_lurgen.png,images/cb_lurgen.png,,lutgen,,,,,,,,,,,0.441666638,-0.14907406,1,0,0,lutgen,0,42,42,29,1
,,,,,,00066,2023-10-14_18h24.55.788,vbt_B2_day2,2022.2.4,Win32,143.328078,,,,,,,,,,,,,,,,,,,,,,,,,,,,,,,,,,,,,,,,,,strikken,images/br_strikken.png,images/cb_strikken.png,,strikken,,,,,,,,,,,0.441666638,-0.14907406,1,0,0,strikken,0,43,43,18,1
,,,,,,00066,2023-10-14_18h24.55.788,vbt_B2_day2,2022.2.4,Win32,143.328078,,,,,,,,,,,,,,,,,,,,,,,,,,,,,,,,,,,,,,,,,,prekken,images/br_prekken.png,images/cb_prekken.png,,prekken,,,,,,,,,,,0.441666638,-0.14907406,1,0,0,prekken,0,44,44,34,1
,,,,,,00066,2023-10-14_18h24.55.788,vbt_B2_day2,2022.2.4,Win32,143.328078,,,,,,,,,,,,,,,,,,,,,,,,,,,,,,,,,,,,,,,,,,bloeien,images/br_bloeien.png,images/cb_bloeien.png,,bloeien,,,,,,,,,,,0.441666638,-0.14907406,1,0,0,bloeien,0,45,45,12,1
,,,,,,00066,2023-10-14_18h24.55.788,vbt_B2_day2,2022.2.4,Win32,143.328078,,,,,,,,,,,,,,,,,,,,,,,,,,,,,,,,,,,,,,,,,,feestdag,images/br_feestdag.png,images/cb_feestdag.png,,feestdag,,,,,,,,,,,0.441666638,-0.14907406,1,0,0,feestdag,0,46,46,17,1
,,,,,,00066,2023-10-14_18h24.55.788,vbt_B2_day2,2022.2.4,Win32,143.328078,,,,,,,,,,,,,,,,,,,,,,,,,,,,,,,,,,,,,,,,,,zegel,images/br_zegel.png,images/cb_zegel.png,,zegel,,,,,,,,,,,0.441666638,-0.14907406,1,0,0,zegel,0,47,47,46,1
,,,,,,00066,2023-10-14_18h24.55.788,vbt_B2_day2,2022.2.4,Win32,143.328078,,,,,,,,,,,,,,,,,,,,,,,,,,,,,,,,,,,,,,,,,,lijnen,images/br_lijnen.png,images/cb_lijnen.png,,lijmen,,,,,,,,,,,0.441666638,-0.14907406,1,0,0,lijmen,0,48,48,51,1
,,,,,,00066,2023-10-14_18h24.55.788,vbt_B2_day2,2022.2.4,Win32,143.328078,,,,,,,,,,,,,,,,,,,,,,,,,,,,,,,,,,,,,,,,,,doodmoe,images/br_doodmoe.png,images/cb_doodmoe.png,,doodmoe,,,,,,,,,,,0.441666638,-0.14907406,1,0,0,doodmoe,0,49,49,15,1
,,,,,,00066,2023-10-14_18h24.55.788,vbt_B2_day2,2022.2.4,Win32,143.328078,,,,,,,,,,,,,,,,,,,,,,,,,,,,,,,,,,,,,,,,,,manieren,images/br_manieren.png,images/cb_manieren.png,,mam...,,,,,,,,,,,0.441666638,-0.14907406,1,0,0,mam...,0,50,50,56,1
,,,,,,00066,2023-10-14_18h24.55.788,vbt_B2_day2,2022.2.4,Win32,143.328078,,,,,,,,,,,,,,,,,,,,,,,,,,,,,,,,,,,,,,,,,,wijve,images/br_wijve.png,images/cb_wijve.png,,wijjvi,,,,,,,,,,,0.441666638,-0.14907406,1,0,0,wijjvi,0,51,51,27,1
,,,,,,00066,2023-10-14_18h24.55.788,vbt_B2_day2,2022.2.4,Win32,143.328078,,,,,,,,,,,,,,,,,,,,,,,,,,,,,,,,,,,,,,,,,,goon,images/br_goon.png,images/cb_goon.png,,goon,,,,,,,,,,,0.441666638,-0.14907406,1,0,0,goon,0,52,52,23,1
,,,,,,00066,2023-10-14_18h24.55.788,vbt_B2_day2,2022.2.4,Win32,143.328078,,,,,,,,,,,,,,,,,,,,,,,,,,,,,,,,,,,,,,,,,,woning,images/br_woning.png,images/cb_woning.png,,woning,,,,,,,,,,,0.441666638,-0.14907406,1,0,0,woning,0,53,53,10,1
,,,,,,00066,2023-10-14_18h24.55.788,vbt_B2_day2,2022.2.4,Win32,143.328078,,,,,,,,,,,,,,,,,,,,,,,,,,,,,,,,,,,,,,,,,,anarchie,images/br_anarchie.png,images/cb_anarchie.png,,aanrc...,,,,,,,,,,,0.441666638,-0.14907406,1,0,0,aanrc...,0,54,54,16,1
,,,,,,00066,2023-10-14_18h24.55.788,vbt_B2_day2,2022.2.4,Win32,143.328078,,,,,,,,,,,,,,,,,,,,,,,,,,,,,,,,,,,,,,,,,,lokken,images/br_lokken.png,images/cb_lokken.png,,lokken,,,,,,,,,,,0.441666638,-0.14907406,1,0,0,lokken,0,55,55,8,1
,,,,,,00066,2023-10-14_18h24.55.788,vbt_B2_day2,2022.2.4,Win32,143.328078,,,,,,,,,,,,,,,,,,,,,,,,,,,,,,,,,,,,,,,,,,remel,images/br_remel.png,images/cb_remel.png,,remel,,,,,,,,,,,0.441666638,-0.14907406,1,0,0,remel,0,56,56,25,1
,,,,,,00066,2023-10-14_18h24.55.788,vbt_B2_day2,2022.2.4,Win32,143.328078,,,,,,,,,,,,,,,,,,,,,,,,,,,,,,,,,,,,,,,,,,kijlen,images/br_kijlen.png,images/cb_kijlen.png,,kijlen,,,,,,,,,,,0.441666638,-0.14907406,1,0,0,kijlen,0,57,57,31,1
,,,,,,00066,2023-10-14_18h24.55.788,vbt_B2_day2,2022.2.4,Win32,143.328078,,,,,,,,,,,,,,,,,,,,,,,,,,,,,,,,,,,,,,,,,,bereuwen,images/br_bereuwen.png,images/cb_bereuwen.png,,bereu...,,,,,,,,,,,0.441666638,-0.14907406,1,0,0,bereu...,0,58,58,39,1
,,,,,,00066,2023-10-14_18h24.55.788,vbt_B2_day2,2022.2.4,Win32,143.328078,,,,,,,,,,,,,,,,,,,,,,,,,,,,,,,,,,,,,,,,,,toeval,images/br_toeval.png,images/cb_toeval.png,,toeval,,,,,,,,,,,0.441666638,-0.14907406,1,0,0,toeval,0,59,59,11,1
,,,,,,00066,2023-10-14_18h24.55.788,vbt_B2_day2,2022.2.4,Win32,143.328078,,,,,,,,,,,,,,,,,,,,,,,,,,,,,,,,,,,,,,,,,,,,,,,,,,,,,,,,,,,,,,,,,,,
