welcome_mouse.x,welcome_mouse.y,welcome_mouse.leftButton,welcome_mouse.midButton,welcome_mouse.rightButton,welcome_mouse.time,"ID",date,expName,psychopyVersion,OS,frameRate,refresh_mouse.x,refresh_mouse.y,refresh_mouse.leftButton,refresh_mouse.midButton,refresh_mouse.rightButton,refresh_mouse.time,braille_mouse.x,braille_mouse.y,braille_mouse.leftButton,braille_mouse.midButton,braille_mouse.rightButton,braille_mouse.time,trials.thisRepN,trials.thisTrialN,trials.thisN,trials.thisIndex,trials.ran,nlLet,brLet,cbLet,trainInstr_mouse.x,trainInstr_mouse.y,trainInstr_mouse.leftButton,trainInstr_mouse.midButton,trainInstr_mouse.rightButton,trainInstr_mouse.time,translation_key.keys,translation_key.corr,translation_key.rt,testResp,word_rsp.text,word_mouse.x,word_mouse.y,word_mouse.leftButton,word_mouse.midButton,word_mouse.rightButton,word_mouse.time,train_loop.thisRepN,train_loop.thisTrialN,train_loop.thisN,train_loop.thisIndex,train_loop.ran,nlWrd,brWrd,cbWrd,test,mouse.x,mouse.y,mouse.leftButton,mouse.midButton,mouse.rightButton,testInstr_mouse.x,testInstr_mouse.y,testInstr_mouse.leftButton,testInstr_mouse.midButton,testInstr_mouse.rightButton,test_mouse.x,test_mouse.y,test_mouse.leftButton,test_mouse.midButton,test_mouse.rightButton,test_response.text,test_loop.thisRepN,test_loop.thisTrialN,test_loop.thisN,test_loop.thisIndex,test_loop.ran
-0.12962963,-0.19722225,1,0,0,1.3898,00107,2023-11-20_11h33.36.671,vbt_B2_day2,2022.2.4,Win32,143.8848921,,,,,,,,,,,,,,,,,,,,,,,,,,,,,,,,,,,,,,,,,,,,,,,,,,,,,,,,,,,,,,,,,,,
,,,,,,00107,2023-11-20_11h33.36.671,vbt_B2_day2,2022.2.4,Win32,143.8848921,-0.12962963,-0.19722225,1,0,0,0.4456,,,,,,,,,,,,,,,,,,,,,,,,,,,,,,,,,,,,,,,,,,,,,,,,,,,,,,,,,,,,,
,,,,,,00107,2023-11-20_11h33.36.671,vbt_B2_day2,2022.2.4,Win32,143.8848921,,,,,,,-0.12962963,-0.19722225,1,0,0,0.1807,0,0,0,1,1,b,images/br_b.png,images/cb_b.png,,,,,,,,,,,,,,,,,,,,,,,,,,,,,,,,,,,,,,,,,,,,,,,
,,,,,,00107,2023-11-20_11h33.36.671,vbt_B2_day2,2022.2.4,Win32,143.8848921,,,,,,,-0.12962963,-0.19722225,1,0,0,0.2422,0,1,1,22,1,w,images/br_w.png,images/cb_w.png,,,,,,,,,,,,,,,,,,,,,,,,,,,,,,,,,,,,,,,,,,,,,,,
,,,,,,00107,2023-11-20_11h33.36.671,vbt_B2_day2,2022.2.4,Win32,143.8848921,,,,,,,-0.12962963,-0.19722225,1,0,0,0.43,0,2,2,23,1,x,images/br_x.png,images/cb_x.png,,,,,,,,,,,,,,,,,,,,,,,,,,,,,,,,,,,,,,,,,,,,,,,
,,,,,,00107,2023-11-20_11h33.36.671,vbt_B2_day2,2022.2.4,Win32,143.8848921,,,,,,,-0.12962963,-0.19722225,1,0,0,0.1383,0,3,3,7,1,h,images/br_h.png,images/cb_h.png,,,,,,,,,,,,,,,,,,,,,,,,,,,,,,,,,,,,,,,,,,,,,,,
,,,,,,00107,2023-11-20_11h33.36.671,vbt_B2_day2,2022.2.4,Win32,143.8848921,,,,,,,-0.122222194,-0.178703732,1,0,0,0.389,0,4,4,11,1,l,images/br_l.png,images/cb_l.png,,,,,,,,,,,,,,,,,,,,,,,,,,,,,,,,,,,,,,,,,,,,,,,
,,,,,,00107,2023-11-20_11h33.36.671,vbt_B2_day2,2022.2.4,Win32,143.8848921,,,,,,,-0.122222194,-0.178703732,1,0,0,0.1314,0,5,5,18,1,s,images/br_s.png,images/cb_s.png,,,,,,,,,,,,,,,,,,,,,,,,,,,,,,,,,,,,,,,,,,,,,,,
,,,,,,00107,2023-11-20_11h33.36.671,vbt_B2_day2,2022.2.4,Win32,143.8848921,,,,,,,-0.122222194,-0.178703732,1,0,0,0.8327,0,6,6,15,1,p,images/br_p.png,images/cb_p.png,,,,,,,,,,,,,,,,,,,,,,,,,,,,,,,,,,,,,,,,,,,,,,,
,,,,,,00107,2023-11-20_11h33.36.671,vbt_B2_day2,2022.2.4,Win32,143.8848921,,,,,,,-0.122222194,-0.178703732,1,0,0,0.3682,0,7,7,17,1,r,images/br_r.png,images/cb_r.png,,,,,,,,,,,,,,,,,,,,,,,,,,,,,,,,,,,,,,,,,,,,,,,
,,,,,,00107,2023-11-20_11h33.36.671,vbt_B2_day2,2022.2.4,Win32,143.8848921,,,,,,,-0.122222194,-0.178703732,1,0,0,0.2078,0,8,8,25,1,z,images/br_z.png,images/cb_z.png,,,,,,,,,,,,,,,,,,,,,,,,,,,,,,,,,,,,,,,,,,,,,,,
,,,,,,00107,2023-11-20_11h33.36.671,vbt_B2_day2,2022.2.4,Win32,143.8848921,,,,,,,-0.101851852,-0.142592607,1,0,0,0.1524,0,9,9,3,1,d,images/br_d.png,images/cb_d.png,,,,,,,,,,,,,,,,,,,,,,,,,,,,,,,,,,,,,,,,,,,,,,,
,,,,,,00107,2023-11-20_11h33.36.671,vbt_B2_day2,2022.2.4,Win32,143.8848921,,,,,,,-0.101851852,-0.142592607,1,0,0,0.3557,0,10,10,6,1,g,images/br_g.png,images/cb_g.png,,,,,,,,,,,,,,,,,,,,,,,,,,,,,,,,,,,,,,,,,,,,,,,
,,,,,,00107,2023-11-20_11h33.36.671,vbt_B2_day2,2022.2.4,Win32,143.8848921,,,,,,,-0.101851852,-0.142592607,1,0,0,0.387,0,11,11,8,1,i,images/br_i.png,images/cb_i.png,,,,,,,,,,,,,,,,,,,,,,,,,,,,,,,,,,,,,,,,,,,,,,,
,,,,,,00107,2023-11-20_11h33.36.671,vbt_B2_day2,2022.2.4,Win32,143.8848921,,,,,,,-0.101851852,-0.142592607,1,0,0,0.2295,0,12,12,4,1,e,images/br_e.png,images/cb_e.png,,,,,,,,,,,,,,,,,,,,,,,,,,,,,,,,,,,,,,,,,,,,,,,
,,,,,,00107,2023-11-20_11h33.36.671,vbt_B2_day2,2022.2.4,Win32,143.8848921,,,,,,,-0.101851852,-0.142592607,1,0,0,0.5827,0,13,13,9,1,j,images/br_j.png,images/cb_j.png,,,,,,,,,,,,,,,,,,,,,,,,,,,,,,,,,,,,,,,,,,,,,,,
,,,,,,00107,2023-11-20_11h33.36.671,vbt_B2_day2,2022.2.4,Win32,143.8848921,,,,,,,-0.101851852,-0.142592607,1,0,0,0.1231,0,14,14,14,1,o,images/br_o.png,images/cb_o.png,,,,,,,,,,,,,,,,,,,,,,,,,,,,,,,,,,,,,,,,,,,,,,,
,,,,,,00107,2023-11-20_11h33.36.671,vbt_B2_day2,2022.2.4,Win32,143.8848921,,,,,,,-0.101851852,-0.142592607,1,0,0,0.4289,0,15,15,12,1,m,images/br_m.png,images/cb_m.png,,,,,,,,,,,,,,,,,,,,,,,,,,,,,,,,,,,,,,,,,,,,,,,
,,,,,,00107,2023-11-20_11h33.36.671,vbt_B2_day2,2022.2.4,Win32,143.8848921,,,,,,,-0.101851852,-0.142592607,1,0,0,0.0486,0,16,16,5,1,f,images/br_f.png,images/cb_f.png,,,,,,,,,,,,,,,,,,,,,,,,,,,,,,,,,,,,,,,,,,,,,,,
,,,,,,00107,2023-11-20_11h33.36.671,vbt_B2_day2,2022.2.4,Win32,143.8848921,,,,,,,-0.101851852,-0.142592607,1,0,0,0.5131,0,17,17,16,1,q,images/br_q.png,images/cb_q.png,,,,,,,,,,,,,,,,,,,,,,,,,,,,,,,,,,,,,,,,,,,,,,,
,,,,,,00107,2023-11-20_11h33.36.671,vbt_B2_day2,2022.2.4,Win32,143.8848921,,,,,,,-0.101851852,-0.142592607,1,0,0,0.2225,0,18,18,13,1,n,images/br_n.png,images/cb_n.png,,,,,,,,,,,,,,,,,,,,,,,,,,,,,,,,,,,,,,,,,,,,,,,
,,,,,,00107,2023-11-20_11h33.36.671,vbt_B2_day2,2022.2.4,Win32,143.8848921,,,,,,,-0.101851852,-0.142592607,1,0,0,0.6541,0,19,19,0,1,a,images/br_a.png,images/cb_a.png,,,,,,,,,,,,,,,,,,,,,,,,,,,,,,,,,,,,,,,,,,,,,,,
,,,,,,00107,2023-11-20_11h33.36.671,vbt_B2_day2,2022.2.4,Win32,143.8848921,,,,,,,-0.101851852,-0.142592607,1,0,0,0.1233,0,20,20,21,1,v,images/br_v.png,images/cb_v.png,,,,,,,,,,,,,,,,,,,,,,,,,,,,,,,,,,,,,,,,,,,,,,,
,,,,,,00107,2023-11-20_11h33.36.671,vbt_B2_day2,2022.2.4,Win32,143.8848921,,,,,,,-0.101851852,-0.142592607,1,0,0,0.062,0,21,21,2,1,c,images/br_c.png,images/cb_c.png,,,,,,,,,,,,,,,,,,,,,,,,,,,,,,,,,,,,,,,,,,,,,,,
,,,,,,00107,2023-11-20_11h33.36.671,vbt_B2_day2,2022.2.4,Win32,143.8848921,,,,,,,-0.101851852,-0.142592607,1,0,0,0.0342,0,22,22,19,1,t,images/br_t.png,images/cb_t.png,,,,,,,,,,,,,,,,,,,,,,,,,,,,,,,,,,,,,,,,,,,,,,,
,,,,,,00107,2023-11-20_11h33.36.671,vbt_B2_day2,2022.2.4,Win32,143.8848921,,,,,,,-0.101851852,-0.142592607,1,0,0,0.4357,0,23,23,10,1,k,images/br_k.png,images/cb_k.png,,,,,,,,,,,,,,,,,,,,,,,,,,,,,,,,,,,,,,,,,,,,,,,
,,,,,,00107,2023-11-20_11h33.36.671,vbt_B2_day2,2022.2.4,Win32,143.8848921,,,,,,,-0.101851852,-0.142592607,1,0,0,0.1933,0,24,24,20,1,u,images/br_u.png,images/cb_u.png,,,,,,,,,,,,,,,,,,,,,,,,,,,,,,,,,,,,,,,,,,,,,,,
,,,,,,00107,2023-11-20_11h33.36.671,vbt_B2_day2,2022.2.4,Win32,143.8848921,,,,,,,-0.101851852,-0.142592607,1,0,0,0.1035,0,25,25,24,1,y,images/br_y.png,images/cb_y.png,,,,,,,,,,,,,,,,,,,,,,,,,,,,,,,,,,,,,,,,,,,,,,,
,,,,,,00107,2023-11-20_11h33.36.671,vbt_B2_day2,2022.2.4,Win32,143.8848921,,,,,,,,,,,,,,,,,,,,,-0.101851852,-0.142592607,1,0,0,0.1234,,,,,,,,,,,,,,,,,,,,,,,,,,,,,,,,,,,,,,,,,
,,,,,,00107,2023-11-20_11h33.36.671,vbt_B2_day2,2022.2.4,Win32,143.8848921,,,,,,,,,,,,,,,,,,,,,,,,,,,down,0,3.2451,traag,,-0.101851852,-0.142592607,1,0,0,0.3818,0,0,0,56,1,traag,images/br_traag.png,images/cb_traag.png,1,,,,,,,,,,,,,,,,,,,,,
,,,,,,00107,2023-11-20_11h33.36.671,vbt_B2_day2,2022.2.4,Win32,143.8848921,,,,,,,,,,,,,,,,,,,,,,,,,,,down,0,0.2961,,,-0.055555556,-0.233333376,1,0,0,0.2933,0,1,1,76,1,afval,images/br_afval.png,images/cb_afval.png,0,,,,,,,,,,,,,,,,,,,,,
,,,,,,00107,2023-11-20_11h33.36.671,vbt_B2_day2,2022.2.4,Win32,143.8848921,,,,,,,,,,,,,,,,,,,,,,,,,,,down,0,0.2014,,,-0.055555556,-0.233333376,1,0,0,0.2968,0,2,2,60,1,jasje,images/br_jasje.png,images/cb_jasje.png,0,,,,,,,,,,,,,,,,,,,,,
,,,,,,00107,2023-11-20_11h33.36.671,vbt_B2_day2,2022.2.4,Win32,143.8848921,,,,,,,,,,,,,,,,,,,,,,,,,,,down,0,0.0674,,,-0.055555556,-0.233333376,1,0,0,0.2859,0,3,3,196,1,nakijken,images/br_nakijken.png,images/cb_nakijken.png,0,,,,,,,,,,,,,,,,,,,,,
,,,,,,00107,2023-11-20_11h33.36.671,vbt_B2_day2,2022.2.4,Win32,143.8848921,,,,,,,,,,,,,,,,,,,,,,,,,,,down,0,0.2292,,,-0.055555556,-0.233333376,1,0,0,0.1706,0,4,4,166,1,strikken,images/br_strikken.png,images/cb_strikken.png,0,,,,,,,,,,,,,,,,,,,,,
,,,,,,00107,2023-11-20_11h33.36.671,vbt_B2_day2,2022.2.4,Win32,143.8848921,,,,,,,,,,,,,,,,,,,,,,,,,,,down,0,0.1473,,,-0.055555556,-0.233333376,1,0,0,0.2928,0,5,5,83,1,mening,images/br_mening.png,images/cb_mening.png,0,,,,,,,,,,,,,,,,,,,,,
,,,,,,00107,2023-11-20_11h33.36.671,vbt_B2_day2,2022.2.4,Win32,143.8848921,,,,,,,,,,,,,,,,,,,,,,,,,,,down,0,0.1314,,,-0.055555556,-0.233333376,1,0,0,0.1656,0,6,6,34,1,vorm,images/br_vorm.png,images/cb_vorm.png,0,,,,,,,,,,,,,,,,,,,,,
,,,,,,00107,2023-11-20_11h33.36.671,vbt_B2_day2,2022.2.4,Win32,143.8848921,,,,,,,,,,,,,,,,,,,,,,,,,,,down,0,0.2119,,,-0.055555556,-0.233333376,1,0,0,0.2991,0,7,7,87,1,toeval,images/br_toeval.png,images/cb_toeval.png,0,,,,,,,,,,,,,,,,,,,,,
,,,,,,00107,2023-11-20_11h33.36.671,vbt_B2_day2,2022.2.4,Win32,143.8848921,,,,,,,,,,,,,,,,,,,,,,,,,,,down,0,0.2589,,,-0.055555556,-0.233333376,1,0,0,0.3355,0,8,8,67,1,zwart,images/br_zwart.png,images/cb_zwart.png,0,,,,,,,,,,,,,,,,,,,,,
,,,,,,00107,2023-11-20_11h33.36.671,vbt_B2_day2,2022.2.4,Win32,143.8848921,,,,,,,,,,,,,,,,,,,,,,,,,,,down,0,0.2354,,,-0.055555556,-0.233333376,1,0,0,0.2638,0,9,9,4,1,moes,images/br_moes.png,images/cb_moes.png,0,,,,,,,,,,,,,,,,,,,,,
,,,,,,00107,2023-11-20_11h33.36.671,vbt_B2_day2,2022.2.4,Win32,143.8848921,,,,,,,,,,,,,,,,,,,,,,,,,,,down,0,0.0921,,,-0.055555556,-0.233333376,1,0,0,0.1942,0,10,10,11,1,mode,images/br_mode.png,images/cb_mode.png,0,,,,,,,,,,,,,,,,,,,,,
,,,,,,00107,2023-11-20_11h33.36.671,vbt_B2_day2,2022.2.4,Win32,143.8848921,,,,,,,,,,,,,,,,,,,,,,,,,,,down,0,2.4164,loyaal,,-0.055555556,-0.233333376,1,0,0,0.3885,0,11,11,97,1,loyaal,images/br_loyaal.png,images/cb_loyaal.png,1,,,,,,,,,,,,,,,,,,,,,
,,,,,,00107,2023-11-20_11h33.36.671,vbt_B2_day2,2022.2.4,Win32,143.8848921,,,,,,,,,,,,,,,,,,,,,,,,,,,down,0,0.193,,,-0.055555556,-0.233333376,1,0,0,0.3123,0,12,12,151,1,aanzoek,images/br_aanzoek.png,images/cb_aanzoek.png,0,,,,,,,,,,,,,,,,,,,,,
,,,,,,00107,2023-11-20_11h33.36.671,vbt_B2_day2,2022.2.4,Win32,143.8848921,,,,,,,,,,,,,,,,,,,,,,,,,,,down,0,0.6241,,,-0.055555556,-0.233333376,1,0,0,0.5671,0,13,13,165,1,feestdag,images/br_feestdag.png,images/cb_feestdag.png,0,,,,,,,,,,,,,,,,,,,,,
,,,,,,00107,2023-11-20_11h33.36.671,vbt_B2_day2,2022.2.4,Win32,143.8848921,,,,,,,,,,,,,,,,,,,,,,,,,,,down,0,0.0665,,,-0.055555556,-0.233333376,1,0,0,0.3332,0,14,14,75,1,snoep,images/br_snoep.png,images/cb_snoep.png,0,,,,,,,,,,,,,,,,,,,,,
,,,,,,00107,2023-11-20_11h33.36.671,vbt_B2_day2,2022.2.4,Win32,143.8848921,,,,,,,,,,,,,,,,,,,,,,,,,,,down,0,0.3474,,,-0.055555556,-0.233333376,1,0,0,0.3184,0,15,15,31,1,poes,images/br_poes.png,images/cb_poes.png,0,,,,,,,,,,,,,,,,,,,,,
,,,,,,00107,2023-11-20_11h33.36.671,vbt_B2_day2,2022.2.4,Win32,143.8848921,,,,,,,,,,,,,,,,,,,,,,,,,,,down,0,0.2379,,,-0.055555556,-0.233333376,1,0,0,0.3194,0,16,16,68,1,schat,images/br_schat.png,images/cb_schat.png,0,,,,,,,,,,,,,,,,,,,,,
,,,,,,00107,2023-11-20_11h33.36.671,vbt_B2_day2,2022.2.4,Win32,143.8848921,,,,,,,,,,,,,,,,,,,,,,,,,,,down,0,0.2855,,,-0.055555556,-0.233333376,1,0,0,0.3365,0,17,17,1,1,zaal,images/br_zaal.png,images/cb_zaal.png,0,,,,,,,,,,,,,,,,,,,,,
,,,,,,00107,2023-11-20_11h33.36.671,vbt_B2_day2,2022.2.4,Win32,143.8848921,,,,,,,,,,,,,,,,,,,,,,,,,,,down,0,4.1375,woestijn,,-0.055555556,-0.233333376,1,0,0,0.3527,0,18,18,179,1,woestijn,images/br_woestijn.png,images/cb_woestijn.png,1,,,,,,,,,,,,,,,,,,,,,
,,,,,,00107,2023-11-20_11h33.36.671,vbt_B2_day2,2022.2.4,Win32,143.8848921,,,,,,,,,,,,,,,,,,,,,,,,,,,down,0,0.198,,,-0.055555556,-0.233333376,1,0,0,0.3396,0,19,19,193,1,weeshuis,images/br_weeshuis.png,images/cb_weeshuis.png,0,,,,,,,,,,,,,,,,,,,,,
,,,,,,00107,2023-11-20_11h33.36.671,vbt_B2_day2,2022.2.4,Win32,143.8848921,,,,,,,,,,,,,,,,,,,,,,,,,,,down,0,0.2716,,,-0.055555556,-0.233333376,1,0,0,0.2916,0,20,20,73,1,volop,images/br_volop.png,images/cb_volop.png,0,,,,,,,,,,,,,,,,,,,,,
,,,,,,00107,2023-11-20_11h33.36.671,vbt_B2_day2,2022.2.4,Win32,143.8848921,,,,,,,,,,,,,,,,,,,,,,,,,,,down,0,0.2874,,,-0.055555556,-0.233333376,1,0,0,0.3681,0,21,21,71,1,bever,images/br_bever.png,images/cb_bever.png,0,,,,,,,,,,,,,,,,,,,,,
,,,,,,00107,2023-11-20_11h33.36.671,vbt_B2_day2,2022.2.4,Win32,143.8848921,,,,,,,,,,,,,,,,,,,,,,,,,,,down,0,0.2927,,,-0.055555556,-0.233333376,1,0,0,0.3542,0,22,22,38,1,baai,images/br_baai.png,images/cb_baai.png,0,,,,,,,,,,,,,,,,,,,,,
,,,,,,00107,2023-11-20_11h33.36.671,vbt_B2_day2,2022.2.4,Win32,143.8848921,,,,,,,,,,,,,,,,,,,,,,,,,,,down,0,0.302,,,-0.055555556,-0.233333376,1,0,0,0.3135,0,23,23,106,1,zingen,images/br_zingen.png,images/cb_zingen.png,0,,,,,,,,,,,,,,,,,,,,,
,,,,,,00107,2023-11-20_11h33.36.671,vbt_B2_day2,2022.2.4,Win32,143.8848921,,,,,,,,,,,,,,,,,,,,,,,,,,,down,0,0.0772,,,-0.055555556,-0.233333376,1,0,0,0.1973,0,24,24,148,1,smullen,images/br_smullen.png,images/cb_smullen.png,0,,,,,,,,,,,,,,,,,,,,,
,,,,,,00107,2023-11-20_11h33.36.671,vbt_B2_day2,2022.2.4,Win32,143.8848921,,,,,,,,,,,,,,,,,,,,,,,,,,,down,0,0.2229,,,-0.055555556,-0.233333376,1,0,0,0.3334,0,25,25,121,1,twijfel,images/br_twijfel.png,images/cb_twijfel.png,0,,,,,,,,,,,,,,,,,,,,,
,,,,,,00107,2023-11-20_11h33.36.671,vbt_B2_day2,2022.2.4,Win32,143.8848921,,,,,,,,,,,,,,,,,,,,,,,,,,,down,0,0.2187,,,-0.055555556,-0.233333376,1,0,0,0.354,0,26,26,14,1,rijp,images/br_rijp.png,images/cb_rijp.png,0,,,,,,,,,,,,,,,,,,,,,
,,,,,,00107,2023-11-20_11h33.36.671,vbt_B2_day2,2022.2.4,Win32,143.8848921,,,,,,,,,,,,,,,,,,,,,,,,,,,down,0,0.2031,,,-0.055555556,-0.233333376,1,0,0,0.3471,0,27,27,171,1,aarzelen,images/br_aarzelen.png,images/cb_aarzelen.png,0,,,,,,,,,,,,,,,,,,,,,
,,,,,,00107,2023-11-20_11h33.36.671,vbt_B2_day2,2022.2.4,Win32,143.8848921,,,,,,,,,,,,,,,,,,,,,,,,,,,down,0,0.3146,,,-0.055555556,-0.233333376,1,0,0,0.2919,0,28,28,41,1,maken,images/br_maken.png,images/cb_maken.png,0,,,,,,,,,,,,,,,,,,,,,
,,,,,,00107,2023-11-20_11h33.36.671,vbt_B2_day2,2022.2.4,Win32,143.8848921,,,,,,,,,,,,,,,,,,,,,,,,,,,down,0,3.8403,stiekem,,-0.055555556,-0.233333376,1,0,0,0.2947,0,29,29,139,1,stiekem,images/br_stiekem.png,images/cb_stiekem.png,1,,,,,,,,,,,,,,,,,,,,,
,,,,,,00107,2023-11-20_11h33.36.671,vbt_B2_day2,2022.2.4,Win32,143.8848921,,,,,,,,,,,,,,,,,,,,,,,,,,,down,0,0.315,,,-0.055555556,-0.233333376,1,0,0,0.2712,0,30,30,108,1,excuus,images/br_excuus.png,images/cb_excuus.png,0,,,,,,,,,,,,,,,,,,,,,
,,,,,,00107,2023-11-20_11h33.36.671,vbt_B2_day2,2022.2.4,Win32,143.8848921,,,,,,,,,,,,,,,,,,,,,,,,,,,down,0,0.3685,,,-0.055555556,-0.233333376,1,0,0,0.4092,0,31,31,52,1,wagon,images/br_wagon.png,images/cb_wagon.png,0,,,,,,,,,,,,,,,,,,,,,
,,,,,,00107,2023-11-20_11h33.36.671,vbt_B2_day2,2022.2.4,Win32,143.8848921,,,,,,,,,,,,,,,,,,,,,,,,,,,down,0,0.1182,,,-0.055555556,-0.233333376,1,0,0,0.1599,0,32,32,66,1,lever,images/br_lever.png,images/cb_lever.png,0,,,,,,,,,,,,,,,,,,,,,
,,,,,,00107,2023-11-20_11h33.36.671,vbt_B2_day2,2022.2.4,Win32,143.8848921,,,,,,,,,,,,,,,,,,,,,,,,,,,down,0,0.1663,,,-0.055555556,-0.233333376,1,0,0,0.2289,0,33,33,185,1,mijnheer,images/br_mijnheer.png,images/cb_mijnheer.png,0,,,,,,,,,,,,,,,,,,,,,
,,,,,,00107,2023-11-20_11h33.36.671,vbt_B2_day2,2022.2.4,Win32,143.8848921,,,,,,,,,,,,,,,,,,,,,,,,,,,down,0,0.0765,,,-0.055555556,-0.233333376,1,0,0,0.034,0,34,34,26,1,leuk,images/br_leuk.png,images/cb_leuk.png,0,,,,,,,,,,,,,,,,,,,,,
,,,,,,00107,2023-11-20_11h33.36.671,vbt_B2_day2,2022.2.4,Win32,143.8848921,,,,,,,,,,,,,,,,,,,,,,,,,,,down,0,0.2585,,,-0.055555556,-0.233333376,1,0,0,0.222,0,35,35,118,1,vinger,images/br_vinger.png,images/cb_vinger.png,0,,,,,,,,,,,,,,,,,,,,,
,,,,,,00107,2023-11-20_11h33.36.671,vbt_B2_day2,2022.2.4,Win32,143.8848921,,,,,,,,,,,,,,,,,,,,,,,,,,,down,0,0.2305,,,-0.055555556,-0.233333376,1,0,0,0.2151,0,36,36,101,1,staren,images/br_staren.png,images/cb_staren.png,0,,,,,,,,,,,,,,,,,,,,,
,,,,,,00107,2023-11-20_11h33.36.671,vbt_B2_day2,2022.2.4,Win32,143.8848921,,,,,,,,,,,,,,,,,,,,,,,,,,,down,0,0.0082,,,-0.055555556,-0.233333376,1,0,0,0.1177,0,37,37,114,1,vullen,images/br_vullen.png,images/cb_vullen.png,0,,,,,,,,,,,,,,,,,,,,,
,,,,,,00107,2023-11-20_11h33.36.671,vbt_B2_day2,2022.2.4,Win32,143.8848921,,,,,,,,,,,,,,,,,,,,,,,,,,,down,0,0.1541,,,-0.055555556,-0.233333376,1,0,0,0.2913,0,38,38,47,1,kabel,images/br_kabel.png,images/cb_kabel.png,0,,,,,,,,,,,,,,,,,,,,,
,,,,,,00107,2023-11-20_11h33.36.671,vbt_B2_day2,2022.2.4,Win32,143.8848921,,,,,,,,,,,,,,,,,,,,,,,,,,,down,0,0.0515,,,-0.055555556,-0.233333376,1,0,0,0.1115,0,39,39,159,1,sufferd,images/br_sufferd.png,images/cb_sufferd.png,0,,,,,,,,,,,,,,,,,,,,,
,,,,,,00107,2023-11-20_11h33.36.671,vbt_B2_day2,2022.2.4,Win32,143.8848921,,,,,,,,,,,,,,,,,,,,,,,,,,,down,0,0.3825,,,-0.055555556,-0.233333376,1,0,0,0.4581,0,40,40,103,1,joggen,images/br_joggen.png,images/cb_joggen.png,0,,,,,,,,,,,,,,,,,,,,,
,,,,,,00107,2023-11-20_11h33.36.671,vbt_B2_day2,2022.2.4,Win32,143.8848921,,,,,,,,,,,,,,,,,,,,,,,,,,,down,0,0.0626,,,-0.055555556,-0.233333376,1,0,0,0.1804,0,41,41,5,1,blad,images/br_blad.png,images/cb_blad.png,0,,,,,,,,,,,,,,,,,,,,,
,,,,,,00107,2023-11-20_11h33.36.671,vbt_B2_day2,2022.2.4,Win32,143.8848921,,,,,,,,,,,,,,,,,,,,,,,,,,,down,0,0.1612,,,-0.055555556,-0.233333376,1,0,0,0.292,0,42,42,113,1,koppen,images/br_koppen.png,images/cb_koppen.png,0,,,,,,,,,,,,,,,,,,,,,
,,,,,,00107,2023-11-20_11h33.36.671,vbt_B2_day2,2022.2.4,Win32,143.8848921,,,,,,,,,,,,,,,,,,,,,,,,,,,down,0,0.1958,,,-0.055555556,-0.233333376,1,0,0,0.2432,0,43,43,44,1,flits,images/br_flits.png,images/cb_flits.png,0,,,,,,,,,,,,,,,,,,,,,
,,,,,,00107,2023-11-20_11h33.36.671,vbt_B2_day2,2022.2.4,Win32,143.8848921,,,,,,,,,,,,,,,,,,,,,,,,,,,down,0,0.3625,,,-0.055555556,-0.233333376,1,0,0,0.5273,0,44,44,36,1,vuur,images/br_vuur.png,images/cb_vuur.png,0,,,,,,,,,,,,,,,,,,,,,
,,,,,,00107,2023-11-20_11h33.36.671,vbt_B2_day2,2022.2.4,Win32,143.8848921,,,,,,,,,,,,,,,,,,,,,,,,,,,down,0,0.2724,,,-0.055555556,-0.233333376,1,0,0,0.4238,0,45,45,174,1,stemming,images/br_stemming.png,images/cb_stemming.png,0,,,,,,,,,,,,,,,,,,,,,
,,,,,,00107,2023-11-20_11h33.36.671,vbt_B2_day2,2022.2.4,Win32,143.8848921,,,,,,,,,,,,,,,,,,,,,,,,,,,down,0,0.2109,,,-0.055555556,-0.233333376,1,0,0,0.3193,0,46,46,143,1,hechten,images/br_hechten.png,images/cb_hechten.png,0,,,,,,,,,,,,,,,,,,,,,
,,,,,,00107,2023-11-20_11h33.36.671,vbt_B2_day2,2022.2.4,Win32,143.8848921,,,,,,,,,,,,,,,,,,,,,,,,,,,down,0,0.0649,,,-0.055555556,-0.233333376,1,0,0,0.021,0,47,47,194,1,driemaal,images/br_driemaal.png,images/cb_driemaal.png,0,,,,,,,,,,,,,,,,,,,,,
,,,,,,00107,2023-11-20_11h33.36.671,vbt_B2_day2,2022.2.4,Win32,143.8848921,,,,,,,,,,,,,,,,,,,,,,,,,,,down,0,0.2712,,,-0.055555556,-0.233333376,1,0,0,0.3128,0,48,48,140,1,blijven,images/br_blijven.png,images/cb_blijven.png,0,,,,,,,,,,,,,,,,,,,,,
,,,,,,00107,2023-11-20_11h33.36.671,vbt_B2_day2,2022.2.4,Win32,143.8848921,,,,,,,,,,,,,,,,,,,,,,,,,,,down,0,0.1178,,,-0.055555556,-0.233333376,1,0,0,0.1105,0,49,49,42,1,bleek,images/br_bleek.png,images/cb_bleek.png,0,,,,,,,,,,,,,,,,,,,,,
,,,,,,00107,2023-11-20_11h33.36.671,vbt_B2_day2,2022.2.4,Win32,143.8848921,,,,,,,,,,,,,,,,,,,,,,,,,,,down,0,0.2442,,,-0.055555556,-0.233333376,1,0,0,0.3266,0,50,50,190,1,goedkoop,images/br_goedkoop.png,images/cb_goedkoop.png,0,,,,,,,,,,,,,,,,,,,,,
,,,,,,00107,2023-11-20_11h33.36.671,vbt_B2_day2,2022.2.4,Win32,143.8848921,,,,,,,,,,,,,,,,,,,,,,,,,,,down,0,0.0778,,,-0.055555556,-0.233333376,1,0,0,0.2783,0,51,51,120,1,klimmen,images/br_klimmen.png,images/cb_klimmen.png,0,,,,,,,,,,,,,,,,,,,,,
,,,,,,00107,2023-11-20_11h33.36.671,vbt_B2_day2,2022.2.4,Win32,143.8848921,,,,,,,,,,,,,,,,,,,,,,,,,,,down,0,0.3327,,,-0.055555556,-0.233333376,1,0,0,0.2292,0,52,52,169,1,oprotten,images/br_oprotten.png,images/cb_oprotten.png,0,,,,,,,,,,,,,,,,,,,,,
,,,,,,00107,2023-11-20_11h33.36.671,vbt_B2_day2,2022.2.4,Win32,143.8848921,,,,,,,,,,,,,,,,,,,,,,,,,,,down,0,0.0285,,,-0.055555556,-0.233333376,1,0,0,0.0418,0,53,53,192,1,schaamte,images/br_schaamte.png,images/cb_schaamte.png,0,,,,,,,,,,,,,,,,,,,,,
,,,,,,00107,2023-11-20_11h33.36.671,vbt_B2_day2,2022.2.4,Win32,143.8848921,,,,,,,,,,,,,,,,,,,,,,,,,,,down,0,0.1819,,,-0.055555556,-0.233333376,1,0,0,0.3682,0,54,54,188,1,strekken,images/br_strekken.png,images/cb_strekken.png,0,,,,,,,,,,,,,,,,,,,,,
,,,,,,00107,2023-11-20_11h33.36.671,vbt_B2_day2,2022.2.4,Win32,143.8848921,,,,,,,,,,,,,,,,,,,,,,,,,,,down,0,0.3008,,,-0.055555556,-0.233333376,1,0,0,0.3334,0,55,55,85,1,heilig,images/br_heilig.png,images/cb_heilig.png,0,,,,,,,,,,,,,,,,,,,,,
,,,,,,00107,2023-11-20_11h33.36.671,vbt_B2_day2,2022.2.4,Win32,143.8848921,,,,,,,,,,,,,,,,,,,,,,,,,,,down,0,2.3908,maaltijd,,-0.055555556,-0.233333376,1,0,0,0.25,0,56,56,177,1,maaltijd,images/br_maaltijd.png,images/cb_maaltijd.png,1,,,,,,,,,,,,,,,,,,,,,
,,,,,,00107,2023-11-20_11h33.36.671,vbt_B2_day2,2022.2.4,Win32,143.8848921,,,,,,,,,,,,,,,,,,,,,,,,,,,down,0,10.9174,techniek,,-0.055555556,-0.233333376,1,0,0,0.2883,0,57,57,176,1,techniek,images/br_techniek.png,images/cb_techniek.png,1,,,,,,,,,,,,,,,,,,,,,
,,,,,,00107,2023-11-20_11h33.36.671,vbt_B2_day2,2022.2.4,Win32,143.8848921,,,,,,,,,,,,,,,,,,,,,,,,,,,down,0,0.2155,,,0.032407407,-0.310185185,1,0,0,0.3336,0,58,58,50,1,stoom,images/br_stoom.png,images/cb_stoom.png,0,,,,,,,,,,,,,,,,,,,,,
,,,,,,00107,2023-11-20_11h33.36.671,vbt_B2_day2,2022.2.4,Win32,143.8848921,,,,,,,,,,,,,,,,,,,,,,,,,,,down,0,0.3298,,,0.041666667,-0.179629644,1,0,0,0.1809,0,59,59,39,1,laag,images/br_laag.png,images/cb_laag.png,0,,,,,,,,,,,,,,,,,,,,,
,,,,,,00107,2023-11-20_11h33.36.671,vbt_B2_day2,2022.2.4,Win32,143.8848921,,,,,,,,,,,,,,,,,,,,,,,,,,,down,0,0.2165,,,0.041666667,-0.179629644,1,0,0,0.2847,0,60,60,119,1,liefje,images/br_liefje.png,images/cb_liefje.png,0,,,,,,,,,,,,,,,,,,,,,
,,,,,,00107,2023-11-20_11h33.36.671,vbt_B2_day2,2022.2.4,Win32,143.8848921,,,,,,,,,,,,,,,,,,,,,,,,,,,down,0,0.0147,,,0.041666667,-0.179629644,1,0,0,0.1597,0,61,61,7,1,geld,images/br_geld.png,images/cb_geld.png,0,,,,,,,,,,,,,,,,,,,,,
,,,,,,00107,2023-11-20_11h33.36.671,vbt_B2_day2,2022.2.4,Win32,143.8848921,,,,,,,,,,,,,,,,,,,,,,,,,,,down,0,0.0923,,,0.041666667,-0.179629644,1,0,0,0.16,0,62,62,55,1,praat,images/br_praat.png,images/cb_praat.png,0,,,,,,,,,,,,,,,,,,,,,
,,,,,,00107,2023-11-20_11h33.36.671,vbt_B2_day2,2022.2.4,Win32,143.8848921,,,,,,,,,,,,,,,,,,,,,,,,,,,down,0,10.709,huisdier,,0.055555556,-0.256481524,1,0,0,0.7711,0,63,63,178,1,huisdier,images/br_huisdier.png,images/cb_huisdier.png,1,,,,,,,,,,,,,,,,,,,,,
,,,,,,00107,2023-11-20_11h33.36.671,vbt_B2_day2,2022.2.4,Win32,143.8848921,,,,,,,,,,,,,,,,,,,,,,,,,,,down,0,0.397,,,0.103703746,-0.287037037,1,0,0,0.4101,0,64,64,32,1,palm,images/br_palm.png,images/cb_palm.png,0,,,,,,,,,,,,,,,,,,,,,
,,,,,,00107,2023-11-20_11h33.36.671,vbt_B2_day2,2022.2.4,Win32,143.8848921,,,,,,,,,,,,,,,,,,,,,,,,,,,down,0,0.0875,,,0.055555556,-0.191666709,1,0,0,0.0684,0,65,65,65,1,parel,images/br_parel.png,images/cb_parel.png,0,,,,,,,,,,,,,,,,,,,,,
,,,,,,00107,2023-11-20_11h33.36.671,vbt_B2_day2,2022.2.4,Win32,143.8848921,,,,,,,,,,,,,,,,,,,,,,,,,,,down,0,0.2016,,,0.055555556,-0.191666709,1,0,0,0.2709,0,66,66,142,1,snuiven,images/br_snuiven.png,images/cb_snuiven.png,0,,,,,,,,,,,,,,,,,,,,,
,,,,,,00107,2023-11-20_11h33.36.671,vbt_B2_day2,2022.2.4,Win32,143.8848921,,,,,,,,,,,,,,,,,,,,,,,,,,,down,0,0.2237,,,0.055555556,-0.191666709,1,0,0,0.3283,0,67,67,181,1,toegeven,images/br_toegeven.png,images/cb_toegeven.png,0,,,,,,,,,,,,,,,,,,,,,
,,,,,,00107,2023-11-20_11h33.36.671,vbt_B2_day2,2022.2.4,Win32,143.8848921,,,,,,,,,,,,,,,,,,,,,,,,,,,down,0,0.3001,,,0.055555556,-0.191666709,1,0,0,0.9791,0,68,68,91,1,gezond,images/br_gezond.png,images/cb_gezond.png,0,,,,,,,,,,,,,,,,,,,,,
,,,,,,00107,2023-11-20_11h33.36.671,vbt_B2_day2,2022.2.4,Win32,143.8848921,,,,,,,,,,,,,,,,,,,,,,,,,,,down,0,0.3127,,,0.055555556,-0.191666709,1,0,0,0.2693,0,69,69,3,1,mand,images/br_mand.png,images/cb_mand.png,0,,,,,,,,,,,,,,,,,,,,,
,,,,,,00107,2023-11-20_11h33.36.671,vbt_B2_day2,2022.2.4,Win32,143.8848921,,,,,,,,,,,,,,,,,,,,,,,,,,,down,0,0.2521,,,0.055555556,-0.191666709,1,0,0,0.1667,0,70,70,63,1,flirt,images/br_flirt.png,images/cb_flirt.png,0,,,,,,,,,,,,,,,,,,,,,
,,,,,,00107,2023-11-20_11h33.36.671,vbt_B2_day2,2022.2.4,Win32,143.8848921,,,,,,,,,,,,,,,,,,,,,,,,,,,down,0,0.1984,,,0.055555556,-0.191666709,1,0,0,0.1458,0,71,71,125,1,aanzien,images/br_aanzien.png,images/cb_aanzien.png,0,,,,,,,,,,,,,,,,,,,,,
,,,,,,00107,2023-11-20_11h33.36.671,vbt_B2_day2,2022.2.4,Win32,143.8848921,,,,,,,,,,,,,,,,,,,,,,,,,,,down,0,0.6353,giet,,0.055555556,-0.191666709,1,0,0,0.3333,0,72,72,19,1,geit,images/br_geit.png,images/cb_geit.png,1,,,,,,,,,,,,,,,,,,,,,
,,,,,,00107,2023-11-20_11h33.36.671,vbt_B2_day2,2022.2.4,Win32,143.8848921,,,,,,,,,,,,,,,,,,,,,,,,,,,down,0,0.4324,,,0.055555556,-0.191666709,1,0,0,0.3474,0,73,73,112,1,lukken,images/br_lukken.png,images/cb_lukken.png,0,,,,,,,,,,,,,,,,,,,,,
,,,,,,00107,2023-11-20_11h33.36.671,vbt_B2_day2,2022.2.4,Win32,143.8848921,,,,,,,,,,,,,,,,,,,,,,,,,,,down,0,0.2516,,,0.055555556,-0.191666709,1,0,0,0.2919,0,74,74,115,1,kleren,images/br_kleren.png,images/cb_kleren.png,0,,,,,,,,,,,,,,,,,,,,,
,,,,,,00107,2023-11-20_11h33.36.671,vbt_B2_day2,2022.2.4,Win32,143.8848921,,,,,,,,,,,,,,,,,,,,,,,,,,,down,0,0.1882,,,0.055555556,-0.191666709,1,0,0,0.2151,0,75,75,130,1,keihard,images/br_keihard.png,images/cb_keihard.png,0,,,,,,,,,,,,,,,,,,,,,
,,,,,,00107,2023-11-20_11h33.36.671,vbt_B2_day2,2022.2.4,Win32,143.8848921,,,,,,,,,,,,,,,,,,,,,,,,,,,down,0,0.5579,,,0.055555556,-0.191666709,1,0,0,2.3423,0,76,76,153,1,vervoer,images/br_vervoer.png,images/cb_vervoer.png,0,,,,,,,,,,,,,,,,,,,,,
,,,,,,00107,2023-11-20_11h33.36.671,vbt_B2_day2,2022.2.4,Win32,143.8848921,,,,,,,,,,,,,,,,,,,,,,,,,,,down,0,0.2106,,,0.091666681,-0.158333319,1,0,0,0.2973,0,77,77,116,1,besmet,images/br_besmet.png,images/cb_besmet.png,0,,,,,,,,,,,,,,,,,,,,,
,,,,,,00107,2023-11-20_11h33.36.671,vbt_B2_day2,2022.2.4,Win32,143.8848921,,,,,,,,,,,,,,,,,,,,,,,,,,,down,0,0.2214,,,0.091666681,-0.158333319,1,0,0,0.3057,0,78,78,147,1,komisch,images/br_komisch.png,images/cb_komisch.png,0,,,,,,,,,,,,,,,,,,,,,
,,,,,,00107,2023-11-20_11h33.36.671,vbt_B2_day2,2022.2.4,Win32,143.8848921,,,,,,,,,,,,,,,,,,,,,,,,,,,down,0,0.1672,,,0.091666681,-0.158333319,1,0,0,0.3058,0,79,79,123,1,hiervan,images/br_hiervan.png,images/cb_hiervan.png,0,,,,,,,,,,,,,,,,,,,,,
,,,,,,00107,2023-11-20_11h33.36.671,vbt_B2_day2,2022.2.4,Win32,143.8848921,,,,,,,,,,,,,,,,,,,,,,,,,,,down,0,0.3042,,,0.091666681,-0.158333319,1,0,0,0.2916,0,80,80,100,1,geduld,images/br_geduld.png,images/cb_geduld.png,0,,,,,,,,,,,,,,,,,,,,,
,,,,,,00107,2023-11-20_11h33.36.671,vbt_B2_day2,2022.2.4,Win32,143.8848921,,,,,,,,,,,,,,,,,,,,,,,,,,,down,0,0.2225,,,0.091666681,-0.158333319,1,0,0,0.6736,0,81,81,12,1,kust,images/br_kust.png,images/cb_kust.png,0,,,,,,,,,,,,,,,,,,,,,
,,,,,,00107,2023-11-20_11h33.36.671,vbt_B2_day2,2022.2.4,Win32,143.8848921,,,,,,,,,,,,,,,,,,,,,,,,,,,down,0,3.5932,trekker,,0.091666681,-0.158333319,1,0,0,0.4948,0,82,82,137,1,trekker,images/br_trekker.png,images/cb_trekker.png,1,,,,,,,,,,,,,,,,,,,,,
,,,,,,00107,2023-11-20_11h33.36.671,vbt_B2_day2,2022.2.4,Win32,143.8848921,,,,,,,,,,,,,,,,,,,,,,,,,,,down,0,0.3716,,,0.091666681,-0.158333319,1,0,0,0.416,0,83,83,8,1,knie,images/br_knie.png,images/cb_knie.png,0,,,,,,,,,,,,,,,,,,,,,
,,,,,,00107,2023-11-20_11h33.36.671,vbt_B2_day2,2022.2.4,Win32,143.8848921,,,,,,,,,,,,,,,,,,,,,,,,,,,down,0,1.1964,slagen,,0.091666681,-0.158333319,1,0,0,0.3055,0,84,84,96,1,slagen,images/br_slagen.png,images/cb_slagen.png,1,,,,,,,,,,,,,,,,,,,,,
,,,,,,00107,2023-11-20_11h33.36.671,vbt_B2_day2,2022.2.4,Win32,143.8848921,,,,,,,,,,,,,,,,,,,,,,,,,,,down,0,0.6348,,,0.099074116,-0.343518504,1,0,0,0.6459,0,85,85,29,1,baas,images/br_baas.png,images/cb_baas.png,0,,,,,,,,,,,,,,,,,,,,,
,,,,,,00107,2023-11-20_11h33.36.671,vbt_B2_day2,2022.2.4,Win32,143.8848921,,,,,,,,,,,,,,,,,,,,,,,,,,,down,0,0.1728,,,0.099074116,-0.343518504,1,0,0,0.2986,0,86,86,28,1,stal,images/br_stal.png,images/cb_stal.png,0,,,,,,,,,,,,,,,,,,,,,
,,,,,,00107,2023-11-20_11h33.36.671,vbt_B2_day2,2022.2.4,Win32,143.8848921,,,,,,,,,,,,,,,,,,,,,,,,,,,down,0,0.0368,,,0.099074116,-0.343518504,1,0,0,0.2153,0,87,87,145,1,invloed,images/br_invloed.png,images/cb_invloed.png,0,,,,,,,,,,,,,,,,,,,,,
,,,,,,00107,2023-11-20_11h33.36.671,vbt_B2_day2,2022.2.4,Win32,143.8848921,,,,,,,,,,,,,,,,,,,,,,,,,,,down,0,0.2991,,,0.099074116,-0.343518504,1,0,0,0.4382,0,88,88,197,1,spanning,images/br_spanning.png,images/cb_spanning.png,0,,,,,,,,,,,,,,,,,,,,,
,,,,,,00107,2023-11-20_11h33.36.671,vbt_B2_day2,2022.2.4,Win32,143.8848921,,,,,,,,,,,,,,,,,,,,,,,,,,,down,0,0.1944,,,0.099074116,-0.343518504,1,0,0,0.1896,0,89,89,86,1,woning,images/br_woning.png,images/cb_woning.png,0,,,,,,,,,,,,,,,,,,,,,
,,,,,,00107,2023-11-20_11h33.36.671,vbt_B2_day2,2022.2.4,Win32,143.8848921,,,,,,,,,,,,,,,,,,,,,,,,,,,down,0,0.1195,,,0.099074116,-0.343518504,1,0,0,0.2085,0,90,90,45,1,piste,images/br_piste.png,images/cb_piste.png,0,,,,,,,,,,,,,,,,,,,,,
,,,,,,00107,2023-11-20_11h33.36.671,vbt_B2_day2,2022.2.4,Win32,143.8848921,,,,,,,,,,,,,,,,,,,,,,,,,,,down,0,0.2782,,,0.099074116,-0.343518504,1,0,0,0.2853,0,91,91,25,1,plek,images/br_plek.png,images/cb_plek.png,0,,,,,,,,,,,,,,,,,,,,,
,,,,,,00107,2023-11-20_11h33.36.671,vbt_B2_day2,2022.2.4,Win32,143.8848921,,,,,,,,,,,,,,,,,,,,,,,,,,,down,0,0.3755,,,0.099074116,-0.343518504,1,0,0,0.3074,0,92,92,74,1,graaf,images/br_graaf.png,images/cb_graaf.png,0,,,,,,,,,,,,,,,,,,,,,
,,,,,,00107,2023-11-20_11h33.36.671,vbt_B2_day2,2022.2.4,Win32,143.8848921,,,,,,,,,,,,,,,,,,,,,,,,,,,down,0,0.2238,,,0.099074116,-0.343518504,1,0,0,0.3444,0,93,93,182,1,bijkomen,images/br_bijkomen.png,images/cb_bijkomen.png,0,,,,,,,,,,,,,,,,,,,,,
,,,,,,00107,2023-11-20_11h33.36.671,vbt_B2_day2,2022.2.4,Win32,143.8848921,,,,,,,,,,,,,,,,,,,,,,,,,,,down,0,0.2647,,,0.099074116,-0.343518504,1,0,0,0.3473,0,94,94,82,1,muziek,images/br_muziek.png,images/cb_muziek.png,0,,,,,,,,,,,,,,,,,,,,,
,,,,,,00107,2023-11-20_11h33.36.671,vbt_B2_day2,2022.2.4,Win32,143.8848921,,,,,,,,,,,,,,,,,,,,,,,,,,,down,0,0.3914,,,0.099074116,-0.343518504,1,0,0,0.3092,0,95,95,132,1,grappen,images/br_grappen.png,images/cb_grappen.png,0,,,,,,,,,,,,,,,,,,,,,
,,,,,,00107,2023-11-20_11h33.36.671,vbt_B2_day2,2022.2.4,Win32,143.8848921,,,,,,,,,,,,,,,,,,,,,,,,,,,down,0,0.1674,,,0.099074116,-0.343518504,1,0,0,0.2916,0,96,96,70,1,ijdel,images/br_ijdel.png,images/cb_ijdel.png,0,,,,,,,,,,,,,,,,,,,,,
,,,,,,00107,2023-11-20_11h33.36.671,vbt_B2_day2,2022.2.4,Win32,143.8848921,,,,,,,,,,,,,,,,,,,,,,,,,,,down,0,0.1463,,,0.099074116,-0.343518504,1,0,0,0.185,0,97,97,13,1,kaal,images/br_kaal.png,images/cb_kaal.png,0,,,,,,,,,,,,,,,,,,,,,
,,,,,,00107,2023-11-20_11h33.36.671,vbt_B2_day2,2022.2.4,Win32,143.8848921,,,,,,,,,,,,,,,,,,,,,,,,,,,down,0,0.265,,,0.099074116,-0.343518504,1,0,0,0.6548,0,98,98,107,1,maling,images/br_maling.png,images/cb_maling.png,0,,,,,,,,,,,,,,,,,,,,,
,,,,,,00107,2023-11-20_11h33.36.671,vbt_B2_day2,2022.2.4,Win32,143.8848921,,,,,,,,,,,,,,,,,,,,,,,,,,,down,0,0.2535,,,0.099074116,-0.343518504,1,0,0,0.1645,0,99,99,187,1,opkijken,images/br_opkijken.png,images/cb_opkijken.png,0,,,,,,,,,,,,,,,,,,,,,
,,,,,,00107,2023-11-20_11h33.36.671,vbt_B2_day2,2022.2.4,Win32,143.8848921,,,,,,,,,,,,,,,,,,,,,,,,,,,down,0,1.628,kring,,0.099074116,-0.343518504,1,0,0,0.6731,0,100,100,59,1,kring,images/br_kring.png,images/cb_kring.png,1,,,,,,,,,,,,,,,,,,,,,
,,,,,,00107,2023-11-20_11h33.36.671,vbt_B2_day2,2022.2.4,Win32,143.8848921,,,,,,,,,,,,,,,,,,,,,,,,,,,down,0,0.2775,,,0.099074116,-0.343518504,1,0,0,0.3284,0,101,101,109,1,totaal,images/br_totaal.png,images/cb_totaal.png,0,,,,,,,,,,,,,,,,,,,,,
,,,,,,00107,2023-11-20_11h33.36.671,vbt_B2_day2,2022.2.4,Win32,143.8848921,,,,,,,,,,,,,,,,,,,,,,,,,,,down,0,0.1674,,,0.099074116,-0.343518504,1,0,0,0.4048,0,102,102,30,1,uien,images/br_uien.png,images/cb_uien.png,0,,,,,,,,,,,,,,,,,,,,,
,,,,,,00107,2023-11-20_11h33.36.671,vbt_B2_day2,2022.2.4,Win32,143.8848921,,,,,,,,,,,,,,,,,,,,,,,,,,,down,0,0.369,,,0.099074116,-0.343518504,1,0,0,1.0697,0,103,103,43,1,klauw,images/br_klauw.png,images/cb_klauw.png,0,,,,,,,,,,,,,,,,,,,,,
,,,,,,00107,2023-11-20_11h33.36.671,vbt_B2_day2,2022.2.4,Win32,143.8848921,,,,,,,,,,,,,,,,,,,,,,,,,,,down,0,0.3149,,,0.099074116,-0.343518504,1,0,0,0.2171,0,104,104,49,1,laken,images/br_laken.png,images/cb_laken.png,0,,,,,,,,,,,,,,,,,,,,,
,,,,,,00107,2023-11-20_11h33.36.671,vbt_B2_day2,2022.2.4,Win32,143.8848921,,,,,,,,,,,,,,,,,,,,,,,,,,,down,0,0.1566,,,0.099074116,-0.343518504,1,0,0,0.3664,0,105,105,0,1,slak,images/br_slak.png,images/cb_slak.png,0,,,,,,,,,,,,,,,,,,,,,
,,,,,,00107,2023-11-20_11h33.36.671,vbt_B2_day2,2022.2.4,Win32,143.8848921,,,,,,,,,,,,,,,,,,,,,,,,,,,down,0,0.3176,,,0.099074116,-0.343518504,1,0,0,0.2446,0,106,106,195,1,middelen,images/br_middelen.png,images/cb_middelen.png,0,,,,,,,,,,,,,,,,,,,,,
,,,,,,00107,2023-11-20_11h33.36.671,vbt_B2_day2,2022.2.4,Win32,143.8848921,,,,,,,,,,,,,,,,,,,,,,,,,,,down,0,0.0218,,,0.099074116,-0.343518504,1,0,0,0.0695,0,107,107,62,1,knaap,images/br_knaap.png,images/cb_knaap.png,0,,,,,,,,,,,,,,,,,,,,,
,,,,,,00107,2023-11-20_11h33.36.671,vbt_B2_day2,2022.2.4,Win32,143.8848921,,,,,,,,,,,,,,,,,,,,,,,,,,,down,0,0.2025,,,0.099074116,-0.343518504,1,0,0,0.2991,0,108,108,173,1,apparaat,images/br_apparaat.png,images/cb_apparaat.png,0,,,,,,,,,,,,,,,,,,,,,
,,,,,,00107,2023-11-20_11h33.36.671,vbt_B2_day2,2022.2.4,Win32,143.8848921,,,,,,,,,,,,,,,,,,,,,,,,,,,down,0,0.2441,,,0.099074116,-0.343518504,1,0,0,0.3192,0,109,109,81,1,dubbel,images/br_dubbel.png,images/cb_dubbel.png,0,,,,,,,,,,,,,,,,,,,,,
,,,,,,00107,2023-11-20_11h33.36.671,vbt_B2_day2,2022.2.4,Win32,143.8848921,,,,,,,,,,,,,,,,,,,,,,,,,,,down,0,0.045,,,0.099074116,-0.343518504,1,0,0,0.2798,0,110,110,35,1,lust,images/br_lust.png,images/cb_lust.png,0,,,,,,,,,,,,,,,,,,,,,
,,,,,,00107,2023-11-20_11h33.36.671,vbt_B2_day2,2022.2.4,Win32,143.8848921,,,,,,,,,,,,,,,,,,,,,,,,,,,down,0,0.1604,,,0.099074116,-0.343518504,1,0,0,0.3106,0,111,111,154,1,aflopen,images/br_aflopen.png,images/cb_aflopen.png,0,,,,,,,,,,,,,,,,,,,,,
,,,,,,00107,2023-11-20_11h33.36.671,vbt_B2_day2,2022.2.4,Win32,143.8848921,,,,,,,,,,,,,,,,,,,,,,,,,,,down,0,0.2675,,,0.099074116,-0.343518504,1,0,0,0.2237,0,112,112,10,1,leek,images/br_leek.png,images/cb_leek.png,0,,,,,,,,,,,,,,,,,,,,,
,,,,,,00107,2023-11-20_11h33.36.671,vbt_B2_day2,2022.2.4,Win32,143.8848921,,,,,,,,,,,,,,,,,,,,,,,,,,,down,0,0.0564,,,0.099074116,-0.343518504,1,0,0,0.1458,0,113,113,33,1,vlek,images/br_vlek.png,images/cb_vlek.png,0,,,,,,,,,,,,,,,,,,,,,
,,,,,,00107,2023-11-20_11h33.36.671,vbt_B2_day2,2022.2.4,Win32,143.8848921,,,,,,,,,,,,,,,,,,,,,,,,,,,down,0,0.2669,,,0.099074116,-0.343518504,1,0,0,0.2034,0,114,114,170,1,schatten,images/br_schatten.png,images/cb_schatten.png,0,,,,,,,,,,,,,,,,,,,,,
,,,,,,00107,2023-11-20_11h33.36.671,vbt_B2_day2,2022.2.4,Win32,143.8848921,,,,,,,,,,,,,,,,,,,,,,,,,,,down,0,0.1547,,,0.099074116,-0.343518504,1,0,0,0.0203,0,115,115,128,1,prikken,images/br_prikken.png,images/cb_prikken.png,0,,,,,,,,,,,,,,,,,,,,,
,,,,,,00107,2023-11-20_11h33.36.671,vbt_B2_day2,2022.2.4,Win32,143.8848921,,,,,,,,,,,,,,,,,,,,,,,,,,,down,0,0.2509,,,0.099074116,-0.343518504,1,0,0,0.2714,0,116,116,186,1,voorraad,images/br_voorraad.png,images/cb_voorraad.png,0,,,,,,,,,,,,,,,,,,,,,
,,,,,,00107,2023-11-20_11h33.36.671,vbt_B2_day2,2022.2.4,Win32,143.8848921,,,,,,,,,,,,,,,,,,,,,,,,,,,down,0,0.5425,blik,,0.099074116,-0.343518504,1,0,0,0.4722,0,117,117,18,1,blik,images/br_blik.png,images/cb_blik.png,1,,,,,,,,,,,,,,,,,,,,,
,,,,,,00107,2023-11-20_11h33.36.671,vbt_B2_day2,2022.2.4,Win32,143.8848921,,,,,,,,,,,,,,,,,,,,,,,,,,,down,0,0.2995,,,0.099074116,-0.343518504,1,0,0,0.2917,0,118,118,168,1,bisschop,images/br_bisschop.png,images/cb_bisschop.png,0,,,,,,,,,,,,,,,,,,,,,
,,,,,,00107,2023-11-20_11h33.36.671,vbt_B2_day2,2022.2.4,Win32,143.8848921,,,,,,,,,,,,,,,,,,,,,,,,,,,down,0,0.1812,,,0.099074116,-0.343518504,1,0,0,0.0487,0,119,119,110,1,zuster,images/br_zuster.png,images/cb_zuster.png,0,,,,,,,,,,,,,,,,,,,,,
,,,,,,00107,2023-11-20_11h33.36.671,vbt_B2_day2,2022.2.4,Win32,143.8848921,,,,,,,,,,,,,,,,,,,,,,,,,,,down,0,0.2856,,,0.099074116,-0.343518504,1,0,0,0.2984,0,120,120,167,1,eenhoorn,images/br_eenhoorn.png,images/cb_eenhoorn.png,0,,,,,,,,,,,,,,,,,,,,,
,,,,,,00107,2023-11-20_11h33.36.671,vbt_B2_day2,2022.2.4,Win32,143.8848921,,,,,,,,,,,,,,,,,,,,,,,,,,,down,0,0.0293,,,0.099074116,-0.343518504,1,0,0,0.1037,0,121,121,146,1,opkomen,images/br_opkomen.png,images/cb_opkomen.png,0,,,,,,,,,,,,,,,,,,,,,
,,,,,,00107,2023-11-20_11h33.36.671,vbt_B2_day2,2022.2.4,Win32,143.8848921,,,,,,,,,,,,,,,,,,,,,,,,,,,down,0,0.3892,,,0.099074116,-0.343518504,1,0,0,0.7711,0,122,122,152,1,afnemen,images/br_afnemen.png,images/cb_afnemen.png,0,,,,,,,,,,,,,,,,,,,,,
,,,,,,00107,2023-11-20_11h33.36.671,vbt_B2_day2,2022.2.4,Win32,143.8848921,,,,,,,,,,,,,,,,,,,,,,,,,,,down,0,0.2323,,,0.099074116,-0.343518504,1,0,0,0.3124,0,123,123,175,1,heengaan,images/br_heengaan.png,images/cb_heengaan.png,0,,,,,,,,,,,,,,,,,,,,,
,,,,,,00107,2023-11-20_11h33.36.671,vbt_B2_day2,2022.2.4,Win32,143.8848921,,,,,,,,,,,,,,,,,,,,,,,,,,,down,0,0.3347,,,0.099074116,-0.343518504,1,0,0,0.3544,0,124,124,141,1,knielen,images/br_knielen.png,images/cb_knielen.png,0,,,,,,,,,,,,,,,,,,,,,
,,,,,,00107,2023-11-20_11h33.36.671,vbt_B2_day2,2022.2.4,Win32,143.8848921,,,,,,,,,,,,,,,,,,,,,,,,,,,down,0,3.2313,akkoord,,0.099074116,-0.343518504,1,0,0,0.2641,0,125,125,138,1,akkoord,images/br_akkoord.png,images/cb_akkoord.png,1,,,,,,,,,,,,,,,,,,,,,
,,,,,,00107,2023-11-20_11h33.36.671,vbt_B2_day2,2022.2.4,Win32,143.8848921,,,,,,,,,,,,,,,,,,,,,,,,,,,down,0,0.2717,,,0.099074116,-0.343518504,1,0,0,0.3058,0,126,126,104,1,zweven,images/br_zweven.png,images/cb_zweven.png,0,,,,,,,,,,,,,,,,,,,,,
,,,,,,00107,2023-11-20_11h33.36.671,vbt_B2_day2,2022.2.4,Win32,143.8848921,,,,,,,,,,,,,,,,,,,,,,,,,,,down,0,0.2931,,,0.127777806,-0.208333333,1,0,0,0.1944,0,127,127,51,1,samen,images/br_samen.png,images/cb_samen.png,0,,,,,,,,,,,,,,,,,,,,,
,,,,,,00107,2023-11-20_11h33.36.671,vbt_B2_day2,2022.2.4,Win32,143.8848921,,,,,,,,,,,,,,,,,,,,,,,,,,,down,0,0.0653,,,0.127777806,-0.208333333,1,0,0,0.1809,0,128,128,69,1,waken,images/br_waken.png,images/cb_waken.png,0,,,,,,,,,,,,,,,,,,,,,
,,,,,,00107,2023-11-20_11h33.36.671,vbt_B2_day2,2022.2.4,Win32,143.8848921,,,,,,,,,,,,,,,,,,,,,,,,,,,down,0,0.3883,,,0.127777806,-0.208333333,1,0,0,0.4233,0,129,129,9,1,hier,images/br_hier.png,images/cb_hier.png,0,,,,,,,,,,,,,,,,,,,,,
,,,,,,00107,2023-11-20_11h33.36.671,vbt_B2_day2,2022.2.4,Win32,143.8848921,,,,,,,,,,,,,,,,,,,,,,,,,,,down,0,0.3063,,,0.127777806,-0.208333333,1,0,0,0.327,0,130,130,92,1,geheim,images/br_geheim.png,images/cb_geheim.png,0,,,,,,,,,,,,,,,,,,,,,
,,,,,,00107,2023-11-20_11h33.36.671,vbt_B2_day2,2022.2.4,Win32,143.8848921,,,,,,,,,,,,,,,,,,,,,,,,,,,down,0,0.2102,,,0.127777806,-0.208333333,1,0,0,0.3269,0,131,131,102,1,legaal,images/br_legaal.png,images/cb_legaal.png,0,,,,,,,,,,,,,,,,,,,,,
,,,,,,00107,2023-11-20_11h33.36.671,vbt_B2_day2,2022.2.4,Win32,143.8848921,,,,,,,,,,,,,,,,,,,,,,,,,,,down,0,0.0148,,,0.127777806,-0.208333333,1,0,0,0.1877,0,132,132,22,1,stof,images/br_stof.png,images/cb_stof.png,0,,,,,,,,,,,,,,,,,,,,,
,,,,,,00107,2023-11-20_11h33.36.671,vbt_B2_day2,2022.2.4,Win32,143.8848921,,,,,,,,,,,,,,,,,,,,,,,,,,,down,0,0.0157,,,0.127777806,-0.208333333,1,0,0,0.18,0,133,133,117,1,kennis,images/br_kennis.png,images/cb_kennis.png,0,,,,,,,,,,,,,,,,,,,,,
,,,,,,00107,2023-11-20_11h33.36.671,vbt_B2_day2,2022.2.4,Win32,143.8848921,,,,,,,,,,,,,,,,,,,,,,,,,,,down,0,0.1886,,,0.127777806,-0.208333333,1,0,0,0.3192,0,134,134,84,1,lokken,images/br_lokken.png,images/cb_lokken.png,0,,,,,,,,,,,,,,,,,,,,,
,,,,,,00107,2023-11-20_11h33.36.671,vbt_B2_day2,2022.2.4,Win32,143.8848921,,,,,,,,,,,,,,,,,,,,,,,,,,,down,0,0.1052,,,0.127777806,-0.208333333,1,0,0,0.2565,0,135,135,198,1,bedoelen,images/br_bedoelen.png,images/cb_bedoelen.png,0,,,,,,,,,,,,,,,,,,,,,
,,,,,,00107,2023-11-20_11h33.36.671,vbt_B2_day2,2022.2.4,Win32,143.8848921,,,,,,,,,,,,,,,,,,,,,,,,,,,down,0,0.2173,,,0.127777806,-0.208333333,1,0,0,0.3198,0,136,136,134,1,geliefd,images/br_geliefd.png,images/cb_geliefd.png,0,,,,,,,,,,,,,,,,,,,,,
,,,,,,00107,2023-11-20_11h33.36.671,vbt_B2_day2,2022.2.4,Win32,143.8848921,,,,,,,,,,,,,,,,,,,,,,,,,,,down,0,0.1816,ziek,,0.127777806,-0.208333333,1,0,0,0.4581,0,137,137,16,1,ziek,images/br_ziek.png,images/cb_ziek.png,1,,,,,,,,,,,,,,,,,,,,,
,,,,,,00107,2023-11-20_11h33.36.671,vbt_B2_day2,2022.2.4,Win32,143.8848921,,,,,,,,,,,,,,,,,,,,,,,,,,,down,0,0.231,,,0.127777806,-0.208333333,1,0,0,0.3258,0,138,138,90,1,geluid,images/br_geluid.png,images/cb_geluid.png,0,,,,,,,,,,,,,,,,,,,,,
,,,,,,00107,2023-11-20_11h33.36.671,vbt_B2_day2,2022.2.4,Win32,143.8848921,,,,,,,,,,,,,,,,,,,,,,,,,,,down,0,0.2822,,,0.127777806,-0.208333333,1,0,0,0.3549,0,139,139,27,1,dans,images/br_dans.png,images/cb_dans.png,0,,,,,,,,,,,,,,,,,,,,,
,,,,,,00107,2023-11-20_11h33.36.671,vbt_B2_day2,2022.2.4,Win32,143.8848921,,,,,,,,,,,,,,,,,,,,,,,,,,,down,0,4.0673,koffie,,0.127777806,-0.208333333,1,0,0,0.376,0,140,140,99,1,koffie,images/br_koffie.png,images/cb_koffie.png,1,,,,,,,,,,,,,,,,,,,,,
,,,,,,00107,2023-11-20_11h33.36.671,vbt_B2_day2,2022.2.4,Win32,143.8848921,,,,,,,,,,,,,,,,,,,,,,,,,,,down,0,0.1667,,,0.127777806,-0.208333333,1,0,0,0.3265,0,141,141,163,1,schuilen,images/br_schuilen.png,images/cb_schuilen.png,0,,,,,,,,,,,,,,,,,,,,,
,,,,,,00107,2023-11-20_11h33.36.671,vbt_B2_day2,2022.2.4,Win32,143.8848921,,,,,,,,,,,,,,,,,,,,,,,,,,,down,0,0.1417,,,0.127777806,-0.208333333,1,0,0,0.0245,0,142,142,64,1,wegen,images/br_wegen.png,images/cb_wegen.png,0,,,,,,,,,,,,,,,,,,,,,
,,,,,,00107,2023-11-20_11h33.36.671,vbt_B2_day2,2022.2.4,Win32,143.8848921,,,,,,,,,,,,,,,,,,,,,,,,,,,down,0,0.2166,,,0.127777806,-0.208333333,1,0,0,0.2427,0,143,143,126,1,kasteel,images/br_kasteel.png,images/cb_kasteel.png,0,,,,,,,,,,,,,,,,,,,,,
,,,,,,00107,2023-11-20_11h33.36.671,vbt_B2_day2,2022.2.4,Win32,143.8848921,,,,,,,,,,,,,,,,,,,,,,,,,,,down,0,0.1536,,,0.127777806,-0.208333333,1,0,0,0.2758,0,144,144,40,1,schep,images/br_schep.png,images/cb_schep.png,0,,,,,,,,,,,,,,,,,,,,,
,,,,,,00107,2023-11-20_11h33.36.671,vbt_B2_day2,2022.2.4,Win32,143.8848921,,,,,,,,,,,,,,,,,,,,,,,,,,,down,0,3.1723,kreeft,,0.127777806,-0.208333333,1,0,0,0.5865,0,145,145,98,1,kreeft,images/br_kreeft.png,images/cb_kreeft.png,1,,,,,,,,,,,,,,,,,,,,,
,,,,,,00107,2023-11-20_11h33.36.671,vbt_B2_day2,2022.2.4,Win32,143.8848921,,,,,,,,,,,,,,,,,,,,,,,,,,,down,0,1.4259,tekst,,0.127777806,-0.208333333,1,0,0,0.5933,0,146,146,58,1,tekst,images/br_tekst.png,images/cb_tekst.png,1,,,,,,,,,,,,,,,,,,,,,
,,,,,,00107,2023-11-20_11h33.36.671,vbt_B2_day2,2022.2.4,Win32,143.8848921,,,,,,,,,,,,,,,,,,,,,,,,,,,down,0,0.1939,,,0.158333319,-0.357407393,1,0,0,0.2172,0,147,147,2,1,jaar,images/br_jaar.png,images/cb_jaar.png,0,,,,,,,,,,,,,,,,,,,,,
,,,,,,00107,2023-11-20_11h33.36.671,vbt_B2_day2,2022.2.4,Win32,143.8848921,,,,,,,,,,,,,,,,,,,,,,,,,,,down,0,0.2078,,,0.145370413,-0.246296282,1,0,0,0.3086,0,148,148,131,1,opzicht,images/br_opzicht.png,images/cb_opzicht.png,0,,,,,,,,,,,,,,,,,,,,,
,,,,,,00107,2023-11-20_11h33.36.671,vbt_B2_day2,2022.2.4,Win32,143.8848921,,,,,,,,,,,,,,,,,,,,,,,,,,,down,0,0.1544,,,0.145370413,-0.246296282,1,0,0,0.0766,0,149,149,105,1,wijlen,images/br_wijlen.png,images/cb_wijlen.png,0,,,,,,,,,,,,,,,,,,,,,
,,,,,,00107,2023-11-20_11h33.36.671,vbt_B2_day2,2022.2.4,Win32,143.8848921,,,,,,,,,,,,,,,,,,,,,,,,,,,down,0,0.1638,,,0.145370413,-0.246296282,1,0,0,0.1749,0,150,150,20,1,site,images/br_site.png,images/cb_site.png,0,,,,,,,,,,,,,,,,,,,,,
,,,,,,00107,2023-11-20_11h33.36.671,vbt_B2_day2,2022.2.4,Win32,143.8848921,,,,,,,,,,,,,,,,,,,,,,,,,,,down,0,0.4037,,,0.145370413,-0.246296282,1,0,0,0.3341,0,151,151,94,1,oceaan,images/br_oceaan.png,images/cb_oceaan.png,0,,,,,,,,,,,,,,,,,,,,,
,,,,,,00107,2023-11-20_11h33.36.671,vbt_B2_day2,2022.2.4,Win32,143.8848921,,,,,,,,,,,,,,,,,,,,,,,,,,,down,0,0.2856,,,0.145370413,-0.246296282,1,0,0,0.4949,0,152,152,122,1,waarvan,images/br_waarvan.png,images/cb_waarvan.png,0,,,,,,,,,,,,,,,,,,,,,
,,,,,,00107,2023-11-20_11h33.36.671,vbt_B2_day2,2022.2.4,Win32,143.8848921,,,,,,,,,,,,,,,,,,,,,,,,,,,down,0,0.258,,,0.145370413,-0.246296282,1,0,0,0.2757,0,153,153,24,1,jurk,images/br_jurk.png,images/cb_jurk.png,0,,,,,,,,,,,,,,,,,,,,,
,,,,,,00107,2023-11-20_11h33.36.671,vbt_B2_day2,2022.2.4,Win32,143.8848921,,,,,,,,,,,,,,,,,,,,,,,,,,,down,0,0.1915,,,0.145370413,-0.246296282,1,0,0,0.2568,0,154,154,162,1,uitdelen,images/br_uitdelen.png,images/cb_uitdelen.png,0,,,,,,,,,,,,,,,,,,,,,
,,,,,,00107,2023-11-20_11h33.36.671,vbt_B2_day2,2022.2.4,Win32,143.8848921,,,,,,,,,,,,,,,,,,,,,,,,,,,down,0,5.4934,waarbij,,0.145370413,-0.246296282,1,0,0,0.3144,0,155,155,136,1,waarbij,images/br_waarbij.png,images/cb_waarbij.png,1,,,,,,,,,,,,,,,,,,,,,
,,,,,,00107,2023-11-20_11h33.36.671,vbt_B2_day2,2022.2.4,Win32,143.8848921,,,,,,,,,,,,,,,,,,,,,,,,,,,down,0,0.2826,,,0.098148134,-0.258333347,1,0,0,0.3035,0,156,156,191,1,opheffen,images/br_opheffen.png,images/cb_opheffen.png,0,,,,,,,,,,,,,,,,,,,,,
,,,,,,00107,2023-11-20_11h33.36.671,vbt_B2_day2,2022.2.4,Win32,143.8848921,,,,,,,,,,,,,,,,,,,,,,,,,,,down,0,0.083,,,0.098148134,-0.258333347,1,0,0,0.2219,0,157,157,149,1,redding,images/br_redding.png,images/cb_redding.png,0,,,,,,,,,,,,,,,,,,,,,
,,,,,,00107,2023-11-20_11h33.36.671,vbt_B2_day2,2022.2.4,Win32,143.8848921,,,,,,,,,,,,,,,,,,,,,,,,,,,down,0,0.2642,,,0.098148134,-0.258333347,1,0,0,0.2917,0,158,158,46,1,jagen,images/br_jagen.png,images/cb_jagen.png,0,,,,,,,,,,,,,,,,,,,,,
,,,,,,00107,2023-11-20_11h33.36.671,vbt_B2_day2,2022.2.4,Win32,143.8848921,,,,,,,,,,,,,,,,,,,,,,,,,,,down,0,0.1127,,,0.098148134,-0.258333347,1,0,0,0.0757,0,159,159,88,1,boeien,images/br_boeien.png,images/cb_boeien.png,0,,,,,,,,,,,,,,,,,,,,,
,,,,,,00107,2023-11-20_11h33.36.671,vbt_B2_day2,2022.2.4,Win32,143.8848921,,,,,,,,,,,,,,,,,,,,,,,,,,,down,0,0.3226,,,0.098148134,-0.258333347,1,0,0,0.2952,0,160,160,124,1,bloeien,images/br_bloeien.png,images/cb_bloeien.png,0,,,,,,,,,,,,,,,,,,,,,
,,,,,,00107,2023-11-20_11h33.36.671,vbt_B2_day2,2022.2.4,Win32,143.8848921,,,,,,,,,,,,,,,,,,,,,,,,,,,down,0,0.0297,,,0.098148134,-0.258333347,1,0,0,0.1249,0,161,161,129,1,verhaal,images/br_verhaal.png,images/cb_verhaal.png,0,,,,,,,,,,,,,,,,,,,,,
,,,,,,00107,2023-11-20_11h33.36.671,vbt_B2_day2,2022.2.4,Win32,143.8848921,,,,,,,,,,,,,,,,,,,,,,,,,,,down,0,0.189,,,0.098148134,-0.258333347,1,0,0,0.2989,0,162,162,95,1,vreten,images/br_vreten.png,images/cb_vreten.png,0,,,,,,,,,,,,,,,,,,,,,
,,,,,,00107,2023-11-20_11h33.36.671,vbt_B2_day2,2022.2.4,Win32,143.8848921,,,,,,,,,,,,,,,,,,,,,,,,,,,down,0,0.3352,,,0.098148134,-0.258333347,1,0,0,0.333,0,163,163,93,1,waarop,images/br_waarop.png,images/cb_waarop.png,0,,,,,,,,,,,,,,,,,,,,,
,,,,,,00107,2023-11-20_11h33.36.671,vbt_B2_day2,2022.2.4,Win32,143.8848921,,,,,,,,,,,,,,,,,,,,,,,,,,,down,0,0.0922,,,0.098148134,-0.258333347,1,0,0,0.2858,0,164,164,133,1,seizoen,images/br_seizoen.png,images/cb_seizoen.png,0,,,,,,,,,,,,,,,,,,,,,
,,,,,,00107,2023-11-20_11h33.36.671,vbt_B2_day2,2022.2.4,Win32,143.8848921,,,,,,,,,,,,,,,,,,,,,,,,,,,down,0,0.289,,,0.098148134,-0.258333347,1,0,0,0.2703,0,165,165,155,1,gerucht,images/br_gerucht.png,images/cb_gerucht.png,0,,,,,,,,,,,,,,,,,,,,,
,,,,,,00107,2023-11-20_11h33.36.671,vbt_B2_day2,2022.2.4,Win32,143.8848921,,,,,,,,,,,,,,,,,,,,,,,,,,,down,0,0.2863,,,0.098148134,-0.258333347,1,0,0,0.3128,0,166,166,23,1,zout,images/br_zout.png,images/cb_zout.png,0,,,,,,,,,,,,,,,,,,,,,
,,,,,,00107,2023-11-20_11h33.36.671,vbt_B2_day2,2022.2.4,Win32,143.8848921,,,,,,,,,,,,,,,,,,,,,,,,,,,down,0,0.1991,,,0.098148134,-0.258333347,1,0,0,0.283,0,167,167,6,1,diep,images/br_diep.png,images/cb_diep.png,0,,,,,,,,,,,,,,,,,,,,,
,,,,,,00107,2023-11-20_11h33.36.671,vbt_B2_day2,2022.2.4,Win32,143.8848921,,,,,,,,,,,,,,,,,,,,,,,,,,,down,0,0.1564,,,0.098148134,-0.258333347,1,0,0,0.3019,0,168,168,48,1,steel,images/br_steel.png,images/cb_steel.png,0,,,,,,,,,,,,,,,,,,,,,
,,,,,,00107,2023-11-20_11h33.36.671,vbt_B2_day2,2022.2.4,Win32,143.8848921,,,,,,,,,,,,,,,,,,,,,,,,,,,down,0,0.0605,,,0.098148134,-0.258333347,1,0,0,0.0699,0,169,169,21,1,mist,images/br_mist.png,images/cb_mist.png,0,,,,,,,,,,,,,,,,,,,,,
,,,,,,00107,2023-11-20_11h33.36.671,vbt_B2_day2,2022.2.4,Win32,143.8848921,,,,,,,,,,,,,,,,,,,,,,,,,,,down,0,0.1851,,,0.098148134,-0.258333347,1,0,0,0.3026,0,170,170,54,1,gebit,images/br_gebit.png,images/cb_gebit.png,0,,,,,,,,,,,,,,,,,,,,,
,,,,,,00107,2023-11-20_11h33.36.671,vbt_B2_day2,2022.2.4,Win32,143.8848921,,,,,,,,,,,,,,,,,,,,,,,,,,,down,0,0.2518,,,0.098148134,-0.258333347,1,0,0,0.4096,0,171,171,72,1,strak,images/br_strak.png,images/cb_strak.png,0,,,,,,,,,,,,,,,,,,,,,
,,,,,,00107,2023-11-20_11h33.36.671,vbt_B2_day2,2022.2.4,Win32,143.8848921,,,,,,,,,,,,,,,,,,,,,,,,,,,down,0,0.2778,,,0.098148134,-0.258333347,1,0,0,0.3456,0,172,172,160,1,daarheen,images/br_daarheen.png,images/cb_daarheen.png,0,,,,,,,,,,,,,,,,,,,,,
,,,,,,00107,2023-11-20_11h33.36.671,vbt_B2_day2,2022.2.4,Win32,143.8848921,,,,,,,,,,,,,,,,,,,,,,,,,,,down,0,0.2593,,,0.098148134,-0.258333347,1,0,0,0.2712,0,173,173,164,1,anarchie,images/br_anarchie.png,images/cb_anarchie.png,0,,,,,,,,,,,,,,,,,,,,,
,,,,,,00107,2023-11-20_11h33.36.671,vbt_B2_day2,2022.2.4,Win32,143.8848921,,,,,,,,,,,,,,,,,,,,,,,,,,,down,0,0.2242,,,0.098148134,-0.258333347,1,0,0,0.3052,0,174,174,157,1,uitlaat,images/br_uitlaat.png,images/cb_uitlaat.png,0,,,,,,,,,,,,,,,,,,,,,
,,,,,,00107,2023-11-20_11h33.36.671,vbt_B2_day2,2022.2.4,Win32,143.8848921,,,,,,,,,,,,,,,,,,,,,,,,,,,down,0,0.2574,,,0.098148134,-0.258333347,1,0,0,0.2703,0,175,175,89,1,slapen,images/br_slapen.png,images/cb_slapen.png,0,,,,,,,,,,,,,,,,,,,,,
,,,,,,00107,2023-11-20_11h33.36.671,vbt_B2_day2,2022.2.4,Win32,143.8848921,,,,,,,,,,,,,,,,,,,,,,,,,,,down,0,0.1471,,,0.098148134,-0.258333347,1,0,0,0.3188,0,176,176,189,1,aanraden,images/br_aanraden.png,images/cb_aanraden.png,0,,,,,,,,,,,,,,,,,,,,,
,,,,,,00107,2023-11-20_11h33.36.671,vbt_B2_day2,2022.2.4,Win32,143.8848921,,,,,,,,,,,,,,,,,,,,,,,,,,,down,0,0.1662,,,0.098148134,-0.258333347,1,0,0,0.2707,0,177,177,61,1,groen,images/br_groen.png,images/cb_groen.png,0,,,,,,,,,,,,,,,,,,,,,
,,,,,,00107,2023-11-20_11h33.36.671,vbt_B2_day2,2022.2.4,Win32,143.8848921,,,,,,,,,,,,,,,,,,,,,,,,,,,down,0,0.3569,,,0.098148134,-0.258333347,1,0,0,0.3162,0,178,178,144,1,eetlust,images/br_eetlust.png,images/cb_eetlust.png,0,,,,,,,,,,,,,,,,,,,,,
,,,,,,00107,2023-11-20_11h33.36.671,vbt_B2_day2,2022.2.4,Win32,143.8848921,,,,,,,,,,,,,,,,,,,,,,,,,,,down,0,0.3426,taal,,0.098148134,-0.258333347,1,0,0,0.2982,0,179,179,17,1,taal,images/br_taal.png,images/cb_taal.png,1,,,,,,,,,,,,,,,,,,,,,
,,,,,,00107,2023-11-20_11h33.36.671,vbt_B2_day2,2022.2.4,Win32,143.8848921,,,,,,,,,,,,,,,,,,,,,,,,,,,down,0,0.1043,steek,,0.098148134,-0.258333347,1,0,0,0.6163,0,180,180,57,1,steek,images/br_steek.png,images/cb_steek.png,1,,,,,,,,,,,,,,,,,,,,,
,,,,,,00107,2023-11-20_11h33.36.671,vbt_B2_day2,2022.2.4,Win32,143.8848921,,,,,,,,,,,,,,,,,,,,,,,,,,,down,0,0.2762,,,0.111111111,-0.312037079,1,0,0,0.2706,0,181,181,161,1,attentie,images/br_attentie.png,images/cb_attentie.png,0,,,,,,,,,,,,,,,,,,,,,
,,,,,,00107,2023-11-20_11h33.36.671,vbt_B2_day2,2022.2.4,Win32,143.8848921,,,,,,,,,,,,,,,,,,,,,,,,,,,down,0,0.2754,,,0.111111111,-0.312037079,1,0,0,0.2988,0,182,182,183,1,getuigen,images/br_getuigen.png,images/cb_getuigen.png,0,,,,,,,,,,,,,,,,,,,,,
,,,,,,00107,2023-11-20_11h33.36.671,vbt_B2_day2,2022.2.4,Win32,143.8848921,,,,,,,,,,,,,,,,,,,,,,,,,,,down,0,0.2099,,,0.111111111,-0.312037079,1,0,0,0.2018,0,183,183,111,1,ticket,images/br_ticket.png,images/cb_ticket.png,0,,,,,,,,,,,,,,,,,,,,,
,,,,,,00107,2023-11-20_11h33.36.671,vbt_B2_day2,2022.2.4,Win32,143.8848921,,,,,,,,,,,,,,,,,,,,,,,,,,,down,0,0.3073,,,0.111111111,-0.312037079,1,0,0,0.2827,0,184,184,37,1,mijn,images/br_mijn.png,images/cb_mijn.png,0,,,,,,,,,,,,,,,,,,,,,
,,,,,,00107,2023-11-20_11h33.36.671,vbt_B2_day2,2022.2.4,Win32,143.8848921,,,,,,,,,,,,,,,,,,,,,,,,,,,down,0,0.1954,,,0.111111111,-0.312037079,1,0,0,0.2915,0,185,185,79,1,nodig,images/br_nodig.png,images/cb_nodig.png,0,,,,,,,,,,,,,,,,,,,,,
,,,,,,00107,2023-11-20_11h33.36.671,vbt_B2_day2,2022.2.4,Win32,143.8848921,,,,,,,,,,,,,,,,,,,,,,,,,,,down,0,0.2082,,,0.111111111,-0.312037079,1,0,0,0.236,0,186,186,199,1,beseffen,images/br_beseffen.png,images/cb_beseffen.png,0,,,,,,,,,,,,,,,,,,,,,
,,,,,,00107,2023-11-20_11h33.36.671,vbt_B2_day2,2022.2.4,Win32,143.8848921,,,,,,,,,,,,,,,,,,,,,,,,,,,down,0,0.217,,,0.111111111,-0.312037079,1,0,0,0.3075,0,187,187,80,1,kanjer,images/br_kanjer.png,images/cb_kanjer.png,0,,,,,,,,,,,,,,,,,,,,,
,,,,,,00107,2023-11-20_11h33.36.671,vbt_B2_day2,2022.2.4,Win32,143.8848921,,,,,,,,,,,,,,,,,,,,,,,,,,,down,0,0.0806,,,0.111111111,-0.312037079,1,0,0,0.1481,0,188,188,150,1,gegeven,images/br_gegeven.png,images/cb_gegeven.png,0,,,,,,,,,,,,,,,,,,,,,
,,,,,,00107,2023-11-20_11h33.36.671,vbt_B2_day2,2022.2.4,Win32,143.8848921,,,,,,,,,,,,,,,,,,,,,,,,,,,down,0,0.0537,,,0.111111111,-0.312037079,1,0,0,0.1827,0,189,189,180,1,openbaar,images/br_openbaar.png,images/cb_openbaar.png,0,,,,,,,,,,,,,,,,,,,,,
,,,,,,00107,2023-11-20_11h33.36.671,vbt_B2_day2,2022.2.4,Win32,143.8848921,,,,,,,,,,,,,,,,,,,,,,,,,,,down,0,0.2121,,,0.111111111,-0.312037079,1,0,0,0.2084,0,190,190,172,1,weigeren,images/br_weigeren.png,images/cb_weigeren.png,0,,,,,,,,,,,,,,,,,,,,,
,,,,,,00107,2023-11-20_11h33.36.671,vbt_B2_day2,2022.2.4,Win32,143.8848921,,,,,,,,,,,,,,,,,,,,,,,,,,,down,0,0.0201,,,0.111111111,-0.312037079,1,0,0,0.1304,0,191,191,158,1,innemen,images/br_innemen.png,images/cb_innemen.png,0,,,,,,,,,,,,,,,,,,,,,
,,,,,,00107,2023-11-20_11h33.36.671,vbt_B2_day2,2022.2.4,Win32,143.8848921,,,,,,,,,,,,,,,,,,,,,,,,,,,down,0,0.2573,,,0.111111111,-0.312037079,1,0,0,0.2084,0,192,192,77,1,woede,images/br_woede.png,images/cb_woede.png,0,,,,,,,,,,,,,,,,,,,,,
,,,,,,00107,2023-11-20_11h33.36.671,vbt_B2_day2,2022.2.4,Win32,143.8848921,,,,,,,,,,,,,,,,,,,,,,,,,,,down,0,0.4448,,,0.111111111,-0.312037079,1,0,0,0.3544,0,193,193,127,1,doodmoe,images/br_doodmoe.png,images/cb_doodmoe.png,0,,,,,,,,,,,,,,,,,,,,,
,,,,,,00107,2023-11-20_11h33.36.671,vbt_B2_day2,2022.2.4,Win32,143.8848921,,,,,,,,,,,,,,,,,,,,,,,,,,,down,0,0.226,,,0.111111111,-0.312037079,1,0,0,0.3009,0,194,194,184,1,aandelen,images/br_aandelen.png,images/cb_aandelen.png,0,,,,,,,,,,,,,,,,,,,,,
,,,,,,00107,2023-11-20_11h33.36.671,vbt_B2_day2,2022.2.4,Win32,143.8848921,,,,,,,,,,,,,,,,,,,,,,,,,,,down,0,0.251,,,0.111111111,-0.312037079,1,0,0,0.2356,0,195,195,156,1,rechten,images/br_rechten.png,images/cb_rechten.png,0,,,,,,,,,,,,,,,,,,,,,
,,,,,,00107,2023-11-20_11h33.36.671,vbt_B2_day2,2022.2.4,Win32,143.8848921,,,,,,,,,,,,,,,,,,,,,,,,,,,down,0,0.2061,,,0.111111111,-0.312037079,1,0,0,0.2224,0,196,196,78,1,leren,images/br_leren.png,images/cb_leren.png,0,,,,,,,,,,,,,,,,,,,,,
,,,,,,00107,2023-11-20_11h33.36.671,vbt_B2_day2,2022.2.4,Win32,143.8848921,,,,,,,,,,,,,,,,,,,,,,,,,,,down,0,0.2643,,,0.111111111,-0.312037079,1,0,0,0.2634,0,197,197,135,1,gedicht,images/br_gedicht.png,images/cb_gedicht.png,0,,,,,,,,,,,,,,,,,,,,,
,,,,,,00107,2023-11-20_11h33.36.671,vbt_B2_day2,2022.2.4,Win32,143.8848921,,,,,,,,,,,,,,,,,,,,,,,,,,,down,0,0.2801,,,0.111111111,-0.312037079,1,0,0,1.3748,0,198,198,15,1,soda,images/br_soda.png,images/cb_soda.png,0,,,,,,,,,,,,,,,,,,,,,
,,,,,,00107,2023-11-20_11h33.36.671,vbt_B2_day2,2022.2.4,Win32,143.8848921,,,,,,,,,,,,,,,,,,,,,,,,,,,down,0,0.2231,,,0.111111111,-0.312037079,1,0,0,0.1737,0,199,199,53,1,baron,images/br_baron.png,images/cb_baron.png,0,,,,,,,,,,,,,,,,,,,,,
,,,,,,00107,2023-11-20_11h33.36.671,vbt_B2_day2,2022.2.4,Win32,143.8848921,,,,,,,,,,,,,,,,,,,,,,,,,,,,,,,,,,,,,,,,,,,,,,,0.111111111,-0.312037079,1,0,0,,,,,,,,,,,,,,,,
,,,,,,00107,2023-11-20_11h33.36.671,vbt_B2_day2,2022.2.4,Win32,143.8848921,,,,,,,,,,,,,,,,,,,,,,,,,,,,,,,,,,,,,,,,,,,,,,,,,,,,0.111111111,-0.312037079,1,0,0,,,,,,,,,,,
,,,,,,00107,2023-11-20_11h33.36.671,vbt_B2_day2,2022.2.4,Win32,143.8848921,,,,,,,,,,,,,,,,,,,,,,,,,,,,,,flits,,,,,,,,,,,,,flits,images/br_flits.png,images/cb_flits.png,,,,,,,,,,,,0.151851866,-0.198148162,1,0,0,flits,0,0,0,4,1
,,,,,,00107,2023-11-20_11h33.36.671,vbt_B2_day2,2022.2.4,Win32,143.8848921,,,,,,,,,,,,,,,,,,,,,,,,,,,,,,kenzis,,,,,,,,,,,,,kenzis,images/br_kenzis.png,images/cb_kenzis.png,,,,,,,,,,,,0.151851866,-0.198148162,1,0,0,kenzis,0,1,1,30,1
,,,,,,00107,2023-11-20_11h33.36.671,vbt_B2_day2,2022.2.4,Win32,143.8848921,,,,,,,,,,,,,,,,,,,,,,,,,,,,,,anarchie,,,,,,,,,,,,,anarchie,images/br_anarchie.png,images/cb_anarchie.png,,,,,,,,,,,,0.151851866,-0.198148162,1,0,0,anarchie,0,2,2,16,1
,,,,,,00107,2023-11-20_11h33.36.671,vbt_B2_day2,2022.2.4,Win32,143.8848921,,,,,,,,,,,,,,,,,,,,,,,,,,,,,,thema,,,,,,,,,,,,,thema,images/br_thema.png,images/cb_thema.png,,,,,,,,,,,,0.151851866,-0.198148162,1,0,0,thema,0,3,3,47,1
,,,,,,00107,2023-11-20_11h33.36.671,vbt_B2_day2,2022.2.4,Win32,143.8848921,,,,,,,,,,,,,,,,,,,,,,,,,,,,,,woning,,,,,,,,,,,,,woning,images/br_woning.png,images/cb_woning.png,,,,,,,,,,,,0.151851866,-0.198148162,1,0,0,woning,0,4,4,10,1
,,,,,,00107,2023-11-20_11h33.36.671,vbt_B2_day2,2022.2.4,Win32,143.8848921,,,,,,,,,,,,,,,,,,,,,,,,,,,,,,manieren,,,,,,,,,,,,,manieren,images/br_manieren.png,images/cb_manieren.png,,,,,,,,,,,,0.151851866,-0.198148162,1,0,0,manieren,0,5,5,56,1
,,,,,,00107,2023-11-20_11h33.36.671,vbt_B2_day2,2022.2.4,Win32,143.8848921,,,,,,,,,,,,,,,,,,,,,,,,,,,,,,zwager,,,,,,,,,,,,,zwager,images/br_zwager.png,images/cb_zwager.png,,,,,,,,,,,,0.151851866,-0.198148162,1,0,0,zwager,0,6,6,49,1
,,,,,,00107,2023-11-20_11h33.36.671,vbt_B2_day2,2022.2.4,Win32,143.8848921,,,,,,,,,,,,,,,,,,,,,,,,,,,,,,ningen,,,,,,,,,,,,,ningen,images/br_ningen.png,images/cb_ningen.png,,,,,,,,,,,,0.151851866,-0.198148162,1,0,0,ningen,0,7,7,28,1
,,,,,,00107,2023-11-20_11h33.36.671,vbt_B2_day2,2022.2.4,Win32,143.8848921,,,,,,,,,,,,,,,,,,,,,,,,,,,,,,bloeien,,,,,,,,,,,,,bloeien,images/br_bloeien.png,images/cb_bloeien.png,,,,,,,,,,,,0.151851866,-0.198148162,1,0,0,bloeien,0,8,8,12,1
,,,,,,00107,2023-11-20_11h33.36.671,vbt_B2_day2,2022.2.4,Win32,143.8848921,,,,,,,,,,,,,,,,,,,,,,,,,,,,,,kabel,,,,,,,,,,,,,kabel,images/br_kabel.png,images/cb_kabel.png,,,,,,,,,,,,0.151851866,-0.198148162,1,0,0,kabel,0,9,9,7,1
,,,,,,00107,2023-11-20_11h33.36.671,vbt_B2_day2,2022.2.4,Win32,143.8848921,,,,,,,,,,,,,,,,,,,,,,,,,,,,,,sifferd,,,,,,,,,,,,,sifferd,images/br_sifferd.png,images/cb_sifferd.png,,,,,,,,,,,,0.151851866,-0.198148162,1,0,0,sifferd,0,10,10,32,1
,,,,,,00107,2023-11-20_11h33.36.671,vbt_B2_day2,2022.2.4,Win32,143.8848921,,,,,,,,,,,,,,,,,,,,,,,,,,,,,,jong,,,,,,,,,,,,,jong,images/br_jong.png,images/cb_jong.png,,,,,,,,,,,,0.151851866,-0.198148162,1,0,0,jong,0,11,11,43,1
,,,,,,00107,2023-11-20_11h33.36.671,vbt_B2_day2,2022.2.4,Win32,143.8848921,,,,,,,,,,,,,,,,,,,,,,,,,,,,,,negel,,,,,,,,,,,,,negel,images/br_negel.png,images/cb_negel.png,,,,,,,,,,,,0.151851866,-0.198148162,1,0,0,negel,0,12,12,24,1
,,,,,,00107,2023-11-20_11h33.36.671,vbt_B2_day2,2022.2.4,Win32,143.8848921,,,,,,,,,,,,,,,,,,,,,,,,,,,,,,goon,,,,,,,,,,,,,goon,images/br_goon.png,images/cb_goon.png,,,,,,,,,,,,0.151851866,-0.198148162,1,0,0,goon,0,13,13,23,1
,,,,,,00107,2023-11-20_11h33.36.671,vbt_B2_day2,2022.2.4,Win32,143.8848921,,,,,,,,,,,,,,,,,,,,,,,,,,,,,,kasteel,,,,,,,,,,,,,kasteel,images/br_kasteel.png,images/cb_kasteel.png,,,,,,,,,,,,0.151851866,-0.198148162,1,0,0,kasteel,0,14,14,14,1
,,,,,,00107,2023-11-20_11h33.36.671,vbt_B2_day2,2022.2.4,Win32,143.8848921,,,,,,,,,,,,,,,,,,,,,,,,,,,,,,clan,,,,,,,,,,,,,clan,images/br_clan.png,images/cb_clan.png,,,,,,,,,,,,0.151851866,-0.198148162,1,0,0,clan,0,15,15,40,1
,,,,,,00107,2023-11-20_11h33.36.671,vbt_B2_day2,2022.2.4,Win32,143.8848921,,,,,,,,,,,,,,,,,,,,,,,,,,,,,,dode,,,,,,,,,,,,,dode,images/br_dode.png,images/cb_dode.png,,,,,,,,,,,,0.151851866,-0.198148162,1,0,0,dode,0,16,16,41,1
,,,,,,00107,2023-11-20_11h33.36.671,vbt_B2_day2,2022.2.4,Win32,143.8848921,,,,,,,,,,,,,,,,,,,,,,,,,,,,,,sora,,,,,,,,,,,,,sora,images/br_sora.png,images/cb_sora.png,,,,,,,,,,,,0.151851866,-0.198148162,1,0,0,sora,0,17,17,22,1
,,,,,,00107,2023-11-20_11h33.36.671,vbt_B2_day2,2022.2.4,Win32,143.8848921,,,,,,,,,,,,,,,,,,,,,,,,,,,,,,joes,,,,,,,,,,,,,joes,images/br_joes.png,images/cb_joes.png,,,,,,,,,,,,0.151851866,-0.198148162,1,0,0,joes,0,18,18,20,1
,,,,,,00107,2023-11-20_11h33.36.671,vbt_B2_day2,2022.2.4,Win32,143.8848921,,,,,,,,,,,,,,,,,,,,,,,,,,,,,,systeem,,,,,,,,,,,,,systeem,images/br_systeem.png,images/cb_systeem.png,,,,,,,,,,,,0.151851866,-0.198148162,1,0,0,systeem,0,19,19,54,1
,,,,,,00107,2023-11-20_11h33.36.671,vbt_B2_day2,2022.2.4,Win32,143.8848921,,,,,,,,,,,,,,,,,,,,,,,,,,,,,,krimmen,,,,,,,,,,,,,krimmen,images/br_krimmen.png,images/cb_krimmen.png,,,,,,,,,,,,0.151851866,-0.198148162,1,0,0,krimmen,0,20,20,35,1
,,,,,,00107,2023-11-20_11h33.36.671,vbt_B2_day2,2022.2.4,Win32,143.8848921,,,,,,,,,,,,,,,,,,,,,,,,,,,,,,piste,,,,,,,,,,,,,piste,images/br_piste.png,images/cb_piste.png,,,,,,,,,,,,0.151851866,-0.198148162,1,0,0,piste,0,21,21,5,1
,,,,,,00107,2023-11-20_11h33.36.671,vbt_B2_day2,2022.2.4,Win32,143.8848921,,,,,,,,,,,,,,,,,,,,,,,,,,,,,,ophuimen,,,,,,,,,,,,,ophuimen,images/br_ophuimen.png,images/cb_ophuimen.png,,,,,,,,,,,,0.151851866,-0.198148162,1,0,0,ophuimen,0,22,22,36,1
,,,,,,00107,2023-11-20_11h33.36.671,vbt_B2_day2,2022.2.4,Win32,143.8848921,,,,,,,,,,,,,,,,,,,,,,,,,,,,,,agressie,,,,,,,,,,,,,agressie,images/br_agressie.png,images/cb_agressie.png,,,,,,,,,,,,0.151851866,-0.198148162,1,0,0,agressie,0,23,23,59,1
,,,,,,00107,2023-11-20_11h33.36.671,vbt_B2_day2,2022.2.4,Win32,143.8848921,,,,,,,,,,,,,,,,,,,,,,,,,,,,,,lijnen,,,,,,,,,,,,,lijnen,images/br_lijnen.png,images/cb_lijnen.png,,,,,,,,,,,,0.151851866,-0.198148162,1,0,0,lijnen,0,24,24,51,1
,,,,,,00107,2023-11-20_11h33.36.671,vbt_B2_day2,2022.2.4,Win32,143.8848921,,,,,,,,,,,,,,,,,,,,,,,,,,,,,,opdatten,,,,,,,,,,,,,opdatten,images/br_opdatten.png,images/cb_opdatten.png,,,,,,,,,,,,0.151851866,-0.198148162,1,0,0,opdatten,0,25,25,37,1
,,,,,,00107,2023-11-20_11h33.36.671,vbt_B2_day2,2022.2.4,Win32,143.8848921,,,,,,,,,,,,,,,,,,,,,,,,,,,,,,toeval,,,,,,,,,,,,,toeval,images/br_toeval.png,images/cb_toeval.png,,,,,,,,,,,,0.151851866,-0.198148162,1,0,0,toeval,0,26,26,11,1
,,,,,,00107,2023-11-20_11h33.36.671,vbt_B2_day2,2022.2.4,Win32,143.8848921,,,,,,,,,,,,,,,,,,,,,,,,,,,,,,prakken,,,,,,,,,,,,,prekken,images/br_prekken.png,images/cb_prekken.png,,,,,,,,,,,,0.151851866,-0.198148162,1,0,0,prakken,0,27,27,34,1
,,,,,,00107,2023-11-20_11h33.36.671,vbt_B2_day2,2022.2.4,Win32,143.8848921,,,,,,,,,,,,,,,,,,,,,,,,,,,,,,remel,,,,,,,,,,,,,remel,images/br_remel.png,images/cb_remel.png,,,,,,,,,,,,0.151851866,-0.198148162,1,0,0,remel,0,28,28,25,1
,,,,,,00107,2023-11-20_11h33.36.671,vbt_B2_day2,2022.2.4,Win32,143.8848921,,,,,,,,,,,,,,,,,,,,,,,,,,,,,,zegel,,,,,,,,,,,,,zegel,images/br_zegel.png,images/cb_zegel.png,,,,,,,,,,,,0.151851866,-0.198148162,1,0,0,zegel,0,29,29,46,1
,,,,,,00107,2023-11-20_11h33.36.671,vbt_B2_day2,2022.2.4,Win32,143.8848921,,,,,,,,,,,,,,,,,,,,,,,,,,,,,,plannen,,,,,,,,,,,,,plannen,images/br_plannen.png,images/cb_plannen.png,,,,,,,,,,,,0.151851866,-0.198148162,1,0,0,plannen,0,30,30,55,1
,,,,,,00107,2023-11-20_11h33.36.671,vbt_B2_day2,2022.2.4,Win32,143.8848921,,,,,,,,,,,,,,,,,,,,,,,,,,,,,,tand,,,,,,,,,,,,,tand,images/br_tand.png,images/cb_tand.png,,,,,,,,,,,,0.151851866,-0.198148162,1,0,0,tand,0,31,31,42,1
,,,,,,00107,2023-11-20_11h33.36.671,vbt_B2_day2,2022.2.4,Win32,143.8848921,,,,,,,,,,,,,,,,,,,,,,,,,,,,,,feestdag,,,,,,,,,,,,,feestdag,images/br_feestdag.png,images/cb_feestdag.png,,,,,,,,,,,,0.151851866,-0.198148162,1,0,0,feestdag,0,32,32,17,1
,,,,,,00107,2023-11-20_11h33.36.671,vbt_B2_day2,2022.2.4,Win32,143.8848921,,,,,,,,,,,,,,,,,,,,,,,,,,,,,,koorts,,,,,,,,,,,,,koorts,images/br_koorts.png,images/cb_koorts.png,,,,,,,,,,,,0.151851866,-0.198148162,1,0,0,koorts,0,33,33,50,1
,,,,,,00107,2023-11-20_11h33.36.671,vbt_B2_day2,2022.2.4,Win32,143.8848921,,,,,,,,,,,,,,,,,,,,,,,,,,,,,,strikken,,,,,,,,,,,,,strikken,images/br_strikken.png,images/cb_strikken.png,,,,,,,,,,,,0.151851866,-0.198148162,1,0,0,strikken,0,34,34,18,1
,,,,,,00107,2023-11-20_11h33.36.671,vbt_B2_day2,2022.2.4,Win32,143.8848921,,,,,,,,,,,,,,,,,,,,,,,,,,,,,,lokken,,,,,,,,,,,,,lokken,images/br_lokken.png,images/cb_lokken.png,,,,,,,,,,,,0.151851866,-0.198148162,1,0,0,lokken,0,35,35,8,1
,,,,,,00107,2023-11-20_11h33.36.671,vbt_B2_day2,2022.2.4,Win32,143.8848921,,,,,,,,,,,,,,,,,,,,,,,,,,,,,,moes,,,,,,,,,,,,,moes,images/br_moes.png,images/cb_moes.png,,,,,,,,,,,,0.151851866,-0.198148162,1,0,0,moes,0,36,36,0,1
,,,,,,00107,2023-11-20_11h33.36.671,vbt_B2_day2,2022.2.4,Win32,143.8848921,,,,,,,,,,,,,,,,,,,,,,,,,,,,,,trots,,,,,,,,,,,,,trots,images/br_trots.png,images/cb_trots.png,,,,,,,,,,,,0.151851866,-0.198148162,1,0,0,trots,0,37,37,44,1
,,,,,,00107,2023-11-20_11h33.36.671,vbt_B2_day2,2022.2.4,Win32,143.8848921,,,,,,,,,,,,,,,,,,,,,,,,,,,,,,diep,,,,,,,,,,,,,diep,images/br_diep.png,images/cb_diep.png,,,,,,,,,,,,0.151851866,-0.198148162,1,0,0,diep,0,38,38,2,1
,,,,,,00107,2023-11-20_11h33.36.671,vbt_B2_day2,2022.2.4,Win32,143.8848921,,,,,,,,,,,,,,,,,,,,,,,,,,,,,,inzicht,,,,,,,,,,,,,inzicht,images/br_inzicht.png,images/cb_inzicht.png,,,,,,,,,,,,0.151851866,-0.198148162,1,0,0,inzicht,0,39,39,53,1
,,,,,,00107,2023-11-20_11h33.36.671,vbt_B2_day2,2022.2.4,Win32,143.8848921,,,,,,,,,,,,,,,,,,,,,,,,,,,,,,dagen,,,,,,,,,,,,,jagen,images/br_jagen.png,images/cb_jagen.png,,,,,,,,,,,,0.151851866,-0.198148162,1,0,0,dagen,0,40,40,6,1
,,,,,,00107,2023-11-20_11h33.36.671,vbt_B2_day2,2022.2.4,Win32,143.8848921,,,,,,,,,,,,,,,,,,,,,,,,,,,,,,blad,,,,,,,,,,,,,blad,images/br_blad.png,images/cb_blad.png,,,,,,,,,,,,0.151851866,-0.198148162,1,0,0,blad,0,41,41,1,1
,,,,,,00107,2023-11-20_11h33.36.671,vbt_B2_day2,2022.2.4,Win32,143.8848921,,,,,,,,,,,,,,,,,,,,,,,,,,,,,,wijve,,,,,,,,,,,,,wijve,images/br_wijve.png,images/cb_wijve.png,,,,,,,,,,,,0.151851866,-0.198148162,1,0,0,wijve,0,42,42,27,1
,,,,,,00107,2023-11-20_11h33.36.671,vbt_B2_day2,2022.2.4,Win32,143.8848921,,,,,,,,,,,,,,,,,,,,,,,,,,,,,,sjijhel,,,,,,,,,,,,,sjijfel,images/br_sjijfel.png,images/cb_sjijfel.png,,,,,,,,,,,,0.151851866,-0.198148162,1,0,0,sjijhel,0,43,43,33,1
,,,,,,00107,2023-11-20_11h33.36.671,vbt_B2_day2,2022.2.4,Win32,143.8848921,,,,,,,,,,,,,,,,,,,,,,,,,,,,,,stes,,,,,,,,,,,,,stes,images/br_stes.png,images/cb_stes.png,,,,,,,,,,,,0.151851866,-0.198148162,1,0,0,stes,0,44,44,21,1
,,,,,,00107,2023-11-20_11h33.36.671,vbt_B2_day2,2022.2.4,Win32,143.8848921,,,,,,,,,,,,,,,,,,,,,,,,,,,,,,bereuwen,,,,,,,,,,,,,bereuwen,images/br_bereuwen.png,images/cb_bereuwen.png,,,,,,,,,,,,0.151851866,-0.198148162,1,0,0,bereuwen,0,45,45,39,1
,,,,,,00107,2023-11-20_11h33.36.671,vbt_B2_day2,2022.2.4,Win32,143.8848921,,,,,,,,,,,,,,,,,,,,,,,,,,,,,,breuk,,,,,,,,,,,,,breuk,images/br_breuk.png,images/cb_breuk.png,,,,,,,,,,,,0.151851866,-0.198148162,1,0,0,breuk,0,46,46,45,1
,,,,,,00107,2023-11-20_11h33.36.671,vbt_B2_day2,2022.2.4,Win32,143.8848921,,,,,,,,,,,,,,,,,,,,,,,,,,,,,,geld,,,,,,,,,,,,,geld,images/br_geld.png,images/cb_geld.png,,,,,,,,,,,,0.151851866,-0.198148162,1,0,0,geld,0,47,47,3,1
,,,,,,00107,2023-11-20_11h33.36.671,vbt_B2_day2,2022.2.4,Win32,143.8848921,,,,,,,,,,,,,,,,,,,,,,,,,,,,,,doodmoe,,,,,,,,,,,,,doodmoe,images/br_doodmoe.png,images/cb_doodmoe.png,,,,,,,,,,,,0.151851866,-0.198148162,1,0,0,doodmoe,0,48,48,15,1
,,,,,,00107,2023-11-20_11h33.36.671,vbt_B2_day2,2022.2.4,Win32,143.8848921,,,,,,,,,,,,,,,,,,,,,,,,,,,,,,badon,,,,,,,,,,,,,badon,images/br_badon.png,images/cb_badon.png,,,,,,,,,,,,0.151851866,-0.198148162,1,0,0,badon,0,49,49,26,1
,,,,,,00107,2023-11-20_11h33.36.671,vbt_B2_day2,2022.2.4,Win32,143.8848921,,,,,,,,,,,,,,,,,,,,,,,,,,,,,,heilig,,,,,,,,,,,,,heilig,images/br_heilig.png,images/cb_heilig.png,,,,,,,,,,,,0.151851866,-0.198148162,1,0,0,heilig,0,50,50,9,1
,,,,,,00107,2023-11-20_11h33.36.671,vbt_B2_day2,2022.2.4,Win32,143.8848921,,,,,,,,,,,,,,,,,,,,,,,,,,,,,,aanzien,,,,,,,,,,,,,aanzien,images/br_aanzien.png,images/cb_aanzien.png,,,,,,,,,,,,0.151851866,-0.198148162,1,0,0,aanzien,0,51,51,13,1
,,,,,,00107,2023-11-20_11h33.36.671,vbt_B2_day2,2022.2.4,Win32,143.8848921,,,,,,,,,,,,,,,,,,,,,,,,,,,,,,zomers,,,,,,,,,,,,,zomers,images/br_zomers.png,images/cb_zomers.png,,,,,,,,,,,,0.151851866,-0.198148162,1,0,0,zomers,0,52,52,48,1
,,,,,,00107,2023-11-20_11h33.36.671,vbt_B2_day2,2022.2.4,Win32,143.8848921,,,,,,,,,,,,,,,,,,,,,,,,,,,,,,aanvraag,,,,,,,,,,,,,aanvraag,images/br_aanvraag.png,images/cb_aanvraag.png,,,,,,,,,,,,0.151851866,-0.198148162,1,0,0,aanvraag,0,53,53,57,1
,,,,,,00107,2023-11-20_11h33.36.671,vbt_B2_day2,2022.2.4,Win32,143.8848921,,,,,,,,,,,,,,,,,,,,,,,,,,,,,,welzijn,,,,,,,,,,,,,welzijn,images/br_welzijn.png,images/cb_welzijn.png,,,,,,,,,,,,0.151851866,-0.198148162,1,0,0,welzijn,0,54,54,52,1
,,,,,,00107,2023-11-20_11h33.36.671,vbt_B2_day2,2022.2.4,Win32,143.8848921,,,,,,,,,,,,,,,,,,,,,,,,,,,,,,tweeling,,,,,,,,,,,,,tweeling,images/br_tweeling.png,images/cb_tweeling.png,,,,,,,,,,,,0.151851866,-0.198148162,1,0,0,tweeling,0,55,55,58,1
,,,,,,00107,2023-11-20_11h33.36.671,vbt_B2_day2,2022.2.4,Win32,143.8848921,,,,,,,,,,,,,,,,,,,,,,,,,,,,,,kijlen,,,,,,,,,,,,,kijlen,images/br_kijlen.png,images/cb_kijlen.png,,,,,,,,,,,,0.151851866,-0.198148162,1,0,0,kijlen,0,56,56,31,1
,,,,,,00107,2023-11-20_11h33.36.671,vbt_B2_day2,2022.2.4,Win32,143.8848921,,,,,,,,,,,,,,,,,,,,,,,,,,,,,,lurgen,,,,,,,,,,,,,lurgen,images/br_lurgen.png,images/cb_lurgen.png,,,,,,,,,,,,0.151851866,-0.198148162,1,0,0,lurgen,0,57,57,29,1
,,,,,,00107,2023-11-20_11h33.36.671,vbt_B2_day2,2022.2.4,Win32,143.8848921,,,,,,,,,,,,,,,,,,,,,,,,,,,,,,heengaan,,,,,,,,,,,,,heengeen,images/br_heengeen.png,images/cb_heengeen.png,,,,,,,,,,,,0.151851866,-0.198148162,1,0,0,heengaan,0,58,58,38,1
,,,,,,00107,2023-11-20_11h33.36.671,vbt_B2_day2,2022.2.4,Win32,143.8848921,,,,,,,,,,,,,,,,,,,,,,,,,,,,,,eenhoorn,,,,,,,,,,,,,eenhoorn,images/br_eenhoorn.png,images/cb_eenhoorn.png,,,,,,,,,,,,0.151851866,-0.198148162,1,0,0,eenhoorn,0,59,59,19,1
,,,,,,00107,2023-11-20_11h33.36.671,vbt_B2_day2,2022.2.4,Win32,143.8848921,,,,,,,,,,,,,,,,,,,,,,,,,,,,,,,,,,,,,,,,,,,,,,,,,,,,,,,,,,,,,,,,,,,
