welcome_mouse.x,welcome_mouse.y,welcome_mouse.leftButton,welcome_mouse.midButton,welcome_mouse.rightButton,welcome_mouse.time,"ID",date,expName,psychopyVersion,OS,frameRate,refresh_mouse.x,refresh_mouse.y,refresh_mouse.leftButton,refresh_mouse.midButton,refresh_mouse.rightButton,refresh_mouse.time,braille_mouse.x,braille_mouse.y,braille_mouse.leftButton,braille_mouse.midButton,braille_mouse.rightButton,braille_mouse.time,trials.thisRepN,trials.thisTrialN,trials.thisN,trials.thisIndex,trials.ran,nlLet,brLet,cbLet,trainInstr_mouse.x,trainInstr_mouse.y,trainInstr_mouse.leftButton,trainInstr_mouse.midButton,trainInstr_mouse.rightButton,trainInstr_mouse.time,translation_key.keys,translation_key.corr,translation_key.rt,word_rsp.text,word_mouse.x,word_mouse.y,word_mouse.leftButton,word_mouse.midButton,word_mouse.rightButton,word_mouse.time,train_loop.thisRepN,train_loop.thisTrialN,train_loop.thisN,train_loop.thisIndex,train_loop.ran,nlWrd,brWrd,cbWrd,test,testResp,mouse.x,mouse.y,mouse.leftButton,mouse.midButton,mouse.rightButton,testInstr_mouse.x,testInstr_mouse.y,testInstr_mouse.leftButton,testInstr_mouse.midButton,testInstr_mouse.rightButton,test_mouse.x,test_mouse.y,test_mouse.leftButton,test_mouse.midButton,test_mouse.rightButton,test_response.text,test_loop.thisRepN,test_loop.thisTrialN,test_loop.thisN,test_loop.thisIndex,test_loop.ran
-0.074444444,-0.162222222,1,0,0,1.051,,2023-10-14_08h26.28,vbt_B2_day2,2022.2.4,MacIntel,250,,,,,,,,,,,,,,,,,,,,,,,,,,,,,,,,,,,,,,,,,,,,,,,,,,,,,,,,,,,,,,,,,,,
,,,,,,,2023-10-14_08h26.28,vbt_B2_day2,2022.2.4,MacIntel,250,0.198888889,-0.146666667,1,0,0,311.053,,,,,,,,,,,,,,,,,,,,,,,,,,,,,,,,,,,,,,,,,,,,,,,,,,,,,,,,,,,,,
,,,,,,,2023-10-14_08h26.28,vbt_B2_day2,2022.2.4,MacIntel,250,,,,,,,0.198888889,-0.146666667,1,0,0,1.9,0,0,0,3,1,d,images/br_d.png,images/cb_d.png,,,,,,,,,,,,,,,,,,,,,,,,,,,,,,,,,,,,,,,,,,,,,,,
,,,,,,,2023-10-14_08h26.28,vbt_B2_day2,2022.2.4,MacIntel,250,,,,,,,0.197777778,-0.146666667,1,0,0,2.283,0,1,1,20,1,u,images/br_u.png,images/cb_u.png,,,,,,,,,,,,,,,,,,,,,,,,,,,,,,,,,,,,,,,,,,,,,,,
,,,,,,,2023-10-14_08h26.28,vbt_B2_day2,2022.2.4,MacIntel,250,,,,,,,0.198888889,-0.146666667,1,0,0,1.017,0,2,2,18,1,s,images/br_s.png,images/cb_s.png,,,,,,,,,,,,,,,,,,,,,,,,,,,,,,,,,,,,,,,,,,,,,,,
,,,,,,,2023-10-14_08h26.28,vbt_B2_day2,2022.2.4,MacIntel,250,,,,,,,0.198888889,-0.145555556,1,0,0,3.8,0,3,3,4,1,e,images/br_e.png,images/cb_e.png,,,,,,,,,,,,,,,,,,,,,,,,,,,,,,,,,,,,,,,,,,,,,,,
,,,,,,,2023-10-14_08h26.28,vbt_B2_day2,2022.2.4,MacIntel,250,,,,,,,0.198888889,-0.145555556,1,0,0,1.5,0,4,4,19,1,t,images/br_t.png,images/cb_t.png,,,,,,,,,,,,,,,,,,,,,,,,,,,,,,,,,,,,,,,,,,,,,,,
,,,,,,,2023-10-14_08h26.28,vbt_B2_day2,2022.2.4,MacIntel,250,,,,,,,0.2,-0.145555556,1,0,0,1.934,0,5,5,12,1,m,images/br_m.png,images/cb_m.png,,,,,,,,,,,,,,,,,,,,,,,,,,,,,,,,,,,,,,,,,,,,,,,
,,,,,,,2023-10-14_08h26.28,vbt_B2_day2,2022.2.4,MacIntel,250,,,,,,,0.201111111,-0.144444444,1,0,0,2.117,0,6,6,5,1,f,images/br_f.png,images/cb_f.png,,,,,,,,,,,,,,,,,,,,,,,,,,,,,,,,,,,,,,,,,,,,,,,
,,,,,,,2023-10-14_08h26.28,vbt_B2_day2,2022.2.4,MacIntel,250,,,,,,,0.201111111,-0.145555556,1,0,0,0.016,0,7,7,11,1,l,images/br_l.png,images/cb_l.png,,,,,,,,,,,,,,,,,,,,,,,,,,,,,,,,,,,,,,,,,,,,,,,
,,,,,,,2023-10-14_08h26.28,vbt_B2_day2,2022.2.4,MacIntel,250,,,,,,,0.2,-0.145555556,1,0,0,3.151,0,8,8,25,1,z,images/br_z.png,images/cb_z.png,,,,,,,,,,,,,,,,,,,,,,,,,,,,,,,,,,,,,,,,,,,,,,,
,,,,,,,2023-10-14_08h26.28,vbt_B2_day2,2022.2.4,MacIntel,250,,,,,,,0.2,-0.145555556,1,0,0,1.516,0,9,9,0,1,a,images/br_a.png,images/cb_a.png,,,,,,,,,,,,,,,,,,,,,,,,,,,,,,,,,,,,,,,,,,,,,,,
,,,,,,,2023-10-14_08h26.28,vbt_B2_day2,2022.2.4,MacIntel,250,,,,,,,0.2,-0.145555556,1,0,0,0.884,0,10,10,16,1,q,images/br_q.png,images/cb_q.png,,,,,,,,,,,,,,,,,,,,,,,,,,,,,,,,,,,,,,,,,,,,,,,
,,,,,,,2023-10-14_08h26.28,vbt_B2_day2,2022.2.4,MacIntel,250,,,,,,,0.2,-0.152222222,1,0,0,1.183,0,11,11,10,1,k,images/br_k.png,images/cb_k.png,,,,,,,,,,,,,,,,,,,,,,,,,,,,,,,,,,,,,,,,,,,,,,,
,,,,,,,2023-10-14_08h26.28,vbt_B2_day2,2022.2.4,MacIntel,250,,,,,,,0.2,-0.152222222,1,0,0,1.8,0,12,12,1,1,b,images/br_b.png,images/cb_b.png,,,,,,,,,,,,,,,,,,,,,,,,,,,,,,,,,,,,,,,,,,,,,,,
,,,,,,,2023-10-14_08h26.28,vbt_B2_day2,2022.2.4,MacIntel,250,,,,,,,0.2,-0.152222222,1,0,0,3.3,0,13,13,17,1,r,images/br_r.png,images/cb_r.png,,,,,,,,,,,,,,,,,,,,,,,,,,,,,,,,,,,,,,,,,,,,,,,
,,,,,,,2023-10-14_08h26.28,vbt_B2_day2,2022.2.4,MacIntel,250,,,,,,,0.2,-0.152222222,1,0,0,2.734,0,14,14,24,1,y,images/br_y.png,images/cb_y.png,,,,,,,,,,,,,,,,,,,,,,,,,,,,,,,,,,,,,,,,,,,,,,,
,,,,,,,2023-10-14_08h26.28,vbt_B2_day2,2022.2.4,MacIntel,250,,,,,,,0.2,-0.152222222,1,0,0,2.4,0,15,15,13,1,n,images/br_n.png,images/cb_n.png,,,,,,,,,,,,,,,,,,,,,,,,,,,,,,,,,,,,,,,,,,,,,,,
,,,,,,,2023-10-14_08h26.28,vbt_B2_day2,2022.2.4,MacIntel,250,,,,,,,0.201111111,-0.155555556,1,0,0,3.282,0,16,16,22,1,w,images/br_w.png,images/cb_w.png,,,,,,,,,,,,,,,,,,,,,,,,,,,,,,,,,,,,,,,,,,,,,,,
,,,,,,,2023-10-14_08h26.28,vbt_B2_day2,2022.2.4,MacIntel,250,,,,,,,0.205555556,-0.141111111,1,0,0,0.15,0,17,17,6,1,g,images/br_g.png,images/cb_g.png,,,,,,,,,,,,,,,,,,,,,,,,,,,,,,,,,,,,,,,,,,,,,,,
,,,,,,,2023-10-14_08h26.28,vbt_B2_day2,2022.2.4,MacIntel,250,,,,,,,0.205555556,-0.141111111,1,0,0,0.05,0,18,18,23,1,x,images/br_x.png,images/cb_x.png,,,,,,,,,,,,,,,,,,,,,,,,,,,,,,,,,,,,,,,,,,,,,,,
,,,,,,,2023-10-14_08h26.28,vbt_B2_day2,2022.2.4,MacIntel,250,,,,,,,0.205555556,-0.141111111,1,0,0,1.883,0,19,19,9,1,j,images/br_j.png,images/cb_j.png,,,,,,,,,,,,,,,,,,,,,,,,,,,,,,,,,,,,,,,,,,,,,,,
,,,,,,,2023-10-14_08h26.28,vbt_B2_day2,2022.2.4,MacIntel,250,,,,,,,0.205555556,-0.141111111,1,0,0,0.6,0,20,20,2,1,c,images/br_c.png,images/cb_c.png,,,,,,,,,,,,,,,,,,,,,,,,,,,,,,,,,,,,,,,,,,,,,,,
,,,,,,,2023-10-14_08h26.28,vbt_B2_day2,2022.2.4,MacIntel,250,,,,,,,0.205555556,-0.141111111,1,0,0,0.517,0,21,21,8,1,i,images/br_i.png,images/cb_i.png,,,,,,,,,,,,,,,,,,,,,,,,,,,,,,,,,,,,,,,,,,,,,,,
,,,,,,,2023-10-14_08h26.28,vbt_B2_day2,2022.2.4,MacIntel,250,,,,,,,0.205555556,-0.141111111,1,0,0,0.483,0,22,22,7,1,h,images/br_h.png,images/cb_h.png,,,,,,,,,,,,,,,,,,,,,,,,,,,,,,,,,,,,,,,,,,,,,,,
,,,,,,,2023-10-14_08h26.28,vbt_B2_day2,2022.2.4,MacIntel,250,,,,,,,0.205555556,-0.141111111,1,0,0,3.383,0,23,23,15,1,p,images/br_p.png,images/cb_p.png,,,,,,,,,,,,,,,,,,,,,,,,,,,,,,,,,,,,,,,,,,,,,,,
,,,,,,,2023-10-14_08h26.28,vbt_B2_day2,2022.2.4,MacIntel,250,,,,,,,0.205555556,-0.141111111,1,0,0,2.65,0,24,24,14,1,o,images/br_o.png,images/cb_o.png,,,,,,,,,,,,,,,,,,,,,,,,,,,,,,,,,,,,,,,,,,,,,,,
,,,,,,,2023-10-14_08h26.28,vbt_B2_day2,2022.2.4,MacIntel,250,,,,,,,0.205555556,-0.141111111,1,0,0,1.751,0,25,25,21,1,v,images/br_v.png,images/cb_v.png,,,,,,,,,,,,,,,,,,,,,,,,,,,,,,,,,,,,,,,,,,,,,,,
,,,,,,,2023-10-14_08h26.28,vbt_B2_day2,2022.2.4,MacIntel,250,,,,,,,,,,,,,,,,,,,,,0.202222222,-0.142222222,1,0,0,39.964,,,,,,,,,,,,,,,,,,,,,,,,,,,,,,,,,,,,,,,,,
,,,,,,,2023-10-14_08h26.28,vbt_B2_day2,2022.2.4,MacIntel,250,,,,,,,,,,,,,,,,,,,,,,,,,,,down,0,5.382,,0.202222222,-0.142222222,1,0,0,2.018,0,0,0,188,1,strekken,images/br_strekken.png,images/cb_strekken.png,0,,,,,,,,,,,,,,,,,,,,,,
,,,,,,,2023-10-14_08h26.28,vbt_B2_day2,2022.2.4,MacIntel,250,,,,,,,,,,,,,,,,,,,,,,,,,,,down,0,3.976,,0.202222222,-0.142222222,1,0,0,1.2,0,1,1,6,1,diep,images/br_diep.png,images/cb_diep.png,0,,,,,,,,,,,,,,,,,,,,,,
,,,,,,,2023-10-14_08h26.28,vbt_B2_day2,2022.2.4,MacIntel,250,,,,,,,,,,,,,,,,,,,,,,,,,,,down,0,5.942,,0.203333333,-0.144444444,1,0,0,1.25,0,2,2,147,1,komisch,images/br_komisch.png,images/cb_komisch.png,0,,,,,,,,,,,,,,,,,,,,,,
,,,,,,,2023-10-14_08h26.28,vbt_B2_day2,2022.2.4,MacIntel,250,,,,,,,,,,,,,,,,,,,,,,,,,,,down,0,3.075,,0.203333333,-0.145555556,1,0,0,0.65,0,3,3,0,1,slak,images/br_slak.png,images/cb_slak.png,0,,,,,,,,,,,,,,,,,,,,,,
,,,,,,,2023-10-14_08h26.28,vbt_B2_day2,2022.2.4,MacIntel,250,,,,,,,,,,,,,,,,,,,,,,,,,,,down,0,6.565,,0.203333333,-0.146666667,1,0,0,1.383,0,4,4,55,1,praat,images/br_praat.png,images/cb_praat.png,0,,,,,,,,,,,,,,,,,,,,,,
,,,,,,,2023-10-14_08h26.28,vbt_B2_day2,2022.2.4,MacIntel,250,,,,,,,,,,,,,,,,,,,,,,,,,,,down,0,6.712,,0.202222222,-0.144444444,1,0,0,1.5,0,5,5,37,1,mijn,images/br_mijn.png,images/cb_mijn.png,0,,,,,,,,,,,,,,,,,,,,,,
,,,,,,,2023-10-14_08h26.28,vbt_B2_day2,2022.2.4,MacIntel,250,,,,,,,,,,,,,,,,,,,,,,,,,,,down,0,7.761,,0.202222222,-0.145555556,1,0,0,1.199,0,6,6,131,1,opzicht,images/br_opzicht.png,images/cb_opzicht.png,0,,,,,,,,,,,,,,,,,,,,,,
,,,,,,,2023-10-14_08h26.28,vbt_B2_day2,2022.2.4,MacIntel,250,,,,,,,,,,,,,,,,,,,,,,,,,,,down,0,2.482,,0.202222222,-0.144444444,1,0,0,0.95,0,7,7,71,1,bever,images/br_bever.png,images/cb_bever.png,0,,,,,,,,,,,,,,,,,,,,,,
,,,,,,,2023-10-14_08h26.28,vbt_B2_day2,2022.2.4,MacIntel,250,,,,,,,,,,,,,,,,,,,,,,,,,,,down,0,2.967,,0.204444444,-0.137777778,1,0,0,0.933,0,8,8,8,1,knie,images/br_knie.png,images/cb_knie.png,0,,,,,,,,,,,,,,,,,,,,,,
,,,,,,,2023-10-14_08h26.28,vbt_B2_day2,2022.2.4,MacIntel,250,,,,,,,,,,,,,,,,,,,,,,,,,,,down,0,22.468,,0.201111111,-0.137777778,1,0,0,5.615,0,9,9,184,1,aandelen,images/br_aandelen.png,images/cb_aandelen.png,0,,,,,,,,,,,,,,,,,,,,,,
,,,,,,,2023-10-14_08h26.28,vbt_B2_day2,2022.2.4,MacIntel,250,,,,,,,,,,,,,,,,,,,,,,,,,,,down,0,5.118,,0.201111111,-0.137777778,1,0,0,0.848,0,10,10,194,1,driemaal,images/br_driemaal.png,images/cb_driemaal.png,0,,,,,,,,,,,,,,,,,,,,,,
,,,,,,,2023-10-14_08h26.28,vbt_B2_day2,2022.2.4,MacIntel,250,,,,,,,,,,,,,,,,,,,,,,,,,,,down,0,1.951,,0.202222222,-0.137777778,1,0,0,1.683,0,11,11,1,1,zaal,images/br_zaal.png,images/cb_zaal.png,0,,,,,,,,,,,,,,,,,,,,,,
,,,,,,,2023-10-14_08h26.28,vbt_B2_day2,2022.2.4,MacIntel,250,,,,,,,,,,,,,,,,,,,,,,,,,,,down,0,2.368,,0.202222222,-0.137777778,1,0,0,1.151,0,12,12,32,1,palm,images/br_palm.png,images/cb_palm.png,0,,,,,,,,,,,,,,,,,,,,,,
,,,,,,,2023-10-14_08h26.28,vbt_B2_day2,2022.2.4,MacIntel,250,,,,,,,,,,,,,,,,,,,,,,,,,,,down,0,24.918,,0.202222222,-0.138888889,1,0,0,8.8,0,13,13,196,1,nakijken,images/br_nakijken.png,images/cb_nakijken.png,0,,,,,,,,,,,,,,,,,,,,,,
,,,,,,,2023-10-14_08h26.28,vbt_B2_day2,2022.2.4,MacIntel,250,,,,,,,,,,,,,,,,,,,,,,,,,,,down,0,12.441,,0.203333333,-0.14,1,0,0,1.55,0,14,14,107,1,maling,images/br_maling.png,images/cb_maling.png,0,,,,,,,,,,,,,,,,,,,,,,
,,,,,,,2023-10-14_08h26.28,vbt_B2_day2,2022.2.4,MacIntel,250,,,,,,,,,,,,,,,,,,,,,,,,,,,down,0,9.458,,0.418888889,-0.301111111,1,0,0,1.432,0,15,15,58,1,tekst,images/br_tekst.png,images/cb_tekst.png,1,tekst,,,,,,,,,,,,,,,,,,,,,
,,,,,,,2023-10-14_08h26.28,vbt_B2_day2,2022.2.4,MacIntel,250,,,,,,,,,,,,,,,,,,,,,,,,,,,down,0,10.035,,0.418888889,-0.301111111,1,0,0,0.734,0,16,16,151,1,aanzoek,images/br_aanzoek.png,images/cb_aanzoek.png,0,,,,,,,,,,,,,,,,,,,,,,
,,,,,,,2023-10-14_08h26.28,vbt_B2_day2,2022.2.4,MacIntel,250,,,,,,,,,,,,,,,,,,,,,,,,,,,down,0,8,,0.418888889,-0.301111111,1,0,0,1.483,0,17,17,86,1,woning,images/br_woning.png,images/cb_woning.png,0,,,,,,,,,,,,,,,,,,,,,,
,,,,,,,2023-10-14_08h26.28,vbt_B2_day2,2022.2.4,MacIntel,250,,,,,,,,,,,,,,,,,,,,,,,,,,,down,0,12.5,,0.418888889,-0.298888889,1,0,0,4.551,0,18,18,162,1,uitdelen,images/br_uitdelen.png,images/cb_uitdelen.png,0,,,,,,,,,,,,,,,,,,,,,,
,,,,,,,2023-10-14_08h26.28,vbt_B2_day2,2022.2.4,MacIntel,250,,,,,,,,,,,,,,,,,,,,,,,,,,,down,0,1.05,,0.418888889,-0.288888889,1,0,0,1.5,0,19,19,29,1,baas,images/br_baas.png,images/cb_baas.png,0,,,,,,,,,,,,,,,,,,,,,,
,,,,,,,2023-10-14_08h26.28,vbt_B2_day2,2022.2.4,MacIntel,250,,,,,,,,,,,,,,,,,,,,,,,,,,,down,0,8.108,,0.42,-0.287777778,1,0,0,1.018,0,20,20,171,1,aarzelen,images/br_aarzelen.png,images/cb_aarzelen.png,0,,,,,,,,,,,,,,,,,,,,,,
,,,,,,,2023-10-14_08h26.28,vbt_B2_day2,2022.2.4,MacIntel,250,,,,,,,,,,,,,,,,,,,,,,,,,,,down,0,6.076,,0.42,-0.287777778,1,0,0,0.817,0,21,21,78,1,leren,images/br_leren.png,images/cb_leren.png,0,,,,,,,,,,,,,,,,,,,,,,
,,,,,,,2023-10-14_08h26.28,vbt_B2_day2,2022.2.4,MacIntel,250,,,,,,,,,,,,,,,,,,,,,,,,,,,down,0,6.048,,0.421111111,-0.285555556,1,0,0,0.833,0,22,22,124,1,bloeien,images/br_bloeien.png,images/cb_bloeien.png,0,,,,,,,,,,,,,,,,,,,,,,
,,,,,,,2023-10-14_08h26.28,vbt_B2_day2,2022.2.4,MacIntel,250,,,,,,,,,,,,,,,,,,,,,,,,,,,down,0,4.747,,0.423333333,-0.284444444,1,0,0,0.816,0,23,23,26,1,leuk,images/br_leuk.png,images/cb_leuk.png,0,,,,,,,,,,,,,,,,,,,,,,
,,,,,,,2023-10-14_08h26.28,vbt_B2_day2,2022.2.4,MacIntel,250,,,,,,,,,,,,,,,,,,,,,,,,,,,down,0,11.961,,0.417777778,-0.283333333,1,0,0,0.466,0,24,24,92,1,geheim,images/br_geheim.png,images/cb_geheim.png,0,,,,,,,,,,,,,,,,,,,,,,
,,,,,,,2023-10-14_08h26.28,vbt_B2_day2,2022.2.4,MacIntel,250,,,,,,,,,,,,,,,,,,,,,,,,,,,down,0,9.376,,0.416666667,-0.3,1,0,0,1.199,0,25,25,145,1,invloed,images/br_invloed.png,images/cb_invloed.png,0,,,,,,,,,,,,,,,,,,,,,,
,,,,,,,2023-10-14_08h26.28,vbt_B2_day2,2022.2.4,MacIntel,250,,,,,,,,,,,,,,,,,,,,,,,,,,,down,0,2.417,,0.416666667,-0.3,1,0,0,0.933,0,26,26,20,1,site,images/br_site.png,images/cb_site.png,0,,,,,,,,,,,,,,,,,,,,,,
,,,,,,,2023-10-14_08h26.28,vbt_B2_day2,2022.2.4,MacIntel,250,,,,,,,,,,,,,,,,,,,,,,,,,,,down,0,3.377,,0.423333333,-0.306666667,1,0,0,1.35,0,27,27,31,1,poes,images/br_poes.png,images/cb_poes.png,0,,,,,,,,,,,,,,,,,,,,,,
,,,,,,,2023-10-14_08h26.28,vbt_B2_day2,2022.2.4,MacIntel,250,,,,,,,,,,,,,,,,,,,,,,,,,,,down,0,11.467,,0.423333333,-0.306666667,1,0,0,1.649,0,28,28,153,1,vervoer,images/br_vervoer.png,images/cb_vervoer.png,0,,,,,,,,,,,,,,,,,,,,,,
,,,,,,,2023-10-14_08h26.28,vbt_B2_day2,2022.2.4,MacIntel,250,,,,,,,,,,,,,,,,,,,,,,,,,,,down,0,6.05,,0.425555556,-0.307777778,1,0,0,1.351,0,29,29,174,1,stemming,images/br_stemming.png,images/cb_stemming.png,0,,,,,,,,,,,,,,,,,,,,,,
,,,,,,,2023-10-14_08h26.28,vbt_B2_day2,2022.2.4,MacIntel,250,,,,,,,,,,,,,,,,,,,,,,,,,,,down,0,1.662,,0.426666667,-0.311111111,1,0,0,0.732,0,30,30,2,1,jaar,images/br_jaar.png,images/cb_jaar.png,0,,,,,,,,,,,,,,,,,,,,,,
,,,,,,,2023-10-14_08h26.28,vbt_B2_day2,2022.2.4,MacIntel,250,,,,,,,,,,,,,,,,,,,,,,,,,,,down,0,11.392,,0.426666667,-0.311111111,1,0,0,0.617,0,31,31,146,1,opkomen,images/br_opkomen.png,images/cb_opkomen.png,0,,,,,,,,,,,,,,,,,,,,,,
,,,,,,,2023-10-14_08h26.28,vbt_B2_day2,2022.2.4,MacIntel,250,,,,,,,,,,,,,,,,,,,,,,,,,,,down,0,1.884,,0.427777778,-0.313333333,1,0,0,0.783,0,32,32,103,1,joggen,images/br_joggen.png,images/cb_joggen.png,0,,,,,,,,,,,,,,,,,,,,,,
,,,,,,,2023-10-14_08h26.28,vbt_B2_day2,2022.2.4,MacIntel,250,,,,,,,,,,,,,,,,,,,,,,,,,,,down,0,7.614,,0.427777778,-0.313333333,1,0,0,0.916,0,33,33,149,1,redding,images/br_redding.png,images/cb_redding.png,0,,,,,,,,,,,,,,,,,,,,,,
,,,,,,,2023-10-14_08h26.28,vbt_B2_day2,2022.2.4,MacIntel,250,,,,,,,,,,,,,,,,,,,,,,,,,,,down,0,1.042,,0.428888889,-0.314444444,1,0,0,1.116,0,34,34,48,1,steel,images/br_steel.png,images/cb_steel.png,0,,,,,,,,,,,,,,,,,,,,,,
,,,,,,,2023-10-14_08h26.28,vbt_B2_day2,2022.2.4,MacIntel,250,,,,,,,,,,,,,,,,,,,,,,,,,,,down,0,3.16,,0.428888889,-0.314444444,1,0,0,1.251,0,35,35,119,1,liefje,images/br_liefje.png,images/cb_liefje.png,0,,,,,,,,,,,,,,,,,,,,,,
,,,,,,,2023-10-14_08h26.28,vbt_B2_day2,2022.2.4,MacIntel,250,,,,,,,,,,,,,,,,,,,,,,,,,,,down,0,3.265,,0.43,-0.316666667,1,0,0,0.967,0,36,36,197,1,spanning,images/br_spanning.png,images/cb_spanning.png,0,,,,,,,,,,,,,,,,,,,,,,
,,,,,,,2023-10-14_08h26.28,vbt_B2_day2,2022.2.4,MacIntel,250,,,,,,,,,,,,,,,,,,,,,,,,,,,down,0,3.584,,0.43,-0.316666667,1,0,0,1.35,0,37,37,52,1,wagon,images/br_wagon.png,images/cb_wagon.png,0,,,,,,,,,,,,,,,,,,,,,,
,,,,,,,2023-10-14_08h26.28,vbt_B2_day2,2022.2.4,MacIntel,250,,,,,,,,,,,,,,,,,,,,,,,,,,,down,0,8.859,,0.431111111,-0.317777778,1,0,0,1.1,0,38,38,164,1,anarchie,images/br_anarchie.png,images/cb_anarchie.png,0,,,,,,,,,,,,,,,,,,,,,,
,,,,,,,2023-10-14_08h26.28,vbt_B2_day2,2022.2.4,MacIntel,250,,,,,,,,,,,,,,,,,,,,,,,,,,,down,0,8.251,,0.432222222,-0.317777778,1,0,0,0.867,0,39,39,182,1,bijkomen,images/br_bijkomen.png,images/cb_bijkomen.png,0,,,,,,,,,,,,,,,,,,,,,,
,,,,,,,2023-10-14_08h26.28,vbt_B2_day2,2022.2.4,MacIntel,250,,,,,,,,,,,,,,,,,,,,,,,,,,,down,0,5.449,,0.426666667,-0.311111111,1,0,0,0.616,0,40,40,183,1,getuigen,images/br_getuigen.png,images/cb_getuigen.png,0,,,,,,,,,,,,,,,,,,,,,,
,,,,,,,2023-10-14_08h26.28,vbt_B2_day2,2022.2.4,MacIntel,250,,,,,,,,,,,,,,,,,,,,,,,,,,,down,0,2.349,,0.427777778,-0.312222222,1,0,0,1.066,0,41,41,53,1,baron,images/br_baron.png,images/cb_baron.png,0,,,,,,,,,,,,,,,,,,,,,,
,,,,,,,2023-10-14_08h26.28,vbt_B2_day2,2022.2.4,MacIntel,250,,,,,,,,,,,,,,,,,,,,,,,,,,,down,0,10.42,,0.427777778,-0.312222222,1,0,0,1.666,0,42,42,61,1,groen,images/br_groen.png,images/cb_groen.png,0,,,,,,,,,,,,,,,,,,,,,,
,,,,,,,2023-10-14_08h26.28,vbt_B2_day2,2022.2.4,MacIntel,250,,,,,,,,,,,,,,,,,,,,,,,,,,,down,0,22.248,,0.401111111,-0.322222222,1,0,0,0.8,0,43,43,176,1,techniek,images/br_techniek.png,images/cb_techniek.png,1,techniektechniek,,,,,,,,,,,,,,,,,,,,,
,,,,,,,2023-10-14_08h26.28,vbt_B2_day2,2022.2.4,MacIntel,250,,,,,,,,,,,,,,,,,,,,,,,,,,,down,0,7.767,,0.401111111,-0.322222222,1,0,0,2.065,0,44,44,104,1,zweven,images/br_zweven.png,images/cb_zweven.png,0,,,,,,,,,,,,,,,,,,,,,,
,,,,,,,2023-10-14_08h26.28,vbt_B2_day2,2022.2.4,MacIntel,250,,,,,,,,,,,,,,,,,,,,,,,,,,,down,0,2.275,,0.397777778,-0.326666667,1,0,0,2.15,0,45,45,34,1,vorm,images/br_vorm.png,images/cb_vorm.png,0,,,,,,,,,,,,,,,,,,,,,,
,,,,,,,2023-10-14_08h26.28,vbt_B2_day2,2022.2.4,MacIntel,250,,,,,,,,,,,,,,,,,,,,,,,,,,,down,0,15.712,,0.51,0.14,1,0,0,1.318,0,46,46,130,1,keihard,images/br_keihard.png,images/cb_keihard.png,0,,,,,,,,,,,,,,,,,,,,,,
,,,,,,,2023-10-14_08h26.28,vbt_B2_day2,2022.2.4,MacIntel,250,,,,,,,,,,,,,,,,,,,,,,,,,,,down,0,0.918,,0.51,0.14,1,0,0,0.9,0,47,47,148,1,smullen,images/br_smullen.png,images/cb_smullen.png,0,,,,,,,,,,,,,,,,,,,,,,
,,,,,,,2023-10-14_08h26.28,vbt_B2_day2,2022.2.4,MacIntel,250,,,,,,,,,,,,,,,,,,,,,,,,,,,down,0,1.668,,0.512222222,0.14,1,0,0,1.417,0,48,48,25,1,plek,images/br_plek.png,images/cb_plek.png,0,,,,,,,,,,,,,,,,,,,,,,
,,,,,,,2023-10-14_08h26.28,vbt_B2_day2,2022.2.4,MacIntel,250,,,,,,,,,,,,,,,,,,,,,,,,,,,down,0,3.279,,0.513333333,0.138888889,1,0,0,0.767,0,49,49,90,1,geluid,images/br_geluid.png,images/cb_geluid.png,0,,,,,,,,,,,,,,,,,,,,,,
,,,,,,,2023-10-14_08h26.28,vbt_B2_day2,2022.2.4,MacIntel,250,,,,,,,,,,,,,,,,,,,,,,,,,,,down,0,2.296,,0.515555556,0.137777778,1,0,0,0.65,0,50,50,66,1,lever,images/br_lever.png,images/cb_lever.png,0,,,,,,,,,,,,,,,,,,,,,,
,,,,,,,2023-10-14_08h26.28,vbt_B2_day2,2022.2.4,MacIntel,250,,,,,,,,,,,,,,,,,,,,,,,,,,,down,0,2.015,,0.517777778,0.136666667,1,0,0,0.899,0,51,51,39,1,laag,images/br_laag.png,images/cb_laag.png,0,,,,,,,,,,,,,,,,,,,,,,
,,,,,,,2023-10-14_08h26.28,vbt_B2_day2,2022.2.4,MacIntel,250,,,,,,,,,,,,,,,,,,,,,,,,,,,down,0,2.643,,0.517777778,0.135555556,1,0,0,0.583,0,52,52,40,1,schep,images/br_schep.png,images/cb_schep.png,0,,,,,,,,,,,,,,,,,,,,,,
,,,,,,,2023-10-14_08h26.28,vbt_B2_day2,2022.2.4,MacIntel,250,,,,,,,,,,,,,,,,,,,,,,,,,,,down,0,2.45,,0.518888889,0.134444444,1,0,0,0.85,0,53,53,41,1,maken,images/br_maken.png,images/cb_maken.png,0,,,,,,,,,,,,,,,,,,,,,,
,,,,,,,2023-10-14_08h26.28,vbt_B2_day2,2022.2.4,MacIntel,250,,,,,,,,,,,,,,,,,,,,,,,,,,,down,0,3.026,,0.518888889,0.134444444,1,0,0,1.15,0,54,54,175,1,heengaan,images/br_heengaan.png,images/cb_heengaan.png,0,,,,,,,,,,,,,,,,,,,,,,
,,,,,,,2023-10-14_08h26.28,vbt_B2_day2,2022.2.4,MacIntel,250,,,,,,,,,,,,,,,,,,,,,,,,,,,down,0,5.333,,0.518888889,0.134444444,1,0,0,0.55,0,55,55,134,1,geliefd,images/br_geliefd.png,images/cb_geliefd.png,0,,,,,,,,,,,,,,,,,,,,,,
,,,,,,,2023-10-14_08h26.28,vbt_B2_day2,2022.2.4,MacIntel,250,,,,,,,,,,,,,,,,,,,,,,,,,,,down,0,7.81,,0.52,0.134444444,1,0,0,0.582,0,56,56,67,1,zwart,images/br_zwart.png,images/cb_zwart.png,0,,,,,,,,,,,,,,,,,,,,,,
,,,,,,,2023-10-14_08h26.28,vbt_B2_day2,2022.2.4,MacIntel,250,,,,,,,,,,,,,,,,,,,,,,,,,,,down,0,6.617,,0.522222222,0.133333333,1,0,0,0.547,0,57,57,181,1,toegeven,images/br_toegeven.png,images/cb_toegeven.png,0,,,,,,,,,,,,,,,,,,,,,,
,,,,,,,2023-10-14_08h26.28,vbt_B2_day2,2022.2.4,MacIntel,250,,,,,,,,,,,,,,,,,,,,,,,,,,,down,0,1.359,,0.522222222,0.134444444,1,0,0,0.616,0,58,58,33,1,vlek,images/br_vlek.png,images/cb_vlek.png,0,,,,,,,,,,,,,,,,,,,,,,
,,,,,,,2023-10-14_08h26.28,vbt_B2_day2,2022.2.4,MacIntel,250,,,,,,,,,,,,,,,,,,,,,,,,,,,down,0,4.75,,0.523333333,0.131111111,1,0,0,0.833,0,59,59,160,1,daarheen,images/br_daarheen.png,images/cb_daarheen.png,0,,,,,,,,,,,,,,,,,,,,,,
,,,,,,,2023-10-14_08h26.28,vbt_B2_day2,2022.2.4,MacIntel,250,,,,,,,,,,,,,,,,,,,,,,,,,,,down,0,15.984,,0.522222222,0.132222222,1,0,0,0.766,0,60,60,179,1,woestijn,images/br_woestijn.png,images/cb_woestijn.png,1,woestijn,,,,,,,,,,,,,,,,,,,,,
,,,,,,,2023-10-14_08h26.28,vbt_B2_day2,2022.2.4,MacIntel,250,,,,,,,,,,,,,,,,,,,,,,,,,,,down,0,14.116,,0.023333333,-0.056666667,1,0,0,0.817,0,61,61,69,1,waken,images/br_waken.png,images/cb_waken.png,0,,,,,,,,,,,,,,,,,,,,,,
,,,,,,,2023-10-14_08h26.28,vbt_B2_day2,2022.2.4,MacIntel,250,,,,,,,,,,,,,,,,,,,,,,,,,,,down,0,2.618,,0.04,-0.064444444,1,0,0,0.683,0,62,62,49,1,laken,images/br_laken.png,images/cb_laken.png,0,,,,,,,,,,,,,,,,,,,,,,
,,,,,,,2023-10-14_08h26.28,vbt_B2_day2,2022.2.4,MacIntel,250,,,,,,,,,,,,,,,,,,,,,,,,,,,down,0,7.583,,0.04,-0.061111111,1,0,0,0.832,0,63,63,190,1,goedkoop,images/br_goedkoop.png,images/cb_goedkoop.png,0,,,,,,,,,,,,,,,,,,,,,,
,,,,,,,2023-10-14_08h26.28,vbt_B2_day2,2022.2.4,MacIntel,250,,,,,,,,,,,,,,,,,,,,,,,,,,,down,0,5.918,,0.04,-0.061111111,1,0,0,3.334,0,64,64,24,1,jurk,images/br_jurk.png,images/cb_jurk.png,0,,,,,,,,,,,,,,,,,,,,,,
,,,,,,,2023-10-14_08h26.28,vbt_B2_day2,2022.2.4,MacIntel,250,,,,,,,,,,,,,,,,,,,,,,,,,,,down,0,7.34,,0.04,-0.061111111,1,0,0,0.832,0,65,65,167,1,eenhoorn,images/br_eenhoorn.png,images/cb_eenhoorn.png,0,,,,,,,,,,,,,,,,,,,,,,
,,,,,,,2023-10-14_08h26.28,vbt_B2_day2,2022.2.4,MacIntel,250,,,,,,,,,,,,,,,,,,,,,,,,,,,down,0,7.426,,0.04,-0.062222222,1,0,0,0.484,0,66,66,187,1,opkijken,images/br_opkijken.png,images/cb_opkijken.png,0,,,,,,,,,,,,,,,,,,,,,,
,,,,,,,2023-10-14_08h26.28,vbt_B2_day2,2022.2.4,MacIntel,250,,,,,,,,,,,,,,,,,,,,,,,,,,,down,0,3.858,,0.091111111,-0.108888889,1,0,0,4.3,0,67,67,59,1,kring,images/br_kring.png,images/cb_kring.png,1,krijg,,,,,,,,,,,,,,,,,,,,,
,,,,,,,2023-10-14_08h26.28,vbt_B2_day2,2022.2.4,MacIntel,250,,,,,,,,,,,,,,,,,,,,,,,,,,,down,0,12.584,,0.088888889,-0.108888889,1,0,0,0.799,0,68,68,185,1,mijnheer,images/br_mijnheer.png,images/cb_mijnheer.png,0,,,,,,,,,,,,,,,,,,,,,,
,,,,,,,2023-10-14_08h26.28,vbt_B2_day2,2022.2.4,MacIntel,250,,,,,,,,,,,,,,,,,,,,,,,,,,,down,0,6.292,,0.1,-0.096666667,1,0,0,0.966,0,69,69,95,1,vreten,images/br_vreten.png,images/cb_vreten.png,0,,,,,,,,,,,,,,,,,,,,,,
,,,,,,,2023-10-14_08h26.28,vbt_B2_day2,2022.2.4,MacIntel,250,,,,,,,,,,,,,,,,,,,,,,,,,,,down,0,3.86,,0.101111111,-0.098888889,1,0,0,0.917,0,70,70,45,1,piste,images/br_piste.png,images/cb_piste.png,0,,,,,,,,,,,,,,,,,,,,,,
,,,,,,,2023-10-14_08h26.28,vbt_B2_day2,2022.2.4,MacIntel,250,,,,,,,,,,,,,,,,,,,,,,,,,,,down,0,3.133,,0.097777778,-0.095555556,1,0,0,2.117,0,71,71,193,1,weeshuis,images/br_weeshuis.png,images/cb_weeshuis.png,0,,,,,,,,,,,,,,,,,,,,,,
,,,,,,,2023-10-14_08h26.28,vbt_B2_day2,2022.2.4,MacIntel,250,,,,,,,,,,,,,,,,,,,,,,,,,,,down,0,5.1,,0.097777778,-0.094444444,1,0,0,1.333,0,72,72,99,1,koffie,images/br_koffie.png,images/cb_koffie.png,1,koffie,,,,,,,,,,,,,,,,,,,,,
,,,,,,,2023-10-14_08h26.28,vbt_B2_day2,2022.2.4,MacIntel,250,,,,,,,,,,,,,,,,,,,,,,,,,,,down,0,3.393,,0.097777778,-0.094444444,1,0,0,0.967,0,73,73,75,1,snoep,images/br_snoep.png,images/cb_snoep.png,0,,,,,,,,,,,,,,,,,,,,,,
,,,,,,,2023-10-14_08h26.28,vbt_B2_day2,2022.2.4,MacIntel,250,,,,,,,,,,,,,,,,,,,,,,,,,,,down,0,2.749,,0.097777778,-0.094444444,1,0,0,0.832,0,74,74,109,1,totaal,images/br_totaal.png,images/cb_totaal.png,0,,,,,,,,,,,,,,,,,,,,,,
,,,,,,,2023-10-14_08h26.28,vbt_B2_day2,2022.2.4,MacIntel,250,,,,,,,,,,,,,,,,,,,,,,,,,,,down,0,3.176,,0.097777778,-0.094444444,1,0,0,0.783,0,75,75,122,1,waarvan,images/br_waarvan.png,images/cb_waarvan.png,0,,,,,,,,,,,,,,,,,,,,,,
,,,,,,,2023-10-14_08h26.28,vbt_B2_day2,2022.2.4,MacIntel,250,,,,,,,,,,,,,,,,,,,,,,,,,,,down,0,3.699,,0.097777778,-0.093333333,1,0,0,0.734,0,76,76,93,1,waarop,images/br_waarop.png,images/cb_waarop.png,0,,,,,,,,,,,,,,,,,,,,,,
,,,,,,,2023-10-14_08h26.28,vbt_B2_day2,2022.2.4,MacIntel,250,,,,,,,,,,,,,,,,,,,,,,,,,,,down,0,8.152,,0.097777778,-0.094444444,1,0,0,0.683,0,77,77,199,1,beseffen,images/br_beseffen.png,images/cb_beseffen.png,0,,,,,,,,,,,,,,,,,,,,,,
,,,,,,,2023-10-14_08h26.28,vbt_B2_day2,2022.2.4,MacIntel,250,,,,,,,,,,,,,,,,,,,,,,,,,,,down,0,4.684,,0.102222222,-0.095555556,1,0,0,0.683,0,78,78,47,1,kabel,images/br_kabel.png,images/cb_kabel.png,0,,,,,,,,,,,,,,,,,,,,,,
,,,,,,,2023-10-14_08h26.28,vbt_B2_day2,2022.2.4,MacIntel,250,,,,,,,,,,,,,,,,,,,,,,,,,,,down,0,2.116,,0.098888889,-0.095555556,1,0,0,1.883,0,79,79,17,1,taal,images/br_taal.png,images/cb_taal.png,1,taal,,,,,,,,,,,,,,,,,,,,,
,,,,,,,2023-10-14_08h26.28,vbt_B2_day2,2022.2.4,MacIntel,250,,,,,,,,,,,,,,,,,,,,,,,,,,,down,0,5.6,,0.098888889,-0.095555556,1,0,0,1.285,0,80,80,91,1,gezond,images/br_gezond.png,images/cb_gezond.png,0,,,,,,,,,,,,,,,,,,,,,,
,,,,,,,2023-10-14_08h26.28,vbt_B2_day2,2022.2.4,MacIntel,250,,,,,,,,,,,,,,,,,,,,,,,,,,,down,0,5.626,,0.098888889,-0.094444444,1,0,0,1.117,0,81,81,113,1,koppen,images/br_koppen.png,images/cb_koppen.png,0,,,,,,,,,,,,,,,,,,,,,,
,,,,,,,2023-10-14_08h26.28,vbt_B2_day2,2022.2.4,MacIntel,250,,,,,,,,,,,,,,,,,,,,,,,,,,,down,0,8.634,,0.116666667,-0.063333333,1,0,0,1.115,0,82,82,97,1,loyaal,images/br_loyaal.png,images/cb_loyaal.png,1,loyaal,,,,,,,,,,,,,,,,,,,,,
,,,,,,,2023-10-14_08h26.28,vbt_B2_day2,2022.2.4,MacIntel,250,,,,,,,,,,,,,,,,,,,,,,,,,,,down,0,8.792,,0.116666667,-0.063333333,1,0,0,0.767,0,83,83,157,1,uitlaat,images/br_uitlaat.png,images/cb_uitlaat.png,0,,,,,,,,,,,,,,,,,,,,,,
,,,,,,,2023-10-14_08h26.28,vbt_B2_day2,2022.2.4,MacIntel,250,,,,,,,,,,,,,,,,,,,,,,,,,,,down,0,6.585,,0.116666667,-0.063333333,1,0,0,0.716,0,84,84,112,1,lukken,images/br_lukken.png,images/cb_lukken.png,0,,,,,,,,,,,,,,,,,,,,,,
,,,,,,,2023-10-14_08h26.28,vbt_B2_day2,2022.2.4,MacIntel,250,,,,,,,,,,,,,,,,,,,,,,,,,,,down,0,11.135,,0.116666667,-0.063333333,1,0,0,0.516,0,85,85,117,1,kennis,images/br_kennis.png,images/cb_kennis.png,0,,,,,,,,,,,,,,,,,,,,,,
,,,,,,,2023-10-14_08h26.28,vbt_B2_day2,2022.2.4,MacIntel,250,,,,,,,,,,,,,,,,,,,,,,,,,,,down,0,3.099,,0.121111111,-0.074444444,1,0,0,0.851,0,86,86,110,1,zuster,images/br_zuster.png,images/cb_zuster.png,0,,,,,,,,,,,,,,,,,,,,,,
,,,,,,,2023-10-14_08h26.28,vbt_B2_day2,2022.2.4,MacIntel,250,,,,,,,,,,,,,,,,,,,,,,,,,,,down,0,2.778,,0.123333333,-0.074444444,1,0,0,0.785,0,87,87,77,1,woede,images/br_woede.png,images/cb_woede.png,0,,,,,,,,,,,,,,,,,,,,,,
,,,,,,,2023-10-14_08h26.28,vbt_B2_day2,2022.2.4,MacIntel,250,,,,,,,,,,,,,,,,,,,,,,,,,,,down,0,2.293,,0.123333333,-0.074444444,1,0,0,0.549,0,88,88,5,1,blad,images/br_blad.png,images/cb_blad.png,0,,,,,,,,,,,,,,,,,,,,,,
,,,,,,,2023-10-14_08h26.28,vbt_B2_day2,2022.2.4,MacIntel,250,,,,,,,,,,,,,,,,,,,,,,,,,,,down,0,2.71,,0.122222222,-0.073333333,1,0,0,1.4,0,89,89,57,1,steek,images/br_steek.png,images/cb_steek.png,1,steek,,,,,,,,,,,,,,,,,,,,,
,,,,,,,2023-10-14_08h26.28,vbt_B2_day2,2022.2.4,MacIntel,250,,,,,,,,,,,,,,,,,,,,,,,,,,,down,0,5.371,,0.126666667,-0.073333333,1,0,0,1.567,0,90,90,121,1,twijfel,images/br_twijfel.png,images/cb_twijfel.png,0,,,,,,,,,,,,,,,,,,,,,,
,,,,,,,2023-10-14_08h26.28,vbt_B2_day2,2022.2.4,MacIntel,250,,,,,,,,,,,,,,,,,,,,,,,,,,,down,0,20.861,,0.126666667,-0.072222222,1,0,0,1.349,0,91,91,172,1,weigeren,images/br_weigeren.png,images/cb_weigeren.png,0,,,,,,,,,,,,,,,,,,,,,,
,,,,,,,2023-10-14_08h26.28,vbt_B2_day2,2022.2.4,MacIntel,250,,,,,,,,,,,,,,,,,,,,,,,,,,,down,0,2.049,,0.122222222,-0.07,1,0,0,0.899,0,92,92,64,1,wegen,images/br_wegen.png,images/cb_wegen.png,0,,,,,,,,,,,,,,,,,,,,,,
,,,,,,,2023-10-14_08h26.28,vbt_B2_day2,2022.2.4,MacIntel,250,,,,,,,,,,,,,,,,,,,,,,,,,,,down,0,5.052,,0.121111111,-0.071111111,1,0,0,1.016,0,93,93,63,1,flirt,images/br_flirt.png,images/cb_flirt.png,0,,,,,,,,,,,,,,,,,,,,,,
,,,,,,,2023-10-14_08h26.28,vbt_B2_day2,2022.2.4,MacIntel,250,,,,,,,,,,,,,,,,,,,,,,,,,,,down,0,4.4,,0.121111111,-0.07,1,0,0,0.917,0,94,94,38,1,baai,images/br_baai.png,images/cb_baai.png,0,,,,,,,,,,,,,,,,,,,,,,
,,,,,,,2023-10-14_08h26.28,vbt_B2_day2,2022.2.4,MacIntel,250,,,,,,,,,,,,,,,,,,,,,,,,,,,down,0,8.719,,0.118888889,-0.068888889,1,0,0,16.05,0,95,95,155,1,gerucht,images/br_gerucht.png,images/cb_gerucht.png,0,,,,,,,,,,,,,,,,,,,,,,
,,,,,,,2023-10-14_08h26.28,vbt_B2_day2,2022.2.4,MacIntel,250,,,,,,,,,,,,,,,,,,,,,,,,,,,down,0,11.483,,0.118888889,-0.068888889,1,0,0,0.75,0,96,96,136,1,waarbij,images/br_waarbij.png,images/cb_waarbij.png,1,waarbij,,,,,,,,,,,,,,,,,,,,,
,,,,,,,2023-10-14_08h26.28,vbt_B2_day2,2022.2.4,MacIntel,250,,,,,,,,,,,,,,,,,,,,,,,,,,,down,0,1.819,,0.118888889,-0.068888889,1,0,0,0.8,0,97,97,3,1,mand,images/br_mand.png,images/cb_mand.png,0,,,,,,,,,,,,,,,,,,,,,,
,,,,,,,2023-10-14_08h26.28,vbt_B2_day2,2022.2.4,MacIntel,250,,,,,,,,,,,,,,,,,,,,,,,,,,,down,0,23.867,,0.116666667,-0.063333333,1,0,0,0.749,0,98,98,154,1,aflopen,images/br_aflopen.png,images/cb_aflopen.png,0,,,,,,,,,,,,,,,,,,,,,,
,,,,,,,2023-10-14_08h26.28,vbt_B2_day2,2022.2.4,MacIntel,250,,,,,,,,,,,,,,,,,,,,,,,,,,,down,0,6.843,,0.116666667,-0.063333333,1,0,0,1.9,0,99,99,143,1,hechten,images/br_hechten.png,images/cb_hechten.png,0,,,,,,,,,,,,,,,,,,,,,,
,,,,,,,2023-10-14_08h26.28,vbt_B2_day2,2022.2.4,MacIntel,250,,,,,,,,,,,,,,,,,,,,,,,,,,,down,0,1.515,,0.116666667,-0.063333333,1,0,0,0.666,0,100,100,150,1,gegeven,images/br_gegeven.png,images/cb_gegeven.png,0,,,,,,,,,,,,,,,,,,,,,,
,,,,,,,2023-10-14_08h26.28,vbt_B2_day2,2022.2.4,MacIntel,250,,,,,,,,,,,,,,,,,,,,,,,,,,,down,0,2.985,,0.117777778,-0.063333333,1,0,0,0.666,0,101,101,22,1,stof,images/br_stof.png,images/cb_stof.png,0,,,,,,,,,,,,,,,,,,,,,,
,,,,,,,2023-10-14_08h26.28,vbt_B2_day2,2022.2.4,MacIntel,250,,,,,,,,,,,,,,,,,,,,,,,,,,,down,0,4.759,,0.117777778,-0.064444444,1,0,0,0.617,0,102,102,87,1,toeval,images/br_toeval.png,images/cb_toeval.png,0,,,,,,,,,,,,,,,,,,,,,,
,,,,,,,2023-10-14_08h26.28,vbt_B2_day2,2022.2.4,MacIntel,250,,,,,,,,,,,,,,,,,,,,,,,,,,,down,0,5.433,,0.117777778,-0.064444444,1,0,0,0.783,0,103,103,115,1,kleren,images/br_kleren.png,images/cb_kleren.png,0,,,,,,,,,,,,,,,,,,,,,,
,,,,,,,2023-10-14_08h26.28,vbt_B2_day2,2022.2.4,MacIntel,250,,,,,,,,,,,,,,,,,,,,,,,,,,,down,0,3.765,,0.117777778,-0.064444444,1,0,0,2.617,0,104,104,170,1,schatten,images/br_schatten.png,images/cb_schatten.png,0,,,,,,,,,,,,,,,,,,,,,,
,,,,,,,2023-10-14_08h26.28,vbt_B2_day2,2022.2.4,MacIntel,250,,,,,,,,,,,,,,,,,,,,,,,,,,,down,0,5.118,,0.181111111,-0.075555556,1,0,0,1.984,0,105,105,16,1,ziek,images/br_ziek.png,images/cb_ziek.png,1,ziek,,,,,,,,,,,,,,,,,,,,,
,,,,,,,2023-10-14_08h26.28,vbt_B2_day2,2022.2.4,MacIntel,250,,,,,,,,,,,,,,,,,,,,,,,,,,,down,0,2.25,,0.181111111,-0.075555556,1,0,0,0.883,0,106,106,68,1,schat,images/br_schat.png,images/cb_schat.png,0,,,,,,,,,,,,,,,,,,,,,,
,,,,,,,2023-10-14_08h26.28,vbt_B2_day2,2022.2.4,MacIntel,250,,,,,,,,,,,,,,,,,,,,,,,,,,,down,0,6.459,,0.18,-0.073333333,1,0,0,0.834,0,107,107,198,1,bedoelen,images/br_bedoelen.png,images/cb_bedoelen.png,0,,,,,,,,,,,,,,,,,,,,,,
,,,,,,,2023-10-14_08h26.28,vbt_B2_day2,2022.2.4,MacIntel,250,,,,,,,,,,,,,,,,,,,,,,,,,,,down,0,6.274,,0.175555556,-0.075555556,1,0,0,0.8,0,108,108,100,1,geduld,images/br_geduld.png,images/cb_geduld.png,0,,,,,,,,,,,,,,,,,,,,,,
,,,,,,,2023-10-14_08h26.28,vbt_B2_day2,2022.2.4,MacIntel,250,,,,,,,,,,,,,,,,,,,,,,,,,,,down,0,2.907,,0.174444444,-0.076666667,1,0,0,0.967,0,109,109,70,1,ijdel,images/br_ijdel.png,images/cb_ijdel.png,0,,,,,,,,,,,,,,,,,,,,,,
,,,,,,,2023-10-14_08h26.28,vbt_B2_day2,2022.2.4,MacIntel,250,,,,,,,,,,,,,,,,,,,,,,,,,,,down,0,12.584,,0.176666667,-0.075555556,1,0,0,0.933,0,110,110,80,1,kanjer,images/br_kanjer.png,images/cb_kanjer.png,0,,,,,,,,,,,,,,,,,,,,,,
,,,,,,,2023-10-14_08h26.28,vbt_B2_day2,2022.2.4,MacIntel,250,,,,,,,,,,,,,,,,,,,,,,,,,,,down,0,7.177,,0.176666667,-0.075555556,1,0,0,2.2,0,111,111,177,1,maaltijd,images/br_maaltijd.png,images/cb_maaltijd.png,1,maaltijd,,,,,,,,,,,,,,,,,,,,,
,,,,,,,2023-10-14_08h26.28,vbt_B2_day2,2022.2.4,MacIntel,250,,,,,,,,,,,,,,,,,,,,,,,,,,,down,0,11.704,,0.183333333,-0.074444444,1,0,0,1.5,0,112,112,123,1,hiervan,images/br_hiervan.png,images/cb_hiervan.png,0,,,,,,,,,,,,,,,,,,,,,,
,,,,,,,2023-10-14_08h26.28,vbt_B2_day2,2022.2.4,MacIntel,250,,,,,,,,,,,,,,,,,,,,,,,,,,,down,0,7.717,,0.192222222,-0.071111111,1,0,0,0.516,0,113,113,165,1,feestdag,images/br_feestdag.png,images/cb_feestdag.png,0,,,,,,,,,,,,,,,,,,,,,,
,,,,,,,2023-10-14_08h26.28,vbt_B2_day2,2022.2.4,MacIntel,250,,,,,,,,,,,,,,,,,,,,,,,,,,,down,0,10.991,,0.201111111,-0.064444444,1,0,0,0.583,0,114,114,65,1,parel,images/br_parel.png,images/cb_parel.png,0,,,,,,,,,,,,,,,,,,,,,,
,,,,,,,2023-10-14_08h26.28,vbt_B2_day2,2022.2.4,MacIntel,250,,,,,,,,,,,,,,,,,,,,,,,,,,,down,0,6.592,,0.201111111,-0.064444444,1,0,0,0.617,0,115,115,140,1,blijven,images/br_blijven.png,images/cb_blijven.png,0,,,,,,,,,,,,,,,,,,,,,,
,,,,,,,2023-10-14_08h26.28,vbt_B2_day2,2022.2.4,MacIntel,250,,,,,,,,,,,,,,,,,,,,,,,,,,,down,0,6.383,,0.201111111,-0.066666667,1,0,0,1.132,0,116,116,27,1,dans,images/br_dans.png,images/cb_dans.png,0,,,,,,,,,,,,,,,,,,,,,,
,,,,,,,2023-10-14_08h26.28,vbt_B2_day2,2022.2.4,MacIntel,250,,,,,,,,,,,,,,,,,,,,,,,,,,,down,0,8.3,,0.202222222,-0.066666667,1,0,0,0.651,0,117,117,191,1,opheffen,images/br_opheffen.png,images/cb_opheffen.png,0,,,,,,,,,,,,,,,,,,,,,,
,,,,,,,2023-10-14_08h26.28,vbt_B2_day2,2022.2.4,MacIntel,250,,,,,,,,,,,,,,,,,,,,,,,,,,,down,0,5.016,,0.204444444,-0.068888889,1,0,0,0.516,0,118,118,89,1,slapen,images/br_slapen.png,images/cb_slapen.png,0,,,,,,,,,,,,,,,,,,,,,,
,,,,,,,2023-10-14_08h26.28,vbt_B2_day2,2022.2.4,MacIntel,250,,,,,,,,,,,,,,,,,,,,,,,,,,,down,0,0.593,,0.205555556,-0.07,1,0,0,1.199,0,119,119,50,1,stoom,images/br_stoom.png,images/cb_stoom.png,0,,,,,,,,,,,,,,,,,,,,,,
,,,,,,,2023-10-14_08h26.28,vbt_B2_day2,2022.2.4,MacIntel,250,,,,,,,,,,,,,,,,,,,,,,,,,,,down,0,5.174,,0.207777778,-0.071111111,1,0,0,0.866,0,120,120,125,1,aanzien,images/br_aanzien.png,images/cb_aanzien.png,0,,,,,,,,,,,,,,,,,,,,,,
,,,,,,,2023-10-14_08h26.28,vbt_B2_day2,2022.2.4,MacIntel,250,,,,,,,,,,,,,,,,,,,,,,,,,,,down,0,0.566,,0.21,-0.072222222,1,0,0,0.5,0,121,121,42,1,bleek,images/br_bleek.png,images/cb_bleek.png,0,,,,,,,,,,,,,,,,,,,,,,
,,,,,,,2023-10-14_08h26.28,vbt_B2_day2,2022.2.4,MacIntel,250,,,,,,,,,,,,,,,,,,,,,,,,,,,down,0,0.85,,0.211111111,-0.072222222,1,0,0,0.866,0,122,122,13,1,kaal,images/br_kaal.png,images/cb_kaal.png,0,,,,,,,,,,,,,,,,,,,,,,
,,,,,,,2023-10-14_08h26.28,vbt_B2_day2,2022.2.4,MacIntel,250,,,,,,,,,,,,,,,,,,,,,,,,,,,down,0,4.201,,0.211111111,-0.073333333,1,0,0,0.784,0,123,123,173,1,apparaat,images/br_apparaat.png,images/cb_apparaat.png,0,,,,,,,,,,,,,,,,,,,,,,
,,,,,,,2023-10-14_08h26.28,vbt_B2_day2,2022.2.4,MacIntel,250,,,,,,,,,,,,,,,,,,,,,,,,,,,down,0,3.783,,0.213333333,-0.074444444,1,0,0,0.833,0,124,124,166,1,strikken,images/br_strikken.png,images/cb_strikken.png,0,,,,,,,,,,,,,,,,,,,,,,
,,,,,,,2023-10-14_08h26.28,vbt_B2_day2,2022.2.4,MacIntel,250,,,,,,,,,,,,,,,,,,,,,,,,,,,down,0,5.711,,0.213333333,-0.074444444,1,0,0,0.734,0,125,125,101,1,staren,images/br_staren.png,images/cb_staren.png,0,,,,,,,,,,,,,,,,,,,,,,
,,,,,,,2023-10-14_08h26.28,vbt_B2_day2,2022.2.4,MacIntel,250,,,,,,,,,,,,,,,,,,,,,,,,,,,down,0,11.602,,0.215555556,-0.077777778,1,0,0,1.249,0,126,126,133,1,seizoen,images/br_seizoen.png,images/cb_seizoen.png,0,,,,,,,,,,,,,,,,,,,,,,
,,,,,,,2023-10-14_08h26.28,vbt_B2_day2,2022.2.4,MacIntel,250,,,,,,,,,,,,,,,,,,,,,,,,,,,down,0,0.877,,0.213333333,-0.076666667,1,0,0,1.165,0,127,127,10,1,leek,images/br_leek.png,images/cb_leek.png,0,,,,,,,,,,,,,,,,,,,,,,
,,,,,,,2023-10-14_08h26.28,vbt_B2_day2,2022.2.4,MacIntel,250,,,,,,,,,,,,,,,,,,,,,,,,,,,down,0,2.719,,0.216666667,-0.078888889,1,0,0,0.75,0,128,128,132,1,grappen,images/br_grappen.png,images/cb_grappen.png,0,,,,,,,,,,,,,,,,,,,,,,
,,,,,,,2023-10-14_08h26.28,vbt_B2_day2,2022.2.4,MacIntel,250,,,,,,,,,,,,,,,,,,,,,,,,,,,down,0,9.085,,0.216666667,-0.078888889,1,0,0,1.082,0,129,129,94,1,oceaan,images/br_oceaan.png,images/cb_oceaan.png,0,,,,,,,,,,,,,,,,,,,,,,
,,,,,,,2023-10-14_08h26.28,vbt_B2_day2,2022.2.4,MacIntel,250,,,,,,,,,,,,,,,,,,,,,,,,,,,down,0,3.194,,0.216666667,-0.078888889,1,0,0,0.516,0,130,130,12,1,kust,images/br_kust.png,images/cb_kust.png,0,,,,,,,,,,,,,,,,,,,,,,
,,,,,,,2023-10-14_08h26.28,vbt_B2_day2,2022.2.4,MacIntel,250,,,,,,,,,,,,,,,,,,,,,,,,,,,down,0,3.393,,0.217777778,-0.08,1,0,0,0.466,0,131,131,73,1,volop,images/br_volop.png,images/cb_volop.png,0,,,,,,,,,,,,,,,,,,,,,,
,,,,,,,2023-10-14_08h26.28,vbt_B2_day2,2022.2.4,MacIntel,250,,,,,,,,,,,,,,,,,,,,,,,,,,,down,0,6.65,,0.217777778,-0.08,1,0,0,0.85,0,132,132,142,1,snuiven,images/br_snuiven.png,images/cb_snuiven.png,0,,,,,,,,,,,,,,,,,,,,,,
,,,,,,,2023-10-14_08h26.28,vbt_B2_day2,2022.2.4,MacIntel,250,,,,,,,,,,,,,,,,,,,,,,,,,,,down,0,6.402,,0.217777778,-0.081111111,1,0,0,0.567,0,133,133,195,1,middelen,images/br_middelen.png,images/cb_middelen.png,0,,,,,,,,,,,,,,,,,,,,,,
,,,,,,,2023-10-14_08h26.28,vbt_B2_day2,2022.2.4,MacIntel,250,,,,,,,,,,,,,,,,,,,,,,,,,,,down,0,5.876,,0.217777778,-0.081111111,1,0,0,0.767,0,134,134,189,1,aanraden,images/br_aanraden.png,images/cb_aanraden.png,0,,,,,,,,,,,,,,,,,,,,,,
,,,,,,,2023-10-14_08h26.28,vbt_B2_day2,2022.2.4,MacIntel,250,,,,,,,,,,,,,,,,,,,,,,,,,,,down,0,7.949,,0.217777778,-0.081111111,1,0,0,0.601,0,135,135,54,1,gebit,images/br_gebit.png,images/cb_gebit.png,0,,,,,,,,,,,,,,,,,,,,,,
,,,,,,,2023-10-14_08h26.28,vbt_B2_day2,2022.2.4,MacIntel,250,,,,,,,,,,,,,,,,,,,,,,,,,,,down,0,12.449,,0.217777778,-0.081111111,1,0,0,0.7,0,136,136,108,1,excuus,images/br_excuus.png,images/cb_excuus.png,0,,,,,,,,,,,,,,,,,,,,,,
,,,,,,,2023-10-14_08h26.28,vbt_B2_day2,2022.2.4,MacIntel,250,,,,,,,,,,,,,,,,,,,,,,,,,,,down,0,5.945,,0.224444444,-0.08,1,0,0,0.449,0,137,137,44,1,flits,images/br_flits.png,images/cb_flits.png,0,,,,,,,,,,,,,,,,,,,,,,
,,,,,,,2023-10-14_08h26.28,vbt_B2_day2,2022.2.4,MacIntel,250,,,,,,,,,,,,,,,,,,,,,,,,,,,down,0,3.143,,0.224444444,-0.078888889,1,0,0,1.467,0,138,138,56,1,traag,images/br_traag.png,images/cb_traag.png,1,traag,,,,,,,,,,,,,,,,,,,,,
,,,,,,,2023-10-14_08h26.28,vbt_B2_day2,2022.2.4,MacIntel,250,,,,,,,,,,,,,,,,,,,,,,,,,,,down,0,6.719,,0.225555556,-0.077777778,1,0,0,0.75,0,139,139,74,1,graaf,images/br_graaf.png,images/cb_graaf.png,0,,,,,,,,,,,,,,,,,,,,,,
,,,,,,,2023-10-14_08h26.28,vbt_B2_day2,2022.2.4,MacIntel,250,,,,,,,,,,,,,,,,,,,,,,,,,,,down,0,13.092,,0.226666667,-0.077777778,1,0,0,0.666,0,140,140,118,1,vinger,images/br_vinger.png,images/cb_vinger.png,0,,,,,,,,,,,,,,,,,,,,,,
,,,,,,,2023-10-14_08h26.28,vbt_B2_day2,2022.2.4,MacIntel,250,,,,,,,,,,,,,,,,,,,,,,,,,,,down,0,11.083,,0.226666667,-0.077777778,1,0,0,0.533,0,141,141,127,1,doodmoe,images/br_doodmoe.png,images/cb_doodmoe.png,0,,,,,,,,,,,,,,,,,,,,,,
,,,,,,,2023-10-14_08h26.28,vbt_B2_day2,2022.2.4,MacIntel,250,,,,,,,,,,,,,,,,,,,,,,,,,,,down,0,3.7,,0.226666667,-0.077777778,1,0,0,0.566,0,142,142,79,1,nodig,images/br_nodig.png,images/cb_nodig.png,0,,,,,,,,,,,,,,,,,,,,,,
,,,,,,,2023-10-14_08h26.28,vbt_B2_day2,2022.2.4,MacIntel,250,,,,,,,,,,,,,,,,,,,,,,,,,,,down,0,2.349,,0.226666667,-0.08,1,0,0,0.734,0,143,143,62,1,knaap,images/br_knaap.png,images/cb_knaap.png,0,,,,,,,,,,,,,,,,,,,,,,
,,,,,,,2023-10-14_08h26.28,vbt_B2_day2,2022.2.4,MacIntel,250,,,,,,,,,,,,,,,,,,,,,,,,,,,down,0,4.542,,0.226666667,-0.08,1,0,0,0.615,0,144,144,14,1,rijp,images/br_rijp.png,images/cb_rijp.png,0,,,,,,,,,,,,,,,,,,,,,,
,,,,,,,2023-10-14_08h26.28,vbt_B2_day2,2022.2.4,MacIntel,250,,,,,,,,,,,,,,,,,,,,,,,,,,,down,0,2.626,,0.226666667,-0.08,1,0,0,0.983,0,145,145,192,1,schaamte,images/br_schaamte.png,images/cb_schaamte.png,0,,,,,,,,,,,,,,,,,,,,,,
,,,,,,,2023-10-14_08h26.28,vbt_B2_day2,2022.2.4,MacIntel,250,,,,,,,,,,,,,,,,,,,,,,,,,,,down,0,7.264,,0.226666667,-0.08,1,0,0,0.95,0,146,146,96,1,slagen,images/br_slagen.png,images/cb_slagen.png,1,slagen,,,,,,,,,,,,,,,,,,,,,
,,,,,,,2023-10-14_08h26.28,vbt_B2_day2,2022.2.4,MacIntel,250,,,,,,,,,,,,,,,,,,,,,,,,,,,down,0,7.432,,0.226666667,-0.07,1,0,0,0.5,0,147,147,135,1,gedicht,images/br_gedicht.png,images/cb_gedicht.png,0,,,,,,,,,,,,,,,,,,,,,,
,,,,,,,2023-10-14_08h26.28,vbt_B2_day2,2022.2.4,MacIntel,250,,,,,,,,,,,,,,,,,,,,,,,,,,,down,0,5.534,,0.226666667,-0.065555556,1,0,0,0.501,0,148,148,106,1,zingen,images/br_zingen.png,images/cb_zingen.png,0,,,,,,,,,,,,,,,,,,,,,,
,,,,,,,2023-10-14_08h26.28,vbt_B2_day2,2022.2.4,MacIntel,250,,,,,,,,,,,,,,,,,,,,,,,,,,,down,0,2.603,,0.226666667,-0.065555556,1,0,0,0.548,0,149,149,88,1,boeien,images/br_boeien.png,images/cb_boeien.png,0,,,,,,,,,,,,,,,,,,,,,,
,,,,,,,2023-10-14_08h26.28,vbt_B2_day2,2022.2.4,MacIntel,250,,,,,,,,,,,,,,,,,,,,,,,,,,,down,0,2.919,,0.226666667,-0.065555556,1,0,0,0.65,0,150,150,158,1,innemen,images/br_innemen.png,images/cb_innemen.png,0,,,,,,,,,,,,,,,,,,,,,,
,,,,,,,2023-10-14_08h26.28,vbt_B2_day2,2022.2.4,MacIntel,250,,,,,,,,,,,,,,,,,,,,,,,,,,,down,0,0.475,,0.227777778,-0.065555556,1,0,0,0.499,0,151,151,36,1,vuur,images/br_vuur.png,images/cb_vuur.png,0,,,,,,,,,,,,,,,,,,,,,,
,,,,,,,2023-10-14_08h26.28,vbt_B2_day2,2022.2.4,MacIntel,250,,,,,,,,,,,,,,,,,,,,,,,,,,,down,0,3.693,,0.227777778,-0.066666667,1,0,0,0.416,0,152,152,114,1,vullen,images/br_vullen.png,images/cb_vullen.png,0,,,,,,,,,,,,,,,,,,,,,,
,,,,,,,2023-10-14_08h26.28,vbt_B2_day2,2022.2.4,MacIntel,250,,,,,,,,,,,,,,,,,,,,,,,,,,,down,0,5.582,,0.227777778,-0.066666667,1,0,0,8.451,0,153,153,30,1,uien,images/br_uien.png,images/cb_uien.png,0,,,,,,,,,,,,,,,,,,,,,,
,,,,,,,2023-10-14_08h26.28,vbt_B2_day2,2022.2.4,MacIntel,250,,,,,,,,,,,,,,,,,,,,,,,,,,,down,0,7.601,,0.227777778,-0.066666667,1,0,0,0.516,0,154,154,169,1,oprotten,images/br_oprotten.png,images/cb_oprotten.png,0,,,,,,,,,,,,,,,,,,,,,,
,,,,,,,2023-10-14_08h26.28,vbt_B2_day2,2022.2.4,MacIntel,250,,,,,,,,,,,,,,,,,,,,,,,,,,,down,0,4.591,,0.227777778,-0.065555556,1,0,0,0.466,0,155,155,82,1,muziek,images/br_muziek.png,images/cb_muziek.png,0,,,,,,,,,,,,,,,,,,,,,,
,,,,,,,2023-10-14_08h26.28,vbt_B2_day2,2022.2.4,MacIntel,250,,,,,,,,,,,,,,,,,,,,,,,,,,,down,0,3.9,,0.23,-0.063333333,1,0,0,1.266,0,156,156,139,1,stiekem,images/br_stiekem.png,images/cb_stiekem.png,1,stiekem,,,,,,,,,,,,,,,,,,,,,
,,,,,,,2023-10-14_08h26.28,vbt_B2_day2,2022.2.4,MacIntel,250,,,,,,,,,,,,,,,,,,,,,,,,,,,down,0,11.009,,0.23,-0.063333333,1,0,0,1.115,0,157,157,51,1,samen,images/br_samen.png,images/cb_samen.png,0,,,,,,,,,,,,,,,,,,,,,,
,,,,,,,2023-10-14_08h26.28,vbt_B2_day2,2022.2.4,MacIntel,250,,,,,,,,,,,,,,,,,,,,,,,,,,,down,0,11.466,,0.23,-0.062222222,1,0,0,0.517,0,158,158,23,1,zout,images/br_zout.png,images/cb_zout.png,0,,,,,,,,,,,,,,,,,,,,,,
,,,,,,,2023-10-14_08h26.28,vbt_B2_day2,2022.2.4,MacIntel,250,,,,,,,,,,,,,,,,,,,,,,,,,,,down,0,6.383,,0.23,-0.062222222,1,0,0,0.5,0,159,159,116,1,besmet,images/br_besmet.png,images/cb_besmet.png,0,,,,,,,,,,,,,,,,,,,,,,
,,,,,,,2023-10-14_08h26.28,vbt_B2_day2,2022.2.4,MacIntel,250,,,,,,,,,,,,,,,,,,,,,,,,,,,down,0,8.009,,0.228888889,-0.061111111,1,0,0,0.633,0,160,160,111,1,ticket,images/br_ticket.png,images/cb_ticket.png,0,,,,,,,,,,,,,,,,,,,,,,
,,,,,,,2023-10-14_08h26.28,vbt_B2_day2,2022.2.4,MacIntel,250,,,,,,,,,,,,,,,,,,,,,,,,,,,down,0,4.434,,0.231111111,-0.062222222,1,0,0,0.65,0,161,161,81,1,dubbel,images/br_dubbel.png,images/cb_dubbel.png,0,,,,,,,,,,,,,,,,,,,,,,
,,,,,,,2023-10-14_08h26.28,vbt_B2_day2,2022.2.4,MacIntel,250,,,,,,,,,,,,,,,,,,,,,,,,,,,down,0,4.796,,0.23,-0.061111111,1,0,0,0.816,0,162,162,98,1,kreeft,images/br_kreeft.png,images/cb_kreeft.png,1,kreeft,,,,,,,,,,,,,,,,,,,,,
,,,,,,,2023-10-14_08h26.28,vbt_B2_day2,2022.2.4,MacIntel,250,,,,,,,,,,,,,,,,,,,,,,,,,,,down,0,1.862,,0.233333333,-0.062222222,1,0,0,0.701,0,163,163,35,1,lust,images/br_lust.png,images/cb_lust.png,0,,,,,,,,,,,,,,,,,,,,,,
,,,,,,,2023-10-14_08h26.28,vbt_B2_day2,2022.2.4,MacIntel,250,,,,,,,,,,,,,,,,,,,,,,,,,,,down,0,33.568,,0.39,0.291111111,1,0,1,0.934,0,164,164,128,1,prikken,images/br_prikken.png,images/cb_prikken.png,0,,,,,,,,,,,,,,,,,,,,,,
,,,,,,,2023-10-14_08h26.28,vbt_B2_day2,2022.2.4,MacIntel,250,,,,,,,,,,,,,,,,,,,,,,,,,,,down,0,7.234,,0.391111111,0.29,1,0,1,0.683,0,165,165,83,1,mening,images/br_mening.png,images/cb_mening.png,0,,,,,,,,,,,,,,,,,,,,,,
,,,,,,,2023-10-14_08h26.28,vbt_B2_day2,2022.2.4,MacIntel,250,,,,,,,,,,,,,,,,,,,,,,,,,,,down,0,3.267,,0.393333333,0.286666667,1,0,1,0.65,0,166,166,11,1,mode,images/br_mode.png,images/cb_mode.png,0,,,,,,,,,,,,,,,,,,,,,,
,,,,,,,2023-10-14_08h26.28,vbt_B2_day2,2022.2.4,MacIntel,250,,,,,,,,,,,,,,,,,,,,,,,,,,,down,0,0.641,,0.395555556,0.285555556,1,0,1,1.299,0,167,167,144,1,eetlust,images/br_eetlust.png,images/cb_eetlust.png,0,,,,,,,,,,,,,,,,,,,,,,
,,,,,,,2023-10-14_08h26.28,vbt_B2_day2,2022.2.4,MacIntel,250,,,,,,,,,,,,,,,,,,,,,,,,,,,down,0,6.992,,0.387777778,0.264444444,1,0,1,1.9,0,168,168,60,1,jasje,images/br_jasje.png,images/cb_jasje.png,0,,,,,,,,,,,,,,,,,,,,,,
,,,,,,,2023-10-14_08h26.28,vbt_B2_day2,2022.2.4,MacIntel,250,,,,,,,,,,,,,,,,,,,,,,,,,,,down,0,2.925,,0.388888889,0.266666667,1,0,1,0.567,0,169,169,163,1,schuilen,images/br_schuilen.png,images/cb_schuilen.png,0,,,,,,,,,,,,,,,,,,,,,,
,,,,,,,2023-10-14_08h26.28,vbt_B2_day2,2022.2.4,MacIntel,250,,,,,,,,,,,,,,,,,,,,,,,,,,,down,0,10.912,,0.391111111,0.264444444,1,0,1,0.55,0,170,170,9,1,hier,images/br_hier.png,images/cb_hier.png,0,,,,,,,,,,,,,,,,,,,,,,
,,,,,,,2023-10-14_08h26.28,vbt_B2_day2,2022.2.4,MacIntel,250,,,,,,,,,,,,,,,,,,,,,,,,,,,down,0,9.059,,0.39,0.265555556,1,0,1,0.633,0,171,171,178,1,huisdier,images/br_huisdier.png,images/cb_huisdier.png,1,huisdier,,,,,,,,,,,,,,,,,,,,,
,,,,,,,2023-10-14_08h26.28,vbt_B2_day2,2022.2.4,MacIntel,250,,,,,,,,,,,,,,,,,,,,,,,,,,,down,0,2.737,,0.39,0.265555556,1,0,1,0.949,0,172,172,18,1,blik,images/br_blik.png,images/cb_blik.png,1,blik,,,,,,,,,,,,,,,,,,,,,
,,,,,,,2023-10-14_08h26.28,vbt_B2_day2,2022.2.4,MacIntel,250,,,,,,,,,,,,,,,,,,,,,,,,,,,down,0,15.468,,0.394444444,0.265555556,1,0,1,1.051,0,173,173,105,1,wijlen,images/br_wijlen.png,images/cb_wijlen.png,0,,,,,,,,,,,,,,,,,,,,,,
,,,,,,,2023-10-14_08h26.28,vbt_B2_day2,2022.2.4,MacIntel,250,,,,,,,,,,,,,,,,,,,,,,,,,,,down,0,10.251,,0.396666667,0.265555556,1,0,1,0.649,0,174,174,84,1,lokken,images/br_lokken.png,images/cb_lokken.png,0,,,,,,,,,,,,,,,,,,,,,,
,,,,,,,2023-10-14_08h26.28,vbt_B2_day2,2022.2.4,MacIntel,250,,,,,,,,,,,,,,,,,,,,,,,,,,,down,0,5.374,,0.395555556,0.265555556,1,0,1,1.049,0,175,175,137,1,trekker,images/br_trekker.png,images/cb_trekker.png,1,trekker,,,,,,,,,,,,,,,,,,,,,
,,,,,,,2023-10-14_08h26.28,vbt_B2_day2,2022.2.4,MacIntel,250,,,,,,,,,,,,,,,,,,,,,,,,,,,down,0,9.577,,0.396666667,0.268888889,1,0,1,0.534,0,176,176,85,1,heilig,images/br_heilig.png,images/cb_heilig.png,0,,,,,,,,,,,,,,,,,,,,,,
,,,,,,,2023-10-14_08h26.28,vbt_B2_day2,2022.2.4,MacIntel,250,,,,,,,,,,,,,,,,,,,,,,,,,,,down,0,1.786,,0.395555556,0.267777778,1,0,1,0.5,0,177,177,28,1,stal,images/br_stal.png,images/cb_stal.png,0,,,,,,,,,,,,,,,,,,,,,,
,,,,,,,2023-10-14_08h26.28,vbt_B2_day2,2022.2.4,MacIntel,250,,,,,,,,,,,,,,,,,,,,,,,,,,,down,0,9.565,,0.395555556,0.267777778,1,0,1,0.833,0,178,178,138,1,akkoord,images/br_akkoord.png,images/cb_akkoord.png,1,akkoord,,,,,,,,,,,,,,,,,,,,,
,,,,,,,2023-10-14_08h26.28,vbt_B2_day2,2022.2.4,MacIntel,250,,,,,,,,,,,,,,,,,,,,,,,,,,,down,0,2.192,,0.395555556,0.266666667,1,0,1,0.682,0,179,179,72,1,strak,images/br_strak.png,images/cb_strak.png,0,,,,,,,,,,,,,,,,,,,,,,
,,,,,,,2023-10-14_08h26.28,vbt_B2_day2,2022.2.4,MacIntel,250,,,,,,,,,,,,,,,,,,,,,,,,,,,down,0,2.166,,0.395555556,0.266666667,1,0,1,0.532,0,180,180,141,1,knielen,images/br_knielen.png,images/cb_knielen.png,0,,,,,,,,,,,,,,,,,,,,,,
,,,,,,,2023-10-14_08h26.28,vbt_B2_day2,2022.2.4,MacIntel,250,,,,,,,,,,,,,,,,,,,,,,,,,,,down,0,18.162,,0.395555556,0.265555556,1,0,1,0.833,0,181,181,159,1,sufferd,images/br_sufferd.png,images/cb_sufferd.png,0,,,,,,,,,,,,,,,,,,,,,,
,,,,,,,2023-10-14_08h26.28,vbt_B2_day2,2022.2.4,MacIntel,250,,,,,,,,,,,,,,,,,,,,,,,,,,,down,0,6.6,,0.395555556,0.266666667,1,0,1,1.749,0,182,182,161,1,attentie,images/br_attentie.png,images/cb_attentie.png,0,,,,,,,,,,,,,,,,,,,,,,
,,,,,,,2023-10-14_08h26.28,vbt_B2_day2,2022.2.4,MacIntel,250,,,,,,,,,,,,,,,,,,,,,,,,,,,down,0,6.31,,0.395555556,0.265555556,1,0,1,0.583,0,183,183,152,1,afnemen,images/br_afnemen.png,images/cb_afnemen.png,0,,,,,,,,,,,,,,,,,,,,,,
,,,,,,,2023-10-14_08h26.28,vbt_B2_day2,2022.2.4,MacIntel,250,,,,,,,,,,,,,,,,,,,,,,,,,,,down,0,4.799,,0.395555556,0.265555556,1,0,1,0.499,0,184,184,156,1,rechten,images/br_rechten.png,images/cb_rechten.png,0,,,,,,,,,,,,,,,,,,,,,,
,,,,,,,2023-10-14_08h26.28,vbt_B2_day2,2022.2.4,MacIntel,250,,,,,,,,,,,,,,,,,,,,,,,,,,,down,0,1.56,,0.395555556,0.264444444,1,0,1,1.15,0,185,185,21,1,mist,images/br_mist.png,images/cb_mist.png,0,,,,,,,,,,,,,,,,,,,,,,
,,,,,,,2023-10-14_08h26.28,vbt_B2_day2,2022.2.4,MacIntel,250,,,,,,,,,,,,,,,,,,,,,,,,,,,down,0,7.2,,0.395555556,0.262222222,1,0,1,0.466,0,186,186,43,1,klauw,images/br_klauw.png,images/cb_klauw.png,0,,,,,,,,,,,,,,,,,,,,,,
,,,,,,,2023-10-14_08h26.28,vbt_B2_day2,2022.2.4,MacIntel,250,,,,,,,,,,,,,,,,,,,,,,,,,,,down,0,3.766,,0.395555556,0.262222222,1,0,1,0.616,0,187,187,186,1,voorraad,images/br_voorraad.png,images/cb_voorraad.png,0,,,,,,,,,,,,,,,,,,,,,,
,,,,,,,2023-10-14_08h26.28,vbt_B2_day2,2022.2.4,MacIntel,250,,,,,,,,,,,,,,,,,,,,,,,,,,,down,0,2.925,,0.396666667,0.262222222,1,0,1,0.45,0,188,188,102,1,legaal,images/br_legaal.png,images/cb_legaal.png,0,,,,,,,,,,,,,,,,,,,,,,
,,,,,,,2023-10-14_08h26.28,vbt_B2_day2,2022.2.4,MacIntel,250,,,,,,,,,,,,,,,,,,,,,,,,,,,down,0,16.637,,0.395555556,0.26,1,0,1,0.5,0,189,189,129,1,verhaal,images/br_verhaal.png,images/cb_verhaal.png,0,,,,,,,,,,,,,,,,,,,,,,
,,,,,,,2023-10-14_08h26.28,vbt_B2_day2,2022.2.4,MacIntel,250,,,,,,,,,,,,,,,,,,,,,,,,,,,down,0,3.81,,0.395555556,0.258888889,1,0,1,0.466,0,190,190,4,1,moes,images/br_moes.png,images/cb_moes.png,0,,,,,,,,,,,,,,,,,,,,,,
,,,,,,,2023-10-14_08h26.28,vbt_B2_day2,2022.2.4,MacIntel,250,,,,,,,,,,,,,,,,,,,,,,,,,,,down,0,2.31,,0.396666667,0.257777778,1,0,1,1.233,0,191,191,120,1,klimmen,images/br_klimmen.png,images/cb_klimmen.png,0,,,,,,,,,,,,,,,,,,,,,,
,,,,,,,2023-10-14_08h26.28,vbt_B2_day2,2022.2.4,MacIntel,250,,,,,,,,,,,,,,,,,,,,,,,,,,,down,0,8.7,,0.396666667,0.257777778,1,0,1,0.567,0,192,192,46,1,jagen,images/br_jagen.png,images/cb_jagen.png,0,,,,,,,,,,,,,,,,,,,,,,
,,,,,,,2023-10-14_08h26.28,vbt_B2_day2,2022.2.4,MacIntel,250,,,,,,,,,,,,,,,,,,,,,,,,,,,down,0,5.6,,0.396666667,0.256666667,1,0,1,0.601,0,193,193,15,1,soda,images/br_soda.png,images/cb_soda.png,0,,,,,,,,,,,,,,,,,,,,,,
,,,,,,,2023-10-14_08h26.28,vbt_B2_day2,2022.2.4,MacIntel,250,,,,,,,,,,,,,,,,,,,,,,,,,,,down,0,0.293,,0.396666667,0.256666667,1,0,1,0.584,0,194,194,7,1,geld,images/br_geld.png,images/cb_geld.png,0,,,,,,,,,,,,,,,,,,,,,,
,,,,,,,2023-10-14_08h26.28,vbt_B2_day2,2022.2.4,MacIntel,250,,,,,,,,,,,,,,,,,,,,,,,,,,,down,0,1.948,,0.396666667,0.256666667,1,0,1,0.65,0,195,195,19,1,geit,images/br_geit.png,images/cb_geit.png,1,geit,,,,,,,,,,,,,,,,,,,,,
,,,,,,,2023-10-14_08h26.28,vbt_B2_day2,2022.2.4,MacIntel,250,,,,,,,,,,,,,,,,,,,,,,,,,,,down,0,8.844,,0.401111111,0.264444444,1,0,1,0.434,0,196,196,76,1,afval,images/br_afval.png,images/cb_afval.png,0,,,,,,,,,,,,,,,,,,,,,,
,,,,,,,2023-10-14_08h26.28,vbt_B2_day2,2022.2.4,MacIntel,250,,,,,,,,,,,,,,,,,,,,,,,,,,,down,0,4.907,,0.401111111,0.267777778,1,0,1,0.551,0,197,197,180,1,openbaar,images/br_openbaar.png,images/cb_openbaar.png,0,,,,,,,,,,,,,,,,,,,,,,
,,,,,,,2023-10-14_08h26.28,vbt_B2_day2,2022.2.4,MacIntel,250,,,,,,,,,,,,,,,,,,,,,,,,,,,down,0,6.978,,0.402222222,0.266666667,1,0,1,0.416,0,198,198,126,1,kasteel,images/br_kasteel.png,images/cb_kasteel.png,0,,,,,,,,,,,,,,,,,,,,,,
,,,,,,,2023-10-14_08h26.28,vbt_B2_day2,2022.2.4,MacIntel,250,,,,,,,,,,,,,,,,,,,,,,,,,,,down,0,2.408,,0.403333333,0.266666667,1,0,1,0.617,0,199,199,168,1,bisschop,images/br_bisschop.png,images/cb_bisschop.png,0,,,,,,,,,,,,,,,,,,,,,,
,,,,,,,2023-10-14_08h26.28,vbt_B2_day2,2022.2.4,MacIntel,250,,,,,,,,,,,,,,,,,,,,,,,,,,,,,,,,,,,,,,,,,,,,,,,0.403333333,0.266666667,0,0,1,,,,,,,,,,,,,,,,
,,,,,,,2023-10-14_08h26.28,vbt_B2_day2,2022.2.4,MacIntel,250,,,,,,,,,,,,,,,,,,,,,,,,,,,,,,,,,,,,,,,,,,,,,,,,,,,,0.622222222,0.388888889,1,0,1,,,,,,,,,,,
,,,,,,,2023-10-14_08h26.28,vbt_B2_day2,2022.2.4,MacIntel,250,,,,,,,,,,,,,,,,,,,,,,,,,,,,,,,,,,,,,,,,,,ningen,images/br_ningen.png,images/cb_ningen.png,,noe....,,,,,,,,,,,0.622222222,0.388888889,1,0,1,noe....,0,0,0,28,1
,,,,,,,2023-10-14_08h26.28,vbt_B2_day2,2022.2.4,MacIntel,250,,,,,,,,,,,,,,,,,,,,,,,,,,,,,,,,,,,,,,,,,,tweeling,images/br_tweeling.png,images/cb_tweeling.png,,speel....,,,,,,,,,,,-0.031111111,-0.203333333,1,0,1,speel....,0,1,1,58,1
,,,,,,,2023-10-14_08h26.28,vbt_B2_day2,2022.2.4,MacIntel,250,,,,,,,,,,,,,,,,,,,,,,,,,,,,,,,,,,,,,,,,,,tand,images/br_tand.png,images/cb_tand.png,,tand,,,,,,,,,,,-0.031111111,-0.204444444,1,0,1,tand,0,2,2,42,1
,,,,,,,2023-10-14_08h26.28,vbt_B2_day2,2022.2.4,MacIntel,250,,,,,,,,,,,,,,,,,,,,,,,,,,,,,,,,,,,,,,,,,,dode,images/br_dode.png,images/cb_dode.png,,dode,,,,,,,,,,,-0.031111111,-0.204444444,1,0,1,dode,0,3,3,41,1
,,,,,,,2023-10-14_08h26.28,vbt_B2_day2,2022.2.4,MacIntel,250,,,,,,,,,,,,,,,,,,,,,,,,,,,,,,,,,,,,,,,,,,negel,images/br_negel.png,images/cb_negel.png,,neg...,,,,,,,,,,,-0.031111111,-0.204444444,1,0,1,neg...,0,4,4,24,1
,,,,,,,2023-10-14_08h26.28,vbt_B2_day2,2022.2.4,MacIntel,250,,,,,,,,,,,,,,,,,,,,,,,,,,,,,,,,,,,,,,,,,,stes,images/br_stes.png,images/cb_stes.png,,stas,,,,,,,,,,,-0.031111111,-0.204444444,1,0,1,stas,0,5,5,21,1
,,,,,,,2023-10-14_08h26.28,vbt_B2_day2,2022.2.4,MacIntel,250,,,,,,,,,,,,,,,,,,,,,,,,,,,,,,,,,,,,,,,,,,lokken,images/br_lokken.png,images/cb_lokken.png,,lokken,,,,,,,,,,,-0.035555556,-0.198888889,1,0,1,lokken,0,6,6,8,1
,,,,,,,2023-10-14_08h26.28,vbt_B2_day2,2022.2.4,MacIntel,250,,,,,,,,,,,,,,,,,,,,,,,,,,,,,,,,,,,,,,,,,,woning,images/br_woning.png,images/cb_woning.png,,boning,,,,,,,,,,,-0.055555556,-0.278888889,1,0,1,boning,0,7,7,10,1
,,,,,,,2023-10-14_08h26.28,vbt_B2_day2,2022.2.4,MacIntel,250,,,,,,,,,,,,,,,,,,,,,,,,,,,,,,,,,,,,,,,,,,manieren,images/br_manieren.png,images/cb_manieren.png,,manie...,,,,,,,,,,,-0.055555556,-0.278888889,1,0,1,manie...,0,8,8,56,1
,,,,,,,2023-10-14_08h26.28,vbt_B2_day2,2022.2.4,MacIntel,250,,,,,,,,,,,,,,,,,,,,,,,,,,,,,,,,,,,,,,,,,,kijlen,images/br_kijlen.png,images/cb_kijlen.png,,keilen,,,,,,,,,,,-0.055555556,-0.278888889,1,0,1,keilen,0,9,9,31,1
,,,,,,,2023-10-14_08h26.28,vbt_B2_day2,2022.2.4,MacIntel,250,,,,,,,,,,,,,,,,,,,,,,,,,,,,,,,,,,,,,,,,,,wijve,images/br_wijve.png,images/cb_wijve.png,,wijve,,,,,,,,,,,0.015555556,-0.255555556,1,0,1,wijve,0,10,10,27,1
,,,,,,,2023-10-14_08h26.28,vbt_B2_day2,2022.2.4,MacIntel,250,,,,,,,,,,,,,,,,,,,,,,,,,,,,,,,,,,,,,,,,,,remel,images/br_remel.png,images/cb_remel.png,,remel,,,,,,,,,,,0.015555556,-0.252222222,1,0,1,remel,0,11,11,25,1
,,,,,,,2023-10-14_08h26.28,vbt_B2_day2,2022.2.4,MacIntel,250,,,,,,,,,,,,,,,,,,,,,,,,,,,,,,,,,,,,,,,,,,zegel,images/br_zegel.png,images/cb_zegel.png,,zegel,,,,,,,,,,,0.015555556,-0.252222222,1,0,1,zegel,0,12,12,46,1
,,,,,,,2023-10-14_08h26.28,vbt_B2_day2,2022.2.4,MacIntel,250,,,,,,,,,,,,,,,,,,,,,,,,,,,,,,,,,,,,,,,,,,blad,images/br_blad.png,images/cb_blad.png,,blad,,,,,,,,,,,0.013333333,-0.252222222,1,0,1,blad,0,13,13,1,1
,,,,,,,2023-10-14_08h26.28,vbt_B2_day2,2022.2.4,MacIntel,250,,,,,,,,,,,,,,,,,,,,,,,,,,,,,,,,,,,,,,,,,,lurgen,images/br_lurgen.png,images/cb_lurgen.png,,murgen,,,,,,,,,,,0.013333333,-0.252222222,1,0,1,murgen,0,14,14,29,1
,,,,,,,2023-10-14_08h26.28,vbt_B2_day2,2022.2.4,MacIntel,250,,,,,,,,,,,,,,,,,,,,,,,,,,,,,,,,,,,,,,,,,,welzijn,images/br_welzijn.png,images/cb_welzijn.png,,welzijn,,,,,,,,,,,0.013333333,-0.252222222,1,0,1,welzijn,0,15,15,52,1
,,,,,,,2023-10-14_08h26.28,vbt_B2_day2,2022.2.4,MacIntel,250,,,,,,,,,,,,,,,,,,,,,,,,,,,,,,,,,,,,,,,,,,goon,images/br_goon.png,images/cb_goon.png,,goon,,,,,,,,,,,0.013333333,-0.252222222,1,0,1,goon,0,16,16,23,1
,,,,,,,2023-10-14_08h26.28,vbt_B2_day2,2022.2.4,MacIntel,250,,,,,,,,,,,,,,,,,,,,,,,,,,,,,,,,,,,,,,,,,,krimmen,images/br_krimmen.png,images/cb_krimmen.png,,brimmen,,,,,,,,,,,0.024444444,-0.24,1,0,1,brimmen,0,17,17,35,1
,,,,,,,2023-10-14_08h26.28,vbt_B2_day2,2022.2.4,MacIntel,250,,,,,,,,,,,,,,,,,,,,,,,,,,,,,,,,,,,,,,,,,,kasteel,images/br_kasteel.png,images/cb_kasteel.png,,kasteel,,,,,,,,,,,0.024444444,-0.24,1,0,1,kasteel,0,18,18,14,1
,,,,,,,2023-10-14_08h26.28,vbt_B2_day2,2022.2.4,MacIntel,250,,,,,,,,,,,,,,,,,,,,,,,,,,,,,,,,,,,,,,,,,,systeem,images/br_systeem.png,images/cb_systeem.png,,systeem,,,,,,,,,,,0.024444444,-0.24,1,0,1,systeem,0,19,19,54,1
,,,,,,,2023-10-14_08h26.28,vbt_B2_day2,2022.2.4,MacIntel,250,,,,,,,,,,,,,,,,,,,,,,,,,,,,,,,,,,,,,,,,,,prekken,images/br_prekken.png,images/cb_prekken.png,,prikken,,,,,,,,,,,0.024444444,-0.24,1,0,1,prikken,0,20,20,34,1
,,,,,,,2023-10-14_08h26.28,vbt_B2_day2,2022.2.4,MacIntel,250,,,,,,,,,,,,,,,,,,,,,,,,,,,,,,,,,,,,,,,,,,jong,images/br_jong.png,images/cb_jong.png,,jong,,,,,,,,,,,0.024444444,-0.24,1,0,1,jong,0,21,21,43,1
,,,,,,,2023-10-14_08h26.28,vbt_B2_day2,2022.2.4,MacIntel,250,,,,,,,,,,,,,,,,,,,,,,,,,,,,,,,,,,,,,,,,,,plannen,images/br_plannen.png,images/cb_plannen.png,,plannen,,,,,,,,,,,0.024444444,-0.24,1,0,1,plannen,0,22,22,55,1
,,,,,,,2023-10-14_08h26.28,vbt_B2_day2,2022.2.4,MacIntel,250,,,,,,,,,,,,,,,,,,,,,,,,,,,,,,,,,,,,,,,,,,agressie,images/br_agressie.png,images/cb_agressie.png,,agressie,,,,,,,,,,,0.024444444,-0.24,1,0,1,agressie,0,23,23,59,1
,,,,,,,2023-10-14_08h26.28,vbt_B2_day2,2022.2.4,MacIntel,250,,,,,,,,,,,,,,,,,,,,,,,,,,,,,,,,,,,,,,,,,,sifferd,images/br_sifferd.png,images/cb_sifferd.png,,sifferd,,,,,,,,,,,0.017777778,-0.258888889,1,0,1,sifferd,0,24,24,32,1
,,,,,,,2023-10-14_08h26.28,vbt_B2_day2,2022.2.4,MacIntel,250,,,,,,,,,,,,,,,,,,,,,,,,,,,,,,,,,,,,,,,,,,sora,images/br_sora.png,images/cb_sora.png,,sora,,,,,,,,,,,0.017777778,-0.258888889,1,0,1,sora,0,25,25,22,1
,,,,,,,2023-10-14_08h26.28,vbt_B2_day2,2022.2.4,MacIntel,250,,,,,,,,,,,,,,,,,,,,,,,,,,,,,,,,,,,,,,,,,,feestdag,images/br_feestdag.png,images/cb_feestdag.png,,deestdag,,,,,,,,,,,0.017777778,-0.258888889,1,0,1,deestdag,0,26,26,17,1
,,,,,,,2023-10-14_08h26.28,vbt_B2_day2,2022.2.4,MacIntel,250,,,,,,,,,,,,,,,,,,,,,,,,,,,,,,,,,,,,,,,,,,geld,images/br_geld.png,images/cb_geld.png,,geld,,,,,,,,,,,0.017777778,-0.258888889,1,0,1,geld,0,27,27,3,1
,,,,,,,2023-10-14_08h26.28,vbt_B2_day2,2022.2.4,MacIntel,250,,,,,,,,,,,,,,,,,,,,,,,,,,,,,,,,,,,,,,,,,,toeval,images/br_toeval.png,images/cb_toeval.png,,toeval,,,,,,,,,,,-0.001111111,-0.225555556,1,0,1,toeval,0,28,28,11,1
,,,,,,,2023-10-14_08h26.28,vbt_B2_day2,2022.2.4,MacIntel,250,,,,,,,,,,,,,,,,,,,,,,,,,,,,,,,,,,,,,,,,,,zwager,images/br_zwager.png,images/cb_zwager.png,,zbagla,,,,,,,,,,,0.01,-0.228888889,1,0,1,zbagla,0,29,29,49,1
,,,,,,,2023-10-14_08h26.28,vbt_B2_day2,2022.2.4,MacIntel,250,,,,,,,,,,,,,,,,,,,,,,,,,,,,,,,,,,,,,,,,,,opdatten,images/br_opdatten.png,images/cb_opdatten.png,,of......,,,,,,,,,,,0.01,-0.228888889,1,0,1,of......,0,30,30,37,1
,,,,,,,2023-10-14_08h26.28,vbt_B2_day2,2022.2.4,MacIntel,250,,,,,,,,,,,,,,,,,,,,,,,,,,,,,,,,,,,,,,,,,,trots,images/br_trots.png,images/cb_trots.png,,toets,,,,,,,,,,,0.008888889,-0.228888889,1,0,1,toets,0,31,31,44,1
,,,,,,,2023-10-14_08h26.28,vbt_B2_day2,2022.2.4,MacIntel,250,,,,,,,,,,,,,,,,,,,,,,,,,,,,,,,,,,,,,,,,,,doodmoe,images/br_doodmoe.png,images/cb_doodmoe.png,,doodmoe,,,,,,,,,,,0.008888889,-0.228888889,1,0,1,doodmoe,0,32,32,15,1
,,,,,,,2023-10-14_08h26.28,vbt_B2_day2,2022.2.4,MacIntel,250,,,,,,,,,,,,,,,,,,,,,,,,,,,,,,,,,,,,,,,,,,eenhoorn,images/br_eenhoorn.png,images/cb_eenhoorn.png,,eenhoorn,,,,,,,,,,,0.008888889,-0.228888889,1,0,1,eenhoorn,0,33,33,19,1
,,,,,,,2023-10-14_08h26.28,vbt_B2_day2,2022.2.4,MacIntel,250,,,,,,,,,,,,,,,,,,,,,,,,,,,,,,,,,,,,,,,,,,clan,images/br_clan.png,images/cb_clan.png,,clan,,,,,,,,,,,0.008888889,-0.228888889,1,0,1,clan,0,34,34,40,1
,,,,,,,2023-10-14_08h26.28,vbt_B2_day2,2022.2.4,MacIntel,250,,,,,,,,,,,,,,,,,,,,,,,,,,,,,,,,,,,,,,,,,,moes,images/br_moes.png,images/cb_moes.png,,moes,,,,,,,,,,,0.008888889,-0.228888889,1,0,1,moes,0,35,35,0,1
,,,,,,,2023-10-14_08h26.28,vbt_B2_day2,2022.2.4,MacIntel,250,,,,,,,,,,,,,,,,,,,,,,,,,,,,,,,,,,,,,,,,,,strikken,images/br_strikken.png,images/cb_strikken.png,,strikken,,,,,,,,,,,0.008888889,-0.228888889,1,0,1,strikken,0,36,36,18,1
,,,,,,,2023-10-14_08h26.28,vbt_B2_day2,2022.2.4,MacIntel,250,,,,,,,,,,,,,,,,,,,,,,,,,,,,,,,,,,,,,,,,,,diep,images/br_diep.png,images/cb_diep.png,,dief,,,,,,,,,,,0.008888889,-0.228888889,1,0,1,dief,0,37,37,2,1
,,,,,,,2023-10-14_08h26.28,vbt_B2_day2,2022.2.4,MacIntel,250,,,,,,,,,,,,,,,,,,,,,,,,,,,,,,,,,,,,,,,,,,bereuwen,images/br_bereuwen.png,images/cb_bereuwen.png,,beriu...,,,,,,,,,,,0.012222222,-0.225555556,1,0,1,beriu...,0,38,38,39,1
,,,,,,,2023-10-14_08h26.28,vbt_B2_day2,2022.2.4,MacIntel,250,,,,,,,,,,,,,,,,,,,,,,,,,,,,,,,,,,,,,,,,,,heilig,images/br_heilig.png,images/cb_heilig.png,,heilig,,,,,,,,,,,-0.018888889,-0.291111111,1,0,1,heilig,0,39,39,9,1
,,,,,,,2023-10-14_08h26.28,vbt_B2_day2,2022.2.4,MacIntel,250,,,,,,,,,,,,,,,,,,,,,,,,,,,,,,,,,,,,,,,,,,heengeen,images/br_heengeen.png,images/cb_heengeen.png,,deengeen,,,,,,,,,,,0.004444444,-0.285555556,1,0,1,deengeen,0,40,40,38,1
,,,,,,,2023-10-14_08h26.28,vbt_B2_day2,2022.2.4,MacIntel,250,,,,,,,,,,,,,,,,,,,,,,,,,,,,,,,,,,,,,,,,,,ophuimen,images/br_ophuimen.png,images/cb_ophuimen.png,,opdui...,,,,,,,,,,,0.004444444,-0.284444444,1,0,1,opdui...,0,41,41,36,1
,,,,,,,2023-10-14_08h26.28,vbt_B2_day2,2022.2.4,MacIntel,250,,,,,,,,,,,,,,,,,,,,,,,,,,,,,,,,,,,,,,,,,,joes,images/br_joes.png,images/cb_joes.png,,does,,,,,,,,,,,0.012222222,-0.274444444,1,0,1,does,0,42,42,20,1
,,,,,,,2023-10-14_08h26.28,vbt_B2_day2,2022.2.4,MacIntel,250,,,,,,,,,,,,,,,,,,,,,,,,,,,,,,,,,,,,,,,,,,sjijfel,images/br_sjijfel.png,images/cb_sjijfel.png,,sdid...,,,,,,,,,,,0.006666667,-0.272222222,1,0,1,sdid...,0,43,43,33,1
,,,,,,,2023-10-14_08h26.28,vbt_B2_day2,2022.2.4,MacIntel,250,,,,,,,,,,,,,,,,,,,,,,,,,,,,,,,,,,,,,,,,,,zomers,images/br_zomers.png,images/cb_zomers.png,,zomers,,,,,,,,,,,0.006666667,-0.272222222,1,0,1,zomers,0,44,44,48,1
,,,,,,,2023-10-14_08h26.28,vbt_B2_day2,2022.2.4,MacIntel,250,,,,,,,,,,,,,,,,,,,,,,,,,,,,,,,,,,,,,,,,,,anarchie,images/br_anarchie.png,images/cb_anarchie.png,,anarchie,,,,,,,,,,,0.006666667,-0.272222222,1,0,1,anarchie,0,45,45,16,1
,,,,,,,2023-10-14_08h26.28,vbt_B2_day2,2022.2.4,MacIntel,250,,,,,,,,,,,,,,,,,,,,,,,,,,,,,,,,,,,,,,,,,,kenzis,images/br_kenzis.png,images/cb_kenzis.png,,benzig,,,,,,,,,,,0.007777778,-0.285555556,1,0,1,benzig,0,46,46,30,1
,,,,,,,2023-10-14_08h26.28,vbt_B2_day2,2022.2.4,MacIntel,250,,,,,,,,,,,,,,,,,,,,,,,,,,,,,,,,,,,,,,,,,,flits,images/br_flits.png,images/cb_flits.png,,flits,,,,,,,,,,,0.007777778,-0.285555556,1,0,1,flits,0,47,47,4,1
,,,,,,,2023-10-14_08h26.28,vbt_B2_day2,2022.2.4,MacIntel,250,,,,,,,,,,,,,,,,,,,,,,,,,,,,,,,,,,,,,,,,,,piste,images/br_piste.png,images/cb_piste.png,,piste,,,,,,,,,,,0.007777778,-0.285555556,1,0,1,piste,0,48,48,5,1
,,,,,,,2023-10-14_08h26.28,vbt_B2_day2,2022.2.4,MacIntel,250,,,,,,,,,,,,,,,,,,,,,,,,,,,,,,,,,,,,,,,,,,inzicht,images/br_inzicht.png,images/cb_inzicht.png,,inzicht,,,,,,,,,,,0.007777778,-0.285555556,1,0,1,inzicht,0,49,49,53,1
,,,,,,,2023-10-14_08h26.28,vbt_B2_day2,2022.2.4,MacIntel,250,,,,,,,,,,,,,,,,,,,,,,,,,,,,,,,,,,,,,,,,,,kabel,images/br_kabel.png,images/cb_kabel.png,,kabel,,,,,,,,,,,-0.006666667,-0.228888889,1,0,1,kabel,0,50,50,7,1
,,,,,,,2023-10-14_08h26.28,vbt_B2_day2,2022.2.4,MacIntel,250,,,,,,,,,,,,,,,,,,,,,,,,,,,,,,,,,,,,,,,,,,lijnen,images/br_lijnen.png,images/cb_lijnen.png,,leidig,,,,,,,,,,,-0.006666667,-0.228888889,1,0,1,leidig,0,51,51,51,1
,,,,,,,2023-10-14_08h26.28,vbt_B2_day2,2022.2.4,MacIntel,250,,,,,,,,,,,,,,,,,,,,,,,,,,,,,,,,,,,,,,,,,,aanvraag,images/br_aanvraag.png,images/cb_aanvraag.png,,aanvraag,,,,,,,,,,,-0.006666667,-0.228888889,1,0,1,aanvraag,0,52,52,57,1
,,,,,,,2023-10-14_08h26.28,vbt_B2_day2,2022.2.4,MacIntel,250,,,,,,,,,,,,,,,,,,,,,,,,,,,,,,,,,,,,,,,,,,bloeien,images/br_bloeien.png,images/cb_bloeien.png,,bloeien,,,,,,,,,,,-0.006666667,-0.23,1,0,1,bloeien,0,53,53,12,1
,,,,,,,2023-10-14_08h26.28,vbt_B2_day2,2022.2.4,MacIntel,250,,,,,,,,,,,,,,,,,,,,,,,,,,,,,,,,,,,,,,,,,,breuk,images/br_breuk.png,images/cb_breuk.png,,breuk,,,,,,,,,,,-0.011111111,-0.23,1,0,1,breuk,0,54,54,45,1
,,,,,,,2023-10-14_08h26.28,vbt_B2_day2,2022.2.4,MacIntel,250,,,,,,,,,,,,,,,,,,,,,,,,,,,,,,,,,,,,,,,,,,jagen,images/br_jagen.png,images/cb_jagen.png,,dagen,,,,,,,,,,,-0.011111111,-0.23,1,0,1,dagen,0,55,55,6,1
,,,,,,,2023-10-14_08h26.28,vbt_B2_day2,2022.2.4,MacIntel,250,,,,,,,,,,,,,,,,,,,,,,,,,,,,,,,,,,,,,,,,,,koorts,images/br_koorts.png,images/cb_koorts.png,,koorts,,,,,,,,,,,-0.011111111,-0.23,1,0,1,koorts,0,56,56,50,1
,,,,,,,2023-10-14_08h26.28,vbt_B2_day2,2022.2.4,MacIntel,250,,,,,,,,,,,,,,,,,,,,,,,,,,,,,,,,,,,,,,,,,,aanzien,images/br_aanzien.png,images/cb_aanzien.png,,aanzien,,,,,,,,,,,-0.011111111,-0.23,1,0,1,aanzien,0,57,57,13,1
,,,,,,,2023-10-14_08h26.28,vbt_B2_day2,2022.2.4,MacIntel,250,,,,,,,,,,,,,,,,,,,,,,,,,,,,,,,,,,,,,,,,,,badon,images/br_badon.png,images/cb_badon.png,,baron,,,,,,,,,,,-0.011111111,-0.23,1,0,1,baron,0,58,58,26,1
,,,,,,,2023-10-14_08h26.28,vbt_B2_day2,2022.2.4,MacIntel,250,,,,,,,,,,,,,,,,,,,,,,,,,,,,,,,,,,,,,,,,,,thema,images/br_thema.png,images/cb_thema.png,,them.,,,,,,,,,,,-0.011111111,-0.23,1,0,1,them.,0,59,59,47,1
,,,,,,,2023-10-14_08h26.28,vbt_B2_day2,2022.2.4,MacIntel,250,,,,,,,,,,,,,,,,,,,,,,,,,,,,,,,,,,,,,,,,,,,,,,,,,,,,,,,,,,,,,,,,,,,
