welcome_mouse.x,welcome_mouse.y,welcome_mouse.leftButton,welcome_mouse.midButton,welcome_mouse.rightButton,welcome_mouse.time,"ID",date,expName,psychopyVersion,OS,frameRate,refresh_mouse.x,refresh_mouse.y,refresh_mouse.leftButton,refresh_mouse.midButton,refresh_mouse.rightButton,refresh_mouse.time,braille_mouse.x,braille_mouse.y,braille_mouse.leftButton,braille_mouse.midButton,braille_mouse.rightButton,braille_mouse.time,trials.thisRepN,trials.thisTrialN,trials.thisN,trials.thisIndex,trials.ran,nlLet,brLet,cbLet,trainInstr_mouse.x,trainInstr_mouse.y,trainInstr_mouse.leftButton,trainInstr_mouse.midButton,trainInstr_mouse.rightButton,trainInstr_mouse.time,translation_key.keys,translation_key.corr,translation_key.rt,word_rsp.text,word_mouse.x,word_mouse.y,word_mouse.leftButton,word_mouse.midButton,word_mouse.rightButton,word_mouse.time,train_loop.thisRepN,train_loop.thisTrialN,train_loop.thisN,train_loop.thisIndex,train_loop.ran,nlWrd,brWrd,cbWrd,test,testResp,mouse.x,mouse.y,mouse.leftButton,mouse.midButton,mouse.rightButton,testInstr_mouse.x,testInstr_mouse.y,testInstr_mouse.leftButton,testInstr_mouse.midButton,testInstr_mouse.rightButton,test_mouse.x,test_mouse.y,test_mouse.leftButton,test_mouse.midButton,test_mouse.rightButton,test_response.text,test_loop.thisRepN,test_loop.thisTrialN,test_loop.thisN,test_loop.thisIndex,test_loop.ran
0.216145833,-0.22265625,1,0,0,5.7391,00054,2023-10-10_17h25.52.567,vbt_B2_day2,2022.2.4,Win32,59.88741167,,,,,,,,,,,,,,,,,,,,,,,,,,,,,,,,,,,,,,,,,,,,,,,,,,,,,,,,,,,,,,,,,,,
,,,,,,00054,2023-10-10_17h25.52.567,vbt_B2_day2,2022.2.4,Win32,59.88741167,0.287760417,-0.12109375,1,0,0,4.0789,,,,,,,,,,,,,,,,,,,,,,,,,,,,,,,,,,,,,,,,,,,,,,,,,,,,,,,,,,,,,
,,,,,,00054,2023-10-10_17h25.52.567,vbt_B2_day2,2022.2.4,Win32,59.88741167,,,,,,,0.282552083,-0.123697917,1,0,0,1.2578,0,0,0,11,1,l,images/br_l.png,images/cb_l.png,,,,,,,,,,,,,,,,,,,,,,,,,,,,,,,,,,,,,,,,,,,,,,,
,,,,,,00054,2023-10-10_17h25.52.567,vbt_B2_day2,2022.2.4,Win32,59.88741167,,,,,,,0.28125,-0.122395833,1,0,0,0.7984,0,1,1,15,1,p,images/br_p.png,images/cb_p.png,,,,,,,,,,,,,,,,,,,,,,,,,,,,,,,,,,,,,,,,,,,,,,,
,,,,,,00054,2023-10-10_17h25.52.567,vbt_B2_day2,2022.2.4,Win32,59.88741167,,,,,,,0.28125,-0.122395833,1,0,0,0.5648,0,2,2,19,1,t,images/br_t.png,images/cb_t.png,,,,,,,,,,,,,,,,,,,,,,,,,,,,,,,,,,,,,,,,,,,,,,,
,,,,,,00054,2023-10-10_17h25.52.567,vbt_B2_day2,2022.2.4,Win32,59.88741167,,,,,,,0.28125,-0.122395833,1,0,0,0.0851,0,3,3,0,1,a,images/br_a.png,images/cb_a.png,,,,,,,,,,,,,,,,,,,,,,,,,,,,,,,,,,,,,,,,,,,,,,,
,,,,,,00054,2023-10-10_17h25.52.567,vbt_B2_day2,2022.2.4,Win32,59.88741167,,,,,,,0.27734375,-0.122395833,1,0,0,0.1013,0,4,4,23,1,x,images/br_x.png,images/cb_x.png,,,,,,,,,,,,,,,,,,,,,,,,,,,,,,,,,,,,,,,,,,,,,,,
,,,,,,00054,2023-10-10_17h25.52.567,vbt_B2_day2,2022.2.4,Win32,59.88741167,,,,,,,0.276041667,-0.122395833,1,0,0,1.2883,0,5,5,7,1,h,images/br_h.png,images/cb_h.png,,,,,,,,,,,,,,,,,,,,,,,,,,,,,,,,,,,,,,,,,,,,,,,
,,,,,,00054,2023-10-10_17h25.52.567,vbt_B2_day2,2022.2.4,Win32,59.88741167,,,,,,,0.276041667,-0.122395833,1,0,0,0.1164,0,6,6,5,1,f,images/br_f.png,images/cb_f.png,,,,,,,,,,,,,,,,,,,,,,,,,,,,,,,,,,,,,,,,,,,,,,,
,,,,,,00054,2023-10-10_17h25.52.567,vbt_B2_day2,2022.2.4,Win32,59.88741167,,,,,,,0.272135417,-0.123697917,1,0,0,2.9763,0,7,7,20,1,u,images/br_u.png,images/cb_u.png,,,,,,,,,,,,,,,,,,,,,,,,,,,,,,,,,,,,,,,,,,,,,,,
,,,,,,00054,2023-10-10_17h25.52.567,vbt_B2_day2,2022.2.4,Win32,59.88741167,,,,,,,0.266927083,-0.125,1,0,0,0.0334,0,8,8,13,1,n,images/br_n.png,images/cb_n.png,,,,,,,,,,,,,,,,,,,,,,,,,,,,,,,,,,,,,,,,,,,,,,,
,,,,,,00054,2023-10-10_17h25.52.567,vbt_B2_day2,2022.2.4,Win32,59.88741167,,,,,,,0.266927083,-0.125,1,0,0,0.1493,0,9,9,24,1,y,images/br_y.png,images/cb_y.png,,,,,,,,,,,,,,,,,,,,,,,,,,,,,,,,,,,,,,,,,,,,,,,
,,,,,,00054,2023-10-10_17h25.52.567,vbt_B2_day2,2022.2.4,Win32,59.88741167,,,,,,,0.266927083,-0.125,1,0,0,0.4477,0,10,10,12,1,m,images/br_m.png,images/cb_m.png,,,,,,,,,,,,,,,,,,,,,,,,,,,,,,,,,,,,,,,,,,,,,,,
,,,,,,00054,2023-10-10_17h25.52.567,vbt_B2_day2,2022.2.4,Win32,59.88741167,,,,,,,0.266927083,-0.125,1,0,0,1.145,0,11,11,9,1,j,images/br_j.png,images/cb_j.png,,,,,,,,,,,,,,,,,,,,,,,,,,,,,,,,,,,,,,,,,,,,,,,
,,,,,,00054,2023-10-10_17h25.52.567,vbt_B2_day2,2022.2.4,Win32,59.88741167,,,,,,,0.266927083,-0.125,1,0,0,0.3318,0,12,12,3,1,d,images/br_d.png,images/cb_d.png,,,,,,,,,,,,,,,,,,,,,,,,,,,,,,,,,,,,,,,,,,,,,,,
,,,,,,00054,2023-10-10_17h25.52.567,vbt_B2_day2,2022.2.4,Win32,59.88741167,,,,,,,0.266927083,-0.125,1,0,0,0.1492,0,13,13,16,1,q,images/br_q.png,images/cb_q.png,,,,,,,,,,,,,,,,,,,,,,,,,,,,,,,,,,,,,,,,,,,,,,,
,,,,,,00054,2023-10-10_17h25.52.567,vbt_B2_day2,2022.2.4,Win32,59.88741167,,,,,,,0.266927083,-0.125,1,0,0,0.1828,0,14,14,10,1,k,images/br_k.png,images/cb_k.png,,,,,,,,,,,,,,,,,,,,,,,,,,,,,,,,,,,,,,,,,,,,,,,
,,,,,,00054,2023-10-10_17h25.52.567,vbt_B2_day2,2022.2.4,Win32,59.88741167,,,,,,,0.266927083,-0.125,1,0,0,0.282,0,15,15,25,1,z,images/br_z.png,images/cb_z.png,,,,,,,,,,,,,,,,,,,,,,,,,,,,,,,,,,,,,,,,,,,,,,,
,,,,,,00054,2023-10-10_17h25.52.567,vbt_B2_day2,2022.2.4,Win32,59.88741167,,,,,,,0.266927083,-0.125,1,0,0,0.1492,0,16,16,2,1,c,images/br_c.png,images/cb_c.png,,,,,,,,,,,,,,,,,,,,,,,,,,,,,,,,,,,,,,,,,,,,,,,
,,,,,,00054,2023-10-10_17h25.52.567,vbt_B2_day2,2022.2.4,Win32,59.88741167,,,,,,,0.266927083,-0.125,1,0,0,1.0777,0,17,17,4,1,e,images/br_e.png,images/cb_e.png,,,,,,,,,,,,,,,,,,,,,,,,,,,,,,,,,,,,,,,,,,,,,,,
,,,,,,00054,2023-10-10_17h25.52.567,vbt_B2_day2,2022.2.4,Win32,59.88741167,,,,,,,0.266927083,-0.125,1,0,0,2.5531,0,18,18,18,1,s,images/br_s.png,images/cb_s.png,,,,,,,,,,,,,,,,,,,,,,,,,,,,,,,,,,,,,,,,,,,,,,,
,,,,,,00054,2023-10-10_17h25.52.567,vbt_B2_day2,2022.2.4,Win32,59.88741167,,,,,,,0.266927083,-0.125,1,0,0,0.0994,0,19,19,6,1,g,images/br_g.png,images/cb_g.png,,,,,,,,,,,,,,,,,,,,,,,,,,,,,,,,,,,,,,,,,,,,,,,
,,,,,,00054,2023-10-10_17h25.52.567,vbt_B2_day2,2022.2.4,Win32,59.88741167,,,,,,,0.266927083,-0.125,1,0,0,0.2157,0,20,20,14,1,o,images/br_o.png,images/cb_o.png,,,,,,,,,,,,,,,,,,,,,,,,,,,,,,,,,,,,,,,,,,,,,,,
,,,,,,00054,2023-10-10_17h25.52.567,vbt_B2_day2,2022.2.4,Win32,59.88741167,,,,,,,0.266927083,-0.125,1,0,0,0.6131,0,21,21,22,1,w,images/br_w.png,images/cb_w.png,,,,,,,,,,,,,,,,,,,,,,,,,,,,,,,,,,,,,,,,,,,,,,,
,,,,,,00054,2023-10-10_17h25.52.567,vbt_B2_day2,2022.2.4,Win32,59.88741167,,,,,,,0.266927083,-0.125,1,0,0,0.6384,0,22,22,8,1,i,images/br_i.png,images/cb_i.png,,,,,,,,,,,,,,,,,,,,,,,,,,,,,,,,,,,,,,,,,,,,,,,
,,,,,,00054,2023-10-10_17h25.52.567,vbt_B2_day2,2022.2.4,Win32,59.88741167,,,,,,,0.266927083,-0.125,1,0,0,0.0499,0,23,23,17,1,r,images/br_r.png,images/cb_r.png,,,,,,,,,,,,,,,,,,,,,,,,,,,,,,,,,,,,,,,,,,,,,,,
,,,,,,00054,2023-10-10_17h25.52.567,vbt_B2_day2,2022.2.4,Win32,59.88741167,,,,,,,0.266927083,-0.125,1,0,0,0.2018,0,24,24,21,1,v,images/br_v.png,images/cb_v.png,,,,,,,,,,,,,,,,,,,,,,,,,,,,,,,,,,,,,,,,,,,,,,,
,,,,,,00054,2023-10-10_17h25.52.567,vbt_B2_day2,2022.2.4,Win32,59.88741167,,,,,,,0.266927083,-0.125,1,0,0,0.4647,0,25,25,1,1,b,images/br_b.png,images/cb_b.png,,,,,,,,,,,,,,,,,,,,,,,,,,,,,,,,,,,,,,,,,,,,,,,
,,,,,,00054,2023-10-10_17h25.52.567,vbt_B2_day2,2022.2.4,Win32,59.88741167,,,,,,,,,,,,,,,,,,,,,0.498697917,-0.0703125,1,0,0,28.3656,,,,,,,,,,,,,,,,,,,,,,,,,,,,,,,,,,,,,,,,,
,,,,,,00054,2023-10-10_17h25.52.567,vbt_B2_day2,2022.2.4,Win32,59.88741167,,,,,,,,,,,,,,,,,,,,,,,,,,,down,0,10.3677,,0.51953125,-0.0546875,1,0,0,2.4595,0,0,0,84,1,lokken,images/br_lokken.png,images/cb_lokken.png,0,,,,,,,,,,,,,,,,,,,,,,
,,,,,,00054,2023-10-10_17h25.52.567,vbt_B2_day2,2022.2.4,Win32,59.88741167,,,,,,,,,,,,,,,,,,,,,,,,,,,down,0,25.1531,,0.51171875,-0.05859375,1,0,0,1.392,0,1,1,183,1,getuigen,images/br_getuigen.png,images/cb_getuigen.png,0,,,,,,,,,,,,,,,,,,,,,,
,,,,,,00054,2023-10-10_17h25.52.567,vbt_B2_day2,2022.2.4,Win32,59.88741167,,,,,,,,,,,,,,,,,,,,,,,,,,,down,0,8.2113,,0.502604167,-0.065104167,1,0,0,1.3432,0,2,2,26,1,leuk,images/br_leuk.png,images/cb_leuk.png,0,,,,,,,,,,,,,,,,,,,,,,
,,,,,,00054,2023-10-10_17h25.52.567,vbt_B2_day2,2022.2.4,Win32,59.88741167,,,,,,,,,,,,,,,,,,,,,,,,,,,down,0,3.2685,,0.502604167,-0.065104167,1,0,0,0.9446,0,3,3,116,1,besmet,images/br_besmet.png,images/cb_besmet.png,0,,,,,,,,,,,,,,,,,,,,,,
,,,,,,00054,2023-10-10_17h25.52.567,vbt_B2_day2,2022.2.4,Win32,59.88741167,,,,,,,,,,,,,,,,,,,,,,,,,,,down,0,2.0104,,0.502604167,-0.065104167,1,0,0,1.5914,0,4,4,0,1,slak,images/br_slak.png,images/cb_slak.png,0,,,,,,,,,,,,,,,,,,,,,,
,,,,,,00054,2023-10-10_17h25.52.567,vbt_B2_day2,2022.2.4,Win32,59.88741167,,,,,,,,,,,,,,,,,,,,,,,,,,,down,0,9.3326,,0.114583333,-0.037760417,1,0,0,1.4255,0,5,5,105,1,wijlen,images/br_wijlen.png,images/cb_wijlen.png,0,,,,,,,,,,,,,,,,,,,,,,
,,,,,,00054,2023-10-10_17h25.52.567,vbt_B2_day2,2022.2.4,Win32,59.88741167,,,,,,,,,,,,,,,,,,,,,,,,,,,down,0,7.3333,,0.165364583,-0.01171875,1,0,0,0.5467,0,6,6,80,1,kanjer,images/br_kanjer.png,images/cb_kanjer.png,0,,,,,,,,,,,,,,,,,,,,,,
,,,,,,00054,2023-10-10_17h25.52.567,vbt_B2_day2,2022.2.4,Win32,59.88741167,,,,,,,,,,,,,,,,,,,,,,,,,,,down,0,6.2924,,0.104166667,-0.037760417,1,0,0,0.6798,0,7,7,47,1,kabel,images/br_kabel.png,images/cb_kabel.png,0,,,,,,,,,,,,,,,,,,,,,,
,,,,,,00054,2023-10-10_17h25.52.567,vbt_B2_day2,2022.2.4,Win32,59.88741167,,,,,,,,,,,,,,,,,,,,,,,,,,,down,0,12.2407,,0.442708333,-0.16015625,1,0,0,1.1603,0,8,8,136,1,waarbij,images/br_waarbij.png,images/cb_waarbij.png,1,waarbij,,,,,,,,,,,,,,,,,,,,,
,,,,,,00054,2023-10-10_17h25.52.567,vbt_B2_day2,2022.2.4,Win32,59.88741167,,,,,,,,,,,,,,,,,,,,,,,,,,,down,0,3.2207,,0.166666667,-0.009114583,1,0,0,0.5135,0,9,9,35,1,lust,images/br_lust.png,images/cb_lust.png,0,,,,,,,,,,,,,,,,,,,,,,
,,,,,,00054,2023-10-10_17h25.52.567,vbt_B2_day2,2022.2.4,Win32,59.88741167,,,,,,,,,,,,,,,,,,,,,,,,,,,down,0,9.0069,,0.25,-0.057291667,1,0,0,0.464,0,10,10,88,1,boeien,images/br_boeien.png,images/cb_boeien.png,0,,,,,,,,,,,,,,,,,,,,,,
,,,,,,00054,2023-10-10_17h25.52.567,vbt_B2_day2,2022.2.4,Win32,59.88741167,,,,,,,,,,,,,,,,,,,,,,,,,,,down,0,3.0835,,0.180989583,-0.03125,1,0,0,0.6136,0,11,11,32,1,palm,images/br_palm.png,images/cb_palm.png,0,,,,,,,,,,,,,,,,,,,,,,
,,,,,,00054,2023-10-10_17h25.52.567,vbt_B2_day2,2022.2.4,Win32,59.88741167,,,,,,,,,,,,,,,,,,,,,,,,,,,down,0,3.7619,,0.188802083,-0.04296875,1,0,0,0.5137,0,12,12,73,1,volop,images/br_volop.png,images/cb_volop.png,0,,,,,,,,,,,,,,,,,,,,,,
,,,,,,00054,2023-10-10_17h25.52.567,vbt_B2_day2,2022.2.4,Win32,59.88741167,,,,,,,,,,,,,,,,,,,,,,,,,,,down,0,5.0473,,0.30859375,-0.123697917,1,0,0,0.3642,0,13,13,144,1,eetlust,images/br_eetlust.png,images/cb_eetlust.png,0,,,,,,,,,,,,,,,,,,,,,,
,,,,,,00054,2023-10-10_17h25.52.567,vbt_B2_day2,2022.2.4,Win32,59.88741167,,,,,,,,,,,,,,,,,,,,,,,,,,,down,0,3.8634,,0.283854167,-0.053385417,1,0,0,0.4972,0,14,14,175,1,heengaan,images/br_heengaan.png,images/cb_heengaan.png,0,,,,,,,,,,,,,,,,,,,,,,
,,,,,,00054,2023-10-10_17h25.52.567,vbt_B2_day2,2022.2.4,Win32,59.88741167,,,,,,,,,,,,,,,,,,,,,,,,,,,down,0,5.2758,,0.36328125,-0.098958333,1,0,0,0.4708,0,15,15,170,1,schatten,images/br_schatten.png,images/cb_schatten.png,0,,,,,,,,,,,,,,,,,,,,,,
,,,,,,00054,2023-10-10_17h25.52.567,vbt_B2_day2,2022.2.4,Win32,59.88741167,,,,,,,,,,,,,,,,,,,,,,,,,,,down,0,6.3085,,0.256510417,-0.095052083,1,0,0,0.5634,0,16,16,149,1,redding,images/br_redding.png,images/cb_redding.png,0,,,,,,,,,,,,,,,,,,,,,,
,,,,,,00054,2023-10-10_17h25.52.567,vbt_B2_day2,2022.2.4,Win32,59.88741167,,,,,,,,,,,,,,,,,,,,,,,,,,,down,0,11.105,,0.373697917,-0.13671875,1,0,0,0.4977,0,17,17,198,1,bedoelen,images/br_bedoelen.png,images/cb_bedoelen.png,0,,,,,,,,,,,,,,,,,,,,,,
,,,,,,00054,2023-10-10_17h25.52.567,vbt_B2_day2,2022.2.4,Win32,59.88741167,,,,,,,,,,,,,,,,,,,,,,,,,,,down,0,20.9335,,0.221354167,-0.018229167,1,0,0,0.7124,0,18,18,130,1,keihard,images/br_keihard.png,images/cb_keihard.png,0,,,,,,,,,,,,,,,,,,,,,,
,,,,,,00054,2023-10-10_17h25.52.567,vbt_B2_day2,2022.2.4,Win32,59.88741167,,,,,,,,,,,,,,,,,,,,,,,,,,,down,0,2.778,,0.147135417,-0.00390625,1,0,0,0.422,0,19,19,9,1,hier,images/br_hier.png,images/cb_hier.png,0,,,,,,,,,,,,,,,,,,,,,,
,,,,,,00054,2023-10-10_17h25.52.567,vbt_B2_day2,2022.2.4,Win32,59.88741167,,,,,,,,,,,,,,,,,,,,,,,,,,,down,0,2.1953,,0.18359375,-0.044270833,1,0,0,0.4225,0,20,20,25,1,plek,images/br_plek.png,images/cb_plek.png,0,,,,,,,,,,,,,,,,,,,,,,
,,,,,,00054,2023-10-10_17h25.52.567,vbt_B2_day2,2022.2.4,Win32,59.88741167,,,,,,,,,,,,,,,,,,,,,,,,,,,down,0,14.2266,,0.143229167,0.005208333,1,0,0,1.3263,0,21,21,176,1,techniek,images/br_techniek.png,images/cb_techniek.png,1,techniek,,,,,,,,,,,,,,,,,,,,,
,,,,,,00054,2023-10-10_17h25.52.567,vbt_B2_day2,2022.2.4,Win32,59.88741167,,,,,,,,,,,,,,,,,,,,,,,,,,,down,0,4.9442,,0.076822917,-0.028645833,1,0,0,0.3715,0,22,22,52,1,wagon,images/br_wagon.png,images/cb_wagon.png,0,,,,,,,,,,,,,,,,,,,,,,
,,,,,,00054,2023-10-10_17h25.52.567,vbt_B2_day2,2022.2.4,Win32,59.88741167,,,,,,,,,,,,,,,,,,,,,,,,,,,down,0,35.8094,,0.356770833,-0.046875,1,0,0,0.5039,0,23,23,165,1,feestdag,images/br_feestdag.png,images/cb_feestdag.png,0,,,,,,,,,,,,,,,,,,,,,,
,,,,,,00054,2023-10-10_17h25.52.567,vbt_B2_day2,2022.2.4,Win32,59.88741167,,,,,,,,,,,,,,,,,,,,,,,,,,,down,0,9.147,,0.162760417,-0.0234375,1,0,0,0.5969,0,24,24,139,1,stiekem,images/br_stiekem.png,images/cb_stiekem.png,1,stiekem,,,,,,,,,,,,,,,,,,,,,
,,,,,,00054,2023-10-10_17h25.52.567,vbt_B2_day2,2022.2.4,Win32,59.88741167,,,,,,,,,,,,,,,,,,,,,,,,,,,down,0,5.3572,,0.1953125,-0.040364583,1,0,0,0.3811,0,25,25,133,1,seizoen,images/br_seizoen.png,images/cb_seizoen.png,0,,,,,,,,,,,,,,,,,,,,,,
,,,,,,00054,2023-10-10_17h25.52.567,vbt_B2_day2,2022.2.4,Win32,59.88741167,,,,,,,,,,,,,,,,,,,,,,,,,,,down,0,3.1559,,0.276041667,-0.037760417,1,0,0,0.4336,0,26,26,192,1,schaamte,images/br_schaamte.png,images/cb_schaamte.png,0,,,,,,,,,,,,,,,,,,,,,,
,,,,,,00054,2023-10-10_17h25.52.567,vbt_B2_day2,2022.2.4,Win32,59.88741167,,,,,,,,,,,,,,,,,,,,,,,,,,,down,0,6.2692,,0.26171875,-0.0546875,1,0,0,0.4628,0,27,27,186,1,voorraad,images/br_voorraad.png,images/cb_voorraad.png,0,,,,,,,,,,,,,,,,,,,,,,
,,,,,,00054,2023-10-10_17h25.52.567,vbt_B2_day2,2022.2.4,Win32,59.88741167,,,,,,,,,,,,,,,,,,,,,,,,,,,down,0,3.2664,,0.153645833,-0.095052083,1,0,0,0.4158,0,28,28,49,1,laken,images/br_laken.png,images/cb_laken.png,0,,,,,,,,,,,,,,,,,,,,,,
,,,,,,00054,2023-10-10_17h25.52.567,vbt_B2_day2,2022.2.4,Win32,59.88741167,,,,,,,,,,,,,,,,,,,,,,,,,,,down,0,7.314,,0.109375,-0.044270833,1,0,0,0.7305,0,29,29,18,1,blik,images/br_blik.png,images/cb_blik.png,1,blik,,,,,,,,,,,,,,,,,,,,,
,,,,,,00054,2023-10-10_17h25.52.567,vbt_B2_day2,2022.2.4,Win32,59.88741167,,,,,,,,,,,,,,,,,,,,,,,,,,,down,0,8.3916,,0.208333333,-0.098958333,1,0,0,0.4804,0,30,30,167,1,eenhoorn,images/br_eenhoorn.png,images/cb_eenhoorn.png,0,,,,,,,,,,,,,,,,,,,,,,
,,,,,,00054,2023-10-10_17h25.52.567,vbt_B2_day2,2022.2.4,Win32,59.88741167,,,,,,,,,,,,,,,,,,,,,,,,,,,down,0,5.6386,,0.186197917,-0.14453125,1,0,0,0.3969,0,31,31,129,1,verhaal,images/br_verhaal.png,images/cb_verhaal.png,0,,,,,,,,,,,,,,,,,,,,,,
,,,,,,00054,2023-10-10_17h25.52.567,vbt_B2_day2,2022.2.4,Win32,59.88741167,,,,,,,,,,,,,,,,,,,,,,,,,,,down,0,4.2275,,0.345052083,-0.139322917,1,0,0,0.7297,0,32,32,87,1,toeval,images/br_toeval.png,images/cb_toeval.png,0,,,,,,,,,,,,,,,,,,,,,,
,,,,,,00054,2023-10-10_17h25.52.567,vbt_B2_day2,2022.2.4,Win32,59.88741167,,,,,,,,,,,,,,,,,,,,,,,,,,,down,0,5.6025,,0.309895833,-0.115885417,1,0,0,0.4641,0,33,33,23,1,zout,images/br_zout.png,images/cb_zout.png,0,,,,,,,,,,,,,,,,,,,,,,
,,,,,,00054,2023-10-10_17h25.52.567,vbt_B2_day2,2022.2.4,Win32,59.88741167,,,,,,,,,,,,,,,,,,,,,,,,,,,down,0,6.0567,,0.313802083,-0.088541667,1,0,0,0.3995,0,34,34,89,1,slapen,images/br_slapen.png,images/cb_slapen.png,0,,,,,,,,,,,,,,,,,,,,,,
,,,,,,00054,2023-10-10_17h25.52.567,vbt_B2_day2,2022.2.4,Win32,59.88741167,,,,,,,,,,,,,,,,,,,,,,,,,,,down,0,29.2062,,0.453125,-0.072916667,1,0,0,5.731,0,35,35,164,1,anarchie,images/br_anarchie.png,images/cb_anarchie.png,0,,,,,,,,,,,,,,,,,,,,,,
,,,,,,00054,2023-10-10_17h25.52.567,vbt_B2_day2,2022.2.4,Win32,59.88741167,,,,,,,,,,,,,,,,,,,,,,,,,,,down,0,3.9615,,0.265625,-0.12109375,1,0,0,0.533,0,36,36,4,1,moes,images/br_moes.png,images/cb_moes.png,0,,,,,,,,,,,,,,,,,,,,,,
,,,,,,00054,2023-10-10_17h25.52.567,vbt_B2_day2,2022.2.4,Win32,59.88741167,,,,,,,,,,,,,,,,,,,,,,,,,,,down,0,4.9614,,0.276041667,-0.059895833,1,0,0,1.6735,0,37,37,85,1,heilig,images/br_heilig.png,images/cb_heilig.png,0,,,,,,,,,,,,,,,,,,,,,,
,,,,,,00054,2023-10-10_17h25.52.567,vbt_B2_day2,2022.2.4,Win32,59.88741167,,,,,,,,,,,,,,,,,,,,,,,,,,,down,0,9.6332,,0.33203125,-0.104166667,1,0,0,0.4474,0,38,38,135,1,gedicht,images/br_gedicht.png,images/cb_gedicht.png,0,,,,,,,,,,,,,,,,,,,,,,
,,,,,,00054,2023-10-10_17h25.52.567,vbt_B2_day2,2022.2.4,Win32,59.88741167,,,,,,,,,,,,,,,,,,,,,,,,,,,down,0,5.6287,,0.287760417,-0.147135417,1,0,0,0.6821,0,39,39,101,1,staren,images/br_staren.png,images/cb_staren.png,0,,,,,,,,,,,,,,,,,,,,,,
,,,,,,00054,2023-10-10_17h25.52.567,vbt_B2_day2,2022.2.4,Win32,59.88741167,,,,,,,,,,,,,,,,,,,,,,,,,,,down,0,0.0013,,0.22265625,-0.049479167,1,0,0,0.3479,0,40,40,39,1,laag,images/br_laag.png,images/cb_laag.png,0,,,,,,,,,,,,,,,,,,,,,,
,,,,,,00054,2023-10-10_17h25.52.567,vbt_B2_day2,2022.2.4,Win32,59.88741167,,,,,,,,,,,,,,,,,,,,,,,,,,,down,0,18.4562,,0.479166667,-0.204427083,1,0,0,0.6795,0,41,41,60,1,jasje,images/br_jasje.png,images/cb_jasje.png,0,,,,,,,,,,,,,,,,,,,,,,
,,,,,,00054,2023-10-10_17h25.52.567,vbt_B2_day2,2022.2.4,Win32,59.88741167,,,,,,,,,,,,,,,,,,,,,,,,,,,down,0,6.769,,0.321614583,-0.091145833,1,0,0,0.5799,0,42,42,147,1,komisch,images/br_komisch.png,images/cb_komisch.png,0,,,,,,,,,,,,,,,,,,,,,,
,,,,,,00054,2023-10-10_17h25.52.567,vbt_B2_day2,2022.2.4,Win32,59.88741167,,,,,,,,,,,,,,,,,,,,,,,,,,,down,0,7.6472,,0.2734375,-0.096354167,1,0,0,0.797,0,43,43,131,1,opzicht,images/br_opzicht.png,images/cb_opzicht.png,0,,,,,,,,,,,,,,,,,,,,,,
,,,,,,00054,2023-10-10_17h25.52.567,vbt_B2_day2,2022.2.4,Win32,59.88741167,,,,,,,,,,,,,,,,,,,,,,,,,,,down,0,1.7186,,0.381510417,-0.12109375,1,0,0,0.3475,0,44,44,46,1,jagen,images/br_jagen.png,images/cb_jagen.png,0,,,,,,,,,,,,,,,,,,,,,,
,,,,,,00054,2023-10-10_17h25.52.567,vbt_B2_day2,2022.2.4,Win32,59.88741167,,,,,,,,,,,,,,,,,,,,,,,,,,,down,0,5.255,,0.35546875,-0.09765625,1,0,0,0.3839,0,45,45,169,1,oprotten,images/br_oprotten.png,images/cb_oprotten.png,0,,,,,,,,,,,,,,,,,,,,,,
,,,,,,00054,2023-10-10_17h25.52.567,vbt_B2_day2,2022.2.4,Win32,59.88741167,,,,,,,,,,,,,,,,,,,,,,,,,,,down,0,9.9731,,0.615885417,-0.22265625,1,0,0,0.8197,0,46,46,138,1,akkoord,images/br_akkoord.png,images/cb_akkoord.png,1,akkoord,,,,,,,,,,,,,,,,,,,,,
,,,,,,00054,2023-10-10_17h25.52.567,vbt_B2_day2,2022.2.4,Win32,59.88741167,,,,,,,,,,,,,,,,,,,,,,,,,,,down,0,9.8527,,0.3671875,-0.158854167,1,0,0,0.5303,0,47,47,160,1,daarheen,images/br_daarheen.png,images/cb_daarheen.png,0,,,,,,,,,,,,,,,,,,,,,,
,,,,,,00054,2023-10-10_17h25.52.567,vbt_B2_day2,2022.2.4,Win32,59.88741167,,,,,,,,,,,,,,,,,,,,,,,,,,,down,0,9.8473,,0.377604167,-0.104166667,1,0,0,0.5263,0,48,48,162,1,uitdelen,images/br_uitdelen.png,images/cb_uitdelen.png,0,,,,,,,,,,,,,,,,,,,,,,
,,,,,,00054,2023-10-10_17h25.52.567,vbt_B2_day2,2022.2.4,Win32,59.88741167,,,,,,,,,,,,,,,,,,,,,,,,,,,down,0,6.8825,,0.1640625,-0.032552083,1,0,0,0.3637,0,49,49,24,1,jurk,images/br_jurk.png,images/cb_jurk.png,0,,,,,,,,,,,,,,,,,,,,,,
,,,,,,00054,2023-10-10_17h25.52.567,vbt_B2_day2,2022.2.4,Win32,59.88741167,,,,,,,,,,,,,,,,,,,,,,,,,,,down,0,4.5011,,0.1328125,-0.024739583,1,0,0,1.1282,0,50,50,20,1,site,images/br_site.png,images/cb_site.png,0,,,,,,,,,,,,,,,,,,,,,,
,,,,,,00054,2023-10-10_17h25.52.567,vbt_B2_day2,2022.2.4,Win32,59.88741167,,,,,,,,,,,,,,,,,,,,,,,,,,,down,0,6.1881,,0.24609375,-0.08984375,1,0,0,0.463,0,51,51,194,1,driemaal,images/br_driemaal.png,images/cb_driemaal.png,0,,,,,,,,,,,,,,,,,,,,,,
,,,,,,00054,2023-10-10_17h25.52.567,vbt_B2_day2,2022.2.4,Win32,59.88741167,,,,,,,,,,,,,,,,,,,,,,,,,,,down,0,7.8977,,0.4453125,-0.069010417,1,0,0,0.4831,0,52,52,132,1,grappen,images/br_grappen.png,images/cb_grappen.png,0,,,,,,,,,,,,,,,,,,,,,,
,,,,,,00054,2023-10-10_17h25.52.567,vbt_B2_day2,2022.2.4,Win32,59.88741167,,,,,,,,,,,,,,,,,,,,,,,,,,,down,0,2.0151,,0.334635417,-0.125,1,0,0,0.3306,0,53,53,13,1,kaal,images/br_kaal.png,images/cb_kaal.png,0,,,,,,,,,,,,,,,,,,,,,,
,,,,,,00054,2023-10-10_17h25.52.567,vbt_B2_day2,2022.2.4,Win32,59.88741167,,,,,,,,,,,,,,,,,,,,,,,,,,,down,0,1.4281,,0.35546875,-0.061197917,1,0,0,1.1602,0,54,54,10,1,leek,images/br_leek.png,images/cb_leek.png,0,,,,,,,,,,,,,,,,,,,,,,
,,,,,,00054,2023-10-10_17h25.52.567,vbt_B2_day2,2022.2.4,Win32,59.88741167,,,,,,,,,,,,,,,,,,,,,,,,,,,down,0,1.5094,,0.2890625,-0.0546875,1,0,0,0.3481,0,55,55,28,1,stal,images/br_stal.png,images/cb_stal.png,0,,,,,,,,,,,,,,,,,,,,,,
,,,,,,00054,2023-10-10_17h25.52.567,vbt_B2_day2,2022.2.4,Win32,59.88741167,,,,,,,,,,,,,,,,,,,,,,,,,,,down,0,3.9001,,0.783854167,-0.184895833,1,0,0,0.7124,0,56,56,30,1,uien,images/br_uien.png,images/cb_uien.png,0,,,,,,,,,,,,,,,,,,,,,,
,,,,,,00054,2023-10-10_17h25.52.567,vbt_B2_day2,2022.2.4,Win32,59.88741167,,,,,,,,,,,,,,,,,,,,,,,,,,,down,0,1.91,,0.44921875,-0.11328125,1,0,0,0.2983,0,57,57,141,1,knielen,images/br_knielen.png,images/cb_knielen.png,0,,,,,,,,,,,,,,,,,,,,,,
,,,,,,00054,2023-10-10_17h25.52.567,vbt_B2_day2,2022.2.4,Win32,59.88741167,,,,,,,,,,,,,,,,,,,,,,,,,,,down,0,1.7163,,0.35546875,-0.087239583,1,0,0,0.3643,0,58,58,41,1,maken,images/br_maken.png,images/cb_maken.png,0,,,,,,,,,,,,,,,,,,,,,,
,,,,,,00054,2023-10-10_17h25.52.567,vbt_B2_day2,2022.2.4,Win32,59.88741167,,,,,,,,,,,,,,,,,,,,,,,,,,,down,0,3.0687,,0.37109375,-0.084635417,1,0,0,0.3909,0,59,59,53,1,baron,images/br_baron.png,images/cb_baron.png,0,,,,,,,,,,,,,,,,,,,,,,
,,,,,,00054,2023-10-10_17h25.52.567,vbt_B2_day2,2022.2.4,Win32,59.88741167,,,,,,,,,,,,,,,,,,,,,,,,,,,down,0,3.0429,,0.385416667,-0.084635417,1,0,0,6.0515,0,60,60,137,1,trekker,images/br_trekker.png,images/cb_trekker.png,1,trekker,,,,,,,,,,,,,,,,,,,,,
,,,,,,00054,2023-10-10_17h25.52.567,vbt_B2_day2,2022.2.4,Win32,59.88741167,,,,,,,,,,,,,,,,,,,,,,,,,,,down,0,9.9526,,0.084635417,-0.014322917,1,0,0,0.4471,0,61,61,92,1,geheim,images/br_geheim.png,images/cb_geheim.png,0,,,,,,,,,,,,,,,,,,,,,,
,,,,,,00054,2023-10-10_17h25.52.567,vbt_B2_day2,2022.2.4,Win32,59.88741167,,,,,,,,,,,,,,,,,,,,,,,,,,,down,0,7.2978,,-0.024739583,-0.028645833,1,0,0,0.4973,0,62,62,95,1,vreten,images/br_vreten.png,images/cb_vreten.png,0,,,,,,,,,,,,,,,,,,,,,,
,,,,,,00054,2023-10-10_17h25.52.567,vbt_B2_day2,2022.2.4,Win32,59.88741167,,,,,,,,,,,,,,,,,,,,,,,,,,,down,0,5.6738,,0.036458333,-0.024739583,1,0,0,0.6803,0,63,63,180,1,openbaar,images/br_openbaar.png,images/cb_openbaar.png,0,,,,,,,,,,,,,,,,,,,,,,
,,,,,,00054,2023-10-10_17h25.52.567,vbt_B2_day2,2022.2.4,Win32,59.88741167,,,,,,,,,,,,,,,,,,,,,,,,,,,down,0,13.3145,,0.040364583,-0.020833333,1,0,0,0.7298,0,64,64,58,1,tekst,images/br_tekst.png,images/cb_tekst.png,1,tekst,,,,,,,,,,,,,,,,,,,,,
,,,,,,00054,2023-10-10_17h25.52.567,vbt_B2_day2,2022.2.4,Win32,59.88741167,,,,,,,,,,,,,,,,,,,,,,,,,,,down,0,3.011,,0.145833333,-0.022135417,1,0,0,0.3252,0,65,65,68,1,schat,images/br_schat.png,images/cb_schat.png,0,,,,,,,,,,,,,,,,,,,,,,
,,,,,,00054,2023-10-10_17h25.52.567,vbt_B2_day2,2022.2.4,Win32,59.88741167,,,,,,,,,,,,,,,,,,,,,,,,,,,down,0,8.5476,,0.243489583,-0.0390625,1,0,0,0.3885,0,66,66,153,1,vervoer,images/br_vervoer.png,images/cb_vervoer.png,0,,,,,,,,,,,,,,,,,,,,,,
,,,,,,00054,2023-10-10_17h25.52.567,vbt_B2_day2,2022.2.4,Win32,59.88741167,,,,,,,,,,,,,,,,,,,,,,,,,,,down,0,12.1374,,0.119791667,-0.04296875,1,0,0,0.6792,0,67,67,179,1,woestijn,images/br_woestijn.png,images/cb_woestijn.png,1,woestijn,,,,,,,,,,,,,,,,,,,,,
,,,,,,00054,2023-10-10_17h25.52.567,vbt_B2_day2,2022.2.4,Win32,59.88741167,,,,,,,,,,,,,,,,,,,,,,,,,,,down,0,4.0945,,0.243489583,-0.026041667,1,0,0,0.3496,0,68,68,63,1,flirt,images/br_flirt.png,images/cb_flirt.png,0,,,,,,,,,,,,,,,,,,,,,,
,,,,,,00054,2023-10-10_17h25.52.567,vbt_B2_day2,2022.2.4,Win32,59.88741167,,,,,,,,,,,,,,,,,,,,,,,,,,,down,0,4.5143,,0.17578125,-0.016927083,1,0,0,0.4135,0,69,69,43,1,klauw,images/br_klauw.png,images/cb_klauw.png,0,,,,,,,,,,,,,,,,,,,,,,
,,,,,,00054,2023-10-10_17h25.52.567,vbt_B2_day2,2022.2.4,Win32,59.88741167,,,,,,,,,,,,,,,,,,,,,,,,,,,down,0,19.8525,,0.196614583,-0.032552083,1,0,0,0.4643,0,70,70,156,1,rechten,images/br_rechten.png,images/cb_rechten.png,0,,,,,,,,,,,,,,,,,,,,,,
,,,,,,00054,2023-10-10_17h25.52.567,vbt_B2_day2,2022.2.4,Win32,59.88741167,,,,,,,,,,,,,,,,,,,,,,,,,,,down,0,3.274,,0.138020833,-0.015625,1,0,0,0.3643,0,71,71,155,1,gerucht,images/br_gerucht.png,images/cb_gerucht.png,0,,,,,,,,,,,,,,,,,,,,,,
,,,,,,00054,2023-10-10_17h25.52.567,vbt_B2_day2,2022.2.4,Win32,59.88741167,,,,,,,,,,,,,,,,,,,,,,,,,,,down,0,5.0715,,0.3046875,-0.020833333,1,0,0,0.315,0,72,72,151,1,aanzoek,images/br_aanzoek.png,images/cb_aanzoek.png,0,,,,,,,,,,,,,,,,,,,,,,
,,,,,,00054,2023-10-10_17h25.52.567,vbt_B2_day2,2022.2.4,Win32,59.88741167,,,,,,,,,,,,,,,,,,,,,,,,,,,down,0,7.4005,,0.302083333,-0.06640625,1,0,0,0.431,0,73,73,188,1,strekken,images/br_strekken.png,images/cb_strekken.png,0,,,,,,,,,,,,,,,,,,,,,,
,,,,,,00054,2023-10-10_17h25.52.567,vbt_B2_day2,2022.2.4,Win32,59.88741167,,,,,,,,,,,,,,,,,,,,,,,,,,,down,0,0.353,,-0.21875,0.005208333,1,0,0,0.3313,0,74,74,8,1,knie,images/br_knie.png,images/cb_knie.png,0,,,,,,,,,,,,,,,,,,,,,,
,,,,,,00054,2023-10-10_17h25.52.567,vbt_B2_day2,2022.2.4,Win32,59.88741167,,,,,,,,,,,,,,,,,,,,,,,,,,,down,0,2.9239,,0.375,-0.044270833,1,0,0,0.5469,0,75,75,171,1,aarzelen,images/br_aarzelen.png,images/cb_aarzelen.png,0,,,,,,,,,,,,,,,,,,,,,,
,,,,,,00054,2023-10-10_17h25.52.567,vbt_B2_day2,2022.2.4,Win32,59.88741167,,,,,,,,,,,,,,,,,,,,,,,,,,,down,0,2.7275,,0.31640625,-0.114583333,1,0,0,0.4477,0,76,76,117,1,kennis,images/br_kennis.png,images/cb_kennis.png,0,,,,,,,,,,,,,,,,,,,,,,
,,,,,,00054,2023-10-10_17h25.52.567,vbt_B2_day2,2022.2.4,Win32,59.88741167,,,,,,,,,,,,,,,,,,,,,,,,,,,down,0,10.0843,,0.1171875,-0.03125,1,0,0,0.5135,0,77,77,154,1,aflopen,images/br_aflopen.png,images/cb_aflopen.png,0,,,,,,,,,,,,,,,,,,,,,,
,,,,,,00054,2023-10-10_17h25.52.567,vbt_B2_day2,2022.2.4,Win32,59.88741167,,,,,,,,,,,,,,,,,,,,,,,,,,,down,0,1.0953,,0.149739583,-0.096354167,1,0,0,0.3313,0,78,78,5,1,blad,images/br_blad.png,images/cb_blad.png,0,,,,,,,,,,,,,,,,,,,,,,
,,,,,,00054,2023-10-10_17h25.52.567,vbt_B2_day2,2022.2.4,Win32,59.88741167,,,,,,,,,,,,,,,,,,,,,,,,,,,down,0,2.0969,,0.255208333,-0.02734375,1,0,0,0.4308,0,79,79,119,1,liefje,images/br_liefje.png,images/cb_liefje.png,0,,,,,,,,,,,,,,,,,,,,,,
,,,,,,00054,2023-10-10_17h25.52.567,vbt_B2_day2,2022.2.4,Win32,59.88741167,,,,,,,,,,,,,,,,,,,,,,,,,,,down,0,4.5279,,0.069010417,-0.0234375,1,0,0,0.3905,0,80,80,65,1,parel,images/br_parel.png,images/cb_parel.png,0,,,,,,,,,,,,,,,,,,,,,,
,,,,,,00054,2023-10-10_17h25.52.567,vbt_B2_day2,2022.2.4,Win32,59.88741167,,,,,,,,,,,,,,,,,,,,,,,,,,,down,0,3.5993,,0.240885417,-0.053385417,1,0,0,0.315,0,81,81,12,1,kust,images/br_kust.png,images/cb_kust.png,0,,,,,,,,,,,,,,,,,,,,,,
,,,,,,00054,2023-10-10_17h25.52.567,vbt_B2_day2,2022.2.4,Win32,59.88741167,,,,,,,,,,,,,,,,,,,,,,,,,,,down,0,2.8887,,0.177083333,-0.0546875,1,0,0,0.3147,0,82,82,36,1,vuur,images/br_vuur.png,images/cb_vuur.png,0,,,,,,,,,,,,,,,,,,,,,,
,,,,,,00054,2023-10-10_17h25.52.567,vbt_B2_day2,2022.2.4,Win32,59.88741167,,,,,,,,,,,,,,,,,,,,,,,,,,,down,0,3.0087,,0.17578125,-0.072916667,1,0,0,0.264,0,83,83,77,1,woede,images/br_woede.png,images/cb_woede.png,0,,,,,,,,,,,,,,,,,,,,,,
,,,,,,00054,2023-10-10_17h25.52.567,vbt_B2_day2,2022.2.4,Win32,59.88741167,,,,,,,,,,,,,,,,,,,,,,,,,,,down,0,2.2068,,-0.100260417,-0.03125,1,0,0,0.6958,0,84,84,75,1,snoep,images/br_snoep.png,images/cb_snoep.png,0,,,,,,,,,,,,,,,,,,,,,,
,,,,,,00054,2023-10-10_17h25.52.567,vbt_B2_day2,2022.2.4,Win32,59.88741167,,,,,,,,,,,,,,,,,,,,,,,,,,,down,0,1.1922,,0.231770833,-0.040364583,1,0,0,1.0114,0,85,85,6,1,diep,images/br_diep.png,images/cb_diep.png,0,,,,,,,,,,,,,,,,,,,,,,
,,,,,,00054,2023-10-10_17h25.52.567,vbt_B2_day2,2022.2.4,Win32,59.88741167,,,,,,,,,,,,,,,,,,,,,,,,,,,down,0,3.1411,,0.033854167,-0.029947917,1,0,0,0.4638,0,86,86,107,1,maling,images/br_maling.png,images/cb_maling.png,0,,,,,,,,,,,,,,,,,,,,,,
,,,,,,00054,2023-10-10_17h25.52.567,vbt_B2_day2,2022.2.4,Win32,59.88741167,,,,,,,,,,,,,,,,,,,,,,,,,,,down,0,4.0633,,0.06640625,-0.071614583,1,0,0,0.297,0,87,87,128,1,prikken,images/br_prikken.png,images/cb_prikken.png,0,,,,,,,,,,,,,,,,,,,,,,
,,,,,,00054,2023-10-10_17h25.52.567,vbt_B2_day2,2022.2.4,Win32,59.88741167,,,,,,,,,,,,,,,,,,,,,,,,,,,down,0,2.3035,,0.1328125,-0.044270833,1,0,0,0.3839,0,88,88,34,1,vorm,images/br_vorm.png,images/cb_vorm.png,0,,,,,,,,,,,,,,,,,,,,,,
,,,,,,00054,2023-10-10_17h25.52.567,vbt_B2_day2,2022.2.4,Win32,59.88741167,,,,,,,,,,,,,,,,,,,,,,,,,,,down,0,3.0729,,0.217447917,-0.03515625,1,0,0,0.3157,0,89,89,37,1,mijn,images/br_mijn.png,images/cb_mijn.png,0,,,,,,,,,,,,,,,,,,,,,,
,,,,,,00054,2023-10-10_17h25.52.567,vbt_B2_day2,2022.2.4,Win32,59.88741167,,,,,,,,,,,,,,,,,,,,,,,,,,,down,0,4.4818,,0.412760417,-0.065104167,1,0,0,0.3322,0,90,90,195,1,middelen,images/br_middelen.png,images/cb_middelen.png,0,,,,,,,,,,,,,,,,,,,,,,
,,,,,,00054,2023-10-10_17h25.52.567,vbt_B2_day2,2022.2.4,Win32,59.88741167,,,,,,,,,,,,,,,,,,,,,,,,,,,down,0,5.5382,,0.147135417,-0.032552083,1,0,0,0.649,0,91,91,57,1,steek,images/br_steek.png,images/cb_steek.png,1,steek,,,,,,,,,,,,,,,,,,,,,
,,,,,,00054,2023-10-10_17h25.52.567,vbt_B2_day2,2022.2.4,Win32,59.88741167,,,,,,,,,,,,,,,,,,,,,,,,,,,down,0,8.7244,,0.3125,-0.005208333,1,0,0,1.6749,0,92,92,104,1,zweven,images/br_zweven.png,images/cb_zweven.png,0,,,,,,,,,,,,,,,,,,,,,,
,,,,,,00054,2023-10-10_17h25.52.567,vbt_B2_day2,2022.2.4,Win32,59.88741167,,,,,,,,,,,,,,,,,,,,,,,,,,,down,0,4.3462,,0.165364583,-0.009114583,1,0,0,0.5633,0,93,93,124,1,bloeien,images/br_bloeien.png,images/cb_bloeien.png,0,,,,,,,,,,,,,,,,,,,,,,
,,,,,,00054,2023-10-10_17h25.52.567,vbt_B2_day2,2022.2.4,Win32,59.88741167,,,,,,,,,,,,,,,,,,,,,,,,,,,down,0,1.2127,,0.102864583,-0.083333333,1,0,0,0.4495,0,94,94,112,1,lukken,images/br_lukken.png,images/cb_lukken.png,0,,,,,,,,,,,,,,,,,,,,,,
,,,,,,00054,2023-10-10_17h25.52.567,vbt_B2_day2,2022.2.4,Win32,59.88741167,,,,,,,,,,,,,,,,,,,,,,,,,,,down,0,6.0886,,0.338541667,0.02734375,1,0,0,0.4472,0,95,95,113,1,koppen,images/br_koppen.png,images/cb_koppen.png,0,,,,,,,,,,,,,,,,,,,,,,
,,,,,,00054,2023-10-10_17h25.52.567,vbt_B2_day2,2022.2.4,Win32,59.88741167,,,,,,,,,,,,,,,,,,,,,,,,,,,down,0,4.5145,,-0.21875,-0.029947917,1,0,0,2.2048,0,96,96,197,1,spanning,images/br_spanning.png,images/cb_spanning.png,0,,,,,,,,,,,,,,,,,,,,,,
,,,,,,00054,2023-10-10_17h25.52.567,vbt_B2_day2,2022.2.4,Win32,59.88741167,,,,,,,,,,,,,,,,,,,,,,,,,,,down,0,4.7759,,-0.162760417,-0.048177083,1,0,0,0.7171,0,97,97,96,1,slagen,images/br_slagen.png,images/cb_slagen.png,1,slagen,,,,,,,,,,,,,,,,,,,,,
,,,,,,00054,2023-10-10_17h25.52.567,vbt_B2_day2,2022.2.4,Win32,59.88741167,,,,,,,,,,,,,,,,,,,,,,,,,,,down,0,6.6331,,-0.166666667,-0.048177083,1,0,0,0.6202,0,98,98,14,1,rijp,images/br_rijp.png,images/cb_rijp.png,0,,,,,,,,,,,,,,,,,,,,,,
,,,,,,00054,2023-10-10_17h25.52.567,vbt_B2_day2,2022.2.4,Win32,59.88741167,,,,,,,,,,,,,,,,,,,,,,,,,,,down,0,4.8172,,0.173177083,-0.048177083,1,0,0,0.3305,0,99,99,163,1,schuilen,images/br_schuilen.png,images/cb_schuilen.png,0,,,,,,,,,,,,,,,,,,,,,,
,,,,,,00054,2023-10-10_17h25.52.567,vbt_B2_day2,2022.2.4,Win32,59.88741167,,,,,,,,,,,,,,,,,,,,,,,,,,,down,0,5.3073,,0.30078125,0,1,0,0,0.3978,0,100,100,102,1,legaal,images/br_legaal.png,images/cb_legaal.png,0,,,,,,,,,,,,,,,,,,,,,,
,,,,,,00054,2023-10-10_17h25.52.567,vbt_B2_day2,2022.2.4,Win32,59.88741167,,,,,,,,,,,,,,,,,,,,,,,,,,,down,0,7.7638,,0.09375,-0.055989583,1,0,0,0.7619,0,101,101,168,1,bisschop,images/br_bisschop.png,images/cb_bisschop.png,0,,,,,,,,,,,,,,,,,,,,,,
,,,,,,00054,2023-10-10_17h25.52.567,vbt_B2_day2,2022.2.4,Win32,59.88741167,,,,,,,,,,,,,,,,,,,,,,,,,,,down,0,2.3697,,0.21484375,-0.022135417,1,0,0,0.5646,0,102,102,7,1,geld,images/br_geld.png,images/cb_geld.png,0,,,,,,,,,,,,,,,,,,,,,,
,,,,,,00054,2023-10-10_17h25.52.567,vbt_B2_day2,2022.2.4,Win32,59.88741167,,,,,,,,,,,,,,,,,,,,,,,,,,,down,0,6.719,,-0.033854167,-0.001302083,1,0,0,0.3632,0,103,103,61,1,groen,images/br_groen.png,images/cb_groen.png,0,,,,,,,,,,,,,,,,,,,,,,
,,,,,,00054,2023-10-10_17h25.52.567,vbt_B2_day2,2022.2.4,Win32,59.88741167,,,,,,,,,,,,,,,,,,,,,,,,,,,down,0,7.2057,,-0.01953125,-0.033854167,1,0,0,0.3309,0,104,104,120,1,klimmen,images/br_klimmen.png,images/cb_klimmen.png,0,,,,,,,,,,,,,,,,,,,,,,
,,,,,,00054,2023-10-10_17h25.52.567,vbt_B2_day2,2022.2.4,Win32,59.88741167,,,,,,,,,,,,,,,,,,,,,,,,,,,down,0,3.7833,,-0.205729167,-0.020833333,1,0,0,0.4305,0,105,105,158,1,innemen,images/br_innemen.png,images/cb_innemen.png,0,,,,,,,,,,,,,,,,,,,,,,
,,,,,,00054,2023-10-10_17h25.52.567,vbt_B2_day2,2022.2.4,Win32,59.88741167,,,,,,,,,,,,,,,,,,,,,,,,,,,down,0,1.7272,,-0.213541667,-0.022135417,1,0,0,0.3812,0,106,106,78,1,leren,images/br_leren.png,images/cb_leren.png,0,,,,,,,,,,,,,,,,,,,,,,
,,,,,,00054,2023-10-10_17h25.52.567,vbt_B2_day2,2022.2.4,Win32,59.88741167,,,,,,,,,,,,,,,,,,,,,,,,,,,down,0,4.9344,,0.23828125,-0.02734375,1,0,0,0.383,0,107,107,76,1,afval,images/br_afval.png,images/cb_afval.png,0,,,,,,,,,,,,,,,,,,,,,,
,,,,,,00054,2023-10-10_17h25.52.567,vbt_B2_day2,2022.2.4,Win32,59.88741167,,,,,,,,,,,,,,,,,,,,,,,,,,,down,0,1.227,,-0.052083333,0.014322917,1,0,0,1.1935,0,108,108,22,1,stof,images/br_stof.png,images/cb_stof.png,0,,,,,,,,,,,,,,,,,,,,,,
,,,,,,00054,2023-10-10_17h25.52.567,vbt_B2_day2,2022.2.4,Win32,59.88741167,,,,,,,,,,,,,,,,,,,,,,,,,,,down,0,4.33,,0.07421875,0.0078125,1,0,0,0.4311,0,109,109,142,1,snuiven,images/br_snuiven.png,images/cb_snuiven.png,0,,,,,,,,,,,,,,,,,,,,,,
,,,,,,00054,2023-10-10_17h25.52.567,vbt_B2_day2,2022.2.4,Win32,59.88741167,,,,,,,,,,,,,,,,,,,,,,,,,,,down,0,5.572,,0.165364583,0.013020833,1,0,0,0.2818,0,110,110,31,1,poes,images/br_poes.png,images/cb_poes.png,0,,,,,,,,,,,,,,,,,,,,,,
,,,,,,00054,2023-10-10_17h25.52.567,vbt_B2_day2,2022.2.4,Win32,59.88741167,,,,,,,,,,,,,,,,,,,,,,,,,,,down,0,2.9027,,0.244791667,0.01171875,1,0,0,0.4946,0,111,111,140,1,blijven,images/br_blijven.png,images/cb_blijven.png,0,,,,,,,,,,,,,,,,,,,,,,
,,,,,,00054,2023-10-10_17h25.52.567,vbt_B2_day2,2022.2.4,Win32,59.88741167,,,,,,,,,,,,,,,,,,,,,,,,,,,down,0,6.4846,,0.27734375,-0.01953125,1,0,0,0.4981,0,112,112,100,1,geduld,images/br_geduld.png,images/cb_geduld.png,0,,,,,,,,,,,,,,,,,,,,,,
,,,,,,00054,2023-10-10_17h25.52.567,vbt_B2_day2,2022.2.4,Win32,59.88741167,,,,,,,,,,,,,,,,,,,,,,,,,,,down,0,1.5316,,0.170572917,-0.00390625,1,0,0,0.5468,0,113,113,74,1,graaf,images/br_graaf.png,images/cb_graaf.png,0,,,,,,,,,,,,,,,,,,,,,,
,,,,,,00054,2023-10-10_17h25.52.567,vbt_B2_day2,2022.2.4,Win32,59.88741167,,,,,,,,,,,,,,,,,,,,,,,,,,,down,0,10.8428,,0.240885417,-0.061197917,1,0,0,1.4257,0,114,114,181,1,toegeven,images/br_toegeven.png,images/cb_toegeven.png,0,,,,,,,,,,,,,,,,,,,,,,
,,,,,,00054,2023-10-10_17h25.52.567,vbt_B2_day2,2022.2.4,Win32,59.88741167,,,,,,,,,,,,,,,,,,,,,,,,,,,down,0,3.4517,,-0.01953125,-0.020833333,1,0,0,2.0748,0,115,115,45,1,piste,images/br_piste.png,images/cb_piste.png,0,,,,,,,,,,,,,,,,,,,,,,
,,,,,,00054,2023-10-10_17h25.52.567,vbt_B2_day2,2022.2.4,Win32,59.88741167,,,,,,,,,,,,,,,,,,,,,,,,,,,down,0,6.7901,,0.23046875,-0.01953125,1,0,0,0.3171,0,116,116,191,1,opheffen,images/br_opheffen.png,images/cb_opheffen.png,0,,,,,,,,,,,,,,,,,,,,,,
,,,,,,00054,2023-10-10_17h25.52.567,vbt_B2_day2,2022.2.4,Win32,59.88741167,,,,,,,,,,,,,,,,,,,,,,,,,,,down,0,13.3693,,0.010416667,-0.0078125,1,0,0,0.5797,0,117,117,193,1,weeshuis,images/br_weeshuis.png,images/cb_weeshuis.png,0,,,,,,,,,,,,,,,,,,,,,,
,,,,,,00054,2023-10-10_17h25.52.567,vbt_B2_day2,2022.2.4,Win32,59.88741167,,,,,,,,,,,,,,,,,,,,,,,,,,,down,0,6.3539,,-0.0625,-0.036458333,1,0,0,0.4469,0,118,118,152,1,afnemen,images/br_afnemen.png,images/cb_afnemen.png,0,,,,,,,,,,,,,,,,,,,,,,
,,,,,,00054,2023-10-10_17h25.52.567,vbt_B2_day2,2022.2.4,Win32,59.88741167,,,,,,,,,,,,,,,,,,,,,,,,,,,down,0,10.748,,-0.018229167,-0.005208333,1,0,0,0.7376,0,119,119,97,1,loyaal,images/br_loyaal.png,images/cb_loyaal.png,1,loyaal,,,,,,,,,,,,,,,,,,,,,
,,,,,,00054,2023-10-10_17h25.52.567,vbt_B2_day2,2022.2.4,Win32,59.88741167,,,,,,,,,,,,,,,,,,,,,,,,,,,down,0,6,,0.498697917,-0.092447917,1,0,0,0.3482,0,120,120,182,1,bijkomen,images/br_bijkomen.png,images/cb_bijkomen.png,0,,,,,,,,,,,,,,,,,,,,,,
,,,,,,00054,2023-10-10_17h25.52.567,vbt_B2_day2,2022.2.4,Win32,59.88741167,,,,,,,,,,,,,,,,,,,,,,,,,,,down,0,4.3155,,0.083333333,-0.00390625,1,0,0,0.3629,0,121,121,157,1,uitlaat,images/br_uitlaat.png,images/cb_uitlaat.png,0,,,,,,,,,,,,,,,,,,,,,,
,,,,,,00054,2023-10-10_17h25.52.567,vbt_B2_day2,2022.2.4,Win32,59.88741167,,,,,,,,,,,,,,,,,,,,,,,,,,,down,0,2.2623,,0.30078125,-0.063802083,1,0,0,1.2925,0,122,122,71,1,bever,images/br_bever.png,images/cb_bever.png,0,,,,,,,,,,,,,,,,,,,,,,
,,,,,,00054,2023-10-10_17h25.52.567,vbt_B2_day2,2022.2.4,Win32,59.88741167,,,,,,,,,,,,,,,,,,,,,,,,,,,down,0,2.8734,,0.428385417,-0.036458333,1,0,0,0.3144,0,123,123,146,1,opkomen,images/br_opkomen.png,images/cb_opkomen.png,0,,,,,,,,,,,,,,,,,,,,,,
,,,,,,00054,2023-10-10_17h25.52.567,vbt_B2_day2,2022.2.4,Win32,59.88741167,,,,,,,,,,,,,,,,,,,,,,,,,,,down,0,7.8464,,-0.018229167,-0.028645833,1,0,0,0.6962,0,124,124,173,1,apparaat,images/br_apparaat.png,images/cb_apparaat.png,0,,,,,,,,,,,,,,,,,,,,,,
,,,,,,00054,2023-10-10_17h25.52.567,vbt_B2_day2,2022.2.4,Win32,59.88741167,,,,,,,,,,,,,,,,,,,,,,,,,,,down,0,3.8107,,0.0625,-0.029947917,1,0,0,0.3813,0,125,125,15,1,soda,images/br_soda.png,images/cb_soda.png,0,,,,,,,,,,,,,,,,,,,,,,
,,,,,,00054,2023-10-10_17h25.52.567,vbt_B2_day2,2022.2.4,Win32,59.88741167,,,,,,,,,,,,,,,,,,,,,,,,,,,down,0,0.947,,0.34765625,-0.002604167,1,0,0,0.2981,0,126,126,42,1,bleek,images/br_bleek.png,images/cb_bleek.png,0,,,,,,,,,,,,,,,,,,,,,,
,,,,,,00054,2023-10-10_17h25.52.567,vbt_B2_day2,2022.2.4,Win32,59.88741167,,,,,,,,,,,,,,,,,,,,,,,,,,,down,0,10.8248,,0.069010417,-0.03515625,1,0,0,0.6636,0,127,127,108,1,excuus,images/br_excuus.png,images/cb_excuus.png,0,,,,,,,,,,,,,,,,,,,,,,
,,,,,,00054,2023-10-10_17h25.52.567,vbt_B2_day2,2022.2.4,Win32,59.88741167,,,,,,,,,,,,,,,,,,,,,,,,,,,down,0,0.84,,0.046875,-0.03125,1,0,0,0.3992,0,128,128,29,1,baas,images/br_baas.png,images/cb_baas.png,0,,,,,,,,,,,,,,,,,,,,,,
,,,,,,00054,2023-10-10_17h25.52.567,vbt_B2_day2,2022.2.4,Win32,59.88741167,,,,,,,,,,,,,,,,,,,,,,,,,,,down,0,1.6579,,0.018229167,-0.026041667,1,0,0,0.2482,0,129,129,121,1,twijfel,images/br_twijfel.png,images/cb_twijfel.png,0,,,,,,,,,,,,,,,,,,,,,,
,,,,,,00054,2023-10-10_17h25.52.567,vbt_B2_day2,2022.2.4,Win32,59.88741167,,,,,,,,,,,,,,,,,,,,,,,,,,,down,0,4.1594,,0.182291667,-0.069010417,1,0,0,0.2508,0,130,130,199,1,beseffen,images/br_beseffen.png,images/cb_beseffen.png,0,,,,,,,,,,,,,,,,,,,,,,
,,,,,,00054,2023-10-10_17h25.52.567,vbt_B2_day2,2022.2.4,Win32,59.88741167,,,,,,,,,,,,,,,,,,,,,,,,,,,down,0,2.605,,0.234375,-0.026041667,1,0,0,0.265,0,131,131,148,1,smullen,images/br_smullen.png,images/cb_smullen.png,0,,,,,,,,,,,,,,,,,,,,,,
,,,,,,00054,2023-10-10_17h25.52.567,vbt_B2_day2,2022.2.4,Win32,59.88741167,,,,,,,,,,,,,,,,,,,,,,,,,,,down,0,2.6895,,0.19140625,-0.079427083,1,0,0,0.6129,0,132,132,106,1,zingen,images/br_zingen.png,images/cb_zingen.png,0,,,,,,,,,,,,,,,,,,,,,,
,,,,,,00054,2023-10-10_17h25.52.567,vbt_B2_day2,2022.2.4,Win32,59.88741167,,,,,,,,,,,,,,,,,,,,,,,,,,,down,0,10.0287,,0.049479167,-0.087239583,1,0,0,0.3778,0,133,133,123,1,hiervan,images/br_hiervan.png,images/cb_hiervan.png,0,,,,,,,,,,,,,,,,,,,,,,
,,,,,,00054,2023-10-10_17h25.52.567,vbt_B2_day2,2022.2.4,Win32,59.88741167,,,,,,,,,,,,,,,,,,,,,,,,,,,down,0,1.6105,,0.516927083,-0.09375,1,0,0,0.8955,0,134,134,125,1,aanzien,images/br_aanzien.png,images/cb_aanzien.png,0,,,,,,,,,,,,,,,,,,,,,,
,,,,,,00054,2023-10-10_17h25.52.567,vbt_B2_day2,2022.2.4,Win32,59.88741167,,,,,,,,,,,,,,,,,,,,,,,,,,,down,0,5.7239,,0.216145833,-0.0703125,1,0,0,0.4091,0,135,135,40,1,schep,images/br_schep.png,images/cb_schep.png,0,,,,,,,,,,,,,,,,,,,,,,
,,,,,,00054,2023-10-10_17h25.52.567,vbt_B2_day2,2022.2.4,Win32,59.88741167,,,,,,,,,,,,,,,,,,,,,,,,,,,down,0,2.0223,,0.240885417,-0.05859375,1,0,0,0.381,0,136,136,189,1,aanraden,images/br_aanraden.png,images/cb_aanraden.png,0,,,,,,,,,,,,,,,,,,,,,,
,,,,,,00054,2023-10-10_17h25.52.567,vbt_B2_day2,2022.2.4,Win32,59.88741167,,,,,,,,,,,,,,,,,,,,,,,,,,,down,0,7.414,,0.23046875,-0.079427083,1,0,0,0.6923,0,137,137,16,1,ziek,images/br_ziek.png,images/cb_ziek.png,1,ziek,,,,,,,,,,,,,,,,,,,,,
,,,,,,00054,2023-10-10_17h25.52.567,vbt_B2_day2,2022.2.4,Win32,59.88741167,,,,,,,,,,,,,,,,,,,,,,,,,,,down,0,7.0994,,0.12890625,-0.044270833,1,0,0,0.4653,0,138,138,166,1,strikken,images/br_strikken.png,images/cb_strikken.png,0,,,,,,,,,,,,,,,,,,,,,,
,,,,,,00054,2023-10-10_17h25.52.567,vbt_B2_day2,2022.2.4,Win32,59.88741167,,,,,,,,,,,,,,,,,,,,,,,,,,,down,0,2.1221,,0.125,-0.03125,1,0,0,0.3152,0,139,139,21,1,mist,images/br_mist.png,images/cb_mist.png,0,,,,,,,,,,,,,,,,,,,,,,
,,,,,,00054,2023-10-10_17h25.52.567,vbt_B2_day2,2022.2.4,Win32,59.88741167,,,,,,,,,,,,,,,,,,,,,,,,,,,down,0,3.802,,0.286458333,-0.075520833,1,0,0,0.4293,0,140,140,66,1,lever,images/br_lever.png,images/cb_lever.png,0,,,,,,,,,,,,,,,,,,,,,,
,,,,,,00054,2023-10-10_17h25.52.567,vbt_B2_day2,2022.2.4,Win32,59.88741167,,,,,,,,,,,,,,,,,,,,,,,,,,,down,0,2.4274,,0.274739583,-0.111979167,1,0,0,0.6367,0,141,141,50,1,stoom,images/br_stoom.png,images/cb_stoom.png,0,,,,,,,,,,,,,,,,,,,,,,
,,,,,,00054,2023-10-10_17h25.52.567,vbt_B2_day2,2022.2.4,Win32,59.88741167,,,,,,,,,,,,,,,,,,,,,,,,,,,down,0,13.9421,,0.319010417,-0.076822917,1,0,0,0.8121,0,142,142,94,1,oceaan,images/br_oceaan.png,images/cb_oceaan.png,0,,,,,,,,,,,,,,,,,,,,,,
,,,,,,00054,2023-10-10_17h25.52.567,vbt_B2_day2,2022.2.4,Win32,59.88741167,,,,,,,,,,,,,,,,,,,,,,,,,,,down,0,14.4894,,0.25390625,-0.015625,1,0,0,0.8123,0,143,143,178,1,huisdier,images/br_huisdier.png,images/cb_huisdier.png,1,huisdier,,,,,,,,,,,,,,,,,,,,,
,,,,,,00054,2023-10-10_17h25.52.567,vbt_B2_day2,2022.2.4,Win32,59.88741167,,,,,,,,,,,,,,,,,,,,,,,,,,,down,0,7.9621,,-0.071614583,0.061197917,1,0,0,0.604,0,144,144,56,1,traag,images/br_traag.png,images/cb_traag.png,1,traag,,,,,,,,,,,,,,,,,,,,,
,,,,,,00054,2023-10-10_17h25.52.567,vbt_B2_day2,2022.2.4,Win32,59.88741167,,,,,,,,,,,,,,,,,,,,,,,,,,,down,0,6.2868,,0.3828125,-0.041666667,1,0,0,0.5712,0,145,145,64,1,wegen,images/br_wegen.png,images/cb_wegen.png,0,,,,,,,,,,,,,,,,,,,,,,
,,,,,,00054,2023-10-10_17h25.52.567,vbt_B2_day2,2022.2.4,Win32,59.88741167,,,,,,,,,,,,,,,,,,,,,,,,,,,down,0,5.0915,,0.338541667,0,1,0,0,0.7293,0,146,146,59,1,kring,images/br_kring.png,images/cb_kring.png,1,kring,,,,,,,,,,,,,,,,,,,,,
,,,,,,00054,2023-10-10_17h25.52.567,vbt_B2_day2,2022.2.4,Win32,59.88741167,,,,,,,,,,,,,,,,,,,,,,,,,,,down,0,3.0874,,0.158854167,0.0078125,1,0,0,0.4472,0,147,147,11,1,mode,images/br_mode.png,images/cb_mode.png,0,,,,,,,,,,,,,,,,,,,,,,
,,,,,,00054,2023-10-10_17h25.52.567,vbt_B2_day2,2022.2.4,Win32,59.88741167,,,,,,,,,,,,,,,,,,,,,,,,,,,down,0,1.9926,,0.24609375,0.040364583,1,0,0,0.2155,0,148,148,115,1,kleren,images/br_kleren.png,images/cb_kleren.png,0,,,,,,,,,,,,,,,,,,,,,,
,,,,,,00054,2023-10-10_17h25.52.567,vbt_B2_day2,2022.2.4,Win32,59.88741167,,,,,,,,,,,,,,,,,,,,,,,,,,,down,0,0.6636,,0.303385417,0.01953125,1,0,0,0.1998,0,149,149,48,1,steel,images/br_steel.png,images/cb_steel.png,0,,,,,,,,,,,,,,,,,,,,,,
,,,,,,00054,2023-10-10_17h25.52.567,vbt_B2_day2,2022.2.4,Win32,59.88741167,,,,,,,,,,,,,,,,,,,,,,,,,,,down,0,6.7295,,0.21875,0.057291667,1,0,0,0.2131,0,150,150,172,1,weigeren,images/br_weigeren.png,images/cb_weigeren.png,0,,,,,,,,,,,,,,,,,,,,,,
,,,,,,00054,2023-10-10_17h25.52.567,vbt_B2_day2,2022.2.4,Win32,59.88741167,,,,,,,,,,,,,,,,,,,,,,,,,,,down,0,12.025,,0.200520833,0.098958333,1,0,0,0.6632,0,151,151,54,1,gebit,images/br_gebit.png,images/cb_gebit.png,0,,,,,,,,,,,,,,,,,,,,,,
,,,,,,00054,2023-10-10_17h25.52.567,vbt_B2_day2,2022.2.4,Win32,59.88741167,,,,,,,,,,,,,,,,,,,,,,,,,,,down,0,2.8865,,0.145833333,0.071614583,1,0,0,0.5308,0,152,152,38,1,baai,images/br_baai.png,images/cb_baai.png,0,,,,,,,,,,,,,,,,,,,,,,
,,,,,,00054,2023-10-10_17h25.52.567,vbt_B2_day2,2022.2.4,Win32,59.88741167,,,,,,,,,,,,,,,,,,,,,,,,,,,down,0,17.2603,,0.31640625,0.033854167,1,0,0,0.6453,0,153,153,177,1,maaltijd,images/br_maaltijd.png,images/cb_maaltijd.png,1,maaltijd,,,,,,,,,,,,,,,,,,,,,
,,,,,,00054,2023-10-10_17h25.52.567,vbt_B2_day2,2022.2.4,Win32,59.88741167,,,,,,,,,,,,,,,,,,,,,,,,,,,down,0,2.9026,,0.397135417,-0.053385417,1,0,0,0.4143,0,154,154,27,1,dans,images/br_dans.png,images/cb_dans.png,0,,,,,,,,,,,,,,,,,,,,,,
,,,,,,00054,2023-10-10_17h25.52.567,vbt_B2_day2,2022.2.4,Win32,59.88741167,,,,,,,,,,,,,,,,,,,,,,,,,,,down,0,1.4514,,0.28515625,-0.00390625,1,0,0,0.2466,0,155,155,51,1,samen,images/br_samen.png,images/cb_samen.png,0,,,,,,,,,,,,,,,,,,,,,,
,,,,,,00054,2023-10-10_17h25.52.567,vbt_B2_day2,2022.2.4,Win32,59.88741167,,,,,,,,,,,,,,,,,,,,,,,,,,,down,0,4.7422,,0.088541667,-0.002604167,1,0,0,0.2322,0,156,156,81,1,dubbel,images/br_dubbel.png,images/cb_dubbel.png,0,,,,,,,,,,,,,,,,,,,,,,
,,,,,,00054,2023-10-10_17h25.52.567,vbt_B2_day2,2022.2.4,Win32,59.88741167,,,,,,,,,,,,,,,,,,,,,,,,,,,down,0,7.9322,,0.337239583,-0.01953125,1,0,0,0.3461,0,157,157,185,1,mijnheer,images/br_mijnheer.png,images/cb_mijnheer.png,0,,,,,,,,,,,,,,,,,,,,,,
,,,,,,00054,2023-10-10_17h25.52.567,vbt_B2_day2,2022.2.4,Win32,59.88741167,,,,,,,,,,,,,,,,,,,,,,,,,,,down,0,2.0421,,0.287760417,-0.044270833,1,0,0,0.2135,0,158,158,126,1,kasteel,images/br_kasteel.png,images/cb_kasteel.png,0,,,,,,,,,,,,,,,,,,,,,,
,,,,,,00054,2023-10-10_17h25.52.567,vbt_B2_day2,2022.2.4,Win32,59.88741167,,,,,,,,,,,,,,,,,,,,,,,,,,,down,0,4.7602,,0.102864583,-0.036458333,1,0,0,0.2491,0,159,159,69,1,waken,images/br_waken.png,images/cb_waken.png,0,,,,,,,,,,,,,,,,,,,,,,
,,,,,,00054,2023-10-10_17h25.52.567,vbt_B2_day2,2022.2.4,Win32,59.88741167,,,,,,,,,,,,,,,,,,,,,,,,,,,down,0,3.1246,,0.15625,-0.033854167,1,0,0,0.5708,0,160,160,17,1,taal,images/br_taal.png,images/cb_taal.png,1,taal,,,,,,,,,,,,,,,,,,,,,
,,,,,,00054,2023-10-10_17h25.52.567,vbt_B2_day2,2022.2.4,Win32,59.88741167,,,,,,,,,,,,,,,,,,,,,,,,,,,down,0,2.0808,,-0.061197917,-0.010416667,1,0,0,0.4147,0,161,161,83,1,mening,images/br_mening.png,images/cb_mening.png,0,,,,,,,,,,,,,,,,,,,,,,
,,,,,,00054,2023-10-10_17h25.52.567,vbt_B2_day2,2022.2.4,Win32,59.88741167,,,,,,,,,,,,,,,,,,,,,,,,,,,down,0,1.3701,,-0.080729167,0.0078125,1,0,0,0.301,0,162,162,33,1,vlek,images/br_vlek.png,images/cb_vlek.png,0,,,,,,,,,,,,,,,,,,,,,,
,,,,,,00054,2023-10-10_17h25.52.567,vbt_B2_day2,2022.2.4,Win32,59.88741167,,,,,,,,,,,,,,,,,,,,,,,,,,,down,0,10.2448,,0.17578125,-0.018229167,1,0,0,0.6323,0,163,163,143,1,hechten,images/br_hechten.png,images/cb_hechten.png,0,,,,,,,,,,,,,,,,,,,,,,
,,,,,,00054,2023-10-10_17h25.52.567,vbt_B2_day2,2022.2.4,Win32,59.88741167,,,,,,,,,,,,,,,,,,,,,,,,,,,down,0,2.0757,,-0.139322917,-0.00390625,1,0,0,0.3646,0,164,164,91,1,gezond,images/br_gezond.png,images/cb_gezond.png,0,,,,,,,,,,,,,,,,,,,,,,
,,,,,,00054,2023-10-10_17h25.52.567,vbt_B2_day2,2022.2.4,Win32,59.88741167,,,,,,,,,,,,,,,,,,,,,,,,,,,down,0,4.218,,-0.18359375,-0.0390625,1,0,0,0.2228,0,165,165,90,1,geluid,images/br_geluid.png,images/cb_geluid.png,0,,,,,,,,,,,,,,,,,,,,,,
,,,,,,00054,2023-10-10_17h25.52.567,vbt_B2_day2,2022.2.4,Win32,59.88741167,,,,,,,,,,,,,,,,,,,,,,,,,,,down,0,7.5996,,-0.190104167,-0.045572917,1,0,0,1.3089,0,166,166,159,1,sufferd,images/br_sufferd.png,images/cb_sufferd.png,0,,,,,,,,,,,,,,,,,,,,,,
,,,,,,00054,2023-10-10_17h25.52.567,vbt_B2_day2,2022.2.4,Win32,59.88741167,,,,,,,,,,,,,,,,,,,,,,,,,,,down,0,13.0673,,0.03515625,0.006510417,1,0,0,0.5806,0,167,167,99,1,koffie,images/br_koffie.png,images/cb_koffie.png,1,koffie,,,,,,,,,,,,,,,,,,,,,
,,,,,,00054,2023-10-10_17h25.52.567,vbt_B2_day2,2022.2.4,Win32,59.88741167,,,,,,,,,,,,,,,,,,,,,,,,,,,down,0,20.878,,0.0625,-0.016927083,1,0,0,0.613,0,168,168,111,1,ticket,images/br_ticket.png,images/cb_ticket.png,0,,,,,,,,,,,,,,,,,,,,,,
,,,,,,00054,2023-10-10_17h25.52.567,vbt_B2_day2,2022.2.4,Win32,59.88741167,,,,,,,,,,,,,,,,,,,,,,,,,,,down,0,3.9784,,0.145833333,0.045572917,1,0,0,0.3481,0,169,169,55,1,praat,images/br_praat.png,images/cb_praat.png,0,,,,,,,,,,,,,,,,,,,,,,
,,,,,,00054,2023-10-10_17h25.52.567,vbt_B2_day2,2022.2.4,Win32,59.88741167,,,,,,,,,,,,,,,,,,,,,,,,,,,down,0,10.2036,,0.158854167,-0.01953125,1,0,0,0.3811,0,170,170,187,1,opkijken,images/br_opkijken.png,images/cb_opkijken.png,0,,,,,,,,,,,,,,,,,,,,,,
,,,,,,00054,2023-10-10_17h25.52.567,vbt_B2_day2,2022.2.4,Win32,59.88741167,,,,,,,,,,,,,,,,,,,,,,,,,,,down,0,5.1798,,0.22265625,0.015625,1,0,0,0.3125,0,171,171,70,1,ijdel,images/br_ijdel.png,images/cb_ijdel.png,0,,,,,,,,,,,,,,,,,,,,,,
,,,,,,00054,2023-10-10_17h25.52.567,vbt_B2_day2,2022.2.4,Win32,59.88741167,,,,,,,,,,,,,,,,,,,,,,,,,,,down,0,7.1177,,0.412760417,-0.001302083,1,0,0,0.4297,0,172,172,190,1,goedkoop,images/br_goedkoop.png,images/cb_goedkoop.png,0,,,,,,,,,,,,,,,,,,,,,,
,,,,,,00054,2023-10-10_17h25.52.567,vbt_B2_day2,2022.2.4,Win32,59.88741167,,,,,,,,,,,,,,,,,,,,,,,,,,,down,0,5.8707,,0.243489583,-0.0078125,1,0,0,0.3493,0,173,173,122,1,waarvan,images/br_waarvan.png,images/cb_waarvan.png,0,,,,,,,,,,,,,,,,,,,,,,
,,,,,,00054,2023-10-10_17h25.52.567,vbt_B2_day2,2022.2.4,Win32,59.88741167,,,,,,,,,,,,,,,,,,,,,,,,,,,down,0,8.0097,,0.39453125,-0.009114583,1,0,0,0.5302,0,174,174,93,1,waarop,images/br_waarop.png,images/cb_waarop.png,0,,,,,,,,,,,,,,,,,,,,,,
,,,,,,00054,2023-10-10_17h25.52.567,vbt_B2_day2,2022.2.4,Win32,59.88741167,,,,,,,,,,,,,,,,,,,,,,,,,,,down,0,1.4437,,0.317708333,0.013020833,1,0,0,0.6134,0,175,175,79,1,nodig,images/br_nodig.png,images/cb_nodig.png,0,,,,,,,,,,,,,,,,,,,,,,
,,,,,,00054,2023-10-10_17h25.52.567,vbt_B2_day2,2022.2.4,Win32,59.88741167,,,,,,,,,,,,,,,,,,,,,,,,,,,down,0,6.6326,,0.3671875,0.026041667,1,0,0,0.3334,0,176,176,44,1,flits,images/br_flits.png,images/cb_flits.png,0,,,,,,,,,,,,,,,,,,,,,,
,,,,,,00054,2023-10-10_17h25.52.567,vbt_B2_day2,2022.2.4,Win32,59.88741167,,,,,,,,,,,,,,,,,,,,,,,,,,,down,0,13.1914,,0.315104167,0.015625,1,0,0,4.0949,0,177,177,67,1,zwart,images/br_zwart.png,images/cb_zwart.png,0,,,,,,,,,,,,,,,,,,,,,,
,,,,,,00054,2023-10-10_17h25.52.567,vbt_B2_day2,2022.2.4,Win32,59.88741167,,,,,,,,,,,,,,,,,,,,,,,,,,,down,0,2.0091,,-0.024739583,0.09375,1,0,0,2.7589,0,178,178,3,1,mand,images/br_mand.png,images/cb_mand.png,0,,,,,,,,,,,,,,,,,,,,,,
,,,,,,00054,2023-10-10_17h25.52.567,vbt_B2_day2,2022.2.4,Win32,59.88741167,,,,,,,,,,,,,,,,,,,,,,,,,,,down,0,15.4347,,0.19921875,-0.01171875,1,0,0,1.6678,0,179,179,161,1,attentie,images/br_attentie.png,images/cb_attentie.png,0,,,,,,,,,,,,,,,,,,,,,,
,,,,,,00054,2023-10-10_17h25.52.567,vbt_B2_day2,2022.2.4,Win32,59.88741167,,,,,,,,,,,,,,,,,,,,,,,,,,,down,0,9.4519,,0.268229167,-0.052083333,1,0,0,0.4478,0,180,180,86,1,woning,images/br_woning.png,images/cb_woning.png,0,,,,,,,,,,,,,,,,,,,,,,
,,,,,,00054,2023-10-10_17h25.52.567,vbt_B2_day2,2022.2.4,Win32,59.88741167,,,,,,,,,,,,,,,,,,,,,,,,,,,down,0,3.7977,,0.151041667,-0.036458333,1,0,0,0.2982,0,181,181,145,1,invloed,images/br_invloed.png,images/cb_invloed.png,0,,,,,,,,,,,,,,,,,,,,,,
,,,,,,00054,2023-10-10_17h25.52.567,vbt_B2_day2,2022.2.4,Win32,59.88741167,,,,,,,,,,,,,,,,,,,,,,,,,,,down,0,0.8307,,-0.071614583,-0.0234375,1,0,0,0.3654,0,182,182,2,1,jaar,images/br_jaar.png,images/cb_jaar.png,0,,,,,,,,,,,,,,,,,,,,,,
,,,,,,00054,2023-10-10_17h25.52.567,vbt_B2_day2,2022.2.4,Win32,59.88741167,,,,,,,,,,,,,,,,,,,,,,,,,,,down,0,0.9812,,0.059895833,-0.01171875,1,0,0,0.2818,0,183,183,103,1,joggen,images/br_joggen.png,images/cb_joggen.png,0,,,,,,,,,,,,,,,,,,,,,,
,,,,,,00054,2023-10-10_17h25.52.567,vbt_B2_day2,2022.2.4,Win32,59.88741167,,,,,,,,,,,,,,,,,,,,,,,,,,,down,0,1.1995,,-0.15625,-0.044270833,1,0,0,0.2817,0,184,184,109,1,totaal,images/br_totaal.png,images/cb_totaal.png,0,,,,,,,,,,,,,,,,,,,,,,
,,,,,,00054,2023-10-10_17h25.52.567,vbt_B2_day2,2022.2.4,Win32,59.88741167,,,,,,,,,,,,,,,,,,,,,,,,,,,down,0,7.2981,,-0.157552083,-0.0703125,1,0,0,0.8994,0,185,185,98,1,kreeft,images/br_kreeft.png,images/cb_kreeft.png,1,kreeft,,,,,,,,,,,,,,,,,,,,,
,,,,,,00054,2023-10-10_17h25.52.567,vbt_B2_day2,2022.2.4,Win32,59.88741167,,,,,,,,,,,,,,,,,,,,,,,,,,,down,0,5.3557,,-0.104166667,-0.057291667,1,0,0,1.094,0,186,186,19,1,geit,images/br_geit.png,images/cb_geit.png,1,geit,,,,,,,,,,,,,,,,,,,,,
,,,,,,00054,2023-10-10_17h25.52.567,vbt_B2_day2,2022.2.4,Win32,59.88741167,,,,,,,,,,,,,,,,,,,,,,,,,,,down,0,4.0301,,-0.096354167,-0.059895833,1,0,0,0.8288,0,187,187,114,1,vullen,images/br_vullen.png,images/cb_vullen.png,0,,,,,,,,,,,,,,,,,,,,,,
,,,,,,00054,2023-10-10_17h25.52.567,vbt_B2_day2,2022.2.4,Win32,59.88741167,,,,,,,,,,,,,,,,,,,,,,,,,,,down,0,12.1373,,0.161458333,-0.014322917,1,0,0,1.3268,0,188,188,134,1,geliefd,images/br_geliefd.png,images/cb_geliefd.png,0,,,,,,,,,,,,,,,,,,,,,,
,,,,,,00054,2023-10-10_17h25.52.567,vbt_B2_day2,2022.2.4,Win32,59.88741167,,,,,,,,,,,,,,,,,,,,,,,,,,,down,0,6.9321,,0.096354167,-0.020833333,1,0,0,0.3825,0,189,189,150,1,gegeven,images/br_gegeven.png,images/cb_gegeven.png,0,,,,,,,,,,,,,,,,,,,,,,
,,,,,,00054,2023-10-10_17h25.52.567,vbt_B2_day2,2022.2.4,Win32,59.88741167,,,,,,,,,,,,,,,,,,,,,,,,,,,down,0,4.5609,,0.28125,0.00390625,1,0,0,0.3318,0,190,190,127,1,doodmoe,images/br_doodmoe.png,images/cb_doodmoe.png,0,,,,,,,,,,,,,,,,,,,,,,
,,,,,,00054,2023-10-10_17h25.52.567,vbt_B2_day2,2022.2.4,Win32,59.88741167,,,,,,,,,,,,,,,,,,,,,,,,,,,down,0,0.4706,,0.26953125,-0.009114583,1,0,0,0.3988,0,191,191,1,1,zaal,images/br_zaal.png,images/cb_zaal.png,0,,,,,,,,,,,,,,,,,,,,,,
,,,,,,00054,2023-10-10_17h25.52.567,vbt_B2_day2,2022.2.4,Win32,59.88741167,,,,,,,,,,,,,,,,,,,,,,,,,,,down,0,1.7934,,0.26171875,0.01171875,1,0,0,0.3463,0,192,192,184,1,aandelen,images/br_aandelen.png,images/cb_aandelen.png,0,,,,,,,,,,,,,,,,,,,,,,
,,,,,,00054,2023-10-10_17h25.52.567,vbt_B2_day2,2022.2.4,Win32,59.88741167,,,,,,,,,,,,,,,,,,,,,,,,,,,down,0,2.174,,0.173177083,0.024739583,1,0,0,0.2656,0,193,193,82,1,muziek,images/br_muziek.png,images/cb_muziek.png,0,,,,,,,,,,,,,,,,,,,,,,
,,,,,,00054,2023-10-10_17h25.52.567,vbt_B2_day2,2022.2.4,Win32,59.88741167,,,,,,,,,,,,,,,,,,,,,,,,,,,down,0,1.9789,,0.35546875,0.01171875,1,0,0,0.4622,0,194,194,196,1,nakijken,images/br_nakijken.png,images/cb_nakijken.png,0,,,,,,,,,,,,,,,,,,,,,,
,,,,,,00054,2023-10-10_17h25.52.567,vbt_B2_day2,2022.2.4,Win32,59.88741167,,,,,,,,,,,,,,,,,,,,,,,,,,,down,0,9.584,,0.16015625,-0.03125,1,0,0,0.248,0,195,195,118,1,vinger,images/br_vinger.png,images/cb_vinger.png,0,,,,,,,,,,,,,,,,,,,,,,
,,,,,,00054,2023-10-10_17h25.52.567,vbt_B2_day2,2022.2.4,Win32,59.88741167,,,,,,,,,,,,,,,,,,,,,,,,,,,down,0,3.0855,,0.078125,0.01171875,1,0,0,0.4482,0,196,196,72,1,strak,images/br_strak.png,images/cb_strak.png,0,,,,,,,,,,,,,,,,,,,,,,
,,,,,,00054,2023-10-10_17h25.52.567,vbt_B2_day2,2022.2.4,Win32,59.88741167,,,,,,,,,,,,,,,,,,,,,,,,,,,down,0,8.824,,0.002604167,-0.005208333,1,0,0,0.4144,0,197,197,174,1,stemming,images/br_stemming.png,images/cb_stemming.png,0,,,,,,,,,,,,,,,,,,,,,,
,,,,,,00054,2023-10-10_17h25.52.567,vbt_B2_day2,2022.2.4,Win32,59.88741167,,,,,,,,,,,,,,,,,,,,,,,,,,,down,0,5.2667,,0.005208333,-0.005208333,1,0,0,0.3991,0,198,198,110,1,zuster,images/br_zuster.png,images/cb_zuster.png,0,,,,,,,,,,,,,,,,,,,,,,
,,,,,,00054,2023-10-10_17h25.52.567,vbt_B2_day2,2022.2.4,Win32,59.88741167,,,,,,,,,,,,,,,,,,,,,,,,,,,down,0,3.6491,,0.1875,-0.022135417,1,0,0,1.3444,0,199,199,62,1,knaap,images/br_knaap.png,images/cb_knaap.png,0,,,,,,,,,,,,,,,,,,,,,,
,,,,,,00054,2023-10-10_17h25.52.567,vbt_B2_day2,2022.2.4,Win32,59.88741167,,,,,,,,,,,,,,,,,,,,,,,,,,,,,,,,,,,,,,,,,,,,,,,0.130208333,0.0078125,1,0,0,,,,,,,,,,,,,,,,
,,,,,,00054,2023-10-10_17h25.52.567,vbt_B2_day2,2022.2.4,Win32,59.88741167,,,,,,,,,,,,,,,,,,,,,,,,,,,,,,,,,,,,,,,,,,,,,,,,,,,,0.088541667,0.001302083,1,0,0,,,,,,,,,,,
,,,,,,00054,2023-10-10_17h25.52.567,vbt_B2_day2,2022.2.4,Win32,59.88741167,,,,,,,,,,,,,,,,,,,,,,,,,,,,,,,,,,,,,,,,,,lurgen,images/br_lurgen.png,images/cb_lurgen.png,,lurgen,,,,,,,,,,,0.28125,-0.119791667,1,0,0,lurgen,0,0,0,29,1
,,,,,,00054,2023-10-10_17h25.52.567,vbt_B2_day2,2022.2.4,Win32,59.88741167,,,,,,,,,,,,,,,,,,,,,,,,,,,,,,,,,,,,,,,,,,zwager,images/br_zwager.png,images/cb_zwager.png,,zwar...,,,,,,,,,,,0.075520833,-0.0703125,1,0,0,zwar...,0,1,1,49,1
,,,,,,00054,2023-10-10_17h25.52.567,vbt_B2_day2,2022.2.4,Win32,59.88741167,,,,,,,,,,,,,,,,,,,,,,,,,,,,,,,,,,,,,,,,,,piste,images/br_piste.png,images/cb_piste.png,,piste,,,,,,,,,,,0.014322917,-0.21484375,1,0,0,piste,0,2,2,5,1
,,,,,,00054,2023-10-10_17h25.52.567,vbt_B2_day2,2022.2.4,Win32,59.88741167,,,,,,,,,,,,,,,,,,,,,,,,,,,,,,,,,,,,,,,,,,geld,images/br_geld.png,images/cb_geld.png,,geld,,,,,,,,,,,0.4765625,-0.11328125,1,0,0,geld,0,3,3,3,1
,,,,,,00054,2023-10-10_17h25.52.567,vbt_B2_day2,2022.2.4,Win32,59.88741167,,,,,,,,,,,,,,,,,,,,,,,,,,,,,,,,,,,,,,,,,,trots,images/br_trots.png,images/cb_trots.png,,trots,,,,,,,,,,,0.533854167,-0.184895833,1,0,0,trots,0,4,4,44,1
,,,,,,00054,2023-10-10_17h25.52.567,vbt_B2_day2,2022.2.4,Win32,59.88741167,,,,,,,,,,,,,,,,,,,,,,,,,,,,,,,,,,,,,,,,,,agressie,images/br_agressie.png,images/cb_agressie.png,,achtss...,,,,,,,,,,,0.516927083,-0.178385417,1,0,0,achtss...,0,5,5,59,1
,,,,,,00054,2023-10-10_17h25.52.567,vbt_B2_day2,2022.2.4,Win32,59.88741167,,,,,,,,,,,,,,,,,,,,,,,,,,,,,,,,,,,,,,,,,,clan,images/br_clan.png,images/cb_clan.png,,sc.aan,,,,,,,,,,,0.424479167,-0.221354167,1,0,0,sc.aan,0,6,6,40,1
,,,,,,00054,2023-10-10_17h25.52.567,vbt_B2_day2,2022.2.4,Win32,59.88741167,,,,,,,,,,,,,,,,,,,,,,,,,,,,,,,,,,,,,,,,,,eenhoorn,images/br_eenhoorn.png,images/cb_eenhoorn.png,,eenhoorn,,,,,,,,,,,0.552083333,-0.385416667,1,0,0,eenhoorn,0,7,7,19,1
,,,,,,00054,2023-10-10_17h25.52.567,vbt_B2_day2,2022.2.4,Win32,59.88741167,,,,,,,,,,,,,,,,,,,,,,,,,,,,,,,,,,,,,,,,,,remel,images/br_remel.png,images/cb_remel.png,,hemel,,,,,,,,,,,0.7109375,-0.395833333,1,0,0,hemel,0,8,8,25,1
,,,,,,00054,2023-10-10_17h25.52.567,vbt_B2_day2,2022.2.4,Win32,59.88741167,,,,,,,,,,,,,,,,,,,,,,,,,,,,,,,,,,,,,,,,,,strikken,images/br_strikken.png,images/cb_strikken.png,,stri...,,,,,,,,,,,0.537760417,-0.330729167,1,0,0,stri...,0,9,9,18,1
,,,,,,00054,2023-10-10_17h25.52.567,vbt_B2_day2,2022.2.4,Win32,59.88741167,,,,,,,,,,,,,,,,,,,,,,,,,,,,,,,,,,,,,,,,,,zomers,images/br_zomers.png,images/cb_zomers.png,,zomers,,,,,,,,,,,0.716145833,-0.345052083,1,0,0,zomers,0,10,10,48,1
,,,,,,00054,2023-10-10_17h25.52.567,vbt_B2_day2,2022.2.4,Win32,59.88741167,,,,,,,,,,,,,,,,,,,,,,,,,,,,,,,,,,,,,,,,,,diep,images/br_diep.png,images/cb_diep.png,,diep,,,,,,,,,,,0.53125,-0.178385417,1,0,0,diep,0,11,11,2,1
,,,,,,00054,2023-10-10_17h25.52.567,vbt_B2_day2,2022.2.4,Win32,59.88741167,,,,,,,,,,,,,,,,,,,,,,,,,,,,,,,,,,,,,,,,,,toeval,images/br_toeval.png,images/cb_toeval.png,,toeval,,,,,,,,,,,0.359375,-0.114583333,1,0,0,toeval,0,12,12,11,1
,,,,,,00054,2023-10-10_17h25.52.567,vbt_B2_day2,2022.2.4,Win32,59.88741167,,,,,,,,,,,,,,,,,,,,,,,,,,,,,,,,,,,,,,,,,,bloeien,images/br_bloeien.png,images/cb_bloeien.png,,bloeien,,,,,,,,,,,0.546875,-0.1875,1,0,0,bloeien,0,13,13,12,1
,,,,,,00054,2023-10-10_17h25.52.567,vbt_B2_day2,2022.2.4,Win32,59.88741167,,,,,,,,,,,,,,,,,,,,,,,,,,,,,,,,,,,,,,,,,,welzijn,images/br_welzijn.png,images/cb_welzijn.png,,welzijn,,,,,,,,,,,0.377604167,-0.212239583,1,0,0,welzijn,0,14,14,52,1
,,,,,,00054,2023-10-10_17h25.52.567,vbt_B2_day2,2022.2.4,Win32,59.88741167,,,,,,,,,,,,,,,,,,,,,,,,,,,,,,,,,,,,,,,,,,tand,images/br_tand.png,images/cb_tand.png,,tand,,,,,,,,,,,0.393229167,-0.1640625,1,0,0,tand,0,15,15,42,1
,,,,,,00054,2023-10-10_17h25.52.567,vbt_B2_day2,2022.2.4,Win32,59.88741167,,,,,,,,,,,,,,,,,,,,,,,,,,,,,,,,,,,,,,,,,,joes,images/br_joes.png,images/cb_joes.png,,joes,,,,,,,,,,,0.4140625,-0.18359375,1,0,0,joes,0,16,16,20,1
,,,,,,00054,2023-10-10_17h25.52.567,vbt_B2_day2,2022.2.4,Win32,59.88741167,,,,,,,,,,,,,,,,,,,,,,,,,,,,,,,,,,,,,,,,,,breuk,images/br_breuk.png,images/cb_breuk.png,,bruis,,,,,,,,,,,0.46484375,-0.279947917,1,0,0,bruis,0,17,17,45,1
,,,,,,00054,2023-10-10_17h25.52.567,vbt_B2_day2,2022.2.4,Win32,59.88741167,,,,,,,,,,,,,,,,,,,,,,,,,,,,,,,,,,,,,,,,,,plannen,images/br_plannen.png,images/cb_plannen.png,,plannen,,,,,,,,,,,0.380208333,-0.108072917,1,0,0,plannen,0,18,18,55,1
,,,,,,00054,2023-10-10_17h25.52.567,vbt_B2_day2,2022.2.4,Win32,59.88741167,,,,,,,,,,,,,,,,,,,,,,,,,,,,,,,,,,,,,,,,,,heilig,images/br_heilig.png,images/cb_heilig.png,,heilig,,,,,,,,,,,0.549479167,-0.216145833,1,0,0,heilig,0,19,19,9,1
,,,,,,00054,2023-10-10_17h25.52.567,vbt_B2_day2,2022.2.4,Win32,59.88741167,,,,,,,,,,,,,,,,,,,,,,,,,,,,,,,,,,,,,,,,,,sjijfel,images/br_sjijfel.png,images/cb_sjijfel.png,,sjij...,,,,,,,,,,,0.444010417,-0.251302083,1,0,0,sjij...,0,20,20,33,1
,,,,,,00054,2023-10-10_17h25.52.567,vbt_B2_day2,2022.2.4,Win32,59.88741167,,,,,,,,,,,,,,,,,,,,,,,,,,,,,,,,,,,,,,,,,,doodmoe,images/br_doodmoe.png,images/cb_doodmoe.png,,doodmoe,,,,,,,,,,,0.404947917,-0.235677083,1,0,0,doodmoe,0,21,21,15,1
,,,,,,00054,2023-10-10_17h25.52.567,vbt_B2_day2,2022.2.4,Win32,59.88741167,,,,,,,,,,,,,,,,,,,,,,,,,,,,,,,,,,,,,,,,,,wijve,images/br_wijve.png,images/cb_wijve.png,,wijve,,,,,,,,,,,0.442708333,-0.158854167,1,0,0,wijve,0,22,22,27,1
,,,,,,00054,2023-10-10_17h25.52.567,vbt_B2_day2,2022.2.4,Win32,59.88741167,,,,,,,,,,,,,,,,,,,,,,,,,,,,,,,,,,,,,,,,,,lijnen,images/br_lijnen.png,images/cb_lijnen.png,,lijnen,,,,,,,,,,,0.4375,-0.125,1,0,0,lijnen,0,23,23,51,1
,,,,,,00054,2023-10-10_17h25.52.567,vbt_B2_day2,2022.2.4,Win32,59.88741167,,,,,,,,,,,,,,,,,,,,,,,,,,,,,,,,,,,,,,,,,,ningen,images/br_ningen.png,images/cb_ningen.png,,ningen,,,,,,,,,,,0.47265625,-0.178385417,1,0,0,ningen,0,24,24,28,1
,,,,,,00054,2023-10-10_17h25.52.567,vbt_B2_day2,2022.2.4,Win32,59.88741167,,,,,,,,,,,,,,,,,,,,,,,,,,,,,,,,,,,,,,,,,,aanzien,images/br_aanzien.png,images/cb_aanzien.png,,aanzien,,,,,,,,,,,0.62109375,-0.338541667,1,0,0,aanzien,0,25,25,13,1
,,,,,,00054,2023-10-10_17h25.52.567,vbt_B2_day2,2022.2.4,Win32,59.88741167,,,,,,,,,,,,,,,,,,,,,,,,,,,,,,,,,,,,,,,,,,kijlen,images/br_kijlen.png,images/cb_kijlen.png,,kijlen,,,,,,,,,,,0.424479167,-0.247395833,1,0,0,kijlen,0,26,26,31,1
,,,,,,00054,2023-10-10_17h25.52.567,vbt_B2_day2,2022.2.4,Win32,59.88741167,,,,,,,,,,,,,,,,,,,,,,,,,,,,,,,,,,,,,,,,,,anarchie,images/br_anarchie.png,images/cb_anarchie.png,,anarchie,,,,,,,,,,,0.44140625,-0.247395833,1,0,0,anarchie,0,27,27,16,1
,,,,,,00054,2023-10-10_17h25.52.567,vbt_B2_day2,2022.2.4,Win32,59.88741167,,,,,,,,,,,,,,,,,,,,,,,,,,,,,,,,,,,,,,,,,,ophuimen,images/br_ophuimen.png,images/cb_ophuimen.png,,oph....,,,,,,,,,,,0.463541667,-0.274739583,1,0,0,oph....,0,28,28,36,1
,,,,,,00054,2023-10-10_17h25.52.567,vbt_B2_day2,2022.2.4,Win32,59.88741167,,,,,,,,,,,,,,,,,,,,,,,,,,,,,,,,,,,,,,,,,,inzicht,images/br_inzicht.png,images/cb_inzicht.png,,inzicht,,,,,,,,,,,0.42578125,-0.240885417,1,0,0,inzicht,0,29,29,53,1
,,,,,,00054,2023-10-10_17h25.52.567,vbt_B2_day2,2022.2.4,Win32,59.88741167,,,,,,,,,,,,,,,,,,,,,,,,,,,,,,,,,,,,,,,,,,stes,images/br_stes.png,images/cb_stes.png,,stes,,,,,,,,,,,0.510416667,-0.25,1,0,0,stes,0,30,30,21,1
,,,,,,00054,2023-10-10_17h25.52.567,vbt_B2_day2,2022.2.4,Win32,59.88741167,,,,,,,,,,,,,,,,,,,,,,,,,,,,,,,,,,,,,,,,,,lokken,images/br_lokken.png,images/cb_lokken.png,,lokken,,,,,,,,,,,0.37109375,-0.221354167,1,0,0,lokken,0,31,31,8,1
,,,,,,00054,2023-10-10_17h25.52.567,vbt_B2_day2,2022.2.4,Win32,59.88741167,,,,,,,,,,,,,,,,,,,,,,,,,,,,,,,,,,,,,,,,,,heengeen,images/br_heengeen.png,images/cb_heengeen.png,,heengaan,,,,,,,,,,,0.467447917,-0.21875,1,0,0,heengaan,0,32,32,38,1
,,,,,,00054,2023-10-10_17h25.52.567,vbt_B2_day2,2022.2.4,Win32,59.88741167,,,,,,,,,,,,,,,,,,,,,,,,,,,,,,,,,,,,,,,,,,manieren,images/br_manieren.png,images/cb_manieren.png,,manieren,,,,,,,,,,,0.356770833,-0.162760417,1,0,0,manieren,0,33,33,56,1
,,,,,,00054,2023-10-10_17h25.52.567,vbt_B2_day2,2022.2.4,Win32,59.88741167,,,,,,,,,,,,,,,,,,,,,,,,,,,,,,,,,,,,,,,,,,negel,images/br_negel.png,images/cb_negel.png,,negel,,,,,,,,,,,0.657552083,-0.2109375,1,0,0,negel,0,34,34,24,1
,,,,,,00054,2023-10-10_17h25.52.567,vbt_B2_day2,2022.2.4,Win32,59.88741167,,,,,,,,,,,,,,,,,,,,,,,,,,,,,,,,,,,,,,,,,,bereuwen,images/br_bereuwen.png,images/cb_bereuwen.png,,bereuken,,,,,,,,,,,-0.001302083,-0.203125,1,0,0,bereuken,0,35,35,39,1
,,,,,,00054,2023-10-10_17h25.52.567,vbt_B2_day2,2022.2.4,Win32,59.88741167,,,,,,,,,,,,,,,,,,,,,,,,,,,,,,,,,,,,,,,,,,krimmen,images/br_krimmen.png,images/cb_krimmen.png,,kaim...,,,,,,,,,,,0.459635417,-0.119791667,1,0,0,kaim...,0,36,36,35,1
,,,,,,00054,2023-10-10_17h25.52.567,vbt_B2_day2,2022.2.4,Win32,59.88741167,,,,,,,,,,,,,,,,,,,,,,,,,,,,,,,,,,,,,,,,,,aanvraag,images/br_aanvraag.png,images/cb_aanvraag.png,,aanvraag,,,,,,,,,,,0.6328125,-0.158854167,1,0,0,aanvraag,0,37,37,57,1
,,,,,,00054,2023-10-10_17h25.52.567,vbt_B2_day2,2022.2.4,Win32,59.88741167,,,,,,,,,,,,,,,,,,,,,,,,,,,,,,,,,,,,,,,,,,flits,images/br_flits.png,images/cb_flits.png,,flits,,,,,,,,,,,0.345052083,-0.21875,1,0,0,flits,0,38,38,4,1
,,,,,,00054,2023-10-10_17h25.52.567,vbt_B2_day2,2022.2.4,Win32,59.88741167,,,,,,,,,,,,,,,,,,,,,,,,,,,,,,,,,,,,,,,,,,badon,images/br_badon.png,images/cb_badon.png,,baden,,,,,,,,,,,0.546875,-0.317708333,1,0,0,baden,0,39,39,26,1
,,,,,,00054,2023-10-10_17h25.52.567,vbt_B2_day2,2022.2.4,Win32,59.88741167,,,,,,,,,,,,,,,,,,,,,,,,,,,,,,,,,,,,,,,,,,kasteel,images/br_kasteel.png,images/cb_kasteel.png,,kasteel,,,,,,,,,,,0.40625,-0.28125,1,0,0,kasteel,0,40,40,14,1
,,,,,,00054,2023-10-10_17h25.52.567,vbt_B2_day2,2022.2.4,Win32,59.88741167,,,,,,,,,,,,,,,,,,,,,,,,,,,,,,,,,,,,,,,,,,dode,images/br_dode.png,images/cb_dode.png,,dode,,,,,,,,,,,0.58984375,-0.244791667,1,0,0,dode,0,41,41,41,1
,,,,,,00054,2023-10-10_17h25.52.567,vbt_B2_day2,2022.2.4,Win32,59.88741167,,,,,,,,,,,,,,,,,,,,,,,,,,,,,,,,,,,,,,,,,,koorts,images/br_koorts.png,images/cb_koorts.png,,koorts,,,,,,,,,,,0.641927083,-0.234375,1,0,0,koorts,0,42,42,50,1
,,,,,,00054,2023-10-10_17h25.52.567,vbt_B2_day2,2022.2.4,Win32,59.88741167,,,,,,,,,,,,,,,,,,,,,,,,,,,,,,,,,,,,,,,,,,moes,images/br_moes.png,images/cb_moes.png,,moes,,,,,,,,,,,0.709635417,-0.364583333,1,0,0,moes,0,43,43,0,1
,,,,,,00054,2023-10-10_17h25.52.567,vbt_B2_day2,2022.2.4,Win32,59.88741167,,,,,,,,,,,,,,,,,,,,,,,,,,,,,,,,,,,,,,,,,,goon,images/br_goon.png,images/cb_goon.png,,goon,,,,,,,,,,,0.427083333,-0.149739583,1,0,0,goon,0,44,44,23,1
,,,,,,00054,2023-10-10_17h25.52.567,vbt_B2_day2,2022.2.4,Win32,59.88741167,,,,,,,,,,,,,,,,,,,,,,,,,,,,,,,,,,,,,,,,,,tweeling,images/br_tweeling.png,images/cb_tweeling.png,,tweeling,,,,,,,,,,,0.462239583,-0.19140625,1,0,0,tweeling,0,45,45,58,1
,,,,,,00054,2023-10-10_17h25.52.567,vbt_B2_day2,2022.2.4,Win32,59.88741167,,,,,,,,,,,,,,,,,,,,,,,,,,,,,,,,,,,,,,,,,,jong,images/br_jong.png,images/cb_jong.png,,jong,,,,,,,,,,,0.372395833,-0.194010417,1,0,0,jong,0,46,46,43,1
,,,,,,00054,2023-10-10_17h25.52.567,vbt_B2_day2,2022.2.4,Win32,59.88741167,,,,,,,,,,,,,,,,,,,,,,,,,,,,,,,,,,,,,,,,,,sora,images/br_sora.png,images/cb_sora.png,,sora,,,,,,,,,,,0.471354167,-0.225260417,1,0,0,sora,0,47,47,22,1
,,,,,,00054,2023-10-10_17h25.52.567,vbt_B2_day2,2022.2.4,Win32,59.88741167,,,,,,,,,,,,,,,,,,,,,,,,,,,,,,,,,,,,,,,,,,zegel,images/br_zegel.png,images/cb_zegel.png,,zegel,,,,,,,,,,,0.485677083,-0.278645833,1,0,0,zegel,0,48,48,46,1
,,,,,,00054,2023-10-10_17h25.52.567,vbt_B2_day2,2022.2.4,Win32,59.88741167,,,,,,,,,,,,,,,,,,,,,,,,,,,,,,,,,,,,,,,,,,feestdag,images/br_feestdag.png,images/cb_feestdag.png,,feest..,,,,,,,,,,,0.467447917,-0.243489583,1,0,0,feest..,0,49,49,17,1
,,,,,,00054,2023-10-10_17h25.52.567,vbt_B2_day2,2022.2.4,Win32,59.88741167,,,,,,,,,,,,,,,,,,,,,,,,,,,,,,,,,,,,,,,,,,woning,images/br_woning.png,images/cb_woning.png,,woning,,,,,,,,,,,0.348958333,-0.1796875,1,0,0,woning,0,50,50,10,1
,,,,,,00054,2023-10-10_17h25.52.567,vbt_B2_day2,2022.2.4,Win32,59.88741167,,,,,,,,,,,,,,,,,,,,,,,,,,,,,,,,,,,,,,,,,,systeem,images/br_systeem.png,images/cb_systeem.png,,systeem,,,,,,,,,,,0.440104167,-0.247395833,1,0,0,systeem,0,51,51,54,1
,,,,,,00054,2023-10-10_17h25.52.567,vbt_B2_day2,2022.2.4,Win32,59.88741167,,,,,,,,,,,,,,,,,,,,,,,,,,,,,,,,,,,,,,,,,,thema,images/br_thema.png,images/cb_thema.png,,thema,,,,,,,,,,,0.4375,-0.305989583,1,0,0,thema,0,52,52,47,1
,,,,,,00054,2023-10-10_17h25.52.567,vbt_B2_day2,2022.2.4,Win32,59.88741167,,,,,,,,,,,,,,,,,,,,,,,,,,,,,,,,,,,,,,,,,,prekken,images/br_prekken.png,images/cb_prekken.png,,prekken,,,,,,,,,,,0.48046875,-0.260416667,1,0,0,prekken,0,53,53,34,1
,,,,,,00054,2023-10-10_17h25.52.567,vbt_B2_day2,2022.2.4,Win32,59.88741167,,,,,,,,,,,,,,,,,,,,,,,,,,,,,,,,,,,,,,,,,,kabel,images/br_kabel.png,images/cb_kabel.png,,kabel,,,,,,,,,,,0.395833333,-0.171875,1,0,0,kabel,0,54,54,7,1
,,,,,,00054,2023-10-10_17h25.52.567,vbt_B2_day2,2022.2.4,Win32,59.88741167,,,,,,,,,,,,,,,,,,,,,,,,,,,,,,,,,,,,,,,,,,blad,images/br_blad.png,images/cb_blad.png,,blad,,,,,,,,,,,0.3984375,-0.30078125,1,0,0,blad,0,55,55,1,1
,,,,,,00054,2023-10-10_17h25.52.567,vbt_B2_day2,2022.2.4,Win32,59.88741167,,,,,,,,,,,,,,,,,,,,,,,,,,,,,,,,,,,,,,,,,,jagen,images/br_jagen.png,images/cb_jagen.png,,jagen,,,,,,,,,,,0.381510417,-0.127604167,1,0,0,jagen,0,56,56,6,1
,,,,,,00054,2023-10-10_17h25.52.567,vbt_B2_day2,2022.2.4,Win32,59.88741167,,,,,,,,,,,,,,,,,,,,,,,,,,,,,,,,,,,,,,,,,,kenzis,images/br_kenzis.png,images/cb_kenzis.png,,kenzis,,,,,,,,,,,0.359375,-0.212239583,1,0,0,kenzis,0,57,57,30,1
,,,,,,00054,2023-10-10_17h25.52.567,vbt_B2_day2,2022.2.4,Win32,59.88741167,,,,,,,,,,,,,,,,,,,,,,,,,,,,,,,,,,,,,,,,,,opdatten,images/br_opdatten.png,images/cb_opdatten.png,,opdas...,,,,,,,,,,,0.364583333,-0.235677083,1,0,0,opdas...,0,58,58,37,1
,,,,,,00054,2023-10-10_17h25.52.567,vbt_B2_day2,2022.2.4,Win32,59.88741167,,,,,,,,,,,,,,,,,,,,,,,,,,,,,,,,,,,,,,,,,,sifferd,images/br_sifferd.png,images/cb_sifferd.png,,sufferd,,,,,,,,,,,0.51171875,-0.313802083,1,0,0,sufferd,0,59,59,32,1
,,,,,,00054,2023-10-10_17h25.52.567,vbt_B2_day2,2022.2.4,Win32,59.88741167,,,,,,,,,,,,,,,,,,,,,,,,,,,,,,,,,,,,,,,,,,,,,,,,,,,,,,,,,,,,,,,,,,,
