welcome_mouse.x,welcome_mouse.y,welcome_mouse.leftButton,welcome_mouse.midButton,welcome_mouse.rightButton,welcome_mouse.time,"ID",date,expName,psychopyVersion,OS,frameRate,participant,refresh_mouse.x,refresh_mouse.y,refresh_mouse.leftButton,refresh_mouse.midButton,refresh_mouse.rightButton,refresh_mouse.time,braille_mouse.x,braille_mouse.y,braille_mouse.leftButton,braille_mouse.midButton,braille_mouse.rightButton,braille_mouse.time,trials.thisRepN,trials.thisTrialN,trials.thisN,trials.thisIndex,trials.ran,nlLet,brLet,cbLet,trainInstr_mouse.x,trainInstr_mouse.y,trainInstr_mouse.leftButton,trainInstr_mouse.midButton,trainInstr_mouse.rightButton,trainInstr_mouse.time,translation_key.keys,translation_key.corr,translation_key.rt,word_rsp.text,word_mouse.x,word_mouse.y,word_mouse.leftButton,word_mouse.midButton,word_mouse.rightButton,word_mouse.time,train_loop.thisRepN,train_loop.thisTrialN,train_loop.thisN,train_loop.thisIndex,train_loop.ran,nlWrd,brWrd,cbWrd,test,testResp,mouse.x,mouse.y,mouse.leftButton,mouse.midButton,mouse.rightButton,testInstr_mouse.x,testInstr_mouse.y,testInstr_mouse.leftButton,testInstr_mouse.midButton,testInstr_mouse.rightButton,test_mouse.x,test_mouse.y,test_mouse.leftButton,test_mouse.midButton,test_mouse.rightButton,test_response.text,test_loop.thisRepN,test_loop.thisTrialN,test_loop.thisN,test_loop.thisIndex,test_loop.ran
-0.139814815,-0.226851852,1,0,0,10.9178,,2023-09-26_21h27.53.945,vbt_B2_day2,2022.2.4,Win32,60.35003018,55978,,,,,,,,,,,,,,,,,,,,,,,,,,,,,,,,,,,,,,,,,,,,,,,,,,,,,,,,,,,,,,,,,,,
,,,,,,,2023-09-26_21h27.53.945,vbt_B2_day2,2022.2.4,Win32,60.35003018,55978,-0.139814815,-0.226851852,1,0,0,12.7249,,,,,,,,,,,,,,,,,,,,,,,,,,,,,,,,,,,,,,,,,,,,,,,,,,,,,,,,,,,,,
,,,,,,,2023-09-26_21h27.53.945,vbt_B2_day2,2022.2.4,Win32,60.35003018,55978,,,,,,,-0.139814815,-0.226851852,1,0,0,0.5164,0,0,0,25,1,z,images/br_z.png,images/cb_z.png,,,,,,,,,,,,,,,,,,,,,,,,,,,,,,,,,,,,,,,,,,,,,,,
,,,,,,,2023-09-26_21h27.53.945,vbt_B2_day2,2022.2.4,Win32,60.35003018,55978,,,,,,,-0.028703704,-0.192592593,1,0,0,1.7001,0,1,1,20,1,u,images/br_u.png,images/cb_u.png,,,,,,,,,,,,,,,,,,,,,,,,,,,,,,,,,,,,,,,,,,,,,,,
,,,,,,,2023-09-26_21h27.53.945,vbt_B2_day2,2022.2.4,Win32,60.35003018,55978,,,,,,,-0.00462963,-0.218518519,1,0,0,0.9377,0,2,2,12,1,m,images/br_m.png,images/cb_m.png,,,,,,,,,,,,,,,,,,,,,,,,,,,,,,,,,,,,,,,,,,,,,,,
,,,,,,,2023-09-26_21h27.53.945,vbt_B2_day2,2022.2.4,Win32,60.35003018,55978,,,,,,,-0.00462963,-0.218518519,1,0,0,0.1883,0,3,3,2,1,c,images/br_c.png,images/cb_c.png,,,,,,,,,,,,,,,,,,,,,,,,,,,,,,,,,,,,,,,,,,,,,,,
,,,,,,,2023-09-26_21h27.53.945,vbt_B2_day2,2022.2.4,Win32,60.35003018,55978,,,,,,,-0.00462963,-0.218518519,1,0,0,0.7018,0,4,4,9,1,j,images/br_j.png,images/cb_j.png,,,,,,,,,,,,,,,,,,,,,,,,,,,,,,,,,,,,,,,,,,,,,,,
,,,,,,,2023-09-26_21h27.53.945,vbt_B2_day2,2022.2.4,Win32,60.35003018,55978,,,,,,,-0.00462963,-0.218518519,1,0,0,0.4662,0,5,5,14,1,o,images/br_o.png,images/cb_o.png,,,,,,,,,,,,,,,,,,,,,,,,,,,,,,,,,,,,,,,,,,,,,,,
,,,,,,,2023-09-26_21h27.53.945,vbt_B2_day2,2022.2.4,Win32,60.35003018,55978,,,,,,,-0.00462963,-0.218518519,1,0,0,0.7042,0,6,6,1,1,b,images/br_b.png,images/cb_b.png,,,,,,,,,,,,,,,,,,,,,,,,,,,,,,,,,,,,,,,,,,,,,,,
,,,,,,,2023-09-26_21h27.53.945,vbt_B2_day2,2022.2.4,Win32,60.35003018,55978,,,,,,,-0.00462963,-0.218518519,1,0,0,0.8004,0,7,7,16,1,q,images/br_q.png,images/cb_q.png,,,,,,,,,,,,,,,,,,,,,,,,,,,,,,,,,,,,,,,,,,,,,,,
,,,,,,,2023-09-26_21h27.53.945,vbt_B2_day2,2022.2.4,Win32,60.35003018,55978,,,,,,,-0.00462963,-0.218518519,1,0,0,0.9347,0,8,8,0,1,a,images/br_a.png,images/cb_a.png,,,,,,,,,,,,,,,,,,,,,,,,,,,,,,,,,,,,,,,,,,,,,,,
,,,,,,,2023-09-26_21h27.53.945,vbt_B2_day2,2022.2.4,Win32,60.35003018,55978,,,,,,,-0.00462963,-0.218518519,1,0,0,0.2005,0,9,9,22,1,w,images/br_w.png,images/cb_w.png,,,,,,,,,,,,,,,,,,,,,,,,,,,,,,,,,,,,,,,,,,,,,,,
,,,,,,,2023-09-26_21h27.53.945,vbt_B2_day2,2022.2.4,Win32,60.35003018,55978,,,,,,,-0.00462963,-0.218518519,1,0,0,0.1995,0,10,10,4,1,e,images/br_e.png,images/cb_e.png,,,,,,,,,,,,,,,,,,,,,,,,,,,,,,,,,,,,,,,,,,,,,,,
,,,,,,,2023-09-26_21h27.53.945,vbt_B2_day2,2022.2.4,Win32,60.35003018,55978,,,,,,,-0.00462963,-0.218518519,1,0,0,1.518,0,11,11,11,1,l,images/br_l.png,images/cb_l.png,,,,,,,,,,,,,,,,,,,,,,,,,,,,,,,,,,,,,,,,,,,,,,,
,,,,,,,2023-09-26_21h27.53.945,vbt_B2_day2,2022.2.4,Win32,60.35003018,55978,,,,,,,-0.00462963,-0.218518519,1,0,0,0.0325,0,12,12,10,1,k,images/br_k.png,images/cb_k.png,,,,,,,,,,,,,,,,,,,,,,,,,,,,,,,,,,,,,,,,,,,,,,,
,,,,,,,2023-09-26_21h27.53.945,vbt_B2_day2,2022.2.4,Win32,60.35003018,55978,,,,,,,-0.00462963,-0.218518519,1,0,0,0.2506,0,13,13,19,1,t,images/br_t.png,images/cb_t.png,,,,,,,,,,,,,,,,,,,,,,,,,,,,,,,,,,,,,,,,,,,,,,,
,,,,,,,2023-09-26_21h27.53.945,vbt_B2_day2,2022.2.4,Win32,60.35003018,55978,,,,,,,-0.00462963,-0.218518519,1,0,0,1.595,0,14,14,7,1,h,images/br_h.png,images/cb_h.png,,,,,,,,,,,,,,,,,,,,,,,,,,,,,,,,,,,,,,,,,,,,,,,
,,,,,,,2023-09-26_21h27.53.945,vbt_B2_day2,2022.2.4,Win32,60.35003018,55978,,,,,,,-0.00462963,-0.218518519,1,0,0,0.2177,0,15,15,23,1,x,images/br_x.png,images/cb_x.png,,,,,,,,,,,,,,,,,,,,,,,,,,,,,,,,,,,,,,,,,,,,,,,
,,,,,,,2023-09-26_21h27.53.945,vbt_B2_day2,2022.2.4,Win32,60.35003018,55978,,,,,,,-0.00462963,-0.218518519,1,0,0,0.8134,0,16,16,13,1,n,images/br_n.png,images/cb_n.png,,,,,,,,,,,,,,,,,,,,,,,,,,,,,,,,,,,,,,,,,,,,,,,
,,,,,,,2023-09-26_21h27.53.945,vbt_B2_day2,2022.2.4,Win32,60.35003018,55978,,,,,,,-0.00462963,-0.218518519,1,0,0,1.2511,0,17,17,8,1,i,images/br_i.png,images/cb_i.png,,,,,,,,,,,,,,,,,,,,,,,,,,,,,,,,,,,,,,,,,,,,,,,
,,,,,,,2023-09-26_21h27.53.945,vbt_B2_day2,2022.2.4,Win32,60.35003018,55978,,,,,,,-0.00462963,-0.218518519,1,0,0,0.0556,0,18,18,18,1,s,images/br_s.png,images/cb_s.png,,,,,,,,,,,,,,,,,,,,,,,,,,,,,,,,,,,,,,,,,,,,,,,
,,,,,,,2023-09-26_21h27.53.945,vbt_B2_day2,2022.2.4,Win32,60.35003018,55978,,,,,,,-0.00462963,-0.218518519,1,0,0,0.0672,0,19,19,17,1,r,images/br_r.png,images/cb_r.png,,,,,,,,,,,,,,,,,,,,,,,,,,,,,,,,,,,,,,,,,,,,,,,
,,,,,,,2023-09-26_21h27.53.945,vbt_B2_day2,2022.2.4,Win32,60.35003018,55978,,,,,,,-0.00462963,-0.218518519,1,0,0,0.9499,0,20,20,6,1,g,images/br_g.png,images/cb_g.png,,,,,,,,,,,,,,,,,,,,,,,,,,,,,,,,,,,,,,,,,,,,,,,
,,,,,,,2023-09-26_21h27.53.945,vbt_B2_day2,2022.2.4,Win32,60.35003018,55978,,,,,,,-0.00462963,-0.218518519,1,0,0,0.2682,0,21,21,24,1,y,images/br_y.png,images/cb_y.png,,,,,,,,,,,,,,,,,,,,,,,,,,,,,,,,,,,,,,,,,,,,,,,
,,,,,,,2023-09-26_21h27.53.945,vbt_B2_day2,2022.2.4,Win32,60.35003018,55978,,,,,,,-0.00462963,-0.218518519,1,0,0,0.638,0,22,22,3,1,d,images/br_d.png,images/cb_d.png,,,,,,,,,,,,,,,,,,,,,,,,,,,,,,,,,,,,,,,,,,,,,,,
,,,,,,,2023-09-26_21h27.53.945,vbt_B2_day2,2022.2.4,Win32,60.35003018,55978,,,,,,,-0.00462963,-0.218518519,1,0,0,0.5171,0,23,23,15,1,p,images/br_p.png,images/cb_p.png,,,,,,,,,,,,,,,,,,,,,,,,,,,,,,,,,,,,,,,,,,,,,,,
,,,,,,,2023-09-26_21h27.53.945,vbt_B2_day2,2022.2.4,Win32,60.35003018,55978,,,,,,,-0.00462963,-0.218518519,1,0,0,0.7503,0,24,24,5,1,f,images/br_f.png,images/cb_f.png,,,,,,,,,,,,,,,,,,,,,,,,,,,,,,,,,,,,,,,,,,,,,,,
,,,,,,,2023-09-26_21h27.53.945,vbt_B2_day2,2022.2.4,Win32,60.35003018,55978,,,,,,,-0.00462963,-0.218518519,1,0,0,1.1662,0,25,25,21,1,v,images/br_v.png,images/cb_v.png,,,,,,,,,,,,,,,,,,,,,,,,,,,,,,,,,,,,,,,,,,,,,,,
,,,,,,,2023-09-26_21h27.53.945,vbt_B2_day2,2022.2.4,Win32,60.35003018,55978,,,,,,,,,,,,,,,,,,,,,-0.00462963,-0.218518519,1,0,0,37.593,,,,,,,,,,,,,,,,,,,,,,,,,,,,,,,,,,,,,,,,,
,,,,,,,2023-09-26_21h27.53.945,vbt_B2_day2,2022.2.4,Win32,60.35003018,55978,,,,,,,,,,,,,,,,,,,,,,,,,,,down,0,4.5281,,-0.00462963,-0.218518519,1,0,0,2.0493,0,0,0,21,1,mist,images/br_mist.png,images/cb_mist.png,0,,,,,,,,,,,,,,,,,,,,,,
,,,,,,,2023-09-26_21h27.53.945,vbt_B2_day2,2022.2.4,Win32,60.35003018,55978,,,,,,,,,,,,,,,,,,,,,,,,,,,down,0,7.0949,,-0.00462963,-0.218518519,1,0,0,1.8825,0,1,1,137,1,trekker,images/br_trekker.png,images/cb_trekker.png,1,trekker,,,,,,,,,,,,,,,,,,,,,
,,,,,,,2023-09-26_21h27.53.945,vbt_B2_day2,2022.2.4,Win32,60.35003018,55978,,,,,,,,,,,,,,,,,,,,,,,,,,,down,0,13.3366,,-0.00462963,-0.218518519,1,0,0,2.1164,0,2,2,105,1,wijlen,images/br_wijlen.png,images/cb_wijlen.png,0,,,,,,,,,,,,,,,,,,,,,,
,,,,,,,2023-09-26_21h27.53.945,vbt_B2_day2,2022.2.4,Win32,60.35003018,55978,,,,,,,,,,,,,,,,,,,,,,,,,,,down,0,3.8163,,-0.00462963,-0.218518519,1,0,0,1.0337,0,3,3,170,1,schatten,images/br_schatten.png,images/cb_schatten.png,0,,,,,,,,,,,,,,,,,,,,,,
,,,,,,,2023-09-26_21h27.53.945,vbt_B2_day2,2022.2.4,Win32,60.35003018,55978,,,,,,,,,,,,,,,,,,,,,,,,,,,down,0,6.4793,,-0.00462963,-0.218518519,1,0,0,3.0005,0,4,4,16,1,ziek,images/br_ziek.png,images/cb_ziek.png,1,ziek,,,,,,,,,,,,,,,,,,,,,
,,,,,,,2023-09-26_21h27.53.945,vbt_B2_day2,2022.2.4,Win32,60.35003018,55978,,,,,,,,,,,,,,,,,,,,,,,,,,,down,0,3.6679,,-0.00462963,-0.218518519,1,0,0,1.5319,0,5,5,18,1,blik,images/br_blik.png,images/cb_blik.png,1,blik,,,,,,,,,,,,,,,,,,,,,
,,,,,,,2023-09-26_21h27.53.945,vbt_B2_day2,2022.2.4,Win32,60.35003018,55978,,,,,,,,,,,,,,,,,,,,,,,,,,,down,0,9.8171,,-0.00462963,-0.218518519,1,0,0,2.6544,0,6,6,182,1,bijkomen,images/br_bijkomen.png,images/cb_bijkomen.png,0,,,,,,,,,,,,,,,,,,,,,,
,,,,,,,2023-09-26_21h27.53.945,vbt_B2_day2,2022.2.4,Win32,60.35003018,55978,,,,,,,,,,,,,,,,,,,,,,,,,,,down,0,4.6015,,-0.00462963,-0.218518519,1,0,0,1.6484,0,7,7,4,1,moes,images/br_moes.png,images/cb_moes.png,0,,,,,,,,,,,,,,,,,,,,,,
,,,,,,,2023-09-26_21h27.53.945,vbt_B2_day2,2022.2.4,Win32,60.35003018,55978,,,,,,,,,,,,,,,,,,,,,,,,,,,down,0,2.6871,,-0.00462963,-0.218518519,1,0,0,1.9223,0,8,8,78,1,leren,images/br_leren.png,images/cb_leren.png,0,,,,,,,,,,,,,,,,,,,,,,
,,,,,,,2023-09-26_21h27.53.945,vbt_B2_day2,2022.2.4,Win32,60.35003018,55978,,,,,,,,,,,,,,,,,,,,,,,,,,,down,0,4.1015,,-0.00462963,-0.218518519,1,0,0,2.2492,0,9,9,104,1,zweven,images/br_zweven.png,images/cb_zweven.png,0,,,,,,,,,,,,,,,,,,,,,,
,,,,,,,2023-09-26_21h27.53.945,vbt_B2_day2,2022.2.4,Win32,60.35003018,55978,,,,,,,,,,,,,,,,,,,,,,,,,,,down,0,1.7323,,-0.00462963,-0.218518519,1,0,0,1.4104,0,10,10,3,1,mand,images/br_mand.png,images/cb_mand.png,0,,,,,,,,,,,,,,,,,,,,,,
,,,,,,,2023-09-26_21h27.53.945,vbt_B2_day2,2022.2.4,Win32,60.35003018,55978,,,,,,,,,,,,,,,,,,,,,,,,,,,down,0,2.6831,,-0.00462963,-0.218518519,1,0,0,1.1885,0,11,11,120,1,klimmen,images/br_klimmen.png,images/cb_klimmen.png,0,,,,,,,,,,,,,,,,,,,,,,
,,,,,,,2023-09-26_21h27.53.945,vbt_B2_day2,2022.2.4,Win32,60.35003018,55978,,,,,,,,,,,,,,,,,,,,,,,,,,,down,0,0.7441,,-0.00462963,-0.218518519,1,0,0,0.7994,0,12,12,39,1,laag,images/br_laag.png,images/cb_laag.png,0,,,,,,,,,,,,,,,,,,,,,,
,,,,,,,2023-09-26_21h27.53.945,vbt_B2_day2,2022.2.4,Win32,60.35003018,55978,,,,,,,,,,,,,,,,,,,,,,,,,,,down,0,0.6549,,-0.00462963,-0.218518519,1,0,0,0.8729,0,13,13,8,1,knie,images/br_knie.png,images/cb_knie.png,0,,,,,,,,,,,,,,,,,,,,,,
,,,,,,,2023-09-26_21h27.53.945,vbt_B2_day2,2022.2.4,Win32,60.35003018,55978,,,,,,,,,,,,,,,,,,,,,,,,,,,down,0,5.8368,,-0.00462963,-0.218518519,1,0,0,1.2815,0,14,14,187,1,opkijken,images/br_opkijken.png,images/cb_opkijken.png,0,,,,,,,,,,,,,,,,,,,,,,
,,,,,,,2023-09-26_21h27.53.945,vbt_B2_day2,2022.2.4,Win32,60.35003018,55978,,,,,,,,,,,,,,,,,,,,,,,,,,,down,0,3.509,,-0.00462963,-0.218518519,1,0,0,1.1329,0,15,15,67,1,zwart,images/br_zwart.png,images/cb_zwart.png,0,,,,,,,,,,,,,,,,,,,,,,
,,,,,,,2023-09-26_21h27.53.945,vbt_B2_day2,2022.2.4,Win32,60.35003018,55978,,,,,,,,,,,,,,,,,,,,,,,,,,,down,0,2.5854,,-0.00462963,-0.218518519,1,0,0,1.0333,0,16,16,71,1,bever,images/br_bever.png,images/cb_bever.png,0,,,,,,,,,,,,,,,,,,,,,,
,,,,,,,2023-09-26_21h27.53.945,vbt_B2_day2,2022.2.4,Win32,60.35003018,55978,,,,,,,,,,,,,,,,,,,,,,,,,,,down,0,1.6852,,-0.00462963,-0.218518519,1,0,0,0.75,0,17,17,32,1,palm,images/br_palm.png,images/cb_palm.png,0,,,,,,,,,,,,,,,,,,,,,,
,,,,,,,2023-09-26_21h27.53.945,vbt_B2_day2,2022.2.4,Win32,60.35003018,55978,,,,,,,,,,,,,,,,,,,,,,,,,,,down,0,7.604,,-0.00462963,-0.218518519,1,0,0,1.1717,0,18,18,19,1,geit,images/br_geit.png,images/cb_geit.png,1,geit,,,,,,,,,,,,,,,,,,,,,
,,,,,,,2023-09-26_21h27.53.945,vbt_B2_day2,2022.2.4,Win32,60.35003018,55978,,,,,,,,,,,,,,,,,,,,,,,,,,,down,0,1.818,,-0.00462963,-0.218518519,1,0,0,0.9213,0,19,19,64,1,wegen,images/br_wegen.png,images/cb_wegen.png,0,,,,,,,,,,,,,,,,,,,,,,
,,,,,,,2023-09-26_21h27.53.945,vbt_B2_day2,2022.2.4,Win32,60.35003018,55978,,,,,,,,,,,,,,,,,,,,,,,,,,,down,0,7.3877,,-0.00462963,-0.218518519,1,0,0,0.9167,0,20,20,124,1,bloeien,images/br_bloeien.png,images/cb_bloeien.png,0,,,,,,,,,,,,,,,,,,,,,,
,,,,,,,2023-09-26_21h27.53.945,vbt_B2_day2,2022.2.4,Win32,60.35003018,55978,,,,,,,,,,,,,,,,,,,,,,,,,,,down,0,4.95,,-0.00462963,-0.218518519,1,0,0,0.7842,0,21,21,99,1,koffie,images/br_koffie.png,images/cb_koffie.png,1,koffie,,,,,,,,,,,,,,,,,,,,,
,,,,,,,2023-09-26_21h27.53.945,vbt_B2_day2,2022.2.4,Win32,60.35003018,55978,,,,,,,,,,,,,,,,,,,,,,,,,,,down,0,5.2658,,-0.00462963,-0.218518519,1,0,0,2.7159,0,22,22,172,1,weigeren,images/br_weigeren.png,images/cb_weigeren.png,0,,,,,,,,,,,,,,,,,,,,,,
,,,,,,,2023-09-26_21h27.53.945,vbt_B2_day2,2022.2.4,Win32,60.35003018,55978,,,,,,,,,,,,,,,,,,,,,,,,,,,down,0,8.023,,0.014814815,-0.191666667,1,0,0,3.2402,0,23,23,129,1,verhaal,images/br_verhaal.png,images/cb_verhaal.png,0,,,,,,,,,,,,,,,,,,,,,,
,,,,,,,2023-09-26_21h27.53.945,vbt_B2_day2,2022.2.4,Win32,60.35003018,55978,,,,,,,,,,,,,,,,,,,,,,,,,,,down,0,1.7499,,0.014814815,-0.191666667,1,0,0,3.755,0,24,24,38,1,baai,images/br_baai.png,images/cb_baai.png,0,,,,,,,,,,,,,,,,,,,,,,
,,,,,,,2023-09-26_21h27.53.945,vbt_B2_day2,2022.2.4,Win32,60.35003018,55978,,,,,,,,,,,,,,,,,,,,,,,,,,,down,0,0.8946,,0.014814815,-0.191666667,1,0,0,0.6508,0,25,25,10,1,leek,images/br_leek.png,images/cb_leek.png,0,,,,,,,,,,,,,,,,,,,,,,
,,,,,,,2023-09-26_21h27.53.945,vbt_B2_day2,2022.2.4,Win32,60.35003018,55978,,,,,,,,,,,,,,,,,,,,,,,,,,,down,0,7.468,,0.014814815,-0.191666667,1,0,0,1.6993,0,26,26,168,1,bisschop,images/br_bisschop.png,images/cb_bisschop.png,0,,,,,,,,,,,,,,,,,,,,,,
,,,,,,,2023-09-26_21h27.53.945,vbt_B2_day2,2022.2.4,Win32,60.35003018,55978,,,,,,,,,,,,,,,,,,,,,,,,,,,down,0,1.1211,,0.014814815,-0.185185185,1,0,0,1.0837,0,27,27,50,1,stoom,images/br_stoom.png,images/cb_stoom.png,0,,,,,,,,,,,,,,,,,,,,,,
,,,,,,,2023-09-26_21h27.53.945,vbt_B2_day2,2022.2.4,Win32,60.35003018,55978,,,,,,,,,,,,,,,,,,,,,,,,,,,down,0,10.736,,0.014814815,-0.185185185,1,0,0,0.9502,0,28,28,80,1,kanjer,images/br_kanjer.png,images/cb_kanjer.png,0,,,,,,,,,,,,,,,,,,,,,,
,,,,,,,2023-09-26_21h27.53.945,vbt_B2_day2,2022.2.4,Win32,60.35003018,55978,,,,,,,,,,,,,,,,,,,,,,,,,,,down,0,2.2186,,0.014814815,-0.185185185,1,0,0,0.6007,0,29,29,27,1,dans,images/br_dans.png,images/cb_dans.png,0,,,,,,,,,,,,,,,,,,,,,,
,,,,,,,2023-09-26_21h27.53.945,vbt_B2_day2,2022.2.4,Win32,60.35003018,55978,,,,,,,,,,,,,,,,,,,,,,,,,,,down,0,2.2199,,0.014814815,-0.185185185,1,0,0,0.7549,0,30,30,101,1,staren,images/br_staren.png,images/cb_staren.png,0,,,,,,,,,,,,,,,,,,,,,,
,,,,,,,2023-09-26_21h27.53.945,vbt_B2_day2,2022.2.4,Win32,60.35003018,55978,,,,,,,,,,,,,,,,,,,,,,,,,,,down,0,5.9625,,0.014814815,-0.185185185,1,0,0,2.3826,0,31,31,156,1,rechten,images/br_rechten.png,images/cb_rechten.png,0,,,,,,,,,,,,,,,,,,,,,,
,,,,,,,2023-09-26_21h27.53.945,vbt_B2_day2,2022.2.4,Win32,60.35003018,55978,,,,,,,,,,,,,,,,,,,,,,,,,,,down,0,1.1622,,0.014814815,-0.185185185,1,0,0,0.5697,0,32,32,53,1,baron,images/br_baron.png,images/cb_baron.png,0,,,,,,,,,,,,,,,,,,,,,,
,,,,,,,2023-09-26_21h27.53.945,vbt_B2_day2,2022.2.4,Win32,60.35003018,55978,,,,,,,,,,,,,,,,,,,,,,,,,,,down,0,9.4421,,0.014814815,-0.185185185,1,0,0,0.7828,0,33,33,178,1,huisdier,images/br_huisdier.png,images/cb_huisdier.png,1,huisdier,,,,,,,,,,,,,,,,,,,,,
,,,,,,,2023-09-26_21h27.53.945,vbt_B2_day2,2022.2.4,Win32,60.35003018,55978,,,,,,,,,,,,,,,,,,,,,,,,,,,down,0,3.8084,,0.011111111,-0.197222222,1,0,0,1.5063,0,34,34,161,1,attentie,images/br_attentie.png,images/cb_attentie.png,0,,,,,,,,,,,,,,,,,,,,,,
,,,,,,,2023-09-26_21h27.53.945,vbt_B2_day2,2022.2.4,Win32,60.35003018,55978,,,,,,,,,,,,,,,,,,,,,,,,,,,down,0,5.3685,,0.011111111,-0.197222222,1,0,0,0.7051,0,35,35,110,1,zuster,images/br_zuster.png,images/cb_zuster.png,0,,,,,,,,,,,,,,,,,,,,,,
,,,,,,,2023-09-26_21h27.53.945,vbt_B2_day2,2022.2.4,Win32,60.35003018,55978,,,,,,,,,,,,,,,,,,,,,,,,,,,down,0,1.7844,,0.011111111,-0.197222222,1,0,0,0.599,0,36,36,9,1,hier,images/br_hier.png,images/cb_hier.png,0,,,,,,,,,,,,,,,,,,,,,,
,,,,,,,2023-09-26_21h27.53.945,vbt_B2_day2,2022.2.4,Win32,60.35003018,55978,,,,,,,,,,,,,,,,,,,,,,,,,,,down,0,1.3363,,0.016666667,-0.194444444,1,0,0,3.1993,0,37,37,1,1,zaal,images/br_zaal.png,images/cb_zaal.png,0,,,,,,,,,,,,,,,,,,,,,,
,,,,,,,2023-09-26_21h27.53.945,vbt_B2_day2,2022.2.4,Win32,60.35003018,55978,,,,,,,,,,,,,,,,,,,,,,,,,,,down,0,0.9992,,-0.117592593,-0.272222222,1,0,0,23.6143,0,38,38,84,1,lokken,images/br_lokken.png,images/cb_lokken.png,0,,,,,,,,,,,,,,,,,,,,,,
,,,,,,,2023-09-26_21h27.53.945,vbt_B2_day2,2022.2.4,Win32,60.35003018,55978,,,,,,,,,,,,,,,,,,,,,,,,,,,down,0,1.9619,,-0.117592593,-0.272222222,1,0,0,6.8845,0,39,39,126,1,kasteel,images/br_kasteel.png,images/cb_kasteel.png,0,,,,,,,,,,,,,,,,,,,,,,
,,,,,,,2023-09-26_21h27.53.945,vbt_B2_day2,2022.2.4,Win32,60.35003018,55978,,,,,,,,,,,,,,,,,,,,,,,,,,,down,0,2.2435,,-0.061111111,-0.236111111,1,0,0,1.1497,0,40,40,73,1,volop,images/br_volop.png,images/cb_volop.png,0,,,,,,,,,,,,,,,,,,,,,,
,,,,,,,2023-09-26_21h27.53.945,vbt_B2_day2,2022.2.4,Win32,60.35003018,55978,,,,,,,,,,,,,,,,,,,,,,,,,,,down,0,3.3906,,-0.012962963,-0.188888889,1,0,0,1.3829,0,41,41,40,1,schep,images/br_schep.png,images/cb_schep.png,0,,,,,,,,,,,,,,,,,,,,,,
,,,,,,,2023-09-26_21h27.53.945,vbt_B2_day2,2022.2.4,Win32,60.35003018,55978,,,,,,,,,,,,,,,,,,,,,,,,,,,down,0,1.3991,,-0.012962963,-0.217592593,1,0,0,1.0281,0,42,42,69,1,waken,images/br_waken.png,images/cb_waken.png,0,,,,,,,,,,,,,,,,,,,,,,
,,,,,,,2023-09-26_21h27.53.945,vbt_B2_day2,2022.2.4,Win32,60.35003018,55978,,,,,,,,,,,,,,,,,,,,,,,,,,,down,0,3.2166,,-0.040740741,-0.267592593,1,0,0,5.3001,0,43,43,184,1,aandelen,images/br_aandelen.png,images/cb_aandelen.png,0,,,,,,,,,,,,,,,,,,,,,,
,,,,,,,2023-09-26_21h27.53.945,vbt_B2_day2,2022.2.4,Win32,60.35003018,55978,,,,,,,,,,,,,,,,,,,,,,,,,,,down,0,4.951,,-0.040740741,-0.267592593,1,0,0,6.9483,0,44,44,145,1,invloed,images/br_invloed.png,images/cb_invloed.png,0,,,,,,,,,,,,,,,,,,,,,,
,,,,,,,2023-09-26_21h27.53.945,vbt_B2_day2,2022.2.4,Win32,60.35003018,55978,,,,,,,,,,,,,,,,,,,,,,,,,,,down,0,6.3685,,-0.059259259,-0.302777778,1,0,0,1.3887,0,45,45,179,1,woestijn,images/br_woestijn.png,images/cb_woestijn.png,1,woestijn,,,,,,,,,,,,,,,,,,,,,
,,,,,,,2023-09-26_21h27.53.945,vbt_B2_day2,2022.2.4,Win32,60.35003018,55978,,,,,,,,,,,,,,,,,,,,,,,,,,,down,0,4.268,,-0.059259259,-0.317592593,1,0,0,1.4659,0,46,46,149,1,redding,images/br_redding.png,images/cb_redding.png,0,,,,,,,,,,,,,,,,,,,,,,
,,,,,,,2023-09-26_21h27.53.945,vbt_B2_day2,2022.2.4,Win32,60.35003018,55978,,,,,,,,,,,,,,,,,,,,,,,,,,,down,0,0.816,,-0.059259259,-0.317592593,1,0,0,1.9441,0,47,47,35,1,lust,images/br_lust.png,images/cb_lust.png,0,,,,,,,,,,,,,,,,,,,,,,
,,,,,,,2023-09-26_21h27.53.945,vbt_B2_day2,2022.2.4,Win32,60.35003018,55978,,,,,,,,,,,,,,,,,,,,,,,,,,,down,0,26.8206,,-0.031481481,-0.290740741,1,0,0,7.6861,0,48,48,116,1,besmet,images/br_besmet.png,images/cb_besmet.png,0,,,,,,,,,,,,,,,,,,,,,,
,,,,,,,2023-09-26_21h27.53.945,vbt_B2_day2,2022.2.4,Win32,60.35003018,55978,,,,,,,,,,,,,,,,,,,,,,,,,,,down,0,1.0747,,-0.031481481,-0.290740741,1,0,0,0.5996,0,49,49,12,1,kust,images/br_kust.png,images/cb_kust.png,0,,,,,,,,,,,,,,,,,,,,,,
,,,,,,,2023-09-26_21h27.53.945,vbt_B2_day2,2022.2.4,Win32,60.35003018,55978,,,,,,,,,,,,,,,,,,,,,,,,,,,down,0,12.2157,,-0.031481481,-0.290740741,1,0,0,28.6672,0,50,50,58,1,tekst,images/br_tekst.png,images/cb_tekst.png,1,tekst,,,,,,,,,,,,,,,,,,,,,
,,,,,,,2023-09-26_21h27.53.945,vbt_B2_day2,2022.2.4,Win32,60.35003018,55978,,,,,,,,,,,,,,,,,,,,,,,,,,,down,0,3.6923,,-0.30462963,-0.297222222,1,0,0,2.1506,0,51,51,54,1,gebit,images/br_gebit.png,images/cb_gebit.png,0,,,,,,,,,,,,,,,,,,,,,,
,,,,,,,2023-09-26_21h27.53.945,vbt_B2_day2,2022.2.4,Win32,60.35003018,55978,,,,,,,,,,,,,,,,,,,,,,,,,,,down,0,4.3351,,-0.228703704,-0.294444444,1,0,0,0.9332,0,52,52,134,1,geliefd,images/br_geliefd.png,images/cb_geliefd.png,0,,,,,,,,,,,,,,,,,,,,,,
,,,,,,,2023-09-26_21h27.53.945,vbt_B2_day2,2022.2.4,Win32,60.35003018,55978,,,,,,,,,,,,,,,,,,,,,,,,,,,down,0,1.8446,,-0.228703704,-0.294444444,1,0,0,0.0329,0,53,53,43,1,klauw,images/br_klauw.png,images/cb_klauw.png,0,,,,,,,,,,,,,,,,,,,,,,
,,,,,,,2023-09-26_21h27.53.945,vbt_B2_day2,2022.2.4,Win32,60.35003018,55978,,,,,,,,,,,,,,,,,,,,,,,,,,,down,0,7.5265,,-0.228703704,-0.294444444,1,0,0,6.5164,0,54,54,85,1,heilig,images/br_heilig.png,images/cb_heilig.png,0,,,,,,,,,,,,,,,,,,,,,,
,,,,,,,2023-09-26_21h27.53.945,vbt_B2_day2,2022.2.4,Win32,60.35003018,55978,,,,,,,,,,,,,,,,,,,,,,,,,,,down,0,6.6127,,-0.228703704,-0.294444444,1,0,0,2.4665,0,55,55,136,1,waarbij,images/br_waarbij.png,images/cb_waarbij.png,1,waarbij,,,,,,,,,,,,,,,,,,,,,
,,,,,,,2023-09-26_21h27.53.945,vbt_B2_day2,2022.2.4,Win32,60.35003018,55978,,,,,,,,,,,,,,,,,,,,,,,,,,,down,0,4.7539,,-0.228703704,-0.294444444,1,0,0,0.8605,0,56,56,196,1,nakijken,images/br_nakijken.png,images/cb_nakijken.png,0,,,,,,,,,,,,,,,,,,,,,,
,,,,,,,2023-09-26_21h27.53.945,vbt_B2_day2,2022.2.4,Win32,60.35003018,55978,,,,,,,,,,,,,,,,,,,,,,,,,,,down,0,7.882,,-0.257407407,-0.333333333,1,0,0,0.9174,0,57,57,176,1,techniek,images/br_techniek.png,images/cb_techniek.png,1,techniek,,,,,,,,,,,,,,,,,,,,,
,,,,,,,2023-09-26_21h27.53.945,vbt_B2_day2,2022.2.4,Win32,60.35003018,55978,,,,,,,,,,,,,,,,,,,,,,,,,,,down,0,1.6365,,-0.257407407,-0.333333333,1,0,0,3.4491,0,58,58,119,1,liefje,images/br_liefje.png,images/cb_liefje.png,0,,,,,,,,,,,,,,,,,,,,,,
,,,,,,,2023-09-26_21h27.53.945,vbt_B2_day2,2022.2.4,Win32,60.35003018,55978,,,,,,,,,,,,,,,,,,,,,,,,,,,down,0,5.2713,,-0.082407407,-0.251851852,1,0,0,3.4362,0,59,59,112,1,lukken,images/br_lukken.png,images/cb_lukken.png,0,,,,,,,,,,,,,,,,,,,,,,
,,,,,,,2023-09-26_21h27.53.945,vbt_B2_day2,2022.2.4,Win32,60.35003018,55978,,,,,,,,,,,,,,,,,,,,,,,,,,,down,0,3.4595,,-0.082407407,-0.251851852,1,0,0,0.8338,0,60,60,144,1,eetlust,images/br_eetlust.png,images/cb_eetlust.png,0,,,,,,,,,,,,,,,,,,,,,,
,,,,,,,2023-09-26_21h27.53.945,vbt_B2_day2,2022.2.4,Win32,60.35003018,55978,,,,,,,,,,,,,,,,,,,,,,,,,,,down,0,22.6874,,-0.082407407,-0.251851852,1,0,0,0.5667,0,61,61,165,1,feestdag,images/br_feestdag.png,images/cb_feestdag.png,0,,,,,,,,,,,,,,,,,,,,,,
,,,,,,,2023-09-26_21h27.53.945,vbt_B2_day2,2022.2.4,Win32,60.35003018,55978,,,,,,,,,,,,,,,,,,,,,,,,,,,down,0,2.8184,,-0.082407407,-0.251851852,1,0,0,0.8392,0,62,62,95,1,vreten,images/br_vreten.png,images/cb_vreten.png,0,,,,,,,,,,,,,,,,,,,,,,
,,,,,,,2023-09-26_21h27.53.945,vbt_B2_day2,2022.2.4,Win32,60.35003018,55978,,,,,,,,,,,,,,,,,,,,,,,,,,,down,0,10.3511,,-0.082407407,-0.251851852,1,0,0,0.8442,0,63,63,91,1,gezond,images/br_gezond.png,images/cb_gezond.png,0,,,,,,,,,,,,,,,,,,,,,,
,,,,,,,2023-09-26_21h27.53.945,vbt_B2_day2,2022.2.4,Win32,60.35003018,55978,,,,,,,,,,,,,,,,,,,,,,,,,,,down,0,3.8936,,-0.082407407,-0.251851852,1,0,0,1.8107,0,64,64,164,1,anarchie,images/br_anarchie.png,images/cb_anarchie.png,0,,,,,,,,,,,,,,,,,,,,,,
,,,,,,,2023-09-26_21h27.53.945,vbt_B2_day2,2022.2.4,Win32,60.35003018,55978,,,,,,,,,,,,,,,,,,,,,,,,,,,down,0,0.4336,,-0.082407407,-0.251851852,1,0,0,0.7665,0,65,65,48,1,steel,images/br_steel.png,images/cb_steel.png,0,,,,,,,,,,,,,,,,,,,,,,
,,,,,,,2023-09-26_21h27.53.945,vbt_B2_day2,2022.2.4,Win32,60.35003018,55978,,,,,,,,,,,,,,,,,,,,,,,,,,,down,0,2.2969,,-0.082407407,-0.251851852,1,0,0,0.684,0,66,66,11,1,mode,images/br_mode.png,images/cb_mode.png,0,,,,,,,,,,,,,,,,,,,,,,
,,,,,,,2023-09-26_21h27.53.945,vbt_B2_day2,2022.2.4,Win32,60.35003018,55978,,,,,,,,,,,,,,,,,,,,,,,,,,,down,0,3.4872,,-0.082407407,-0.251851852,1,0,0,0.8673,0,67,67,159,1,sufferd,images/br_sufferd.png,images/cb_sufferd.png,0,,,,,,,,,,,,,,,,,,,,,,
,,,,,,,2023-09-26_21h27.53.945,vbt_B2_day2,2022.2.4,Win32,60.35003018,55978,,,,,,,,,,,,,,,,,,,,,,,,,,,down,0,4.4508,,-0.082407407,-0.251851852,1,0,0,1.3348,0,68,68,100,1,geduld,images/br_geduld.png,images/cb_geduld.png,0,,,,,,,,,,,,,,,,,,,,,,
,,,,,,,2023-09-26_21h27.53.945,vbt_B2_day2,2022.2.4,Win32,60.35003018,55978,,,,,,,,,,,,,,,,,,,,,,,,,,,down,0,13.0692,,-0.082407407,-0.251851852,1,0,0,1.5558,0,69,69,185,1,mijnheer,images/br_mijnheer.png,images/cb_mijnheer.png,0,,,,,,,,,,,,,,,,,,,,,,
,,,,,,,2023-09-26_21h27.53.945,vbt_B2_day2,2022.2.4,Win32,60.35003018,55978,,,,,,,,,,,,,,,,,,,,,,,,,,,down,0,5.3533,,-0.118518519,-0.331481481,1,0,0,0.9495,0,70,70,98,1,kreeft,images/br_kreeft.png,images/cb_kreeft.png,1,kreeft,,,,,,,,,,,,,,,,,,,,,
,,,,,,,2023-09-26_21h27.53.945,vbt_B2_day2,2022.2.4,Win32,60.35003018,55978,,,,,,,,,,,,,,,,,,,,,,,,,,,down,0,4.1038,,-0.118518519,-0.34537037,1,0,0,0.9488,0,71,71,133,1,seizoen,images/br_seizoen.png,images/cb_seizoen.png,0,,,,,,,,,,,,,,,,,,,,,,
,,,,,,,2023-09-26_21h27.53.945,vbt_B2_day2,2022.2.4,Win32,60.35003018,55978,,,,,,,,,,,,,,,,,,,,,,,,,,,down,0,2.7702,,-0.118518519,-0.34537037,1,0,0,0.722,0,72,72,174,1,stemming,images/br_stemming.png,images/cb_stemming.png,0,,,,,,,,,,,,,,,,,,,,,,
,,,,,,,2023-09-26_21h27.53.945,vbt_B2_day2,2022.2.4,Win32,60.35003018,55978,,,,,,,,,,,,,,,,,,,,,,,,,,,down,0,3.3006,,-0.118518519,-0.34537037,1,0,0,0.9161,0,73,73,121,1,twijfel,images/br_twijfel.png,images/cb_twijfel.png,0,,,,,,,,,,,,,,,,,,,,,,
,,,,,,,2023-09-26_21h27.53.945,vbt_B2_day2,2022.2.4,Win32,60.35003018,55978,,,,,,,,,,,,,,,,,,,,,,,,,,,down,0,3.6208,,-0.118518519,-0.34537037,1,0,0,0.8158,0,74,74,195,1,middelen,images/br_middelen.png,images/cb_middelen.png,0,,,,,,,,,,,,,,,,,,,,,,
,,,,,,,2023-09-26_21h27.53.945,vbt_B2_day2,2022.2.4,Win32,60.35003018,55978,,,,,,,,,,,,,,,,,,,,,,,,,,,down,0,3.837,,-0.097222222,-0.35,1,0,0,1.1782,0,75,75,177,1,maaltijd,images/br_maaltijd.png,images/cb_maaltijd.png,1,maaltijd,,,,,,,,,,,,,,,,,,,,,
,,,,,,,2023-09-26_21h27.53.945,vbt_B2_day2,2022.2.4,Win32,60.35003018,55978,,,,,,,,,,,,,,,,,,,,,,,,,,,down,0,4.4554,,-0.097222222,-0.35,1,0,0,1.7501,0,76,76,109,1,totaal,images/br_totaal.png,images/cb_totaal.png,0,,,,,,,,,,,,,,,,,,,,,,
,,,,,,,2023-09-26_21h27.53.945,vbt_B2_day2,2022.2.4,Win32,60.35003018,55978,,,,,,,,,,,,,,,,,,,,,,,,,,,down,0,2.9131,,-0.097222222,-0.35,1,0,0,2.3824,0,77,77,83,1,mening,images/br_mening.png,images/cb_mening.png,0,,,,,,,,,,,,,,,,,,,,,,
,,,,,,,2023-09-26_21h27.53.945,vbt_B2_day2,2022.2.4,Win32,60.35003018,55978,,,,,,,,,,,,,,,,,,,,,,,,,,,down,0,4.512,,-0.09537037,-0.350925926,1,0,0,0.9939,0,78,78,59,1,kring,images/br_kring.png,images/cb_kring.png,1,kring,,,,,,,,,,,,,,,,,,,,,
,,,,,,,2023-09-26_21h27.53.945,vbt_B2_day2,2022.2.4,Win32,60.35003018,55978,,,,,,,,,,,,,,,,,,,,,,,,,,,down,0,4.8021,,-0.09537037,-0.350925926,1,0,0,1.1227,0,79,79,198,1,bedoelen,images/br_bedoelen.png,images/cb_bedoelen.png,0,,,,,,,,,,,,,,,,,,,,,,
,,,,,,,2023-09-26_21h27.53.945,vbt_B2_day2,2022.2.4,Win32,60.35003018,55978,,,,,,,,,,,,,,,,,,,,,,,,,,,down,0,3.1622,,-0.09537037,-0.350925926,1,0,0,1.6806,0,80,80,49,1,laken,images/br_laken.png,images/cb_laken.png,0,,,,,,,,,,,,,,,,,,,,,,
,,,,,,,2023-09-26_21h27.53.945,vbt_B2_day2,2022.2.4,Win32,60.35003018,55978,,,,,,,,,,,,,,,,,,,,,,,,,,,down,0,4.085,,-0.09537037,-0.350925926,1,0,0,0.8497,0,81,81,122,1,waarvan,images/br_waarvan.png,images/cb_waarvan.png,0,,,,,,,,,,,,,,,,,,,,,,
,,,,,,,2023-09-26_21h27.53.945,vbt_B2_day2,2022.2.4,Win32,60.35003018,55978,,,,,,,,,,,,,,,,,,,,,,,,,,,down,0,1.4857,,-0.100925926,-0.391666667,1,0,0,1.0662,0,82,82,17,1,taal,images/br_taal.png,images/cb_taal.png,1,taal,,,,,,,,,,,,,,,,,,,,,
,,,,,,,2023-09-26_21h27.53.945,vbt_B2_day2,2022.2.4,Win32,60.35003018,55978,,,,,,,,,,,,,,,,,,,,,,,,,,,down,0,2.3765,,-0.125,-0.385185185,1,0,0,0.95,0,83,83,65,1,parel,images/br_parel.png,images/cb_parel.png,0,,,,,,,,,,,,,,,,,,,,,,
,,,,,,,2023-09-26_21h27.53.945,vbt_B2_day2,2022.2.4,Win32,60.35003018,55978,,,,,,,,,,,,,,,,,,,,,,,,,,,down,0,4.9405,,-0.125,-0.385185185,1,0,0,0.9497,0,84,84,146,1,opkomen,images/br_opkomen.png,images/cb_opkomen.png,0,,,,,,,,,,,,,,,,,,,,,,
,,,,,,,2023-09-26_21h27.53.945,vbt_B2_day2,2022.2.4,Win32,60.35003018,55978,,,,,,,,,,,,,,,,,,,,,,,,,,,down,0,3.0672,,-0.125,-0.385185185,1,0,0,0.849,0,85,85,42,1,bleek,images/br_bleek.png,images/cb_bleek.png,0,,,,,,,,,,,,,,,,,,,,,,
,,,,,,,2023-09-26_21h27.53.945,vbt_B2_day2,2022.2.4,Win32,60.35003018,55978,,,,,,,,,,,,,,,,,,,,,,,,,,,down,0,2.9848,,-0.053703704,-0.372222222,1,0,0,1.666,0,86,86,181,1,toegeven,images/br_toegeven.png,images/cb_toegeven.png,0,,,,,,,,,,,,,,,,,,,,,,
,,,,,,,2023-09-26_21h27.53.945,vbt_B2_day2,2022.2.4,Win32,60.35003018,55978,,,,,,,,,,,,,,,,,,,,,,,,,,,down,0,2.552,,-0.053703704,-0.372222222,1,0,0,1.5649,0,87,87,74,1,graaf,images/br_graaf.png,images/cb_graaf.png,0,,,,,,,,,,,,,,,,,,,,,,
,,,,,,,2023-09-26_21h27.53.945,vbt_B2_day2,2022.2.4,Win32,60.35003018,55978,,,,,,,,,,,,,,,,,,,,,,,,,,,down,0,1.5176,,-0.053703704,-0.372222222,1,0,0,0.5992,0,88,88,23,1,zout,images/br_zout.png,images/cb_zout.png,0,,,,,,,,,,,,,,,,,,,,,,
,,,,,,,2023-09-26_21h27.53.945,vbt_B2_day2,2022.2.4,Win32,60.35003018,55978,,,,,,,,,,,,,,,,,,,,,,,,,,,down,0,1.7809,,-0.053703704,-0.372222222,1,0,0,0.7511,0,89,89,192,1,schaamte,images/br_schaamte.png,images/cb_schaamte.png,0,,,,,,,,,,,,,,,,,,,,,,
,,,,,,,2023-09-26_21h27.53.945,vbt_B2_day2,2022.2.4,Win32,60.35003018,55978,,,,,,,,,,,,,,,,,,,,,,,,,,,down,0,0.8113,,-0.053703704,-0.372222222,1,0,0,0.6,0,90,90,114,1,vullen,images/br_vullen.png,images/cb_vullen.png,0,,,,,,,,,,,,,,,,,,,,,,
,,,,,,,2023-09-26_21h27.53.945,vbt_B2_day2,2022.2.4,Win32,60.35003018,55978,,,,,,,,,,,,,,,,,,,,,,,,,,,down,0,0.9347,,-0.053703704,-0.372222222,1,0,0,1.9662,0,91,91,88,1,boeien,images/br_boeien.png,images/cb_boeien.png,0,,,,,,,,,,,,,,,,,,,,,,
,,,,,,,2023-09-26_21h27.53.945,vbt_B2_day2,2022.2.4,Win32,60.35003018,55978,,,,,,,,,,,,,,,,,,,,,,,,,,,down,0,0.8019,,-0.053703704,-0.372222222,1,0,0,0.6493,0,92,92,25,1,plek,images/br_plek.png,images/cb_plek.png,0,,,,,,,,,,,,,,,,,,,,,,
,,,,,,,2023-09-26_21h27.53.945,vbt_B2_day2,2022.2.4,Win32,60.35003018,55978,,,,,,,,,,,,,,,,,,,,,,,,,,,down,0,7.2171,,-0.05,-0.358333333,1,0,0,6.1325,0,93,93,57,1,steek,images/br_steek.png,images/cb_steek.png,1,steek,,,,,,,,,,,,,,,,,,,,,
,,,,,,,2023-09-26_21h27.53.945,vbt_B2_day2,2022.2.4,Win32,60.35003018,55978,,,,,,,,,,,,,,,,,,,,,,,,,,,down,0,1.2572,,-0.05,-0.358333333,1,0,0,0.6665,0,94,94,102,1,legaal,images/br_legaal.png,images/cb_legaal.png,0,,,,,,,,,,,,,,,,,,,,,,
,,,,,,,2023-09-26_21h27.53.945,vbt_B2_day2,2022.2.4,Win32,60.35003018,55978,,,,,,,,,,,,,,,,,,,,,,,,,,,down,0,2.2567,,-0.05,-0.358333333,1,0,0,0.8828,0,95,95,79,1,nodig,images/br_nodig.png,images/cb_nodig.png,0,,,,,,,,,,,,,,,,,,,,,,
,,,,,,,2023-09-26_21h27.53.945,vbt_B2_day2,2022.2.4,Win32,60.35003018,55978,,,,,,,,,,,,,,,,,,,,,,,,,,,down,0,1.0191,,-0.05,-0.358333333,1,0,0,2.6993,0,96,96,33,1,vlek,images/br_vlek.png,images/cb_vlek.png,0,,,,,,,,,,,,,,,,,,,,,,
,,,,,,,2023-09-26_21h27.53.945,vbt_B2_day2,2022.2.4,Win32,60.35003018,55978,,,,,,,,,,,,,,,,,,,,,,,,,,,down,0,1.9306,,-0.05,-0.358333333,1,0,0,0.5506,0,97,97,28,1,stal,images/br_stal.png,images/cb_stal.png,0,,,,,,,,,,,,,,,,,,,,,,
,,,,,,,2023-09-26_21h27.53.945,vbt_B2_day2,2022.2.4,Win32,60.35003018,55978,,,,,,,,,,,,,,,,,,,,,,,,,,,down,0,1.2841,,-0.05,-0.358333333,1,0,0,4.9663,0,98,98,34,1,vorm,images/br_vorm.png,images/cb_vorm.png,0,,,,,,,,,,,,,,,,,,,,,,
,,,,,,,2023-09-26_21h27.53.945,vbt_B2_day2,2022.2.4,Win32,60.35003018,55978,,,,,,,,,,,,,,,,,,,,,,,,,,,down,0,4.0881,,-0.05,-0.358333333,1,0,0,0.684,0,99,99,139,1,stiekem,images/br_stiekem.png,images/cb_stiekem.png,1,stiekem,,,,,,,,,,,,,,,,,,,,,
,,,,,,,2023-09-26_21h27.53.945,vbt_B2_day2,2022.2.4,Win32,60.35003018,55978,,,,,,,,,,,,,,,,,,,,,,,,,,,down,0,0.0843,,-0.05,-0.358333333,1,0,0,0.7661,0,100,100,13,1,kaal,images/br_kaal.png,images/cb_kaal.png,0,,,,,,,,,,,,,,,,,,,,,,
,,,,,,,2023-09-26_21h27.53.945,vbt_B2_day2,2022.2.4,Win32,60.35003018,55978,,,,,,,,,,,,,,,,,,,,,,,,,,,down,0,3.1202,,-0.05,-0.358333333,1,0,0,1.0492,0,101,101,56,1,traag,images/br_traag.png,images/cb_traag.png,1,traag,,,,,,,,,,,,,,,,,,,,,
,,,,,,,2023-09-26_21h27.53.945,vbt_B2_day2,2022.2.4,Win32,60.35003018,55978,,,,,,,,,,,,,,,,,,,,,,,,,,,down,0,8.3847,,-0.05,-0.358333333,1,0,0,0.7669,0,102,102,123,1,hiervan,images/br_hiervan.png,images/cb_hiervan.png,0,,,,,,,,,,,,,,,,,,,,,,
,,,,,,,2023-09-26_21h27.53.945,vbt_B2_day2,2022.2.4,Win32,60.35003018,55978,,,,,,,,,,,,,,,,,,,,,,,,,,,down,0,2.1861,,-0.05,-0.358333333,1,0,0,0.8168,0,103,103,89,1,slapen,images/br_slapen.png,images/cb_slapen.png,0,,,,,,,,,,,,,,,,,,,,,,
,,,,,,,2023-09-26_21h27.53.945,vbt_B2_day2,2022.2.4,Win32,60.35003018,55978,,,,,,,,,,,,,,,,,,,,,,,,,,,down,0,14.3441,,-0.05,-0.358333333,1,0,0,0.949,0,104,104,94,1,oceaan,images/br_oceaan.png,images/cb_oceaan.png,0,,,,,,,,,,,,,,,,,,,,,,
,,,,,,,2023-09-26_21h27.53.945,vbt_B2_day2,2022.2.4,Win32,60.35003018,55978,,,,,,,,,,,,,,,,,,,,,,,,,,,down,0,1.5181,,-0.05,-0.358333333,1,0,0,0.7328,0,105,105,115,1,kleren,images/br_kleren.png,images/cb_kleren.png,0,,,,,,,,,,,,,,,,,,,,,,
,,,,,,,2023-09-26_21h27.53.945,vbt_B2_day2,2022.2.4,Win32,60.35003018,55978,,,,,,,,,,,,,,,,,,,,,,,,,,,down,0,4.2342,,-0.05,-0.358333333,1,0,0,1.1005,0,106,106,147,1,komisch,images/br_komisch.png,images/cb_komisch.png,0,,,,,,,,,,,,,,,,,,,,,,
,,,,,,,2023-09-26_21h27.53.945,vbt_B2_day2,2022.2.4,Win32,60.35003018,55978,,,,,,,,,,,,,,,,,,,,,,,,,,,down,0,2.5243,,-0.05,-0.358333333,1,0,0,2.4338,0,107,107,97,1,loyaal,images/br_loyaal.png,images/cb_loyaal.png,1,,,,,,,,,,,,,,,,,,,,,,
,,,,,,,2023-09-26_21h27.53.945,vbt_B2_day2,2022.2.4,Win32,60.35003018,55978,,,,,,,,,,,,,,,,,,,,,,,,,,,down,0,1.6173,,-0.05,-0.358333333,1,0,0,0.7991,0,108,108,36,1,vuur,images/br_vuur.png,images/cb_vuur.png,0,,,,,,,,,,,,,,,,,,,,,,
,,,,,,,2023-09-26_21h27.53.945,vbt_B2_day2,2022.2.4,Win32,60.35003018,55978,,,,,,,,,,,,,,,,,,,,,,,,,,,down,0,2.0775,,-0.05,-0.358333333,1,0,0,0.7326,0,109,109,31,1,poes,images/br_poes.png,images/cb_poes.png,0,,,,,,,,,,,,,,,,,,,,,,
,,,,,,,2023-09-26_21h27.53.945,vbt_B2_day2,2022.2.4,Win32,60.35003018,55978,,,,,,,,,,,,,,,,,,,,,,,,,,,down,0,1.4897,,-0.05,-0.358333333,1,0,0,0.6003,0,110,110,26,1,leuk,images/br_leuk.png,images/cb_leuk.png,0,,,,,,,,,,,,,,,,,,,,,,
,,,,,,,2023-09-26_21h27.53.945,vbt_B2_day2,2022.2.4,Win32,60.35003018,55978,,,,,,,,,,,,,,,,,,,,,,,,,,,down,0,5.7917,,-0.05,-0.358333333,1,0,0,0.6173,0,111,111,111,1,ticket,images/br_ticket.png,images/cb_ticket.png,0,,,,,,,,,,,,,,,,,,,,,,
,,,,,,,2023-09-26_21h27.53.945,vbt_B2_day2,2022.2.4,Win32,60.35003018,55978,,,,,,,,,,,,,,,,,,,,,,,,,,,down,0,2.0019,,-0.05,-0.358333333,1,0,0,0.5329,0,112,112,22,1,stof,images/br_stof.png,images/cb_stof.png,0,,,,,,,,,,,,,,,,,,,,,,
,,,,,,,2023-09-26_21h27.53.945,vbt_B2_day2,2022.2.4,Win32,60.35003018,55978,,,,,,,,,,,,,,,,,,,,,,,,,,,down,0,1.4845,,-0.05,-0.358333333,1,0,0,0.5994,0,113,113,62,1,knaap,images/br_knaap.png,images/cb_knaap.png,0,,,,,,,,,,,,,,,,,,,,,,
,,,,,,,2023-09-26_21h27.53.945,vbt_B2_day2,2022.2.4,Win32,60.35003018,55978,,,,,,,,,,,,,,,,,,,,,,,,,,,down,0,2.0505,,-0.05,-0.358333333,1,0,0,0.5994,0,114,114,113,1,koppen,images/br_koppen.png,images/cb_koppen.png,0,,,,,,,,,,,,,,,,,,,,,,
,,,,,,,2023-09-26_21h27.53.945,vbt_B2_day2,2022.2.4,Win32,60.35003018,55978,,,,,,,,,,,,,,,,,,,,,,,,,,,down,0,1.2011,,-0.05,-0.358333333,1,0,0,0.6997,0,115,115,151,1,aanzoek,images/br_aanzoek.png,images/cb_aanzoek.png,0,,,,,,,,,,,,,,,,,,,,,,
,,,,,,,2023-09-26_21h27.53.945,vbt_B2_day2,2022.2.4,Win32,60.35003018,55978,,,,,,,,,,,,,,,,,,,,,,,,,,,down,0,1.6542,,-0.05,-0.358333333,1,0,0,0.6837,0,116,116,77,1,woede,images/br_woede.png,images/cb_woede.png,0,,,,,,,,,,,,,,,,,,,,,,
,,,,,,,2023-09-26_21h27.53.945,vbt_B2_day2,2022.2.4,Win32,60.35003018,55978,,,,,,,,,,,,,,,,,,,,,,,,,,,down,0,5.8572,,-0.05,-0.358333333,1,0,0,0.7833,0,117,117,108,1,excuus,images/br_excuus.png,images/cb_excuus.png,0,,,,,,,,,,,,,,,,,,,,,,
,,,,,,,2023-09-26_21h27.53.945,vbt_B2_day2,2022.2.4,Win32,60.35003018,55978,,,,,,,,,,,,,,,,,,,,,,,,,,,down,0,0.8589,,-0.05,-0.358333333,1,0,0,0.5172,0,118,118,5,1,blad,images/br_blad.png,images/cb_blad.png,0,,,,,,,,,,,,,,,,,,,,,,
,,,,,,,2023-09-26_21h27.53.945,vbt_B2_day2,2022.2.4,Win32,60.35003018,55978,,,,,,,,,,,,,,,,,,,,,,,,,,,down,0,4.052,,-0.05,-0.358333333,1,0,0,0.6337,0,119,119,166,1,strikken,images/br_strikken.png,images/cb_strikken.png,0,,,,,,,,,,,,,,,,,,,,,,
,,,,,,,2023-09-26_21h27.53.945,vbt_B2_day2,2022.2.4,Win32,60.35003018,55978,,,,,,,,,,,,,,,,,,,,,,,,,,,down,0,12.9738,,-0.05,-0.358333333,1,0,0,0.6998,0,120,120,143,1,hechten,images/br_hechten.png,images/cb_hechten.png,0,,,,,,,,,,,,,,,,,,,,,,
,,,,,,,2023-09-26_21h27.53.945,vbt_B2_day2,2022.2.4,Win32,60.35003018,55978,,,,,,,,,,,,,,,,,,,,,,,,,,,down,0,2.3438,,-0.05,-0.358333333,1,0,0,0.6507,0,121,121,92,1,geheim,images/br_geheim.png,images/cb_geheim.png,0,,,,,,,,,,,,,,,,,,,,,,
,,,,,,,2023-09-26_21h27.53.945,vbt_B2_day2,2022.2.4,Win32,60.35003018,55978,,,,,,,,,,,,,,,,,,,,,,,,,,,down,0,4.6518,,-0.05,-0.358333333,1,0,0,0.8333,0,122,122,154,1,aflopen,images/br_aflopen.png,images/cb_aflopen.png,0,,,,,,,,,,,,,,,,,,,,,,
,,,,,,,2023-09-26_21h27.53.945,vbt_B2_day2,2022.2.4,Win32,60.35003018,55978,,,,,,,,,,,,,,,,,,,,,,,,,,,down,0,2.5738,,-0.05,-0.358333333,1,0,0,0.683,0,123,123,135,1,gedicht,images/br_gedicht.png,images/cb_gedicht.png,0,,,,,,,,,,,,,,,,,,,,,,
,,,,,,,2023-09-26_21h27.53.945,vbt_B2_day2,2022.2.4,Win32,60.35003018,55978,,,,,,,,,,,,,,,,,,,,,,,,,,,down,0,1.1049,,-0.05,-0.358333333,1,0,0,3.7829,0,124,124,132,1,grappen,images/br_grappen.png,images/cb_grappen.png,0,,,,,,,,,,,,,,,,,,,,,,
,,,,,,,2023-09-26_21h27.53.945,vbt_B2_day2,2022.2.4,Win32,60.35003018,55978,,,,,,,,,,,,,,,,,,,,,,,,,,,down,0,2.0173,,-0.047222222,-0.355555556,1,0,0,0.8162,0,125,125,188,1,strekken,images/br_strekken.png,images/cb_strekken.png,0,,,,,,,,,,,,,,,,,,,,,,
,,,,,,,2023-09-26_21h27.53.945,vbt_B2_day2,2022.2.4,Win32,60.35003018,55978,,,,,,,,,,,,,,,,,,,,,,,,,,,down,0,5.2734,,-0.047222222,-0.355555556,1,0,0,1.1825,0,126,126,60,1,jasje,images/br_jasje.png,images/cb_jasje.png,0,,,,,,,,,,,,,,,,,,,,,,
,,,,,,,2023-09-26_21h27.53.945,vbt_B2_day2,2022.2.4,Win32,60.35003018,55978,,,,,,,,,,,,,,,,,,,,,,,,,,,down,0,3.1849,,-0.047222222,-0.355555556,1,0,0,0.7504,0,127,127,52,1,wagon,images/br_wagon.png,images/cb_wagon.png,0,,,,,,,,,,,,,,,,,,,,,,
,,,,,,,2023-09-26_21h27.53.945,vbt_B2_day2,2022.2.4,Win32,60.35003018,55978,,,,,,,,,,,,,,,,,,,,,,,,,,,down,0,9.3272,,-0.047222222,-0.355555556,1,0,0,3.7339,0,128,128,68,1,schat,images/br_schat.png,images/cb_schat.png,0,,,,,,,,,,,,,,,,,,,,,,
,,,,,,,2023-09-26_21h27.53.945,vbt_B2_day2,2022.2.4,Win32,60.35003018,55978,,,,,,,,,,,,,,,,,,,,,,,,,,,down,0,2.577,,-0.047222222,-0.355555556,1,0,0,0.5838,0,129,129,157,1,uitlaat,images/br_uitlaat.png,images/cb_uitlaat.png,0,,,,,,,,,,,,,,,,,,,,,,
,,,,,,,2023-09-26_21h27.53.945,vbt_B2_day2,2022.2.4,Win32,60.35003018,55978,,,,,,,,,,,,,,,,,,,,,,,,,,,down,0,4.8506,,-0.047222222,-0.355555556,1,0,0,0.8007,0,130,130,175,1,heengaan,images/br_heengaan.png,images/cb_heengaan.png,0,,,,,,,,,,,,,,,,,,,,,,
,,,,,,,2023-09-26_21h27.53.945,vbt_B2_day2,2022.2.4,Win32,60.35003018,55978,,,,,,,,,,,,,,,,,,,,,,,,,,,down,0,4.7164,,-0.047222222,-0.355555556,1,0,0,1.0333,0,131,131,193,1,weeshuis,images/br_weeshuis.png,images/cb_weeshuis.png,0,,,,,,,,,,,,,,,,,,,,,,
,,,,,,,2023-09-26_21h27.53.945,vbt_B2_day2,2022.2.4,Win32,60.35003018,55978,,,,,,,,,,,,,,,,,,,,,,,,,,,down,0,2.5007,,-0.047222222,-0.355555556,1,0,0,0.9337,0,132,132,155,1,gerucht,images/br_gerucht.png,images/cb_gerucht.png,0,,,,,,,,,,,,,,,,,,,,,,
,,,,,,,2023-09-26_21h27.53.945,vbt_B2_day2,2022.2.4,Win32,60.35003018,55978,,,,,,,,,,,,,,,,,,,,,,,,,,,down,0,1.6225,,-0.047222222,-0.355555556,1,0,0,0.8502,0,133,133,72,1,strak,images/br_strak.png,images/cb_strak.png,0,,,,,,,,,,,,,,,,,,,,,,
,,,,,,,2023-09-26_21h27.53.945,vbt_B2_day2,2022.2.4,Win32,60.35003018,55978,,,,,,,,,,,,,,,,,,,,,,,,,,,down,0,2.6008,,-0.047222222,-0.355555556,1,0,0,1.0332,0,134,134,106,1,zingen,images/br_zingen.png,images/cb_zingen.png,0,,,,,,,,,,,,,,,,,,,,,,
,,,,,,,2023-09-26_21h27.53.945,vbt_B2_day2,2022.2.4,Win32,60.35003018,55978,,,,,,,,,,,,,,,,,,,,,,,,,,,down,0,2.5193,,-0.047222222,-0.355555556,1,0,0,0.8499,0,135,135,162,1,uitdelen,images/br_uitdelen.png,images/cb_uitdelen.png,0,,,,,,,,,,,,,,,,,,,,,,
,,,,,,,2023-09-26_21h27.53.945,vbt_B2_day2,2022.2.4,Win32,60.35003018,55978,,,,,,,,,,,,,,,,,,,,,,,,,,,down,0,1.3502,,-0.047222222,-0.355555556,1,0,0,0.6999,0,136,136,141,1,knielen,images/br_knielen.png,images/cb_knielen.png,0,,,,,,,,,,,,,,,,,,,,,,
,,,,,,,2023-09-26_21h27.53.945,vbt_B2_day2,2022.2.4,Win32,60.35003018,55978,,,,,,,,,,,,,,,,,,,,,,,,,,,down,0,2.3508,,-0.047222222,-0.355555556,1,0,0,1.0003,0,137,137,46,1,jagen,images/br_jagen.png,images/cb_jagen.png,0,,,,,,,,,,,,,,,,,,,,,,
,,,,,,,2023-09-26_21h27.53.945,vbt_B2_day2,2022.2.4,Win32,60.35003018,55978,,,,,,,,,,,,,,,,,,,,,,,,,,,down,0,5.0758,,-0.047222222,-0.355555556,1,0,0,0.7842,0,138,138,180,1,openbaar,images/br_openbaar.png,images/cb_openbaar.png,0,,,,,,,,,,,,,,,,,,,,,,
,,,,,,,2023-09-26_21h27.53.945,vbt_B2_day2,2022.2.4,Win32,60.35003018,55978,,,,,,,,,,,,,,,,,,,,,,,,,,,down,0,3.4361,,-0.047222222,-0.355555556,1,0,0,1.1496,0,139,139,167,1,eenhoorn,images/br_eenhoorn.png,images/cb_eenhoorn.png,0,,,,,,,,,,,,,,,,,,,,,,
,,,,,,,2023-09-26_21h27.53.945,vbt_B2_day2,2022.2.4,Win32,60.35003018,55978,,,,,,,,,,,,,,,,,,,,,,,,,,,down,0,1.8185,,-0.047222222,-0.355555556,1,0,0,0.9163,0,140,140,169,1,oprotten,images/br_oprotten.png,images/cb_oprotten.png,0,,,,,,,,,,,,,,,,,,,,,,
,,,,,,,2023-09-26_21h27.53.945,vbt_B2_day2,2022.2.4,Win32,60.35003018,55978,,,,,,,,,,,,,,,,,,,,,,,,,,,down,0,3.1666,,-0.047222222,-0.355555556,1,0,0,0.7498,0,141,141,163,1,schuilen,images/br_schuilen.png,images/cb_schuilen.png,0,,,,,,,,,,,,,,,,,,,,,,
,,,,,,,2023-09-26_21h27.53.945,vbt_B2_day2,2022.2.4,Win32,60.35003018,55978,,,,,,,,,,,,,,,,,,,,,,,,,,,down,0,2.7594,,-0.047222222,-0.355555556,1,0,0,1.2833,0,142,142,189,1,aanraden,images/br_aanraden.png,images/cb_aanraden.png,0,,,,,,,,,,,,,,,,,,,,,,
,,,,,,,2023-09-26_21h27.53.945,vbt_B2_day2,2022.2.4,Win32,60.35003018,55978,,,,,,,,,,,,,,,,,,,,,,,,,,,down,0,0.8778,,-0.047222222,-0.355555556,1,0,0,1.0161,0,143,143,150,1,gegeven,images/br_gegeven.png,images/cb_gegeven.png,0,,,,,,,,,,,,,,,,,,,,,,
,,,,,,,2023-09-26_21h27.53.945,vbt_B2_day2,2022.2.4,Win32,60.35003018,55978,,,,,,,,,,,,,,,,,,,,,,,,,,,down,0,0.686,,-0.047222222,-0.355555556,1,0,0,3.5661,0,144,144,7,1,geld,images/br_geld.png,images/cb_geld.png,0,,,,,,,,,,,,,,,,,,,,,,
,,,,,,,2023-09-26_21h27.53.945,vbt_B2_day2,2022.2.4,Win32,60.35003018,55978,,,,,,,,,,,,,,,,,,,,,,,,,,,down,0,3.668,,-0.047222222,-0.355555556,1,0,0,0.6169,0,145,145,127,1,doodmoe,images/br_doodmoe.png,images/cb_doodmoe.png,0,,,,,,,,,,,,,,,,,,,,,,
,,,,,,,2023-09-26_21h27.53.945,vbt_B2_day2,2022.2.4,Win32,60.35003018,55978,,,,,,,,,,,,,,,,,,,,,,,,,,,down,0,2.1023,,-0.047222222,-0.355555556,1,0,0,0.9332,0,146,146,41,1,maken,images/br_maken.png,images/cb_maken.png,0,,,,,,,,,,,,,,,,,,,,,,
,,,,,,,2023-09-26_21h27.53.945,vbt_B2_day2,2022.2.4,Win32,60.35003018,55978,,,,,,,,,,,,,,,,,,,,,,,,,,,down,0,2.1712,,-0.047222222,-0.355555556,1,0,0,0.6161,0,147,147,76,1,afval,images/br_afval.png,images/cb_afval.png,0,,,,,,,,,,,,,,,,,,,,,,
,,,,,,,2023-09-26_21h27.53.945,vbt_B2_day2,2022.2.4,Win32,60.35003018,55978,,,,,,,,,,,,,,,,,,,,,,,,,,,down,0,3.8851,,-0.047222222,-0.355555556,1,0,0,0.6664,0,148,148,30,1,uien,images/br_uien.png,images/cb_uien.png,0,,,,,,,,,,,,,,,,,,,,,,
,,,,,,,2023-09-26_21h27.53.945,vbt_B2_day2,2022.2.4,Win32,60.35003018,55978,,,,,,,,,,,,,,,,,,,,,,,,,,,down,0,0.7185,,-0.047222222,-0.355555556,1,0,0,0.6828,0,149,149,29,1,baas,images/br_baas.png,images/cb_baas.png,0,,,,,,,,,,,,,,,,,,,,,,
,,,,,,,2023-09-26_21h27.53.945,vbt_B2_day2,2022.2.4,Win32,60.35003018,55978,,,,,,,,,,,,,,,,,,,,,,,,,,,down,0,0.3857,,-0.047222222,-0.355555556,1,0,0,5.7497,0,150,150,125,1,aanzien,images/br_aanzien.png,images/cb_aanzien.png,0,,,,,,,,,,,,,,,,,,,,,,
,,,,,,,2023-09-26_21h27.53.945,vbt_B2_day2,2022.2.4,Win32,60.35003018,55978,,,,,,,,,,,,,,,,,,,,,,,,,,,down,0,0.7938,,-0.047222222,-0.355555556,1,0,0,0.6834,0,151,151,75,1,snoep,images/br_snoep.png,images/cb_snoep.png,0,,,,,,,,,,,,,,,,,,,,,,
,,,,,,,2023-09-26_21h27.53.945,vbt_B2_day2,2022.2.4,Win32,60.35003018,55978,,,,,,,,,,,,,,,,,,,,,,,,,,,down,0,1.3514,,-0.047222222,-0.355555556,1,0,0,0.7991,0,152,152,171,1,aarzelen,images/br_aarzelen.png,images/cb_aarzelen.png,0,,,,,,,,,,,,,,,,,,,,,,
,,,,,,,2023-09-26_21h27.53.945,vbt_B2_day2,2022.2.4,Win32,60.35003018,55978,,,,,,,,,,,,,,,,,,,,,,,,,,,down,0,2.0026,,-0.047222222,-0.355555556,1,0,0,0.7324,0,153,153,6,1,diep,images/br_diep.png,images/cb_diep.png,0,,,,,,,,,,,,,,,,,,,,,,
,,,,,,,2023-09-26_21h27.53.945,vbt_B2_day2,2022.2.4,Win32,60.35003018,55978,,,,,,,,,,,,,,,,,,,,,,,,,,,down,0,1.6086,,-0.047222222,-0.355555556,1,0,0,1.0175,0,154,154,140,1,blijven,images/br_blijven.png,images/cb_blijven.png,0,,,,,,,,,,,,,,,,,,,,,,
,,,,,,,2023-09-26_21h27.53.945,vbt_B2_day2,2022.2.4,Win32,60.35003018,55978,,,,,,,,,,,,,,,,,,,,,,,,,,,down,0,3.2181,,-0.047222222,-0.355555556,1,0,0,1.8668,0,155,155,186,1,voorraad,images/br_voorraad.png,images/cb_voorraad.png,0,,,,,,,,,,,,,,,,,,,,,,
,,,,,,,2023-09-26_21h27.53.945,vbt_B2_day2,2022.2.4,Win32,60.35003018,55978,,,,,,,,,,,,,,,,,,,,,,,,,,,down,0,1.9545,,-0.060185185,-0.349074074,1,0,0,1.8333,0,156,156,117,1,kennis,images/br_kennis.png,images/cb_kennis.png,0,,,,,,,,,,,,,,,,,,,,,,
,,,,,,,2023-09-26_21h27.53.945,vbt_B2_day2,2022.2.4,Win32,60.35003018,55978,,,,,,,,,,,,,,,,,,,,,,,,,,,down,0,1.8509,,-0.060185185,-0.349074074,1,0,0,1.0825,0,157,157,103,1,joggen,images/br_joggen.png,images/cb_joggen.png,0,,,,,,,,,,,,,,,,,,,,,,
,,,,,,,2023-09-26_21h27.53.945,vbt_B2_day2,2022.2.4,Win32,60.35003018,55978,,,,,,,,,,,,,,,,,,,,,,,,,,,down,0,1.1349,,-0.060185185,-0.349074074,1,0,0,0.8492,0,158,158,24,1,jurk,images/br_jurk.png,images/cb_jurk.png,0,,,,,,,,,,,,,,,,,,,,,,
,,,,,,,2023-09-26_21h27.53.945,vbt_B2_day2,2022.2.4,Win32,60.35003018,55978,,,,,,,,,,,,,,,,,,,,,,,,,,,down,0,3.8219,,-0.060185185,-0.349074074,1,0,0,1.2501,0,159,159,191,1,opheffen,images/br_opheffen.png,images/cb_opheffen.png,0,,,,,,,,,,,,,,,,,,,,,,
,,,,,,,2023-09-26_21h27.53.945,vbt_B2_day2,2022.2.4,Win32,60.35003018,55978,,,,,,,,,,,,,,,,,,,,,,,,,,,down,0,8.3105,,-0.060185185,-0.349074074,1,0,0,1.0663,0,160,160,130,1,keihard,images/br_keihard.png,images/cb_keihard.png,0,,,,,,,,,,,,,,,,,,,,,,
,,,,,,,2023-09-26_21h27.53.945,vbt_B2_day2,2022.2.4,Win32,60.35003018,55978,,,,,,,,,,,,,,,,,,,,,,,,,,,down,0,0.3729,,-0.060185185,-0.349074074,1,0,0,2.8505,0,161,161,0,1,slak,images/br_slak.png,images/cb_slak.png,0,,,,,,,,,,,,,,,,,,,,,,
,,,,,,,2023-09-26_21h27.53.945,vbt_B2_day2,2022.2.4,Win32,60.35003018,55978,,,,,,,,,,,,,,,,,,,,,,,,,,,down,0,1.8776,,-0.060185185,-0.349074074,1,0,0,0.8484,0,162,162,37,1,mijn,images/br_mijn.png,images/cb_mijn.png,0,,,,,,,,,,,,,,,,,,,,,,
,,,,,,,2023-09-26_21h27.53.945,vbt_B2_day2,2022.2.4,Win32,60.35003018,55978,,,,,,,,,,,,,,,,,,,,,,,,,,,down,0,2.3012,,-0.060185185,-0.349074074,1,0,0,1.1657,0,163,163,142,1,snuiven,images/br_snuiven.png,images/cb_snuiven.png,0,,,,,,,,,,,,,,,,,,,,,,
,,,,,,,2023-09-26_21h27.53.945,vbt_B2_day2,2022.2.4,Win32,60.35003018,55978,,,,,,,,,,,,,,,,,,,,,,,,,,,down,0,1.9516,,-0.060185185,-0.349074074,1,0,0,6.3168,0,164,164,128,1,prikken,images/br_prikken.png,images/cb_prikken.png,0,,,,,,,,,,,,,,,,,,,,,,
,,,,,,,2023-09-26_21h27.53.945,vbt_B2_day2,2022.2.4,Win32,60.35003018,55978,,,,,,,,,,,,,,,,,,,,,,,,,,,down,0,0.3524,,-0.060185185,-0.349074074,1,0,0,0.6663,0,165,165,51,1,samen,images/br_samen.png,images/cb_samen.png,0,,,,,,,,,,,,,,,,,,,,,,
,,,,,,,2023-09-26_21h27.53.945,vbt_B2_day2,2022.2.4,Win32,60.35003018,55978,,,,,,,,,,,,,,,,,,,,,,,,,,,down,0,2.323,,-0.060185185,-0.349074074,1,0,0,2.266,0,166,166,86,1,woning,images/br_woning.png,images/cb_woning.png,0,,,,,,,,,,,,,,,,,,,,,,
,,,,,,,2023-09-26_21h27.53.945,vbt_B2_day2,2022.2.4,Win32,60.35003018,55978,,,,,,,,,,,,,,,,,,,,,,,,,,,down,0,2.2498,,-0.060185185,-0.349074074,1,0,0,0.8003,0,167,167,107,1,maling,images/br_maling.png,images/cb_maling.png,0,,,,,,,,,,,,,,,,,,,,,,
,,,,,,,2023-09-26_21h27.53.945,vbt_B2_day2,2022.2.4,Win32,60.35003018,55978,,,,,,,,,,,,,,,,,,,,,,,,,,,down,0,1.0352,,-0.060185185,-0.349074074,1,0,0,1.2659,0,168,168,15,1,soda,images/br_soda.png,images/cb_soda.png,0,,,,,,,,,,,,,,,,,,,,,,
,,,,,,,2023-09-26_21h27.53.945,vbt_B2_day2,2022.2.4,Win32,60.35003018,55978,,,,,,,,,,,,,,,,,,,,,,,,,,,down,0,3.9407,,-0.060185185,-0.349074074,1,0,0,10.2656,0,169,169,197,1,spanning,images/br_spanning.png,images/cb_spanning.png,0,,,,,,,,,,,,,,,,,,,,,,
,,,,,,,2023-09-26_21h27.53.945,vbt_B2_day2,2022.2.4,Win32,60.35003018,55978,,,,,,,,,,,,,,,,,,,,,,,,,,,down,0,3.117,,-0.060185185,-0.349074074,1,0,0,0.5001,0,170,170,61,1,groen,images/br_groen.png,images/cb_groen.png,0,,,,,,,,,,,,,,,,,,,,,,
,,,,,,,2023-09-26_21h27.53.945,vbt_B2_day2,2022.2.4,Win32,60.35003018,55978,,,,,,,,,,,,,,,,,,,,,,,,,,,down,0,2.9851,,-0.060185185,-0.349074074,1,0,0,0.7334,0,171,171,194,1,driemaal,images/br_driemaal.png,images/cb_driemaal.png,0,,,,,,,,,,,,,,,,,,,,,,
,,,,,,,2023-09-26_21h27.53.945,vbt_B2_day2,2022.2.4,Win32,60.35003018,55978,,,,,,,,,,,,,,,,,,,,,,,,,,,down,0,7.6497,,-0.060185185,-0.349074074,1,0,0,1.1659,0,172,172,131,1,opzicht,images/br_opzicht.png,images/cb_opzicht.png,0,,,,,,,,,,,,,,,,,,,,,,
,,,,,,,2023-09-26_21h27.53.945,vbt_B2_day2,2022.2.4,Win32,60.35003018,55978,,,,,,,,,,,,,,,,,,,,,,,,,,,down,0,1.1224,,-0.060185185,-0.349074074,1,0,0,0.5997,0,173,173,66,1,lever,images/br_lever.png,images/cb_lever.png,0,,,,,,,,,,,,,,,,,,,,,,
,,,,,,,2023-09-26_21h27.53.945,vbt_B2_day2,2022.2.4,Win32,60.35003018,55978,,,,,,,,,,,,,,,,,,,,,,,,,,,down,0,1.1868,,-0.057407407,-0.353703704,1,0,0,0.7814,0,174,174,55,1,praat,images/br_praat.png,images/cb_praat.png,0,,,,,,,,,,,,,,,,,,,,,,
,,,,,,,2023-09-26_21h27.53.945,vbt_B2_day2,2022.2.4,Win32,60.35003018,55978,,,,,,,,,,,,,,,,,,,,,,,,,,,down,0,3.3071,,-0.057407407,-0.353703704,1,0,0,1.2831,0,175,175,47,1,kabel,images/br_kabel.png,images/cb_kabel.png,0,,,,,,,,,,,,,,,,,,,,,,
,,,,,,,2023-09-26_21h27.53.945,vbt_B2_day2,2022.2.4,Win32,60.35003018,55978,,,,,,,,,,,,,,,,,,,,,,,,,,,down,0,4.8687,,-0.057407407,-0.353703704,1,0,0,2.116,0,176,176,63,1,flirt,images/br_flirt.png,images/cb_flirt.png,0,,,,,,,,,,,,,,,,,,,,,,
,,,,,,,2023-09-26_21h27.53.945,vbt_B2_day2,2022.2.4,Win32,60.35003018,55978,,,,,,,,,,,,,,,,,,,,,,,,,,,down,0,7.0674,,-0.057407407,-0.353703704,1,0,0,0.7166,0,177,177,152,1,afnemen,images/br_afnemen.png,images/cb_afnemen.png,0,,,,,,,,,,,,,,,,,,,,,,
,,,,,,,2023-09-26_21h27.53.945,vbt_B2_day2,2022.2.4,Win32,60.35003018,55978,,,,,,,,,,,,,,,,,,,,,,,,,,,down,0,4.7003,,-0.057407407,-0.353703704,1,0,0,1.7172,0,178,178,160,1,daarheen,images/br_daarheen.png,images/cb_daarheen.png,0,,,,,,,,,,,,,,,,,,,,,,
,,,,,,,2023-09-26_21h27.53.945,vbt_B2_day2,2022.2.4,Win32,60.35003018,55978,,,,,,,,,,,,,,,,,,,,,,,,,,,down,0,2.8596,,-0.057407407,-0.353703704,1,0,0,0.698,0,179,179,173,1,apparaat,images/br_apparaat.png,images/cb_apparaat.png,0,,,,,,,,,,,,,,,,,,,,,,
,,,,,,,2023-09-26_21h27.53.945,vbt_B2_day2,2022.2.4,Win32,60.35003018,55978,,,,,,,,,,,,,,,,,,,,,,,,,,,down,0,1.4255,,-0.053703704,-0.352777778,1,0,0,0.7333,0,180,180,93,1,waarop,images/br_waarop.png,images/cb_waarop.png,0,,,,,,,,,,,,,,,,,,,,,,
,,,,,,,2023-09-26_21h27.53.945,vbt_B2_day2,2022.2.4,Win32,60.35003018,55978,,,,,,,,,,,,,,,,,,,,,,,,,,,down,0,3.9456,,-0.053703704,-0.353703704,1,0,0,1.0884,0,181,181,82,1,muziek,images/br_muziek.png,images/cb_muziek.png,0,,,,,,,,,,,,,,,,,,,,,,
,,,,,,,2023-09-26_21h27.53.945,vbt_B2_day2,2022.2.4,Win32,60.35003018,55978,,,,,,,,,,,,,,,,,,,,,,,,,,,down,0,1.3171,,-0.051851852,-0.356481481,1,0,0,0.8599,0,182,182,90,1,geluid,images/br_geluid.png,images/cb_geluid.png,0,,,,,,,,,,,,,,,,,,,,,,
,,,,,,,2023-09-26_21h27.53.945,vbt_B2_day2,2022.2.4,Win32,60.35003018,55978,,,,,,,,,,,,,,,,,,,,,,,,,,,down,0,2.1272,,-0.051851852,-0.356481481,1,0,0,1.471,0,183,183,81,1,dubbel,images/br_dubbel.png,images/cb_dubbel.png,0,,,,,,,,,,,,,,,,,,,,,,
,,,,,,,2023-09-26_21h27.53.945,vbt_B2_day2,2022.2.4,Win32,60.35003018,55978,,,,,,,,,,,,,,,,,,,,,,,,,,,down,0,2.8349,,-0.051851852,-0.356481481,1,0,0,0.7552,0,184,184,45,1,piste,images/br_piste.png,images/cb_piste.png,0,,,,,,,,,,,,,,,,,,,,,,
,,,,,,,2023-09-26_21h27.53.945,vbt_B2_day2,2022.2.4,Win32,60.35003018,55978,,,,,,,,,,,,,,,,,,,,,,,,,,,down,0,2.5362,,-0.051851852,-0.356481481,1,0,0,0.9658,0,185,185,190,1,goedkoop,images/br_goedkoop.png,images/cb_goedkoop.png,0,,,,,,,,,,,,,,,,,,,,,,
,,,,,,,2023-09-26_21h27.53.945,vbt_B2_day2,2022.2.4,Win32,60.35003018,55978,,,,,,,,,,,,,,,,,,,,,,,,,,,down,0,3.3463,,-0.051851852,-0.356481481,1,0,0,1.3495,0,186,186,148,1,smullen,images/br_smullen.png,images/cb_smullen.png,0,,,,,,,,,,,,,,,,,,,,,,
,,,,,,,2023-09-26_21h27.53.945,vbt_B2_day2,2022.2.4,Win32,60.35003018,55978,,,,,,,,,,,,,,,,,,,,,,,,,,,down,0,4.003,,-0.051851852,-0.356481481,1,0,0,0.8385,0,187,187,44,1,flits,images/br_flits.png,images/cb_flits.png,0,,,,,,,,,,,,,,,,,,,,,,
,,,,,,,2023-09-26_21h27.53.945,vbt_B2_day2,2022.2.4,Win32,60.35003018,55978,,,,,,,,,,,,,,,,,,,,,,,,,,,down,0,3.9672,,-0.062962963,-0.383333333,1,0,0,1.0328,0,188,188,138,1,akkoord,images/br_akkoord.png,images/cb_akkoord.png,1,akkoord,,,,,,,,,,,,,,,,,,,,,
,,,,,,,2023-09-26_21h27.53.945,vbt_B2_day2,2022.2.4,Win32,60.35003018,55978,,,,,,,,,,,,,,,,,,,,,,,,,,,down,0,4.6594,,-0.062962963,-0.383333333,1,0,0,0.7332,0,189,189,70,1,ijdel,images/br_ijdel.png,images/cb_ijdel.png,0,,,,,,,,,,,,,,,,,,,,,,
,,,,,,,2023-09-26_21h27.53.945,vbt_B2_day2,2022.2.4,Win32,60.35003018,55978,,,,,,,,,,,,,,,,,,,,,,,,,,,down,0,4.9765,,0.067592593,-0.275,1,0,0,1.0848,0,190,190,158,1,innemen,images/br_innemen.png,images/cb_innemen.png,0,,,,,,,,,,,,,,,,,,,,,,
,,,,,,,2023-09-26_21h27.53.945,vbt_B2_day2,2022.2.4,Win32,60.35003018,55978,,,,,,,,,,,,,,,,,,,,,,,,,,,down,0,3.0111,,0.067592593,-0.275,1,0,0,0.6998,0,191,191,87,1,toeval,images/br_toeval.png,images/cb_toeval.png,0,,,,,,,,,,,,,,,,,,,,,,
,,,,,,,2023-09-26_21h27.53.945,vbt_B2_day2,2022.2.4,Win32,60.35003018,55978,,,,,,,,,,,,,,,,,,,,,,,,,,,down,0,4.474,,0.067592593,-0.275,1,0,0,0.5737,0,192,192,153,1,vervoer,images/br_vervoer.png,images/cb_vervoer.png,0,,,,,,,,,,,,,,,,,,,,,,
,,,,,,,2023-09-26_21h27.53.945,vbt_B2_day2,2022.2.4,Win32,60.35003018,55978,,,,,,,,,,,,,,,,,,,,,,,,,,,down,0,0.7422,,0.067592593,-0.275,1,0,0,1.0003,0,193,193,20,1,site,images/br_site.png,images/cb_site.png,0,,,,,,,,,,,,,,,,,,,,,,
,,,,,,,2023-09-26_21h27.53.945,vbt_B2_day2,2022.2.4,Win32,60.35003018,55978,,,,,,,,,,,,,,,,,,,,,,,,,,,down,0,4.4523,,0.084259259,-0.327777778,1,0,0,1.0165,0,194,194,96,1,slagen,images/br_slagen.png,images/cb_slagen.png,1,slagen,,,,,,,,,,,,,,,,,,,,,
,,,,,,,2023-09-26_21h27.53.945,vbt_B2_day2,2022.2.4,Win32,60.35003018,55978,,,,,,,,,,,,,,,,,,,,,,,,,,,down,0,5.7039,,-0.119444444,-0.310185185,1,0,0,26.9324,0,195,195,199,1,beseffen,images/br_beseffen.png,images/cb_beseffen.png,0,,,,,,,,,,,,,,,,,,,,,,
,,,,,,,2023-09-26_21h27.53.945,vbt_B2_day2,2022.2.4,Win32,60.35003018,55978,,,,,,,,,,,,,,,,,,,,,,,,,,,down,0,4.7355,,-0.119444444,-0.310185185,1,0,0,0.572,0,196,196,118,1,vinger,images/br_vinger.png,images/cb_vinger.png,0,,,,,,,,,,,,,,,,,,,,,,
,,,,,,,2023-09-26_21h27.53.945,vbt_B2_day2,2022.2.4,Win32,60.35003018,55978,,,,,,,,,,,,,,,,,,,,,,,,,,,down,0,2.6342,,-0.119444444,-0.310185185,1,0,0,0.6109,0,197,197,14,1,rijp,images/br_rijp.png,images/cb_rijp.png,0,,,,,,,,,,,,,,,,,,,,,,
,,,,,,,2023-09-26_21h27.53.945,vbt_B2_day2,2022.2.4,Win32,60.35003018,55978,,,,,,,,,,,,,,,,,,,,,,,,,,,down,0,1.1347,,-0.119444444,-0.310185185,1,0,0,0.4995,0,198,198,2,1,jaar,images/br_jaar.png,images/cb_jaar.png,0,,,,,,,,,,,,,,,,,,,,,,
,,,,,,,2023-09-26_21h27.53.945,vbt_B2_day2,2022.2.4,Win32,60.35003018,55978,,,,,,,,,,,,,,,,,,,,,,,,,,,down,0,3.8351,,-0.119444444,-0.310185185,1,0,0,0.7728,0,199,199,183,1,getuigen,images/br_getuigen.png,images/cb_getuigen.png,0,,,,,,,,,,,,,,,,,,,,,,
,,,,,,,2023-09-26_21h27.53.945,vbt_B2_day2,2022.2.4,Win32,60.35003018,55978,,,,,,,,,,,,,,,,,,,,,,,,,,,,,,,,,,,,,,,,,,,,,,,-0.119444444,-0.310185185,1,0,0,,,,,,,,,,,,,,,,
,,,,,,,2023-09-26_21h27.53.945,vbt_B2_day2,2022.2.4,Win32,60.35003018,55978,,,,,,,,,,,,,,,,,,,,,,,,,,,,,,,,,,,,,,,,,,,,,,,,,,,,-0.119444444,-0.310185185,1,0,0,,,,,,,,,,,
,,,,,,,2023-09-26_21h27.53.945,vbt_B2_day2,2022.2.4,Win32,60.35003018,55978,,,,,,,,,,,,,,,,,,,,,,,,,,,,,,,,,,,,,,,,,,flits,images/br_flits.png,images/cb_flits.png,,flits,,,,,,,,,,,-0.060185185,-0.335185185,1,0,0,flits,0,0,0,4,1
,,,,,,,2023-09-26_21h27.53.945,vbt_B2_day2,2022.2.4,Win32,60.35003018,55978,,,,,,,,,,,,,,,,,,,,,,,,,,,,,,,,,,,,,,,,,,joes,images/br_joes.png,images/cb_joes.png,,joes,,,,,,,,,,,-0.060185185,-0.335185185,1,0,0,joes,0,1,1,20,1
,,,,,,,2023-09-26_21h27.53.945,vbt_B2_day2,2022.2.4,Win32,60.35003018,55978,,,,,,,,,,,,,,,,,,,,,,,,,,,,,,,,,,,,,,,,,,sifferd,images/br_sifferd.png,images/cb_sifferd.png,,sifferd,,,,,,,,,,,-0.060185185,-0.335185185,1,0,0,sifferd,0,2,2,32,1
,,,,,,,2023-09-26_21h27.53.945,vbt_B2_day2,2022.2.4,Win32,60.35003018,55978,,,,,,,,,,,,,,,,,,,,,,,,,,,,,,,,,,,,,,,,,,woning,images/br_woning.png,images/cb_woning.png,,woning,,,,,,,,,,,-0.059259259,-0.316666667,1,0,0,woning,0,3,3,10,1
,,,,,,,2023-09-26_21h27.53.945,vbt_B2_day2,2022.2.4,Win32,60.35003018,55978,,,,,,,,,,,,,,,,,,,,,,,,,,,,,,,,,,,,,,,,,,stes,images/br_stes.png,images/cb_stes.png,,stes,,,,,,,,,,,-0.059259259,-0.316666667,1,0,0,stes,0,4,4,21,1
,,,,,,,2023-09-26_21h27.53.945,vbt_B2_day2,2022.2.4,Win32,60.35003018,55978,,,,,,,,,,,,,,,,,,,,,,,,,,,,,,,,,,,,,,,,,,trots,images/br_trots.png,images/cb_trots.png,,trots,,,,,,,,,,,-0.059259259,-0.316666667,1,0,0,trots,0,5,5,44,1
,,,,,,,2023-09-26_21h27.53.945,vbt_B2_day2,2022.2.4,Win32,60.35003018,55978,,,,,,,,,,,,,,,,,,,,,,,,,,,,,,,,,,,,,,,,,,koorts,images/br_koorts.png,images/cb_koorts.png,,koorts,,,,,,,,,,,-0.059259259,-0.316666667,1,0,0,koorts,0,6,6,50,1
,,,,,,,2023-09-26_21h27.53.945,vbt_B2_day2,2022.2.4,Win32,60.35003018,55978,,,,,,,,,,,,,,,,,,,,,,,,,,,,,,,,,,,,,,,,,,sora,images/br_sora.png,images/cb_sora.png,,sora,,,,,,,,,,,-0.059259259,-0.316666667,1,0,0,sora,0,7,7,22,1
,,,,,,,2023-09-26_21h27.53.945,vbt_B2_day2,2022.2.4,Win32,60.35003018,55978,,,,,,,,,,,,,,,,,,,,,,,,,,,,,,,,,,,,,,,,,,anarchie,images/br_anarchie.png,images/cb_anarchie.png,,anarchie,,,,,,,,,,,-0.059259259,-0.316666667,1,0,0,anarchie,0,8,8,16,1
,,,,,,,2023-09-26_21h27.53.945,vbt_B2_day2,2022.2.4,Win32,60.35003018,55978,,,,,,,,,,,,,,,,,,,,,,,,,,,,,,,,,,,,,,,,,,bloeien,images/br_bloeien.png,images/cb_bloeien.png,,bloeien,,,,,,,,,,,-0.059259259,-0.316666667,1,0,0,bloeien,0,9,9,12,1
,,,,,,,2023-09-26_21h27.53.945,vbt_B2_day2,2022.2.4,Win32,60.35003018,55978,,,,,,,,,,,,,,,,,,,,,,,,,,,,,,,,,,,,,,,,,,zomers,images/br_zomers.png,images/cb_zomers.png,,zomers,,,,,,,,,,,-0.059259259,-0.316666667,1,0,0,zomers,0,10,10,48,1
,,,,,,,2023-09-26_21h27.53.945,vbt_B2_day2,2022.2.4,Win32,60.35003018,55978,,,,,,,,,,,,,,,,,,,,,,,,,,,,,,,,,,,,,,,,,,jagen,images/br_jagen.png,images/cb_jagen.png,,jagen,,,,,,,,,,,-0.059259259,-0.316666667,1,0,0,jagen,0,11,11,6,1
,,,,,,,2023-09-26_21h27.53.945,vbt_B2_day2,2022.2.4,Win32,60.35003018,55978,,,,,,,,,,,,,,,,,,,,,,,,,,,,,,,,,,,,,,,,,,lokken,images/br_lokken.png,images/cb_lokken.png,,lokken,,,,,,,,,,,-0.059259259,-0.316666667,1,0,0,lokken,0,12,12,8,1
,,,,,,,2023-09-26_21h27.53.945,vbt_B2_day2,2022.2.4,Win32,60.35003018,55978,,,,,,,,,,,,,,,,,,,,,,,,,,,,,,,,,,,,,,,,,,badon,images/br_badon.png,images/cb_badon.png,,badon,,,,,,,,,,,-0.096296296,-0.264814815,1,0,0,badon,0,13,13,26,1
,,,,,,,2023-09-26_21h27.53.945,vbt_B2_day2,2022.2.4,Win32,60.35003018,55978,,,,,,,,,,,,,,,,,,,,,,,,,,,,,,,,,,,,,,,,,,wijve,images/br_wijve.png,images/cb_wijve.png,,wijve,,,,,,,,,,,-0.096296296,-0.264814815,1,0,0,wijve,0,14,14,27,1
,,,,,,,2023-09-26_21h27.53.945,vbt_B2_day2,2022.2.4,Win32,60.35003018,55978,,,,,,,,,,,,,,,,,,,,,,,,,,,,,,,,,,,,,,,,,,plannen,images/br_plannen.png,images/cb_plannen.png,,plannen,,,,,,,,,,,-0.096296296,-0.264814815,1,0,0,plannen,0,15,15,55,1
,,,,,,,2023-09-26_21h27.53.945,vbt_B2_day2,2022.2.4,Win32,60.35003018,55978,,,,,,,,,,,,,,,,,,,,,,,,,,,,,,,,,,,,,,,,,,aanvraag,images/br_aanvraag.png,images/cb_aanvraag.png,,aanvraag,,,,,,,,,,,-0.096296296,-0.264814815,1,0,0,aanvraag,0,16,16,57,1
,,,,,,,2023-09-26_21h27.53.945,vbt_B2_day2,2022.2.4,Win32,60.35003018,55978,,,,,,,,,,,,,,,,,,,,,,,,,,,,,,,,,,,,,,,,,,dode,images/br_dode.png,images/cb_dode.png,,dode,,,,,,,,,,,-0.096296296,-0.264814815,1,0,0,dode,0,17,17,41,1
,,,,,,,2023-09-26_21h27.53.945,vbt_B2_day2,2022.2.4,Win32,60.35003018,55978,,,,,,,,,,,,,,,,,,,,,,,,,,,,,,,,,,,,,,,,,,moes,images/br_moes.png,images/cb_moes.png,,moes,,,,,,,,,,,-0.096296296,-0.264814815,1,0,0,moes,0,18,18,0,1
,,,,,,,2023-09-26_21h27.53.945,vbt_B2_day2,2022.2.4,Win32,60.35003018,55978,,,,,,,,,,,,,,,,,,,,,,,,,,,,,,,,,,,,,,,,,,geld,images/br_geld.png,images/cb_geld.png,,geld,,,,,,,,,,,-0.096296296,-0.264814815,1,0,0,geld,0,19,19,3,1
,,,,,,,2023-09-26_21h27.53.945,vbt_B2_day2,2022.2.4,Win32,60.35003018,55978,,,,,,,,,,,,,,,,,,,,,,,,,,,,,,,,,,,,,,,,,,thema,images/br_thema.png,images/cb_thema.png,,themr,,,,,,,,,,,-0.096296296,-0.264814815,1,0,0,themr,0,20,20,47,1
,,,,,,,2023-09-26_21h27.53.945,vbt_B2_day2,2022.2.4,Win32,60.35003018,55978,,,,,,,,,,,,,,,,,,,,,,,,,,,,,,,,,,,,,,,,,,heengeen,images/br_heengeen.png,images/cb_heengeen.png,,heengeen,,,,,,,,,,,-0.096296296,-0.264814815,1,0,0,heengeen,0,21,21,38,1
,,,,,,,2023-09-26_21h27.53.945,vbt_B2_day2,2022.2.4,Win32,60.35003018,55978,,,,,,,,,,,,,,,,,,,,,,,,,,,,,,,,,,,,,,,,,,agressie,images/br_agressie.png,images/cb_agressie.png,,agressie,,,,,,,,,,,-0.096296296,-0.264814815,1,0,0,agressie,0,22,22,59,1
,,,,,,,2023-09-26_21h27.53.945,vbt_B2_day2,2022.2.4,Win32,60.35003018,55978,,,,,,,,,,,,,,,,,,,,,,,,,,,,,,,,,,,,,,,,,,kasteel,images/br_kasteel.png,images/cb_kasteel.png,,kasteel,,,,,,,,,,,-0.096296296,-0.264814815,1,0,0,kasteel,0,23,23,14,1
,,,,,,,2023-09-26_21h27.53.945,vbt_B2_day2,2022.2.4,Win32,60.35003018,55978,,,,,,,,,,,,,,,,,,,,,,,,,,,,,,,,,,,,,,,,,,breuk,images/br_breuk.png,images/cb_breuk.png,,breuk,,,,,,,,,,,-0.096296296,-0.264814815,1,0,0,breuk,0,24,24,45,1
,,,,,,,2023-09-26_21h27.53.945,vbt_B2_day2,2022.2.4,Win32,60.35003018,55978,,,,,,,,,,,,,,,,,,,,,,,,,,,,,,,,,,,,,,,,,,goon,images/br_goon.png,images/cb_goon.png,,goon,,,,,,,,,,,-0.096296296,-0.264814815,1,0,0,goon,0,25,25,23,1
,,,,,,,2023-09-26_21h27.53.945,vbt_B2_day2,2022.2.4,Win32,60.35003018,55978,,,,,,,,,,,,,,,,,,,,,,,,,,,,,,,,,,,,,,,,,,kenzis,images/br_kenzis.png,images/cb_kenzis.png,,kenzis,,,,,,,,,,,-0.062962963,-0.268518519,1,0,0,kenzis,0,26,26,30,1
,,,,,,,2023-09-26_21h27.53.945,vbt_B2_day2,2022.2.4,Win32,60.35003018,55978,,,,,,,,,,,,,,,,,,,,,,,,,,,,,,,,,,,,,,,,,,strikken,images/br_strikken.png,images/cb_strikken.png,,strikken,,,,,,,,,,,-0.062962963,-0.268518519,1,0,0,strikken,0,27,27,18,1
,,,,,,,2023-09-26_21h27.53.945,vbt_B2_day2,2022.2.4,Win32,60.35003018,55978,,,,,,,,,,,,,,,,,,,,,,,,,,,,,,,,,,,,,,,,,,lurgen,images/br_lurgen.png,images/cb_lurgen.png,,lurgen,,,,,,,,,,,-0.062962963,-0.268518519,1,0,0,lurgen,0,28,28,29,1
,,,,,,,2023-09-26_21h27.53.945,vbt_B2_day2,2022.2.4,Win32,60.35003018,55978,,,,,,,,,,,,,,,,,,,,,,,,,,,,,,,,,,,,,,,,,,ophuimen,images/br_ophuimen.png,images/cb_ophuimen.png,,ophuimen,,,,,,,,,,,-0.062962963,-0.268518519,1,0,0,ophuimen,0,29,29,36,1
,,,,,,,2023-09-26_21h27.53.945,vbt_B2_day2,2022.2.4,Win32,60.35003018,55978,,,,,,,,,,,,,,,,,,,,,,,,,,,,,,,,,,,,,,,,,,heilig,images/br_heilig.png,images/cb_heilig.png,,heilig,,,,,,,,,,,-0.062962963,-0.268518519,1,0,0,heilig,0,30,30,9,1
,,,,,,,2023-09-26_21h27.53.945,vbt_B2_day2,2022.2.4,Win32,60.35003018,55978,,,,,,,,,,,,,,,,,,,,,,,,,,,,,,,,,,,,,,,,,,aanzien,images/br_aanzien.png,images/cb_aanzien.png,,aanzien,,,,,,,,,,,-0.062962963,-0.268518519,1,0,0,aanzien,0,31,31,13,1
,,,,,,,2023-09-26_21h27.53.945,vbt_B2_day2,2022.2.4,Win32,60.35003018,55978,,,,,,,,,,,,,,,,,,,,,,,,,,,,,,,,,,,,,,,,,,ningen,images/br_ningen.png,images/cb_ningen.png,,ningen,,,,,,,,,,,-0.062962963,-0.268518519,1,0,0,ningen,0,32,32,28,1
,,,,,,,2023-09-26_21h27.53.945,vbt_B2_day2,2022.2.4,Win32,60.35003018,55978,,,,,,,,,,,,,,,,,,,,,,,,,,,,,,,,,,,,,,,,,,inzicht,images/br_inzicht.png,images/cb_inzicht.png,,inzicht,,,,,,,,,,,-0.062962963,-0.268518519,1,0,0,inzicht,0,33,33,53,1
,,,,,,,2023-09-26_21h27.53.945,vbt_B2_day2,2022.2.4,Win32,60.35003018,55978,,,,,,,,,,,,,,,,,,,,,,,,,,,,,,,,,,,,,,,,,,bereuwen,images/br_bereuwen.png,images/cb_bereuwen.png,,bereuwen,,,,,,,,,,,-0.062962963,-0.268518519,1,0,0,bereuwen,0,34,34,39,1
,,,,,,,2023-09-26_21h27.53.945,vbt_B2_day2,2022.2.4,Win32,60.35003018,55978,,,,,,,,,,,,,,,,,,,,,,,,,,,,,,,,,,,,,,,,,,blad,images/br_blad.png,images/cb_blad.png,,blad,,,,,,,,,,,-0.062962963,-0.268518519,1,0,0,blad,0,35,35,1,1
,,,,,,,2023-09-26_21h27.53.945,vbt_B2_day2,2022.2.4,Win32,60.35003018,55978,,,,,,,,,,,,,,,,,,,,,,,,,,,,,,,,,,,,,,,,,,systeem,images/br_systeem.png,images/cb_systeem.png,,systeem,,,,,,,,,,,-0.062962963,-0.268518519,1,0,0,systeem,0,36,36,54,1
,,,,,,,2023-09-26_21h27.53.945,vbt_B2_day2,2022.2.4,Win32,60.35003018,55978,,,,,,,,,,,,,,,,,,,,,,,,,,,,,,,,,,,,,,,,,,diep,images/br_diep.png,images/cb_diep.png,,diep,,,,,,,,,,,-0.062962963,-0.268518519,1,0,0,diep,0,37,37,2,1
,,,,,,,2023-09-26_21h27.53.945,vbt_B2_day2,2022.2.4,Win32,60.35003018,55978,,,,,,,,,,,,,,,,,,,,,,,,,,,,,,,,,,,,,,,,,,doodmoe,images/br_doodmoe.png,images/cb_doodmoe.png,,doodmoe,,,,,,,,,,,-0.062962963,-0.268518519,1,0,0,doodmoe,0,38,38,15,1
,,,,,,,2023-09-26_21h27.53.945,vbt_B2_day2,2022.2.4,Win32,60.35003018,55978,,,,,,,,,,,,,,,,,,,,,,,,,,,,,,,,,,,,,,,,,,toeval,images/br_toeval.png,images/cb_toeval.png,,toeval,,,,,,,,,,,-0.062962963,-0.268518519,1,0,0,toeval,0,39,39,11,1
,,,,,,,2023-09-26_21h27.53.945,vbt_B2_day2,2022.2.4,Win32,60.35003018,55978,,,,,,,,,,,,,,,,,,,,,,,,,,,,,,,,,,,,,,,,,,eenhoorn,images/br_eenhoorn.png,images/cb_eenhoorn.png,,eenhoorn,,,,,,,,,,,-0.062962963,-0.268518519,1,0,0,eenhoorn,0,40,40,19,1
,,,,,,,2023-09-26_21h27.53.945,vbt_B2_day2,2022.2.4,Win32,60.35003018,55978,,,,,,,,,,,,,,,,,,,,,,,,,,,,,,,,,,,,,,,,,,lijnen,images/br_lijnen.png,images/cb_lijnen.png,,lijnen,,,,,,,,,,,-0.062962963,-0.268518519,1,0,0,lijnen,0,41,41,51,1
,,,,,,,2023-09-26_21h27.53.945,vbt_B2_day2,2022.2.4,Win32,60.35003018,55978,,,,,,,,,,,,,,,,,,,,,,,,,,,,,,,,,,,,,,,,,,jong,images/br_jong.png,images/cb_jong.png,,jong,,,,,,,,,,,-0.062962963,-0.268518519,1,0,0,jong,0,42,42,43,1
,,,,,,,2023-09-26_21h27.53.945,vbt_B2_day2,2022.2.4,Win32,60.35003018,55978,,,,,,,,,,,,,,,,,,,,,,,,,,,,,,,,,,,,,,,,,,feestdag,images/br_feestdag.png,images/cb_feestdag.png,,feestdag,,,,,,,,,,,-0.042592593,-0.290740741,1,0,0,feestdag,0,43,43,17,1
,,,,,,,2023-09-26_21h27.53.945,vbt_B2_day2,2022.2.4,Win32,60.35003018,55978,,,,,,,,,,,,,,,,,,,,,,,,,,,,,,,,,,,,,,,,,,remel,images/br_remel.png,images/cb_remel.png,,remel,,,,,,,,,,,-0.464814815,-0.167592593,1,0,0,remel,0,44,44,25,1
,,,,,,,2023-09-26_21h27.53.945,vbt_B2_day2,2022.2.4,Win32,60.35003018,55978,,,,,,,,,,,,,,,,,,,,,,,,,,,,,,,,,,,,,,,,,,kijlen,images/br_kijlen.png,images/cb_kijlen.png,,kijlen,,,,,,,,,,,-0.464814815,-0.167592593,1,0,0,kijlen,0,45,45,31,1
,,,,,,,2023-09-26_21h27.53.945,vbt_B2_day2,2022.2.4,Win32,60.35003018,55978,,,,,,,,,,,,,,,,,,,,,,,,,,,,,,,,,,,,,,,,,,manieren,images/br_manieren.png,images/cb_manieren.png,,manieren,,,,,,,,,,,-0.464814815,-0.167592593,1,0,0,manieren,0,46,46,56,1
,,,,,,,2023-09-26_21h27.53.945,vbt_B2_day2,2022.2.4,Win32,60.35003018,55978,,,,,,,,,,,,,,,,,,,,,,,,,,,,,,,,,,,,,,,,,,welzijn,images/br_welzijn.png,images/cb_welzijn.png,,welzijn,,,,,,,,,,,-0.464814815,-0.167592593,1,0,0,welzijn,0,47,47,52,1
,,,,,,,2023-09-26_21h27.53.945,vbt_B2_day2,2022.2.4,Win32,60.35003018,55978,,,,,,,,,,,,,,,,,,,,,,,,,,,,,,,,,,,,,,,,,,kabel,images/br_kabel.png,images/cb_kabel.png,,kabel,,,,,,,,,,,-0.161111111,-0.22962963,1,0,0,kabel,0,48,48,7,1
,,,,,,,2023-09-26_21h27.53.945,vbt_B2_day2,2022.2.4,Win32,60.35003018,55978,,,,,,,,,,,,,,,,,,,,,,,,,,,,,,,,,,,,,,,,,,negel,images/br_negel.png,images/cb_negel.png,,negel,,,,,,,,,,,-0.161111111,-0.22962963,1,0,0,negel,0,49,49,24,1
,,,,,,,2023-09-26_21h27.53.945,vbt_B2_day2,2022.2.4,Win32,60.35003018,55978,,,,,,,,,,,,,,,,,,,,,,,,,,,,,,,,,,,,,,,,,,piste,images/br_piste.png,images/cb_piste.png,,piste,,,,,,,,,,,-0.161111111,-0.22962963,1,0,0,piste,0,50,50,5,1
,,,,,,,2023-09-26_21h27.53.945,vbt_B2_day2,2022.2.4,Win32,60.35003018,55978,,,,,,,,,,,,,,,,,,,,,,,,,,,,,,,,,,,,,,,,,,tand,images/br_tand.png,images/cb_tand.png,,tand,,,,,,,,,,,-0.161111111,-0.22962963,1,0,0,tand,0,51,51,42,1
,,,,,,,2023-09-26_21h27.53.945,vbt_B2_day2,2022.2.4,Win32,60.35003018,55978,,,,,,,,,,,,,,,,,,,,,,,,,,,,,,,,,,,,,,,,,,krimmen,images/br_krimmen.png,images/cb_krimmen.png,,krimmen,,,,,,,,,,,-0.161111111,-0.22962963,1,0,0,krimmen,0,52,52,35,1
,,,,,,,2023-09-26_21h27.53.945,vbt_B2_day2,2022.2.4,Win32,60.35003018,55978,,,,,,,,,,,,,,,,,,,,,,,,,,,,,,,,,,,,,,,,,,clan,images/br_clan.png,images/cb_clan.png,,clan,,,,,,,,,,,-0.161111111,-0.22962963,1,0,0,clan,0,53,53,40,1
,,,,,,,2023-09-26_21h27.53.945,vbt_B2_day2,2022.2.4,Win32,60.35003018,55978,,,,,,,,,,,,,,,,,,,,,,,,,,,,,,,,,,,,,,,,,,zegel,images/br_zegel.png,images/cb_zegel.png,,zegel,,,,,,,,,,,-0.139814815,-0.252777778,1,0,0,zegel,0,54,54,46,1
,,,,,,,2023-09-26_21h27.53.945,vbt_B2_day2,2022.2.4,Win32,60.35003018,55978,,,,,,,,,,,,,,,,,,,,,,,,,,,,,,,,,,,,,,,,,,sjijfel,images/br_sjijfel.png,images/cb_sjijfel.png,,sjijfel,,,,,,,,,,,-0.121296296,-0.272222222,1,0,0,sjijfel,0,55,55,33,1
,,,,,,,2023-09-26_21h27.53.945,vbt_B2_day2,2022.2.4,Win32,60.35003018,55978,,,,,,,,,,,,,,,,,,,,,,,,,,,,,,,,,,,,,,,,,,opdatten,images/br_opdatten.png,images/cb_opdatten.png,,opdatten,,,,,,,,,,,-0.121296296,-0.272222222,1,0,0,opdatten,0,56,56,37,1
,,,,,,,2023-09-26_21h27.53.945,vbt_B2_day2,2022.2.4,Win32,60.35003018,55978,,,,,,,,,,,,,,,,,,,,,,,,,,,,,,,,,,,,,,,,,,prekken,images/br_prekken.png,images/cb_prekken.png,,prekken,,,,,,,,,,,-0.121296296,-0.272222222,1,0,0,prekken,0,57,57,34,1
,,,,,,,2023-09-26_21h27.53.945,vbt_B2_day2,2022.2.4,Win32,60.35003018,55978,,,,,,,,,,,,,,,,,,,,,,,,,,,,,,,,,,,,,,,,,,zwager,images/br_zwager.png,images/cb_zwager.png,,zwager,,,,,,,,,,,-0.121296296,-0.272222222,1,0,0,zwager,0,58,58,49,1
,,,,,,,2023-09-26_21h27.53.945,vbt_B2_day2,2022.2.4,Win32,60.35003018,55978,,,,,,,,,,,,,,,,,,,,,,,,,,,,,,,,,,,,,,,,,,tweeling,images/br_tweeling.png,images/cb_tweeling.png,,tweeling,,,,,,,,,,,-0.121296296,-0.272222222,1,0,0,tweeling,0,59,59,58,1
,,,,,,,2023-09-26_21h27.53.945,vbt_B2_day2,2022.2.4,Win32,60.35003018,55978,,,,,,,,,,,,,,,,,,,,,,,,,,,,,,,,,,,,,,,,,,,,,,,,,,,,,,,,,,,,,,,,,,,
