welcome_mouse.x,welcome_mouse.y,welcome_mouse.leftButton,welcome_mouse.midButton,welcome_mouse.rightButton,welcome_mouse.time,"ID",date,expName,psychopyVersion,OS,frameRate,refresh_mouse.x,refresh_mouse.y,refresh_mouse.leftButton,refresh_mouse.midButton,refresh_mouse.rightButton,refresh_mouse.time,braille_mouse.x,braille_mouse.y,braille_mouse.leftButton,braille_mouse.midButton,braille_mouse.rightButton,braille_mouse.time,trials.thisRepN,trials.thisTrialN,trials.thisN,trials.thisIndex,trials.ran,nlLet,brLet,cbLet,trainInstr_mouse.x,trainInstr_mouse.y,trainInstr_mouse.leftButton,trainInstr_mouse.midButton,trainInstr_mouse.rightButton,trainInstr_mouse.time,translation_key.keys,translation_key.corr,translation_key.rt,word_rsp.text,word_mouse.x,word_mouse.y,word_mouse.leftButton,word_mouse.midButton,word_mouse.rightButton,word_mouse.time,train_loop.thisRepN,train_loop.thisTrialN,train_loop.thisN,train_loop.thisIndex,train_loop.ran,nlWrd,brWrd,cbWrd,test,testResp,mouse.x,mouse.y,mouse.leftButton,mouse.midButton,mouse.rightButton,testInstr_mouse.x,testInstr_mouse.y,testInstr_mouse.leftButton,testInstr_mouse.midButton,testInstr_mouse.rightButton,test_mouse.x,test_mouse.y,test_mouse.leftButton,test_mouse.midButton,test_mouse.rightButton,test_response.text,test_loop.thisRepN,test_loop.thisTrialN,test_loop.thisN,test_loop.thisIndex,test_loop.ran
-0.284259231,-0.234259288,1,0,0,9.1649,,2023-10-17_08h51.24.598,vbt_B2_day2,2022.2.4,Win32,59.99520038,,,,,,,,,,,,,,,,,,,,,,,,,,,,,,,,,,,,,,,,,,,,,,,,,,,,,,,,,,,,,,,,,,,
,,,,,,,2023-10-17_08h51.24.598,vbt_B2_day2,2022.2.4,Win32,59.99520038,-0.284259231,-0.234259288,1,0,0,4.5458,,,,,,,,,,,,,,,,,,,,,,,,,,,,,,,,,,,,,,,,,,,,,,,,,,,,,,,,,,,,,
,,,,,,,2023-10-17_08h51.24.598,vbt_B2_day2,2022.2.4,Win32,59.99520038,,,,,,,-0.284259231,-0.234259288,1,0,0,3.0173,0,0,0,3,1,d,images/br_d.png,images/cb_d.png,,,,,,,,,,,,,,,,,,,,,,,,,,,,,,,,,,,,,,,,,,,,,,,
,,,,,,,2023-10-17_08h51.24.598,vbt_B2_day2,2022.2.4,Win32,59.99520038,,,,,,,-0.284259231,-0.234259288,1,0,0,4.1669,0,1,1,18,1,s,images/br_s.png,images/cb_s.png,,,,,,,,,,,,,,,,,,,,,,,,,,,,,,,,,,,,,,,,,,,,,,,
,,,,,,,2023-10-17_08h51.24.598,vbt_B2_day2,2022.2.4,Win32,59.99520038,,,,,,,-0.284259231,-0.234259288,1,0,0,3.5172,0,2,2,0,1,a,images/br_a.png,images/cb_a.png,,,,,,,,,,,,,,,,,,,,,,,,,,,,,,,,,,,,,,,,,,,,,,,
,,,,,,,2023-10-17_08h51.24.598,vbt_B2_day2,2022.2.4,Win32,59.99520038,,,,,,,-0.284259231,-0.234259288,1,0,0,3.6833,0,3,3,12,1,m,images/br_m.png,images/cb_m.png,,,,,,,,,,,,,,,,,,,,,,,,,,,,,,,,,,,,,,,,,,,,,,,
,,,,,,,2023-10-17_08h51.24.598,vbt_B2_day2,2022.2.4,Win32,59.99520038,,,,,,,-0.284259231,-0.234259288,1,0,0,3.5668,0,4,4,14,1,o,images/br_o.png,images/cb_o.png,,,,,,,,,,,,,,,,,,,,,,,,,,,,,,,,,,,,,,,,,,,,,,,
,,,,,,,2023-10-17_08h51.24.598,vbt_B2_day2,2022.2.4,Win32,59.99520038,,,,,,,-0.284259231,-0.234259288,1,0,0,2,0,5,5,5,1,f,images/br_f.png,images/cb_f.png,,,,,,,,,,,,,,,,,,,,,,,,,,,,,,,,,,,,,,,,,,,,,,,
,,,,,,,2023-10-17_08h51.24.598,vbt_B2_day2,2022.2.4,Win32,59.99520038,,,,,,,-0.284259231,-0.234259288,1,0,0,1.5168,0,6,6,20,1,u,images/br_u.png,images/cb_u.png,,,,,,,,,,,,,,,,,,,,,,,,,,,,,,,,,,,,,,,,,,,,,,,
,,,,,,,2023-10-17_08h51.24.598,vbt_B2_day2,2022.2.4,Win32,59.99520038,,,,,,,-0.284259231,-0.234259288,1,0,0,6.9335,0,7,7,25,1,z,images/br_z.png,images/cb_z.png,,,,,,,,,,,,,,,,,,,,,,,,,,,,,,,,,,,,,,,,,,,,,,,
,,,,,,,2023-10-17_08h51.24.598,vbt_B2_day2,2022.2.4,Win32,59.99520038,,,,,,,-0.284259231,-0.234259288,1,0,0,0.2168,0,8,8,13,1,n,images/br_n.png,images/cb_n.png,,,,,,,,,,,,,,,,,,,,,,,,,,,,,,,,,,,,,,,,,,,,,,,
,,,,,,,2023-10-17_08h51.24.598,vbt_B2_day2,2022.2.4,Win32,59.99520038,,,,,,,-0.284259231,-0.234259288,1,0,0,1.7169,0,9,9,8,1,i,images/br_i.png,images/cb_i.png,,,,,,,,,,,,,,,,,,,,,,,,,,,,,,,,,,,,,,,,,,,,,,,
,,,,,,,2023-10-17_08h51.24.598,vbt_B2_day2,2022.2.4,Win32,59.99520038,,,,,,,-0.284259231,-0.234259288,1,0,0,0.2503,0,10,10,2,1,c,images/br_c.png,images/cb_c.png,,,,,,,,,,,,,,,,,,,,,,,,,,,,,,,,,,,,,,,,,,,,,,,
,,,,,,,2023-10-17_08h51.24.598,vbt_B2_day2,2022.2.4,Win32,59.99520038,,,,,,,-0.284259231,-0.234259288,1,0,0,1.2833,0,11,11,17,1,r,images/br_r.png,images/cb_r.png,,,,,,,,,,,,,,,,,,,,,,,,,,,,,,,,,,,,,,,,,,,,,,,
,,,,,,,2023-10-17_08h51.24.598,vbt_B2_day2,2022.2.4,Win32,59.99520038,,,,,,,-0.284259231,-0.234259288,1,0,0,2.3167,0,12,12,9,1,j,images/br_j.png,images/cb_j.png,,,,,,,,,,,,,,,,,,,,,,,,,,,,,,,,,,,,,,,,,,,,,,,
,,,,,,,2023-10-17_08h51.24.598,vbt_B2_day2,2022.2.4,Win32,59.99520038,,,,,,,-0.284259231,-0.234259288,1,0,0,1.8167,0,13,13,4,1,e,images/br_e.png,images/cb_e.png,,,,,,,,,,,,,,,,,,,,,,,,,,,,,,,,,,,,,,,,,,,,,,,
,,,,,,,2023-10-17_08h51.24.598,vbt_B2_day2,2022.2.4,Win32,59.99520038,,,,,,,-0.284259231,-0.234259288,1,0,0,2.2501,0,14,14,11,1,l,images/br_l.png,images/cb_l.png,,,,,,,,,,,,,,,,,,,,,,,,,,,,,,,,,,,,,,,,,,,,,,,
,,,,,,,2023-10-17_08h51.24.598,vbt_B2_day2,2022.2.4,Win32,59.99520038,,,,,,,-0.284259231,-0.234259288,1,0,0,3.1836,0,15,15,19,1,t,images/br_t.png,images/cb_t.png,,,,,,,,,,,,,,,,,,,,,,,,,,,,,,,,,,,,,,,,,,,,,,,
,,,,,,,2023-10-17_08h51.24.598,vbt_B2_day2,2022.2.4,Win32,59.99520038,,,,,,,-0.284259231,-0.234259288,1,0,0,3.217,0,16,16,6,1,g,images/br_g.png,images/cb_g.png,,,,,,,,,,,,,,,,,,,,,,,,,,,,,,,,,,,,,,,,,,,,,,,
,,,,,,,2023-10-17_08h51.24.598,vbt_B2_day2,2022.2.4,Win32,59.99520038,,,,,,,-0.284259231,-0.234259288,1,0,0,1.733,0,17,17,15,1,p,images/br_p.png,images/cb_p.png,,,,,,,,,,,,,,,,,,,,,,,,,,,,,,,,,,,,,,,,,,,,,,,
,,,,,,,2023-10-17_08h51.24.598,vbt_B2_day2,2022.2.4,Win32,59.99520038,,,,,,,-0.284259231,-0.234259288,1,0,0,1.2984,0,18,18,23,1,x,images/br_x.png,images/cb_x.png,,,,,,,,,,,,,,,,,,,,,,,,,,,,,,,,,,,,,,,,,,,,,,,
,,,,,,,2023-10-17_08h51.24.598,vbt_B2_day2,2022.2.4,Win32,59.99520038,,,,,,,-0.284259231,-0.234259288,1,0,0,3.5661,0,19,19,16,1,q,images/br_q.png,images/cb_q.png,,,,,,,,,,,,,,,,,,,,,,,,,,,,,,,,,,,,,,,,,,,,,,,
,,,,,,,2023-10-17_08h51.24.598,vbt_B2_day2,2022.2.4,Win32,59.99520038,,,,,,,-0.284259231,-0.234259288,1,0,0,5.8044,0,20,20,24,1,y,images/br_y.png,images/cb_y.png,,,,,,,,,,,,,,,,,,,,,,,,,,,,,,,,,,,,,,,,,,,,,,,
,,,,,,,2023-10-17_08h51.24.598,vbt_B2_day2,2022.2.4,Win32,59.99520038,,,,,,,-0.284259231,-0.234259288,1,0,0,1.2362,0,21,21,1,1,b,images/br_b.png,images/cb_b.png,,,,,,,,,,,,,,,,,,,,,,,,,,,,,,,,,,,,,,,,,,,,,,,
,,,,,,,2023-10-17_08h51.24.598,vbt_B2_day2,2022.2.4,Win32,59.99520038,,,,,,,-0.284259231,-0.234259288,1,0,0,11.8518,0,22,22,7,1,h,images/br_h.png,images/cb_h.png,,,,,,,,,,,,,,,,,,,,,,,,,,,,,,,,,,,,,,,,,,,,,,,
,,,,,,,2023-10-17_08h51.24.598,vbt_B2_day2,2022.2.4,Win32,59.99520038,,,,,,,-0.282407407,-0.239814829,1,0,0,2.0168,0,23,23,22,1,w,images/br_w.png,images/cb_w.png,,,,,,,,,,,,,,,,,,,,,,,,,,,,,,,,,,,,,,,,,,,,,,,
,,,,,,,2023-10-17_08h51.24.598,vbt_B2_day2,2022.2.4,Win32,59.99520038,,,,,,,-0.282407407,-0.239814829,1,0,0,2.6217,0,24,24,21,1,v,images/br_v.png,images/cb_v.png,,,,,,,,,,,,,,,,,,,,,,,,,,,,,,,,,,,,,,,,,,,,,,,
,,,,,,,2023-10-17_08h51.24.598,vbt_B2_day2,2022.2.4,Win32,59.99520038,,,,,,,-0.282407407,-0.239814829,1,0,0,1.2345,0,25,25,10,1,k,images/br_k.png,images/cb_k.png,,,,,,,,,,,,,,,,,,,,,,,,,,,,,,,,,,,,,,,,,,,,,,,
,,,,,,,2023-10-17_08h51.24.598,vbt_B2_day2,2022.2.4,Win32,59.99520038,,,,,,,,,,,,,,,,,,,,,-0.282407407,-0.239814829,1,0,0,16.7717,,,,,,,,,,,,,,,,,,,,,,,,,,,,,,,,,,,,,,,,,
,,,,,,,2023-10-17_08h51.24.598,vbt_B2_day2,2022.2.4,Win32,59.99520038,,,,,,,,,,,,,,,,,,,,,,,,,,,down,0,8.6806,,-0.282407407,-0.239814829,1,0,0,2.1873,0,0,0,88,1,boeien,images/br_boeien.png,images/cb_boeien.png,0,,,,,,,,,,,,,,,,,,,,,,
,,,,,,,2023-10-17_08h51.24.598,vbt_B2_day2,2022.2.4,Win32,59.99520038,,,,,,,,,,,,,,,,,,,,,,,,,,,down,0,4.0989,,-0.282407407,-0.239814829,0,0,1,8.325,0,1,1,69,1,waken,images/br_waken.png,images/cb_waken.png,0,,,,,,,,,,,,,,,,,,,,,,
,,,,,,,2023-10-17_08h51.24.598,vbt_B2_day2,2022.2.4,Win32,59.99520038,,,,,,,,,,,,,,,,,,,,,,,,,,,down,0,4.1176,,-0.353703711,-0.155555584,1,0,0,14.2124,0,2,2,129,1,verhaal,images/br_verhaal.png,images/cb_verhaal.png,0,,,,,,,,,,,,,,,,,,,,,,
,,,,,,,2023-10-17_08h51.24.598,vbt_B2_day2,2022.2.4,Win32,59.99520038,,,,,,,,,,,,,,,,,,,,,,,,,,,down,0,0.733,,-0.353703711,-0.155555584,1,0,0,3.4664,0,3,3,55,1,praat,images/br_praat.png,images/cb_praat.png,0,,,,,,,,,,,,,,,,,,,,,,
,,,,,,,2023-10-17_08h51.24.598,vbt_B2_day2,2022.2.4,Win32,59.99520038,,,,,,,,,,,,,,,,,,,,,,,,,,,down,0,2.7342,,-0.353703711,-0.155555584,0,1,0,1.0498,0,4,4,31,1,poes,images/br_poes.png,images/cb_poes.png,0,,,,,,,,,,,,,,,,,,,,,,
,,,,,,,2023-10-17_08h51.24.598,vbt_B2_day2,2022.2.4,Win32,59.99520038,,,,,,,,,,,,,,,,,,,,,,,,,,,down,0,2.5393,,-0.353703711,-0.155555584,1,0,0,2.2664,0,5,5,32,1,palm,images/br_palm.png,images/cb_palm.png,0,,,,,,,,,,,,,,,,,,,,,,
,,,,,,,2023-10-17_08h51.24.598,vbt_B2_day2,2022.2.4,Win32,59.99520038,,,,,,,,,,,,,,,,,,,,,,,,,,,down,0,3.9895,,-0.353703711,-0.155555584,0,0,1,3.3997,0,6,6,46,1,jagen,images/br_jagen.png,images/cb_jagen.png,0,,,,,,,,,,,,,,,,,,,,,,
,,,,,,,2023-10-17_08h51.24.598,vbt_B2_day2,2022.2.4,Win32,59.99520038,,,,,,,,,,,,,,,,,,,,,,,,,,,down,0,7.2818,,-0.376851859,-0.098148134,0,0,1,1.4261,0,7,7,47,1,kabel,images/br_kabel.png,images/cb_kabel.png,0,,,,,,,,,,,,,,,,,,,,,,
,,,,,,,2023-10-17_08h51.24.598,vbt_B2_day2,2022.2.4,Win32,59.99520038,,,,,,,,,,,,,,,,,,,,,,,,,,,down,0,9.0379,,-0.397222201,-0.033333355,1,0,0,8.085,0,8,8,150,1,gegeven,images/br_gegeven.png,images/cb_gegeven.png,0,,,,,,,,,,,,,,,,,,,,,,
,,,,,,,2023-10-17_08h51.24.598,vbt_B2_day2,2022.2.4,Win32,59.99520038,,,,,,,,,,,,,,,,,,,,,,,,,,,down,0,6.2162,,-0.397222201,-0.033333355,1,0,0,14.0106,0,9,9,193,1,weeshuis,images/br_weeshuis.png,images/cb_weeshuis.png,0,,,,,,,,,,,,,,,,,,,,,,
,,,,,,,2023-10-17_08h51.24.598,vbt_B2_day2,2022.2.4,Win32,59.99520038,,,,,,,,,,,,,,,,,,,,,,,,,,,down,0,5.083,,-0.397222201,-0.033333355,1,0,0,8.0754,0,10,10,188,1,strekken,images/br_strekken.png,images/cb_strekken.png,0,,,,,,,,,,,,,,,,,,,,,,
,,,,,,,2023-10-17_08h51.24.598,vbt_B2_day2,2022.2.4,Win32,59.99520038,,,,,,,,,,,,,,,,,,,,,,,,,,,down,0,5.7301,,-0.397222201,-0.033333355,1,0,0,3.9799,0,11,11,134,1,geliefd,images/br_geliefd.png,images/cb_geliefd.png,0,,,,,,,,,,,,,,,,,,,,,,
,,,,,,,2023-10-17_08h51.24.598,vbt_B2_day2,2022.2.4,Win32,59.99520038,,,,,,,,,,,,,,,,,,,,,,,,,,,down,0,0.7879,,-0.397222201,-0.033333355,1,0,0,3.8145,0,12,12,153,1,vervoer,images/br_vervoer.png,images/cb_vervoer.png,0,,,,,,,,,,,,,,,,,,,,,,
,,,,,,,2023-10-17_08h51.24.598,vbt_B2_day2,2022.2.4,Win32,59.99520038,,,,,,,,,,,,,,,,,,,,,,,,,,,down,0,1.5178,,-0.397222201,-0.033333355,1,0,0,1.083,0,13,13,42,1,bleek,images/br_bleek.png,images/cb_bleek.png,0,,,,,,,,,,,,,,,,,,,,,,
,,,,,,,2023-10-17_08h51.24.598,vbt_B2_day2,2022.2.4,Win32,59.99520038,,,,,,,,,,,,,,,,,,,,,,,,,,,down,0,7.5648,,-0.397222201,-0.033333355,0,1,0,1.2996,0,14,14,8,1,knie,images/br_knie.png,images/cb_knie.png,0,,,,,,,,,,,,,,,,,,,,,,
,,,,,,,2023-10-17_08h51.24.598,vbt_B2_day2,2022.2.4,Win32,59.99520038,,,,,,,,,,,,,,,,,,,,,,,,,,,down,0,44.6039,,-0.027777778,-0.342592593,1,0,0,6.1181,0,15,15,16,1,ziek,images/br_ziek.png,images/cb_ziek.png,1,...eiw,,,,,,,,,,,,,,,,,,,,,
,,,,,,,2023-10-17_08h51.24.598,vbt_B2_day2,2022.2.4,Win32,59.99520038,,,,,,,,,,,,,,,,,,,,,,,,,,,down,0,10.0924,,-0.038888861,-0.338888875,1,0,0,6.4871,0,16,16,189,1,aanraden,images/br_aanraden.png,images/cb_aanraden.png,0,,,,,,,,,,,,,,,,,,,,,,
,,,,,,,2023-10-17_08h51.24.598,vbt_B2_day2,2022.2.4,Win32,59.99520038,,,,,,,,,,,,,,,,,,,,,,,,,,,down,0,3.9336,,-0.051851838,-0.338888875,1,0,0,2.0462,0,17,17,103,1,joggen,images/br_joggen.png,images/cb_joggen.png,0,,,,,,,,,,,,,,,,,,,,,,
,,,,,,,2023-10-17_08h51.24.598,vbt_B2_day2,2022.2.4,Win32,59.99520038,,,,,,,,,,,,,,,,,,,,,,,,,,,down,0,1.7691,,-0.051851838,-0.338888875,1,0,0,10.2661,0,18,18,159,1,sufferd,images/br_sufferd.png,images/cb_sufferd.png,0,,,,,,,,,,,,,,,,,,,,,,
,,,,,,,2023-10-17_08h51.24.598,vbt_B2_day2,2022.2.4,Win32,59.99520038,,,,,,,,,,,,,,,,,,,,,,,,,,,down,0,6.7546,,-0.051851838,-0.338888875,1,0,0,7.2662,0,19,19,93,1,waarop,images/br_waarop.png,images/cb_waarop.png,0,,,,,,,,,,,,,,,,,,,,,,
,,,,,,,2023-10-17_08h51.24.598,vbt_B2_day2,2022.2.4,Win32,59.99520038,,,,,,,,,,,,,,,,,,,,,,,,,,,down,0,19.4481,,-0.051851838,-0.338888875,1,0,0,12.7494,0,20,20,156,1,rechten,images/br_rechten.png,images/cb_rechten.png,0,,,,,,,,,,,,,,,,,,,,,,
,,,,,,,2023-10-17_08h51.24.598,vbt_B2_day2,2022.2.4,Win32,59.99520038,,,,,,,,,,,,,,,,,,,,,,,,,,,down,0,19.2721,,-0.051851838,-0.338888875,1,0,0,12.7679,0,21,21,58,1,tekst,images/br_tekst.png,images/cb_tekst.png,1,se..t,,,,,,,,,,,,,,,,,,,,,
,,,,,,,2023-10-17_08h51.24.598,vbt_B2_day2,2022.2.4,Win32,59.99520038,,,,,,,,,,,,,,,,,,,,,,,,,,,down,0,12.7891,,-0.051851838,-0.338888875,0,0,1,1.1336,0,22,22,96,1,slagen,images/br_slagen.png,images/cb_slagen.png,1,slagen,,,,,,,,,,,,,,,,,,,,,
,,,,,,,2023-10-17_08h51.24.598,vbt_B2_day2,2022.2.4,Win32,59.99520038,,,,,,,,,,,,,,,,,,,,,,,,,,,down,0,10.9017,,-0.152777778,-0.327777792,1,0,0,7.7069,0,23,23,67,1,zwart,images/br_zwart.png,images/cb_zwart.png,0,,,,,,,,,,,,,,,,,,,,,,
,,,,,,,2023-10-17_08h51.24.598,vbt_B2_day2,2022.2.4,Win32,59.99520038,,,,,,,,,,,,,,,,,,,,,,,,,,,down,0,1.4336,,-0.158333319,-0.32685188,1,0,0,3.5999,0,24,24,107,1,maling,images/br_maling.png,images/cb_maling.png,0,,,,,,,,,,,,,,,,,,,,,,
,,,,,,,2023-10-17_08h51.24.598,vbt_B2_day2,2022.2.4,Win32,59.99520038,,,,,,,,,,,,,,,,,,,,,,,,,,,down,0,2.5565,,-0.158333319,-0.32685188,1,0,0,3.4064,0,25,25,76,1,afval,images/br_afval.png,images/cb_afval.png,0,,,,,,,,,,,,,,,,,,,,,,
,,,,,,,2023-10-17_08h51.24.598,vbt_B2_day2,2022.2.4,Win32,59.99520038,,,,,,,,,,,,,,,,,,,,,,,,,,,down,0,5.7507,,-0.158333319,-0.32685188,1,0,0,1.982,0,26,26,73,1,volop,images/br_volop.png,images/cb_volop.png,0,,,,,,,,,,,,,,,,,,,,,,
,,,,,,,2023-10-17_08h51.24.598,vbt_B2_day2,2022.2.4,Win32,59.99520038,,,,,,,,,,,,,,,,,,,,,,,,,,,down,0,3.851,,-0.158333319,-0.32685188,1,0,0,1.9832,0,27,27,2,1,jaar,images/br_jaar.png,images/cb_jaar.png,0,,,,,,,,,,,,,,,,,,,,,,
,,,,,,,2023-10-17_08h51.24.598,vbt_B2_day2,2022.2.4,Win32,59.99520038,,,,,,,,,,,,,,,,,,,,,,,,,,,down,0,5.0074,,-0.158333319,-0.32685188,1,0,0,0.9567,0,28,28,64,1,wegen,images/br_wegen.png,images/cb_wegen.png,0,,,,,,,,,,,,,,,,,,,,,,
,,,,,,,2023-10-17_08h51.24.598,vbt_B2_day2,2022.2.4,Win32,59.99520038,,,,,,,,,,,,,,,,,,,,,,,,,,,down,0,15.2386,,-0.158333319,-0.32685188,1,0,0,2.7564,0,29,29,87,1,toeval,images/br_toeval.png,images/cb_toeval.png,0,,,,,,,,,,,,,,,,,,,,,,
,,,,,,,2023-10-17_08h51.24.598,vbt_B2_day2,2022.2.4,Win32,59.99520038,,,,,,,,,,,,,,,,,,,,,,,,,,,down,0,3.2929,,-0.158333319,-0.32685188,1,0,0,0.8517,0,30,30,18,1,blik,images/br_blik.png,images/cb_blik.png,1,blik,,,,,,,,,,,,,,,,,,,,,
,,,,,,,2023-10-17_08h51.24.598,vbt_B2_day2,2022.2.4,Win32,59.99520038,,,,,,,,,,,,,,,,,,,,,,,,,,,down,0,10.9278,,-0.158333319,-0.32685188,1,0,0,2.6507,0,31,31,179,1,woestijn,images/br_woestijn.png,images/cb_woestijn.png,1,koestihn,,,,,,,,,,,,,,,,,,,,,
,,,,,,,2023-10-17_08h51.24.598,vbt_B2_day2,2022.2.4,Win32,59.99520038,,,,,,,,,,,,,,,,,,,,,,,,,,,down,0,4.3356,,-0.158333319,-0.32685188,1,0,0,4.8082,0,32,32,106,1,zingen,images/br_zingen.png,images/cb_zingen.png,0,,,,,,,,,,,,,,,,,,,,,,
,,,,,,,2023-10-17_08h51.24.598,vbt_B2_day2,2022.2.4,Win32,59.99520038,,,,,,,,,,,,,,,,,,,,,,,,,,,down,0,3.5401,,-0.158333319,-0.32685188,1,0,0,4.2555,0,33,33,174,1,stemming,images/br_stemming.png,images/cb_stemming.png,0,,,,,,,,,,,,,,,,,,,,,,
,,,,,,,2023-10-17_08h51.24.598,vbt_B2_day2,2022.2.4,Win32,59.99520038,,,,,,,,,,,,,,,,,,,,,,,,,,,down,0,0.2593,,-0.158333319,-0.32685188,1,0,0,1.4185,0,34,34,197,1,spanning,images/br_spanning.png,images/cb_spanning.png,0,,,,,,,,,,,,,,,,,,,,,,
,,,,,,,2023-10-17_08h51.24.598,vbt_B2_day2,2022.2.4,Win32,59.99520038,,,,,,,,,,,,,,,,,,,,,,,,,,,down,0,2.8731,,-0.158333319,-0.32685188,1,0,0,2.424,0,35,35,7,1,geld,images/br_geld.png,images/cb_geld.png,0,,,,,,,,,,,,,,,,,,,,,,
,,,,,,,2023-10-17_08h51.24.598,vbt_B2_day2,2022.2.4,Win32,59.99520038,,,,,,,,,,,,,,,,,,,,,,,,,,,down,0,0.8241,,-0.158333319,-0.32685188,1,0,0,1.5893,0,36,36,27,1,dans,images/br_dans.png,images/cb_dans.png,0,,,,,,,,,,,,,,,,,,,,,,
,,,,,,,2023-10-17_08h51.24.598,vbt_B2_day2,2022.2.4,Win32,59.99520038,,,,,,,,,,,,,,,,,,,,,,,,,,,down,0,3.2028,,-0.158333319,-0.32685188,1,0,0,0.6826,0,37,37,124,1,bloeien,images/br_bloeien.png,images/cb_bloeien.png,0,,,,,,,,,,,,,,,,,,,,,,
,,,,,,,2023-10-17_08h51.24.598,vbt_B2_day2,2022.2.4,Win32,59.99520038,,,,,,,,,,,,,,,,,,,,,,,,,,,down,0,12.582,,-0.158333319,-0.32685188,1,0,0,1.0937,0,38,38,25,1,plek,images/br_plek.png,images/cb_plek.png,0,,,,,,,,,,,,,,,,,,,,,,
,,,,,,,2023-10-17_08h51.24.598,vbt_B2_day2,2022.2.4,Win32,59.99520038,,,,,,,,,,,,,,,,,,,,,,,,,,,down,0,33.8598,,-0.158333319,-0.32685188,1,0,0,24.1727,0,39,39,92,1,geheim,images/br_geheim.png,images/cb_geheim.png,0,,,,,,,,,,,,,,,,,,,,,,
,,,,,,,2023-10-17_08h51.24.598,vbt_B2_day2,2022.2.4,Win32,59.99520038,,,,,,,,,,,,,,,,,,,,,,,,,,,down,0,2.5851,,-0.158333319,-0.32685188,1,0,0,0.7161,0,40,40,54,1,gebit,images/br_gebit.png,images/cb_gebit.png,0,,,,,,,,,,,,,,,,,,,,,,
,,,,,,,2023-10-17_08h51.24.598,vbt_B2_day2,2022.2.4,Win32,59.99520038,,,,,,,,,,,,,,,,,,,,,,,,,,,down,0,0.4332,,-0.158333319,-0.32685188,1,0,0,5.3319,0,41,41,145,1,invloed,images/br_invloed.png,images/cb_invloed.png,0,,,,,,,,,,,,,,,,,,,,,,
,,,,,,,2023-10-17_08h51.24.598,vbt_B2_day2,2022.2.4,Win32,59.99520038,,,,,,,,,,,,,,,,,,,,,,,,,,,down,0,1.357,,-0.158333319,-0.32685188,1,0,0,3.5053,0,42,42,147,1,komisch,images/br_komisch.png,images/cb_komisch.png,0,,,,,,,,,,,,,,,,,,,,,,
,,,,,,,2023-10-17_08h51.24.598,vbt_B2_day2,2022.2.4,Win32,59.99520038,,,,,,,,,,,,,,,,,,,,,,,,,,,down,0,0.2344,,-0.158333319,-0.32685188,1,0,0,2.049,0,43,43,162,1,uitdelen,images/br_uitdelen.png,images/cb_uitdelen.png,0,,,,,,,,,,,,,,,,,,,,,,
,,,,,,,2023-10-17_08h51.24.598,vbt_B2_day2,2022.2.4,Win32,59.99520038,,,,,,,,,,,,,,,,,,,,,,,,,,,down,0,66.7183,,-0.158333319,-0.32685188,1,0,0,44.0589,0,44,44,123,1,hiervan,images/br_hiervan.png,images/cb_hiervan.png,0,,,,,,,,,,,,,,,,,,,,,,
,,,,,,,2023-10-17_08h51.24.598,vbt_B2_day2,2022.2.4,Win32,59.99520038,,,,,,,,,,,,,,,,,,,,,,,,,,,down,0,36.4399,,-0.158333319,-0.32685188,1,0,0,35.4738,0,45,45,122,1,waarvan,images/br_waarvan.png,images/cb_waarvan.png,0,,,,,,,,,,,,,,,,,,,,,,
,,,,,,,2023-10-17_08h51.24.598,vbt_B2_day2,2022.2.4,Win32,59.99520038,,,,,,,,,,,,,,,,,,,,,,,,,,,down,0,0.8734,,-0.158333319,-0.32685188,1,0,0,3.2013,0,46,46,63,1,flirt,images/br_flirt.png,images/cb_flirt.png,0,,,,,,,,,,,,,,,,,,,,,,
,,,,,,,2023-10-17_08h51.24.598,vbt_B2_day2,2022.2.4,Win32,59.99520038,,,,,,,,,,,,,,,,,,,,,,,,,,,down,0,21.2235,,-0.296296296,-0.351851852,1,0,0,3.3412,0,47,47,56,1,traag,images/br_traag.png,images/cb_traag.png,1,traag,,,,,,,,,,,,,,,,,,,,,
,,,,,,,2023-10-17_08h51.24.598,vbt_B2_day2,2022.2.4,Win32,59.99520038,,,,,,,,,,,,,,,,,,,,,,,,,,,down,0,2.0073,,-0.296296296,-0.351851852,1,0,0,1.2502,0,48,48,141,1,knielen,images/br_knielen.png,images/cb_knielen.png,0,,,,,,,,,,,,,,,,,,,,,,
,,,,,,,2023-10-17_08h51.24.598,vbt_B2_day2,2022.2.4,Win32,59.99520038,,,,,,,,,,,,,,,,,,,,,,,,,,,down,0,8.8759,,-0.296296296,-0.351851852,1,0,0,1.3168,0,49,49,181,1,toegeven,images/br_toegeven.png,images/cb_toegeven.png,0,,,,,,,,,,,,,,,,,,,,,,
,,,,,,,2023-10-17_08h51.24.598,vbt_B2_day2,2022.2.4,Win32,59.99520038,,,,,,,,,,,,,,,,,,,,,,,,,,,down,0,0.8353,,-0.296296296,-0.351851852,1,0,0,1.5336,0,50,50,13,1,kaal,images/br_kaal.png,images/cb_kaal.png,0,,,,,,,,,,,,,,,,,,,,,,
,,,,,,,2023-10-17_08h51.24.598,vbt_B2_day2,2022.2.4,Win32,59.99520038,,,,,,,,,,,,,,,,,,,,,,,,,,,down,0,2.078,,-0.296296296,-0.351851852,1,0,0,1.128,0,51,51,194,1,driemaal,images/br_driemaal.png,images/cb_driemaal.png,0,,,,,,,,,,,,,,,,,,,,,,
,,,,,,,2023-10-17_08h51.24.598,vbt_B2_day2,2022.2.4,Win32,59.99520038,,,,,,,,,,,,,,,,,,,,,,,,,,,down,0,0.2238,,-0.296296296,-0.351851852,1,0,0,4.215,0,52,52,143,1,hechten,images/br_hechten.png,images/cb_hechten.png,0,,,,,,,,,,,,,,,,,,,,,,
,,,,,,,2023-10-17_08h51.24.598,vbt_B2_day2,2022.2.4,Win32,59.99520038,,,,,,,,,,,,,,,,,,,,,,,,,,,down,0,3.5799,,-0.296296296,-0.351851852,1,0,0,3.0125,0,53,53,126,1,kasteel,images/br_kasteel.png,images/cb_kasteel.png,0,,,,,,,,,,,,,,,,,,,,,,
,,,,,,,2023-10-17_08h51.24.598,vbt_B2_day2,2022.2.4,Win32,59.99520038,,,,,,,,,,,,,,,,,,,,,,,,,,,down,0,5.9869,,-0.296296296,-0.351851852,1,0,0,6.3175,0,54,54,154,1,aflopen,images/br_aflopen.png,images/cb_aflopen.png,0,,,,,,,,,,,,,,,,,,,,,,
,,,,,,,2023-10-17_08h51.24.598,vbt_B2_day2,2022.2.4,Win32,59.99520038,,,,,,,,,,,,,,,,,,,,,,,,,,,down,0,6.5199,,-0.296296296,-0.351851852,1,0,0,2.1426,0,55,55,60,1,jasje,images/br_jasje.png,images/cb_jasje.png,0,,,,,,,,,,,,,,,,,,,,,,
,,,,,,,2023-10-17_08h51.24.598,vbt_B2_day2,2022.2.4,Win32,59.99520038,,,,,,,,,,,,,,,,,,,,,,,,,,,down,0,1.1649,,-0.296296296,-0.351851852,1,0,0,1.2134,0,56,56,84,1,lokken,images/br_lokken.png,images/cb_lokken.png,0,,,,,,,,,,,,,,,,,,,,,,
,,,,,,,2023-10-17_08h51.24.598,vbt_B2_day2,2022.2.4,Win32,59.99520038,,,,,,,,,,,,,,,,,,,,,,,,,,,down,0,3.6206,,-0.296296296,-0.351851852,1,0,0,1.1501,0,57,57,138,1,akkoord,images/br_akkoord.png,images/cb_akkoord.png,1,akkoord,,,,,,,,,,,,,,,,,,,,,
,,,,,,,2023-10-17_08h51.24.598,vbt_B2_day2,2022.2.4,Win32,59.99520038,,,,,,,,,,,,,,,,,,,,,,,,,,,down,0,7.1459,,-0.296296296,-0.351851852,1,0,0,4.7743,0,58,58,165,1,feestdag,images/br_feestdag.png,images/cb_feestdag.png,0,,,,,,,,,,,,,,,,,,,,,,
,,,,,,,2023-10-17_08h51.24.598,vbt_B2_day2,2022.2.4,Win32,59.99520038,,,,,,,,,,,,,,,,,,,,,,,,,,,down,0,2.2814,,-0.296296296,-0.351851852,1,0,0,4.4116,0,59,59,66,1,lever,images/br_lever.png,images/cb_lever.png,0,,,,,,,,,,,,,,,,,,,,,,
,,,,,,,2023-10-17_08h51.24.598,vbt_B2_day2,2022.2.4,Win32,59.99520038,,,,,,,,,,,,,,,,,,,,,,,,,,,down,0,22.2058,,-0.296296296,-0.351851852,1,0,0,22.4831,0,60,60,146,1,opkomen,images/br_opkomen.png,images/cb_opkomen.png,0,,,,,,,,,,,,,,,,,,,,,,
,,,,,,,2023-10-17_08h51.24.598,vbt_B2_day2,2022.2.4,Win32,59.99520038,,,,,,,,,,,,,,,,,,,,,,,,,,,down,0,18.8207,,-0.284259231,-0.344444487,1,0,0,18.7499,0,61,61,44,1,flits,images/br_flits.png,images/cb_flits.png,0,,,,,,,,,,,,,,,,,,,,,,
,,,,,,,2023-10-17_08h51.24.598,vbt_B2_day2,2022.2.4,Win32,59.99520038,,,,,,,,,,,,,,,,,,,,,,,,,,,down,0,1.0241,,-0.284259231,-0.344444487,1,0,0,0.8534,0,62,62,116,1,besmet,images/br_besmet.png,images/cb_besmet.png,0,,,,,,,,,,,,,,,,,,,,,,
,,,,,,,2023-10-17_08h51.24.598,vbt_B2_day2,2022.2.4,Win32,59.99520038,,,,,,,,,,,,,,,,,,,,,,,,,,,down,0,1.9389,,-0.284259231,-0.344444487,0,1,0,1.1833,0,63,63,33,1,vlek,images/br_vlek.png,images/cb_vlek.png,0,,,,,,,,,,,,,,,,,,,,,,
,,,,,,,2023-10-17_08h51.24.598,vbt_B2_day2,2022.2.4,Win32,59.99520038,,,,,,,,,,,,,,,,,,,,,,,,,,,down,0,13.6082,,-0.284259231,-0.344444487,1,0,0,1.3978,0,64,64,163,1,schuilen,images/br_schuilen.png,images/cb_schuilen.png,0,,,,,,,,,,,,,,,,,,,,,,
,,,,,,,2023-10-17_08h51.24.598,vbt_B2_day2,2022.2.4,Win32,59.99520038,,,,,,,,,,,,,,,,,,,,,,,,,,,down,0,0.8463,,-0.283333319,-0.344444487,1,0,0,3.1222,0,65,65,85,1,heilig,images/br_heilig.png,images/cb_heilig.png,0,,,,,,,,,,,,,,,,,,,,,,
,,,,,,,2023-10-17_08h51.24.598,vbt_B2_day2,2022.2.4,Win32,59.99520038,,,,,,,,,,,,,,,,,,,,,,,,,,,down,0,2.0705,,-0.283333319,-0.344444487,1,0,0,0.94,0,66,66,17,1,taal,images/br_taal.png,images/cb_taal.png,1,taal,,,,,,,,,,,,,,,,,,,,,
,,,,,,,2023-10-17_08h51.24.598,vbt_B2_day2,2022.2.4,Win32,59.99520038,,,,,,,,,,,,,,,,,,,,,,,,,,,down,0,0.601,,-0.283333319,-0.344444487,1,0,0,1.3038,0,67,67,86,1,woning,images/br_woning.png,images/cb_woning.png,0,,,,,,,,,,,,,,,,,,,,,,
,,,,,,,2023-10-17_08h51.24.598,vbt_B2_day2,2022.2.4,Win32,59.99520038,,,,,,,,,,,,,,,,,,,,,,,,,,,down,0,6.0774,,-0.283333319,-0.344444487,1,0,0,5.2832,0,68,68,108,1,excuus,images/br_excuus.png,images/cb_excuus.png,0,,,,,,,,,,,,,,,,,,,,,,
,,,,,,,2023-10-17_08h51.24.598,vbt_B2_day2,2022.2.4,Win32,59.99520038,,,,,,,,,,,,,,,,,,,,,,,,,,,down,0,6.4801,,-0.283333319,-0.344444487,1,0,0,4.6927,0,69,69,70,1,ijdel,images/br_ijdel.png,images/cb_ijdel.png,0,,,,,,,,,,,,,,,,,,,,,,
,,,,,,,2023-10-17_08h51.24.598,vbt_B2_day2,2022.2.4,Win32,59.99520038,,,,,,,,,,,,,,,,,,,,,,,,,,,down,0,40.9848,,-0.267592607,-0.353703746,1,0,0,37.6888,0,70,70,191,1,opheffen,images/br_opheffen.png,images/cb_opheffen.png,0,,,,,,,,,,,,,,,,,,,,,,
,,,,,,,2023-10-17_08h51.24.598,vbt_B2_day2,2022.2.4,Win32,59.99520038,,,,,,,,,,,,,,,,,,,,,,,,,,,down,0,1.4014,,-0.266666624,-0.353703746,1,0,0,0.9546,0,71,71,38,1,baai,images/br_baai.png,images/cb_baai.png,0,,,,,,,,,,,,,,,,,,,,,,
,,,,,,,2023-10-17_08h51.24.598,vbt_B2_day2,2022.2.4,Win32,59.99520038,,,,,,,,,,,,,,,,,,,,,,,,,,,down,0,8.9374,,-0.268518519,-0.353703746,1,0,0,0.8826,0,72,72,177,1,maaltijd,images/br_maaltijd.png,images/cb_maaltijd.png,1,maaltijd,,,,,,,,,,,,,,,,,,,,,
,,,,,,,2023-10-17_08h51.24.598,vbt_B2_day2,2022.2.4,Win32,59.99520038,,,,,,,,,,,,,,,,,,,,,,,,,,,down,0,1.0028,,-0.26944443,-0.353703746,1,0,0,1.7832,0,73,73,184,1,aandelen,images/br_aandelen.png,images/cb_aandelen.png,0,,,,,,,,,,,,,,,,,,,,,,
,,,,,,,2023-10-17_08h51.24.598,vbt_B2_day2,2022.2.4,Win32,59.99520038,,,,,,,,,,,,,,,,,,,,,,,,,,,down,0,0.0016,,-0.26944443,-0.353703746,1,0,0,1.2831,0,74,74,71,1,bever,images/br_bever.png,images/cb_bever.png,0,,,,,,,,,,,,,,,,,,,,,,
,,,,,,,2023-10-17_08h51.24.598,vbt_B2_day2,2022.2.4,Win32,59.99520038,,,,,,,,,,,,,,,,,,,,,,,,,,,down,0,23.8572,,-0.26944443,-0.353703746,1,0,0,1.5667,0,75,75,98,1,kreeft,images/br_kreeft.png,images/cb_kreeft.png,1,kreeft,,,,,,,,,,,,,,,,,,,,,
,,,,,,,2023-10-17_08h51.24.598,vbt_B2_day2,2022.2.4,Win32,59.99520038,,,,,,,,,,,,,,,,,,,,,,,,,,,down,0,1.1688,,-0.26944443,-0.353703746,1,0,0,2.6643,0,76,76,121,1,twijfel,images/br_twijfel.png,images/cb_twijfel.png,0,,,,,,,,,,,,,,,,,,,,,,
,,,,,,,2023-10-17_08h51.24.598,vbt_B2_day2,2022.2.4,Win32,59.99520038,,,,,,,,,,,,,,,,,,,,,,,,,,,down,0,0.4302,,-0.26944443,-0.354629658,0,1,0,1.1308,0,77,77,49,1,laken,images/br_laken.png,images/cb_laken.png,0,,,,,,,,,,,,,,,,,,,,,,
,,,,,,,2023-10-17_08h51.24.598,vbt_B2_day2,2022.2.4,Win32,59.99520038,,,,,,,,,,,,,,,,,,,,,,,,,,,down,0,0.1444,,-0.26944443,-0.354629658,1,0,0,0.9461,0,78,78,182,1,bijkomen,images/br_bijkomen.png,images/cb_bijkomen.png,0,,,,,,,,,,,,,,,,,,,,,,
,,,,,,,2023-10-17_08h51.24.598,vbt_B2_day2,2022.2.4,Win32,59.99520038,,,,,,,,,,,,,,,,,,,,,,,,,,,down,0,0.1097,,-0.26944443,-0.354629658,1,0,0,1.0884,0,79,79,74,1,graaf,images/br_graaf.png,images/cb_graaf.png,0,,,,,,,,,,,,,,,,,,,,,,
,,,,,,,2023-10-17_08h51.24.598,vbt_B2_day2,2022.2.4,Win32,59.99520038,,,,,,,,,,,,,,,,,,,,,,,,,,,down,0,16.2363,,-0.26944443,-0.354629658,1,0,0,6.5034,0,80,80,115,1,kleren,images/br_kleren.png,images/cb_kleren.png,0,,,,,,,,,,,,,,,,,,,,,,
,,,,,,,2023-10-17_08h51.24.598,vbt_B2_day2,2022.2.4,Win32,59.99520038,,,,,,,,,,,,,,,,,,,,,,,,,,,down,0,1.4278,,-0.26944443,-0.354629658,0,1,0,0.9987,0,81,81,1,1,zaal,images/br_zaal.png,images/cb_zaal.png,0,,,,,,,,,,,,,,,,,,,,,,
,,,,,,,2023-10-17_08h51.24.598,vbt_B2_day2,2022.2.4,Win32,59.99520038,,,,,,,,,,,,,,,,,,,,,,,,,,,down,0,1.4506,,-0.26944443,-0.354629658,1,0,0,1.3056,0,82,82,152,1,afnemen,images/br_afnemen.png,images/cb_afnemen.png,0,,,,,,,,,,,,,,,,,,,,,,
,,,,,,,2023-10-17_08h51.24.598,vbt_B2_day2,2022.2.4,Win32,59.99520038,,,,,,,,,,,,,,,,,,,,,,,,,,,down,0,0.5493,,-0.26944443,-0.354629658,1,0,0,0.9664,0,83,83,125,1,aanzien,images/br_aanzien.png,images/cb_aanzien.png,0,,,,,,,,,,,,,,,,,,,,,,
,,,,,,,2023-10-17_08h51.24.598,vbt_B2_day2,2022.2.4,Win32,59.99520038,,,,,,,,,,,,,,,,,,,,,,,,,,,down,0,0.1753,,-0.26944443,-0.354629658,1,0,0,1.2164,0,84,84,82,1,muziek,images/br_muziek.png,images/cb_muziek.png,0,,,,,,,,,,,,,,,,,,,,,,
,,,,,,,2023-10-17_08h51.24.598,vbt_B2_day2,2022.2.4,Win32,59.99520038,,,,,,,,,,,,,,,,,,,,,,,,,,,down,0,1.1405,,-0.26944443,-0.354629658,1,0,0,0.8895,0,85,85,83,1,mening,images/br_mening.png,images/cb_mening.png,0,,,,,,,,,,,,,,,,,,,,,,
,,,,,,,2023-10-17_08h51.24.598,vbt_B2_day2,2022.2.4,Win32,59.99520038,,,,,,,,,,,,,,,,,,,,,,,,,,,down,0,0.81,,-0.26944443,-0.354629658,1,0,0,1.0657,0,86,86,91,1,gezond,images/br_gezond.png,images/cb_gezond.png,0,,,,,,,,,,,,,,,,,,,,,,
,,,,,,,2023-10-17_08h51.24.598,vbt_B2_day2,2022.2.4,Win32,59.99520038,,,,,,,,,,,,,,,,,,,,,,,,,,,down,0,0.7995,,-0.26944443,-0.354629658,1,0,0,0.8835,0,87,87,131,1,opzicht,images/br_opzicht.png,images/cb_opzicht.png,0,,,,,,,,,,,,,,,,,,,,,,
,,,,,,,2023-10-17_08h51.24.598,vbt_B2_day2,2022.2.4,Win32,59.99520038,,,,,,,,,,,,,,,,,,,,,,,,,,,down,0,0.3992,,-0.271296254,-0.354629658,1,0,0,1.0011,0,88,88,51,1,samen,images/br_samen.png,images/cb_samen.png,0,,,,,,,,,,,,,,,,,,,,,,
,,,,,,,2023-10-17_08h51.24.598,vbt_B2_day2,2022.2.4,Win32,59.99520038,,,,,,,,,,,,,,,,,,,,,,,,,,,down,0,8.9178,,-0.273148148,-0.354629658,1,0,0,0.7158,0,89,89,176,1,techniek,images/br_techniek.png,images/cb_techniek.png,1,techniek,,,,,,,,,,,,,,,,,,,,,
,,,,,,,2023-10-17_08h51.24.598,vbt_B2_day2,2022.2.4,Win32,59.99520038,,,,,,,,,,,,,,,,,,,,,,,,,,,down,0,0.9855,,-0.273148148,-0.354629658,1,0,0,3.5002,0,90,90,29,1,baas,images/br_baas.png,images/cb_baas.png,0,,,,,,,,,,,,,,,,,,,,,,
,,,,,,,2023-10-17_08h51.24.598,vbt_B2_day2,2022.2.4,Win32,59.99520038,,,,,,,,,,,,,,,,,,,,,,,,,,,down,0,0.986,,-0.273148148,-0.354629658,1,0,0,1.1835,0,91,91,186,1,voorraad,images/br_voorraad.png,images/cb_voorraad.png,0,,,,,,,,,,,,,,,,,,,,,,
,,,,,,,2023-10-17_08h51.24.598,vbt_B2_day2,2022.2.4,Win32,59.99520038,,,,,,,,,,,,,,,,,,,,,,,,,,,down,0,3.5352,,-0.273148148,-0.354629658,1,0,0,2.0902,0,92,92,183,1,getuigen,images/br_getuigen.png,images/cb_getuigen.png,0,,,,,,,,,,,,,,,,,,,,,,
,,,,,,,2023-10-17_08h51.24.598,vbt_B2_day2,2022.2.4,Win32,59.99520038,,,,,,,,,,,,,,,,,,,,,,,,,,,down,0,1.801,,-0.273148148,-0.354629658,1,0,0,0.8503,0,93,93,110,1,zuster,images/br_zuster.png,images/cb_zuster.png,0,,,,,,,,,,,,,,,,,,,,,,
,,,,,,,2023-10-17_08h51.24.598,vbt_B2_day2,2022.2.4,Win32,59.99520038,,,,,,,,,,,,,,,,,,,,,,,,,,,down,0,13.2579,,-0.273148148,-0.354629658,1,0,0,1.7668,0,94,94,19,1,geit,images/br_geit.png,images/cb_geit.png,1,geis,,,,,,,,,,,,,,,,,,,,,
,,,,,,,2023-10-17_08h51.24.598,vbt_B2_day2,2022.2.4,Win32,59.99520038,,,,,,,,,,,,,,,,,,,,,,,,,,,down,0,2.1697,,-0.273148148,-0.354629658,1,0,0,0.7832,0,95,95,117,1,kennis,images/br_kennis.png,images/cb_kennis.png,0,,,,,,,,,,,,,,,,,,,,,,
,,,,,,,2023-10-17_08h51.24.598,vbt_B2_day2,2022.2.4,Win32,59.99520038,,,,,,,,,,,,,,,,,,,,,,,,,,,down,0,0.8733,,-0.273148148,-0.354629658,1,0,0,0.8991,0,96,96,166,1,strikken,images/br_strikken.png,images/cb_strikken.png,0,,,,,,,,,,,,,,,,,,,,,,
,,,,,,,2023-10-17_08h51.24.598,vbt_B2_day2,2022.2.4,Win32,59.99520038,,,,,,,,,,,,,,,,,,,,,,,,,,,down,0,0.938,,-0.27407406,-0.354629658,1,0,0,0.9159,0,97,97,34,1,vorm,images/br_vorm.png,images/cb_vorm.png,0,,,,,,,,,,,,,,,,,,,,,,
,,,,,,,2023-10-17_08h51.24.598,vbt_B2_day2,2022.2.4,Win32,59.99520038,,,,,,,,,,,,,,,,,,,,,,,,,,,down,0,10.6489,,-0.27407406,-0.354629658,1,0,0,9.1671,0,98,98,78,1,leren,images/br_leren.png,images/cb_leren.png,0,,,,,,,,,,,,,,,,,,,,,,
,,,,,,,2023-10-17_08h51.24.598,vbt_B2_day2,2022.2.4,Win32,59.99520038,,,,,,,,,,,,,,,,,,,,,,,,,,,down,0,48.9364,,-0.27407406,-0.354629658,1,0,0,12.8071,0,99,99,28,1,stal,images/br_stal.png,images/cb_stal.png,0,,,,,,,,,,,,,,,,,,,,,,
,,,,,,,2023-10-17_08h51.24.598,vbt_B2_day2,2022.2.4,Win32,59.99520038,,,,,,,,,,,,,,,,,,,,,,,,,,,down,0,1.3657,,-0.27407406,-0.354629658,1,0,0,3.4964,0,100,100,149,1,redding,images/br_redding.png,images/cb_redding.png,0,,,,,,,,,,,,,,,,,,,,,,
,,,,,,,2023-10-17_08h51.24.598,vbt_B2_day2,2022.2.4,Win32,59.99520038,,,,,,,,,,,,,,,,,,,,,,,,,,,down,0,0.6692,,-0.27407406,-0.354629658,1,0,0,3.2326,0,101,101,196,1,nakijken,images/br_nakijken.png,images/cb_nakijken.png,0,,,,,,,,,,,,,,,,,,,,,,
,,,,,,,2023-10-17_08h51.24.598,vbt_B2_day2,2022.2.4,Win32,59.99520038,,,,,,,,,,,,,,,,,,,,,,,,,,,down,0,0.5939,,-0.27407406,-0.354629658,1,0,0,0.886,0,102,102,75,1,snoep,images/br_snoep.png,images/cb_snoep.png,0,,,,,,,,,,,,,,,,,,,,,,
,,,,,,,2023-10-17_08h51.24.598,vbt_B2_day2,2022.2.4,Win32,59.99520038,,,,,,,,,,,,,,,,,,,,,,,,,,,down,0,0.8367,,-0.27407406,-0.354629658,1,0,0,0.9569,0,103,103,104,1,zweven,images/br_zweven.png,images/cb_zweven.png,0,,,,,,,,,,,,,,,,,,,,,,
,,,,,,,2023-10-17_08h51.24.598,vbt_B2_day2,2022.2.4,Win32,59.99520038,,,,,,,,,,,,,,,,,,,,,,,,,,,down,0,0.0542,,-0.27407406,-0.354629658,1,0,0,0.8498,0,104,104,23,1,zout,images/br_zout.png,images/cb_zout.png,0,,,,,,,,,,,,,,,,,,,,,,
,,,,,,,2023-10-17_08h51.24.598,vbt_B2_day2,2022.2.4,Win32,59.99520038,,,,,,,,,,,,,,,,,,,,,,,,,,,down,0,0.3162,,-0.27407406,-0.354629658,1,0,0,1.0351,0,105,105,21,1,mist,images/br_mist.png,images/cb_mist.png,0,,,,,,,,,,,,,,,,,,,,,,
,,,,,,,2023-10-17_08h51.24.598,vbt_B2_day2,2022.2.4,Win32,59.99520038,,,,,,,,,,,,,,,,,,,,,,,,,,,down,0,0.1068,,-0.27407406,-0.354629658,0,1,0,0.9002,0,106,106,173,1,apparaat,images/br_apparaat.png,images/cb_apparaat.png,0,,,,,,,,,,,,,,,,,,,,,,
,,,,,,,2023-10-17_08h51.24.598,vbt_B2_day2,2022.2.4,Win32,59.99520038,,,,,,,,,,,,,,,,,,,,,,,,,,,down,0,0.6535,,-0.27407406,-0.354629658,1,0,0,0.8839,0,107,107,81,1,dubbel,images/br_dubbel.png,images/cb_dubbel.png,0,,,,,,,,,,,,,,,,,,,,,,
,,,,,,,2023-10-17_08h51.24.598,vbt_B2_day2,2022.2.4,Win32,59.99520038,,,,,,,,,,,,,,,,,,,,,,,,,,,down,0,0.7009,,-0.27407406,-0.354629658,1,0,0,1.0342,0,108,108,105,1,wijlen,images/br_wijlen.png,images/cb_wijlen.png,0,,,,,,,,,,,,,,,,,,,,,,
,,,,,,,2023-10-17_08h51.24.598,vbt_B2_day2,2022.2.4,Win32,59.99520038,,,,,,,,,,,,,,,,,,,,,,,,,,,down,0,0.333,,-0.27407406,-0.354629658,1,0,0,0.8439,0,109,109,50,1,stoom,images/br_stoom.png,images/cb_stoom.png,0,,,,,,,,,,,,,,,,,,,,,,
,,,,,,,2023-10-17_08h51.24.598,vbt_B2_day2,2022.2.4,Win32,59.99520038,,,,,,,,,,,,,,,,,,,,,,,,,,,down,0,0.613,,-0.27407406,-0.354629658,1,0,0,0.9393,0,110,110,157,1,uitlaat,images/br_uitlaat.png,images/cb_uitlaat.png,0,,,,,,,,,,,,,,,,,,,,,,
,,,,,,,2023-10-17_08h51.24.598,vbt_B2_day2,2022.2.4,Win32,59.99520038,,,,,,,,,,,,,,,,,,,,,,,,,,,down,0,0.3882,,-0.27407406,-0.354629658,1,0,0,0.9009,0,111,111,89,1,slapen,images/br_slapen.png,images/cb_slapen.png,0,,,,,,,,,,,,,,,,,,,,,,
,,,,,,,2023-10-17_08h51.24.598,vbt_B2_day2,2022.2.4,Win32,59.99520038,,,,,,,,,,,,,,,,,,,,,,,,,,,down,0,0.1109,,-0.27407406,-0.354629658,1,0,0,1.4063,0,112,112,113,1,koppen,images/br_koppen.png,images/cb_koppen.png,0,,,,,,,,,,,,,,,,,,,,,,
,,,,,,,2023-10-17_08h51.24.598,vbt_B2_day2,2022.2.4,Win32,59.99520038,,,,,,,,,,,,,,,,,,,,,,,,,,,down,0,0.5567,,-0.297222208,-0.35555557,1,0,0,0.9993,0,113,113,3,1,mand,images/br_mand.png,images/cb_mand.png,0,,,,,,,,,,,,,,,,,,,,,,
,,,,,,,2023-10-17_08h51.24.598,vbt_B2_day2,2022.2.4,Win32,59.99520038,,,,,,,,,,,,,,,,,,,,,,,,,,,down,0,0.9245,,-0.297222208,-0.35555557,1,0,0,0.6831,0,114,114,187,1,opkijken,images/br_opkijken.png,images/cb_opkijken.png,0,,,,,,,,,,,,,,,,,,,,,,
,,,,,,,2023-10-17_08h51.24.598,vbt_B2_day2,2022.2.4,Win32,59.99520038,,,,,,,,,,,,,,,,,,,,,,,,,,,down,0,8.9958,,-0.297222208,-0.35555557,1,0,0,2.2329,0,115,115,130,1,keihard,images/br_keihard.png,images/cb_keihard.png,0,,,,,,,,,,,,,,,,,,,,,,
,,,,,,,2023-10-17_08h51.24.598,vbt_B2_day2,2022.2.4,Win32,59.99520038,,,,,,,,,,,,,,,,,,,,,,,,,,,down,0,8.0487,,-0.297222208,-0.35555557,1,0,0,0.6337,0,116,116,99,1,koffie,images/br_koffie.png,images/cb_koffie.png,1,koffie,,,,,,,,,,,,,,,,,,,,,
,,,,,,,2023-10-17_08h51.24.598,vbt_B2_day2,2022.2.4,Win32,59.99520038,,,,,,,,,,,,,,,,,,,,,,,,,,,down,0,3.6081,,-0.297222208,-0.35555557,1,0,0,1.5162,0,117,117,175,1,heengaan,images/br_heengaan.png,images/cb_heengaan.png,0,,,,,,,,,,,,,,,,,,,,,,
,,,,,,,2023-10-17_08h51.24.598,vbt_B2_day2,2022.2.4,Win32,59.99520038,,,,,,,,,,,,,,,,,,,,,,,,,,,down,0,0.0702,,-0.298148155,-0.35555557,1,0,0,0.973,0,118,118,24,1,jurk,images/br_jurk.png,images/cb_jurk.png,0,,,,,,,,,,,,,,,,,,,,,,
,,,,,,,2023-10-17_08h51.24.598,vbt_B2_day2,2022.2.4,Win32,59.99520038,,,,,,,,,,,,,,,,,,,,,,,,,,,down,0,0.2204,,-0.298148155,-0.35555557,1,0,0,0.9249,0,119,119,79,1,nodig,images/br_nodig.png,images/cb_nodig.png,0,,,,,,,,,,,,,,,,,,,,,,
,,,,,,,2023-10-17_08h51.24.598,vbt_B2_day2,2022.2.4,Win32,59.99520038,,,,,,,,,,,,,,,,,,,,,,,,,,,down,0,11.6834,,-0.298148155,-0.35555557,1,0,0,1.717,0,120,120,158,1,innemen,images/br_innemen.png,images/cb_innemen.png,0,,,,,,,,,,,,,,,,,,,,,,
,,,,,,,2023-10-17_08h51.24.598,vbt_B2_day2,2022.2.4,Win32,59.99520038,,,,,,,,,,,,,,,,,,,,,,,,,,,down,0,27.4562,,-0.298148155,-0.35555557,1,0,0,1.25,0,121,121,118,1,vinger,images/br_vinger.png,images/cb_vinger.png,0,,,,,,,,,,,,,,,,,,,,,,
,,,,,,,2023-10-17_08h51.24.598,vbt_B2_day2,2022.2.4,Win32,59.99520038,,,,,,,,,,,,,,,,,,,,,,,,,,,down,0,0.9561,,-0.298148155,-0.35555557,1,0,0,1.1494,0,122,122,95,1,vreten,images/br_vreten.png,images/cb_vreten.png,0,,,,,,,,,,,,,,,,,,,,,,
,,,,,,,2023-10-17_08h51.24.598,vbt_B2_day2,2022.2.4,Win32,59.99520038,,,,,,,,,,,,,,,,,,,,,,,,,,,down,0,7.5224,,-0.298148155,-0.35555557,1,0,0,0.8499,0,123,123,59,1,kring,images/br_kring.png,images/cb_kring.png,1,kreng,,,,,,,,,,,,,,,,,,,,,
,,,,,,,2023-10-17_08h51.24.598,vbt_B2_day2,2022.2.4,Win32,59.99520038,,,,,,,,,,,,,,,,,,,,,,,,,,,down,0,0.5905,,-0.298148155,-0.35555557,1,0,0,1.0833,0,124,124,111,1,ticket,images/br_ticket.png,images/cb_ticket.png,0,,,,,,,,,,,,,,,,,,,,,,
,,,,,,,2023-10-17_08h51.24.598,vbt_B2_day2,2022.2.4,Win32,59.99520038,,,,,,,,,,,,,,,,,,,,,,,,,,,down,0,0.1663,,-0.298148155,-0.35555557,1,0,0,1.0645,0,125,125,140,1,blijven,images/br_blijven.png,images/cb_blijven.png,0,,,,,,,,,,,,,,,,,,,,,,
,,,,,,,2023-10-17_08h51.24.598,vbt_B2_day2,2022.2.4,Win32,59.99520038,,,,,,,,,,,,,,,,,,,,,,,,,,,down,0,32.2016,,-0.298148155,-0.35555557,1,0,0,23.7746,0,126,126,72,1,strak,images/br_strak.png,images/cb_strak.png,0,,,,,,,,,,,,,,,,,,,,,,
,,,,,,,2023-10-17_08h51.24.598,vbt_B2_day2,2022.2.4,Win32,59.99520038,,,,,,,,,,,,,,,,,,,,,,,,,,,down,0,0.487,,-0.345370363,-0.356481481,1,0,0,1.1218,0,127,127,41,1,maken,images/br_maken.png,images/cb_maken.png,0,,,,,,,,,,,,,,,,,,,,,,
,,,,,,,2023-10-17_08h51.24.598,vbt_B2_day2,2022.2.4,Win32,59.99520038,,,,,,,,,,,,,,,,,,,,,,,,,,,down,0,0.4484,,-0.345370363,-0.356481481,1,0,0,0.9002,0,128,128,94,1,oceaan,images/br_oceaan.png,images/cb_oceaan.png,0,,,,,,,,,,,,,,,,,,,,,,
,,,,,,,2023-10-17_08h51.24.598,vbt_B2_day2,2022.2.4,Win32,59.99520038,,,,,,,,,,,,,,,,,,,,,,,,,,,down,0,0.7354,,-0.345370363,-0.356481481,1,0,0,0.7672,0,129,129,142,1,snuiven,images/br_snuiven.png,images/cb_snuiven.png,0,,,,,,,,,,,,,,,,,,,,,,
,,,,,,,2023-10-17_08h51.24.598,vbt_B2_day2,2022.2.4,Win32,59.99520038,,,,,,,,,,,,,,,,,,,,,,,,,,,down,0,0.0326,,-0.345370363,-0.356481481,1,0,0,0.9084,0,130,130,12,1,kust,images/br_kust.png,images/cb_kust.png,0,,,,,,,,,,,,,,,,,,,,,,
,,,,,,,2023-10-17_08h51.24.598,vbt_B2_day2,2022.2.4,Win32,59.99520038,,,,,,,,,,,,,,,,,,,,,,,,,,,down,0,0.4339,,-0.345370363,-0.356481481,1,0,0,0.7849,0,131,131,26,1,leuk,images/br_leuk.png,images/cb_leuk.png,0,,,,,,,,,,,,,,,,,,,,,,
,,,,,,,2023-10-17_08h51.24.598,vbt_B2_day2,2022.2.4,Win32,59.99520038,,,,,,,,,,,,,,,,,,,,,,,,,,,down,0,0.4668,,-0.345370363,-0.356481481,1,0,0,0.784,0,132,132,100,1,geduld,images/br_geduld.png,images/cb_geduld.png,0,,,,,,,,,,,,,,,,,,,,,,
,,,,,,,2023-10-17_08h51.24.598,vbt_B2_day2,2022.2.4,Win32,59.99520038,,,,,,,,,,,,,,,,,,,,,,,,,,,down,0,25.1825,,-0.061111097,-0.310185185,1,0,0,4.2317,0,133,133,136,1,waarbij,images/br_waarbij.png,images/cb_waarbij.png,1,waarbid,,,,,,,,,,,,,,,,,,,,,
,,,,,,,2023-10-17_08h51.24.598,vbt_B2_day2,2022.2.4,Win32,59.99520038,,,,,,,,,,,,,,,,,,,,,,,,,,,down,0,0.291,,-0.061111097,-0.310185185,1,0,0,0.9171,0,134,134,36,1,vuur,images/br_vuur.png,images/cb_vuur.png,0,,,,,,,,,,,,,,,,,,,,,,
,,,,,,,2023-10-17_08h51.24.598,vbt_B2_day2,2022.2.4,Win32,59.99520038,,,,,,,,,,,,,,,,,,,,,,,,,,,down,0,0.2852,,-0.061111097,-0.310185185,1,0,0,0.783,0,135,135,9,1,hier,images/br_hier.png,images/cb_hier.png,0,,,,,,,,,,,,,,,,,,,,,,
,,,,,,,2023-10-17_08h51.24.598,vbt_B2_day2,2022.2.4,Win32,59.99520038,,,,,,,,,,,,,,,,,,,,,,,,,,,down,0,0.8343,,-0.061111097,-0.310185185,1,0,0,1.7085,0,136,136,90,1,geluid,images/br_geluid.png,images/cb_geluid.png,0,,,,,,,,,,,,,,,,,,,,,,
,,,,,,,2023-10-17_08h51.24.598,vbt_B2_day2,2022.2.4,Win32,59.99520038,,,,,,,,,,,,,,,,,,,,,,,,,,,down,0,2.0681,,-0.061111097,-0.310185185,1,0,0,1.7,0,137,137,171,1,aarzelen,images/br_aarzelen.png,images/cb_aarzelen.png,0,,,,,,,,,,,,,,,,,,,,,,
,,,,,,,2023-10-17_08h51.24.598,vbt_B2_day2,2022.2.4,Win32,59.99520038,,,,,,,,,,,,,,,,,,,,,,,,,,,down,0,0.1218,,-0.061111097,-0.310185185,1,0,0,0.9164,0,138,138,169,1,oprotten,images/br_oprotten.png,images/cb_oprotten.png,0,,,,,,,,,,,,,,,,,,,,,,
,,,,,,,2023-10-17_08h51.24.598,vbt_B2_day2,2022.2.4,Win32,59.99520038,,,,,,,,,,,,,,,,,,,,,,,,,,,down,0,1.8905,,-0.061111097,-0.310185185,1,0,0,1.0163,0,139,139,40,1,schep,images/br_schep.png,images/cb_schep.png,0,,,,,,,,,,,,,,,,,,,,,,
,,,,,,,2023-10-17_08h51.24.598,vbt_B2_day2,2022.2.4,Win32,59.99520038,,,,,,,,,,,,,,,,,,,,,,,,,,,down,0,1.0844,,-0.061111097,-0.310185185,1,0,0,0.9338,0,140,140,144,1,eetlust,images/br_eetlust.png,images/cb_eetlust.png,0,,,,,,,,,,,,,,,,,,,,,,
,,,,,,,2023-10-17_08h51.24.598,vbt_B2_day2,2022.2.4,Win32,59.99520038,,,,,,,,,,,,,,,,,,,,,,,,,,,down,0,1.0299,,-0.061111097,-0.310185185,1,0,0,0.854,0,141,141,62,1,knaap,images/br_knaap.png,images/cb_knaap.png,0,,,,,,,,,,,,,,,,,,,,,,
,,,,,,,2023-10-17_08h51.24.598,vbt_B2_day2,2022.2.4,Win32,59.99520038,,,,,,,,,,,,,,,,,,,,,,,,,,,down,0,0.9236,,-0.083333333,-0.310185185,1,0,0,0.8825,0,142,142,120,1,klimmen,images/br_klimmen.png,images/cb_klimmen.png,0,,,,,,,,,,,,,,,,,,,,,,
,,,,,,,2023-10-17_08h51.24.598,vbt_B2_day2,2022.2.4,Win32,59.99520038,,,,,,,,,,,,,,,,,,,,,,,,,,,down,0,0.3933,,-0.083333333,-0.310185185,1,0,0,1.5659,0,143,143,151,1,aanzoek,images/br_aanzoek.png,images/cb_aanzoek.png,0,,,,,,,,,,,,,,,,,,,,,,
,,,,,,,2023-10-17_08h51.24.598,vbt_B2_day2,2022.2.4,Win32,59.99520038,,,,,,,,,,,,,,,,,,,,,,,,,,,down,0,1.3515,,-0.083333333,-0.310185185,1,0,0,1.0155,0,144,144,164,1,anarchie,images/br_anarchie.png,images/cb_anarchie.png,0,,,,,,,,,,,,,,,,,,,,,,
,,,,,,,2023-10-17_08h51.24.598,vbt_B2_day2,2022.2.4,Win32,59.99520038,,,,,,,,,,,,,,,,,,,,,,,,,,,down,0,1.1442,,-0.083333333,-0.310185185,1,0,0,1.0186,0,145,145,14,1,rijp,images/br_rijp.png,images/cb_rijp.png,0,,,,,,,,,,,,,,,,,,,,,,
,,,,,,,2023-10-17_08h51.24.598,vbt_B2_day2,2022.2.4,Win32,59.99520038,,,,,,,,,,,,,,,,,,,,,,,,,,,down,0,2.7738,,-0.083333333,-0.310185185,1,0,0,0.9328,0,146,146,167,1,eenhoorn,images/br_eenhoorn.png,images/cb_eenhoorn.png,0,,,,,,,,,,,,,,,,,,,,,,
,,,,,,,2023-10-17_08h51.24.598,vbt_B2_day2,2022.2.4,Win32,59.99520038,,,,,,,,,,,,,,,,,,,,,,,,,,,down,0,1.2182,,-0.094444416,-0.310185185,1,0,0,1.0984,0,147,147,35,1,lust,images/br_lust.png,images/cb_lust.png,0,,,,,,,,,,,,,,,,,,,,,,
,,,,,,,2023-10-17_08h51.24.598,vbt_B2_day2,2022.2.4,Win32,59.99520038,,,,,,,,,,,,,,,,,,,,,,,,,,,down,0,0.3218,,-0.094444416,-0.310185185,1,0,0,0.7668,0,148,148,37,1,mijn,images/br_mijn.png,images/cb_mijn.png,0,,,,,,,,,,,,,,,,,,,,,,
,,,,,,,2023-10-17_08h51.24.598,vbt_B2_day2,2022.2.4,Win32,59.99520038,,,,,,,,,,,,,,,,,,,,,,,,,,,down,0,0.2345,,-0.098148134,-0.310185185,1,0,0,0.8985,0,149,149,101,1,staren,images/br_staren.png,images/cb_staren.png,0,,,,,,,,,,,,,,,,,,,,,,
,,,,,,,2023-10-17_08h51.24.598,vbt_B2_day2,2022.2.4,Win32,59.99520038,,,,,,,,,,,,,,,,,,,,,,,,,,,down,0,0.1348,,-0.119444459,-0.319444444,1,0,0,0.7819,0,150,150,53,1,baron,images/br_baron.png,images/cb_baron.png,0,,,,,,,,,,,,,,,,,,,,,,
,,,,,,,2023-10-17_08h51.24.598,vbt_B2_day2,2022.2.4,Win32,59.99520038,,,,,,,,,,,,,,,,,,,,,,,,,,,down,0,0.8612,,-0.119444459,-0.319444444,1,0,0,0.7932,0,151,151,132,1,grappen,images/br_grappen.png,images/cb_grappen.png,0,,,,,,,,,,,,,,,,,,,,,,
,,,,,,,2023-10-17_08h51.24.598,vbt_B2_day2,2022.2.4,Win32,59.99520038,,,,,,,,,,,,,,,,,,,,,,,,,,,down,0,0.3225,,-0.119444459,-0.319444444,1,0,0,0.7495,0,152,152,135,1,gedicht,images/br_gedicht.png,images/cb_gedicht.png,0,,,,,,,,,,,,,,,,,,,,,,
,,,,,,,2023-10-17_08h51.24.598,vbt_B2_day2,2022.2.4,Win32,59.99520038,,,,,,,,,,,,,,,,,,,,,,,,,,,down,0,0.0721,,-0.119444459,-0.319444444,1,0,0,0.8166,0,153,153,170,1,schatten,images/br_schatten.png,images/cb_schatten.png,0,,,,,,,,,,,,,,,,,,,,,,
,,,,,,,2023-10-17_08h51.24.598,vbt_B2_day2,2022.2.4,Win32,59.99520038,,,,,,,,,,,,,,,,,,,,,,,,,,,down,0,0.5342,,-0.119444459,-0.319444444,1,0,0,0.6923,0,154,154,0,1,slak,images/br_slak.png,images/cb_slak.png,0,,,,,,,,,,,,,,,,,,,,,,
,,,,,,,2023-10-17_08h51.24.598,vbt_B2_day2,2022.2.4,Win32,59.99520038,,,,,,,,,,,,,,,,,,,,,,,,,,,down,0,4.9013,,-0.122222194,-0.319444444,1,0,0,0.9158,0,155,155,57,1,steek,images/br_steek.png,images/cb_steek.png,1,steek,,,,,,,,,,,,,,,,,,,,,
,,,,,,,2023-10-17_08h51.24.598,vbt_B2_day2,2022.2.4,Win32,59.99520038,,,,,,,,,,,,,,,,,,,,,,,,,,,down,0,0.7057,,-0.122222194,-0.319444444,1,0,0,0.8333,0,156,156,168,1,bisschop,images/br_bisschop.png,images/cb_bisschop.png,0,,,,,,,,,,,,,,,,,,,,,,
,,,,,,,2023-10-17_08h51.24.598,vbt_B2_day2,2022.2.4,Win32,59.99520038,,,,,,,,,,,,,,,,,,,,,,,,,,,down,0,0.2077,,-0.122222194,-0.319444444,1,0,0,0.7669,0,157,157,65,1,parel,images/br_parel.png,images/cb_parel.png,0,,,,,,,,,,,,,,,,,,,,,,
,,,,,,,2023-10-17_08h51.24.598,vbt_B2_day2,2022.2.4,Win32,59.99520038,,,,,,,,,,,,,,,,,,,,,,,,,,,down,0,1.056,,-0.122222194,-0.319444444,1,0,0,0.9837,0,158,158,195,1,middelen,images/br_middelen.png,images/cb_middelen.png,0,,,,,,,,,,,,,,,,,,,,,,
,,,,,,,2023-10-17_08h51.24.598,vbt_B2_day2,2022.2.4,Win32,59.99520038,,,,,,,,,,,,,,,,,,,,,,,,,,,down,0,0.075,,-0.122222194,-0.319444444,1,0,0,1.0742,0,159,159,43,1,klauw,images/br_klauw.png,images/cb_klauw.png,0,,,,,,,,,,,,,,,,,,,,,,
,,,,,,,2023-10-17_08h51.24.598,vbt_B2_day2,2022.2.4,Win32,59.99520038,,,,,,,,,,,,,,,,,,,,,,,,,,,down,0,1.0204,,-0.122222194,-0.319444444,1,0,0,0.7343,0,160,160,192,1,schaamte,images/br_schaamte.png,images/cb_schaamte.png,0,,,,,,,,,,,,,,,,,,,,,,
,,,,,,,2023-10-17_08h51.24.598,vbt_B2_day2,2022.2.4,Win32,59.99520038,,,,,,,,,,,,,,,,,,,,,,,,,,,down,0,20.355,,-0.122222194,-0.319444444,1,0,0,18.3191,0,161,161,45,1,piste,images/br_piste.png,images/cb_piste.png,0,,,,,,,,,,,,,,,,,,,,,,
,,,,,,,2023-10-17_08h51.24.598,vbt_B2_day2,2022.2.4,Win32,59.99520038,,,,,,,,,,,,,,,,,,,,,,,,,,,down,0,0.5537,,-0.122222194,-0.319444444,1,0,0,0.9499,0,162,162,80,1,kanjer,images/br_kanjer.png,images/cb_kanjer.png,0,,,,,,,,,,,,,,,,,,,,,,
,,,,,,,2023-10-17_08h51.24.598,vbt_B2_day2,2022.2.4,Win32,59.99520038,,,,,,,,,,,,,,,,,,,,,,,,,,,down,0,5.0009,,-0.122222194,-0.319444444,1,0,0,0.8005,0,163,163,30,1,uien,images/br_uien.png,images/cb_uien.png,0,,,,,,,,,,,,,,,,,,,,,,
,,,,,,,2023-10-17_08h51.24.598,vbt_B2_day2,2022.2.4,Win32,59.99520038,,,,,,,,,,,,,,,,,,,,,,,,,,,down,0,9.9725,,-0.122222194,-0.319444444,1,0,0,1.0166,0,164,164,128,1,prikken,images/br_prikken.png,images/cb_prikken.png,0,,,,,,,,,,,,,,,,,,,,,,
,,,,,,,2023-10-17_08h51.24.598,vbt_B2_day2,2022.2.4,Win32,59.99520038,,,,,,,,,,,,,,,,,,,,,,,,,,,down,0,0.1197,,-0.122222194,-0.319444444,1,0,0,0.8562,0,165,165,52,1,wagon,images/br_wagon.png,images/cb_wagon.png,0,,,,,,,,,,,,,,,,,,,,,,
,,,,,,,2023-10-17_08h51.24.598,vbt_B2_day2,2022.2.4,Win32,59.99520038,,,,,,,,,,,,,,,,,,,,,,,,,,,down,0,0.0338,,-0.122222194,-0.319444444,1,0,0,0.8177,0,166,166,68,1,schat,images/br_schat.png,images/cb_schat.png,0,,,,,,,,,,,,,,,,,,,,,,
,,,,,,,2023-10-17_08h51.24.598,vbt_B2_day2,2022.2.4,Win32,59.99520038,,,,,,,,,,,,,,,,,,,,,,,,,,,down,0,0.3443,,-0.122222194,-0.319444444,1,0,0,2.1141,0,167,167,6,1,diep,images/br_diep.png,images/cb_diep.png,0,,,,,,,,,,,,,,,,,,,,,,
,,,,,,,2023-10-17_08h51.24.598,vbt_B2_day2,2022.2.4,Win32,59.99520038,,,,,,,,,,,,,,,,,,,,,,,,,,,down,0,0.19,,-0.122222194,-0.319444444,1,0,0,0.9331,0,168,168,15,1,soda,images/br_soda.png,images/cb_soda.png,0,,,,,,,,,,,,,,,,,,,,,,
,,,,,,,2023-10-17_08h51.24.598,vbt_B2_day2,2022.2.4,Win32,59.99520038,,,,,,,,,,,,,,,,,,,,,,,,,,,down,0,1.4803,,-0.122222194,-0.319444444,1,0,0,0.8502,0,169,169,155,1,gerucht,images/br_gerucht.png,images/cb_gerucht.png,0,,,,,,,,,,,,,,,,,,,,,,
,,,,,,,2023-10-17_08h51.24.598,vbt_B2_day2,2022.2.4,Win32,59.99520038,,,,,,,,,,,,,,,,,,,,,,,,,,,down,0,5.4569,,-0.122222194,-0.319444444,1,0,0,0.8505,0,170,170,160,1,daarheen,images/br_daarheen.png,images/cb_daarheen.png,0,,,,,,,,,,,,,,,,,,,,,,
,,,,,,,2023-10-17_08h51.24.598,vbt_B2_day2,2022.2.4,Win32,59.99520038,,,,,,,,,,,,,,,,,,,,,,,,,,,down,0,1.0366,,-0.122222194,-0.319444444,1,0,0,0.7169,0,171,171,22,1,stof,images/br_stof.png,images/cb_stof.png,0,,,,,,,,,,,,,,,,,,,,,,
,,,,,,,2023-10-17_08h51.24.598,vbt_B2_day2,2022.2.4,Win32,59.99520038,,,,,,,,,,,,,,,,,,,,,,,,,,,down,0,68.4187,,-0.125925912,-0.295370384,1,0,0,9.1837,0,172,172,178,1,huisdier,images/br_huisdier.png,images/cb_huisdier.png,1,.mishier,,,,,,,,,,,,,,,,,,,,,
,,,,,,,2023-10-17_08h51.24.598,vbt_B2_day2,2022.2.4,Win32,59.99520038,,,,,,,,,,,,,,,,,,,,,,,,,,,down,0,3.6024,,-0.125925912,-0.295370384,1,0,0,0.833,0,173,173,198,1,bedoelen,images/br_bedoelen.png,images/cb_bedoelen.png,0,,,,,,,,,,,,,,,,,,,,,,
,,,,,,,2023-10-17_08h51.24.598,vbt_B2_day2,2022.2.4,Win32,59.99520038,,,,,,,,,,,,,,,,,,,,,,,,,,,down,0,64.806,,-0.125925912,-0.295370384,1,0,0,15.3169,0,174,174,148,1,smullen,images/br_smullen.png,images/cb_smullen.png,0,,,,,,,,,,,,,,,,,,,,,,
,,,,,,,2023-10-17_08h51.24.598,vbt_B2_day2,2022.2.4,Win32,59.99520038,,,,,,,,,,,,,,,,,,,,,,,,,,,down,0,97.4961,,-0.125925912,-0.295370384,1,0,0,0.7678,0,175,175,109,1,totaal,images/br_totaal.png,images/cb_totaal.png,0,,,,,,,,,,,,,,,,,,,,,,
,,,,,,,2023-10-17_08h51.24.598,vbt_B2_day2,2022.2.4,Win32,59.99520038,,,,,,,,,,,,,,,,,,,,,,,,,,,down,0,0.8423,,-0.126851824,-0.295370384,1,0,0,1.0852,0,176,176,161,1,attentie,images/br_attentie.png,images/cb_attentie.png,0,,,,,,,,,,,,,,,,,,,,,,
,,,,,,,2023-10-17_08h51.24.598,vbt_B2_day2,2022.2.4,Win32,59.99520038,,,,,,,,,,,,,,,,,,,,,,,,,,,down,0,0.0727,,-0.126851824,-0.295370384,1,0,0,1.0008,0,177,177,5,1,blad,images/br_blad.png,images/cb_blad.png,0,,,,,,,,,,,,,,,,,,,,,,
,,,,,,,2023-10-17_08h51.24.598,vbt_B2_day2,2022.2.4,Win32,59.99520038,,,,,,,,,,,,,,,,,,,,,,,,,,,down,0,0.3929,,-0.126851824,-0.295370384,1,0,0,0.9658,0,178,178,61,1,groen,images/br_groen.png,images/cb_groen.png,0,,,,,,,,,,,,,,,,,,,,,,
,,,,,,,2023-10-17_08h51.24.598,vbt_B2_day2,2022.2.4,Win32,59.99520038,,,,,,,,,,,,,,,,,,,,,,,,,,,down,0,0.4572,,-0.126851824,-0.295370384,1,0,0,0.8331,0,179,179,20,1,site,images/br_site.png,images/cb_site.png,0,,,,,,,,,,,,,,,,,,,,,,
,,,,,,,2023-10-17_08h51.24.598,vbt_B2_day2,2022.2.4,Win32,59.99520038,,,,,,,,,,,,,,,,,,,,,,,,,,,down,0,0.2222,,-0.147222236,-0.312962991,1,0,0,1.1494,0,180,180,180,1,openbaar,images/br_openbaar.png,images/cb_openbaar.png,0,,,,,,,,,,,,,,,,,,,,,,
,,,,,,,2023-10-17_08h51.24.598,vbt_B2_day2,2022.2.4,Win32,59.99520038,,,,,,,,,,,,,,,,,,,,,,,,,,,down,0,12.9859,,-0.147222236,-0.312962991,1,0,0,1.9662,0,181,181,11,1,mode,images/br_mode.png,images/cb_mode.png,0,,,,,,,,,,,,,,,,,,,,,,
,,,,,,,2023-10-17_08h51.24.598,vbt_B2_day2,2022.2.4,Win32,59.99520038,,,,,,,,,,,,,,,,,,,,,,,,,,,down,0,8.9663,,-0.147222236,-0.312962991,1,0,0,2.8997,0,182,182,97,1,loyaal,images/br_loyaal.png,images/cb_loyaal.png,1,lokaal,,,,,,,,,,,,,,,,,,,,,
,,,,,,,2023-10-17_08h51.24.598,vbt_B2_day2,2022.2.4,Win32,59.99520038,,,,,,,,,,,,,,,,,,,,,,,,,,,down,0,0.1681,,-0.147222236,-0.312962991,1,0,0,1.1833,0,183,183,114,1,vullen,images/br_vullen.png,images/cb_vullen.png,0,,,,,,,,,,,,,,,,,,,,,,
,,,,,,,2023-10-17_08h51.24.598,vbt_B2_day2,2022.2.4,Win32,59.99520038,,,,,,,,,,,,,,,,,,,,,,,,,,,down,0,13.3743,,-0.147222236,-0.312962991,1,0,0,15.767,0,184,184,185,1,mijnheer,images/br_mijnheer.png,images/cb_mijnheer.png,0,,,,,,,,,,,,,,,,,,,,,,
,,,,,,,2023-10-17_08h51.24.598,vbt_B2_day2,2022.2.4,Win32,59.99520038,,,,,,,,,,,,,,,,,,,,,,,,,,,down,0,0.1723,,-0.147222236,-0.312962991,1,0,0,1.618,0,185,185,127,1,doodmoe,images/br_doodmoe.png,images/cb_doodmoe.png,0,,,,,,,,,,,,,,,,,,,,,,
,,,,,,,2023-10-17_08h51.24.598,vbt_B2_day2,2022.2.4,Win32,59.99520038,,,,,,,,,,,,,,,,,,,,,,,,,,,down,0,1.4445,,-0.147222236,-0.312962991,1,0,0,2.3501,0,186,186,172,1,weigeren,images/br_weigeren.png,images/cb_weigeren.png,0,,,,,,,,,,,,,,,,,,,,,,
,,,,,,,2023-10-17_08h51.24.598,vbt_B2_day2,2022.2.4,Win32,59.99520038,,,,,,,,,,,,,,,,,,,,,,,,,,,down,0,0.3556,,-0.147222236,-0.312962991,1,0,0,1.167,0,187,187,77,1,woede,images/br_woede.png,images/cb_woede.png,0,,,,,,,,,,,,,,,,,,,,,,
,,,,,,,2023-10-17_08h51.24.598,vbt_B2_day2,2022.2.4,Win32,59.99520038,,,,,,,,,,,,,,,,,,,,,,,,,,,down,0,0.3009,,-0.147222236,-0.312962991,1,0,0,2.2343,0,188,188,39,1,laag,images/br_laag.png,images/cb_laag.png,0,,,,,,,,,,,,,,,,,,,,,,
,,,,,,,2023-10-17_08h51.24.598,vbt_B2_day2,2022.2.4,Win32,59.99520038,,,,,,,,,,,,,,,,,,,,,,,,,,,down,0,0.0012,,-0.147222236,-0.312962991,1,0,0,0.8337,0,189,189,119,1,liefje,images/br_liefje.png,images/cb_liefje.png,0,,,,,,,,,,,,,,,,,,,,,,
,,,,,,,2023-10-17_08h51.24.598,vbt_B2_day2,2022.2.4,Win32,59.99520038,,,,,,,,,,,,,,,,,,,,,,,,,,,down,0,0.1012,,-0.147222236,-0.312962991,1,0,0,0.9847,0,190,190,199,1,beseffen,images/br_beseffen.png,images/cb_beseffen.png,0,,,,,,,,,,,,,,,,,,,,,,
,,,,,,,2023-10-17_08h51.24.598,vbt_B2_day2,2022.2.4,Win32,59.99520038,,,,,,,,,,,,,,,,,,,,,,,,,,,down,0,27.4181,,-0.147222236,-0.312962991,1,0,0,0.6848,0,191,191,139,1,stiekem,images/br_stiekem.png,images/cb_stiekem.png,1,stiekem,,,,,,,,,,,,,,,,,,,,,
,,,,,,,2023-10-17_08h51.24.598,vbt_B2_day2,2022.2.4,Win32,59.99520038,,,,,,,,,,,,,,,,,,,,,,,,,,,down,0,0.379,,-0.147222236,-0.312962991,1,0,0,0.9668,0,192,192,102,1,legaal,images/br_legaal.png,images/cb_legaal.png,0,,,,,,,,,,,,,,,,,,,,,,
,,,,,,,2023-10-17_08h51.24.598,vbt_B2_day2,2022.2.4,Win32,59.99520038,,,,,,,,,,,,,,,,,,,,,,,,,,,down,0,52.2372,,-0.147222236,-0.312962991,1,0,0,1.4198,0,193,193,137,1,trekker,images/br_trekker.png,images/cb_trekker.png,1,trekker,,,,,,,,,,,,,,,,,,,,,
,,,,,,,2023-10-17_08h51.24.598,vbt_B2_day2,2022.2.4,Win32,59.99520038,,,,,,,,,,,,,,,,,,,,,,,,,,,down,0,2.5995,,-0.147222236,-0.312962991,1,0,0,1.2504,0,194,194,112,1,lukken,images/br_lukken.png,images/cb_lukken.png,0,,,,,,,,,,,,,,,,,,,,,,
,,,,,,,2023-10-17_08h51.24.598,vbt_B2_day2,2022.2.4,Win32,59.99520038,,,,,,,,,,,,,,,,,,,,,,,,,,,down,0,9.0314,,-0.147222236,-0.312962991,1,0,0,1.5043,0,195,195,48,1,steel,images/br_steel.png,images/cb_steel.png,0,,,,,,,,,,,,,,,,,,,,,,
,,,,,,,2023-10-17_08h51.24.598,vbt_B2_day2,2022.2.4,Win32,59.99520038,,,,,,,,,,,,,,,,,,,,,,,,,,,down,0,4.0999,,-0.147222236,-0.312962991,1,0,0,1.157,0,196,196,190,1,goedkoop,images/br_goedkoop.png,images/cb_goedkoop.png,0,,,,,,,,,,,,,,,,,,,,,,
,,,,,,,2023-10-17_08h51.24.598,vbt_B2_day2,2022.2.4,Win32,59.99520038,,,,,,,,,,,,,,,,,,,,,,,,,,,down,0,0.3433,,-0.147222236,-0.312962991,1,0,0,0.7999,0,197,197,4,1,moes,images/br_moes.png,images/cb_moes.png,0,,,,,,,,,,,,,,,,,,,,,,
,,,,,,,2023-10-17_08h51.24.598,vbt_B2_day2,2022.2.4,Win32,59.99520038,,,,,,,,,,,,,,,,,,,,,,,,,,,down,0,0.1722,,-0.147222236,-0.312962991,1,0,0,1.6336,0,198,198,10,1,leek,images/br_leek.png,images/cb_leek.png,0,,,,,,,,,,,,,,,,,,,,,,
,,,,,,,2023-10-17_08h51.24.598,vbt_B2_day2,2022.2.4,Win32,59.99520038,,,,,,,,,,,,,,,,,,,,,,,,,,,down,0,1.1504,,-0.147222236,-0.312962991,1,0,0,1.1503,0,199,199,133,1,seizoen,images/br_seizoen.png,images/cb_seizoen.png,0,,,,,,,,,,,,,,,,,,,,,,
,,,,,,,2023-10-17_08h51.24.598,vbt_B2_day2,2022.2.4,Win32,59.99520038,,,,,,,,,,,,,,,,,,,,,,,,,,,,,,,,,,,,,,,,,,,,,,,-0.147222236,-0.312962991,1,0,0,,,,,,,,,,,,,,,,
,,,,,,,2023-10-17_08h51.24.598,vbt_B2_day2,2022.2.4,Win32,59.99520038,,,,,,,,,,,,,,,,,,,,,,,,,,,,,,,,,,,,,,,,,,,,,,,,,,,,-0.147222236,-0.312962991,1,0,0,,,,,,,,,,,
,,,,,,,2023-10-17_08h51.24.598,vbt_B2_day2,2022.2.4,Win32,59.99520038,,,,,,,,,,,,,,,,,,,,,,,,,,,,,,,,,,,,,,,,,,koorts,images/br_koorts.png,images/cb_koorts.png,,.boost..,,,,,,,,,,,-0.147222236,-0.312962991,1,0,0,.boost..,0,0,0,50,1
,,,,,,,2023-10-17_08h51.24.598,vbt_B2_day2,2022.2.4,Win32,59.99520038,,,,,,,,,,,,,,,,,,,,,,,,,,,,,,,,,,,,,,,,,,zomers,images/br_zomers.png,images/cb_zomers.png,,komst..,,,,,,,,,,,-0.147222236,-0.312962991,0,0,1,komst..,0,1,1,48,1
,,,,,,,2023-10-17_08h51.24.598,vbt_B2_day2,2022.2.4,Win32,59.99520038,,,,,,,,,,,,,,,,,,,,,,,,,,,,,,,,,,,,,,,,,,kabel,images/br_kabel.png,images/cb_kabel.png,,kabel,,,,,,,,,,,-0.265740712,-0.277777778,1,0,0,kabel,0,2,2,7,1
,,,,,,,2023-10-17_08h51.24.598,vbt_B2_day2,2022.2.4,Win32,59.99520038,,,,,,,,,,,,,,,,,,,,,,,,,,,,,,,,,,,,,,,,,,sora,images/br_sora.png,images/cb_sora.png,,storh,,,,,,,,,,,0.060185185,-0.263888889,1,0,0,storh,0,3,3,22,1
,,,,,,,2023-10-17_08h51.24.598,vbt_B2_day2,2022.2.4,Win32,59.99520038,,,,,,,,,,,,,,,,,,,,,,,,,,,,,,,,,,,,,,,,,,bereuwen,images/br_bereuwen.png,images/cb_bereuwen.png,,bereiken,,,,,,,,,,,0.001851894,-0.293518561,1,0,0,bereiken,0,4,4,39,1
,,,,,,,2023-10-17_08h51.24.598,vbt_B2_day2,2022.2.4,Win32,59.99520038,,,,,,,,,,,,,,,,,,,,,,,,,,,,,,,,,,,,,,,,,,lokken,images/br_lokken.png,images/cb_lokken.png,,lokken,,,,,,,,,,,0.001851894,-0.293518561,1,0,0,lokken,0,5,5,8,1
,,,,,,,2023-10-17_08h51.24.598,vbt_B2_day2,2022.2.4,Win32,59.99520038,,,,,,,,,,,,,,,,,,,,,,,,,,,,,,,,,,,,,,,,,,wijve,images/br_wijve.png,images/cb_wijve.png,,kolie,,,,,,,,,,,0.001851894,-0.293518561,1,0,0,kolie,0,6,6,27,1
,,,,,,,2023-10-17_08h51.24.598,vbt_B2_day2,2022.2.4,Win32,59.99520038,,,,,,,,,,,,,,,,,,,,,,,,,,,,,,,,,,,,,,,,,,trots,images/br_trots.png,images/cb_trots.png,,stort,,,,,,,,,,,-0.109259217,-0.273148148,1,0,0,stort,0,7,7,44,1
,,,,,,,2023-10-17_08h51.24.598,vbt_B2_day2,2022.2.4,Win32,59.99520038,,,,,,,,,,,,,,,,,,,,,,,,,,,,,,,,,,,,,,,,,,inzicht,images/br_inzicht.png,images/cb_inzicht.png,,/,,,,,,,,,,,-0.099074046,-0.284259302,1,0,0,/,0,8,8,53,1
,,,,,,,2023-10-17_08h51.24.598,vbt_B2_day2,2022.2.4,Win32,59.99520038,,,,,,,,,,,,,,,,,,,,,,,,,,,,,,,,,,,,,,,,,,geld,images/br_geld.png,images/cb_geld.png,,geld,,,,,,,,,,,-0.113888847,-0.314814815,1,0,0,geld,0,9,9,3,1
,,,,,,,2023-10-17_08h51.24.598,vbt_B2_day2,2022.2.4,Win32,59.99520038,,,,,,,,,,,,,,,,,,,,,,,,,,,,,,,,,,,,,,,,,,blad,images/br_blad.png,images/cb_blad.png,,bldd,,,,,,,,,,,-0.113888847,-0.314814815,1,0,0,bldd,0,10,10,1,1
,,,,,,,2023-10-17_08h51.24.598,vbt_B2_day2,2022.2.4,Win32,59.99520038,,,,,,,,,,,,,,,,,,,,,,,,,,,,,,,,,,,,,,,,,,joes,images/br_joes.png,images/cb_joes.png,,does,,,,,,,,,,,-0.12037037,-0.333333333,1,0,0,does,0,11,11,20,1
,,,,,,,2023-10-17_08h51.24.598,vbt_B2_day2,2022.2.4,Win32,59.99520038,,,,,,,,,,,,,,,,,,,,,,,,,,,,,,,,,,,,,,,,,,woning,images/br_woning.png,images/cb_woning.png,,koning,,,,,,,,,,,-0.12037037,-0.333333333,1,0,0,koning,0,12,12,10,1
,,,,,,,2023-10-17_08h51.24.598,vbt_B2_day2,2022.2.4,Win32,59.99520038,,,,,,,,,,,,,,,,,,,,,,,,,,,,,,,,,,,,,,,,,,kijlen,images/br_kijlen.png,images/cb_kijlen.png,,kidlen,,,,,,,,,,,-0.12037037,-0.333333333,1,0,0,kidlen,0,13,13,31,1
,,,,,,,2023-10-17_08h51.24.598,vbt_B2_day2,2022.2.4,Win32,59.99520038,,,,,,,,,,,,,,,,,,,,,,,,,,,,,,,,,,,,,,,,,,thema,images/br_thema.png,images/cb_thema.png,,t.ems,,,,,,,,,,,-0.12037037,-0.333333333,1,0,0,t.ems,0,14,14,47,1
,,,,,,,2023-10-17_08h51.24.598,vbt_B2_day2,2022.2.4,Win32,59.99520038,,,,,,,,,,,,,,,,,,,,,,,,,,,,,,,,,,,,,,,,,,strikken,images/br_strikken.png,images/cb_strikken.png,,strekken,,,,,,,,,,,-0.147222236,-0.380555541,1,0,0,strekken,0,15,15,18,1
,,,,,,,2023-10-17_08h51.24.598,vbt_B2_day2,2022.2.4,Win32,59.99520038,,,,,,,,,,,,,,,,,,,,,,,,,,,,,,,,,,,,,,,,,,aanzien,images/br_aanzien.png,images/cb_aanzien.png,,aa...,,,,,,,,,,,-0.087962963,-0.309259273,1,0,0,aa...,0,16,16,13,1
,,,,,,,2023-10-17_08h51.24.598,vbt_B2_day2,2022.2.4,Win32,59.99520038,,,,,,,,,,,,,,,,,,,,,,,,,,,,,,,,,,,,,,,,,,zwager,images/br_zwager.png,images/cb_zwager.png,,m..ag...,,,,,,,,,,,-0.087962963,-0.309259273,1,0,0,m..ag...,0,17,17,49,1
,,,,,,,2023-10-17_08h51.24.598,vbt_B2_day2,2022.2.4,Win32,59.99520038,,,,,,,,,,,,,,,,,,,,,,,,,,,,,,,,,,,,,,,,,,flits,images/br_flits.png,images/cb_flits.png,,.lits,,,,,,,,,,,-0.087962963,-0.309259273,1,0,0,.lits,0,18,18,4,1
,,,,,,,2023-10-17_08h51.24.598,vbt_B2_day2,2022.2.4,Win32,59.99520038,,,,,,,,,,,,,,,,,,,,,,,,,,,,,,,,,,,,,,,,,,plannen,images/br_plannen.png,images/cb_plannen.png,,plammem,,,,,,,,,,,-0.099999958,-0.358333376,1,0,0,plammem,0,19,19,55,1
,,,,,,,2023-10-17_08h51.24.598,vbt_B2_day2,2022.2.4,Win32,59.99520038,,,,,,,,,,,,,,,,,,,,,,,,,,,,,,,,,,,,,,,,,,kenzis,images/br_kenzis.png,images/cb_kenzis.png,,/,,,,,,,,,,,-0.158333319,-0.400925954,1,0,0,/,0,20,20,30,1
,,,,,,,2023-10-17_08h51.24.598,vbt_B2_day2,2022.2.4,Win32,59.99520038,,,,,,,,,,,,,,,,,,,,,,,,,,,,,,,,,,,,,,,,,,heengeen,images/br_heengeen.png,images/cb_heengeen.png,,.eeng..,,,,,,,,,,,-0.158333319,-0.400925954,1,0,0,.eeng..,0,21,21,38,1
,,,,,,,2023-10-17_08h51.24.598,vbt_B2_day2,2022.2.4,Win32,59.99520038,,,,,,,,,,,,,,,,,,,,,,,,,,,,,,,,,,,,,,,,,,sjijfel,images/br_sjijfel.png,images/cb_sjijfel.png,,s...l,,,,,,,,,,,-0.158333319,-0.400925954,1,0,0,s...l,0,22,22,33,1
,,,,,,,2023-10-17_08h51.24.598,vbt_B2_day2,2022.2.4,Win32,59.99520038,,,,,,,,,,,,,,,,,,,,,,,,,,,,,,,,,,,,,,,,,,sifferd,images/br_sifferd.png,images/cb_sifferd.png,,seffens,,,,,,,,,,,-0.209259245,-0.437962991,1,0,0,seffens,0,23,23,32,1
,,,,,,,2023-10-17_08h51.24.598,vbt_B2_day2,2022.2.4,Win32,59.99520038,,,,,,,,,,,,,,,,,,,,,,,,,,,,,,,,,,,,,,,,,,breuk,images/br_breuk.png,images/cb_breuk.png,,brik,,,,,,,,,,,-0.137962977,-0.395370413,0,0,1,brik,0,24,24,45,1
,,,,,,,2023-10-17_08h51.24.598,vbt_B2_day2,2022.2.4,Win32,59.99520038,,,,,,,,,,,,,,,,,,,,,,,,,,,,,,,,,,,,,,,,,,lijnen,images/br_lijnen.png,images/cb_lijnen.png,,lemmen,,,,,,,,,,,-0.234259217,-0.319444444,1,0,0,lemmen,0,25,25,51,1
,,,,,,,2023-10-17_08h51.24.598,vbt_B2_day2,2022.2.4,Win32,59.99520038,,,,,,,,,,,,,,,,,,,,,,,,,,,,,,,,,,,,,,,,,,krimmen,images/br_krimmen.png,images/cb_krimmen.png,,kremmen,,,,,,,,,,,-0.228703675,-0.332407422,1,0,0,kremmen,0,26,26,35,1
,,,,,,,2023-10-17_08h51.24.598,vbt_B2_day2,2022.2.4,Win32,59.99520038,,,,,,,,,,,,,,,,,,,,,,,,,,,,,,,,,,,,,,,,,,prekken,images/br_prekken.png,images/cb_prekken.png,,/,,,,,,,,,,,-0.184259273,-0.298148191,1,0,0,/,0,27,27,34,1
,,,,,,,2023-10-17_08h51.24.598,vbt_B2_day2,2022.2.4,Win32,59.99520038,,,,,,,,,,,,,,,,,,,,,,,,,,,,,,,,,,,,,,,,,,goon,images/br_goon.png,images/cb_goon.png,,goon,,,,,,,,,,,-0.185185185,-0.319444444,1,0,0,goon,0,28,28,23,1
,,,,,,,2023-10-17_08h51.24.598,vbt_B2_day2,2022.2.4,Win32,59.99520038,,,,,,,,,,,,,,,,,,,,,,,,,,,,,,,,,,,,,,,,,,piste,images/br_piste.png,images/cb_piste.png,,piste,,,,,,,,,,,-0.194444444,-0.362037023,1,0,0,piste,0,29,29,5,1
,,,,,,,2023-10-17_08h51.24.598,vbt_B2_day2,2022.2.4,Win32,59.99520038,,,,,,,,,,,,,,,,,,,,,,,,,,,,,,,,,,,,,,,,,,stes,images/br_stes.png,images/cb_stes.png,,stes,,,,,,,,,,,-0.194444444,-0.362037023,1,0,0,stes,0,30,30,21,1
,,,,,,,2023-10-17_08h51.24.598,vbt_B2_day2,2022.2.4,Win32,59.99520038,,,,,,,,,,,,,,,,,,,,,,,,,,,,,,,,,,,,,,,,,,diep,images/br_diep.png,images/cb_diep.png,,geip,,,,,,,,,,,-0.194444444,-0.368518547,1,0,0,geip,0,31,31,2,1
,,,,,,,2023-10-17_08h51.24.598,vbt_B2_day2,2022.2.4,Win32,59.99520038,,,,,,,,,,,,,,,,,,,,,,,,,,,,,,,,,,,,,,,,,,jagen,images/br_jagen.png,images/cb_jagen.png,,...gen,,,,,,,,,,,-0.19259255,-0.368518547,1,0,0,...gen,0,32,32,6,1
,,,,,,,2023-10-17_08h51.24.598,vbt_B2_day2,2022.2.4,Win32,59.99520038,,,,,,,,,,,,,,,,,,,,,,,,,,,,,,,,,,,,,,,,,,negel,images/br_negel.png,images/cb_negel.png,,negel,,,,,,,,,,,-0.22592594,-0.336111139,1,0,0,negel,0,33,33,24,1
,,,,,,,2023-10-17_08h51.24.598,vbt_B2_day2,2022.2.4,Win32,59.99520038,,,,,,,,,,,,,,,,,,,,,,,,,,,,,,,,,,,,,,,,,,dode,images/br_dode.png,images/cb_dode.png,,goge,,,,,,,,,,,-0.166666667,-0.248148176,1,0,0,goge,0,34,34,41,1
,,,,,,,2023-10-17_08h51.24.598,vbt_B2_day2,2022.2.4,Win32,59.99520038,,,,,,,,,,,,,,,,,,,,,,,,,,,,,,,,,,,,,,,,,,lurgen,images/br_lurgen.png,images/cb_lurgen.png,,l....,,,,,,,,,,,-0.165740755,-0.248148176,1,0,0,l....,0,35,35,29,1
,,,,,,,2023-10-17_08h51.24.598,vbt_B2_day2,2022.2.4,Win32,59.99520038,,,,,,,,,,,,,,,,,,,,,,,,,,,,,,,,,,,,,,,,,,welzijn,images/br_welzijn.png,images/cb_welzijn.png,,/,,,,,,,,,,,-0.160185143,-0.262037065,1,0,0,/,0,36,36,52,1
,,,,,,,2023-10-17_08h51.24.598,vbt_B2_day2,2022.2.4,Win32,59.99520038,,,,,,,,,,,,,,,,,,,,,,,,,,,,,,,,,,,,,,,,,,toeval,images/br_toeval.png,images/cb_toeval.png,,toe...,,,,,,,,,,,-0.160185143,-0.262037065,1,0,0,toe...,0,37,37,11,1
,,,,,,,2023-10-17_08h51.24.598,vbt_B2_day2,2022.2.4,Win32,59.99520038,,,,,,,,,,,,,,,,,,,,,,,,,,,,,,,,,,,,,,,,,,ningen,images/br_ningen.png,images/cb_ningen.png,,ning...,,,,,,,,,,,-0.160185143,-0.262037065,1,0,0,ning...,0,38,38,28,1
,,,,,,,2023-10-17_08h51.24.598,vbt_B2_day2,2022.2.4,Win32,59.99520038,,,,,,,,,,,,,,,,,,,,,,,,,,,,,,,,,,,,,,,,,,bloeien,images/br_bloeien.png,images/cb_bloeien.png,,bloeien,,,,,,,,,,,-0.154629601,-0.304629644,1,0,0,bloeien,0,39,39,12,1
,,,,,,,2023-10-17_08h51.24.598,vbt_B2_day2,2022.2.4,Win32,59.99520038,,,,,,,,,,,,,,,,,,,,,,,,,,,,,,,,,,,,,,,,,,eenhoorn,images/br_eenhoorn.png,images/cb_eenhoorn.png,,eentonig,,,,,,,,,,,-0.151851866,-0.306481467,1,0,0,eentonig,0,40,40,19,1
,,,,,,,2023-10-17_08h51.24.598,vbt_B2_day2,2022.2.4,Win32,59.99520038,,,,,,,,,,,,,,,,,,,,,,,,,,,,,,,,,,,,,,,,,,agressie,images/br_agressie.png,images/cb_agressie.png,,achiss,,,,,,,,,,,-0.14907406,-0.30740745,1,0,0,achiss,0,41,41,59,1
,,,,,,,2023-10-17_08h51.24.598,vbt_B2_day2,2022.2.4,Win32,59.99520038,,,,,,,,,,,,,,,,,,,,,,,,,,,,,,,,,,,,,,,,,,anarchie,images/br_anarchie.png,images/cb_anarchie.png,,anahc,,,,,,,,,,,-0.14907406,-0.30740745,1,0,0,anahc,0,42,42,16,1
,,,,,,,2023-10-17_08h51.24.598,vbt_B2_day2,2022.2.4,Win32,59.99520038,,,,,,,,,,,,,,,,,,,,,,,,,,,,,,,,,,,,,,,,,,moes,images/br_moes.png,images/cb_moes.png,,.,,,,,,,,,,,-0.154629601,-0.320370356,1,0,0,.,0,43,43,0,1
,,,,,,,2023-10-17_08h51.24.598,vbt_B2_day2,2022.2.4,Win32,59.99520038,,,,,,,,,,,,,,,,,,,,,,,,,,,,,,,,,,,,,,,,,,zegel,images/br_zegel.png,images/cb_zegel.png,,negel,,,,,,,,,,,-0.155555513,-0.320370356,1,0,0,negel,0,44,44,46,1
,,,,,,,2023-10-17_08h51.24.598,vbt_B2_day2,2022.2.4,Win32,59.99520038,,,,,,,,,,,,,,,,,,,,,,,,,,,,,,,,,,,,,,,,,,feestdag,images/br_feestdag.png,images/cb_feestdag.png,,...st..,,,,,,,,,,,-0.171296296,-0.356481481,1,0,0,...st..,0,45,45,17,1
,,,,,,,2023-10-17_08h51.24.598,vbt_B2_day2,2022.2.4,Win32,59.99520038,,,,,,,,,,,,,,,,,,,,,,,,,,,,,,,,,,,,,,,,,,tweeling,images/br_tweeling.png,images/cb_tweeling.png,,tweeling,,,,,,,,,,,-0.165740755,-0.37962963,1,0,0,tweeling,0,46,46,58,1
,,,,,,,2023-10-17_08h51.24.598,vbt_B2_day2,2022.2.4,Win32,59.99520038,,,,,,,,,,,,,,,,,,,,,,,,,,,,,,,,,,,,,,,,,,systeem,images/br_systeem.png,images/cb_systeem.png,,swst...,,,,,,,,,,,-0.112037023,-0.291666667,1,0,0,swst...,0,47,47,54,1
,,,,,,,2023-10-17_08h51.24.598,vbt_B2_day2,2022.2.4,Win32,59.99520038,,,,,,,,,,,,,,,,,,,,,,,,,,,,,,,,,,,,,,,,,,tand,images/br_tand.png,images/cb_tand.png,,tan.,,,,,,,,,,,-0.112037023,-0.291666667,1,0,0,tan.,0,48,48,42,1
,,,,,,,2023-10-17_08h51.24.598,vbt_B2_day2,2022.2.4,Win32,59.99520038,,,,,,,,,,,,,,,,,,,,,,,,,,,,,,,,,,,,,,,,,,aanvraag,images/br_aanvraag.png,images/cb_aanvraag.png,,aan...,,,,,,,,,,,-0.112037023,-0.291666667,1,0,0,aan...,0,49,49,57,1
,,,,,,,2023-10-17_08h51.24.598,vbt_B2_day2,2022.2.4,Win32,59.99520038,,,,,,,,,,,,,,,,,,,,,,,,,,,,,,,,,,,,,,,,,,ophuimen,images/br_ophuimen.png,images/cb_ophuimen.png,,/,,,,,,,,,,,-0.130555541,-0.335185228,1,0,0,/,0,50,50,36,1
,,,,,,,2023-10-17_08h51.24.598,vbt_B2_day2,2022.2.4,Win32,59.99520038,,,,,,,,,,,,,,,,,,,,,,,,,,,,,,,,,,,,,,,,,,kasteel,images/br_kasteel.png,images/cb_kasteel.png,,/,,,,,,,,,,,-0.130555541,-0.335185228,1,0,0,/,0,51,51,14,1
,,,,,,,2023-10-17_08h51.24.598,vbt_B2_day2,2022.2.4,Win32,59.99520038,,,,,,,,,,,,,,,,,,,,,,,,,,,,,,,,,,,,,,,,,,opdatten,images/br_opdatten.png,images/cb_opdatten.png,,.,,,,,,,,,,,-0.130555541,-0.335185228,1,0,0,.,0,52,52,37,1
,,,,,,,2023-10-17_08h51.24.598,vbt_B2_day2,2022.2.4,Win32,59.99520038,,,,,,,,,,,,,,,,,,,,,,,,,,,,,,,,,,,,,,,,,,remel,images/br_remel.png,images/cb_remel.png,,hevel,,,,,,,,,,,-0.130555541,-0.335185228,1,0,0,hevel,0,53,53,25,1
,,,,,,,2023-10-17_08h51.24.598,vbt_B2_day2,2022.2.4,Win32,59.99520038,,,,,,,,,,,,,,,,,,,,,,,,,,,,,,,,,,,,,,,,,,badon,images/br_badon.png,images/cb_badon.png,,bagan,,,,,,,,,,,-0.130555541,-0.335185228,1,0,0,bagan,0,54,54,26,1
,,,,,,,2023-10-17_08h51.24.598,vbt_B2_day2,2022.2.4,Win32,59.99520038,,,,,,,,,,,,,,,,,,,,,,,,,,,,,,,,,,,,,,,,,,jong,images/br_jong.png,images/cb_jong.png,,.ong,,,,,,,,,,,-0.130555541,-0.335185228,1,0,0,.ong,0,55,55,43,1
,,,,,,,2023-10-17_08h51.24.598,vbt_B2_day2,2022.2.4,Win32,59.99520038,,,,,,,,,,,,,,,,,,,,,,,,,,,,,,,,,,,,,,,,,,doodmoe,images/br_doodmoe.png,images/cb_doodmoe.png,,.oo.eg,,,,,,,,,,,-0.130555541,-0.335185228,1,0,0,.oo.eg,0,56,56,15,1
,,,,,,,2023-10-17_08h51.24.598,vbt_B2_day2,2022.2.4,Win32,59.99520038,,,,,,,,,,,,,,,,,,,,,,,,,,,,,,,,,,,,,,,,,,manieren,images/br_manieren.png,images/cb_manieren.png,,.,,,,,,,,,,,-0.112037023,-0.291666667,1,0,0,.,0,57,57,56,1
,,,,,,,2023-10-17_08h51.24.598,vbt_B2_day2,2022.2.4,Win32,59.99520038,,,,,,,,,,,,,,,,,,,,,,,,,,,,,,,,,,,,,,,,,,clan,images/br_clan.png,images/cb_clan.png,,slan,,,,,,,,,,,-0.112037023,-0.295370384,1,0,0,slan,0,58,58,40,1
,,,,,,,2023-10-17_08h51.24.598,vbt_B2_day2,2022.2.4,Win32,59.99520038,,,,,,,,,,,,,,,,,,,,,,,,,,,,,,,,,,,,,,,,,,heilig,images/br_heilig.png,images/cb_heilig.png,,wielig,,,,,,,,,,,-0.031481496,-0.285185213,1,0,0,wielig,0,59,59,9,1
,,,,,,,2023-10-17_08h51.24.598,vbt_B2_day2,2022.2.4,Win32,59.99520038,,,,,,,,,,,,,,,,,,,,,,,,,,,,,,,,,,,,,,,,,,,,,,,,,,,,,,,,,,,,,,,,,,,
