welcome_mouse.x,welcome_mouse.y,welcome_mouse.leftButton,welcome_mouse.midButton,welcome_mouse.rightButton,welcome_mouse.time,"ID",date,expName,psychopyVersion,OS,frameRate,refresh_mouse.x,refresh_mouse.y,refresh_mouse.leftButton,refresh_mouse.midButton,refresh_mouse.rightButton,refresh_mouse.time,braille_mouse.x,braille_mouse.y,braille_mouse.leftButton,braille_mouse.midButton,braille_mouse.rightButton,braille_mouse.time,trials.thisRepN,trials.thisTrialN,trials.thisN,trials.thisIndex,trials.ran,nlLet,brLet,cbLet,trainInstr_mouse.x,trainInstr_mouse.y,trainInstr_mouse.leftButton,trainInstr_mouse.midButton,trainInstr_mouse.rightButton,trainInstr_mouse.time,translation_key.keys,translation_key.corr,translation_key.rt,word_rsp.text,word_mouse.x,word_mouse.y,word_mouse.leftButton,word_mouse.midButton,word_mouse.rightButton,word_mouse.time,train_loop.thisRepN,train_loop.thisTrialN,train_loop.thisN,train_loop.thisIndex,train_loop.ran,nlWrd,brWrd,cbWrd,test,testResp,mouse.x,mouse.y,mouse.leftButton,mouse.midButton,mouse.rightButton,testInstr_mouse.x,testInstr_mouse.y,testInstr_mouse.leftButton,testInstr_mouse.midButton,testInstr_mouse.rightButton,test_mouse.x,test_mouse.y,test_mouse.leftButton,test_mouse.midButton,test_mouse.rightButton,test_response.text,test_loop.thisRepN,test_loop.thisTrialN,test_loop.thisN,test_loop.thisIndex,test_loop.ran
-0.273085937,-0.210963542,1,0,0,9.4074,00047,2023-10-18_18h42.08.493,vbt_B2_day2,2022.2.4,MacIntel,59.99880002,,,,,,,,,,,,,,,,,,,,,,,,,,,,,,,,,,,,,,,,,,,,,,,,,,,,,,,,,,,,,,,,,,,
,,,,,,00047,2023-10-18_18h42.08.493,vbt_B2_day2,2022.2.4,MacIntel,59.99880002,-0.272478299,-0.179236111,1,0,0,11.7287,,,,,,,,,,,,,,,,,,,,,,,,,,,,,,,,,,,,,,,,,,,,,,,,,,,,,,,,,,,,,
,,,,,,00047,2023-10-18_18h42.08.493,vbt_B2_day2,2022.2.4,MacIntel,59.99880002,,,,,,,-0.26983941,-0.176306424,1,0,0,0.2498,0,0,0,12,1,m,images/br_m.png,images/cb_m.png,,,,,,,,,,,,,,,,,,,,,,,,,,,,,,,,,,,,,,,,,,,,,,,
,,,,,,00047,2023-10-18_18h42.08.493,vbt_B2_day2,2022.2.4,MacIntel,59.99880002,,,,,,,-0.233142361,-0.233980035,1,0,0,0.4982,0,1,1,5,1,f,images/br_f.png,images/cb_f.png,,,,,,,,,,,,,,,,,,,,,,,,,,,,,,,,,,,,,,,,,,,,,,,
,,,,,,00047,2023-10-18_18h42.08.493,vbt_B2_day2,2022.2.4,MacIntel,59.99880002,,,,,,,-0.223684896,-0.229227431,1,0,0,0.4655,0,2,2,7,1,h,images/br_h.png,images/cb_h.png,,,,,,,,,,,,,,,,,,,,,,,,,,,,,,,,,,,,,,,,,,,,,,,
,,,,,,00047,2023-10-18_18h42.08.493,vbt_B2_day2,2022.2.4,MacIntel,59.99880002,,,,,,,-0.223684896,-0.229227431,1,0,0,0.2663,0,3,3,24,1,y,images/br_y.png,images/cb_y.png,,,,,,,,,,,,,,,,,,,,,,,,,,,,,,,,,,,,,,,,,,,,,,,
,,,,,,00047,2023-10-18_18h42.08.493,vbt_B2_day2,2022.2.4,MacIntel,59.99880002,,,,,,,-0.223684896,-0.229227431,1,0,0,1.7633,0,4,4,3,1,d,images/br_d.png,images/cb_d.png,,,,,,,,,,,,,,,,,,,,,,,,,,,,,,,,,,,,,,,,,,,,,,,
,,,,,,00047,2023-10-18_18h42.08.493,vbt_B2_day2,2022.2.4,MacIntel,59.99880002,,,,,,,-0.223684896,-0.229227431,1,0,0,1.7989,0,5,5,18,1,s,images/br_s.png,images/cb_s.png,,,,,,,,,,,,,,,,,,,,,,,,,,,,,,,,,,,,,,,,,,,,,,,
,,,,,,00047,2023-10-18_18h42.08.493,vbt_B2_day2,2022.2.4,MacIntel,59.99880002,,,,,,,-0.223684896,-0.229227431,1,0,0,3.1654,0,6,6,16,1,q,images/br_q.png,images/cb_q.png,,,,,,,,,,,,,,,,,,,,,,,,,,,,,,,,,,,,,,,,,,,,,,,
,,,,,,00047,2023-10-18_18h42.08.493,vbt_B2_day2,2022.2.4,MacIntel,59.99880002,,,,,,,-0.223684896,-0.229227431,1,0,0,0.6849,0,7,7,11,1,l,images/br_l.png,images/cb_l.png,,,,,,,,,,,,,,,,,,,,,,,,,,,,,,,,,,,,,,,,,,,,,,,
,,,,,,00047,2023-10-18_18h42.08.493,vbt_B2_day2,2022.2.4,MacIntel,59.99880002,,,,,,,-0.223684896,-0.229227431,1,0,0,1.3833,0,8,8,20,1,u,images/br_u.png,images/cb_u.png,,,,,,,,,,,,,,,,,,,,,,,,,,,,,,,,,,,,,,,,,,,,,,,
,,,,,,00047,2023-10-18_18h42.08.493,vbt_B2_day2,2022.2.4,MacIntel,59.99880002,,,,,,,-0.269123264,-0.11875,1,0,0,1.3824,0,9,9,1,1,b,images/br_b.png,images/cb_b.png,,,,,,,,,,,,,,,,,,,,,,,,,,,,,,,,,,,,,,,,,,,,,,,
,,,,,,00047,2023-10-18_18h42.08.493,vbt_B2_day2,2022.2.4,MacIntel,59.99880002,,,,,,,-0.260868056,-0.127330729,1,0,0,2.6,0,10,10,19,1,t,images/br_t.png,images/cb_t.png,,,,,,,,,,,,,,,,,,,,,,,,,,,,,,,,,,,,,,,,,,,,,,,
,,,,,,00047,2023-10-18_18h42.08.493,vbt_B2_day2,2022.2.4,MacIntel,59.99880002,,,,,,,-0.260868056,-0.127330729,1,0,0,14.3511,0,11,11,4,1,e,images/br_e.png,images/cb_e.png,,,,,,,,,,,,,,,,,,,,,,,,,,,,,,,,,,,,,,,,,,,,,,,
,,,,,,00047,2023-10-18_18h42.08.493,vbt_B2_day2,2022.2.4,MacIntel,59.99880002,,,,,,,-0.260868056,-0.127868924,1,0,0,2.2319,0,12,12,21,1,v,images/br_v.png,images/cb_v.png,,,,,,,,,,,,,,,,,,,,,,,,,,,,,,,,,,,,,,,,,,,,,,,
,,,,,,00047,2023-10-18_18h42.08.493,vbt_B2_day2,2022.2.4,MacIntel,59.99880002,,,,,,,-0.260868056,-0.127868924,1,0,0,1.0136,0,13,13,10,1,k,images/br_k.png,images/cb_k.png,,,,,,,,,,,,,,,,,,,,,,,,,,,,,,,,,,,,,,,,,,,,,,,
,,,,,,00047,2023-10-18_18h42.08.493,vbt_B2_day2,2022.2.4,MacIntel,59.99880002,,,,,,,-0.260868056,-0.127868924,1,0,0,0.8004,0,14,14,15,1,p,images/br_p.png,images/cb_p.png,,,,,,,,,,,,,,,,,,,,,,,,,,,,,,,,,,,,,,,,,,,,,,,
,,,,,,00047,2023-10-18_18h42.08.493,vbt_B2_day2,2022.2.4,MacIntel,59.99880002,,,,,,,-0.260868056,-0.127868924,1,0,0,0.9514,0,15,15,6,1,g,images/br_g.png,images/cb_g.png,,,,,,,,,,,,,,,,,,,,,,,,,,,,,,,,,,,,,,,,,,,,,,,
,,,,,,00047,2023-10-18_18h42.08.493,vbt_B2_day2,2022.2.4,MacIntel,59.99880002,,,,,,,-0.260868056,-0.127868924,1,0,0,0.6158,0,16,16,2,1,c,images/br_c.png,images/cb_c.png,,,,,,,,,,,,,,,,,,,,,,,,,,,,,,,,,,,,,,,,,,,,,,,
,,,,,,00047,2023-10-18_18h42.08.493,vbt_B2_day2,2022.2.4,MacIntel,59.99880002,,,,,,,-0.260868056,-0.127868924,1,0,0,1.5481,0,17,17,22,1,w,images/br_w.png,images/cb_w.png,,,,,,,,,,,,,,,,,,,,,,,,,,,,,,,,,,,,,,,,,,,,,,,
,,,,,,00047,2023-10-18_18h42.08.493,vbt_B2_day2,2022.2.4,MacIntel,59.99880002,,,,,,,-0.260868056,-0.127868924,1,0,0,0.5014,0,18,18,25,1,z,images/br_z.png,images/cb_z.png,,,,,,,,,,,,,,,,,,,,,,,,,,,,,,,,,,,,,,,,,,,,,,,
,,,,,,00047,2023-10-18_18h42.08.493,vbt_B2_day2,2022.2.4,MacIntel,59.99880002,,,,,,,-0.260868056,-0.127868924,1,0,0,1.3336,0,19,19,8,1,i,images/br_i.png,images/cb_i.png,,,,,,,,,,,,,,,,,,,,,,,,,,,,,,,,,,,,,,,,,,,,,,,
,,,,,,00047,2023-10-18_18h42.08.493,vbt_B2_day2,2022.2.4,MacIntel,59.99880002,,,,,,,-0.260868056,-0.127604167,1,0,0,1.0666,0,20,20,9,1,j,images/br_j.png,images/cb_j.png,,,,,,,,,,,,,,,,,,,,,,,,,,,,,,,,,,,,,,,,,,,,,,,
,,,,,,00047,2023-10-18_18h42.08.493,vbt_B2_day2,2022.2.4,MacIntel,59.99880002,,,,,,,-0.260868056,-0.127604167,1,0,0,0.2485,0,21,21,17,1,r,images/br_r.png,images/cb_r.png,,,,,,,,,,,,,,,,,,,,,,,,,,,,,,,,,,,,,,,,,,,,,,,
,,,,,,00047,2023-10-18_18h42.08.493,vbt_B2_day2,2022.2.4,MacIntel,59.99880002,,,,,,,-0.260868056,-0.127604167,1,0,0,0.5516,0,22,22,23,1,x,images/br_x.png,images/cb_x.png,,,,,,,,,,,,,,,,,,,,,,,,,,,,,,,,,,,,,,,,,,,,,,,
,,,,,,00047,2023-10-18_18h42.08.493,vbt_B2_day2,2022.2.4,MacIntel,59.99880002,,,,,,,-0.260868056,-0.127604167,1,0,0,2.981,0,23,23,0,1,a,images/br_a.png,images/cb_a.png,,,,,,,,,,,,,,,,,,,,,,,,,,,,,,,,,,,,,,,,,,,,,,,
,,,,,,00047,2023-10-18_18h42.08.493,vbt_B2_day2,2022.2.4,MacIntel,59.99880002,,,,,,,-0.260868056,-0.127604167,1,0,0,0.3146,0,24,24,14,1,o,images/br_o.png,images/cb_o.png,,,,,,,,,,,,,,,,,,,,,,,,,,,,,,,,,,,,,,,,,,,,,,,
,,,,,,00047,2023-10-18_18h42.08.493,vbt_B2_day2,2022.2.4,MacIntel,59.99880002,,,,,,,-0.260868056,-0.127604167,1,0,0,1.317,0,25,25,13,1,n,images/br_n.png,images/cb_n.png,,,,,,,,,,,,,,,,,,,,,,,,,,,,,,,,,,,,,,,,,,,,,,,
,,,,,,00047,2023-10-18_18h42.08.493,vbt_B2_day2,2022.2.4,MacIntel,59.99880002,,,,,,,,,,,,,,,,,,,,,0.546263021,-0.001189236,1,0,0,31.9361,,,,,,,,,,,,,,,,,,,,,,,,,,,,,,,,,,,,,,,,,
,,,,,,00047,2023-10-18_18h42.08.493,vbt_B2_day2,2022.2.4,MacIntel,59.99880002,,,,,,,,,,,,,,,,,,,,,,,,,,,down,0,19.35,,0.012239583,-0.020429688,1,0,0,3.0956,0,0,0,199,1,beseffen,images/br_beseffen.png,images/cb_beseffen.png,0,,,,,,,,,,,,,,,,,,,,,,
,,,,,,00047,2023-10-18_18h42.08.493,vbt_B2_day2,2022.2.4,MacIntel,59.99880002,,,,,,,,,,,,,,,,,,,,,,,,,,,down,0,20.9357,,-0.028172743,0.014895833,1,0,0,1.5676,0,1,1,14,1,rijp,images/br_rijp.png,images/cb_rijp.png,0,,,,,,,,,,,,,,,,,,,,,,
,,,,,,00047,2023-10-18_18h42.08.493,vbt_B2_day2,2022.2.4,MacIntel,59.99880002,,,,,,,,,,,,,,,,,,,,,,,,,,,down,0,2.9674,,-0.040056424,0.09015625,1,0,0,1.3164,0,2,2,27,1,dans,images/br_dans.png,images/cb_dans.png,0,,,,,,,,,,,,,,,,,,,,,,
,,,,,,00047,2023-10-18_18h42.08.493,vbt_B2_day2,2022.2.4,MacIntel,59.99880002,,,,,,,,,,,,,,,,,,,,,,,,,,,down,0,13.6879,,-0.059639757,0.061189236,1,0,0,1.6852,0,3,3,46,1,jagen,images/br_jagen.png,images/cb_jagen.png,0,,,,,,,,,,,,,,,,,,,,,,
,,,,,,00047,2023-10-18_18h42.08.493,vbt_B2_day2,2022.2.4,MacIntel,59.99880002,,,,,,,,,,,,,,,,,,,,,,,,,,,down,0,8.4662,,-0.111710069,0.06375434,1,0,0,1.4514,0,4,4,93,1,waarop,images/br_waarop.png,images/cb_waarop.png,0,,,,,,,,,,,,,,,,,,,,,,
,,,,,,00047,2023-10-18_18h42.08.493,vbt_B2_day2,2022.2.4,MacIntel,59.99880002,,,,,,,,,,,,,,,,,,,,,,,,,,,down,0,8.2663,,-0.106545139,0.072083333,1,0,0,2.5478,0,5,5,173,1,apparaat,images/br_apparaat.png,images/cb_apparaat.png,0,,,,,,,,,,,,,,,,,,,,,,
,,,,,,00047,2023-10-18_18h42.08.493,vbt_B2_day2,2022.2.4,MacIntel,59.99880002,,,,,,,,,,,,,,,,,,,,,,,,,,,down,0,1.1519,,-0.12734375,0.101189236,1,0,0,2.0834,0,6,6,39,1,laag,images/br_laag.png,images/cb_laag.png,0,,,,,,,,,,,,,,,,,,,,,,
,,,,,,00047,2023-10-18_18h42.08.493,vbt_B2_day2,2022.2.4,MacIntel,59.99880002,,,,,,,,,,,,,,,,,,,,,,,,,,,down,0,3.1458,,-0.13312066,0.074288194,1,0,0,1.3657,0,7,7,68,1,schat,images/br_schat.png,images/cb_schat.png,0,,,,,,,,,,,,,,,,,,,,,,
,,,,,,00047,2023-10-18_18h42.08.493,vbt_B2_day2,2022.2.4,MacIntel,59.99880002,,,,,,,,,,,,,,,,,,,,,,,,,,,down,0,11.2892,,-0.097699653,0.122743056,1,0,0,1.4328,0,8,8,145,1,invloed,images/br_invloed.png,images/cb_invloed.png,0,,,,,,,,,,,,,,,,,,,,,,
,,,,,,00047,2023-10-18_18h42.08.493,vbt_B2_day2,2022.2.4,MacIntel,59.99880002,,,,,,,,,,,,,,,,,,,,,,,,,,,down,0,15.4899,,-0.020794271,-0.090026042,1,0,0,4.4011,0,9,9,16,1,ziek,images/br_ziek.png,images/cb_ziek.png,1,ziek,,,,,,,,,,,,,,,,,,,,,
,,,,,,00047,2023-10-18_18h42.08.493,vbt_B2_day2,2022.2.4,MacIntel,59.99880002,,,,,,,,,,,,,,,,,,,,,,,,,,,down,0,12.2579,,-0.006306424,-0.211970486,1,0,0,4.2163,0,10,10,49,1,laken,images/br_laken.png,images/cb_laken.png,0,,,,,,,,,,,,,,,,,,,,,,
,,,,,,00047,2023-10-18_18h42.08.493,vbt_B2_day2,2022.2.4,MacIntel,59.99880002,,,,,,,,,,,,,,,,,,,,,,,,,,,down,0,8.1268,,-0.010946181,-0.14531684,1,0,0,1.2132,0,11,11,30,1,uien,images/br_uien.png,images/cb_uien.png,0,,,,,,,,,,,,,,,,,,,,,,
,,,,,,00047,2023-10-18_18h42.08.493,vbt_B2_day2,2022.2.4,MacIntel,59.99880002,,,,,,,,,,,,,,,,,,,,,,,,,,,down,0,5.0403,,-0.005651042,-0.113211806,1,0,0,0.9154,0,12,12,86,1,woning,images/br_woning.png,images/cb_woning.png,0,,,,,,,,,,,,,,,,,,,,,,
,,,,,,00047,2023-10-18_18h42.08.493,vbt_B2_day2,2022.2.4,MacIntel,59.99880002,,,,,,,,,,,,,,,,,,,,,,,,,,,down,0,10.3587,,0.041970486,-0.088810764,1,0,0,0.9014,0,13,13,141,1,knielen,images/br_knielen.png,images/cb_knielen.png,0,,,,,,,,,,,,,,,,,,,,,,
,,,,,,00047,2023-10-18_18h42.08.493,vbt_B2_day2,2022.2.4,MacIntel,59.99880002,,,,,,,,,,,,,,,,,,,,,,,,,,,down,0,4.7249,,0.031384549,-0.122434896,1,0,0,1.0468,0,14,14,161,1,attentie,images/br_attentie.png,images/cb_attentie.png,0,,,,,,,,,,,,,,,,,,,,,,
,,,,,,00047,2023-10-18_18h42.08.493,vbt_B2_day2,2022.2.4,MacIntel,59.99880002,,,,,,,,,,,,,,,,,,,,,,,,,,,down,0,5.6449,,0.059565972,-0.109652778,1,0,0,0.8826,0,15,15,128,1,prikken,images/br_prikken.png,images/cb_prikken.png,0,,,,,,,,,,,,,,,,,,,,,,
,,,,,,00047,2023-10-18_18h42.08.493,vbt_B2_day2,2022.2.4,MacIntel,59.99880002,,,,,,,,,,,,,,,,,,,,,,,,,,,down,0,4.9698,,0.060759549,-0.086692708,1,0,0,0.9671,0,16,16,72,1,strak,images/br_strak.png,images/cb_strak.png,0,,,,,,,,,,,,,,,,,,,,,,
,,,,,,00047,2023-10-18_18h42.08.493,vbt_B2_day2,2022.2.4,MacIntel,59.99880002,,,,,,,,,,,,,,,,,,,,,,,,,,,down,0,11.0764,,0.063554687,-0.079079861,1,0,0,2.1497,0,17,17,33,1,vlek,images/br_vlek.png,images/cb_vlek.png,0,,,,,,,,,,,,,,,,,,,,,,
,,,,,,00047,2023-10-18_18h42.08.493,vbt_B2_day2,2022.2.4,MacIntel,59.99880002,,,,,,,,,,,,,,,,,,,,,,,,,,,down,0,13.4232,,-0.009895833,-0.185381944,1,0,0,1.649,0,18,18,97,1,loyaal,images/br_loyaal.png,images/cb_loyaal.png,1,loyaal,,,,,,,,,,,,,,,,,,,,,
,,,,,,00047,2023-10-18_18h42.08.493,vbt_B2_day2,2022.2.4,MacIntel,59.99880002,,,,,,,,,,,,,,,,,,,,,,,,,,,down,0,22.9353,,-0.014071181,-0.119717882,1,0,0,1.8859,0,19,19,179,1,woestijn,images/br_woestijn.png,images/cb_woestijn.png,1,woestijn,,,,,,,,,,,,,,,,,,,,,
,,,,,,00047,2023-10-18_18h42.08.493,vbt_B2_day2,2022.2.4,MacIntel,59.99880002,,,,,,,,,,,,,,,,,,,,,,,,,,,down,0,12.285,,-0.014071181,-0.119717882,1,0,0,1.066,0,20,20,153,1,vervoer,images/br_vervoer.png,images/cb_vervoer.png,0,,,,,,,,,,,,,,,,,,,,,,
,,,,,,00047,2023-10-18_18h42.08.493,vbt_B2_day2,2022.2.4,MacIntel,59.99880002,,,,,,,,,,,,,,,,,,,,,,,,,,,down,0,5.853,,0.003185764,-0.113871528,1,0,0,2.5986,0,21,21,75,1,snoep,images/br_snoep.png,images/cb_snoep.png,0,,,,,,,,,,,,,,,,,,,,,,
,,,,,,00047,2023-10-18_18h42.08.493,vbt_B2_day2,2022.2.4,MacIntel,59.99880002,,,,,,,,,,,,,,,,,,,,,,,,,,,down,0,3.2899,,0.003185764,-0.113871528,1,0,0,0.7177,0,22,22,11,1,mode,images/br_mode.png,images/cb_mode.png,0,,,,,,,,,,,,,,,,,,,,,,
,,,,,,00047,2023-10-18_18h42.08.493,vbt_B2_day2,2022.2.4,MacIntel,59.99880002,,,,,,,,,,,,,,,,,,,,,,,,,,,down,0,6.3869,,0.003185764,-0.113871528,1,0,0,0.9475,0,23,23,117,1,kennis,images/br_kennis.png,images/cb_kennis.png,0,,,,,,,,,,,,,,,,,,,,,,
,,,,,,00047,2023-10-18_18h42.08.493,vbt_B2_day2,2022.2.4,MacIntel,59.99880002,,,,,,,,,,,,,,,,,,,,,,,,,,,down,0,5.6705,,0.003185764,-0.113871528,1,0,0,0.636,0,24,24,41,1,maken,images/br_maken.png,images/cb_maken.png,0,,,,,,,,,,,,,,,,,,,,,,
,,,,,,00047,2023-10-18_18h42.08.493,vbt_B2_day2,2022.2.4,MacIntel,59.99880002,,,,,,,,,,,,,,,,,,,,,,,,,,,down,0,3.6681,,0.003185764,-0.113871528,1,0,0,0.9491,0,25,25,103,1,joggen,images/br_joggen.png,images/cb_joggen.png,0,,,,,,,,,,,,,,,,,,,,,,
,,,,,,00047,2023-10-18_18h42.08.493,vbt_B2_day2,2022.2.4,MacIntel,59.99880002,,,,,,,,,,,,,,,,,,,,,,,,,,,down,0,5.5504,,0.007178819,-0.088784722,1,0,0,1.1675,0,26,26,63,1,flirt,images/br_flirt.png,images/cb_flirt.png,0,,,,,,,,,,,,,,,,,,,,,,
,,,,,,00047,2023-10-18_18h42.08.493,vbt_B2_day2,2022.2.4,MacIntel,59.99880002,,,,,,,,,,,,,,,,,,,,,,,,,,,down,0,2.6244,,0.007178819,-0.088784722,1,0,0,0.8497,0,27,27,150,1,gegeven,images/br_gegeven.png,images/cb_gegeven.png,0,,,,,,,,,,,,,,,,,,,,,,
,,,,,,00047,2023-10-18_18h42.08.493,vbt_B2_day2,2022.2.4,MacIntel,59.99880002,,,,,,,,,,,,,,,,,,,,,,,,,,,down,0,12.1798,,-0.049874132,-0.0890625,1,0,0,1.098,0,28,28,167,1,eenhoorn,images/br_eenhoorn.png,images/cb_eenhoorn.png,0,,,,,,,,,,,,,,,,,,,,,,
,,,,,,00047,2023-10-18_18h42.08.493,vbt_B2_day2,2022.2.4,MacIntel,59.99880002,,,,,,,,,,,,,,,,,,,,,,,,,,,down,0,11.216,,0.030082465,-0.108667535,1,0,0,1.3156,0,29,29,176,1,techniek,images/br_techniek.png,images/cb_techniek.png,1,techniek,,,,,,,,,,,,,,,,,,,,,
,,,,,,00047,2023-10-18_18h42.08.493,vbt_B2_day2,2022.2.4,MacIntel,59.99880002,,,,,,,,,,,,,,,,,,,,,,,,,,,down,0,6.9537,,0.035377604,-0.114314236,1,0,0,0.9166,0,30,30,82,1,muziek,images/br_muziek.png,images/cb_muziek.png,0,,,,,,,,,,,,,,,,,,,,,,
,,,,,,00047,2023-10-18_18h42.08.493,vbt_B2_day2,2022.2.4,MacIntel,59.99880002,,,,,,,,,,,,,,,,,,,,,,,,,,,down,0,8.3556,,0.064991319,-0.065273438,1,0,0,2.0147,0,31,31,106,1,zingen,images/br_zingen.png,images/cb_zingen.png,0,,,,,,,,,,,,,,,,,,,,,,
,,,,,,00047,2023-10-18_18h42.08.493,vbt_B2_day2,2022.2.4,MacIntel,59.99880002,,,,,,,,,,,,,,,,,,,,,,,,,,,down,0,3.4255,,0.064991319,-0.065273438,1,0,0,0.6155,0,32,32,78,1,leren,images/br_leren.png,images/cb_leren.png,0,,,,,,,,,,,,,,,,,,,,,,
,,,,,,00047,2023-10-18_18h42.08.493,vbt_B2_day2,2022.2.4,MacIntel,59.99880002,,,,,,,,,,,,,,,,,,,,,,,,,,,down,0,5.4317,,0.170581597,-0.101888021,1,0,0,1.5673,0,33,33,99,1,koffie,images/br_koffie.png,images/cb_koffie.png,1,koffie,,,,,,,,,,,,,,,,,,,,,
,,,,,,00047,2023-10-18_18h42.08.493,vbt_B2_day2,2022.2.4,MacIntel,59.99880002,,,,,,,,,,,,,,,,,,,,,,,,,,,down,0,3.0875,,0.170581597,-0.101888021,1,0,0,1.1989,0,34,34,22,1,stof,images/br_stof.png,images/cb_stof.png,0,,,,,,,,,,,,,,,,,,,,,,
,,,,,,00047,2023-10-18_18h42.08.493,vbt_B2_day2,2022.2.4,MacIntel,59.99880002,,,,,,,,,,,,,,,,,,,,,,,,,,,down,0,11.9117,,0.173211806,-0.084956597,1,0,0,0.6504,0,35,35,108,1,excuus,images/br_excuus.png,images/cb_excuus.png,0,,,,,,,,,,,,,,,,,,,,,,
,,,,,,00047,2023-10-18_18h42.08.493,vbt_B2_day2,2022.2.4,MacIntel,59.99880002,,,,,,,,,,,,,,,,,,,,,,,,,,,down,0,13.0235,,0.237100694,-0.043224826,1,0,0,0.7488,0,36,36,162,1,uitdelen,images/br_uitdelen.png,images/cb_uitdelen.png,0,,,,,,,,,,,,,,,,,,,,,,
,,,,,,00047,2023-10-18_18h42.08.493,vbt_B2_day2,2022.2.4,MacIntel,59.99880002,,,,,,,,,,,,,,,,,,,,,,,,,,,down,0,4.8515,,0.237100694,-0.027239583,1,0,0,0.8148,0,37,37,51,1,samen,images/br_samen.png,images/cb_samen.png,0,,,,,,,,,,,,,,,,,,,,,,
,,,,,,00047,2023-10-18_18h42.08.493,vbt_B2_day2,2022.2.4,MacIntel,59.99880002,,,,,,,,,,,,,,,,,,,,,,,,,,,down,0,14.684,,0.212890625,-0.051671007,1,0,0,2.2154,0,38,38,6,1,diep,images/br_diep.png,images/cb_diep.png,0,,,,,,,,,,,,,,,,,,,,,,
,,,,,,00047,2023-10-18_18h42.08.493,vbt_B2_day2,2022.2.4,MacIntel,59.99880002,,,,,,,,,,,,,,,,,,,,,,,,,,,down,0,14.2526,,0.208615451,-0.054071181,1,0,0,3.0501,0,39,39,129,1,verhaal,images/br_verhaal.png,images/cb_verhaal.png,0,,,,,,,,,,,,,,,,,,,,,,
,,,,,,00047,2023-10-18_18h42.08.493,vbt_B2_day2,2022.2.4,MacIntel,59.99880002,,,,,,,,,,,,,,,,,,,,,,,,,,,down,0,10.9517,,0.208615451,-0.054071181,1,0,0,1.1666,0,40,40,159,1,sufferd,images/br_sufferd.png,images/cb_sufferd.png,0,,,,,,,,,,,,,,,,,,,,,,
,,,,,,00047,2023-10-18_18h42.08.493,vbt_B2_day2,2022.2.4,MacIntel,59.99880002,,,,,,,,,,,,,,,,,,,,,,,,,,,down,0,5.1506,,0.208615451,-0.054071181,1,0,0,0.8676,0,41,41,189,1,aanraden,images/br_aanraden.png,images/cb_aanraden.png,0,,,,,,,,,,,,,,,,,,,,,,
,,,,,,00047,2023-10-18_18h42.08.493,vbt_B2_day2,2022.2.4,MacIntel,59.99880002,,,,,,,,,,,,,,,,,,,,,,,,,,,down,0,4.0795,,0.208615451,-0.054071181,1,0,0,0.6857,0,42,42,47,1,kabel,images/br_kabel.png,images/cb_kabel.png,0,,,,,,,,,,,,,,,,,,,,,,
,,,,,,00047,2023-10-18_18h42.08.493,vbt_B2_day2,2022.2.4,MacIntel,59.99880002,,,,,,,,,,,,,,,,,,,,,,,,,,,down,0,3.5079,,0.133454861,-0.1040625,1,0,0,1.7327,0,43,43,57,1,steek,images/br_steek.png,images/cb_steek.png,1,steek,,,,,,,,,,,,,,,,,,,,,
,,,,,,00047,2023-10-18_18h42.08.493,vbt_B2_day2,2022.2.4,MacIntel,59.99880002,,,,,,,,,,,,,,,,,,,,,,,,,,,down,0,8.751,,0.145863715,-0.119383681,1,0,0,0.732,0,44,44,174,1,stemming,images/br_stemming.png,images/cb_stemming.png,0,,,,,,,,,,,,,,,,,,,,,,
,,,,,,00047,2023-10-18_18h42.08.493,vbt_B2_day2,2022.2.4,MacIntel,59.99880002,,,,,,,,,,,,,,,,,,,,,,,,,,,down,0,7.1351,,0.145863715,-0.119383681,1,0,0,1.5003,0,45,45,92,1,geheim,images/br_geheim.png,images/cb_geheim.png,0,,,,,,,,,,,,,,,,,,,,,,
,,,,,,00047,2023-10-18_18h42.08.493,vbt_B2_day2,2022.2.4,MacIntel,59.99880002,,,,,,,,,,,,,,,,,,,,,,,,,,,down,0,7.0697,,0.145863715,-0.119383681,1,0,0,0.7335,0,46,46,65,1,parel,images/br_parel.png,images/cb_parel.png,0,,,,,,,,,,,,,,,,,,,,,,
,,,,,,00047,2023-10-18_18h42.08.493,vbt_B2_day2,2022.2.4,MacIntel,59.99880002,,,,,,,,,,,,,,,,,,,,,,,,,,,down,0,16.9003,,0.145863715,-0.119383681,1,0,0,1.4329,0,47,47,164,1,anarchie,images/br_anarchie.png,images/cb_anarchie.png,0,,,,,,,,,,,,,,,,,,,,,,
,,,,,,00047,2023-10-18_18h42.08.493,vbt_B2_day2,2022.2.4,MacIntel,59.99880002,,,,,,,,,,,,,,,,,,,,,,,,,,,down,0,3.4676,,0.145863715,-0.119383681,1,0,0,0.6652,0,48,48,38,1,baai,images/br_baai.png,images/cb_baai.png,0,,,,,,,,,,,,,,,,,,,,,,
,,,,,,00047,2023-10-18_18h42.08.493,vbt_B2_day2,2022.2.4,MacIntel,59.99880002,,,,,,,,,,,,,,,,,,,,,,,,,,,down,0,5.4589,,0.080143229,-0.093081597,1,0,0,4.7967,0,49,49,158,1,innemen,images/br_innemen.png,images/cb_innemen.png,0,,,,,,,,,,,,,,,,,,,,,,
,,,,,,00047,2023-10-18_18h42.08.493,vbt_B2_day2,2022.2.4,MacIntel,59.99880002,,,,,,,,,,,,,,,,,,,,,,,,,,,down,0,3.8333,,0.080143229,-0.093081597,1,0,0,0.6831,0,50,50,25,1,plek,images/br_plek.png,images/cb_plek.png,0,,,,,,,,,,,,,,,,,,,,,,
,,,,,,00047,2023-10-18_18h42.08.493,vbt_B2_day2,2022.2.4,MacIntel,59.99880002,,,,,,,,,,,,,,,,,,,,,,,,,,,down,0,2.2015,,0.090169271,-0.096553819,1,0,0,1.4659,0,51,51,13,1,kaal,images/br_kaal.png,images/cb_kaal.png,0,,,,,,,,,,,,,,,,,,,,,,
,,,,,,00047,2023-10-18_18h42.08.493,vbt_B2_day2,2022.2.4,MacIntel,59.99880002,,,,,,,,,,,,,,,,,,,,,,,,,,,down,0,9.0771,,0.090169271,-0.096553819,1,0,0,0.683,0,52,52,120,1,klimmen,images/br_klimmen.png,images/cb_klimmen.png,0,,,,,,,,,,,,,,,,,,,,,,
,,,,,,00047,2023-10-18_18h42.08.493,vbt_B2_day2,2022.2.4,MacIntel,59.99880002,,,,,,,,,,,,,,,,,,,,,,,,,,,down,0,3.3739,,0.159539931,-0.061241319,1,0,0,0.617,0,53,53,148,1,smullen,images/br_smullen.png,images/cb_smullen.png,0,,,,,,,,,,,,,,,,,,,,,,
,,,,,,00047,2023-10-18_18h42.08.493,vbt_B2_day2,2022.2.4,MacIntel,59.99880002,,,,,,,,,,,,,,,,,,,,,,,,,,,down,0,5.848,,0.159539931,-0.061241319,1,0,0,0.6292,0,54,54,152,1,afnemen,images/br_afnemen.png,images/cb_afnemen.png,0,,,,,,,,,,,,,,,,,,,,,,
,,,,,,00047,2023-10-18_18h42.08.493,vbt_B2_day2,2022.2.4,MacIntel,59.99880002,,,,,,,,,,,,,,,,,,,,,,,,,,,down,0,3.8365,,0.155091146,-0.067239583,1,0,0,6.85,0,55,55,192,1,schaamte,images/br_schaamte.png,images/cb_schaamte.png,0,,,,,,,,,,,,,,,,,,,,,,
,,,,,,00047,2023-10-18_18h42.08.493,vbt_B2_day2,2022.2.4,MacIntel,59.99880002,,,,,,,,,,,,,,,,,,,,,,,,,,,down,0,3.3012,,0.227065972,-0.038967014,1,0,0,0.5149,0,56,56,89,1,slapen,images/br_slapen.png,images/cb_slapen.png,0,,,,,,,,,,,,,,,,,,,,,,
,,,,,,00047,2023-10-18_18h42.08.493,vbt_B2_day2,2022.2.4,MacIntel,59.99880002,,,,,,,,,,,,,,,,,,,,,,,,,,,down,0,8.2838,,0.227065972,-0.038967014,1,0,0,0.5979,0,57,57,94,1,oceaan,images/br_oceaan.png,images/cb_oceaan.png,0,,,,,,,,,,,,,,,,,,,,,,
,,,,,,00047,2023-10-18_18h42.08.493,vbt_B2_day2,2022.2.4,MacIntel,59.99880002,,,,,,,,,,,,,,,,,,,,,,,,,,,down,0,6.4842,,0.227065972,-0.038967014,1,0,0,0.4328,0,58,58,180,1,openbaar,images/br_openbaar.png,images/cb_openbaar.png,0,,,,,,,,,,,,,,,,,,,,,,
,,,,,,00047,2023-10-18_18h42.08.493,vbt_B2_day2,2022.2.4,MacIntel,59.99880002,,,,,,,,,,,,,,,,,,,,,,,,,,,down,0,5.8334,,0.227065972,-0.038967014,1,0,0,0.5524,0,59,59,15,1,soda,images/br_soda.png,images/cb_soda.png,0,,,,,,,,,,,,,,,,,,,,,,
,,,,,,00047,2023-10-18_18h42.08.493,vbt_B2_day2,2022.2.4,MacIntel,59.99880002,,,,,,,,,,,,,,,,,,,,,,,,,,,down,0,3.7263,,0.227065972,-0.038967014,1,0,0,0.999,0,60,60,61,1,groen,images/br_groen.png,images/cb_groen.png,0,,,,,,,,,,,,,,,,,,,,,,
,,,,,,00047,2023-10-18_18h42.08.493,vbt_B2_day2,2022.2.4,MacIntel,59.99880002,,,,,,,,,,,,,,,,,,,,,,,,,,,down,0,34.1388,,0.226236979,-0.044348958,1,0,0,1.084,0,61,61,110,1,zuster,images/br_zuster.png,images/cb_zuster.png,0,,,,,,,,,,,,,,,,,,,,,,
,,,,,,00047,2023-10-18_18h42.08.493,vbt_B2_day2,2022.2.4,MacIntel,59.99880002,,,,,,,,,,,,,,,,,,,,,,,,,,,down,0,12.1416,,0.223320313,-0.088836806,1,0,0,0.5995,0,62,62,151,1,aanzoek,images/br_aanzoek.png,images/cb_aanzoek.png,0,,,,,,,,,,,,,,,,,,,,,,
,,,,,,00047,2023-10-18_18h42.08.493,vbt_B2_day2,2022.2.4,MacIntel,59.99880002,,,,,,,,,,,,,,,,,,,,,,,,,,,down,0,30.9095,,0.223320313,-0.088836806,1,0,0,2.1168,0,63,63,77,1,woede,images/br_woede.png,images/cb_woede.png,0,,,,,,,,,,,,,,,,,,,,,,
,,,,,,00047,2023-10-18_18h42.08.493,vbt_B2_day2,2022.2.4,MacIntel,59.99880002,,,,,,,,,,,,,,,,,,,,,,,,,,,down,0,1.8001,,0.223320313,-0.088836806,1,0,0,0.4523,0,64,64,55,1,praat,images/br_praat.png,images/cb_praat.png,0,,,,,,,,,,,,,,,,,,,,,,
,,,,,,00047,2023-10-18_18h42.08.493,vbt_B2_day2,2022.2.4,MacIntel,59.99880002,,,,,,,,,,,,,,,,,,,,,,,,,,,down,0,7.0849,,0.223320313,-0.088836806,1,0,0,0.5837,0,65,65,154,1,aflopen,images/br_aflopen.png,images/cb_aflopen.png,0,,,,,,,,,,,,,,,,,,,,,,
,,,,,,00047,2023-10-18_18h42.08.493,vbt_B2_day2,2022.2.4,MacIntel,59.99880002,,,,,,,,,,,,,,,,,,,,,,,,,,,down,0,6.5128,,0.204874132,-0.094583333,1,0,0,0.9324,0,66,66,18,1,blik,images/br_blik.png,images/cb_blik.png,1,blik,,,,,,,,,,,,,,,,,,,,,
,,,,,,00047,2023-10-18_18h42.08.493,vbt_B2_day2,2022.2.4,MacIntel,59.99880002,,,,,,,,,,,,,,,,,,,,,,,,,,,down,0,6.404,,0.172886285,-0.136362847,1,0,0,0.9823,0,67,67,56,1,traag,images/br_traag.png,images/cb_traag.png,1,traag,,,,,,,,,,,,,,,,,,,,,
,,,,,,00047,2023-10-18_18h42.08.493,vbt_B2_day2,2022.2.4,MacIntel,59.99880002,,,,,,,,,,,,,,,,,,,,,,,,,,,down,0,1.8341,,0.175460069,-0.135147569,1,0,0,0.635,0,68,68,50,1,stoom,images/br_stoom.png,images/cb_stoom.png,0,,,,,,,,,,,,,,,,,,,,,,
,,,,,,00047,2023-10-18_18h42.08.493,vbt_B2_day2,2022.2.4,MacIntel,59.99880002,,,,,,,,,,,,,,,,,,,,,,,,,,,down,0,35.6575,,0.128502604,-0.074726562,1,0,0,1.0482,0,69,69,181,1,toegeven,images/br_toegeven.png,images/cb_toegeven.png,0,,,,,,,,,,,,,,,,,,,,,,
,,,,,,00047,2023-10-18_18h42.08.493,vbt_B2_day2,2022.2.4,MacIntel,59.99880002,,,,,,,,,,,,,,,,,,,,,,,,,,,down,0,1.503,,0.189131944,-0.032999132,1,0,0,0.7489,0,70,70,10,1,leek,images/br_leek.png,images/cb_leek.png,0,,,,,,,,,,,,,,,,,,,,,,
,,,,,,00047,2023-10-18_18h42.08.493,vbt_B2_day2,2022.2.4,MacIntel,59.99880002,,,,,,,,,,,,,,,,,,,,,,,,,,,down,0,1.569,,0.162482639,-0.073051215,1,0,0,0.9678,0,71,71,17,1,taal,images/br_taal.png,images/cb_taal.png,1,taal,,,,,,,,,,,,,,,,,,,,,
,,,,,,00047,2023-10-18_18h42.08.493,vbt_B2_day2,2022.2.4,MacIntel,59.99880002,,,,,,,,,,,,,,,,,,,,,,,,,,,down,0,15.4512,,0.080989583,-0.07219184,1,0,0,2.0506,0,72,72,178,1,huisdier,images/br_huisdier.png,images/cb_huisdier.png,1,huisdier,,,,,,,,,,,,,,,,,,,,,
,,,,,,00047,2023-10-18_18h42.08.493,vbt_B2_day2,2022.2.4,MacIntel,59.99880002,,,,,,,,,,,,,,,,,,,,,,,,,,,down,0,2.475,,0.063758681,-0.106618924,1,0,0,0.848,0,73,73,1,1,zaal,images/br_zaal.png,images/cb_zaal.png,0,,,,,,,,,,,,,,,,,,,,,,
,,,,,,00047,2023-10-18_18h42.08.493,vbt_B2_day2,2022.2.4,MacIntel,59.99880002,,,,,,,,,,,,,,,,,,,,,,,,,,,down,0,0.6507,,0.063758681,-0.106618924,1,0,0,0.8306,0,74,74,0,1,slak,images/br_slak.png,images/cb_slak.png,0,,,,,,,,,,,,,,,,,,,,,,
,,,,,,00047,2023-10-18_18h42.08.493,vbt_B2_day2,2022.2.4,MacIntel,59.99880002,,,,,,,,,,,,,,,,,,,,,,,,,,,down,0,3.4877,,0.064453125,-0.083177083,1,0,0,1.8016,0,75,75,64,1,wegen,images/br_wegen.png,images/cb_wegen.png,0,,,,,,,,,,,,,,,,,,,,,,
,,,,,,00047,2023-10-18_18h42.08.493,vbt_B2_day2,2022.2.4,MacIntel,59.99880002,,,,,,,,,,,,,,,,,,,,,,,,,,,down,0,11.8067,,0.064453125,-0.083177083,1,0,0,0.6009,0,76,76,121,1,twijfel,images/br_twijfel.png,images/cb_twijfel.png,0,,,,,,,,,,,,,,,,,,,,,,
,,,,,,00047,2023-10-18_18h42.08.493,vbt_B2_day2,2022.2.4,MacIntel,59.99880002,,,,,,,,,,,,,,,,,,,,,,,,,,,down,0,186.7115,,0.056493056,-0.05874566,1,0,0,1.4984,0,77,77,175,1,heengaan,images/br_heengaan.png,images/cb_heengaan.png,0,,,,,,,,,,,,,,,,,,,,,,
,,,,,,00047,2023-10-18_18h42.08.493,vbt_B2_day2,2022.2.4,MacIntel,59.99880002,,,,,,,,,,,,,,,,,,,,,,,,,,,down,0,8.6675,,0.056493056,-0.05874566,1,0,0,0.7166,0,78,78,81,1,dubbel,images/br_dubbel.png,images/cb_dubbel.png,0,,,,,,,,,,,,,,,,,,,,,,
,,,,,,00047,2023-10-18_18h42.08.493,vbt_B2_day2,2022.2.4,MacIntel,59.99880002,,,,,,,,,,,,,,,,,,,,,,,,,,,down,0,4.9087,,0.056493056,-0.05874566,1,0,0,2.0327,0,79,79,79,1,nodig,images/br_nodig.png,images/cb_nodig.png,0,,,,,,,,,,,,,,,,,,,,,,
,,,,,,00047,2023-10-18_18h42.08.493,vbt_B2_day2,2022.2.4,MacIntel,59.99880002,,,,,,,,,,,,,,,,,,,,,,,,,,,down,0,1.6249,,0.056493056,-0.05874566,1,0,0,0.5493,0,80,80,109,1,totaal,images/br_totaal.png,images/cb_totaal.png,0,,,,,,,,,,,,,,,,,,,,,,
,,,,,,00047,2023-10-18_18h42.08.493,vbt_B2_day2,2022.2.4,MacIntel,59.99880002,,,,,,,,,,,,,,,,,,,,,,,,,,,down,0,6.2736,,0.056493056,-0.05874566,1,0,0,0.533,0,81,81,76,1,afval,images/br_afval.png,images/cb_afval.png,0,,,,,,,,,,,,,,,,,,,,,,
,,,,,,00047,2023-10-18_18h42.08.493,vbt_B2_day2,2022.2.4,MacIntel,59.99880002,,,,,,,,,,,,,,,,,,,,,,,,,,,down,0,6.4161,,0.056493056,-0.05874566,1,0,0,0.6164,0,82,82,52,1,wagon,images/br_wagon.png,images/cb_wagon.png,0,,,,,,,,,,,,,,,,,,,,,,
,,,,,,00047,2023-10-18_18h42.08.493,vbt_B2_day2,2022.2.4,MacIntel,59.99880002,,,,,,,,,,,,,,,,,,,,,,,,,,,down,0,18.3729,,0.056493056,-0.05874566,1,0,0,1.1994,0,83,83,146,1,opkomen,images/br_opkomen.png,images/cb_opkomen.png,0,,,,,,,,,,,,,,,,,,,,,,
,,,,,,00047,2023-10-18_18h42.08.493,vbt_B2_day2,2022.2.4,MacIntel,59.99880002,,,,,,,,,,,,,,,,,,,,,,,,,,,down,0,6.2361,,0.056493056,-0.05874566,1,0,0,0.7838,0,84,84,66,1,lever,images/br_lever.png,images/cb_lever.png,0,,,,,,,,,,,,,,,,,,,,,,
,,,,,,00047,2023-10-18_18h42.08.493,vbt_B2_day2,2022.2.4,MacIntel,59.99880002,,,,,,,,,,,,,,,,,,,,,,,,,,,down,0,5.4009,,0.056493056,-0.05874566,1,0,0,0.6167,0,85,85,169,1,oprotten,images/br_oprotten.png,images/cb_oprotten.png,0,,,,,,,,,,,,,,,,,,,,,,
,,,,,,00047,2023-10-18_18h42.08.493,vbt_B2_day2,2022.2.4,MacIntel,59.99880002,,,,,,,,,,,,,,,,,,,,,,,,,,,down,0,4.0668,,0.02828559,-0.195998264,1,0,0,0.6486,0,86,86,177,1,maaltijd,images/br_maaltijd.png,images/cb_maaltijd.png,1,maaltijd,,,,,,,,,,,,,,,,,,,,,
,,,,,,00047,2023-10-18_18h42.08.493,vbt_B2_day2,2022.2.4,MacIntel,59.99880002,,,,,,,,,,,,,,,,,,,,,,,,,,,down,0,9.9921,,0.02828559,-0.195998264,1,0,0,0.6172,0,87,87,107,1,maling,images/br_maling.png,images/cb_maling.png,0,,,,,,,,,,,,,,,,,,,,,,
,,,,,,00047,2023-10-18_18h42.08.493,vbt_B2_day2,2022.2.4,MacIntel,59.99880002,,,,,,,,,,,,,,,,,,,,,,,,,,,down,0,6.8332,,0.048233507,-0.12062934,1,0,0,2.6824,0,88,88,88,1,boeien,images/br_boeien.png,images/cb_boeien.png,0,,,,,,,,,,,,,,,,,,,,,,
,,,,,,00047,2023-10-18_18h42.08.493,vbt_B2_day2,2022.2.4,MacIntel,59.99880002,,,,,,,,,,,,,,,,,,,,,,,,,,,down,0,2.8175,,0.048233507,-0.12062934,1,0,0,2.2993,0,89,89,119,1,liefje,images/br_liefje.png,images/cb_liefje.png,0,,,,,,,,,,,,,,,,,,,,,,
,,,,,,00047,2023-10-18_18h42.08.493,vbt_B2_day2,2022.2.4,MacIntel,59.99880002,,,,,,,,,,,,,,,,,,,,,,,,,,,down,0,9.2499,,0.048233507,-0.12062934,1,0,0,1.0839,0,90,90,187,1,opkijken,images/br_opkijken.png,images/cb_opkijken.png,0,,,,,,,,,,,,,,,,,,,,,,
,,,,,,00047,2023-10-18_18h42.08.493,vbt_B2_day2,2022.2.4,MacIntel,59.99880002,,,,,,,,,,,,,,,,,,,,,,,,,,,down,0,7.0089,,0.048233507,-0.12062934,1,0,0,0.8136,0,91,91,24,1,jurk,images/br_jurk.png,images/cb_jurk.png,0,,,,,,,,,,,,,,,,,,,,,,
,,,,,,00047,2023-10-18_18h42.08.493,vbt_B2_day2,2022.2.4,MacIntel,59.99880002,,,,,,,,,,,,,,,,,,,,,,,,,,,down,0,3.1362,,0.048233507,-0.12062934,1,0,0,0.8675,0,92,92,73,1,volop,images/br_volop.png,images/cb_volop.png,0,,,,,,,,,,,,,,,,,,,,,,
,,,,,,00047,2023-10-18_18h42.08.493,vbt_B2_day2,2022.2.4,MacIntel,59.99880002,,,,,,,,,,,,,,,,,,,,,,,,,,,down,0,2.1238,,0.048233507,-0.12062934,1,0,0,0.7832,0,93,93,48,1,steel,images/br_steel.png,images/cb_steel.png,0,,,,,,,,,,,,,,,,,,,,,,
,,,,,,00047,2023-10-18_18h42.08.493,vbt_B2_day2,2022.2.4,MacIntel,59.99880002,,,,,,,,,,,,,,,,,,,,,,,,,,,down,0,17.9886,,0.048233507,-0.12062934,1,0,0,1.4149,0,94,94,193,1,weeshuis,images/br_weeshuis.png,images/cb_weeshuis.png,0,,,,,,,,,,,,,,,,,,,,,,
,,,,,,00047,2023-10-18_18h42.08.493,vbt_B2_day2,2022.2.4,MacIntel,59.99880002,,,,,,,,,,,,,,,,,,,,,,,,,,,down,0,17.3841,,0.048233507,-0.12062934,1,0,0,1.3335,0,95,95,143,1,hechten,images/br_hechten.png,images/cb_hechten.png,0,,,,,,,,,,,,,,,,,,,,,,
,,,,,,00047,2023-10-18_18h42.08.493,vbt_B2_day2,2022.2.4,MacIntel,59.99880002,,,,,,,,,,,,,,,,,,,,,,,,,,,down,0,3.2834,,0.048233507,-0.12062934,1,0,0,0.5852,0,96,96,23,1,zout,images/br_zout.png,images/cb_zout.png,0,,,,,,,,,,,,,,,,,,,,,,
,,,,,,00047,2023-10-18_18h42.08.493,vbt_B2_day2,2022.2.4,MacIntel,59.99880002,,,,,,,,,,,,,,,,,,,,,,,,,,,down,0,12.2702,,0.048233507,-0.12062934,1,0,0,0.5467,0,97,97,83,1,mening,images/br_mening.png,images/cb_mening.png,0,,,,,,,,,,,,,,,,,,,,,,
,,,,,,00047,2023-10-18_18h42.08.493,vbt_B2_day2,2022.2.4,MacIntel,59.99880002,,,,,,,,,,,,,,,,,,,,,,,,,,,down,0,5.3536,,0.048233507,-0.12062934,1,0,0,0.6687,0,98,98,184,1,aandelen,images/br_aandelen.png,images/cb_aandelen.png,0,,,,,,,,,,,,,,,,,,,,,,
,,,,,,00047,2023-10-18_18h42.08.493,vbt_B2_day2,2022.2.4,MacIntel,59.99880002,,,,,,,,,,,,,,,,,,,,,,,,,,,down,0,4.409,,0.048233507,-0.12062934,1,0,0,0.714,0,99,99,71,1,bever,images/br_bever.png,images/cb_bever.png,0,,,,,,,,,,,,,,,,,,,,,,
,,,,,,00047,2023-10-18_18h42.08.493,vbt_B2_day2,2022.2.4,MacIntel,59.99880002,,,,,,,,,,,,,,,,,,,,,,,,,,,down,0,8.3506,,0.037252604,-0.133081597,1,0,0,1.1179,0,100,100,137,1,trekker,images/br_trekker.png,images/cb_trekker.png,1,trekker,,,,,,,,,,,,,,,,,,,,,
,,,,,,00047,2023-10-18_18h42.08.493,vbt_B2_day2,2022.2.4,MacIntel,59.99880002,,,,,,,,,,,,,,,,,,,,,,,,,,,down,0,4.8905,,0.037252604,-0.133081597,1,0,0,0.7352,0,101,101,116,1,besmet,images/br_besmet.png,images/cb_besmet.png,0,,,,,,,,,,,,,,,,,,,,,,
,,,,,,00047,2023-10-18_18h42.08.493,vbt_B2_day2,2022.2.4,MacIntel,59.99880002,,,,,,,,,,,,,,,,,,,,,,,,,,,down,0,2.4166,,0.037252604,-0.133081597,1,0,0,0.5029,0,102,102,144,1,eetlust,images/br_eetlust.png,images/cb_eetlust.png,0,,,,,,,,,,,,,,,,,,,,,,
,,,,,,00047,2023-10-18_18h42.08.493,vbt_B2_day2,2022.2.4,MacIntel,59.99880002,,,,,,,,,,,,,,,,,,,,,,,,,,,down,0,17.3889,,0.037252604,-0.133081597,1,0,0,0.635,0,103,103,197,1,spanning,images/br_spanning.png,images/cb_spanning.png,0,,,,,,,,,,,,,,,,,,,,,,
,,,,,,00047,2023-10-18_18h42.08.493,vbt_B2_day2,2022.2.4,MacIntel,59.99880002,,,,,,,,,,,,,,,,,,,,,,,,,,,down,0,11.9012,,0.037252604,-0.133081597,1,0,0,1.1495,0,104,104,60,1,jasje,images/br_jasje.png,images/cb_jasje.png,0,,,,,,,,,,,,,,,,,,,,,,
,,,,,,00047,2023-10-18_18h42.08.493,vbt_B2_day2,2022.2.4,MacIntel,59.99880002,,,,,,,,,,,,,,,,,,,,,,,,,,,down,0,4.9423,,0.037252604,-0.133081597,1,0,0,1.8635,0,105,105,21,1,mist,images/br_mist.png,images/cb_mist.png,0,,,,,,,,,,,,,,,,,,,,,,
,,,,,,00047,2023-10-18_18h42.08.493,vbt_B2_day2,2022.2.4,MacIntel,59.99880002,,,,,,,,,,,,,,,,,,,,,,,,,,,down,0,7.684,,0.023962674,-0.153797743,1,0,0,1.5841,0,106,106,101,1,staren,images/br_staren.png,images/cb_staren.png,0,,,,,,,,,,,,,,,,,,,,,,
,,,,,,00047,2023-10-18_18h42.08.493,vbt_B2_day2,2022.2.4,MacIntel,59.99880002,,,,,,,,,,,,,,,,,,,,,,,,,,,down,0,6.2701,,0.031458333,-0.141883681,1,0,0,0.7831,0,107,107,138,1,akkoord,images/br_akkoord.png,images/cb_akkoord.png,1,akkoord,,,,,,,,,,,,,,,,,,,,,
,,,,,,00047,2023-10-18_18h42.08.493,vbt_B2_day2,2022.2.4,MacIntel,59.99880002,,,,,,,,,,,,,,,,,,,,,,,,,,,down,0,1.8864,,0.01358941,-0.177899306,1,0,0,0.6,0,108,108,102,1,legaal,images/br_legaal.png,images/cb_legaal.png,0,,,,,,,,,,,,,,,,,,,,,,
,,,,,,00047,2023-10-18_18h42.08.493,vbt_B2_day2,2022.2.4,MacIntel,59.99880002,,,,,,,,,,,,,,,,,,,,,,,,,,,down,0,2.6492,,0.010711806,-0.097690972,1,0,0,1.0859,0,109,109,95,1,vreten,images/br_vreten.png,images/cb_vreten.png,0,,,,,,,,,,,,,,,,,,,,,,
,,,,,,00047,2023-10-18_18h42.08.493,vbt_B2_day2,2022.2.4,MacIntel,59.99880002,,,,,,,,,,,,,,,,,,,,,,,,,,,down,0,14.1853,,0.005881076,-0.093398438,1,0,0,1.7661,0,110,110,80,1,kanjer,images/br_kanjer.png,images/cb_kanjer.png,0,,,,,,,,,,,,,,,,,,,,,,
,,,,,,00047,2023-10-18_18h42.08.493,vbt_B2_day2,2022.2.4,MacIntel,59.99880002,,,,,,,,,,,,,,,,,,,,,,,,,,,down,0,0.8583,,0.005881076,-0.093398438,1,0,0,0.7335,0,111,111,35,1,lust,images/br_lust.png,images/cb_lust.png,0,,,,,,,,,,,,,,,,,,,,,,
,,,,,,00047,2023-10-18_18h42.08.493,vbt_B2_day2,2022.2.4,MacIntel,59.99880002,,,,,,,,,,,,,,,,,,,,,,,,,,,down,0,2.1335,,0.005881076,-0.093398438,1,0,0,0.518,0,112,112,5,1,blad,images/br_blad.png,images/cb_blad.png,0,,,,,,,,,,,,,,,,,,,,,,
,,,,,,00047,2023-10-18_18h42.08.493,vbt_B2_day2,2022.2.4,MacIntel,59.99880002,,,,,,,,,,,,,,,,,,,,,,,,,,,down,0,7.5508,,0.005881076,-0.093398438,1,0,0,0.6161,0,113,113,70,1,ijdel,images/br_ijdel.png,images/cb_ijdel.png,0,,,,,,,,,,,,,,,,,,,,,,
,,,,,,00047,2023-10-18_18h42.08.493,vbt_B2_day2,2022.2.4,MacIntel,59.99880002,,,,,,,,,,,,,,,,,,,,,,,,,,,down,0,11.133,,0.005881076,-0.093398438,1,0,0,0.5838,0,114,114,54,1,gebit,images/br_gebit.png,images/cb_gebit.png,0,,,,,,,,,,,,,,,,,,,,,,
,,,,,,00047,2023-10-18_18h42.08.493,vbt_B2_day2,2022.2.4,MacIntel,59.99880002,,,,,,,,,,,,,,,,,,,,,,,,,,,down,0,8.5837,,0.005881076,-0.093398438,1,0,0,0.6356,0,115,115,165,1,feestdag,images/br_feestdag.png,images/cb_feestdag.png,0,,,,,,,,,,,,,,,,,,,,,,
,,,,,,00047,2023-10-18_18h42.08.493,vbt_B2_day2,2022.2.4,MacIntel,59.99880002,,,,,,,,,,,,,,,,,,,,,,,,,,,down,0,4.2734,,0.005881076,-0.093398438,1,0,0,0.5678,0,116,116,62,1,knaap,images/br_knaap.png,images/cb_knaap.png,0,,,,,,,,,,,,,,,,,,,,,,
,,,,,,00047,2023-10-18_18h42.08.493,vbt_B2_day2,2022.2.4,MacIntel,59.99880002,,,,,,,,,,,,,,,,,,,,,,,,,,,down,0,4.7493,,0.005881076,-0.093398438,1,0,0,2.6175,0,117,117,124,1,bloeien,images/br_bloeien.png,images/cb_bloeien.png,0,,,,,,,,,,,,,,,,,,,,,,
,,,,,,00047,2023-10-18_18h42.08.493,vbt_B2_day2,2022.2.4,MacIntel,59.99880002,,,,,,,,,,,,,,,,,,,,,,,,,,,down,0,6.3349,,0.005881076,-0.093398438,1,0,0,1.252,0,118,118,126,1,kasteel,images/br_kasteel.png,images/cb_kasteel.png,0,,,,,,,,,,,,,,,,,,,,,,
,,,,,,00047,2023-10-18_18h42.08.493,vbt_B2_day2,2022.2.4,MacIntel,59.99880002,,,,,,,,,,,,,,,,,,,,,,,,,,,down,0,5.3532,,0.005881076,-0.093398438,1,0,0,0.6504,0,119,119,149,1,redding,images/br_redding.png,images/cb_redding.png,0,,,,,,,,,,,,,,,,,,,,,,
,,,,,,00047,2023-10-18_18h42.08.493,vbt_B2_day2,2022.2.4,MacIntel,59.99880002,,,,,,,,,,,,,,,,,,,,,,,,,,,down,0,8.154,,-0.004765625,-0.064913194,1,0,0,0.9019,0,120,120,58,1,tekst,images/br_tekst.png,images/cb_tekst.png,1,tekst,,,,,,,,,,,,,,,,,,,,,
,,,,,,00047,2023-10-18_18h42.08.493,vbt_B2_day2,2022.2.4,MacIntel,59.99880002,,,,,,,,,,,,,,,,,,,,,,,,,,,down,0,12.2317,,-0.004765625,-0.064913194,1,0,0,1.147,0,121,121,114,1,vullen,images/br_vullen.png,images/cb_vullen.png,0,,,,,,,,,,,,,,,,,,,,,,
,,,,,,00047,2023-10-18_18h42.08.493,vbt_B2_day2,2022.2.4,MacIntel,59.99880002,,,,,,,,,,,,,,,,,,,,,,,,,,,down,0,6.3595,,-0.003828125,-0.019761285,1,0,0,0.8331,0,122,122,104,1,zweven,images/br_zweven.png,images/cb_zweven.png,0,,,,,,,,,,,,,,,,,,,,,,
,,,,,,00047,2023-10-18_18h42.08.493,vbt_B2_day2,2022.2.4,MacIntel,59.99880002,,,,,,,,,,,,,,,,,,,,,,,,,,,down,0,23.1373,,-0.016623264,-0.094162326,1,0,0,0.6183,0,123,123,123,1,hiervan,images/br_hiervan.png,images/cb_hiervan.png,0,,,,,,,,,,,,,,,,,,,,,,
,,,,,,00047,2023-10-18_18h42.08.493,vbt_B2_day2,2022.2.4,MacIntel,59.99880002,,,,,,,,,,,,,,,,,,,,,,,,,,,down,0,2.2642,,-0.016623264,-0.094162326,1,0,0,0.832,0,124,124,90,1,geluid,images/br_geluid.png,images/cb_geluid.png,0,,,,,,,,,,,,,,,,,,,,,,
,,,,,,00047,2023-10-18_18h42.08.493,vbt_B2_day2,2022.2.4,MacIntel,59.99880002,,,,,,,,,,,,,,,,,,,,,,,,,,,down,0,4.7973,,-0.016623264,-0.094162326,1,0,0,1.0832,0,125,125,195,1,middelen,images/br_middelen.png,images/cb_middelen.png,0,,,,,,,,,,,,,,,,,,,,,,
,,,,,,00047,2023-10-18_18h42.08.493,vbt_B2_day2,2022.2.4,MacIntel,59.99880002,,,,,,,,,,,,,,,,,,,,,,,,,,,down,0,40.7188,,-0.016623264,-0.094162326,1,0,0,1.0355,0,126,126,188,1,strekken,images/br_strekken.png,images/cb_strekken.png,0,,,,,,,,,,,,,,,,,,,,,,
,,,,,,00047,2023-10-18_18h42.08.493,vbt_B2_day2,2022.2.4,MacIntel,59.99880002,,,,,,,,,,,,,,,,,,,,,,,,,,,down,0,8.917,,-0.016623264,-0.094162326,1,0,0,0.9335,0,127,127,9,1,hier,images/br_hier.png,images/cb_hier.png,0,,,,,,,,,,,,,,,,,,,,,,
,,,,,,00047,2023-10-18_18h42.08.493,vbt_B2_day2,2022.2.4,MacIntel,59.99880002,,,,,,,,,,,,,,,,,,,,,,,,,,,down,0,9.0421,,-0.007161458,-0.087196181,1,0,0,0.9152,0,128,128,31,1,poes,images/br_poes.png,images/cb_poes.png,0,,,,,,,,,,,,,,,,,,,,,,
,,,,,,00047,2023-10-18_18h42.08.493,vbt_B2_day2,2022.2.4,MacIntel,59.99880002,,,,,,,,,,,,,,,,,,,,,,,,,,,down,0,13.5919,,-0.007161458,-0.087196181,1,0,0,2.2006,0,129,129,130,1,keihard,images/br_keihard.png,images/cb_keihard.png,0,,,,,,,,,,,,,,,,,,,,,,
,,,,,,00047,2023-10-18_18h42.08.493,vbt_B2_day2,2022.2.4,MacIntel,59.99880002,,,,,,,,,,,,,,,,,,,,,,,,,,,down,0,89.0524,,-0.007161458,-0.087196181,1,0,0,1.4485,0,130,130,198,1,bedoelen,images/br_bedoelen.png,images/cb_bedoelen.png,0,,,,,,,,,,,,,,,,,,,,,,
,,,,,,00047,2023-10-18_18h42.08.493,vbt_B2_day2,2022.2.4,MacIntel,59.99880002,,,,,,,,,,,,,,,,,,,,,,,,,,,down,0,4.2597,,-0.007161458,-0.087196181,1,0,0,0.5972,0,131,131,45,1,piste,images/br_piste.png,images/cb_piste.png,0,,,,,,,,,,,,,,,,,,,,,,
,,,,,,00047,2023-10-18_18h42.08.493,vbt_B2_day2,2022.2.4,MacIntel,59.99880002,,,,,,,,,,,,,,,,,,,,,,,,,,,down,0,1.4582,,-0.007161458,-0.087196181,1,0,0,0.6655,0,132,132,26,1,leuk,images/br_leuk.png,images/cb_leuk.png,0,,,,,,,,,,,,,,,,,,,,,,
,,,,,,00047,2023-10-18_18h42.08.493,vbt_B2_day2,2022.2.4,MacIntel,59.99880002,,,,,,,,,,,,,,,,,,,,,,,,,,,down,0,2.5507,,-0.007161458,-0.087196181,1,0,0,0.4503,0,133,133,7,1,geld,images/br_geld.png,images/cb_geld.png,0,,,,,,,,,,,,,,,,,,,,,,
,,,,,,00047,2023-10-18_18h42.08.493,vbt_B2_day2,2022.2.4,MacIntel,59.99880002,,,,,,,,,,,,,,,,,,,,,,,,,,,down,0,14.7836,,-0.007161458,-0.104522569,1,0,0,1.1521,0,134,134,185,1,mijnheer,images/br_mijnheer.png,images/cb_mijnheer.png,0,,,,,,,,,,,,,,,,,,,,,,
,,,,,,00047,2023-10-18_18h42.08.493,vbt_B2_day2,2022.2.4,MacIntel,59.99880002,,,,,,,,,,,,,,,,,,,,,,,,,,,down,0,1.5832,,-0.007161458,-0.104522569,1,0,0,0.6511,0,135,135,2,1,jaar,images/br_jaar.png,images/cb_jaar.png,0,,,,,,,,,,,,,,,,,,,,,,
,,,,,,00047,2023-10-18_18h42.08.493,vbt_B2_day2,2022.2.4,MacIntel,59.99880002,,,,,,,,,,,,,,,,,,,,,,,,,,,down,0,5.149,,-0.007161458,-0.104522569,1,0,0,0.9493,0,136,136,43,1,klauw,images/br_klauw.png,images/cb_klauw.png,0,,,,,,,,,,,,,,,,,,,,,,
,,,,,,00047,2023-10-18_18h42.08.493,vbt_B2_day2,2022.2.4,MacIntel,59.99880002,,,,,,,,,,,,,,,,,,,,,,,,,,,down,0,2.8403,,-0.007161458,-0.104522569,1,0,0,0.6339,0,137,137,171,1,aarzelen,images/br_aarzelen.png,images/cb_aarzelen.png,0,,,,,,,,,,,,,,,,,,,,,,
,,,,,,00047,2023-10-18_18h42.08.493,vbt_B2_day2,2022.2.4,MacIntel,59.99880002,,,,,,,,,,,,,,,,,,,,,,,,,,,down,0,5.6432,,-0.007161458,-0.104522569,1,0,0,0.8673,0,138,138,186,1,voorraad,images/br_voorraad.png,images/cb_voorraad.png,0,,,,,,,,,,,,,,,,,,,,,,
,,,,,,00047,2023-10-18_18h42.08.493,vbt_B2_day2,2022.2.4,MacIntel,59.99880002,,,,,,,,,,,,,,,,,,,,,,,,,,,down,0,3.6256,,-0.007161458,-0.104522569,1,0,0,1.1843,0,139,139,127,1,doodmoe,images/br_doodmoe.png,images/cb_doodmoe.png,0,,,,,,,,,,,,,,,,,,,,,,
,,,,,,00047,2023-10-18_18h42.08.493,vbt_B2_day2,2022.2.4,MacIntel,59.99880002,,,,,,,,,,,,,,,,,,,,,,,,,,,down,0,0.6039,,-0.007161458,-0.104522569,1,0,0,0.6667,0,140,140,8,1,knie,images/br_knie.png,images/cb_knie.png,0,,,,,,,,,,,,,,,,,,,,,,
,,,,,,00047,2023-10-18_18h42.08.493,vbt_B2_day2,2022.2.4,MacIntel,59.99880002,,,,,,,,,,,,,,,,,,,,,,,,,,,down,0,5.8469,,-0.007161458,-0.104522569,1,0,0,0.8641,0,141,141,147,1,komisch,images/br_komisch.png,images/cb_komisch.png,0,,,,,,,,,,,,,,,,,,,,,,
,,,,,,00047,2023-10-18_18h42.08.493,vbt_B2_day2,2022.2.4,MacIntel,59.99880002,,,,,,,,,,,,,,,,,,,,,,,,,,,down,0,4.7375,,-0.005034722,-0.111276042,1,0,0,0.6341,0,142,142,142,1,snuiven,images/br_snuiven.png,images/cb_snuiven.png,0,,,,,,,,,,,,,,,,,,,,,,
,,,,,,00047,2023-10-18_18h42.08.493,vbt_B2_day2,2022.2.4,MacIntel,59.99880002,,,,,,,,,,,,,,,,,,,,,,,,,,,down,0,2.0473,,-0.005034722,-0.111276042,1,0,0,2.3501,0,143,143,84,1,lokken,images/br_lokken.png,images/cb_lokken.png,0,,,,,,,,,,,,,,,,,,,,,,
,,,,,,00047,2023-10-18_18h42.08.493,vbt_B2_day2,2022.2.4,MacIntel,59.99880002,,,,,,,,,,,,,,,,,,,,,,,,,,,down,0,6.652,,0.062690972,-0.115182292,1,0,0,1.0313,0,144,144,59,1,kring,images/br_kring.png,images/cb_kring.png,1,kring,,,,,,,,,,,,,,,,,,,,,
,,,,,,00047,2023-10-18_18h42.08.493,vbt_B2_day2,2022.2.4,MacIntel,59.99880002,,,,,,,,,,,,,,,,,,,,,,,,,,,down,0,6.4843,,0.062690972,-0.115182292,1,0,0,0.7015,0,145,145,140,1,blijven,images/br_blijven.png,images/cb_blijven.png,0,,,,,,,,,,,,,,,,,,,,,,
,,,,,,00047,2023-10-18_18h42.08.493,vbt_B2_day2,2022.2.4,MacIntel,59.99880002,,,,,,,,,,,,,,,,,,,,,,,,,,,down,0,5.1685,,0.062690972,-0.115182292,1,0,0,0.7511,0,146,146,20,1,site,images/br_site.png,images/cb_site.png,0,,,,,,,,,,,,,,,,,,,,,,
,,,,,,00047,2023-10-18_18h42.08.493,vbt_B2_day2,2022.2.4,MacIntel,59.99880002,,,,,,,,,,,,,,,,,,,,,,,,,,,down,0,3.3699,,0.062690972,-0.115182292,1,0,0,0.5801,0,147,147,163,1,schuilen,images/br_schuilen.png,images/cb_schuilen.png,0,,,,,,,,,,,,,,,,,,,,,,
,,,,,,00047,2023-10-18_18h42.08.493,vbt_B2_day2,2022.2.4,MacIntel,59.99880002,,,,,,,,,,,,,,,,,,,,,,,,,,,down,0,1.3003,,0.062690972,-0.115182292,1,0,0,0.565,0,148,148,29,1,baas,images/br_baas.png,images/cb_baas.png,0,,,,,,,,,,,,,,,,,,,,,,
,,,,,,00047,2023-10-18_18h42.08.493,vbt_B2_day2,2022.2.4,MacIntel,59.99880002,,,,,,,,,,,,,,,,,,,,,,,,,,,down,0,13.089,,-0.0184375,-0.084401042,1,0,0,0.5982,0,149,149,166,1,strikken,images/br_strikken.png,images/cb_strikken.png,0,,,,,,,,,,,,,,,,,,,,,,
,,,,,,00047,2023-10-18_18h42.08.493,vbt_B2_day2,2022.2.4,MacIntel,59.99880002,,,,,,,,,,,,,,,,,,,,,,,,,,,down,0,4.9172,,-0.0184375,-0.084401042,1,0,0,0.5967,0,150,150,91,1,gezond,images/br_gezond.png,images/cb_gezond.png,0,,,,,,,,,,,,,,,,,,,,,,
,,,,,,00047,2023-10-18_18h42.08.493,vbt_B2_day2,2022.2.4,MacIntel,59.99880002,,,,,,,,,,,,,,,,,,,,,,,,,,,down,0,20.4879,,0.126419271,0.143407118,1,0,0,1.0812,0,151,151,122,1,waarvan,images/br_waarvan.png,images/cb_waarvan.png,0,,,,,,,,,,,,,,,,,,,,,,
,,,,,,00047,2023-10-18_18h42.08.493,vbt_B2_day2,2022.2.4,MacIntel,59.99880002,,,,,,,,,,,,,,,,,,,,,,,,,,,down,0,14.34,,0.163151042,-0.024448785,1,0,0,0.7326,0,152,152,136,1,waarbij,images/br_waarbij.png,images/cb_waarbij.png,1,waarbij,,,,,,,,,,,,,,,,,,,,,
,,,,,,00047,2023-10-18_18h42.08.493,vbt_B2_day2,2022.2.4,MacIntel,59.99880002,,,,,,,,,,,,,,,,,,,,,,,,,,,down,0,2.5342,,0.230073785,-0.022230903,1,0,0,0.7151,0,153,153,40,1,schep,images/br_schep.png,images/cb_schep.png,0,,,,,,,,,,,,,,,,,,,,,,
,,,,,,00047,2023-10-18_18h42.08.493,vbt_B2_day2,2022.2.4,MacIntel,59.99880002,,,,,,,,,,,,,,,,,,,,,,,,,,,down,0,50.8024,,0.354830729,-0.006922743,1,0,0,0.4809,0,154,154,134,1,geliefd,images/br_geliefd.png,images/cb_geliefd.png,0,,,,,,,,,,,,,,,,,,,,,,
,,,,,,00047,2023-10-18_18h42.08.493,vbt_B2_day2,2022.2.4,MacIntel,59.99880002,,,,,,,,,,,,,,,,,,,,,,,,,,,down,0,4.8152,,0.345972222,-0.085607639,1,0,0,0.8691,0,155,155,19,1,geit,images/br_geit.png,images/cb_geit.png,1,geit,,,,,,,,,,,,,,,,,,,,,
,,,,,,00047,2023-10-18_18h42.08.493,vbt_B2_day2,2022.2.4,MacIntel,59.99880002,,,,,,,,,,,,,,,,,,,,,,,,,,,down,0,4.7689,,0.334175347,-0.106896701,1,0,0,0.8834,0,156,156,183,1,getuigen,images/br_getuigen.png,images/cb_getuigen.png,0,,,,,,,,,,,,,,,,,,,,,,
,,,,,,00047,2023-10-18_18h42.08.493,vbt_B2_day2,2022.2.4,MacIntel,59.99880002,,,,,,,,,,,,,,,,,,,,,,,,,,,down,0,0.8157,,0.334175347,-0.106896701,1,0,0,0.7143,0,157,157,36,1,vuur,images/br_vuur.png,images/cb_vuur.png,0,,,,,,,,,,,,,,,,,,,,,,
,,,,,,00047,2023-10-18_18h42.08.493,vbt_B2_day2,2022.2.4,MacIntel,59.99880002,,,,,,,,,,,,,,,,,,,,,,,,,,,down,0,14.7697,,0.334175347,-0.106896701,1,0,0,0.7002,0,158,158,191,1,opheffen,images/br_opheffen.png,images/cb_opheffen.png,0,,,,,,,,,,,,,,,,,,,,,,
,,,,,,00047,2023-10-18_18h42.08.493,vbt_B2_day2,2022.2.4,MacIntel,59.99880002,,,,,,,,,,,,,,,,,,,,,,,,,,,down,0,2.0562,,0.334175347,-0.106896701,1,0,0,0.617,0,159,159,118,1,vinger,images/br_vinger.png,images/cb_vinger.png,0,,,,,,,,,,,,,,,,,,,,,,
,,,,,,00047,2023-10-18_18h42.08.493,vbt_B2_day2,2022.2.4,MacIntel,59.99880002,,,,,,,,,,,,,,,,,,,,,,,,,,,down,0,11.0816,,0.311150174,-0.150520833,1,0,0,1.766,0,160,160,156,1,rechten,images/br_rechten.png,images/cb_rechten.png,0,,,,,,,,,,,,,,,,,,,,,,
,,,,,,00047,2023-10-18_18h42.08.493,vbt_B2_day2,2022.2.4,MacIntel,59.99880002,,,,,,,,,,,,,,,,,,,,,,,,,,,down,0,8.6998,,0.298177083,-0.129960938,1,0,0,0.9502,0,161,161,172,1,weigeren,images/br_weigeren.png,images/cb_weigeren.png,0,,,,,,,,,,,,,,,,,,,,,,
,,,,,,00047,2023-10-18_18h42.08.493,vbt_B2_day2,2022.2.4,MacIntel,59.99880002,,,,,,,,,,,,,,,,,,,,,,,,,,,down,0,3.7204,,0.298177083,-0.129960938,1,0,0,0.5998,0,162,162,100,1,geduld,images/br_geduld.png,images/cb_geduld.png,0,,,,,,,,,,,,,,,,,,,,,,
,,,,,,00047,2023-10-18_18h42.08.493,vbt_B2_day2,2022.2.4,MacIntel,59.99880002,,,,,,,,,,,,,,,,,,,,,,,,,,,down,0,7.3084,,0.268294271,-0.173767361,1,0,0,0.9148,0,163,163,139,1,stiekem,images/br_stiekem.png,images/cb_stiekem.png,1,stiekem,,,,,,,,,,,,,,,,,,,,,
,,,,,,00047,2023-10-18_18h42.08.493,vbt_B2_day2,2022.2.4,MacIntel,59.99880002,,,,,,,,,,,,,,,,,,,,,,,,,,,down,0,5.5988,,0.268294271,-0.173767361,1,0,0,0.9335,0,164,164,87,1,toeval,images/br_toeval.png,images/cb_toeval.png,0,,,,,,,,,,,,,,,,,,,,,,
,,,,,,00047,2023-10-18_18h42.08.493,vbt_B2_day2,2022.2.4,MacIntel,59.99880002,,,,,,,,,,,,,,,,,,,,,,,,,,,down,0,7.1819,,0.217556424,-0.184157986,1,0,0,0.7158,0,165,165,155,1,gerucht,images/br_gerucht.png,images/cb_gerucht.png,0,,,,,,,,,,,,,,,,,,,,,,
,,,,,,00047,2023-10-18_18h42.08.493,vbt_B2_day2,2022.2.4,MacIntel,59.99880002,,,,,,,,,,,,,,,,,,,,,,,,,,,down,0,4.9259,,0.233059896,-0.033511285,1,0,0,0.5824,0,166,166,135,1,gedicht,images/br_gedicht.png,images/cb_gedicht.png,0,,,,,,,,,,,,,,,,,,,,,,
,,,,,,00047,2023-10-18_18h42.08.493,vbt_B2_day2,2022.2.4,MacIntel,59.99880002,,,,,,,,,,,,,,,,,,,,,,,,,,,down,0,3.3302,,0.233059896,-0.033511285,1,0,0,0.7529,0,167,167,113,1,koppen,images/br_koppen.png,images/cb_koppen.png,0,,,,,,,,,,,,,,,,,,,,,,
,,,,,,00047,2023-10-18_18h42.08.493,vbt_B2_day2,2022.2.4,MacIntel,59.99880002,,,,,,,,,,,,,,,,,,,,,,,,,,,down,0,4.5238,,0.233059896,-0.033511285,1,0,0,0.5976,0,168,168,160,1,daarheen,images/br_daarheen.png,images/cb_daarheen.png,0,,,,,,,,,,,,,,,,,,,,,,
,,,,,,00047,2023-10-18_18h42.08.493,vbt_B2_day2,2022.2.4,MacIntel,59.99880002,,,,,,,,,,,,,,,,,,,,,,,,,,,down,0,0.9264,,0.233059896,-0.033511285,1,0,0,0.633,0,169,169,28,1,stal,images/br_stal.png,images/cb_stal.png,0,,,,,,,,,,,,,,,,,,,,,,
,,,,,,00047,2023-10-18_18h42.08.493,vbt_B2_day2,2022.2.4,MacIntel,59.99880002,,,,,,,,,,,,,,,,,,,,,,,,,,,down,0,2.6931,,0.233059896,-0.033511285,1,0,0,0.817,0,170,170,34,1,vorm,images/br_vorm.png,images/cb_vorm.png,0,,,,,,,,,,,,,,,,,,,,,,
,,,,,,00047,2023-10-18_18h42.08.493,vbt_B2_day2,2022.2.4,MacIntel,59.99880002,,,,,,,,,,,,,,,,,,,,,,,,,,,down,0,1.8252,,0.233059896,-0.033511285,1,0,0,1.2814,0,171,171,4,1,moes,images/br_moes.png,images/cb_moes.png,0,,,,,,,,,,,,,,,,,,,,,,
,,,,,,00047,2023-10-18_18h42.08.493,vbt_B2_day2,2022.2.4,MacIntel,59.99880002,,,,,,,,,,,,,,,,,,,,,,,,,,,down,0,8.0508,,0.232526042,-0.10719184,1,0,0,0.9518,0,172,172,132,1,grappen,images/br_grappen.png,images/cb_grappen.png,0,,,,,,,,,,,,,,,,,,,,,,
,,,,,,00047,2023-10-18_18h42.08.493,vbt_B2_day2,2022.2.4,MacIntel,59.99880002,,,,,,,,,,,,,,,,,,,,,,,,,,,down,0,12.1982,,0.232526042,-0.10719184,1,0,0,0.5833,0,173,173,42,1,bleek,images/br_bleek.png,images/cb_bleek.png,0,,,,,,,,,,,,,,,,,,,,,,
,,,,,,00047,2023-10-18_18h42.08.493,vbt_B2_day2,2022.2.4,MacIntel,59.99880002,,,,,,,,,,,,,,,,,,,,,,,,,,,down,0,7.4907,,0.206705729,-0.135607639,1,0,0,1.2993,0,174,174,98,1,kreeft,images/br_kreeft.png,images/cb_kreeft.png,1,kreeft,,,,,,,,,,,,,,,,,,,,,
,,,,,,00047,2023-10-18_18h42.08.493,vbt_B2_day2,2022.2.4,MacIntel,59.99880002,,,,,,,,,,,,,,,,,,,,,,,,,,,down,0,5.2662,,0.204227431,-0.140177951,1,0,0,0.6699,0,175,175,74,1,graaf,images/br_graaf.png,images/cb_graaf.png,0,,,,,,,,,,,,,,,,,,,,,,
,,,,,,00047,2023-10-18_18h42.08.493,vbt_B2_day2,2022.2.4,MacIntel,59.99880002,,,,,,,,,,,,,,,,,,,,,,,,,,,down,0,3.5169,,0.204227431,-0.140177951,1,0,0,0.7003,0,176,176,37,1,mijn,images/br_mijn.png,images/cb_mijn.png,0,,,,,,,,,,,,,,,,,,,,,,
,,,,,,00047,2023-10-18_18h42.08.493,vbt_B2_day2,2022.2.4,MacIntel,59.99880002,,,,,,,,,,,,,,,,,,,,,,,,,,,down,0,15.0531,,0.204227431,-0.140177951,1,0,0,0.8992,0,177,177,105,1,wijlen,images/br_wijlen.png,images/cb_wijlen.png,0,,,,,,,,,,,,,,,,,,,,,,
,,,,,,00047,2023-10-18_18h42.08.493,vbt_B2_day2,2022.2.4,MacIntel,59.99880002,,,,,,,,,,,,,,,,,,,,,,,,,,,down,0,3.0485,,0.204227431,-0.140177951,1,0,0,0.7825,0,178,178,32,1,palm,images/br_palm.png,images/cb_palm.png,0,,,,,,,,,,,,,,,,,,,,,,
,,,,,,00047,2023-10-18_18h42.08.493,vbt_B2_day2,2022.2.4,MacIntel,59.99880002,,,,,,,,,,,,,,,,,,,,,,,,,,,down,0,3.5841,,0.204227431,-0.140177951,1,0,0,0.6335,0,179,179,133,1,seizoen,images/br_seizoen.png,images/cb_seizoen.png,0,,,,,,,,,,,,,,,,,,,,,,
,,,,,,00047,2023-10-18_18h42.08.493,vbt_B2_day2,2022.2.4,MacIntel,59.99880002,,,,,,,,,,,,,,,,,,,,,,,,,,,down,0,6.1983,,0.191171875,-0.138250868,1,0,0,0.4653,0,180,180,96,1,slagen,images/br_slagen.png,images/cb_slagen.png,1,slagen,,,,,,,,,,,,,,,,,,,,,
,,,,,,00047,2023-10-18_18h42.08.493,vbt_B2_day2,2022.2.4,MacIntel,59.99880002,,,,,,,,,,,,,,,,,,,,,,,,,,,down,0,5.4625,,0.191171875,-0.138250868,1,0,0,0.765,0,181,181,67,1,zwart,images/br_zwart.png,images/cb_zwart.png,0,,,,,,,,,,,,,,,,,,,,,,
,,,,,,00047,2023-10-18_18h42.08.493,vbt_B2_day2,2022.2.4,MacIntel,59.99880002,,,,,,,,,,,,,,,,,,,,,,,,,,,down,0,1.7338,,0.191171875,-0.138250868,1,0,0,0.5847,0,182,182,112,1,lukken,images/br_lukken.png,images/cb_lukken.png,0,,,,,,,,,,,,,,,,,,,,,,
,,,,,,00047,2023-10-18_18h42.08.493,vbt_B2_day2,2022.2.4,MacIntel,59.99880002,,,,,,,,,,,,,,,,,,,,,,,,,,,down,0,6.6595,,0.191171875,-0.138250868,1,0,0,1.0309,0,183,183,170,1,schatten,images/br_schatten.png,images/cb_schatten.png,0,,,,,,,,,,,,,,,,,,,,,,
,,,,,,00047,2023-10-18_18h42.08.493,vbt_B2_day2,2022.2.4,MacIntel,59.99880002,,,,,,,,,,,,,,,,,,,,,,,,,,,down,0,4.5351,,0.196649306,-0.164288194,1,0,0,0.667,0,184,184,44,1,flits,images/br_flits.png,images/cb_flits.png,0,,,,,,,,,,,,,,,,,,,,,,
,,,,,,00047,2023-10-18_18h42.08.493,vbt_B2_day2,2022.2.4,MacIntel,59.99880002,,,,,,,,,,,,,,,,,,,,,,,,,,,down,0,16.7002,,0.196649306,-0.164288194,1,0,0,1.1345,0,185,185,182,1,bijkomen,images/br_bijkomen.png,images/cb_bijkomen.png,0,,,,,,,,,,,,,,,,,,,,,,
,,,,,,00047,2023-10-18_18h42.08.493,vbt_B2_day2,2022.2.4,MacIntel,59.99880002,,,,,,,,,,,,,,,,,,,,,,,,,,,down,0,4.2761,,0.18906684,-0.139826389,1,0,0,1.7998,0,186,186,131,1,opzicht,images/br_opzicht.png,images/cb_opzicht.png,0,,,,,,,,,,,,,,,,,,,,,,
,,,,,,00047,2023-10-18_18h42.08.493,vbt_B2_day2,2022.2.4,MacIntel,59.99880002,,,,,,,,,,,,,,,,,,,,,,,,,,,down,0,34.0868,,0.18906684,-0.139826389,1,0,0,0.7485,0,187,187,69,1,waken,images/br_waken.png,images/cb_waken.png,0,,,,,,,,,,,,,,,,,,,,,,
,,,,,,00047,2023-10-18_18h42.08.493,vbt_B2_day2,2022.2.4,MacIntel,59.99880002,,,,,,,,,,,,,,,,,,,,,,,,,,,down,0,4.9517,,0.18906684,-0.139826389,1,0,0,0.7668,0,188,188,157,1,uitlaat,images/br_uitlaat.png,images/cb_uitlaat.png,0,,,,,,,,,,,,,,,,,,,,,,
,,,,,,00047,2023-10-18_18h42.08.493,vbt_B2_day2,2022.2.4,MacIntel,59.99880002,,,,,,,,,,,,,,,,,,,,,,,,,,,down,0,6.9218,,0.18906684,-0.139826389,1,0,0,1.8678,0,189,189,125,1,aanzien,images/br_aanzien.png,images/cb_aanzien.png,0,,,,,,,,,,,,,,,,,,,,,,
,,,,,,00047,2023-10-18_18h42.08.493,vbt_B2_day2,2022.2.4,MacIntel,59.99880002,,,,,,,,,,,,,,,,,,,,,,,,,,,down,0,6.7286,,0.18906684,-0.139826389,1,0,0,1.334,0,190,190,85,1,heilig,images/br_heilig.png,images/cb_heilig.png,0,,,,,,,,,,,,,,,,,,,,,,
,,,,,,00047,2023-10-18_18h42.08.493,vbt_B2_day2,2022.2.4,MacIntel,59.99880002,,,,,,,,,,,,,,,,,,,,,,,,,,,down,0,1.3907,,0.183628472,-0.134474826,1,0,0,1.3315,0,191,191,53,1,baron,images/br_baron.png,images/cb_baron.png,0,,,,,,,,,,,,,,,,,,,,,,
,,,,,,00047,2023-10-18_18h42.08.493,vbt_B2_day2,2022.2.4,MacIntel,59.99880002,,,,,,,,,,,,,,,,,,,,,,,,,,,down,0,161.8215,,0.183628472,-0.134474826,1,0,0,1.0328,0,192,192,168,1,bisschop,images/br_bisschop.png,images/cb_bisschop.png,0,,,,,,,,,,,,,,,,,,,,,,
,,,,,,00047,2023-10-18_18h42.08.493,vbt_B2_day2,2022.2.4,MacIntel,59.99880002,,,,,,,,,,,,,,,,,,,,,,,,,,,down,0,5.4683,,0.183628472,-0.134474826,1,0,0,0.5674,0,193,193,115,1,kleren,images/br_kleren.png,images/cb_kleren.png,0,,,,,,,,,,,,,,,,,,,,,,
,,,,,,00047,2023-10-18_18h42.08.493,vbt_B2_day2,2022.2.4,MacIntel,59.99880002,,,,,,,,,,,,,,,,,,,,,,,,,,,down,0,5.7207,,0.183628472,-0.134474826,1,0,0,1.3148,0,194,194,190,1,goedkoop,images/br_goedkoop.png,images/cb_goedkoop.png,0,,,,,,,,,,,,,,,,,,,,,,
,,,,,,00047,2023-10-18_18h42.08.493,vbt_B2_day2,2022.2.4,MacIntel,59.99880002,,,,,,,,,,,,,,,,,,,,,,,,,,,down,0,28.7511,,0.183628472,-0.134474826,1,0,0,1.2169,0,195,195,194,1,driemaal,images/br_driemaal.png,images/cb_driemaal.png,0,,,,,,,,,,,,,,,,,,,,,,
,,,,,,00047,2023-10-18_18h42.08.493,vbt_B2_day2,2022.2.4,MacIntel,59.99880002,,,,,,,,,,,,,,,,,,,,,,,,,,,down,0,9.7553,,0.183628472,-0.134474826,1,0,0,0.8674,0,196,196,196,1,nakijken,images/br_nakijken.png,images/cb_nakijken.png,0,,,,,,,,,,,,,,,,,,,,,,
,,,,,,00047,2023-10-18_18h42.08.493,vbt_B2_day2,2022.2.4,MacIntel,59.99880002,,,,,,,,,,,,,,,,,,,,,,,,,,,down,0,24.1054,,0.183628472,-0.134474826,1,0,0,1.5162,0,197,197,111,1,ticket,images/br_ticket.png,images/cb_ticket.png,0,,,,,,,,,,,,,,,,,,,,,,
,,,,,,00047,2023-10-18_18h42.08.493,vbt_B2_day2,2022.2.4,MacIntel,59.99880002,,,,,,,,,,,,,,,,,,,,,,,,,,,down,0,4.0849,,0.183628472,-0.134474826,1,0,0,0.6006,0,198,198,12,1,kust,images/br_kust.png,images/cb_kust.png,0,,,,,,,,,,,,,,,,,,,,,,
,,,,,,00047,2023-10-18_18h42.08.493,vbt_B2_day2,2022.2.4,MacIntel,59.99880002,,,,,,,,,,,,,,,,,,,,,,,,,,,down,0,3.5871,,0.183628472,-0.134474826,1,0,0,0.8686,0,199,199,3,1,mand,images/br_mand.png,images/cb_mand.png,0,,,,,,,,,,,,,,,,,,,,,,
,,,,,,00047,2023-10-18_18h42.08.493,vbt_B2_day2,2022.2.4,MacIntel,59.99880002,,,,,,,,,,,,,,,,,,,,,,,,,,,,,,,,,,,,,,,,,,,,,,,0.143242188,-0.106319444,1,0,0,,,,,,,,,,,,,,,,
,,,,,,00047,2023-10-18_18h42.08.493,vbt_B2_day2,2022.2.4,MacIntel,59.99880002,,,,,,,,,,,,,,,,,,,,,,,,,,,,,,,,,,,,,,,,,,,,,,,,,,,,0.052530382,0.235794271,1,0,0,,,,,,,,,,,
,,,,,,00047,2023-10-18_18h42.08.493,vbt_B2_day2,2022.2.4,MacIntel,59.99880002,,,,,,,,,,,,,,,,,,,,,,,,,,,,,,,,,,,,,,,,,,goon,images/br_goon.png,images/cb_goon.png,,goon,,,,,,,,,,,0.046449653,0.148572049,1,0,0,goon,0,0,0,23,1
,,,,,,00047,2023-10-18_18h42.08.493,vbt_B2_day2,2022.2.4,MacIntel,59.99880002,,,,,,,,,,,,,,,,,,,,,,,,,,,,,,,,,,,,,,,,,,ophuimen,images/br_ophuimen.png,images/cb_ophuimen.png,,op.u,,,,,,,,,,,0.043654514,0.053033854,1,0,0,op.u,0,1,1,36,1
,,,,,,00047,2023-10-18_18h42.08.493,vbt_B2_day2,2022.2.4,MacIntel,59.99880002,,,,,,,,,,,,,,,,,,,,,,,,,,,,,,,,,,,,,,,,,,kabel,images/br_kabel.png,images/cb_kabel.png,,kabel,,,,,,,,,,,0.01812934,-0.034986979,1,0,0,kabel,0,2,2,7,1
,,,,,,00047,2023-10-18_18h42.08.493,vbt_B2_day2,2022.2.4,MacIntel,59.99880002,,,,,,,,,,,,,,,,,,,,,,,,,,,,,,,,,,,,,,,,,,opdatten,images/br_opdatten.png,images/cb_opdatten.png,,opdatten,,,,,,,,,,,0.036618924,-0.060811632,1,0,0,opdatten,0,3,3,37,1
,,,,,,00047,2023-10-18_18h42.08.493,vbt_B2_day2,2022.2.4,MacIntel,59.99880002,,,,,,,,,,,,,,,,,,,,,,,,,,,,,,,,,,,,,,,,,,feestdag,images/br_feestdag.png,images/cb_feestdag.png,,feestdag,,,,,,,,,,,0.021827257,-0.078085937,1,0,0,feestdag,0,4,4,17,1
,,,,,,00047,2023-10-18_18h42.08.493,vbt_B2_day2,2022.2.4,MacIntel,59.99880002,,,,,,,,,,,,,,,,,,,,,,,,,,,,,,,,,,,,,,,,,,doodmoe,images/br_doodmoe.png,images/cb_doodmoe.png,,doodmoe,,,,,,,,,,,-0.018528646,-0.091219618,1,0,0,doodmoe,0,5,5,15,1
,,,,,,00047,2023-10-18_18h42.08.493,vbt_B2_day2,2022.2.4,MacIntel,59.99880002,,,,,,,,,,,,,,,,,,,,,,,,,,,,,,,,,,,,,,,,,,sora,images/br_sora.png,images/cb_sora.png,,sora,,,,,,,,,,,-0.010703125,-0.051588542,1,0,0,sora,0,6,6,22,1
,,,,,,00047,2023-10-18_18h42.08.493,vbt_B2_day2,2022.2.4,MacIntel,59.99880002,,,,,,,,,,,,,,,,,,,,,,,,,,,,,,,,,,,,,,,,,,zwager,images/br_zwager.png,images/cb_zwager.png,,zwager,,,,,,,,,,,-0.031857639,-0.036115451,1,0,0,zwager,0,7,7,49,1
,,,,,,00047,2023-10-18_18h42.08.493,vbt_B2_day2,2022.2.4,MacIntel,59.99880002,,,,,,,,,,,,,,,,,,,,,,,,,,,,,,,,,,,,,,,,,,lokken,images/br_lokken.png,images/cb_lokken.png,,lokken,,,,,,,,,,,-0.061293403,-0.108780382,1,0,0,lokken,0,8,8,8,1
,,,,,,00047,2023-10-18_18h42.08.493,vbt_B2_day2,2022.2.4,MacIntel,59.99880002,,,,,,,,,,,,,,,,,,,,,,,,,,,,,,,,,,,,,,,,,,aanzien,images/br_aanzien.png,images/cb_aanzien.png,,aanzien,,,,,,,,,,,-0.122430556,-0.012526042,1,0,0,aanzien,0,9,9,13,1
,,,,,,00047,2023-10-18_18h42.08.493,vbt_B2_day2,2022.2.4,MacIntel,59.99880002,,,,,,,,,,,,,,,,,,,,,,,,,,,,,,,,,,,,,,,,,,piste,images/br_piste.png,images/cb_piste.png,,piste,,,,,,,,,,,-0.096944444,-0.035347222,1,0,0,piste,0,10,10,5,1
,,,,,,00047,2023-10-18_18h42.08.493,vbt_B2_day2,2022.2.4,MacIntel,59.99880002,,,,,,,,,,,,,,,,,,,,,,,,,,,,,,,,,,,,,,,,,,thema,images/br_thema.png,images/cb_thema.png,,thema,,,,,,,,,,,-0.057847222,-0.099978299,1,0,0,thema,0,11,11,47,1
,,,,,,00047,2023-10-18_18h42.08.493,vbt_B2_day2,2022.2.4,MacIntel,59.99880002,,,,,,,,,,,,,,,,,,,,,,,,,,,,,,,,,,,,,,,,,,badon,images/br_badon.png,images/cb_badon.png,,badon,,,,,,,,,,,-0.056922743,-0.077617188,1,0,0,badon,0,12,12,26,1
,,,,,,00047,2023-10-18_18h42.08.493,vbt_B2_day2,2022.2.4,MacIntel,59.99880002,,,,,,,,,,,,,,,,,,,,,,,,,,,,,,,,,,,,,,,,,,stes,images/br_stes.png,images/cb_stes.png,,stes,,,,,,,,,,,-0.047291667,-0.097226563,1,0,0,stes,0,13,13,21,1
,,,,,,00047,2023-10-18_18h42.08.493,vbt_B2_day2,2022.2.4,MacIntel,59.99880002,,,,,,,,,,,,,,,,,,,,,,,,,,,,,,,,,,,,,,,,,,blad,images/br_blad.png,images/cb_blad.png,,blad,,,,,,,,,,,-0.016184896,-0.116979167,1,0,0,blad,0,14,14,1,1
,,,,,,00047,2023-10-18_18h42.08.493,vbt_B2_day2,2022.2.4,MacIntel,59.99880002,,,,,,,,,,,,,,,,,,,,,,,,,,,,,,,,,,,,,,,,,,jong,images/br_jong.png,images/cb_jong.png,,jong,,,,,,,,,,,-0.079118924,-0.014014757,1,0,0,jong,0,15,15,43,1
,,,,,,00047,2023-10-18_18h42.08.493,vbt_B2_day2,2022.2.4,MacIntel,59.99880002,,,,,,,,,,,,,,,,,,,,,,,,,,,,,,,,,,,,,,,,,,eenhoorn,images/br_eenhoorn.png,images/cb_eenhoorn.png,,eenhoorn,,,,,,,,,,,-0.056961806,-0.009513889,1,0,0,eenhoorn,0,16,16,19,1
,,,,,,00047,2023-10-18_18h42.08.493,vbt_B2_day2,2022.2.4,MacIntel,59.99880002,,,,,,,,,,,,,,,,,,,,,,,,,,,,,,,,,,,,,,,,,,tand,images/br_tand.png,images/cb_tand.png,,tand,,,,,,,,,,,-0.016323785,-0.08234375,1,0,0,tand,0,17,17,42,1
,,,,,,00047,2023-10-18_18h42.08.493,vbt_B2_day2,2022.2.4,MacIntel,59.99880002,,,,,,,,,,,,,,,,,,,,,,,,,,,,,,,,,,,,,,,,,,welzijn,images/br_welzijn.png,images/cb_welzijn.png,,welzijn,,,,,,,,,,,-0.026284722,-0.045711806,1,0,0,welzijn,0,18,18,52,1
,,,,,,00047,2023-10-18_18h42.08.493,vbt_B2_day2,2022.2.4,MacIntel,59.99880002,,,,,,,,,,,,,,,,,,,,,,,,,,,,,,,,,,,,,,,,,,kenzis,images/br_kenzis.png,images/cb_kenzis.png,,kenzis,,,,,,,,,,,-0.035364583,0.027521701,1,0,0,kenzis,0,19,19,30,1
,,,,,,00047,2023-10-18_18h42.08.493,vbt_B2_day2,2022.2.4,MacIntel,59.99880002,,,,,,,,,,,,,,,,,,,,,,,,,,,,,,,,,,,,,,,,,,systeem,images/br_systeem.png,images/cb_systeem.png,,systeem,,,,,,,,,,,-0.019105903,0.049331597,1,0,0,systeem,0,20,20,54,1
,,,,,,00047,2023-10-18_18h42.08.493,vbt_B2_day2,2022.2.4,MacIntel,59.99880002,,,,,,,,,,,,,,,,,,,,,,,,,,,,,,,,,,,,,,,,,,lurgen,images/br_lurgen.png,images/cb_lurgen.png,,lurgen,,,,,,,,,,,-0.030546875,0.046866319,1,0,0,lurgen,0,21,21,29,1
,,,,,,00047,2023-10-18_18h42.08.493,vbt_B2_day2,2022.2.4,MacIntel,59.99880002,,,,,,,,,,,,,,,,,,,,,,,,,,,,,,,,,,,,,,,,,,flits,images/br_flits.png,images/cb_flits.png,,flits,,,,,,,,,,,-0.095421007,-0.076636285,1,0,0,flits,0,22,22,4,1
,,,,,,00047,2023-10-18_18h42.08.493,vbt_B2_day2,2022.2.4,MacIntel,59.99880002,,,,,,,,,,,,,,,,,,,,,,,,,,,,,,,,,,,,,,,,,,moes,images/br_moes.png,images/cb_moes.png,,moes,,,,,,,,,,,-0.034201389,0.023372396,1,0,0,moes,0,23,23,0,1
,,,,,,00047,2023-10-18_18h42.08.493,vbt_B2_day2,2022.2.4,MacIntel,59.99880002,,,,,,,,,,,,,,,,,,,,,,,,,,,,,,,,,,,,,,,,,,heengeen,images/br_heengeen.png,images/cb_heengeen.png,,heengeen,,,,,,,,,,,-0.043554688,-0.065733507,1,0,0,heengeen,0,24,24,38,1
,,,,,,00047,2023-10-18_18h42.08.493,vbt_B2_day2,2022.2.4,MacIntel,59.99880002,,,,,,,,,,,,,,,,,,,,,,,,,,,,,,,,,,,,,,,,,,zomers,images/br_zomers.png,images/cb_zomers.png,,zomers,,,,,,,,,,,-0.083094618,-0.110681424,1,0,0,zomers,0,25,25,48,1
,,,,,,00047,2023-10-18_18h42.08.493,vbt_B2_day2,2022.2.4,MacIntel,59.99880002,,,,,,,,,,,,,,,,,,,,,,,,,,,,,,,,,,,,,,,,,,sjijfel,images/br_sjijfel.png,images/cb_sjijfel.png,,sjij...,,,,,,,,,,,-0.106306424,0.000967882,1,0,0,sjij...,0,26,26,33,1
,,,,,,00047,2023-10-18_18h42.08.493,vbt_B2_day2,2022.2.4,MacIntel,59.99880002,,,,,,,,,,,,,,,,,,,,,,,,,,,,,,,,,,,,,,,,,,sifferd,images/br_sifferd.png,images/cb_sifferd.png,,sifferd,,,,,,,,,,,-0.101788194,-0.121171875,1,0,0,sifferd,0,27,27,32,1
,,,,,,00047,2023-10-18_18h42.08.493,vbt_B2_day2,2022.2.4,MacIntel,59.99880002,,,,,,,,,,,,,,,,,,,,,,,,,,,,,,,,,,,,,,,,,,inzicht,images/br_inzicht.png,images/cb_inzicht.png,,inzien,,,,,,,,,,,-0.027443576,-0.289678819,1,0,0,inzien,0,28,28,53,1
,,,,,,00047,2023-10-18_18h42.08.493,vbt_B2_day2,2022.2.4,MacIntel,59.99880002,,,,,,,,,,,,,,,,,,,,,,,,,,,,,,,,,,,,,,,,,,breuk,images/br_breuk.png,images/cb_breuk.png,,breuk,,,,,,,,,,,0.007677951,-0.322981771,1,0,0,breuk,0,29,29,45,1
,,,,,,00047,2023-10-18_18h42.08.493,vbt_B2_day2,2022.2.4,MacIntel,59.99880002,,,,,,,,,,,,,,,,,,,,,,,,,,,,,,,,,,,,,,,,,,zegel,images/br_zegel.png,images/cb_zegel.png,,zegel,,,,,,,,,,,0.000638021,-0.298645833,1,0,0,zegel,0,30,30,46,1
,,,,,,00047,2023-10-18_18h42.08.493,vbt_B2_day2,2022.2.4,MacIntel,59.99880002,,,,,,,,,,,,,,,,,,,,,,,,,,,,,,,,,,,,,,,,,,bereuwen,images/br_bereuwen.png,images/cb_bereuwen.png,,bereuwe.,,,,,,,,,,,-0.019357639,-0.103997396,1,0,0,bereuwe.,0,31,31,39,1
,,,,,,00047,2023-10-18_18h42.08.493,vbt_B2_day2,2022.2.4,MacIntel,59.99880002,,,,,,,,,,,,,,,,,,,,,,,,,,,,,,,,,,,,,,,,,,remel,images/br_remel.png,images/cb_remel.png,,remel,,,,,,,,,,,0.076744792,-0.077994792,1,0,0,remel,0,32,32,25,1
,,,,,,00047,2023-10-18_18h42.08.493,vbt_B2_day2,2022.2.4,MacIntel,59.99880002,,,,,,,,,,,,,,,,,,,,,,,,,,,,,,,,,,,,,,,,,,strikken,images/br_strikken.png,images/cb_strikken.png,,strikken,,,,,,,,,,,0.05484809,-0.094392361,1,0,0,strikken,0,33,33,18,1
,,,,,,00047,2023-10-18_18h42.08.493,vbt_B2_day2,2022.2.4,MacIntel,59.99880002,,,,,,,,,,,,,,,,,,,,,,,,,,,,,,,,,,,,,,,,,,aanvraag,images/br_aanvraag.png,images/cb_aanvraag.png,,aanvra,,,,,,,,,,,0.039309896,-0.08796875,1,0,0,aanvra,0,34,34,57,1
,,,,,,00047,2023-10-18_18h42.08.493,vbt_B2_day2,2022.2.4,MacIntel,59.99880002,,,,,,,,,,,,,,,,,,,,,,,,,,,,,,,,,,,,,,,,,,manieren,images/br_manieren.png,images/cb_manieren.png,,manieren,,,,,,,,,,,0.027135417,-0.085490451,1,0,0,manieren,0,35,35,56,1
,,,,,,00047,2023-10-18_18h42.08.493,vbt_B2_day2,2022.2.4,MacIntel,59.99880002,,,,,,,,,,,,,,,,,,,,,,,,,,,,,,,,,,,,,,,,,,agressie,images/br_agressie.png,images/cb_agressie.png,,agressie,,,,,,,,,,,0.041614583,-0.086302083,1,0,0,agressie,0,36,36,59,1
,,,,,,00047,2023-10-18_18h42.08.493,vbt_B2_day2,2022.2.4,MacIntel,59.99880002,,,,,,,,,,,,,,,,,,,,,,,,,,,,,,,,,,,,,,,,,,wijve,images/br_wijve.png,images/cb_wijve.png,,wijve,,,,,,,,,,,0.023875868,-0.036762153,1,0,0,wijve,0,37,37,27,1
,,,,,,00047,2023-10-18_18h42.08.493,vbt_B2_day2,2022.2.4,MacIntel,59.99880002,,,,,,,,,,,,,,,,,,,,,,,,,,,,,,,,,,,,,,,,,,joes,images/br_joes.png,images/cb_joes.png,,joes,,,,,,,,,,,0.032526042,0.010008681,1,0,0,joes,0,38,38,20,1
,,,,,,00047,2023-10-18_18h42.08.493,vbt_B2_day2,2022.2.4,MacIntel,59.99880002,,,,,,,,,,,,,,,,,,,,,,,,,,,,,,,,,,,,,,,,,,geld,images/br_geld.png,images/cb_geld.png,,geld,,,,,,,,,,,0.001367187,0.05078125,1,0,0,geld,0,39,39,3,1
,,,,,,00047,2023-10-18_18h42.08.493,vbt_B2_day2,2022.2.4,MacIntel,59.99880002,,,,,,,,,,,,,,,,,,,,,,,,,,,,,,,,,,,,,,,,,,dode,images/br_dode.png,images/cb_dode.png,,dode,,,,,,,,,,,-0.020928819,-0.048836806,1,0,0,dode,0,40,40,41,1
,,,,,,00047,2023-10-18_18h42.08.493,vbt_B2_day2,2022.2.4,MacIntel,59.99880002,,,,,,,,,,,,,,,,,,,,,,,,,,,,,,,,,,,,,,,,,,toeval,images/br_toeval.png,images/cb_toeval.png,,toeval,,,,,,,,,,,-0.042296007,-0.068619792,1,0,0,toeval,0,41,41,11,1
,,,,,,00047,2023-10-18_18h42.08.493,vbt_B2_day2,2022.2.4,MacIntel,59.99880002,,,,,,,,,,,,,,,,,,,,,,,,,,,,,,,,,,,,,,,,,,tweeling,images/br_tweeling.png,images/cb_tweeling.png,,tweeling,,,,,,,,,,,-0.036553819,0.039700521,1,0,0,tweeling,0,42,42,58,1
,,,,,,00047,2023-10-18_18h42.08.493,vbt_B2_day2,2022.2.4,MacIntel,59.99880002,,,,,,,,,,,,,,,,,,,,,,,,,,,,,,,,,,,,,,,,,,kijlen,images/br_kijlen.png,images/cb_kijlen.png,,kie.len,,,,,,,,,,,0.008346354,-0.266753472,1,0,0,kie.len,0,43,43,31,1
,,,,,,00047,2023-10-18_18h42.08.493,vbt_B2_day2,2022.2.4,MacIntel,59.99880002,,,,,,,,,,,,,,,,,,,,,,,,,,,,,,,,,,,,,,,,,,kasteel,images/br_kasteel.png,images/cb_kasteel.png,,kasteel,,,,,,,,,,,-0.040889757,-0.047912326,1,0,0,kasteel,0,44,44,14,1
,,,,,,00047,2023-10-18_18h42.08.493,vbt_B2_day2,2022.2.4,MacIntel,59.99880002,,,,,,,,,,,,,,,,,,,,,,,,,,,,,,,,,,,,,,,,,,krimmen,images/br_krimmen.png,images/cb_krimmen.png,,krimmen,,,,,,,,,,,-0.026584201,-0.013585069,1,0,0,krimmen,0,45,45,35,1
,,,,,,00047,2023-10-18_18h42.08.493,vbt_B2_day2,2022.2.4,MacIntel,59.99880002,,,,,,,,,,,,,,,,,,,,,,,,,,,,,,,,,,,,,,,,,,koorts,images/br_koorts.png,images/cb_koorts.png,,kaarts,,,,,,,,,,,-0.023324653,-0.034483507,1,0,0,kaarts,0,46,46,50,1
,,,,,,00047,2023-10-18_18h42.08.493,vbt_B2_day2,2022.2.4,MacIntel,59.99880002,,,,,,,,,,,,,,,,,,,,,,,,,,,,,,,,,,,,,,,,,,bloeien,images/br_bloeien.png,images/cb_bloeien.png,,bloeien,,,,,,,,,,,-0.038320313,-0.093784722,1,0,0,bloeien,0,47,47,12,1
,,,,,,00047,2023-10-18_18h42.08.493,vbt_B2_day2,2022.2.4,MacIntel,59.99880002,,,,,,,,,,,,,,,,,,,,,,,,,,,,,,,,,,,,,,,,,,heilig,images/br_heilig.png,images/cb_heilig.png,,heilig,,,,,,,,,,,-0.009487847,-0.019596354,1,0,0,heilig,0,48,48,9,1
,,,,,,00047,2023-10-18_18h42.08.493,vbt_B2_day2,2022.2.4,MacIntel,59.99880002,,,,,,,,,,,,,,,,,,,,,,,,,,,,,,,,,,,,,,,,,,diep,images/br_diep.png,images/cb_diep.png,,diep,,,,,,,,,,,-0.012868924,-0.093029514,1,0,0,diep,0,49,49,2,1
,,,,,,00047,2023-10-18_18h42.08.493,vbt_B2_day2,2022.2.4,MacIntel,59.99880002,,,,,,,,,,,,,,,,,,,,,,,,,,,,,,,,,,,,,,,,,,anarchie,images/br_anarchie.png,images/cb_anarchie.png,,anarchie,,,,,,,,,,,-0.026367188,-0.055998264,1,0,0,anarchie,0,50,50,16,1
,,,,,,00047,2023-10-18_18h42.08.493,vbt_B2_day2,2022.2.4,MacIntel,59.99880002,,,,,,,,,,,,,,,,,,,,,,,,,,,,,,,,,,,,,,,,,,prekken,images/br_prekken.png,images/cb_prekken.png,,prekken,,,,,,,,,,,0.001015625,-0.332087674,1,0,0,prekken,0,51,51,34,1
,,,,,,00047,2023-10-18_18h42.08.493,vbt_B2_day2,2022.2.4,MacIntel,59.99880002,,,,,,,,,,,,,,,,,,,,,,,,,,,,,,,,,,,,,,,,,,clan,images/br_clan.png,images/cb_clan.png,,clan,,,,,,,,,,,0.026818576,-0.045177951,1,0,0,clan,0,52,52,40,1
,,,,,,00047,2023-10-18_18h42.08.493,vbt_B2_day2,2022.2.4,MacIntel,59.99880002,,,,,,,,,,,,,,,,,,,,,,,,,,,,,,,,,,,,,,,,,,jagen,images/br_jagen.png,images/cb_jagen.png,,jagen,,,,,,,,,,,0.05250434,-0.077018229,1,0,0,jagen,0,53,53,6,1
,,,,,,00047,2023-10-18_18h42.08.493,vbt_B2_day2,2022.2.4,MacIntel,59.99880002,,,,,,,,,,,,,,,,,,,,,,,,,,,,,,,,,,,,,,,,,,ningen,images/br_ningen.png,images/cb_ningen.png,,zingen,,,,,,,,,,,-0.024136285,-0.115529514,1,0,0,zingen,0,54,54,28,1
,,,,,,00047,2023-10-18_18h42.08.493,vbt_B2_day2,2022.2.4,MacIntel,59.99880002,,,,,,,,,,,,,,,,,,,,,,,,,,,,,,,,,,,,,,,,,,lijnen,images/br_lijnen.png,images/cb_lijnen.png,,leinig,,,,,,,,,,,-0.047773438,-0.114006076,1,0,0,leinig,0,55,55,51,1
,,,,,,00047,2023-10-18_18h42.08.493,vbt_B2_day2,2022.2.4,MacIntel,59.99880002,,,,,,,,,,,,,,,,,,,,,,,,,,,,,,,,,,,,,,,,,,plannen,images/br_plannen.png,images/cb_plannen.png,,plannen,,,,,,,,,,,-0.050481771,-0.072769097,1,0,0,plannen,0,56,56,55,1
,,,,,,00047,2023-10-18_18h42.08.493,vbt_B2_day2,2022.2.4,MacIntel,59.99880002,,,,,,,,,,,,,,,,,,,,,,,,,,,,,,,,,,,,,,,,,,woning,images/br_woning.png,images/cb_woning.png,,waning,,,,,,,,,,,-0.038893229,-0.070286458,1,0,0,waning,0,57,57,10,1
,,,,,,00047,2023-10-18_18h42.08.493,vbt_B2_day2,2022.2.4,MacIntel,59.99880002,,,,,,,,,,,,,,,,,,,,,,,,,,,,,,,,,,,,,,,,,,negel,images/br_negel.png,images/cb_negel.png,,negel,,,,,,,,,,,-0.02452691,-0.043671875,1,0,0,negel,0,58,58,24,1
,,,,,,00047,2023-10-18_18h42.08.493,vbt_B2_day2,2022.2.4,MacIntel,59.99880002,,,,,,,,,,,,,,,,,,,,,,,,,,,,,,,,,,,,,,,,,,trots,images/br_trots.png,images/cb_trots.png,,trots,,,,,,,,,,,-0.028480903,-0.097565104,1,0,0,trots,0,59,59,44,1
,,,,,,00047,2023-10-18_18h42.08.493,vbt_B2_day2,2022.2.4,MacIntel,59.99880002,,,,,,,,,,,,,,,,,,,,,,,,,,,,,,,,,,,,,,,,,,,,,,,,,,,,,,,,,,,,,,,,,,,
