welcome_mouse.x,welcome_mouse.y,welcome_mouse.leftButton,welcome_mouse.midButton,welcome_mouse.rightButton,welcome_mouse.time,"ID",date,expName,psychopyVersion,OS,frameRate,refresh_mouse.x,refresh_mouse.y,refresh_mouse.leftButton,refresh_mouse.midButton,refresh_mouse.rightButton,refresh_mouse.time,braille_mouse.x,braille_mouse.y,braille_mouse.leftButton,braille_mouse.midButton,braille_mouse.rightButton,braille_mouse.time,trials.thisRepN,trials.thisTrialN,trials.thisN,trials.thisIndex,trials.ran,nlLet,brLet,cbLet,trainInstr_mouse.x,trainInstr_mouse.y,trainInstr_mouse.leftButton,trainInstr_mouse.midButton,trainInstr_mouse.rightButton,trainInstr_mouse.time,translation_key.keys,translation_key.corr,translation_key.rt,word_rsp.text,word_mouse.x,word_mouse.y,word_mouse.leftButton,word_mouse.midButton,word_mouse.rightButton,word_mouse.time,train_loop.thisRepN,train_loop.thisTrialN,train_loop.thisN,train_loop.thisIndex,train_loop.ran,nlWrd,brWrd,cbWrd,test,testResp,mouse.x,mouse.y,mouse.leftButton,mouse.midButton,mouse.rightButton,testInstr_mouse.x,testInstr_mouse.y,testInstr_mouse.leftButton,testInstr_mouse.midButton,testInstr_mouse.rightButton,test_mouse.x,test_mouse.y,test_mouse.leftButton,test_mouse.midButton,test_mouse.rightButton,test_response.text,test_loop.thisRepN,test_loop.thisTrialN,test_loop.thisN,test_loop.thisIndex,test_loop.ran
-0.13671875,0.05078125,1,0,0,13.078,00070,2023-10-17_21h44.57.149,vbt_B2_day2,2022.2.4,Win32,59.93766483,,,,,,,,,,,,,,,,,,,,,,,,,,,,,,,,,,,,,,,,,,,,,,,,,,,,,,,,,,,,,,,,,,,
,,,,,,00070,2023-10-17_21h44.57.149,vbt_B2_day2,2022.2.4,Win32,59.93766483,-0.13671875,0.05078125,1,0,0,7.5301,,,,,,,,,,,,,,,,,,,,,,,,,,,,,,,,,,,,,,,,,,,,,,,,,,,,,,,,,,,,,
,,,,,,00070,2023-10-17_21h44.57.149,vbt_B2_day2,2022.2.4,Win32,59.93766483,,,,,,,-0.13671875,0.05078125,1,0,0,7.742,0,0,0,5,1,f,images/br_f.png,images/cb_f.png,,,,,,,,,,,,,,,,,,,,,,,,,,,,,,,,,,,,,,,,,,,,,,,
,,,,,,00070,2023-10-17_21h44.57.149,vbt_B2_day2,2022.2.4,Win32,59.93766483,,,,,,,-0.13671875,0.05078125,1,0,0,6.8245,0,1,1,12,1,m,images/br_m.png,images/cb_m.png,,,,,,,,,,,,,,,,,,,,,,,,,,,,,,,,,,,,,,,,,,,,,,,
,,,,,,00070,2023-10-17_21h44.57.149,vbt_B2_day2,2022.2.4,Win32,59.93766483,,,,,,,-0.140625,0.051757813,1,0,0,7.0079,0,2,2,16,1,q,images/br_q.png,images/cb_q.png,,,,,,,,,,,,,,,,,,,,,,,,,,,,,,,,,,,,,,,,,,,,,,,
,,,,,,00070,2023-10-17_21h44.57.149,vbt_B2_day2,2022.2.4,Win32,59.93766483,,,,,,,-0.294921875,-0.049804688,1,0,0,0.7006,0,3,3,15,1,p,images/br_p.png,images/cb_p.png,,,,,,,,,,,,,,,,,,,,,,,,,,,,,,,,,,,,,,,,,,,,,,,
,,,,,,00070,2023-10-17_21h44.57.149,vbt_B2_day2,2022.2.4,Win32,59.93766483,,,,,,,-0.294921875,-0.049804688,1,0,0,3.0704,0,4,4,1,1,b,images/br_b.png,images/cb_b.png,,,,,,,,,,,,,,,,,,,,,,,,,,,,,,,,,,,,,,,,,,,,,,,
,,,,,,00070,2023-10-17_21h44.57.149,vbt_B2_day2,2022.2.4,Win32,59.93766483,,,,,,,-0.297851563,-0.049804688,1,0,0,0.3508,0,5,5,21,1,v,images/br_v.png,images/cb_v.png,,,,,,,,,,,,,,,,,,,,,,,,,,,,,,,,,,,,,,,,,,,,,,,
,,,,,,00070,2023-10-17_21h44.57.149,vbt_B2_day2,2022.2.4,Win32,59.93766483,,,,,,,-0.297851563,-0.049804688,1,0,0,0.2173,0,6,6,23,1,x,images/br_x.png,images/cb_x.png,,,,,,,,,,,,,,,,,,,,,,,,,,,,,,,,,,,,,,,,,,,,,,,
,,,,,,00070,2023-10-17_21h44.57.149,vbt_B2_day2,2022.2.4,Win32,59.93766483,,,,,,,-0.297851563,-0.049804688,1,0,0,0.0502,0,7,7,8,1,i,images/br_i.png,images/cb_i.png,,,,,,,,,,,,,,,,,,,,,,,,,,,,,,,,,,,,,,,,,,,,,,,
,,,,,,00070,2023-10-17_21h44.57.149,vbt_B2_day2,2022.2.4,Win32,59.93766483,,,,,,,-0.297851563,-0.049804688,1,0,0,0.2172,0,8,8,2,1,c,images/br_c.png,images/cb_c.png,,,,,,,,,,,,,,,,,,,,,,,,,,,,,,,,,,,,,,,,,,,,,,,
,,,,,,00070,2023-10-17_21h44.57.149,vbt_B2_day2,2022.2.4,Win32,59.93766483,,,,,,,-0.297851563,-0.049804688,1,0,0,1.7016,0,9,9,13,1,n,images/br_n.png,images/cb_n.png,,,,,,,,,,,,,,,,,,,,,,,,,,,,,,,,,,,,,,,,,,,,,,,
,,,,,,00070,2023-10-17_21h44.57.149,vbt_B2_day2,2022.2.4,Win32,59.93766483,,,,,,,-0.297851563,-0.049804688,1,0,0,0.167,0,10,10,11,1,l,images/br_l.png,images/cb_l.png,,,,,,,,,,,,,,,,,,,,,,,,,,,,,,,,,,,,,,,,,,,,,,,
,,,,,,00070,2023-10-17_21h44.57.149,vbt_B2_day2,2022.2.4,Win32,59.93766483,,,,,,,-0.297851563,-0.049804688,1,0,0,4.2384,0,11,11,0,1,a,images/br_a.png,images/cb_a.png,,,,,,,,,,,,,,,,,,,,,,,,,,,,,,,,,,,,,,,,,,,,,,,
,,,,,,00070,2023-10-17_21h44.57.149,vbt_B2_day2,2022.2.4,Win32,59.93766483,,,,,,,-0.297851563,-0.049804688,1,0,0,1.9689,0,12,12,3,1,d,images/br_d.png,images/cb_d.png,,,,,,,,,,,,,,,,,,,,,,,,,,,,,,,,,,,,,,,,,,,,,,,
,,,,,,00070,2023-10-17_21h44.57.149,vbt_B2_day2,2022.2.4,Win32,59.93766483,,,,,,,-0.297851563,-0.049804688,1,0,0,1.902,0,13,13,10,1,k,images/br_k.png,images/cb_k.png,,,,,,,,,,,,,,,,,,,,,,,,,,,,,,,,,,,,,,,,,,,,,,,
,,,,,,00070,2023-10-17_21h44.57.149,vbt_B2_day2,2022.2.4,Win32,59.93766483,,,,,,,-0.297851563,-0.049804688,1,0,0,0.55,0,14,14,9,1,j,images/br_j.png,images/cb_j.png,,,,,,,,,,,,,,,,,,,,,,,,,,,,,,,,,,,,,,,,,,,,,,,
,,,,,,00070,2023-10-17_21h44.57.149,vbt_B2_day2,2022.2.4,Win32,59.93766483,,,,,,,-0.297851563,-0.049804688,1,0,0,0.102,0,15,15,24,1,y,images/br_y.png,images/cb_y.png,,,,,,,,,,,,,,,,,,,,,,,,,,,,,,,,,,,,,,,,,,,,,,,
,,,,,,00070,2023-10-17_21h44.57.149,vbt_B2_day2,2022.2.4,Win32,59.93766483,,,,,,,-0.297851563,-0.049804688,1,0,0,0.2003,0,16,16,18,1,s,images/br_s.png,images/cb_s.png,,,,,,,,,,,,,,,,,,,,,,,,,,,,,,,,,,,,,,,,,,,,,,,
,,,,,,00070,2023-10-17_21h44.57.149,vbt_B2_day2,2022.2.4,Win32,59.93766483,,,,,,,-0.297851563,-0.049804688,1,0,0,1.7017,0,17,17,17,1,r,images/br_r.png,images/cb_r.png,,,,,,,,,,,,,,,,,,,,,,,,,,,,,,,,,,,,,,,,,,,,,,,
,,,,,,00070,2023-10-17_21h44.57.149,vbt_B2_day2,2022.2.4,Win32,59.93766483,,,,,,,-0.297851563,-0.049804688,1,0,0,0.2503,0,18,18,7,1,h,images/br_h.png,images/cb_h.png,,,,,,,,,,,,,,,,,,,,,,,,,,,,,,,,,,,,,,,,,,,,,,,
,,,,,,00070,2023-10-17_21h44.57.149,vbt_B2_day2,2022.2.4,Win32,59.93766483,,,,,,,-0.297851563,-0.049804688,1,0,0,3.4035,0,19,19,25,1,z,images/br_z.png,images/cb_z.png,,,,,,,,,,,,,,,,,,,,,,,,,,,,,,,,,,,,,,,,,,,,,,,
,,,,,,00070,2023-10-17_21h44.57.149,vbt_B2_day2,2022.2.4,Win32,59.93766483,,,,,,,-0.297851563,-0.049804688,1,0,0,5.4891,0,20,20,19,1,t,images/br_t.png,images/cb_t.png,,,,,,,,,,,,,,,,,,,,,,,,,,,,,,,,,,,,,,,,,,,,,,,
,,,,,,00070,2023-10-17_21h44.57.149,vbt_B2_day2,2022.2.4,Win32,59.93766483,,,,,,,-0.297851563,-0.049804688,1,0,0,0.05,0,21,21,22,1,w,images/br_w.png,images/cb_w.png,,,,,,,,,,,,,,,,,,,,,,,,,,,,,,,,,,,,,,,,,,,,,,,
,,,,,,00070,2023-10-17_21h44.57.149,vbt_B2_day2,2022.2.4,Win32,59.93766483,,,,,,,-0.297851563,-0.049804688,1,0,0,3.854,0,22,22,14,1,o,images/br_o.png,images/cb_o.png,,,,,,,,,,,,,,,,,,,,,,,,,,,,,,,,,,,,,,,,,,,,,,,
,,,,,,00070,2023-10-17_21h44.57.149,vbt_B2_day2,2022.2.4,Win32,59.93766483,,,,,,,-0.297851563,-0.049804688,1,0,0,0.334,0,23,23,20,1,u,images/br_u.png,images/cb_u.png,,,,,,,,,,,,,,,,,,,,,,,,,,,,,,,,,,,,,,,,,,,,,,,
,,,,,,00070,2023-10-17_21h44.57.149,vbt_B2_day2,2022.2.4,Win32,59.93766483,,,,,,,-0.297851563,-0.049804688,1,0,0,0.317,0,24,24,6,1,g,images/br_g.png,images/cb_g.png,,,,,,,,,,,,,,,,,,,,,,,,,,,,,,,,,,,,,,,,,,,,,,,
,,,,,,00070,2023-10-17_21h44.57.149,vbt_B2_day2,2022.2.4,Win32,59.93766483,,,,,,,-0.297851563,-0.049804688,1,0,0,0.233,0,25,25,4,1,e,images/br_e.png,images/cb_e.png,,,,,,,,,,,,,,,,,,,,,,,,,,,,,,,,,,,,,,,,,,,,,,,
,,,,,,00070,2023-10-17_21h44.57.149,vbt_B2_day2,2022.2.4,Win32,59.93766483,,,,,,,,,,,,,,,,,,,,,-0.625,0.0859375,1,0,0,42.8576,,,,,,,,,,,,,,,,,,,,,,,,,,,,,,,,,,,,,,,,,
,,,,,,00070,2023-10-17_21h44.57.149,vbt_B2_day2,2022.2.4,Win32,59.93766483,,,,,,,,,,,,,,,,,,,,,,,,,,,down,0,12.159,,-0.625,0.0859375,1,0,0,6.4736,0,0,0,132,1,grappen,images/br_grappen.png,images/cb_grappen.png,0,,,,,,,,,,,,,,,,,,,,,,
,,,,,,00070,2023-10-17_21h44.57.149,vbt_B2_day2,2022.2.4,Win32,59.93766483,,,,,,,,,,,,,,,,,,,,,,,,,,,down,0,11.5329,,-0.625,0.0859375,1,0,0,7.6415,0,1,1,173,1,apparaat,images/br_apparaat.png,images/cb_apparaat.png,0,,,,,,,,,,,,,,,,,,,,,,
,,,,,,00070,2023-10-17_21h44.57.149,vbt_B2_day2,2022.2.4,Win32,59.93766483,,,,,,,,,,,,,,,,,,,,,,,,,,,down,0,4.8202,,-0.625,-0.163085938,1,0,0,2.4188,0,2,2,119,1,liefje,images/br_liefje.png,images/cb_liefje.png,0,,,,,,,,,,,,,,,,,,,,,,
,,,,,,00070,2023-10-17_21h44.57.149,vbt_B2_day2,2022.2.4,Win32,59.93766483,,,,,,,,,,,,,,,,,,,,,,,,,,,down,0,1.2469,,-0.625,-0.163085938,1,0,0,3.7045,0,3,3,29,1,baas,images/br_baas.png,images/cb_baas.png,0,,,,,,,,,,,,,,,,,,,,,,
,,,,,,00070,2023-10-17_21h44.57.149,vbt_B2_day2,2022.2.4,Win32,59.93766483,,,,,,,,,,,,,,,,,,,,,,,,,,,down,0,1.019,,-0.591796875,0.022460938,1,0,0,2.9365,0,4,4,35,1,lust,images/br_lust.png,images/cb_lust.png,0,,,,,,,,,,,,,,,,,,,,,,
,,,,,,00070,2023-10-17_21h44.57.149,vbt_B2_day2,2022.2.4,Win32,59.93766483,,,,,,,,,,,,,,,,,,,,,,,,,,,down,0,1.3957,,-0.591796875,0.022460938,1,0,0,3.5699,0,5,5,75,1,snoep,images/br_snoep.png,images/cb_snoep.png,0,,,,,,,,,,,,,,,,,,,,,,
,,,,,,00070,2023-10-17_21h44.57.149,vbt_B2_day2,2022.2.4,Win32,59.93766483,,,,,,,,,,,,,,,,,,,,,,,,,,,down,0,22.0378,,-0.591796875,0.022460938,1,0,0,23.0748,0,6,6,72,1,strak,images/br_strak.png,images/cb_strak.png,0,,,,,,,,,,,,,,,,,,,,,,
,,,,,,00070,2023-10-17_21h44.57.149,vbt_B2_day2,2022.2.4,Win32,59.93766483,,,,,,,,,,,,,,,,,,,,,,,,,,,down,0,23.0783,,-0.591796875,0.022460938,1,0,0,2.4025,0,7,7,98,1,kreeft,images/br_kreeft.png,images/cb_kreeft.png,1,kreeft,,,,,,,,,,,,,,,,,,,,,
,,,,,,00070,2023-10-17_21h44.57.149,vbt_B2_day2,2022.2.4,Win32,59.93766483,,,,,,,,,,,,,,,,,,,,,,,,,,,down,0,1.8187,,-0.591796875,0.022460938,1,0,0,3.1534,0,8,8,74,1,graaf,images/br_graaf.png,images/cb_graaf.png,0,,,,,,,,,,,,,,,,,,,,,,
,,,,,,00070,2023-10-17_21h44.57.149,vbt_B2_day2,2022.2.4,Win32,59.93766483,,,,,,,,,,,,,,,,,,,,,,,,,,,down,0,3.2304,,-0.591796875,0.022460938,1,0,0,3.8374,0,9,9,63,1,flirt,images/br_flirt.png,images/cb_flirt.png,0,,,,,,,,,,,,,,,,,,,,,,
,,,,,,00070,2023-10-17_21h44.57.149,vbt_B2_day2,2022.2.4,Win32,59.93766483,,,,,,,,,,,,,,,,,,,,,,,,,,,down,0,2.0403,,-0.591796875,0.022460938,1,0,0,1.919,0,10,10,9,1,hier,images/br_hier.png,images/cb_hier.png,0,,,,,,,,,,,,,,,,,,,,,,
,,,,,,00070,2023-10-17_21h44.57.149,vbt_B2_day2,2022.2.4,Win32,59.93766483,,,,,,,,,,,,,,,,,,,,,,,,,,,down,0,1.7004,,-0.591796875,0.022460938,1,0,0,2.0185,0,11,11,41,1,maken,images/br_maken.png,images/cb_maken.png,0,,,,,,,,,,,,,,,,,,,,,,
,,,,,,00070,2023-10-17_21h44.57.149,vbt_B2_day2,2022.2.4,Win32,59.93766483,,,,,,,,,,,,,,,,,,,,,,,,,,,down,0,2.7376,,-0.591796875,0.022460938,1,0,0,1.6355,0,12,12,90,1,geluid,images/br_geluid.png,images/cb_geluid.png,0,,,,,,,,,,,,,,,,,,,,,,
,,,,,,00070,2023-10-17_21h44.57.149,vbt_B2_day2,2022.2.4,Win32,59.93766483,,,,,,,,,,,,,,,,,,,,,,,,,,,down,0,4.9813,,-0.591796875,0.022460938,1,0,0,3.5706,0,13,13,50,1,stoom,images/br_stoom.png,images/cb_stoom.png,0,,,,,,,,,,,,,,,,,,,,,,
,,,,,,00070,2023-10-17_21h44.57.149,vbt_B2_day2,2022.2.4,Win32,59.93766483,,,,,,,,,,,,,,,,,,,,,,,,,,,down,0,10.5311,,-0.591796875,0.022460938,1,0,0,4.3885,0,14,14,167,1,eenhoorn,images/br_eenhoorn.png,images/cb_eenhoorn.png,0,,,,,,,,,,,,,,,,,,,,,,
,,,,,,00070,2023-10-17_21h44.57.149,vbt_B2_day2,2022.2.4,Win32,59.93766483,,,,,,,,,,,,,,,,,,,,,,,,,,,down,0,9.6449,,-0.591796875,0.022460938,1,0,0,9.2109,0,15,15,172,1,weigeren,images/br_weigeren.png,images/cb_weigeren.png,0,,,,,,,,,,,,,,,,,,,,,,
,,,,,,00070,2023-10-17_21h44.57.149,vbt_B2_day2,2022.2.4,Win32,59.93766483,,,,,,,,,,,,,,,,,,,,,,,,,,,down,0,1.6372,,-0.591796875,0.022460938,1,0,0,6.4068,0,16,16,190,1,goedkoop,images/br_goedkoop.png,images/cb_goedkoop.png,0,,,,,,,,,,,,,,,,,,,,,,
,,,,,,00070,2023-10-17_21h44.57.149,vbt_B2_day2,2022.2.4,Win32,59.93766483,,,,,,,,,,,,,,,,,,,,,,,,,,,down,0,3.6594,,-0.591796875,0.022460938,1,0,0,1.6183,0,17,17,10,1,leek,images/br_leek.png,images/cb_leek.png,0,,,,,,,,,,,,,,,,,,,,,,
,,,,,,00070,2023-10-17_21h44.57.149,vbt_B2_day2,2022.2.4,Win32,59.93766483,,,,,,,,,,,,,,,,,,,,,,,,,,,down,0,13.2424,,-0.591796875,0.020507813,1,0,0,1.3684,0,18,18,85,1,heilig,images/br_heilig.png,images/cb_heilig.png,0,,,,,,,,,,,,,,,,,,,,,,
,,,,,,00070,2023-10-17_21h44.57.149,vbt_B2_day2,2022.2.4,Win32,59.93766483,,,,,,,,,,,,,,,,,,,,,,,,,,,down,0,16.8728,,-0.591796875,0.020507813,1,0,0,17.5031,0,19,19,195,1,middelen,images/br_middelen.png,images/cb_middelen.png,0,,,,,,,,,,,,,,,,,,,,,,
,,,,,,00070,2023-10-17_21h44.57.149,vbt_B2_day2,2022.2.4,Win32,59.93766483,,,,,,,,,,,,,,,,,,,,,,,,,,,down,0,27.9069,,-0.591796875,0.020507813,1,0,0,2.1856,0,20,20,71,1,bever,images/br_bever.png,images/cb_bever.png,0,,,,,,,,,,,,,,,,,,,,,,
,,,,,,00070,2023-10-17_21h44.57.149,vbt_B2_day2,2022.2.4,Win32,59.93766483,,,,,,,,,,,,,,,,,,,,,,,,,,,down,0,1.1912,,-0.591796875,0.020507813,1,0,0,1.4015,0,21,21,192,1,schaamte,images/br_schaamte.png,images/cb_schaamte.png,0,,,,,,,,,,,,,,,,,,,,,,
,,,,,,00070,2023-10-17_21h44.57.149,vbt_B2_day2,2022.2.4,Win32,59.93766483,,,,,,,,,,,,,,,,,,,,,,,,,,,down,0,1.0934,,-0.591796875,0.020507813,1,0,0,1.3011,0,22,22,95,1,vreten,images/br_vreten.png,images/cb_vreten.png,0,,,,,,,,,,,,,,,,,,,,,,
,,,,,,00070,2023-10-17_21h44.57.149,vbt_B2_day2,2022.2.4,Win32,59.93766483,,,,,,,,,,,,,,,,,,,,,,,,,,,down,0,13.1997,,-0.479492188,0.034179688,1,0,0,11.597,0,23,23,154,1,aflopen,images/br_aflopen.png,images/cb_aflopen.png,0,,,,,,,,,,,,,,,,,,,,,,
,,,,,,00070,2023-10-17_21h44.57.149,vbt_B2_day2,2022.2.4,Win32,59.93766483,,,,,,,,,,,,,,,,,,,,,,,,,,,down,0,20.808,,-0.454101563,0.038085938,1,0,0,17.8026,0,24,24,182,1,bijkomen,images/br_bijkomen.png,images/cb_bijkomen.png,0,,,,,,,,,,,,,,,,,,,,,,
,,,,,,00070,2023-10-17_21h44.57.149,vbt_B2_day2,2022.2.4,Win32,59.93766483,,,,,,,,,,,,,,,,,,,,,,,,,,,down,0,1.8283,,-0.454101563,0.038085938,1,0,0,2.9363,0,25,25,163,1,schuilen,images/br_schuilen.png,images/cb_schuilen.png,0,,,,,,,,,,,,,,,,,,,,,,
,,,,,,00070,2023-10-17_21h44.57.149,vbt_B2_day2,2022.2.4,Win32,59.93766483,,,,,,,,,,,,,,,,,,,,,,,,,,,down,0,10.8144,,-0.454101563,0.038085938,1,0,0,10.8952,0,26,26,77,1,woede,images/br_woede.png,images/cb_woede.png,0,,,,,,,,,,,,,,,,,,,,,,
,,,,,,00070,2023-10-17_21h44.57.149,vbt_B2_day2,2022.2.4,Win32,59.93766483,,,,,,,,,,,,,,,,,,,,,,,,,,,down,0,5.3079,,-0.444335938,0.0390625,1,0,0,10.2783,0,27,27,151,1,aanzoek,images/br_aanzoek.png,images/cb_aanzoek.png,0,,,,,,,,,,,,,,,,,,,,,,
,,,,,,00070,2023-10-17_21h44.57.149,vbt_B2_day2,2022.2.4,Win32,59.93766483,,,,,,,,,,,,,,,,,,,,,,,,,,,down,0,0.1368,,-0.444335938,0.0390625,1,0,0,34.505,0,28,28,189,1,aanraden,images/br_aanraden.png,images/cb_aanraden.png,0,,,,,,,,,,,,,,,,,,,,,,
,,,,,,00070,2023-10-17_21h44.57.149,vbt_B2_day2,2022.2.4,Win32,59.93766483,,,,,,,,,,,,,,,,,,,,,,,,,,,down,0,6.1918,,-0.458007813,0.0078125,1,0,0,6.7236,0,29,29,118,1,vinger,images/br_vinger.png,images/cb_vinger.png,0,,,,,,,,,,,,,,,,,,,,,,
,,,,,,00070,2023-10-17_21h44.57.149,vbt_B2_day2,2022.2.4,Win32,59.93766483,,,,,,,,,,,,,,,,,,,,,,,,,,,down,0,6.5767,,-0.458007813,0.0078125,1,0,0,12.1199,0,30,30,123,1,hiervan,images/br_hiervan.png,images/cb_hiervan.png,0,,,,,,,,,,,,,,,,,,,,,,
,,,,,,00070,2023-10-17_21h44.57.149,vbt_B2_day2,2022.2.4,Win32,59.93766483,,,,,,,,,,,,,,,,,,,,,,,,,,,down,0,1.0862,,-0.458007813,0.0078125,1,0,0,1.9686,0,31,31,161,1,attentie,images/br_attentie.png,images/cb_attentie.png,0,,,,,,,,,,,,,,,,,,,,,,
,,,,,,00070,2023-10-17_21h44.57.149,vbt_B2_day2,2022.2.4,Win32,59.93766483,,,,,,,,,,,,,,,,,,,,,,,,,,,down,0,17.0604,,-0.458007813,0.0078125,1,0,0,3.8208,0,32,32,160,1,daarheen,images/br_daarheen.png,images/cb_daarheen.png,0,,,,,,,,,,,,,,,,,,,,,,
,,,,,,00070,2023-10-17_21h44.57.149,vbt_B2_day2,2022.2.4,Win32,59.93766483,,,,,,,,,,,,,,,,,,,,,,,,,,,down,0,8.4968,,-0.458007813,0.0078125,1,0,0,5.5396,0,33,33,141,1,knielen,images/br_knielen.png,images/cb_knielen.png,0,,,,,,,,,,,,,,,,,,,,,,
,,,,,,00070,2023-10-17_21h44.57.149,vbt_B2_day2,2022.2.4,Win32,59.93766483,,,,,,,,,,,,,,,,,,,,,,,,,,,down,0,17.6126,,-0.458007813,0.0078125,1,0,0,19.2216,0,34,34,199,1,beseffen,images/br_beseffen.png,images/cb_beseffen.png,0,,,,,,,,,,,,,,,,,,,,,,
,,,,,,00070,2023-10-17_21h44.57.149,vbt_B2_day2,2022.2.4,Win32,59.93766483,,,,,,,,,,,,,,,,,,,,,,,,,,,down,0,3.0554,,-0.469726563,0.041992188,1,0,0,3.8875,0,35,35,134,1,geliefd,images/br_geliefd.png,images/cb_geliefd.png,0,,,,,,,,,,,,,,,,,,,,,,
,,,,,,00070,2023-10-17_21h44.57.149,vbt_B2_day2,2022.2.4,Win32,59.93766483,,,,,,,,,,,,,,,,,,,,,,,,,,,down,0,28.251,,-0.469726563,0.041992188,1,0,0,4.3215,0,36,36,104,1,zweven,images/br_zweven.png,images/cb_zweven.png,0,,,,,,,,,,,,,,,,,,,,,,
,,,,,,00070,2023-10-17_21h44.57.149,vbt_B2_day2,2022.2.4,Win32,59.93766483,,,,,,,,,,,,,,,,,,,,,,,,,,,down,0,0.6087,,-0.234375,-0.026367188,1,0,0,1.1672,0,37,37,39,1,laag,images/br_laag.png,images/cb_laag.png,0,,,,,,,,,,,,,,,,,,,,,,
,,,,,,00070,2023-10-17_21h44.57.149,vbt_B2_day2,2022.2.4,Win32,59.93766483,,,,,,,,,,,,,,,,,,,,,,,,,,,down,0,20.3656,,-0.099609375,-0.2890625,1,0,0,13.508,0,38,38,16,1,ziek,images/br_ziek.png,images/cb_ziek.png,1,niek,,,,,,,,,,,,,,,,,,,,,
,,,,,,00070,2023-10-17_21h44.57.149,vbt_B2_day2,2022.2.4,Win32,59.93766483,,,,,,,,,,,,,,,,,,,,,,,,,,,down,0,2.3636,,-0.041015625,-0.1171875,1,0,0,0.7008,0,39,39,109,1,totaal,images/br_totaal.png,images/cb_totaal.png,0,,,,,,,,,,,,,,,,,,,,,,
,,,,,,00070,2023-10-17_21h44.57.149,vbt_B2_day2,2022.2.4,Win32,59.93766483,,,,,,,,,,,,,,,,,,,,,,,,,,,down,0,0.2932,,-0.307617188,-0.1328125,1,0,0,2.7857,0,40,40,129,1,verhaal,images/br_verhaal.png,images/cb_verhaal.png,0,,,,,,,,,,,,,,,,,,,,,,
,,,,,,00070,2023-10-17_21h44.57.149,vbt_B2_day2,2022.2.4,Win32,59.93766483,,,,,,,,,,,,,,,,,,,,,,,,,,,down,0,0.7541,,-0.307617188,-0.1328125,1,0,0,2.3021,0,41,41,84,1,lokken,images/br_lokken.png,images/cb_lokken.png,0,,,,,,,,,,,,,,,,,,,,,,
,,,,,,00070,2023-10-17_21h44.57.149,vbt_B2_day2,2022.2.4,Win32,59.93766483,,,,,,,,,,,,,,,,,,,,,,,,,,,down,0,0.6465,,-0.30859375,-0.1328125,1,0,0,8.0579,0,42,42,83,1,mening,images/br_mening.png,images/cb_mening.png,0,,,,,,,,,,,,,,,,,,,,,,
,,,,,,00070,2023-10-17_21h44.57.149,vbt_B2_day2,2022.2.4,Win32,59.93766483,,,,,,,,,,,,,,,,,,,,,,,,,,,down,0,0.4539,,-0.41796875,-0.127929688,1,0,0,2.7531,0,43,43,169,1,oprotten,images/br_oprotten.png,images/cb_oprotten.png,0,,,,,,,,,,,,,,,,,,,,,,
,,,,,,00070,2023-10-17_21h44.57.149,vbt_B2_day2,2022.2.4,Win32,59.93766483,,,,,,,,,,,,,,,,,,,,,,,,,,,down,0,7.5934,,-0.41796875,-0.127929688,1,0,0,4.9051,0,44,44,94,1,oceaan,images/br_oceaan.png,images/cb_oceaan.png,0,,,,,,,,,,,,,,,,,,,,,,
,,,,,,00070,2023-10-17_21h44.57.149,vbt_B2_day2,2022.2.4,Win32,59.93766483,,,,,,,,,,,,,,,,,,,,,,,,,,,down,0,0.6535,,-0.41796875,-0.127929688,1,0,0,3.5371,0,45,45,20,1,site,images/br_site.png,images/cb_site.png,0,,,,,,,,,,,,,,,,,,,,,,
,,,,,,00070,2023-10-17_21h44.57.149,vbt_B2_day2,2022.2.4,Win32,59.93766483,,,,,,,,,,,,,,,,,,,,,,,,,,,down,0,0.7886,,-0.41796875,-0.127929688,1,0,0,5.5061,0,46,46,168,1,bisschop,images/br_bisschop.png,images/cb_bisschop.png,0,,,,,,,,,,,,,,,,,,,,,,
,,,,,,00070,2023-10-17_21h44.57.149,vbt_B2_day2,2022.2.4,Win32,59.93766483,,,,,,,,,,,,,,,,,,,,,,,,,,,down,0,0.2527,,-0.41796875,-0.127929688,1,0,0,1.9187,0,47,47,66,1,lever,images/br_lever.png,images/cb_lever.png,0,,,,,,,,,,,,,,,,,,,,,,
,,,,,,00070,2023-10-17_21h44.57.149,vbt_B2_day2,2022.2.4,Win32,59.93766483,,,,,,,,,,,,,,,,,,,,,,,,,,,down,0,1.2582,,-0.41796875,-0.127929688,1,0,0,1.3849,0,48,48,184,1,aandelen,images/br_aandelen.png,images/cb_aandelen.png,0,,,,,,,,,,,,,,,,,,,,,,
,,,,,,00070,2023-10-17_21h44.57.149,vbt_B2_day2,2022.2.4,Win32,59.93766483,,,,,,,,,,,,,,,,,,,,,,,,,,,down,0,164.0501,,-0.41796875,-0.127929688,1,0,0,2.1526,0,49,49,193,1,weeshuis,images/br_weeshuis.png,images/cb_weeshuis.png,0,,,,,,,,,,,,,,,,,,,,,,
,,,,,,00070,2023-10-17_21h44.57.149,vbt_B2_day2,2022.2.4,Win32,59.93766483,,,,,,,,,,,,,,,,,,,,,,,,,,,down,0,1.4684,,-0.41796875,-0.127929688,1,0,0,1.6357,0,50,50,81,1,dubbel,images/br_dubbel.png,images/cb_dubbel.png,0,,,,,,,,,,,,,,,,,,,,,,
,,,,,,00070,2023-10-17_21h44.57.149,vbt_B2_day2,2022.2.4,Win32,59.93766483,,,,,,,,,,,,,,,,,,,,,,,,,,,down,0,0.5697,,-0.416015625,-0.12890625,1,0,0,3.4203,0,51,51,131,1,opzicht,images/br_opzicht.png,images/cb_opzicht.png,0,,,,,,,,,,,,,,,,,,,,,,
,,,,,,00070,2023-10-17_21h44.57.149,vbt_B2_day2,2022.2.4,Win32,59.93766483,,,,,,,,,,,,,,,,,,,,,,,,,,,down,0,0.6221,,-0.416015625,-0.12890625,1,0,0,1.7018,0,52,52,152,1,afnemen,images/br_afnemen.png,images/cb_afnemen.png,0,,,,,,,,,,,,,,,,,,,,,,
,,,,,,00070,2023-10-17_21h44.57.149,vbt_B2_day2,2022.2.4,Win32,59.93766483,,,,,,,,,,,,,,,,,,,,,,,,,,,down,0,2.9383,,-0.416015625,-0.127929688,1,0,0,1.6852,0,53,53,162,1,uitdelen,images/br_uitdelen.png,images/cb_uitdelen.png,0,,,,,,,,,,,,,,,,,,,,,,
,,,,,,00070,2023-10-17_21h44.57.149,vbt_B2_day2,2022.2.4,Win32,59.93766483,,,,,,,,,,,,,,,,,,,,,,,,,,,down,0,22.7253,,-0.416015625,-0.127929688,1,0,0,12.4472,0,54,54,86,1,woning,images/br_woning.png,images/cb_woning.png,0,,,,,,,,,,,,,,,,,,,,,,
,,,,,,00070,2023-10-17_21h44.57.149,vbt_B2_day2,2022.2.4,Win32,59.93766483,,,,,,,,,,,,,,,,,,,,,,,,,,,down,0,12.3403,,-0.416015625,-0.127929688,1,0,0,12.3638,0,55,55,111,1,ticket,images/br_ticket.png,images/cb_ticket.png,0,,,,,,,,,,,,,,,,,,,,,,
,,,,,,00070,2023-10-17_21h44.57.149,vbt_B2_day2,2022.2.4,Win32,59.93766483,,,,,,,,,,,,,,,,,,,,,,,,,,,down,0,2.3537,,-0.416015625,-0.127929688,1,0,0,3.6207,0,56,56,128,1,prikken,images/br_prikken.png,images/cb_prikken.png,0,,,,,,,,,,,,,,,,,,,,,,
,,,,,,00070,2023-10-17_21h44.57.149,vbt_B2_day2,2022.2.4,Win32,59.93766483,,,,,,,,,,,,,,,,,,,,,,,,,,,down,0,14.4363,,-0.416015625,-0.127929688,1,0,0,8.8267,0,57,57,97,1,loyaal,images/br_loyaal.png,images/cb_loyaal.png,1,lokaal,,,,,,,,,,,,,,,,,,,,,
,,,,,,00070,2023-10-17_21h44.57.149,vbt_B2_day2,2022.2.4,Win32,59.93766483,,,,,,,,,,,,,,,,,,,,,,,,,,,down,0,4.7804,,-0.416015625,-0.127929688,1,0,0,10.8129,0,58,58,30,1,uien,images/br_uien.png,images/cb_uien.png,0,,,,,,,,,,,,,,,,,,,,,,
,,,,,,00070,2023-10-17_21h44.57.149,vbt_B2_day2,2022.2.4,Win32,59.93766483,,,,,,,,,,,,,,,,,,,,,,,,,,,down,0,1.4211,,-0.395507813,-0.084960938,1,0,0,0.6337,0,59,59,37,1,mijn,images/br_mijn.png,images/cb_mijn.png,0,,,,,,,,,,,,,,,,,,,,,,
,,,,,,00070,2023-10-17_21h44.57.149,vbt_B2_day2,2022.2.4,Win32,59.93766483,,,,,,,,,,,,,,,,,,,,,,,,,,,down,0,0.4442,,-0.498046875,-0.095703125,1,0,0,0.4341,0,60,60,186,1,voorraad,images/br_voorraad.png,images/cb_voorraad.png,0,,,,,,,,,,,,,,,,,,,,,,
,,,,,,00070,2023-10-17_21h44.57.149,vbt_B2_day2,2022.2.4,Win32,59.93766483,,,,,,,,,,,,,,,,,,,,,,,,,,,down,0,0.4777,,-0.498046875,-0.095703125,1,0,0,0.6497,0,61,61,79,1,nodig,images/br_nodig.png,images/cb_nodig.png,0,,,,,,,,,,,,,,,,,,,,,,
,,,,,,00070,2023-10-17_21h44.57.149,vbt_B2_day2,2022.2.4,Win32,59.93766483,,,,,,,,,,,,,,,,,,,,,,,,,,,down,0,0.1965,,-0.50390625,-0.099609375,1,0,0,0.5003,0,62,62,191,1,opheffen,images/br_opheffen.png,images/cb_opheffen.png,0,,,,,,,,,,,,,,,,,,,,,,
,,,,,,00070,2023-10-17_21h44.57.149,vbt_B2_day2,2022.2.4,Win32,59.93766483,,,,,,,,,,,,,,,,,,,,,,,,,,,down,0,0.3696,,-0.50390625,-0.099609375,1,0,0,0.6008,0,63,63,70,1,ijdel,images/br_ijdel.png,images/cb_ijdel.png,0,,,,,,,,,,,,,,,,,,,,,,
,,,,,,00070,2023-10-17_21h44.57.149,vbt_B2_day2,2022.2.4,Win32,59.93766483,,,,,,,,,,,,,,,,,,,,,,,,,,,down,0,0.1946,,-0.50390625,-0.099609375,1,0,0,0.9675,0,64,64,27,1,dans,images/br_dans.png,images/cb_dans.png,0,,,,,,,,,,,,,,,,,,,,,,
,,,,,,00070,2023-10-17_21h44.57.149,vbt_B2_day2,2022.2.4,Win32,59.93766483,,,,,,,,,,,,,,,,,,,,,,,,,,,down,0,0.1716,,-0.50390625,-0.099609375,1,0,0,1.4345,0,65,65,42,1,bleek,images/br_bleek.png,images/cb_bleek.png,0,,,,,,,,,,,,,,,,,,,,,,
,,,,,,00070,2023-10-17_21h44.57.149,vbt_B2_day2,2022.2.4,Win32,59.93766483,,,,,,,,,,,,,,,,,,,,,,,,,,,down,0,1.5689,,-0.50390625,-0.099609375,1,0,0,1.3681,0,66,66,140,1,blijven,images/br_blijven.png,images/cb_blijven.png,0,,,,,,,,,,,,,,,,,,,,,,
,,,,,,00070,2023-10-17_21h44.57.149,vbt_B2_day2,2022.2.4,Win32,59.93766483,,,,,,,,,,,,,,,,,,,,,,,,,,,down,0,25.7028,,-0.50390625,-0.099609375,1,0,0,1.9189,0,67,67,59,1,kring,images/br_kring.png,images/cb_kring.png,1,kring,,,,,,,,,,,,,,,,,,,,,
,,,,,,00070,2023-10-17_21h44.57.149,vbt_B2_day2,2022.2.4,Win32,59.93766483,,,,,,,,,,,,,,,,,,,,,,,,,,,down,0,0.5284,,-0.50390625,-0.099609375,1,0,0,0.934,0,68,68,183,1,getuigen,images/br_getuigen.png,images/cb_getuigen.png,0,,,,,,,,,,,,,,,,,,,,,,
,,,,,,00070,2023-10-17_21h44.57.149,vbt_B2_day2,2022.2.4,Win32,59.93766483,,,,,,,,,,,,,,,,,,,,,,,,,,,down,0,1.2302,,-0.50390625,-0.099609375,1,0,0,0.6673,0,69,69,7,1,geld,images/br_geld.png,images/cb_geld.png,0,,,,,,,,,,,,,,,,,,,,,,
,,,,,,00070,2023-10-17_21h44.57.149,vbt_B2_day2,2022.2.4,Win32,59.93766483,,,,,,,,,,,,,,,,,,,,,,,,,,,down,0,0.6523,,-0.514648438,-0.099609375,1,0,0,0.8175,0,70,70,144,1,eetlust,images/br_eetlust.png,images/cb_eetlust.png,0,,,,,,,,,,,,,,,,,,,,,,
,,,,,,00070,2023-10-17_21h44.57.149,vbt_B2_day2,2022.2.4,Win32,59.93766483,,,,,,,,,,,,,,,,,,,,,,,,,,,down,0,0.483,,-0.514648438,-0.099609375,1,0,0,0.484,0,71,71,6,1,diep,images/br_diep.png,images/cb_diep.png,0,,,,,,,,,,,,,,,,,,,,,,
,,,,,,00070,2023-10-17_21h44.57.149,vbt_B2_day2,2022.2.4,Win32,59.93766483,,,,,,,,,,,,,,,,,,,,,,,,,,,down,0,0.3679,,-0.514648438,-0.099609375,1,0,0,0.4841,0,72,72,51,1,samen,images/br_samen.png,images/cb_samen.png,0,,,,,,,,,,,,,,,,,,,,,,
,,,,,,00070,2023-10-17_21h44.57.149,vbt_B2_day2,2022.2.4,Win32,59.93766483,,,,,,,,,,,,,,,,,,,,,,,,,,,down,0,22.3924,,-0.514648438,-0.099609375,1,0,0,1.2347,0,73,73,136,1,waarbij,images/br_waarbij.png,images/cb_waarbij.png,1,waarbij,,,,,,,,,,,,,,,,,,,,,
,,,,,,00070,2023-10-17_21h44.57.149,vbt_B2_day2,2022.2.4,Win32,59.93766483,,,,,,,,,,,,,,,,,,,,,,,,,,,down,0,0.6685,,-0.514648438,-0.099609375,1,0,0,0.8842,0,74,74,103,1,joggen,images/br_joggen.png,images/cb_joggen.png,0,,,,,,,,,,,,,,,,,,,,,,
,,,,,,00070,2023-10-17_21h44.57.149,vbt_B2_day2,2022.2.4,Win32,59.93766483,,,,,,,,,,,,,,,,,,,,,,,,,,,down,0,0.4577,,-0.514648438,-0.099609375,1,0,0,0.5172,0,75,75,5,1,blad,images/br_blad.png,images/cb_blad.png,0,,,,,,,,,,,,,,,,,,,,,,
,,,,,,00070,2023-10-17_21h44.57.149,vbt_B2_day2,2022.2.4,Win32,59.93766483,,,,,,,,,,,,,,,,,,,,,,,,,,,down,0,0.4614,,-0.514648438,-0.099609375,1,0,0,0.6508,0,76,76,124,1,bloeien,images/br_bloeien.png,images/cb_bloeien.png,0,,,,,,,,,,,,,,,,,,,,,,
,,,,,,00070,2023-10-17_21h44.57.149,vbt_B2_day2,2022.2.4,Win32,59.93766483,,,,,,,,,,,,,,,,,,,,,,,,,,,down,0,0.3221,,-0.514648438,-0.099609375,1,0,0,0.4671,0,77,77,4,1,moes,images/br_moes.png,images/cb_moes.png,0,,,,,,,,,,,,,,,,,,,,,,
,,,,,,00070,2023-10-17_21h44.57.149,vbt_B2_day2,2022.2.4,Win32,59.93766483,,,,,,,,,,,,,,,,,,,,,,,,,,,down,0,11.2481,,-0.213867188,-0.288085938,1,0,0,0.5599,0,78,78,138,1,akkoord,images/br_akkoord.png,images/cb_akkoord.png,1,akkoord,,,,,,,,,,,,,,,,,,,,,
,,,,,,00070,2023-10-17_21h44.57.149,vbt_B2_day2,2022.2.4,Win32,59.93766483,,,,,,,,,,,,,,,,,,,,,,,,,,,down,0,19.6005,,-0.499023438,-0.162109375,1,0,0,1.3177,0,79,79,57,1,steek,images/br_steek.png,images/cb_steek.png,1,steek,,,,,,,,,,,,,,,,,,,,,
,,,,,,00070,2023-10-17_21h44.57.149,vbt_B2_day2,2022.2.4,Win32,59.93766483,,,,,,,,,,,,,,,,,,,,,,,,,,,down,0,0.835,,-0.499023438,-0.162109375,1,0,0,0.4838,0,80,80,130,1,keihard,images/br_keihard.png,images/cb_keihard.png,0,,,,,,,,,,,,,,,,,,,,,,
,,,,,,00070,2023-10-17_21h44.57.149,vbt_B2_day2,2022.2.4,Win32,59.93766483,,,,,,,,,,,,,,,,,,,,,,,,,,,down,0,0.3136,,-0.512695313,-0.161132813,1,0,0,0.3661,0,81,81,174,1,stemming,images/br_stemming.png,images/cb_stemming.png,0,,,,,,,,,,,,,,,,,,,,,,
,,,,,,00070,2023-10-17_21h44.57.149,vbt_B2_day2,2022.2.4,Win32,59.93766483,,,,,,,,,,,,,,,,,,,,,,,,,,,down,0,0.4128,,-0.513671875,-0.161132813,1,0,0,0.4675,0,82,82,150,1,gegeven,images/br_gegeven.png,images/cb_gegeven.png,0,,,,,,,,,,,,,,,,,,,,,,
,,,,,,00070,2023-10-17_21h44.57.149,vbt_B2_day2,2022.2.4,Win32,59.93766483,,,,,,,,,,,,,,,,,,,,,,,,,,,down,0,0.0619,,-0.513671875,-0.161132813,1,0,0,0.6504,0,83,83,54,1,gebit,images/br_gebit.png,images/cb_gebit.png,0,,,,,,,,,,,,,,,,,,,,,,
,,,,,,00070,2023-10-17_21h44.57.149,vbt_B2_day2,2022.2.4,Win32,59.93766483,,,,,,,,,,,,,,,,,,,,,,,,,,,down,0,0.2771,,-0.501953125,-0.15625,1,0,0,0.7841,0,84,84,46,1,jagen,images/br_jagen.png,images/cb_jagen.png,0,,,,,,,,,,,,,,,,,,,,,,
,,,,,,00070,2023-10-17_21h44.57.149,vbt_B2_day2,2022.2.4,Win32,59.93766483,,,,,,,,,,,,,,,,,,,,,,,,,,,down,0,0.1194,,-0.501953125,-0.15625,1,0,0,0.467,0,85,85,102,1,legaal,images/br_legaal.png,images/cb_legaal.png,0,,,,,,,,,,,,,,,,,,,,,,
,,,,,,00070,2023-10-17_21h44.57.149,vbt_B2_day2,2022.2.4,Win32,59.93766483,,,,,,,,,,,,,,,,,,,,,,,,,,,down,0,0.3268,,-0.5,-0.155273438,1,0,0,0.7175,0,86,86,91,1,gezond,images/br_gezond.png,images/cb_gezond.png,0,,,,,,,,,,,,,,,,,,,,,,
,,,,,,00070,2023-10-17_21h44.57.149,vbt_B2_day2,2022.2.4,Win32,59.93766483,,,,,,,,,,,,,,,,,,,,,,,,,,,down,0,0.0436,,-0.5,-0.155273438,1,0,0,0.3671,0,87,87,62,1,knaap,images/br_knaap.png,images/cb_knaap.png,0,,,,,,,,,,,,,,,,,,,,,,
,,,,,,00070,2023-10-17_21h44.57.149,vbt_B2_day2,2022.2.4,Win32,59.93766483,,,,,,,,,,,,,,,,,,,,,,,,,,,down,0,0.369,,-0.5,-0.155273438,1,0,0,0.417,0,88,88,117,1,kennis,images/br_kennis.png,images/cb_kennis.png,0,,,,,,,,,,,,,,,,,,,,,,
,,,,,,00070,2023-10-17_21h44.57.149,vbt_B2_day2,2022.2.4,Win32,59.93766483,,,,,,,,,,,,,,,,,,,,,,,,,,,down,0,0.2723,,-0.5,-0.155273438,1,0,0,0.4337,0,89,89,121,1,twijfel,images/br_twijfel.png,images/cb_twijfel.png,0,,,,,,,,,,,,,,,,,,,,,,
,,,,,,00070,2023-10-17_21h44.57.149,vbt_B2_day2,2022.2.4,Win32,59.93766483,,,,,,,,,,,,,,,,,,,,,,,,,,,down,0,0.3024,,-0.5,-0.155273438,1,0,0,0.8678,0,90,90,101,1,staren,images/br_staren.png,images/cb_staren.png,0,,,,,,,,,,,,,,,,,,,,,,
,,,,,,00070,2023-10-17_21h44.57.149,vbt_B2_day2,2022.2.4,Win32,59.93766483,,,,,,,,,,,,,,,,,,,,,,,,,,,down,0,0.5063,,-0.5,-0.155273438,1,0,0,0.4169,0,91,91,157,1,uitlaat,images/br_uitlaat.png,images/cb_uitlaat.png,0,,,,,,,,,,,,,,,,,,,,,,
,,,,,,00070,2023-10-17_21h44.57.149,vbt_B2_day2,2022.2.4,Win32,59.93766483,,,,,,,,,,,,,,,,,,,,,,,,,,,down,0,0.2173,,-0.5,-0.155273438,1,0,0,0.6014,0,92,92,12,1,kust,images/br_kust.png,images/cb_kust.png,0,,,,,,,,,,,,,,,,,,,,,,
,,,,,,00070,2023-10-17_21h44.57.149,vbt_B2_day2,2022.2.4,Win32,59.93766483,,,,,,,,,,,,,,,,,,,,,,,,,,,down,0,0.5852,,-0.49609375,-0.155273438,1,0,0,0.6005,0,93,93,126,1,kasteel,images/br_kasteel.png,images/cb_kasteel.png,0,,,,,,,,,,,,,,,,,,,,,,
,,,,,,00070,2023-10-17_21h44.57.149,vbt_B2_day2,2022.2.4,Win32,59.93766483,,,,,,,,,,,,,,,,,,,,,,,,,,,down,0,0.5373,,-0.49609375,-0.155273438,1,0,0,0.5338,0,94,94,196,1,nakijken,images/br_nakijken.png,images/cb_nakijken.png,0,,,,,,,,,,,,,,,,,,,,,,
,,,,,,00070,2023-10-17_21h44.57.149,vbt_B2_day2,2022.2.4,Win32,59.93766483,,,,,,,,,,,,,,,,,,,,,,,,,,,down,0,0.4755,,-0.482421875,-0.161132813,1,0,0,0.7678,0,95,95,43,1,klauw,images/br_klauw.png,images/cb_klauw.png,0,,,,,,,,,,,,,,,,,,,,,,
,,,,,,00070,2023-10-17_21h44.57.149,vbt_B2_day2,2022.2.4,Win32,59.93766483,,,,,,,,,,,,,,,,,,,,,,,,,,,down,0,20.6754,,-0.462890625,-0.130859375,1,0,0,8.2088,0,96,96,120,1,klimmen,images/br_klimmen.png,images/cb_klimmen.png,0,,,,,,,,,,,,,,,,,,,,,,
,,,,,,00070,2023-10-17_21h44.57.149,vbt_B2_day2,2022.2.4,Win32,59.93766483,,,,,,,,,,,,,,,,,,,,,,,,,,,down,0,25.8609,,-0.462890625,-0.130859375,1,0,0,0.5507,0,97,97,0,1,slak,images/br_slak.png,images/cb_slak.png,0,,,,,,,,,,,,,,,,,,,,,,
,,,,,,00070,2023-10-17_21h44.57.149,vbt_B2_day2,2022.2.4,Win32,59.93766483,,,,,,,,,,,,,,,,,,,,,,,,,,,down,0,1.0429,,-0.462890625,-0.130859375,1,0,0,0.4674,0,98,98,156,1,rechten,images/br_rechten.png,images/cb_rechten.png,0,,,,,,,,,,,,,,,,,,,,,,
,,,,,,00070,2023-10-17_21h44.57.149,vbt_B2_day2,2022.2.4,Win32,59.93766483,,,,,,,,,,,,,,,,,,,,,,,,,,,down,0,5.6281,,-0.462890625,-0.130859375,1,0,0,0.6172,0,99,99,198,1,bedoelen,images/br_bedoelen.png,images/cb_bedoelen.png,0,,,,,,,,,,,,,,,,,,,,,,
,,,,,,00070,2023-10-17_21h44.57.149,vbt_B2_day2,2022.2.4,Win32,59.93766483,,,,,,,,,,,,,,,,,,,,,,,,,,,down,0,0.4431,,-0.462890625,-0.130859375,1,0,0,0.567,0,100,100,108,1,excuus,images/br_excuus.png,images/cb_excuus.png,0,,,,,,,,,,,,,,,,,,,,,,
,,,,,,00070,2023-10-17_21h44.57.149,vbt_B2_day2,2022.2.4,Win32,59.93766483,,,,,,,,,,,,,,,,,,,,,,,,,,,down,0,0.7039,,-0.462890625,-0.130859375,1,0,0,0.4336,0,101,101,122,1,waarvan,images/br_waarvan.png,images/cb_waarvan.png,0,,,,,,,,,,,,,,,,,,,,,,
,,,,,,00070,2023-10-17_21h44.57.149,vbt_B2_day2,2022.2.4,Win32,59.93766483,,,,,,,,,,,,,,,,,,,,,,,,,,,down,0,0.3857,,-0.462890625,-0.130859375,1,0,0,0.5003,0,102,102,89,1,slapen,images/br_slapen.png,images/cb_slapen.png,0,,,,,,,,,,,,,,,,,,,,,,
,,,,,,00070,2023-10-17_21h44.57.149,vbt_B2_day2,2022.2.4,Win32,59.93766483,,,,,,,,,,,,,,,,,,,,,,,,,,,down,0,0.128,,-0.462890625,-0.130859375,1,0,0,0.3669,0,103,103,159,1,sufferd,images/br_sufferd.png,images/cb_sufferd.png,0,,,,,,,,,,,,,,,,,,,,,,
,,,,,,00070,2023-10-17_21h44.57.149,vbt_B2_day2,2022.2.4,Win32,59.93766483,,,,,,,,,,,,,,,,,,,,,,,,,,,down,0,0.1255,,-0.462890625,-0.130859375,1,0,0,0.5172,0,104,104,52,1,wagon,images/br_wagon.png,images/cb_wagon.png,0,,,,,,,,,,,,,,,,,,,,,,
,,,,,,00070,2023-10-17_21h44.57.149,vbt_B2_day2,2022.2.4,Win32,59.93766483,,,,,,,,,,,,,,,,,,,,,,,,,,,down,0,0.3512,,-0.462890625,-0.130859375,1,0,0,0.567,0,105,105,127,1,doodmoe,images/br_doodmoe.png,images/cb_doodmoe.png,0,,,,,,,,,,,,,,,,,,,,,,
,,,,,,00070,2023-10-17_21h44.57.149,vbt_B2_day2,2022.2.4,Win32,59.93766483,,,,,,,,,,,,,,,,,,,,,,,,,,,down,0,0.4042,,-0.462890625,-0.130859375,1,0,0,0.7003,0,106,106,180,1,openbaar,images/br_openbaar.png,images/cb_openbaar.png,0,,,,,,,,,,,,,,,,,,,,,,
,,,,,,00070,2023-10-17_21h44.57.149,vbt_B2_day2,2022.2.4,Win32,59.93766483,,,,,,,,,,,,,,,,,,,,,,,,,,,down,0,0.5159,,-0.462890625,-0.130859375,1,0,0,0.7507,0,107,107,76,1,afval,images/br_afval.png,images/cb_afval.png,0,,,,,,,,,,,,,,,,,,,,,,
,,,,,,00070,2023-10-17_21h44.57.149,vbt_B2_day2,2022.2.4,Win32,59.93766483,,,,,,,,,,,,,,,,,,,,,,,,,,,down,0,0.1945,,-0.462890625,-0.130859375,1,0,0,1.0515,0,108,108,187,1,opkijken,images/br_opkijken.png,images/cb_opkijken.png,0,,,,,,,,,,,,,,,,,,,,,,
,,,,,,00070,2023-10-17_21h44.57.149,vbt_B2_day2,2022.2.4,Win32,59.93766483,,,,,,,,,,,,,,,,,,,,,,,,,,,down,0,6.8976,,-0.462890625,-0.130859375,1,0,0,2.7029,0,109,109,19,1,geit,images/br_geit.png,images/cb_geit.png,1,giet,,,,,,,,,,,,,,,,,,,,,
,,,,,,00070,2023-10-17_21h44.57.149,vbt_B2_day2,2022.2.4,Win32,59.93766483,,,,,,,,,,,,,,,,,,,,,,,,,,,down,0,0.8875,,-0.490234375,-0.08984375,1,0,0,2.9367,0,110,110,116,1,besmet,images/br_besmet.png,images/cb_besmet.png,0,,,,,,,,,,,,,,,,,,,,,,
,,,,,,00070,2023-10-17_21h44.57.149,vbt_B2_day2,2022.2.4,Win32,59.93766483,,,,,,,,,,,,,,,,,,,,,,,,,,,down,0,1.9886,,-0.490234375,-0.08984375,1,0,0,1.3515,0,111,111,92,1,geheim,images/br_geheim.png,images/cb_geheim.png,0,,,,,,,,,,,,,,,,,,,,,,
,,,,,,00070,2023-10-17_21h44.57.149,vbt_B2_day2,2022.2.4,Win32,59.93766483,,,,,,,,,,,,,,,,,,,,,,,,,,,down,0,0.4699,,-0.490234375,-0.08984375,1,0,0,0.4838,0,112,112,49,1,laken,images/br_laken.png,images/cb_laken.png,0,,,,,,,,,,,,,,,,,,,,,,
,,,,,,00070,2023-10-17_21h44.57.149,vbt_B2_day2,2022.2.4,Win32,59.93766483,,,,,,,,,,,,,,,,,,,,,,,,,,,down,0,0.622,,-0.490234375,-0.08984375,1,0,0,0.5673,0,113,113,47,1,kabel,images/br_kabel.png,images/cb_kabel.png,0,,,,,,,,,,,,,,,,,,,,,,
,,,,,,00070,2023-10-17_21h44.57.149,vbt_B2_day2,2022.2.4,Win32,59.93766483,,,,,,,,,,,,,,,,,,,,,,,,,,,down,0,0.3401,,-0.490234375,-0.08984375,1,0,0,0.3169,0,114,114,23,1,zout,images/br_zout.png,images/cb_zout.png,0,,,,,,,,,,,,,,,,,,,,,,
,,,,,,00070,2023-10-17_21h44.57.149,vbt_B2_day2,2022.2.4,Win32,59.93766483,,,,,,,,,,,,,,,,,,,,,,,,,,,down,0,0.436,,-0.490234375,-0.08984375,1,0,0,0.5671,0,115,115,34,1,vorm,images/br_vorm.png,images/cb_vorm.png,0,,,,,,,,,,,,,,,,,,,,,,
,,,,,,00070,2023-10-17_21h44.57.149,vbt_B2_day2,2022.2.4,Win32,59.93766483,,,,,,,,,,,,,,,,,,,,,,,,,,,down,0,0.2013,,-0.490234375,-0.08984375,1,0,0,0.367,0,116,116,147,1,komisch,images/br_komisch.png,images/cb_komisch.png,0,,,,,,,,,,,,,,,,,,,,,,
,,,,,,00070,2023-10-17_21h44.57.149,vbt_B2_day2,2022.2.4,Win32,59.93766483,,,,,,,,,,,,,,,,,,,,,,,,,,,down,0,0.6906,,-0.490234375,-0.08984375,1,0,0,0.6343,0,117,117,181,1,toegeven,images/br_toegeven.png,images/cb_toegeven.png,0,,,,,,,,,,,,,,,,,,,,,,
,,,,,,00070,2023-10-17_21h44.57.149,vbt_B2_day2,2022.2.4,Win32,59.93766483,,,,,,,,,,,,,,,,,,,,,,,,,,,down,0,8.029,,0.43359375,0.067382813,1,0,0,1.6869,0,118,118,99,1,koffie,images/br_koffie.png,images/cb_koffie.png,1,koffie,,,,,,,,,,,,,,,,,,,,,
,,,,,,00070,2023-10-17_21h44.57.149,vbt_B2_day2,2022.2.4,Win32,59.93766483,,,,,,,,,,,,,,,,,,,,,,,,,,,down,0,0.0639,,0.37890625,0.041015625,1,0,0,0.8161,0,119,119,13,1,kaal,images/br_kaal.png,images/cb_kaal.png,0,,,,,,,,,,,,,,,,,,,,,,
,,,,,,00070,2023-10-17_21h44.57.149,vbt_B2_day2,2022.2.4,Win32,59.93766483,,,,,,,,,,,,,,,,,,,,,,,,,,,down,0,23.1466,,-0.024414063,-0.260742188,1,0,0,2.1362,0,120,120,137,1,trekker,images/br_trekker.png,images/cb_trekker.png,1,trekker,,,,,,,,,,,,,,,,,,,,,
,,,,,,00070,2023-10-17_21h44.57.149,vbt_B2_day2,2022.2.4,Win32,59.93766483,,,,,,,,,,,,,,,,,,,,,,,,,,,down,0,0.2012,,0.002929688,-0.022460938,1,0,0,1.2178,0,121,121,73,1,volop,images/br_volop.png,images/cb_volop.png,0,,,,,,,,,,,,,,,,,,,,,,
,,,,,,00070,2023-10-17_21h44.57.149,vbt_B2_day2,2022.2.4,Win32,59.93766483,,,,,,,,,,,,,,,,,,,,,,,,,,,down,0,0.7345,,0.231445313,-0.079101563,1,0,0,0.4842,0,122,122,69,1,waken,images/br_waken.png,images/cb_waken.png,0,,,,,,,,,,,,,,,,,,,,,,
,,,,,,00070,2023-10-17_21h44.57.149,vbt_B2_day2,2022.2.4,Win32,59.93766483,,,,,,,,,,,,,,,,,,,,,,,,,,,down,0,1.5754,,0.231445313,-0.079101563,1,0,0,1.4347,0,123,123,25,1,plek,images/br_plek.png,images/cb_plek.png,0,,,,,,,,,,,,,,,,,,,,,,
,,,,,,00070,2023-10-17_21h44.57.149,vbt_B2_day2,2022.2.4,Win32,59.93766483,,,,,,,,,,,,,,,,,,,,,,,,,,,down,0,9.3841,,0.533203125,-0.008789063,1,0,0,1.969,0,124,124,177,1,maaltijd,images/br_maaltijd.png,images/cb_maaltijd.png,1,maaltijd,,,,,,,,,,,,,,,,,,,,,
,,,,,,00070,2023-10-17_21h44.57.149,vbt_B2_day2,2022.2.4,Win32,59.93766483,,,,,,,,,,,,,,,,,,,,,,,,,,,down,0,37.5661,,0.533203125,-0.008789063,1,0,0,26.2125,0,125,125,178,1,huisdier,images/br_huisdier.png,images/cb_huisdier.png,1,misqsdf,,,,,,,,,,,,,,,,,,,,,
,,,,,,00070,2023-10-17_21h44.57.149,vbt_B2_day2,2022.2.4,Win32,59.93766483,,,,,,,,,,,,,,,,,,,,,,,,,,,down,0,0.6345,,0.533203125,-0.008789063,1,0,0,1.6348,0,126,126,82,1,muziek,images/br_muziek.png,images/cb_muziek.png,0,,,,,,,,,,,,,,,,,,,,,,
,,,,,,00070,2023-10-17_21h44.57.149,vbt_B2_day2,2022.2.4,Win32,59.93766483,,,,,,,,,,,,,,,,,,,,,,,,,,,down,0,0.2346,,0.451171875,-0.008789063,1,0,0,1.2848,0,127,127,153,1,vervoer,images/br_vervoer.png,images/cb_vervoer.png,0,,,,,,,,,,,,,,,,,,,,,,
,,,,,,00070,2023-10-17_21h44.57.149,vbt_B2_day2,2022.2.4,Win32,59.93766483,,,,,,,,,,,,,,,,,,,,,,,,,,,down,0,0.2899,,0.451171875,-0.008789063,1,0,0,1.0342,0,128,128,45,1,piste,images/br_piste.png,images/cb_piste.png,0,,,,,,,,,,,,,,,,,,,,,,
,,,,,,00070,2023-10-17_21h44.57.149,vbt_B2_day2,2022.2.4,Win32,59.93766483,,,,,,,,,,,,,,,,,,,,,,,,,,,down,0,0.4186,,0.451171875,-0.008789063,1,0,0,1.0681,0,129,129,93,1,waarop,images/br_waarop.png,images/cb_waarop.png,0,,,,,,,,,,,,,,,,,,,,,,
,,,,,,00070,2023-10-17_21h44.57.149,vbt_B2_day2,2022.2.4,Win32,59.93766483,,,,,,,,,,,,,,,,,,,,,,,,,,,down,0,303.31,,-0.38671875,-0.151367188,1,0,0,0.6004,0,130,130,158,1,innemen,images/br_innemen.png,images/cb_innemen.png,0,,,,,,,,,,,,,,,,,,,,,,
,,,,,,00070,2023-10-17_21h44.57.149,vbt_B2_day2,2022.2.4,Win32,59.93766483,,,,,,,,,,,,,,,,,,,,,,,,,,,down,0,0.608,,-0.379882813,-0.147460938,1,0,0,0.501,0,131,131,166,1,strikken,images/br_strikken.png,images/cb_strikken.png,0,,,,,,,,,,,,,,,,,,,,,,
,,,,,,00070,2023-10-17_21h44.57.149,vbt_B2_day2,2022.2.4,Win32,59.93766483,,,,,,,,,,,,,,,,,,,,,,,,,,,down,0,0.5806,,-0.379882813,-0.147460938,1,0,0,0.4338,0,132,132,44,1,flits,images/br_flits.png,images/cb_flits.png,0,,,,,,,,,,,,,,,,,,,,,,
,,,,,,00070,2023-10-17_21h44.57.149,vbt_B2_day2,2022.2.4,Win32,59.93766483,,,,,,,,,,,,,,,,,,,,,,,,,,,down,0,0.536,,-0.379882813,-0.147460938,1,0,0,0.634,0,133,133,171,1,aarzelen,images/br_aarzelen.png,images/cb_aarzelen.png,0,,,,,,,,,,,,,,,,,,,,,,
,,,,,,00070,2023-10-17_21h44.57.149,vbt_B2_day2,2022.2.4,Win32,59.93766483,,,,,,,,,,,,,,,,,,,,,,,,,,,down,0,0.0894,,-0.379882813,-0.147460938,1,0,0,0.4669,0,134,134,185,1,mijnheer,images/br_mijnheer.png,images/cb_mijnheer.png,0,,,,,,,,,,,,,,,,,,,,,,
,,,,,,00070,2023-10-17_21h44.57.149,vbt_B2_day2,2022.2.4,Win32,59.93766483,,,,,,,,,,,,,,,,,,,,,,,,,,,down,0,0.1866,,-0.379882813,-0.147460938,1,0,0,0.6037,0,135,135,31,1,poes,images/br_poes.png,images/cb_poes.png,0,,,,,,,,,,,,,,,,,,,,,,
,,,,,,00070,2023-10-17_21h44.57.149,vbt_B2_day2,2022.2.4,Win32,59.93766483,,,,,,,,,,,,,,,,,,,,,,,,,,,down,0,0.4951,,-0.379882813,-0.147460938,1,0,0,0.5004,0,136,136,148,1,smullen,images/br_smullen.png,images/cb_smullen.png,0,,,,,,,,,,,,,,,,,,,,,,
,,,,,,00070,2023-10-17_21h44.57.149,vbt_B2_day2,2022.2.4,Win32,59.93766483,,,,,,,,,,,,,,,,,,,,,,,,,,,down,0,0.4176,,-0.379882813,-0.147460938,1,0,0,0.4344,0,137,137,26,1,leuk,images/br_leuk.png,images/cb_leuk.png,0,,,,,,,,,,,,,,,,,,,,,,
,,,,,,00070,2023-10-17_21h44.57.149,vbt_B2_day2,2022.2.4,Win32,59.93766483,,,,,,,,,,,,,,,,,,,,,,,,,,,down,0,0.2263,,-0.379882813,-0.147460938,1,0,0,0.4009,0,138,138,36,1,vuur,images/br_vuur.png,images/cb_vuur.png,0,,,,,,,,,,,,,,,,,,,,,,
,,,,,,00070,2023-10-17_21h44.57.149,vbt_B2_day2,2022.2.4,Win32,59.93766483,,,,,,,,,,,,,,,,,,,,,,,,,,,down,0,3.5192,,-0.379882813,-0.147460938,1,0,0,4.4729,0,139,139,33,1,vlek,images/br_vlek.png,images/cb_vlek.png,0,,,,,,,,,,,,,,,,,,,,,,
,,,,,,00070,2023-10-17_21h44.57.149,vbt_B2_day2,2022.2.4,Win32,59.93766483,,,,,,,,,,,,,,,,,,,,,,,,,,,down,0,13.2822,,-0.514648438,-0.098632813,1,0,0,12.5973,0,140,140,149,1,redding,images/br_redding.png,images/cb_redding.png,0,,,,,,,,,,,,,,,,,,,,,,
,,,,,,00070,2023-10-17_21h44.57.149,vbt_B2_day2,2022.2.4,Win32,59.93766483,,,,,,,,,,,,,,,,,,,,,,,,,,,down,0,10.3957,,-0.508789063,-0.096679688,1,0,0,10.5286,0,141,141,114,1,vullen,images/br_vullen.png,images/cb_vullen.png,0,,,,,,,,,,,,,,,,,,,,,,
,,,,,,00070,2023-10-17_21h44.57.149,vbt_B2_day2,2022.2.4,Win32,59.93766483,,,,,,,,,,,,,,,,,,,,,,,,,,,down,0,10.2048,,-0.508789063,-0.096679688,1,0,0,0.7339,0,142,142,65,1,parel,images/br_parel.png,images/cb_parel.png,0,,,,,,,,,,,,,,,,,,,,,,
,,,,,,00070,2023-10-17_21h44.57.149,vbt_B2_day2,2022.2.4,Win32,59.93766483,,,,,,,,,,,,,,,,,,,,,,,,,,,down,0,0.6547,,-0.508789063,-0.096679688,1,0,0,0.7174,0,143,143,28,1,stal,images/br_stal.png,images/cb_stal.png,0,,,,,,,,,,,,,,,,,,,,,,
,,,,,,00070,2023-10-17_21h44.57.149,vbt_B2_day2,2022.2.4,Win32,59.93766483,,,,,,,,,,,,,,,,,,,,,,,,,,,down,0,0.5408,,-0.508789063,-0.09765625,1,0,0,0.7672,0,144,144,112,1,lukken,images/br_lukken.png,images/cb_lukken.png,0,,,,,,,,,,,,,,,,,,,,,,
,,,,,,00070,2023-10-17_21h44.57.149,vbt_B2_day2,2022.2.4,Win32,59.93766483,,,,,,,,,,,,,,,,,,,,,,,,,,,down,0,0.1804,,-0.51171875,-0.096679688,1,0,0,0.5499,0,145,145,145,1,invloed,images/br_invloed.png,images/cb_invloed.png,0,,,,,,,,,,,,,,,,,,,,,,
,,,,,,00070,2023-10-17_21h44.57.149,vbt_B2_day2,2022.2.4,Win32,59.93766483,,,,,,,,,,,,,,,,,,,,,,,,,,,down,0,0.7249,,-0.51171875,-0.096679688,1,0,0,0.6016,0,146,146,175,1,heengaan,images/br_heengaan.png,images/cb_heengaan.png,0,,,,,,,,,,,,,,,,,,,,,,
,,,,,,00070,2023-10-17_21h44.57.149,vbt_B2_day2,2022.2.4,Win32,59.93766483,,,,,,,,,,,,,,,,,,,,,,,,,,,down,0,0.4683,,-0.51171875,-0.096679688,1,0,0,0.4337,0,147,147,188,1,strekken,images/br_strekken.png,images/cb_strekken.png,0,,,,,,,,,,,,,,,,,,,,,,
,,,,,,00070,2023-10-17_21h44.57.149,vbt_B2_day2,2022.2.4,Win32,59.93766483,,,,,,,,,,,,,,,,,,,,,,,,,,,down,0,0.5517,,-0.51171875,-0.096679688,1,0,0,0.3166,0,148,148,135,1,gedicht,images/br_gedicht.png,images/cb_gedicht.png,0,,,,,,,,,,,,,,,,,,,,,,
,,,,,,00070,2023-10-17_21h44.57.149,vbt_B2_day2,2022.2.4,Win32,59.93766483,,,,,,,,,,,,,,,,,,,,,,,,,,,down,0,0.4075,,-0.522460938,-0.102539063,1,0,0,0.5348,0,149,149,11,1,mode,images/br_mode.png,images/cb_mode.png,0,,,,,,,,,,,,,,,,,,,,,,
,,,,,,00070,2023-10-17_21h44.57.149,vbt_B2_day2,2022.2.4,Win32,59.93766483,,,,,,,,,,,,,,,,,,,,,,,,,,,down,0,1.0023,,-0.522460938,-0.102539063,1,0,0,0.8843,0,150,150,61,1,groen,images/br_groen.png,images/cb_groen.png,0,,,,,,,,,,,,,,,,,,,,,,
,,,,,,00070,2023-10-17_21h44.57.149,vbt_B2_day2,2022.2.4,Win32,59.93766483,,,,,,,,,,,,,,,,,,,,,,,,,,,down,0,7.5667,,-0.522460938,-0.102539063,1,0,0,7.2077,0,151,151,125,1,aanzien,images/br_aanzien.png,images/cb_aanzien.png,0,,,,,,,,,,,,,,,,,,,,,,
,,,,,,00070,2023-10-17_21h44.57.149,vbt_B2_day2,2022.2.4,Win32,59.93766483,,,,,,,,,,,,,,,,,,,,,,,,,,,down,0,0.8684,,-0.522460938,-0.102539063,1,0,0,0.9174,0,152,152,197,1,spanning,images/br_spanning.png,images/cb_spanning.png,0,,,,,,,,,,,,,,,,,,,,,,
,,,,,,00070,2023-10-17_21h44.57.149,vbt_B2_day2,2022.2.4,Win32,59.93766483,,,,,,,,,,,,,,,,,,,,,,,,,,,down,0,12.922,,-0.310546875,-0.145507813,1,0,0,0.9179,0,153,153,96,1,slagen,images/br_slagen.png,images/cb_slagen.png,1,slagen,,,,,,,,,,,,,,,,,,,,,
,,,,,,00070,2023-10-17_21h44.57.149,vbt_B2_day2,2022.2.4,Win32,59.93766483,,,,,,,,,,,,,,,,,,,,,,,,,,,down,0,4.2609,,-0.303710938,-0.163085938,1,0,0,0.6168,0,154,154,194,1,driemaal,images/br_driemaal.png,images/cb_driemaal.png,0,,,,,,,,,,,,,,,,,,,,,,
,,,,,,00070,2023-10-17_21h44.57.149,vbt_B2_day2,2022.2.4,Win32,59.93766483,,,,,,,,,,,,,,,,,,,,,,,,,,,down,0,11.0513,,-0.435546875,-0.063476563,1,0,0,0.4509,0,155,155,56,1,traag,images/br_traag.png,images/cb_traag.png,1,traag,,,,,,,,,,,,,,,,,,,,,
,,,,,,00070,2023-10-17_21h44.57.149,vbt_B2_day2,2022.2.4,Win32,59.93766483,,,,,,,,,,,,,,,,,,,,,,,,,,,down,0,0.323,,-0.42578125,-0.079101563,1,0,0,0.5005,0,156,156,2,1,jaar,images/br_jaar.png,images/cb_jaar.png,0,,,,,,,,,,,,,,,,,,,,,,
,,,,,,00070,2023-10-17_21h44.57.149,vbt_B2_day2,2022.2.4,Win32,59.93766483,,,,,,,,,,,,,,,,,,,,,,,,,,,down,0,0.4732,,-0.42578125,-0.079101563,1,0,0,0.3666,0,157,157,60,1,jasje,images/br_jasje.png,images/cb_jasje.png,0,,,,,,,,,,,,,,,,,,,,,,
,,,,,,00070,2023-10-17_21h44.57.149,vbt_B2_day2,2022.2.4,Win32,59.93766483,,,,,,,,,,,,,,,,,,,,,,,,,,,down,0,0.4607,,-0.42578125,-0.079101563,1,0,0,0.5177,0,158,158,55,1,praat,images/br_praat.png,images/cb_praat.png,0,,,,,,,,,,,,,,,,,,,,,,
,,,,,,00070,2023-10-17_21h44.57.149,vbt_B2_day2,2022.2.4,Win32,59.93766483,,,,,,,,,,,,,,,,,,,,,,,,,,,down,0,19.8065,,-0.110351563,-0.229492188,1,0,0,1.2681,0,159,159,176,1,techniek,images/br_techniek.png,images/cb_techniek.png,1,techniek,,,,,,,,,,,,,,,,,,,,,
,,,,,,00070,2023-10-17_21h44.57.149,vbt_B2_day2,2022.2.4,Win32,59.93766483,,,,,,,,,,,,,,,,,,,,,,,,,,,down,0,0.2785,,-0.056640625,-0.098632813,1,0,0,0.7174,0,160,160,14,1,rijp,images/br_rijp.png,images/cb_rijp.png,0,,,,,,,,,,,,,,,,,,,,,,
,,,,,,00070,2023-10-17_21h44.57.149,vbt_B2_day2,2022.2.4,Win32,59.93766483,,,,,,,,,,,,,,,,,,,,,,,,,,,down,0,0.6189,,-0.056640625,-0.092773438,1,0,0,0.5008,0,161,161,38,1,baai,images/br_baai.png,images/cb_baai.png,0,,,,,,,,,,,,,,,,,,,,,,
,,,,,,00070,2023-10-17_21h44.57.149,vbt_B2_day2,2022.2.4,Win32,59.93766483,,,,,,,,,,,,,,,,,,,,,,,,,,,down,0,0.003,,-0.056640625,-0.092773438,1,0,0,0.6848,0,162,162,165,1,feestdag,images/br_feestdag.png,images/cb_feestdag.png,0,,,,,,,,,,,,,,,,,,,,,,
,,,,,,00070,2023-10-17_21h44.57.149,vbt_B2_day2,2022.2.4,Win32,59.93766483,,,,,,,,,,,,,,,,,,,,,,,,,,,down,0,0.885,,-0.056640625,-0.092773438,1,0,0,0.9676,0,163,163,88,1,boeien,images/br_boeien.png,images/cb_boeien.png,0,,,,,,,,,,,,,,,,,,,,,,
,,,,,,00070,2023-10-17_21h44.57.149,vbt_B2_day2,2022.2.4,Win32,59.93766483,,,,,,,,,,,,,,,,,,,,,,,,,,,down,0,2.6533,,-0.056640625,-0.092773438,1,0,0,2.8209,0,164,164,100,1,geduld,images/br_geduld.png,images/cb_geduld.png,0,,,,,,,,,,,,,,,,,,,,,,
,,,,,,00070,2023-10-17_21h44.57.149,vbt_B2_day2,2022.2.4,Win32,59.93766483,,,,,,,,,,,,,,,,,,,,,,,,,,,down,0,0.2915,,-0.056640625,-0.092773438,1,0,0,0.5171,0,165,165,142,1,snuiven,images/br_snuiven.png,images/cb_snuiven.png,0,,,,,,,,,,,,,,,,,,,,,,
,,,,,,00070,2023-10-17_21h44.57.149,vbt_B2_day2,2022.2.4,Win32,59.93766483,,,,,,,,,,,,,,,,,,,,,,,,,,,down,0,0.768,,-0.056640625,-0.092773438,1,0,0,0.9009,0,166,166,3,1,mand,images/br_mand.png,images/cb_mand.png,0,,,,,,,,,,,,,,,,,,,,,,
,,,,,,00070,2023-10-17_21h44.57.149,vbt_B2_day2,2022.2.4,Win32,59.93766483,,,,,,,,,,,,,,,,,,,,,,,,,,,down,0,0.4888,,-0.056640625,-0.092773438,1,0,0,0.4006,0,167,167,21,1,mist,images/br_mist.png,images/cb_mist.png,0,,,,,,,,,,,,,,,,,,,,,,
,,,,,,00070,2023-10-17_21h44.57.149,vbt_B2_day2,2022.2.4,Win32,59.93766483,,,,,,,,,,,,,,,,,,,,,,,,,,,down,0,0.5274,,-0.056640625,-0.092773438,1,0,0,0.7842,0,168,168,164,1,anarchie,images/br_anarchie.png,images/cb_anarchie.png,0,,,,,,,,,,,,,,,,,,,,,,
,,,,,,00070,2023-10-17_21h44.57.149,vbt_B2_day2,2022.2.4,Win32,59.93766483,,,,,,,,,,,,,,,,,,,,,,,,,,,down,0,22.2618,,-0.056640625,-0.092773438,1,0,0,0.5337,0,169,169,58,1,tekst,images/br_tekst.png,images/cb_tekst.png,1,tekst,,,,,,,,,,,,,,,,,,,,,
,,,,,,00070,2023-10-17_21h44.57.149,vbt_B2_day2,2022.2.4,Win32,59.93766483,,,,,,,,,,,,,,,,,,,,,,,,,,,down,0,0.5314,,-0.072265625,-0.092773438,1,0,0,1.6684,0,170,170,32,1,palm,images/br_palm.png,images/cb_palm.png,0,,,,,,,,,,,,,,,,,,,,,,
,,,,,,00070,2023-10-17_21h44.57.149,vbt_B2_day2,2022.2.4,Win32,59.93766483,,,,,,,,,,,,,,,,,,,,,,,,,,,down,0,0.6893,,-0.25,-0.080078125,1,0,0,0.9674,0,171,171,68,1,schat,images/br_schat.png,images/cb_schat.png,0,,,,,,,,,,,,,,,,,,,,,,
,,,,,,00070,2023-10-17_21h44.57.149,vbt_B2_day2,2022.2.4,Win32,59.93766483,,,,,,,,,,,,,,,,,,,,,,,,,,,down,0,0.5289,,-0.356445313,-0.145507813,1,0,0,0.5176,0,172,172,64,1,wegen,images/br_wegen.png,images/cb_wegen.png,0,,,,,,,,,,,,,,,,,,,,,,
,,,,,,00070,2023-10-17_21h44.57.149,vbt_B2_day2,2022.2.4,Win32,59.93766483,,,,,,,,,,,,,,,,,,,,,,,,,,,down,0,2.0586,,-0.356445313,-0.145507813,1,0,0,2.0521,0,173,173,133,1,seizoen,images/br_seizoen.png,images/cb_seizoen.png,0,,,,,,,,,,,,,,,,,,,,,,
,,,,,,00070,2023-10-17_21h44.57.149,vbt_B2_day2,2022.2.4,Win32,59.93766483,,,,,,,,,,,,,,,,,,,,,,,,,,,down,0,0.8974,,-0.356445313,-0.145507813,1,0,0,0.8007,0,174,174,22,1,stof,images/br_stof.png,images/cb_stof.png,0,,,,,,,,,,,,,,,,,,,,,,
,,,,,,00070,2023-10-17_21h44.57.149,vbt_B2_day2,2022.2.4,Win32,59.93766483,,,,,,,,,,,,,,,,,,,,,,,,,,,down,0,0.3265,,-0.356445313,-0.145507813,1,0,0,0.5003,0,175,175,170,1,schatten,images/br_schatten.png,images/cb_schatten.png,0,,,,,,,,,,,,,,,,,,,,,,
,,,,,,00070,2023-10-17_21h44.57.149,vbt_B2_day2,2022.2.4,Win32,59.93766483,,,,,,,,,,,,,,,,,,,,,,,,,,,down,0,0.3884,,-0.356445313,-0.145507813,1,0,0,0.484,0,176,176,110,1,zuster,images/br_zuster.png,images/cb_zuster.png,0,,,,,,,,,,,,,,,,,,,,,,
,,,,,,00070,2023-10-17_21h44.57.149,vbt_B2_day2,2022.2.4,Win32,59.93766483,,,,,,,,,,,,,,,,,,,,,,,,,,,down,0,0.4916,,-0.356445313,-0.145507813,1,0,0,0.6502,0,177,177,113,1,koppen,images/br_koppen.png,images/cb_koppen.png,0,,,,,,,,,,,,,,,,,,,,,,
,,,,,,00070,2023-10-17_21h44.57.149,vbt_B2_day2,2022.2.4,Win32,59.93766483,,,,,,,,,,,,,,,,,,,,,,,,,,,down,0,0.5514,,-0.356445313,-0.145507813,1,0,0,0.6339,0,178,178,67,1,zwart,images/br_zwart.png,images/cb_zwart.png,0,,,,,,,,,,,,,,,,,,,,,,
,,,,,,00070,2023-10-17_21h44.57.149,vbt_B2_day2,2022.2.4,Win32,59.93766483,,,,,,,,,,,,,,,,,,,,,,,,,,,down,0,0.6865,,-0.356445313,-0.145507813,1,0,0,0.5178,0,179,179,8,1,knie,images/br_knie.png,images/cb_knie.png,0,,,,,,,,,,,,,,,,,,,,,,
,,,,,,00070,2023-10-17_21h44.57.149,vbt_B2_day2,2022.2.4,Win32,59.93766483,,,,,,,,,,,,,,,,,,,,,,,,,,,down,0,0.2408,,-0.362304688,-0.158203125,1,0,0,0.7843,0,180,180,155,1,gerucht,images/br_gerucht.png,images/cb_gerucht.png,0,,,,,,,,,,,,,,,,,,,,,,
,,,,,,00070,2023-10-17_21h44.57.149,vbt_B2_day2,2022.2.4,Win32,59.93766483,,,,,,,,,,,,,,,,,,,,,,,,,,,down,0,1.0684,,-0.436523438,-0.126953125,1,0,0,0.9509,0,181,181,24,1,jurk,images/br_jurk.png,images/cb_jurk.png,0,,,,,,,,,,,,,,,,,,,,,,
,,,,,,00070,2023-10-17_21h44.57.149,vbt_B2_day2,2022.2.4,Win32,59.93766483,,,,,,,,,,,,,,,,,,,,,,,,,,,down,0,0.835,,-0.4375,-0.131835938,1,0,0,0.8169,0,182,182,48,1,steel,images/br_steel.png,images/cb_steel.png,0,,,,,,,,,,,,,,,,,,,,,,
,,,,,,00070,2023-10-17_21h44.57.149,vbt_B2_day2,2022.2.4,Win32,59.93766483,,,,,,,,,,,,,,,,,,,,,,,,,,,down,0,0.4306,,-0.438476563,-0.133789063,1,0,0,0.9331,0,183,183,40,1,schep,images/br_schep.png,images/cb_schep.png,0,,,,,,,,,,,,,,,,,,,,,,
,,,,,,00070,2023-10-17_21h44.57.149,vbt_B2_day2,2022.2.4,Win32,59.93766483,,,,,,,,,,,,,,,,,,,,,,,,,,,down,0,0.6024,,-0.440429688,-0.141601563,1,0,0,0.7339,0,184,184,146,1,opkomen,images/br_opkomen.png,images/cb_opkomen.png,0,,,,,,,,,,,,,,,,,,,,,,
,,,,,,00070,2023-10-17_21h44.57.149,vbt_B2_day2,2022.2.4,Win32,59.93766483,,,,,,,,,,,,,,,,,,,,,,,,,,,down,0,0.5186,,-0.440429688,-0.141601563,1,0,0,0.8336,0,185,185,53,1,baron,images/br_baron.png,images/cb_baron.png,0,,,,,,,,,,,,,,,,,,,,,,
,,,,,,00070,2023-10-17_21h44.57.149,vbt_B2_day2,2022.2.4,Win32,59.93766483,,,,,,,,,,,,,,,,,,,,,,,,,,,down,0,7.5583,,0.485351563,-0.090820313,1,0,0,0.7518,0,186,186,18,1,blik,images/br_blik.png,images/cb_blik.png,1,blik,,,,,,,,,,,,,,,,,,,,,
,,,,,,00070,2023-10-17_21h44.57.149,vbt_B2_day2,2022.2.4,Win32,59.93766483,,,,,,,,,,,,,,,,,,,,,,,,,,,down,0,12.355,,0.411132813,-0.036132813,1,0,0,0.5841,0,187,187,139,1,stiekem,images/br_stiekem.png,images/cb_stiekem.png,1,stiekemstiekem,,,,,,,,,,,,,,,,,,,,,
,,,,,,00070,2023-10-17_21h44.57.149,vbt_B2_day2,2022.2.4,Win32,59.93766483,,,,,,,,,,,,,,,,,,,,,,,,,,,down,0,3.7623,,0.42578125,-0.030273438,1,0,0,0.3013,0,188,188,17,1,taal,images/br_taal.png,images/cb_taal.png,1,taal,,,,,,,,,,,,,,,,,,,,,
,,,,,,00070,2023-10-17_21h44.57.149,vbt_B2_day2,2022.2.4,Win32,59.93766483,,,,,,,,,,,,,,,,,,,,,,,,,,,down,0,0.8131,,0.428710938,-0.020507813,1,0,0,0.8007,0,189,189,87,1,toeval,images/br_toeval.png,images/cb_toeval.png,0,,,,,,,,,,,,,,,,,,,,,,
,,,,,,00070,2023-10-17_21h44.57.149,vbt_B2_day2,2022.2.4,Win32,59.93766483,,,,,,,,,,,,,,,,,,,,,,,,,,,down,0,0.4672,,0.428710938,-0.020507813,1,0,0,0.4162,0,190,190,106,1,zingen,images/br_zingen.png,images/cb_zingen.png,0,,,,,,,,,,,,,,,,,,,,,,
,,,,,,00070,2023-10-17_21h44.57.149,vbt_B2_day2,2022.2.4,Win32,59.93766483,,,,,,,,,,,,,,,,,,,,,,,,,,,down,0,0.408,,0.428710938,-0.020507813,1,0,0,0.5662,0,191,191,15,1,soda,images/br_soda.png,images/cb_soda.png,0,,,,,,,,,,,,,,,,,,,,,,
,,,,,,00070,2023-10-17_21h44.57.149,vbt_B2_day2,2022.2.4,Win32,59.93766483,,,,,,,,,,,,,,,,,,,,,,,,,,,down,0,25.5001,,0.428710938,-0.020507813,1,0,0,0.4005,0,192,192,179,1,woestijn,images/br_woestijn.png,images/cb_woestijn.png,1,woestijn,,,,,,,,,,,,,,,,,,,,,
,,,,,,00070,2023-10-17_21h44.57.149,vbt_B2_day2,2022.2.4,Win32,59.93766483,,,,,,,,,,,,,,,,,,,,,,,,,,,down,0,0.5014,,0.383789063,-0.022460938,1,0,0,0.3503,0,193,193,115,1,kleren,images/br_kleren.png,images/cb_kleren.png,0,,,,,,,,,,,,,,,,,,,,,,
,,,,,,00070,2023-10-17_21h44.57.149,vbt_B2_day2,2022.2.4,Win32,59.93766483,,,,,,,,,,,,,,,,,,,,,,,,,,,down,0,0.4538,,0.383789063,-0.022460938,1,0,0,0.4513,0,194,194,105,1,wijlen,images/br_wijlen.png,images/cb_wijlen.png,0,,,,,,,,,,,,,,,,,,,,,,
,,,,,,00070,2023-10-17_21h44.57.149,vbt_B2_day2,2022.2.4,Win32,59.93766483,,,,,,,,,,,,,,,,,,,,,,,,,,,down,0,0.3241,,0.383789063,-0.022460938,1,0,0,0.4362,0,195,195,80,1,kanjer,images/br_kanjer.png,images/cb_kanjer.png,0,,,,,,,,,,,,,,,,,,,,,,
,,,,,,00070,2023-10-17_21h44.57.149,vbt_B2_day2,2022.2.4,Win32,59.93766483,,,,,,,,,,,,,,,,,,,,,,,,,,,down,0,0.47,,0.383789063,-0.022460938,1,0,0,0.3167,0,196,196,1,1,zaal,images/br_zaal.png,images/cb_zaal.png,0,,,,,,,,,,,,,,,,,,,,,,
,,,,,,00070,2023-10-17_21h44.57.149,vbt_B2_day2,2022.2.4,Win32,59.93766483,,,,,,,,,,,,,,,,,,,,,,,,,,,down,0,0.3071,,0.383789063,-0.022460938,1,0,0,0.4168,0,197,197,78,1,leren,images/br_leren.png,images/cb_leren.png,0,,,,,,,,,,,,,,,,,,,,,,
,,,,,,00070,2023-10-17_21h44.57.149,vbt_B2_day2,2022.2.4,Win32,59.93766483,,,,,,,,,,,,,,,,,,,,,,,,,,,down,0,0.6249,,0.383789063,-0.022460938,1,0,0,0.5504,0,198,198,107,1,maling,images/br_maling.png,images/cb_maling.png,0,,,,,,,,,,,,,,,,,,,,,,
,,,,,,00070,2023-10-17_21h44.57.149,vbt_B2_day2,2022.2.4,Win32,59.93766483,,,,,,,,,,,,,,,,,,,,,,,,,,,down,0,0.5238,,0.383789063,-0.022460938,1,0,0,0.7676,0,199,199,143,1,hechten,images/br_hechten.png,images/cb_hechten.png,0,,,,,,,,,,,,,,,,,,,,,,
,,,,,,00070,2023-10-17_21h44.57.149,vbt_B2_day2,2022.2.4,Win32,59.93766483,,,,,,,,,,,,,,,,,,,,,,,,,,,,,,,,,,,,,,,,,,,,,,,-0.434570313,0.096679688,1,0,0,,,,,,,,,,,,,,,,
,,,,,,00070,2023-10-17_21h44.57.149,vbt_B2_day2,2022.2.4,Win32,59.93766483,,,,,,,,,,,,,,,,,,,,,,,,,,,,,,,,,,,,,,,,,,,,,,,,,,,,-0.151367188,-0.033203125,1,0,0,,,,,,,,,,,
,,,,,,00070,2023-10-17_21h44.57.149,vbt_B2_day2,2022.2.4,Win32,59.93766483,,,,,,,,,,,,,,,,,,,,,,,,,,,,,,,,,,,,,,,,,,tand,images/br_tand.png,images/cb_tand.png,,rapen,,,,,,,,,,,-0.151367188,-0.033203125,1,0,0,rapen,0,0,0,42,1
,,,,,,00070,2023-10-17_21h44.57.149,vbt_B2_day2,2022.2.4,Win32,59.93766483,,,,,,,,,,,,,,,,,,,,,,,,,,,,,,,,,,,,,,,,,,strikken,images/br_strikken.png,images/cb_strikken.png,,st..............,,,,,,,,,,,-0.272460938,-0.018554688,1,0,0,st..............,0,1,1,18,1
,,,,,,00070,2023-10-17_21h44.57.149,vbt_B2_day2,2022.2.4,Win32,59.93766483,,,,,,,,,,,,,,,,,,,,,,,,,,,,,,,,,,,,,,,,,,lurgen,images/br_lurgen.png,images/cb_lurgen.png,,lor.....,,,,,,,,,,,-0.373046875,-0.063476563,1,0,0,lor.....,0,2,2,29,1
,,,,,,00070,2023-10-17_21h44.57.149,vbt_B2_day2,2022.2.4,Win32,59.93766483,,,,,,,,,,,,,,,,,,,,,,,,,,,,,,,,,,,,,,,,,,zomers,images/br_zomers.png,images/cb_zomers.png,,...............,,,,,,,,,,,-0.470703125,-0.0390625,1,0,0,...............,0,3,3,48,1
,,,,,,00070,2023-10-17_21h44.57.149,vbt_B2_day2,2022.2.4,Win32,59.93766483,,,,,,,,,,,,,,,,,,,,,,,,,,,,,,,,,,,,,,,,,,sjijfel,images/br_sjijfel.png,images/cb_sjijfel.png,,schietstoel,,,,,,,,,,,-0.470703125,-0.0390625,1,0,0,schietstoel,0,4,4,33,1
,,,,,,00070,2023-10-17_21h44.57.149,vbt_B2_day2,2022.2.4,Win32,59.93766483,,,,,,,,,,,,,,,,,,,,,,,,,,,,,,,,,,,,,,,,,,feestdag,images/br_feestdag.png,images/cb_feestdag.png,,feest....,,,,,,,,,,,-0.497070313,-0.067382813,1,0,0,feest....,0,5,5,17,1
,,,,,,00070,2023-10-17_21h44.57.149,vbt_B2_day2,2022.2.4,Win32,59.93766483,,,,,,,,,,,,,,,,,,,,,,,,,,,,,,,,,,,,,,,,,,kenzis,images/br_kenzis.png,images/cb_kenzis.png,,ken.....,,,,,,,,,,,-0.4921875,-0.063476563,1,0,0,ken.....,0,6,6,30,1
,,,,,,00070,2023-10-17_21h44.57.149,vbt_B2_day2,2022.2.4,Win32,59.93766483,,,,,,,,,,,,,,,,,,,,,,,,,,,,,,,,,,,,,,,,,,trots,images/br_trots.png,images/cb_trots.png,,tao...,,,,,,,,,,,-0.4921875,-0.0625,1,0,0,tao...,0,7,7,44,1
,,,,,,00070,2023-10-17_21h44.57.149,vbt_B2_day2,2022.2.4,Win32,59.93766483,,,,,,,,,,,,,,,,,,,,,,,,,,,,,,,,,,,,,,,,,,doodmoe,images/br_doodmoe.png,images/cb_doodmoe.png,,doodu..,,,,,,,,,,,-0.494140625,-0.057617188,1,0,0,doodu..,0,8,8,15,1
,,,,,,00070,2023-10-17_21h44.57.149,vbt_B2_day2,2022.2.4,Win32,59.93766483,,,,,,,,,,,,,,,,,,,,,,,,,,,,,,,,,,,,,,,,,,ningen,images/br_ningen.png,images/cb_ningen.png,,ningen,,,,,,,,,,,-0.485351563,-0.057617188,1,0,0,ningen,0,9,9,28,1
,,,,,,00070,2023-10-17_21h44.57.149,vbt_B2_day2,2022.2.4,Win32,59.93766483,,,,,,,,,,,,,,,,,,,,,,,,,,,,,,,,,,,,,,,,,,lijnen,images/br_lijnen.png,images/cb_lijnen.png,,lijnen,,,,,,,,,,,-0.485351563,-0.057617188,1,0,0,lijnen,0,10,10,51,1
,,,,,,00070,2023-10-17_21h44.57.149,vbt_B2_day2,2022.2.4,Win32,59.93766483,,,,,,,,,,,,,,,,,,,,,,,,,,,,,,,,,,,,,,,,,,woning,images/br_woning.png,images/cb_woning.png,,woning,,,,,,,,,,,-0.474609375,-0.060546875,1,0,0,woning,0,11,11,10,1
,,,,,,00070,2023-10-17_21h44.57.149,vbt_B2_day2,2022.2.4,Win32,59.93766483,,,,,,,,,,,,,,,,,,,,,,,,,,,,,,,,,,,,,,,,,,heengeen,images/br_heengeen.png,images/cb_heengeen.png,,.oong....,,,,,,,,,,,-0.474609375,-0.060546875,1,0,0,.oong....,0,12,12,38,1
,,,,,,00070,2023-10-17_21h44.57.149,vbt_B2_day2,2022.2.4,Win32,59.93766483,,,,,,,,,,,,,,,,,,,,,,,,,,,,,,,,,,,,,,,,,,prekken,images/br_prekken.png,images/cb_prekken.png,,faenn...,,,,,,,,,,,-0.427734375,-0.077148438,1,0,0,faenn...,0,13,13,34,1
,,,,,,00070,2023-10-17_21h44.57.149,vbt_B2_day2,2022.2.4,Win32,59.93766483,,,,,,,,,,,,,,,,,,,,,,,,,,,,,,,,,,,,,,,,,,zwager,images/br_zwager.png,images/cb_zwager.png,,.........,,,,,,,,,,,-0.451171875,-0.079101563,1,0,0,.........,0,14,14,49,1
,,,,,,00070,2023-10-17_21h44.57.149,vbt_B2_day2,2022.2.4,Win32,59.93766483,,,,,,,,,,,,,,,,,,,,,,,,,,,,,,,,,,,,,,,,,,jagen,images/br_jagen.png,images/cb_jagen.png,,jagen,,,,,,,,,,,-0.353515625,-0.067382813,1,0,0,jagen,0,15,15,6,1
,,,,,,00070,2023-10-17_21h44.57.149,vbt_B2_day2,2022.2.4,Win32,59.93766483,,,,,,,,,,,,,,,,,,,,,,,,,,,,,,,,,,,,,,,,,,geld,images/br_geld.png,images/cb_geld.png,,geld,,,,,,,,,,,-0.315429688,-0.071289063,1,0,0,geld,0,16,16,3,1
,,,,,,00070,2023-10-17_21h44.57.149,vbt_B2_day2,2022.2.4,Win32,59.93766483,,,,,,,,,,,,,,,,,,,,,,,,,,,,,,,,,,,,,,,,,,tweeling,images/br_tweeling.png,images/cb_tweeling.png,,tweestrijd,,,,,,,,,,,-0.2890625,-0.072265625,1,0,0,tweestrijd,0,17,17,58,1
,,,,,,00070,2023-10-17_21h44.57.149,vbt_B2_day2,2022.2.4,Win32,59.93766483,,,,,,,,,,,,,,,,,,,,,,,,,,,,,,,,,,,,,,,,,,manieren,images/br_manieren.png,images/cb_manieren.png,,...........,,,,,,,,,,,-0.278320313,-0.095703125,1,0,0,...........,0,18,18,56,1
,,,,,,00070,2023-10-17_21h44.57.149,vbt_B2_day2,2022.2.4,Win32,59.93766483,,,,,,,,,,,,,,,,,,,,,,,,,,,,,,,,,,,,,,,,,,kasteel,images/br_kasteel.png,images/cb_kasteel.png,,kasteel,,,,,,,,,,,-0.396484375,-0.0859375,1,0,0,kasteel,0,19,19,14,1
,,,,,,00070,2023-10-17_21h44.57.149,vbt_B2_day2,2022.2.4,Win32,59.93766483,,,,,,,,,,,,,,,,,,,,,,,,,,,,,,,,,,,,,,,,,,clan,images/br_clan.png,images/cb_clan.png,,clan,,,,,,,,,,,0.030273438,-0.026367188,1,0,0,clan,0,20,20,40,1
,,,,,,00070,2023-10-17_21h44.57.149,vbt_B2_day2,2022.2.4,Win32,59.93766483,,,,,,,,,,,,,,,,,,,,,,,,,,,,,,,,,,,,,,,,,,krimmen,images/br_krimmen.png,images/cb_krimmen.png,,kadoo.,,,,,,,,,,,-0.162109375,-0.080078125,1,0,0,kadoo.,0,21,21,35,1
,,,,,,00070,2023-10-17_21h44.57.149,vbt_B2_day2,2022.2.4,Win32,59.93766483,,,,,,,,,,,,,,,,,,,,,,,,,,,,,,,,,,,,,,,,,,bereuwen,images/br_bereuwen.png,images/cb_bereuwen.png,,beaeo....,,,,,,,,,,,-0.086914063,-0.018554688,1,0,0,beaeo....,0,22,22,39,1
,,,,,,00070,2023-10-17_21h44.57.149,vbt_B2_day2,2022.2.4,Win32,59.93766483,,,,,,,,,,,,,,,,,,,,,,,,,,,,,,,,,,,,,,,,,,koorts,images/br_koorts.png,images/cb_koorts.png,,koaat.,,,,,,,,,,,0.013671875,-0.030273438,1,0,0,koaat.,0,23,23,50,1
,,,,,,00070,2023-10-17_21h44.57.149,vbt_B2_day2,2022.2.4,Win32,59.93766483,,,,,,,,,,,,,,,,,,,,,,,,,,,,,,,,,,,,,,,,,,toeval,images/br_toeval.png,images/cb_toeval.png,,toeval,,,,,,,,,,,-0.126953125,-0.086914063,1,0,0,toeval,0,24,24,11,1
,,,,,,00070,2023-10-17_21h44.57.149,vbt_B2_day2,2022.2.4,Win32,59.93766483,,,,,,,,,,,,,,,,,,,,,,,,,,,,,,,,,,,,,,,,,,dode,images/br_dode.png,images/cb_dode.png,,dode,,,,,,,,,,,-0.119140625,-0.08984375,1,0,0,dode,0,25,25,41,1
,,,,,,00070,2023-10-17_21h44.57.149,vbt_B2_day2,2022.2.4,Win32,59.93766483,,,,,,,,,,,,,,,,,,,,,,,,,,,,,,,,,,,,,,,,,,sora,images/br_sora.png,images/cb_sora.png,,soar,,,,,,,,,,,-0.119140625,-0.08984375,1,0,0,soar,0,26,26,22,1
,,,,,,00070,2023-10-17_21h44.57.149,vbt_B2_day2,2022.2.4,Win32,59.93766483,,,,,,,,,,,,,,,,,,,,,,,,,,,,,,,,,,,,,,,,,,thema,images/br_thema.png,images/cb_thema.png,,..........,,,,,,,,,,,-0.119140625,-0.08984375,1,0,0,..........,0,27,27,47,1
,,,,,,00070,2023-10-17_21h44.57.149,vbt_B2_day2,2022.2.4,Win32,59.93766483,,,,,,,,,,,,,,,,,,,,,,,,,,,,,,,,,,,,,,,,,,opdatten,images/br_opdatten.png,images/cb_opdatten.png,,of.......,,,,,,,,,,,-0.322265625,-0.0390625,1,0,0,of.......,0,28,28,37,1
,,,,,,00070,2023-10-17_21h44.57.149,vbt_B2_day2,2022.2.4,Win32,59.93766483,,,,,,,,,,,,,,,,,,,,,,,,,,,,,,,,,,,,,,,,,,eenhoorn,images/br_eenhoorn.png,images/cb_eenhoorn.png,,eenhoorn,,,,,,,,,,,-0.327148438,-0.041015625,1,0,0,eenhoorn,0,29,29,19,1
,,,,,,00070,2023-10-17_21h44.57.149,vbt_B2_day2,2022.2.4,Win32,59.93766483,,,,,,,,,,,,,,,,,,,,,,,,,,,,,,,,,,,,,,,,,,aanzien,images/br_aanzien.png,images/cb_aanzien.png,,aanzet,,,,,,,,,,,-0.318359375,-0.057617188,1,0,0,aanzet,0,30,30,13,1
,,,,,,00070,2023-10-17_21h44.57.149,vbt_B2_day2,2022.2.4,Win32,59.93766483,,,,,,,,,,,,,,,,,,,,,,,,,,,,,,,,,,,,,,,,,,stes,images/br_stes.png,images/cb_stes.png,,stom,,,,,,,,,,,-0.259765625,-0.080078125,1,0,0,stom,0,31,31,21,1
,,,,,,00070,2023-10-17_21h44.57.149,vbt_B2_day2,2022.2.4,Win32,59.93766483,,,,,,,,,,,,,,,,,,,,,,,,,,,,,,,,,,,,,,,,,,bloeien,images/br_bloeien.png,images/cb_bloeien.png,,bloeiend,,,,,,,,,,,-0.245117188,-0.0859375,1,0,0,bloeiend,0,32,32,12,1
,,,,,,00070,2023-10-17_21h44.57.149,vbt_B2_day2,2022.2.4,Win32,59.93766483,,,,,,,,,,,,,,,,,,,,,,,,,,,,,,,,,,,,,,,,,,agressie,images/br_agressie.png,images/cb_agressie.png,,agre.....,,,,,,,,,,,-0.235351563,-0.083984375,1,0,0,agre.....,0,33,33,59,1
,,,,,,00070,2023-10-17_21h44.57.149,vbt_B2_day2,2022.2.4,Win32,59.93766483,,,,,,,,,,,,,,,,,,,,,,,,,,,,,,,,,,,,,,,,,,wijve,images/br_wijve.png,images/cb_wijve.png,,winkel,,,,,,,,,,,-0.243164063,-0.0625,1,0,0,winkel,0,34,34,27,1
,,,,,,00070,2023-10-17_21h44.57.149,vbt_B2_day2,2022.2.4,Win32,59.93766483,,,,,,,,,,,,,,,,,,,,,,,,,,,,,,,,,,,,,,,,,,flits,images/br_flits.png,images/cb_flits.png,,gletsjer,,,,,,,,,,,-0.212890625,-0.073242188,1,0,0,gletsjer,0,35,35,4,1
,,,,,,00070,2023-10-17_21h44.57.149,vbt_B2_day2,2022.2.4,Win32,59.93766483,,,,,,,,,,,,,,,,,,,,,,,,,,,,,,,,,,,,,,,,,,lokken,images/br_lokken.png,images/cb_lokken.png,,lokken,,,,,,,,,,,-0.168945313,-0.072265625,1,0,0,lokken,0,36,36,8,1
,,,,,,00070,2023-10-17_21h44.57.149,vbt_B2_day2,2022.2.4,Win32,59.93766483,,,,,,,,,,,,,,,,,,,,,,,,,,,,,,,,,,,,,,,,,,inzicht,images/br_inzicht.png,images/cb_inzicht.png,,inzicht,,,,,,,,,,,-0.146484375,-0.081054688,1,0,0,inzicht,0,37,37,53,1
,,,,,,00070,2023-10-17_21h44.57.149,vbt_B2_day2,2022.2.4,Win32,59.93766483,,,,,,,,,,,,,,,,,,,,,,,,,,,,,,,,,,,,,,,,,,badon,images/br_badon.png,images/cb_badon.png,,badon,,,,,,,,,,,-0.119140625,-0.0859375,1,0,0,badon,0,38,38,26,1
,,,,,,00070,2023-10-17_21h44.57.149,vbt_B2_day2,2022.2.4,Win32,59.93766483,,,,,,,,,,,,,,,,,,,,,,,,,,,,,,,,,,,,,,,,,,blad,images/br_blad.png,images/cb_blad.png,,blad,,,,,,,,,,,-0.119140625,-0.0859375,1,0,0,blad,0,39,39,1,1
,,,,,,00070,2023-10-17_21h44.57.149,vbt_B2_day2,2022.2.4,Win32,59.93766483,,,,,,,,,,,,,,,,,,,,,,,,,,,,,,,,,,,,,,,,,,heilig,images/br_heilig.png,images/cb_heilig.png,,hie....,,,,,,,,,,,-0.150390625,-0.112304688,1,0,0,hie....,0,40,40,9,1
,,,,,,00070,2023-10-17_21h44.57.149,vbt_B2_day2,2022.2.4,Win32,59.93766483,,,,,,,,,,,,,,,,,,,,,,,,,,,,,,,,,,,,,,,,,,anarchie,images/br_anarchie.png,images/cb_anarchie.png,,anar....,,,,,,,,,,,-0.139648438,-0.125,1,0,0,anar....,0,41,41,16,1
,,,,,,00070,2023-10-17_21h44.57.149,vbt_B2_day2,2022.2.4,Win32,59.93766483,,,,,,,,,,,,,,,,,,,,,,,,,,,,,,,,,,,,,,,,,,systeem,images/br_systeem.png,images/cb_systeem.png,,sy.....,,,,,,,,,,,-0.165039063,-0.099609375,1,0,0,sy.....,0,42,42,54,1
,,,,,,00070,2023-10-17_21h44.57.149,vbt_B2_day2,2022.2.4,Win32,59.93766483,,,,,,,,,,,,,,,,,,,,,,,,,,,,,,,,,,,,,,,,,,joes,images/br_joes.png,images/cb_joes.png,,joes,,,,,,,,,,,-0.173828125,-0.107421875,1,0,0,joes,0,43,43,20,1
,,,,,,00070,2023-10-17_21h44.57.149,vbt_B2_day2,2022.2.4,Win32,59.93766483,,,,,,,,,,,,,,,,,,,,,,,,,,,,,,,,,,,,,,,,,,aanvraag,images/br_aanvraag.png,images/cb_aanvraag.png,,aanvraag,,,,,,,,,,,-0.055664063,-0.015625,1,0,0,aanvraag,0,44,44,57,1
,,,,,,00070,2023-10-17_21h44.57.149,vbt_B2_day2,2022.2.4,Win32,59.93766483,,,,,,,,,,,,,,,,,,,,,,,,,,,,,,,,,,,,,,,,,,piste,images/br_piste.png,images/cb_piste.png,,f......,,,,,,,,,,,-0.073242188,-0.090820313,1,0,0,f......,0,45,45,5,1
,,,,,,00070,2023-10-17_21h44.57.149,vbt_B2_day2,2022.2.4,Win32,59.93766483,,,,,,,,,,,,,,,,,,,,,,,,,,,,,,,,,,,,,,,,,,diep,images/br_diep.png,images/cb_diep.png,,dief,,,,,,,,,,,-0.024414063,-0.083984375,1,0,0,dief,0,46,46,2,1
,,,,,,00070,2023-10-17_21h44.57.149,vbt_B2_day2,2022.2.4,Win32,59.93766483,,,,,,,,,,,,,,,,,,,,,,,,,,,,,,,,,,,,,,,,,,negel,images/br_negel.png,images/cb_negel.png,,zegel,,,,,,,,,,,-0.03125,-0.1171875,1,0,0,zegel,0,47,47,24,1
,,,,,,00070,2023-10-17_21h44.57.149,vbt_B2_day2,2022.2.4,Win32,59.93766483,,,,,,,,,,,,,,,,,,,,,,,,,,,,,,,,,,,,,,,,,,welzijn,images/br_welzijn.png,images/cb_welzijn.png,,weln.......,,,,,,,,,,,-0.145507813,-0.118164063,1,0,0,weln.......,0,48,48,52,1
,,,,,,00070,2023-10-17_21h44.57.149,vbt_B2_day2,2022.2.4,Win32,59.93766483,,,,,,,,,,,,,,,,,,,,,,,,,,,,,,,,,,,,,,,,,,breuk,images/br_breuk.png,images/cb_breuk.png,,brood,,,,,,,,,,,-0.131835938,-0.084960938,1,0,0,brood,0,49,49,45,1
,,,,,,00070,2023-10-17_21h44.57.149,vbt_B2_day2,2022.2.4,Win32,59.93766483,,,,,,,,,,,,,,,,,,,,,,,,,,,,,,,,,,,,,,,,,,plannen,images/br_plannen.png,images/cb_plannen.png,,flannel,,,,,,,,,,,-0.112304688,-0.126953125,1,0,0,flannel,0,50,50,55,1
,,,,,,00070,2023-10-17_21h44.57.149,vbt_B2_day2,2022.2.4,Win32,59.93766483,,,,,,,,,,,,,,,,,,,,,,,,,,,,,,,,,,,,,,,,,,moes,images/br_moes.png,images/cb_moes.png,,does,,,,,,,,,,,-0.12890625,-0.126953125,1,0,0,does,0,51,51,0,1
,,,,,,00070,2023-10-17_21h44.57.149,vbt_B2_day2,2022.2.4,Win32,59.93766483,,,,,,,,,,,,,,,,,,,,,,,,,,,,,,,,,,,,,,,,,,kabel,images/br_kabel.png,images/cb_kabel.png,,kabel,,,,,,,,,,,-0.12890625,-0.126953125,1,0,0,kabel,0,52,52,7,1
,,,,,,00070,2023-10-17_21h44.57.149,vbt_B2_day2,2022.2.4,Win32,59.93766483,,,,,,,,,,,,,,,,,,,,,,,,,,,,,,,,,,,,,,,,,,goon,images/br_goon.png,images/cb_goon.png,,goon,,,,,,,,,,,-0.111328125,-0.12890625,1,0,0,goon,0,53,53,23,1
,,,,,,00070,2023-10-17_21h44.57.149,vbt_B2_day2,2022.2.4,Win32,59.93766483,,,,,,,,,,,,,,,,,,,,,,,,,,,,,,,,,,,,,,,,,,ophuimen,images/br_ophuimen.png,images/cb_ophuimen.png,,oficieel,,,,,,,,,,,-0.12109375,-0.14453125,1,0,0,oficieel,0,54,54,36,1
,,,,,,00070,2023-10-17_21h44.57.149,vbt_B2_day2,2022.2.4,Win32,59.93766483,,,,,,,,,,,,,,,,,,,,,,,,,,,,,,,,,,,,,,,,,,zegel,images/br_zegel.png,images/cb_zegel.png,,zegel,,,,,,,,,,,-0.12109375,-0.14453125,1,0,0,zegel,0,55,55,46,1
,,,,,,00070,2023-10-17_21h44.57.149,vbt_B2_day2,2022.2.4,Win32,59.93766483,,,,,,,,,,,,,,,,,,,,,,,,,,,,,,,,,,,,,,,,,,sifferd,images/br_sifferd.png,images/cb_sifferd.png,,............,,,,,,,,,,,-0.12109375,-0.14453125,1,0,0,............,0,56,56,32,1
,,,,,,00070,2023-10-17_21h44.57.149,vbt_B2_day2,2022.2.4,Win32,59.93766483,,,,,,,,,,,,,,,,,,,,,,,,,,,,,,,,,,,,,,,,,,remel,images/br_remel.png,images/cb_remel.png,,regel,,,,,,,,,,,-0.40625,-0.04296875,1,0,0,regel,0,57,57,25,1
,,,,,,00070,2023-10-17_21h44.57.149,vbt_B2_day2,2022.2.4,Win32,59.93766483,,,,,,,,,,,,,,,,,,,,,,,,,,,,,,,,,,,,,,,,,,kijlen,images/br_kijlen.png,images/cb_kijlen.png,,ke....,,,,,,,,,,,-0.40625,-0.04296875,1,0,0,ke....,0,58,58,31,1
,,,,,,00070,2023-10-17_21h44.57.149,vbt_B2_day2,2022.2.4,Win32,59.93766483,,,,,,,,,,,,,,,,,,,,,,,,,,,,,,,,,,,,,,,,,,jong,images/br_jong.png,images/cb_jong.png,,jong,,,,,,,,,,,-0.376953125,-0.064453125,1,0,0,jong,0,59,59,43,1
,,,,,,00070,2023-10-17_21h44.57.149,vbt_B2_day2,2022.2.4,Win32,59.93766483,,,,,,,,,,,,,,,,,,,,,,,,,,,,,,,,,,,,,,,,,,,,,,,,,,,,,,,,,,,,,,,,,,,
