welcome_mouse.x,welcome_mouse.y,welcome_mouse.leftButton,welcome_mouse.midButton,welcome_mouse.rightButton,welcome_mouse.time,"ID",date,expName,psychopyVersion,OS,frameRate,refresh_mouse.x,refresh_mouse.y,refresh_mouse.leftButton,refresh_mouse.midButton,refresh_mouse.rightButton,refresh_mouse.time,braille_mouse.x,braille_mouse.y,braille_mouse.leftButton,braille_mouse.midButton,braille_mouse.rightButton,braille_mouse.time,trials.thisRepN,trials.thisTrialN,trials.thisN,trials.thisIndex,trials.ran,nlLet,brLet,cbLet,trainInstr_mouse.x,trainInstr_mouse.y,trainInstr_mouse.leftButton,trainInstr_mouse.midButton,trainInstr_mouse.rightButton,trainInstr_mouse.time,translation_key.keys,translation_key.corr,translation_key.rt,word_rsp.text,word_mouse.x,word_mouse.y,word_mouse.leftButton,word_mouse.midButton,word_mouse.rightButton,word_mouse.time,train_loop.thisRepN,train_loop.thisTrialN,train_loop.thisN,train_loop.thisIndex,train_loop.ran,nlWrd,brWrd,cbWrd,test,testResp,mouse.x,mouse.y,mouse.leftButton,mouse.midButton,mouse.rightButton,testInstr_mouse.x,testInstr_mouse.y,testInstr_mouse.leftButton,testInstr_mouse.midButton,testInstr_mouse.rightButton,test_mouse.x,test_mouse.y,test_mouse.leftButton,test_mouse.midButton,test_mouse.rightButton,test_response.text,test_loop.thisRepN,test_loop.thisTrialN,test_loop.thisN,test_loop.thisIndex,test_loop.ran
-0.146666667,-0.082222222,1,0,0,35.67,00106,2023-11-11_15h10.42.889,vbt_B2_day2,2022.2.4,MacIntel,40,,,,,,,,,,,,,,,,,,,,,,,,,,,,,,,,,,,,,,,,,,,,,,,,,,,,,,,,,,,,,,,,,,,
,,,,,,00106,2023-11-11_15h10.42.889,vbt_B2_day2,2022.2.4,MacIntel,40,-0.146666667,-0.082222222,1,0,0,9.642,,,,,,,,,,,,,,,,,,,,,,,,,,,,,,,,,,,,,,,,,,,,,,,,,,,,,,,,,,,,,
,,,,,,00106,2023-11-11_15h10.42.889,vbt_B2_day2,2022.2.4,MacIntel,40,,,,,,,0.073333333,-0.262222222,1,0,0,1.616,0,0,0,24,1,y,images/br_y.png,images/cb_y.png,,,,,,,,,,,,,,,,,,,,,,,,,,,,,,,,,,,,,,,,,,,,,,,
,,,,,,00106,2023-11-11_15h10.42.889,vbt_B2_day2,2022.2.4,MacIntel,40,,,,,,,0.073333333,-0.262222222,1,0,0,1.616,0,1,1,19,1,t,images/br_t.png,images/cb_t.png,,,,,,,,,,,,,,,,,,,,,,,,,,,,,,,,,,,,,,,,,,,,,,,
,,,,,,00106,2023-11-11_15h10.42.889,vbt_B2_day2,2022.2.4,MacIntel,40,,,,,,,0.073333333,-0.262222222,1,0,0,1.383,0,2,2,7,1,h,images/br_h.png,images/cb_h.png,,,,,,,,,,,,,,,,,,,,,,,,,,,,,,,,,,,,,,,,,,,,,,,
,,,,,,00106,2023-11-11_15h10.42.889,vbt_B2_day2,2022.2.4,MacIntel,40,,,,,,,0.073333333,-0.262222222,1,0,0,1.234,0,3,3,20,1,u,images/br_u.png,images/cb_u.png,,,,,,,,,,,,,,,,,,,,,,,,,,,,,,,,,,,,,,,,,,,,,,,
,,,,,,00106,2023-11-11_15h10.42.889,vbt_B2_day2,2022.2.4,MacIntel,40,,,,,,,0.073333333,-0.262222222,1,0,0,0.165,0,4,4,25,1,z,images/br_z.png,images/cb_z.png,,,,,,,,,,,,,,,,,,,,,,,,,,,,,,,,,,,,,,,,,,,,,,,
,,,,,,00106,2023-11-11_15h10.42.889,vbt_B2_day2,2022.2.4,MacIntel,40,,,,,,,0.073333333,-0.262222222,1,0,0,0.017,0,5,5,13,1,n,images/br_n.png,images/cb_n.png,,,,,,,,,,,,,,,,,,,,,,,,,,,,,,,,,,,,,,,,,,,,,,,
,,,,,,00106,2023-11-11_15h10.42.889,vbt_B2_day2,2022.2.4,MacIntel,40,,,,,,,0.073333333,-0.262222222,1,0,0,0.616,0,6,6,11,1,l,images/br_l.png,images/cb_l.png,,,,,,,,,,,,,,,,,,,,,,,,,,,,,,,,,,,,,,,,,,,,,,,
,,,,,,00106,2023-11-11_15h10.42.889,vbt_B2_day2,2022.2.4,MacIntel,40,,,,,,,0.073333333,-0.262222222,1,0,0,2.15,0,7,7,9,1,j,images/br_j.png,images/cb_j.png,,,,,,,,,,,,,,,,,,,,,,,,,,,,,,,,,,,,,,,,,,,,,,,
,,,,,,00106,2023-11-11_15h10.42.889,vbt_B2_day2,2022.2.4,MacIntel,40,,,,,,,0.073333333,-0.262222222,1,0,0,1.101,0,8,8,8,1,i,images/br_i.png,images/cb_i.png,,,,,,,,,,,,,,,,,,,,,,,,,,,,,,,,,,,,,,,,,,,,,,,
,,,,,,00106,2023-11-11_15h10.42.889,vbt_B2_day2,2022.2.4,MacIntel,40,,,,,,,0.073333333,-0.262222222,1,0,0,0.182,0,9,9,18,1,s,images/br_s.png,images/cb_s.png,,,,,,,,,,,,,,,,,,,,,,,,,,,,,,,,,,,,,,,,,,,,,,,
,,,,,,00106,2023-11-11_15h10.42.889,vbt_B2_day2,2022.2.4,MacIntel,40,,,,,,,0.073333333,-0.262222222,1,0,0,0.818,0,10,10,10,1,k,images/br_k.png,images/cb_k.png,,,,,,,,,,,,,,,,,,,,,,,,,,,,,,,,,,,,,,,,,,,,,,,
,,,,,,00106,2023-11-11_15h10.42.889,vbt_B2_day2,2022.2.4,MacIntel,40,,,,,,,0.073333333,-0.262222222,1,0,0,0.35,0,11,11,1,1,b,images/br_b.png,images/cb_b.png,,,,,,,,,,,,,,,,,,,,,,,,,,,,,,,,,,,,,,,,,,,,,,,
,,,,,,00106,2023-11-11_15h10.42.889,vbt_B2_day2,2022.2.4,MacIntel,40,,,,,,,0.073333333,-0.262222222,1,0,0,1.217,0,12,12,14,1,o,images/br_o.png,images/cb_o.png,,,,,,,,,,,,,,,,,,,,,,,,,,,,,,,,,,,,,,,,,,,,,,,
,,,,,,00106,2023-11-11_15h10.42.889,vbt_B2_day2,2022.2.4,MacIntel,40,,,,,,,0.073333333,-0.262222222,1,0,0,0.465,0,13,13,0,1,a,images/br_a.png,images/cb_a.png,,,,,,,,,,,,,,,,,,,,,,,,,,,,,,,,,,,,,,,,,,,,,,,
,,,,,,00106,2023-11-11_15h10.42.889,vbt_B2_day2,2022.2.4,MacIntel,40,,,,,,,0.072222222,-0.265555556,1,0,0,1.034,0,14,14,21,1,v,images/br_v.png,images/cb_v.png,,,,,,,,,,,,,,,,,,,,,,,,,,,,,,,,,,,,,,,,,,,,,,,
,,,,,,00106,2023-11-11_15h10.42.889,vbt_B2_day2,2022.2.4,MacIntel,40,,,,,,,0.072222222,-0.265555556,1,0,0,0.95,0,15,15,15,1,p,images/br_p.png,images/cb_p.png,,,,,,,,,,,,,,,,,,,,,,,,,,,,,,,,,,,,,,,,,,,,,,,
,,,,,,00106,2023-11-11_15h10.42.889,vbt_B2_day2,2022.2.4,MacIntel,40,,,,,,,0.072222222,-0.265555556,1,0,0,0.634,0,16,16,17,1,r,images/br_r.png,images/cb_r.png,,,,,,,,,,,,,,,,,,,,,,,,,,,,,,,,,,,,,,,,,,,,,,,
,,,,,,00106,2023-11-11_15h10.42.889,vbt_B2_day2,2022.2.4,MacIntel,40,,,,,,,0.072222222,-0.265555556,1,0,0,0.4,0,17,17,4,1,e,images/br_e.png,images/cb_e.png,,,,,,,,,,,,,,,,,,,,,,,,,,,,,,,,,,,,,,,,,,,,,,,
,,,,,,00106,2023-11-11_15h10.42.889,vbt_B2_day2,2022.2.4,MacIntel,40,,,,,,,0.072222222,-0.265555556,1,0,0,0.617,0,18,18,5,1,f,images/br_f.png,images/cb_f.png,,,,,,,,,,,,,,,,,,,,,,,,,,,,,,,,,,,,,,,,,,,,,,,
,,,,,,00106,2023-11-11_15h10.42.889,vbt_B2_day2,2022.2.4,MacIntel,40,,,,,,,0.072222222,-0.265555556,1,0,0,0.517,0,19,19,22,1,w,images/br_w.png,images/cb_w.png,,,,,,,,,,,,,,,,,,,,,,,,,,,,,,,,,,,,,,,,,,,,,,,
,,,,,,00106,2023-11-11_15h10.42.889,vbt_B2_day2,2022.2.4,MacIntel,40,,,,,,,0.072222222,-0.265555556,1,0,0,0.617,0,20,20,6,1,g,images/br_g.png,images/cb_g.png,,,,,,,,,,,,,,,,,,,,,,,,,,,,,,,,,,,,,,,,,,,,,,,
,,,,,,00106,2023-11-11_15h10.42.889,vbt_B2_day2,2022.2.4,MacIntel,40,,,,,,,0.072222222,-0.265555556,1,0,0,3.449,0,21,21,23,1,x,images/br_x.png,images/cb_x.png,,,,,,,,,,,,,,,,,,,,,,,,,,,,,,,,,,,,,,,,,,,,,,,
,,,,,,00106,2023-11-11_15h10.42.889,vbt_B2_day2,2022.2.4,MacIntel,40,,,,,,,0.072222222,-0.265555556,1,0,0,1.335,0,22,22,2,1,c,images/br_c.png,images/cb_c.png,,,,,,,,,,,,,,,,,,,,,,,,,,,,,,,,,,,,,,,,,,,,,,,
,,,,,,00106,2023-11-11_15h10.42.889,vbt_B2_day2,2022.2.4,MacIntel,40,,,,,,,0.071111111,-0.265555556,1,0,0,0.999,0,23,23,3,1,d,images/br_d.png,images/cb_d.png,,,,,,,,,,,,,,,,,,,,,,,,,,,,,,,,,,,,,,,,,,,,,,,
,,,,,,00106,2023-11-11_15h10.42.889,vbt_B2_day2,2022.2.4,MacIntel,40,,,,,,,0.071111111,-0.265555556,1,0,0,0.3,0,24,24,16,1,q,images/br_q.png,images/cb_q.png,,,,,,,,,,,,,,,,,,,,,,,,,,,,,,,,,,,,,,,,,,,,,,,
,,,,,,00106,2023-11-11_15h10.42.889,vbt_B2_day2,2022.2.4,MacIntel,40,,,,,,,0.071111111,-0.265555556,1,0,0,0.583,0,25,25,12,1,m,images/br_m.png,images/cb_m.png,,,,,,,,,,,,,,,,,,,,,,,,,,,,,,,,,,,,,,,,,,,,,,,
,,,,,,00106,2023-11-11_15h10.42.889,vbt_B2_day2,2022.2.4,MacIntel,40,,,,,,,,,,,,,,,,,,,,,0.573333333,-0.04,1,0,0,31.092,,,,,,,,,,,,,,,,,,,,,,,,,,,,,,,,,,,,,,,,,
,,,,,,00106,2023-11-11_15h10.42.889,vbt_B2_day2,2022.2.4,MacIntel,40,,,,,,,,,,,,,,,,,,,,,,,,,,,down,0,19.039,,0.346666667,-0.136666667,1,0,0,6.777,0,0,0,116,1,besmet,images/br_besmet.png,images/cb_besmet.png,0,,,,,,,,,,,,,,,,,,,,,,
,,,,,,00106,2023-11-11_15h10.42.889,vbt_B2_day2,2022.2.4,MacIntel,40,,,,,,,,,,,,,,,,,,,,,,,,,,,down,0,7.292,,0.346666667,-0.136666667,1,0,0,0.916,0,1,1,87,1,toeval,images/br_toeval.png,images/cb_toeval.png,0,,,,,,,,,,,,,,,,,,,,,,
,,,,,,00106,2023-11-11_15h10.42.889,vbt_B2_day2,2022.2.4,MacIntel,40,,,,,,,,,,,,,,,,,,,,,,,,,,,down,0,8.49,,0.183333333,-0.16,1,0,0,2.083,0,2,2,151,1,aanzoek,images/br_aanzoek.png,images/cb_aanzoek.png,0,,,,,,,,,,,,,,,,,,,,,,
,,,,,,00106,2023-11-11_15h10.42.889,vbt_B2_day2,2022.2.4,MacIntel,40,,,,,,,,,,,,,,,,,,,,,,,,,,,down,0,11.973,,0.183333333,-0.16,1,0,0,1.166,0,3,3,198,1,bedoelen,images/br_bedoelen.png,images/cb_bedoelen.png,0,,,,,,,,,,,,,,,,,,,,,,
,,,,,,00106,2023-11-11_15h10.42.889,vbt_B2_day2,2022.2.4,MacIntel,40,,,,,,,,,,,,,,,,,,,,,,,,,,,down,0,8.122,,0.183333333,-0.16,1,0,0,1.317,0,4,4,146,1,opkomen,images/br_opkomen.png,images/cb_opkomen.png,0,,,,,,,,,,,,,,,,,,,,,,
,,,,,,00106,2023-11-11_15h10.42.889,vbt_B2_day2,2022.2.4,MacIntel,40,,,,,,,,,,,,,,,,,,,,,,,,,,,down,0,6.549,,0.183333333,-0.16,1,0,0,1.63,0,5,5,89,1,slapen,images/br_slapen.png,images/cb_slapen.png,0,,,,,,,,,,,,,,,,,,,,,,
,,,,,,00106,2023-11-11_15h10.42.889,vbt_B2_day2,2022.2.4,MacIntel,40,,,,,,,,,,,,,,,,,,,,,,,,,,,down,0,12.739,,0.183333333,-0.16,1,0,0,1.484,0,6,6,167,1,eenhoorn,images/br_eenhoorn.png,images/cb_eenhoorn.png,0,,,,,,,,,,,,,,,,,,,,,,
,,,,,,00106,2023-11-11_15h10.42.889,vbt_B2_day2,2022.2.4,MacIntel,40,,,,,,,,,,,,,,,,,,,,,,,,,,,down,0,17.067,,0.538888889,-0.218888889,1,0,0,1.8,0,7,7,58,1,tekst,images/br_tekst.png,images/cb_tekst.png,1,teksttekst,,,,,,,,,,,,,,,,,,,,,
,,,,,,00106,2023-11-11_15h10.42.889,vbt_B2_day2,2022.2.4,MacIntel,40,,,,,,,,,,,,,,,,,,,,,,,,,,,down,0,16.553,,0.091111111,-0.276666667,1,0,0,2.816,0,8,8,178,1,huisdier,images/br_huisdier.png,images/cb_huisdier.png,1,huisdier,,,,,,,,,,,,,,,,,,,,,
,,,,,,00106,2023-11-11_15h10.42.889,vbt_B2_day2,2022.2.4,MacIntel,40,,,,,,,,,,,,,,,,,,,,,,,,,,,down,0,12.236,,0.017777778,-0.156666667,1,0,0,0.65,0,9,9,32,1,palm,images/br_palm.png,images/cb_palm.png,0,,,,,,,,,,,,,,,,,,,,,,
,,,,,,00106,2023-11-11_15h10.42.889,vbt_B2_day2,2022.2.4,MacIntel,40,,,,,,,,,,,,,,,,,,,,,,,,,,,down,0,7.338,,0.26,-0.16,1,0,0,1.116,0,10,10,86,1,woning,images/br_woning.png,images/cb_woning.png,0,,,,,,,,,,,,,,,,,,,,,,
,,,,,,00106,2023-11-11_15h10.42.889,vbt_B2_day2,2022.2.4,MacIntel,40,,,,,,,,,,,,,,,,,,,,,,,,,,,down,0,14.731,,0.564444444,-0.157777778,1,0,0,3.697,0,11,11,99,1,koffie,images/br_koffie.png,images/cb_koffie.png,1,koffie,,,,,,,,,,,,,,,,,,,,,
,,,,,,00106,2023-11-11_15h10.42.889,vbt_B2_day2,2022.2.4,MacIntel,40,,,,,,,,,,,,,,,,,,,,,,,,,,,down,0,15.293,,0.266666667,-0.118888889,1,0,0,1.212,0,12,12,61,1,groen,images/br_groen.png,images/cb_groen.png,0,,,,,,,,,,,,,,,,,,,,,,
,,,,,,00106,2023-11-11_15h10.42.889,vbt_B2_day2,2022.2.4,MacIntel,40,,,,,,,,,,,,,,,,,,,,,,,,,,,down,0,66.152,,0.2,-0.155555556,1,0,0,2.529,0,13,13,14,1,rijp,images/br_rijp.png,images/cb_rijp.png,0,,,,,,,,,,,,,,,,,,,,,,
,,,,,,00106,2023-11-11_15h10.42.889,vbt_B2_day2,2022.2.4,MacIntel,40,,,,,,,,,,,,,,,,,,,,,,,,,,,down,0,14.27,,0.2,-0.155555556,1,0,0,0.817,0,14,14,132,1,grappen,images/br_grappen.png,images/cb_grappen.png,0,,,,,,,,,,,,,,,,,,,,,,
,,,,,,00106,2023-11-11_15h10.42.889,vbt_B2_day2,2022.2.4,MacIntel,40,,,,,,,,,,,,,,,,,,,,,,,,,,,down,0,3.99,,0.2,-0.155555556,1,0,0,0.851,0,15,15,103,1,joggen,images/br_joggen.png,images/cb_joggen.png,0,,,,,,,,,,,,,,,,,,,,,,
,,,,,,00106,2023-11-11_15h10.42.889,vbt_B2_day2,2022.2.4,MacIntel,40,,,,,,,,,,,,,,,,,,,,,,,,,,,down,0,15.538,,0.356666667,-0.172222222,1,0,0,0.7,0,16,16,177,1,maaltijd,images/br_maaltijd.png,images/cb_maaltijd.png,1,maaltijd,,,,,,,,,,,,,,,,,,,,,
,,,,,,00106,2023-11-11_15h10.42.889,vbt_B2_day2,2022.2.4,MacIntel,40,,,,,,,,,,,,,,,,,,,,,,,,,,,down,0,13.258,,0.07,-0.207777778,1,0,0,0.633,0,17,17,26,1,leuk,images/br_leuk.png,images/cb_leuk.png,0,,,,,,,,,,,,,,,,,,,,,,
,,,,,,00106,2023-11-11_15h10.42.889,vbt_B2_day2,2022.2.4,MacIntel,40,,,,,,,,,,,,,,,,,,,,,,,,,,,down,0,9.654,,-0.183333333,-0.178888889,1,0,0,1.367,0,18,18,187,1,opkijken,images/br_opkijken.png,images/cb_opkijken.png,0,,,,,,,,,,,,,,,,,,,,,,
,,,,,,00106,2023-11-11_15h10.42.889,vbt_B2_day2,2022.2.4,MacIntel,40,,,,,,,,,,,,,,,,,,,,,,,,,,,down,0,4.193,,0.35,-0.107777778,1,0,0,0.753,0,19,19,97,1,loyaal,images/br_loyaal.png,images/cb_loyaal.png,1,loyaal,,,,,,,,,,,,,,,,,,,,,
,,,,,,00106,2023-11-11_15h10.42.889,vbt_B2_day2,2022.2.4,MacIntel,40,,,,,,,,,,,,,,,,,,,,,,,,,,,down,0,20.213,,-0.026666667,-0.08,1,0,0,0.934,0,20,20,143,1,hechten,images/br_hechten.png,images/cb_hechten.png,0,,,,,,,,,,,,,,,,,,,,,,
,,,,,,00106,2023-11-11_15h10.42.889,vbt_B2_day2,2022.2.4,MacIntel,40,,,,,,,,,,,,,,,,,,,,,,,,,,,down,0,12.041,,-0.026666667,-0.08,1,0,0,1.018,0,21,21,180,1,openbaar,images/br_openbaar.png,images/cb_openbaar.png,0,,,,,,,,,,,,,,,,,,,,,,
,,,,,,00106,2023-11-11_15h10.42.889,vbt_B2_day2,2022.2.4,MacIntel,40,,,,,,,,,,,,,,,,,,,,,,,,,,,down,0,1.522,,-0.026666667,-0.083333333,1,0,0,1,0,22,22,1,1,zaal,images/br_zaal.png,images/cb_zaal.png,0,,,,,,,,,,,,,,,,,,,,,,
,,,,,,00106,2023-11-11_15h10.42.889,vbt_B2_day2,2022.2.4,MacIntel,40,,,,,,,,,,,,,,,,,,,,,,,,,,,down,0,1.688,,-0.026666667,-0.083333333,1,0,0,5.467,0,23,23,2,1,jaar,images/br_jaar.png,images/cb_jaar.png,0,,,,,,,,,,,,,,,,,,,,,,
,,,,,,00106,2023-11-11_15h10.42.889,vbt_B2_day2,2022.2.4,MacIntel,40,,,,,,,,,,,,,,,,,,,,,,,,,,,down,0,13.408,,-0.026666667,-0.083333333,1,0,0,3.228,0,24,24,119,1,liefje,images/br_liefje.png,images/cb_liefje.png,0,,,,,,,,,,,,,,,,,,,,,,
,,,,,,00106,2023-11-11_15h10.42.889,vbt_B2_day2,2022.2.4,MacIntel,40,,,,,,,,,,,,,,,,,,,,,,,,,,,down,0,5.325,,-0.026666667,-0.083333333,1,0,0,0.6,0,25,25,46,1,jagen,images/br_jagen.png,images/cb_jagen.png,0,,,,,,,,,,,,,,,,,,,,,,
,,,,,,00106,2023-11-11_15h10.42.889,vbt_B2_day2,2022.2.4,MacIntel,40,,,,,,,,,,,,,,,,,,,,,,,,,,,down,0,6.902,,-0.044444444,-0.096666667,1,0,0,0.646,0,26,26,110,1,zuster,images/br_zuster.png,images/cb_zuster.png,0,,,,,,,,,,,,,,,,,,,,,,
,,,,,,00106,2023-11-11_15h10.42.889,vbt_B2_day2,2022.2.4,MacIntel,40,,,,,,,,,,,,,,,,,,,,,,,,,,,down,0,3.551,,-0.044444444,-0.096666667,1,0,0,0.699,0,27,27,31,1,poes,images/br_poes.png,images/cb_poes.png,0,,,,,,,,,,,,,,,,,,,,,,
,,,,,,00106,2023-11-11_15h10.42.889,vbt_B2_day2,2022.2.4,MacIntel,40,,,,,,,,,,,,,,,,,,,,,,,,,,,down,0,4.928,,-0.044444444,-0.096666667,1,0,0,0.665,0,28,28,64,1,wegen,images/br_wegen.png,images/cb_wegen.png,0,,,,,,,,,,,,,,,,,,,,,,
,,,,,,00106,2023-11-11_15h10.42.889,vbt_B2_day2,2022.2.4,MacIntel,40,,,,,,,,,,,,,,,,,,,,,,,,,,,down,0,1.637,,0.136666667,-0.117777778,1,0,0,0.768,0,29,29,16,1,ziek,images/br_ziek.png,images/cb_ziek.png,1,ziek,,,,,,,,,,,,,,,,,,,,,
,,,,,,00106,2023-11-11_15h10.42.889,vbt_B2_day2,2022.2.4,MacIntel,40,,,,,,,,,,,,,,,,,,,,,,,,,,,down,0,7.968,,0.136666667,-0.117777778,1,0,0,0.6,0,30,30,42,1,bleek,images/br_bleek.png,images/cb_bleek.png,0,,,,,,,,,,,,,,,,,,,,,,
,,,,,,00106,2023-11-11_15h10.42.889,vbt_B2_day2,2022.2.4,MacIntel,40,,,,,,,,,,,,,,,,,,,,,,,,,,,down,0,0.406,,0.211111111,-0.136666667,1,0,0,0.733,0,31,31,17,1,taal,images/br_taal.png,images/cb_taal.png,1,taal,,,,,,,,,,,,,,,,,,,,,
,,,,,,00106,2023-11-11_15h10.42.889,vbt_B2_day2,2022.2.4,MacIntel,40,,,,,,,,,,,,,,,,,,,,,,,,,,,down,0,8.424,,-0.018888889,-0.161111111,1,0,0,2.616,0,32,32,152,1,afnemen,images/br_afnemen.png,images/cb_afnemen.png,0,,,,,,,,,,,,,,,,,,,,,,
,,,,,,00106,2023-11-11_15h10.42.889,vbt_B2_day2,2022.2.4,MacIntel,40,,,,,,,,,,,,,,,,,,,,,,,,,,,down,0,3.341,,-0.018888889,-0.161111111,1,0,0,0.768,0,33,33,84,1,lokken,images/br_lokken.png,images/cb_lokken.png,0,,,,,,,,,,,,,,,,,,,,,,
,,,,,,00106,2023-11-11_15h10.42.889,vbt_B2_day2,2022.2.4,MacIntel,40,,,,,,,,,,,,,,,,,,,,,,,,,,,down,0,3.86,,-0.018888889,-0.161111111,1,0,0,2.717,0,34,34,51,1,samen,images/br_samen.png,images/cb_samen.png,0,,,,,,,,,,,,,,,,,,,,,,
,,,,,,00106,2023-11-11_15h10.42.889,vbt_B2_day2,2022.2.4,MacIntel,40,,,,,,,,,,,,,,,,,,,,,,,,,,,down,0,13.085,,-0.018888889,-0.161111111,1,0,0,0.6,0,35,35,197,1,spanning,images/br_spanning.png,images/cb_spanning.png,0,,,,,,,,,,,,,,,,,,,,,,
,,,,,,00106,2023-11-11_15h10.42.889,vbt_B2_day2,2022.2.4,MacIntel,40,,,,,,,,,,,,,,,,,,,,,,,,,,,down,0,6.989,,-0.018888889,-0.161111111,1,0,0,1.501,0,36,36,47,1,kabel,images/br_kabel.png,images/cb_kabel.png,0,,,,,,,,,,,,,,,,,,,,,,
,,,,,,00106,2023-11-11_15h10.42.889,vbt_B2_day2,2022.2.4,MacIntel,40,,,,,,,,,,,,,,,,,,,,,,,,,,,down,0,9.82,,-0.018888889,-0.161111111,1,0,0,1.148,0,37,37,190,1,goedkoop,images/br_goedkoop.png,images/cb_goedkoop.png,0,,,,,,,,,,,,,,,,,,,,,,
,,,,,,00106,2023-11-11_15h10.42.889,vbt_B2_day2,2022.2.4,MacIntel,40,,,,,,,,,,,,,,,,,,,,,,,,,,,down,0,9.695,,-0.085555556,-0.24,1,0,0,0.534,0,38,38,62,1,knaap,images/br_knaap.png,images/cb_knaap.png,0,,,,,,,,,,,,,,,,,,,,,,
,,,,,,00106,2023-11-11_15h10.42.889,vbt_B2_day2,2022.2.4,MacIntel,40,,,,,,,,,,,,,,,,,,,,,,,,,,,down,0,9.792,,-0.112222222,-0.164444444,1,0,0,2.633,0,39,39,65,1,parel,images/br_parel.png,images/cb_parel.png,0,,,,,,,,,,,,,,,,,,,,,,
,,,,,,00106,2023-11-11_15h10.42.889,vbt_B2_day2,2022.2.4,MacIntel,40,,,,,,,,,,,,,,,,,,,,,,,,,,,down,0,4.921,,0.264444444,-0.102222222,1,0,0,0.733,0,40,40,59,1,kring,images/br_kring.png,images/cb_kring.png,1,kring,,,,,,,,,,,,,,,,,,,,,
,,,,,,00106,2023-11-11_15h10.42.889,vbt_B2_day2,2022.2.4,MacIntel,40,,,,,,,,,,,,,,,,,,,,,,,,,,,down,0,5.503,,0.46,-0.078888889,1,0,0,0.534,0,41,41,56,1,traag,images/br_traag.png,images/cb_traag.png,1,traag,,,,,,,,,,,,,,,,,,,,,
,,,,,,00106,2023-11-11_15h10.42.889,vbt_B2_day2,2022.2.4,MacIntel,40,,,,,,,,,,,,,,,,,,,,,,,,,,,down,0,12.089,,-0.066666667,-0.148888889,1,0,0,1.934,0,42,42,145,1,invloed,images/br_invloed.png,images/cb_invloed.png,0,,,,,,,,,,,,,,,,,,,,,,
,,,,,,00106,2023-11-11_15h10.42.889,vbt_B2_day2,2022.2.4,MacIntel,40,,,,,,,,,,,,,,,,,,,,,,,,,,,down,0,91.76,,-0.066666667,-0.148888889,1,0,0,0.534,0,43,43,54,1,gebit,images/br_gebit.png,images/cb_gebit.png,0,,,,,,,,,,,,,,,,,,,,,,
,,,,,,00106,2023-11-11_15h10.42.889,vbt_B2_day2,2022.2.4,MacIntel,40,,,,,,,,,,,,,,,,,,,,,,,,,,,down,0,4.782,,0.315555556,-0.206666667,1,0,0,20.834,0,44,44,3,1,mand,images/br_mand.png,images/cb_mand.png,0,,,,,,,,,,,,,,,,,,,,,,
,,,,,,00106,2023-11-11_15h10.42.889,vbt_B2_day2,2022.2.4,MacIntel,40,,,,,,,,,,,,,,,,,,,,,,,,,,,down,0,6.455,,0.315555556,-0.206666667,1,0,0,0.633,0,45,45,118,1,vinger,images/br_vinger.png,images/cb_vinger.png,0,,,,,,,,,,,,,,,,,,,,,,
,,,,,,00106,2023-11-11_15h10.42.889,vbt_B2_day2,2022.2.4,MacIntel,40,,,,,,,,,,,,,,,,,,,,,,,,,,,down,0,13.354,,0.073333333,-0.183333333,1,0,0,0.685,0,46,46,154,1,aflopen,images/br_aflopen.png,images/cb_aflopen.png,0,,,,,,,,,,,,,,,,,,,,,,
,,,,,,00106,2023-11-11_15h10.42.889,vbt_B2_day2,2022.2.4,MacIntel,40,,,,,,,,,,,,,,,,,,,,,,,,,,,down,0,2.855,,0.33,0.02,1,0,0,0.834,0,47,47,29,1,baas,images/br_baas.png,images/cb_baas.png,0,,,,,,,,,,,,,,,,,,,,,,
,,,,,,00106,2023-11-11_15h10.42.889,vbt_B2_day2,2022.2.4,MacIntel,40,,,,,,,,,,,,,,,,,,,,,,,,,,,down,0,11.228,,0.33,0.02,1,0,0,0.666,0,48,48,91,1,gezond,images/br_gezond.png,images/cb_gezond.png,0,,,,,,,,,,,,,,,,,,,,,,
,,,,,,00106,2023-11-11_15h10.42.889,vbt_B2_day2,2022.2.4,MacIntel,40,,,,,,,,,,,,,,,,,,,,,,,,,,,down,0,25.292,,0.33,0.02,1,0,0,4.1,0,49,49,85,1,heilig,images/br_heilig.png,images/cb_heilig.png,0,,,,,,,,,,,,,,,,,,,,,,
,,,,,,00106,2023-11-11_15h10.42.889,vbt_B2_day2,2022.2.4,MacIntel,40,,,,,,,,,,,,,,,,,,,,,,,,,,,down,0,8.273,,0.33,0.02,1,0,0,0.616,0,50,50,134,1,geliefd,images/br_geliefd.png,images/cb_geliefd.png,0,,,,,,,,,,,,,,,,,,,,,,
,,,,,,00106,2023-11-11_15h10.42.889,vbt_B2_day2,2022.2.4,MacIntel,40,,,,,,,,,,,,,,,,,,,,,,,,,,,down,0,4.272,,0.342222222,0.033333333,1,0,0,0.784,0,51,51,52,1,wagon,images/br_wagon.png,images/cb_wagon.png,0,,,,,,,,,,,,,,,,,,,,,,
,,,,,,00106,2023-11-11_15h10.42.889,vbt_B2_day2,2022.2.4,MacIntel,40,,,,,,,,,,,,,,,,,,,,,,,,,,,down,0,2.069,,0.342222222,0.033333333,1,0,0,0.7,0,52,52,109,1,totaal,images/br_totaal.png,images/cb_totaal.png,0,,,,,,,,,,,,,,,,,,,,,,
,,,,,,00106,2023-11-11_15h10.42.889,vbt_B2_day2,2022.2.4,MacIntel,40,,,,,,,,,,,,,,,,,,,,,,,,,,,down,0,10.443,,0.342222222,0.033333333,1,0,0,2.883,0,53,53,33,1,vlek,images/br_vlek.png,images/cb_vlek.png,0,,,,,,,,,,,,,,,,,,,,,,
,,,,,,00106,2023-11-11_15h10.42.889,vbt_B2_day2,2022.2.4,MacIntel,40,,,,,,,,,,,,,,,,,,,,,,,,,,,down,0,7.509,,0.028888889,-0.125555556,1,0,0,0.73,0,54,54,107,1,maling,images/br_maling.png,images/cb_maling.png,0,,,,,,,,,,,,,,,,,,,,,,
,,,,,,00106,2023-11-11_15h10.42.889,vbt_B2_day2,2022.2.4,MacIntel,40,,,,,,,,,,,,,,,,,,,,,,,,,,,down,0,17.071,,0.268888889,-0.142222222,1,0,0,3.033,0,55,55,94,1,oceaan,images/br_oceaan.png,images/cb_oceaan.png,0,,,,,,,,,,,,,,,,,,,,,,
,,,,,,00106,2023-11-11_15h10.42.889,vbt_B2_day2,2022.2.4,MacIntel,40,,,,,,,,,,,,,,,,,,,,,,,,,,,down,0,2.701,,0.268888889,-0.142222222,1,0,0,0.818,0,56,56,5,1,blad,images/br_blad.png,images/cb_blad.png,0,,,,,,,,,,,,,,,,,,,,,,
,,,,,,00106,2023-11-11_15h10.42.889,vbt_B2_day2,2022.2.4,MacIntel,40,,,,,,,,,,,,,,,,,,,,,,,,,,,down,0,34.106,,0.268888889,-0.142222222,1,0,0,0.923,0,57,57,100,1,geduld,images/br_geduld.png,images/cb_geduld.png,0,,,,,,,,,,,,,,,,,,,,,,
,,,,,,00106,2023-11-11_15h10.42.889,vbt_B2_day2,2022.2.4,MacIntel,40,,,,,,,,,,,,,,,,,,,,,,,,,,,down,0,2.256,,0.268888889,-0.142222222,1,0,0,1.486,0,58,58,18,1,blik,images/br_blik.png,images/cb_blik.png,1,blik,,,,,,,,,,,,,,,,,,,,,
,,,,,,00106,2023-11-11_15h10.42.889,vbt_B2_day2,2022.2.4,MacIntel,40,,,,,,,,,,,,,,,,,,,,,,,,,,,down,0,2.001,,0.268888889,-0.142222222,1,0,0,0.401,0,59,59,35,1,lust,images/br_lust.png,images/cb_lust.png,0,,,,,,,,,,,,,,,,,,,,,,
,,,,,,00106,2023-11-11_15h10.42.889,vbt_B2_day2,2022.2.4,MacIntel,40,,,,,,,,,,,,,,,,,,,,,,,,,,,down,0,9.853,,0.268888889,-0.142222222,1,0,0,0.533,0,60,60,93,1,waarop,images/br_waarop.png,images/cb_waarop.png,0,,,,,,,,,,,,,,,,,,,,,,
,,,,,,00106,2023-11-11_15h10.42.889,vbt_B2_day2,2022.2.4,MacIntel,40,,,,,,,,,,,,,,,,,,,,,,,,,,,down,0,16.756,,0.268888889,-0.142222222,1,0,0,0.866,0,61,61,135,1,gedicht,images/br_gedicht.png,images/cb_gedicht.png,0,,,,,,,,,,,,,,,,,,,,,,
,,,,,,00106,2023-11-11_15h10.42.889,vbt_B2_day2,2022.2.4,MacIntel,40,,,,,,,,,,,,,,,,,,,,,,,,,,,down,0,6.804,,0.268888889,-0.142222222,1,0,0,0.665,0,62,62,44,1,flits,images/br_flits.png,images/cb_flits.png,0,,,,,,,,,,,,,,,,,,,,,,
,,,,,,00106,2023-11-11_15h10.42.889,vbt_B2_day2,2022.2.4,MacIntel,40,,,,,,,,,,,,,,,,,,,,,,,,,,,down,0,15.924,,0.268888889,-0.142222222,1,0,0,3.635,0,63,63,108,1,excuus,images/br_excuus.png,images/cb_excuus.png,0,,,,,,,,,,,,,,,,,,,,,,
,,,,,,00106,2023-11-11_15h10.42.889,vbt_B2_day2,2022.2.4,MacIntel,40,,,,,,,,,,,,,,,,,,,,,,,,,,,down,0,15.661,,0.268888889,-0.142222222,1,0,0,1.702,0,64,64,4,1,moes,images/br_moes.png,images/cb_moes.png,0,,,,,,,,,,,,,,,,,,,,,,
,,,,,,00106,2023-11-11_15h10.42.889,vbt_B2_day2,2022.2.4,MacIntel,40,,,,,,,,,,,,,,,,,,,,,,,,,,,down,0,31.876,,-0.4,-0.206666667,1,0,0,0.383,0,65,65,66,1,lever,images/br_lever.png,images/cb_lever.png,0,,,,,,,,,,,,,,,,,,,,,,
,,,,,,00106,2023-11-11_15h10.42.889,vbt_B2_day2,2022.2.4,MacIntel,40,,,,,,,,,,,,,,,,,,,,,,,,,,,down,0,11.276,,-0.4,-0.206666667,1,0,0,0.869,0,66,66,68,1,schat,images/br_schat.png,images/cb_schat.png,0,,,,,,,,,,,,,,,,,,,,,,
,,,,,,00106,2023-11-11_15h10.42.889,vbt_B2_day2,2022.2.4,MacIntel,40,,,,,,,,,,,,,,,,,,,,,,,,,,,down,0,8.589,,-0.4,-0.206666667,1,0,0,0.649,0,67,67,60,1,jasje,images/br_jasje.png,images/cb_jasje.png,0,,,,,,,,,,,,,,,,,,,,,,
,,,,,,00106,2023-11-11_15h10.42.889,vbt_B2_day2,2022.2.4,MacIntel,40,,,,,,,,,,,,,,,,,,,,,,,,,,,down,0,18.121,,-0.4,-0.206666667,1,0,0,0.683,0,68,68,168,1,bisschop,images/br_bisschop.png,images/cb_bisschop.png,0,,,,,,,,,,,,,,,,,,,,,,
,,,,,,00106,2023-11-11_15h10.42.889,vbt_B2_day2,2022.2.4,MacIntel,40,,,,,,,,,,,,,,,,,,,,,,,,,,,down,0,10.157,,0.222222222,-0.064444444,1,0,0,0.601,0,69,69,176,1,techniek,images/br_techniek.png,images/cb_techniek.png,1,techniek,,,,,,,,,,,,,,,,,,,,,
,,,,,,00106,2023-11-11_15h10.42.889,vbt_B2_day2,2022.2.4,MacIntel,40,,,,,,,,,,,,,,,,,,,,,,,,,,,down,0,7.886,,0.222222222,-0.064444444,1,0,0,0.617,0,70,70,34,1,vorm,images/br_vorm.png,images/cb_vorm.png,0,,,,,,,,,,,,,,,,,,,,,,
,,,,,,00106,2023-11-11_15h10.42.889,vbt_B2_day2,2022.2.4,MacIntel,40,,,,,,,,,,,,,,,,,,,,,,,,,,,down,0,21.509,,0.222222222,-0.064444444,1,0,0,2.569,0,71,71,147,1,komisch,images/br_komisch.png,images/cb_komisch.png,0,,,,,,,,,,,,,,,,,,,,,,
,,,,,,00106,2023-11-11_15h10.42.889,vbt_B2_day2,2022.2.4,MacIntel,40,,,,,,,,,,,,,,,,,,,,,,,,,,,down,0,19.893,,0.222222222,-0.064444444,1,0,0,2.149,0,72,72,156,1,rechten,images/br_rechten.png,images/cb_rechten.png,0,,,,,,,,,,,,,,,,,,,,,,
,,,,,,00106,2023-11-11_15h10.42.889,vbt_B2_day2,2022.2.4,MacIntel,40,,,,,,,,,,,,,,,,,,,,,,,,,,,down,0,15.22,,0.222222222,-0.064444444,1,0,0,1.082,0,73,73,158,1,innemen,images/br_innemen.png,images/cb_innemen.png,0,,,,,,,,,,,,,,,,,,,,,,
,,,,,,00106,2023-11-11_15h10.42.889,vbt_B2_day2,2022.2.4,MacIntel,40,,,,,,,,,,,,,,,,,,,,,,,,,,,down,0,5.868,,0.222222222,-0.064444444,1,0,0,0.766,0,74,74,127,1,doodmoe,images/br_doodmoe.png,images/cb_doodmoe.png,0,,,,,,,,,,,,,,,,,,,,,,
,,,,,,00106,2023-11-11_15h10.42.889,vbt_B2_day2,2022.2.4,MacIntel,40,,,,,,,,,,,,,,,,,,,,,,,,,,,down,0,14.996,,0.222222222,-0.064444444,1,0,0,1.265,0,75,75,142,1,snuiven,images/br_snuiven.png,images/cb_snuiven.png,0,,,,,,,,,,,,,,,,,,,,,,
,,,,,,00106,2023-11-11_15h10.42.889,vbt_B2_day2,2022.2.4,MacIntel,40,,,,,,,,,,,,,,,,,,,,,,,,,,,down,0,4.703,,0.222222222,-0.064444444,1,0,0,0.85,0,76,76,21,1,mist,images/br_mist.png,images/cb_mist.png,0,,,,,,,,,,,,,,,,,,,,,,
,,,,,,00106,2023-11-11_15h10.42.889,vbt_B2_day2,2022.2.4,MacIntel,40,,,,,,,,,,,,,,,,,,,,,,,,,,,down,0,17.124,,0.222222222,-0.064444444,1,0,0,8.332,0,77,77,88,1,boeien,images/br_boeien.png,images/cb_boeien.png,0,,,,,,,,,,,,,,,,,,,,,,
,,,,,,00106,2023-11-11_15h10.42.889,vbt_B2_day2,2022.2.4,MacIntel,40,,,,,,,,,,,,,,,,,,,,,,,,,,,down,0,6.529,,0.222222222,-0.064444444,1,0,0,1.399,0,78,78,144,1,eetlust,images/br_eetlust.png,images/cb_eetlust.png,0,,,,,,,,,,,,,,,,,,,,,,
,,,,,,00106,2023-11-11_15h10.42.889,vbt_B2_day2,2022.2.4,MacIntel,40,,,,,,,,,,,,,,,,,,,,,,,,,,,down,0,23.272,,0.33,-0.207777778,1,0,0,0.684,0,79,79,136,1,waarbij,images/br_waarbij.png,images/cb_waarbij.png,1,waarbij,,,,,,,,,,,,,,,,,,,,,
,,,,,,00106,2023-11-11_15h10.42.889,vbt_B2_day2,2022.2.4,MacIntel,40,,,,,,,,,,,,,,,,,,,,,,,,,,,down,0,3.916,,-0.067777778,-0.136666667,1,0,0,0.367,0,80,80,182,1,bijkomen,images/br_bijkomen.png,images/cb_bijkomen.png,0,,,,,,,,,,,,,,,,,,,,,,
,,,,,,00106,2023-11-11_15h10.42.889,vbt_B2_day2,2022.2.4,MacIntel,40,,,,,,,,,,,,,,,,,,,,,,,,,,,down,0,0.818,,-0.067777778,-0.136666667,1,0,0,1.035,0,81,81,9,1,hier,images/br_hier.png,images/cb_hier.png,0,,,,,,,,,,,,,,,,,,,,,,
,,,,,,00106,2023-11-11_15h10.42.889,vbt_B2_day2,2022.2.4,MacIntel,40,,,,,,,,,,,,,,,,,,,,,,,,,,,down,0,15.811,,-0.067777778,-0.136666667,1,0,0,0.583,0,82,82,133,1,seizoen,images/br_seizoen.png,images/cb_seizoen.png,0,,,,,,,,,,,,,,,,,,,,,,
,,,,,,00106,2023-11-11_15h10.42.889,vbt_B2_day2,2022.2.4,MacIntel,40,,,,,,,,,,,,,,,,,,,,,,,,,,,down,0,6.309,,-0.067777778,-0.136666667,1,0,0,0.468,0,83,83,92,1,geheim,images/br_geheim.png,images/cb_geheim.png,0,,,,,,,,,,,,,,,,,,,,,,
,,,,,,00106,2023-11-11_15h10.42.889,vbt_B2_day2,2022.2.4,MacIntel,40,,,,,,,,,,,,,,,,,,,,,,,,,,,down,0,1.034,,-0.067777778,-0.136666667,1,0,0,0.633,0,84,84,8,1,knie,images/br_knie.png,images/cb_knie.png,0,,,,,,,,,,,,,,,,,,,,,,
,,,,,,00106,2023-11-11_15h10.42.889,vbt_B2_day2,2022.2.4,MacIntel,40,,,,,,,,,,,,,,,,,,,,,,,,,,,down,0,4.552,,-0.067777778,-0.136666667,1,0,0,0.851,0,85,85,45,1,piste,images/br_piste.png,images/cb_piste.png,0,,,,,,,,,,,,,,,,,,,,,,
,,,,,,00106,2023-11-11_15h10.42.889,vbt_B2_day2,2022.2.4,MacIntel,40,,,,,,,,,,,,,,,,,,,,,,,,,,,down,0,5.832,,-0.067777778,-0.136666667,1,0,0,0.534,0,86,86,183,1,getuigen,images/br_getuigen.png,images/cb_getuigen.png,0,,,,,,,,,,,,,,,,,,,,,,
,,,,,,00106,2023-11-11_15h10.42.889,vbt_B2_day2,2022.2.4,MacIntel,40,,,,,,,,,,,,,,,,,,,,,,,,,,,down,0,9.605,,-0.067777778,-0.136666667,1,0,0,0.533,0,87,87,75,1,snoep,images/br_snoep.png,images/cb_snoep.png,0,,,,,,,,,,,,,,,,,,,,,,
,,,,,,00106,2023-11-11_15h10.42.889,vbt_B2_day2,2022.2.4,MacIntel,40,,,,,,,,,,,,,,,,,,,,,,,,,,,down,0,0.82,,-0.064444444,-0.136666667,1,0,0,0.634,0,88,88,55,1,praat,images/br_praat.png,images/cb_praat.png,0,,,,,,,,,,,,,,,,,,,,,,
,,,,,,00106,2023-11-11_15h10.42.889,vbt_B2_day2,2022.2.4,MacIntel,40,,,,,,,,,,,,,,,,,,,,,,,,,,,down,0,5.657,,-0.064444444,-0.136666667,1,0,0,0.615,0,89,89,70,1,ijdel,images/br_ijdel.png,images/cb_ijdel.png,0,,,,,,,,,,,,,,,,,,,,,,
,,,,,,00106,2023-11-11_15h10.42.889,vbt_B2_day2,2022.2.4,MacIntel,40,,,,,,,,,,,,,,,,,,,,,,,,,,,down,0,4.892,,-0.064444444,-0.136666667,1,0,0,0.501,0,90,90,53,1,baron,images/br_baron.png,images/cb_baron.png,0,,,,,,,,,,,,,,,,,,,,,,
,,,,,,00106,2023-11-11_15h10.42.889,vbt_B2_day2,2022.2.4,MacIntel,40,,,,,,,,,,,,,,,,,,,,,,,,,,,down,0,7.19,,-0.064444444,-0.136666667,1,0,0,0.583,0,91,91,165,1,feestdag,images/br_feestdag.png,images/cb_feestdag.png,0,,,,,,,,,,,,,,,,,,,,,,
,,,,,,00106,2023-11-11_15h10.42.889,vbt_B2_day2,2022.2.4,MacIntel,40,,,,,,,,,,,,,,,,,,,,,,,,,,,down,0,3.789,,-0.064444444,-0.134444444,1,0,0,2.27,0,92,92,50,1,stoom,images/br_stoom.png,images/cb_stoom.png,0,,,,,,,,,,,,,,,,,,,,,,
,,,,,,00106,2023-11-11_15h10.42.889,vbt_B2_day2,2022.2.4,MacIntel,40,,,,,,,,,,,,,,,,,,,,,,,,,,,down,0,4.125,,-0.064444444,-0.134444444,1,0,0,0.883,0,93,93,28,1,stal,images/br_stal.png,images/cb_stal.png,0,,,,,,,,,,,,,,,,,,,,,,
,,,,,,00106,2023-11-11_15h10.42.889,vbt_B2_day2,2022.2.4,MacIntel,40,,,,,,,,,,,,,,,,,,,,,,,,,,,down,0,1.856,,-0.064444444,-0.134444444,1,0,0,0.75,0,94,94,120,1,klimmen,images/br_klimmen.png,images/cb_klimmen.png,0,,,,,,,,,,,,,,,,,,,,,,
,,,,,,00106,2023-11-11_15h10.42.889,vbt_B2_day2,2022.2.4,MacIntel,40,,,,,,,,,,,,,,,,,,,,,,,,,,,down,0,7.255,,-0.064444444,-0.134444444,1,0,0,0.484,0,95,95,140,1,blijven,images/br_blijven.png,images/cb_blijven.png,0,,,,,,,,,,,,,,,,,,,,,,
,,,,,,00106,2023-11-11_15h10.42.889,vbt_B2_day2,2022.2.4,MacIntel,40,,,,,,,,,,,,,,,,,,,,,,,,,,,down,0,4.784,,0.245555556,-0.12,1,0,0,0.733,0,96,96,96,1,slagen,images/br_slagen.png,images/cb_slagen.png,1,slagen,,,,,,,,,,,,,,,,,,,,,
,,,,,,00106,2023-11-11_15h10.42.889,vbt_B2_day2,2022.2.4,MacIntel,40,,,,,,,,,,,,,,,,,,,,,,,,,,,down,0,19.52,,0.245555556,-0.12,1,0,0,2.233,0,97,97,40,1,schep,images/br_schep.png,images/cb_schep.png,0,,,,,,,,,,,,,,,,,,,,,,
,,,,,,00106,2023-11-11_15h10.42.889,vbt_B2_day2,2022.2.4,MacIntel,40,,,,,,,,,,,,,,,,,,,,,,,,,,,down,0,4.346,,0.245555556,-0.12,1,0,0,0.615,0,98,98,73,1,volop,images/br_volop.png,images/cb_volop.png,0,,,,,,,,,,,,,,,,,,,,,,
,,,,,,00106,2023-11-11_15h10.42.889,vbt_B2_day2,2022.2.4,MacIntel,40,,,,,,,,,,,,,,,,,,,,,,,,,,,down,0,3.808,,0.363333333,-0.178888889,1,0,0,0.466,0,99,99,82,1,muziek,images/br_muziek.png,images/cb_muziek.png,0,,,,,,,,,,,,,,,,,,,,,,
,,,,,,00106,2023-11-11_15h10.42.889,vbt_B2_day2,2022.2.4,MacIntel,40,,,,,,,,,,,,,,,,,,,,,,,,,,,down,0,3.821,,0.438888889,-0.12,1,0,0,2.4,0,100,100,137,1,trekker,images/br_trekker.png,images/cb_trekker.png,1,trekker,,,,,,,,,,,,,,,,,,,,,
,,,,,,00106,2023-11-11_15h10.42.889,vbt_B2_day2,2022.2.4,MacIntel,40,,,,,,,,,,,,,,,,,,,,,,,,,,,down,0,19.038,,0.438888889,-0.12,1,0,0,0.716,0,101,101,159,1,sufferd,images/br_sufferd.png,images/cb_sufferd.png,0,,,,,,,,,,,,,,,,,,,,,,
,,,,,,00106,2023-11-11_15h10.42.889,vbt_B2_day2,2022.2.4,MacIntel,40,,,,,,,,,,,,,,,,,,,,,,,,,,,down,0,3.976,,0.418888889,-0.167777778,1,0,0,0.468,0,102,102,98,1,kreeft,images/br_kreeft.png,images/cb_kreeft.png,1,kreeft,,,,,,,,,,,,,,,,,,,,,
,,,,,,00106,2023-11-11_15h10.42.889,vbt_B2_day2,2022.2.4,MacIntel,40,,,,,,,,,,,,,,,,,,,,,,,,,,,down,0,19.843,,0.251111111,-0.154444444,1,0,0,2.818,0,103,103,199,1,beseffen,images/br_beseffen.png,images/cb_beseffen.png,0,,,,,,,,,,,,,,,,,,,,,,
,,,,,,00106,2023-11-11_15h10.42.889,vbt_B2_day2,2022.2.4,MacIntel,40,,,,,,,,,,,,,,,,,,,,,,,,,,,down,0,4.069,,0.251111111,-0.154444444,1,0,0,0.632,0,104,104,102,1,legaal,images/br_legaal.png,images/cb_legaal.png,0,,,,,,,,,,,,,,,,,,,,,,
,,,,,,00106,2023-11-11_15h10.42.889,vbt_B2_day2,2022.2.4,MacIntel,40,,,,,,,,,,,,,,,,,,,,,,,,,,,down,0,5.17,,0.251111111,-0.154444444,1,0,0,0.5,0,105,105,83,1,mening,images/br_mening.png,images/cb_mening.png,0,,,,,,,,,,,,,,,,,,,,,,
,,,,,,00106,2023-11-11_15h10.42.889,vbt_B2_day2,2022.2.4,MacIntel,40,,,,,,,,,,,,,,,,,,,,,,,,,,,down,0,10.521,,0.251111111,-0.154444444,1,0,0,0.433,0,106,106,80,1,kanjer,images/br_kanjer.png,images/cb_kanjer.png,0,,,,,,,,,,,,,,,,,,,,,,
,,,,,,00106,2023-11-11_15h10.42.889,vbt_B2_day2,2022.2.4,MacIntel,40,,,,,,,,,,,,,,,,,,,,,,,,,,,down,0,1.158,,0.251111111,-0.154444444,1,0,0,0.485,0,107,107,48,1,steel,images/br_steel.png,images/cb_steel.png,0,,,,,,,,,,,,,,,,,,,,,,
,,,,,,00106,2023-11-11_15h10.42.889,vbt_B2_day2,2022.2.4,MacIntel,40,,,,,,,,,,,,,,,,,,,,,,,,,,,down,0,10.243,,0.251111111,-0.154444444,1,0,0,0.4,0,108,108,123,1,hiervan,images/br_hiervan.png,images/cb_hiervan.png,0,,,,,,,,,,,,,,,,,,,,,,
,,,,,,00106,2023-11-11_15h10.42.889,vbt_B2_day2,2022.2.4,MacIntel,40,,,,,,,,,,,,,,,,,,,,,,,,,,,down,0,7.284,,0.251111111,-0.154444444,1,0,0,0.499,0,109,109,195,1,middelen,images/br_middelen.png,images/cb_middelen.png,0,,,,,,,,,,,,,,,,,,,,,,
,,,,,,00106,2023-11-11_15h10.42.889,vbt_B2_day2,2022.2.4,MacIntel,40,,,,,,,,,,,,,,,,,,,,,,,,,,,down,0,10.008,,0.251111111,-0.154444444,1,0,0,0.45,0,110,110,30,1,uien,images/br_uien.png,images/cb_uien.png,0,,,,,,,,,,,,,,,,,,,,,,
,,,,,,00106,2023-11-11_15h10.42.889,vbt_B2_day2,2022.2.4,MacIntel,40,,,,,,,,,,,,,,,,,,,,,,,,,,,down,0,6.253,,0.25,-0.154444444,1,0,0,0.45,0,111,111,181,1,toegeven,images/br_toegeven.png,images/cb_toegeven.png,0,,,,,,,,,,,,,,,,,,,,,,
,,,,,,00106,2023-11-11_15h10.42.889,vbt_B2_day2,2022.2.4,MacIntel,40,,,,,,,,,,,,,,,,,,,,,,,,,,,down,0,2.472,,0.25,-0.154444444,1,0,0,1.051,0,112,112,11,1,mode,images/br_mode.png,images/cb_mode.png,0,,,,,,,,,,,,,,,,,,,,,,
,,,,,,00106,2023-11-11_15h10.42.889,vbt_B2_day2,2022.2.4,MacIntel,40,,,,,,,,,,,,,,,,,,,,,,,,,,,down,0,2.472,,0.25,-0.154444444,1,0,0,0.449,0,113,113,125,1,aanzien,images/br_aanzien.png,images/cb_aanzien.png,0,,,,,,,,,,,,,,,,,,,,,,
,,,,,,00106,2023-11-11_15h10.42.889,vbt_B2_day2,2022.2.4,MacIntel,40,,,,,,,,,,,,,,,,,,,,,,,,,,,down,0,4.623,,0.25,-0.154444444,1,0,0,0.468,0,114,114,7,1,geld,images/br_geld.png,images/cb_geld.png,0,,,,,,,,,,,,,,,,,,,,,,
,,,,,,00106,2023-11-11_15h10.42.889,vbt_B2_day2,2022.2.4,MacIntel,40,,,,,,,,,,,,,,,,,,,,,,,,,,,down,0,11.33,,0.25,-0.154444444,1,0,0,0.514,0,115,115,185,1,mijnheer,images/br_mijnheer.png,images/cb_mijnheer.png,0,,,,,,,,,,,,,,,,,,,,,,
,,,,,,00106,2023-11-11_15h10.42.889,vbt_B2_day2,2022.2.4,MacIntel,40,,,,,,,,,,,,,,,,,,,,,,,,,,,down,0,3.455,,0.25,-0.154444444,1,0,0,0.466,0,116,116,23,1,zout,images/br_zout.png,images/cb_zout.png,0,,,,,,,,,,,,,,,,,,,,,,
,,,,,,00106,2023-11-11_15h10.42.889,vbt_B2_day2,2022.2.4,MacIntel,40,,,,,,,,,,,,,,,,,,,,,,,,,,,down,0,4.442,,0.25,-0.154444444,1,0,0,0.469,0,117,117,128,1,prikken,images/br_prikken.png,images/cb_prikken.png,0,,,,,,,,,,,,,,,,,,,,,,
,,,,,,00106,2023-11-11_15h10.42.889,vbt_B2_day2,2022.2.4,MacIntel,40,,,,,,,,,,,,,,,,,,,,,,,,,,,down,0,8.276,,0.397777778,-0.065555556,1,0,0,0.717,0,118,118,19,1,geit,images/br_geit.png,images/cb_geit.png,1,geit,,,,,,,,,,,,,,,,,,,,,
,,,,,,00106,2023-11-11_15h10.42.889,vbt_B2_day2,2022.2.4,MacIntel,40,,,,,,,,,,,,,,,,,,,,,,,,,,,down,0,7.668,,0.188888889,-0.024444444,1,0,0,0.351,0,119,119,161,1,attentie,images/br_attentie.png,images/cb_attentie.png,0,,,,,,,,,,,,,,,,,,,,,,
,,,,,,00106,2023-11-11_15h10.42.889,vbt_B2_day2,2022.2.4,MacIntel,40,,,,,,,,,,,,,,,,,,,,,,,,,,,down,0,7.741,,0.421111111,-0.012222222,1,0,0,0.764,0,120,120,196,1,nakijken,images/br_nakijken.png,images/cb_nakijken.png,0,,,,,,,,,,,,,,,,,,,,,,
,,,,,,00106,2023-11-11_15h10.42.889,vbt_B2_day2,2022.2.4,MacIntel,40,,,,,,,,,,,,,,,,,,,,,,,,,,,down,0,15.947,,0.415555556,-0.283333333,1,0,0,6.583,0,121,121,193,1,weeshuis,images/br_weeshuis.png,images/cb_weeshuis.png,0,,,,,,,,,,,,,,,,,,,,,,
,,,,,,00106,2023-11-11_15h10.42.889,vbt_B2_day2,2022.2.4,MacIntel,40,,,,,,,,,,,,,,,,,,,,,,,,,,,down,0,3.434,,0.415555556,-0.283333333,1,0,0,0.768,0,122,122,71,1,bever,images/br_bever.png,images/cb_bever.png,0,,,,,,,,,,,,,,,,,,,,,,
,,,,,,00106,2023-11-11_15h10.42.889,vbt_B2_day2,2022.2.4,MacIntel,40,,,,,,,,,,,,,,,,,,,,,,,,,,,down,0,5.759,,0.415555556,-0.283333333,1,0,0,0.8,0,123,123,78,1,leren,images/br_leren.png,images/cb_leren.png,0,,,,,,,,,,,,,,,,,,,,,,
,,,,,,00106,2023-11-11_15h10.42.889,vbt_B2_day2,2022.2.4,MacIntel,40,,,,,,,,,,,,,,,,,,,,,,,,,,,down,0,3.177,,0.415555556,-0.283333333,1,0,0,0.734,0,124,124,20,1,site,images/br_site.png,images/cb_site.png,0,,,,,,,,,,,,,,,,,,,,,,
,,,,,,00106,2023-11-11_15h10.42.889,vbt_B2_day2,2022.2.4,MacIntel,40,,,,,,,,,,,,,,,,,,,,,,,,,,,down,0,5.475,,0.415555556,-0.283333333,1,0,0,0.349,0,125,125,139,1,stiekem,images/br_stiekem.png,images/cb_stiekem.png,1,stiekem,,,,,,,,,,,,,,,,,,,,,
,,,,,,00106,2023-11-11_15h10.42.889,vbt_B2_day2,2022.2.4,MacIntel,40,,,,,,,,,,,,,,,,,,,,,,,,,,,down,0,15.026,,0.438888889,-0.008888889,1,0,0,0.698,0,126,126,105,1,wijlen,images/br_wijlen.png,images/cb_wijlen.png,0,,,,,,,,,,,,,,,,,,,,,,
,,,,,,00106,2023-11-11_15h10.42.889,vbt_B2_day2,2022.2.4,MacIntel,40,,,,,,,,,,,,,,,,,,,,,,,,,,,down,0,6.153,,0.438888889,-0.008888889,1,0,0,0.567,0,127,127,129,1,verhaal,images/br_verhaal.png,images/cb_verhaal.png,0,,,,,,,,,,,,,,,,,,,,,,
,,,,,,00106,2023-11-11_15h10.42.889,vbt_B2_day2,2022.2.4,MacIntel,40,,,,,,,,,,,,,,,,,,,,,,,,,,,down,0,13.169,,0.423333333,-0.01,1,0,0,0.57,0,128,128,101,1,staren,images/br_staren.png,images/cb_staren.png,0,,,,,,,,,,,,,,,,,,,,,,
,,,,,,00106,2023-11-11_15h10.42.889,vbt_B2_day2,2022.2.4,MacIntel,40,,,,,,,,,,,,,,,,,,,,,,,,,,,down,0,10.074,,0.423333333,-0.01,1,0,0,1.931,0,129,129,186,1,voorraad,images/br_voorraad.png,images/cb_voorraad.png,0,,,,,,,,,,,,,,,,,,,,,,
,,,,,,00106,2023-11-11_15h10.42.889,vbt_B2_day2,2022.2.4,MacIntel,40,,,,,,,,,,,,,,,,,,,,,,,,,,,down,0,15.24,,0.424444444,-0.013333333,1,0,0,1.084,0,130,130,179,1,woestijn,images/br_woestijn.png,images/cb_woestijn.png,1,woestijn,,,,,,,,,,,,,,,,,,,,,
,,,,,,00106,2023-11-11_15h10.42.889,vbt_B2_day2,2022.2.4,MacIntel,40,,,,,,,,,,,,,,,,,,,,,,,,,,,down,0,8.604,,0.153333333,0.03,1,0,0,0.888,0,131,131,43,1,klauw,images/br_klauw.png,images/cb_klauw.png,0,,,,,,,,,,,,,,,,,,,,,,
,,,,,,00106,2023-11-11_15h10.42.889,vbt_B2_day2,2022.2.4,MacIntel,40,,,,,,,,,,,,,,,,,,,,,,,,,,,down,0,6.845,,0.414444444,-0.004444444,1,0,0,0.501,0,132,132,69,1,waken,images/br_waken.png,images/cb_waken.png,0,,,,,,,,,,,,,,,,,,,,,,
,,,,,,00106,2023-11-11_15h10.42.889,vbt_B2_day2,2022.2.4,MacIntel,40,,,,,,,,,,,,,,,,,,,,,,,,,,,down,0,5.251,,0.476666667,-0.218888889,1,0,0,0.55,0,133,133,104,1,zweven,images/br_zweven.png,images/cb_zweven.png,0,,,,,,,,,,,,,,,,,,,,,,
,,,,,,00106,2023-11-11_15h10.42.889,vbt_B2_day2,2022.2.4,MacIntel,40,,,,,,,,,,,,,,,,,,,,,,,,,,,down,0,5.825,,0.476666667,-0.218888889,1,0,0,0.649,0,134,134,162,1,uitdelen,images/br_uitdelen.png,images/cb_uitdelen.png,0,,,,,,,,,,,,,,,,,,,,,,
,,,,,,00106,2023-11-11_15h10.42.889,vbt_B2_day2,2022.2.4,MacIntel,40,,,,,,,,,,,,,,,,,,,,,,,,,,,down,0,7.692,,0.476666667,-0.218888889,1,0,0,0.583,0,135,135,174,1,stemming,images/br_stemming.png,images/cb_stemming.png,0,,,,,,,,,,,,,,,,,,,,,,
,,,,,,00106,2023-11-11_15h10.42.889,vbt_B2_day2,2022.2.4,MacIntel,40,,,,,,,,,,,,,,,,,,,,,,,,,,,down,0,0.911,,0.476666667,-0.218888889,1,0,0,0.602,0,136,136,13,1,kaal,images/br_kaal.png,images/cb_kaal.png,0,,,,,,,,,,,,,,,,,,,,,,
,,,,,,00106,2023-11-11_15h10.42.889,vbt_B2_day2,2022.2.4,MacIntel,40,,,,,,,,,,,,,,,,,,,,,,,,,,,down,0,3.893,,0.476666667,-0.218888889,1,0,0,0.63,0,137,137,157,1,uitlaat,images/br_uitlaat.png,images/cb_uitlaat.png,0,,,,,,,,,,,,,,,,,,,,,,
,,,,,,00106,2023-11-11_15h10.42.889,vbt_B2_day2,2022.2.4,MacIntel,40,,,,,,,,,,,,,,,,,,,,,,,,,,,down,0,13.44,,0.476666667,-0.218888889,1,0,0,0.95,0,138,138,130,1,keihard,images/br_keihard.png,images/cb_keihard.png,0,,,,,,,,,,,,,,,,,,,,,,
,,,,,,00106,2023-11-11_15h10.42.889,vbt_B2_day2,2022.2.4,MacIntel,40,,,,,,,,,,,,,,,,,,,,,,,,,,,down,0,3.891,,0.476666667,-0.218888889,1,0,0,2.183,0,139,139,72,1,strak,images/br_strak.png,images/cb_strak.png,0,,,,,,,,,,,,,,,,,,,,,,
,,,,,,00106,2023-11-11_15h10.42.889,vbt_B2_day2,2022.2.4,MacIntel,40,,,,,,,,,,,,,,,,,,,,,,,,,,,down,0,3.338,,0.476666667,-0.218888889,1,0,0,0.586,0,140,140,148,1,smullen,images/br_smullen.png,images/cb_smullen.png,0,,,,,,,,,,,,,,,,,,,,,,
,,,,,,00106,2023-11-11_15h10.42.889,vbt_B2_day2,2022.2.4,MacIntel,40,,,,,,,,,,,,,,,,,,,,,,,,,,,down,0,3.847,,0.47,-0.216666667,1,0,0,0.601,0,141,141,27,1,dans,images/br_dans.png,images/cb_dans.png,0,,,,,,,,,,,,,,,,,,,,,,
,,,,,,00106,2023-11-11_15h10.42.889,vbt_B2_day2,2022.2.4,MacIntel,40,,,,,,,,,,,,,,,,,,,,,,,,,,,down,0,8.172,,0.47,-0.216666667,1,0,0,0.684,0,142,142,74,1,graaf,images/br_graaf.png,images/cb_graaf.png,0,,,,,,,,,,,,,,,,,,,,,,
,,,,,,00106,2023-11-11_15h10.42.889,vbt_B2_day2,2022.2.4,MacIntel,40,,,,,,,,,,,,,,,,,,,,,,,,,,,down,0,0.557,,0.47,-0.216666667,1,0,0,1.182,0,143,143,113,1,koppen,images/br_koppen.png,images/cb_koppen.png,0,,,,,,,,,,,,,,,,,,,,,,
,,,,,,00106,2023-11-11_15h10.42.889,vbt_B2_day2,2022.2.4,MacIntel,40,,,,,,,,,,,,,,,,,,,,,,,,,,,down,0,3.787,,0.47,-0.216666667,1,0,0,0.466,0,144,144,77,1,woede,images/br_woede.png,images/cb_woede.png,0,,,,,,,,,,,,,,,,,,,,,,
,,,,,,00106,2023-11-11_15h10.42.889,vbt_B2_day2,2022.2.4,MacIntel,40,,,,,,,,,,,,,,,,,,,,,,,,,,,down,0,3.876,,0.47,-0.216666667,1,0,0,0.368,0,145,145,138,1,akkoord,images/br_akkoord.png,images/cb_akkoord.png,1,akkoord,,,,,,,,,,,,,,,,,,,,,
,,,,,,00106,2023-11-11_15h10.42.889,vbt_B2_day2,2022.2.4,MacIntel,40,,,,,,,,,,,,,,,,,,,,,,,,,,,down,0,6.691,,0.47,-0.216666667,1,0,0,0.781,0,146,146,106,1,zingen,images/br_zingen.png,images/cb_zingen.png,0,,,,,,,,,,,,,,,,,,,,,,
,,,,,,00106,2023-11-11_15h10.42.889,vbt_B2_day2,2022.2.4,MacIntel,40,,,,,,,,,,,,,,,,,,,,,,,,,,,down,0,6.702,,0.47,-0.216666667,1,0,0,0.733,0,147,147,122,1,waarvan,images/br_waarvan.png,images/cb_waarvan.png,0,,,,,,,,,,,,,,,,,,,,,,
,,,,,,00106,2023-11-11_15h10.42.889,vbt_B2_day2,2022.2.4,MacIntel,40,,,,,,,,,,,,,,,,,,,,,,,,,,,down,0,37.408,,0.465555556,-0.218888889,1,0,0,0.75,0,148,148,173,1,apparaat,images/br_apparaat.png,images/cb_apparaat.png,0,,,,,,,,,,,,,,,,,,,,,,
,,,,,,00106,2023-11-11_15h10.42.889,vbt_B2_day2,2022.2.4,MacIntel,40,,,,,,,,,,,,,,,,,,,,,,,,,,,down,0,8.575,,0.461111111,-0.218888889,1,0,0,1.7,0,149,149,189,1,aanraden,images/br_aanraden.png,images/cb_aanraden.png,0,,,,,,,,,,,,,,,,,,,,,,
,,,,,,00106,2023-11-11_15h10.42.889,vbt_B2_day2,2022.2.4,MacIntel,40,,,,,,,,,,,,,,,,,,,,,,,,,,,down,0,16.778,,0.461111111,-0.218888889,1,0,0,0.382,0,150,150,90,1,geluid,images/br_geluid.png,images/cb_geluid.png,0,,,,,,,,,,,,,,,,,,,,,,
,,,,,,00106,2023-11-11_15h10.42.889,vbt_B2_day2,2022.2.4,MacIntel,40,,,,,,,,,,,,,,,,,,,,,,,,,,,down,0,1.177,,0.461111111,-0.218888889,1,0,0,1.915,0,151,151,24,1,jurk,images/br_jurk.png,images/cb_jurk.png,0,,,,,,,,,,,,,,,,,,,,,,
,,,,,,00106,2023-11-11_15h10.42.889,vbt_B2_day2,2022.2.4,MacIntel,40,,,,,,,,,,,,,,,,,,,,,,,,,,,down,0,6.605,,0.461111111,-0.218888889,1,0,0,0.967,0,152,152,15,1,soda,images/br_soda.png,images/cb_soda.png,0,,,,,,,,,,,,,,,,,,,,,,
,,,,,,00106,2023-11-11_15h10.42.889,vbt_B2_day2,2022.2.4,MacIntel,40,,,,,,,,,,,,,,,,,,,,,,,,,,,down,0,2.241,,0.461111111,-0.218888889,1,0,0,0.35,0,153,153,57,1,steek,images/br_steek.png,images/cb_steek.png,1,steek,,,,,,,,,,,,,,,,,,,,,
,,,,,,00106,2023-11-11_15h10.42.889,vbt_B2_day2,2022.2.4,MacIntel,40,,,,,,,,,,,,,,,,,,,,,,,,,,,down,0,2.223,,0.461111111,-0.218888889,1,0,0,0.3,0,154,154,36,1,vuur,images/br_vuur.png,images/cb_vuur.png,0,,,,,,,,,,,,,,,,,,,,,,
,,,,,,00106,2023-11-11_15h10.42.889,vbt_B2_day2,2022.2.4,MacIntel,40,,,,,,,,,,,,,,,,,,,,,,,,,,,down,0,5.203,,0.461111111,-0.218888889,1,0,0,0.333,0,155,155,155,1,gerucht,images/br_gerucht.png,images/cb_gerucht.png,0,,,,,,,,,,,,,,,,,,,,,,
,,,,,,00106,2023-11-11_15h10.42.889,vbt_B2_day2,2022.2.4,MacIntel,40,,,,,,,,,,,,,,,,,,,,,,,,,,,down,0,0.921,,0.461111111,-0.218888889,1,0,0,0.401,0,156,156,25,1,plek,images/br_plek.png,images/cb_plek.png,0,,,,,,,,,,,,,,,,,,,,,,
,,,,,,00106,2023-11-11_15h10.42.889,vbt_B2_day2,2022.2.4,MacIntel,40,,,,,,,,,,,,,,,,,,,,,,,,,,,down,0,8.152,,0.461111111,-0.218888889,1,0,0,0.498,0,157,157,126,1,kasteel,images/br_kasteel.png,images/cb_kasteel.png,0,,,,,,,,,,,,,,,,,,,,,,
,,,,,,00106,2023-11-11_15h10.42.889,vbt_B2_day2,2022.2.4,MacIntel,40,,,,,,,,,,,,,,,,,,,,,,,,,,,down,0,9.759,,0.461111111,-0.218888889,1,0,0,0.617,0,158,158,37,1,mijn,images/br_mijn.png,images/cb_mijn.png,0,,,,,,,,,,,,,,,,,,,,,,
,,,,,,00106,2023-11-11_15h10.42.889,vbt_B2_day2,2022.2.4,MacIntel,40,,,,,,,,,,,,,,,,,,,,,,,,,,,down,0,4.635,,0.461111111,-0.218888889,1,0,0,0.784,0,159,159,169,1,oprotten,images/br_oprotten.png,images/cb_oprotten.png,0,,,,,,,,,,,,,,,,,,,,,,
,,,,,,00106,2023-11-11_15h10.42.889,vbt_B2_day2,2022.2.4,MacIntel,40,,,,,,,,,,,,,,,,,,,,,,,,,,,down,0,0.454,,0.461111111,-0.218888889,1,0,0,0.683,0,160,160,112,1,lukken,images/br_lukken.png,images/cb_lukken.png,0,,,,,,,,,,,,,,,,,,,,,,
,,,,,,00106,2023-11-11_15h10.42.889,vbt_B2_day2,2022.2.4,MacIntel,40,,,,,,,,,,,,,,,,,,,,,,,,,,,down,0,4.752,,0.461111111,-0.218888889,1,0,0,0.686,0,161,161,175,1,heengaan,images/br_heengaan.png,images/cb_heengaan.png,0,,,,,,,,,,,,,,,,,,,,,,
,,,,,,00106,2023-11-11_15h10.42.889,vbt_B2_day2,2022.2.4,MacIntel,40,,,,,,,,,,,,,,,,,,,,,,,,,,,down,0,10.661,,0.461111111,-0.218888889,1,0,0,1.179,0,162,162,76,1,afval,images/br_afval.png,images/cb_afval.png,0,,,,,,,,,,,,,,,,,,,,,,
,,,,,,00106,2023-11-11_15h10.42.889,vbt_B2_day2,2022.2.4,MacIntel,40,,,,,,,,,,,,,,,,,,,,,,,,,,,down,0,73.706,,0.064444444,-0.162222222,1,0,0,0.401,0,163,163,172,1,weigeren,images/br_weigeren.png,images/cb_weigeren.png,0,,,,,,,,,,,,,,,,,,,,,,
,,,,,,00106,2023-11-11_15h10.42.889,vbt_B2_day2,2022.2.4,MacIntel,40,,,,,,,,,,,,,,,,,,,,,,,,,,,down,0,9.151,,0.064444444,-0.162222222,1,0,0,0.434,0,164,164,150,1,gegeven,images/br_gegeven.png,images/cb_gegeven.png,0,,,,,,,,,,,,,,,,,,,,,,
,,,,,,00106,2023-11-11_15h10.42.889,vbt_B2_day2,2022.2.4,MacIntel,40,,,,,,,,,,,,,,,,,,,,,,,,,,,down,0,2.671,,0.064444444,-0.162222222,1,0,0,0.386,0,165,165,171,1,aarzelen,images/br_aarzelen.png,images/cb_aarzelen.png,0,,,,,,,,,,,,,,,,,,,,,,
,,,,,,00106,2023-11-11_15h10.42.889,vbt_B2_day2,2022.2.4,MacIntel,40,,,,,,,,,,,,,,,,,,,,,,,,,,,down,0,8.405,,0.064444444,-0.162222222,1,0,0,0.501,0,166,166,163,1,schuilen,images/br_schuilen.png,images/cb_schuilen.png,0,,,,,,,,,,,,,,,,,,,,,,
,,,,,,00106,2023-11-11_15h10.42.889,vbt_B2_day2,2022.2.4,MacIntel,40,,,,,,,,,,,,,,,,,,,,,,,,,,,down,0,5.175,,0.043333333,-0.16,1,0,0,0.435,0,167,167,95,1,vreten,images/br_vreten.png,images/cb_vreten.png,0,,,,,,,,,,,,,,,,,,,,,,
,,,,,,00106,2023-11-11_15h10.42.889,vbt_B2_day2,2022.2.4,MacIntel,40,,,,,,,,,,,,,,,,,,,,,,,,,,,down,0,2.639,,0.044444444,-0.162222222,1,0,0,0.617,0,168,168,49,1,laken,images/br_laken.png,images/cb_laken.png,0,,,,,,,,,,,,,,,,,,,,,,
,,,,,,00106,2023-11-11_15h10.42.889,vbt_B2_day2,2022.2.4,MacIntel,40,,,,,,,,,,,,,,,,,,,,,,,,,,,down,0,2.437,,0.044444444,-0.162222222,1,0,0,1.551,0,169,169,117,1,kennis,images/br_kennis.png,images/cb_kennis.png,0,,,,,,,,,,,,,,,,,,,,,,
,,,,,,00106,2023-11-11_15h10.42.889,vbt_B2_day2,2022.2.4,MacIntel,40,,,,,,,,,,,,,,,,,,,,,,,,,,,down,0,6.075,,0.044444444,-0.162222222,1,0,0,0.45,0,170,170,192,1,schaamte,images/br_schaamte.png,images/cb_schaamte.png,0,,,,,,,,,,,,,,,,,,,,,,
,,,,,,00106,2023-11-11_15h10.42.889,vbt_B2_day2,2022.2.4,MacIntel,40,,,,,,,,,,,,,,,,,,,,,,,,,,,down,0,3.275,,0.044444444,-0.162222222,1,0,0,0.55,0,171,171,121,1,twijfel,images/br_twijfel.png,images/cb_twijfel.png,0,,,,,,,,,,,,,,,,,,,,,,
,,,,,,00106,2023-11-11_15h10.42.889,vbt_B2_day2,2022.2.4,MacIntel,40,,,,,,,,,,,,,,,,,,,,,,,,,,,down,0,6.542,,0.044444444,-0.162222222,1,0,0,0.485,0,172,172,115,1,kleren,images/br_kleren.png,images/cb_kleren.png,0,,,,,,,,,,,,,,,,,,,,,,
,,,,,,00106,2023-11-11_15h10.42.889,vbt_B2_day2,2022.2.4,MacIntel,40,,,,,,,,,,,,,,,,,,,,,,,,,,,down,0,3.902,,0.044444444,-0.162222222,1,0,0,0.467,0,173,173,12,1,kust,images/br_kust.png,images/cb_kust.png,0,,,,,,,,,,,,,,,,,,,,,,
,,,,,,00106,2023-11-11_15h10.42.889,vbt_B2_day2,2022.2.4,MacIntel,40,,,,,,,,,,,,,,,,,,,,,,,,,,,down,0,2.976,,0.044444444,-0.162222222,1,0,0,0.55,0,174,174,41,1,maken,images/br_maken.png,images/cb_maken.png,0,,,,,,,,,,,,,,,,,,,,,,
,,,,,,00106,2023-11-11_15h10.42.889,vbt_B2_day2,2022.2.4,MacIntel,40,,,,,,,,,,,,,,,,,,,,,,,,,,,down,0,0.603,,0.044444444,-0.162222222,1,0,0,0.5,0,175,175,39,1,laag,images/br_laag.png,images/cb_laag.png,0,,,,,,,,,,,,,,,,,,,,,,
,,,,,,00106,2023-11-11_15h10.42.889,vbt_B2_day2,2022.2.4,MacIntel,40,,,,,,,,,,,,,,,,,,,,,,,,,,,down,0,4.47,,0.044444444,-0.162222222,1,0,0,0.4,0,176,176,22,1,stof,images/br_stof.png,images/cb_stof.png,0,,,,,,,,,,,,,,,,,,,,,,
,,,,,,00106,2023-11-11_15h10.42.889,vbt_B2_day2,2022.2.4,MacIntel,40,,,,,,,,,,,,,,,,,,,,,,,,,,,down,0,7.909,,0.043333333,-0.162222222,1,0,0,1.45,0,177,177,79,1,nodig,images/br_nodig.png,images/cb_nodig.png,0,,,,,,,,,,,,,,,,,,,,,,
,,,,,,00106,2023-11-11_15h10.42.889,vbt_B2_day2,2022.2.4,MacIntel,40,,,,,,,,,,,,,,,,,,,,,,,,,,,down,0,3.595,,0.043333333,-0.162222222,1,0,0,0.597,0,178,178,160,1,daarheen,images/br_daarheen.png,images/cb_daarheen.png,0,,,,,,,,,,,,,,,,,,,,,,
,,,,,,00106,2023-11-11_15h10.42.889,vbt_B2_day2,2022.2.4,MacIntel,40,,,,,,,,,,,,,,,,,,,,,,,,,,,down,0,11.42,,0.043333333,-0.162222222,1,0,0,0.534,0,179,179,188,1,strekken,images/br_strekken.png,images/cb_strekken.png,0,,,,,,,,,,,,,,,,,,,,,,
,,,,,,00106,2023-11-11_15h10.42.889,vbt_B2_day2,2022.2.4,MacIntel,40,,,,,,,,,,,,,,,,,,,,,,,,,,,down,0,1.99,,0.043333333,-0.162222222,1,0,0,0.635,0,180,180,141,1,knielen,images/br_knielen.png,images/cb_knielen.png,0,,,,,,,,,,,,,,,,,,,,,,
,,,,,,00106,2023-11-11_15h10.42.889,vbt_B2_day2,2022.2.4,MacIntel,40,,,,,,,,,,,,,,,,,,,,,,,,,,,down,0,3.024,,0.043333333,-0.162222222,1,0,0,0.802,0,181,181,166,1,strikken,images/br_strikken.png,images/cb_strikken.png,0,,,,,,,,,,,,,,,,,,,,,,
,,,,,,00106,2023-11-11_15h10.42.889,vbt_B2_day2,2022.2.4,MacIntel,40,,,,,,,,,,,,,,,,,,,,,,,,,,,down,0,6.56,,0.043333333,-0.162222222,1,0,0,0.581,0,182,182,164,1,anarchie,images/br_anarchie.png,images/cb_anarchie.png,0,,,,,,,,,,,,,,,,,,,,,,
,,,,,,00106,2023-11-11_15h10.42.889,vbt_B2_day2,2022.2.4,MacIntel,40,,,,,,,,,,,,,,,,,,,,,,,,,,,down,0,4.276,,0.043333333,-0.162222222,1,0,0,0.464,0,183,183,170,1,schatten,images/br_schatten.png,images/cb_schatten.png,0,,,,,,,,,,,,,,,,,,,,,,
,,,,,,00106,2023-11-11_15h10.42.889,vbt_B2_day2,2022.2.4,MacIntel,40,,,,,,,,,,,,,,,,,,,,,,,,,,,down,0,4.542,,0.043333333,-0.162222222,1,0,0,0.517,0,184,184,81,1,dubbel,images/br_dubbel.png,images/cb_dubbel.png,0,,,,,,,,,,,,,,,,,,,,,,
,,,,,,00106,2023-11-11_15h10.42.889,vbt_B2_day2,2022.2.4,MacIntel,40,,,,,,,,,,,,,,,,,,,,,,,,,,,down,0,0.285,,0.043333333,-0.162222222,1,0,0,0.717,0,185,185,10,1,leek,images/br_leek.png,images/cb_leek.png,0,,,,,,,,,,,,,,,,,,,,,,
,,,,,,00106,2023-11-11_15h10.42.889,vbt_B2_day2,2022.2.4,MacIntel,40,,,,,,,,,,,,,,,,,,,,,,,,,,,down,0,8.011,,0.344444444,-0.056666667,1,0,0,0.818,0,186,186,149,1,redding,images/br_redding.png,images/cb_redding.png,0,,,,,,,,,,,,,,,,,,,,,,
,,,,,,00106,2023-11-11_15h10.42.889,vbt_B2_day2,2022.2.4,MacIntel,40,,,,,,,,,,,,,,,,,,,,,,,,,,,down,0,11.729,,0.344444444,-0.056666667,1,0,0,0.612,0,187,187,111,1,ticket,images/br_ticket.png,images/cb_ticket.png,0,,,,,,,,,,,,,,,,,,,,,,
,,,,,,00106,2023-11-11_15h10.42.889,vbt_B2_day2,2022.2.4,MacIntel,40,,,,,,,,,,,,,,,,,,,,,,,,,,,down,0,0.54,,0.344444444,-0.056666667,1,0,0,0.551,0,188,188,6,1,diep,images/br_diep.png,images/cb_diep.png,0,,,,,,,,,,,,,,,,,,,,,,
,,,,,,00106,2023-11-11_15h10.42.889,vbt_B2_day2,2022.2.4,MacIntel,40,,,,,,,,,,,,,,,,,,,,,,,,,,,down,0,0.525,,0.344444444,-0.056666667,1,0,0,0.567,0,189,189,0,1,slak,images/br_slak.png,images/cb_slak.png,0,,,,,,,,,,,,,,,,,,,,,,
,,,,,,00106,2023-11-11_15h10.42.889,vbt_B2_day2,2022.2.4,MacIntel,40,,,,,,,,,,,,,,,,,,,,,,,,,,,down,0,18.544,,0.344444444,-0.056666667,1,0,0,0.534,0,190,190,153,1,vervoer,images/br_vervoer.png,images/cb_vervoer.png,0,,,,,,,,,,,,,,,,,,,,,,
,,,,,,00106,2023-11-11_15h10.42.889,vbt_B2_day2,2022.2.4,MacIntel,40,,,,,,,,,,,,,,,,,,,,,,,,,,,down,0,10.672,,0.344444444,-0.056666667,1,0,0,0.667,0,191,191,63,1,flirt,images/br_flirt.png,images/cb_flirt.png,0,,,,,,,,,,,,,,,,,,,,,,
,,,,,,00106,2023-11-11_15h10.42.889,vbt_B2_day2,2022.2.4,MacIntel,40,,,,,,,,,,,,,,,,,,,,,,,,,,,down,0,4.971,,0.344444444,-0.056666667,1,0,0,0.565,0,192,192,184,1,aandelen,images/br_aandelen.png,images/cb_aandelen.png,0,,,,,,,,,,,,,,,,,,,,,,
,,,,,,00106,2023-11-11_15h10.42.889,vbt_B2_day2,2022.2.4,MacIntel,40,,,,,,,,,,,,,,,,,,,,,,,,,,,down,0,6.538,,0.344444444,-0.056666667,1,0,0,0.567,0,193,193,38,1,baai,images/br_baai.png,images/cb_baai.png,0,,,,,,,,,,,,,,,,,,,,,,
,,,,,,00106,2023-11-11_15h10.42.889,vbt_B2_day2,2022.2.4,MacIntel,40,,,,,,,,,,,,,,,,,,,,,,,,,,,down,0,4.792,,0.344444444,-0.056666667,1,0,0,2.667,0,194,194,124,1,bloeien,images/br_bloeien.png,images/cb_bloeien.png,0,,,,,,,,,,,,,,,,,,,,,,
,,,,,,00106,2023-11-11_15h10.42.889,vbt_B2_day2,2022.2.4,MacIntel,40,,,,,,,,,,,,,,,,,,,,,,,,,,,down,0,10.185,,0.344444444,-0.056666667,1,0,0,1.1,0,195,195,194,1,driemaal,images/br_driemaal.png,images/cb_driemaal.png,0,,,,,,,,,,,,,,,,,,,,,,
,,,,,,00106,2023-11-11_15h10.42.889,vbt_B2_day2,2022.2.4,MacIntel,40,,,,,,,,,,,,,,,,,,,,,,,,,,,down,0,1.15,,0.344444444,-0.056666667,1,0,0,0.584,0,196,196,114,1,vullen,images/br_vullen.png,images/cb_vullen.png,0,,,,,,,,,,,,,,,,,,,,,,
,,,,,,00106,2023-11-11_15h10.42.889,vbt_B2_day2,2022.2.4,MacIntel,40,,,,,,,,,,,,,,,,,,,,,,,,,,,down,0,24.071,,0.351111111,0.052222222,1,0,0,1.619,0,197,197,191,1,opheffen,images/br_opheffen.png,images/cb_opheffen.png,0,,,,,,,,,,,,,,,,,,,,,,
,,,,,,00106,2023-11-11_15h10.42.889,vbt_B2_day2,2022.2.4,MacIntel,40,,,,,,,,,,,,,,,,,,,,,,,,,,,down,0,3.223,,0.351111111,0.052222222,1,0,0,0.717,0,198,198,131,1,opzicht,images/br_opzicht.png,images/cb_opzicht.png,0,,,,,,,,,,,,,,,,,,,,,,
,,,,,,00106,2023-11-11_15h10.42.889,vbt_B2_day2,2022.2.4,MacIntel,40,,,,,,,,,,,,,,,,,,,,,,,,,,,down,0,0.439,,0.351111111,0.052222222,1,0,0,0.702,0,199,199,67,1,zwart,images/br_zwart.png,images/cb_zwart.png,0,,,,,,,,,,,,,,,,,,,,,,
,,,,,,00106,2023-11-11_15h10.42.889,vbt_B2_day2,2022.2.4,MacIntel,40,,,,,,,,,,,,,,,,,,,,,,,,,,,,,,,,,,,,,,,,,,,,,,,0.183333333,-0.087777778,1,0,0,,,,,,,,,,,,,,,,
,,,,,,00106,2023-11-11_15h10.42.889,vbt_B2_day2,2022.2.4,MacIntel,40,,,,,,,,,,,,,,,,,,,,,,,,,,,,,,,,,,,,,,,,,,,,,,,,,,,,0.183333333,-0.087777778,1,0,0,,,,,,,,,,,
,,,,,,00106,2023-11-11_15h10.42.889,vbt_B2_day2,2022.2.4,MacIntel,40,,,,,,,,,,,,,,,,,,,,,,,,,,,,,,,,,,,,,,,,,,thema,images/br_thema.png,images/cb_thema.png,,thema,,,,,,,,,,,0.015555556,-0.082222222,1,0,0,thema,0,0,0,47,1
,,,,,,00106,2023-11-11_15h10.42.889,vbt_B2_day2,2022.2.4,MacIntel,40,,,,,,,,,,,,,,,,,,,,,,,,,,,,,,,,,,,,,,,,,,geld,images/br_geld.png,images/cb_geld.png,,geld,,,,,,,,,,,0.015555556,-0.082222222,1,0,0,geld,0,1,1,3,1
,,,,,,00106,2023-11-11_15h10.42.889,vbt_B2_day2,2022.2.4,MacIntel,40,,,,,,,,,,,,,,,,,,,,,,,,,,,,,,,,,,,,,,,,,,lijnen,images/br_lijnen.png,images/cb_lijnen.png,,lichten,,,,,,,,,,,-0.062222222,-0.197777778,1,0,0,lichten,0,2,2,51,1
,,,,,,00106,2023-11-11_15h10.42.889,vbt_B2_day2,2022.2.4,MacIntel,40,,,,,,,,,,,,,,,,,,,,,,,,,,,,,,,,,,,,,,,,,,kasteel,images/br_kasteel.png,images/cb_kasteel.png,,kasteel,,,,,,,,,,,0.014444444,-0.227777778,1,0,0,kasteel,0,3,3,14,1
,,,,,,00106,2023-11-11_15h10.42.889,vbt_B2_day2,2022.2.4,MacIntel,40,,,,,,,,,,,,,,,,,,,,,,,,,,,,,,,,,,,,,,,,,,anarchie,images/br_anarchie.png,images/cb_anarchie.png,,anar...,,,,,,,,,,,-0.01,-0.053333333,1,0,0,anar...,0,4,4,16,1
,,,,,,00106,2023-11-11_15h10.42.889,vbt_B2_day2,2022.2.4,MacIntel,40,,,,,,,,,,,,,,,,,,,,,,,,,,,,,,,,,,,,,,,,,,piste,images/br_piste.png,images/cb_piste.png,,piste,,,,,,,,,,,-0.114444444,-0.106666667,1,0,0,piste,0,5,5,5,1
,,,,,,00106,2023-11-11_15h10.42.889,vbt_B2_day2,2022.2.4,MacIntel,40,,,,,,,,,,,,,,,,,,,,,,,,,,,,,,,,,,,,,,,,,,manieren,images/br_manieren.png,images/cb_manieren.png,,manieren,,,,,,,,,,,0.24,0.14,1,0,0,manieren,0,6,6,56,1
,,,,,,00106,2023-11-11_15h10.42.889,vbt_B2_day2,2022.2.4,MacIntel,40,,,,,,,,,,,,,,,,,,,,,,,,,,,,,,,,,,,,,,,,,,zwager,images/br_zwager.png,images/cb_zwager.png,,zwager,,,,,,,,,,,0.006666667,-0.182222222,1,0,0,zwager,0,7,7,49,1
,,,,,,00106,2023-11-11_15h10.42.889,vbt_B2_day2,2022.2.4,MacIntel,40,,,,,,,,,,,,,,,,,,,,,,,,,,,,,,,,,,,,,,,,,,ophuimen,images/br_ophuimen.png,images/cb_ophuimen.png,,ophuim...,,,,,,,,,,,-0.067777778,-0.197777778,1,0,0,ophuim...,0,8,8,36,1
,,,,,,00106,2023-11-11_15h10.42.889,vbt_B2_day2,2022.2.4,MacIntel,40,,,,,,,,,,,,,,,,,,,,,,,,,,,,,,,,,,,,,,,,,,opdatten,images/br_opdatten.png,images/cb_opdatten.png,,opdracht,,,,,,,,,,,0.073333333,0.015555556,1,0,0,opdracht,0,9,9,37,1
,,,,,,00106,2023-11-11_15h10.42.889,vbt_B2_day2,2022.2.4,MacIntel,40,,,,,,,,,,,,,,,,,,,,,,,,,,,,,,,,,,,,,,,,,,eenhoorn,images/br_eenhoorn.png,images/cb_eenhoorn.png,,eenhoorn,,,,,,,,,,,-0.01,-0.212222222,1,0,0,eenhoorn,0,10,10,19,1
,,,,,,00106,2023-11-11_15h10.42.889,vbt_B2_day2,2022.2.4,MacIntel,40,,,,,,,,,,,,,,,,,,,,,,,,,,,,,,,,,,,,,,,,,,prekken,images/br_prekken.png,images/cb_prekken.png,,prekken,,,,,,,,,,,0.068888889,-0.081111111,1,0,0,prekken,0,11,11,34,1
,,,,,,00106,2023-11-11_15h10.42.889,vbt_B2_day2,2022.2.4,MacIntel,40,,,,,,,,,,,,,,,,,,,,,,,,,,,,,,,,,,,,,,,,,,krimmen,images/br_krimmen.png,images/cb_krimmen.png,,krimmen,,,,,,,,,,,0.011111111,-0.094444444,1,0,0,krimmen,0,12,12,35,1
,,,,,,00106,2023-11-11_15h10.42.889,vbt_B2_day2,2022.2.4,MacIntel,40,,,,,,,,,,,,,,,,,,,,,,,,,,,,,,,,,,,,,,,,,,heengeen,images/br_heengeen.png,images/cb_heengeen.png,,heengaan,,,,,,,,,,,-0.022222222,-0.201111111,1,0,0,heengaan,0,13,13,38,1
,,,,,,00106,2023-11-11_15h10.42.889,vbt_B2_day2,2022.2.4,MacIntel,40,,,,,,,,,,,,,,,,,,,,,,,,,,,,,,,,,,,,,,,,,,moes,images/br_moes.png,images/cb_moes.png,,moes,,,,,,,,,,,0.101111111,-0.022222222,1,0,0,moes,0,14,14,0,1
,,,,,,00106,2023-11-11_15h10.42.889,vbt_B2_day2,2022.2.4,MacIntel,40,,,,,,,,,,,,,,,,,,,,,,,,,,,,,,,,,,,,,,,,,,welzijn,images/br_welzijn.png,images/cb_welzijn.png,,welzijn,,,,,,,,,,,0.102222222,0.074444444,1,0,0,welzijn,0,15,15,52,1
,,,,,,00106,2023-11-11_15h10.42.889,vbt_B2_day2,2022.2.4,MacIntel,40,,,,,,,,,,,,,,,,,,,,,,,,,,,,,,,,,,,,,,,,,,dode,images/br_dode.png,images/cb_dode.png,,,,,,,,,,,,,-0.003333333,-0.103333333,1,0,0,,0,16,16,41,1
,,,,,,00106,2023-11-11_15h10.42.889,vbt_B2_day2,2022.2.4,MacIntel,40,,,,,,,,,,,,,,,,,,,,,,,,,,,,,,,,,,,,,,,,,,goon,images/br_goon.png,images/cb_goon.png,,goon,,,,,,,,,,,0.015555556,0.034444444,1,0,0,goon,0,17,17,23,1
,,,,,,00106,2023-11-11_15h10.42.889,vbt_B2_day2,2022.2.4,MacIntel,40,,,,,,,,,,,,,,,,,,,,,,,,,,,,,,,,,,,,,,,,,,aanvraag,images/br_aanvraag.png,images/cb_aanvraag.png,,aanvar...,,,,,,,,,,,0.123333333,-0.041111111,1,0,0,aanvar...,0,18,18,57,1
,,,,,,00106,2023-11-11_15h10.42.889,vbt_B2_day2,2022.2.4,MacIntel,40,,,,,,,,,,,,,,,,,,,,,,,,,,,,,,,,,,,,,,,,,,flits,images/br_flits.png,images/cb_flits.png,,flits,,,,,,,,,,,0.151111111,-0.016666667,1,0,0,flits,0,19,19,4,1
,,,,,,00106,2023-11-11_15h10.42.889,vbt_B2_day2,2022.2.4,MacIntel,40,,,,,,,,,,,,,,,,,,,,,,,,,,,,,,,,,,,,,,,,,,bereuwen,images/br_bereuwen.png,images/cb_bereuwen.png,,bereu..,,,,,,,,,,,0.1,-0.043333333,1,0,0,bereu..,0,20,20,39,1
,,,,,,00106,2023-11-11_15h10.42.889,vbt_B2_day2,2022.2.4,MacIntel,40,,,,,,,,,,,,,,,,,,,,,,,,,,,,,,,,,,,,,,,,,,zegel,images/br_zegel.png,images/cb_zegel.png,,zegel,,,,,,,,,,,0.168888889,0.09,1,0,0,zegel,0,21,21,46,1
,,,,,,00106,2023-11-11_15h10.42.889,vbt_B2_day2,2022.2.4,MacIntel,40,,,,,,,,,,,,,,,,,,,,,,,,,,,,,,,,,,,,,,,,,,koorts,images/br_koorts.png,images/cb_koorts.png,,koorts,,,,,,,,,,,0.11,0.271111111,1,0,0,koorts,0,22,22,50,1
,,,,,,00106,2023-11-11_15h10.42.889,vbt_B2_day2,2022.2.4,MacIntel,40,,,,,,,,,,,,,,,,,,,,,,,,,,,,,,,,,,,,,,,,,,trots,images/br_trots.png,images/cb_trots.png,,trots,,,,,,,,,,,0.063333333,0.101111111,1,0,0,trots,0,23,23,44,1
,,,,,,00106,2023-11-11_15h10.42.889,vbt_B2_day2,2022.2.4,MacIntel,40,,,,,,,,,,,,,,,,,,,,,,,,,,,,,,,,,,,,,,,,,,strikken,images/br_strikken.png,images/cb_strikken.png,,strikken,,,,,,,,,,,0.156666667,0.162222222,1,0,0,strikken,0,24,24,18,1
,,,,,,00106,2023-11-11_15h10.42.889,vbt_B2_day2,2022.2.4,MacIntel,40,,,,,,,,,,,,,,,,,,,,,,,,,,,,,,,,,,,,,,,,,,joes,images/br_joes.png,images/cb_joes.png,,hoen,,,,,,,,,,,0.134444444,0.024444444,1,0,0,hoen,0,25,25,20,1
,,,,,,00106,2023-11-11_15h10.42.889,vbt_B2_day2,2022.2.4,MacIntel,40,,,,,,,,,,,,,,,,,,,,,,,,,,,,,,,,,,,,,,,,,,jong,images/br_jong.png,images/cb_jong.png,,jong,,,,,,,,,,,0.094444444,-0.005555556,1,0,0,jong,0,26,26,43,1
,,,,,,00106,2023-11-11_15h10.42.889,vbt_B2_day2,2022.2.4,MacIntel,40,,,,,,,,,,,,,,,,,,,,,,,,,,,,,,,,,,,,,,,,,,heilig,images/br_heilig.png,images/cb_heilig.png,,heilig,,,,,,,,,,,0.13,0.037777778,1,0,0,heilig,0,27,27,9,1
,,,,,,00106,2023-11-11_15h10.42.889,vbt_B2_day2,2022.2.4,MacIntel,40,,,,,,,,,,,,,,,,,,,,,,,,,,,,,,,,,,,,,,,,,,jagen,images/br_jagen.png,images/cb_jagen.png,,jager,,,,,,,,,,,0.072222222,0.005555556,1,0,0,jager,0,28,28,6,1
,,,,,,00106,2023-11-11_15h10.42.889,vbt_B2_day2,2022.2.4,MacIntel,40,,,,,,,,,,,,,,,,,,,,,,,,,,,,,,,,,,,,,,,,,,blad,images/br_blad.png,images/cb_blad.png,,blad,,,,,,,,,,,-0.06,0.056666667,1,0,0,blad,0,29,29,1,1
,,,,,,00106,2023-11-11_15h10.42.889,vbt_B2_day2,2022.2.4,MacIntel,40,,,,,,,,,,,,,,,,,,,,,,,,,,,,,,,,,,,,,,,,,,agressie,images/br_agressie.png,images/cb_agressie.png,,agressie,,,,,,,,,,,-0.032222222,-0.074444444,1,0,0,agressie,0,30,30,59,1
,,,,,,00106,2023-11-11_15h10.42.889,vbt_B2_day2,2022.2.4,MacIntel,40,,,,,,,,,,,,,,,,,,,,,,,,,,,,,,,,,,,,,,,,,,badon,images/br_badon.png,images/cb_badon.png,,badon,,,,,,,,,,,0.104444444,-0.073333333,1,0,0,badon,0,31,31,26,1
,,,,,,00106,2023-11-11_15h10.42.889,vbt_B2_day2,2022.2.4,MacIntel,40,,,,,,,,,,,,,,,,,,,,,,,,,,,,,,,,,,,,,,,,,,negel,images/br_negel.png,images/cb_negel.png,,negel,,,,,,,,,,,0.096666667,0.028888889,1,0,0,negel,0,32,32,24,1
,,,,,,00106,2023-11-11_15h10.42.889,vbt_B2_day2,2022.2.4,MacIntel,40,,,,,,,,,,,,,,,,,,,,,,,,,,,,,,,,,,,,,,,,,,doodmoe,images/br_doodmoe.png,images/cb_doodmoe.png,,doodmoe,,,,,,,,,,,-0.012222222,0.081111111,1,0,0,doodmoe,0,33,33,15,1
,,,,,,00106,2023-11-11_15h10.42.889,vbt_B2_day2,2022.2.4,MacIntel,40,,,,,,,,,,,,,,,,,,,,,,,,,,,,,,,,,,,,,,,,,,lurgen,images/br_lurgen.png,images/cb_lurgen.png,,lurgen,,,,,,,,,,,-0.026666667,-0.052222222,1,0,0,lurgen,0,34,34,29,1
,,,,,,00106,2023-11-11_15h10.42.889,vbt_B2_day2,2022.2.4,MacIntel,40,,,,,,,,,,,,,,,,,,,,,,,,,,,,,,,,,,,,,,,,,,sora,images/br_sora.png,images/cb_sora.png,,sora,,,,,,,,,,,-0.011111111,-0.071111111,1,0,0,sora,0,35,35,22,1
,,,,,,00106,2023-11-11_15h10.42.889,vbt_B2_day2,2022.2.4,MacIntel,40,,,,,,,,,,,,,,,,,,,,,,,,,,,,,,,,,,,,,,,,,,inzicht,images/br_inzicht.png,images/cb_inzicht.png,,inzicht,,,,,,,,,,,0.132222222,0.024444444,1,0,0,inzicht,0,36,36,53,1
,,,,,,00106,2023-11-11_15h10.42.889,vbt_B2_day2,2022.2.4,MacIntel,40,,,,,,,,,,,,,,,,,,,,,,,,,,,,,,,,,,,,,,,,,,sjijfel,images/br_sjijfel.png,images/cb_sjijfel.png,,sje...,,,,,,,,,,,0.102222222,0.07,1,0,0,sje...,0,37,37,33,1
,,,,,,00106,2023-11-11_15h10.42.889,vbt_B2_day2,2022.2.4,MacIntel,40,,,,,,,,,,,,,,,,,,,,,,,,,,,,,,,,,,,,,,,,,,ningen,images/br_ningen.png,images/cb_ningen.png,,nengel,,,,,,,,,,,0.112222222,0.103333333,1,0,0,nengel,0,38,38,28,1
,,,,,,00106,2023-11-11_15h10.42.889,vbt_B2_day2,2022.2.4,MacIntel,40,,,,,,,,,,,,,,,,,,,,,,,,,,,,,,,,,,,,,,,,,,aanzien,images/br_aanzien.png,images/cb_aanzien.png,,aanzien,,,,,,,,,,,0.043333333,0.01,1,0,0,aanzien,0,39,39,13,1
,,,,,,00106,2023-11-11_15h10.42.889,vbt_B2_day2,2022.2.4,MacIntel,40,,,,,,,,,,,,,,,,,,,,,,,,,,,,,,,,,,,,,,,,,,clan,images/br_clan.png,images/cb_clan.png,,blan,,,,,,,,,,,0.098888889,0.013333333,1,0,0,blan,0,40,40,40,1
,,,,,,00106,2023-11-11_15h10.42.889,vbt_B2_day2,2022.2.4,MacIntel,40,,,,,,,,,,,,,,,,,,,,,,,,,,,,,,,,,,,,,,,,,,wijve,images/br_wijve.png,images/cb_wijve.png,,wij...,,,,,,,,,,,0.03,0.001111111,1,0,0,wij...,0,41,41,27,1
,,,,,,00106,2023-11-11_15h10.42.889,vbt_B2_day2,2022.2.4,MacIntel,40,,,,,,,,,,,,,,,,,,,,,,,,,,,,,,,,,,,,,,,,,,diep,images/br_diep.png,images/cb_diep.png,,diep,,,,,,,,,,,0.143333333,-0.011111111,1,0,0,diep,0,42,42,2,1
,,,,,,00106,2023-11-11_15h10.42.889,vbt_B2_day2,2022.2.4,MacIntel,40,,,,,,,,,,,,,,,,,,,,,,,,,,,,,,,,,,,,,,,,,,stes,images/br_stes.png,images/cb_stes.png,,stes,,,,,,,,,,,0.227777778,-0.09,1,0,0,stes,0,43,43,21,1
,,,,,,00106,2023-11-11_15h10.42.889,vbt_B2_day2,2022.2.4,MacIntel,40,,,,,,,,,,,,,,,,,,,,,,,,,,,,,,,,,,,,,,,,,,remel,images/br_remel.png,images/cb_remel.png,,remel,,,,,,,,,,,0.007777778,-0.031111111,1,0,0,remel,0,44,44,25,1
,,,,,,00106,2023-11-11_15h10.42.889,vbt_B2_day2,2022.2.4,MacIntel,40,,,,,,,,,,,,,,,,,,,,,,,,,,,,,,,,,,,,,,,,,,woning,images/br_woning.png,images/cb_woning.png,,woning,,,,,,,,,,,0.086666667,0.125555556,1,0,0,woning,0,45,45,10,1
,,,,,,00106,2023-11-11_15h10.42.889,vbt_B2_day2,2022.2.4,MacIntel,40,,,,,,,,,,,,,,,,,,,,,,,,,,,,,,,,,,,,,,,,,,feestdag,images/br_feestdag.png,images/cb_feestdag.png,,feestdag,,,,,,,,,,,0.076666667,0.025555556,1,0,0,feestdag,0,46,46,17,1
,,,,,,00106,2023-11-11_15h10.42.889,vbt_B2_day2,2022.2.4,MacIntel,40,,,,,,,,,,,,,,,,,,,,,,,,,,,,,,,,,,,,,,,,,,tand,images/br_tand.png,images/cb_tand.png,,tand,,,,,,,,,,,0.087777778,-0.024444444,1,0,0,tand,0,47,47,42,1
,,,,,,00106,2023-11-11_15h10.42.889,vbt_B2_day2,2022.2.4,MacIntel,40,,,,,,,,,,,,,,,,,,,,,,,,,,,,,,,,,,,,,,,,,,kijlen,images/br_kijlen.png,images/cb_kijlen.png,,ki...n,,,,,,,,,,,0.065555556,0.038888889,1,0,0,ki...n,0,48,48,31,1
,,,,,,00106,2023-11-11_15h10.42.889,vbt_B2_day2,2022.2.4,MacIntel,40,,,,,,,,,,,,,,,,,,,,,,,,,,,,,,,,,,,,,,,,,,tweeling,images/br_tweeling.png,images/cb_tweeling.png,,tweeling,,,,,,,,,,,0.194444444,-0.041111111,1,0,0,tweeling,0,49,49,58,1
,,,,,,00106,2023-11-11_15h10.42.889,vbt_B2_day2,2022.2.4,MacIntel,40,,,,,,,,,,,,,,,,,,,,,,,,,,,,,,,,,,,,,,,,,,kenzis,images/br_kenzis.png,images/cb_kenzis.png,,kunzis,,,,,,,,,,,-0.004444444,0.056666667,1,0,0,kunzis,0,50,50,30,1
,,,,,,00106,2023-11-11_15h10.42.889,vbt_B2_day2,2022.2.4,MacIntel,40,,,,,,,,,,,,,,,,,,,,,,,,,,,,,,,,,,,,,,,,,,kabel,images/br_kabel.png,images/cb_kabel.png,,kanbel,,,,,,,,,,,0.11,0.094444444,1,0,0,kanbel,0,51,51,7,1
,,,,,,00106,2023-11-11_15h10.42.889,vbt_B2_day2,2022.2.4,MacIntel,40,,,,,,,,,,,,,,,,,,,,,,,,,,,,,,,,,,,,,,,,,,plannen,images/br_plannen.png,images/cb_plannen.png,,plannen,,,,,,,,,,,0.108888889,-0.004444444,1,0,0,plannen,0,52,52,55,1
,,,,,,00106,2023-11-11_15h10.42.889,vbt_B2_day2,2022.2.4,MacIntel,40,,,,,,,,,,,,,,,,,,,,,,,,,,,,,,,,,,,,,,,,,,sifferd,images/br_sifferd.png,images/cb_sifferd.png,,siff...,,,,,,,,,,,0.098888889,0.025555556,1,0,0,siff...,0,53,53,32,1
,,,,,,00106,2023-11-11_15h10.42.889,vbt_B2_day2,2022.2.4,MacIntel,40,,,,,,,,,,,,,,,,,,,,,,,,,,,,,,,,,,,,,,,,,,breuk,images/br_breuk.png,images/cb_breuk.png,,bremk,,,,,,,,,,,0.285555556,0.032222222,1,0,0,bremk,0,54,54,45,1
,,,,,,00106,2023-11-11_15h10.42.889,vbt_B2_day2,2022.2.4,MacIntel,40,,,,,,,,,,,,,,,,,,,,,,,,,,,,,,,,,,,,,,,,,,lokken,images/br_lokken.png,images/cb_lokken.png,,lokken,,,,,,,,,,,-0.046666667,0.002222222,1,0,0,lokken,0,55,55,8,1
,,,,,,00106,2023-11-11_15h10.42.889,vbt_B2_day2,2022.2.4,MacIntel,40,,,,,,,,,,,,,,,,,,,,,,,,,,,,,,,,,,,,,,,,,,toeval,images/br_toeval.png,images/cb_toeval.png,,toeval,,,,,,,,,,,0.247777778,0.078888889,1,0,0,toeval,0,56,56,11,1
,,,,,,00106,2023-11-11_15h10.42.889,vbt_B2_day2,2022.2.4,MacIntel,40,,,,,,,,,,,,,,,,,,,,,,,,,,,,,,,,,,,,,,,,,,zomers,images/br_zomers.png,images/cb_zomers.png,,zomers,,,,,,,,,,,0.097777778,0.168888889,1,0,0,zomers,0,57,57,48,1
,,,,,,00106,2023-11-11_15h10.42.889,vbt_B2_day2,2022.2.4,MacIntel,40,,,,,,,,,,,,,,,,,,,,,,,,,,,,,,,,,,,,,,,,,,bloeien,images/br_bloeien.png,images/cb_bloeien.png,,bloeien,,,,,,,,,,,-0.102222222,0.247777778,1,0,0,bloeien,0,58,58,12,1
,,,,,,00106,2023-11-11_15h10.42.889,vbt_B2_day2,2022.2.4,MacIntel,40,,,,,,,,,,,,,,,,,,,,,,,,,,,,,,,,,,,,,,,,,,systeem,images/br_systeem.png,images/cb_systeem.png,,systeem,,,,,,,,,,,0.261111111,0.188888889,1,0,0,systeem,0,59,59,54,1
,,,,,,00106,2023-11-11_15h10.42.889,vbt_B2_day2,2022.2.4,MacIntel,40,,,,,,,,,,,,,,,,,,,,,,,,,,,,,,,,,,,,,,,,,,,,,,,,,,,,,,,,,,,,,,,,,,,
