welcome_mouse.x,welcome_mouse.y,welcome_mouse.leftButton,welcome_mouse.midButton,welcome_mouse.rightButton,welcome_mouse.time,"ID",date,expName,psychopyVersion,OS,frameRate,refresh_mouse.x,refresh_mouse.y,refresh_mouse.leftButton,refresh_mouse.midButton,refresh_mouse.rightButton,refresh_mouse.time,braille_mouse.x,braille_mouse.y,braille_mouse.leftButton,braille_mouse.midButton,braille_mouse.rightButton,braille_mouse.time,trials.thisRepN,trials.thisTrialN,trials.thisN,trials.thisIndex,trials.ran,nlLet,brLet,cbLet,trainInstr_mouse.x,trainInstr_mouse.y,trainInstr_mouse.leftButton,trainInstr_mouse.midButton,trainInstr_mouse.rightButton,trainInstr_mouse.time,translation_key.keys,translation_key.corr,translation_key.rt,word_rsp.text,word_mouse.x,word_mouse.y,word_mouse.leftButton,word_mouse.midButton,word_mouse.rightButton,word_mouse.time,train_loop.thisRepN,train_loop.thisTrialN,train_loop.thisN,train_loop.thisIndex,train_loop.ran,nlWrd,brWrd,cbWrd,test,testResp,mouse.x,mouse.y,mouse.leftButton,mouse.midButton,mouse.rightButton,testInstr_mouse.x,testInstr_mouse.y,testInstr_mouse.leftButton,testInstr_mouse.midButton,testInstr_mouse.rightButton,test_mouse.x,test_mouse.y,test_mouse.leftButton,test_mouse.midButton,test_mouse.rightButton,test_response.text,test_loop.thisRepN,test_loop.thisTrialN,test_loop.thisN,test_loop.thisIndex,test_loop.ran
0.620370483,-0.245370399,1,0,0,6.1687,00094,2023-10-31_17h05.51.011,vbt_B2_day2,2022.2.4,Win32,59.12262031,,,,,,,,,,,,,,,,,,,,,,,,,,,,,,,,,,,,,,,,,,,,,,,,,,,,,,,,,,,,,,,,,,,
,,,,,,00094,2023-10-31_17h05.51.011,vbt_B2_day2,2022.2.4,Win32,59.12262031,0.620370483,-0.245370399,1,0,0,7.7279,,,,,,,,,,,,,,,,,,,,,,,,,,,,,,,,,,,,,,,,,,,,,,,,,,,,,,,,,,,,,
,,,,,,00094,2023-10-31_17h05.51.011,vbt_B2_day2,2022.2.4,Win32,59.12262031,,,,,,,0.323148176,-0.024074088,1,0,0,13.179,0,0,0,7,1,h,images/br_h.png,images/cb_h.png,,,,,,,,,,,,,,,,,,,,,,,,,,,,,,,,,,,,,,,,,,,,,,,
,,,,,,00094,2023-10-31_17h05.51.011,vbt_B2_day2,2022.2.4,Win32,59.12262031,,,,,,,0.323148176,-0.024074088,1,0,0,0.4662,0,1,1,16,1,q,images/br_q.png,images/cb_q.png,,,,,,,,,,,,,,,,,,,,,,,,,,,,,,,,,,,,,,,,,,,,,,,
,,,,,,00094,2023-10-31_17h05.51.011,vbt_B2_day2,2022.2.4,Win32,59.12262031,,,,,,,0.323148176,-0.024074088,1,0,0,2.5992,0,2,2,15,1,p,images/br_p.png,images/cb_p.png,,,,,,,,,,,,,,,,,,,,,,,,,,,,,,,,,,,,,,,,,,,,,,,
,,,,,,00094,2023-10-31_17h05.51.011,vbt_B2_day2,2022.2.4,Win32,59.12262031,,,,,,,0.323148176,-0.024074088,1,0,0,0.2329,0,3,3,25,1,z,images/br_z.png,images/cb_z.png,,,,,,,,,,,,,,,,,,,,,,,,,,,,,,,,,,,,,,,,,,,,,,,
,,,,,,00094,2023-10-31_17h05.51.011,vbt_B2_day2,2022.2.4,Win32,59.12262031,,,,,,,0.323148176,-0.024074088,1,0,0,1.0829,0,4,4,24,1,y,images/br_y.png,images/cb_y.png,,,,,,,,,,,,,,,,,,,,,,,,,,,,,,,,,,,,,,,,,,,,,,,
,,,,,,00094,2023-10-31_17h05.51.011,vbt_B2_day2,2022.2.4,Win32,59.12262031,,,,,,,0.323148176,-0.024074088,1,0,0,0.5166,0,5,5,20,1,u,images/br_u.png,images/cb_u.png,,,,,,,,,,,,,,,,,,,,,,,,,,,,,,,,,,,,,,,,,,,,,,,
,,,,,,00094,2023-10-31_17h05.51.011,vbt_B2_day2,2022.2.4,Win32,59.12262031,,,,,,,0.323148176,-0.024074088,1,0,0,5.1649,0,6,6,9,1,j,images/br_j.png,images/cb_j.png,,,,,,,,,,,,,,,,,,,,,,,,,,,,,,,,,,,,,,,,,,,,,,,
,,,,,,00094,2023-10-31_17h05.51.011,vbt_B2_day2,2022.2.4,Win32,59.12262031,,,,,,,0.323148176,-0.024074088,1,0,0,0.9332,0,7,7,19,1,t,images/br_t.png,images/cb_t.png,,,,,,,,,,,,,,,,,,,,,,,,,,,,,,,,,,,,,,,,,,,,,,,
,,,,,,00094,2023-10-31_17h05.51.011,vbt_B2_day2,2022.2.4,Win32,59.12262031,,,,,,,0.323148176,-0.024074088,1,0,0,0.7666,0,8,8,14,1,o,images/br_o.png,images/cb_o.png,,,,,,,,,,,,,,,,,,,,,,,,,,,,,,,,,,,,,,,,,,,,,,,
,,,,,,00094,2023-10-31_17h05.51.011,vbt_B2_day2,2022.2.4,Win32,59.12262031,,,,,,,0.323148176,-0.024074088,1,0,0,0.3829,0,9,9,13,1,n,images/br_n.png,images/cb_n.png,,,,,,,,,,,,,,,,,,,,,,,,,,,,,,,,,,,,,,,,,,,,,,,
,,,,,,00094,2023-10-31_17h05.51.011,vbt_B2_day2,2022.2.4,Win32,59.12262031,,,,,,,0.323148176,-0.024074088,1,0,0,0.6663,0,10,10,10,1,k,images/br_k.png,images/cb_k.png,,,,,,,,,,,,,,,,,,,,,,,,,,,,,,,,,,,,,,,,,,,,,,,
,,,,,,00094,2023-10-31_17h05.51.011,vbt_B2_day2,2022.2.4,Win32,59.12262031,,,,,,,0.323148176,-0.024074088,1,0,0,1.1834,0,11,11,0,1,a,images/br_a.png,images/cb_a.png,,,,,,,,,,,,,,,,,,,,,,,,,,,,,,,,,,,,,,,,,,,,,,,
,,,,,,00094,2023-10-31_17h05.51.011,vbt_B2_day2,2022.2.4,Win32,59.12262031,,,,,,,0.323148176,-0.024074088,1,0,0,0.4858,0,12,12,11,1,l,images/br_l.png,images/cb_l.png,,,,,,,,,,,,,,,,,,,,,,,,,,,,,,,,,,,,,,,,,,,,,,,
,,,,,,00094,2023-10-31_17h05.51.011,vbt_B2_day2,2022.2.4,Win32,59.12262031,,,,,,,0.323148176,-0.024074088,1,0,0,1.0332,0,13,13,6,1,g,images/br_g.png,images/cb_g.png,,,,,,,,,,,,,,,,,,,,,,,,,,,,,,,,,,,,,,,,,,,,,,,
,,,,,,00094,2023-10-31_17h05.51.011,vbt_B2_day2,2022.2.4,Win32,59.12262031,,,,,,,0.323148176,-0.024074088,1,0,0,0.6997,0,14,14,17,1,r,images/br_r.png,images/cb_r.png,,,,,,,,,,,,,,,,,,,,,,,,,,,,,,,,,,,,,,,,,,,,,,,
,,,,,,00094,2023-10-31_17h05.51.011,vbt_B2_day2,2022.2.4,Win32,59.12262031,,,,,,,0.323148176,-0.024074088,1,0,0,0.6501,0,15,15,23,1,x,images/br_x.png,images/cb_x.png,,,,,,,,,,,,,,,,,,,,,,,,,,,,,,,,,,,,,,,,,,,,,,,
,,,,,,00094,2023-10-31_17h05.51.011,vbt_B2_day2,2022.2.4,Win32,59.12262031,,,,,,,0.323148176,-0.024074088,1,0,0,0.3665,0,16,16,2,1,c,images/br_c.png,images/cb_c.png,,,,,,,,,,,,,,,,,,,,,,,,,,,,,,,,,,,,,,,,,,,,,,,
,,,,,,00094,2023-10-31_17h05.51.011,vbt_B2_day2,2022.2.4,Win32,59.12262031,,,,,,,0.323148176,-0.024074088,1,0,0,1.0834,0,17,17,5,1,f,images/br_f.png,images/cb_f.png,,,,,,,,,,,,,,,,,,,,,,,,,,,,,,,,,,,,,,,,,,,,,,,
,,,,,,00094,2023-10-31_17h05.51.011,vbt_B2_day2,2022.2.4,Win32,59.12262031,,,,,,,0.323148176,-0.024074088,1,0,0,0.1835,0,18,18,12,1,m,images/br_m.png,images/cb_m.png,,,,,,,,,,,,,,,,,,,,,,,,,,,,,,,,,,,,,,,,,,,,,,,
,,,,,,00094,2023-10-31_17h05.51.011,vbt_B2_day2,2022.2.4,Win32,59.12262031,,,,,,,0.323148176,-0.024074088,1,0,0,0.2191,0,19,19,3,1,d,images/br_d.png,images/cb_d.png,,,,,,,,,,,,,,,,,,,,,,,,,,,,,,,,,,,,,,,,,,,,,,,
,,,,,,00094,2023-10-31_17h05.51.011,vbt_B2_day2,2022.2.4,Win32,59.12262031,,,,,,,0.323148176,-0.024074088,1,0,0,0.3828,0,20,20,8,1,i,images/br_i.png,images/cb_i.png,,,,,,,,,,,,,,,,,,,,,,,,,,,,,,,,,,,,,,,,,,,,,,,
,,,,,,00094,2023-10-31_17h05.51.011,vbt_B2_day2,2022.2.4,Win32,59.12262031,,,,,,,0.323148176,-0.024074088,1,0,0,0.0661,0,21,21,22,1,w,images/br_w.png,images/cb_w.png,,,,,,,,,,,,,,,,,,,,,,,,,,,,,,,,,,,,,,,,,,,,,,,
,,,,,,00094,2023-10-31_17h05.51.011,vbt_B2_day2,2022.2.4,Win32,59.12262031,,,,,,,0.323148176,-0.024074088,1,0,0,0.3165,0,22,22,18,1,s,images/br_s.png,images/cb_s.png,,,,,,,,,,,,,,,,,,,,,,,,,,,,,,,,,,,,,,,,,,,,,,,
,,,,,,00094,2023-10-31_17h05.51.011,vbt_B2_day2,2022.2.4,Win32,59.12262031,,,,,,,0.323148176,-0.024074088,1,0,0,0.6001,0,23,23,4,1,e,images/br_e.png,images/cb_e.png,,,,,,,,,,,,,,,,,,,,,,,,,,,,,,,,,,,,,,,,,,,,,,,
,,,,,,00094,2023-10-31_17h05.51.011,vbt_B2_day2,2022.2.4,Win32,59.12262031,,,,,,,0.323148176,-0.024074088,1,0,0,1.5165,0,24,24,1,1,b,images/br_b.png,images/cb_b.png,,,,,,,,,,,,,,,,,,,,,,,,,,,,,,,,,,,,,,,,,,,,,,,
,,,,,,00094,2023-10-31_17h05.51.011,vbt_B2_day2,2022.2.4,Win32,59.12262031,,,,,,,0.323148176,-0.024074088,1,0,0,0.0499,0,25,25,21,1,v,images/br_v.png,images/cb_v.png,,,,,,,,,,,,,,,,,,,,,,,,,,,,,,,,,,,,,,,,,,,,,,,
,,,,,,00094,2023-10-31_17h05.51.011,vbt_B2_day2,2022.2.4,Win32,59.12262031,,,,,,,,,,,,,,,,,,,,,0.559259372,0.012037023,1,0,0,28.4553,,,,,,,,,,,,,,,,,,,,,,,,,,,,,,,,,,,,,,,,,
,,,,,,00094,2023-10-31_17h05.51.011,vbt_B2_day2,2022.2.4,Win32,59.12262031,,,,,,,,,,,,,,,,,,,,,,,,,,,down,0,15.8175,,0.559259372,0.012037023,1,0,0,1.3489,0,0,0,14,1,rijp,images/br_rijp.png,images/cb_rijp.png,0,,,,,,,,,,,,,,,,,,,,,,
,,,,,,00094,2023-10-31_17h05.51.011,vbt_B2_day2,2022.2.4,Win32,59.12262031,,,,,,,,,,,,,,,,,,,,,,,,,,,down,0,8.65,,0.559259372,0.012037023,1,0,0,1.3659,0,1,1,166,1,strikken,images/br_strikken.png,images/cb_strikken.png,0,,,,,,,,,,,,,,,,,,,,,,
,,,,,,00094,2023-10-31_17h05.51.011,vbt_B2_day2,2022.2.4,Win32,59.12262031,,,,,,,,,,,,,,,,,,,,,,,,,,,down,0,10.3298,,0.559259372,0.012037023,1,0,0,0.9642,0,2,2,124,1,bloeien,images/br_bloeien.png,images/cb_bloeien.png,0,,,,,,,,,,,,,,,,,,,,,,
,,,,,,00094,2023-10-31_17h05.51.011,vbt_B2_day2,2022.2.4,Win32,59.12262031,,,,,,,,,,,,,,,,,,,,,,,,,,,down,0,14.4898,,0.401851908,-0.090740755,1,0,0,1.3996,0,3,3,163,1,schuilen,images/br_schuilen.png,images/cb_schuilen.png,0,,,,,,,,,,,,,,,,,,,,,,
,,,,,,00094,2023-10-31_17h05.51.011,vbt_B2_day2,2022.2.4,Win32,59.12262031,,,,,,,,,,,,,,,,,,,,,,,,,,,down,0,7.3323,,0.401851908,-0.090740755,1,0,0,1.0669,0,4,4,36,1,vuur,images/br_vuur.png,images/cb_vuur.png,0,,,,,,,,,,,,,,,,,,,,,,
,,,,,,00094,2023-10-31_17h05.51.011,vbt_B2_day2,2022.2.4,Win32,59.12262031,,,,,,,,,,,,,,,,,,,,,,,,,,,down,0,6.7315,,0.401851908,-0.090740755,1,0,0,0.7468,0,5,5,49,1,laken,images/br_laken.png,images/cb_laken.png,0,,,,,,,,,,,,,,,,,,,,,,
,,,,,,00094,2023-10-31_17h05.51.011,vbt_B2_day2,2022.2.4,Win32,59.12262031,,,,,,,,,,,,,,,,,,,,,,,,,,,down,0,3.2532,,0.401851908,-0.090740755,1,0,0,0.7662,0,6,6,109,1,totaal,images/br_totaal.png,images/cb_totaal.png,0,,,,,,,,,,,,,,,,,,,,,,
,,,,,,00094,2023-10-31_17h05.51.011,vbt_B2_day2,2022.2.4,Win32,59.12262031,,,,,,,,,,,,,,,,,,,,,,,,,,,down,0,5.2699,,0.401851908,-0.090740755,1,0,0,0.7168,0,7,7,26,1,leuk,images/br_leuk.png,images/cb_leuk.png,0,,,,,,,,,,,,,,,,,,,,,,
,,,,,,00094,2023-10-31_17h05.51.011,vbt_B2_day2,2022.2.4,Win32,59.12262031,,,,,,,,,,,,,,,,,,,,,,,,,,,down,0,14.3372,,0.401851908,-0.090740755,1,0,0,2.1829,0,8,8,99,1,koffie,images/br_koffie.png,images/cb_koffie.png,1,koffie,,,,,,,,,,,,,,,,,,,,,
,,,,,,00094,2023-10-31_17h05.51.011,vbt_B2_day2,2022.2.4,Win32,59.12262031,,,,,,,,,,,,,,,,,,,,,,,,,,,down,0,5.6453,,0.401851908,-0.090740755,1,0,0,0.7672,0,9,9,61,1,groen,images/br_groen.png,images/cb_groen.png,0,,,,,,,,,,,,,,,,,,,,,,
,,,,,,00094,2023-10-31_17h05.51.011,vbt_B2_day2,2022.2.4,Win32,59.12262031,,,,,,,,,,,,,,,,,,,,,,,,,,,down,0,11.8054,,0.401851908,-0.090740755,1,0,0,0.6824,0,10,10,113,1,koppen,images/br_koppen.png,images/cb_koppen.png,0,,,,,,,,,,,,,,,,,,,,,,
,,,,,,00094,2023-10-31_17h05.51.011,vbt_B2_day2,2022.2.4,Win32,59.12262031,,,,,,,,,,,,,,,,,,,,,,,,,,,down,0,9.1475,,0.401851908,-0.090740755,1,0,0,0.5664,0,11,11,78,1,leren,images/br_leren.png,images/cb_leren.png,0,,,,,,,,,,,,,,,,,,,,,,
,,,,,,00094,2023-10-31_17h05.51.011,vbt_B2_day2,2022.2.4,Win32,59.12262031,,,,,,,,,,,,,,,,,,,,,,,,,,,down,0,19.2314,,0.401851908,-0.090740755,1,0,0,2.9659,0,12,12,88,1,boeien,images/br_boeien.png,images/cb_boeien.png,0,,,,,,,,,,,,,,,,,,,,,,
,,,,,,00094,2023-10-31_17h05.51.011,vbt_B2_day2,2022.2.4,Win32,59.12262031,,,,,,,,,,,,,,,,,,,,,,,,,,,down,0,6.4704,,0.401851908,-0.090740755,1,0,0,0.6326,0,13,13,76,1,afval,images/br_afval.png,images/cb_afval.png,0,,,,,,,,,,,,,,,,,,,,,,
,,,,,,00094,2023-10-31_17h05.51.011,vbt_B2_day2,2022.2.4,Win32,59.12262031,,,,,,,,,,,,,,,,,,,,,,,,,,,down,0,19.4526,,0.401851908,-0.090740755,1,0,0,3.9655,0,14,14,195,1,middelen,images/br_middelen.png,images/cb_middelen.png,0,,,,,,,,,,,,,,,,,,,,,,
,,,,,,00094,2023-10-31_17h05.51.011,vbt_B2_day2,2022.2.4,Win32,59.12262031,,,,,,,,,,,,,,,,,,,,,,,,,,,down,0,3.8953,,0.401851908,-0.090740755,1,0,0,0.6172,0,15,15,73,1,volop,images/br_volop.png,images/cb_volop.png,0,,,,,,,,,,,,,,,,,,,,,,
,,,,,,00094,2023-10-31_17h05.51.011,vbt_B2_day2,2022.2.4,Win32,59.12262031,,,,,,,,,,,,,,,,,,,,,,,,,,,down,0,12.241,,0.401851908,-0.090740755,1,0,0,0.6827,0,16,16,169,1,oprotten,images/br_oprotten.png,images/cb_oprotten.png,0,,,,,,,,,,,,,,,,,,,,,,
,,,,,,00094,2023-10-31_17h05.51.011,vbt_B2_day2,2022.2.4,Win32,59.12262031,,,,,,,,,,,,,,,,,,,,,,,,,,,down,0,6.2162,,0.401851908,-0.090740755,1,0,0,0.6186,0,17,17,67,1,zwart,images/br_zwart.png,images/cb_zwart.png,0,,,,,,,,,,,,,,,,,,,,,,
,,,,,,00094,2023-10-31_17h05.51.011,vbt_B2_day2,2022.2.4,Win32,59.12262031,,,,,,,,,,,,,,,,,,,,,,,,,,,down,0,15.0521,,0.401851908,-0.090740755,1,0,0,0.8668,0,18,18,190,1,goedkoop,images/br_goedkoop.png,images/cb_goedkoop.png,0,,,,,,,,,,,,,,,,,,,,,,
,,,,,,00094,2023-10-31_17h05.51.011,vbt_B2_day2,2022.2.4,Win32,59.12262031,,,,,,,,,,,,,,,,,,,,,,,,,,,down,0,11.6893,,0.265740797,-0.065740755,1,0,0,0.6022,0,19,19,132,1,grappen,images/br_grappen.png,images/cb_grappen.png,0,,,,,,,,,,,,,,,,,,,,,,
,,,,,,00094,2023-10-31_17h05.51.011,vbt_B2_day2,2022.2.4,Win32,59.12262031,,,,,,,,,,,,,,,,,,,,,,,,,,,down,0,19.4095,,0.058333333,0.014814801,1,0,0,0.6668,0,20,20,135,1,gedicht,images/br_gedicht.png,images/cb_gedicht.png,0,,,,,,,,,,,,,,,,,,,,,,
,,,,,,00094,2023-10-31_17h05.51.011,vbt_B2_day2,2022.2.4,Win32,59.12262031,,,,,,,,,,,,,,,,,,,,,,,,,,,down,0,5.047,,0.226851908,-0.084259288,1,0,0,0.5504,0,21,21,191,1,opheffen,images/br_opheffen.png,images/cb_opheffen.png,0,,,,,,,,,,,,,,,,,,,,,,
,,,,,,00094,2023-10-31_17h05.51.011,vbt_B2_day2,2022.2.4,Win32,59.12262031,,,,,,,,,,,,,,,,,,,,,,,,,,,down,0,2.0989,,0.226851908,-0.084259288,1,0,0,0.5166,0,22,22,1,1,zaal,images/br_zaal.png,images/cb_zaal.png,0,,,,,,,,,,,,,,,,,,,,,,
,,,,,,00094,2023-10-31_17h05.51.011,vbt_B2_day2,2022.2.4,Win32,59.12262031,,,,,,,,,,,,,,,,,,,,,,,,,,,down,0,13.6299,,0.241666667,0,1,0,0,0.4999,0,23,23,143,1,hechten,images/br_hechten.png,images/cb_hechten.png,0,,,,,,,,,,,,,,,,,,,,,,
,,,,,,00094,2023-10-31_17h05.51.011,vbt_B2_day2,2022.2.4,Win32,59.12262031,,,,,,,,,,,,,,,,,,,,,,,,,,,down,0,4.1695,,0.212037065,-0.07129631,1,0,0,0.5158,0,24,24,47,1,kabel,images/br_kabel.png,images/cb_kabel.png,0,,,,,,,,,,,,,,,,,,,,,,
,,,,,,00094,2023-10-31_17h05.51.011,vbt_B2_day2,2022.2.4,Win32,59.12262031,,,,,,,,,,,,,,,,,,,,,,,,,,,down,0,3.4212,,0.275,-0.126851866,1,0,0,0.5829,0,25,25,12,1,kust,images/br_kust.png,images/cb_kust.png,0,,,,,,,,,,,,,,,,,,,,,,
,,,,,,00094,2023-10-31_17h05.51.011,vbt_B2_day2,2022.2.4,Win32,59.12262031,,,,,,,,,,,,,,,,,,,,,,,,,,,down,0,10.5303,,0.20648151,-0.042592621,1,0,0,0.4474,0,26,26,54,1,gebit,images/br_gebit.png,images/cb_gebit.png,0,,,,,,,,,,,,,,,,,,,,,,
,,,,,,00094,2023-10-31_17h05.51.011,vbt_B2_day2,2022.2.4,Win32,59.12262031,,,,,,,,,,,,,,,,,,,,,,,,,,,down,0,4.7377,,0.143518575,-0.13148151,1,0,0,0.6188,0,27,27,18,1,blik,images/br_blik.png,images/cb_blik.png,1,blik,,,,,,,,,,,,,,,,,,,,,
,,,,,,00094,2023-10-31_17h05.51.011,vbt_B2_day2,2022.2.4,Win32,59.12262031,,,,,,,,,,,,,,,,,,,,,,,,,,,down,0,17.0303,,0.225,0,1,0,0,1.7329,0,28,28,147,1,komisch,images/br_komisch.png,images/cb_komisch.png,0,,,,,,,,,,,,,,,,,,,,,,
,,,,,,00094,2023-10-31_17h05.51.011,vbt_B2_day2,2022.2.4,Win32,59.12262031,,,,,,,,,,,,,,,,,,,,,,,,,,,down,0,9.3864,,0.190740797,-0.13148151,1,0,0,0.4834,0,29,29,65,1,parel,images/br_parel.png,images/cb_parel.png,0,,,,,,,,,,,,,,,,,,,,,,
,,,,,,00094,2023-10-31_17h05.51.011,vbt_B2_day2,2022.2.4,Win32,59.12262031,,,,,,,,,,,,,,,,,,,,,,,,,,,down,0,14.868,,0.280555556,0.025,1,0,0,0.4994,0,30,30,92,1,geheim,images/br_geheim.png,images/cb_geheim.png,0,,,,,,,,,,,,,,,,,,,,,,
,,,,,,00094,2023-10-31_17h05.51.011,vbt_B2_day2,2022.2.4,Win32,59.12262031,,,,,,,,,,,,,,,,,,,,,,,,,,,down,0,8.6028,,0.318518575,-0.036111111,1,0,0,0.433,0,31,31,197,1,spanning,images/br_spanning.png,images/cb_spanning.png,0,,,,,,,,,,,,,,,,,,,,,,
,,,,,,00094,2023-10-31_17h05.51.011,vbt_B2_day2,2022.2.4,Win32,59.12262031,,,,,,,,,,,,,,,,,,,,,,,,,,,down,0,5.6814,,0.258333333,-0.074074088,1,0,0,0.4168,0,32,32,62,1,knaap,images/br_knaap.png,images/cb_knaap.png,0,,,,,,,,,,,,,,,,,,,,,,
,,,,,,00094,2023-10-31_17h05.51.011,vbt_B2_day2,2022.2.4,Win32,59.12262031,,,,,,,,,,,,,,,,,,,,,,,,,,,down,0,42.8377,,0.594444444,-0.013888889,1,0,0,28.7414,0,33,33,179,1,woestijn,images/br_woestijn.png,images/cb_woestijn.png,1,woestijn,,,,,,,,,,,,,,,,,,,,,
,,,,,,00094,2023-10-31_17h05.51.011,vbt_B2_day2,2022.2.4,Win32,59.12262031,,,,,,,,,,,,,,,,,,,,,,,,,,,down,0,4.9024,,0.285185242,-0.122222222,1,0,0,1.0162,0,34,34,7,1,geld,images/br_geld.png,images/cb_geld.png,0,,,,,,,,,,,,,,,,,,,,,,
,,,,,,00094,2023-10-31_17h05.51.011,vbt_B2_day2,2022.2.4,Win32,59.12262031,,,,,,,,,,,,,,,,,,,,,,,,,,,down,0,4.2317,,0.259259288,-0.05,1,0,0,0.4475,0,35,35,148,1,smullen,images/br_smullen.png,images/cb_smullen.png,0,,,,,,,,,,,,,,,,,,,,,,
,,,,,,00094,2023-10-31_17h05.51.011,vbt_B2_day2,2022.2.4,Win32,59.12262031,,,,,,,,,,,,,,,,,,,,,,,,,,,down,0,9.914,,0.339814843,-0.019444444,1,0,0,0.431,0,36,36,156,1,rechten,images/br_rechten.png,images/cb_rechten.png,0,,,,,,,,,,,,,,,,,,,,,,
,,,,,,00094,2023-10-31_17h05.51.011,vbt_B2_day2,2022.2.4,Win32,59.12262031,,,,,,,,,,,,,,,,,,,,,,,,,,,down,0,4.8154,,0.267592621,-0.118518533,1,0,0,0.5497,0,37,37,2,1,jaar,images/br_jaar.png,images/cb_jaar.png,0,,,,,,,,,,,,,,,,,,,,,,
,,,,,,00094,2023-10-31_17h05.51.011,vbt_B2_day2,2022.2.4,Win32,59.12262031,,,,,,,,,,,,,,,,,,,,,,,,,,,down,0,7.1229,,0.286111111,-0.017592621,1,0,0,0.5991,0,38,38,174,1,stemming,images/br_stemming.png,images/cb_stemming.png,0,,,,,,,,,,,,,,,,,,,,,,
,,,,,,00094,2023-10-31_17h05.51.011,vbt_B2_day2,2022.2.4,Win32,59.12262031,,,,,,,,,,,,,,,,,,,,,,,,,,,down,0,2.8772,,0.158333333,-0.05648151,1,0,0,0.4496,0,39,39,22,1,stof,images/br_stof.png,images/cb_stof.png,0,,,,,,,,,,,,,,,,,,,,,,
,,,,,,00094,2023-10-31_17h05.51.011,vbt_B2_day2,2022.2.4,Win32,59.12262031,,,,,,,,,,,,,,,,,,,,,,,,,,,down,0,7.0226,,0.150925954,-0.017592621,1,0,0,0.3998,0,40,40,87,1,toeval,images/br_toeval.png,images/cb_toeval.png,0,,,,,,,,,,,,,,,,,,,,,,
,,,,,,00094,2023-10-31_17h05.51.011,vbt_B2_day2,2022.2.4,Win32,59.12262031,,,,,,,,,,,,,,,,,,,,,,,,,,,down,0,12.7018,,0.290740797,-0.025,1,0,0,0.3994,0,41,41,145,1,invloed,images/br_invloed.png,images/cb_invloed.png,0,,,,,,,,,,,,,,,,,,,,,,
,,,,,,00094,2023-10-31_17h05.51.011,vbt_B2_day2,2022.2.4,Win32,59.12262031,,,,,,,,,,,,,,,,,,,,,,,,,,,down,0,5.2431,,0.339814843,-0.079629644,1,0,0,0.417,0,42,42,122,1,waarvan,images/br_waarvan.png,images/cb_waarvan.png,0,,,,,,,,,,,,,,,,,,,,,,
,,,,,,00094,2023-10-31_17h05.51.011,vbt_B2_day2,2022.2.4,Win32,59.12262031,,,,,,,,,,,,,,,,,,,,,,,,,,,down,0,4.4768,,0.339814843,-0.079629644,1,0,0,0.4333,0,43,43,56,1,traag,images/br_traag.png,images/cb_traag.png,1,traag,,,,,,,,,,,,,,,,,,,,,
,,,,,,00094,2023-10-31_17h05.51.011,vbt_B2_day2,2022.2.4,Win32,59.12262031,,,,,,,,,,,,,,,,,,,,,,,,,,,down,0,3.2162,,0.339814843,-0.079629644,1,0,0,0.4501,0,44,44,16,1,ziek,images/br_ziek.png,images/cb_ziek.png,1,ziek,,,,,,,,,,,,,,,,,,,,,
,,,,,,00094,2023-10-31_17h05.51.011,vbt_B2_day2,2022.2.4,Win32,59.12262031,,,,,,,,,,,,,,,,,,,,,,,,,,,down,0,15.4398,,0.357407464,-0.060185199,1,0,0,0.5494,0,45,45,167,1,eenhoorn,images/br_eenhoorn.png,images/cb_eenhoorn.png,0,,,,,,,,,,,,,,,,,,,,,,
,,,,,,00094,2023-10-31_17h05.51.011,vbt_B2_day2,2022.2.4,Win32,59.12262031,,,,,,,,,,,,,,,,,,,,,,,,,,,down,0,5.9155,,0.2,-0.025,1,0,0,0.3829,0,46,46,86,1,woning,images/br_woning.png,images/cb_woning.png,0,,,,,,,,,,,,,,,,,,,,,,
,,,,,,00094,2023-10-31_17h05.51.011,vbt_B2_day2,2022.2.4,Win32,59.12262031,,,,,,,,,,,,,,,,,,,,,,,,,,,down,0,8.6049,,0.163888889,-0.14629631,1,0,0,0.4337,0,47,47,133,1,seizoen,images/br_seizoen.png,images/cb_seizoen.png,0,,,,,,,,,,,,,,,,,,,,,,
,,,,,,00094,2023-10-31_17h05.51.011,vbt_B2_day2,2022.2.4,Win32,59.12262031,,,,,,,,,,,,,,,,,,,,,,,,,,,down,0,13.5525,,0.301851908,-0.065740755,1,0,0,0.4168,0,48,48,188,1,strekken,images/br_strekken.png,images/cb_strekken.png,0,,,,,,,,,,,,,,,,,,,,,,
,,,,,,00094,2023-10-31_17h05.51.011,vbt_B2_day2,2022.2.4,Win32,59.12262031,,,,,,,,,,,,,,,,,,,,,,,,,,,down,0,11.847,,0.263888889,-0.065740755,1,0,0,0.6808,0,49,49,60,1,jasje,images/br_jasje.png,images/cb_jasje.png,0,,,,,,,,,,,,,,,,,,,,,,
,,,,,,00094,2023-10-31_17h05.51.011,vbt_B2_day2,2022.2.4,Win32,59.12262031,,,,,,,,,,,,,,,,,,,,,,,,,,,down,0,8.7979,,0.214814843,-0.059259288,1,0,0,0.5299,0,50,50,199,1,beseffen,images/br_beseffen.png,images/cb_beseffen.png,0,,,,,,,,,,,,,,,,,,,,,,
,,,,,,00094,2023-10-31_17h05.51.011,vbt_B2_day2,2022.2.4,Win32,59.12262031,,,,,,,,,,,,,,,,,,,,,,,,,,,down,0,1.0113,,0.126851908,-0.060185199,1,0,0,0.4824,0,51,51,50,1,stoom,images/br_stoom.png,images/cb_stoom.png,0,,,,,,,,,,,,,,,,,,,,,,
,,,,,,00094,2023-10-31_17h05.51.011,vbt_B2_day2,2022.2.4,Win32,59.12262031,,,,,,,,,,,,,,,,,,,,,,,,,,,down,0,3.8052,,0.137037065,-0.02129631,1,0,0,0.4495,0,52,52,104,1,zweven,images/br_zweven.png,images/cb_zweven.png,0,,,,,,,,,,,,,,,,,,,,,,
,,,,,,00094,2023-10-31_17h05.51.011,vbt_B2_day2,2022.2.4,Win32,59.12262031,,,,,,,,,,,,,,,,,,,,,,,,,,,down,0,7.6133,,0.245370399,-0.060185199,1,0,0,0.533,0,53,53,193,1,weeshuis,images/br_weeshuis.png,images/cb_weeshuis.png,0,,,,,,,,,,,,,,,,,,,,,,
,,,,,,00094,2023-10-31_17h05.51.011,vbt_B2_day2,2022.2.4,Win32,59.12262031,,,,,,,,,,,,,,,,,,,,,,,,,,,down,0,23.5093,,0.18148151,-0.143518533,1,0,0,7.0815,0,54,54,187,1,opkijken,images/br_opkijken.png,images/cb_opkijken.png,0,,,,,,,,,,,,,,,,,,,,,,
,,,,,,00094,2023-10-31_17h05.51.011,vbt_B2_day2,2022.2.4,Win32,59.12262031,,,,,,,,,,,,,,,,,,,,,,,,,,,down,0,2.5735,,0.291666667,-0.043518533,1,0,0,0.4662,0,55,55,120,1,klimmen,images/br_klimmen.png,images/cb_klimmen.png,0,,,,,,,,,,,,,,,,,,,,,,
,,,,,,00094,2023-10-31_17h05.51.011,vbt_B2_day2,2022.2.4,Win32,59.12262031,,,,,,,,,,,,,,,,,,,,,,,,,,,down,0,3.0994,,0.169444444,-0.03148151,1,0,0,0.5168,0,56,56,110,1,zuster,images/br_zuster.png,images/cb_zuster.png,0,,,,,,,,,,,,,,,,,,,,,,
,,,,,,00094,2023-10-31_17h05.51.011,vbt_B2_day2,2022.2.4,Win32,59.12262031,,,,,,,,,,,,,,,,,,,,,,,,,,,down,0,1.4737,,0.080555556,-0.039814843,1,0,0,0.4664,0,57,57,13,1,kaal,images/br_kaal.png,images/cb_kaal.png,0,,,,,,,,,,,,,,,,,,,,,,
,,,,,,00094,2023-10-31_17h05.51.011,vbt_B2_day2,2022.2.4,Win32,59.12262031,,,,,,,,,,,,,,,,,,,,,,,,,,,down,0,4.864,,0.228703732,-0.150925954,1,0,0,0.4487,0,58,58,153,1,vervoer,images/br_vervoer.png,images/cb_vervoer.png,0,,,,,,,,,,,,,,,,,,,,,,
,,,,,,00094,2023-10-31_17h05.51.011,vbt_B2_day2,2022.2.4,Win32,59.12262031,,,,,,,,,,,,,,,,,,,,,,,,,,,down,0,9.6302,,0.239814843,-0.017592621,1,0,0,0.433,0,59,59,123,1,hiervan,images/br_hiervan.png,images/cb_hiervan.png,0,,,,,,,,,,,,,,,,,,,,,,
,,,,,,00094,2023-10-31_17h05.51.011,vbt_B2_day2,2022.2.4,Win32,59.12262031,,,,,,,,,,,,,,,,,,,,,,,,,,,down,0,8.8936,,0.053703732,-0.018518533,1,0,0,0.6,0,60,60,3,1,mand,images/br_mand.png,images/cb_mand.png,0,,,,,,,,,,,,,,,,,,,,,,
,,,,,,00094,2023-10-31_17h05.51.011,vbt_B2_day2,2022.2.4,Win32,59.12262031,,,,,,,,,,,,,,,,,,,,,,,,,,,down,0,12.3303,,0.136111111,-0.034259288,1,0,0,0.5169,0,61,61,23,1,zout,images/br_zout.png,images/cb_zout.png,0,,,,,,,,,,,,,,,,,,,,,,
,,,,,,00094,2023-10-31_17h05.51.011,vbt_B2_day2,2022.2.4,Win32,59.12262031,,,,,,,,,,,,,,,,,,,,,,,,,,,down,0,10.6531,,0.128703732,-0.02129631,1,0,0,1.02,0,62,62,45,1,piste,images/br_piste.png,images/cb_piste.png,0,,,,,,,,,,,,,,,,,,,,,,
,,,,,,00094,2023-10-31_17h05.51.011,vbt_B2_day2,2022.2.4,Win32,59.12262031,,,,,,,,,,,,,,,,,,,,,,,,,,,down,0,2.7328,,0.273148176,-0.033333333,1,0,0,0.4666,0,63,63,186,1,voorraad,images/br_voorraad.png,images/cb_voorraad.png,0,,,,,,,,,,,,,,,,,,,,,,
,,,,,,00094,2023-10-31_17h05.51.011,vbt_B2_day2,2022.2.4,Win32,59.12262031,,,,,,,,,,,,,,,,,,,,,,,,,,,down,0,7.2281,,-0.070370314,-0.04629631,1,0,0,1.0499,0,64,64,177,1,maaltijd,images/br_maaltijd.png,images/cb_maaltijd.png,1,maaltijd,,,,,,,,,,,,,,,,,,,,,
,,,,,,00094,2023-10-31_17h05.51.011,vbt_B2_day2,2022.2.4,Win32,59.12262031,,,,,,,,,,,,,,,,,,,,,,,,,,,down,0,12.2797,,0.05648151,-0.128703732,1,0,0,0.681,0,65,65,44,1,flits,images/br_flits.png,images/cb_flits.png,0,,,,,,,,,,,,,,,,,,,,,,
,,,,,,00094,2023-10-31_17h05.51.011,vbt_B2_day2,2022.2.4,Win32,59.12262031,,,,,,,,,,,,,,,,,,,,,,,,,,,down,0,8.5397,,0.523148176,-0.077777778,1,0,0,1.8495,0,66,66,80,1,kanjer,images/br_kanjer.png,images/cb_kanjer.png,0,,,,,,,,,,,,,,,,,,,,,,
,,,,,,00094,2023-10-31_17h05.51.011,vbt_B2_day2,2022.2.4,Win32,59.12262031,,,,,,,,,,,,,,,,,,,,,,,,,,,down,0,5.9477,,0.523148176,-0.077777778,1,0,0,0.466,0,67,67,70,1,ijdel,images/br_ijdel.png,images/cb_ijdel.png,0,,,,,,,,,,,,,,,,,,,,,,
,,,,,,00094,2023-10-31_17h05.51.011,vbt_B2_day2,2022.2.4,Win32,59.12262031,,,,,,,,,,,,,,,,,,,,,,,,,,,down,0,2.8402,,0.523148176,-0.077777778,1,0,0,0.5158,0,68,68,38,1,baai,images/br_baai.png,images/cb_baai.png,0,,,,,,,,,,,,,,,,,,,,,,
,,,,,,00094,2023-10-31_17h05.51.011,vbt_B2_day2,2022.2.4,Win32,59.12262031,,,,,,,,,,,,,,,,,,,,,,,,,,,down,0,7.5875,,0.523148176,-0.077777778,1,0,0,0.4662,0,69,69,37,1,mijn,images/br_mijn.png,images/cb_mijn.png,0,,,,,,,,,,,,,,,,,,,,,,
,,,,,,00094,2023-10-31_17h05.51.011,vbt_B2_day2,2022.2.4,Win32,59.12262031,,,,,,,,,,,,,,,,,,,,,,,,,,,down,0,18.9991,,0.245370399,-0.029629644,1,0,0,0.5663,0,70,70,131,1,opzicht,images/br_opzicht.png,images/cb_opzicht.png,0,,,,,,,,,,,,,,,,,,,,,,
,,,,,,00094,2023-10-31_17h05.51.011,vbt_B2_day2,2022.2.4,Win32,59.12262031,,,,,,,,,,,,,,,,,,,,,,,,,,,down,0,3.5296,,0.210185242,-0.00648151,1,0,0,0.4507,0,71,71,83,1,mening,images/br_mening.png,images/cb_mening.png,0,,,,,,,,,,,,,,,,,,,,,,
,,,,,,00094,2023-10-31_17h05.51.011,vbt_B2_day2,2022.2.4,Win32,59.12262031,,,,,,,,,,,,,,,,,,,,,,,,,,,down,0,6.8078,,0.233333333,-0.019444444,1,0,0,1.4996,0,72,72,118,1,vinger,images/br_vinger.png,images/cb_vinger.png,0,,,,,,,,,,,,,,,,,,,,,,
,,,,,,00094,2023-10-31_17h05.51.011,vbt_B2_day2,2022.2.4,Win32,59.12262031,,,,,,,,,,,,,,,,,,,,,,,,,,,down,0,6.9382,,0.222222222,-0.010185199,1,0,0,0.4831,0,73,73,127,1,doodmoe,images/br_doodmoe.png,images/cb_doodmoe.png,0,,,,,,,,,,,,,,,,,,,,,,
,,,,,,00094,2023-10-31_17h05.51.011,vbt_B2_day2,2022.2.4,Win32,59.12262031,,,,,,,,,,,,,,,,,,,,,,,,,,,down,0,5.9663,,0.239814843,-0.039814843,1,0,0,0.6492,0,74,74,149,1,redding,images/br_redding.png,images/cb_redding.png,0,,,,,,,,,,,,,,,,,,,,,,
,,,,,,00094,2023-10-31_17h05.51.011,vbt_B2_day2,2022.2.4,Win32,59.12262031,,,,,,,,,,,,,,,,,,,,,,,,,,,down,0,2.2484,,0.213888889,-0.075,1,0,0,0.465,0,75,75,55,1,praat,images/br_praat.png,images/cb_praat.png,0,,,,,,,,,,,,,,,,,,,,,,
,,,,,,00094,2023-10-31_17h05.51.011,vbt_B2_day2,2022.2.4,Win32,59.12262031,,,,,,,,,,,,,,,,,,,,,,,,,,,down,0,10.5464,,0.225925954,0.00370369,1,0,0,0.4671,0,76,76,159,1,sufferd,images/br_sufferd.png,images/cb_sufferd.png,0,,,,,,,,,,,,,,,,,,,,,,
,,,,,,00094,2023-10-31_17h05.51.011,vbt_B2_day2,2022.2.4,Win32,59.12262031,,,,,,,,,,,,,,,,,,,,,,,,,,,down,0,3.6908,,0.135185242,-0.02129631,1,0,0,0.4327,0,77,77,29,1,baas,images/br_baas.png,images/cb_baas.png,0,,,,,,,,,,,,,,,,,,,,,,
,,,,,,00094,2023-10-31_17h05.51.011,vbt_B2_day2,2022.2.4,Win32,59.12262031,,,,,,,,,,,,,,,,,,,,,,,,,,,down,0,6.6162,,0.252777778,-0.003703732,1,0,0,0.4331,0,78,78,103,1,joggen,images/br_joggen.png,images/cb_joggen.png,0,,,,,,,,,,,,,,,,,,,,,,
,,,,,,00094,2023-10-31_17h05.51.011,vbt_B2_day2,2022.2.4,Win32,59.12262031,,,,,,,,,,,,,,,,,,,,,,,,,,,down,0,9.6923,,0.275,-0.023148176,1,0,0,0.4172,0,79,79,171,1,aarzelen,images/br_aarzelen.png,images/cb_aarzelen.png,0,,,,,,,,,,,,,,,,,,,,,,
,,,,,,00094,2023-10-31_17h05.51.011,vbt_B2_day2,2022.2.4,Win32,59.12262031,,,,,,,,,,,,,,,,,,,,,,,,,,,down,0,0.4729,,0.199074131,-0.020370399,1,0,0,0.4999,0,80,80,39,1,laag,images/br_laag.png,images/cb_laag.png,0,,,,,,,,,,,,,,,,,,,,,,
,,,,,,00094,2023-10-31_17h05.51.011,vbt_B2_day2,2022.2.4,Win32,59.12262031,,,,,,,,,,,,,,,,,,,,,,,,,,,down,0,2.6396,,0.203703732,-0.072222222,1,0,0,0.5018,0,81,81,66,1,lever,images/br_lever.png,images/cb_lever.png,0,,,,,,,,,,,,,,,,,,,,,,
,,,,,,00094,2023-10-31_17h05.51.011,vbt_B2_day2,2022.2.4,Win32,59.12262031,,,,,,,,,,,,,,,,,,,,,,,,,,,down,0,25.4517,,0.419444444,-0.049074088,1,0,0,5.998,0,82,82,130,1,keihard,images/br_keihard.png,images/cb_keihard.png,0,,,,,,,,,,,,,,,,,,,,,,
,,,,,,00094,2023-10-31_17h05.51.011,vbt_B2_day2,2022.2.4,Win32,59.12262031,,,,,,,,,,,,,,,,,,,,,,,,,,,down,0,4.0235,,0.295370399,-0.028703732,1,0,0,0.5332,0,83,83,154,1,aflopen,images/br_aflopen.png,images/cb_aflopen.png,0,,,,,,,,,,,,,,,,,,,,,,
,,,,,,00094,2023-10-31_17h05.51.011,vbt_B2_day2,2022.2.4,Win32,59.12262031,,,,,,,,,,,,,,,,,,,,,,,,,,,down,0,5.5482,,0.238888889,-0.00648151,1,0,0,0.4838,0,84,84,53,1,baron,images/br_baron.png,images/cb_baron.png,0,,,,,,,,,,,,,,,,,,,,,,
,,,,,,00094,2023-10-31_17h05.51.011,vbt_B2_day2,2022.2.4,Win32,59.12262031,,,,,,,,,,,,,,,,,,,,,,,,,,,down,0,6.8322,,0.162037065,0.002777778,1,0,0,0.597,0,85,85,146,1,opkomen,images/br_opkomen.png,images/cb_opkomen.png,0,,,,,,,,,,,,,,,,,,,,,,
,,,,,,00094,2023-10-31_17h05.51.011,vbt_B2_day2,2022.2.4,Win32,59.12262031,,,,,,,,,,,,,,,,,,,,,,,,,,,down,0,2.566,,0.088888889,-0.022222222,1,0,0,0.514,0,86,86,6,1,diep,images/br_diep.png,images/cb_diep.png,0,,,,,,,,,,,,,,,,,,,,,,
,,,,,,00094,2023-10-31_17h05.51.011,vbt_B2_day2,2022.2.4,Win32,59.12262031,,,,,,,,,,,,,,,,,,,,,,,,,,,down,0,13.7333,,0.289814843,-0.027777778,1,0,0,0.4168,0,87,87,180,1,openbaar,images/br_openbaar.png,images/cb_openbaar.png,0,,,,,,,,,,,,,,,,,,,,,,
,,,,,,00094,2023-10-31_17h05.51.011,vbt_B2_day2,2022.2.4,Win32,59.12262031,,,,,,,,,,,,,,,,,,,,,,,,,,,down,0,2.6507,,0.15648151,-0.023148176,1,0,0,0.4166,0,88,88,141,1,knielen,images/br_knielen.png,images/cb_knielen.png,0,,,,,,,,,,,,,,,,,,,,,,
,,,,,,00094,2023-10-31_17h05.51.011,vbt_B2_day2,2022.2.4,Win32,59.12262031,,,,,,,,,,,,,,,,,,,,,,,,,,,down,0,7.4308,,0.069444444,-0.040740755,1,0,0,1.9154,0,89,89,116,1,besmet,images/br_besmet.png,images/cb_besmet.png,0,,,,,,,,,,,,,,,,,,,,,,
,,,,,,00094,2023-10-31_17h05.51.011,vbt_B2_day2,2022.2.4,Win32,59.12262031,,,,,,,,,,,,,,,,,,,,,,,,,,,down,0,3.2024,,0.273148176,-0.053703732,1,0,0,0.4331,0,90,90,79,1,nodig,images/br_nodig.png,images/cb_nodig.png,0,,,,,,,,,,,,,,,,,,,,,,
,,,,,,00094,2023-10-31_17h05.51.011,vbt_B2_day2,2022.2.4,Win32,59.12262031,,,,,,,,,,,,,,,,,,,,,,,,,,,down,0,5.3369,,0.129629686,-0.035185199,1,0,0,0.5665,0,91,91,42,1,bleek,images/br_bleek.png,images/cb_bleek.png,0,,,,,,,,,,,,,,,,,,,,,,
,,,,,,00094,2023-10-31_17h05.51.011,vbt_B2_day2,2022.2.4,Win32,59.12262031,,,,,,,,,,,,,,,,,,,,,,,,,,,down,0,7.8339,,0.28148151,-0.020370399,1,0,0,0.5329,0,92,92,182,1,bijkomen,images/br_bijkomen.png,images/cb_bijkomen.png,0,,,,,,,,,,,,,,,,,,,,,,
,,,,,,00094,2023-10-31_17h05.51.011,vbt_B2_day2,2022.2.4,Win32,59.12262031,,,,,,,,,,,,,,,,,,,,,,,,,,,down,0,10.6418,,0.668518575,-0.19629631,1,0,0,1.9995,0,93,93,136,1,waarbij,images/br_waarbij.png,images/cb_waarbij.png,1,waarbij,,,,,,,,,,,,,,,,,,,,,
,,,,,,00094,2023-10-31_17h05.51.011,vbt_B2_day2,2022.2.4,Win32,59.12262031,,,,,,,,,,,,,,,,,,,,,,,,,,,down,0,9.8422,,0.141666667,-0.003703732,1,0,0,0.4829,0,94,94,51,1,samen,images/br_samen.png,images/cb_samen.png,0,,,,,,,,,,,,,,,,,,,,,,
,,,,,,00094,2023-10-31_17h05.51.011,vbt_B2_day2,2022.2.4,Win32,59.12262031,,,,,,,,,,,,,,,,,,,,,,,,,,,down,0,11.3968,,0.147222222,-0.032407422,1,0,0,0.3999,0,95,95,81,1,dubbel,images/br_dubbel.png,images/cb_dubbel.png,0,,,,,,,,,,,,,,,,,,,,,,
,,,,,,00094,2023-10-31_17h05.51.011,vbt_B2_day2,2022.2.4,Win32,59.12262031,,,,,,,,,,,,,,,,,,,,,,,,,,,down,0,2.3993,,0.126851908,-0.061111111,1,0,0,0.4828,0,96,96,40,1,schep,images/br_schep.png,images/cb_schep.png,0,,,,,,,,,,,,,,,,,,,,,,
,,,,,,00094,2023-10-31_17h05.51.011,vbt_B2_day2,2022.2.4,Win32,59.12262031,,,,,,,,,,,,,,,,,,,,,,,,,,,down,0,4.1071,,0.277777778,-0.020370399,1,0,0,0.4166,0,97,97,192,1,schaamte,images/br_schaamte.png,images/cb_schaamte.png,0,,,,,,,,,,,,,,,,,,,,,,
,,,,,,00094,2023-10-31_17h05.51.011,vbt_B2_day2,2022.2.4,Win32,59.12262031,,,,,,,,,,,,,,,,,,,,,,,,,,,down,0,10.7214,,0.329629686,0.011111111,1,0,0,0.3993,0,98,98,160,1,daarheen,images/br_daarheen.png,images/cb_daarheen.png,0,,,,,,,,,,,,,,,,,,,,,,
,,,,,,00094,2023-10-31_17h05.51.011,vbt_B2_day2,2022.2.4,Win32,59.12262031,,,,,,,,,,,,,,,,,,,,,,,,,,,down,0,2.7527,,0.397222222,-0.112037065,1,0,0,0.4337,0,99,99,25,1,plek,images/br_plek.png,images/cb_plek.png,0,,,,,,,,,,,,,,,,,,,,,,
,,,,,,00094,2023-10-31_17h05.51.011,vbt_B2_day2,2022.2.4,Win32,59.12262031,,,,,,,,,,,,,,,,,,,,,,,,,,,down,0,2.2066,,0.042592621,0.006481467,1,0,0,0.4168,0,100,100,8,1,knie,images/br_knie.png,images/cb_knie.png,0,,,,,,,,,,,,,,,,,,,,,,
,,,,,,00094,2023-10-31_17h05.51.011,vbt_B2_day2,2022.2.4,Win32,59.12262031,,,,,,,,,,,,,,,,,,,,,,,,,,,down,0,5.3162,,0.242592621,0.009259245,1,0,0,1.4135,0,101,101,46,1,jagen,images/br_jagen.png,images/cb_jagen.png,0,,,,,,,,,,,,,,,,,,,,,,
,,,,,,00094,2023-10-31_17h05.51.011,vbt_B2_day2,2022.2.4,Win32,59.12262031,,,,,,,,,,,,,,,,,,,,,,,,,,,down,0,13.6424,,0.225925954,-0.064814843,1,0,0,0.4503,0,102,102,71,1,bever,images/br_bever.png,images/cb_bever.png,0,,,,,,,,,,,,,,,,,,,,,,
,,,,,,00094,2023-10-31_17h05.51.011,vbt_B2_day2,2022.2.4,Win32,59.12262031,,,,,,,,,,,,,,,,,,,,,,,,,,,down,0,5.4185,,0.193518575,-0.067592621,1,0,0,0.5502,0,103,103,9,1,hier,images/br_hier.png,images/cb_hier.png,0,,,,,,,,,,,,,,,,,,,,,,
,,,,,,00094,2023-10-31_17h05.51.011,vbt_B2_day2,2022.2.4,Win32,59.12262031,,,,,,,,,,,,,,,,,,,,,,,,,,,down,0,10.0909,,0.285185242,0.024074046,1,0,0,0.4329,0,104,104,168,1,bisschop,images/br_bisschop.png,images/cb_bisschop.png,0,,,,,,,,,,,,,,,,,,,,,,
,,,,,,00094,2023-10-31_17h05.51.011,vbt_B2_day2,2022.2.4,Win32,59.12262031,,,,,,,,,,,,,,,,,,,,,,,,,,,down,0,3.8348,,0.288888889,-0.025,1,0,0,0.416,0,105,105,172,1,weigeren,images/br_weigeren.png,images/cb_weigeren.png,0,,,,,,,,,,,,,,,,,,,,,,
,,,,,,00094,2023-10-31_17h05.51.011,vbt_B2_day2,2022.2.4,Win32,59.12262031,,,,,,,,,,,,,,,,,,,,,,,,,,,down,0,10.9354,,0.364814843,-0.086111111,1,0,0,0.5659,0,106,106,129,1,verhaal,images/br_verhaal.png,images/cb_verhaal.png,0,,,,,,,,,,,,,,,,,,,,,,
,,,,,,00094,2023-10-31_17h05.51.011,vbt_B2_day2,2022.2.4,Win32,59.12262031,,,,,,,,,,,,,,,,,,,,,,,,,,,down,0,3.0159,,0.175,-0.002777778,1,0,0,0.5145,0,107,107,125,1,aanzien,images/br_aanzien.png,images/cb_aanzien.png,0,,,,,,,,,,,,,,,,,,,,,,
,,,,,,00094,2023-10-31_17h05.51.011,vbt_B2_day2,2022.2.4,Win32,59.12262031,,,,,,,,,,,,,,,,,,,,,,,,,,,down,0,31.841,,0.113888889,-0.118518533,1,0,0,1.2827,0,108,108,24,1,jurk,images/br_jurk.png,images/cb_jurk.png,0,,,,,,,,,,,,,,,,,,,,,,
,,,,,,00094,2023-10-31_17h05.51.011,vbt_B2_day2,2022.2.4,Win32,59.12262031,,,,,,,,,,,,,,,,,,,,,,,,,,,down,0,11.1981,,0.258333333,-0.029629644,1,0,0,0.7334,0,109,109,181,1,toegeven,images/br_toegeven.png,images/cb_toegeven.png,0,,,,,,,,,,,,,,,,,,,,,,
,,,,,,00094,2023-10-31_17h05.51.011,vbt_B2_day2,2022.2.4,Win32,59.12262031,,,,,,,,,,,,,,,,,,,,,,,,,,,down,0,6.5313,,0.258333333,-0.029629644,1,0,0,0.4308,0,110,110,59,1,kring,images/br_kring.png,images/cb_kring.png,1,kring,,,,,,,,,,,,,,,,,,,,,
,,,,,,00094,2023-10-31_17h05.51.011,vbt_B2_day2,2022.2.4,Win32,59.12262031,,,,,,,,,,,,,,,,,,,,,,,,,,,down,0,4.8264,,0.182407464,-0.038888889,1,0,0,0.4335,0,111,111,152,1,afnemen,images/br_afnemen.png,images/cb_afnemen.png,0,,,,,,,,,,,,,,,,,,,,,,
,,,,,,00094,2023-10-31_17h05.51.011,vbt_B2_day2,2022.2.4,Win32,59.12262031,,,,,,,,,,,,,,,,,,,,,,,,,,,down,0,2.8498,,0.182407464,-0.038888889,1,0,0,0.4327,0,112,112,57,1,steek,images/br_steek.png,images/cb_steek.png,1,steek,,,,,,,,,,,,,,,,,,,,,
,,,,,,00094,2023-10-31_17h05.51.011,vbt_B2_day2,2022.2.4,Win32,59.12262031,,,,,,,,,,,,,,,,,,,,,,,,,,,down,0,3.8175,,0.455555556,-0.179629644,1,0,0,0.483,0,113,113,10,1,leek,images/br_leek.png,images/cb_leek.png,0,,,,,,,,,,,,,,,,,,,,,,
,,,,,,00094,2023-10-31_17h05.51.011,vbt_B2_day2,2022.2.4,Win32,59.12262031,,,,,,,,,,,,,,,,,,,,,,,,,,,down,0,6.6417,,0.33148151,-0.038888889,1,0,0,0.4501,0,114,114,183,1,getuigen,images/br_getuigen.png,images/cb_getuigen.png,0,,,,,,,,,,,,,,,,,,,,,,
,,,,,,00094,2023-10-31_17h05.51.011,vbt_B2_day2,2022.2.4,Win32,59.12262031,,,,,,,,,,,,,,,,,,,,,,,,,,,down,0,5.0145,,0.327777778,-0.042592621,1,0,0,1.0975,0,115,115,101,1,staren,images/br_staren.png,images/cb_staren.png,0,,,,,,,,,,,,,,,,,,,,,,
,,,,,,00094,2023-10-31_17h05.51.011,vbt_B2_day2,2022.2.4,Win32,59.12262031,,,,,,,,,,,,,,,,,,,,,,,,,,,down,0,6.081,,0.218518575,0.009259245,1,0,0,0.5659,0,116,116,74,1,graaf,images/br_graaf.png,images/cb_graaf.png,0,,,,,,,,,,,,,,,,,,,,,,
,,,,,,00094,2023-10-31_17h05.51.011,vbt_B2_day2,2022.2.4,Win32,59.12262031,,,,,,,,,,,,,,,,,,,,,,,,,,,down,0,1.5918,,-0.008333333,-0.17129631,1,0,0,0.6835,0,117,117,31,1,poes,images/br_poes.png,images/cb_poes.png,0,,,,,,,,,,,,,,,,,,,,,,
,,,,,,00094,2023-10-31_17h05.51.011,vbt_B2_day2,2022.2.4,Win32,59.12262031,,,,,,,,,,,,,,,,,,,,,,,,,,,down,0,3.7431,,0.139814843,-0.072222222,1,0,0,0.4499,0,118,118,77,1,woede,images/br_woede.png,images/cb_woede.png,0,,,,,,,,,,,,,,,,,,,,,,
,,,,,,00094,2023-10-31_17h05.51.011,vbt_B2_day2,2022.2.4,Win32,59.12262031,,,,,,,,,,,,,,,,,,,,,,,,,,,down,0,8.4059,,0.139814843,-0.072222222,1,0,0,1.7995,0,119,119,137,1,trekker,images/br_trekker.png,images/cb_trekker.png,1,trekker,,,,,,,,,,,,,,,,,,,,,
,,,,,,00094,2023-10-31_17h05.51.011,vbt_B2_day2,2022.2.4,Win32,59.12262031,,,,,,,,,,,,,,,,,,,,,,,,,,,down,0,9.2387,,0.387037065,-0.029629644,1,0,0,0.4164,0,120,120,198,1,bedoelen,images/br_bedoelen.png,images/cb_bedoelen.png,0,,,,,,,,,,,,,,,,,,,,,,
,,,,,,00094,2023-10-31_17h05.51.011,vbt_B2_day2,2022.2.4,Win32,59.12262031,,,,,,,,,,,,,,,,,,,,,,,,,,,down,0,12.0275,,0.268518575,-0.062962977,1,0,0,0.4834,0,121,121,100,1,geduld,images/br_geduld.png,images/cb_geduld.png,0,,,,,,,,,,,,,,,,,,,,,,
,,,,,,00094,2023-10-31_17h05.51.011,vbt_B2_day2,2022.2.4,Win32,59.12262031,,,,,,,,,,,,,,,,,,,,,,,,,,,down,0,2.4533,,0.20648151,-0.029629644,1,0,0,0.4492,0,122,122,64,1,wegen,images/br_wegen.png,images/cb_wegen.png,0,,,,,,,,,,,,,,,,,,,,,,
,,,,,,00094,2023-10-31_17h05.51.011,vbt_B2_day2,2022.2.4,Win32,59.12262031,,,,,,,,,,,,,,,,,,,,,,,,,,,down,0,13.1362,,0.327777778,-0.097222222,1,0,0,0.6168,0,123,123,85,1,heilig,images/br_heilig.png,images/cb_heilig.png,0,,,,,,,,,,,,,,,,,,,,,,
,,,,,,00094,2023-10-31_17h05.51.011,vbt_B2_day2,2022.2.4,Win32,59.12262031,,,,,,,,,,,,,,,,,,,,,,,,,,,down,0,7.3692,,0.430555556,-0.010185199,1,0,0,0.4828,0,124,124,175,1,heengaan,images/br_heengaan.png,images/cb_heengaan.png,0,,,,,,,,,,,,,,,,,,,,,,
,,,,,,00094,2023-10-31_17h05.51.011,vbt_B2_day2,2022.2.4,Win32,59.12262031,,,,,,,,,,,,,,,,,,,,,,,,,,,down,0,6.4873,,0.550926039,-0.075,1,0,0,0.5829,0,125,125,189,1,aanraden,images/br_aanraden.png,images/cb_aanraden.png,0,,,,,,,,,,,,,,,,,,,,,,
,,,,,,00094,2023-10-31_17h05.51.011,vbt_B2_day2,2022.2.4,Win32,59.12262031,,,,,,,,,,,,,,,,,,,,,,,,,,,down,0,1.8328,,0.293518575,-0.087962977,1,0,0,0.6016,0,126,126,4,1,moes,images/br_moes.png,images/cb_moes.png,0,,,,,,,,,,,,,,,,,,,,,,
,,,,,,00094,2023-10-31_17h05.51.011,vbt_B2_day2,2022.2.4,Win32,59.12262031,,,,,,,,,,,,,,,,,,,,,,,,,,,down,0,4.3751,,0.293518575,-0.087962977,1,0,0,0.4494,0,127,127,97,1,loyaal,images/br_loyaal.png,images/cb_loyaal.png,1,loyaal,,,,,,,,,,,,,,,,,,,,,
,,,,,,00094,2023-10-31_17h05.51.011,vbt_B2_day2,2022.2.4,Win32,59.12262031,,,,,,,,,,,,,,,,,,,,,,,,,,,down,0,35.777,,0.102777778,-0.028703732,1,0,0,7.4646,0,128,128,196,1,nakijken,images/br_nakijken.png,images/cb_nakijken.png,0,,,,,,,,,,,,,,,,,,,,,,
,,,,,,00094,2023-10-31_17h05.51.011,vbt_B2_day2,2022.2.4,Win32,59.12262031,,,,,,,,,,,,,,,,,,,,,,,,,,,down,0,4.8878,,0.150925954,-0.001851866,1,0,0,0.4323,0,129,129,89,1,slapen,images/br_slapen.png,images/cb_slapen.png,0,,,,,,,,,,,,,,,,,,,,,,
,,,,,,00094,2023-10-31_17h05.51.011,vbt_B2_day2,2022.2.4,Win32,59.12262031,,,,,,,,,,,,,,,,,,,,,,,,,,,down,0,4.5094,,0.283333333,-0.108333333,1,0,0,0.4665,0,130,130,15,1,soda,images/br_soda.png,images/cb_soda.png,0,,,,,,,,,,,,,,,,,,,,,,
,,,,,,00094,2023-10-31_17h05.51.011,vbt_B2_day2,2022.2.4,Win32,59.12262031,,,,,,,,,,,,,,,,,,,,,,,,,,,down,0,4.2787,,0.080555556,-0.013888889,1,0,0,0.5529,0,131,131,63,1,flirt,images/br_flirt.png,images/cb_flirt.png,0,,,,,,,,,,,,,,,,,,,,,,
,,,,,,00094,2023-10-31_17h05.51.011,vbt_B2_day2,2022.2.4,Win32,59.12262031,,,,,,,,,,,,,,,,,,,,,,,,,,,down,0,1.8467,,0.144444444,-0.025925954,1,0,0,0.5008,0,132,132,35,1,lust,images/br_lust.png,images/cb_lust.png,0,,,,,,,,,,,,,,,,,,,,,,
,,,,,,00094,2023-10-31_17h05.51.011,vbt_B2_day2,2022.2.4,Win32,59.12262031,,,,,,,,,,,,,,,,,,,,,,,,,,,down,0,4.672,,0.352777778,-0.066666667,1,0,0,0.5331,0,133,133,95,1,vreten,images/br_vreten.png,images/cb_vreten.png,0,,,,,,,,,,,,,,,,,,,,,,
,,,,,,00094,2023-10-31_17h05.51.011,vbt_B2_day2,2022.2.4,Win32,59.12262031,,,,,,,,,,,,,,,,,,,,,,,,,,,down,0,1.8291,,0.272222222,-0.161111111,1,0,0,1.7504,0,134,134,144,1,eetlust,images/br_eetlust.png,images/cb_eetlust.png,0,,,,,,,,,,,,,,,,,,,,,,
,,,,,,00094,2023-10-31_17h05.51.011,vbt_B2_day2,2022.2.4,Win32,59.12262031,,,,,,,,,,,,,,,,,,,,,,,,,,,down,0,9.5317,,0.338888889,-0.028703732,1,0,0,2.165,0,135,135,185,1,mijnheer,images/br_mijnheer.png,images/cb_mijnheer.png,0,,,,,,,,,,,,,,,,,,,,,,
,,,,,,00094,2023-10-31_17h05.51.011,vbt_B2_day2,2022.2.4,Win32,59.12262031,,,,,,,,,,,,,,,,,,,,,,,,,,,down,0,12.3035,,0.355555556,-0.087962977,1,0,0,1.2996,0,136,136,194,1,driemaal,images/br_driemaal.png,images/cb_driemaal.png,0,,,,,,,,,,,,,,,,,,,,,,
,,,,,,00094,2023-10-31_17h05.51.011,vbt_B2_day2,2022.2.4,Win32,59.12262031,,,,,,,,,,,,,,,,,,,,,,,,,,,down,0,7.0025,,0.232407464,-0.068518533,1,0,0,0.5166,0,137,137,162,1,uitdelen,images/br_uitdelen.png,images/cb_uitdelen.png,0,,,,,,,,,,,,,,,,,,,,,,
,,,,,,00094,2023-10-31_17h05.51.011,vbt_B2_day2,2022.2.4,Win32,59.12262031,,,,,,,,,,,,,,,,,,,,,,,,,,,down,0,3.8405,,0.232407464,-0.068518533,1,0,0,1.416,0,138,138,139,1,stiekem,images/br_stiekem.png,images/cb_stiekem.png,1,stiekem,,,,,,,,,,,,,,,,,,,,,
,,,,,,00094,2023-10-31_17h05.51.011,vbt_B2_day2,2022.2.4,Win32,59.12262031,,,,,,,,,,,,,,,,,,,,,,,,,,,down,0,5.6681,,0.221296353,-0.013888889,1,0,0,0.6158,0,139,139,151,1,aanzoek,images/br_aanzoek.png,images/cb_aanzoek.png,0,,,,,,,,,,,,,,,,,,,,,,
,,,,,,00094,2023-10-31_17h05.51.011,vbt_B2_day2,2022.2.4,Win32,59.12262031,,,,,,,,,,,,,,,,,,,,,,,,,,,down,0,3.2672,,0.221296353,-0.013888889,1,0,0,0.5963,0,140,140,19,1,geit,images/br_geit.png,images/cb_geit.png,1,geit,,,,,,,,,,,,,,,,,,,,,
,,,,,,00094,2023-10-31_17h05.51.011,vbt_B2_day2,2022.2.4,Win32,59.12262031,,,,,,,,,,,,,,,,,,,,,,,,,,,down,0,10.8362,,0.258333333,-0.049074088,1,0,0,0.4161,0,141,141,155,1,gerucht,images/br_gerucht.png,images/cb_gerucht.png,0,,,,,,,,,,,,,,,,,,,,,,
,,,,,,00094,2023-10-31_17h05.51.011,vbt_B2_day2,2022.2.4,Win32,59.12262031,,,,,,,,,,,,,,,,,,,,,,,,,,,down,0,2.3891,,0.155555556,-0.070370399,1,0,0,0.4999,0,142,142,68,1,schat,images/br_schat.png,images/cb_schat.png,0,,,,,,,,,,,,,,,,,,,,,,
,,,,,,00094,2023-10-31_17h05.51.011,vbt_B2_day2,2022.2.4,Win32,59.12262031,,,,,,,,,,,,,,,,,,,,,,,,,,,down,0,4.5819,,0.155555556,-0.070370399,1,0,0,0.466,0,143,143,138,1,akkoord,images/br_akkoord.png,images/cb_akkoord.png,1,akkoord,,,,,,,,,,,,,,,,,,,,,
,,,,,,00094,2023-10-31_17h05.51.011,vbt_B2_day2,2022.2.4,Win32,59.12262031,,,,,,,,,,,,,,,,,,,,,,,,,,,down,0,11.7203,,0.334259288,-0.028703732,1,0,0,0.3834,0,144,144,165,1,feestdag,images/br_feestdag.png,images/cb_feestdag.png,0,,,,,,,,,,,,,,,,,,,,,,
,,,,,,00094,2023-10-31_17h05.51.011,vbt_B2_day2,2022.2.4,Win32,59.12262031,,,,,,,,,,,,,,,,,,,,,,,,,,,down,0,1.2899,,0.135185242,-0.063888889,1,0,0,1.167,0,145,145,30,1,uien,images/br_uien.png,images/cb_uien.png,0,,,,,,,,,,,,,,,,,,,,,,
,,,,,,00094,2023-10-31_17h05.51.011,vbt_B2_day2,2022.2.4,Win32,59.12262031,,,,,,,,,,,,,,,,,,,,,,,,,,,down,0,3.7834,,0.227777778,-0.150925954,1,0,0,3.3324,0,146,146,106,1,zingen,images/br_zingen.png,images/cb_zingen.png,0,,,,,,,,,,,,,,,,,,,,,,
,,,,,,00094,2023-10-31_17h05.51.011,vbt_B2_day2,2022.2.4,Win32,59.12262031,,,,,,,,,,,,,,,,,,,,,,,,,,,down,0,18.4907,,0.511111111,-0.074074088,1,0,0,2.5494,0,147,147,161,1,attentie,images/br_attentie.png,images/cb_attentie.png,0,,,,,,,,,,,,,,,,,,,,,,
,,,,,,00094,2023-10-31_17h05.51.011,vbt_B2_day2,2022.2.4,Win32,59.12262031,,,,,,,,,,,,,,,,,,,,,,,,,,,down,0,8.7424,,0.294444444,-0.003703732,1,0,0,0.45,0,148,148,90,1,geluid,images/br_geluid.png,images/cb_geluid.png,0,,,,,,,,,,,,,,,,,,,,,,
,,,,,,00094,2023-10-31_17h05.51.011,vbt_B2_day2,2022.2.4,Win32,59.12262031,,,,,,,,,,,,,,,,,,,,,,,,,,,down,0,4.9264,,0.192592621,0.002777778,1,0,0,0.4162,0,149,149,82,1,muziek,images/br_muziek.png,images/cb_muziek.png,0,,,,,,,,,,,,,,,,,,,,,,
,,,,,,00094,2023-10-31_17h05.51.011,vbt_B2_day2,2022.2.4,Win32,59.12262031,,,,,,,,,,,,,,,,,,,,,,,,,,,down,0,5.3654,,0.15,-0.009259288,1,0,0,0.4639,0,150,150,69,1,waken,images/br_waken.png,images/cb_waken.png,0,,,,,,,,,,,,,,,,,,,,,,
,,,,,,00094,2023-10-31_17h05.51.011,vbt_B2_day2,2022.2.4,Win32,59.12262031,,,,,,,,,,,,,,,,,,,,,,,,,,,down,0,4.6609,,0.222222222,-0.019444444,1,0,0,0.436,0,151,151,98,1,kreeft,images/br_kreeft.png,images/cb_kreeft.png,1,kreeft,,,,,,,,,,,,,,,,,,,,,
,,,,,,00094,2023-10-31_17h05.51.011,vbt_B2_day2,2022.2.4,Win32,59.12262031,,,,,,,,,,,,,,,,,,,,,,,,,,,down,0,8.8932,,0.205555556,-0.034259288,1,0,0,0.5836,0,152,152,117,1,kennis,images/br_kennis.png,images/cb_kennis.png,0,,,,,,,,,,,,,,,,,,,,,,
,,,,,,00094,2023-10-31_17h05.51.011,vbt_B2_day2,2022.2.4,Win32,59.12262031,,,,,,,,,,,,,,,,,,,,,,,,,,,down,0,7.4503,,0.212963019,-0.012037065,1,0,0,0.4333,0,153,153,140,1,blijven,images/br_blijven.png,images/cb_blijven.png,0,,,,,,,,,,,,,,,,,,,,,,
,,,,,,00094,2023-10-31_17h05.51.011,vbt_B2_day2,2022.2.4,Win32,59.12262031,,,,,,,,,,,,,,,,,,,,,,,,,,,down,0,5.1325,,0.220370399,-0.041666667,1,0,0,0.5141,0,154,154,115,1,kleren,images/br_kleren.png,images/cb_kleren.png,0,,,,,,,,,,,,,,,,,,,,,,
,,,,,,00094,2023-10-31_17h05.51.011,vbt_B2_day2,2022.2.4,Win32,59.12262031,,,,,,,,,,,,,,,,,,,,,,,,,,,down,0,6.8976,,0.159259288,0.007407379,1,0,0,0.6968,0,155,155,164,1,anarchie,images/br_anarchie.png,images/cb_anarchie.png,0,,,,,,,,,,,,,,,,,,,,,,
,,,,,,00094,2023-10-31_17h05.51.011,vbt_B2_day2,2022.2.4,Win32,59.12262031,,,,,,,,,,,,,,,,,,,,,,,,,,,down,0,12.7138,,0.212963019,-0.120370399,1,0,0,0.8163,0,156,156,43,1,klauw,images/br_klauw.png,images/cb_klauw.png,0,,,,,,,,,,,,,,,,,,,,,,
,,,,,,00094,2023-10-31_17h05.51.011,vbt_B2_day2,2022.2.4,Win32,59.12262031,,,,,,,,,,,,,,,,,,,,,,,,,,,down,0,14.5558,,0.362963019,-0.125,1,0,0,5.6297,0,157,157,94,1,oceaan,images/br_oceaan.png,images/cb_oceaan.png,0,,,,,,,,,,,,,,,,,,,,,,
,,,,,,00094,2023-10-31_17h05.51.011,vbt_B2_day2,2022.2.4,Win32,59.12262031,,,,,,,,,,,,,,,,,,,,,,,,,,,down,0,1.7462,,0.392592621,-0.125,1,0,0,0.4356,0,158,158,21,1,mist,images/br_mist.png,images/cb_mist.png,0,,,,,,,,,,,,,,,,,,,,,,
,,,,,,00094,2023-10-31_17h05.51.011,vbt_B2_day2,2022.2.4,Win32,59.12262031,,,,,,,,,,,,,,,,,,,,,,,,,,,down,0,3.5914,,0.180555556,-0.017592621,1,0,0,0.4661,0,159,159,142,1,snuiven,images/br_snuiven.png,images/cb_snuiven.png,0,,,,,,,,,,,,,,,,,,,,,,
,,,,,,00094,2023-10-31_17h05.51.011,vbt_B2_day2,2022.2.4,Win32,59.12262031,,,,,,,,,,,,,,,,,,,,,,,,,,,down,0,7.2759,,0.213888889,-0.212963019,1,0,0,1.6494,0,160,160,134,1,geliefd,images/br_geliefd.png,images/cb_geliefd.png,0,,,,,,,,,,,,,,,,,,,,,,
,,,,,,00094,2023-10-31_17h05.51.011,vbt_B2_day2,2022.2.4,Win32,59.12262031,,,,,,,,,,,,,,,,,,,,,,,,,,,down,0,8.5137,,0.23148151,-0.130555556,1,0,0,0.9494,0,161,161,108,1,excuus,images/br_excuus.png,images/cb_excuus.png,0,,,,,,,,,,,,,,,,,,,,,,
,,,,,,00094,2023-10-31_17h05.51.011,vbt_B2_day2,2022.2.4,Win32,59.12262031,,,,,,,,,,,,,,,,,,,,,,,,,,,down,0,5.7488,,0.137963019,-0.009259288,1,0,0,0.5158,0,162,162,52,1,wagon,images/br_wagon.png,images/cb_wagon.png,0,,,,,,,,,,,,,,,,,,,,,,
,,,,,,00094,2023-10-31_17h05.51.011,vbt_B2_day2,2022.2.4,Win32,59.12262031,,,,,,,,,,,,,,,,,,,,,,,,,,,down,0,2.9065,,0.271296353,-0.194444444,1,0,0,0.7996,0,163,163,170,1,schatten,images/br_schatten.png,images/cb_schatten.png,0,,,,,,,,,,,,,,,,,,,,,,
,,,,,,00094,2023-10-31_17h05.51.011,vbt_B2_day2,2022.2.4,Win32,59.12262031,,,,,,,,,,,,,,,,,,,,,,,,,,,down,0,5.7712,,0.234259288,0.008333333,1,0,0,0.6329,0,164,164,107,1,maling,images/br_maling.png,images/cb_maling.png,0,,,,,,,,,,,,,,,,,,,,,,
,,,,,,00094,2023-10-31_17h05.51.011,vbt_B2_day2,2022.2.4,Win32,59.12262031,,,,,,,,,,,,,,,,,,,,,,,,,,,down,0,3.0651,,0.323148176,-0.074074088,1,0,0,0.3995,0,165,165,184,1,aandelen,images/br_aandelen.png,images/cb_aandelen.png,0,,,,,,,,,,,,,,,,,,,,,,
,,,,,,00094,2023-10-31_17h05.51.011,vbt_B2_day2,2022.2.4,Win32,59.12262031,,,,,,,,,,,,,,,,,,,,,,,,,,,down,0,4.7279,,0.323148176,-0.074074088,1,0,0,0.4363,0,166,166,58,1,tekst,images/br_tekst.png,images/cb_tekst.png,1,tekst,,,,,,,,,,,,,,,,,,,,,
,,,,,,00094,2023-10-31_17h05.51.011,vbt_B2_day2,2022.2.4,Win32,59.12262031,,,,,,,,,,,,,,,,,,,,,,,,,,,down,0,12.2526,,0.323148176,-0.074074088,1,0,0,1.6326,0,167,167,178,1,huisdier,images/br_huisdier.png,images/cb_huisdier.png,1,huisdier,,,,,,,,,,,,,,,,,,,,,
,,,,,,00094,2023-10-31_17h05.51.011,vbt_B2_day2,2022.2.4,Win32,59.12262031,,,,,,,,,,,,,,,,,,,,,,,,,,,down,0,14.1947,,0.323148176,-0.074074088,1,0,0,1.4981,0,168,168,111,1,ticket,images/br_ticket.png,images/cb_ticket.png,0,,,,,,,,,,,,,,,,,,,,,,
,,,,,,00094,2023-10-31_17h05.51.011,vbt_B2_day2,2022.2.4,Win32,59.12262031,,,,,,,,,,,,,,,,,,,,,,,,,,,down,0,10.9499,,0.257407464,-0.048148176,1,0,0,0.8831,0,169,169,150,1,gegeven,images/br_gegeven.png,images/cb_gegeven.png,0,,,,,,,,,,,,,,,,,,,,,,
,,,,,,00094,2023-10-31_17h05.51.011,vbt_B2_day2,2022.2.4,Win32,59.12262031,,,,,,,,,,,,,,,,,,,,,,,,,,,down,0,1.7615,,0.237037065,-0.043518533,1,0,0,0.5004,0,170,170,93,1,waarop,images/br_waarop.png,images/cb_waarop.png,0,,,,,,,,,,,,,,,,,,,,,,
,,,,,,00094,2023-10-31_17h05.51.011,vbt_B2_day2,2022.2.4,Win32,59.12262031,,,,,,,,,,,,,,,,,,,,,,,,,,,down,0,2.5415,,0.175925954,-0.094444444,1,0,0,0.5997,0,171,171,102,1,legaal,images/br_legaal.png,images/cb_legaal.png,0,,,,,,,,,,,,,,,,,,,,,,
,,,,,,00094,2023-10-31_17h05.51.011,vbt_B2_day2,2022.2.4,Win32,59.12262031,,,,,,,,,,,,,,,,,,,,,,,,,,,down,0,5.0367,,0.123148176,-0.042592621,1,0,0,0.4999,0,172,172,157,1,uitlaat,images/br_uitlaat.png,images/cb_uitlaat.png,0,,,,,,,,,,,,,,,,,,,,,,
,,,,,,00094,2023-10-31_17h05.51.011,vbt_B2_day2,2022.2.4,Win32,59.12262031,,,,,,,,,,,,,,,,,,,,,,,,,,,down,0,1.3567,,0.123148176,-0.042592621,1,0,0,1.2835,0,173,173,17,1,taal,images/br_taal.png,images/cb_taal.png,1,taal,,,,,,,,,,,,,,,,,,,,,
,,,,,,00094,2023-10-31_17h05.51.011,vbt_B2_day2,2022.2.4,Win32,59.12262031,,,,,,,,,,,,,,,,,,,,,,,,,,,down,0,11.5971,,0.144444444,-0.035185199,1,0,0,0.4665,0,174,174,126,1,kasteel,images/br_kasteel.png,images/cb_kasteel.png,0,,,,,,,,,,,,,,,,,,,,,,
,,,,,,00094,2023-10-31_17h05.51.011,vbt_B2_day2,2022.2.4,Win32,59.12262031,,,,,,,,,,,,,,,,,,,,,,,,,,,down,0,8.3645,,0.491666667,-0.15648151,1,0,0,0.4835,0,175,175,176,1,techniek,images/br_techniek.png,images/cb_techniek.png,1,techniek,,,,,,,,,,,,,,,,,,,,,
,,,,,,00094,2023-10-31_17h05.51.011,vbt_B2_day2,2022.2.4,Win32,59.12262031,,,,,,,,,,,,,,,,,,,,,,,,,,,down,0,28.9159,,0.199074131,-0.025925954,1,0,0,23.4291,0,176,176,91,1,gezond,images/br_gezond.png,images/cb_gezond.png,0,,,,,,,,,,,,,,,,,,,,,,
,,,,,,00094,2023-10-31_17h05.51.011,vbt_B2_day2,2022.2.4,Win32,59.12262031,,,,,,,,,,,,,,,,,,,,,,,,,,,down,0,7.5764,,0.201851908,-0.037037065,1,0,0,0.6165,0,177,177,0,1,slak,images/br_slak.png,images/cb_slak.png,0,,,,,,,,,,,,,,,,,,,,,,
,,,,,,00094,2023-10-31_17h05.51.011,vbt_B2_day2,2022.2.4,Win32,59.12262031,,,,,,,,,,,,,,,,,,,,,,,,,,,down,0,3.5778,,0.150925954,-0.136111111,1,0,0,2.3825,0,178,178,119,1,liefje,images/br_liefje.png,images/cb_liefje.png,0,,,,,,,,,,,,,,,,,,,,,,
,,,,,,00094,2023-10-31_17h05.51.011,vbt_B2_day2,2022.2.4,Win32,59.12262031,,,,,,,,,,,,,,,,,,,,,,,,,,,down,0,2.7337,,0.420370399,-0.162037065,1,0,0,0.5832,0,179,179,34,1,vorm,images/br_vorm.png,images/cb_vorm.png,0,,,,,,,,,,,,,,,,,,,,,,
,,,,,,00094,2023-10-31_17h05.51.011,vbt_B2_day2,2022.2.4,Win32,59.12262031,,,,,,,,,,,,,,,,,,,,,,,,,,,down,0,7.9153,,0.2,-0.041666667,1,0,0,0.5017,0,180,180,75,1,snoep,images/br_snoep.png,images/cb_snoep.png,0,,,,,,,,,,,,,,,,,,,,,,
,,,,,,00094,2023-10-31_17h05.51.011,vbt_B2_day2,2022.2.4,Win32,59.12262031,,,,,,,,,,,,,,,,,,,,,,,,,,,down,0,3.4781,,0.222222222,-0.023148176,1,0,0,0.4838,0,181,181,128,1,prikken,images/br_prikken.png,images/cb_prikken.png,0,,,,,,,,,,,,,,,,,,,,,,
,,,,,,00094,2023-10-31_17h05.51.011,vbt_B2_day2,2022.2.4,Win32,59.12262031,,,,,,,,,,,,,,,,,,,,,,,,,,,down,0,1.9393,,0.048148176,-0.023148176,1,0,0,0.3997,0,182,182,28,1,stal,images/br_stal.png,images/cb_stal.png,0,,,,,,,,,,,,,,,,,,,,,,
,,,,,,00094,2023-10-31_17h05.51.011,vbt_B2_day2,2022.2.4,Win32,59.12262031,,,,,,,,,,,,,,,,,,,,,,,,,,,down,0,2.0355,,0.126851908,-0.026851866,1,0,0,0.5331,0,183,183,20,1,site,images/br_site.png,images/cb_site.png,0,,,,,,,,,,,,,,,,,,,,,,
,,,,,,00094,2023-10-31_17h05.51.011,vbt_B2_day2,2022.2.4,Win32,59.12262031,,,,,,,,,,,,,,,,,,,,,,,,,,,down,0,2.8657,,0.143518575,-0.020370399,1,0,0,0.3998,0,184,184,112,1,lukken,images/br_lukken.png,images/cb_lukken.png,0,,,,,,,,,,,,,,,,,,,,,,
,,,,,,00094,2023-10-31_17h05.51.011,vbt_B2_day2,2022.2.4,Win32,59.12262031,,,,,,,,,,,,,,,,,,,,,,,,,,,down,0,8.0091,,0.236111111,-0.183333333,1,0,0,0.8682,0,185,185,96,1,slagen,images/br_slagen.png,images/cb_slagen.png,1,slagen,,,,,,,,,,,,,,,,,,,,,
,,,,,,00094,2023-10-31_17h05.51.011,vbt_B2_day2,2022.2.4,Win32,59.12262031,,,,,,,,,,,,,,,,,,,,,,,,,,,down,0,4.1482,,0.223148176,-0.085185199,1,0,0,0.4,0,186,186,33,1,vlek,images/br_vlek.png,images/cb_vlek.png,0,,,,,,,,,,,,,,,,,,,,,,
,,,,,,00094,2023-10-31_17h05.51.011,vbt_B2_day2,2022.2.4,Win32,59.12262031,,,,,,,,,,,,,,,,,,,,,,,,,,,down,0,2.4003,,0.167592621,-0.05,1,0,0,0.4328,0,187,187,5,1,blad,images/br_blad.png,images/cb_blad.png,0,,,,,,,,,,,,,,,,,,,,,,
,,,,,,00094,2023-10-31_17h05.51.011,vbt_B2_day2,2022.2.4,Win32,59.12262031,,,,,,,,,,,,,,,,,,,,,,,,,,,down,0,9.5474,,0.075,0.004629601,1,0,0,0.5312,0,188,188,121,1,twijfel,images/br_twijfel.png,images/cb_twijfel.png,0,,,,,,,,,,,,,,,,,,,,,,
,,,,,,00094,2023-10-31_17h05.51.011,vbt_B2_day2,2022.2.4,Win32,59.12262031,,,,,,,,,,,,,,,,,,,,,,,,,,,down,0,2.55,,0.162037065,-0.022222222,1,0,0,0.4816,0,189,189,27,1,dans,images/br_dans.png,images/cb_dans.png,0,,,,,,,,,,,,,,,,,,,,,,
,,,,,,00094,2023-10-31_17h05.51.011,vbt_B2_day2,2022.2.4,Win32,59.12262031,,,,,,,,,,,,,,,,,,,,,,,,,,,down,0,2.6157,,0.037963019,-0.041666667,1,0,0,0.4497,0,190,190,32,1,palm,images/br_palm.png,images/cb_palm.png,0,,,,,,,,,,,,,,,,,,,,,,
,,,,,,00094,2023-10-31_17h05.51.011,vbt_B2_day2,2022.2.4,Win32,59.12262031,,,,,,,,,,,,,,,,,,,,,,,,,,,down,0,1.4943,,0.054629686,-0.05,1,0,0,0.4,0,191,191,84,1,lokken,images/br_lokken.png,images/cb_lokken.png,0,,,,,,,,,,,,,,,,,,,,,,
,,,,,,00094,2023-10-31_17h05.51.011,vbt_B2_day2,2022.2.4,Win32,59.12262031,,,,,,,,,,,,,,,,,,,,,,,,,,,down,0,5.8983,,0.165740797,-0.08148151,1,0,0,0.417,0,192,192,72,1,strak,images/br_strak.png,images/cb_strak.png,0,,,,,,,,,,,,,,,,,,,,,,
,,,,,,00094,2023-10-31_17h05.51.011,vbt_B2_day2,2022.2.4,Win32,59.12262031,,,,,,,,,,,,,,,,,,,,,,,,,,,down,0,1.064,,0.187037065,-0.093518533,1,0,0,0.583,0,193,193,48,1,steel,images/br_steel.png,images/cb_steel.png,0,,,,,,,,,,,,,,,,,,,,,,
,,,,,,00094,2023-10-31_17h05.51.011,vbt_B2_day2,2022.2.4,Win32,59.12262031,,,,,,,,,,,,,,,,,,,,,,,,,,,down,0,6.806,,0.200925954,-0.087962977,1,0,0,4.1154,0,194,194,173,1,apparaat,images/br_apparaat.png,images/cb_apparaat.png,0,,,,,,,,,,,,,,,,,,,,,,
,,,,,,00094,2023-10-31_17h05.51.011,vbt_B2_day2,2022.2.4,Win32,59.12262031,,,,,,,,,,,,,,,,,,,,,,,,,,,down,0,15.4463,,0.409259288,-0.208333333,1,0,0,2.099,0,195,195,105,1,wijlen,images/br_wijlen.png,images/cb_wijlen.png,0,,,,,,,,,,,,,,,,,,,,,,
,,,,,,00094,2023-10-31_17h05.51.011,vbt_B2_day2,2022.2.4,Win32,59.12262031,,,,,,,,,,,,,,,,,,,,,,,,,,,down,0,2.6351,,0.166666667,-0.111111111,1,0,0,0.4991,0,196,196,11,1,mode,images/br_mode.png,images/cb_mode.png,0,,,,,,,,,,,,,,,,,,,,,,
,,,,,,00094,2023-10-31_17h05.51.011,vbt_B2_day2,2022.2.4,Win32,59.12262031,,,,,,,,,,,,,,,,,,,,,,,,,,,down,0,4.2533,,0.132407464,-0.083333333,1,0,0,0.9656,0,197,197,158,1,innemen,images/br_innemen.png,images/cb_innemen.png,0,,,,,,,,,,,,,,,,,,,,,,
,,,,,,00094,2023-10-31_17h05.51.011,vbt_B2_day2,2022.2.4,Win32,59.12262031,,,,,,,,,,,,,,,,,,,,,,,,,,,down,0,5.8596,,0.130555556,-0.039814843,1,0,0,0.3834,0,198,198,114,1,vullen,images/br_vullen.png,images/cb_vullen.png,0,,,,,,,,,,,,,,,,,,,,,,
,,,,,,00094,2023-10-31_17h05.51.011,vbt_B2_day2,2022.2.4,Win32,59.12262031,,,,,,,,,,,,,,,,,,,,,,,,,,,down,0,3.4892,,0.096296353,-0.027777778,1,0,0,0.4331,0,199,199,41,1,maken,images/br_maken.png,images/cb_maken.png,0,,,,,,,,,,,,,,,,,,,,,,
,,,,,,00094,2023-10-31_17h05.51.011,vbt_B2_day2,2022.2.4,Win32,59.12262031,,,,,,,,,,,,,,,,,,,,,,,,,,,,,,,,,,,,,,,,,,,,,,,0.321296353,-0.215740797,1,0,0,,,,,,,,,,,,,,,,
,,,,,,00094,2023-10-31_17h05.51.011,vbt_B2_day2,2022.2.4,Win32,59.12262031,,,,,,,,,,,,,,,,,,,,,,,,,,,,,,,,,,,,,,,,,,,,,,,,,,,,0.580555556,-0.188888889,1,0,0,,,,,,,,,,,
,,,,,,00094,2023-10-31_17h05.51.011,vbt_B2_day2,2022.2.4,Win32,59.12262031,,,,,,,,,,,,,,,,,,,,,,,,,,,,,,,,,,,,,,,,,,kasteel,images/br_kasteel.png,images/cb_kasteel.png,,kasteel,,,,,,,,,,,0.580555556,-0.188888889,1,0,0,kasteel,0,0,0,14,1
,,,,,,00094,2023-10-31_17h05.51.011,vbt_B2_day2,2022.2.4,Win32,59.12262031,,,,,,,,,,,,,,,,,,,,,,,,,,,,,,,,,,,,,,,,,,zegel,images/br_zegel.png,images/cb_zegel.png,,zegel,,,,,,,,,,,0.580555556,-0.188888889,1,0,0,zegel,0,1,1,46,1
,,,,,,00094,2023-10-31_17h05.51.011,vbt_B2_day2,2022.2.4,Win32,59.12262031,,,,,,,,,,,,,,,,,,,,,,,,,,,,,,,,,,,,,,,,,,negel,images/br_negel.png,images/cb_negel.png,,negel,,,,,,,,,,,0.580555556,-0.188888889,1,0,0,negel,0,2,2,24,1
,,,,,,00094,2023-10-31_17h05.51.011,vbt_B2_day2,2022.2.4,Win32,59.12262031,,,,,,,,,,,,,,,,,,,,,,,,,,,,,,,,,,,,,,,,,,heengeen,images/br_heengeen.png,images/cb_heengeen.png,,.eengeel.,,,,,,,,,,,0.580555556,-0.188888889,1,0,0,.eengeel.,0,3,3,38,1
,,,,,,00094,2023-10-31_17h05.51.011,vbt_B2_day2,2022.2.4,Win32,59.12262031,,,,,,,,,,,,,,,,,,,,,,,,,,,,,,,,,,,,,,,,,,lokken,images/br_lokken.png,images/cb_lokken.png,,lokken,,,,,,,,,,,0.580555556,-0.188888889,1,0,0,lokken,0,4,4,8,1
,,,,,,00094,2023-10-31_17h05.51.011,vbt_B2_day2,2022.2.4,Win32,59.12262031,,,,,,,,,,,,,,,,,,,,,,,,,,,,,,,,,,,,,,,,,,piste,images/br_piste.png,images/cb_piste.png,,piste,,,,,,,,,,,0.580555556,-0.188888889,1,0,0,piste,0,5,5,5,1
,,,,,,00094,2023-10-31_17h05.51.011,vbt_B2_day2,2022.2.4,Win32,59.12262031,,,,,,,,,,,,,,,,,,,,,,,,,,,,,,,,,,,,,,,,,,feestdag,images/br_feestdag.png,images/cb_feestdag.png,,feestzaal,,,,,,,,,,,0.580555556,-0.188888889,1,0,0,feestzaal,0,6,6,17,1
,,,,,,00094,2023-10-31_17h05.51.011,vbt_B2_day2,2022.2.4,Win32,59.12262031,,,,,,,,,,,,,,,,,,,,,,,,,,,,,,,,,,,,,,,,,,welzijn,images/br_welzijn.png,images/cb_welzijn.png,,welzijn,,,,,,,,,,,0.580555556,-0.188888889,1,0,0,welzijn,0,7,7,52,1
,,,,,,00094,2023-10-31_17h05.51.011,vbt_B2_day2,2022.2.4,Win32,59.12262031,,,,,,,,,,,,,,,,,,,,,,,,,,,,,,,,,,,,,,,,,,goon,images/br_goon.png,images/cb_goon.png,,goon,,,,,,,,,,,0.580555556,-0.188888889,1,0,0,goon,0,8,8,23,1
,,,,,,00094,2023-10-31_17h05.51.011,vbt_B2_day2,2022.2.4,Win32,59.12262031,,,,,,,,,,,,,,,,,,,,,,,,,,,,,,,,,,,,,,,,,,toeval,images/br_toeval.png,images/cb_toeval.png,,toeval,,,,,,,,,,,0.580555556,-0.188888889,1,0,0,toeval,0,9,9,11,1
,,,,,,00094,2023-10-31_17h05.51.011,vbt_B2_day2,2022.2.4,Win32,59.12262031,,,,,,,,,,,,,,,,,,,,,,,,,,,,,,,,,,,,,,,,,,manieren,images/br_manieren.png,images/cb_manieren.png,,manieren,,,,,,,,,,,0.580555556,-0.188888889,1,0,0,manieren,0,10,10,56,1
,,,,,,00094,2023-10-31_17h05.51.011,vbt_B2_day2,2022.2.4,Win32,59.12262031,,,,,,,,,,,,,,,,,,,,,,,,,,,,,,,,,,,,,,,,,,bloeien,images/br_bloeien.png,images/cb_bloeien.png,,bloeien,,,,,,,,,,,0.580555556,-0.188888889,1,0,0,bloeien,0,11,11,12,1
,,,,,,00094,2023-10-31_17h05.51.011,vbt_B2_day2,2022.2.4,Win32,59.12262031,,,,,,,,,,,,,,,,,,,,,,,,,,,,,,,,,,,,,,,,,,doodmoe,images/br_doodmoe.png,images/cb_doodmoe.png,,doodmoe,,,,,,,,,,,0.580555556,-0.188888889,1,0,0,doodmoe,0,12,12,15,1
,,,,,,00094,2023-10-31_17h05.51.011,vbt_B2_day2,2022.2.4,Win32,59.12262031,,,,,,,,,,,,,,,,,,,,,,,,,,,,,,,,,,,,,,,,,,thema,images/br_thema.png,images/cb_thema.png,,thema,,,,,,,,,,,0.580555556,-0.188888889,1,0,0,thema,0,13,13,47,1
,,,,,,00094,2023-10-31_17h05.51.011,vbt_B2_day2,2022.2.4,Win32,59.12262031,,,,,,,,,,,,,,,,,,,,,,,,,,,,,,,,,,,,,,,,,,agressie,images/br_agressie.png,images/cb_agressie.png,,agressie,,,,,,,,,,,0.580555556,-0.188888889,1,0,0,agressie,0,14,14,59,1
,,,,,,00094,2023-10-31_17h05.51.011,vbt_B2_day2,2022.2.4,Win32,59.12262031,,,,,,,,,,,,,,,,,,,,,,,,,,,,,,,,,,,,,,,,,,clan,images/br_clan.png,images/cb_clan.png,,clan,,,,,,,,,,,0.580555556,-0.188888889,1,0,0,clan,0,15,15,40,1
,,,,,,00094,2023-10-31_17h05.51.011,vbt_B2_day2,2022.2.4,Win32,59.12262031,,,,,,,,,,,,,,,,,,,,,,,,,,,,,,,,,,,,,,,,,,sjijfel,images/br_sjijfel.png,images/cb_sjijfel.png,,sjejf..,,,,,,,,,,,0.580555556,-0.188888889,1,0,0,sjejf..,0,16,16,33,1
,,,,,,00094,2023-10-31_17h05.51.011,vbt_B2_day2,2022.2.4,Win32,59.12262031,,,,,,,,,,,,,,,,,,,,,,,,,,,,,,,,,,,,,,,,,,diep,images/br_diep.png,images/cb_diep.png,,diep,,,,,,,,,,,0.580555556,-0.188888889,1,0,0,diep,0,17,17,2,1
,,,,,,00094,2023-10-31_17h05.51.011,vbt_B2_day2,2022.2.4,Win32,59.12262031,,,,,,,,,,,,,,,,,,,,,,,,,,,,,,,,,,,,,,,,,,jong,images/br_jong.png,images/cb_jong.png,,jong,,,,,,,,,,,0.580555556,-0.188888889,1,0,0,jong,0,18,18,43,1
,,,,,,00094,2023-10-31_17h05.51.011,vbt_B2_day2,2022.2.4,Win32,59.12262031,,,,,,,,,,,,,,,,,,,,,,,,,,,,,,,,,,,,,,,,,,tweeling,images/br_tweeling.png,images/cb_tweeling.png,,tweeling,,,,,,,,,,,0.580555556,-0.188888889,1,0,0,tweeling,0,19,19,58,1
,,,,,,00094,2023-10-31_17h05.51.011,vbt_B2_day2,2022.2.4,Win32,59.12262031,,,,,,,,,,,,,,,,,,,,,,,,,,,,,,,,,,,,,,,,,,zomers,images/br_zomers.png,images/cb_zomers.png,,zomers,,,,,,,,,,,0.580555556,-0.188888889,1,0,0,zomers,0,20,20,48,1
,,,,,,00094,2023-10-31_17h05.51.011,vbt_B2_day2,2022.2.4,Win32,59.12262031,,,,,,,,,,,,,,,,,,,,,,,,,,,,,,,,,,,,,,,,,,breuk,images/br_breuk.png,images/cb_breuk.png,,breuk,,,,,,,,,,,0.580555556,-0.188888889,1,0,0,breuk,0,21,21,45,1
,,,,,,00094,2023-10-31_17h05.51.011,vbt_B2_day2,2022.2.4,Win32,59.12262031,,,,,,,,,,,,,,,,,,,,,,,,,,,,,,,,,,,,,,,,,,strikken,images/br_strikken.png,images/cb_strikken.png,,strikken,,,,,,,,,,,0.580555556,-0.188888889,1,0,0,strikken,0,22,22,18,1
,,,,,,00094,2023-10-31_17h05.51.011,vbt_B2_day2,2022.2.4,Win32,59.12262031,,,,,,,,,,,,,,,,,,,,,,,,,,,,,,,,,,,,,,,,,,anarchie,images/br_anarchie.png,images/cb_anarchie.png,,anarchie,,,,,,,,,,,0.580555556,-0.188888889,1,0,0,anarchie,0,23,23,16,1
,,,,,,00094,2023-10-31_17h05.51.011,vbt_B2_day2,2022.2.4,Win32,59.12262031,,,,,,,,,,,,,,,,,,,,,,,,,,,,,,,,,,,,,,,,,,sora,images/br_sora.png,images/cb_sora.png,,sora,,,,,,,,,,,0.580555556,-0.188888889,1,0,0,sora,0,24,24,22,1
,,,,,,00094,2023-10-31_17h05.51.011,vbt_B2_day2,2022.2.4,Win32,59.12262031,,,,,,,,,,,,,,,,,,,,,,,,,,,,,,,,,,,,,,,,,,stes,images/br_stes.png,images/cb_stes.png,,stes,,,,,,,,,,,0.580555556,-0.188888889,1,0,0,stes,0,25,25,21,1
,,,,,,00094,2023-10-31_17h05.51.011,vbt_B2_day2,2022.2.4,Win32,59.12262031,,,,,,,,,,,,,,,,,,,,,,,,,,,,,,,,,,,,,,,,,,prekken,images/br_prekken.png,images/cb_prekken.png,,prekken,,,,,,,,,,,0.580555556,-0.188888889,1,0,0,prekken,0,26,26,34,1
,,,,,,00094,2023-10-31_17h05.51.011,vbt_B2_day2,2022.2.4,Win32,59.12262031,,,,,,,,,,,,,,,,,,,,,,,,,,,,,,,,,,,,,,,,,,remel,images/br_remel.png,images/cb_remel.png,,remel,,,,,,,,,,,0.580555556,-0.188888889,1,0,0,remel,0,27,27,25,1
,,,,,,00094,2023-10-31_17h05.51.011,vbt_B2_day2,2022.2.4,Win32,59.12262031,,,,,,,,,,,,,,,,,,,,,,,,,,,,,,,,,,,,,,,,,,joes,images/br_joes.png,images/cb_joes.png,,joes,,,,,,,,,,,0.580555556,-0.188888889,1,0,0,joes,0,28,28,20,1
,,,,,,00094,2023-10-31_17h05.51.011,vbt_B2_day2,2022.2.4,Win32,59.12262031,,,,,,,,,,,,,,,,,,,,,,,,,,,,,,,,,,,,,,,,,,flits,images/br_flits.png,images/cb_flits.png,,flits,,,,,,,,,,,0.580555556,-0.188888889,1,0,0,flits,0,29,29,4,1
,,,,,,00094,2023-10-31_17h05.51.011,vbt_B2_day2,2022.2.4,Win32,59.12262031,,,,,,,,,,,,,,,,,,,,,,,,,,,,,,,,,,,,,,,,,,sifferd,images/br_sifferd.png,images/cb_sifferd.png,,sifferend,,,,,,,,,,,0.580555556,-0.188888889,1,0,0,sifferend,0,30,30,32,1
,,,,,,00094,2023-10-31_17h05.51.011,vbt_B2_day2,2022.2.4,Win32,59.12262031,,,,,,,,,,,,,,,,,,,,,,,,,,,,,,,,,,,,,,,,,,geld,images/br_geld.png,images/cb_geld.png,,geld,,,,,,,,,,,0.580555556,-0.188888889,1,0,0,geld,0,31,31,3,1
,,,,,,00094,2023-10-31_17h05.51.011,vbt_B2_day2,2022.2.4,Win32,59.12262031,,,,,,,,,,,,,,,,,,,,,,,,,,,,,,,,,,,,,,,,,,inzicht,images/br_inzicht.png,images/cb_inzicht.png,,inzicht,,,,,,,,,,,0.580555556,-0.188888889,1,0,0,inzicht,0,32,32,53,1
,,,,,,00094,2023-10-31_17h05.51.011,vbt_B2_day2,2022.2.4,Win32,59.12262031,,,,,,,,,,,,,,,,,,,,,,,,,,,,,,,,,,,,,,,,,,ophuimen,images/br_ophuimen.png,images/cb_ophuimen.png,,ophu,,,,,,,,,,,0.105555556,-0.208333333,1,0,0,ophu,0,33,33,36,1
,,,,,,00094,2023-10-31_17h05.51.011,vbt_B2_day2,2022.2.4,Win32,59.12262031,,,,,,,,,,,,,,,,,,,,,,,,,,,,,,,,,,,,,,,,,,koorts,images/br_koorts.png,images/cb_koorts.png,,koorts,,,,,,,,,,,0.362963019,-0.120370399,1,0,0,koorts,0,34,34,50,1
,,,,,,00094,2023-10-31_17h05.51.011,vbt_B2_day2,2022.2.4,Win32,59.12262031,,,,,,,,,,,,,,,,,,,,,,,,,,,,,,,,,,,,,,,,,,heilig,images/br_heilig.png,images/cb_heilig.png,,heilig,,,,,,,,,,,0.362963019,-0.120370399,1,0,0,heilig,0,35,35,9,1
,,,,,,00094,2023-10-31_17h05.51.011,vbt_B2_day2,2022.2.4,Win32,59.12262031,,,,,,,,,,,,,,,,,,,,,,,,,,,,,,,,,,,,,,,,,,woning,images/br_woning.png,images/cb_woning.png,,woning,,,,,,,,,,,0.362963019,-0.120370399,1,0,0,woning,0,36,36,10,1
,,,,,,00094,2023-10-31_17h05.51.011,vbt_B2_day2,2022.2.4,Win32,59.12262031,,,,,,,,,,,,,,,,,,,,,,,,,,,,,,,,,,,,,,,,,,wijve,images/br_wijve.png,images/cb_wijve.png,,wijve,,,,,,,,,,,0.362963019,-0.120370399,1,0,0,wijve,0,37,37,27,1
,,,,,,00094,2023-10-31_17h05.51.011,vbt_B2_day2,2022.2.4,Win32,59.12262031,,,,,,,,,,,,,,,,,,,,,,,,,,,,,,,,,,,,,,,,,,opdatten,images/br_opdatten.png,images/cb_opdatten.png,,opdatt..,,,,,,,,,,,0.362963019,-0.120370399,1,0,0,opdatt..,0,38,38,37,1
,,,,,,00094,2023-10-31_17h05.51.011,vbt_B2_day2,2022.2.4,Win32,59.12262031,,,,,,,,,,,,,,,,,,,,,,,,,,,,,,,,,,,,,,,,,,kenzis,images/br_kenzis.png,images/cb_kenzis.png,,kenzis,,,,,,,,,,,0.362963019,-0.120370399,1,0,0,kenzis,0,39,39,30,1
,,,,,,00094,2023-10-31_17h05.51.011,vbt_B2_day2,2022.2.4,Win32,59.12262031,,,,,,,,,,,,,,,,,,,,,,,,,,,,,,,,,,,,,,,,,,kijlen,images/br_kijlen.png,images/cb_kijlen.png,,kijlen,,,,,,,,,,,0.362963019,-0.120370399,1,0,0,kijlen,0,40,40,31,1
,,,,,,00094,2023-10-31_17h05.51.011,vbt_B2_day2,2022.2.4,Win32,59.12262031,,,,,,,,,,,,,,,,,,,,,,,,,,,,,,,,,,,,,,,,,,blad,images/br_blad.png,images/cb_blad.png,,blad,,,,,,,,,,,0.362963019,-0.120370399,1,0,0,blad,0,41,41,1,1
,,,,,,00094,2023-10-31_17h05.51.011,vbt_B2_day2,2022.2.4,Win32,59.12262031,,,,,,,,,,,,,,,,,,,,,,,,,,,,,,,,,,,,,,,,,,aanvraag,images/br_aanvraag.png,images/cb_aanvraag.png,,aanvraag,,,,,,,,,,,0.362963019,-0.120370399,1,0,0,aanvraag,0,42,42,57,1
,,,,,,00094,2023-10-31_17h05.51.011,vbt_B2_day2,2022.2.4,Win32,59.12262031,,,,,,,,,,,,,,,,,,,,,,,,,,,,,,,,,,,,,,,,,,lurgen,images/br_lurgen.png,images/cb_lurgen.png,,eurg..,,,,,,,,,,,0.362963019,-0.120370399,1,0,0,eurg..,0,43,43,29,1
,,,,,,00094,2023-10-31_17h05.51.011,vbt_B2_day2,2022.2.4,Win32,59.12262031,,,,,,,,,,,,,,,,,,,,,,,,,,,,,,,,,,,,,,,,,,krimmen,images/br_krimmen.png,images/cb_krimmen.png,,kremm..,,,,,,,,,,,0.362963019,-0.120370399,1,0,0,kremm..,0,44,44,35,1
,,,,,,00094,2023-10-31_17h05.51.011,vbt_B2_day2,2022.2.4,Win32,59.12262031,,,,,,,,,,,,,,,,,,,,,,,,,,,,,,,,,,,,,,,,,,zwager,images/br_zwager.png,images/cb_zwager.png,,zwanger,,,,,,,,,,,0.362963019,-0.120370399,1,0,0,zwanger,0,45,45,49,1
,,,,,,00094,2023-10-31_17h05.51.011,vbt_B2_day2,2022.2.4,Win32,59.12262031,,,,,,,,,,,,,,,,,,,,,,,,,,,,,,,,,,,,,,,,,,bereuwen,images/br_bereuwen.png,images/cb_bereuwen.png,,bereuwig,,,,,,,,,,,0.405555556,0.013888889,1,0,0,bereuwig,0,46,46,39,1
,,,,,,00094,2023-10-31_17h05.51.011,vbt_B2_day2,2022.2.4,Win32,59.12262031,,,,,,,,,,,,,,,,,,,,,,,,,,,,,,,,,,,,,,,,,,systeem,images/br_systeem.png,images/cb_systeem.png,,systeem,,,,,,,,,,,0.405555556,0.013888889,1,0,0,systeem,0,47,47,54,1
,,,,,,00094,2023-10-31_17h05.51.011,vbt_B2_day2,2022.2.4,Win32,59.12262031,,,,,,,,,,,,,,,,,,,,,,,,,,,,,,,,,,,,,,,,,,ningen,images/br_ningen.png,images/cb_ningen.png,,ningen,,,,,,,,,,,0.366666667,-0.05648151,1,0,0,ningen,0,48,48,28,1
,,,,,,00094,2023-10-31_17h05.51.011,vbt_B2_day2,2022.2.4,Win32,59.12262031,,,,,,,,,,,,,,,,,,,,,,,,,,,,,,,,,,,,,,,,,,moes,images/br_moes.png,images/cb_moes.png,,moes,,,,,,,,,,,0.366666667,-0.05648151,1,0,0,moes,0,49,49,0,1
,,,,,,00094,2023-10-31_17h05.51.011,vbt_B2_day2,2022.2.4,Win32,59.12262031,,,,,,,,,,,,,,,,,,,,,,,,,,,,,,,,,,,,,,,,,,eenhoorn,images/br_eenhoorn.png,images/cb_eenhoorn.png,,eenhoorn,,,,,,,,,,,0.366666667,-0.05648151,1,0,0,eenhoorn,0,50,50,19,1
,,,,,,00094,2023-10-31_17h05.51.011,vbt_B2_day2,2022.2.4,Win32,59.12262031,,,,,,,,,,,,,,,,,,,,,,,,,,,,,,,,,,,,,,,,,,dode,images/br_dode.png,images/cb_dode.png,,dode,,,,,,,,,,,0.366666667,-0.05648151,1,0,0,dode,0,51,51,41,1
,,,,,,00094,2023-10-31_17h05.51.011,vbt_B2_day2,2022.2.4,Win32,59.12262031,,,,,,,,,,,,,,,,,,,,,,,,,,,,,,,,,,,,,,,,,,lijnen,images/br_lijnen.png,images/cb_lijnen.png,,lijnen,,,,,,,,,,,0.366666667,-0.05648151,1,0,0,lijnen,0,52,52,51,1
,,,,,,00094,2023-10-31_17h05.51.011,vbt_B2_day2,2022.2.4,Win32,59.12262031,,,,,,,,,,,,,,,,,,,,,,,,,,,,,,,,,,,,,,,,,,tand,images/br_tand.png,images/cb_tand.png,,tand,,,,,,,,,,,0.366666667,-0.05648151,1,0,0,tand,0,53,53,42,1
,,,,,,00094,2023-10-31_17h05.51.011,vbt_B2_day2,2022.2.4,Win32,59.12262031,,,,,,,,,,,,,,,,,,,,,,,,,,,,,,,,,,,,,,,,,,jagen,images/br_jagen.png,images/cb_jagen.png,,jagen,,,,,,,,,,,0.366666667,-0.05648151,1,0,0,jagen,0,54,54,6,1
,,,,,,00094,2023-10-31_17h05.51.011,vbt_B2_day2,2022.2.4,Win32,59.12262031,,,,,,,,,,,,,,,,,,,,,,,,,,,,,,,,,,,,,,,,,,aanzien,images/br_aanzien.png,images/cb_aanzien.png,,aanzien,,,,,,,,,,,0.366666667,-0.05648151,1,0,0,aanzien,0,55,55,13,1
,,,,,,00094,2023-10-31_17h05.51.011,vbt_B2_day2,2022.2.4,Win32,59.12262031,,,,,,,,,,,,,,,,,,,,,,,,,,,,,,,,,,,,,,,,,,trots,images/br_trots.png,images/cb_trots.png,,trots,,,,,,,,,,,0.366666667,-0.05648151,1,0,0,trots,0,56,56,44,1
,,,,,,00094,2023-10-31_17h05.51.011,vbt_B2_day2,2022.2.4,Win32,59.12262031,,,,,,,,,,,,,,,,,,,,,,,,,,,,,,,,,,,,,,,,,,kabel,images/br_kabel.png,images/cb_kabel.png,,kabel,,,,,,,,,,,0.366666667,-0.05648151,1,0,0,kabel,0,57,57,7,1
,,,,,,00094,2023-10-31_17h05.51.011,vbt_B2_day2,2022.2.4,Win32,59.12262031,,,,,,,,,,,,,,,,,,,,,,,,,,,,,,,,,,,,,,,,,,badon,images/br_badon.png,images/cb_badon.png,,badon,,,,,,,,,,,0.252777778,-0.037962977,1,0,0,badon,0,58,58,26,1
,,,,,,00094,2023-10-31_17h05.51.011,vbt_B2_day2,2022.2.4,Win32,59.12262031,,,,,,,,,,,,,,,,,,,,,,,,,,,,,,,,,,,,,,,,,,plannen,images/br_plannen.png,images/cb_plannen.png,,plannen,,,,,,,,,,,0.252777778,-0.037962977,1,0,0,plannen,0,59,59,55,1
,,,,,,00094,2023-10-31_17h05.51.011,vbt_B2_day2,2022.2.4,Win32,59.12262031,,,,,,,,,,,,,,,,,,,,,,,,,,,,,,,,,,,,,,,,,,,,,,,,,,,,,,,,,,,,,,,,,,,
