welcome_mouse.x,welcome_mouse.y,welcome_mouse.leftButton,welcome_mouse.midButton,welcome_mouse.rightButton,welcome_mouse.time,"ID",date,expName,psychopyVersion,OS,frameRate,mouse_2.x,mouse_2.y,mouse_2.leftButton,mouse_2.midButton,mouse_2.rightButton,mouse_2.time,mouse_3.x,mouse_3.y,mouse_3.leftButton,mouse_3.midButton,mouse_3.rightButton,mouse_3.time,train_mouse.x,train_mouse.y,train_mouse.leftButton,train_mouse.midButton,train_mouse.rightButton,train_mouse.time,braille_mouse.x,braille_mouse.y,braille_mouse.leftButton,braille_mouse.midButton,braille_mouse.rightButton,braille_mouse.time,trials.thisRepN,trials.thisTrialN,trials.thisN,trials.thisIndex,trials.ran,nlLet,brLet,cbLet,mouse.x,mouse.y,mouse.leftButton,mouse.midButton,mouse.rightButton,testInstr_mouse.x,testInstr_mouse.y,testInstr_mouse.leftButton,testInstr_mouse.midButton,testInstr_mouse.rightButton,test_mouse.x,test_mouse.y,test_mouse.leftButton,test_mouse.midButton,test_mouse.rightButton,test_response.text,testResp,test_loop.thisRepN,test_loop.thisTrialN,test_loop.thisN,test_loop.thisIndex,test_loop.ran,nlWrd,brWrd,cbWrd
-0.040740712,-0.271296353,1,0,0,12.5936,00018,2023-08-11_13h04.32.177,vbt_B2_day1,2022.2.4,Win32,60.10699044,,,,,,,,,,,,,,,,,,,,,,,,,,,,,,,,,,,,,,,,,,,,,,,,,,,,,,,,,
,,,,,,00018,2023-08-11_13h04.32.177,vbt_B2_day1,2022.2.4,Win32,60.10699044,-0.040740712,-0.271296353,1,0,0,6.8565,,,,,,,,,,,,,,,,,,,,,,,,,,,,,,,,,,,,,,,,,,,,,,,,,,,
,,,,,,00018,2023-08-11_13h04.32.177,vbt_B2_day1,2022.2.4,Win32,60.10699044,,,,,,,-0.040740712,-0.271296353,1,0,0,21.7355,,,,,,,,,,,,,,,,,,,,,,,,,,,,,,,,,,,,,,,,,,,,,
,,,,,,00018,2023-08-11_13h04.32.177,vbt_B2_day1,2022.2.4,Win32,60.10699044,,,,,,,,,,,,,-0.040740712,-0.271296353,1,0,0,13.5229,,,,,,,,,,,,,,,,,,,,,,,,,,,,,,,,,,,,,,,
,,,,,,00018,2023-08-11_13h04.32.177,vbt_B2_day1,2022.2.4,Win32,60.10699044,,,,,,,,,,,,,,,,,,,-0.040740712,-0.271296353,1,0,0,6.6462,0,0,0,10,1,k,images/br_k.png,images/cb_k.png,,,,,,,,,,,,,,,,,,,,,,,,,
,,,,,,00018,2023-08-11_13h04.32.177,vbt_B2_day1,2022.2.4,Win32,60.10699044,,,,,,,,,,,,,,,,,,,-0.040740712,-0.271296353,1,0,0,5.6173,0,1,1,16,1,q,images/br_q.png,images/cb_q.png,,,,,,,,,,,,,,,,,,,,,,,,,
,,,,,,00018,2023-08-11_13h04.32.177,vbt_B2_day1,2022.2.4,Win32,60.10699044,,,,,,,,,,,,,,,,,,,-0.040740712,-0.271296353,1,0,0,2.7652,0,2,2,18,1,s,images/br_s.png,images/cb_s.png,,,,,,,,,,,,,,,,,,,,,,,,,
,,,,,,00018,2023-08-11_13h04.32.177,vbt_B2_day1,2022.2.4,Win32,60.10699044,,,,,,,,,,,,,,,,,,,-0.040740712,-0.271296353,1,0,0,4.6973,0,3,3,24,1,y,images/br_y.png,images/cb_y.png,,,,,,,,,,,,,,,,,,,,,,,,,
,,,,,,00018,2023-08-11_13h04.32.177,vbt_B2_day1,2022.2.4,Win32,60.10699044,,,,,,,,,,,,,,,,,,,-0.040740712,-0.271296353,1,0,0,3.9309,0,4,4,23,1,x,images/br_x.png,images/cb_x.png,,,,,,,,,,,,,,,,,,,,,,,,,
,,,,,,00018,2023-08-11_13h04.32.177,vbt_B2_day1,2022.2.4,Win32,60.10699044,,,,,,,,,,,,,,,,,,,-0.040740712,-0.271296353,1,0,0,3.4153,0,5,5,1,1,b,images/br_b.png,images/cb_b.png,,,,,,,,,,,,,,,,,,,,,,,,,
,,,,,,00018,2023-08-11_13h04.32.177,vbt_B2_day1,2022.2.4,Win32,60.10699044,,,,,,,,,,,,,,,,,,,-0.040740712,-0.271296353,1,0,0,4.3695,0,6,6,21,1,v,images/br_v.png,images/cb_v.png,,,,,,,,,,,,,,,,,,,,,,,,,
,,,,,,00018,2023-08-11_13h04.32.177,vbt_B2_day1,2022.2.4,Win32,60.10699044,,,,,,,,,,,,,,,,,,,-0.040740712,-0.271296353,1,0,0,3.265,0,7,7,12,1,m,images/br_m.png,images/cb_m.png,,,,,,,,,,,,,,,,,,,,,,,,,
,,,,,,00018,2023-08-11_13h04.32.177,vbt_B2_day1,2022.2.4,Win32,60.10699044,,,,,,,,,,,,,,,,,,,-0.040740712,-0.271296353,1,0,0,5.4799,0,8,8,3,1,d,images/br_d.png,images/cb_d.png,,,,,,,,,,,,,,,,,,,,,,,,,
,,,,,,00018,2023-08-11_13h04.32.177,vbt_B2_day1,2022.2.4,Win32,60.10699044,,,,,,,,,,,,,,,,,,,-0.040740712,-0.271296353,1,0,0,2.7032,0,9,9,13,1,n,images/br_n.png,images/cb_n.png,,,,,,,,,,,,,,,,,,,,,,,,,
,,,,,,00018,2023-08-11_13h04.32.177,vbt_B2_day1,2022.2.4,Win32,60.10699044,,,,,,,,,,,,,,,,,,,-0.040740712,-0.271296353,1,0,0,1.666,0,10,10,17,1,r,images/br_r.png,images/cb_r.png,,,,,,,,,,,,,,,,,,,,,,,,,
,,,,,,00018,2023-08-11_13h04.32.177,vbt_B2_day1,2022.2.4,Win32,60.10699044,,,,,,,,,,,,,,,,,,,-0.040740712,-0.271296353,1,0,0,2.831,0,11,11,2,1,c,images/br_c.png,images/cb_c.png,,,,,,,,,,,,,,,,,,,,,,,,,
,,,,,,00018,2023-08-11_13h04.32.177,vbt_B2_day1,2022.2.4,Win32,60.10699044,,,,,,,,,,,,,,,,,,,-0.040740712,-0.271296353,1,0,0,1.4153,0,12,12,4,1,e,images/br_e.png,images/cb_e.png,,,,,,,,,,,,,,,,,,,,,,,,,
,,,,,,00018,2023-08-11_13h04.32.177,vbt_B2_day1,2022.2.4,Win32,60.10699044,,,,,,,,,,,,,,,,,,,-0.040740712,-0.271296353,1,0,0,1.1955,0,13,13,8,1,i,images/br_i.png,images/cb_i.png,,,,,,,,,,,,,,,,,,,,,,,,,
,,,,,,00018,2023-08-11_13h04.32.177,vbt_B2_day1,2022.2.4,Win32,60.10699044,,,,,,,,,,,,,,,,,,,-0.040740712,-0.271296353,1,0,0,3.2137,0,14,14,0,1,a,images/br_a.png,images/cb_a.png,,,,,,,,,,,,,,,,,,,,,,,,,
,,,,,,00018,2023-08-11_13h04.32.177,vbt_B2_day1,2022.2.4,Win32,60.10699044,,,,,,,,,,,,,,,,,,,-0.040740712,-0.271296353,1,0,0,1.682,0,15,15,20,1,u,images/br_u.png,images/cb_u.png,,,,,,,,,,,,,,,,,,,,,,,,,
,,,,,,00018,2023-08-11_13h04.32.177,vbt_B2_day1,2022.2.4,Win32,60.10699044,,,,,,,,,,,,,,,,,,,-0.040740712,-0.271296353,1,0,0,1.1159,0,16,16,7,1,h,images/br_h.png,images/cb_h.png,,,,,,,,,,,,,,,,,,,,,,,,,
,,,,,,00018,2023-08-11_13h04.32.177,vbt_B2_day1,2022.2.4,Win32,60.10699044,,,,,,,,,,,,,,,,,,,-0.040740712,-0.271296353,1,0,0,1.4155,0,17,17,6,1,g,images/br_g.png,images/cb_g.png,,,,,,,,,,,,,,,,,,,,,,,,,
,,,,,,00018,2023-08-11_13h04.32.177,vbt_B2_day1,2022.2.4,Win32,60.10699044,,,,,,,,,,,,,,,,,,,-0.040740712,-0.271296353,1,0,0,1.3039,0,18,18,9,1,j,images/br_j.png,images/cb_j.png,,,,,,,,,,,,,,,,,,,,,,,,,
,,,,,,00018,2023-08-11_13h04.32.177,vbt_B2_day1,2022.2.4,Win32,60.10699044,,,,,,,,,,,,,,,,,,,-0.040740712,-0.271296353,1,0,0,2.7814,0,19,19,25,1,z,images/br_z.png,images/cb_z.png,,,,,,,,,,,,,,,,,,,,,,,,,
,,,,,,00018,2023-08-11_13h04.32.177,vbt_B2_day1,2022.2.4,Win32,60.10699044,,,,,,,,,,,,,,,,,,,-0.040740712,-0.271296353,1,0,0,2.1652,0,20,20,19,1,t,images/br_t.png,images/cb_t.png,,,,,,,,,,,,,,,,,,,,,,,,,
,,,,,,00018,2023-08-11_13h04.32.177,vbt_B2_day1,2022.2.4,Win32,60.10699044,,,,,,,,,,,,,,,,,,,-0.040740712,-0.271296353,1,0,0,1.8199,0,21,21,11,1,l,images/br_l.png,images/cb_l.png,,,,,,,,,,,,,,,,,,,,,,,,,
,,,,,,00018,2023-08-11_13h04.32.177,vbt_B2_day1,2022.2.4,Win32,60.10699044,,,,,,,,,,,,,,,,,,,-0.040740712,-0.271296353,1,0,0,11.1811,0,22,22,15,1,p,images/br_p.png,images/cb_p.png,,,,,,,,,,,,,,,,,,,,,,,,,
,,,,,,00018,2023-08-11_13h04.32.177,vbt_B2_day1,2022.2.4,Win32,60.10699044,,,,,,,,,,,,,,,,,,,-0.040740712,-0.271296353,1,0,0,5.8677,0,23,23,22,1,w,images/br_w.png,images/cb_w.png,,,,,,,,,,,,,,,,,,,,,,,,,
,,,,,,00018,2023-08-11_13h04.32.177,vbt_B2_day1,2022.2.4,Win32,60.10699044,,,,,,,,,,,,,,,,,,,-0.040740712,-0.271296353,1,0,0,6.1006,0,24,24,5,1,f,images/br_f.png,images/cb_f.png,,,,,,,,,,,,,,,,,,,,,,,,,
,,,,,,00018,2023-08-11_13h04.32.177,vbt_B2_day1,2022.2.4,Win32,60.10699044,,,,,,,,,,,,,,,,,,,-0.040740712,-0.271296353,1,0,0,3.3311,0,25,25,14,1,o,images/br_o.png,images/cb_o.png,,,,,,,,,,,,,,,,,,,,,,,,,
,,,,,,00018,2023-08-11_13h04.32.177,vbt_B2_day1,2022.2.4,Win32,60.10699044,,,,,,,,,,,,,,,,,,,-0.040740712,-0.271296353,1,0,0,27.0828,1,0,26,4,1,e,images/br_e.png,images/cb_e.png,,,,,,,,,,,,,,,,,,,,,,,,,
,,,,,,00018,2023-08-11_13h04.32.177,vbt_B2_day1,2022.2.4,Win32,60.10699044,,,,,,,,,,,,,,,,,,,-0.040740712,-0.271296353,1,0,0,5.1634,1,1,27,5,1,f,images/br_f.png,images/cb_f.png,,,,,,,,,,,,,,,,,,,,,,,,,
,,,,,,00018,2023-08-11_13h04.32.177,vbt_B2_day1,2022.2.4,Win32,60.10699044,,,,,,,,,,,,,,,,,,,-0.040740712,-0.271296353,1,0,0,28.1828,1,2,28,20,1,u,images/br_u.png,images/cb_u.png,,,,,,,,,,,,,,,,,,,,,,,,,
,,,,,,00018,2023-08-11_13h04.32.177,vbt_B2_day1,2022.2.4,Win32,60.10699044,,,,,,,,,,,,,,,,,,,-0.040740712,-0.271296353,1,0,0,1.9445,1,3,29,11,1,l,images/br_l.png,images/cb_l.png,,,,,,,,,,,,,,,,,,,,,,,,,
,,,,,,00018,2023-08-11_13h04.32.177,vbt_B2_day1,2022.2.4,Win32,60.10699044,,,,,,,,,,,,,,,,,,,-0.040740712,-0.271296353,1,0,0,40.8407,1,4,30,25,1,z,images/br_z.png,images/cb_z.png,,,,,,,,,,,,,,,,,,,,,,,,,
,,,,,,00018,2023-08-11_13h04.32.177,vbt_B2_day1,2022.2.4,Win32,60.10699044,,,,,,,,,,,,,,,,,,,-0.040740712,-0.271296353,1,0,0,6.9338,1,5,31,16,1,q,images/br_q.png,images/cb_q.png,,,,,,,,,,,,,,,,,,,,,,,,,
,,,,,,00018,2023-08-11_13h04.32.177,vbt_B2_day1,2022.2.4,Win32,60.10699044,,,,,,,,,,,,,,,,,,,-0.040740712,-0.271296353,1,0,0,0.7377,1,6,32,2,1,c,images/br_c.png,images/cb_c.png,,,,,,,,,,,,,,,,,,,,,,,,,
,,,,,,00018,2023-08-11_13h04.32.177,vbt_B2_day1,2022.2.4,Win32,60.10699044,,,,,,,,,,,,,,,,,,,-0.040740712,-0.271296353,1,0,0,7.7118,1,7,33,19,1,t,images/br_t.png,images/cb_t.png,,,,,,,,,,,,,,,,,,,,,,,,,
,,,,,,00018,2023-08-11_13h04.32.177,vbt_B2_day1,2022.2.4,Win32,60.10699044,,,,,,,,,,,,,,,,,,,-0.040740712,-0.271296353,1,0,0,3.8804,1,8,34,3,1,d,images/br_d.png,images/cb_d.png,,,,,,,,,,,,,,,,,,,,,,,,,
,,,,,,00018,2023-08-11_13h04.32.177,vbt_B2_day1,2022.2.4,Win32,60.10699044,,,,,,,,,,,,,,,,,,,-0.040740712,-0.271296353,1,0,0,3.5686,1,9,35,12,1,m,images/br_m.png,images/cb_m.png,,,,,,,,,,,,,,,,,,,,,,,,,
,,,,,,00018,2023-08-11_13h04.32.177,vbt_B2_day1,2022.2.4,Win32,60.10699044,,,,,,,,,,,,,,,,,,,-0.040740712,-0.271296353,1,0,0,4.852,1,10,36,21,1,v,images/br_v.png,images/cb_v.png,,,,,,,,,,,,,,,,,,,,,,,,,
,,,,,,00018,2023-08-11_13h04.32.177,vbt_B2_day1,2022.2.4,Win32,60.10699044,,,,,,,,,,,,,,,,,,,-0.040740712,-0.271296353,1,0,0,22.6196,1,11,37,17,1,r,images/br_r.png,images/cb_r.png,,,,,,,,,,,,,,,,,,,,,,,,,
,,,,,,00018,2023-08-11_13h04.32.177,vbt_B2_day1,2022.2.4,Win32,60.10699044,,,,,,,,,,,,,,,,,,,-0.040740712,-0.271296353,1,0,0,4.3306,1,12,38,6,1,g,images/br_g.png,images/cb_g.png,,,,,,,,,,,,,,,,,,,,,,,,,
,,,,,,00018,2023-08-11_13h04.32.177,vbt_B2_day1,2022.2.4,Win32,60.10699044,,,,,,,,,,,,,,,,,,,-0.040740712,-0.271296353,1,0,0,0.8328,1,13,39,8,1,i,images/br_i.png,images/cb_i.png,,,,,,,,,,,,,,,,,,,,,,,,,
,,,,,,00018,2023-08-11_13h04.32.177,vbt_B2_day1,2022.2.4,Win32,60.10699044,,,,,,,,,,,,,,,,,,,-0.040740712,-0.271296353,1,0,0,7.5285,1,14,40,15,1,p,images/br_p.png,images/cb_p.png,,,,,,,,,,,,,,,,,,,,,,,,,
,,,,,,00018,2023-08-11_13h04.32.177,vbt_B2_day1,2022.2.4,Win32,60.10699044,,,,,,,,,,,,,,,,,,,-0.040740712,-0.271296353,1,0,0,0.7489,1,15,41,18,1,s,images/br_s.png,images/cb_s.png,,,,,,,,,,,,,,,,,,,,,,,,,
,,,,,,00018,2023-08-11_13h04.32.177,vbt_B2_day1,2022.2.4,Win32,60.10699044,,,,,,,,,,,,,,,,,,,-0.040740712,-0.271296353,1,0,0,5.0599,1,16,42,22,1,w,images/br_w.png,images/cb_w.png,,,,,,,,,,,,,,,,,,,,,,,,,
,,,,,,00018,2023-08-11_13h04.32.177,vbt_B2_day1,2022.2.4,Win32,60.10699044,,,,,,,,,,,,,,,,,,,-0.040740712,-0.271296353,1,0,0,11.6091,1,17,43,24,1,y,images/br_y.png,images/cb_y.png,,,,,,,,,,,,,,,,,,,,,,,,,
,,,,,,00018,2023-08-11_13h04.32.177,vbt_B2_day1,2022.2.4,Win32,60.10699044,,,,,,,,,,,,,,,,,,,-0.040740712,-0.271296353,1,0,0,6.6452,1,18,44,1,1,b,images/br_b.png,images/cb_b.png,,,,,,,,,,,,,,,,,,,,,,,,,
,,,,,,00018,2023-08-11_13h04.32.177,vbt_B2_day1,2022.2.4,Win32,60.10699044,,,,,,,,,,,,,,,,,,,-0.040740712,-0.271296353,1,0,0,0.4326,1,19,45,14,1,o,images/br_o.png,images/cb_o.png,,,,,,,,,,,,,,,,,,,,,,,,,
,,,,,,00018,2023-08-11_13h04.32.177,vbt_B2_day1,2022.2.4,Win32,60.10699044,,,,,,,,,,,,,,,,,,,-0.040740712,-0.271296353,1,0,0,4.443,1,20,46,9,1,j,images/br_j.png,images/cb_j.png,,,,,,,,,,,,,,,,,,,,,,,,,
,,,,,,00018,2023-08-11_13h04.32.177,vbt_B2_day1,2022.2.4,Win32,60.10699044,,,,,,,,,,,,,,,,,,,-0.040740712,-0.271296353,1,0,0,0.5376,1,21,47,10,1,k,images/br_k.png,images/cb_k.png,,,,,,,,,,,,,,,,,,,,,,,,,
,,,,,,00018,2023-08-11_13h04.32.177,vbt_B2_day1,2022.2.4,Win32,60.10699044,,,,,,,,,,,,,,,,,,,-0.040740712,-0.271296353,1,0,0,84.4645,1,22,48,13,1,n,images/br_n.png,images/cb_n.png,,,,,,,,,,,,,,,,,,,,,,,,,
,,,,,,00018,2023-08-11_13h04.32.177,vbt_B2_day1,2022.2.4,Win32,60.10699044,,,,,,,,,,,,,,,,,,,-0.040740712,-0.271296353,1,0,0,6.3628,1,23,49,23,1,x,images/br_x.png,images/cb_x.png,,,,,,,,,,,,,,,,,,,,,,,,,
,,,,,,00018,2023-08-11_13h04.32.177,vbt_B2_day1,2022.2.4,Win32,60.10699044,,,,,,,,,,,,,,,,,,,-0.040740712,-0.271296353,1,0,0,63.1943,1,24,50,0,1,a,images/br_a.png,images/cb_a.png,,,,,,,,,,,,,,,,,,,,,,,,,
,,,,,,00018,2023-08-11_13h04.32.177,vbt_B2_day1,2022.2.4,Win32,60.10699044,,,,,,,,,,,,,,,,,,,-0.040740712,-0.271296353,1,0,0,29.8824,1,25,51,7,1,h,images/br_h.png,images/cb_h.png,,,,,,,,,,,,,,,,,,,,,,,,,
,,,,,,00018,2023-08-11_13h04.32.177,vbt_B2_day1,2022.2.4,Win32,60.10699044,,,,,,,,,,,,,,,,,,,-0.040740712,-0.271296353,1,0,0,0.9322,2,0,52,16,1,q,images/br_q.png,images/cb_q.png,,,,,,,,,,,,,,,,,,,,,,,,,
,,,,,,00018,2023-08-11_13h04.32.177,vbt_B2_day1,2022.2.4,Win32,60.10699044,,,,,,,,,,,,,,,,,,,-0.040740712,-0.271296353,1,0,0,1.1328,2,1,53,9,1,j,images/br_j.png,images/cb_j.png,,,,,,,,,,,,,,,,,,,,,,,,,
,,,,,,00018,2023-08-11_13h04.32.177,vbt_B2_day1,2022.2.4,Win32,60.10699044,,,,,,,,,,,,,,,,,,,-0.040740712,-0.271296353,1,0,0,0.2711,2,2,54,6,1,g,images/br_g.png,images/cb_g.png,,,,,,,,,,,,,,,,,,,,,,,,,
,,,,,,00018,2023-08-11_13h04.32.177,vbt_B2_day1,2022.2.4,Win32,60.10699044,,,,,,,,,,,,,,,,,,,-0.040740712,-0.271296353,1,0,0,6.8978,2,3,55,20,1,u,images/br_u.png,images/cb_u.png,,,,,,,,,,,,,,,,,,,,,,,,,
,,,,,,00018,2023-08-11_13h04.32.177,vbt_B2_day1,2022.2.4,Win32,60.10699044,,,,,,,,,,,,,,,,,,,-0.05,-0.229629686,1,0,0,5.3469,2,4,56,25,1,z,images/br_z.png,images/cb_z.png,,,,,,,,,,,,,,,,,,,,,,,,,
,,,,,,00018,2023-08-11_13h04.32.177,vbt_B2_day1,2022.2.4,Win32,60.10699044,,,,,,,,,,,,,,,,,,,-0.05,-0.229629686,1,0,0,2.0657,2,5,57,3,1,d,images/br_d.png,images/cb_d.png,,,,,,,,,,,,,,,,,,,,,,,,,
,,,,,,00018,2023-08-11_13h04.32.177,vbt_B2_day1,2022.2.4,Win32,60.10699044,,,,,,,,,,,,,,,,,,,-0.05,-0.229629686,1,0,0,37.7608,2,6,58,18,1,s,images/br_s.png,images/cb_s.png,,,,,,,,,,,,,,,,,,,,,,,,,
,,,,,,00018,2023-08-11_13h04.32.177,vbt_B2_day1,2022.2.4,Win32,60.10699044,,,,,,,,,,,,,,,,,,,-0.05,-0.229629686,1,0,0,32.3129,2,7,59,13,1,n,images/br_n.png,images/cb_n.png,,,,,,,,,,,,,,,,,,,,,,,,,
,,,,,,00018,2023-08-11_13h04.32.177,vbt_B2_day1,2022.2.4,Win32,60.10699044,,,,,,,,,,,,,,,,,,,-0.05,-0.229629686,1,0,0,32.3306,2,8,60,12,1,m,images/br_m.png,images/cb_m.png,,,,,,,,,,,,,,,,,,,,,,,,,
,,,,,,00018,2023-08-11_13h04.32.177,vbt_B2_day1,2022.2.4,Win32,60.10699044,,,,,,,,,,,,,,,,,,,-0.05,-0.229629686,1,0,0,0.0639,2,9,61,19,1,t,images/br_t.png,images/cb_t.png,,,,,,,,,,,,,,,,,,,,,,,,,
,,,,,,00018,2023-08-11_13h04.32.177,vbt_B2_day1,2022.2.4,Win32,60.10699044,,,,,,,,,,,,,,,,,,,-0.05,-0.229629686,1,0,0,0.3833,2,10,62,4,1,e,images/br_e.png,images/cb_e.png,,,,,,,,,,,,,,,,,,,,,,,,,
,,,,,,00018,2023-08-11_13h04.32.177,vbt_B2_day1,2022.2.4,Win32,60.10699044,,,,,,,,,,,,,,,,,,,-0.05,-0.229629686,1,0,0,1.8981,2,11,63,21,1,v,images/br_v.png,images/cb_v.png,,,,,,,,,,,,,,,,,,,,,,,,,
,,,,,,00018,2023-08-11_13h04.32.177,vbt_B2_day1,2022.2.4,Win32,60.10699044,,,,,,,,,,,,,,,,,,,-0.05,-0.229629686,1,0,0,5.4304,2,12,64,0,1,a,images/br_a.png,images/cb_a.png,,,,,,,,,,,,,,,,,,,,,,,,,
,,,,,,00018,2023-08-11_13h04.32.177,vbt_B2_day1,2022.2.4,Win32,60.10699044,,,,,,,,,,,,,,,,,,,-0.05,-0.229629686,1,0,0,3.9096,2,13,65,1,1,b,images/br_b.png,images/cb_b.png,,,,,,,,,,,,,,,,,,,,,,,,,
,,,,,,00018,2023-08-11_13h04.32.177,vbt_B2_day1,2022.2.4,Win32,60.10699044,,,,,,,,,,,,,,,,,,,-0.05,-0.229629686,1,0,0,5.5588,2,14,66,10,1,k,images/br_k.png,images/cb_k.png,,,,,,,,,,,,,,,,,,,,,,,,,
,,,,,,00018,2023-08-11_13h04.32.177,vbt_B2_day1,2022.2.4,Win32,60.10699044,,,,,,,,,,,,,,,,,,,-0.05,-0.229629686,1,0,0,14.7241,2,15,67,8,1,i,images/br_i.png,images/cb_i.png,,,,,,,,,,,,,,,,,,,,,,,,,
,,,,,,00018,2023-08-11_13h04.32.177,vbt_B2_day1,2022.2.4,Win32,60.10699044,,,,,,,,,,,,,,,,,,,-0.05,-0.229629686,1,0,0,0.2711,2,16,68,2,1,c,images/br_c.png,images/cb_c.png,,,,,,,,,,,,,,,,,,,,,,,,,
,,,,,,00018,2023-08-11_13h04.32.177,vbt_B2_day1,2022.2.4,Win32,60.10699044,,,,,,,,,,,,,,,,,,,-0.05,-0.229629686,1,0,0,9.2776,2,17,69,7,1,h,images/br_h.png,images/cb_h.png,,,,,,,,,,,,,,,,,,,,,,,,,
,,,,,,00018,2023-08-11_13h04.32.177,vbt_B2_day1,2022.2.4,Win32,60.10699044,,,,,,,,,,,,,,,,,,,-0.05,-0.229629686,1,0,0,2.6941,2,18,70,14,1,o,images/br_o.png,images/cb_o.png,,,,,,,,,,,,,,,,,,,,,,,,,
,,,,,,00018,2023-08-11_13h04.32.177,vbt_B2_day1,2022.2.4,Win32,60.10699044,,,,,,,,,,,,,,,,,,,-0.05,-0.229629686,1,0,0,1.8157,2,19,71,5,1,f,images/br_f.png,images/cb_f.png,,,,,,,,,,,,,,,,,,,,,,,,,
,,,,,,00018,2023-08-11_13h04.32.177,vbt_B2_day1,2022.2.4,Win32,60.10699044,,,,,,,,,,,,,,,,,,,-0.05,-0.229629686,1,0,0,2.3989,2,20,72,22,1,w,images/br_w.png,images/cb_w.png,,,,,,,,,,,,,,,,,,,,,,,,,
,,,,,,00018,2023-08-11_13h04.32.177,vbt_B2_day1,2022.2.4,Win32,60.10699044,,,,,,,,,,,,,,,,,,,-0.05,-0.229629686,1,0,0,2.898,2,21,73,15,1,p,images/br_p.png,images/cb_p.png,,,,,,,,,,,,,,,,,,,,,,,,,
,,,,,,00018,2023-08-11_13h04.32.177,vbt_B2_day1,2022.2.4,Win32,60.10699044,,,,,,,,,,,,,,,,,,,-0.05,-0.229629686,1,0,0,0.251,2,22,74,17,1,r,images/br_r.png,images/cb_r.png,,,,,,,,,,,,,,,,,,,,,,,,,
,,,,,,00018,2023-08-11_13h04.32.177,vbt_B2_day1,2022.2.4,Win32,60.10699044,,,,,,,,,,,,,,,,,,,-0.05,-0.229629686,1,0,0,2.1819,2,23,75,11,1,l,images/br_l.png,images/cb_l.png,,,,,,,,,,,,,,,,,,,,,,,,,
,,,,,,00018,2023-08-11_13h04.32.177,vbt_B2_day1,2022.2.4,Win32,60.10699044,,,,,,,,,,,,,,,,,,,-0.05,-0.229629686,1,0,0,1.2822,2,24,76,23,1,x,images/br_x.png,images/cb_x.png,,,,,,,,,,,,,,,,,,,,,,,,,
,,,,,,00018,2023-08-11_13h04.32.177,vbt_B2_day1,2022.2.4,Win32,60.10699044,,,,,,,,,,,,,,,,,,,-0.05,-0.229629686,1,0,0,15.4905,2,25,77,24,1,y,images/br_y.png,images/cb_y.png,,,,,,,,,,,,,,,,,,,,,,,,,
,,,,,,00018,2023-08-11_13h04.32.177,vbt_B2_day1,2022.2.4,Win32,60.10699044,,,,,,,,,,,,,,,,,,,-0.05,-0.229629686,1,0,0,14.0581,3,0,78,3,1,d,images/br_d.png,images/cb_d.png,,,,,,,,,,,,,,,,,,,,,,,,,
,,,,,,00018,2023-08-11_13h04.32.177,vbt_B2_day1,2022.2.4,Win32,60.10699044,,,,,,,,,,,,,,,,,,,-0.05,-0.229629686,1,0,0,0.0334,3,1,79,4,1,e,images/br_e.png,images/cb_e.png,,,,,,,,,,,,,,,,,,,,,,,,,
,,,,,,00018,2023-08-11_13h04.32.177,vbt_B2_day1,2022.2.4,Win32,60.10699044,,,,,,,,,,,,,,,,,,,-0.05,-0.229629686,1,0,0,0.3165,3,2,80,14,1,o,images/br_o.png,images/cb_o.png,,,,,,,,,,,,,,,,,,,,,,,,,
,,,,,,00018,2023-08-11_13h04.32.177,vbt_B2_day1,2022.2.4,Win32,60.10699044,,,,,,,,,,,,,,,,,,,-0.05,-0.229629686,1,0,0,0.05,3,3,81,21,1,v,images/br_v.png,images/cb_v.png,,,,,,,,,,,,,,,,,,,,,,,,,
,,,,,,00018,2023-08-11_13h04.32.177,vbt_B2_day1,2022.2.4,Win32,60.10699044,,,,,,,,,,,,,,,,,,,-0.05,-0.229629686,1,0,0,1.0495,3,4,82,11,1,l,images/br_l.png,images/cb_l.png,,,,,,,,,,,,,,,,,,,,,,,,,
,,,,,,00018,2023-08-11_13h04.32.177,vbt_B2_day1,2022.2.4,Win32,60.10699044,,,,,,,,,,,,,,,,,,,-0.05,-0.229629686,1,0,0,1.284,3,5,83,1,1,b,images/br_b.png,images/cb_b.png,,,,,,,,,,,,,,,,,,,,,,,,,
,,,,,,00018,2023-08-11_13h04.32.177,vbt_B2_day1,2022.2.4,Win32,60.10699044,,,,,,,,,,,,,,,,,,,-0.05,-0.229629686,1,0,0,0.2457,3,6,84,24,1,y,images/br_y.png,images/cb_y.png,,,,,,,,,,,,,,,,,,,,,,,,,
,,,,,,00018,2023-08-11_13h04.32.177,vbt_B2_day1,2022.2.4,Win32,60.10699044,,,,,,,,,,,,,,,,,,,-0.05,-0.229629686,1,0,0,0.8325,3,7,85,2,1,c,images/br_c.png,images/cb_c.png,,,,,,,,,,,,,,,,,,,,,,,,,
,,,,,,00018,2023-08-11_13h04.32.177,vbt_B2_day1,2022.2.4,Win32,60.10699044,,,,,,,,,,,,,,,,,,,-0.05,-0.229629686,1,0,0,1.6171,3,8,86,16,1,q,images/br_q.png,images/cb_q.png,,,,,,,,,,,,,,,,,,,,,,,,,
,,,,,,00018,2023-08-11_13h04.32.177,vbt_B2_day1,2022.2.4,Win32,60.10699044,,,,,,,,,,,,,,,,,,,-0.05,-0.229629686,1,0,0,11.3766,3,9,87,20,1,u,images/br_u.png,images/cb_u.png,,,,,,,,,,,,,,,,,,,,,,,,,
,,,,,,00018,2023-08-11_13h04.32.177,vbt_B2_day1,2022.2.4,Win32,60.10699044,,,,,,,,,,,,,,,,,,,-0.05,-0.229629686,1,0,0,0.7495,3,10,88,17,1,r,images/br_r.png,images/cb_r.png,,,,,,,,,,,,,,,,,,,,,,,,,
,,,,,,00018,2023-08-11_13h04.32.177,vbt_B2_day1,2022.2.4,Win32,60.10699044,,,,,,,,,,,,,,,,,,,-0.05,-0.229629686,1,0,0,15.6241,3,11,89,25,1,z,images/br_z.png,images/cb_z.png,,,,,,,,,,,,,,,,,,,,,,,,,
,,,,,,00018,2023-08-11_13h04.32.177,vbt_B2_day1,2022.2.4,Win32,60.10699044,,,,,,,,,,,,,,,,,,,-0.05,-0.229629686,1,0,0,0.9716,3,12,90,15,1,p,images/br_p.png,images/cb_p.png,,,,,,,,,,,,,,,,,,,,,,,,,
,,,,,,00018,2023-08-11_13h04.32.177,vbt_B2_day1,2022.2.4,Win32,60.10699044,,,,,,,,,,,,,,,,,,,-0.05,-0.229629686,1,0,0,5.1516,3,13,91,7,1,h,images/br_h.png,images/cb_h.png,,,,,,,,,,,,,,,,,,,,,,,,,
,,,,,,00018,2023-08-11_13h04.32.177,vbt_B2_day1,2022.2.4,Win32,60.10699044,,,,,,,,,,,,,,,,,,,-0.05,-0.229629686,1,0,0,1.0163,3,14,92,12,1,m,images/br_m.png,images/cb_m.png,,,,,,,,,,,,,,,,,,,,,,,,,
,,,,,,00018,2023-08-11_13h04.32.177,vbt_B2_day1,2022.2.4,Win32,60.10699044,,,,,,,,,,,,,,,,,,,-0.05,-0.229629686,1,0,0,0.8373,3,15,93,23,1,x,images/br_x.png,images/cb_x.png,,,,,,,,,,,,,,,,,,,,,,,,,
,,,,,,00018,2023-08-11_13h04.32.177,vbt_B2_day1,2022.2.4,Win32,60.10699044,,,,,,,,,,,,,,,,,,,0.690740797,-0.366666667,1,0,0,1.7989,3,16,94,13,1,n,images/br_n.png,images/cb_n.png,,,,,,,,,,,,,,,,,,,,,,,,,
,,,,,,00018,2023-08-11_13h04.32.177,vbt_B2_day1,2022.2.4,Win32,60.10699044,,,,,,,,,,,,,,,,,,,0.690740797,-0.366666667,1,0,0,4.6593,3,17,95,22,1,w,images/br_w.png,images/cb_w.png,,,,,,,,,,,,,,,,,,,,,,,,,
,,,,,,00018,2023-08-11_13h04.32.177,vbt_B2_day1,2022.2.4,Win32,60.10699044,,,,,,,,,,,,,,,,,,,0.690740797,-0.366666667,1,0,0,4.5299,3,18,96,0,1,a,images/br_a.png,images/cb_a.png,,,,,,,,,,,,,,,,,,,,,,,,,
,,,,,,00018,2023-08-11_13h04.32.177,vbt_B2_day1,2022.2.4,Win32,60.10699044,,,,,,,,,,,,,,,,,,,0.690740797,-0.366666667,1,0,0,21.1201,3,19,97,9,1,j,images/br_j.png,images/cb_j.png,,,,,,,,,,,,,,,,,,,,,,,,,
,,,,,,00018,2023-08-11_13h04.32.177,vbt_B2_day1,2022.2.4,Win32,60.10699044,,,,,,,,,,,,,,,,,,,0.690740797,-0.366666667,1,0,0,0.167,3,20,98,8,1,i,images/br_i.png,images/cb_i.png,,,,,,,,,,,,,,,,,,,,,,,,,
,,,,,,00018,2023-08-11_13h04.32.177,vbt_B2_day1,2022.2.4,Win32,60.10699044,,,,,,,,,,,,,,,,,,,0.690740797,-0.366666667,1,0,0,2.1819,3,21,99,10,1,k,images/br_k.png,images/cb_k.png,,,,,,,,,,,,,,,,,,,,,,,,,
,,,,,,00018,2023-08-11_13h04.32.177,vbt_B2_day1,2022.2.4,Win32,60.10699044,,,,,,,,,,,,,,,,,,,0.690740797,-0.366666667,1,0,0,0.5498,3,22,100,6,1,g,images/br_g.png,images/cb_g.png,,,,,,,,,,,,,,,,,,,,,,,,,
,,,,,,00018,2023-08-11_13h04.32.177,vbt_B2_day1,2022.2.4,Win32,60.10699044,,,,,,,,,,,,,,,,,,,0.583333333,-0.205555556,1,0,0,1.1324,3,23,101,19,1,t,images/br_t.png,images/cb_t.png,,,,,,,,,,,,,,,,,,,,,,,,,
,,,,,,00018,2023-08-11_13h04.32.177,vbt_B2_day1,2022.2.4,Win32,60.10699044,,,,,,,,,,,,,,,,,,,0.583333333,-0.205555556,1,0,0,1.3322,3,24,102,18,1,s,images/br_s.png,images/cb_s.png,,,,,,,,,,,,,,,,,,,,,,,,,
,,,,,,00018,2023-08-11_13h04.32.177,vbt_B2_day1,2022.2.4,Win32,60.10699044,,,,,,,,,,,,,,,,,,,0.583333333,-0.205555556,1,0,0,3.4647,3,25,103,5,1,f,images/br_f.png,images/cb_f.png,,,,,,,,,,,,,,,,,,,,,,,,,
,,,,,,00018,2023-08-11_13h04.32.177,vbt_B2_day1,2022.2.4,Win32,60.10699044,,,,,,,,,,,,,,,,,,,0.583333333,-0.205555556,1,0,0,2.1491,4,0,104,14,1,o,images/br_o.png,images/cb_o.png,,,,,,,,,,,,,,,,,,,,,,,,,
,,,,,,00018,2023-08-11_13h04.32.177,vbt_B2_day1,2022.2.4,Win32,60.10699044,,,,,,,,,,,,,,,,,,,0.583333333,-0.205555556,1,0,0,7.6452,4,1,105,25,1,z,images/br_z.png,images/cb_z.png,,,,,,,,,,,,,,,,,,,,,,,,,
,,,,,,00018,2023-08-11_13h04.32.177,vbt_B2_day1,2022.2.4,Win32,60.10699044,,,,,,,,,,,,,,,,,,,0.583333333,-0.205555556,1,0,0,3.1152,4,2,106,11,1,l,images/br_l.png,images/cb_l.png,,,,,,,,,,,,,,,,,,,,,,,,,
,,,,,,00018,2023-08-11_13h04.32.177,vbt_B2_day1,2022.2.4,Win32,60.10699044,,,,,,,,,,,,,,,,,,,0.583333333,-0.205555556,1,0,0,0.5707,4,3,107,6,1,g,images/br_g.png,images/cb_g.png,,,,,,,,,,,,,,,,,,,,,,,,,
,,,,,,00018,2023-08-11_13h04.32.177,vbt_B2_day1,2022.2.4,Win32,60.10699044,,,,,,,,,,,,,,,,,,,0.583333333,-0.205555556,1,0,0,2.4824,4,4,108,23,1,x,images/br_x.png,images/cb_x.png,,,,,,,,,,,,,,,,,,,,,,,,,
,,,,,,00018,2023-08-11_13h04.32.177,vbt_B2_day1,2022.2.4,Win32,60.10699044,,,,,,,,,,,,,,,,,,,0.583333333,-0.205555556,1,0,0,2.4322,4,5,109,4,1,e,images/br_e.png,images/cb_e.png,,,,,,,,,,,,,,,,,,,,,,,,,
,,,,,,00018,2023-08-11_13h04.32.177,vbt_B2_day1,2022.2.4,Win32,60.10699044,,,,,,,,,,,,,,,,,,,0.583333333,-0.205555556,1,0,0,0.9495,4,6,110,22,1,w,images/br_w.png,images/cb_w.png,,,,,,,,,,,,,,,,,,,,,,,,,
,,,,,,00018,2023-08-11_13h04.32.177,vbt_B2_day1,2022.2.4,Win32,60.10699044,,,,,,,,,,,,,,,,,,,0.583333333,-0.205555556,1,0,0,1.9154,4,7,111,1,1,b,images/br_b.png,images/cb_b.png,,,,,,,,,,,,,,,,,,,,,,,,,
,,,,,,00018,2023-08-11_13h04.32.177,vbt_B2_day1,2022.2.4,Win32,60.10699044,,,,,,,,,,,,,,,,,,,0.583333333,-0.205555556,1,0,0,0.2705,4,8,112,15,1,p,images/br_p.png,images/cb_p.png,,,,,,,,,,,,,,,,,,,,,,,,,
,,,,,,00018,2023-08-11_13h04.32.177,vbt_B2_day1,2022.2.4,Win32,60.10699044,,,,,,,,,,,,,,,,,,,0.582407464,-0.208333333,1,0,0,1.2662,4,9,113,12,1,m,images/br_m.png,images/cb_m.png,,,,,,,,,,,,,,,,,,,,,,,,,
,,,,,,00018,2023-08-11_13h04.32.177,vbt_B2_day1,2022.2.4,Win32,60.10699044,,,,,,,,,,,,,,,,,,,0.582407464,-0.208333333,1,0,0,0.9869,4,10,114,3,1,d,images/br_d.png,images/cb_d.png,,,,,,,,,,,,,,,,,,,,,,,,,
,,,,,,00018,2023-08-11_13h04.32.177,vbt_B2_day1,2022.2.4,Win32,60.10699044,,,,,,,,,,,,,,,,,,,0.582407464,-0.208333333,1,0,0,54.1166,4,11,115,9,1,j,images/br_j.png,images/cb_j.png,,,,,,,,,,,,,,,,,,,,,,,,,
,,,,,,00018,2023-08-11_13h04.32.177,vbt_B2_day1,2022.2.4,Win32,60.10699044,,,,,,,,,,,,,,,,,,,0.582407464,-0.208333333,1,0,0,1.5159,4,12,116,19,1,t,images/br_t.png,images/cb_t.png,,,,,,,,,,,,,,,,,,,,,,,,,
,,,,,,00018,2023-08-11_13h04.32.177,vbt_B2_day1,2022.2.4,Win32,60.10699044,,,,,,,,,,,,,,,,,,,0.582407464,-0.208333333,1,0,0,0.6992,4,13,117,8,1,i,images/br_i.png,images/cb_i.png,,,,,,,,,,,,,,,,,,,,,,,,,
,,,,,,00018,2023-08-11_13h04.32.177,vbt_B2_day1,2022.2.4,Win32,60.10699044,,,,,,,,,,,,,,,,,,,0.582407464,-0.208333333,1,0,0,6.7333,4,14,118,7,1,h,images/br_h.png,images/cb_h.png,,,,,,,,,,,,,,,,,,,,,,,,,
,,,,,,00018,2023-08-11_13h04.32.177,vbt_B2_day1,2022.2.4,Win32,60.10699044,,,,,,,,,,,,,,,,,,,0.582407464,-0.208333333,1,0,0,5.0966,4,15,119,20,1,u,images/br_u.png,images/cb_u.png,,,,,,,,,,,,,,,,,,,,,,,,,
,,,,,,00018,2023-08-11_13h04.32.177,vbt_B2_day1,2022.2.4,Win32,60.10699044,,,,,,,,,,,,,,,,,,,0.582407464,-0.208333333,1,0,0,5.2968,4,16,120,18,1,s,images/br_s.png,images/cb_s.png,,,,,,,,,,,,,,,,,,,,,,,,,
,,,,,,00018,2023-08-11_13h04.32.177,vbt_B2_day1,2022.2.4,Win32,60.10699044,,,,,,,,,,,,,,,,,,,0.582407464,-0.208333333,1,0,0,0.0834,4,17,121,17,1,r,images/br_r.png,images/cb_r.png,,,,,,,,,,,,,,,,,,,,,,,,,
,,,,,,00018,2023-08-11_13h04.32.177,vbt_B2_day1,2022.2.4,Win32,60.10699044,,,,,,,,,,,,,,,,,,,0.582407464,-0.208333333,1,0,0,3.4976,4,18,122,10,1,k,images/br_k.png,images/cb_k.png,,,,,,,,,,,,,,,,,,,,,,,,,
,,,,,,00018,2023-08-11_13h04.32.177,vbt_B2_day1,2022.2.4,Win32,60.10699044,,,,,,,,,,,,,,,,,,,0.582407464,-0.208333333,1,0,0,5.5135,4,19,123,24,1,y,images/br_y.png,images/cb_y.png,,,,,,,,,,,,,,,,,,,,,,,,,
,,,,,,00018,2023-08-11_13h04.32.177,vbt_B2_day1,2022.2.4,Win32,60.10699044,,,,,,,,,,,,,,,,,,,0.582407464,-0.208333333,1,0,0,31.9637,4,20,124,5,1,f,images/br_f.png,images/cb_f.png,,,,,,,,,,,,,,,,,,,,,,,,,
,,,,,,00018,2023-08-11_13h04.32.177,vbt_B2_day1,2022.2.4,Win32,60.10699044,,,,,,,,,,,,,,,,,,,0.582407464,-0.208333333,1,0,0,0.3492,4,21,125,0,1,a,images/br_a.png,images/cb_a.png,,,,,,,,,,,,,,,,,,,,,,,,,
,,,,,,00018,2023-08-11_13h04.32.177,vbt_B2_day1,2022.2.4,Win32,60.10699044,,,,,,,,,,,,,,,,,,,0.582407464,-0.208333333,1,0,0,25.7508,4,22,126,21,1,v,images/br_v.png,images/cb_v.png,,,,,,,,,,,,,,,,,,,,,,,,,
,,,,,,00018,2023-08-11_13h04.32.177,vbt_B2_day1,2022.2.4,Win32,60.10699044,,,,,,,,,,,,,,,,,,,0.582407464,-0.208333333,1,0,0,0.8829,4,23,127,13,1,n,images/br_n.png,images/cb_n.png,,,,,,,,,,,,,,,,,,,,,,,,,
,,,,,,00018,2023-08-11_13h04.32.177,vbt_B2_day1,2022.2.4,Win32,60.10699044,,,,,,,,,,,,,,,,,,,0.582407464,-0.208333333,1,0,0,1.4827,4,24,128,16,1,q,images/br_q.png,images/cb_q.png,,,,,,,,,,,,,,,,,,,,,,,,,
,,,,,,00018,2023-08-11_13h04.32.177,vbt_B2_day1,2022.2.4,Win32,60.10699044,,,,,,,,,,,,,,,,,,,0.582407464,-0.208333333,1,0,0,1.0484,4,25,129,2,1,c,images/br_c.png,images/cb_c.png,,,,,,,,,,,,,,,,,,,,,,,,,
,,,,,,00018,2023-08-11_13h04.32.177,vbt_B2_day1,2022.2.4,Win32,60.10699044,,,,,,,,,,,,,,,,,,,0.582407464,-0.208333333,1,0,0,0.254,5,0,130,17,1,r,images/br_r.png,images/cb_r.png,,,,,,,,,,,,,,,,,,,,,,,,,
,,,,,,00018,2023-08-11_13h04.32.177,vbt_B2_day1,2022.2.4,Win32,60.10699044,,,,,,,,,,,,,,,,,,,0.582407464,-0.208333333,1,0,0,14.9035,5,1,131,10,1,k,images/br_k.png,images/cb_k.png,,,,,,,,,,,,,,,,,,,,,,,,,
,,,,,,00018,2023-08-11_13h04.32.177,vbt_B2_day1,2022.2.4,Win32,60.10699044,,,,,,,,,,,,,,,,,,,0.582407464,-0.208333333,1,0,0,0.8165,5,2,132,16,1,q,images/br_q.png,images/cb_q.png,,,,,,,,,,,,,,,,,,,,,,,,,
,,,,,,00018,2023-08-11_13h04.32.177,vbt_B2_day1,2022.2.4,Win32,60.10699044,,,,,,,,,,,,,,,,,,,0.582407464,-0.208333333,1,0,0,24.2058,5,3,133,22,1,w,images/br_w.png,images/cb_w.png,,,,,,,,,,,,,,,,,,,,,,,,,
,,,,,,00018,2023-08-11_13h04.32.177,vbt_B2_day1,2022.2.4,Win32,60.10699044,,,,,,,,,,,,,,,,,,,0.582407464,-0.208333333,1,0,0,2.6483,5,4,134,4,1,e,images/br_e.png,images/cb_e.png,,,,,,,,,,,,,,,,,,,,,,,,,
,,,,,,00018,2023-08-11_13h04.32.177,vbt_B2_day1,2022.2.4,Win32,60.10699044,,,,,,,,,,,,,,,,,,,0.582407464,-0.208333333,1,0,0,0.466,5,5,135,21,1,v,images/br_v.png,images/cb_v.png,,,,,,,,,,,,,,,,,,,,,,,,,
,,,,,,00018,2023-08-11_13h04.32.177,vbt_B2_day1,2022.2.4,Win32,60.10699044,,,,,,,,,,,,,,,,,,,0.582407464,-0.208333333,1,0,0,0.4498,5,6,136,9,1,j,images/br_j.png,images/cb_j.png,,,,,,,,,,,,,,,,,,,,,,,,,
,,,,,,00018,2023-08-11_13h04.32.177,vbt_B2_day1,2022.2.4,Win32,60.10699044,,,,,,,,,,,,,,,,,,,0.582407464,-0.208333333,1,0,0,0.332,5,7,137,15,1,p,images/br_p.png,images/cb_p.png,,,,,,,,,,,,,,,,,,,,,,,,,
,,,,,,00018,2023-08-11_13h04.32.177,vbt_B2_day1,2022.2.4,Win32,60.10699044,,,,,,,,,,,,,,,,,,,0.582407464,-0.208333333,1,0,0,14.7742,5,8,138,20,1,u,images/br_u.png,images/cb_u.png,,,,,,,,,,,,,,,,,,,,,,,,,
,,,,,,00018,2023-08-11_13h04.32.177,vbt_B2_day1,2022.2.4,Win32,60.10699044,,,,,,,,,,,,,,,,,,,0.582407464,-0.208333333,1,0,0,0.0336,5,9,139,0,1,a,images/br_a.png,images/cb_a.png,,,,,,,,,,,,,,,,,,,,,,,,,
,,,,,,00018,2023-08-11_13h04.32.177,vbt_B2_day1,2022.2.4,Win32,60.10699044,,,,,,,,,,,,,,,,,,,0.582407464,-0.208333333,1,0,0,0.4664,5,10,140,3,1,d,images/br_d.png,images/cb_d.png,,,,,,,,,,,,,,,,,,,,,,,,,
,,,,,,00018,2023-08-11_13h04.32.177,vbt_B2_day1,2022.2.4,Win32,60.10699044,,,,,,,,,,,,,,,,,,,0.582407464,-0.208333333,1,0,0,0.6164,5,11,141,24,1,y,images/br_y.png,images/cb_y.png,,,,,,,,,,,,,,,,,,,,,,,,,
,,,,,,00018,2023-08-11_13h04.32.177,vbt_B2_day1,2022.2.4,Win32,60.10699044,,,,,,,,,,,,,,,,,,,0.582407464,-0.208333333,1,0,0,0.1833,5,12,142,7,1,h,images/br_h.png,images/cb_h.png,,,,,,,,,,,,,,,,,,,,,,,,,
,,,,,,00018,2023-08-11_13h04.32.177,vbt_B2_day1,2022.2.4,Win32,60.10699044,,,,,,,,,,,,,,,,,,,0.582407464,-0.208333333,1,0,0,11.5263,5,13,143,1,1,b,images/br_b.png,images/cb_b.png,,,,,,,,,,,,,,,,,,,,,,,,,
,,,,,,00018,2023-08-11_13h04.32.177,vbt_B2_day1,2022.2.4,Win32,60.10699044,,,,,,,,,,,,,,,,,,,0.582407464,-0.208333333,1,0,0,0.8698,5,14,144,11,1,l,images/br_l.png,images/cb_l.png,,,,,,,,,,,,,,,,,,,,,,,,,
,,,,,,00018,2023-08-11_13h04.32.177,vbt_B2_day1,2022.2.4,Win32,60.10699044,,,,,,,,,,,,,,,,,,,0.582407464,-0.208333333,1,0,0,1.0995,5,15,145,6,1,g,images/br_g.png,images/cb_g.png,,,,,,,,,,,,,,,,,,,,,,,,,
,,,,,,00018,2023-08-11_13h04.32.177,vbt_B2_day1,2022.2.4,Win32,60.10699044,,,,,,,,,,,,,,,,,,,0.582407464,-0.208333333,1,0,0,0.3998,5,16,146,2,1,c,images/br_c.png,images/cb_c.png,,,,,,,,,,,,,,,,,,,,,,,,,
,,,,,,00018,2023-08-11_13h04.32.177,vbt_B2_day1,2022.2.4,Win32,60.10699044,,,,,,,,,,,,,,,,,,,0.582407464,-0.208333333,1,0,0,1.865,5,17,147,25,1,z,images/br_z.png,images/cb_z.png,,,,,,,,,,,,,,,,,,,,,,,,,
,,,,,,00018,2023-08-11_13h04.32.177,vbt_B2_day1,2022.2.4,Win32,60.10699044,,,,,,,,,,,,,,,,,,,0.582407464,-0.208333333,1,0,0,0.0335,5,18,148,12,1,m,images/br_m.png,images/cb_m.png,,,,,,,,,,,,,,,,,,,,,,,,,
,,,,,,00018,2023-08-11_13h04.32.177,vbt_B2_day1,2022.2.4,Win32,60.10699044,,,,,,,,,,,,,,,,,,,0.582407464,-0.208333333,1,0,0,0.9219,5,19,149,14,1,o,images/br_o.png,images/cb_o.png,,,,,,,,,,,,,,,,,,,,,,,,,
,,,,,,00018,2023-08-11_13h04.32.177,vbt_B2_day1,2022.2.4,Win32,60.10699044,,,,,,,,,,,,,,,,,,,0.582407464,-0.208333333,1,0,0,0.2165,5,20,150,19,1,t,images/br_t.png,images/cb_t.png,,,,,,,,,,,,,,,,,,,,,,,,,
,,,,,,00018,2023-08-11_13h04.32.177,vbt_B2_day1,2022.2.4,Win32,60.10699044,,,,,,,,,,,,,,,,,,,0.582407464,-0.208333333,1,0,0,0.9326,5,21,151,23,1,x,images/br_x.png,images/cb_x.png,,,,,,,,,,,,,,,,,,,,,,,,,
,,,,,,00018,2023-08-11_13h04.32.177,vbt_B2_day1,2022.2.4,Win32,60.10699044,,,,,,,,,,,,,,,,,,,0.582407464,-0.208333333,1,0,0,1.9816,5,22,152,13,1,n,images/br_n.png,images/cb_n.png,,,,,,,,,,,,,,,,,,,,,,,,,
,,,,,,00018,2023-08-11_13h04.32.177,vbt_B2_day1,2022.2.4,Win32,60.10699044,,,,,,,,,,,,,,,,,,,0.582407464,-0.208333333,1,0,0,0.3162,5,23,153,8,1,i,images/br_i.png,images/cb_i.png,,,,,,,,,,,,,,,,,,,,,,,,,
,,,,,,00018,2023-08-11_13h04.32.177,vbt_B2_day1,2022.2.4,Win32,60.10699044,,,,,,,,,,,,,,,,,,,0.582407464,-0.208333333,1,0,0,0.2834,5,24,154,5,1,f,images/br_f.png,images/cb_f.png,,,,,,,,,,,,,,,,,,,,,,,,,
,,,,,,00018,2023-08-11_13h04.32.177,vbt_B2_day1,2022.2.4,Win32,60.10699044,,,,,,,,,,,,,,,,,,,0.582407464,-0.208333333,1,0,0,6.7413,5,25,155,18,1,s,images/br_s.png,images/cb_s.png,,,,,,,,,,,,,,,,,,,,,,,,,
,,,,,,00018,2023-08-11_13h04.32.177,vbt_B2_day1,2022.2.4,Win32,60.10699044,,,,,,,,,,,,,,,,,,,0.582407464,-0.208333333,1,0,0,0.4284,6,0,156,18,1,s,images/br_s.png,images/cb_s.png,,,,,,,,,,,,,,,,,,,,,,,,,
,,,,,,00018,2023-08-11_13h04.32.177,vbt_B2_day1,2022.2.4,Win32,60.10699044,,,,,,,,,,,,,,,,,,,0.582407464,-0.208333333,1,0,0,1.3665,6,1,157,17,1,r,images/br_r.png,images/cb_r.png,,,,,,,,,,,,,,,,,,,,,,,,,
,,,,,,00018,2023-08-11_13h04.32.177,vbt_B2_day1,2022.2.4,Win32,60.10699044,,,,,,,,,,,,,,,,,,,0.582407464,-0.208333333,1,0,0,0.0171,6,2,158,25,1,z,images/br_z.png,images/cb_z.png,,,,,,,,,,,,,,,,,,,,,,,,,
,,,,,,00018,2023-08-11_13h04.32.177,vbt_B2_day1,2022.2.4,Win32,60.10699044,,,,,,,,,,,,,,,,,,,0.582407464,-0.208333333,1,0,0,0.1666,6,3,159,22,1,w,images/br_w.png,images/cb_w.png,,,,,,,,,,,,,,,,,,,,,,,,,
,,,,,,00018,2023-08-11_13h04.32.177,vbt_B2_day1,2022.2.4,Win32,60.10699044,,,,,,,,,,,,,,,,,,,0.582407464,-0.208333333,1,0,0,2.0483,6,4,160,2,1,c,images/br_c.png,images/cb_c.png,,,,,,,,,,,,,,,,,,,,,,,,,
,,,,,,00018,2023-08-11_13h04.32.177,vbt_B2_day1,2022.2.4,Win32,60.10699044,,,,,,,,,,,,,,,,,,,0.582407464,-0.208333333,1,0,0,0.7536,6,5,161,13,1,n,images/br_n.png,images/cb_n.png,,,,,,,,,,,,,,,,,,,,,,,,,
,,,,,,00018,2023-08-11_13h04.32.177,vbt_B2_day1,2022.2.4,Win32,60.10699044,,,,,,,,,,,,,,,,,,,0.582407464,-0.208333333,1,0,0,0.1665,6,6,162,6,1,g,images/br_g.png,images/cb_g.png,,,,,,,,,,,,,,,,,,,,,,,,,
,,,,,,00018,2023-08-11_13h04.32.177,vbt_B2_day1,2022.2.4,Win32,60.10699044,,,,,,,,,,,,,,,,,,,0.582407464,-0.208333333,1,0,0,1.0949,6,7,163,11,1,l,images/br_l.png,images/cb_l.png,,,,,,,,,,,,,,,,,,,,,,,,,
,,,,,,00018,2023-08-11_13h04.32.177,vbt_B2_day1,2022.2.4,Win32,60.10699044,,,,,,,,,,,,,,,,,,,0.582407464,-0.208333333,1,0,0,5.65,6,8,164,12,1,m,images/br_m.png,images/cb_m.png,,,,,,,,,,,,,,,,,,,,,,,,,
,,,,,,00018,2023-08-11_13h04.32.177,vbt_B2_day1,2022.2.4,Win32,60.10699044,,,,,,,,,,,,,,,,,,,0.582407464,-0.208333333,1,0,0,0.2829,6,9,165,1,1,b,images/br_b.png,images/cb_b.png,,,,,,,,,,,,,,,,,,,,,,,,,
,,,,,,00018,2023-08-11_13h04.32.177,vbt_B2_day1,2022.2.4,Win32,60.10699044,,,,,,,,,,,,,,,,,,,0.582407464,-0.208333333,1,0,0,0.6832,6,10,166,7,1,h,images/br_h.png,images/cb_h.png,,,,,,,,,,,,,,,,,,,,,,,,,
,,,,,,00018,2023-08-11_13h04.32.177,vbt_B2_day1,2022.2.4,Win32,60.10699044,,,,,,,,,,,,,,,,,,,0.582407464,-0.208333333,1,0,0,0.1498,6,11,167,10,1,k,images/br_k.png,images/cb_k.png,,,,,,,,,,,,,,,,,,,,,,,,,
,,,,,,00018,2023-08-11_13h04.32.177,vbt_B2_day1,2022.2.4,Win32,60.10699044,,,,,,,,,,,,,,,,,,,0.582407464,-0.208333333,1,0,0,0.4703,6,12,168,19,1,t,images/br_t.png,images/cb_t.png,,,,,,,,,,,,,,,,,,,,,,,,,
,,,,,,00018,2023-08-11_13h04.32.177,vbt_B2_day1,2022.2.4,Win32,60.10699044,,,,,,,,,,,,,,,,,,,0.582407464,-0.208333333,1,0,0,2.964,6,13,169,5,1,f,images/br_f.png,images/cb_f.png,,,,,,,,,,,,,,,,,,,,,,,,,
,,,,,,00018,2023-08-11_13h04.32.177,vbt_B2_day1,2022.2.4,Win32,60.10699044,,,,,,,,,,,,,,,,,,,0.582407464,-0.208333333,1,0,0,6.5953,6,14,170,14,1,o,images/br_o.png,images/cb_o.png,,,,,,,,,,,,,,,,,,,,,,,,,
,,,,,,00018,2023-08-11_13h04.32.177,vbt_B2_day1,2022.2.4,Win32,60.10699044,,,,,,,,,,,,,,,,,,,0.582407464,-0.208333333,1,0,0,4.1468,6,15,171,23,1,x,images/br_x.png,images/cb_x.png,,,,,,,,,,,,,,,,,,,,,,,,,
,,,,,,00018,2023-08-11_13h04.32.177,vbt_B2_day1,2022.2.4,Win32,60.10699044,,,,,,,,,,,,,,,,,,,0.582407464,-0.208333333,1,0,0,0.1951,6,16,172,0,1,a,images/br_a.png,images/cb_a.png,,,,,,,,,,,,,,,,,,,,,,,,,
,,,,,,00018,2023-08-11_13h04.32.177,vbt_B2_day1,2022.2.4,Win32,60.10699044,,,,,,,,,,,,,,,,,,,0.582407464,-0.208333333,1,0,0,0.0543,6,17,173,3,1,d,images/br_d.png,images/cb_d.png,,,,,,,,,,,,,,,,,,,,,,,,,
,,,,,,00018,2023-08-11_13h04.32.177,vbt_B2_day1,2022.2.4,Win32,60.10699044,,,,,,,,,,,,,,,,,,,0.582407464,-0.208333333,1,0,0,1.5993,6,18,174,20,1,u,images/br_u.png,images/cb_u.png,,,,,,,,,,,,,,,,,,,,,,,,,
,,,,,,00018,2023-08-11_13h04.32.177,vbt_B2_day1,2022.2.4,Win32,60.10699044,,,,,,,,,,,,,,,,,,,0.582407464,-0.208333333,1,0,0,0.7953,6,19,175,4,1,e,images/br_e.png,images/cb_e.png,,,,,,,,,,,,,,,,,,,,,,,,,
,,,,,,00018,2023-08-11_13h04.32.177,vbt_B2_day1,2022.2.4,Win32,60.10699044,,,,,,,,,,,,,,,,,,,0.582407464,-0.208333333,1,0,0,13.1418,6,20,176,16,1,q,images/br_q.png,images/cb_q.png,,,,,,,,,,,,,,,,,,,,,,,,,
,,,,,,00018,2023-08-11_13h04.32.177,vbt_B2_day1,2022.2.4,Win32,60.10699044,,,,,,,,,,,,,,,,,,,0.582407464,-0.208333333,1,0,0,1.0492,6,21,177,21,1,v,images/br_v.png,images/cb_v.png,,,,,,,,,,,,,,,,,,,,,,,,,
,,,,,,00018,2023-08-11_13h04.32.177,vbt_B2_day1,2022.2.4,Win32,60.10699044,,,,,,,,,,,,,,,,,,,0.582407464,-0.208333333,1,0,0,0.3712,6,22,178,8,1,i,images/br_i.png,images/cb_i.png,,,,,,,,,,,,,,,,,,,,,,,,,
,,,,,,00018,2023-08-11_13h04.32.177,vbt_B2_day1,2022.2.4,Win32,60.10699044,,,,,,,,,,,,,,,,,,,0.582407464,-0.208333333,1,0,0,10.1564,6,23,179,15,1,p,images/br_p.png,images/cb_p.png,,,,,,,,,,,,,,,,,,,,,,,,,
,,,,,,00018,2023-08-11_13h04.32.177,vbt_B2_day1,2022.2.4,Win32,60.10699044,,,,,,,,,,,,,,,,,,,0.582407464,-0.208333333,1,0,0,2.1157,6,24,180,24,1,y,images/br_y.png,images/cb_y.png,,,,,,,,,,,,,,,,,,,,,,,,,
,,,,,,00018,2023-08-11_13h04.32.177,vbt_B2_day1,2022.2.4,Win32,60.10699044,,,,,,,,,,,,,,,,,,,0.582407464,-0.208333333,1,0,0,12.2752,6,25,181,9,1,j,images/br_j.png,images/cb_j.png,,,,,,,,,,,,,,,,,,,,,,,,,
,,,,,,00018,2023-08-11_13h04.32.177,vbt_B2_day1,2022.2.4,Win32,60.10699044,,,,,,,,,,,,,,,,,,,,,,,,,,,,,,,,,0.582407464,-0.208333333,1,0,0,,,,,,,,,,,,,,,,,,,,
,,,,,,00018,2023-08-11_13h04.32.177,vbt_B2_day1,2022.2.4,Win32,60.10699044,,,,,,,,,,,,,,,,,,,,,,,,,,,,,,,,,,,,,,0.582407464,-0.213888889,1,0,0,,,,,,,,,,,,,,,
,,,,,,00018,2023-08-11_13h04.32.177,vbt_B2_day1,2022.2.4,Win32,60.10699044,,,,,,,,,,,,,,,,,,,,,,,,,,,,,,,,,,,,,,,,,,,0.582407464,-0.213888889,1,0,0,zaal,zaal,0,0,0,1,1,zaal,images/br_zaal.png,images/cb_zaal.png
,,,,,,00018,2023-08-11_13h04.32.177,vbt_B2_day1,2022.2.4,Win32,60.10699044,,,,,,,,,,,,,,,,,,,,,,,,,,,,,,,,,,,,,,,,,,,0.582407464,-0.213888889,1,0,0,schel,schel,0,1,1,4,1,schep,images/br_schep.png,images/cb_schep.png
,,,,,,00018,2023-08-11_13h04.32.177,vbt_B2_day1,2022.2.4,Win32,60.10699044,,,,,,,,,,,,,,,,,,,,,,,,,,,,,,,,,,,,,,,,,,,0.582407464,-0.213888889,1,0,0,mand,mand,0,2,2,3,1,mand,images/br_mand.png,images/cb_mand.png
,,,,,,00018,2023-08-11_13h04.32.177,vbt_B2_day1,2022.2.4,Win32,60.10699044,,,,,,,,,,,,,,,,,,,,,,,,,,,,,,,,,,,,,,,,,,,0.582407464,-0.213888889,1,0,0,.a...r,.a...r,0,3,3,8,1,kanjer,images/br_kanjer.png,images/cb_kanjer.png
,,,,,,00018,2023-08-11_13h04.32.177,vbt_B2_day1,2022.2.4,Win32,60.10699044,,,,,,,,,,,,,,,,,,,,,,,,,,,,,,,,,,,,,,,,,,,0.582407464,-0.213888889,1,0,0,bezen,bezen,0,4,4,46,1,lezen,images/br_lezen.png,images/cb_lezen.png
,,,,,,00018,2023-08-11_13h04.32.177,vbt_B2_day1,2022.2.4,Win32,60.10699044,,,,,,,,,,,,,,,,,,,,,,,,,,,,,,,,,,,,,,,,,,,0.582407464,-0.213888889,1,0,0,bochten,bochten,0,5,5,34,1,lochten,images/br_lochten.png,images/cb_lochten.png
,,,,,,00018,2023-08-11_13h04.32.177,vbt_B2_day1,2022.2.4,Win32,60.10699044,,,,,,,,,,,,,,,,,,,,,,,,,,,,,,,,,,,,,,,,,,,0.582407464,-0.213888889,1,0,0,beedhe,beedhe,0,6,6,30,1,reedje,images/br_reedje.png,images/cb_reedje.png
,,,,,,00018,2023-08-11_13h04.32.177,vbt_B2_day1,2022.2.4,Win32,60.10699044,,,,,,,,,,,,,,,,,,,,,,,,,,,,,,,,,,,,,,,,,,,0.582407464,-0.213888889,1,0,0,kzoe,kzoe,0,7,7,22,1,knoe,images/br_knoe.png,images/cb_knoe.png
,,,,,,00018,2023-08-11_13h04.32.177,vbt_B2_day1,2022.2.4,Win32,60.10699044,,,,,,,,,,,,,,,,,,,,,,,,,,,,,,,,,,,,,,,,,,,0.582407464,-0.213888889,1,0,0,fbbeb.,fbbeb.,0,8,8,33,1,flullen,images/br_flullen.png,images/cb_flullen.png
,,,,,,00018,2023-08-11_13h04.32.177,vbt_B2_day1,2022.2.4,Win32,60.10699044,,,,,,,,,,,,,,,,,,,,,,,,,,,,,,,,,,,,,,,,,,,0.582407464,-0.213888889,1,0,0,nmui.i,nmui.i,0,9,9,52,1,zuiplap,images/br_zuiplap.png,images/cb_zuiplap.png
,,,,,,00018,2023-08-11_13h04.32.177,vbt_B2_day1,2022.2.4,Win32,60.10699044,,,,,,,,,,,,,,,,,,,,,,,,,,,,,,,,,,,,,,,,,,,0.582407464,-0.213888889,1,0,0,ba.a,ba.a,0,10,10,43,1,lava,images/br_lava.png,images/cb_lava.png
,,,,,,00018,2023-08-11_13h04.32.177,vbt_B2_day1,2022.2.4,Win32,60.10699044,,,,,,,,,,,,,,,,,,,,,,,,,,,,,,,,,,,,,,,,,,,0.582407464,-0.213888889,1,0,0,toeni..t,toeni..t,0,11,11,56,1,toezicht,images/br_toezicht.png,images/cb_toezicht.png
,,,,,,00018,2023-08-11_13h04.32.177,vbt_B2_day1,2022.2.4,Win32,60.10699044,,,,,,,,,,,,,,,,,,,,,,,,,,,,,,,,,,,,,,,,,,,0.582407464,-0.213888889,1,0,0,.ezeit,.ezeit,0,12,12,49,1,vizier,images/br_vizier.png,images/cb_vizier.png
,,,,,,00018,2023-08-11_13h04.32.177,vbt_B2_day1,2022.2.4,Win32,60.10699044,,,,,,,,,,,,,,,,,,,,,,,,,,,,,,,,,,,,,,,,,,,0.582407464,-0.213888889,1,0,0,o..t....,o..t....,0,13,13,32,1,opplaan,images/br_opplaan.png,images/cb_opplaan.png
,,,,,,00018,2023-08-11_13h04.32.177,vbt_B2_day1,2022.2.4,Win32,60.10699044,,,,,,,,,,,,,,,,,,,,,,,,,,,,,,,,,,,,,,,,,,,0.582407464,-0.213888889,1,0,0,boog,boog,0,14,14,41,1,hoog,images/br_hoog.png,images/cb_hoog.png
,,,,,,00018,2023-08-11_13h04.32.177,vbt_B2_day1,2022.2.4,Win32,60.10699044,,,,,,,,,,,,,,,,,,,,,,,,,,,,,,,,,,,,,,,,,,,0.582407464,-0.213888889,1,0,0,gezozd,gezozd,0,15,15,29,1,genond,images/br_genond.png,images/cb_genond.png
,,,,,,00018,2023-08-11_13h04.32.177,vbt_B2_day1,2022.2.4,Win32,60.10699044,,,,,,,,,,,,,,,,,,,,,,,,,,,,,,,,,,,,,,,,,,,0.582407464,-0.213888889,1,0,0,te.e.ed,te.e.ed,0,16,16,55,1,tekenen,images/br_tekenen.png,images/cb_tekenen.png
,,,,,,00018,2023-08-11_13h04.32.177,vbt_B2_day1,2022.2.4,Win32,60.10699044,,,,,,,,,,,,,,,,,,,,,,,,,,,,,,,,,,,,,,,,,,,0.582407464,-0.213888889,1,0,0,re.er,re.er,0,17,17,24,1,rezer,images/br_rezer.png,images/cb_rezer.png
,,,,,,00018,2023-08-11_13h04.32.177,vbt_B2_day1,2022.2.4,Win32,60.10699044,,,,,,,,,,,,,,,,,,,,,,,,,,,,,,,,,,,,,,,,,,,0.582407464,-0.213888889,1,0,0,boo.,boo.,0,18,18,23,1,booi,images/br_booi.png,images/cb_booi.png
,,,,,,00018,2023-08-11_13h04.32.177,vbt_B2_day1,2022.2.4,Win32,60.10699044,,,,,,,,,,,,,,,,,,,,,,,,,,,,,,,,,,,,,,,,,,,0.582407464,-0.213888889,1,0,0,s..a...g,s..a...g,0,19,19,37,1,spanzing,images/br_spanzing.png,images/cb_spanzing.png
,,,,,,00018,2023-08-11_13h04.32.177,vbt_B2_day1,2022.2.4,Win32,60.10699044,,,,,,,,,,,,,,,,,,,,,,,,,,,,,,,,,,,,,,,,,,,0.582407464,-0.213888889,1,0,0,scfie..,scfie..,0,20,20,38,1,schielen,images/br_schielen.png,images/cb_schielen.png
,,,,,,00018,2023-08-11_13h04.32.177,vbt_B2_day1,2022.2.4,Win32,60.10699044,,,,,,,,,,,,,,,,,,,,,,,,,,,,,,,,,,,,,,,,,,,0.582407464,-0.213888889,1,0,0,klauw,klauw,0,21,21,7,1,klauw,images/br_klauw.png,images/cb_klauw.png
,,,,,,00018,2023-08-11_13h04.32.177,vbt_B2_day1,2022.2.4,Win32,60.10699044,,,,,,,,,,,,,,,,,,,,,,,,,,,,,,,,,,,,,,,,,,,0.582407464,-0.213888889,1,0,0,on..aa.,on..aa.,0,22,22,53,1,opslaan,images/br_opslaan.png,images/cb_opslaan.png
,,,,,,00018,2023-08-11_13h04.32.177,vbt_B2_day1,2022.2.4,Win32,60.10699044,,,,,,,,,,,,,,,,,,,,,,,,,,,,,,,,,,,,,,,,,,,0.582407464,-0.213888889,1,0,0,man.er,man.er,0,23,23,5,1,maken,images/br_maken.png,images/cb_maken.png
,,,,,,00018,2023-08-11_13h04.32.177,vbt_B2_day1,2022.2.4,Win32,60.10699044,,,,,,,,,,,,,,,,,,,,,,,,,,,,,,,,,,,,,,,,,,,0.582407464,-0.213888889,1,0,0,dief,dief,0,24,24,40,1,dief,images/br_dief.png,images/cb_dief.png
,,,,,,00018,2023-08-11_13h04.32.177,vbt_B2_day1,2022.2.4,Win32,60.10699044,,,,,,,,,,,,,,,,,,,,,,,,,,,,,,,,,,,,,,,,,,,0.582407464,-0.213888889,1,0,0,meenemen,meenemen,0,25,25,57,1,meenemen,images/br_meenemen.png,images/cb_meenemen.png
,,,,,,00018,2023-08-11_13h04.32.177,vbt_B2_day1,2022.2.4,Win32,60.10699044,,,,,,,,,,,,,,,,,,,,,,,,,,,,,,,,,,,,,,,,,,,0.582407464,-0.213888889,1,0,0,ot....,ot....,0,26,26,59,1,opvatten,images/br_opvatten.png,images/cb_opvatten.png
,,,,,,00018,2023-08-11_13h04.32.177,vbt_B2_day1,2022.2.4,Win32,60.10699044,,,,,,,,,,,,,,,,,,,,,,,,,,,,,,,,,,,,,,,,,,,0.582407464,-0.213888889,1,0,0,.ieze,.ieze,0,27,27,44,1,wijze,images/br_wijze.png,images/cb_wijze.png
,,,,,,00018,2023-08-11_13h04.32.177,vbt_B2_day1,2022.2.4,Win32,60.10699044,,,,,,,,,,,,,,,,,,,,,,,,,,,,,,,,,,,,,,,,,,,0.582407464,-0.213888889,1,0,0,.oordeel,.oordeel,0,28,28,58,1,voorkeur,images/br_voorkeur.png,images/cb_voorkeur.png
,,,,,,00018,2023-08-11_13h04.32.177,vbt_B2_day1,2022.2.4,Win32,60.10699044,,,,,,,,,,,,,,,,,,,,,,,,,,,,,,,,,,,,,,,,,,,0.582407464,-0.213888889,1,0,0,vie....,vie....,0,29,29,54,1,vijftig,images/br_vijftig.png,images/cb_vijftig.png
,,,,,,00018,2023-08-11_13h04.32.177,vbt_B2_day1,2022.2.4,Win32,60.10699044,,,,,,,,,,,,,,,,,,,,,,,,,,,,,,,,,,,,,,,,,,,0.582407464,-0.213888889,1,0,0,jaar,jaar,0,30,30,2,1,jaar,images/br_jaar.png,images/cb_jaar.png
,,,,,,00018,2023-08-11_13h04.32.177,vbt_B2_day1,2022.2.4,Win32,60.10699044,,,,,,,,,,,,,,,,,,,,,,,,,,,,,,,,,,,,,,,,,,,0.582407464,-0.213888889,1,0,0,vera...,vera...,0,31,31,36,1,vervaden,images/br_vervaden.png,images/cb_vervaden.png
,,,,,,00018,2023-08-11_13h04.32.177,vbt_B2_day1,2022.2.4,Win32,60.10699044,,,,,,,,,,,,,,,,,,,,,,,,,,,,,,,,,,,,,,,,,,,0.582407464,-0.213888889,1,0,0,liegen,liegen,0,32,32,50,1,liegen,images/br_liegen.png,images/cb_liegen.png
,,,,,,00018,2023-08-11_13h04.32.177,vbt_B2_day1,2022.2.4,Win32,60.10699044,,,,,,,,,,,,,,,,,,,,,,,,,,,,,,,,,,,,,,,,,,,0.582407464,-0.213888889,1,0,0,tars,tars,0,33,33,20,1,tars,images/br_tars.png,images/cb_tars.png
,,,,,,00018,2023-08-11_13h04.32.177,vbt_B2_day1,2022.2.4,Win32,60.10699044,,,,,,,,,,,,,,,,,,,,,,,,,,,,,,,,,,,,,,,,,,,0.582407464,-0.213888889,1,0,0,klimmen,klimmen,0,34,34,12,1,klimmen,images/br_klimmen.png,images/cb_klimmen.png
,,,,,,00018,2023-08-11_13h04.32.177,vbt_B2_day1,2022.2.4,Win32,60.10699044,,,,,,,,,,,,,,,,,,,,,,,,,,,,,,,,,,,,,,,,,,,0.582407464,-0.213888889,1,0,0,dictee,dictee,0,35,35,48,1,fictie,images/br_fictie.png,images/cb_fictie.png
,,,,,,00018,2023-08-11_13h04.32.177,vbt_B2_day1,2022.2.4,Win32,60.10699044,,,,,,,,,,,,,,,,,,,,,,,,,,,,,,,,,,,,,,,,,,,0.582407464,-0.213888889,1,0,0,steunen,steunen,0,36,36,35,1,stuikem,images/br_stuikem.png,images/cb_stuikem.png
,,,,,,00018,2023-08-11_13h04.32.177,vbt_B2_day1,2022.2.4,Win32,60.10699044,,,,,,,,,,,,,,,,,,,,,,,,,,,,,,,,,,,,,,,,,,,0.582407464,-0.213888889,1,0,0,fiert..,fiert..,0,37,37,15,1,hiervan,images/br_hiervan.png,images/cb_hiervan.png
,,,,,,00018,2023-08-11_13h04.32.177,vbt_B2_day1,2022.2.4,Win32,60.10699044,,,,,,,,,,,,,,,,,,,,,,,,,,,,,,,,,,,,,,,,,,,0.582407464,-0.213888889,1,0,0,daarheen,daarheen,0,38,38,16,1,daarheen,images/br_daarheen.png,images/cb_daarheen.png
,,,,,,00018,2023-08-11_13h04.32.177,vbt_B2_day1,2022.2.4,Win32,60.10699044,,,,,,,,,,,,,,,,,,,,,,,,,,,,,,,,,,,,,,,,,,,0.582407464,-0.213888889,1,0,0,bibra.,bibra.,0,39,39,28,1,bebrip,images/br_bebrip.png,images/cb_bebrip.png
,,,,,,00018,2023-08-11_13h04.32.177,vbt_B2_day1,2022.2.4,Win32,60.10699044,,,,,,,,,,,,,,,,,,,,,,,,,,,,,,,,,,,,,,,,,,,0.582407464,-0.213888889,1,0,0,voorr..r,voorr..r,0,40,40,39,1,voorreur,images/br_voorreur.png,images/cb_voorreur.png
,,,,,,00018,2023-08-11_13h04.32.177,vbt_B2_day1,2022.2.4,Win32,60.10699044,,,,,,,,,,,,,,,,,,,,,,,,,,,,,,,,,,,,,,,,,,,0.582407464,-0.213888889,1,0,0,steun,steun,0,41,41,31,1,stamen,images/br_stamen.png,images/cb_stamen.png
,,,,,,00018,2023-08-11_13h04.32.177,vbt_B2_day1,2022.2.4,Win32,60.10699044,,,,,,,,,,,,,,,,,,,,,,,,,,,,,,,,,,,,,,,,,,,0.582407464,-0.213888889,1,0,0,stuk,stuk,0,42,42,42,1,stuk,images/br_stuk.png,images/cb_stuk.png
,,,,,,00018,2023-08-11_13h04.32.177,vbt_B2_day1,2022.2.4,Win32,60.10699044,,,,,,,,,,,,,,,,,,,,,,,,,,,,,,,,,,,,,,,,,,,0.582407464,-0.213888889,1,0,0,dred,dred,0,43,43,21,1,dred,images/br_dred.png,images/cb_dred.png
,,,,,,00018,2023-08-11_13h04.32.177,vbt_B2_day1,2022.2.4,Win32,60.10699044,,,,,,,,,,,,,,,,,,,,,,,,,,,,,,,,,,,,,,,,,,,0.582407464,-0.213888889,1,0,0,hemel,hemel,0,44,44,45,1,hemel,images/br_hemel.png,images/cb_hemel.png
,,,,,,00018,2023-08-11_13h04.32.177,vbt_B2_day1,2022.2.4,Win32,60.10699044,,,,,,,,,,,,,,,,,,,,,,,,,,,,,,,,,,,,,,,,,,,0.582407464,-0.213888889,1,0,0,huniek,huniek,0,45,45,10,1,muziek,images/br_muziek.png,images/cb_muziek.png
,,,,,,00018,2023-08-11_13h04.32.177,vbt_B2_day1,2022.2.4,Win32,60.10699044,,,,,,,,,,,,,,,,,,,,,,,,,,,,,,,,,,,,,,,,,,,0.581481595,-0.214814843,1,0,0,sbak,sbak,0,46,46,0,1,slak,images/br_slak.png,images/cb_slak.png
,,,,,,00018,2023-08-11_13h04.32.177,vbt_B2_day1,2022.2.4,Win32,60.10699044,,,,,,,,,,,,,,,,,,,,,,,,,,,,,,,,,,,,,,,,,,,0.581481595,-0.214814843,1,0,0,attent.,attent.,0,47,47,17,1,attentie,images/br_attentie.png,images/cb_attentie.png
,,,,,,00018,2023-08-11_13h04.32.177,vbt_B2_day1,2022.2.4,Win32,60.10699044,,,,,,,,,,,,,,,,,,,,,,,,,,,,,,,,,,,,,,,,,,,0.581481595,-0.214814843,1,0,0,.rort,.rort,0,48,48,27,1,prort,images/br_prort.png,images/cb_prort.png
,,,,,,00018,2023-08-11_13h04.32.177,vbt_B2_day1,2022.2.4,Win32,60.10699044,,,,,,,,,,,,,,,,,,,,,,,,,,,,,,,,,,,,,,,,,,,0.581481595,-0.214814843,1,0,0,.aar..n,.aar..n,0,49,49,14,1,waarvan,images/br_waarvan.png,images/cb_waarvan.png
,,,,,,00018,2023-08-11_13h04.32.177,vbt_B2_day1,2022.2.4,Win32,60.10699044,,,,,,,,,,,,,,,,,,,,,,,,,,,,,,,,,,,,,,,,,,,0.581481595,-0.214814843,1,0,0,baahn,baahn,0,50,50,25,1,brijk,images/br_brijk.png,images/cb_brijk.png
,,,,,,00018,2023-08-11_13h04.32.177,vbt_B2_day1,2022.2.4,Win32,60.10699044,,,,,,,,,,,,,,,,,,,,,,,,,,,,,,,,,,,,,,,,,,,0.581481595,-0.214814843,1,0,0,...o.,...o.,0,51,51,26,1,valop,images/br_valop.png,images/cb_valop.png
,,,,,,00018,2023-08-11_13h04.32.177,vbt_B2_day1,2022.2.4,Win32,60.10699044,,,,,,,,,,,,,,,,,,,,,,,,,,,,,,,,,,,,,,,,,,,0.581481595,-0.214814843,1,0,0,t..i..,t..i..,0,52,52,13,1,twijfel,images/br_twijfel.png,images/cb_twijfel.png
,,,,,,00018,2023-08-11_13h04.32.177,vbt_B2_day1,2022.2.4,Win32,60.10699044,,,,,,,,,,,,,,,,,,,,,,,,,,,,,,,,,,,,,,,,,,,0.581481595,-0.214814843,1,0,0,dubbel,dubbel,0,53,53,9,1,dubbel,images/br_dubbel.png,images/cb_dubbel.png
,,,,,,00018,2023-08-11_13h04.32.177,vbt_B2_day1,2022.2.4,Win32,60.10699044,,,,,,,,,,,,,,,,,,,,,,,,,,,,,,,,,,,,,,,,,,,0.581481595,-0.214814843,1,0,0,.,.,0,54,54,19,1,schuilen,images/br_schuilen.png,images/cb_schuilen.png
,,,,,,00018,2023-08-11_13h04.32.177,vbt_B2_day1,2022.2.4,Win32,60.10699044,,,,,,,,,,,,,,,,,,,,,,,,,,,,,,,,,,,,,,,,,,,0.581481595,-0.214814843,1,0,0,bleek,bleek,0,55,55,6,1,bleek,images/br_bleek.png,images/cb_bleek.png
,,,,,,00018,2023-08-11_13h04.32.177,vbt_B2_day1,2022.2.4,Win32,60.10699044,,,,,,,,,,,,,,,,,,,,,,,,,,,,,,,,,,,,,,,,,,,0.581481595,-0.214814843,1,0,0,.lee..,.lee..,0,56,56,18,1,uitdelen,images/br_uitdelen.png,images/cb_uitdelen.png
,,,,,,00018,2023-08-11_13h04.32.177,vbt_B2_day1,2022.2.4,Win32,60.10699044,,,,,,,,,,,,,,,,,,,,,,,,,,,,,,,,,,,,,,,,,,,0.581481595,-0.214814843,1,0,0,liefde,liefde,0,57,57,51,1,liefde,images/br_liefde.png,images/cb_liefde.png
,,,,,,00018,2023-08-11_13h04.32.177,vbt_B2_day1,2022.2.4,Win32,60.10699044,,,,,,,,,,,,,,,,,,,,,,,,,,,,,,,,,,,,,,,,,,,0.581481595,-0.214814843,1,0,0,mening,mening,0,58,58,11,1,mening,images/br_mening.png,images/cb_mening.png
,,,,,,00018,2023-08-11_13h04.32.177,vbt_B2_day1,2022.2.4,Win32,60.10699044,,,,,,,,,,,,,,,,,,,,,,,,,,,,,,,,,,,,,,,,,,,0.581481595,-0.214814843,1,0,0,loods,loods,0,59,59,47,1,loods,images/br_loods.png,images/cb_loods.png
,,,,,,00018,2023-08-11_13h04.32.177,vbt_B2_day1,2022.2.4,Win32,60.10699044,,,,,,,,,,,,,,,,,,,,,,,,,,,,,,,,,,,,,,,,,,,,,,,,,,,,,,,,,
