welcome_mouse.x,welcome_mouse.y,welcome_mouse.leftButton,welcome_mouse.midButton,welcome_mouse.rightButton,welcome_mouse.time,"ID",date,expName,psychopyVersion,OS,frameRate,mouse_2.x,mouse_2.y,mouse_2.leftButton,mouse_2.midButton,mouse_2.rightButton,mouse_2.time,mouse_3.x,mouse_3.y,mouse_3.leftButton,mouse_3.midButton,mouse_3.rightButton,mouse_3.time,train_mouse.x,train_mouse.y,train_mouse.leftButton,train_mouse.midButton,train_mouse.rightButton,train_mouse.time,braille_mouse.x,braille_mouse.y,braille_mouse.leftButton,braille_mouse.midButton,braille_mouse.rightButton,braille_mouse.time,trials.thisRepN,trials.thisTrialN,trials.thisN,trials.thisIndex,trials.ran,nlLet,brLet,cbLet,mouse.x,mouse.y,mouse.leftButton,mouse.midButton,mouse.rightButton,testInstr_mouse.x,testInstr_mouse.y,testInstr_mouse.leftButton,testInstr_mouse.midButton,testInstr_mouse.rightButton,test_mouse.x,test_mouse.y,test_mouse.leftButton,test_mouse.midButton,test_mouse.rightButton,test_response.text,testResp,test_loop.thisRepN,test_loop.thisTrialN,test_loop.thisN,test_loop.thisIndex,test_loop.ran,nlWrd,brWrd,cbWrd
0.586111111,-0.060185199,1,0,0,26.4155,00094,2023-10-30_16h29.45.907,vbt_B2_day1,2022.2.4,Win32,60.69434329,,,,,,,,,,,,,,,,,,,,,,,,,,,,,,,,,,,,,,,,,,,,,,,,,,,,,,,,,
,,,,,,00094,2023-10-30_16h29.45.907,vbt_B2_day1,2022.2.4,Win32,60.69434329,0.153703732,-0.378703732,1,0,0,4.3139,,,,,,,,,,,,,,,,,,,,,,,,,,,,,,,,,,,,,,,,,,,,,,,,,,,
,,,,,,00094,2023-10-30_16h29.45.907,vbt_B2_day1,2022.2.4,Win32,60.69434329,,,,,,,0.591666667,0.115740712,1,0,0,18.3265,,,,,,,,,,,,,,,,,,,,,,,,,,,,,,,,,,,,,,,,,,,,,
,,,,,,00094,2023-10-30_16h29.45.907,vbt_B2_day1,2022.2.4,Win32,60.69434329,,,,,,,,,,,,,0.591666667,0.115740712,1,0,0,35.8688,,,,,,,,,,,,,,,,,,,,,,,,,,,,,,,,,,,,,,,
,,,,,,00094,2023-10-30_16h29.45.907,vbt_B2_day1,2022.2.4,Win32,60.69434329,,,,,,,,,,,,,,,,,,,0.25648151,0.180555556,1,0,0,12.8631,0,0,0,12,1,m,images/br_m.png,images/cb_m.png,,,,,,,,,,,,,,,,,,,,,,,,,
,,,,,,00094,2023-10-30_16h29.45.907,vbt_B2_day1,2022.2.4,Win32,60.69434329,,,,,,,,,,,,,,,,,,,0.25648151,0.180555556,1,0,0,7.6806,0,1,1,2,1,c,images/br_c.png,images/cb_c.png,,,,,,,,,,,,,,,,,,,,,,,,,
,,,,,,00094,2023-10-30_16h29.45.907,vbt_B2_day1,2022.2.4,Win32,60.69434329,,,,,,,,,,,,,,,,,,,0.25648151,0.180555556,1,0,0,16.111,0,2,2,6,1,g,images/br_g.png,images/cb_g.png,,,,,,,,,,,,,,,,,,,,,,,,,
,,,,,,00094,2023-10-30_16h29.45.907,vbt_B2_day1,2022.2.4,Win32,60.69434329,,,,,,,,,,,,,,,,,,,0.25648151,0.180555556,1,0,0,0.6996,0,3,3,11,1,l,images/br_l.png,images/cb_l.png,,,,,,,,,,,,,,,,,,,,,,,,,
,,,,,,00094,2023-10-30_16h29.45.907,vbt_B2_day1,2022.2.4,Win32,60.69434329,,,,,,,,,,,,,,,,,,,0.25648151,0.180555556,1,0,0,17.5441,0,4,4,9,1,j,images/br_j.png,images/cb_j.png,,,,,,,,,,,,,,,,,,,,,,,,,
,,,,,,00094,2023-10-30_16h29.45.907,vbt_B2_day1,2022.2.4,Win32,60.69434329,,,,,,,,,,,,,,,,,,,0.171296353,0.017592578,1,0,0,11.4791,0,5,5,14,1,o,images/br_o.png,images/cb_o.png,,,,,,,,,,,,,,,,,,,,,,,,,
,,,,,,00094,2023-10-30_16h29.45.907,vbt_B2_day1,2022.2.4,Win32,60.69434329,,,,,,,,,,,,,,,,,,,0.171296353,0.017592578,1,0,0,10.4802,0,6,6,10,1,k,images/br_k.png,images/cb_k.png,,,,,,,,,,,,,,,,,,,,,,,,,
,,,,,,00094,2023-10-30_16h29.45.907,vbt_B2_day1,2022.2.4,Win32,60.69434329,,,,,,,,,,,,,,,,,,,0.125925954,0.112037023,1,0,0,11.9126,0,7,7,24,1,y,images/br_y.png,images/cb_y.png,,,,,,,,,,,,,,,,,,,,,,,,,
,,,,,,00094,2023-10-30_16h29.45.907,vbt_B2_day1,2022.2.4,Win32,60.69434329,,,,,,,,,,,,,,,,,,,0.25,-0.050925954,1,0,0,34.0717,0,8,8,22,1,w,images/br_w.png,images/cb_w.png,,,,,,,,,,,,,,,,,,,,,,,,,
,,,,,,00094,2023-10-30_16h29.45.907,vbt_B2_day1,2022.2.4,Win32,60.69434329,,,,,,,,,,,,,,,,,,,0.125925954,0.046296268,1,0,0,13.5454,0,9,9,1,1,b,images/br_b.png,images/cb_b.png,,,,,,,,,,,,,,,,,,,,,,,,,
,,,,,,00094,2023-10-30_16h29.45.907,vbt_B2_day1,2022.2.4,Win32,60.69434329,,,,,,,,,,,,,,,,,,,0.187037065,-0.104629644,1,0,0,8.0469,0,10,10,23,1,x,images/br_x.png,images/cb_x.png,,,,,,,,,,,,,,,,,,,,,,,,,
,,,,,,00094,2023-10-30_16h29.45.907,vbt_B2_day1,2022.2.4,Win32,60.69434329,,,,,,,,,,,,,,,,,,,0.211111111,-0.052777778,1,0,0,14.9465,0,11,11,3,1,d,images/br_d.png,images/cb_d.png,,,,,,,,,,,,,,,,,,,,,,,,,
,,,,,,00094,2023-10-30_16h29.45.907,vbt_B2_day1,2022.2.4,Win32,60.69434329,,,,,,,,,,,,,,,,,,,0.250925954,-0.080555556,1,0,0,13.8283,0,12,12,15,1,p,images/br_p.png,images/cb_p.png,,,,,,,,,,,,,,,,,,,,,,,,,
,,,,,,00094,2023-10-30_16h29.45.907,vbt_B2_day1,2022.2.4,Win32,60.69434329,,,,,,,,,,,,,,,,,,,0.224074131,-0.044444444,1,0,0,2.9487,0,13,13,17,1,r,images/br_r.png,images/cb_r.png,,,,,,,,,,,,,,,,,,,,,,,,,
,,,,,,00094,2023-10-30_16h29.45.907,vbt_B2_day1,2022.2.4,Win32,60.69434329,,,,,,,,,,,,,,,,,,,0.154629686,-0.011111111,1,0,0,14.2119,0,14,14,18,1,s,images/br_s.png,images/cb_s.png,,,,,,,,,,,,,,,,,,,,,,,,,
,,,,,,00094,2023-10-30_16h29.45.907,vbt_B2_day1,2022.2.4,Win32,60.69434329,,,,,,,,,,,,,,,,,,,0.229629686,-0.045370399,1,0,0,13.0614,0,15,15,0,1,a,images/br_a.png,images/cb_a.png,,,,,,,,,,,,,,,,,,,,,,,,,
,,,,,,00094,2023-10-30_16h29.45.907,vbt_B2_day1,2022.2.4,Win32,60.69434329,,,,,,,,,,,,,,,,,,,0.33148151,-0.058333333,1,0,0,11.0119,0,16,16,4,1,e,images/br_e.png,images/cb_e.png,,,,,,,,,,,,,,,,,,,,,,,,,
,,,,,,00094,2023-10-30_16h29.45.907,vbt_B2_day1,2022.2.4,Win32,60.69434329,,,,,,,,,,,,,,,,,,,0.324074131,-0.126851866,1,0,0,36.3883,0,17,17,19,1,t,images/br_t.png,images/cb_t.png,,,,,,,,,,,,,,,,,,,,,,,,,
,,,,,,00094,2023-10-30_16h29.45.907,vbt_B2_day1,2022.2.4,Win32,60.69434329,,,,,,,,,,,,,,,,,,,0.104629686,-0.037037065,1,0,0,37.4216,0,18,18,7,1,h,images/br_h.png,images/cb_h.png,,,,,,,,,,,,,,,,,,,,,,,,,
,,,,,,00094,2023-10-30_16h29.45.907,vbt_B2_day1,2022.2.4,Win32,60.69434329,,,,,,,,,,,,,,,,,,,0.198148176,-0.012037065,1,0,0,17.7282,0,19,19,5,1,f,images/br_f.png,images/cb_f.png,,,,,,,,,,,,,,,,,,,,,,,,,
,,,,,,00094,2023-10-30_16h29.45.907,vbt_B2_day1,2022.2.4,Win32,60.69434329,,,,,,,,,,,,,,,,,,,0.112963019,-0.040740755,1,0,0,13.9441,0,20,20,20,1,u,images/br_u.png,images/cb_u.png,,,,,,,,,,,,,,,,,,,,,,,,,
,,,,,,00094,2023-10-30_16h29.45.907,vbt_B2_day1,2022.2.4,Win32,60.69434329,,,,,,,,,,,,,,,,,,,0.202777778,-0.079629644,1,0,0,13.8934,0,21,21,8,1,i,images/br_i.png,images/cb_i.png,,,,,,,,,,,,,,,,,,,,,,,,,
,,,,,,00094,2023-10-30_16h29.45.907,vbt_B2_day1,2022.2.4,Win32,60.69434329,,,,,,,,,,,,,,,,,,,0.215740797,-0.063888889,1,0,0,12.2788,0,22,22,25,1,z,images/br_z.png,images/cb_z.png,,,,,,,,,,,,,,,,,,,,,,,,,
,,,,,,00094,2023-10-30_16h29.45.907,vbt_B2_day1,2022.2.4,Win32,60.69434329,,,,,,,,,,,,,,,,,,,0.115740797,-0.02129631,1,0,0,18.7941,0,23,23,21,1,v,images/br_v.png,images/cb_v.png,,,,,,,,,,,,,,,,,,,,,,,,,
,,,,,,00094,2023-10-30_16h29.45.907,vbt_B2_day1,2022.2.4,Win32,60.69434329,,,,,,,,,,,,,,,,,,,0.271296353,-0.097222222,1,0,0,26.16,0,24,24,13,1,n,images/br_n.png,images/cb_n.png,,,,,,,,,,,,,,,,,,,,,,,,,
,,,,,,00094,2023-10-30_16h29.45.907,vbt_B2_day1,2022.2.4,Win32,60.69434329,,,,,,,,,,,,,,,,,,,0.259259288,-0.072222222,1,0,0,16.9775,0,25,25,16,1,q,images/br_q.png,images/cb_q.png,,,,,,,,,,,,,,,,,,,,,,,,,
,,,,,,00094,2023-10-30_16h29.45.907,vbt_B2_day1,2022.2.4,Win32,60.69434329,,,,,,,,,,,,,,,,,,,0.139814843,-0.073148176,1,0,0,5.1484,1,0,26,14,1,o,images/br_o.png,images/cb_o.png,,,,,,,,,,,,,,,,,,,,,,,,,
,,,,,,00094,2023-10-30_16h29.45.907,vbt_B2_day1,2022.2.4,Win32,60.69434329,,,,,,,,,,,,,,,,,,,0.146296353,-0.024074088,1,0,0,2.6825,1,1,27,20,1,u,images/br_u.png,images/cb_u.png,,,,,,,,,,,,,,,,,,,,,,,,,
,,,,,,00094,2023-10-30_16h29.45.907,vbt_B2_day1,2022.2.4,Win32,60.69434329,,,,,,,,,,,,,,,,,,,0.278703732,-0.032407422,1,0,0,8.7813,1,2,28,12,1,m,images/br_m.png,images/cb_m.png,,,,,,,,,,,,,,,,,,,,,,,,,
,,,,,,00094,2023-10-30_16h29.45.907,vbt_B2_day1,2022.2.4,Win32,60.69434329,,,,,,,,,,,,,,,,,,,0.114814843,-0.027777778,1,0,0,36.0558,1,3,29,24,1,y,images/br_y.png,images/cb_y.png,,,,,,,,,,,,,,,,,,,,,,,,,
,,,,,,00094,2023-10-30_16h29.45.907,vbt_B2_day1,2022.2.4,Win32,60.69434329,,,,,,,,,,,,,,,,,,,0.203703732,-0.012962977,1,0,0,21.1763,1,4,30,22,1,w,images/br_w.png,images/cb_w.png,,,,,,,,,,,,,,,,,,,,,,,,,
,,,,,,00094,2023-10-30_16h29.45.907,vbt_B2_day1,2022.2.4,Win32,60.69434329,,,,,,,,,,,,,,,,,,,0.151851908,0.027777778,1,0,0,20.7092,1,5,31,15,1,p,images/br_p.png,images/cb_p.png,,,,,,,,,,,,,,,,,,,,,,,,,
,,,,,,00094,2023-10-30_16h29.45.907,vbt_B2_day1,2022.2.4,Win32,60.69434329,,,,,,,,,,,,,,,,,,,0.088888889,-0.026851866,1,0,0,29.0911,1,6,32,9,1,j,images/br_j.png,images/cb_j.png,,,,,,,,,,,,,,,,,,,,,,,,,
,,,,,,00094,2023-10-30_16h29.45.907,vbt_B2_day1,2022.2.4,Win32,60.69434329,,,,,,,,,,,,,,,,,,,0.150925954,0.00370369,1,0,0,1.9485,1,7,33,8,1,i,images/br_i.png,images/cb_i.png,,,,,,,,,,,,,,,,,,,,,,,,,
,,,,,,00094,2023-10-30_16h29.45.907,vbt_B2_day1,2022.2.4,Win32,60.69434329,,,,,,,,,,,,,,,,,,,0.143518575,0.056481467,1,0,0,1.6995,1,8,34,25,1,z,images/br_z.png,images/cb_z.png,,,,,,,,,,,,,,,,,,,,,,,,,
,,,,,,00094,2023-10-30_16h29.45.907,vbt_B2_day1,2022.2.4,Win32,60.69434329,,,,,,,,,,,,,,,,,,,0.175925954,0.013888889,1,0,0,2.6641,1,9,35,23,1,x,images/br_x.png,images/cb_x.png,,,,,,,,,,,,,,,,,,,,,,,,,
,,,,,,00094,2023-10-30_16h29.45.907,vbt_B2_day1,2022.2.4,Win32,60.69434329,,,,,,,,,,,,,,,,,,,0.126851908,-0.033333333,1,0,0,12.3792,1,10,36,16,1,q,images/br_q.png,images/cb_q.png,,,,,,,,,,,,,,,,,,,,,,,,,
,,,,,,00094,2023-10-30_16h29.45.907,vbt_B2_day1,2022.2.4,Win32,60.69434329,,,,,,,,,,,,,,,,,,,0.119444444,0.010185157,1,0,0,1.25,1,11,37,13,1,n,images/br_n.png,images/cb_n.png,,,,,,,,,,,,,,,,,,,,,,,,,
,,,,,,00094,2023-10-30_16h29.45.907,vbt_B2_day1,2022.2.4,Win32,60.69434329,,,,,,,,,,,,,,,,,,,0.10648151,0.030555556,1,0,0,0.9665,1,12,38,11,1,l,images/br_l.png,images/cb_l.png,,,,,,,,,,,,,,,,,,,,,,,,,
,,,,,,00094,2023-10-30_16h29.45.907,vbt_B2_day1,2022.2.4,Win32,60.69434329,,,,,,,,,,,,,,,,,,,0.140740797,-0.007407422,1,0,0,3.1682,1,13,39,1,1,b,images/br_b.png,images/cb_b.png,,,,,,,,,,,,,,,,,,,,,,,,,
,,,,,,00094,2023-10-30_16h29.45.907,vbt_B2_day1,2022.2.4,Win32,60.69434329,,,,,,,,,,,,,,,,,,,0.176851908,-0.058333333,1,0,0,16.5442,1,14,40,21,1,v,images/br_v.png,images/cb_v.png,,,,,,,,,,,,,,,,,,,,,,,,,
,,,,,,00094,2023-10-30_16h29.45.907,vbt_B2_day1,2022.2.4,Win32,60.69434329,,,,,,,,,,,,,,,,,,,0.119444444,-0.055555556,1,0,0,0.0991,1,15,41,6,1,g,images/br_g.png,images/cb_g.png,,,,,,,,,,,,,,,,,,,,,,,,,
,,,,,,00094,2023-10-30_16h29.45.907,vbt_B2_day1,2022.2.4,Win32,60.69434329,,,,,,,,,,,,,,,,,,,0.183333333,-0.091666667,1,0,0,10.5964,1,16,42,19,1,t,images/br_t.png,images/cb_t.png,,,,,,,,,,,,,,,,,,,,,,,,,
,,,,,,00094,2023-10-30_16h29.45.907,vbt_B2_day1,2022.2.4,Win32,60.69434329,,,,,,,,,,,,,,,,,,,0.130555556,-0.044444444,1,0,0,1.8828,1,17,43,17,1,r,images/br_r.png,images/cb_r.png,,,,,,,,,,,,,,,,,,,,,,,,,
,,,,,,00094,2023-10-30_16h29.45.907,vbt_B2_day1,2022.2.4,Win32,60.69434329,,,,,,,,,,,,,,,,,,,0.130555556,-0.044444444,1,0,0,0.1327,1,18,44,2,1,c,images/br_c.png,images/cb_c.png,,,,,,,,,,,,,,,,,,,,,,,,,
,,,,,,00094,2023-10-30_16h29.45.907,vbt_B2_day1,2022.2.4,Win32,60.69434329,,,,,,,,,,,,,,,,,,,0.199074131,-0.055555556,1,0,0,2.2971,1,19,45,4,1,e,images/br_e.png,images/cb_e.png,,,,,,,,,,,,,,,,,,,,,,,,,
,,,,,,00094,2023-10-30_16h29.45.907,vbt_B2_day1,2022.2.4,Win32,60.69434329,,,,,,,,,,,,,,,,,,,0.197222222,-0.054629644,1,0,0,0.9989,1,20,46,18,1,s,images/br_s.png,images/cb_s.png,,,,,,,,,,,,,,,,,,,,,,,,,
,,,,,,00094,2023-10-30_16h29.45.907,vbt_B2_day1,2022.2.4,Win32,60.69434329,,,,,,,,,,,,,,,,,,,0.144444444,-0.036111111,1,0,0,1.5166,1,21,47,7,1,h,images/br_h.png,images/cb_h.png,,,,,,,,,,,,,,,,,,,,,,,,,
,,,,,,00094,2023-10-30_16h29.45.907,vbt_B2_day1,2022.2.4,Win32,60.69434329,,,,,,,,,,,,,,,,,,,0.121296353,-0.010185199,1,0,0,2.1654,1,22,48,0,1,a,images/br_a.png,images/cb_a.png,,,,,,,,,,,,,,,,,,,,,,,,,
,,,,,,00094,2023-10-30_16h29.45.907,vbt_B2_day1,2022.2.4,Win32,60.69434329,,,,,,,,,,,,,,,,,,,0.2,-0.035185199,1,0,0,18.9773,1,23,49,5,1,f,images/br_f.png,images/cb_f.png,,,,,,,,,,,,,,,,,,,,,,,,,
,,,,,,00094,2023-10-30_16h29.45.907,vbt_B2_day1,2022.2.4,Win32,60.69434329,,,,,,,,,,,,,,,,,,,0.202777778,-0.034259288,1,0,0,16.0969,1,24,50,3,1,d,images/br_d.png,images/cb_d.png,,,,,,,,,,,,,,,,,,,,,,,,,
,,,,,,00094,2023-10-30_16h29.45.907,vbt_B2_day1,2022.2.4,Win32,60.69434329,,,,,,,,,,,,,,,,,,,0.190740797,-0.037037065,1,0,0,1.1518,1,25,51,10,1,k,images/br_k.png,images/cb_k.png,,,,,,,,,,,,,,,,,,,,,,,,,
,,,,,,00094,2023-10-30_16h29.45.907,vbt_B2_day1,2022.2.4,Win32,60.69434329,,,,,,,,,,,,,,,,,,,0.139814843,-0.012962977,1,0,0,3.9321,2,0,52,19,1,t,images/br_t.png,images/cb_t.png,,,,,,,,,,,,,,,,,,,,,,,,,
,,,,,,00094,2023-10-30_16h29.45.907,vbt_B2_day1,2022.2.4,Win32,60.69434329,,,,,,,,,,,,,,,,,,,0.139814843,-0.012962977,1,0,0,0.017,2,1,53,10,1,k,images/br_k.png,images/cb_k.png,,,,,,,,,,,,,,,,,,,,,,,,,
,,,,,,00094,2023-10-30_16h29.45.907,vbt_B2_day1,2022.2.4,Win32,60.69434329,,,,,,,,,,,,,,,,,,,0.139814843,-0.012962977,1,0,0,2.8658,2,2,54,12,1,m,images/br_m.png,images/cb_m.png,,,,,,,,,,,,,,,,,,,,,,,,,
,,,,,,00094,2023-10-30_16h29.45.907,vbt_B2_day1,2022.2.4,Win32,60.69434329,,,,,,,,,,,,,,,,,,,0.155555556,-0.013888889,1,0,0,1.1351,2,3,55,11,1,l,images/br_l.png,images/cb_l.png,,,,,,,,,,,,,,,,,,,,,,,,,
,,,,,,00094,2023-10-30_16h29.45.907,vbt_B2_day1,2022.2.4,Win32,60.69434329,,,,,,,,,,,,,,,,,,,0.143518575,-0.019444444,1,0,0,1.2495,2,4,56,22,1,w,images/br_w.png,images/cb_w.png,,,,,,,,,,,,,,,,,,,,,,,,,
,,,,,,00094,2023-10-30_16h29.45.907,vbt_B2_day1,2022.2.4,Win32,60.69434329,,,,,,,,,,,,,,,,,,,0.225,-0.020370399,1,0,0,0.1681,2,5,57,18,1,s,images/br_s.png,images/cb_s.png,,,,,,,,,,,,,,,,,,,,,,,,,
,,,,,,00094,2023-10-30_16h29.45.907,vbt_B2_day1,2022.2.4,Win32,60.69434329,,,,,,,,,,,,,,,,,,,0.138888889,-0.012962977,1,0,0,1.2505,2,6,58,3,1,d,images/br_d.png,images/cb_d.png,,,,,,,,,,,,,,,,,,,,,,,,,
,,,,,,00094,2023-10-30_16h29.45.907,vbt_B2_day1,2022.2.4,Win32,60.69434329,,,,,,,,,,,,,,,,,,,0.141666667,-0.04629631,1,0,0,10.6302,2,7,59,25,1,z,images/br_z.png,images/cb_z.png,,,,,,,,,,,,,,,,,,,,,,,,,
,,,,,,00094,2023-10-30_16h29.45.907,vbt_B2_day1,2022.2.4,Win32,60.69434329,,,,,,,,,,,,,,,,,,,0.141666667,-0.04629631,1,0,0,0.6001,2,8,60,20,1,u,images/br_u.png,images/cb_u.png,,,,,,,,,,,,,,,,,,,,,,,,,
,,,,,,00094,2023-10-30_16h29.45.907,vbt_B2_day1,2022.2.4,Win32,60.69434329,,,,,,,,,,,,,,,,,,,0.166666667,-0.061111111,1,0,0,1.5663,2,9,61,0,1,a,images/br_a.png,images/cb_a.png,,,,,,,,,,,,,,,,,,,,,,,,,
,,,,,,00094,2023-10-30_16h29.45.907,vbt_B2_day1,2022.2.4,Win32,60.69434329,,,,,,,,,,,,,,,,,,,0.209259288,-0.037037065,1,0,0,15.9108,2,10,62,9,1,j,images/br_j.png,images/cb_j.png,,,,,,,,,,,,,,,,,,,,,,,,,
,,,,,,00094,2023-10-30_16h29.45.907,vbt_B2_day1,2022.2.4,Win32,60.69434329,,,,,,,,,,,,,,,,,,,0.245370399,-0.03148151,1,0,0,0.6995,2,11,63,16,1,q,images/br_q.png,images/cb_q.png,,,,,,,,,,,,,,,,,,,,,,,,,
,,,,,,00094,2023-10-30_16h29.45.907,vbt_B2_day1,2022.2.4,Win32,60.69434329,,,,,,,,,,,,,,,,,,,0.163888889,-0.008333333,1,0,0,4.5989,2,12,64,5,1,f,images/br_f.png,images/cb_f.png,,,,,,,,,,,,,,,,,,,,,,,,,
,,,,,,00094,2023-10-30_16h29.45.907,vbt_B2_day1,2022.2.4,Win32,60.69434329,,,,,,,,,,,,,,,,,,,0.184259288,-0.037037065,1,0,0,0.0643,2,13,65,4,1,e,images/br_e.png,images/cb_e.png,,,,,,,,,,,,,,,,,,,,,,,,,
,,,,,,00094,2023-10-30_16h29.45.907,vbt_B2_day1,2022.2.4,Win32,60.69434329,,,,,,,,,,,,,,,,,,,0.146296353,-0.001851866,1,0,0,0.4489,2,14,66,14,1,o,images/br_o.png,images/cb_o.png,,,,,,,,,,,,,,,,,,,,,,,,,
,,,,,,00094,2023-10-30_16h29.45.907,vbt_B2_day1,2022.2.4,Win32,60.69434329,,,,,,,,,,,,,,,,,,,0.100925954,0.033333333,1,0,0,0.0647,2,15,67,2,1,c,images/br_c.png,images/cb_c.png,,,,,,,,,,,,,,,,,,,,,,,,,
,,,,,,00094,2023-10-30_16h29.45.907,vbt_B2_day1,2022.2.4,Win32,60.69434329,,,,,,,,,,,,,,,,,,,0.25,-0.010185199,1,0,0,7.7474,2,16,68,17,1,r,images/br_r.png,images/cb_r.png,,,,,,,,,,,,,,,,,,,,,,,,,
,,,,,,00094,2023-10-30_16h29.45.907,vbt_B2_day1,2022.2.4,Win32,60.69434329,,,,,,,,,,,,,,,,,,,0.162037065,-0.000925954,1,0,0,6.2479,2,17,69,6,1,g,images/br_g.png,images/cb_g.png,,,,,,,,,,,,,,,,,,,,,,,,,
,,,,,,00094,2023-10-30_16h29.45.907,vbt_B2_day1,2022.2.4,Win32,60.69434329,,,,,,,,,,,,,,,,,,,0.162037065,-0.000925954,1,0,0,1.5843,2,18,70,1,1,b,images/br_b.png,images/cb_b.png,,,,,,,,,,,,,,,,,,,,,,,,,
,,,,,,00094,2023-10-30_16h29.45.907,vbt_B2_day1,2022.2.4,Win32,60.69434329,,,,,,,,,,,,,,,,,,,0.162037065,-0.000925954,1,0,0,1.5159,2,19,71,21,1,v,images/br_v.png,images/cb_v.png,,,,,,,,,,,,,,,,,,,,,,,,,
,,,,,,00094,2023-10-30_16h29.45.907,vbt_B2_day1,2022.2.4,Win32,60.69434329,,,,,,,,,,,,,,,,,,,0.162037065,-0.000925954,1,0,0,0.0998,2,20,72,8,1,i,images/br_i.png,images/cb_i.png,,,,,,,,,,,,,,,,,,,,,,,,,
,,,,,,00094,2023-10-30_16h29.45.907,vbt_B2_day1,2022.2.4,Win32,60.69434329,,,,,,,,,,,,,,,,,,,0.459259288,-0.499074131,1,0,0,25.7746,2,21,73,7,1,h,images/br_h.png,images/cb_h.png,,,,,,,,,,,,,,,,,,,,,,,,,
,,,,,,00094,2023-10-30_16h29.45.907,vbt_B2_day1,2022.2.4,Win32,60.69434329,,,,,,,,,,,,,,,,,,,0.303703732,-0.088888889,1,0,0,6.9983,2,22,74,24,1,y,images/br_y.png,images/cb_y.png,,,,,,,,,,,,,,,,,,,,,,,,,
,,,,,,00094,2023-10-30_16h29.45.907,vbt_B2_day1,2022.2.4,Win32,60.69434329,,,,,,,,,,,,,,,,,,,0.251851908,-0.037962977,1,0,0,3.9983,2,23,75,15,1,p,images/br_p.png,images/cb_p.png,,,,,,,,,,,,,,,,,,,,,,,,,
,,,,,,00094,2023-10-30_16h29.45.907,vbt_B2_day1,2022.2.4,Win32,60.69434329,,,,,,,,,,,,,,,,,,,0.251851908,-0.037962977,1,0,0,0.2999,2,24,76,13,1,n,images/br_n.png,images/cb_n.png,,,,,,,,,,,,,,,,,,,,,,,,,
,,,,,,00094,2023-10-30_16h29.45.907,vbt_B2_day1,2022.2.4,Win32,60.69434329,,,,,,,,,,,,,,,,,,,0.244444444,-0.043518533,1,0,0,0.8664,2,25,77,23,1,x,images/br_x.png,images/cb_x.png,,,,,,,,,,,,,,,,,,,,,,,,,
,,,,,,00094,2023-10-30_16h29.45.907,vbt_B2_day1,2022.2.4,Win32,60.69434329,,,,,,,,,,,,,,,,,,,0.145370399,-0.045370399,1,0,0,0.2494,3,0,78,19,1,t,images/br_t.png,images/cb_t.png,,,,,,,,,,,,,,,,,,,,,,,,,
,,,,,,00094,2023-10-30_16h29.45.907,vbt_B2_day1,2022.2.4,Win32,60.69434329,,,,,,,,,,,,,,,,,,,0.152777778,-0.039814843,1,0,0,2.7658,3,1,79,1,1,b,images/br_b.png,images/cb_b.png,,,,,,,,,,,,,,,,,,,,,,,,,
,,,,,,00094,2023-10-30_16h29.45.907,vbt_B2_day1,2022.2.4,Win32,60.69434329,,,,,,,,,,,,,,,,,,,0.152777778,-0.039814843,1,0,0,0.6165,3,2,80,21,1,v,images/br_v.png,images/cb_v.png,,,,,,,,,,,,,,,,,,,,,,,,,
,,,,,,00094,2023-10-30_16h29.45.907,vbt_B2_day1,2022.2.4,Win32,60.69434329,,,,,,,,,,,,,,,,,,,0.158333333,-0.05648151,1,0,0,0.8331,3,3,81,8,1,i,images/br_i.png,images/cb_i.png,,,,,,,,,,,,,,,,,,,,,,,,,
,,,,,,00094,2023-10-30_16h29.45.907,vbt_B2_day1,2022.2.4,Win32,60.69434329,,,,,,,,,,,,,,,,,,,0.158333333,-0.05648151,1,0,0,0.2477,3,4,82,18,1,s,images/br_s.png,images/cb_s.png,,,,,,,,,,,,,,,,,,,,,,,,,
,,,,,,00094,2023-10-30_16h29.45.907,vbt_B2_day1,2022.2.4,Win32,60.69434329,,,,,,,,,,,,,,,,,,,0.140740797,-0.026851866,1,0,0,1.982,3,5,83,5,1,f,images/br_f.png,images/cb_f.png,,,,,,,,,,,,,,,,,,,,,,,,,
,,,,,,00094,2023-10-30_16h29.45.907,vbt_B2_day1,2022.2.4,Win32,60.69434329,,,,,,,,,,,,,,,,,,,0.165740797,-0.073148176,1,0,0,0.5003,3,6,84,10,1,k,images/br_k.png,images/cb_k.png,,,,,,,,,,,,,,,,,,,,,,,,,
,,,,,,00094,2023-10-30_16h29.45.907,vbt_B2_day1,2022.2.4,Win32,60.69434329,,,,,,,,,,,,,,,,,,,0.125,-0.013888889,1,0,0,0.4331,3,7,85,23,1,x,images/br_x.png,images/cb_x.png,,,,,,,,,,,,,,,,,,,,,,,,,
,,,,,,00094,2023-10-30_16h29.45.907,vbt_B2_day1,2022.2.4,Win32,60.69434329,,,,,,,,,,,,,,,,,,,0.100925954,-0.055555556,1,0,0,4.0322,3,8,86,25,1,z,images/br_z.png,images/cb_z.png,,,,,,,,,,,,,,,,,,,,,,,,,
,,,,,,00094,2023-10-30_16h29.45.907,vbt_B2_day1,2022.2.4,Win32,60.69434329,,,,,,,,,,,,,,,,,,,0.15648151,-0.068518533,1,0,0,2.0143,3,9,87,9,1,j,images/br_j.png,images/cb_j.png,,,,,,,,,,,,,,,,,,,,,,,,,
,,,,,,00094,2023-10-30_16h29.45.907,vbt_B2_day1,2022.2.4,Win32,60.69434329,,,,,,,,,,,,,,,,,,,0.155555556,-0.058333333,1,0,0,0.8669,3,10,88,24,1,y,images/br_y.png,images/cb_y.png,,,,,,,,,,,,,,,,,,,,,,,,,
,,,,,,00094,2023-10-30_16h29.45.907,vbt_B2_day1,2022.2.4,Win32,60.69434329,,,,,,,,,,,,,,,,,,,0.125,0.006481467,1,0,0,5.2505,3,11,89,3,1,d,images/br_d.png,images/cb_d.png,,,,,,,,,,,,,,,,,,,,,,,,,
,,,,,,00094,2023-10-30_16h29.45.907,vbt_B2_day1,2022.2.4,Win32,60.69434329,,,,,,,,,,,,,,,,,,,0.117592621,0.026851824,1,0,0,0.8498,3,12,90,2,1,c,images/br_c.png,images/cb_c.png,,,,,,,,,,,,,,,,,,,,,,,,,
,,,,,,00094,2023-10-30_16h29.45.907,vbt_B2_day1,2022.2.4,Win32,60.69434329,,,,,,,,,,,,,,,,,,,0.117592621,0.026851824,1,0,0,5.3631,3,13,91,20,1,u,images/br_u.png,images/cb_u.png,,,,,,,,,,,,,,,,,,,,,,,,,
,,,,,,00094,2023-10-30_16h29.45.907,vbt_B2_day1,2022.2.4,Win32,60.69434329,,,,,,,,,,,,,,,,,,,0.128703732,-0.050925954,1,0,0,1.1821,3,14,92,13,1,n,images/br_n.png,images/cb_n.png,,,,,,,,,,,,,,,,,,,,,,,,,
,,,,,,00094,2023-10-30_16h29.45.907,vbt_B2_day1,2022.2.4,Win32,60.69434329,,,,,,,,,,,,,,,,,,,0.128703732,-0.050925954,1,0,0,1.1322,3,15,93,6,1,g,images/br_g.png,images/cb_g.png,,,,,,,,,,,,,,,,,,,,,,,,,
,,,,,,00094,2023-10-30_16h29.45.907,vbt_B2_day1,2022.2.4,Win32,60.69434329,,,,,,,,,,,,,,,,,,,0.128703732,-0.050925954,1,0,0,0.0332,3,16,94,17,1,r,images/br_r.png,images/cb_r.png,,,,,,,,,,,,,,,,,,,,,,,,,
,,,,,,00094,2023-10-30_16h29.45.907,vbt_B2_day1,2022.2.4,Win32,60.69434329,,,,,,,,,,,,,,,,,,,0.128703732,-0.050925954,1,0,0,2.4321,3,17,95,4,1,e,images/br_e.png,images/cb_e.png,,,,,,,,,,,,,,,,,,,,,,,,,
,,,,,,00094,2023-10-30_16h29.45.907,vbt_B2_day1,2022.2.4,Win32,60.69434329,,,,,,,,,,,,,,,,,,,0.128703732,-0.050925954,1,0,0,0.7496,3,18,96,22,1,w,images/br_w.png,images/cb_w.png,,,,,,,,,,,,,,,,,,,,,,,,,
,,,,,,00094,2023-10-30_16h29.45.907,vbt_B2_day1,2022.2.4,Win32,60.69434329,,,,,,,,,,,,,,,,,,,0.128703732,-0.050925954,1,0,0,1.8496,3,19,97,15,1,p,images/br_p.png,images/cb_p.png,,,,,,,,,,,,,,,,,,,,,,,,,
,,,,,,00094,2023-10-30_16h29.45.907,vbt_B2_day1,2022.2.4,Win32,60.69434329,,,,,,,,,,,,,,,,,,,0.128703732,-0.050925954,1,0,0,2.6964,3,20,98,11,1,l,images/br_l.png,images/cb_l.png,,,,,,,,,,,,,,,,,,,,,,,,,
,,,,,,00094,2023-10-30_16h29.45.907,vbt_B2_day1,2022.2.4,Win32,60.69434329,,,,,,,,,,,,,,,,,,,0.128703732,-0.050925954,1,0,0,0.9988,3,21,99,7,1,h,images/br_h.png,images/cb_h.png,,,,,,,,,,,,,,,,,,,,,,,,,
,,,,,,00094,2023-10-30_16h29.45.907,vbt_B2_day1,2022.2.4,Win32,60.69434329,,,,,,,,,,,,,,,,,,,0.128703732,-0.050925954,1,0,0,0.7502,3,22,100,12,1,m,images/br_m.png,images/cb_m.png,,,,,,,,,,,,,,,,,,,,,,,,,
,,,,,,00094,2023-10-30_16h29.45.907,vbt_B2_day1,2022.2.4,Win32,60.69434329,,,,,,,,,,,,,,,,,,,0.128703732,-0.050925954,1,0,0,1.4656,3,23,101,14,1,o,images/br_o.png,images/cb_o.png,,,,,,,,,,,,,,,,,,,,,,,,,
,,,,,,00094,2023-10-30_16h29.45.907,vbt_B2_day1,2022.2.4,Win32,60.69434329,,,,,,,,,,,,,,,,,,,0.128703732,-0.050925954,1,0,0,4.0651,3,24,102,0,1,a,images/br_a.png,images/cb_a.png,,,,,,,,,,,,,,,,,,,,,,,,,
,,,,,,00094,2023-10-30_16h29.45.907,vbt_B2_day1,2022.2.4,Win32,60.69434329,,,,,,,,,,,,,,,,,,,0.128703732,-0.050925954,1,0,0,1.6154,3,25,103,16,1,q,images/br_q.png,images/cb_q.png,,,,,,,,,,,,,,,,,,,,,,,,,
,,,,,,00094,2023-10-30_16h29.45.907,vbt_B2_day1,2022.2.4,Win32,60.69434329,,,,,,,,,,,,,,,,,,,0.128703732,-0.050925954,1,0,0,1.6823,4,0,104,23,1,x,images/br_x.png,images/cb_x.png,,,,,,,,,,,,,,,,,,,,,,,,,
,,,,,,00094,2023-10-30_16h29.45.907,vbt_B2_day1,2022.2.4,Win32,60.69434329,,,,,,,,,,,,,,,,,,,0.128703732,-0.050925954,1,0,0,0.8993,4,1,105,22,1,w,images/br_w.png,images/cb_w.png,,,,,,,,,,,,,,,,,,,,,,,,,
,,,,,,00094,2023-10-30_16h29.45.907,vbt_B2_day1,2022.2.4,Win32,60.69434329,,,,,,,,,,,,,,,,,,,0.128703732,-0.050925954,1,0,0,1.2828,4,2,106,16,1,q,images/br_q.png,images/cb_q.png,,,,,,,,,,,,,,,,,,,,,,,,,
,,,,,,00094,2023-10-30_16h29.45.907,vbt_B2_day1,2022.2.4,Win32,60.69434329,,,,,,,,,,,,,,,,,,,0.128703732,-0.050925954,1,0,0,0.7998,4,3,107,13,1,n,images/br_n.png,images/cb_n.png,,,,,,,,,,,,,,,,,,,,,,,,,
,,,,,,00094,2023-10-30_16h29.45.907,vbt_B2_day1,2022.2.4,Win32,60.69434329,,,,,,,,,,,,,,,,,,,0.128703732,-0.050925954,1,0,0,0.6499,4,4,108,14,1,o,images/br_o.png,images/cb_o.png,,,,,,,,,,,,,,,,,,,,,,,,,
,,,,,,00094,2023-10-30_16h29.45.907,vbt_B2_day1,2022.2.4,Win32,60.69434329,,,,,,,,,,,,,,,,,,,0.128703732,-0.050925954,1,0,0,1.0005,4,5,109,5,1,f,images/br_f.png,images/cb_f.png,,,,,,,,,,,,,,,,,,,,,,,,,
,,,,,,00094,2023-10-30_16h29.45.907,vbt_B2_day1,2022.2.4,Win32,60.69434329,,,,,,,,,,,,,,,,,,,0.128703732,-0.050925954,1,0,0,1.699,4,6,110,24,1,y,images/br_y.png,images/cb_y.png,,,,,,,,,,,,,,,,,,,,,,,,,
,,,,,,00094,2023-10-30_16h29.45.907,vbt_B2_day1,2022.2.4,Win32,60.69434329,,,,,,,,,,,,,,,,,,,0.128703732,-0.050925954,1,0,0,0.7823,4,7,111,1,1,b,images/br_b.png,images/cb_b.png,,,,,,,,,,,,,,,,,,,,,,,,,
,,,,,,00094,2023-10-30_16h29.45.907,vbt_B2_day1,2022.2.4,Win32,60.69434329,,,,,,,,,,,,,,,,,,,0.128703732,-0.050925954,1,0,0,0.3161,4,8,112,2,1,c,images/br_c.png,images/cb_c.png,,,,,,,,,,,,,,,,,,,,,,,,,
,,,,,,00094,2023-10-30_16h29.45.907,vbt_B2_day1,2022.2.4,Win32,60.69434329,,,,,,,,,,,,,,,,,,,0.128703732,-0.050925954,1,0,0,1.915,4,9,113,6,1,g,images/br_g.png,images/cb_g.png,,,,,,,,,,,,,,,,,,,,,,,,,
,,,,,,00094,2023-10-30_16h29.45.907,vbt_B2_day1,2022.2.4,Win32,60.69434329,,,,,,,,,,,,,,,,,,,0.128703732,-0.050925954,1,0,0,1.2493,4,10,114,7,1,h,images/br_h.png,images/cb_h.png,,,,,,,,,,,,,,,,,,,,,,,,,
,,,,,,00094,2023-10-30_16h29.45.907,vbt_B2_day1,2022.2.4,Win32,60.69434329,,,,,,,,,,,,,,,,,,,0.128703732,-0.050925954,1,0,0,1.6823,4,11,115,25,1,z,images/br_z.png,images/cb_z.png,,,,,,,,,,,,,,,,,,,,,,,,,
,,,,,,00094,2023-10-30_16h29.45.907,vbt_B2_day1,2022.2.4,Win32,60.69434329,,,,,,,,,,,,,,,,,,,0.128703732,-0.050925954,1,0,0,0.1666,4,12,116,20,1,u,images/br_u.png,images/cb_u.png,,,,,,,,,,,,,,,,,,,,,,,,,
,,,,,,00094,2023-10-30_16h29.45.907,vbt_B2_day1,2022.2.4,Win32,60.69434329,,,,,,,,,,,,,,,,,,,0.128703732,-0.050925954,1,0,0,0.466,4,13,117,15,1,p,images/br_p.png,images/cb_p.png,,,,,,,,,,,,,,,,,,,,,,,,,
,,,,,,00094,2023-10-30_16h29.45.907,vbt_B2_day1,2022.2.4,Win32,60.69434329,,,,,,,,,,,,,,,,,,,0.128703732,-0.050925954,1,0,0,0.0493,4,14,118,12,1,m,images/br_m.png,images/cb_m.png,,,,,,,,,,,,,,,,,,,,,,,,,
,,,,,,00094,2023-10-30_16h29.45.907,vbt_B2_day1,2022.2.4,Win32,60.69434329,,,,,,,,,,,,,,,,,,,0.128703732,-0.050925954,1,0,0,0.0165,4,15,119,18,1,s,images/br_s.png,images/cb_s.png,,,,,,,,,,,,,,,,,,,,,,,,,
,,,,,,00094,2023-10-30_16h29.45.907,vbt_B2_day1,2022.2.4,Win32,60.69434329,,,,,,,,,,,,,,,,,,,0.128703732,-0.050925954,1,0,0,0.1004,4,16,120,8,1,i,images/br_i.png,images/cb_i.png,,,,,,,,,,,,,,,,,,,,,,,,,
,,,,,,00094,2023-10-30_16h29.45.907,vbt_B2_day1,2022.2.4,Win32,60.69434329,,,,,,,,,,,,,,,,,,,0.128703732,-0.050925954,1,0,0,0.0306,4,17,121,19,1,t,images/br_t.png,images/cb_t.png,,,,,,,,,,,,,,,,,,,,,,,,,
,,,,,,00094,2023-10-30_16h29.45.907,vbt_B2_day1,2022.2.4,Win32,60.69434329,,,,,,,,,,,,,,,,,,,0.128703732,-0.050925954,1,0,0,0.4483,4,18,122,21,1,v,images/br_v.png,images/cb_v.png,,,,,,,,,,,,,,,,,,,,,,,,,
,,,,,,00094,2023-10-30_16h29.45.907,vbt_B2_day1,2022.2.4,Win32,60.69434329,,,,,,,,,,,,,,,,,,,0.128703732,-0.050925954,1,0,0,0.1651,4,19,123,9,1,j,images/br_j.png,images/cb_j.png,,,,,,,,,,,,,,,,,,,,,,,,,
,,,,,,00094,2023-10-30_16h29.45.907,vbt_B2_day1,2022.2.4,Win32,60.69434329,,,,,,,,,,,,,,,,,,,0.128703732,-0.050925954,1,0,0,0.3003,4,20,124,17,1,r,images/br_r.png,images/cb_r.png,,,,,,,,,,,,,,,,,,,,,,,,,
,,,,,,00094,2023-10-30_16h29.45.907,vbt_B2_day1,2022.2.4,Win32,60.69434329,,,,,,,,,,,,,,,,,,,0.128703732,-0.050925954,1,0,0,1.1997,4,21,125,0,1,a,images/br_a.png,images/cb_a.png,,,,,,,,,,,,,,,,,,,,,,,,,
,,,,,,00094,2023-10-30_16h29.45.907,vbt_B2_day1,2022.2.4,Win32,60.69434329,,,,,,,,,,,,,,,,,,,0.128703732,-0.050925954,1,0,0,0.9974,4,22,126,4,1,e,images/br_e.png,images/cb_e.png,,,,,,,,,,,,,,,,,,,,,,,,,
,,,,,,00094,2023-10-30_16h29.45.907,vbt_B2_day1,2022.2.4,Win32,60.69434329,,,,,,,,,,,,,,,,,,,0.128703732,-0.050925954,1,0,0,0.0657,4,23,127,11,1,l,images/br_l.png,images/cb_l.png,,,,,,,,,,,,,,,,,,,,,,,,,
,,,,,,00094,2023-10-30_16h29.45.907,vbt_B2_day1,2022.2.4,Win32,60.69434329,,,,,,,,,,,,,,,,,,,0.128703732,-0.050925954,1,0,0,1.3664,4,24,128,10,1,k,images/br_k.png,images/cb_k.png,,,,,,,,,,,,,,,,,,,,,,,,,
,,,,,,00094,2023-10-30_16h29.45.907,vbt_B2_day1,2022.2.4,Win32,60.69434329,,,,,,,,,,,,,,,,,,,0.128703732,-0.050925954,1,0,0,8.1145,4,25,129,3,1,d,images/br_d.png,images/cb_d.png,,,,,,,,,,,,,,,,,,,,,,,,,
,,,,,,00094,2023-10-30_16h29.45.907,vbt_B2_day1,2022.2.4,Win32,60.69434329,,,,,,,,,,,,,,,,,,,0.128703732,-0.050925954,1,0,0,0.1001,5,0,130,25,1,z,images/br_z.png,images/cb_z.png,,,,,,,,,,,,,,,,,,,,,,,,,
,,,,,,00094,2023-10-30_16h29.45.907,vbt_B2_day1,2022.2.4,Win32,60.69434329,,,,,,,,,,,,,,,,,,,0.128703732,-0.050925954,1,0,0,0.3999,5,1,131,22,1,w,images/br_w.png,images/cb_w.png,,,,,,,,,,,,,,,,,,,,,,,,,
,,,,,,00094,2023-10-30_16h29.45.907,vbt_B2_day1,2022.2.4,Win32,60.69434329,,,,,,,,,,,,,,,,,,,0.128703732,-0.050925954,1,0,0,0.633,5,2,132,18,1,s,images/br_s.png,images/cb_s.png,,,,,,,,,,,,,,,,,,,,,,,,,
,,,,,,00094,2023-10-30_16h29.45.907,vbt_B2_day1,2022.2.4,Win32,60.69434329,,,,,,,,,,,,,,,,,,,0.128703732,-0.050925954,1,0,0,0.3831,5,3,133,10,1,k,images/br_k.png,images/cb_k.png,,,,,,,,,,,,,,,,,,,,,,,,,
,,,,,,00094,2023-10-30_16h29.45.907,vbt_B2_day1,2022.2.4,Win32,60.69434329,,,,,,,,,,,,,,,,,,,0.128703732,-0.050925954,1,0,0,0.566,5,4,134,2,1,c,images/br_c.png,images/cb_c.png,,,,,,,,,,,,,,,,,,,,,,,,,
,,,,,,00094,2023-10-30_16h29.45.907,vbt_B2_day1,2022.2.4,Win32,60.69434329,,,,,,,,,,,,,,,,,,,0.128703732,-0.050925954,1,0,0,2.3992,5,5,135,7,1,h,images/br_h.png,images/cb_h.png,,,,,,,,,,,,,,,,,,,,,,,,,
,,,,,,00094,2023-10-30_16h29.45.907,vbt_B2_day1,2022.2.4,Win32,60.69434329,,,,,,,,,,,,,,,,,,,0.128703732,-0.050925954,1,0,0,0.3017,5,6,136,21,1,v,images/br_v.png,images/cb_v.png,,,,,,,,,,,,,,,,,,,,,,,,,
,,,,,,00094,2023-10-30_16h29.45.907,vbt_B2_day1,2022.2.4,Win32,60.69434329,,,,,,,,,,,,,,,,,,,0.128703732,-0.050925954,1,0,0,0.9333,5,7,137,1,1,b,images/br_b.png,images/cb_b.png,,,,,,,,,,,,,,,,,,,,,,,,,
,,,,,,00094,2023-10-30_16h29.45.907,vbt_B2_day1,2022.2.4,Win32,60.69434329,,,,,,,,,,,,,,,,,,,0.128703732,-0.050925954,1,0,0,0.5993,5,8,138,20,1,u,images/br_u.png,images/cb_u.png,,,,,,,,,,,,,,,,,,,,,,,,,
,,,,,,00094,2023-10-30_16h29.45.907,vbt_B2_day1,2022.2.4,Win32,60.69434329,,,,,,,,,,,,,,,,,,,0.128703732,-0.050925954,1,0,0,1.3187,5,9,139,0,1,a,images/br_a.png,images/cb_a.png,,,,,,,,,,,,,,,,,,,,,,,,,
,,,,,,00094,2023-10-30_16h29.45.907,vbt_B2_day1,2022.2.4,Win32,60.69434329,,,,,,,,,,,,,,,,,,,0.128703732,-0.050925954,1,0,0,0.4998,5,10,140,24,1,y,images/br_y.png,images/cb_y.png,,,,,,,,,,,,,,,,,,,,,,,,,
,,,,,,00094,2023-10-30_16h29.45.907,vbt_B2_day1,2022.2.4,Win32,60.69434329,,,,,,,,,,,,,,,,,,,0.128703732,-0.050925954,1,0,0,0.7167,5,11,141,6,1,g,images/br_g.png,images/cb_g.png,,,,,,,,,,,,,,,,,,,,,,,,,
,,,,,,00094,2023-10-30_16h29.45.907,vbt_B2_day1,2022.2.4,Win32,60.69434329,,,,,,,,,,,,,,,,,,,0.128703732,-0.050925954,1,0,0,0.3662,5,12,142,23,1,x,images/br_x.png,images/cb_x.png,,,,,,,,,,,,,,,,,,,,,,,,,
,,,,,,00094,2023-10-30_16h29.45.907,vbt_B2_day1,2022.2.4,Win32,60.69434329,,,,,,,,,,,,,,,,,,,0.128703732,-0.050925954,1,0,0,1.1827,5,13,143,15,1,p,images/br_p.png,images/cb_p.png,,,,,,,,,,,,,,,,,,,,,,,,,
,,,,,,00094,2023-10-30_16h29.45.907,vbt_B2_day1,2022.2.4,Win32,60.69434329,,,,,,,,,,,,,,,,,,,0.128703732,-0.050925954,1,0,0,0.3334,5,14,144,16,1,q,images/br_q.png,images/cb_q.png,,,,,,,,,,,,,,,,,,,,,,,,,
,,,,,,00094,2023-10-30_16h29.45.907,vbt_B2_day1,2022.2.4,Win32,60.69434329,,,,,,,,,,,,,,,,,,,0.128703732,-0.050925954,1,0,0,0.0858,5,15,145,8,1,i,images/br_i.png,images/cb_i.png,,,,,,,,,,,,,,,,,,,,,,,,,
,,,,,,00094,2023-10-30_16h29.45.907,vbt_B2_day1,2022.2.4,Win32,60.69434329,,,,,,,,,,,,,,,,,,,0.128703732,-0.050925954,1,0,0,0.7146,5,16,146,17,1,r,images/br_r.png,images/cb_r.png,,,,,,,,,,,,,,,,,,,,,,,,,
,,,,,,00094,2023-10-30_16h29.45.907,vbt_B2_day1,2022.2.4,Win32,60.69434329,,,,,,,,,,,,,,,,,,,0.128703732,-0.050925954,1,0,0,0.483,5,17,147,14,1,o,images/br_o.png,images/cb_o.png,,,,,,,,,,,,,,,,,,,,,,,,,
,,,,,,00094,2023-10-30_16h29.45.907,vbt_B2_day1,2022.2.4,Win32,60.69434329,,,,,,,,,,,,,,,,,,,0.128703732,-0.050925954,1,0,0,2.4179,5,18,148,3,1,d,images/br_d.png,images/cb_d.png,,,,,,,,,,,,,,,,,,,,,,,,,
,,,,,,00094,2023-10-30_16h29.45.907,vbt_B2_day1,2022.2.4,Win32,60.69434329,,,,,,,,,,,,,,,,,,,0.128703732,-0.050925954,1,0,0,0.4004,5,19,149,19,1,t,images/br_t.png,images/cb_t.png,,,,,,,,,,,,,,,,,,,,,,,,,
,,,,,,00094,2023-10-30_16h29.45.907,vbt_B2_day1,2022.2.4,Win32,60.69434329,,,,,,,,,,,,,,,,,,,0.128703732,-0.050925954,1,0,0,1.6833,5,20,150,12,1,m,images/br_m.png,images/cb_m.png,,,,,,,,,,,,,,,,,,,,,,,,,
,,,,,,00094,2023-10-30_16h29.45.907,vbt_B2_day1,2022.2.4,Win32,60.69434329,,,,,,,,,,,,,,,,,,,0.128703732,-0.050925954,1,0,0,1.3991,5,21,151,9,1,j,images/br_j.png,images/cb_j.png,,,,,,,,,,,,,,,,,,,,,,,,,
,,,,,,00094,2023-10-30_16h29.45.907,vbt_B2_day1,2022.2.4,Win32,60.69434329,,,,,,,,,,,,,,,,,,,0.128703732,-0.050925954,1,0,0,0.4663,5,22,152,4,1,e,images/br_e.png,images/cb_e.png,,,,,,,,,,,,,,,,,,,,,,,,,
,,,,,,00094,2023-10-30_16h29.45.907,vbt_B2_day1,2022.2.4,Win32,60.69434329,,,,,,,,,,,,,,,,,,,0.128703732,-0.050925954,1,0,0,0.7834,5,23,153,5,1,f,images/br_f.png,images/cb_f.png,,,,,,,,,,,,,,,,,,,,,,,,,
,,,,,,00094,2023-10-30_16h29.45.907,vbt_B2_day1,2022.2.4,Win32,60.69434329,,,,,,,,,,,,,,,,,,,0.128703732,-0.050925954,1,0,0,0.6667,5,24,154,13,1,n,images/br_n.png,images/cb_n.png,,,,,,,,,,,,,,,,,,,,,,,,,
,,,,,,00094,2023-10-30_16h29.45.907,vbt_B2_day1,2022.2.4,Win32,60.69434329,,,,,,,,,,,,,,,,,,,0.125925954,-0.029629644,1,0,0,2.2656,5,25,155,11,1,l,images/br_l.png,images/cb_l.png,,,,,,,,,,,,,,,,,,,,,,,,,
,,,,,,00094,2023-10-30_16h29.45.907,vbt_B2_day1,2022.2.4,Win32,60.69434329,,,,,,,,,,,,,,,,,,,0.110185242,-0.033333333,1,0,0,0.4169,6,0,156,20,1,u,images/br_u.png,images/cb_u.png,,,,,,,,,,,,,,,,,,,,,,,,,
,,,,,,00094,2023-10-30_16h29.45.907,vbt_B2_day1,2022.2.4,Win32,60.69434329,,,,,,,,,,,,,,,,,,,0.110185242,-0.033333333,1,0,0,0.4498,6,1,157,3,1,d,images/br_d.png,images/cb_d.png,,,,,,,,,,,,,,,,,,,,,,,,,
,,,,,,00094,2023-10-30_16h29.45.907,vbt_B2_day1,2022.2.4,Win32,60.69434329,,,,,,,,,,,,,,,,,,,0.110185242,-0.033333333,1,0,0,1.1161,6,2,158,14,1,o,images/br_o.png,images/cb_o.png,,,,,,,,,,,,,,,,,,,,,,,,,
,,,,,,00094,2023-10-30_16h29.45.907,vbt_B2_day1,2022.2.4,Win32,60.69434329,,,,,,,,,,,,,,,,,,,0.110185242,-0.033333333,1,0,0,0.0161,6,3,159,9,1,j,images/br_j.png,images/cb_j.png,,,,,,,,,,,,,,,,,,,,,,,,,
,,,,,,00094,2023-10-30_16h29.45.907,vbt_B2_day1,2022.2.4,Win32,60.69434329,,,,,,,,,,,,,,,,,,,0.08148151,-0.047222222,1,0,0,0.9169,6,4,160,13,1,n,images/br_n.png,images/cb_n.png,,,,,,,,,,,,,,,,,,,,,,,,,
,,,,,,00094,2023-10-30_16h29.45.907,vbt_B2_day1,2022.2.4,Win32,60.69434329,,,,,,,,,,,,,,,,,,,0.111111111,-0.047222222,1,0,0,0.2832,6,5,161,5,1,f,images/br_f.png,images/cb_f.png,,,,,,,,,,,,,,,,,,,,,,,,,
,,,,,,00094,2023-10-30_16h29.45.907,vbt_B2_day1,2022.2.4,Win32,60.69434329,,,,,,,,,,,,,,,,,,,0.111111111,-0.047222222,1,0,0,0.6501,6,6,162,8,1,i,images/br_i.png,images/cb_i.png,,,,,,,,,,,,,,,,,,,,,,,,,
,,,,,,00094,2023-10-30_16h29.45.907,vbt_B2_day1,2022.2.4,Win32,60.69434329,,,,,,,,,,,,,,,,,,,0.111111111,-0.047222222,1,0,0,1.116,6,7,163,16,1,q,images/br_q.png,images/cb_q.png,,,,,,,,,,,,,,,,,,,,,,,,,
,,,,,,00094,2023-10-30_16h29.45.907,vbt_B2_day1,2022.2.4,Win32,60.69434329,,,,,,,,,,,,,,,,,,,0.111111111,-0.047222222,1,0,0,1.9157,6,8,164,12,1,m,images/br_m.png,images/cb_m.png,,,,,,,,,,,,,,,,,,,,,,,,,
,,,,,,00094,2023-10-30_16h29.45.907,vbt_B2_day1,2022.2.4,Win32,60.69434329,,,,,,,,,,,,,,,,,,,0.111111111,-0.047222222,1,0,0,0.0161,6,9,165,23,1,x,images/br_x.png,images/cb_x.png,,,,,,,,,,,,,,,,,,,,,,,,,
,,,,,,00094,2023-10-30_16h29.45.907,vbt_B2_day1,2022.2.4,Win32,60.69434329,,,,,,,,,,,,,,,,,,,0.111111111,-0.047222222,1,0,0,0.4157,6,10,166,6,1,g,images/br_g.png,images/cb_g.png,,,,,,,,,,,,,,,,,,,,,,,,,
,,,,,,00094,2023-10-30_16h29.45.907,vbt_B2_day1,2022.2.4,Win32,60.69434329,,,,,,,,,,,,,,,,,,,0.141666667,-0.028703732,1,0,0,0.3003,6,11,167,18,1,s,images/br_s.png,images/cb_s.png,,,,,,,,,,,,,,,,,,,,,,,,,
,,,,,,00094,2023-10-30_16h29.45.907,vbt_B2_day1,2022.2.4,Win32,60.69434329,,,,,,,,,,,,,,,,,,,0.141666667,-0.028703732,1,0,0,0.4653,6,12,168,24,1,y,images/br_y.png,images/cb_y.png,,,,,,,,,,,,,,,,,,,,,,,,,
,,,,,,00094,2023-10-30_16h29.45.907,vbt_B2_day1,2022.2.4,Win32,60.69434329,,,,,,,,,,,,,,,,,,,0.141666667,-0.028703732,1,0,0,0.0825,6,13,169,0,1,a,images/br_a.png,images/cb_a.png,,,,,,,,,,,,,,,,,,,,,,,,,
,,,,,,00094,2023-10-30_16h29.45.907,vbt_B2_day1,2022.2.4,Win32,60.69434329,,,,,,,,,,,,,,,,,,,0.141666667,-0.028703732,1,0,0,0.5497,6,14,170,11,1,l,images/br_l.png,images/cb_l.png,,,,,,,,,,,,,,,,,,,,,,,,,
,,,,,,00094,2023-10-30_16h29.45.907,vbt_B2_day1,2022.2.4,Win32,60.69434329,,,,,,,,,,,,,,,,,,,0.141666667,-0.028703732,1,0,0,0.482,6,15,171,4,1,e,images/br_e.png,images/cb_e.png,,,,,,,,,,,,,,,,,,,,,,,,,
,,,,,,00094,2023-10-30_16h29.45.907,vbt_B2_day1,2022.2.4,Win32,60.69434329,,,,,,,,,,,,,,,,,,,0.141666667,-0.028703732,1,0,0,0.4326,6,16,172,21,1,v,images/br_v.png,images/cb_v.png,,,,,,,,,,,,,,,,,,,,,,,,,
,,,,,,00094,2023-10-30_16h29.45.907,vbt_B2_day1,2022.2.4,Win32,60.69434329,,,,,,,,,,,,,,,,,,,0.141666667,-0.028703732,1,0,0,0.8174,6,17,173,2,1,c,images/br_c.png,images/cb_c.png,,,,,,,,,,,,,,,,,,,,,,,,,
,,,,,,00094,2023-10-30_16h29.45.907,vbt_B2_day1,2022.2.4,Win32,60.69434329,,,,,,,,,,,,,,,,,,,0.141666667,-0.028703732,1,0,0,1.0995,6,18,174,1,1,b,images/br_b.png,images/cb_b.png,,,,,,,,,,,,,,,,,,,,,,,,,
,,,,,,00094,2023-10-30_16h29.45.907,vbt_B2_day1,2022.2.4,Win32,60.69434329,,,,,,,,,,,,,,,,,,,0.141666667,-0.028703732,1,0,0,1.9337,6,19,175,17,1,r,images/br_r.png,images/cb_r.png,,,,,,,,,,,,,,,,,,,,,,,,,
,,,,,,00094,2023-10-30_16h29.45.907,vbt_B2_day1,2022.2.4,Win32,60.69434329,,,,,,,,,,,,,,,,,,,0.165740797,-0.028703732,1,0,0,7.917,6,20,176,7,1,h,images/br_h.png,images/cb_h.png,,,,,,,,,,,,,,,,,,,,,,,,,
,,,,,,00094,2023-10-30_16h29.45.907,vbt_B2_day1,2022.2.4,Win32,60.69434329,,,,,,,,,,,,,,,,,,,0.111111111,-0.037962977,1,0,0,0.4322,6,21,177,15,1,p,images/br_p.png,images/cb_p.png,,,,,,,,,,,,,,,,,,,,,,,,,
,,,,,,00094,2023-10-30_16h29.45.907,vbt_B2_day1,2022.2.4,Win32,60.69434329,,,,,,,,,,,,,,,,,,,0.111111111,-0.037962977,1,0,0,0.9324,6,22,178,10,1,k,images/br_k.png,images/cb_k.png,,,,,,,,,,,,,,,,,,,,,,,,,
,,,,,,00094,2023-10-30_16h29.45.907,vbt_B2_day1,2022.2.4,Win32,60.69434329,,,,,,,,,,,,,,,,,,,0.111111111,-0.037962977,1,0,0,0.9974,6,23,179,22,1,w,images/br_w.png,images/cb_w.png,,,,,,,,,,,,,,,,,,,,,,,,,
,,,,,,00094,2023-10-30_16h29.45.907,vbt_B2_day1,2022.2.4,Win32,60.69434329,,,,,,,,,,,,,,,,,,,0.111111111,-0.037962977,1,0,0,0.4663,6,24,180,25,1,z,images/br_z.png,images/cb_z.png,,,,,,,,,,,,,,,,,,,,,,,,,
,,,,,,00094,2023-10-30_16h29.45.907,vbt_B2_day1,2022.2.4,Win32,60.69434329,,,,,,,,,,,,,,,,,,,0.111111111,-0.037962977,1,0,0,0.4994,6,25,181,19,1,t,images/br_t.png,images/cb_t.png,,,,,,,,,,,,,,,,,,,,,,,,,
,,,,,,00094,2023-10-30_16h29.45.907,vbt_B2_day1,2022.2.4,Win32,60.69434329,,,,,,,,,,,,,,,,,,,,,,,,,,,,,,,,,0.066666667,-0.092592621,1,0,0,,,,,,,,,,,,,,,,,,,,
,,,,,,00094,2023-10-30_16h29.45.907,vbt_B2_day1,2022.2.4,Win32,60.69434329,,,,,,,,,,,,,,,,,,,,,,,,,,,,,,,,,,,,,,0.249074131,-0.068518533,1,0,0,,,,,,,,,,,,,,,
,,,,,,00094,2023-10-30_16h29.45.907,vbt_B2_day1,2022.2.4,Win32,60.69434329,,,,,,,,,,,,,,,,,,,,,,,,,,,,,,,,,,,,,,,,,,,0.249074131,-0.068518533,1,0,0,sl.k,sl.k,0,0,0,0,1,slak,images/br_slak.png,images/cb_slak.png
,,,,,,00094,2023-10-30_16h29.45.907,vbt_B2_day1,2022.2.4,Win32,60.69434329,,,,,,,,,,,,,,,,,,,,,,,,,,,,,,,,,,,,,,,,,,,0.18148151,-0.02129631,1,0,0,schep,schep,0,1,1,4,1,schep,images/br_schep.png,images/cb_schep.png
,,,,,,00094,2023-10-30_16h29.45.907,vbt_B2_day1,2022.2.4,Win32,60.69434329,,,,,,,,,,,,,,,,,,,,,,,,,,,,,,,,,,,,,,,,,,,0.18148151,-0.02129631,1,0,0,rezer,rezer,0,2,2,24,1,rezer,images/br_rezer.png,images/cb_rezer.png
,,,,,,00094,2023-10-30_16h29.45.907,vbt_B2_day1,2022.2.4,Win32,60.69434329,,,,,,,,,,,,,,,,,,,,,,,,,,,,,,,,,,,,,,,,,,,0.18148151,-0.02129631,1,0,0,zuepl.p,zuepl.p,0,3,3,52,1,zuiplap,images/br_zuiplap.png,images/cb_zuiplap.png
,,,,,,00094,2023-10-30_16h29.45.907,vbt_B2_day1,2022.2.4,Win32,60.69434329,,,,,,,,,,,,,,,,,,,,,,,,,,,,,,,,,,,,,,,,,,,0.18148151,-0.02129631,1,0,0,vizier,vizier,0,4,4,49,1,vizier,images/br_vizier.png,images/cb_vizier.png
,,,,,,00094,2023-10-30_16h29.45.907,vbt_B2_day1,2022.2.4,Win32,60.69434329,,,,,,,,,,,,,,,,,,,,,,,,,,,,,,,,,,,,,,,,,,,0.18148151,-0.02129631,1,0,0,fictie,fictie,0,5,5,48,1,fictie,images/br_fictie.png,images/cb_fictie.png
,,,,,,00094,2023-10-30_16h29.45.907,vbt_B2_day1,2022.2.4,Win32,60.69434329,,,,,,,,,,,,,,,,,,,,,,,,,,,,,,,,,,,,,,,,,,,0.18148151,-0.02129631,1,0,0,klau.,klau.,0,6,6,7,1,klauw,images/br_klauw.png,images/cb_klauw.png
,,,,,,00094,2023-10-30_16h29.45.907,vbt_B2_day1,2022.2.4,Win32,60.69434329,,,,,,,,,,,,,,,,,,,,,,,,,,,,,,,,,,,,,,,,,,,0.222222222,-0.05648151,1,0,0,dred,dred,0,7,7,21,1,dred,images/br_dred.png,images/cb_dred.png
,,,,,,00094,2023-10-30_16h29.45.907,vbt_B2_day1,2022.2.4,Win32,60.69434329,,,,,,,,,,,,,,,,,,,,,,,,,,,,,,,,,,,,,,,,,,,0.222222222,-0.05648151,1,0,0,flzll..,flzll..,0,8,8,33,1,flullen,images/br_flullen.png,images/cb_flullen.png
,,,,,,00094,2023-10-30_16h29.45.907,vbt_B2_day1,2022.2.4,Win32,60.69434329,,,,,,,,,,,,,,,,,,,,,,,,,,,,,,,,,,,,,,,,,,,0.190740797,-0.101851866,1,0,0,kanjer,kanjer,0,9,9,8,1,kanjer,images/br_kanjer.png,images/cb_kanjer.png
,,,,,,00094,2023-10-30_16h29.45.907,vbt_B2_day1,2022.2.4,Win32,60.69434329,,,,,,,,,,,,,,,,,,,,,,,,,,,,,,,,,,,,,,,,,,,0.190740797,-0.101851866,1,0,0,wijze,wijze,0,10,10,44,1,wijze,images/br_wijze.png,images/cb_wijze.png
,,,,,,00094,2023-10-30_16h29.45.907,vbt_B2_day1,2022.2.4,Win32,60.69434329,,,,,,,,,,,,,,,,,,,,,,,,,,,,,,,,,,,,,,,,,,,0.190740797,-0.101851866,1,0,0,dubb.,dubb.,0,11,11,9,1,dubbel,images/br_dubbel.png,images/cb_dubbel.png
,,,,,,00094,2023-10-30_16h29.45.907,vbt_B2_day1,2022.2.4,Win32,60.69434329,,,,,,,,,,,,,,,,,,,,,,,,,,,,,,,,,,,,,,,,,,,0.190740797,-0.101851866,1,0,0,u.....,u.....,0,12,12,18,1,uitdelen,images/br_uitdelen.png,images/cb_uitdelen.png
,,,,,,00094,2023-10-30_16h29.45.907,vbt_B2_day1,2022.2.4,Win32,60.69434329,,,,,,,,,,,,,,,,,,,,,,,,,,,,,,,,,,,,,,,,,,,0.190740797,-0.101851866,1,0,0,tekenen,tekenen,0,13,13,55,1,tekenen,images/br_tekenen.png,images/cb_tekenen.png
,,,,,,00094,2023-10-30_16h29.45.907,vbt_B2_day1,2022.2.4,Win32,60.69434329,,,,,,,,,,,,,,,,,,,,,,,,,,,,,,,,,,,,,,,,,,,0.190740797,-0.101851866,1,0,0,opvrtt.,opvrtt.,0,14,14,59,1,opvatten,images/br_opvatten.png,images/cb_opvatten.png
,,,,,,00094,2023-10-30_16h29.45.907,vbt_B2_day1,2022.2.4,Win32,60.69434329,,,,,,,,,,,,,,,,,,,,,,,,,,,,,,,,,,,,,,,,,,,0.190740797,-0.101851866,1,0,0,meenemen,meenemen,0,15,15,57,1,meenemen,images/br_meenemen.png,images/cb_meenemen.png
,,,,,,00094,2023-10-30_16h29.45.907,vbt_B2_day1,2022.2.4,Win32,60.69434329,,,,,,,,,,,,,,,,,,,,,,,,,,,,,,,,,,,,,,,,,,,0.190740797,-0.101851866,1,0,0,voorr.u.,voorr.u.,0,16,16,39,1,voorreur,images/br_voorreur.png,images/cb_voorreur.png
,,,,,,00094,2023-10-30_16h29.45.907,vbt_B2_day1,2022.2.4,Win32,60.69434329,,,,,,,,,,,,,,,,,,,,,,,,,,,,,,,,,,,,,,,,,,,0.252777778,-0.062037065,1,0,0,euru.d.,euru.d.,0,17,17,36,1,vervaden,images/br_vervaden.png,images/cb_vervaden.png
,,,,,,00094,2023-10-30_16h29.45.907,vbt_B2_day1,2022.2.4,Win32,60.69434329,,,,,,,,,,,,,,,,,,,,,,,,,,,,,,,,,,,,,,,,,,,0.252777778,-0.062037065,1,0,0,mand,mand,0,18,18,3,1,mand,images/br_mand.png,images/cb_mand.png
,,,,,,00094,2023-10-30_16h29.45.907,vbt_B2_day1,2022.2.4,Win32,60.69434329,,,,,,,,,,,,,,,,,,,,,,,,,,,,,,,,,,,,,,,,,,,0.252777778,-0.062037065,1,0,0,prort,prort,0,19,19,27,1,prort,images/br_prort.png,images/cb_prort.png
,,,,,,00094,2023-10-30_16h29.45.907,vbt_B2_day1,2022.2.4,Win32,60.69434329,,,,,,,,,,,,,,,,,,,,,,,,,,,,,,,,,,,,,,,,,,,0.252777778,-0.062037065,1,0,0,laua,laua,0,20,20,43,1,lava,images/br_lava.png,images/cb_lava.png
,,,,,,00094,2023-10-30_16h29.45.907,vbt_B2_day1,2022.2.4,Win32,60.69434329,,,,,,,,,,,,,,,,,,,,,,,,,,,,,,,,,,,,,,,,,,,0.252777778,-0.062037065,1,0,0,vieruan,vieruan,0,21,21,15,1,hiervan,images/br_hiervan.png,images/cb_hiervan.png
,,,,,,00094,2023-10-30_16h29.45.907,vbt_B2_day1,2022.2.4,Win32,60.69434329,,,,,,,,,,,,,,,,,,,,,,,,,,,,,,,,,,,,,,,,,,,0.252777778,-0.062037065,1,0,0,hemel,hemel,0,22,22,45,1,hemel,images/br_hemel.png,images/cb_hemel.png
,,,,,,00094,2023-10-30_16h29.45.907,vbt_B2_day1,2022.2.4,Win32,60.69434329,,,,,,,,,,,,,,,,,,,,,,,,,,,,,,,,,,,,,,,,,,,0.252777778,-0.062037065,1,0,0,zaal,zaal,0,23,23,1,1,zaal,images/br_zaal.png,images/cb_zaal.png
,,,,,,00094,2023-10-30_16h29.45.907,vbt_B2_day1,2022.2.4,Win32,60.69434329,,,,,,,,,,,,,,,,,,,,,,,,,,,,,,,,,,,,,,,,,,,0.252777778,-0.062037065,1,0,0,valop,valop,0,24,24,26,1,valop,images/br_valop.png,images/cb_valop.png
,,,,,,00094,2023-10-30_16h29.45.907,vbt_B2_day1,2022.2.4,Win32,60.69434329,,,,,,,,,,,,,,,,,,,,,,,,,,,,,,,,,,,,,,,,,,,0.252777778,-0.062037065,1,0,0,liefde,liefde,0,25,25,51,1,liefde,images/br_liefde.png,images/cb_liefde.png
,,,,,,00094,2023-10-30_16h29.45.907,vbt_B2_day1,2022.2.4,Win32,60.69434329,,,,,,,,,,,,,,,,,,,,,,,,,,,,,,,,,,,,,,,,,,,0.252777778,-0.062037065,1,0,0,stuike.,stuike.,0,26,26,35,1,stuikem,images/br_stuikem.png,images/cb_stuikem.png
,,,,,,00094,2023-10-30_16h29.45.907,vbt_B2_day1,2022.2.4,Win32,60.69434329,,,,,,,,,,,,,,,,,,,,,,,,,,,,,,,,,,,,,,,,,,,0.252777778,-0.062037065,1,0,0,klimmen,klimmen,0,27,27,12,1,klimmen,images/br_klimmen.png,images/cb_klimmen.png
,,,,,,00094,2023-10-30_16h29.45.907,vbt_B2_day1,2022.2.4,Win32,60.69434329,,,,,,,,,,,,,,,,,,,,,,,,,,,,,,,,,,,,,,,,,,,0.005555556,-0.19629631,1,0,0,bedtip,bedtip,0,28,28,28,1,bebrip,images/br_bebrip.png,images/cb_bebrip.png
,,,,,,00094,2023-10-30_16h29.45.907,vbt_B2_day1,2022.2.4,Win32,60.69434329,,,,,,,,,,,,,,,,,,,,,,,,,,,,,,,,,,,,,,,,,,,0.073148176,-0.074074088,1,0,0,muziek,muziek,0,29,29,10,1,muziek,images/br_muziek.png,images/cb_muziek.png
,,,,,,00094,2023-10-30_16h29.45.907,vbt_B2_day1,2022.2.4,Win32,60.69434329,,,,,,,,,,,,,,,,,,,,,,,,,,,,,,,,,,,,,,,,,,,0.073148176,-0.074074088,1,0,0,jaar,jaar,0,30,30,2,1,jaar,images/br_jaar.png,images/cb_jaar.png
,,,,,,00094,2023-10-30_16h29.45.907,vbt_B2_day1,2022.2.4,Win32,60.69434329,,,,,,,,,,,,,,,,,,,,,,,,,,,,,,,,,,,,,,,,,,,0.073148176,-0.074074088,1,0,0,booi,booi,0,31,31,23,1,booi,images/br_booi.png,images/cb_booi.png
,,,,,,00094,2023-10-30_16h29.45.907,vbt_B2_day1,2022.2.4,Win32,60.69434329,,,,,,,,,,,,,,,,,,,,,,,,,,,,,,,,,,,,,,,,,,,0.073148176,-0.074074088,1,0,0,opslaan,opslaan,0,32,32,53,1,opslaan,images/br_opslaan.png,images/cb_opslaan.png
,,,,,,00094,2023-10-30_16h29.45.907,vbt_B2_day1,2022.2.4,Win32,60.69434329,,,,,,,,,,,,,,,,,,,,,,,,,,,,,,,,,,,,,,,,,,,0.073148176,-0.074074088,1,0,0,tars,tars,0,33,33,20,1,tars,images/br_tars.png,images/cb_tars.png
,,,,,,00094,2023-10-30_16h29.45.907,vbt_B2_day1,2022.2.4,Win32,60.69434329,,,,,,,,,,,,,,,,,,,,,,,,,,,,,,,,,,,,,,,,,,,0.073148176,-0.074074088,1,0,0,knoe,knoe,0,34,34,22,1,knoe,images/br_knoe.png,images/cb_knoe.png
,,,,,,00094,2023-10-30_16h29.45.907,vbt_B2_day1,2022.2.4,Win32,60.69434329,,,,,,,,,,,,,,,,,,,,,,,,,,,,,,,,,,,,,,,,,,,0.073148176,-0.074074088,1,0,0,loods,loods,0,35,35,47,1,loods,images/br_loods.png,images/cb_loods.png
,,,,,,00094,2023-10-30_16h29.45.907,vbt_B2_day1,2022.2.4,Win32,60.69434329,,,,,,,,,,,,,,,,,,,,,,,,,,,,,,,,,,,,,,,,,,,0.073148176,-0.074074088,1,0,0,genond,genond,0,36,36,29,1,genond,images/br_genond.png,images/cb_genond.png
,,,,,,00094,2023-10-30_16h29.45.907,vbt_B2_day1,2022.2.4,Win32,60.69434329,,,,,,,,,,,,,,,,,,,,,,,,,,,,,,,,,,,,,,,,,,,0.073148176,-0.074074088,1,0,0,mening,mening,0,37,37,11,1,mening,images/br_mening.png,images/cb_mening.png
,,,,,,00094,2023-10-30_16h29.45.907,vbt_B2_day1,2022.2.4,Win32,60.69434329,,,,,,,,,,,,,,,,,,,,,,,,,,,,,,,,,,,,,,,,,,,0.073148176,-0.074074088,1,0,0,stamin,stamin,0,38,38,31,1,stamen,images/br_stamen.png,images/cb_stamen.png
,,,,,,00094,2023-10-30_16h29.45.907,vbt_B2_day1,2022.2.4,Win32,60.69434329,,,,,,,,,,,,,,,,,,,,,,,,,,,,,,,,,,,,,,,,,,,0.073148176,-0.074074088,1,0,0,waarvan,waarvan,0,39,39,14,1,waarvan,images/br_waarvan.png,images/cb_waarvan.png
,,,,,,00094,2023-10-30_16h29.45.907,vbt_B2_day1,2022.2.4,Win32,60.69434329,,,,,,,,,,,,,,,,,,,,,,,,,,,,,,,,,,,,,,,,,,,0.073148176,-0.074074088,1,0,0,toeze...,toeze...,0,40,40,56,1,toezicht,images/br_toezicht.png,images/cb_toezicht.png
,,,,,,00094,2023-10-30_16h29.45.907,vbt_B2_day1,2022.2.4,Win32,60.69434329,,,,,,,,,,,,,,,,,,,,,,,,,,,,,,,,,,,,,,,,,,,0.073148176,-0.074074088,1,0,0,voorkeur,voorkeur,0,41,41,58,1,voorkeur,images/br_voorkeur.png,images/cb_voorkeur.png
,,,,,,00094,2023-10-30_16h29.45.907,vbt_B2_day1,2022.2.4,Win32,60.69434329,,,,,,,,,,,,,,,,,,,,,,,,,,,,,,,,,,,,,,,,,,,0.073148176,-0.074074088,1,0,0,opplaa.,opplaa.,0,42,42,32,1,opplaan,images/br_opplaan.png,images/cb_opplaan.png
,,,,,,00094,2023-10-30_16h29.45.907,vbt_B2_day1,2022.2.4,Win32,60.69434329,,,,,,,,,,,,,,,,,,,,,,,,,,,,,,,,,,,,,,,,,,,0.073148176,-0.074074088,1,0,0,reedh.,reedh.,0,43,43,30,1,reedje,images/br_reedje.png,images/cb_reedje.png
,,,,,,00094,2023-10-30_16h29.45.907,vbt_B2_day1,2022.2.4,Win32,60.69434329,,,,,,,,,,,,,,,,,,,,,,,,,,,,,,,,,,,,,,,,,,,0.073148176,-0.074074088,1,0,0,dief,dief,0,44,44,40,1,dief,images/br_dief.png,images/cb_dief.png
,,,,,,00094,2023-10-30_16h29.45.907,vbt_B2_day1,2022.2.4,Win32,60.69434329,,,,,,,,,,,,,,,,,,,,,,,,,,,,,,,,,,,,,,,,,,,0.073148176,-0.074074088,1,0,0,stuk,stuk,0,45,45,42,1,stuk,images/br_stuk.png,images/cb_stuk.png
,,,,,,00094,2023-10-30_16h29.45.907,vbt_B2_day1,2022.2.4,Win32,60.69434329,,,,,,,,,,,,,,,,,,,,,,,,,,,,,,,,,,,,,,,,,,,0.073148176,-0.074074088,1,0,0,vijf...,vijf...,0,46,46,54,1,vijftig,images/br_vijftig.png,images/cb_vijftig.png
,,,,,,00094,2023-10-30_16h29.45.907,vbt_B2_day1,2022.2.4,Win32,60.69434329,,,,,,,,,,,,,,,,,,,,,,,,,,,,,,,,,,,,,,,,,,,0.073148176,-0.074074088,1,0,0,attent..,attent..,0,47,47,17,1,attentie,images/br_attentie.png,images/cb_attentie.png
,,,,,,00094,2023-10-30_16h29.45.907,vbt_B2_day1,2022.2.4,Win32,60.69434329,,,,,,,,,,,,,,,,,,,,,,,,,,,,,,,,,,,,,,,,,,,0.073148176,-0.074074088,1,0,0,lochten,lochten,0,48,48,34,1,lochten,images/br_lochten.png,images/cb_lochten.png
,,,,,,00094,2023-10-30_16h29.45.907,vbt_B2_day1,2022.2.4,Win32,60.69434329,,,,,,,,,,,,,,,,,,,,,,,,,,,,,,,,,,,,,,,,,,,0.073148176,-0.074074088,1,0,0,twijfel,twijfel,0,49,49,13,1,twijfel,images/br_twijfel.png,images/cb_twijfel.png
,,,,,,00094,2023-10-30_16h29.45.907,vbt_B2_day1,2022.2.4,Win32,60.69434329,,,,,,,,,,,,,,,,,,,,,,,,,,,,,,,,,,,,,,,,,,,0.073148176,-0.074074088,1,0,0,schielen,schielen,0,50,50,38,1,schielen,images/br_schielen.png,images/cb_schielen.png
,,,,,,00094,2023-10-30_16h29.45.907,vbt_B2_day1,2022.2.4,Win32,60.69434329,,,,,,,,,,,,,,,,,,,,,,,,,,,,,,,,,,,,,,,,,,,0.073148176,-0.074074088,1,0,0,schuilen,schuilen,0,51,51,19,1,schuilen,images/br_schuilen.png,images/cb_schuilen.png
,,,,,,00094,2023-10-30_16h29.45.907,vbt_B2_day1,2022.2.4,Win32,60.69434329,,,,,,,,,,,,,,,,,,,,,,,,,,,,,,,,,,,,,,,,,,,0.073148176,-0.074074088,1,0,0,liegen,liegen,0,52,52,50,1,liegen,images/br_liegen.png,images/cb_liegen.png
,,,,,,00094,2023-10-30_16h29.45.907,vbt_B2_day1,2022.2.4,Win32,60.69434329,,,,,,,,,,,,,,,,,,,,,,,,,,,,,,,,,,,,,,,,,,,0.073148176,-0.074074088,1,0,0,hoog,hoog,0,53,53,41,1,hoog,images/br_hoog.png,images/cb_hoog.png
,,,,,,00094,2023-10-30_16h29.45.907,vbt_B2_day1,2022.2.4,Win32,60.69434329,,,,,,,,,,,,,,,,,,,,,,,,,,,,,,,,,,,,,,,,,,,0.073148176,-0.074074088,1,0,0,lezen,lezen,0,54,54,46,1,lezen,images/br_lezen.png,images/cb_lezen.png
,,,,,,00094,2023-10-30_16h29.45.907,vbt_B2_day1,2022.2.4,Win32,60.69434329,,,,,,,,,,,,,,,,,,,,,,,,,,,,,,,,,,,,,,,,,,,0.073148176,-0.074074088,1,0,0,bri.k,bri.k,0,55,55,25,1,brijk,images/br_brijk.png,images/cb_brijk.png
,,,,,,00094,2023-10-30_16h29.45.907,vbt_B2_day1,2022.2.4,Win32,60.69434329,,,,,,,,,,,,,,,,,,,,,,,,,,,,,,,,,,,,,,,,,,,0.073148176,-0.074074088,1,0,0,spanz...,spanz...,0,56,56,37,1,spanzing,images/br_spanzing.png,images/cb_spanzing.png
,,,,,,00094,2023-10-30_16h29.45.907,vbt_B2_day1,2022.2.4,Win32,60.69434329,,,,,,,,,,,,,,,,,,,,,,,,,,,,,,,,,,,,,,,,,,,0.073148176,-0.074074088,1,0,0,maken,maken,0,57,57,5,1,maken,images/br_maken.png,images/cb_maken.png
,,,,,,00094,2023-10-30_16h29.45.907,vbt_B2_day1,2022.2.4,Win32,60.69434329,,,,,,,,,,,,,,,,,,,,,,,,,,,,,,,,,,,,,,,,,,,0.073148176,-0.074074088,1,0,0,daarfeen,daarfeen,0,58,58,16,1,daarheen,images/br_daarheen.png,images/cb_daarheen.png
,,,,,,00094,2023-10-30_16h29.45.907,vbt_B2_day1,2022.2.4,Win32,60.69434329,,,,,,,,,,,,,,,,,,,,,,,,,,,,,,,,,,,,,,,,,,,0.073148176,-0.074074088,1,0,0,bleek,bleek,0,59,59,6,1,bleek,images/br_bleek.png,images/cb_bleek.png
,,,,,,00094,2023-10-30_16h29.45.907,vbt_B2_day1,2022.2.4,Win32,60.69434329,,,,,,,,,,,,,,,,,,,,,,,,,,,,,,,,,,,,,,,,,,,,,,,,,,,,,,,,,
