welcome_mouse.x,welcome_mouse.y,welcome_mouse.leftButton,welcome_mouse.midButton,welcome_mouse.rightButton,welcome_mouse.time,"ID",date,expName,psychopyVersion,OS,frameRate,mouse_2.x,mouse_2.y,mouse_2.leftButton,mouse_2.midButton,mouse_2.rightButton,mouse_2.time,mouse_3.x,mouse_3.y,mouse_3.leftButton,mouse_3.midButton,mouse_3.rightButton,mouse_3.time,train_mouse.x,train_mouse.y,train_mouse.leftButton,train_mouse.midButton,train_mouse.rightButton,train_mouse.time,braille_mouse.x,braille_mouse.y,braille_mouse.leftButton,braille_mouse.midButton,braille_mouse.rightButton,braille_mouse.time,trials.thisRepN,trials.thisTrialN,trials.thisN,trials.thisIndex,trials.ran,nlLet,brLet,cbLet,mouse.x,mouse.y,mouse.leftButton,mouse.midButton,mouse.rightButton,testInstr_mouse.x,testInstr_mouse.y,testInstr_mouse.leftButton,testInstr_mouse.midButton,testInstr_mouse.rightButton,test_mouse.x,test_mouse.y,test_mouse.leftButton,test_mouse.midButton,test_mouse.rightButton,test_response.text,testResp,test_loop.thisRepN,test_loop.thisTrialN,test_loop.thisN,test_loop.thisIndex,test_loop.ran,nlWrd,brWrd,cbWrd
-0.058333291,-0.102777764,1,0,0,11.7936,00098,2023-11-08_13h54.40.802,vbt_B2_day1,2022.2.4,Win32,60.02040694,,,,,,,,,,,,,,,,,,,,,,,,,,,,,,,,,,,,,,,,,,,,,,,,,,,,,,,,,
,,,,,,00098,2023-11-08_13h54.40.802,vbt_B2_day1,2022.2.4,Win32,60.02040694,-0.02407406,-0.023148148,1,0,0,11.3747,,,,,,,,,,,,,,,,,,,,,,,,,,,,,,,,,,,,,,,,,,,,,,,,,,,
,,,,,,00098,2023-11-08_13h54.40.802,vbt_B2_day1,2022.2.4,Win32,60.02040694,,,,,,,-0.02407406,-0.023148148,1,0,0,24.5449,,,,,,,,,,,,,,,,,,,,,,,,,,,,,,,,,,,,,,,,,,,,,
,,,,,,00098,2023-11-08_13h54.40.802,vbt_B2_day1,2022.2.4,Win32,60.02040694,,,,,,,,,,,,,0.098148134,-0.060185185,1,0,0,17.4684,,,,,,,,,,,,,,,,,,,,,,,,,,,,,,,,,,,,,,,
,,,,,,00098,2023-11-08_13h54.40.802,vbt_B2_day1,2022.2.4,Win32,60.02040694,,,,,,,,,,,,,,,,,,,0.044444473,-0.108333376,1,0,0,6.1994,0,0,0,15,1,p,images/br_p.png,images/cb_p.png,,,,,,,,,,,,,,,,,,,,,,,,,
,,,,,,00098,2023-11-08_13h54.40.802,vbt_B2_day1,2022.2.4,Win32,60.02040694,,,,,,,,,,,,,,,,,,,0.044444473,-0.108333376,1,0,0,7.1658,0,1,1,16,1,q,images/br_q.png,images/cb_q.png,,,,,,,,,,,,,,,,,,,,,,,,,
,,,,,,00098,2023-11-08_13h54.40.802,vbt_B2_day1,2022.2.4,Win32,60.02040694,,,,,,,,,,,,,,,,,,,0.041666667,-0.098148134,1,0,0,10.4163,0,2,2,24,1,y,images/br_y.png,images/cb_y.png,,,,,,,,,,,,,,,,,,,,,,,,,
,,,,,,00098,2023-11-08_13h54.40.802,vbt_B2_day1,2022.2.4,Win32,60.02040694,,,,,,,,,,,,,,,,,,,0.041666667,-0.097222222,1,0,0,9.8488,0,3,3,25,1,z,images/br_z.png,images/cb_z.png,,,,,,,,,,,,,,,,,,,,,,,,,
,,,,,,00098,2023-11-08_13h54.40.802,vbt_B2_day1,2022.2.4,Win32,60.02040694,,,,,,,,,,,,,,,,,,,0.041666667,-0.097222222,1,0,0,17.1146,0,4,4,17,1,r,images/br_r.png,images/cb_r.png,,,,,,,,,,,,,,,,,,,,,,,,,
,,,,,,00098,2023-11-08_13h54.40.802,vbt_B2_day1,2022.2.4,Win32,60.02040694,,,,,,,,,,,,,,,,,,,0.041666667,-0.097222222,1,0,0,5.8493,0,5,5,18,1,s,images/br_s.png,images/cb_s.png,,,,,,,,,,,,,,,,,,,,,,,,,
,,,,,,00098,2023-11-08_13h54.40.802,vbt_B2_day1,2022.2.4,Win32,60.02040694,,,,,,,,,,,,,,,,,,,0.041666667,-0.097222222,1,0,0,6.5826,0,6,6,10,1,k,images/br_k.png,images/cb_k.png,,,,,,,,,,,,,,,,,,,,,,,,,
,,,,,,00098,2023-11-08_13h54.40.802,vbt_B2_day1,2022.2.4,Win32,60.02040694,,,,,,,,,,,,,,,,,,,0.041666667,-0.097222222,1,0,0,13.7653,0,7,7,12,1,m,images/br_m.png,images/cb_m.png,,,,,,,,,,,,,,,,,,,,,,,,,
,,,,,,00098,2023-11-08_13h54.40.802,vbt_B2_day1,2022.2.4,Win32,60.02040694,,,,,,,,,,,,,,,,,,,0.041666667,-0.097222222,1,0,0,18.4484,0,8,8,13,1,n,images/br_n.png,images/cb_n.png,,,,,,,,,,,,,,,,,,,,,,,,,
,,,,,,00098,2023-11-08_13h54.40.802,vbt_B2_day1,2022.2.4,Win32,60.02040694,,,,,,,,,,,,,,,,,,,0.041666667,-0.097222222,1,0,0,6.5992,0,9,9,6,1,g,images/br_g.png,images/cb_g.png,,,,,,,,,,,,,,,,,,,,,,,,,
,,,,,,00098,2023-11-08_13h54.40.802,vbt_B2_day1,2022.2.4,Win32,60.02040694,,,,,,,,,,,,,,,,,,,0.041666667,-0.097222222,1,0,0,9.4994,0,10,10,19,1,t,images/br_t.png,images/cb_t.png,,,,,,,,,,,,,,,,,,,,,,,,,
,,,,,,00098,2023-11-08_13h54.40.802,vbt_B2_day1,2022.2.4,Win32,60.02040694,,,,,,,,,,,,,,,,,,,0.041666667,-0.097222222,1,0,0,5.7828,0,11,11,2,1,c,images/br_c.png,images/cb_c.png,,,,,,,,,,,,,,,,,,,,,,,,,
,,,,,,00098,2023-11-08_13h54.40.802,vbt_B2_day1,2022.2.4,Win32,60.02040694,,,,,,,,,,,,,,,,,,,0.041666667,-0.097222222,1,0,0,5.5495,0,12,12,7,1,h,images/br_h.png,images/cb_h.png,,,,,,,,,,,,,,,,,,,,,,,,,
,,,,,,00098,2023-11-08_13h54.40.802,vbt_B2_day1,2022.2.4,Win32,60.02040694,,,,,,,,,,,,,,,,,,,0.041666667,-0.097222222,1,0,0,6.8659,0,13,13,21,1,v,images/br_v.png,images/cb_v.png,,,,,,,,,,,,,,,,,,,,,,,,,
,,,,,,00098,2023-11-08_13h54.40.802,vbt_B2_day1,2022.2.4,Win32,60.02040694,,,,,,,,,,,,,,,,,,,0.041666667,-0.097222222,1,0,0,6.0493,0,14,14,8,1,i,images/br_i.png,images/cb_i.png,,,,,,,,,,,,,,,,,,,,,,,,,
,,,,,,00098,2023-11-08_13h54.40.802,vbt_B2_day1,2022.2.4,Win32,60.02040694,,,,,,,,,,,,,,,,,,,0.041666667,-0.097222222,1,0,0,8.3348,0,15,15,1,1,b,images/br_b.png,images/cb_b.png,,,,,,,,,,,,,,,,,,,,,,,,,
,,,,,,00098,2023-11-08_13h54.40.802,vbt_B2_day1,2022.2.4,Win32,60.02040694,,,,,,,,,,,,,,,,,,,0.041666667,-0.097222222,1,0,0,5.5327,0,16,16,3,1,d,images/br_d.png,images/cb_d.png,,,,,,,,,,,,,,,,,,,,,,,,,
,,,,,,00098,2023-11-08_13h54.40.802,vbt_B2_day1,2022.2.4,Win32,60.02040694,,,,,,,,,,,,,,,,,,,0.041666667,-0.097222222,1,0,0,24.9976,0,17,17,11,1,l,images/br_l.png,images/cb_l.png,,,,,,,,,,,,,,,,,,,,,,,,,
,,,,,,00098,2023-11-08_13h54.40.802,vbt_B2_day1,2022.2.4,Win32,60.02040694,,,,,,,,,,,,,,,,,,,0.041666667,-0.097222222,1,0,0,7.8662,0,18,18,22,1,w,images/br_w.png,images/cb_w.png,,,,,,,,,,,,,,,,,,,,,,,,,
,,,,,,00098,2023-11-08_13h54.40.802,vbt_B2_day1,2022.2.4,Win32,60.02040694,,,,,,,,,,,,,,,,,,,0.041666667,-0.097222222,1,0,0,4.1664,0,19,19,23,1,x,images/br_x.png,images/cb_x.png,,,,,,,,,,,,,,,,,,,,,,,,,
,,,,,,00098,2023-11-08_13h54.40.802,vbt_B2_day1,2022.2.4,Win32,60.02040694,,,,,,,,,,,,,,,,,,,0.041666667,-0.097222222,1,0,0,4.3335,0,20,20,9,1,j,images/br_j.png,images/cb_j.png,,,,,,,,,,,,,,,,,,,,,,,,,
,,,,,,00098,2023-11-08_13h54.40.802,vbt_B2_day1,2022.2.4,Win32,60.02040694,,,,,,,,,,,,,,,,,,,0.041666667,-0.097222222,1,0,0,4.266,0,21,21,20,1,u,images/br_u.png,images/cb_u.png,,,,,,,,,,,,,,,,,,,,,,,,,
,,,,,,00098,2023-11-08_13h54.40.802,vbt_B2_day1,2022.2.4,Win32,60.02040694,,,,,,,,,,,,,,,,,,,0.041666667,-0.097222222,1,0,0,4.7161,0,22,22,4,1,e,images/br_e.png,images/cb_e.png,,,,,,,,,,,,,,,,,,,,,,,,,
,,,,,,00098,2023-11-08_13h54.40.802,vbt_B2_day1,2022.2.4,Win32,60.02040694,,,,,,,,,,,,,,,,,,,0.041666667,-0.097222222,1,0,0,6.4995,0,23,23,5,1,f,images/br_f.png,images/cb_f.png,,,,,,,,,,,,,,,,,,,,,,,,,
,,,,,,00098,2023-11-08_13h54.40.802,vbt_B2_day1,2022.2.4,Win32,60.02040694,,,,,,,,,,,,,,,,,,,0.041666667,-0.097222222,1,0,0,3.1996,0,24,24,14,1,o,images/br_o.png,images/cb_o.png,,,,,,,,,,,,,,,,,,,,,,,,,
,,,,,,00098,2023-11-08_13h54.40.802,vbt_B2_day1,2022.2.4,Win32,60.02040694,,,,,,,,,,,,,,,,,,,0.041666667,-0.097222222,1,0,0,3.6492,0,25,25,0,1,a,images/br_a.png,images/cb_a.png,,,,,,,,,,,,,,,,,,,,,,,,,
,,,,,,00098,2023-11-08_13h54.40.802,vbt_B2_day1,2022.2.4,Win32,60.02040694,,,,,,,,,,,,,,,,,,,0.041666667,-0.097222222,1,0,0,1.3002,1,0,26,1,1,b,images/br_b.png,images/cb_b.png,,,,,,,,,,,,,,,,,,,,,,,,,
,,,,,,00098,2023-11-08_13h54.40.802,vbt_B2_day1,2022.2.4,Win32,60.02040694,,,,,,,,,,,,,,,,,,,0.041666667,-0.097222222,1,0,0,0.5663,1,1,27,25,1,z,images/br_z.png,images/cb_z.png,,,,,,,,,,,,,,,,,,,,,,,,,
,,,,,,00098,2023-11-08_13h54.40.802,vbt_B2_day1,2022.2.4,Win32,60.02040694,,,,,,,,,,,,,,,,,,,0.041666667,-0.110185199,1,0,0,1.5331,1,2,28,7,1,h,images/br_h.png,images/cb_h.png,,,,,,,,,,,,,,,,,,,,,,,,,
,,,,,,00098,2023-11-08_13h54.40.802,vbt_B2_day1,2022.2.4,Win32,60.02040694,,,,,,,,,,,,,,,,,,,0.041666667,-0.110185199,1,0,0,2.3835,1,3,29,6,1,g,images/br_g.png,images/cb_g.png,,,,,,,,,,,,,,,,,,,,,,,,,
,,,,,,00098,2023-11-08_13h54.40.802,vbt_B2_day1,2022.2.4,Win32,60.02040694,,,,,,,,,,,,,,,,,,,0.041666667,-0.110185199,1,0,0,6.9995,1,4,30,12,1,m,images/br_m.png,images/cb_m.png,,,,,,,,,,,,,,,,,,,,,,,,,
,,,,,,00098,2023-11-08_13h54.40.802,vbt_B2_day1,2022.2.4,Win32,60.02040694,,,,,,,,,,,,,,,,,,,0.041666667,-0.110185199,1,0,0,7.099,1,5,31,21,1,v,images/br_v.png,images/cb_v.png,,,,,,,,,,,,,,,,,,,,,,,,,
,,,,,,00098,2023-11-08_13h54.40.802,vbt_B2_day1,2022.2.4,Win32,60.02040694,,,,,,,,,,,,,,,,,,,0.041666667,-0.110185199,1,0,0,1.2328,1,6,32,17,1,r,images/br_r.png,images/cb_r.png,,,,,,,,,,,,,,,,,,,,,,,,,
,,,,,,00098,2023-11-08_13h54.40.802,vbt_B2_day1,2022.2.4,Win32,60.02040694,,,,,,,,,,,,,,,,,,,0.041666667,-0.110185199,1,0,0,2.3998,1,7,33,8,1,i,images/br_i.png,images/cb_i.png,,,,,,,,,,,,,,,,,,,,,,,,,
,,,,,,00098,2023-11-08_13h54.40.802,vbt_B2_day1,2022.2.4,Win32,60.02040694,,,,,,,,,,,,,,,,,,,0.041666667,-0.110185199,1,0,0,7.7825,1,8,34,13,1,n,images/br_n.png,images/cb_n.png,,,,,,,,,,,,,,,,,,,,,,,,,
,,,,,,00098,2023-11-08_13h54.40.802,vbt_B2_day1,2022.2.4,Win32,60.02040694,,,,,,,,,,,,,,,,,,,0.041666667,-0.110185199,1,0,0,1.6841,1,9,35,24,1,y,images/br_y.png,images/cb_y.png,,,,,,,,,,,,,,,,,,,,,,,,,
,,,,,,00098,2023-11-08_13h54.40.802,vbt_B2_day1,2022.2.4,Win32,60.02040694,,,,,,,,,,,,,,,,,,,0.041666667,-0.110185199,1,0,0,1.6997,1,10,36,14,1,o,images/br_o.png,images/cb_o.png,,,,,,,,,,,,,,,,,,,,,,,,,
,,,,,,00098,2023-11-08_13h54.40.802,vbt_B2_day1,2022.2.4,Win32,60.02040694,,,,,,,,,,,,,,,,,,,0.041666667,-0.110185199,1,0,0,1.6503,1,11,37,19,1,t,images/br_t.png,images/cb_t.png,,,,,,,,,,,,,,,,,,,,,,,,,
,,,,,,00098,2023-11-08_13h54.40.802,vbt_B2_day1,2022.2.4,Win32,60.02040694,,,,,,,,,,,,,,,,,,,0.041666667,-0.110185199,1,0,0,4.6161,1,12,38,20,1,u,images/br_u.png,images/cb_u.png,,,,,,,,,,,,,,,,,,,,,,,,,
,,,,,,00098,2023-11-08_13h54.40.802,vbt_B2_day1,2022.2.4,Win32,60.02040694,,,,,,,,,,,,,,,,,,,0.041666667,-0.110185199,1,0,0,2.7333,1,13,39,3,1,d,images/br_d.png,images/cb_d.png,,,,,,,,,,,,,,,,,,,,,,,,,
,,,,,,00098,2023-11-08_13h54.40.802,vbt_B2_day1,2022.2.4,Win32,60.02040694,,,,,,,,,,,,,,,,,,,0.041666667,-0.110185199,1,0,0,4.0995,1,14,40,22,1,w,images/br_w.png,images/cb_w.png,,,,,,,,,,,,,,,,,,,,,,,,,
,,,,,,00098,2023-11-08_13h54.40.802,vbt_B2_day1,2022.2.4,Win32,60.02040694,,,,,,,,,,,,,,,,,,,0.041666667,-0.110185199,1,0,0,2.45,1,15,41,9,1,j,images/br_j.png,images/cb_j.png,,,,,,,,,,,,,,,,,,,,,,,,,
,,,,,,00098,2023-11-08_13h54.40.802,vbt_B2_day1,2022.2.4,Win32,60.02040694,,,,,,,,,,,,,,,,,,,0.041666667,-0.110185199,1,0,0,6.1495,1,16,42,10,1,k,images/br_k.png,images/cb_k.png,,,,,,,,,,,,,,,,,,,,,,,,,
,,,,,,00098,2023-11-08_13h54.40.802,vbt_B2_day1,2022.2.4,Win32,60.02040694,,,,,,,,,,,,,,,,,,,0.041666667,-0.110185199,1,0,0,3.3001,1,17,43,0,1,a,images/br_a.png,images/cb_a.png,,,,,,,,,,,,,,,,,,,,,,,,,
,,,,,,00098,2023-11-08_13h54.40.802,vbt_B2_day1,2022.2.4,Win32,60.02040694,,,,,,,,,,,,,,,,,,,0.041666667,-0.110185199,1,0,0,2.15,1,18,44,16,1,q,images/br_q.png,images/cb_q.png,,,,,,,,,,,,,,,,,,,,,,,,,
,,,,,,00098,2023-11-08_13h54.40.802,vbt_B2_day1,2022.2.4,Win32,60.02040694,,,,,,,,,,,,,,,,,,,0.041666667,-0.110185199,1,0,0,1.6322,1,19,45,23,1,x,images/br_x.png,images/cb_x.png,,,,,,,,,,,,,,,,,,,,,,,,,
,,,,,,00098,2023-11-08_13h54.40.802,vbt_B2_day1,2022.2.4,Win32,60.02040694,,,,,,,,,,,,,,,,,,,0.041666667,-0.110185199,1,0,0,2.5501,1,20,46,11,1,l,images/br_l.png,images/cb_l.png,,,,,,,,,,,,,,,,,,,,,,,,,
,,,,,,00098,2023-11-08_13h54.40.802,vbt_B2_day1,2022.2.4,Win32,60.02040694,,,,,,,,,,,,,,,,,,,0.041666667,-0.110185199,1,0,0,3.5326,1,21,47,5,1,f,images/br_f.png,images/cb_f.png,,,,,,,,,,,,,,,,,,,,,,,,,
,,,,,,00098,2023-11-08_13h54.40.802,vbt_B2_day1,2022.2.4,Win32,60.02040694,,,,,,,,,,,,,,,,,,,0.041666667,-0.110185199,1,0,0,2.7332,1,22,48,15,1,p,images/br_p.png,images/cb_p.png,,,,,,,,,,,,,,,,,,,,,,,,,
,,,,,,00098,2023-11-08_13h54.40.802,vbt_B2_day1,2022.2.4,Win32,60.02040694,,,,,,,,,,,,,,,,,,,0.041666667,-0.110185199,1,0,0,0.0998,1,23,49,2,1,c,images/br_c.png,images/cb_c.png,,,,,,,,,,,,,,,,,,,,,,,,,
,,,,,,00098,2023-11-08_13h54.40.802,vbt_B2_day1,2022.2.4,Win32,60.02040694,,,,,,,,,,,,,,,,,,,0.041666667,-0.110185199,1,0,0,0.5024,1,24,50,4,1,e,images/br_e.png,images/cb_e.png,,,,,,,,,,,,,,,,,,,,,,,,,
,,,,,,00098,2023-11-08_13h54.40.802,vbt_B2_day1,2022.2.4,Win32,60.02040694,,,,,,,,,,,,,,,,,,,0.041666667,-0.110185199,1,0,0,1.4835,1,25,51,18,1,s,images/br_s.png,images/cb_s.png,,,,,,,,,,,,,,,,,,,,,,,,,
,,,,,,00098,2023-11-08_13h54.40.802,vbt_B2_day1,2022.2.4,Win32,60.02040694,,,,,,,,,,,,,,,,,,,0.041666667,-0.110185199,1,0,0,1.2329,2,0,52,6,1,g,images/br_g.png,images/cb_g.png,,,,,,,,,,,,,,,,,,,,,,,,,
,,,,,,00098,2023-11-08_13h54.40.802,vbt_B2_day1,2022.2.4,Win32,60.02040694,,,,,,,,,,,,,,,,,,,0.041666667,-0.110185199,1,0,0,0.8669,2,1,53,3,1,d,images/br_d.png,images/cb_d.png,,,,,,,,,,,,,,,,,,,,,,,,,
,,,,,,00098,2023-11-08_13h54.40.802,vbt_B2_day1,2022.2.4,Win32,60.02040694,,,,,,,,,,,,,,,,,,,0.041666667,-0.110185199,1,0,0,2.1164,2,2,54,4,1,e,images/br_e.png,images/cb_e.png,,,,,,,,,,,,,,,,,,,,,,,,,
,,,,,,00098,2023-11-08_13h54.40.802,vbt_B2_day1,2022.2.4,Win32,60.02040694,,,,,,,,,,,,,,,,,,,0.041666667,-0.110185199,1,0,0,0.7832,2,3,55,19,1,t,images/br_t.png,images/cb_t.png,,,,,,,,,,,,,,,,,,,,,,,,,
,,,,,,00098,2023-11-08_13h54.40.802,vbt_B2_day1,2022.2.4,Win32,60.02040694,,,,,,,,,,,,,,,,,,,0.041666667,-0.110185199,1,0,0,1.5497,2,4,56,22,1,w,images/br_w.png,images/cb_w.png,,,,,,,,,,,,,,,,,,,,,,,,,
,,,,,,00098,2023-11-08_13h54.40.802,vbt_B2_day1,2022.2.4,Win32,60.02040694,,,,,,,,,,,,,,,,,,,0.041666667,-0.110185199,1,0,0,0.3001,2,5,57,18,1,s,images/br_s.png,images/cb_s.png,,,,,,,,,,,,,,,,,,,,,,,,,
,,,,,,00098,2023-11-08_13h54.40.802,vbt_B2_day1,2022.2.4,Win32,60.02040694,,,,,,,,,,,,,,,,,,,0.041666667,-0.110185199,1,0,0,9.1485,2,6,58,5,1,f,images/br_f.png,images/cb_f.png,,,,,,,,,,,,,,,,,,,,,,,,,
,,,,,,00098,2023-11-08_13h54.40.802,vbt_B2_day1,2022.2.4,Win32,60.02040694,,,,,,,,,,,,,,,,,,,0.039814843,-0.112963005,1,0,0,1.3349,2,7,59,12,1,m,images/br_m.png,images/cb_m.png,,,,,,,,,,,,,,,,,,,,,,,,,
,,,,,,00098,2023-11-08_13h54.40.802,vbt_B2_day1,2022.2.4,Win32,60.02040694,,,,,,,,,,,,,,,,,,,0.002777806,-0.111111111,1,0,0,1.1667,2,8,60,17,1,r,images/br_r.png,images/cb_r.png,,,,,,,,,,,,,,,,,,,,,,,,,
,,,,,,00098,2023-11-08_13h54.40.802,vbt_B2_day1,2022.2.4,Win32,60.02040694,,,,,,,,,,,,,,,,,,,0.002777806,-0.111111111,1,0,0,5.05,2,9,61,13,1,n,images/br_n.png,images/cb_n.png,,,,,,,,,,,,,,,,,,,,,,,,,
,,,,,,00098,2023-11-08_13h54.40.802,vbt_B2_day1,2022.2.4,Win32,60.02040694,,,,,,,,,,,,,,,,,,,0.002777806,-0.111111111,1,0,0,2.1492,2,10,62,8,1,i,images/br_i.png,images/cb_i.png,,,,,,,,,,,,,,,,,,,,,,,,,
,,,,,,00098,2023-11-08_13h54.40.802,vbt_B2_day1,2022.2.4,Win32,60.02040694,,,,,,,,,,,,,,,,,,,0.002777806,-0.111111111,1,0,0,0.3669,2,11,63,16,1,q,images/br_q.png,images/cb_q.png,,,,,,,,,,,,,,,,,,,,,,,,,
,,,,,,00098,2023-11-08_13h54.40.802,vbt_B2_day1,2022.2.4,Win32,60.02040694,,,,,,,,,,,,,,,,,,,0.002777806,-0.112037023,1,0,0,5.5159,2,12,64,21,1,v,images/br_v.png,images/cb_v.png,,,,,,,,,,,,,,,,,,,,,,,,,
,,,,,,00098,2023-11-08_13h54.40.802,vbt_B2_day1,2022.2.4,Win32,60.02040694,,,,,,,,,,,,,,,,,,,0.002777806,-0.112037023,1,0,0,2.1167,2,13,65,10,1,k,images/br_k.png,images/cb_k.png,,,,,,,,,,,,,,,,,,,,,,,,,
,,,,,,00098,2023-11-08_13h54.40.802,vbt_B2_day1,2022.2.4,Win32,60.02040694,,,,,,,,,,,,,,,,,,,0.002777806,-0.112037023,1,0,0,1.7832,2,14,66,15,1,p,images/br_p.png,images/cb_p.png,,,,,,,,,,,,,,,,,,,,,,,,,
,,,,,,00098,2023-11-08_13h54.40.802,vbt_B2_day1,2022.2.4,Win32,60.02040694,,,,,,,,,,,,,,,,,,,0.002777806,-0.112037023,1,0,0,0.217,2,15,67,11,1,l,images/br_l.png,images/cb_l.png,,,,,,,,,,,,,,,,,,,,,,,,,
,,,,,,00098,2023-11-08_13h54.40.802,vbt_B2_day1,2022.2.4,Win32,60.02040694,,,,,,,,,,,,,,,,,,,-0.001851824,-0.112037023,1,0,0,5.2992,2,16,68,20,1,u,images/br_u.png,images/cb_u.png,,,,,,,,,,,,,,,,,,,,,,,,,
,,,,,,00098,2023-11-08_13h54.40.802,vbt_B2_day1,2022.2.4,Win32,60.02040694,,,,,,,,,,,,,,,,,,,-0.001851824,-0.112037023,1,0,0,1.4831,2,17,69,24,1,y,images/br_y.png,images/cb_y.png,,,,,,,,,,,,,,,,,,,,,,,,,
,,,,,,00098,2023-11-08_13h54.40.802,vbt_B2_day1,2022.2.4,Win32,60.02040694,,,,,,,,,,,,,,,,,,,-0.001851824,-0.112037023,1,0,0,0.3838,2,18,70,2,1,c,images/br_c.png,images/cb_c.png,,,,,,,,,,,,,,,,,,,,,,,,,
,,,,,,00098,2023-11-08_13h54.40.802,vbt_B2_day1,2022.2.4,Win32,60.02040694,,,,,,,,,,,,,,,,,,,-0.001851824,-0.112037023,1,0,0,7.3655,2,19,71,9,1,j,images/br_j.png,images/cb_j.png,,,,,,,,,,,,,,,,,,,,,,,,,
,,,,,,00098,2023-11-08_13h54.40.802,vbt_B2_day1,2022.2.4,Win32,60.02040694,,,,,,,,,,,,,,,,,,,-0.001851824,-0.112037023,1,0,0,0.5827,2,20,72,14,1,o,images/br_o.png,images/cb_o.png,,,,,,,,,,,,,,,,,,,,,,,,,
,,,,,,00098,2023-11-08_13h54.40.802,vbt_B2_day1,2022.2.4,Win32,60.02040694,,,,,,,,,,,,,,,,,,,-0.001851824,-0.112037023,1,0,0,1.5499,2,21,73,25,1,z,images/br_z.png,images/cb_z.png,,,,,,,,,,,,,,,,,,,,,,,,,
,,,,,,00098,2023-11-08_13h54.40.802,vbt_B2_day1,2022.2.4,Win32,60.02040694,,,,,,,,,,,,,,,,,,,-0.001851824,-0.112037023,1,0,0,4.833,2,22,74,7,1,h,images/br_h.png,images/cb_h.png,,,,,,,,,,,,,,,,,,,,,,,,,
,,,,,,00098,2023-11-08_13h54.40.802,vbt_B2_day1,2022.2.4,Win32,60.02040694,,,,,,,,,,,,,,,,,,,-0.001851824,-0.112037023,1,0,0,1.1496,2,23,75,0,1,a,images/br_a.png,images/cb_a.png,,,,,,,,,,,,,,,,,,,,,,,,,
,,,,,,00098,2023-11-08_13h54.40.802,vbt_B2_day1,2022.2.4,Win32,60.02040694,,,,,,,,,,,,,,,,,,,-0.001851824,-0.112037023,1,0,0,0.3169,2,24,76,23,1,x,images/br_x.png,images/cb_x.png,,,,,,,,,,,,,,,,,,,,,,,,,
,,,,,,00098,2023-11-08_13h54.40.802,vbt_B2_day1,2022.2.4,Win32,60.02040694,,,,,,,,,,,,,,,,,,,-0.001851824,-0.112037023,1,0,0,6.316,2,25,77,1,1,b,images/br_b.png,images/cb_b.png,,,,,,,,,,,,,,,,,,,,,,,,,
,,,,,,00098,2023-11-08_13h54.40.802,vbt_B2_day1,2022.2.4,Win32,60.02040694,,,,,,,,,,,,,,,,,,,-0.001851824,-0.112037023,1,0,0,1.4665,3,0,78,12,1,m,images/br_m.png,images/cb_m.png,,,,,,,,,,,,,,,,,,,,,,,,,
,,,,,,00098,2023-11-08_13h54.40.802,vbt_B2_day1,2022.2.4,Win32,60.02040694,,,,,,,,,,,,,,,,,,,-0.001851824,-0.112037023,1,0,0,0.8333,3,1,79,25,1,z,images/br_z.png,images/cb_z.png,,,,,,,,,,,,,,,,,,,,,,,,,
,,,,,,00098,2023-11-08_13h54.40.802,vbt_B2_day1,2022.2.4,Win32,60.02040694,,,,,,,,,,,,,,,,,,,-0.001851824,-0.112037023,1,0,0,0.7496,3,2,80,10,1,k,images/br_k.png,images/cb_k.png,,,,,,,,,,,,,,,,,,,,,,,,,
,,,,,,00098,2023-11-08_13h54.40.802,vbt_B2_day1,2022.2.4,Win32,60.02040694,,,,,,,,,,,,,,,,,,,-0.001851824,-0.112037023,1,0,0,7.5327,3,3,81,3,1,d,images/br_d.png,images/cb_d.png,,,,,,,,,,,,,,,,,,,,,,,,,
,,,,,,00098,2023-11-08_13h54.40.802,vbt_B2_day1,2022.2.4,Win32,60.02040694,,,,,,,,,,,,,,,,,,,-0.001851824,-0.112037023,1,0,0,0.3166,3,4,82,22,1,w,images/br_w.png,images/cb_w.png,,,,,,,,,,,,,,,,,,,,,,,,,
,,,,,,00098,2023-11-08_13h54.40.802,vbt_B2_day1,2022.2.4,Win32,60.02040694,,,,,,,,,,,,,,,,,,,-0.001851824,-0.112037023,1,0,0,0.3335,3,5,83,24,1,y,images/br_y.png,images/cb_y.png,,,,,,,,,,,,,,,,,,,,,,,,,
,,,,,,00098,2023-11-08_13h54.40.802,vbt_B2_day1,2022.2.4,Win32,60.02040694,,,,,,,,,,,,,,,,,,,-0.001851824,-0.112037023,1,0,0,8.6989,3,6,84,7,1,h,images/br_h.png,images/cb_h.png,,,,,,,,,,,,,,,,,,,,,,,,,
,,,,,,00098,2023-11-08_13h54.40.802,vbt_B2_day1,2022.2.4,Win32,60.02040694,,,,,,,,,,,,,,,,,,,-0.001851824,-0.112037023,1,0,0,3.7015,3,7,85,15,1,p,images/br_p.png,images/cb_p.png,,,,,,,,,,,,,,,,,,,,,,,,,
,,,,,,00098,2023-11-08_13h54.40.802,vbt_B2_day1,2022.2.4,Win32,60.02040694,,,,,,,,,,,,,,,,,,,-0.001851824,-0.112037023,1,0,0,0.7166,3,8,86,4,1,e,images/br_e.png,images/cb_e.png,,,,,,,,,,,,,,,,,,,,,,,,,
,,,,,,00098,2023-11-08_13h54.40.802,vbt_B2_day1,2022.2.4,Win32,60.02040694,,,,,,,,,,,,,,,,,,,-0.001851824,-0.112037023,1,0,0,0.4004,3,9,87,6,1,g,images/br_g.png,images/cb_g.png,,,,,,,,,,,,,,,,,,,,,,,,,
,,,,,,00098,2023-11-08_13h54.40.802,vbt_B2_day1,2022.2.4,Win32,60.02040694,,,,,,,,,,,,,,,,,,,-0.001851824,-0.112037023,1,0,0,3.266,3,10,88,13,1,n,images/br_n.png,images/cb_n.png,,,,,,,,,,,,,,,,,,,,,,,,,
,,,,,,00098,2023-11-08_13h54.40.802,vbt_B2_day1,2022.2.4,Win32,60.02040694,,,,,,,,,,,,,,,,,,,-0.001851824,-0.112037023,1,0,0,0.8499,3,11,89,2,1,c,images/br_c.png,images/cb_c.png,,,,,,,,,,,,,,,,,,,,,,,,,
,,,,,,00098,2023-11-08_13h54.40.802,vbt_B2_day1,2022.2.4,Win32,60.02040694,,,,,,,,,,,,,,,,,,,-0.001851824,-0.112037023,1,0,0,2.0165,3,12,90,14,1,o,images/br_o.png,images/cb_o.png,,,,,,,,,,,,,,,,,,,,,,,,,
,,,,,,00098,2023-11-08_13h54.40.802,vbt_B2_day1,2022.2.4,Win32,60.02040694,,,,,,,,,,,,,,,,,,,-0.001851824,-0.112037023,1,0,0,5.283,3,13,91,5,1,f,images/br_f.png,images/cb_f.png,,,,,,,,,,,,,,,,,,,,,,,,,
,,,,,,00098,2023-11-08_13h54.40.802,vbt_B2_day1,2022.2.4,Win32,60.02040694,,,,,,,,,,,,,,,,,,,-0.001851824,-0.112037023,1,0,0,0.7167,3,14,92,11,1,l,images/br_l.png,images/cb_l.png,,,,,,,,,,,,,,,,,,,,,,,,,
,,,,,,00098,2023-11-08_13h54.40.802,vbt_B2_day1,2022.2.4,Win32,60.02040694,,,,,,,,,,,,,,,,,,,-0.001851824,-0.112037023,1,0,0,2.333,3,15,93,23,1,x,images/br_x.png,images/cb_x.png,,,,,,,,,,,,,,,,,,,,,,,,,
,,,,,,00098,2023-11-08_13h54.40.802,vbt_B2_day1,2022.2.4,Win32,60.02040694,,,,,,,,,,,,,,,,,,,-0.001851824,-0.112037023,1,0,0,1.5839,3,16,94,19,1,t,images/br_t.png,images/cb_t.png,,,,,,,,,,,,,,,,,,,,,,,,,
,,,,,,00098,2023-11-08_13h54.40.802,vbt_B2_day1,2022.2.4,Win32,60.02040694,,,,,,,,,,,,,,,,,,,-0.001851824,-0.112037023,1,0,0,4.7826,3,17,95,8,1,i,images/br_i.png,images/cb_i.png,,,,,,,,,,,,,,,,,,,,,,,,,
,,,,,,00098,2023-11-08_13h54.40.802,vbt_B2_day1,2022.2.4,Win32,60.02040694,,,,,,,,,,,,,,,,,,,-0.001851824,-0.112037023,1,0,0,1,3,18,96,1,1,b,images/br_b.png,images/cb_b.png,,,,,,,,,,,,,,,,,,,,,,,,,
,,,,,,00098,2023-11-08_13h54.40.802,vbt_B2_day1,2022.2.4,Win32,60.02040694,,,,,,,,,,,,,,,,,,,-0.001851824,-0.112037023,1,0,0,0.3003,3,19,97,17,1,r,images/br_r.png,images/cb_r.png,,,,,,,,,,,,,,,,,,,,,,,,,
,,,,,,00098,2023-11-08_13h54.40.802,vbt_B2_day1,2022.2.4,Win32,60.02040694,,,,,,,,,,,,,,,,,,,-0.001851824,-0.112037023,1,0,0,0.8499,3,20,98,9,1,j,images/br_j.png,images/cb_j.png,,,,,,,,,,,,,,,,,,,,,,,,,
,,,,,,00098,2023-11-08_13h54.40.802,vbt_B2_day1,2022.2.4,Win32,60.02040694,,,,,,,,,,,,,,,,,,,-0.001851824,-0.112037023,1,0,0,6.3325,3,21,99,20,1,u,images/br_u.png,images/cb_u.png,,,,,,,,,,,,,,,,,,,,,,,,,
,,,,,,00098,2023-11-08_13h54.40.802,vbt_B2_day1,2022.2.4,Win32,60.02040694,,,,,,,,,,,,,,,,,,,-0.001851824,-0.112037023,1,0,0,0.4498,3,22,100,16,1,q,images/br_q.png,images/cb_q.png,,,,,,,,,,,,,,,,,,,,,,,,,
,,,,,,00098,2023-11-08_13h54.40.802,vbt_B2_day1,2022.2.4,Win32,60.02040694,,,,,,,,,,,,,,,,,,,-0.013888889,-0.075925933,1,0,0,0.833,3,23,101,18,1,s,images/br_s.png,images/cb_s.png,,,,,,,,,,,,,,,,,,,,,,,,,
,,,,,,00098,2023-11-08_13h54.40.802,vbt_B2_day1,2022.2.4,Win32,60.02040694,,,,,,,,,,,,,,,,,,,-0.011111083,-0.10092594,1,0,0,3.1326,3,24,102,21,1,v,images/br_v.png,images/cb_v.png,,,,,,,,,,,,,,,,,,,,,,,,,
,,,,,,00098,2023-11-08_13h54.40.802,vbt_B2_day1,2022.2.4,Win32,60.02040694,,,,,,,,,,,,,,,,,,,-0.011111083,-0.10092594,1,0,0,0.7998,3,25,103,0,1,a,images/br_a.png,images/cb_a.png,,,,,,,,,,,,,,,,,,,,,,,,,
,,,,,,00098,2023-11-08_13h54.40.802,vbt_B2_day1,2022.2.4,Win32,60.02040694,,,,,,,,,,,,,,,,,,,-0.011111083,-0.10092594,1,0,0,1.6826,4,0,104,23,1,x,images/br_x.png,images/cb_x.png,,,,,,,,,,,,,,,,,,,,,,,,,
,,,,,,00098,2023-11-08_13h54.40.802,vbt_B2_day1,2022.2.4,Win32,60.02040694,,,,,,,,,,,,,,,,,,,-0.011111083,-0.10092594,1,0,0,0.95,4,1,105,18,1,s,images/br_s.png,images/cb_s.png,,,,,,,,,,,,,,,,,,,,,,,,,
,,,,,,00098,2023-11-08_13h54.40.802,vbt_B2_day1,2022.2.4,Win32,60.02040694,,,,,,,,,,,,,,,,,,,-0.011111083,-0.10092594,1,0,0,1.6174,4,2,106,19,1,t,images/br_t.png,images/cb_t.png,,,,,,,,,,,,,,,,,,,,,,,,,
,,,,,,00098,2023-11-08_13h54.40.802,vbt_B2_day1,2022.2.4,Win32,60.02040694,,,,,,,,,,,,,,,,,,,-0.011111083,-0.10092594,1,0,0,0.9165,4,3,107,5,1,f,images/br_f.png,images/cb_f.png,,,,,,,,,,,,,,,,,,,,,,,,,
,,,,,,00098,2023-11-08_13h54.40.802,vbt_B2_day1,2022.2.4,Win32,60.02040694,,,,,,,,,,,,,,,,,,,-0.011111083,-0.10092594,1,0,0,0.0333,4,4,108,2,1,c,images/br_c.png,images/cb_c.png,,,,,,,,,,,,,,,,,,,,,,,,,
,,,,,,00098,2023-11-08_13h54.40.802,vbt_B2_day1,2022.2.4,Win32,60.02040694,,,,,,,,,,,,,,,,,,,-0.011111083,-0.10092594,1,0,0,0.2833,4,5,109,10,1,k,images/br_k.png,images/cb_k.png,,,,,,,,,,,,,,,,,,,,,,,,,
,,,,,,00098,2023-11-08_13h54.40.802,vbt_B2_day1,2022.2.4,Win32,60.02040694,,,,,,,,,,,,,,,,,,,-0.011111083,-0.10092594,1,0,0,0.1219,4,6,110,11,1,l,images/br_l.png,images/cb_l.png,,,,,,,,,,,,,,,,,,,,,,,,,
,,,,,,00098,2023-11-08_13h54.40.802,vbt_B2_day1,2022.2.4,Win32,60.02040694,,,,,,,,,,,,,,,,,,,-0.011111083,-0.10092594,1,0,0,0.983,4,7,111,16,1,q,images/br_q.png,images/cb_q.png,,,,,,,,,,,,,,,,,,,,,,,,,
,,,,,,00098,2023-11-08_13h54.40.802,vbt_B2_day1,2022.2.4,Win32,60.02040694,,,,,,,,,,,,,,,,,,,-0.011111083,-0.10092594,1,0,0,0.1161,4,8,112,6,1,g,images/br_g.png,images/cb_g.png,,,,,,,,,,,,,,,,,,,,,,,,,
,,,,,,00098,2023-11-08_13h54.40.802,vbt_B2_day1,2022.2.4,Win32,60.02040694,,,,,,,,,,,,,,,,,,,-0.011111083,-0.10092594,1,0,0,5.8159,4,9,113,4,1,e,images/br_e.png,images/cb_e.png,,,,,,,,,,,,,,,,,,,,,,,,,
,,,,,,00098,2023-11-08_13h54.40.802,vbt_B2_day1,2022.2.4,Win32,60.02040694,,,,,,,,,,,,,,,,,,,-0.011111083,-0.10092594,1,0,0,0.5168,4,10,114,9,1,j,images/br_j.png,images/cb_j.png,,,,,,,,,,,,,,,,,,,,,,,,,
,,,,,,00098,2023-11-08_13h54.40.802,vbt_B2_day1,2022.2.4,Win32,60.02040694,,,,,,,,,,,,,,,,,,,-0.011111083,-0.10092594,1,0,0,1.533,4,11,115,20,1,u,images/br_u.png,images/cb_u.png,,,,,,,,,,,,,,,,,,,,,,,,,
,,,,,,00098,2023-11-08_13h54.40.802,vbt_B2_day1,2022.2.4,Win32,60.02040694,,,,,,,,,,,,,,,,,,,-0.011111083,-0.10092594,1,0,0,3.4994,4,12,116,12,1,m,images/br_m.png,images/cb_m.png,,,,,,,,,,,,,,,,,,,,,,,,,
,,,,,,00098,2023-11-08_13h54.40.802,vbt_B2_day1,2022.2.4,Win32,60.02040694,,,,,,,,,,,,,,,,,,,-0.011111083,-0.10092594,1,0,0,0.517,4,13,117,1,1,b,images/br_b.png,images/cb_b.png,,,,,,,,,,,,,,,,,,,,,,,,,
,,,,,,00098,2023-11-08_13h54.40.802,vbt_B2_day1,2022.2.4,Win32,60.02040694,,,,,,,,,,,,,,,,,,,-0.011111083,-0.10092594,1,0,0,0.9499,4,14,118,25,1,z,images/br_z.png,images/cb_z.png,,,,,,,,,,,,,,,,,,,,,,,,,
,,,,,,00098,2023-11-08_13h54.40.802,vbt_B2_day1,2022.2.4,Win32,60.02040694,,,,,,,,,,,,,,,,,,,-0.011111083,-0.10092594,1,0,0,0.4166,4,15,119,17,1,r,images/br_r.png,images/cb_r.png,,,,,,,,,,,,,,,,,,,,,,,,,
,,,,,,00098,2023-11-08_13h54.40.802,vbt_B2_day1,2022.2.4,Win32,60.02040694,,,,,,,,,,,,,,,,,,,-0.011111083,-0.10092594,1,0,0,0.933,4,16,120,15,1,p,images/br_p.png,images/cb_p.png,,,,,,,,,,,,,,,,,,,,,,,,,
,,,,,,00098,2023-11-08_13h54.40.802,vbt_B2_day1,2022.2.4,Win32,60.02040694,,,,,,,,,,,,,,,,,,,-0.011111083,-0.10092594,1,0,0,7.4323,4,17,121,3,1,d,images/br_d.png,images/cb_d.png,,,,,,,,,,,,,,,,,,,,,,,,,
,,,,,,00098,2023-11-08_13h54.40.802,vbt_B2_day1,2022.2.4,Win32,60.02040694,,,,,,,,,,,,,,,,,,,-0.011111083,-0.10092594,1,0,0,1.3834,4,18,122,14,1,o,images/br_o.png,images/cb_o.png,,,,,,,,,,,,,,,,,,,,,,,,,
,,,,,,00098,2023-11-08_13h54.40.802,vbt_B2_day1,2022.2.4,Win32,60.02040694,,,,,,,,,,,,,,,,,,,-0.011111083,-0.10092594,1,0,0,2.4332,4,19,123,21,1,v,images/br_v.png,images/cb_v.png,,,,,,,,,,,,,,,,,,,,,,,,,
,,,,,,00098,2023-11-08_13h54.40.802,vbt_B2_day1,2022.2.4,Win32,60.02040694,,,,,,,,,,,,,,,,,,,-0.011111083,-0.10092594,1,0,0,0.5998,4,20,124,0,1,a,images/br_a.png,images/cb_a.png,,,,,,,,,,,,,,,,,,,,,,,,,
,,,,,,00098,2023-11-08_13h54.40.802,vbt_B2_day1,2022.2.4,Win32,60.02040694,,,,,,,,,,,,,,,,,,,-0.011111083,-0.10092594,1,0,0,0.05,4,21,125,8,1,i,images/br_i.png,images/cb_i.png,,,,,,,,,,,,,,,,,,,,,,,,,
,,,,,,00098,2023-11-08_13h54.40.802,vbt_B2_day1,2022.2.4,Win32,60.02040694,,,,,,,,,,,,,,,,,,,-0.011111083,-0.10092594,1,0,0,1.4498,4,22,126,22,1,w,images/br_w.png,images/cb_w.png,,,,,,,,,,,,,,,,,,,,,,,,,
,,,,,,00098,2023-11-08_13h54.40.802,vbt_B2_day1,2022.2.4,Win32,60.02040694,,,,,,,,,,,,,,,,,,,-0.011111083,-0.10092594,1,0,0,0.8832,4,23,127,24,1,y,images/br_y.png,images/cb_y.png,,,,,,,,,,,,,,,,,,,,,,,,,
,,,,,,00098,2023-11-08_13h54.40.802,vbt_B2_day1,2022.2.4,Win32,60.02040694,,,,,,,,,,,,,,,,,,,-0.011111083,-0.10092594,1,0,0,3.7995,4,24,128,13,1,n,images/br_n.png,images/cb_n.png,,,,,,,,,,,,,,,,,,,,,,,,,
,,,,,,00098,2023-11-08_13h54.40.802,vbt_B2_day1,2022.2.4,Win32,60.02040694,,,,,,,,,,,,,,,,,,,-0.011111083,-0.10092594,1,0,0,5.5328,4,25,129,7,1,h,images/br_h.png,images/cb_h.png,,,,,,,,,,,,,,,,,,,,,,,,,
,,,,,,00098,2023-11-08_13h54.40.802,vbt_B2_day1,2022.2.4,Win32,60.02040694,,,,,,,,,,,,,,,,,,,-0.011111083,-0.10092594,1,0,0,1.6168,5,0,130,21,1,v,images/br_v.png,images/cb_v.png,,,,,,,,,,,,,,,,,,,,,,,,,
,,,,,,00098,2023-11-08_13h54.40.802,vbt_B2_day1,2022.2.4,Win32,60.02040694,,,,,,,,,,,,,,,,,,,-0.011111083,-0.10092594,1,0,0,0.0829,5,1,131,14,1,o,images/br_o.png,images/cb_o.png,,,,,,,,,,,,,,,,,,,,,,,,,
,,,,,,00098,2023-11-08_13h54.40.802,vbt_B2_day1,2022.2.4,Win32,60.02040694,,,,,,,,,,,,,,,,,,,-0.011111083,-0.10092594,1,0,0,0.8503,5,2,132,16,1,q,images/br_q.png,images/cb_q.png,,,,,,,,,,,,,,,,,,,,,,,,,
,,,,,,00098,2023-11-08_13h54.40.802,vbt_B2_day1,2022.2.4,Win32,60.02040694,,,,,,,,,,,,,,,,,,,-0.011111083,-0.10092594,1,0,0,0.8163,5,3,133,18,1,s,images/br_s.png,images/cb_s.png,,,,,,,,,,,,,,,,,,,,,,,,,
,,,,,,00098,2023-11-08_13h54.40.802,vbt_B2_day1,2022.2.4,Win32,60.02040694,,,,,,,,,,,,,,,,,,,-0.011111083,-0.10092594,1,0,0,0.4832,5,4,134,4,1,e,images/br_e.png,images/cb_e.png,,,,,,,,,,,,,,,,,,,,,,,,,
,,,,,,00098,2023-11-08_13h54.40.802,vbt_B2_day1,2022.2.4,Win32,60.02040694,,,,,,,,,,,,,,,,,,,-0.011111083,-0.10092594,1,0,0,1.7999,5,5,135,3,1,d,images/br_d.png,images/cb_d.png,,,,,,,,,,,,,,,,,,,,,,,,,
,,,,,,00098,2023-11-08_13h54.40.802,vbt_B2_day1,2022.2.4,Win32,60.02040694,,,,,,,,,,,,,,,,,,,-0.011111083,-0.10092594,1,0,0,0.4996,5,6,136,23,1,x,images/br_x.png,images/cb_x.png,,,,,,,,,,,,,,,,,,,,,,,,,
,,,,,,00098,2023-11-08_13h54.40.802,vbt_B2_day1,2022.2.4,Win32,60.02040694,,,,,,,,,,,,,,,,,,,-0.011111083,-0.10092594,1,0,0,0.6663,5,7,137,10,1,k,images/br_k.png,images/cb_k.png,,,,,,,,,,,,,,,,,,,,,,,,,
,,,,,,00098,2023-11-08_13h54.40.802,vbt_B2_day1,2022.2.4,Win32,60.02040694,,,,,,,,,,,,,,,,,,,-0.011111083,-0.10092594,1,0,0,2.3498,5,8,138,12,1,m,images/br_m.png,images/cb_m.png,,,,,,,,,,,,,,,,,,,,,,,,,
,,,,,,00098,2023-11-08_13h54.40.802,vbt_B2_day1,2022.2.4,Win32,60.02040694,,,,,,,,,,,,,,,,,,,-0.011111083,-0.10092594,1,0,0,1.3829,5,9,139,19,1,t,images/br_t.png,images/cb_t.png,,,,,,,,,,,,,,,,,,,,,,,,,
,,,,,,00098,2023-11-08_13h54.40.802,vbt_B2_day1,2022.2.4,Win32,60.02040694,,,,,,,,,,,,,,,,,,,-0.011111083,-0.10092594,1,0,0,1.3665,5,10,140,6,1,g,images/br_g.png,images/cb_g.png,,,,,,,,,,,,,,,,,,,,,,,,,
,,,,,,00098,2023-11-08_13h54.40.802,vbt_B2_day1,2022.2.4,Win32,60.02040694,,,,,,,,,,,,,,,,,,,-0.011111083,-0.10092594,1,0,0,0.7997,5,11,141,15,1,p,images/br_p.png,images/cb_p.png,,,,,,,,,,,,,,,,,,,,,,,,,
,,,,,,00098,2023-11-08_13h54.40.802,vbt_B2_day1,2022.2.4,Win32,60.02040694,,,,,,,,,,,,,,,,,,,-0.011111083,-0.10092594,1,0,0,2.7498,5,12,142,8,1,i,images/br_i.png,images/cb_i.png,,,,,,,,,,,,,,,,,,,,,,,,,
,,,,,,00098,2023-11-08_13h54.40.802,vbt_B2_day1,2022.2.4,Win32,60.02040694,,,,,,,,,,,,,,,,,,,-0.011111083,-0.10092594,1,0,0,0.3994,5,13,143,7,1,h,images/br_h.png,images/cb_h.png,,,,,,,,,,,,,,,,,,,,,,,,,
,,,,,,00098,2023-11-08_13h54.40.802,vbt_B2_day1,2022.2.4,Win32,60.02040694,,,,,,,,,,,,,,,,,,,-0.011111083,-0.10092594,1,0,0,0.9666,5,14,144,9,1,j,images/br_j.png,images/cb_j.png,,,,,,,,,,,,,,,,,,,,,,,,,
,,,,,,00098,2023-11-08_13h54.40.802,vbt_B2_day1,2022.2.4,Win32,60.02040694,,,,,,,,,,,,,,,,,,,-0.011111083,-0.10092594,1,0,0,5.7824,5,15,145,22,1,w,images/br_w.png,images/cb_w.png,,,,,,,,,,,,,,,,,,,,,,,,,
,,,,,,00098,2023-11-08_13h54.40.802,vbt_B2_day1,2022.2.4,Win32,60.02040694,,,,,,,,,,,,,,,,,,,-0.011111083,-0.10092594,1,0,0,0.0667,5,16,146,24,1,y,images/br_y.png,images/cb_y.png,,,,,,,,,,,,,,,,,,,,,,,,,
,,,,,,00098,2023-11-08_13h54.40.802,vbt_B2_day1,2022.2.4,Win32,60.02040694,,,,,,,,,,,,,,,,,,,-0.011111083,-0.10092594,1,0,0,0.1168,5,17,147,1,1,b,images/br_b.png,images/cb_b.png,,,,,,,,,,,,,,,,,,,,,,,,,
,,,,,,00098,2023-11-08_13h54.40.802,vbt_B2_day1,2022.2.4,Win32,60.02040694,,,,,,,,,,,,,,,,,,,-0.011111083,-0.10092594,1,0,0,4.332,5,18,148,13,1,n,images/br_n.png,images/cb_n.png,,,,,,,,,,,,,,,,,,,,,,,,,
,,,,,,00098,2023-11-08_13h54.40.802,vbt_B2_day1,2022.2.4,Win32,60.02040694,,,,,,,,,,,,,,,,,,,-0.011111083,-0.10092594,1,0,0,0.2334,5,19,149,2,1,c,images/br_c.png,images/cb_c.png,,,,,,,,,,,,,,,,,,,,,,,,,
,,,,,,00098,2023-11-08_13h54.40.802,vbt_B2_day1,2022.2.4,Win32,60.02040694,,,,,,,,,,,,,,,,,,,-0.011111083,-0.10092594,1,0,0,3.7329,5,20,150,20,1,u,images/br_u.png,images/cb_u.png,,,,,,,,,,,,,,,,,,,,,,,,,
,,,,,,00098,2023-11-08_13h54.40.802,vbt_B2_day1,2022.2.4,Win32,60.02040694,,,,,,,,,,,,,,,,,,,-0.011111083,-0.10092594,1,0,0,0.0334,5,21,151,17,1,r,images/br_r.png,images/cb_r.png,,,,,,,,,,,,,,,,,,,,,,,,,
,,,,,,00098,2023-11-08_13h54.40.802,vbt_B2_day1,2022.2.4,Win32,60.02040694,,,,,,,,,,,,,,,,,,,-0.011111083,-0.10092594,1,0,0,0.9161,5,22,152,0,1,a,images/br_a.png,images/cb_a.png,,,,,,,,,,,,,,,,,,,,,,,,,
,,,,,,00098,2023-11-08_13h54.40.802,vbt_B2_day1,2022.2.4,Win32,60.02040694,,,,,,,,,,,,,,,,,,,-0.011111083,-0.10092594,1,0,0,0.9001,5,23,153,11,1,l,images/br_l.png,images/cb_l.png,,,,,,,,,,,,,,,,,,,,,,,,,
,,,,,,00098,2023-11-08_13h54.40.802,vbt_B2_day1,2022.2.4,Win32,60.02040694,,,,,,,,,,,,,,,,,,,-0.011111083,-0.10092594,1,0,0,6.8167,5,24,154,5,1,f,images/br_f.png,images/cb_f.png,,,,,,,,,,,,,,,,,,,,,,,,,
,,,,,,00098,2023-11-08_13h54.40.802,vbt_B2_day1,2022.2.4,Win32,60.02040694,,,,,,,,,,,,,,,,,,,-0.011111083,-0.10092594,1,0,0,6.6662,5,25,155,25,1,z,images/br_z.png,images/cb_z.png,,,,,,,,,,,,,,,,,,,,,,,,,
,,,,,,00098,2023-11-08_13h54.40.802,vbt_B2_day1,2022.2.4,Win32,60.02040694,,,,,,,,,,,,,,,,,,,-0.011111083,-0.10092594,1,0,0,0.5669,6,0,156,2,1,c,images/br_c.png,images/cb_c.png,,,,,,,,,,,,,,,,,,,,,,,,,
,,,,,,00098,2023-11-08_13h54.40.802,vbt_B2_day1,2022.2.4,Win32,60.02040694,,,,,,,,,,,,,,,,,,,-0.011111083,-0.10092594,1,0,0,0.7673,6,1,157,9,1,j,images/br_j.png,images/cb_j.png,,,,,,,,,,,,,,,,,,,,,,,,,
,,,,,,00098,2023-11-08_13h54.40.802,vbt_B2_day1,2022.2.4,Win32,60.02040694,,,,,,,,,,,,,,,,,,,-0.011111083,-0.10092594,1,0,0,0.4002,6,2,158,18,1,s,images/br_s.png,images/cb_s.png,,,,,,,,,,,,,,,,,,,,,,,,,
,,,,,,00098,2023-11-08_13h54.40.802,vbt_B2_day1,2022.2.4,Win32,60.02040694,,,,,,,,,,,,,,,,,,,-0.011111083,-0.10092594,1,0,0,1.6996,6,3,159,5,1,f,images/br_f.png,images/cb_f.png,,,,,,,,,,,,,,,,,,,,,,,,,
,,,,,,00098,2023-11-08_13h54.40.802,vbt_B2_day1,2022.2.4,Win32,60.02040694,,,,,,,,,,,,,,,,,,,-0.011111083,-0.10092594,1,0,0,0.4329,6,4,160,23,1,x,images/br_x.png,images/cb_x.png,,,,,,,,,,,,,,,,,,,,,,,,,
,,,,,,00098,2023-11-08_13h54.40.802,vbt_B2_day1,2022.2.4,Win32,60.02040694,,,,,,,,,,,,,,,,,,,-0.011111083,-0.10092594,1,0,0,1.9328,6,5,161,12,1,m,images/br_m.png,images/cb_m.png,,,,,,,,,,,,,,,,,,,,,,,,,
,,,,,,00098,2023-11-08_13h54.40.802,vbt_B2_day1,2022.2.4,Win32,60.02040694,,,,,,,,,,,,,,,,,,,-0.011111083,-0.10092594,1,0,0,0.0671,6,6,162,21,1,v,images/br_v.png,images/cb_v.png,,,,,,,,,,,,,,,,,,,,,,,,,
,,,,,,00098,2023-11-08_13h54.40.802,vbt_B2_day1,2022.2.4,Win32,60.02040694,,,,,,,,,,,,,,,,,,,-0.011111083,-0.10092594,1,0,0,0.4162,6,7,163,7,1,h,images/br_h.png,images/cb_h.png,,,,,,,,,,,,,,,,,,,,,,,,,
,,,,,,00098,2023-11-08_13h54.40.802,vbt_B2_day1,2022.2.4,Win32,60.02040694,,,,,,,,,,,,,,,,,,,-0.011111083,-0.10092594,1,0,0,1.0661,6,8,164,14,1,o,images/br_o.png,images/cb_o.png,,,,,,,,,,,,,,,,,,,,,,,,,
,,,,,,00098,2023-11-08_13h54.40.802,vbt_B2_day1,2022.2.4,Win32,60.02040694,,,,,,,,,,,,,,,,,,,-0.011111083,-0.10092594,1,0,0,1.3504,6,9,165,11,1,l,images/br_l.png,images/cb_l.png,,,,,,,,,,,,,,,,,,,,,,,,,
,,,,,,00098,2023-11-08_13h54.40.802,vbt_B2_day1,2022.2.4,Win32,60.02040694,,,,,,,,,,,,,,,,,,,-0.011111083,-0.10092594,1,0,0,5.2996,6,10,166,3,1,d,images/br_d.png,images/cb_d.png,,,,,,,,,,,,,,,,,,,,,,,,,
,,,,,,00098,2023-11-08_13h54.40.802,vbt_B2_day1,2022.2.4,Win32,60.02040694,,,,,,,,,,,,,,,,,,,-0.011111083,-0.10092594,1,0,0,0.05,6,11,167,8,1,i,images/br_i.png,images/cb_i.png,,,,,,,,,,,,,,,,,,,,,,,,,
,,,,,,00098,2023-11-08_13h54.40.802,vbt_B2_day1,2022.2.4,Win32,60.02040694,,,,,,,,,,,,,,,,,,,-0.011111083,-0.10092594,1,0,0,0.5168,6,12,168,19,1,t,images/br_t.png,images/cb_t.png,,,,,,,,,,,,,,,,,,,,,,,,,
,,,,,,00098,2023-11-08_13h54.40.802,vbt_B2_day1,2022.2.4,Win32,60.02040694,,,,,,,,,,,,,,,,,,,-0.011111083,-0.10092594,1,0,0,0.6006,6,13,169,16,1,q,images/br_q.png,images/cb_q.png,,,,,,,,,,,,,,,,,,,,,,,,,
,,,,,,00098,2023-11-08_13h54.40.802,vbt_B2_day1,2022.2.4,Win32,60.02040694,,,,,,,,,,,,,,,,,,,-0.011111083,-0.10092594,1,0,0,0.4164,6,14,170,15,1,p,images/br_p.png,images/cb_p.png,,,,,,,,,,,,,,,,,,,,,,,,,
,,,,,,00098,2023-11-08_13h54.40.802,vbt_B2_day1,2022.2.4,Win32,60.02040694,,,,,,,,,,,,,,,,,,,-0.011111083,-0.10092594,1,0,0,3.6222,6,15,171,13,1,n,images/br_n.png,images/cb_n.png,,,,,,,,,,,,,,,,,,,,,,,,,
,,,,,,00098,2023-11-08_13h54.40.802,vbt_B2_day1,2022.2.4,Win32,60.02040694,,,,,,,,,,,,,,,,,,,-0.011111083,-0.10092594,1,0,0,0.9165,6,16,172,17,1,r,images/br_r.png,images/cb_r.png,,,,,,,,,,,,,,,,,,,,,,,,,
,,,,,,00098,2023-11-08_13h54.40.802,vbt_B2_day1,2022.2.4,Win32,60.02040694,,,,,,,,,,,,,,,,,,,-0.011111083,-0.10092594,1,0,0,1.3832,6,17,173,0,1,a,images/br_a.png,images/cb_a.png,,,,,,,,,,,,,,,,,,,,,,,,,
,,,,,,00098,2023-11-08_13h54.40.802,vbt_B2_day1,2022.2.4,Win32,60.02040694,,,,,,,,,,,,,,,,,,,-0.011111083,-0.10092594,1,0,0,2.0328,6,18,174,6,1,g,images/br_g.png,images/cb_g.png,,,,,,,,,,,,,,,,,,,,,,,,,
,,,,,,00098,2023-11-08_13h54.40.802,vbt_B2_day1,2022.2.4,Win32,60.02040694,,,,,,,,,,,,,,,,,,,-0.010185171,-0.087962963,1,0,0,2.4336,6,19,175,24,1,y,images/br_y.png,images/cb_y.png,,,,,,,,,,,,,,,,,,,,,,,,,
,,,,,,00098,2023-11-08_13h54.40.802,vbt_B2_day1,2022.2.4,Win32,60.02040694,,,,,,,,,,,,,,,,,,,-0.010185171,-0.087962963,1,0,0,10.8328,6,20,176,20,1,u,images/br_u.png,images/cb_u.png,,,,,,,,,,,,,,,,,,,,,,,,,
,,,,,,00098,2023-11-08_13h54.40.802,vbt_B2_day1,2022.2.4,Win32,60.02040694,,,,,,,,,,,,,,,,,,,-0.010185171,-0.087962963,1,0,0,1.0002,6,21,177,22,1,w,images/br_w.png,images/cb_w.png,,,,,,,,,,,,,,,,,,,,,,,,,
,,,,,,00098,2023-11-08_13h54.40.802,vbt_B2_day1,2022.2.4,Win32,60.02040694,,,,,,,,,,,,,,,,,,,-0.010185171,-0.087962963,1,0,0,0.4328,6,22,178,1,1,b,images/br_b.png,images/cb_b.png,,,,,,,,,,,,,,,,,,,,,,,,,
,,,,,,00098,2023-11-08_13h54.40.802,vbt_B2_day1,2022.2.4,Win32,60.02040694,,,,,,,,,,,,,,,,,,,-0.010185171,-0.087962963,1,0,0,2.9494,6,23,179,25,1,z,images/br_z.png,images/cb_z.png,,,,,,,,,,,,,,,,,,,,,,,,,
,,,,,,00098,2023-11-08_13h54.40.802,vbt_B2_day1,2022.2.4,Win32,60.02040694,,,,,,,,,,,,,,,,,,,-0.010185171,-0.087962963,1,0,0,0.5832,6,24,180,4,1,e,images/br_e.png,images/cb_e.png,,,,,,,,,,,,,,,,,,,,,,,,,
,,,,,,00098,2023-11-08_13h54.40.802,vbt_B2_day1,2022.2.4,Win32,60.02040694,,,,,,,,,,,,,,,,,,,-0.010185171,-0.087962963,1,0,0,0.4833,6,25,181,10,1,k,images/br_k.png,images/cb_k.png,,,,,,,,,,,,,,,,,,,,,,,,,
,,,,,,00098,2023-11-08_13h54.40.802,vbt_B2_day1,2022.2.4,Win32,60.02040694,,,,,,,,,,,,,,,,,,,,,,,,,,,,,,,,,-0.35833334,-0.056481503,1,0,0,,,,,,,,,,,,,,,,,,,,
,,,,,,00098,2023-11-08_13h54.40.802,vbt_B2_day1,2022.2.4,Win32,60.02040694,,,,,,,,,,,,,,,,,,,,,,,,,,,,,,,,,,,,,,0.112963005,-0.175925926,1,0,0,,,,,,,,,,,,,,,
,,,,,,00098,2023-11-08_13h54.40.802,vbt_B2_day1,2022.2.4,Win32,60.02040694,,,,,,,,,,,,,,,,,,,,,,,,,,,,,,,,,,,,,,,,,,,0.087962963,-0.157407407,1,0,0,opva,opva,0,0,0,59,1,opvatten,images/br_opvatten.png,images/cb_opvatten.png
,,,,,,00098,2023-11-08_13h54.40.802,vbt_B2_day1,2022.2.4,Win32,60.02040694,,,,,,,,,,,,,,,,,,,,,,,,,,,,,,,,,,,,,,,,,,,-0.083333333,-0.01203703,1,0,0,muziek,muziek,0,1,1,10,1,muziek,images/br_muziek.png,images/cb_muziek.png
,,,,,,00098,2023-11-08_13h54.40.802,vbt_B2_day1,2022.2.4,Win32,60.02040694,,,,,,,,,,,,,,,,,,,,,,,,,,,,,,,,,,,,,,,,,,,-0.074074074,0.0074074,1,0,0,dief,dief,0,2,2,40,1,dief,images/br_dief.png,images/cb_dief.png
,,,,,,00098,2023-11-08_13h54.40.802,vbt_B2_day1,2022.2.4,Win32,60.02040694,,,,,,,,,,,,,,,,,,,,,,,,,,,,,,,,,,,,,,,,,,,-0.087037051,-0.049074067,1,0,0,hoog,hoog,0,3,3,41,1,hoog,images/br_hoog.png,images/cb_hoog.png
,,,,,,00098,2023-11-08_13h54.40.802,vbt_B2_day1,2022.2.4,Win32,60.02040694,,,,,,,,,,,,,,,,,,,,,,,,,,,,,,,,,,,,,,,,,,,-0.087037051,-0.049074067,1,0,0,.aken,.aken,0,4,4,5,1,maken,images/br_maken.png,images/cb_maken.png
,,,,,,00098,2023-11-08_13h54.40.802,vbt_B2_day1,2022.2.4,Win32,60.02040694,,,,,,,,,,,,,,,,,,,,,,,,,,,,,,,,,,,,,,,,,,,-0.087037051,-0.049074067,1,0,0,k..de.,k..de.,0,5,5,8,1,kanjer,images/br_kanjer.png,images/cb_kanjer.png
,,,,,,00098,2023-11-08_13h54.40.802,vbt_B2_day1,2022.2.4,Win32,60.02040694,,,,,,,,,,,,,,,,,,,,,,,,,,,,,,,,,,,,,,,,,,,-0.087037051,-0.049074067,1,0,0,sta.e.,sta.e.,0,6,6,31,1,stamen,images/br_stamen.png,images/cb_stamen.png
,,,,,,00098,2023-11-08_13h54.40.802,vbt_B2_day1,2022.2.4,Win32,60.02040694,,,,,,,,,,,,,,,,,,,,,,,,,,,,,,,,,,,,,,,,,,,-0.087037051,-0.049074067,1,0,0,brij.,brij.,0,7,7,25,1,brijk,images/br_brijk.png,images/cb_brijk.png
,,,,,,00098,2023-11-08_13h54.40.802,vbt_B2_day1,2022.2.4,Win32,60.02040694,,,,,,,,,,,,,,,,,,,,,,,,,,,,,,,,,,,,,,,,,,,-0.087037051,-0.049074067,1,0,0,.iervan,.iervan,0,8,8,15,1,hiervan,images/br_hiervan.png,images/cb_hiervan.png
,,,,,,00098,2023-11-08_13h54.40.802,vbt_B2_day1,2022.2.4,Win32,60.02040694,,,,,,,,,,,,,,,,,,,,,,,,,,,,,,,,,,,,,,,,,,,-0.087037051,-0.049074067,1,0,0,bleek,bleek,0,9,9,6,1,bleek,images/br_bleek.png,images/cb_bleek.png
,,,,,,00098,2023-11-08_13h54.40.802,vbt_B2_day1,2022.2.4,Win32,60.02040694,,,,,,,,,,,,,,,,,,,,,,,,,,,,,,,,,,,,,,,,,,,-0.087037051,-0.049074067,1,0,0,meenemen,meenemen,0,10,10,57,1,meenemen,images/br_meenemen.png,images/cb_meenemen.png
,,,,,,00098,2023-11-08_13h54.40.802,vbt_B2_day1,2022.2.4,Win32,60.02040694,,,,,,,,,,,,,,,,,,,,,,,,,,,,,,,,,,,,,,,,,,,-0.087037051,-0.050000014,1,0,0,stuk,stuk,0,11,11,42,1,stuk,images/br_stuk.png,images/cb_stuk.png
,,,,,,00098,2023-11-08_13h54.40.802,vbt_B2_day1,2022.2.4,Win32,60.02040694,,,,,,,,,,,,,,,,,,,,,,,,,,,,,,,,,,,,,,,,,,,-0.087037051,-0.050000014,1,0,0,daarheen,daarheen,0,12,12,16,1,daarheen,images/br_daarheen.png,images/cb_daarheen.png
,,,,,,00098,2023-11-08_13h54.40.802,vbt_B2_day1,2022.2.4,Win32,60.02040694,,,,,,,,,,,,,,,,,,,,,,,,,,,,,,,,,,,,,,,,,,,-0.087037051,-0.050000014,1,0,0,loods,loods,0,13,13,47,1,loods,images/br_loods.png,images/cb_loods.png
,,,,,,00098,2023-11-08_13h54.40.802,vbt_B2_day1,2022.2.4,Win32,60.02040694,,,,,,,,,,,,,,,,,,,,,,,,,,,,,,,,,,,,,,,,,,,-0.087037051,-0.050000014,1,0,0,booi,booi,0,14,14,23,1,booi,images/br_booi.png,images/cb_booi.png
,,,,,,00098,2023-11-08_13h54.40.802,vbt_B2_day1,2022.2.4,Win32,60.02040694,,,,,,,,,,,,,,,,,,,,,,,,,,,,,,,,,,,,,,,,,,,-0.087037051,-0.050000014,1,0,0,valop,valop,0,15,15,26,1,valop,images/br_valop.png,images/cb_valop.png
,,,,,,00098,2023-11-08_13h54.40.802,vbt_B2_day1,2022.2.4,Win32,60.02040694,,,,,,,,,,,,,,,,,,,,,,,,,,,,,,,,,,,,,,,,,,,-0.087037051,-0.050000014,1,0,0,st.ike.,st.ike.,0,16,16,35,1,stuikem,images/br_stuikem.png,images/cb_stuikem.png
,,,,,,00098,2023-11-08_13h54.40.802,vbt_B2_day1,2022.2.4,Win32,60.02040694,,,,,,,,,,,,,,,,,,,,,,,,,,,,,,,,,,,,,,,,,,,-0.087037051,-0.050000014,1,0,0,..iplap,..iplap,0,17,17,52,1,zuiplap,images/br_zuiplap.png,images/cb_zuiplap.png
,,,,,,00098,2023-11-08_13h54.40.802,vbt_B2_day1,2022.2.4,Win32,60.02040694,,,,,,,,,,,,,,,,,,,,,,,,,,,,,,,,,,,,,,,,,,,-0.087037051,-0.050000014,1,0,0,spa....,spa....,0,18,18,37,1,spanzing,images/br_spanzing.png,images/cb_spanzing.png
,,,,,,00098,2023-11-08_13h54.40.802,vbt_B2_day1,2022.2.4,Win32,60.02040694,,,,,,,,,,,,,,,,,,,,,,,,,,,,,,,,,,,,,,,,,,,-0.087037051,-0.050000014,1,0,0,..bbel,..bbel,0,19,19,9,1,dubbel,images/br_dubbel.png,images/cb_dubbel.png
,,,,,,00098,2023-11-08_13h54.40.802,vbt_B2_day1,2022.2.4,Win32,60.02040694,,,,,,,,,,,,,,,,,,,,,,,,,,,,,,,,,,,,,,,,,,,-0.087037051,-0.050000014,1,0,0,kla..,kla..,0,20,20,7,1,klauw,images/br_klauw.png,images/cb_klauw.png
,,,,,,00098,2023-11-08_13h54.40.802,vbt_B2_day1,2022.2.4,Win32,60.02040694,,,,,,,,,,,,,,,,,,,,,,,,,,,,,,,,,,,,,,,,,,,-0.087037051,-0.050000014,1,0,0,.a.d,.a.d,0,21,21,3,1,mand,images/br_mand.png,images/cb_mand.png
,,,,,,00098,2023-11-08_13h54.40.802,vbt_B2_day1,2022.2.4,Win32,60.02040694,,,,,,,,,,,,,,,,,,,,,,,,,,,,,,,,,,,,,,,,,,,-0.087037051,-0.050000014,1,0,0,vijh..,vijh..,0,22,22,54,1,vijftig,images/br_vijftig.png,images/cb_vijftig.png
,,,,,,00098,2023-11-08_13h54.40.802,vbt_B2_day1,2022.2.4,Win32,60.02040694,,,,,,,,,,,,,,,,,,,,,,,,,,,,,,,,,,,,,,,,,,,-0.087037051,-0.050000014,1,0,0,lei..e,lei..e,0,23,23,51,1,liefde,images/br_liefde.png,images/cb_liefde.png
,,,,,,00098,2023-11-08_13h54.40.802,vbt_B2_day1,2022.2.4,Win32,60.02040694,,,,,,,,,,,,,,,,,,,,,,,,,,,,,,,,,,,,,,,,,,,-0.087037051,-0.050000014,1,0,0,opslaan,opslaan,0,24,24,53,1,opslaan,images/br_opslaan.png,images/cb_opslaan.png
,,,,,,00098,2023-11-08_13h54.40.802,vbt_B2_day1,2022.2.4,Win32,60.02040694,,,,,,,,,,,,,,,,,,,,,,,,,,,,,,,,,,,,,,,,,,,-0.087037051,-0.050000014,1,0,0,tars,tars,0,25,25,20,1,tars,images/br_tars.png,images/cb_tars.png
,,,,,,00098,2023-11-08_13h54.40.802,vbt_B2_day1,2022.2.4,Win32,60.02040694,,,,,,,,,,,,,,,,,,,,,,,,,,,,,,,,,,,,,,,,,,,-0.087037051,-0.050000014,1,0,0,t.ijde.,t.ijde.,0,26,26,13,1,twijfel,images/br_twijfel.png,images/cb_twijfel.png
,,,,,,00098,2023-11-08_13h54.40.802,vbt_B2_day1,2022.2.4,Win32,60.02040694,,,,,,,,,,,,,,,,,,,,,,,,,,,,,,,,,,,,,,,,,,,-0.087037051,-0.050000014,1,0,0,opplaan,opplaan,0,27,27,32,1,opplaan,images/br_opplaan.png,images/cb_opplaan.png
,,,,,,00098,2023-11-08_13h54.40.802,vbt_B2_day1,2022.2.4,Win32,60.02040694,,,,,,,,,,,,,,,,,,,,,,,,,,,,,,,,,,,,,,,,,,,-0.087037051,-0.050000014,1,0,0,verv...,verv...,0,28,28,36,1,vervaden,images/br_vervaden.png,images/cb_vervaden.png
,,,,,,00098,2023-11-08_13h54.40.802,vbt_B2_day1,2022.2.4,Win32,60.02040694,,,,,,,,,,,,,,,,,,,,,,,,,,,,,,,,,,,,,,,,,,,-0.087037051,-0.050000014,1,0,0,voor...t,voor...t,0,29,29,58,1,voorkeur,images/br_voorkeur.png,images/cb_voorkeur.png
,,,,,,00098,2023-11-08_13h54.40.802,vbt_B2_day1,2022.2.4,Win32,60.02040694,,,,,,,,,,,,,,,,,,,,,,,,,,,,,,,,,,,,,,,,,,,-0.087037051,-0.050000014,1,0,0,.aarvan,.aarvan,0,30,30,14,1,waarvan,images/br_waarvan.png,images/cb_waarvan.png
,,,,,,00098,2023-11-08_13h54.40.802,vbt_B2_day1,2022.2.4,Win32,60.02040694,,,,,,,,,,,,,,,,,,,,,,,,,,,,,,,,,,,,,,,,,,,-0.087037051,-0.050000014,1,0,0,sc.eilen,sc.eilen,0,31,31,38,1,schielen,images/br_schielen.png,images/cb_schielen.png
,,,,,,00098,2023-11-08_13h54.40.802,vbt_B2_day1,2022.2.4,Win32,60.02040694,,,,,,,,,,,,,,,,,,,,,,,,,,,,,,,,,,,,,,,,,,,-0.087037051,-0.050000014,1,0,0,ge.o.d,ge.o.d,0,32,32,29,1,genond,images/br_genond.png,images/cb_genond.png
,,,,,,00098,2023-11-08_13h54.40.802,vbt_B2_day1,2022.2.4,Win32,60.02040694,,,,,,,,,,,,,,,,,,,,,,,,,,,,,,,,,,,,,,,,,,,-0.087037051,-0.050000014,1,0,0,lava,lava,0,33,33,43,1,lava,images/br_lava.png,images/cb_lava.png
,,,,,,00098,2023-11-08_13h54.40.802,vbt_B2_day1,2022.2.4,Win32,60.02040694,,,,,,,,,,,,,,,,,,,,,,,,,,,,,,,,,,,,,,,,,,,-0.087037051,-0.050000014,1,0,0,schep,schep,0,34,34,4,1,schep,images/br_schep.png,images/cb_schep.png
,,,,,,00098,2023-11-08_13h54.40.802,vbt_B2_day1,2022.2.4,Win32,60.02040694,,,,,,,,,,,,,,,,,,,,,,,,,,,,,,,,,,,,,,,,,,,-0.087037051,-0.050000014,1,0,0,.ictie,.ictie,0,35,35,48,1,fictie,images/br_fictie.png,images/cb_fictie.png
,,,,,,00098,2023-11-08_13h54.40.802,vbt_B2_day1,2022.2.4,Win32,60.02040694,,,,,,,,,,,,,,,,,,,,,,,,,,,,,,,,,,,,,,,,,,,-0.087037051,-0.050000014,1,0,0,vi.ier,vi.ier,0,36,36,49,1,vizier,images/br_vizier.png,images/cb_vizier.png
,,,,,,00098,2023-11-08_13h54.40.802,vbt_B2_day1,2022.2.4,Win32,60.02040694,,,,,,,,,,,,,,,,,,,,,,,,,,,,,,,,,,,,,,,,,,,-0.087037051,-0.050000014,1,0,0,.l.llen,.l.llen,0,37,37,33,1,flullen,images/br_flullen.png,images/cb_flullen.png
,,,,,,00098,2023-11-08_13h54.40.802,vbt_B2_day1,2022.2.4,Win32,60.02040694,,,,,,,,,,,,,,,,,,,,,,,,,,,,,,,,,,,,,,,,,,,-0.087037051,-0.050000014,1,0,0,zaal,zaal,0,38,38,1,1,zaal,images/br_zaal.png,images/cb_zaal.png
,,,,,,00098,2023-11-08_13h54.40.802,vbt_B2_day1,2022.2.4,Win32,60.02040694,,,,,,,,,,,,,,,,,,,,,,,,,,,,,,,,,,,,,,,,,,,-0.087037051,-0.050000014,1,0,0,tekenen,tekenen,0,39,39,55,1,tekenen,images/br_tekenen.png,images/cb_tekenen.png
,,,,,,00098,2023-11-08_13h54.40.802,vbt_B2_day1,2022.2.4,Win32,60.02040694,,,,,,,,,,,,,,,,,,,,,,,,,,,,,,,,,,,,,,,,,,,-0.087037051,-0.050000014,1,0,0,reed..,reed..,0,40,40,30,1,reedje,images/br_reedje.png,images/cb_reedje.png
,,,,,,00098,2023-11-08_13h54.40.802,vbt_B2_day1,2022.2.4,Win32,60.02040694,,,,,,,,,,,,,,,,,,,,,,,,,,,,,,,,,,,,,,,,,,,-0.087037051,-0.050000014,1,0,0,bebrip,bebrip,0,41,41,28,1,bebrip,images/br_bebrip.png,images/cb_bebrip.png
,,,,,,00098,2023-11-08_13h54.40.802,vbt_B2_day1,2022.2.4,Win32,60.02040694,,,,,,,,,,,,,,,,,,,,,,,,,,,,,,,,,,,,,,,,,,,-0.087037051,-0.050000014,1,0,0,dred,dred,0,42,42,21,1,dred,images/br_dred.png,images/cb_dred.png
,,,,,,00098,2023-11-08_13h54.40.802,vbt_B2_day1,2022.2.4,Win32,60.02040694,,,,,,,,,,,,,,,,,,,,,,,,,,,,,,,,,,,,,,,,,,,-0.087037051,-0.050000014,1,0,0,slak,slak,0,43,43,0,1,slak,images/br_slak.png,images/cb_slak.png
,,,,,,00098,2023-11-08_13h54.40.802,vbt_B2_day1,2022.2.4,Win32,60.02040694,,,,,,,,,,,,,,,,,,,,,,,,,,,,,,,,,,,,,,,,,,,-0.087037051,-0.050000014,1,0,0,prort,prort,0,44,44,27,1,prort,images/br_prort.png,images/cb_prort.png
,,,,,,00098,2023-11-08_13h54.40.802,vbt_B2_day1,2022.2.4,Win32,60.02040694,,,,,,,,,,,,,,,,,,,,,,,,,,,,,,,,,,,,,,,,,,,-0.087037051,-0.050000014,1,0,0,schi.len,schi.len,0,45,45,19,1,schuilen,images/br_schuilen.png,images/cb_schuilen.png
,,,,,,00098,2023-11-08_13h54.40.802,vbt_B2_day1,2022.2.4,Win32,60.02040694,,,,,,,,,,,,,,,,,,,,,,,,,,,,,,,,,,,,,,,,,,,-0.026851866,-0.081481474,1,0,0,toeoi...,toeoi...,0,46,46,56,1,toezicht,images/br_toezicht.png,images/cb_toezicht.png
,,,,,,00098,2023-11-08_13h54.40.802,vbt_B2_day1,2022.2.4,Win32,60.02040694,,,,,,,,,,,,,,,,,,,,,,,,,,,,,,,,,,,,,,,,,,,-0.026851866,-0.081481474,1,0,0,liegen,liegen,0,47,47,50,1,liegen,images/br_liegen.png,images/cb_liegen.png
,,,,,,00098,2023-11-08_13h54.40.802,vbt_B2_day1,2022.2.4,Win32,60.02040694,,,,,,,,,,,,,,,,,,,,,,,,,,,,,,,,,,,,,,,,,,,-0.026851866,-0.081481474,1,0,0,rezer,rezer,0,48,48,24,1,rezer,images/br_rezer.png,images/cb_rezer.png
,,,,,,00098,2023-11-08_13h54.40.802,vbt_B2_day1,2022.2.4,Win32,60.02040694,,,,,,,,,,,,,,,,,,,,,,,,,,,,,,,,,,,,,,,,,,,-0.026851866,-0.081481474,1,0,0,.i.ze,.i.ze,0,49,49,44,1,wijze,images/br_wijze.png,images/cb_wijze.png
,,,,,,00098,2023-11-08_13h54.40.802,vbt_B2_day1,2022.2.4,Win32,60.02040694,,,,,,,,,,,,,,,,,,,,,,,,,,,,,,,,,,,,,,,,,,,-0.026851866,-0.081481474,1,0,0,lochten,lochten,0,50,50,34,1,lochten,images/br_lochten.png,images/cb_lochten.png
,,,,,,00098,2023-11-08_13h54.40.802,vbt_B2_day1,2022.2.4,Win32,60.02040694,,,,,,,,,,,,,,,,,,,,,,,,,,,,,,,,,,,,,,,,,,,-0.026851866,-0.081481474,1,0,0,.it.elen,.it.elen,0,51,51,18,1,uitdelen,images/br_uitdelen.png,images/cb_uitdelen.png
,,,,,,00098,2023-11-08_13h54.40.802,vbt_B2_day1,2022.2.4,Win32,60.02040694,,,,,,,,,,,,,,,,,,,,,,,,,,,,,,,,,,,,,,,,,,,-0.026851866,-0.081481474,1,0,0,.imil,.imil,0,52,52,45,1,hemel,images/br_hemel.png,images/cb_hemel.png
,,,,,,00098,2023-11-08_13h54.40.802,vbt_B2_day1,2022.2.4,Win32,60.02040694,,,,,,,,,,,,,,,,,,,,,,,,,,,,,,,,,,,,,,,,,,,-0.026851866,-0.081481474,1,0,0,lezen,lezen,0,53,53,46,1,lezen,images/br_lezen.png,images/cb_lezen.png
,,,,,,00098,2023-11-08_13h54.40.802,vbt_B2_day1,2022.2.4,Win32,60.02040694,,,,,,,,,,,,,,,,,,,,,,,,,,,,,,,,,,,,,,,,,,,-0.026851866,-0.081481474,1,0,0,.e.e.n,.e.e.n,0,54,54,11,1,mening,images/br_mening.png,images/cb_mening.png
,,,,,,00098,2023-11-08_13h54.40.802,vbt_B2_day1,2022.2.4,Win32,60.02040694,,,,,,,,,,,,,,,,,,,,,,,,,,,,,,,,,,,,,,,,,,,-0.026851866,-0.081481474,1,0,0,attentie,attentie,0,55,55,17,1,attentie,images/br_attentie.png,images/cb_attentie.png
,,,,,,00098,2023-11-08_13h54.40.802,vbt_B2_day1,2022.2.4,Win32,60.02040694,,,,,,,,,,,,,,,,,,,,,,,,,,,,,,,,,,,,,,,,,,,-0.026851866,-0.081481474,1,0,0,voore.r,voore.r,0,56,56,39,1,voorreur,images/br_voorreur.png,images/cb_voorreur.png
,,,,,,00098,2023-11-08_13h54.40.802,vbt_B2_day1,2022.2.4,Win32,60.02040694,,,,,,,,,,,,,,,,,,,,,,,,,,,,,,,,,,,,,,,,,,,-0.026851866,-0.081481474,1,0,0,klimmen,klimmen,0,57,57,12,1,klimmen,images/br_klimmen.png,images/cb_klimmen.png
,,,,,,00098,2023-11-08_13h54.40.802,vbt_B2_day1,2022.2.4,Win32,60.02040694,,,,,,,,,,,,,,,,,,,,,,,,,,,,,,,,,,,,,,,,,,,-0.026851866,-0.081481474,1,0,0,jaar,jaar,0,58,58,2,1,jaar,images/br_jaar.png,images/cb_jaar.png
,,,,,,00098,2023-11-08_13h54.40.802,vbt_B2_day1,2022.2.4,Win32,60.02040694,,,,,,,,,,,,,,,,,,,,,,,,,,,,,,,,,,,,,,,,,,,-0.023148148,-0.079629651,1,0,0,k.oe,k.oe,0,59,59,22,1,knoe,images/br_knoe.png,images/cb_knoe.png
,,,,,,00098,2023-11-08_13h54.40.802,vbt_B2_day1,2022.2.4,Win32,60.02040694,,,,,,,,,,,,,,,,,,,,,,,,,,,,,,,,,,,,,,,,,,,,,,,,,,,,,,,,,
