welcome_mouse.x,welcome_mouse.y,welcome_mouse.leftButton,welcome_mouse.midButton,welcome_mouse.rightButton,welcome_mouse.time,"ID",date,expName,psychopyVersion,OS,frameRate,mouse_2.x,mouse_2.y,mouse_2.leftButton,mouse_2.midButton,mouse_2.rightButton,mouse_2.time,mouse_3.x,mouse_3.y,mouse_3.leftButton,mouse_3.midButton,mouse_3.rightButton,mouse_3.time,train_mouse.x,train_mouse.y,train_mouse.leftButton,train_mouse.midButton,train_mouse.rightButton,train_mouse.time,braille_mouse.x,braille_mouse.y,braille_mouse.leftButton,braille_mouse.midButton,braille_mouse.rightButton,braille_mouse.time,trials.thisRepN,trials.thisTrialN,trials.thisN,trials.thisIndex,trials.ran,nlLet,brLet,cbLet,mouse.x,mouse.y,mouse.leftButton,mouse.midButton,mouse.rightButton,testInstr_mouse.x,testInstr_mouse.y,testInstr_mouse.leftButton,testInstr_mouse.midButton,testInstr_mouse.rightButton,test_mouse.x,test_mouse.y,test_mouse.leftButton,test_mouse.midButton,test_mouse.rightButton,test_response.text,testResp,test_loop.thisRepN,test_loop.thisTrialN,test_loop.thisN,test_loop.thisIndex,test_loop.ran,nlWrd,brWrd,cbWrd
-0.185185185,-0.22592594,1,0,0,0.6712,00107,2023-11-20_11h11.45.089,vbt_B2_day1,2022.2.4,Win32,145.2643812,,,,,,,,,,,,,,,,,,,,,,,,,,,,,,,,,,,,,,,,,,,,,,,,,,,,,,,,,
,,,,,,00107,2023-11-20_11h11.45.089,vbt_B2_day1,2022.2.4,Win32,145.2643812,-0.124074088,-0.30277782,1,0,0,1.3042,,,,,,,,,,,,,,,,,,,,,,,,,,,,,,,,,,,,,,,,,,,,,,,,,,,
,,,,,,00107,2023-11-20_11h11.45.089,vbt_B2_day1,2022.2.4,Win32,145.2643812,,,,,,,-0.101851852,-0.349074116,1,0,0,0.9306,,,,,,,,,,,,,,,,,,,,,,,,,,,,,,,,,,,,,,,,,,,,,
,,,,,,00107,2023-11-20_11h11.45.089,vbt_B2_day1,2022.2.4,Win32,145.2643812,,,,,,,,,,,,,-0.101851852,-0.349074116,1,0,0,0.7333,,,,,,,,,,,,,,,,,,,,,,,,,,,,,,,,,,,,,,,
,,,,,,00107,2023-11-20_11h11.45.089,vbt_B2_day1,2022.2.4,Win32,145.2643812,,,,,,,,,,,,,,,,,,,0.042592578,-0.222222222,1,0,0,0.1456,0,0,0,21,1,v,images/br_v.png,images/cb_v.png,,,,,,,,,,,,,,,,,,,,,,,,,
,,,,,,00107,2023-11-20_11h11.45.089,vbt_B2_day1,2022.2.4,Win32,145.2643812,,,,,,,,,,,,,,,,,,,0.042592578,-0.222222222,1,0,0,0.0923,0,1,1,22,1,w,images/br_w.png,images/cb_w.png,,,,,,,,,,,,,,,,,,,,,,,,,
,,,,,,00107,2023-11-20_11h11.45.089,vbt_B2_day1,2022.2.4,Win32,145.2643812,,,,,,,,,,,,,,,,,,,0.042592578,-0.222222222,1,0,0,0.0246,0,2,2,2,1,c,images/br_c.png,images/cb_c.png,,,,,,,,,,,,,,,,,,,,,,,,,
,,,,,,00107,2023-11-20_11h11.45.089,vbt_B2_day1,2022.2.4,Win32,145.2643812,,,,,,,,,,,,,,,,,,,0.042592578,-0.222222222,1,0,0,0.0212,0,3,3,16,1,q,images/br_q.png,images/cb_q.png,,,,,,,,,,,,,,,,,,,,,,,,,
,,,,,,00107,2023-11-20_11h11.45.089,vbt_B2_day1,2022.2.4,Win32,145.2643812,,,,,,,,,,,,,,,,,,,0.042592578,-0.222222222,1,0,0,2.8878,0,4,4,20,1,u,images/br_u.png,images/cb_u.png,,,,,,,,,,,,,,,,,,,,,,,,,
,,,,,,00107,2023-11-20_11h11.45.089,vbt_B2_day1,2022.2.4,Win32,145.2643812,,,,,,,,,,,,,,,,,,,0.042592578,-0.222222222,1,0,0,1.1261,0,5,5,0,1,a,images/br_a.png,images/cb_a.png,,,,,,,,,,,,,,,,,,,,,,,,,
,,,,,,00107,2023-11-20_11h11.45.089,vbt_B2_day1,2022.2.4,Win32,145.2643812,,,,,,,,,,,,,,,,,,,0.042592578,-0.222222222,1,0,0,0.2704,0,6,6,5,1,f,images/br_f.png,images/cb_f.png,,,,,,,,,,,,,,,,,,,,,,,,,
,,,,,,00107,2023-11-20_11h11.45.089,vbt_B2_day1,2022.2.4,Win32,145.2643812,,,,,,,,,,,,,,,,,,,0.042592578,-0.222222222,1,0,0,0.1385,0,7,7,6,1,g,images/br_g.png,images/cb_g.png,,,,,,,,,,,,,,,,,,,,,,,,,
,,,,,,00107,2023-11-20_11h11.45.089,vbt_B2_day1,2022.2.4,Win32,145.2643812,,,,,,,,,,,,,,,,,,,0.042592578,-0.222222222,1,0,0,1.3059,0,8,8,8,1,i,images/br_i.png,images/cb_i.png,,,,,,,,,,,,,,,,,,,,,,,,,
,,,,,,00107,2023-11-20_11h11.45.089,vbt_B2_day1,2022.2.4,Win32,145.2643812,,,,,,,,,,,,,,,,,,,0.044444473,-0.22129631,1,0,0,0.3882,0,9,9,14,1,o,images/br_o.png,images/cb_o.png,,,,,,,,,,,,,,,,,,,,,,,,,
,,,,,,00107,2023-11-20_11h11.45.089,vbt_B2_day1,2022.2.4,Win32,145.2643812,,,,,,,,,,,,,,,,,,,0.044444473,-0.22129631,1,0,0,0.1935,0,10,10,11,1,l,images/br_l.png,images/cb_l.png,,,,,,,,,,,,,,,,,,,,,,,,,
,,,,,,00107,2023-11-20_11h11.45.089,vbt_B2_day1,2022.2.4,Win32,145.2643812,,,,,,,,,,,,,,,,,,,0.044444473,-0.22129631,1,0,0,0.7273,0,11,11,19,1,t,images/br_t.png,images/cb_t.png,,,,,,,,,,,,,,,,,,,,,,,,,
,,,,,,00107,2023-11-20_11h11.45.089,vbt_B2_day1,2022.2.4,Win32,145.2643812,,,,,,,,,,,,,,,,,,,0.044444473,-0.22129631,1,0,0,0.625,0,12,12,24,1,y,images/br_y.png,images/cb_y.png,,,,,,,,,,,,,,,,,,,,,,,,,
,,,,,,00107,2023-11-20_11h11.45.089,vbt_B2_day1,2022.2.4,Win32,145.2643812,,,,,,,,,,,,,,,,,,,0.044444473,-0.22129631,0,0,1,0.5346,0,13,13,15,1,p,images/br_p.png,images/cb_p.png,,,,,,,,,,,,,,,,,,,,,,,,,
,,,,,,00107,2023-11-20_11h11.45.089,vbt_B2_day1,2022.2.4,Win32,145.2643812,,,,,,,,,,,,,,,,,,,0.044444473,-0.22129631,1,0,0,0.0072,0,14,14,18,1,s,images/br_s.png,images/cb_s.png,,,,,,,,,,,,,,,,,,,,,,,,,
,,,,,,00107,2023-11-20_11h11.45.089,vbt_B2_day1,2022.2.4,Win32,145.2643812,,,,,,,,,,,,,,,,,,,0.044444473,-0.22129631,1,0,0,0.5872,0,15,15,17,1,r,images/br_r.png,images/cb_r.png,,,,,,,,,,,,,,,,,,,,,,,,,
,,,,,,00107,2023-11-20_11h11.45.089,vbt_B2_day1,2022.2.4,Win32,145.2643812,,,,,,,,,,,,,,,,,,,0.044444473,-0.22129631,1,0,0,0.5483,0,16,16,1,1,b,images/br_b.png,images/cb_b.png,,,,,,,,,,,,,,,,,,,,,,,,,
,,,,,,00107,2023-11-20_11h11.45.089,vbt_B2_day1,2022.2.4,Win32,145.2643812,,,,,,,,,,,,,,,,,,,0.044444473,-0.22129631,1,0,0,0.408,0,17,17,12,1,m,images/br_m.png,images/cb_m.png,,,,,,,,,,,,,,,,,,,,,,,,,
,,,,,,00107,2023-11-20_11h11.45.089,vbt_B2_day1,2022.2.4,Win32,145.2643812,,,,,,,,,,,,,,,,,,,0.044444473,-0.22129631,1,0,0,0.2492,0,18,18,4,1,e,images/br_e.png,images/cb_e.png,,,,,,,,,,,,,,,,,,,,,,,,,
,,,,,,00107,2023-11-20_11h11.45.089,vbt_B2_day1,2022.2.4,Win32,145.2643812,,,,,,,,,,,,,,,,,,,0.039814843,-0.22129631,1,0,0,1.069,0,19,19,3,1,d,images/br_d.png,images/cb_d.png,,,,,,,,,,,,,,,,,,,,,,,,,
,,,,,,00107,2023-11-20_11h11.45.089,vbt_B2_day1,2022.2.4,Win32,145.2643812,,,,,,,,,,,,,,,,,,,0.035185213,-0.242592635,1,0,0,0.0688,0,20,20,9,1,j,images/br_j.png,images/cb_j.png,,,,,,,,,,,,,,,,,,,,,,,,,
,,,,,,00107,2023-11-20_11h11.45.089,vbt_B2_day1,2022.2.4,Win32,145.2643812,,,,,,,,,,,,,,,,,,,0.035185213,-0.242592635,1,0,0,0.5835,0,21,21,25,1,z,images/br_z.png,images/cb_z.png,,,,,,,,,,,,,,,,,,,,,,,,,
,,,,,,00107,2023-11-20_11h11.45.089,vbt_B2_day1,2022.2.4,Win32,145.2643812,,,,,,,,,,,,,,,,,,,0.016666695,-0.132407436,1,0,0,0.9853,0,22,22,10,1,k,images/br_k.png,images/cb_k.png,,,,,,,,,,,,,,,,,,,,,,,,,
,,,,,,00107,2023-11-20_11h11.45.089,vbt_B2_day1,2022.2.4,Win32,145.2643812,,,,,,,,,,,,,,,,,,,0.016666695,-0.132407436,1,0,0,0.1453,0,23,23,23,1,x,images/br_x.png,images/cb_x.png,,,,,,,,,,,,,,,,,,,,,,,,,
,,,,,,00107,2023-11-20_11h11.45.089,vbt_B2_day1,2022.2.4,Win32,145.2643812,,,,,,,,,,,,,,,,,,,0.016666695,-0.132407436,1,0,0,1.8126,0,24,24,13,1,n,images/br_n.png,images/cb_n.png,,,,,,,,,,,,,,,,,,,,,,,,,
,,,,,,00107,2023-11-20_11h11.45.089,vbt_B2_day1,2022.2.4,Win32,145.2643812,,,,,,,,,,,,,,,,,,,0.016666695,-0.132407436,1,0,0,1.4788,0,25,25,7,1,h,images/br_h.png,images/cb_h.png,,,,,,,,,,,,,,,,,,,,,,,,,
,,,,,,00107,2023-11-20_11h11.45.089,vbt_B2_day1,2022.2.4,Win32,145.2643812,,,,,,,,,,,,,,,,,,,0.016666695,-0.132407436,1,0,0,0.1249,1,0,26,20,1,u,images/br_u.png,images/cb_u.png,,,,,,,,,,,,,,,,,,,,,,,,,
,,,,,,00107,2023-11-20_11h11.45.089,vbt_B2_day1,2022.2.4,Win32,145.2643812,,,,,,,,,,,,,,,,,,,0.016666695,-0.132407436,1,0,0,0.5089,1,1,27,13,1,n,images/br_n.png,images/cb_n.png,,,,,,,,,,,,,,,,,,,,,,,,,
,,,,,,00107,2023-11-20_11h11.45.089,vbt_B2_day1,2022.2.4,Win32,145.2643812,,,,,,,,,,,,,,,,,,,0.016666695,-0.132407436,1,0,0,0.1673,1,2,28,1,1,b,images/br_b.png,images/cb_b.png,,,,,,,,,,,,,,,,,,,,,,,,,
,,,,,,00107,2023-11-20_11h11.45.089,vbt_B2_day1,2022.2.4,Win32,145.2643812,,,,,,,,,,,,,,,,,,,0.016666695,-0.132407436,1,0,0,0.0211,1,3,29,11,1,l,images/br_l.png,images/cb_l.png,,,,,,,,,,,,,,,,,,,,,,,,,
,,,,,,00107,2023-11-20_11h11.45.089,vbt_B2_day1,2022.2.4,Win32,145.2643812,,,,,,,,,,,,,,,,,,,0.016666695,-0.132407436,1,0,0,0.1109,1,4,30,6,1,g,images/br_g.png,images/cb_g.png,,,,,,,,,,,,,,,,,,,,,,,,,
,,,,,,00107,2023-11-20_11h11.45.089,vbt_B2_day1,2022.2.4,Win32,145.2643812,,,,,,,,,,,,,,,,,,,0.016666695,-0.132407436,1,0,0,0.0846,1,5,31,22,1,w,images/br_w.png,images/cb_w.png,,,,,,,,,,,,,,,,,,,,,,,,,
,,,,,,00107,2023-11-20_11h11.45.089,vbt_B2_day1,2022.2.4,Win32,145.2643812,,,,,,,,,,,,,,,,,,,0.016666695,-0.132407436,1,0,0,0.0625,1,6,32,8,1,i,images/br_i.png,images/cb_i.png,,,,,,,,,,,,,,,,,,,,,,,,,
,,,,,,00107,2023-11-20_11h11.45.089,vbt_B2_day1,2022.2.4,Win32,145.2643812,,,,,,,,,,,,,,,,,,,0.016666695,-0.132407436,1,0,0,0.0546,1,7,33,14,1,o,images/br_o.png,images/cb_o.png,,,,,,,,,,,,,,,,,,,,,,,,,
,,,,,,00107,2023-11-20_11h11.45.089,vbt_B2_day1,2022.2.4,Win32,145.2643812,,,,,,,,,,,,,,,,,,,0.016666695,-0.132407436,1,0,0,0.0064,1,8,34,10,1,k,images/br_k.png,images/cb_k.png,,,,,,,,,,,,,,,,,,,,,,,,,
,,,,,,00107,2023-11-20_11h11.45.089,vbt_B2_day1,2022.2.4,Win32,145.2643812,,,,,,,,,,,,,,,,,,,0.016666695,-0.132407436,1,0,0,0.0627,1,9,35,3,1,d,images/br_d.png,images/cb_d.png,,,,,,,,,,,,,,,,,,,,,,,,,
,,,,,,00107,2023-11-20_11h11.45.089,vbt_B2_day1,2022.2.4,Win32,145.2643812,,,,,,,,,,,,,,,,,,,0.016666695,-0.132407436,1,0,0,0.0905,1,10,36,24,1,y,images/br_y.png,images/cb_y.png,,,,,,,,,,,,,,,,,,,,,,,,,
,,,,,,00107,2023-11-20_11h11.45.089,vbt_B2_day1,2022.2.4,Win32,145.2643812,,,,,,,,,,,,,,,,,,,0.016666695,-0.132407436,1,0,0,0.4229,1,11,37,21,1,v,images/br_v.png,images/cb_v.png,,,,,,,,,,,,,,,,,,,,,,,,,
,,,,,,00107,2023-11-20_11h11.45.089,vbt_B2_day1,2022.2.4,Win32,145.2643812,,,,,,,,,,,,,,,,,,,0.016666695,-0.132407436,1,0,0,0.5826,1,12,38,0,1,a,images/br_a.png,images/cb_a.png,,,,,,,,,,,,,,,,,,,,,,,,,
,,,,,,00107,2023-11-20_11h11.45.089,vbt_B2_day1,2022.2.4,Win32,145.2643812,,,,,,,,,,,,,,,,,,,0.016666695,-0.132407436,1,0,0,2.0205,1,13,39,25,1,z,images/br_z.png,images/cb_z.png,,,,,,,,,,,,,,,,,,,,,,,,,
,,,,,,00107,2023-11-20_11h11.45.089,vbt_B2_day1,2022.2.4,Win32,145.2643812,,,,,,,,,,,,,,,,,,,0.016666695,-0.132407436,1,0,0,0.0965,1,14,40,23,1,x,images/br_x.png,images/cb_x.png,,,,,,,,,,,,,,,,,,,,,,,,,
,,,,,,00107,2023-11-20_11h11.45.089,vbt_B2_day1,2022.2.4,Win32,145.2643812,,,,,,,,,,,,,,,,,,,0.016666695,-0.132407436,1,0,0,0.1043,1,15,41,2,1,c,images/br_c.png,images/cb_c.png,,,,,,,,,,,,,,,,,,,,,,,,,
,,,,,,00107,2023-11-20_11h11.45.089,vbt_B2_day1,2022.2.4,Win32,145.2643812,,,,,,,,,,,,,,,,,,,0.016666695,-0.132407436,0,0,1,0.4575,1,16,42,17,1,r,images/br_r.png,images/cb_r.png,,,,,,,,,,,,,,,,,,,,,,,,,
,,,,,,00107,2023-11-20_11h11.45.089,vbt_B2_day1,2022.2.4,Win32,145.2643812,,,,,,,,,,,,,,,,,,,0.016666695,-0.132407436,1,0,0,0.5552,1,17,43,18,1,s,images/br_s.png,images/cb_s.png,,,,,,,,,,,,,,,,,,,,,,,,,
,,,,,,00107,2023-11-20_11h11.45.089,vbt_B2_day1,2022.2.4,Win32,145.2643812,,,,,,,,,,,,,,,,,,,0.016666695,-0.132407436,1,0,0,0.2556,1,18,44,9,1,j,images/br_j.png,images/cb_j.png,,,,,,,,,,,,,,,,,,,,,,,,,
,,,,,,00107,2023-11-20_11h11.45.089,vbt_B2_day1,2022.2.4,Win32,145.2643812,,,,,,,,,,,,,,,,,,,0.016666695,-0.132407436,1,0,0,0.4509,1,19,45,4,1,e,images/br_e.png,images/cb_e.png,,,,,,,,,,,,,,,,,,,,,,,,,
,,,,,,00107,2023-11-20_11h11.45.089,vbt_B2_day1,2022.2.4,Win32,145.2643812,,,,,,,,,,,,,,,,,,,0.016666695,-0.132407436,1,0,0,0.1111,1,20,46,5,1,f,images/br_f.png,images/cb_f.png,,,,,,,,,,,,,,,,,,,,,,,,,
,,,,,,00107,2023-11-20_11h11.45.089,vbt_B2_day1,2022.2.4,Win32,145.2643812,,,,,,,,,,,,,,,,,,,-0.058333291,-0.125925912,1,0,0,4.1738,1,21,47,12,1,m,images/br_m.png,images/cb_m.png,,,,,,,,,,,,,,,,,,,,,,,,,
,,,,,,00107,2023-11-20_11h11.45.089,vbt_B2_day1,2022.2.4,Win32,145.2643812,,,,,,,,,,,,,,,,,,,-0.058333291,-0.125925912,1,0,0,2.5341,1,22,48,7,1,h,images/br_h.png,images/cb_h.png,,,,,,,,,,,,,,,,,,,,,,,,,
,,,,,,00107,2023-11-20_11h11.45.089,vbt_B2_day1,2022.2.4,Win32,145.2643812,,,,,,,,,,,,,,,,,,,-0.058333291,-0.125925912,1,0,0,0.271,1,23,49,19,1,t,images/br_t.png,images/cb_t.png,,,,,,,,,,,,,,,,,,,,,,,,,
,,,,,,00107,2023-11-20_11h11.45.089,vbt_B2_day1,2022.2.4,Win32,145.2643812,,,,,,,,,,,,,,,,,,,-0.058333291,-0.125925912,1,0,0,1.0059,1,24,50,16,1,q,images/br_q.png,images/cb_q.png,,,,,,,,,,,,,,,,,,,,,,,,,
,,,,,,00107,2023-11-20_11h11.45.089,vbt_B2_day1,2022.2.4,Win32,145.2643812,,,,,,,,,,,,,,,,,,,-0.058333291,-0.125925912,1,0,0,0.1182,1,25,51,15,1,p,images/br_p.png,images/cb_p.png,,,,,,,,,,,,,,,,,,,,,,,,,
,,,,,,00107,2023-11-20_11h11.45.089,vbt_B2_day1,2022.2.4,Win32,145.2643812,,,,,,,,,,,,,,,,,,,-0.058333291,-0.125925912,1,0,0,0.8467,2,0,52,6,1,g,images/br_g.png,images/cb_g.png,,,,,,,,,,,,,,,,,,,,,,,,,
,,,,,,00107,2023-11-20_11h11.45.089,vbt_B2_day1,2022.2.4,Win32,145.2643812,,,,,,,,,,,,,,,,,,,-0.058333291,-0.125925912,1,0,0,0.1257,2,1,53,0,1,a,images/br_a.png,images/cb_a.png,,,,,,,,,,,,,,,,,,,,,,,,,
,,,,,,00107,2023-11-20_11h11.45.089,vbt_B2_day1,2022.2.4,Win32,145.2643812,,,,,,,,,,,,,,,,,,,-0.058333291,-0.125925912,1,0,0,1.3756,2,2,54,10,1,k,images/br_k.png,images/cb_k.png,,,,,,,,,,,,,,,,,,,,,,,,,
,,,,,,00107,2023-11-20_11h11.45.089,vbt_B2_day1,2022.2.4,Win32,145.2643812,,,,,,,,,,,,,,,,,,,-0.058333291,-0.125925912,1,0,0,0.2841,2,3,55,7,1,h,images/br_h.png,images/cb_h.png,,,,,,,,,,,,,,,,,,,,,,,,,
,,,,,,00107,2023-11-20_11h11.45.089,vbt_B2_day1,2022.2.4,Win32,145.2643812,,,,,,,,,,,,,,,,,,,-0.058333291,-0.125925912,1,0,0,0.84,2,4,56,12,1,m,images/br_m.png,images/cb_m.png,,,,,,,,,,,,,,,,,,,,,,,,,
,,,,,,00107,2023-11-20_11h11.45.089,vbt_B2_day1,2022.2.4,Win32,145.2643812,,,,,,,,,,,,,,,,,,,-0.058333291,-0.125925912,1,0,0,1.3127,2,5,57,15,1,p,images/br_p.png,images/cb_p.png,,,,,,,,,,,,,,,,,,,,,,,,,
,,,,,,00107,2023-11-20_11h11.45.089,vbt_B2_day1,2022.2.4,Win32,145.2643812,,,,,,,,,,,,,,,,,,,-0.058333291,-0.125925912,1,0,0,0.7783,2,6,58,18,1,s,images/br_s.png,images/cb_s.png,,,,,,,,,,,,,,,,,,,,,,,,,
,,,,,,00107,2023-11-20_11h11.45.089,vbt_B2_day1,2022.2.4,Win32,145.2643812,,,,,,,,,,,,,,,,,,,-0.058333291,-0.125925912,1,0,0,0.2985,2,7,59,5,1,f,images/br_f.png,images/cb_f.png,,,,,,,,,,,,,,,,,,,,,,,,,
,,,,,,00107,2023-11-20_11h11.45.089,vbt_B2_day1,2022.2.4,Win32,145.2643812,,,,,,,,,,,,,,,,,,,-0.058333291,-0.125925912,1,0,0,0.2781,2,8,60,13,1,n,images/br_n.png,images/cb_n.png,,,,,,,,,,,,,,,,,,,,,,,,,
,,,,,,00107,2023-11-20_11h11.45.089,vbt_B2_day1,2022.2.4,Win32,145.2643812,,,,,,,,,,,,,,,,,,,-0.058333291,-0.125925912,1,0,0,0.5132,2,9,61,20,1,u,images/br_u.png,images/cb_u.png,,,,,,,,,,,,,,,,,,,,,,,,,
,,,,,,00107,2023-11-20_11h11.45.089,vbt_B2_day1,2022.2.4,Win32,145.2643812,,,,,,,,,,,,,,,,,,,-0.058333291,-0.125925912,1,0,0,0.8471,2,10,62,24,1,y,images/br_y.png,images/cb_y.png,,,,,,,,,,,,,,,,,,,,,,,,,
,,,,,,00107,2023-11-20_11h11.45.089,vbt_B2_day1,2022.2.4,Win32,145.2643812,,,,,,,,,,,,,,,,,,,-0.058333291,-0.125925912,1,0,0,0.1731,2,11,63,3,1,d,images/br_d.png,images/cb_d.png,,,,,,,,,,,,,,,,,,,,,,,,,
,,,,,,00107,2023-11-20_11h11.45.089,vbt_B2_day1,2022.2.4,Win32,145.2643812,,,,,,,,,,,,,,,,,,,-0.058333291,-0.125925912,1,0,0,0.1245,2,12,64,25,1,z,images/br_z.png,images/cb_z.png,,,,,,,,,,,,,,,,,,,,,,,,,
,,,,,,00107,2023-11-20_11h11.45.089,vbt_B2_day1,2022.2.4,Win32,145.2643812,,,,,,,,,,,,,,,,,,,-0.058333291,-0.125925912,1,0,0,0.4235,2,13,65,23,1,x,images/br_x.png,images/cb_x.png,,,,,,,,,,,,,,,,,,,,,,,,,
,,,,,,00107,2023-11-20_11h11.45.089,vbt_B2_day1,2022.2.4,Win32,145.2643812,,,,,,,,,,,,,,,,,,,-0.058333291,-0.125925912,1,0,0,0.4577,2,14,66,17,1,r,images/br_r.png,images/cb_r.png,,,,,,,,,,,,,,,,,,,,,,,,,
,,,,,,00107,2023-11-20_11h11.45.089,vbt_B2_day1,2022.2.4,Win32,145.2643812,,,,,,,,,,,,,,,,,,,-0.058333291,-0.125925912,0,0,1,0.0836,2,15,67,19,1,t,images/br_t.png,images/cb_t.png,,,,,,,,,,,,,,,,,,,,,,,,,
,,,,,,00107,2023-11-20_11h11.45.089,vbt_B2_day1,2022.2.4,Win32,145.2643812,,,,,,,,,,,,,,,,,,,-0.058333291,-0.125925912,1,0,0,0.0902,2,16,68,11,1,l,images/br_l.png,images/cb_l.png,,,,,,,,,,,,,,,,,,,,,,,,,
,,,,,,00107,2023-11-20_11h11.45.089,vbt_B2_day1,2022.2.4,Win32,145.2643812,,,,,,,,,,,,,,,,,,,-0.054629644,-0.123148176,1,0,0,2.9256,2,17,69,14,1,o,images/br_o.png,images/cb_o.png,,,,,,,,,,,,,,,,,,,,,,,,,
,,,,,,00107,2023-11-20_11h11.45.089,vbt_B2_day1,2022.2.4,Win32,145.2643812,,,,,,,,,,,,,,,,,,,-0.054629644,-0.123148176,1,0,0,1.889,2,18,70,4,1,e,images/br_e.png,images/cb_e.png,,,,,,,,,,,,,,,,,,,,,,,,,
,,,,,,00107,2023-11-20_11h11.45.089,vbt_B2_day1,2022.2.4,Win32,145.2643812,,,,,,,,,,,,,,,,,,,-0.054629644,-0.123148176,1,0,0,0.2517,2,19,71,1,1,b,images/br_b.png,images/cb_b.png,,,,,,,,,,,,,,,,,,,,,,,,,
,,,,,,00107,2023-11-20_11h11.45.089,vbt_B2_day1,2022.2.4,Win32,145.2643812,,,,,,,,,,,,,,,,,,,-0.054629644,-0.123148176,1,0,0,0.1041,2,20,72,9,1,j,images/br_j.png,images/cb_j.png,,,,,,,,,,,,,,,,,,,,,,,,,
,,,,,,00107,2023-11-20_11h11.45.089,vbt_B2_day1,2022.2.4,Win32,145.2643812,,,,,,,,,,,,,,,,,,,-0.054629644,-0.123148176,1,0,0,1.4586,2,21,73,16,1,q,images/br_q.png,images/cb_q.png,,,,,,,,,,,,,,,,,,,,,,,,,
,,,,,,00107,2023-11-20_11h11.45.089,vbt_B2_day1,2022.2.4,Win32,145.2643812,,,,,,,,,,,,,,,,,,,-0.054629644,-0.123148176,1,0,0,0.8541,2,22,74,2,1,c,images/br_c.png,images/cb_c.png,,,,,,,,,,,,,,,,,,,,,,,,,
,,,,,,00107,2023-11-20_11h11.45.089,vbt_B2_day1,2022.2.4,Win32,145.2643812,,,,,,,,,,,,,,,,,,,-0.054629644,-0.123148176,1,0,0,0.0139,2,23,75,22,1,w,images/br_w.png,images/cb_w.png,,,,,,,,,,,,,,,,,,,,,,,,,
,,,,,,00107,2023-11-20_11h11.45.089,vbt_B2_day1,2022.2.4,Win32,145.2643812,,,,,,,,,,,,,,,,,,,-0.054629644,-0.123148176,1,0,0,0.3964,2,24,76,8,1,i,images/br_i.png,images/cb_i.png,,,,,,,,,,,,,,,,,,,,,,,,,
,,,,,,00107,2023-11-20_11h11.45.089,vbt_B2_day1,2022.2.4,Win32,145.2643812,,,,,,,,,,,,,,,,,,,-0.054629644,-0.123148176,1,0,0,0.0409,2,25,77,21,1,v,images/br_v.png,images/cb_v.png,,,,,,,,,,,,,,,,,,,,,,,,,
,,,,,,00107,2023-11-20_11h11.45.089,vbt_B2_day1,2022.2.4,Win32,145.2643812,,,,,,,,,,,,,,,,,,,-0.054629644,-0.123148176,1,0,0,0.6745,3,0,78,21,1,v,images/br_v.png,images/cb_v.png,,,,,,,,,,,,,,,,,,,,,,,,,
,,,,,,00107,2023-11-20_11h11.45.089,vbt_B2_day1,2022.2.4,Win32,145.2643812,,,,,,,,,,,,,,,,,,,-0.054629644,-0.123148176,0,0,1,0.0138,3,1,79,16,1,q,images/br_q.png,images/cb_q.png,,,,,,,,,,,,,,,,,,,,,,,,,
,,,,,,00107,2023-11-20_11h11.45.089,vbt_B2_day1,2022.2.4,Win32,145.2643812,,,,,,,,,,,,,,,,,,,-0.054629644,-0.123148176,1,0,0,0.5081,3,2,80,10,1,k,images/br_k.png,images/cb_k.png,,,,,,,,,,,,,,,,,,,,,,,,,
,,,,,,00107,2023-11-20_11h11.45.089,vbt_B2_day1,2022.2.4,Win32,145.2643812,,,,,,,,,,,,,,,,,,,-0.054629644,-0.123148176,1,0,0,0.2223,3,3,81,4,1,e,images/br_e.png,images/cb_e.png,,,,,,,,,,,,,,,,,,,,,,,,,
,,,,,,00107,2023-11-20_11h11.45.089,vbt_B2_day1,2022.2.4,Win32,145.2643812,,,,,,,,,,,,,,,,,,,-0.054629644,-0.123148176,1,0,0,0.6054,3,4,82,20,1,u,images/br_u.png,images/cb_u.png,,,,,,,,,,,,,,,,,,,,,,,,,
,,,,,,00107,2023-11-20_11h11.45.089,vbt_B2_day1,2022.2.4,Win32,145.2643812,,,,,,,,,,,,,,,,,,,-0.054629644,-0.123148176,1,0,0,0.0905,3,5,83,12,1,m,images/br_m.png,images/cb_m.png,,,,,,,,,,,,,,,,,,,,,,,,,
,,,,,,00107,2023-11-20_11h11.45.089,vbt_B2_day1,2022.2.4,Win32,145.2643812,,,,,,,,,,,,,,,,,,,-0.054629644,-0.123148176,1,0,0,0.437,3,6,84,7,1,h,images/br_h.png,images/cb_h.png,,,,,,,,,,,,,,,,,,,,,,,,,
,,,,,,00107,2023-11-20_11h11.45.089,vbt_B2_day1,2022.2.4,Win32,145.2643812,,,,,,,,,,,,,,,,,,,-0.054629644,-0.123148176,1,0,0,0.8878,3,7,85,24,1,y,images/br_y.png,images/cb_y.png,,,,,,,,,,,,,,,,,,,,,,,,,
,,,,,,00107,2023-11-20_11h11.45.089,vbt_B2_day1,2022.2.4,Win32,145.2643812,,,,,,,,,,,,,,,,,,,-0.054629644,-0.123148176,1,0,0,0.3747,3,8,86,17,1,r,images/br_r.png,images/cb_r.png,,,,,,,,,,,,,,,,,,,,,,,,,
,,,,,,00107,2023-11-20_11h11.45.089,vbt_B2_day1,2022.2.4,Win32,145.2643812,,,,,,,,,,,,,,,,,,,-0.054629644,-0.123148176,1,0,0,0.9231,3,9,87,14,1,o,images/br_o.png,images/cb_o.png,,,,,,,,,,,,,,,,,,,,,,,,,
,,,,,,00107,2023-11-20_11h11.45.089,vbt_B2_day1,2022.2.4,Win32,145.2643812,,,,,,,,,,,,,,,,,,,-0.054629644,-0.123148176,1,0,0,0.6791,3,10,88,11,1,l,images/br_l.png,images/cb_l.png,,,,,,,,,,,,,,,,,,,,,,,,,
,,,,,,00107,2023-11-20_11h11.45.089,vbt_B2_day1,2022.2.4,Win32,145.2643812,,,,,,,,,,,,,,,,,,,-0.054629644,-0.123148176,1,0,0,0.6178,3,11,89,8,1,i,images/br_i.png,images/cb_i.png,,,,,,,,,,,,,,,,,,,,,,,,,
,,,,,,00107,2023-11-20_11h11.45.089,vbt_B2_day1,2022.2.4,Win32,145.2643812,,,,,,,,,,,,,,,,,,,-0.054629644,-0.123148176,1,0,0,0.757,3,12,90,9,1,j,images/br_j.png,images/cb_j.png,,,,,,,,,,,,,,,,,,,,,,,,,
,,,,,,00107,2023-11-20_11h11.45.089,vbt_B2_day1,2022.2.4,Win32,145.2643812,,,,,,,,,,,,,,,,,,,-0.054629644,-0.123148176,1,0,0,0.1461,3,13,91,5,1,f,images/br_f.png,images/cb_f.png,,,,,,,,,,,,,,,,,,,,,,,,,
,,,,,,00107,2023-11-20_11h11.45.089,vbt_B2_day1,2022.2.4,Win32,145.2643812,,,,,,,,,,,,,,,,,,,-0.055555556,-0.123148176,1,0,0,0.9098,3,14,92,2,1,c,images/br_c.png,images/cb_c.png,,,,,,,,,,,,,,,,,,,,,,,,,
,,,,,,00107,2023-11-20_11h11.45.089,vbt_B2_day1,2022.2.4,Win32,145.2643812,,,,,,,,,,,,,,,,,,,-0.055555556,-0.123148176,1,0,0,0.215,3,15,93,3,1,d,images/br_d.png,images/cb_d.png,,,,,,,,,,,,,,,,,,,,,,,,,
,,,,,,00107,2023-11-20_11h11.45.089,vbt_B2_day1,2022.2.4,Win32,145.2643812,,,,,,,,,,,,,,,,,,,-0.055555556,-0.123148176,0,0,1,0.5415,3,16,94,1,1,b,images/br_b.png,images/cb_b.png,,,,,,,,,,,,,,,,,,,,,,,,,
,,,,,,00107,2023-11-20_11h11.45.089,vbt_B2_day1,2022.2.4,Win32,145.2643812,,,,,,,,,,,,,,,,,,,-0.055555556,-0.123148176,1,0,0,0.5002,3,17,95,13,1,n,images/br_n.png,images/cb_n.png,,,,,,,,,,,,,,,,,,,,,,,,,
,,,,,,00107,2023-11-20_11h11.45.089,vbt_B2_day1,2022.2.4,Win32,145.2643812,,,,,,,,,,,,,,,,,,,-0.055555556,-0.123148176,0,0,1,0.3988,3,18,96,25,1,z,images/br_z.png,images/cb_z.png,,,,,,,,,,,,,,,,,,,,,,,,,
,,,,,,00107,2023-11-20_11h11.45.089,vbt_B2_day1,2022.2.4,Win32,145.2643812,,,,,,,,,,,,,,,,,,,-0.055555556,-0.123148176,1,0,0,0.0158,3,19,97,22,1,w,images/br_w.png,images/cb_w.png,,,,,,,,,,,,,,,,,,,,,,,,,
,,,,,,00107,2023-11-20_11h11.45.089,vbt_B2_day1,2022.2.4,Win32,145.2643812,,,,,,,,,,,,,,,,,,,-0.055555556,-0.123148176,1,0,0,0.2141,3,20,98,19,1,t,images/br_t.png,images/cb_t.png,,,,,,,,,,,,,,,,,,,,,,,,,
,,,,,,00107,2023-11-20_11h11.45.089,vbt_B2_day1,2022.2.4,Win32,145.2643812,,,,,,,,,,,,,,,,,,,-0.055555556,-0.123148176,1,0,0,0.3743,3,21,99,6,1,g,images/br_g.png,images/cb_g.png,,,,,,,,,,,,,,,,,,,,,,,,,
,,,,,,00107,2023-11-20_11h11.45.089,vbt_B2_day1,2022.2.4,Win32,145.2643812,,,,,,,,,,,,,,,,,,,-0.055555556,-0.123148176,1,0,0,0.0829,3,22,100,0,1,a,images/br_a.png,images/cb_a.png,,,,,,,,,,,,,,,,,,,,,,,,,
,,,,,,00107,2023-11-20_11h11.45.089,vbt_B2_day1,2022.2.4,Win32,145.2643812,,,,,,,,,,,,,,,,,,,-0.055555556,-0.123148176,1,0,0,0.3673,3,23,101,18,1,s,images/br_s.png,images/cb_s.png,,,,,,,,,,,,,,,,,,,,,,,,,
,,,,,,00107,2023-11-20_11h11.45.089,vbt_B2_day1,2022.2.4,Win32,145.2643812,,,,,,,,,,,,,,,,,,,-0.055555556,-0.123148176,1,0,0,0.3353,3,24,102,15,1,p,images/br_p.png,images/cb_p.png,,,,,,,,,,,,,,,,,,,,,,,,,
,,,,,,00107,2023-11-20_11h11.45.089,vbt_B2_day1,2022.2.4,Win32,145.2643812,,,,,,,,,,,,,,,,,,,-0.055555556,-0.123148176,1,0,0,0.2141,3,25,103,23,1,x,images/br_x.png,images/cb_x.png,,,,,,,,,,,,,,,,,,,,,,,,,
,,,,,,00107,2023-11-20_11h11.45.089,vbt_B2_day1,2022.2.4,Win32,145.2643812,,,,,,,,,,,,,,,,,,,-0.055555556,-0.123148176,1,0,0,0.1511,4,0,104,0,1,a,images/br_a.png,images/cb_a.png,,,,,,,,,,,,,,,,,,,,,,,,,
,,,,,,00107,2023-11-20_11h11.45.089,vbt_B2_day1,2022.2.4,Win32,145.2643812,,,,,,,,,,,,,,,,,,,-0.055555556,-0.123148176,1,0,0,0.6171,4,1,105,7,1,h,images/br_h.png,images/cb_h.png,,,,,,,,,,,,,,,,,,,,,,,,,
,,,,,,00107,2023-11-20_11h11.45.089,vbt_B2_day1,2022.2.4,Win32,145.2643812,,,,,,,,,,,,,,,,,,,-0.055555556,-0.123148176,1,0,0,0.0818,4,2,106,18,1,s,images/br_s.png,images/cb_s.png,,,,,,,,,,,,,,,,,,,,,,,,,
,,,,,,00107,2023-11-20_11h11.45.089,vbt_B2_day1,2022.2.4,Win32,145.2643812,,,,,,,,,,,,,,,,,,,-0.036111125,-0.112037023,1,0,0,1.2363,4,3,107,5,1,f,images/br_f.png,images/cb_f.png,,,,,,,,,,,,,,,,,,,,,,,,,
,,,,,,00107,2023-11-20_11h11.45.089,vbt_B2_day1,2022.2.4,Win32,145.2643812,,,,,,,,,,,,,,,,,,,-0.037037037,-0.098148134,1,0,0,0.8538,4,4,108,6,1,g,images/br_g.png,images/cb_g.png,,,,,,,,,,,,,,,,,,,,,,,,,
,,,,,,00107,2023-11-20_11h11.45.089,vbt_B2_day1,2022.2.4,Win32,145.2643812,,,,,,,,,,,,,,,,,,,-0.039814772,-0.085185192,1,0,0,0.0348,4,5,109,13,1,n,images/br_n.png,images/cb_n.png,,,,,,,,,,,,,,,,,,,,,,,,,
,,,,,,00107,2023-11-20_11h11.45.089,vbt_B2_day1,2022.2.4,Win32,145.2643812,,,,,,,,,,,,,,,,,,,-0.039814772,-0.085185192,1,0,0,1.2049,4,6,110,21,1,v,images/br_v.png,images/cb_v.png,,,,,,,,,,,,,,,,,,,,,,,,,
,,,,,,00107,2023-11-20_11h11.45.089,vbt_B2_day1,2022.2.4,Win32,145.2643812,,,,,,,,,,,,,,,,,,,-0.039814772,-0.085185192,1,0,0,0.3256,4,7,111,9,1,j,images/br_j.png,images/cb_j.png,,,,,,,,,,,,,,,,,,,,,,,,,
,,,,,,00107,2023-11-20_11h11.45.089,vbt_B2_day1,2022.2.4,Win32,145.2643812,,,,,,,,,,,,,,,,,,,-0.039814772,-0.085185192,1,0,0,0.0141,4,8,112,3,1,d,images/br_d.png,images/cb_d.png,,,,,,,,,,,,,,,,,,,,,,,,,
,,,,,,00107,2023-11-20_11h11.45.089,vbt_B2_day1,2022.2.4,Win32,145.2643812,,,,,,,,,,,,,,,,,,,-0.039814772,-0.085185192,1,0,0,0.4441,4,9,113,19,1,t,images/br_t.png,images/cb_t.png,,,,,,,,,,,,,,,,,,,,,,,,,
,,,,,,00107,2023-11-20_11h11.45.089,vbt_B2_day1,2022.2.4,Win32,145.2643812,,,,,,,,,,,,,,,,,,,-0.044444402,-0.075000021,1,0,0,0.0451,4,10,114,11,1,l,images/br_l.png,images/cb_l.png,,,,,,,,,,,,,,,,,,,,,,,,,
,,,,,,00107,2023-11-20_11h11.45.089,vbt_B2_day1,2022.2.4,Win32,145.2643812,,,,,,,,,,,,,,,,,,,-0.044444402,-0.075000021,1,0,0,0.2564,4,11,115,10,1,k,images/br_k.png,images/cb_k.png,,,,,,,,,,,,,,,,,,,,,,,,,
,,,,,,00107,2023-11-20_11h11.45.089,vbt_B2_day1,2022.2.4,Win32,145.2643812,,,,,,,,,,,,,,,,,,,-0.044444402,-0.075000021,1,0,0,0.1285,4,12,116,4,1,e,images/br_e.png,images/cb_e.png,,,,,,,,,,,,,,,,,,,,,,,,,
,,,,,,00107,2023-11-20_11h11.45.089,vbt_B2_day1,2022.2.4,Win32,145.2643812,,,,,,,,,,,,,,,,,,,-0.044444402,-0.075000021,1,0,0,0.0403,4,13,117,20,1,u,images/br_u.png,images/cb_u.png,,,,,,,,,,,,,,,,,,,,,,,,,
,,,,,,00107,2023-11-20_11h11.45.089,vbt_B2_day1,2022.2.4,Win32,145.2643812,,,,,,,,,,,,,,,,,,,-0.044444402,-0.075000021,1,0,0,0.423,4,14,118,23,1,x,images/br_x.png,images/cb_x.png,,,,,,,,,,,,,,,,,,,,,,,,,
,,,,,,00107,2023-11-20_11h11.45.089,vbt_B2_day1,2022.2.4,Win32,145.2643812,,,,,,,,,,,,,,,,,,,-0.044444402,-0.075000021,1,0,0,0.2982,4,15,119,15,1,p,images/br_p.png,images/cb_p.png,,,,,,,,,,,,,,,,,,,,,,,,,
,,,,,,00107,2023-11-20_11h11.45.089,vbt_B2_day1,2022.2.4,Win32,145.2643812,,,,,,,,,,,,,,,,,,,-0.044444402,-0.075000021,1,0,0,0.0411,4,16,120,2,1,c,images/br_c.png,images/cb_c.png,,,,,,,,,,,,,,,,,,,,,,,,,
,,,,,,00107,2023-11-20_11h11.45.089,vbt_B2_day1,2022.2.4,Win32,145.2643812,,,,,,,,,,,,,,,,,,,-0.044444402,-0.075000021,1,0,0,0.0205,4,17,121,12,1,m,images/br_m.png,images/cb_m.png,,,,,,,,,,,,,,,,,,,,,,,,,
,,,,,,00107,2023-11-20_11h11.45.089,vbt_B2_day1,2022.2.4,Win32,145.2643812,,,,,,,,,,,,,,,,,,,-0.044444402,-0.075000021,1,0,0,0.5234,4,18,122,25,1,z,images/br_z.png,images/cb_z.png,,,,,,,,,,,,,,,,,,,,,,,,,
,,,,,,00107,2023-11-20_11h11.45.089,vbt_B2_day1,2022.2.4,Win32,145.2643812,,,,,,,,,,,,,,,,,,,-0.044444402,-0.075000021,1,0,0,0.3258,4,19,123,14,1,o,images/br_o.png,images/cb_o.png,,,,,,,,,,,,,,,,,,,,,,,,,
,,,,,,00107,2023-11-20_11h11.45.089,vbt_B2_day1,2022.2.4,Win32,145.2643812,,,,,,,,,,,,,,,,,,,-0.044444402,-0.075000021,1,0,0,0.1834,4,20,124,16,1,q,images/br_q.png,images/cb_q.png,,,,,,,,,,,,,,,,,,,,,,,,,
,,,,,,00107,2023-11-20_11h11.45.089,vbt_B2_day1,2022.2.4,Win32,145.2643812,,,,,,,,,,,,,,,,,,,-0.044444402,-0.075000021,1,0,0,0.0756,4,21,125,17,1,r,images/br_r.png,images/cb_r.png,,,,,,,,,,,,,,,,,,,,,,,,,
,,,,,,00107,2023-11-20_11h11.45.089,vbt_B2_day1,2022.2.4,Win32,145.2643812,,,,,,,,,,,,,,,,,,,-0.044444402,-0.075000021,1,0,0,0.27,4,22,126,1,1,b,images/br_b.png,images/cb_b.png,,,,,,,,,,,,,,,,,,,,,,,,,
,,,,,,00107,2023-11-20_11h11.45.089,vbt_B2_day1,2022.2.4,Win32,145.2643812,,,,,,,,,,,,,,,,,,,-0.044444402,-0.075000021,1,0,0,0.0281,4,23,127,8,1,i,images/br_i.png,images/cb_i.png,,,,,,,,,,,,,,,,,,,,,,,,,
,,,,,,00107,2023-11-20_11h11.45.089,vbt_B2_day1,2022.2.4,Win32,145.2643812,,,,,,,,,,,,,,,,,,,-0.044444402,-0.075000021,1,0,0,0.3665,4,24,128,24,1,y,images/br_y.png,images/cb_y.png,,,,,,,,,,,,,,,,,,,,,,,,,
,,,,,,00107,2023-11-20_11h11.45.089,vbt_B2_day1,2022.2.4,Win32,145.2643812,,,,,,,,,,,,,,,,,,,-0.044444402,-0.075000021,1,0,0,0.1595,4,25,129,22,1,w,images/br_w.png,images/cb_w.png,,,,,,,,,,,,,,,,,,,,,,,,,
,,,,,,00107,2023-11-20_11h11.45.089,vbt_B2_day1,2022.2.4,Win32,145.2643812,,,,,,,,,,,,,,,,,,,-0.044444402,-0.075000021,1,0,0,0.1948,5,0,130,20,1,u,images/br_u.png,images/cb_u.png,,,,,,,,,,,,,,,,,,,,,,,,,
,,,,,,00107,2023-11-20_11h11.45.089,vbt_B2_day1,2022.2.4,Win32,145.2643812,,,,,,,,,,,,,,,,,,,-0.044444402,-0.075000021,1,0,0,0.1187,5,1,131,17,1,r,images/br_r.png,images/cb_r.png,,,,,,,,,,,,,,,,,,,,,,,,,
,,,,,,00107,2023-11-20_11h11.45.089,vbt_B2_day1,2022.2.4,Win32,145.2643812,,,,,,,,,,,,,,,,,,,-0.044444402,-0.075000021,0,0,1,0.0955,5,2,132,0,1,a,images/br_a.png,images/cb_a.png,,,,,,,,,,,,,,,,,,,,,,,,,
,,,,,,00107,2023-11-20_11h11.45.089,vbt_B2_day1,2022.2.4,Win32,145.2643812,,,,,,,,,,,,,,,,,,,-0.044444402,-0.075000021,1,0,0,0.8051,5,3,133,3,1,d,images/br_d.png,images/cb_d.png,,,,,,,,,,,,,,,,,,,,,,,,,
,,,,,,00107,2023-11-20_11h11.45.089,vbt_B2_day1,2022.2.4,Win32,145.2643812,,,,,,,,,,,,,,,,,,,-0.044444402,-0.075000021,1,0,0,0.3872,5,4,134,4,1,e,images/br_e.png,images/cb_e.png,,,,,,,,,,,,,,,,,,,,,,,,,
,,,,,,00107,2023-11-20_11h11.45.089,vbt_B2_day1,2022.2.4,Win32,145.2643812,,,,,,,,,,,,,,,,,,,-0.044444402,-0.075000021,1,0,0,0.2286,5,5,135,6,1,g,images/br_g.png,images/cb_g.png,,,,,,,,,,,,,,,,,,,,,,,,,
,,,,,,00107,2023-11-20_11h11.45.089,vbt_B2_day1,2022.2.4,Win32,145.2643812,,,,,,,,,,,,,,,,,,,-0.044444402,-0.075000021,1,0,0,0.1669,5,6,136,21,1,v,images/br_v.png,images/cb_v.png,,,,,,,,,,,,,,,,,,,,,,,,,
,,,,,,00107,2023-11-20_11h11.45.089,vbt_B2_day1,2022.2.4,Win32,145.2643812,,,,,,,,,,,,,,,,,,,-0.044444402,-0.075000021,1,0,0,0.1589,5,7,137,11,1,l,images/br_l.png,images/cb_l.png,,,,,,,,,,,,,,,,,,,,,,,,,
,,,,,,00107,2023-11-20_11h11.45.089,vbt_B2_day1,2022.2.4,Win32,145.2643812,,,,,,,,,,,,,,,,,,,-0.044444402,-0.075000021,1,0,0,0.1878,5,8,138,22,1,w,images/br_w.png,images/cb_w.png,,,,,,,,,,,,,,,,,,,,,,,,,
,,,,,,00107,2023-11-20_11h11.45.089,vbt_B2_day1,2022.2.4,Win32,145.2643812,,,,,,,,,,,,,,,,,,,-0.031481496,-0.031481496,1,0,0,0.4288,5,9,139,5,1,f,images/br_f.png,images/cb_f.png,,,,,,,,,,,,,,,,,,,,,,,,,
,,,,,,00107,2023-11-20_11h11.45.089,vbt_B2_day1,2022.2.4,Win32,145.2643812,,,,,,,,,,,,,,,,,,,-0.102777764,-0.12037037,1,0,0,0.3052,5,10,140,7,1,h,images/br_h.png,images/cb_h.png,,,,,,,,,,,,,,,,,,,,,,,,,
,,,,,,00107,2023-11-20_11h11.45.089,vbt_B2_day1,2022.2.4,Win32,145.2643812,,,,,,,,,,,,,,,,,,,-0.102777764,-0.12037037,1,0,0,0.4724,5,11,141,25,1,z,images/br_z.png,images/cb_z.png,,,,,,,,,,,,,,,,,,,,,,,,,
,,,,,,00107,2023-11-20_11h11.45.089,vbt_B2_day1,2022.2.4,Win32,145.2643812,,,,,,,,,,,,,,,,,,,-0.102777764,-0.12037037,1,0,0,0.2634,5,12,142,19,1,t,images/br_t.png,images/cb_t.png,,,,,,,,,,,,,,,,,,,,,,,,,
,,,,,,00107,2023-11-20_11h11.45.089,vbt_B2_day1,2022.2.4,Win32,145.2643812,,,,,,,,,,,,,,,,,,,-0.102777764,-0.12037037,1,0,0,0.328,5,13,143,1,1,b,images/br_b.png,images/cb_b.png,,,,,,,,,,,,,,,,,,,,,,,,,
,,,,,,00107,2023-11-20_11h11.45.089,vbt_B2_day1,2022.2.4,Win32,145.2643812,,,,,,,,,,,,,,,,,,,-0.102777764,-0.12037037,1,0,0,0.3426,5,14,144,10,1,k,images/br_k.png,images/cb_k.png,,,,,,,,,,,,,,,,,,,,,,,,,
,,,,,,00107,2023-11-20_11h11.45.089,vbt_B2_day1,2022.2.4,Win32,145.2643812,,,,,,,,,,,,,,,,,,,-0.102777764,-0.12037037,1,0,0,0.0626,5,15,145,23,1,x,images/br_x.png,images/cb_x.png,,,,,,,,,,,,,,,,,,,,,,,,,
,,,,,,00107,2023-11-20_11h11.45.089,vbt_B2_day1,2022.2.4,Win32,145.2643812,,,,,,,,,,,,,,,,,,,-0.102777764,-0.12037037,1,0,0,0.5344,5,16,146,24,1,y,images/br_y.png,images/cb_y.png,,,,,,,,,,,,,,,,,,,,,,,,,
,,,,,,00107,2023-11-20_11h11.45.089,vbt_B2_day1,2022.2.4,Win32,145.2643812,,,,,,,,,,,,,,,,,,,-0.102777764,-0.12037037,1,0,0,1.1736,5,17,147,12,1,m,images/br_m.png,images/cb_m.png,,,,,,,,,,,,,,,,,,,,,,,,,
,,,,,,00107,2023-11-20_11h11.45.089,vbt_B2_day1,2022.2.4,Win32,145.2643812,,,,,,,,,,,,,,,,,,,-0.102777764,-0.12037037,1,0,0,0.5416,5,18,148,13,1,n,images/br_n.png,images/cb_n.png,,,,,,,,,,,,,,,,,,,,,,,,,
,,,,,,00107,2023-11-20_11h11.45.089,vbt_B2_day1,2022.2.4,Win32,145.2643812,,,,,,,,,,,,,,,,,,,-0.102777764,-0.12037037,1,0,0,0.3053,5,19,149,16,1,q,images/br_q.png,images/cb_q.png,,,,,,,,,,,,,,,,,,,,,,,,,
,,,,,,00107,2023-11-20_11h11.45.089,vbt_B2_day1,2022.2.4,Win32,145.2643812,,,,,,,,,,,,,,,,,,,-0.102777764,-0.12037037,1,0,0,0.0821,5,20,150,15,1,p,images/br_p.png,images/cb_p.png,,,,,,,,,,,,,,,,,,,,,,,,,
,,,,,,00107,2023-11-20_11h11.45.089,vbt_B2_day1,2022.2.4,Win32,145.2643812,,,,,,,,,,,,,,,,,,,-0.102777764,-0.12037037,1,0,0,0.5963,5,21,151,2,1,c,images/br_c.png,images/cb_c.png,,,,,,,,,,,,,,,,,,,,,,,,,
,,,,,,00107,2023-11-20_11h11.45.089,vbt_B2_day1,2022.2.4,Win32,145.2643812,,,,,,,,,,,,,,,,,,,-0.102777764,-0.12037037,1,0,0,0.8336,5,22,152,8,1,i,images/br_i.png,images/cb_i.png,,,,,,,,,,,,,,,,,,,,,,,,,
,,,,,,00107,2023-11-20_11h11.45.089,vbt_B2_day1,2022.2.4,Win32,145.2643812,,,,,,,,,,,,,,,,,,,-0.102777764,-0.12037037,1,0,0,0.0278,5,23,153,14,1,o,images/br_o.png,images/cb_o.png,,,,,,,,,,,,,,,,,,,,,,,,,
,,,,,,00107,2023-11-20_11h11.45.089,vbt_B2_day1,2022.2.4,Win32,145.2643812,,,,,,,,,,,,,,,,,,,-0.102777764,-0.12037037,1,0,0,0.1113,5,24,154,9,1,j,images/br_j.png,images/cb_j.png,,,,,,,,,,,,,,,,,,,,,,,,,
,,,,,,00107,2023-11-20_11h11.45.089,vbt_B2_day1,2022.2.4,Win32,145.2643812,,,,,,,,,,,,,,,,,,,-0.102777764,-0.12037037,1,0,0,0.1664,5,25,155,18,1,s,images/br_s.png,images/cb_s.png,,,,,,,,,,,,,,,,,,,,,,,,,
,,,,,,00107,2023-11-20_11h11.45.089,vbt_B2_day1,2022.2.4,Win32,145.2643812,,,,,,,,,,,,,,,,,,,-0.102777764,-0.12037037,1,0,0,0.2147,6,0,156,1,1,b,images/br_b.png,images/cb_b.png,,,,,,,,,,,,,,,,,,,,,,,,,
,,,,,,00107,2023-11-20_11h11.45.089,vbt_B2_day1,2022.2.4,Win32,145.2643812,,,,,,,,,,,,,,,,,,,-0.102777764,-0.12037037,1,0,0,0.0692,6,1,157,17,1,r,images/br_r.png,images/cb_r.png,,,,,,,,,,,,,,,,,,,,,,,,,
,,,,,,00107,2023-11-20_11h11.45.089,vbt_B2_day1,2022.2.4,Win32,145.2643812,,,,,,,,,,,,,,,,,,,-0.102777764,-0.12037037,1,0,0,0.0562,6,2,158,22,1,w,images/br_w.png,images/cb_w.png,,,,,,,,,,,,,,,,,,,,,,,,,
,,,,,,00107,2023-11-20_11h11.45.089,vbt_B2_day1,2022.2.4,Win32,145.2643812,,,,,,,,,,,,,,,,,,,-0.102777764,-0.12037037,1,0,0,0.3679,6,3,159,24,1,y,images/br_y.png,images/cb_y.png,,,,,,,,,,,,,,,,,,,,,,,,,
,,,,,,00107,2023-11-20_11h11.45.089,vbt_B2_day1,2022.2.4,Win32,145.2643812,,,,,,,,,,,,,,,,,,,-0.102777764,-0.12037037,1,0,0,0.5827,6,4,160,8,1,i,images/br_i.png,images/cb_i.png,,,,,,,,,,,,,,,,,,,,,,,,,
,,,,,,00107,2023-11-20_11h11.45.089,vbt_B2_day1,2022.2.4,Win32,145.2643812,,,,,,,,,,,,,,,,,,,-0.102777764,-0.107407393,1,0,0,0.5205,6,5,161,16,1,q,images/br_q.png,images/cb_q.png,,,,,,,,,,,,,,,,,,,,,,,,,
,,,,,,00107,2023-11-20_11h11.45.089,vbt_B2_day1,2022.2.4,Win32,145.2643812,,,,,,,,,,,,,,,,,,,-0.102777764,-0.107407393,1,0,0,0.3507,6,6,162,0,1,a,images/br_a.png,images/cb_a.png,,,,,,,,,,,,,,,,,,,,,,,,,
,,,,,,00107,2023-11-20_11h11.45.089,vbt_B2_day1,2022.2.4,Win32,145.2643812,,,,,,,,,,,,,,,,,,,-0.102777764,-0.107407393,1,0,0,0.3747,6,7,163,3,1,d,images/br_d.png,images/cb_d.png,,,,,,,,,,,,,,,,,,,,,,,,,
,,,,,,00107,2023-11-20_11h11.45.089,vbt_B2_day1,2022.2.4,Win32,145.2643812,,,,,,,,,,,,,,,,,,,-0.102777764,-0.107407393,1,0,0,0.2926,6,8,164,15,1,p,images/br_p.png,images/cb_p.png,,,,,,,,,,,,,,,,,,,,,,,,,
,,,,,,00107,2023-11-20_11h11.45.089,vbt_B2_day1,2022.2.4,Win32,145.2643812,,,,,,,,,,,,,,,,,,,-0.102777764,-0.107407393,1,0,0,0.1945,6,9,165,6,1,g,images/br_g.png,images/cb_g.png,,,,,,,,,,,,,,,,,,,,,,,,,
,,,,,,00107,2023-11-20_11h11.45.089,vbt_B2_day1,2022.2.4,Win32,145.2643812,,,,,,,,,,,,,,,,,,,-0.102777764,-0.107407393,1,0,0,0.4235,6,10,166,19,1,t,images/br_t.png,images/cb_t.png,,,,,,,,,,,,,,,,,,,,,,,,,
,,,,,,00107,2023-11-20_11h11.45.089,vbt_B2_day1,2022.2.4,Win32,145.2643812,,,,,,,,,,,,,,,,,,,-0.102777764,-0.107407393,1,0,0,0.2429,6,11,167,11,1,l,images/br_l.png,images/cb_l.png,,,,,,,,,,,,,,,,,,,,,,,,,
,,,,,,00107,2023-11-20_11h11.45.089,vbt_B2_day1,2022.2.4,Win32,145.2643812,,,,,,,,,,,,,,,,,,,-0.102777764,-0.107407393,1,0,0,0.4374,6,12,168,5,1,f,images/br_f.png,images/cb_f.png,,,,,,,,,,,,,,,,,,,,,,,,,
,,,,,,00107,2023-11-20_11h11.45.089,vbt_B2_day1,2022.2.4,Win32,145.2643812,,,,,,,,,,,,,,,,,,,-0.102777764,-0.107407393,1,0,0,0.1662,6,13,169,21,1,v,images/br_v.png,images/cb_v.png,,,,,,,,,,,,,,,,,,,,,,,,,
,,,,,,00107,2023-11-20_11h11.45.089,vbt_B2_day1,2022.2.4,Win32,145.2643812,,,,,,,,,,,,,,,,,,,-0.102777764,-0.107407393,1,0,0,0.0828,6,14,170,20,1,u,images/br_u.png,images/cb_u.png,,,,,,,,,,,,,,,,,,,,,,,,,
,,,,,,00107,2023-11-20_11h11.45.089,vbt_B2_day1,2022.2.4,Win32,145.2643812,,,,,,,,,,,,,,,,,,,-0.102777764,-0.107407393,1,0,0,0.483,6,15,171,13,1,n,images/br_n.png,images/cb_n.png,,,,,,,,,,,,,,,,,,,,,,,,,
,,,,,,00107,2023-11-20_11h11.45.089,vbt_B2_day1,2022.2.4,Win32,145.2643812,,,,,,,,,,,,,,,,,,,-0.102777764,-0.107407393,1,0,0,0.4169,6,16,172,18,1,s,images/br_s.png,images/cb_s.png,,,,,,,,,,,,,,,,,,,,,,,,,
,,,,,,00107,2023-11-20_11h11.45.089,vbt_B2_day1,2022.2.4,Win32,145.2643812,,,,,,,,,,,,,,,,,,,-0.102777764,-0.107407393,1,0,0,0.1596,6,17,173,9,1,j,images/br_j.png,images/cb_j.png,,,,,,,,,,,,,,,,,,,,,,,,,
,,,,,,00107,2023-11-20_11h11.45.089,vbt_B2_day1,2022.2.4,Win32,145.2643812,,,,,,,,,,,,,,,,,,,-0.102777764,-0.107407393,1,0,0,0.9743,6,18,174,23,1,x,images/br_x.png,images/cb_x.png,,,,,,,,,,,,,,,,,,,,,,,,,
,,,,,,00107,2023-11-20_11h11.45.089,vbt_B2_day1,2022.2.4,Win32,145.2643812,,,,,,,,,,,,,,,,,,,-0.102777764,-0.107407393,1,0,0,0.0537,6,19,175,12,1,m,images/br_m.png,images/cb_m.png,,,,,,,,,,,,,,,,,,,,,,,,,
,,,,,,00107,2023-11-20_11h11.45.089,vbt_B2_day1,2022.2.4,Win32,145.2643812,,,,,,,,,,,,,,,,,,,-0.102777764,-0.107407393,1,0,0,0.3539,6,20,176,25,1,z,images/br_z.png,images/cb_z.png,,,,,,,,,,,,,,,,,,,,,,,,,
,,,,,,00107,2023-11-20_11h11.45.089,vbt_B2_day1,2022.2.4,Win32,145.2643812,,,,,,,,,,,,,,,,,,,-0.102777764,-0.107407393,1,0,0,0.7581,6,21,177,14,1,o,images/br_o.png,images/cb_o.png,,,,,,,,,,,,,,,,,,,,,,,,,
,,,,,,00107,2023-11-20_11h11.45.089,vbt_B2_day1,2022.2.4,Win32,145.2643812,,,,,,,,,,,,,,,,,,,-0.102777764,-0.107407393,1,0,0,0.2984,6,22,178,2,1,c,images/br_c.png,images/cb_c.png,,,,,,,,,,,,,,,,,,,,,,,,,
,,,,,,00107,2023-11-20_11h11.45.089,vbt_B2_day1,2022.2.4,Win32,145.2643812,,,,,,,,,,,,,,,,,,,-0.102777764,-0.107407393,1,0,0,0.1144,6,23,179,7,1,h,images/br_h.png,images/cb_h.png,,,,,,,,,,,,,,,,,,,,,,,,,
,,,,,,00107,2023-11-20_11h11.45.089,vbt_B2_day1,2022.2.4,Win32,145.2643812,,,,,,,,,,,,,,,,,,,-0.102777764,-0.107407393,1,0,0,0.5141,6,24,180,10,1,k,images/br_k.png,images/cb_k.png,,,,,,,,,,,,,,,,,,,,,,,,,
,,,,,,00107,2023-11-20_11h11.45.089,vbt_B2_day1,2022.2.4,Win32,145.2643812,,,,,,,,,,,,,,,,,,,-0.102777764,-0.107407393,1,0,0,0.0485,6,25,181,4,1,e,images/br_e.png,images/cb_e.png,,,,,,,,,,,,,,,,,,,,,,,,,
,,,,,,00107,2023-11-20_11h11.45.089,vbt_B2_day1,2022.2.4,Win32,145.2643812,,,,,,,,,,,,,,,,,,,,,,,,,,,,,,,,,-0.102777764,-0.107407393,1,0,0,,,,,,,,,,,,,,,,,,,,
,,,,,,00107,2023-11-20_11h11.45.089,vbt_B2_day1,2022.2.4,Win32,145.2643812,,,,,,,,,,,,,,,,,,,,,,,,,,,,,,,,,,,,,,-0.102777764,-0.107407393,1,0,0,,,,,,,,,,,,,,,
,,,,,,00107,2023-11-20_11h11.45.089,vbt_B2_day1,2022.2.4,Win32,145.2643812,,,,,,,,,,,,,,,,,,,,,,,,,,,,,,,,,,,,,,,,,,,0.089814857,-0.187037079,1,0,0,troosten,troosten,0,0,0,56,1,toezicht,images/br_toezicht.png,images/cb_toezicht.png
,,,,,,00107,2023-11-20_11h11.45.089,vbt_B2_day1,2022.2.4,Win32,145.2643812,,,,,,,,,,,,,,,,,,,,,,,,,,,,,,,,,,,,,,,,,,,0.089814857,-0.187037079,1,0,0,gezond,gezond,0,1,1,29,1,genond,images/br_genond.png,images/cb_genond.png
,,,,,,00107,2023-11-20_11h11.45.089,vbt_B2_day1,2022.2.4,Win32,145.2643812,,,,,,,,,,,,,,,,,,,,,,,,,,,,,,,,,,,,,,,,,,,0.089814857,-0.187037079,1,0,0,hiervan,hiervan,0,2,2,15,1,hiervan,images/br_hiervan.png,images/cb_hiervan.png
,,,,,,00107,2023-11-20_11h11.45.089,vbt_B2_day1,2022.2.4,Win32,145.2643812,,,,,,,,,,,,,,,,,,,,,,,,,,,,,,,,,,,,,,,,,,,0.089814857,-0.187037079,1,0,0,flullen,flullen,0,3,3,33,1,flullen,images/br_flullen.png,images/cb_flullen.png
,,,,,,00107,2023-11-20_11h11.45.089,vbt_B2_day1,2022.2.4,Win32,145.2643812,,,,,,,,,,,,,,,,,,,,,,,,,,,,,,,,,,,,,,,,,,,0.089814857,-0.187037079,1,0,0,muziek,muziek,0,4,4,10,1,muziek,images/br_muziek.png,images/cb_muziek.png
,,,,,,00107,2023-11-20_11h11.45.089,vbt_B2_day1,2022.2.4,Win32,145.2643812,,,,,,,,,,,,,,,,,,,,,,,,,,,,,,,,,,,,,,,,,,,0.089814857,-0.187037079,1,0,0,kanjer,kanjer,0,5,5,8,1,kanjer,images/br_kanjer.png,images/cb_kanjer.png
,,,,,,00107,2023-11-20_11h11.45.089,vbt_B2_day1,2022.2.4,Win32,145.2643812,,,,,,,,,,,,,,,,,,,,,,,,,,,,,,,,,,,,,,,,,,,0.089814857,-0.187037079,1,0,0,mening,mening,0,6,6,11,1,mening,images/br_mening.png,images/cb_mening.png
,,,,,,00107,2023-11-20_11h11.45.089,vbt_B2_day1,2022.2.4,Win32,145.2643812,,,,,,,,,,,,,,,,,,,,,,,,,,,,,,,,,,,,,,,,,,,0.089814857,-0.187037079,1,0,0,brijk,brijk,0,7,7,25,1,brijk,images/br_brijk.png,images/cb_brijk.png
,,,,,,00107,2023-11-20_11h11.45.089,vbt_B2_day1,2022.2.4,Win32,145.2643812,,,,,,,,,,,,,,,,,,,,,,,,,,,,,,,,,,,,,,,,,,,0.089814857,-0.187037079,1,0,0,hemel,hemel,0,8,8,45,1,hemel,images/br_hemel.png,images/cb_hemel.png
,,,,,,00107,2023-11-20_11h11.45.089,vbt_B2_day1,2022.2.4,Win32,145.2643812,,,,,,,,,,,,,,,,,,,,,,,,,,,,,,,,,,,,,,,,,,,0.089814857,-0.187037079,1,0,0,hoog,hoog,0,9,9,41,1,hoog,images/br_hoog.png,images/cb_hoog.png
,,,,,,00107,2023-11-20_11h11.45.089,vbt_B2_day1,2022.2.4,Win32,145.2643812,,,,,,,,,,,,,,,,,,,,,,,,,,,,,,,,,,,,,,,,,,,0.089814857,-0.187037079,1,0,0,slak,slak,0,10,10,0,1,slak,images/br_slak.png,images/cb_slak.png
,,,,,,00107,2023-11-20_11h11.45.089,vbt_B2_day1,2022.2.4,Win32,145.2643812,,,,,,,,,,,,,,,,,,,,,,,,,,,,,,,,,,,,,,,,,,,0.089814857,-0.187037079,1,0,0,fictie,fictie,0,11,11,48,1,fictie,images/br_fictie.png,images/cb_fictie.png
,,,,,,00107,2023-11-20_11h11.45.089,vbt_B2_day1,2022.2.4,Win32,145.2643812,,,,,,,,,,,,,,,,,,,,,,,,,,,,,,,,,,,,,,,,,,,0.089814857,-0.187037079,1,0,0,opslaan,opslaan,0,12,12,53,1,opslaan,images/br_opslaan.png,images/cb_opslaan.png
,,,,,,00107,2023-11-20_11h11.45.089,vbt_B2_day1,2022.2.4,Win32,145.2643812,,,,,,,,,,,,,,,,,,,,,,,,,,,,,,,,,,,,,,,,,,,0.089814857,-0.187037079,1,0,0,voorreur,voorreur,0,13,13,39,1,voorreur,images/br_voorreur.png,images/cb_voorreur.png
,,,,,,00107,2023-11-20_11h11.45.089,vbt_B2_day1,2022.2.4,Win32,145.2643812,,,,,,,,,,,,,,,,,,,,,,,,,,,,,,,,,,,,,,,,,,,0.089814857,-0.187037079,1,0,0,tekenen,tekenen,0,14,14,55,1,tekenen,images/br_tekenen.png,images/cb_tekenen.png
,,,,,,00107,2023-11-20_11h11.45.089,vbt_B2_day1,2022.2.4,Win32,145.2643812,,,,,,,,,,,,,,,,,,,,,,,,,,,,,,,,,,,,,,,,,,,0.089814857,-0.187037079,1,0,0,lava,lava,0,15,15,43,1,lava,images/br_lava.png,images/cb_lava.png
,,,,,,00107,2023-11-20_11h11.45.089,vbt_B2_day1,2022.2.4,Win32,145.2643812,,,,,,,,,,,,,,,,,,,,,,,,,,,,,,,,,,,,,,,,,,,0.089814857,-0.187037079,1,0,0,liedje,liedje,0,16,16,51,1,liefde,images/br_liefde.png,images/cb_liefde.png
,,,,,,00107,2023-11-20_11h11.45.089,vbt_B2_day1,2022.2.4,Win32,145.2643812,,,,,,,,,,,,,,,,,,,,,,,,,,,,,,,,,,,,,,,,,,,0.089814857,-0.187037079,1,0,0,dubbel,dubbel,0,17,17,9,1,dubbel,images/br_dubbel.png,images/cb_dubbel.png
,,,,,,00107,2023-11-20_11h11.45.089,vbt_B2_day1,2022.2.4,Win32,145.2643812,,,,,,,,,,,,,,,,,,,,,,,,,,,,,,,,,,,,,,,,,,,0.089814857,-0.187037079,1,0,0,opvatten,opvatten,0,18,18,59,1,opvatten,images/br_opvatten.png,images/cb_opvatten.png
,,,,,,00107,2023-11-20_11h11.45.089,vbt_B2_day1,2022.2.4,Win32,145.2643812,,,,,,,,,,,,,,,,,,,,,,,,,,,,,,,,,,,,,,,,,,,0.089814857,-0.187037079,1,0,0,vizier,vizier,0,19,19,49,1,vizier,images/br_vizier.png,images/cb_vizier.png
,,,,,,00107,2023-11-20_11h11.45.089,vbt_B2_day1,2022.2.4,Win32,145.2643812,,,,,,,,,,,,,,,,,,,,,,,,,,,,,,,,,,,,,,,,,,,0.089814857,-0.187037079,1,0,0,klimmen,klimmen,0,20,20,12,1,klimmen,images/br_klimmen.png,images/cb_klimmen.png
,,,,,,00107,2023-11-20_11h11.45.089,vbt_B2_day1,2022.2.4,Win32,145.2643812,,,,,,,,,,,,,,,,,,,,,,,,,,,,,,,,,,,,,,,,,,,0.089814857,-0.187037079,1,0,0,liegen,liegen,0,21,21,50,1,liegen,images/br_liegen.png,images/cb_liegen.png
,,,,,,00107,2023-11-20_11h11.45.089,vbt_B2_day1,2022.2.4,Win32,145.2643812,,,,,,,,,,,,,,,,,,,,,,,,,,,,,,,,,,,,,,,,,,,0.089814857,-0.187037079,1,0,0,reedje,reedje,0,22,22,30,1,reedje,images/br_reedje.png,images/cb_reedje.png
,,,,,,00107,2023-11-20_11h11.45.089,vbt_B2_day1,2022.2.4,Win32,145.2643812,,,,,,,,,,,,,,,,,,,,,,,,,,,,,,,,,,,,,,,,,,,0.089814857,-0.187037079,1,0,0,stuk,stuk,0,23,23,42,1,stuk,images/br_stuk.png,images/cb_stuk.png
,,,,,,00107,2023-11-20_11h11.45.089,vbt_B2_day1,2022.2.4,Win32,145.2643812,,,,,,,,,,,,,,,,,,,,,,,,,,,,,,,,,,,,,,,,,,,0.089814857,-0.187037079,1,0,0,loods,loods,0,24,24,47,1,loods,images/br_loods.png,images/cb_loods.png
,,,,,,00107,2023-11-20_11h11.45.089,vbt_B2_day1,2022.2.4,Win32,145.2643812,,,,,,,,,,,,,,,,,,,,,,,,,,,,,,,,,,,,,,,,,,,0.089814857,-0.187037079,1,0,0,opplaan,opplaan,0,25,25,32,1,opplaan,images/br_opplaan.png,images/cb_opplaan.png
,,,,,,00107,2023-11-20_11h11.45.089,vbt_B2_day1,2022.2.4,Win32,145.2643812,,,,,,,,,,,,,,,,,,,,,,,,,,,,,,,,,,,,,,,,,,,0.089814857,-0.187037079,1,0,0,dief,dief,0,26,26,40,1,dief,images/br_dief.png,images/cb_dief.png
,,,,,,00107,2023-11-20_11h11.45.089,vbt_B2_day1,2022.2.4,Win32,145.2643812,,,,,,,,,,,,,,,,,,,,,,,,,,,,,,,,,,,,,,,,,,,0.089814857,-0.187037079,1,0,0,knoe,knoe,0,27,27,22,1,knoe,images/br_knoe.png,images/cb_knoe.png
,,,,,,00107,2023-11-20_11h11.45.089,vbt_B2_day1,2022.2.4,Win32,145.2643812,,,,,,,,,,,,,,,,,,,,,,,,,,,,,,,,,,,,,,,,,,,0.089814857,-0.187037079,1,0,0,zuiplap,zuiplap,0,28,28,52,1,zuiplap,images/br_zuiplap.png,images/cb_zuiplap.png
,,,,,,00107,2023-11-20_11h11.45.089,vbt_B2_day1,2022.2.4,Win32,145.2643812,,,,,,,,,,,,,,,,,,,,,,,,,,,,,,,,,,,,,,,,,,,0.089814857,-0.187037079,1,0,0,meenemen,meenemen,0,29,29,57,1,meenemen,images/br_meenemen.png,images/cb_meenemen.png
,,,,,,00107,2023-11-20_11h11.45.089,vbt_B2_day1,2022.2.4,Win32,145.2643812,,,,,,,,,,,,,,,,,,,,,,,,,,,,,,,,,,,,,,,,,,,0.089814857,-0.187037079,1,0,0,lezen,lezen,0,30,30,46,1,lezen,images/br_lezen.png,images/cb_lezen.png
,,,,,,00107,2023-11-20_11h11.45.089,vbt_B2_day1,2022.2.4,Win32,145.2643812,,,,,,,,,,,,,,,,,,,,,,,,,,,,,,,,,,,,,,,,,,,0.089814857,-0.187037079,1,0,0,bebrip,bebrip,0,31,31,28,1,bebrip,images/br_bebrip.png,images/cb_bebrip.png
,,,,,,00107,2023-11-20_11h11.45.089,vbt_B2_day1,2022.2.4,Win32,145.2643812,,,,,,,,,,,,,,,,,,,,,,,,,,,,,,,,,,,,,,,,,,,0.089814857,-0.187037079,1,0,0,vervaden,vervaden,0,32,32,36,1,vervaden,images/br_vervaden.png,images/cb_vervaden.png
,,,,,,00107,2023-11-20_11h11.45.089,vbt_B2_day1,2022.2.4,Win32,145.2643812,,,,,,,,,,,,,,,,,,,,,,,,,,,,,,,,,,,,,,,,,,,0.089814857,-0.187037079,1,0,0,maken,maken,0,33,33,5,1,maken,images/br_maken.png,images/cb_maken.png
,,,,,,00107,2023-11-20_11h11.45.089,vbt_B2_day1,2022.2.4,Win32,145.2643812,,,,,,,,,,,,,,,,,,,,,,,,,,,,,,,,,,,,,,,,,,,0.089814857,-0.187037079,1,0,0,stamen,stamen,0,34,34,31,1,stamen,images/br_stamen.png,images/cb_stamen.png
,,,,,,00107,2023-11-20_11h11.45.089,vbt_B2_day1,2022.2.4,Win32,145.2643812,,,,,,,,,,,,,,,,,,,,,,,,,,,,,,,,,,,,,,,,,,,0.089814857,-0.187037079,1,0,0,klauw,klauw,0,35,35,7,1,klauw,images/br_klauw.png,images/cb_klauw.png
,,,,,,00107,2023-11-20_11h11.45.089,vbt_B2_day1,2022.2.4,Win32,145.2643812,,,,,,,,,,,,,,,,,,,,,,,,,,,,,,,,,,,,,,,,,,,0.089814857,-0.187037079,1,0,0,daarheen,daarheen,0,36,36,16,1,daarheen,images/br_daarheen.png,images/cb_daarheen.png
,,,,,,00107,2023-11-20_11h11.45.089,vbt_B2_day1,2022.2.4,Win32,145.2643812,,,,,,,,,,,,,,,,,,,,,,,,,,,,,,,,,,,,,,,,,,,0.089814857,-0.187037079,1,0,0,booi,booi,0,37,37,23,1,booi,images/br_booi.png,images/cb_booi.png
,,,,,,00107,2023-11-20_11h11.45.089,vbt_B2_day1,2022.2.4,Win32,145.2643812,,,,,,,,,,,,,,,,,,,,,,,,,,,,,,,,,,,,,,,,,,,0.089814857,-0.187037079,1,0,0,attentie,attentie,0,38,38,17,1,attentie,images/br_attentie.png,images/cb_attentie.png
,,,,,,00107,2023-11-20_11h11.45.089,vbt_B2_day1,2022.2.4,Win32,145.2643812,,,,,,,,,,,,,,,,,,,,,,,,,,,,,,,,,,,,,,,,,,,0.089814857,-0.187037079,1,0,0,mand,mand,0,39,39,3,1,mand,images/br_mand.png,images/cb_mand.png
,,,,,,00107,2023-11-20_11h11.45.089,vbt_B2_day1,2022.2.4,Win32,145.2643812,,,,,,,,,,,,,,,,,,,,,,,,,,,,,,,,,,,,,,,,,,,0.089814857,-0.187037079,1,0,0,prort,prort,0,40,40,27,1,prort,images/br_prort.png,images/cb_prort.png
,,,,,,00107,2023-11-20_11h11.45.089,vbt_B2_day1,2022.2.4,Win32,145.2643812,,,,,,,,,,,,,,,,,,,,,,,,,,,,,,,,,,,,,,,,,,,0.089814857,-0.187037079,1,0,0,stuikem,stuikem,0,41,41,35,1,stuikem,images/br_stuikem.png,images/cb_stuikem.png
,,,,,,00107,2023-11-20_11h11.45.089,vbt_B2_day1,2022.2.4,Win32,145.2643812,,,,,,,,,,,,,,,,,,,,,,,,,,,,,,,,,,,,,,,,,,,0.089814857,-0.187037079,1,0,0,valop,valop,0,42,42,26,1,valop,images/br_valop.png,images/cb_valop.png
,,,,,,00107,2023-11-20_11h11.45.089,vbt_B2_day1,2022.2.4,Win32,145.2643812,,,,,,,,,,,,,,,,,,,,,,,,,,,,,,,,,,,,,,,,,,,0.089814857,-0.187037079,1,0,0,vijftig,vijftig,0,43,43,54,1,vijftig,images/br_vijftig.png,images/cb_vijftig.png
,,,,,,00107,2023-11-20_11h11.45.089,vbt_B2_day1,2022.2.4,Win32,145.2643812,,,,,,,,,,,,,,,,,,,,,,,,,,,,,,,,,,,,,,,,,,,0.089814857,-0.187037079,1,0,0,voorkeur,voorkeur,0,44,44,58,1,voorkeur,images/br_voorkeur.png,images/cb_voorkeur.png
,,,,,,00107,2023-11-20_11h11.45.089,vbt_B2_day1,2022.2.4,Win32,145.2643812,,,,,,,,,,,,,,,,,,,,,,,,,,,,,,,,,,,,,,,,,,,0.089814857,-0.187037079,1,0,0,wijne,wijne,0,45,45,44,1,wijze,images/br_wijze.png,images/cb_wijze.png
,,,,,,00107,2023-11-20_11h11.45.089,vbt_B2_day1,2022.2.4,Win32,145.2643812,,,,,,,,,,,,,,,,,,,,,,,,,,,,,,,,,,,,,,,,,,,0.089814857,-0.187037079,1,0,0,daar,daar,0,46,46,2,1,jaar,images/br_jaar.png,images/cb_jaar.png
,,,,,,00107,2023-11-20_11h11.45.089,vbt_B2_day1,2022.2.4,Win32,145.2643812,,,,,,,,,,,,,,,,,,,,,,,,,,,,,,,,,,,,,,,,,,,0.089814857,-0.187037079,1,0,0,lochten,lochten,0,47,47,34,1,lochten,images/br_lochten.png,images/cb_lochten.png
,,,,,,00107,2023-11-20_11h11.45.089,vbt_B2_day1,2022.2.4,Win32,145.2643812,,,,,,,,,,,,,,,,,,,,,,,,,,,,,,,,,,,,,,,,,,,0.089814857,-0.187037079,1,0,0,dred,dred,0,48,48,21,1,dred,images/br_dred.png,images/cb_dred.png
,,,,,,00107,2023-11-20_11h11.45.089,vbt_B2_day1,2022.2.4,Win32,145.2643812,,,,,,,,,,,,,,,,,,,,,,,,,,,,,,,,,,,,,,,,,,,0.089814857,-0.187037079,1,0,0,twijfel,twijfel,0,49,49,13,1,twijfel,images/br_twijfel.png,images/cb_twijfel.png
,,,,,,00107,2023-11-20_11h11.45.089,vbt_B2_day1,2022.2.4,Win32,145.2643812,,,,,,,,,,,,,,,,,,,,,,,,,,,,,,,,,,,,,,,,,,,0.089814857,-0.187037079,1,0,0,tars,tars,0,50,50,20,1,tars,images/br_tars.png,images/cb_tars.png
,,,,,,00107,2023-11-20_11h11.45.089,vbt_B2_day1,2022.2.4,Win32,145.2643812,,,,,,,,,,,,,,,,,,,,,,,,,,,,,,,,,,,,,,,,,,,0.089814857,-0.187037079,1,0,0,spanzing,spanzing,0,51,51,37,1,spanzing,images/br_spanzing.png,images/cb_spanzing.png
,,,,,,00107,2023-11-20_11h11.45.089,vbt_B2_day1,2022.2.4,Win32,145.2643812,,,,,,,,,,,,,,,,,,,,,,,,,,,,,,,,,,,,,,,,,,,0.089814857,-0.187037079,1,0,0,zaal,zaal,0,52,52,1,1,zaal,images/br_zaal.png,images/cb_zaal.png
,,,,,,00107,2023-11-20_11h11.45.089,vbt_B2_day1,2022.2.4,Win32,145.2643812,,,,,,,,,,,,,,,,,,,,,,,,,,,,,,,,,,,,,,,,,,,0.089814857,-0.187037079,1,0,0,uitdelen,uitdelen,0,53,53,18,1,uitdelen,images/br_uitdelen.png,images/cb_uitdelen.png
,,,,,,00107,2023-11-20_11h11.45.089,vbt_B2_day1,2022.2.4,Win32,145.2643812,,,,,,,,,,,,,,,,,,,,,,,,,,,,,,,,,,,,,,,,,,,0.089814857,-0.187037079,1,0,0,waarvan,waarvan,0,54,54,14,1,waarvan,images/br_waarvan.png,images/cb_waarvan.png
,,,,,,00107,2023-11-20_11h11.45.089,vbt_B2_day1,2022.2.4,Win32,145.2643812,,,,,,,,,,,,,,,,,,,,,,,,,,,,,,,,,,,,,,,,,,,0.089814857,-0.187037079,1,0,0,schep,schep,0,55,55,4,1,schep,images/br_schep.png,images/cb_schep.png
,,,,,,00107,2023-11-20_11h11.45.089,vbt_B2_day1,2022.2.4,Win32,145.2643812,,,,,,,,,,,,,,,,,,,,,,,,,,,,,,,,,,,,,,,,,,,0.089814857,-0.187037079,1,0,0,bleek,bleek,0,56,56,6,1,bleek,images/br_bleek.png,images/cb_bleek.png
,,,,,,00107,2023-11-20_11h11.45.089,vbt_B2_day1,2022.2.4,Win32,145.2643812,,,,,,,,,,,,,,,,,,,,,,,,,,,,,,,,,,,,,,,,,,,0.089814857,-0.187037079,1,0,0,schielen,schielen,0,57,57,38,1,schielen,images/br_schielen.png,images/cb_schielen.png
,,,,,,00107,2023-11-20_11h11.45.089,vbt_B2_day1,2022.2.4,Win32,145.2643812,,,,,,,,,,,,,,,,,,,,,,,,,,,,,,,,,,,,,,,,,,,0.089814857,-0.187037079,1,0,0,schuilen,schuilen,0,58,58,19,1,schuilen,images/br_schuilen.png,images/cb_schuilen.png
,,,,,,00107,2023-11-20_11h11.45.089,vbt_B2_day1,2022.2.4,Win32,145.2643812,,,,,,,,,,,,,,,,,,,,,,,,,,,,,,,,,,,,,,,,,,,0.089814857,-0.187037079,1,0,0,rezer,rezer,0,59,59,24,1,rezer,images/br_rezer.png,images/cb_rezer.png
,,,,,,00107,2023-11-20_11h11.45.089,vbt_B2_day1,2022.2.4,Win32,145.2643812,,,,,,,,,,,,,,,,,,,,,,,,,,,,,,,,,,,,,,,,,,,,,,,,,,,,,,,,,
