welcome_mouse.x,welcome_mouse.y,welcome_mouse.leftButton,welcome_mouse.midButton,welcome_mouse.rightButton,welcome_mouse.time,"ID",date,expName,psychopyVersion,OS,frameRate,mouse_2.x,mouse_2.y,mouse_2.leftButton,mouse_2.midButton,mouse_2.rightButton,mouse_2.time,mouse_3.x,mouse_3.y,mouse_3.leftButton,mouse_3.midButton,mouse_3.rightButton,mouse_3.time,train_mouse.x,train_mouse.y,train_mouse.leftButton,train_mouse.midButton,train_mouse.rightButton,train_mouse.time,braille_mouse.x,braille_mouse.y,braille_mouse.leftButton,braille_mouse.midButton,braille_mouse.rightButton,braille_mouse.time,trials.thisRepN,trials.thisTrialN,trials.thisN,trials.thisIndex,trials.ran,nlLet,brLet,cbLet,mouse.x,mouse.y,mouse.leftButton,mouse.midButton,mouse.rightButton,testInstr_mouse.x,testInstr_mouse.y,testInstr_mouse.leftButton,testInstr_mouse.midButton,testInstr_mouse.rightButton,test_mouse.x,test_mouse.y,test_mouse.leftButton,test_mouse.midButton,test_mouse.rightButton,test_response.text,testResp,test_loop.thisRepN,test_loop.thisTrialN,test_loop.thisN,test_loop.thisIndex,test_loop.ran,nlWrd,brWrd,cbWrd
0.337777778,-0.157777778,1,0,0,23.205,00049,2023-10-13_09h47.46,vbt_B2_day1,2022.2.4,MacIntel,166.6666667,,,,,,,,,,,,,,,,,,,,,,,,,,,,,,,,,,,,,,,,,,,,,,,,,,,,,,,,,
,,,,,,00049,2023-10-13_09h47.46,vbt_B2_day1,2022.2.4,MacIntel,166.6666667,0.327777778,-0.22,1,0,0,12.329,,,,,,,,,,,,,,,,,,,,,,,,,,,,,,,,,,,,,,,,,,,,,,,,,,,
,,,,,,00049,2023-10-13_09h47.46,vbt_B2_day1,2022.2.4,MacIntel,166.6666667,,,,,,,0.103333333,-0.348888889,1,0,0,48.5,,,,,,,,,,,,,,,,,,,,,,,,,,,,,,,,,,,,,,,,,,,,,
,,,,,,00049,2023-10-13_09h47.46,vbt_B2_day1,2022.2.4,MacIntel,166.6666667,,,,,,,,,,,,,0.208888889,-0.342222222,1,0,0,37.181,,,,,,,,,,,,,,,,,,,,,,,,,,,,,,,,,,,,,,,
,,,,,,00049,2023-10-13_09h47.46,vbt_B2_day1,2022.2.4,MacIntel,166.6666667,,,,,,,,,,,,,,,,,,,-0.034444444,-0.172222222,1,0,0,3.884,0,0,0,16,1,q,images/br_q.png,images/cb_q.png,,,,,,,,,,,,,,,,,,,,,,,,,
,,,,,,00049,2023-10-13_09h47.46,vbt_B2_day1,2022.2.4,MacIntel,166.6666667,,,,,,,,,,,,,,,,,,,-0.034444444,-0.172222222,1,0,0,2.517,0,1,1,11,1,l,images/br_l.png,images/cb_l.png,,,,,,,,,,,,,,,,,,,,,,,,,
,,,,,,00049,2023-10-13_09h47.46,vbt_B2_day1,2022.2.4,MacIntel,166.6666667,,,,,,,,,,,,,,,,,,,-0.034444444,-0.172222222,1,0,0,1.683,0,2,2,2,1,c,images/br_c.png,images/cb_c.png,,,,,,,,,,,,,,,,,,,,,,,,,
,,,,,,00049,2023-10-13_09h47.46,vbt_B2_day1,2022.2.4,MacIntel,166.6666667,,,,,,,,,,,,,,,,,,,-0.034444444,-0.172222222,1,0,0,0.816,0,3,3,22,1,w,images/br_w.png,images/cb_w.png,,,,,,,,,,,,,,,,,,,,,,,,,
,,,,,,00049,2023-10-13_09h47.46,vbt_B2_day1,2022.2.4,MacIntel,166.6666667,,,,,,,,,,,,,,,,,,,-0.034444444,-0.172222222,1,0,0,2.384,0,4,4,12,1,m,images/br_m.png,images/cb_m.png,,,,,,,,,,,,,,,,,,,,,,,,,
,,,,,,00049,2023-10-13_09h47.46,vbt_B2_day1,2022.2.4,MacIntel,166.6666667,,,,,,,,,,,,,,,,,,,-0.034444444,-0.172222222,1,0,0,5.665,0,5,5,23,1,x,images/br_x.png,images/cb_x.png,,,,,,,,,,,,,,,,,,,,,,,,,
,,,,,,00049,2023-10-13_09h47.46,vbt_B2_day1,2022.2.4,MacIntel,166.6666667,,,,,,,,,,,,,,,,,,,-0.034444444,-0.172222222,1,0,0,1.45,0,6,6,6,1,g,images/br_g.png,images/cb_g.png,,,,,,,,,,,,,,,,,,,,,,,,,
,,,,,,00049,2023-10-13_09h47.46,vbt_B2_day1,2022.2.4,MacIntel,166.6666667,,,,,,,,,,,,,,,,,,,-0.034444444,-0.172222222,1,0,0,1.133,0,7,7,20,1,u,images/br_u.png,images/cb_u.png,,,,,,,,,,,,,,,,,,,,,,,,,
,,,,,,00049,2023-10-13_09h47.46,vbt_B2_day1,2022.2.4,MacIntel,166.6666667,,,,,,,,,,,,,,,,,,,-0.033333333,-0.172222222,1,0,0,4.816,0,8,8,15,1,p,images/br_p.png,images/cb_p.png,,,,,,,,,,,,,,,,,,,,,,,,,
,,,,,,00049,2023-10-13_09h47.46,vbt_B2_day1,2022.2.4,MacIntel,166.6666667,,,,,,,,,,,,,,,,,,,-0.03,-0.172222222,1,0,0,3.401,0,9,9,5,1,f,images/br_f.png,images/cb_f.png,,,,,,,,,,,,,,,,,,,,,,,,,
,,,,,,00049,2023-10-13_09h47.46,vbt_B2_day1,2022.2.4,MacIntel,166.6666667,,,,,,,,,,,,,,,,,,,-0.03,-0.172222222,1,0,0,3.567,0,10,10,14,1,o,images/br_o.png,images/cb_o.png,,,,,,,,,,,,,,,,,,,,,,,,,
,,,,,,00049,2023-10-13_09h47.46,vbt_B2_day1,2022.2.4,MacIntel,166.6666667,,,,,,,,,,,,,,,,,,,-0.03,-0.172222222,1,0,0,1.35,0,11,11,1,1,b,images/br_b.png,images/cb_b.png,,,,,,,,,,,,,,,,,,,,,,,,,
,,,,,,00049,2023-10-13_09h47.46,vbt_B2_day1,2022.2.4,MacIntel,166.6666667,,,,,,,,,,,,,,,,,,,-0.03,-0.172222222,1,0,0,2.316,0,12,12,13,1,n,images/br_n.png,images/cb_n.png,,,,,,,,,,,,,,,,,,,,,,,,,
,,,,,,00049,2023-10-13_09h47.46,vbt_B2_day1,2022.2.4,MacIntel,166.6666667,,,,,,,,,,,,,,,,,,,-0.03,-0.174444444,1,0,0,3.634,0,13,13,18,1,s,images/br_s.png,images/cb_s.png,,,,,,,,,,,,,,,,,,,,,,,,,
,,,,,,00049,2023-10-13_09h47.46,vbt_B2_day1,2022.2.4,MacIntel,166.6666667,,,,,,,,,,,,,,,,,,,-0.03,-0.174444444,1,0,0,3.733,0,14,14,21,1,v,images/br_v.png,images/cb_v.png,,,,,,,,,,,,,,,,,,,,,,,,,
,,,,,,00049,2023-10-13_09h47.46,vbt_B2_day1,2022.2.4,MacIntel,166.6666667,,,,,,,,,,,,,,,,,,,-0.03,-0.174444444,1,0,0,3.1,0,15,15,3,1,d,images/br_d.png,images/cb_d.png,,,,,,,,,,,,,,,,,,,,,,,,,
,,,,,,00049,2023-10-13_09h47.46,vbt_B2_day1,2022.2.4,MacIntel,166.6666667,,,,,,,,,,,,,,,,,,,-0.03,-0.174444444,1,0,0,2.217,0,16,16,19,1,t,images/br_t.png,images/cb_t.png,,,,,,,,,,,,,,,,,,,,,,,,,
,,,,,,00049,2023-10-13_09h47.46,vbt_B2_day1,2022.2.4,MacIntel,166.6666667,,,,,,,,,,,,,,,,,,,-0.03,-0.174444444,1,0,0,2.083,0,17,17,4,1,e,images/br_e.png,images/cb_e.png,,,,,,,,,,,,,,,,,,,,,,,,,
,,,,,,00049,2023-10-13_09h47.46,vbt_B2_day1,2022.2.4,MacIntel,166.6666667,,,,,,,,,,,,,,,,,,,-0.03,-0.174444444,1,0,0,3.032,0,18,18,24,1,y,images/br_y.png,images/cb_y.png,,,,,,,,,,,,,,,,,,,,,,,,,
,,,,,,00049,2023-10-13_09h47.46,vbt_B2_day1,2022.2.4,MacIntel,166.6666667,,,,,,,,,,,,,,,,,,,-0.03,-0.174444444,1,0,0,0.516,0,19,19,17,1,r,images/br_r.png,images/cb_r.png,,,,,,,,,,,,,,,,,,,,,,,,,
,,,,,,00049,2023-10-13_09h47.46,vbt_B2_day1,2022.2.4,MacIntel,166.6666667,,,,,,,,,,,,,,,,,,,-0.03,-0.174444444,1,0,0,2.283,0,20,20,0,1,a,images/br_a.png,images/cb_a.png,,,,,,,,,,,,,,,,,,,,,,,,,
,,,,,,00049,2023-10-13_09h47.46,vbt_B2_day1,2022.2.4,MacIntel,166.6666667,,,,,,,,,,,,,,,,,,,-0.03,-0.174444444,1,0,0,1.4,0,21,21,9,1,j,images/br_j.png,images/cb_j.png,,,,,,,,,,,,,,,,,,,,,,,,,
,,,,,,00049,2023-10-13_09h47.46,vbt_B2_day1,2022.2.4,MacIntel,166.6666667,,,,,,,,,,,,,,,,,,,-0.03,-0.174444444,1,0,0,1.716,0,22,22,25,1,z,images/br_z.png,images/cb_z.png,,,,,,,,,,,,,,,,,,,,,,,,,
,,,,,,00049,2023-10-13_09h47.46,vbt_B2_day1,2022.2.4,MacIntel,166.6666667,,,,,,,,,,,,,,,,,,,-0.03,-0.174444444,1,0,0,5.399,0,23,23,10,1,k,images/br_k.png,images/cb_k.png,,,,,,,,,,,,,,,,,,,,,,,,,
,,,,,,00049,2023-10-13_09h47.46,vbt_B2_day1,2022.2.4,MacIntel,166.6666667,,,,,,,,,,,,,,,,,,,-0.03,-0.174444444,1,0,0,1.65,0,24,24,7,1,h,images/br_h.png,images/cb_h.png,,,,,,,,,,,,,,,,,,,,,,,,,
,,,,,,00049,2023-10-13_09h47.46,vbt_B2_day1,2022.2.4,MacIntel,166.6666667,,,,,,,,,,,,,,,,,,,-0.021111111,-0.185555556,1,0,0,7.966,0,25,25,8,1,i,images/br_i.png,images/cb_i.png,,,,,,,,,,,,,,,,,,,,,,,,,
,,,,,,00049,2023-10-13_09h47.46,vbt_B2_day1,2022.2.4,MacIntel,166.6666667,,,,,,,,,,,,,,,,,,,-0.021111111,-0.185555556,1,0,0,3.168,1,0,26,3,1,d,images/br_d.png,images/cb_d.png,,,,,,,,,,,,,,,,,,,,,,,,,
,,,,,,00049,2023-10-13_09h47.46,vbt_B2_day1,2022.2.4,MacIntel,166.6666667,,,,,,,,,,,,,,,,,,,0.076666667,-0.127777778,1,0,0,2.183,1,1,27,25,1,z,images/br_z.png,images/cb_z.png,,,,,,,,,,,,,,,,,,,,,,,,,
,,,,,,00049,2023-10-13_09h47.46,vbt_B2_day1,2022.2.4,MacIntel,166.6666667,,,,,,,,,,,,,,,,,,,0.076666667,-0.127777778,1,0,0,4.967,1,2,28,19,1,t,images/br_t.png,images/cb_t.png,,,,,,,,,,,,,,,,,,,,,,,,,
,,,,,,00049,2023-10-13_09h47.46,vbt_B2_day1,2022.2.4,MacIntel,166.6666667,,,,,,,,,,,,,,,,,,,0.077777778,-0.127777778,1,0,0,2.716,1,3,29,9,1,j,images/br_j.png,images/cb_j.png,,,,,,,,,,,,,,,,,,,,,,,,,
,,,,,,00049,2023-10-13_09h47.46,vbt_B2_day1,2022.2.4,MacIntel,166.6666667,,,,,,,,,,,,,,,,,,,0.078888889,-0.127777778,1,0,0,0.616,1,4,30,18,1,s,images/br_s.png,images/cb_s.png,,,,,,,,,,,,,,,,,,,,,,,,,
,,,,,,00049,2023-10-13_09h47.46,vbt_B2_day1,2022.2.4,MacIntel,166.6666667,,,,,,,,,,,,,,,,,,,0.076666667,-0.127777778,1,0,0,0.766,1,5,31,20,1,u,images/br_u.png,images/cb_u.png,,,,,,,,,,,,,,,,,,,,,,,,,
,,,,,,00049,2023-10-13_09h47.46,vbt_B2_day1,2022.2.4,MacIntel,166.6666667,,,,,,,,,,,,,,,,,,,0.076666667,-0.127777778,1,0,0,0.55,1,6,32,16,1,q,images/br_q.png,images/cb_q.png,,,,,,,,,,,,,,,,,,,,,,,,,
,,,,,,00049,2023-10-13_09h47.46,vbt_B2_day1,2022.2.4,MacIntel,166.6666667,,,,,,,,,,,,,,,,,,,0.076666667,-0.127777778,1,0,0,1.299,1,7,33,2,1,c,images/br_c.png,images/cb_c.png,,,,,,,,,,,,,,,,,,,,,,,,,
,,,,,,00049,2023-10-13_09h47.46,vbt_B2_day1,2022.2.4,MacIntel,166.6666667,,,,,,,,,,,,,,,,,,,0.076666667,-0.127777778,1,0,0,0.749,1,8,34,23,1,x,images/br_x.png,images/cb_x.png,,,,,,,,,,,,,,,,,,,,,,,,,
,,,,,,00049,2023-10-13_09h47.46,vbt_B2_day1,2022.2.4,MacIntel,166.6666667,,,,,,,,,,,,,,,,,,,0.077777778,-0.127777778,1,0,0,0.367,1,9,35,15,1,p,images/br_p.png,images/cb_p.png,,,,,,,,,,,,,,,,,,,,,,,,,
,,,,,,00049,2023-10-13_09h47.46,vbt_B2_day1,2022.2.4,MacIntel,166.6666667,,,,,,,,,,,,,,,,,,,0.077777778,-0.127777778,1,0,0,5.433,1,10,36,13,1,n,images/br_n.png,images/cb_n.png,,,,,,,,,,,,,,,,,,,,,,,,,
,,,,,,00049,2023-10-13_09h47.46,vbt_B2_day1,2022.2.4,MacIntel,166.6666667,,,,,,,,,,,,,,,,,,,0.077777778,-0.127777778,1,0,0,1.5,1,11,37,24,1,y,images/br_y.png,images/cb_y.png,,,,,,,,,,,,,,,,,,,,,,,,,
,,,,,,00049,2023-10-13_09h47.46,vbt_B2_day1,2022.2.4,MacIntel,166.6666667,,,,,,,,,,,,,,,,,,,0.077777778,-0.127777778,1,0,0,19.384,1,12,38,21,1,v,images/br_v.png,images/cb_v.png,,,,,,,,,,,,,,,,,,,,,,,,,
,,,,,,00049,2023-10-13_09h47.46,vbt_B2_day1,2022.2.4,MacIntel,166.6666667,,,,,,,,,,,,,,,,,,,0.077777778,-0.127777778,1,0,0,3.45,1,13,39,4,1,e,images/br_e.png,images/cb_e.png,,,,,,,,,,,,,,,,,,,,,,,,,
,,,,,,00049,2023-10-13_09h47.46,vbt_B2_day1,2022.2.4,MacIntel,166.6666667,,,,,,,,,,,,,,,,,,,0.077777778,-0.127777778,1,0,0,2.083,1,14,40,7,1,h,images/br_h.png,images/cb_h.png,,,,,,,,,,,,,,,,,,,,,,,,,
,,,,,,00049,2023-10-13_09h47.46,vbt_B2_day1,2022.2.4,MacIntel,166.6666667,,,,,,,,,,,,,,,,,,,0.077777778,-0.127777778,1,0,0,1.05,1,15,41,1,1,b,images/br_b.png,images/cb_b.png,,,,,,,,,,,,,,,,,,,,,,,,,
,,,,,,00049,2023-10-13_09h47.46,vbt_B2_day1,2022.2.4,MacIntel,166.6666667,,,,,,,,,,,,,,,,,,,0.077777778,-0.127777778,1,0,0,3.567,1,16,42,17,1,r,images/br_r.png,images/cb_r.png,,,,,,,,,,,,,,,,,,,,,,,,,
,,,,,,00049,2023-10-13_09h47.46,vbt_B2_day1,2022.2.4,MacIntel,166.6666667,,,,,,,,,,,,,,,,,,,0.077777778,-0.127777778,1,0,0,0.316,1,17,43,5,1,f,images/br_f.png,images/cb_f.png,,,,,,,,,,,,,,,,,,,,,,,,,
,,,,,,00049,2023-10-13_09h47.46,vbt_B2_day1,2022.2.4,MacIntel,166.6666667,,,,,,,,,,,,,,,,,,,0.077777778,-0.127777778,1,0,0,0.149,1,18,44,0,1,a,images/br_a.png,images/cb_a.png,,,,,,,,,,,,,,,,,,,,,,,,,
,,,,,,00049,2023-10-13_09h47.46,vbt_B2_day1,2022.2.4,MacIntel,166.6666667,,,,,,,,,,,,,,,,,,,0.077777778,-0.128888889,1,0,0,1.833,1,19,45,14,1,o,images/br_o.png,images/cb_o.png,,,,,,,,,,,,,,,,,,,,,,,,,
,,,,,,00049,2023-10-13_09h47.46,vbt_B2_day1,2022.2.4,MacIntel,166.6666667,,,,,,,,,,,,,,,,,,,0.078888889,-0.13,1,0,0,1.883,1,20,46,10,1,k,images/br_k.png,images/cb_k.png,,,,,,,,,,,,,,,,,,,,,,,,,
,,,,,,00049,2023-10-13_09h47.46,vbt_B2_day1,2022.2.4,MacIntel,166.6666667,,,,,,,,,,,,,,,,,,,0.078888889,-0.128888889,1,0,0,1.833,1,21,47,6,1,g,images/br_g.png,images/cb_g.png,,,,,,,,,,,,,,,,,,,,,,,,,
,,,,,,00049,2023-10-13_09h47.46,vbt_B2_day1,2022.2.4,MacIntel,166.6666667,,,,,,,,,,,,,,,,,,,0.076666667,-0.126666667,1,0,0,4.265,1,22,48,12,1,m,images/br_m.png,images/cb_m.png,,,,,,,,,,,,,,,,,,,,,,,,,
,,,,,,00049,2023-10-13_09h47.46,vbt_B2_day1,2022.2.4,MacIntel,166.6666667,,,,,,,,,,,,,,,,,,,0.08,-0.132222222,1,0,0,1.416,1,23,49,8,1,i,images/br_i.png,images/cb_i.png,,,,,,,,,,,,,,,,,,,,,,,,,
,,,,,,00049,2023-10-13_09h47.46,vbt_B2_day1,2022.2.4,MacIntel,166.6666667,,,,,,,,,,,,,,,,,,,0.08,-0.134444444,1,0,0,3.217,1,24,50,22,1,w,images/br_w.png,images/cb_w.png,,,,,,,,,,,,,,,,,,,,,,,,,
,,,,,,00049,2023-10-13_09h47.46,vbt_B2_day1,2022.2.4,MacIntel,166.6666667,,,,,,,,,,,,,,,,,,,0.083333333,-0.132222222,1,0,0,15.084,1,25,51,11,1,l,images/br_l.png,images/cb_l.png,,,,,,,,,,,,,,,,,,,,,,,,,
,,,,,,00049,2023-10-13_09h47.46,vbt_B2_day1,2022.2.4,MacIntel,166.6666667,,,,,,,,,,,,,,,,,,,0.08,-0.14,1,0,0,2.633,2,0,52,10,1,k,images/br_k.png,images/cb_k.png,,,,,,,,,,,,,,,,,,,,,,,,,
,,,,,,00049,2023-10-13_09h47.46,vbt_B2_day1,2022.2.4,MacIntel,166.6666667,,,,,,,,,,,,,,,,,,,0.08,-0.14,1,0,0,0.25,2,1,53,23,1,x,images/br_x.png,images/cb_x.png,,,,,,,,,,,,,,,,,,,,,,,,,
,,,,,,00049,2023-10-13_09h47.46,vbt_B2_day1,2022.2.4,MacIntel,166.6666667,,,,,,,,,,,,,,,,,,,0.08,-0.14,1,0,0,2.883,2,2,54,16,1,q,images/br_q.png,images/cb_q.png,,,,,,,,,,,,,,,,,,,,,,,,,
,,,,,,00049,2023-10-13_09h47.46,vbt_B2_day1,2022.2.4,MacIntel,166.6666667,,,,,,,,,,,,,,,,,,,0.075555556,-0.146666667,1,0,0,2.333,2,3,55,6,1,g,images/br_g.png,images/cb_g.png,,,,,,,,,,,,,,,,,,,,,,,,,
,,,,,,00049,2023-10-13_09h47.46,vbt_B2_day1,2022.2.4,MacIntel,166.6666667,,,,,,,,,,,,,,,,,,,0.075555556,-0.161111111,1,0,0,1.85,2,4,56,21,1,v,images/br_v.png,images/cb_v.png,,,,,,,,,,,,,,,,,,,,,,,,,
,,,,,,00049,2023-10-13_09h47.46,vbt_B2_day1,2022.2.4,MacIntel,166.6666667,,,,,,,,,,,,,,,,,,,0.075555556,-0.161111111,1,0,0,1.95,2,5,57,1,1,b,images/br_b.png,images/cb_b.png,,,,,,,,,,,,,,,,,,,,,,,,,
,,,,,,00049,2023-10-13_09h47.46,vbt_B2_day1,2022.2.4,MacIntel,166.6666667,,,,,,,,,,,,,,,,,,,0.078888889,-0.161111111,1,0,0,0.617,2,6,58,19,1,t,images/br_t.png,images/cb_t.png,,,,,,,,,,,,,,,,,,,,,,,,,
,,,,,,00049,2023-10-13_09h47.46,vbt_B2_day1,2022.2.4,MacIntel,166.6666667,,,,,,,,,,,,,,,,,,,0.075555556,-0.163333333,1,0,0,7.6,2,7,59,22,1,w,images/br_w.png,images/cb_w.png,,,,,,,,,,,,,,,,,,,,,,,,,
,,,,,,00049,2023-10-13_09h47.46,vbt_B2_day1,2022.2.4,MacIntel,166.6666667,,,,,,,,,,,,,,,,,,,0.075555556,-0.163333333,1,0,0,2.366,2,8,60,11,1,l,images/br_l.png,images/cb_l.png,,,,,,,,,,,,,,,,,,,,,,,,,
,,,,,,00049,2023-10-13_09h47.46,vbt_B2_day1,2022.2.4,MacIntel,166.6666667,,,,,,,,,,,,,,,,,,,0.075555556,-0.162222222,1,0,0,3.034,2,9,61,5,1,f,images/br_f.png,images/cb_f.png,,,,,,,,,,,,,,,,,,,,,,,,,
,,,,,,00049,2023-10-13_09h47.46,vbt_B2_day1,2022.2.4,MacIntel,166.6666667,,,,,,,,,,,,,,,,,,,0.083333333,-0.153333333,1,0,0,3.567,2,10,62,12,1,m,images/br_m.png,images/cb_m.png,,,,,,,,,,,,,,,,,,,,,,,,,
,,,,,,00049,2023-10-13_09h47.46,vbt_B2_day1,2022.2.4,MacIntel,166.6666667,,,,,,,,,,,,,,,,,,,0.085555556,-0.143333333,1,0,0,3.167,2,11,63,9,1,j,images/br_j.png,images/cb_j.png,,,,,,,,,,,,,,,,,,,,,,,,,
,,,,,,00049,2023-10-13_09h47.46,vbt_B2_day1,2022.2.4,MacIntel,166.6666667,,,,,,,,,,,,,,,,,,,0.085555556,-0.141111111,1,0,0,1.8,2,12,64,7,1,h,images/br_h.png,images/cb_h.png,,,,,,,,,,,,,,,,,,,,,,,,,
,,,,,,00049,2023-10-13_09h47.46,vbt_B2_day1,2022.2.4,MacIntel,166.6666667,,,,,,,,,,,,,,,,,,,0.085555556,-0.141111111,1,0,0,0.45,2,13,65,0,1,a,images/br_a.png,images/cb_a.png,,,,,,,,,,,,,,,,,,,,,,,,,
,,,,,,00049,2023-10-13_09h47.46,vbt_B2_day1,2022.2.4,MacIntel,166.6666667,,,,,,,,,,,,,,,,,,,0.126666667,-0.24,1,0,0,2.615,2,14,66,17,1,r,images/br_r.png,images/cb_r.png,,,,,,,,,,,,,,,,,,,,,,,,,
,,,,,,00049,2023-10-13_09h47.46,vbt_B2_day1,2022.2.4,MacIntel,166.6666667,,,,,,,,,,,,,,,,,,,0.126666667,-0.24,1,0,0,1.733,2,15,67,13,1,n,images/br_n.png,images/cb_n.png,,,,,,,,,,,,,,,,,,,,,,,,,
,,,,,,00049,2023-10-13_09h47.46,vbt_B2_day1,2022.2.4,MacIntel,166.6666667,,,,,,,,,,,,,,,,,,,0.126666667,-0.24,1,0,0,2.067,2,16,68,25,1,z,images/br_z.png,images/cb_z.png,,,,,,,,,,,,,,,,,,,,,,,,,
,,,,,,00049,2023-10-13_09h47.46,vbt_B2_day1,2022.2.4,MacIntel,166.6666667,,,,,,,,,,,,,,,,,,,0.126666667,-0.24,1,0,0,2.818,2,17,69,2,1,c,images/br_c.png,images/cb_c.png,,,,,,,,,,,,,,,,,,,,,,,,,
,,,,,,00049,2023-10-13_09h47.46,vbt_B2_day1,2022.2.4,MacIntel,166.6666667,,,,,,,,,,,,,,,,,,,0.126666667,-0.24,1,0,0,1.516,2,18,70,24,1,y,images/br_y.png,images/cb_y.png,,,,,,,,,,,,,,,,,,,,,,,,,
,,,,,,00049,2023-10-13_09h47.46,vbt_B2_day1,2022.2.4,MacIntel,166.6666667,,,,,,,,,,,,,,,,,,,0.126666667,-0.24,1,0,0,0.133,2,19,71,14,1,o,images/br_o.png,images/cb_o.png,,,,,,,,,,,,,,,,,,,,,,,,,
,,,,,,00049,2023-10-13_09h47.46,vbt_B2_day1,2022.2.4,MacIntel,166.6666667,,,,,,,,,,,,,,,,,,,0.126666667,-0.238888889,1,0,0,0.617,2,20,72,18,1,s,images/br_s.png,images/cb_s.png,,,,,,,,,,,,,,,,,,,,,,,,,
,,,,,,00049,2023-10-13_09h47.46,vbt_B2_day1,2022.2.4,MacIntel,166.6666667,,,,,,,,,,,,,,,,,,,0.263333333,-0.155555556,1,0,0,3.217,2,21,73,4,1,e,images/br_e.png,images/cb_e.png,,,,,,,,,,,,,,,,,,,,,,,,,
,,,,,,00049,2023-10-13_09h47.46,vbt_B2_day1,2022.2.4,MacIntel,166.6666667,,,,,,,,,,,,,,,,,,,0.262222222,-0.156666667,1,0,0,3.9,2,22,74,20,1,u,images/br_u.png,images/cb_u.png,,,,,,,,,,,,,,,,,,,,,,,,,
,,,,,,00049,2023-10-13_09h47.46,vbt_B2_day1,2022.2.4,MacIntel,166.6666667,,,,,,,,,,,,,,,,,,,0.262222222,-0.154444444,1,0,0,0.882,2,23,75,8,1,i,images/br_i.png,images/cb_i.png,,,,,,,,,,,,,,,,,,,,,,,,,
,,,,,,00049,2023-10-13_09h47.46,vbt_B2_day1,2022.2.4,MacIntel,166.6666667,,,,,,,,,,,,,,,,,,,0.262222222,-0.154444444,1,0,0,0.217,2,24,76,3,1,d,images/br_d.png,images/cb_d.png,,,,,,,,,,,,,,,,,,,,,,,,,
,,,,,,00049,2023-10-13_09h47.46,vbt_B2_day1,2022.2.4,MacIntel,166.6666667,,,,,,,,,,,,,,,,,,,0.262222222,-0.152222222,1,0,0,1.333,2,25,77,15,1,p,images/br_p.png,images/cb_p.png,,,,,,,,,,,,,,,,,,,,,,,,,
,,,,,,00049,2023-10-13_09h47.46,vbt_B2_day1,2022.2.4,MacIntel,166.6666667,,,,,,,,,,,,,,,,,,,0.262222222,-0.152222222,1,0,0,5,3,0,78,5,1,f,images/br_f.png,images/cb_f.png,,,,,,,,,,,,,,,,,,,,,,,,,
,,,,,,00049,2023-10-13_09h47.46,vbt_B2_day1,2022.2.4,MacIntel,166.6666667,,,,,,,,,,,,,,,,,,,0.262222222,-0.152222222,1,0,0,0.016,3,1,79,23,1,x,images/br_x.png,images/cb_x.png,,,,,,,,,,,,,,,,,,,,,,,,,
,,,,,,00049,2023-10-13_09h47.46,vbt_B2_day1,2022.2.4,MacIntel,166.6666667,,,,,,,,,,,,,,,,,,,0.262222222,-0.153333333,1,0,0,3.083,3,2,80,16,1,q,images/br_q.png,images/cb_q.png,,,,,,,,,,,,,,,,,,,,,,,,,
,,,,,,00049,2023-10-13_09h47.46,vbt_B2_day1,2022.2.4,MacIntel,166.6666667,,,,,,,,,,,,,,,,,,,0.262222222,-0.153333333,1,0,0,1.066,3,3,81,24,1,y,images/br_y.png,images/cb_y.png,,,,,,,,,,,,,,,,,,,,,,,,,
,,,,,,00049,2023-10-13_09h47.46,vbt_B2_day1,2022.2.4,MacIntel,166.6666667,,,,,,,,,,,,,,,,,,,0.262222222,-0.153333333,1,0,0,2.766,3,4,82,1,1,b,images/br_b.png,images/cb_b.png,,,,,,,,,,,,,,,,,,,,,,,,,
,,,,,,00049,2023-10-13_09h47.46,vbt_B2_day1,2022.2.4,MacIntel,166.6666667,,,,,,,,,,,,,,,,,,,0.263333333,-0.153333333,1,0,0,1.967,3,5,83,3,1,d,images/br_d.png,images/cb_d.png,,,,,,,,,,,,,,,,,,,,,,,,,
,,,,,,00049,2023-10-13_09h47.46,vbt_B2_day1,2022.2.4,MacIntel,166.6666667,,,,,,,,,,,,,,,,,,,0.263333333,-0.154444444,1,0,0,4.184,3,6,84,12,1,m,images/br_m.png,images/cb_m.png,,,,,,,,,,,,,,,,,,,,,,,,,
,,,,,,00049,2023-10-13_09h47.46,vbt_B2_day1,2022.2.4,MacIntel,166.6666667,,,,,,,,,,,,,,,,,,,0.263333333,-0.154444444,1,0,0,5,3,7,85,13,1,n,images/br_n.png,images/cb_n.png,,,,,,,,,,,,,,,,,,,,,,,,,
,,,,,,00049,2023-10-13_09h47.46,vbt_B2_day1,2022.2.4,MacIntel,166.6666667,,,,,,,,,,,,,,,,,,,0.263333333,-0.154444444,1,0,0,0.083,3,8,86,19,1,t,images/br_t.png,images/cb_t.png,,,,,,,,,,,,,,,,,,,,,,,,,
,,,,,,00049,2023-10-13_09h47.46,vbt_B2_day1,2022.2.4,MacIntel,166.6666667,,,,,,,,,,,,,,,,,,,0.263333333,-0.154444444,1,0,0,0.734,3,9,87,18,1,s,images/br_s.png,images/cb_s.png,,,,,,,,,,,,,,,,,,,,,,,,,
,,,,,,00049,2023-10-13_09h47.46,vbt_B2_day1,2022.2.4,MacIntel,166.6666667,,,,,,,,,,,,,,,,,,,0.263333333,-0.154444444,1,0,0,0.717,3,10,88,11,1,l,images/br_l.png,images/cb_l.png,,,,,,,,,,,,,,,,,,,,,,,,,
,,,,,,00049,2023-10-13_09h47.46,vbt_B2_day1,2022.2.4,MacIntel,166.6666667,,,,,,,,,,,,,,,,,,,0.263333333,-0.154444444,1,0,0,2.183,3,11,89,20,1,u,images/br_u.png,images/cb_u.png,,,,,,,,,,,,,,,,,,,,,,,,,
,,,,,,00049,2023-10-13_09h47.46,vbt_B2_day1,2022.2.4,MacIntel,166.6666667,,,,,,,,,,,,,,,,,,,0.261111111,-0.154444444,1,0,0,3.749,3,12,90,15,1,p,images/br_p.png,images/cb_p.png,,,,,,,,,,,,,,,,,,,,,,,,,
,,,,,,00049,2023-10-13_09h47.46,vbt_B2_day1,2022.2.4,MacIntel,166.6666667,,,,,,,,,,,,,,,,,,,0.266666667,-0.155555556,1,0,0,1.484,3,13,91,25,1,z,images/br_z.png,images/cb_z.png,,,,,,,,,,,,,,,,,,,,,,,,,
,,,,,,00049,2023-10-13_09h47.46,vbt_B2_day1,2022.2.4,MacIntel,166.6666667,,,,,,,,,,,,,,,,,,,0.266666667,-0.155555556,1,0,0,0.366,3,14,92,2,1,c,images/br_c.png,images/cb_c.png,,,,,,,,,,,,,,,,,,,,,,,,,
,,,,,,00049,2023-10-13_09h47.46,vbt_B2_day1,2022.2.4,MacIntel,166.6666667,,,,,,,,,,,,,,,,,,,0.266666667,-0.155555556,1,0,0,1.133,3,15,93,21,1,v,images/br_v.png,images/cb_v.png,,,,,,,,,,,,,,,,,,,,,,,,,
,,,,,,00049,2023-10-13_09h47.46,vbt_B2_day1,2022.2.4,MacIntel,166.6666667,,,,,,,,,,,,,,,,,,,0.266666667,-0.155555556,1,0,0,0.315,3,16,94,14,1,o,images/br_o.png,images/cb_o.png,,,,,,,,,,,,,,,,,,,,,,,,,
,,,,,,00049,2023-10-13_09h47.46,vbt_B2_day1,2022.2.4,MacIntel,166.6666667,,,,,,,,,,,,,,,,,,,0.266666667,-0.155555556,1,0,0,15.05,3,17,95,10,1,k,images/br_k.png,images/cb_k.png,,,,,,,,,,,,,,,,,,,,,,,,,
,,,,,,00049,2023-10-13_09h47.46,vbt_B2_day1,2022.2.4,MacIntel,166.6666667,,,,,,,,,,,,,,,,,,,0.266666667,-0.152222222,1,0,0,1.432,3,18,96,6,1,g,images/br_g.png,images/cb_g.png,,,,,,,,,,,,,,,,,,,,,,,,,
,,,,,,00049,2023-10-13_09h47.46,vbt_B2_day1,2022.2.4,MacIntel,166.6666667,,,,,,,,,,,,,,,,,,,0.266666667,-0.153333333,1,0,0,0.434,3,19,97,8,1,i,images/br_i.png,images/cb_i.png,,,,,,,,,,,,,,,,,,,,,,,,,
,,,,,,00049,2023-10-13_09h47.46,vbt_B2_day1,2022.2.4,MacIntel,166.6666667,,,,,,,,,,,,,,,,,,,0.27,-0.16,1,0,0,2.232,3,20,98,9,1,j,images/br_j.png,images/cb_j.png,,,,,,,,,,,,,,,,,,,,,,,,,
,,,,,,00049,2023-10-13_09h47.46,vbt_B2_day1,2022.2.4,MacIntel,166.6666667,,,,,,,,,,,,,,,,,,,0.27,-0.16,1,0,0,0.9,3,21,99,22,1,w,images/br_w.png,images/cb_w.png,,,,,,,,,,,,,,,,,,,,,,,,,
,,,,,,00049,2023-10-13_09h47.46,vbt_B2_day1,2022.2.4,MacIntel,166.6666667,,,,,,,,,,,,,,,,,,,0.27,-0.16,1,0,0,1.515,3,22,100,7,1,h,images/br_h.png,images/cb_h.png,,,,,,,,,,,,,,,,,,,,,,,,,
,,,,,,00049,2023-10-13_09h47.46,vbt_B2_day1,2022.2.4,MacIntel,166.6666667,,,,,,,,,,,,,,,,,,,0.27,-0.158888889,1,0,0,7.784,3,23,101,0,1,a,images/br_a.png,images/cb_a.png,,,,,,,,,,,,,,,,,,,,,,,,,
,,,,,,00049,2023-10-13_09h47.46,vbt_B2_day1,2022.2.4,MacIntel,166.6666667,,,,,,,,,,,,,,,,,,,0.27,-0.158888889,1,0,0,5.418,3,24,102,17,1,r,images/br_r.png,images/cb_r.png,,,,,,,,,,,,,,,,,,,,,,,,,
,,,,,,00049,2023-10-13_09h47.46,vbt_B2_day1,2022.2.4,MacIntel,166.6666667,,,,,,,,,,,,,,,,,,,0.343333333,-0.117777778,1,0,0,4.55,3,25,103,4,1,e,images/br_e.png,images/cb_e.png,,,,,,,,,,,,,,,,,,,,,,,,,
,,,,,,00049,2023-10-13_09h47.46,vbt_B2_day1,2022.2.4,MacIntel,166.6666667,,,,,,,,,,,,,,,,,,,0.343333333,-0.116666667,1,0,0,4.717,4,0,104,17,1,r,images/br_r.png,images/cb_r.png,,,,,,,,,,,,,,,,,,,,,,,,,
,,,,,,00049,2023-10-13_09h47.46,vbt_B2_day1,2022.2.4,MacIntel,166.6666667,,,,,,,,,,,,,,,,,,,0.343333333,-0.116666667,1,0,0,1.467,4,1,105,24,1,y,images/br_y.png,images/cb_y.png,,,,,,,,,,,,,,,,,,,,,,,,,
,,,,,,00049,2023-10-13_09h47.46,vbt_B2_day1,2022.2.4,MacIntel,166.6666667,,,,,,,,,,,,,,,,,,,0.344444444,-0.116666667,1,0,0,2.85,4,2,106,25,1,z,images/br_z.png,images/cb_z.png,,,,,,,,,,,,,,,,,,,,,,,,,
,,,,,,00049,2023-10-13_09h47.46,vbt_B2_day1,2022.2.4,MacIntel,166.6666667,,,,,,,,,,,,,,,,,,,0.344444444,-0.114444444,1,0,0,2.35,4,3,107,13,1,n,images/br_n.png,images/cb_n.png,,,,,,,,,,,,,,,,,,,,,,,,,
,,,,,,00049,2023-10-13_09h47.46,vbt_B2_day1,2022.2.4,MacIntel,166.6666667,,,,,,,,,,,,,,,,,,,0.342222222,-0.113333333,1,0,0,1.05,4,4,108,11,1,l,images/br_l.png,images/cb_l.png,,,,,,,,,,,,,,,,,,,,,,,,,
,,,,,,00049,2023-10-13_09h47.46,vbt_B2_day1,2022.2.4,MacIntel,166.6666667,,,,,,,,,,,,,,,,,,,0.326666667,-0.125555556,1,0,0,1.467,4,5,109,10,1,k,images/br_k.png,images/cb_k.png,,,,,,,,,,,,,,,,,,,,,,,,,
,,,,,,00049,2023-10-13_09h47.46,vbt_B2_day1,2022.2.4,MacIntel,166.6666667,,,,,,,,,,,,,,,,,,,0.326666667,-0.125555556,1,0,0,0.716,4,6,110,21,1,v,images/br_v.png,images/cb_v.png,,,,,,,,,,,,,,,,,,,,,,,,,
,,,,,,00049,2023-10-13_09h47.46,vbt_B2_day1,2022.2.4,MacIntel,166.6666667,,,,,,,,,,,,,,,,,,,0.326666667,-0.125555556,1,0,0,4.3,4,7,111,18,1,s,images/br_s.png,images/cb_s.png,,,,,,,,,,,,,,,,,,,,,,,,,
,,,,,,00049,2023-10-13_09h47.46,vbt_B2_day1,2022.2.4,MacIntel,166.6666667,,,,,,,,,,,,,,,,,,,0.326666667,-0.125555556,1,0,0,0.366,4,8,112,8,1,i,images/br_i.png,images/cb_i.png,,,,,,,,,,,,,,,,,,,,,,,,,
,,,,,,00049,2023-10-13_09h47.46,vbt_B2_day1,2022.2.4,MacIntel,166.6666667,,,,,,,,,,,,,,,,,,,0.326666667,-0.125555556,1,0,0,0.101,4,9,113,2,1,c,images/br_c.png,images/cb_c.png,,,,,,,,,,,,,,,,,,,,,,,,,
,,,,,,00049,2023-10-13_09h47.46,vbt_B2_day1,2022.2.4,MacIntel,166.6666667,,,,,,,,,,,,,,,,,,,0.326666667,-0.125555556,1,0,0,1.1,4,10,114,6,1,g,images/br_g.png,images/cb_g.png,,,,,,,,,,,,,,,,,,,,,,,,,
,,,,,,00049,2023-10-13_09h47.46,vbt_B2_day1,2022.2.4,MacIntel,166.6666667,,,,,,,,,,,,,,,,,,,0.326666667,-0.125555556,1,0,0,0.75,4,11,115,22,1,w,images/br_w.png,images/cb_w.png,,,,,,,,,,,,,,,,,,,,,,,,,
,,,,,,00049,2023-10-13_09h47.46,vbt_B2_day1,2022.2.4,MacIntel,166.6666667,,,,,,,,,,,,,,,,,,,0.326666667,-0.125555556,1,0,0,1.216,4,12,116,20,1,u,images/br_u.png,images/cb_u.png,,,,,,,,,,,,,,,,,,,,,,,,,
,,,,,,00049,2023-10-13_09h47.46,vbt_B2_day1,2022.2.4,MacIntel,166.6666667,,,,,,,,,,,,,,,,,,,0.326666667,-0.125555556,1,0,0,2.401,4,13,117,4,1,e,images/br_e.png,images/cb_e.png,,,,,,,,,,,,,,,,,,,,,,,,,
,,,,,,00049,2023-10-13_09h47.46,vbt_B2_day1,2022.2.4,MacIntel,166.6666667,,,,,,,,,,,,,,,,,,,0.326666667,-0.123333333,1,0,0,3,4,14,118,9,1,j,images/br_j.png,images/cb_j.png,,,,,,,,,,,,,,,,,,,,,,,,,
,,,,,,00049,2023-10-13_09h47.46,vbt_B2_day1,2022.2.4,MacIntel,166.6666667,,,,,,,,,,,,,,,,,,,0.326666667,-0.123333333,1,0,0,0.967,4,15,119,15,1,p,images/br_p.png,images/cb_p.png,,,,,,,,,,,,,,,,,,,,,,,,,
,,,,,,00049,2023-10-13_09h47.46,vbt_B2_day1,2022.2.4,MacIntel,166.6666667,,,,,,,,,,,,,,,,,,,0.326666667,-0.123333333,1,0,0,2.066,4,16,120,12,1,m,images/br_m.png,images/cb_m.png,,,,,,,,,,,,,,,,,,,,,,,,,
,,,,,,00049,2023-10-13_09h47.46,vbt_B2_day1,2022.2.4,MacIntel,166.6666667,,,,,,,,,,,,,,,,,,,0.326666667,-0.122222222,1,0,0,0.318,4,17,121,0,1,a,images/br_a.png,images/cb_a.png,,,,,,,,,,,,,,,,,,,,,,,,,
,,,,,,00049,2023-10-13_09h47.46,vbt_B2_day1,2022.2.4,MacIntel,166.6666667,,,,,,,,,,,,,,,,,,,0.326666667,-0.122222222,1,0,0,0.684,4,18,122,5,1,f,images/br_f.png,images/cb_f.png,,,,,,,,,,,,,,,,,,,,,,,,,
,,,,,,00049,2023-10-13_09h47.46,vbt_B2_day1,2022.2.4,MacIntel,166.6666667,,,,,,,,,,,,,,,,,,,0.332222222,-0.126666667,1,0,0,2.166,4,19,123,1,1,b,images/br_b.png,images/cb_b.png,,,,,,,,,,,,,,,,,,,,,,,,,
,,,,,,00049,2023-10-13_09h47.46,vbt_B2_day1,2022.2.4,MacIntel,166.6666667,,,,,,,,,,,,,,,,,,,0.332222222,-0.126666667,1,0,0,0.799,4,20,124,3,1,d,images/br_d.png,images/cb_d.png,,,,,,,,,,,,,,,,,,,,,,,,,
,,,,,,00049,2023-10-13_09h47.46,vbt_B2_day1,2022.2.4,MacIntel,166.6666667,,,,,,,,,,,,,,,,,,,0.332222222,-0.126666667,1,0,0,1.449,4,21,125,7,1,h,images/br_h.png,images/cb_h.png,,,,,,,,,,,,,,,,,,,,,,,,,
,,,,,,00049,2023-10-13_09h47.46,vbt_B2_day1,2022.2.4,MacIntel,166.6666667,,,,,,,,,,,,,,,,,,,0.332222222,-0.126666667,1,0,0,0.3,4,22,126,23,1,x,images/br_x.png,images/cb_x.png,,,,,,,,,,,,,,,,,,,,,,,,,
,,,,,,00049,2023-10-13_09h47.46,vbt_B2_day1,2022.2.4,MacIntel,166.6666667,,,,,,,,,,,,,,,,,,,0.332222222,-0.126666667,1,0,0,1.133,4,23,127,16,1,q,images/br_q.png,images/cb_q.png,,,,,,,,,,,,,,,,,,,,,,,,,
,,,,,,00049,2023-10-13_09h47.46,vbt_B2_day1,2022.2.4,MacIntel,166.6666667,,,,,,,,,,,,,,,,,,,0.332222222,-0.125555556,1,0,0,0.817,4,24,128,19,1,t,images/br_t.png,images/cb_t.png,,,,,,,,,,,,,,,,,,,,,,,,,
,,,,,,00049,2023-10-13_09h47.46,vbt_B2_day1,2022.2.4,MacIntel,166.6666667,,,,,,,,,,,,,,,,,,,0.331111111,-0.126666667,1,0,0,0.8,4,25,129,14,1,o,images/br_o.png,images/cb_o.png,,,,,,,,,,,,,,,,,,,,,,,,,
,,,,,,00049,2023-10-13_09h47.46,vbt_B2_day1,2022.2.4,MacIntel,166.6666667,,,,,,,,,,,,,,,,,,,0.331111111,-0.125555556,1,0,0,1.667,5,0,130,19,1,t,images/br_t.png,images/cb_t.png,,,,,,,,,,,,,,,,,,,,,,,,,
,,,,,,00049,2023-10-13_09h47.46,vbt_B2_day1,2022.2.4,MacIntel,166.6666667,,,,,,,,,,,,,,,,,,,0.331111111,-0.125555556,1,0,0,0.999,5,1,131,14,1,o,images/br_o.png,images/cb_o.png,,,,,,,,,,,,,,,,,,,,,,,,,
,,,,,,00049,2023-10-13_09h47.46,vbt_B2_day1,2022.2.4,MacIntel,166.6666667,,,,,,,,,,,,,,,,,,,0.331111111,-0.125555556,1,0,0,0.216,5,2,132,4,1,e,images/br_e.png,images/cb_e.png,,,,,,,,,,,,,,,,,,,,,,,,,
,,,,,,00049,2023-10-13_09h47.46,vbt_B2_day1,2022.2.4,MacIntel,166.6666667,,,,,,,,,,,,,,,,,,,0.331111111,-0.124444444,1,0,0,2.7,5,3,133,12,1,m,images/br_m.png,images/cb_m.png,,,,,,,,,,,,,,,,,,,,,,,,,
,,,,,,00049,2023-10-13_09h47.46,vbt_B2_day1,2022.2.4,MacIntel,166.6666667,,,,,,,,,,,,,,,,,,,0.331111111,-0.124444444,1,0,0,1.016,5,4,134,22,1,w,images/br_w.png,images/cb_w.png,,,,,,,,,,,,,,,,,,,,,,,,,
,,,,,,00049,2023-10-13_09h47.46,vbt_B2_day1,2022.2.4,MacIntel,166.6666667,,,,,,,,,,,,,,,,,,,0.334444444,-0.127777778,1,0,0,0.167,5,5,135,2,1,c,images/br_c.png,images/cb_c.png,,,,,,,,,,,,,,,,,,,,,,,,,
,,,,,,00049,2023-10-13_09h47.46,vbt_B2_day1,2022.2.4,MacIntel,166.6666667,,,,,,,,,,,,,,,,,,,0.33,-0.124444444,1,0,0,1.8,5,6,136,7,1,h,images/br_h.png,images/cb_h.png,,,,,,,,,,,,,,,,,,,,,,,,,
,,,,,,00049,2023-10-13_09h47.46,vbt_B2_day1,2022.2.4,MacIntel,166.6666667,,,,,,,,,,,,,,,,,,,0.33,-0.124444444,1,0,0,1.601,5,7,137,18,1,s,images/br_s.png,images/cb_s.png,,,,,,,,,,,,,,,,,,,,,,,,,
,,,,,,00049,2023-10-13_09h47.46,vbt_B2_day1,2022.2.4,MacIntel,166.6666667,,,,,,,,,,,,,,,,,,,0.33,-0.124444444,1,0,0,1.267,5,8,138,21,1,v,images/br_v.png,images/cb_v.png,,,,,,,,,,,,,,,,,,,,,,,,,
,,,,,,00049,2023-10-13_09h47.46,vbt_B2_day1,2022.2.4,MacIntel,166.6666667,,,,,,,,,,,,,,,,,,,0.33,-0.124444444,1,0,0,2.45,5,9,139,24,1,y,images/br_y.png,images/cb_y.png,,,,,,,,,,,,,,,,,,,,,,,,,
,,,,,,00049,2023-10-13_09h47.46,vbt_B2_day1,2022.2.4,MacIntel,166.6666667,,,,,,,,,,,,,,,,,,,0.33,-0.124444444,1,0,0,1.733,5,10,140,13,1,n,images/br_n.png,images/cb_n.png,,,,,,,,,,,,,,,,,,,,,,,,,
,,,,,,00049,2023-10-13_09h47.46,vbt_B2_day1,2022.2.4,MacIntel,166.6666667,,,,,,,,,,,,,,,,,,,0.33,-0.124444444,1,0,0,2.517,5,11,141,16,1,q,images/br_q.png,images/cb_q.png,,,,,,,,,,,,,,,,,,,,,,,,,
,,,,,,00049,2023-10-13_09h47.46,vbt_B2_day1,2022.2.4,MacIntel,166.6666667,,,,,,,,,,,,,,,,,,,0.33,-0.124444444,1,0,0,1.3,5,12,142,0,1,a,images/br_a.png,images/cb_a.png,,,,,,,,,,,,,,,,,,,,,,,,,
,,,,,,00049,2023-10-13_09h47.46,vbt_B2_day1,2022.2.4,MacIntel,166.6666667,,,,,,,,,,,,,,,,,,,0.33,-0.124444444,1,0,0,1.966,5,13,143,1,1,b,images/br_b.png,images/cb_b.png,,,,,,,,,,,,,,,,,,,,,,,,,
,,,,,,00049,2023-10-13_09h47.46,vbt_B2_day1,2022.2.4,MacIntel,166.6666667,,,,,,,,,,,,,,,,,,,0.33,-0.125555556,1,0,0,1.333,5,14,144,3,1,d,images/br_d.png,images/cb_d.png,,,,,,,,,,,,,,,,,,,,,,,,,
,,,,,,00049,2023-10-13_09h47.46,vbt_B2_day1,2022.2.4,MacIntel,166.6666667,,,,,,,,,,,,,,,,,,,0.33,-0.125555556,1,0,0,2.017,5,15,145,5,1,f,images/br_f.png,images/cb_f.png,,,,,,,,,,,,,,,,,,,,,,,,,
,,,,,,00049,2023-10-13_09h47.46,vbt_B2_day1,2022.2.4,MacIntel,166.6666667,,,,,,,,,,,,,,,,,,,0.33,-0.125555556,1,0,0,0.55,5,16,146,10,1,k,images/br_k.png,images/cb_k.png,,,,,,,,,,,,,,,,,,,,,,,,,
,,,,,,00049,2023-10-13_09h47.46,vbt_B2_day1,2022.2.4,MacIntel,166.6666667,,,,,,,,,,,,,,,,,,,0.33,-0.125555556,1,0,0,7.516,5,17,147,25,1,z,images/br_z.png,images/cb_z.png,,,,,,,,,,,,,,,,,,,,,,,,,
,,,,,,00049,2023-10-13_09h47.46,vbt_B2_day1,2022.2.4,MacIntel,166.6666667,,,,,,,,,,,,,,,,,,,0.326666667,-0.128888889,1,0,0,1.116,5,18,148,23,1,x,images/br_x.png,images/cb_x.png,,,,,,,,,,,,,,,,,,,,,,,,,
,,,,,,00049,2023-10-13_09h47.46,vbt_B2_day1,2022.2.4,MacIntel,166.6666667,,,,,,,,,,,,,,,,,,,0.326666667,-0.128888889,1,0,0,0.099,5,19,149,8,1,i,images/br_i.png,images/cb_i.png,,,,,,,,,,,,,,,,,,,,,,,,,
,,,,,,00049,2023-10-13_09h47.46,vbt_B2_day1,2022.2.4,MacIntel,166.6666667,,,,,,,,,,,,,,,,,,,0.325555556,-0.127777778,1,0,0,2.732,5,20,150,15,1,p,images/br_p.png,images/cb_p.png,,,,,,,,,,,,,,,,,,,,,,,,,
,,,,,,00049,2023-10-13_09h47.46,vbt_B2_day1,2022.2.4,MacIntel,166.6666667,,,,,,,,,,,,,,,,,,,0.307777778,-0.147777778,1,0,0,1.283,5,21,151,17,1,r,images/br_r.png,images/cb_r.png,,,,,,,,,,,,,,,,,,,,,,,,,
,,,,,,00049,2023-10-13_09h47.46,vbt_B2_day1,2022.2.4,MacIntel,166.6666667,,,,,,,,,,,,,,,,,,,0.307777778,-0.147777778,1,0,0,0.966,5,22,152,6,1,g,images/br_g.png,images/cb_g.png,,,,,,,,,,,,,,,,,,,,,,,,,
,,,,,,00049,2023-10-13_09h47.46,vbt_B2_day1,2022.2.4,MacIntel,166.6666667,,,,,,,,,,,,,,,,,,,0.307777778,-0.148888889,1,0,0,0.783,5,23,153,11,1,l,images/br_l.png,images/cb_l.png,,,,,,,,,,,,,,,,,,,,,,,,,
,,,,,,00049,2023-10-13_09h47.46,vbt_B2_day1,2022.2.4,MacIntel,166.6666667,,,,,,,,,,,,,,,,,,,0.307777778,-0.148888889,1,0,0,0.933,5,24,154,9,1,j,images/br_j.png,images/cb_j.png,,,,,,,,,,,,,,,,,,,,,,,,,
,,,,,,00049,2023-10-13_09h47.46,vbt_B2_day1,2022.2.4,MacIntel,166.6666667,,,,,,,,,,,,,,,,,,,0.306666667,-0.144444444,1,0,0,0.033,5,25,155,20,1,u,images/br_u.png,images/cb_u.png,,,,,,,,,,,,,,,,,,,,,,,,,
,,,,,,00049,2023-10-13_09h47.46,vbt_B2_day1,2022.2.4,MacIntel,166.6666667,,,,,,,,,,,,,,,,,,,0.307777778,-0.145555556,1,0,0,1.099,6,0,156,19,1,t,images/br_t.png,images/cb_t.png,,,,,,,,,,,,,,,,,,,,,,,,,
,,,,,,00049,2023-10-13_09h47.46,vbt_B2_day1,2022.2.4,MacIntel,166.6666667,,,,,,,,,,,,,,,,,,,0.307777778,-0.145555556,1,0,0,1.383,6,1,157,25,1,z,images/br_z.png,images/cb_z.png,,,,,,,,,,,,,,,,,,,,,,,,,
,,,,,,00049,2023-10-13_09h47.46,vbt_B2_day1,2022.2.4,MacIntel,166.6666667,,,,,,,,,,,,,,,,,,,0.307777778,-0.144444444,1,0,0,1.483,6,2,158,17,1,r,images/br_r.png,images/cb_r.png,,,,,,,,,,,,,,,,,,,,,,,,,
,,,,,,00049,2023-10-13_09h47.46,vbt_B2_day1,2022.2.4,MacIntel,166.6666667,,,,,,,,,,,,,,,,,,,0.307777778,-0.144444444,1,0,0,0.667,6,3,159,3,1,d,images/br_d.png,images/cb_d.png,,,,,,,,,,,,,,,,,,,,,,,,,
,,,,,,00049,2023-10-13_09h47.46,vbt_B2_day1,2022.2.4,MacIntel,166.6666667,,,,,,,,,,,,,,,,,,,0.307777778,-0.144444444,1,0,0,1.283,6,4,160,4,1,e,images/br_e.png,images/cb_e.png,,,,,,,,,,,,,,,,,,,,,,,,,
,,,,,,00049,2023-10-13_09h47.46,vbt_B2_day1,2022.2.4,MacIntel,166.6666667,,,,,,,,,,,,,,,,,,,0.307777778,-0.143333333,1,0,0,0.8,6,5,161,5,1,f,images/br_f.png,images/cb_f.png,,,,,,,,,,,,,,,,,,,,,,,,,
,,,,,,00049,2023-10-13_09h47.46,vbt_B2_day1,2022.2.4,MacIntel,166.6666667,,,,,,,,,,,,,,,,,,,0.306666667,-0.143333333,1,0,0,0.233,6,6,162,20,1,u,images/br_u.png,images/cb_u.png,,,,,,,,,,,,,,,,,,,,,,,,,
,,,,,,00049,2023-10-13_09h47.46,vbt_B2_day1,2022.2.4,MacIntel,166.6666667,,,,,,,,,,,,,,,,,,,0.306666667,-0.142222222,1,0,0,0.466,6,7,163,11,1,l,images/br_l.png,images/cb_l.png,,,,,,,,,,,,,,,,,,,,,,,,,
,,,,,,00049,2023-10-13_09h47.46,vbt_B2_day1,2022.2.4,MacIntel,166.6666667,,,,,,,,,,,,,,,,,,,0.306666667,-0.142222222,1,0,0,0.583,6,8,164,14,1,o,images/br_o.png,images/cb_o.png,,,,,,,,,,,,,,,,,,,,,,,,,
,,,,,,00049,2023-10-13_09h47.46,vbt_B2_day1,2022.2.4,MacIntel,166.6666667,,,,,,,,,,,,,,,,,,,0.306666667,-0.142222222,1,0,0,2.317,6,9,165,24,1,y,images/br_y.png,images/cb_y.png,,,,,,,,,,,,,,,,,,,,,,,,,
,,,,,,00049,2023-10-13_09h47.46,vbt_B2_day1,2022.2.4,MacIntel,166.6666667,,,,,,,,,,,,,,,,,,,0.306666667,-0.142222222,1,0,0,4.45,6,10,166,2,1,c,images/br_c.png,images/cb_c.png,,,,,,,,,,,,,,,,,,,,,,,,,
,,,,,,00049,2023-10-13_09h47.46,vbt_B2_day1,2022.2.4,MacIntel,166.6666667,,,,,,,,,,,,,,,,,,,0.306666667,-0.142222222,1,0,0,0.417,6,11,167,9,1,j,images/br_j.png,images/cb_j.png,,,,,,,,,,,,,,,,,,,,,,,,,
,,,,,,00049,2023-10-13_09h47.46,vbt_B2_day1,2022.2.4,MacIntel,166.6666667,,,,,,,,,,,,,,,,,,,0.306666667,-0.142222222,1,0,0,0.399,6,12,168,15,1,p,images/br_p.png,images/cb_p.png,,,,,,,,,,,,,,,,,,,,,,,,,
,,,,,,00049,2023-10-13_09h47.46,vbt_B2_day1,2022.2.4,MacIntel,166.6666667,,,,,,,,,,,,,,,,,,,0.306666667,-0.142222222,1,0,0,1.117,6,13,169,8,1,i,images/br_i.png,images/cb_i.png,,,,,,,,,,,,,,,,,,,,,,,,,
,,,,,,00049,2023-10-13_09h47.46,vbt_B2_day1,2022.2.4,MacIntel,166.6666667,,,,,,,,,,,,,,,,,,,0.306666667,-0.142222222,1,0,0,0.233,6,14,170,1,1,b,images/br_b.png,images/cb_b.png,,,,,,,,,,,,,,,,,,,,,,,,,
,,,,,,00049,2023-10-13_09h47.46,vbt_B2_day1,2022.2.4,MacIntel,166.6666667,,,,,,,,,,,,,,,,,,,0.306666667,-0.142222222,1,0,0,1.066,6,15,171,12,1,m,images/br_m.png,images/cb_m.png,,,,,,,,,,,,,,,,,,,,,,,,,
,,,,,,00049,2023-10-13_09h47.46,vbt_B2_day1,2022.2.4,MacIntel,166.6666667,,,,,,,,,,,,,,,,,,,0.306666667,-0.143333333,1,0,0,1.799,6,16,172,6,1,g,images/br_g.png,images/cb_g.png,,,,,,,,,,,,,,,,,,,,,,,,,
,,,,,,00049,2023-10-13_09h47.46,vbt_B2_day1,2022.2.4,MacIntel,166.6666667,,,,,,,,,,,,,,,,,,,0.306666667,-0.142222222,1,0,0,0.782,6,17,173,0,1,a,images/br_a.png,images/cb_a.png,,,,,,,,,,,,,,,,,,,,,,,,,
,,,,,,00049,2023-10-13_09h47.46,vbt_B2_day1,2022.2.4,MacIntel,166.6666667,,,,,,,,,,,,,,,,,,,0.306666667,-0.142222222,1,0,0,0.565,6,18,174,10,1,k,images/br_k.png,images/cb_k.png,,,,,,,,,,,,,,,,,,,,,,,,,
,,,,,,00049,2023-10-13_09h47.46,vbt_B2_day1,2022.2.4,MacIntel,166.6666667,,,,,,,,,,,,,,,,,,,0.306666667,-0.142222222,1,0,0,1.083,6,19,175,16,1,q,images/br_q.png,images/cb_q.png,,,,,,,,,,,,,,,,,,,,,,,,,
,,,,,,00049,2023-10-13_09h47.46,vbt_B2_day1,2022.2.4,MacIntel,166.6666667,,,,,,,,,,,,,,,,,,,0.306666667,-0.142222222,1,0,0,1.466,6,20,176,23,1,x,images/br_x.png,images/cb_x.png,,,,,,,,,,,,,,,,,,,,,,,,,
,,,,,,00049,2023-10-13_09h47.46,vbt_B2_day1,2022.2.4,MacIntel,166.6666667,,,,,,,,,,,,,,,,,,,0.306666667,-0.141111111,1,0,0,1.75,6,21,177,7,1,h,images/br_h.png,images/cb_h.png,,,,,,,,,,,,,,,,,,,,,,,,,
,,,,,,00049,2023-10-13_09h47.46,vbt_B2_day1,2022.2.4,MacIntel,166.6666667,,,,,,,,,,,,,,,,,,,0.306666667,-0.138888889,1,0,0,2.4,6,22,178,18,1,s,images/br_s.png,images/cb_s.png,,,,,,,,,,,,,,,,,,,,,,,,,
,,,,,,00049,2023-10-13_09h47.46,vbt_B2_day1,2022.2.4,MacIntel,166.6666667,,,,,,,,,,,,,,,,,,,0.305555556,-0.136666667,1,0,0,4.2,6,23,179,22,1,w,images/br_w.png,images/cb_w.png,,,,,,,,,,,,,,,,,,,,,,,,,
,,,,,,00049,2023-10-13_09h47.46,vbt_B2_day1,2022.2.4,MacIntel,166.6666667,,,,,,,,,,,,,,,,,,,0.305555556,-0.136666667,1,0,0,0.334,6,24,180,21,1,v,images/br_v.png,images/cb_v.png,,,,,,,,,,,,,,,,,,,,,,,,,
,,,,,,00049,2023-10-13_09h47.46,vbt_B2_day1,2022.2.4,MacIntel,166.6666667,,,,,,,,,,,,,,,,,,,0.305555556,-0.134444444,1,0,0,1.083,6,25,181,13,1,n,images/br_n.png,images/cb_n.png,,,,,,,,,,,,,,,,,,,,,,,,,
,,,,,,00049,2023-10-13_09h47.46,vbt_B2_day1,2022.2.4,MacIntel,166.6666667,,,,,,,,,,,,,,,,,,,,,,,,,,,,,,,,,0.147777778,-0.207777778,1,0,0,,,,,,,,,,,,,,,,,,,,
,,,,,,00049,2023-10-13_09h47.46,vbt_B2_day1,2022.2.4,MacIntel,166.6666667,,,,,,,,,,,,,,,,,,,,,,,,,,,,,,,,,,,,,,0.147777778,-0.207777778,1,0,0,,,,,,,,,,,,,,,
,,,,,,00049,2023-10-13_09h47.46,vbt_B2_day1,2022.2.4,MacIntel,166.6666667,,,,,,,,,,,,,,,,,,,,,,,,,,,,,,,,,,,,,,,,,,,0.147777778,-0.207777778,1,0,0,,,0,0,0,54,1,vijftig,images/br_vijftig.png,images/cb_vijftig.png
,,,,,,00049,2023-10-13_09h47.46,vbt_B2_day1,2022.2.4,MacIntel,166.6666667,,,,,,,,,,,,,,,,,,,,,,,,,,,,,,,,,,,,,,,,,,,0.314444444,-0.281111111,1,0,0,toe.....,toe.....,0,1,1,56,1,toezicht,images/br_toezicht.png,images/cb_toezicht.png
,,,,,,00049,2023-10-13_09h47.46,vbt_B2_day1,2022.2.4,MacIntel,166.6666667,,,,,,,,,,,,,,,,,,,,,,,,,,,,,,,,,,,,,,,,,,,0.335555556,-0.275555556,1,0,0,brij...,brij...,0,2,2,25,1,brijk,images/br_brijk.png,images/cb_brijk.png
,,,,,,00049,2023-10-13_09h47.46,vbt_B2_day1,2022.2.4,MacIntel,166.6666667,,,,,,,,,,,,,,,,,,,,,,,,,,,,,,,,,,,,,,,,,,,0.532222222,-0.188888889,1,0,0,schiel...,schiel...,0,3,3,38,1,schielen,images/br_schielen.png,images/cb_schielen.png
,,,,,,00049,2023-10-13_09h47.46,vbt_B2_day1,2022.2.4,MacIntel,166.6666667,,,,,,,,,,,,,,,,,,,,,,,,,,,,,,,,,,,,,,,,,,,-0.052222222,-0.196666667,1,0,0,,,0,4,4,46,1,lezen,images/br_lezen.png,images/cb_lezen.png
,,,,,,00049,2023-10-13_09h47.46,vbt_B2_day1,2022.2.4,MacIntel,166.6666667,,,,,,,,,,,,,,,,,,,,,,,,,,,,,,,,,,,,,,,,,,,0.23,-0.402222222,1,0,0,mak...,mak...,0,5,5,5,1,maken,images/br_maken.png,images/cb_maken.png
,,,,,,00049,2023-10-13_09h47.46,vbt_B2_day1,2022.2.4,MacIntel,166.6666667,,,,,,,,,,,,,,,,,,,,,,,,,,,,,,,,,,,,,,,,,,,0.244444444,-0.444444444,1,0,0,bleek,bleek,0,6,6,6,1,bleek,images/br_bleek.png,images/cb_bleek.png
,,,,,,00049,2023-10-13_09h47.46,vbt_B2_day1,2022.2.4,MacIntel,166.6666667,,,,,,,,,,,,,,,,,,,,,,,,,,,,,,,,,,,,,,,,,,,0.465555556,-0.448888889,1,0,0,.ubbel,.ubbel,0,7,7,9,1,dubbel,images/br_dubbel.png,images/cb_dubbel.png
,,,,,,00049,2023-10-13_09h47.46,vbt_B2_day1,2022.2.4,MacIntel,166.6666667,,,,,,,,,,,,,,,,,,,,,,,,,,,,,,,,,,,,,,,,,,,0.071111111,-0.292222222,1,0,0,hemel,hemel,0,8,8,45,1,hemel,images/br_hemel.png,images/cb_hemel.png
,,,,,,00049,2023-10-13_09h47.46,vbt_B2_day1,2022.2.4,MacIntel,166.6666667,,,,,,,,,,,,,,,,,,,,,,,,,,,,,,,,,,,,,,,,,,,0.03,-0.291111111,1,0,0,ofva....,ofva....,0,9,9,59,1,opvatten,images/br_opvatten.png,images/cb_opvatten.png
,,,,,,00049,2023-10-13_09h47.46,vbt_B2_day1,2022.2.4,MacIntel,166.6666667,,,,,,,,,,,,,,,,,,,,,,,,,,,,,,,,,,,,,,,,,,,0.138888889,-0.308888889,1,0,0,stuike.,stuike.,0,10,10,35,1,stuikem,images/br_stuikem.png,images/cb_stuikem.png
,,,,,,00049,2023-10-13_09h47.46,vbt_B2_day1,2022.2.4,MacIntel,166.6666667,,,,,,,,,,,,,,,,,,,,,,,,,,,,,,,,,,,,,,,,,,,0.11,-0.323333333,1,0,0,schuile...,schuile...,0,11,11,19,1,schuilen,images/br_schuilen.png,images/cb_schuilen.png
,,,,,,00049,2023-10-13_09h47.46,vbt_B2_day1,2022.2.4,MacIntel,166.6666667,,,,,,,,,,,,,,,,,,,,,,,,,,,,,,,,,,,,,,,,,,,0.11,-0.323333333,1,0,0,mand,mand,0,12,12,3,1,mand,images/br_mand.png,images/cb_mand.png
,,,,,,00049,2023-10-13_09h47.46,vbt_B2_day1,2022.2.4,MacIntel,166.6666667,,,,,,,,,,,,,,,,,,,,,,,,,,,,,,,,,,,,,,,,,,,0.11,-0.323333333,1,0,0,hoog,hoog,0,13,13,41,1,hoog,images/br_hoog.png,images/cb_hoog.png
,,,,,,00049,2023-10-13_09h47.46,vbt_B2_day1,2022.2.4,MacIntel,166.6666667,,,,,,,,,,,,,,,,,,,,,,,,,,,,,,,,,,,,,,,,,,,0.157777778,-0.382222222,1,0,0,porto,porto,0,14,14,27,1,prort,images/br_prort.png,images/cb_prort.png
,,,,,,00049,2023-10-13_09h47.46,vbt_B2_day1,2022.2.4,MacIntel,166.6666667,,,,,,,,,,,,,,,,,,,,,,,,,,,,,,,,,,,,,,,,,,,0.244444444,-0.441111111,1,0,0,zaal,zaal,0,15,15,1,1,zaal,images/br_zaal.png,images/cb_zaal.png
,,,,,,00049,2023-10-13_09h47.46,vbt_B2_day1,2022.2.4,MacIntel,166.6666667,,,,,,,,,,,,,,,,,,,,,,,,,,,,,,,,,,,,,,,,,,,0.255555556,-0.375555556,1,0,0,mu..iel,mu..iel,0,16,16,10,1,muziek,images/br_muziek.png,images/cb_muziek.png
,,,,,,00049,2023-10-13_09h47.46,vbt_B2_day1,2022.2.4,MacIntel,166.6666667,,,,,,,,,,,,,,,,,,,,,,,,,,,,,,,,,,,,,,,,,,,0.1,-0.012222222,1,0,0,jaar,jaar,0,17,17,2,1,jaar,images/br_jaar.png,images/cb_jaar.png
,,,,,,00049,2023-10-13_09h47.46,vbt_B2_day1,2022.2.4,MacIntel,166.6666667,,,,,,,,,,,,,,,,,,,,,,,,,,,,,,,,,,,,,,,,,,,0.056666667,-0.056666667,1,0,0,lava,lava,0,18,18,43,1,lava,images/br_lava.png,images/cb_lava.png
,,,,,,00049,2023-10-13_09h47.46,vbt_B2_day1,2022.2.4,MacIntel,166.6666667,,,,,,,,,,,,,,,,,,,,,,,,,,,,,,,,,,,,,,,,,,,0.052222222,-0.081111111,1,0,0,..ed,..ed,0,19,19,21,1,dred,images/br_dred.png,images/cb_dred.png
,,,,,,00049,2023-10-13_09h47.46,vbt_B2_day1,2022.2.4,MacIntel,166.6666667,,,,,,,,,,,,,,,,,,,,,,,,,,,,,,,,,,,,,,,,,,,0.201111111,-0.358888889,1,0,0,mene..,mene..,0,20,20,11,1,mening,images/br_mening.png,images/cb_mening.png
,,,,,,00049,2023-10-13_09h47.46,vbt_B2_day1,2022.2.4,MacIntel,166.6666667,,,,,,,,,,,,,,,,,,,,,,,,,,,,,,,,,,,,,,,,,,,0.038888889,-0.262222222,1,0,0,valop,valop,0,21,21,26,1,valop,images/br_valop.png,images/cb_valop.png
,,,,,,00049,2023-10-13_09h47.46,vbt_B2_day1,2022.2.4,MacIntel,166.6666667,,,,,,,,,,,,,,,,,,,,,,,,,,,,,,,,,,,,,,,,,,,0.064444444,-0.352222222,1,0,0,daarheen,daarheen,0,22,22,16,1,daarheen,images/br_daarheen.png,images/cb_daarheen.png
,,,,,,00049,2023-10-13_09h47.46,vbt_B2_day1,2022.2.4,MacIntel,166.6666667,,,,,,,,,,,,,,,,,,,,,,,,,,,,,,,,,,,,,,,,,,,0.076666667,-0.362222222,1,0,0,rener,rener,0,23,23,24,1,rezer,images/br_rezer.png,images/cb_rezer.png
,,,,,,00049,2023-10-13_09h47.46,vbt_B2_day1,2022.2.4,MacIntel,166.6666667,,,,,,,,,,,,,,,,,,,,,,,,,,,,,,,,,,,,,,,,,,,0.01,-0.271111111,1,0,0,knoe,knoe,0,24,24,22,1,knoe,images/br_knoe.png,images/cb_knoe.png
,,,,,,00049,2023-10-13_09h47.46,vbt_B2_day1,2022.2.4,MacIntel,166.6666667,,,,,,,,,,,,,,,,,,,,,,,,,,,,,,,,,,,,,,,,,,,0.047777778,-0.415555556,1,0,0,loods,loods,0,25,25,47,1,loods,images/br_loods.png,images/cb_loods.png
,,,,,,00049,2023-10-13_09h47.46,vbt_B2_day1,2022.2.4,MacIntel,166.6666667,,,,,,,,,,,,,,,,,,,,,,,,,,,,,,,,,,,,,,,,,,,0.218888889,-0.258888889,1,0,0,baarv..,baarv..,0,26,26,14,1,waarvan,images/br_waarvan.png,images/cb_waarvan.png
,,,,,,00049,2023-10-13_09h47.46,vbt_B2_day1,2022.2.4,MacIntel,166.6666667,,,,,,,,,,,,,,,,,,,,,,,,,,,,,,,,,,,,,,,,,,,0.087777778,-0.136666667,1,0,0,twi...,twi...,0,27,27,13,1,twijfel,images/br_twijfel.png,images/cb_twijfel.png
,,,,,,00049,2023-10-13_09h47.46,vbt_B2_day1,2022.2.4,MacIntel,166.6666667,,,,,,,,,,,,,,,,,,,,,,,,,,,,,,,,,,,,,,,,,,,0.016666667,-0.336666667,1,0,0,voorkeur,voorkeur,0,28,28,58,1,voorkeur,images/br_voorkeur.png,images/cb_voorkeur.png
,,,,,,00049,2023-10-13_09h47.46,vbt_B2_day1,2022.2.4,MacIntel,166.6666667,,,,,,,,,,,,,,,,,,,,,,,,,,,,,,,,,,,,,,,,,,,0.106666667,-0.383333333,1,0,0,dief,dief,0,29,29,40,1,dief,images/br_dief.png,images/cb_dief.png
,,,,,,00049,2023-10-13_09h47.46,vbt_B2_day1,2022.2.4,MacIntel,166.6666667,,,,,,,,,,,,,,,,,,,,,,,,,,,,,,,,,,,,,,,,,,,-0.015555556,-0.175555556,1,0,0,span...,span...,0,30,30,37,1,spanzing,images/br_spanzing.png,images/cb_spanzing.png
,,,,,,00049,2023-10-13_09h47.46,vbt_B2_day1,2022.2.4,MacIntel,166.6666667,,,,,,,,,,,,,,,,,,,,,,,,,,,,,,,,,,,,,,,,,,,0.02,-0.232222222,1,0,0,attne..,attne..,0,31,31,17,1,attentie,images/br_attentie.png,images/cb_attentie.png
,,,,,,00049,2023-10-13_09h47.46,vbt_B2_day1,2022.2.4,MacIntel,166.6666667,,,,,,,,,,,,,,,,,,,,,,,,,,,,,,,,,,,,,,,,,,,0.126666667,-0.283333333,1,0,0,vizier,vizier,0,32,32,49,1,vizier,images/br_vizier.png,images/cb_vizier.png
,,,,,,00049,2023-10-13_09h47.46,vbt_B2_day1,2022.2.4,MacIntel,166.6666667,,,,,,,,,,,,,,,,,,,,,,,,,,,,,,,,,,,,,,,,,,,0.016666667,-0.238888889,1,0,0,uitde...,uitde...,0,33,33,18,1,uitdelen,images/br_uitdelen.png,images/cb_uitdelen.png
,,,,,,00049,2023-10-13_09h47.46,vbt_B2_day1,2022.2.4,MacIntel,166.6666667,,,,,,,,,,,,,,,,,,,,,,,,,,,,,,,,,,,,,,,,,,,0.156666667,-0.437777778,1,0,0,tekenen,tekenen,0,34,34,55,1,tekenen,images/br_tekenen.png,images/cb_tekenen.png
,,,,,,00049,2023-10-13_09h47.46,vbt_B2_day1,2022.2.4,MacIntel,166.6666667,,,,,,,,,,,,,,,,,,,,,,,,,,,,,,,,,,,,,,,,,,,0.107777778,-0.248888889,1,0,0,oplaad,oplaad,0,35,35,32,1,opplaan,images/br_opplaan.png,images/cb_opplaan.png
,,,,,,00049,2023-10-13_09h47.46,vbt_B2_day1,2022.2.4,MacIntel,166.6666667,,,,,,,,,,,,,,,,,,,,,,,,,,,,,,,,,,,,,,,,,,,0.007777778,-0.256666667,1,0,0,reedje,reedje,0,36,36,30,1,reedje,images/br_reedje.png,images/cb_reedje.png
,,,,,,00049,2023-10-13_09h47.46,vbt_B2_day1,2022.2.4,MacIntel,166.6666667,,,,,,,,,,,,,,,,,,,,,,,,,,,,,,,,,,,,,,,,,,,0.01,-0.261111111,1,0,0,vooruir,vooruir,0,37,37,39,1,voorreur,images/br_voorreur.png,images/cb_voorreur.png
,,,,,,00049,2023-10-13_09h47.46,vbt_B2_day1,2022.2.4,MacIntel,166.6666667,,,,,,,,,,,,,,,,,,,,,,,,,,,,,,,,,,,,,,,,,,,0.026666667,-0.092222222,1,0,0,stuk,stuk,0,38,38,42,1,stuk,images/br_stuk.png,images/cb_stuk.png
,,,,,,00049,2023-10-13_09h47.46,vbt_B2_day1,2022.2.4,MacIntel,166.6666667,,,,,,,,,,,,,,,,,,,,,,,,,,,,,,,,,,,,,,,,,,,0.007777778,-0.236666667,1,0,0,schup,schup,0,39,39,4,1,schep,images/br_schep.png,images/cb_schep.png
,,,,,,00049,2023-10-13_09h47.46,vbt_B2_day1,2022.2.4,MacIntel,166.6666667,,,,,,,,,,,,,,,,,,,,,,,,,,,,,,,,,,,,,,,,,,,-0.023333333,-0.075555556,1,0,0,tars,tars,0,40,40,20,1,tars,images/br_tars.png,images/cb_tars.png
,,,,,,00049,2023-10-13_09h47.46,vbt_B2_day1,2022.2.4,MacIntel,166.6666667,,,,,,,,,,,,,,,,,,,,,,,,,,,,,,,,,,,,,,,,,,,-0.016666667,-0.071111111,1,0,0,beber..,beber..,0,41,41,28,1,bebrip,images/br_bebrip.png,images/cb_bebrip.png
,,,,,,00049,2023-10-13_09h47.46,vbt_B2_day1,2022.2.4,MacIntel,166.6666667,,,,,,,,,,,,,,,,,,,,,,,,,,,,,,,,,,,,,,,,,,,-0.001111111,-0.052222222,1,0,0,verve...,verve...,0,42,42,36,1,vervaden,images/br_vervaden.png,images/cb_vervaden.png
,,,,,,00049,2023-10-13_09h47.46,vbt_B2_day1,2022.2.4,MacIntel,166.6666667,,,,,,,,,,,,,,,,,,,,,,,,,,,,,,,,,,,,,,,,,,,0.105555556,-0.366666667,1,0,0,flull..,flull..,0,43,43,33,1,flullen,images/br_flullen.png,images/cb_flullen.png
,,,,,,00049,2023-10-13_09h47.46,vbt_B2_day1,2022.2.4,MacIntel,166.6666667,,,,,,,,,,,,,,,,,,,,,,,,,,,,,,,,,,,,,,,,,,,-0.004444444,-0.122222222,1,0,0,stamen,stamen,0,44,44,31,1,stamen,images/br_stamen.png,images/cb_stamen.png
,,,,,,00049,2023-10-13_09h47.46,vbt_B2_day1,2022.2.4,MacIntel,166.6666667,,,,,,,,,,,,,,,,,,,,,,,,,,,,,,,,,,,,,,,,,,,-0.045555556,-0.101111111,1,0,0,slak,slak,0,45,45,0,1,slak,images/br_slak.png,images/cb_slak.png
,,,,,,00049,2023-10-13_09h47.46,vbt_B2_day1,2022.2.4,MacIntel,166.6666667,,,,,,,,,,,,,,,,,,,,,,,,,,,,,,,,,,,,,,,,,,,0.033333333,-0.012222222,1,0,0,n.i.....,n.i.....,0,46,46,52,1,zuiplap,images/br_zuiplap.png,images/cb_zuiplap.png
,,,,,,00049,2023-10-13_09h47.46,vbt_B2_day1,2022.2.4,MacIntel,166.6666667,,,,,,,,,,,,,,,,,,,,,,,,,,,,,,,,,,,,,,,,,,,0.106666667,-0.083333333,1,0,0,liegen,liegen,0,47,47,50,1,liegen,images/br_liegen.png,images/cb_liegen.png
,,,,,,00049,2023-10-13_09h47.46,vbt_B2_day1,2022.2.4,MacIntel,166.6666667,,,,,,,,,,,,,,,,,,,,,,,,,,,,,,,,,,,,,,,,,,,0.013333333,-0.23,1,0,0,fict...,fict...,0,48,48,48,1,fictie,images/br_fictie.png,images/cb_fictie.png
,,,,,,00049,2023-10-13_09h47.46,vbt_B2_day1,2022.2.4,MacIntel,166.6666667,,,,,,,,,,,,,,,,,,,,,,,,,,,,,,,,,,,,,,,,,,,0.083333333,-0.001111111,1,0,0,meenemen,meenemen,0,49,49,57,1,meenemen,images/br_meenemen.png,images/cb_meenemen.png
,,,,,,00049,2023-10-13_09h47.46,vbt_B2_day1,2022.2.4,MacIntel,166.6666667,,,,,,,,,,,,,,,,,,,,,,,,,,,,,,,,,,,,,,,,,,,0.167777778,0.027777778,1,0,0,loch...,loch...,0,50,50,34,1,lochten,images/br_lochten.png,images/cb_lochten.png
,,,,,,00049,2023-10-13_09h47.46,vbt_B2_day1,2022.2.4,MacIntel,166.6666667,,,,,,,,,,,,,,,,,,,,,,,,,,,,,,,,,,,,,,,,,,,0.077777778,0.015555556,1,0,0,liefde,liefde,0,51,51,51,1,liefde,images/br_liefde.png,images/cb_liefde.png
,,,,,,00049,2023-10-13_09h47.46,vbt_B2_day1,2022.2.4,MacIntel,166.6666667,,,,,,,,,,,,,,,,,,,,,,,,,,,,,,,,,,,,,,,,,,,0.077777778,0.015555556,1,0,0,kanjer,kanjer,0,52,52,8,1,kanjer,images/br_kanjer.png,images/cb_kanjer.png
,,,,,,00049,2023-10-13_09h47.46,vbt_B2_day1,2022.2.4,MacIntel,166.6666667,,,,,,,,,,,,,,,,,,,,,,,,,,,,,,,,,,,,,,,,,,,0.077777778,0.015555556,1,0,0,gen....,gen....,0,53,53,29,1,genond,images/br_genond.png,images/cb_genond.png
,,,,,,00049,2023-10-13_09h47.46,vbt_B2_day1,2022.2.4,MacIntel,166.6666667,,,,,,,,,,,,,,,,,,,,,,,,,,,,,,,,,,,,,,,,,,,0.077777778,0.015555556,1,0,0,opslaan,opslaan,0,54,54,53,1,opslaan,images/br_opslaan.png,images/cb_opslaan.png
,,,,,,00049,2023-10-13_09h47.46,vbt_B2_day1,2022.2.4,MacIntel,166.6666667,,,,,,,,,,,,,,,,,,,,,,,,,,,,,,,,,,,,,,,,,,,-0.024444444,-0.278888889,1,0,0,booi,booi,0,55,55,23,1,booi,images/br_booi.png,images/cb_booi.png
,,,,,,00049,2023-10-13_09h47.46,vbt_B2_day1,2022.2.4,MacIntel,166.6666667,,,,,,,,,,,,,,,,,,,,,,,,,,,,,,,,,,,,,,,,,,,-0.024444444,-0.278888889,1,0,0,blauw,blauw,0,56,56,7,1,klauw,images/br_klauw.png,images/cb_klauw.png
,,,,,,00049,2023-10-13_09h47.46,vbt_B2_day1,2022.2.4,MacIntel,166.6666667,,,,,,,,,,,,,,,,,,,,,,,,,,,,,,,,,,,,,,,,,,,-0.024444444,-0.278888889,1,0,0,klimmen,klimmen,0,57,57,12,1,klimmen,images/br_klimmen.png,images/cb_klimmen.png
,,,,,,00049,2023-10-13_09h47.46,vbt_B2_day1,2022.2.4,MacIntel,166.6666667,,,,,,,,,,,,,,,,,,,,,,,,,,,,,,,,,,,,,,,,,,,0.028888889,-0.276666667,1,0,0,bijne,bijne,0,58,58,44,1,wijze,images/br_wijze.png,images/cb_wijze.png
,,,,,,00049,2023-10-13_09h47.46,vbt_B2_day1,2022.2.4,MacIntel,166.6666667,,,,,,,,,,,,,,,,,,,,,,,,,,,,,,,,,,,,,,,,,,,0.028888889,-0.276666667,1,0,0,hiervan,hiervan,0,59,59,15,1,hiervan,images/br_hiervan.png,images/cb_hiervan.png
,,,,,,00049,2023-10-13_09h47.46,vbt_B2_day1,2022.2.4,MacIntel,166.6666667,,,,,,,,,,,,,,,,,,,,,,,,,,,,,,,,,,,,,,,,,,,,,,,,,,,,,,,,,
