welcome_mouse.x,welcome_mouse.y,welcome_mouse.leftButton,welcome_mouse.midButton,welcome_mouse.rightButton,welcome_mouse.time,"ID",date,expName,psychopyVersion,OS,frameRate,mouse_2.x,mouse_2.y,mouse_2.leftButton,mouse_2.midButton,mouse_2.rightButton,mouse_2.time,mouse_3.x,mouse_3.y,mouse_3.leftButton,mouse_3.midButton,mouse_3.rightButton,mouse_3.time,train_mouse.x,train_mouse.y,train_mouse.leftButton,train_mouse.midButton,train_mouse.rightButton,train_mouse.time,braille_mouse.x,braille_mouse.y,braille_mouse.leftButton,braille_mouse.midButton,braille_mouse.rightButton,braille_mouse.time,trials.thisRepN,trials.thisTrialN,trials.thisN,trials.thisIndex,trials.ran,nlLet,brLet,cbLet,mouse.x,mouse.y,mouse.leftButton,mouse.midButton,mouse.rightButton,testInstr_mouse.x,testInstr_mouse.y,testInstr_mouse.leftButton,testInstr_mouse.midButton,testInstr_mouse.rightButton,test_mouse.x,test_mouse.y,test_mouse.leftButton,test_mouse.midButton,test_mouse.rightButton,test_response.text,testResp,test_loop.thisRepN,test_loop.thisTrialN,test_loop.thisN,test_loop.thisIndex,test_loop.ran,nlWrd,brWrd,cbWrd
0.717592593,0.212962963,1,0,0,74.6279,00055,2023-10-11_16h19.35.370,vbt_B2_day1,2022.2.4,Win32,60.93845216,,,,,,,,,,,,,,,,,,,,,,,,,,,,,,,,,,,,,,,,,,,,,,,,,,,,,,,,,
,,,,,,00055,2023-10-11_16h19.35.370,vbt_B2_day1,2022.2.4,Win32,60.93845216,0.656481566,0.015740748,1,0,0,9.5114,,,,,,,,,,,,,,,,,,,,,,,,,,,,,,,,,,,,,,,,,,,,,,,,,,,
,,,,,,00055,2023-10-11_16h19.35.370,vbt_B2_day1,2022.2.4,Win32,60.93845216,,,,,,,0.61018527,-0.202777792,1,0,0,44.1494,,,,,,,,,,,,,,,,,,,,,,,,,,,,,,,,,,,,,,,,,,,,,
,,,,,,00055,2023-10-11_16h19.35.370,vbt_B2_day1,2022.2.4,Win32,60.93845216,,,,,,,,,,,,,0.66851849,0.082407386,1,0,0,115.6199,,,,,,,,,,,,,,,,,,,,,,,,,,,,,,,,,,,,,,,
,,,,,,00055,2023-10-11_16h19.35.370,vbt_B2_day1,2022.2.4,Win32,60.93845216,,,,,,,,,,,,,,,,,,,0.350000028,0.111111111,1,0,0,8.7142,0,0,0,18,1,s,images/br_s.png,images/cb_s.png,,,,,,,,,,,,,,,,,,,,,,,,,
,,,,,,00055,2023-10-11_16h19.35.370,vbt_B2_day1,2022.2.4,Win32,60.93845216,,,,,,,,,,,,,,,,,,,0.362037094,0.046296296,1,0,0,8.998,0,1,1,11,1,l,images/br_l.png,images/cb_l.png,,,,,,,,,,,,,,,,,,,,,,,,,
,,,,,,00055,2023-10-11_16h19.35.370,vbt_B2_day1,2022.2.4,Win32,60.93845216,,,,,,,,,,,,,,,,,,,0.327777863,0.083333333,1,0,0,9.518,0,2,2,13,1,n,images/br_n.png,images/cb_n.png,,,,,,,,,,,,,,,,,,,,,,,,,
,,,,,,00055,2023-10-11_16h19.35.370,vbt_B2_day1,2022.2.4,Win32,60.93845216,,,,,,,,,,,,,,,,,,,0.303703732,0.106481481,1,0,0,5.5318,0,3,3,22,1,w,images/br_w.png,images/cb_w.png,,,,,,,,,,,,,,,,,,,,,,,,,
,,,,,,00055,2023-10-11_16h19.35.370,vbt_B2_day1,2022.2.4,Win32,60.93845216,,,,,,,,,,,,,,,,,,,0.192592621,0.145370377,1,0,0,9.1107,0,4,4,3,1,d,images/br_d.png,images/cb_d.png,,,,,,,,,,,,,,,,,,,,,,,,,
,,,,,,00055,2023-10-11_16h19.35.370,vbt_B2_day1,2022.2.4,Win32,60.93845216,,,,,,,,,,,,,,,,,,,0.195370356,0.104629623,1,0,0,4.2982,0,5,5,25,1,z,images/br_z.png,images/cb_z.png,,,,,,,,,,,,,,,,,,,,,,,,,
,,,,,,00055,2023-10-11_16h19.35.370,vbt_B2_day1,2022.2.4,Win32,60.93845216,,,,,,,,,,,,,,,,,,,0.53333339,0.01666666,1,0,0,4.8444,0,6,6,9,1,j,images/br_j.png,images/cb_j.png,,,,,,,,,,,,,,,,,,,,,,,,,
,,,,,,00055,2023-10-11_16h19.35.370,vbt_B2_day1,2022.2.4,Win32,60.93845216,,,,,,,,,,,,,,,,,,,0.505555612,0.012962942,1,0,0,3.2991,0,7,7,12,1,m,images/br_m.png,images/cb_m.png,,,,,,,,,,,,,,,,,,,,,,,,,
,,,,,,00055,2023-10-11_16h19.35.370,vbt_B2_day1,2022.2.4,Win32,60.93845216,,,,,,,,,,,,,,,,,,,0.502777806,0.03611109,1,0,0,2.599,0,8,8,24,1,y,images/br_y.png,images/cb_y.png,,,,,,,,,,,,,,,,,,,,,,,,,
,,,,,,00055,2023-10-11_16h19.35.370,vbt_B2_day1,2022.2.4,Win32,60.93845216,,,,,,,,,,,,,,,,,,,0.497222194,0.039814808,1,0,0,4.6498,0,9,9,20,1,u,images/br_u.png,images/cb_u.png,,,,,,,,,,,,,,,,,,,,,,,,,
,,,,,,00055,2023-10-11_16h19.35.370,vbt_B2_day1,2022.2.4,Win32,60.93845216,,,,,,,,,,,,,,,,,,,0.553703732,-0.00462963,1,0,0,3.038,0,10,10,7,1,h,images/br_h.png,images/cb_h.png,,,,,,,,,,,,,,,,,,,,,,,,,
,,,,,,00055,2023-10-11_16h19.35.370,vbt_B2_day1,2022.2.4,Win32,60.93845216,,,,,,,,,,,,,,,,,,,0.562037009,-0.013888889,1,0,0,4.3295,0,11,11,14,1,o,images/br_o.png,images/cb_o.png,,,,,,,,,,,,,,,,,,,,,,,,,
,,,,,,00055,2023-10-11_16h19.35.370,vbt_B2_day1,2022.2.4,Win32,60.93845216,,,,,,,,,,,,,,,,,,,0.590740769,-0.047222243,1,0,0,2.0843,0,12,12,2,1,c,images/br_c.png,images/cb_c.png,,,,,,,,,,,,,,,,,,,,,,,,,
,,,,,,00055,2023-10-11_16h19.35.370,vbt_B2_day1,2022.2.4,Win32,60.93845216,,,,,,,,,,,,,,,,,,,0.583333333,-0.020370377,1,0,0,5.0543,0,13,13,1,1,b,images/br_b.png,images/cb_b.png,,,,,,,,,,,,,,,,,,,,,,,,,
,,,,,,00055,2023-10-11_16h19.35.370,vbt_B2_day1,2022.2.4,Win32,60.93845216,,,,,,,,,,,,,,,,,,,0.612962935,-0.043518526,1,0,0,4.3988,0,14,14,15,1,p,images/br_p.png,images/cb_p.png,,,,,,,,,,,,,,,,,,,,,,,,,
,,,,,,00055,2023-10-11_16h19.35.370,vbt_B2_day1,2022.2.4,Win32,60.93845216,,,,,,,,,,,,,,,,,,,0.65833339,-0.023148148,1,0,0,51.433,0,15,15,17,1,r,images/br_r.png,images/cb_r.png,,,,,,,,,,,,,,,,,,,,,,,,,
,,,,,,00055,2023-10-11_16h19.35.370,vbt_B2_day1,2022.2.4,Win32,60.93845216,,,,,,,,,,,,,,,,,,,0.659259231,-0.022222236,1,0,0,5.5446,0,16,16,23,1,x,images/br_x.png,images/cb_x.png,,,,,,,,,,,,,,,,,,,,,,,,,
,,,,,,00055,2023-10-11_16h19.35.370,vbt_B2_day1,2022.2.4,Win32,60.93845216,,,,,,,,,,,,,,,,,,,0.664814843,-0.018518519,1,0,0,4.1322,0,17,17,4,1,e,images/br_e.png,images/cb_e.png,,,,,,,,,,,,,,,,,,,,,,,,,
,,,,,,00055,2023-10-11_16h19.35.370,vbt_B2_day1,2022.2.4,Win32,60.93845216,,,,,,,,,,,,,,,,,,,0.733333305,-0.127777806,1,0,0,7.1308,0,18,18,6,1,g,images/br_g.png,images/cb_g.png,,,,,,,,,,,,,,,,,,,,,,,,,
,,,,,,00055,2023-10-11_16h19.35.370,vbt_B2_day1,2022.2.4,Win32,60.93845216,,,,,,,,,,,,,,,,,,,0.725926011,-0.137037065,1,0,0,11.5289,0,19,19,5,1,f,images/br_f.png,images/cb_f.png,,,,,,,,,,,,,,,,,,,,,,,,,
,,,,,,00055,2023-10-11_16h19.35.370,vbt_B2_day1,2022.2.4,Win32,60.93845216,,,,,,,,,,,,,,,,,,,0.732407464,-0.119444459,1,0,0,4.1991,0,20,20,0,1,a,images/br_a.png,images/cb_a.png,,,,,,,,,,,,,,,,,,,,,,,,,
,,,,,,00055,2023-10-11_16h19.35.370,vbt_B2_day1,2022.2.4,Win32,60.93845216,,,,,,,,,,,,,,,,,,,0.577777863,-0.079629651,1,0,0,12.4622,0,21,21,8,1,i,images/br_i.png,images/cb_i.png,,,,,,,,,,,,,,,,,,,,,,,,,
,,,,,,00055,2023-10-11_16h19.35.370,vbt_B2_day1,2022.2.4,Win32,60.93845216,,,,,,,,,,,,,,,,,,,0.537963019,-0.135185171,1,0,0,7.7661,0,22,22,10,1,k,images/br_k.png,images/cb_k.png,,,,,,,,,,,,,,,,,,,,,,,,,
,,,,,,00055,2023-10-11_16h19.35.370,vbt_B2_day1,2022.2.4,Win32,60.93845216,,,,,,,,,,,,,,,,,,,0.550000085,-0.133333347,1,0,0,3.6321,0,23,23,19,1,t,images/br_t.png,images/cb_t.png,,,,,,,,,,,,,,,,,,,,,,,,,
,,,,,,00055,2023-10-11_16h19.35.370,vbt_B2_day1,2022.2.4,Win32,60.93845216,,,,,,,,,,,,,,,,,,,0.541666667,-0.126851894,1,0,0,3.6336,0,24,24,16,1,q,images/br_q.png,images/cb_q.png,,,,,,,,,,,,,,,,,,,,,,,,,
,,,,,,00055,2023-10-11_16h19.35.370,vbt_B2_day1,2022.2.4,Win32,60.93845216,,,,,,,,,,,,,,,,,,,0.554629714,-0.028703725,1,0,0,3.8168,0,25,25,21,1,v,images/br_v.png,images/cb_v.png,,,,,,,,,,,,,,,,,,,,,,,,,
,,,,,,00055,2023-10-11_16h19.35.370,vbt_B2_day1,2022.2.4,Win32,60.93845216,,,,,,,,,,,,,,,,,,,0.482407464,0.063888868,1,0,0,3.9499,1,0,26,16,1,q,images/br_q.png,images/cb_q.png,,,,,,,,,,,,,,,,,,,,,,,,,
,,,,,,00055,2023-10-11_16h19.35.370,vbt_B2_day1,2022.2.4,Win32,60.93845216,,,,,,,,,,,,,,,,,,,0.479629658,0.062037044,1,0,0,0.467,1,1,27,0,1,a,images/br_a.png,images/cb_a.png,,,,,,,,,,,,,,,,,,,,,,,,,
,,,,,,00055,2023-10-11_16h19.35.370,vbt_B2_day1,2022.2.4,Win32,60.93845216,,,,,,,,,,,,,,,,,,,0.223148134,-0.005555577,1,0,0,2.299,1,2,28,1,1,b,images/br_b.png,images/cb_b.png,,,,,,,,,,,,,,,,,,,,,,,,,
,,,,,,00055,2023-10-11_16h19.35.370,vbt_B2_day1,2022.2.4,Win32,60.93845216,,,,,,,,,,,,,,,,,,,0.220370399,-0.005555577,1,0,0,1.1331,1,3,29,14,1,o,images/br_o.png,images/cb_o.png,,,,,,,,,,,,,,,,,,,,,,,,,
,,,,,,00055,2023-10-11_16h19.35.370,vbt_B2_day1,2022.2.4,Win32,60.93845216,,,,,,,,,,,,,,,,,,,0.222222222,-0.00462963,1,0,0,1.4498,1,4,30,18,1,s,images/br_s.png,images/cb_s.png,,,,,,,,,,,,,,,,,,,,,,,,,
,,,,,,00055,2023-10-11_16h19.35.370,vbt_B2_day1,2022.2.4,Win32,60.93845216,,,,,,,,,,,,,,,,,,,0.223148134,-0.00462963,1,0,0,3.5214,1,5,31,2,1,c,images/br_c.png,images/cb_c.png,,,,,,,,,,,,,,,,,,,,,,,,,
,,,,,,00055,2023-10-11_16h19.35.370,vbt_B2_day1,2022.2.4,Win32,60.93845216,,,,,,,,,,,,,,,,,,,0.039814843,0.049999979,1,0,0,2.6162,1,6,32,7,1,h,images/br_h.png,images/cb_h.png,,,,,,,,,,,,,,,,,,,,,,,,,
,,,,,,00055,2023-10-11_16h19.35.370,vbt_B2_day1,2022.2.4,Win32,60.93845216,,,,,,,,,,,,,,,,,,,0.319444444,-0.052777785,1,0,0,2.6449,1,7,33,6,1,g,images/br_g.png,images/cb_g.png,,,,,,,,,,,,,,,,,,,,,,,,,
,,,,,,00055,2023-10-11_16h19.35.370,vbt_B2_day1,2022.2.4,Win32,60.93845216,,,,,,,,,,,,,,,,,,,0.319444444,-0.052777785,1,0,0,0.6662,1,8,34,9,1,j,images/br_j.png,images/cb_j.png,,,,,,,,,,,,,,,,,,,,,,,,,
,,,,,,00055,2023-10-11_16h19.35.370,vbt_B2_day1,2022.2.4,Win32,60.93845216,,,,,,,,,,,,,,,,,,,0.320370427,-0.052777785,1,0,0,0.9287,1,9,35,15,1,p,images/br_p.png,images/cb_p.png,,,,,,,,,,,,,,,,,,,,,,,,,
,,,,,,00055,2023-10-11_16h19.35.370,vbt_B2_day1,2022.2.4,Win32,60.93845216,,,,,,,,,,,,,,,,,,,0.329629686,-0.029629637,1,0,0,0.3994,1,10,36,20,1,u,images/br_u.png,images/cb_u.png,,,,,,,,,,,,,,,,,,,,,,,,,
,,,,,,00055,2023-10-11_16h19.35.370,vbt_B2_day1,2022.2.4,Win32,60.93845216,,,,,,,,,,,,,,,,,,,0.315740797,-0.029629637,1,0,0,2.6982,1,11,37,19,1,t,images/br_t.png,images/cb_t.png,,,,,,,,,,,,,,,,,,,,,,,,,
,,,,,,00055,2023-10-11_16h19.35.370,vbt_B2_day1,2022.2.4,Win32,60.93845216,,,,,,,,,,,,,,,,,,,0.303703732,-0.033333355,1,0,0,2.8816,1,12,38,22,1,w,images/br_w.png,images/cb_w.png,,,,,,,,,,,,,,,,,,,,,,,,,
,,,,,,00055,2023-10-11_16h19.35.370,vbt_B2_day1,2022.2.4,Win32,60.93845216,,,,,,,,,,,,,,,,,,,0.300000085,-0.035185178,1,0,0,4.3014,1,13,39,25,1,z,images/br_z.png,images/cb_z.png,,,,,,,,,,,,,,,,,,,,,,,,,
,,,,,,00055,2023-10-11_16h19.35.370,vbt_B2_day1,2022.2.4,Win32,60.93845216,,,,,,,,,,,,,,,,,,,0.306481538,-0.062037044,1,0,0,3.0371,1,14,40,17,1,r,images/br_r.png,images/cb_r.png,,,,,,,,,,,,,,,,,,,,,,,,,
,,,,,,00055,2023-10-11_16h19.35.370,vbt_B2_day1,2022.2.4,Win32,60.93845216,,,,,,,,,,,,,,,,,,,0.307407379,-0.065740762,1,0,0,0.2041,1,15,41,3,1,d,images/br_d.png,images/cb_d.png,,,,,,,,,,,,,,,,,,,,,,,,,
,,,,,,00055,2023-10-11_16h19.35.370,vbt_B2_day1,2022.2.4,Win32,60.93845216,,,,,,,,,,,,,,,,,,,0.307407379,-0.065740762,1,0,0,0.3127,1,16,42,4,1,e,images/br_e.png,images/cb_e.png,,,,,,,,,,,,,,,,,,,,,,,,,
,,,,,,00055,2023-10-11_16h19.35.370,vbt_B2_day1,2022.2.4,Win32,60.93845216,,,,,,,,,,,,,,,,,,,0.314814815,-0.067592586,1,0,0,280.7889,1,17,43,21,1,v,images/br_v.png,images/cb_v.png,,,,,,,,,,,,,,,,,,,,,,,,,
,,,,,,00055,2023-10-11_16h19.35.370,vbt_B2_day1,2022.2.4,Win32,60.93845216,,,,,,,,,,,,,,,,,,,0.252777806,-0.050000014,1,0,0,2.0711,1,18,44,23,1,x,images/br_x.png,images/cb_x.png,,,,,,,,,,,,,,,,,,,,,,,,,
,,,,,,00055,2023-10-11_16h19.35.370,vbt_B2_day1,2022.2.4,Win32,60.93845216,,,,,,,,,,,,,,,,,,,0.324074074,0,1,0,0,0.7836,1,19,45,12,1,m,images/br_m.png,images/cb_m.png,,,,,,,,,,,,,,,,,,,,,,,,,
,,,,,,00055,2023-10-11_16h19.35.370,vbt_B2_day1,2022.2.4,Win32,60.93845216,,,,,,,,,,,,,,,,,,,0.219444487,-0.026851866,1,0,0,1.4326,1,20,46,24,1,y,images/br_y.png,images/cb_y.png,,,,,,,,,,,,,,,,,,,,,,,,,
,,,,,,00055,2023-10-11_16h19.35.370,vbt_B2_day1,2022.2.4,Win32,60.93845216,,,,,,,,,,,,,,,,,,,0.179629644,-0.132407436,1,0,0,2.8484,1,21,47,5,1,f,images/br_f.png,images/cb_f.png,,,,,,,,,,,,,,,,,,,,,,,,,
,,,,,,00055,2023-10-11_16h19.35.370,vbt_B2_day1,2022.2.4,Win32,60.93845216,,,,,,,,,,,,,,,,,,,0.180555556,-0.14444443,1,0,0,347.8717,1,22,48,10,1,k,images/br_k.png,images/cb_k.png,,,,,,,,,,,,,,,,,,,,,,,,,
,,,,,,00055,2023-10-11_16h19.35.370,vbt_B2_day1,2022.2.4,Win32,60.93845216,,,,,,,,,,,,,,,,,,,0.228703746,-0.082407422,1,0,0,75.2363,1,23,49,13,1,n,images/br_n.png,images/cb_n.png,,,,,,,,,,,,,,,,,,,,,,,,,
,,,,,,00055,2023-10-11_16h19.35.370,vbt_B2_day1,2022.2.4,Win32,60.93845216,,,,,,,,,,,,,,,,,,,0.261111153,-0.091666681,1,0,0,210.9296,1,24,50,11,1,l,images/br_l.png,images/cb_l.png,,,,,,,,,,,,,,,,,,,,,,,,,
,,,,,,00055,2023-10-11_16h19.35.370,vbt_B2_day1,2022.2.4,Win32,60.93845216,,,,,,,,,,,,,,,,,,,0.27407406,-0.049074067,1,0,0,1.6493,1,25,51,8,1,i,images/br_i.png,images/cb_i.png,,,,,,,,,,,,,,,,,,,,,,,,,
,,,,,,00055,2023-10-11_16h19.35.370,vbt_B2_day1,2022.2.4,Win32,60.93845216,,,,,,,,,,,,,,,,,,,0.387037065,-0.046296296,1,0,0,1.7325,2,0,52,2,1,c,images/br_c.png,images/cb_c.png,,,,,,,,,,,,,,,,,,,,,,,,,
,,,,,,00055,2023-10-11_16h19.35.370,vbt_B2_day1,2022.2.4,Win32,60.93845216,,,,,,,,,,,,,,,,,,,0.312037009,-0.091666681,1,0,0,1.1105,2,1,53,12,1,m,images/br_m.png,images/cb_m.png,,,,,,,,,,,,,,,,,,,,,,,,,
,,,,,,00055,2023-10-11_16h19.35.370,vbt_B2_day1,2022.2.4,Win32,60.93845216,,,,,,,,,,,,,,,,,,,0.317592621,-0.058333326,1,0,0,0.9834,2,2,54,23,1,x,images/br_x.png,images/cb_x.png,,,,,,,,,,,,,,,,,,,,,,,,,
,,,,,,00055,2023-10-11_16h19.35.370,vbt_B2_day1,2022.2.4,Win32,60.93845216,,,,,,,,,,,,,,,,,,,0.306481538,0.009259259,1,0,0,1.5338,2,3,55,15,1,p,images/br_p.png,images/cb_p.png,,,,,,,,,,,,,,,,,,,,,,,,,
,,,,,,00055,2023-10-11_16h19.35.370,vbt_B2_day1,2022.2.4,Win32,60.93845216,,,,,,,,,,,,,,,,,,,0.260185171,-0.019444466,1,0,0,1.165,2,4,56,3,1,d,images/br_d.png,images/cb_d.png,,,,,,,,,,,,,,,,,,,,,,,,,
,,,,,,00055,2023-10-11_16h19.35.370,vbt_B2_day1,2022.2.4,Win32,60.93845216,,,,,,,,,,,,,,,,,,,0.299074102,0.03148146,1,0,0,2.2327,2,5,57,4,1,e,images/br_e.png,images/cb_e.png,,,,,,,,,,,,,,,,,,,,,,,,,
,,,,,,00055,2023-10-11_16h19.35.370,vbt_B2_day1,2022.2.4,Win32,60.93845216,,,,,,,,,,,,,,,,,,,0.312962991,0.030555548,1,0,0,3.5324,2,6,58,5,1,f,images/br_f.png,images/cb_f.png,,,,,,,,,,,,,,,,,,,,,,,,,
,,,,,,00055,2023-10-11_16h19.35.370,vbt_B2_day1,2022.2.4,Win32,60.93845216,,,,,,,,,,,,,,,,,,,0.314814815,0.033333319,1,0,0,0.8707,2,7,59,18,1,s,images/br_s.png,images/cb_s.png,,,,,,,,,,,,,,,,,,,,,,,,,
,,,,,,00055,2023-10-11_16h19.35.370,vbt_B2_day1,2022.2.4,Win32,60.93845216,,,,,,,,,,,,,,,,,,,0.317592621,0.027777778,1,0,0,0.5506,2,8,60,14,1,o,images/br_o.png,images/cb_o.png,,,,,,,,,,,,,,,,,,,,,,,,,
,,,,,,00055,2023-10-11_16h19.35.370,vbt_B2_day1,2022.2.4,Win32,60.93845216,,,,,,,,,,,,,,,,,,,0.319444444,0.027777778,1,0,0,1.5325,2,9,61,19,1,t,images/br_t.png,images/cb_t.png,,,,,,,,,,,,,,,,,,,,,,,,,
,,,,,,00055,2023-10-11_16h19.35.370,vbt_B2_day1,2022.2.4,Win32,60.93845216,,,,,,,,,,,,,,,,,,,0.319444444,0.027777778,1,0,0,2.4946,2,10,62,9,1,j,images/br_j.png,images/cb_j.png,,,,,,,,,,,,,,,,,,,,,,,,,
,,,,,,00055,2023-10-11_16h19.35.370,vbt_B2_day1,2022.2.4,Win32,60.93845216,,,,,,,,,,,,,,,,,,,0.32222225,0.03148146,1,0,0,2.4667,2,11,63,0,1,a,images/br_a.png,images/cb_a.png,,,,,,,,,,,,,,,,,,,,,,,,,
,,,,,,00055,2023-10-11_16h19.35.370,vbt_B2_day1,2022.2.4,Win32,60.93845216,,,,,,,,,,,,,,,,,,,0.333333333,0.01203703,1,0,0,3.6644,2,12,64,8,1,i,images/br_i.png,images/cb_i.png,,,,,,,,,,,,,,,,,,,,,,,,,
,,,,,,00055,2023-10-11_16h19.35.370,vbt_B2_day1,2022.2.4,Win32,60.93845216,,,,,,,,,,,,,,,,,,,0.333333333,0.014814801,1,0,0,0.5549,2,13,65,17,1,r,images/br_r.png,images/cb_r.png,,,,,,,,,,,,,,,,,,,,,,,,,
,,,,,,00055,2023-10-11_16h19.35.370,vbt_B2_day1,2022.2.4,Win32,60.93845216,,,,,,,,,,,,,,,,,,,0.332407492,-0.040740755,1,0,0,1.3797,2,14,66,24,1,y,images/br_y.png,images/cb_y.png,,,,,,,,,,,,,,,,,,,,,,,,,
,,,,,,00055,2023-10-11_16h19.35.370,vbt_B2_day1,2022.2.4,Win32,60.93845216,,,,,,,,,,,,,,,,,,,0.361111111,-0.126851894,1,0,0,3.8449,2,15,67,22,1,w,images/br_w.png,images/cb_w.png,,,,,,,,,,,,,,,,,,,,,,,,,
,,,,,,00055,2023-10-11_16h19.35.370,vbt_B2_day1,2022.2.4,Win32,60.93845216,,,,,,,,,,,,,,,,,,,0.335185157,-0.127777806,1,0,0,5.4316,2,16,68,10,1,k,images/br_k.png,images/cb_k.png,,,,,,,,,,,,,,,,,,,,,,,,,
,,,,,,00055,2023-10-11_16h19.35.370,vbt_B2_day1,2022.2.4,Win32,60.93845216,,,,,,,,,,,,,,,,,,,0.320370427,-0.092592593,1,0,0,1.1371,2,17,69,11,1,l,images/br_l.png,images/cb_l.png,,,,,,,,,,,,,,,,,,,,,,,,,
,,,,,,00055,2023-10-11_16h19.35.370,vbt_B2_day1,2022.2.4,Win32,60.93845216,,,,,,,,,,,,,,,,,,,0.320370427,-0.092592593,1,0,0,1.1658,2,18,70,6,1,g,images/br_g.png,images/cb_g.png,,,,,,,,,,,,,,,,,,,,,,,,,
,,,,,,00055,2023-10-11_16h19.35.370,vbt_B2_day1,2022.2.4,Win32,60.93845216,,,,,,,,,,,,,,,,,,,0.238888917,-0.093518504,1,0,0,1.1163,2,19,71,25,1,z,images/br_z.png,images/cb_z.png,,,,,,,,,,,,,,,,,,,,,,,,,
,,,,,,00055,2023-10-11_16h19.35.370,vbt_B2_day1,2022.2.4,Win32,60.93845216,,,,,,,,,,,,,,,,,,,0.139814801,-0.137037065,1,0,0,3.9779,2,20,72,16,1,q,images/br_q.png,images/cb_q.png,,,,,,,,,,,,,,,,,,,,,,,,,
,,,,,,00055,2023-10-11_16h19.35.370,vbt_B2_day1,2022.2.4,Win32,60.93845216,,,,,,,,,,,,,,,,,,,0.150000042,-0.122222265,1,0,0,1.4662,2,21,73,13,1,n,images/br_n.png,images/cb_n.png,,,,,,,,,,,,,,,,,,,,,,,,,
,,,,,,00055,2023-10-11_16h19.35.370,vbt_B2_day1,2022.2.4,Win32,60.93845216,,,,,,,,,,,,,,,,,,,0.150000042,-0.122222265,1,0,0,0.7173,2,22,74,20,1,u,images/br_u.png,images/cb_u.png,,,,,,,,,,,,,,,,,,,,,,,,,
,,,,,,00055,2023-10-11_16h19.35.370,vbt_B2_day1,2022.2.4,Win32,60.93845216,,,,,,,,,,,,,,,,,,,0.150000042,-0.12037037,1,0,0,1.4827,2,23,75,7,1,h,images/br_h.png,images/cb_h.png,,,,,,,,,,,,,,,,,,,,,,,,,
,,,,,,00055,2023-10-11_16h19.35.370,vbt_B2_day1,2022.2.4,Win32,60.93845216,,,,,,,,,,,,,,,,,,,0.190740727,-0.204629616,1,0,0,1.7376,2,24,76,1,1,b,images/br_b.png,images/cb_b.png,,,,,,,,,,,,,,,,,,,,,,,,,
,,,,,,00055,2023-10-11_16h19.35.370,vbt_B2_day1,2022.2.4,Win32,60.93845216,,,,,,,,,,,,,,,,,,,0.453703704,-0.281481496,1,0,0,2.9317,2,25,77,21,1,v,images/br_v.png,images/cb_v.png,,,,,,,,,,,,,,,,,,,,,,,,,
,,,,,,00055,2023-10-11_16h19.35.370,vbt_B2_day1,2022.2.4,Win32,60.93845216,,,,,,,,,,,,,,,,,,,0.45185188,-0.271296325,1,0,0,0.8,3,0,78,12,1,m,images/br_m.png,images/cb_m.png,,,,,,,,,,,,,,,,,,,,,,,,,
,,,,,,00055,2023-10-11_16h19.35.370,vbt_B2_day1,2022.2.4,Win32,60.93845216,,,,,,,,,,,,,,,,,,,0.45185188,-0.271296325,1,0,0,0.3342,3,1,79,24,1,y,images/br_y.png,images/cb_y.png,,,,,,,,,,,,,,,,,,,,,,,,,
,,,,,,00055,2023-10-11_16h19.35.370,vbt_B2_day1,2022.2.4,Win32,60.93845216,,,,,,,,,,,,,,,,,,,0.45185188,-0.271296325,1,0,0,2.1322,3,2,80,10,1,k,images/br_k.png,images/cb_k.png,,,,,,,,,,,,,,,,,,,,,,,,,
,,,,,,00055,2023-10-11_16h19.35.370,vbt_B2_day1,2022.2.4,Win32,60.93845216,,,,,,,,,,,,,,,,,,,0.325000057,-0.058333326,1,0,0,2.5703,3,3,81,21,1,v,images/br_v.png,images/cb_v.png,,,,,,,,,,,,,,,,,,,,,,,,,
,,,,,,00055,2023-10-11_16h19.35.370,vbt_B2_day1,2022.2.4,Win32,60.93845216,,,,,,,,,,,,,,,,,,,0.342592593,-0.113888917,1,0,0,4.3103,3,4,82,14,1,o,images/br_o.png,images/cb_o.png,,,,,,,,,,,,,,,,,,,,,,,,,
,,,,,,00055,2023-10-11_16h19.35.370,vbt_B2_day1,2022.2.4,Win32,60.93845216,,,,,,,,,,,,,,,,,,,0.262962977,-0.150000042,1,0,0,1.3308,3,5,83,3,1,d,images/br_d.png,images/cb_d.png,,,,,,,,,,,,,,,,,,,,,,,,,
,,,,,,00055,2023-10-11_16h19.35.370,vbt_B2_day1,2022.2.4,Win32,60.93845216,,,,,,,,,,,,,,,,,,,0.276851866,-0.112037023,1,0,0,2.9525,3,6,84,19,1,t,images/br_t.png,images/cb_t.png,,,,,,,,,,,,,,,,,,,,,,,,,
,,,,,,00055,2023-10-11_16h19.35.370,vbt_B2_day1,2022.2.4,Win32,60.93845216,,,,,,,,,,,,,,,,,,,0.363888917,-0.15370369,1,0,0,4.2525,3,7,85,16,1,q,images/br_q.png,images/cb_q.png,,,,,,,,,,,,,,,,,,,,,,,,,
,,,,,,00055,2023-10-11_16h19.35.370,vbt_B2_day1,2022.2.4,Win32,60.93845216,,,,,,,,,,,,,,,,,,,0.228703746,-0.188888903,1,0,0,3.7776,3,8,86,2,1,c,images/br_c.png,images/cb_c.png,,,,,,,,,,,,,,,,,,,,,,,,,
,,,,,,00055,2023-10-11_16h19.35.370,vbt_B2_day1,2022.2.4,Win32,60.93845216,,,,,,,,,,,,,,,,,,,0.241666653,-0.189814815,1,0,0,3.266,3,9,87,23,1,x,images/br_x.png,images/cb_x.png,,,,,,,,,,,,,,,,,,,,,,,,,
,,,,,,00055,2023-10-11_16h19.35.370,vbt_B2_day1,2022.2.4,Win32,60.93845216,,,,,,,,,,,,,,,,,,,0.24537037,-0.187037079,1,0,0,28.2236,3,10,88,18,1,s,images/br_s.png,images/cb_s.png,,,,,,,,,,,,,,,,,,,,,,,,,
,,,,,,00055,2023-10-11_16h19.35.370,vbt_B2_day1,2022.2.4,Win32,60.93845216,,,,,,,,,,,,,,,,,,,0.281481496,-0.210185228,1,0,0,44.9184,3,11,89,20,1,u,images/br_u.png,images/cb_u.png,,,,,,,,,,,,,,,,,,,,,,,,,
,,,,,,00055,2023-10-11_16h19.35.370,vbt_B2_day1,2022.2.4,Win32,60.93845216,,,,,,,,,,,,,,,,,,,0.280555584,-0.210185228,1,0,0,2.5989,3,12,90,4,1,e,images/br_e.png,images/cb_e.png,,,,,,,,,,,,,,,,,,,,,,,,,
,,,,,,00055,2023-10-11_16h19.35.370,vbt_B2_day1,2022.2.4,Win32,60.93845216,,,,,,,,,,,,,,,,,,,0.293518561,-0.196296339,1,0,0,42.49,3,13,91,13,1,n,images/br_n.png,images/cb_n.png,,,,,,,,,,,,,,,,,,,,,,,,,
,,,,,,00055,2023-10-11_16h19.35.370,vbt_B2_day1,2022.2.4,Win32,60.93845216,,,,,,,,,,,,,,,,,,,0.318518603,-0.190740727,1,0,0,1.6867,3,14,92,7,1,h,images/br_h.png,images/cb_h.png,,,,,,,,,,,,,,,,,,,,,,,,,
,,,,,,00055,2023-10-11_16h19.35.370,vbt_B2_day1,2022.2.4,Win32,60.93845216,,,,,,,,,,,,,,,,,,,0.313888974,-0.190740727,1,0,0,1.0191,3,15,93,17,1,r,images/br_r.png,images/cb_r.png,,,,,,,,,,,,,,,,,,,,,,,,,
,,,,,,00055,2023-10-11_16h19.35.370,vbt_B2_day1,2022.2.4,Win32,60.93845216,,,,,,,,,,,,,,,,,,,0.813888974,-0.19722225,1,0,0,203.6686,3,16,94,8,1,i,images/br_i.png,images/cb_i.png,,,,,,,,,,,,,,,,,,,,,,,,,
,,,,,,00055,2023-10-11_16h19.35.370,vbt_B2_day1,2022.2.4,Win32,60.93845216,,,,,,,,,,,,,,,,,,,0.664814843,-0.131481524,1,0,0,66.6482,3,17,95,0,1,a,images/br_a.png,images/cb_a.png,,,,,,,,,,,,,,,,,,,,,,,,,
,,,,,,00055,2023-10-11_16h19.35.370,vbt_B2_day1,2022.2.4,Win32,60.93845216,,,,,,,,,,,,,,,,,,,0.714814787,-0.128703718,1,0,0,16.3979,3,18,96,6,1,g,images/br_g.png,images/cb_g.png,,,,,,,,,,,,,,,,,,,,,,,,,
,,,,,,00055,2023-10-11_16h19.35.370,vbt_B2_day1,2022.2.4,Win32,60.93845216,,,,,,,,,,,,,,,,,,,0.419444473,-0.25,1,0,0,0.0502,3,19,97,11,1,l,images/br_l.png,images/cb_l.png,,,,,,,,,,,,,,,,,,,,,,,,,
,,,,,,00055,2023-10-11_16h19.35.370,vbt_B2_day1,2022.2.4,Win32,60.93845216,,,,,,,,,,,,,,,,,,,0.398148148,-0.039814808,1,0,0,2.533,3,20,98,15,1,p,images/br_p.png,images/cb_p.png,,,,,,,,,,,,,,,,,,,,,,,,,
,,,,,,00055,2023-10-11_16h19.35.370,vbt_B2_day1,2022.2.4,Win32,60.93845216,,,,,,,,,,,,,,,,,,,0.53333339,-0.025000007,1,0,0,4.8949,3,21,99,5,1,f,images/br_f.png,images/cb_f.png,,,,,,,,,,,,,,,,,,,,,,,,,
,,,,,,00055,2023-10-11_16h19.35.370,vbt_B2_day1,2022.2.4,Win32,60.93845216,,,,,,,,,,,,,,,,,,,0.295370384,-0.161111125,1,0,0,5.506,3,22,100,25,1,z,images/br_z.png,images/cb_z.png,,,,,,,,,,,,,,,,,,,,,,,,,
,,,,,,00055,2023-10-11_16h19.35.370,vbt_B2_day1,2022.2.4,Win32,60.93845216,,,,,,,,,,,,,,,,,,,0.287962949,-0.147222236,1,0,0,0.7701,3,23,101,22,1,w,images/br_w.png,images/cb_w.png,,,,,,,,,,,,,,,,,,,,,,,,,
,,,,,,00055,2023-10-11_16h19.35.370,vbt_B2_day1,2022.2.4,Win32,60.93845216,,,,,,,,,,,,,,,,,,,0.283333319,-0.185185185,1,0,0,23.7257,3,24,102,9,1,j,images/br_j.png,images/cb_j.png,,,,,,,,,,,,,,,,,,,,,,,,,
,,,,,,00055,2023-10-11_16h19.35.370,vbt_B2_day1,2022.2.4,Win32,60.93845216,,,,,,,,,,,,,,,,,,,0.386111083,-0.179629644,1,0,0,5.2774,3,25,103,1,1,b,images/br_b.png,images/cb_b.png,,,,,,,,,,,,,,,,,,,,,,,,,
,,,,,,00055,2023-10-11_16h19.35.370,vbt_B2_day1,2022.2.4,Win32,60.93845216,,,,,,,,,,,,,,,,,,,0.390740712,-0.110185199,1,0,0,9.7809,4,0,104,10,1,k,images/br_k.png,images/cb_k.png,,,,,,,,,,,,,,,,,,,,,,,,,
,,,,,,00055,2023-10-11_16h19.35.370,vbt_B2_day1,2022.2.4,Win32,60.93845216,,,,,,,,,,,,,,,,,,,0.36018527,-0.050925926,1,0,0,3.6028,4,1,105,7,1,h,images/br_h.png,images/cb_h.png,,,,,,,,,,,,,,,,,,,,,,,,,
,,,,,,00055,2023-10-11_16h19.35.370,vbt_B2_day1,2022.2.4,Win32,60.93845216,,,,,,,,,,,,,,,,,,,0.184259273,-0.062962956,1,0,0,3.2491,4,2,106,21,1,v,images/br_v.png,images/cb_v.png,,,,,,,,,,,,,,,,,,,,,,,,,
,,,,,,00055,2023-10-11_16h19.35.370,vbt_B2_day1,2022.2.4,Win32,60.93845216,,,,,,,,,,,,,,,,,,,0.41851849,-0.047222243,1,0,0,2.2491,4,3,107,19,1,t,images/br_t.png,images/cb_t.png,,,,,,,,,,,,,,,,,,,,,,,,,
,,,,,,00055,2023-10-11_16h19.35.370,vbt_B2_day1,2022.2.4,Win32,60.93845216,,,,,,,,,,,,,,,,,,,0.288888931,-0.055555556,1,0,0,4.8327,4,4,108,11,1,l,images/br_l.png,images/cb_l.png,,,,,,,,,,,,,,,,,,,,,,,,,
,,,,,,00055,2023-10-11_16h19.35.370,vbt_B2_day1,2022.2.4,Win32,60.93845216,,,,,,,,,,,,,,,,,,,0.289814843,-0.055555556,1,0,0,2.3362,4,5,109,18,1,s,images/br_s.png,images/cb_s.png,,,,,,,,,,,,,,,,,,,,,,,,,
,,,,,,00055,2023-10-11_16h19.35.370,vbt_B2_day1,2022.2.4,Win32,60.93845216,,,,,,,,,,,,,,,,,,,0.35555564,-0.050925926,1,0,0,0.534,4,6,110,15,1,p,images/br_p.png,images/cb_p.png,,,,,,,,,,,,,,,,,,,,,,,,,
,,,,,,00055,2023-10-11_16h19.35.370,vbt_B2_day1,2022.2.4,Win32,60.93845216,,,,,,,,,,,,,,,,,,,0.183333362,-0.00462963,1,0,0,1.4827,4,7,111,5,1,f,images/br_f.png,images/cb_f.png,,,,,,,,,,,,,,,,,,,,,,,,,
,,,,,,00055,2023-10-11_16h19.35.370,vbt_B2_day1,2022.2.4,Win32,60.93845216,,,,,,,,,,,,,,,,,,,0.207407422,0.020370377,1,0,0,0.2164,4,8,112,2,1,c,images/br_c.png,images/cb_c.png,,,,,,,,,,,,,,,,,,,,,,,,,
,,,,,,00055,2023-10-11_16h19.35.370,vbt_B2_day1,2022.2.4,Win32,60.93845216,,,,,,,,,,,,,,,,,,,0.310185185,-0.181481467,1,0,0,1.6334,4,9,113,17,1,r,images/br_r.png,images/cb_r.png,,,,,,,,,,,,,,,,,,,,,,,,,
,,,,,,00055,2023-10-11_16h19.35.370,vbt_B2_day1,2022.2.4,Win32,60.93845216,,,,,,,,,,,,,,,,,,,0.598148205,-0.104629658,1,0,0,1.15,4,10,114,23,1,x,images/br_x.png,images/cb_x.png,,,,,,,,,,,,,,,,,,,,,,,,,
,,,,,,00055,2023-10-11_16h19.35.370,vbt_B2_day1,2022.2.4,Win32,60.93845216,,,,,,,,,,,,,,,,,,,0.588888945,-0.212037051,1,0,0,0.1627,4,11,115,0,1,a,images/br_a.png,images/cb_a.png,,,,,,,,,,,,,,,,,,,,,,,,,
,,,,,,00055,2023-10-11_16h19.35.370,vbt_B2_day1,2022.2.4,Win32,60.93845216,,,,,,,,,,,,,,,,,,,0.361111111,-0.087962963,1,0,0,6.7144,4,12,116,16,1,q,images/br_q.png,images/cb_q.png,,,,,,,,,,,,,,,,,,,,,,,,,
,,,,,,00055,2023-10-11_16h19.35.370,vbt_B2_day1,2022.2.4,Win32,60.93845216,,,,,,,,,,,,,,,,,,,0.361111111,-0.086111104,1,0,0,2.7498,4,13,117,14,1,o,images/br_o.png,images/cb_o.png,,,,,,,,,,,,,,,,,,,,,,,,,
,,,,,,00055,2023-10-11_16h19.35.370,vbt_B2_day1,2022.2.4,Win32,60.93845216,,,,,,,,,,,,,,,,,,,0.357407464,-0.080555563,1,0,0,0.0999,4,14,118,22,1,w,images/br_w.png,images/cb_w.png,,,,,,,,,,,,,,,,,,,,,,,,,
,,,,,,00055,2023-10-11_16h19.35.370,vbt_B2_day1,2022.2.4,Win32,60.93845216,,,,,,,,,,,,,,,,,,,0.315740797,-0.069444444,1,0,0,0.196,4,15,119,6,1,g,images/br_g.png,images/cb_g.png,,,,,,,,,,,,,,,,,,,,,,,,,
,,,,,,00055,2023-10-11_16h19.35.370,vbt_B2_day1,2022.2.4,Win32,60.93845216,,,,,,,,,,,,,,,,,,,0.277777778,-0.139814801,1,0,0,0.0826,4,16,120,4,1,e,images/br_e.png,images/cb_e.png,,,,,,,,,,,,,,,,,,,,,,,,,
,,,,,,00055,2023-10-11_16h19.35.370,vbt_B2_day1,2022.2.4,Win32,60.93845216,,,,,,,,,,,,,,,,,,,0.54351849,-0.193518533,1,0,0,0.3156,4,17,121,20,1,u,images/br_u.png,images/cb_u.png,,,,,,,,,,,,,,,,,,,,,,,,,
,,,,,,00055,2023-10-11_16h19.35.370,vbt_B2_day1,2022.2.4,Win32,60.93845216,,,,,,,,,,,,,,,,,,,0.290740755,-0.265740783,1,0,0,3.4866,4,18,122,9,1,j,images/br_j.png,images/cb_j.png,,,,,,,,,,,,,,,,,,,,,,,,,
,,,,,,00055,2023-10-11_16h19.35.370,vbt_B2_day1,2022.2.4,Win32,60.93845216,,,,,,,,,,,,,,,,,,,0.157407407,-0.124074088,1,0,0,2.8448,4,19,123,24,1,y,images/br_y.png,images/cb_y.png,,,,,,,,,,,,,,,,,,,,,,,,,
,,,,,,00055,2023-10-11_16h19.35.370,vbt_B2_day1,2022.2.4,Win32,60.93845216,,,,,,,,,,,,,,,,,,,0.262037065,-0.178703732,1,0,0,0.9457,4,20,124,8,1,i,images/br_i.png,images/cb_i.png,,,,,,,,,,,,,,,,,,,,,,,,,
,,,,,,00055,2023-10-11_16h19.35.370,vbt_B2_day1,2022.2.4,Win32,60.93845216,,,,,,,,,,,,,,,,,,,0.25462963,-0.208333333,1,0,0,0.1334,4,21,125,12,1,m,images/br_m.png,images/cb_m.png,,,,,,,,,,,,,,,,,,,,,,,,,
,,,,,,00055,2023-10-11_16h19.35.370,vbt_B2_day1,2022.2.4,Win32,60.93845216,,,,,,,,,,,,,,,,,,,0.481481481,-0.187962991,1,0,0,2.2341,4,22,126,1,1,b,images/br_b.png,images/cb_b.png,,,,,,,,,,,,,,,,,,,,,,,,,
,,,,,,00055,2023-10-11_16h19.35.370,vbt_B2_day1,2022.2.4,Win32,60.93845216,,,,,,,,,,,,,,,,,,,0.478703675,-0.164814843,1,0,0,4.9153,4,23,127,25,1,z,images/br_z.png,images/cb_z.png,,,,,,,,,,,,,,,,,,,,,,,,,
,,,,,,00055,2023-10-11_16h19.35.370,vbt_B2_day1,2022.2.4,Win32,60.93845216,,,,,,,,,,,,,,,,,,,0.41851849,-0.098148134,1,0,0,2.2293,4,24,128,3,1,d,images/br_d.png,images/cb_d.png,,,,,,,,,,,,,,,,,,,,,,,,,
,,,,,,00055,2023-10-11_16h19.35.370,vbt_B2_day1,2022.2.4,Win32,60.93845216,,,,,,,,,,,,,,,,,,,0.421296296,-0.107407393,1,0,0,1.3143,4,25,129,13,1,n,images/br_n.png,images/cb_n.png,,,,,,,,,,,,,,,,,,,,,,,,,
,,,,,,00055,2023-10-11_16h19.35.370,vbt_B2_day1,2022.2.4,Win32,60.93845216,,,,,,,,,,,,,,,,,,,0.438888974,0.046296296,1,0,0,33.3053,5,0,130,24,1,y,images/br_y.png,images/cb_y.png,,,,,,,,,,,,,,,,,,,,,,,,,
,,,,,,00055,2023-10-11_16h19.35.370,vbt_B2_day1,2022.2.4,Win32,60.93845216,,,,,,,,,,,,,,,,,,,0.434259344,0.039814808,1,0,0,3.0806,5,1,131,0,1,a,images/br_a.png,images/cb_a.png,,,,,,,,,,,,,,,,,,,,,,,,,
,,,,,,00055,2023-10-11_16h19.35.370,vbt_B2_day1,2022.2.4,Win32,60.93845216,,,,,,,,,,,,,,,,,,,0.414814843,0.01944443,1,0,0,9.4806,5,2,132,2,1,c,images/br_c.png,images/cb_c.png,,,,,,,,,,,,,,,,,,,,,,,,,
,,,,,,00055,2023-10-11_16h19.35.370,vbt_B2_day1,2022.2.4,Win32,60.93845216,,,,,,,,,,,,,,,,,,,0.392592677,-0.043518526,1,0,0,2.2196,5,3,133,11,1,l,images/br_l.png,images/cb_l.png,,,,,,,,,,,,,,,,,,,,,,,,,
,,,,,,00055,2023-10-11_16h19.35.370,vbt_B2_day1,2022.2.4,Win32,60.93845216,,,,,,,,,,,,,,,,,,,0.384259259,-0.048148155,1,0,0,2.9825,5,4,134,23,1,x,images/br_x.png,images/cb_x.png,,,,,,,,,,,,,,,,,,,,,,,,,
,,,,,,00055,2023-10-11_16h19.35.370,vbt_B2_day1,2022.2.4,Win32,60.93845216,,,,,,,,,,,,,,,,,,,0.384259259,-0.048148155,1,0,0,2.1963,5,5,135,7,1,h,images/br_h.png,images/cb_h.png,,,,,,,,,,,,,,,,,,,,,,,,,
,,,,,,00055,2023-10-11_16h19.35.370,vbt_B2_day1,2022.2.4,Win32,60.93845216,,,,,,,,,,,,,,,,,,,0.372222194,-0.041666667,1,0,0,0.2997,5,6,136,13,1,n,images/br_n.png,images/cb_n.png,,,,,,,,,,,,,,,,,,,,,,,,,
,,,,,,00055,2023-10-11_16h19.35.370,vbt_B2_day1,2022.2.4,Win32,60.93845216,,,,,,,,,,,,,,,,,,,0.372222194,-0.030555548,1,0,0,0.7486,5,7,137,16,1,q,images/br_q.png,images/cb_q.png,,,,,,,,,,,,,,,,,,,,,,,,,
,,,,,,00055,2023-10-11_16h19.35.370,vbt_B2_day1,2022.2.4,Win32,60.93845216,,,,,,,,,,,,,,,,,,,0.215740769,-0.112037023,1,0,0,1.1,5,8,138,21,1,v,images/br_v.png,images/cb_v.png,,,,,,,,,,,,,,,,,,,,,,,,,
,,,,,,00055,2023-10-11_16h19.35.370,vbt_B2_day1,2022.2.4,Win32,60.93845216,,,,,,,,,,,,,,,,,,,0.340740769,-0.110185199,1,0,0,0.7193,5,9,139,14,1,o,images/br_o.png,images/cb_o.png,,,,,,,,,,,,,,,,,,,,,,,,,
,,,,,,00055,2023-10-11_16h19.35.370,vbt_B2_day1,2022.2.4,Win32,60.93845216,,,,,,,,,,,,,,,,,,,0.333333333,-0.075000021,1,0,0,0.8777,5,10,140,17,1,r,images/br_r.png,images/cb_r.png,,,,,,,,,,,,,,,,,,,,,,,,,
,,,,,,00055,2023-10-11_16h19.35.370,vbt_B2_day1,2022.2.4,Win32,60.93845216,,,,,,,,,,,,,,,,,,,0.32222225,-0.080555563,1,0,0,1.1531,5,11,141,1,1,b,images/br_b.png,images/cb_b.png,,,,,,,,,,,,,,,,,,,,,,,,,
,,,,,,00055,2023-10-11_16h19.35.370,vbt_B2_day1,2022.2.4,Win32,60.93845216,,,,,,,,,,,,,,,,,,,0.32222225,-0.079629651,1,0,0,0.5338,5,12,142,19,1,t,images/br_t.png,images/cb_t.png,,,,,,,,,,,,,,,,,,,,,,,,,
,,,,,,00055,2023-10-11_16h19.35.370,vbt_B2_day1,2022.2.4,Win32,60.93845216,,,,,,,,,,,,,,,,,,,0.30277775,-0.100000028,1,0,0,2.0474,5,13,143,25,1,z,images/br_z.png,images/cb_z.png,,,,,,,,,,,,,,,,,,,,,,,,,
,,,,,,00055,2023-10-11_16h19.35.370,vbt_B2_day1,2022.2.4,Win32,60.93845216,,,,,,,,,,,,,,,,,,,0.308333362,-0.109259288,1,0,0,1.4865,5,14,144,22,1,w,images/br_w.png,images/cb_w.png,,,,,,,,,,,,,,,,,,,,,,,,,
,,,,,,00055,2023-10-11_16h19.35.370,vbt_B2_day1,2022.2.4,Win32,60.93845216,,,,,,,,,,,,,,,,,,,0.320370427,-0.121296282,1,0,0,3.5948,5,15,145,18,1,s,images/br_s.png,images/cb_s.png,,,,,,,,,,,,,,,,,,,,,,,,,
,,,,,,00055,2023-10-11_16h19.35.370,vbt_B2_day1,2022.2.4,Win32,60.93845216,,,,,,,,,,,,,,,,,,,0.319444444,-0.12037037,1,0,0,0.633,5,16,146,5,1,f,images/br_f.png,images/cb_f.png,,,,,,,,,,,,,,,,,,,,,,,,,
,,,,,,00055,2023-10-11_16h19.35.370,vbt_B2_day1,2022.2.4,Win32,60.93845216,,,,,,,,,,,,,,,,,,,0.363888917,-0.071296303,1,0,0,1.501,5,17,147,9,1,j,images/br_j.png,images/cb_j.png,,,,,,,,,,,,,,,,,,,,,,,,,
,,,,,,00055,2023-10-11_16h19.35.370,vbt_B2_day1,2022.2.4,Win32,60.93845216,,,,,,,,,,,,,,,,,,,0.108333376,0.001851859,1,0,0,2.4663,5,18,148,10,1,k,images/br_k.png,images/cb_k.png,,,,,,,,,,,,,,,,,,,,,,,,,
,,,,,,00055,2023-10-11_16h19.35.370,vbt_B2_day1,2022.2.4,Win32,60.93845216,,,,,,,,,,,,,,,,,,,0.111111111,0.005555541,1,0,0,1.2827,5,19,149,4,1,e,images/br_e.png,images/cb_e.png,,,,,,,,,,,,,,,,,,,,,,,,,
,,,,,,00055,2023-10-11_16h19.35.370,vbt_B2_day1,2022.2.4,Win32,60.93845216,,,,,,,,,,,,,,,,,,,0,-0.207407422,1,0,0,1.4674,5,20,150,3,1,d,images/br_d.png,images/cb_d.png,,,,,,,,,,,,,,,,,,,,,,,,,
,,,,,,00055,2023-10-11_16h19.35.370,vbt_B2_day1,2022.2.4,Win32,60.93845216,,,,,,,,,,,,,,,,,,,0.334259316,-0.123148176,1,0,0,0.0794,5,21,151,8,1,i,images/br_i.png,images/cb_i.png,,,,,,,,,,,,,,,,,,,,,,,,,
,,,,,,00055,2023-10-11_16h19.35.370,vbt_B2_day1,2022.2.4,Win32,60.93845216,,,,,,,,,,,,,,,,,,,0.343518575,-0.138888889,1,0,0,1.2344,5,22,152,15,1,p,images/br_p.png,images/cb_p.png,,,,,,,,,,,,,,,,,,,,,,,,,
,,,,,,00055,2023-10-11_16h19.35.370,vbt_B2_day1,2022.2.4,Win32,60.93845216,,,,,,,,,,,,,,,,,,,0.297222279,-0.087037051,1,0,0,1.4299,5,23,153,20,1,u,images/br_u.png,images/cb_u.png,,,,,,,,,,,,,,,,,,,,,,,,,
,,,,,,00055,2023-10-11_16h19.35.370,vbt_B2_day1,2022.2.4,Win32,60.93845216,,,,,,,,,,,,,,,,,,,0.350926011,-0.080555563,1,0,0,1.4705,5,24,154,6,1,g,images/br_g.png,images/cb_g.png,,,,,,,,,,,,,,,,,,,,,,,,,
,,,,,,00055,2023-10-11_16h19.35.370,vbt_B2_day1,2022.2.4,Win32,60.93845216,,,,,,,,,,,,,,,,,,,0.350926011,-0.080555563,1,0,0,0.3167,5,25,155,12,1,m,images/br_m.png,images/cb_m.png,,,,,,,,,,,,,,,,,,,,,,,,,
,,,,,,00055,2023-10-11_16h19.35.370,vbt_B2_day1,2022.2.4,Win32,60.93845216,,,,,,,,,,,,,,,,,,,0.350926011,-0.080555563,1,0,0,0.251,6,0,156,11,1,l,images/br_l.png,images/cb_l.png,,,,,,,,,,,,,,,,,,,,,,,,,
,,,,,,00055,2023-10-11_16h19.35.370,vbt_B2_day1,2022.2.4,Win32,60.93845216,,,,,,,,,,,,,,,,,,,0.316666638,-0.090740734,1,0,0,1.0488,6,1,157,24,1,y,images/br_y.png,images/cb_y.png,,,,,,,,,,,,,,,,,,,,,,,,,
,,,,,,00055,2023-10-11_16h19.35.370,vbt_B2_day1,2022.2.4,Win32,60.93845216,,,,,,,,,,,,,,,,,,,0.310185185,-0.094444487,1,0,0,0.0376,6,2,158,17,1,r,images/br_r.png,images/cb_r.png,,,,,,,,,,,,,,,,,,,,,,,,,
,,,,,,00055,2023-10-11_16h19.35.370,vbt_B2_day1,2022.2.4,Win32,60.93845216,,,,,,,,,,,,,,,,,,,0.308333362,-0.094444487,1,0,0,0.6707,6,3,159,12,1,m,images/br_m.png,images/cb_m.png,,,,,,,,,,,,,,,,,,,,,,,,,
,,,,,,00055,2023-10-11_16h19.35.370,vbt_B2_day1,2022.2.4,Win32,60.93845216,,,,,,,,,,,,,,,,,,,0.308333362,-0.094444487,1,0,0,0.4783,6,4,160,15,1,p,images/br_p.png,images/cb_p.png,,,,,,,,,,,,,,,,,,,,,,,,,
,,,,,,00055,2023-10-11_16h19.35.370,vbt_B2_day1,2022.2.4,Win32,60.93845216,,,,,,,,,,,,,,,,,,,0.275000042,0.0074074,1,0,0,0.9301,6,5,161,20,1,u,images/br_u.png,images/cb_u.png,,,,,,,,,,,,,,,,,,,,,,,,,
,,,,,,00055,2023-10-11_16h19.35.370,vbt_B2_day1,2022.2.4,Win32,60.93845216,,,,,,,,,,,,,,,,,,,0.272222236,0.003703683,1,0,0,1.0199,6,6,162,3,1,d,images/br_d.png,images/cb_d.png,,,,,,,,,,,,,,,,,,,,,,,,,
,,,,,,00055,2023-10-11_16h19.35.370,vbt_B2_day1,2022.2.4,Win32,60.93845216,,,,,,,,,,,,,,,,,,,0.212037051,-0.103703746,1,0,0,4.6154,6,7,163,5,1,f,images/br_f.png,images/cb_f.png,,,,,,,,,,,,,,,,,,,,,,,,,
,,,,,,00055,2023-10-11_16h19.35.370,vbt_B2_day1,2022.2.4,Win32,60.93845216,,,,,,,,,,,,,,,,,,,0.262037065,-0.037037037,1,0,0,2.4123,6,8,164,13,1,n,images/br_n.png,images/cb_n.png,,,,,,,,,,,,,,,,,,,,,,,,,
,,,,,,00055,2023-10-11_16h19.35.370,vbt_B2_day1,2022.2.4,Win32,60.93845216,,,,,,,,,,,,,,,,,,,0.207407422,-0.0074074,1,0,0,0.7159,6,9,165,7,1,h,images/br_h.png,images/cb_h.png,,,,,,,,,,,,,,,,,,,,,,,,,
,,,,,,00055,2023-10-11_16h19.35.370,vbt_B2_day1,2022.2.4,Win32,60.93845216,,,,,,,,,,,,,,,,,,,0.187037079,0.006481489,1,0,0,2.1982,6,10,166,14,1,o,images/br_o.png,images/cb_o.png,,,,,,,,,,,,,,,,,,,,,,,,,
,,,,,,00055,2023-10-11_16h19.35.370,vbt_B2_day1,2022.2.4,Win32,60.93845216,,,,,,,,,,,,,,,,,,,0.180555556,0.009259259,1,0,0,2.033,6,11,167,25,1,z,images/br_z.png,images/cb_z.png,,,,,,,,,,,,,,,,,,,,,,,,,
,,,,,,00055,2023-10-11_16h19.35.370,vbt_B2_day1,2022.2.4,Win32,60.93845216,,,,,,,,,,,,,,,,,,,0.168518561,0.01944443,1,0,0,1.9708,6,12,168,22,1,w,images/br_w.png,images/cb_w.png,,,,,,,,,,,,,,,,,,,,,,,,,
,,,,,,00055,2023-10-11_16h19.35.370,vbt_B2_day1,2022.2.4,Win32,60.93845216,,,,,,,,,,,,,,,,,,,0.168518561,0.021296289,1,0,0,0.6233,6,13,169,6,1,g,images/br_g.png,images/cb_g.png,,,,,,,,,,,,,,,,,,,,,,,,,
,,,,,,00055,2023-10-11_16h19.35.370,vbt_B2_day1,2022.2.4,Win32,60.93845216,,,,,,,,,,,,,,,,,,,0.163888931,0.027777778,1,0,0,0.1296,6,14,170,8,1,i,images/br_i.png,images/cb_i.png,,,,,,,,,,,,,,,,,,,,,,,,,
,,,,,,00055,2023-10-11_16h19.35.370,vbt_B2_day1,2022.2.4,Win32,60.93845216,,,,,,,,,,,,,,,,,,,0.161111125,0.030555548,1,0,0,0.3717,6,15,171,16,1,q,images/br_q.png,images/cb_q.png,,,,,,,,,,,,,,,,,,,,,,,,,
,,,,,,00055,2023-10-11_16h19.35.370,vbt_B2_day1,2022.2.4,Win32,60.93845216,,,,,,,,,,,,,,,,,,,0.150925954,0.03148146,1,0,0,0.203,6,16,172,19,1,t,images/br_t.png,images/cb_t.png,,,,,,,,,,,,,,,,,,,,,,,,,
,,,,,,00055,2023-10-11_16h19.35.370,vbt_B2_day1,2022.2.4,Win32,60.93845216,,,,,,,,,,,,,,,,,,,0.27407406,0.256481471,1,0,0,1.2497,6,17,173,4,1,e,images/br_e.png,images/cb_e.png,,,,,,,,,,,,,,,,,,,,,,,,,
,,,,,,00055,2023-10-11_16h19.35.370,vbt_B2_day1,2022.2.4,Win32,60.93845216,,,,,,,,,,,,,,,,,,,0.170370384,-0.035185178,1,0,0,0.3831,6,18,174,21,1,v,images/br_v.png,images/cb_v.png,,,,,,,,,,,,,,,,,,,,,,,,,
,,,,,,00055,2023-10-11_16h19.35.370,vbt_B2_day1,2022.2.4,Win32,60.93845216,,,,,,,,,,,,,,,,,,,0.275925954,0.022222201,1,0,0,5.0982,6,19,175,18,1,s,images/br_s.png,images/cb_s.png,,,,,,,,,,,,,,,,,,,,,,,,,
,,,,,,00055,2023-10-11_16h19.35.370,vbt_B2_day1,2022.2.4,Win32,60.93845216,,,,,,,,,,,,,,,,,,,0.270370413,0.029629637,1,0,0,3.1204,6,20,176,0,1,a,images/br_a.png,images/cb_a.png,,,,,,,,,,,,,,,,,,,,,,,,,
,,,,,,00055,2023-10-11_16h19.35.370,vbt_B2_day1,2022.2.4,Win32,60.93845216,,,,,,,,,,,,,,,,,,,0.256481524,0.029629637,1,0,0,2.0291,6,21,177,23,1,x,images/br_x.png,images/cb_x.png,,,,,,,,,,,,,,,,,,,,,,,,,
,,,,,,00055,2023-10-11_16h19.35.370,vbt_B2_day1,2022.2.4,Win32,60.93845216,,,,,,,,,,,,,,,,,,,0.250925912,0.03148146,1,0,0,0.3002,6,22,178,2,1,c,images/br_c.png,images/cb_c.png,,,,,,,,,,,,,,,,,,,,,,,,,
,,,,,,00055,2023-10-11_16h19.35.370,vbt_B2_day1,2022.2.4,Win32,60.93845216,,,,,,,,,,,,,,,,,,,0.318518603,0.279629619,1,0,0,46.7007,6,23,179,10,1,k,images/br_k.png,images/cb_k.png,,,,,,,,,,,,,,,,,,,,,,,,,
,,,,,,00055,2023-10-11_16h19.35.370,vbt_B2_day1,2022.2.4,Win32,60.93845216,,,,,,,,,,,,,,,,,,,0.483333305,-0.090740734,1,0,0,1.0137,6,24,180,9,1,j,images/br_j.png,images/cb_j.png,,,,,,,,,,,,,,,,,,,,,,,,,
,,,,,,00055,2023-10-11_16h19.35.370,vbt_B2_day1,2022.2.4,Win32,60.93845216,,,,,,,,,,,,,,,,,,,0.455555527,-0.062962956,1,0,0,1.0658,6,25,181,1,1,b,images/br_b.png,images/cb_b.png,,,,,,,,,,,,,,,,,,,,,,,,,
,,,,,,00055,2023-10-11_16h19.35.370,vbt_B2_day1,2022.2.4,Win32,60.93845216,,,,,,,,,,,,,,,,,,,,,,,,,,,,,,,,,0.380555612,-0.231481481,1,0,0,,,,,,,,,,,,,,,,,,,,
,,,,,,00055,2023-10-11_16h19.35.370,vbt_B2_day1,2022.2.4,Win32,60.93845216,,,,,,,,,,,,,,,,,,,,,,,,,,,,,,,,,,,,,,0.541666667,-0.003703718,1,0,0,,,,,,,,,,,,,,,
,,,,,,00055,2023-10-11_16h19.35.370,vbt_B2_day1,2022.2.4,Win32,60.93845216,,,,,,,,,,,,,,,,,,,,,,,,,,,,,,,,,,,,,,,,,,,0.538888861,-0.132407436,1,0,0,slak,slak,0,0,0,0,1,slak,images/br_slak.png,images/cb_slak.png
,,,,,,00055,2023-10-11_16h19.35.370,vbt_B2_day1,2022.2.4,Win32,60.93845216,,,,,,,,,,,,,,,,,,,,,,,,,,,,,,,,,,,,,,,,,,,0.27870369,-0.056481503,1,0,0,mand,mand,0,1,1,3,1,mand,images/br_mand.png,images/cb_mand.png
,,,,,,00055,2023-10-11_16h19.35.370,vbt_B2_day1,2022.2.4,Win32,60.93845216,,,,,,,,,,,,,,,,,,,,,,,,,,,,,,,,,,,,,,,,,,,0.031481496,0.03611109,1,0,0,brijk,brijk,0,2,2,25,1,brijk,images/br_brijk.png,images/cb_brijk.png
,,,,,,00055,2023-10-11_16h19.35.370,vbt_B2_day1,2022.2.4,Win32,60.93845216,,,,,,,,,,,,,,,,,,,,,,,,,,,,,,,,,,,,,,,,,,,0.14907406,0.022222201,1,0,0,..bbl.,..bbl.,0,3,3,9,1,dubbel,images/br_dubbel.png,images/cb_dubbel.png
,,,,,,00055,2023-10-11_16h19.35.370,vbt_B2_day1,2022.2.4,Win32,60.93845216,,,,,,,,,,,,,,,,,,,,,,,,,,,,,,,,,,,,,,,,,,,0.079629616,0.042592578,1,0,0,plulln,plulln,0,4,4,33,1,flullen,images/br_flullen.png,images/cb_flullen.png
,,,,,,00055,2023-10-11_16h19.35.370,vbt_B2_day1,2022.2.4,Win32,60.93845216,,,,,,,,,,,,,,,,,,,,,,,,,,,,,,,,,,,,,,,,,,,0.371296353,-0.213888875,1,0,0,la.l,la.l,0,5,5,43,1,lava,images/br_lava.png,images/cb_lava.png
,,,,,,00055,2023-10-11_16h19.35.370,vbt_B2_day1,2022.2.4,Win32,60.93845216,,,,,,,,,,,,,,,,,,,,,,,,,,,,,,,,,,,,,,,,,,,0.357407464,-0.141666695,1,0,0,s.an.,s.an.,0,6,6,37,1,spanzing,images/br_spanzing.png,images/cb_spanzing.png
,,,,,,00055,2023-10-11_16h19.35.370,vbt_B2_day1,2022.2.4,Win32,60.93845216,,,,,,,,,,,,,,,,,,,,,,,,,,,,,,,,,,,,,,,,,,,0.293518561,-0.042592614,1,0,0,o..lan,o..lan,0,7,7,32,1,opplaan,images/br_opplaan.png,images/cb_opplaan.png
,,,,,,00055,2023-10-11_16h19.35.370,vbt_B2_day1,2022.2.4,Win32,60.93845216,,,,,,,,,,,,,,,,,,,,,,,,,,,,,,,,,,,,,,,,,,,0.293518561,-0.070370392,1,0,0,mening,mening,0,8,8,11,1,mening,images/br_mening.png,images/cb_mening.png
,,,,,,00055,2023-10-11_16h19.35.370,vbt_B2_day1,2022.2.4,Win32,60.93845216,,,,,,,,,,,,,,,,,,,,,,,,,,,,,,,,,,,,,,,,,,,0.520370342,-0.194444444,1,0,0,sce.p,sce.p,0,9,9,4,1,schep,images/br_schep.png,images/cb_schep.png
,,,,,,00055,2023-10-11_16h19.35.370,vbt_B2_day1,2022.2.4,Win32,60.93845216,,,,,,,,,,,,,,,,,,,,,,,,,,,,,,,,,,,,,,,,,,,0.07685188,0.018518519,1,0,0,uit....,uit....,0,10,10,18,1,uitdelen,images/br_uitdelen.png,images/cb_uitdelen.png
,,,,,,00055,2023-10-11_16h19.35.370,vbt_B2_day1,2022.2.4,Win32,60.93845216,,,,,,,,,,,,,,,,,,,,,,,,,,,,,,,,,,,,,,,,,,,0.134259259,-0.112037023,1,0,0,ree..e,ree..e,0,11,11,30,1,reedje,images/br_reedje.png,images/cb_reedje.png
,,,,,,00055,2023-10-11_16h19.35.370,vbt_B2_day1,2022.2.4,Win32,60.93845216,,,,,,,,,,,,,,,,,,,,,,,,,,,,,,,,,,,,,,,,,,,0.566666638,0.074999986,1,0,0,tars,tars,0,12,12,20,1,tars,images/br_tars.png,images/cb_tars.png
,,,,,,00055,2023-10-11_16h19.35.370,vbt_B2_day1,2022.2.4,Win32,60.93845216,,,,,,,,,,,,,,,,,,,,,,,,,,,,,,,,,,,,,,,,,,,0.348148205,-0.072222215,1,0,0,emul,emul,0,13,13,45,1,hemel,images/br_hemel.png,images/cb_hemel.png
,,,,,,00055,2023-10-11_16h19.35.370,vbt_B2_day1,2022.2.4,Win32,60.93845216,,,,,,,,,,,,,,,,,,,,,,,,,,,,,,,,,,,,,,,,,,,0.132407436,0.058333326,1,0,0,twe.....,twe.....,0,14,14,13,1,twijfel,images/br_twijfel.png,images/cb_twijfel.png
,,,,,,00055,2023-10-11_16h19.35.370,vbt_B2_day1,2022.2.4,Win32,60.93845216,,,,,,,,,,,,,,,,,,,,,,,,,,,,,,,,,,,,,,,,,,,0.382407436,-0.10555557,1,0,0,.oorkuir,.oorkuir,0,15,15,58,1,voorkeur,images/br_voorkeur.png,images/cb_voorkeur.png
,,,,,,00055,2023-10-11_16h19.35.370,vbt_B2_day1,2022.2.4,Win32,60.93845216,,,,,,,,,,,,,,,,,,,,,,,,,,,,,,,,,,,,,,,,,,,0.567592621,-0.266666695,1,0,0,loc.t.n,loc.t.n,0,16,16,34,1,lochten,images/br_lochten.png,images/cb_lochten.png
,,,,,,00055,2023-10-11_16h19.35.370,vbt_B2_day1,2022.2.4,Win32,60.93845216,,,,,,,,,,,,,,,,,,,,,,,,,,,,,,,,,,,,,,,,,,,0.521296325,0.096296275,1,0,0,lezen,lezen,0,17,17,46,1,lezen,images/br_lezen.png,images/cb_lezen.png
,,,,,,00055,2023-10-11_16h19.35.370,vbt_B2_day1,2022.2.4,Win32,60.93845216,,,,,,,,,,,,,,,,,,,,,,,,,,,,,,,,,,,,,,,,,,,0.636111083,-0.033333355,1,0,0,krn...,krn...,0,18,18,8,1,kanjer,images/br_kanjer.png,images/cb_kanjer.png
,,,,,,00055,2023-10-11_16h19.35.370,vbt_B2_day1,2022.2.4,Win32,60.93845216,,,,,,,,,,,,,,,,,,,,,,,,,,,,,,,,,,,,,,,,,,,0.613888917,-0.100000028,1,0,0,rezer,rezer,0,19,19,24,1,rezer,images/br_rezer.png,images/cb_rezer.png
,,,,,,00055,2023-10-11_16h19.35.370,vbt_B2_day1,2022.2.4,Win32,60.93845216,,,,,,,,,,,,,,,,,,,,,,,,,,,,,,,,,,,,,,,,,,,0.542592649,-0.196296339,1,0,0,attentie,attentie,0,20,20,17,1,attentie,images/br_attentie.png,images/cb_attentie.png
,,,,,,00055,2023-10-11_16h19.35.370,vbt_B2_day1,2022.2.4,Win32,60.93845216,,,,,,,,,,,,,,,,,,,,,,,,,,,,,,,,,,,,,,,,,,,0.45185188,-0.078703704,1,0,0,.ier....,.ier....,0,21,21,15,1,hiervan,images/br_hiervan.png,images/cb_hiervan.png
,,,,,,00055,2023-10-11_16h19.35.370,vbt_B2_day1,2022.2.4,Win32,60.93845216,,,,,,,,,,,,,,,,,,,,,,,,,,,,,,,,,,,,,,,,,,,0.53333339,-0.299074102,1,0,0,klimmen,klimmen,0,22,22,12,1,klimmen,images/br_klimmen.png,images/cb_klimmen.png
,,,,,,00055,2023-10-11_16h19.35.370,vbt_B2_day1,2022.2.4,Win32,60.93845216,,,,,,,,,,,,,,,,,,,,,,,,,,,,,,,,,,,,,,,,,,,0.549074102,-0.051851873,1,0,0,knoe,knoe,0,23,23,22,1,knoe,images/br_knoe.png,images/cb_knoe.png
,,,,,,00055,2023-10-11_16h19.35.370,vbt_B2_day1,2022.2.4,Win32,60.93845216,,,,,,,,,,,,,,,,,,,,,,,,,,,,,,,,,,,,,,,,,,,0.758333418,-0.136111153,1,0,0,loods,loods,0,24,24,47,1,loods,images/br_loods.png,images/cb_loods.png
,,,,,,00055,2023-10-11_16h19.35.370,vbt_B2_day1,2022.2.4,Win32,60.93845216,,,,,,,,,,,,,,,,,,,,,,,,,,,,,,,,,,,,,,,,,,,0.497222194,0.076851845,1,0,0,.id....,.id....,0,25,25,54,1,vijftig,images/br_vijftig.png,images/cb_vijftig.png
,,,,,,00055,2023-10-11_16h19.35.370,vbt_B2_day1,2022.2.4,Win32,60.93845216,,,,,,,,,,,,,,,,,,,,,,,,,,,,,,,,,,,,,,,,,,,0.514814871,0.111111111,1,0,0,maken,maken,0,26,26,5,1,maken,images/br_maken.png,images/cb_maken.png
,,,,,,00055,2023-10-11_16h19.35.370,vbt_B2_day1,2022.2.4,Win32,60.93845216,,,,,,,,,,,,,,,,,,,,,,,,,,,,,,,,,,,,,,,,,,,0.183333362,0.01944443,1,0,0,daar,daar,0,27,27,2,1,jaar,images/br_jaar.png,images/cb_jaar.png
,,,,,,00055,2023-10-11_16h19.35.370,vbt_B2_day1,2022.2.4,Win32,60.93845216,,,,,,,,,,,,,,,,,,,,,,,,,,,,,,,,,,,,,,,,,,,0.424074102,-0.103703746,1,0,0,muziek,muziek,0,28,28,10,1,muziek,images/br_muziek.png,images/cb_muziek.png
,,,,,,00055,2023-10-11_16h19.35.370,vbt_B2_day1,2022.2.4,Win32,60.93845216,,,,,,,,,,,,,,,,,,,,,,,,,,,,,,,,,,,,,,,,,,,0.314814815,-0.031481496,1,0,0,stuk,stuk,0,29,29,42,1,stuk,images/br_stuk.png,images/cb_stuk.png
,,,,,,00055,2023-10-11_16h19.35.370,vbt_B2_day1,2022.2.4,Win32,60.93845216,,,,,,,,,,,,,,,,,,,,,,,,,,,,,,,,,,,,,,,,,,,0.100000028,0.018518519,1,0,0,valo.,valo.,0,30,30,26,1,valop,images/br_valop.png,images/cb_valop.png
,,,,,,00055,2023-10-11_16h19.35.370,vbt_B2_day1,2022.2.4,Win32,60.93845216,,,,,,,,,,,,,,,,,,,,,,,,,,,,,,,,,,,,,,,,,,,0.089814857,0.001851859,1,0,0,sc.c....,sc.c....,0,31,31,19,1,schuilen,images/br_schuilen.png,images/cb_schuilen.png
,,,,,,00055,2023-10-11_16h19.35.370,vbt_B2_day1,2022.2.4,Win32,60.93845216,,,,,,,,,,,,,,,,,,,,,,,,,,,,,,,,,,,,,,,,,,,0.359259288,-0.17777782,1,0,0,toezicht,toezicht,0,32,32,56,1,toezicht,images/br_toezicht.png,images/cb_toezicht.png
,,,,,,00055,2023-10-11_16h19.35.370,vbt_B2_day1,2022.2.4,Win32,60.93845216,,,,,,,,,,,,,,,,,,,,,,,,,,,,,,,,,,,,,,,,,,,0.327777863,-0.104629658,1,0,0,liefde,liefde,0,33,33,51,1,liefde,images/br_liefde.png,images/cb_liefde.png
,,,,,,00055,2023-10-11_16h19.35.370,vbt_B2_day1,2022.2.4,Win32,60.93845216,,,,,,,,,,,,,,,,,,,,,,,,,,,,,,,,,,,,,,,,,,,0.644444501,0.02407406,1,0,0,vizier,vizier,0,34,34,49,1,vizier,images/br_vizier.png,images/cb_vizier.png
,,,,,,00055,2023-10-11_16h19.35.370,vbt_B2_day1,2022.2.4,Win32,60.93845216,,,,,,,,,,,,,,,,,,,,,,,,,,,,,,,,,,,,,,,,,,,0.005555541,-0.028703725,1,0,0,stamin,stamin,0,35,35,31,1,stamen,images/br_stamen.png,images/cb_stamen.png
,,,,,,00055,2023-10-11_16h19.35.370,vbt_B2_day1,2022.2.4,Win32,60.93845216,,,,,,,,,,,,,,,,,,,,,,,,,,,,,,,,,,,,,,,,,,,0.292592578,0.106481481,1,0,0,liegen,liegen,0,36,36,50,1,liegen,images/br_liegen.png,images/cb_liegen.png
,,,,,,00055,2023-10-11_16h19.35.370,vbt_B2_day1,2022.2.4,Win32,60.93845216,,,,,,,,,,,,,,,,,,,,,,,,,,,,,,,,,,,,,,,,,,,0.803703732,-0.079629651,1,0,0,tekenen,tekenen,0,37,37,55,1,tekenen,images/br_tekenen.png,images/cb_tekenen.png
,,,,,,00055,2023-10-11_16h19.35.370,vbt_B2_day1,2022.2.4,Win32,60.93845216,,,,,,,,,,,,,,,,,,,,,,,,,,,,,,,,,,,,,,,,,,,0.217592593,0.058333326,1,0,0,waarven,waarven,0,38,38,14,1,waarvan,images/br_waarvan.png,images/cb_waarvan.png
,,,,,,00055,2023-10-11_16h19.35.370,vbt_B2_day1,2022.2.4,Win32,60.93845216,,,,,,,,,,,,,,,,,,,,,,,,,,,,,,,,,,,,,,,,,,,0.37037037,-0.054629644,1,0,0,voormer,voormer,0,39,39,39,1,voorreur,images/br_voorreur.png,images/cb_voorreur.png
,,,,,,00055,2023-10-11_16h19.35.370,vbt_B2_day1,2022.2.4,Win32,60.93845216,,,,,,,,,,,,,,,,,,,,,,,,,,,,,,,,,,,,,,,,,,,0.479629658,-0.228703746,1,0,0,zaal,zaal,0,40,40,1,1,zaal,images/br_zaal.png,images/cb_zaal.png
,,,,,,00055,2023-10-11_16h19.35.370,vbt_B2_day1,2022.2.4,Win32,60.93845216,,,,,,,,,,,,,,,,,,,,,,,,,,,,,,,,,,,,,,,,,,,0.006481524,0.025000007,1,0,0,meenemen,meenemen,0,41,41,57,1,meenemen,images/br_meenemen.png,images/cb_meenemen.png
,,,,,,00055,2023-10-11_16h19.35.370,vbt_B2_day1,2022.2.4,Win32,60.93845216,,,,,,,,,,,,,,,,,,,,,,,,,,,,,,,,,,,,,,,,,,,0.006481524,0.025925919,1,0,0,.roort,.roort,0,42,42,27,1,prort,images/br_prort.png,images/cb_prort.png
,,,,,,00055,2023-10-11_16h19.35.370,vbt_B2_day1,2022.2.4,Win32,60.93845216,,,,,,,,,,,,,,,,,,,,,,,,,,,,,,,,,,,,,,,,,,,0.006481524,0.025925919,1,0,0,genoe.,genoe.,0,43,43,29,1,genond,images/br_genond.png,images/cb_genond.png
,,,,,,00055,2023-10-11_16h19.35.370,vbt_B2_day1,2022.2.4,Win32,60.93845216,,,,,,,,,,,,,,,,,,,,,,,,,,,,,,,,,,,,,,,,,,,0.276851866,-0.191666709,1,0,0,.......,.......,0,44,44,36,1,vervaden,images/br_vervaden.png,images/cb_vervaden.png
,,,,,,00055,2023-10-11_16h19.35.370,vbt_B2_day1,2022.2.4,Win32,60.93845216,,,,,,,,,,,,,,,,,,,,,,,,,,,,,,,,,,,,,,,,,,,0.519444501,-0.178703732,1,0,0,dief,dief,0,45,45,40,1,dief,images/br_dief.png,images/cb_dief.png
,,,,,,00055,2023-10-11_16h19.35.370,vbt_B2_day1,2022.2.4,Win32,60.93845216,,,,,,,,,,,,,,,,,,,,,,,,,,,,,,,,,,,,,,,,,,,-0.132407365,0.067592586,1,0,0,schielen,schielen,0,46,46,38,1,schielen,images/br_schielen.png,images/cb_schielen.png
,,,,,,00055,2023-10-11_16h19.35.370,vbt_B2_day1,2022.2.4,Win32,60.93845216,,,,,,,,,,,,,,,,,,,,,,,,,,,,,,,,,,,,,,,,,,,0.084259245,0.008333312,1,0,0,hoog,hoog,0,47,47,41,1,hoog,images/br_hoog.png,images/cb_hoog.png
,,,,,,00055,2023-10-11_16h19.35.370,vbt_B2_day1,2022.2.4,Win32,60.93845216,,,,,,,,,,,,,,,,,,,,,,,,,,,,,,,,,,,,,,,,,,,0.067592621,-0.082407422,1,0,0,stuiki.,stuiki.,0,48,48,35,1,stuikem,images/br_stuikem.png,images/cb_stuikem.png
,,,,,,00055,2023-10-11_16h19.35.370,vbt_B2_day1,2022.2.4,Win32,60.93845216,,,,,,,,,,,,,,,,,,,,,,,,,,,,,,,,,,,,,,,,,,,0.067592621,-0.082407422,1,0,0,drer,drer,0,49,49,21,1,dred,images/br_dred.png,images/cb_dred.png
,,,,,,00055,2023-10-11_16h19.35.370,vbt_B2_day1,2022.2.4,Win32,60.93845216,,,,,,,,,,,,,,,,,,,,,,,,,,,,,,,,,,,,,,,,,,,-0.224999958,0.006481489,1,0,0,daar...,daar...,0,50,50,16,1,daarheen,images/br_daarheen.png,images/cb_daarheen.png
,,,,,,00055,2023-10-11_16h19.35.370,vbt_B2_day1,2022.2.4,Win32,60.93845216,,,,,,,,,,,,,,,,,,,,,,,,,,,,,,,,,,,,,,,,,,,-0.214814787,-0.015740748,1,0,0,zui....,zui....,0,51,51,52,1,zuiplap,images/br_zuiplap.png,images/cb_zuiplap.png
,,,,,,00055,2023-10-11_16h19.35.370,vbt_B2_day1,2022.2.4,Win32,60.93845216,,,,,,,,,,,,,,,,,,,,,,,,,,,,,,,,,,,,,,,,,,,0.183333362,-0.002777771,1,0,0,beriep,beriep,0,52,52,28,1,bebrip,images/br_bebrip.png,images/cb_bebrip.png
,,,,,,00055,2023-10-11_16h19.35.370,vbt_B2_day1,2022.2.4,Win32,60.93845216,,,,,,,,,,,,,,,,,,,,,,,,,,,,,,,,,,,,,,,,,,,0.183333362,-0.002777771,1,0,0,klauw,klauw,0,53,53,7,1,klauw,images/br_klauw.png,images/cb_klauw.png
,,,,,,00055,2023-10-11_16h19.35.370,vbt_B2_day1,2022.2.4,Win32,60.93845216,,,,,,,,,,,,,,,,,,,,,,,,,,,,,,,,,,,,,,,,,,,0.520370342,-0.162037037,1,0,0,bleek,bleek,0,54,54,6,1,bleek,images/br_bleek.png,images/cb_bleek.png
,,,,,,00055,2023-10-11_16h19.35.370,vbt_B2_day1,2022.2.4,Win32,60.93845216,,,,,,,,,,,,,,,,,,,,,,,,,,,,,,,,,,,,,,,,,,,0.288888931,-0.150000042,1,0,0,opvatting,opvatting,0,55,55,59,1,opvatten,images/br_opvatten.png,images/cb_opvatten.png
,,,,,,00055,2023-10-11_16h19.35.370,vbt_B2_day1,2022.2.4,Win32,60.93845216,,,,,,,,,,,,,,,,,,,,,,,,,,,,,,,,,,,,,,,,,,,0.059259273,-0.015740748,1,0,0,wi.zi,wi.zi,0,56,56,44,1,wijze,images/br_wijze.png,images/cb_wijze.png
,,,,,,00055,2023-10-11_16h19.35.370,vbt_B2_day1,2022.2.4,Win32,60.93845216,,,,,,,,,,,,,,,,,,,,,,,,,,,,,,,,,,,,,,,,,,,0.589814787,-0.091666681,1,0,0,dooi,dooi,0,57,57,23,1,booi,images/br_booi.png,images/cb_booi.png
,,,,,,00055,2023-10-11_16h19.35.370,vbt_B2_day1,2022.2.4,Win32,60.93845216,,,,,,,,,,,,,,,,,,,,,,,,,,,,,,,,,,,,,,,,,,,0.589814787,-0.091666681,1,0,0,o......,o......,0,58,58,53,1,opslaan,images/br_opslaan.png,images/cb_opslaan.png
,,,,,,00055,2023-10-11_16h19.35.370,vbt_B2_day1,2022.2.4,Win32,60.93845216,,,,,,,,,,,,,,,,,,,,,,,,,,,,,,,,,,,,,,,,,,,0.589814787,-0.091666681,1,0,0,.......,.......,0,59,59,48,1,fictie,images/br_fictie.png,images/cb_fictie.png
,,,,,,00055,2023-10-11_16h19.35.370,vbt_B2_day1,2022.2.4,Win32,60.93845216,,,,,,,,,,,,,,,,,,,,,,,,,,,,,,,,,,,,,,,,,,,,,,,,,,,,,,,,,
