welcome_mouse.x,welcome_mouse.y,welcome_mouse.leftButton,welcome_mouse.midButton,welcome_mouse.rightButton,welcome_mouse.time,"ID",date,expName,psychopyVersion,OS,frameRate,mouse_2.x,mouse_2.y,mouse_2.leftButton,mouse_2.midButton,mouse_2.rightButton,mouse_2.time,mouse_3.x,mouse_3.y,mouse_3.leftButton,mouse_3.midButton,mouse_3.rightButton,mouse_3.time,train_mouse.x,train_mouse.y,train_mouse.leftButton,train_mouse.midButton,train_mouse.rightButton,train_mouse.time,braille_mouse.x,braille_mouse.y,braille_mouse.leftButton,braille_mouse.midButton,braille_mouse.rightButton,braille_mouse.time,trials.thisRepN,trials.thisTrialN,trials.thisN,trials.thisIndex,trials.ran,nlLet,brLet,cbLet,mouse.x,mouse.y,mouse.leftButton,mouse.midButton,mouse.rightButton,testInstr_mouse.x,testInstr_mouse.y,testInstr_mouse.leftButton,testInstr_mouse.midButton,testInstr_mouse.rightButton,test_mouse.x,test_mouse.y,test_mouse.leftButton,test_mouse.midButton,test_mouse.rightButton,test_response.text,testResp,test_loop.thisRepN,test_loop.thisTrialN,test_loop.thisN,test_loop.thisIndex,test_loop.ran,nlWrd,brWrd,cbWrd
-0.152222222,-0.264444444,1,0,0,25.468,00104,2023-11-20_15h44.12.669,vbt_B2_day1,2022.2.4,MacIntel,30.3030303,,,,,,,,,,,,,,,,,,,,,,,,,,,,,,,,,,,,,,,,,,,,,,,,,,,,,,,,,
,,,,,,00104,2023-11-20_15h44.12.669,vbt_B2_day1,2022.2.4,MacIntel,30.3030303,-0.152222222,-0.264444444,1,0,0,8.213,,,,,,,,,,,,,,,,,,,,,,,,,,,,,,,,,,,,,,,,,,,,,,,,,,,
,,,,,,00104,2023-11-20_15h44.12.669,vbt_B2_day1,2022.2.4,MacIntel,30.3030303,,,,,,,-0.152222222,-0.264444444,1,0,0,25.933,,,,,,,,,,,,,,,,,,,,,,,,,,,,,,,,,,,,,,,,,,,,,
,,,,,,00104,2023-11-20_15h44.12.669,vbt_B2_day1,2022.2.4,MacIntel,30.3030303,,,,,,,,,,,,,-0.158888889,-0.257777778,1,0,0,48.564,,,,,,,,,,,,,,,,,,,,,,,,,,,,,,,,,,,,,,,
,,,,,,00104,2023-11-20_15h44.12.669,vbt_B2_day1,2022.2.4,MacIntel,30.3030303,,,,,,,,,,,,,,,,,,,-0.158888889,-0.257777778,1,0,0,4.75,0,0,0,22,1,w,images/br_w.png,images/cb_w.png,,,,,,,,,,,,,,,,,,,,,,,,,
,,,,,,00104,2023-11-20_15h44.12.669,vbt_B2_day1,2022.2.4,MacIntel,30.3030303,,,,,,,,,,,,,,,,,,,-0.158888889,-0.257777778,1,0,0,4.734,0,1,1,24,1,y,images/br_y.png,images/cb_y.png,,,,,,,,,,,,,,,,,,,,,,,,,
,,,,,,00104,2023-11-20_15h44.12.669,vbt_B2_day1,2022.2.4,MacIntel,30.3030303,,,,,,,,,,,,,,,,,,,-0.158888889,-0.257777778,1,0,0,4.184,0,2,2,11,1,l,images/br_l.png,images/cb_l.png,,,,,,,,,,,,,,,,,,,,,,,,,
,,,,,,00104,2023-11-20_15h44.12.669,vbt_B2_day1,2022.2.4,MacIntel,30.3030303,,,,,,,,,,,,,,,,,,,-0.158888889,-0.257777778,1,0,0,3.418,0,3,3,15,1,p,images/br_p.png,images/cb_p.png,,,,,,,,,,,,,,,,,,,,,,,,,
,,,,,,00104,2023-11-20_15h44.12.669,vbt_B2_day1,2022.2.4,MacIntel,30.3030303,,,,,,,,,,,,,,,,,,,-0.158888889,-0.257777778,1,0,0,3.034,0,4,4,7,1,h,images/br_h.png,images/cb_h.png,,,,,,,,,,,,,,,,,,,,,,,,,
,,,,,,00104,2023-11-20_15h44.12.669,vbt_B2_day1,2022.2.4,MacIntel,30.3030303,,,,,,,,,,,,,,,,,,,-0.158888889,-0.257777778,1,0,0,5.15,0,5,5,10,1,k,images/br_k.png,images/cb_k.png,,,,,,,,,,,,,,,,,,,,,,,,,
,,,,,,00104,2023-11-20_15h44.12.669,vbt_B2_day1,2022.2.4,MacIntel,30.3030303,,,,,,,,,,,,,,,,,,,-0.158888889,-0.257777778,1,0,0,3.25,0,6,6,14,1,o,images/br_o.png,images/cb_o.png,,,,,,,,,,,,,,,,,,,,,,,,,
,,,,,,00104,2023-11-20_15h44.12.669,vbt_B2_day1,2022.2.4,MacIntel,30.3030303,,,,,,,,,,,,,,,,,,,-0.158888889,-0.257777778,1,0,0,3.733,0,7,7,5,1,f,images/br_f.png,images/cb_f.png,,,,,,,,,,,,,,,,,,,,,,,,,
,,,,,,00104,2023-11-20_15h44.12.669,vbt_B2_day1,2022.2.4,MacIntel,30.3030303,,,,,,,,,,,,,,,,,,,-0.158888889,-0.257777778,1,0,0,7.568,0,8,8,13,1,n,images/br_n.png,images/cb_n.png,,,,,,,,,,,,,,,,,,,,,,,,,
,,,,,,00104,2023-11-20_15h44.12.669,vbt_B2_day1,2022.2.4,MacIntel,30.3030303,,,,,,,,,,,,,,,,,,,-0.158888889,-0.257777778,1,0,0,4.867,0,9,9,9,1,j,images/br_j.png,images/cb_j.png,,,,,,,,,,,,,,,,,,,,,,,,,
,,,,,,00104,2023-11-20_15h44.12.669,vbt_B2_day1,2022.2.4,MacIntel,30.3030303,,,,,,,,,,,,,,,,,,,-0.158888889,-0.257777778,1,0,0,6.051,0,10,10,21,1,v,images/br_v.png,images/cb_v.png,,,,,,,,,,,,,,,,,,,,,,,,,
,,,,,,00104,2023-11-20_15h44.12.669,vbt_B2_day1,2022.2.4,MacIntel,30.3030303,,,,,,,,,,,,,,,,,,,-0.158888889,-0.257777778,1,0,0,3.083,0,11,11,1,1,b,images/br_b.png,images/cb_b.png,,,,,,,,,,,,,,,,,,,,,,,,,
,,,,,,00104,2023-11-20_15h44.12.669,vbt_B2_day1,2022.2.4,MacIntel,30.3030303,,,,,,,,,,,,,,,,,,,-0.158888889,-0.257777778,1,0,0,9.601,0,12,12,8,1,i,images/br_i.png,images/cb_i.png,,,,,,,,,,,,,,,,,,,,,,,,,
,,,,,,00104,2023-11-20_15h44.12.669,vbt_B2_day1,2022.2.4,MacIntel,30.3030303,,,,,,,,,,,,,,,,,,,-0.158888889,-0.257777778,1,0,0,6.967,0,13,13,19,1,t,images/br_t.png,images/cb_t.png,,,,,,,,,,,,,,,,,,,,,,,,,
,,,,,,00104,2023-11-20_15h44.12.669,vbt_B2_day1,2022.2.4,MacIntel,30.3030303,,,,,,,,,,,,,,,,,,,-0.158888889,-0.257777778,1,0,0,4.1,0,14,14,0,1,a,images/br_a.png,images/cb_a.png,,,,,,,,,,,,,,,,,,,,,,,,,
,,,,,,00104,2023-11-20_15h44.12.669,vbt_B2_day1,2022.2.4,MacIntel,30.3030303,,,,,,,,,,,,,,,,,,,-0.158888889,-0.257777778,1,0,0,6.867,0,15,15,18,1,s,images/br_s.png,images/cb_s.png,,,,,,,,,,,,,,,,,,,,,,,,,
,,,,,,00104,2023-11-20_15h44.12.669,vbt_B2_day1,2022.2.4,MacIntel,30.3030303,,,,,,,,,,,,,,,,,,,-0.158888889,-0.257777778,1,0,0,2.351,0,16,16,23,1,x,images/br_x.png,images/cb_x.png,,,,,,,,,,,,,,,,,,,,,,,,,
,,,,,,00104,2023-11-20_15h44.12.669,vbt_B2_day1,2022.2.4,MacIntel,30.3030303,,,,,,,,,,,,,,,,,,,-0.158888889,-0.257777778,1,0,0,9.685,0,17,17,4,1,e,images/br_e.png,images/cb_e.png,,,,,,,,,,,,,,,,,,,,,,,,,
,,,,,,00104,2023-11-20_15h44.12.669,vbt_B2_day1,2022.2.4,MacIntel,30.3030303,,,,,,,,,,,,,,,,,,,-0.158888889,-0.257777778,1,0,0,9.117,0,18,18,20,1,u,images/br_u.png,images/cb_u.png,,,,,,,,,,,,,,,,,,,,,,,,,
,,,,,,00104,2023-11-20_15h44.12.669,vbt_B2_day1,2022.2.4,MacIntel,30.3030303,,,,,,,,,,,,,,,,,,,-0.158888889,-0.257777778,1,0,0,6.2,0,19,19,25,1,z,images/br_z.png,images/cb_z.png,,,,,,,,,,,,,,,,,,,,,,,,,
,,,,,,00104,2023-11-20_15h44.12.669,vbt_B2_day1,2022.2.4,MacIntel,30.3030303,,,,,,,,,,,,,,,,,,,-0.158888889,-0.257777778,1,0,0,5.066,0,20,20,16,1,q,images/br_q.png,images/cb_q.png,,,,,,,,,,,,,,,,,,,,,,,,,
,,,,,,00104,2023-11-20_15h44.12.669,vbt_B2_day1,2022.2.4,MacIntel,30.3030303,,,,,,,,,,,,,,,,,,,-0.158888889,-0.257777778,1,0,0,5.083,0,21,21,6,1,g,images/br_g.png,images/cb_g.png,,,,,,,,,,,,,,,,,,,,,,,,,
,,,,,,00104,2023-11-20_15h44.12.669,vbt_B2_day1,2022.2.4,MacIntel,30.3030303,,,,,,,,,,,,,,,,,,,-0.158888889,-0.257777778,1,0,0,6.417,0,22,22,3,1,d,images/br_d.png,images/cb_d.png,,,,,,,,,,,,,,,,,,,,,,,,,
,,,,,,00104,2023-11-20_15h44.12.669,vbt_B2_day1,2022.2.4,MacIntel,30.3030303,,,,,,,,,,,,,,,,,,,-0.158888889,-0.257777778,1,0,0,5.3,0,23,23,12,1,m,images/br_m.png,images/cb_m.png,,,,,,,,,,,,,,,,,,,,,,,,,
,,,,,,00104,2023-11-20_15h44.12.669,vbt_B2_day1,2022.2.4,MacIntel,30.3030303,,,,,,,,,,,,,,,,,,,-0.158888889,-0.257777778,1,0,0,6.35,0,24,24,2,1,c,images/br_c.png,images/cb_c.png,,,,,,,,,,,,,,,,,,,,,,,,,
,,,,,,00104,2023-11-20_15h44.12.669,vbt_B2_day1,2022.2.4,MacIntel,30.3030303,,,,,,,,,,,,,,,,,,,-0.158888889,-0.257777778,1,0,0,3.217,0,25,25,17,1,r,images/br_r.png,images/cb_r.png,,,,,,,,,,,,,,,,,,,,,,,,,
,,,,,,00104,2023-11-20_15h44.12.669,vbt_B2_day1,2022.2.4,MacIntel,30.3030303,,,,,,,,,,,,,,,,,,,-0.158888889,-0.257777778,1,0,0,6.884,1,0,26,22,1,w,images/br_w.png,images/cb_w.png,,,,,,,,,,,,,,,,,,,,,,,,,
,,,,,,00104,2023-11-20_15h44.12.669,vbt_B2_day1,2022.2.4,MacIntel,30.3030303,,,,,,,,,,,,,,,,,,,-0.158888889,-0.257777778,1,0,0,2.233,1,1,27,16,1,q,images/br_q.png,images/cb_q.png,,,,,,,,,,,,,,,,,,,,,,,,,
,,,,,,00104,2023-11-20_15h44.12.669,vbt_B2_day1,2022.2.4,MacIntel,30.3030303,,,,,,,,,,,,,,,,,,,-0.158888889,-0.257777778,1,0,0,2.333,1,2,28,8,1,i,images/br_i.png,images/cb_i.png,,,,,,,,,,,,,,,,,,,,,,,,,
,,,,,,00104,2023-11-20_15h44.12.669,vbt_B2_day1,2022.2.4,MacIntel,30.3030303,,,,,,,,,,,,,,,,,,,-0.158888889,-0.257777778,1,0,0,0.8,1,3,29,25,1,z,images/br_z.png,images/cb_z.png,,,,,,,,,,,,,,,,,,,,,,,,,
,,,,,,00104,2023-11-20_15h44.12.669,vbt_B2_day1,2022.2.4,MacIntel,30.3030303,,,,,,,,,,,,,,,,,,,-0.158888889,-0.257777778,1,0,0,2.217,1,4,30,21,1,v,images/br_v.png,images/cb_v.png,,,,,,,,,,,,,,,,,,,,,,,,,
,,,,,,00104,2023-11-20_15h44.12.669,vbt_B2_day1,2022.2.4,MacIntel,30.3030303,,,,,,,,,,,,,,,,,,,-0.158888889,-0.257777778,1,0,0,3.799,1,5,31,2,1,c,images/br_c.png,images/cb_c.png,,,,,,,,,,,,,,,,,,,,,,,,,
,,,,,,00104,2023-11-20_15h44.12.669,vbt_B2_day1,2022.2.4,MacIntel,30.3030303,,,,,,,,,,,,,,,,,,,-0.158888889,-0.257777778,1,0,0,2.051,1,6,32,23,1,x,images/br_x.png,images/cb_x.png,,,,,,,,,,,,,,,,,,,,,,,,,
,,,,,,00104,2023-11-20_15h44.12.669,vbt_B2_day1,2022.2.4,MacIntel,30.3030303,,,,,,,,,,,,,,,,,,,-0.158888889,-0.257777778,1,0,0,3.601,1,7,33,13,1,n,images/br_n.png,images/cb_n.png,,,,,,,,,,,,,,,,,,,,,,,,,
,,,,,,00104,2023-11-20_15h44.12.669,vbt_B2_day1,2022.2.4,MacIntel,30.3030303,,,,,,,,,,,,,,,,,,,-0.158888889,-0.257777778,1,0,0,1.984,1,8,34,4,1,e,images/br_e.png,images/cb_e.png,,,,,,,,,,,,,,,,,,,,,,,,,
,,,,,,00104,2023-11-20_15h44.12.669,vbt_B2_day1,2022.2.4,MacIntel,30.3030303,,,,,,,,,,,,,,,,,,,-0.158888889,-0.257777778,1,0,0,3.867,1,9,35,6,1,g,images/br_g.png,images/cb_g.png,,,,,,,,,,,,,,,,,,,,,,,,,
,,,,,,00104,2023-11-20_15h44.12.669,vbt_B2_day1,2022.2.4,MacIntel,30.3030303,,,,,,,,,,,,,,,,,,,-0.158888889,-0.257777778,1,0,0,7.184,1,10,36,10,1,k,images/br_k.png,images/cb_k.png,,,,,,,,,,,,,,,,,,,,,,,,,
,,,,,,00104,2023-11-20_15h44.12.669,vbt_B2_day1,2022.2.4,MacIntel,30.3030303,,,,,,,,,,,,,,,,,,,-0.158888889,-0.257777778,1,0,0,2,1,11,37,0,1,a,images/br_a.png,images/cb_a.png,,,,,,,,,,,,,,,,,,,,,,,,,
,,,,,,00104,2023-11-20_15h44.12.669,vbt_B2_day1,2022.2.4,MacIntel,30.3030303,,,,,,,,,,,,,,,,,,,-0.158888889,-0.257777778,1,0,0,2.601,1,12,38,24,1,y,images/br_y.png,images/cb_y.png,,,,,,,,,,,,,,,,,,,,,,,,,
,,,,,,00104,2023-11-20_15h44.12.669,vbt_B2_day1,2022.2.4,MacIntel,30.3030303,,,,,,,,,,,,,,,,,,,-0.158888889,-0.257777778,1,0,0,1.683,1,13,39,5,1,f,images/br_f.png,images/cb_f.png,,,,,,,,,,,,,,,,,,,,,,,,,
,,,,,,00104,2023-11-20_15h44.12.669,vbt_B2_day1,2022.2.4,MacIntel,30.3030303,,,,,,,,,,,,,,,,,,,-0.158888889,-0.257777778,1,0,0,2.483,1,14,40,12,1,m,images/br_m.png,images/cb_m.png,,,,,,,,,,,,,,,,,,,,,,,,,
,,,,,,00104,2023-11-20_15h44.12.669,vbt_B2_day1,2022.2.4,MacIntel,30.3030303,,,,,,,,,,,,,,,,,,,-0.158888889,-0.257777778,1,0,0,2.149,1,15,41,9,1,j,images/br_j.png,images/cb_j.png,,,,,,,,,,,,,,,,,,,,,,,,,
,,,,,,00104,2023-11-20_15h44.12.669,vbt_B2_day1,2022.2.4,MacIntel,30.3030303,,,,,,,,,,,,,,,,,,,-0.158888889,-0.257777778,1,0,0,4.218,1,16,42,1,1,b,images/br_b.png,images/cb_b.png,,,,,,,,,,,,,,,,,,,,,,,,,
,,,,,,00104,2023-11-20_15h44.12.669,vbt_B2_day1,2022.2.4,MacIntel,30.3030303,,,,,,,,,,,,,,,,,,,-0.158888889,-0.257777778,1,0,0,27.902,1,17,43,20,1,u,images/br_u.png,images/cb_u.png,,,,,,,,,,,,,,,,,,,,,,,,,
,,,,,,00104,2023-11-20_15h44.12.669,vbt_B2_day1,2022.2.4,MacIntel,30.3030303,,,,,,,,,,,,,,,,,,,-0.158888889,-0.257777778,1,0,0,2,1,18,44,11,1,l,images/br_l.png,images/cb_l.png,,,,,,,,,,,,,,,,,,,,,,,,,
,,,,,,00104,2023-11-20_15h44.12.669,vbt_B2_day1,2022.2.4,MacIntel,30.3030303,,,,,,,,,,,,,,,,,,,-0.158888889,-0.257777778,1,0,0,4.767,1,19,45,7,1,h,images/br_h.png,images/cb_h.png,,,,,,,,,,,,,,,,,,,,,,,,,
,,,,,,00104,2023-11-20_15h44.12.669,vbt_B2_day1,2022.2.4,MacIntel,30.3030303,,,,,,,,,,,,,,,,,,,-0.158888889,-0.257777778,1,0,0,1.867,1,20,46,15,1,p,images/br_p.png,images/cb_p.png,,,,,,,,,,,,,,,,,,,,,,,,,
,,,,,,00104,2023-11-20_15h44.12.669,vbt_B2_day1,2022.2.4,MacIntel,30.3030303,,,,,,,,,,,,,,,,,,,-0.158888889,-0.257777778,1,0,0,10.95,1,21,47,19,1,t,images/br_t.png,images/cb_t.png,,,,,,,,,,,,,,,,,,,,,,,,,
,,,,,,00104,2023-11-20_15h44.12.669,vbt_B2_day1,2022.2.4,MacIntel,30.3030303,,,,,,,,,,,,,,,,,,,-0.158888889,-0.257777778,1,0,0,15.75,1,22,48,18,1,s,images/br_s.png,images/cb_s.png,,,,,,,,,,,,,,,,,,,,,,,,,
,,,,,,00104,2023-11-20_15h44.12.669,vbt_B2_day1,2022.2.4,MacIntel,30.3030303,,,,,,,,,,,,,,,,,,,-0.158888889,-0.257777778,1,0,0,6.101,1,23,49,3,1,d,images/br_d.png,images/cb_d.png,,,,,,,,,,,,,,,,,,,,,,,,,
,,,,,,00104,2023-11-20_15h44.12.669,vbt_B2_day1,2022.2.4,MacIntel,30.3030303,,,,,,,,,,,,,,,,,,,-0.158888889,-0.257777778,1,0,0,5.934,1,24,50,14,1,o,images/br_o.png,images/cb_o.png,,,,,,,,,,,,,,,,,,,,,,,,,
,,,,,,00104,2023-11-20_15h44.12.669,vbt_B2_day1,2022.2.4,MacIntel,30.3030303,,,,,,,,,,,,,,,,,,,-0.158888889,-0.257777778,1,0,0,2.9,1,25,51,17,1,r,images/br_r.png,images/cb_r.png,,,,,,,,,,,,,,,,,,,,,,,,,
,,,,,,00104,2023-11-20_15h44.12.669,vbt_B2_day1,2022.2.4,MacIntel,30.3030303,,,,,,,,,,,,,,,,,,,-0.158888889,-0.257777778,1,0,0,3.317,2,0,52,20,1,u,images/br_u.png,images/cb_u.png,,,,,,,,,,,,,,,,,,,,,,,,,
,,,,,,00104,2023-11-20_15h44.12.669,vbt_B2_day1,2022.2.4,MacIntel,30.3030303,,,,,,,,,,,,,,,,,,,-0.158888889,-0.257777778,1,0,0,7.068,2,1,53,3,1,d,images/br_d.png,images/cb_d.png,,,,,,,,,,,,,,,,,,,,,,,,,
,,,,,,00104,2023-11-20_15h44.12.669,vbt_B2_day1,2022.2.4,MacIntel,30.3030303,,,,,,,,,,,,,,,,,,,-0.158888889,-0.257777778,1,0,0,2.8,2,2,54,16,1,q,images/br_q.png,images/cb_q.png,,,,,,,,,,,,,,,,,,,,,,,,,
,,,,,,00104,2023-11-20_15h44.12.669,vbt_B2_day1,2022.2.4,MacIntel,30.3030303,,,,,,,,,,,,,,,,,,,-0.158888889,-0.257777778,1,0,0,3.55,2,3,55,11,1,l,images/br_l.png,images/cb_l.png,,,,,,,,,,,,,,,,,,,,,,,,,
,,,,,,00104,2023-11-20_15h44.12.669,vbt_B2_day1,2022.2.4,MacIntel,30.3030303,,,,,,,,,,,,,,,,,,,-0.158888889,-0.257777778,1,0,0,4.383,2,4,56,6,1,g,images/br_g.png,images/cb_g.png,,,,,,,,,,,,,,,,,,,,,,,,,
,,,,,,00104,2023-11-20_15h44.12.669,vbt_B2_day1,2022.2.4,MacIntel,30.3030303,,,,,,,,,,,,,,,,,,,-0.158888889,-0.257777778,1,0,0,6.967,2,5,57,18,1,s,images/br_s.png,images/cb_s.png,,,,,,,,,,,,,,,,,,,,,,,,,
,,,,,,00104,2023-11-20_15h44.12.669,vbt_B2_day1,2022.2.4,MacIntel,30.3030303,,,,,,,,,,,,,,,,,,,-0.158888889,-0.257777778,1,0,0,8.634,2,6,58,8,1,i,images/br_i.png,images/cb_i.png,,,,,,,,,,,,,,,,,,,,,,,,,
,,,,,,00104,2023-11-20_15h44.12.669,vbt_B2_day1,2022.2.4,MacIntel,30.3030303,,,,,,,,,,,,,,,,,,,-0.158888889,-0.257777778,1,0,0,5.283,2,7,59,4,1,e,images/br_e.png,images/cb_e.png,,,,,,,,,,,,,,,,,,,,,,,,,
,,,,,,00104,2023-11-20_15h44.12.669,vbt_B2_day1,2022.2.4,MacIntel,30.3030303,,,,,,,,,,,,,,,,,,,-0.158888889,-0.257777778,1,0,0,2.833,2,8,60,12,1,m,images/br_m.png,images/cb_m.png,,,,,,,,,,,,,,,,,,,,,,,,,
,,,,,,00104,2023-11-20_15h44.12.669,vbt_B2_day1,2022.2.4,MacIntel,30.3030303,,,,,,,,,,,,,,,,,,,-0.158888889,-0.257777778,1,0,0,5.483,2,9,61,0,1,a,images/br_a.png,images/cb_a.png,,,,,,,,,,,,,,,,,,,,,,,,,
,,,,,,00104,2023-11-20_15h44.12.669,vbt_B2_day1,2022.2.4,MacIntel,30.3030303,,,,,,,,,,,,,,,,,,,-0.158888889,-0.257777778,1,0,0,0.116,2,10,62,22,1,w,images/br_w.png,images/cb_w.png,,,,,,,,,,,,,,,,,,,,,,,,,
,,,,,,00104,2023-11-20_15h44.12.669,vbt_B2_day1,2022.2.4,MacIntel,30.3030303,,,,,,,,,,,,,,,,,,,-0.158888889,-0.257777778,1,0,0,2.418,2,11,63,24,1,y,images/br_y.png,images/cb_y.png,,,,,,,,,,,,,,,,,,,,,,,,,
,,,,,,00104,2023-11-20_15h44.12.669,vbt_B2_day1,2022.2.4,MacIntel,30.3030303,,,,,,,,,,,,,,,,,,,-0.158888889,-0.257777778,1,0,0,6.167,2,12,64,10,1,k,images/br_k.png,images/cb_k.png,,,,,,,,,,,,,,,,,,,,,,,,,
,,,,,,00104,2023-11-20_15h44.12.669,vbt_B2_day1,2022.2.4,MacIntel,30.3030303,,,,,,,,,,,,,,,,,,,-0.158888889,-0.257777778,1,0,0,2.467,2,13,65,2,1,c,images/br_c.png,images/cb_c.png,,,,,,,,,,,,,,,,,,,,,,,,,
,,,,,,00104,2023-11-20_15h44.12.669,vbt_B2_day1,2022.2.4,MacIntel,30.3030303,,,,,,,,,,,,,,,,,,,-0.158888889,-0.257777778,1,0,0,8.8,2,14,66,5,1,f,images/br_f.png,images/cb_f.png,,,,,,,,,,,,,,,,,,,,,,,,,
,,,,,,00104,2023-11-20_15h44.12.669,vbt_B2_day1,2022.2.4,MacIntel,30.3030303,,,,,,,,,,,,,,,,,,,-0.158888889,-0.257777778,1,0,0,5.349,2,15,67,1,1,b,images/br_b.png,images/cb_b.png,,,,,,,,,,,,,,,,,,,,,,,,,
,,,,,,00104,2023-11-20_15h44.12.669,vbt_B2_day1,2022.2.4,MacIntel,30.3030303,,,,,,,,,,,,,,,,,,,-0.158888889,-0.257777778,1,0,0,0.616,2,16,68,21,1,v,images/br_v.png,images/cb_v.png,,,,,,,,,,,,,,,,,,,,,,,,,
,,,,,,00104,2023-11-20_15h44.12.669,vbt_B2_day1,2022.2.4,MacIntel,30.3030303,,,,,,,,,,,,,,,,,,,-0.158888889,-0.257777778,1,0,0,6.951,2,17,69,13,1,n,images/br_n.png,images/cb_n.png,,,,,,,,,,,,,,,,,,,,,,,,,
,,,,,,00104,2023-11-20_15h44.12.669,vbt_B2_day1,2022.2.4,MacIntel,30.3030303,,,,,,,,,,,,,,,,,,,-0.158888889,-0.257777778,1,0,0,6.95,2,18,70,25,1,z,images/br_z.png,images/cb_z.png,,,,,,,,,,,,,,,,,,,,,,,,,
,,,,,,00104,2023-11-20_15h44.12.669,vbt_B2_day1,2022.2.4,MacIntel,30.3030303,,,,,,,,,,,,,,,,,,,-0.158888889,-0.257777778,1,0,0,7.067,2,19,71,7,1,h,images/br_h.png,images/cb_h.png,,,,,,,,,,,,,,,,,,,,,,,,,
,,,,,,00104,2023-11-20_15h44.12.669,vbt_B2_day1,2022.2.4,MacIntel,30.3030303,,,,,,,,,,,,,,,,,,,-0.158888889,-0.257777778,1,0,0,5.999,2,20,72,17,1,r,images/br_r.png,images/cb_r.png,,,,,,,,,,,,,,,,,,,,,,,,,
,,,,,,00104,2023-11-20_15h44.12.669,vbt_B2_day1,2022.2.4,MacIntel,30.3030303,,,,,,,,,,,,,,,,,,,-0.158888889,-0.257777778,1,0,0,3.283,2,21,73,9,1,j,images/br_j.png,images/cb_j.png,,,,,,,,,,,,,,,,,,,,,,,,,
,,,,,,00104,2023-11-20_15h44.12.669,vbt_B2_day1,2022.2.4,MacIntel,30.3030303,,,,,,,,,,,,,,,,,,,-0.158888889,-0.257777778,1,0,0,1.817,2,22,74,23,1,x,images/br_x.png,images/cb_x.png,,,,,,,,,,,,,,,,,,,,,,,,,
,,,,,,00104,2023-11-20_15h44.12.669,vbt_B2_day1,2022.2.4,MacIntel,30.3030303,,,,,,,,,,,,,,,,,,,-0.158888889,-0.257777778,1,0,0,0.599,2,23,75,19,1,t,images/br_t.png,images/cb_t.png,,,,,,,,,,,,,,,,,,,,,,,,,
,,,,,,00104,2023-11-20_15h44.12.669,vbt_B2_day1,2022.2.4,MacIntel,30.3030303,,,,,,,,,,,,,,,,,,,-0.158888889,-0.257777778,1,0,0,2.749,2,24,76,15,1,p,images/br_p.png,images/cb_p.png,,,,,,,,,,,,,,,,,,,,,,,,,
,,,,,,00104,2023-11-20_15h44.12.669,vbt_B2_day1,2022.2.4,MacIntel,30.3030303,,,,,,,,,,,,,,,,,,,-0.158888889,-0.257777778,1,0,0,2.034,2,25,77,14,1,o,images/br_o.png,images/cb_o.png,,,,,,,,,,,,,,,,,,,,,,,,,
,,,,,,00104,2023-11-20_15h44.12.669,vbt_B2_day1,2022.2.4,MacIntel,30.3030303,,,,,,,,,,,,,,,,,,,-0.158888889,-0.257777778,1,0,0,4.017,3,0,78,17,1,r,images/br_r.png,images/cb_r.png,,,,,,,,,,,,,,,,,,,,,,,,,
,,,,,,00104,2023-11-20_15h44.12.669,vbt_B2_day1,2022.2.4,MacIntel,30.3030303,,,,,,,,,,,,,,,,,,,-0.158888889,-0.257777778,1,0,0,6.567,3,1,79,7,1,h,images/br_h.png,images/cb_h.png,,,,,,,,,,,,,,,,,,,,,,,,,
,,,,,,00104,2023-11-20_15h44.12.669,vbt_B2_day1,2022.2.4,MacIntel,30.3030303,,,,,,,,,,,,,,,,,,,-0.158888889,-0.257777778,1,0,0,1.3,3,2,80,11,1,l,images/br_l.png,images/cb_l.png,,,,,,,,,,,,,,,,,,,,,,,,,
,,,,,,00104,2023-11-20_15h44.12.669,vbt_B2_day1,2022.2.4,MacIntel,30.3030303,,,,,,,,,,,,,,,,,,,-0.158888889,-0.257777778,1,0,0,0.75,3,3,81,3,1,d,images/br_d.png,images/cb_d.png,,,,,,,,,,,,,,,,,,,,,,,,,
,,,,,,00104,2023-11-20_15h44.12.669,vbt_B2_day1,2022.2.4,MacIntel,30.3030303,,,,,,,,,,,,,,,,,,,-0.158888889,-0.257777778,1,0,0,1.817,3,4,82,25,1,z,images/br_z.png,images/cb_z.png,,,,,,,,,,,,,,,,,,,,,,,,,
,,,,,,00104,2023-11-20_15h44.12.669,vbt_B2_day1,2022.2.4,MacIntel,30.3030303,,,,,,,,,,,,,,,,,,,-0.158888889,-0.257777778,1,0,0,1.134,3,5,83,18,1,s,images/br_s.png,images/cb_s.png,,,,,,,,,,,,,,,,,,,,,,,,,
,,,,,,00104,2023-11-20_15h44.12.669,vbt_B2_day1,2022.2.4,MacIntel,30.3030303,,,,,,,,,,,,,,,,,,,-0.158888889,-0.257777778,1,0,0,7.484,3,6,84,9,1,j,images/br_j.png,images/cb_j.png,,,,,,,,,,,,,,,,,,,,,,,,,
,,,,,,00104,2023-11-20_15h44.12.669,vbt_B2_day1,2022.2.4,MacIntel,30.3030303,,,,,,,,,,,,,,,,,,,-0.158888889,-0.257777778,1,0,0,1.466,3,7,85,16,1,q,images/br_q.png,images/cb_q.png,,,,,,,,,,,,,,,,,,,,,,,,,
,,,,,,00104,2023-11-20_15h44.12.669,vbt_B2_day1,2022.2.4,MacIntel,30.3030303,,,,,,,,,,,,,,,,,,,-0.158888889,-0.257777778,1,0,0,0.432,3,8,86,23,1,x,images/br_x.png,images/cb_x.png,,,,,,,,,,,,,,,,,,,,,,,,,
,,,,,,00104,2023-11-20_15h44.12.669,vbt_B2_day1,2022.2.4,MacIntel,30.3030303,,,,,,,,,,,,,,,,,,,-0.158888889,-0.257777778,1,0,0,4.85,3,9,87,12,1,m,images/br_m.png,images/cb_m.png,,,,,,,,,,,,,,,,,,,,,,,,,
,,,,,,00104,2023-11-20_15h44.12.669,vbt_B2_day1,2022.2.4,MacIntel,30.3030303,,,,,,,,,,,,,,,,,,,-0.158888889,-0.257777778,1,0,0,0.434,3,10,88,14,1,o,images/br_o.png,images/cb_o.png,,,,,,,,,,,,,,,,,,,,,,,,,
,,,,,,00104,2023-11-20_15h44.12.669,vbt_B2_day1,2022.2.4,MacIntel,30.3030303,,,,,,,,,,,,,,,,,,,-0.158888889,-0.257777778,1,0,0,3.934,3,11,89,10,1,k,images/br_k.png,images/cb_k.png,,,,,,,,,,,,,,,,,,,,,,,,,
,,,,,,00104,2023-11-20_15h44.12.669,vbt_B2_day1,2022.2.4,MacIntel,30.3030303,,,,,,,,,,,,,,,,,,,-0.158888889,-0.257777778,1,0,0,1.634,3,12,90,6,1,g,images/br_g.png,images/cb_g.png,,,,,,,,,,,,,,,,,,,,,,,,,
,,,,,,00104,2023-11-20_15h44.12.669,vbt_B2_day1,2022.2.4,MacIntel,30.3030303,,,,,,,,,,,,,,,,,,,-0.158888889,-0.257777778,1,0,0,0.434,3,13,91,13,1,n,images/br_n.png,images/cb_n.png,,,,,,,,,,,,,,,,,,,,,,,,,
,,,,,,00104,2023-11-20_15h44.12.669,vbt_B2_day1,2022.2.4,MacIntel,30.3030303,,,,,,,,,,,,,,,,,,,-0.158888889,-0.257777778,1,0,0,1.434,3,14,92,19,1,t,images/br_t.png,images/cb_t.png,,,,,,,,,,,,,,,,,,,,,,,,,
,,,,,,00104,2023-11-20_15h44.12.669,vbt_B2_day1,2022.2.4,MacIntel,30.3030303,,,,,,,,,,,,,,,,,,,-0.158888889,-0.257777778,1,0,0,6.317,3,15,93,24,1,y,images/br_y.png,images/cb_y.png,,,,,,,,,,,,,,,,,,,,,,,,,
,,,,,,00104,2023-11-20_15h44.12.669,vbt_B2_day1,2022.2.4,MacIntel,30.3030303,,,,,,,,,,,,,,,,,,,-0.158888889,-0.257777778,1,0,0,25.418,3,16,94,21,1,v,images/br_v.png,images/cb_v.png,,,,,,,,,,,,,,,,,,,,,,,,,
,,,,,,00104,2023-11-20_15h44.12.669,vbt_B2_day1,2022.2.4,MacIntel,30.3030303,,,,,,,,,,,,,,,,,,,-0.158888889,-0.257777778,1,0,0,0.683,3,17,95,2,1,c,images/br_c.png,images/cb_c.png,,,,,,,,,,,,,,,,,,,,,,,,,
,,,,,,00104,2023-11-20_15h44.12.669,vbt_B2_day1,2022.2.4,MacIntel,30.3030303,,,,,,,,,,,,,,,,,,,-0.158888889,-0.257777778,1,0,0,0.767,3,18,96,5,1,f,images/br_f.png,images/cb_f.png,,,,,,,,,,,,,,,,,,,,,,,,,
,,,,,,00104,2023-11-20_15h44.12.669,vbt_B2_day1,2022.2.4,MacIntel,30.3030303,,,,,,,,,,,,,,,,,,,-0.158888889,-0.257777778,1,0,0,1.85,3,19,97,4,1,e,images/br_e.png,images/cb_e.png,,,,,,,,,,,,,,,,,,,,,,,,,
,,,,,,00104,2023-11-20_15h44.12.669,vbt_B2_day1,2022.2.4,MacIntel,30.3030303,,,,,,,,,,,,,,,,,,,-0.158888889,-0.257777778,1,0,0,3.5,3,20,98,1,1,b,images/br_b.png,images/cb_b.png,,,,,,,,,,,,,,,,,,,,,,,,,
,,,,,,00104,2023-11-20_15h44.12.669,vbt_B2_day1,2022.2.4,MacIntel,30.3030303,,,,,,,,,,,,,,,,,,,-0.158888889,-0.257777778,1,0,0,1.516,3,21,99,22,1,w,images/br_w.png,images/cb_w.png,,,,,,,,,,,,,,,,,,,,,,,,,
,,,,,,00104,2023-11-20_15h44.12.669,vbt_B2_day1,2022.2.4,MacIntel,30.3030303,,,,,,,,,,,,,,,,,,,-0.158888889,-0.257777778,1,0,0,0.833,3,22,100,15,1,p,images/br_p.png,images/cb_p.png,,,,,,,,,,,,,,,,,,,,,,,,,
,,,,,,00104,2023-11-20_15h44.12.669,vbt_B2_day1,2022.2.4,MacIntel,30.3030303,,,,,,,,,,,,,,,,,,,-0.158888889,-0.257777778,1,0,0,8.017,3,23,101,0,1,a,images/br_a.png,images/cb_a.png,,,,,,,,,,,,,,,,,,,,,,,,,
,,,,,,00104,2023-11-20_15h44.12.669,vbt_B2_day1,2022.2.4,MacIntel,30.3030303,,,,,,,,,,,,,,,,,,,-0.158888889,-0.257777778,1,0,0,1.667,3,24,102,8,1,i,images/br_i.png,images/cb_i.png,,,,,,,,,,,,,,,,,,,,,,,,,
,,,,,,00104,2023-11-20_15h44.12.669,vbt_B2_day1,2022.2.4,MacIntel,30.3030303,,,,,,,,,,,,,,,,,,,-0.158888889,-0.257777778,1,0,0,4.935,3,25,103,20,1,u,images/br_u.png,images/cb_u.png,,,,,,,,,,,,,,,,,,,,,,,,,
,,,,,,00104,2023-11-20_15h44.12.669,vbt_B2_day1,2022.2.4,MacIntel,30.3030303,,,,,,,,,,,,,,,,,,,-0.158888889,-0.257777778,1,0,0,1.284,4,0,104,8,1,i,images/br_i.png,images/cb_i.png,,,,,,,,,,,,,,,,,,,,,,,,,
,,,,,,00104,2023-11-20_15h44.12.669,vbt_B2_day1,2022.2.4,MacIntel,30.3030303,,,,,,,,,,,,,,,,,,,-0.158888889,-0.257777778,1,0,0,1.966,4,1,105,19,1,t,images/br_t.png,images/cb_t.png,,,,,,,,,,,,,,,,,,,,,,,,,
,,,,,,00104,2023-11-20_15h44.12.669,vbt_B2_day1,2022.2.4,MacIntel,30.3030303,,,,,,,,,,,,,,,,,,,-0.176666667,-0.327777778,1,0,0,11.817,4,2,106,21,1,v,images/br_v.png,images/cb_v.png,,,,,,,,,,,,,,,,,,,,,,,,,
,,,,,,00104,2023-11-20_15h44.12.669,vbt_B2_day1,2022.2.4,MacIntel,30.3030303,,,,,,,,,,,,,,,,,,,-0.167777778,-0.322222222,1,0,0,0.067,4,3,107,20,1,u,images/br_u.png,images/cb_u.png,,,,,,,,,,,,,,,,,,,,,,,,,
,,,,,,00104,2023-11-20_15h44.12.669,vbt_B2_day1,2022.2.4,MacIntel,30.3030303,,,,,,,,,,,,,,,,,,,-0.167777778,-0.322222222,1,0,0,2.417,4,4,108,0,1,a,images/br_a.png,images/cb_a.png,,,,,,,,,,,,,,,,,,,,,,,,,
,,,,,,00104,2023-11-20_15h44.12.669,vbt_B2_day1,2022.2.4,MacIntel,30.3030303,,,,,,,,,,,,,,,,,,,-0.167777778,-0.322222222,1,0,0,0.6,4,5,109,6,1,g,images/br_g.png,images/cb_g.png,,,,,,,,,,,,,,,,,,,,,,,,,
,,,,,,00104,2023-11-20_15h44.12.669,vbt_B2_day1,2022.2.4,MacIntel,30.3030303,,,,,,,,,,,,,,,,,,,-0.167777778,-0.322222222,1,0,0,2.85,4,6,110,10,1,k,images/br_k.png,images/cb_k.png,,,,,,,,,,,,,,,,,,,,,,,,,
,,,,,,00104,2023-11-20_15h44.12.669,vbt_B2_day1,2022.2.4,MacIntel,30.3030303,,,,,,,,,,,,,,,,,,,-0.167777778,-0.322222222,1,0,0,4.766,4,7,111,5,1,f,images/br_f.png,images/cb_f.png,,,,,,,,,,,,,,,,,,,,,,,,,
,,,,,,00104,2023-11-20_15h44.12.669,vbt_B2_day1,2022.2.4,MacIntel,30.3030303,,,,,,,,,,,,,,,,,,,-0.167777778,-0.322222222,1,0,0,3.467,4,8,112,13,1,n,images/br_n.png,images/cb_n.png,,,,,,,,,,,,,,,,,,,,,,,,,
,,,,,,00104,2023-11-20_15h44.12.669,vbt_B2_day1,2022.2.4,MacIntel,30.3030303,,,,,,,,,,,,,,,,,,,-0.167777778,-0.322222222,1,0,0,3.585,4,9,113,15,1,p,images/br_p.png,images/cb_p.png,,,,,,,,,,,,,,,,,,,,,,,,,
,,,,,,00104,2023-11-20_15h44.12.669,vbt_B2_day1,2022.2.4,MacIntel,30.3030303,,,,,,,,,,,,,,,,,,,-0.17,-0.322222222,1,0,0,1.866,4,10,114,23,1,x,images/br_x.png,images/cb_x.png,,,,,,,,,,,,,,,,,,,,,,,,,
,,,,,,00104,2023-11-20_15h44.12.669,vbt_B2_day1,2022.2.4,MacIntel,30.3030303,,,,,,,,,,,,,,,,,,,-0.171111111,-0.322222222,1,0,0,1.683,4,11,115,3,1,d,images/br_d.png,images/cb_d.png,,,,,,,,,,,,,,,,,,,,,,,,,
,,,,,,00104,2023-11-20_15h44.12.669,vbt_B2_day1,2022.2.4,MacIntel,30.3030303,,,,,,,,,,,,,,,,,,,-0.172222222,-0.322222222,1,0,0,0.268,4,12,116,16,1,q,images/br_q.png,images/cb_q.png,,,,,,,,,,,,,,,,,,,,,,,,,
,,,,,,00104,2023-11-20_15h44.12.669,vbt_B2_day1,2022.2.4,MacIntel,30.3030303,,,,,,,,,,,,,,,,,,,-0.172222222,-0.322222222,1,0,0,1.783,4,13,117,7,1,h,images/br_h.png,images/cb_h.png,,,,,,,,,,,,,,,,,,,,,,,,,
,,,,,,00104,2023-11-20_15h44.12.669,vbt_B2_day1,2022.2.4,MacIntel,30.3030303,,,,,,,,,,,,,,,,,,,-0.172222222,-0.321111111,1,0,0,1.034,4,14,118,1,1,b,images/br_b.png,images/cb_b.png,,,,,,,,,,,,,,,,,,,,,,,,,
,,,,,,00104,2023-11-20_15h44.12.669,vbt_B2_day1,2022.2.4,MacIntel,30.3030303,,,,,,,,,,,,,,,,,,,-0.173333333,-0.321111111,1,0,0,2.35,4,15,119,9,1,j,images/br_j.png,images/cb_j.png,,,,,,,,,,,,,,,,,,,,,,,,,
,,,,,,00104,2023-11-20_15h44.12.669,vbt_B2_day1,2022.2.4,MacIntel,30.3030303,,,,,,,,,,,,,,,,,,,-0.173333333,-0.321111111,1,0,0,1.017,4,16,120,14,1,o,images/br_o.png,images/cb_o.png,,,,,,,,,,,,,,,,,,,,,,,,,
,,,,,,00104,2023-11-20_15h44.12.669,vbt_B2_day1,2022.2.4,MacIntel,30.3030303,,,,,,,,,,,,,,,,,,,-0.174444444,-0.32,1,0,0,4.5,4,17,121,24,1,y,images/br_y.png,images/cb_y.png,,,,,,,,,,,,,,,,,,,,,,,,,
,,,,,,00104,2023-11-20_15h44.12.669,vbt_B2_day1,2022.2.4,MacIntel,30.3030303,,,,,,,,,,,,,,,,,,,-0.174444444,-0.32,1,0,0,0.783,4,18,122,18,1,s,images/br_s.png,images/cb_s.png,,,,,,,,,,,,,,,,,,,,,,,,,
,,,,,,00104,2023-11-20_15h44.12.669,vbt_B2_day1,2022.2.4,MacIntel,30.3030303,,,,,,,,,,,,,,,,,,,-0.174444444,-0.32,1,0,0,2.666,4,19,123,11,1,l,images/br_l.png,images/cb_l.png,,,,,,,,,,,,,,,,,,,,,,,,,
,,,,,,00104,2023-11-20_15h44.12.669,vbt_B2_day1,2022.2.4,MacIntel,30.3030303,,,,,,,,,,,,,,,,,,,-0.174444444,-0.32,1,0,0,1.467,4,20,124,4,1,e,images/br_e.png,images/cb_e.png,,,,,,,,,,,,,,,,,,,,,,,,,
,,,,,,00104,2023-11-20_15h44.12.669,vbt_B2_day1,2022.2.4,MacIntel,30.3030303,,,,,,,,,,,,,,,,,,,-0.175555556,-0.322222222,1,0,0,2.484,4,21,125,2,1,c,images/br_c.png,images/cb_c.png,,,,,,,,,,,,,,,,,,,,,,,,,
,,,,,,00104,2023-11-20_15h44.12.669,vbt_B2_day1,2022.2.4,MacIntel,30.3030303,,,,,,,,,,,,,,,,,,,-0.175555556,-0.322222222,1,0,0,1.967,4,22,126,25,1,z,images/br_z.png,images/cb_z.png,,,,,,,,,,,,,,,,,,,,,,,,,
,,,,,,00104,2023-11-20_15h44.12.669,vbt_B2_day1,2022.2.4,MacIntel,30.3030303,,,,,,,,,,,,,,,,,,,-0.175555556,-0.322222222,1,0,0,2.383,4,23,127,12,1,m,images/br_m.png,images/cb_m.png,,,,,,,,,,,,,,,,,,,,,,,,,
,,,,,,00104,2023-11-20_15h44.12.669,vbt_B2_day1,2022.2.4,MacIntel,30.3030303,,,,,,,,,,,,,,,,,,,-0.175555556,-0.322222222,1,0,0,5.234,4,24,128,22,1,w,images/br_w.png,images/cb_w.png,,,,,,,,,,,,,,,,,,,,,,,,,
,,,,,,00104,2023-11-20_15h44.12.669,vbt_B2_day1,2022.2.4,MacIntel,30.3030303,,,,,,,,,,,,,,,,,,,-0.175555556,-0.322222222,1,0,0,5.216,4,25,129,17,1,r,images/br_r.png,images/cb_r.png,,,,,,,,,,,,,,,,,,,,,,,,,
,,,,,,00104,2023-11-20_15h44.12.669,vbt_B2_day1,2022.2.4,MacIntel,30.3030303,,,,,,,,,,,,,,,,,,,-0.175555556,-0.322222222,1,0,0,4.068,5,0,130,11,1,l,images/br_l.png,images/cb_l.png,,,,,,,,,,,,,,,,,,,,,,,,,
,,,,,,00104,2023-11-20_15h44.12.669,vbt_B2_day1,2022.2.4,MacIntel,30.3030303,,,,,,,,,,,,,,,,,,,-0.175555556,-0.322222222,1,0,0,6.234,5,1,131,20,1,u,images/br_u.png,images/cb_u.png,,,,,,,,,,,,,,,,,,,,,,,,,
,,,,,,00104,2023-11-20_15h44.12.669,vbt_B2_day1,2022.2.4,MacIntel,30.3030303,,,,,,,,,,,,,,,,,,,-0.175555556,-0.322222222,1,0,0,3.649,5,2,132,8,1,i,images/br_i.png,images/cb_i.png,,,,,,,,,,,,,,,,,,,,,,,,,
,,,,,,00104,2023-11-20_15h44.12.669,vbt_B2_day1,2022.2.4,MacIntel,30.3030303,,,,,,,,,,,,,,,,,,,-0.175555556,-0.322222222,1,0,0,1.067,5,3,133,5,1,f,images/br_f.png,images/cb_f.png,,,,,,,,,,,,,,,,,,,,,,,,,
,,,,,,00104,2023-11-20_15h44.12.669,vbt_B2_day1,2022.2.4,MacIntel,30.3030303,,,,,,,,,,,,,,,,,,,-0.175555556,-0.322222222,1,0,0,0.133,5,4,134,3,1,d,images/br_d.png,images/cb_d.png,,,,,,,,,,,,,,,,,,,,,,,,,
,,,,,,00104,2023-11-20_15h44.12.669,vbt_B2_day1,2022.2.4,MacIntel,30.3030303,,,,,,,,,,,,,,,,,,,-0.175555556,-0.322222222,1,0,0,3.065,5,5,135,21,1,v,images/br_v.png,images/cb_v.png,,,,,,,,,,,,,,,,,,,,,,,,,
,,,,,,00104,2023-11-20_15h44.12.669,vbt_B2_day1,2022.2.4,MacIntel,30.3030303,,,,,,,,,,,,,,,,,,,-0.175555556,-0.322222222,1,0,0,0.65,5,6,136,1,1,b,images/br_b.png,images/cb_b.png,,,,,,,,,,,,,,,,,,,,,,,,,
,,,,,,00104,2023-11-20_15h44.12.669,vbt_B2_day1,2022.2.4,MacIntel,30.3030303,,,,,,,,,,,,,,,,,,,-0.175555556,-0.322222222,1,0,0,2.717,5,7,137,15,1,p,images/br_p.png,images/cb_p.png,,,,,,,,,,,,,,,,,,,,,,,,,
,,,,,,00104,2023-11-20_15h44.12.669,vbt_B2_day1,2022.2.4,MacIntel,30.3030303,,,,,,,,,,,,,,,,,,,-0.175555556,-0.322222222,1,0,0,5.267,5,8,138,25,1,z,images/br_z.png,images/cb_z.png,,,,,,,,,,,,,,,,,,,,,,,,,
,,,,,,00104,2023-11-20_15h44.12.669,vbt_B2_day1,2022.2.4,MacIntel,30.3030303,,,,,,,,,,,,,,,,,,,-0.175555556,-0.322222222,1,0,0,8.818,5,9,139,0,1,a,images/br_a.png,images/cb_a.png,,,,,,,,,,,,,,,,,,,,,,,,,
,,,,,,00104,2023-11-20_15h44.12.669,vbt_B2_day1,2022.2.4,MacIntel,30.3030303,,,,,,,,,,,,,,,,,,,-0.175555556,-0.322222222,1,0,0,0.783,5,10,140,24,1,y,images/br_y.png,images/cb_y.png,,,,,,,,,,,,,,,,,,,,,,,,,
,,,,,,00104,2023-11-20_15h44.12.669,vbt_B2_day1,2022.2.4,MacIntel,30.3030303,,,,,,,,,,,,,,,,,,,-0.175555556,-0.322222222,1,0,0,0.266,5,11,141,16,1,q,images/br_q.png,images/cb_q.png,,,,,,,,,,,,,,,,,,,,,,,,,
,,,,,,00104,2023-11-20_15h44.12.669,vbt_B2_day1,2022.2.4,MacIntel,30.3030303,,,,,,,,,,,,,,,,,,,-0.175555556,-0.322222222,1,0,0,1.75,5,12,142,22,1,w,images/br_w.png,images/cb_w.png,,,,,,,,,,,,,,,,,,,,,,,,,
,,,,,,00104,2023-11-20_15h44.12.669,vbt_B2_day1,2022.2.4,MacIntel,30.3030303,,,,,,,,,,,,,,,,,,,-0.175555556,-0.322222222,1,0,0,1.567,5,13,143,17,1,r,images/br_r.png,images/cb_r.png,,,,,,,,,,,,,,,,,,,,,,,,,
,,,,,,00104,2023-11-20_15h44.12.669,vbt_B2_day1,2022.2.4,MacIntel,30.3030303,,,,,,,,,,,,,,,,,,,-0.175555556,-0.322222222,1,0,0,6.016,5,14,144,23,1,x,images/br_x.png,images/cb_x.png,,,,,,,,,,,,,,,,,,,,,,,,,
,,,,,,00104,2023-11-20_15h44.12.669,vbt_B2_day1,2022.2.4,MacIntel,30.3030303,,,,,,,,,,,,,,,,,,,-0.175555556,-0.322222222,1,0,0,0.483,5,15,145,14,1,o,images/br_o.png,images/cb_o.png,,,,,,,,,,,,,,,,,,,,,,,,,
,,,,,,00104,2023-11-20_15h44.12.669,vbt_B2_day1,2022.2.4,MacIntel,30.3030303,,,,,,,,,,,,,,,,,,,-0.175555556,-0.322222222,1,0,0,0.4,5,16,146,13,1,n,images/br_n.png,images/cb_n.png,,,,,,,,,,,,,,,,,,,,,,,,,
,,,,,,00104,2023-11-20_15h44.12.669,vbt_B2_day1,2022.2.4,MacIntel,30.3030303,,,,,,,,,,,,,,,,,,,-0.175555556,-0.322222222,1,0,0,7.967,5,17,147,7,1,h,images/br_h.png,images/cb_h.png,,,,,,,,,,,,,,,,,,,,,,,,,
,,,,,,00104,2023-11-20_15h44.12.669,vbt_B2_day1,2022.2.4,MacIntel,30.3030303,,,,,,,,,,,,,,,,,,,-0.175555556,-0.322222222,1,0,0,2.867,5,18,148,4,1,e,images/br_e.png,images/cb_e.png,,,,,,,,,,,,,,,,,,,,,,,,,
,,,,,,00104,2023-11-20_15h44.12.669,vbt_B2_day1,2022.2.4,MacIntel,30.3030303,,,,,,,,,,,,,,,,,,,-0.175555556,-0.322222222,1,0,0,12.633,5,19,149,12,1,m,images/br_m.png,images/cb_m.png,,,,,,,,,,,,,,,,,,,,,,,,,
,,,,,,00104,2023-11-20_15h44.12.669,vbt_B2_day1,2022.2.4,MacIntel,30.3030303,,,,,,,,,,,,,,,,,,,-0.175555556,-0.322222222,1,0,0,7.2,5,20,150,10,1,k,images/br_k.png,images/cb_k.png,,,,,,,,,,,,,,,,,,,,,,,,,
,,,,,,00104,2023-11-20_15h44.12.669,vbt_B2_day1,2022.2.4,MacIntel,30.3030303,,,,,,,,,,,,,,,,,,,-0.175555556,-0.322222222,1,0,0,5.549,5,21,151,6,1,g,images/br_g.png,images/cb_g.png,,,,,,,,,,,,,,,,,,,,,,,,,
,,,,,,00104,2023-11-20_15h44.12.669,vbt_B2_day1,2022.2.4,MacIntel,30.3030303,,,,,,,,,,,,,,,,,,,-0.175555556,-0.322222222,1,0,0,0.351,5,22,152,19,1,t,images/br_t.png,images/cb_t.png,,,,,,,,,,,,,,,,,,,,,,,,,
,,,,,,00104,2023-11-20_15h44.12.669,vbt_B2_day1,2022.2.4,MacIntel,30.3030303,,,,,,,,,,,,,,,,,,,-0.175555556,-0.322222222,1,0,0,7.333,5,23,153,9,1,j,images/br_j.png,images/cb_j.png,,,,,,,,,,,,,,,,,,,,,,,,,
,,,,,,00104,2023-11-20_15h44.12.669,vbt_B2_day1,2022.2.4,MacIntel,30.3030303,,,,,,,,,,,,,,,,,,,-0.175555556,-0.322222222,1,0,0,1.383,5,24,154,2,1,c,images/br_c.png,images/cb_c.png,,,,,,,,,,,,,,,,,,,,,,,,,
,,,,,,00104,2023-11-20_15h44.12.669,vbt_B2_day1,2022.2.4,MacIntel,30.3030303,,,,,,,,,,,,,,,,,,,-0.175555556,-0.322222222,1,0,0,1.499,5,25,155,18,1,s,images/br_s.png,images/cb_s.png,,,,,,,,,,,,,,,,,,,,,,,,,
,,,,,,00104,2023-11-20_15h44.12.669,vbt_B2_day1,2022.2.4,MacIntel,30.3030303,,,,,,,,,,,,,,,,,,,-0.175555556,-0.322222222,1,0,0,0.9,6,0,156,24,1,y,images/br_y.png,images/cb_y.png,,,,,,,,,,,,,,,,,,,,,,,,,
,,,,,,00104,2023-11-20_15h44.12.669,vbt_B2_day1,2022.2.4,MacIntel,30.3030303,,,,,,,,,,,,,,,,,,,-0.175555556,-0.322222222,1,0,0,0.15,6,1,157,9,1,j,images/br_j.png,images/cb_j.png,,,,,,,,,,,,,,,,,,,,,,,,,
,,,,,,00104,2023-11-20_15h44.12.669,vbt_B2_day1,2022.2.4,MacIntel,30.3030303,,,,,,,,,,,,,,,,,,,-0.175555556,-0.322222222,1,0,0,5.834,6,2,158,12,1,m,images/br_m.png,images/cb_m.png,,,,,,,,,,,,,,,,,,,,,,,,,
,,,,,,00104,2023-11-20_15h44.12.669,vbt_B2_day1,2022.2.4,MacIntel,30.3030303,,,,,,,,,,,,,,,,,,,-0.175555556,-0.322222222,1,0,0,15.934,6,3,159,23,1,x,images/br_x.png,images/cb_x.png,,,,,,,,,,,,,,,,,,,,,,,,,
,,,,,,00104,2023-11-20_15h44.12.669,vbt_B2_day1,2022.2.4,MacIntel,30.3030303,,,,,,,,,,,,,,,,,,,-0.175555556,-0.322222222,1,0,0,2.534,6,4,160,19,1,t,images/br_t.png,images/cb_t.png,,,,,,,,,,,,,,,,,,,,,,,,,
,,,,,,00104,2023-11-20_15h44.12.669,vbt_B2_day1,2022.2.4,MacIntel,30.3030303,,,,,,,,,,,,,,,,,,,-0.175555556,-0.322222222,1,0,0,8.817,6,5,161,10,1,k,images/br_k.png,images/cb_k.png,,,,,,,,,,,,,,,,,,,,,,,,,
,,,,,,00104,2023-11-20_15h44.12.669,vbt_B2_day1,2022.2.4,MacIntel,30.3030303,,,,,,,,,,,,,,,,,,,-0.175555556,-0.322222222,1,0,0,0.65,6,6,162,25,1,z,images/br_z.png,images/cb_z.png,,,,,,,,,,,,,,,,,,,,,,,,,
,,,,,,00104,2023-11-20_15h44.12.669,vbt_B2_day1,2022.2.4,MacIntel,30.3030303,,,,,,,,,,,,,,,,,,,-0.175555556,-0.322222222,1,0,0,19.335,6,7,163,22,1,w,images/br_w.png,images/cb_w.png,,,,,,,,,,,,,,,,,,,,,,,,,
,,,,,,00104,2023-11-20_15h44.12.669,vbt_B2_day1,2022.2.4,MacIntel,30.3030303,,,,,,,,,,,,,,,,,,,-0.175555556,-0.322222222,1,0,0,0.634,6,8,164,18,1,s,images/br_s.png,images/cb_s.png,,,,,,,,,,,,,,,,,,,,,,,,,
,,,,,,00104,2023-11-20_15h44.12.669,vbt_B2_day1,2022.2.4,MacIntel,30.3030303,,,,,,,,,,,,,,,,,,,-0.175555556,-0.322222222,1,0,0,0.8,6,9,165,11,1,l,images/br_l.png,images/cb_l.png,,,,,,,,,,,,,,,,,,,,,,,,,
,,,,,,00104,2023-11-20_15h44.12.669,vbt_B2_day1,2022.2.4,MacIntel,30.3030303,,,,,,,,,,,,,,,,,,,-0.175555556,-0.322222222,1,0,0,3.1,6,10,166,6,1,g,images/br_g.png,images/cb_g.png,,,,,,,,,,,,,,,,,,,,,,,,,
,,,,,,00104,2023-11-20_15h44.12.669,vbt_B2_day1,2022.2.4,MacIntel,30.3030303,,,,,,,,,,,,,,,,,,,-0.175555556,-0.322222222,1,0,0,0.617,6,11,167,0,1,a,images/br_a.png,images/cb_a.png,,,,,,,,,,,,,,,,,,,,,,,,,
,,,,,,00104,2023-11-20_15h44.12.669,vbt_B2_day1,2022.2.4,MacIntel,30.3030303,,,,,,,,,,,,,,,,,,,-0.175555556,-0.322222222,1,0,0,1.466,6,12,168,8,1,i,images/br_i.png,images/cb_i.png,,,,,,,,,,,,,,,,,,,,,,,,,
,,,,,,00104,2023-11-20_15h44.12.669,vbt_B2_day1,2022.2.4,MacIntel,30.3030303,,,,,,,,,,,,,,,,,,,-0.175555556,-0.322222222,1,0,0,14.284,6,13,169,20,1,u,images/br_u.png,images/cb_u.png,,,,,,,,,,,,,,,,,,,,,,,,,
,,,,,,00104,2023-11-20_15h44.12.669,vbt_B2_day1,2022.2.4,MacIntel,30.3030303,,,,,,,,,,,,,,,,,,,-0.175555556,-0.322222222,1,0,0,0.366,6,14,170,17,1,r,images/br_r.png,images/cb_r.png,,,,,,,,,,,,,,,,,,,,,,,,,
,,,,,,00104,2023-11-20_15h44.12.669,vbt_B2_day1,2022.2.4,MacIntel,30.3030303,,,,,,,,,,,,,,,,,,,-0.175555556,-0.322222222,1,0,0,1.316,6,15,171,13,1,n,images/br_n.png,images/cb_n.png,,,,,,,,,,,,,,,,,,,,,,,,,
,,,,,,00104,2023-11-20_15h44.12.669,vbt_B2_day1,2022.2.4,MacIntel,30.3030303,,,,,,,,,,,,,,,,,,,-0.175555556,-0.322222222,1,0,0,2.366,6,16,172,3,1,d,images/br_d.png,images/cb_d.png,,,,,,,,,,,,,,,,,,,,,,,,,
,,,,,,00104,2023-11-20_15h44.12.669,vbt_B2_day1,2022.2.4,MacIntel,30.3030303,,,,,,,,,,,,,,,,,,,-0.175555556,-0.322222222,1,0,0,11.784,6,17,173,5,1,f,images/br_f.png,images/cb_f.png,,,,,,,,,,,,,,,,,,,,,,,,,
,,,,,,00104,2023-11-20_15h44.12.669,vbt_B2_day1,2022.2.4,MacIntel,30.3030303,,,,,,,,,,,,,,,,,,,-0.175555556,-0.322222222,1,0,0,3.95,6,18,174,2,1,c,images/br_c.png,images/cb_c.png,,,,,,,,,,,,,,,,,,,,,,,,,
,,,,,,00104,2023-11-20_15h44.12.669,vbt_B2_day1,2022.2.4,MacIntel,30.3030303,,,,,,,,,,,,,,,,,,,-0.175555556,-0.322222222,1,0,0,3.316,6,19,175,4,1,e,images/br_e.png,images/cb_e.png,,,,,,,,,,,,,,,,,,,,,,,,,
,,,,,,00104,2023-11-20_15h44.12.669,vbt_B2_day1,2022.2.4,MacIntel,30.3030303,,,,,,,,,,,,,,,,,,,-0.175555556,-0.322222222,1,0,0,0.316,6,20,176,14,1,o,images/br_o.png,images/cb_o.png,,,,,,,,,,,,,,,,,,,,,,,,,
,,,,,,00104,2023-11-20_15h44.12.669,vbt_B2_day1,2022.2.4,MacIntel,30.3030303,,,,,,,,,,,,,,,,,,,-0.175555556,-0.322222222,1,0,0,0.633,6,21,177,1,1,b,images/br_b.png,images/cb_b.png,,,,,,,,,,,,,,,,,,,,,,,,,
,,,,,,00104,2023-11-20_15h44.12.669,vbt_B2_day1,2022.2.4,MacIntel,30.3030303,,,,,,,,,,,,,,,,,,,-0.175555556,-0.322222222,1,0,0,13.866,6,22,178,15,1,p,images/br_p.png,images/cb_p.png,,,,,,,,,,,,,,,,,,,,,,,,,
,,,,,,00104,2023-11-20_15h44.12.669,vbt_B2_day1,2022.2.4,MacIntel,30.3030303,,,,,,,,,,,,,,,,,,,-0.175555556,-0.322222222,1,0,0,4.918,6,23,179,16,1,q,images/br_q.png,images/cb_q.png,,,,,,,,,,,,,,,,,,,,,,,,,
,,,,,,00104,2023-11-20_15h44.12.669,vbt_B2_day1,2022.2.4,MacIntel,30.3030303,,,,,,,,,,,,,,,,,,,-0.175555556,-0.322222222,1,0,0,4.733,6,24,180,7,1,h,images/br_h.png,images/cb_h.png,,,,,,,,,,,,,,,,,,,,,,,,,
,,,,,,00104,2023-11-20_15h44.12.669,vbt_B2_day1,2022.2.4,MacIntel,30.3030303,,,,,,,,,,,,,,,,,,,-0.175555556,-0.322222222,1,0,0,1.3,6,25,181,21,1,v,images/br_v.png,images/cb_v.png,,,,,,,,,,,,,,,,,,,,,,,,,
,,,,,,00104,2023-11-20_15h44.12.669,vbt_B2_day1,2022.2.4,MacIntel,30.3030303,,,,,,,,,,,,,,,,,,,,,,,,,,,,,,,,,-0.245555556,-0.081111111,1,0,0,,,,,,,,,,,,,,,,,,,,
,,,,,,00104,2023-11-20_15h44.12.669,vbt_B2_day1,2022.2.4,MacIntel,30.3030303,,,,,,,,,,,,,,,,,,,,,,,,,,,,,,,,,,,,,,-0.292222222,-0.142222222,1,0,0,,,,,,,,,,,,,,,
,,,,,,00104,2023-11-20_15h44.12.669,vbt_B2_day1,2022.2.4,MacIntel,30.3030303,,,,,,,,,,,,,,,,,,,,,,,,,,,,,,,,,,,,,,,,,,,-0.182222222,-0.207777778,1,0,0,,,0,0,0,22,1,knoe,images/br_knoe.png,images/cb_knoe.png
,,,,,,00104,2023-11-20_15h44.12.669,vbt_B2_day1,2022.2.4,MacIntel,30.3030303,,,,,,,,,,,,,,,,,,,,,,,,,,,,,,,,,,,,,,,,,,,-0.184444444,-0.196666667,1,0,0,sc.i.. ,sc.i.. ,0,1,1,4,1,schep,images/br_schep.png,images/cb_schep.png
,,,,,,00104,2023-11-20_15h44.12.669,vbt_B2_day1,2022.2.4,MacIntel,30.3030303,,,,,,,,,,,,,,,,,,,,,,,,,,,,,,,,,,,,,,,,,,,-0.171111111,-0.203333333,1,0,0,boos,boos,0,2,2,23,1,booi,images/br_booi.png,images/cb_booi.png
,,,,,,00104,2023-11-20_15h44.12.669,vbt_B2_day1,2022.2.4,MacIntel,30.3030303,,,,,,,,,,,,,,,,,,,,,,,,,,,,,,,,,,,,,,,,,,,-0.171111111,-0.203333333,1,0,0,leze..,leze..,0,3,3,46,1,lezen,images/br_lezen.png,images/cb_lezen.png
,,,,,,00104,2023-11-20_15h44.12.669,vbt_B2_day1,2022.2.4,MacIntel,30.3030303,,,,,,,,,,,,,,,,,,,,,,,,,,,,,,,,,,,,,,,,,,,-0.171111111,-0.203333333,1,0,0,v.....,v.....,0,4,4,32,1,opplaan,images/br_opplaan.png,images/cb_opplaan.png
,,,,,,00104,2023-11-20_15h44.12.669,vbt_B2_day1,2022.2.4,MacIntel,30.3030303,,,,,,,,,,,,,,,,,,,,,,,,,,,,,,,,,,,,,,,,,,,-0.171111111,-0.203333333,1,0,0,jaa.,jaa.,0,5,5,2,1,jaar,images/br_jaar.png,images/cb_jaar.png
,,,,,,00104,2023-11-20_15h44.12.669,vbt_B2_day1,2022.2.4,MacIntel,30.3030303,,,,,,,,,,,,,,,,,,,,,,,,,,,,,,,,,,,,,,,,,,,-0.171111111,-0.203333333,1,0,0,ze.el,ze.el,0,6,6,45,1,hemel,images/br_hemel.png,images/cb_hemel.png
,,,,,,00104,2023-11-20_15h44.12.669,vbt_B2_day1,2022.2.4,MacIntel,30.3030303,,,,,,,,,,,,,,,,,,,,,,,,,,,,,,,,,,,,,,,,,,,-0.171111111,-0.203333333,1,0,0,blee.,blee.,0,7,7,6,1,bleek,images/br_bleek.png,images/cb_bleek.png
,,,,,,00104,2023-11-20_15h44.12.669,vbt_B2_day1,2022.2.4,MacIntel,30.3030303,,,,,,,,,,,,,,,,,,,,,,,,,,,,,,,,,,,,,,,,,,,-0.171111111,-0.203333333,1,0,0,st..,st..,0,8,8,42,1,stuk,images/br_stuk.png,images/cb_stuk.png
,,,,,,00104,2023-11-20_15h44.12.669,vbt_B2_day1,2022.2.4,MacIntel,30.3030303,,,,,,,,,,,,,,,,,,,,,,,,,,,,,,,,,,,,,,,,,,,-0.171111111,-0.203333333,1,0,0,zaal,zaal,0,9,9,1,1,zaal,images/br_zaal.png,images/cb_zaal.png
,,,,,,00104,2023-11-20_15h44.12.669,vbt_B2_day1,2022.2.4,MacIntel,30.3030303,,,,,,,,,,,,,,,,,,,,,,,,,,,,,,,,,,,,,,,,,,,-0.171111111,-0.203333333,1,0,0,br....,br....,0,10,10,25,1,brijk,images/br_brijk.png,images/cb_brijk.png
,,,,,,00104,2023-11-20_15h44.12.669,vbt_B2_day1,2022.2.4,MacIntel,30.3030303,,,,,,,,,,,,,,,,,,,,,,,,,,,,,,,,,,,,,,,,,,,-0.171111111,-0.203333333,1,0,0,.oor..,.oor..,0,11,11,58,1,voorkeur,images/br_voorkeur.png,images/cb_voorkeur.png
,,,,,,00104,2023-11-20_15h44.12.669,vbt_B2_day1,2022.2.4,MacIntel,30.3030303,,,,,,,,,,,,,,,,,,,,,,,,,,,,,,,,,,,,,,,,,,,-0.171111111,-0.203333333,1,0,0,....,....,0,12,12,10,1,muziek,images/br_muziek.png,images/cb_muziek.png
,,,,,,00104,2023-11-20_15h44.12.669,vbt_B2_day1,2022.2.4,MacIntel,30.3030303,,,,,,,,,,,,,,,,,,,,,,,,,,,,,,,,,,,,,,,,,,,-0.171111111,-0.203333333,1,0,0,ji...,ji...,0,13,13,44,1,wijze,images/br_wijze.png,images/cb_wijze.png
,,,,,,00104,2023-11-20_15h44.12.669,vbt_B2_day1,2022.2.4,MacIntel,30.3030303,,,,,,,,,,,,,,,,,,,,,,,,,,,,,,,,,,,,,,,,,,,-0.171111111,-0.203333333,1,0,0,bebr..,bebr..,0,14,14,28,1,bebrip,images/br_bebrip.png,images/cb_bebrip.png
,,,,,,00104,2023-11-20_15h44.12.669,vbt_B2_day1,2022.2.4,MacIntel,30.3030303,,,,,,,,,,,,,,,,,,,,,,,,,,,,,,,,,,,,,,,,,,,-0.171111111,-0.203333333,1,0,0,scp....,scp....,0,15,15,19,1,schuilen,images/br_schuilen.png,images/cb_schuilen.png
,,,,,,00104,2023-11-20_15h44.12.669,vbt_B2_day1,2022.2.4,MacIntel,30.3030303,,,,,,,,,,,,,,,,,,,,,,,,,,,,,,,,,,,,,,,,,,,-0.171111111,-0.203333333,1,0,0,tars,tars,0,16,16,20,1,tars,images/br_tars.png,images/cb_tars.png
,,,,,,00104,2023-11-20_15h44.12.669,vbt_B2_day1,2022.2.4,MacIntel,30.3030303,,,,,,,,,,,,,,,,,,,,,,,,,,,,,,,,,,,,,,,,,,,-0.171111111,-0.203333333,1,0,0,daarp...,daarp...,0,17,17,16,1,daarheen,images/br_daarheen.png,images/cb_daarheen.png
,,,,,,00104,2023-11-20_15h44.12.669,vbt_B2_day1,2022.2.4,MacIntel,30.3030303,,,,,,,,,,,,,,,,,,,,,,,,,,,,,,,,,,,,,,,,,,,-0.171111111,-0.203333333,1,0,0,d.bl..,d.bl..,0,18,18,9,1,dubbel,images/br_dubbel.png,images/cb_dubbel.png
,,,,,,00104,2023-11-20_15h44.12.669,vbt_B2_day1,2022.2.4,MacIntel,30.3030303,,,,,,,,,,,,,,,,,,,,,,,,,,,,,,,,,,,,,,,,,,,-0.171111111,-0.203333333,1,0,0,kl...,kl...,0,19,19,7,1,klauw,images/br_klauw.png,images/cb_klauw.png
,,,,,,00104,2023-11-20_15h44.12.669,vbt_B2_day1,2022.2.4,MacIntel,30.3030303,,,,,,,,,,,,,,,,,,,,,,,,,,,,,,,,,,,,,,,,,,,-0.171111111,-0.203333333,1,0,0,par..,par..,0,20,20,14,1,waarvan,images/br_waarvan.png,images/cb_waarvan.png
,,,,,,00104,2023-11-20_15h44.12.669,vbt_B2_day1,2022.2.4,MacIntel,30.3030303,,,,,,,,,,,,,,,,,,,,,,,,,,,,,,,,,,,,,,,,,,,-0.171111111,-0.203333333,1,0,0,.eni..,.eni..,0,21,21,11,1,mening,images/br_mening.png,images/cb_mening.png
,,,,,,00104,2023-11-20_15h44.12.669,vbt_B2_day1,2022.2.4,MacIntel,30.3030303,,,,,,,,,,,,,,,,,,,,,,,,,,,,,,,,,,,,,,,,,,,-0.171111111,-0.203333333,1,0,0,lava,lava,0,22,22,43,1,lava,images/br_lava.png,images/cb_lava.png
,,,,,,00104,2023-11-20_15h44.12.669,vbt_B2_day1,2022.2.4,MacIntel,30.3030303,,,,,,,,,,,,,,,,,,,,,,,,,,,,,,,,,,,,,,,,,,,-0.171111111,-0.203333333,1,0,0,pll.l..,pll.l..,0,23,23,33,1,flullen,images/br_flullen.png,images/cb_flullen.png
,,,,,,00104,2023-11-20_15h44.12.669,vbt_B2_day1,2022.2.4,MacIntel,30.3030303,,,,,,,,,,,,,,,,,,,,,,,,,,,,,,,,,,,,,,,,,,,-0.171111111,-0.203333333,1,0,0,voo....,voo....,0,24,24,39,1,voorreur,images/br_voorreur.png,images/cb_voorreur.png
,,,,,,00104,2023-11-20_15h44.12.669,vbt_B2_day1,2022.2.4,MacIntel,30.3030303,,,,,,,,,,,,,,,,,,,,,,,,,,,,,,,,,,,,,,,,,,,-0.171111111,-0.203333333,1,0,0,pli...,pli...,0,25,25,12,1,klimmen,images/br_klimmen.png,images/cb_klimmen.png
,,,,,,00104,2023-11-20_15h44.12.669,vbt_B2_day1,2022.2.4,MacIntel,30.3030303,,,,,,,,,,,,,,,,,,,,,,,,,,,,,,,,,,,,,,,,,,,-0.171111111,-0.203333333,1,0,0,vi...,vi...,0,26,26,54,1,vijftig,images/br_vijftig.png,images/cb_vijftig.png
,,,,,,00104,2023-11-20_15h44.12.669,vbt_B2_day1,2022.2.4,MacIntel,30.3030303,,,,,,,,,,,,,,,,,,,,,,,,,,,,,,,,,,,,,,,,,,,-0.171111111,-0.203333333,1,0,0,diri.,diri.,0,27,27,21,1,dred,images/br_dred.png,images/cb_dred.png
,,,,,,00104,2023-11-20_15h44.12.669,vbt_B2_day1,2022.2.4,MacIntel,30.3030303,,,,,,,,,,,,,,,,,,,,,,,,,,,,,,,,,,,,,,,,,,,-0.171111111,-0.203333333,1,0,0,tepe.e..,tepe.e..,0,28,28,55,1,tekenen,images/br_tekenen.png,images/cb_tekenen.png
,,,,,,00104,2023-11-20_15h44.12.669,vbt_B2_day1,2022.2.4,MacIntel,30.3030303,,,,,,,,,,,,,,,,,,,,,,,,,,,,,,,,,,,,,,,,,,,-0.171111111,-0.203333333,1,0,0,oks....,oks....,0,29,29,53,1,opslaan,images/br_opslaan.png,images/cb_opslaan.png
,,,,,,00104,2023-11-20_15h44.12.669,vbt_B2_day1,2022.2.4,MacIntel,30.3030303,,,,,,,,,,,,,,,,,,,,,,,,,,,,,,,,,,,,,,,,,,,-0.171111111,-0.203333333,1,0,0,opv..,opv..,0,30,30,59,1,opvatten,images/br_opvatten.png,images/cb_opvatten.png
,,,,,,00104,2023-11-20_15h44.12.669,vbt_B2_day1,2022.2.4,MacIntel,30.3030303,,,,,,,,,,,,,,,,,,,,,,,,,,,,,,,,,,,,,,,,,,,-0.171111111,-0.203333333,1,0,0,to......,to......,0,31,31,56,1,toezicht,images/br_toezicht.png,images/cb_toezicht.png
,,,,,,00104,2023-11-20_15h44.12.669,vbt_B2_day1,2022.2.4,MacIntel,30.3030303,,,,,,,,,,,,,,,,,,,,,,,,,,,,,,,,,,,,,,,,,,,-0.171111111,-0.203333333,1,0,0,re.er,re.er,0,32,32,24,1,rezer,images/br_rezer.png,images/cb_rezer.png
,,,,,,00104,2023-11-20_15h44.12.669,vbt_B2_day1,2022.2.4,MacIntel,30.3030303,,,,,,,,,,,,,,,,,,,,,,,,,,,,,,,,,,,,,,,,,,,-0.171111111,-0.203333333,1,0,0,reedje,reedje,0,33,33,30,1,reedje,images/br_reedje.png,images/cb_reedje.png
,,,,,,00104,2023-11-20_15h44.12.669,vbt_B2_day1,2022.2.4,MacIntel,30.3030303,,,,,,,,,,,,,,,,,,,,,,,,,,,,,,,,,,,,,,,,,,,-0.171111111,-0.203333333,1,0,0,lieg..,lieg..,0,34,34,50,1,liegen,images/br_liegen.png,images/cb_liegen.png
,,,,,,00104,2023-11-20_15h44.12.669,vbt_B2_day1,2022.2.4,MacIntel,30.3030303,,,,,,,,,,,,,,,,,,,,,,,,,,,,,,,,,,,,,,,,,,,-0.171111111,-0.203333333,1,0,0,.r...,.r...,0,35,35,27,1,prort,images/br_prort.png,images/cb_prort.png
,,,,,,00104,2023-11-20_15h44.12.669,vbt_B2_day1,2022.2.4,MacIntel,30.3030303,,,,,,,,,,,,,,,,,,,,,,,,,,,,,,,,,,,,,,,,,,,-0.171111111,-0.203333333,1,0,0,verven,verven,0,36,36,36,1,vervaden,images/br_vervaden.png,images/cb_vervaden.png
,,,,,,00104,2023-11-20_15h44.12.669,vbt_B2_day1,2022.2.4,MacIntel,30.3030303,,,,,,,,,,,,,,,,,,,,,,,,,,,,,,,,,,,,,,,,,,,-0.171111111,-0.203333333,1,0,0,gen.e..,gen.e..,0,37,37,29,1,genond,images/br_genond.png,images/cb_genond.png
,,,,,,00104,2023-11-20_15h44.12.669,vbt_B2_day1,2022.2.4,MacIntel,30.3030303,,,,,,,,,,,,,,,,,,,,,,,,,,,,,,,,,,,,,,,,,,,-0.171111111,-0.203333333,1,0,0,piers..,piers..,0,38,38,15,1,hiervan,images/br_hiervan.png,images/cb_hiervan.png
,,,,,,00104,2023-11-20_15h44.12.669,vbt_B2_day1,2022.2.4,MacIntel,30.3030303,,,,,,,,,,,,,,,,,,,,,,,,,,,,,,,,,,,,,,,,,,,-0.171111111,-0.203333333,1,0,0,locpt...,locpt...,0,39,39,34,1,lochten,images/br_lochten.png,images/cb_lochten.png
,,,,,,00104,2023-11-20_15h44.12.669,vbt_B2_day1,2022.2.4,MacIntel,30.3030303,,,,,,,,,,,,,,,,,,,,,,,,,,,,,,,,,,,,,,,,,,,-0.171111111,-0.203333333,1,0,0,.ap..,.ap..,0,40,40,5,1,maken,images/br_maken.png,images/cb_maken.png
,,,,,,00104,2023-11-20_15h44.12.669,vbt_B2_day1,2022.2.4,MacIntel,30.3030303,,,,,,,,,,,,,,,,,,,,,,,,,,,,,,,,,,,,,,,,,,,-0.171111111,-0.203333333,1,0,0,valo..,valo..,0,41,41,26,1,valop,images/br_valop.png,images/cb_valop.png
,,,,,,00104,2023-11-20_15h44.12.669,vbt_B2_day1,2022.2.4,MacIntel,30.3030303,,,,,,,,,,,,,,,,,,,,,,,,,,,,,,,,,,,,,,,,,,,-0.171111111,-0.203333333,1,0,0,liefde,liefde,0,42,42,51,1,liefde,images/br_liefde.png,images/cb_liefde.png
,,,,,,00104,2023-11-20_15h44.12.669,vbt_B2_day1,2022.2.4,MacIntel,30.3030303,,,,,,,,,,,,,,,,,,,,,,,,,,,,,,,,,,,,,,,,,,,-0.171111111,-0.203333333,1,0,0,goo.,goo.,0,43,43,41,1,hoog,images/br_hoog.png,images/cb_hoog.png
,,,,,,00104,2023-11-20_15h44.12.669,vbt_B2_day1,2022.2.4,MacIntel,30.3030303,,,,,,,,,,,,,,,,,,,,,,,,,,,,,,,,,,,,,,,,,,,-0.171111111,-0.203333333,1,0,0,s.a....,s.a....,0,44,44,37,1,spanzing,images/br_spanzing.png,images/cb_spanzing.png
,,,,,,00104,2023-11-20_15h44.12.669,vbt_B2_day1,2022.2.4,MacIntel,30.3030303,,,,,,,,,,,,,,,,,,,,,,,,,,,,,,,,,,,,,,,,,,,-0.171111111,-0.203333333,1,0,0,.i.n...n,.i.n...n,0,45,45,18,1,uitdelen,images/br_uitdelen.png,images/cb_uitdelen.png
,,,,,,00104,2023-11-20_15h44.12.669,vbt_B2_day1,2022.2.4,MacIntel,30.3030303,,,,,,,,,,,,,,,,,,,,,,,,,,,,,,,,,,,,,,,,,,,0.024444444,-0.403333333,1,0,0,stapen,stapen,0,46,46,31,1,stamen,images/br_stamen.png,images/cb_stamen.png
,,,,,,00104,2023-11-20_15h44.12.669,vbt_B2_day1,2022.2.4,MacIntel,30.3030303,,,,,,,,,,,,,,,,,,,,,,,,,,,,,,,,,,,,,,,,,,,0.024444444,-0.403333333,1,0,0,vizier,vizier,0,47,47,49,1,vizier,images/br_vizier.png,images/cb_vizier.png
,,,,,,00104,2023-11-20_15h44.12.669,vbt_B2_day1,2022.2.4,MacIntel,30.3030303,,,,,,,,,,,,,,,,,,,,,,,,,,,,,,,,,,,,,,,,,,,0.024444444,-0.403333333,1,0,0,tpi...e,tpi...e,0,48,48,13,1,twijfel,images/br_twijfel.png,images/cb_twijfel.png
,,,,,,00104,2023-11-20_15h44.12.669,vbt_B2_day1,2022.2.4,MacIntel,30.3030303,,,,,,,,,,,,,,,,,,,,,,,,,,,,,,,,,,,,,,,,,,,0.024444444,-0.403333333,1,0,0,.een.en ,.een.en ,0,49,49,57,1,meenemen,images/br_meenemen.png,images/cb_meenemen.png
,,,,,,00104,2023-11-20_15h44.12.669,vbt_B2_day1,2022.2.4,MacIntel,30.3030303,,,,,,,,,,,,,,,,,,,,,,,,,,,,,,,,,,,,,,,,,,,0.024444444,-0.403333333,1,0,0,sc.....,sc.....,0,50,50,38,1,schielen,images/br_schielen.png,images/cb_schielen.png
,,,,,,00104,2023-11-20_15h44.12.669,vbt_B2_day1,2022.2.4,MacIntel,30.3030303,,,,,,,,,,,,,,,,,,,,,,,,,,,,,,,,,,,,,,,,,,,0.024444444,-0.398888889,1,0,0,sti.e.,sti.e.,0,51,51,35,1,stuikem,images/br_stuikem.png,images/cb_stuikem.png
,,,,,,00104,2023-11-20_15h44.12.669,vbt_B2_day1,2022.2.4,MacIntel,30.3030303,,,,,,,,,,,,,,,,,,,,,,,,,,,,,,,,,,,,,,,,,,,0.024444444,-0.398888889,1,0,0,dief,dief,0,52,52,40,1,dief,images/br_dief.png,images/cb_dief.png
,,,,,,00104,2023-11-20_15h44.12.669,vbt_B2_day1,2022.2.4,MacIntel,30.3030303,,,,,,,,,,,,,,,,,,,,,,,,,,,,,,,,,,,,,,,,,,,0.024444444,-0.398888889,1,0,0,atten...,atten...,0,53,53,17,1,attentie,images/br_attentie.png,images/cb_attentie.png
,,,,,,00104,2023-11-20_15h44.12.669,vbt_B2_day1,2022.2.4,MacIntel,30.3030303,,,,,,,,,,,,,,,,,,,,,,,,,,,,,,,,,,,,,,,,,,,0.024444444,-0.398888889,1,0,0,hand,hand,0,54,54,3,1,mand,images/br_mand.png,images/cb_mand.png
,,,,,,00104,2023-11-20_15h44.12.669,vbt_B2_day1,2022.2.4,MacIntel,30.3030303,,,,,,,,,,,,,,,,,,,,,,,,,,,,,,,,,,,,,,,,,,,0.024444444,-0.398888889,1,0,0,x....,x....,0,55,55,52,1,zuiplap,images/br_zuiplap.png,images/cb_zuiplap.png
,,,,,,00104,2023-11-20_15h44.12.669,vbt_B2_day1,2022.2.4,MacIntel,30.3030303,,,,,,,,,,,,,,,,,,,,,,,,,,,,,,,,,,,,,,,,,,,0.024444444,-0.398888889,1,0,0,pag...,pag...,0,56,56,8,1,kanjer,images/br_kanjer.png,images/cb_kanjer.png
,,,,,,00104,2023-11-20_15h44.12.669,vbt_B2_day1,2022.2.4,MacIntel,30.3030303,,,,,,,,,,,,,,,,,,,,,,,,,,,,,,,,,,,,,,,,,,,0.024444444,-0.398888889,1,0,0,sla.,sla.,0,57,57,0,1,slak,images/br_slak.png,images/cb_slak.png
,,,,,,00104,2023-11-20_15h44.12.669,vbt_B2_day1,2022.2.4,MacIntel,30.3030303,,,,,,,,,,,,,,,,,,,,,,,,,,,,,,,,,,,,,,,,,,,0.024444444,-0.398888889,1,0,0,lood..,lood..,0,58,58,47,1,loods,images/br_loods.png,images/cb_loods.png
,,,,,,00104,2023-11-20_15h44.12.669,vbt_B2_day1,2022.2.4,MacIntel,30.3030303,,,,,,,,,,,,,,,,,,,,,,,,,,,,,,,,,,,,,,,,,,,0.024444444,-0.398888889,1,0,0,fctie,fctie,0,59,59,48,1,fictie,images/br_fictie.png,images/cb_fictie.png
,,,,,,00104,2023-11-20_15h44.12.669,vbt_B2_day1,2022.2.4,MacIntel,30.3030303,,,,,,,,,,,,,,,,,,,,,,,,,,,,,,,,,,,,,,,,,,,,,,,,,,,,,,,,,
