welcome_mouse.x,welcome_mouse.y,welcome_mouse.leftButton,welcome_mouse.midButton,welcome_mouse.rightButton,welcome_mouse.time,"ID",date,expName,psychopyVersion,OS,frameRate,mouse_2.x,mouse_2.y,mouse_2.leftButton,mouse_2.midButton,mouse_2.rightButton,mouse_2.time,mouse_3.x,mouse_3.y,mouse_3.leftButton,mouse_3.midButton,mouse_3.rightButton,mouse_3.time,train_mouse.x,train_mouse.y,train_mouse.leftButton,train_mouse.midButton,train_mouse.rightButton,train_mouse.time,braille_mouse.x,braille_mouse.y,braille_mouse.leftButton,braille_mouse.midButton,braille_mouse.rightButton,braille_mouse.time,trials.thisRepN,trials.thisTrialN,trials.thisN,trials.thisIndex,trials.ran,nlLet,brLet,cbLet,mouse.x,mouse.y,mouse.leftButton,mouse.midButton,mouse.rightButton,testInstr_mouse.x,testInstr_mouse.y,testInstr_mouse.leftButton,testInstr_mouse.midButton,testInstr_mouse.rightButton,test_mouse.x,test_mouse.y,test_mouse.leftButton,test_mouse.midButton,test_mouse.rightButton,test_response.text,testResp,test_loop.thisRepN,test_loop.thisTrialN,test_loop.thisN,test_loop.thisIndex,test_loop.ran,nlWrd,brWrd,cbWrd
0.60906684,-0.291258681,1,0,0,19.7124,00101,2023-11-27_08h14.46.362,vbt_B2_day1,2022.2.4,MacIntel,60.0024001,,,,,,,,,,,,,,,,,,,,,,,,,,,,,,,,,,,,,,,,,,,,,,,,,,,,,,,,,
,,,,,,00101,2023-11-27_08h14.46.362,vbt_B2_day1,2022.2.4,MacIntel,60.0024001,0.021501736,-0.390954861,1,0,0,5.6477,,,,,,,,,,,,,,,,,,,,,,,,,,,,,,,,,,,,,,,,,,,,,,,,,,,
,,,,,,00101,2023-11-27_08h14.46.362,vbt_B2_day1,2022.2.4,MacIntel,60.0024001,,,,,,,0.02202691,-0.390954861,1,0,0,5.8154,,,,,,,,,,,,,,,,,,,,,,,,,,,,,,,,,,,,,,,,,,,,,
,,,,,,00101,2023-11-27_08h14.46.362,vbt_B2_day1,2022.2.4,MacIntel,60.0024001,,,,,,,,,,,,,0.02202691,-0.390954861,1,0,0,15.4111,,,,,,,,,,,,,,,,,,,,,,,,,,,,,,,,,,,,,,,
,,,,,,00101,2023-11-27_08h14.46.362,vbt_B2_day1,2022.2.4,MacIntel,60.0024001,,,,,,,,,,,,,,,,,,,0.02202691,-0.390954861,1,0,0,0.6504,0,0,0,1,1,b,images/br_b.png,images/cb_b.png,,,,,,,,,,,,,,,,,,,,,,,,,
,,,,,,00101,2023-11-27_08h14.46.362,vbt_B2_day1,2022.2.4,MacIntel,60.0024001,,,,,,,,,,,,,,,,,,,0.02202691,-0.390177951,1,0,0,2.6489,0,1,1,21,1,v,images/br_v.png,images/cb_v.png,,,,,,,,,,,,,,,,,,,,,,,,,
,,,,,,00101,2023-11-27_08h14.46.362,vbt_B2_day1,2022.2.4,MacIntel,60.0024001,,,,,,,,,,,,,,,,,,,0.02202691,-0.390177951,1,0,0,0.4819,0,2,2,22,1,w,images/br_w.png,images/cb_w.png,,,,,,,,,,,,,,,,,,,,,,,,,
,,,,,,00101,2023-11-27_08h14.46.362,vbt_B2_day1,2022.2.4,MacIntel,60.0024001,,,,,,,,,,,,,,,,,,,0.02202691,-0.390177951,1,0,0,2.3354,0,3,3,11,1,l,images/br_l.png,images/cb_l.png,,,,,,,,,,,,,,,,,,,,,,,,,
,,,,,,00101,2023-11-27_08h14.46.362,vbt_B2_day1,2022.2.4,MacIntel,60.0024001,,,,,,,,,,,,,,,,,,,0.02202691,-0.390177951,1,0,0,1.0352,0,4,4,3,1,d,images/br_d.png,images/cb_d.png,,,,,,,,,,,,,,,,,,,,,,,,,
,,,,,,00101,2023-11-27_08h14.46.362,vbt_B2_day1,2022.2.4,MacIntel,60.0024001,,,,,,,,,,,,,,,,,,,0.02202691,-0.390177951,1,0,0,0.7835,0,5,5,0,1,a,images/br_a.png,images/cb_a.png,,,,,,,,,,,,,,,,,,,,,,,,,
,,,,,,00101,2023-11-27_08h14.46.362,vbt_B2_day1,2022.2.4,MacIntel,60.0024001,,,,,,,,,,,,,,,,,,,0.02202691,-0.390177951,1,0,0,0.4324,0,6,6,16,1,q,images/br_q.png,images/cb_q.png,,,,,,,,,,,,,,,,,,,,,,,,,
,,,,,,00101,2023-11-27_08h14.46.362,vbt_B2_day1,2022.2.4,MacIntel,60.0024001,,,,,,,,,,,,,,,,,,,0.02202691,-0.390177951,1,0,0,0.4517,0,7,7,17,1,r,images/br_r.png,images/cb_r.png,,,,,,,,,,,,,,,,,,,,,,,,,
,,,,,,00101,2023-11-27_08h14.46.362,vbt_B2_day1,2022.2.4,MacIntel,60.0024001,,,,,,,,,,,,,,,,,,,0.02202691,-0.390177951,1,0,0,3.003,0,8,8,8,1,i,images/br_i.png,images/cb_i.png,,,,,,,,,,,,,,,,,,,,,,,,,
,,,,,,00101,2023-11-27_08h14.46.362,vbt_B2_day1,2022.2.4,MacIntel,60.0024001,,,,,,,,,,,,,,,,,,,0.02202691,-0.390177951,1,0,0,2.7001,0,9,9,13,1,n,images/br_n.png,images/cb_n.png,,,,,,,,,,,,,,,,,,,,,,,,,
,,,,,,00101,2023-11-27_08h14.46.362,vbt_B2_day1,2022.2.4,MacIntel,60.0024001,,,,,,,,,,,,,,,,,,,0.02202691,-0.390177951,1,0,0,0.0125,0,10,10,2,1,c,images/br_c.png,images/cb_c.png,,,,,,,,,,,,,,,,,,,,,,,,,
,,,,,,00101,2023-11-27_08h14.46.362,vbt_B2_day1,2022.2.4,MacIntel,60.0024001,,,,,,,,,,,,,,,,,,,0.02202691,-0.390177951,1,0,0,0.0163,0,11,11,12,1,m,images/br_m.png,images/cb_m.png,,,,,,,,,,,,,,,,,,,,,,,,,
,,,,,,00101,2023-11-27_08h14.46.362,vbt_B2_day1,2022.2.4,MacIntel,60.0024001,,,,,,,,,,,,,,,,,,,0.02202691,-0.390177951,1,0,0,2.066,0,12,12,4,1,e,images/br_e.png,images/cb_e.png,,,,,,,,,,,,,,,,,,,,,,,,,
,,,,,,00101,2023-11-27_08h14.46.362,vbt_B2_day1,2022.2.4,MacIntel,60.0024001,,,,,,,,,,,,,,,,,,,0.02202691,-0.390177951,1,0,0,0.6836,0,13,13,6,1,g,images/br_g.png,images/cb_g.png,,,,,,,,,,,,,,,,,,,,,,,,,
,,,,,,00101,2023-11-27_08h14.46.362,vbt_B2_day1,2022.2.4,MacIntel,60.0024001,,,,,,,,,,,,,,,,,,,0.02202691,-0.390177951,1,0,0,1.2319,0,14,14,23,1,x,images/br_x.png,images/cb_x.png,,,,,,,,,,,,,,,,,,,,,,,,,
,,,,,,00101,2023-11-27_08h14.46.362,vbt_B2_day1,2022.2.4,MacIntel,60.0024001,,,,,,,,,,,,,,,,,,,0.02202691,-0.390177951,1,0,0,0.151,0,15,15,19,1,t,images/br_t.png,images/cb_t.png,,,,,,,,,,,,,,,,,,,,,,,,,
,,,,,,00101,2023-11-27_08h14.46.362,vbt_B2_day1,2022.2.4,MacIntel,60.0024001,,,,,,,,,,,,,,,,,,,0.02202691,-0.390177951,1,0,0,1.5021,0,16,16,5,1,f,images/br_f.png,images/cb_f.png,,,,,,,,,,,,,,,,,,,,,,,,,
,,,,,,00101,2023-11-27_08h14.46.362,vbt_B2_day1,2022.2.4,MacIntel,60.0024001,,,,,,,,,,,,,,,,,,,0.02202691,-0.390177951,1,0,0,1.3003,0,17,17,7,1,h,images/br_h.png,images/cb_h.png,,,,,,,,,,,,,,,,,,,,,,,,,
,,,,,,00101,2023-11-27_08h14.46.362,vbt_B2_day1,2022.2.4,MacIntel,60.0024001,,,,,,,,,,,,,,,,,,,0.02202691,-0.390177951,1,0,0,2.0164,0,18,18,20,1,u,images/br_u.png,images/cb_u.png,,,,,,,,,,,,,,,,,,,,,,,,,
,,,,,,00101,2023-11-27_08h14.46.362,vbt_B2_day1,2022.2.4,MacIntel,60.0024001,,,,,,,,,,,,,,,,,,,0.02202691,-0.390177951,1,0,0,0.8971,0,19,19,24,1,y,images/br_y.png,images/cb_y.png,,,,,,,,,,,,,,,,,,,,,,,,,
,,,,,,00101,2023-11-27_08h14.46.362,vbt_B2_day1,2022.2.4,MacIntel,60.0024001,,,,,,,,,,,,,,,,,,,0.02202691,-0.390177951,1,0,0,0.8356,0,20,20,25,1,z,images/br_z.png,images/cb_z.png,,,,,,,,,,,,,,,,,,,,,,,,,
,,,,,,00101,2023-11-27_08h14.46.362,vbt_B2_day1,2022.2.4,MacIntel,60.0024001,,,,,,,,,,,,,,,,,,,0.02202691,-0.390177951,1,0,0,0.5026,0,21,21,10,1,k,images/br_k.png,images/cb_k.png,,,,,,,,,,,,,,,,,,,,,,,,,
,,,,,,00101,2023-11-27_08h14.46.362,vbt_B2_day1,2022.2.4,MacIntel,60.0024001,,,,,,,,,,,,,,,,,,,0.02202691,-0.390177951,1,0,0,0.8493,0,22,22,15,1,p,images/br_p.png,images/cb_p.png,,,,,,,,,,,,,,,,,,,,,,,,,
,,,,,,00101,2023-11-27_08h14.46.362,vbt_B2_day1,2022.2.4,MacIntel,60.0024001,,,,,,,,,,,,,,,,,,,0.02202691,-0.390177951,1,0,0,0.0481,0,23,23,9,1,j,images/br_j.png,images/cb_j.png,,,,,,,,,,,,,,,,,,,,,,,,,
,,,,,,00101,2023-11-27_08h14.46.362,vbt_B2_day1,2022.2.4,MacIntel,60.0024001,,,,,,,,,,,,,,,,,,,0.02202691,-0.390177951,1,0,0,0.798,0,24,24,18,1,s,images/br_s.png,images/cb_s.png,,,,,,,,,,,,,,,,,,,,,,,,,
,,,,,,00101,2023-11-27_08h14.46.362,vbt_B2_day1,2022.2.4,MacIntel,60.0024001,,,,,,,,,,,,,,,,,,,0.02202691,-0.390177951,1,0,0,0.1334,0,25,25,14,1,o,images/br_o.png,images/cb_o.png,,,,,,,,,,,,,,,,,,,,,,,,,
,,,,,,00101,2023-11-27_08h14.46.362,vbt_B2_day1,2022.2.4,MacIntel,60.0024001,,,,,,,,,,,,,,,,,,,0.02202691,-0.390177951,1,0,0,0.2991,1,0,26,10,1,k,images/br_k.png,images/cb_k.png,,,,,,,,,,,,,,,,,,,,,,,,,
,,,,,,00101,2023-11-27_08h14.46.362,vbt_B2_day1,2022.2.4,MacIntel,60.0024001,,,,,,,,,,,,,,,,,,,0.02202691,-0.390177951,1,0,0,0.1981,1,1,27,1,1,b,images/br_b.png,images/cb_b.png,,,,,,,,,,,,,,,,,,,,,,,,,
,,,,,,00101,2023-11-27_08h14.46.362,vbt_B2_day1,2022.2.4,MacIntel,60.0024001,,,,,,,,,,,,,,,,,,,0.02202691,-0.390177951,1,0,0,0.1004,1,2,28,20,1,u,images/br_u.png,images/cb_u.png,,,,,,,,,,,,,,,,,,,,,,,,,
,,,,,,00101,2023-11-27_08h14.46.362,vbt_B2_day1,2022.2.4,MacIntel,60.0024001,,,,,,,,,,,,,,,,,,,0.02202691,-0.390177951,1,0,0,0.0328,1,3,29,16,1,q,images/br_q.png,images/cb_q.png,,,,,,,,,,,,,,,,,,,,,,,,,
,,,,,,00101,2023-11-27_08h14.46.362,vbt_B2_day1,2022.2.4,MacIntel,60.0024001,,,,,,,,,,,,,,,,,,,0.02202691,-0.390177951,1,0,0,2.354,1,4,30,8,1,i,images/br_i.png,images/cb_i.png,,,,,,,,,,,,,,,,,,,,,,,,,
,,,,,,00101,2023-11-27_08h14.46.362,vbt_B2_day1,2022.2.4,MacIntel,60.0024001,,,,,,,,,,,,,,,,,,,0.02202691,-0.390177951,1,0,0,0.3489,1,5,31,21,1,v,images/br_v.png,images/cb_v.png,,,,,,,,,,,,,,,,,,,,,,,,,
,,,,,,00101,2023-11-27_08h14.46.362,vbt_B2_day1,2022.2.4,MacIntel,60.0024001,,,,,,,,,,,,,,,,,,,0.02202691,-0.390177951,1,0,0,3.2166,1,6,32,17,1,r,images/br_r.png,images/cb_r.png,,,,,,,,,,,,,,,,,,,,,,,,,
,,,,,,00101,2023-11-27_08h14.46.362,vbt_B2_day1,2022.2.4,MacIntel,60.0024001,,,,,,,,,,,,,,,,,,,0.022534722,-0.390685764,1,0,0,1.7989,1,7,33,2,1,c,images/br_c.png,images/cb_c.png,,,,,,,,,,,,,,,,,,,,,,,,,
,,,,,,00101,2023-11-27_08h14.46.362,vbt_B2_day1,2022.2.4,MacIntel,60.0024001,,,,,,,,,,,,,,,,,,,0.013103299,-0.383346354,1,0,0,1.9492,1,8,34,0,1,a,images/br_a.png,images/cb_a.png,,,,,,,,,,,,,,,,,,,,,,,,,
,,,,,,00101,2023-11-27_08h14.46.362,vbt_B2_day1,2022.2.4,MacIntel,60.0024001,,,,,,,,,,,,,,,,,,,0.007842882,-0.374748264,1,0,0,2.1984,1,9,35,14,1,o,images/br_o.png,images/cb_o.png,,,,,,,,,,,,,,,,,,,,,,,,,
,,,,,,00101,2023-11-27_08h14.46.362,vbt_B2_day1,2022.2.4,MacIntel,60.0024001,,,,,,,,,,,,,,,,,,,0.007842882,-0.374748264,1,0,0,0.2493,1,10,36,3,1,d,images/br_d.png,images/cb_d.png,,,,,,,,,,,,,,,,,,,,,,,,,
,,,,,,00101,2023-11-27_08h14.46.362,vbt_B2_day1,2022.2.4,MacIntel,60.0024001,,,,,,,,,,,,,,,,,,,0.007842882,-0.374748264,1,0,0,0.0991,1,11,37,19,1,t,images/br_t.png,images/cb_t.png,,,,,,,,,,,,,,,,,,,,,,,,,
,,,,,,00101,2023-11-27_08h14.46.362,vbt_B2_day1,2022.2.4,MacIntel,60.0024001,,,,,,,,,,,,,,,,,,,0.007842882,-0.374748264,1,0,0,0.0487,1,12,38,6,1,g,images/br_g.png,images/cb_g.png,,,,,,,,,,,,,,,,,,,,,,,,,
,,,,,,00101,2023-11-27_08h14.46.362,vbt_B2_day1,2022.2.4,MacIntel,60.0024001,,,,,,,,,,,,,,,,,,,0.007842882,-0.374748264,1,0,0,0.1827,1,13,39,7,1,h,images/br_h.png,images/cb_h.png,,,,,,,,,,,,,,,,,,,,,,,,,
,,,,,,00101,2023-11-27_08h14.46.362,vbt_B2_day1,2022.2.4,MacIntel,60.0024001,,,,,,,,,,,,,,,,,,,0.007842882,-0.374748264,1,0,0,0.1174,1,14,40,5,1,f,images/br_f.png,images/cb_f.png,,,,,,,,,,,,,,,,,,,,,,,,,
,,,,,,00101,2023-11-27_08h14.46.362,vbt_B2_day1,2022.2.4,MacIntel,60.0024001,,,,,,,,,,,,,,,,,,,0.007842882,-0.374748264,1,0,0,1.2139,1,15,41,11,1,l,images/br_l.png,images/cb_l.png,,,,,,,,,,,,,,,,,,,,,,,,,
,,,,,,00101,2023-11-27_08h14.46.362,vbt_B2_day1,2022.2.4,MacIntel,60.0024001,,,,,,,,,,,,,,,,,,,0.010542535,-0.330360243,1,0,0,2.7827,1,16,42,24,1,y,images/br_y.png,images/cb_y.png,,,,,,,,,,,,,,,,,,,,,,,,,
,,,,,,00101,2023-11-27_08h14.46.362,vbt_B2_day1,2022.2.4,MacIntel,60.0024001,,,,,,,,,,,,,,,,,,,0.010542535,-0.330360243,1,0,0,0.1823,1,17,43,15,1,p,images/br_p.png,images/cb_p.png,,,,,,,,,,,,,,,,,,,,,,,,,
,,,,,,00101,2023-11-27_08h14.46.362,vbt_B2_day1,2022.2.4,MacIntel,60.0024001,,,,,,,,,,,,,,,,,,,0.010542535,-0.330360243,1,0,0,0.5823,1,18,44,4,1,e,images/br_e.png,images/cb_e.png,,,,,,,,,,,,,,,,,,,,,,,,,
,,,,,,00101,2023-11-27_08h14.46.362,vbt_B2_day1,2022.2.4,MacIntel,60.0024001,,,,,,,,,,,,,,,,,,,0.010542535,-0.330360243,1,0,0,0.7178,1,19,45,9,1,j,images/br_j.png,images/cb_j.png,,,,,,,,,,,,,,,,,,,,,,,,,
,,,,,,00101,2023-11-27_08h14.46.362,vbt_B2_day1,2022.2.4,MacIntel,60.0024001,,,,,,,,,,,,,,,,,,,0.010542535,-0.330360243,1,0,0,0.8,1,20,46,13,1,n,images/br_n.png,images/cb_n.png,,,,,,,,,,,,,,,,,,,,,,,,,
,,,,,,00101,2023-11-27_08h14.46.362,vbt_B2_day1,2022.2.4,MacIntel,60.0024001,,,,,,,,,,,,,,,,,,,0.010542535,-0.330360243,1,0,0,1.165,1,21,47,25,1,z,images/br_z.png,images/cb_z.png,,,,,,,,,,,,,,,,,,,,,,,,,
,,,,,,00101,2023-11-27_08h14.46.362,vbt_B2_day1,2022.2.4,MacIntel,60.0024001,,,,,,,,,,,,,,,,,,,0.010542535,-0.330360243,1,0,0,0.3981,1,22,48,22,1,w,images/br_w.png,images/cb_w.png,,,,,,,,,,,,,,,,,,,,,,,,,
,,,,,,00101,2023-11-27_08h14.46.362,vbt_B2_day1,2022.2.4,MacIntel,60.0024001,,,,,,,,,,,,,,,,,,,0.010542535,-0.330360243,1,0,0,1.0636,1,23,49,18,1,s,images/br_s.png,images/cb_s.png,,,,,,,,,,,,,,,,,,,,,,,,,
,,,,,,00101,2023-11-27_08h14.46.362,vbt_B2_day1,2022.2.4,MacIntel,60.0024001,,,,,,,,,,,,,,,,,,,0.010542535,-0.330360243,1,0,0,0.9151,1,24,50,12,1,m,images/br_m.png,images/cb_m.png,,,,,,,,,,,,,,,,,,,,,,,,,
,,,,,,00101,2023-11-27_08h14.46.362,vbt_B2_day1,2022.2.4,MacIntel,60.0024001,,,,,,,,,,,,,,,,,,,0.010542535,-0.330360243,1,0,0,0.8338,1,25,51,23,1,x,images/br_x.png,images/cb_x.png,,,,,,,,,,,,,,,,,,,,,,,,,
,,,,,,00101,2023-11-27_08h14.46.362,vbt_B2_day1,2022.2.4,MacIntel,60.0024001,,,,,,,,,,,,,,,,,,,0.010802951,-0.331297743,1,0,0,0.2181,2,0,52,16,1,q,images/br_q.png,images/cb_q.png,,,,,,,,,,,,,,,,,,,,,,,,,
,,,,,,00101,2023-11-27_08h14.46.362,vbt_B2_day1,2022.2.4,MacIntel,60.0024001,,,,,,,,,,,,,,,,,,,0.010802951,-0.331297743,1,0,0,0.1488,2,1,53,6,1,g,images/br_g.png,images/cb_g.png,,,,,,,,,,,,,,,,,,,,,,,,,
,,,,,,00101,2023-11-27_08h14.46.362,vbt_B2_day1,2022.2.4,MacIntel,60.0024001,,,,,,,,,,,,,,,,,,,0.010802951,-0.331297743,1,0,0,1.9491,2,2,54,0,1,a,images/br_a.png,images/cb_a.png,,,,,,,,,,,,,,,,,,,,,,,,,
,,,,,,00101,2023-11-27_08h14.46.362,vbt_B2_day1,2022.2.4,MacIntel,60.0024001,,,,,,,,,,,,,,,,,,,0.019835069,-0.308715278,1,0,0,1.2023,2,3,55,8,1,i,images/br_i.png,images/cb_i.png,,,,,,,,,,,,,,,,,,,,,,,,,
,,,,,,00101,2023-11-27_08h14.46.362,vbt_B2_day1,2022.2.4,MacIntel,60.0024001,,,,,,,,,,,,,,,,,,,0.019835069,-0.308715278,1,0,0,0.2337,2,4,56,1,1,b,images/br_b.png,images/cb_b.png,,,,,,,,,,,,,,,,,,,,,,,,,
,,,,,,00101,2023-11-27_08h14.46.362,vbt_B2_day1,2022.2.4,MacIntel,60.0024001,,,,,,,,,,,,,,,,,,,0.020364583,-0.302534722,1,0,0,0.1486,2,5,57,3,1,d,images/br_d.png,images/cb_d.png,,,,,,,,,,,,,,,,,,,,,,,,,
,,,,,,00101,2023-11-27_08h14.46.362,vbt_B2_day1,2022.2.4,MacIntel,60.0024001,,,,,,,,,,,,,,,,,,,0.020364583,-0.302534722,1,0,0,0.3673,2,6,58,22,1,w,images/br_w.png,images/cb_w.png,,,,,,,,,,,,,,,,,,,,,,,,,
,,,,,,00101,2023-11-27_08h14.46.362,vbt_B2_day1,2022.2.4,MacIntel,60.0024001,,,,,,,,,,,,,,,,,,,0.020364583,-0.302534722,1,0,0,1.2824,2,7,59,11,1,l,images/br_l.png,images/cb_l.png,,,,,,,,,,,,,,,,,,,,,,,,,
,,,,,,00101,2023-11-27_08h14.46.362,vbt_B2_day1,2022.2.4,MacIntel,60.0024001,,,,,,,,,,,,,,,,,,,0.020364583,-0.302534722,1,0,0,0.4005,2,8,60,15,1,p,images/br_p.png,images/cb_p.png,,,,,,,,,,,,,,,,,,,,,,,,,
,,,,,,00101,2023-11-27_08h14.46.362,vbt_B2_day1,2022.2.4,MacIntel,60.0024001,,,,,,,,,,,,,,,,,,,0.020364583,-0.302534722,1,0,0,0.0834,2,9,61,12,1,m,images/br_m.png,images/cb_m.png,,,,,,,,,,,,,,,,,,,,,,,,,
,,,,,,00101,2023-11-27_08h14.46.362,vbt_B2_day1,2022.2.4,MacIntel,60.0024001,,,,,,,,,,,,,,,,,,,0.020364583,-0.302534722,1,0,0,0.3983,2,10,62,2,1,c,images/br_c.png,images/cb_c.png,,,,,,,,,,,,,,,,,,,,,,,,,
,,,,,,00101,2023-11-27_08h14.46.362,vbt_B2_day1,2022.2.4,MacIntel,60.0024001,,,,,,,,,,,,,,,,,,,0.020364583,-0.302534722,1,0,0,0.6158,2,11,63,20,1,u,images/br_u.png,images/cb_u.png,,,,,,,,,,,,,,,,,,,,,,,,,
,,,,,,00101,2023-11-27_08h14.46.362,vbt_B2_day1,2022.2.4,MacIntel,60.0024001,,,,,,,,,,,,,,,,,,,0.020364583,-0.302534722,1,0,0,0.7005,2,12,64,10,1,k,images/br_k.png,images/cb_k.png,,,,,,,,,,,,,,,,,,,,,,,,,
,,,,,,00101,2023-11-27_08h14.46.362,vbt_B2_day1,2022.2.4,MacIntel,60.0024001,,,,,,,,,,,,,,,,,,,0.020364583,-0.302534722,1,0,0,0.0329,2,13,65,23,1,x,images/br_x.png,images/cb_x.png,,,,,,,,,,,,,,,,,,,,,,,,,
,,,,,,00101,2023-11-27_08h14.46.362,vbt_B2_day1,2022.2.4,MacIntel,60.0024001,,,,,,,,,,,,,,,,,,,0.020364583,-0.302534722,1,0,0,0.1511,2,14,66,14,1,o,images/br_o.png,images/cb_o.png,,,,,,,,,,,,,,,,,,,,,,,,,
,,,,,,00101,2023-11-27_08h14.46.362,vbt_B2_day1,2022.2.4,MacIntel,60.0024001,,,,,,,,,,,,,,,,,,,0.020364583,-0.302534722,1,0,0,0.7301,2,15,67,18,1,s,images/br_s.png,images/cb_s.png,,,,,,,,,,,,,,,,,,,,,,,,,
,,,,,,00101,2023-11-27_08h14.46.362,vbt_B2_day1,2022.2.4,MacIntel,60.0024001,,,,,,,,,,,,,,,,,,,0.020364583,-0.302534722,1,0,0,0.6178,2,16,68,5,1,f,images/br_f.png,images/cb_f.png,,,,,,,,,,,,,,,,,,,,,,,,,
,,,,,,00101,2023-11-27_08h14.46.362,vbt_B2_day1,2022.2.4,MacIntel,60.0024001,,,,,,,,,,,,,,,,,,,0.020364583,-0.302534722,1,0,0,0.3151,2,17,69,24,1,y,images/br_y.png,images/cb_y.png,,,,,,,,,,,,,,,,,,,,,,,,,
,,,,,,00101,2023-11-27_08h14.46.362,vbt_B2_day1,2022.2.4,MacIntel,60.0024001,,,,,,,,,,,,,,,,,,,0.020364583,-0.302534722,1,0,0,0.4144,2,18,70,25,1,z,images/br_z.png,images/cb_z.png,,,,,,,,,,,,,,,,,,,,,,,,,
,,,,,,00101,2023-11-27_08h14.46.362,vbt_B2_day1,2022.2.4,MacIntel,60.0024001,,,,,,,,,,,,,,,,,,,0.020364583,-0.301445313,1,0,0,0.1486,2,19,71,21,1,v,images/br_v.png,images/cb_v.png,,,,,,,,,,,,,,,,,,,,,,,,,
,,,,,,00101,2023-11-27_08h14.46.362,vbt_B2_day1,2022.2.4,MacIntel,60.0024001,,,,,,,,,,,,,,,,,,,0.020364583,-0.301445313,1,0,0,0.9009,2,20,72,19,1,t,images/br_t.png,images/cb_t.png,,,,,,,,,,,,,,,,,,,,,,,,,
,,,,,,00101,2023-11-27_08h14.46.362,vbt_B2_day1,2022.2.4,MacIntel,60.0024001,,,,,,,,,,,,,,,,,,,0.020364583,-0.301445313,1,0,0,0.5166,2,21,73,9,1,j,images/br_j.png,images/cb_j.png,,,,,,,,,,,,,,,,,,,,,,,,,
,,,,,,00101,2023-11-27_08h14.46.362,vbt_B2_day1,2022.2.4,MacIntel,60.0024001,,,,,,,,,,,,,,,,,,,0.020364583,-0.301445313,1,0,0,0.6992,2,22,74,7,1,h,images/br_h.png,images/cb_h.png,,,,,,,,,,,,,,,,,,,,,,,,,
,,,,,,00101,2023-11-27_08h14.46.362,vbt_B2_day1,2022.2.4,MacIntel,60.0024001,,,,,,,,,,,,,,,,,,,0.020364583,-0.301445313,1,0,0,1.6004,2,23,75,4,1,e,images/br_e.png,images/cb_e.png,,,,,,,,,,,,,,,,,,,,,,,,,
,,,,,,00101,2023-11-27_08h14.46.362,vbt_B2_day1,2022.2.4,MacIntel,60.0024001,,,,,,,,,,,,,,,,,,,0.020364583,-0.301445313,1,0,0,0.1006,2,24,76,13,1,n,images/br_n.png,images/cb_n.png,,,,,,,,,,,,,,,,,,,,,,,,,
,,,,,,00101,2023-11-27_08h14.46.362,vbt_B2_day1,2022.2.4,MacIntel,60.0024001,,,,,,,,,,,,,,,,,,,0.020364583,-0.301445313,1,0,0,0.0636,2,25,77,17,1,r,images/br_r.png,images/cb_r.png,,,,,,,,,,,,,,,,,,,,,,,,,
,,,,,,00101,2023-11-27_08h14.46.362,vbt_B2_day1,2022.2.4,MacIntel,60.0024001,,,,,,,,,,,,,,,,,,,0.020364583,-0.301445313,1,0,0,0.5658,3,0,78,20,1,u,images/br_u.png,images/cb_u.png,,,,,,,,,,,,,,,,,,,,,,,,,
,,,,,,00101,2023-11-27_08h14.46.362,vbt_B2_day1,2022.2.4,MacIntel,60.0024001,,,,,,,,,,,,,,,,,,,0.020364583,-0.301445313,1,0,0,0.5666,3,1,79,16,1,q,images/br_q.png,images/cb_q.png,,,,,,,,,,,,,,,,,,,,,,,,,
,,,,,,00101,2023-11-27_08h14.46.362,vbt_B2_day1,2022.2.4,MacIntel,60.0024001,,,,,,,,,,,,,,,,,,,0.020364583,-0.301445313,1,0,0,0.5499,3,2,80,7,1,h,images/br_h.png,images/cb_h.png,,,,,,,,,,,,,,,,,,,,,,,,,
,,,,,,00101,2023-11-27_08h14.46.362,vbt_B2_day1,2022.2.4,MacIntel,60.0024001,,,,,,,,,,,,,,,,,,,0.020364583,-0.301445313,1,0,0,1.3005,3,3,81,15,1,p,images/br_p.png,images/cb_p.png,,,,,,,,,,,,,,,,,,,,,,,,,
,,,,,,00101,2023-11-27_08h14.46.362,vbt_B2_day1,2022.2.4,MacIntel,60.0024001,,,,,,,,,,,,,,,,,,,0.020364583,-0.301445313,1,0,0,0.2157,3,4,82,2,1,c,images/br_c.png,images/cb_c.png,,,,,,,,,,,,,,,,,,,,,,,,,
,,,,,,00101,2023-11-27_08h14.46.362,vbt_B2_day1,2022.2.4,MacIntel,60.0024001,,,,,,,,,,,,,,,,,,,0.020364583,-0.301445313,1,0,0,0.6647,3,5,83,4,1,e,images/br_e.png,images/cb_e.png,,,,,,,,,,,,,,,,,,,,,,,,,
,,,,,,00101,2023-11-27_08h14.46.362,vbt_B2_day1,2022.2.4,MacIntel,60.0024001,,,,,,,,,,,,,,,,,,,0.020364583,-0.301445313,1,0,0,0.3843,3,6,84,6,1,g,images/br_g.png,images/cb_g.png,,,,,,,,,,,,,,,,,,,,,,,,,
,,,,,,00101,2023-11-27_08h14.46.362,vbt_B2_day1,2022.2.4,MacIntel,60.0024001,,,,,,,,,,,,,,,,,,,0.020364583,-0.301445313,1,0,0,0.4674,3,7,85,24,1,y,images/br_y.png,images/cb_y.png,,,,,,,,,,,,,,,,,,,,,,,,,
,,,,,,00101,2023-11-27_08h14.46.362,vbt_B2_day1,2022.2.4,MacIntel,60.0024001,,,,,,,,,,,,,,,,,,,0.020364583,-0.301445313,1,0,0,0.5974,3,8,86,0,1,a,images/br_a.png,images/cb_a.png,,,,,,,,,,,,,,,,,,,,,,,,,
,,,,,,00101,2023-11-27_08h14.46.362,vbt_B2_day1,2022.2.4,MacIntel,60.0024001,,,,,,,,,,,,,,,,,,,0.020364583,-0.301445313,1,0,0,0.4988,3,9,87,3,1,d,images/br_d.png,images/cb_d.png,,,,,,,,,,,,,,,,,,,,,,,,,
,,,,,,00101,2023-11-27_08h14.46.362,vbt_B2_day1,2022.2.4,MacIntel,60.0024001,,,,,,,,,,,,,,,,,,,0.020364583,-0.301445313,1,0,0,0.1838,3,10,88,12,1,m,images/br_m.png,images/cb_m.png,,,,,,,,,,,,,,,,,,,,,,,,,
,,,,,,00101,2023-11-27_08h14.46.362,vbt_B2_day1,2022.2.4,MacIntel,60.0024001,,,,,,,,,,,,,,,,,,,0.020364583,-0.301445313,1,0,0,0.2819,3,11,89,1,1,b,images/br_b.png,images/cb_b.png,,,,,,,,,,,,,,,,,,,,,,,,,
,,,,,,00101,2023-11-27_08h14.46.362,vbt_B2_day1,2022.2.4,MacIntel,60.0024001,,,,,,,,,,,,,,,,,,,0.020364583,-0.301445313,1,0,0,0.6148,3,12,90,22,1,w,images/br_w.png,images/cb_w.png,,,,,,,,,,,,,,,,,,,,,,,,,
,,,,,,00101,2023-11-27_08h14.46.362,vbt_B2_day1,2022.2.4,MacIntel,60.0024001,,,,,,,,,,,,,,,,,,,0.020364583,-0.301445313,1,0,0,0.8169,3,13,91,21,1,v,images/br_v.png,images/cb_v.png,,,,,,,,,,,,,,,,,,,,,,,,,
,,,,,,00101,2023-11-27_08h14.46.362,vbt_B2_day1,2022.2.4,MacIntel,60.0024001,,,,,,,,,,,,,,,,,,,0.020364583,-0.301445313,1,0,0,0.4994,3,14,92,13,1,n,images/br_n.png,images/cb_n.png,,,,,,,,,,,,,,,,,,,,,,,,,
,,,,,,00101,2023-11-27_08h14.46.362,vbt_B2_day1,2022.2.4,MacIntel,60.0024001,,,,,,,,,,,,,,,,,,,0.020364583,-0.301445313,1,0,0,0.1501,3,15,93,10,1,k,images/br_k.png,images/cb_k.png,,,,,,,,,,,,,,,,,,,,,,,,,
,,,,,,00101,2023-11-27_08h14.46.362,vbt_B2_day1,2022.2.4,MacIntel,60.0024001,,,,,,,,,,,,,,,,,,,0.020364583,-0.301445313,1,0,0,0.9659,3,16,94,23,1,x,images/br_x.png,images/cb_x.png,,,,,,,,,,,,,,,,,,,,,,,,,
,,,,,,00101,2023-11-27_08h14.46.362,vbt_B2_day1,2022.2.4,MacIntel,60.0024001,,,,,,,,,,,,,,,,,,,0.020364583,-0.301445313,1,0,0,1.2335,3,17,95,25,1,z,images/br_z.png,images/cb_z.png,,,,,,,,,,,,,,,,,,,,,,,,,
,,,,,,00101,2023-11-27_08h14.46.362,vbt_B2_day1,2022.2.4,MacIntel,60.0024001,,,,,,,,,,,,,,,,,,,0.020364583,-0.301445313,1,0,0,0.2663,3,18,96,14,1,o,images/br_o.png,images/cb_o.png,,,,,,,,,,,,,,,,,,,,,,,,,
,,,,,,00101,2023-11-27_08h14.46.362,vbt_B2_day1,2022.2.4,MacIntel,60.0024001,,,,,,,,,,,,,,,,,,,0.020364583,-0.301445313,1,0,0,0.2332,3,19,97,11,1,l,images/br_l.png,images/cb_l.png,,,,,,,,,,,,,,,,,,,,,,,,,
,,,,,,00101,2023-11-27_08h14.46.362,vbt_B2_day1,2022.2.4,MacIntel,60.0024001,,,,,,,,,,,,,,,,,,,0.020364583,-0.301445313,1,0,0,1.0506,3,20,98,5,1,f,images/br_f.png,images/cb_f.png,,,,,,,,,,,,,,,,,,,,,,,,,
,,,,,,00101,2023-11-27_08h14.46.362,vbt_B2_day1,2022.2.4,MacIntel,60.0024001,,,,,,,,,,,,,,,,,,,0.020364583,-0.301445313,1,0,0,0.9823,3,21,99,19,1,t,images/br_t.png,images/cb_t.png,,,,,,,,,,,,,,,,,,,,,,,,,
,,,,,,00101,2023-11-27_08h14.46.362,vbt_B2_day1,2022.2.4,MacIntel,60.0024001,,,,,,,,,,,,,,,,,,,0.020364583,-0.301445313,1,0,0,0.1669,3,22,100,8,1,i,images/br_i.png,images/cb_i.png,,,,,,,,,,,,,,,,,,,,,,,,,
,,,,,,00101,2023-11-27_08h14.46.362,vbt_B2_day1,2022.2.4,MacIntel,60.0024001,,,,,,,,,,,,,,,,,,,0.020364583,-0.301445313,1,0,0,0.5656,3,23,101,17,1,r,images/br_r.png,images/cb_r.png,,,,,,,,,,,,,,,,,,,,,,,,,
,,,,,,00101,2023-11-27_08h14.46.362,vbt_B2_day1,2022.2.4,MacIntel,60.0024001,,,,,,,,,,,,,,,,,,,0.020364583,-0.301445313,1,0,0,0.3337,3,24,102,9,1,j,images/br_j.png,images/cb_j.png,,,,,,,,,,,,,,,,,,,,,,,,,
,,,,,,00101,2023-11-27_08h14.46.362,vbt_B2_day1,2022.2.4,MacIntel,60.0024001,,,,,,,,,,,,,,,,,,,0.020364583,-0.301445313,1,0,0,0.0679,3,25,103,18,1,s,images/br_s.png,images/cb_s.png,,,,,,,,,,,,,,,,,,,,,,,,,
,,,,,,00101,2023-11-27_08h14.46.362,vbt_B2_day1,2022.2.4,MacIntel,60.0024001,,,,,,,,,,,,,,,,,,,0.020364583,-0.301445313,1,0,0,0.0841,4,0,104,21,1,v,images/br_v.png,images/cb_v.png,,,,,,,,,,,,,,,,,,,,,,,,,
,,,,,,00101,2023-11-27_08h14.46.362,vbt_B2_day1,2022.2.4,MacIntel,60.0024001,,,,,,,,,,,,,,,,,,,0.020364583,-0.301445313,1,0,0,0.5998,4,1,105,12,1,m,images/br_m.png,images/cb_m.png,,,,,,,,,,,,,,,,,,,,,,,,,
,,,,,,00101,2023-11-27_08h14.46.362,vbt_B2_day1,2022.2.4,MacIntel,60.0024001,,,,,,,,,,,,,,,,,,,0.020364583,-0.301445313,1,0,0,0.202,4,2,106,4,1,e,images/br_e.png,images/cb_e.png,,,,,,,,,,,,,,,,,,,,,,,,,
,,,,,,00101,2023-11-27_08h14.46.362,vbt_B2_day1,2022.2.4,MacIntel,60.0024001,,,,,,,,,,,,,,,,,,,0.020364583,-0.301445313,1,0,0,0.8342,4,3,107,11,1,l,images/br_l.png,images/cb_l.png,,,,,,,,,,,,,,,,,,,,,,,,,
,,,,,,00101,2023-11-27_08h14.46.362,vbt_B2_day1,2022.2.4,MacIntel,60.0024001,,,,,,,,,,,,,,,,,,,0.020364583,-0.301445313,1,0,0,0.3334,4,4,108,0,1,a,images/br_a.png,images/cb_a.png,,,,,,,,,,,,,,,,,,,,,,,,,
,,,,,,00101,2023-11-27_08h14.46.362,vbt_B2_day1,2022.2.4,MacIntel,60.0024001,,,,,,,,,,,,,,,,,,,0.020364583,-0.301445313,1,0,0,0.2343,4,5,109,14,1,o,images/br_o.png,images/cb_o.png,,,,,,,,,,,,,,,,,,,,,,,,,
,,,,,,00101,2023-11-27_08h14.46.362,vbt_B2_day1,2022.2.4,MacIntel,60.0024001,,,,,,,,,,,,,,,,,,,0.020364583,-0.301445313,1,0,0,0.4506,4,6,110,7,1,h,images/br_h.png,images/cb_h.png,,,,,,,,,,,,,,,,,,,,,,,,,
,,,,,,00101,2023-11-27_08h14.46.362,vbt_B2_day1,2022.2.4,MacIntel,60.0024001,,,,,,,,,,,,,,,,,,,0.020364583,-0.301445313,1,0,0,0.5335,4,7,111,13,1,n,images/br_n.png,images/cb_n.png,,,,,,,,,,,,,,,,,,,,,,,,,
,,,,,,00101,2023-11-27_08h14.46.362,vbt_B2_day1,2022.2.4,MacIntel,60.0024001,,,,,,,,,,,,,,,,,,,0.020364583,-0.301445313,1,0,0,0.5999,4,8,112,22,1,w,images/br_w.png,images/cb_w.png,,,,,,,,,,,,,,,,,,,,,,,,,
,,,,,,00101,2023-11-27_08h14.46.362,vbt_B2_day1,2022.2.4,MacIntel,60.0024001,,,,,,,,,,,,,,,,,,,0.020364583,-0.301445313,1,0,0,1.0829,4,9,113,25,1,z,images/br_z.png,images/cb_z.png,,,,,,,,,,,,,,,,,,,,,,,,,
,,,,,,00101,2023-11-27_08h14.46.362,vbt_B2_day1,2022.2.4,MacIntel,60.0024001,,,,,,,,,,,,,,,,,,,0.020364583,-0.301445313,1,0,0,0.534,4,10,114,2,1,c,images/br_c.png,images/cb_c.png,,,,,,,,,,,,,,,,,,,,,,,,,
,,,,,,00101,2023-11-27_08h14.46.362,vbt_B2_day1,2022.2.4,MacIntel,60.0024001,,,,,,,,,,,,,,,,,,,0.020364583,-0.301445313,1,0,0,0.4996,4,11,115,17,1,r,images/br_r.png,images/cb_r.png,,,,,,,,,,,,,,,,,,,,,,,,,
,,,,,,00101,2023-11-27_08h14.46.362,vbt_B2_day1,2022.2.4,MacIntel,60.0024001,,,,,,,,,,,,,,,,,,,0.020364583,-0.301445313,1,0,0,0.8189,4,12,116,20,1,u,images/br_u.png,images/cb_u.png,,,,,,,,,,,,,,,,,,,,,,,,,
,,,,,,00101,2023-11-27_08h14.46.362,vbt_B2_day1,2022.2.4,MacIntel,60.0024001,,,,,,,,,,,,,,,,,,,0.020364583,-0.301445313,1,0,0,0.1504,4,13,117,24,1,y,images/br_y.png,images/cb_y.png,,,,,,,,,,,,,,,,,,,,,,,,,
,,,,,,00101,2023-11-27_08h14.46.362,vbt_B2_day1,2022.2.4,MacIntel,60.0024001,,,,,,,,,,,,,,,,,,,0.020364583,-0.301445313,1,0,0,0.2495,4,14,118,3,1,d,images/br_d.png,images/cb_d.png,,,,,,,,,,,,,,,,,,,,,,,,,
,,,,,,00101,2023-11-27_08h14.46.362,vbt_B2_day1,2022.2.4,MacIntel,60.0024001,,,,,,,,,,,,,,,,,,,0.020364583,-0.301445313,1,0,0,0.1996,4,15,119,18,1,s,images/br_s.png,images/cb_s.png,,,,,,,,,,,,,,,,,,,,,,,,,
,,,,,,00101,2023-11-27_08h14.46.362,vbt_B2_day1,2022.2.4,MacIntel,60.0024001,,,,,,,,,,,,,,,,,,,0.020364583,-0.301445313,1,0,0,0.3509,4,16,120,16,1,q,images/br_q.png,images/cb_q.png,,,,,,,,,,,,,,,,,,,,,,,,,
,,,,,,00101,2023-11-27_08h14.46.362,vbt_B2_day1,2022.2.4,MacIntel,60.0024001,,,,,,,,,,,,,,,,,,,0.020364583,-0.301445313,1,0,0,0.5003,4,17,121,10,1,k,images/br_k.png,images/cb_k.png,,,,,,,,,,,,,,,,,,,,,,,,,
,,,,,,00101,2023-11-27_08h14.46.362,vbt_B2_day1,2022.2.4,MacIntel,60.0024001,,,,,,,,,,,,,,,,,,,0.020364583,-0.301445313,1,0,0,0.1987,4,18,122,15,1,p,images/br_p.png,images/cb_p.png,,,,,,,,,,,,,,,,,,,,,,,,,
,,,,,,00101,2023-11-27_08h14.46.362,vbt_B2_day1,2022.2.4,MacIntel,60.0024001,,,,,,,,,,,,,,,,,,,0.020364583,-0.301445313,1,0,0,0.483,4,19,123,9,1,j,images/br_j.png,images/cb_j.png,,,,,,,,,,,,,,,,,,,,,,,,,
,,,,,,00101,2023-11-27_08h14.46.362,vbt_B2_day1,2022.2.4,MacIntel,60.0024001,,,,,,,,,,,,,,,,,,,0.020364583,-0.301445313,1,0,0,1.5676,4,20,124,1,1,b,images/br_b.png,images/cb_b.png,,,,,,,,,,,,,,,,,,,,,,,,,
,,,,,,00101,2023-11-27_08h14.46.362,vbt_B2_day1,2022.2.4,MacIntel,60.0024001,,,,,,,,,,,,,,,,,,,0.020364583,-0.301445313,1,0,0,0.0842,4,21,125,23,1,x,images/br_x.png,images/cb_x.png,,,,,,,,,,,,,,,,,,,,,,,,,
,,,,,,00101,2023-11-27_08h14.46.362,vbt_B2_day1,2022.2.4,MacIntel,60.0024001,,,,,,,,,,,,,,,,,,,0.020364583,-0.301445313,1,0,0,0.486,4,22,126,5,1,f,images/br_f.png,images/cb_f.png,,,,,,,,,,,,,,,,,,,,,,,,,
,,,,,,00101,2023-11-27_08h14.46.362,vbt_B2_day1,2022.2.4,MacIntel,60.0024001,,,,,,,,,,,,,,,,,,,0.020364583,-0.301445313,1,0,0,0.2997,4,23,127,19,1,t,images/br_t.png,images/cb_t.png,,,,,,,,,,,,,,,,,,,,,,,,,
,,,,,,00101,2023-11-27_08h14.46.362,vbt_B2_day1,2022.2.4,MacIntel,60.0024001,,,,,,,,,,,,,,,,,,,0.020364583,-0.301445313,1,0,0,0.5862,4,24,128,6,1,g,images/br_g.png,images/cb_g.png,,,,,,,,,,,,,,,,,,,,,,,,,
,,,,,,00101,2023-11-27_08h14.46.362,vbt_B2_day1,2022.2.4,MacIntel,60.0024001,,,,,,,,,,,,,,,,,,,0.020364583,-0.301445313,1,0,0,0.0491,4,25,129,8,1,i,images/br_i.png,images/cb_i.png,,,,,,,,,,,,,,,,,,,,,,,,,
,,,,,,00101,2023-11-27_08h14.46.362,vbt_B2_day1,2022.2.4,MacIntel,60.0024001,,,,,,,,,,,,,,,,,,,0.020364583,-0.301445313,1,0,0,0.3138,5,0,130,11,1,l,images/br_l.png,images/cb_l.png,,,,,,,,,,,,,,,,,,,,,,,,,
,,,,,,00101,2023-11-27_08h14.46.362,vbt_B2_day1,2022.2.4,MacIntel,60.0024001,,,,,,,,,,,,,,,,,,,0.020364583,-0.301445313,1,0,0,0.267,5,1,131,0,1,a,images/br_a.png,images/cb_a.png,,,,,,,,,,,,,,,,,,,,,,,,,
,,,,,,00101,2023-11-27_08h14.46.362,vbt_B2_day1,2022.2.4,MacIntel,60.0024001,,,,,,,,,,,,,,,,,,,0.020364583,-0.301445313,1,0,0,0.0153,5,2,132,25,1,z,images/br_z.png,images/cb_z.png,,,,,,,,,,,,,,,,,,,,,,,,,
,,,,,,00101,2023-11-27_08h14.46.362,vbt_B2_day1,2022.2.4,MacIntel,60.0024001,,,,,,,,,,,,,,,,,,,0.020364583,-0.301445313,1,0,0,0.3484,5,3,133,22,1,w,images/br_w.png,images/cb_w.png,,,,,,,,,,,,,,,,,,,,,,,,,
,,,,,,00101,2023-11-27_08h14.46.362,vbt_B2_day1,2022.2.4,MacIntel,60.0024001,,,,,,,,,,,,,,,,,,,0.020364583,-0.301445313,1,0,0,0.8013,5,4,134,13,1,n,images/br_n.png,images/cb_n.png,,,,,,,,,,,,,,,,,,,,,,,,,
,,,,,,00101,2023-11-27_08h14.46.362,vbt_B2_day1,2022.2.4,MacIntel,60.0024001,,,,,,,,,,,,,,,,,,,0.020364583,-0.301445313,1,0,0,1.1333,5,5,135,3,1,d,images/br_d.png,images/cb_d.png,,,,,,,,,,,,,,,,,,,,,,,,,
,,,,,,00101,2023-11-27_08h14.46.362,vbt_B2_day1,2022.2.4,MacIntel,60.0024001,,,,,,,,,,,,,,,,,,,0.020364583,-0.301445313,1,0,0,0.6807,5,6,136,6,1,g,images/br_g.png,images/cb_g.png,,,,,,,,,,,,,,,,,,,,,,,,,
,,,,,,00101,2023-11-27_08h14.46.362,vbt_B2_day1,2022.2.4,MacIntel,60.0024001,,,,,,,,,,,,,,,,,,,0.020364583,-0.301445313,1,0,0,0.2336,5,7,137,14,1,o,images/br_o.png,images/cb_o.png,,,,,,,,,,,,,,,,,,,,,,,,,
,,,,,,00101,2023-11-27_08h14.46.362,vbt_B2_day1,2022.2.4,MacIntel,60.0024001,,,,,,,,,,,,,,,,,,,0.020364583,-0.301445313,1,0,0,0.6318,5,8,138,1,1,b,images/br_b.png,images/cb_b.png,,,,,,,,,,,,,,,,,,,,,,,,,
,,,,,,00101,2023-11-27_08h14.46.362,vbt_B2_day1,2022.2.4,MacIntel,60.0024001,,,,,,,,,,,,,,,,,,,0.020364583,-0.301445313,1,0,0,0.3516,5,9,139,24,1,y,images/br_y.png,images/cb_y.png,,,,,,,,,,,,,,,,,,,,,,,,,
,,,,,,00101,2023-11-27_08h14.46.362,vbt_B2_day1,2022.2.4,MacIntel,60.0024001,,,,,,,,,,,,,,,,,,,0.020364583,-0.301445313,1,0,0,0.1009,5,10,140,4,1,e,images/br_e.png,images/cb_e.png,,,,,,,,,,,,,,,,,,,,,,,,,
,,,,,,00101,2023-11-27_08h14.46.362,vbt_B2_day1,2022.2.4,MacIntel,60.0024001,,,,,,,,,,,,,,,,,,,0.020364583,-0.301445313,1,0,0,0.4997,5,11,141,18,1,s,images/br_s.png,images/cb_s.png,,,,,,,,,,,,,,,,,,,,,,,,,
,,,,,,00101,2023-11-27_08h14.46.362,vbt_B2_day1,2022.2.4,MacIntel,60.0024001,,,,,,,,,,,,,,,,,,,0.020364583,-0.301445313,1,0,0,0.2815,5,12,142,9,1,j,images/br_j.png,images/cb_j.png,,,,,,,,,,,,,,,,,,,,,,,,,
,,,,,,00101,2023-11-27_08h14.46.362,vbt_B2_day1,2022.2.4,MacIntel,60.0024001,,,,,,,,,,,,,,,,,,,0.020364583,-0.301445313,1,0,0,0.0156,5,13,143,2,1,c,images/br_c.png,images/cb_c.png,,,,,,,,,,,,,,,,,,,,,,,,,
,,,,,,00101,2023-11-27_08h14.46.362,vbt_B2_day1,2022.2.4,MacIntel,60.0024001,,,,,,,,,,,,,,,,,,,0.020364583,-0.301445313,1,0,0,0.2654,5,14,144,10,1,k,images/br_k.png,images/cb_k.png,,,,,,,,,,,,,,,,,,,,,,,,,
,,,,,,00101,2023-11-27_08h14.46.362,vbt_B2_day1,2022.2.4,MacIntel,60.0024001,,,,,,,,,,,,,,,,,,,0.020364583,-0.301445313,1,0,0,0.3653,5,15,145,5,1,f,images/br_f.png,images/cb_f.png,,,,,,,,,,,,,,,,,,,,,,,,,
,,,,,,00101,2023-11-27_08h14.46.362,vbt_B2_day1,2022.2.4,MacIntel,60.0024001,,,,,,,,,,,,,,,,,,,0.020364583,-0.301445313,1,0,0,0.3673,5,16,146,20,1,u,images/br_u.png,images/cb_u.png,,,,,,,,,,,,,,,,,,,,,,,,,
,,,,,,00101,2023-11-27_08h14.46.362,vbt_B2_day1,2022.2.4,MacIntel,60.0024001,,,,,,,,,,,,,,,,,,,0.020364583,-0.301445313,1,0,0,0.3028,5,17,147,21,1,v,images/br_v.png,images/cb_v.png,,,,,,,,,,,,,,,,,,,,,,,,,
,,,,,,00101,2023-11-27_08h14.46.362,vbt_B2_day1,2022.2.4,MacIntel,60.0024001,,,,,,,,,,,,,,,,,,,0.020364583,-0.301445313,1,0,0,0.3643,5,18,148,8,1,i,images/br_i.png,images/cb_i.png,,,,,,,,,,,,,,,,,,,,,,,,,
,,,,,,00101,2023-11-27_08h14.46.362,vbt_B2_day1,2022.2.4,MacIntel,60.0024001,,,,,,,,,,,,,,,,,,,0.020364583,-0.301445313,1,0,0,0.336,5,19,149,7,1,h,images/br_h.png,images/cb_h.png,,,,,,,,,,,,,,,,,,,,,,,,,
,,,,,,00101,2023-11-27_08h14.46.362,vbt_B2_day1,2022.2.4,MacIntel,60.0024001,,,,,,,,,,,,,,,,,,,0.020364583,-0.301445313,1,0,0,0.0819,5,20,150,15,1,p,images/br_p.png,images/cb_p.png,,,,,,,,,,,,,,,,,,,,,,,,,
,,,,,,00101,2023-11-27_08h14.46.362,vbt_B2_day1,2022.2.4,MacIntel,60.0024001,,,,,,,,,,,,,,,,,,,0.020364583,-0.301445313,1,0,0,0.4861,5,21,151,19,1,t,images/br_t.png,images/cb_t.png,,,,,,,,,,,,,,,,,,,,,,,,,
,,,,,,00101,2023-11-27_08h14.46.362,vbt_B2_day1,2022.2.4,MacIntel,60.0024001,,,,,,,,,,,,,,,,,,,0.020364583,-0.301445313,1,0,0,0.0336,5,22,152,17,1,r,images/br_r.png,images/cb_r.png,,,,,,,,,,,,,,,,,,,,,,,,,
,,,,,,00101,2023-11-27_08h14.46.362,vbt_B2_day1,2022.2.4,MacIntel,60.0024001,,,,,,,,,,,,,,,,,,,0.020364583,-0.301445313,1,0,0,0.0495,5,23,153,12,1,m,images/br_m.png,images/cb_m.png,,,,,,,,,,,,,,,,,,,,,,,,,
,,,,,,00101,2023-11-27_08h14.46.362,vbt_B2_day1,2022.2.4,MacIntel,60.0024001,,,,,,,,,,,,,,,,,,,0.020364583,-0.301445313,1,0,0,0.2685,5,24,154,23,1,x,images/br_x.png,images/cb_x.png,,,,,,,,,,,,,,,,,,,,,,,,,
,,,,,,00101,2023-11-27_08h14.46.362,vbt_B2_day1,2022.2.4,MacIntel,60.0024001,,,,,,,,,,,,,,,,,,,0.020364583,-0.301445313,1,0,0,0.098,5,25,155,16,1,q,images/br_q.png,images/cb_q.png,,,,,,,,,,,,,,,,,,,,,,,,,
,,,,,,00101,2023-11-27_08h14.46.362,vbt_B2_day1,2022.2.4,MacIntel,60.0024001,,,,,,,,,,,,,,,,,,,0.020364583,-0.301445313,1,0,0,0.3837,6,0,156,1,1,b,images/br_b.png,images/cb_b.png,,,,,,,,,,,,,,,,,,,,,,,,,
,,,,,,00101,2023-11-27_08h14.46.362,vbt_B2_day1,2022.2.4,MacIntel,60.0024001,,,,,,,,,,,,,,,,,,,0.020364583,-0.301445313,1,0,0,0.0488,6,1,157,12,1,m,images/br_m.png,images/cb_m.png,,,,,,,,,,,,,,,,,,,,,,,,,
,,,,,,00101,2023-11-27_08h14.46.362,vbt_B2_day1,2022.2.4,MacIntel,60.0024001,,,,,,,,,,,,,,,,,,,0.020364583,-0.301189236,1,0,0,1.1998,6,2,158,22,1,w,images/br_w.png,images/cb_w.png,,,,,,,,,,,,,,,,,,,,,,,,,
,,,,,,00101,2023-11-27_08h14.46.362,vbt_B2_day1,2022.2.4,MacIntel,60.0024001,,,,,,,,,,,,,,,,,,,0.020364583,-0.301189236,1,0,0,3.1984,6,3,159,6,1,g,images/br_g.png,images/cb_g.png,,,,,,,,,,,,,,,,,,,,,,,,,
,,,,,,00101,2023-11-27_08h14.46.362,vbt_B2_day1,2022.2.4,MacIntel,60.0024001,,,,,,,,,,,,,,,,,,,0.020364583,-0.301189236,1,0,0,4.9995,6,4,160,2,1,c,images/br_c.png,images/cb_c.png,,,,,,,,,,,,,,,,,,,,,,,,,
,,,,,,00101,2023-11-27_08h14.46.362,vbt_B2_day1,2022.2.4,MacIntel,60.0024001,,,,,,,,,,,,,,,,,,,0.01984375,-0.301189236,1,0,0,2.3836,6,5,161,17,1,r,images/br_r.png,images/cb_r.png,,,,,,,,,,,,,,,,,,,,,,,,,
,,,,,,00101,2023-11-27_08h14.46.362,vbt_B2_day1,2022.2.4,MacIntel,60.0024001,,,,,,,,,,,,,,,,,,,0.01984375,-0.301189236,1,0,0,0.8852,6,6,162,18,1,s,images/br_s.png,images/cb_s.png,,,,,,,,,,,,,,,,,,,,,,,,,
,,,,,,00101,2023-11-27_08h14.46.362,vbt_B2_day1,2022.2.4,MacIntel,60.0024001,,,,,,,,,,,,,,,,,,,0.01984375,-0.301189236,1,0,0,6.0816,6,7,163,25,1,z,images/br_z.png,images/cb_z.png,,,,,,,,,,,,,,,,,,,,,,,,,
,,,,,,00101,2023-11-27_08h14.46.362,vbt_B2_day1,2022.2.4,MacIntel,60.0024001,,,,,,,,,,,,,,,,,,,0.018819444,-0.301189236,1,0,0,6.0814,6,8,164,10,1,k,images/br_k.png,images/cb_k.png,,,,,,,,,,,,,,,,,,,,,,,,,
,,,,,,00101,2023-11-27_08h14.46.362,vbt_B2_day1,2022.2.4,MacIntel,60.0024001,,,,,,,,,,,,,,,,,,,0.016584201,-0.302855903,1,0,0,6.7834,6,9,165,7,1,h,images/br_h.png,images/cb_h.png,,,,,,,,,,,,,,,,,,,,,,,,,
,,,,,,00101,2023-11-27_08h14.46.362,vbt_B2_day1,2022.2.4,MacIntel,60.0024001,,,,,,,,,,,,,,,,,,,0.016584201,-0.302855903,1,0,0,2.6482,6,10,166,5,1,f,images/br_f.png,images/cb_f.png,,,,,,,,,,,,,,,,,,,,,,,,,
,,,,,,00101,2023-11-27_08h14.46.362,vbt_B2_day1,2022.2.4,MacIntel,60.0024001,,,,,,,,,,,,,,,,,,,0.016584201,-0.302855903,1,0,0,1.2522,6,11,167,14,1,o,images/br_o.png,images/cb_o.png,,,,,,,,,,,,,,,,,,,,,,,,,
,,,,,,00101,2023-11-27_08h14.46.362,vbt_B2_day1,2022.2.4,MacIntel,60.0024001,,,,,,,,,,,,,,,,,,,0.016584201,-0.302855903,1,0,0,1.8336,6,12,168,16,1,q,images/br_q.png,images/cb_q.png,,,,,,,,,,,,,,,,,,,,,,,,,
,,,,,,00101,2023-11-27_08h14.46.362,vbt_B2_day1,2022.2.4,MacIntel,60.0024001,,,,,,,,,,,,,,,,,,,0.016584201,-0.302855903,1,0,0,1.1179,6,13,169,23,1,x,images/br_x.png,images/cb_x.png,,,,,,,,,,,,,,,,,,,,,,,,,
,,,,,,00101,2023-11-27_08h14.46.362,vbt_B2_day1,2022.2.4,MacIntel,60.0024001,,,,,,,,,,,,,,,,,,,0.016584201,-0.302855903,1,0,0,2.7638,6,14,170,19,1,t,images/br_t.png,images/cb_t.png,,,,,,,,,,,,,,,,,,,,,,,,,
,,,,,,00101,2023-11-27_08h14.46.362,vbt_B2_day1,2022.2.4,MacIntel,60.0024001,,,,,,,,,,,,,,,,,,,0.016584201,-0.302855903,1,0,0,2.5475,6,15,171,13,1,n,images/br_n.png,images/cb_n.png,,,,,,,,,,,,,,,,,,,,,,,,,
,,,,,,00101,2023-11-27_08h14.46.362,vbt_B2_day1,2022.2.4,MacIntel,60.0024001,,,,,,,,,,,,,,,,,,,0.016584201,-0.302855903,1,0,0,2.5661,6,16,172,24,1,y,images/br_y.png,images/cb_y.png,,,,,,,,,,,,,,,,,,,,,,,,,
,,,,,,00101,2023-11-27_08h14.46.362,vbt_B2_day1,2022.2.4,MacIntel,60.0024001,,,,,,,,,,,,,,,,,,,0.016584201,-0.302855903,1,0,0,3.1479,6,17,173,20,1,u,images/br_u.png,images/cb_u.png,,,,,,,,,,,,,,,,,,,,,,,,,
,,,,,,00101,2023-11-27_08h14.46.362,vbt_B2_day1,2022.2.4,MacIntel,60.0024001,,,,,,,,,,,,,,,,,,,0.016584201,-0.302855903,1,0,0,2.1512,6,18,174,11,1,l,images/br_l.png,images/cb_l.png,,,,,,,,,,,,,,,,,,,,,,,,,
,,,,,,00101,2023-11-27_08h14.46.362,vbt_B2_day1,2022.2.4,MacIntel,60.0024001,,,,,,,,,,,,,,,,,,,0.016584201,-0.302855903,1,0,0,0.899,6,19,175,21,1,v,images/br_v.png,images/cb_v.png,,,,,,,,,,,,,,,,,,,,,,,,,
,,,,,,00101,2023-11-27_08h14.46.362,vbt_B2_day1,2022.2.4,MacIntel,60.0024001,,,,,,,,,,,,,,,,,,,0.016584201,-0.302855903,1,0,0,1.0498,6,20,176,0,1,a,images/br_a.png,images/cb_a.png,,,,,,,,,,,,,,,,,,,,,,,,,
,,,,,,00101,2023-11-27_08h14.46.362,vbt_B2_day1,2022.2.4,MacIntel,60.0024001,,,,,,,,,,,,,,,,,,,0.016584201,-0.302855903,1,0,0,3.4512,6,21,177,8,1,i,images/br_i.png,images/cb_i.png,,,,,,,,,,,,,,,,,,,,,,,,,
,,,,,,00101,2023-11-27_08h14.46.362,vbt_B2_day1,2022.2.4,MacIntel,60.0024001,,,,,,,,,,,,,,,,,,,0.016584201,-0.302855903,1,0,0,1.2315,6,22,178,3,1,d,images/br_d.png,images/cb_d.png,,,,,,,,,,,,,,,,,,,,,,,,,
,,,,,,00101,2023-11-27_08h14.46.362,vbt_B2_day1,2022.2.4,MacIntel,60.0024001,,,,,,,,,,,,,,,,,,,0.016584201,-0.302855903,1,0,0,2.5325,6,23,179,15,1,p,images/br_p.png,images/cb_p.png,,,,,,,,,,,,,,,,,,,,,,,,,
,,,,,,00101,2023-11-27_08h14.46.362,vbt_B2_day1,2022.2.4,MacIntel,60.0024001,,,,,,,,,,,,,,,,,,,0.016835937,-0.303619792,1,0,0,1.4172,6,24,180,9,1,j,images/br_j.png,images/cb_j.png,,,,,,,,,,,,,,,,,,,,,,,,,
,,,,,,00101,2023-11-27_08h14.46.362,vbt_B2_day1,2022.2.4,MacIntel,60.0024001,,,,,,,,,,,,,,,,,,,0.016835937,-0.303619792,1,0,0,0.2339,6,25,181,4,1,e,images/br_e.png,images/cb_e.png,,,,,,,,,,,,,,,,,,,,,,,,,
,,,,,,00101,2023-11-27_08h14.46.362,vbt_B2_day1,2022.2.4,MacIntel,60.0024001,,,,,,,,,,,,,,,,,,,,,,,,,,,,,,,,,0.016835937,-0.303619792,1,0,0,,,,,,,,,,,,,,,,,,,,
,,,,,,00101,2023-11-27_08h14.46.362,vbt_B2_day1,2022.2.4,MacIntel,60.0024001,,,,,,,,,,,,,,,,,,,,,,,,,,,,,,,,,,,,,,0.016835937,-0.303619792,1,0,0,,,,,,,,,,,,,,,
,,,,,,00101,2023-11-27_08h14.46.362,vbt_B2_day1,2022.2.4,MacIntel,60.0024001,,,,,,,,,,,,,,,,,,,,,,,,,,,,,,,,,,,,,,,,,,,-0.136080729,-0.381961806,1,0,0,booi,booi,0,0,0,23,1,booi,images/br_booi.png,images/cb_booi.png
,,,,,,00101,2023-11-27_08h14.46.362,vbt_B2_day1,2022.2.4,MacIntel,60.0024001,,,,,,,,,,,,,,,,,,,,,,,,,,,,,,,,,,,,,,,,,,,-0.1321875,-0.407977431,1,0,0,jaar,jaar,0,1,1,2,1,jaar,images/br_jaar.png,images/cb_jaar.png
,,,,,,00101,2023-11-27_08h14.46.362,vbt_B2_day1,2022.2.4,MacIntel,60.0024001,,,,,,,,,,,,,,,,,,,,,,,,,,,,,,,,,,,,,,,,,,,-0.130130208,-0.407977431,1,0,0,mu...,mu...,0,2,2,10,1,muziek,images/br_muziek.png,images/cb_muziek.png
,,,,,,00101,2023-11-27_08h14.46.362,vbt_B2_day1,2022.2.4,MacIntel,60.0024001,,,,,,,,,,,,,,,,,,,,,,,,,,,,,,,,,,,,,,,,,,,-0.130130208,-0.407977431,1,0,0,...i.i.,...i.i.,0,3,3,19,1,schuilen,images/br_schuilen.png,images/cb_schuilen.png
,,,,,,00101,2023-11-27_08h14.46.362,vbt_B2_day1,2022.2.4,MacIntel,60.0024001,,,,,,,,,,,,,,,,,,,,,,,,,,,,,,,,,,,,,,,,,,,-0.130130208,-0.407977431,1,0,0,verv...,verv...,0,4,4,36,1,vervaden,images/br_vervaden.png,images/cb_vervaden.png
,,,,,,00101,2023-11-27_08h14.46.362,vbt_B2_day1,2022.2.4,MacIntel,60.0024001,,,,,,,,,,,,,,,,,,,,,,,,,,,,,,,,,,,,,,,,,,,-0.130130208,-0.407977431,1,0,0,tewenen,tewenen,0,5,5,55,1,tekenen,images/br_tekenen.png,images/cb_tekenen.png
,,,,,,00101,2023-11-27_08h14.46.362,vbt_B2_day1,2022.2.4,MacIntel,60.0024001,,,,,,,,,,,,,,,,,,,,,,,,,,,,,,,,,,,,,,,,,,,-0.130130208,-0.407977431,1,0,0,..a....,..a....,0,6,6,37,1,spanzing,images/br_spanzing.png,images/cb_spanzing.png
,,,,,,00101,2023-11-27_08h14.46.362,vbt_B2_day1,2022.2.4,MacIntel,60.0024001,,,,,,,,,,,,,,,,,,,,,,,,,,,,,,,,,,,,,,,,,,,-0.130130208,-0.407977431,1,0,0,raag,raag,0,7,7,41,1,hoog,images/br_hoog.png,images/cb_hoog.png
,,,,,,00101,2023-11-27_08h14.46.362,vbt_B2_day1,2022.2.4,MacIntel,60.0024001,,,,,,,,,,,,,,,,,,,,,,,,,,,,,,,,,,,,,,,,,,,-0.127990451,-0.407330729,1,0,0,voore..,voore..,0,8,8,39,1,voorreur,images/br_voorreur.png,images/cb_voorreur.png
,,,,,,00101,2023-11-27_08h14.46.362,vbt_B2_day1,2022.2.4,MacIntel,60.0024001,,,,,,,,,,,,,,,,,,,,,,,,,,,,,,,,,,,,,,,,,,,-0.127990451,-0.406176215,1,0,0,lava,lava,0,9,9,43,1,lava,images/br_lava.png,images/cb_lava.png
,,,,,,00101,2023-11-27_08h14.46.362,vbt_B2_day1,2022.2.4,MacIntel,60.0024001,,,,,,,,,,,,,,,,,,,,,,,,,,,,,,,,,,,,,,,,,,,-0.127990451,-0.406176215,1,0,0,..bb..,..bb..,0,10,10,9,1,dubbel,images/br_dubbel.png,images/cb_dubbel.png
,,,,,,00101,2023-11-27_08h14.46.362,vbt_B2_day1,2022.2.4,MacIntel,60.0024001,,,,,,,,,,,,,,,,,,,,,,,,,,,,,,,,,,,,,,,,,,,-0.132400174,-0.409709201,1,0,0,vaarwe.r,vaarwe.r,0,11,11,58,1,voorkeur,images/br_voorkeur.png,images/cb_voorkeur.png
,,,,,,00101,2023-11-27_08h14.46.362,vbt_B2_day1,2022.2.4,MacIntel,60.0024001,,,,,,,,,,,,,,,,,,,,,,,,,,,,,,,,,,,,,,,,,,,-0.132400174,-0.409709201,1,0,0,.tui...,.tui...,0,12,12,35,1,stuikem,images/br_stuikem.png,images/cb_stuikem.png
,,,,,,00101,2023-11-27_08h14.46.362,vbt_B2_day1,2022.2.4,MacIntel,60.0024001,,,,,,,,,,,,,,,,,,,,,,,,,,,,,,,,,,,,,,,,,,,-0.135069444,-0.409709201,1,0,0,.ict..,.ict..,0,13,13,48,1,fictie,images/br_fictie.png,images/cb_fictie.png
,,,,,,00101,2023-11-27_08h14.46.362,vbt_B2_day1,2022.2.4,MacIntel,60.0024001,,,,,,,,,,,,,,,,,,,,,,,,,,,,,,,,,,,,,,,,,,,-0.135069444,-0.409709201,1,0,0,loods,loods,0,14,14,47,1,loods,images/br_loods.png,images/cb_loods.png
,,,,,,00101,2023-11-27_08h14.46.362,vbt_B2_day1,2022.2.4,MacIntel,60.0024001,,,,,,,,,,,,,,,,,,,,,,,,,,,,,,,,,,,,,,,,,,,-0.131471354,-0.409709201,1,0,0,nui...,nui...,0,15,15,52,1,zuiplap,images/br_zuiplap.png,images/cb_zuiplap.png
,,,,,,00101,2023-11-27_08h14.46.362,vbt_B2_day1,2022.2.4,MacIntel,60.0024001,,,,,,,,,,,,,,,,,,,,,,,,,,,,,,,,,,,,,,,,,,,-0.11249566,-0.394457465,1,0,0,bebri.,bebri.,0,16,16,28,1,bebrip,images/br_bebrip.png,images/cb_bebrip.png
,,,,,,00101,2023-11-27_08h14.46.362,vbt_B2_day1,2022.2.4,MacIntel,60.0024001,,,,,,,,,,,,,,,,,,,,,,,,,,,,,,,,,,,,,,,,,,,-0.11249566,-0.388476563,1,0,0,wejn.,wejn.,0,17,17,44,1,wijze,images/br_wijze.png,images/cb_wijze.png
,,,,,,00101,2023-11-27_08h14.46.362,vbt_B2_day1,2022.2.4,MacIntel,60.0024001,,,,,,,,,,,,,,,,,,,,,,,,,,,,,,,,,,,,,,,,,,,-0.11249566,-0.388476563,1,0,0,waz...,waz...,0,18,18,8,1,kanjer,images/br_kanjer.png,images/cb_kanjer.png
,,,,,,00101,2023-11-27_08h14.46.362,vbt_B2_day1,2022.2.4,MacIntel,60.0024001,,,,,,,,,,,,,,,,,,,,,,,,,,,,,,,,,,,,,,,,,,,-0.11249566,-0.388476563,1,0,0,.isde..,.isde..,0,19,19,18,1,uitdelen,images/br_uitdelen.png,images/cb_uitdelen.png
,,,,,,00101,2023-11-27_08h14.46.362,vbt_B2_day1,2022.2.4,MacIntel,60.0024001,,,,,,,,,,,,,,,,,,,,,,,,,,,,,,,,,,,,,,,,,,,-0.11249566,-0.388476563,1,0,0,dief,dief,0,20,20,40,1,dief,images/br_dief.png,images/cb_dief.png
,,,,,,00101,2023-11-27_08h14.46.362,vbt_B2_day1,2022.2.4,MacIntel,60.0024001,,,,,,,,,,,,,,,,,,,,,,,,,,,,,,,,,,,,,,,,,,,-0.11249566,-0.388476563,1,0,0,..oe,..oe,0,21,21,22,1,knoe,images/br_knoe.png,images/cb_knoe.png
,,,,,,00101,2023-11-27_08h14.46.362,vbt_B2_day1,2022.2.4,MacIntel,60.0024001,,,,,,,,,,,,,,,,,,,,,,,,,,,,,,,,,,,,,,,,,,,-0.11249566,-0.388476563,1,0,0,blauw,blauw,0,22,22,7,1,klauw,images/br_klauw.png,images/cb_klauw.png
,,,,,,00101,2023-11-27_08h14.46.362,vbt_B2_day1,2022.2.4,MacIntel,60.0024001,,,,,,,,,,,,,,,,,,,,,,,,,,,,,,,,,,,,,,,,,,,-0.11249566,-0.388476563,1,0,0,sc.e.,sc.e.,0,23,23,4,1,schep,images/br_schep.png,images/cb_schep.png
,,,,,,00101,2023-11-27_08h14.46.362,vbt_B2_day1,2022.2.4,MacIntel,60.0024001,,,,,,,,,,,,,,,,,,,,,,,,,,,,,,,,,,,,,,,,,,,-0.11249566,-0.388476563,1,0,0,.lu...,.lu...,0,24,24,33,1,flullen,images/br_flullen.png,images/cb_flullen.png
,,,,,,00101,2023-11-27_08h14.46.362,vbt_B2_day1,2022.2.4,MacIntel,60.0024001,,,,,,,,,,,,,,,,,,,,,,,,,,,,,,,,,,,,,,,,,,,-0.11249566,-0.388476563,1,0,0,blimmes,blimmes,0,25,25,12,1,klimmen,images/br_klimmen.png,images/cb_klimmen.png
,,,,,,00101,2023-11-27_08h14.46.362,vbt_B2_day1,2022.2.4,MacIntel,60.0024001,,,,,,,,,,,,,,,,,,,,,,,,,,,,,,,,,,,,,,,,,,,-0.11249566,-0.388476563,1,0,0,.rors,.rors,0,26,26,27,1,prort,images/br_prort.png,images/cb_prort.png
,,,,,,00101,2023-11-27_08h14.46.362,vbt_B2_day1,2022.2.4,MacIntel,60.0024001,,,,,,,,,,,,,,,,,,,,,,,,,,,,,,,,,,,,,,,,,,,-0.11249566,-0.388476563,1,0,0,daarheen,daarheen,0,27,27,16,1,daarheen,images/br_daarheen.png,images/cb_daarheen.png
,,,,,,00101,2023-11-27_08h14.46.362,vbt_B2_day1,2022.2.4,MacIntel,60.0024001,,,,,,,,,,,,,,,,,,,,,,,,,,,,,,,,,,,,,,,,,,,-0.11249566,-0.388476563,1,0,0,soeni...,soeni...,0,28,28,56,1,toezicht,images/br_toezicht.png,images/cb_toezicht.png
,,,,,,00101,2023-11-27_08h14.46.362,vbt_B2_day1,2022.2.4,MacIntel,60.0024001,,,,,,,,,,,,,,,,,,,,,,,,,,,,,,,,,,,,,,,,,,,-0.11249566,-0.388476563,1,0,0,ohs...,ohs...,0,29,29,53,1,opslaan,images/br_opslaan.png,images/cb_opslaan.png
,,,,,,00101,2023-11-27_08h14.46.362,vbt_B2_day1,2022.2.4,MacIntel,60.0024001,,,,,,,,,,,,,,,,,,,,,,,,,,,,,,,,,,,,,,,,,,,-0.11249566,-0.388476563,1,0,0,los.s..,los.s..,0,30,30,34,1,lochten,images/br_lochten.png,images/cb_lochten.png
,,,,,,00101,2023-11-27_08h14.46.362,vbt_B2_day1,2022.2.4,MacIntel,60.0024001,,,,,,,,,,,,,,,,,,,,,,,,,,,,,,,,,,,,,,,,,,,-0.11249566,-0.388476563,1,0,0,....el,....el,0,31,31,13,1,twijfel,images/br_twijfel.png,images/cb_twijfel.png
,,,,,,00101,2023-11-27_08h14.46.362,vbt_B2_day1,2022.2.4,MacIntel,60.0024001,,,,,,,,,,,,,,,,,,,,,,,,,,,,,,,,,,,,,,,,,,,-0.11249566,-0.388476563,1,0,0,bri..,bri..,0,32,32,25,1,brijk,images/br_brijk.png,images/cb_brijk.png
,,,,,,00101,2023-11-27_08h14.46.362,vbt_B2_day1,2022.2.4,MacIntel,60.0024001,,,,,,,,,,,,,,,,,,,,,,,,,,,,,,,,,,,,,,,,,,,-0.141289063,-0.390798611,1,0,0,liefde,liefde,0,33,33,51,1,liefde,images/br_liefde.png,images/cb_liefde.png
,,,,,,00101,2023-11-27_08h14.46.362,vbt_B2_day1,2022.2.4,MacIntel,60.0024001,,,,,,,,,,,,,,,,,,,,,,,,,,,,,,,,,,,,,,,,,,,-0.141289063,-0.390798611,1,0,0,mand,mand,0,34,34,3,1,mand,images/br_mand.png,images/cb_mand.png
,,,,,,00101,2023-11-27_08h14.46.362,vbt_B2_day1,2022.2.4,MacIntel,60.0024001,,,,,,,,,,,,,,,,,,,,,,,,,,,,,,,,,,,,,,,,,,,-0.141289063,-0.390798611,1,0,0,o...aas,o...aas,0,35,35,32,1,opplaan,images/br_opplaan.png,images/cb_opplaan.png
,,,,,,00101,2023-11-27_08h14.46.362,vbt_B2_day1,2022.2.4,MacIntel,60.0024001,,,,,,,,,,,,,,,,,,,,,,,,,,,,,,,,,,,,,,,,,,,-0.141289063,-0.390798611,1,0,0,slag,slag,0,36,36,0,1,slak,images/br_slak.png,images/cb_slak.png
,,,,,,00101,2023-11-27_08h14.46.362,vbt_B2_day1,2022.2.4,MacIntel,60.0024001,,,,,,,,,,,,,,,,,,,,,,,,,,,,,,,,,,,,,,,,,,,-0.141289063,-0.390798611,1,0,0,me.i..,me.i..,0,37,37,11,1,mening,images/br_mening.png,images/cb_mening.png
,,,,,,00101,2023-11-27_08h14.46.362,vbt_B2_day1,2022.2.4,MacIntel,60.0024001,,,,,,,,,,,,,,,,,,,,,,,,,,,,,,,,,,,,,,,,,,,-0.141289063,-0.390798611,1,0,0,.re.,.re.,0,38,38,21,1,dred,images/br_dred.png,images/cb_dred.png
,,,,,,00101,2023-11-27_08h14.46.362,vbt_B2_day1,2022.2.4,MacIntel,60.0024001,,,,,,,,,,,,,,,,,,,,,,,,,,,,,,,,,,,,,,,,,,,-0.141289063,-0.390798611,1,0,0,vizier,vizier,0,39,39,49,1,vizier,images/br_vizier.png,images/cb_vizier.png
,,,,,,00101,2023-11-27_08h14.46.362,vbt_B2_day1,2022.2.4,MacIntel,60.0024001,,,,,,,,,,,,,,,,,,,,,,,,,,,,,,,,,,,,,,,,,,,-0.145572917,-0.390798611,1,0,0,stuw,stuw,0,40,40,42,1,stuk,images/br_stuk.png,images/cb_stuk.png
,,,,,,00101,2023-11-27_08h14.46.362,vbt_B2_day1,2022.2.4,MacIntel,60.0024001,,,,,,,,,,,,,,,,,,,,,,,,,,,,,,,,,,,,,,,,,,,-0.152152778,-0.390269097,1,0,0,valo.,valo.,0,41,41,26,1,valop,images/br_valop.png,images/cb_valop.png
,,,,,,00101,2023-11-27_08h14.46.362,vbt_B2_day1,2022.2.4,MacIntel,60.0024001,,,,,,,,,,,,,,,,,,,,,,,,,,,,,,,,,,,,,,,,,,,-0.152152778,-0.390269097,1,0,0,assei.e.,assei.e.,0,42,42,17,1,attentie,images/br_attentie.png,images/cb_attentie.png
,,,,,,00101,2023-11-27_08h14.46.362,vbt_B2_day1,2022.2.4,MacIntel,60.0024001,,,,,,,,,,,,,,,,,,,,,,,,,,,,,,,,,,,,,,,,,,,-0.152152778,-0.390269097,1,0,0,rezer,rezer,0,43,43,24,1,rezer,images/br_rezer.png,images/cb_rezer.png
,,,,,,00101,2023-11-27_08h14.46.362,vbt_B2_day1,2022.2.4,MacIntel,60.0024001,,,,,,,,,,,,,,,,,,,,,,,,,,,,,,,,,,,,,,,,,,,-0.152152778,-0.390269097,1,0,0,waar.a.,waar.a.,0,44,44,14,1,waarvan,images/br_waarvan.png,images/cb_waarvan.png
,,,,,,00101,2023-11-27_08h14.46.362,vbt_B2_day1,2022.2.4,MacIntel,60.0024001,,,,,,,,,,,,,,,,,,,,,,,,,,,,,,,,,,,,,,,,,,,-0.152152778,-0.390269097,1,0,0,liegen,liegen,0,45,45,50,1,liegen,images/br_liegen.png,images/cb_liegen.png
,,,,,,00101,2023-11-27_08h14.46.362,vbt_B2_day1,2022.2.4,MacIntel,60.0024001,,,,,,,,,,,,,,,,,,,,,,,,,,,,,,,,,,,,,,,,,,,-0.152152778,-0.390269097,1,0,0,meenemen,meenemen,0,46,46,57,1,meenemen,images/br_meenemen.png,images/cb_meenemen.png
,,,,,,00101,2023-11-27_08h14.46.362,vbt_B2_day1,2022.2.4,MacIntel,60.0024001,,,,,,,,,,,,,,,,,,,,,,,,,,,,,,,,,,,,,,,,,,,-0.152152778,-0.390269097,1,0,0,hemel,hemel,0,47,47,45,1,hemel,images/br_hemel.png,images/cb_hemel.png
,,,,,,00101,2023-11-27_08h14.46.362,vbt_B2_day1,2022.2.4,MacIntel,60.0024001,,,,,,,,,,,,,,,,,,,,,,,,,,,,,,,,,,,,,,,,,,,-0.152152778,-0.390269097,1,0,0,sar.,sar.,0,48,48,20,1,tars,images/br_tars.png,images/cb_tars.png
,,,,,,00101,2023-11-27_08h14.46.362,vbt_B2_day1,2022.2.4,MacIntel,60.0024001,,,,,,,,,,,,,,,,,,,,,,,,,,,,,,,,,,,,,,,,,,,-0.152152778,-0.390269097,1,0,0,olwassen,olwassen,0,49,49,59,1,opvatten,images/br_opvatten.png,images/cb_opvatten.png
,,,,,,00101,2023-11-27_08h14.46.362,vbt_B2_day1,2022.2.4,MacIntel,60.0024001,,,,,,,,,,,,,,,,,,,,,,,,,,,,,,,,,,,,,,,,,,,-0.152152778,-0.390269097,1,0,0,zaal,zaal,0,50,50,1,1,zaal,images/br_zaal.png,images/cb_zaal.png
,,,,,,00101,2023-11-27_08h14.46.362,vbt_B2_day1,2022.2.4,MacIntel,60.0024001,,,,,,,,,,,,,,,,,,,,,,,,,,,,,,,,,,,,,,,,,,,-0.152152778,-0.390269097,1,0,0,reegj.,reegj.,0,51,51,30,1,reedje,images/br_reedje.png,images/cb_reedje.png
,,,,,,00101,2023-11-27_08h14.46.362,vbt_B2_day1,2022.2.4,MacIntel,60.0024001,,,,,,,,,,,,,,,,,,,,,,,,,,,,,,,,,,,,,,,,,,,-0.152152778,-0.390269097,1,0,0,schiel..,schiel..,0,52,52,38,1,schielen,images/br_schielen.png,images/cb_schielen.png
,,,,,,00101,2023-11-27_08h14.46.362,vbt_B2_day1,2022.2.4,MacIntel,60.0024001,,,,,,,,,,,,,,,,,,,,,,,,,,,,,,,,,,,,,,,,,,,-0.152152778,-0.390269097,1,0,0,mawen,mawen,0,53,53,5,1,maken,images/br_maken.png,images/cb_maken.png
,,,,,,00101,2023-11-27_08h14.46.362,vbt_B2_day1,2022.2.4,MacIntel,60.0024001,,,,,,,,,,,,,,,,,,,,,,,,,,,,,,,,,,,,,,,,,,,-0.152152778,-0.390269097,1,0,0,ceno..,ceno..,0,54,54,29,1,genond,images/br_genond.png,images/cb_genond.png
,,,,,,00101,2023-11-27_08h14.46.362,vbt_B2_day1,2022.2.4,MacIntel,60.0024001,,,,,,,,,,,,,,,,,,,,,,,,,,,,,,,,,,,,,,,,,,,-0.152152778,-0.390269097,1,0,0,viejecem,viejecem,0,55,55,54,1,vijftig,images/br_vijftig.png,images/cb_vijftig.png
,,,,,,00101,2023-11-27_08h14.46.362,vbt_B2_day1,2022.2.4,MacIntel,60.0024001,,,,,,,,,,,,,,,,,,,,,,,,,,,,,,,,,,,,,,,,,,,-0.152152778,-0.390269097,1,0,0,.ierven,.ierven,0,56,56,15,1,hiervan,images/br_hiervan.png,images/cb_hiervan.png
,,,,,,00101,2023-11-27_08h14.46.362,vbt_B2_day1,2022.2.4,MacIntel,60.0024001,,,,,,,,,,,,,,,,,,,,,,,,,,,,,,,,,,,,,,,,,,,-0.14874566,-0.390269097,1,0,0,lezen,lezen,0,57,57,46,1,lezen,images/br_lezen.png,images/cb_lezen.png
,,,,,,00101,2023-11-27_08h14.46.362,vbt_B2_day1,2022.2.4,MacIntel,60.0024001,,,,,,,,,,,,,,,,,,,,,,,,,,,,,,,,,,,,,,,,,,,-0.134696181,-0.390269097,1,0,0,bleew,bleew,0,58,58,6,1,bleek,images/br_bleek.png,images/cb_bleek.png
,,,,,,00101,2023-11-27_08h14.46.362,vbt_B2_day1,2022.2.4,MacIntel,60.0024001,,,,,,,,,,,,,,,,,,,,,,,,,,,,,,,,,,,,,,,,,,,-0.126744792,-0.389887153,1,0,0,stamen,stamen,0,59,59,31,1,stamen,images/br_stamen.png,images/cb_stamen.png
,,,,,,00101,2023-11-27_08h14.46.362,vbt_B2_day1,2022.2.4,MacIntel,60.0024001,,,,,,,,,,,,,,,,,,,,,,,,,,,,,,,,,,,,,,,,,,,,,,,,,,,,,,,,,
