welcome_mouse.x,welcome_mouse.y,welcome_mouse.leftButton,welcome_mouse.midButton,welcome_mouse.rightButton,welcome_mouse.time,"ID",date,expName,psychopyVersion,OS,frameRate,mouse_2.x,mouse_2.y,mouse_2.leftButton,mouse_2.midButton,mouse_2.rightButton,mouse_2.time,mouse_3.x,mouse_3.y,mouse_3.leftButton,mouse_3.midButton,mouse_3.rightButton,mouse_3.time,train_mouse.x,train_mouse.y,train_mouse.leftButton,train_mouse.midButton,train_mouse.rightButton,train_mouse.time,braille_mouse.x,braille_mouse.y,braille_mouse.leftButton,braille_mouse.midButton,braille_mouse.rightButton,braille_mouse.time,trials.thisRepN,trials.thisTrialN,trials.thisN,trials.thisIndex,trials.ran,nlLet,brLet,cbLet,mouse.x,mouse.y,mouse.leftButton,mouse.midButton,mouse.rightButton,testInstr_mouse.x,testInstr_mouse.y,testInstr_mouse.leftButton,testInstr_mouse.midButton,testInstr_mouse.rightButton,test_mouse.x,test_mouse.y,test_mouse.leftButton,test_mouse.midButton,test_mouse.rightButton,test_response.text,testResp,test_loop.thisRepN,test_loop.thisTrialN,test_loop.thisN,test_loop.thisIndex,test_loop.ran,nlWrd,brWrd,cbWrd
0.069010417,-0.145833333,1,0,0,27.3722,00054,2023-10-09_18h03.24.779,vbt_B2_day1,2022.2.4,Win32,60.11060351,,,,,,,,,,,,,,,,,,,,,,,,,,,,,,,,,,,,,,,,,,,,,,,,,,,,,,,,,
,,,,,,00054,2023-10-09_18h03.24.779,vbt_B2_day1,2022.2.4,Win32,60.11060351,0.045572917,-0.2578125,1,0,0,13.9491,,,,,,,,,,,,,,,,,,,,,,,,,,,,,,,,,,,,,,,,,,,,,,,,,,,
,,,,,,00054,2023-10-09_18h03.24.779,vbt_B2_day1,2022.2.4,Win32,60.11060351,,,,,,,0.045572917,-0.2578125,1,0,0,58.603,,,,,,,,,,,,,,,,,,,,,,,,,,,,,,,,,,,,,,,,,,,,,
,,,,,,00054,2023-10-09_18h03.24.779,vbt_B2_day1,2022.2.4,Win32,60.11060351,,,,,,,,,,,,,0.045572917,-0.2578125,1,0,0,43.3291,,,,,,,,,,,,,,,,,,,,,,,,,,,,,,,,,,,,,,,
,,,,,,00054,2023-10-09_18h03.24.779,vbt_B2_day1,2022.2.4,Win32,60.11060351,,,,,,,,,,,,,,,,,,,0.045572917,-0.2578125,1,0,0,8.4887,0,0,0,25,1,z,images/br_z.png,images/cb_z.png,,,,,,,,,,,,,,,,,,,,,,,,,
,,,,,,00054,2023-10-09_18h03.24.779,vbt_B2_day1,2022.2.4,Win32,60.11060351,,,,,,,,,,,,,,,,,,,0.045572917,-0.2578125,1,0,0,2.5698,0,1,1,13,1,n,images/br_n.png,images/cb_n.png,,,,,,,,,,,,,,,,,,,,,,,,,
,,,,,,00054,2023-10-09_18h03.24.779,vbt_B2_day1,2022.2.4,Win32,60.11060351,,,,,,,,,,,,,,,,,,,0.045572917,-0.2578125,1,0,0,7.6766,0,2,2,19,1,t,images/br_t.png,images/cb_t.png,,,,,,,,,,,,,,,,,,,,,,,,,
,,,,,,00054,2023-10-09_18h03.24.779,vbt_B2_day1,2022.2.4,Win32,60.11060351,,,,,,,,,,,,,,,,,,,0.045572917,-0.2578125,1,0,0,58.7043,0,3,3,22,1,w,images/br_w.png,images/cb_w.png,,,,,,,,,,,,,,,,,,,,,,,,,
,,,,,,00054,2023-10-09_18h03.24.779,vbt_B2_day1,2022.2.4,Win32,60.11060351,,,,,,,,,,,,,,,,,,,0.045572917,-0.2578125,1,0,0,20.3095,0,4,4,24,1,y,images/br_y.png,images/cb_y.png,,,,,,,,,,,,,,,,,,,,,,,,,
,,,,,,00054,2023-10-09_18h03.24.779,vbt_B2_day1,2022.2.4,Win32,60.11060351,,,,,,,,,,,,,,,,,,,0.045572917,-0.2578125,1,0,0,3.3656,0,5,5,6,1,g,images/br_g.png,images/cb_g.png,,,,,,,,,,,,,,,,,,,,,,,,,
,,,,,,00054,2023-10-09_18h03.24.779,vbt_B2_day1,2022.2.4,Win32,60.11060351,,,,,,,,,,,,,,,,,,,0.045572917,-0.2578125,1,0,0,29.5765,0,6,6,20,1,u,images/br_u.png,images/cb_u.png,,,,,,,,,,,,,,,,,,,,,,,,,
,,,,,,00054,2023-10-09_18h03.24.779,vbt_B2_day1,2022.2.4,Win32,60.11060351,,,,,,,,,,,,,,,,,,,0.045572917,-0.2578125,1,0,0,33.6879,0,7,7,23,1,x,images/br_x.png,images/cb_x.png,,,,,,,,,,,,,,,,,,,,,,,,,
,,,,,,00054,2023-10-09_18h03.24.779,vbt_B2_day1,2022.2.4,Win32,60.11060351,,,,,,,,,,,,,,,,,,,0.045572917,-0.2578125,1,0,0,2.6531,0,8,8,11,1,l,images/br_l.png,images/cb_l.png,,,,,,,,,,,,,,,,,,,,,,,,,
,,,,,,00054,2023-10-09_18h03.24.779,vbt_B2_day1,2022.2.4,Win32,60.11060351,,,,,,,,,,,,,,,,,,,0.045572917,-0.2578125,1,0,0,31.2183,0,9,9,21,1,v,images/br_v.png,images/cb_v.png,,,,,,,,,,,,,,,,,,,,,,,,,
,,,,,,00054,2023-10-09_18h03.24.779,vbt_B2_day1,2022.2.4,Win32,60.11060351,,,,,,,,,,,,,,,,,,,0.045572917,-0.2578125,1,0,0,67.7574,0,10,10,18,1,s,images/br_s.png,images/cb_s.png,,,,,,,,,,,,,,,,,,,,,,,,,
,,,,,,00054,2023-10-09_18h03.24.779,vbt_B2_day1,2022.2.4,Win32,60.11060351,,,,,,,,,,,,,,,,,,,0.045572917,-0.2578125,1,0,0,14.3252,0,11,11,14,1,o,images/br_o.png,images/cb_o.png,,,,,,,,,,,,,,,,,,,,,,,,,
,,,,,,00054,2023-10-09_18h03.24.779,vbt_B2_day1,2022.2.4,Win32,60.11060351,,,,,,,,,,,,,,,,,,,0.045572917,-0.2578125,1,0,0,7.2614,0,12,12,8,1,i,images/br_i.png,images/cb_i.png,,,,,,,,,,,,,,,,,,,,,,,,,
,,,,,,00054,2023-10-09_18h03.24.779,vbt_B2_day1,2022.2.4,Win32,60.11060351,,,,,,,,,,,,,,,,,,,0.045572917,-0.2578125,1,0,0,22.5965,0,13,13,4,1,e,images/br_e.png,images/cb_e.png,,,,,,,,,,,,,,,,,,,,,,,,,
,,,,,,00054,2023-10-09_18h03.24.779,vbt_B2_day1,2022.2.4,Win32,60.11060351,,,,,,,,,,,,,,,,,,,0.045572917,-0.2578125,1,0,0,3.2,0,14,14,5,1,f,images/br_f.png,images/cb_f.png,,,,,,,,,,,,,,,,,,,,,,,,,
,,,,,,00054,2023-10-09_18h03.24.779,vbt_B2_day1,2022.2.4,Win32,60.11060351,,,,,,,,,,,,,,,,,,,0.045572917,-0.2578125,1,0,0,40.6712,0,15,15,10,1,k,images/br_k.png,images/cb_k.png,,,,,,,,,,,,,,,,,,,,,,,,,
,,,,,,00054,2023-10-09_18h03.24.779,vbt_B2_day1,2022.2.4,Win32,60.11060351,,,,,,,,,,,,,,,,,,,0.045572917,-0.2578125,1,0,0,5.09,0,16,16,17,1,r,images/br_r.png,images/cb_r.png,,,,,,,,,,,,,,,,,,,,,,,,,
,,,,,,00054,2023-10-09_18h03.24.779,vbt_B2_day1,2022.2.4,Win32,60.11060351,,,,,,,,,,,,,,,,,,,0.045572917,-0.2578125,1,0,0,6.3172,0,17,17,2,1,c,images/br_c.png,images/cb_c.png,,,,,,,,,,,,,,,,,,,,,,,,,
,,,,,,00054,2023-10-09_18h03.24.779,vbt_B2_day1,2022.2.4,Win32,60.11060351,,,,,,,,,,,,,,,,,,,0.045572917,-0.2578125,1,0,0,6.3507,0,18,18,9,1,j,images/br_j.png,images/cb_j.png,,,,,,,,,,,,,,,,,,,,,,,,,
,,,,,,00054,2023-10-09_18h03.24.779,vbt_B2_day1,2022.2.4,Win32,60.11060351,,,,,,,,,,,,,,,,,,,0.045572917,-0.2578125,1,0,0,19.2491,0,19,19,7,1,h,images/br_h.png,images/cb_h.png,,,,,,,,,,,,,,,,,,,,,,,,,
,,,,,,00054,2023-10-09_18h03.24.779,vbt_B2_day1,2022.2.4,Win32,60.11060351,,,,,,,,,,,,,,,,,,,0.045572917,-0.2578125,1,0,0,3.4808,0,20,20,16,1,q,images/br_q.png,images/cb_q.png,,,,,,,,,,,,,,,,,,,,,,,,,
,,,,,,00054,2023-10-09_18h03.24.779,vbt_B2_day1,2022.2.4,Win32,60.11060351,,,,,,,,,,,,,,,,,,,0.045572917,-0.2578125,1,0,0,3.7966,0,21,21,0,1,a,images/br_a.png,images/cb_a.png,,,,,,,,,,,,,,,,,,,,,,,,,
,,,,,,00054,2023-10-09_18h03.24.779,vbt_B2_day1,2022.2.4,Win32,60.11060351,,,,,,,,,,,,,,,,,,,0.045572917,-0.2578125,1,0,0,50.9635,0,22,22,3,1,d,images/br_d.png,images/cb_d.png,,,,,,,,,,,,,,,,,,,,,,,,,
,,,,,,00054,2023-10-09_18h03.24.779,vbt_B2_day1,2022.2.4,Win32,60.11060351,,,,,,,,,,,,,,,,,,,0.045572917,-0.2578125,1,0,0,3.8797,0,23,23,1,1,b,images/br_b.png,images/cb_b.png,,,,,,,,,,,,,,,,,,,,,,,,,
,,,,,,00054,2023-10-09_18h03.24.779,vbt_B2_day1,2022.2.4,Win32,60.11060351,,,,,,,,,,,,,,,,,,,0.045572917,-0.2578125,1,0,0,6.7804,0,24,24,15,1,p,images/br_p.png,images/cb_p.png,,,,,,,,,,,,,,,,,,,,,,,,,
,,,,,,00054,2023-10-09_18h03.24.779,vbt_B2_day1,2022.2.4,Win32,60.11060351,,,,,,,,,,,,,,,,,,,0.045572917,-0.2578125,1,0,0,7.7954,0,25,25,12,1,m,images/br_m.png,images/cb_m.png,,,,,,,,,,,,,,,,,,,,,,,,,
,,,,,,00054,2023-10-09_18h03.24.779,vbt_B2_day1,2022.2.4,Win32,60.11060351,,,,,,,,,,,,,,,,,,,0.045572917,-0.2578125,1,0,0,5.7698,1,0,26,24,1,y,images/br_y.png,images/cb_y.png,,,,,,,,,,,,,,,,,,,,,,,,,
,,,,,,00054,2023-10-09_18h03.24.779,vbt_B2_day1,2022.2.4,Win32,60.11060351,,,,,,,,,,,,,,,,,,,0.045572917,-0.2578125,1,0,0,3.9621,1,1,27,1,1,b,images/br_b.png,images/cb_b.png,,,,,,,,,,,,,,,,,,,,,,,,,
,,,,,,00054,2023-10-09_18h03.24.779,vbt_B2_day1,2022.2.4,Win32,60.11060351,,,,,,,,,,,,,,,,,,,0.045572917,-0.2578125,1,0,0,1.2102,1,2,28,6,1,g,images/br_g.png,images/cb_g.png,,,,,,,,,,,,,,,,,,,,,,,,,
,,,,,,00054,2023-10-09_18h03.24.779,vbt_B2_day1,2022.2.4,Win32,60.11060351,,,,,,,,,,,,,,,,,,,0.045572917,-0.2578125,1,0,0,6.4163,1,3,29,25,1,z,images/br_z.png,images/cb_z.png,,,,,,,,,,,,,,,,,,,,,,,,,
,,,,,,00054,2023-10-09_18h03.24.779,vbt_B2_day1,2022.2.4,Win32,60.11060351,,,,,,,,,,,,,,,,,,,0.045572917,-0.2578125,1,0,0,0.9111,1,4,30,16,1,q,images/br_q.png,images/cb_q.png,,,,,,,,,,,,,,,,,,,,,,,,,
,,,,,,00054,2023-10-09_18h03.24.779,vbt_B2_day1,2022.2.4,Win32,60.11060351,,,,,,,,,,,,,,,,,,,0.045572917,-0.2578125,1,0,0,1.0613,1,5,31,5,1,f,images/br_f.png,images/cb_f.png,,,,,,,,,,,,,,,,,,,,,,,,,
,,,,,,00054,2023-10-09_18h03.24.779,vbt_B2_day1,2022.2.4,Win32,60.11060351,,,,,,,,,,,,,,,,,,,0.045572917,-0.2578125,1,0,0,5.7209,1,6,32,3,1,d,images/br_d.png,images/cb_d.png,,,,,,,,,,,,,,,,,,,,,,,,,
,,,,,,00054,2023-10-09_18h03.24.779,vbt_B2_day1,2022.2.4,Win32,60.11060351,,,,,,,,,,,,,,,,,,,0.045572917,-0.2578125,1,0,0,0.0984,1,7,33,17,1,r,images/br_r.png,images/cb_r.png,,,,,,,,,,,,,,,,,,,,,,,,,
,,,,,,00054,2023-10-09_18h03.24.779,vbt_B2_day1,2022.2.4,Win32,60.11060351,,,,,,,,,,,,,,,,,,,0.045572917,-0.2578125,1,0,0,0.5637,1,8,34,12,1,m,images/br_m.png,images/cb_m.png,,,,,,,,,,,,,,,,,,,,,,,,,
,,,,,,00054,2023-10-09_18h03.24.779,vbt_B2_day1,2022.2.4,Win32,60.11060351,,,,,,,,,,,,,,,,,,,-0.063802083,-0.131510417,1,0,0,8.9017,1,9,35,10,1,k,images/br_k.png,images/cb_k.png,,,,,,,,,,,,,,,,,,,,,,,,,
,,,,,,00054,2023-10-09_18h03.24.779,vbt_B2_day1,2022.2.4,Win32,60.11060351,,,,,,,,,,,,,,,,,,,-0.063802083,-0.131510417,1,0,0,2.1709,1,10,36,22,1,w,images/br_w.png,images/cb_w.png,,,,,,,,,,,,,,,,,,,,,,,,,
,,,,,,00054,2023-10-09_18h03.24.779,vbt_B2_day1,2022.2.4,Win32,60.11060351,,,,,,,,,,,,,,,,,,,-0.063802083,-0.131510417,1,0,0,6.1517,1,11,37,7,1,h,images/br_h.png,images/cb_h.png,,,,,,,,,,,,,,,,,,,,,,,,,
,,,,,,00054,2023-10-09_18h03.24.779,vbt_B2_day1,2022.2.4,Win32,60.11060351,,,,,,,,,,,,,,,,,,,-0.063802083,-0.131510417,1,0,0,0.3979,1,12,38,14,1,o,images/br_o.png,images/cb_o.png,,,,,,,,,,,,,,,,,,,,,,,,,
,,,,,,00054,2023-10-09_18h03.24.779,vbt_B2_day1,2022.2.4,Win32,60.11060351,,,,,,,,,,,,,,,,,,,-0.063802083,-0.131510417,1,0,0,0.3657,1,13,39,4,1,e,images/br_e.png,images/cb_e.png,,,,,,,,,,,,,,,,,,,,,,,,,
,,,,,,00054,2023-10-09_18h03.24.779,vbt_B2_day1,2022.2.4,Win32,60.11060351,,,,,,,,,,,,,,,,,,,-0.063802083,-0.131510417,1,0,0,0.2488,1,14,40,11,1,l,images/br_l.png,images/cb_l.png,,,,,,,,,,,,,,,,,,,,,,,,,
,,,,,,00054,2023-10-09_18h03.24.779,vbt_B2_day1,2022.2.4,Win32,60.11060351,,,,,,,,,,,,,,,,,,,-0.063802083,-0.131510417,1,0,0,1.2597,1,15,41,8,1,i,images/br_i.png,images/cb_i.png,,,,,,,,,,,,,,,,,,,,,,,,,
,,,,,,00054,2023-10-09_18h03.24.779,vbt_B2_day1,2022.2.4,Win32,60.11060351,,,,,,,,,,,,,,,,,,,-0.063802083,-0.131510417,1,0,0,14.357,1,16,42,20,1,u,images/br_u.png,images/cb_u.png,,,,,,,,,,,,,,,,,,,,,,,,,
,,,,,,00054,2023-10-09_18h03.24.779,vbt_B2_day1,2022.2.4,Win32,60.11060351,,,,,,,,,,,,,,,,,,,-0.063802083,-0.131510417,1,0,0,0.3981,1,17,43,18,1,s,images/br_s.png,images/cb_s.png,,,,,,,,,,,,,,,,,,,,,,,,,
,,,,,,00054,2023-10-09_18h03.24.779,vbt_B2_day1,2022.2.4,Win32,60.11060351,,,,,,,,,,,,,,,,,,,-0.063802083,-0.131510417,1,0,0,85.7943,1,18,44,0,1,a,images/br_a.png,images/cb_a.png,,,,,,,,,,,,,,,,,,,,,,,,,
,,,,,,00054,2023-10-09_18h03.24.779,vbt_B2_day1,2022.2.4,Win32,60.11060351,,,,,,,,,,,,,,,,,,,-0.063802083,-0.131510417,1,0,0,10.4658,1,19,45,13,1,n,images/br_n.png,images/cb_n.png,,,,,,,,,,,,,,,,,,,,,,,,,
,,,,,,00054,2023-10-09_18h03.24.779,vbt_B2_day1,2022.2.4,Win32,60.11060351,,,,,,,,,,,,,,,,,,,-0.063802083,-0.131510417,1,0,0,0.8625,1,20,46,21,1,v,images/br_v.png,images/cb_v.png,,,,,,,,,,,,,,,,,,,,,,,,,
,,,,,,00054,2023-10-09_18h03.24.779,vbt_B2_day1,2022.2.4,Win32,60.11060351,,,,,,,,,,,,,,,,,,,-0.063802083,-0.131510417,1,0,0,0.2153,1,21,47,19,1,t,images/br_t.png,images/cb_t.png,,,,,,,,,,,,,,,,,,,,,,,,,
,,,,,,00054,2023-10-09_18h03.24.779,vbt_B2_day1,2022.2.4,Win32,60.11060351,,,,,,,,,,,,,,,,,,,-0.063802083,-0.131510417,1,0,0,0.481,1,22,48,23,1,x,images/br_x.png,images/cb_x.png,,,,,,,,,,,,,,,,,,,,,,,,,
,,,,,,00054,2023-10-09_18h03.24.779,vbt_B2_day1,2022.2.4,Win32,60.11060351,,,,,,,,,,,,,,,,,,,-0.063802083,-0.131510417,1,0,0,0.7796,1,23,49,2,1,c,images/br_c.png,images/cb_c.png,,,,,,,,,,,,,,,,,,,,,,,,,
,,,,,,00054,2023-10-09_18h03.24.779,vbt_B2_day1,2022.2.4,Win32,60.11060351,,,,,,,,,,,,,,,,,,,-0.063802083,-0.131510417,1,0,0,15.8173,1,24,50,9,1,j,images/br_j.png,images/cb_j.png,,,,,,,,,,,,,,,,,,,,,,,,,
,,,,,,00054,2023-10-09_18h03.24.779,vbt_B2_day1,2022.2.4,Win32,60.11060351,,,,,,,,,,,,,,,,,,,-0.063802083,-0.131510417,1,0,0,0.1181,1,25,51,15,1,p,images/br_p.png,images/cb_p.png,,,,,,,,,,,,,,,,,,,,,,,,,
,,,,,,00054,2023-10-09_18h03.24.779,vbt_B2_day1,2022.2.4,Win32,60.11060351,,,,,,,,,,,,,,,,,,,-0.063802083,-0.131510417,1,0,0,0.5798,2,0,52,21,1,v,images/br_v.png,images/cb_v.png,,,,,,,,,,,,,,,,,,,,,,,,,
,,,,,,00054,2023-10-09_18h03.24.779,vbt_B2_day1,2022.2.4,Win32,60.11060351,,,,,,,,,,,,,,,,,,,-0.063802083,-0.131510417,1,0,0,0.2827,2,1,53,10,1,k,images/br_k.png,images/cb_k.png,,,,,,,,,,,,,,,,,,,,,,,,,
,,,,,,00054,2023-10-09_18h03.24.779,vbt_B2_day1,2022.2.4,Win32,60.11060351,,,,,,,,,,,,,,,,,,,-0.063802083,-0.131510417,1,0,0,0.2857,2,2,54,13,1,n,images/br_n.png,images/cb_n.png,,,,,,,,,,,,,,,,,,,,,,,,,
,,,,,,00054,2023-10-09_18h03.24.779,vbt_B2_day1,2022.2.4,Win32,60.11060351,,,,,,,,,,,,,,,,,,,-0.063802083,-0.131510417,1,0,0,1.2933,2,3,55,24,1,y,images/br_y.png,images/cb_y.png,,,,,,,,,,,,,,,,,,,,,,,,,
,,,,,,00054,2023-10-09_18h03.24.779,vbt_B2_day1,2022.2.4,Win32,60.11060351,,,,,,,,,,,,,,,,,,,-0.063802083,-0.131510417,1,0,0,0.4475,2,4,56,0,1,a,images/br_a.png,images/cb_a.png,,,,,,,,,,,,,,,,,,,,,,,,,
,,,,,,00054,2023-10-09_18h03.24.779,vbt_B2_day1,2022.2.4,Win32,60.11060351,,,,,,,,,,,,,,,,,,,-0.063802083,-0.131510417,1,0,0,0.1323,2,5,57,2,1,c,images/br_c.png,images/cb_c.png,,,,,,,,,,,,,,,,,,,,,,,,,
,,,,,,00054,2023-10-09_18h03.24.779,vbt_B2_day1,2022.2.4,Win32,60.11060351,,,,,,,,,,,,,,,,,,,-0.063802083,-0.131510417,1,0,0,4.4591,2,6,58,7,1,h,images/br_h.png,images/cb_h.png,,,,,,,,,,,,,,,,,,,,,,,,,
,,,,,,00054,2023-10-09_18h03.24.779,vbt_B2_day1,2022.2.4,Win32,60.11060351,,,,,,,,,,,,,,,,,,,-0.063802083,-0.131510417,1,0,0,0.1326,2,7,59,18,1,s,images/br_s.png,images/cb_s.png,,,,,,,,,,,,,,,,,,,,,,,,,
,,,,,,00054,2023-10-09_18h03.24.779,vbt_B2_day1,2022.2.4,Win32,60.11060351,,,,,,,,,,,,,,,,,,,-0.063802083,-0.131510417,1,0,0,0.216,2,8,60,25,1,z,images/br_z.png,images/cb_z.png,,,,,,,,,,,,,,,,,,,,,,,,,
,,,,,,00054,2023-10-09_18h03.24.779,vbt_B2_day1,2022.2.4,Win32,60.11060351,,,,,,,,,,,,,,,,,,,-0.063802083,-0.131510417,1,0,0,0.3141,2,9,61,19,1,t,images/br_t.png,images/cb_t.png,,,,,,,,,,,,,,,,,,,,,,,,,
,,,,,,00054,2023-10-09_18h03.24.779,vbt_B2_day1,2022.2.4,Win32,60.11060351,,,,,,,,,,,,,,,,,,,-0.063802083,-0.131510417,1,0,0,3.8464,2,10,62,1,1,b,images/br_b.png,images/cb_b.png,,,,,,,,,,,,,,,,,,,,,,,,,
,,,,,,00054,2023-10-09_18h03.24.779,vbt_B2_day1,2022.2.4,Win32,60.11060351,,,,,,,,,,,,,,,,,,,-0.063802083,-0.131510417,1,0,0,0.2153,2,11,63,4,1,e,images/br_e.png,images/cb_e.png,,,,,,,,,,,,,,,,,,,,,,,,,
,,,,,,00054,2023-10-09_18h03.24.779,vbt_B2_day1,2022.2.4,Win32,60.11060351,,,,,,,,,,,,,,,,,,,-0.063802083,-0.131510417,1,0,0,0.4145,2,12,64,14,1,o,images/br_o.png,images/cb_o.png,,,,,,,,,,,,,,,,,,,,,,,,,
,,,,,,00054,2023-10-09_18h03.24.779,vbt_B2_day1,2022.2.4,Win32,60.11060351,,,,,,,,,,,,,,,,,,,-0.063802083,-0.131510417,1,0,0,0.6635,2,13,65,17,1,r,images/br_r.png,images/cb_r.png,,,,,,,,,,,,,,,,,,,,,,,,,
,,,,,,00054,2023-10-09_18h03.24.779,vbt_B2_day1,2022.2.4,Win32,60.11060351,,,,,,,,,,,,,,,,,,,-0.063802083,-0.131510417,1,0,0,1.1915,2,14,66,20,1,u,images/br_u.png,images/cb_u.png,,,,,,,,,,,,,,,,,,,,,,,,,
,,,,,,00054,2023-10-09_18h03.24.779,vbt_B2_day1,2022.2.4,Win32,60.11060351,,,,,,,,,,,,,,,,,,,-0.063802083,-0.131510417,1,0,0,0.1658,2,15,67,12,1,m,images/br_m.png,images/cb_m.png,,,,,,,,,,,,,,,,,,,,,,,,,
,,,,,,00054,2023-10-09_18h03.24.779,vbt_B2_day1,2022.2.4,Win32,60.11060351,,,,,,,,,,,,,,,,,,,-0.063802083,-0.131510417,1,0,0,0.2157,2,16,68,8,1,i,images/br_i.png,images/cb_i.png,,,,,,,,,,,,,,,,,,,,,,,,,
,,,,,,00054,2023-10-09_18h03.24.779,vbt_B2_day1,2022.2.4,Win32,60.11060351,,,,,,,,,,,,,,,,,,,-0.063802083,-0.131510417,1,0,0,0.0998,2,17,69,11,1,l,images/br_l.png,images/cb_l.png,,,,,,,,,,,,,,,,,,,,,,,,,
,,,,,,00054,2023-10-09_18h03.24.779,vbt_B2_day1,2022.2.4,Win32,60.11060351,,,,,,,,,,,,,,,,,,,-0.063802083,-0.131510417,1,0,0,2.4715,2,18,70,3,1,d,images/br_d.png,images/cb_d.png,,,,,,,,,,,,,,,,,,,,,,,,,
,,,,,,00054,2023-10-09_18h03.24.779,vbt_B2_day1,2022.2.4,Win32,60.11060351,,,,,,,,,,,,,,,,,,,-0.063802083,-0.131510417,1,0,0,0.0317,2,19,71,15,1,p,images/br_p.png,images/cb_p.png,,,,,,,,,,,,,,,,,,,,,,,,,
,,,,,,00054,2023-10-09_18h03.24.779,vbt_B2_day1,2022.2.4,Win32,60.11060351,,,,,,,,,,,,,,,,,,,-0.063802083,-0.131510417,1,0,0,0.2003,2,20,72,6,1,g,images/br_g.png,images/cb_g.png,,,,,,,,,,,,,,,,,,,,,,,,,
,,,,,,00054,2023-10-09_18h03.24.779,vbt_B2_day1,2022.2.4,Win32,60.11060351,,,,,,,,,,,,,,,,,,,-0.063802083,-0.131510417,1,0,0,1.7275,2,21,73,9,1,j,images/br_j.png,images/cb_j.png,,,,,,,,,,,,,,,,,,,,,,,,,
,,,,,,00054,2023-10-09_18h03.24.779,vbt_B2_day1,2022.2.4,Win32,60.11060351,,,,,,,,,,,,,,,,,,,-0.063802083,-0.131510417,1,0,0,0.0659,2,22,74,23,1,x,images/br_x.png,images/cb_x.png,,,,,,,,,,,,,,,,,,,,,,,,,
,,,,,,00054,2023-10-09_18h03.24.779,vbt_B2_day1,2022.2.4,Win32,60.11060351,,,,,,,,,,,,,,,,,,,-0.063802083,-0.131510417,1,0,0,0.2155,2,23,75,16,1,q,images/br_q.png,images/cb_q.png,,,,,,,,,,,,,,,,,,,,,,,,,
,,,,,,00054,2023-10-09_18h03.24.779,vbt_B2_day1,2022.2.4,Win32,60.11060351,,,,,,,,,,,,,,,,,,,-0.063802083,-0.131510417,1,0,0,3.0008,2,24,76,5,1,f,images/br_f.png,images/cb_f.png,,,,,,,,,,,,,,,,,,,,,,,,,
,,,,,,00054,2023-10-09_18h03.24.779,vbt_B2_day1,2022.2.4,Win32,60.11060351,,,,,,,,,,,,,,,,,,,-0.063802083,-0.131510417,1,0,0,0.0816,2,25,77,22,1,w,images/br_w.png,images/cb_w.png,,,,,,,,,,,,,,,,,,,,,,,,,
,,,,,,00054,2023-10-09_18h03.24.779,vbt_B2_day1,2022.2.4,Win32,60.11060351,,,,,,,,,,,,,,,,,,,-0.063802083,-0.131510417,1,0,0,0.0502,3,0,78,15,1,p,images/br_p.png,images/cb_p.png,,,,,,,,,,,,,,,,,,,,,,,,,
,,,,,,00054,2023-10-09_18h03.24.779,vbt_B2_day1,2022.2.4,Win32,60.11060351,,,,,,,,,,,,,,,,,,,-0.063802083,-0.131510417,1,0,0,1.4928,3,1,79,3,1,d,images/br_d.png,images/cb_d.png,,,,,,,,,,,,,,,,,,,,,,,,,
,,,,,,00054,2023-10-09_18h03.24.779,vbt_B2_day1,2022.2.4,Win32,60.11060351,,,,,,,,,,,,,,,,,,,-0.063802083,-0.131510417,1,0,0,1.4091,3,2,80,16,1,q,images/br_q.png,images/cb_q.png,,,,,,,,,,,,,,,,,,,,,,,,,
,,,,,,00054,2023-10-09_18h03.24.779,vbt_B2_day1,2022.2.4,Win32,60.11060351,,,,,,,,,,,,,,,,,,,-0.063802083,-0.131510417,1,0,0,0.0502,3,3,81,8,1,i,images/br_i.png,images/cb_i.png,,,,,,,,,,,,,,,,,,,,,,,,,
,,,,,,00054,2023-10-09_18h03.24.779,vbt_B2_day1,2022.2.4,Win32,60.11060351,,,,,,,,,,,,,,,,,,,-0.063802083,-0.131510417,1,0,0,0.2482,3,4,82,2,1,c,images/br_c.png,images/cb_c.png,,,,,,,,,,,,,,,,,,,,,,,,,
,,,,,,00054,2023-10-09_18h03.24.779,vbt_B2_day1,2022.2.4,Win32,60.11060351,,,,,,,,,,,,,,,,,,,-0.063802083,-0.131510417,1,0,0,0.0483,3,5,83,7,1,h,images/br_h.png,images/cb_h.png,,,,,,,,,,,,,,,,,,,,,,,,,
,,,,,,00054,2023-10-09_18h03.24.779,vbt_B2_day1,2022.2.4,Win32,60.11060351,,,,,,,,,,,,,,,,,,,-0.063802083,-0.131510417,1,0,0,0.8298,3,6,84,9,1,j,images/br_j.png,images/cb_j.png,,,,,,,,,,,,,,,,,,,,,,,,,
,,,,,,00054,2023-10-09_18h03.24.779,vbt_B2_day1,2022.2.4,Win32,60.11060351,,,,,,,,,,,,,,,,,,,-0.063802083,-0.131510417,1,0,0,0.0338,3,7,85,0,1,a,images/br_a.png,images/cb_a.png,,,,,,,,,,,,,,,,,,,,,,,,,
,,,,,,00054,2023-10-09_18h03.24.779,vbt_B2_day1,2022.2.4,Win32,60.11060351,,,,,,,,,,,,,,,,,,,-0.063802083,-0.131510417,1,0,0,0.5793,3,8,86,17,1,r,images/br_r.png,images/cb_r.png,,,,,,,,,,,,,,,,,,,,,,,,,
,,,,,,00054,2023-10-09_18h03.24.779,vbt_B2_day1,2022.2.4,Win32,60.11060351,,,,,,,,,,,,,,,,,,,-0.063802083,-0.131510417,1,0,0,0.5297,3,9,87,14,1,o,images/br_o.png,images/cb_o.png,,,,,,,,,,,,,,,,,,,,,,,,,
,,,,,,00054,2023-10-09_18h03.24.779,vbt_B2_day1,2022.2.4,Win32,60.11060351,,,,,,,,,,,,,,,,,,,-0.063802083,-0.131510417,1,0,0,0.1847,3,10,88,23,1,x,images/br_x.png,images/cb_x.png,,,,,,,,,,,,,,,,,,,,,,,,,
,,,,,,00054,2023-10-09_18h03.24.779,vbt_B2_day1,2022.2.4,Win32,60.11060351,,,,,,,,,,,,,,,,,,,-0.063802083,-0.131510417,1,0,0,0.8124,3,11,89,24,1,y,images/br_y.png,images/cb_y.png,,,,,,,,,,,,,,,,,,,,,,,,,
,,,,,,00054,2023-10-09_18h03.24.779,vbt_B2_day1,2022.2.4,Win32,60.11060351,,,,,,,,,,,,,,,,,,,-0.063802083,-0.131510417,1,0,0,1.2771,3,12,90,10,1,k,images/br_k.png,images/cb_k.png,,,,,,,,,,,,,,,,,,,,,,,,,
,,,,,,00054,2023-10-09_18h03.24.779,vbt_B2_day1,2022.2.4,Win32,60.11060351,,,,,,,,,,,,,,,,,,,-0.063802083,-0.131510417,1,0,0,0.3806,3,13,91,13,1,n,images/br_n.png,images/cb_n.png,,,,,,,,,,,,,,,,,,,,,,,,,
,,,,,,00054,2023-10-09_18h03.24.779,vbt_B2_day1,2022.2.4,Win32,60.11060351,,,,,,,,,,,,,,,,,,,-0.063802083,-0.131510417,1,0,0,0.149,3,14,92,22,1,w,images/br_w.png,images/cb_w.png,,,,,,,,,,,,,,,,,,,,,,,,,
,,,,,,00054,2023-10-09_18h03.24.779,vbt_B2_day1,2022.2.4,Win32,60.11060351,,,,,,,,,,,,,,,,,,,-0.063802083,-0.131510417,1,0,0,0.2327,3,15,93,18,1,s,images/br_s.png,images/cb_s.png,,,,,,,,,,,,,,,,,,,,,,,,,
,,,,,,00054,2023-10-09_18h03.24.779,vbt_B2_day1,2022.2.4,Win32,60.11060351,,,,,,,,,,,,,,,,,,,-0.063802083,-0.131510417,1,0,0,0.0485,3,16,94,4,1,e,images/br_e.png,images/cb_e.png,,,,,,,,,,,,,,,,,,,,,,,,,
,,,,,,00054,2023-10-09_18h03.24.779,vbt_B2_day1,2022.2.4,Win32,60.11060351,,,,,,,,,,,,,,,,,,,-0.063802083,-0.131510417,1,0,0,0.3977,3,17,95,11,1,l,images/br_l.png,images/cb_l.png,,,,,,,,,,,,,,,,,,,,,,,,,
,,,,,,00054,2023-10-09_18h03.24.779,vbt_B2_day1,2022.2.4,Win32,60.11060351,,,,,,,,,,,,,,,,,,,-0.063802083,-0.131510417,1,0,0,5.6871,3,18,96,5,1,f,images/br_f.png,images/cb_f.png,,,,,,,,,,,,,,,,,,,,,,,,,
,,,,,,00054,2023-10-09_18h03.24.779,vbt_B2_day1,2022.2.4,Win32,60.11060351,,,,,,,,,,,,,,,,,,,-0.063802083,-0.131510417,1,0,0,0.5148,3,19,97,1,1,b,images/br_b.png,images/cb_b.png,,,,,,,,,,,,,,,,,,,,,,,,,
,,,,,,00054,2023-10-09_18h03.24.779,vbt_B2_day1,2022.2.4,Win32,60.11060351,,,,,,,,,,,,,,,,,,,-0.063802083,-0.131510417,1,0,0,0.1486,3,20,98,19,1,t,images/br_t.png,images/cb_t.png,,,,,,,,,,,,,,,,,,,,,,,,,
,,,,,,00054,2023-10-09_18h03.24.779,vbt_B2_day1,2022.2.4,Win32,60.11060351,,,,,,,,,,,,,,,,,,,-0.063802083,-0.131510417,1,0,0,0.6141,3,21,99,25,1,z,images/br_z.png,images/cb_z.png,,,,,,,,,,,,,,,,,,,,,,,,,
,,,,,,00054,2023-10-09_18h03.24.779,vbt_B2_day1,2022.2.4,Win32,60.11060351,,,,,,,,,,,,,,,,,,,-0.063802083,-0.131510417,1,0,0,0.1328,3,22,100,12,1,m,images/br_m.png,images/cb_m.png,,,,,,,,,,,,,,,,,,,,,,,,,
,,,,,,00054,2023-10-09_18h03.24.779,vbt_B2_day1,2022.2.4,Win32,60.11060351,,,,,,,,,,,,,,,,,,,-0.063802083,-0.131510417,1,0,0,0.1824,3,23,101,6,1,g,images/br_g.png,images/cb_g.png,,,,,,,,,,,,,,,,,,,,,,,,,
,,,,,,00054,2023-10-09_18h03.24.779,vbt_B2_day1,2022.2.4,Win32,60.11060351,,,,,,,,,,,,,,,,,,,-0.063802083,-0.131510417,1,0,0,1.3267,3,24,102,21,1,v,images/br_v.png,images/cb_v.png,,,,,,,,,,,,,,,,,,,,,,,,,
,,,,,,00054,2023-10-09_18h03.24.779,vbt_B2_day1,2022.2.4,Win32,60.11060351,,,,,,,,,,,,,,,,,,,-0.063802083,-0.131510417,1,0,0,1.1769,3,25,103,20,1,u,images/br_u.png,images/cb_u.png,,,,,,,,,,,,,,,,,,,,,,,,,
,,,,,,00054,2023-10-09_18h03.24.779,vbt_B2_day1,2022.2.4,Win32,60.11060351,,,,,,,,,,,,,,,,,,,-0.063802083,-0.131510417,1,0,0,0.3316,4,0,104,24,1,y,images/br_y.png,images/cb_y.png,,,,,,,,,,,,,,,,,,,,,,,,,
,,,,,,00054,2023-10-09_18h03.24.779,vbt_B2_day1,2022.2.4,Win32,60.11060351,,,,,,,,,,,,,,,,,,,-0.063802083,-0.131510417,1,0,0,3.863,4,1,105,7,1,h,images/br_h.png,images/cb_h.png,,,,,,,,,,,,,,,,,,,,,,,,,
,,,,,,00054,2023-10-09_18h03.24.779,vbt_B2_day1,2022.2.4,Win32,60.11060351,,,,,,,,,,,,,,,,,,,-0.063802083,-0.131510417,1,0,0,0.1657,4,2,106,11,1,l,images/br_l.png,images/cb_l.png,,,,,,,,,,,,,,,,,,,,,,,,,
,,,,,,00054,2023-10-09_18h03.24.779,vbt_B2_day1,2022.2.4,Win32,60.11060351,,,,,,,,,,,,,,,,,,,-0.063802083,-0.131510417,1,0,0,2.4865,4,3,107,3,1,d,images/br_d.png,images/cb_d.png,,,,,,,,,,,,,,,,,,,,,,,,,
,,,,,,00054,2023-10-09_18h03.24.779,vbt_B2_day1,2022.2.4,Win32,60.11060351,,,,,,,,,,,,,,,,,,,-0.063802083,-0.131510417,1,0,0,0.0831,4,4,108,8,1,i,images/br_i.png,images/cb_i.png,,,,,,,,,,,,,,,,,,,,,,,,,
,,,,,,00054,2023-10-09_18h03.24.779,vbt_B2_day1,2022.2.4,Win32,60.11060351,,,,,,,,,,,,,,,,,,,-0.063802083,-0.131510417,1,0,0,0.2983,4,5,109,12,1,m,images/br_m.png,images/cb_m.png,,,,,,,,,,,,,,,,,,,,,,,,,
,,,,,,00054,2023-10-09_18h03.24.779,vbt_B2_day1,2022.2.4,Win32,60.11060351,,,,,,,,,,,,,,,,,,,-0.063802083,-0.131510417,1,0,0,3.8964,4,6,110,18,1,s,images/br_s.png,images/cb_s.png,,,,,,,,,,,,,,,,,,,,,,,,,
,,,,,,00054,2023-10-09_18h03.24.779,vbt_B2_day1,2022.2.4,Win32,60.11060351,,,,,,,,,,,,,,,,,,,-0.063802083,-0.131510417,1,0,0,0.6461,4,7,111,1,1,b,images/br_b.png,images/cb_b.png,,,,,,,,,,,,,,,,,,,,,,,,,
,,,,,,00054,2023-10-09_18h03.24.779,vbt_B2_day1,2022.2.4,Win32,60.11060351,,,,,,,,,,,,,,,,,,,-0.063802083,-0.131510417,1,0,0,0.3144,4,8,112,2,1,c,images/br_c.png,images/cb_c.png,,,,,,,,,,,,,,,,,,,,,,,,,
,,,,,,00054,2023-10-09_18h03.24.779,vbt_B2_day1,2022.2.4,Win32,60.11060351,,,,,,,,,,,,,,,,,,,-0.063802083,-0.131510417,1,0,0,0.1329,4,9,113,14,1,o,images/br_o.png,images/cb_o.png,,,,,,,,,,,,,,,,,,,,,,,,,
,,,,,,00054,2023-10-09_18h03.24.779,vbt_B2_day1,2022.2.4,Win32,60.11060351,,,,,,,,,,,,,,,,,,,-0.063802083,-0.131510417,1,0,0,0.2139,4,10,114,25,1,z,images/br_z.png,images/cb_z.png,,,,,,,,,,,,,,,,,,,,,,,,,
,,,,,,00054,2023-10-09_18h03.24.779,vbt_B2_day1,2022.2.4,Win32,60.11060351,,,,,,,,,,,,,,,,,,,-0.063802083,-0.131510417,1,0,0,0.3647,4,11,115,10,1,k,images/br_k.png,images/cb_k.png,,,,,,,,,,,,,,,,,,,,,,,,,
,,,,,,00054,2023-10-09_18h03.24.779,vbt_B2_day1,2022.2.4,Win32,60.11060351,,,,,,,,,,,,,,,,,,,-0.063802083,-0.131510417,1,0,0,0.0995,4,12,116,13,1,n,images/br_n.png,images/cb_n.png,,,,,,,,,,,,,,,,,,,,,,,,,
,,,,,,00054,2023-10-09_18h03.24.779,vbt_B2_day1,2022.2.4,Win32,60.11060351,,,,,,,,,,,,,,,,,,,-0.063802083,-0.131510417,1,0,0,4.0446,4,13,117,15,1,p,images/br_p.png,images/cb_p.png,,,,,,,,,,,,,,,,,,,,,,,,,
,,,,,,00054,2023-10-09_18h03.24.779,vbt_B2_day1,2022.2.4,Win32,60.11060351,,,,,,,,,,,,,,,,,,,-0.063802083,-0.131510417,1,0,0,0.0512,4,14,118,0,1,a,images/br_a.png,images/cb_a.png,,,,,,,,,,,,,,,,,,,,,,,,,
,,,,,,00054,2023-10-09_18h03.24.779,vbt_B2_day1,2022.2.4,Win32,60.11060351,,,,,,,,,,,,,,,,,,,-0.063802083,-0.131510417,1,0,0,0.2489,4,15,119,19,1,t,images/br_t.png,images/cb_t.png,,,,,,,,,,,,,,,,,,,,,,,,,
,,,,,,00054,2023-10-09_18h03.24.779,vbt_B2_day1,2022.2.4,Win32,60.11060351,,,,,,,,,,,,,,,,,,,-0.063802083,-0.131510417,1,0,0,0.3981,4,16,120,17,1,r,images/br_r.png,images/cb_r.png,,,,,,,,,,,,,,,,,,,,,,,,,
,,,,,,00054,2023-10-09_18h03.24.779,vbt_B2_day1,2022.2.4,Win32,60.11060351,,,,,,,,,,,,,,,,,,,-0.063802083,-0.131510417,1,0,0,0.5148,4,17,121,6,1,g,images/br_g.png,images/cb_g.png,,,,,,,,,,,,,,,,,,,,,,,,,
,,,,,,00054,2023-10-09_18h03.24.779,vbt_B2_day1,2022.2.4,Win32,60.11060351,,,,,,,,,,,,,,,,,,,-0.063802083,-0.131510417,1,0,0,0.4641,4,18,122,4,1,e,images/br_e.png,images/cb_e.png,,,,,,,,,,,,,,,,,,,,,,,,,
,,,,,,00054,2023-10-09_18h03.24.779,vbt_B2_day1,2022.2.4,Win32,60.11060351,,,,,,,,,,,,,,,,,,,-0.063802083,-0.131510417,1,0,0,2.0227,4,19,123,5,1,f,images/br_f.png,images/cb_f.png,,,,,,,,,,,,,,,,,,,,,,,,,
,,,,,,00054,2023-10-09_18h03.24.779,vbt_B2_day1,2022.2.4,Win32,60.11060351,,,,,,,,,,,,,,,,,,,-0.063802083,-0.131510417,1,0,0,1.161,4,20,124,21,1,v,images/br_v.png,images/cb_v.png,,,,,,,,,,,,,,,,,,,,,,,,,
,,,,,,00054,2023-10-09_18h03.24.779,vbt_B2_day1,2022.2.4,Win32,60.11060351,,,,,,,,,,,,,,,,,,,-0.063802083,-0.131510417,1,0,0,0.6964,4,21,125,9,1,j,images/br_j.png,images/cb_j.png,,,,,,,,,,,,,,,,,,,,,,,,,
,,,,,,00054,2023-10-09_18h03.24.779,vbt_B2_day1,2022.2.4,Win32,60.11060351,,,,,,,,,,,,,,,,,,,-0.063802083,-0.131510417,1,0,0,0.2984,4,22,126,20,1,u,images/br_u.png,images/cb_u.png,,,,,,,,,,,,,,,,,,,,,,,,,
,,,,,,00054,2023-10-09_18h03.24.779,vbt_B2_day1,2022.2.4,Win32,60.11060351,,,,,,,,,,,,,,,,,,,-0.063802083,-0.131510417,1,0,0,0.4466,4,23,127,23,1,x,images/br_x.png,images/cb_x.png,,,,,,,,,,,,,,,,,,,,,,,,,
,,,,,,00054,2023-10-09_18h03.24.779,vbt_B2_day1,2022.2.4,Win32,60.11060351,,,,,,,,,,,,,,,,,,,-0.063802083,-0.131510417,1,0,0,0.0322,4,24,128,22,1,w,images/br_w.png,images/cb_w.png,,,,,,,,,,,,,,,,,,,,,,,,,
,,,,,,00054,2023-10-09_18h03.24.779,vbt_B2_day1,2022.2.4,Win32,60.11060351,,,,,,,,,,,,,,,,,,,-0.063802083,-0.131510417,1,0,0,0.2323,4,25,129,16,1,q,images/br_q.png,images/cb_q.png,,,,,,,,,,,,,,,,,,,,,,,,,
,,,,,,00054,2023-10-09_18h03.24.779,vbt_B2_day1,2022.2.4,Win32,60.11060351,,,,,,,,,,,,,,,,,,,-0.063802083,-0.131510417,1,0,0,0.4312,5,0,130,13,1,n,images/br_n.png,images/cb_n.png,,,,,,,,,,,,,,,,,,,,,,,,,
,,,,,,00054,2023-10-09_18h03.24.779,vbt_B2_day1,2022.2.4,Win32,60.11060351,,,,,,,,,,,,,,,,,,,-0.063802083,-0.131510417,1,0,0,0.3312,5,1,131,12,1,m,images/br_m.png,images/cb_m.png,,,,,,,,,,,,,,,,,,,,,,,,,
,,,,,,00054,2023-10-09_18h03.24.779,vbt_B2_day1,2022.2.4,Win32,60.11060351,,,,,,,,,,,,,,,,,,,-0.063802083,-0.131510417,1,0,0,0.1167,5,2,132,0,1,a,images/br_a.png,images/cb_a.png,,,,,,,,,,,,,,,,,,,,,,,,,
,,,,,,00054,2023-10-09_18h03.24.779,vbt_B2_day1,2022.2.4,Win32,60.11060351,,,,,,,,,,,,,,,,,,,-0.063802083,-0.131510417,1,0,0,0.2304,5,3,133,4,1,e,images/br_e.png,images/cb_e.png,,,,,,,,,,,,,,,,,,,,,,,,,
,,,,,,00054,2023-10-09_18h03.24.779,vbt_B2_day1,2022.2.4,Win32,60.11060351,,,,,,,,,,,,,,,,,,,-0.063802083,-0.131510417,1,0,0,0.2321,5,4,134,19,1,t,images/br_t.png,images/cb_t.png,,,,,,,,,,,,,,,,,,,,,,,,,
,,,,,,00054,2023-10-09_18h03.24.779,vbt_B2_day1,2022.2.4,Win32,60.11060351,,,,,,,,,,,,,,,,,,,-0.063802083,-0.131510417,1,0,0,0.0501,5,5,135,11,1,l,images/br_l.png,images/cb_l.png,,,,,,,,,,,,,,,,,,,,,,,,,
,,,,,,00054,2023-10-09_18h03.24.779,vbt_B2_day1,2022.2.4,Win32,60.11060351,,,,,,,,,,,,,,,,,,,-0.063802083,-0.131510417,1,0,0,0.099,5,6,136,6,1,g,images/br_g.png,images/cb_g.png,,,,,,,,,,,,,,,,,,,,,,,,,
,,,,,,00054,2023-10-09_18h03.24.779,vbt_B2_day1,2022.2.4,Win32,60.11060351,,,,,,,,,,,,,,,,,,,-0.063802083,-0.131510417,1,0,0,0.0326,5,7,137,25,1,z,images/br_z.png,images/cb_z.png,,,,,,,,,,,,,,,,,,,,,,,,,
,,,,,,00054,2023-10-09_18h03.24.779,vbt_B2_day1,2022.2.4,Win32,60.11060351,,,,,,,,,,,,,,,,,,,-0.063802083,-0.131510417,1,0,0,3.1503,5,8,138,24,1,y,images/br_y.png,images/cb_y.png,,,,,,,,,,,,,,,,,,,,,,,,,
,,,,,,00054,2023-10-09_18h03.24.779,vbt_B2_day1,2022.2.4,Win32,60.11060351,,,,,,,,,,,,,,,,,,,-0.063802083,-0.131510417,1,0,0,0.1491,5,9,139,3,1,d,images/br_d.png,images/cb_d.png,,,,,,,,,,,,,,,,,,,,,,,,,
,,,,,,00054,2023-10-09_18h03.24.779,vbt_B2_day1,2022.2.4,Win32,60.11060351,,,,,,,,,,,,,,,,,,,-0.063802083,-0.131510417,1,0,0,0.962,5,10,140,9,1,j,images/br_j.png,images/cb_j.png,,,,,,,,,,,,,,,,,,,,,,,,,
,,,,,,00054,2023-10-09_18h03.24.779,vbt_B2_day1,2022.2.4,Win32,60.11060351,,,,,,,,,,,,,,,,,,,-0.063802083,-0.131510417,1,0,0,0.4809,5,11,141,8,1,i,images/br_i.png,images/cb_i.png,,,,,,,,,,,,,,,,,,,,,,,,,
,,,,,,00054,2023-10-09_18h03.24.779,vbt_B2_day1,2022.2.4,Win32,60.11060351,,,,,,,,,,,,,,,,,,,-0.063802083,-0.131510417,1,0,0,0.1966,5,12,142,17,1,r,images/br_r.png,images/cb_r.png,,,,,,,,,,,,,,,,,,,,,,,,,
,,,,,,00054,2023-10-09_18h03.24.779,vbt_B2_day1,2022.2.4,Win32,60.11060351,,,,,,,,,,,,,,,,,,,-0.063802083,-0.131510417,1,0,0,4.7946,5,13,143,20,1,u,images/br_u.png,images/cb_u.png,,,,,,,,,,,,,,,,,,,,,,,,,
,,,,,,00054,2023-10-09_18h03.24.779,vbt_B2_day1,2022.2.4,Win32,60.11060351,,,,,,,,,,,,,,,,,,,-0.063802083,-0.131510417,1,0,0,0.4994,5,14,144,23,1,x,images/br_x.png,images/cb_x.png,,,,,,,,,,,,,,,,,,,,,,,,,
,,,,,,00054,2023-10-09_18h03.24.779,vbt_B2_day1,2022.2.4,Win32,60.11060351,,,,,,,,,,,,,,,,,,,-0.063802083,-0.131510417,1,0,0,0.282,5,15,145,16,1,q,images/br_q.png,images/cb_q.png,,,,,,,,,,,,,,,,,,,,,,,,,
,,,,,,00054,2023-10-09_18h03.24.779,vbt_B2_day1,2022.2.4,Win32,60.11060351,,,,,,,,,,,,,,,,,,,-0.063802083,-0.131510417,1,0,0,1.3271,5,16,146,7,1,h,images/br_h.png,images/cb_h.png,,,,,,,,,,,,,,,,,,,,,,,,,
,,,,,,00054,2023-10-09_18h03.24.779,vbt_B2_day1,2022.2.4,Win32,60.11060351,,,,,,,,,,,,,,,,,,,-0.063802083,-0.131510417,1,0,0,0.1331,5,17,147,18,1,s,images/br_s.png,images/cb_s.png,,,,,,,,,,,,,,,,,,,,,,,,,
,,,,,,00054,2023-10-09_18h03.24.779,vbt_B2_day1,2022.2.4,Win32,60.11060351,,,,,,,,,,,,,,,,,,,-0.063802083,-0.131510417,1,0,0,0.9455,5,18,148,2,1,c,images/br_c.png,images/cb_c.png,,,,,,,,,,,,,,,,,,,,,,,,,
,,,,,,00054,2023-10-09_18h03.24.779,vbt_B2_day1,2022.2.4,Win32,60.11060351,,,,,,,,,,,,,,,,,,,-0.063802083,-0.131510417,1,0,0,0.233,5,19,149,5,1,f,images/br_f.png,images/cb_f.png,,,,,,,,,,,,,,,,,,,,,,,,,
,,,,,,00054,2023-10-09_18h03.24.779,vbt_B2_day1,2022.2.4,Win32,60.11060351,,,,,,,,,,,,,,,,,,,-0.063802083,-0.131510417,1,0,0,0.531,5,20,150,22,1,w,images/br_w.png,images/cb_w.png,,,,,,,,,,,,,,,,,,,,,,,,,
,,,,,,00054,2023-10-09_18h03.24.779,vbt_B2_day1,2022.2.4,Win32,60.11060351,,,,,,,,,,,,,,,,,,,-0.063802083,-0.131510417,1,0,0,0.1494,5,21,151,10,1,k,images/br_k.png,images/cb_k.png,,,,,,,,,,,,,,,,,,,,,,,,,
,,,,,,00054,2023-10-09_18h03.24.779,vbt_B2_day1,2022.2.4,Win32,60.11060351,,,,,,,,,,,,,,,,,,,-0.063802083,-0.131510417,1,0,0,0.5142,5,22,152,21,1,v,images/br_v.png,images/cb_v.png,,,,,,,,,,,,,,,,,,,,,,,,,
,,,,,,00054,2023-10-09_18h03.24.779,vbt_B2_day1,2022.2.4,Win32,60.11060351,,,,,,,,,,,,,,,,,,,-0.063802083,-0.131510417,1,0,0,0.0497,5,23,153,15,1,p,images/br_p.png,images/cb_p.png,,,,,,,,,,,,,,,,,,,,,,,,,
,,,,,,00054,2023-10-09_18h03.24.779,vbt_B2_day1,2022.2.4,Win32,60.11060351,,,,,,,,,,,,,,,,,,,-0.063802083,-0.131510417,1,0,0,0.6121,5,24,154,14,1,o,images/br_o.png,images/cb_o.png,,,,,,,,,,,,,,,,,,,,,,,,,
,,,,,,00054,2023-10-09_18h03.24.779,vbt_B2_day1,2022.2.4,Win32,60.11060351,,,,,,,,,,,,,,,,,,,-0.063802083,-0.131510417,1,0,0,0.0497,5,25,155,1,1,b,images/br_b.png,images/cb_b.png,,,,,,,,,,,,,,,,,,,,,,,,,
,,,,,,00054,2023-10-09_18h03.24.779,vbt_B2_day1,2022.2.4,Win32,60.11060351,,,,,,,,,,,,,,,,,,,-0.063802083,-0.131510417,1,0,0,18.0881,6,0,156,15,1,p,images/br_p.png,images/cb_p.png,,,,,,,,,,,,,,,,,,,,,,,,,
,,,,,,00054,2023-10-09_18h03.24.779,vbt_B2_day1,2022.2.4,Win32,60.11060351,,,,,,,,,,,,,,,,,,,-0.063802083,-0.131510417,1,0,0,0.8627,6,1,157,7,1,h,images/br_h.png,images/cb_h.png,,,,,,,,,,,,,,,,,,,,,,,,,
,,,,,,00054,2023-10-09_18h03.24.779,vbt_B2_day1,2022.2.4,Win32,60.11060351,,,,,,,,,,,,,,,,,,,-0.063802083,-0.131510417,1,0,0,0.1656,6,2,158,9,1,j,images/br_j.png,images/cb_j.png,,,,,,,,,,,,,,,,,,,,,,,,,
,,,,,,00054,2023-10-09_18h03.24.779,vbt_B2_day1,2022.2.4,Win32,60.11060351,,,,,,,,,,,,,,,,,,,-0.063802083,-0.131510417,1,0,0,0.3974,6,3,159,5,1,f,images/br_f.png,images/cb_f.png,,,,,,,,,,,,,,,,,,,,,,,,,
,,,,,,00054,2023-10-09_18h03.24.779,vbt_B2_day1,2022.2.4,Win32,60.11060351,,,,,,,,,,,,,,,,,,,-0.063802083,-0.131510417,1,0,0,0.7456,6,4,160,24,1,y,images/br_y.png,images/cb_y.png,,,,,,,,,,,,,,,,,,,,,,,,,
,,,,,,00054,2023-10-09_18h03.24.779,vbt_B2_day1,2022.2.4,Win32,60.11060351,,,,,,,,,,,,,,,,,,,-0.063802083,-0.131510417,1,0,0,0.1163,6,5,161,8,1,i,images/br_i.png,images/cb_i.png,,,,,,,,,,,,,,,,,,,,,,,,,
,,,,,,00054,2023-10-09_18h03.24.779,vbt_B2_day1,2022.2.4,Win32,60.11060351,,,,,,,,,,,,,,,,,,,-0.063802083,-0.131510417,1,0,0,0.1699,6,6,162,14,1,o,images/br_o.png,images/cb_o.png,,,,,,,,,,,,,,,,,,,,,,,,,
,,,,,,00054,2023-10-09_18h03.24.779,vbt_B2_day1,2022.2.4,Win32,60.11060351,,,,,,,,,,,,,,,,,,,-0.063802083,-0.131510417,1,0,0,0.348,6,7,163,3,1,d,images/br_d.png,images/cb_d.png,,,,,,,,,,,,,,,,,,,,,,,,,
,,,,,,00054,2023-10-09_18h03.24.779,vbt_B2_day1,2022.2.4,Win32,60.11060351,,,,,,,,,,,,,,,,,,,-0.063802083,-0.131510417,1,0,0,0.149,6,8,164,4,1,e,images/br_e.png,images/cb_e.png,,,,,,,,,,,,,,,,,,,,,,,,,
,,,,,,00054,2023-10-09_18h03.24.779,vbt_B2_day1,2022.2.4,Win32,60.11060351,,,,,,,,,,,,,,,,,,,-0.063802083,-0.131510417,1,0,0,0.0666,6,9,165,23,1,x,images/br_x.png,images/cb_x.png,,,,,,,,,,,,,,,,,,,,,,,,,
,,,,,,00054,2023-10-09_18h03.24.779,vbt_B2_day1,2022.2.4,Win32,60.11060351,,,,,,,,,,,,,,,,,,,-0.063802083,-0.131510417,1,0,0,0.1657,6,10,166,17,1,r,images/br_r.png,images/cb_r.png,,,,,,,,,,,,,,,,,,,,,,,,,
,,,,,,00054,2023-10-09_18h03.24.779,vbt_B2_day1,2022.2.4,Win32,60.11060351,,,,,,,,,,,,,,,,,,,-0.063802083,-0.131510417,1,0,0,0.2646,6,11,167,16,1,q,images/br_q.png,images/cb_q.png,,,,,,,,,,,,,,,,,,,,,,,,,
,,,,,,00054,2023-10-09_18h03.24.779,vbt_B2_day1,2022.2.4,Win32,60.11060351,,,,,,,,,,,,,,,,,,,-0.063802083,-0.131510417,1,0,0,0.1154,6,12,168,0,1,a,images/br_a.png,images/cb_a.png,,,,,,,,,,,,,,,,,,,,,,,,,
,,,,,,00054,2023-10-09_18h03.24.779,vbt_B2_day1,2022.2.4,Win32,60.11060351,,,,,,,,,,,,,,,,,,,-0.063802083,-0.131510417,1,0,0,0.6964,6,13,169,25,1,z,images/br_z.png,images/cb_z.png,,,,,,,,,,,,,,,,,,,,,,,,,
,,,,,,00054,2023-10-09_18h03.24.779,vbt_B2_day1,2022.2.4,Win32,60.11060351,,,,,,,,,,,,,,,,,,,-0.063802083,-0.131510417,1,0,0,0.2157,6,14,170,11,1,l,images/br_l.png,images/cb_l.png,,,,,,,,,,,,,,,,,,,,,,,,,
,,,,,,00054,2023-10-09_18h03.24.779,vbt_B2_day1,2022.2.4,Win32,60.11060351,,,,,,,,,,,,,,,,,,,-0.063802083,-0.131510417,1,0,0,0.3817,6,15,171,22,1,w,images/br_w.png,images/cb_w.png,,,,,,,,,,,,,,,,,,,,,,,,,
,,,,,,00054,2023-10-09_18h03.24.779,vbt_B2_day1,2022.2.4,Win32,60.11060351,,,,,,,,,,,,,,,,,,,-0.063802083,-0.131510417,1,0,0,0.2987,6,16,172,20,1,u,images/br_u.png,images/cb_u.png,,,,,,,,,,,,,,,,,,,,,,,,,
,,,,,,00054,2023-10-09_18h03.24.779,vbt_B2_day1,2022.2.4,Win32,60.11060351,,,,,,,,,,,,,,,,,,,-0.063802083,-0.131510417,1,0,0,0.1644,6,17,173,13,1,n,images/br_n.png,images/cb_n.png,,,,,,,,,,,,,,,,,,,,,,,,,
,,,,,,00054,2023-10-09_18h03.24.779,vbt_B2_day1,2022.2.4,Win32,60.11060351,,,,,,,,,,,,,,,,,,,-0.063802083,-0.131510417,1,0,0,0.3983,6,18,174,12,1,m,images/br_m.png,images/cb_m.png,,,,,,,,,,,,,,,,,,,,,,,,,
,,,,,,00054,2023-10-09_18h03.24.779,vbt_B2_day1,2022.2.4,Win32,60.11060351,,,,,,,,,,,,,,,,,,,-0.063802083,-0.131510417,1,0,0,0.497,6,19,175,1,1,b,images/br_b.png,images/cb_b.png,,,,,,,,,,,,,,,,,,,,,,,,,
,,,,,,00054,2023-10-09_18h03.24.779,vbt_B2_day1,2022.2.4,Win32,60.11060351,,,,,,,,,,,,,,,,,,,-0.063802083,-0.131510417,1,0,0,2.1219,6,20,176,21,1,v,images/br_v.png,images/cb_v.png,,,,,,,,,,,,,,,,,,,,,,,,,
,,,,,,00054,2023-10-09_18h03.24.779,vbt_B2_day1,2022.2.4,Win32,60.11060351,,,,,,,,,,,,,,,,,,,-0.063802083,-0.131510417,1,0,0,0.0497,6,21,177,2,1,c,images/br_c.png,images/cb_c.png,,,,,,,,,,,,,,,,,,,,,,,,,
,,,,,,00054,2023-10-09_18h03.24.779,vbt_B2_day1,2022.2.4,Win32,60.11060351,,,,,,,,,,,,,,,,,,,-0.063802083,-0.131510417,1,0,0,0.4307,6,22,178,6,1,g,images/br_g.png,images/cb_g.png,,,,,,,,,,,,,,,,,,,,,,,,,
,,,,,,00054,2023-10-09_18h03.24.779,vbt_B2_day1,2022.2.4,Win32,60.11060351,,,,,,,,,,,,,,,,,,,-0.063802083,-0.131510417,1,0,0,0.1159,6,23,179,19,1,t,images/br_t.png,images/cb_t.png,,,,,,,,,,,,,,,,,,,,,,,,,
,,,,,,00054,2023-10-09_18h03.24.779,vbt_B2_day1,2022.2.4,Win32,60.11060351,,,,,,,,,,,,,,,,,,,-0.063802083,-0.131510417,1,0,0,0.0663,6,24,180,10,1,k,images/br_k.png,images/cb_k.png,,,,,,,,,,,,,,,,,,,,,,,,,
,,,,,,00054,2023-10-09_18h03.24.779,vbt_B2_day1,2022.2.4,Win32,60.11060351,,,,,,,,,,,,,,,,,,,-0.063802083,-0.131510417,1,0,0,0.5974,6,25,181,18,1,s,images/br_s.png,images/cb_s.png,,,,,,,,,,,,,,,,,,,,,,,,,
,,,,,,00054,2023-10-09_18h03.24.779,vbt_B2_day1,2022.2.4,Win32,60.11060351,,,,,,,,,,,,,,,,,,,,,,,,,,,,,,,,,-0.063802083,-0.131510417,1,0,0,,,,,,,,,,,,,,,,,,,,
,,,,,,00054,2023-10-09_18h03.24.779,vbt_B2_day1,2022.2.4,Win32,60.11060351,,,,,,,,,,,,,,,,,,,,,,,,,,,,,,,,,,,,,,-0.063802083,-0.131510417,1,0,0,,,,,,,,,,,,,,,
,,,,,,00054,2023-10-09_18h03.24.779,vbt_B2_day1,2022.2.4,Win32,60.11060351,,,,,,,,,,,,,,,,,,,,,,,,,,,,,,,,,,,,,,,,,,,-0.063802083,-0.131510417,1,0,0,hem.,hem.,0,0,0,45,1,hemel,images/br_hemel.png,images/cb_hemel.png
,,,,,,00054,2023-10-09_18h03.24.779,vbt_B2_day1,2022.2.4,Win32,60.11060351,,,,,,,,,,,,,,,,,,,,,,,,,,,,,,,,,,,,,,,,,,,-0.063802083,-0.131510417,1,0,0,liegen,liegen,0,1,1,50,1,liegen,images/br_liegen.png,images/cb_liegen.png
,,,,,,00054,2023-10-09_18h03.24.779,vbt_B2_day1,2022.2.4,Win32,60.11060351,,,,,,,,,,,,,,,,,,,,,,,,,,,,,,,,,,,,,,,,,,,-0.063802083,-0.131510417,1,0,0,spa...,spa...,0,2,2,37,1,spanzing,images/br_spanzing.png,images/cb_spanzing.png
,,,,,,00054,2023-10-09_18h03.24.779,vbt_B2_day1,2022.2.4,Win32,60.11060351,,,,,,,,,,,,,,,,,,,,,,,,,,,,,,,,,,,,,,,,,,,-0.063802083,-0.131510417,1,0,0,stuk,stuk,0,3,3,42,1,stuk,images/br_stuk.png,images/cb_stuk.png
,,,,,,00054,2023-10-09_18h03.24.779,vbt_B2_day1,2022.2.4,Win32,60.11060351,,,,,,,,,,,,,,,,,,,,,,,,,,,,,,,,,,,,,,,,,,,-0.063802083,-0.131510417,1,0,0,oplaan,oplaan,0,4,4,32,1,opplaan,images/br_opplaan.png,images/cb_opplaan.png
,,,,,,00054,2023-10-09_18h03.24.779,vbt_B2_day1,2022.2.4,Win32,60.11060351,,,,,,,,,,,,,,,,,,,,,,,,,,,,,,,,,,,,,,,,,,,0.510416667,-0.1953125,1,0,0,loch..,loch..,0,5,5,34,1,lochten,images/br_lochten.png,images/cb_lochten.png
,,,,,,00054,2023-10-09_18h03.24.779,vbt_B2_day1,2022.2.4,Win32,60.11060351,,,,,,,,,,,,,,,,,,,,,,,,,,,,,,,,,,,,,,,,,,,0.510416667,-0.1953125,1,0,0,bleek,bleek,0,6,6,6,1,bleek,images/br_bleek.png,images/cb_bleek.png
,,,,,,00054,2023-10-09_18h03.24.779,vbt_B2_day1,2022.2.4,Win32,60.11060351,,,,,,,,,,,,,,,,,,,,,,,,,,,,,,,,,,,,,,,,,,,0.510416667,-0.1953125,1,0,0,pro..,pro..,0,7,7,27,1,prort,images/br_prort.png,images/cb_prort.png
,,,,,,00054,2023-10-09_18h03.24.779,vbt_B2_day1,2022.2.4,Win32,60.11060351,,,,,,,,,,,,,,,,,,,,,,,,,,,,,,,,,,,,,,,,,,,0.510416667,-0.1953125,1,0,0,voorke...,voorke...,0,8,8,58,1,voorkeur,images/br_voorkeur.png,images/cb_voorkeur.png
,,,,,,00054,2023-10-09_18h03.24.779,vbt_B2_day1,2022.2.4,Win32,60.11060351,,,,,,,,,,,,,,,,,,,,,,,,,,,,,,,,,,,,,,,,,,,0.510416667,-0.1953125,1,0,0,kli...,kli...,0,9,9,12,1,klimmen,images/br_klimmen.png,images/cb_klimmen.png
,,,,,,00054,2023-10-09_18h03.24.779,vbt_B2_day1,2022.2.4,Win32,60.11060351,,,,,,,,,,,,,,,,,,,,,,,,,,,,,,,,,,,,,,,,,,,0.510416667,-0.1953125,1,0,0,hoog,hoog,0,10,10,41,1,hoog,images/br_hoog.png,images/cb_hoog.png
,,,,,,00054,2023-10-09_18h03.24.779,vbt_B2_day1,2022.2.4,Win32,60.11060351,,,,,,,,,,,,,,,,,,,,,,,,,,,,,,,,,,,,,,,,,,,0.510416667,-0.1953125,1,0,0,slak,slak,0,11,11,0,1,slak,images/br_slak.png,images/cb_slak.png
,,,,,,00054,2023-10-09_18h03.24.779,vbt_B2_day1,2022.2.4,Win32,60.11060351,,,,,,,,,,,,,,,,,,,,,,,,,,,,,,,,,,,,,,,,,,,0.510416667,-0.1953125,1,0,0,booi,booi,0,12,12,23,1,booi,images/br_booi.png,images/cb_booi.png
,,,,,,00054,2023-10-09_18h03.24.779,vbt_B2_day1,2022.2.4,Win32,60.11060351,,,,,,,,,,,,,,,,,,,,,,,,,,,,,,,,,,,,,,,,,,,0.510416667,-0.1953125,1,0,0,teken..,teken..,0,13,13,55,1,tekenen,images/br_tekenen.png,images/cb_tekenen.png
,,,,,,00054,2023-10-09_18h03.24.779,vbt_B2_day1,2022.2.4,Win32,60.11060351,,,,,,,,,,,,,,,,,,,,,,,,,,,,,,,,,,,,,,,,,,,0.510416667,-0.1953125,1,0,0,hict...,hict...,0,14,14,48,1,fictie,images/br_fictie.png,images/cb_fictie.png
,,,,,,00054,2023-10-09_18h03.24.779,vbt_B2_day1,2022.2.4,Win32,60.11060351,,,,,,,,,,,,,,,,,,,,,,,,,,,,,,,,,,,,,,,,,,,0.510416667,-0.1953125,1,0,0,zaal,zaal,0,15,15,1,1,zaal,images/br_zaal.png,images/cb_zaal.png
,,,,,,00054,2023-10-09_18h03.24.779,vbt_B2_day1,2022.2.4,Win32,60.11060351,,,,,,,,,,,,,,,,,,,,,,,,,,,,,,,,,,,,,,,,,,,0.510416667,-0.1953125,1,0,0,knoe,knoe,0,16,16,22,1,knoe,images/br_knoe.png,images/cb_knoe.png
,,,,,,00054,2023-10-09_18h03.24.779,vbt_B2_day1,2022.2.4,Win32,60.11060351,,,,,,,,,,,,,,,,,,,,,,,,,,,,,,,,,,,,,,,,,,,0.510416667,-0.1953125,1,0,0,liefde,liefde,0,17,17,51,1,liefde,images/br_liefde.png,images/cb_liefde.png
,,,,,,00054,2023-10-09_18h03.24.779,vbt_B2_day1,2022.2.4,Win32,60.11060351,,,,,,,,,,,,,,,,,,,,,,,,,,,,,,,,,,,,,,,,,,,0.01171875,-0.188802083,1,0,0,tahs,tahs,0,18,18,20,1,tars,images/br_tars.png,images/cb_tars.png
,,,,,,00054,2023-10-09_18h03.24.779,vbt_B2_day1,2022.2.4,Win32,60.11060351,,,,,,,,,,,,,,,,,,,,,,,,,,,,,,,,,,,,,,,,,,,0.368489583,-0.270833333,1,0,0,vij...,vij...,0,19,19,54,1,vijftig,images/br_vijftig.png,images/cb_vijftig.png
,,,,,,00054,2023-10-09_18h03.24.779,vbt_B2_day1,2022.2.4,Win32,60.11060351,,,,,,,,,,,,,,,,,,,,,,,,,,,,,,,,,,,,,,,,,,,0.368489583,-0.270833333,1,0,0,klauw,klauw,0,20,20,7,1,klauw,images/br_klauw.png,images/cb_klauw.png
,,,,,,00054,2023-10-09_18h03.24.779,vbt_B2_day1,2022.2.4,Win32,60.11060351,,,,,,,,,,,,,,,,,,,,,,,,,,,,,,,,,,,,,,,,,,,0.368489583,-0.270833333,1,0,0,uith...,uith...,0,21,21,18,1,uitdelen,images/br_uitdelen.png,images/cb_uitdelen.png
,,,,,,00054,2023-10-09_18h03.24.779,vbt_B2_day1,2022.2.4,Win32,60.11060351,,,,,,,,,,,,,,,,,,,,,,,,,,,,,,,,,,,,,,,,,,,0.368489583,-0.270833333,1,0,0,zuip...,zuip...,0,22,22,52,1,zuiplap,images/br_zuiplap.png,images/cb_zuiplap.png
,,,,,,00054,2023-10-09_18h03.24.779,vbt_B2_day1,2022.2.4,Win32,60.11060351,,,,,,,,,,,,,,,,,,,,,,,,,,,,,,,,,,,,,,,,,,,0.368489583,-0.270833333,1,0,0,hier...,hier...,0,23,23,15,1,hiervan,images/br_hiervan.png,images/cb_hiervan.png
,,,,,,00054,2023-10-09_18h03.24.779,vbt_B2_day1,2022.2.4,Win32,60.11060351,,,,,,,,,,,,,,,,,,,,,,,,,,,,,,,,,,,,,,,,,,,0.368489583,-0.270833333,1,0,0,jaar,jaar,0,24,24,2,1,jaar,images/br_jaar.png,images/cb_jaar.png
,,,,,,00054,2023-10-09_18h03.24.779,vbt_B2_day1,2022.2.4,Win32,60.11060351,,,,,,,,,,,,,,,,,,,,,,,,,,,,,,,,,,,,,,,,,,,0.368489583,-0.270833333,1,0,0,mand,mand,0,25,25,3,1,mand,images/br_mand.png,images/cb_mand.png
,,,,,,00054,2023-10-09_18h03.24.779,vbt_B2_day1,2022.2.4,Win32,60.11060351,,,,,,,,,,,,,,,,,,,,,,,,,,,,,,,,,,,,,,,,,,,0.368489583,-0.270833333,1,0,0,.aar...,.aar...,0,26,26,16,1,daarheen,images/br_daarheen.png,images/cb_daarheen.png
,,,,,,00054,2023-10-09_18h03.24.779,vbt_B2_day1,2022.2.4,Win32,60.11060351,,,,,,,,,,,,,,,,,,,,,,,,,,,,,,,,,,,,,,,,,,,0.368489583,-0.270833333,1,0,0,rene.,rene.,0,27,27,24,1,rezer,images/br_rezer.png,images/cb_rezer.png
,,,,,,00054,2023-10-09_18h03.24.779,vbt_B2_day1,2022.2.4,Win32,60.11060351,,,,,,,,,,,,,,,,,,,,,,,,,,,,,,,,,,,,,,,,,,,0.368489583,-0.270833333,1,0,0,loods,loods,0,28,28,47,1,loods,images/br_loods.png,images/cb_loods.png
,,,,,,00054,2023-10-09_18h03.24.779,vbt_B2_day1,2022.2.4,Win32,60.11060351,,,,,,,,,,,,,,,,,,,,,,,,,,,,,,,,,,,,,,,,,,,0.368489583,-0.270833333,1,0,0,schie...,schie...,0,29,29,38,1,schielen,images/br_schielen.png,images/cb_schielen.png
,,,,,,00054,2023-10-09_18h03.24.779,vbt_B2_day1,2022.2.4,Win32,60.11060351,,,,,,,,,,,,,,,,,,,,,,,,,,,,,,,,,,,,,,,,,,,0.368489583,-0.270833333,1,0,0,atte....,atte....,0,30,30,17,1,attentie,images/br_attentie.png,images/cb_attentie.png
,,,,,,00054,2023-10-09_18h03.24.779,vbt_B2_day1,2022.2.4,Win32,60.11060351,,,,,,,,,,,,,,,,,,,,,,,,,,,,,,,,,,,,,,,,,,,0.368489583,-0.270833333,1,0,0,bri...,bri...,0,31,31,25,1,brijk,images/br_brijk.png,images/cb_brijk.png
,,,,,,00054,2023-10-09_18h03.24.779,vbt_B2_day1,2022.2.4,Win32,60.11060351,,,,,,,,,,,,,,,,,,,,,,,,,,,,,,,,,,,,,,,,,,,0.368489583,-0.270833333,1,0,0,verv...,verv...,0,32,32,36,1,vervaden,images/br_vervaden.png,images/cb_vervaden.png
,,,,,,00054,2023-10-09_18h03.24.779,vbt_B2_day1,2022.2.4,Win32,60.11060351,,,,,,,,,,,,,,,,,,,,,,,,,,,,,,,,,,,,,,,,,,,0.368489583,-0.270833333,1,0,0,kanj..,kanj..,0,33,33,8,1,kanjer,images/br_kanjer.png,images/cb_kanjer.png
,,,,,,00054,2023-10-09_18h03.24.779,vbt_B2_day1,2022.2.4,Win32,60.11060351,,,,,,,,,,,,,,,,,,,,,,,,,,,,,,,,,,,,,,,,,,,0.368489583,-0.270833333,1,0,0,wijze,wijze,0,34,34,44,1,wijze,images/br_wijze.png,images/cb_wijze.png
,,,,,,00054,2023-10-09_18h03.24.779,vbt_B2_day1,2022.2.4,Win32,60.11060351,,,,,,,,,,,,,,,,,,,,,,,,,,,,,,,,,,,,,,,,,,,0.368489583,-0.270833333,1,0,0,valop,valop,0,35,35,26,1,valop,images/br_valop.png,images/cb_valop.png
,,,,,,00054,2023-10-09_18h03.24.779,vbt_B2_day1,2022.2.4,Win32,60.11060351,,,,,,,,,,,,,,,,,,,,,,,,,,,,,,,,,,,,,,,,,,,0.368489583,-0.270833333,1,0,0,muziek,muziek,0,36,36,10,1,muziek,images/br_muziek.png,images/cb_muziek.png
,,,,,,00054,2023-10-09_18h03.24.779,vbt_B2_day1,2022.2.4,Win32,60.11060351,,,,,,,,,,,,,,,,,,,,,,,,,,,,,,,,,,,,,,,,,,,0.368489583,-0.270833333,1,0,0,waarv...,waarv...,0,37,37,14,1,waarvan,images/br_waarvan.png,images/cb_waarvan.png
,,,,,,00054,2023-10-09_18h03.24.779,vbt_B2_day1,2022.2.4,Win32,60.11060351,,,,,,,,,,,,,,,,,,,,,,,,,,,,,,,,,,,,,,,,,,,0.368489583,-0.270833333,1,0,0,geno..,geno..,0,38,38,29,1,genond,images/br_genond.png,images/cb_genond.png
,,,,,,00054,2023-10-09_18h03.24.779,vbt_B2_day1,2022.2.4,Win32,60.11060351,,,,,,,,,,,,,,,,,,,,,,,,,,,,,,,,,,,,,,,,,,,0.368489583,-0.270833333,1,0,0,lava,lava,0,39,39,43,1,lava,images/br_lava.png,images/cb_lava.png
,,,,,,00054,2023-10-09_18h03.24.779,vbt_B2_day1,2022.2.4,Win32,60.11060351,,,,,,,,,,,,,,,,,,,,,,,,,,,,,,,,,,,,,,,,,,,0.368489583,-0.270833333,1,0,0,opvatt...,opvatt...,0,40,40,59,1,opvatten,images/br_opvatten.png,images/cb_opvatten.png
,,,,,,00054,2023-10-09_18h03.24.779,vbt_B2_day1,2022.2.4,Win32,60.11060351,,,,,,,,,,,,,,,,,,,,,,,,,,,,,,,,,,,,,,,,,,,0.368489583,-0.270833333,1,0,0,opslaan,opslaan,0,41,41,53,1,opslaan,images/br_opslaan.png,images/cb_opslaan.png
,,,,,,00054,2023-10-09_18h03.24.779,vbt_B2_day1,2022.2.4,Win32,60.11060351,,,,,,,,,,,,,,,,,,,,,,,,,,,,,,,,,,,,,,,,,,,0.368489583,-0.270833333,1,0,0,vizier,vizier,0,42,42,49,1,vizier,images/br_vizier.png,images/cb_vizier.png
,,,,,,00054,2023-10-09_18h03.24.779,vbt_B2_day1,2022.2.4,Win32,60.11060351,,,,,,,,,,,,,,,,,,,,,,,,,,,,,,,,,,,,,,,,,,,0.368489583,-0.270833333,1,0,0,voorr...,voorr...,0,43,43,39,1,voorreur,images/br_voorreur.png,images/cb_voorreur.png
,,,,,,00054,2023-10-09_18h03.24.779,vbt_B2_day1,2022.2.4,Win32,60.11060351,,,,,,,,,,,,,,,,,,,,,,,,,,,,,,,,,,,,,,,,,,,0.368489583,-0.270833333,1,0,0,dubbel,dubbel,0,44,44,9,1,dubbel,images/br_dubbel.png,images/cb_dubbel.png
,,,,,,00054,2023-10-09_18h03.24.779,vbt_B2_day1,2022.2.4,Win32,60.11060351,,,,,,,,,,,,,,,,,,,,,,,,,,,,,,,,,,,,,,,,,,,0.368489583,-0.270833333,1,0,0,lezen,lezen,0,45,45,46,1,lezen,images/br_lezen.png,images/cb_lezen.png
,,,,,,00054,2023-10-09_18h03.24.779,vbt_B2_day1,2022.2.4,Win32,60.11060351,,,,,,,,,,,,,,,,,,,,,,,,,,,,,,,,,,,,,,,,,,,0.368489583,-0.270833333,1,0,0,maken,maken,0,46,46,5,1,maken,images/br_maken.png,images/cb_maken.png
,,,,,,00054,2023-10-09_18h03.24.779,vbt_B2_day1,2022.2.4,Win32,60.11060351,,,,,,,,,,,,,,,,,,,,,,,,,,,,,,,,,,,,,,,,,,,0.368489583,-0.270833333,1,0,0,dred,dred,0,47,47,21,1,dred,images/br_dred.png,images/cb_dred.png
,,,,,,00054,2023-10-09_18h03.24.779,vbt_B2_day1,2022.2.4,Win32,60.11060351,,,,,,,,,,,,,,,,,,,,,,,,,,,,,,,,,,,,,,,,,,,0.368489583,-0.270833333,1,0,0,stamen,stamen,0,48,48,31,1,stamen,images/br_stamen.png,images/cb_stamen.png
,,,,,,00054,2023-10-09_18h03.24.779,vbt_B2_day1,2022.2.4,Win32,60.11060351,,,,,,,,,,,,,,,,,,,,,,,,,,,,,,,,,,,,,,,,,,,0.368489583,-0.270833333,1,0,0,sch..,sch..,0,49,49,4,1,schep,images/br_schep.png,images/cb_schep.png
,,,,,,00054,2023-10-09_18h03.24.779,vbt_B2_day1,2022.2.4,Win32,60.11060351,,,,,,,,,,,,,,,,,,,,,,,,,,,,,,,,,,,,,,,,,,,0.368489583,-0.270833333,1,0,0,twijfel,twijfel,0,50,50,13,1,twijfel,images/br_twijfel.png,images/cb_twijfel.png
,,,,,,00054,2023-10-09_18h03.24.779,vbt_B2_day1,2022.2.4,Win32,60.11060351,,,,,,,,,,,,,,,,,,,,,,,,,,,,,,,,,,,,,,,,,,,0.368489583,-0.270833333,1,0,0,meenemen,meenemen,0,51,51,57,1,meenemen,images/br_meenemen.png,images/cb_meenemen.png
,,,,,,00054,2023-10-09_18h03.24.779,vbt_B2_day1,2022.2.4,Win32,60.11060351,,,,,,,,,,,,,,,,,,,,,,,,,,,,,,,,,,,,,,,,,,,0.368489583,-0.270833333,1,0,0,reedj.,reedj.,0,52,52,30,1,reedje,images/br_reedje.png,images/cb_reedje.png
,,,,,,00054,2023-10-09_18h03.24.779,vbt_B2_day1,2022.2.4,Win32,60.11060351,,,,,,,,,,,,,,,,,,,,,,,,,,,,,,,,,,,,,,,,,,,0.296875,-0.22265625,1,0,0,toezi...,toezi...,0,53,53,56,1,toezicht,images/br_toezicht.png,images/cb_toezicht.png
,,,,,,00054,2023-10-09_18h03.24.779,vbt_B2_day1,2022.2.4,Win32,60.11060351,,,,,,,,,,,,,,,,,,,,,,,,,,,,,,,,,,,,,,,,,,,0.296875,-0.22265625,1,0,0,flull...,flull...,0,54,54,33,1,flullen,images/br_flullen.png,images/cb_flullen.png
,,,,,,00054,2023-10-09_18h03.24.779,vbt_B2_day1,2022.2.4,Win32,60.11060351,,,,,,,,,,,,,,,,,,,,,,,,,,,,,,,,,,,,,,,,,,,0.296875,-0.22265625,1,0,0,schuilen,schuilen,0,55,55,19,1,schuilen,images/br_schuilen.png,images/cb_schuilen.png
,,,,,,00054,2023-10-09_18h03.24.779,vbt_B2_day1,2022.2.4,Win32,60.11060351,,,,,,,,,,,,,,,,,,,,,,,,,,,,,,,,,,,,,,,,,,,0.296875,-0.22265625,1,0,0,mening,mening,0,56,56,11,1,mening,images/br_mening.png,images/cb_mening.png
,,,,,,00054,2023-10-09_18h03.24.779,vbt_B2_day1,2022.2.4,Win32,60.11060351,,,,,,,,,,,,,,,,,,,,,,,,,,,,,,,,,,,,,,,,,,,0.296875,-0.22265625,1,0,0,stui..,stui..,0,57,57,35,1,stuikem,images/br_stuikem.png,images/cb_stuikem.png
,,,,,,00054,2023-10-09_18h03.24.779,vbt_B2_day1,2022.2.4,Win32,60.11060351,,,,,,,,,,,,,,,,,,,,,,,,,,,,,,,,,,,,,,,,,,,0.296875,-0.22265625,1,0,0,dief,dief,0,58,58,40,1,dief,images/br_dief.png,images/cb_dief.png
,,,,,,00054,2023-10-09_18h03.24.779,vbt_B2_day1,2022.2.4,Win32,60.11060351,,,,,,,,,,,,,,,,,,,,,,,,,,,,,,,,,,,,,,,,,,,0.296875,-0.22265625,1,0,0,bebr..,bebr..,0,59,59,28,1,bebrip,images/br_bebrip.png,images/cb_bebrip.png
,,,,,,00054,2023-10-09_18h03.24.779,vbt_B2_day1,2022.2.4,Win32,60.11060351,,,,,,,,,,,,,,,,,,,,,,,,,,,,,,,,,,,,,,,,,,,,,,,,,,,,,,,,,
