welcome_mouse.x,welcome_mouse.y,welcome_mouse.leftButton,welcome_mouse.midButton,welcome_mouse.rightButton,welcome_mouse.time,"ID",date,expName,psychopyVersion,OS,frameRate,mouse_2.x,mouse_2.y,mouse_2.leftButton,mouse_2.midButton,mouse_2.rightButton,mouse_2.time,mouse_3.x,mouse_3.y,mouse_3.leftButton,mouse_3.midButton,mouse_3.rightButton,mouse_3.time,train_mouse.x,train_mouse.y,train_mouse.leftButton,train_mouse.midButton,train_mouse.rightButton,train_mouse.time,braille_mouse.x,braille_mouse.y,braille_mouse.leftButton,braille_mouse.midButton,braille_mouse.rightButton,braille_mouse.time,trials.thisRepN,trials.thisTrialN,trials.thisN,trials.thisIndex,trials.ran,nlLet,brLet,cbLet,mouse.x,mouse.y,mouse.leftButton,mouse.midButton,mouse.rightButton,testInstr_mouse.x,testInstr_mouse.y,testInstr_mouse.leftButton,testInstr_mouse.midButton,testInstr_mouse.rightButton,test_mouse.x,test_mouse.y,test_mouse.leftButton,test_mouse.midButton,test_mouse.rightButton,test_response.text,testResp,test_loop.thisRepN,test_loop.thisTrialN,test_loop.thisN,test_loop.thisIndex,test_loop.ran,nlWrd,brWrd,cbWrd
-0.187037023,-0.275,1,0,0,10.2275,00036,2023-09-26_17h38.43.610,vbt_B2_day1,2022.2.4,Win32,59.39653124,,,,,,,,,,,,,,,,,,,,,,,,,,,,,,,,,,,,,,,,,,,,,,,,,,,,,,,,,
,,,,,,00036,2023-09-26_17h38.43.610,vbt_B2_day1,2022.2.4,Win32,59.39653124,-0.187037023,-0.275,1,0,0,0.9636,,,,,,,,,,,,,,,,,,,,,,,,,,,,,,,,,,,,,,,,,,,,,,,,,,,
,,,,,,00036,2023-09-26_17h38.43.610,vbt_B2_day1,2022.2.4,Win32,59.39653124,,,,,,,-0.187037023,-0.275,1,0,0,0.8323,,,,,,,,,,,,,,,,,,,,,,,,,,,,,,,,,,,,,,,,,,,,,
,,,,,,00036,2023-09-26_17h38.43.610,vbt_B2_day1,2022.2.4,Win32,59.39653124,,,,,,,,,,,,,-0.187037023,-0.275,1,0,0,21.6604,,,,,,,,,,,,,,,,,,,,,,,,,,,,,,,,,,,,,,,
,,,,,,00036,2023-09-26_17h38.43.610,vbt_B2_day1,2022.2.4,Win32,59.39653124,,,,,,,,,,,,,,,,,,,-0.187037023,-0.275,1,0,0,6.0489,0,0,0,18,1,s,images/br_s.png,images/cb_s.png,,,,,,,,,,,,,,,,,,,,,,,,,
,,,,,,00036,2023-09-26_17h38.43.610,vbt_B2_day1,2022.2.4,Win32,59.39653124,,,,,,,,,,,,,,,,,,,-0.187037023,-0.275,1,0,0,0.1667,0,1,1,6,1,g,images/br_g.png,images/cb_g.png,,,,,,,,,,,,,,,,,,,,,,,,,
,,,,,,00036,2023-09-26_17h38.43.610,vbt_B2_day1,2022.2.4,Win32,59.39653124,,,,,,,,,,,,,,,,,,,-0.187037023,-0.275,1,0,0,0.7497,0,2,2,17,1,r,images/br_r.png,images/cb_r.png,,,,,,,,,,,,,,,,,,,,,,,,,
,,,,,,00036,2023-09-26_17h38.43.610,vbt_B2_day1,2022.2.4,Win32,59.39653124,,,,,,,,,,,,,,,,,,,-0.187037023,-0.275,1,0,0,1.5495,0,3,3,11,1,l,images/br_l.png,images/cb_l.png,,,,,,,,,,,,,,,,,,,,,,,,,
,,,,,,00036,2023-09-26_17h38.43.610,vbt_B2_day1,2022.2.4,Win32,59.39653124,,,,,,,,,,,,,,,,,,,-0.187037023,-0.275,1,0,0,0.3828,0,4,4,15,1,p,images/br_p.png,images/cb_p.png,,,,,,,,,,,,,,,,,,,,,,,,,
,,,,,,00036,2023-09-26_17h38.43.610,vbt_B2_day1,2022.2.4,Win32,59.39653124,,,,,,,,,,,,,,,,,,,-0.187037023,-0.275,1,0,0,0.1827,0,5,5,14,1,o,images/br_o.png,images/cb_o.png,,,,,,,,,,,,,,,,,,,,,,,,,
,,,,,,00036,2023-09-26_17h38.43.610,vbt_B2_day1,2022.2.4,Win32,59.39653124,,,,,,,,,,,,,,,,,,,-0.187037023,-0.275,1,0,0,1.1666,0,6,6,23,1,x,images/br_x.png,images/cb_x.png,,,,,,,,,,,,,,,,,,,,,,,,,
,,,,,,00036,2023-09-26_17h38.43.610,vbt_B2_day1,2022.2.4,Win32,59.39653124,,,,,,,,,,,,,,,,,,,-0.187037023,-0.275,1,0,0,0.6668,0,7,7,16,1,q,images/br_q.png,images/cb_q.png,,,,,,,,,,,,,,,,,,,,,,,,,
,,,,,,00036,2023-09-26_17h38.43.610,vbt_B2_day1,2022.2.4,Win32,59.39653124,,,,,,,,,,,,,,,,,,,-0.187037023,-0.275,1,0,0,0.9331,0,8,8,10,1,k,images/br_k.png,images/cb_k.png,,,,,,,,,,,,,,,,,,,,,,,,,
,,,,,,00036,2023-09-26_17h38.43.610,vbt_B2_day1,2022.2.4,Win32,59.39653124,,,,,,,,,,,,,,,,,,,-0.187037023,-0.275,1,0,0,0.0331,0,9,9,19,1,t,images/br_t.png,images/cb_t.png,,,,,,,,,,,,,,,,,,,,,,,,,
,,,,,,00036,2023-09-26_17h38.43.610,vbt_B2_day1,2022.2.4,Win32,59.39653124,,,,,,,,,,,,,,,,,,,-0.187037023,-0.275,1,0,0,0.0332,0,10,10,8,1,i,images/br_i.png,images/cb_i.png,,,,,,,,,,,,,,,,,,,,,,,,,
,,,,,,00036,2023-09-26_17h38.43.610,vbt_B2_day1,2022.2.4,Win32,59.39653124,,,,,,,,,,,,,,,,,,,-0.187037023,-0.275,1,0,0,0.6163,0,11,11,5,1,f,images/br_f.png,images/cb_f.png,,,,,,,,,,,,,,,,,,,,,,,,,
,,,,,,00036,2023-09-26_17h38.43.610,vbt_B2_day1,2022.2.4,Win32,59.39653124,,,,,,,,,,,,,,,,,,,-0.187037023,-0.275,1,0,0,0.5164,0,12,12,25,1,z,images/br_z.png,images/cb_z.png,,,,,,,,,,,,,,,,,,,,,,,,,
,,,,,,00036,2023-09-26_17h38.43.610,vbt_B2_day1,2022.2.4,Win32,59.39653124,,,,,,,,,,,,,,,,,,,-0.187037023,-0.275,1,0,0,0.433,0,13,13,12,1,m,images/br_m.png,images/cb_m.png,,,,,,,,,,,,,,,,,,,,,,,,,
,,,,,,00036,2023-09-26_17h38.43.610,vbt_B2_day1,2022.2.4,Win32,59.39653124,,,,,,,,,,,,,,,,,,,-0.187037023,-0.275,1,0,0,0.1332,0,14,14,1,1,b,images/br_b.png,images/cb_b.png,,,,,,,,,,,,,,,,,,,,,,,,,
,,,,,,00036,2023-09-26_17h38.43.610,vbt_B2_day1,2022.2.4,Win32,59.39653124,,,,,,,,,,,,,,,,,,,-0.187037023,-0.275,1,0,0,0.0997,0,15,15,2,1,c,images/br_c.png,images/cb_c.png,,,,,,,,,,,,,,,,,,,,,,,,,
,,,,,,00036,2023-09-26_17h38.43.610,vbt_B2_day1,2022.2.4,Win32,59.39653124,,,,,,,,,,,,,,,,,,,-0.187037023,-0.275,1,0,0,0.3001,0,16,16,4,1,e,images/br_e.png,images/cb_e.png,,,,,,,,,,,,,,,,,,,,,,,,,
,,,,,,00036,2023-09-26_17h38.43.610,vbt_B2_day1,2022.2.4,Win32,59.39653124,,,,,,,,,,,,,,,,,,,-0.187037023,-0.275,1,0,0,0.2664,0,17,17,24,1,y,images/br_y.png,images/cb_y.png,,,,,,,,,,,,,,,,,,,,,,,,,
,,,,,,00036,2023-09-26_17h38.43.610,vbt_B2_day1,2022.2.4,Win32,59.39653124,,,,,,,,,,,,,,,,,,,-0.187037023,-0.275,1,0,0,0.0833,0,18,18,9,1,j,images/br_j.png,images/cb_j.png,,,,,,,,,,,,,,,,,,,,,,,,,
,,,,,,00036,2023-09-26_17h38.43.610,vbt_B2_day1,2022.2.4,Win32,59.39653124,,,,,,,,,,,,,,,,,,,-0.187037023,-0.275,1,0,0,0.016,0,19,19,21,1,v,images/br_v.png,images/cb_v.png,,,,,,,,,,,,,,,,,,,,,,,,,
,,,,,,00036,2023-09-26_17h38.43.610,vbt_B2_day1,2022.2.4,Win32,59.39653124,,,,,,,,,,,,,,,,,,,-0.187037023,-0.275,1,0,0,0.7835,0,20,20,20,1,u,images/br_u.png,images/cb_u.png,,,,,,,,,,,,,,,,,,,,,,,,,
,,,,,,00036,2023-09-26_17h38.43.610,vbt_B2_day1,2022.2.4,Win32,59.39653124,,,,,,,,,,,,,,,,,,,-0.187037023,-0.275,1,0,0,0.1665,0,21,21,3,1,d,images/br_d.png,images/cb_d.png,,,,,,,,,,,,,,,,,,,,,,,,,
,,,,,,00036,2023-09-26_17h38.43.610,vbt_B2_day1,2022.2.4,Win32,59.39653124,,,,,,,,,,,,,,,,,,,-0.187037023,-0.275,1,0,0,0.416,0,22,22,0,1,a,images/br_a.png,images/cb_a.png,,,,,,,,,,,,,,,,,,,,,,,,,
,,,,,,00036,2023-09-26_17h38.43.610,vbt_B2_day1,2022.2.4,Win32,59.39653124,,,,,,,,,,,,,,,,,,,-0.187037023,-0.275,1,0,0,0.3331,0,23,23,13,1,n,images/br_n.png,images/cb_n.png,,,,,,,,,,,,,,,,,,,,,,,,,
,,,,,,00036,2023-09-26_17h38.43.610,vbt_B2_day1,2022.2.4,Win32,59.39653124,,,,,,,,,,,,,,,,,,,-0.187037023,-0.275,1,0,0,0.3,0,24,24,22,1,w,images/br_w.png,images/cb_w.png,,,,,,,,,,,,,,,,,,,,,,,,,
,,,,,,00036,2023-09-26_17h38.43.610,vbt_B2_day1,2022.2.4,Win32,59.39653124,,,,,,,,,,,,,,,,,,,-0.187037023,-0.275,1,0,0,0.2331,0,25,25,7,1,h,images/br_h.png,images/cb_h.png,,,,,,,,,,,,,,,,,,,,,,,,,
,,,,,,00036,2023-09-26_17h38.43.610,vbt_B2_day1,2022.2.4,Win32,59.39653124,,,,,,,,,,,,,,,,,,,-0.187037023,-0.275,1,0,0,0.2667,1,0,26,10,1,k,images/br_k.png,images/cb_k.png,,,,,,,,,,,,,,,,,,,,,,,,,
,,,,,,00036,2023-09-26_17h38.43.610,vbt_B2_day1,2022.2.4,Win32,59.39653124,,,,,,,,,,,,,,,,,,,-0.187037023,-0.275,1,0,0,0.1332,1,1,27,25,1,z,images/br_z.png,images/cb_z.png,,,,,,,,,,,,,,,,,,,,,,,,,
,,,,,,00036,2023-09-26_17h38.43.610,vbt_B2_day1,2022.2.4,Win32,59.39653124,,,,,,,,,,,,,,,,,,,-0.187037023,-0.275,1,0,0,0.3495,1,2,28,22,1,w,images/br_w.png,images/cb_w.png,,,,,,,,,,,,,,,,,,,,,,,,,
,,,,,,00036,2023-09-26_17h38.43.610,vbt_B2_day1,2022.2.4,Win32,59.39653124,,,,,,,,,,,,,,,,,,,-0.187037023,-0.275,1,0,0,0.3001,1,3,29,13,1,n,images/br_n.png,images/cb_n.png,,,,,,,,,,,,,,,,,,,,,,,,,
,,,,,,00036,2023-09-26_17h38.43.610,vbt_B2_day1,2022.2.4,Win32,59.39653124,,,,,,,,,,,,,,,,,,,-0.187037023,-0.275,1,0,0,0.2663,1,4,30,23,1,x,images/br_x.png,images/cb_x.png,,,,,,,,,,,,,,,,,,,,,,,,,
,,,,,,00036,2023-09-26_17h38.43.610,vbt_B2_day1,2022.2.4,Win32,59.39653124,,,,,,,,,,,,,,,,,,,-0.187037023,-0.275,1,0,0,0.2166,1,5,31,20,1,u,images/br_u.png,images/cb_u.png,,,,,,,,,,,,,,,,,,,,,,,,,
,,,,,,00036,2023-09-26_17h38.43.610,vbt_B2_day1,2022.2.4,Win32,59.39653124,,,,,,,,,,,,,,,,,,,-0.187037023,-0.275,1,0,0,0.2,1,6,32,21,1,v,images/br_v.png,images/cb_v.png,,,,,,,,,,,,,,,,,,,,,,,,,
,,,,,,00036,2023-09-26_17h38.43.610,vbt_B2_day1,2022.2.4,Win32,59.39653124,,,,,,,,,,,,,,,,,,,-0.187037023,-0.275,1,0,0,0.2334,1,7,33,0,1,a,images/br_a.png,images/cb_a.png,,,,,,,,,,,,,,,,,,,,,,,,,
,,,,,,00036,2023-09-26_17h38.43.610,vbt_B2_day1,2022.2.4,Win32,59.39653124,,,,,,,,,,,,,,,,,,,-0.187037023,-0.275,1,0,0,0.9667,1,8,34,3,1,d,images/br_d.png,images/cb_d.png,,,,,,,,,,,,,,,,,,,,,,,,,
,,,,,,00036,2023-09-26_17h38.43.610,vbt_B2_day1,2022.2.4,Win32,59.39653124,,,,,,,,,,,,,,,,,,,-0.187037023,-0.275,1,0,0,1.4164,1,9,35,6,1,g,images/br_g.png,images/cb_g.png,,,,,,,,,,,,,,,,,,,,,,,,,
,,,,,,00036,2023-09-26_17h38.43.610,vbt_B2_day1,2022.2.4,Win32,59.39653124,,,,,,,,,,,,,,,,,,,-0.187037023,-0.275,1,0,0,1.7989,1,10,36,16,1,q,images/br_q.png,images/cb_q.png,,,,,,,,,,,,,,,,,,,,,,,,,
,,,,,,00036,2023-09-26_17h38.43.610,vbt_B2_day1,2022.2.4,Win32,59.39653124,,,,,,,,,,,,,,,,,,,-0.187037023,-0.275,1,0,0,0.1332,1,11,37,7,1,h,images/br_h.png,images/cb_h.png,,,,,,,,,,,,,,,,,,,,,,,,,
,,,,,,00036,2023-09-26_17h38.43.610,vbt_B2_day1,2022.2.4,Win32,59.39653124,,,,,,,,,,,,,,,,,,,-0.187037023,-0.275,1,0,0,0.2497,1,12,38,15,1,p,images/br_p.png,images/cb_p.png,,,,,,,,,,,,,,,,,,,,,,,,,
,,,,,,00036,2023-09-26_17h38.43.610,vbt_B2_day1,2022.2.4,Win32,59.39653124,,,,,,,,,,,,,,,,,,,-0.187037023,-0.275,1,0,0,0.0165,1,13,39,2,1,c,images/br_c.png,images/cb_c.png,,,,,,,,,,,,,,,,,,,,,,,,,
,,,,,,00036,2023-09-26_17h38.43.610,vbt_B2_day1,2022.2.4,Win32,59.39653124,,,,,,,,,,,,,,,,,,,-0.187037023,-0.275,1,0,0,1.0332,1,14,40,12,1,m,images/br_m.png,images/cb_m.png,,,,,,,,,,,,,,,,,,,,,,,,,
,,,,,,00036,2023-09-26_17h38.43.610,vbt_B2_day1,2022.2.4,Win32,59.39653124,,,,,,,,,,,,,,,,,,,-0.187037023,-0.275,1,0,0,0.2169,1,15,41,18,1,s,images/br_s.png,images/cb_s.png,,,,,,,,,,,,,,,,,,,,,,,,,
,,,,,,00036,2023-09-26_17h38.43.610,vbt_B2_day1,2022.2.4,Win32,59.39653124,,,,,,,,,,,,,,,,,,,-0.187037023,-0.275,1,0,0,0.5333,1,16,42,14,1,o,images/br_o.png,images/cb_o.png,,,,,,,,,,,,,,,,,,,,,,,,,
,,,,,,00036,2023-09-26_17h38.43.610,vbt_B2_day1,2022.2.4,Win32,59.39653124,,,,,,,,,,,,,,,,,,,-0.187037023,-0.275,1,0,0,2.666,1,17,43,5,1,f,images/br_f.png,images/cb_f.png,,,,,,,,,,,,,,,,,,,,,,,,,
,,,,,,00036,2023-09-26_17h38.43.610,vbt_B2_day1,2022.2.4,Win32,59.39653124,,,,,,,,,,,,,,,,,,,-0.187037023,-0.275,1,0,0,0.3334,1,18,44,9,1,j,images/br_j.png,images/cb_j.png,,,,,,,,,,,,,,,,,,,,,,,,,
,,,,,,00036,2023-09-26_17h38.43.610,vbt_B2_day1,2022.2.4,Win32,59.39653124,,,,,,,,,,,,,,,,,,,-0.187037023,-0.275,1,0,0,1.7332,1,19,45,8,1,i,images/br_i.png,images/cb_i.png,,,,,,,,,,,,,,,,,,,,,,,,,
,,,,,,00036,2023-09-26_17h38.43.610,vbt_B2_day1,2022.2.4,Win32,59.39653124,,,,,,,,,,,,,,,,,,,-0.187037023,-0.275,1,0,0,0.6,1,20,46,17,1,r,images/br_r.png,images/cb_r.png,,,,,,,,,,,,,,,,,,,,,,,,,
,,,,,,00036,2023-09-26_17h38.43.610,vbt_B2_day1,2022.2.4,Win32,59.39653124,,,,,,,,,,,,,,,,,,,-0.187037023,-0.275,1,0,0,0.1667,1,21,47,19,1,t,images/br_t.png,images/cb_t.png,,,,,,,,,,,,,,,,,,,,,,,,,
,,,,,,00036,2023-09-26_17h38.43.610,vbt_B2_day1,2022.2.4,Win32,59.39653124,,,,,,,,,,,,,,,,,,,-0.187037023,-0.275,1,0,0,2.7159,1,22,48,11,1,l,images/br_l.png,images/cb_l.png,,,,,,,,,,,,,,,,,,,,,,,,,
,,,,,,00036,2023-09-26_17h38.43.610,vbt_B2_day1,2022.2.4,Win32,59.39653124,,,,,,,,,,,,,,,,,,,-0.187037023,-0.275,1,0,0,0.2332,1,23,49,24,1,y,images/br_y.png,images/cb_y.png,,,,,,,,,,,,,,,,,,,,,,,,,
,,,,,,00036,2023-09-26_17h38.43.610,vbt_B2_day1,2022.2.4,Win32,59.39653124,,,,,,,,,,,,,,,,,,,-0.187037023,-0.275,1,0,0,0.9333,1,24,50,4,1,e,images/br_e.png,images/cb_e.png,,,,,,,,,,,,,,,,,,,,,,,,,
,,,,,,00036,2023-09-26_17h38.43.610,vbt_B2_day1,2022.2.4,Win32,59.39653124,,,,,,,,,,,,,,,,,,,-0.187037023,-0.275,1,0,0,0.7169,1,25,51,1,1,b,images/br_b.png,images/cb_b.png,,,,,,,,,,,,,,,,,,,,,,,,,
,,,,,,00036,2023-09-26_17h38.43.610,vbt_B2_day1,2022.2.4,Win32,59.39653124,,,,,,,,,,,,,,,,,,,-0.187037023,-0.275,1,0,0,0.6506,2,0,52,1,1,b,images/br_b.png,images/cb_b.png,,,,,,,,,,,,,,,,,,,,,,,,,
,,,,,,00036,2023-09-26_17h38.43.610,vbt_B2_day1,2022.2.4,Win32,59.39653124,,,,,,,,,,,,,,,,,,,-0.187037023,-0.275,1,0,0,1.133,2,1,53,18,1,s,images/br_s.png,images/cb_s.png,,,,,,,,,,,,,,,,,,,,,,,,,
,,,,,,00036,2023-09-26_17h38.43.610,vbt_B2_day1,2022.2.4,Win32,59.39653124,,,,,,,,,,,,,,,,,,,-0.187037023,-0.275,1,0,0,0.7004,2,2,54,14,1,o,images/br_o.png,images/cb_o.png,,,,,,,,,,,,,,,,,,,,,,,,,
,,,,,,00036,2023-09-26_17h38.43.610,vbt_B2_day1,2022.2.4,Win32,59.39653124,,,,,,,,,,,,,,,,,,,-0.187037023,-0.275,1,0,0,4.5824,2,3,55,8,1,i,images/br_i.png,images/cb_i.png,,,,,,,,,,,,,,,,,,,,,,,,,
,,,,,,00036,2023-09-26_17h38.43.610,vbt_B2_day1,2022.2.4,Win32,59.39653124,,,,,,,,,,,,,,,,,,,-0.187037023,-0.275,1,0,0,1.4499,2,4,56,20,1,u,images/br_u.png,images/cb_u.png,,,,,,,,,,,,,,,,,,,,,,,,,
,,,,,,00036,2023-09-26_17h38.43.610,vbt_B2_day1,2022.2.4,Win32,59.39653124,,,,,,,,,,,,,,,,,,,-0.187037023,-0.275,1,0,0,0.8668,2,5,57,11,1,l,images/br_l.png,images/cb_l.png,,,,,,,,,,,,,,,,,,,,,,,,,
,,,,,,00036,2023-09-26_17h38.43.610,vbt_B2_day1,2022.2.4,Win32,59.39653124,,,,,,,,,,,,,,,,,,,-0.187037023,-0.275,1,0,0,1.4001,2,6,58,6,1,g,images/br_g.png,images/cb_g.png,,,,,,,,,,,,,,,,,,,,,,,,,
,,,,,,00036,2023-09-26_17h38.43.610,vbt_B2_day1,2022.2.4,Win32,59.39653124,,,,,,,,,,,,,,,,,,,-0.187037023,-0.275,1,0,0,2.6998,2,7,59,5,1,f,images/br_f.png,images/cb_f.png,,,,,,,,,,,,,,,,,,,,,,,,,
,,,,,,00036,2023-09-26_17h38.43.610,vbt_B2_day1,2022.2.4,Win32,59.39653124,,,,,,,,,,,,,,,,,,,-0.187037023,-0.275,1,0,0,0.2328,2,8,60,7,1,h,images/br_h.png,images/cb_h.png,,,,,,,,,,,,,,,,,,,,,,,,,
,,,,,,00036,2023-09-26_17h38.43.610,vbt_B2_day1,2022.2.4,Win32,59.39653124,,,,,,,,,,,,,,,,,,,-0.187037023,-0.275,1,0,0,0.1497,2,9,61,3,1,d,images/br_d.png,images/cb_d.png,,,,,,,,,,,,,,,,,,,,,,,,,
,,,,,,00036,2023-09-26_17h38.43.610,vbt_B2_day1,2022.2.4,Win32,59.39653124,,,,,,,,,,,,,,,,,,,-0.187037023,-0.275,1,0,0,0.3496,2,10,62,24,1,y,images/br_y.png,images/cb_y.png,,,,,,,,,,,,,,,,,,,,,,,,,
,,,,,,00036,2023-09-26_17h38.43.610,vbt_B2_day1,2022.2.4,Win32,59.39653124,,,,,,,,,,,,,,,,,,,-0.187037023,-0.275,1,0,0,2.7327,2,11,63,21,1,v,images/br_v.png,images/cb_v.png,,,,,,,,,,,,,,,,,,,,,,,,,
,,,,,,00036,2023-09-26_17h38.43.610,vbt_B2_day1,2022.2.4,Win32,59.39653124,,,,,,,,,,,,,,,,,,,-0.187037023,-0.275,1,0,0,0.3497,2,12,64,19,1,t,images/br_t.png,images/cb_t.png,,,,,,,,,,,,,,,,,,,,,,,,,
,,,,,,00036,2023-09-26_17h38.43.610,vbt_B2_day1,2022.2.4,Win32,59.39653124,,,,,,,,,,,,,,,,,,,-0.187037023,-0.275,1,0,0,0.1835,2,13,65,2,1,c,images/br_c.png,images/cb_c.png,,,,,,,,,,,,,,,,,,,,,,,,,
,,,,,,00036,2023-09-26_17h38.43.610,vbt_B2_day1,2022.2.4,Win32,59.39653124,,,,,,,,,,,,,,,,,,,-0.187037023,-0.275,1,0,0,2.9827,2,14,66,4,1,e,images/br_e.png,images/cb_e.png,,,,,,,,,,,,,,,,,,,,,,,,,
,,,,,,00036,2023-09-26_17h38.43.610,vbt_B2_day1,2022.2.4,Win32,59.39653124,,,,,,,,,,,,,,,,,,,-0.187037023,-0.275,1,0,0,2.2167,2,15,67,17,1,r,images/br_r.png,images/cb_r.png,,,,,,,,,,,,,,,,,,,,,,,,,
,,,,,,00036,2023-09-26_17h38.43.610,vbt_B2_day1,2022.2.4,Win32,59.39653124,,,,,,,,,,,,,,,,,,,-0.187037023,-0.275,1,0,0,3.9492,2,16,68,16,1,q,images/br_q.png,images/cb_q.png,,,,,,,,,,,,,,,,,,,,,,,,,
,,,,,,00036,2023-09-26_17h38.43.610,vbt_B2_day1,2022.2.4,Win32,59.39653124,,,,,,,,,,,,,,,,,,,-0.187037023,-0.275,1,0,0,0.1836,2,17,69,13,1,n,images/br_n.png,images/cb_n.png,,,,,,,,,,,,,,,,,,,,,,,,,
,,,,,,00036,2023-09-26_17h38.43.610,vbt_B2_day1,2022.2.4,Win32,59.39653124,,,,,,,,,,,,,,,,,,,-0.187037023,-0.275,1,0,0,0.2505,2,18,70,10,1,k,images/br_k.png,images/cb_k.png,,,,,,,,,,,,,,,,,,,,,,,,,
,,,,,,00036,2023-09-26_17h38.43.610,vbt_B2_day1,2022.2.4,Win32,59.39653124,,,,,,,,,,,,,,,,,,,-0.187037023,-0.275,1,0,0,0.2166,2,19,71,0,1,a,images/br_a.png,images/cb_a.png,,,,,,,,,,,,,,,,,,,,,,,,,
,,,,,,00036,2023-09-26_17h38.43.610,vbt_B2_day1,2022.2.4,Win32,59.39653124,,,,,,,,,,,,,,,,,,,-0.187037023,-0.275,1,0,0,0.2837,2,20,72,12,1,m,images/br_m.png,images/cb_m.png,,,,,,,,,,,,,,,,,,,,,,,,,
,,,,,,00036,2023-09-26_17h38.43.610,vbt_B2_day1,2022.2.4,Win32,59.39653124,,,,,,,,,,,,,,,,,,,-0.187037023,-0.275,1,0,0,0.1828,2,21,73,25,1,z,images/br_z.png,images/cb_z.png,,,,,,,,,,,,,,,,,,,,,,,,,
,,,,,,00036,2023-09-26_17h38.43.610,vbt_B2_day1,2022.2.4,Win32,59.39653124,,,,,,,,,,,,,,,,,,,-0.187037023,-0.275,1,0,0,0.2499,2,22,74,23,1,x,images/br_x.png,images/cb_x.png,,,,,,,,,,,,,,,,,,,,,,,,,
,,,,,,00036,2023-09-26_17h38.43.610,vbt_B2_day1,2022.2.4,Win32,59.39653124,,,,,,,,,,,,,,,,,,,-0.187037023,-0.275,1,0,0,0.1833,2,23,75,15,1,p,images/br_p.png,images/cb_p.png,,,,,,,,,,,,,,,,,,,,,,,,,
,,,,,,00036,2023-09-26_17h38.43.610,vbt_B2_day1,2022.2.4,Win32,59.39653124,,,,,,,,,,,,,,,,,,,-0.187037023,-0.275,1,0,0,0.2163,2,24,76,9,1,j,images/br_j.png,images/cb_j.png,,,,,,,,,,,,,,,,,,,,,,,,,
,,,,,,00036,2023-09-26_17h38.43.610,vbt_B2_day1,2022.2.4,Win32,59.39653124,,,,,,,,,,,,,,,,,,,-0.187037023,-0.275,1,0,0,0.0332,2,25,77,22,1,w,images/br_w.png,images/cb_w.png,,,,,,,,,,,,,,,,,,,,,,,,,
,,,,,,00036,2023-09-26_17h38.43.610,vbt_B2_day1,2022.2.4,Win32,59.39653124,,,,,,,,,,,,,,,,,,,-0.187037023,-0.275,1,0,0,0.2176,3,0,78,19,1,t,images/br_t.png,images/cb_t.png,,,,,,,,,,,,,,,,,,,,,,,,,
,,,,,,00036,2023-09-26_17h38.43.610,vbt_B2_day1,2022.2.4,Win32,59.39653124,,,,,,,,,,,,,,,,,,,-0.187037023,-0.275,1,0,0,0.083,3,1,79,9,1,j,images/br_j.png,images/cb_j.png,,,,,,,,,,,,,,,,,,,,,,,,,
,,,,,,00036,2023-09-26_17h38.43.610,vbt_B2_day1,2022.2.4,Win32,59.39653124,,,,,,,,,,,,,,,,,,,-0.187037023,-0.275,1,0,0,0.0169,3,2,80,5,1,f,images/br_f.png,images/cb_f.png,,,,,,,,,,,,,,,,,,,,,,,,,
,,,,,,00036,2023-09-26_17h38.43.610,vbt_B2_day1,2022.2.4,Win32,59.39653124,,,,,,,,,,,,,,,,,,,-0.187037023,-0.275,1,0,0,0.1001,3,3,81,24,1,y,images/br_y.png,images/cb_y.png,,,,,,,,,,,,,,,,,,,,,,,,,
,,,,,,00036,2023-09-26_17h38.43.610,vbt_B2_day1,2022.2.4,Win32,59.39653124,,,,,,,,,,,,,,,,,,,-0.187037023,-0.275,1,0,0,0.2168,3,4,82,15,1,p,images/br_p.png,images/cb_p.png,,,,,,,,,,,,,,,,,,,,,,,,,
,,,,,,00036,2023-09-26_17h38.43.610,vbt_B2_day1,2022.2.4,Win32,59.39653124,,,,,,,,,,,,,,,,,,,-0.187037023,-0.275,1,0,0,0.1994,3,5,83,21,1,v,images/br_v.png,images/cb_v.png,,,,,,,,,,,,,,,,,,,,,,,,,
,,,,,,00036,2023-09-26_17h38.43.610,vbt_B2_day1,2022.2.4,Win32,59.39653124,,,,,,,,,,,,,,,,,,,-0.187037023,-0.275,1,0,0,0.0674,3,6,84,6,1,g,images/br_g.png,images/cb_g.png,,,,,,,,,,,,,,,,,,,,,,,,,
,,,,,,00036,2023-09-26_17h38.43.610,vbt_B2_day1,2022.2.4,Win32,59.39653124,,,,,,,,,,,,,,,,,,,-0.187037023,-0.275,1,0,0,0.2165,3,7,85,13,1,n,images/br_n.png,images/cb_n.png,,,,,,,,,,,,,,,,,,,,,,,,,
,,,,,,00036,2023-09-26_17h38.43.610,vbt_B2_day1,2022.2.4,Win32,59.39653124,,,,,,,,,,,,,,,,,,,-0.187037023,-0.275,1,0,0,0.3329,3,8,86,18,1,s,images/br_s.png,images/cb_s.png,,,,,,,,,,,,,,,,,,,,,,,,,
,,,,,,00036,2023-09-26_17h38.43.610,vbt_B2_day1,2022.2.4,Win32,59.39653124,,,,,,,,,,,,,,,,,,,-0.187037023,-0.275,1,0,0,0.0835,3,9,87,4,1,e,images/br_e.png,images/cb_e.png,,,,,,,,,,,,,,,,,,,,,,,,,
,,,,,,00036,2023-09-26_17h38.43.610,vbt_B2_day1,2022.2.4,Win32,59.39653124,,,,,,,,,,,,,,,,,,,-0.187037023,-0.275,1,0,0,0.2156,3,10,88,3,1,d,images/br_d.png,images/cb_d.png,,,,,,,,,,,,,,,,,,,,,,,,,
,,,,,,00036,2023-09-26_17h38.43.610,vbt_B2_day1,2022.2.4,Win32,59.39653124,,,,,,,,,,,,,,,,,,,-0.187037023,-0.275,1,0,0,0.1162,3,11,89,8,1,i,images/br_i.png,images/cb_i.png,,,,,,,,,,,,,,,,,,,,,,,,,
,,,,,,00036,2023-09-26_17h38.43.610,vbt_B2_day1,2022.2.4,Win32,59.39653124,,,,,,,,,,,,,,,,,,,-0.187037023,-0.275,1,0,0,0.0504,3,12,90,2,1,c,images/br_c.png,images/cb_c.png,,,,,,,,,,,,,,,,,,,,,,,,,
,,,,,,00036,2023-09-26_17h38.43.610,vbt_B2_day1,2022.2.4,Win32,59.39653124,,,,,,,,,,,,,,,,,,,-0.187037023,-0.275,1,0,0,0.2008,3,13,91,10,1,k,images/br_k.png,images/cb_k.png,,,,,,,,,,,,,,,,,,,,,,,,,
,,,,,,00036,2023-09-26_17h38.43.610,vbt_B2_day1,2022.2.4,Win32,59.39653124,,,,,,,,,,,,,,,,,,,-0.187037023,-0.275,1,0,0,8.7323,3,14,92,23,1,x,images/br_x.png,images/cb_x.png,,,,,,,,,,,,,,,,,,,,,,,,,
,,,,,,00036,2023-09-26_17h38.43.610,vbt_B2_day1,2022.2.4,Win32,59.39653124,,,,,,,,,,,,,,,,,,,-0.19351849,-0.269444444,1,0,0,0.1165,3,15,93,1,1,b,images/br_b.png,images/cb_b.png,,,,,,,,,,,,,,,,,,,,,,,,,
,,,,,,00036,2023-09-26_17h38.43.610,vbt_B2_day1,2022.2.4,Win32,59.39653124,,,,,,,,,,,,,,,,,,,-0.19351849,-0.269444444,1,0,0,0.1837,3,16,94,17,1,r,images/br_r.png,images/cb_r.png,,,,,,,,,,,,,,,,,,,,,,,,,
,,,,,,00036,2023-09-26_17h38.43.610,vbt_B2_day1,2022.2.4,Win32,59.39653124,,,,,,,,,,,,,,,,,,,-0.19351849,-0.269444444,1,0,0,0.3506,3,17,95,11,1,l,images/br_l.png,images/cb_l.png,,,,,,,,,,,,,,,,,,,,,,,,,
,,,,,,00036,2023-09-26_17h38.43.610,vbt_B2_day1,2022.2.4,Win32,59.39653124,,,,,,,,,,,,,,,,,,,-0.19351849,-0.269444444,1,0,0,0.2502,3,18,96,25,1,z,images/br_z.png,images/cb_z.png,,,,,,,,,,,,,,,,,,,,,,,,,
,,,,,,00036,2023-09-26_17h38.43.610,vbt_B2_day1,2022.2.4,Win32,59.39653124,,,,,,,,,,,,,,,,,,,-0.185185157,-0.280555556,1,0,0,0.5332,3,19,97,12,1,m,images/br_m.png,images/cb_m.png,,,,,,,,,,,,,,,,,,,,,,,,,
,,,,,,00036,2023-09-26_17h38.43.610,vbt_B2_day1,2022.2.4,Win32,59.39653124,,,,,,,,,,,,,,,,,,,-0.185185157,-0.280555556,1,0,0,0.0665,3,20,98,7,1,h,images/br_h.png,images/cb_h.png,,,,,,,,,,,,,,,,,,,,,,,,,
,,,,,,00036,2023-09-26_17h38.43.610,vbt_B2_day1,2022.2.4,Win32,59.39653124,,,,,,,,,,,,,,,,,,,-0.185185157,-0.280555556,1,0,0,0.0997,3,21,99,14,1,o,images/br_o.png,images/cb_o.png,,,,,,,,,,,,,,,,,,,,,,,,,
,,,,,,00036,2023-09-26_17h38.43.610,vbt_B2_day1,2022.2.4,Win32,59.39653124,,,,,,,,,,,,,,,,,,,-0.185185157,-0.280555556,1,0,0,0.166,3,22,100,0,1,a,images/br_a.png,images/cb_a.png,,,,,,,,,,,,,,,,,,,,,,,,,
,,,,,,00036,2023-09-26_17h38.43.610,vbt_B2_day1,2022.2.4,Win32,59.39653124,,,,,,,,,,,,,,,,,,,-0.185185157,-0.280555556,1,0,0,0.1665,3,23,101,20,1,u,images/br_u.png,images/cb_u.png,,,,,,,,,,,,,,,,,,,,,,,,,
,,,,,,00036,2023-09-26_17h38.43.610,vbt_B2_day1,2022.2.4,Win32,59.39653124,,,,,,,,,,,,,,,,,,,-0.185185157,-0.280555556,1,0,0,0.1664,3,24,102,16,1,q,images/br_q.png,images/cb_q.png,,,,,,,,,,,,,,,,,,,,,,,,,
,,,,,,00036,2023-09-26_17h38.43.610,vbt_B2_day1,2022.2.4,Win32,59.39653124,,,,,,,,,,,,,,,,,,,-0.148148092,-0.19629631,1,0,0,0.649,3,25,103,22,1,w,images/br_w.png,images/cb_w.png,,,,,,,,,,,,,,,,,,,,,,,,,
,,,,,,00036,2023-09-26_17h38.43.610,vbt_B2_day1,2022.2.4,Win32,59.39653124,,,,,,,,,,,,,,,,,,,-0.148148092,-0.19629631,1,0,0,0.1661,4,0,104,8,1,i,images/br_i.png,images/cb_i.png,,,,,,,,,,,,,,,,,,,,,,,,,
,,,,,,00036,2023-09-26_17h38.43.610,vbt_B2_day1,2022.2.4,Win32,59.39653124,,,,,,,,,,,,,,,,,,,-0.148148092,-0.19629631,1,0,0,0.1332,4,1,105,6,1,g,images/br_g.png,images/cb_g.png,,,,,,,,,,,,,,,,,,,,,,,,,
,,,,,,00036,2023-09-26_17h38.43.610,vbt_B2_day1,2022.2.4,Win32,59.39653124,,,,,,,,,,,,,,,,,,,-0.148148092,-0.19629631,1,0,0,0.1335,4,2,106,20,1,u,images/br_u.png,images/cb_u.png,,,,,,,,,,,,,,,,,,,,,,,,,
,,,,,,00036,2023-09-26_17h38.43.610,vbt_B2_day1,2022.2.4,Win32,59.39653124,,,,,,,,,,,,,,,,,,,-0.148148092,-0.19629631,1,0,0,0.1333,4,3,107,25,1,z,images/br_z.png,images/cb_z.png,,,,,,,,,,,,,,,,,,,,,,,,,
,,,,,,00036,2023-09-26_17h38.43.610,vbt_B2_day1,2022.2.4,Win32,59.39653124,,,,,,,,,,,,,,,,,,,-0.148148092,-0.19629631,1,0,0,0.0169,4,4,108,13,1,n,images/br_n.png,images/cb_n.png,,,,,,,,,,,,,,,,,,,,,,,,,
,,,,,,00036,2023-09-26_17h38.43.610,vbt_B2_day1,2022.2.4,Win32,59.39653124,,,,,,,,,,,,,,,,,,,-0.148148092,-0.19629631,1,0,0,0.3,4,5,109,4,1,e,images/br_e.png,images/cb_e.png,,,,,,,,,,,,,,,,,,,,,,,,,
,,,,,,00036,2023-09-26_17h38.43.610,vbt_B2_day1,2022.2.4,Win32,59.39653124,,,,,,,,,,,,,,,,,,,-0.148148092,-0.19629631,1,0,0,0.05,4,6,110,16,1,q,images/br_q.png,images/cb_q.png,,,,,,,,,,,,,,,,,,,,,,,,,
,,,,,,00036,2023-09-26_17h38.43.610,vbt_B2_day1,2022.2.4,Win32,59.39653124,,,,,,,,,,,,,,,,,,,-0.148148092,-0.19629631,1,0,0,0.0501,4,7,111,22,1,w,images/br_w.png,images/cb_w.png,,,,,,,,,,,,,,,,,,,,,,,,,
,,,,,,00036,2023-09-26_17h38.43.610,vbt_B2_day1,2022.2.4,Win32,59.39653124,,,,,,,,,,,,,,,,,,,-0.148148092,-0.19629631,1,0,0,0.3,4,8,112,1,1,b,images/br_b.png,images/cb_b.png,,,,,,,,,,,,,,,,,,,,,,,,,
,,,,,,00036,2023-09-26_17h38.43.610,vbt_B2_day1,2022.2.4,Win32,59.39653124,,,,,,,,,,,,,,,,,,,-0.148148092,-0.19629631,1,0,0,0.1168,4,9,113,2,1,c,images/br_c.png,images/cb_c.png,,,,,,,,,,,,,,,,,,,,,,,,,
,,,,,,00036,2023-09-26_17h38.43.610,vbt_B2_day1,2022.2.4,Win32,59.39653124,,,,,,,,,,,,,,,,,,,-0.148148092,-0.19629631,1,0,0,0.0491,4,10,114,3,1,d,images/br_d.png,images/cb_d.png,,,,,,,,,,,,,,,,,,,,,,,,,
,,,,,,00036,2023-09-26_17h38.43.610,vbt_B2_day1,2022.2.4,Win32,59.39653124,,,,,,,,,,,,,,,,,,,-0.148148092,-0.19629631,1,0,0,0.2166,4,11,115,7,1,h,images/br_h.png,images/cb_h.png,,,,,,,,,,,,,,,,,,,,,,,,,
,,,,,,00036,2023-09-26_17h38.43.610,vbt_B2_day1,2022.2.4,Win32,59.39653124,,,,,,,,,,,,,,,,,,,-0.148148092,-0.19629631,1,0,0,0.15,4,12,116,9,1,j,images/br_j.png,images/cb_j.png,,,,,,,,,,,,,,,,,,,,,,,,,
,,,,,,00036,2023-09-26_17h38.43.610,vbt_B2_day1,2022.2.4,Win32,59.39653124,,,,,,,,,,,,,,,,,,,-0.095370314,-0.238888889,1,0,0,0.0661,4,13,117,15,1,p,images/br_p.png,images/cb_p.png,,,,,,,,,,,,,,,,,,,,,,,,,
,,,,,,00036,2023-09-26_17h38.43.610,vbt_B2_day1,2022.2.4,Win32,59.39653124,,,,,,,,,,,,,,,,,,,-0.095370314,-0.238888889,1,0,0,0.1509,4,14,118,24,1,y,images/br_y.png,images/cb_y.png,,,,,,,,,,,,,,,,,,,,,,,,,
,,,,,,00036,2023-09-26_17h38.43.610,vbt_B2_day1,2022.2.4,Win32,59.39653124,,,,,,,,,,,,,,,,,,,-0.095370314,-0.238888889,1,0,0,0.0506,4,15,119,23,1,x,images/br_x.png,images/cb_x.png,,,,,,,,,,,,,,,,,,,,,,,,,
,,,,,,00036,2023-09-26_17h38.43.610,vbt_B2_day1,2022.2.4,Win32,59.39653124,,,,,,,,,,,,,,,,,,,-0.095370314,-0.238888889,1,0,0,0.0664,4,16,120,11,1,l,images/br_l.png,images/cb_l.png,,,,,,,,,,,,,,,,,,,,,,,,,
,,,,,,00036,2023-09-26_17h38.43.610,vbt_B2_day1,2022.2.4,Win32,59.39653124,,,,,,,,,,,,,,,,,,,-0.095370314,-0.238888889,1,0,0,0.0333,4,17,121,5,1,f,images/br_f.png,images/cb_f.png,,,,,,,,,,,,,,,,,,,,,,,,,
,,,,,,00036,2023-09-26_17h38.43.610,vbt_B2_day1,2022.2.4,Win32,59.39653124,,,,,,,,,,,,,,,,,,,-0.095370314,-0.238888889,1,0,0,0.0663,4,18,122,12,1,m,images/br_m.png,images/cb_m.png,,,,,,,,,,,,,,,,,,,,,,,,,
,,,,,,00036,2023-09-26_17h38.43.610,vbt_B2_day1,2022.2.4,Win32,59.39653124,,,,,,,,,,,,,,,,,,,-0.095370314,-0.238888889,1,0,0,0.1334,4,19,123,19,1,t,images/br_t.png,images/cb_t.png,,,,,,,,,,,,,,,,,,,,,,,,,
,,,,,,00036,2023-09-26_17h38.43.610,vbt_B2_day1,2022.2.4,Win32,59.39653124,,,,,,,,,,,,,,,,,,,-0.095370314,-0.238888889,1,0,0,0.1,4,20,124,14,1,o,images/br_o.png,images/cb_o.png,,,,,,,,,,,,,,,,,,,,,,,,,
,,,,,,00036,2023-09-26_17h38.43.610,vbt_B2_day1,2022.2.4,Win32,59.39653124,,,,,,,,,,,,,,,,,,,-0.095370314,-0.238888889,1,0,0,0.0836,4,21,125,21,1,v,images/br_v.png,images/cb_v.png,,,,,,,,,,,,,,,,,,,,,,,,,
,,,,,,00036,2023-09-26_17h38.43.610,vbt_B2_day1,2022.2.4,Win32,59.39653124,,,,,,,,,,,,,,,,,,,-0.095370314,-0.238888889,1,0,0,0.2664,4,22,126,17,1,r,images/br_r.png,images/cb_r.png,,,,,,,,,,,,,,,,,,,,,,,,,
,,,,,,00036,2023-09-26_17h38.43.610,vbt_B2_day1,2022.2.4,Win32,59.39653124,,,,,,,,,,,,,,,,,,,-0.095370314,-0.238888889,1,0,0,0.0495,4,23,127,0,1,a,images/br_a.png,images/cb_a.png,,,,,,,,,,,,,,,,,,,,,,,,,
,,,,,,00036,2023-09-26_17h38.43.610,vbt_B2_day1,2022.2.4,Win32,59.39653124,,,,,,,,,,,,,,,,,,,-0.095370314,-0.238888889,1,0,0,0.1672,4,24,128,18,1,s,images/br_s.png,images/cb_s.png,,,,,,,,,,,,,,,,,,,,,,,,,
,,,,,,00036,2023-09-26_17h38.43.610,vbt_B2_day1,2022.2.4,Win32,59.39653124,,,,,,,,,,,,,,,,,,,-0.095370314,-0.238888889,1,0,0,0.1503,4,25,129,10,1,k,images/br_k.png,images/cb_k.png,,,,,,,,,,,,,,,,,,,,,,,,,
,,,,,,00036,2023-09-26_17h38.43.610,vbt_B2_day1,2022.2.4,Win32,59.39653124,,,,,,,,,,,,,,,,,,,-0.095370314,-0.238888889,1,0,0,0.1167,5,0,130,3,1,d,images/br_d.png,images/cb_d.png,,,,,,,,,,,,,,,,,,,,,,,,,
,,,,,,00036,2023-09-26_17h38.43.610,vbt_B2_day1,2022.2.4,Win32,59.39653124,,,,,,,,,,,,,,,,,,,-0.095370314,-0.238888889,1,0,0,0.7002,5,1,131,5,1,f,images/br_f.png,images/cb_f.png,,,,,,,,,,,,,,,,,,,,,,,,,
,,,,,,00036,2023-09-26_17h38.43.610,vbt_B2_day1,2022.2.4,Win32,59.39653124,,,,,,,,,,,,,,,,,,,-0.095370314,-0.238888889,1,0,0,0.2669,5,2,132,19,1,t,images/br_t.png,images/cb_t.png,,,,,,,,,,,,,,,,,,,,,,,,,
,,,,,,00036,2023-09-26_17h38.43.610,vbt_B2_day1,2022.2.4,Win32,59.39653124,,,,,,,,,,,,,,,,,,,-0.095370314,-0.238888889,1,0,0,0.1668,5,3,133,6,1,g,images/br_g.png,images/cb_g.png,,,,,,,,,,,,,,,,,,,,,,,,,
,,,,,,00036,2023-09-26_17h38.43.610,vbt_B2_day1,2022.2.4,Win32,59.39653124,,,,,,,,,,,,,,,,,,,-0.095370314,-0.238888889,1,0,0,0.0171,5,4,134,0,1,a,images/br_a.png,images/cb_a.png,,,,,,,,,,,,,,,,,,,,,,,,,
,,,,,,00036,2023-09-26_17h38.43.610,vbt_B2_day1,2022.2.4,Win32,59.39653124,,,,,,,,,,,,,,,,,,,-0.095370314,-0.238888889,1,0,0,0.383,5,5,135,2,1,c,images/br_c.png,images/cb_c.png,,,,,,,,,,,,,,,,,,,,,,,,,
,,,,,,00036,2023-09-26_17h38.43.610,vbt_B2_day1,2022.2.4,Win32,59.39653124,,,,,,,,,,,,,,,,,,,-0.095370314,-0.238888889,1,0,0,0.1998,5,6,136,7,1,h,images/br_h.png,images/cb_h.png,,,,,,,,,,,,,,,,,,,,,,,,,
,,,,,,00036,2023-09-26_17h38.43.610,vbt_B2_day1,2022.2.4,Win32,59.39653124,,,,,,,,,,,,,,,,,,,-0.095370314,-0.238888889,1,0,0,0.0834,5,7,137,17,1,r,images/br_r.png,images/cb_r.png,,,,,,,,,,,,,,,,,,,,,,,,,
,,,,,,00036,2023-09-26_17h38.43.610,vbt_B2_day1,2022.2.4,Win32,59.39653124,,,,,,,,,,,,,,,,,,,-0.095370314,-0.238888889,1,0,0,0.1834,5,8,138,15,1,p,images/br_p.png,images/cb_p.png,,,,,,,,,,,,,,,,,,,,,,,,,
,,,,,,00036,2023-09-26_17h38.43.610,vbt_B2_day1,2022.2.4,Win32,59.39653124,,,,,,,,,,,,,,,,,,,-0.095370314,-0.238888889,1,0,0,0.2335,5,9,139,16,1,q,images/br_q.png,images/cb_q.png,,,,,,,,,,,,,,,,,,,,,,,,,
,,,,,,00036,2023-09-26_17h38.43.610,vbt_B2_day1,2022.2.4,Win32,59.39653124,,,,,,,,,,,,,,,,,,,-0.095370314,-0.238888889,1,0,0,0.0835,5,10,140,13,1,n,images/br_n.png,images/cb_n.png,,,,,,,,,,,,,,,,,,,,,,,,,
,,,,,,00036,2023-09-26_17h38.43.610,vbt_B2_day1,2022.2.4,Win32,59.39653124,,,,,,,,,,,,,,,,,,,-0.095370314,-0.238888889,1,0,0,0.2671,5,11,141,25,1,z,images/br_z.png,images/cb_z.png,,,,,,,,,,,,,,,,,,,,,,,,,
,,,,,,00036,2023-09-26_17h38.43.610,vbt_B2_day1,2022.2.4,Win32,59.39653124,,,,,,,,,,,,,,,,,,,-0.095370314,-0.238888889,1,0,0,0.0832,5,12,142,14,1,o,images/br_o.png,images/cb_o.png,,,,,,,,,,,,,,,,,,,,,,,,,
,,,,,,00036,2023-09-26_17h38.43.610,vbt_B2_day1,2022.2.4,Win32,59.39653124,,,,,,,,,,,,,,,,,,,-0.095370314,-0.238888889,1,0,0,0.2328,5,13,143,8,1,i,images/br_i.png,images/cb_i.png,,,,,,,,,,,,,,,,,,,,,,,,,
,,,,,,00036,2023-09-26_17h38.43.610,vbt_B2_day1,2022.2.4,Win32,59.39653124,,,,,,,,,,,,,,,,,,,-0.095370314,-0.238888889,1,0,0,0.1333,5,14,144,20,1,u,images/br_u.png,images/cb_u.png,,,,,,,,,,,,,,,,,,,,,,,,,
,,,,,,00036,2023-09-26_17h38.43.610,vbt_B2_day1,2022.2.4,Win32,59.39653124,,,,,,,,,,,,,,,,,,,-0.095370314,-0.238888889,1,0,0,0.25,5,15,145,24,1,y,images/br_y.png,images/cb_y.png,,,,,,,,,,,,,,,,,,,,,,,,,
,,,,,,00036,2023-09-26_17h38.43.610,vbt_B2_day1,2022.2.4,Win32,59.39653124,,,,,,,,,,,,,,,,,,,-0.095370314,-0.238888889,1,0,0,0.0994,5,16,146,22,1,w,images/br_w.png,images/cb_w.png,,,,,,,,,,,,,,,,,,,,,,,,,
,,,,,,00036,2023-09-26_17h38.43.610,vbt_B2_day1,2022.2.4,Win32,59.39653124,,,,,,,,,,,,,,,,,,,-0.095370314,-0.238888889,1,0,0,0.15,5,17,147,10,1,k,images/br_k.png,images/cb_k.png,,,,,,,,,,,,,,,,,,,,,,,,,
,,,,,,00036,2023-09-26_17h38.43.610,vbt_B2_day1,2022.2.4,Win32,59.39653124,,,,,,,,,,,,,,,,,,,-0.095370314,-0.238888889,1,0,0,0.3833,5,18,148,12,1,m,images/br_m.png,images/cb_m.png,,,,,,,,,,,,,,,,,,,,,,,,,
,,,,,,00036,2023-09-26_17h38.43.610,vbt_B2_day1,2022.2.4,Win32,59.39653124,,,,,,,,,,,,,,,,,,,-0.095370314,-0.238888889,1,0,0,0.1333,5,19,149,4,1,e,images/br_e.png,images/cb_e.png,,,,,,,,,,,,,,,,,,,,,,,,,
,,,,,,00036,2023-09-26_17h38.43.610,vbt_B2_day1,2022.2.4,Win32,59.39653124,,,,,,,,,,,,,,,,,,,-0.095370314,-0.238888889,1,0,0,0.0995,5,20,150,1,1,b,images/br_b.png,images/cb_b.png,,,,,,,,,,,,,,,,,,,,,,,,,
,,,,,,00036,2023-09-26_17h38.43.610,vbt_B2_day1,2022.2.4,Win32,59.39653124,,,,,,,,,,,,,,,,,,,-0.095370314,-0.238888889,1,0,0,0.116,5,21,151,18,1,s,images/br_s.png,images/cb_s.png,,,,,,,,,,,,,,,,,,,,,,,,,
,,,,,,00036,2023-09-26_17h38.43.610,vbt_B2_day1,2022.2.4,Win32,59.39653124,,,,,,,,,,,,,,,,,,,-0.095370314,-0.238888889,1,0,0,0.1335,5,22,152,11,1,l,images/br_l.png,images/cb_l.png,,,,,,,,,,,,,,,,,,,,,,,,,
,,,,,,00036,2023-09-26_17h38.43.610,vbt_B2_day1,2022.2.4,Win32,59.39653124,,,,,,,,,,,,,,,,,,,-0.095370314,-0.238888889,1,0,0,0.133,5,23,153,21,1,v,images/br_v.png,images/cb_v.png,,,,,,,,,,,,,,,,,,,,,,,,,
,,,,,,00036,2023-09-26_17h38.43.610,vbt_B2_day1,2022.2.4,Win32,59.39653124,,,,,,,,,,,,,,,,,,,-0.095370314,-0.238888889,1,0,0,0.4329,5,24,154,9,1,j,images/br_j.png,images/cb_j.png,,,,,,,,,,,,,,,,,,,,,,,,,
,,,,,,00036,2023-09-26_17h38.43.610,vbt_B2_day1,2022.2.4,Win32,59.39653124,,,,,,,,,,,,,,,,,,,-0.095370314,-0.238888889,1,0,0,0.1504,5,25,155,23,1,x,images/br_x.png,images/cb_x.png,,,,,,,,,,,,,,,,,,,,,,,,,
,,,,,,00036,2023-09-26_17h38.43.610,vbt_B2_day1,2022.2.4,Win32,59.39653124,,,,,,,,,,,,,,,,,,,-0.095370314,-0.238888889,1,0,0,0.0333,6,0,156,0,1,a,images/br_a.png,images/cb_a.png,,,,,,,,,,,,,,,,,,,,,,,,,
,,,,,,00036,2023-09-26_17h38.43.610,vbt_B2_day1,2022.2.4,Win32,59.39653124,,,,,,,,,,,,,,,,,,,-0.095370314,-0.238888889,1,0,0,0.0997,6,1,157,23,1,x,images/br_x.png,images/cb_x.png,,,,,,,,,,,,,,,,,,,,,,,,,
,,,,,,00036,2023-09-26_17h38.43.610,vbt_B2_day1,2022.2.4,Win32,59.39653124,,,,,,,,,,,,,,,,,,,-0.095370314,-0.238888889,1,0,0,0.1334,6,2,158,15,1,p,images/br_p.png,images/cb_p.png,,,,,,,,,,,,,,,,,,,,,,,,,
,,,,,,00036,2023-09-26_17h38.43.610,vbt_B2_day1,2022.2.4,Win32,59.39653124,,,,,,,,,,,,,,,,,,,-0.095370314,-0.238888889,1,0,0,0.1169,6,3,159,25,1,z,images/br_z.png,images/cb_z.png,,,,,,,,,,,,,,,,,,,,,,,,,
,,,,,,00036,2023-09-26_17h38.43.610,vbt_B2_day1,2022.2.4,Win32,59.39653124,,,,,,,,,,,,,,,,,,,-0.095370314,-0.238888889,1,0,0,0.0669,6,4,160,10,1,k,images/br_k.png,images/cb_k.png,,,,,,,,,,,,,,,,,,,,,,,,,
,,,,,,00036,2023-09-26_17h38.43.610,vbt_B2_day1,2022.2.4,Win32,59.39653124,,,,,,,,,,,,,,,,,,,-0.095370314,-0.238888889,1,0,0,0.284,6,5,161,18,1,s,images/br_s.png,images/cb_s.png,,,,,,,,,,,,,,,,,,,,,,,,,
,,,,,,00036,2023-09-26_17h38.43.610,vbt_B2_day1,2022.2.4,Win32,59.39653124,,,,,,,,,,,,,,,,,,,-0.095370314,-0.238888889,1,0,0,0.1668,6,6,162,19,1,t,images/br_t.png,images/cb_t.png,,,,,,,,,,,,,,,,,,,,,,,,,
,,,,,,00036,2023-09-26_17h38.43.610,vbt_B2_day1,2022.2.4,Win32,59.39653124,,,,,,,,,,,,,,,,,,,-0.095370314,-0.238888889,1,0,0,0.2667,6,7,163,5,1,f,images/br_f.png,images/cb_f.png,,,,,,,,,,,,,,,,,,,,,,,,,
,,,,,,00036,2023-09-26_17h38.43.610,vbt_B2_day1,2022.2.4,Win32,59.39653124,,,,,,,,,,,,,,,,,,,-0.095370314,-0.238888889,1,0,0,0.0327,6,8,164,12,1,m,images/br_m.png,images/cb_m.png,,,,,,,,,,,,,,,,,,,,,,,,,
,,,,,,00036,2023-09-26_17h38.43.610,vbt_B2_day1,2022.2.4,Win32,59.39653124,,,,,,,,,,,,,,,,,,,-0.095370314,-0.238888889,1,0,0,0.1839,6,9,165,24,1,y,images/br_y.png,images/cb_y.png,,,,,,,,,,,,,,,,,,,,,,,,,
,,,,,,00036,2023-09-26_17h38.43.610,vbt_B2_day1,2022.2.4,Win32,59.39653124,,,,,,,,,,,,,,,,,,,-0.095370314,-0.238888889,1,0,0,0.2164,6,10,166,20,1,u,images/br_u.png,images/cb_u.png,,,,,,,,,,,,,,,,,,,,,,,,,
,,,,,,00036,2023-09-26_17h38.43.610,vbt_B2_day1,2022.2.4,Win32,59.39653124,,,,,,,,,,,,,,,,,,,-0.095370314,-0.238888889,1,0,0,0.867,6,11,167,14,1,o,images/br_o.png,images/cb_o.png,,,,,,,,,,,,,,,,,,,,,,,,,
,,,,,,00036,2023-09-26_17h38.43.610,vbt_B2_day1,2022.2.4,Win32,59.39653124,,,,,,,,,,,,,,,,,,,-0.095370314,-0.238888889,1,0,0,0.2837,6,12,168,6,1,g,images/br_g.png,images/cb_g.png,,,,,,,,,,,,,,,,,,,,,,,,,
,,,,,,00036,2023-09-26_17h38.43.610,vbt_B2_day1,2022.2.4,Win32,59.39653124,,,,,,,,,,,,,,,,,,,-0.095370314,-0.238888889,1,0,0,0.1159,6,13,169,16,1,q,images/br_q.png,images/cb_q.png,,,,,,,,,,,,,,,,,,,,,,,,,
,,,,,,00036,2023-09-26_17h38.43.610,vbt_B2_day1,2022.2.4,Win32,59.39653124,,,,,,,,,,,,,,,,,,,-0.095370314,-0.238888889,1,0,0,0.1493,6,14,170,17,1,r,images/br_r.png,images/cb_r.png,,,,,,,,,,,,,,,,,,,,,,,,,
,,,,,,00036,2023-09-26_17h38.43.610,vbt_B2_day1,2022.2.4,Win32,59.39653124,,,,,,,,,,,,,,,,,,,-0.095370314,-0.238888889,1,0,0,0.2496,6,15,171,7,1,h,images/br_h.png,images/cb_h.png,,,,,,,,,,,,,,,,,,,,,,,,,
,,,,,,00036,2023-09-26_17h38.43.610,vbt_B2_day1,2022.2.4,Win32,59.39653124,,,,,,,,,,,,,,,,,,,-0.095370314,-0.238888889,1,0,0,0.9831,6,16,172,22,1,w,images/br_w.png,images/cb_w.png,,,,,,,,,,,,,,,,,,,,,,,,,
,,,,,,00036,2023-09-26_17h38.43.610,vbt_B2_day1,2022.2.4,Win32,59.39653124,,,,,,,,,,,,,,,,,,,-0.095370314,-0.238888889,1,0,0,0.1337,6,17,173,2,1,c,images/br_c.png,images/cb_c.png,,,,,,,,,,,,,,,,,,,,,,,,,
,,,,,,00036,2023-09-26_17h38.43.610,vbt_B2_day1,2022.2.4,Win32,59.39653124,,,,,,,,,,,,,,,,,,,-0.095370314,-0.238888889,1,0,0,5.316,6,18,174,8,1,i,images/br_i.png,images/cb_i.png,,,,,,,,,,,,,,,,,,,,,,,,,
,,,,,,00036,2023-09-26_17h38.43.610,vbt_B2_day1,2022.2.4,Win32,59.39653124,,,,,,,,,,,,,,,,,,,-0.095370314,-0.238888889,1,0,0,0.1827,6,19,175,21,1,v,images/br_v.png,images/cb_v.png,,,,,,,,,,,,,,,,,,,,,,,,,
,,,,,,00036,2023-09-26_17h38.43.610,vbt_B2_day1,2022.2.4,Win32,59.39653124,,,,,,,,,,,,,,,,,,,0.065740797,-0.499074131,1,0,0,0.1833,6,20,176,3,1,d,images/br_d.png,images/cb_d.png,,,,,,,,,,,,,,,,,,,,,,,,,
,,,,,,00036,2023-09-26_17h38.43.610,vbt_B2_day1,2022.2.4,Win32,59.39653124,,,,,,,,,,,,,,,,,,,0.065740797,-0.499074131,1,0,0,1.0995,6,21,177,13,1,n,images/br_n.png,images/cb_n.png,,,,,,,,,,,,,,,,,,,,,,,,,
,,,,,,00036,2023-09-26_17h38.43.610,vbt_B2_day1,2022.2.4,Win32,59.39653124,,,,,,,,,,,,,,,,,,,0.065740797,-0.499074131,1,0,0,0.1332,6,22,178,1,1,b,images/br_b.png,images/cb_b.png,,,,,,,,,,,,,,,,,,,,,,,,,
,,,,,,00036,2023-09-26_17h38.43.610,vbt_B2_day1,2022.2.4,Win32,59.39653124,,,,,,,,,,,,,,,,,,,0.065740797,-0.499074131,1,0,0,0.3167,6,23,179,11,1,l,images/br_l.png,images/cb_l.png,,,,,,,,,,,,,,,,,,,,,,,,,
,,,,,,00036,2023-09-26_17h38.43.610,vbt_B2_day1,2022.2.4,Win32,59.39653124,,,,,,,,,,,,,,,,,,,0.065740797,-0.499074131,1,0,0,0.0334,6,24,180,9,1,j,images/br_j.png,images/cb_j.png,,,,,,,,,,,,,,,,,,,,,,,,,
,,,,,,00036,2023-09-26_17h38.43.610,vbt_B2_day1,2022.2.4,Win32,59.39653124,,,,,,,,,,,,,,,,,,,0.065740797,-0.499074131,1,0,0,0.0999,6,25,181,4,1,e,images/br_e.png,images/cb_e.png,,,,,,,,,,,,,,,,,,,,,,,,,
,,,,,,00036,2023-09-26_17h38.43.610,vbt_B2_day1,2022.2.4,Win32,59.39653124,,,,,,,,,,,,,,,,,,,,,,,,,,,,,,,,,0.065740797,-0.499074131,1,0,0,,,,,,,,,,,,,,,,,,,,
,,,,,,00036,2023-09-26_17h38.43.610,vbt_B2_day1,2022.2.4,Win32,59.39653124,,,,,,,,,,,,,,,,,,,,,,,,,,,,,,,,,,,,,,0.065740797,-0.499074131,1,0,0,,,,,,,,,,,,,,,
,,,,,,00036,2023-09-26_17h38.43.610,vbt_B2_day1,2022.2.4,Win32,59.39653124,,,,,,,,,,,,,,,,,,,,,,,,,,,,,,,,,,,,,,,,,,,-0.039814758,-0.182407422,1,0,0,ltz,ltz,0,0,0,45,1,hemel,images/br_hemel.png,images/cb_hemel.png
,,,,,,00036,2023-09-26_17h38.43.610,vbt_B2_day1,2022.2.4,Win32,59.39653124,,,,,,,,,,,,,,,,,,,,,,,,,,,,,,,,,,,,,,,,,,,-0.04351849,-0.190740755,1,0,0,,,0,1,1,26,1,valop,images/br_valop.png,images/cb_valop.png
,,,,,,00036,2023-09-26_17h38.43.610,vbt_B2_day1,2022.2.4,Win32,59.39653124,,,,,,,,,,,,,,,,,,,,,,,,,,,,,,,,,,,,,,,,,,,-0.04351849,-0.190740755,1,0,0,daao,daao,0,2,2,16,1,daarheen,images/br_daarheen.png,images/cb_daarheen.png
,,,,,,00036,2023-09-26_17h38.43.610,vbt_B2_day1,2022.2.4,Win32,59.39653124,,,,,,,,,,,,,,,,,,,,,,,,,,,,,,,,,,,,,,,,,,,-0.016666667,-0.276851908,1,0,0,zppa,zppa,0,3,3,52,1,zuiplap,images/br_zuiplap.png,images/cb_zuiplap.png
,,,,,,00036,2023-09-26_17h38.43.610,vbt_B2_day1,2022.2.4,Win32,59.39653124,,,,,,,,,,,,,,,,,,,,,,,,,,,,,,,,,,,,,,,,,,,-0.016666667,-0.276851908,1,0,0,vva,vva,0,4,4,36,1,vervaden,images/br_vervaden.png,images/cb_vervaden.png
,,,,,,00036,2023-09-26_17h38.43.610,vbt_B2_day1,2022.2.4,Win32,59.39653124,,,,,,,,,,,,,,,,,,,,,,,,,,,,,,,,,,,,,,,,,,,-0.016666667,-0.276851908,1,0,0,fp,fp,0,5,5,4,1,schep,images/br_schep.png,images/cb_schep.png
,,,,,,00036,2023-09-26_17h38.43.610,vbt_B2_day1,2022.2.4,Win32,59.39653124,,,,,,,,,,,,,,,,,,,,,,,,,,,,,,,,,,,,,,,,,,,-0.016666667,-0.276851908,1,0,0,oo,oo,0,6,6,23,1,booi,images/br_booi.png,images/cb_booi.png
,,,,,,00036,2023-09-26_17h38.43.610,vbt_B2_day1,2022.2.4,Win32,59.39653124,,,,,,,,,,,,,,,,,,,,,,,,,,,,,,,,,,,,,,,,,,,-0.016666667,-0.276851908,1,0,0,,,0,7,7,49,1,vizier,images/br_vizier.png,images/cb_vizier.png
,,,,,,00036,2023-09-26_17h38.43.610,vbt_B2_day1,2022.2.4,Win32,59.39653124,,,,,,,,,,,,,,,,,,,,,,,,,,,,,,,,,,,,,,,,,,,-0.016666667,-0.276851908,1,0,0,iz,iz,0,8,8,46,1,lezen,images/br_lezen.png,images/cb_lezen.png
,,,,,,00036,2023-09-26_17h38.43.610,vbt_B2_day1,2022.2.4,Win32,59.39653124,,,,,,,,,,,,,,,,,,,,,,,,,,,,,,,,,,,,,,,,,,,-0.016666667,-0.276851908,1,0,0,i,i,0,9,9,9,1,dubbel,images/br_dubbel.png,images/cb_dubbel.png
,,,,,,00036,2023-09-26_17h38.43.610,vbt_B2_day1,2022.2.4,Win32,59.39653124,,,,,,,,,,,,,,,,,,,,,,,,,,,,,,,,,,,,,,,,,,,-0.016666667,-0.276851908,1,0,0,iw,iw,0,10,10,6,1,bleek,images/br_bleek.png,images/cb_bleek.png
,,,,,,00036,2023-09-26_17h38.43.610,vbt_B2_day1,2022.2.4,Win32,59.39653124,,,,,,,,,,,,,,,,,,,,,,,,,,,,,,,,,,,,,,,,,,,-0.016666667,-0.276851908,1,0,0,,,0,11,11,31,1,stamen,images/br_stamen.png,images/cb_stamen.png
,,,,,,00036,2023-09-26_17h38.43.610,vbt_B2_day1,2022.2.4,Win32,59.39653124,,,,,,,,,,,,,,,,,,,,,,,,,,,,,,,,,,,,,,,,,,,-0.016666667,-0.276851908,1,0,0,wo,wo,0,12,12,22,1,knoe,images/br_knoe.png,images/cb_knoe.png
,,,,,,00036,2023-09-26_17h38.43.610,vbt_B2_day1,2022.2.4,Win32,59.39653124,,,,,,,,,,,,,,,,,,,,,,,,,,,,,,,,,,,,,,,,,,,-0.016666667,-0.276851908,1,0,0,iii,iii,0,13,13,33,1,flullen,images/br_flullen.png,images/cb_flullen.png
,,,,,,00036,2023-09-26_17h38.43.610,vbt_B2_day1,2022.2.4,Win32,59.39653124,,,,,,,,,,,,,,,,,,,,,,,,,,,,,,,,,,,,,,,,,,,-0.016666667,-0.276851908,1,0,0,oppaa,oppaa,0,14,14,32,1,opplaan,images/br_opplaan.png,images/cb_opplaan.png
,,,,,,00036,2023-09-26_17h38.43.610,vbt_B2_day1,2022.2.4,Win32,59.39653124,,,,,,,,,,,,,,,,,,,,,,,,,,,,,,,,,,,,,,,,,,,-0.016666667,-0.276851908,1,0,0,oo,oo,0,15,15,41,1,hoog,images/br_hoog.png,images/cb_hoog.png
,,,,,,00036,2023-09-26_17h38.43.610,vbt_B2_day1,2022.2.4,Win32,59.39653124,,,,,,,,,,,,,,,,,,,,,,,,,,,,,,,,,,,,,,,,,,,-0.016666667,-0.276851908,1,0,0,ior,ior,0,16,16,34,1,lochten,images/br_lochten.png,images/cb_lochten.png
,,,,,,00036,2023-09-26_17h38.43.610,vbt_B2_day1,2022.2.4,Win32,59.39653124,,,,,,,,,,,,,,,,,,,,,,,,,,,,,,,,,,,,,,,,,,,-0.016666667,-0.276851908,1,0,0,i,i,0,17,17,19,1,schuilen,images/br_schuilen.png,images/cb_schuilen.png
,,,,,,00036,2023-09-26_17h38.43.610,vbt_B2_day1,2022.2.4,Win32,59.39653124,,,,,,,,,,,,,,,,,,,,,,,,,,,,,,,,,,,,,,,,,,,-0.016666667,-0.276851908,1,0,0,waatv,waatv,0,18,18,14,1,waarvan,images/br_waarvan.png,images/cb_waarvan.png
,,,,,,00036,2023-09-26_17h38.43.610,vbt_B2_day1,2022.2.4,Win32,59.39653124,,,,,,,,,,,,,,,,,,,,,,,,,,,,,,,,,,,,,,,,,,,-0.016666667,-0.276851908,1,0,0,ma,ma,0,19,19,3,1,mand,images/br_mand.png,images/cb_mand.png
,,,,,,00036,2023-09-26_17h38.43.610,vbt_B2_day1,2022.2.4,Win32,59.39653124,,,,,,,,,,,,,,,,,,,,,,,,,,,,,,,,,,,,,,,,,,,-0.016666667,-0.276851908,1,0,0,iaw,iaw,0,20,20,0,1,slak,images/br_slak.png,images/cb_slak.png
,,,,,,00036,2023-09-26_17h38.43.610,vbt_B2_day1,2022.2.4,Win32,59.39653124,,,,,,,,,,,,,,,,,,,,,,,,,,,,,,,,,,,,,,,,,,,-0.016666667,-0.276851908,1,0,0,pa,pa,0,21,21,37,1,spanzing,images/br_spanzing.png,images/cb_spanzing.png
,,,,,,00036,2023-09-26_17h38.43.610,vbt_B2_day1,2022.2.4,Win32,59.39653124,,,,,,,,,,,,,,,,,,,,,,,,,,,,,,,,,,,,,,,,,,,-0.016666667,-0.276851908,1,0,0,will,will,0,22,22,12,1,klimmen,images/br_klimmen.png,images/cb_klimmen.png
,,,,,,00036,2023-09-26_17h38.43.610,vbt_B2_day1,2022.2.4,Win32,59.39653124,,,,,,,,,,,,,,,,,,,,,,,,,,,,,,,,,,,,,,,,,,,-0.016666667,-0.276851908,1,0,0,aat,aat,0,23,23,2,1,jaar,images/br_jaar.png,images/cb_jaar.png
,,,,,,00036,2023-09-26_17h38.43.610,vbt_B2_day1,2022.2.4,Win32,59.39653124,,,,,,,,,,,,,,,,,,,,,,,,,,,,,,,,,,,,,,,,,,,-0.016666667,-0.276851908,1,0,0,tva,tva,0,24,24,15,1,hiervan,images/br_hiervan.png,images/cb_hiervan.png
,,,,,,00036,2023-09-26_17h38.43.610,vbt_B2_day1,2022.2.4,Win32,59.39653124,,,,,,,,,,,,,,,,,,,,,,,,,,,,,,,,,,,,,,,,,,,-0.016666667,-0.276851908,1,0,0,o,o,0,25,25,59,1,opvatten,images/br_opvatten.png,images/cb_opvatten.png
,,,,,,00036,2023-09-26_17h38.43.610,vbt_B2_day1,2022.2.4,Win32,59.39653124,,,,,,,,,,,,,,,,,,,,,,,,,,,,,,,,,,,,,,,,,,,-0.017592536,-0.279629686,1,0,0,,,0,26,26,58,1,voorkeur,images/br_voorkeur.png,images/cb_voorkeur.png
,,,,,,00036,2023-09-26_17h38.43.610,vbt_B2_day1,2022.2.4,Win32,59.39653124,,,,,,,,,,,,,,,,,,,,,,,,,,,,,,,,,,,,,,,,,,,0.158673844,0.023386601,1,0,0,,,0,27,27,50,1,liegen,images/br_liegen.png,images/cb_liegen.png
,,,,,,00036,2023-09-26_17h38.43.610,vbt_B2_day1,2022.2.4,Win32,59.39653124,,,,,,,,,,,,,,,,,,,,,,,,,,,,,,,,,,,,,,,,,,,0.029603352,-0.28330373,1,0,0,flb,flb,0,28,28,1,1,zaal,images/br_zaal.png,images/cb_zaal.png
,,,,,,00036,2023-09-26_17h38.43.610,vbt_B2_day1,2022.2.4,Win32,59.39653124,,,,,,,,,,,,,,,,,,,,,,,,,,,,,,,,,,,,,,,,,,,0.029603352,-0.277383103,1,0,0,zbra,zbra,0,29,29,5,1,maken,images/br_maken.png,images/cb_maken.png
,,,,,,00036,2023-09-26_17h38.43.610,vbt_B2_day1,2022.2.4,Win32,59.39653124,,,,,,,,,,,,,,,,,,,,,,,,,,,,,,,,,,,,,,,,,,,0.029603352,-0.277383103,1,0,0,mm,mm,0,30,30,57,1,meenemen,images/br_meenemen.png,images/cb_meenemen.png
,,,,,,00036,2023-09-26_17h38.43.610,vbt_B2_day1,2022.2.4,Win32,59.39653124,,,,,,,,,,,,,,,,,,,,,,,,,,,,,,,,,,,,,,,,,,,0.029603352,-0.277383103,1,0,0,va,va,0,31,31,54,1,vijftig,images/br_vijftig.png,images/cb_vijftig.png
,,,,,,00036,2023-09-26_17h38.43.610,vbt_B2_day1,2022.2.4,Win32,59.39653124,,,,,,,,,,,,,,,,,,,,,,,,,,,,,,,,,,,,,,,,,,,0.029603352,-0.277383103,1,0,0,,,0,32,32,17,1,attentie,images/br_attentie.png,images/cb_attentie.png
,,,,,,00036,2023-09-26_17h38.43.610,vbt_B2_day1,2022.2.4,Win32,59.39653124,,,,,,,,,,,,,,,,,,,,,,,,,,,,,,,,,,,,,,,,,,,0.029603352,-0.277383103,1,0,0,bw,bw,0,33,33,25,1,brijk,images/br_brijk.png,images/cb_brijk.png
,,,,,,00036,2023-09-26_17h38.43.610,vbt_B2_day1,2022.2.4,Win32,59.39653124,,,,,,,,,,,,,,,,,,,,,,,,,,,,,,,,,,,,,,,,,,,0.029603352,-0.277383103,1,0,0,baw,baw,0,34,34,7,1,klauw,images/br_klauw.png,images/cb_klauw.png
,,,,,,00036,2023-09-26_17h38.43.610,vbt_B2_day1,2022.2.4,Win32,59.39653124,,,,,,,,,,,,,,,,,,,,,,,,,,,,,,,,,,,,,,,,,,,0.029603352,-0.277383103,1,0,0,t,t,0,35,35,28,1,bebrip,images/br_bebrip.png,images/cb_bebrip.png
,,,,,,00036,2023-09-26_17h38.43.610,vbt_B2_day1,2022.2.4,Win32,59.39653124,,,,,,,,,,,,,,,,,,,,,,,,,,,,,,,,,,,,,,,,,,,0.029603352,-0.277383103,1,0,0,m,m,0,36,36,35,1,stuikem,images/br_stuikem.png,images/cb_stuikem.png
,,,,,,00036,2023-09-26_17h38.43.610,vbt_B2_day1,2022.2.4,Win32,59.39653124,,,,,,,,,,,,,,,,,,,,,,,,,,,,,,,,,,,,,,,,,,,0.029603352,-0.277383103,1,0,0,ava,ava,0,37,37,43,1,lava,images/br_lava.png,images/cb_lava.png
,,,,,,00036,2023-09-26_17h38.43.610,vbt_B2_day1,2022.2.4,Win32,59.39653124,,,,,,,,,,,,,,,,,,,,,,,,,,,,,,,,,,,,,,,,,,,0.029603352,-0.277383103,1,0,0,tot,tot,0,38,38,27,1,prort,images/br_prort.png,images/cb_prort.png
,,,,,,00036,2023-09-26_17h38.43.610,vbt_B2_day1,2022.2.4,Win32,59.39653124,,,,,,,,,,,,,,,,,,,,,,,,,,,,,,,,,,,,,,,,,,,0.029603352,-0.277383103,1,0,0,b,b,0,39,39,48,1,fictie,images/br_fictie.png,images/cb_fictie.png
,,,,,,00036,2023-09-26_17h38.43.610,vbt_B2_day1,2022.2.4,Win32,59.39653124,,,,,,,,,,,,,,,,,,,,,,,,,,,,,,,,,,,,,,,,,,,0.029603352,-0.277383103,1,0,0,myw,myw,0,40,40,10,1,muziek,images/br_muziek.png,images/cb_muziek.png
,,,,,,00036,2023-09-26_17h38.43.610,vbt_B2_day1,2022.2.4,Win32,59.39653124,,,,,,,,,,,,,,,,,,,,,,,,,,,,,,,,,,,,,,,,,,,0.029603352,-0.277383103,1,0,0,bat,bat,0,41,41,8,1,kanjer,images/br_kanjer.png,images/cb_kanjer.png
,,,,,,00036,2023-09-26_17h38.43.610,vbt_B2_day1,2022.2.4,Win32,59.39653124,,,,,,,,,,,,,,,,,,,,,,,,,,,,,,,,,,,,,,,,,,,0.029603352,-0.277383103,1,0,0,fi,fi,0,42,42,38,1,schielen,images/br_schielen.png,images/cb_schielen.png
,,,,,,00036,2023-09-26_17h38.43.610,vbt_B2_day1,2022.2.4,Win32,59.39653124,,,,,,,,,,,,,,,,,,,,,,,,,,,,,,,,,,,,,,,,,,,0.029603352,-0.277383103,1,0,0,hg,hg,0,43,43,55,1,tekenen,images/br_tekenen.png,images/cb_tekenen.png
,,,,,,00036,2023-09-26_17h38.43.610,vbt_B2_day1,2022.2.4,Win32,59.39653124,,,,,,,,,,,,,,,,,,,,,,,,,,,,,,,,,,,,,,,,,,,0.029603352,-0.277383103,1,0,0,ab,ab,0,44,44,11,1,mening,images/br_mening.png,images/cb_mening.png
,,,,,,00036,2023-09-26_17h38.43.610,vbt_B2_day1,2022.2.4,Win32,59.39653124,,,,,,,,,,,,,,,,,,,,,,,,,,,,,,,,,,,,,,,,,,,0.029603352,-0.277383103,1,0,0,at,at,0,45,45,20,1,tars,images/br_tars.png,images/cb_tars.png
,,,,,,00036,2023-09-26_17h38.43.610,vbt_B2_day1,2022.2.4,Win32,59.39653124,,,,,,,,,,,,,,,,,,,,,,,,,,,,,,,,,,,,,,,,,,,0.029603352,-0.277383103,1,0,0,if,if,0,46,46,51,1,liefde,images/br_liefde.png,images/cb_liefde.png
,,,,,,00036,2023-09-26_17h38.43.610,vbt_B2_day1,2022.2.4,Win32,59.39653124,,,,,,,,,,,,,,,,,,,,,,,,,,,,,,,,,,,,,,,,,,,0.029603352,-0.277383103,1,0,0,of,of,0,47,47,56,1,toezicht,images/br_toezicht.png,images/cb_toezicht.png
,,,,,,00036,2023-09-26_17h38.43.610,vbt_B2_day1,2022.2.4,Win32,59.39653124,,,,,,,,,,,,,,,,,,,,,,,,,,,,,,,,,,,,,,,,,,,0.029603352,-0.277383103,1,0,0,b,b,0,48,48,42,1,stuk,images/br_stuk.png,images/cb_stuk.png
,,,,,,00036,2023-09-26_17h38.43.610,vbt_B2_day1,2022.2.4,Win32,59.39653124,,,,,,,,,,,,,,,,,,,,,,,,,,,,,,,,,,,,,,,,,,,0.029603352,-0.277383103,1,0,0,voorr,voorr,0,49,49,39,1,voorreur,images/br_voorreur.png,images/cb_voorreur.png
,,,,,,00036,2023-09-26_17h38.43.610,vbt_B2_day1,2022.2.4,Win32,59.39653124,,,,,,,,,,,,,,,,,,,,,,,,,,,,,,,,,,,,,,,,,,,0.029603352,-0.277383103,1,0,0,f,f,0,50,50,13,1,twijfel,images/br_twijfel.png,images/cb_twijfel.png
,,,,,,00036,2023-09-26_17h38.43.610,vbt_B2_day1,2022.2.4,Win32,59.39653124,,,,,,,,,,,,,,,,,,,,,,,,,,,,,,,,,,,,,,,,,,,0.029603352,-0.277383103,1,0,0,k,k,0,51,51,29,1,genond,images/br_genond.png,images/cb_genond.png
,,,,,,00036,2023-09-26_17h38.43.610,vbt_B2_day1,2022.2.4,Win32,59.39653124,,,,,,,,,,,,,,,,,,,,,,,,,,,,,,,,,,,,,,,,,,,0.029603352,-0.277383103,1,0,0,oo,oo,0,52,52,47,1,loods,images/br_loods.png,images/cb_loods.png
,,,,,,00036,2023-09-26_17h38.43.610,vbt_B2_day1,2022.2.4,Win32,59.39653124,,,,,,,,,,,,,,,,,,,,,,,,,,,,,,,,,,,,,,,,,,,0.029603352,-0.277383103,1,0,0,ry,ry,0,53,53,30,1,reedje,images/br_reedje.png,images/cb_reedje.png
,,,,,,00036,2023-09-26_17h38.43.610,vbt_B2_day1,2022.2.4,Win32,59.39653124,,,,,,,,,,,,,,,,,,,,,,,,,,,,,,,,,,,,,,,,,,,0.029603352,-0.277383103,1,0,0,wy,wy,0,54,54,44,1,wijze,images/br_wijze.png,images/cb_wijze.png
,,,,,,00036,2023-09-26_17h38.43.610,vbt_B2_day1,2022.2.4,Win32,59.39653124,,,,,,,,,,,,,,,,,,,,,,,,,,,,,,,,,,,,,,,,,,,0.029603352,-0.277383103,1,0,0,yr,yr,0,55,55,21,1,dred,images/br_dred.png,images/cb_dred.png
,,,,,,00036,2023-09-26_17h38.43.610,vbt_B2_day1,2022.2.4,Win32,59.39653124,,,,,,,,,,,,,,,,,,,,,,,,,,,,,,,,,,,,,,,,,,,0.029603352,-0.277383103,1,0,0,y  f,y  f,0,56,56,40,1,dief,images/br_dief.png,images/cb_dief.png
,,,,,,00036,2023-09-26_17h38.43.610,vbt_B2_day1,2022.2.4,Win32,59.39653124,,,,,,,,,,,,,,,,,,,,,,,,,,,,,,,,,,,,,,,,,,,0.029603352,-0.277383103,1,0,0,rr,rr,0,57,57,24,1,rezer,images/br_rezer.png,images/cb_rezer.png
,,,,,,00036,2023-09-26_17h38.43.610,vbt_B2_day1,2022.2.4,Win32,59.39653124,,,,,,,,,,,,,,,,,,,,,,,,,,,,,,,,,,,,,,,,,,,0.029603352,-0.277383103,1,0,0,oiaa,oiaa,0,58,58,53,1,opslaan,images/br_opslaan.png,images/cb_opslaan.png
,,,,,,00036,2023-09-26_17h38.43.610,vbt_B2_day1,2022.2.4,Win32,59.39653124,,,,,,,,,,,,,,,,,,,,,,,,,,,,,,,,,,,,,,,,,,,0.029603352,-0.277383103,1,0,0,,,0,59,59,18,1,uitdelen,images/br_uitdelen.png,images/cb_uitdelen.png
,,,,,,00036,2023-09-26_17h38.43.610,vbt_B2_day1,2022.2.4,Win32,59.39653124,,,,,,,,,,,,,,,,,,,,,,,,,,,,,,,,,,,,,,,,,,,,,,,,,,,,,,,,,
