welcome_mouse.x,welcome_mouse.y,welcome_mouse.leftButton,welcome_mouse.midButton,welcome_mouse.rightButton,welcome_mouse.time,"ID",date,expName,psychopyVersion,OS,frameRate,mouse_2.x,mouse_2.y,mouse_2.leftButton,mouse_2.midButton,mouse_2.rightButton,mouse_2.time,mouse_3.x,mouse_3.y,mouse_3.leftButton,mouse_3.midButton,mouse_3.rightButton,mouse_3.time,train_mouse.x,train_mouse.y,train_mouse.leftButton,train_mouse.midButton,train_mouse.rightButton,train_mouse.time,braille_mouse.x,braille_mouse.y,braille_mouse.leftButton,braille_mouse.midButton,braille_mouse.rightButton,braille_mouse.time,trials.thisRepN,trials.thisTrialN,trials.thisN,trials.thisIndex,trials.ran,nlLet,brLet,cbLet,mouse.x,mouse.y,mouse.leftButton,mouse.midButton,mouse.rightButton,testInstr_mouse.x,testInstr_mouse.y,testInstr_mouse.leftButton,testInstr_mouse.midButton,testInstr_mouse.rightButton,test_mouse.x,test_mouse.y,test_mouse.leftButton,test_mouse.midButton,test_mouse.rightButton,test_response.text,testResp,test_loop.thisRepN,test_loop.thisTrialN,test_loop.thisN,test_loop.thisIndex,test_loop.ran,nlWrd,brWrd,cbWrd
-0.155555556,-0.350694444,1,0,0,1.7516,00114,2023-12-07_19h03.34.811,vbt_B2_day1,2022.2.4,Win32,47.41583689,,,,,,,,,,,,,,,,,,,,,,,,,,,,,,,,,,,,,,,,,,,,,,,,,,,,,,,,,
,,,,,,00114,2023-12-07_19h03.34.811,vbt_B2_day1,2022.2.4,Win32,47.41583689,-0.155555556,-0.350694444,1,0,0,1.3077,,,,,,,,,,,,,,,,,,,,,,,,,,,,,,,,,,,,,,,,,,,,,,,,,,,
,,,,,,00114,2023-12-07_19h03.34.811,vbt_B2_day1,2022.2.4,Win32,47.41583689,,,,,,,-0.155555556,-0.350694444,1,0,0,5.3657,,,,,,,,,,,,,,,,,,,,,,,,,,,,,,,,,,,,,,,,,,,,,
,,,,,,00114,2023-12-07_19h03.34.811,vbt_B2_day1,2022.2.4,Win32,47.41583689,,,,,,,,,,,,,-0.217361111,-0.395833333,1,0,0,54.2432,,,,,,,,,,,,,,,,,,,,,,,,,,,,,,,,,,,,,,,
,,,,,,00114,2023-12-07_19h03.34.811,vbt_B2_day1,2022.2.4,Win32,47.41583689,,,,,,,,,,,,,,,,,,,-0.217361111,-0.395833333,1,0,0,2.5005,0,0,0,2,1,c,images/br_c.png,images/cb_c.png,,,,,,,,,,,,,,,,,,,,,,,,,
,,,,,,00114,2023-12-07_19h03.34.811,vbt_B2_day1,2022.2.4,Win32,47.41583689,,,,,,,,,,,,,,,,,,,-0.217361111,-0.395833333,1,0,0,7.0833,0,1,1,12,1,m,images/br_m.png,images/cb_m.png,,,,,,,,,,,,,,,,,,,,,,,,,
,,,,,,00114,2023-12-07_19h03.34.811,vbt_B2_day1,2022.2.4,Win32,47.41583689,,,,,,,,,,,,,,,,,,,-0.217361111,-0.395833333,1,0,0,0.5002,0,2,2,17,1,r,images/br_r.png,images/cb_r.png,,,,,,,,,,,,,,,,,,,,,,,,,
,,,,,,00114,2023-12-07_19h03.34.811,vbt_B2_day1,2022.2.4,Win32,47.41583689,,,,,,,,,,,,,,,,,,,-0.217361111,-0.395833333,1,0,0,3.3127,0,3,3,1,1,b,images/br_b.png,images/cb_b.png,,,,,,,,,,,,,,,,,,,,,,,,,
,,,,,,00114,2023-12-07_19h03.34.811,vbt_B2_day1,2022.2.4,Win32,47.41583689,,,,,,,,,,,,,,,,,,,-0.217361111,-0.395833333,1,0,0,1.7087,0,4,4,6,1,g,images/br_g.png,images/cb_g.png,,,,,,,,,,,,,,,,,,,,,,,,,
,,,,,,00114,2023-12-07_19h03.34.811,vbt_B2_day1,2022.2.4,Win32,47.41583689,,,,,,,,,,,,,,,,,,,-0.217361111,-0.395833333,1,0,0,0.2079,0,5,5,25,1,z,images/br_z.png,images/cb_z.png,,,,,,,,,,,,,,,,,,,,,,,,,
,,,,,,00114,2023-12-07_19h03.34.811,vbt_B2_day1,2022.2.4,Win32,47.41583689,,,,,,,,,,,,,,,,,,,-0.217361111,-0.395833333,1,0,0,0.2084,0,6,6,11,1,l,images/br_l.png,images/cb_l.png,,,,,,,,,,,,,,,,,,,,,,,,,
,,,,,,00114,2023-12-07_19h03.34.811,vbt_B2_day1,2022.2.4,Win32,47.41583689,,,,,,,,,,,,,,,,,,,-0.217361111,-0.395833333,1,0,0,0.8125,0,7,7,24,1,y,images/br_y.png,images/cb_y.png,,,,,,,,,,,,,,,,,,,,,,,,,
,,,,,,00114,2023-12-07_19h03.34.811,vbt_B2_day1,2022.2.4,Win32,47.41583689,,,,,,,,,,,,,,,,,,,-0.217361111,-0.395833333,1,0,0,1.6031,0,8,8,7,1,h,images/br_h.png,images/cb_h.png,,,,,,,,,,,,,,,,,,,,,,,,,
,,,,,,00114,2023-12-07_19h03.34.811,vbt_B2_day1,2022.2.4,Win32,47.41583689,,,,,,,,,,,,,,,,,,,-0.217361111,-0.395833333,1,0,0,1.9165,0,9,9,15,1,p,images/br_p.png,images/cb_p.png,,,,,,,,,,,,,,,,,,,,,,,,,
,,,,,,00114,2023-12-07_19h03.34.811,vbt_B2_day1,2022.2.4,Win32,47.41583689,,,,,,,,,,,,,,,,,,,-0.217361111,-0.395833333,1,0,0,3.3118,0,10,10,4,1,e,images/br_e.png,images/cb_e.png,,,,,,,,,,,,,,,,,,,,,,,,,
,,,,,,00114,2023-12-07_19h03.34.811,vbt_B2_day1,2022.2.4,Win32,47.41583689,,,,,,,,,,,,,,,,,,,-0.217361111,-0.395833333,1,0,0,6.4587,0,11,11,18,1,s,images/br_s.png,images/cb_s.png,,,,,,,,,,,,,,,,,,,,,,,,,
,,,,,,00114,2023-12-07_19h03.34.811,vbt_B2_day1,2022.2.4,Win32,47.41583689,,,,,,,,,,,,,,,,,,,-0.217361111,-0.395833333,1,0,0,2.4583,0,12,12,21,1,v,images/br_v.png,images/cb_v.png,,,,,,,,,,,,,,,,,,,,,,,,,
,,,,,,00114,2023-12-07_19h03.34.811,vbt_B2_day1,2022.2.4,Win32,47.41583689,,,,,,,,,,,,,,,,,,,-0.217361111,-0.395833333,1,0,0,0.3544,0,13,13,22,1,w,images/br_w.png,images/cb_w.png,,,,,,,,,,,,,,,,,,,,,,,,,
,,,,,,00114,2023-12-07_19h03.34.811,vbt_B2_day1,2022.2.4,Win32,47.41583689,,,,,,,,,,,,,,,,,,,-0.217361111,-0.395833333,1,0,0,0.3961,0,14,14,23,1,x,images/br_x.png,images/cb_x.png,,,,,,,,,,,,,,,,,,,,,,,,,
,,,,,,00114,2023-12-07_19h03.34.811,vbt_B2_day1,2022.2.4,Win32,47.41583689,,,,,,,,,,,,,,,,,,,-0.217361111,-0.395833333,1,0,0,2.937,0,15,15,19,1,t,images/br_t.png,images/cb_t.png,,,,,,,,,,,,,,,,,,,,,,,,,
,,,,,,00114,2023-12-07_19h03.34.811,vbt_B2_day1,2022.2.4,Win32,47.41583689,,,,,,,,,,,,,,,,,,,-0.217361111,-0.395833333,1,0,0,0.5213,0,16,16,9,1,j,images/br_j.png,images/cb_j.png,,,,,,,,,,,,,,,,,,,,,,,,,
,,,,,,00114,2023-12-07_19h03.34.811,vbt_B2_day1,2022.2.4,Win32,47.41583689,,,,,,,,,,,,,,,,,,,-0.217361111,-0.395833333,1,0,0,1.6049,0,17,17,10,1,k,images/br_k.png,images/cb_k.png,,,,,,,,,,,,,,,,,,,,,,,,,
,,,,,,00114,2023-12-07_19h03.34.811,vbt_B2_day1,2022.2.4,Win32,47.41583689,,,,,,,,,,,,,,,,,,,-0.217361111,-0.395833333,1,0,0,0.8543,0,18,18,0,1,a,images/br_a.png,images/cb_a.png,,,,,,,,,,,,,,,,,,,,,,,,,
,,,,,,00114,2023-12-07_19h03.34.811,vbt_B2_day1,2022.2.4,Win32,47.41583689,,,,,,,,,,,,,,,,,,,-0.217361111,-0.395833333,1,0,0,0.6664,0,19,19,3,1,d,images/br_d.png,images/cb_d.png,,,,,,,,,,,,,,,,,,,,,,,,,
,,,,,,00114,2023-12-07_19h03.34.811,vbt_B2_day1,2022.2.4,Win32,47.41583689,,,,,,,,,,,,,,,,,,,-0.217361111,-0.395833333,1,0,0,1.4584,0,20,20,8,1,i,images/br_i.png,images/cb_i.png,,,,,,,,,,,,,,,,,,,,,,,,,
,,,,,,00114,2023-12-07_19h03.34.811,vbt_B2_day1,2022.2.4,Win32,47.41583689,,,,,,,,,,,,,,,,,,,-0.217361111,-0.395833333,1,0,0,12.771,0,21,21,20,1,u,images/br_u.png,images/cb_u.png,,,,,,,,,,,,,,,,,,,,,,,,,
,,,,,,00114,2023-12-07_19h03.34.811,vbt_B2_day1,2022.2.4,Win32,47.41583689,,,,,,,,,,,,,,,,,,,-0.217361111,-0.395833333,1,0,0,0.8543,0,22,22,14,1,o,images/br_o.png,images/cb_o.png,,,,,,,,,,,,,,,,,,,,,,,,,
,,,,,,00114,2023-12-07_19h03.34.811,vbt_B2_day1,2022.2.4,Win32,47.41583689,,,,,,,,,,,,,,,,,,,-0.217361111,-0.395833333,1,0,0,7.7084,0,23,23,13,1,n,images/br_n.png,images/cb_n.png,,,,,,,,,,,,,,,,,,,,,,,,,
,,,,,,00114,2023-12-07_19h03.34.811,vbt_B2_day1,2022.2.4,Win32,47.41583689,,,,,,,,,,,,,,,,,,,-0.217361111,-0.395833333,1,0,0,0.6465,0,24,24,16,1,q,images/br_q.png,images/cb_q.png,,,,,,,,,,,,,,,,,,,,,,,,,
,,,,,,00114,2023-12-07_19h03.34.811,vbt_B2_day1,2022.2.4,Win32,47.41583689,,,,,,,,,,,,,,,,,,,-0.217361111,-0.395833333,1,0,0,1.3955,0,25,25,5,1,f,images/br_f.png,images/cb_f.png,,,,,,,,,,,,,,,,,,,,,,,,,
,,,,,,00114,2023-12-07_19h03.34.811,vbt_B2_day1,2022.2.4,Win32,47.41583689,,,,,,,,,,,,,,,,,,,-0.217361111,-0.395833333,1,0,0,0.6682,1,0,26,13,1,n,images/br_n.png,images/cb_n.png,,,,,,,,,,,,,,,,,,,,,,,,,
,,,,,,00114,2023-12-07_19h03.34.811,vbt_B2_day1,2022.2.4,Win32,47.41583689,,,,,,,,,,,,,,,,,,,-0.217361111,-0.395833333,1,0,0,0.9587,1,1,27,22,1,w,images/br_w.png,images/cb_w.png,,,,,,,,,,,,,,,,,,,,,,,,,
,,,,,,00114,2023-12-07_19h03.34.811,vbt_B2_day1,2022.2.4,Win32,47.41583689,,,,,,,,,,,,,,,,,,,-0.217361111,-0.395833333,1,0,0,0.5418,1,2,28,9,1,j,images/br_j.png,images/cb_j.png,,,,,,,,,,,,,,,,,,,,,,,,,
,,,,,,00114,2023-12-07_19h03.34.811,vbt_B2_day1,2022.2.4,Win32,47.41583689,,,,,,,,,,,,,,,,,,,-0.217361111,-0.395833333,1,0,0,0.5636,1,3,29,0,1,a,images/br_a.png,images/cb_a.png,,,,,,,,,,,,,,,,,,,,,,,,,
,,,,,,00114,2023-12-07_19h03.34.811,vbt_B2_day1,2022.2.4,Win32,47.41583689,,,,,,,,,,,,,,,,,,,-0.217361111,-0.395833333,1,0,0,6.6874,1,4,30,3,1,d,images/br_d.png,images/cb_d.png,,,,,,,,,,,,,,,,,,,,,,,,,
,,,,,,00114,2023-12-07_19h03.34.811,vbt_B2_day1,2022.2.4,Win32,47.41583689,,,,,,,,,,,,,,,,,,,-0.217361111,-0.395833333,1,0,0,0.5422,1,5,31,23,1,x,images/br_x.png,images/cb_x.png,,,,,,,,,,,,,,,,,,,,,,,,,
,,,,,,00114,2023-12-07_19h03.34.811,vbt_B2_day1,2022.2.4,Win32,47.41583689,,,,,,,,,,,,,,,,,,,-0.217361111,-0.395833333,1,0,0,0.4293,1,6,32,7,1,h,images/br_h.png,images/cb_h.png,,,,,,,,,,,,,,,,,,,,,,,,,
,,,,,,00114,2023-12-07_19h03.34.811,vbt_B2_day1,2022.2.4,Win32,47.41583689,,,,,,,,,,,,,,,,,,,-0.217361111,-0.395833333,1,0,0,0.1667,1,7,33,14,1,o,images/br_o.png,images/cb_o.png,,,,,,,,,,,,,,,,,,,,,,,,,
,,,,,,00114,2023-12-07_19h03.34.811,vbt_B2_day1,2022.2.4,Win32,47.41583689,,,,,,,,,,,,,,,,,,,-0.217361111,-0.395833333,1,0,0,4.2083,1,8,34,12,1,m,images/br_m.png,images/cb_m.png,,,,,,,,,,,,,,,,,,,,,,,,,
,,,,,,00114,2023-12-07_19h03.34.811,vbt_B2_day1,2022.2.4,Win32,47.41583689,,,,,,,,,,,,,,,,,,,-0.217361111,-0.395833333,1,0,0,2.2085,1,9,35,4,1,e,images/br_e.png,images/cb_e.png,,,,,,,,,,,,,,,,,,,,,,,,,
,,,,,,00114,2023-12-07_19h03.34.811,vbt_B2_day1,2022.2.4,Win32,47.41583689,,,,,,,,,,,,,,,,,,,-0.217361111,-0.395833333,1,0,0,0.5624,1,10,36,10,1,k,images/br_k.png,images/cb_k.png,,,,,,,,,,,,,,,,,,,,,,,,,
,,,,,,00114,2023-12-07_19h03.34.811,vbt_B2_day1,2022.2.4,Win32,47.41583689,,,,,,,,,,,,,,,,,,,-0.217361111,-0.395833333,1,0,0,3.1462,1,11,37,8,1,i,images/br_i.png,images/cb_i.png,,,,,,,,,,,,,,,,,,,,,,,,,
,,,,,,00114,2023-12-07_19h03.34.811,vbt_B2_day1,2022.2.4,Win32,47.41583689,,,,,,,,,,,,,,,,,,,-0.217361111,-0.395833333,1,0,0,2.2501,1,12,38,1,1,b,images/br_b.png,images/cb_b.png,,,,,,,,,,,,,,,,,,,,,,,,,
,,,,,,00114,2023-12-07_19h03.34.811,vbt_B2_day1,2022.2.4,Win32,47.41583689,,,,,,,,,,,,,,,,,,,-0.217361111,-0.395833333,1,0,0,3.709,1,13,39,24,1,y,images/br_y.png,images/cb_y.png,,,,,,,,,,,,,,,,,,,,,,,,,
,,,,,,00114,2023-12-07_19h03.34.811,vbt_B2_day1,2022.2.4,Win32,47.41583689,,,,,,,,,,,,,,,,,,,-0.217361111,-0.395833333,1,0,0,1.0211,1,14,40,20,1,u,images/br_u.png,images/cb_u.png,,,,,,,,,,,,,,,,,,,,,,,,,
,,,,,,00114,2023-12-07_19h03.34.811,vbt_B2_day1,2022.2.4,Win32,47.41583689,,,,,,,,,,,,,,,,,,,-0.217361111,-0.395833333,1,0,0,2.8335,1,15,41,25,1,z,images/br_z.png,images/cb_z.png,,,,,,,,,,,,,,,,,,,,,,,,,
,,,,,,00114,2023-12-07_19h03.34.811,vbt_B2_day1,2022.2.4,Win32,47.41583689,,,,,,,,,,,,,,,,,,,-0.217361111,-0.395833333,1,0,0,0.9371,1,16,42,16,1,q,images/br_q.png,images/cb_q.png,,,,,,,,,,,,,,,,,,,,,,,,,
,,,,,,00114,2023-12-07_19h03.34.811,vbt_B2_day1,2022.2.4,Win32,47.41583689,,,,,,,,,,,,,,,,,,,-0.217361111,-0.395833333,1,0,0,2.0458,1,17,43,6,1,g,images/br_g.png,images/cb_g.png,,,,,,,,,,,,,,,,,,,,,,,,,
,,,,,,00114,2023-12-07_19h03.34.811,vbt_B2_day1,2022.2.4,Win32,47.41583689,,,,,,,,,,,,,,,,,,,-0.217361111,-0.395833333,1,0,0,0.8118,1,18,44,5,1,f,images/br_f.png,images/cb_f.png,,,,,,,,,,,,,,,,,,,,,,,,,
,,,,,,00114,2023-12-07_19h03.34.811,vbt_B2_day1,2022.2.4,Win32,47.41583689,,,,,,,,,,,,,,,,,,,-0.217361111,-0.395833333,1,0,0,0.1551,1,19,45,19,1,t,images/br_t.png,images/cb_t.png,,,,,,,,,,,,,,,,,,,,,,,,,
,,,,,,00114,2023-12-07_19h03.34.811,vbt_B2_day1,2022.2.4,Win32,47.41583689,,,,,,,,,,,,,,,,,,,-0.217361111,-0.395833333,1,0,0,0.6257,1,20,46,15,1,p,images/br_p.png,images/cb_p.png,,,,,,,,,,,,,,,,,,,,,,,,,
,,,,,,00114,2023-12-07_19h03.34.811,vbt_B2_day1,2022.2.4,Win32,47.41583689,,,,,,,,,,,,,,,,,,,-0.217361111,-0.395833333,1,0,0,24.7498,1,21,47,17,1,r,images/br_r.png,images/cb_r.png,,,,,,,,,,,,,,,,,,,,,,,,,
,,,,,,00114,2023-12-07_19h03.34.811,vbt_B2_day1,2022.2.4,Win32,47.41583689,,,,,,,,,,,,,,,,,,,-0.217361111,-0.395833333,1,0,0,0.667,1,22,48,11,1,l,images/br_l.png,images/cb_l.png,,,,,,,,,,,,,,,,,,,,,,,,,
,,,,,,00114,2023-12-07_19h03.34.811,vbt_B2_day1,2022.2.4,Win32,47.41583689,,,,,,,,,,,,,,,,,,,-0.217361111,-0.395833333,1,0,0,0.1042,1,23,49,21,1,v,images/br_v.png,images/cb_v.png,,,,,,,,,,,,,,,,,,,,,,,,,
,,,,,,00114,2023-12-07_19h03.34.811,vbt_B2_day1,2022.2.4,Win32,47.41583689,,,,,,,,,,,,,,,,,,,-0.217361111,-0.395833333,1,0,0,1.7294,1,24,50,2,1,c,images/br_c.png,images/cb_c.png,,,,,,,,,,,,,,,,,,,,,,,,,
,,,,,,00114,2023-12-07_19h03.34.811,vbt_B2_day1,2022.2.4,Win32,47.41583689,,,,,,,,,,,,,,,,,,,-0.217361111,-0.395833333,1,0,0,1.8332,1,25,51,18,1,s,images/br_s.png,images/cb_s.png,,,,,,,,,,,,,,,,,,,,,,,,,
,,,,,,00114,2023-12-07_19h03.34.811,vbt_B2_day1,2022.2.4,Win32,47.41583689,,,,,,,,,,,,,,,,,,,-0.021527778,-0.214583333,1,0,0,0.8126,2,0,52,2,1,c,images/br_c.png,images/cb_c.png,,,,,,,,,,,,,,,,,,,,,,,,,
,,,,,,00114,2023-12-07_19h03.34.811,vbt_B2_day1,2022.2.4,Win32,47.41583689,,,,,,,,,,,,,,,,,,,-0.020138889,-0.352777778,1,0,0,2.0204,2,1,53,10,1,k,images/br_k.png,images/cb_k.png,,,,,,,,,,,,,,,,,,,,,,,,,
,,,,,,00114,2023-12-07_19h03.34.811,vbt_B2_day1,2022.2.4,Win32,47.41583689,,,,,,,,,,,,,,,,,,,-0.002083333,-0.290972222,1,0,0,0.6458,2,2,54,22,1,w,images/br_w.png,images/cb_w.png,,,,,,,,,,,,,,,,,,,,,,,,,
,,,,,,00114,2023-12-07_19h03.34.811,vbt_B2_day1,2022.2.4,Win32,47.41583689,,,,,,,,,,,,,,,,,,,-0.059027778,-0.359027778,1,0,0,2.0414,2,3,55,23,1,x,images/br_x.png,images/cb_x.png,,,,,,,,,,,,,,,,,,,,,,,,,
,,,,,,00114,2023-12-07_19h03.34.811,vbt_B2_day1,2022.2.4,Win32,47.41583689,,,,,,,,,,,,,,,,,,,-0.059027778,-0.359027778,1,0,0,5.6465,2,4,56,5,1,f,images/br_f.png,images/cb_f.png,,,,,,,,,,,,,,,,,,,,,,,,,
,,,,,,00114,2023-12-07_19h03.34.811,vbt_B2_day1,2022.2.4,Win32,47.41583689,,,,,,,,,,,,,,,,,,,-0.059027778,-0.293055556,1,0,0,0.7917,2,5,57,17,1,r,images/br_r.png,images/cb_r.png,,,,,,,,,,,,,,,,,,,,,,,,,
,,,,,,00114,2023-12-07_19h03.34.811,vbt_B2_day1,2022.2.4,Win32,47.41583689,,,,,,,,,,,,,,,,,,,-0.059027778,-0.293055556,1,0,0,0.5416,2,6,58,1,1,b,images/br_b.png,images/cb_b.png,,,,,,,,,,,,,,,,,,,,,,,,,
,,,,,,00114,2023-12-07_19h03.34.811,vbt_B2_day1,2022.2.4,Win32,47.41583689,,,,,,,,,,,,,,,,,,,-0.059027778,-0.293055556,1,0,0,0.1044,2,7,59,19,1,t,images/br_t.png,images/cb_t.png,,,,,,,,,,,,,,,,,,,,,,,,,
,,,,,,00114,2023-12-07_19h03.34.811,vbt_B2_day1,2022.2.4,Win32,47.41583689,,,,,,,,,,,,,,,,,,,-0.009027778,-0.286111111,1,0,0,0.3128,2,8,60,0,1,a,images/br_a.png,images/cb_a.png,,,,,,,,,,,,,,,,,,,,,,,,,
,,,,,,00114,2023-12-07_19h03.34.811,vbt_B2_day1,2022.2.4,Win32,47.41583689,,,,,,,,,,,,,,,,,,,-0.035416667,-0.388194444,1,0,0,3.8124,2,9,61,15,1,p,images/br_p.png,images/cb_p.png,,,,,,,,,,,,,,,,,,,,,,,,,
,,,,,,00114,2023-12-07_19h03.34.811,vbt_B2_day1,2022.2.4,Win32,47.41583689,,,,,,,,,,,,,,,,,,,-0.035416667,-0.388194444,1,0,0,2.896,2,10,62,3,1,d,images/br_d.png,images/cb_d.png,,,,,,,,,,,,,,,,,,,,,,,,,
,,,,,,00114,2023-12-07_19h03.34.811,vbt_B2_day1,2022.2.4,Win32,47.41583689,,,,,,,,,,,,,,,,,,,-0.035416667,-0.388194444,1,0,0,2.2498,2,11,63,18,1,s,images/br_s.png,images/cb_s.png,,,,,,,,,,,,,,,,,,,,,,,,,
,,,,,,00114,2023-12-07_19h03.34.811,vbt_B2_day1,2022.2.4,Win32,47.41583689,,,,,,,,,,,,,,,,,,,-0.035416667,-0.388194444,1,0,0,0.4991,2,12,64,4,1,e,images/br_e.png,images/cb_e.png,,,,,,,,,,,,,,,,,,,,,,,,,
,,,,,,00114,2023-12-07_19h03.34.811,vbt_B2_day1,2022.2.4,Win32,47.41583689,,,,,,,,,,,,,,,,,,,-0.035416667,-0.388194444,1,0,0,0.3334,2,13,65,24,1,y,images/br_y.png,images/cb_y.png,,,,,,,,,,,,,,,,,,,,,,,,,
,,,,,,00114,2023-12-07_19h03.34.811,vbt_B2_day1,2022.2.4,Win32,47.41583689,,,,,,,,,,,,,,,,,,,-0.035416667,-0.388194444,1,0,0,0.208,2,14,66,11,1,l,images/br_l.png,images/cb_l.png,,,,,,,,,,,,,,,,,,,,,,,,,
,,,,,,00114,2023-12-07_19h03.34.811,vbt_B2_day1,2022.2.4,Win32,47.41583689,,,,,,,,,,,,,,,,,,,-0.035416667,-0.388194444,1,0,0,4.6254,2,15,67,6,1,g,images/br_g.png,images/cb_g.png,,,,,,,,,,,,,,,,,,,,,,,,,
,,,,,,00114,2023-12-07_19h03.34.811,vbt_B2_day1,2022.2.4,Win32,47.41583689,,,,,,,,,,,,,,,,,,,-0.035416667,-0.388194444,1,0,0,0.2083,2,16,68,14,1,o,images/br_o.png,images/cb_o.png,,,,,,,,,,,,,,,,,,,,,,,,,
,,,,,,00114,2023-12-07_19h03.34.811,vbt_B2_day1,2022.2.4,Win32,47.41583689,,,,,,,,,,,,,,,,,,,-0.035416667,-0.388194444,1,0,0,0.7082,2,17,69,13,1,n,images/br_n.png,images/cb_n.png,,,,,,,,,,,,,,,,,,,,,,,,,
,,,,,,00114,2023-12-07_19h03.34.811,vbt_B2_day1,2022.2.4,Win32,47.41583689,,,,,,,,,,,,,,,,,,,-0.035416667,-0.388194444,1,0,0,0.4172,2,18,70,8,1,i,images/br_i.png,images/cb_i.png,,,,,,,,,,,,,,,,,,,,,,,,,
,,,,,,00114,2023-12-07_19h03.34.811,vbt_B2_day1,2022.2.4,Win32,47.41583689,,,,,,,,,,,,,,,,,,,-0.035416667,-0.388194444,1,0,0,0.1038,2,19,71,7,1,h,images/br_h.png,images/cb_h.png,,,,,,,,,,,,,,,,,,,,,,,,,
,,,,,,00114,2023-12-07_19h03.34.811,vbt_B2_day1,2022.2.4,Win32,47.41583689,,,,,,,,,,,,,,,,,,,-0.035416667,-0.388194444,1,0,0,0.5207,2,20,72,12,1,m,images/br_m.png,images/cb_m.png,,,,,,,,,,,,,,,,,,,,,,,,,
,,,,,,00114,2023-12-07_19h03.34.811,vbt_B2_day1,2022.2.4,Win32,47.41583689,,,,,,,,,,,,,,,,,,,-0.035416667,-0.388194444,1,0,0,4.2707,2,21,73,21,1,v,images/br_v.png,images/cb_v.png,,,,,,,,,,,,,,,,,,,,,,,,,
,,,,,,00114,2023-12-07_19h03.34.811,vbt_B2_day1,2022.2.4,Win32,47.41583689,,,,,,,,,,,,,,,,,,,-0.035416667,-0.388194444,1,0,0,0.5621,2,22,74,16,1,q,images/br_q.png,images/cb_q.png,,,,,,,,,,,,,,,,,,,,,,,,,
,,,,,,00114,2023-12-07_19h03.34.811,vbt_B2_day1,2022.2.4,Win32,47.41583689,,,,,,,,,,,,,,,,,,,0.200525394,-0.222416813,1,0,0,13.8546,2,23,75,25,1,z,images/br_z.png,images/cb_z.png,,,,,,,,,,,,,,,,,,,,,,,,,
,,,,,,00114,2023-12-07_19h03.34.811,vbt_B2_day1,2022.2.4,Win32,47.41583689,,,,,,,,,,,,,,,,,,,0.200525394,-0.222416813,1,0,0,2.2501,2,24,76,20,1,u,images/br_u.png,images/cb_u.png,,,,,,,,,,,,,,,,,,,,,,,,,
,,,,,,00114,2023-12-07_19h03.34.811,vbt_B2_day1,2022.2.4,Win32,47.41583689,,,,,,,,,,,,,,,,,,,0.098949212,-0.267950963,1,0,0,0.8549,2,25,77,9,1,j,images/br_j.png,images/cb_j.png,,,,,,,,,,,,,,,,,,,,,,,,,
,,,,,,00114,2023-12-07_19h03.34.811,vbt_B2_day1,2022.2.4,Win32,47.41583689,,,,,,,,,,,,,,,,,,,0.098949212,-0.267950963,1,0,0,0.3339,3,0,78,16,1,q,images/br_q.png,images/cb_q.png,,,,,,,,,,,,,,,,,,,,,,,,,
,,,,,,00114,2023-12-07_19h03.34.811,vbt_B2_day1,2022.2.4,Win32,47.41583689,,,,,,,,,,,,,,,,,,,0.126970228,-0.301225919,1,0,0,0.146,3,1,79,13,1,n,images/br_n.png,images/cb_n.png,,,,,,,,,,,,,,,,,,,,,,,,,
,,,,,,00114,2023-12-07_19h03.34.811,vbt_B2_day1,2022.2.4,Win32,47.41583689,,,,,,,,,,,,,,,,,,,0.060420315,-0.313485114,1,0,0,0.4584,3,2,80,18,1,s,images/br_s.png,images/cb_s.png,,,,,,,,,,,,,,,,,,,,,,,,,
,,,,,,00114,2023-12-07_19h03.34.811,vbt_B2_day1,2022.2.4,Win32,47.41583689,,,,,,,,,,,,,,,,,,,0.191768827,-0.301225919,1,0,0,0.0417,3,3,81,4,1,e,images/br_e.png,images/cb_e.png,,,,,,,,,,,,,,,,,,,,,,,,,
,,,,,,00114,2023-12-07_19h03.34.811,vbt_B2_day1,2022.2.4,Win32,47.41583689,,,,,,,,,,,,,,,,,,,0.191768827,-0.301225919,1,0,0,3.3329,3,4,82,5,1,f,images/br_f.png,images/cb_f.png,,,,,,,,,,,,,,,,,,,,,,,,,
,,,,,,00114,2023-12-07_19h03.34.811,vbt_B2_day1,2022.2.4,Win32,47.41583689,,,,,,,,,,,,,,,,,,,0.079684764,-0.272329247,1,0,0,0.9582,3,5,83,1,1,b,images/br_b.png,images/cb_b.png,,,,,,,,,,,,,,,,,,,,,,,,,
,,,,,,00114,2023-12-07_19h03.34.811,vbt_B2_day1,2022.2.4,Win32,47.41583689,,,,,,,,,,,,,,,,,,,0.079684764,-0.272329247,1,0,0,5.6048,3,6,84,15,1,p,images/br_p.png,images/cb_p.png,,,,,,,,,,,,,,,,,,,,,,,,,
,,,,,,00114,2023-12-07_19h03.34.811,vbt_B2_day1,2022.2.4,Win32,47.41583689,,,,,,,,,,,,,,,,,,,0.140980736,-0.277583187,1,0,0,0.7497,3,7,85,8,1,i,images/br_i.png,images/cb_i.png,,,,,,,,,,,,,,,,,,,,,,,,,
,,,,,,00114,2023-12-07_19h03.34.811,vbt_B2_day1,2022.2.4,Win32,47.41583689,,,,,,,,,,,,,,,,,,,0.140980736,-0.277583187,1,0,0,2.354,3,8,86,17,1,r,images/br_r.png,images/cb_r.png,,,,,,,,,,,,,,,,,,,,,,,,,
,,,,,,00114,2023-12-07_19h03.34.811,vbt_B2_day1,2022.2.4,Win32,47.41583689,,,,,,,,,,,,,,,,,,,0.183012259,-0.289842382,1,0,0,0.5,3,9,87,19,1,t,images/br_t.png,images/cb_t.png,,,,,,,,,,,,,,,,,,,,,,,,,
,,,,,,00114,2023-12-07_19h03.34.811,vbt_B2_day1,2022.2.4,Win32,47.41583689,,,,,,,,,,,,,,,,,,,0.119964974,-0.333625219,1,0,0,0.3753,3,10,88,12,1,m,images/br_m.png,images/cb_m.png,,,,,,,,,,,,,,,,,,,,,,,,,
,,,,,,00114,2023-12-07_19h03.34.811,vbt_B2_day1,2022.2.4,Win32,47.41583689,,,,,,,,,,,,,,,,,,,0.119964974,-0.333625219,1,0,0,1.7917,3,11,89,24,1,y,images/br_y.png,images/cb_y.png,,,,,,,,,,,,,,,,,,,,,,,,,
,,,,,,00114,2023-12-07_19h03.34.811,vbt_B2_day1,2022.2.4,Win32,47.41583689,,,,,,,,,,,,,,,,,,,0.140980736,-0.255691769,1,0,0,0.1871,3,12,90,14,1,o,images/br_o.png,images/cb_o.png,,,,,,,,,,,,,,,,,,,,,,,,,
,,,,,,00114,2023-12-07_19h03.34.811,vbt_B2_day1,2022.2.4,Win32,47.41583689,,,,,,,,,,,,,,,,,,,0.140980736,-0.255691769,1,0,0,0.2917,3,13,91,22,1,w,images/br_w.png,images/cb_w.png,,,,,,,,,,,,,,,,,,,,,,,,,
,,,,,,00114,2023-12-07_19h03.34.811,vbt_B2_day1,2022.2.4,Win32,47.41583689,,,,,,,,,,,,,,,,,,,0.140980736,-0.255691769,1,0,0,2,3,14,92,23,1,x,images/br_x.png,images/cb_x.png,,,,,,,,,,,,,,,,,,,,,,,,,
,,,,,,00114,2023-12-07_19h03.34.811,vbt_B2_day1,2022.2.4,Win32,47.41583689,,,,,,,,,,,,,,,,,,,0.140980736,-0.255691769,1,0,0,0.2082,3,15,93,11,1,l,images/br_l.png,images/cb_l.png,,,,,,,,,,,,,,,,,,,,,,,,,
,,,,,,00114,2023-12-07_19h03.34.811,vbt_B2_day1,2022.2.4,Win32,47.41583689,,,,,,,,,,,,,,,,,,,0.059544658,-0.345884413,1,0,0,0.6459,3,16,94,0,1,a,images/br_a.png,images/cb_a.png,,,,,,,,,,,,,,,,,,,,,,,,,
,,,,,,00114,2023-12-07_19h03.34.811,vbt_B2_day1,2022.2.4,Win32,47.41583689,,,,,,,,,,,,,,,,,,,0.059544658,-0.345884413,1,0,0,2.6878,3,17,95,10,1,k,images/br_k.png,images/cb_k.png,,,,,,,,,,,,,,,,,,,,,,,,,
,,,,,,00114,2023-12-07_19h03.34.811,vbt_B2_day1,2022.2.4,Win32,47.41583689,,,,,,,,,,,,,,,,,,,0.11295972,-0.317863398,1,0,0,0.1666,3,18,96,2,1,c,images/br_c.png,images/cb_c.png,,,,,,,,,,,,,,,,,,,,,,,,,
,,,,,,00114,2023-12-07_19h03.34.811,vbt_B2_day1,2022.2.4,Win32,47.41583689,,,,,,,,,,,,,,,,,,,-0.027145359,-0.429947461,1,0,0,0.4166,3,19,97,21,1,v,images/br_v.png,images/cb_v.png,,,,,,,,,,,,,,,,,,,,,,,,,
,,,,,,00114,2023-12-07_19h03.34.811,vbt_B2_day1,2022.2.4,Win32,47.41583689,,,,,,,,,,,,,,,,,,,0.167250438,-0.309982487,1,0,0,0.2494,3,20,98,6,1,g,images/br_g.png,images/cb_g.png,,,,,,,,,,,,,,,,,,,,,,,,,
,,,,,,00114,2023-12-07_19h03.34.811,vbt_B2_day1,2022.2.4,Win32,47.41583689,,,,,,,,,,,,,,,,,,,0.167250438,-0.309982487,1,0,0,1.479,3,21,99,9,1,j,images/br_j.png,images/cb_j.png,,,,,,,,,,,,,,,,,,,,,,,,,
,,,,,,00114,2023-12-07_19h03.34.811,vbt_B2_day1,2022.2.4,Win32,47.41583689,,,,,,,,,,,,,,,,,,,0.04290718,-0.3441331,1,0,0,0.2495,3,22,100,3,1,d,images/br_d.png,images/cb_d.png,,,,,,,,,,,,,,,,,,,,,,,,,
,,,,,,00114,2023-12-07_19h03.34.811,vbt_B2_day1,2022.2.4,Win32,47.41583689,,,,,,,,,,,,,,,,,,,0.04290718,-0.3441331,1,0,0,2.7298,3,23,101,7,1,h,images/br_h.png,images/cb_h.png,,,,,,,,,,,,,,,,,,,,,,,,,
,,,,,,00114,2023-12-07_19h03.34.811,vbt_B2_day1,2022.2.4,Win32,47.41583689,,,,,,,,,,,,,,,,,,,0.04290718,-0.3441331,1,0,0,0.9581,3,24,102,25,1,z,images/br_z.png,images/cb_z.png,,,,,,,,,,,,,,,,,,,,,,,,,
,,,,,,00114,2023-12-07_19h03.34.811,vbt_B2_day1,2022.2.4,Win32,47.41583689,,,,,,,,,,,,,,,,,,,0.04290718,-0.3441331,1,0,0,0.7082,3,25,103,20,1,u,images/br_u.png,images/cb_u.png,,,,,,,,,,,,,,,,,,,,,,,,,
,,,,,,00114,2023-12-07_19h03.34.811,vbt_B2_day1,2022.2.4,Win32,47.41583689,,,,,,,,,,,,,,,,,,,0.04290718,-0.3441331,1,0,0,1.6249,4,0,104,2,1,c,images/br_c.png,images/cb_c.png,,,,,,,,,,,,,,,,,,,,,,,,,
,,,,,,00114,2023-12-07_19h03.34.811,vbt_B2_day1,2022.2.4,Win32,47.41583689,,,,,,,,,,,,,,,,,,,0.189141856,-0.292469352,1,0,0,0.0209,4,1,105,3,1,d,images/br_d.png,images/cb_d.png,,,,,,,,,,,,,,,,,,,,,,,,,
,,,,,,00114,2023-12-07_19h03.34.811,vbt_B2_day1,2022.2.4,Win32,47.41583689,,,,,,,,,,,,,,,,,,,0.189141856,-0.292469352,1,0,0,0.2505,4,2,106,24,1,y,images/br_y.png,images/cb_y.png,,,,,,,,,,,,,,,,,,,,,,,,,
,,,,,,00114,2023-12-07_19h03.34.811,vbt_B2_day1,2022.2.4,Win32,47.41583689,,,,,,,,,,,,,,,,,,,0.185639229,-0.284588441,1,0,0,0.792,4,3,107,23,1,x,images/br_x.png,images/cb_x.png,,,,,,,,,,,,,,,,,,,,,,,,,
,,,,,,00114,2023-12-07_19h03.34.811,vbt_B2_day1,2022.2.4,Win32,47.41583689,,,,,,,,,,,,,,,,,,,0.15323993,-0.232924694,1,0,0,0.4586,4,4,108,10,1,k,images/br_k.png,images/cb_k.png,,,,,,,,,,,,,,,,,,,,,,,,,
,,,,,,00114,2023-12-07_19h03.34.811,vbt_B2_day1,2022.2.4,Win32,47.41583689,,,,,,,,,,,,,,,,,,,0.166374781,-0.246059545,1,0,0,0.0416,4,5,109,12,1,m,images/br_m.png,images/cb_m.png,,,,,,,,,,,,,,,,,,,,,,,,,
,,,,,,00114,2023-12-07_19h03.34.811,vbt_B2_day1,2022.2.4,Win32,47.41583689,,,,,,,,,,,,,,,,,,,0.166374781,-0.246059545,1,0,0,4.1043,4,6,110,5,1,f,images/br_f.png,images/cb_f.png,,,,,,,,,,,,,,,,,,,,,,,,,
,,,,,,00114,2023-12-07_19h03.34.811,vbt_B2_day1,2022.2.4,Win32,47.41583689,,,,,,,,,,,,,,,,,,,0.164623468,-0.27145359,1,0,0,0.2077,4,7,111,19,1,t,images/br_t.png,images/cb_t.png,,,,,,,,,,,,,,,,,,,,,,,,,
,,,,,,00114,2023-12-07_19h03.34.811,vbt_B2_day1,2022.2.4,Win32,47.41583689,,,,,,,,,,,,,,,,,,,0.246059545,-0.186514886,1,0,0,0.3548,4,8,112,15,1,p,images/br_p.png,images/cb_p.png,,,,,,,,,,,,,,,,,,,,,,,,,
,,,,,,00114,2023-12-07_19h03.34.811,vbt_B2_day1,2022.2.4,Win32,47.41583689,,,,,,,,,,,,,,,,,,,0.201401051,-0.214535902,1,0,0,0.0416,4,9,113,18,1,s,images/br_s.png,images/cb_s.png,,,,,,,,,,,,,,,,,,,,,,,,,
,,,,,,00114,2023-12-07_19h03.34.811,vbt_B2_day1,2022.2.4,Win32,47.41583689,,,,,,,,,,,,,,,,,,,0.180385289,-0.234676007,1,0,0,0.1041,4,10,114,1,1,b,images/br_b.png,images/cb_b.png,,,,,,,,,,,,,,,,,,,,,,,,,
,,,,,,00114,2023-12-07_19h03.34.811,vbt_B2_day1,2022.2.4,Win32,47.41583689,,,,,,,,,,,,,,,,,,,0.206654991,-0.235551664,1,0,0,0.6667,4,11,115,25,1,z,images/br_z.png,images/cb_z.png,,,,,,,,,,,,,,,,,,,,,,,,,
,,,,,,00114,2023-12-07_19h03.34.811,vbt_B2_day1,2022.2.4,Win32,47.41583689,,,,,,,,,,,,,,,,,,,0.184763573,-0.247810858,1,0,0,0.1043,4,12,116,8,1,i,images/br_i.png,images/cb_i.png,,,,,,,,,,,,,,,,,,,,,,,,,
,,,,,,00114,2023-12-07_19h03.34.811,vbt_B2_day1,2022.2.4,Win32,47.41583689,,,,,,,,,,,,,,,,,,,0.251313485,-0.211033275,1,0,0,0.25,4,13,117,11,1,l,images/br_l.png,images/cb_l.png,,,,,,,,,,,,,,,,,,,,,,,,,
,,,,,,00114,2023-12-07_19h03.34.811,vbt_B2_day1,2022.2.4,Win32,47.41583689,,,,,,,,,,,,,,,,,,,0.216287215,-0.205779335,1,0,0,0.0832,4,14,118,6,1,g,images/br_g.png,images/cb_g.png,,,,,,,,,,,,,,,,,,,,,,,,,
,,,,,,00114,2023-12-07_19h03.34.811,vbt_B2_day1,2022.2.4,Win32,47.41583689,,,,,,,,,,,,,,,,,,,0.221541156,-0.206654991,1,0,0,0.3134,4,15,119,14,1,o,images/br_o.png,images/cb_o.png,,,,,,,,,,,,,,,,,,,,,,,,,
,,,,,,00114,2023-12-07_19h03.34.811,vbt_B2_day1,2022.2.4,Win32,47.41583689,,,,,,,,,,,,,,,,,,,0.211908932,-0.206654991,1,0,0,0.5621,4,16,120,4,1,e,images/br_e.png,images/cb_e.png,,,,,,,,,,,,,,,,,,,,,,,,,
,,,,,,00114,2023-12-07_19h03.34.811,vbt_B2_day1,2022.2.4,Win32,47.41583689,,,,,,,,,,,,,,,,,,,0.211908932,-0.206654991,1,0,0,2.0427,4,17,121,0,1,a,images/br_a.png,images/cb_a.png,,,,,,,,,,,,,,,,,,,,,,,,,
,,,,,,00114,2023-12-07_19h03.34.811,vbt_B2_day1,2022.2.4,Win32,47.41583689,,,,,,,,,,,,,,,,,,,0.229422067,-0.212784588,1,0,0,0.1041,4,18,122,17,1,r,images/br_r.png,images/cb_r.png,,,,,,,,,,,,,,,,,,,,,,,,,
,,,,,,00114,2023-12-07_19h03.34.811,vbt_B2_day1,2022.2.4,Win32,47.41583689,,,,,,,,,,,,,,,,,,,0.229422067,-0.212784588,1,0,0,0.0416,4,19,123,9,1,j,images/br_j.png,images/cb_j.png,,,,,,,,,,,,,,,,,,,,,,,,,
,,,,,,00114,2023-12-07_19h03.34.811,vbt_B2_day1,2022.2.4,Win32,47.41583689,,,,,,,,,,,,,,,,,,,0.229422067,-0.212784588,1,0,0,18.3126,4,20,124,7,1,h,images/br_h.png,images/cb_h.png,,,,,,,,,,,,,,,,,,,,,,,,,
,,,,,,00114,2023-12-07_19h03.34.811,vbt_B2_day1,2022.2.4,Win32,47.41583689,,,,,,,,,,,,,,,,,,,0.227670753,-0.204903678,1,0,0,0.5006,4,21,125,22,1,w,images/br_w.png,images/cb_w.png,,,,,,,,,,,,,,,,,,,,,,,,,
,,,,,,00114,2023-12-07_19h03.34.811,vbt_B2_day1,2022.2.4,Win32,47.41583689,,,,,,,,,,,,,,,,,,,0.287215412,-0.098073555,1,0,0,0.1036,4,22,126,16,1,q,images/br_q.png,images/cb_q.png,,,,,,,,,,,,,,,,,,,,,,,,,
,,,,,,00114,2023-12-07_19h03.34.811,vbt_B2_day1,2022.2.4,Win32,47.41583689,,,,,,,,,,,,,,,,,,,0.217162872,-0.152364273,1,0,0,0.6666,4,23,127,13,1,n,images/br_n.png,images/cb_n.png,,,,,,,,,,,,,,,,,,,,,,,,,
,,,,,,00114,2023-12-07_19h03.34.811,vbt_B2_day1,2022.2.4,Win32,47.41583689,,,,,,,,,,,,,,,,,,,0.178633975,-0.210157618,1,0,0,0.0831,4,24,128,21,1,v,images/br_v.png,images/cb_v.png,,,,,,,,,,,,,,,,,,,,,,,,,
,,,,,,00114,2023-12-07_19h03.34.811,vbt_B2_day1,2022.2.4,Win32,47.41583689,,,,,,,,,,,,,,,,,,,0.178633975,-0.210157618,1,0,0,0.355,4,25,129,20,1,u,images/br_u.png,images/cb_u.png,,,,,,,,,,,,,,,,,,,,,,,,,
,,,,,,00114,2023-12-07_19h03.34.811,vbt_B2_day1,2022.2.4,Win32,47.41583689,,,,,,,,,,,,,,,,,,,0.290718039,-0.237302977,1,0,0,4.7298,5,0,130,25,1,z,images/br_z.png,images/cb_z.png,,,,,,,,,,,,,,,,,,,,,,,,,
,,,,,,00114,2023-12-07_19h03.34.811,vbt_B2_day1,2022.2.4,Win32,47.41583689,,,,,,,,,,,,,,,,,,,0.290718039,-0.237302977,1,0,0,1.2295,5,1,131,24,1,y,images/br_y.png,images/cb_y.png,,,,,,,,,,,,,,,,,,,,,,,,,
,,,,,,00114,2023-12-07_19h03.34.811,vbt_B2_day1,2022.2.4,Win32,47.41583689,,,,,,,,,,,,,,,,,,,0.352889667,-0.147985989,1,0,0,0.396,5,2,132,7,1,h,images/br_h.png,images/cb_h.png,,,,,,,,,,,,,,,,,,,,,,,,,
,,,,,,00114,2023-12-07_19h03.34.811,vbt_B2_day1,2022.2.4,Win32,47.41583689,,,,,,,,,,,,,,,,,,,0.352889667,-0.147985989,1,0,0,0.7501,5,3,133,3,1,d,images/br_d.png,images/cb_d.png,,,,,,,,,,,,,,,,,,,,,,,,,
,,,,,,00114,2023-12-07_19h03.34.811,vbt_B2_day1,2022.2.4,Win32,47.41583689,,,,,,,,,,,,,,,,,,,0.302101576,-0.19352014,1,0,0,0.5001,5,4,134,19,1,t,images/br_t.png,images/cb_t.png,,,,,,,,,,,,,,,,,,,,,,,,,
,,,,,,00114,2023-12-07_19h03.34.811,vbt_B2_day1,2022.2.4,Win32,47.41583689,,,,,,,,,,,,,,,,,,,0.302101576,-0.19352014,1,0,0,0.4585,5,5,135,20,1,u,images/br_u.png,images/cb_u.png,,,,,,,,,,,,,,,,,,,,,,,,,
,,,,,,00114,2023-12-07_19h03.34.811,vbt_B2_day1,2022.2.4,Win32,47.41583689,,,,,,,,,,,,,,,,,,,0.302101576,-0.19352014,1,0,0,0.1458,5,6,136,11,1,l,images/br_l.png,images/cb_l.png,,,,,,,,,,,,,,,,,,,,,,,,,
,,,,,,00114,2023-12-07_19h03.34.811,vbt_B2_day1,2022.2.4,Win32,47.41583689,,,,,,,,,,,,,,,,,,,0.302101576,-0.19352014,1,0,0,0.2504,5,7,137,2,1,c,images/br_c.png,images/cb_c.png,,,,,,,,,,,,,,,,,,,,,,,,,
,,,,,,00114,2023-12-07_19h03.34.811,vbt_B2_day1,2022.2.4,Win32,47.41583689,,,,,,,,,,,,,,,,,,,0.302101576,-0.19352014,1,0,0,0.3969,5,8,138,9,1,j,images/br_j.png,images/cb_j.png,,,,,,,,,,,,,,,,,,,,,,,,,
,,,,,,00114,2023-12-07_19h03.34.811,vbt_B2_day1,2022.2.4,Win32,47.41583689,,,,,,,,,,,,,,,,,,,0.302101576,-0.19352014,1,0,0,0.2081,5,9,139,0,1,a,images/br_a.png,images/cb_a.png,,,,,,,,,,,,,,,,,,,,,,,,,
,,,,,,00114,2023-12-07_19h03.34.811,vbt_B2_day1,2022.2.4,Win32,47.41583689,,,,,,,,,,,,,,,,,,,0.261821366,-0.216287215,1,0,0,0.4373,5,10,140,23,1,x,images/br_x.png,images/cb_x.png,,,,,,,,,,,,,,,,,,,,,,,,,
,,,,,,00114,2023-12-07_19h03.34.811,vbt_B2_day1,2022.2.4,Win32,47.41583689,,,,,,,,,,,,,,,,,,,0.261821366,-0.216287215,1,0,0,0.1251,5,11,141,17,1,r,images/br_r.png,images/cb_r.png,,,,,,,,,,,,,,,,,,,,,,,,,
,,,,,,00114,2023-12-07_19h03.34.811,vbt_B2_day1,2022.2.4,Win32,47.41583689,,,,,,,,,,,,,,,,,,,0.261821366,-0.216287215,1,0,0,0.0421,5,12,142,14,1,o,images/br_o.png,images/cb_o.png,,,,,,,,,,,,,,,,,,,,,,,,,
,,,,,,00114,2023-12-07_19h03.34.811,vbt_B2_day1,2022.2.4,Win32,47.41583689,,,,,,,,,,,,,,,,,,,0.261821366,-0.216287215,1,0,0,0.3126,5,13,143,16,1,q,images/br_q.png,images/cb_q.png,,,,,,,,,,,,,,,,,,,,,,,,,
,,,,,,00114,2023-12-07_19h03.34.811,vbt_B2_day1,2022.2.4,Win32,47.41583689,,,,,,,,,,,,,,,,,,,0.261821366,-0.216287215,1,0,0,0.292,5,14,144,22,1,w,images/br_w.png,images/cb_w.png,,,,,,,,,,,,,,,,,,,,,,,,,
,,,,,,00114,2023-12-07_19h03.34.811,vbt_B2_day1,2022.2.4,Win32,47.41583689,,,,,,,,,,,,,,,,,,,0.261821366,-0.216287215,1,0,0,0.1252,5,15,145,18,1,s,images/br_s.png,images/cb_s.png,,,,,,,,,,,,,,,,,,,,,,,,,
,,,,,,00114,2023-12-07_19h03.34.811,vbt_B2_day1,2022.2.4,Win32,47.41583689,,,,,,,,,,,,,,,,,,,0.261821366,-0.216287215,1,0,0,0.5,5,16,146,21,1,v,images/br_v.png,images/cb_v.png,,,,,,,,,,,,,,,,,,,,,,,,,
,,,,,,00114,2023-12-07_19h03.34.811,vbt_B2_day1,2022.2.4,Win32,47.41583689,,,,,,,,,,,,,,,,,,,0.261821366,-0.216287215,1,0,0,1.1454,5,17,147,4,1,e,images/br_e.png,images/cb_e.png,,,,,,,,,,,,,,,,,,,,,,,,,
,,,,,,00114,2023-12-07_19h03.34.811,vbt_B2_day1,2022.2.4,Win32,47.41583689,,,,,,,,,,,,,,,,,,,0.261821366,-0.216287215,1,0,0,0.5831,5,18,148,8,1,i,images/br_i.png,images/cb_i.png,,,,,,,,,,,,,,,,,,,,,,,,,
,,,,,,00114,2023-12-07_19h03.34.811,vbt_B2_day1,2022.2.4,Win32,47.41583689,,,,,,,,,,,,,,,,,,,0.261821366,-0.216287215,1,0,0,2.4999,5,19,149,1,1,b,images/br_b.png,images/cb_b.png,,,,,,,,,,,,,,,,,,,,,,,,,
,,,,,,00114,2023-12-07_19h03.34.811,vbt_B2_day1,2022.2.4,Win32,47.41583689,,,,,,,,,,,,,,,,,,,0.261821366,-0.216287215,1,0,0,0.2501,5,20,150,15,1,p,images/br_p.png,images/cb_p.png,,,,,,,,,,,,,,,,,,,,,,,,,
,,,,,,00114,2023-12-07_19h03.34.811,vbt_B2_day1,2022.2.4,Win32,47.41583689,,,,,,,,,,,,,,,,,,,0.261821366,-0.216287215,1,0,0,0.0828,5,21,151,12,1,m,images/br_m.png,images/cb_m.png,,,,,,,,,,,,,,,,,,,,,,,,,
,,,,,,00114,2023-12-07_19h03.34.811,vbt_B2_day1,2022.2.4,Win32,47.41583689,,,,,,,,,,,,,,,,,,,0.261821366,-0.216287215,1,0,0,0.3751,5,22,152,6,1,g,images/br_g.png,images/cb_g.png,,,,,,,,,,,,,,,,,,,,,,,,,
,,,,,,00114,2023-12-07_19h03.34.811,vbt_B2_day1,2022.2.4,Win32,47.41583689,,,,,,,,,,,,,,,,,,,0.261821366,-0.216287215,1,0,0,0.125,5,23,153,10,1,k,images/br_k.png,images/cb_k.png,,,,,,,,,,,,,,,,,,,,,,,,,
,,,,,,00114,2023-12-07_19h03.34.811,vbt_B2_day1,2022.2.4,Win32,47.41583689,,,,,,,,,,,,,,,,,,,0.261821366,-0.216287215,1,0,0,0.2712,5,24,154,13,1,n,images/br_n.png,images/cb_n.png,,,,,,,,,,,,,,,,,,,,,,,,,
,,,,,,00114,2023-12-07_19h03.34.811,vbt_B2_day1,2022.2.4,Win32,47.41583689,,,,,,,,,,,,,,,,,,,0.261821366,-0.216287215,1,0,0,0.0413,5,25,155,5,1,f,images/br_f.png,images/cb_f.png,,,,,,,,,,,,,,,,,,,,,,,,,
,,,,,,00114,2023-12-07_19h03.34.811,vbt_B2_day1,2022.2.4,Win32,47.41583689,,,,,,,,,,,,,,,,,,,0.261821366,-0.216287215,1,0,0,0.3332,6,0,156,23,1,x,images/br_x.png,images/cb_x.png,,,,,,,,,,,,,,,,,,,,,,,,,
,,,,,,00114,2023-12-07_19h03.34.811,vbt_B2_day1,2022.2.4,Win32,47.41583689,,,,,,,,,,,,,,,,,,,0.261821366,-0.216287215,1,0,0,0.3543,6,1,157,0,1,a,images/br_a.png,images/cb_a.png,,,,,,,,,,,,,,,,,,,,,,,,,
,,,,,,00114,2023-12-07_19h03.34.811,vbt_B2_day1,2022.2.4,Win32,47.41583689,,,,,,,,,,,,,,,,,,,0.34676007,-0.310858144,1,0,0,0.2918,6,2,158,12,1,m,images/br_m.png,images/cb_m.png,,,,,,,,,,,,,,,,,,,,,,,,,
,,,,,,00114,2023-12-07_19h03.34.811,vbt_B2_day1,2022.2.4,Win32,47.41583689,,,,,,,,,,,,,,,,,,,0.385288967,-0.23380035,1,0,0,0.0831,6,3,159,8,1,i,images/br_i.png,images/cb_i.png,,,,,,,,,,,,,,,,,,,,,,,,,
,,,,,,00114,2023-12-07_19h03.34.811,vbt_B2_day1,2022.2.4,Win32,47.41583689,,,,,,,,,,,,,,,,,,,0.356392294,-0.179509632,1,0,0,0.2706,6,4,160,5,1,f,images/br_f.png,images/cb_f.png,,,,,,,,,,,,,,,,,,,,,,,,,
,,,,,,00114,2023-12-07_19h03.34.811,vbt_B2_day1,2022.2.4,Win32,47.41583689,,,,,,,,,,,,,,,,,,,0.356392294,-0.179509632,1,0,0,0.0622,6,5,161,6,1,g,images/br_g.png,images/cb_g.png,,,,,,,,,,,,,,,,,,,,,,,,,
,,,,,,00114,2023-12-07_19h03.34.811,vbt_B2_day1,2022.2.4,Win32,47.41583689,,,,,,,,,,,,,,,,,,,0.356392294,-0.179509632,1,0,0,0.0833,6,6,162,16,1,q,images/br_q.png,images/cb_q.png,,,,,,,,,,,,,,,,,,,,,,,,,
,,,,,,00114,2023-12-07_19h03.34.811,vbt_B2_day1,2022.2.4,Win32,47.41583689,,,,,,,,,,,,,,,,,,,0.309982487,-0.166374781,1,0,0,0.6042,6,7,163,25,1,z,images/br_z.png,images/cb_z.png,,,,,,,,,,,,,,,,,,,,,,,,,
,,,,,,00114,2023-12-07_19h03.34.811,vbt_B2_day1,2022.2.4,Win32,47.41583689,,,,,,,,,,,,,,,,,,,0.309982487,-0.166374781,1,0,0,0.0626,6,8,164,10,1,k,images/br_k.png,images/cb_k.png,,,,,,,,,,,,,,,,,,,,,,,,,
,,,,,,00114,2023-12-07_19h03.34.811,vbt_B2_day1,2022.2.4,Win32,47.41583689,,,,,,,,,,,,,,,,,,,0.309982487,-0.166374781,1,0,0,0.0833,6,9,165,7,1,h,images/br_h.png,images/cb_h.png,,,,,,,,,,,,,,,,,,,,,,,,,
,,,,,,00114,2023-12-07_19h03.34.811,vbt_B2_day1,2022.2.4,Win32,47.41583689,,,,,,,,,,,,,,,,,,,0.309982487,-0.166374781,1,0,0,0.2286,6,10,166,18,1,s,images/br_s.png,images/cb_s.png,,,,,,,,,,,,,,,,,,,,,,,,,
,,,,,,00114,2023-12-07_19h03.34.811,vbt_B2_day1,2022.2.4,Win32,47.41583689,,,,,,,,,,,,,,,,,,,0.309982487,-0.166374781,1,0,0,0.0416,6,11,167,4,1,e,images/br_e.png,images/cb_e.png,,,,,,,,,,,,,,,,,,,,,,,,,
,,,,,,00114,2023-12-07_19h03.34.811,vbt_B2_day1,2022.2.4,Win32,47.41583689,,,,,,,,,,,,,,,,,,,0.309982487,-0.166374781,1,0,0,0.1667,6,12,168,1,1,b,images/br_b.png,images/cb_b.png,,,,,,,,,,,,,,,,,,,,,,,,,
,,,,,,00114,2023-12-07_19h03.34.811,vbt_B2_day1,2022.2.4,Win32,47.41583689,,,,,,,,,,,,,,,,,,,0.301225919,-0.171628722,1,0,0,0.4584,6,13,169,14,1,o,images/br_o.png,images/cb_o.png,,,,,,,,,,,,,,,,,,,,,,,,,
,,,,,,00114,2023-12-07_19h03.34.811,vbt_B2_day1,2022.2.4,Win32,47.41583689,,,,,,,,,,,,,,,,,,,0.301225919,-0.171628722,1,0,0,0.438,6,14,170,3,1,d,images/br_d.png,images/cb_d.png,,,,,,,,,,,,,,,,,,,,,,,,,
,,,,,,00114,2023-12-07_19h03.34.811,vbt_B2_day1,2022.2.4,Win32,47.41583689,,,,,,,,,,,,,,,,,,,0.301225919,-0.171628722,1,0,0,0.2507,6,15,171,11,1,l,images/br_l.png,images/cb_l.png,,,,,,,,,,,,,,,,,,,,,,,,,
,,,,,,00114,2023-12-07_19h03.34.811,vbt_B2_day1,2022.2.4,Win32,47.41583689,,,,,,,,,,,,,,,,,,,0.301225919,-0.171628722,1,0,0,0.1875,6,16,172,19,1,t,images/br_t.png,images/cb_t.png,,,,,,,,,,,,,,,,,,,,,,,,,
,,,,,,00114,2023-12-07_19h03.34.811,vbt_B2_day1,2022.2.4,Win32,47.41583689,,,,,,,,,,,,,,,,,,,0.301225919,-0.171628722,1,0,0,0.0416,6,17,173,20,1,u,images/br_u.png,images/cb_u.png,,,,,,,,,,,,,,,,,,,,,,,,,
,,,,,,00114,2023-12-07_19h03.34.811,vbt_B2_day1,2022.2.4,Win32,47.41583689,,,,,,,,,,,,,,,,,,,0.301225919,-0.171628722,1,0,0,0.4171,6,18,174,17,1,r,images/br_r.png,images/cb_r.png,,,,,,,,,,,,,,,,,,,,,,,,,
,,,,,,00114,2023-12-07_19h03.34.811,vbt_B2_day1,2022.2.4,Win32,47.41583689,,,,,,,,,,,,,,,,,,,0.301225919,-0.171628722,1,0,0,0.437,6,19,175,22,1,w,images/br_w.png,images/cb_w.png,,,,,,,,,,,,,,,,,,,,,,,,,
,,,,,,00114,2023-12-07_19h03.34.811,vbt_B2_day1,2022.2.4,Win32,47.41583689,,,,,,,,,,,,,,,,,,,0.301225919,-0.171628722,1,0,0,0.0627,6,20,176,9,1,j,images/br_j.png,images/cb_j.png,,,,,,,,,,,,,,,,,,,,,,,,,
,,,,,,00114,2023-12-07_19h03.34.811,vbt_B2_day1,2022.2.4,Win32,47.41583689,,,,,,,,,,,,,,,,,,,0.301225919,-0.171628722,1,0,0,0.6873,6,21,177,13,1,n,images/br_n.png,images/cb_n.png,,,,,,,,,,,,,,,,,,,,,,,,,
,,,,,,00114,2023-12-07_19h03.34.811,vbt_B2_day1,2022.2.4,Win32,47.41583689,,,,,,,,,,,,,,,,,,,0.301225919,-0.171628722,1,0,0,0.2297,6,22,178,24,1,y,images/br_y.png,images/cb_y.png,,,,,,,,,,,,,,,,,,,,,,,,,
,,,,,,00114,2023-12-07_19h03.34.811,vbt_B2_day1,2022.2.4,Win32,47.41583689,,,,,,,,,,,,,,,,,,,0.301225919,-0.171628722,1,0,0,0.2292,6,23,179,15,1,p,images/br_p.png,images/cb_p.png,,,,,,,,,,,,,,,,,,,,,,,,,
,,,,,,00114,2023-12-07_19h03.34.811,vbt_B2_day1,2022.2.4,Win32,47.41583689,,,,,,,,,,,,,,,,,,,0.301225919,-0.171628722,1,0,0,0.1257,6,24,180,21,1,v,images/br_v.png,images/cb_v.png,,,,,,,,,,,,,,,,,,,,,,,,,
,,,,,,00114,2023-12-07_19h03.34.811,vbt_B2_day1,2022.2.4,Win32,47.41583689,,,,,,,,,,,,,,,,,,,0.301225919,-0.171628722,1,0,0,0.0625,6,25,181,2,1,c,images/br_c.png,images/cb_c.png,,,,,,,,,,,,,,,,,,,,,,,,,
,,,,,,00114,2023-12-07_19h03.34.811,vbt_B2_day1,2022.2.4,Win32,47.41583689,,,,,,,,,,,,,,,,,,,,,,,,,,,,,,,,,0.301225919,-0.171628722,1,0,0,,,,,,,,,,,,,,,,,,,,
,,,,,,00114,2023-12-07_19h03.34.811,vbt_B2_day1,2022.2.4,Win32,47.41583689,,,,,,,,,,,,,,,,,,,,,,,,,,,,,,,,,,,,,,0.297723292,-0.312609457,1,0,0,,,,,,,,,,,,,,,
,,,,,,00114,2023-12-07_19h03.34.811,vbt_B2_day1,2022.2.4,Win32,47.41583689,,,,,,,,,,,,,,,,,,,,,,,,,,,,,,,,,,,,,,,,,,,0.297723292,-0.312609457,1,0,0,tars,tars,0,0,0,20,1,tars,images/br_tars.png,images/cb_tars.png
,,,,,,00114,2023-12-07_19h03.34.811,vbt_B2_day1,2022.2.4,Win32,47.41583689,,,,,,,,,,,,,,,,,,,,,,,,,,,,,,,,,,,,,,,,,,,0.297723292,-0.312609457,1,0,0,attractie,attractie,0,1,1,17,1,attentie,images/br_attentie.png,images/cb_attentie.png
,,,,,,00114,2023-12-07_19h03.34.811,vbt_B2_day1,2022.2.4,Win32,47.41583689,,,,,,,,,,,,,,,,,,,,,,,,,,,,,,,,,,,,,,,,,,,0.448336252,-0.211033275,1,0,0,valop,valop,0,2,2,26,1,valop,images/br_valop.png,images/cb_valop.png
,,,,,,00114,2023-12-07_19h03.34.811,vbt_B2_day1,2022.2.4,Win32,47.41583689,,,,,,,,,,,,,,,,,,,,,,,,,,,,,,,,,,,,,,,,,,,0.448336252,-0.211033275,1,0,0,twijfel,twijfel,0,3,3,13,1,twijfel,images/br_twijfel.png,images/cb_twijfel.png
,,,,,,00114,2023-12-07_19h03.34.811,vbt_B2_day1,2022.2.4,Win32,47.41583689,,,,,,,,,,,,,,,,,,,,,,,,,,,,,,,,,,,,,,,,,,,0.448336252,-0.211033275,1,0,0,opv.tt..,opv.tt..,0,4,4,59,1,opvatten,images/br_opvatten.png,images/cb_opvatten.png
,,,,,,00114,2023-12-07_19h03.34.811,vbt_B2_day1,2022.2.4,Win32,47.41583689,,,,,,,,,,,,,,,,,,,,,,,,,,,,,,,,,,,,,,,,,,,0.448336252,-0.211033275,1,0,0,locht..,locht..,0,5,5,34,1,lochten,images/br_lochten.png,images/cb_lochten.png
,,,,,,00114,2023-12-07_19h03.34.811,vbt_B2_day1,2022.2.4,Win32,47.41583689,,,,,,,,,,,,,,,,,,,,,,,,,,,,,,,,,,,,,,,,,,,0.452714536,-0.211033275,1,0,0,booi,booi,0,6,6,23,1,booi,images/br_booi.png,images/cb_booi.png
,,,,,,00114,2023-12-07_19h03.34.811,vbt_B2_day1,2022.2.4,Win32,47.41583689,,,,,,,,,,,,,,,,,,,,,,,,,,,,,,,,,,,,,,,,,,,0.452714536,-0.211033275,1,0,0,daah...,daah...,0,7,7,16,1,daarheen,images/br_daarheen.png,images/cb_daarheen.png
,,,,,,00114,2023-12-07_19h03.34.811,vbt_B2_day1,2022.2.4,Win32,47.41583689,,,,,,,,,,,,,,,,,,,,,,,,,,,,,,,,,,,,,,,,,,,0.255691769,-0.270577933,1,0,0,dred,dred,0,8,8,21,1,dred,images/br_dred.png,images/cb_dred.png
,,,,,,00114,2023-12-07_19h03.34.811,vbt_B2_day1,2022.2.4,Win32,47.41583689,,,,,,,,,,,,,,,,,,,,,,,,,,,,,,,,,,,,,,,,,,,0.255691769,-0.270577933,1,0,0,jaar,jaar,0,9,9,2,1,jaar,images/br_jaar.png,images/cb_jaar.png
,,,,,,00114,2023-12-07_19h03.34.811,vbt_B2_day1,2022.2.4,Win32,47.41583689,,,,,,,,,,,,,,,,,,,,,,,,,,,,,,,,,,,,,,,,,,,0.255691769,-0.270577933,1,0,0,liefje,liefje,0,10,10,51,1,liefde,images/br_liefde.png,images/cb_liefde.png
,,,,,,00114,2023-12-07_19h03.34.811,vbt_B2_day1,2022.2.4,Win32,47.41583689,,,,,,,,,,,,,,,,,,,,,,,,,,,,,,,,,,,,,,,,,,,0.38704028,-0.298598949,1,0,0,scholen,scholen,0,11,11,38,1,schielen,images/br_schielen.png,images/cb_schielen.png
,,,,,,00114,2023-12-07_19h03.34.811,vbt_B2_day1,2022.2.4,Win32,47.41583689,,,,,,,,,,,,,,,,,,,,,,,,,,,,,,,,,,,,,,,,,,,0.448336252,-0.241681261,1,0,0,stamen,stamen,0,12,12,31,1,stamen,images/br_stamen.png,images/cb_stamen.png
,,,,,,00114,2023-12-07_19h03.34.811,vbt_B2_day1,2022.2.4,Win32,47.41583689,,,,,,,,,,,,,,,,,,,,,,,,,,,,,,,,,,,,,,,,,,,0.448336252,-0.241681261,1,0,0,zuilen,zuilen,0,13,13,52,1,zuiplap,images/br_zuiplap.png,images/cb_zuiplap.png
,,,,,,00114,2023-12-07_19h03.34.811,vbt_B2_day1,2022.2.4,Win32,47.41583689,,,,,,,,,,,,,,,,,,,,,,,,,,,,,,,,,,,,,,,,,,,0.394921191,-0.286339755,1,0,0,vizier,vizier,0,14,14,49,1,vizier,images/br_vizier.png,images/cb_vizier.png
,,,,,,00114,2023-12-07_19h03.34.811,vbt_B2_day1,2022.2.4,Win32,47.41583689,,,,,,,,,,,,,,,,,,,,,,,,,,,,,,,,,,,,,,,,,,,0.394921191,-0.286339755,1,0,0,lezen,lezen,0,15,15,46,1,lezen,images/br_lezen.png,images/cb_lezen.png
,,,,,,00114,2023-12-07_19h03.34.811,vbt_B2_day1,2022.2.4,Win32,47.41583689,,,,,,,,,,,,,,,,,,,,,,,,,,,,,,,,,,,,,,,,,,,0.394921191,-0.286339755,1,0,0,dief,dief,0,16,16,40,1,dief,images/br_dief.png,images/cb_dief.png
,,,,,,00114,2023-12-07_19h03.34.811,vbt_B2_day1,2022.2.4,Win32,47.41583689,,,,,,,,,,,,,,,,,,,,,,,,,,,,,,,,,,,,,,,,,,,0.394921191,-0.286339755,1,0,0,slak,slak,0,17,17,0,1,slak,images/br_slak.png,images/cb_slak.png
,,,,,,00114,2023-12-07_19h03.34.811,vbt_B2_day1,2022.2.4,Win32,47.41583689,,,,,,,,,,,,,,,,,,,,,,,,,,,,,,,,,,,,,,,,,,,0.401926445,-0.281961471,1,0,0,waarvan,waarvan,0,18,18,14,1,waarvan,images/br_waarvan.png,images/cb_waarvan.png
,,,,,,00114,2023-12-07_19h03.34.811,vbt_B2_day1,2022.2.4,Win32,47.41583689,,,,,,,,,,,,,,,,,,,,,,,,,,,,,,,,,,,,,,,,,,,0.410683012,-0.208406305,1,0,0,schuiven,schuiven,0,19,19,19,1,schuilen,images/br_schuilen.png,images/cb_schuilen.png
,,,,,,00114,2023-12-07_19h03.34.811,vbt_B2_day1,2022.2.4,Win32,47.41583689,,,,,,,,,,,,,,,,,,,,,,,,,,,,,,,,,,,,,,,,,,,0.425569177,-0.211033275,1,0,0,opslaan,opslaan,0,20,20,53,1,opslaan,images/br_opslaan.png,images/cb_opslaan.png
,,,,,,00114,2023-12-07_19h03.34.811,vbt_B2_day1,2022.2.4,Win32,47.41583689,,,,,,,,,,,,,,,,,,,,,,,,,,,,,,,,,,,,,,,,,,,0.425569177,-0.211033275,1,0,0,stuk,stuk,0,21,21,42,1,stuk,images/br_stuk.png,images/cb_stuk.png
,,,,,,00114,2023-12-07_19h03.34.811,vbt_B2_day1,2022.2.4,Win32,47.41583689,,,,,,,,,,,,,,,,,,,,,,,,,,,,,,,,,,,,,,,,,,,0.425569177,-0.211033275,1,0,0,klimmen,klimmen,0,22,22,12,1,klimmen,images/br_klimmen.png,images/cb_klimmen.png
,,,,,,00114,2023-12-07_19h03.34.811,vbt_B2_day1,2022.2.4,Win32,47.41583689,,,,,,,,,,,,,,,,,,,,,,,,,,,,,,,,,,,,,,,,,,,0.501751313,-0.1882662,1,0,0,gened,gened,0,23,23,29,1,genond,images/br_genond.png,images/cb_genond.png
,,,,,,00114,2023-12-07_19h03.34.811,vbt_B2_day1,2022.2.4,Win32,47.41583689,,,,,,,,,,,,,,,,,,,,,,,,,,,,,,,,,,,,,,,,,,,0.501751313,-0.1882662,1,0,0,voorreur,voorreur,0,24,24,39,1,voorreur,images/br_voorreur.png,images/cb_voorreur.png
,,,,,,00114,2023-12-07_19h03.34.811,vbt_B2_day1,2022.2.4,Win32,47.41583689,,,,,,,,,,,,,,,,,,,,,,,,,,,,,,,,,,,,,,,,,,,0.53502627,-0.095446585,1,0,0,hiervan,hiervan,0,25,25,15,1,hiervan,images/br_hiervan.png,images/cb_hiervan.png
,,,,,,00114,2023-12-07_19h03.34.811,vbt_B2_day1,2022.2.4,Win32,47.41583689,,,,,,,,,,,,,,,,,,,,,,,,,,,,,,,,,,,,,,,,,,,0.53502627,-0.095446585,1,0,0,kander,kander,0,26,26,8,1,kanjer,images/br_kanjer.png,images/cb_kanjer.png
,,,,,,00114,2023-12-07_19h03.34.811,vbt_B2_day1,2022.2.4,Win32,47.41583689,,,,,,,,,,,,,,,,,,,,,,,,,,,,,,,,,,,,,,,,,,,0.566549912,-0.11295972,1,0,0,tekenen,tekenen,0,27,27,55,1,tekenen,images/br_tekenen.png,images/cb_tekenen.png
,,,,,,00114,2023-12-07_19h03.34.811,vbt_B2_day1,2022.2.4,Win32,47.41583689,,,,,,,,,,,,,,,,,,,,,,,,,,,,,,,,,,,,,,,,,,,0.465849387,-0.203152364,1,0,0,zaal,zaal,0,28,28,1,1,zaal,images/br_zaal.png,images/cb_zaal.png
,,,,,,00114,2023-12-07_19h03.34.811,vbt_B2_day1,2022.2.4,Win32,47.41583689,,,,,,,,,,,,,,,,,,,,,,,,,,,,,,,,,,,,,,,,,,,0.253064799,-0.281961471,1,0,0,muziek,muziek,0,29,29,10,1,muziek,images/br_muziek.png,images/cb_muziek.png
,,,,,,00114,2023-12-07_19h03.34.811,vbt_B2_day1,2022.2.4,Win32,47.41583689,,,,,,,,,,,,,,,,,,,,,,,,,,,,,,,,,,,,,,,,,,,0.6558669,-0.183887916,1,0,0,schep,schep,0,30,30,4,1,schep,images/br_schep.png,images/cb_schep.png
,,,,,,00114,2023-12-07_19h03.34.811,vbt_B2_day1,2022.2.4,Win32,47.41583689,,,,,,,,,,,,,,,,,,,,,,,,,,,,,,,,,,,,,,,,,,,0.509632224,-0.07793345,1,0,0,voorkeur,voorkeur,0,31,31,58,1,voorkeur,images/br_voorkeur.png,images/cb_voorkeur.png
,,,,,,00114,2023-12-07_19h03.34.811,vbt_B2_day1,2022.2.4,Win32,47.41583689,,,,,,,,,,,,,,,,,,,,,,,,,,,,,,,,,,,,,,,,,,,0.573555166,-0.164623468,1,0,0,uiterlijk,uiterlijk,0,32,32,18,1,uitdelen,images/br_uitdelen.png,images/cb_uitdelen.png
,,,,,,00114,2023-12-07_19h03.34.811,vbt_B2_day1,2022.2.4,Win32,47.41583689,,,,,,,,,,,,,,,,,,,,,,,,,,,,,,,,,,,,,,,,,,,0.573555166,-0.164623468,1,0,0,reddji,reddji,0,33,33,30,1,reedje,images/br_reedje.png,images/cb_reedje.png
,,,,,,00114,2023-12-07_19h03.34.811,vbt_B2_day1,2022.2.4,Win32,47.41583689,,,,,,,,,,,,,,,,,,,,,,,,,,,,,,,,,,,,,,,,,,,0.701401051,-0.102451839,1,0,0,lava,lava,0,34,34,43,1,lava,images/br_lava.png,images/cb_lava.png
,,,,,,00114,2023-12-07_19h03.34.811,vbt_B2_day1,2022.2.4,Win32,47.41583689,,,,,,,,,,,,,,,,,,,,,,,,,,,,,,,,,,,,,,,,,,,0.701401051,-0.102451839,1,0,0,loods,loods,0,35,35,47,1,loods,images/br_loods.png,images/cb_loods.png
,,,,,,00114,2023-12-07_19h03.34.811,vbt_B2_day1,2022.2.4,Win32,47.41583689,,,,,,,,,,,,,,,,,,,,,,,,,,,,,,,,,,,,,,,,,,,0.591943958,-0.182136602,1,0,0,wijzi,wijzi,0,36,36,44,1,wijze,images/br_wijze.png,images/cb_wijze.png
,,,,,,00114,2023-12-07_19h03.34.811,vbt_B2_day1,2022.2.4,Win32,47.41583689,,,,,,,,,,,,,,,,,,,,,,,,,,,,,,,,,,,,,,,,,,,0.591943958,-0.182136602,1,0,0,hoog,hoog,0,37,37,41,1,hoog,images/br_hoog.png,images/cb_hoog.png
,,,,,,00114,2023-12-07_19h03.34.811,vbt_B2_day1,2022.2.4,Win32,47.41583689,,,,,,,,,,,,,,,,,,,,,,,,,,,,,,,,,,,,,,,,,,,0.601576182,-0.061295972,1,0,0,liegen,liegen,0,38,38,50,1,liegen,images/br_liegen.png,images/cb_liegen.png
,,,,,,00114,2023-12-07_19h03.34.811,vbt_B2_day1,2022.2.4,Win32,47.41583689,,,,,,,,,,,,,,,,,,,,,,,,,,,,,,,,,,,,,,,,,,,0.601576182,-0.061295972,1,0,0,opplaan,opplaan,0,39,39,32,1,opplaan,images/br_opplaan.png,images/cb_opplaan.png
,,,,,,00114,2023-12-07_19h03.34.811,vbt_B2_day1,2022.2.4,Win32,47.41583689,,,,,,,,,,,,,,,,,,,,,,,,,,,,,,,,,,,,,,,,,,,0.601576182,-0.061295972,1,0,0,fectie,fectie,0,40,40,48,1,fictie,images/br_fictie.png,images/cb_fictie.png
,,,,,,00114,2023-12-07_19h03.34.811,vbt_B2_day1,2022.2.4,Win32,47.41583689,,,,,,,,,,,,,,,,,,,,,,,,,,,,,,,,,,,,,,,,,,,0.601576182,-0.061295972,1,0,0,vijft..,vijft..,0,41,41,54,1,vijftig,images/br_vijftig.png,images/cb_vijftig.png
,,,,,,00114,2023-12-07_19h03.34.811,vbt_B2_day1,2022.2.4,Win32,47.41583689,,,,,,,,,,,,,,,,,,,,,,,,,,,,,,,,,,,,,,,,,,,0.601576182,-0.061295972,1,0,0,klauw,klauw,0,42,42,7,1,klauw,images/br_klauw.png,images/cb_klauw.png
,,,,,,00114,2023-12-07_19h03.34.811,vbt_B2_day1,2022.2.4,Win32,47.41583689,,,,,,,,,,,,,,,,,,,,,,,,,,,,,,,,,,,,,,,,,,,0.601576182,-0.061295972,1,0,0,fl.llz,fl.llz,0,43,43,33,1,flullen,images/br_flullen.png,images/cb_flullen.png
,,,,,,00114,2023-12-07_19h03.34.811,vbt_B2_day1,2022.2.4,Win32,47.41583689,,,,,,,,,,,,,,,,,,,,,,,,,,,,,,,,,,,,,,,,,,,0.521015762,-0.161996497,1,0,0,maken,maken,0,44,44,5,1,maken,images/br_maken.png,images/cb_maken.png
,,,,,,00114,2023-12-07_19h03.34.811,vbt_B2_day1,2022.2.4,Win32,47.41583689,,,,,,,,,,,,,,,,,,,,,,,,,,,,,,,,,,,,,,,,,,,0.521015762,-0.161996497,1,0,0,mand,mand,0,45,45,3,1,mand,images/br_mand.png,images/cb_mand.png
,,,,,,00114,2023-12-07_19h03.34.811,vbt_B2_day1,2022.2.4,Win32,47.41583689,,,,,,,,,,,,,,,,,,,,,,,,,,,,,,,,,,,,,,,,,,,0.521015762,-0.161996497,1,0,0,spanei...,spanei...,0,46,46,37,1,spanzing,images/br_spanzing.png,images/cb_spanzing.png
,,,,,,00114,2023-12-07_19h03.34.811,vbt_B2_day1,2022.2.4,Win32,47.41583689,,,,,,,,,,,,,,,,,,,,,,,,,,,,,,,,,,,,,,,,,,,0.521015762,-0.161996497,1,0,0,bleek,bleek,0,47,47,6,1,bleek,images/br_bleek.png,images/cb_bleek.png
,,,,,,00114,2023-12-07_19h03.34.811,vbt_B2_day1,2022.2.4,Win32,47.41583689,,,,,,,,,,,,,,,,,,,,,,,,,,,,,,,,,,,,,,,,,,,0.521015762,-0.161996497,1,0,0,dubbel,dubbel,0,48,48,9,1,dubbel,images/br_dubbel.png,images/cb_dubbel.png
,,,,,,00114,2023-12-07_19h03.34.811,vbt_B2_day1,2022.2.4,Win32,47.41583689,,,,,,,,,,,,,,,,,,,,,,,,,,,,,,,,,,,,,,,,,,,0.5,-0.210157618,1,0,0,prorp,prorp,0,49,49,27,1,prort,images/br_prort.png,images/cb_prort.png
,,,,,,00114,2023-12-07_19h03.34.811,vbt_B2_day1,2022.2.4,Win32,47.41583689,,,,,,,,,,,,,,,,,,,,,,,,,,,,,,,,,,,,,,,,,,,0.5,-0.210157618,1,0,0,brijk,brijk,0,50,50,25,1,brijk,images/br_brijk.png,images/cb_brijk.png
,,,,,,00114,2023-12-07_19h03.34.811,vbt_B2_day1,2022.2.4,Win32,47.41583689,,,,,,,,,,,,,,,,,,,,,,,,,,,,,,,,,,,,,,,,,,,0.5,-0.210157618,1,0,0,rezer,rezer,0,51,51,24,1,rezer,images/br_rezer.png,images/cb_rezer.png
,,,,,,00114,2023-12-07_19h03.34.811,vbt_B2_day1,2022.2.4,Win32,47.41583689,,,,,,,,,,,,,,,,,,,,,,,,,,,,,,,,,,,,,,,,,,,0.672504378,-0.140105079,1,0,0,mening,mening,0,52,52,11,1,mening,images/br_mening.png,images/cb_mening.png
,,,,,,00114,2023-12-07_19h03.34.811,vbt_B2_day1,2022.2.4,Win32,47.41583689,,,,,,,,,,,,,,,,,,,,,,,,,,,,,,,,,,,,,,,,,,,0.587565674,-0.154115587,1,0,0,toezicht,toezicht,0,53,53,56,1,toezicht,images/br_toezicht.png,images/cb_toezicht.png
,,,,,,00114,2023-12-07_19h03.34.811,vbt_B2_day1,2022.2.4,Win32,47.41583689,,,,,,,,,,,,,,,,,,,,,,,,,,,,,,,,,,,,,,,,,,,0.582311734,-0.159369527,1,0,0,meenemen,meenemen,0,54,54,57,1,meenemen,images/br_meenemen.png,images/cb_meenemen.png
,,,,,,00114,2023-12-07_19h03.34.811,vbt_B2_day1,2022.2.4,Win32,47.41583689,,,,,,,,,,,,,,,,,,,,,,,,,,,,,,,,,,,,,,,,,,,0.582311734,-0.159369527,1,0,0,bebhep,bebhep,0,55,55,28,1,bebrip,images/br_bebrip.png,images/cb_bebrip.png
,,,,,,00114,2023-12-07_19h03.34.811,vbt_B2_day1,2022.2.4,Win32,47.41583689,,,,,,,,,,,,,,,,,,,,,,,,,,,,,,,,,,,,,,,,,,,0.582311734,-0.159369527,1,0,0,stuikem,stuikem,0,56,56,35,1,stuikem,images/br_stuikem.png,images/cb_stuikem.png
,,,,,,00114,2023-12-07_19h03.34.811,vbt_B2_day1,2022.2.4,Win32,47.41583689,,,,,,,,,,,,,,,,,,,,,,,,,,,,,,,,,,,,,,,,,,,0.6882662,-0.146234676,1,0,0,hemel,hemel,0,57,57,45,1,hemel,images/br_hemel.png,images/cb_hemel.png
,,,,,,00114,2023-12-07_19h03.34.811,vbt_B2_day1,2022.2.4,Win32,47.41583689,,,,,,,,,,,,,,,,,,,,,,,,,,,,,,,,,,,,,,,,,,,0.6882662,-0.146234676,1,0,0,vervallen,vervallen,0,58,58,36,1,vervaden,images/br_vervaden.png,images/cb_vervaden.png
,,,,,,00114,2023-12-07_19h03.34.811,vbt_B2_day1,2022.2.4,Win32,47.41583689,,,,,,,,,,,,,,,,,,,,,,,,,,,,,,,,,,,,,,,,,,,0.6882662,-0.146234676,1,0,0,knoe,knoe,0,59,59,22,1,knoe,images/br_knoe.png,images/cb_knoe.png
,,,,,,00114,2023-12-07_19h03.34.811,vbt_B2_day1,2022.2.4,Win32,47.41583689,,,,,,,,,,,,,,,,,,,,,,,,,,,,,,,,,,,,,,,,,,,,,,,,,,,,,,,,,
