welcome_mouse.x,welcome_mouse.y,welcome_mouse.leftButton,welcome_mouse.midButton,welcome_mouse.rightButton,welcome_mouse.time,"ID",date,expName,psychopyVersion,OS,frameRate,mouse_2.x,mouse_2.y,mouse_2.leftButton,mouse_2.midButton,mouse_2.rightButton,mouse_2.time,mouse_3.x,mouse_3.y,mouse_3.leftButton,mouse_3.midButton,mouse_3.rightButton,mouse_3.time,train_mouse.x,train_mouse.y,train_mouse.leftButton,train_mouse.midButton,train_mouse.rightButton,train_mouse.time,braille_mouse.x,braille_mouse.y,braille_mouse.leftButton,braille_mouse.midButton,braille_mouse.rightButton,braille_mouse.time,trials.thisRepN,trials.thisTrialN,trials.thisN,trials.thisIndex,trials.ran,nlLet,brLet,cbLet,mouse.x,mouse.y,mouse.leftButton,mouse.midButton,mouse.rightButton,testInstr_mouse.x,testInstr_mouse.y,testInstr_mouse.leftButton,testInstr_mouse.midButton,testInstr_mouse.rightButton,test_mouse.x,test_mouse.y,test_mouse.leftButton,test_mouse.midButton,test_mouse.rightButton,test_response.text,testResp,test_loop.thisRepN,test_loop.thisTrialN,test_loop.thisN,test_loop.thisIndex,test_loop.ran,nlWrd,brWrd,cbWrd
-0.176851838,-0.238888917,1,0,0,74.8878,00113,2023-12-11_10h41.42.457,vbt_B2_day1,2022.2.4,Win32,61.47415012,,,,,,,,,,,,,,,,,,,,,,,,,,,,,,,,,,,,,,,,,,,,,,,,,,,,,,,,,
,,,,,,00113,2023-12-11_10h41.42.457,vbt_B2_day1,2022.2.4,Win32,61.47415012,-0.176851838,-0.238888917,1,0,0,12.5939,,,,,,,,,,,,,,,,,,,,,,,,,,,,,,,,,,,,,,,,,,,,,,,,,,,
,,,,,,00113,2023-12-11_10h41.42.457,vbt_B2_day1,2022.2.4,Win32,61.47415012,,,,,,,-0.034259231,-0.412037037,1,0,0,8.0235,,,,,,,,,,,,,,,,,,,,,,,,,,,,,,,,,,,,,,,,,,,,,
,,,,,,00113,2023-12-11_10h41.42.457,vbt_B2_day1,2022.2.4,Win32,61.47415012,,,,,,,,,,,,,0.191666709,0.189814815,1,0,0,26.8024,,,,,,,,,,,,,,,,,,,,,,,,,,,,,,,,,,,,,,,
,,,,,,00113,2023-12-11_10h41.42.457,vbt_B2_day1,2022.2.4,Win32,61.47415012,,,,,,,,,,,,,,,,,,,0.191666709,0.189814815,1,0,0,4.0627,0,0,0,19,1,t,images/br_t.png,images/cb_t.png,,,,,,,,,,,,,,,,,,,,,,,,,
,,,,,,00113,2023-12-11_10h41.42.457,vbt_B2_day1,2022.2.4,Win32,61.47415012,,,,,,,,,,,,,,,,,,,0.191666709,0.189814815,1,0,0,2.3148,0,1,1,18,1,s,images/br_s.png,images/cb_s.png,,,,,,,,,,,,,,,,,,,,,,,,,
,,,,,,00113,2023-12-11_10h41.42.457,vbt_B2_day1,2022.2.4,Win32,61.47415012,,,,,,,,,,,,,,,,,,,0.191666709,0.189814815,1,0,0,4.4129,0,2,2,17,1,r,images/br_r.png,images/cb_r.png,,,,,,,,,,,,,,,,,,,,,,,,,
,,,,,,00113,2023-12-11_10h41.42.457,vbt_B2_day1,2022.2.4,Win32,61.47415012,,,,,,,,,,,,,,,,,,,0.191666709,0.189814815,1,0,0,1.571,0,3,3,23,1,x,images/br_x.png,images/cb_x.png,,,,,,,,,,,,,,,,,,,,,,,,,
,,,,,,00113,2023-12-11_10h41.42.457,vbt_B2_day1,2022.2.4,Win32,61.47415012,,,,,,,,,,,,,,,,,,,0.191666709,0.189814815,1,0,0,2.2314,0,4,4,22,1,w,images/br_w.png,images/cb_w.png,,,,,,,,,,,,,,,,,,,,,,,,,
,,,,,,00113,2023-12-11_10h41.42.457,vbt_B2_day1,2022.2.4,Win32,61.47415012,,,,,,,,,,,,,,,,,,,0.191666709,0.189814815,1,0,0,3.0636,0,5,5,20,1,u,images/br_u.png,images/cb_u.png,,,,,,,,,,,,,,,,,,,,,,,,,
,,,,,,00113,2023-12-11_10h41.42.457,vbt_B2_day1,2022.2.4,Win32,61.47415012,,,,,,,,,,,,,,,,,,,0.191666709,0.189814815,1,0,0,6.3445,0,6,6,14,1,o,images/br_o.png,images/cb_o.png,,,,,,,,,,,,,,,,,,,,,,,,,
,,,,,,00113,2023-12-11_10h41.42.457,vbt_B2_day1,2022.2.4,Win32,61.47415012,,,,,,,,,,,,,,,,,,,0.191666709,0.189814815,1,0,0,2.2046,0,7,7,1,1,b,images/br_b.png,images/cb_b.png,,,,,,,,,,,,,,,,,,,,,,,,,
,,,,,,00113,2023-12-11_10h41.42.457,vbt_B2_day1,2022.2.4,Win32,61.47415012,,,,,,,,,,,,,,,,,,,0.191666709,0.189814815,1,0,0,0.633,0,8,8,16,1,q,images/br_q.png,images/cb_q.png,,,,,,,,,,,,,,,,,,,,,,,,,
,,,,,,00113,2023-12-11_10h41.42.457,vbt_B2_day1,2022.2.4,Win32,61.47415012,,,,,,,,,,,,,,,,,,,0.191666709,0.189814815,1,0,0,1.0158,0,9,9,11,1,l,images/br_l.png,images/cb_l.png,,,,,,,,,,,,,,,,,,,,,,,,,
,,,,,,00113,2023-12-11_10h41.42.457,vbt_B2_day1,2022.2.4,Win32,61.47415012,,,,,,,,,,,,,,,,,,,0.191666709,0.189814815,1,0,0,1.6321,0,10,10,9,1,j,images/br_j.png,images/cb_j.png,,,,,,,,,,,,,,,,,,,,,,,,,
,,,,,,00113,2023-12-11_10h41.42.457,vbt_B2_day1,2022.2.4,Win32,61.47415012,,,,,,,,,,,,,,,,,,,0.191666709,0.189814815,1,0,0,1.0825,0,11,11,6,1,g,images/br_g.png,images/cb_g.png,,,,,,,,,,,,,,,,,,,,,,,,,
,,,,,,00113,2023-12-11_10h41.42.457,vbt_B2_day1,2022.2.4,Win32,61.47415012,,,,,,,,,,,,,,,,,,,0.191666709,0.189814815,1,0,0,3.3161,0,12,12,4,1,e,images/br_e.png,images/cb_e.png,,,,,,,,,,,,,,,,,,,,,,,,,
,,,,,,00113,2023-12-11_10h41.42.457,vbt_B2_day1,2022.2.4,Win32,61.47415012,,,,,,,,,,,,,,,,,,,0.191666709,0.189814815,1,0,0,0.4997,0,13,13,13,1,n,images/br_n.png,images/cb_n.png,,,,,,,,,,,,,,,,,,,,,,,,,
,,,,,,00113,2023-12-11_10h41.42.457,vbt_B2_day1,2022.2.4,Win32,61.47415012,,,,,,,,,,,,,,,,,,,0.191666709,0.189814815,1,0,0,0.8488,0,14,14,24,1,y,images/br_y.png,images/cb_y.png,,,,,,,,,,,,,,,,,,,,,,,,,
,,,,,,00113,2023-12-11_10h41.42.457,vbt_B2_day1,2022.2.4,Win32,61.47415012,,,,,,,,,,,,,,,,,,,0.191666709,0.189814815,1,0,0,6.9433,0,15,15,7,1,h,images/br_h.png,images/cb_h.png,,,,,,,,,,,,,,,,,,,,,,,,,
,,,,,,00113,2023-12-11_10h41.42.457,vbt_B2_day1,2022.2.4,Win32,61.47415012,,,,,,,,,,,,,,,,,,,0.191666709,0.189814815,1,0,0,7.444,0,16,16,8,1,i,images/br_i.png,images/cb_i.png,,,,,,,,,,,,,,,,,,,,,,,,,
,,,,,,00113,2023-12-11_10h41.42.457,vbt_B2_day1,2022.2.4,Win32,61.47415012,,,,,,,,,,,,,,,,,,,0.191666709,0.189814815,1,0,0,1.5816,0,17,17,3,1,d,images/br_d.png,images/cb_d.png,,,,,,,,,,,,,,,,,,,,,,,,,
,,,,,,00113,2023-12-11_10h41.42.457,vbt_B2_day1,2022.2.4,Win32,61.47415012,,,,,,,,,,,,,,,,,,,0.191666709,0.189814815,1,0,0,2.8639,0,18,18,15,1,p,images/br_p.png,images/cb_p.png,,,,,,,,,,,,,,,,,,,,,,,,,
,,,,,,00113,2023-12-11_10h41.42.457,vbt_B2_day1,2022.2.4,Win32,61.47415012,,,,,,,,,,,,,,,,,,,0.191666709,0.189814815,1,0,0,0.4165,0,19,19,25,1,z,images/br_z.png,images/cb_z.png,,,,,,,,,,,,,,,,,,,,,,,,,
,,,,,,00113,2023-12-11_10h41.42.457,vbt_B2_day1,2022.2.4,Win32,61.47415012,,,,,,,,,,,,,,,,,,,0.191666709,0.189814815,1,0,0,0.8221,0,20,20,10,1,k,images/br_k.png,images/cb_k.png,,,,,,,,,,,,,,,,,,,,,,,,,
,,,,,,00113,2023-12-11_10h41.42.457,vbt_B2_day1,2022.2.4,Win32,61.47415012,,,,,,,,,,,,,,,,,,,0.191666709,0.189814815,1,0,0,2.3147,0,21,21,5,1,f,images/br_f.png,images/cb_f.png,,,,,,,,,,,,,,,,,,,,,,,,,
,,,,,,00113,2023-12-11_10h41.42.457,vbt_B2_day1,2022.2.4,Win32,61.47415012,,,,,,,,,,,,,,,,,,,0.191666709,0.189814815,1,0,0,5.6114,0,22,22,2,1,c,images/br_c.png,images/cb_c.png,,,,,,,,,,,,,,,,,,,,,,,,,
,,,,,,00113,2023-12-11_10h41.42.457,vbt_B2_day1,2022.2.4,Win32,61.47415012,,,,,,,,,,,,,,,,,,,0.191666709,0.189814815,1,0,0,4.3455,0,23,23,21,1,v,images/br_v.png,images/cb_v.png,,,,,,,,,,,,,,,,,,,,,,,,,
,,,,,,00113,2023-12-11_10h41.42.457,vbt_B2_day1,2022.2.4,Win32,61.47415012,,,,,,,,,,,,,,,,,,,0.191666709,0.189814815,1,0,0,11.1759,0,24,24,0,1,a,images/br_a.png,images/cb_a.png,,,,,,,,,,,,,,,,,,,,,,,,,
,,,,,,00113,2023-12-11_10h41.42.457,vbt_B2_day1,2022.2.4,Win32,61.47415012,,,,,,,,,,,,,,,,,,,0.191666709,0.189814815,1,0,0,0.6658,0,25,25,12,1,m,images/br_m.png,images/cb_m.png,,,,,,,,,,,,,,,,,,,,,,,,,
,,,,,,00113,2023-12-11_10h41.42.457,vbt_B2_day1,2022.2.4,Win32,61.47415012,,,,,,,,,,,,,,,,,,,0.191666709,0.189814815,1,0,0,1.3151,1,0,26,22,1,w,images/br_w.png,images/cb_w.png,,,,,,,,,,,,,,,,,,,,,,,,,
,,,,,,00113,2023-12-11_10h41.42.457,vbt_B2_day1,2022.2.4,Win32,61.47415012,,,,,,,,,,,,,,,,,,,0.191666709,0.189814815,1,0,0,3.1805,1,1,27,7,1,h,images/br_h.png,images/cb_h.png,,,,,,,,,,,,,,,,,,,,,,,,,
,,,,,,00113,2023-12-11_10h41.42.457,vbt_B2_day1,2022.2.4,Win32,61.47415012,,,,,,,,,,,,,,,,,,,0.191666709,0.189814815,1,0,0,1.2486,1,2,28,1,1,b,images/br_b.png,images/cb_b.png,,,,,,,,,,,,,,,,,,,,,,,,,
,,,,,,00113,2023-12-11_10h41.42.457,vbt_B2_day1,2022.2.4,Win32,61.47415012,,,,,,,,,,,,,,,,,,,0.191666709,0.189814815,1,0,0,5.8609,1,3,29,17,1,r,images/br_r.png,images/cb_r.png,,,,,,,,,,,,,,,,,,,,,,,,,
,,,,,,00113,2023-12-11_10h41.42.457,vbt_B2_day1,2022.2.4,Win32,61.47415012,,,,,,,,,,,,,,,,,,,0.191666709,0.189814815,1,0,0,5.9615,1,4,30,0,1,a,images/br_a.png,images/cb_a.png,,,,,,,,,,,,,,,,,,,,,,,,,
,,,,,,00113,2023-12-11_10h41.42.457,vbt_B2_day1,2022.2.4,Win32,61.47415012,,,,,,,,,,,,,,,,,,,0.191666709,0.189814815,1,0,0,2.631,1,5,31,21,1,v,images/br_v.png,images/cb_v.png,,,,,,,,,,,,,,,,,,,,,,,,,
,,,,,,00113,2023-12-11_10h41.42.457,vbt_B2_day1,2022.2.4,Win32,61.47415012,,,,,,,,,,,,,,,,,,,0.191666709,0.189814815,1,0,0,1.1152,1,6,32,6,1,g,images/br_g.png,images/cb_g.png,,,,,,,,,,,,,,,,,,,,,,,,,
,,,,,,00113,2023-12-11_10h41.42.457,vbt_B2_day1,2022.2.4,Win32,61.47415012,,,,,,,,,,,,,,,,,,,0.191666709,0.189814815,1,0,0,11.2556,1,7,33,20,1,u,images/br_u.png,images/cb_u.png,,,,,,,,,,,,,,,,,,,,,,,,,
,,,,,,00113,2023-12-11_10h41.42.457,vbt_B2_day1,2022.2.4,Win32,61.47415012,,,,,,,,,,,,,,,,,,,0.191666709,0.189814815,1,0,0,1.5381,1,8,34,9,1,j,images/br_j.png,images/cb_j.png,,,,,,,,,,,,,,,,,,,,,,,,,
,,,,,,00113,2023-12-11_10h41.42.457,vbt_B2_day1,2022.2.4,Win32,61.47415012,,,,,,,,,,,,,,,,,,,0.191666709,0.189814815,1,0,0,0.6496,1,9,35,23,1,x,images/br_x.png,images/cb_x.png,,,,,,,,,,,,,,,,,,,,,,,,,
,,,,,,00113,2023-12-11_10h41.42.457,vbt_B2_day1,2022.2.4,Win32,61.47415012,,,,,,,,,,,,,,,,,,,0.191666709,0.189814815,1,0,0,0.8489,1,10,36,5,1,f,images/br_f.png,images/cb_f.png,,,,,,,,,,,,,,,,,,,,,,,,,
,,,,,,00113,2023-12-11_10h41.42.457,vbt_B2_day1,2022.2.4,Win32,61.47415012,,,,,,,,,,,,,,,,,,,0.191666709,0.189814815,1,0,0,0.6325,1,11,37,8,1,i,images/br_i.png,images/cb_i.png,,,,,,,,,,,,,,,,,,,,,,,,,
,,,,,,00113,2023-12-11_10h41.42.457,vbt_B2_day1,2022.2.4,Win32,61.47415012,,,,,,,,,,,,,,,,,,,0.191666709,0.189814815,1,0,0,4.0958,1,12,38,10,1,k,images/br_k.png,images/cb_k.png,,,,,,,,,,,,,,,,,,,,,,,,,
,,,,,,00113,2023-12-11_10h41.42.457,vbt_B2_day1,2022.2.4,Win32,61.47415012,,,,,,,,,,,,,,,,,,,0.191666709,0.189814815,1,0,0,6.6797,1,13,39,19,1,t,images/br_t.png,images/cb_t.png,,,,,,,,,,,,,,,,,,,,,,,,,
,,,,,,00113,2023-12-11_10h41.42.457,vbt_B2_day1,2022.2.4,Win32,61.47415012,,,,,,,,,,,,,,,,,,,0.191666709,0.189814815,1,0,0,0.999,1,14,40,18,1,s,images/br_s.png,images/cb_s.png,,,,,,,,,,,,,,,,,,,,,,,,,
,,,,,,00113,2023-12-11_10h41.42.457,vbt_B2_day1,2022.2.4,Win32,61.47415012,,,,,,,,,,,,,,,,,,,0.191666709,0.189814815,1,0,0,0.0499,1,15,41,16,1,q,images/br_q.png,images/cb_q.png,,,,,,,,,,,,,,,,,,,,,,,,,
,,,,,,00113,2023-12-11_10h41.42.457,vbt_B2_day1,2022.2.4,Win32,61.47415012,,,,,,,,,,,,,,,,,,,0.191666709,0.189814815,1,0,0,1.3315,1,16,42,4,1,e,images/br_e.png,images/cb_e.png,,,,,,,,,,,,,,,,,,,,,,,,,
,,,,,,00113,2023-12-11_10h41.42.457,vbt_B2_day1,2022.2.4,Win32,61.47415012,,,,,,,,,,,,,,,,,,,0.191666709,0.189814815,1,0,0,3.8474,1,17,43,14,1,o,images/br_o.png,images/cb_o.png,,,,,,,,,,,,,,,,,,,,,,,,,
,,,,,,00113,2023-12-11_10h41.42.457,vbt_B2_day1,2022.2.4,Win32,61.47415012,,,,,,,,,,,,,,,,,,,0.191666709,0.189814815,1,0,0,5.2977,1,18,44,3,1,d,images/br_d.png,images/cb_d.png,,,,,,,,,,,,,,,,,,,,,,,,,
,,,,,,00113,2023-12-11_10h41.42.457,vbt_B2_day1,2022.2.4,Win32,61.47415012,,,,,,,,,,,,,,,,,,,0.191666709,0.189814815,1,0,0,0.2158,1,19,45,2,1,c,images/br_c.png,images/cb_c.png,,,,,,,,,,,,,,,,,,,,,,,,,
,,,,,,00113,2023-12-11_10h41.42.457,vbt_B2_day1,2022.2.4,Win32,61.47415012,,,,,,,,,,,,,,,,,,,0.191666709,0.189814815,1,0,0,4.3458,1,20,46,15,1,p,images/br_p.png,images/cb_p.png,,,,,,,,,,,,,,,,,,,,,,,,,
,,,,,,00113,2023-12-11_10h41.42.457,vbt_B2_day1,2022.2.4,Win32,61.47415012,,,,,,,,,,,,,,,,,,,0.191666709,0.189814815,1,0,0,0.3997,1,21,47,13,1,n,images/br_n.png,images/cb_n.png,,,,,,,,,,,,,,,,,,,,,,,,,
,,,,,,00113,2023-12-11_10h41.42.457,vbt_B2_day1,2022.2.4,Win32,61.47415012,,,,,,,,,,,,,,,,,,,0.191666709,0.189814815,1,0,0,0.2496,1,22,48,12,1,m,images/br_m.png,images/cb_m.png,,,,,,,,,,,,,,,,,,,,,,,,,
,,,,,,00113,2023-12-11_10h41.42.457,vbt_B2_day1,2022.2.4,Win32,61.47415012,,,,,,,,,,,,,,,,,,,0.199999986,0.115740741,1,0,0,1.4485,1,23,49,25,1,z,images/br_z.png,images/cb_z.png,,,,,,,,,,,,,,,,,,,,,,,,,
,,,,,,00113,2023-12-11_10h41.42.457,vbt_B2_day1,2022.2.4,Win32,61.47415012,,,,,,,,,,,,,,,,,,,0.199999986,0.115740741,1,0,0,0.8,1,24,50,11,1,l,images/br_l.png,images/cb_l.png,,,,,,,,,,,,,,,,,,,,,,,,,
,,,,,,00113,2023-12-11_10h41.42.457,vbt_B2_day1,2022.2.4,Win32,61.47415012,,,,,,,,,,,,,,,,,,,0.199999986,0.115740741,1,0,0,0.8651,1,25,51,24,1,y,images/br_y.png,images/cb_y.png,,,,,,,,,,,,,,,,,,,,,,,,,
,,,,,,00113,2023-12-11_10h41.42.457,vbt_B2_day1,2022.2.4,Win32,61.47415012,,,,,,,,,,,,,,,,,,,0.199999986,0.115740741,1,0,0,2.4651,2,0,52,21,1,v,images/br_v.png,images/cb_v.png,,,,,,,,,,,,,,,,,,,,,,,,,
,,,,,,00113,2023-12-11_10h41.42.457,vbt_B2_day1,2022.2.4,Win32,61.47415012,,,,,,,,,,,,,,,,,,,0.199999986,0.115740741,1,0,0,1.4986,2,1,53,12,1,m,images/br_m.png,images/cb_m.png,,,,,,,,,,,,,,,,,,,,,,,,,
,,,,,,00113,2023-12-11_10h41.42.457,vbt_B2_day1,2022.2.4,Win32,61.47415012,,,,,,,,,,,,,,,,,,,0.199999986,0.115740741,1,0,0,1.0489,2,2,54,6,1,g,images/br_g.png,images/cb_g.png,,,,,,,,,,,,,,,,,,,,,,,,,
,,,,,,00113,2023-12-11_10h41.42.457,vbt_B2_day1,2022.2.4,Win32,61.47415012,,,,,,,,,,,,,,,,,,,0.199999986,0.115740741,1,0,0,0.8163,2,3,55,1,1,b,images/br_b.png,images/cb_b.png,,,,,,,,,,,,,,,,,,,,,,,,,
,,,,,,00113,2023-12-11_10h41.42.457,vbt_B2_day1,2022.2.4,Win32,61.47415012,,,,,,,,,,,,,,,,,,,0.199999986,0.115740741,1,0,0,0.799,2,4,56,23,1,x,images/br_x.png,images/cb_x.png,,,,,,,,,,,,,,,,,,,,,,,,,
,,,,,,00113,2023-12-11_10h41.42.457,vbt_B2_day1,2022.2.4,Win32,61.47415012,,,,,,,,,,,,,,,,,,,0.199999986,0.115740741,1,0,0,1.6017,2,5,57,16,1,q,images/br_q.png,images/cb_q.png,,,,,,,,,,,,,,,,,,,,,,,,,
,,,,,,00113,2023-12-11_10h41.42.457,vbt_B2_day1,2022.2.4,Win32,61.47415012,,,,,,,,,,,,,,,,,,,0.199999986,0.115740741,1,0,0,1.6154,2,6,58,25,1,z,images/br_z.png,images/cb_z.png,,,,,,,,,,,,,,,,,,,,,,,,,
,,,,,,00113,2023-12-11_10h41.42.457,vbt_B2_day1,2022.2.4,Win32,61.47415012,,,,,,,,,,,,,,,,,,,0.199999986,0.115740741,1,0,0,1.5318,2,7,59,5,1,f,images/br_f.png,images/cb_f.png,,,,,,,,,,,,,,,,,,,,,,,,,
,,,,,,00113,2023-12-11_10h41.42.457,vbt_B2_day1,2022.2.4,Win32,61.47415012,,,,,,,,,,,,,,,,,,,0.199999986,0.115740741,1,0,0,0.0333,2,8,60,2,1,c,images/br_c.png,images/cb_c.png,,,,,,,,,,,,,,,,,,,,,,,,,
,,,,,,00113,2023-12-11_10h41.42.457,vbt_B2_day1,2022.2.4,Win32,61.47415012,,,,,,,,,,,,,,,,,,,0.199999986,0.115740741,1,0,0,0.1004,2,9,61,4,1,e,images/br_e.png,images/cb_e.png,,,,,,,,,,,,,,,,,,,,,,,,,
,,,,,,00113,2023-12-11_10h41.42.457,vbt_B2_day1,2022.2.4,Win32,61.47415012,,,,,,,,,,,,,,,,,,,0.199999986,0.115740741,1,0,0,0.2341,2,10,62,3,1,d,images/br_d.png,images/cb_d.png,,,,,,,,,,,,,,,,,,,,,,,,,
,,,,,,00113,2023-12-11_10h41.42.457,vbt_B2_day1,2022.2.4,Win32,61.47415012,,,,,,,,,,,,,,,,,,,0.199999986,0.115740741,1,0,0,0.7988,2,11,63,14,1,o,images/br_o.png,images/cb_o.png,,,,,,,,,,,,,,,,,,,,,,,,,
,,,,,,00113,2023-12-11_10h41.42.457,vbt_B2_day1,2022.2.4,Win32,61.47415012,,,,,,,,,,,,,,,,,,,0.199999986,0.115740741,1,0,0,6.8435,2,12,64,22,1,w,images/br_w.png,images/cb_w.png,,,,,,,,,,,,,,,,,,,,,,,,,
,,,,,,00113,2023-12-11_10h41.42.457,vbt_B2_day1,2022.2.4,Win32,61.47415012,,,,,,,,,,,,,,,,,,,0.199999986,0.115740741,1,0,0,0.3831,2,13,65,18,1,s,images/br_s.png,images/cb_s.png,,,,,,,,,,,,,,,,,,,,,,,,,
,,,,,,00113,2023-12-11_10h41.42.457,vbt_B2_day1,2022.2.4,Win32,61.47415012,,,,,,,,,,,,,,,,,,,0.199999986,0.115740741,1,0,0,6.6272,2,14,66,13,1,n,images/br_n.png,images/cb_n.png,,,,,,,,,,,,,,,,,,,,,,,,,
,,,,,,00113,2023-12-11_10h41.42.457,vbt_B2_day1,2022.2.4,Win32,61.47415012,,,,,,,,,,,,,,,,,,,0.199999986,0.115740741,1,0,0,3.9632,2,15,67,15,1,p,images/br_p.png,images/cb_p.png,,,,,,,,,,,,,,,,,,,,,,,,,
,,,,,,00113,2023-12-11_10h41.42.457,vbt_B2_day1,2022.2.4,Win32,61.47415012,,,,,,,,,,,,,,,,,,,0.199999986,0.115740741,1,0,0,0.3162,2,16,68,20,1,u,images/br_u.png,images/cb_u.png,,,,,,,,,,,,,,,,,,,,,,,,,
,,,,,,00113,2023-12-11_10h41.42.457,vbt_B2_day1,2022.2.4,Win32,61.47415012,,,,,,,,,,,,,,,,,,,0.199999986,0.115740741,1,0,0,0.4163,2,17,69,17,1,r,images/br_r.png,images/cb_r.png,,,,,,,,,,,,,,,,,,,,,,,,,
,,,,,,00113,2023-12-11_10h41.42.457,vbt_B2_day1,2022.2.4,Win32,61.47415012,,,,,,,,,,,,,,,,,,,0.199999986,0.115740741,1,0,0,1.4319,2,18,70,19,1,t,images/br_t.png,images/cb_t.png,,,,,,,,,,,,,,,,,,,,,,,,,
,,,,,,00113,2023-12-11_10h41.42.457,vbt_B2_day1,2022.2.4,Win32,61.47415012,,,,,,,,,,,,,,,,,,,0.199999986,0.115740741,1,0,0,0.466,2,19,71,9,1,j,images/br_j.png,images/cb_j.png,,,,,,,,,,,,,,,,,,,,,,,,,
,,,,,,00113,2023-12-11_10h41.42.457,vbt_B2_day1,2022.2.4,Win32,61.47415012,,,,,,,,,,,,,,,,,,,0.199999986,0.115740741,1,0,0,2.8638,2,20,72,7,1,h,images/br_h.png,images/cb_h.png,,,,,,,,,,,,,,,,,,,,,,,,,
,,,,,,00113,2023-12-11_10h41.42.457,vbt_B2_day1,2022.2.4,Win32,61.47415012,,,,,,,,,,,,,,,,,,,0.199999986,0.115740741,1,0,0,0.6329,2,21,73,10,1,k,images/br_k.png,images/cb_k.png,,,,,,,,,,,,,,,,,,,,,,,,,
,,,,,,00113,2023-12-11_10h41.42.457,vbt_B2_day1,2022.2.4,Win32,61.47415012,,,,,,,,,,,,,,,,,,,0.199999986,0.115740741,1,0,0,0.749,2,22,74,8,1,i,images/br_i.png,images/cb_i.png,,,,,,,,,,,,,,,,,,,,,,,,,
,,,,,,00113,2023-12-11_10h41.42.457,vbt_B2_day1,2022.2.4,Win32,61.47415012,,,,,,,,,,,,,,,,,,,0.20648151,0.02870369,1,0,0,1.6813,2,23,75,0,1,a,images/br_a.png,images/cb_a.png,,,,,,,,,,,,,,,,,,,,,,,,,
,,,,,,00113,2023-12-11_10h41.42.457,vbt_B2_day1,2022.2.4,Win32,61.47415012,,,,,,,,,,,,,,,,,,,0.20648151,0.02870369,1,0,0,1.7982,2,24,76,24,1,y,images/br_y.png,images/cb_y.png,,,,,,,,,,,,,,,,,,,,,,,,,
,,,,,,00113,2023-12-11_10h41.42.457,vbt_B2_day1,2022.2.4,Win32,61.47415012,,,,,,,,,,,,,,,,,,,0.220370399,-0.029629637,1,0,0,3.2677,2,25,77,11,1,l,images/br_l.png,images/cb_l.png,,,,,,,,,,,,,,,,,,,,,,,,,
,,,,,,00113,2023-12-11_10h41.42.457,vbt_B2_day1,2022.2.4,Win32,61.47415012,,,,,,,,,,,,,,,,,,,0.220370399,-0.029629637,1,0,0,0.3165,3,0,78,11,1,l,images/br_l.png,images/cb_l.png,,,,,,,,,,,,,,,,,,,,,,,,,
,,,,,,00113,2023-12-11_10h41.42.457,vbt_B2_day1,2022.2.4,Win32,61.47415012,,,,,,,,,,,,,,,,,,,0.220370399,-0.029629637,1,0,0,0.8666,3,1,79,20,1,u,images/br_u.png,images/cb_u.png,,,,,,,,,,,,,,,,,,,,,,,,,
,,,,,,00113,2023-12-11_10h41.42.457,vbt_B2_day1,2022.2.4,Win32,61.47415012,,,,,,,,,,,,,,,,,,,0.220370399,-0.029629637,1,0,0,0.3826,3,2,80,4,1,e,images/br_e.png,images/cb_e.png,,,,,,,,,,,,,,,,,,,,,,,,,
,,,,,,00113,2023-12-11_10h41.42.457,vbt_B2_day1,2022.2.4,Win32,61.47415012,,,,,,,,,,,,,,,,,,,0.220370399,-0.029629637,1,0,0,0.6493,3,3,81,16,1,q,images/br_q.png,images/cb_q.png,,,,,,,,,,,,,,,,,,,,,,,,,
,,,,,,00113,2023-12-11_10h41.42.457,vbt_B2_day1,2022.2.4,Win32,61.47415012,,,,,,,,,,,,,,,,,,,0.220370399,-0.029629637,1,0,0,0.1328,3,4,82,25,1,z,images/br_z.png,images/cb_z.png,,,,,,,,,,,,,,,,,,,,,,,,,
,,,,,,00113,2023-12-11_10h41.42.457,vbt_B2_day1,2022.2.4,Win32,61.47415012,,,,,,,,,,,,,,,,,,,0.220370399,-0.029629637,1,0,0,2.647,3,5,83,3,1,d,images/br_d.png,images/cb_d.png,,,,,,,,,,,,,,,,,,,,,,,,,
,,,,,,00113,2023-12-11_10h41.42.457,vbt_B2_day1,2022.2.4,Win32,61.47415012,,,,,,,,,,,,,,,,,,,0.220370399,-0.029629637,1,0,0,0.9824,3,6,84,8,1,i,images/br_i.png,images/cb_i.png,,,,,,,,,,,,,,,,,,,,,,,,,
,,,,,,00113,2023-12-11_10h41.42.457,vbt_B2_day1,2022.2.4,Win32,61.47415012,,,,,,,,,,,,,,,,,,,0.220370399,-0.029629637,1,0,0,0.2497,3,7,85,14,1,o,images/br_o.png,images/cb_o.png,,,,,,,,,,,,,,,,,,,,,,,,,
,,,,,,00113,2023-12-11_10h41.42.457,vbt_B2_day1,2022.2.4,Win32,61.47415012,,,,,,,,,,,,,,,,,,,0.220370399,-0.029629637,1,0,0,4.8955,3,8,86,7,1,h,images/br_h.png,images/cb_h.png,,,,,,,,,,,,,,,,,,,,,,,,,
,,,,,,00113,2023-12-11_10h41.42.457,vbt_B2_day1,2022.2.4,Win32,61.47415012,,,,,,,,,,,,,,,,,,,0.220370399,-0.029629637,1,0,0,2.5473,3,9,87,22,1,w,images/br_w.png,images/cb_w.png,,,,,,,,,,,,,,,,,,,,,,,,,
,,,,,,00113,2023-12-11_10h41.42.457,vbt_B2_day1,2022.2.4,Win32,61.47415012,,,,,,,,,,,,,,,,,,,0.220370399,-0.029629637,1,0,0,1.4485,3,10,88,23,1,x,images/br_x.png,images/cb_x.png,,,,,,,,,,,,,,,,,,,,,,,,,
,,,,,,00113,2023-12-11_10h41.42.457,vbt_B2_day1,2022.2.4,Win32,61.47415012,,,,,,,,,,,,,,,,,,,0.220370399,-0.029629637,1,0,0,0.2163,3,11,89,13,1,n,images/br_n.png,images/cb_n.png,,,,,,,,,,,,,,,,,,,,,,,,,
,,,,,,00113,2023-12-11_10h41.42.457,vbt_B2_day1,2022.2.4,Win32,61.47415012,,,,,,,,,,,,,,,,,,,0.220370399,-0.029629637,1,0,0,0.3664,3,12,90,0,1,a,images/br_a.png,images/cb_a.png,,,,,,,,,,,,,,,,,,,,,,,,,
,,,,,,00113,2023-12-11_10h41.42.457,vbt_B2_day1,2022.2.4,Win32,61.47415012,,,,,,,,,,,,,,,,,,,0.220370399,-0.029629637,1,0,0,0.0235,3,13,91,24,1,y,images/br_y.png,images/cb_y.png,,,,,,,,,,,,,,,,,,,,,,,,,
,,,,,,00113,2023-12-11_10h41.42.457,vbt_B2_day1,2022.2.4,Win32,61.47415012,,,,,,,,,,,,,,,,,,,0.220370399,-0.029629637,1,0,0,0.2666,3,14,92,6,1,g,images/br_g.png,images/cb_g.png,,,,,,,,,,,,,,,,,,,,,,,,,
,,,,,,00113,2023-12-11_10h41.42.457,vbt_B2_day1,2022.2.4,Win32,61.47415012,,,,,,,,,,,,,,,,,,,0.220370399,-0.029629637,1,0,0,2.598,3,15,93,12,1,m,images/br_m.png,images/cb_m.png,,,,,,,,,,,,,,,,,,,,,,,,,
,,,,,,00113,2023-12-11_10h41.42.457,vbt_B2_day1,2022.2.4,Win32,61.47415012,,,,,,,,,,,,,,,,,,,0.220370399,-0.029629637,1,0,0,0.3164,3,16,94,19,1,t,images/br_t.png,images/cb_t.png,,,,,,,,,,,,,,,,,,,,,,,,,
,,,,,,00113,2023-12-11_10h41.42.457,vbt_B2_day1,2022.2.4,Win32,61.47415012,,,,,,,,,,,,,,,,,,,0.220370399,-0.029629637,1,0,0,0.1328,3,17,95,15,1,p,images/br_p.png,images/cb_p.png,,,,,,,,,,,,,,,,,,,,,,,,,
,,,,,,00113,2023-12-11_10h41.42.457,vbt_B2_day1,2022.2.4,Win32,61.47415012,,,,,,,,,,,,,,,,,,,0.220370399,-0.029629637,1,0,0,0.0997,3,18,96,18,1,s,images/br_s.png,images/cb_s.png,,,,,,,,,,,,,,,,,,,,,,,,,
,,,,,,00113,2023-12-11_10h41.42.457,vbt_B2_day1,2022.2.4,Win32,61.47415012,,,,,,,,,,,,,,,,,,,0.220370399,-0.029629637,1,0,0,0.7157,3,19,97,5,1,f,images/br_f.png,images/cb_f.png,,,,,,,,,,,,,,,,,,,,,,,,,
,,,,,,00113,2023-12-11_10h41.42.457,vbt_B2_day1,2022.2.4,Win32,61.47415012,,,,,,,,,,,,,,,,,,,0.220370399,-0.029629637,1,0,0,1.1323,3,20,98,17,1,r,images/br_r.png,images/cb_r.png,,,,,,,,,,,,,,,,,,,,,,,,,
,,,,,,00113,2023-12-11_10h41.42.457,vbt_B2_day1,2022.2.4,Win32,61.47415012,,,,,,,,,,,,,,,,,,,0.220370399,-0.029629637,1,0,0,1.6989,3,21,99,21,1,v,images/br_v.png,images/cb_v.png,,,,,,,,,,,,,,,,,,,,,,,,,
,,,,,,00113,2023-12-11_10h41.42.457,vbt_B2_day1,2022.2.4,Win32,61.47415012,,,,,,,,,,,,,,,,,,,0.220370399,-0.029629637,1,0,0,0.2331,3,22,100,9,1,j,images/br_j.png,images/cb_j.png,,,,,,,,,,,,,,,,,,,,,,,,,
,,,,,,00113,2023-12-11_10h41.42.457,vbt_B2_day1,2022.2.4,Win32,61.47415012,,,,,,,,,,,,,,,,,,,0.220370399,-0.029629637,1,0,0,0.3827,3,23,101,2,1,c,images/br_c.png,images/cb_c.png,,,,,,,,,,,,,,,,,,,,,,,,,
,,,,,,00113,2023-12-11_10h41.42.457,vbt_B2_day1,2022.2.4,Win32,61.47415012,,,,,,,,,,,,,,,,,,,0.220370399,-0.029629637,1,0,0,0.45,3,24,102,1,1,b,images/br_b.png,images/cb_b.png,,,,,,,,,,,,,,,,,,,,,,,,,
,,,,,,00113,2023-12-11_10h41.42.457,vbt_B2_day1,2022.2.4,Win32,61.47415012,,,,,,,,,,,,,,,,,,,0.220370399,-0.029629637,1,0,0,5.2959,3,25,103,10,1,k,images/br_k.png,images/cb_k.png,,,,,,,,,,,,,,,,,,,,,,,,,
,,,,,,00113,2023-12-11_10h41.42.457,vbt_B2_day1,2022.2.4,Win32,61.47415012,,,,,,,,,,,,,,,,,,,0.220370399,-0.029629637,1,0,0,0.367,4,0,104,21,1,v,images/br_v.png,images/cb_v.png,,,,,,,,,,,,,,,,,,,,,,,,,
,,,,,,00113,2023-12-11_10h41.42.457,vbt_B2_day1,2022.2.4,Win32,61.47415012,,,,,,,,,,,,,,,,,,,0.220370399,-0.029629637,1,0,0,0.0524,4,1,105,15,1,p,images/br_p.png,images/cb_p.png,,,,,,,,,,,,,,,,,,,,,,,,,
,,,,,,00113,2023-12-11_10h41.42.457,vbt_B2_day1,2022.2.4,Win32,61.47415012,,,,,,,,,,,,,,,,,,,0.220370399,-0.029629637,1,0,0,0.4492,4,2,106,6,1,g,images/br_g.png,images/cb_g.png,,,,,,,,,,,,,,,,,,,,,,,,,
,,,,,,00113,2023-12-11_10h41.42.457,vbt_B2_day1,2022.2.4,Win32,61.47415012,,,,,,,,,,,,,,,,,,,0.220370399,-0.029629637,1,0,0,0.6161,4,3,107,8,1,i,images/br_i.png,images/cb_i.png,,,,,,,,,,,,,,,,,,,,,,,,,
,,,,,,00113,2023-12-11_10h41.42.457,vbt_B2_day1,2022.2.4,Win32,61.47415012,,,,,,,,,,,,,,,,,,,0.220370399,-0.029629637,1,0,0,0.5996,4,4,108,18,1,s,images/br_s.png,images/cb_s.png,,,,,,,,,,,,,,,,,,,,,,,,,
,,,,,,00113,2023-12-11_10h41.42.457,vbt_B2_day1,2022.2.4,Win32,61.47415012,,,,,,,,,,,,,,,,,,,0.220370399,-0.029629637,1,0,0,0.7819,4,5,109,3,1,d,images/br_d.png,images/cb_d.png,,,,,,,,,,,,,,,,,,,,,,,,,
,,,,,,00113,2023-12-11_10h41.42.457,vbt_B2_day1,2022.2.4,Win32,61.47415012,,,,,,,,,,,,,,,,,,,0.220370399,-0.029629637,1,0,0,0.1225,4,6,110,0,1,a,images/br_a.png,images/cb_a.png,,,,,,,,,,,,,,,,,,,,,,,,,
,,,,,,00113,2023-12-11_10h41.42.457,vbt_B2_day1,2022.2.4,Win32,61.47415012,,,,,,,,,,,,,,,,,,,0.220370399,-0.029629637,1,0,0,2.9802,4,7,111,5,1,f,images/br_f.png,images/cb_f.png,,,,,,,,,,,,,,,,,,,,,,,,,
,,,,,,00113,2023-12-11_10h41.42.457,vbt_B2_day1,2022.2.4,Win32,61.47415012,,,,,,,,,,,,,,,,,,,0.220370399,-0.029629637,1,0,0,0.3661,4,8,112,1,1,b,images/br_b.png,images/cb_b.png,,,,,,,,,,,,,,,,,,,,,,,,,
,,,,,,00113,2023-12-11_10h41.42.457,vbt_B2_day1,2022.2.4,Win32,61.47415012,,,,,,,,,,,,,,,,,,,0.220370399,-0.029629637,1,0,0,0.3998,4,9,113,17,1,r,images/br_r.png,images/cb_r.png,,,,,,,,,,,,,,,,,,,,,,,,,
,,,,,,00113,2023-12-11_10h41.42.457,vbt_B2_day1,2022.2.4,Win32,61.47415012,,,,,,,,,,,,,,,,,,,0.220370399,-0.029629637,1,0,0,0.1663,4,10,114,19,1,t,images/br_t.png,images/cb_t.png,,,,,,,,,,,,,,,,,,,,,,,,,
,,,,,,00113,2023-12-11_10h41.42.457,vbt_B2_day1,2022.2.4,Win32,61.47415012,,,,,,,,,,,,,,,,,,,0.220370399,-0.029629637,1,0,0,0.1832,4,11,115,9,1,j,images/br_j.png,images/cb_j.png,,,,,,,,,,,,,,,,,,,,,,,,,
,,,,,,00113,2023-12-11_10h41.42.457,vbt_B2_day1,2022.2.4,Win32,61.47415012,,,,,,,,,,,,,,,,,,,0.220370399,-0.029629637,1,0,0,0.5661,4,12,116,14,1,o,images/br_o.png,images/cb_o.png,,,,,,,,,,,,,,,,,,,,,,,,,
,,,,,,00113,2023-12-11_10h41.42.457,vbt_B2_day1,2022.2.4,Win32,61.47415012,,,,,,,,,,,,,,,,,,,0.220370399,-0.029629637,1,0,0,0.2328,4,13,117,24,1,y,images/br_y.png,images/cb_y.png,,,,,,,,,,,,,,,,,,,,,,,,,
,,,,,,00113,2023-12-11_10h41.42.457,vbt_B2_day1,2022.2.4,Win32,61.47415012,,,,,,,,,,,,,,,,,,,0.220370399,-0.029629637,1,0,0,1.8317,4,14,118,12,1,m,images/br_m.png,images/cb_m.png,,,,,,,,,,,,,,,,,,,,,,,,,
,,,,,,00113,2023-12-11_10h41.42.457,vbt_B2_day1,2022.2.4,Win32,61.47415012,,,,,,,,,,,,,,,,,,,0.220370399,-0.029629637,1,0,0,6.8934,4,15,119,23,1,x,images/br_x.png,images/cb_x.png,,,,,,,,,,,,,,,,,,,,,,,,,
,,,,,,00113,2023-12-11_10h41.42.457,vbt_B2_day1,2022.2.4,Win32,61.47415012,,,,,,,,,,,,,,,,,,,0.220370399,-0.029629637,1,0,0,0.2666,4,16,120,20,1,u,images/br_u.png,images/cb_u.png,,,,,,,,,,,,,,,,,,,,,,,,,
,,,,,,00113,2023-12-11_10h41.42.457,vbt_B2_day1,2022.2.4,Win32,61.47415012,,,,,,,,,,,,,,,,,,,0.220370399,-0.029629637,1,0,0,0.1835,4,17,121,25,1,z,images/br_z.png,images/cb_z.png,,,,,,,,,,,,,,,,,,,,,,,,,
,,,,,,00113,2023-12-11_10h41.42.457,vbt_B2_day1,2022.2.4,Win32,61.47415012,,,,,,,,,,,,,,,,,,,0.220370399,-0.029629637,1,0,0,0.5824,4,18,122,22,1,w,images/br_w.png,images/cb_w.png,,,,,,,,,,,,,,,,,,,,,,,,,
,,,,,,00113,2023-12-11_10h41.42.457,vbt_B2_day1,2022.2.4,Win32,61.47415012,,,,,,,,,,,,,,,,,,,0.220370399,-0.029629637,1,0,0,0.4164,4,19,123,13,1,n,images/br_n.png,images/cb_n.png,,,,,,,,,,,,,,,,,,,,,,,,,
,,,,,,00113,2023-12-11_10h41.42.457,vbt_B2_day1,2022.2.4,Win32,61.47415012,,,,,,,,,,,,,,,,,,,0.220370399,-0.029629637,1,0,0,0.2499,4,20,124,16,1,q,images/br_q.png,images/cb_q.png,,,,,,,,,,,,,,,,,,,,,,,,,
,,,,,,00113,2023-12-11_10h41.42.457,vbt_B2_day1,2022.2.4,Win32,61.47415012,,,,,,,,,,,,,,,,,,,0.220370399,-0.029629637,1,0,0,2.4639,4,21,125,10,1,k,images/br_k.png,images/cb_k.png,,,,,,,,,,,,,,,,,,,,,,,,,
,,,,,,00113,2023-12-11_10h41.42.457,vbt_B2_day1,2022.2.4,Win32,61.47415012,,,,,,,,,,,,,,,,,,,0.220370399,-0.029629637,1,0,0,0.8822,4,22,126,2,1,c,images/br_c.png,images/cb_c.png,,,,,,,,,,,,,,,,,,,,,,,,,
,,,,,,00113,2023-12-11_10h41.42.457,vbt_B2_day1,2022.2.4,Win32,61.47415012,,,,,,,,,,,,,,,,,,,0.220370399,-0.029629637,1,0,0,0.0329,4,23,127,4,1,e,images/br_e.png,images/cb_e.png,,,,,,,,,,,,,,,,,,,,,,,,,
,,,,,,00113,2023-12-11_10h41.42.457,vbt_B2_day1,2022.2.4,Win32,61.47415012,,,,,,,,,,,,,,,,,,,0.220370399,-0.029629637,1,0,0,0.4411,4,24,128,11,1,l,images/br_l.png,images/cb_l.png,,,,,,,,,,,,,,,,,,,,,,,,,
,,,,,,00113,2023-12-11_10h41.42.457,vbt_B2_day1,2022.2.4,Win32,61.47415012,,,,,,,,,,,,,,,,,,,0.220370399,-0.029629637,1,0,0,0.9155,4,25,129,7,1,h,images/br_h.png,images/cb_h.png,,,,,,,,,,,,,,,,,,,,,,,,,
,,,,,,00113,2023-12-11_10h41.42.457,vbt_B2_day1,2022.2.4,Win32,61.47415012,,,,,,,,,,,,,,,,,,,0.220370399,-0.029629637,1,0,0,0.4327,5,0,130,8,1,i,images/br_i.png,images/cb_i.png,,,,,,,,,,,,,,,,,,,,,,,,,
,,,,,,00113,2023-12-11_10h41.42.457,vbt_B2_day1,2022.2.4,Win32,61.47415012,,,,,,,,,,,,,,,,,,,0.220370399,-0.029629637,1,0,0,6.6606,5,1,131,7,1,h,images/br_h.png,images/cb_h.png,,,,,,,,,,,,,,,,,,,,,,,,,
,,,,,,00113,2023-12-11_10h41.42.457,vbt_B2_day1,2022.2.4,Win32,61.47415012,,,,,,,,,,,,,,,,,,,0.220370399,-0.029629637,1,0,0,0.7659,5,2,132,4,1,e,images/br_e.png,images/cb_e.png,,,,,,,,,,,,,,,,,,,,,,,,,
,,,,,,00113,2023-12-11_10h41.42.457,vbt_B2_day1,2022.2.4,Win32,61.47415012,,,,,,,,,,,,,,,,,,,0.220370399,-0.029629637,1,0,0,0.2661,5,3,133,6,1,g,images/br_g.png,images/cb_g.png,,,,,,,,,,,,,,,,,,,,,,,,,
,,,,,,00113,2023-12-11_10h41.42.457,vbt_B2_day1,2022.2.4,Win32,61.47415012,,,,,,,,,,,,,,,,,,,0.220370399,-0.029629637,1,0,0,0.0168,5,4,134,23,1,x,images/br_x.png,images/cb_x.png,,,,,,,,,,,,,,,,,,,,,,,,,
,,,,,,00113,2023-12-11_10h41.42.457,vbt_B2_day1,2022.2.4,Win32,61.47415012,,,,,,,,,,,,,,,,,,,0.220370399,-0.029629637,1,0,0,0.1505,5,5,135,20,1,u,images/br_u.png,images/cb_u.png,,,,,,,,,,,,,,,,,,,,,,,,,
,,,,,,00113,2023-12-11_10h41.42.457,vbt_B2_day1,2022.2.4,Win32,61.47415012,,,,,,,,,,,,,,,,,,,0.220370399,-0.029629637,1,0,0,0.8993,5,6,136,9,1,j,images/br_j.png,images/cb_j.png,,,,,,,,,,,,,,,,,,,,,,,,,
,,,,,,00113,2023-12-11_10h41.42.457,vbt_B2_day1,2022.2.4,Win32,61.47415012,,,,,,,,,,,,,,,,,,,0.220370399,-0.029629637,1,0,0,1.7653,5,7,137,18,1,s,images/br_s.png,images/cb_s.png,,,,,,,,,,,,,,,,,,,,,,,,,
,,,,,,00113,2023-12-11_10h41.42.457,vbt_B2_day1,2022.2.4,Win32,61.47415012,,,,,,,,,,,,,,,,,,,0.220370399,-0.029629637,1,0,0,0.6491,5,8,138,16,1,q,images/br_q.png,images/cb_q.png,,,,,,,,,,,,,,,,,,,,,,,,,
,,,,,,00113,2023-12-11_10h41.42.457,vbt_B2_day1,2022.2.4,Win32,61.47415012,,,,,,,,,,,,,,,,,,,0.220370399,-0.029629637,1,0,0,2.1822,5,9,139,10,1,k,images/br_k.png,images/cb_k.png,,,,,,,,,,,,,,,,,,,,,,,,,
,,,,,,00113,2023-12-11_10h41.42.457,vbt_B2_day1,2022.2.4,Win32,61.47415012,,,,,,,,,,,,,,,,,,,0.220370399,-0.029629637,1,0,0,0.3492,5,10,140,0,1,a,images/br_a.png,images/cb_a.png,,,,,,,,,,,,,,,,,,,,,,,,,
,,,,,,00113,2023-12-11_10h41.42.457,vbt_B2_day1,2022.2.4,Win32,61.47415012,,,,,,,,,,,,,,,,,,,0.220370399,-0.029629637,1,0,0,1.6811,5,11,141,12,1,m,images/br_m.png,images/cb_m.png,,,,,,,,,,,,,,,,,,,,,,,,,
,,,,,,00113,2023-12-11_10h41.42.457,vbt_B2_day1,2022.2.4,Win32,61.47415012,,,,,,,,,,,,,,,,,,,0.220370399,-0.029629637,1,0,0,0.2022,5,12,142,21,1,v,images/br_v.png,images/cb_v.png,,,,,,,,,,,,,,,,,,,,,,,,,
,,,,,,00113,2023-12-11_10h41.42.457,vbt_B2_day1,2022.2.4,Win32,61.47415012,,,,,,,,,,,,,,,,,,,0.220370399,-0.029629637,1,0,0,2.9141,5,13,143,22,1,w,images/br_w.png,images/cb_w.png,,,,,,,,,,,,,,,,,,,,,,,,,
,,,,,,00113,2023-12-11_10h41.42.457,vbt_B2_day1,2022.2.4,Win32,61.47415012,,,,,,,,,,,,,,,,,,,0.220370399,-0.029629637,1,0,0,0.1165,5,14,144,19,1,t,images/br_t.png,images/cb_t.png,,,,,,,,,,,,,,,,,,,,,,,,,
,,,,,,00113,2023-12-11_10h41.42.457,vbt_B2_day1,2022.2.4,Win32,61.47415012,,,,,,,,,,,,,,,,,,,0.220370399,-0.029629637,1,0,0,0.5332,5,15,145,11,1,l,images/br_l.png,images/cb_l.png,,,,,,,,,,,,,,,,,,,,,,,,,
,,,,,,00113,2023-12-11_10h41.42.457,vbt_B2_day1,2022.2.4,Win32,61.47415012,,,,,,,,,,,,,,,,,,,0.220370399,-0.029629637,1,0,0,0.1676,5,16,146,3,1,d,images/br_d.png,images/cb_d.png,,,,,,,,,,,,,,,,,,,,,,,,,
,,,,,,00113,2023-12-11_10h41.42.457,vbt_B2_day1,2022.2.4,Win32,61.47415012,,,,,,,,,,,,,,,,,,,0.220370399,-0.029629637,1,0,0,0.7992,5,17,147,5,1,f,images/br_f.png,images/cb_f.png,,,,,,,,,,,,,,,,,,,,,,,,,
,,,,,,00113,2023-12-11_10h41.42.457,vbt_B2_day1,2022.2.4,Win32,61.47415012,,,,,,,,,,,,,,,,,,,0.220370399,-0.029629637,1,0,0,2.1977,5,18,148,1,1,b,images/br_b.png,images/cb_b.png,,,,,,,,,,,,,,,,,,,,,,,,,
,,,,,,00113,2023-12-11_10h41.42.457,vbt_B2_day1,2022.2.4,Win32,61.47415012,,,,,,,,,,,,,,,,,,,0.220370399,-0.029629637,1,0,0,0.334,5,19,149,17,1,r,images/br_r.png,images/cb_r.png,,,,,,,,,,,,,,,,,,,,,,,,,
,,,,,,00113,2023-12-11_10h41.42.457,vbt_B2_day1,2022.2.4,Win32,61.47415012,,,,,,,,,,,,,,,,,,,0.220370399,-0.029629637,1,0,0,0.899,5,20,150,15,1,p,images/br_p.png,images/cb_p.png,,,,,,,,,,,,,,,,,,,,,,,,,
,,,,,,00113,2023-12-11_10h41.42.457,vbt_B2_day1,2022.2.4,Win32,61.47415012,,,,,,,,,,,,,,,,,,,0.220370399,-0.029629637,1,0,0,0.6664,5,21,151,25,1,z,images/br_z.png,images/cb_z.png,,,,,,,,,,,,,,,,,,,,,,,,,
,,,,,,00113,2023-12-11_10h41.42.457,vbt_B2_day1,2022.2.4,Win32,61.47415012,,,,,,,,,,,,,,,,,,,0.220370399,-0.029629637,1,0,0,2.1643,5,22,152,13,1,n,images/br_n.png,images/cb_n.png,,,,,,,,,,,,,,,,,,,,,,,,,
,,,,,,00113,2023-12-11_10h41.42.457,vbt_B2_day1,2022.2.4,Win32,61.47415012,,,,,,,,,,,,,,,,,,,0.220370399,-0.029629637,1,0,0,1.4482,5,23,153,2,1,c,images/br_c.png,images/cb_c.png,,,,,,,,,,,,,,,,,,,,,,,,,
,,,,,,00113,2023-12-11_10h41.42.457,vbt_B2_day1,2022.2.4,Win32,61.47415012,,,,,,,,,,,,,,,,,,,0.220370399,-0.029629637,1,0,0,1.748,5,24,154,14,1,o,images/br_o.png,images/cb_o.png,,,,,,,,,,,,,,,,,,,,,,,,,
,,,,,,00113,2023-12-11_10h41.42.457,vbt_B2_day1,2022.2.4,Win32,61.47415012,,,,,,,,,,,,,,,,,,,0.220370399,-0.029629637,1,0,0,0.0671,5,25,155,24,1,y,images/br_y.png,images/cb_y.png,,,,,,,,,,,,,,,,,,,,,,,,,
,,,,,,00113,2023-12-11_10h41.42.457,vbt_B2_day1,2022.2.4,Win32,61.47415012,,,,,,,,,,,,,,,,,,,0.220370399,-0.029629637,1,0,0,1.0154,6,0,156,8,1,i,images/br_i.png,images/cb_i.png,,,,,,,,,,,,,,,,,,,,,,,,,
,,,,,,00113,2023-12-11_10h41.42.457,vbt_B2_day1,2022.2.4,Win32,61.47415012,,,,,,,,,,,,,,,,,,,0.220370399,-0.029629637,1,0,0,0.283,6,1,157,6,1,g,images/br_g.png,images/cb_g.png,,,,,,,,,,,,,,,,,,,,,,,,,
,,,,,,00113,2023-12-11_10h41.42.457,vbt_B2_day1,2022.2.4,Win32,61.47415012,,,,,,,,,,,,,,,,,,,0.220370399,-0.029629637,1,0,0,0.5654,6,2,158,13,1,n,images/br_n.png,images/cb_n.png,,,,,,,,,,,,,,,,,,,,,,,,,
,,,,,,00113,2023-12-11_10h41.42.457,vbt_B2_day1,2022.2.4,Win32,61.47415012,,,,,,,,,,,,,,,,,,,0.220370399,-0.029629637,1,0,0,0.5825,6,3,159,0,1,a,images/br_a.png,images/cb_a.png,,,,,,,,,,,,,,,,,,,,,,,,,
,,,,,,00113,2023-12-11_10h41.42.457,vbt_B2_day1,2022.2.4,Win32,61.47415012,,,,,,,,,,,,,,,,,,,0.220370399,-0.029629637,1,0,0,0.3508,6,4,160,21,1,v,images/br_v.png,images/cb_v.png,,,,,,,,,,,,,,,,,,,,,,,,,
,,,,,,00113,2023-12-11_10h41.42.457,vbt_B2_day1,2022.2.4,Win32,61.47415012,,,,,,,,,,,,,,,,,,,0.220370399,-0.029629637,1,0,0,1.2159,6,5,161,25,1,z,images/br_z.png,images/cb_z.png,,,,,,,,,,,,,,,,,,,,,,,,,
,,,,,,00113,2023-12-11_10h41.42.457,vbt_B2_day1,2022.2.4,Win32,61.47415012,,,,,,,,,,,,,,,,,,,0.220370399,-0.029629637,1,0,0,4.4286,6,6,162,9,1,j,images/br_j.png,images/cb_j.png,,,,,,,,,,,,,,,,,,,,,,,,,
,,,,,,00113,2023-12-11_10h41.42.457,vbt_B2_day1,2022.2.4,Win32,61.47415012,,,,,,,,,,,,,,,,,,,0.220370399,-0.029629637,1,0,0,0.9664,6,7,163,12,1,m,images/br_m.png,images/cb_m.png,,,,,,,,,,,,,,,,,,,,,,,,,
,,,,,,00113,2023-12-11_10h41.42.457,vbt_B2_day1,2022.2.4,Win32,61.47415012,,,,,,,,,,,,,,,,,,,0.220370399,-0.029629637,1,0,0,3.2813,6,8,164,20,1,u,images/br_u.png,images/cb_u.png,,,,,,,,,,,,,,,,,,,,,,,,,
,,,,,,00113,2023-12-11_10h41.42.457,vbt_B2_day1,2022.2.4,Win32,61.47415012,,,,,,,,,,,,,,,,,,,0.220370399,-0.029629637,1,0,0,1.1318,6,9,165,4,1,e,images/br_e.png,images/cb_e.png,,,,,,,,,,,,,,,,,,,,,,,,,
,,,,,,00113,2023-12-11_10h41.42.457,vbt_B2_day1,2022.2.4,Win32,61.47415012,,,,,,,,,,,,,,,,,,,0.220370399,-0.029629637,1,0,0,2.6134,6,10,166,7,1,h,images/br_h.png,images/cb_h.png,,,,,,,,,,,,,,,,,,,,,,,,,
,,,,,,00113,2023-12-11_10h41.42.457,vbt_B2_day1,2022.2.4,Win32,61.47415012,,,,,,,,,,,,,,,,,,,0.220370399,-0.029629637,1,0,0,0.7659,6,11,167,1,1,b,images/br_b.png,images/cb_b.png,,,,,,,,,,,,,,,,,,,,,,,,,
,,,,,,00113,2023-12-11_10h41.42.457,vbt_B2_day1,2022.2.4,Win32,61.47415012,,,,,,,,,,,,,,,,,,,0.220370399,-0.029629637,1,0,0,1.5321,6,12,168,15,1,p,images/br_p.png,images/cb_p.png,,,,,,,,,,,,,,,,,,,,,,,,,
,,,,,,00113,2023-12-11_10h41.42.457,vbt_B2_day1,2022.2.4,Win32,61.47415012,,,,,,,,,,,,,,,,,,,0.220370399,-0.029629637,1,0,0,1.0323,6,13,169,22,1,w,images/br_w.png,images/cb_w.png,,,,,,,,,,,,,,,,,,,,,,,,,
,,,,,,00113,2023-12-11_10h41.42.457,vbt_B2_day1,2022.2.4,Win32,61.47415012,,,,,,,,,,,,,,,,,,,0.220370399,-0.029629637,1,0,0,2.8972,6,14,170,5,1,f,images/br_f.png,images/cb_f.png,,,,,,,,,,,,,,,,,,,,,,,,,
,,,,,,00113,2023-12-11_10h41.42.457,vbt_B2_day1,2022.2.4,Win32,61.47415012,,,,,,,,,,,,,,,,,,,0.220370399,-0.029629637,1,0,0,0.4497,6,15,171,24,1,y,images/br_y.png,images/cb_y.png,,,,,,,,,,,,,,,,,,,,,,,,,
,,,,,,00113,2023-12-11_10h41.42.457,vbt_B2_day1,2022.2.4,Win32,61.47415012,,,,,,,,,,,,,,,,,,,0.220370399,-0.029629637,1,0,0,0.9495,6,16,172,3,1,d,images/br_d.png,images/cb_d.png,,,,,,,,,,,,,,,,,,,,,,,,,
,,,,,,00113,2023-12-11_10h41.42.457,vbt_B2_day1,2022.2.4,Win32,61.47415012,,,,,,,,,,,,,,,,,,,0.220370399,-0.029629637,1,0,0,1.5316,6,17,173,18,1,s,images/br_s.png,images/cb_s.png,,,,,,,,,,,,,,,,,,,,,,,,,
,,,,,,00113,2023-12-11_10h41.42.457,vbt_B2_day1,2022.2.4,Win32,61.47415012,,,,,,,,,,,,,,,,,,,0.220370399,-0.029629637,1,0,0,0.1328,6,18,174,16,1,q,images/br_q.png,images/cb_q.png,,,,,,,,,,,,,,,,,,,,,,,,,
,,,,,,00113,2023-12-11_10h41.42.457,vbt_B2_day1,2022.2.4,Win32,61.47415012,,,,,,,,,,,,,,,,,,,0.220370399,-0.029629637,1,0,0,2.6304,6,19,175,10,1,k,images/br_k.png,images/cb_k.png,,,,,,,,,,,,,,,,,,,,,,,,,
,,,,,,00113,2023-12-11_10h41.42.457,vbt_B2_day1,2022.2.4,Win32,61.47415012,,,,,,,,,,,,,,,,,,,0.220370399,-0.029629637,1,0,0,0.1496,6,20,176,11,1,l,images/br_l.png,images/cb_l.png,,,,,,,,,,,,,,,,,,,,,,,,,
,,,,,,00113,2023-12-11_10h41.42.457,vbt_B2_day1,2022.2.4,Win32,61.47415012,,,,,,,,,,,,,,,,,,,0.220370399,-0.029629637,1,0,0,0.4991,6,21,177,2,1,c,images/br_c.png,images/cb_c.png,,,,,,,,,,,,,,,,,,,,,,,,,
,,,,,,00113,2023-12-11_10h41.42.457,vbt_B2_day1,2022.2.4,Win32,61.47415012,,,,,,,,,,,,,,,,,,,0.220370399,-0.029629637,1,0,0,0.15,6,22,178,23,1,x,images/br_x.png,images/cb_x.png,,,,,,,,,,,,,,,,,,,,,,,,,
,,,,,,00113,2023-12-11_10h41.42.457,vbt_B2_day1,2022.2.4,Win32,61.47415012,,,,,,,,,,,,,,,,,,,0.220370399,-0.029629637,1,0,0,0.1168,6,23,179,19,1,t,images/br_t.png,images/cb_t.png,,,,,,,,,,,,,,,,,,,,,,,,,
,,,,,,00113,2023-12-11_10h41.42.457,vbt_B2_day1,2022.2.4,Win32,61.47415012,,,,,,,,,,,,,,,,,,,0.220370399,-0.029629637,1,0,0,0.6499,6,24,180,14,1,o,images/br_o.png,images/cb_o.png,,,,,,,,,,,,,,,,,,,,,,,,,
,,,,,,00113,2023-12-11_10h41.42.457,vbt_B2_day1,2022.2.4,Win32,61.47415012,,,,,,,,,,,,,,,,,,,0.220370399,-0.029629637,1,0,0,1.4146,6,25,181,17,1,r,images/br_r.png,images/cb_r.png,,,,,,,,,,,,,,,,,,,,,,,,,
,,,,,,00113,2023-12-11_10h41.42.457,vbt_B2_day1,2022.2.4,Win32,61.47415012,,,,,,,,,,,,,,,,,,,,,,,,,,,,,,,,,-0.214814787,0.178703697,1,0,0,,,,,,,,,,,,,,,,,,,,
,,,,,,00113,2023-12-11_10h41.42.457,vbt_B2_day1,2022.2.4,Win32,61.47415012,,,,,,,,,,,,,,,,,,,,,,,,,,,,,,,,,,,,,,-0.091666681,0.017592571,1,0,0,,,,,,,,,,,,,,,
,,,,,,00113,2023-12-11_10h41.42.457,vbt_B2_day1,2022.2.4,Win32,61.47415012,,,,,,,,,,,,,,,,,,,,,,,,,,,,,,,,,,,,,,,,,,,0.437962991,0.032407407,1,0,0,.e.i.i.,.e.i.i.,0,0,0,18,1,uitdelen,images/br_uitdelen.png,images/cb_uitdelen.png
,,,,,,00113,2023-12-11_10h41.42.457,vbt_B2_day1,2022.2.4,Win32,61.47415012,,,,,,,,,,,,,,,,,,,,,,,,,,,,,,,,,,,,,,,,,,,0.026851866,0.022222201,1,0,0,...w...,...w...,0,1,1,13,1,twijfel,images/br_twijfel.png,images/cb_twijfel.png
,,,,,,00113,2023-12-11_10h41.42.457,vbt_B2_day1,2022.2.4,Win32,61.47415012,,,,,,,,,,,,,,,,,,,,,,,,,,,,,,,,,,,,,,,,,,,0.026851866,0.022222201,1,0,0,m..iek,m..iek,0,2,2,10,1,muziek,images/br_muziek.png,images/cb_muziek.png
,,,,,,00113,2023-12-11_10h41.42.457,vbt_B2_day1,2022.2.4,Win32,61.47415012,,,,,,,,,,,,,,,,,,,,,,,,,,,,,,,,,,,,,,,,,,,0.026851866,0.022222201,1,0,0,.ch.ile.,.ch.ile.,0,3,3,19,1,schuilen,images/br_schuilen.png,images/cb_schuilen.png
,,,,,,00113,2023-12-11_10h41.42.457,vbt_B2_day1,2022.2.4,Win32,61.47415012,,,,,,,,,,,,,,,,,,,,,,,,,,,,,,,,,,,,,,,,,,,0.026851866,0.022222201,1,0,0,kee.e.k.,kee.e.k.,0,4,4,57,1,meenemen,images/br_meenemen.png,images/cb_meenemen.png
,,,,,,00113,2023-12-11_10h41.42.457,vbt_B2_day1,2022.2.4,Win32,61.47415012,,,,,,,,,,,,,,,,,,,,,,,,,,,,,,,,,,,,,,,,,,,0.026851866,0.022222201,1,0,0,vijftig,vijftig,0,5,5,54,1,vijftig,images/br_vijftig.png,images/cb_vijftig.png
,,,,,,00113,2023-12-11_10h41.42.457,vbt_B2_day1,2022.2.4,Win32,61.47415012,,,,,,,,,,,,,,,,,,,,,,,,,,,,,,,,,,,,,,,,,,,0.026851866,0.022222201,1,0,0,op.laa.,op.laa.,0,6,6,53,1,opslaan,images/br_opslaan.png,images/cb_opslaan.png
,,,,,,00113,2023-12-11_10h41.42.457,vbt_B2_day1,2022.2.4,Win32,61.47415012,,,,,,,,,,,,,,,,,,,,,,,,,,,,,,,,,,,,,,,,,,,0.001851894,-0.196296339,1,0,0,vi.ier,vi.ier,0,7,7,49,1,vizier,images/br_vizier.png,images/cb_vizier.png
,,,,,,00113,2023-12-11_10h41.42.457,vbt_B2_day1,2022.2.4,Win32,61.47415012,,,,,,,,,,,,,,,,,,,,,,,,,,,,,,,,,,,,,,,,,,,0.238888917,-0.104629658,1,0,0,....,....,0,8,8,43,1,lava,images/br_lava.png,images/cb_lava.png
,,,,,,00113,2023-12-11_10h41.42.457,vbt_B2_day1,2022.2.4,Win32,61.47415012,,,,,,,,,,,,,,,,,,,,,,,,,,,,,,,,,,,,,,,,,,,0.236111111,-0.042592614,1,0,0,booi,booi,0,9,9,23,1,booi,images/br_booi.png,images/cb_booi.png
,,,,,,00113,2023-12-11_10h41.42.457,vbt_B2_day1,2022.2.4,Win32,61.47415012,,,,,,,,,,,,,,,,,,,,,,,,,,,,,,,,,,,,,,,,,,,0.236111111,-0.042592614,1,0,0,.tame.,.tame.,0,10,10,31,1,stamen,images/br_stamen.png,images/cb_stamen.png
,,,,,,00113,2023-12-11_10h41.42.457,vbt_B2_day1,2022.2.4,Win32,61.47415012,,,,,,,,,,,,,,,,,,,,,,,,,,,,,,,,,,,,,,,,,,,0.236111111,-0.042592614,1,0,0,daarheen,daarheen,0,11,11,16,1,daarheen,images/br_daarheen.png,images/cb_daarheen.png
,,,,,,00113,2023-12-11_10h41.42.457,vbt_B2_day1,2022.2.4,Win32,61.47415012,,,,,,,,,,,,,,,,,,,,,,,,,,,,,,,,,,,,,,,,,,,0.236111111,-0.042592614,1,0,0,kanjer,kanjer,0,12,12,8,1,kanjer,images/br_kanjer.png,images/cb_kanjer.png
,,,,,,00113,2023-12-11_10h41.42.457,vbt_B2_day1,2022.2.4,Win32,61.47415012,,,,,,,,,,,,,,,,,,,,,,,,,,,,,,,,,,,,,,,,,,,0.236111111,-0.042592614,1,0,0,bebrip,bebrip,0,13,13,28,1,bebrip,images/br_bebrip.png,images/cb_bebrip.png
,,,,,,00113,2023-12-11_10h41.42.457,vbt_B2_day1,2022.2.4,Win32,61.47415012,,,,,,,,,,,,,,,,,,,,,,,,,,,,,,,,,,,,,,,,,,,0.236111111,-0.042592614,1,0,0,.chielen,.chielen,0,14,14,38,1,schielen,images/br_schielen.png,images/cb_schielen.png
,,,,,,00113,2023-12-11_10h41.42.457,vbt_B2_day1,2022.2.4,Win32,61.47415012,,,,,,,,,,,,,,,,,,,,,,,,,,,,,,,,,,,,,,,,,,,0.236111111,-0.042592614,1,0,0,dief,dief,0,15,15,40,1,dief,images/br_dief.png,images/cb_dief.png
,,,,,,00113,2023-12-11_10h41.42.457,vbt_B2_day1,2022.2.4,Win32,61.47415012,,,,,,,,,,,,,,,,,,,,,,,,,,,,,,,,,,,,,,,,,,,0.236111111,-0.042592614,1,0,0,opvatten,opvatten,0,16,16,59,1,opvatten,images/br_opvatten.png,images/cb_opvatten.png
,,,,,,00113,2023-12-11_10h41.42.457,vbt_B2_day1,2022.2.4,Win32,61.47415012,,,,,,,,,,,,,,,,,,,,,,,,,,,,,,,,,,,,,,,,,,,0.236111111,-0.042592614,1,0,0,re.er,re.er,0,17,17,24,1,rezer,images/br_rezer.png,images/cb_rezer.png
,,,,,,00113,2023-12-11_10h41.42.457,vbt_B2_day1,2022.2.4,Win32,61.47415012,,,,,,,,,,,,,,,,,,,,,,,,,,,,,,,,,,,,,,,,,,,0.236111111,-0.042592614,1,0,0,liefde,liefde,0,18,18,51,1,liefde,images/br_liefde.png,images/cb_liefde.png
,,,,,,00113,2023-12-11_10h41.42.457,vbt_B2_day1,2022.2.4,Win32,61.47415012,,,,,,,,,,,,,,,,,,,,,,,,,,,,,,,,,,,,,,,,,,,0.236111111,-0.042592614,1,0,0,flullen,flullen,0,19,19,33,1,flullen,images/br_flullen.png,images/cb_flullen.png
,,,,,,00113,2023-12-11_10h41.42.457,vbt_B2_day1,2022.2.4,Win32,61.47415012,,,,,,,,,,,,,,,,,,,,,,,,,,,,,,,,,,,,,,,,,,,0.044444473,-0.187962991,1,0,0,voorwe.r,voorwe.r,0,20,20,58,1,voorkeur,images/br_voorkeur.png,images/cb_voorkeur.png
,,,,,,00113,2023-12-11_10h41.42.457,vbt_B2_day1,2022.2.4,Win32,61.47415012,,,,,,,,,,,,,,,,,,,,,,,,,,,,,,,,,,,,,,,,,,,0.079629616,-0.286111125,1,0,0,loods,loods,0,21,21,47,1,loods,images/br_loods.png,images/cb_loods.png
,,,,,,00113,2023-12-11_10h41.42.457,vbt_B2_day1,2022.2.4,Win32,61.47415012,,,,,,,,,,,,,,,,,,,,,,,,,,,,,,,,,,,,,,,,,,,0.079629616,-0.286111125,1,0,0,prort,prort,0,22,22,27,1,prort,images/br_prort.png,images/cb_prort.png
,,,,,,00113,2023-12-11_10h41.42.457,vbt_B2_day1,2022.2.4,Win32,61.47415012,,,,,,,,,,,,,,,,,,,,,,,,,,,,,,,,,,,,,,,,,,,0.079629616,-0.286111125,1,0,0,fictie,fictie,0,23,23,48,1,fictie,images/br_fictie.png,images/cb_fictie.png
,,,,,,00113,2023-12-11_10h41.42.457,vbt_B2_day1,2022.2.4,Win32,61.47415012,,,,,,,,,,,,,,,,,,,,,,,,,,,,,,,,,,,,,,,,,,,0.079629616,-0.286111125,1,0,0,klauw,klauw,0,24,24,7,1,klauw,images/br_klauw.png,images/cb_klauw.png
,,,,,,00113,2023-12-11_10h41.42.457,vbt_B2_day1,2022.2.4,Win32,61.47415012,,,,,,,,,,,,,,,,,,,,,,,,,,,,,,,,,,,,,,,,,,,0.079629616,-0.286111125,1,0,0,vervaden,vervaden,0,25,25,36,1,vervaden,images/br_vervaden.png,images/cb_vervaden.png
,,,,,,00113,2023-12-11_10h41.42.457,vbt_B2_day1,2022.2.4,Win32,61.47415012,,,,,,,,,,,,,,,,,,,,,,,,,,,,,,,,,,,,,,,,,,,0.079629616,-0.286111125,1,0,0,genond,genond,0,26,26,29,1,genond,images/br_genond.png,images/cb_genond.png
,,,,,,00113,2023-12-11_10h41.42.457,vbt_B2_day1,2022.2.4,Win32,61.47415012,,,,,,,,,,,,,,,,,,,,,,,,,,,,,,,,,,,,,,,,,,,0.079629616,-0.286111125,1,0,0,dred,dred,0,27,27,21,1,dred,images/br_dred.png,images/cb_dred.png
,,,,,,00113,2023-12-11_10h41.42.457,vbt_B2_day1,2022.2.4,Win32,61.47415012,,,,,,,,,,,,,,,,,,,,,,,,,,,,,,,,,,,,,,,,,,,0.079629616,-0.286111125,1,0,0,.t.k,.t.k,0,28,28,42,1,stuk,images/br_stuk.png,images/cb_stuk.png
,,,,,,00113,2023-12-11_10h41.42.457,vbt_B2_day1,2022.2.4,Win32,61.47415012,,,,,,,,,,,,,,,,,,,,,,,,,,,,,,,,,,,,,,,,,,,0.079629616,-0.286111125,1,0,0,.c.hep,.c.hep,0,29,29,4,1,schep,images/br_schep.png,images/cb_schep.png
,,,,,,00113,2023-12-11_10h41.42.457,vbt_B2_day1,2022.2.4,Win32,61.47415012,,,,,,,,,,,,,,,,,,,,,,,,,,,,,,,,,,,,,,,,,,,0.079629616,-0.286111125,1,0,0,knoe,knoe,0,30,30,22,1,knoe,images/br_knoe.png,images/cb_knoe.png
,,,,,,00113,2023-12-11_10h41.42.457,vbt_B2_day1,2022.2.4,Win32,61.47415012,,,,,,,,,,,,,,,,,,,,,,,,,,,,,,,,,,,,,,,,,,,0.079629616,-0.286111125,1,0,0,.kiplap,.kiplap,0,31,31,52,1,zuiplap,images/br_zuiplap.png,images/cb_zuiplap.png
,,,,,,00113,2023-12-11_10h41.42.457,vbt_B2_day1,2022.2.4,Win32,61.47415012,,,,,,,,,,,,,,,,,,,,,,,,,,,,,,,,,,,,,,,,,,,0.079629616,-0.286111125,1,0,0,hiervt.,hiervt.,0,32,32,15,1,hiervan,images/br_hiervan.png,images/cb_hiervan.png
,,,,,,00113,2023-12-11_10h41.42.457,vbt_B2_day1,2022.2.4,Win32,61.47415012,,,,,,,,,,,,,,,,,,,,,,,,,,,,,,,,,,,,,,,,,,,0.079629616,-0.286111125,1,0,0,Attentie,Attentie,0,33,33,17,1,attentie,images/br_attentie.png,images/cb_attentie.png
,,,,,,00113,2023-12-11_10h41.42.457,vbt_B2_day1,2022.2.4,Win32,61.47415012,,,,,,,,,,,,,,,,,,,,,,,,,,,,,,,,,,,,,,,,,,,0.079629616,-0.286111125,1,0,0,valop,valop,0,34,34,26,1,valop,images/br_valop.png,images/cb_valop.png
,,,,,,00113,2023-12-11_10h41.42.457,vbt_B2_day1,2022.2.4,Win32,61.47415012,,,,,,,,,,,,,,,,,,,,,,,,,,,,,,,,,,,,,,,,,,,0.079629616,-0.286111125,1,0,0,reedje,reedje,0,35,35,30,1,reedje,images/br_reedje.png,images/cb_reedje.png
,,,,,,00113,2023-12-11_10h41.42.457,vbt_B2_day1,2022.2.4,Win32,61.47415012,,,,,,,,,,,,,,,,,,,,,,,,,,,,,,,,,,,,,,,,,,,0.079629616,-0.286111125,1,0,0,lochten,lochten,0,36,36,34,1,lochten,images/br_lochten.png,images/cb_lochten.png
,,,,,,00113,2023-12-11_10h41.42.457,vbt_B2_day1,2022.2.4,Win32,61.47415012,,,,,,,,,,,,,,,,,,,,,,,,,,,,,,,,,,,,,,,,,,,0.079629616,-0.286111125,1,0,0,brejk,brejk,0,37,37,25,1,brijk,images/br_brijk.png,images/cb_brijk.png
,,,,,,00113,2023-12-11_10h41.42.457,vbt_B2_day1,2022.2.4,Win32,61.47415012,,,,,,,,,,,,,,,,,,,,,,,,,,,,,,,,,,,,,,,,,,,-0.015740712,-0.202777792,1,0,0,.lak,.lak,0,38,38,0,1,slak,images/br_slak.png,images/cb_slak.png
,,,,,,00113,2023-12-11_10h41.42.457,vbt_B2_day1,2022.2.4,Win32,61.47415012,,,,,,,,,,,,,,,,,,,,,,,,,,,,,,,,,,,,,,,,,,,-0.015740712,-0.202777792,1,0,0,bleek,bleek,0,39,39,6,1,bleek,images/br_bleek.png,images/cb_bleek.png
,,,,,,00113,2023-12-11_10h41.42.457,vbt_B2_day1,2022.2.4,Win32,61.47415012,,,,,,,,,,,,,,,,,,,,,,,,,,,,,,,,,,,,,,,,,,,-0.015740712,-0.202777792,1,0,0,meneng,meneng,0,40,40,11,1,mening,images/br_mening.png,images/cb_mening.png
,,,,,,00113,2023-12-11_10h41.42.457,vbt_B2_day1,2022.2.4,Win32,61.47415012,,,,,,,,,,,,,,,,,,,,,,,,,,,,,,,,,,,,,,,,,,,-0.015740712,-0.202777792,1,0,0,liegen,liegen,0,41,41,50,1,liegen,images/br_liegen.png,images/cb_liegen.png
,,,,,,00113,2023-12-11_10h41.42.457,vbt_B2_day1,2022.2.4,Win32,61.47415012,,,,,,,,,,,,,,,,,,,,,,,,,,,,,,,,,,,,,,,,,,,-0.015740712,-0.20185188,1,0,0,d.bbel,d.bbel,0,42,42,9,1,dubbel,images/br_dubbel.png,images/cb_dubbel.png
,,,,,,00113,2023-12-11_10h41.42.457,vbt_B2_day1,2022.2.4,Win32,61.47415012,,,,,,,,,,,,,,,,,,,,,,,,,,,,,,,,,,,,,,,,,,,0.023148148,-0.276851866,1,0,0,hemel,hemel,0,43,43,45,1,hemel,images/br_hemel.png,images/cb_hemel.png
,,,,,,00113,2023-12-11_10h41.42.457,vbt_B2_day1,2022.2.4,Win32,61.47415012,,,,,,,,,,,,,,,,,,,,,,,,,,,,,,,,,,,,,,,,,,,0.023148148,-0.276851866,1,0,0,toenicht,toenicht,0,44,44,56,1,toezicht,images/br_toezicht.png,images/cb_toezicht.png
,,,,,,00113,2023-12-11_10h41.42.457,vbt_B2_day1,2022.2.4,Win32,61.47415012,,,,,,,,,,,,,,,,,,,,,,,,,,,,,,,,,,,,,,,,,,,0.023148148,-0.276851866,1,0,0,tars,tars,0,45,45,20,1,tars,images/br_tars.png,images/cb_tars.png
,,,,,,00113,2023-12-11_10h41.42.457,vbt_B2_day1,2022.2.4,Win32,61.47415012,,,,,,,,,,,,,,,,,,,,,,,,,,,,,,,,,,,,,,,,,,,0.023148148,-0.276851866,1,0,0,klimmen,klimmen,0,46,46,12,1,klimmen,images/br_klimmen.png,images/cb_klimmen.png
,,,,,,00113,2023-12-11_10h41.42.457,vbt_B2_day1,2022.2.4,Win32,61.47415012,,,,,,,,,,,,,,,,,,,,,,,,,,,,,,,,,,,,,,,,,,,0.023148148,-0.276851866,1,0,0,hoog,hoog,0,47,47,41,1,hoog,images/br_hoog.png,images/cb_hoog.png
,,,,,,00113,2023-12-11_10h41.42.457,vbt_B2_day1,2022.2.4,Win32,61.47415012,,,,,,,,,,,,,,,,,,,,,,,,,,,,,,,,,,,,,,,,,,,0.023148148,-0.276851866,1,0,0,maken,maken,0,48,48,5,1,maken,images/br_maken.png,images/cb_maken.png
,,,,,,00113,2023-12-11_10h41.42.457,vbt_B2_day1,2022.2.4,Win32,61.47415012,,,,,,,,,,,,,,,,,,,,,,,,,,,,,,,,,,,,,,,,,,,0.023148148,-0.276851866,1,0,0,jaar,jaar,0,49,49,2,1,jaar,images/br_jaar.png,images/cb_jaar.png
,,,,,,00113,2023-12-11_10h41.42.457,vbt_B2_day1,2022.2.4,Win32,61.47415012,,,,,,,,,,,,,,,,,,,,,,,,,,,,,,,,,,,,,,,,,,,0.025000042,-0.284259302,1,0,0,tekenen,tekenen,0,50,50,55,1,tekenen,images/br_tekenen.png,images/cb_tekenen.png
,,,,,,00113,2023-12-11_10h41.42.457,vbt_B2_day1,2022.2.4,Win32,61.47415012,,,,,,,,,,,,,,,,,,,,,,,,,,,,,,,,,,,,,,,,,,,0.025000042,-0.284259302,1,0,0,.aal,.aal,0,51,51,1,1,zaal,images/br_zaal.png,images/cb_zaal.png
,,,,,,00113,2023-12-11_10h41.42.457,vbt_B2_day1,2022.2.4,Win32,61.47415012,,,,,,,,,,,,,,,,,,,,,,,,,,,,,,,,,,,,,,,,,,,0.025000042,-0.284259302,1,0,0,opplaan,opplaan,0,52,52,32,1,opplaan,images/br_opplaan.png,images/cb_opplaan.png
,,,,,,00113,2023-12-11_10h41.42.457,vbt_B2_day1,2022.2.4,Win32,61.47415012,,,,,,,,,,,,,,,,,,,,,,,,,,,,,,,,,,,,,,,,,,,0.025000042,-0.284259302,1,0,0,waarvan,waarvan,0,53,53,14,1,waarvan,images/br_waarvan.png,images/cb_waarvan.png
,,,,,,00113,2023-12-11_10h41.42.457,vbt_B2_day1,2022.2.4,Win32,61.47415012,,,,,,,,,,,,,,,,,,,,,,,,,,,,,,,,,,,,,,,,,,,0.025000042,-0.284259302,1,0,0,voorre.t,voorre.t,0,54,54,39,1,voorreur,images/br_voorreur.png,images/cb_voorreur.png
,,,,,,00113,2023-12-11_10h41.42.457,vbt_B2_day1,2022.2.4,Win32,61.47415012,,,,,,,,,,,,,,,,,,,,,,,,,,,,,,,,,,,,,,,,,,,0.025000042,-0.284259302,1,0,0,st.ikem,st.ikem,0,55,55,35,1,stuikem,images/br_stuikem.png,images/cb_stuikem.png
,,,,,,00113,2023-12-11_10h41.42.457,vbt_B2_day1,2022.2.4,Win32,61.47415012,,,,,,,,,,,,,,,,,,,,,,,,,,,,,,,,,,,,,,,,,,,0.025000042,-0.284259302,1,0,0,spa.nind,spa.nind,0,56,56,37,1,spanzing,images/br_spanzing.png,images/cb_spanzing.png
,,,,,,00113,2023-12-11_10h41.42.457,vbt_B2_day1,2022.2.4,Win32,61.47415012,,,,,,,,,,,,,,,,,,,,,,,,,,,,,,,,,,,,,,,,,,,0.025000042,-0.284259302,1,0,0,le.en,le.en,0,57,57,46,1,lezen,images/br_lezen.png,images/cb_lezen.png
,,,,,,00113,2023-12-11_10h41.42.457,vbt_B2_day1,2022.2.4,Win32,61.47415012,,,,,,,,,,,,,,,,,,,,,,,,,,,,,,,,,,,,,,,,,,,0.025000042,-0.284259302,1,0,0,wij.e,wij.e,0,58,58,44,1,wijze,images/br_wijze.png,images/cb_wijze.png
,,,,,,00113,2023-12-11_10h41.42.457,vbt_B2_day1,2022.2.4,Win32,61.47415012,,,,,,,,,,,,,,,,,,,,,,,,,,,,,,,,,,,,,,,,,,,0.025000042,-0.284259302,1,0,0,mand,mand,0,59,59,3,1,mand,images/br_mand.png,images/cb_mand.png
,,,,,,00113,2023-12-11_10h41.42.457,vbt_B2_day1,2022.2.4,Win32,61.47415012,,,,,,,,,,,,,,,,,,,,,,,,,,,,,,,,,,,,,,,,,,,,,,,,,,,,,,,,,
