welcome_mouse.x,welcome_mouse.y,welcome_mouse.leftButton,welcome_mouse.midButton,welcome_mouse.rightButton,welcome_mouse.time,"ID",date,expName,psychopyVersion,OS,frameRate,participant,mouse_2.x,mouse_2.y,mouse_2.leftButton,mouse_2.midButton,mouse_2.rightButton,mouse_2.time,mouse_3.x,mouse_3.y,mouse_3.leftButton,mouse_3.midButton,mouse_3.rightButton,mouse_3.time,train_mouse.x,train_mouse.y,train_mouse.leftButton,train_mouse.midButton,train_mouse.rightButton,train_mouse.time,braille_mouse.x,braille_mouse.y,braille_mouse.leftButton,braille_mouse.midButton,braille_mouse.rightButton,braille_mouse.time,trials.thisRepN,trials.thisTrialN,trials.thisN,trials.thisIndex,trials.ran,nlLet,brLet,cbLet,mouse.x,mouse.y,mouse.leftButton,mouse.midButton,mouse.rightButton,testInstr_mouse.x,testInstr_mouse.y,testInstr_mouse.leftButton,testInstr_mouse.midButton,testInstr_mouse.rightButton,test_mouse.x,test_mouse.y,test_mouse.leftButton,test_mouse.midButton,test_mouse.rightButton,test_response.text,testResp,test_loop.thisRepN,test_loop.thisTrialN,test_loop.thisN,test_loop.thisIndex,test_loop.ran,nlWrd,brWrd,cbWrd
0.326904297,-0.102412499,1,0,0,20.7938,,2023-07-24_10h46.00.545,vbt_B2_day1,2022.2.4,Linux armv8l,59.87665409,52204,,,,,,,,,,,,,,,,,,,,,,,,,,,,,,,,,,,,,,,,,,,,,,,,,,,,,,,,,
,,,,,,,2023-07-24_10h46.00.545,vbt_B2_day1,2022.2.4,Linux armv8l,59.87665409,52204,0.428466797,-0.078608788,1,0,0,11.8771,,,,,,,,,,,,,,,,,,,,,,,,,,,,,,,,,,,,,,,,,,,,,,,,,,,
,,,,,,,2023-07-24_10h46.00.545,vbt_B2_day1,2022.2.4,Linux armv8l,59.87665409,52204,,,,,,,0.463700019,-0.213429599,1,0,0,25.3253,,,,,,,,,,,,,,,,,,,,,,,,,,,,,,,,,,,,,,,,,,,,,
,,,,,,,2023-07-24_10h46.00.545,vbt_B2_day1,2022.2.4,Linux armv8l,59.87665409,52204,,,,,,,,,,,,,0.57742886,-0.078663932,1,0,0,20.7276,,,,,,,,,,,,,,,,,,,,,,,,,,,,,,,,,,,,,,,
,,,,,,,2023-07-24_10h46.00.545,vbt_B2_day1,2022.2.4,Linux armv8l,59.87665409,52204,,,,,,,,,,,,,,,,,,,0.596471829,-0.017872916,1,0,0,2.3894,0,0,0,1,1,b,images/br_b.png,images/cb_b.png,,,,,,,,,,,,,,,,,,,,,,,,,
,,,,,,,2023-07-24_10h46.00.545,vbt_B2_day1,2022.2.4,Linux armv8l,59.87665409,52204,,,,,,,,,,,,,,,,,,,0.691686673,0.040476693,1,0,0,4.6907,0,1,1,18,1,s,images/br_s.png,images/cb_s.png,,,,,,,,,,,,,,,,,,,,,,,,,
,,,,,,,2023-07-24_10h46.00.545,vbt_B2_day1,2022.2.4,Linux armv8l,59.87665409,52204,,,,,,,,,,,,,,,,,,,0.757808092,0.040720834,1,0,0,3.7861,0,2,2,3,1,d,images/br_d.png,images/cb_d.png,,,,,,,,,,,,,,,,,,,,,,,,,
,,,,,,,2023-07-24_10h46.00.545,vbt_B2_day1,2022.2.4,Linux armv8l,59.87665409,52204,,,,,,,,,,,,,,,,,,,0.772090318,0.057322396,1,0,0,3.4751,0,3,3,6,1,g,images/br_g.png,images/cb_g.png,,,,,,,,,,,,,,,,,,,,,,,,,
,,,,,,,2023-07-24_10h46.00.545,vbt_B2_day1,2022.2.4,Linux armv8l,59.87665409,52204,,,,,,,,,,,,,,,,,,,0.765213691,0.049509896,1,0,0,5.0402,0,4,4,11,1,l,images/br_l.png,images/cb_l.png,,,,,,,,,,,,,,,,,,,,,,,,,
,,,,,,,2023-07-24_10h46.00.545,vbt_B2_day1,2022.2.4,Linux armv8l,59.87665409,52204,,,,,,,,,,,,,,,,,,,0.682165188,-0.117970573,1,0,0,2.6159,0,5,5,23,1,x,images/br_x.png,images/cb_x.png,,,,,,,,,,,,,,,,,,,,,,,,,
,,,,,,,2023-07-24_10h46.00.545,vbt_B2_day1,2022.2.4,Linux armv8l,59.87665409,52204,,,,,,,,,,,,,,,,,,,0.544103665,-0.037892448,1,0,0,0.6122,0,6,6,20,1,u,images/br_u.png,images/cb_u.png,,,,,,,,,,,,,,,,,,,,,,,,,
,,,,,,,2023-07-24_10h46.00.545,vbt_B2_day1,2022.2.4,Linux armv8l,59.87665409,52204,,,,,,,,,,,,,,,,,,,0.703324042,-0.021535026,1,0,0,3.8275,0,7,7,15,1,p,images/br_p.png,images/cb_p.png,,,,,,,,,,,,,,,,,,,,,,,,,
,,,,,,,2023-07-24_10h46.00.545,vbt_B2_day1,2022.2.4,Linux armv8l,59.87665409,52204,,,,,,,,,,,,,,,,,,,0.680578274,0.046336068,1,0,0,0.1881,0,8,8,9,1,j,images/br_j.png,images/cb_j.png,,,,,,,,,,,,,,,,,,,,,,,,,
,,,,,,,2023-07-24_10h46.00.545,vbt_B2_day1,2022.2.4,Linux armv8l,59.87665409,52204,,,,,,,,,,,,,,,,,,,0.71390347,0.107127084,1,0,0,0.2144,0,9,9,0,1,a,images/br_a.png,images/cb_a.png,,,,,,,,,,,,,,,,,,,,,,,,,
,,,,,,,2023-07-24_10h46.00.545,vbt_B2_day1,2022.2.4,Linux armv8l,59.87665409,52204,,,,,,,,,,,,,,,,,,,0.664180162,0.078562631,1,0,0,0.2178,0,10,10,19,1,t,images/br_t.png,images/cb_t.png,,,,,,,,,,,,,,,,,,,,,,,,,
,,,,,,,2023-07-24_10h46.00.545,vbt_B2_day1,2022.2.4,Linux armv8l,59.87665409,52204,,,,,,,,,,,,,,,,,,,0.635086738,-0.086232291,1,0,0,1.3236,0,11,11,4,1,e,images/br_e.png,images/cb_e.png,,,,,,,,,,,,,,,,,,,,,,,,,
,,,,,,,2023-07-24_10h46.00.545,vbt_B2_day1,2022.2.4,Linux armv8l,59.87665409,52204,,,,,,,,,,,,,,,,,,,0.524002753,-0.002247916,1,0,0,1.2441,0,12,12,21,1,v,images/br_v.png,images/cb_v.png,,,,,,,,,,,,,,,,,,,,,,,,,
,,,,,,,2023-07-24_10h46.00.545,vbt_B2_day1,2022.2.4,Linux armv8l,59.87665409,52204,,,,,,,,,,,,,,,,,,,0.537756009,0.026560677,1,0,0,0.1864,0,13,13,13,1,n,images/br_n.png,images/cb_n.png,,,,,,,,,,,,,,,,,,,,,,,,,
,,,,,,,2023-07-24_10h46.00.545,vbt_B2_day1,2022.2.4,Linux armv8l,59.87665409,52204,,,,,,,,,,,,,,,,,,,0.573197089,0.040476693,1,0,0,0.3491,0,14,14,5,1,f,images/br_f.png,images/cb_f.png,,,,,,,,,,,,,,,,,,,,,,,,,
,,,,,,,2023-07-24_10h46.00.545,vbt_B2_day1,2022.2.4,Linux armv8l,59.87665409,52204,,,,,,,,,,,,,,,,,,,0.558385891,0.012400521,1,0,0,2.9028,0,15,15,14,1,o,images/br_o.png,images/cb_o.png,,,,,,,,,,,,,,,,,,,,,,,,,
,,,,,,,2023-07-24_10h46.00.545,vbt_B2_day1,2022.2.4,Linux armv8l,59.87665409,52204,,,,,,,,,,,,,,,,,,,0.493322415,-0.109913932,1,0,0,3.2563,0,16,16,22,1,w,images/br_w.png,images/cb_w.png,,,,,,,,,,,,,,,,,,,,,,,,,
,,,,,,,2023-07-24_10h46.00.545,vbt_B2_day1,2022.2.4,Linux armv8l,59.87665409,52204,,,,,,,,,,,,,,,,,,,0.590653144,-0.013478385,1,0,0,1.6722,0,17,17,25,1,z,images/br_z.png,images/cb_z.png,,,,,,,,,,,,,,,,,,,,,,,,,
,,,,,,,2023-07-24_10h46.00.545,vbt_B2_day1,2022.2.4,Linux armv8l,59.87665409,52204,,,,,,,,,,,,,,,,,,,0.628739081,-0.095997916,1,0,0,0.4984,0,18,18,10,1,k,images/br_k.png,images/cb_k.png,,,,,,,,,,,,,,,,,,,,,,,,,
,,,,,,,2023-07-24_10h46.00.545,vbt_B2_day1,2022.2.4,Linux armv8l,59.87665409,52204,,,,,,,,,,,,,,,,,,,0.600174628,-0.101857291,1,0,0,0.1739,0,19,19,17,1,r,images/br_r.png,images/cb_r.png,,,,,,,,,,,,,,,,,,,,,,,,,
,,,,,,,2023-07-24_10h46.00.545,vbt_B2_day1,2022.2.4,Linux armv8l,59.87665409,52204,,,,,,,,,,,,,,,,,,,0.643021308,0.011668099,1,0,0,1.1043,0,20,20,16,1,q,images/br_q.png,images/cb_q.png,,,,,,,,,,,,,,,,,,,,,,,,,
,,,,,,,2023-07-24_10h46.00.545,vbt_B2_day1,2022.2.4,Linux armv8l,59.87665409,52204,,,,,,,,,,,,,,,,,,,0.637202623,-0.107228385,1,0,0,1.3979,0,21,21,2,1,c,images/br_c.png,images/cb_c.png,,,,,,,,,,,,,,,,,,,,,,,,,
,,,,,,,2023-07-24_10h46.00.545,vbt_B2_day1,2022.2.4,Linux armv8l,59.87665409,52204,,,,,,,,,,,,,,,,,,,0.576899889,0.018748177,1,0,0,1.0174,0,22,22,8,1,i,images/br_i.png,images/cb_i.png,,,,,,,,,,,,,,,,,,,,,,,,,
,,,,,,,2023-07-24_10h46.00.545,vbt_B2_day1,2022.2.4,Linux armv8l,59.87665409,52204,,,,,,,,,,,,,,,,,,,0.583247545,-0.006642448,1,0,0,0.6398,0,23,23,12,1,m,images/br_m.png,images/cb_m.png,,,,,,,,,,,,,,,,,,,,,,,,,
,,,,,,,2023-07-24_10h46.00.545,vbt_B2_day1,2022.2.4,Linux armv8l,59.87665409,52204,,,,,,,,,,,,,,,,,,,0.312414127,-0.093312369,1,0,0,1.0223,0,24,24,7,1,h,images/br_h.png,images/cb_h.png,,,,,,,,,,,,,,,,,,,,,,,,,
,,,,,,,2023-07-24_10h46.00.545,vbt_B2_day1,2022.2.4,Linux armv8l,59.87665409,52204,,,,,,,,,,,,,,,,,,,0.576370917,-0.085011588,1,0,0,0.5841,0,25,25,24,1,y,images/br_y.png,images/cb_y.png,,,,,,,,,,,,,,,,,,,,,,,,,
,,,,,,,2023-07-24_10h46.00.545,vbt_B2_day1,2022.2.4,Linux armv8l,59.87665409,52204,,,,,,,,,,,,,,,,,,,0.546748522,-0.108204948,1,0,0,2.0539,1,0,26,7,1,h,images/br_h.png,images/cb_h.png,,,,,,,,,,,,,,,,,,,,,,,,,
,,,,,,,2023-07-24_10h46.00.545,vbt_B2_day1,2022.2.4,Linux armv8l,59.87665409,52204,,,,,,,,,,,,,,,,,,,0.54992235,-0.035451041,1,0,0,1.172,1,1,27,9,1,j,images/br_j.png,images/cb_j.png,,,,,,,,,,,,,,,,,,,,,,,,,
,,,,,,,2023-07-24_10h46.00.545,vbt_B2_day1,2022.2.4,Linux armv8l,59.87665409,52204,,,,,,,,,,,,,,,,,,,0.628739081,-0.048634635,1,0,0,0.3653,1,2,28,16,1,q,images/br_q.png,images/cb_q.png,,,,,,,,,,,,,,,,,,,,,,,,,
,,,,,,,2023-07-24_10h46.00.545,vbt_B2_day1,2022.2.4,Linux armv8l,59.87665409,52204,,,,,,,,,,,,,,,,,,,0.637731595,-0.107960807,1,0,0,1.755,1,3,29,21,1,v,images/br_v.png,images/cb_v.png,,,,,,,,,,,,,,,,,,,,,,,,,
,,,,,,,2023-07-24_10h46.00.545,vbt_B2_day1,2022.2.4,Linux armv8l,59.87665409,52204,,,,,,,,,,,,,,,,,,,0.61234097,-0.135060416,1,0,0,0.3553,1,4,30,11,1,l,images/br_l.png,images/cb_l.png,,,,,,,,,,,,,,,,,,,,,,,,,
,,,,,,,2023-07-24_10h46.00.545,vbt_B2_day1,2022.2.4,Linux armv8l,59.87665409,52204,,,,,,,,,,,,,,,,,,,0.590124173,-0.089406119,1,0,0,0.8511,1,5,31,10,1,k,images/br_k.png,images/cb_k.png,,,,,,,,,,,,,,,,,,,,,,,,,
,,,,,,,2023-07-24_10h46.00.545,vbt_B2_day1,2022.2.4,Linux armv8l,59.87665409,52204,,,,,,,,,,,,,,,,,,,0.58906623,-0.022999869,1,0,0,0.2139,1,6,32,22,1,w,images/br_w.png,images/cb_w.png,,,,,,,,,,,,,,,,,,,,,,,,,
,,,,,,,2023-07-24_10h46.00.545,vbt_B2_day1,2022.2.4,Linux armv8l,59.87665409,52204,,,,,,,,,,,,,,,,,,,0.588537259,-0.045949088,1,0,0,0.2348,1,7,33,8,1,i,images/br_i.png,images/cb_i.png,,,,,,,,,,,,,,,,,,,,,,,,,
,,,,,,,2023-07-24_10h46.00.545,vbt_B2_day1,2022.2.4,Linux armv8l,59.87665409,52204,,,,,,,,,,,,,,,,,,,0.621862454,-0.074513541,1,0,0,0.5038,1,8,34,1,1,b,images/br_b.png,images/cb_b.png,,,,,,,,,,,,,,,,,,,,,,,,,
,,,,,,,2023-07-24_10h46.00.545,vbt_B2_day1,2022.2.4,Linux armv8l,59.87665409,52204,,,,,,,,,,,,,,,,,,,0.617101712,-0.104054557,1,0,0,0.237,1,9,35,0,1,a,images/br_a.png,images/cb_a.png,,,,,,,,,,,,,,,,,,,,,,,,,
,,,,,,,2023-07-24_10h46.00.545,vbt_B2_day1,2022.2.4,Linux armv8l,59.87665409,52204,,,,,,,,,,,,,,,,,,,0.643021308,-0.083546744,1,0,0,0.819,1,10,36,15,1,p,images/br_p.png,images/cb_p.png,,,,,,,,,,,,,,,,,,,,,,,,,
,,,,,,,2023-07-24_10h46.00.545,vbt_B2_day1,2022.2.4,Linux armv8l,59.87665409,52204,,,,,,,,,,,,,,,,,,,0.57742886,-0.093068229,1,0,0,0.8405,1,11,37,23,1,x,images/br_x.png,images/cb_x.png,,,,,,,,,,,,,,,,,,,,,,,,,
,,,,,,,2023-07-24_10h46.00.545,vbt_B2_day1,2022.2.4,Linux armv8l,59.87665409,52204,,,,,,,,,,,,,,,,,,,0.635615709,-0.042286979,1,0,0,0.0445,1,12,38,2,1,c,images/br_c.png,images/cb_c.png,,,,,,,,,,,,,,,,,,,,,,,,,
,,,,,,,2023-07-24_10h46.00.545,vbt_B2_day1,2022.2.4,Linux armv8l,59.87665409,52204,,,,,,,,,,,,,,,,,,,0.654658678,-0.007863151,1,0,0,0.9658,1,13,39,5,1,f,images/br_f.png,images/cb_f.png,,,,,,,,,,,,,,,,,,,,,,,,,
,,,,,,,2023-07-24_10h46.00.545,vbt_B2_day1,2022.2.4,Linux armv8l,59.87665409,52204,,,,,,,,,,,,,,,,,,,0.647253079,-0.047658073,1,0,0,0.4148,1,14,40,13,1,n,images/br_n.png,images/cb_n.png,,,,,,,,,,,,,,,,,,,,,,,,,
,,,,,,,2023-07-24_10h46.00.545,vbt_B2_day1,2022.2.4,Linux armv8l,59.87665409,52204,,,,,,,,,,,,,,,,,,,0.688512845,-0.041310416,1,0,0,1.226,1,15,41,14,1,o,images/br_o.png,images/cb_o.png,,,,,,,,,,,,,,,,,,,,,,,,,
,,,,,,,2023-07-24_10h46.00.545,vbt_B2_day1,2022.2.4,Linux armv8l,59.87665409,52204,,,,,,,,,,,,,,,,,,,0.572668118,-0.165089713,1,0,0,2.0076,1,16,42,3,1,d,images/br_d.png,images/cb_d.png,,,,,,,,,,,,,,,,,,,,,,,,,
,,,,,,,2023-07-24_10h46.00.545,vbt_B2_day1,2022.2.4,Linux armv8l,59.87665409,52204,,,,,,,,,,,,,,,,,,,0.632441881,-0.108449088,1,0,0,0.3435,1,17,43,6,1,g,images/br_g.png,images/cb_g.png,,,,,,,,,,,,,,,,,,,,,,,,,
,,,,,,,2023-07-24_10h46.00.545,vbt_B2_day1,2022.2.4,Linux armv8l,59.87665409,52204,,,,,,,,,,,,,,,,,,,0.650426907,-0.081105338,1,0,0,1.6521,1,18,44,25,1,z,images/br_z.png,images/cb_z.png,,,,,,,,,,,,,,,,,,,,,,,,,
,,,,,,,2023-07-24_10h46.00.545,vbt_B2_day1,2022.2.4,Linux armv8l,59.87665409,52204,,,,,,,,,,,,,,,,,,,0.598058743,-0.029835807,1,0,0,0.16,1,19,45,12,1,m,images/br_m.png,images/cb_m.png,,,,,,,,,,,,,,,,,,,,,,,,,
,,,,,,,2023-07-24_10h46.00.545,vbt_B2_day1,2022.2.4,Linux armv8l,59.87665409,52204,,,,,,,,,,,,,,,,,,,0.536698066,-0.063038932,1,0,0,0.2511,1,20,46,18,1,s,images/br_s.png,images/cb_s.png,,,,,,,,,,,,,,,,,,,,,,,,,
,,,,,,,2023-07-24_10h46.00.545,vbt_B2_day1,2022.2.4,Linux armv8l,59.87665409,52204,,,,,,,,,,,,,,,,,,,0.568965318,-0.051808463,1,0,0,0.6958,1,21,47,4,1,e,images/br_e.png,images/cb_e.png,,,,,,,,,,,,,,,,,,,,,,,,,
,,,,,,,2023-07-24_10h46.00.545,vbt_B2_day1,2022.2.4,Linux armv8l,59.87665409,52204,,,,,,,,,,,,,,,,,,,0.385412259,-0.127736198,1,0,0,0.8016,1,22,48,19,1,t,images/br_t.png,images/cb_t.png,,,,,,,,,,,,,,,,,,,,,,,,,
,,,,,,,2023-07-24_10h46.00.545,vbt_B2_day1,2022.2.4,Linux armv8l,59.87665409,52204,,,,,,,,,,,,,,,,,,,0.535111152,-0.063038932,1,0,0,0.367,1,23,49,20,1,u,images/br_u.png,images/cb_u.png,,,,,,,,,,,,,,,,,,,,,,,,,
,,,,,,,2023-07-24_10h46.00.545,vbt_B2_day1,2022.2.4,Linux armv8l,59.87665409,52204,,,,,,,,,,,,,,,,,,,0.565262519,-0.019093619,1,0,0,0.3715,1,24,50,17,1,r,images/br_r.png,images/cb_r.png,,,,,,,,,,,,,,,,,,,,,,,,,
,,,,,,,2023-07-24_10h46.00.545,vbt_B2_day1,2022.2.4,Linux armv8l,59.87665409,52204,,,,,,,,,,,,,,,,,,,0.451533678,-0.052296744,1,0,0,0.5636,1,25,51,24,1,y,images/br_y.png,images/cb_y.png,,,,,,,,,,,,,,,,,,,,,,,,,
,,,,,,,2023-07-24_10h46.00.545,vbt_B2_day1,2022.2.4,Linux armv8l,59.87665409,52204,,,,,,,,,,,,,,,,,,,0.512365384,-0.028859244,1,0,0,0.8554,2,0,52,21,1,v,images/br_v.png,images/cb_v.png,,,,,,,,,,,,,,,,,,,,,,,,,
,,,,,,,2023-07-24_10h46.00.545,vbt_B2_day1,2022.2.4,Linux armv8l,59.87665409,52204,,,,,,,,,,,,,,,,,,,0.225662825,-0.084035026,1,0,0,1.3433,2,1,53,6,1,g,images/br_g.png,images/cb_g.png,,,,,,,,,,,,,,,,,,,,,,,,,
,,,,,,,2023-07-24_10h46.00.545,vbt_B2_day1,2022.2.4,Linux armv8l,59.87665409,52204,,,,,,,,,,,,,,,,,,,0.479040188,-0.096730338,1,0,0,0.5673,2,2,54,12,1,m,images/br_m.png,images/cb_m.png,,,,,,,,,,,,,,,,,,,,,,,,,
,,,,,,,2023-07-24_10h46.00.545,vbt_B2_day1,2022.2.4,Linux armv8l,59.87665409,52204,,,,,,,,,,,,,,,,,,,0.421382311,-0.177296744,1,0,0,0.7519,2,3,55,11,1,l,images/br_l.png,images/cb_l.png,,,,,,,,,,,,,,,,,,,,,,,,,
,,,,,,,2023-07-24_10h46.00.545,vbt_B2_day1,2022.2.4,Linux armv8l,59.87665409,52204,,,,,,,,,,,,,,,,,,,0.363195377,-0.125783073,1,0,0,0.6973,2,4,56,4,1,e,images/br_e.png,images/cb_e.png,,,,,,,,,,,,,,,,,,,,,,,,,
,,,,,,,2023-07-24_10h46.00.545,vbt_B2_day1,2022.2.4,Linux armv8l,59.87665409,52204,,,,,,,,,,,,,,,,,,,0.380122545,-0.059376823,1,0,0,0.3329,2,5,57,1,1,b,images/br_b.png,images/cb_b.png,,,,,,,,,,,,,,,,,,,,,,,,,
,,,,,,,2023-07-24_10h46.00.545,vbt_B2_day1,2022.2.4,Linux armv8l,59.87665409,52204,,,,,,,,,,,,,,,,,,,0.285436588,-0.175099479,1,0,0,0.2447,2,6,58,3,1,d,images/br_d.png,images/cb_d.png,,,,,,,,,,,,,,,,,,,,,,,,,
,,,,,,,2023-07-24_10h46.00.545,vbt_B2_day1,2022.2.4,Linux armv8l,59.87665409,52204,,,,,,,,,,,,,,,,,,,0.335159895,-0.079884635,1,0,0,0.5402,2,7,59,24,1,y,images/br_y.png,images/cb_y.png,,,,,,,,,,,,,,,,,,,,,,,,,
,,,,,,,2023-07-24_10h46.00.545,vbt_B2_day1,2022.2.4,Linux armv8l,59.87665409,52204,,,,,,,,,,,,,,,,,,,0.253698307,-0.174122916,1,0,0,0.4497,2,8,60,23,1,x,images/br_x.png,images/cb_x.png,,,,,,,,,,,,,,,,,,,,,,,,,
,,,,,,,2023-07-24_10h46.00.545,vbt_B2_day1,2022.2.4,Linux armv8l,59.87665409,52204,,,,,,,,,,,,,,,,,,,0.303950585,-0.142140494,1,0,0,0.8868,2,9,61,18,1,s,images/br_s.png,images/cb_s.png,,,,,,,,,,,,,,,,,,,,,,,,,
,,,,,,,2023-07-24_10h46.00.545,vbt_B2_day1,2022.2.4,Linux armv8l,59.87665409,52204,,,,,,,,,,,,,,,,,,,0.272741275,-0.147755729,1,0,0,0.7529,2,10,62,5,1,f,images/br_f.png,images/cb_f.png,,,,,,,,,,,,,,,,,,,,,,,,,
,,,,,,,2023-07-24_10h46.00.545,vbt_B2_day1,2022.2.4,Linux armv8l,59.87665409,52204,,,,,,,,,,,,,,,,,,,0.424027167,-0.043019401,1,0,0,0.4181,2,11,63,25,1,z,images/br_z.png,images/cb_z.png,,,,,,,,,,,,,,,,,,,,,,,,,
,,,,,,,2023-07-24_10h46.00.545,vbt_B2_day1,2022.2.4,Linux armv8l,59.87665409,52204,,,,,,,,,,,,,,,,,,,0.264806705,-0.100148307,1,0,0,0.1372,2,12,64,0,1,a,images/br_a.png,images/cb_a.png,,,,,,,,,,,,,,,,,,,,,,,,,
,,,,,,,2023-07-24_10h46.00.545,vbt_B2_day1,2022.2.4,Linux armv8l,59.87665409,52204,,,,,,,,,,,,,,,,,,,0.277502018,-0.131886588,1,0,0,0.4434,2,13,65,2,1,c,images/br_c.png,images/cb_c.png,,,,,,,,,,,,,,,,,,,,,,,,,
,,,,,,,2023-07-24_10h46.00.545,vbt_B2_day1,2022.2.4,Linux armv8l,59.87665409,52204,,,,,,,,,,,,,,,,,,,0.338862695,-0.10136901,1,0,0,0.0652,2,14,66,13,1,n,images/br_n.png,images/cb_n.png,,,,,,,,,,,,,,,,,,,,,,,,,
,,,,,,,2023-07-24_10h46.00.545,vbt_B2_day1,2022.2.4,Linux armv8l,59.87665409,52204,,,,,,,,,,,,,,,,,,,0.362137434,-0.090626823,1,0,0,0.3635,2,15,67,15,1,p,images/br_p.png,images/cb_p.png,,,,,,,,,,,,,,,,,,,,,,,,,
,,,,,,,2023-07-24_10h46.00.545,vbt_B2_day1,2022.2.4,Linux armv8l,59.87665409,52204,,,,,,,,,,,,,,,,,,,0.318232812,-0.075978385,1,0,0,0.5662,2,16,68,10,1,k,images/br_k.png,images/cb_k.png,,,,,,,,,,,,,,,,,,,,,,,,,
,,,,,,,2023-07-24_10h46.00.545,vbt_B2_day1,2022.2.4,Linux armv8l,59.87665409,52204,,,,,,,,,,,,,,,,,,,0.37800666,-0.026661979,1,0,0,0.742,2,17,69,7,1,h,images/br_h.png,images/cb_h.png,,,,,,,,,,,,,,,,,,,,,,,,,
,,,,,,,2023-07-24_10h46.00.545,vbt_B2_day1,2022.2.4,Linux armv8l,59.87665409,52204,,,,,,,,,,,,,,,,,,,0.322464583,-0.178029166,1,0,0,0.6857,2,18,70,22,1,w,images/br_w.png,images/cb_w.png,,,,,,,,,,,,,,,,,,,,,,,,,
,,,,,,,2023-07-24_10h46.00.545,vbt_B2_day1,2022.2.4,Linux armv8l,59.87665409,52204,,,,,,,,,,,,,,,,,,,0.319819726,-0.107960807,1,0,0,0.0566,2,19,71,9,1,j,images/br_j.png,images/cb_j.png,,,,,,,,,,,,,,,,,,,,,,,,,
,,,,,,,2023-07-24_10h46.00.545,vbt_B2_day1,2022.2.4,Linux armv8l,59.87665409,52204,,,,,,,,,,,,,,,,,,,0.471634589,-0.060109244,1,0,0,0.6185,2,20,72,20,1,u,images/br_u.png,images/cb_u.png,,,,,,,,,,,,,,,,,,,,,,,,,
,,,,,,,2023-07-24_10h46.00.545,vbt_B2_day1,2022.2.4,Linux armv8l,59.87665409,52204,,,,,,,,,,,,,,,,,,,0.338862695,-0.133595573,1,0,0,1.3451,2,21,73,14,1,o,images/br_o.png,images/cb_o.png,,,,,,,,,,,,,,,,,,,,,,,,,
,,,,,,,2023-07-24_10h46.00.545,vbt_B2_day1,2022.2.4,Linux armv8l,59.87665409,52204,,,,,,,,,,,,,,,,,,,0.374303775,-0.039113151,1,0,0,0.1667,2,22,74,17,1,r,images/br_r.png,images/cb_r.png,,,,,,,,,,,,,,,,,,,,,,,,,
,,,,,,,2023-07-24_10h46.00.545,vbt_B2_day1,2022.2.4,Linux armv8l,59.87665409,52204,,,,,,,,,,,,,,,,,,,0.327225325,-0.129445182,1,0,0,0.355,2,23,75,16,1,q,images/br_q.png,images/cb_q.png,,,,,,,,,,,,,,,,,,,,,,,,,
,,,,,,,2023-07-24_10h46.00.545,vbt_B2_day1,2022.2.4,Linux armv8l,59.87665409,52204,,,,,,,,,,,,,,,,,,,0.25105345,-0.174367057,1,0,0,0.0637,2,24,76,8,1,i,images/br_i.png,images/cb_i.png,,,,,,,,,,,,,,,,,,,,,,,,,
,,,,,,,2023-07-24_10h46.00.545,vbt_B2_day1,2022.2.4,Linux armv8l,59.87665409,52204,,,,,,,,,,,,,,,,,,,0.334101952,-0.140187369,1,0,0,0.3173,2,25,77,19,1,t,images/br_t.png,images/cb_t.png,,,,,,,,,,,,,,,,,,,,,,,,,
,,,,,,,2023-07-24_10h46.00.545,vbt_B2_day1,2022.2.4,Linux armv8l,59.87665409,52204,,,,,,,,,,,,,,,,,,,0.345210351,-0.102345573,1,0,0,0.2088,3,0,78,12,1,m,images/br_m.png,images/cb_m.png,,,,,,,,,,,,,,,,,,,,,,,,,
,,,,,,,2023-07-24_10h46.00.545,vbt_B2_day1,2022.2.4,Linux armv8l,59.87665409,52204,,,,,,,,,,,,,,,,,,,0.300247786,-0.114308463,1,0,0,0.3508,3,1,79,6,1,g,images/br_g.png,images/cb_g.png,,,,,,,,,,,,,,,,,,,,,,,,,
,,,,,,,2023-07-24_10h46.00.545,vbt_B2_day1,2022.2.4,Linux armv8l,59.87665409,52204,,,,,,,,,,,,,,,,,,,0.334101952,-0.076954948,1,0,0,0.4735,3,2,80,10,1,k,images/br_k.png,images/cb_k.png,,,,,,,,,,,,,,,,,,,,,,,,,
,,,,,,,2023-07-24_10h46.00.545,vbt_B2_day1,2022.2.4,Linux armv8l,59.87665409,52204,,,,,,,,,,,,,,,,,,,0.421911282,-0.04668151,1,0,0,1.1528,3,3,81,14,1,o,images/br_o.png,images/cb_o.png,,,,,,,,,,,,,,,,,,,,,,,,,
,,,,,,,2023-07-24_10h46.00.545,vbt_B2_day1,2022.2.4,Linux armv8l,59.87665409,52204,,,,,,,,,,,,,,,,,,,0.79219123,0.023142709,1,0,0,0.5403,3,4,82,18,1,s,images/br_s.png,images/cb_s.png,,,,,,,,,,,,,,,,,,,,,,,,,
,,,,,,,2023-07-24_10h46.00.545,vbt_B2_day1,2022.2.4,Linux armv8l,59.87665409,52204,,,,,,,,,,,,,,,,,,,0.600174628,-0.04277526,1,0,0,1.0691,3,5,83,24,1,y,images/br_y.png,images/cb_y.png,,,,,,,,,,,,,,,,,,,,,,,,,
,,,,,,,2023-07-24_10h46.00.545,vbt_B2_day1,2022.2.4,Linux armv8l,59.87665409,52204,,,,,,,,,,,,,,,,,,,0.693802558,-0.037160026,1,0,0,0.1182,3,6,84,13,1,n,images/br_n.png,images/cb_n.png,,,,,,,,,,,,,,,,,,,,,,,,,
,,,,,,,2023-07-24_10h46.00.545,vbt_B2_day1,2022.2.4,Linux armv8l,59.87665409,52204,,,,,,,,,,,,,,,,,,,0.761510891,0.01581849,1,0,0,0.5176,3,7,85,3,1,d,images/br_d.png,images/cb_d.png,,,,,,,,,,,,,,,,,,,,,,,,,
,,,,,,,2023-07-24_10h46.00.545,vbt_B2_day1,2022.2.4,Linux armv8l,59.87665409,52204,,,,,,,,,,,,,,,,,,,0.567907376,-0.029347526,1,0,0,1.1048,3,8,86,1,1,b,images/br_b.png,images/cb_b.png,,,,,,,,,,,,,,,,,,,,,,,,,
,,,,,,,2023-07-24_10h46.00.545,vbt_B2_day1,2022.2.4,Linux armv8l,59.87665409,52204,,,,,,,,,,,,,,,,,,,0.563146634,-0.047169791,1,0,0,0.67,3,9,87,22,1,w,images/br_w.png,images/cb_w.png,,,,,,,,,,,,,,,,,,,,,,,,,
,,,,,,,2023-07-24_10h46.00.545,vbt_B2_day1,2022.2.4,Linux armv8l,59.87665409,52204,,,,,,,,,,,,,,,,,,,0.570023261,-0.027638541,1,0,0,0.4294,3,10,88,17,1,r,images/br_r.png,images/cb_r.png,,,,,,,,,,,,,,,,,,,,,,,,,
,,,,,,,2023-07-24_10h46.00.545,vbt_B2_day1,2022.2.4,Linux armv8l,59.87665409,52204,,,,,,,,,,,,,,,,,,,0.531408352,-0.051076041,1,0,0,1.0211,3,11,89,0,1,a,images/br_a.png,images/cb_a.png,,,,,,,,,,,,,,,,,,,,,,,,,
,,,,,,,2023-07-24_10h46.00.545,vbt_B2_day1,2022.2.4,Linux armv8l,59.87665409,52204,,,,,,,,,,,,,,,,,,,0.643021308,-0.078908073,1,0,0,0.4872,3,12,90,23,1,x,images/br_x.png,images/cb_x.png,,,,,,,,,,,,,,,,,,,,,,,,,
,,,,,,,2023-07-24_10h46.00.545,vbt_B2_day1,2022.2.4,Linux armv8l,59.87665409,52204,,,,,,,,,,,,,,,,,,,0.588008287,-0.045949088,1,0,0,0.151,3,13,91,2,1,c,images/br_c.png,images/cb_c.png,,,,,,,,,,,,,,,,,,,,,,,,,
,,,,,,,2023-07-24_10h46.00.545,vbt_B2_day1,2022.2.4,Linux armv8l,59.87665409,52204,,,,,,,,,,,,,,,,,,,0.603877428,-0.028126823,1,0,0,1.0524,3,14,92,21,1,v,images/br_v.png,images/cb_v.png,,,,,,,,,,,,,,,,,,,,,,,,,
,,,,,,,2023-07-24_10h46.00.545,vbt_B2_day1,2022.2.4,Linux armv8l,59.87665409,52204,,,,,,,,,,,,,,,,,,,0.613927884,-0.045949088,1,0,0,2.8211,3,15,93,25,1,z,images/br_z.png,images/cb_z.png,,,,,,,,,,,,,,,,,,,,,,,,,
,,,,,,,2023-07-24_10h46.00.545,vbt_B2_day1,2022.2.4,Linux armv8l,59.87665409,52204,,,,,,,,,,,,,,,,,,,0.636673652,0.013377084,1,0,0,0.6367,3,16,94,7,1,h,images/br_h.png,images/cb_h.png,,,,,,,,,,,,,,,,,,,,,,,,,
,,,,,,,2023-07-24_10h46.00.545,vbt_B2_day1,2022.2.4,Linux armv8l,59.87665409,52204,,,,,,,,,,,,,,,,,,,0.579544746,0.00800599,1,0,0,0.0849,3,17,95,4,1,e,images/br_e.png,images/cb_e.png,,,,,,,,,,,,,,,,,,,,,,,,,
,,,,,,,2023-07-24_10h46.00.545,vbt_B2_day1,2022.2.4,Linux armv8l,59.87665409,52204,,,,,,,,,,,,,,,,,,,0.602290514,-0.103566276,1,0,0,0.649,3,18,96,8,1,i,images/br_i.png,images/cb_i.png,,,,,,,,,,,,,,,,,,,,,,,,,
,,,,,,,2023-07-24_10h46.00.545,vbt_B2_day1,2022.2.4,Linux armv8l,59.87665409,52204,,,,,,,,,,,,,,,,,,,0.704910956,-0.060597526,1,0,0,0.4179,3,19,97,11,1,l,images/br_l.png,images/cb_l.png,,,,,,,,,,,,,,,,,,,,,,,,,
,,,,,,,2023-07-24_10h46.00.545,vbt_B2_day1,2022.2.4,Linux armv8l,59.87665409,52204,,,,,,,,,,,,,,,,,,,0.646195136,-0.066456901,1,0,0,0.6107,3,20,98,19,1,t,images/br_t.png,images/cb_t.png,,,,,,,,,,,,,,,,,,,,,,,,,
,,,,,,,2023-07-24_10h46.00.545,vbt_B2_day1,2022.2.4,Linux armv8l,59.87665409,52204,,,,,,,,,,,,,,,,,,,0.604935371,-0.052296744,1,0,0,0.2673,3,21,99,15,1,p,images/br_p.png,images/cb_p.png,,,,,,,,,,,,,,,,,,,,,,,,,
,,,,,,,2023-07-24_10h46.00.545,vbt_B2_day1,2022.2.4,Linux armv8l,59.87665409,52204,,,,,,,,,,,,,,,,,,,0.645137193,-0.048878776,1,0,0,0.1837,3,22,100,20,1,u,images/br_u.png,images/cb_u.png,,,,,,,,,,,,,,,,,,,,,,,,,
,,,,,,,2023-07-24_10h46.00.545,vbt_B2_day1,2022.2.4,Linux armv8l,59.87665409,52204,,,,,,,,,,,,,,,,,,,0.591711087,-0.082081901,1,0,0,0.1775,3,23,101,9,1,j,images/br_j.png,images/cb_j.png,,,,,,,,,,,,,,,,,,,,,,,,,
,,,,,,,2023-07-24_10h46.00.545,vbt_B2_day1,2022.2.4,Linux armv8l,59.87665409,52204,,,,,,,,,,,,,,,,,,,0.507604641,-0.105763541,1,0,0,0.5376,3,24,102,16,1,q,images/br_q.png,images/cb_q.png,,,,,,,,,,,,,,,,,,,,,,,,,
,,,,,,,2023-07-24_10h46.00.545,vbt_B2_day1,2022.2.4,Linux armv8l,59.87665409,52204,,,,,,,,,,,,,,,,,,,0.582718574,-0.079396354,1,0,0,0.055,3,25,103,5,1,f,images/br_f.png,images/cb_f.png,,,,,,,,,,,,,,,,,,,,,,,,,
,,,,,,,2023-07-24_10h46.00.545,vbt_B2_day1,2022.2.4,Linux armv8l,59.87665409,52204,,,,,,,,,,,,,,,,,,,0.579544746,-0.069142448,1,0,0,0.2816,4,0,104,9,1,j,images/br_j.png,images/cb_j.png,,,,,,,,,,,,,,,,,,,,,,,,,
,,,,,,,2023-07-24_10h46.00.545,vbt_B2_day1,2022.2.4,Linux armv8l,59.87665409,52204,,,,,,,,,,,,,,,,,,,0.589595201,-0.072560416,1,0,0,0.0723,4,1,105,8,1,i,images/br_i.png,images/cb_i.png,,,,,,,,,,,,,,,,,,,,,,,,,
,,,,,,,2023-07-24_10h46.00.545,vbt_B2_day1,2022.2.4,Linux armv8l,59.87665409,52204,,,,,,,,,,,,,,,,,,,0.67899136,-0.049122916,1,0,0,0.3366,4,2,106,19,1,t,images/br_t.png,images/cb_t.png,,,,,,,,,,,,,,,,,,,,,,,,,
,,,,,,,2023-07-24_10h46.00.545,vbt_B2_day1,2022.2.4,Linux armv8l,59.87665409,52204,,,,,,,,,,,,,,,,,,,0.649897936,-0.060109244,1,0,0,0.3196,4,3,107,10,1,k,images/br_k.png,images/cb_k.png,,,,,,,,,,,,,,,,,,,,,,,,,
,,,,,,,2023-07-24_10h46.00.545,vbt_B2_day1,2022.2.4,Linux armv8l,59.87665409,52204,,,,,,,,,,,,,,,,,,,0.659948391,-0.041798698,1,0,0,0.9565,4,4,108,15,1,p,images/br_p.png,images/cb_p.png,,,,,,,,,,,,,,,,,,,,,,,,,
,,,,,,,2023-07-24_10h46.00.545,vbt_B2_day1,2022.2.4,Linux armv8l,59.87665409,52204,,,,,,,,,,,,,,,,,,,0.557327949,-0.079884635,1,0,0,0.349,4,5,109,14,1,o,images/br_o.png,images/cb_o.png,,,,,,,,,,,,,,,,,,,,,,,,,
,,,,,,,2023-07-24_10h46.00.545,vbt_B2_day1,2022.2.4,Linux armv8l,59.87665409,52204,,,,,,,,,,,,,,,,,,,0.568436347,-0.103566276,1,0,0,0.3775,4,6,110,5,1,f,images/br_f.png,images/cb_f.png,,,,,,,,,,,,,,,,,,,,,,,,,
,,,,,,,2023-07-24_10h46.00.545,vbt_B2_day1,2022.2.4,Linux armv8l,59.87665409,52204,,,,,,,,,,,,,,,,,,,0.573726061,-0.071339713,1,0,0,0.0981,4,7,111,13,1,n,images/br_n.png,images/cb_n.png,,,,,,,,,,,,,,,,,,,,,,,,,
,,,,,,,2023-07-24_10h46.00.545,vbt_B2_day1,2022.2.4,Linux armv8l,59.87665409,52204,,,,,,,,,,,,,,,,,,,0.708613756,-0.01933776,1,0,0,1.3872,4,8,112,20,1,u,images/br_u.png,images/cb_u.png,,,,,,,,,,,,,,,,,,,,,,,,,
,,,,,,,2023-07-24_10h46.00.545,vbt_B2_day1,2022.2.4,Linux armv8l,59.87665409,52204,,,,,,,,,,,,,,,,,,,0.65148485,-0.006398307,1,0,0,0.2056,4,9,113,24,1,y,images/br_y.png,images/cb_y.png,,,,,,,,,,,,,,,,,,,,,,,,,
,,,,,,,2023-07-24_10h46.00.545,vbt_B2_day1,2022.2.4,Linux armv8l,59.87665409,52204,,,,,,,,,,,,,,,,,,,0.69062873,-0.020558463,1,0,0,0.4177,4,10,114,25,1,z,images/br_z.png,images/cb_z.png,,,,,,,,,,,,,,,,,,,,,,,,,
,,,,,,,2023-07-24_10h46.00.545,vbt_B2_day1,2022.2.4,Linux armv8l,59.87665409,52204,,,,,,,,,,,,,,,,,,,0.626094225,-0.052296744,1,0,0,0.3882,4,11,115,11,1,l,images/br_l.png,images/cb_l.png,,,,,,,,,,,,,,,,,,,,,,,,,
,,,,,,,2023-07-24_10h46.00.545,vbt_B2_day1,2022.2.4,Linux armv8l,59.87665409,52204,,,,,,,,,,,,,,,,,,,0.57742886,-0.083546744,1,0,0,0.3502,4,12,116,3,1,d,images/br_d.png,images/cb_d.png,,,,,,,,,,,,,,,,,,,,,,,,,
,,,,,,,2023-07-24_10h46.00.545,vbt_B2_day1,2022.2.4,Linux armv8l,59.87665409,52204,,,,,,,,,,,,,,,,,,,0.602290514,-0.051076041,1,0,0,1.0153,4,13,117,12,1,m,images/br_m.png,images/cb_m.png,,,,,,,,,,,,,,,,,,,,,,,,,
,,,,,,,2023-07-24_10h46.00.545,vbt_B2_day1,2022.2.4,Linux armv8l,59.87665409,52204,,,,,,,,,,,,,,,,,,,0.564733548,-0.053273307,1,0,0,0.7079,4,14,118,2,1,c,images/br_c.png,images/cb_c.png,,,,,,,,,,,,,,,,,,,,,,,,,
,,,,,,,2023-07-24_10h46.00.545,vbt_B2_day1,2022.2.4,Linux armv8l,59.87665409,52204,,,,,,,,,,,,,,,,,,,0.54992235,-0.078175651,1,0,0,0.0657,4,15,119,7,1,h,images/br_h.png,images/cb_h.png,,,,,,,,,,,,,,,,,,,,,,,,,
,,,,,,,2023-07-24_10h46.00.545,vbt_B2_day1,2022.2.4,Linux armv8l,59.87665409,52204,,,,,,,,,,,,,,,,,,,0.596471829,0.003855599,1,0,0,1.3365,4,16,120,21,1,v,images/br_v.png,images/cb_v.png,,,,,,,,,,,,,,,,,,,,,,,,,
,,,,,,,2023-07-24_10h46.00.545,vbt_B2_day1,2022.2.4,Linux armv8l,59.87665409,52204,,,,,,,,,,,,,,,,,,,0.566849433,0.005808724,1,0,0,0.1136,4,17,121,16,1,q,images/br_q.png,images/cb_q.png,,,,,,,,,,,,,,,,,,,,,,,,,
,,,,,,,2023-07-24_10h46.00.545,vbt_B2_day1,2022.2.4,Linux armv8l,59.87665409,52204,,,,,,,,,,,,,,,,,,,0.588008287,-0.092091666,1,0,0,0.1338,4,18,122,1,1,b,images/br_b.png,images/cb_b.png,,,,,,,,,,,,,,,,,,,,,,,,,
,,,,,,,2023-07-24_10h46.00.545,vbt_B2_day1,2022.2.4,Linux armv8l,59.87665409,52204,,,,,,,,,,,,,,,,,,,0.634557766,-0.031544791,1,0,0,0.1665,4,19,123,4,1,e,images/br_e.png,images/cb_e.png,,,,,,,,,,,,,,,,,,,,,,,,,
,,,,,,,2023-07-24_10h46.00.545,vbt_B2_day1,2022.2.4,Linux armv8l,59.87665409,52204,,,,,,,,,,,,,,,,,,,0.533524238,-0.106984244,1,0,0,0.5192,4,20,124,18,1,s,images/br_s.png,images/cb_s.png,,,,,,,,,,,,,,,,,,,,,,,,,
,,,,,,,2023-07-24_10h46.00.545,vbt_B2_day1,2022.2.4,Linux armv8l,59.87665409,52204,,,,,,,,,,,,,,,,,,,0.650955878,-0.083302604,1,0,0,0.8807,4,21,125,0,1,a,images/br_a.png,images/cb_a.png,,,,,,,,,,,,,,,,,,,,,,,,,
,,,,,,,2023-07-24_10h46.00.545,vbt_B2_day1,2022.2.4,Linux armv8l,59.87665409,52204,,,,,,,,,,,,,,,,,,,0.632970852,-0.10136901,1,0,0,0.7511,4,22,126,22,1,w,images/br_w.png,images/cb_w.png,,,,,,,,,,,,,,,,,,,,,,,,,
,,,,,,,2023-07-24_10h46.00.545,vbt_B2_day1,2022.2.4,Linux armv8l,59.87665409,52204,,,,,,,,,,,,,,,,,,,0.665767076,-0.042042838,1,0,0,0.3851,4,23,127,23,1,x,images/br_x.png,images/cb_x.png,,,,,,,,,,,,,,,,,,,,,,,,,
,,,,,,,2023-07-24_10h46.00.545,vbt_B2_day1,2022.2.4,Linux armv8l,59.87665409,52204,,,,,,,,,,,,,,,,,,,0.628739081,-0.07402526,1,0,0,0.9367,4,24,128,6,1,g,images/br_g.png,images/cb_g.png,,,,,,,,,,,,,,,,,,,,,,,,,
,,,,,,,2023-07-24_10h46.00.545,vbt_B2_day1,2022.2.4,Linux armv8l,59.87665409,52204,,,,,,,,,,,,,,,,,,,0.622391425,-0.065968619,1,0,0,0.1865,4,25,129,17,1,r,images/br_r.png,images/cb_r.png,,,,,,,,,,,,,,,,,,,,,,,,,
,,,,,,,2023-07-24_10h46.00.545,vbt_B2_day1,2022.2.4,Linux armv8l,59.87665409,52204,,,,,,,,,,,,,,,,,,,0.68692593,-0.04277526,1,0,0,0.2835,5,0,130,2,1,c,images/br_c.png,images/cb_c.png,,,,,,,,,,,,,,,,,,,,,,,,,
,,,,,,,2023-07-24_10h46.00.545,vbt_B2_day1,2022.2.4,Linux armv8l,59.87665409,52204,,,,,,,,,,,,,,,,,,,0.662593248,-0.022267448,1,0,0,0.47,5,1,131,8,1,i,images/br_i.png,images/cb_i.png,,,,,,,,,,,,,,,,,,,,,,,,,
,,,,,,,2023-07-24_10h46.00.545,vbt_B2_day1,2022.2.4,Linux armv8l,59.87665409,52204,,,,,,,,,,,,,,,,,,,0.664709134,-0.06230651,1,0,0,1.3696,5,2,132,19,1,t,images/br_t.png,images/cb_t.png,,,,,,,,,,,,,,,,,,,,,,,,,
,,,,,,,2023-07-24_10h46.00.545,vbt_B2_day1,2022.2.4,Linux armv8l,59.87665409,52204,,,,,,,,,,,,,,,,,,,0.656245592,-0.051076041,1,0,0,0.3136,5,3,133,11,1,l,images/br_l.png,images/cb_l.png,,,,,,,,,,,,,,,,,,,,,,,,,
,,,,,,,2023-07-24_10h46.00.545,vbt_B2_day1,2022.2.4,Linux armv8l,59.87665409,52204,,,,,,,,,,,,,,,,,,,0.692744615,-0.062794791,1,0,0,0.1047,5,4,134,13,1,n,images/br_n.png,images/cb_n.png,,,,,,,,,,,,,,,,,,,,,,,,,
,,,,,,,2023-07-24_10h46.00.545,vbt_B2_day1,2022.2.4,Linux armv8l,59.87665409,52204,,,,,,,,,,,,,,,,,,,0.661535305,-0.088673698,1,0,0,0.0692,5,5,135,15,1,p,images/br_p.png,images/cb_p.png,,,,,,,,,,,,,,,,,,,,,,,,,
,,,,,,,2023-07-24_10h46.00.545,vbt_B2_day1,2022.2.4,Linux armv8l,59.87665409,52204,,,,,,,,,,,,,,,,,,,0.745112779,0.027781381,1,0,0,1.3397,5,6,136,20,1,u,images/br_u.png,images/cb_u.png,,,,,,,,,,,,,,,,,,,,,,,,,
,,,,,,,2023-07-24_10h46.00.545,vbt_B2_day1,2022.2.4,Linux armv8l,59.87665409,52204,,,,,,,,,,,,,,,,,,,0.6985633,-0.026906119,1,0,0,0.2006,5,7,137,10,1,k,images/br_k.png,images/cb_k.png,,,,,,,,,,,,,,,,,,,,,,,,,
,,,,,,,2023-07-24_10h46.00.545,vbt_B2_day1,2022.2.4,Linux armv8l,59.87665409,52204,,,,,,,,,,,,,,,,,,,0.789546373,-0.074757682,1,0,0,0.1009,5,8,138,17,1,r,images/br_r.png,images/cb_r.png,,,,,,,,,,,,,,,,,,,,,,,,,
,,,,,,,2023-07-24_10h46.00.545,vbt_B2_day1,2022.2.4,Linux armv8l,59.87665409,52204,,,,,,,,,,,,,,,,,,,0.799596829,-0.042286979,1,0,0,0.7714,5,9,139,22,1,w,images/br_w.png,images/cb_w.png,,,,,,,,,,,,,,,,,,,,,,,,,
,,,,,,,2023-07-24_10h46.00.545,vbt_B2_day1,2022.2.4,Linux armv8l,59.87665409,52204,,,,,,,,,,,,,,,,,,,0.846146308,-0.019826041,1,0,0,0.3995,5,10,140,12,1,m,images/br_m.png,images/cb_m.png,,,,,,,,,,,,,,,,,,,,,,,,,
,,,,,,,2023-07-24_10h46.00.545,vbt_B2_day1,2022.2.4,Linux armv8l,59.87665409,52204,,,,,,,,,,,,,,,,,,,0.853022936,-0.06230651,1,0,0,1.7392,5,11,141,4,1,e,images/br_e.png,images/cb_e.png,,,,,,,,,,,,,,,,,,,,,,,,,
,,,,,,,2023-07-24_10h46.00.545,vbt_B2_day1,2022.2.4,Linux armv8l,59.87665409,52204,,,,,,,,,,,,,,,,,,,0.783198717,-0.106007682,1,0,0,0.5193,5,12,142,14,1,o,images/br_o.png,images/cb_o.png,,,,,,,,,,,,,,,,,,,,,,,,,
,,,,,,,2023-07-24_10h46.00.545,vbt_B2_day1,2022.2.4,Linux armv8l,59.87665409,52204,,,,,,,,,,,,,,,,,,,0.786901516,0.001902474,1,0,0,0.6483,5,13,143,21,1,v,images/br_v.png,images/cb_v.png,,,,,,,,,,,,,,,,,,,,,,,,,
,,,,,,,2023-07-24_10h46.00.545,vbt_B2_day1,2022.2.4,Linux armv8l,59.87665409,52204,,,,,,,,,,,,,,,,,,,0.701208157,-0.064992057,1,0,0,0.4291,5,14,144,0,1,a,images/br_a.png,images/cb_a.png,,,,,,,,,,,,,,,,,,,,,,,,,
,,,,,,,2023-07-24_10h46.00.545,vbt_B2_day1,2022.2.4,Linux armv8l,59.87665409,52204,,,,,,,,,,,,,,,,,,,0.711787584,-0.024220573,1,0,0,0.0333,5,15,145,9,1,j,images/br_j.png,images/cb_j.png,,,,,,,,,,,,,,,,,,,,,,,,,
,,,,,,,2023-07-24_10h46.00.545,vbt_B2_day1,2022.2.4,Linux armv8l,59.87665409,52204,,,,,,,,,,,,,,,,,,,0.696447415,-0.013722526,1,0,0,0.2343,5,16,146,3,1,d,images/br_d.png,images/cb_d.png,,,,,,,,,,,,,,,,,,,,,,,,,
,,,,,,,2023-07-24_10h46.00.545,vbt_B2_day1,2022.2.4,Linux armv8l,59.87665409,52204,,,,,,,,,,,,,,,,,,,0.73770718,-0.014454948,1,0,0,0.4311,5,17,147,16,1,q,images/br_q.png,images/cb_q.png,,,,,,,,,,,,,,,,,,,,,,,,,
,,,,,,,2023-07-24_10h46.00.545,vbt_B2_day1,2022.2.4,Linux armv8l,59.87665409,52204,,,,,,,,,,,,,,,,,,,0.704381985,-0.008595573,1,0,0,0.0338,5,18,148,1,1,b,images/br_b.png,images/cb_b.png,,,,,,,,,,,,,,,,,,,,,,,,,
,,,,,,,2023-07-24_10h46.00.545,vbt_B2_day1,2022.2.4,Linux armv8l,59.87665409,52204,,,,,,,,,,,,,,,,,,,0.73770718,0.053904427,1,0,0,0.3932,5,19,149,6,1,g,images/br_g.png,images/cb_g.png,,,,,,,,,,,,,,,,,,,,,,,,,
,,,,,,,2023-07-24_10h46.00.545,vbt_B2_day1,2022.2.4,Linux armv8l,59.87665409,52204,,,,,,,,,,,,,,,,,,,0.689570787,-0.006642448,1,0,0,0.1176,5,20,150,7,1,h,images/br_h.png,images/cb_h.png,,,,,,,,,,,,,,,,,,,,,,,,,
,,,,,,,2023-07-24_10h46.00.545,vbt_B2_day1,2022.2.4,Linux armv8l,59.87665409,52204,,,,,,,,,,,,,,,,,,,0.729243639,0.019236459,1,0,0,1.4951,5,21,151,24,1,y,images/br_y.png,images/cb_y.png,,,,,,,,,,,,,,,,,,,,,,,,,
,,,,,,,2023-07-24_10h46.00.545,vbt_B2_day1,2022.2.4,Linux armv8l,59.87665409,52204,,,,,,,,,,,,,,,,,,,0.713374498,-0.043751823,1,0,0,1.0132,5,22,152,5,1,f,images/br_f.png,images/cb_f.png,,,,,,,,,,,,,,,,,,,,,,,,,
,,,,,,,2023-07-24_10h46.00.545,vbt_B2_day1,2022.2.4,Linux armv8l,59.87665409,52204,,,,,,,,,,,,,,,,,,,0.767858548,0.045359506,1,0,0,0.9568,5,23,153,18,1,s,images/br_s.png,images/cb_s.png,,,,,,,,,,,,,,,,,,,,,,,,,
,,,,,,,2023-07-24_10h46.00.545,vbt_B2_day1,2022.2.4,Linux armv8l,59.87665409,52204,,,,,,,,,,,,,,,,,,,0.796423001,0.022654427,1,0,0,0.4167,5,24,154,25,1,z,images/br_z.png,images/cb_z.png,,,,,,,,,,,,,,,,,,,,,,,,,
,,,,,,,2023-07-24_10h46.00.545,vbt_B2_day1,2022.2.4,Linux armv8l,59.87665409,52204,,,,,,,,,,,,,,,,,,,0.813879055,0.058298959,1,0,0,0.5243,5,25,155,23,1,x,images/br_x.png,images/cb_x.png,,,,,,,,,,,,,,,,,,,,,,,,,
,,,,,,,2023-07-24_10h46.00.545,vbt_B2_day1,2022.2.4,Linux armv8l,59.87665409,52204,,,,,,,,,,,,,,,,,,,0.819168769,0.023142709,1,0,0,0.3412,6,0,156,0,1,a,images/br_a.png,images/cb_a.png,,,,,,,,,,,,,,,,,,,,,,,,,
,,,,,,,2023-07-24_10h46.00.545,vbt_B2_day1,2022.2.4,Linux armv8l,59.87665409,52204,,,,,,,,,,,,,,,,,,,0.755163235,-0.003224479,1,0,0,0.1053,6,1,157,9,1,j,images/br_j.png,images/cb_j.png,,,,,,,,,,,,,,,,,,,,,,,,,
,,,,,,,2023-07-24_10h46.00.545,vbt_B2_day1,2022.2.4,Linux armv8l,59.87665409,52204,,,,,,,,,,,,,,,,,,,0.756750149,-0.049855338,1,0,0,0.7426,6,2,158,6,1,g,images/br_g.png,images/cb_g.png,,,,,,,,,,,,,,,,,,,,,,,,,
,,,,,,,2023-07-24_10h46.00.545,vbt_B2_day1,2022.2.4,Linux armv8l,59.87665409,52204,,,,,,,,,,,,,,,,,,,0.801712714,-0.019581901,1,0,0,0.3521,6,3,159,10,1,k,images/br_k.png,images/cb_k.png,,,,,,,,,,,,,,,,,,,,,,,,,
,,,,,,,2023-07-24_10h46.00.545,vbt_B2_day1,2022.2.4,Linux armv8l,59.87665409,52204,,,,,,,,,,,,,,,,,,,0.804357571,0.016795052,1,0,0,0.7187,6,4,160,17,1,r,images/br_r.png,images/cb_r.png,,,,,,,,,,,,,,,,,,,,,,,,,
,,,,,,,2023-07-24_10h46.00.545,vbt_B2_day1,2022.2.4,Linux armv8l,59.87665409,52204,,,,,,,,,,,,,,,,,,,0.725540839,-0.075978385,1,0,0,0.3177,6,5,161,13,1,n,images/br_n.png,images/cb_n.png,,,,,,,,,,,,,,,,,,,,,,,,,
,,,,,,,2023-07-24_10h46.00.545,vbt_B2_day1,2022.2.4,Linux armv8l,59.87665409,52204,,,,,,,,,,,,,,,,,,,0.751460436,-0.057179557,1,0,0,0.5986,6,6,162,8,1,i,images/br_i.png,images/cb_i.png,,,,,,,,,,,,,,,,,,,,,,,,,
,,,,,,,2023-07-24_10h46.00.545,vbt_B2_day1,2022.2.4,Linux armv8l,59.87665409,52204,,,,,,,,,,,,,,,,,,,0.67105679,-0.065968619,1,0,0,0.5511,6,7,163,20,1,u,images/br_u.png,images/cb_u.png,,,,,,,,,,,,,,,,,,,,,,,,,
,,,,,,,2023-07-24_10h46.00.545,vbt_B2_day1,2022.2.4,Linux armv8l,59.87665409,52204,,,,,,,,,,,,,,,,,,,0.661535305,-0.07793151,1,0,0,0.1246,6,8,164,3,1,d,images/br_d.png,images/cb_d.png,,,,,,,,,,,,,,,,,,,,,,,,,
,,,,,,,2023-07-24_10h46.00.545,vbt_B2_day1,2022.2.4,Linux armv8l,59.87665409,52204,,,,,,,,,,,,,,,,,,,0.712316555,-0.044972526,1,0,0,0.2603,6,9,165,2,1,c,images/br_c.png,images/cb_c.png,,,,,,,,,,,,,,,,,,,,,,,,,
,,,,,,,2023-07-24_10h46.00.545,vbt_B2_day1,2022.2.4,Linux armv8l,59.87665409,52204,,,,,,,,,,,,,,,,,,,0.71020067,-0.038380729,1,0,0,1.352,6,10,166,12,1,m,images/br_m.png,images/cb_m.png,,,,,,,,,,,,,,,,,,,,,,,,,
,,,,,,,2023-07-24_10h46.00.545,vbt_B2_day1,2022.2.4,Linux armv8l,59.87665409,52204,,,,,,,,,,,,,,,,,,,0.727656725,-0.025685416,1,0,0,1.0943,6,11,167,22,1,w,images/br_w.png,images/cb_w.png,,,,,,,,,,,,,,,,,,,,,,,,,
,,,,,,,2023-07-24_10h46.00.545,vbt_B2_day1,2022.2.4,Linux armv8l,59.87665409,52204,,,,,,,,,,,,,,,,,,,0.750402493,0.002390756,1,0,0,0.757,6,12,168,14,1,o,images/br_o.png,images/cb_o.png,,,,,,,,,,,,,,,,,,,,,,,,,
,,,,,,,2023-07-24_10h46.00.545,vbt_B2_day1,2022.2.4,Linux armv8l,59.87665409,52204,,,,,,,,,,,,,,,,,,,0.719193183,-0.032277213,1,0,0,0.2813,6,13,169,1,1,b,images/br_b.png,images/cb_b.png,,,,,,,,,,,,,,,,,,,,,,,,,
,,,,,,,2023-07-24_10h46.00.545,vbt_B2_day1,2022.2.4,Linux armv8l,59.87665409,52204,,,,,,,,,,,,,,,,,,,0.789017402,0.043406381,1,0,0,0.2172,6,14,170,24,1,y,images/br_y.png,images/cb_y.png,,,,,,,,,,,,,,,,,,,,,,,,,
,,,,,,,2023-07-24_10h46.00.545,vbt_B2_day1,2022.2.4,Linux armv8l,59.87665409,52204,,,,,,,,,,,,,,,,,,,0.81176317,0.05878724,1,0,0,0.3001,6,15,171,4,1,e,images/br_e.png,images/cb_e.png,,,,,,,,,,,,,,,,,,,,,,,,,
,,,,,,,2023-07-24_10h46.00.545,vbt_B2_day1,2022.2.4,Linux armv8l,59.87665409,52204,,,,,,,,,,,,,,,,,,,0.82340054,0.055857552,1,0,0,0.3685,6,16,172,15,1,p,images/br_p.png,images/cb_p.png,,,,,,,,,,,,,,,,,,,,,,,,,
,,,,,,,2023-07-24_10h46.00.545,vbt_B2_day1,2022.2.4,Linux armv8l,59.87665409,52204,,,,,,,,,,,,,,,,,,,0.8038286,0.037058724,1,0,0,0.4006,6,17,173,21,1,v,images/br_v.png,images/cb_v.png,,,,,,,,,,,,,,,,,,,,,,,,,
,,,,,,,2023-07-24_10h46.00.545,vbt_B2_day1,2022.2.4,Linux armv8l,59.87665409,52204,,,,,,,,,,,,,,,,,,,0.773677233,0.018259896,1,0,0,0.0881,6,18,174,7,1,h,images/br_h.png,images/cb_h.png,,,,,,,,,,,,,,,,,,,,,,,,,
,,,,,,,2023-07-24_10h46.00.545,vbt_B2_day1,2022.2.4,Linux armv8l,59.87665409,52204,,,,,,,,,,,,,,,,,,,0.791133287,0.023386849,1,0,0,0.4501,6,19,175,5,1,f,images/br_f.png,images/cb_f.png,,,,,,,,,,,,,,,,,,,,,,,,,
,,,,,,,2023-07-24_10h46.00.545,vbt_B2_day1,2022.2.4,Linux armv8l,59.87665409,52204,,,,,,,,,,,,,,,,,,,0.704910956,-0.039113151,1,0,0,0.0158,6,20,176,16,1,q,images/br_q.png,images/cb_q.png,,,,,,,,,,,,,,,,,,,,,,,,,
,,,,,,,2023-07-24_10h46.00.545,vbt_B2_day1,2022.2.4,Linux armv8l,59.87665409,52204,,,,,,,,,,,,,,,,,,,0.76891649,-0.027394401,1,0,0,0.5727,6,21,177,23,1,x,images/br_x.png,images/cb_x.png,,,,,,,,,,,,,,,,,,,,,,,,,
,,,,,,,2023-07-24_10h46.00.545,vbt_B2_day1,2022.2.4,Linux armv8l,59.87665409,52204,,,,,,,,,,,,,,,,,,,0.751989407,-0.000783073,1,0,0,0.2193,6,22,178,19,1,t,images/br_t.png,images/cb_t.png,,,,,,,,,,,,,,,,,,,,,,,,,
,,,,,,,2023-07-24_10h46.00.545,vbt_B2_day1,2022.2.4,Linux armv8l,59.87665409,52204,,,,,,,,,,,,,,,,,,,0.785314602,0.006297006,1,0,0,0.468,6,23,179,25,1,z,images/br_z.png,images/cb_z.png,,,,,,,,,,,,,,,,,,,,,,,,,
,,,,,,,2023-07-24_10h46.00.545,vbt_B2_day1,2022.2.4,Linux armv8l,59.87665409,52204,,,,,,,,,,,,,,,,,,,0.72977261,-0.036183463,1,0,0,0.1323,6,24,180,11,1,l,images/br_l.png,images/cb_l.png,,,,,,,,,,,,,,,,,,,,,,,,,
,,,,,,,2023-07-24_10h46.00.545,vbt_B2_day1,2022.2.4,Linux armv8l,59.87665409,52204,,,,,,,,,,,,,,,,,,,0.740881009,-0.019093619,1,0,0,0.1506,6,25,181,18,1,s,images/br_s.png,images/cb_s.png,,,,,,,,,,,,,,,,,,,,,,,,,
,,,,,,,2023-07-24_10h46.00.545,vbt_B2_day1,2022.2.4,Linux armv8l,59.87665409,52204,,,,,,,,,,,,,,,,,,,,,,,,,,,,,,,,,-0.539758725,0.463572409,1,0,0,,,,,,,,,,,,,,,,,,,,
,,,,,,,2023-07-24_10h46.00.545,vbt_B2_day1,2022.2.4,Linux armv8l,59.87665409,52204,,,,,,,,,,,,,,,,,,,,,,,,,,,,,,,,,,,,,,0.843501451,-0.14824401,1,0,0,,,,,,,,,,,,,,,
,,,,,,,2023-07-24_10h46.00.545,vbt_B2_day1,2022.2.4,Linux armv8l,59.87665409,52204,,,,,,,,,,,,,,,,,,,,,,,,,,,,,,,,,,,,,,,,,,,2.585025411,-0.153737565,1,0,0,Tehe...,Tehe...,0,0,0,55,1,tekenen,images/br_tekenen.png,images/cb_tekenen.png
,,,,,,,2023-07-24_10h46.00.545,vbt_B2_day1,2022.2.4,Linux armv8l,59.87665409,52204,,,,,,,,,,,,,,,,,,,,,,,,,,,,,,,,,,,,,,,,,,,1.91047518,-0.096794343,1,0,0,Liegen,Liegen,0,1,1,50,1,liegen,images/br_liegen.png,images/cb_liegen.png
,,,,,,,2023-07-24_10h46.00.545,vbt_B2_day1,2022.2.4,Linux armv8l,59.87665409,52204,,,,,,,,,,,,,,,,,,,,,,,,,,,,,,,,,,,,,,,,,,,1.824647715,-0.152499669,1,0,0,Attentie,Attentie,0,2,2,17,1,attentie,images/br_attentie.png,images/cb_attentie.png
,,,,,,,2023-07-24_10h46.00.545,vbt_B2_day1,2022.2.4,Linux armv8l,59.87665409,52204,,,,,,,,,,,,,,,,,,,,,,,,,,,,,,,,,,,,,,,,,,,2.074083785,-0.160545994,1,0,0,Lezen,Lezen,0,3,3,46,1,lezen,images/br_lezen.png,images/cb_lezen.png
,,,,,,,2023-07-24_10h46.00.545,vbt_B2_day1,2022.2.4,Linux armv8l,59.87665409,52204,,,,,,,,,,,,,,,,,,,,,,,,,,,,,,,,,,,,,,,,,,,2.057991135,-0.091223811,1,0,0,.anj..,.anj..,0,4,4,8,1,kanjer,images/br_kanjer.png,images/cb_kanjer.png
,,,,,,,2023-07-24_10h46.00.545,vbt_B2_day1,2022.2.4,Linux armv8l,59.87665409,52204,,,,,,,,,,,,,,,,,,,,,,,,,,,,,,,,,,,,,,,,,,,1.878289881,-0.174781799,1,0,0,Booi,Booi,0,5,5,23,1,booi,images/br_booi.png,images/cb_booi.png
,,,,,,,2023-07-24_10h46.00.545,vbt_B2_day1,2022.2.4,Linux armv8l,59.87665409,52204,,,,,,,,,,,,,,,,,,,,,,,,,,,,,,,,,,,,,,,,,,,1.946683642,-0.185922864,1,0,0,Lava,Lava,0,6,6,43,1,lava,images/br_lava.png,images/cb_lava.png
,,,,,,,2023-07-24_10h46.00.545,vbt_B2_day1,2022.2.4,Linux armv8l,59.87665409,52204,,,,,,,,,,,,,,,,,,,,,,,,,,,,,,,,,,,,,,,,,,,2.040557432,-0.169830215,1,0,0,Ree.d.,Ree.d.,0,7,7,30,1,reedje,images/br_reedje.png,images/cb_reedje.png
,,,,,,,2023-07-24_10h46.00.545,vbt_B2_day1,2022.2.4,Linux armv8l,59.87665409,52204,,,,,,,,,,,,,,,,,,,,,,,,,,,,,,,,,,,,,,,,,,,1.891700422,-0.176638644,1,0,0,Waar....,Waar....,0,8,8,14,1,waarvan,images/br_waarvan.png,images/cb_waarvan.png
,,,,,,,2023-07-24_10h46.00.545,vbt_B2_day1,2022.2.4,Linux armv8l,59.87665409,52204,,,,,,,,,,,,,,,,,,,,,,,,,,,,,,,,,,,,,,,,,,,2.044580594,-0.16487863,1,0,0,Muziek,Muziek,0,9,9,10,1,muziek,images/br_muziek.png,images/cb_muziek.png
,,,,,,,2023-07-24_10h46.00.545,vbt_B2_day1,2022.2.4,Linux armv8l,59.87665409,52204,,,,,,,,,,,,,,,,,,,,,,,,,,,,,,,,,,,,,,,,,,,1.84878669,-0.180352332,1,0,0,Loods,Loods,0,10,10,47,1,loods,images/br_loods.png,images/cb_loods.png
,,,,,,,2023-07-24_10h46.00.545,vbt_B2_day1,2022.2.4,Linux armv8l,59.87665409,52204,,,,,,,,,,,,,,,,,,,,,,,,,,,,,,,,,,,,,,,,,,,1.808555066,-0.193350241,1,0,0,Widse,Widse,0,11,11,44,1,wijze,images/br_wijze.png,images/cb_wijze.png
,,,,,,,2023-07-24_10h46.00.545,vbt_B2_day1,2022.2.4,Linux armv8l,59.87665409,52204,,,,,,,,,,,,,,,,,,,,,,,,,,,,,,,,,,,,,,,,,,,1.84878669,-0.245960827,1,0,0,Mazd,Mazd,0,12,12,3,1,mand,images/br_mand.png,images/cb_mand.png
,,,,,,,2023-07-24_10h46.00.545,vbt_B2_day1,2022.2.4,Linux armv8l,59.87665409,52204,,,,,,,,,,,,,,,,,,,,,,,,,,,,,,,,,,,,,,,,,,,1.840740365,-0.189636553,1,0,0,Fictie,Fictie,0,13,13,48,1,fictie,images/br_fictie.png,images/cb_fictie.png
,,,,,,,2023-07-24_10h46.00.545,vbt_B2_day1,2022.2.4,Linux armv8l,59.87665409,52204,,,,,,,,,,,,,,,,,,,,,,,,,,,,,,,,,,,,,,,,,,,1.61544327,-0.131455435,1,0,0,Sch...,Sch...,0,14,14,4,1,schep,images/br_schep.png,images/cb_schep.png
,,,,,,,2023-07-24_10h46.00.545,vbt_B2_day1,2022.2.4,Linux armv8l,59.87665409,52204,,,,,,,,,,,,,,,,,,,,,,,,,,,,,,,,,,,,,,,,,,,1.512182101,-0.192731293,1,0,0,Liefde,Liefde,0,15,15,51,1,liefde,images/br_liefde.png,images/cb_liefde.png
,,,,,,,2023-07-24_10h46.00.545,vbt_B2_day1,2022.2.4,Linux armv8l,59.87665409,52204,,,,,,,,,,,,,,,,,,,,,,,,,,,,,,,,,,,,,,,,,,,1.884995152,-0.147548085,1,0,0,Offlaa.,Offlaa.,0,16,16,32,1,opplaan,images/br_opplaan.png,images/cb_opplaan.png
,,,,,,,2023-07-24_10h46.00.545,vbt_B2_day1,2022.2.4,Linux armv8l,59.87665409,52204,,,,,,,,,,,,,,,,,,,,,,,,,,,,,,,,,,,,,,,,,,,1.56046005,-0.166116526,1,0,0,Voorrang,Voorrang,0,17,17,39,1,voorreur,images/br_voorreur.png,images/cb_voorreur.png
,,,,,,,2023-07-24_10h46.00.545,vbt_B2_day1,2022.2.4,Linux armv8l,59.87665409,52204,,,,,,,,,,,,,,,,,,,,,,,,,,,,,,,,,,,,,,,,,,,1.530956859,-0.20015867,1,0,0,Vizier,Vizier,0,18,18,49,1,vizier,images/br_vizier.png,images/cb_vizier.png
,,,,,,,2023-07-24_10h46.00.545,vbt_B2_day1,2022.2.4,Linux armv8l,59.87665409,52204,,,,,,,,,,,,,,,,,,,,,,,,,,,,,,,,,,,,,,,,,,,1.669085435,-0.180352332,1,0,0,Valof,Valof,0,19,19,26,1,valop,images/br_valop.png,images/cb_valop.png
,,,,,,,2023-07-24_10h46.00.545,vbt_B2_day1,2022.2.4,Linux armv8l,59.87665409,52204,,,,,,,,,,,,,,,,,,,,,,,,,,,,,,,,,,,,,,,,,,,1.776369766,-0.094318551,1,0,0,Hier...,Hier...,0,20,20,15,1,hiervan,images/br_hiervan.png,images/cb_hiervan.png
,,,,,,,2023-07-24_10h46.00.545,vbt_B2_day1,2022.2.4,Linux armv8l,59.87665409,52204,,,,,,,,,,,,,,,,,,,,,,,,,,,,,,,,,,,,,,,,,,,1.788439254,-0.060895356,1,0,0,Daed,Daed,0,21,21,21,1,dred,images/br_dred.png,images/cb_dred.png
,,,,,,,2023-07-24_10h46.00.545,vbt_B2_day1,2022.2.4,Linux armv8l,59.87665409,52204,,,,,,,,,,,,,,,,,,,,,,,,,,,,,,,,,,,,,,,,,,,1.63824119,-0.172924955,1,0,0,Schz......,Schz......,0,22,22,19,1,schuilen,images/br_schuilen.png,images/cb_schuilen.png
,,,,,,,2023-07-24_10h46.00.545,vbt_B2_day1,2022.2.4,Linux armv8l,59.87665409,52204,,,,,,,,,,,,,,,,,,,,,,,,,,,,,,,,,,,,,,,,,,,1.733456034,-0.118457526,1,0,0,Hoog,Hoog,0,23,23,41,1,hoog,images/br_hoog.png,images/cb_hoog.png
,,,,,,,2023-07-24_10h46.00.545,vbt_B2_day1,2022.2.4,Linux armv8l,59.87665409,52204,,,,,,,,,,,,,,,,,,,,,,,,,,,,,,,,,,,,,,,,,,,1.667744381,-0.204491306,1,0,0,Dief,Dief,0,24,24,40,1,dief,images/br_dief.png,images/cb_dief.png
,,,,,,,2023-07-24_10h46.00.545,vbt_B2_day1,2022.2.4,Linux armv8l,59.87665409,52204,,,,,,,,,,,,,,,,,,,,,,,,,,,,,,,,,,,,,,,,,,,1.435742016,-0.170449163,1,0,0,Bebr...,Bebr...,0,25,25,28,1,bebrip,images/br_bebrip.png,images/cb_bebrip.png
,,,,,,,2023-07-24_10h46.00.545,vbt_B2_day1,2022.2.4,Linux armv8l,59.87665409,52204,,,,,,,,,,,,,,,,,,,,,,,,,,,,,,,,,,,,,,,,,,,1.711999168,-0.118457526,1,0,0,Klimmen,Klimmen,0,26,26,12,1,klimmen,images/br_klimmen.png,images/cb_klimmen.png
,,,,,,,2023-07-24_10h46.00.545,vbt_B2_day1,2022.2.4,Linux armv8l,59.87665409,52204,,,,,,,,,,,,,,,,,,,,,,,,,,,,,,,,,,,,,,,,,,,1.640923299,-0.234200813,1,0,0,Spa......,Spa......,0,27,27,37,1,spanzing,images/br_spanzing.png,images/cb_spanzing.png
,,,,,,,2023-07-24_10h46.00.545,vbt_B2_day1,2022.2.4,Linux armv8l,59.87665409,52204,,,,,,,,,,,,,,,,,,,,,,,,,,,,,,,,,,,,,,,,,,,1.830011932,-0.179114436,1,0,0,Re.er,Re.er,0,28,28,24,1,rezer,images/br_rezer.png,images/cb_rezer.png
,,,,,,,2023-07-24_10h46.00.545,vbt_B2_day1,2022.2.4,Linux armv8l,59.87665409,52204,,,,,,,,,,,,,,,,,,,,,,,,,,,,,,,,,,,,,,,,,,,1.863538285,-0.198301826,1,0,0,Daarheen,Daarheen,0,29,29,16,1,daarheen,images/br_daarheen.png,images/cb_daarheen.png
,,,,,,,2023-07-24_10h46.00.545,vbt_B2_day1,2022.2.4,Linux armv8l,59.87665409,52204,,,,,,,,,,,,,,,,,,,,,,,,,,,,,,,,,,,,,,,,,,,1.697247572,-0.149404929,1,0,0,Maken,Maken,0,30,30,5,1,maken,images/br_maken.png,images/cb_maken.png
,,,,,,,2023-07-24_10h46.00.545,vbt_B2_day1,2022.2.4,Linux armv8l,59.87665409,52204,,,,,,,,,,,,,,,,,,,,,,,,,,,,,,,,,,,,,,,,,,,1.870243556,-0.205729202,1,0,0,Slak,Slak,0,31,31,0,1,slak,images/br_slak.png,images/cb_slak.png
,,,,,,,2023-07-24_10h46.00.545,vbt_B2_day1,2022.2.4,Linux armv8l,59.87665409,52204,,,,,,,,,,,,,,,,,,,,,,,,,,,,,,,,,,,,,,,,,,,1.823306661,-0.304760893,1,0,0,Bleek,Bleek,0,32,32,6,1,bleek,images/br_bleek.png,images/cb_bleek.png
,,,,,,,2023-07-24_10h46.00.545,vbt_B2_day1,2022.2.4,Linux armv8l,59.87665409,52204,,,,,,,,,,,,,,,,,,,,,,,,,,,,,,,,,,,,,,,,,,,1.886336206,-0.212537631,1,0,0,Staken,Staken,0,33,33,31,1,stamen,images/br_stamen.png,images/cb_stamen.png
,,,,,,,2023-07-24_10h46.00.545,vbt_B2_day1,2022.2.4,Linux armv8l,59.87665409,52204,,,,,,,,,,,,,,,,,,,,,,,,,,,,,,,,,,,,,,,,,,,1.675790706,-0.21625132,1,0,0,.etd.....,.etd.....,0,34,34,18,1,uitdelen,images/br_uitdelen.png,images/cb_uitdelen.png
,,,,,,,2023-07-24_10h46.00.545,vbt_B2_day1,2022.2.4,Linux armv8l,59.87665409,52204,,,,,,,,,,,,,,,,,,,,,,,,,,,,,,,,,,,,,,,,,,,1.974845779,-0.193969189,1,0,0,Dubbel,Dubbel,0,35,35,9,1,dubbel,images/br_dubbel.png,images/cb_dubbel.png
,,,,,,,2023-07-24_10h46.00.545,vbt_B2_day1,2022.2.4,Linux armv8l,59.87665409,52204,,,,,,,,,,,,,,,,,,,,,,,,,,,,,,,,,,,,,,,,,,,1.966799454,-0.159927046,1,0,0,Opslaan,Opslaan,0,36,36,53,1,opslaan,images/br_opslaan.png,images/cb_opslaan.png
,,,,,,,2023-07-24_10h46.00.545,vbt_B2_day1,2022.2.4,Linux armv8l,59.87665409,52204,,,,,,,,,,,,,,,,,,,,,,,,,,,,,,,,,,,,,,,,,,,1.803190849,-0.354895686,1,0,0,.ootwe..,.ootwe..,0,37,37,58,1,voorkeur,images/br_voorkeur.png,images/cb_voorkeur.png
,,,,,,,2023-07-24_10h46.00.545,vbt_B2_day1,2022.2.4,Linux armv8l,59.87665409,52204,,,,,,,,,,,,,,,,,,,,,,,,,,,,,,,,,,,,,,,,,,,1.997643699,-0.220583956,1,0,0,Propt,Propt,0,38,38,27,1,prort,images/br_prort.png,images/cb_prort.png
,,,,,,,2023-07-24_10h46.00.545,vbt_B2_day1,2022.2.4,Linux armv8l,59.87665409,52204,,,,,,,,,,,,,,,,,,,,,,,,,,,,,,,,,,,,,,,,,,,1.960094183,-0.148167033,1,0,0,Meenenen,Meenenen,0,39,39,57,1,meenemen,images/br_meenemen.png,images/cb_meenemen.png
,,,,,,,2023-07-24_10h46.00.545,vbt_B2_day1,2022.2.4,Linux armv8l,59.87665409,52204,,,,,,,,,,,,,,,,,,,,,,,,,,,,,,,,,,,,,,,,,,,1.831352986,-0.150642825,1,0,0,Zuip....,Zuip....,0,40,40,52,1,zuiplap,images/br_zuiplap.png,images/cb_zuiplap.png
,,,,,,,2023-07-24_10h46.00.545,vbt_B2_day1,2022.2.4,Linux armv8l,59.87665409,52204,,,,,,,,,,,,,,,,,,,,,,,,,,,,,,,,,,,,,,,,,,,1.990938428,-0.089985915,1,0,0,,,0,41,41,33,1,flullen,images/br_flullen.png,images/cb_flullen.png
,,,,,,,2023-07-24_10h46.00.545,vbt_B2_day1,2022.2.4,Linux armv8l,59.87665409,52204,,,,,,,,,,,,,,,,,,,,,,,,,,,,,,,,,,,,,,,,,,,1.919862559,-0.16178389,1,0,0,Schielen,Schielen,0,42,42,38,1,schielen,images/br_schielen.png,images/cb_schielen.png
,,,,,,,2023-07-24_10h46.00.545,vbt_B2_day1,2022.2.4,Linux armv8l,59.87665409,52204,,,,,,,,,,,,,,,,,,,,,,,,,,,,,,,,,,,,,,,,,,,2.02714689,-0.112268045,1,0,0,Stuk,Stuk,0,43,43,42,1,stuk,images/br_stuk.png,images/cb_stuk.png
,,,,,,,2023-07-24_10h46.00.545,vbt_B2_day1,2022.2.4,Linux armv8l,59.87665409,52204,,,,,,,,,,,,,,,,,,,,,,,,,,,,,,,,,,,,,,,,,,,2.020441619,-0.171687059,1,0,0,.noe,.noe,0,44,44,22,1,knoe,images/br_knoe.png,images/cb_knoe.png
,,,,,,,2023-07-24_10h46.00.545,vbt_B2_day1,2022.2.4,Linux armv8l,59.87665409,52204,,,,,,,,,,,,,,,,,,,,,,,,,,,,,,,,,,,,,,,,,,,2.078106947,-0.167354423,1,0,0,Stui.em,Stui.em,0,45,45,35,1,stuikem,images/br_stuikem.png,images/cb_stuikem.png
,,,,,,,2023-07-24_10h46.00.545,vbt_B2_day1,2022.2.4,Linux armv8l,59.87665409,52204,,,,,,,,,,,,,,,,,,,,,,,,,,,,,,,,,,,,,,,,,,,2.106269084,-0.171687059,1,0,0,Lochten,Lochten,0,46,46,34,1,lochten,images/br_lochten.png,images/cb_lochten.png
,,,,,,,2023-07-24_10h46.00.545,vbt_B2_day1,2022.2.4,Linux armv8l,59.87665409,52204,,,,,,,,,,,,,,,,,,,,,,,,,,,,,,,,,,,,,,,,,,,1.98825632,-0.208204995,1,0,0,Tars,Tars,0,47,47,20,1,tars,images/br_tars.png,images/cb_tars.png
,,,,,,,2023-07-24_10h46.00.545,vbt_B2_day1,2022.2.4,Linux armv8l,59.87665409,52204,,,,,,,,,,,,,,,,,,,,,,,,,,,,,,,,,,,,,,,,,,,1.84878669,-0.217489216,1,0,0,Menen.,Menen.,0,48,48,11,1,mening,images/br_mening.png,images/cb_mening.png
,,,,,,,2023-07-24_10h46.00.545,vbt_B2_day1,2022.2.4,Linux armv8l,59.87665409,52204,,,,,,,,,,,,,,,,,,,,,,,,,,,,,,,,,,,,,,,,,,,1.875607773,-0.215013423,1,0,0,Toenic...,Toenic...,0,49,49,56,1,toezicht,images/br_toezicht.png,images/cb_toezicht.png
,,,,,,,2023-07-24_10h46.00.545,vbt_B2_day1,2022.2.4,Linux armv8l,59.87665409,52204,,,,,,,,,,,,,,,,,,,,,,,,,,,,,,,,,,,,,,,,,,,2.057991135,-0.164259682,1,0,0,Genond,Genond,0,50,50,29,1,genond,images/br_genond.png,images/cb_genond.png
,,,,,,,2023-07-24_10h46.00.545,vbt_B2_day1,2022.2.4,Linux armv8l,59.87665409,52204,,,,,,,,,,,,,,,,,,,,,,,,,,,,,,,,,,,,,,,,,,,1.765641333,-0.211299735,1,0,0,Klauw,Klauw,0,51,51,7,1,klauw,images/br_klauw.png,images/cb_klauw.png
,,,,,,,2023-07-24_10h46.00.545,vbt_B2_day1,2022.2.4,Linux armv8l,59.87665409,52204,,,,,,,,,,,,,,,,,,,,,,,,,,,,,,,,,,,,,,,,,,,1.844763527,-0.212537631,1,0,0,.ij....,.ij....,0,52,52,54,1,vijftig,images/br_vijftig.png,images/cb_vijftig.png
,,,,,,,2023-07-24_10h46.00.545,vbt_B2_day1,2022.2.4,Linux armv8l,59.87665409,52204,,,,,,,,,,,,,,,,,,,,,,,,,,,,,,,,,,,,,,,,,,,2.12772595,-0.189017605,1,0,0,Hemel,Hemel,0,53,53,45,1,hemel,images/br_hemel.png,images/cb_hemel.png
,,,,,,,2023-07-24_10h46.00.545,vbt_B2_day1,2022.2.4,Linux armv8l,59.87665409,52204,,,,,,,,,,,,,,,,,,,,,,,,,,,,,,,,,,,,,,,,,,,2.025805836,-0.193350241,1,0,0,Jaar,Jaar,0,54,54,2,1,jaar,images/br_jaar.png,images/cb_jaar.png
,,,,,,,2023-07-24_10h46.00.545,vbt_B2_day1,2022.2.4,Linux armv8l,59.87665409,52204,,,,,,,,,,,,,,,,,,,,,,,,,,,,,,,,,,,,,,,,,,,1.968140508,-0.157451254,1,0,0,Oplatten,Oplatten,0,55,55,59,1,opvatten,images/br_opvatten.png,images/cb_opvatten.png
,,,,,,,2023-07-24_10h46.00.545,vbt_B2_day1,2022.2.4,Linux armv8l,59.87665409,52204,,,,,,,,,,,,,,,,,,,,,,,,,,,,,,,,,,,,,,,,,,,1.978868941,-0.242866086,1,0,0,Brij.,Brij.,0,56,56,25,1,brijk,images/br_brijk.png,images/cb_brijk.png
,,,,,,,2023-07-24_10h46.00.545,vbt_B2_day1,2022.2.4,Linux armv8l,59.87665409,52204,,,,,,,,,,,,,,,,,,,,,,,,,,,,,,,,,,,,,,,,,,,1.990938428,-0.093699603,1,0,0,Zaal,Zaal,0,57,57,1,1,zaal,images/br_zaal.png,images/cb_zaal.png
,,,,,,,2023-07-24_10h46.00.545,vbt_B2_day1,2022.2.4,Linux armv8l,59.87665409,52204,,,,,,,,,,,,,,,,,,,,,,,,,,,,,,,,,,,,,,,,,,,1.922544667,-0.304141945,1,0,0,Letland,Letland,0,58,58,36,1,vervaden,images/br_vervaden.png,images/cb_vervaden.png
,,,,,,,2023-07-24_10h46.00.545,vbt_B2_day1,2022.2.4,Linux armv8l,59.87665409,52204,,,,,,,,,,,,,,,,,,,,,,,,,,,,,,,,,,,,,,,,,,,1.937296263,-0.132693331,1,0,0,Twij...,Twij...,0,59,59,13,1,twijfel,images/br_twijfel.png,images/cb_twijfel.png
,,,,,,,2023-07-24_10h46.00.545,vbt_B2_day1,2022.2.4,Linux armv8l,59.87665409,52204,,,,,,,,,,,,,,,,,,,,,,,,,,,,,,,,,,,,,,,,,,,,,,,,,,,,,,,,,
