welcome_mouse.x,welcome_mouse.y,welcome_mouse.leftButton,welcome_mouse.midButton,welcome_mouse.rightButton,welcome_mouse.time,"ID",date,expName,psychopyVersion,OS,frameRate,mouse_2.x,mouse_2.y,mouse_2.leftButton,mouse_2.midButton,mouse_2.rightButton,mouse_2.time,mouse_3.x,mouse_3.y,mouse_3.leftButton,mouse_3.midButton,mouse_3.rightButton,mouse_3.time,train_mouse.x,train_mouse.y,train_mouse.leftButton,train_mouse.midButton,train_mouse.rightButton,train_mouse.time,braille_mouse.x,braille_mouse.y,braille_mouse.leftButton,braille_mouse.midButton,braille_mouse.rightButton,braille_mouse.time,trials.thisRepN,trials.thisTrialN,trials.thisN,trials.thisIndex,trials.ran,nlLet,brLet,cbLet,mouse.x,mouse.y,mouse.leftButton,mouse.midButton,mouse.rightButton,testInstr_mouse.x,testInstr_mouse.y,testInstr_mouse.leftButton,testInstr_mouse.midButton,testInstr_mouse.rightButton,test_mouse.x,test_mouse.y,test_mouse.leftButton,test_mouse.midButton,test_mouse.rightButton,test_response.text,testResp,test_loop.thisRepN,test_loop.thisTrialN,test_loop.thisN,test_loop.thisIndex,test_loop.ran,nlWrd,brWrd,cbWrd
0.246992187,-0.240136719,1,0,0,14.771,00035,2023-09-25_10h51.03.921,vbt_B2_day1,2022.2.4,MacIntel,59.87665409,,,,,,,,,,,,,,,,,,,,,,,,,,,,,,,,,,,,,,,,,,,,,,,,,,,,,,,,,
,,,,,,00035,2023-09-25_10h51.03.921,vbt_B2_day1,2022.2.4,MacIntel,59.87665409,0.052006836,-0.392333984,1,0,0,14.2208,,,,,,,,,,,,,,,,,,,,,,,,,,,,,,,,,,,,,,,,,,,,,,,,,,,
,,,,,,00035,2023-09-25_10h51.03.921,vbt_B2_day1,2022.2.4,MacIntel,59.87665409,,,,,,,-0.013173828,-0.356064453,1,0,0,6.9563,,,,,,,,,,,,,,,,,,,,,,,,,,,,,,,,,,,,,,,,,,,,,
,,,,,,00035,2023-09-25_10h51.03.921,vbt_B2_day1,2022.2.4,MacIntel,59.87665409,,,,,,,,,,,,,-0.015361328,-0.354692383,1,0,0,12.8617,,,,,,,,,,,,,,,,,,,,,,,,,,,,,,,,,,,,,,,
,,,,,,00035,2023-09-25_10h51.03.921,vbt_B2_day1,2022.2.4,MacIntel,59.87665409,,,,,,,,,,,,,,,,,,,-0.044726562,-0.331333008,1,0,0,8.4466,0,0,0,24,1,y,images/br_y.png,images/cb_y.png,,,,,,,,,,,,,,,,,,,,,,,,,
,,,,,,00035,2023-09-25_10h51.03.921,vbt_B2_day1,2022.2.4,MacIntel,59.87665409,,,,,,,,,,,,,,,,,,,-0.044726562,-0.331333008,1,0,0,2.405,0,1,1,17,1,r,images/br_r.png,images/cb_r.png,,,,,,,,,,,,,,,,,,,,,,,,,
,,,,,,00035,2023-09-25_10h51.03.921,vbt_B2_day1,2022.2.4,MacIntel,59.87665409,,,,,,,,,,,,,,,,,,,-0.044726562,-0.331333008,1,0,0,3.4087,0,2,2,22,1,w,images/br_w.png,images/cb_w.png,,,,,,,,,,,,,,,,,,,,,,,,,
,,,,,,00035,2023-09-25_10h51.03.921,vbt_B2_day1,2022.2.4,MacIntel,59.87665409,,,,,,,,,,,,,,,,,,,-0.044726562,-0.331333008,1,0,0,3.5078,0,3,3,6,1,g,images/br_g.png,images/cb_g.png,,,,,,,,,,,,,,,,,,,,,,,,,
,,,,,,00035,2023-09-25_10h51.03.921,vbt_B2_day1,2022.2.4,MacIntel,59.87665409,,,,,,,,,,,,,,,,,,,-0.044726562,-0.331333008,1,0,0,5.7856,0,4,4,15,1,p,images/br_p.png,images/cb_p.png,,,,,,,,,,,,,,,,,,,,,,,,,
,,,,,,00035,2023-09-25_10h51.03.921,vbt_B2_day1,2022.2.4,MacIntel,59.87665409,,,,,,,,,,,,,,,,,,,-0.02140625,-0.243554688,1,0,0,10.2502,0,5,5,12,1,m,images/br_m.png,images/cb_m.png,,,,,,,,,,,,,,,,,,,,,,,,,
,,,,,,00035,2023-09-25_10h51.03.921,vbt_B2_day1,2022.2.4,MacIntel,59.87665409,,,,,,,,,,,,,,,,,,,-0.017055664,-0.295922852,1,0,0,11.9366,0,6,6,19,1,t,images/br_t.png,images/cb_t.png,,,,,,,,,,,,,,,,,,,,,,,,,
,,,,,,00035,2023-09-25_10h51.03.921,vbt_B2_day1,2022.2.4,MacIntel,59.87665409,,,,,,,,,,,,,,,,,,,-0.017055664,-0.295922852,1,0,0,4.3774,0,7,7,20,1,u,images/br_u.png,images/cb_u.png,,,,,,,,,,,,,,,,,,,,,,,,,
,,,,,,00035,2023-09-25_10h51.03.921,vbt_B2_day1,2022.2.4,MacIntel,59.87665409,,,,,,,,,,,,,,,,,,,-0.017055664,-0.295922852,1,0,0,9.5482,0,8,8,10,1,k,images/br_k.png,images/cb_k.png,,,,,,,,,,,,,,,,,,,,,,,,,
,,,,,,00035,2023-09-25_10h51.03.921,vbt_B2_day1,2022.2.4,MacIntel,59.87665409,,,,,,,,,,,,,,,,,,,-0.017055664,-0.295922852,1,0,0,0.4369,0,9,9,8,1,i,images/br_i.png,images/cb_i.png,,,,,,,,,,,,,,,,,,,,,,,,,
,,,,,,00035,2023-09-25_10h51.03.921,vbt_B2_day1,2022.2.4,MacIntel,59.87665409,,,,,,,,,,,,,,,,,,,-0.017055664,-0.295922852,1,0,0,1.0475,0,10,10,13,1,n,images/br_n.png,images/cb_n.png,,,,,,,,,,,,,,,,,,,,,,,,,
,,,,,,00035,2023-09-25_10h51.03.921,vbt_B2_day1,2022.2.4,MacIntel,59.87665409,,,,,,,,,,,,,,,,,,,0.039785156,-0.220864258,1,0,0,5.022,0,11,11,1,1,b,images/br_b.png,images/cb_b.png,,,,,,,,,,,,,,,,,,,,,,,,,
,,,,,,00035,2023-09-25_10h51.03.921,vbt_B2_day1,2022.2.4,MacIntel,59.87665409,,,,,,,,,,,,,,,,,,,0.043603516,-0.210766602,1,0,0,2.1419,0,12,12,0,1,a,images/br_a.png,images/cb_a.png,,,,,,,,,,,,,,,,,,,,,,,,,
,,,,,,00035,2023-09-25_10h51.03.921,vbt_B2_day1,2022.2.4,MacIntel,59.87665409,,,,,,,,,,,,,,,,,,,0.043603516,-0.210766602,1,0,0,4.2703,0,13,13,9,1,j,images/br_j.png,images/cb_j.png,,,,,,,,,,,,,,,,,,,,,,,,,
,,,,,,00035,2023-09-25_10h51.03.921,vbt_B2_day1,2022.2.4,MacIntel,59.87665409,,,,,,,,,,,,,,,,,,,0.071845703,-0.125043945,1,0,0,10.0663,0,14,14,7,1,h,images/br_h.png,images/cb_h.png,,,,,,,,,,,,,,,,,,,,,,,,,
,,,,,,00035,2023-09-25_10h51.03.921,vbt_B2_day1,2022.2.4,MacIntel,59.87665409,,,,,,,,,,,,,,,,,,,0.072416992,-0.132861328,1,0,0,28.6676,0,15,15,14,1,o,images/br_o.png,images/cb_o.png,,,,,,,,,,,,,,,,,,,,,,,,,
,,,,,,00035,2023-09-25_10h51.03.921,vbt_B2_day1,2022.2.4,MacIntel,59.87665409,,,,,,,,,,,,,,,,,,,0.072416992,-0.132861328,1,0,0,3.6042,0,16,16,18,1,s,images/br_s.png,images/cb_s.png,,,,,,,,,,,,,,,,,,,,,,,,,
,,,,,,00035,2023-09-25_10h51.03.921,vbt_B2_day1,2022.2.4,MacIntel,59.87665409,,,,,,,,,,,,,,,,,,,0.056582031,-0.081743164,1,0,0,5.3624,0,17,17,21,1,v,images/br_v.png,images/cb_v.png,,,,,,,,,,,,,,,,,,,,,,,,,
,,,,,,00035,2023-09-25_10h51.03.921,vbt_B2_day1,2022.2.4,MacIntel,59.87665409,,,,,,,,,,,,,,,,,,,0.056582031,-0.081743164,1,0,0,2.4337,0,18,18,3,1,d,images/br_d.png,images/cb_d.png,,,,,,,,,,,,,,,,,,,,,,,,,
,,,,,,00035,2023-09-25_10h51.03.921,vbt_B2_day1,2022.2.4,MacIntel,59.87665409,,,,,,,,,,,,,,,,,,,0.056582031,-0.081743164,1,0,0,5.1557,0,19,19,16,1,q,images/br_q.png,images/cb_q.png,,,,,,,,,,,,,,,,,,,,,,,,,
,,,,,,00035,2023-09-25_10h51.03.921,vbt_B2_day1,2022.2.4,MacIntel,59.87665409,,,,,,,,,,,,,,,,,,,0.056582031,-0.081743164,1,0,0,21.5072,0,20,20,4,1,e,images/br_e.png,images/cb_e.png,,,,,,,,,,,,,,,,,,,,,,,,,
,,,,,,00035,2023-09-25_10h51.03.921,vbt_B2_day1,2022.2.4,MacIntel,59.87665409,,,,,,,,,,,,,,,,,,,0.056582031,-0.081743164,1,0,0,1.6533,0,21,21,23,1,x,images/br_x.png,images/cb_x.png,,,,,,,,,,,,,,,,,,,,,,,,,
,,,,,,00035,2023-09-25_10h51.03.921,vbt_B2_day1,2022.2.4,MacIntel,59.87665409,,,,,,,,,,,,,,,,,,,0.056582031,-0.081743164,1,0,0,10.0061,0,22,22,2,1,c,images/br_c.png,images/cb_c.png,,,,,,,,,,,,,,,,,,,,,,,,,
,,,,,,00035,2023-09-25_10h51.03.921,vbt_B2_day1,2022.2.4,MacIntel,59.87665409,,,,,,,,,,,,,,,,,,,0.052680664,-0.055380859,1,0,0,8.6093,0,23,23,25,1,z,images/br_z.png,images/cb_z.png,,,,,,,,,,,,,,,,,,,,,,,,,
,,,,,,00035,2023-09-25_10h51.03.921,vbt_B2_day1,2022.2.4,MacIntel,59.87665409,,,,,,,,,,,,,,,,,,,0.154135742,0.06253418,1,0,0,10.7907,0,24,24,11,1,l,images/br_l.png,images/cb_l.png,,,,,,,,,,,,,,,,,,,,,,,,,
,,,,,,00035,2023-09-25_10h51.03.921,vbt_B2_day1,2022.2.4,MacIntel,59.87665409,,,,,,,,,,,,,,,,,,,0.066069336,-0.188276367,1,0,0,5.1437,0,25,25,5,1,f,images/br_f.png,images/cb_f.png,,,,,,,,,,,,,,,,,,,,,,,,,
,,,,,,00035,2023-09-25_10h51.03.921,vbt_B2_day1,2022.2.4,MacIntel,59.87665409,,,,,,,,,,,,,,,,,,,0.066069336,-0.188276367,1,0,0,6.7087,1,0,26,21,1,v,images/br_v.png,images/cb_v.png,,,,,,,,,,,,,,,,,,,,,,,,,
,,,,,,00035,2023-09-25_10h51.03.921,vbt_B2_day1,2022.2.4,MacIntel,59.87665409,,,,,,,,,,,,,,,,,,,0.11402832,-0.093852539,1,0,0,6.0943,1,1,27,24,1,y,images/br_y.png,images/cb_y.png,,,,,,,,,,,,,,,,,,,,,,,,,
,,,,,,00035,2023-09-25_10h51.03.921,vbt_B2_day1,2022.2.4,MacIntel,59.87665409,,,,,,,,,,,,,,,,,,,0.195317383,-0.089438477,1,0,0,8.9039,1,2,28,10,1,k,images/br_k.png,images/cb_k.png,,,,,,,,,,,,,,,,,,,,,,,,,
,,,,,,00035,2023-09-25_10h51.03.921,vbt_B2_day1,2022.2.4,MacIntel,59.87665409,,,,,,,,,,,,,,,,,,,0.195317383,-0.089438477,1,0,0,3.8699,1,3,29,15,1,p,images/br_p.png,images/cb_p.png,,,,,,,,,,,,,,,,,,,,,,,,,
,,,,,,00035,2023-09-25_10h51.03.921,vbt_B2_day1,2022.2.4,MacIntel,59.87665409,,,,,,,,,,,,,,,,,,,0.195317383,-0.089438477,1,0,0,0.6019,1,4,30,7,1,h,images/br_h.png,images/cb_h.png,,,,,,,,,,,,,,,,,,,,,,,,,
,,,,,,00035,2023-09-25_10h51.03.921,vbt_B2_day1,2022.2.4,MacIntel,59.87665409,,,,,,,,,,,,,,,,,,,0.192724609,-0.086743164,1,0,0,0.2401,1,5,31,8,1,i,images/br_i.png,images/cb_i.png,,,,,,,,,,,,,,,,,,,,,,,,,
,,,,,,00035,2023-09-25_10h51.03.921,vbt_B2_day1,2022.2.4,MacIntel,59.87665409,,,,,,,,,,,,,,,,,,,0.123754883,-0.160458984,1,0,0,2.0485,1,6,32,9,1,j,images/br_j.png,images/cb_j.png,,,,,,,,,,,,,,,,,,,,,,,,,
,,,,,,00035,2023-09-25_10h51.03.921,vbt_B2_day1,2022.2.4,MacIntel,59.87665409,,,,,,,,,,,,,,,,,,,0.100512695,-0.161108398,1,0,0,1.9916,1,7,33,20,1,u,images/br_u.png,images/cb_u.png,,,,,,,,,,,,,,,,,,,,,,,,,
,,,,,,00035,2023-09-25_10h51.03.921,vbt_B2_day1,2022.2.4,MacIntel,59.87665409,,,,,,,,,,,,,,,,,,,0.100512695,-0.158647461,1,0,0,1.7716,1,8,34,22,1,w,images/br_w.png,images/cb_w.png,,,,,,,,,,,,,,,,,,,,,,,,,
,,,,,,00035,2023-09-25_10h51.03.921,vbt_B2_day1,2022.2.4,MacIntel,59.87665409,,,,,,,,,,,,,,,,,,,0.177954102,-0.112128906,1,0,0,1.9209,1,9,35,13,1,n,images/br_n.png,images/cb_n.png,,,,,,,,,,,,,,,,,,,,,,,,,
,,,,,,00035,2023-09-25_10h51.03.921,vbt_B2_day1,2022.2.4,MacIntel,59.87665409,,,,,,,,,,,,,,,,,,,0.178964844,-0.060410156,1,0,0,8.3355,1,10,36,3,1,d,images/br_d.png,images/cb_d.png,,,,,,,,,,,,,,,,,,,,,,,,,
,,,,,,00035,2023-09-25_10h51.03.921,vbt_B2_day1,2022.2.4,MacIntel,59.87665409,,,,,,,,,,,,,,,,,,,0.178964844,-0.060410156,1,0,0,1.8818,1,11,37,4,1,e,images/br_e.png,images/cb_e.png,,,,,,,,,,,,,,,,,,,,,,,,,
,,,,,,00035,2023-09-25_10h51.03.921,vbt_B2_day1,2022.2.4,MacIntel,59.87665409,,,,,,,,,,,,,,,,,,,0.172280273,-0.055097656,1,0,0,2.572,1,12,38,19,1,t,images/br_t.png,images/cb_t.png,,,,,,,,,,,,,,,,,,,,,,,,,
,,,,,,00035,2023-09-25_10h51.03.921,vbt_B2_day1,2022.2.4,MacIntel,59.87665409,,,,,,,,,,,,,,,,,,,0.172280273,-0.055097656,1,0,0,0.8302,1,13,39,17,1,r,images/br_r.png,images/cb_r.png,,,,,,,,,,,,,,,,,,,,,,,,,
,,,,,,00035,2023-09-25_10h51.03.921,vbt_B2_day1,2022.2.4,MacIntel,59.87665409,,,,,,,,,,,,,,,,,,,0.172280273,-0.055097656,1,0,0,9.8828,1,14,40,0,1,a,images/br_a.png,images/cb_a.png,,,,,,,,,,,,,,,,,,,,,,,,,
,,,,,,00035,2023-09-25_10h51.03.921,vbt_B2_day1,2022.2.4,MacIntel,59.87665409,,,,,,,,,,,,,,,,,,,0.172280273,-0.055097656,1,0,0,1.8645,1,15,41,14,1,o,images/br_o.png,images/cb_o.png,,,,,,,,,,,,,,,,,,,,,,,,,
,,,,,,00035,2023-09-25_10h51.03.921,vbt_B2_day1,2022.2.4,MacIntel,59.87665409,,,,,,,,,,,,,,,,,,,0.172280273,-0.055097656,1,0,0,1.2519,1,16,42,25,1,z,images/br_z.png,images/cb_z.png,,,,,,,,,,,,,,,,,,,,,,,,,
,,,,,,00035,2023-09-25_10h51.03.921,vbt_B2_day1,2022.2.4,MacIntel,59.87665409,,,,,,,,,,,,,,,,,,,0.172280273,-0.055097656,1,0,0,0.5959,1,17,43,2,1,c,images/br_c.png,images/cb_c.png,,,,,,,,,,,,,,,,,,,,,,,,,
,,,,,,00035,2023-09-25_10h51.03.921,vbt_B2_day1,2022.2.4,MacIntel,59.87665409,,,,,,,,,,,,,,,,,,,0.172280273,-0.055097656,1,0,0,13.4449,1,18,44,18,1,s,images/br_s.png,images/cb_s.png,,,,,,,,,,,,,,,,,,,,,,,,,
,,,,,,00035,2023-09-25_10h51.03.921,vbt_B2_day1,2022.2.4,MacIntel,59.87665409,,,,,,,,,,,,,,,,,,,0.15059082,-0.066318359,1,0,0,47.9921,1,19,45,12,1,m,images/br_m.png,images/cb_m.png,,,,,,,,,,,,,,,,,,,,,,,,,
,,,,,,00035,2023-09-25_10h51.03.921,vbt_B2_day1,2022.2.4,MacIntel,59.87665409,,,,,,,,,,,,,,,,,,,0.15059082,-0.066318359,1,0,0,1.3972,1,20,46,6,1,g,images/br_g.png,images/cb_g.png,,,,,,,,,,,,,,,,,,,,,,,,,
,,,,,,00035,2023-09-25_10h51.03.921,vbt_B2_day1,2022.2.4,MacIntel,59.87665409,,,,,,,,,,,,,,,,,,,0.15059082,-0.066318359,1,0,0,31.2792,1,21,47,1,1,b,images/br_b.png,images/cb_b.png,,,,,,,,,,,,,,,,,,,,,,,,,
,,,,,,00035,2023-09-25_10h51.03.921,vbt_B2_day1,2022.2.4,MacIntel,59.87665409,,,,,,,,,,,,,,,,,,,0.15059082,-0.066318359,1,0,0,1.7995,1,22,48,16,1,q,images/br_q.png,images/cb_q.png,,,,,,,,,,,,,,,,,,,,,,,,,
,,,,,,00035,2023-09-25_10h51.03.921,vbt_B2_day1,2022.2.4,MacIntel,59.87665409,,,,,,,,,,,,,,,,,,,0.15059082,-0.066318359,1,0,0,36.8452,1,23,49,5,1,f,images/br_f.png,images/cb_f.png,,,,,,,,,,,,,,,,,,,,,,,,,
,,,,,,00035,2023-09-25_10h51.03.921,vbt_B2_day1,2022.2.4,MacIntel,59.87665409,,,,,,,,,,,,,,,,,,,0.15059082,-0.066318359,1,0,0,3.3347,1,24,50,23,1,x,images/br_x.png,images/cb_x.png,,,,,,,,,,,,,,,,,,,,,,,,,
,,,,,,00035,2023-09-25_10h51.03.921,vbt_B2_day1,2022.2.4,MacIntel,59.87665409,,,,,,,,,,,,,,,,,,,0.15059082,-0.066318359,1,0,0,5.1952,1,25,51,11,1,l,images/br_l.png,images/cb_l.png,,,,,,,,,,,,,,,,,,,,,,,,,
,,,,,,00035,2023-09-25_10h51.03.921,vbt_B2_day1,2022.2.4,MacIntel,59.87665409,,,,,,,,,,,,,,,,,,,0.08715332,-0.101445312,1,0,0,8.8139,2,0,52,18,1,s,images/br_s.png,images/cb_s.png,,,,,,,,,,,,,,,,,,,,,,,,,
,,,,,,00035,2023-09-25_10h51.03.921,vbt_B2_day1,2022.2.4,MacIntel,59.87665409,,,,,,,,,,,,,,,,,,,0.086674805,-0.098583984,1,0,0,3.6422,2,1,53,12,1,m,images/br_m.png,images/cb_m.png,,,,,,,,,,,,,,,,,,,,,,,,,
,,,,,,00035,2023-09-25_10h51.03.921,vbt_B2_day1,2022.2.4,MacIntel,59.87665409,,,,,,,,,,,,,,,,,,,0.165087891,-0.054321289,1,0,0,1.1979,2,2,54,0,1,a,images/br_a.png,images/cb_a.png,,,,,,,,,,,,,,,,,,,,,,,,,
,,,,,,00035,2023-09-25_10h51.03.921,vbt_B2_day1,2022.2.4,MacIntel,59.87665409,,,,,,,,,,,,,,,,,,,0.020693359,-0.118486328,1,0,0,3.5084,2,3,55,17,1,r,images/br_r.png,images/cb_r.png,,,,,,,,,,,,,,,,,,,,,,,,,
,,,,,,00035,2023-09-25_10h51.03.921,vbt_B2_day1,2022.2.4,MacIntel,59.87665409,,,,,,,,,,,,,,,,,,,-0.000419922,-0.028330078,1,0,0,4.3365,2,4,56,1,1,b,images/br_b.png,images/cb_b.png,,,,,,,,,,,,,,,,,,,,,,,,,
,,,,,,00035,2023-09-25_10h51.03.921,vbt_B2_day1,2022.2.4,MacIntel,59.87665409,,,,,,,,,,,,,,,,,,,-0.009287109,-0.027270508,1,0,0,0.2684,2,5,57,14,1,o,images/br_o.png,images/cb_o.png,,,,,,,,,,,,,,,,,,,,,,,,,
,,,,,,00035,2023-09-25_10h51.03.921,vbt_B2_day1,2022.2.4,MacIntel,59.87665409,,,,,,,,,,,,,,,,,,,-0.009287109,-0.027270508,1,0,0,3.2465,2,6,58,4,1,e,images/br_e.png,images/cb_e.png,,,,,,,,,,,,,,,,,,,,,,,,,
,,,,,,00035,2023-09-25_10h51.03.921,vbt_B2_day1,2022.2.4,MacIntel,59.87665409,,,,,,,,,,,,,,,,,,,-0.008745117,-0.027270508,1,0,0,0.3687,2,7,59,20,1,u,images/br_u.png,images/cb_u.png,,,,,,,,,,,,,,,,,,,,,,,,,
,,,,,,00035,2023-09-25_10h51.03.921,vbt_B2_day1,2022.2.4,MacIntel,59.87665409,,,,,,,,,,,,,,,,,,,-0.008745117,-0.027270508,1,0,0,3.9973,2,8,60,5,1,f,images/br_f.png,images/cb_f.png,,,,,,,,,,,,,,,,,,,,,,,,,
,,,,,,00035,2023-09-25_10h51.03.921,vbt_B2_day1,2022.2.4,MacIntel,59.87665409,,,,,,,,,,,,,,,,,,,-0.008745117,-0.027270508,1,0,0,0.5186,2,9,61,19,1,t,images/br_t.png,images/cb_t.png,,,,,,,,,,,,,,,,,,,,,,,,,
,,,,,,00035,2023-09-25_10h51.03.921,vbt_B2_day1,2022.2.4,MacIntel,59.87665409,,,,,,,,,,,,,,,,,,,-0.008745117,-0.027270508,1,0,0,1.0674,2,10,62,21,1,v,images/br_v.png,images/cb_v.png,,,,,,,,,,,,,,,,,,,,,,,,,
,,,,,,00035,2023-09-25_10h51.03.921,vbt_B2_day1,2022.2.4,MacIntel,59.87665409,,,,,,,,,,,,,,,,,,,-0.008745117,-0.027270508,1,0,0,3.719,2,11,63,3,1,d,images/br_d.png,images/cb_d.png,,,,,,,,,,,,,,,,,,,,,,,,,
,,,,,,00035,2023-09-25_10h51.03.921,vbt_B2_day1,2022.2.4,MacIntel,59.87665409,,,,,,,,,,,,,,,,,,,-0.008745117,-0.027270508,1,0,0,0.0237,2,12,64,22,1,w,images/br_w.png,images/cb_w.png,,,,,,,,,,,,,,,,,,,,,,,,,
,,,,,,00035,2023-09-25_10h51.03.921,vbt_B2_day1,2022.2.4,MacIntel,59.87665409,,,,,,,,,,,,,,,,,,,0.005512695,-0.039023438,1,0,0,5.0593,2,13,65,6,1,g,images/br_g.png,images/cb_g.png,,,,,,,,,,,,,,,,,,,,,,,,,
,,,,,,00035,2023-09-25_10h51.03.921,vbt_B2_day1,2022.2.4,MacIntel,59.87665409,,,,,,,,,,,,,,,,,,,-0.012402344,-0.043798828,1,0,0,4.4807,2,14,66,25,1,z,images/br_z.png,images/cb_z.png,,,,,,,,,,,,,,,,,,,,,,,,,
,,,,,,00035,2023-09-25_10h51.03.921,vbt_B2_day1,2022.2.4,MacIntel,59.87665409,,,,,,,,,,,,,,,,,,,-0.012402344,-0.043798828,1,0,0,0.4685,2,15,67,11,1,l,images/br_l.png,images/cb_l.png,,,,,,,,,,,,,,,,,,,,,,,,,
,,,,,,00035,2023-09-25_10h51.03.921,vbt_B2_day1,2022.2.4,MacIntel,59.87665409,,,,,,,,,,,,,,,,,,,-0.009287109,-0.045048828,1,0,0,0.6848,2,16,68,2,1,c,images/br_c.png,images/cb_c.png,,,,,,,,,,,,,,,,,,,,,,,,,
,,,,,,00035,2023-09-25_10h51.03.921,vbt_B2_day1,2022.2.4,MacIntel,59.87665409,,,,,,,,,,,,,,,,,,,-0.024165039,-0.036518555,1,0,0,9.538,2,17,69,24,1,y,images/br_y.png,images/cb_y.png,,,,,,,,,,,,,,,,,,,,,,,,,
,,,,,,00035,2023-09-25_10h51.03.921,vbt_B2_day1,2022.2.4,MacIntel,59.87665409,,,,,,,,,,,,,,,,,,,-0.024575195,-0.036518555,1,0,0,1.7865,2,18,70,23,1,x,images/br_x.png,images/cb_x.png,,,,,,,,,,,,,,,,,,,,,,,,,
,,,,,,00035,2023-09-25_10h51.03.921,vbt_B2_day1,2022.2.4,MacIntel,59.87665409,,,,,,,,,,,,,,,,,,,-0.032519531,-0.0259375,1,0,0,0.8474,2,19,71,16,1,q,images/br_q.png,images/cb_q.png,,,,,,,,,,,,,,,,,,,,,,,,,
,,,,,,00035,2023-09-25_10h51.03.921,vbt_B2_day1,2022.2.4,MacIntel,59.87665409,,,,,,,,,,,,,,,,,,,-0.032519531,-0.0259375,1,0,0,0.9336,2,20,72,10,1,k,images/br_k.png,images/cb_k.png,,,,,,,,,,,,,,,,,,,,,,,,,
,,,,,,00035,2023-09-25_10h51.03.921,vbt_B2_day1,2022.2.4,MacIntel,59.87665409,,,,,,,,,,,,,,,,,,,-0.032519531,-0.0259375,1,0,0,0.6355,2,21,73,7,1,h,images/br_h.png,images/cb_h.png,,,,,,,,,,,,,,,,,,,,,,,,,
,,,,,,00035,2023-09-25_10h51.03.921,vbt_B2_day1,2022.2.4,MacIntel,59.87665409,,,,,,,,,,,,,,,,,,,-0.02328125,-0.043017578,1,0,0,3.0961,2,22,74,15,1,p,images/br_p.png,images/cb_p.png,,,,,,,,,,,,,,,,,,,,,,,,,
,,,,,,00035,2023-09-25_10h51.03.921,vbt_B2_day1,2022.2.4,MacIntel,59.87665409,,,,,,,,,,,,,,,,,,,-0.02328125,-0.043017578,1,0,0,0.0856,2,23,75,8,1,i,images/br_i.png,images/cb_i.png,,,,,,,,,,,,,,,,,,,,,,,,,
,,,,,,00035,2023-09-25_10h51.03.921,vbt_B2_day1,2022.2.4,MacIntel,59.87665409,,,,,,,,,,,,,,,,,,,-0.027407227,-0.036577148,1,0,0,3.9425,2,24,76,13,1,n,images/br_n.png,images/cb_n.png,,,,,,,,,,,,,,,,,,,,,,,,,
,,,,,,00035,2023-09-25_10h51.03.921,vbt_B2_day1,2022.2.4,MacIntel,59.87665409,,,,,,,,,,,,,,,,,,,-0.027407227,-0.036577148,1,0,0,1.714,2,25,77,9,1,j,images/br_j.png,images/cb_j.png,,,,,,,,,,,,,,,,,,,,,,,,,
,,,,,,00035,2023-09-25_10h51.03.921,vbt_B2_day1,2022.2.4,MacIntel,59.87665409,,,,,,,,,,,,,,,,,,,-0.027407227,-0.036577148,1,0,0,5.8187,3,0,78,10,1,k,images/br_k.png,images/cb_k.png,,,,,,,,,,,,,,,,,,,,,,,,,
,,,,,,00035,2023-09-25_10h51.03.921,vbt_B2_day1,2022.2.4,MacIntel,59.87665409,,,,,,,,,,,,,,,,,,,-0.027407227,-0.036577148,1,0,0,0.068,3,1,79,9,1,j,images/br_j.png,images/cb_j.png,,,,,,,,,,,,,,,,,,,,,,,,,
,,,,,,00035,2023-09-25_10h51.03.921,vbt_B2_day1,2022.2.4,MacIntel,59.87665409,,,,,,,,,,,,,,,,,,,-0.027407227,-0.036577148,1,0,0,0.4738,3,2,80,6,1,g,images/br_g.png,images/cb_g.png,,,,,,,,,,,,,,,,,,,,,,,,,
,,,,,,00035,2023-09-25_10h51.03.921,vbt_B2_day1,2022.2.4,MacIntel,59.87665409,,,,,,,,,,,,,,,,,,,-0.001728516,-0.051279297,1,0,0,3.7587,3,3,81,3,1,d,images/br_d.png,images/cb_d.png,,,,,,,,,,,,,,,,,,,,,,,,,
,,,,,,00035,2023-09-25_10h51.03.921,vbt_B2_day1,2022.2.4,MacIntel,59.87665409,,,,,,,,,,,,,,,,,,,-0.001728516,-0.051279297,1,0,0,3.256,3,4,82,0,1,a,images/br_a.png,images/cb_a.png,,,,,,,,,,,,,,,,,,,,,,,,,
,,,,,,00035,2023-09-25_10h51.03.921,vbt_B2_day1,2022.2.4,MacIntel,59.87665409,,,,,,,,,,,,,,,,,,,-0.0403125,-0.126694336,1,0,0,3.1959,3,5,83,24,1,y,images/br_y.png,images/cb_y.png,,,,,,,,,,,,,,,,,,,,,,,,,
,,,,,,00035,2023-09-25_10h51.03.921,vbt_B2_day1,2022.2.4,MacIntel,59.87665409,,,,,,,,,,,,,,,,,,,0.009506836,-0.043955078,1,0,0,31.4334,3,6,84,14,1,o,images/br_o.png,images/cb_o.png,,,,,,,,,,,,,,,,,,,,,,,,,
,,,,,,00035,2023-09-25_10h51.03.921,vbt_B2_day1,2022.2.4,MacIntel,59.87665409,,,,,,,,,,,,,,,,,,,0.011015625,-0.057631836,1,0,0,12.6657,3,7,85,22,1,w,images/br_w.png,images/cb_w.png,,,,,,,,,,,,,,,,,,,,,,,,,
,,,,,,00035,2023-09-25_10h51.03.921,vbt_B2_day1,2022.2.4,MacIntel,59.87665409,,,,,,,,,,,,,,,,,,,0.011860352,-0.060200195,1,0,0,1.4768,3,8,86,21,1,v,images/br_v.png,images/cb_v.png,,,,,,,,,,,,,,,,,,,,,,,,,
,,,,,,00035,2023-09-25_10h51.03.921,vbt_B2_day1,2022.2.4,MacIntel,59.87665409,,,,,,,,,,,,,,,,,,,0.011860352,-0.060200195,1,0,0,0.9862,3,9,87,15,1,p,images/br_p.png,images/cb_p.png,,,,,,,,,,,,,,,,,,,,,,,,,
,,,,,,00035,2023-09-25_10h51.03.921,vbt_B2_day1,2022.2.4,MacIntel,59.87665409,,,,,,,,,,,,,,,,,,,0.028876953,-0.084291992,1,0,0,6.0188,3,10,88,11,1,l,images/br_l.png,images/cb_l.png,,,,,,,,,,,,,,,,,,,,,,,,,
,,,,,,00035,2023-09-25_10h51.03.921,vbt_B2_day1,2022.2.4,MacIntel,59.87665409,,,,,,,,,,,,,,,,,,,0.028876953,-0.084291992,1,0,0,0.6359,3,11,89,18,1,s,images/br_s.png,images/cb_s.png,,,,,,,,,,,,,,,,,,,,,,,,,
,,,,,,00035,2023-09-25_10h51.03.921,vbt_B2_day1,2022.2.4,MacIntel,59.87665409,,,,,,,,,,,,,,,,,,,0.052617188,-0.118930664,1,0,0,2.7902,3,12,90,2,1,c,images/br_c.png,images/cb_c.png,,,,,,,,,,,,,,,,,,,,,,,,,
,,,,,,00035,2023-09-25_10h51.03.921,vbt_B2_day1,2022.2.4,MacIntel,59.87665409,,,,,,,,,,,,,,,,,,,0.040830078,-0.102514648,1,0,0,4.8502,3,13,91,20,1,u,images/br_u.png,images/cb_u.png,,,,,,,,,,,,,,,,,,,,,,,,,
,,,,,,00035,2023-09-25_10h51.03.921,vbt_B2_day1,2022.2.4,MacIntel,59.87665409,,,,,,,,,,,,,,,,,,,0.040830078,-0.105024414,1,0,0,3.2579,3,14,92,5,1,f,images/br_f.png,images/cb_f.png,,,,,,,,,,,,,,,,,,,,,,,,,
,,,,,,00035,2023-09-25_10h51.03.921,vbt_B2_day1,2022.2.4,MacIntel,59.87665409,,,,,,,,,,,,,,,,,,,0.044960937,-0.112338867,1,0,0,1.4611,3,15,93,16,1,q,images/br_q.png,images/cb_q.png,,,,,,,,,,,,,,,,,,,,,,,,,
,,,,,,00035,2023-09-25_10h51.03.921,vbt_B2_day1,2022.2.4,MacIntel,59.87665409,,,,,,,,,,,,,,,,,,,0.044960937,-0.113149414,1,0,0,1.5211,3,16,94,23,1,x,images/br_x.png,images/cb_x.png,,,,,,,,,,,,,,,,,,,,,,,,,
,,,,,,00035,2023-09-25_10h51.03.921,vbt_B2_day1,2022.2.4,MacIntel,59.87665409,,,,,,,,,,,,,,,,,,,0.053217773,-0.100273438,1,0,0,1.0633,3,17,95,17,1,r,images/br_r.png,images/cb_r.png,,,,,,,,,,,,,,,,,,,,,,,,,
,,,,,,00035,2023-09-25_10h51.03.921,vbt_B2_day1,2022.2.4,MacIntel,59.87665409,,,,,,,,,,,,,,,,,,,0.053217773,-0.100273438,1,0,0,1.8481,3,18,96,25,1,z,images/br_z.png,images/cb_z.png,,,,,,,,,,,,,,,,,,,,,,,,,
,,,,,,00035,2023-09-25_10h51.03.921,vbt_B2_day1,2022.2.4,MacIntel,59.87665409,,,,,,,,,,,,,,,,,,,0.053217773,-0.100273438,1,0,0,0.3508,3,19,97,8,1,i,images/br_i.png,images/cb_i.png,,,,,,,,,,,,,,,,,,,,,,,,,
,,,,,,00035,2023-09-25_10h51.03.921,vbt_B2_day1,2022.2.4,MacIntel,59.87665409,,,,,,,,,,,,,,,,,,,0.029335937,-0.046142578,1,0,0,23.5685,3,20,98,12,1,m,images/br_m.png,images/cb_m.png,,,,,,,,,,,,,,,,,,,,,,,,,
,,,,,,00035,2023-09-25_10h51.03.921,vbt_B2_day1,2022.2.4,MacIntel,59.87665409,,,,,,,,,,,,,,,,,,,0.02777832,-0.045166016,1,0,0,22.8271,3,21,99,1,1,b,images/br_b.png,images/cb_b.png,,,,,,,,,,,,,,,,,,,,,,,,,
,,,,,,00035,2023-09-25_10h51.03.921,vbt_B2_day1,2022.2.4,MacIntel,59.87665409,,,,,,,,,,,,,,,,,,,0.029838867,-0.052011719,1,0,0,1.6045,3,22,100,7,1,h,images/br_h.png,images/cb_h.png,,,,,,,,,,,,,,,,,,,,,,,,,
,,,,,,00035,2023-09-25_10h51.03.921,vbt_B2_day1,2022.2.4,MacIntel,59.87665409,,,,,,,,,,,,,,,,,,,0.028510742,-0.05112793,1,0,0,0.8362,3,23,101,19,1,t,images/br_t.png,images/cb_t.png,,,,,,,,,,,,,,,,,,,,,,,,,
,,,,,,00035,2023-09-25_10h51.03.921,vbt_B2_day1,2022.2.4,MacIntel,59.87665409,,,,,,,,,,,,,,,,,,,0.028510742,-0.05112793,1,0,0,2.5063,3,24,102,4,1,e,images/br_e.png,images/cb_e.png,,,,,,,,,,,,,,,,,,,,,,,,,
,,,,,,00035,2023-09-25_10h51.03.921,vbt_B2_day1,2022.2.4,MacIntel,59.87665409,,,,,,,,,,,,,,,,,,,0.028510742,-0.05112793,1,0,0,0.8527,3,25,103,13,1,n,images/br_n.png,images/cb_n.png,,,,,,,,,,,,,,,,,,,,,,,,,
,,,,,,00035,2023-09-25_10h51.03.921,vbt_B2_day1,2022.2.4,MacIntel,59.87665409,,,,,,,,,,,,,,,,,,,-0.011992187,0.049106445,1,0,0,1.4041,4,0,104,13,1,n,images/br_n.png,images/cb_n.png,,,,,,,,,,,,,,,,,,,,,,,,,
,,,,,,00035,2023-09-25_10h51.03.921,vbt_B2_day1,2022.2.4,MacIntel,59.87665409,,,,,,,,,,,,,,,,,,,0.158305664,0.048139648,1,0,0,0.3719,4,1,105,20,1,u,images/br_u.png,images/cb_u.png,,,,,,,,,,,,,,,,,,,,,,,,,
,,,,,,00035,2023-09-25_10h51.03.921,vbt_B2_day1,2022.2.4,MacIntel,59.87665409,,,,,,,,,,,,,,,,,,,0.128974609,0.103168945,1,0,0,1.7598,4,2,106,19,1,t,images/br_t.png,images/cb_t.png,,,,,,,,,,,,,,,,,,,,,,,,,
,,,,,,00035,2023-09-25_10h51.03.921,vbt_B2_day1,2022.2.4,MacIntel,59.87665409,,,,,,,,,,,,,,,,,,,0.144316406,-0.08246582,1,0,0,3.0903,4,3,107,23,1,x,images/br_x.png,images/cb_x.png,,,,,,,,,,,,,,,,,,,,,,,,,
,,,,,,00035,2023-09-25_10h51.03.921,vbt_B2_day1,2022.2.4,MacIntel,59.87665409,,,,,,,,,,,,,,,,,,,0.144316406,-0.08246582,1,0,0,1.7143,4,4,108,18,1,s,images/br_s.png,images/cb_s.png,,,,,,,,,,,,,,,,,,,,,,,,,
,,,,,,00035,2023-09-25_10h51.03.921,vbt_B2_day1,2022.2.4,MacIntel,59.87665409,,,,,,,,,,,,,,,,,,,0.144316406,-0.08246582,1,0,0,4.4594,4,5,109,12,1,m,images/br_m.png,images/cb_m.png,,,,,,,,,,,,,,,,,,,,,,,,,
,,,,,,00035,2023-09-25_10h51.03.921,vbt_B2_day1,2022.2.4,MacIntel,59.87665409,,,,,,,,,,,,,,,,,,,0.138032227,-0.069375,1,0,0,4.9846,4,6,110,7,1,h,images/br_h.png,images/cb_h.png,,,,,,,,,,,,,,,,,,,,,,,,,
,,,,,,00035,2023-09-25_10h51.03.921,vbt_B2_day1,2022.2.4,MacIntel,59.87665409,,,,,,,,,,,,,,,,,,,0.079746094,-0.105239258,1,0,0,1.4543,4,7,111,17,1,r,images/br_r.png,images/cb_r.png,,,,,,,,,,,,,,,,,,,,,,,,,
,,,,,,00035,2023-09-25_10h51.03.921,vbt_B2_day1,2022.2.4,MacIntel,59.87665409,,,,,,,,,,,,,,,,,,,0.042919922,-0.028193359,1,0,0,20.0775,4,8,112,16,1,q,images/br_q.png,images/cb_q.png,,,,,,,,,,,,,,,,,,,,,,,,,
,,,,,,00035,2023-09-25_10h51.03.921,vbt_B2_day1,2022.2.4,MacIntel,59.87665409,,,,,,,,,,,,,,,,,,,0.087084961,-0.145219727,1,0,1,2.3953,4,9,113,11,1,l,images/br_l.png,images/cb_l.png,,,,,,,,,,,,,,,,,,,,,,,,,
,,,,,,00035,2023-09-25_10h51.03.921,vbt_B2_day1,2022.2.4,MacIntel,59.87665409,,,,,,,,,,,,,,,,,,,0.146616211,-0.147558594,1,0,1,4.36,4,10,114,5,1,f,images/br_f.png,images/cb_f.png,,,,,,,,,,,,,,,,,,,,,,,,,
,,,,,,00035,2023-09-25_10h51.03.921,vbt_B2_day1,2022.2.4,MacIntel,59.87665409,,,,,,,,,,,,,,,,,,,0.143891602,-0.146459961,1,0,1,2.4896,4,11,115,21,1,v,images/br_v.png,images/cb_v.png,,,,,,,,,,,,,,,,,,,,,,,,,
,,,,,,00035,2023-09-25_10h51.03.921,vbt_B2_day1,2022.2.4,MacIntel,59.87665409,,,,,,,,,,,,,,,,,,,0.143891602,-0.146459961,1,0,1,0.8471,4,12,116,14,1,o,images/br_o.png,images/cb_o.png,,,,,,,,,,,,,,,,,,,,,,,,,
,,,,,,00035,2023-09-25_10h51.03.921,vbt_B2_day1,2022.2.4,MacIntel,59.87665409,,,,,,,,,,,,,,,,,,,0.143891602,-0.146459961,1,0,1,1.5272,4,13,117,6,1,g,images/br_g.png,images/cb_g.png,,,,,,,,,,,,,,,,,,,,,,,,,
,,,,,,00035,2023-09-25_10h51.03.921,vbt_B2_day1,2022.2.4,MacIntel,59.87665409,,,,,,,,,,,,,,,,,,,0.143891602,-0.146459961,1,0,1,0.4028,4,14,118,24,1,y,images/br_y.png,images/cb_y.png,,,,,,,,,,,,,,,,,,,,,,,,,
,,,,,,00035,2023-09-25_10h51.03.921,vbt_B2_day1,2022.2.4,MacIntel,59.87665409,,,,,,,,,,,,,,,,,,,0.143891602,-0.146459961,1,0,1,0.9539,4,15,119,2,1,c,images/br_c.png,images/cb_c.png,,,,,,,,,,,,,,,,,,,,,,,,,
,,,,,,00035,2023-09-25_10h51.03.921,vbt_B2_day1,2022.2.4,MacIntel,59.87665409,,,,,,,,,,,,,,,,,,,0.143891602,-0.146459961,1,0,1,1.5392,4,16,120,9,1,j,images/br_j.png,images/cb_j.png,,,,,,,,,,,,,,,,,,,,,,,,,
,,,,,,00035,2023-09-25_10h51.03.921,vbt_B2_day1,2022.2.4,MacIntel,59.87665409,,,,,,,,,,,,,,,,,,,0.115395508,-0.09019043,1,0,1,9.422,4,17,121,0,1,a,images/br_a.png,images/cb_a.png,,,,,,,,,,,,,,,,,,,,,,,,,
,,,,,,00035,2023-09-25_10h51.03.921,vbt_B2_day1,2022.2.4,MacIntel,59.87665409,,,,,,,,,,,,,,,,,,,0.115395508,-0.087729492,1,0,1,1.3736,4,18,122,22,1,w,images/br_w.png,images/cb_w.png,,,,,,,,,,,,,,,,,,,,,,,,,
,,,,,,00035,2023-09-25_10h51.03.921,vbt_B2_day1,2022.2.4,MacIntel,59.87665409,,,,,,,,,,,,,,,,,,,0.127568359,-0.080117188,1,0,1,14.5331,4,19,123,15,1,p,images/br_p.png,images/cb_p.png,,,,,,,,,,,,,,,,,,,,,,,,,
,,,,,,00035,2023-09-25_10h51.03.921,vbt_B2_day1,2022.2.4,MacIntel,59.87665409,,,,,,,,,,,,,,,,,,,0.127568359,-0.080117188,1,0,1,1.7539,4,20,124,25,1,z,images/br_z.png,images/cb_z.png,,,,,,,,,,,,,,,,,,,,,,,,,
,,,,,,00035,2023-09-25_10h51.03.921,vbt_B2_day1,2022.2.4,MacIntel,59.87665409,,,,,,,,,,,,,,,,,,,0.127158203,-0.078886719,1,0,1,1.8233,4,21,125,8,1,i,images/br_i.png,images/cb_i.png,,,,,,,,,,,,,,,,,,,,,,,,,
,,,,,,00035,2023-09-25_10h51.03.921,vbt_B2_day1,2022.2.4,MacIntel,59.87665409,,,,,,,,,,,,,,,,,,,0.13684082,-0.14,1,0,1,10.0054,4,22,126,3,1,d,images/br_d.png,images/cb_d.png,,,,,,,,,,,,,,,,,,,,,,,,,
,,,,,,00035,2023-09-25_10h51.03.921,vbt_B2_day1,2022.2.4,MacIntel,59.87665409,,,,,,,,,,,,,,,,,,,0.718447266,0.41015625,1,0,1,26.644,4,23,127,4,1,e,images/br_e.png,images/cb_e.png,,,,,,,,,,,,,,,,,,,,,,,,,
,,,,,,00035,2023-09-25_10h51.03.921,vbt_B2_day1,2022.2.4,MacIntel,59.87665409,,,,,,,,,,,,,,,,,,,0.718447266,0.41015625,1,0,1,21.2472,4,24,128,1,1,b,images/br_b.png,images/cb_b.png,,,,,,,,,,,,,,,,,,,,,,,,,
,,,,,,00035,2023-09-25_10h51.03.921,vbt_B2_day1,2022.2.4,MacIntel,59.87665409,,,,,,,,,,,,,,,,,,,0.242666016,-0.105268555,1,0,1,29.3979,4,25,129,10,1,k,images/br_k.png,images/cb_k.png,,,,,,,,,,,,,,,,,,,,,,,,,
,,,,,,00035,2023-09-25_10h51.03.921,vbt_B2_day1,2022.2.4,MacIntel,59.87665409,,,,,,,,,,,,,,,,,,,0.242666016,-0.105268555,1,0,1,0.5017,5,0,130,2,1,c,images/br_c.png,images/cb_c.png,,,,,,,,,,,,,,,,,,,,,,,,,
,,,,,,00035,2023-09-25_10h51.03.921,vbt_B2_day1,2022.2.4,MacIntel,59.87665409,,,,,,,,,,,,,,,,,,,0.184731445,-0.051367188,1,0,1,11.7266,5,1,131,9,1,j,images/br_j.png,images/cb_j.png,,,,,,,,,,,,,,,,,,,,,,,,,
,,,,,,00035,2023-09-25_10h51.03.921,vbt_B2_day1,2022.2.4,MacIntel,59.87665409,,,,,,,,,,,,,,,,,,,0.184731445,-0.051367188,1,0,1,3.318,5,2,132,14,1,o,images/br_o.png,images/cb_o.png,,,,,,,,,,,,,,,,,,,,,,,,,
,,,,,,00035,2023-09-25_10h51.03.921,vbt_B2_day1,2022.2.4,MacIntel,59.87665409,,,,,,,,,,,,,,,,,,,0.184731445,-0.051367188,1,0,1,6.5122,5,3,133,0,1,a,images/br_a.png,images/cb_a.png,,,,,,,,,,,,,,,,,,,,,,,,,
,,,,,,00035,2023-09-25_10h51.03.921,vbt_B2_day1,2022.2.4,MacIntel,59.87665409,,,,,,,,,,,,,,,,,,,0.164165039,0.014179687,1,0,1,4.4664,5,4,134,11,1,l,images/br_l.png,images/cb_l.png,,,,,,,,,,,,,,,,,,,,,,,,,
,,,,,,00035,2023-09-25_10h51.03.921,vbt_B2_day1,2022.2.4,MacIntel,59.87665409,,,,,,,,,,,,,,,,,,,0.190117188,-0.108251953,1,0,0,15.6276,5,5,135,17,1,r,images/br_r.png,images/cb_r.png,,,,,,,,,,,,,,,,,,,,,,,,,
,,,,,,00035,2023-09-25_10h51.03.921,vbt_B2_day1,2022.2.4,MacIntel,59.87665409,,,,,,,,,,,,,,,,,,,0.149541016,-0.072114258,1,0,0,5.3092,5,6,136,7,1,h,images/br_h.png,images/cb_h.png,,,,,,,,,,,,,,,,,,,,,,,,,
,,,,,,00035,2023-09-25_10h51.03.921,vbt_B2_day1,2022.2.4,MacIntel,59.87665409,,,,,,,,,,,,,,,,,,,0.090249023,-0.132133789,1,0,0,3.7986,5,7,137,24,1,y,images/br_y.png,images/cb_y.png,,,,,,,,,,,,,,,,,,,,,,,,,
,,,,,,00035,2023-09-25_10h51.03.921,vbt_B2_day1,2022.2.4,MacIntel,59.87665409,,,,,,,,,,,,,,,,,,,0.199223633,-0.076118164,1,0,0,10.2731,5,8,138,25,1,z,images/br_z.png,images/cb_z.png,,,,,,,,,,,,,,,,,,,,,,,,,
,,,,,,00035,2023-09-25_10h51.03.921,vbt_B2_day1,2022.2.4,MacIntel,59.87665409,,,,,,,,,,,,,,,,,,,0.199223633,-0.076118164,1,0,0,18.3906,5,9,139,6,1,g,images/br_g.png,images/cb_g.png,,,,,,,,,,,,,,,,,,,,,,,,,
,,,,,,00035,2023-09-25_10h51.03.921,vbt_B2_day1,2022.2.4,MacIntel,59.87665409,,,,,,,,,,,,,,,,,,,0.193115234,-0.064150391,1,0,0,0.3848,5,10,140,15,1,p,images/br_p.png,images/cb_p.png,,,,,,,,,,,,,,,,,,,,,,,,,
,,,,,,00035,2023-09-25_10h51.03.921,vbt_B2_day1,2022.2.4,MacIntel,59.87665409,,,,,,,,,,,,,,,,,,,0.172822266,-0.044951172,1,0,0,0.3161,5,11,141,21,1,v,images/br_v.png,images/cb_v.png,,,,,,,,,,,,,,,,,,,,,,,,,
,,,,,,00035,2023-09-25_10h51.03.921,vbt_B2_day1,2022.2.4,MacIntel,59.87665409,,,,,,,,,,,,,,,,,,,0.172822266,-0.044951172,1,0,0,15.5013,5,12,142,1,1,b,images/br_b.png,images/cb_b.png,,,,,,,,,,,,,,,,,,,,,,,,,
,,,,,,00035,2023-09-25_10h51.03.921,vbt_B2_day1,2022.2.4,MacIntel,59.87665409,,,,,,,,,,,,,,,,,,,0.172822266,-0.044951172,1,0,0,0.2182,5,13,143,19,1,t,images/br_t.png,images/cb_t.png,,,,,,,,,,,,,,,,,,,,,,,,,
,,,,,,00035,2023-09-25_10h51.03.921,vbt_B2_day1,2022.2.4,MacIntel,59.87665409,,,,,,,,,,,,,,,,,,,0.172822266,-0.044951172,1,0,0,1.3752,5,14,144,4,1,e,images/br_e.png,images/cb_e.png,,,,,,,,,,,,,,,,,,,,,,,,,
,,,,,,00035,2023-09-25_10h51.03.921,vbt_B2_day1,2022.2.4,MacIntel,59.87665409,,,,,,,,,,,,,,,,,,,0.196591797,-0.078999023,1,0,0,11.2633,5,15,145,5,1,f,images/br_f.png,images/cb_f.png,,,,,,,,,,,,,,,,,,,,,,,,,
,,,,,,00035,2023-09-25_10h51.03.921,vbt_B2_day1,2022.2.4,MacIntel,59.87665409,,,,,,,,,,,,,,,,,,,0.346479492,-0.037651367,1,0,0,67.6236,5,16,146,22,1,w,images/br_w.png,images/cb_w.png,,,,,,,,,,,,,,,,,,,,,,,,,
,,,,,,00035,2023-09-25_10h51.03.921,vbt_B2_day1,2022.2.4,MacIntel,59.87665409,,,,,,,,,,,,,,,,,,,0.346479492,-0.037651367,0,0,1,0.9624,5,17,147,10,1,k,images/br_k.png,images/cb_k.png,,,,,,,,,,,,,,,,,,,,,,,,,
,,,,,,00035,2023-09-25_10h51.03.921,vbt_B2_day1,2022.2.4,MacIntel,59.87665409,,,,,,,,,,,,,,,,,,,0.207651367,-0.028696289,1,0,1,2.9564,5,18,148,12,1,m,images/br_m.png,images/cb_m.png,,,,,,,,,,,,,,,,,,,,,,,,,
,,,,,,00035,2023-09-25_10h51.03.921,vbt_B2_day1,2022.2.4,MacIntel,59.87665409,,,,,,,,,,,,,,,,,,,0.206831055,-0.026582031,1,0,1,0.7908,5,19,149,23,1,x,images/br_x.png,images/cb_x.png,,,,,,,,,,,,,,,,,,,,,,,,,
,,,,,,00035,2023-09-25_10h51.03.921,vbt_B2_day1,2022.2.4,MacIntel,59.87665409,,,,,,,,,,,,,,,,,,,0.205942383,-0.02425293,1,0,1,0.967,5,20,150,13,1,n,images/br_n.png,images/cb_n.png,,,,,,,,,,,,,,,,,,,,,,,,,
,,,,,,00035,2023-09-25_10h51.03.921,vbt_B2_day1,2022.2.4,MacIntel,59.87665409,,,,,,,,,,,,,,,,,,,0.205942383,-0.02425293,1,0,1,6.6151,5,21,151,3,1,d,images/br_d.png,images/cb_d.png,,,,,,,,,,,,,,,,,,,,,,,,,
,,,,,,00035,2023-09-25_10h51.03.921,vbt_B2_day1,2022.2.4,MacIntel,59.87665409,,,,,,,,,,,,,,,,,,,0.205942383,-0.02425293,1,0,1,3.1344,5,22,152,20,1,u,images/br_u.png,images/cb_u.png,,,,,,,,,,,,,,,,,,,,,,,,,
,,,,,,00035,2023-09-25_10h51.03.921,vbt_B2_day1,2022.2.4,MacIntel,59.87665409,,,,,,,,,,,,,,,,,,,0.205942383,-0.02425293,1,0,1,2.139,5,23,153,16,1,q,images/br_q.png,images/cb_q.png,,,,,,,,,,,,,,,,,,,,,,,,,
,,,,,,00035,2023-09-25_10h51.03.921,vbt_B2_day1,2022.2.4,MacIntel,59.87665409,,,,,,,,,,,,,,,,,,,0.205942383,-0.02425293,1,0,1,13.7627,5,24,154,8,1,i,images/br_i.png,images/cb_i.png,,,,,,,,,,,,,,,,,,,,,,,,,
,,,,,,00035,2023-09-25_10h51.03.921,vbt_B2_day1,2022.2.4,MacIntel,59.87665409,,,,,,,,,,,,,,,,,,,0.205078125,-0.022041016,1,0,1,11.7865,5,25,155,18,1,s,images/br_s.png,images/cb_s.png,,,,,,,,,,,,,,,,,,,,,,,,,
,,,,,,00035,2023-09-25_10h51.03.921,vbt_B2_day1,2022.2.4,MacIntel,59.87665409,,,,,,,,,,,,,,,,,,,0.205078125,-0.022041016,1,0,1,6.8144,6,0,156,20,1,u,images/br_u.png,images/cb_u.png,,,,,,,,,,,,,,,,,,,,,,,,,
,,,,,,00035,2023-09-25_10h51.03.921,vbt_B2_day1,2022.2.4,MacIntel,59.87665409,,,,,,,,,,,,,,,,,,,0.205078125,-0.022041016,1,0,1,0.864,6,1,157,5,1,f,images/br_f.png,images/cb_f.png,,,,,,,,,,,,,,,,,,,,,,,,,
,,,,,,00035,2023-09-25_10h51.03.921,vbt_B2_day1,2022.2.4,MacIntel,59.87665409,,,,,,,,,,,,,,,,,,,0.202553711,-0.019926758,1,0,1,7.5339,6,2,158,12,1,m,images/br_m.png,images/cb_m.png,,,,,,,,,,,,,,,,,,,,,,,,,
,,,,,,00035,2023-09-25_10h51.03.921,vbt_B2_day1,2022.2.4,MacIntel,59.87665409,,,,,,,,,,,,,,,,,,,0.201733398,-0.015415039,1,0,1,11.7097,6,3,159,9,1,j,images/br_j.png,images/cb_j.png,,,,,,,,,,,,,,,,,,,,,,,,,
,,,,,,00035,2023-09-25_10h51.03.921,vbt_B2_day1,2022.2.4,MacIntel,59.87665409,,,,,,,,,,,,,,,,,,,0.188071289,0.002958984,1,0,1,0.7025,6,4,160,11,1,l,images/br_l.png,images/cb_l.png,,,,,,,,,,,,,,,,,,,,,,,,,
,,,,,,00035,2023-09-25_10h51.03.921,vbt_B2_day1,2022.2.4,MacIntel,59.87665409,,,,,,,,,,,,,,,,,,,0.188071289,0.002958984,0,0,1,0.0342,6,5,161,8,1,i,images/br_i.png,images/cb_i.png,,,,,,,,,,,,,,,,,,,,,,,,,
,,,,,,00035,2023-09-25_10h51.03.921,vbt_B2_day1,2022.2.4,MacIntel,59.87665409,,,,,,,,,,,,,,,,,,,0.188071289,0.002958984,1,0,1,0.9344,6,6,162,3,1,d,images/br_d.png,images/cb_d.png,,,,,,,,,,,,,,,,,,,,,,,,,
,,,,,,00035,2023-09-25_10h51.03.921,vbt_B2_day1,2022.2.4,MacIntel,59.87665409,,,,,,,,,,,,,,,,,,,0.188071289,0.002958984,1,0,1,0.073,6,7,163,15,1,p,images/br_p.png,images/cb_p.png,,,,,,,,,,,,,,,,,,,,,,,,,
,,,,,,00035,2023-09-25_10h51.03.921,vbt_B2_day1,2022.2.4,MacIntel,59.87665409,,,,,,,,,,,,,,,,,,,0.188071289,0.002958984,1,0,1,0.251,6,8,164,4,1,e,images/br_e.png,images/cb_e.png,,,,,,,,,,,,,,,,,,,,,,,,,
,,,,,,00035,2023-09-25_10h51.03.921,vbt_B2_day1,2022.2.4,MacIntel,59.87665409,,,,,,,,,,,,,,,,,,,0.188071289,0.002958984,0,0,1,0.1831,6,9,165,0,1,a,images/br_a.png,images/cb_a.png,,,,,,,,,,,,,,,,,,,,,,,,,
,,,,,,00035,2023-09-25_10h51.03.921,vbt_B2_day1,2022.2.4,MacIntel,59.87665409,,,,,,,,,,,,,,,,,,,0.188071289,0.004599609,1,0,1,1.0008,6,10,166,23,1,x,images/br_x.png,images/cb_x.png,,,,,,,,,,,,,,,,,,,,,,,,,
,,,,,,00035,2023-09-25_10h51.03.921,vbt_B2_day1,2022.2.4,MacIntel,59.87665409,,,,,,,,,,,,,,,,,,,0.142084961,-0.015268555,1,0,1,6.9326,6,11,167,10,1,k,images/br_k.png,images/cb_k.png,,,,,,,,,,,,,,,,,,,,,,,,,
,,,,,,00035,2023-09-25_10h51.03.921,vbt_B2_day1,2022.2.4,MacIntel,59.87665409,,,,,,,,,,,,,,,,,,,0.134667969,0.009287109,1,0,1,0.0501,6,12,168,19,1,t,images/br_t.png,images/cb_t.png,,,,,,,,,,,,,,,,,,,,,,,,,
,,,,,,00035,2023-09-25_10h51.03.921,vbt_B2_day1,2022.2.4,MacIntel,59.87665409,,,,,,,,,,,,,,,,,,,0.114316406,0.009282227,1,0,1,5.0724,6,13,169,7,1,h,images/br_h.png,images/cb_h.png,,,,,,,,,,,,,,,,,,,,,,,,,
,,,,,,00035,2023-09-25_10h51.03.921,vbt_B2_day1,2022.2.4,MacIntel,59.87665409,,,,,,,,,,,,,,,,,,,0.15934082,0.025478516,1,0,1,7.3728,6,14,170,13,1,n,images/br_n.png,images/cb_n.png,,,,,,,,,,,,,,,,,,,,,,,,,
,,,,,,00035,2023-09-25_10h51.03.921,vbt_B2_day1,2022.2.4,MacIntel,59.87665409,,,,,,,,,,,,,,,,,,,0.15934082,0.025478516,1,0,1,2.1778,6,15,171,6,1,g,images/br_g.png,images/cb_g.png,,,,,,,,,,,,,,,,,,,,,,,,,
,,,,,,00035,2023-09-25_10h51.03.921,vbt_B2_day1,2022.2.4,MacIntel,59.87665409,,,,,,,,,,,,,,,,,,,0.15934082,0.025478516,0,0,1,0.1608,6,16,172,18,1,s,images/br_s.png,images/cb_s.png,,,,,,,,,,,,,,,,,,,,,,,,,
,,,,,,00035,2023-09-25_10h51.03.921,vbt_B2_day1,2022.2.4,MacIntel,59.87665409,,,,,,,,,,,,,,,,,,,0.15934082,0.025478516,1,0,1,0.6189,6,17,173,22,1,w,images/br_w.png,images/cb_w.png,,,,,,,,,,,,,,,,,,,,,,,,,
,,,,,,00035,2023-09-25_10h51.03.921,vbt_B2_day1,2022.2.4,MacIntel,59.87665409,,,,,,,,,,,,,,,,,,,0.15934082,0.025478516,1,0,1,0.8956,6,18,174,14,1,o,images/br_o.png,images/cb_o.png,,,,,,,,,,,,,,,,,,,,,,,,,
,,,,,,00035,2023-09-25_10h51.03.921,vbt_B2_day1,2022.2.4,MacIntel,59.87665409,,,,,,,,,,,,,,,,,,,0.15934082,0.025478516,1,0,1,1.2868,6,19,175,16,1,q,images/br_q.png,images/cb_q.png,,,,,,,,,,,,,,,,,,,,,,,,,
,,,,,,00035,2023-09-25_10h51.03.921,vbt_B2_day1,2022.2.4,MacIntel,59.87665409,,,,,,,,,,,,,,,,,,,0.15934082,0.025478516,1,0,1,1.8636,6,20,176,21,1,v,images/br_v.png,images/cb_v.png,,,,,,,,,,,,,,,,,,,,,,,,,
,,,,,,00035,2023-09-25_10h51.03.921,vbt_B2_day1,2022.2.4,MacIntel,59.87665409,,,,,,,,,,,,,,,,,,,0.15934082,0.025478516,1,0,1,7.1046,6,21,177,25,1,z,images/br_z.png,images/cb_z.png,,,,,,,,,,,,,,,,,,,,,,,,,
,,,,,,00035,2023-09-25_10h51.03.921,vbt_B2_day1,2022.2.4,MacIntel,59.87665409,,,,,,,,,,,,,,,,,,,0.15934082,0.025478516,0,0,1,0.095,6,22,178,17,1,r,images/br_r.png,images/cb_r.png,,,,,,,,,,,,,,,,,,,,,,,,,
,,,,,,00035,2023-09-25_10h51.03.921,vbt_B2_day1,2022.2.4,MacIntel,59.87665409,,,,,,,,,,,,,,,,,,,0.15934082,0.025478516,1,0,1,6.0135,6,23,179,1,1,b,images/br_b.png,images/cb_b.png,,,,,,,,,,,,,,,,,,,,,,,,,
,,,,,,00035,2023-09-25_10h51.03.921,vbt_B2_day1,2022.2.4,MacIntel,59.87665409,,,,,,,,,,,,,,,,,,,0.15934082,0.025478516,1,0,1,0.8692,6,24,180,2,1,c,images/br_c.png,images/cb_c.png,,,,,,,,,,,,,,,,,,,,,,,,,
,,,,,,00035,2023-09-25_10h51.03.921,vbt_B2_day1,2022.2.4,MacIntel,59.87665409,,,,,,,,,,,,,,,,,,,0.15934082,0.025478516,1,0,1,1.5374,6,25,181,24,1,y,images/br_y.png,images/cb_y.png,,,,,,,,,,,,,,,,,,,,,,,,,
,,,,,,00035,2023-09-25_10h51.03.921,vbt_B2_day1,2022.2.4,MacIntel,59.87665409,,,,,,,,,,,,,,,,,,,,,,,,,,,,,,,,,0.15934082,0.025478516,0,0,1,,,,,,,,,,,,,,,,,,,,
,,,,,,00035,2023-09-25_10h51.03.921,vbt_B2_day1,2022.2.4,MacIntel,59.87665409,,,,,,,,,,,,,,,,,,,,,,,,,,,,,,,,,,,,,,-0.179584961,-0.191132812,1,0,1,,,,,,,,,,,,,,,
,,,,,,00035,2023-09-25_10h51.03.921,vbt_B2_day1,2022.2.4,MacIntel,59.87665409,,,,,,,,,,,,,,,,,,,,,,,,,,,,,,,,,,,,,,,,,,,-0.179584961,-0.191132812,1,0,1,l....,l....,0,0,0,34,1,lochten,images/br_lochten.png,images/cb_lochten.png
,,,,,,00035,2023-09-25_10h51.03.921,vbt_B2_day1,2022.2.4,MacIntel,59.87665409,,,,,,,,,,,,,,,,,,,,,,,,,,,,,,,,,,,,,,,,,,,0.053706055,-0.091577148,1,0,1,knie,knie,0,1,1,22,1,knoe,images/br_knoe.png,images/cb_knoe.png
,,,,,,00035,2023-09-25_10h51.03.921,vbt_B2_day1,2022.2.4,MacIntel,59.87665409,,,,,,,,,,,,,,,,,,,,,,,,,,,,,,,,,,,,,,,,,,,0.196977539,-0.045961914,1,0,1,dubbel,dubbel,0,2,2,9,1,dubbel,images/br_dubbel.png,images/cb_dubbel.png
,,,,,,00035,2023-09-25_10h51.03.921,vbt_B2_day1,2022.2.4,MacIntel,59.87665409,,,,,,,,,,,,,,,,,,,,,,,,,,,,,,,,,,,,,,,,,,,0.133139648,-0.115820312,1,0,1,muziek,muziek,0,3,3,10,1,muziek,images/br_muziek.png,images/cb_muziek.png
,,,,,,00035,2023-09-25_10h51.03.921,vbt_B2_day1,2022.2.4,MacIntel,59.87665409,,,,,,,,,,,,,,,,,,,,,,,,,,,,,,,,,,,,,,,,,,,0.173144531,-0.033989258,1,0,1,jaar,jaar,0,4,4,2,1,jaar,images/br_jaar.png,images/cb_jaar.png
,,,,,,00035,2023-09-25_10h51.03.921,vbt_B2_day1,2022.2.4,MacIntel,59.87665409,,,,,,,,,,,,,,,,,,,,,,,,,,,,,,,,,,,,,,,,,,,0.182944336,0.031162109,1,0,1,voorreur,voorreur,0,5,5,39,1,voorreur,images/br_voorreur.png,images/cb_voorreur.png
,,,,,,00035,2023-09-25_10h51.03.921,vbt_B2_day1,2022.2.4,MacIntel,59.87665409,,,,,,,,,,,,,,,,,,,,,,,,,,,,,,,,,,,,,,,,,,,-0.248217773,-0.125678711,1,0,1,,,0,6,6,13,1,twijfel,images/br_twijfel.png,images/cb_twijfel.png
,,,,,,00035,2023-09-25_10h51.03.921,vbt_B2_day1,2022.2.4,MacIntel,59.87665409,,,,,,,,,,,,,,,,,,,,,,,,,,,,,,,,,,,,,,,,,,,0.204287109,0.02402832,1,0,1,daarheen,daarheen,0,7,7,16,1,daarheen,images/br_daarheen.png,images/cb_daarheen.png
,,,,,,00035,2023-09-25_10h51.03.921,vbt_B2_day1,2022.2.4,MacIntel,59.87665409,,,,,,,,,,,,,,,,,,,,,,,,,,,,,,,,,,,,,,,,,,,0.041669922,0.009829102,1,0,1,schep,schep,0,8,8,4,1,schep,images/br_schep.png,images/cb_schep.png
,,,,,,00035,2023-09-25_10h51.03.921,vbt_B2_day1,2022.2.4,MacIntel,59.87665409,,,,,,,,,,,,,,,,,,,,,,,,,,,,,,,,,,,,,,,,,,,-0.027519531,-0.036523437,1,0,1,vervaden,vervaden,0,9,9,36,1,vervaden,images/br_vervaden.png,images/cb_vervaden.png
,,,,,,00035,2023-09-25_10h51.03.921,vbt_B2_day1,2022.2.4,MacIntel,59.87665409,,,,,,,,,,,,,,,,,,,,,,,,,,,,,,,,,,,,,,,,,,,-0.083920898,-0.098061523,1,0,1,stamen,stamen,0,10,10,31,1,stamen,images/br_stamen.png,images/cb_stamen.png
,,,,,,00035,2023-09-25_10h51.03.921,vbt_B2_day1,2022.2.4,MacIntel,59.87665409,,,,,,,,,,,,,,,,,,,,,,,,,,,,,,,,,,,,,,,,,,,-0.083920898,-0.098461914,1,0,1,schielen,schielen,0,11,11,38,1,schielen,images/br_schielen.png,images/cb_schielen.png
,,,,,,00035,2023-09-25_10h51.03.921,vbt_B2_day1,2022.2.4,MacIntel,59.87665409,,,,,,,,,,,,,,,,,,,,,,,,,,,,,,,,,,,,,,,,,,,0.033911133,-0.005673828,1,0,1,voorkeur,voorkeur,0,12,12,58,1,voorkeur,images/br_voorkeur.png,images/cb_voorkeur.png
,,,,,,00035,2023-09-25_10h51.03.921,vbt_B2_day1,2022.2.4,MacIntel,59.87665409,,,,,,,,,,,,,,,,,,,,,,,,,,,,,,,,,,,,,,,,,,,-0.013046875,0.08171875,1,0,1,booe,booe,0,13,13,23,1,booi,images/br_booi.png,images/cb_booi.png
,,,,,,00035,2023-09-25_10h51.03.921,vbt_B2_day1,2022.2.4,MacIntel,59.87665409,,,,,,,,,,,,,,,,,,,,,,,,,,,,,,,,,,,,,,,,,,,0.000385742,-0.197382813,1,0,1,drid,drid,0,14,14,21,1,dred,images/br_dred.png,images/cb_dred.png
,,,,,,00035,2023-09-25_10h51.03.921,vbt_B2_day1,2022.2.4,MacIntel,59.87665409,,,,,,,,,,,,,,,,,,,,,,,,,,,,,,,,,,,,,,,,,,,-0.04637207,-0.050756836,1,0,1,flullen,flullen,0,15,15,33,1,flullen,images/br_flullen.png,images/cb_flullen.png
,,,,,,00035,2023-09-25_10h51.03.921,vbt_B2_day1,2022.2.4,MacIntel,59.87665409,,,,,,,,,,,,,,,,,,,,,,,,,,,,,,,,,,,,,,,,,,,0.074863281,0.047456055,1,0,1,mand,mand,0,16,16,3,1,mand,images/br_mand.png,images/cb_mand.png
,,,,,,00035,2023-09-25_10h51.03.921,vbt_B2_day1,2022.2.4,MacIntel,59.87665409,,,,,,,,,,,,,,,,,,,,,,,,,,,,,,,,,,,,,,,,,,,0.01762207,0.053378906,1,0,1,prort ,prort ,0,17,17,27,1,prort,images/br_prort.png,images/cb_prort.png
,,,,,,00035,2023-09-25_10h51.03.921,vbt_B2_day1,2022.2.4,MacIntel,59.87665409,,,,,,,,,,,,,,,,,,,,,,,,,,,,,,,,,,,,,,,,,,,0.106367188,0.052597656,1,0,1,liegen,liegen,0,18,18,50,1,liegen,images/br_liegen.png,images/cb_liegen.png
,,,,,,00035,2023-09-25_10h51.03.921,vbt_B2_day1,2022.2.4,MacIntel,59.87665409,,,,,,,,,,,,,,,,,,,,,,,,,,,,,,,,,,,,,,,,,,,-0.121669922,0.073476562,1,0,1,o.....,o.....,0,19,19,53,1,opslaan,images/br_opslaan.png,images/cb_opslaan.png
,,,,,,00035,2023-09-25_10h51.03.921,vbt_B2_day1,2022.2.4,MacIntel,59.87665409,,,,,,,,,,,,,,,,,,,,,,,,,,,,,,,,,,,,,,,,,,,-0.021396484,0.070766602,1,0,1,vinier ,vinier ,0,20,20,49,1,vizier,images/br_vizier.png,images/cb_vizier.png
,,,,,,00035,2023-09-25_10h51.03.921,vbt_B2_day1,2022.2.4,MacIntel,59.87665409,,,,,,,,,,,,,,,,,,,,,,,,,,,,,,,,,,,,,,,,,,,0.120961914,0.036147461,1,0,1,lenen,lenen,0,21,21,46,1,lezen,images/br_lezen.png,images/cb_lezen.png
,,,,,,00035,2023-09-25_10h51.03.921,vbt_B2_day1,2022.2.4,MacIntel,59.87665409,,,,,,,,,,,,,,,,,,,,,,,,,,,,,,,,,,,,,,,,,,,0.019291992,0.108520508,1,0,1,mitdilin,mitdilin,0,22,22,18,1,uitdelen,images/br_uitdelen.png,images/cb_uitdelen.png
,,,,,,00035,2023-09-25_10h51.03.921,vbt_B2_day1,2022.2.4,MacIntel,59.87665409,,,,,,,,,,,,,,,,,,,,,,,,,,,,,,,,,,,,,,,,,,,-0.055649414,0.002197266,1,0,1,stuk,stuk,0,23,23,42,1,stuk,images/br_stuk.png,images/cb_stuk.png
,,,,,,00035,2023-09-25_10h51.03.921,vbt_B2_day1,2022.2.4,MacIntel,59.87665409,,,,,,,,,,,,,,,,,,,,,,,,,,,,,,,,,,,,,,,,,,,-0.091533203,0.058154297,1,0,1,spanning,spanning,0,24,24,37,1,spanzing,images/br_spanzing.png,images/cb_spanzing.png
,,,,,,00035,2023-09-25_10h51.03.921,vbt_B2_day1,2022.2.4,MacIntel,59.87665409,,,,,,,,,,,,,,,,,,,,,,,,,,,,,,,,,,,,,,,,,,,-0.091533203,0.058154297,1,0,1,,,0,25,25,7,1,klauw,images/br_klauw.png,images/cb_klauw.png
,,,,,,00035,2023-09-25_10h51.03.921,vbt_B2_day1,2022.2.4,MacIntel,59.87665409,,,,,,,,,,,,,,,,,,,,,,,,,,,,,,,,,,,,,,,,,,,-0.121376953,0.103876953,1,0,1,hiervan,hiervan,0,26,26,15,1,hiervan,images/br_hiervan.png,images/cb_hiervan.png
,,,,,,00035,2023-09-25_10h51.03.921,vbt_B2_day1,2022.2.4,MacIntel,59.87665409,,,,,,,,,,,,,,,,,,,,,,,,,,,,,,,,,,,,,,,,,,,-0.121376953,0.103876953,1,0,1,stuekim ,stuekim ,0,27,27,35,1,stuikem,images/br_stuikem.png,images/cb_stuikem.png
,,,,,,00035,2023-09-25_10h51.03.921,vbt_B2_day1,2022.2.4,MacIntel,59.87665409,,,,,,,,,,,,,,,,,,,,,,,,,,,,,,,,,,,,,,,,,,,-0.121376953,0.103876953,1,0,1,slak,slak,0,28,28,0,1,slak,images/br_slak.png,images/cb_slak.png
,,,,,,00035,2023-09-25_10h51.03.921,vbt_B2_day1,2022.2.4,MacIntel,59.87665409,,,,,,,,,,,,,,,,,,,,,,,,,,,,,,,,,,,,,,,,,,,-0.12390625,0.089921875,1,0,1,genand ,genand ,0,29,29,29,1,genond,images/br_genond.png,images/cb_genond.png
,,,,,,00035,2023-09-25_10h51.03.921,vbt_B2_day1,2022.2.4,MacIntel,59.87665409,,,,,,,,,,,,,,,,,,,,,,,,,,,,,,,,,,,,,,,,,,,-0.12390625,0.089516602,1,0,1,bleek,bleek,0,30,30,6,1,bleek,images/br_bleek.png,images/cb_bleek.png
,,,,,,00035,2023-09-25_10h51.03.921,vbt_B2_day1,2022.2.4,MacIntel,59.87665409,,,,,,,,,,,,,,,,,,,,,,,,,,,,,,,,,,,,,,,,,,,-0.12390625,0.089516602,1,0,1,kanjer,kanjer,0,31,31,8,1,kanjer,images/br_kanjer.png,images/cb_kanjer.png
,,,,,,00035,2023-09-25_10h51.03.921,vbt_B2_day1,2022.2.4,MacIntel,59.87665409,,,,,,,,,,,,,,,,,,,,,,,,,,,,,,,,,,,,,,,,,,,-0.123916016,0.089516602,1,0,1,opplaan,opplaan,0,32,32,32,1,opplaan,images/br_opplaan.png,images/cb_opplaan.png
,,,,,,00035,2023-09-25_10h51.03.921,vbt_B2_day1,2022.2.4,MacIntel,59.87665409,,,,,,,,,,,,,,,,,,,,,,,,,,,,,,,,,,,,,,,,,,,-0.147939453,0.134208984,1,0,1,reedhe,reedhe,0,33,33,30,1,reedje,images/br_reedje.png,images/cb_reedje.png
,,,,,,00035,2023-09-25_10h51.03.921,vbt_B2_day1,2022.2.4,MacIntel,59.87665409,,,,,,,,,,,,,,,,,,,,,,,,,,,,,,,,,,,,,,,,,,,-0.23140625,0.074873047,1,0,1,schuilen,schuilen,0,34,34,19,1,schuilen,images/br_schuilen.png,images/cb_schuilen.png
,,,,,,00035,2023-09-25_10h51.03.921,vbt_B2_day1,2022.2.4,MacIntel,59.87665409,,,,,,,,,,,,,,,,,,,,,,,,,,,,,,,,,,,,,,,,,,,-0.370009766,0.024248047,1,0,1,hemel,hemel,0,35,35,45,1,hemel,images/br_hemel.png,images/cb_hemel.png
,,,,,,00035,2023-09-25_10h51.03.921,vbt_B2_day1,2022.2.4,MacIntel,59.87665409,,,,,,,,,,,,,,,,,,,,,,,,,,,,,,,,,,,,,,,,,,,-0.476762695,0.096567383,1,0,1,loods,loods,0,36,36,47,1,loods,images/br_loods.png,images/cb_loods.png
,,,,,,00035,2023-09-25_10h51.03.921,vbt_B2_day1,2022.2.4,MacIntel,59.87665409,,,,,,,,,,,,,,,,,,,,,,,,,,,,,,,,,,,,,,,,,,,-0.33847168,0.170400391,1,0,1,tekenen,tekenen,0,37,37,55,1,tekenen,images/br_tekenen.png,images/cb_tekenen.png
,,,,,,00035,2023-09-25_10h51.03.921,vbt_B2_day1,2022.2.4,MacIntel,59.87665409,,,,,,,,,,,,,,,,,,,,,,,,,,,,,,,,,,,,,,,,,,,-0.322373047,0.098798828,1,0,1,opvatten,opvatten,0,38,38,59,1,opvatten,images/br_opvatten.png,images/cb_opvatten.png
,,,,,,00035,2023-09-25_10h51.03.921,vbt_B2_day1,2022.2.4,MacIntel,59.87665409,,,,,,,,,,,,,,,,,,,,,,,,,,,,,,,,,,,,,,,,,,,-0.506821289,0.183085937,1,0,1,bebrip,bebrip,0,39,39,28,1,bebrip,images/br_bebrip.png,images/cb_bebrip.png
,,,,,,00035,2023-09-25_10h51.03.921,vbt_B2_day1,2022.2.4,MacIntel,59.87665409,,,,,,,,,,,,,,,,,,,,,,,,,,,,,,,,,,,,,,,,,,,-0.307490234,0.120673828,1,0,1,rezer,rezer,0,40,40,24,1,rezer,images/br_rezer.png,images/cb_rezer.png
,,,,,,00035,2023-09-25_10h51.03.921,vbt_B2_day1,2022.2.4,MacIntel,59.87665409,,,,,,,,,,,,,,,,,,,,,,,,,,,,,,,,,,,,,,,,,,,-0.464174805,0.148896484,1,0,1,attentie,attentie,0,41,41,17,1,attentie,images/br_attentie.png,images/cb_attentie.png
,,,,,,00035,2023-09-25_10h51.03.921,vbt_B2_day1,2022.2.4,MacIntel,59.87665409,,,,,,,,,,,,,,,,,,,,,,,,,,,,,,,,,,,,,,,,,,,-0.502753906,0.062895508,1,0,1,tars,tars,0,42,42,20,1,tars,images/br_tars.png,images/cb_tars.png
,,,,,,00035,2023-09-25_10h51.03.921,vbt_B2_day1,2022.2.4,MacIntel,59.87665409,,,,,,,,,,,,,,,,,,,,,,,,,,,,,,,,,,,,,,,,,,,-0.677641602,0.105356445,1,0,0,haag,haag,0,43,43,41,1,hoog,images/br_hoog.png,images/cb_hoog.png
,,,,,,00035,2023-09-25_10h51.03.921,vbt_B2_day1,2022.2.4,MacIntel,59.87665409,,,,,,,,,,,,,,,,,,,,,,,,,,,,,,,,,,,,,,,,,,,-0.068129883,-0.053334961,1,0,0,maken,maken,0,44,44,5,1,maken,images/br_maken.png,images/cb_maken.png
,,,,,,00035,2023-09-25_10h51.03.921,vbt_B2_day1,2022.2.4,MacIntel,59.87665409,,,,,,,,,,,,,,,,,,,,,,,,,,,,,,,,,,,,,,,,,,,-0.069013672,-0.041074219,1,0,0,brejk,brejk,0,45,45,25,1,brijk,images/br_brijk.png,images/cb_brijk.png
,,,,,,00035,2023-09-25_10h51.03.921,vbt_B2_day1,2022.2.4,MacIntel,59.87665409,,,,,,,,,,,,,,,,,,,,,,,,,,,,,,,,,,,,,,,,,,,-0.069013672,-0.041074219,1,0,0,fictie,fictie,0,46,46,48,1,fictie,images/br_fictie.png,images/cb_fictie.png
,,,,,,00035,2023-09-25_10h51.03.921,vbt_B2_day1,2022.2.4,MacIntel,59.87665409,,,,,,,,,,,,,,,,,,,,,,,,,,,,,,,,,,,,,,,,,,,-0.069013672,-0.041074219,1,0,0,klimmen,klimmen,0,47,47,12,1,klimmen,images/br_klimmen.png,images/cb_klimmen.png
,,,,,,00035,2023-09-25_10h51.03.921,vbt_B2_day1,2022.2.4,MacIntel,59.87665409,,,,,,,,,,,,,,,,,,,,,,,,,,,,,,,,,,,,,,,,,,,-0.139248047,-0.01878418,1,0,0,vijftig,vijftig,0,48,48,54,1,vijftig,images/br_vijftig.png,images/cb_vijftig.png
,,,,,,00035,2023-09-25_10h51.03.921,vbt_B2_day1,2022.2.4,MacIntel,59.87665409,,,,,,,,,,,,,,,,,,,,,,,,,,,,,,,,,,,,,,,,,,,-0.264272461,-0.061650391,1,0,0,wijze,wijze,0,49,49,44,1,wijze,images/br_wijze.png,images/cb_wijze.png
,,,,,,00035,2023-09-25_10h51.03.921,vbt_B2_day1,2022.2.4,MacIntel,59.87665409,,,,,,,,,,,,,,,,,,,,,,,,,,,,,,,,,,,,,,,,,,,-0.264272461,-0.061650391,1,0,0,lava,lava,0,50,50,43,1,lava,images/br_lava.png,images/cb_lava.png
,,,,,,00035,2023-09-25_10h51.03.921,vbt_B2_day1,2022.2.4,MacIntel,59.87665409,,,,,,,,,,,,,,,,,,,,,,,,,,,,,,,,,,,,,,,,,,,-0.436669922,-0.041269531,1,0,0,valop,valop,0,51,51,26,1,valop,images/br_valop.png,images/cb_valop.png
,,,,,,00035,2023-09-25_10h51.03.921,vbt_B2_day1,2022.2.4,MacIntel,59.87665409,,,,,,,,,,,,,,,,,,,,,,,,,,,,,,,,,,,,,,,,,,,-0.485283203,0.013579102,1,0,0,zaal,zaal,0,52,52,1,1,zaal,images/br_zaal.png,images/cb_zaal.png
,,,,,,00035,2023-09-25_10h51.03.921,vbt_B2_day1,2022.2.4,MacIntel,59.87665409,,,,,,,,,,,,,,,,,,,,,,,,,,,,,,,,,,,,,,,,,,,-0.599248047,0.076640625,1,0,0,waarvan ,waarvan ,0,53,53,14,1,waarvan,images/br_waarvan.png,images/cb_waarvan.png
,,,,,,00035,2023-09-25_10h51.03.921,vbt_B2_day1,2022.2.4,MacIntel,59.87665409,,,,,,,,,,,,,,,,,,,,,,,,,,,,,,,,,,,,,,,,,,,-0.632290039,0.126035156,1,0,0,liefde,liefde,0,54,54,51,1,liefde,images/br_liefde.png,images/cb_liefde.png
,,,,,,00035,2023-09-25_10h51.03.921,vbt_B2_day1,2022.2.4,MacIntel,59.87665409,,,,,,,,,,,,,,,,,,,,,,,,,,,,,,,,,,,,,,,,,,,-0.712792969,0.162783203,1,0,0,meneng ,meneng ,0,55,55,11,1,mening,images/br_mening.png,images/cb_mening.png
,,,,,,00035,2023-09-25_10h51.03.921,vbt_B2_day1,2022.2.4,MacIntel,59.87665409,,,,,,,,,,,,,,,,,,,,,,,,,,,,,,,,,,,,,,,,,,,-0.470351562,0.230688477,1,0,0,zueflaf,zueflaf,0,56,56,52,1,zuiplap,images/br_zuiplap.png,images/cb_zuiplap.png
,,,,,,00035,2023-09-25_10h51.03.921,vbt_B2_day1,2022.2.4,MacIntel,59.87665409,,,,,,,,,,,,,,,,,,,,,,,,,,,,,,,,,,,,,,,,,,,-0.563696289,0.368198242,1,0,0,dief,dief,0,57,57,40,1,dief,images/br_dief.png,images/cb_dief.png
,,,,,,00035,2023-09-25_10h51.03.921,vbt_B2_day1,2022.2.4,MacIntel,59.87665409,,,,,,,,,,,,,,,,,,,,,,,,,,,,,,,,,,,,,,,,,,,-0.087045898,-0.126235352,1,0,0,toezicht,toezicht,0,58,58,56,1,toezicht,images/br_toezicht.png,images/cb_toezicht.png
,,,,,,00035,2023-09-25_10h51.03.921,vbt_B2_day1,2022.2.4,MacIntel,59.87665409,,,,,,,,,,,,,,,,,,,,,,,,,,,,,,,,,,,,,,,,,,,-0.142792969,-0.015117188,1,0,0,meenemen,meenemen,0,59,59,57,1,meenemen,images/br_meenemen.png,images/cb_meenemen.png
,,,,,,00035,2023-09-25_10h51.03.921,vbt_B2_day1,2022.2.4,MacIntel,59.87665409,,,,,,,,,,,,,,,,,,,,,,,,,,,,,,,,,,,,,,,,,,,,,,,,,,,,,,,,,
