welcome_mouse.x,welcome_mouse.y,welcome_mouse.leftButton,welcome_mouse.midButton,welcome_mouse.rightButton,welcome_mouse.time,"ID",date,expName,psychopyVersion,OS,frameRate,mouse_2.x,mouse_2.y,mouse_2.leftButton,mouse_2.midButton,mouse_2.rightButton,mouse_2.time,mouse_3.x,mouse_3.y,mouse_3.leftButton,mouse_3.midButton,mouse_3.rightButton,mouse_3.time,train_mouse.x,train_mouse.y,train_mouse.leftButton,train_mouse.midButton,train_mouse.rightButton,train_mouse.time,braille_mouse.x,braille_mouse.y,braille_mouse.leftButton,braille_mouse.midButton,braille_mouse.rightButton,braille_mouse.time,trials.thisRepN,trials.thisTrialN,trials.thisN,trials.thisIndex,trials.ran,nlLet,brLet,cbLet,mouse.x,mouse.y,mouse.leftButton,mouse.midButton,mouse.rightButton,testInstr_mouse.x,testInstr_mouse.y,testInstr_mouse.leftButton,testInstr_mouse.midButton,testInstr_mouse.rightButton,test_mouse.x,test_mouse.y,test_mouse.leftButton,test_mouse.midButton,test_mouse.rightButton,test_response.text,testResp,test_loop.thisRepN,test_loop.thisTrialN,test_loop.thisN,test_loop.thisIndex,test_loop.ran,nlWrd,brWrd,cbWrd
-0.115740741,-0.158333319,1,0,0,23.409,00068,2023-10-16_08h33.21.273,vbt_B2_day1,2022.2.4,Win32,60.67224851,,,,,,,,,,,,,,,,,,,,,,,,,,,,,,,,,,,,,,,,,,,,,,,,,,,,,,,,,
,,,,,,00068,2023-10-16_08h33.21.273,vbt_B2_day1,2022.2.4,Win32,60.67224851,-0.115740741,-0.158333319,1,0,0,9.477,,,,,,,,,,,,,,,,,,,,,,,,,,,,,,,,,,,,,,,,,,,,,,,,,,,
,,,,,,00068,2023-10-16_08h33.21.273,vbt_B2_day1,2022.2.4,Win32,60.67224851,,,,,,,-0.115740741,-0.158333319,1,0,0,12.4986,,,,,,,,,,,,,,,,,,,,,,,,,,,,,,,,,,,,,,,,,,,,,
,,,,,,00068,2023-10-16_08h33.21.273,vbt_B2_day1,2022.2.4,Win32,60.67224851,,,,,,,,,,,,,-0.115740741,-0.158333319,0,0,1,12.0876,,,,,,,,,,,,,,,,,,,,,,,,,,,,,,,,,,,,,,,
,,,,,,00068,2023-10-16_08h33.21.273,vbt_B2_day1,2022.2.4,Win32,60.67224851,,,,,,,,,,,,,,,,,,,-0.410185178,-0.042592614,0,0,1,8.847,0,0,0,3,1,d,images/br_d.png,images/cb_d.png,,,,,,,,,,,,,,,,,,,,,,,,,
,,,,,,00068,2023-10-16_08h33.21.273,vbt_B2_day1,2022.2.4,Win32,60.67224851,,,,,,,,,,,,,,,,,,,-0.474074081,0.096296275,0,0,1,7.0329,0,1,1,18,1,s,images/br_s.png,images/cb_s.png,,,,,,,,,,,,,,,,,,,,,,,,,
,,,,,,00068,2023-10-16_08h33.21.273,vbt_B2_day1,2022.2.4,Win32,60.67224851,,,,,,,,,,,,,,,,,,,-0.587962963,0.01944443,0,0,1,11.2257,0,2,2,16,1,q,images/br_q.png,images/cb_q.png,,,,,,,,,,,,,,,,,,,,,,,,,
,,,,,,00068,2023-10-16_08h33.21.273,vbt_B2_day1,2022.2.4,Win32,60.67224851,,,,,,,,,,,,,,,,,,,-0.693518515,0.107407393,0,0,1,3.1175,0,3,3,6,1,g,images/br_g.png,images/cb_g.png,,,,,,,,,,,,,,,,,,,,,,,,,
,,,,,,00068,2023-10-16_08h33.21.273,vbt_B2_day1,2022.2.4,Win32,60.67224851,,,,,,,,,,,,,,,,,,,-0.75555555,0.274999989,0,0,1,2.8923,0,4,4,19,1,t,images/br_t.png,images/cb_t.png,,,,,,,,,,,,,,,,,,,,,,,,,
,,,,,,00068,2023-10-16_08h33.21.273,vbt_B2_day1,2022.2.4,Win32,60.67224851,,,,,,,,,,,,,,,,,,,-0.801851847,0.375925921,0,0,1,1.7114,0,5,5,0,1,a,images/br_a.png,images/cb_a.png,,,,,,,,,,,,,,,,,,,,,,,,,
,,,,,,00068,2023-10-16_08h33.21.273,vbt_B2_day1,2022.2.4,Win32,60.67224851,,,,,,,,,,,,,,,,,,,-0.603703693,0.424074076,0,0,1,2.2001,0,6,6,24,1,y,images/br_y.png,images/cb_y.png,,,,,,,,,,,,,,,,,,,,,,,,,
,,,,,,00068,2023-10-16_08h33.21.273,vbt_B2_day1,2022.2.4,Win32,60.67224851,,,,,,,,,,,,,,,,,,,-0.669444437,0.453703704,0,0,1,4.884,0,7,7,7,1,h,images/br_h.png,images/cb_h.png,,,,,,,,,,,,,,,,,,,,,,,,,
,,,,,,00068,2023-10-16_08h33.21.273,vbt_B2_day1,2022.2.4,Win32,60.67224851,,,,,,,,,,,,,,,,,,,-0.720370363,0.416666667,0,0,1,2.9283,0,8,8,20,1,u,images/br_u.png,images/cb_u.png,,,,,,,,,,,,,,,,,,,,,,,,,
,,,,,,00068,2023-10-16_08h33.21.273,vbt_B2_day1,2022.2.4,Win32,60.67224851,,,,,,,,,,,,,,,,,,,-0.862037036,0.43611111,0,0,1,4.4596,0,9,9,4,1,e,images/br_e.png,images/cb_e.png,,,,,,,,,,,,,,,,,,,,,,,,,
,,,,,,00068,2023-10-16_08h33.21.273,vbt_B2_day1,2022.2.4,Win32,60.67224851,,,,,,,,,,,,,,,,,,,-0.678703697,-0.002777771,0,0,1,0.3099,0,10,10,14,1,o,images/br_o.png,images/cb_o.png,,,,,,,,,,,,,,,,,,,,,,,,,
,,,,,,00068,2023-10-16_08h33.21.273,vbt_B2_day1,2022.2.4,Win32,60.67224851,,,,,,,,,,,,,,,,,,,-0.613888882,0.062962956,0,0,1,0.9356,0,11,11,8,1,i,images/br_i.png,images/cb_i.png,,,,,,,,,,,,,,,,,,,,,,,,,
,,,,,,00068,2023-10-16_08h33.21.273,vbt_B2_day1,2022.2.4,Win32,60.67224851,,,,,,,,,,,,,,,,,,,-0.575925933,0.162962949,0,0,1,2.2251,0,12,12,15,1,p,images/br_p.png,images/cb_p.png,,,,,,,,,,,,,,,,,,,,,,,,,
,,,,,,00068,2023-10-16_08h33.21.273,vbt_B2_day1,2022.2.4,Win32,60.67224851,,,,,,,,,,,,,,,,,,,-0.557407414,0.251851841,0,0,1,0.0669,0,13,13,21,1,v,images/br_v.png,images/cb_v.png,,,,,,,,,,,,,,,,,,,,,,,,,
,,,,,,00068,2023-10-16_08h33.21.273,vbt_B2_day1,2022.2.4,Win32,60.67224851,,,,,,,,,,,,,,,,,,,-0.737037041,0.13703703,0,0,1,3.9907,0,14,14,9,1,j,images/br_j.png,images/cb_j.png,,,,,,,,,,,,,,,,,,,,,,,,,
,,,,,,00068,2023-10-16_08h33.21.273,vbt_B2_day1,2022.2.4,Win32,60.67224851,,,,,,,,,,,,,,,,,,,-0.744444441,0.142592571,0,0,1,10.4538,0,15,15,1,1,b,images/br_b.png,images/cb_b.png,,,,,,,,,,,,,,,,,,,,,,,,,
,,,,,,00068,2023-10-16_08h33.21.273,vbt_B2_day1,2022.2.4,Win32,60.67224851,,,,,,,,,,,,,,,,,,,-0.718518522,0.337037034,0,0,1,3.2766,0,16,16,17,1,r,images/br_r.png,images/cb_r.png,,,,,,,,,,,,,,,,,,,,,,,,,
,,,,,,00068,2023-10-16_08h33.21.273,vbt_B2_day1,2022.2.4,Win32,60.67224851,,,,,,,,,,,,,,,,,,,-0.642592589,-0.097222222,0,0,1,2.5015,0,17,17,5,1,f,images/br_f.png,images/cb_f.png,,,,,,,,,,,,,,,,,,,,,,,,,
,,,,,,00068,2023-10-16_08h33.21.273,vbt_B2_day1,2022.2.4,Win32,60.67224851,,,,,,,,,,,,,,,,,,,-0.652777778,0.035185178,0,0,1,1.3768,0,18,18,22,1,w,images/br_w.png,images/cb_w.png,,,,,,,,,,,,,,,,,,,,,,,,,
,,,,,,00068,2023-10-16_08h33.21.273,vbt_B2_day1,2022.2.4,Win32,60.67224851,,,,,,,,,,,,,,,,,,,-0.681481485,0.185185185,0,0,1,14.9342,0,19,19,11,1,l,images/br_l.png,images/cb_l.png,,,,,,,,,,,,,,,,,,,,,,,,,
,,,,,,00068,2023-10-16_08h33.21.273,vbt_B2_day1,2022.2.4,Win32,60.67224851,,,,,,,,,,,,,,,,,,,-0.739814811,-0.095370399,0,0,1,5.8323,0,20,20,12,1,m,images/br_m.png,images/cb_m.png,,,,,,,,,,,,,,,,,,,,,,,,,
,,,,,,00068,2023-10-16_08h33.21.273,vbt_B2_day1,2022.2.4,Win32,60.67224851,,,,,,,,,,,,,,,,,,,-0.607407411,0.276851848,0,0,1,1.1179,0,21,21,25,1,z,images/br_z.png,images/cb_z.png,,,,,,,,,,,,,,,,,,,,,,,,,
,,,,,,00068,2023-10-16_08h33.21.273,vbt_B2_day1,2022.2.4,Win32,60.67224851,,,,,,,,,,,,,,,,,,,-0.61666667,0.102777764,0,0,1,1.6017,0,22,22,23,1,x,images/br_x.png,images/cb_x.png,,,,,,,,,,,,,,,,,,,,,,,,,
,,,,,,00068,2023-10-16_08h33.21.273,vbt_B2_day1,2022.2.4,Win32,60.67224851,,,,,,,,,,,,,,,,,,,-0.578703704,0.285185178,0,0,1,0.9842,0,23,23,13,1,n,images/br_n.png,images/cb_n.png,,,,,,,,,,,,,,,,,,,,,,,,,
,,,,,,00068,2023-10-16_08h33.21.273,vbt_B2_day1,2022.2.4,Win32,60.67224851,,,,,,,,,,,,,,,,,,,-0.438888868,-0.10555557,0,0,1,5.8772,0,24,24,10,1,k,images/br_k.png,images/cb_k.png,,,,,,,,,,,,,,,,,,,,,,,,,
,,,,,,00068,2023-10-16_08h33.21.273,vbt_B2_day1,2022.2.4,Win32,60.67224851,,,,,,,,,,,,,,,,,,,-0.506481489,-0.337037051,0,0,1,3.1842,0,25,25,2,1,c,images/br_c.png,images/cb_c.png,,,,,,,,,,,,,,,,,,,,,,,,,
,,,,,,00068,2023-10-16_08h33.21.273,vbt_B2_day1,2022.2.4,Win32,60.67224851,,,,,,,,,,,,,,,,,,,-0.396296289,-0.063888903,0,0,1,1.0838,1,0,26,21,1,v,images/br_v.png,images/cb_v.png,,,,,,,,,,,,,,,,,,,,,,,,,
,,,,,,00068,2023-10-16_08h33.21.273,vbt_B2_day1,2022.2.4,Win32,60.67224851,,,,,,,,,,,,,,,,,,,-0.420370349,0.12037037,0,0,1,1.8423,1,1,27,22,1,w,images/br_w.png,images/cb_w.png,,,,,,,,,,,,,,,,,,,,,,,,,
,,,,,,00068,2023-10-16_08h33.21.273,vbt_B2_day1,2022.2.4,Win32,60.67224851,,,,,,,,,,,,,,,,,,,-0.426851838,0.187037044,0,0,1,2.0525,1,2,28,3,1,d,images/br_d.png,images/cb_d.png,,,,,,,,,,,,,,,,,,,,,,,,,
,,,,,,00068,2023-10-16_08h33.21.273,vbt_B2_day1,2022.2.4,Win32,60.67224851,,,,,,,,,,,,,,,,,,,-0.471296275,0.328703704,0,0,1,1.9694,1,3,29,11,1,l,images/br_l.png,images/cb_l.png,,,,,,,,,,,,,,,,,,,,,,,,,
,,,,,,00068,2023-10-16_08h33.21.273,vbt_B2_day1,2022.2.4,Win32,60.67224851,,,,,,,,,,,,,,,,,,,-0.599999993,0.213888892,0,0,1,0.2684,1,4,30,23,1,x,images/br_x.png,images/cb_x.png,,,,,,,,,,,,,,,,,,,,,,,,,
,,,,,,00068,2023-10-16_08h33.21.273,vbt_B2_day1,2022.2.4,Win32,60.67224851,,,,,,,,,,,,,,,,,,,-0.582407386,0.063888868,0,0,1,1.2542,1,5,31,14,1,o,images/br_o.png,images/cb_o.png,,,,,,,,,,,,,,,,,,,,,,,,,
,,,,,,00068,2023-10-16_08h33.21.273,vbt_B2_day1,2022.2.4,Win32,60.67224851,,,,,,,,,,,,,,,,,,,-0.586111104,0.184259238,0,0,1,0.4183,1,6,32,15,1,p,images/br_p.png,images/cb_p.png,,,,,,,,,,,,,,,,,,,,,,,,,
,,,,,,00068,2023-10-16_08h33.21.273,vbt_B2_day1,2022.2.4,Win32,60.67224851,,,,,,,,,,,,,,,,,,,-0.576851845,0.289814808,0,0,1,4.2909,1,7,33,7,1,h,images/br_h.png,images/cb_h.png,,,,,,,,,,,,,,,,,,,,,,,,,
,,,,,,00068,2023-10-16_08h33.21.273,vbt_B2_day1,2022.2.4,Win32,60.67224851,,,,,,,,,,,,,,,,,,,-0.740740741,0.261111101,0,0,1,2.018,1,8,34,5,1,f,images/br_f.png,images/cb_f.png,,,,,,,,,,,,,,,,,,,,,,,,,
,,,,,,00068,2023-10-16_08h33.21.273,vbt_B2_day1,2022.2.4,Win32,60.67224851,,,,,,,,,,,,,,,,,,,-0.686111115,0.097222222,0,0,1,2.2427,1,9,35,18,1,s,images/br_s.png,images/cb_s.png,,,,,,,,,,,,,,,,,,,,,,,,,
,,,,,,00068,2023-10-16_08h33.21.273,vbt_B2_day1,2022.2.4,Win32,60.67224851,,,,,,,,,,,,,,,,,,,-0.602777781,-0.047222243,0,0,1,1.684,1,10,36,13,1,n,images/br_n.png,images/cb_n.png,,,,,,,,,,,,,,,,,,,,,,,,,
,,,,,,00068,2023-10-16_08h33.21.273,vbt_B2_day1,2022.2.4,Win32,60.67224851,,,,,,,,,,,,,,,,,,,-0.568518497,0.12037037,0,0,1,1.1164,1,11,37,20,1,u,images/br_u.png,images/cb_u.png,,,,,,,,,,,,,,,,,,,,,,,,,
,,,,,,00068,2023-10-16_08h33.21.273,vbt_B2_day1,2022.2.4,Win32,60.67224851,,,,,,,,,,,,,,,,,,,-0.453703704,-0.170370384,0,0,1,1.7103,1,12,38,10,1,k,images/br_k.png,images/cb_k.png,,,,,,,,,,,,,,,,,,,,,,,,,
,,,,,,00068,2023-10-16_08h33.21.273,vbt_B2_day1,2022.2.4,Win32,60.67224851,,,,,,,,,,,,,,,,,,,-0.48796297,0.070370356,0,0,1,0.0384,1,13,39,6,1,g,images/br_g.png,images/cb_g.png,,,,,,,,,,,,,,,,,,,,,,,,,
,,,,,,00068,2023-10-16_08h33.21.273,vbt_B2_day1,2022.2.4,Win32,60.67224851,,,,,,,,,,,,,,,,,,,-0.514814801,0.262962959,0,0,1,2.6341,1,14,40,24,1,y,images/br_y.png,images/cb_y.png,,,,,,,,,,,,,,,,,,,,,,,,,
,,,,,,00068,2023-10-16_08h33.21.273,vbt_B2_day1,2022.2.4,Win32,60.67224851,,,,,,,,,,,,,,,,,,,-0.451851845,-0.020370377,0,0,1,1.9491,1,15,41,1,1,b,images/br_b.png,images/cb_b.png,,,,,,,,,,,,,,,,,,,,,,,,,
,,,,,,00068,2023-10-16_08h33.21.273,vbt_B2_day1,2022.2.4,Win32,60.67224851,,,,,,,,,,,,,,,,,,,-0.443518497,0.131481489,0,0,1,1.6001,1,16,42,17,1,r,images/br_r.png,images/cb_r.png,,,,,,,,,,,,,,,,,,,,,,,,,
,,,,,,00068,2023-10-16_08h33.21.273,vbt_B2_day1,2022.2.4,Win32,60.67224851,,,,,,,,,,,,,,,,,,,-0.39444443,-0.135185171,0,0,1,5.2251,1,17,43,19,1,t,images/br_t.png,images/cb_t.png,,,,,,,,,,,,,,,,,,,,,,,,,
,,,,,,00068,2023-10-16_08h33.21.273,vbt_B2_day1,2022.2.4,Win32,60.67224851,,,,,,,,,,,,,,,,,,,-0.345370363,-0.018518519,0,0,1,0.3377,1,18,44,8,1,i,images/br_i.png,images/cb_i.png,,,,,,,,,,,,,,,,,,,,,,,,,
,,,,,,00068,2023-10-16_08h33.21.273,vbt_B2_day1,2022.2.4,Win32,60.67224851,,,,,,,,,,,,,,,,,,,-0.350925905,0.072222215,0,0,1,0.9195,1,19,45,9,1,j,images/br_j.png,images/cb_j.png,,,,,,,,,,,,,,,,,,,,,,,,,
,,,,,,00068,2023-10-16_08h33.21.273,vbt_B2_day1,2022.2.4,Win32,60.67224851,,,,,,,,,,,,,,,,,,,-0.325925933,0.14907406,0,0,1,1.0908,1,20,46,16,1,q,images/br_q.png,images/cb_q.png,,,,,,,,,,,,,,,,,,,,,,,,,
,,,,,,00068,2023-10-16_08h33.21.273,vbt_B2_day1,2022.2.4,Win32,60.67224851,,,,,,,,,,,,,,,,,,,-0.299074067,-0.171296296,0,0,1,1.9689,1,21,47,2,1,c,images/br_c.png,images/cb_c.png,,,,,,,,,,,,,,,,,,,,,,,,,
,,,,,,00068,2023-10-16_08h33.21.273,vbt_B2_day1,2022.2.4,Win32,60.67224851,,,,,,,,,,,,,,,,,,,-0.346296275,0.037037037,0,0,1,1.2666,1,22,48,25,1,z,images/br_z.png,images/cb_z.png,,,,,,,,,,,,,,,,,,,,,,,,,
,,,,,,00068,2023-10-16_08h33.21.273,vbt_B2_day1,2022.2.4,Win32,60.67224851,,,,,,,,,,,,,,,,,,,-0.368518511,0.170370349,0,0,1,0.267,1,23,49,4,1,e,images/br_e.png,images/cb_e.png,,,,,,,,,,,,,,,,,,,,,,,,,
,,,,,,00068,2023-10-16_08h33.21.273,vbt_B2_day1,2022.2.4,Win32,60.67224851,,,,,,,,,,,,,,,,,,,-0.346296275,-0.021296289,0,0,1,3.2275,1,24,50,0,1,a,images/br_a.png,images/cb_a.png,,,,,,,,,,,,,,,,,,,,,,,,,
,,,,,,00068,2023-10-16_08h33.21.273,vbt_B2_day1,2022.2.4,Win32,60.67224851,,,,,,,,,,,,,,,,,,,-0.460185192,-0.152777778,0,0,1,10.0082,1,25,51,12,1,m,images/br_m.png,images/cb_m.png,,,,,,,,,,,,,,,,,,,,,,,,,
,,,,,,00068,2023-10-16_08h33.21.273,vbt_B2_day1,2022.2.4,Win32,60.67224851,,,,,,,,,,,,,,,,,,,-0.474999993,0.128703683,0,0,1,9.8739,2,0,52,8,1,i,images/br_i.png,images/cb_i.png,,,,,,,,,,,,,,,,,,,,,,,,,
,,,,,,00068,2023-10-16_08h33.21.273,vbt_B2_day1,2022.2.4,Win32,60.67224851,,,,,,,,,,,,,,,,,,,-0.481481481,0.204629633,0,0,1,0.4589,2,1,53,19,1,t,images/br_t.png,images/cb_t.png,,,,,,,,,,,,,,,,,,,,,,,,,
,,,,,,00068,2023-10-16_08h33.21.273,vbt_B2_day1,2022.2.4,Win32,60.67224851,,,,,,,,,,,,,,,,,,,-0.581481474,-0.021296289,0,0,1,0.87,2,2,54,5,1,f,images/br_f.png,images/cb_f.png,,,,,,,,,,,,,,,,,,,,,,,,,
,,,,,,00068,2023-10-16_08h33.21.273,vbt_B2_day1,2022.2.4,Win32,60.67224851,,,,,,,,,,,,,,,,,,,-0.529629637,0.099999993,0,0,1,3.3009,2,3,55,20,1,u,images/br_u.png,images/cb_u.png,,,,,,,,,,,,,,,,,,,,,,,,,
,,,,,,00068,2023-10-16_08h33.21.273,vbt_B2_day1,2022.2.4,Win32,60.67224851,,,,,,,,,,,,,,,,,,,-0.48796297,0.201851845,0,0,1,3.2007,2,4,56,14,1,o,images/br_o.png,images/cb_o.png,,,,,,,,,,,,,,,,,,,,,,,,,
,,,,,,00068,2023-10-16_08h33.21.273,vbt_B2_day1,2022.2.4,Win32,60.67224851,,,,,,,,,,,,,,,,,,,-0.357407393,-0.214814857,0,0,1,0.6417,2,5,57,22,1,w,images/br_w.png,images/cb_w.png,,,,,,,,,,,,,,,,,,,,,,,,,
,,,,,,00068,2023-10-16_08h33.21.273,vbt_B2_day1,2022.2.4,Win32,60.67224851,,,,,,,,,,,,,,,,,,,-0.352777764,-0.079629651,0,0,1,2.008,2,6,58,21,1,v,images/br_v.png,images/cb_v.png,,,,,,,,,,,,,,,,,,,,,,,,,
,,,,,,00068,2023-10-16_08h33.21.273,vbt_B2_day1,2022.2.4,Win32,60.67224851,,,,,,,,,,,,,,,,,,,-0.344444452,-0.005555577,0,0,1,0.3769,2,7,59,23,1,x,images/br_x.png,images/cb_x.png,,,,,,,,,,,,,,,,,,,,,,,,,
,,,,,,00068,2023-10-16_08h33.21.273,vbt_B2_day1,2022.2.4,Win32,60.67224851,,,,,,,,,,,,,,,,,,,-0.340740734,0.089814822,0,0,1,1.8759,2,8,60,4,1,e,images/br_e.png,images/cb_e.png,,,,,,,,,,,,,,,,,,,,,,,,,
,,,,,,00068,2023-10-16_08h33.21.273,vbt_B2_day1,2022.2.4,Win32,60.67224851,,,,,,,,,,,,,,,,,,,-0.366666653,0.175925926,0,0,1,0.9343,2,9,61,10,1,k,images/br_k.png,images/cb_k.png,,,,,,,,,,,,,,,,,,,,,,,,,
,,,,,,00068,2023-10-16_08h33.21.273,vbt_B2_day1,2022.2.4,Win32,60.67224851,,,,,,,,,,,,,,,,,,,-0.477777764,0.188888868,0,0,1,1.3001,2,10,62,13,1,n,images/br_n.png,images/cb_n.png,,,,,,,,,,,,,,,,,,,,,,,,,
,,,,,,00068,2023-10-16_08h33.21.273,vbt_B2_day1,2022.2.4,Win32,60.67224851,,,,,,,,,,,,,,,,,,,-0.563888868,0.194444444,0,0,1,1.0845,2,11,63,24,1,y,images/br_y.png,images/cb_y.png,,,,,,,,,,,,,,,,,,,,,,,,,
,,,,,,00068,2023-10-16_08h33.21.273,vbt_B2_day1,2022.2.4,Win32,60.67224851,,,,,,,,,,,,,,,,,,,-0.775925928,-0.127777806,0,0,1,18.3502,2,12,64,18,1,s,images/br_s.png,images/cb_s.png,,,,,,,,,,,,,,,,,,,,,,,,,
,,,,,,00068,2023-10-16_08h33.21.273,vbt_B2_day1,2022.2.4,Win32,60.67224851,,,,,,,,,,,,,,,,,,,-0.741666661,-0.033333355,0,0,1,0.357,2,13,65,9,1,j,images/br_j.png,images/cb_j.png,,,,,,,,,,,,,,,,,,,,,,,,,
,,,,,,00068,2023-10-16_08h33.21.273,vbt_B2_day1,2022.2.4,Win32,60.67224851,,,,,,,,,,,,,,,,,,,-0.700000004,0.080555563,0,0,1,0.7104,2,14,66,25,1,z,images/br_z.png,images/cb_z.png,,,,,,,,,,,,,,,,,,,,,,,,,
,,,,,,00068,2023-10-16_08h33.21.273,vbt_B2_day1,2022.2.4,Win32,60.67224851,,,,,,,,,,,,,,,,,,,-0.674999996,0.210185175,0,0,1,1.5398,2,15,67,0,1,a,images/br_a.png,images/cb_a.png,,,,,,,,,,,,,,,,,,,,,,,,,
,,,,,,00068,2023-10-16_08h33.21.273,vbt_B2_day1,2022.2.4,Win32,60.67224851,,,,,,,,,,,,,,,,,,,-0.6287037,0.399999998,0,0,1,2.5744,2,16,68,11,1,l,images/br_l.png,images/cb_l.png,,,,,,,,,,,,,,,,,,,,,,,,,
,,,,,,00068,2023-10-16_08h33.21.273,vbt_B2_day1,2022.2.4,Win32,60.67224851,,,,,,,,,,,,,,,,,,,-0.537037037,0.14444443,0,0,1,0.2088,2,17,69,16,1,q,images/br_q.png,images/cb_q.png,,,,,,,,,,,,,,,,,,,,,,,,,
,,,,,,00068,2023-10-16_08h33.21.273,vbt_B2_day1,2022.2.4,Win32,60.67224851,,,,,,,,,,,,,,,,,,,-0.434259238,-0.037037037,0,0,1,0.7245,2,18,70,12,1,m,images/br_m.png,images/cb_m.png,,,,,,,,,,,,,,,,,,,,,,,,,
,,,,,,00068,2023-10-16_08h33.21.273,vbt_B2_day1,2022.2.4,Win32,60.67224851,,,,,,,,,,,,,,,,,,,-0.485185164,0.152777778,0,0,1,2.5506,2,19,71,2,1,c,images/br_c.png,images/cb_c.png,,,,,,,,,,,,,,,,,,,,,,,,,
,,,,,,00068,2023-10-16_08h33.21.273,vbt_B2_day1,2022.2.4,Win32,60.67224851,,,,,,,,,,,,,,,,,,,-0.544444437,0.305555556,0,0,1,0.417,2,20,72,7,1,h,images/br_h.png,images/cb_h.png,,,,,,,,,,,,,,,,,,,,,,,,,
,,,,,,00068,2023-10-16_08h33.21.273,vbt_B2_day1,2022.2.4,Win32,60.67224851,,,,,,,,,,,,,,,,,,,-0.445370356,0.018518519,0,0,1,0.9332,2,21,73,1,1,b,images/br_b.png,images/cb_b.png,,,,,,,,,,,,,,,,,,,,,,,,,
,,,,,,00068,2023-10-16_08h33.21.273,vbt_B2_day1,2022.2.4,Win32,60.67224851,,,,,,,,,,,,,,,,,,,-0.471296275,0.187962956,0,0,1,1.8914,2,22,74,17,1,r,images/br_r.png,images/cb_r.png,,,,,,,,,,,,,,,,,,,,,,,,,
,,,,,,00068,2023-10-16_08h33.21.273,vbt_B2_day1,2022.2.4,Win32,60.67224851,,,,,,,,,,,,,,,,,,,-0.348148134,-0.151851866,0,0,1,1.1253,2,23,75,15,1,p,images/br_p.png,images/cb_p.png,,,,,,,,,,,,,,,,,,,,,,,,,
,,,,,,00068,2023-10-16_08h33.21.273,vbt_B2_day1,2022.2.4,Win32,60.67224851,,,,,,,,,,,,,,,,,,,-0.362037023,0.030555548,0,0,1,1.0006,2,24,76,3,1,d,images/br_d.png,images/cb_d.png,,,,,,,,,,,,,,,,,,,,,,,,,
,,,,,,00068,2023-10-16_08h33.21.273,vbt_B2_day1,2022.2.4,Win32,60.67224851,,,,,,,,,,,,,,,,,,,-0.451851845,0.174999979,0,0,1,3.6501,2,25,77,6,1,g,images/br_g.png,images/cb_g.png,,,,,,,,,,,,,,,,,,,,,,,,,
,,,,,,00068,2023-10-16_08h33.21.273,vbt_B2_day1,2022.2.4,Win32,60.67224851,,,,,,,,,,,,,,,,,,,-0.345370363,-0.029629637,0,0,1,0.1251,3,0,78,20,1,u,images/br_u.png,images/cb_u.png,,,,,,,,,,,,,,,,,,,,,,,,,
,,,,,,00068,2023-10-16_08h33.21.273,vbt_B2_day1,2022.2.4,Win32,60.67224851,,,,,,,,,,,,,,,,,,,-0.365740741,0.16111109,0,0,1,0.5097,3,1,79,7,1,h,images/br_h.png,images/cb_h.png,,,,,,,,,,,,,,,,,,,,,,,,,
,,,,,,00068,2023-10-16_08h33.21.273,vbt_B2_day1,2022.2.4,Win32,60.67224851,,,,,,,,,,,,,,,,,,,-0.266666624,-0.085185192,0,0,1,0.4501,3,2,80,17,1,r,images/br_r.png,images/cb_r.png,,,,,,,,,,,,,,,,,,,,,,,,,
,,,,,,00068,2023-10-16_08h33.21.273,vbt_B2_day1,2022.2.4,Win32,60.67224851,,,,,,,,,,,,,,,,,,,-0.273148148,-0.012962977,0,0,1,1.1017,3,3,81,19,1,t,images/br_t.png,images/cb_t.png,,,,,,,,,,,,,,,,,,,,,,,,,
,,,,,,00068,2023-10-16_08h33.21.273,vbt_B2_day1,2022.2.4,Win32,60.67224851,,,,,,,,,,,,,,,,,,,-0.313888868,-0.125925912,0,0,1,3.3536,3,4,82,1,1,b,images/br_b.png,images/cb_b.png,,,,,,,,,,,,,,,,,,,,,,,,,
,,,,,,00068,2023-10-16_08h33.21.273,vbt_B2_day1,2022.2.4,Win32,60.67224851,,,,,,,,,,,,,,,,,,,-0.361111111,0.097222222,0,0,1,6.3932,3,5,83,11,1,l,images/br_l.png,images/cb_l.png,,,,,,,,,,,,,,,,,,,,,,,,,
,,,,,,00068,2023-10-16_08h33.21.273,vbt_B2_day1,2022.2.4,Win32,60.67224851,,,,,,,,,,,,,,,,,,,-0.237037023,-0.205555598,0,0,1,0.6009,3,6,84,16,1,q,images/br_q.png,images/cb_q.png,,,,,,,,,,,,,,,,,,,,,,,,,
,,,,,,00068,2023-10-16_08h33.21.273,vbt_B2_day1,2022.2.4,Win32,60.67224851,,,,,,,,,,,,,,,,,,,-0.249074088,-0.081481474,0,0,1,7.3181,3,7,85,13,1,n,images/br_n.png,images/cb_n.png,,,,,,,,,,,,,,,,,,,,,,,,,
,,,,,,00068,2023-10-16_08h33.21.273,vbt_B2_day1,2022.2.4,Win32,60.67224851,,,,,,,,,,,,,,,,,,,-0.131481453,-0.23055557,0,0,1,14.2403,3,8,86,9,1,j,images/br_j.png,images/cb_j.png,,,,,,,,,,,,,,,,,,,,,,,,,
,,,,,,00068,2023-10-16_08h33.21.273,vbt_B2_day1,2022.2.4,Win32,60.67224851,,,,,,,,,,,,,,,,,,,-0.199074074,-0.128703718,0,0,1,23.4161,3,9,87,2,1,c,images/br_c.png,images/cb_c.png,,,,,,,,,,,,,,,,,,,,,,,,,
,,,,,,00068,2023-10-16_08h33.21.273,vbt_B2_day1,2022.2.4,Win32,60.67224851,,,,,,,,,,,,,,,,,,,-0.383333312,0.001851859,0,0,1,3.2504,3,10,88,18,1,s,images/br_s.png,images/cb_s.png,,,,,,,,,,,,,,,,,,,,,,,,,
,,,,,,00068,2023-10-16_08h33.21.273,vbt_B2_day1,2022.2.4,Win32,60.67224851,,,,,,,,,,,,,,,,,,,-0.488888882,0.03148146,0,0,1,0.6916,3,11,89,4,1,e,images/br_e.png,images/cb_e.png,,,,,,,,,,,,,,,,,,,,,,,,,
,,,,,,00068,2023-10-16_08h33.21.273,vbt_B2_day1,2022.2.4,Win32,60.67224851,,,,,,,,,,,,,,,,,,,-0.585185192,0.25833333,0,0,1,4.251,3,12,90,10,1,k,images/br_k.png,images/cb_k.png,,,,,,,,,,,,,,,,,,,,,,,,,
,,,,,,00068,2023-10-16_08h33.21.273,vbt_B2_day1,2022.2.4,Win32,60.67224851,,,,,,,,,,,,,,,,,,,-0.458333333,-0.099074116,0,0,1,1.202,3,13,91,25,1,z,images/br_z.png,images/cb_z.png,,,,,,,,,,,,,,,,,,,,,,,,,
,,,,,,00068,2023-10-16_08h33.21.273,vbt_B2_day1,2022.2.4,Win32,60.67224851,,,,,,,,,,,,,,,,,,,-0.562962956,0.130555541,0,0,1,2.5332,3,14,92,12,1,m,images/br_m.png,images/cb_m.png,,,,,,,,,,,,,,,,,,,,,,,,,
,,,,,,00068,2023-10-16_08h33.21.273,vbt_B2_day1,2022.2.4,Win32,60.67224851,,,,,,,,,,,,,,,,,,,-0.355555534,-0.25,0,0,1,8.5218,3,15,93,23,1,x,images/br_x.png,images/cb_x.png,,,,,,,,,,,,,,,,,,,,,,,,,
,,,,,,00068,2023-10-16_08h33.21.273,vbt_B2_day1,2022.2.4,Win32,60.67224851,,,,,,,,,,,,,,,,,,,-0.37037037,-0.140740783,0,0,1,0.8785,3,16,94,22,1,w,images/br_w.png,images/cb_w.png,,,,,,,,,,,,,,,,,,,,,,,,,
,,,,,,00068,2023-10-16_08h33.21.273,vbt_B2_day1,2022.2.4,Win32,60.67224851,,,,,,,,,,,,,,,,,,,-0.378703683,-0.026851866,0,0,1,3.242,3,17,95,5,1,f,images/br_f.png,images/cb_f.png,,,,,,,,,,,,,,,,,,,,,,,,,
,,,,,,00068,2023-10-16_08h33.21.273,vbt_B2_day1,2022.2.4,Win32,60.67224851,,,,,,,,,,,,,,,,,,,-0.372222229,0.077777757,0,0,1,1.0353,3,18,96,15,1,p,images/br_p.png,images/cb_p.png,,,,,,,,,,,,,,,,,,,,,,,,,
,,,,,,00068,2023-10-16_08h33.21.273,vbt_B2_day1,2022.2.4,Win32,60.67224851,,,,,,,,,,,,,,,,,,,-0.386111118,-0.380555541,0,0,1,4.2343,3,19,97,8,1,i,images/br_i.png,images/cb_i.png,,,,,,,,,,,,,,,,,,,,,,,,,
,,,,,,00068,2023-10-16_08h33.21.273,vbt_B2_day1,2022.2.4,Win32,60.67224851,,,,,,,,,,,,,,,,,,,-0.350925905,-0.199999986,0,0,1,0.1042,3,20,98,24,1,y,images/br_y.png,images/cb_y.png,,,,,,,,,,,,,,,,,,,,,,,,,
,,,,,,00068,2023-10-16_08h33.21.273,vbt_B2_day1,2022.2.4,Win32,60.67224851,,,,,,,,,,,,,,,,,,,-0.364814794,-0.072222215,0,0,1,1.9501,3,21,99,0,1,a,images/br_a.png,images/cb_a.png,,,,,,,,,,,,,,,,,,,,,,,,,
,,,,,,00068,2023-10-16_08h33.21.273,vbt_B2_day1,2022.2.4,Win32,60.67224851,,,,,,,,,,,,,,,,,,,-0.349999993,0.026851831,0,0,1,3.3521,3,22,100,6,1,g,images/br_g.png,images/cb_g.png,,,,,,,,,,,,,,,,,,,,,,,,,
,,,,,,00068,2023-10-16_08h33.21.273,vbt_B2_day1,2022.2.4,Win32,60.67224851,,,,,,,,,,,,,,,,,,,-0.344444452,0.090740734,0,0,1,0.1908,3,23,101,21,1,v,images/br_v.png,images/cb_v.png,,,,,,,,,,,,,,,,,,,,,,,,,
,,,,,,00068,2023-10-16_08h33.21.273,vbt_B2_day1,2022.2.4,Win32,60.67224851,,,,,,,,,,,,,,,,,,,-0.329629616,0.185185185,0,0,1,0.1738,3,24,102,3,1,d,images/br_d.png,images/cb_d.png,,,,,,,,,,,,,,,,,,,,,,,,,
,,,,,,00068,2023-10-16_08h33.21.273,vbt_B2_day1,2022.2.4,Win32,60.67224851,,,,,,,,,,,,,,,,,,,-0.315740727,0.291666667,0,0,1,1.3345,3,25,103,14,1,o,images/br_o.png,images/cb_o.png,,,,,,,,,,,,,,,,,,,,,,,,,
,,,,,,00068,2023-10-16_08h33.21.273,vbt_B2_day1,2022.2.4,Win32,60.67224851,,,,,,,,,,,,,,,,,,,-0.343518504,0.100925905,0,0,1,1.0085,4,0,104,9,1,j,images/br_j.png,images/cb_j.png,,,,,,,,,,,,,,,,,,,,,,,,,
,,,,,,00068,2023-10-16_08h33.21.273,vbt_B2_day1,2022.2.4,Win32,60.67224851,,,,,,,,,,,,,,,,,,,-0.296296296,-0.075000021,0,0,1,5.5839,4,1,105,7,1,h,images/br_h.png,images/cb_h.png,,,,,,,,,,,,,,,,,,,,,,,,,
,,,,,,00068,2023-10-16_08h33.21.273,vbt_B2_day1,2022.2.4,Win32,60.67224851,,,,,,,,,,,,,,,,,,,-0.290740755,-0.001851859,0,0,1,0.8838,4,2,106,19,1,t,images/br_t.png,images/cb_t.png,,,,,,,,,,,,,,,,,,,,,,,,,
,,,,,,00068,2023-10-16_08h33.21.273,vbt_B2_day1,2022.2.4,Win32,60.67224851,,,,,,,,,,,,,,,,,,,-0.294444402,0.086111104,0,0,1,0.8839,4,3,107,18,1,s,images/br_s.png,images/cb_s.png,,,,,,,,,,,,,,,,,,,,,,,,,
,,,,,,00068,2023-10-16_08h33.21.273,vbt_B2_day1,2022.2.4,Win32,60.67224851,,,,,,,,,,,,,,,,,,,-0.424999979,0.166666667,1,0,0,0.7697,4,4,108,20,1,u,images/br_u.png,images/cb_u.png,,,,,,,,,,,,,,,,,,,,,,,,,
,,,,,,00068,2023-10-16_08h33.21.273,vbt_B2_day1,2022.2.4,Win32,60.67224851,,,,,,,,,,,,,,,,,,,-0.424074067,0.16574072,0,0,1,1.9003,4,5,109,10,1,k,images/br_k.png,images/cb_k.png,,,,,,,,,,,,,,,,,,,,,,,,,
,,,,,,00068,2023-10-16_08h33.21.273,vbt_B2_day1,2022.2.4,Win32,60.67224851,,,,,,,,,,,,,,,,,,,-0.380555541,-0.058333326,0,0,1,3.868,4,6,110,11,1,l,images/br_l.png,images/cb_l.png,,,,,,,,,,,,,,,,,,,,,,,,,
,,,,,,00068,2023-10-16_08h33.21.273,vbt_B2_day1,2022.2.4,Win32,60.67224851,,,,,,,,,,,,,,,,,,,-0.366666653,0.01944443,0,0,1,2.2545,4,7,111,1,1,b,images/br_b.png,images/cb_b.png,,,,,,,,,,,,,,,,,,,,,,,,,
,,,,,,00068,2023-10-16_08h33.21.273,vbt_B2_day1,2022.2.4,Win32,60.67224851,,,,,,,,,,,,,,,,,,,-0.362037023,0.063888868,0,0,1,1.6723,4,8,112,2,1,c,images/br_c.png,images/cb_c.png,,,,,,,,,,,,,,,,,,,,,,,,,
,,,,,,00068,2023-10-16_08h33.21.273,vbt_B2_day1,2022.2.4,Win32,60.67224851,,,,,,,,,,,,,,,,,,,-0.354629623,0.125,0,0,1,0.3014,4,9,113,5,1,f,images/br_f.png,images/cb_f.png,,,,,,,,,,,,,,,,,,,,,,,,,
,,,,,,00068,2023-10-16_08h33.21.273,vbt_B2_day1,2022.2.4,Win32,60.67224851,,,,,,,,,,,,,,,,,,,-0.357407393,0.178703697,0,0,1,0.7039,4,10,114,8,1,i,images/br_i.png,images/cb_i.png,,,,,,,,,,,,,,,,,,,,,,,,,
,,,,,,00068,2023-10-16_08h33.21.273,vbt_B2_day1,2022.2.4,Win32,60.67224851,,,,,,,,,,,,,,,,,,,-0.475925905,0.291666667,0,0,1,2.016,4,11,115,16,1,q,images/br_q.png,images/cb_q.png,,,,,,,,,,,,,,,,,,,,,,,,,
,,,,,,00068,2023-10-16_08h33.21.273,vbt_B2_day1,2022.2.4,Win32,60.67224851,,,,,,,,,,,,,,,,,,,-0.537037037,-0.057407414,0,0,1,0.5568,4,12,116,25,1,z,images/br_z.png,images/cb_z.png,,,,,,,,,,,,,,,,,,,,,,,,,
,,,,,,00068,2023-10-16_08h33.21.273,vbt_B2_day1,2022.2.4,Win32,60.67224851,,,,,,,,,,,,,,,,,,,-0.526851831,0.075925933,0,0,1,0.1585,4,13,117,17,1,r,images/br_r.png,images/cb_r.png,,,,,,,,,,,,,,,,,,,,,,,,,
,,,,,,00068,2023-10-16_08h33.21.273,vbt_B2_day1,2022.2.4,Win32,60.67224851,,,,,,,,,,,,,,,,,,,-0.437962956,0.187037044,0,0,1,0.1016,4,14,118,23,1,x,images/br_x.png,images/cb_x.png,,,,,,,,,,,,,,,,,,,,,,,,,
,,,,,,00068,2023-10-16_08h33.21.273,vbt_B2_day1,2022.2.4,Win32,60.67224851,,,,,,,,,,,,,,,,,,,-0.414814808,0.260185189,0,0,1,1.9894,4,15,119,13,1,n,images/br_n.png,images/cb_n.png,,,,,,,,,,,,,,,,,,,,,,,,,
,,,,,,00068,2023-10-16_08h33.21.273,vbt_B2_day1,2022.2.4,Win32,60.67224851,,,,,,,,,,,,,,,,,,,-0.356481481,-0.102777764,0,0,1,1.4967,4,16,120,22,1,w,images/br_w.png,images/cb_w.png,,,,,,,,,,,,,,,,,,,,,,,,,
,,,,,,00068,2023-10-16_08h33.21.273,vbt_B2_day1,2022.2.4,Win32,60.67224851,,,,,,,,,,,,,,,,,,,-0.381481489,-0.033333355,0,0,1,2.6679,4,17,121,24,1,y,images/br_y.png,images/cb_y.png,,,,,,,,,,,,,,,,,,,,,,,,,
,,,,,,00068,2023-10-16_08h33.21.273,vbt_B2_day1,2022.2.4,Win32,60.67224851,,,,,,,,,,,,,,,,,,,-0.380555541,0.021296289,0,0,1,0.6333,4,18,122,21,1,v,images/br_v.png,images/cb_v.png,,,,,,,,,,,,,,,,,,,,,,,,,
,,,,,,00068,2023-10-16_08h33.21.273,vbt_B2_day1,2022.2.4,Win32,60.67224851,,,,,,,,,,,,,,,,,,,-0.359259252,0.12037037,0,0,1,1.2349,4,19,123,12,1,m,images/br_m.png,images/cb_m.png,,,,,,,,,,,,,,,,,,,,,,,,,
,,,,,,00068,2023-10-16_08h33.21.273,vbt_B2_day1,2022.2.4,Win32,60.67224851,,,,,,,,,,,,,,,,,,,-0.38703703,0.263888889,0,0,1,1.05,4,20,124,15,1,p,images/br_p.png,images/cb_p.png,,,,,,,,,,,,,,,,,,,,,,,,,
,,,,,,00068,2023-10-16_08h33.21.273,vbt_B2_day1,2022.2.4,Win32,60.67224851,,,,,,,,,,,,,,,,,,,-0.404629637,0.106481481,0,0,1,2.8828,4,21,125,0,1,a,images/br_a.png,images/cb_a.png,,,,,,,,,,,,,,,,,,,,,,,,,
,,,,,,00068,2023-10-16_08h33.21.273,vbt_B2_day1,2022.2.4,Win32,60.67224851,,,,,,,,,,,,,,,,,,,-0.39166666,-0.115740741,0,0,1,1.7837,4,22,126,6,1,g,images/br_g.png,images/cb_g.png,,,,,,,,,,,,,,,,,,,,,,,,,
,,,,,,00068,2023-10-16_08h33.21.273,vbt_B2_day1,2022.2.4,Win32,60.67224851,,,,,,,,,,,,,,,,,,,-0.377777771,0.009259259,0,0,1,0.087,4,23,127,4,1,e,images/br_e.png,images/cb_e.png,,,,,,,,,,,,,,,,,,,,,,,,,
,,,,,,00068,2023-10-16_08h33.21.273,vbt_B2_day1,2022.2.4,Win32,60.67224851,,,,,,,,,,,,,,,,,,,-0.426851838,0.219444434,0,0,1,3.4578,4,24,128,14,1,o,images/br_o.png,images/cb_o.png,,,,,,,,,,,,,,,,,,,,,,,,,
,,,,,,00068,2023-10-16_08h33.21.273,vbt_B2_day1,2022.2.4,Win32,60.67224851,,,,,,,,,,,,,,,,,,,-0.296296296,-0.087037051,0,0,1,0.442,4,25,129,3,1,d,images/br_d.png,images/cb_d.png,,,,,,,,,,,,,,,,,,,,,,,,,
,,,,,,00068,2023-10-16_08h33.21.273,vbt_B2_day1,2022.2.4,Win32,60.67224851,,,,,,,,,,,,,,,,,,,-0.324074074,-0.047222243,0,0,1,1.6777,5,0,130,4,1,e,images/br_e.png,images/cb_e.png,,,,,,,,,,,,,,,,,,,,,,,,,
,,,,,,00068,2023-10-16_08h33.21.273,vbt_B2_day1,2022.2.4,Win32,60.67224851,,,,,,,,,,,,,,,,,,,-0.38703703,0.1175926,0,0,1,2.9501,5,1,131,14,1,o,images/br_o.png,images/cb_o.png,,,,,,,,,,,,,,,,,,,,,,,,,
,,,,,,00068,2023-10-16_08h33.21.273,vbt_B2_day1,2022.2.4,Win32,60.67224851,,,,,,,,,,,,,,,,,,,-0.40370369,0.2574074,0,0,1,0.1902,5,2,132,6,1,g,images/br_g.png,images/cb_g.png,,,,,,,,,,,,,,,,,,,,,,,,,
,,,,,,00068,2023-10-16_08h33.21.273,vbt_B2_day1,2022.2.4,Win32,60.67224851,,,,,,,,,,,,,,,,,,,-0.336111104,0.080555563,0,0,1,5.7073,5,3,133,1,1,b,images/br_b.png,images/cb_b.png,,,,,,,,,,,,,,,,,,,,,,,,,
,,,,,,00068,2023-10-16_08h33.21.273,vbt_B2_day1,2022.2.4,Win32,60.67224851,,,,,,,,,,,,,,,,,,,-0.428703697,0.288888878,0,0,1,6.2679,5,4,134,25,1,z,images/br_z.png,images/cb_z.png,,,,,,,,,,,,,,,,,,,,,,,,,
,,,,,,00068,2023-10-16_08h33.21.273,vbt_B2_day1,2022.2.4,Win32,60.67224851,,,,,,,,,,,,,,,,,,,-0.413888896,0.112037023,0,0,1,0.0671,5,5,135,22,1,w,images/br_w.png,images/cb_w.png,,,,,,,,,,,,,,,,,,,,,,,,,
,,,,,,00068,2023-10-16_08h33.21.273,vbt_B2_day1,2022.2.4,Win32,60.67224851,,,,,,,,,,,,,,,,,,,-0.360185164,-0.070370392,0,0,1,0.0148,5,6,136,16,1,q,images/br_q.png,images/cb_q.png,,,,,,,,,,,,,,,,,,,,,,,,,
,,,,,,00068,2023-10-16_08h33.21.273,vbt_B2_day1,2022.2.4,Win32,60.67224851,,,,,,,,,,,,,,,,,,,-0.373148141,0.042592578,0,0,1,0.3179,5,7,137,5,1,f,images/br_f.png,images/cb_f.png,,,,,,,,,,,,,,,,,,,,,,,,,
,,,,,,00068,2023-10-16_08h33.21.273,vbt_B2_day1,2022.2.4,Win32,60.67224851,,,,,,,,,,,,,,,,,,,-0.368518511,0.177777785,0,0,1,1.6505,5,8,138,8,1,i,images/br_i.png,images/cb_i.png,,,,,,,,,,,,,,,,,,,,,,,,,
,,,,,,00068,2023-10-16_08h33.21.273,vbt_B2_day1,2022.2.4,Win32,60.67224851,,,,,,,,,,,,,,,,,,,-0.272222236,-0.015740748,0,0,1,0.1596,5,9,139,17,1,r,images/br_r.png,images/cb_r.png,,,,,,,,,,,,,,,,,,,,,,,,,
,,,,,,00068,2023-10-16_08h33.21.273,vbt_B2_day1,2022.2.4,Win32,60.67224851,,,,,,,,,,,,,,,,,,,-0.288888861,0.092592593,0,0,1,0.6335,5,10,140,18,1,s,images/br_s.png,images/cb_s.png,,,,,,,,,,,,,,,,,,,,,,,,,
,,,,,,00068,2023-10-16_08h33.21.273,vbt_B2_day1,2022.2.4,Win32,60.67224851,,,,,,,,,,,,,,,,,,,-0.289814772,0.203703704,0,0,1,3.6992,5,11,141,2,1,c,images/br_c.png,images/cb_c.png,,,,,,,,,,,,,,,,,,,,,,,,,
,,,,,,00068,2023-10-16_08h33.21.273,vbt_B2_day1,2022.2.4,Win32,60.67224851,,,,,,,,,,,,,,,,,,,-0.366666653,0.118518511,0,0,1,0.0837,5,12,142,12,1,m,images/br_m.png,images/cb_m.png,,,,,,,,,,,,,,,,,,,,,,,,,
,,,,,,00068,2023-10-16_08h33.21.273,vbt_B2_day1,2022.2.4,Win32,60.67224851,,,,,,,,,,,,,,,,,,,-0.48333334,-0.134259259,0,0,1,0.4666,5,13,143,23,1,x,images/br_x.png,images/cb_x.png,,,,,,,,,,,,,,,,,,,,,,,,,
,,,,,,00068,2023-10-16_08h33.21.273,vbt_B2_day1,2022.2.4,Win32,60.67224851,,,,,,,,,,,,,,,,,,,-0.474074081,-0.062037044,0,0,1,0.1269,5,14,144,3,1,d,images/br_d.png,images/cb_d.png,,,,,,,,,,,,,,,,,,,,,,,,,
,,,,,,00068,2023-10-16_08h33.21.273,vbt_B2_day1,2022.2.4,Win32,60.67224851,,,,,,,,,,,,,,,,,,,-0.462962963,0.00462963,0,0,1,0.584,5,15,145,15,1,p,images/br_p.png,images/cb_p.png,,,,,,,,,,,,,,,,,,,,,,,,,
,,,,,,00068,2023-10-16_08h33.21.273,vbt_B2_day1,2022.2.4,Win32,60.67224851,,,,,,,,,,,,,,,,,,,-0.50462963,0.142592571,0,0,1,1.8106,5,16,146,20,1,u,images/br_u.png,images/cb_u.png,,,,,,,,,,,,,,,,,,,,,,,,,
,,,,,,00068,2023-10-16_08h33.21.273,vbt_B2_day1,2022.2.4,Win32,60.67224851,,,,,,,,,,,,,,,,,,,-0.499074053,0.279629619,0,0,1,1.3141,5,17,147,10,1,k,images/br_k.png,images/cb_k.png,,,,,,,,,,,,,,,,,,,,,,,,,
,,,,,,00068,2023-10-16_08h33.21.273,vbt_B2_day1,2022.2.4,Win32,60.67224851,,,,,,,,,,,,,,,,,,,-0.442592586,0.077777757,0,0,1,0.0244,5,18,148,11,1,l,images/br_l.png,images/cb_l.png,,,,,,,,,,,,,,,,,,,,,,,,,
,,,,,,00068,2023-10-16_08h33.21.273,vbt_B2_day1,2022.2.4,Win32,60.67224851,,,,,,,,,,,,,,,,,,,-0.454629616,0.011111118,0,0,1,1.8913,5,19,149,0,1,a,images/br_a.png,images/cb_a.png,,,,,,,,,,,,,,,,,,,,,,,,,
,,,,,,00068,2023-10-16_08h33.21.273,vbt_B2_day1,2022.2.4,Win32,60.67224851,,,,,,,,,,,,,,,,,,,-0.452777757,0.220370363,0,0,1,2.0179,5,20,150,7,1,h,images/br_h.png,images/cb_h.png,,,,,,,,,,,,,,,,,,,,,,,,,
,,,,,,00068,2023-10-16_08h33.21.273,vbt_B2_day1,2022.2.4,Win32,60.67224851,,,,,,,,,,,,,,,,,,,-0.376851859,-0.047222243,0,0,1,1.1047,5,21,151,24,1,y,images/br_y.png,images/cb_y.png,,,,,,,,,,,,,,,,,,,,,,,,,
,,,,,,00068,2023-10-16_08h33.21.273,vbt_B2_day1,2022.2.4,Win32,60.67224851,,,,,,,,,,,,,,,,,,,-0.41111109,0.074074074,0,0,1,0.788,5,22,152,9,1,j,images/br_j.png,images/cb_j.png,,,,,,,,,,,,,,,,,,,,,,,,,
,,,,,,00068,2023-10-16_08h33.21.273,vbt_B2_day1,2022.2.4,Win32,60.67224851,,,,,,,,,,,,,,,,,,,-0.404629637,0.16111109,0,0,1,1.3903,5,23,153,19,1,t,images/br_t.png,images/cb_t.png,,,,,,,,,,,,,,,,,,,,,,,,,
,,,,,,00068,2023-10-16_08h33.21.273,vbt_B2_day1,2022.2.4,Win32,60.67224851,,,,,,,,,,,,,,,,,,,-0.453703704,-0.125925912,0,0,1,0.4164,5,24,154,21,1,v,images/br_v.png,images/cb_v.png,,,,,,,,,,,,,,,,,,,,,,,,,
,,,,,,00068,2023-10-16_08h33.21.273,vbt_B2_day1,2022.2.4,Win32,60.67224851,,,,,,,,,,,,,,,,,,,-0.449999986,0.049074067,0,0,1,2.7331,5,25,155,13,1,n,images/br_n.png,images/cb_n.png,,,,,,,,,,,,,,,,,,,,,,,,,
,,,,,,00068,2023-10-16_08h33.21.273,vbt_B2_day1,2022.2.4,Win32,60.67224851,,,,,,,,,,,,,,,,,,,-0.505555541,-0.050925926,0,0,1,7.6671,6,0,156,19,1,t,images/br_t.png,images/cb_t.png,,,,,,,,,,,,,,,,,,,,,,,,,
,,,,,,00068,2023-10-16_08h33.21.273,vbt_B2_day1,2022.2.4,Win32,60.67224851,,,,,,,,,,,,,,,,,,,-0.525000007,0.045370349,0,0,1,2.4172,6,1,157,11,1,l,images/br_l.png,images/cb_l.png,,,,,,,,,,,,,,,,,,,,,,,,,
,,,,,,00068,2023-10-16_08h33.21.273,vbt_B2_day1,2022.2.4,Win32,60.67224851,,,,,,,,,,,,,,,,,,,-0.537037037,0.274999989,0,0,1,5.2389,6,2,158,21,1,v,images/br_v.png,images/cb_v.png,,,,,,,,,,,,,,,,,,,,,,,,,
,,,,,,00068,2023-10-16_08h33.21.273,vbt_B2_day1,2022.2.4,Win32,60.67224851,,,,,,,,,,,,,,,,,,,-0.417592578,-0.019444466,0,0,1,3.9834,6,3,159,3,1,d,images/br_d.png,images/cb_d.png,,,,,,,,,,,,,,,,,,,,,,,,,
,,,,,,00068,2023-10-16_08h33.21.273,vbt_B2_day1,2022.2.4,Win32,60.67224851,,,,,,,,,,,,,,,,,,,-0.430555556,0.147222201,0,0,1,3.1515,6,4,160,4,1,e,images/br_e.png,images/cb_e.png,,,,,,,,,,,,,,,,,,,,,,,,,
,,,,,,00068,2023-10-16_08h33.21.273,vbt_B2_day1,2022.2.4,Win32,60.67224851,,,,,,,,,,,,,,,,,,,-0.369444423,-0.114814829,0,0,1,6.1913,6,5,161,5,1,f,images/br_f.png,images/cb_f.png,,,,,,,,,,,,,,,,,,,,,,,,,
,,,,,,00068,2023-10-16_08h33.21.273,vbt_B2_day1,2022.2.4,Win32,60.67224851,,,,,,,,,,,,,,,,,,,-0.296296296,0.135185171,0,0,1,0.3834,6,6,162,18,1,s,images/br_s.png,images/cb_s.png,,,,,,,,,,,,,,,,,,,,,,,,,
,,,,,,00068,2023-10-16_08h33.21.273,vbt_B2_day1,2022.2.4,Win32,60.67224851,,,,,,,,,,,,,,,,,,,-0.352777764,-0.08425928,0,0,1,1.5993,6,7,163,24,1,y,images/br_y.png,images/cb_y.png,,,,,,,,,,,,,,,,,,,,,,,,,
,,,,,,00068,2023-10-16_08h33.21.273,vbt_B2_day1,2022.2.4,Win32,60.67224851,,,,,,,,,,,,,,,,,,,-0.355555534,0.059259238,0,0,1,2.1088,6,8,164,16,1,q,images/br_q.png,images/cb_q.png,,,,,,,,,,,,,,,,,,,,,,,,,
,,,,,,00068,2023-10-16_08h33.21.273,vbt_B2_day1,2022.2.4,Win32,60.67224851,,,,,,,,,,,,,,,,,,,-0.331481474,0.151851831,0,0,1,3.9422,6,9,165,0,1,a,images/br_a.png,images/cb_a.png,,,,,,,,,,,,,,,,,,,,,,,,,
,,,,,,00068,2023-10-16_08h33.21.273,vbt_B2_day1,2022.2.4,Win32,60.67224851,,,,,,,,,,,,,,,,,,,-0.512962942,0.244444441,0,0,1,2.5078,6,10,166,6,1,g,images/br_g.png,images/cb_g.png,,,,,,,,,,,,,,,,,,,,,,,,,
,,,,,,00068,2023-10-16_08h33.21.273,vbt_B2_day1,2022.2.4,Win32,60.67224851,,,,,,,,,,,,,,,,,,,-0.400925919,-0.055555556,0,0,1,1.3586,6,11,167,22,1,w,images/br_w.png,images/cb_w.png,,,,,,,,,,,,,,,,,,,,,,,,,
,,,,,,00068,2023-10-16_08h33.21.273,vbt_B2_day1,2022.2.4,Win32,60.67224851,,,,,,,,,,,,,,,,,,,-0.421296296,0.107407393,0,0,1,2.5408,6,12,168,14,1,o,images/br_o.png,images/cb_o.png,,,,,,,,,,,,,,,,,,,,,,,,,
,,,,,,00068,2023-10-16_08h33.21.273,vbt_B2_day1,2022.2.4,Win32,60.67224851,,,,,,,,,,,,,,,,,,,-0.363888882,0.203703704,0,0,1,1.4444,6,13,169,23,1,x,images/br_x.png,images/cb_x.png,,,,,,,,,,,,,,,,,,,,,,,,,
,,,,,,00068,2023-10-16_08h33.21.273,vbt_B2_day1,2022.2.4,Win32,60.67224851,,,,,,,,,,,,,,,,,,,-0.419444437,-0.112037023,0,0,1,3.1507,6,14,170,10,1,k,images/br_k.png,images/cb_k.png,,,,,,,,,,,,,,,,,,,,,,,,,
,,,,,,00068,2023-10-16_08h33.21.273,vbt_B2_day1,2022.2.4,Win32,60.67224851,,,,,,,,,,,,,,,,,,,-0.476851852,0.134259259,0,0,1,12.7397,6,15,171,1,1,b,images/br_b.png,images/cb_b.png,,,,,,,,,,,,,,,,,,,,,,,,,
,,,,,,00068,2023-10-16_08h33.21.273,vbt_B2_day1,2022.2.4,Win32,60.67224851,,,,,,,,,,,,,,,,,,,-0.549074067,0.092592593,0,0,1,0.8662,6,16,172,8,1,i,images/br_i.png,images/cb_i.png,,,,,,,,,,,,,,,,,,,,,,,,,
,,,,,,00068,2023-10-16_08h33.21.273,vbt_B2_day1,2022.2.4,Win32,60.67224851,,,,,,,,,,,,,,,,,,,-0.642592589,0.114814794,0,0,1,0.2504,6,17,173,15,1,p,images/br_p.png,images/cb_p.png,,,,,,,,,,,,,,,,,,,,,,,,,
,,,,,,00068,2023-10-16_08h33.21.273,vbt_B2_day1,2022.2.4,Win32,60.67224851,,,,,,,,,,,,,,,,,,,-0.834259258,0.139814801,0,0,1,4.0912,6,18,174,17,1,r,images/br_r.png,images/cb_r.png,,,,,,,,,,,,,,,,,,,,,,,,,
,,,,,,00068,2023-10-16_08h33.21.273,vbt_B2_day1,2022.2.4,Win32,60.67224851,,,,,,,,,,,,,,,,,,,-0.662037037,0.339814804,0,0,1,3.3968,6,19,175,13,1,n,images/br_n.png,images/cb_n.png,,,,,,,,,,,,,,,,,,,,,,,,,
,,,,,,00068,2023-10-16_08h33.21.273,vbt_B2_day1,2022.2.4,Win32,60.67224851,,,,,,,,,,,,,,,,,,,-0.556481467,0.062962956,0,0,1,0.4842,6,20,176,9,1,j,images/br_j.png,images/cb_j.png,,,,,,,,,,,,,,,,,,,,,,,,,
,,,,,,00068,2023-10-16_08h33.21.273,vbt_B2_day1,2022.2.4,Win32,60.67224851,,,,,,,,,,,,,,,,,,,-0.5,0.005555541,0,0,1,3.8341,6,21,177,25,1,z,images/br_z.png,images/cb_z.png,,,,,,,,,,,,,,,,,,,,,,,,,
,,,,,,00068,2023-10-16_08h33.21.273,vbt_B2_day1,2022.2.4,Win32,60.67224851,,,,,,,,,,,,,,,,,,,-0.5074074,0.143518519,0,0,1,21.8596,6,22,178,12,1,m,images/br_m.png,images/cb_m.png,,,,,,,,,,,,,,,,,,,,,,,,,
,,,,,,00068,2023-10-16_08h33.21.273,vbt_B2_day1,2022.2.4,Win32,60.67224851,,,,,,,,,,,,,,,,,,,-0.5,-0.116666653,0,0,1,2.0003,6,23,179,7,1,h,images/br_h.png,images/cb_h.png,,,,,,,,,,,,,,,,,,,,,,,,,
,,,,,,00068,2023-10-16_08h33.21.273,vbt_B2_day1,2022.2.4,Win32,60.67224851,,,,,,,,,,,,,,,,,,,-0.462962963,0.000925912,0,0,1,0.5087,6,24,180,20,1,u,images/br_u.png,images/cb_u.png,,,,,,,,,,,,,,,,,,,,,,,,,
,,,,,,00068,2023-10-16_08h33.21.273,vbt_B2_day1,2022.2.4,Win32,60.67224851,,,,,,,,,,,,,,,,,,,-0.460185192,0.166666667,0,0,1,8.9837,6,25,181,2,1,c,images/br_c.png,images/cb_c.png,,,,,,,,,,,,,,,,,,,,,,,,,
,,,,,,00068,2023-10-16_08h33.21.273,vbt_B2_day1,2022.2.4,Win32,60.67224851,,,,,,,,,,,,,,,,,,,,,,,,,,,,,,,,,-0.573148127,0.166666667,0,0,1,,,,,,,,,,,,,,,,,,,,
,,,,,,00068,2023-10-16_08h33.21.273,vbt_B2_day1,2022.2.4,Win32,60.67224851,,,,,,,,,,,,,,,,,,,,,,,,,,,,,,,,,,,,,,-0.622222212,0.219444434,0,0,1,,,,,,,,,,,,,,,
,,,,,,00068,2023-10-16_08h33.21.273,vbt_B2_day1,2022.2.4,Win32,60.67224851,,,,,,,,,,,,,,,,,,,,,,,,,,,,,,,,,,,,,,,,,,,-0.323148127,-0.168518561,0,0,1,.tu.,.tu.,0,0,0,42,1,stuk,images/br_stuk.png,images/cb_stuk.png
,,,,,,00068,2023-10-16_08h33.21.273,vbt_B2_day1,2022.2.4,Win32,60.67224851,,,,,,,,,,,,,,,,,,,,,,,,,,,,,,,,,,,,,,,,,,,-0.300925926,-0.022222236,0,0,1,.a.e.,.a.e.,0,1,1,5,1,maken,images/br_maken.png,images/cb_maken.png
,,,,,,00068,2023-10-16_08h33.21.273,vbt_B2_day1,2022.2.4,Win32,60.67224851,,,,,,,,,,,,,,,,,,,,,,,,,,,,,,,,,,,,,,,,,,,-0.280555513,0.063888868,0,0,1,oq......,oq......,0,2,2,59,1,opvatten,images/br_opvatten.png,images/cb_opvatten.png
,,,,,,00068,2023-10-16_08h33.21.273,vbt_B2_day1,2022.2.4,Win32,60.67224851,,,,,,,,,,,,,,,,,,,,,,,,,,,,,,,,,,,,,,,,,,,-0.287962949,0.186111097,0,0,1,booi,booi,0,3,3,23,1,booi,images/br_booi.png,images/cb_booi.png
,,,,,,00068,2023-10-16_08h33.21.273,vbt_B2_day1,2022.2.4,Win32,60.67224851,,,,,,,,,,,,,,,,,,,,,,,,,,,,,,,,,,,,,,,,,,,-0.422222208,-0.098148134,0,0,1,.oc.....,.oc.....,0,4,4,34,1,lochten,images/br_lochten.png,images/cb_lochten.png
,,,,,,00068,2023-10-16_08h33.21.273,vbt_B2_day1,2022.2.4,Win32,60.67224851,,,,,,,,,,,,,,,,,,,,,,,,,,,,,,,,,,,,,,,,,,,-0.400000007,0.003703683,0,0,1,...oq,...oq,0,5,5,26,1,valop,images/br_valop.png,images/cb_valop.png
,,,,,,00068,2023-10-16_08h33.21.273,vbt_B2_day1,2022.2.4,Win32,60.67224851,,,,,,,,,,,,,,,,,,,,,,,,,,,,,,,,,,,,,,,,,,,-0.404629637,0.114814794,0,0,1,.ictie,.ictie,0,6,6,48,1,fictie,images/br_fictie.png,images/cb_fictie.png
,,,,,,00068,2023-10-16_08h33.21.273,vbt_B2_day1,2022.2.4,Win32,60.67224851,,,,,,,,,,,,,,,,,,,,,,,,,,,,,,,,,,,,,,,,,,,-0.48796297,0.172222208,0,0,1,bib.i.,bib.i.,0,7,7,28,1,bebrip,images/br_bebrip.png,images/cb_bebrip.png
,,,,,,00068,2023-10-16_08h33.21.273,vbt_B2_day1,2022.2.4,Win32,60.67224851,,,,,,,,,,,,,,,,,,,,,,,,,,,,,,,,,,,,,,,,,,,-0.436111097,-0.125,0,0,1,twih....,twih....,0,8,8,13,1,twijfel,images/br_twijfel.png,images/cb_twijfel.png
,,,,,,00068,2023-10-16_08h33.21.273,vbt_B2_day1,2022.2.4,Win32,60.67224851,,,,,,,,,,,,,,,,,,,,,,,,,,,,,,,,,,,,,,,,,,,-0.436111097,-0.039814808,0,0,1,i....in,i....in,0,9,9,36,1,vervaden,images/br_vervaden.png,images/cb_vervaden.png
,,,,,,00068,2023-10-16_08h33.21.273,vbt_B2_day1,2022.2.4,Win32,60.67224851,,,,,,,,,,,,,,,,,,,,,,,,,,,,,,,,,,,,,,,,,,,-0.418518526,0.125,0,0,1,opiaan,opiaan,0,10,10,32,1,opplaan,images/br_opplaan.png,images/cb_opplaan.png
,,,,,,00068,2023-10-16_08h33.21.273,vbt_B2_day1,2022.2.4,Win32,60.67224851,,,,,,,,,,,,,,,,,,,,,,,,,,,,,,,,,,,,,,,,,,,-0.425925926,-0.080555563,0,0,1,q.o...,q.o...,0,11,11,27,1,prort,images/br_prort.png,images/cb_prort.png
,,,,,,00068,2023-10-16_08h33.21.273,vbt_B2_day1,2022.2.4,Win32,60.67224851,,,,,,,,,,,,,,,,,,,,,,,,,,,,,,,,,,,,,,,,,,,-0.472222222,0.069444444,0,0,1,naa.,naa.,0,12,12,1,1,zaal,images/br_zaal.png,images/cb_zaal.png
,,,,,,00068,2023-10-16_08h33.21.273,vbt_B2_day1,2022.2.4,Win32,60.67224851,,,,,,,,,,,,,,,,,,,,,,,,,,,,,,,,,,,,,,,,,,,-0.344444452,-0.263888889,0,0,1,.an.,.an.,0,13,13,3,1,mand,images/br_mand.png,images/cb_mand.png
,,,,,,00068,2023-10-16_08h33.21.273,vbt_B2_day1,2022.2.4,Win32,60.67224851,,,,,,,,,,,,,,,,,,,,,,,,,,,,,,,,,,,,,,,,,,,-0.3675926,0.029629637,0,0,1,tast,tast,0,14,14,20,1,tars,images/br_tars.png,images/cb_tars.png
,,,,,,00068,2023-10-16_08h33.21.273,vbt_B2_day1,2022.2.4,Win32,60.67224851,,,,,,,,,,,,,,,,,,,,,,,,,,,,,,,,,,,,,,,,,,,-0.401851831,0.127777771,0,0,1,.enel,.enel,0,15,15,45,1,hemel,images/br_hemel.png,images/cb_hemel.png
,,,,,,00068,2023-10-16_08h33.21.273,vbt_B2_day1,2022.2.4,Win32,60.67224851,,,,,,,,,,,,,,,,,,,,,,,,,,,,,,,,,,,,,,,,,,,-0.500925912,0.014814801,0,0,1,.a.ee....n,.a.ee....n,0,16,16,16,1,daarheen,images/br_daarheen.png,images/cb_daarheen.png
,,,,,,00068,2023-10-16_08h33.21.273,vbt_B2_day1,2022.2.4,Win32,60.67224851,,,,,,,,,,,,,,,,,,,,,,,,,,,,,,,,,,,,,,,,,,,-0.421296296,0.256481471,0,0,1,.aa.,.aa.,0,17,17,2,1,jaar,images/br_jaar.png,images/cb_jaar.png
,,,,,,00068,2023-10-16_08h33.21.273,vbt_B2_day1,2022.2.4,Win32,60.67224851,,,,,,,,,,,,,,,,,,,,,,,,,,,,,,,,,,,,,,,,,,,-0.599999993,-0.178703732,0,0,1,loods,loods,0,18,18,47,1,loods,images/br_loods.png,images/cb_loods.png
,,,,,,00068,2023-10-16_08h33.21.273,vbt_B2_day1,2022.2.4,Win32,60.67224851,,,,,,,,,,,,,,,,,,,,,,,,,,,,,,,,,,,,,,,,,,,-0.560185185,0.124074053,0,0,1,wi.n.,wi.n.,0,19,19,44,1,wijze,images/br_wijze.png,images/cb_wijze.png
,,,,,,00068,2023-10-16_08h33.21.273,vbt_B2_day1,2022.2.4,Win32,60.67224851,,,,,,,,,,,,,,,,,,,,,,,,,,,,,,,,,,,,,,,,,,,-0.320370356,-0.300925926,0,0,1,lezen,lezen,0,20,20,46,1,lezen,images/br_lezen.png,images/cb_lezen.png
,,,,,,00068,2023-10-16_08h33.21.273,vbt_B2_day1,2022.2.4,Win32,60.67224851,,,,,,,,,,,,,,,,,,,,,,,,,,,,,,,,,,,,,,,,,,,-0.325925933,-0.167592578,0,0,1,.izin.,.izin.,0,21,21,49,1,vizier,images/br_vizier.png,images/cb_vizier.png
,,,,,,00068,2023-10-16_08h33.21.273,vbt_B2_day1,2022.2.4,Win32,60.67224851,,,,,,,,,,,,,,,,,,,,,,,,,,,,,,,,,,,,,,,,,,,-0.307407414,-0.303703732,0,0,1,orgaan,orgaan,0,22,22,53,1,opslaan,images/br_opslaan.png,images/cb_opslaan.png
,,,,,,00068,2023-10-16_08h33.21.273,vbt_B2_day1,2022.2.4,Win32,60.67224851,,,,,,,,,,,,,,,,,,,,,,,,,,,,,,,,,,,,,,,,,,,-0.287037037,-0.20185188,0,0,1,tineen,tineen,0,23,23,55,1,tekenen,images/br_tekenen.png,images/cb_tekenen.png
,,,,,,00068,2023-10-16_08h33.21.273,vbt_B2_day1,2022.2.4,Win32,60.67224851,,,,,,,,,,,,,,,,,,,,,,,,,,,,,,,,,,,,,,,,,,,-0.309259238,-0.112037023,0,0,1,.oo......,.oo......,0,24,24,58,1,voorkeur,images/br_voorkeur.png,images/cb_voorkeur.png
,,,,,,00068,2023-10-16_08h33.21.273,vbt_B2_day1,2022.2.4,Win32,60.67224851,,,,,,,,,,,,,,,,,,,,,,,,,,,,,,,,,,,,,,,,,,,-0.419444437,0.018518519,0,0,1,lie....,lie....,0,25,25,51,1,liefde,images/br_liefde.png,images/cb_liefde.png
,,,,,,00068,2023-10-16_08h33.21.273,vbt_B2_day1,2022.2.4,Win32,60.67224851,,,,,,,,,,,,,,,,,,,,,,,,,,,,,,,,,,,,,,,,,,,-0.159259231,-0.140740783,0,0,1,sch.....,sch.....,0,26,26,19,1,schuilen,images/br_schuilen.png,images/cb_schuilen.png
,,,,,,00068,2023-10-16_08h33.21.273,vbt_B2_day1,2022.2.4,Win32,60.67224851,,,,,,,,,,,,,,,,,,,,,,,,,,,,,,,,,,,,,,,,,,,-0.226851852,-0.260185171,0,0,1,biedahn,biedahn,0,27,27,15,1,hiervan,images/br_hiervan.png,images/cb_hiervan.png
,,,,,,00068,2023-10-16_08h33.21.273,vbt_B2_day1,2022.2.4,Win32,60.67224851,,,,,,,,,,,,,,,,,,,,,,,,,,,,,,,,,,,,,,,,,,,-0.241666653,-0.094444487,0,0,1,.en.,.en.,0,28,28,22,1,knoe,images/br_knoe.png,images/cb_knoe.png
,,,,,,00068,2023-10-16_08h33.21.273,vbt_B2_day1,2022.2.4,Win32,60.67224851,,,,,,,,,,,,,,,,,,,,,,,,,,,,,,,,,,,,,,,,,,,-0.023148148,-0.300000014,0,0,1,hhoog,hhoog,0,29,29,41,1,hoog,images/br_hoog.png,images/cb_hoog.png
,,,,,,00068,2023-10-16_08h33.21.273,vbt_B2_day1,2022.2.4,Win32,60.67224851,,,,,,,,,,,,,,,,,,,,,,,,,,,,,,,,,,,,,,,,,,,-0.071296268,-0.210185228,0,0,1,.ll...n,.ll...n,0,30,30,33,1,flullen,images/br_flullen.png,images/cb_flullen.png
,,,,,,00068,2023-10-16_08h33.21.273,vbt_B2_day1,2022.2.4,Win32,60.67224851,,,,,,,,,,,,,,,,,,,,,,,,,,,,,,,,,,,,,,,,,,,-0.14907406,-0.229629658,0,0,1,...n.in.,...n.in.,0,31,31,37,1,spanzing,images/br_spanzing.png,images/cb_spanzing.png
,,,,,,00068,2023-10-16_08h33.21.273,vbt_B2_day1,2022.2.4,Win32,60.67224851,,,,,,,,,,,,,,,,,,,,,,,,,,,,,,,,,,,,,,,,,,,0.037037037,-0.273148148,0,0,1,attentie,attentie,0,32,32,17,1,attentie,images/br_attentie.png,images/cb_attentie.png
,,,,,,00068,2023-10-16_08h33.21.273,vbt_B2_day1,2022.2.4,Win32,60.67224851,,,,,,,,,,,,,,,,,,,,,,,,,,,,,,,,,,,,,,,,,,,-0.182407379,-0.115740741,0,0,1,.i....,.i....,0,33,33,54,1,vijftig,images/br_vijftig.png,images/cb_vijftig.png
,,,,,,00068,2023-10-16_08h33.21.273,vbt_B2_day1,2022.2.4,Win32,60.67224851,,,,,,,,,,,,,,,,,,,,,,,,,,,,,,,,,,,,,,,,,,,0.00462963,-0.271296325,0,0,1,....,....,0,34,34,10,1,muziek,images/br_muziek.png,images/cb_muziek.png
,,,,,,00068,2023-10-16_08h33.21.273,vbt_B2_day1,2022.2.4,Win32,60.67224851,,,,,,,,,,,,,,,,,,,,,,,,,,,,,,,,,,,,,,,,,,,-0.054629644,-0.013888889,0,0,1,tone...,tone...,0,35,35,56,1,toezicht,images/br_toezicht.png,images/cb_toezicht.png
,,,,,,00068,2023-10-16_08h33.21.273,vbt_B2_day1,2022.2.4,Win32,60.67224851,,,,,,,,,,,,,,,,,,,,,,,,,,,,,,,,,,,,,,,,,,,-0.068518533,-0.298148191,0,0,1,st....,st....,0,36,36,35,1,stuikem,images/br_stuikem.png,images/cb_stuikem.png
,,,,,,00068,2023-10-16_08h33.21.273,vbt_B2_day1,2022.2.4,Win32,60.67224851,,,,,,,,,,,,,,,,,,,,,,,,,,,,,,,,,,,,,,,,,,,-0.110185199,-0.27407406,0,0,1,.ee.e.,.ee.e.,0,37,37,30,1,reedje,images/br_reedje.png,images/cb_reedje.png
,,,,,,00068,2023-10-16_08h33.21.273,vbt_B2_day1,2022.2.4,Win32,60.67224851,,,,,,,,,,,,,,,,,,,,,,,,,,,,,,,,,,,,,,,,,,,0.062962991,-0.256481524,0,0,1,lier,lier,0,38,38,40,1,dief,images/br_dief.png,images/cb_dief.png
,,,,,,00068,2023-10-16_08h33.21.273,vbt_B2_day1,2022.2.4,Win32,60.67224851,,,,,,,,,,,,,,,,,,,,,,,,,,,,,,,,,,,,,,,,,,,-0.012036995,-0.24537037,0,0,1,liegen,liegen,0,39,39,50,1,liegen,images/br_liegen.png,images/cb_liegen.png
,,,,,,00068,2023-10-16_08h33.21.273,vbt_B2_day1,2022.2.4,Win32,60.67224851,,,,,,,,,,,,,,,,,,,,,,,,,,,,,,,,,,,,,,,,,,,0.036111125,-0.235185199,0,0,1,sta.en,sta.en,0,40,40,31,1,stamen,images/br_stamen.png,images/cb_stamen.png
,,,,,,00068,2023-10-16_08h33.21.273,vbt_B2_day1,2022.2.4,Win32,60.67224851,,,,,,,,,,,,,,,,,,,,,,,,,,,,,,,,,,,,,,,,,,,0.009259259,-0.272222236,0,0,1,..bb...,..bb...,0,41,41,9,1,dubbel,images/br_dubbel.png,images/cb_dubbel.png
,,,,,,00068,2023-10-16_08h33.21.273,vbt_B2_day1,2022.2.4,Win32,60.67224851,,,,,,,,,,,,,,,,,,,,,,,,,,,,,,,,,,,,,,,,,,,0.02407406,-0.276851866,0,0,1,bleek,bleek,0,42,42,6,1,bleek,images/br_bleek.png,images/cb_bleek.png
,,,,,,00068,2023-10-16_08h33.21.273,vbt_B2_day1,2022.2.4,Win32,60.67224851,,,,,,,,,,,,,,,,,,,,,,,,,,,,,,,,,,,,,,,,,,,-0.061111097,-0.280555584,0,0,1,.ining,.ining,0,43,43,11,1,mening,images/br_mening.png,images/cb_mening.png
,,,,,,00068,2023-10-16_08h33.21.273,vbt_B2_day1,2022.2.4,Win32,60.67224851,,,,,,,,,,,,,,,,,,,,,,,,,,,,,,,,,,,,,,,,,,,-0.098148134,-0.248148176,0,0,1,b.i...,b.i...,0,44,44,25,1,brijk,images/br_brijk.png,images/cb_brijk.png
,,,,,,00068,2023-10-16_08h33.21.273,vbt_B2_day1,2022.2.4,Win32,60.67224851,,,,,,,,,,,,,,,,,,,,,,,,,,,,,,,,,,,,,,,,,,,-0.134259259,-0.282407407,0,0,1,la.a,la.a,0,45,45,43,1,lava,images/br_lava.png,images/cb_lava.png
,,,,,,00068,2023-10-16_08h33.21.273,vbt_B2_day1,2022.2.4,Win32,60.67224851,,,,,,,,,,,,,,,,,,,,,,,,,,,,,,,,,,,,,,,,,,,-0.123148106,-0.280555584,0,0,1,waa....,waa....,0,46,46,14,1,waarvan,images/br_waarvan.png,images/cb_waarvan.png
,,,,,,00068,2023-10-16_08h33.21.273,vbt_B2_day1,2022.2.4,Win32,60.67224851,,,,,,,,,,,,,,,,,,,,,,,,,,,,,,,,,,,,,,,,,,,-0.12962963,-0.23055557,0,0,1,....,....,0,47,47,8,1,kanjer,images/br_kanjer.png,images/cb_kanjer.png
,,,,,,00068,2023-10-16_08h33.21.273,vbt_B2_day1,2022.2.4,Win32,60.67224851,,,,,,,,,,,,,,,,,,,,,,,,,,,,,,,,,,,,,,,,,,,-0.036111125,-0.320370356,0,0,1,....l...,....l...,0,48,48,52,1,zuiplap,images/br_zuiplap.png,images/cb_zuiplap.png
,,,,,,00068,2023-10-16_08h33.21.273,vbt_B2_day1,2022.2.4,Win32,60.67224851,,,,,,,,,,,,,,,,,,,,,,,,,,,,,,,,,,,,,,,,,,,-0.155555513,-0.282407407,0,0,1,.oo....,.oo....,0,49,49,39,1,voorreur,images/br_voorreur.png,images/cb_voorreur.png
,,,,,,00068,2023-10-16_08h33.21.273,vbt_B2_day1,2022.2.4,Win32,60.67224851,,,,,,,,,,,,,,,,,,,,,,,,,,,,,,,,,,,,,,,,,,,-0.190740727,-0.275000042,0,0,1,.la...,.la...,0,50,50,7,1,klauw,images/br_klauw.png,images/cb_klauw.png
,,,,,,00068,2023-10-16_08h33.21.273,vbt_B2_day1,2022.2.4,Win32,60.67224851,,,,,,,,,,,,,,,,,,,,,,,,,,,,,,,,,,,,,,,,,,,-0.001851824,-0.263888889,0,0,1,slak,slak,0,51,51,0,1,slak,images/br_slak.png,images/cb_slak.png
,,,,,,00068,2023-10-16_08h33.21.273,vbt_B2_day1,2022.2.4,Win32,60.67224851,,,,,,,,,,,,,,,,,,,,,,,,,,,,,,,,,,,,,,,,,,,-0.193518533,-0.257407436,0,0,1,..e.,..e.,0,52,52,21,1,dred,images/br_dred.png,images/cb_dred.png
,,,,,,00068,2023-10-16_08h33.21.273,vbt_B2_day1,2022.2.4,Win32,60.67224851,,,,,,,,,,,,,,,,,,,,,,,,,,,,,,,,,,,,,,,,,,,-0.271296254,-0.253703718,0,0,1,....,....,0,53,53,18,1,uitdelen,images/br_uitdelen.png,images/cb_uitdelen.png
,,,,,,00068,2023-10-16_08h33.21.273,vbt_B2_day1,2022.2.4,Win32,60.67224851,,,,,,,,,,,,,,,,,,,,,,,,,,,,,,,,,,,,,,,,,,,-0.308333326,-0.219444487,0,0,1,....,....,0,54,54,38,1,schielen,images/br_schielen.png,images/cb_schielen.png
,,,,,,00068,2023-10-16_08h33.21.273,vbt_B2_day1,2022.2.4,Win32,60.67224851,,,,,,,,,,,,,,,,,,,,,,,,,,,,,,,,,,,,,,,,,,,-0.306481467,-0.225000028,0,0,1,schip,schip,0,55,55,4,1,schep,images/br_schep.png,images/cb_schep.png
,,,,,,00068,2023-10-16_08h33.21.273,vbt_B2_day1,2022.2.4,Win32,60.67224851,,,,,,,,,,,,,,,,,,,,,,,,,,,,,,,,,,,,,,,,,,,-0.211111069,-0.25462963,0,0,1,penep,penep,0,56,56,24,1,rezer,images/br_rezer.png,images/cb_rezer.png
,,,,,,00068,2023-10-16_08h33.21.273,vbt_B2_day1,2022.2.4,Win32,60.67224851,,,,,,,,,,,,,,,,,,,,,,,,,,,,,,,,,,,,,,,,,,,-0.155555513,-0.26944443,0,0,1,zeenen,zeenen,0,57,57,57,1,meenemen,images/br_meenemen.png,images/cb_meenemen.png
,,,,,,00068,2023-10-16_08h33.21.273,vbt_B2_day1,2022.2.4,Win32,60.67224851,,,,,,,,,,,,,,,,,,,,,,,,,,,,,,,,,,,,,,,,,,,-0.176851838,-0.262037065,0,0,1,gino..,gino..,0,58,58,29,1,genond,images/br_genond.png,images/cb_genond.png
,,,,,,00068,2023-10-16_08h33.21.273,vbt_B2_day1,2022.2.4,Win32,60.67224851,,,,,,,,,,,,,,,,,,,,,,,,,,,,,,,,,,,,,,,,,,,-0.156481496,-0.270370413,0,0,1,.l....,.l....,0,59,59,12,1,klimmen,images/br_klimmen.png,images/cb_klimmen.png
,,,,,,00068,2023-10-16_08h33.21.273,vbt_B2_day1,2022.2.4,Win32,60.67224851,,,,,,,,,,,,,,,,,,,,,,,,,,,,,,,,,,,,,,,,,,,,,,,,,,,,,,,,,
