welcome_mouse.x,welcome_mouse.y,welcome_mouse.leftButton,welcome_mouse.midButton,welcome_mouse.rightButton,welcome_mouse.time,"ID",date,expName,psychopyVersion,OS,frameRate,mouse_2.x,mouse_2.y,mouse_2.leftButton,mouse_2.midButton,mouse_2.rightButton,mouse_2.time,mouse_3.x,mouse_3.y,mouse_3.leftButton,mouse_3.midButton,mouse_3.rightButton,mouse_3.time,train_mouse.x,train_mouse.y,train_mouse.leftButton,train_mouse.midButton,train_mouse.rightButton,train_mouse.time,braille_mouse.x,braille_mouse.y,braille_mouse.leftButton,braille_mouse.midButton,braille_mouse.rightButton,braille_mouse.time,trials.thisRepN,trials.thisTrialN,trials.thisN,trials.thisIndex,trials.ran,nlLet,brLet,cbLet,mouse.x,mouse.y,mouse.leftButton,mouse.midButton,mouse.rightButton,testInstr_mouse.x,testInstr_mouse.y,testInstr_mouse.leftButton,testInstr_mouse.midButton,testInstr_mouse.rightButton,test_mouse.x,test_mouse.y,test_mouse.leftButton,test_mouse.midButton,test_mouse.rightButton,test_response.text,testResp,test_loop.thisRepN,test_loop.thisTrialN,test_loop.thisN,test_loop.thisIndex,test_loop.ran,nlWrd,brWrd,cbWrd
-0.049179687,-0.372083333,1,0,0,15.1485,00025,2023-09-03_10h23.41.680,vbt_B2_day1,2022.2.4,MacIntel,60.0024001,,,,,,,,,,,,,,,,,,,,,,,,,,,,,,,,,,,,,,,,,,,,,,,,,,,,,,,,,
,,,,,,00025,2023-09-03_10h23.41.680,vbt_B2_day1,2022.2.4,MacIntel,60.0024001,-0.048793403,-0.372083333,1,0,0,4.8961,,,,,,,,,,,,,,,,,,,,,,,,,,,,,,,,,,,,,,,,,,,,,,,,,,,
,,,,,,00025,2023-09-03_10h23.41.680,vbt_B2_day1,2022.2.4,MacIntel,60.0024001,,,,,,,-0.048237847,-0.372083333,1,0,0,18.7507,,,,,,,,,,,,,,,,,,,,,,,,,,,,,,,,,,,,,,,,,,,,,
,,,,,,00025,2023-09-03_10h23.41.680,vbt_B2_day1,2022.2.4,MacIntel,60.0024001,,,,,,,,,,,,,-0.047730035,-0.372083333,1,0,0,13.7165,,,,,,,,,,,,,,,,,,,,,,,,,,,,,,,,,,,,,,,
,,,,,,00025,2023-09-03_10h23.41.680,vbt_B2_day1,2022.2.4,MacIntel,60.0024001,,,,,,,,,,,,,,,,,,,0.272074653,0.284787326,1,0,0,3.7332,0,0,0,6,1,g,images/br_g.png,images/cb_g.png,,,,,,,,,,,,,,,,,,,,,,,,,
,,,,,,00025,2023-09-03_10h23.41.680,vbt_B2_day1,2022.2.4,MacIntel,60.0024001,,,,,,,,,,,,,,,,,,,0.27155816,0.285047743,1,0,0,2.735,0,1,1,20,1,u,images/br_u.png,images/cb_u.png,,,,,,,,,,,,,,,,,,,,,,,,,
,,,,,,00025,2023-09-03_10h23.41.680,vbt_B2_day1,2022.2.4,MacIntel,60.0024001,,,,,,,,,,,,,,,,,,,0.27155816,0.285047743,1,0,0,3.4854,0,2,2,10,1,k,images/br_k.png,images/cb_k.png,,,,,,,,,,,,,,,,,,,,,,,,,
,,,,,,00025,2023-09-03_10h23.41.680,vbt_B2_day1,2022.2.4,MacIntel,60.0024001,,,,,,,,,,,,,,,,,,,0.272634549,0.283984375,1,0,0,2.532,0,3,3,22,1,w,images/br_w.png,images/cb_w.png,,,,,,,,,,,,,,,,,,,,,,,,,
,,,,,,00025,2023-09-03_10h23.41.680,vbt_B2_day1,2022.2.4,MacIntel,60.0024001,,,,,,,,,,,,,,,,,,,0.272634549,0.283984375,1,0,0,3.5833,0,4,4,1,1,b,images/br_b.png,images/cb_b.png,,,,,,,,,,,,,,,,,,,,,,,,,
,,,,,,00025,2023-09-03_10h23.41.680,vbt_B2_day1,2022.2.4,MacIntel,60.0024001,,,,,,,,,,,,,,,,,,,0.272634549,0.283984375,1,0,0,1.9323,0,5,5,12,1,m,images/br_m.png,images/cb_m.png,,,,,,,,,,,,,,,,,,,,,,,,,
,,,,,,00025,2023-09-03_10h23.41.680,vbt_B2_day1,2022.2.4,MacIntel,60.0024001,,,,,,,,,,,,,,,,,,,0.272886285,0.283984375,1,0,0,1.2661,0,6,6,25,1,z,images/br_z.png,images/cb_z.png,,,,,,,,,,,,,,,,,,,,,,,,,
,,,,,,00025,2023-09-03_10h23.41.680,vbt_B2_day1,2022.2.4,MacIntel,60.0024001,,,,,,,,,,,,,,,,,,,0.272886285,0.283984375,1,0,0,0.2159,0,7,7,17,1,r,images/br_r.png,images/cb_r.png,,,,,,,,,,,,,,,,,,,,,,,,,
,,,,,,00025,2023-09-03_10h23.41.680,vbt_B2_day1,2022.2.4,MacIntel,60.0024001,,,,,,,,,,,,,,,,,,,0.272886285,0.283858507,1,0,0,0.3154,0,8,8,7,1,h,images/br_h.png,images/cb_h.png,,,,,,,,,,,,,,,,,,,,,,,,,
,,,,,,00025,2023-09-03_10h23.41.680,vbt_B2_day1,2022.2.4,MacIntel,60.0024001,,,,,,,,,,,,,,,,,,,0.274092882,0.282721354,1,0,0,3.7018,0,9,9,4,1,e,images/br_e.png,images/cb_e.png,,,,,,,,,,,,,,,,,,,,,,,,,
,,,,,,00025,2023-09-03_10h23.41.680,vbt_B2_day1,2022.2.4,MacIntel,60.0024001,,,,,,,,,,,,,,,,,,,0.276397569,0.281901042,1,0,0,3.1835,0,10,10,9,1,j,images/br_j.png,images/cb_j.png,,,,,,,,,,,,,,,,,,,,,,,,,
,,,,,,00025,2023-09-03_10h23.41.680,vbt_B2_day1,2022.2.4,MacIntel,60.0024001,,,,,,,,,,,,,,,,,,,0.274518229,0.284110243,1,0,0,1.8978,0,11,11,23,1,x,images/br_x.png,images/cb_x.png,,,,,,,,,,,,,,,,,,,,,,,,,
,,,,,,00025,2023-09-03_10h23.41.680,vbt_B2_day1,2022.2.4,MacIntel,60.0024001,,,,,,,,,,,,,,,,,,,0.274518229,0.284110243,1,0,0,2.967,0,12,12,19,1,t,images/br_t.png,images/cb_t.png,,,,,,,,,,,,,,,,,,,,,,,,,
,,,,,,00025,2023-09-03_10h23.41.680,vbt_B2_day1,2022.2.4,MacIntel,60.0024001,,,,,,,,,,,,,,,,,,,0.275477431,0.283975694,1,0,0,0.5155,0,13,13,14,1,o,images/br_o.png,images/cb_o.png,,,,,,,,,,,,,,,,,,,,,,,,,
,,,,,,00025,2023-09-03_10h23.41.680,vbt_B2_day1,2022.2.4,MacIntel,60.0024001,,,,,,,,,,,,,,,,,,,0.276032986,0.283420139,1,0,0,0.5345,0,14,14,8,1,i,images/br_i.png,images/cb_i.png,,,,,,,,,,,,,,,,,,,,,,,,,
,,,,,,00025,2023-09-03_10h23.41.680,vbt_B2_day1,2022.2.4,MacIntel,60.0024001,,,,,,,,,,,,,,,,,,,0.232170139,0.133697917,1,0,0,3.0011,0,15,15,15,1,p,images/br_p.png,images/cb_p.png,,,,,,,,,,,,,,,,,,,,,,,,,
,,,,,,00025,2023-09-03_10h23.41.680,vbt_B2_day1,2022.2.4,MacIntel,60.0024001,,,,,,,,,,,,,,,,,,,0.232170139,0.133697917,1,0,0,1.9853,0,16,16,5,1,f,images/br_f.png,images/cb_f.png,,,,,,,,,,,,,,,,,,,,,,,,,
,,,,,,00025,2023-09-03_10h23.41.680,vbt_B2_day1,2022.2.4,MacIntel,60.0024001,,,,,,,,,,,,,,,,,,,0.232170139,0.133697917,1,0,0,0.1666,0,17,17,24,1,y,images/br_y.png,images/cb_y.png,,,,,,,,,,,,,,,,,,,,,,,,,
,,,,,,00025,2023-09-03_10h23.41.680,vbt_B2_day1,2022.2.4,MacIntel,60.0024001,,,,,,,,,,,,,,,,,,,0.232170139,0.133697917,1,0,0,2.7673,0,18,18,16,1,q,images/br_q.png,images/cb_q.png,,,,,,,,,,,,,,,,,,,,,,,,,
,,,,,,00025,2023-09-03_10h23.41.680,vbt_B2_day1,2022.2.4,MacIntel,60.0024001,,,,,,,,,,,,,,,,,,,0.232170139,0.133697917,1,0,0,0.9176,0,19,19,21,1,v,images/br_v.png,images/cb_v.png,,,,,,,,,,,,,,,,,,,,,,,,,
,,,,,,00025,2023-09-03_10h23.41.680,vbt_B2_day1,2022.2.4,MacIntel,60.0024001,,,,,,,,,,,,,,,,,,,0.232170139,0.133697917,1,0,0,2.6181,0,20,20,2,1,c,images/br_c.png,images/cb_c.png,,,,,,,,,,,,,,,,,,,,,,,,,
,,,,,,00025,2023-09-03_10h23.41.680,vbt_B2_day1,2022.2.4,MacIntel,60.0024001,,,,,,,,,,,,,,,,,,,0.232170139,0.133697917,1,0,0,0.0676,0,21,21,18,1,s,images/br_s.png,images/cb_s.png,,,,,,,,,,,,,,,,,,,,,,,,,
,,,,,,00025,2023-09-03_10h23.41.680,vbt_B2_day1,2022.2.4,MacIntel,60.0024001,,,,,,,,,,,,,,,,,,,0.219960938,0.078381076,1,0,0,2.3992,0,22,22,3,1,d,images/br_d.png,images/cb_d.png,,,,,,,,,,,,,,,,,,,,,,,,,
,,,,,,00025,2023-09-03_10h23.41.680,vbt_B2_day1,2022.2.4,MacIntel,60.0024001,,,,,,,,,,,,,,,,,,,0.219960938,0.079722222,1,0,0,1.0156,0,23,23,11,1,l,images/br_l.png,images/cb_l.png,,,,,,,,,,,,,,,,,,,,,,,,,
,,,,,,00025,2023-09-03_10h23.41.680,vbt_B2_day1,2022.2.4,MacIntel,60.0024001,,,,,,,,,,,,,,,,,,,0.220486111,0.079722222,1,0,0,0.0492,0,24,24,0,1,a,images/br_a.png,images/cb_a.png,,,,,,,,,,,,,,,,,,,,,,,,,
,,,,,,00025,2023-09-03_10h23.41.680,vbt_B2_day1,2022.2.4,MacIntel,60.0024001,,,,,,,,,,,,,,,,,,,0.220486111,0.08,1,0,0,0.6497,0,25,25,13,1,n,images/br_n.png,images/cb_n.png,,,,,,,,,,,,,,,,,,,,,,,,,
,,,,,,00025,2023-09-03_10h23.41.680,vbt_B2_day1,2022.2.4,MacIntel,60.0024001,,,,,,,,,,,,,,,,,,,0.220486111,0.08,1,0,0,2.2175,1,0,26,19,1,t,images/br_t.png,images/cb_t.png,,,,,,,,,,,,,,,,,,,,,,,,,
,,,,,,00025,2023-09-03_10h23.41.680,vbt_B2_day1,2022.2.4,MacIntel,60.0024001,,,,,,,,,,,,,,,,,,,0.220486111,0.08,1,0,0,0.9502,1,1,27,16,1,q,images/br_q.png,images/cb_q.png,,,,,,,,,,,,,,,,,,,,,,,,,
,,,,,,00025,2023-09-03_10h23.41.680,vbt_B2_day1,2022.2.4,MacIntel,60.0024001,,,,,,,,,,,,,,,,,,,0.220998264,0.073849826,1,0,0,3.5167,1,2,28,24,1,y,images/br_y.png,images/cb_y.png,,,,,,,,,,,,,,,,,,,,,,,,,
,,,,,,00025,2023-09-03_10h23.41.680,vbt_B2_day1,2022.2.4,MacIntel,60.0024001,,,,,,,,,,,,,,,,,,,0.220998264,0.073849826,1,0,0,2.7509,1,3,29,25,1,z,images/br_z.png,images/cb_z.png,,,,,,,,,,,,,,,,,,,,,,,,,
,,,,,,00025,2023-09-03_10h23.41.680,vbt_B2_day1,2022.2.4,MacIntel,60.0024001,,,,,,,,,,,,,,,,,,,0.220998264,0.073849826,1,0,0,2.2819,1,4,30,5,1,f,images/br_f.png,images/cb_f.png,,,,,,,,,,,,,,,,,,,,,,,,,
,,,,,,00025,2023-09-03_10h23.41.680,vbt_B2_day1,2022.2.4,MacIntel,60.0024001,,,,,,,,,,,,,,,,,,,0.220998264,0.073849826,1,0,0,2.152,1,5,31,1,1,b,images/br_b.png,images/cb_b.png,,,,,,,,,,,,,,,,,,,,,,,,,
,,,,,,00025,2023-09-03_10h23.41.680,vbt_B2_day1,2022.2.4,MacIntel,60.0024001,,,,,,,,,,,,,,,,,,,0.220998264,0.073849826,1,0,0,0.5165,1,6,32,21,1,v,images/br_v.png,images/cb_v.png,,,,,,,,,,,,,,,,,,,,,,,,,
,,,,,,00025,2023-09-03_10h23.41.680,vbt_B2_day1,2022.2.4,MacIntel,60.0024001,,,,,,,,,,,,,,,,,,,0.220998264,0.073849826,1,0,0,0.5175,1,7,33,17,1,r,images/br_r.png,images/cb_r.png,,,,,,,,,,,,,,,,,,,,,,,,,
,,,,,,00025,2023-09-03_10h23.41.680,vbt_B2_day1,2022.2.4,MacIntel,60.0024001,,,,,,,,,,,,,,,,,,,0.220998264,0.073849826,1,0,0,3.7492,1,8,34,23,1,x,images/br_x.png,images/cb_x.png,,,,,,,,,,,,,,,,,,,,,,,,,
,,,,,,00025,2023-09-03_10h23.41.680,vbt_B2_day1,2022.2.4,MacIntel,60.0024001,,,,,,,,,,,,,,,,,,,0.220998264,0.073849826,1,0,0,1.3514,1,9,35,12,1,m,images/br_m.png,images/cb_m.png,,,,,,,,,,,,,,,,,,,,,,,,,
,,,,,,00025,2023-09-03_10h23.41.680,vbt_B2_day1,2022.2.4,MacIntel,60.0024001,,,,,,,,,,,,,,,,,,,0.220998264,0.073849826,1,0,0,0.5496,1,10,36,9,1,j,images/br_j.png,images/cb_j.png,,,,,,,,,,,,,,,,,,,,,,,,,
,,,,,,00025,2023-09-03_10h23.41.680,vbt_B2_day1,2022.2.4,MacIntel,60.0024001,,,,,,,,,,,,,,,,,,,0.220998264,0.073849826,1,0,0,0.3328,1,11,37,14,1,o,images/br_o.png,images/cb_o.png,,,,,,,,,,,,,,,,,,,,,,,,,
,,,,,,00025,2023-09-03_10h23.41.680,vbt_B2_day1,2022.2.4,MacIntel,60.0024001,,,,,,,,,,,,,,,,,,,0.220998264,0.073849826,1,0,0,1.1335,1,12,38,4,1,e,images/br_e.png,images/cb_e.png,,,,,,,,,,,,,,,,,,,,,,,,,
,,,,,,00025,2023-09-03_10h23.41.680,vbt_B2_day1,2022.2.4,MacIntel,60.0024001,,,,,,,,,,,,,,,,,,,0.220998264,0.073849826,1,0,0,0.8818,1,13,39,7,1,h,images/br_h.png,images/cb_h.png,,,,,,,,,,,,,,,,,,,,,,,,,
,,,,,,00025,2023-09-03_10h23.41.680,vbt_B2_day1,2022.2.4,MacIntel,60.0024001,,,,,,,,,,,,,,,,,,,0.220998264,0.073849826,1,0,0,1.15,1,14,40,18,1,s,images/br_s.png,images/cb_s.png,,,,,,,,,,,,,,,,,,,,,,,,,
,,,,,,00025,2023-09-03_10h23.41.680,vbt_B2_day1,2022.2.4,MacIntel,60.0024001,,,,,,,,,,,,,,,,,,,0.220998264,0.073849826,1,0,0,0.7694,1,15,41,6,1,g,images/br_g.png,images/cb_g.png,,,,,,,,,,,,,,,,,,,,,,,,,
,,,,,,00025,2023-09-03_10h23.41.680,vbt_B2_day1,2022.2.4,MacIntel,60.0024001,,,,,,,,,,,,,,,,,,,0.221992187,0.073463542,1,0,0,2.4506,1,16,42,2,1,c,images/br_c.png,images/cb_c.png,,,,,,,,,,,,,,,,,,,,,,,,,
,,,,,,00025,2023-09-03_10h23.41.680,vbt_B2_day1,2022.2.4,MacIntel,60.0024001,,,,,,,,,,,,,,,,,,,0.222547743,0.072907986,1,0,0,6.5339,1,17,43,20,1,u,images/br_u.png,images/cb_u.png,,,,,,,,,,,,,,,,,,,,,,,,,
,,,,,,00025,2023-09-03_10h23.41.680,vbt_B2_day1,2022.2.4,MacIntel,60.0024001,,,,,,,,,,,,,,,,,,,0.222547743,0.072907986,1,0,0,1.5686,1,18,44,0,1,a,images/br_a.png,images/cb_a.png,,,,,,,,,,,,,,,,,,,,,,,,,
,,,,,,00025,2023-09-03_10h23.41.680,vbt_B2_day1,2022.2.4,MacIntel,60.0024001,,,,,,,,,,,,,,,,,,,0.222547743,0.072907986,1,0,0,0.882,1,19,45,11,1,l,images/br_l.png,images/cb_l.png,,,,,,,,,,,,,,,,,,,,,,,,,
,,,,,,00025,2023-09-03_10h23.41.680,vbt_B2_day1,2022.2.4,MacIntel,60.0024001,,,,,,,,,,,,,,,,,,,0.222547743,0.072907986,1,0,0,1.8344,1,20,46,10,1,k,images/br_k.png,images/cb_k.png,,,,,,,,,,,,,,,,,,,,,,,,,
,,,,,,00025,2023-09-03_10h23.41.680,vbt_B2_day1,2022.2.4,MacIntel,60.0024001,,,,,,,,,,,,,,,,,,,0.222547743,0.072907986,1,0,0,8.0179,1,21,47,8,1,i,images/br_i.png,images/cb_i.png,,,,,,,,,,,,,,,,,,,,,,,,,
,,,,,,00025,2023-09-03_10h23.41.680,vbt_B2_day1,2022.2.4,MacIntel,60.0024001,,,,,,,,,,,,,,,,,,,0.222547743,0.072907986,1,0,0,44.5538,1,22,48,15,1,p,images/br_p.png,images/cb_p.png,,,,,,,,,,,,,,,,,,,,,,,,,
,,,,,,00025,2023-09-03_10h23.41.680,vbt_B2_day1,2022.2.4,MacIntel,60.0024001,,,,,,,,,,,,,,,,,,,0.222547743,0.072907986,1,0,0,1.7019,1,23,49,22,1,w,images/br_w.png,images/cb_w.png,,,,,,,,,,,,,,,,,,,,,,,,,
,,,,,,00025,2023-09-03_10h23.41.680,vbt_B2_day1,2022.2.4,MacIntel,60.0024001,,,,,,,,,,,,,,,,,,,0.222547743,0.072907986,1,0,0,11.718,1,24,50,13,1,n,images/br_n.png,images/cb_n.png,,,,,,,,,,,,,,,,,,,,,,,,,
,,,,,,00025,2023-09-03_10h23.41.680,vbt_B2_day1,2022.2.4,MacIntel,60.0024001,,,,,,,,,,,,,,,,,,,0.222547743,0.072907986,1,0,0,4.6158,1,25,51,3,1,d,images/br_d.png,images/cb_d.png,,,,,,,,,,,,,,,,,,,,,,,,,
,,,,,,00025,2023-09-03_10h23.41.680,vbt_B2_day1,2022.2.4,MacIntel,60.0024001,,,,,,,,,,,,,,,,,,,0.222547743,0.072907986,1,0,0,30.0727,2,0,52,24,1,y,images/br_y.png,images/cb_y.png,,,,,,,,,,,,,,,,,,,,,,,,,
,,,,,,00025,2023-09-03_10h23.41.680,vbt_B2_day1,2022.2.4,MacIntel,60.0024001,,,,,,,,,,,,,,,,,,,0.222287326,0.073940972,1,0,0,2.4164,2,1,53,10,1,k,images/br_k.png,images/cb_k.png,,,,,,,,,,,,,,,,,,,,,,,,,
,,,,,,00025,2023-09-03_10h23.41.680,vbt_B2_day1,2022.2.4,MacIntel,60.0024001,,,,,,,,,,,,,,,,,,,0.222287326,0.073940972,1,0,0,2.334,2,2,54,6,1,g,images/br_g.png,images/cb_g.png,,,,,,,,,,,,,,,,,,,,,,,,,
,,,,,,00025,2023-09-03_10h23.41.680,vbt_B2_day1,2022.2.4,MacIntel,60.0024001,,,,,,,,,,,,,,,,,,,0.222287326,0.073940972,1,0,0,0.0491,2,3,55,23,1,x,images/br_x.png,images/cb_x.png,,,,,,,,,,,,,,,,,,,,,,,,,
,,,,,,00025,2023-09-03_10h23.41.680,vbt_B2_day1,2022.2.4,MacIntel,60.0024001,,,,,,,,,,,,,,,,,,,0.212708333,0.078007812,1,0,0,0.9194,2,4,56,5,1,f,images/br_f.png,images/cb_f.png,,,,,,,,,,,,,,,,,,,,,,,,,
,,,,,,00025,2023-09-03_10h23.41.680,vbt_B2_day1,2022.2.4,MacIntel,60.0024001,,,,,,,,,,,,,,,,,,,0.213246528,0.078007812,1,0,0,1.3659,2,5,57,21,1,v,images/br_v.png,images/cb_v.png,,,,,,,,,,,,,,,,,,,,,,,,,
,,,,,,00025,2023-09-03_10h23.41.680,vbt_B2_day1,2022.2.4,MacIntel,60.0024001,,,,,,,,,,,,,,,,,,,0.214652778,0.078007812,1,0,0,0.7696,2,6,58,16,1,q,images/br_q.png,images/cb_q.png,,,,,,,,,,,,,,,,,,,,,,,,,
,,,,,,00025,2023-09-03_10h23.41.680,vbt_B2_day1,2022.2.4,MacIntel,60.0024001,,,,,,,,,,,,,,,,,,,0.214652778,0.078007812,1,0,0,0.0706,2,7,59,4,1,e,images/br_e.png,images/cb_e.png,,,,,,,,,,,,,,,,,,,,,,,,,
,,,,,,00025,2023-09-03_10h23.41.680,vbt_B2_day1,2022.2.4,MacIntel,60.0024001,,,,,,,,,,,,,,,,,,,0.214652778,0.078007812,1,0,0,10.1154,2,8,60,0,1,a,images/br_a.png,images/cb_a.png,,,,,,,,,,,,,,,,,,,,,,,,,
,,,,,,00025,2023-09-03_10h23.41.680,vbt_B2_day1,2022.2.4,MacIntel,60.0024001,,,,,,,,,,,,,,,,,,,0.214652778,0.078007812,1,0,0,0.0838,2,9,61,11,1,l,images/br_l.png,images/cb_l.png,,,,,,,,,,,,,,,,,,,,,,,,,
,,,,,,00025,2023-09-03_10h23.41.680,vbt_B2_day1,2022.2.4,MacIntel,60.0024001,,,,,,,,,,,,,,,,,,,0.214652778,0.078007812,1,0,0,0.6161,2,10,62,1,1,b,images/br_b.png,images/cb_b.png,,,,,,,,,,,,,,,,,,,,,,,,,
,,,,,,00025,2023-09-03_10h23.41.680,vbt_B2_day1,2022.2.4,MacIntel,60.0024001,,,,,,,,,,,,,,,,,,,0.214652778,0.078007812,1,0,0,2.234,2,11,63,22,1,w,images/br_w.png,images/cb_w.png,,,,,,,,,,,,,,,,,,,,,,,,,
,,,,,,00025,2023-09-03_10h23.41.680,vbt_B2_day1,2022.2.4,MacIntel,60.0024001,,,,,,,,,,,,,,,,,,,0.214939236,0.07640191,1,0,0,0.834,2,12,64,25,1,z,images/br_z.png,images/cb_z.png,,,,,,,,,,,,,,,,,,,,,,,,,
,,,,,,00025,2023-09-03_10h23.41.680,vbt_B2_day1,2022.2.4,MacIntel,60.0024001,,,,,,,,,,,,,,,,,,,0.214939236,0.07640191,1,0,0,3.8016,2,13,65,15,1,p,images/br_p.png,images/cb_p.png,,,,,,,,,,,,,,,,,,,,,,,,,
,,,,,,00025,2023-09-03_10h23.41.680,vbt_B2_day1,2022.2.4,MacIntel,60.0024001,,,,,,,,,,,,,,,,,,,0.214939236,0.07640191,1,0,0,0.6838,2,14,66,2,1,c,images/br_c.png,images/cb_c.png,,,,,,,,,,,,,,,,,,,,,,,,,
,,,,,,00025,2023-09-03_10h23.41.680,vbt_B2_day1,2022.2.4,MacIntel,60.0024001,,,,,,,,,,,,,,,,,,,0.214939236,0.07640191,1,0,0,6.0999,2,15,67,9,1,j,images/br_j.png,images/cb_j.png,,,,,,,,,,,,,,,,,,,,,,,,,
,,,,,,00025,2023-09-03_10h23.41.680,vbt_B2_day1,2022.2.4,MacIntel,60.0024001,,,,,,,,,,,,,,,,,,,0.214939236,0.07640191,1,0,0,1.1518,2,16,68,8,1,i,images/br_i.png,images/cb_i.png,,,,,,,,,,,,,,,,,,,,,,,,,
,,,,,,00025,2023-09-03_10h23.41.680,vbt_B2_day1,2022.2.4,MacIntel,60.0024001,,,,,,,,,,,,,,,,,,,0.214939236,0.07640191,1,0,0,8.2533,2,17,69,17,1,r,images/br_r.png,images/cb_r.png,,,,,,,,,,,,,,,,,,,,,,,,,
,,,,,,00025,2023-09-03_10h23.41.680,vbt_B2_day1,2022.2.4,MacIntel,60.0024001,,,,,,,,,,,,,,,,,,,0.214939236,0.07640191,1,0,0,1.8352,2,18,70,13,1,n,images/br_n.png,images/cb_n.png,,,,,,,,,,,,,,,,,,,,,,,,,
,,,,,,00025,2023-09-03_10h23.41.680,vbt_B2_day1,2022.2.4,MacIntel,60.0024001,,,,,,,,,,,,,,,,,,,0.214939236,0.07640191,1,0,0,0.3502,2,19,71,20,1,u,images/br_u.png,images/cb_u.png,,,,,,,,,,,,,,,,,,,,,,,,,
,,,,,,00025,2023-09-03_10h23.41.680,vbt_B2_day1,2022.2.4,MacIntel,60.0024001,,,,,,,,,,,,,,,,,,,0.214939236,0.07640191,1,0,0,0.1825,2,20,72,18,1,s,images/br_s.png,images/cb_s.png,,,,,,,,,,,,,,,,,,,,,,,,,
,,,,,,00025,2023-09-03_10h23.41.680,vbt_B2_day1,2022.2.4,MacIntel,60.0024001,,,,,,,,,,,,,,,,,,,0.214939236,0.07640191,1,0,0,11.5014,2,21,73,19,1,t,images/br_t.png,images/cb_t.png,,,,,,,,,,,,,,,,,,,,,,,,,
,,,,,,00025,2023-09-03_10h23.41.680,vbt_B2_day1,2022.2.4,MacIntel,60.0024001,,,,,,,,,,,,,,,,,,,0.214939236,0.078506944,1,0,0,10.7352,2,22,74,12,1,m,images/br_m.png,images/cb_m.png,,,,,,,,,,,,,,,,,,,,,,,,,
,,,,,,00025,2023-09-03_10h23.41.680,vbt_B2_day1,2022.2.4,MacIntel,60.0024001,,,,,,,,,,,,,,,,,,,0.213519965,0.075928819,1,0,0,1.65,2,23,75,7,1,h,images/br_h.png,images/cb_h.png,,,,,,,,,,,,,,,,,,,,,,,,,
,,,,,,00025,2023-09-03_10h23.41.680,vbt_B2_day1,2022.2.4,MacIntel,60.0024001,,,,,,,,,,,,,,,,,,,0.21296441,0.077790799,1,0,0,19.2677,2,24,76,3,1,d,images/br_d.png,images/cb_d.png,,,,,,,,,,,,,,,,,,,,,,,,,
,,,,,,00025,2023-09-03_10h23.41.680,vbt_B2_day1,2022.2.4,MacIntel,60.0024001,,,,,,,,,,,,,,,,,,,0.21296441,0.077790799,1,0,0,32.0877,2,25,77,14,1,o,images/br_o.png,images/cb_o.png,,,,,,,,,,,,,,,,,,,,,,,,,
,,,,,,00025,2023-09-03_10h23.41.680,vbt_B2_day1,2022.2.4,MacIntel,60.0024001,,,,,,,,,,,,,,,,,,,0.21296441,0.077790799,1,0,0,6.3849,3,0,78,18,1,s,images/br_s.png,images/cb_s.png,,,,,,,,,,,,,,,,,,,,,,,,,
,,,,,,00025,2023-09-03_10h23.41.680,vbt_B2_day1,2022.2.4,MacIntel,60.0024001,,,,,,,,,,,,,,,,,,,0.21296441,0.077790799,1,0,0,1.3851,3,1,79,17,1,r,images/br_r.png,images/cb_r.png,,,,,,,,,,,,,,,,,,,,,,,,,
,,,,,,00025,2023-09-03_10h23.41.680,vbt_B2_day1,2022.2.4,MacIntel,60.0024001,,,,,,,,,,,,,,,,,,,0.209956597,0.069505208,1,0,0,14.797,3,2,80,7,1,h,images/br_h.png,images/cb_h.png,,,,,,,,,,,,,,,,,,,,,,,,,
,,,,,,00025,2023-09-03_10h23.41.680,vbt_B2_day1,2022.2.4,MacIntel,60.0024001,,,,,,,,,,,,,,,,,,,0.209956597,0.069505208,1,0,0,0.6481,3,3,81,8,1,i,images/br_i.png,images/cb_i.png,,,,,,,,,,,,,,,,,,,,,,,,,
,,,,,,00025,2023-09-03_10h23.41.680,vbt_B2_day1,2022.2.4,MacIntel,60.0024001,,,,,,,,,,,,,,,,,,,0.209956597,0.069505208,1,0,0,1.7328,3,4,82,4,1,e,images/br_e.png,images/cb_e.png,,,,,,,,,,,,,,,,,,,,,,,,,
,,,,,,00025,2023-09-03_10h23.41.680,vbt_B2_day1,2022.2.4,MacIntel,60.0024001,,,,,,,,,,,,,,,,,,,0.209956597,0.069505208,1,0,0,1.285,3,5,83,16,1,q,images/br_q.png,images/cb_q.png,,,,,,,,,,,,,,,,,,,,,,,,,
,,,,,,00025,2023-09-03_10h23.41.680,vbt_B2_day1,2022.2.4,MacIntel,60.0024001,,,,,,,,,,,,,,,,,,,0.209956597,0.069505208,1,0,0,0.4012,3,6,84,3,1,d,images/br_d.png,images/cb_d.png,,,,,,,,,,,,,,,,,,,,,,,,,
,,,,,,00025,2023-09-03_10h23.41.680,vbt_B2_day1,2022.2.4,MacIntel,60.0024001,,,,,,,,,,,,,,,,,,,0.209956597,0.069505208,1,0,0,0.4999,3,7,85,9,1,j,images/br_j.png,images/cb_j.png,,,,,,,,,,,,,,,,,,,,,,,,,
,,,,,,00025,2023-09-03_10h23.41.680,vbt_B2_day1,2022.2.4,MacIntel,60.0024001,,,,,,,,,,,,,,,,,,,0.209956597,0.069505208,1,0,0,0.7004,3,8,86,2,1,c,images/br_c.png,images/cb_c.png,,,,,,,,,,,,,,,,,,,,,,,,,
,,,,,,00025,2023-09-03_10h23.41.680,vbt_B2_day1,2022.2.4,MacIntel,60.0024001,,,,,,,,,,,,,,,,,,,0.209956597,0.069505208,1,0,0,7.067,3,9,87,12,1,m,images/br_m.png,images/cb_m.png,,,,,,,,,,,,,,,,,,,,,,,,,
,,,,,,00025,2023-09-03_10h23.41.680,vbt_B2_day1,2022.2.4,MacIntel,60.0024001,,,,,,,,,,,,,,,,,,,0.209956597,0.069505208,1,0,0,0.7834,3,10,88,14,1,o,images/br_o.png,images/cb_o.png,,,,,,,,,,,,,,,,,,,,,,,,,
,,,,,,00025,2023-09-03_10h23.41.680,vbt_B2_day1,2022.2.4,MacIntel,60.0024001,,,,,,,,,,,,,,,,,,,0.21047309,0.068706597,1,0,0,13.8838,3,11,89,10,1,k,images/br_k.png,images/cb_k.png,,,,,,,,,,,,,,,,,,,,,,,,,
,,,,,,00025,2023-09-03_10h23.41.680,vbt_B2_day1,2022.2.4,MacIntel,60.0024001,,,,,,,,,,,,,,,,,,,0.21047309,0.068706597,1,0,0,1.6004,3,12,90,0,1,a,images/br_a.png,images/cb_a.png,,,,,,,,,,,,,,,,,,,,,,,,,
,,,,,,00025,2023-09-03_10h23.41.680,vbt_B2_day1,2022.2.4,MacIntel,60.0024001,,,,,,,,,,,,,,,,,,,0.21047309,0.068706597,1,0,0,0.4837,3,13,91,15,1,p,images/br_p.png,images/cb_p.png,,,,,,,,,,,,,,,,,,,,,,,,,
,,,,,,00025,2023-09-03_10h23.41.680,vbt_B2_day1,2022.2.4,MacIntel,60.0024001,,,,,,,,,,,,,,,,,,,0.21047309,0.068706597,1,0,0,19.9206,3,14,92,23,1,x,images/br_x.png,images/cb_x.png,,,,,,,,,,,,,,,,,,,,,,,,,
,,,,,,00025,2023-09-03_10h23.41.680,vbt_B2_day1,2022.2.4,MacIntel,60.0024001,,,,,,,,,,,,,,,,,,,0.21047309,0.068706597,1,0,0,9.8186,3,15,93,13,1,n,images/br_n.png,images/cb_n.png,,,,,,,,,,,,,,,,,,,,,,,,,
,,,,,,00025,2023-09-03_10h23.41.680,vbt_B2_day1,2022.2.4,MacIntel,60.0024001,,,,,,,,,,,,,,,,,,,0.213572049,0.067695312,1,0,0,0.5487,3,16,94,22,1,w,images/br_w.png,images/cb_w.png,,,,,,,,,,,,,,,,,,,,,,,,,
,,,,,,00025,2023-09-03_10h23.41.680,vbt_B2_day1,2022.2.4,MacIntel,60.0024001,,,,,,,,,,,,,,,,,,,0.215794271,0.067139757,1,0,0,0.9173,3,17,95,20,1,u,images/br_u.png,images/cb_u.png,,,,,,,,,,,,,,,,,,,,,,,,,
,,,,,,00025,2023-09-03_10h23.41.680,vbt_B2_day1,2022.2.4,MacIntel,60.0024001,,,,,,,,,,,,,,,,,,,0.215794271,0.067139757,1,0,0,10.9157,3,18,96,19,1,t,images/br_t.png,images/cb_t.png,,,,,,,,,,,,,,,,,,,,,,,,,
,,,,,,00025,2023-09-03_10h23.41.680,vbt_B2_day1,2022.2.4,MacIntel,60.0024001,,,,,,,,,,,,,,,,,,,0.215794271,0.067139757,1,0,0,0.1343,3,19,97,25,1,z,images/br_z.png,images/cb_z.png,,,,,,,,,,,,,,,,,,,,,,,,,
,,,,,,00025,2023-09-03_10h23.41.680,vbt_B2_day1,2022.2.4,MacIntel,60.0024001,,,,,,,,,,,,,,,,,,,0.215794271,0.067139757,1,0,0,0.2989,3,20,98,11,1,l,images/br_l.png,images/cb_l.png,,,,,,,,,,,,,,,,,,,,,,,,,
,,,,,,00025,2023-09-03_10h23.41.680,vbt_B2_day1,2022.2.4,MacIntel,60.0024001,,,,,,,,,,,,,,,,,,,0.215794271,0.067139757,1,0,0,12.3514,3,21,99,21,1,v,images/br_v.png,images/cb_v.png,,,,,,,,,,,,,,,,,,,,,,,,,
,,,,,,00025,2023-09-03_10h23.41.680,vbt_B2_day1,2022.2.4,MacIntel,60.0024001,,,,,,,,,,,,,,,,,,,0.215794271,0.067139757,1,0,0,1.8186,3,22,100,1,1,b,images/br_b.png,images/cb_b.png,,,,,,,,,,,,,,,,,,,,,,,,,
,,,,,,00025,2023-09-03_10h23.41.680,vbt_B2_day1,2022.2.4,MacIntel,60.0024001,,,,,,,,,,,,,,,,,,,0.215794271,0.067139757,1,0,0,0.5509,3,23,101,5,1,f,images/br_f.png,images/cb_f.png,,,,,,,,,,,,,,,,,,,,,,,,,
,,,,,,00025,2023-09-03_10h23.41.680,vbt_B2_day1,2022.2.4,MacIntel,60.0024001,,,,,,,,,,,,,,,,,,,0.215794271,0.067139757,1,0,0,0.2999,3,24,102,24,1,y,images/br_y.png,images/cb_y.png,,,,,,,,,,,,,,,,,,,,,,,,,
,,,,,,00025,2023-09-03_10h23.41.680,vbt_B2_day1,2022.2.4,MacIntel,60.0024001,,,,,,,,,,,,,,,,,,,0.215794271,0.067139757,1,0,0,0.4019,3,25,103,6,1,g,images/br_g.png,images/cb_g.png,,,,,,,,,,,,,,,,,,,,,,,,,
,,,,,,00025,2023-09-03_10h23.41.680,vbt_B2_day1,2022.2.4,MacIntel,60.0024001,,,,,,,,,,,,,,,,,,,0.215794271,0.067139757,1,0,0,0.1505,4,0,104,17,1,r,images/br_r.png,images/cb_r.png,,,,,,,,,,,,,,,,,,,,,,,,,
,,,,,,00025,2023-09-03_10h23.41.680,vbt_B2_day1,2022.2.4,MacIntel,60.0024001,,,,,,,,,,,,,,,,,,,0.215794271,0.067139757,1,0,0,13.8686,4,1,105,15,1,p,images/br_p.png,images/cb_p.png,,,,,,,,,,,,,,,,,,,,,,,,,
,,,,,,00025,2023-09-03_10h23.41.680,vbt_B2_day1,2022.2.4,MacIntel,60.0024001,,,,,,,,,,,,,,,,,,,0.215794271,0.067139757,1,0,0,1.1154,4,2,106,21,1,v,images/br_v.png,images/cb_v.png,,,,,,,,,,,,,,,,,,,,,,,,,
,,,,,,00025,2023-09-03_10h23.41.680,vbt_B2_day1,2022.2.4,MacIntel,60.0024001,,,,,,,,,,,,,,,,,,,0.215794271,0.067139757,1,0,0,0.0493,4,3,107,9,1,j,images/br_j.png,images/cb_j.png,,,,,,,,,,,,,,,,,,,,,,,,,
,,,,,,00025,2023-09-03_10h23.41.680,vbt_B2_day1,2022.2.4,MacIntel,60.0024001,,,,,,,,,,,,,,,,,,,0.215794271,0.067139757,1,0,0,1.3678,4,4,108,12,1,m,images/br_m.png,images/cb_m.png,,,,,,,,,,,,,,,,,,,,,,,,,
,,,,,,00025,2023-09-03_10h23.41.680,vbt_B2_day1,2022.2.4,MacIntel,60.0024001,,,,,,,,,,,,,,,,,,,0.215794271,0.067139757,1,0,0,0.0665,4,5,109,0,1,a,images/br_a.png,images/cb_a.png,,,,,,,,,,,,,,,,,,,,,,,,,
,,,,,,00025,2023-09-03_10h23.41.680,vbt_B2_day1,2022.2.4,MacIntel,60.0024001,,,,,,,,,,,,,,,,,,,0.215794271,0.067139757,1,0,0,11.1855,4,6,110,13,1,n,images/br_n.png,images/cb_n.png,,,,,,,,,,,,,,,,,,,,,,,,,
,,,,,,00025,2023-09-03_10h23.41.680,vbt_B2_day1,2022.2.4,MacIntel,60.0024001,,,,,,,,,,,,,,,,,,,0.215794271,0.067139757,1,0,0,15.4989,4,7,111,10,1,k,images/br_k.png,images/cb_k.png,,,,,,,,,,,,,,,,,,,,,,,,,
,,,,,,00025,2023-09-03_10h23.41.680,vbt_B2_day1,2022.2.4,MacIntel,60.0024001,,,,,,,,,,,,,,,,,,,0.215794271,0.067139757,1,0,0,0.7995,4,8,112,19,1,t,images/br_t.png,images/cb_t.png,,,,,,,,,,,,,,,,,,,,,,,,,
,,,,,,00025,2023-09-03_10h23.41.680,vbt_B2_day1,2022.2.4,MacIntel,60.0024001,,,,,,,,,,,,,,,,,,,0.215794271,0.067139757,1,0,0,0.3512,4,9,113,3,1,d,images/br_d.png,images/cb_d.png,,,,,,,,,,,,,,,,,,,,,,,,,
,,,,,,00025,2023-09-03_10h23.41.680,vbt_B2_day1,2022.2.4,MacIntel,60.0024001,,,,,,,,,,,,,,,,,,,0.215794271,0.067139757,1,0,0,1.1159,4,10,114,25,1,z,images/br_z.png,images/cb_z.png,,,,,,,,,,,,,,,,,,,,,,,,,
,,,,,,00025,2023-09-03_10h23.41.680,vbt_B2_day1,2022.2.4,MacIntel,60.0024001,,,,,,,,,,,,,,,,,,,0.215794271,0.067139757,1,0,0,0.417,4,11,115,16,1,q,images/br_q.png,images/cb_q.png,,,,,,,,,,,,,,,,,,,,,,,,,
,,,,,,00025,2023-09-03_10h23.41.680,vbt_B2_day1,2022.2.4,MacIntel,60.0024001,,,,,,,,,,,,,,,,,,,0.215794271,0.067139757,1,0,0,0.7679,4,12,116,7,1,h,images/br_h.png,images/cb_h.png,,,,,,,,,,,,,,,,,,,,,,,,,
,,,,,,00025,2023-09-03_10h23.41.680,vbt_B2_day1,2022.2.4,MacIntel,60.0024001,,,,,,,,,,,,,,,,,,,0.215794271,0.067139757,1,0,0,0.3486,4,13,117,5,1,f,images/br_f.png,images/cb_f.png,,,,,,,,,,,,,,,,,,,,,,,,,
,,,,,,00025,2023-09-03_10h23.41.680,vbt_B2_day1,2022.2.4,MacIntel,60.0024001,,,,,,,,,,,,,,,,,,,0.215794271,0.067139757,1,0,0,8.4007,4,14,118,23,1,x,images/br_x.png,images/cb_x.png,,,,,,,,,,,,,,,,,,,,,,,,,
,,,,,,00025,2023-09-03_10h23.41.680,vbt_B2_day1,2022.2.4,MacIntel,60.0024001,,,,,,,,,,,,,,,,,,,0.215794271,0.067139757,1,0,0,2.0005,4,15,119,20,1,u,images/br_u.png,images/cb_u.png,,,,,,,,,,,,,,,,,,,,,,,,,
,,,,,,00025,2023-09-03_10h23.41.680,vbt_B2_day1,2022.2.4,MacIntel,60.0024001,,,,,,,,,,,,,,,,,,,0.215794271,0.066458333,1,0,0,1.8674,4,16,120,11,1,l,images/br_l.png,images/cb_l.png,,,,,,,,,,,,,,,,,,,,,,,,,
,,,,,,00025,2023-09-03_10h23.41.680,vbt_B2_day1,2022.2.4,MacIntel,60.0024001,,,,,,,,,,,,,,,,,,,0.215794271,0.066458333,1,0,0,1.6337,4,17,121,6,1,g,images/br_g.png,images/cb_g.png,,,,,,,,,,,,,,,,,,,,,,,,,
,,,,,,00025,2023-09-03_10h23.41.680,vbt_B2_day1,2022.2.4,MacIntel,60.0024001,,,,,,,,,,,,,,,,,,,0.215794271,0.066458333,1,0,0,0.083,4,18,122,8,1,i,images/br_i.png,images/cb_i.png,,,,,,,,,,,,,,,,,,,,,,,,,
,,,,,,00025,2023-09-03_10h23.41.680,vbt_B2_day1,2022.2.4,MacIntel,60.0024001,,,,,,,,,,,,,,,,,,,0.215794271,0.066458333,1,0,0,28.9364,4,19,123,18,1,s,images/br_s.png,images/cb_s.png,,,,,,,,,,,,,,,,,,,,,,,,,
,,,,,,00025,2023-09-03_10h23.41.680,vbt_B2_day1,2022.2.4,MacIntel,60.0024001,,,,,,,,,,,,,,,,,,,0.215794271,0.066458333,1,0,0,0.0995,4,20,124,2,1,c,images/br_c.png,images/cb_c.png,,,,,,,,,,,,,,,,,,,,,,,,,
,,,,,,00025,2023-09-03_10h23.41.680,vbt_B2_day1,2022.2.4,MacIntel,60.0024001,,,,,,,,,,,,,,,,,,,0.215794271,0.066458333,1,0,0,7.5983,4,21,125,1,1,b,images/br_b.png,images/cb_b.png,,,,,,,,,,,,,,,,,,,,,,,,,
,,,,,,00025,2023-09-03_10h23.41.680,vbt_B2_day1,2022.2.4,MacIntel,60.0024001,,,,,,,,,,,,,,,,,,,0.215794271,0.066458333,1,0,0,0.7342,4,22,126,24,1,y,images/br_y.png,images/cb_y.png,,,,,,,,,,,,,,,,,,,,,,,,,
,,,,,,00025,2023-09-03_10h23.41.680,vbt_B2_day1,2022.2.4,MacIntel,60.0024001,,,,,,,,,,,,,,,,,,,0.215794271,0.066458333,1,0,0,0.4325,4,23,127,4,1,e,images/br_e.png,images/cb_e.png,,,,,,,,,,,,,,,,,,,,,,,,,
,,,,,,00025,2023-09-03_10h23.41.680,vbt_B2_day1,2022.2.4,MacIntel,60.0024001,,,,,,,,,,,,,,,,,,,0.215794271,0.066458333,1,0,0,3.7531,4,24,128,14,1,o,images/br_o.png,images/cb_o.png,,,,,,,,,,,,,,,,,,,,,,,,,
,,,,,,00025,2023-09-03_10h23.41.680,vbt_B2_day1,2022.2.4,MacIntel,60.0024001,,,,,,,,,,,,,,,,,,,0.215794271,0.066458333,1,0,0,22.0845,4,25,129,22,1,w,images/br_w.png,images/cb_w.png,,,,,,,,,,,,,,,,,,,,,,,,,
,,,,,,00025,2023-09-03_10h23.41.680,vbt_B2_day1,2022.2.4,MacIntel,60.0024001,,,,,,,,,,,,,,,,,,,0.215794271,0.066458333,1,0,0,10.7025,5,0,130,0,1,a,images/br_a.png,images/cb_a.png,,,,,,,,,,,,,,,,,,,,,,,,,
,,,,,,00025,2023-09-03_10h23.41.680,vbt_B2_day1,2022.2.4,MacIntel,60.0024001,,,,,,,,,,,,,,,,,,,0.215794271,0.066458333,1,0,0,2.0178,5,1,131,9,1,j,images/br_j.png,images/cb_j.png,,,,,,,,,,,,,,,,,,,,,,,,,
,,,,,,00025,2023-09-03_10h23.41.680,vbt_B2_day1,2022.2.4,MacIntel,60.0024001,,,,,,,,,,,,,,,,,,,0.215794271,0.066458333,1,0,0,0.3495,5,2,132,6,1,g,images/br_g.png,images/cb_g.png,,,,,,,,,,,,,,,,,,,,,,,,,
,,,,,,00025,2023-09-03_10h23.41.680,vbt_B2_day1,2022.2.4,MacIntel,60.0024001,,,,,,,,,,,,,,,,,,,0.215794271,0.066458333,1,0,0,1.3519,5,3,133,10,1,k,images/br_k.png,images/cb_k.png,,,,,,,,,,,,,,,,,,,,,,,,,
,,,,,,00025,2023-09-03_10h23.41.680,vbt_B2_day1,2022.2.4,MacIntel,60.0024001,,,,,,,,,,,,,,,,,,,0.215794271,0.066458333,1,0,0,6.3503,5,4,134,23,1,x,images/br_x.png,images/cb_x.png,,,,,,,,,,,,,,,,,,,,,,,,,
,,,,,,00025,2023-09-03_10h23.41.680,vbt_B2_day1,2022.2.4,MacIntel,60.0024001,,,,,,,,,,,,,,,,,,,0.215794271,0.066458333,1,0,0,1.5169,5,5,135,5,1,f,images/br_f.png,images/cb_f.png,,,,,,,,,,,,,,,,,,,,,,,,,
,,,,,,00025,2023-09-03_10h23.41.680,vbt_B2_day1,2022.2.4,MacIntel,60.0024001,,,,,,,,,,,,,,,,,,,0.215794271,0.066458333,1,0,0,7.1512,5,6,136,22,1,w,images/br_w.png,images/cb_w.png,,,,,,,,,,,,,,,,,,,,,,,,,
,,,,,,00025,2023-09-03_10h23.41.680,vbt_B2_day1,2022.2.4,MacIntel,60.0024001,,,,,,,,,,,,,,,,,,,0.215794271,0.066458333,1,0,0,1.1183,5,7,137,18,1,s,images/br_s.png,images/cb_s.png,,,,,,,,,,,,,,,,,,,,,,,,,
,,,,,,00025,2023-09-03_10h23.41.680,vbt_B2_day1,2022.2.4,MacIntel,60.0024001,,,,,,,,,,,,,,,,,,,0.215794271,0.066458333,1,0,0,21.6658,5,8,138,3,1,d,images/br_d.png,images/cb_d.png,,,,,,,,,,,,,,,,,,,,,,,,,
,,,,,,00025,2023-09-03_10h23.41.680,vbt_B2_day1,2022.2.4,MacIntel,60.0024001,,,,,,,,,,,,,,,,,,,0.215794271,0.066458333,1,0,0,0.6674,5,9,139,16,1,q,images/br_q.png,images/cb_q.png,,,,,,,,,,,,,,,,,,,,,,,,,
,,,,,,00025,2023-09-03_10h23.41.680,vbt_B2_day1,2022.2.4,MacIntel,60.0024001,,,,,,,,,,,,,,,,,,,0.215794271,0.066458333,1,0,0,0.2341,5,10,140,25,1,z,images/br_z.png,images/cb_z.png,,,,,,,,,,,,,,,,,,,,,,,,,
,,,,,,00025,2023-09-03_10h23.41.680,vbt_B2_day1,2022.2.4,MacIntel,60.0024001,,,,,,,,,,,,,,,,,,,0.215794271,0.066458333,1,0,0,1.4023,5,11,141,21,1,v,images/br_v.png,images/cb_v.png,,,,,,,,,,,,,,,,,,,,,,,,,
,,,,,,00025,2023-09-03_10h23.41.680,vbt_B2_day1,2022.2.4,MacIntel,60.0024001,,,,,,,,,,,,,,,,,,,0.215794271,0.066458333,1,0,0,39.083,5,12,142,13,1,n,images/br_n.png,images/cb_n.png,,,,,,,,,,,,,,,,,,,,,,,,,
,,,,,,00025,2023-09-03_10h23.41.680,vbt_B2_day1,2022.2.4,MacIntel,60.0024001,,,,,,,,,,,,,,,,,,,0.215794271,0.066458333,1,0,0,11.0174,5,13,143,24,1,y,images/br_y.png,images/cb_y.png,,,,,,,,,,,,,,,,,,,,,,,,,
,,,,,,00025,2023-09-03_10h23.41.680,vbt_B2_day1,2022.2.4,MacIntel,60.0024001,,,,,,,,,,,,,,,,,,,0.215794271,0.066458333,1,0,0,8.3832,5,14,144,7,1,h,images/br_h.png,images/cb_h.png,,,,,,,,,,,,,,,,,,,,,,,,,
,,,,,,00025,2023-09-03_10h23.41.680,vbt_B2_day1,2022.2.4,MacIntel,60.0024001,,,,,,,,,,,,,,,,,,,0.215794271,0.066458333,1,0,0,0.633,5,15,145,15,1,p,images/br_p.png,images/cb_p.png,,,,,,,,,,,,,,,,,,,,,,,,,
,,,,,,00025,2023-09-03_10h23.41.680,vbt_B2_day1,2022.2.4,MacIntel,60.0024001,,,,,,,,,,,,,,,,,,,0.215794271,0.066458333,1,0,0,2.0683,5,16,146,17,1,r,images/br_r.png,images/cb_r.png,,,,,,,,,,,,,,,,,,,,,,,,,
,,,,,,00025,2023-09-03_10h23.41.680,vbt_B2_day1,2022.2.4,MacIntel,60.0024001,,,,,,,,,,,,,,,,,,,0.215794271,0.066458333,0,0,1,0.1331,5,17,147,4,1,e,images/br_e.png,images/cb_e.png,,,,,,,,,,,,,,,,,,,,,,,,,
,,,,,,00025,2023-09-03_10h23.41.680,vbt_B2_day1,2022.2.4,MacIntel,60.0024001,,,,,,,,,,,,,,,,,,,0.215794271,0.066970486,1,0,1,1.5499,5,18,148,19,1,t,images/br_t.png,images/cb_t.png,,,,,,,,,,,,,,,,,,,,,,,,,
,,,,,,00025,2023-09-03_10h23.41.680,vbt_B2_day1,2022.2.4,MacIntel,60.0024001,,,,,,,,,,,,,,,,,,,0.215794271,0.066970486,1,0,1,0.1848,5,19,149,20,1,u,images/br_u.png,images/cb_u.png,,,,,,,,,,,,,,,,,,,,,,,,,
,,,,,,00025,2023-09-03_10h23.41.680,vbt_B2_day1,2022.2.4,MacIntel,60.0024001,,,,,,,,,,,,,,,,,,,0.215794271,0.066970486,0,0,1,0.1003,5,20,150,2,1,c,images/br_c.png,images/cb_c.png,,,,,,,,,,,,,,,,,,,,,,,,,
,,,,,,00025,2023-09-03_10h23.41.680,vbt_B2_day1,2022.2.4,MacIntel,60.0024001,,,,,,,,,,,,,,,,,,,0.215794271,0.066970486,1,0,1,0.2173,5,21,151,1,1,b,images/br_b.png,images/cb_b.png,,,,,,,,,,,,,,,,,,,,,,,,,
,,,,,,00025,2023-09-03_10h23.41.680,vbt_B2_day1,2022.2.4,MacIntel,60.0024001,,,,,,,,,,,,,,,,,,,0.215794271,0.066970486,1,0,1,2.4659,5,22,152,14,1,o,images/br_o.png,images/cb_o.png,,,,,,,,,,,,,,,,,,,,,,,,,
,,,,,,00025,2023-09-03_10h23.41.680,vbt_B2_day1,2022.2.4,MacIntel,60.0024001,,,,,,,,,,,,,,,,,,,0.215794271,0.066970486,1,0,1,0.0683,5,23,153,8,1,i,images/br_i.png,images/cb_i.png,,,,,,,,,,,,,,,,,,,,,,,,,
,,,,,,00025,2023-09-03_10h23.41.680,vbt_B2_day1,2022.2.4,MacIntel,60.0024001,,,,,,,,,,,,,,,,,,,0.215794271,0.066970486,1,0,1,0.6325,5,24,154,11,1,l,images/br_l.png,images/cb_l.png,,,,,,,,,,,,,,,,,,,,,,,,,
,,,,,,00025,2023-09-03_10h23.41.680,vbt_B2_day1,2022.2.4,MacIntel,60.0024001,,,,,,,,,,,,,,,,,,,0.215794271,0.066970486,1,0,1,7.1849,5,25,155,12,1,m,images/br_m.png,images/cb_m.png,,,,,,,,,,,,,,,,,,,,,,,,,
,,,,,,00025,2023-09-03_10h23.41.680,vbt_B2_day1,2022.2.4,MacIntel,60.0024001,,,,,,,,,,,,,,,,,,,0.215794271,0.066970486,1,0,1,0.8855,6,0,156,17,1,r,images/br_r.png,images/cb_r.png,,,,,,,,,,,,,,,,,,,,,,,,,
,,,,,,00025,2023-09-03_10h23.41.680,vbt_B2_day1,2022.2.4,MacIntel,60.0024001,,,,,,,,,,,,,,,,,,,0.215794271,0.066970486,1,0,1,0.1325,6,1,157,2,1,c,images/br_c.png,images/cb_c.png,,,,,,,,,,,,,,,,,,,,,,,,,
,,,,,,00025,2023-09-03_10h23.41.680,vbt_B2_day1,2022.2.4,MacIntel,60.0024001,,,,,,,,,,,,,,,,,,,0.215794271,0.066970486,1,0,1,0.0498,6,2,158,12,1,m,images/br_m.png,images/cb_m.png,,,,,,,,,,,,,,,,,,,,,,,,,
,,,,,,00025,2023-09-03_10h23.41.680,vbt_B2_day1,2022.2.4,MacIntel,60.0024001,,,,,,,,,,,,,,,,,,,0.215794271,0.066970486,1,0,1,0.0702,6,3,159,20,1,u,images/br_u.png,images/cb_u.png,,,,,,,,,,,,,,,,,,,,,,,,,
,,,,,,00025,2023-09-03_10h23.41.680,vbt_B2_day1,2022.2.4,MacIntel,60.0024001,,,,,,,,,,,,,,,,,,,0.215794271,0.066970486,0,0,1,0.0659,6,4,160,11,1,l,images/br_l.png,images/cb_l.png,,,,,,,,,,,,,,,,,,,,,,,,,
,,,,,,00025,2023-09-03_10h23.41.680,vbt_B2_day1,2022.2.4,MacIntel,60.0024001,,,,,,,,,,,,,,,,,,,0.215794271,0.066970486,1,0,1,10.0522,6,5,161,18,1,s,images/br_s.png,images/cb_s.png,,,,,,,,,,,,,,,,,,,,,,,,,
,,,,,,00025,2023-09-03_10h23.41.680,vbt_B2_day1,2022.2.4,MacIntel,60.0024001,,,,,,,,,,,,,,,,,,,0.215794271,0.066970486,0,0,1,0.0496,6,6,162,1,1,b,images/br_b.png,images/cb_b.png,,,,,,,,,,,,,,,,,,,,,,,,,
,,,,,,00025,2023-09-03_10h23.41.680,vbt_B2_day1,2022.2.4,MacIntel,60.0024001,,,,,,,,,,,,,,,,,,,0.215794271,0.066970486,1,0,1,10.1007,6,7,163,22,1,w,images/br_w.png,images/cb_w.png,,,,,,,,,,,,,,,,,,,,,,,,,
,,,,,,00025,2023-09-03_10h23.41.680,vbt_B2_day1,2022.2.4,MacIntel,60.0024001,,,,,,,,,,,,,,,,,,,0.215794271,0.066970486,1,0,1,47.4232,6,8,164,23,1,x,images/br_x.png,images/cb_x.png,,,,,,,,,,,,,,,,,,,,,,,,,
,,,,,,00025,2023-09-03_10h23.41.680,vbt_B2_day1,2022.2.4,MacIntel,60.0024001,,,,,,,,,,,,,,,,,,,0.215794271,0.066970486,1,0,1,25.7839,6,9,165,10,1,k,images/br_k.png,images/cb_k.png,,,,,,,,,,,,,,,,,,,,,,,,,
,,,,,,00025,2023-09-03_10h23.41.680,vbt_B2_day1,2022.2.4,MacIntel,60.0024001,,,,,,,,,,,,,,,,,,,0.215794271,0.066970486,1,0,1,14.3351,6,10,166,3,1,d,images/br_d.png,images/cb_d.png,,,,,,,,,,,,,,,,,,,,,,,,,
,,,,,,00025,2023-09-03_10h23.41.680,vbt_B2_day1,2022.2.4,MacIntel,60.0024001,,,,,,,,,,,,,,,,,,,0.215794271,0.066970486,0,0,1,0.133,6,11,167,24,1,y,images/br_y.png,images/cb_y.png,,,,,,,,,,,,,,,,,,,,,,,,,
,,,,,,00025,2023-09-03_10h23.41.680,vbt_B2_day1,2022.2.4,MacIntel,60.0024001,,,,,,,,,,,,,,,,,,,0.215794271,0.066970486,1,0,1,4.0973,6,12,168,8,1,i,images/br_i.png,images/cb_i.png,,,,,,,,,,,,,,,,,,,,,,,,,
,,,,,,00025,2023-09-03_10h23.41.680,vbt_B2_day1,2022.2.4,MacIntel,60.0024001,,,,,,,,,,,,,,,,,,,0.215794271,0.066970486,1,0,1,0.2507,6,13,169,25,1,z,images/br_z.png,images/cb_z.png,,,,,,,,,,,,,,,,,,,,,,,,,
,,,,,,00025,2023-09-03_10h23.41.680,vbt_B2_day1,2022.2.4,MacIntel,60.0024001,,,,,,,,,,,,,,,,,,,0.215794271,0.066970486,1,0,1,2.8193,6,14,170,15,1,p,images/br_p.png,images/cb_p.png,,,,,,,,,,,,,,,,,,,,,,,,,
,,,,,,00025,2023-09-03_10h23.41.680,vbt_B2_day1,2022.2.4,MacIntel,60.0024001,,,,,,,,,,,,,,,,,,,0.215794271,0.066970486,1,0,1,2.6023,6,15,171,21,1,v,images/br_v.png,images/cb_v.png,,,,,,,,,,,,,,,,,,,,,,,,,
,,,,,,00025,2023-09-03_10h23.41.680,vbt_B2_day1,2022.2.4,MacIntel,60.0024001,,,,,,,,,,,,,,,,,,,0.215794271,0.066970486,1,0,1,9.6537,6,16,172,5,1,f,images/br_f.png,images/cb_f.png,,,,,,,,,,,,,,,,,,,,,,,,,
,,,,,,00025,2023-09-03_10h23.41.680,vbt_B2_day1,2022.2.4,MacIntel,60.0024001,,,,,,,,,,,,,,,,,,,0.215794271,0.066970486,1,0,1,1.9695,6,17,173,19,1,t,images/br_t.png,images/cb_t.png,,,,,,,,,,,,,,,,,,,,,,,,,
,,,,,,00025,2023-09-03_10h23.41.680,vbt_B2_day1,2022.2.4,MacIntel,60.0024001,,,,,,,,,,,,,,,,,,,0.215794271,0.066970486,0,0,1,0.2327,6,18,174,7,1,h,images/br_h.png,images/cb_h.png,,,,,,,,,,,,,,,,,,,,,,,,,
,,,,,,00025,2023-09-03_10h23.41.680,vbt_B2_day1,2022.2.4,MacIntel,60.0024001,,,,,,,,,,,,,,,,,,,0.215794271,0.066970486,1,0,1,0.3503,6,19,175,14,1,o,images/br_o.png,images/cb_o.png,,,,,,,,,,,,,,,,,,,,,,,,,
,,,,,,00025,2023-09-03_10h23.41.680,vbt_B2_day1,2022.2.4,MacIntel,60.0024001,,,,,,,,,,,,,,,,,,,0.215794271,0.066970486,1,0,1,4.2819,6,20,176,9,1,j,images/br_j.png,images/cb_j.png,,,,,,,,,,,,,,,,,,,,,,,,,
,,,,,,00025,2023-09-03_10h23.41.680,vbt_B2_day1,2022.2.4,MacIntel,60.0024001,,,,,,,,,,,,,,,,,,,0.215794271,0.066970486,1,0,1,3.3492,6,21,177,6,1,g,images/br_g.png,images/cb_g.png,,,,,,,,,,,,,,,,,,,,,,,,,
,,,,,,00025,2023-09-03_10h23.41.680,vbt_B2_day1,2022.2.4,MacIntel,60.0024001,,,,,,,,,,,,,,,,,,,0.215794271,0.066970486,1,0,1,0.2335,6,22,178,4,1,e,images/br_e.png,images/cb_e.png,,,,,,,,,,,,,,,,,,,,,,,,,
,,,,,,00025,2023-09-03_10h23.41.680,vbt_B2_day1,2022.2.4,MacIntel,60.0024001,,,,,,,,,,,,,,,,,,,0.215794271,0.066970486,1,0,1,0.1158,6,23,179,13,1,n,images/br_n.png,images/cb_n.png,,,,,,,,,,,,,,,,,,,,,,,,,
,,,,,,00025,2023-09-03_10h23.41.680,vbt_B2_day1,2022.2.4,MacIntel,60.0024001,,,,,,,,,,,,,,,,,,,0.215794271,0.066970486,0,0,1,0.0664,6,24,180,16,1,q,images/br_q.png,images/cb_q.png,,,,,,,,,,,,,,,,,,,,,,,,,
,,,,,,00025,2023-09-03_10h23.41.680,vbt_B2_day1,2022.2.4,MacIntel,60.0024001,,,,,,,,,,,,,,,,,,,0.215794271,0.066970486,1,0,1,11.3519,6,25,181,0,1,a,images/br_a.png,images/cb_a.png,,,,,,,,,,,,,,,,,,,,,,,,,
,,,,,,00025,2023-09-03_10h23.41.680,vbt_B2_day1,2022.2.4,MacIntel,60.0024001,,,,,,,,,,,,,,,,,,,,,,,,,,,,,,,,,0.215794271,0.066970486,0,0,1,,,,,,,,,,,,,,,,,,,,
,,,,,,00025,2023-09-03_10h23.41.680,vbt_B2_day1,2022.2.4,MacIntel,60.0024001,,,,,,,,,,,,,,,,,,,,,,,,,,,,,,,,,,,,,,0.215794271,0.066970486,1,0,1,,,,,,,,,,,,,,,
,,,,,,00025,2023-09-03_10h23.41.680,vbt_B2_day1,2022.2.4,MacIntel,60.0024001,,,,,,,,,,,,,,,,,,,,,,,,,,,,,,,,,,,,,,,,,,,0.395334201,0.090798611,1,0,1,.e,.e,0,0,0,36,1,vervaden,images/br_vervaden.png,images/cb_vervaden.png
,,,,,,00025,2023-09-03_10h23.41.680,vbt_B2_day1,2022.2.4,MacIntel,60.0024001,,,,,,,,,,,,,,,,,,,,,,,,,,,,,,,,,,,,,,,,,,,0.395889757,0.090243056,1,0,1,le...,le...,0,1,1,46,1,lezen,images/br_lezen.png,images/cb_lezen.png
,,,,,,00025,2023-09-03_10h23.41.680,vbt_B2_day1,2022.2.4,MacIntel,60.0024001,,,,,,,,,,,,,,,,,,,,,,,,,,,,,,,,,,,,,,,,,,,0.395889757,0.090243056,1,0,1,.ue....,.ue....,0,2,2,52,1,zuiplap,images/br_zuiplap.png,images/cb_zuiplap.png
,,,,,,00025,2023-09-03_10h23.41.680,vbt_B2_day1,2022.2.4,MacIntel,60.0024001,,,,,,,,,,,,,,,,,,,,,,,,,,,,,,,,,,,,,,,,,,,0.395889757,0.090243056,1,0,1,.alo.,.alo.,0,3,3,26,1,valop,images/br_valop.png,images/cb_valop.png
,,,,,,00025,2023-09-03_10h23.41.680,vbt_B2_day1,2022.2.4,MacIntel,60.0024001,,,,,,,,,,,,,,,,,,,,,,,,,,,,,,,,,,,,,,,,,,,0.395889757,0.090243056,1,0,1,.lau.,.lau.,0,4,4,7,1,klauw,images/br_klauw.png,images/cb_klauw.png
,,,,,,00025,2023-09-03_10h23.41.680,vbt_B2_day1,2022.2.4,MacIntel,60.0024001,,,,,,,,,,,,,,,,,,,,,,,,,,,,,,,,,,,,,,,,,,,0.395889757,0.090243056,1,0,1,re.e.,re.e.,0,5,5,24,1,rezer,images/br_rezer.png,images/cb_rezer.png
,,,,,,00025,2023-09-03_10h23.41.680,vbt_B2_day1,2022.2.4,MacIntel,60.0024001,,,,,,,,,,,,,,,,,,,,,,,,,,,,,,,,,,,,,,,,,,,0.395889757,0.090243056,1,0,1,beb...,beb...,0,6,6,28,1,bebrip,images/br_bebrip.png,images/cb_bebrip.png
,,,,,,00025,2023-09-03_10h23.41.680,vbt_B2_day1,2022.2.4,MacIntel,60.0024001,,,,,,,,,,,,,,,,,,,,,,,,,,,,,,,,,,,,,,,,,,,0.395889757,0.090243056,1,0,1,.lee.,.lee.,0,7,7,6,1,bleek,images/br_bleek.png,images/cb_bleek.png
,,,,,,00025,2023-09-03_10h23.41.680,vbt_B2_day1,2022.2.4,MacIntel,60.0024001,,,,,,,,,,,,,,,,,,,,,,,,,,,,,,,,,,,,,,,,,,,0.395889757,0.090243056,1,0,1,,,0,8,8,31,1,stamen,images/br_stamen.png,images/cb_stamen.png
,,,,,,00025,2023-09-03_10h23.41.680,vbt_B2_day1,2022.2.4,MacIntel,60.0024001,,,,,,,,,,,,,,,,,,,,,,,,,,,,,,,,,,,,,,,,,,,0.395889757,0.090243056,1,0,1,..i.e..,..i.e..,0,9,9,13,1,twijfel,images/br_twijfel.png,images/cb_twijfel.png
,,,,,,00025,2023-09-03_10h23.41.680,vbt_B2_day1,2022.2.4,MacIntel,60.0024001,,,,,,,,,,,,,,,,,,,,,,,,,,,,,,,,,,,,,,,,,,,0.395889757,0.090243056,1,0,1,.aar.a.,.aar.a.,0,10,10,14,1,waarvan,images/br_waarvan.png,images/cb_waarvan.png
,,,,,,00025,2023-09-03_10h23.41.680,vbt_B2_day1,2022.2.4,MacIntel,60.0024001,,,,,,,,,,,,,,,,,,,,,,,,,,,,,,,,,,,,,,,,,,,0.395889757,0.090243056,1,0,1,.c.u,.c.u,0,11,11,19,1,schuilen,images/br_schuilen.png,images/cb_schuilen.png
,,,,,,00025,2023-09-03_10h23.41.680,vbt_B2_day1,2022.2.4,MacIntel,60.0024001,,,,,,,,,,,,,,,,,,,,,,,,,,,,,,,,,,,,,,,,,,,0.395889757,0.090243056,1,0,1,lava,lava,0,12,12,43,1,lava,images/br_lava.png,images/cb_lava.png
,,,,,,00025,2023-09-03_10h23.41.680,vbt_B2_day1,2022.2.4,MacIntel,60.0024001,,,,,,,,,,,,,,,,,,,,,,,,,,,,,,,,,,,,,,,,,,,0.395889757,0.090243056,1,0,1,mooi,mooi,0,13,13,23,1,booi,images/br_booi.png,images/cb_booi.png
,,,,,,00025,2023-09-03_10h23.41.680,vbt_B2_day1,2022.2.4,MacIntel,60.0024001,,,,,,,,,,,,,,,,,,,,,,,,,,,,,,,,,,,,,,,,,,,0.395889757,0.090243056,1,0,1,voor...,voor...,0,14,14,58,1,voorkeur,images/br_voorkeur.png,images/cb_voorkeur.png
,,,,,,00025,2023-09-03_10h23.41.680,vbt_B2_day1,2022.2.4,MacIntel,60.0024001,,,,,,,,,,,,,,,,,,,,,,,,,,,,,,,,,,,,,,,,,,,0.395889757,0.090243056,1,0,1,.e.el,.e.el,0,15,15,45,1,hemel,images/br_hemel.png,images/cb_hemel.png
,,,,,,00025,2023-09-03_10h23.41.680,vbt_B2_day1,2022.2.4,MacIntel,60.0024001,,,,,,,,,,,,,,,,,,,,,,,,,,,,,,,,,,,,,,,,,,,0.395889757,0.090243056,1,0,1,lie..e,lie..e,0,16,16,51,1,liefde,images/br_liefde.png,images/cb_liefde.png
,,,,,,00025,2023-09-03_10h23.41.680,vbt_B2_day1,2022.2.4,MacIntel,60.0024001,,,,,,,,,,,,,,,,,,,,,,,,,,,,,,,,,,,,,,,,,,,0.395889757,0.090243056,1,0,1,ree..e,ree..e,0,17,17,30,1,reedje,images/br_reedje.png,images/cb_reedje.png
,,,,,,00025,2023-09-03_10h23.41.680,vbt_B2_day1,2022.2.4,MacIntel,60.0024001,,,,,,,,,,,,,,,,,,,,,,,,,,,,,,,,,,,,,,,,,,,0.395889757,0.090243056,1,0,1,o,o,0,18,18,53,1,opslaan,images/br_opslaan.png,images/cb_opslaan.png
,,,,,,00025,2023-09-03_10h23.41.680,vbt_B2_day1,2022.2.4,MacIntel,60.0024001,,,,,,,,,,,,,,,,,,,,,,,,,,,,,,,,,,,,,,,,,,,0.395889757,0.090243056,1,0,1,.lad,.lad,0,19,19,0,1,slak,images/br_slak.png,images/cb_slak.png
,,,,,,00025,2023-09-03_10h23.41.680,vbt_B2_day1,2022.2.4,MacIntel,60.0024001,,,,,,,,,,,,,,,,,,,,,,,,,,,,,,,,,,,,,,,,,,,0.395889757,0.090243056,1,0,1,.a..,.a..,0,20,20,3,1,mand,images/br_mand.png,images/cb_mand.png
,,,,,,00025,2023-09-03_10h23.41.680,vbt_B2_day1,2022.2.4,MacIntel,60.0024001,,,,,,,,,,,,,,,,,,,,,,,,,,,,,,,,,,,,,,,,,,,0.395889757,0.090243056,1,0,1,zaal,zaal,0,21,21,1,1,zaal,images/br_zaal.png,images/cb_zaal.png
,,,,,,00025,2023-09-03_10h23.41.680,vbt_B2_day1,2022.2.4,MacIntel,60.0024001,,,,,,,,,,,,,,,,,,,,,,,,,,,,,,,,,,,,,,,,,,,0.395889757,0.090243056,1,0,1,..oe,..oe,0,22,22,22,1,knoe,images/br_knoe.png,images/cb_knoe.png
,,,,,,00025,2023-09-03_10h23.41.680,vbt_B2_day1,2022.2.4,MacIntel,60.0024001,,,,,,,,,,,,,,,,,,,,,,,,,,,,,,,,,,,,,,,,,,,0.395889757,0.089991319,1,0,1,.ror.,.ror.,0,23,23,27,1,prort,images/br_prort.png,images/cb_prort.png
,,,,,,00025,2023-09-03_10h23.41.680,vbt_B2_day1,2022.2.4,MacIntel,60.0024001,,,,,,,,,,,,,,,,,,,,,,,,,,,,,,,,,,,,,,,,,,,0.395889757,0.089991319,1,0,1,,,0,24,24,8,1,kanjer,images/br_kanjer.png,images/cb_kanjer.png
,,,,,,00025,2023-09-03_10h23.41.680,vbt_B2_day1,2022.2.4,MacIntel,60.0024001,,,,,,,,,,,,,,,,,,,,,,,,,,,,,,,,,,,,,,,,,,,0.395889757,0.089991319,1,0,1,haar,haar,0,25,25,2,1,jaar,images/br_jaar.png,images/cb_jaar.png
,,,,,,00025,2023-09-03_10h23.41.680,vbt_B2_day1,2022.2.4,MacIntel,60.0024001,,,,,,,,,,,,,,,,,,,,,,,,,,,,,,,,,,,,,,,,,,,0.395889757,0.089991319,1,0,1,loc...,loc...,0,26,26,34,1,lochten,images/br_lochten.png,images/cb_lochten.png
,,,,,,00025,2023-09-03_10h23.41.680,vbt_B2_day1,2022.2.4,MacIntel,60.0024001,,,,,,,,,,,,,,,,,,,,,,,,,,,,,,,,,,,,,,,,,,,0.395889757,0.089991319,1,0,1,o.v,o.v,0,27,27,59,1,opvatten,images/br_opvatten.png,images/cb_opvatten.png
,,,,,,00025,2023-09-03_10h23.41.680,vbt_B2_day1,2022.2.4,MacIntel,60.0024001,,,,,,,,,,,,,,,,,,,,,,,,,,,,,,,,,,,,,,,,,,,0.395889757,0.089991319,1,0,1,vi...,vi...,0,28,28,54,1,vijftig,images/br_vijftig.png,images/cb_vijftig.png
,,,,,,00025,2023-09-03_10h23.41.680,vbt_B2_day1,2022.2.4,MacIntel,60.0024001,,,,,,,,,,,,,,,,,,,,,,,,,,,,,,,,,,,,,,,,,,,0.395889757,0.089991319,1,0,1,.ri..,.ri..,0,29,29,25,1,brijk,images/br_brijk.png,images/cb_brijk.png
,,,,,,00025,2023-09-03_10h23.41.680,vbt_B2_day1,2022.2.4,MacIntel,60.0024001,,,,,,,,,,,,,,,,,,,,,,,,,,,,,,,,,,,,,,,,,,,-0.019084201,-0.203559028,1,0,1,ii.i,ii.i,0,30,30,57,1,meenemen,images/br_meenemen.png,images/cb_meenemen.png
,,,,,,00025,2023-09-03_10h23.41.680,vbt_B2_day1,2022.2.4,MacIntel,60.0024001,,,,,,,,,,,,,,,,,,,,,,,,,,,,,,,,,,,,,,,,,,,-0.018528646,-0.203559028,1,0,1,ui...,ui...,0,31,31,18,1,uitdelen,images/br_uitdelen.png,images/cb_uitdelen.png
,,,,,,00025,2023-09-03_10h23.41.680,vbt_B2_day1,2022.2.4,MacIntel,60.0024001,,,,,,,,,,,,,,,,,,,,,,,,,,,,,,,,,,,,,,,,,,,0.068862847,-0.020394965,1,0,1,.tu.,.tu.,0,32,32,42,1,stuk,images/br_stuk.png,images/cb_stuk.png
,,,,,,00025,2023-09-03_10h23.41.680,vbt_B2_day1,2022.2.4,MacIntel,60.0024001,,,,,,,,,,,,,,,,,,,,,,,,,,,,,,,,,,,,,,,,,,,0.068862847,-0.020394965,1,0,1,atti...,atti...,0,33,33,17,1,attentie,images/br_attentie.png,images/cb_attentie.png
,,,,,,00025,2023-09-03_10h23.41.680,vbt_B2_day1,2022.2.4,MacIntel,60.0024001,,,,,,,,,,,,,,,,,,,,,,,,,,,,,,,,,,,,,,,,,,,0.068862847,-0.020394965,1,0,1,to....,to....,0,34,34,56,1,toezicht,images/br_toezicht.png,images/cb_toezicht.png
,,,,,,00025,2023-09-03_10h23.41.680,vbt_B2_day1,2022.2.4,MacIntel,60.0024001,,,,,,,,,,,,,,,,,,,,,,,,,,,,,,,,,,,,,,,,,,,0.121840278,0.007278646,1,0,1,vi.ier,vi.ier,0,35,35,49,1,vizier,images/br_vizier.png,images/cb_vizier.png
,,,,,,00025,2023-09-03_10h23.41.680,vbt_B2_day1,2022.2.4,MacIntel,60.0024001,,,,,,,,,,,,,,,,,,,,,,,,,,,,,,,,,,,,,,,,,,,-0.054661458,-0.049943576,1,0,1,.lie..e,.lie..e,0,36,36,12,1,klimmen,images/br_klimmen.png,images/cb_klimmen.png
,,,,,,00025,2023-09-03_10h23.41.680,vbt_B2_day1,2022.2.4,MacIntel,60.0024001,,,,,,,,,,,,,,,,,,,,,,,,,,,,,,,,,,,,,,,,,,,-0.054661458,-0.049943576,1,0,1,.ic.ie.,.ic.ie.,0,37,37,48,1,fictie,images/br_fictie.png,images/cb_fictie.png
,,,,,,00025,2023-09-03_10h23.41.680,vbt_B2_day1,2022.2.4,MacIntel,60.0024001,,,,,,,,,,,,,,,,,,,,,,,,,,,,,,,,,,,,,,,,,,,-0.054661458,-0.049943576,1,0,1,.tui..,.tui..,0,38,38,35,1,stuikem,images/br_stuikem.png,images/cb_stuikem.png
,,,,,,00025,2023-09-03_10h23.41.680,vbt_B2_day1,2022.2.4,MacIntel,60.0024001,,,,,,,,,,,,,,,,,,,,,,,,,,,,,,,,,,,,,,,,,,,0.046792535,0.003198785,1,0,1,loo..,loo..,0,39,39,47,1,loods,images/br_loods.png,images/cb_loods.png
,,,,,,00025,2023-09-03_10h23.41.680,vbt_B2_day1,2022.2.4,MacIntel,60.0024001,,,,,,,,,,,,,,,,,,,,,,,,,,,,,,,,,,,,,,,,,,,0.046792535,0.003454861,1,0,1,.u..el,.u..el,0,40,40,9,1,dubbel,images/br_dubbel.png,images/cb_dubbel.png
,,,,,,00025,2023-09-03_10h23.41.680,vbt_B2_day1,2022.2.4,MacIntel,60.0024001,,,,,,,,,,,,,,,,,,,,,,,,,,,,,,,,,,,,,,,,,,,0.035477431,0.005763889,1,0,1,tar.,tar.,0,41,41,20,1,tars,images/br_tars.png,images/cb_tars.png
,,,,,,00025,2023-09-03_10h23.41.680,vbt_B2_day1,2022.2.4,MacIntel,60.0024001,,,,,,,,,,,,,,,,,,,,,,,,,,,,,,,,,,,,,,,,,,,0.035477431,0.005763889,1,0,1,..a,..a,0,42,42,37,1,spanzing,images/br_spanzing.png,images/cb_spanzing.png
,,,,,,00025,2023-09-03_10h23.41.680,vbt_B2_day1,2022.2.4,MacIntel,60.0024001,,,,,,,,,,,,,,,,,,,,,,,,,,,,,,,,,,,,,,,,,,,-0.163741319,0.009253472,1,0,1,.c,.c,0,43,43,38,1,schielen,images/br_schielen.png,images/cb_schielen.png
,,,,,,00025,2023-09-03_10h23.41.680,vbt_B2_day1,2022.2.4,MacIntel,60.0024001,,,,,,,,,,,,,,,,,,,,,,,,,,,,,,,,,,,,,,,,,,,0.069600694,-0.024131944,1,0,1,.ierv.,.ierv.,0,44,44,15,1,hiervan,images/br_hiervan.png,images/cb_hiervan.png
,,,,,,00025,2023-09-03_10h23.41.680,vbt_B2_day1,2022.2.4,MacIntel,60.0024001,,,,,,,,,,,,,,,,,,,,,,,,,,,,,,,,,,,,,,,,,,,0.069600694,-0.024131944,1,0,1,.oog,.oog,0,45,45,41,1,hoog,images/br_hoog.png,images/cb_hoog.png
,,,,,,00025,2023-09-03_10h23.41.680,vbt_B2_day1,2022.2.4,MacIntel,60.0024001,,,,,,,,,,,,,,,,,,,,,,,,,,,,,,,,,,,,,,,,,,,0.069600694,-0.024131944,1,0,1,.re.,.re.,0,46,46,21,1,dred,images/br_dred.png,images/cb_dred.png
,,,,,,00025,2023-09-03_10h23.41.680,vbt_B2_day1,2022.2.4,MacIntel,60.0024001,,,,,,,,,,,,,,,,,,,,,,,,,,,,,,,,,,,,,,,,,,,0.069600694,-0.024131944,1,0,1,.e.e.e.,.e.e.e.,0,47,47,55,1,tekenen,images/br_tekenen.png,images/cb_tekenen.png
,,,,,,00025,2023-09-03_10h23.41.680,vbt_B2_day1,2022.2.4,MacIntel,60.0024001,,,,,,,,,,,,,,,,,,,,,,,,,,,,,,,,,,,,,,,,,,,0.055954861,0.005121528,1,0,1,.ie.,.ie.,0,48,48,40,1,dief,images/br_dief.png,images/cb_dief.png
,,,,,,00025,2023-09-03_10h23.41.680,vbt_B2_day1,2022.2.4,MacIntel,60.0024001,,,,,,,,,,,,,,,,,,,,,,,,,,,,,,,,,,,,,,,,,,,0.055954861,0.005121528,1,0,1,ge...,ge...,0,49,49,29,1,genond,images/br_genond.png,images/cb_genond.png
,,,,,,00025,2023-09-03_10h23.41.680,vbt_B2_day1,2022.2.4,MacIntel,60.0024001,,,,,,,,,,,,,,,,,,,,,,,,,,,,,,,,,,,,,,,,,,,-0.035416667,-0.024796007,1,0,1,.aar.e.,.aar.e.,0,50,50,16,1,daarheen,images/br_daarheen.png,images/cb_daarheen.png
,,,,,,00025,2023-09-03_10h23.41.680,vbt_B2_day1,2022.2.4,MacIntel,60.0024001,,,,,,,,,,,,,,,,,,,,,,,,,,,,,,,,,,,,,,,,,,,-0.035416667,-0.024796007,1,0,1,.e,.e,0,51,51,11,1,mening,images/br_mening.png,images/cb_mening.png
,,,,,,00025,2023-09-03_10h23.41.680,vbt_B2_day1,2022.2.4,MacIntel,60.0024001,,,,,,,,,,,,,,,,,,,,,,,,,,,,,,,,,,,,,,,,,,,0.133007812,-0.003398437,1,0,1,.i..e,.i..e,0,52,52,44,1,wijze,images/br_wijze.png,images/cb_wijze.png
,,,,,,00025,2023-09-03_10h23.41.680,vbt_B2_day1,2022.2.4,MacIntel,60.0024001,,,,,,,,,,,,,,,,,,,,,,,,,,,,,,,,,,,,,,,,,,,0.133007812,-0.003398437,1,0,1,o.laa.,o.laa.,0,53,53,32,1,opplaan,images/br_opplaan.png,images/cb_opplaan.png
,,,,,,00025,2023-09-03_10h23.41.680,vbt_B2_day1,2022.2.4,MacIntel,60.0024001,,,,,,,,,,,,,,,,,,,,,,,,,,,,,,,,,,,,,,,,,,,0.133007812,-0.003398437,1,0,1,voor..ur,voor..ur,0,54,54,39,1,voorreur,images/br_voorreur.png,images/cb_voorreur.png
,,,,,,00025,2023-09-03_10h23.41.680,vbt_B2_day1,2022.2.4,MacIntel,60.0024001,,,,,,,,,,,,,,,,,,,,,,,,,,,,,,,,,,,,,,,,,,,0.133007812,-0.003398437,1,0,1,...,...,0,55,55,5,1,maken,images/br_maken.png,images/cb_maken.png
,,,,,,00025,2023-09-03_10h23.41.680,vbt_B2_day1,2022.2.4,MacIntel,60.0024001,,,,,,,,,,,,,,,,,,,,,,,,,,,,,,,,,,,,,,,,,,,0.098216146,0.026480035,1,0,1,.c.e.,.c.e.,0,56,56,4,1,schep,images/br_schep.png,images/cb_schep.png
,,,,,,00025,2023-09-03_10h23.41.680,vbt_B2_day1,2022.2.4,MacIntel,60.0024001,,,,,,,,,,,,,,,,,,,,,,,,,,,,,,,,,,,,,,,,,,,0.098216146,0.026480035,1,0,1,liege.,liege.,0,57,57,50,1,liegen,images/br_liegen.png,images/cb_liegen.png
,,,,,,00025,2023-09-03_10h23.41.680,vbt_B2_day1,2022.2.4,MacIntel,60.0024001,,,,,,,,,,,,,,,,,,,,,,,,,,,,,,,,,,,,,,,,,,,0.098216146,0.026480035,1,0,1,.lulle.,.lulle.,0,58,58,33,1,flullen,images/br_flullen.png,images/cb_flullen.png
,,,,,,00025,2023-09-03_10h23.41.680,vbt_B2_day1,2022.2.4,MacIntel,60.0024001,,,,,,,,,,,,,,,,,,,,,,,,,,,,,,,,,,,,,,,,,,,0.098216146,0.026480035,1,0,1,.usie.,.usie.,0,59,59,10,1,muziek,images/br_muziek.png,images/cb_muziek.png
,,,,,,00025,2023-09-03_10h23.41.680,vbt_B2_day1,2022.2.4,MacIntel,60.0024001,,,,,,,,,,,,,,,,,,,,,,,,,,,,,,,,,,,,,,,,,,,,,,,,,,,,,,,,,
