welcome_mouse.x,welcome_mouse.y,welcome_mouse.leftButton,welcome_mouse.midButton,welcome_mouse.rightButton,welcome_mouse.time,"ID",date,expName,psychopyVersion,OS,frameRate,mouse_2.x,mouse_2.y,mouse_2.leftButton,mouse_2.midButton,mouse_2.rightButton,mouse_2.time,mouse_3.x,mouse_3.y,mouse_3.leftButton,mouse_3.midButton,mouse_3.rightButton,mouse_3.time,train_mouse.x,train_mouse.y,train_mouse.leftButton,train_mouse.midButton,train_mouse.rightButton,train_mouse.time,braille_mouse.x,braille_mouse.y,braille_mouse.leftButton,braille_mouse.midButton,braille_mouse.rightButton,braille_mouse.time,trials.thisRepN,trials.thisTrialN,trials.thisN,trials.thisIndex,trials.ran,nlLet,brLet,cbLet,mouse.x,mouse.y,mouse.leftButton,mouse.midButton,mouse.rightButton,testInstr_mouse.x,testInstr_mouse.y,testInstr_mouse.leftButton,testInstr_mouse.midButton,testInstr_mouse.rightButton,test_mouse.x,test_mouse.y,test_mouse.leftButton,test_mouse.midButton,test_mouse.rightButton,test_response.text,testResp,test_loop.thisRepN,test_loop.thisTrialN,test_loop.thisN,test_loop.thisIndex,test_loop.ran,nlWrd,brWrd,cbWrd
-0.184722222,-0.0625,1,0,0,17.573,00069,2023-10-11_19h20.58.340,vbt_B2_day1,2022.2.4,Win32,143.9677512,,,,,,,,,,,,,,,,,,,,,,,,,,,,,,,,,,,,,,,,,,,,,,,,,,,,,,,,,
,,,,,,00069,2023-10-11_19h20.58.340,vbt_B2_day1,2022.2.4,Win32,143.9677512,-0.186805556,-0.192361111,1,0,0,11.0422,,,,,,,,,,,,,,,,,,,,,,,,,,,,,,,,,,,,,,,,,,,,,,,,,,,
,,,,,,00069,2023-10-11_19h20.58.340,vbt_B2_day1,2022.2.4,Win32,143.9677512,,,,,,,0.013888889,-0.302777778,1,0,0,31.3591,,,,,,,,,,,,,,,,,,,,,,,,,,,,,,,,,,,,,,,,,,,,,
,,,,,,00069,2023-10-11_19h20.58.340,vbt_B2_day1,2022.2.4,Win32,143.9677512,,,,,,,,,,,,,-0.063194444,-0.138888889,1,0,0,50.0825,,,,,,,,,,,,,,,,,,,,,,,,,,,,,,,,,,,,,,,
,,,,,,00069,2023-10-11_19h20.58.340,vbt_B2_day1,2022.2.4,Win32,143.9677512,,,,,,,,,,,,,,,,,,,0.151388889,-0.002777778,1,0,0,9.2796,0,0,0,8,1,i,images/br_i.png,images/cb_i.png,,,,,,,,,,,,,,,,,,,,,,,,,
,,,,,,00069,2023-10-11_19h20.58.340,vbt_B2_day1,2022.2.4,Win32,143.9677512,,,,,,,,,,,,,,,,,,,0.28125,-0.015972222,1,0,0,10.9739,0,1,1,6,1,g,images/br_g.png,images/cb_g.png,,,,,,,,,,,,,,,,,,,,,,,,,
,,,,,,00069,2023-10-11_19h20.58.340,vbt_B2_day1,2022.2.4,Win32,143.9677512,,,,,,,,,,,,,,,,,,,0.286111111,-0.015972222,1,0,0,9.5642,0,2,2,7,1,h,images/br_h.png,images/cb_h.png,,,,,,,,,,,,,,,,,,,,,,,,,
,,,,,,00069,2023-10-11_19h20.58.340,vbt_B2_day1,2022.2.4,Win32,143.9677512,,,,,,,,,,,,,,,,,,,0.341666667,0.024305556,1,0,0,11.6825,0,3,3,22,1,w,images/br_w.png,images/cb_w.png,,,,,,,,,,,,,,,,,,,,,,,,,
,,,,,,00069,2023-10-11_19h20.58.340,vbt_B2_day1,2022.2.4,Win32,143.9677512,,,,,,,,,,,,,,,,,,,0.29375,-0.004166667,1,0,0,13.6274,0,4,4,17,1,r,images/br_r.png,images/cb_r.png,,,,,,,,,,,,,,,,,,,,,,,,,
,,,,,,00069,2023-10-11_19h20.58.340,vbt_B2_day1,2022.2.4,Win32,143.9677512,,,,,,,,,,,,,,,,,,,0.279166667,-0.001388889,1,0,0,3.7785,0,5,5,11,1,l,images/br_l.png,images/cb_l.png,,,,,,,,,,,,,,,,,,,,,,,,,
,,,,,,00069,2023-10-11_19h20.58.340,vbt_B2_day1,2022.2.4,Win32,143.9677512,,,,,,,,,,,,,,,,,,,0.539583333,-0.175694444,1,0,0,13.148,0,6,6,23,1,x,images/br_x.png,images/cb_x.png,,,,,,,,,,,,,,,,,,,,,,,,,
,,,,,,00069,2023-10-11_19h20.58.340,vbt_B2_day1,2022.2.4,Win32,143.9677512,,,,,,,,,,,,,,,,,,,0.15625,-0.061111111,1,0,0,15.7182,0,7,7,24,1,y,images/br_y.png,images/cb_y.png,,,,,,,,,,,,,,,,,,,,,,,,,
,,,,,,00069,2023-10-11_19h20.58.340,vbt_B2_day1,2022.2.4,Win32,143.9677512,,,,,,,,,,,,,,,,,,,0.288194444,0.085416667,1,0,0,13.051,0,8,8,5,1,f,images/br_f.png,images/cb_f.png,,,,,,,,,,,,,,,,,,,,,,,,,
,,,,,,00069,2023-10-11_19h20.58.340,vbt_B2_day1,2022.2.4,Win32,143.9677512,,,,,,,,,,,,,,,,,,,0.264583333,-0.0625,1,0,0,14.7596,0,9,9,25,1,z,images/br_z.png,images/cb_z.png,,,,,,,,,,,,,,,,,,,,,,,,,
,,,,,,00069,2023-10-11_19h20.58.340,vbt_B2_day1,2022.2.4,Win32,143.9677512,,,,,,,,,,,,,,,,,,,0.295833333,-0.131944444,1,0,0,10.7307,0,10,10,12,1,m,images/br_m.png,images/cb_m.png,,,,,,,,,,,,,,,,,,,,,,,,,
,,,,,,00069,2023-10-11_19h20.58.340,vbt_B2_day1,2022.2.4,Win32,143.9677512,,,,,,,,,,,,,,,,,,,0.391666667,-0.186111111,1,0,0,11.8215,0,11,11,20,1,u,images/br_u.png,images/cb_u.png,,,,,,,,,,,,,,,,,,,,,,,,,
,,,,,,00069,2023-10-11_19h20.58.340,vbt_B2_day1,2022.2.4,Win32,143.9677512,,,,,,,,,,,,,,,,,,,0.250694444,0.022222222,1,0,0,18.9199,0,12,12,1,1,b,images/br_b.png,images/cb_b.png,,,,,,,,,,,,,,,,,,,,,,,,,
,,,,,,00069,2023-10-11_19h20.58.340,vbt_B2_day1,2022.2.4,Win32,143.9677512,,,,,,,,,,,,,,,,,,,0.210416667,-0.3375,1,0,0,18.1282,0,13,13,15,1,p,images/br_p.png,images/cb_p.png,,,,,,,,,,,,,,,,,,,,,,,,,
,,,,,,00069,2023-10-11_19h20.58.340,vbt_B2_day1,2022.2.4,Win32,143.9677512,,,,,,,,,,,,,,,,,,,0.527777778,-0.059722222,1,0,0,10.9949,0,14,14,3,1,d,images/br_d.png,images/cb_d.png,,,,,,,,,,,,,,,,,,,,,,,,,
,,,,,,00069,2023-10-11_19h20.58.340,vbt_B2_day1,2022.2.4,Win32,143.9677512,,,,,,,,,,,,,,,,,,,0.210416667,0.138194444,1,0,0,7.4109,0,15,15,4,1,e,images/br_e.png,images/cb_e.png,,,,,,,,,,,,,,,,,,,,,,,,,
,,,,,,00069,2023-10-11_19h20.58.340,vbt_B2_day1,2022.2.4,Win32,143.9677512,,,,,,,,,,,,,,,,,,,0.363888889,-0.054166667,1,0,0,9.6475,0,16,16,0,1,a,images/br_a.png,images/cb_a.png,,,,,,,,,,,,,,,,,,,,,,,,,
,,,,,,00069,2023-10-11_19h20.58.340,vbt_B2_day1,2022.2.4,Win32,143.9677512,,,,,,,,,,,,,,,,,,,0.425,-0.129861111,1,0,0,35.1242,0,17,17,21,1,v,images/br_v.png,images/cb_v.png,,,,,,,,,,,,,,,,,,,,,,,,,
,,,,,,00069,2023-10-11_19h20.58.340,vbt_B2_day1,2022.2.4,Win32,143.9677512,,,,,,,,,,,,,,,,,,,0.186805556,0.065277778,1,0,0,31.1581,0,18,18,9,1,j,images/br_j.png,images/cb_j.png,,,,,,,,,,,,,,,,,,,,,,,,,
,,,,,,00069,2023-10-11_19h20.58.340,vbt_B2_day1,2022.2.4,Win32,143.9677512,,,,,,,,,,,,,,,,,,,0.310416667,0.075694444,1,0,0,15.5722,0,19,19,18,1,s,images/br_s.png,images/cb_s.png,,,,,,,,,,,,,,,,,,,,,,,,,
,,,,,,00069,2023-10-11_19h20.58.340,vbt_B2_day1,2022.2.4,Win32,143.9677512,,,,,,,,,,,,,,,,,,,-0.029861111,-0.040277778,1,0,0,16.0722,0,20,20,13,1,n,images/br_n.png,images/cb_n.png,,,,,,,,,,,,,,,,,,,,,,,,,
,,,,,,00069,2023-10-11_19h20.58.340,vbt_B2_day1,2022.2.4,Win32,143.9677512,,,,,,,,,,,,,,,,,,,0.305555556,0.077777778,1,0,0,11.231,0,21,21,2,1,c,images/br_c.png,images/cb_c.png,,,,,,,,,,,,,,,,,,,,,,,,,
,,,,,,00069,2023-10-11_19h20.58.340,vbt_B2_day1,2022.2.4,Win32,143.9677512,,,,,,,,,,,,,,,,,,,0.448611111,0.207638889,1,0,0,17.5517,0,22,22,16,1,q,images/br_q.png,images/cb_q.png,,,,,,,,,,,,,,,,,,,,,,,,,
,,,,,,00069,2023-10-11_19h20.58.340,vbt_B2_day1,2022.2.4,Win32,143.9677512,,,,,,,,,,,,,,,,,,,0.452777778,-0.242361111,1,0,0,30.672,0,23,23,10,1,k,images/br_k.png,images/cb_k.png,,,,,,,,,,,,,,,,,,,,,,,,,
,,,,,,00069,2023-10-11_19h20.58.340,vbt_B2_day1,2022.2.4,Win32,143.9677512,,,,,,,,,,,,,,,,,,,-0.028472222,-0.045138889,1,0,0,15.9055,0,24,24,14,1,o,images/br_o.png,images/cb_o.png,,,,,,,,,,,,,,,,,,,,,,,,,
,,,,,,00069,2023-10-11_19h20.58.340,vbt_B2_day1,2022.2.4,Win32,143.9677512,,,,,,,,,,,,,,,,,,,0.015972222,-0.174305556,1,0,0,17.1627,0,25,25,19,1,t,images/br_t.png,images/cb_t.png,,,,,,,,,,,,,,,,,,,,,,,,,
,,,,,,00069,2023-10-11_19h20.58.340,vbt_B2_day1,2022.2.4,Win32,143.9677512,,,,,,,,,,,,,,,,,,,0.046527778,-0.091666667,1,0,0,2.8756,1,0,26,11,1,l,images/br_l.png,images/cb_l.png,,,,,,,,,,,,,,,,,,,,,,,,,
,,,,,,00069,2023-10-11_19h20.58.340,vbt_B2_day1,2022.2.4,Win32,143.9677512,,,,,,,,,,,,,,,,,,,0.046527778,-0.091666667,1,0,0,0.4653,1,1,27,5,1,f,images/br_f.png,images/cb_f.png,,,,,,,,,,,,,,,,,,,,,,,,,
,,,,,,00069,2023-10-11_19h20.58.340,vbt_B2_day1,2022.2.4,Win32,143.9677512,,,,,,,,,,,,,,,,,,,0.219444444,-0.089583333,1,0,0,5.1606,1,2,28,16,1,q,images/br_q.png,images/cb_q.png,,,,,,,,,,,,,,,,,,,,,,,,,
,,,,,,00069,2023-10-11_19h20.58.340,vbt_B2_day1,2022.2.4,Win32,143.9677512,,,,,,,,,,,,,,,,,,,0.223611111,-0.174305556,1,0,0,4.7022,1,3,29,25,1,z,images/br_z.png,images/cb_z.png,,,,,,,,,,,,,,,,,,,,,,,,,
,,,,,,00069,2023-10-11_19h20.58.340,vbt_B2_day1,2022.2.4,Win32,143.9677512,,,,,,,,,,,,,,,,,,,0.217361111,0.006944444,1,0,0,30.686,1,4,30,15,1,p,images/br_p.png,images/cb_p.png,,,,,,,,,,,,,,,,,,,,,,,,,
,,,,,,00069,2023-10-11_19h20.58.340,vbt_B2_day1,2022.2.4,Win32,143.9677512,,,,,,,,,,,,,,,,,,,0.289583333,-0.134027778,1,0,0,11.0366,1,5,31,19,1,t,images/br_t.png,images/cb_t.png,,,,,,,,,,,,,,,,,,,,,,,,,
,,,,,,00069,2023-10-11_19h20.58.340,vbt_B2_day1,2022.2.4,Win32,143.9677512,,,,,,,,,,,,,,,,,,,0.16875,0.097916667,1,0,0,17.642,1,6,32,3,1,d,images/br_d.png,images/cb_d.png,,,,,,,,,,,,,,,,,,,,,,,,,
,,,,,,00069,2023-10-11_19h20.58.340,vbt_B2_day1,2022.2.4,Win32,143.9677512,,,,,,,,,,,,,,,,,,,0.16875,0.103472222,1,0,0,0.2918,1,7,33,12,1,m,images/br_m.png,images/cb_m.png,,,,,,,,,,,,,,,,,,,,,,,,,
,,,,,,00069,2023-10-11_19h20.58.340,vbt_B2_day1,2022.2.4,Win32,143.9677512,,,,,,,,,,,,,,,,,,,0.419444444,0.054166667,1,0,0,1.1876,1,8,34,6,1,g,images/br_g.png,images/cb_g.png,,,,,,,,,,,,,,,,,,,,,,,,,
,,,,,,00069,2023-10-11_19h20.58.340,vbt_B2_day1,2022.2.4,Win32,143.9677512,,,,,,,,,,,,,,,,,,,0.382638889,0.0625,1,0,0,0.9446,1,9,35,18,1,s,images/br_s.png,images/cb_s.png,,,,,,,,,,,,,,,,,,,,,,,,,
,,,,,,00069,2023-10-11_19h20.58.340,vbt_B2_day1,2022.2.4,Win32,143.9677512,,,,,,,,,,,,,,,,,,,0.382638889,0.0625,1,0,0,0.264,1,10,36,8,1,i,images/br_i.png,images/cb_i.png,,,,,,,,,,,,,,,,,,,,,,,,,
,,,,,,00069,2023-10-11_19h20.58.340,vbt_B2_day1,2022.2.4,Win32,143.9677512,,,,,,,,,,,,,,,,,,,0.284722222,0.027777778,1,0,0,9.1055,1,11,37,1,1,b,images/br_b.png,images/cb_b.png,,,,,,,,,,,,,,,,,,,,,,,,,
,,,,,,00069,2023-10-11_19h20.58.340,vbt_B2_day1,2022.2.4,Win32,143.9677512,,,,,,,,,,,,,,,,,,,0.284722222,0.034027778,1,0,0,2.9935,1,12,38,22,1,w,images/br_w.png,images/cb_w.png,,,,,,,,,,,,,,,,,,,,,,,,,
,,,,,,00069,2023-10-11_19h20.58.340,vbt_B2_day1,2022.2.4,Win32,143.9677512,,,,,,,,,,,,,,,,,,,0.284722222,0.040277778,1,0,0,0.0904,1,13,39,23,1,x,images/br_x.png,images/cb_x.png,,,,,,,,,,,,,,,,,,,,,,,,,
,,,,,,00069,2023-10-11_19h20.58.340,vbt_B2_day1,2022.2.4,Win32,143.9677512,,,,,,,,,,,,,,,,,,,0.285416667,0.050694444,1,0,0,1.7018,1,14,40,24,1,y,images/br_y.png,images/cb_y.png,,,,,,,,,,,,,,,,,,,,,,,,,
,,,,,,00069,2023-10-11_19h20.58.340,vbt_B2_day1,2022.2.4,Win32,143.9677512,,,,,,,,,,,,,,,,,,,0.036805556,0.066666667,1,0,0,9.5295,1,15,41,7,1,h,images/br_h.png,images/cb_h.png,,,,,,,,,,,,,,,,,,,,,,,,,
,,,,,,00069,2023-10-11_19h20.58.340,vbt_B2_day1,2022.2.4,Win32,143.9677512,,,,,,,,,,,,,,,,,,,0.084722222,0.066666667,1,0,0,0.3125,1,16,42,0,1,a,images/br_a.png,images/cb_a.png,,,,,,,,,,,,,,,,,,,,,,,,,
,,,,,,00069,2023-10-11_19h20.58.340,vbt_B2_day1,2022.2.4,Win32,143.9677512,,,,,,,,,,,,,,,,,,,0.081944444,0.061805556,1,0,0,1.0002,1,17,43,20,1,u,images/br_u.png,images/cb_u.png,,,,,,,,,,,,,,,,,,,,,,,,,
,,,,,,00069,2023-10-11_19h20.58.340,vbt_B2_day1,2022.2.4,Win32,143.9677512,,,,,,,,,,,,,,,,,,,0.081944444,0.061805556,1,0,0,0.4375,1,18,44,17,1,r,images/br_r.png,images/cb_r.png,,,,,,,,,,,,,,,,,,,,,,,,,
,,,,,,00069,2023-10-11_19h20.58.340,vbt_B2_day1,2022.2.4,Win32,143.9677512,,,,,,,,,,,,,,,,,,,0.168055556,0.05625,1,0,0,0.7084,1,19,45,2,1,c,images/br_c.png,images/cb_c.png,,,,,,,,,,,,,,,,,,,,,,,,,
,,,,,,00069,2023-10-11_19h20.58.340,vbt_B2_day1,2022.2.4,Win32,143.9677512,,,,,,,,,,,,,,,,,,,0.245138889,0.027777778,1,0,0,0.0417,1,20,46,14,1,o,images/br_o.png,images/cb_o.png,,,,,,,,,,,,,,,,,,,,,,,,,
,,,,,,00069,2023-10-11_19h20.58.340,vbt_B2_day1,2022.2.4,Win32,143.9677512,,,,,,,,,,,,,,,,,,,0.297916667,0.111111111,1,0,0,6.4247,1,21,47,10,1,k,images/br_k.png,images/cb_k.png,,,,,,,,,,,,,,,,,,,,,,,,,
,,,,,,00069,2023-10-11_19h20.58.340,vbt_B2_day1,2022.2.4,Win32,143.9677512,,,,,,,,,,,,,,,,,,,0.297916667,0.118055556,1,0,0,0.0417,1,22,48,4,1,e,images/br_e.png,images/cb_e.png,,,,,,,,,,,,,,,,,,,,,,,,,
,,,,,,00069,2023-10-11_19h20.58.340,vbt_B2_day1,2022.2.4,Win32,143.9677512,,,,,,,,,,,,,,,,,,,0.1,-0.006944444,1,0,0,21.3092,1,23,49,9,1,j,images/br_j.png,images/cb_j.png,,,,,,,,,,,,,,,,,,,,,,,,,
,,,,,,00069,2023-10-11_19h20.58.340,vbt_B2_day1,2022.2.4,Win32,143.9677512,,,,,,,,,,,,,,,,,,,0.114583333,-0.114583333,1,0,0,7.8764,1,24,50,13,1,n,images/br_n.png,images/cb_n.png,,,,,,,,,,,,,,,,,,,,,,,,,
,,,,,,00069,2023-10-11_19h20.58.340,vbt_B2_day1,2022.2.4,Win32,143.9677512,,,,,,,,,,,,,,,,,,,0.114583333,-0.114583333,1,0,0,0.4168,1,25,51,21,1,v,images/br_v.png,images/cb_v.png,,,,,,,,,,,,,,,,,,,,,,,,,
,,,,,,00069,2023-10-11_19h20.58.340,vbt_B2_day1,2022.2.4,Win32,143.9677512,,,,,,,,,,,,,,,,,,,0.114583333,-0.114583333,1,0,0,0.0833,2,0,52,14,1,o,images/br_o.png,images/cb_o.png,,,,,,,,,,,,,,,,,,,,,,,,,
,,,,,,00069,2023-10-11_19h20.58.340,vbt_B2_day1,2022.2.4,Win32,143.9677512,,,,,,,,,,,,,,,,,,,0.151388889,-0.064583333,1,0,0,0.4307,2,1,53,21,1,v,images/br_v.png,images/cb_v.png,,,,,,,,,,,,,,,,,,,,,,,,,
,,,,,,00069,2023-10-11_19h20.58.340,vbt_B2_day1,2022.2.4,Win32,143.9677512,,,,,,,,,,,,,,,,,,,0.14375,-0.1,1,0,0,0.9793,2,2,54,22,1,w,images/br_w.png,images/cb_w.png,,,,,,,,,,,,,,,,,,,,,,,,,
,,,,,,00069,2023-10-11_19h20.58.340,vbt_B2_day1,2022.2.4,Win32,143.9677512,,,,,,,,,,,,,,,,,,,0.14375,-0.1,1,0,0,0.1389,2,3,55,3,1,d,images/br_d.png,images/cb_d.png,,,,,,,,,,,,,,,,,,,,,,,,,
,,,,,,00069,2023-10-11_19h20.58.340,vbt_B2_day1,2022.2.4,Win32,143.9677512,,,,,,,,,,,,,,,,,,,0.14375,-0.1,1,0,0,0.8892,2,4,56,10,1,k,images/br_k.png,images/cb_k.png,,,,,,,,,,,,,,,,,,,,,,,,,
,,,,,,00069,2023-10-11_19h20.58.340,vbt_B2_day1,2022.2.4,Win32,143.9677512,,,,,,,,,,,,,,,,,,,0.451388889,-0.085416667,1,0,0,0.9516,2,5,57,4,1,e,images/br_e.png,images/cb_e.png,,,,,,,,,,,,,,,,,,,,,,,,,
,,,,,,00069,2023-10-11_19h20.58.340,vbt_B2_day1,2022.2.4,Win32,143.9677512,,,,,,,,,,,,,,,,,,,0.385416667,-0.104166667,1,0,0,0.8611,2,6,58,6,1,g,images/br_g.png,images/cb_g.png,,,,,,,,,,,,,,,,,,,,,,,,,
,,,,,,00069,2023-10-11_19h20.58.340,vbt_B2_day1,2022.2.4,Win32,143.9677512,,,,,,,,,,,,,,,,,,,0.334722222,-0.105555556,1,0,0,0.2848,2,7,59,16,1,q,images/br_q.png,images/cb_q.png,,,,,,,,,,,,,,,,,,,,,,,,,
,,,,,,00069,2023-10-11_19h20.58.340,vbt_B2_day1,2022.2.4,Win32,143.9677512,,,,,,,,,,,,,,,,,,,0.334722222,-0.105555556,1,0,0,0.1736,2,8,60,20,1,u,images/br_u.png,images/cb_u.png,,,,,,,,,,,,,,,,,,,,,,,,,
,,,,,,00069,2023-10-11_19h20.58.340,vbt_B2_day1,2022.2.4,Win32,143.9677512,,,,,,,,,,,,,,,,,,,0.334722222,-0.105555556,1,0,0,0.5696,2,9,61,8,1,i,images/br_i.png,images/cb_i.png,,,,,,,,,,,,,,,,,,,,,,,,,
,,,,,,00069,2023-10-11_19h20.58.340,vbt_B2_day1,2022.2.4,Win32,143.9677512,,,,,,,,,,,,,,,,,,,0.334722222,-0.105555556,1,0,0,0.2779,2,10,62,15,1,p,images/br_p.png,images/cb_p.png,,,,,,,,,,,,,,,,,,,,,,,,,
,,,,,,00069,2023-10-11_19h20.58.340,vbt_B2_day1,2022.2.4,Win32,143.9677512,,,,,,,,,,,,,,,,,,,0.334722222,-0.105555556,1,0,0,0.1737,2,11,63,1,1,b,images/br_b.png,images/cb_b.png,,,,,,,,,,,,,,,,,,,,,,,,,
,,,,,,00069,2023-10-11_19h20.58.340,vbt_B2_day1,2022.2.4,Win32,143.9677512,,,,,,,,,,,,,,,,,,,0.316666667,-0.138888889,1,0,0,1.3474,2,12,64,25,1,z,images/br_z.png,images/cb_z.png,,,,,,,,,,,,,,,,,,,,,,,,,
,,,,,,00069,2023-10-11_19h20.58.340,vbt_B2_day1,2022.2.4,Win32,143.9677512,,,,,,,,,,,,,,,,,,,0.318055556,-0.138888889,1,0,0,0.6459,2,13,65,24,1,y,images/br_y.png,images/cb_y.png,,,,,,,,,,,,,,,,,,,,,,,,,
,,,,,,00069,2023-10-11_19h20.58.340,vbt_B2_day1,2022.2.4,Win32,143.9677512,,,,,,,,,,,,,,,,,,,0.526388889,0.006944444,1,0,0,20.3299,2,14,66,5,1,f,images/br_f.png,images/cb_f.png,,,,,,,,,,,,,,,,,,,,,,,,,
,,,,,,00069,2023-10-11_19h20.58.340,vbt_B2_day1,2022.2.4,Win32,143.9677512,,,,,,,,,,,,,,,,,,,0.419444444,-0.05625,1,0,0,0.8126,2,15,67,7,1,h,images/br_h.png,images/cb_h.png,,,,,,,,,,,,,,,,,,,,,,,,,
,,,,,,00069,2023-10-11_19h20.58.340,vbt_B2_day1,2022.2.4,Win32,143.9677512,,,,,,,,,,,,,,,,,,,0.418055556,-0.054166667,1,0,0,0.3125,2,16,68,19,1,t,images/br_t.png,images/cb_t.png,,,,,,,,,,,,,,,,,,,,,,,,,
,,,,,,00069,2023-10-11_19h20.58.340,vbt_B2_day1,2022.2.4,Win32,143.9677512,,,,,,,,,,,,,,,,,,,0.418055556,-0.054166667,1,0,0,0.778,2,17,69,13,1,n,images/br_n.png,images/cb_n.png,,,,,,,,,,,,,,,,,,,,,,,,,
,,,,,,00069,2023-10-11_19h20.58.340,vbt_B2_day1,2022.2.4,Win32,143.9677512,,,,,,,,,,,,,,,,,,,0.418055556,-0.054166667,1,0,0,0.0695,2,18,70,17,1,r,images/br_r.png,images/cb_r.png,,,,,,,,,,,,,,,,,,,,,,,,,
,,,,,,00069,2023-10-11_19h20.58.340,vbt_B2_day1,2022.2.4,Win32,143.9677512,,,,,,,,,,,,,,,,,,,0.418055556,-0.054166667,1,0,0,2.8327,2,19,71,9,1,j,images/br_j.png,images/cb_j.png,,,,,,,,,,,,,,,,,,,,,,,,,
,,,,,,00069,2023-10-11_19h20.58.340,vbt_B2_day1,2022.2.4,Win32,143.9677512,,,,,,,,,,,,,,,,,,,0.418055556,-0.054166667,1,0,0,2.3061,2,20,72,23,1,x,images/br_x.png,images/cb_x.png,,,,,,,,,,,,,,,,,,,,,,,,,
,,,,,,00069,2023-10-11_19h20.58.340,vbt_B2_day1,2022.2.4,Win32,143.9677512,,,,,,,,,,,,,,,,,,,0.418055556,-0.054166667,1,0,0,0.0069,2,21,73,0,1,a,images/br_a.png,images/cb_a.png,,,,,,,,,,,,,,,,,,,,,,,,,
,,,,,,00069,2023-10-11_19h20.58.340,vbt_B2_day1,2022.2.4,Win32,143.9677512,,,,,,,,,,,,,,,,,,,0.418055556,-0.054166667,1,0,0,0.6459,2,22,74,18,1,s,images/br_s.png,images/cb_s.png,,,,,,,,,,,,,,,,,,,,,,,,,
,,,,,,00069,2023-10-11_19h20.58.340,vbt_B2_day1,2022.2.4,Win32,143.9677512,,,,,,,,,,,,,,,,,,,0.418055556,-0.054166667,1,0,0,0.1875,2,23,75,2,1,c,images/br_c.png,images/cb_c.png,,,,,,,,,,,,,,,,,,,,,,,,,
,,,,,,00069,2023-10-11_19h20.58.340,vbt_B2_day1,2022.2.4,Win32,143.9677512,,,,,,,,,,,,,,,,,,,0.418055556,-0.054166667,1,0,0,0.0694,2,24,76,12,1,m,images/br_m.png,images/cb_m.png,,,,,,,,,,,,,,,,,,,,,,,,,
,,,,,,00069,2023-10-11_19h20.58.340,vbt_B2_day1,2022.2.4,Win32,143.9677512,,,,,,,,,,,,,,,,,,,0.418055556,-0.054166667,1,0,0,0.6253,2,25,77,11,1,l,images/br_l.png,images/cb_l.png,,,,,,,,,,,,,,,,,,,,,,,,,
,,,,,,00069,2023-10-11_19h20.58.340,vbt_B2_day1,2022.2.4,Win32,143.9677512,,,,,,,,,,,,,,,,,,,0.418055556,-0.054166667,1,0,0,2.681,3,0,78,7,1,h,images/br_h.png,images/cb_h.png,,,,,,,,,,,,,,,,,,,,,,,,,
,,,,,,00069,2023-10-11_19h20.58.340,vbt_B2_day1,2022.2.4,Win32,143.9677512,,,,,,,,,,,,,,,,,,,0.418055556,-0.054166667,1,0,0,0.4724,3,1,79,17,1,r,images/br_r.png,images/cb_r.png,,,,,,,,,,,,,,,,,,,,,,,,,
,,,,,,00069,2023-10-11_19h20.58.340,vbt_B2_day1,2022.2.4,Win32,143.9677512,,,,,,,,,,,,,,,,,,,0.418055556,-0.054166667,1,0,0,1.153,3,2,80,18,1,s,images/br_s.png,images/cb_s.png,,,,,,,,,,,,,,,,,,,,,,,,,
,,,,,,00069,2023-10-11_19h20.58.340,vbt_B2_day1,2022.2.4,Win32,143.9677512,,,,,,,,,,,,,,,,,,,0.418055556,-0.054166667,1,0,0,1.6045,3,3,81,20,1,u,images/br_u.png,images/cb_u.png,,,,,,,,,,,,,,,,,,,,,,,,,
,,,,,,00069,2023-10-11_19h20.58.340,vbt_B2_day1,2022.2.4,Win32,143.9677512,,,,,,,,,,,,,,,,,,,0.409722222,-0.061805556,1,0,0,0.9654,3,4,82,6,1,g,images/br_g.png,images/cb_g.png,,,,,,,,,,,,,,,,,,,,,,,,,
,,,,,,00069,2023-10-11_19h20.58.340,vbt_B2_day1,2022.2.4,Win32,143.9677512,,,,,,,,,,,,,,,,,,,0.458333333,-0.056944444,1,0,0,0.4237,3,5,83,0,1,a,images/br_a.png,images/cb_a.png,,,,,,,,,,,,,,,,,,,,,,,,,
,,,,,,00069,2023-10-11_19h20.58.340,vbt_B2_day1,2022.2.4,Win32,143.9677512,,,,,,,,,,,,,,,,,,,0.458333333,-0.052777778,1,0,0,0.5974,3,6,84,15,1,p,images/br_p.png,images/cb_p.png,,,,,,,,,,,,,,,,,,,,,,,,,
,,,,,,00069,2023-10-11_19h20.58.340,vbt_B2_day1,2022.2.4,Win32,143.9677512,,,,,,,,,,,,,,,,,,,0.458333333,-0.052777778,1,0,0,0.8127,3,7,85,8,1,i,images/br_i.png,images/cb_i.png,,,,,,,,,,,,,,,,,,,,,,,,,
,,,,,,00069,2023-10-11_19h20.58.340,vbt_B2_day1,2022.2.4,Win32,143.9677512,,,,,,,,,,,,,,,,,,,0.315972222,-0.006944444,1,0,0,6.5568,3,8,86,14,1,o,images/br_o.png,images/cb_o.png,,,,,,,,,,,,,,,,,,,,,,,,,
,,,,,,00069,2023-10-11_19h20.58.340,vbt_B2_day1,2022.2.4,Win32,143.9677512,,,,,,,,,,,,,,,,,,,0.315972222,-0.006944444,1,0,0,0.1111,3,9,87,4,1,e,images/br_e.png,images/cb_e.png,,,,,,,,,,,,,,,,,,,,,,,,,
,,,,,,00069,2023-10-11_19h20.58.340,vbt_B2_day1,2022.2.4,Win32,143.9677512,,,,,,,,,,,,,,,,,,,0.315972222,-0.005555556,1,0,0,0.1181,3,10,88,12,1,m,images/br_m.png,images/cb_m.png,,,,,,,,,,,,,,,,,,,,,,,,,
,,,,,,00069,2023-10-11_19h20.58.340,vbt_B2_day1,2022.2.4,Win32,143.9677512,,,,,,,,,,,,,,,,,,,0.315972222,-0.005555556,1,0,0,0.0416,3,11,89,11,1,l,images/br_l.png,images/cb_l.png,,,,,,,,,,,,,,,,,,,,,,,,,
,,,,,,00069,2023-10-11_19h20.58.340,vbt_B2_day1,2022.2.4,Win32,143.9677512,,,,,,,,,,,,,,,,,,,0.315972222,-0.004166667,1,0,0,0.7431,3,12,90,3,1,d,images/br_d.png,images/cb_d.png,,,,,,,,,,,,,,,,,,,,,,,,,
,,,,,,00069,2023-10-11_19h20.58.340,vbt_B2_day1,2022.2.4,Win32,143.9677512,,,,,,,,,,,,,,,,,,,0.315972222,-0.004166667,1,0,0,0.0486,3,13,91,23,1,x,images/br_x.png,images/cb_x.png,,,,,,,,,,,,,,,,,,,,,,,,,
,,,,,,00069,2023-10-11_19h20.58.340,vbt_B2_day1,2022.2.4,Win32,143.9677512,,,,,,,,,,,,,,,,,,,0.315972222,-0.004166667,1,0,0,0.403,3,14,92,2,1,c,images/br_c.png,images/cb_c.png,,,,,,,,,,,,,,,,,,,,,,,,,
,,,,,,00069,2023-10-11_19h20.58.340,vbt_B2_day1,2022.2.4,Win32,143.9677512,,,,,,,,,,,,,,,,,,,0.315972222,-0.004166667,1,0,0,0.0138,3,15,93,24,1,y,images/br_y.png,images/cb_y.png,,,,,,,,,,,,,,,,,,,,,,,,,
,,,,,,00069,2023-10-11_19h20.58.340,vbt_B2_day1,2022.2.4,Win32,143.9677512,,,,,,,,,,,,,,,,,,,0.315972222,-0.004166667,1,0,0,0.5765,3,16,94,25,1,z,images/br_z.png,images/cb_z.png,,,,,,,,,,,,,,,,,,,,,,,,,
,,,,,,00069,2023-10-11_19h20.58.340,vbt_B2_day1,2022.2.4,Win32,143.9677512,,,,,,,,,,,,,,,,,,,0.315972222,-0.004166667,1,0,0,0.6391,3,17,95,22,1,w,images/br_w.png,images/cb_w.png,,,,,,,,,,,,,,,,,,,,,,,,,
,,,,,,00069,2023-10-11_19h20.58.340,vbt_B2_day1,2022.2.4,Win32,143.9677512,,,,,,,,,,,,,,,,,,,0.315972222,-0.004166667,1,0,0,2.1393,3,18,96,10,1,k,images/br_k.png,images/cb_k.png,,,,,,,,,,,,,,,,,,,,,,,,,
,,,,,,00069,2023-10-11_19h20.58.340,vbt_B2_day1,2022.2.4,Win32,143.9677512,,,,,,,,,,,,,,,,,,,0.315972222,-0.004166667,1,0,0,0.1806,3,19,97,5,1,f,images/br_f.png,images/cb_f.png,,,,,,,,,,,,,,,,,,,,,,,,,
,,,,,,00069,2023-10-11_19h20.58.340,vbt_B2_day1,2022.2.4,Win32,143.9677512,,,,,,,,,,,,,,,,,,,0.315972222,-0.004166667,1,0,0,0.4931,3,20,98,21,1,v,images/br_v.png,images/cb_v.png,,,,,,,,,,,,,,,,,,,,,,,,,
,,,,,,00069,2023-10-11_19h20.58.340,vbt_B2_day1,2022.2.4,Win32,143.9677512,,,,,,,,,,,,,,,,,,,0.315972222,-0.004166667,1,0,0,0.8197,3,21,99,9,1,j,images/br_j.png,images/cb_j.png,,,,,,,,,,,,,,,,,,,,,,,,,
,,,,,,00069,2023-10-11_19h20.58.340,vbt_B2_day1,2022.2.4,Win32,143.9677512,,,,,,,,,,,,,,,,,,,0.315972222,-0.004166667,1,0,0,1.0697,3,22,100,16,1,q,images/br_q.png,images/cb_q.png,,,,,,,,,,,,,,,,,,,,,,,,,
,,,,,,00069,2023-10-11_19h20.58.340,vbt_B2_day1,2022.2.4,Win32,143.9677512,,,,,,,,,,,,,,,,,,,0.320833333,0.016666667,1,0,0,2.674,3,23,101,1,1,b,images/br_b.png,images/cb_b.png,,,,,,,,,,,,,,,,,,,,,,,,,
,,,,,,00069,2023-10-11_19h20.58.340,vbt_B2_day1,2022.2.4,Win32,143.9677512,,,,,,,,,,,,,,,,,,,0.30625,0.009722222,1,0,0,0.5348,3,24,102,19,1,t,images/br_t.png,images/cb_t.png,,,,,,,,,,,,,,,,,,,,,,,,,
,,,,,,00069,2023-10-11_19h20.58.340,vbt_B2_day1,2022.2.4,Win32,143.9677512,,,,,,,,,,,,,,,,,,,0.30625,0.009722222,1,0,0,0.2708,3,25,103,13,1,n,images/br_n.png,images/cb_n.png,,,,,,,,,,,,,,,,,,,,,,,,,
,,,,,,00069,2023-10-11_19h20.58.340,vbt_B2_day1,2022.2.4,Win32,143.9677512,,,,,,,,,,,,,,,,,,,0.30625,0.009722222,1,0,0,0.6251,4,0,104,4,1,e,images/br_e.png,images/cb_e.png,,,,,,,,,,,,,,,,,,,,,,,,,
,,,,,,00069,2023-10-11_19h20.58.340,vbt_B2_day1,2022.2.4,Win32,143.9677512,,,,,,,,,,,,,,,,,,,0.30625,0.009722222,1,0,0,0.3542,4,1,105,1,1,b,images/br_b.png,images/cb_b.png,,,,,,,,,,,,,,,,,,,,,,,,,
,,,,,,00069,2023-10-11_19h20.58.340,vbt_B2_day1,2022.2.4,Win32,143.9677512,,,,,,,,,,,,,,,,,,,0.30625,0.009722222,1,0,0,0.3196,4,2,106,9,1,j,images/br_j.png,images/cb_j.png,,,,,,,,,,,,,,,,,,,,,,,,,
,,,,,,00069,2023-10-11_19h20.58.340,vbt_B2_day1,2022.2.4,Win32,143.9677512,,,,,,,,,,,,,,,,,,,0.30625,0.009722222,1,0,0,0.4793,4,3,107,8,1,i,images/br_i.png,images/cb_i.png,,,,,,,,,,,,,,,,,,,,,,,,,
,,,,,,00069,2023-10-11_19h20.58.340,vbt_B2_day1,2022.2.4,Win32,143.9677512,,,,,,,,,,,,,,,,,,,0.30625,0.009722222,1,0,0,1.4446,4,4,108,22,1,w,images/br_w.png,images/cb_w.png,,,,,,,,,,,,,,,,,,,,,,,,,
,,,,,,00069,2023-10-11_19h20.58.340,vbt_B2_day1,2022.2.4,Win32,143.9677512,,,,,,,,,,,,,,,,,,,0.30625,0.009722222,1,0,0,0.6529,4,5,109,24,1,y,images/br_y.png,images/cb_y.png,,,,,,,,,,,,,,,,,,,,,,,,,
,,,,,,00069,2023-10-11_19h20.58.340,vbt_B2_day1,2022.2.4,Win32,143.9677512,,,,,,,,,,,,,,,,,,,0.30625,0.009722222,1,0,0,0.1042,4,6,110,12,1,m,images/br_m.png,images/cb_m.png,,,,,,,,,,,,,,,,,,,,,,,,,
,,,,,,00069,2023-10-11_19h20.58.340,vbt_B2_day1,2022.2.4,Win32,143.9677512,,,,,,,,,,,,,,,,,,,0.30625,0.009722222,1,0,0,0.7015,4,7,111,19,1,t,images/br_t.png,images/cb_t.png,,,,,,,,,,,,,,,,,,,,,,,,,
,,,,,,00069,2023-10-11_19h20.58.340,vbt_B2_day1,2022.2.4,Win32,143.9677512,,,,,,,,,,,,,,,,,,,0.30625,0.009722222,1,0,0,0.2779,4,8,112,2,1,c,images/br_c.png,images/cb_c.png,,,,,,,,,,,,,,,,,,,,,,,,,
,,,,,,00069,2023-10-11_19h20.58.340,vbt_B2_day1,2022.2.4,Win32,143.9677512,,,,,,,,,,,,,,,,,,,0.30625,0.009722222,1,0,0,0.2015,4,9,113,17,1,r,images/br_r.png,images/cb_r.png,,,,,,,,,,,,,,,,,,,,,,,,,
,,,,,,00069,2023-10-11_19h20.58.340,vbt_B2_day1,2022.2.4,Win32,143.9677512,,,,,,,,,,,,,,,,,,,0.302777778,-0.028472222,1,0,0,0.4723,4,10,114,20,1,u,images/br_u.png,images/cb_u.png,,,,,,,,,,,,,,,,,,,,,,,,,
,,,,,,00069,2023-10-11_19h20.58.340,vbt_B2_day1,2022.2.4,Win32,143.9677512,,,,,,,,,,,,,,,,,,,0.325,-0.055555556,1,0,0,0.0557,4,11,115,18,1,s,images/br_s.png,images/cb_s.png,,,,,,,,,,,,,,,,,,,,,,,,,
,,,,,,00069,2023-10-11_19h20.58.340,vbt_B2_day1,2022.2.4,Win32,143.9677512,,,,,,,,,,,,,,,,,,,0.320138889,-0.030555556,1,0,0,1.021,4,12,116,11,1,l,images/br_l.png,images/cb_l.png,,,,,,,,,,,,,,,,,,,,,,,,,
,,,,,,00069,2023-10-11_19h20.58.340,vbt_B2_day1,2022.2.4,Win32,143.9677512,,,,,,,,,,,,,,,,,,,0.30625,-0.05,1,0,0,1.0419,4,13,117,10,1,k,images/br_k.png,images/cb_k.png,,,,,,,,,,,,,,,,,,,,,,,,,
,,,,,,00069,2023-10-11_19h20.58.340,vbt_B2_day1,2022.2.4,Win32,143.9677512,,,,,,,,,,,,,,,,,,,0.295833333,-0.045138889,1,0,0,1.4101,4,14,118,21,1,v,images/br_v.png,images/cb_v.png,,,,,,,,,,,,,,,,,,,,,,,,,
,,,,,,00069,2023-10-11_19h20.58.340,vbt_B2_day1,2022.2.4,Win32,143.9677512,,,,,,,,,,,,,,,,,,,0.295833333,-0.04375,1,0,0,1.5489,4,15,119,23,1,x,images/br_x.png,images/cb_x.png,,,,,,,,,,,,,,,,,,,,,,,,,
,,,,,,00069,2023-10-11_19h20.58.340,vbt_B2_day1,2022.2.4,Win32,143.9677512,,,,,,,,,,,,,,,,,,,0.295833333,-0.036805556,1,0,0,0.0417,4,16,120,25,1,z,images/br_z.png,images/cb_z.png,,,,,,,,,,,,,,,,,,,,,,,,,
,,,,,,00069,2023-10-11_19h20.58.340,vbt_B2_day1,2022.2.4,Win32,143.9677512,,,,,,,,,,,,,,,,,,,0.295833333,-0.036805556,1,0,0,0.0486,4,17,121,7,1,h,images/br_h.png,images/cb_h.png,,,,,,,,,,,,,,,,,,,,,,,,,
,,,,,,00069,2023-10-11_19h20.58.340,vbt_B2_day1,2022.2.4,Win32,143.9677512,,,,,,,,,,,,,,,,,,,0.295833333,-0.036805556,1,0,0,0.375,4,18,122,14,1,o,images/br_o.png,images/cb_o.png,,,,,,,,,,,,,,,,,,,,,,,,,
,,,,,,00069,2023-10-11_19h20.58.340,vbt_B2_day1,2022.2.4,Win32,143.9677512,,,,,,,,,,,,,,,,,,,0.295833333,-0.03125,1,0,0,0.9723,4,19,123,15,1,p,images/br_p.png,images/cb_p.png,,,,,,,,,,,,,,,,,,,,,,,,,
,,,,,,00069,2023-10-11_19h20.58.340,vbt_B2_day1,2022.2.4,Win32,143.9677512,,,,,,,,,,,,,,,,,,,0.295833333,-0.03125,1,0,0,0.1736,4,20,124,5,1,f,images/br_f.png,images/cb_f.png,,,,,,,,,,,,,,,,,,,,,,,,,
,,,,,,00069,2023-10-11_19h20.58.340,vbt_B2_day1,2022.2.4,Win32,143.9677512,,,,,,,,,,,,,,,,,,,0.295833333,-0.028472222,1,0,0,0.0417,4,21,125,16,1,q,images/br_q.png,images/cb_q.png,,,,,,,,,,,,,,,,,,,,,,,,,
,,,,,,00069,2023-10-11_19h20.58.340,vbt_B2_day1,2022.2.4,Win32,143.9677512,,,,,,,,,,,,,,,,,,,0.295833333,-0.028472222,1,0,0,0.0417,4,22,126,6,1,g,images/br_g.png,images/cb_g.png,,,,,,,,,,,,,,,,,,,,,,,,,
,,,,,,00069,2023-10-11_19h20.58.340,vbt_B2_day1,2022.2.4,Win32,143.9677512,,,,,,,,,,,,,,,,,,,0.295833333,-0.028472222,1,0,0,0.007,4,23,127,3,1,d,images/br_d.png,images/cb_d.png,,,,,,,,,,,,,,,,,,,,,,,,,
,,,,,,00069,2023-10-11_19h20.58.340,vbt_B2_day1,2022.2.4,Win32,143.9677512,,,,,,,,,,,,,,,,,,,0.295833333,-0.028472222,1,0,0,0.0417,4,24,128,0,1,a,images/br_a.png,images/cb_a.png,,,,,,,,,,,,,,,,,,,,,,,,,
,,,,,,00069,2023-10-11_19h20.58.340,vbt_B2_day1,2022.2.4,Win32,143.9677512,,,,,,,,,,,,,,,,,,,0.295833333,-0.027777778,1,0,0,0.2361,4,25,129,13,1,n,images/br_n.png,images/cb_n.png,,,,,,,,,,,,,,,,,,,,,,,,,
,,,,,,00069,2023-10-11_19h20.58.340,vbt_B2_day1,2022.2.4,Win32,143.9677512,,,,,,,,,,,,,,,,,,,0.295833333,-0.027777778,1,0,0,0.1946,5,0,130,14,1,o,images/br_o.png,images/cb_o.png,,,,,,,,,,,,,,,,,,,,,,,,,
,,,,,,00069,2023-10-11_19h20.58.340,vbt_B2_day1,2022.2.4,Win32,143.9677512,,,,,,,,,,,,,,,,,,,0.295833333,-0.027777778,1,0,0,0.2431,5,1,131,9,1,j,images/br_j.png,images/cb_j.png,,,,,,,,,,,,,,,,,,,,,,,,,
,,,,,,00069,2023-10-11_19h20.58.340,vbt_B2_day1,2022.2.4,Win32,143.9677512,,,,,,,,,,,,,,,,,,,0.295833333,-0.027777778,1,0,0,1.0905,5,2,132,23,1,x,images/br_x.png,images/cb_x.png,,,,,,,,,,,,,,,,,,,,,,,,,
,,,,,,00069,2023-10-11_19h20.58.340,vbt_B2_day1,2022.2.4,Win32,143.9677512,,,,,,,,,,,,,,,,,,,0.333333333,-0.025,1,0,0,0.3821,5,3,133,3,1,d,images/br_d.png,images/cb_d.png,,,,,,,,,,,,,,,,,,,,,,,,,
,,,,,,00069,2023-10-11_19h20.58.340,vbt_B2_day1,2022.2.4,Win32,143.9677512,,,,,,,,,,,,,,,,,,,0.329166667,-0.036111111,1,0,0,0.118,5,4,134,10,1,k,images/br_k.png,images/cb_k.png,,,,,,,,,,,,,,,,,,,,,,,,,
,,,,,,00069,2023-10-11_19h20.58.340,vbt_B2_day1,2022.2.4,Win32,143.9677512,,,,,,,,,,,,,,,,,,,0.329861111,-0.036111111,1,0,0,0.3403,5,5,135,5,1,f,images/br_f.png,images/cb_f.png,,,,,,,,,,,,,,,,,,,,,,,,,
,,,,,,00069,2023-10-11_19h20.58.340,vbt_B2_day1,2022.2.4,Win32,143.9677512,,,,,,,,,,,,,,,,,,,0.336805556,-0.029166667,1,0,0,1.0489,5,6,136,7,1,h,images/br_h.png,images/cb_h.png,,,,,,,,,,,,,,,,,,,,,,,,,
,,,,,,00069,2023-10-11_19h20.58.340,vbt_B2_day1,2022.2.4,Win32,143.9677512,,,,,,,,,,,,,,,,,,,0.336805556,-0.029166667,1,0,0,0.0972,5,7,137,1,1,b,images/br_b.png,images/cb_b.png,,,,,,,,,,,,,,,,,,,,,,,,,
,,,,,,00069,2023-10-11_19h20.58.340,vbt_B2_day1,2022.2.4,Win32,143.9677512,,,,,,,,,,,,,,,,,,,0.336805556,-0.029166667,1,0,0,0.5348,5,8,138,19,1,t,images/br_t.png,images/cb_t.png,,,,,,,,,,,,,,,,,,,,,,,,,
,,,,,,00069,2023-10-11_19h20.58.340,vbt_B2_day1,2022.2.4,Win32,143.9677512,,,,,,,,,,,,,,,,,,,0.336805556,-0.029166667,1,0,0,0.139,5,9,139,17,1,r,images/br_r.png,images/cb_r.png,,,,,,,,,,,,,,,,,,,,,,,,,
,,,,,,00069,2023-10-11_19h20.58.340,vbt_B2_day1,2022.2.4,Win32,143.9677512,,,,,,,,,,,,,,,,,,,0.336805556,-0.029166667,1,0,0,0.2012,5,10,140,21,1,v,images/br_v.png,images/cb_v.png,,,,,,,,,,,,,,,,,,,,,,,,,
,,,,,,00069,2023-10-11_19h20.58.340,vbt_B2_day1,2022.2.4,Win32,143.9677512,,,,,,,,,,,,,,,,,,,0.336805556,-0.029166667,1,0,0,0.5209,5,11,141,13,1,n,images/br_n.png,images/cb_n.png,,,,,,,,,,,,,,,,,,,,,,,,,
,,,,,,00069,2023-10-11_19h20.58.340,vbt_B2_day1,2022.2.4,Win32,143.9677512,,,,,,,,,,,,,,,,,,,0.336805556,-0.029166667,1,0,0,0.0764,5,12,142,6,1,g,images/br_g.png,images/cb_g.png,,,,,,,,,,,,,,,,,,,,,,,,,
,,,,,,00069,2023-10-11_19h20.58.340,vbt_B2_day1,2022.2.4,Win32,143.9677512,,,,,,,,,,,,,,,,,,,0.336805556,-0.029166667,1,0,0,0.3542,5,13,143,24,1,y,images/br_y.png,images/cb_y.png,,,,,,,,,,,,,,,,,,,,,,,,,
,,,,,,00069,2023-10-11_19h20.58.340,vbt_B2_day1,2022.2.4,Win32,143.9677512,,,,,,,,,,,,,,,,,,,0.336805556,-0.029166667,1,0,0,0.125,5,14,144,11,1,l,images/br_l.png,images/cb_l.png,,,,,,,,,,,,,,,,,,,,,,,,,
,,,,,,00069,2023-10-11_19h20.58.340,vbt_B2_day1,2022.2.4,Win32,143.9677512,,,,,,,,,,,,,,,,,,,0.336805556,-0.029166667,1,0,0,0.3334,5,15,145,2,1,c,images/br_c.png,images/cb_c.png,,,,,,,,,,,,,,,,,,,,,,,,,
,,,,,,00069,2023-10-11_19h20.58.340,vbt_B2_day1,2022.2.4,Win32,143.9677512,,,,,,,,,,,,,,,,,,,0.336805556,-0.029166667,1,0,0,0.5696,5,16,146,4,1,e,images/br_e.png,images/cb_e.png,,,,,,,,,,,,,,,,,,,,,,,,,
,,,,,,00069,2023-10-11_19h20.58.340,vbt_B2_day1,2022.2.4,Win32,143.9677512,,,,,,,,,,,,,,,,,,,0.234722222,0.028472222,1,0,0,0.8196,5,17,147,0,1,a,images/br_a.png,images/cb_a.png,,,,,,,,,,,,,,,,,,,,,,,,,
,,,,,,00069,2023-10-11_19h20.58.340,vbt_B2_day1,2022.2.4,Win32,143.9677512,,,,,,,,,,,,,,,,,,,0.282638889,-0.019444444,1,0,0,0.0069,5,18,148,18,1,s,images/br_s.png,images/cb_s.png,,,,,,,,,,,,,,,,,,,,,,,,,
,,,,,,00069,2023-10-11_19h20.58.340,vbt_B2_day1,2022.2.4,Win32,143.9677512,,,,,,,,,,,,,,,,,,,0.282638889,-0.019444444,1,0,0,0.139,5,19,149,25,1,z,images/br_z.png,images/cb_z.png,,,,,,,,,,,,,,,,,,,,,,,,,
,,,,,,00069,2023-10-11_19h20.58.340,vbt_B2_day1,2022.2.4,Win32,143.9677512,,,,,,,,,,,,,,,,,,,0.282638889,-0.019444444,1,0,0,0.264,5,20,150,15,1,p,images/br_p.png,images/cb_p.png,,,,,,,,,,,,,,,,,,,,,,,,,
,,,,,,00069,2023-10-11_19h20.58.340,vbt_B2_day1,2022.2.4,Win32,143.9677512,,,,,,,,,,,,,,,,,,,0.282638889,-0.019444444,1,0,0,0.5835,5,21,151,22,1,w,images/br_w.png,images/cb_w.png,,,,,,,,,,,,,,,,,,,,,,,,,
,,,,,,00069,2023-10-11_19h20.58.340,vbt_B2_day1,2022.2.4,Win32,143.9677512,,,,,,,,,,,,,,,,,,,0.282638889,-0.019444444,1,0,0,0.1249,5,22,152,12,1,m,images/br_m.png,images/cb_m.png,,,,,,,,,,,,,,,,,,,,,,,,,
,,,,,,00069,2023-10-11_19h20.58.340,vbt_B2_day1,2022.2.4,Win32,143.9677512,,,,,,,,,,,,,,,,,,,0.282638889,-0.019444444,1,0,0,0.9724,5,23,153,8,1,i,images/br_i.png,images/cb_i.png,,,,,,,,,,,,,,,,,,,,,,,,,
,,,,,,00069,2023-10-11_19h20.58.340,vbt_B2_day1,2022.2.4,Win32,143.9677512,,,,,,,,,,,,,,,,,,,0.286111111,-0.006944444,1,0,0,0.0902,5,24,154,16,1,q,images/br_q.png,images/cb_q.png,,,,,,,,,,,,,,,,,,,,,,,,,
,,,,,,00069,2023-10-11_19h20.58.340,vbt_B2_day1,2022.2.4,Win32,143.9677512,,,,,,,,,,,,,,,,,,,0.286111111,-0.006944444,1,0,0,0.0972,5,25,155,20,1,u,images/br_u.png,images/cb_u.png,,,,,,,,,,,,,,,,,,,,,,,,,
,,,,,,00069,2023-10-11_19h20.58.340,vbt_B2_day1,2022.2.4,Win32,143.9677512,,,,,,,,,,,,,,,,,,,0.286111111,-0.00625,1,0,0,0.2848,6,0,156,18,1,s,images/br_s.png,images/cb_s.png,,,,,,,,,,,,,,,,,,,,,,,,,
,,,,,,00069,2023-10-11_19h20.58.340,vbt_B2_day1,2022.2.4,Win32,143.9677512,,,,,,,,,,,,,,,,,,,0.286111111,-0.00625,1,0,0,0.2363,6,1,157,19,1,t,images/br_t.png,images/cb_t.png,,,,,,,,,,,,,,,,,,,,,,,,,
,,,,,,00069,2023-10-11_19h20.58.340,vbt_B2_day1,2022.2.4,Win32,143.9677512,,,,,,,,,,,,,,,,,,,0.286111111,-0.00625,1,0,0,0.3473,6,2,158,13,1,n,images/br_n.png,images/cb_n.png,,,,,,,,,,,,,,,,,,,,,,,,,
,,,,,,00069,2023-10-11_19h20.58.340,vbt_B2_day1,2022.2.4,Win32,143.9677512,,,,,,,,,,,,,,,,,,,0.286111111,-0.00625,1,0,0,0.5279,6,3,159,15,1,p,images/br_p.png,images/cb_p.png,,,,,,,,,,,,,,,,,,,,,,,,,
,,,,,,00069,2023-10-11_19h20.58.340,vbt_B2_day1,2022.2.4,Win32,143.9677512,,,,,,,,,,,,,,,,,,,0.286111111,-0.00625,1,0,0,0.0139,6,4,160,10,1,k,images/br_k.png,images/cb_k.png,,,,,,,,,,,,,,,,,,,,,,,,,
,,,,,,00069,2023-10-11_19h20.58.340,vbt_B2_day1,2022.2.4,Win32,143.9677512,,,,,,,,,,,,,,,,,,,0.286111111,-0.00625,1,0,0,0.4861,6,5,161,2,1,c,images/br_c.png,images/cb_c.png,,,,,,,,,,,,,,,,,,,,,,,,,
,,,,,,00069,2023-10-11_19h20.58.340,vbt_B2_day1,2022.2.4,Win32,143.9677512,,,,,,,,,,,,,,,,,,,0.286111111,-0.007638889,1,0,0,1.5419,6,6,162,22,1,w,images/br_w.png,images/cb_w.png,,,,,,,,,,,,,,,,,,,,,,,,,
,,,,,,00069,2023-10-11_19h20.58.340,vbt_B2_day1,2022.2.4,Win32,143.9677512,,,,,,,,,,,,,,,,,,,0.29375,0.006944444,1,0,0,0.1599,6,7,163,23,1,x,images/br_x.png,images/cb_x.png,,,,,,,,,,,,,,,,,,,,,,,,,
,,,,,,00069,2023-10-11_19h20.58.340,vbt_B2_day1,2022.2.4,Win32,143.9677512,,,,,,,,,,,,,,,,,,,0.3,0.0125,1,0,0,0.4028,6,8,164,17,1,r,images/br_r.png,images/cb_r.png,,,,,,,,,,,,,,,,,,,,,,,,,
,,,,,,00069,2023-10-11_19h20.58.340,vbt_B2_day1,2022.2.4,Win32,143.9677512,,,,,,,,,,,,,,,,,,,0.3,0.010416667,1,0,0,0.0487,6,9,165,14,1,o,images/br_o.png,images/cb_o.png,,,,,,,,,,,,,,,,,,,,,,,,,
,,,,,,00069,2023-10-11_19h20.58.340,vbt_B2_day1,2022.2.4,Win32,143.9677512,,,,,,,,,,,,,,,,,,,0.3,0.010416667,1,0,0,1.5837,6,10,166,1,1,b,images/br_b.png,images/cb_b.png,,,,,,,,,,,,,,,,,,,,,,,,,
,,,,,,00069,2023-10-11_19h20.58.340,vbt_B2_day1,2022.2.4,Win32,143.9677512,,,,,,,,,,,,,,,,,,,0.3,0.010416667,1,0,0,0.1736,6,11,167,6,1,g,images/br_g.png,images/cb_g.png,,,,,,,,,,,,,,,,,,,,,,,,,
,,,,,,00069,2023-10-11_19h20.58.340,vbt_B2_day1,2022.2.4,Win32,143.9677512,,,,,,,,,,,,,,,,,,,0.3,0.010416667,1,0,0,0.278,6,12,168,16,1,q,images/br_q.png,images/cb_q.png,,,,,,,,,,,,,,,,,,,,,,,,,
,,,,,,00069,2023-10-11_19h20.58.340,vbt_B2_day1,2022.2.4,Win32,143.9677512,,,,,,,,,,,,,,,,,,,0.3,0.009027778,1,0,0,0.0556,6,13,169,20,1,u,images/br_u.png,images/cb_u.png,,,,,,,,,,,,,,,,,,,,,,,,,
,,,,,,00069,2023-10-11_19h20.58.340,vbt_B2_day1,2022.2.4,Win32,143.9677512,,,,,,,,,,,,,,,,,,,0.3,0.00625,1,0,0,0.2293,6,14,170,7,1,h,images/br_h.png,images/cb_h.png,,,,,,,,,,,,,,,,,,,,,,,,,
,,,,,,00069,2023-10-11_19h20.58.340,vbt_B2_day1,2022.2.4,Win32,143.9677512,,,,,,,,,,,,,,,,,,,0.3,0.00625,1,0,0,0.1111,6,15,171,5,1,f,images/br_f.png,images/cb_f.png,,,,,,,,,,,,,,,,,,,,,,,,,
,,,,,,00069,2023-10-11_19h20.58.340,vbt_B2_day1,2022.2.4,Win32,143.9677512,,,,,,,,,,,,,,,,,,,0.3,0.00625,1,0,0,0.7225,6,16,172,25,1,z,images/br_z.png,images/cb_z.png,,,,,,,,,,,,,,,,,,,,,,,,,
,,,,,,00069,2023-10-11_19h20.58.340,vbt_B2_day1,2022.2.4,Win32,143.9677512,,,,,,,,,,,,,,,,,,,0.3,0.00625,1,0,0,0.2571,6,17,173,8,1,i,images/br_i.png,images/cb_i.png,,,,,,,,,,,,,,,,,,,,,,,,,
,,,,,,00069,2023-10-11_19h20.58.340,vbt_B2_day1,2022.2.4,Win32,143.9677512,,,,,,,,,,,,,,,,,,,0.3,0.005555556,1,0,0,0.1042,6,18,174,0,1,a,images/br_a.png,images/cb_a.png,,,,,,,,,,,,,,,,,,,,,,,,,
,,,,,,00069,2023-10-11_19h20.58.340,vbt_B2_day1,2022.2.4,Win32,143.9677512,,,,,,,,,,,,,,,,,,,0.3,0.005555556,1,0,0,0.1042,6,19,175,3,1,d,images/br_d.png,images/cb_d.png,,,,,,,,,,,,,,,,,,,,,,,,,
,,,,,,00069,2023-10-11_19h20.58.340,vbt_B2_day1,2022.2.4,Win32,143.9677512,,,,,,,,,,,,,,,,,,,0.3,0.005555556,1,0,0,0.1459,6,20,176,24,1,y,images/br_y.png,images/cb_y.png,,,,,,,,,,,,,,,,,,,,,,,,,
,,,,,,00069,2023-10-11_19h20.58.340,vbt_B2_day1,2022.2.4,Win32,143.9677512,,,,,,,,,,,,,,,,,,,0.3,0.005555556,1,0,0,0.1875,6,21,177,9,1,j,images/br_j.png,images/cb_j.png,,,,,,,,,,,,,,,,,,,,,,,,,
,,,,,,00069,2023-10-11_19h20.58.340,vbt_B2_day1,2022.2.4,Win32,143.9677512,,,,,,,,,,,,,,,,,,,0.3,0.005555556,1,0,0,0.1389,6,22,178,11,1,l,images/br_l.png,images/cb_l.png,,,,,,,,,,,,,,,,,,,,,,,,,
,,,,,,00069,2023-10-11_19h20.58.340,vbt_B2_day1,2022.2.4,Win32,143.9677512,,,,,,,,,,,,,,,,,,,0.3,0.005555556,1,0,0,0.2361,6,23,179,12,1,m,images/br_m.png,images/cb_m.png,,,,,,,,,,,,,,,,,,,,,,,,,
,,,,,,00069,2023-10-11_19h20.58.340,vbt_B2_day1,2022.2.4,Win32,143.9677512,,,,,,,,,,,,,,,,,,,0.305555556,0.009027778,1,0,0,1.3752,6,24,180,4,1,e,images/br_e.png,images/cb_e.png,,,,,,,,,,,,,,,,,,,,,,,,,
,,,,,,00069,2023-10-11_19h20.58.340,vbt_B2_day1,2022.2.4,Win32,143.9677512,,,,,,,,,,,,,,,,,,,0.305555556,-0.007638889,1,0,0,0.4099,6,25,181,21,1,v,images/br_v.png,images/cb_v.png,,,,,,,,,,,,,,,,,,,,,,,,,
,,,,,,00069,2023-10-11_19h20.58.340,vbt_B2_day1,2022.2.4,Win32,143.9677512,,,,,,,,,,,,,,,,,,,,,,,,,,,,,,,,,0.229861111,-0.03125,1,0,0,,,,,,,,,,,,,,,,,,,,
,,,,,,00069,2023-10-11_19h20.58.340,vbt_B2_day1,2022.2.4,Win32,143.9677512,,,,,,,,,,,,,,,,,,,,,,,,,,,,,,,,,,,,,,0.034027778,0.057638889,1,0,0,,,,,,,,,,,,,,,
,,,,,,00069,2023-10-11_19h20.58.340,vbt_B2_day1,2022.2.4,Win32,143.9677512,,,,,,,,,,,,,,,,,,,,,,,,,,,,,,,,,,,,,,,,,,,0.297222222,-0.204861111,1,0,0,opplaan,opplaan,0,0,0,32,1,opplaan,images/br_opplaan.png,images/cb_opplaan.png
,,,,,,00069,2023-10-11_19h20.58.340,vbt_B2_day1,2022.2.4,Win32,143.9677512,,,,,,,,,,,,,,,,,,,,,,,,,,,,,,,,,,,,,,,,,,,0.3,-0.172222222,1,0,0,knoe,knoe,0,1,1,22,1,knoe,images/br_knoe.png,images/cb_knoe.png
,,,,,,00069,2023-10-11_19h20.58.340,vbt_B2_day1,2022.2.4,Win32,143.9677512,,,,,,,,,,,,,,,,,,,,,,,,,,,,,,,,,,,,,,,,,,,0.299305556,-0.173611111,1,0,0,scheiln...,scheiln...,0,2,2,38,1,schielen,images/br_schielen.png,images/cb_schielen.png
,,,,,,00069,2023-10-11_19h20.58.340,vbt_B2_day1,2022.2.4,Win32,143.9677512,,,,,,,,,,,,,,,,,,,,,,,,,,,,,,,,,,,,,,,,,,,0.299305556,-0.173611111,1,0,0,schip,schip,0,3,3,4,1,schep,images/br_schep.png,images/cb_schep.png
,,,,,,00069,2023-10-11_19h20.58.340,vbt_B2_day1,2022.2.4,Win32,143.9677512,,,,,,,,,,,,,,,,,,,,,,,,,,,,,,,,,,,,,,,,,,,0.299305556,-0.173611111,1,0,0,hictie,hictie,0,4,4,48,1,fictie,images/br_fictie.png,images/cb_fictie.png
,,,,,,00069,2023-10-11_19h20.58.340,vbt_B2_day1,2022.2.4,Win32,143.9677512,,,,,,,,,,,,,,,,,,,,,,,,,,,,,,,,,,,,,,,,,,,0.302083333,-0.179861111,1,0,0,stuikim,stuikim,0,5,5,35,1,stuikem,images/br_stuikem.png,images/cb_stuikem.png
,,,,,,00069,2023-10-11_19h20.58.340,vbt_B2_day1,2022.2.4,Win32,143.9677512,,,,,,,,,,,,,,,,,,,,,,,,,,,,,,,,,,,,,,,,,,,0.302083333,-0.179861111,1,0,0,tars,tars,0,6,6,20,1,tars,images/br_tars.png,images/cb_tars.png
,,,,,,00069,2023-10-11_19h20.58.340,vbt_B2_day1,2022.2.4,Win32,143.9677512,,,,,,,,,,,,,,,,,,,,,,,,,,,,,,,,,,,,,,,,,,,0.302083333,-0.179861111,1,0,0,vijftig,vijftig,0,7,7,54,1,vijftig,images/br_vijftig.png,images/cb_vijftig.png
,,,,,,00069,2023-10-11_19h20.58.340,vbt_B2_day1,2022.2.4,Win32,143.9677512,,,,,,,,,,,,,,,,,,,,,,,,,,,,,,,,,,,,,,,,,,,0.315972222,-0.249305556,1,0,0,b...rip.,b...rip.,0,8,8,28,1,bebrip,images/br_bebrip.png,images/cb_bebrip.png
,,,,,,00069,2023-10-11_19h20.58.340,vbt_B2_day1,2022.2.4,Win32,143.9677512,,,,,,,,,,,,,,,,,,,,,,,,,,,,,,,,,,,,,,,,,,,0.315972222,-0.249305556,1,0,0,loods,loods,0,9,9,47,1,loods,images/br_loods.png,images/cb_loods.png
,,,,,,00069,2023-10-11_19h20.58.340,vbt_B2_day1,2022.2.4,Win32,143.9677512,,,,,,,,,,,,,,,,,,,,,,,,,,,,,,,,,,,,,,,,,,,0.315972222,-0.249305556,1,0,0,brijk,brijk,0,10,10,25,1,brijk,images/br_brijk.png,images/cb_brijk.png
,,,,,,00069,2023-10-11_19h20.58.340,vbt_B2_day1,2022.2.4,Win32,143.9677512,,,,,,,,,,,,,,,,,,,,,,,,,,,,,,,,,,,,,,,,,,,0.313194444,-0.254861111,1,0,0,zuipla.,zuipla.,0,11,11,52,1,zuiplap,images/br_zuiplap.png,images/cb_zuiplap.png
,,,,,,00069,2023-10-11_19h20.58.340,vbt_B2_day1,2022.2.4,Win32,143.9677512,,,,,,,,,,,,,,,,,,,,,,,,,,,,,,,,,,,,,,,,,,,0.313194444,-0.254861111,1,0,0,muziek,muziek,0,12,12,10,1,muziek,images/br_muziek.png,images/cb_muziek.png
,,,,,,00069,2023-10-11_19h20.58.340,vbt_B2_day1,2022.2.4,Win32,143.9677512,,,,,,,,,,,,,,,,,,,,,,,,,,,,,,,,,,,,,,,,,,,0.313194444,-0.254861111,1,0,0,opvatt..,opvatt..,0,13,13,59,1,opvatten,images/br_opvatten.png,images/cb_opvatten.png
,,,,,,00069,2023-10-11_19h20.58.340,vbt_B2_day1,2022.2.4,Win32,143.9677512,,,,,,,,,,,,,,,,,,,,,,,,,,,,,,,,,,,,,,,,,,,0.313194444,-0.254861111,1,0,0,rezer,rezer,0,14,14,24,1,rezer,images/br_rezer.png,images/cb_rezer.png
,,,,,,00069,2023-10-11_19h20.58.340,vbt_B2_day1,2022.2.4,Win32,143.9677512,,,,,,,,,,,,,,,,,,,,,,,,,,,,,,,,,,,,,,,,,,,0.313194444,-0.254861111,1,0,0,daargee.,daargee.,0,15,15,16,1,daarheen,images/br_daarheen.png,images/cb_daarheen.png
,,,,,,00069,2023-10-11_19h20.58.340,vbt_B2_day1,2022.2.4,Win32,143.9677512,,,,,,,,,,,,,,,,,,,,,,,,,,,,,,,,,,,,,,,,,,,0.313194444,-0.254861111,1,0,0,makin,makin,0,16,16,5,1,maken,images/br_maken.png,images/cb_maken.png
,,,,,,00069,2023-10-11_19h20.58.340,vbt_B2_day1,2022.2.4,Win32,143.9677512,,,,,,,,,,,,,,,,,,,,,,,,,,,,,,,,,,,,,,,,,,,0.5375,-0.076388889,1,0,0,dief,dief,0,17,17,40,1,dief,images/br_dief.png,images/cb_dief.png
,,,,,,00069,2023-10-11_19h20.58.340,vbt_B2_day1,2022.2.4,Win32,143.9677512,,,,,,,,,,,,,,,,,,,,,,,,,,,,,,,,,,,,,,,,,,,-0.021527778,-0.2,1,0,0,hietva.,hietva.,0,18,18,15,1,hiervan,images/br_hiervan.png,images/cb_hiervan.png
,,,,,,00069,2023-10-11_19h20.58.340,vbt_B2_day1,2022.2.4,Win32,143.9677512,,,,,,,,,,,,,,,,,,,,,,,,,,,,,,,,,,,,,,,,,,,0.672222222,-0.240972222,1,0,0,stuk,stuk,0,19,19,42,1,stuk,images/br_stuk.png,images/cb_stuk.png
,,,,,,00069,2023-10-11_19h20.58.340,vbt_B2_day1,2022.2.4,Win32,143.9677512,,,,,,,,,,,,,,,,,,,,,,,,,,,,,,,,,,,,,,,,,,,0.672222222,-0.240972222,1,0,0,sph......,sph......,0,20,20,19,1,schuilen,images/br_schuilen.png,images/cb_schuilen.png
,,,,,,00069,2023-10-11_19h20.58.340,vbt_B2_day1,2022.2.4,Win32,143.9677512,,,,,,,,,,,,,,,,,,,,,,,,,,,,,,,,,,,,,,,,,,,0.620833333,-0.23125,1,0,0,meenemen,meenemen,0,21,21,57,1,meenemen,images/br_meenemen.png,images/cb_meenemen.png
,,,,,,00069,2023-10-11_19h20.58.340,vbt_B2_day1,2022.2.4,Win32,143.9677512,,,,,,,,,,,,,,,,,,,,,,,,,,,,,,,,,,,,,,,,,,,0.539583333,-0.177777778,1,0,0,lobthin,lobthin,0,22,22,34,1,lochten,images/br_lochten.png,images/cb_lochten.png
,,,,,,00069,2023-10-11_19h20.58.340,vbt_B2_day1,2022.2.4,Win32,143.9677512,,,,,,,,,,,,,,,,,,,,,,,,,,,,,,,,,,,,,,,,,,,0.539583333,-0.177777778,1,0,0,hemel,hemel,0,23,23,45,1,hemel,images/br_hemel.png,images/cb_hemel.png
,,,,,,00069,2023-10-11_19h20.58.340,vbt_B2_day1,2022.2.4,Win32,143.9677512,,,,,,,,,,,,,,,,,,,,,,,,,,,,,,,,,,,,,,,,,,,0.539583333,-0.177777778,1,0,0,prort,prort,0,24,24,27,1,prort,images/br_prort.png,images/cb_prort.png
,,,,,,00069,2023-10-11_19h20.58.340,vbt_B2_day1,2022.2.4,Win32,143.9677512,,,,,,,,,,,,,,,,,,,,,,,,,,,,,,,,,,,,,,,,,,,0.539583333,-0.177777778,1,0,0,.llol...,.llol...,0,25,25,33,1,flullen,images/br_flullen.png,images/cb_flullen.png
,,,,,,00069,2023-10-11_19h20.58.340,vbt_B2_day1,2022.2.4,Win32,143.9677512,,,,,,,,,,,,,,,,,,,,,,,,,,,,,,,,,,,,,,,,,,,0.539583333,-0.177777778,1,0,0,jaar,jaar,0,26,26,2,1,jaar,images/br_jaar.png,images/cb_jaar.png
,,,,,,00069,2023-10-11_19h20.58.340,vbt_B2_day1,2022.2.4,Win32,143.9677512,,,,,,,,,,,,,,,,,,,,,,,,,,,,,,,,,,,,,,,,,,,0.604861111,-0.200694444,1,0,0,klauw,klauw,0,27,27,7,1,klauw,images/br_klauw.png,images/cb_klauw.png
,,,,,,00069,2023-10-11_19h20.58.340,vbt_B2_day1,2022.2.4,Win32,143.9677512,,,,,,,,,,,,,,,,,,,,,,,,,,,,,,,,,,,,,,,,,,,0.599305556,-0.190277778,1,0,0,spanz....,spanz....,0,28,28,37,1,spanzing,images/br_spanzing.png,images/cb_spanzing.png
,,,,,,00069,2023-10-11_19h20.58.340,vbt_B2_day1,2022.2.4,Win32,143.9677512,,,,,,,,,,,,,,,,,,,,,,,,,,,,,,,,,,,,,,,,,,,0.599305556,-0.190277778,1,0,0,vizier,vizier,0,29,29,49,1,vizier,images/br_vizier.png,images/cb_vizier.png
,,,,,,00069,2023-10-11_19h20.58.340,vbt_B2_day1,2022.2.4,Win32,143.9677512,,,,,,,,,,,,,,,,,,,,,,,,,,,,,,,,,,,,,,,,,,,0.599305556,-0.190277778,1,0,0,reedje,reedje,0,30,30,30,1,reedje,images/br_reedje.png,images/cb_reedje.png
,,,,,,00069,2023-10-11_19h20.58.340,vbt_B2_day1,2022.2.4,Win32,143.9677512,,,,,,,,,,,,,,,,,,,,,,,,,,,,,,,,,,,,,,,,,,,0.599305556,-0.190277778,1,0,0,kanj...,kanj...,0,31,31,8,1,kanjer,images/br_kanjer.png,images/cb_kanjer.png
,,,,,,00069,2023-10-11_19h20.58.340,vbt_B2_day1,2022.2.4,Win32,143.9677512,,,,,,,,,,,,,,,,,,,,,,,,,,,,,,,,,,,,,,,,,,,0.599305556,-0.190277778,1,0,0,genon...,genon...,0,32,32,29,1,genond,images/br_genond.png,images/cb_genond.png
,,,,,,00069,2023-10-11_19h20.58.340,vbt_B2_day1,2022.2.4,Win32,143.9677512,,,,,,,,,,,,,,,,,,,,,,,,,,,,,,,,,,,,,,,,,,,0.598611111,-0.183333333,1,0,0,dubb..,dubb..,0,33,33,9,1,dubbel,images/br_dubbel.png,images/cb_dubbel.png
,,,,,,00069,2023-10-11_19h20.58.340,vbt_B2_day1,2022.2.4,Win32,143.9677512,,,,,,,,,,,,,,,,,,,,,,,,,,,,,,,,,,,,,,,,,,,0.598611111,-0.183333333,1,0,0,stauen,stauen,0,34,34,31,1,stamen,images/br_stamen.png,images/cb_stamen.png
,,,,,,00069,2023-10-11_19h20.58.340,vbt_B2_day1,2022.2.4,Win32,143.9677512,,,,,,,,,,,,,,,,,,,,,,,,,,,,,,,,,,,,,,,,,,,0.598611111,-0.183333333,1,0,0,booi,booi,0,35,35,23,1,booi,images/br_booi.png,images/cb_booi.png
,,,,,,00069,2023-10-11_19h20.58.340,vbt_B2_day1,2022.2.4,Win32,143.9677512,,,,,,,,,,,,,,,,,,,,,,,,,,,,,,,,,,,,,,,,,,,0.598611111,-0.183333333,1,0,0,dred,dred,0,36,36,21,1,dred,images/br_dred.png,images/cb_dred.png
,,,,,,00069,2023-10-11_19h20.58.340,vbt_B2_day1,2022.2.4,Win32,143.9677512,,,,,,,,,,,,,,,,,,,,,,,,,,,,,,,,,,,,,,,,,,,0.598611111,-0.188888889,1,0,0,wijz.,wijz.,0,37,37,44,1,wijze,images/br_wijze.png,images/cb_wijze.png
,,,,,,00069,2023-10-11_19h20.58.340,vbt_B2_day1,2022.2.4,Win32,143.9677512,,,,,,,,,,,,,,,,,,,,,,,,,,,,,,,,,,,,,,,,,,,0.598611111,-0.188888889,1,0,0,zaal,zaal,0,38,38,1,1,zaal,images/br_zaal.png,images/cb_zaal.png
,,,,,,00069,2023-10-11_19h20.58.340,vbt_B2_day1,2022.2.4,Win32,143.9677512,,,,,,,,,,,,,,,,,,,,,,,,,,,,,,,,,,,,,,,,,,,0.6,-0.188888889,1,0,0,slak,slak,0,39,39,0,1,slak,images/br_slak.png,images/cb_slak.png
,,,,,,00069,2023-10-11_19h20.58.340,vbt_B2_day1,2022.2.4,Win32,143.9677512,,,,,,,,,,,,,,,,,,,,,,,,,,,,,,,,,,,,,,,,,,,0.6,-0.188888889,1,0,0,voorui.,voorui.,0,40,40,39,1,voorreur,images/br_voorreur.png,images/cb_voorreur.png
,,,,,,00069,2023-10-11_19h20.58.340,vbt_B2_day1,2022.2.4,Win32,143.9677512,,,,,,,,,,,,,,,,,,,,,,,,,,,,,,,,,,,,,,,,,,,0.6,-0.188888889,1,0,0,.iegen,.iegen,0,41,41,50,1,liegen,images/br_liegen.png,images/cb_liegen.png
,,,,,,00069,2023-10-11_19h20.58.340,vbt_B2_day1,2022.2.4,Win32,143.9677512,,,,,,,,,,,,,,,,,,,,,,,,,,,,,,,,,,,,,,,,,,,0.6,-0.188888889,1,0,0,bleek,bleek,0,42,42,6,1,bleek,images/br_bleek.png,images/cb_bleek.png
,,,,,,00069,2023-10-11_19h20.58.340,vbt_B2_day1,2022.2.4,Win32,143.9677512,,,,,,,,,,,,,,,,,,,,,,,,,,,,,,,,,,,,,,,,,,,0.6,-0.188888889,1,0,0,valop,valop,0,43,43,26,1,valop,images/br_valop.png,images/cb_valop.png
,,,,,,00069,2023-10-11_19h20.58.340,vbt_B2_day1,2022.2.4,Win32,143.9677512,,,,,,,,,,,,,,,,,,,,,,,,,,,,,,,,,,,,,,,,,,,0.6,-0.188888889,1,0,0,attentie,attentie,0,44,44,17,1,attentie,images/br_attentie.png,images/cb_attentie.png
,,,,,,00069,2023-10-11_19h20.58.340,vbt_B2_day1,2022.2.4,Win32,143.9677512,,,,,,,,,,,,,,,,,,,,,,,,,,,,,,,,,,,,,,,,,,,0.6,-0.188888889,1,0,0,voorkeu.,voorkeu.,0,45,45,58,1,voorkeur,images/br_voorkeur.png,images/cb_voorkeur.png
,,,,,,00069,2023-10-11_19h20.58.340,vbt_B2_day1,2022.2.4,Win32,143.9677512,,,,,,,,,,,,,,,,,,,,,,,,,,,,,,,,,,,,,,,,,,,0.6,-0.188888889,1,0,0,twe....,twe....,0,46,46,13,1,twijfel,images/br_twijfel.png,images/cb_twijfel.png
,,,,,,00069,2023-10-11_19h20.58.340,vbt_B2_day1,2022.2.4,Win32,143.9677512,,,,,,,,,,,,,,,,,,,,,,,,,,,,,,,,,,,,,,,,,,,0.6,-0.188888889,1,0,0,liefde,liefde,0,47,47,51,1,liefde,images/br_liefde.png,images/cb_liefde.png
,,,,,,00069,2023-10-11_19h20.58.340,vbt_B2_day1,2022.2.4,Win32,143.9677512,,,,,,,,,,,,,,,,,,,,,,,,,,,,,,,,,,,,,,,,,,,0.580555556,-0.200694444,1,0,0,toezi...,toezi...,0,48,48,56,1,toezicht,images/br_toezicht.png,images/cb_toezicht.png
,,,,,,00069,2023-10-11_19h20.58.340,vbt_B2_day1,2022.2.4,Win32,143.9677512,,,,,,,,,,,,,,,,,,,,,,,,,,,,,,,,,,,,,,,,,,,0.576388889,-0.295138889,1,0,0,hoog,hoog,0,49,49,41,1,hoog,images/br_hoog.png,images/cb_hoog.png
,,,,,,00069,2023-10-11_19h20.58.340,vbt_B2_day1,2022.2.4,Win32,143.9677512,,,,,,,,,,,,,,,,,,,,,,,,,,,,,,,,,,,,,,,,,,,0.588888889,-0.182638889,1,0,0,tekene.,tekene.,0,50,50,55,1,tekenen,images/br_tekenen.png,images/cb_tekenen.png
,,,,,,00069,2023-10-11_19h20.58.340,vbt_B2_day1,2022.2.4,Win32,143.9677512,,,,,,,,,,,,,,,,,,,,,,,,,,,,,,,,,,,,,,,,,,,0.592361111,-0.193055556,1,0,0,klimmen,klimmen,0,51,51,12,1,klimmen,images/br_klimmen.png,images/cb_klimmen.png
,,,,,,00069,2023-10-11_19h20.58.340,vbt_B2_day1,2022.2.4,Win32,143.9677512,,,,,,,,,,,,,,,,,,,,,,,,,,,,,,,,,,,,,,,,,,,0.338194444,-0.20625,1,0,0,virvad...,virvad...,0,52,52,36,1,vervaden,images/br_vervaden.png,images/cb_vervaden.png
,,,,,,00069,2023-10-11_19h20.58.340,vbt_B2_day1,2022.2.4,Win32,143.9677512,,,,,,,,,,,,,,,,,,,,,,,,,,,,,,,,,,,,,,,,,,,0.338194444,-0.211805556,1,0,0,mening,mening,0,53,53,11,1,mening,images/br_mening.png,images/cb_mening.png
,,,,,,00069,2023-10-11_19h20.58.340,vbt_B2_day1,2022.2.4,Win32,143.9677512,,,,,,,,,,,,,,,,,,,,,,,,,,,,,,,,,,,,,,,,,,,0.421527778,-0.177777778,1,0,0,ub....,ub....,0,54,54,18,1,uitdelen,images/br_uitdelen.png,images/cb_uitdelen.png
,,,,,,00069,2023-10-11_19h20.58.340,vbt_B2_day1,2022.2.4,Win32,143.9677512,,,,,,,,,,,,,,,,,,,,,,,,,,,,,,,,,,,,,,,,,,,0.434722222,-0.147222222,1,0,0,opslaan,opslaan,0,55,55,53,1,opslaan,images/br_opslaan.png,images/cb_opslaan.png
,,,,,,00069,2023-10-11_19h20.58.340,vbt_B2_day1,2022.2.4,Win32,143.9677512,,,,,,,,,,,,,,,,,,,,,,,,,,,,,,,,,,,,,,,,,,,0.434027778,-0.143055556,1,0,0,pand,pand,0,56,56,3,1,mand,images/br_mand.png,images/cb_mand.png
,,,,,,00069,2023-10-11_19h20.58.340,vbt_B2_day1,2022.2.4,Win32,143.9677512,,,,,,,,,,,,,,,,,,,,,,,,,,,,,,,,,,,,,,,,,,,0.434027778,-0.135416667,1,0,0,lava,lava,0,57,57,43,1,lava,images/br_lava.png,images/cb_lava.png
,,,,,,00069,2023-10-11_19h20.58.340,vbt_B2_day1,2022.2.4,Win32,143.9677512,,,,,,,,,,,,,,,,,,,,,,,,,,,,,,,,,,,,,,,,,,,0.419444444,-0.148611111,1,0,0,lezen,lezen,0,58,58,46,1,lezen,images/br_lezen.png,images/cb_lezen.png
,,,,,,00069,2023-10-11_19h20.58.340,vbt_B2_day1,2022.2.4,Win32,143.9677512,,,,,,,,,,,,,,,,,,,,,,,,,,,,,,,,,,,,,,,,,,,0.425694444,-0.177083333,1,0,0,waarvan,waarvan,0,59,59,14,1,waarvan,images/br_waarvan.png,images/cb_waarvan.png
,,,,,,00069,2023-10-11_19h20.58.340,vbt_B2_day1,2022.2.4,Win32,143.9677512,,,,,,,,,,,,,,,,,,,,,,,,,,,,,,,,,,,,,,,,,,,,,,,,,,,,,,,,,
