welcome_mouse.x,welcome_mouse.y,welcome_mouse.leftButton,welcome_mouse.midButton,welcome_mouse.rightButton,welcome_mouse.time,"ID",date,expName,psychopyVersion,OS,frameRate,mouse_2.x,mouse_2.y,mouse_2.leftButton,mouse_2.midButton,mouse_2.rightButton,mouse_2.time,mouse_3.x,mouse_3.y,mouse_3.leftButton,mouse_3.midButton,mouse_3.rightButton,mouse_3.time,train_mouse.x,train_mouse.y,train_mouse.leftButton,train_mouse.midButton,train_mouse.rightButton,train_mouse.time,braille_mouse.x,braille_mouse.y,braille_mouse.leftButton,braille_mouse.midButton,braille_mouse.rightButton,braille_mouse.time,trials.thisRepN,trials.thisTrialN,trials.thisN,trials.thisIndex,trials.ran,nlLet,brLet,cbLet,mouse.x,mouse.y,mouse.leftButton,mouse.midButton,mouse.rightButton,testInstr_mouse.x,testInstr_mouse.y,testInstr_mouse.leftButton,testInstr_mouse.midButton,testInstr_mouse.rightButton,test_mouse.x,test_mouse.y,test_mouse.leftButton,test_mouse.midButton,test_mouse.rightButton,test_response.text,testResp,test_loop.thisRepN,test_loop.thisTrialN,test_loop.thisN,test_loop.thisIndex,test_loop.ran,nlWrd,brWrd,cbWrd
0.006811331,-0.290182856,1,0,0,51.1639,00015,2023-08-04_12h22.42.121,vbt_B2_day1,2022.2.4,Win32,60.21919788,,,,,,,,,,,,,,,,,,,,,,,,,,,,,,,,,,,,,,,,,,,,,,,,,,,,,,,,,
,,,,,,00015,2023-08-04_12h22.42.121,vbt_B2_day1,2022.2.4,Win32,60.21919788,0.034602032,-0.393935028,1,0,0,8.3543,,,,,,,,,,,,,,,,,,,,,,,,,,,,,,,,,,,,,,,,,,,,,,,,,,,
,,,,,,00015,2023-08-04_12h22.42.121,vbt_B2_day1,2022.2.4,Win32,60.21919788,,,,,,,0.073509012,-0.367996913,1,0,0,16.5118,,,,,,,,,,,,,,,,,,,,,,,,,,,,,,,,,,,,,,,,,,,,,
,,,,,,00015,2023-08-04_12h22.42.121,vbt_B2_day1,2022.2.4,Win32,60.21919788,,,,,,,,,,,,,0.14761761,-0.307783664,1,0,0,37.674,,,,,,,,,,,,,,,,,,,,,,,,,,,,,,,,,,,,,,,
,,,,,,00015,2023-08-04_12h22.42.121,vbt_B2_day1,2022.2.4,Win32,60.21919788,,,,,,,,,,,,,,,,,,,-0.055254694,-0.294814655,1,0,0,11.5943,0,0,0,15,1,p,images/br_p.png,images/cb_p.png,,,,,,,,,,,,,,,,,,,,,,,,,
,,,,,,00015,2023-08-04_12h22.42.121,vbt_B2_day1,2022.2.4,Win32,60.21919788,,,,,,,,,,,,,,,,,,,-0.055254694,-0.294814655,1,0,0,10.442,0,1,1,16,1,q,images/br_q.png,images/cb_q.png,,,,,,,,,,,,,,,,,,,,,,,,,
,,,,,,00015,2023-08-04_12h22.42.121,vbt_B2_day1,2022.2.4,Win32,60.21919788,,,,,,,,,,,,,,,,,,,0.079993541,-0.316120971,1,0,0,24.6265,0,2,2,2,1,c,images/br_c.png,images/cb_c.png,,,,,,,,,,,,,,,,,,,,,,,,,
,,,,,,00015,2023-08-04_12h22.42.121,vbt_B2_day1,2022.2.4,Win32,60.21919788,,,,,,,,,,,,,,,,,,,0.222652598,-0.29388841,1,0,0,5.099,0,3,3,24,1,y,images/br_y.png,images/cb_y.png,,,,,,,,,,,,,,,,,,,,,,,,,
,,,,,,00015,2023-08-04_12h22.42.121,vbt_B2_day1,2022.2.4,Win32,60.21919788,,,,,,,,,,,,,,,,,,,0.205051789,-0.298520066,1,0,0,0.8448,0,4,4,10,1,k,images/br_k.png,images/cb_k.png,,,,,,,,,,,,,,,,,,,,,,,,,
,,,,,,00015,2023-08-04_12h22.42.121,vbt_B2_day1,2022.2.4,Win32,60.21919788,,,,,,,,,,,,,,,,,,,0.205051789,-0.298520066,1,0,0,0.0181,0,5,5,3,1,d,images/br_d.png,images/cb_d.png,,,,,,,,,,,,,,,,,,,,,,,,,
,,,,,,00015,2023-08-04_12h22.42.121,vbt_B2_day1,2022.2.4,Win32,60.21919788,,,,,,,,,,,,,,,,,,,0.205051789,-0.298520066,1,0,0,0.4566,0,6,6,13,1,n,images/br_n.png,images/cb_n.png,,,,,,,,,,,,,,,,,,,,,,,,,
,,,,,,00015,2023-08-04_12h22.42.121,vbt_B2_day1,2022.2.4,Win32,60.21919788,,,,,,,,,,,,,,,,,,,0.205051789,-0.298520066,1,0,0,4.1264,0,7,7,11,1,l,images/br_l.png,images/cb_l.png,,,,,,,,,,,,,,,,,,,,,,,,,
,,,,,,00015,2023-08-04_12h22.42.121,vbt_B2_day1,2022.2.4,Win32,60.21919788,,,,,,,,,,,,,,,,,,,0.205051789,-0.298520066,1,0,0,1.6556,0,8,8,1,1,b,images/br_b.png,images/cb_b.png,,,,,,,,,,,,,,,,,,,,,,,,,
,,,,,,00015,2023-08-04_12h22.42.121,vbt_B2_day1,2022.2.4,Win32,60.21919788,,,,,,,,,,,,,,,,,,,0.205051789,-0.298520066,1,0,0,2.7493,0,9,9,5,1,f,images/br_f.png,images/cb_f.png,,,,,,,,,,,,,,,,,,,,,,,,,
,,,,,,00015,2023-08-04_12h22.42.121,vbt_B2_day1,2022.2.4,Win32,60.21919788,,,,,,,,,,,,,,,,,,,-0.108983318,-0.235527892,1,0,0,3.9998,0,10,10,0,1,a,images/br_a.png,images/cb_a.png,,,,,,,,,,,,,,,,,,,,,,,,,
,,,,,,00015,2023-08-04_12h22.42.121,vbt_B2_day1,2022.2.4,Win32,60.21919788,,,,,,,,,,,,,,,,,,,-0.083045443,-0.276287505,1,0,0,2.6294,0,11,11,18,1,s,images/br_s.png,images/cb_s.png,,,,,,,,,,,,,,,,,,,,,,,,,
,,,,,,00015,2023-08-04_12h22.42.121,vbt_B2_day1,2022.2.4,Win32,60.21919788,,,,,,,,,,,,,,,,,,,-0.083045443,-0.276287505,1,0,0,4.5046,0,12,12,17,1,r,images/br_r.png,images/cb_r.png,,,,,,,,,,,,,,,,,,,,,,,,,
,,,,,,00015,2023-08-04_12h22.42.121,vbt_B2_day1,2022.2.4,Win32,60.21919788,,,,,,,,,,,,,,,,,,,-0.083045443,-0.276287505,1,0,0,3.367,0,13,13,14,1,o,images/br_o.png,images/cb_o.png,,,,,,,,,,,,,,,,,,,,,,,,,
,,,,,,00015,2023-08-04_12h22.42.121,vbt_B2_day1,2022.2.4,Win32,60.21919788,,,,,,,,,,,,,,,,,,,0.129090509,-0.235527892,1,0,0,8.5816,0,14,14,7,1,h,images/br_h.png,images/cb_h.png,,,,,,,,,,,,,,,,,,,,,,,,,
,,,,,,00015,2023-08-04_12h22.42.121,vbt_B2_day1,2022.2.4,Win32,60.21919788,,,,,,,,,,,,,,,,,,,0.066098191,-0.148450236,1,0,0,5.3988,0,15,15,21,1,v,images/br_v.png,images/cb_v.png,,,,,,,,,,,,,,,,,,,,,,,,,
,,,,,,00015,2023-08-04_12h22.42.121,vbt_B2_day1,2022.2.4,Win32,60.21919788,,,,,,,,,,,,,,,,,,,0.109636826,-0.204957977,1,0,0,5.7567,0,16,16,22,1,w,images/br_w.png,images/cb_w.png,,,,,,,,,,,,,,,,,,,,,,,,,
,,,,,,00015,2023-08-04_12h22.42.121,vbt_B2_day1,2022.2.4,Win32,60.21919788,,,,,,,,,,,,,,,,,,,0.109636826,-0.204957977,1,0,0,3.6453,0,17,17,9,1,j,images/br_j.png,images/cb_j.png,,,,,,,,,,,,,,,,,,,,,,,,,
,,,,,,00015,2023-08-04_12h22.42.121,vbt_B2_day1,2022.2.4,Win32,60.21919788,,,,,,,,,,,,,,,,,,,0.109636826,-0.204957977,1,0,0,0.574,0,18,18,20,1,u,images/br_u.png,images/cb_u.png,,,,,,,,,,,,,,,,,,,,,,,,,
,,,,,,00015,2023-08-04_12h22.42.121,vbt_B2_day1,2022.2.4,Win32,60.21919788,,,,,,,,,,,,,,,,,,,0.017001127,-0.193841745,1,0,0,2.3494,0,19,19,12,1,m,images/br_m.png,images/cb_m.png,,,,,,,,,,,,,,,,,,,,,,,,,
,,,,,,00015,2023-08-04_12h22.42.121,vbt_B2_day1,2022.2.4,Win32,60.21919788,,,,,,,,,,,,,,,,,,,0.171702948,-0.268876684,1,0,0,2.9759,0,20,20,8,1,i,images/br_i.png,images/cb_i.png,,,,,,,,,,,,,,,,,,,,,,,,,
,,,,,,00015,2023-08-04_12h22.42.121,vbt_B2_day1,2022.2.4,Win32,60.21919788,,,,,,,,,,,,,,,,,,,-0.041359344,-0.196620815,1,0,0,2.2241,0,21,21,23,1,x,images/br_x.png,images/cb_x.png,,,,,,,,,,,,,,,,,,,,,,,,,
,,,,,,00015,2023-08-04_12h22.42.121,vbt_B2_day1,2022.2.4,Win32,60.21919788,,,,,,,,,,,,,,,,,,,0.00217958,-0.194768038,1,0,0,3.8013,0,22,22,6,1,g,images/br_g.png,images/cb_g.png,,,,,,,,,,,,,,,,,,,,,,,,,
,,,,,,00015,2023-08-04_12h22.42.121,vbt_B2_day1,2022.2.4,Win32,60.21919788,,,,,,,,,,,,,,,,,,,0.019780197,-0.179019958,1,0,0,4.7833,0,23,23,19,1,t,images/br_t.png,images/cb_t.png,,,,,,,,,,,,,,,,,,,,,,,,,
,,,,,,00015,2023-08-04_12h22.42.121,vbt_B2_day1,2022.2.4,Win32,60.21919788,,,,,,,,,,,,,,,,,,,0.093888891,-0.283698423,1,0,0,3.1015,0,24,24,4,1,e,images/br_e.png,images/cb_e.png,,,,,,,,,,,,,,,,,,,,,,,,,
,,,,,,00015,2023-08-04_12h22.42.121,vbt_B2_day1,2022.2.4,Win32,60.21919788,,,,,,,,,,,,,,,,,,,0.015148541,-0.272582143,1,0,0,3.3061,0,25,25,25,1,z,images/br_z.png,images/cb_z.png,,,,,,,,,,,,,,,,,,,,,,,,,
,,,,,,00015,2023-08-04_12h22.42.121,vbt_B2_day1,2022.2.4,Win32,60.21919788,,,,,,,,,,,,,,,,,,,0.015148541,-0.272582143,1,0,0,5.4233,1,0,26,1,1,b,images/br_b.png,images/cb_b.png,,,,,,,,,,,,,,,,,,,,,,,,,
,,,,,,00015,2023-08-04_12h22.42.121,vbt_B2_day1,2022.2.4,Win32,60.21919788,,,,,,,,,,,,,,,,,,,0.015148541,-0.272582143,1,0,0,48.7684,1,1,27,18,1,s,images/br_s.png,images/cb_s.png,,,,,,,,,,,,,,,,,,,,,,,,,
,,,,,,00015,2023-08-04_12h22.42.121,vbt_B2_day1,2022.2.4,Win32,60.21919788,,,,,,,,,,,,,,,,,,,-0.259053292,-0.202178955,1,0,0,4.6103,1,2,28,12,1,m,images/br_m.png,images/cb_m.png,,,,,,,,,,,,,,,,,,,,,,,,,
,,,,,,00015,2023-08-04_12h22.42.121,vbt_B2_day1,2022.2.4,Win32,60.21919788,,,,,,,,,,,,,,,,,,,-0.076560866,-0.251275923,1,0,0,6.7506,1,3,29,24,1,y,images/br_y.png,images/cb_y.png,,,,,,,,,,,,,,,,,,,,,,,,,
,,,,,,00015,2023-08-04_12h22.42.121,vbt_B2_day1,2022.2.4,Win32,60.21919788,,,,,,,,,,,,,,,,,,,-0.028390287,-0.228116974,1,0,0,15.0494,1,4,30,14,1,o,images/br_o.png,images/cb_o.png,,,,,,,,,,,,,,,,,,,,,,,,,
,,,,,,00015,2023-08-04_12h22.42.121,vbt_B2_day1,2022.2.4,Win32,60.21919788,,,,,,,,,,,,,,,,,,,0.09759435,-0.219779764,1,0,0,15.9057,1,5,31,2,1,c,images/br_c.png,images/cb_c.png,,,,,,,,,,,,,,,,,,,,,,,,,
,,,,,,00015,2023-08-04_12h22.42.121,vbt_B2_day1,2022.2.4,Win32,60.21919788,,,,,,,,,,,,,,,,,,,-0.01449484,-0.100279656,1,0,0,13.5754,1,6,32,19,1,t,images/br_t.png,images/cb_t.png,,,,,,,,,,,,,,,,,,,,,,,,,
,,,,,,00015,2023-08-04_12h22.42.121,vbt_B2_day1,2022.2.4,Win32,60.21919788,,,,,,,,,,,,,,,,,,,-0.025611121,-0.129923086,1,0,0,9.7498,1,7,33,15,1,p,images/br_p.png,images/cb_p.png,,,,,,,,,,,,,,,,,,,,,,,,,
,,,,,,00015,2023-08-04_12h22.42.121,vbt_B2_day1,2022.2.4,Win32,60.21919788,,,,,,,,,,,,,,,,,,,-0.025611121,-0.129923086,1,0,0,127.6121,1,8,34,16,1,q,images/br_q.png,images/cb_q.png,,,,,,,,,,,,,,,,,,,,,,,,,
,,,,,,00015,2023-08-04_12h22.42.121,vbt_B2_day1,2022.2.4,Win32,60.21919788,,,,,,,,,,,,,,,,,,,-0.072855407,-0.158640175,1,0,0,6.724,1,9,35,10,1,k,images/br_k.png,images/cb_k.png,,,,,,,,,,,,,,,,,,,,,,,,,
,,,,,,00015,2023-08-04_12h22.42.121,vbt_B2_day1,2022.2.4,Win32,60.21919788,,,,,,,,,,,,,,,,,,,-0.107130732,-0.180872735,1,0,0,2.0266,1,10,36,23,1,x,images/br_x.png,images/cb_x.png,,,,,,,,,,,,,,,,,,,,,,,,,
,,,,,,00015,2023-08-04_12h22.42.121,vbt_B2_day1,2022.2.4,Win32,60.21919788,,,,,,,,,,,,,,,,,,,-0.107130732,-0.180872735,1,0,0,4.0568,1,11,37,17,1,r,images/br_r.png,images/cb_r.png,,,,,,,,,,,,,,,,,,,,,,,,,
,,,,,,00015,2023-08-04_12h22.42.121,vbt_B2_day1,2022.2.4,Win32,60.21919788,,,,,,,,,,,,,,,,,,,-0.107130732,-0.180872735,1,0,0,23.3985,1,12,38,4,1,e,images/br_e.png,images/cb_e.png,,,,,,,,,,,,,,,,,,,,,,,,,
,,,,,,00015,2023-08-04_12h22.42.121,vbt_B2_day1,2022.2.4,Win32,60.21919788,,,,,,,,,,,,,,,,,,,-0.107130732,-0.180872735,1,0,0,7.9352,1,13,39,7,1,h,images/br_h.png,images/cb_h.png,,,,,,,,,,,,,,,,,,,,,,,,,
,,,,,,00015,2023-08-04_12h22.42.121,vbt_B2_day1,2022.2.4,Win32,60.21919788,,,,,,,,,,,,,,,,,,,-0.107130732,-0.180872735,1,0,0,12.0336,1,14,40,0,1,a,images/br_a.png,images/cb_a.png,,,,,,,,,,,,,,,,,,,,,,,,,
,,,,,,00015,2023-08-04_12h22.42.121,vbt_B2_day1,2022.2.4,Win32,60.21919788,,,,,,,,,,,,,,,,,,,-0.107130732,-0.180872735,1,0,0,1.9163,1,15,41,9,1,j,images/br_j.png,images/cb_j.png,,,,,,,,,,,,,,,,,,,,,,,,,
,,,,,,00015,2023-08-04_12h22.42.121,vbt_B2_day1,2022.2.4,Win32,60.21919788,,,,,,,,,,,,,,,,,,,-0.107130732,-0.180872735,1,0,0,26.3777,1,16,42,5,1,f,images/br_f.png,images/cb_f.png,,,,,,,,,,,,,,,,,,,,,,,,,
,,,,,,00015,2023-08-04_12h22.42.121,vbt_B2_day1,2022.2.4,Win32,60.21919788,,,,,,,,,,,,,,,,,,,-0.107130732,-0.180872735,1,0,0,2.5997,1,17,43,11,1,l,images/br_l.png,images/cb_l.png,,,,,,,,,,,,,,,,,,,,,,,,,
,,,,,,00015,2023-08-04_12h22.42.121,vbt_B2_day1,2022.2.4,Win32,60.21919788,,,,,,,,,,,,,,,,,,,-0.107130732,-0.180872735,1,0,0,14.1351,1,18,44,22,1,w,images/br_w.png,images/cb_w.png,,,,,,,,,,,,,,,,,,,,,,,,,
,,,,,,00015,2023-08-04_12h22.42.121,vbt_B2_day1,2022.2.4,Win32,60.21919788,,,,,,,,,,,,,,,,,,,-0.107130732,-0.180872735,1,0,0,4.9064,1,19,45,21,1,v,images/br_v.png,images/cb_v.png,,,,,,,,,,,,,,,,,,,,,,,,,
,,,,,,00015,2023-08-04_12h22.42.121,vbt_B2_day1,2022.2.4,Win32,60.21919788,,,,,,,,,,,,,,,,,,,-0.107130732,-0.180872735,1,0,0,13.6721,1,20,46,6,1,g,images/br_g.png,images/cb_g.png,,,,,,,,,,,,,,,,,,,,,,,,,
,,,,,,00015,2023-08-04_12h22.42.121,vbt_B2_day1,2022.2.4,Win32,60.21919788,,,,,,,,,,,,,,,,,,,-0.107130732,-0.180872735,1,0,0,0.5998,1,21,47,8,1,i,images/br_i.png,images/cb_i.png,,,,,,,,,,,,,,,,,,,,,,,,,
,,,,,,00015,2023-08-04_12h22.42.121,vbt_B2_day1,2022.2.4,Win32,60.21919788,,,,,,,,,,,,,,,,,,,-0.107130732,-0.180872735,1,0,0,0.4911,1,22,48,25,1,z,images/br_z.png,images/cb_z.png,,,,,,,,,,,,,,,,,,,,,,,,,
,,,,,,00015,2023-08-04_12h22.42.121,vbt_B2_day1,2022.2.4,Win32,60.21919788,,,,,,,,,,,,,,,,,,,-0.107130732,-0.180872735,1,0,0,9.2323,1,23,49,13,1,n,images/br_n.png,images/cb_n.png,,,,,,,,,,,,,,,,,,,,,,,,,
,,,,,,00015,2023-08-04_12h22.42.121,vbt_B2_day1,2022.2.4,Win32,60.21919788,,,,,,,,,,,,,,,,,,,-0.107130732,-0.180872735,1,0,0,8.806,1,24,50,20,1,u,images/br_u.png,images/cb_u.png,,,,,,,,,,,,,,,,,,,,,,,,,
,,,,,,00015,2023-08-04_12h22.42.121,vbt_B2_day1,2022.2.4,Win32,60.21919788,,,,,,,,,,,,,,,,,,,-0.107130732,-0.180872735,1,0,0,3.3003,1,25,51,3,1,d,images/br_d.png,images/cb_d.png,,,,,,,,,,,,,,,,,,,,,,,,,
,,,,,,00015,2023-08-04_12h22.42.121,vbt_B2_day1,2022.2.4,Win32,60.21919788,,,,,,,,,,,,,,,,,,,-0.107130732,-0.180872735,1,0,0,2.0507,2,0,52,6,1,g,images/br_g.png,images/cb_g.png,,,,,,,,,,,,,,,,,,,,,,,,,
,,,,,,00015,2023-08-04_12h22.42.121,vbt_B2_day1,2022.2.4,Win32,60.21919788,,,,,,,,,,,,,,,,,,,0.061466247,-0.182725465,1,0,0,2.9773,2,1,53,23,1,x,images/br_x.png,images/cb_x.png,,,,,,,,,,,,,,,,,,,,,,,,,
,,,,,,00015,2023-08-04_12h22.42.121,vbt_B2_day1,2022.2.4,Win32,60.21919788,,,,,,,,,,,,,,,,,,,0.060540051,-0.164198315,1,0,0,2.6662,2,2,54,19,1,t,images/br_t.png,images/cb_t.png,,,,,,,,,,,,,,,,,,,,,,,,,
,,,,,,00015,2023-08-04_12h22.42.121,vbt_B2_day1,2022.2.4,Win32,60.21919788,,,,,,,,,,,,,,,,,,,0.060540051,-0.164198315,1,0,0,2.8693,2,3,55,1,1,b,images/br_b.png,images/cb_b.png,,,,,,,,,,,,,,,,,,,,,,,,,
,,,,,,00015,2023-08-04_12h22.42.121,vbt_B2_day1,2022.2.4,Win32,60.21919788,,,,,,,,,,,,,,,,,,,0.060540051,-0.166050948,1,0,0,3.2163,2,4,56,12,1,m,images/br_m.png,images/cb_m.png,,,,,,,,,,,,,,,,,,,,,,,,,
,,,,,,00015,2023-08-04_12h22.42.121,vbt_B2_day1,2022.2.4,Win32,60.21919788,,,,,,,,,,,,,,,,,,,0.060540051,-0.166050948,1,0,0,2.3434,2,5,57,16,1,q,images/br_q.png,images/cb_q.png,,,,,,,,,,,,,,,,,,,,,,,,,
,,,,,,00015,2023-08-04_12h22.42.121,vbt_B2_day1,2022.2.4,Win32,60.21919788,,,,,,,,,,,,,,,,,,,0.060540051,-0.170682748,1,0,0,2.3332,2,6,58,25,1,z,images/br_z.png,images/cb_z.png,,,,,,,,,,,,,,,,,,,,,,,,,
,,,,,,00015,2023-08-04_12h22.42.121,vbt_B2_day1,2022.2.4,Win32,60.21919788,,,,,,,,,,,,,,,,,,,0.067024387,-0.174388255,1,0,0,4.8266,2,7,59,22,1,w,images/br_w.png,images/cb_w.png,,,,,,,,,,,,,,,,,,,,,,,,,
,,,,,,00015,2023-08-04_12h22.42.121,vbt_B2_day1,2022.2.4,Win32,60.21919788,,,,,,,,,,,,,,,,,,,0.070729942,-0.174388255,1,0,0,2.1497,2,8,60,0,1,a,images/br_a.png,images/cb_a.png,,,,,,,,,,,,,,,,,,,,,,,,,
,,,,,,00015,2023-08-04_12h22.42.121,vbt_B2_day1,2022.2.4,Win32,60.21919788,,,,,,,,,,,,,,,,,,,-0.010789478,-0.204957977,1,0,0,0.3235,2,9,61,13,1,n,images/br_n.png,images/cb_n.png,,,,,,,,,,,,,,,,,,,,,,,,,
,,,,,,00015,2023-08-04_12h22.42.121,vbt_B2_day1,2022.2.4,Win32,60.21919788,,,,,,,,,,,,,,,,,,,-0.0089367,-0.198473544,1,0,0,4.8829,2,10,62,5,1,f,images/br_f.png,images/cb_f.png,,,,,,,,,,,,,,,,,,,,,,,,,
,,,,,,00015,2023-08-04_12h22.42.121,vbt_B2_day1,2022.2.4,Win32,60.21919788,,,,,,,,,,,,,,,,,,,-0.0089367,-0.198473544,1,0,0,6.3654,2,11,63,11,1,l,images/br_l.png,images/cb_l.png,,,,,,,,,,,,,,,,,,,,,,,,,
,,,,,,00015,2023-08-04_12h22.42.121,vbt_B2_day1,2022.2.4,Win32,60.21919788,,,,,,,,,,,,,,,,,,,-0.0089367,-0.198473544,1,0,0,3.8653,2,12,64,9,1,j,images/br_j.png,images/cb_j.png,,,,,,,,,,,,,,,,,,,,,,,,,
,,,,,,00015,2023-08-04_12h22.42.121,vbt_B2_day1,2022.2.4,Win32,60.21919788,,,,,,,,,,,,,,,,,,,0.10315249,-0.199399885,1,0,0,4.9771,2,13,65,4,1,e,images/br_e.png,images/cb_e.png,,,,,,,,,,,,,,,,,,,,,,,,,
,,,,,,00015,2023-08-04_12h22.42.121,vbt_B2_day1,2022.2.4,Win32,60.21919788,,,,,,,,,,,,,,,,,,,0.10315249,-0.199399885,1,0,0,18.2672,2,14,66,15,1,p,images/br_p.png,images/cb_p.png,,,,,,,,,,,,,,,,,,,,,,,,,
,,,,,,00015,2023-08-04_12h22.42.121,vbt_B2_day1,2022.2.4,Win32,60.21919788,,,,,,,,,,,,,,,,,,,0.10315249,-0.199399885,1,0,0,7.4674,2,15,67,21,1,v,images/br_v.png,images/cb_v.png,,,,,,,,,,,,,,,,,,,,,,,,,
,,,,,,00015,2023-08-04_12h22.42.121,vbt_B2_day1,2022.2.4,Win32,60.21919788,,,,,,,,,,,,,,,,,,,0.10315249,-0.199399885,1,0,0,18.0921,2,16,68,24,1,y,images/br_y.png,images/cb_y.png,,,,,,,,,,,,,,,,,,,,,,,,,
,,,,,,00015,2023-08-04_12h22.42.121,vbt_B2_day1,2022.2.4,Win32,60.21919788,,,,,,,,,,,,,,,,,,,0.10315249,-0.199399885,1,0,0,5.4603,2,17,69,18,1,s,images/br_s.png,images/cb_s.png,,,,,,,,,,,,,,,,,,,,,,,,,
,,,,,,00015,2023-08-04_12h22.42.121,vbt_B2_day1,2022.2.4,Win32,60.21919788,,,,,,,,,,,,,,,,,,,0.10315249,-0.199399885,1,0,0,1.0665,2,18,70,17,1,r,images/br_r.png,images/cb_r.png,,,,,,,,,,,,,,,,,,,,,,,,,
,,,,,,00015,2023-08-04_12h22.42.121,vbt_B2_day1,2022.2.4,Win32,60.21919788,,,,,,,,,,,,,,,,,,,0.10315249,-0.199399885,1,0,0,4.4729,2,19,71,7,1,h,images/br_h.png,images/cb_h.png,,,,,,,,,,,,,,,,,,,,,,,,,
,,,,,,00015,2023-08-04_12h22.42.121,vbt_B2_day1,2022.2.4,Win32,60.21919788,,,,,,,,,,,,,,,,,,,0.10315249,-0.199399885,1,0,0,2.5563,2,20,72,2,1,c,images/br_c.png,images/cb_c.png,,,,,,,,,,,,,,,,,,,,,,,,,
,,,,,,00015,2023-08-04_12h22.42.121,vbt_B2_day1,2022.2.4,Win32,60.21919788,,,,,,,,,,,,,,,,,,,0.10315249,-0.199399885,1,0,0,5.6233,2,21,73,8,1,i,images/br_i.png,images/cb_i.png,,,,,,,,,,,,,,,,,,,,,,,,,
,,,,,,00015,2023-08-04_12h22.42.121,vbt_B2_day1,2022.2.4,Win32,60.21919788,,,,,,,,,,,,,,,,,,,0.10315249,-0.199399885,1,0,0,5.0164,2,22,74,10,1,k,images/br_k.png,images/cb_k.png,,,,,,,,,,,,,,,,,,,,,,,,,
,,,,,,00015,2023-08-04_12h22.42.121,vbt_B2_day1,2022.2.4,Win32,60.21919788,,,,,,,,,,,,,,,,,,,0.10315249,-0.199399885,1,0,0,3.7669,2,23,75,14,1,o,images/br_o.png,images/cb_o.png,,,,,,,,,,,,,,,,,,,,,,,,,
,,,,,,00015,2023-08-04_12h22.42.121,vbt_B2_day1,2022.2.4,Win32,60.21919788,,,,,,,,,,,,,,,,,,,0.10315249,-0.199399885,1,0,0,13.0426,2,24,76,3,1,d,images/br_d.png,images/cb_d.png,,,,,,,,,,,,,,,,,,,,,,,,,
,,,,,,00015,2023-08-04_12h22.42.121,vbt_B2_day1,2022.2.4,Win32,60.21919788,,,,,,,,,,,,,,,,,,,0.078140667,-0.193841745,1,0,0,6.3399,2,25,77,20,1,u,images/br_u.png,images/cb_u.png,,,,,,,,,,,,,,,,,,,,,,,,,
,,,,,,00015,2023-08-04_12h22.42.121,vbt_B2_day1,2022.2.4,Win32,60.21919788,,,,,,,,,,,,,,,,,,,0.078140667,-0.193841745,1,0,0,2.733,3,0,78,23,1,x,images/br_x.png,images/cb_x.png,,,,,,,,,,,,,,,,,,,,,,,,,
,,,,,,00015,2023-08-04_12h22.42.121,vbt_B2_day1,2022.2.4,Win32,60.21919788,,,,,,,,,,,,,,,,,,,0.078140667,-0.193841745,1,0,0,2.3744,3,1,79,12,1,m,images/br_m.png,images/cb_m.png,,,,,,,,,,,,,,,,,,,,,,,,,
,,,,,,00015,2023-08-04_12h22.42.121,vbt_B2_day1,2022.2.4,Win32,60.21919788,,,,,,,,,,,,,,,,,,,-0.058960057,-0.198473544,1,0,0,1.1232,3,2,80,7,1,h,images/br_h.png,images/cb_h.png,,,,,,,,,,,,,,,,,,,,,,,,,
,,,,,,00015,2023-08-04_12h22.42.121,vbt_B2_day1,2022.2.4,Win32,60.21919788,,,,,,,,,,,,,,,,,,,0.011443083,-0.185504535,1,0,0,1.5164,3,3,81,0,1,a,images/br_a.png,images/cb_a.png,,,,,,,,,,,,,,,,,,,,,,,,,
,,,,,,00015,2023-08-04_12h22.42.121,vbt_B2_day1,2022.2.4,Win32,60.21919788,,,,,,,,,,,,,,,,,,,-0.00059949,-0.174388255,1,0,0,4.1396,3,4,82,2,1,c,images/br_c.png,images/cb_c.png,,,,,,,,,,,,,,,,,,,,,,,,,
,,,,,,00015,2023-08-04_12h22.42.121,vbt_B2_day1,2022.2.4,Win32,60.21919788,,,,,,,,,,,,,,,,,,,-0.00059949,-0.174388255,1,0,0,3.3824,3,5,83,20,1,u,images/br_u.png,images/cb_u.png,,,,,,,,,,,,,,,,,,,,,,,,,
,,,,,,00015,2023-08-04_12h22.42.121,vbt_B2_day1,2022.2.4,Win32,60.21919788,,,,,,,,,,,,,,,,,,,-0.002452268,-0.183651805,1,0,0,4.9238,3,6,84,17,1,r,images/br_r.png,images/cb_r.png,,,,,,,,,,,,,,,,,,,,,,,,,
,,,,,,00015,2023-08-04_12h22.42.121,vbt_B2_day1,2022.2.4,Win32,60.21919788,,,,,,,,,,,,,,,,,,,-0.002452268,-0.183651805,1,0,0,4.7096,3,7,85,21,1,v,images/br_v.png,images/cb_v.png,,,,,,,,,,,,,,,,,,,,,,,,,
,,,,,,00015,2023-08-04_12h22.42.121,vbt_B2_day1,2022.2.4,Win32,60.21919788,,,,,,,,,,,,,,,,,,,-0.002452268,-0.183651805,1,0,0,1.1067,3,8,86,18,1,s,images/br_s.png,images/cb_s.png,,,,,,,,,,,,,,,,,,,,,,,,,
,,,,,,00015,2023-08-04_12h22.42.121,vbt_B2_day1,2022.2.4,Win32,60.21919788,,,,,,,,,,,,,,,,,,,0.00495865,-0.191988968,1,0,0,9.4767,3,9,87,19,1,t,images/br_t.png,images/cb_t.png,,,,,,,,,,,,,,,,,,,,,,,,,
,,,,,,00015,2023-08-04_12h22.42.121,vbt_B2_day1,2022.2.4,Win32,60.21919788,,,,,,,,,,,,,,,,,,,0.00495865,-0.191988968,1,0,0,2.6129,3,10,88,14,1,o,images/br_o.png,images/cb_o.png,,,,,,,,,,,,,,,,,,,,,,,,,
,,,,,,00015,2023-08-04_12h22.42.121,vbt_B2_day1,2022.2.4,Win32,60.21919788,,,,,,,,,,,,,,,,,,,0.00495865,-0.191988968,1,0,0,8.007,3,11,89,22,1,w,images/br_w.png,images/cb_w.png,,,,,,,,,,,,,,,,,,,,,,,,,
,,,,,,00015,2023-08-04_12h22.42.121,vbt_B2_day1,2022.2.4,Win32,60.21919788,,,,,,,,,,,,,,,,,,,0.00495865,-0.191988968,1,0,0,0.974,3,12,90,10,1,k,images/br_k.png,images/cb_k.png,,,,,,,,,,,,,,,,,,,,,,,,,
,,,,,,00015,2023-08-04_12h22.42.121,vbt_B2_day1,2022.2.4,Win32,60.21919788,,,,,,,,,,,,,,,,,,,0.00495865,-0.191988968,1,0,0,1.4722,3,13,91,16,1,q,images/br_q.png,images/cb_q.png,,,,,,,,,,,,,,,,,,,,,,,,,
,,,,,,00015,2023-08-04_12h22.42.121,vbt_B2_day1,2022.2.4,Win32,60.21919788,,,,,,,,,,,,,,,,,,,0.00495865,-0.191988968,1,0,0,2.2731,3,14,92,11,1,l,images/br_l.png,images/cb_l.png,,,,,,,,,,,,,,,,,,,,,,,,,
,,,,,,00015,2023-08-04_12h22.42.121,vbt_B2_day1,2022.2.4,Win32,60.21919788,,,,,,,,,,,,,,,,,,,0.011443083,-0.189209897,1,0,0,37.9167,3,15,93,13,1,n,images/br_n.png,images/cb_n.png,,,,,,,,,,,,,,,,,,,,,,,,,
,,,,,,00015,2023-08-04_12h22.42.121,vbt_B2_day1,2022.2.4,Win32,60.21919788,,,,,,,,,,,,,,,,,,,0.011443083,-0.189209897,1,0,0,6.6991,3,16,94,9,1,j,images/br_j.png,images/cb_j.png,,,,,,,,,,,,,,,,,,,,,,,,,
,,,,,,00015,2023-08-04_12h22.42.121,vbt_B2_day1,2022.2.4,Win32,60.21919788,,,,,,,,,,,,,,,,,,,-0.070076337,-0.204031684,1,0,0,2.1501,3,17,95,6,1,g,images/br_g.png,images/cb_g.png,,,,,,,,,,,,,,,,,,,,,,,,,
,,,,,,00015,2023-08-04_12h22.42.121,vbt_B2_day1,2022.2.4,Win32,60.21919788,,,,,,,,,,,,,,,,,,,-0.067297267,-0.204957977,1,0,0,13.443,3,18,96,25,1,z,images/br_z.png,images/cb_z.png,,,,,,,,,,,,,,,,,,,,,,,,,
,,,,,,00015,2023-08-04_12h22.42.121,vbt_B2_day1,2022.2.4,Win32,60.21919788,,,,,,,,,,,,,,,,,,,-0.067297267,-0.204957977,1,0,0,53.6259,3,19,97,3,1,d,images/br_d.png,images/cb_d.png,,,,,,,,,,,,,,,,,,,,,,,,,
,,,,,,00015,2023-08-04_12h22.42.121,vbt_B2_day1,2022.2.4,Win32,60.21919788,,,,,,,,,,,,,,,,,,,-0.081192713,-0.035434609,1,0,0,1.7261,3,20,98,24,1,y,images/br_y.png,images/cb_y.png,,,,,,,,,,,,,,,,,,,,,,,,,
,,,,,,00015,2023-08-04_12h22.42.121,vbt_B2_day1,2022.2.4,Win32,60.21919788,,,,,,,,,,,,,,,,,,,0.045718312,-0.170682748,1,0,0,0.5492,3,21,99,5,1,f,images/br_f.png,images/cb_f.png,,,,,,,,,,,,,,,,,,,,,,,,,
,,,,,,00015,2023-08-04_12h22.42.121,vbt_B2_day1,2022.2.4,Win32,60.21919788,,,,,,,,,,,,,,,,,,,-0.129363245,-0.168830019,1,0,0,7.7984,3,22,100,1,1,b,images/br_b.png,images/cb_b.png,,,,,,,,,,,,,,,,,,,,,,,,,
,,,,,,00015,2023-08-04_12h22.42.121,vbt_B2_day1,2022.2.4,Win32,60.21919788,,,,,,,,,,,,,,,,,,,-0.129363245,-0.168830019,1,0,0,5.3603,3,23,101,4,1,e,images/br_e.png,images/cb_e.png,,,,,,,,,,,,,,,,,,,,,,,,,
,,,,,,00015,2023-08-04_12h22.42.121,vbt_B2_day1,2022.2.4,Win32,60.21919788,,,,,,,,,,,,,,,,,,,-0.129363245,-0.168830019,1,0,0,6.6162,3,24,102,15,1,p,images/br_p.png,images/cb_p.png,,,,,,,,,,,,,,,,,,,,,,,,,
,,,,,,00015,2023-08-04_12h22.42.121,vbt_B2_day1,2022.2.4,Win32,60.21919788,,,,,,,,,,,,,,,,,,,-0.129363245,-0.168830019,1,0,0,1.96,3,25,103,8,1,i,images/br_i.png,images/cb_i.png,,,,,,,,,,,,,,,,,,,,,,,,,
,,,,,,00015,2023-08-04_12h22.42.121,vbt_B2_day1,2022.2.4,Win32,60.21919788,,,,,,,,,,,,,,,,,,,-0.129363245,-0.168830019,1,0,0,12.8064,4,0,104,8,1,i,images/br_i.png,images/cb_i.png,,,,,,,,,,,,,,,,,,,,,,,,,
,,,,,,00015,2023-08-04_12h22.42.121,vbt_B2_day1,2022.2.4,Win32,60.21919788,,,,,,,,,,,,,,,,,,,0.180966355,-0.130849427,1,0,0,0.1433,4,1,105,10,1,k,images/br_k.png,images/cb_k.png,,,,,,,,,,,,,,,,,,,,,,,,,
,,,,,,00015,2023-08-04_12h22.42.121,vbt_B2_day1,2022.2.4,Win32,60.21919788,,,,,,,,,,,,,,,,,,,0.180966355,-0.130849427,1,0,0,2.3069,4,2,106,25,1,z,images/br_z.png,images/cb_z.png,,,,,,,,,,,,,,,,,,,,,,,,,
,,,,,,00015,2023-08-04_12h22.42.121,vbt_B2_day1,2022.2.4,Win32,60.21919788,,,,,,,,,,,,,,,,,,,-0.045064707,-0.085457917,1,0,0,2.4682,4,3,107,23,1,x,images/br_x.png,images/cb_x.png,,,,,,,,,,,,,,,,,,,,,,,,,
,,,,,,00015,2023-08-04_12h22.42.121,vbt_B2_day1,2022.2.4,Win32,60.21919788,,,,,,,,,,,,,,,,,,,-0.043212026,-0.077120707,1,0,0,7.9731,4,4,108,0,1,a,images/br_a.png,images/cb_a.png,,,,,,,,,,,,,,,,,,,,,,,,,
,,,,,,00015,2023-08-04_12h22.42.121,vbt_B2_day1,2022.2.4,Win32,60.21919788,,,,,,,,,,,,,,,,,,,-0.033022038,0.011809678,1,0,0,1.8434,4,5,109,20,1,u,images/br_u.png,images/cb_u.png,,,,,,,,,,,,,,,,,,,,,,,,,
,,,,,,00015,2023-08-04_12h22.42.121,vbt_B2_day1,2022.2.4,Win32,60.21919788,,,,,,,,,,,,,,,,,,,-0.033022038,0.00439876,1,0,0,0.7833,4,6,110,5,1,f,images/br_f.png,images/cb_f.png,,,,,,,,,,,,,,,,,,,,,,,,,
,,,,,,00015,2023-08-04_12h22.42.121,vbt_B2_day1,2022.2.4,Win32,60.21919788,,,,,,,,,,,,,,,,,,,-0.002452268,-0.039139971,1,0,0,7.5825,4,7,111,13,1,n,images/br_n.png,images/cb_n.png,,,,,,,,,,,,,,,,,,,,,,,,,
,,,,,,00015,2023-08-04_12h22.42.121,vbt_B2_day1,2022.2.4,Win32,60.21919788,,,,,,,,,,,,,,,,,,,-0.00337856,-0.036360901,1,0,0,1.6906,4,8,112,2,1,c,images/br_c.png,images/cb_c.png,,,,,,,,,,,,,,,,,,,,,,,,,
,,,,,,00015,2023-08-04_12h22.42.121,vbt_B2_day1,2022.2.4,Win32,60.21919788,,,,,,,,,,,,,,,,,,,-0.00337856,-0.036360901,1,0,0,10.3343,4,9,113,4,1,e,images/br_e.png,images/cb_e.png,,,,,,,,,,,,,,,,,,,,,,,,,
,,,,,,00015,2023-08-04_12h22.42.121,vbt_B2_day1,2022.2.4,Win32,60.21919788,,,,,,,,,,,,,,,,,,,0.09481528,-0.074341637,1,0,0,1.2326,4,10,114,11,1,l,images/br_l.png,images/cb_l.png,,,,,,,,,,,,,,,,,,,,,,,,,
,,,,,,00015,2023-08-04_12h22.42.121,vbt_B2_day1,2022.2.4,Win32,60.21919788,,,,,,,,,,,,,,,,,,,0.040160172,-0.08082607,1,0,0,3.7842,4,11,115,17,1,r,images/br_r.png,images/cb_r.png,,,,,,,,,,,,,,,,,,,,,,,,,
,,,,,,00015,2023-08-04_12h22.42.121,vbt_B2_day1,2022.2.4,Win32,60.21919788,,,,,,,,,,,,,,,,,,,0.159660279,-0.239233254,1,0,0,0.2602,4,12,116,22,1,w,images/br_w.png,images/cb_w.png,,,,,,,,,,,,,,,,,,,,,,,,,
,,,,,,00015,2023-08-04_12h22.42.121,vbt_B2_day1,2022.2.4,Win32,60.21919788,,,,,,,,,,,,,,,,,,,-0.008010408,-0.160492808,1,0,0,2.549,4,13,117,16,1,q,images/br_q.png,images/cb_q.png,,,,,,,,,,,,,,,,,,,,,,,,,
,,,,,,00015,2023-08-04_12h22.42.121,vbt_B2_day1,2022.2.4,Win32,60.21919788,,,,,,,,,,,,,,,,,,,-0.012642255,-0.158640175,1,0,0,0.2502,4,14,118,21,1,v,images/br_v.png,images/cb_v.png,,,,,,,,,,,,,,,,,,,,,,,,,
,,,,,,00015,2023-08-04_12h22.42.121,vbt_B2_day1,2022.2.4,Win32,60.21919788,,,,,,,,,,,,,,,,,,,-0.012642255,-0.158640175,1,0,0,2.7828,4,15,119,19,1,t,images/br_t.png,images/cb_t.png,,,,,,,,,,,,,,,,,,,,,,,,,
,,,,,,00015,2023-08-04_12h22.42.121,vbt_B2_day1,2022.2.4,Win32,60.21919788,,,,,,,,,,,,,,,,,,,0.072582527,-0.156787446,1,0,0,1.3941,4,16,120,9,1,j,images/br_j.png,images/cb_j.png,,,,,,,,,,,,,,,,,,,,,,,,,
,,,,,,00015,2023-08-04_12h22.42.121,vbt_B2_day1,2022.2.4,Win32,60.21919788,,,,,,,,,,,,,,,,,,,0.072582527,-0.156787446,1,0,0,2.6161,4,17,121,15,1,p,images/br_p.png,images/cb_p.png,,,,,,,,,,,,,,,,,,,,,,,,,
,,,,,,00015,2023-08-04_12h22.42.121,vbt_B2_day1,2022.2.4,Win32,60.21919788,,,,,,,,,,,,,,,,,,,0.065171802,-0.151229306,1,0,0,4.1903,4,18,122,1,1,b,images/br_b.png,images/cb_b.png,,,,,,,,,,,,,,,,,,,,,,,,,
,,,,,,00015,2023-08-04_12h22.42.121,vbt_B2_day1,2022.2.4,Win32,60.21919788,,,,,,,,,,,,,,,,,,,-0.122878764,-0.122512217,1,0,0,4.7103,4,19,123,12,1,m,images/br_m.png,images/cb_m.png,,,,,,,,,,,,,,,,,,,,,,,,,
,,,,,,00015,2023-08-04_12h22.42.121,vbt_B2_day1,2022.2.4,Win32,60.21919788,,,,,,,,,,,,,,,,,,,-0.122878764,-0.122512217,1,0,0,0.8494,4,20,124,24,1,y,images/br_y.png,images/cb_y.png,,,,,,,,,,,,,,,,,,,,,,,,,
,,,,,,00015,2023-08-04_12h22.42.121,vbt_B2_day1,2022.2.4,Win32,60.21919788,,,,,,,,,,,,,,,,,,,0.56725757,-0.178093665,1,0,0,2.0009,4,21,125,7,1,h,images/br_h.png,images/cb_h.png,,,,,,,,,,,,,,,,,,,,,,,,,
,,,,,,00015,2023-08-04_12h22.42.121,vbt_B2_day1,2022.2.4,Win32,60.21919788,,,,,,,,,,,,,,,,,,,-0.22848357,-0.068783497,1,0,0,11.6428,4,22,126,3,1,d,images/br_d.png,images/cb_d.png,,,,,,,,,,,,,,,,,,,,,,,,,
,,,,,,00015,2023-08-04_12h22.42.121,vbt_B2_day1,2022.2.4,Win32,60.21919788,,,,,,,,,,,,,,,,,,,-0.184944693,-0.052108981,1,0,0,5.9899,4,23,127,6,1,g,images/br_g.png,images/cb_g.png,,,,,,,,,,,,,,,,,,,,,,,,,
,,,,,,00015,2023-08-04_12h22.42.121,vbt_B2_day1,2022.2.4,Win32,60.21919788,,,,,,,,,,,,,,,,,,,-0.195134633,-0.052108981,1,0,0,5.3898,4,24,128,18,1,s,images/br_s.png,images/cb_s.png,,,,,,,,,,,,,,,,,,,,,,,,,
,,,,,,00015,2023-08-04_12h22.42.121,vbt_B2_day1,2022.2.4,Win32,60.21919788,,,,,,,,,,,,,,,,,,,0.070729942,-0.222558834,1,0,0,11.8558,4,25,129,14,1,o,images/br_o.png,images/cb_o.png,,,,,,,,,,,,,,,,,,,,,,,,,
,,,,,,00015,2023-08-04_12h22.42.121,vbt_B2_day1,2022.2.4,Win32,60.21919788,,,,,,,,,,,,,,,,,,,0.420892959,-0.410609448,1,0,0,0.9338,5,0,130,10,1,k,images/br_k.png,images/cb_k.png,,,,,,,,,,,,,,,,,,,,,,,,,
,,,,,,00015,2023-08-04_12h22.42.121,vbt_B2_day1,2022.2.4,Win32,60.21919788,,,,,,,,,,,,,,,,,,,0.226357864,-0.312415512,1,0,0,1.8012,5,1,131,24,1,y,images/br_y.png,images/cb_y.png,,,,,,,,,,,,,,,,,,,,,,,,,
,,,,,,00015,2023-08-04_12h22.42.121,vbt_B2_day1,2022.2.4,Win32,60.21919788,,,,,,,,,,,,,,,,,,,0.226357864,-0.312415512,1,0,0,0.9895,5,2,132,22,1,w,images/br_w.png,images/cb_w.png,,,,,,,,,,,,,,,,,,,,,,,,,
,,,,,,00015,2023-08-04_12h22.42.121,vbt_B2_day1,2022.2.4,Win32,60.21919788,,,,,,,,,,,,,,,,,,,0.226357864,-0.312415512,1,0,0,0.8739,5,3,133,12,1,m,images/br_m.png,images/cb_m.png,,,,,,,,,,,,,,,,,,,,,,,,,
,,,,,,00015,2023-08-04_12h22.42.121,vbt_B2_day1,2022.2.4,Win32,60.21919788,,,,,,,,,,,,,,,,,,,0.225431668,-0.312415512,1,0,0,2.077,5,4,134,18,1,s,images/br_s.png,images/cb_s.png,,,,,,,,,,,,,,,,,,,,,,,,,
,,,,,,00015,2023-08-04_12h22.42.121,vbt_B2_day1,2022.2.4,Win32,60.21919788,,,,,,,,,,,,,,,,,,,0.225431668,-0.312415512,1,0,0,14.0997,5,5,135,6,1,g,images/br_g.png,images/cb_g.png,,,,,,,,,,,,,,,,,,,,,,,,,
,,,,,,00015,2023-08-04_12h22.42.121,vbt_B2_day1,2022.2.4,Win32,60.21919788,,,,,,,,,,,,,,,,,,,0.225431668,-0.312415512,1,0,0,7.3169,5,6,136,11,1,l,images/br_l.png,images/cb_l.png,,,,,,,,,,,,,,,,,,,,,,,,,
,,,,,,00015,2023-08-04_12h22.42.121,vbt_B2_day1,2022.2.4,Win32,60.21919788,,,,,,,,,,,,,,,,,,,0.225431668,-0.312415512,1,0,0,1.1661,5,7,137,23,1,x,images/br_x.png,images/cb_x.png,,,,,,,,,,,,,,,,,,,,,,,,,
,,,,,,00015,2023-08-04_12h22.42.121,vbt_B2_day1,2022.2.4,Win32,60.21919788,,,,,,,,,,,,,,,,,,,0.225431668,-0.312415512,1,0,0,0.9668,5,8,138,17,1,r,images/br_r.png,images/cb_r.png,,,,,,,,,,,,,,,,,,,,,,,,,
,,,,,,00015,2023-08-04_12h22.42.121,vbt_B2_day1,2022.2.4,Win32,60.21919788,,,,,,,,,,,,,,,,,,,0.281939457,-0.134554789,1,0,0,17.1336,5,9,139,15,1,p,images/br_p.png,images/cb_p.png,,,,,,,,,,,,,,,,,,,,,,,,,
,,,,,,00015,2023-08-04_12h22.42.121,vbt_B2_day1,2022.2.4,Win32,60.21919788,,,,,,,,,,,,,,,,,,,0.281939457,-0.134554789,1,0,0,6.5736,5,10,140,0,1,a,images/br_a.png,images/cb_a.png,,,,,,,,,,,,,,,,,,,,,,,,,
,,,,,,00015,2023-08-04_12h22.42.121,vbt_B2_day1,2022.2.4,Win32,60.21919788,,,,,,,,,,,,,,,,,,,0.281939457,-0.134554789,1,0,0,9.0723,5,11,141,20,1,u,images/br_u.png,images/cb_u.png,,,,,,,,,,,,,,,,,,,,,,,,,
,,,,,,00015,2023-08-04_12h22.42.121,vbt_B2_day1,2022.2.4,Win32,60.21919788,,,,,,,,,,,,,,,,,,,0.281939457,-0.134554789,1,0,0,30.3159,5,12,142,4,1,e,images/br_e.png,images/cb_e.png,,,,,,,,,,,,,,,,,,,,,,,,,
,,,,,,00015,2023-08-04_12h22.42.121,vbt_B2_day1,2022.2.4,Win32,60.21919788,,,,,,,,,,,,,,,,,,,0.281939457,-0.134554789,1,0,0,4.3742,5,13,143,14,1,o,images/br_o.png,images/cb_o.png,,,,,,,,,,,,,,,,,,,,,,,,,
,,,,,,00015,2023-08-04_12h22.42.121,vbt_B2_day1,2022.2.4,Win32,60.21919788,,,,,,,,,,,,,,,,,,,0.266191233,-0.127144016,1,0,0,24.1092,5,14,144,1,1,b,images/br_b.png,images/cb_b.png,,,,,,,,,,,,,,,,,,,,,,,,,
,,,,,,00015,2023-08-04_12h22.42.121,vbt_B2_day1,2022.2.4,Win32,60.21919788,,,,,,,,,,,,,,,,,,,0.351416304,-0.242938617,1,0,0,3.5066,5,15,145,2,1,c,images/br_c.png,images/cb_c.png,,,,,,,,,,,,,,,,,,,,,,,,,
,,,,,,00015,2023-08-04_12h22.42.121,vbt_B2_day1,2022.2.4,Win32,60.21919788,,,,,,,,,,,,,,,,,,,0.243032476,-0.204031684,1,0,0,2.1398,5,16,146,16,1,q,images/br_q.png,images/cb_q.png,,,,,,,,,,,,,,,,,,,,,,,,,
,,,,,,00015,2023-08-04_12h22.42.121,vbt_B2_day1,2022.2.4,Win32,60.21919788,,,,,,,,,,,,,,,,,,,0.247664228,-0.194768038,1,0,0,1.9579,5,17,147,7,1,h,images/br_h.png,images/cb_h.png,,,,,,,,,,,,,,,,,,,,,,,,,
,,,,,,00015,2023-08-04_12h22.42.121,vbt_B2_day1,2022.2.4,Win32,60.21919788,,,,,,,,,,,,,,,,,,,0.208757247,-0.249423194,1,0,0,11.4403,5,18,148,13,1,n,images/br_n.png,images/cb_n.png,,,,,,,,,,,,,,,,,,,,,,,,,
,,,,,,00015,2023-08-04_12h22.42.121,vbt_B2_day1,2022.2.4,Win32,60.21919788,,,,,,,,,,,,,,,,,,,0.17911377,-0.243865102,1,0,0,13.5162,5,19,149,8,1,i,images/br_i.png,images/cb_i.png,,,,,,,,,,,,,,,,,,,,,,,,,
,,,,,,00015,2023-08-04_12h22.42.121,vbt_B2_day1,2022.2.4,Win32,60.21919788,,,,,,,,,,,,,,,,,,,0.176334699,-0.252202264,1,0,0,4.6432,5,20,150,9,1,j,images/br_j.png,images/cb_j.png,,,,,,,,,,,,,,,,,,,,,,,,,
,,,,,,00015,2023-08-04_12h22.42.121,vbt_B2_day1,2022.2.4,Win32,60.21919788,,,,,,,,,,,,,,,,,,,0.176334699,-0.252202264,1,0,0,0.1398,5,21,151,21,1,v,images/br_v.png,images/cb_v.png,,,,,,,,,,,,,,,,,,,,,,,,,
,,,,,,00015,2023-08-04_12h22.42.121,vbt_B2_day1,2022.2.4,Win32,60.21919788,,,,,,,,,,,,,,,,,,,-0.160859404,-0.141965659,1,0,0,2.3492,5,22,152,19,1,t,images/br_t.png,images/cb_t.png,,,,,,,,,,,,,,,,,,,,,,,,,
,,,,,,00015,2023-08-04_12h22.42.121,vbt_B2_day1,2022.2.4,Win32,60.21919788,,,,,,,,,,,,,,,,,,,-0.33594096,-0.237380477,1,0,0,10.8327,5,23,153,5,1,f,images/br_f.png,images/cb_f.png,,,,,,,,,,,,,,,,,,,,,,,,,
,,,,,,00015,2023-08-04_12h22.42.121,vbt_B2_day1,2022.2.4,Win32,60.21919788,,,,,,,,,,,,,,,,,,,0.199493648,-0.476380644,1,0,0,0.2505,5,24,154,25,1,z,images/br_z.png,images/cb_z.png,,,,,,,,,,,,,,,,,,,,,,,,,
,,,,,,00015,2023-08-04_12h22.42.121,vbt_B2_day1,2022.2.4,Win32,60.21919788,,,,,,,,,,,,,,,,,,,-0.23404171,-0.045624548,1,0,0,20.3221,5,25,155,3,1,d,images/br_d.png,images/cb_d.png,,,,,,,,,,,,,,,,,,,,,,,,,
,,,,,,00015,2023-08-04_12h22.42.121,vbt_B2_day1,2022.2.4,Win32,60.21919788,,,,,,,,,,,,,,,,,,,-0.149743124,-0.177167325,1,0,0,5.5506,6,0,156,25,1,z,images/br_z.png,images/cb_z.png,,,,,,,,,,,,,,,,,,,,,,,,,
,,,,,,00015,2023-08-04_12h22.42.121,vbt_B2_day1,2022.2.4,Win32,60.21919788,,,,,,,,,,,,,,,,,,,-0.143258691,-0.247570416,1,0,0,15.8928,6,1,157,12,1,m,images/br_m.png,images/cb_m.png,,,,,,,,,,,,,,,,,,,,,,,,,
,,,,,,00015,2023-08-04_12h22.42.121,vbt_B2_day1,2022.2.4,Win32,60.21919788,,,,,,,,,,,,,,,,,,,0.433862112,-0.025244621,1,0,0,4.1005,6,2,158,24,1,y,images/br_y.png,images/cb_y.png,,,,,,,,,,,,,,,,,,,,,,,,,
,,,,,,00015,2023-08-04_12h22.42.121,vbt_B2_day1,2022.2.4,Win32,60.21919788,,,,,,,,,,,,,,,,,,,0.469990023,-0.109543207,1,0,0,7.4666,6,3,159,22,1,w,images/br_w.png,images/cb_w.png,,,,,,,,,,,,,,,,,,,,,,,,,
,,,,,,00015,2023-08-04_12h22.42.121,vbt_B2_day1,2022.2.4,Win32,60.21919788,,,,,,,,,,,,,,,,,,,0.469990023,-0.109543207,1,0,0,6.3595,6,4,160,13,1,n,images/br_n.png,images/cb_n.png,,,,,,,,,,,,,,,,,,,,,,,,,
,,,,,,00015,2023-08-04_12h22.42.121,vbt_B2_day1,2022.2.4,Win32,60.21919788,,,,,,,,,,,,,,,,,,,0.463505398,-0.106764137,1,0,0,18.2835,6,5,161,3,1,d,images/br_d.png,images/cb_d.png,,,,,,,,,,,,,,,,,,,,,,,,,
,,,,,,00015,2023-08-04_12h22.42.121,vbt_B2_day1,2022.2.4,Win32,60.21919788,,,,,,,,,,,,,,,,,,,0.123532369,-0.016907459,1,0,0,9.4561,6,6,162,17,1,r,images/br_r.png,images/cb_r.png,,,,,,,,,,,,,,,,,,,,,,,,,
,,,,,,00015,2023-08-04_12h22.42.121,vbt_B2_day1,2022.2.4,Win32,60.21919788,,,,,,,,,,,,,,,,,,,0.121679495,-0.016907459,1,0,0,20.5315,6,7,163,21,1,v,images/br_v.png,images/cb_v.png,,,,,,,,,,,,,,,,,,,,,,,,,
,,,,,,00015,2023-08-04_12h22.42.121,vbt_B2_day1,2022.2.4,Win32,60.21919788,,,,,,,,,,,,,,,,,,,0.121679495,-0.016907459,1,0,0,10.7401,6,8,164,19,1,t,images/br_t.png,images/cb_t.png,,,,,,,,,,,,,,,,,,,,,,,,,
,,,,,,00015,2023-08-04_12h22.42.121,vbt_B2_day1,2022.2.4,Win32,60.21919788,,,,,,,,,,,,,,,,,,,0.115194966,-0.030802761,1,0,0,32.6498,6,9,165,14,1,o,images/br_o.png,images/cb_o.png,,,,,,,,,,,,,,,,,,,,,,,,,
,,,,,,00015,2023-08-04_12h22.42.121,vbt_B2_day1,2022.2.4,Win32,60.21919788,,,,,,,,,,,,,,,,,,,0.115194966,-0.030802761,1,0,0,9.9562,6,10,166,11,1,l,images/br_l.png,images/cb_l.png,,,,,,,,,,,,,,,,,,,,,,,,,
,,,,,,00015,2023-08-04_12h22.42.121,vbt_B2_day1,2022.2.4,Win32,60.21919788,,,,,,,,,,,,,,,,,,,0.054981911,-0.105837796,1,0,0,0.2994,6,11,167,16,1,q,images/br_q.png,images/cb_q.png,,,,,,,,,,,,,,,,,,,,,,,,,
,,,,,,00015,2023-08-04_12h22.42.121,vbt_B2_day1,2022.2.4,Win32,60.21919788,,,,,,,,,,,,,,,,,,,0.18467191,-0.198473544,1,0,0,0.2676,6,12,168,1,1,b,images/br_b.png,images/cb_b.png,,,,,,,,,,,,,,,,,,,,,,,,,
,,,,,,00015,2023-08-04_12h22.42.121,vbt_B2_day1,2022.2.4,Win32,60.21919788,,,,,,,,,,,,,,,,,,,0.023485751,-0.184578098,1,0,0,1.2891,6,13,169,18,1,s,images/br_s.png,images/cb_s.png,,,,,,,,,,,,,,,,,,,,,,,,,
,,,,,,00015,2023-08-04_12h22.42.121,vbt_B2_day1,2022.2.4,Win32,60.21919788,,,,,,,,,,,,,,,,,,,0.027191114,-0.184578098,1,0,0,4.223,6,14,170,23,1,x,images/br_x.png,images/cb_x.png,,,,,,,,,,,,,,,,,,,,,,,,,
,,,,,,00015,2023-08-04_12h22.42.121,vbt_B2_day1,2022.2.4,Win32,60.21919788,,,,,,,,,,,,,,,,,,,0.027191114,-0.184578098,1,0,0,0.7071,6,15,171,5,1,f,images/br_f.png,images/cb_f.png,,,,,,,,,,,,,,,,,,,,,,,,,
,,,,,,00015,2023-08-04_12h22.42.121,vbt_B2_day1,2022.2.4,Win32,60.21919788,,,,,,,,,,,,,,,,,,,-0.257200659,-0.019686529,1,0,0,12.1329,6,16,172,15,1,p,images/br_p.png,images/cb_p.png,,,,,,,,,,,,,,,,,,,,,,,,,
,,,,,,00015,2023-08-04_12h22.42.121,vbt_B2_day1,2022.2.4,Win32,60.21919788,,,,,,,,,,,,,,,,,,,0.04386563,-0.448589944,1,0,0,1.1927,6,17,173,4,1,e,images/br_e.png,images/cb_e.png,,,,,,,,,,,,,,,,,,,,,,,,,
,,,,,,00015,2023-08-04_12h22.42.121,vbt_B2_day1,2022.2.4,Win32,60.21919788,,,,,,,,,,,,,,,,,,,0.159660279,-0.013202048,1,0,0,0.011,6,18,174,7,1,h,images/br_h.png,images/cb_h.png,,,,,,,,,,,,,,,,,,,,,,,,,
,,,,,,00015,2023-08-04_12h22.42.121,vbt_B2_day1,2022.2.4,Win32,60.21919788,,,,,,,,,,,,,,,,,,,0.028117407,0.040526719,1,0,0,0.4437,6,19,175,0,1,a,images/br_a.png,images/cb_a.png,,,,,,,,,,,,,,,,,,,,,,,,,
,,,,,,00015,2023-08-04_12h22.42.121,vbt_B2_day1,2022.2.4,Win32,60.21919788,,,,,,,,,,,,,,,,,,,0.020706681,0.024778687,1,0,0,0.4909,6,20,176,9,1,j,images/br_j.png,images/cb_j.png,,,,,,,,,,,,,,,,,,,,,,,,,
,,,,,,00015,2023-08-04_12h22.42.121,vbt_B2_day1,2022.2.4,Win32,60.21919788,,,,,,,,,,,,,,,,,,,0.033675643,-0.045624548,1,0,0,2.1836,6,21,177,8,1,i,images/br_i.png,images/cb_i.png,,,,,,,,,,,,,,,,,,,,,,,,,
,,,,,,00015,2023-08-04_12h22.42.121,vbt_B2_day1,2022.2.4,Win32,60.21919788,,,,,,,,,,,,,,,,,,,0.020706681,-0.048403618,1,0,0,6.0334,6,22,178,6,1,g,images/br_g.png,images/cb_g.png,,,,,,,,,,,,,,,,,,,,,,,,,
,,,,,,00015,2023-08-04_12h22.42.121,vbt_B2_day1,2022.2.4,Win32,60.21919788,,,,,,,,,,,,,,,,,,,0.13094319,-0.133628449,1,0,0,8.5929,6,23,179,10,1,k,images/br_k.png,images/cb_k.png,,,,,,,,,,,,,,,,,,,,,,,,,
,,,,,,00015,2023-08-04_12h22.42.121,vbt_B2_day1,2022.2.4,Win32,60.21919788,,,,,,,,,,,,,,,,,,,0.13094319,-0.133628449,1,0,0,1.7732,6,24,180,20,1,u,images/br_u.png,images/cb_u.png,,,,,,,,,,,,,,,,,,,,,,,,,
,,,,,,00015,2023-08-04_12h22.42.121,vbt_B2_day1,2022.2.4,Win32,60.21919788,,,,,,,,,,,,,,,,,,,0.13094319,-0.133628449,1,0,0,15.6064,6,25,181,2,1,c,images/br_c.png,images/cb_c.png,,,,,,,,,,,,,,,,,,,,,,,,,
,,,,,,00015,2023-08-04_12h22.42.121,vbt_B2_day1,2022.2.4,Win32,60.21919788,,,,,,,,,,,,,,,,,,,,,,,,,,,,,,,,,0.656187908,-0.265171273,1,0,0,,,,,,,,,,,,,,,,,,,,
,,,,,,00015,2023-08-04_12h22.42.121,vbt_B2_day1,2022.2.4,Win32,60.21919788,,,,,,,,,,,,,,,,,,,,,,,,,,,,,,,,,,,,,,0.511675977,-0.000233039,1,0,0,,,,,,,,,,,,,,,
,,,,,,00015,2023-08-04_12h22.42.121,vbt_B2_day1,2022.2.4,Win32,60.21919788,,,,,,,,,,,,,,,,,,,,,,,,,,,,,,,,,,,,,,,,,,,0.38383866,0.089623639,1,0,0,.la.,.la.,0,0,0,0,1,slak,images/br_slak.png,images/cb_slak.png
,,,,,,00015,2023-08-04_12h22.42.121,vbt_B2_day1,2022.2.4,Win32,60.21919788,,,,,,,,,,,,,,,,,,,,,,,,,,,,,,,,,,,,,,,,,,,0.385691533,0.072949219,1,0,0,die.,die.,0,1,1,40,1,dief,images/br_dief.png,images/cb_dief.png
,,,,,,00015,2023-08-04_12h22.42.121,vbt_B2_day1,2022.2.4,Win32,60.21919788,,,,,,,,,,,,,,,,,,,,,,,,,,,,,,,,,,,,,,,,,,,0.38105959,0.028484098,1,0,0,tekenin,tekenin,0,2,2,55,1,tekenen,images/br_tekenen.png,images/cb_tekenen.png
,,,,,,00015,2023-08-04_12h22.42.121,vbt_B2_day1,2022.2.4,Win32,60.21919788,,,,,,,,,,,,,,,,,,,,,,,,,,,,,,,,,,,,,,,,,,,0.38383866,0.040526719,1,0,0,.ijdti.,.ijdti.,0,3,3,54,1,vijftig,images/br_vijftig.png,images/cb_vijftig.png
,,,,,,00015,2023-08-04_12h22.42.121,vbt_B2_day1,2022.2.4,Win32,60.21919788,,,,,,,,,,,,,,,,,,,,,,,,,,,,,,,,,,,,,,,,,,,0.382912463,0.044232178,1,0,0,zaal,zaal,0,4,4,1,1,zaal,images/br_zaal.png,images/cb_zaal.png
,,,,,,00015,2023-08-04_12h22.42.121,vbt_B2_day1,2022.2.4,Win32,60.21919788,,,,,,,,,,,,,,,,,,,,,,,,,,,,,,,,,,,,,,,,,,,0.385691533,0.011809678,1,0,0,....,....,0,5,5,18,1,uitdelen,images/br_uitdelen.png,images/cb_uitdelen.png
,,,,,,00015,2023-08-04_12h22.42.121,vbt_B2_day1,2022.2.4,Win32,60.21919788,,,,,,,,,,,,,,,,,,,,,,,,,,,,,,,,,,,,,,,,,,,0.3893968,-0.012275612,1,0,0,kz.e,kz.e,0,6,6,22,1,knoe,images/br_knoe.png,images/cb_knoe.png
,,,,,,00015,2023-08-04_12h22.42.121,vbt_B2_day1,2022.2.4,Win32,60.21919788,,,,,,,,,,,,,,,,,,,,,,,,,,,,,,,,,,,,,,,,,,,0.3893968,-0.023391988,1,0,0,meenenem,meenenem,0,7,7,57,1,meenemen,images/br_meenemen.png,images/cb_meenemen.png
,,,,,,00015,2023-08-04_12h22.42.121,vbt_B2_day1,2022.2.4,Win32,60.21919788,,,,,,,,,,,,,,,,,,,,,,,,,,,,,,,,,,,,,,,,,,,0.3893968,-0.020612822,1,0,0,.tuk,.tuk,0,8,8,42,1,stuk,images/br_stuk.png,images/cb_stuk.png
,,,,,,00015,2023-08-04_12h22.42.121,vbt_B2_day1,2022.2.4,Win32,60.21919788,,,,,,,,,,,,,,,,,,,,,,,,,,,,,,,,,,,,,,,,,,,0.385691533,-0.034508268,1,0,0,klimmen,klimmen,0,9,9,12,1,klimmen,images/br_klimmen.png,images/cb_klimmen.png
,,,,,,00015,2023-08-04_12h22.42.121,vbt_B2_day1,2022.2.4,Win32,60.21919788,,,,,,,,,,,,,,,,,,,,,,,,,,,,,,,,,,,,,,,,,,,0.387544214,-0.026171058,1,0,0,vtlop,vtlop,0,10,10,26,1,valop,images/br_valop.png,images/cb_valop.png
,,,,,,00015,2023-08-04_12h22.42.121,vbt_B2_day1,2022.2.4,Win32,60.21919788,,,,,,,,,,,,,,,,,,,,,,,,,,,,,,,,,,,,,,,,,,,0.382912463,-0.054888051,1,0,0,nuiplap,nuiplap,0,11,11,52,1,zuiplap,images/br_zuiplap.png,images/cb_zuiplap.png
,,,,,,00015,2023-08-04_12h22.42.121,vbt_B2_day1,2022.2.4,Win32,60.21919788,,,,,,,,,,,,,,,,,,,,,,,,,,,,,,,,,,,,,,,,,,,0.385691533,-0.040066408,1,0,0,.c.ep,.c.ep,0,12,12,4,1,schep,images/br_schep.png,images/cb_schep.png
,,,,,,00015,2023-08-04_12h22.42.121,vbt_B2_day1,2022.2.4,Win32,60.21919788,,,,,,,,,,,,,,,,,,,,,,,,,,,,,,,,,,,,,,,,,,,0.384765144,-0.040066408,1,0,0,opplaa.,opplaa.,0,13,13,32,1,opplaan,images/br_opplaan.png,images/cb_opplaan.png
,,,,,,00015,2023-08-04_12h22.42.121,vbt_B2_day1,2022.2.4,Win32,60.21919788,,,,,,,,,,,,,,,,,,,,,,,,,,,,,,,,,,,,,,,,,,,0.360679711,-0.053961758,1,0,0,toe....,toe....,0,14,14,56,1,toezicht,images/br_toezicht.png,images/cb_toezicht.png
,,,,,,00015,2023-08-04_12h22.42.121,vbt_B2_day1,2022.2.4,Win32,60.21919788,,,,,,,,,,,,,,,,,,,,,,,,,,,,,,,,,,,,,,,,,,,0.364385265,-0.064151698,1,0,0,.ooi,.ooi,0,15,15,23,1,booi,images/br_booi.png,images/cb_booi.png
,,,,,,00015,2023-08-04_12h22.42.121,vbt_B2_day1,2022.2.4,Win32,60.21919788,,,,,,,,,,,,,,,,,,,,,,,,,,,,,,,,,,,,,,,,,,,0.356974444,-0.06229892,1,0,0,.a..e.,.a..e.,0,16,16,8,1,kanjer,images/br_kanjer.png,images/cb_kanjer.png
,,,,,,00015,2023-08-04_12h22.42.121,vbt_B2_day1,2022.2.4,Win32,60.21919788,,,,,,,,,,,,,,,,,,,,,,,,,,,,,,,,,,,,,,,,,,,0.362532584,-0.06229892,1,0,0,.a.d,.a.d,0,17,17,3,1,mand,images/br_mand.png,images/cb_mand.png
,,,,,,00015,2023-08-04_12h22.42.121,vbt_B2_day1,2022.2.4,Win32,60.21919788,,,,,,,,,,,,,,,,,,,,,,,,,,,,,,,,,,,,,,,,,,,0.362532584,-0.066930768,1,0,0,waa..a.,waa..a.,0,18,18,14,1,waarvan,images/br_waarvan.png,images/cb_waarvan.png
,,,,,,00015,2023-08-04_12h22.42.121,vbt_B2_day1,2022.2.4,Win32,60.21919788,,,,,,,,,,,,,,,,,,,,,,,,,,,,,,,,,,,,,,,,,,,0.356974444,-0.116954077,1,0,0,muziek,muziek,0,19,19,10,1,muziek,images/br_muziek.png,images/cb_muziek.png
,,,,,,00015,2023-08-04_12h22.42.121,vbt_B2_day1,2022.2.4,Win32,60.21919788,,,,,,,,,,,,,,,,,,,,,,,,,,,,,,,,,,,,,,,,,,,0.350489915,-0.126217579,1,0,0,op.laa.,op.laa.,0,20,20,53,1,opslaan,images/br_opslaan.png,images/cb_opslaan.png
,,,,,,00015,2023-08-04_12h22.42.121,vbt_B2_day1,2022.2.4,Win32,60.21919788,,,,,,,,,,,,,,,,,,,,,,,,,,,,,,,,,,,,,,,,,,,0.345858164,-0.121585876,1,0,0,.....,.....,0,21,21,33,1,flullen,images/br_flullen.png,images/cb_flullen.png
,,,,,,00015,2023-08-04_12h22.42.121,vbt_B2_day1,2022.2.4,Win32,60.21919788,,,,,,,,,,,,,,,,,,,,,,,,,,,,,,,,,,,,,,,,,,,0.393102355,0.034968531,1,0,0,.ee..e,.ee..e,0,22,22,30,1,reedje,images/br_reedje.png,images/cb_reedje.png
,,,,,,00015,2023-08-04_12h22.42.121,vbt_B2_day1,2022.2.4,Win32,60.21919788,,,,,,,,,,,,,,,,,,,,,,,,,,,,,,,,,,,,,,,,,,,-0.268316939,0.111856247,1,0,0,.lam,.lam,0,23,23,7,1,klauw,images/br_klauw.png,images/cb_klauw.png
,,,,,,00015,2023-08-04_12h22.42.121,vbt_B2_day1,2022.2.4,Win32,60.21919788,,,,,,,,,,,,,,,,,,,,,,,,,,,,,,,,,,,,,,,,,,,0.018854,-0.044698208,1,0,0,ge.o..,ge.o..,0,24,24,29,1,genond,images/br_genond.png,images/cb_genond.png
,,,,,,00015,2023-08-04_12h22.42.121,vbt_B2_day1,2022.2.4,Win32,60.21919788,,,,,,,,,,,,,,,,,,,,,,,,,,,,,,,,,,,,,,,,,,,0.499633501,-0.092868787,1,0,0,lie..e,lie..e,0,25,25,51,1,liefde,images/br_liefde.png,images/cb_liefde.png
,,,,,,00015,2023-08-04_12h22.42.121,vbt_B2_day1,2022.2.4,Win32,60.21919788,,,,,,,,,,,,,,,,,,,,,,,,,,,,,,,,,,,,,,,,,,,0.499633501,-0.092868787,1,0,0,.c.mile.,.c.mile.,0,26,26,19,1,schuilen,images/br_schuilen.png,images/cb_schuilen.png
,,,,,,00015,2023-08-04_12h22.42.121,vbt_B2_day1,2022.2.4,Win32,60.21919788,,,,,,,,,,,,,,,,,,,,,,,,,,,,,,,,,,,,,,,,,,,0.41440843,0.065538301,1,0,0,......,......,0,27,27,38,1,schielen,images/br_schielen.png,images/cb_schielen.png
,,,,,,00015,2023-08-04_12h22.42.121,vbt_B2_day1,2022.2.4,Win32,60.21919788,,,,,,,,,,,,,,,,,,,,,,,,,,,,,,,,,,,,,,,,,,,0.850723002,0.160026803,1,0,0,.emel,.emel,0,28,28,45,1,hemel,images/br_hemel.png,images/cb_hemel.png
,,,,,,00015,2023-08-04_12h22.42.121,vbt_B2_day1,2022.2.4,Win32,60.21919788,,,,,,,,,,,,,,,,,,,,,,,,,,,,,,,,,,,,,,,,,,,0.842385696,0.158174097,1,0,0,lie.e.,lie.e.,0,29,29,50,1,liegen,images/br_liegen.png,images/cb_liegen.png
,,,,,,00015,2023-08-04_12h22.42.121,vbt_B2_day1,2022.2.4,Win32,60.21919788,,,,,,,,,,,,,,,,,,,,,,,,,,,,,,,,,,,,,,,,,,,0.250443298,-0.038213679,1,0,0,.oo..e..,.oo..e..,0,30,30,39,1,voorreur,images/br_voorreur.png,images/cb_voorreur.png
,,,,,,00015,2023-08-04_12h22.42.121,vbt_B2_day1,2022.2.4,Win32,60.21919788,,,,,,,,,,,,,,,,,,,,,,,,,,,,,,,,,,,,,,,,,,,-0.016347618,0.019220547,1,0,0,.i.ie.,.i.ie.,0,31,31,49,1,vizier,images/br_vizier.png,images/cb_vizier.png
,,,,,,00015,2023-08-04_12h22.42.121,vbt_B2_day1,2022.2.4,Win32,60.21919788,,,,,,,,,,,,,,,,,,,,,,,,,,,,,,,,,,,,,,,,,,,-0.016347618,0.019220547,1,0,0,t.i..el,t.i..el,0,32,32,13,1,twijfel,images/br_twijfel.png,images/cb_twijfel.png
,,,,,,00015,2023-08-04_12h22.42.121,vbt_B2_day1,2022.2.4,Win32,60.21919788,,,,,,,,,,,,,,,,,,,,,,,,,,,,,,,,,,,,,,,,,,,0.091109821,0.048863881,1,0,0,.i..e,.i..e,0,33,33,44,1,wijze,images/br_wijze.png,images/cb_wijze.png
,,,,,,00015,2023-08-04_12h22.42.121,vbt_B2_day1,2022.2.4,Win32,60.21919788,,,,,,,,,,,,,,,,,,,,,,,,,,,,,,,,,,,,,,,,,,,-0.31926654,-0.111395937,1,0,0,..e..,..e..,0,34,34,25,1,brijk,images/br_brijk.png,images/cb_brijk.png
,,,,,,00015,2023-08-04_12h22.42.121,vbt_B2_day1,2022.2.4,Win32,60.21919788,,,,,,,,,,,,,,,,,,,,,,,,,,,,,,,,,,,,,,,,,,,0.14761761,-0.078047,1,0,0,.aa.,.aa.,0,35,35,2,1,jaar,images/br_jaar.png,images/cb_jaar.png
,,,,,,00015,2023-08-04_12h22.42.121,vbt_B2_day1,2022.2.4,Win32,60.21919788,,,,,,,,,,,,,,,,,,,,,,,,,,,,,,,,,,,,,,,,,,,0.14761761,-0.078047,1,0,0,loc.te.,loc.te.,0,36,36,34,1,lochten,images/br_lochten.png,images/cb_lochten.png
,,,,,,00015,2023-08-04_12h22.42.121,vbt_B2_day1,2022.2.4,Win32,60.21919788,,,,,,,,,,,,,,,,,,,,,,,,,,,,,,,,,,,,,,,,,,,0.14761761,-0.078047,1,0,0,p.o.t,p.o.t,0,37,37,27,1,prort,images/br_prort.png,images/cb_prort.png
,,,,,,00015,2023-08-04_12h22.42.121,vbt_B2_day1,2022.2.4,Win32,60.21919788,,,,,,,,,,,,,,,,,,,,,,,,,,,,,,,,,,,,,,,,,,,0.14761761,-0.078047,1,0,0,.oo.,.oo.,0,38,38,41,1,hoog,images/br_hoog.png,images/cb_hoog.png
,,,,,,00015,2023-08-04_12h22.42.121,vbt_B2_day1,2022.2.4,Win32,60.21919788,,,,,,,,,,,,,,,,,,,,,,,,,,,,,,,,,,,,,,,,,,,0.14761761,-0.078047,1,0,0,.e.e.,.e.e.,0,39,39,24,1,rezer,images/br_rezer.png,images/cb_rezer.png
,,,,,,00015,2023-08-04_12h22.42.121,vbt_B2_day1,2022.2.4,Win32,60.21919788,,,,,,,,,,,,,,,,,,,,,,,,,,,,,,,,,,,,,,,,,,,0.14761761,-0.078047,1,0,0,.pa..i.,.pa..i.,0,40,40,37,1,spanzing,images/br_spanzing.png,images/cb_spanzing.png
,,,,,,00015,2023-08-04_12h22.42.121,vbt_B2_day1,2022.2.4,Win32,60.21919788,,,,,,,,,,,,,,,,,,,,,,,,,,,,,,,,,,,,,,,,,,,0.14761761,-0.078047,1,0,0,me.i..,me.i..,0,41,41,11,1,mening,images/br_mening.png,images/cb_mening.png
,,,,,,00015,2023-08-04_12h22.42.121,vbt_B2_day1,2022.2.4,Win32,60.21919788,,,,,,,,,,,,,,,,,,,,,,,,,,,,,,,,,,,,,,,,,,,0.14761761,-0.078047,1,0,0,.ie.a.,.ie.a.,0,42,42,15,1,hiervan,images/br_hiervan.png,images/cb_hiervan.png
,,,,,,00015,2023-08-04_12h22.42.121,vbt_B2_day1,2022.2.4,Win32,60.21919788,,,,,,,,,,,,,,,,,,,,,,,,,,,,,,,,,,,,,,,,,,,0.14761761,-0.078047,1,0,0,.oo..e..,.oo..e..,0,43,43,58,1,voorkeur,images/br_voorkeur.png,images/cb_voorkeur.png
,,,,,,00015,2023-08-04_12h22.42.121,vbt_B2_day1,2022.2.4,Win32,60.21919788,,,,,,,,,,,,,,,,,,,,,,,,,,,,,,,,,,,,,,,,,,,0.14761761,-0.078047,1,0,0,.t.i.em,.t.i.em,0,44,44,35,1,stuikem,images/br_stuikem.png,images/cb_stuikem.png
,,,,,,00015,2023-08-04_12h22.42.121,vbt_B2_day1,2022.2.4,Win32,60.21919788,,,,,,,,,,,,,,,,,,,,,,,,,,,,,,,,,,,,,,,,,,,0.14761761,-0.078047,1,0,0,.lee.,.lee.,0,45,45,6,1,bleek,images/br_bleek.png,images/cb_bleek.png
,,,,,,00015,2023-08-04_12h22.42.121,vbt_B2_day1,2022.2.4,Win32,60.21919788,,,,,,,,,,,,,,,,,,,,,,,,,,,,,,,,,,,,,,,,,,,0.14761761,-0.078047,1,0,0,.ictie,.ictie,0,46,46,48,1,fictie,images/br_fictie.png,images/cb_fictie.png
,,,,,,00015,2023-08-04_12h22.42.121,vbt_B2_day1,2022.2.4,Win32,60.21919788,,,,,,,,,,,,,,,,,,,,,,,,,,,,,,,,,,,,,,,,,,,0.14761761,-0.078047,1,0,0,.aa.ee.,.aa.ee.,0,47,47,16,1,daarheen,images/br_daarheen.png,images/cb_daarheen.png
,,,,,,00015,2023-08-04_12h22.42.121,vbt_B2_day1,2022.2.4,Win32,60.21919788,,,,,,,,,,,,,,,,,,,,,,,,,,,,,,,,,,,,,,,,,,,0.14761761,-0.078047,1,0,0,loo..,loo..,0,48,48,47,1,loods,images/br_loods.png,images/cb_loods.png
,,,,,,00015,2023-08-04_12h22.42.121,vbt_B2_day1,2022.2.4,Win32,60.21919788,,,,,,,,,,,,,,,,,,,,,,,,,,,,,,,,,,,,,,,,,,,0.14761761,-0.078047,1,0,0,la.a,la.a,0,49,49,43,1,lava,images/br_lava.png,images/cb_lava.png
,,,,,,00015,2023-08-04_12h22.42.121,vbt_B2_day1,2022.2.4,Win32,60.21919788,,,,,,,,,,,,,,,,,,,,,,,,,,,,,,,,,,,,,,,,,,,0.14761761,-0.078047,1,0,0,....el,....el,0,50,50,9,1,dubbel,images/br_dubbel.png,images/cb_dubbel.png
,,,,,,00015,2023-08-04_12h22.42.121,vbt_B2_day1,2022.2.4,Win32,60.21919788,,,,,,,,,,,,,,,,,,,,,,,,,,,,,,,,,,,,,,,,,,,0.14761761,-0.078047,1,0,0,le.e.,le.e.,0,51,51,46,1,lezen,images/br_lezen.png,images/cb_lezen.png
,,,,,,00015,2023-08-04_12h22.42.121,vbt_B2_day1,2022.2.4,Win32,60.21919788,,,,,,,,,,,,,,,,,,,,,,,,,,,,,,,,,,,,,,,,,,,0.14761761,-0.078047,1,0,0,.e..ip,.e..ip,0,52,52,28,1,bebrip,images/br_bebrip.png,images/cb_bebrip.png
,,,,,,00015,2023-08-04_12h22.42.121,vbt_B2_day1,2022.2.4,Win32,60.21919788,,,,,,,,,,,,,,,,,,,,,,,,,,,,,,,,,,,,,,,,,,,0.14761761,-0.078047,1,0,0,.tame.,.tame.,0,53,53,31,1,stamen,images/br_stamen.png,images/cb_stamen.png
,,,,,,00015,2023-08-04_12h22.42.121,vbt_B2_day1,2022.2.4,Win32,60.21919788,,,,,,,,,,,,,,,,,,,,,,,,,,,,,,,,,,,,,,,,,,,0.14761761,-0.078047,1,0,0,.e..a....,.e..a....,0,54,54,36,1,vervaden,images/br_vervaden.png,images/cb_vervaden.png
,,,,,,00015,2023-08-04_12h22.42.121,vbt_B2_day1,2022.2.4,Win32,60.21919788,,,,,,,,,,,,,,,,,,,,,,,,,,,,,,,,,,,,,,,,,,,0.14761761,-0.078047,1,0,0,..e.,..e.,0,55,55,21,1,dred,images/br_dred.png,images/cb_dred.png
,,,,,,00015,2023-08-04_12h22.42.121,vbt_B2_day1,2022.2.4,Win32,60.21919788,,,,,,,,,,,,,,,,,,,,,,,,,,,,,,,,,,,,,,,,,,,0.14761761,-0.078047,1,0,0,ma.e.,ma.e.,0,56,56,5,1,maken,images/br_maken.png,images/cb_maken.png
,,,,,,00015,2023-08-04_12h22.42.121,vbt_B2_day1,2022.2.4,Win32,60.21919788,,,,,,,,,,,,,,,,,,,,,,,,,,,,,,,,,,,,,,,,,,,0.14761761,-0.078047,1,0,0,op.atte.,op.atte.,0,57,57,59,1,opvatten,images/br_opvatten.png,images/cb_opvatten.png
,,,,,,00015,2023-08-04_12h22.42.121,vbt_B2_day1,2022.2.4,Win32,60.21919788,,,,,,,,,,,,,,,,,,,,,,,,,,,,,,,,,,,,,,,,,,,0.14761761,-0.078047,1,0,0,ta..,ta..,0,58,58,20,1,tars,images/br_tars.png,images/cb_tars.png
,,,,,,00015,2023-08-04_12h22.42.121,vbt_B2_day1,2022.2.4,Win32,60.21919788,,,,,,,,,,,,,,,,,,,,,,,,,,,,,,,,,,,,,,,,,,,0.14761761,-0.078047,1,0,0,atte.tie,atte.tie,0,59,59,17,1,attentie,images/br_attentie.png,images/cb_attentie.png
,,,,,,00015,2023-08-04_12h22.42.121,vbt_B2_day1,2022.2.4,Win32,60.21919788,,,,,,,,,,,,,,,,,,,,,,,,,,,,,,,,,,,,,,,,,,,,,,,,,,,,,,,,,
