welcome_mouse.x,welcome_mouse.y,welcome_mouse.leftButton,welcome_mouse.midButton,welcome_mouse.rightButton,welcome_mouse.time,"ID",date,expName,psychopyVersion,OS,frameRate,mouse_2.x,mouse_2.y,mouse_2.leftButton,mouse_2.midButton,mouse_2.rightButton,mouse_2.time,mouse_3.x,mouse_3.y,mouse_3.leftButton,mouse_3.midButton,mouse_3.rightButton,mouse_3.time,train_mouse.x,train_mouse.y,train_mouse.leftButton,train_mouse.midButton,train_mouse.rightButton,train_mouse.time,braille_mouse.x,braille_mouse.y,braille_mouse.leftButton,braille_mouse.midButton,braille_mouse.rightButton,braille_mouse.time,trials.thisRepN,trials.thisTrialN,trials.thisN,trials.thisIndex,trials.ran,nlLet,brLet,cbLet,mouse.x,mouse.y,mouse.leftButton,mouse.midButton,mouse.rightButton,testInstr_mouse.x,testInstr_mouse.y,testInstr_mouse.leftButton,testInstr_mouse.midButton,testInstr_mouse.rightButton,test_mouse.x,test_mouse.y,test_mouse.leftButton,test_mouse.midButton,test_mouse.rightButton,test_response.text,testResp,test_loop.thisRepN,test_loop.thisTrialN,test_loop.thisN,test_loop.thisIndex,test_loop.ran,nlWrd,brWrd,cbWrd
0.577777863,-0.100000028,1,0,0,15.1372,00111,2023-12-06_17h13.54.934,vbt_B2_day1,2022.2.4,Win32,60.12144532,,,,,,,,,,,,,,,,,,,,,,,,,,,,,,,,,,,,,,,,,,,,,,,,,,,,,,,,,
,,,,,,00111,2023-12-06_17h13.54.934,vbt_B2_day1,2022.2.4,Win32,60.12144532,0.577777863,-0.100000028,1,0,0,12.803,,,,,,,,,,,,,,,,,,,,,,,,,,,,,,,,,,,,,,,,,,,,,,,,,,,
,,,,,,00111,2023-12-06_17h13.54.934,vbt_B2_day1,2022.2.4,Win32,60.12144532,,,,,,,0.577777863,-0.100000028,1,0,0,2.6913,,,,,,,,,,,,,,,,,,,,,,,,,,,,,,,,,,,,,,,,,,,,,
,,,,,,00111,2023-12-06_17h13.54.934,vbt_B2_day1,2022.2.4,Win32,60.12144532,,,,,,,,,,,,,0.577777863,-0.100000028,1,0,0,25.5431,,,,,,,,,,,,,,,,,,,,,,,,,,,,,,,,,,,,,,,
,,,,,,00111,2023-12-06_17h13.54.934,vbt_B2_day1,2022.2.4,Win32,60.12144532,,,,,,,,,,,,,,,,,,,0.577777863,-0.100000028,1,0,0,1.4999,0,0,0,13,1,n,images/br_n.png,images/cb_n.png,,,,,,,,,,,,,,,,,,,,,,,,,
,,,,,,00111,2023-12-06_17h13.54.934,vbt_B2_day1,2022.2.4,Win32,60.12144532,,,,,,,,,,,,,,,,,,,0.577777863,-0.100000028,1,0,0,5.915599999,0,1,1,24,1,y,images/br_y.png,images/cb_y.png,,,,,,,,,,,,,,,,,,,,,,,,,
,,,,,,00111,2023-12-06_17h13.54.934,vbt_B2_day1,2022.2.4,Win32,60.12144532,,,,,,,,,,,,,,,,,,,0.577777863,-0.100000028,1,0,0,3.5276,0,2,2,2,1,c,images/br_c.png,images/cb_c.png,,,,,,,,,,,,,,,,,,,,,,,,,
,,,,,,00111,2023-12-06_17h13.54.934,vbt_B2_day1,2022.2.4,Win32,60.12144532,,,,,,,,,,,,,,,,,,,0.577777863,-0.100000028,1,0,0,3.3115,0,3,3,25,1,z,images/br_z.png,images/cb_z.png,,,,,,,,,,,,,,,,,,,,,,,,,
,,,,,,00111,2023-12-06_17h13.54.934,vbt_B2_day1,2022.2.4,Win32,60.12144532,,,,,,,,,,,,,,,,,,,0.577777863,-0.100000028,1,0,0,2.4131,0,4,4,17,1,r,images/br_r.png,images/cb_r.png,,,,,,,,,,,,,,,,,,,,,,,,,
,,,,,,00111,2023-12-06_17h13.54.934,vbt_B2_day1,2022.2.4,Win32,60.12144532,,,,,,,,,,,,,,,,,,,0.577777863,-0.100000028,1,0,0,3.9105,0,5,5,18,1,s,images/br_s.png,images/cb_s.png,,,,,,,,,,,,,,,,,,,,,,,,,
,,,,,,00111,2023-12-06_17h13.54.934,vbt_B2_day1,2022.2.4,Win32,60.12144532,,,,,,,,,,,,,,,,,,,0.577777863,-0.100000028,1,0,0,2.1131,0,6,6,19,1,t,images/br_t.png,images/cb_t.png,,,,,,,,,,,,,,,,,,,,,,,,,
,,,,,,00111,2023-12-06_17h13.54.934,vbt_B2_day1,2022.2.4,Win32,60.12144532,,,,,,,,,,,,,,,,,,,0.577777863,-0.100000028,1,0,0,0.915,0,7,7,23,1,x,images/br_x.png,images/cb_x.png,,,,,,,,,,,,,,,,,,,,,,,,,
,,,,,,00111,2023-12-06_17h13.54.934,vbt_B2_day1,2022.2.4,Win32,60.12144532,,,,,,,,,,,,,,,,,,,0.577777863,-0.100000028,1,0,0,0.5153,0,8,8,21,1,v,images/br_v.png,images/cb_v.png,,,,,,,,,,,,,,,,,,,,,,,,,
,,,,,,00111,2023-12-06_17h13.54.934,vbt_B2_day1,2022.2.4,Win32,60.12144532,,,,,,,,,,,,,,,,,,,0.577777863,-0.100000028,1,0,0,0.238400001,0,9,9,15,1,p,images/br_p.png,images/cb_p.png,,,,,,,,,,,,,,,,,,,,,,,,,
,,,,,,00111,2023-12-06_17h13.54.934,vbt_B2_day1,2022.2.4,Win32,60.12144532,,,,,,,,,,,,,,,,,,,0.577777863,-0.100000028,1,0,0,4.3598,0,10,10,4,1,e,images/br_e.png,images/cb_e.png,,,,,,,,,,,,,,,,,,,,,,,,,
,,,,,,00111,2023-12-06_17h13.54.934,vbt_B2_day1,2022.2.4,Win32,60.12144532,,,,,,,,,,,,,,,,,,,0.577777863,-0.100000028,1,0,0,1.6147,0,11,11,7,1,h,images/br_h.png,images/cb_h.png,,,,,,,,,,,,,,,,,,,,,,,,,
,,,,,,00111,2023-12-06_17h13.54.934,vbt_B2_day1,2022.2.4,Win32,60.12144532,,,,,,,,,,,,,,,,,,,0.577777863,-0.100000028,1,0,0,0.7727,0,12,12,5,1,f,images/br_f.png,images/cb_f.png,,,,,,,,,,,,,,,,,,,,,,,,,
,,,,,,00111,2023-12-06_17h13.54.934,vbt_B2_day1,2022.2.4,Win32,60.12144532,,,,,,,,,,,,,,,,,,,0.577777863,-0.100000028,1,0,0,3.2686,0,13,13,9,1,j,images/br_j.png,images/cb_j.png,,,,,,,,,,,,,,,,,,,,,,,,,
,,,,,,00111,2023-12-06_17h13.54.934,vbt_B2_day1,2022.2.4,Win32,60.12144532,,,,,,,,,,,,,,,,,,,0.577777863,-0.100000028,1,0,0,8.353,0,14,14,20,1,u,images/br_u.png,images/cb_u.png,,,,,,,,,,,,,,,,,,,,,,,,,
,,,,,,00111,2023-12-06_17h13.54.934,vbt_B2_day1,2022.2.4,Win32,60.12144532,,,,,,,,,,,,,,,,,,,0.577777863,-0.100000028,1,0,0,0.7155,0,15,15,14,1,o,images/br_o.png,images/cb_o.png,,,,,,,,,,,,,,,,,,,,,,,,,
,,,,,,00111,2023-12-06_17h13.54.934,vbt_B2_day1,2022.2.4,Win32,60.12144532,,,,,,,,,,,,,,,,,,,0.577777863,-0.100000028,1,0,0,4.2757,0,16,16,6,1,g,images/br_g.png,images/cb_g.png,,,,,,,,,,,,,,,,,,,,,,,,,
,,,,,,00111,2023-12-06_17h13.54.934,vbt_B2_day1,2022.2.4,Win32,60.12144532,,,,,,,,,,,,,,,,,,,0.577777863,-0.100000028,1,0,0,2.2844,0,17,17,16,1,q,images/br_q.png,images/cb_q.png,,,,,,,,,,,,,,,,,,,,,,,,,
,,,,,,00111,2023-12-06_17h13.54.934,vbt_B2_day1,2022.2.4,Win32,60.12144532,,,,,,,,,,,,,,,,,,,0.577777863,-0.100000028,1,0,0,0.465799999,0,18,18,11,1,l,images/br_l.png,images/cb_l.png,,,,,,,,,,,,,,,,,,,,,,,,,
,,,,,,00111,2023-12-06_17h13.54.934,vbt_B2_day1,2022.2.4,Win32,60.12144532,,,,,,,,,,,,,,,,,,,0.577777863,-0.100000028,1,0,0,2.8813,0,19,19,0,1,a,images/br_a.png,images/cb_a.png,,,,,,,,,,,,,,,,,,,,,,,,,
,,,,,,00111,2023-12-06_17h13.54.934,vbt_B2_day1,2022.2.4,Win32,60.12144532,,,,,,,,,,,,,,,,,,,0.577777863,-0.100000028,1,0,0,2.762,0,20,20,22,1,w,images/br_w.png,images/cb_w.png,,,,,,,,,,,,,,,,,,,,,,,,,
,,,,,,00111,2023-12-06_17h13.54.934,vbt_B2_day1,2022.2.4,Win32,60.12144532,,,,,,,,,,,,,,,,,,,0.577777863,-0.100000028,1,0,0,7.0889,0,21,21,3,1,d,images/br_d.png,images/cb_d.png,,,,,,,,,,,,,,,,,,,,,,,,,
,,,,,,00111,2023-12-06_17h13.54.934,vbt_B2_day1,2022.2.4,Win32,60.12144532,,,,,,,,,,,,,,,,,,,0.577777863,-0.100000028,1,0,0,1.7975,0,22,22,12,1,m,images/br_m.png,images/cb_m.png,,,,,,,,,,,,,,,,,,,,,,,,,
,,,,,,00111,2023-12-06_17h13.54.934,vbt_B2_day1,2022.2.4,Win32,60.12144532,,,,,,,,,,,,,,,,,,,0.577777863,-0.100000028,1,0,0,3.837099999,0,23,23,8,1,i,images/br_i.png,images/cb_i.png,,,,,,,,,,,,,,,,,,,,,,,,,
,,,,,,00111,2023-12-06_17h13.54.934,vbt_B2_day1,2022.2.4,Win32,60.12144532,,,,,,,,,,,,,,,,,,,0.577777863,-0.100000028,1,0,0,2.180099999,0,24,24,1,1,b,images/br_b.png,images/cb_b.png,,,,,,,,,,,,,,,,,,,,,,,,,
,,,,,,00111,2023-12-06_17h13.54.934,vbt_B2_day1,2022.2.4,Win32,60.12144532,,,,,,,,,,,,,,,,,,,0.577777863,-0.100000028,1,0,0,1.4807,0,25,25,10,1,k,images/br_k.png,images/cb_k.png,,,,,,,,,,,,,,,,,,,,,,,,,
,,,,,,00111,2023-12-06_17h13.54.934,vbt_B2_day1,2022.2.4,Win32,60.12144532,,,,,,,,,,,,,,,,,,,0.577777863,-0.100000028,1,0,0,6.8235,1,0,26,15,1,p,images/br_p.png,images/cb_p.png,,,,,,,,,,,,,,,,,,,,,,,,,
,,,,,,00111,2023-12-06_17h13.54.934,vbt_B2_day1,2022.2.4,Win32,60.12144532,,,,,,,,,,,,,,,,,,,0.577777863,-0.100000028,1,0,0,4.858599999,1,1,27,13,1,n,images/br_n.png,images/cb_n.png,,,,,,,,,,,,,,,,,,,,,,,,,
,,,,,,00111,2023-12-06_17h13.54.934,vbt_B2_day1,2022.2.4,Win32,60.12144532,,,,,,,,,,,,,,,,,,,0.577777863,-0.100000028,1,0,0,2.5961,1,2,28,17,1,r,images/br_r.png,images/cb_r.png,,,,,,,,,,,,,,,,,,,,,,,,,
,,,,,,00111,2023-12-06_17h13.54.934,vbt_B2_day1,2022.2.4,Win32,60.12144532,,,,,,,,,,,,,,,,,,,0.515740712,-0.139814801,1,0,0,1.331400001,1,3,29,19,1,t,images/br_t.png,images/cb_t.png,,,,,,,,,,,,,,,,,,,,,,,,,
,,,,,,00111,2023-12-06_17h13.54.934,vbt_B2_day1,2022.2.4,Win32,60.12144532,,,,,,,,,,,,,,,,,,,0.515740712,-0.139814801,1,0,0,4.506,1,4,30,2,1,c,images/br_c.png,images/cb_c.png,,,,,,,,,,,,,,,,,,,,,,,,,
,,,,,,00111,2023-12-06_17h13.54.934,vbt_B2_day1,2022.2.4,Win32,60.12144532,,,,,,,,,,,,,,,,,,,0.515740712,-0.139814801,1,0,0,2.7117,1,5,31,3,1,d,images/br_d.png,images/cb_d.png,,,,,,,,,,,,,,,,,,,,,,,,,
,,,,,,00111,2023-12-06_17h13.54.934,vbt_B2_day1,2022.2.4,Win32,60.12144532,,,,,,,,,,,,,,,,,,,0.515740712,-0.139814801,1,0,0,3.0455,1,6,32,8,1,i,images/br_i.png,images/cb_i.png,,,,,,,,,,,,,,,,,,,,,,,,,
,,,,,,00111,2023-12-06_17h13.54.934,vbt_B2_day1,2022.2.4,Win32,60.12144532,,,,,,,,,,,,,,,,,,,0.515740712,-0.139814801,1,0,0,0.6164,1,7,33,16,1,q,images/br_q.png,images/cb_q.png,,,,,,,,,,,,,,,,,,,,,,,,,
,,,,,,00111,2023-12-06_17h13.54.934,vbt_B2_day1,2022.2.4,Win32,60.12144532,,,,,,,,,,,,,,,,,,,0.515740712,-0.139814801,1,0,0,2.3918,1,8,34,0,1,a,images/br_a.png,images/cb_a.png,,,,,,,,,,,,,,,,,,,,,,,,,
,,,,,,00111,2023-12-06_17h13.54.934,vbt_B2_day1,2022.2.4,Win32,60.12144532,,,,,,,,,,,,,,,,,,,0.515740712,-0.139814801,1,0,0,1.3317,1,9,35,23,1,x,images/br_x.png,images/cb_x.png,,,,,,,,,,,,,,,,,,,,,,,,,
,,,,,,00111,2023-12-06_17h13.54.934,vbt_B2_day1,2022.2.4,Win32,60.12144532,,,,,,,,,,,,,,,,,,,0.515740712,-0.139814801,1,0,0,4.987900001,1,10,36,4,1,e,images/br_e.png,images/cb_e.png,,,,,,,,,,,,,,,,,,,,,,,,,
,,,,,,00111,2023-12-06_17h13.54.934,vbt_B2_day1,2022.2.4,Win32,60.12144532,,,,,,,,,,,,,,,,,,,0.515740712,-0.139814801,1,0,0,3.5373,1,11,37,12,1,m,images/br_m.png,images/cb_m.png,,,,,,,,,,,,,,,,,,,,,,,,,
,,,,,,00111,2023-12-06_17h13.54.934,vbt_B2_day1,2022.2.4,Win32,60.12144532,,,,,,,,,,,,,,,,,,,0.515740712,-0.139814801,1,0,0,0.3334,1,12,38,9,1,j,images/br_j.png,images/cb_j.png,,,,,,,,,,,,,,,,,,,,,,,,,
,,,,,,00111,2023-12-06_17h13.54.934,vbt_B2_day1,2022.2.4,Win32,60.12144532,,,,,,,,,,,,,,,,,,,0.386111083,-0.204629616,1,0,0,0.9483,1,13,39,11,1,l,images/br_l.png,images/cb_l.png,,,,,,,,,,,,,,,,,,,,,,,,,
,,,,,,00111,2023-12-06_17h13.54.934,vbt_B2_day1,2022.2.4,Win32,60.12144532,,,,,,,,,,,,,,,,,,,0.386111083,-0.204629616,1,0,0,1.980099999,1,14,40,10,1,k,images/br_k.png,images/cb_k.png,,,,,,,,,,,,,,,,,,,,,,,,,
,,,,,,00111,2023-12-06_17h13.54.934,vbt_B2_day1,2022.2.4,Win32,60.12144532,,,,,,,,,,,,,,,,,,,0.362037094,-0.258333347,1,0,0,1.6815,1,15,41,22,1,w,images/br_w.png,images/cb_w.png,,,,,,,,,,,,,,,,,,,,,,,,,
,,,,,,00111,2023-12-06_17h13.54.934,vbt_B2_day1,2022.2.4,Win32,60.12144532,,,,,,,,,,,,,,,,,,,0.362037094,-0.258333347,1,0,0,4.992,1,16,42,7,1,h,images/br_h.png,images/cb_h.png,,,,,,,,,,,,,,,,,,,,,,,,,
,,,,,,00111,2023-12-06_17h13.54.934,vbt_B2_day1,2022.2.4,Win32,60.12144532,,,,,,,,,,,,,,,,,,,0.362037094,-0.258333347,1,0,0,2.6623,1,17,43,1,1,b,images/br_b.png,images/cb_b.png,,,,,,,,,,,,,,,,,,,,,,,,,
,,,,,,00111,2023-12-06_17h13.54.934,vbt_B2_day1,2022.2.4,Win32,60.12144532,,,,,,,,,,,,,,,,,,,0.362037094,-0.258333347,1,0,0,0.2332,1,18,44,18,1,s,images/br_s.png,images/cb_s.png,,,,,,,,,,,,,,,,,,,,,,,,,
,,,,,,00111,2023-12-06_17h13.54.934,vbt_B2_day1,2022.2.4,Win32,60.12144532,,,,,,,,,,,,,,,,,,,0.362037094,-0.258333347,1,0,0,3.547700001,1,19,45,25,1,z,images/br_z.png,images/cb_z.png,,,,,,,,,,,,,,,,,,,,,,,,,
,,,,,,00111,2023-12-06_17h13.54.934,vbt_B2_day1,2022.2.4,Win32,60.12144532,,,,,,,,,,,,,,,,,,,0.362037094,-0.258333347,1,0,0,1.0153,1,20,46,14,1,o,images/br_o.png,images/cb_o.png,,,,,,,,,,,,,,,,,,,,,,,,,
,,,,,,00111,2023-12-06_17h13.54.934,vbt_B2_day1,2022.2.4,Win32,60.12144532,,,,,,,,,,,,,,,,,,,0.362037094,-0.258333347,1,0,0,0.2497,1,21,47,6,1,g,images/br_g.png,images/cb_g.png,,,,,,,,,,,,,,,,,,,,,,,,,
,,,,,,00111,2023-12-06_17h13.54.934,vbt_B2_day1,2022.2.4,Win32,60.12144532,,,,,,,,,,,,,,,,,,,0.362037094,-0.258333347,1,0,0,22.5564,1,22,48,24,1,y,images/br_y.png,images/cb_y.png,,,,,,,,,,,,,,,,,,,,,,,,,
,,,,,,00111,2023-12-06_17h13.54.934,vbt_B2_day1,2022.2.4,Win32,60.12144532,,,,,,,,,,,,,,,,,,,0.362037094,-0.258333347,1,0,0,7.355,1,23,49,5,1,f,images/br_f.png,images/cb_f.png,,,,,,,,,,,,,,,,,,,,,,,,,
,,,,,,00111,2023-12-06_17h13.54.934,vbt_B2_day1,2022.2.4,Win32,60.12144532,,,,,,,,,,,,,,,,,,,0.362037094,-0.258333347,1,0,0,4.6095,1,24,50,20,1,u,images/br_u.png,images/cb_u.png,,,,,,,,,,,,,,,,,,,,,,,,,
,,,,,,00111,2023-12-06_17h13.54.934,vbt_B2_day1,2022.2.4,Win32,60.12144532,,,,,,,,,,,,,,,,,,,0.362037094,-0.258333347,1,0,0,2.979900001,1,25,51,21,1,v,images/br_v.png,images/cb_v.png,,,,,,,,,,,,,,,,,,,,,,,,,
,,,,,,00111,2023-12-06_17h13.54.934,vbt_B2_day1,2022.2.4,Win32,60.12144532,,,,,,,,,,,,,,,,,,,0.362037094,-0.258333347,1,0,0,0.339299999,2,0,52,19,1,t,images/br_t.png,images/cb_t.png,,,,,,,,,,,,,,,,,,,,,,,,,
,,,,,,00111,2023-12-06_17h13.54.934,vbt_B2_day1,2022.2.4,Win32,60.12144532,,,,,,,,,,,,,,,,,,,0.243518547,-0.22592594,1,0,0,1.5693,2,1,53,6,1,g,images/br_g.png,images/cb_g.png,,,,,,,,,,,,,,,,,,,,,,,,,
,,,,,,00111,2023-12-06_17h13.54.934,vbt_B2_day1,2022.2.4,Win32,60.12144532,,,,,,,,,,,,,,,,,,,0.243518547,-0.22592594,1,0,0,0.5328,2,2,54,0,1,a,images/br_a.png,images/cb_a.png,,,,,,,,,,,,,,,,,,,,,,,,,
,,,,,,00111,2023-12-06_17h13.54.934,vbt_B2_day1,2022.2.4,Win32,60.12144532,,,,,,,,,,,,,,,,,,,0.243518547,-0.22592594,1,0,0,1.215099999,2,3,55,14,1,o,images/br_o.png,images/cb_o.png,,,,,,,,,,,,,,,,,,,,,,,,,
,,,,,,00111,2023-12-06_17h13.54.934,vbt_B2_day1,2022.2.4,Win32,60.12144532,,,,,,,,,,,,,,,,,,,0.243518547,-0.22592594,1,0,0,3.434099999,2,4,56,18,1,s,images/br_s.png,images/cb_s.png,,,,,,,,,,,,,,,,,,,,,,,,,
,,,,,,00111,2023-12-06_17h13.54.934,vbt_B2_day1,2022.2.4,Win32,60.12144532,,,,,,,,,,,,,,,,,,,0.243518547,-0.22592594,1,0,0,1.371599999,2,5,57,13,1,n,images/br_n.png,images/cb_n.png,,,,,,,,,,,,,,,,,,,,,,,,,
,,,,,,00111,2023-12-06_17h13.54.934,vbt_B2_day1,2022.2.4,Win32,60.12144532,,,,,,,,,,,,,,,,,,,0.243518547,-0.22592594,1,0,0,0.2585,2,6,58,17,1,r,images/br_r.png,images/cb_r.png,,,,,,,,,,,,,,,,,,,,,,,,,
,,,,,,00111,2023-12-06_17h13.54.934,vbt_B2_day1,2022.2.4,Win32,60.12144532,,,,,,,,,,,,,,,,,,,0.243518547,-0.22592594,1,0,0,2.000400001,2,7,59,23,1,x,images/br_x.png,images/cb_x.png,,,,,,,,,,,,,,,,,,,,,,,,,
,,,,,,00111,2023-12-06_17h13.54.934,vbt_B2_day1,2022.2.4,Win32,60.12144532,,,,,,,,,,,,,,,,,,,0.237963005,-0.136111153,1,0,0,1.238400001,2,8,60,11,1,l,images/br_l.png,images/cb_l.png,,,,,,,,,,,,,,,,,,,,,,,,,
,,,,,,00111,2023-12-06_17h13.54.934,vbt_B2_day1,2022.2.4,Win32,60.12144532,,,,,,,,,,,,,,,,,,,0.237963005,-0.136111153,1,0,0,1.6483,2,9,61,4,1,e,images/br_e.png,images/cb_e.png,,,,,,,,,,,,,,,,,,,,,,,,,
,,,,,,00111,2023-12-06_17h13.54.934,vbt_B2_day1,2022.2.4,Win32,60.12144532,,,,,,,,,,,,,,,,,,,0.237963005,-0.136111153,1,0,0,1.0484,2,10,62,16,1,q,images/br_q.png,images/cb_q.png,,,,,,,,,,,,,,,,,,,,,,,,,
,,,,,,00111,2023-12-06_17h13.54.934,vbt_B2_day1,2022.2.4,Win32,60.12144532,,,,,,,,,,,,,,,,,,,0.237963005,-0.136111153,1,0,0,1.7475,2,11,63,9,1,j,images/br_j.png,images/cb_j.png,,,,,,,,,,,,,,,,,,,,,,,,,
,,,,,,00111,2023-12-06_17h13.54.934,vbt_B2_day1,2022.2.4,Win32,60.12144532,,,,,,,,,,,,,,,,,,,0.237963005,-0.136111153,1,0,0,2.5628,2,12,64,5,1,f,images/br_f.png,images/cb_f.png,,,,,,,,,,,,,,,,,,,,,,,,,
,,,,,,00111,2023-12-06_17h13.54.934,vbt_B2_day1,2022.2.4,Win32,60.12144532,,,,,,,,,,,,,,,,,,,0.237963005,-0.136111153,1,0,0,1.6147,2,13,65,8,1,i,images/br_i.png,images/cb_i.png,,,,,,,,,,,,,,,,,,,,,,,,,
,,,,,,00111,2023-12-06_17h13.54.934,vbt_B2_day1,2022.2.4,Win32,60.12144532,,,,,,,,,,,,,,,,,,,0.237963005,-0.136111153,1,0,0,0.2832,2,14,66,10,1,k,images/br_k.png,images/cb_k.png,,,,,,,,,,,,,,,,,,,,,,,,,
,,,,,,00111,2023-12-06_17h13.54.934,vbt_B2_day1,2022.2.4,Win32,60.12144532,,,,,,,,,,,,,,,,,,,0.237963005,-0.136111153,1,0,0,1.4646,2,15,67,20,1,u,images/br_u.png,images/cb_u.png,,,,,,,,,,,,,,,,,,,,,,,,,
,,,,,,00111,2023-12-06_17h13.54.934,vbt_B2_day1,2022.2.4,Win32,60.12144532,,,,,,,,,,,,,,,,,,,0.237963005,-0.136111153,1,0,0,2.1632,2,16,68,24,1,y,images/br_y.png,images/cb_y.png,,,,,,,,,,,,,,,,,,,,,,,,,
,,,,,,00111,2023-12-06_17h13.54.934,vbt_B2_day1,2022.2.4,Win32,60.12144532,,,,,,,,,,,,,,,,,,,0.237963005,-0.136111153,1,0,0,4.1766,2,17,69,7,1,h,images/br_h.png,images/cb_h.png,,,,,,,,,,,,,,,,,,,,,,,,,
,,,,,,00111,2023-12-06_17h13.54.934,vbt_B2_day1,2022.2.4,Win32,60.12144532,,,,,,,,,,,,,,,,,,,0.237963005,-0.136111153,1,0,0,0.4327,2,18,70,1,1,b,images/br_b.png,images/cb_b.png,,,,,,,,,,,,,,,,,,,,,,,,,
,,,,,,00111,2023-12-06_17h13.54.934,vbt_B2_day1,2022.2.4,Win32,60.12144532,,,,,,,,,,,,,,,,,,,0.237963005,-0.136111153,1,0,0,0.232900001,2,19,71,3,1,d,images/br_d.png,images/cb_d.png,,,,,,,,,,,,,,,,,,,,,,,,,
,,,,,,00111,2023-12-06_17h13.54.934,vbt_B2_day1,2022.2.4,Win32,60.12144532,,,,,,,,,,,,,,,,,,,0.237963005,-0.136111153,1,0,0,0.2664,2,20,72,21,1,v,images/br_v.png,images/cb_v.png,,,,,,,,,,,,,,,,,,,,,,,,,
,,,,,,00111,2023-12-06_17h13.54.934,vbt_B2_day1,2022.2.4,Win32,60.12144532,,,,,,,,,,,,,,,,,,,0.237963005,-0.136111153,1,0,0,1.7477,2,21,73,12,1,m,images/br_m.png,images/cb_m.png,,,,,,,,,,,,,,,,,,,,,,,,,
,,,,,,00111,2023-12-06_17h13.54.934,vbt_B2_day1,2022.2.4,Win32,60.12144532,,,,,,,,,,,,,,,,,,,0.237963005,-0.136111153,1,0,0,2.6461,2,22,74,15,1,p,images/br_p.png,images/cb_p.png,,,,,,,,,,,,,,,,,,,,,,,,,
,,,,,,00111,2023-12-06_17h13.54.934,vbt_B2_day1,2022.2.4,Win32,60.12144532,,,,,,,,,,,,,,,,,,,0.214814857,-0.118518547,1,0,0,1.166,2,23,75,22,1,w,images/br_w.png,images/cb_w.png,,,,,,,,,,,,,,,,,,,,,,,,,
,,,,,,00111,2023-12-06_17h13.54.934,vbt_B2_day1,2022.2.4,Win32,60.12144532,,,,,,,,,,,,,,,,,,,0.214814857,-0.118518547,1,0,0,3.518900001,2,24,76,25,1,z,images/br_z.png,images/cb_z.png,,,,,,,,,,,,,,,,,,,,,,,,,
,,,,,,00111,2023-12-06_17h13.54.934,vbt_B2_day1,2022.2.4,Win32,60.12144532,,,,,,,,,,,,,,,,,,,0.214814857,-0.118518547,1,0,0,6.7561,2,25,77,2,1,c,images/br_c.png,images/cb_c.png,,,,,,,,,,,,,,,,,,,,,,,,,
,,,,,,00111,2023-12-06_17h13.54.934,vbt_B2_day1,2022.2.4,Win32,60.12144532,,,,,,,,,,,,,,,,,,,0.214814857,-0.118518547,1,0,0,0.4665,3,0,78,11,1,l,images/br_l.png,images/cb_l.png,,,,,,,,,,,,,,,,,,,,,,,,,
,,,,,,00111,2023-12-06_17h13.54.934,vbt_B2_day1,2022.2.4,Win32,60.12144532,,,,,,,,,,,,,,,,,,,0.214814857,-0.118518547,1,0,0,2.113599999,3,1,79,15,1,p,images/br_p.png,images/cb_p.png,,,,,,,,,,,,,,,,,,,,,,,,,
,,,,,,00111,2023-12-06_17h13.54.934,vbt_B2_day1,2022.2.4,Win32,60.12144532,,,,,,,,,,,,,,,,,,,0.214814857,-0.118518547,1,0,0,1.564,3,2,80,12,1,m,images/br_m.png,images/cb_m.png,,,,,,,,,,,,,,,,,,,,,,,,,
,,,,,,00111,2023-12-06_17h13.54.934,vbt_B2_day1,2022.2.4,Win32,60.12144532,,,,,,,,,,,,,,,,,,,0.214814857,-0.118518547,1,0,0,0.5328,3,3,81,25,1,z,images/br_z.png,images/cb_z.png,,,,,,,,,,,,,,,,,,,,,,,,,
,,,,,,00111,2023-12-06_17h13.54.934,vbt_B2_day1,2022.2.4,Win32,60.12144532,,,,,,,,,,,,,,,,,,,0.214814857,-0.118518547,1,0,0,0.3665,3,4,82,1,1,b,images/br_b.png,images/cb_b.png,,,,,,,,,,,,,,,,,,,,,,,,,
,,,,,,00111,2023-12-06_17h13.54.934,vbt_B2_day1,2022.2.4,Win32,60.12144532,,,,,,,,,,,,,,,,,,,0.214814857,-0.118518547,1,0,0,1.480599999,3,5,83,8,1,i,images/br_i.png,images/cb_i.png,,,,,,,,,,,,,,,,,,,,,,,,,
,,,,,,00111,2023-12-06_17h13.54.934,vbt_B2_day1,2022.2.4,Win32,60.12144532,,,,,,,,,,,,,,,,,,,0.233333376,-0.08888891,1,0,0,1.6309,3,6,84,0,1,a,images/br_a.png,images/cb_a.png,,,,,,,,,,,,,,,,,,,,,,,,,
,,,,,,00111,2023-12-06_17h13.54.934,vbt_B2_day1,2022.2.4,Win32,60.12144532,,,,,,,,,,,,,,,,,,,0.233333376,-0.08888891,1,0,0,0.617900001,3,7,85,16,1,q,images/br_q.png,images/cb_q.png,,,,,,,,,,,,,,,,,,,,,,,,,
,,,,,,00111,2023-12-06_17h13.54.934,vbt_B2_day1,2022.2.4,Win32,60.12144532,,,,,,,,,,,,,,,,,,,0.233333376,-0.08888891,1,0,0,0.382700001,3,8,86,13,1,n,images/br_n.png,images/cb_n.png,,,,,,,,,,,,,,,,,,,,,,,,,
,,,,,,00111,2023-12-06_17h13.54.934,vbt_B2_day1,2022.2.4,Win32,60.12144532,,,,,,,,,,,,,,,,,,,0.233333376,-0.08888891,1,0,0,3.911,3,9,87,18,1,s,images/br_s.png,images/cb_s.png,,,,,,,,,,,,,,,,,,,,,,,,,
,,,,,,00111,2023-12-06_17h13.54.934,vbt_B2_day1,2022.2.4,Win32,60.12144532,,,,,,,,,,,,,,,,,,,0.233333376,-0.08888891,1,0,0,0.815599999,3,10,88,6,1,g,images/br_g.png,images/cb_g.png,,,,,,,,,,,,,,,,,,,,,,,,,
,,,,,,00111,2023-12-06_17h13.54.934,vbt_B2_day1,2022.2.4,Win32,60.12144532,,,,,,,,,,,,,,,,,,,0.291666667,0.011111118,1,0,0,1.4647,3,11,89,4,1,e,images/br_e.png,images/cb_e.png,,,,,,,,,,,,,,,,,,,,,,,,,
,,,,,,00111,2023-12-06_17h13.54.934,vbt_B2_day1,2022.2.4,Win32,60.12144532,,,,,,,,,,,,,,,,,,,0.291666667,0.011111118,1,0,0,3.8139,3,12,90,7,1,h,images/br_h.png,images/cb_h.png,,,,,,,,,,,,,,,,,,,,,,,,,
,,,,,,00111,2023-12-06_17h13.54.934,vbt_B2_day1,2022.2.4,Win32,60.12144532,,,,,,,,,,,,,,,,,,,0.291666667,0.011111118,1,0,0,2.1979,3,13,91,24,1,y,images/br_y.png,images/cb_y.png,,,,,,,,,,,,,,,,,,,,,,,,,
,,,,,,00111,2023-12-06_17h13.54.934,vbt_B2_day1,2022.2.4,Win32,60.12144532,,,,,,,,,,,,,,,,,,,0.291666667,0.011111118,1,0,0,0.35,3,14,92,22,1,w,images/br_w.png,images/cb_w.png,,,,,,,,,,,,,,,,,,,,,,,,,
,,,,,,00111,2023-12-06_17h13.54.934,vbt_B2_day1,2022.2.4,Win32,60.12144532,,,,,,,,,,,,,,,,,,,0.291666667,0.011111118,1,0,0,0.578900001,3,15,93,2,1,c,images/br_c.png,images/cb_c.png,,,,,,,,,,,,,,,,,,,,,,,,,
,,,,,,00111,2023-12-06_17h13.54.934,vbt_B2_day1,2022.2.4,Win32,60.12144532,,,,,,,,,,,,,,,,,,,0.250925912,-0.029629637,1,0,0,6.0745,3,16,94,20,1,u,images/br_u.png,images/cb_u.png,,,,,,,,,,,,,,,,,,,,,,,,,
,,,,,,00111,2023-12-06_17h13.54.934,vbt_B2_day1,2022.2.4,Win32,60.12144532,,,,,,,,,,,,,,,,,,,0.250925912,-0.029629637,1,0,0,0.832900001,3,17,95,19,1,t,images/br_t.png,images/cb_t.png,,,,,,,,,,,,,,,,,,,,,,,,,
,,,,,,00111,2023-12-06_17h13.54.934,vbt_B2_day1,2022.2.4,Win32,60.12144532,,,,,,,,,,,,,,,,,,,0.250925912,-0.029629637,1,0,0,1.8501,3,18,96,10,1,k,images/br_k.png,images/cb_k.png,,,,,,,,,,,,,,,,,,,,,,,,,
,,,,,,00111,2023-12-06_17h13.54.934,vbt_B2_day1,2022.2.4,Win32,60.12144532,,,,,,,,,,,,,,,,,,,0.250925912,-0.029629637,1,0,0,1.760799999,3,19,97,9,1,j,images/br_j.png,images/cb_j.png,,,,,,,,,,,,,,,,,,,,,,,,,
,,,,,,00111,2023-12-06_17h13.54.934,vbt_B2_day1,2022.2.4,Win32,60.12144532,,,,,,,,,,,,,,,,,,,0.250925912,-0.029629637,1,0,0,0.815900001,3,20,98,5,1,f,images/br_f.png,images/cb_f.png,,,,,,,,,,,,,,,,,,,,,,,,,
,,,,,,00111,2023-12-06_17h13.54.934,vbt_B2_day1,2022.2.4,Win32,60.12144532,,,,,,,,,,,,,,,,,,,0.250925912,-0.029629637,1,0,0,0.8664,3,21,99,21,1,v,images/br_v.png,images/cb_v.png,,,,,,,,,,,,,,,,,,,,,,,,,
,,,,,,00111,2023-12-06_17h13.54.934,vbt_B2_day1,2022.2.4,Win32,60.12144532,,,,,,,,,,,,,,,,,,,0.250925912,-0.029629637,1,0,0,0.665900001,3,22,100,3,1,d,images/br_d.png,images/cb_d.png,,,,,,,,,,,,,,,,,,,,,,,,,
,,,,,,00111,2023-12-06_17h13.54.934,vbt_B2_day1,2022.2.4,Win32,60.12144532,,,,,,,,,,,,,,,,,,,0.250925912,-0.029629637,1,0,0,0.506799999,3,23,101,17,1,r,images/br_r.png,images/cb_r.png,,,,,,,,,,,,,,,,,,,,,,,,,
,,,,,,00111,2023-12-06_17h13.54.934,vbt_B2_day1,2022.2.4,Win32,60.12144532,,,,,,,,,,,,,,,,,,,0.250925912,-0.029629637,1,0,0,0.9009,3,24,102,14,1,o,images/br_o.png,images/cb_o.png,,,,,,,,,,,,,,,,,,,,,,,,,
,,,,,,00111,2023-12-06_17h13.54.934,vbt_B2_day1,2022.2.4,Win32,60.12144532,,,,,,,,,,,,,,,,,,,0.250925912,-0.029629637,1,0,0,0.217400001,3,25,103,23,1,x,images/br_x.png,images/cb_x.png,,,,,,,,,,,,,,,,,,,,,,,,,
,,,,,,00111,2023-12-06_17h13.54.934,vbt_B2_day1,2022.2.4,Win32,60.12144532,,,,,,,,,,,,,,,,,,,0.250925912,-0.029629637,1,0,0,0.2375,4,0,104,25,1,z,images/br_z.png,images/cb_z.png,,,,,,,,,,,,,,,,,,,,,,,,,
,,,,,,00111,2023-12-06_17h13.54.934,vbt_B2_day1,2022.2.4,Win32,60.12144532,,,,,,,,,,,,,,,,,,,0.250925912,-0.029629637,1,0,0,0.1498,4,1,105,23,1,x,images/br_x.png,images/cb_x.png,,,,,,,,,,,,,,,,,,,,,,,,,
,,,,,,00111,2023-12-06_17h13.54.934,vbt_B2_day1,2022.2.4,Win32,60.12144532,,,,,,,,,,,,,,,,,,,0.250925912,-0.029629637,1,0,0,7.428900001,4,2,106,12,1,m,images/br_m.png,images/cb_m.png,,,,,,,,,,,,,,,,,,,,,,,,,
,,,,,,00111,2023-12-06_17h13.54.934,vbt_B2_day1,2022.2.4,Win32,60.12144532,,,,,,,,,,,,,,,,,,,0.250925912,-0.029629637,1,0,0,1.0827,4,3,107,6,1,g,images/br_g.png,images/cb_g.png,,,,,,,,,,,,,,,,,,,,,,,,,
,,,,,,00111,2023-12-06_17h13.54.934,vbt_B2_day1,2022.2.4,Win32,60.12144532,,,,,,,,,,,,,,,,,,,0.250925912,-0.029629637,1,0,0,0.185200001,4,4,108,24,1,y,images/br_y.png,images/cb_y.png,,,,,,,,,,,,,,,,,,,,,,,,,
,,,,,,00111,2023-12-06_17h13.54.934,vbt_B2_day1,2022.2.4,Win32,60.12144532,,,,,,,,,,,,,,,,,,,0.250925912,-0.029629637,1,0,0,0.266400001,4,5,109,19,1,t,images/br_t.png,images/cb_t.png,,,,,,,,,,,,,,,,,,,,,,,,,
,,,,,,00111,2023-12-06_17h13.54.934,vbt_B2_day1,2022.2.4,Win32,60.12144532,,,,,,,,,,,,,,,,,,,0.250925912,-0.029629637,1,0,0,0.6489,4,6,110,16,1,q,images/br_q.png,images/cb_q.png,,,,,,,,,,,,,,,,,,,,,,,,,
,,,,,,00111,2023-12-06_17h13.54.934,vbt_B2_day1,2022.2.4,Win32,60.12144532,,,,,,,,,,,,,,,,,,,0.250925912,-0.029629637,1,0,0,3.7842,4,7,111,13,1,n,images/br_n.png,images/cb_n.png,,,,,,,,,,,,,,,,,,,,,,,,,
,,,,,,00111,2023-12-06_17h13.54.934,vbt_B2_day1,2022.2.4,Win32,60.12144532,,,,,,,,,,,,,,,,,,,0.250925912,-0.029629637,1,0,0,0.1663,4,8,112,21,1,v,images/br_v.png,images/cb_v.png,,,,,,,,,,,,,,,,,,,,,,,,,
,,,,,,00111,2023-12-06_17h13.54.934,vbt_B2_day1,2022.2.4,Win32,60.12144532,,,,,,,,,,,,,,,,,,,0.250925912,-0.029629637,1,0,0,0.4326,4,9,113,14,1,o,images/br_o.png,images/cb_o.png,,,,,,,,,,,,,,,,,,,,,,,,,
,,,,,,00111,2023-12-06_17h13.54.934,vbt_B2_day1,2022.2.4,Win32,60.12144532,,,,,,,,,,,,,,,,,,,0.250925912,-0.029629637,1,0,0,0.1527,4,10,114,4,1,e,images/br_e.png,images/cb_e.png,,,,,,,,,,,,,,,,,,,,,,,,,
,,,,,,00111,2023-12-06_17h13.54.934,vbt_B2_day1,2022.2.4,Win32,60.12144532,,,,,,,,,,,,,,,,,,,0.250925912,-0.029629637,1,0,0,0.265900001,4,11,115,10,1,k,images/br_k.png,images/cb_k.png,,,,,,,,,,,,,,,,,,,,,,,,,
,,,,,,00111,2023-12-06_17h13.54.934,vbt_B2_day1,2022.2.4,Win32,60.12144532,,,,,,,,,,,,,,,,,,,0.250925912,-0.029629637,1,0,0,4.8995,4,12,116,2,1,c,images/br_c.png,images/cb_c.png,,,,,,,,,,,,,,,,,,,,,,,,,
,,,,,,00111,2023-12-06_17h13.54.934,vbt_B2_day1,2022.2.4,Win32,60.12144532,,,,,,,,,,,,,,,,,,,0.250925912,-0.029629637,1,0,0,0.9315,4,13,117,5,1,f,images/br_f.png,images/cb_f.png,,,,,,,,,,,,,,,,,,,,,,,,,
,,,,,,00111,2023-12-06_17h13.54.934,vbt_B2_day1,2022.2.4,Win32,60.12144532,,,,,,,,,,,,,,,,,,,0.250925912,-0.029629637,1,0,0,0.250099999,4,14,118,17,1,r,images/br_r.png,images/cb_r.png,,,,,,,,,,,,,,,,,,,,,,,,,
,,,,,,00111,2023-12-06_17h13.54.934,vbt_B2_day1,2022.2.4,Win32,60.12144532,,,,,,,,,,,,,,,,,,,0.250925912,-0.029629637,1,0,0,1.199,4,15,119,8,1,i,images/br_i.png,images/cb_i.png,,,,,,,,,,,,,,,,,,,,,,,,,
,,,,,,00111,2023-12-06_17h13.54.934,vbt_B2_day1,2022.2.4,Win32,60.12144532,,,,,,,,,,,,,,,,,,,0.250925912,-0.029629637,1,0,0,0.752200001,4,16,120,9,1,j,images/br_j.png,images/cb_j.png,,,,,,,,,,,,,,,,,,,,,,,,,
,,,,,,00111,2023-12-06_17h13.54.934,vbt_B2_day1,2022.2.4,Win32,60.12144532,,,,,,,,,,,,,,,,,,,0.250925912,-0.029629637,1,0,0,2.871299999,4,17,121,15,1,p,images/br_p.png,images/cb_p.png,,,,,,,,,,,,,,,,,,,,,,,,,
,,,,,,00111,2023-12-06_17h13.54.934,vbt_B2_day1,2022.2.4,Win32,60.12144532,,,,,,,,,,,,,,,,,,,0.250925912,-0.029629637,1,0,0,0.7734,4,18,122,1,1,b,images/br_b.png,images/cb_b.png,,,,,,,,,,,,,,,,,,,,,,,,,
,,,,,,00111,2023-12-06_17h13.54.934,vbt_B2_day1,2022.2.4,Win32,60.12144532,,,,,,,,,,,,,,,,,,,0.250925912,-0.029629637,1,0,0,0.8614,4,19,123,7,1,h,images/br_h.png,images/cb_h.png,,,,,,,,,,,,,,,,,,,,,,,,,
,,,,,,00111,2023-12-06_17h13.54.934,vbt_B2_day1,2022.2.4,Win32,60.12144532,,,,,,,,,,,,,,,,,,,0.250925912,-0.029629637,1,0,0,0.7137,4,20,124,11,1,l,images/br_l.png,images/cb_l.png,,,,,,,,,,,,,,,,,,,,,,,,,
,,,,,,00111,2023-12-06_17h13.54.934,vbt_B2_day1,2022.2.4,Win32,60.12144532,,,,,,,,,,,,,,,,,,,0.250925912,-0.029629637,1,0,0,1.117,4,21,125,18,1,s,images/br_s.png,images/cb_s.png,,,,,,,,,,,,,,,,,,,,,,,,,
,,,,,,00111,2023-12-06_17h13.54.934,vbt_B2_day1,2022.2.4,Win32,60.12144532,,,,,,,,,,,,,,,,,,,0.250925912,-0.029629637,1,0,0,0.7338,4,22,126,22,1,w,images/br_w.png,images/cb_w.png,,,,,,,,,,,,,,,,,,,,,,,,,
,,,,,,00111,2023-12-06_17h13.54.934,vbt_B2_day1,2022.2.4,Win32,60.12144532,,,,,,,,,,,,,,,,,,,0.250925912,-0.029629637,1,0,0,1.7534,4,23,127,20,1,u,images/br_u.png,images/cb_u.png,,,,,,,,,,,,,,,,,,,,,,,,,
,,,,,,00111,2023-12-06_17h13.54.934,vbt_B2_day1,2022.2.4,Win32,60.12144532,,,,,,,,,,,,,,,,,,,0.250925912,-0.029629637,1,0,0,0.711599999,4,24,128,0,1,a,images/br_a.png,images/cb_a.png,,,,,,,,,,,,,,,,,,,,,,,,,
,,,,,,00111,2023-12-06_17h13.54.934,vbt_B2_day1,2022.2.4,Win32,60.12144532,,,,,,,,,,,,,,,,,,,0.250925912,-0.029629637,1,0,0,0.150400001,4,25,129,3,1,d,images/br_d.png,images/cb_d.png,,,,,,,,,,,,,,,,,,,,,,,,,
,,,,,,00111,2023-12-06_17h13.54.934,vbt_B2_day1,2022.2.4,Win32,60.12144532,,,,,,,,,,,,,,,,,,,0.250925912,-0.029629637,1,0,0,29.6996,5,0,130,15,1,p,images/br_p.png,images/cb_p.png,,,,,,,,,,,,,,,,,,,,,,,,,
,,,,,,00111,2023-12-06_17h13.54.934,vbt_B2_day1,2022.2.4,Win32,60.12144532,,,,,,,,,,,,,,,,,,,0.250925912,-0.029629637,1,0,0,0.883299999,5,1,131,3,1,d,images/br_d.png,images/cb_d.png,,,,,,,,,,,,,,,,,,,,,,,,,
,,,,,,00111,2023-12-06_17h13.54.934,vbt_B2_day1,2022.2.4,Win32,60.12144532,,,,,,,,,,,,,,,,,,,0.250925912,-0.029629637,1,0,0,1.449400001,5,2,132,4,1,e,images/br_e.png,images/cb_e.png,,,,,,,,,,,,,,,,,,,,,,,,,
,,,,,,00111,2023-12-06_17h13.54.934,vbt_B2_day1,2022.2.4,Win32,60.12144532,,,,,,,,,,,,,,,,,,,0.250925912,-0.029629637,1,0,0,0.083099999,5,3,133,25,1,z,images/br_z.png,images/cb_z.png,,,,,,,,,,,,,,,,,,,,,,,,,
,,,,,,00111,2023-12-06_17h13.54.934,vbt_B2_day1,2022.2.4,Win32,60.12144532,,,,,,,,,,,,,,,,,,,0.250925912,-0.029629637,1,0,0,0.6158,5,4,134,19,1,t,images/br_t.png,images/cb_t.png,,,,,,,,,,,,,,,,,,,,,,,,,
,,,,,,00111,2023-12-06_17h13.54.934,vbt_B2_day1,2022.2.4,Win32,60.12144532,,,,,,,,,,,,,,,,,,,0.250925912,-0.029629637,1,0,0,0.0334,5,5,135,10,1,k,images/br_k.png,images/cb_k.png,,,,,,,,,,,,,,,,,,,,,,,,,
,,,,,,00111,2023-12-06_17h13.54.934,vbt_B2_day1,2022.2.4,Win32,60.12144532,,,,,,,,,,,,,,,,,,,0.250925912,-0.029629637,1,0,0,0.5825,5,6,136,8,1,i,images/br_i.png,images/cb_i.png,,,,,,,,,,,,,,,,,,,,,,,,,
,,,,,,00111,2023-12-06_17h13.54.934,vbt_B2_day1,2022.2.4,Win32,60.12144532,,,,,,,,,,,,,,,,,,,0.250925912,-0.029629637,1,0,0,0.5184,5,7,137,20,1,u,images/br_u.png,images/cb_u.png,,,,,,,,,,,,,,,,,,,,,,,,,
,,,,,,00111,2023-12-06_17h13.54.934,vbt_B2_day1,2022.2.4,Win32,60.12144532,,,,,,,,,,,,,,,,,,,0.250925912,-0.029629637,1,0,0,10.9738,5,8,138,11,1,l,images/br_l.png,images/cb_l.png,,,,,,,,,,,,,,,,,,,,,,,,,
,,,,,,00111,2023-12-06_17h13.54.934,vbt_B2_day1,2022.2.4,Win32,60.12144532,,,,,,,,,,,,,,,,,,,0.250925912,-0.029629637,1,0,0,2.686799999,5,9,139,24,1,y,images/br_y.png,images/cb_y.png,,,,,,,,,,,,,,,,,,,,,,,,,
,,,,,,00111,2023-12-06_17h13.54.934,vbt_B2_day1,2022.2.4,Win32,60.12144532,,,,,,,,,,,,,,,,,,,0.250925912,-0.029629637,1,0,0,1.516599999,5,10,140,0,1,a,images/br_a.png,images/cb_a.png,,,,,,,,,,,,,,,,,,,,,,,,,
,,,,,,00111,2023-12-06_17h13.54.934,vbt_B2_day1,2022.2.4,Win32,60.12144532,,,,,,,,,,,,,,,,,,,0.250925912,-0.029629637,1,0,0,1.6144,5,11,141,2,1,c,images/br_c.png,images/cb_c.png,,,,,,,,,,,,,,,,,,,,,,,,,
,,,,,,00111,2023-12-06_17h13.54.934,vbt_B2_day1,2022.2.4,Win32,60.12144532,,,,,,,,,,,,,,,,,,,0.250925912,-0.029629637,1,0,0,2.7534,5,12,142,12,1,m,images/br_m.png,images/cb_m.png,,,,,,,,,,,,,,,,,,,,,,,,,
,,,,,,00111,2023-12-06_17h13.54.934,vbt_B2_day1,2022.2.4,Win32,60.12144532,,,,,,,,,,,,,,,,,,,0.250925912,-0.029629637,1,0,0,2.645700001,5,13,143,23,1,x,images/br_x.png,images/cb_x.png,,,,,,,,,,,,,,,,,,,,,,,,,
,,,,,,00111,2023-12-06_17h13.54.934,vbt_B2_day1,2022.2.4,Win32,60.12144532,,,,,,,,,,,,,,,,,,,0.250925912,-0.029629637,1,0,0,0.1162,5,14,144,7,1,h,images/br_h.png,images/cb_h.png,,,,,,,,,,,,,,,,,,,,,,,,,
,,,,,,00111,2023-12-06_17h13.54.934,vbt_B2_day1,2022.2.4,Win32,60.12144532,,,,,,,,,,,,,,,,,,,0.250925912,-0.029629637,1,0,0,0.7275,5,15,145,6,1,g,images/br_g.png,images/cb_g.png,,,,,,,,,,,,,,,,,,,,,,,,,
,,,,,,00111,2023-12-06_17h13.54.934,vbt_B2_day1,2022.2.4,Win32,60.12144532,,,,,,,,,,,,,,,,,,,0.250925912,-0.029629637,1,0,0,0.6992,5,16,146,5,1,f,images/br_f.png,images/cb_f.png,,,,,,,,,,,,,,,,,,,,,,,,,
,,,,,,00111,2023-12-06_17h13.54.934,vbt_B2_day1,2022.2.4,Win32,60.12144532,,,,,,,,,,,,,,,,,,,0.250925912,-0.029629637,1,0,0,1.6141,5,17,147,16,1,q,images/br_q.png,images/cb_q.png,,,,,,,,,,,,,,,,,,,,,,,,,
,,,,,,00111,2023-12-06_17h13.54.934,vbt_B2_day1,2022.2.4,Win32,60.12144532,,,,,,,,,,,,,,,,,,,0.250925912,-0.029629637,1,0,0,0.165,5,18,148,21,1,v,images/br_v.png,images/cb_v.png,,,,,,,,,,,,,,,,,,,,,,,,,
,,,,,,00111,2023-12-06_17h13.54.934,vbt_B2_day1,2022.2.4,Win32,60.12144532,,,,,,,,,,,,,,,,,,,0.250925912,-0.029629637,1,0,0,0.0163,5,19,149,18,1,s,images/br_s.png,images/cb_s.png,,,,,,,,,,,,,,,,,,,,,,,,,
,,,,,,00111,2023-12-06_17h13.54.934,vbt_B2_day1,2022.2.4,Win32,60.12144532,,,,,,,,,,,,,,,,,,,0.250925912,-0.029629637,1,0,0,0.3495,5,20,150,22,1,w,images/br_w.png,images/cb_w.png,,,,,,,,,,,,,,,,,,,,,,,,,
,,,,,,00111,2023-12-06_17h13.54.934,vbt_B2_day1,2022.2.4,Win32,60.12144532,,,,,,,,,,,,,,,,,,,0.250925912,-0.029629637,1,0,0,0.199099999,5,21,151,9,1,j,images/br_j.png,images/cb_j.png,,,,,,,,,,,,,,,,,,,,,,,,,
,,,,,,00111,2023-12-06_17h13.54.934,vbt_B2_day1,2022.2.4,Win32,60.12144532,,,,,,,,,,,,,,,,,,,0.250925912,-0.029629637,1,0,0,4.526599999,5,22,152,17,1,r,images/br_r.png,images/cb_r.png,,,,,,,,,,,,,,,,,,,,,,,,,
,,,,,,00111,2023-12-06_17h13.54.934,vbt_B2_day1,2022.2.4,Win32,60.12144532,,,,,,,,,,,,,,,,,,,0.250925912,-0.029629637,1,0,0,2.1879,5,23,153,14,1,o,images/br_o.png,images/cb_o.png,,,,,,,,,,,,,,,,,,,,,,,,,
,,,,,,00111,2023-12-06_17h13.54.934,vbt_B2_day1,2022.2.4,Win32,60.12144532,,,,,,,,,,,,,,,,,,,0.250925912,-0.029629637,1,0,0,0.400700001,5,24,154,1,1,b,images/br_b.png,images/cb_b.png,,,,,,,,,,,,,,,,,,,,,,,,,
,,,,,,00111,2023-12-06_17h13.54.934,vbt_B2_day1,2022.2.4,Win32,60.12144532,,,,,,,,,,,,,,,,,,,0.250925912,-0.029629637,1,0,0,0.052200001,5,25,155,13,1,n,images/br_n.png,images/cb_n.png,,,,,,,,,,,,,,,,,,,,,,,,,
,,,,,,00111,2023-12-06_17h13.54.934,vbt_B2_day1,2022.2.4,Win32,60.12144532,,,,,,,,,,,,,,,,,,,0.250925912,-0.029629637,1,0,0,0.116200001,6,0,156,14,1,o,images/br_o.png,images/cb_o.png,,,,,,,,,,,,,,,,,,,,,,,,,
,,,,,,00111,2023-12-06_17h13.54.934,vbt_B2_day1,2022.2.4,Win32,60.12144532,,,,,,,,,,,,,,,,,,,0.250925912,-0.029629637,1,0,0,11.6645,6,1,157,7,1,h,images/br_h.png,images/cb_h.png,,,,,,,,,,,,,,,,,,,,,,,,,
,,,,,,00111,2023-12-06_17h13.54.934,vbt_B2_day1,2022.2.4,Win32,60.12144532,,,,,,,,,,,,,,,,,,,0.250925912,-0.029629637,1,0,0,0.1497,6,2,158,12,1,m,images/br_m.png,images/cb_m.png,,,,,,,,,,,,,,,,,,,,,,,,,
,,,,,,00111,2023-12-06_17h13.54.934,vbt_B2_day1,2022.2.4,Win32,60.12144532,,,,,,,,,,,,,,,,,,,0.250925912,-0.029629637,1,0,0,0.106,6,3,159,24,1,y,images/br_y.png,images/cb_y.png,,,,,,,,,,,,,,,,,,,,,,,,,
,,,,,,00111,2023-12-06_17h13.54.934,vbt_B2_day1,2022.2.4,Win32,60.12144532,,,,,,,,,,,,,,,,,,,0.250925912,-0.029629637,1,0,0,0.389599999,6,4,160,19,1,t,images/br_t.png,images/cb_t.png,,,,,,,,,,,,,,,,,,,,,,,,,
,,,,,,00111,2023-12-06_17h13.54.934,vbt_B2_day1,2022.2.4,Win32,60.12144532,,,,,,,,,,,,,,,,,,,0.250925912,-0.029629637,1,0,0,0.1843,6,5,161,9,1,j,images/br_j.png,images/cb_j.png,,,,,,,,,,,,,,,,,,,,,,,,,
,,,,,,00111,2023-12-06_17h13.54.934,vbt_B2_day1,2022.2.4,Win32,60.12144532,,,,,,,,,,,,,,,,,,,0.250925912,-0.029629637,1,0,0,0.467099999,6,6,162,0,1,a,images/br_a.png,images/cb_a.png,,,,,,,,,,,,,,,,,,,,,,,,,
,,,,,,00111,2023-12-06_17h13.54.934,vbt_B2_day1,2022.2.4,Win32,60.12144532,,,,,,,,,,,,,,,,,,,0.250925912,-0.029629637,1,0,0,0.2997,6,7,163,13,1,n,images/br_n.png,images/cb_n.png,,,,,,,,,,,,,,,,,,,,,,,,,
,,,,,,00111,2023-12-06_17h13.54.934,vbt_B2_day1,2022.2.4,Win32,60.12144532,,,,,,,,,,,,,,,,,,,0.25,-0.030555548,1,0,0,0.6823,6,8,164,16,1,q,images/br_q.png,images/cb_q.png,,,,,,,,,,,,,,,,,,,,,,,,,
,,,,,,00111,2023-12-06_17h13.54.934,vbt_B2_day1,2022.2.4,Win32,60.12144532,,,,,,,,,,,,,,,,,,,0.25,-0.030555548,1,0,0,2.263099999,6,9,165,22,1,w,images/br_w.png,images/cb_w.png,,,,,,,,,,,,,,,,,,,,,,,,,
,,,,,,00111,2023-12-06_17h13.54.934,vbt_B2_day1,2022.2.4,Win32,60.12144532,,,,,,,,,,,,,,,,,,,0.25,-0.030555548,1,0,0,3.020400001,6,10,166,3,1,d,images/br_d.png,images/cb_d.png,,,,,,,,,,,,,,,,,,,,,,,,,
,,,,,,00111,2023-12-06_17h13.54.934,vbt_B2_day1,2022.2.4,Win32,60.12144532,,,,,,,,,,,,,,,,,,,0.25,-0.030555548,1,0,0,1.399099999,6,11,167,6,1,g,images/br_g.png,images/cb_g.png,,,,,,,,,,,,,,,,,,,,,,,,,
,,,,,,00111,2023-12-06_17h13.54.934,vbt_B2_day1,2022.2.4,Win32,60.12144532,,,,,,,,,,,,,,,,,,,0.25,-0.030555548,1,0,0,0.6992,6,12,168,11,1,l,images/br_l.png,images/cb_l.png,,,,,,,,,,,,,,,,,,,,,,,,,
,,,,,,00111,2023-12-06_17h13.54.934,vbt_B2_day1,2022.2.4,Win32,60.12144532,,,,,,,,,,,,,,,,,,,0.25,-0.030555548,1,0,0,0.3362,6,13,169,4,1,e,images/br_e.png,images/cb_e.png,,,,,,,,,,,,,,,,,,,,,,,,,
,,,,,,00111,2023-12-06_17h13.54.934,vbt_B2_day1,2022.2.4,Win32,60.12144532,,,,,,,,,,,,,,,,,,,0.25,-0.030555548,1,0,0,0.1827,6,14,170,10,1,k,images/br_k.png,images/cb_k.png,,,,,,,,,,,,,,,,,,,,,,,,,
,,,,,,00111,2023-12-06_17h13.54.934,vbt_B2_day1,2022.2.4,Win32,60.12144532,,,,,,,,,,,,,,,,,,,0.25,-0.030555548,1,0,0,0.1237,6,15,171,21,1,v,images/br_v.png,images/cb_v.png,,,,,,,,,,,,,,,,,,,,,,,,,
,,,,,,00111,2023-12-06_17h13.54.934,vbt_B2_day1,2022.2.4,Win32,60.12144532,,,,,,,,,,,,,,,,,,,0.25,-0.030555548,1,0,0,1.1357,6,16,172,8,1,i,images/br_i.png,images/cb_i.png,,,,,,,,,,,,,,,,,,,,,,,,,
,,,,,,00111,2023-12-06_17h13.54.934,vbt_B2_day1,2022.2.4,Win32,60.12144532,,,,,,,,,,,,,,,,,,,0.25,-0.030555548,1,0,0,0.3177,6,17,173,25,1,z,images/br_z.png,images/cb_z.png,,,,,,,,,,,,,,,,,,,,,,,,,
,,,,,,00111,2023-12-06_17h13.54.934,vbt_B2_day1,2022.2.4,Win32,60.12144532,,,,,,,,,,,,,,,,,,,0.25,-0.030555548,1,0,0,0.5165,6,18,174,1,1,b,images/br_b.png,images/cb_b.png,,,,,,,,,,,,,,,,,,,,,,,,,
,,,,,,00111,2023-12-06_17h13.54.934,vbt_B2_day1,2022.2.4,Win32,60.12144532,,,,,,,,,,,,,,,,,,,0.25,-0.030555548,1,0,0,3.270599999,6,19,175,15,1,p,images/br_p.png,images/cb_p.png,,,,,,,,,,,,,,,,,,,,,,,,,
,,,,,,00111,2023-12-06_17h13.54.934,vbt_B2_day1,2022.2.4,Win32,60.12144532,,,,,,,,,,,,,,,,,,,0.25,-0.030555548,1,0,0,0.1233,6,20,176,2,1,c,images/br_c.png,images/cb_c.png,,,,,,,,,,,,,,,,,,,,,,,,,
,,,,,,00111,2023-12-06_17h13.54.934,vbt_B2_day1,2022.2.4,Win32,60.12144532,,,,,,,,,,,,,,,,,,,0.25,-0.030555548,1,0,0,3.445,6,21,177,5,1,f,images/br_f.png,images/cb_f.png,,,,,,,,,,,,,,,,,,,,,,,,,
,,,,,,00111,2023-12-06_17h13.54.934,vbt_B2_day1,2022.2.4,Win32,60.12144532,,,,,,,,,,,,,,,,,,,0.25,-0.030555548,1,0,0,0.2344,6,22,178,18,1,s,images/br_s.png,images/cb_s.png,,,,,,,,,,,,,,,,,,,,,,,,,
,,,,,,00111,2023-12-06_17h13.54.934,vbt_B2_day1,2022.2.4,Win32,60.12144532,,,,,,,,,,,,,,,,,,,0.25,-0.030555548,1,0,0,0.6946,6,23,179,20,1,u,images/br_u.png,images/cb_u.png,,,,,,,,,,,,,,,,,,,,,,,,,
,,,,,,00111,2023-12-06_17h13.54.934,vbt_B2_day1,2022.2.4,Win32,60.12144532,,,,,,,,,,,,,,,,,,,0.25,-0.030555548,1,0,0,7.3387,6,24,180,17,1,r,images/br_r.png,images/cb_r.png,,,,,,,,,,,,,,,,,,,,,,,,,
,,,,,,00111,2023-12-06_17h13.54.934,vbt_B2_day1,2022.2.4,Win32,60.12144532,,,,,,,,,,,,,,,,,,,0.25,-0.030555548,1,0,0,0.3829,6,25,181,23,1,x,images/br_x.png,images/cb_x.png,,,,,,,,,,,,,,,,,,,,,,,,,
,,,,,,00111,2023-12-06_17h13.54.934,vbt_B2_day1,2022.2.4,Win32,60.12144532,,,,,,,,,,,,,,,,,,,,,,,,,,,,,,,,,0.082407422,-0.139814801,1,0,0,,,,,,,,,,,,,,,,,,,,
,,,,,,00111,2023-12-06_17h13.54.934,vbt_B2_day1,2022.2.4,Win32,60.12144532,,,,,,,,,,,,,,,,,,,,,,,,,,,,,,,,,,,,,,0.082407422,-0.139814801,1,0,0,,,,,,,,,,,,,,,
,,,,,,00111,2023-12-06_17h13.54.934,vbt_B2_day1,2022.2.4,Win32,60.12144532,,,,,,,,,,,,,,,,,,,,,,,,,,,,,,,,,,,,,,,,,,,0.025000042,-0.20185188,1,0,0,,,0,0,0,22,1,knoe,images/br_knoe.png,images/cb_knoe.png
,,,,,,00111,2023-12-06_17h13.54.934,vbt_B2_day1,2022.2.4,Win32,60.12144532,,,,,,,,,,,,,,,,,,,,,,,,,,,,,,,,,,,,,,,,,,,0.474074046,-0.025000007,1,0,0,atti....,atti....,0,1,1,17,1,attentie,images/br_attentie.png,images/cb_attentie.png
,,,,,,00111,2023-12-06_17h13.54.934,vbt_B2_day1,2022.2.4,Win32,60.12144532,,,,,,,,,,,,,,,,,,,,,,,,,,,,,,,,,,,,,,,,,,,0.5,-0.095370399,1,0,0,k.nea,k.nea,0,2,2,8,1,kanjer,images/br_kanjer.png,images/cb_kanjer.png
,,,,,,00111,2023-12-06_17h13.54.934,vbt_B2_day1,2022.2.4,Win32,60.12144532,,,,,,,,,,,,,,,,,,,,,,,,,,,,,,,,,,,,,,,,,,,0.5,-0.095370399,1,0,0,toeni...,toeni...,0,3,3,56,1,toezicht,images/br_toezicht.png,images/cb_toezicht.png
,,,,,,00111,2023-12-06_17h13.54.934,vbt_B2_day1,2022.2.4,Win32,60.12144532,,,,,,,,,,,,,,,,,,,,,,,,,,,,,,,,,,,,,,,,,,,0.608333305,-0.114814829,1,0,0,valop,valop,0,4,4,26,1,valop,images/br_valop.png,images/cb_valop.png
,,,,,,00111,2023-12-06_17h13.54.934,vbt_B2_day1,2022.2.4,Win32,60.12144532,,,,,,,,,,,,,,,,,,,,,,,,,,,,,,,,,,,,,,,,,,,0.608333305,-0.114814829,1,0,0,klauw,klauw,0,5,5,7,1,klauw,images/br_klauw.png,images/cb_klauw.png
,,,,,,00111,2023-12-06_17h13.54.934,vbt_B2_day1,2022.2.4,Win32,60.12144532,,,,,,,,,,,,,,,,,,,,,,,,,,,,,,,,,,,,,,,,,,,0.608333305,-0.114814829,1,0,0,wen.i,wen.i,0,6,6,44,1,wijze,images/br_wijze.png,images/cb_wijze.png
,,,,,,00111,2023-12-06_17h13.54.934,vbt_B2_day1,2022.2.4,Win32,60.12144532,,,,,,,,,,,,,,,,,,,,,,,,,,,,,,,,,,,,,,,,,,,0.608333305,-0.114814829,1,0,0,vinier,vinier,0,7,7,49,1,vizier,images/br_vizier.png,images/cb_vizier.png
,,,,,,00111,2023-12-06_17h13.54.934,vbt_B2_day1,2022.2.4,Win32,60.12144532,,,,,,,,,,,,,,,,,,,,,,,,,,,,,,,,,,,,,,,,,,,0.608333305,-0.114814829,1,0,0,loods,loods,0,8,8,47,1,loods,images/br_loods.png,images/cb_loods.png
,,,,,,00111,2023-12-06_17h13.54.934,vbt_B2_day1,2022.2.4,Win32,60.12144532,,,,,,,,,,,,,,,,,,,,,,,,,,,,,,,,,,,,,,,,,,,0.608333305,-0.114814829,1,0,0,daarh...,daarh...,0,9,9,16,1,daarheen,images/br_daarheen.png,images/cb_daarheen.png
,,,,,,00111,2023-12-06_17h13.54.934,vbt_B2_day1,2022.2.4,Win32,60.12144532,,,,,,,,,,,,,,,,,,,,,,,,,,,,,,,,,,,,,,,,,,,0.608333305,-0.114814829,1,0,0,blee.,blee.,0,10,10,6,1,bleek,images/br_bleek.png,images/cb_bleek.png
,,,,,,00111,2023-12-06_17h13.54.934,vbt_B2_day1,2022.2.4,Win32,60.12144532,,,,,,,,,,,,,,,,,,,,,,,,,,,,,,,,,,,,,,,,,,,0.558333362,-0.062037044,1,0,0,hoog,hoog,0,11,11,41,1,hoog,images/br_hoog.png,images/cb_hoog.png
,,,,,,00111,2023-12-06_17h13.54.934,vbt_B2_day1,2022.2.4,Win32,60.12144532,,,,,,,,,,,,,,,,,,,,,,,,,,,,,,,,,,,,,,,,,,,0.558333362,-0.062037044,1,0,0,opslaan,opslaan,0,12,12,53,1,opslaan,images/br_opslaan.png,images/cb_opslaan.png
,,,,,,00111,2023-12-06_17h13.54.934,vbt_B2_day1,2022.2.4,Win32,60.12144532,,,,,,,,,,,,,,,,,,,,,,,,,,,,,,,,,,,,,,,,,,,-0.045370384,-0.191666709,1,0,0,uniew,uniew,0,13,13,10,1,muziek,images/br_muziek.png,images/cb_muziek.png
,,,,,,00111,2023-12-06_17h13.54.934,vbt_B2_day1,2022.2.4,Win32,60.12144532,,,,,,,,,,,,,,,,,,,,,,,,,,,,,,,,,,,,,,,,,,,0.382407436,0.063888868,1,0,0,vorke...,vorke...,0,14,14,58,1,voorkeur,images/br_voorkeur.png,images/cb_voorkeur.png
,,,,,,00111,2023-12-06_17h13.54.934,vbt_B2_day1,2022.2.4,Win32,60.12144532,,,,,,,,,,,,,,,,,,,,,,,,,,,,,,,,,,,,,,,,,,,0.415740826,-0.049074067,1,0,0,genoni,genoni,0,15,15,29,1,genond,images/br_genond.png,images/cb_genond.png
,,,,,,00111,2023-12-06_17h13.54.934,vbt_B2_day1,2022.2.4,Win32,60.12144532,,,,,,,,,,,,,,,,,,,,,,,,,,,,,,,,,,,,,,,,,,,0.550925926,-0.112963005,1,0,0,opvatten,opvatten,0,16,16,59,1,opvatten,images/br_opvatten.png,images/cb_opvatten.png
,,,,,,00111,2023-12-06_17h13.54.934,vbt_B2_day1,2022.2.4,Win32,60.12144532,,,,,,,,,,,,,,,,,,,,,,,,,,,,,,,,,,,,,,,,,,,0.579629686,-0.110185199,1,0,0,sch..,sch..,0,17,17,4,1,schep,images/br_schep.png,images/cb_schep.png
,,,,,,00111,2023-12-06_17h13.54.934,vbt_B2_day1,2022.2.4,Win32,60.12144532,,,,,,,,,,,,,,,,,,,,,,,,,,,,,,,,,,,,,,,,,,,0.579629686,-0.110185199,1,0,0,dief,dief,0,18,18,40,1,dief,images/br_dief.png,images/cb_dief.png
,,,,,,00111,2023-12-06_17h13.54.934,vbt_B2_day1,2022.2.4,Win32,60.12144532,,,,,,,,,,,,,,,,,,,,,,,,,,,,,,,,,,,,,,,,,,,0.579629686,-0.110185199,1,0,0,vorreur,vorreur,0,19,19,39,1,voorreur,images/br_voorreur.png,images/cb_voorreur.png
,,,,,,00111,2023-12-06_17h13.54.934,vbt_B2_day1,2022.2.4,Win32,60.12144532,,,,,,,,,,,,,,,,,,,,,,,,,,,,,,,,,,,,,,,,,,,0.579629686,-0.110185199,1,0,0,dred,dred,0,20,20,21,1,dred,images/br_dred.png,images/cb_dred.png
,,,,,,00111,2023-12-06_17h13.54.934,vbt_B2_day1,2022.2.4,Win32,60.12144532,,,,,,,,,,,,,,,,,,,,,,,,,,,,,,,,,,,,,,,,,,,0.579629686,-0.110185199,1,0,0,mand,mand,0,21,21,3,1,mand,images/br_mand.png,images/cb_mand.png
,,,,,,00111,2023-12-06_17h13.54.934,vbt_B2_day1,2022.2.4,Win32,60.12144532,,,,,,,,,,,,,,,,,,,,,,,,,,,,,,,,,,,,,,,,,,,0.616666723,-0.110185199,1,0,0,liefde,liefde,0,22,22,51,1,liefde,images/br_liefde.png,images/cb_liefde.png
,,,,,,00111,2023-12-06_17h13.54.934,vbt_B2_day1,2022.2.4,Win32,60.12144532,,,,,,,,,,,,,,,,,,,,,,,,,,,,,,,,,,,,,,,,,,,0.616666723,-0.110185199,1,0,0,stuikem,stuikem,0,23,23,35,1,stuikem,images/br_stuikem.png,images/cb_stuikem.png
,,,,,,00111,2023-12-06_17h13.54.934,vbt_B2_day1,2022.2.4,Win32,60.12144532,,,,,,,,,,,,,,,,,,,,,,,,,,,,,,,,,,,,,,,,,,,0.00462963,-0.194444444,1,0,0,twi.fel,twi.fel,0,24,24,13,1,twijfel,images/br_twijfel.png,images/cb_twijfel.png
,,,,,,00111,2023-12-06_17h13.54.934,vbt_B2_day1,2022.2.4,Win32,60.12144532,,,,,,,,,,,,,,,,,,,,,,,,,,,,,,,,,,,,,,,,,,,0.400925954,0.037962949,1,0,0,waarvan,waarvan,0,25,25,14,1,waarvan,images/br_waarvan.png,images/cb_waarvan.png
,,,,,,00111,2023-12-06_17h13.54.934,vbt_B2_day1,2022.2.4,Win32,60.12144532,,,,,,,,,,,,,,,,,,,,,,,,,,,,,,,,,,,,,,,,,,,0.400925954,0.037962949,1,0,0,klimmen,klimmen,0,26,26,12,1,klimmen,images/br_klimmen.png,images/cb_klimmen.png
,,,,,,00111,2023-12-06_17h13.54.934,vbt_B2_day1,2022.2.4,Win32,60.12144532,,,,,,,,,,,,,,,,,,,,,,,,,,,,,,,,,,,,,,,,,,,0.400925954,0.037962949,1,0,0,liegen,liegen,0,27,27,50,1,liegen,images/br_liegen.png,images/cb_liegen.png
,,,,,,00111,2023-12-06_17h13.54.934,vbt_B2_day1,2022.2.4,Win32,60.12144532,,,,,,,,,,,,,,,,,,,,,,,,,,,,,,,,,,,,,,,,,,,0.400925954,0.037962949,1,0,0,flullen ,flullen ,0,28,28,33,1,flullen,images/br_flullen.png,images/cb_flullen.png
,,,,,,00111,2023-12-06_17h13.54.934,vbt_B2_day1,2022.2.4,Win32,60.12144532,,,,,,,,,,,,,,,,,,,,,,,,,,,,,,,,,,,,,,,,,,,0.400925954,0.037962949,1,0,0,spanzing,spanzing,0,29,29,37,1,spanzing,images/br_spanzing.png,images/cb_spanzing.png
,,,,,,00111,2023-12-06_17h13.54.934,vbt_B2_day1,2022.2.4,Win32,60.12144532,,,,,,,,,,,,,,,,,,,,,,,,,,,,,,,,,,,,,,,,,,,0.400925954,0.037962949,1,0,0,zaal,zaal,0,30,30,1,1,zaal,images/br_zaal.png,images/cb_zaal.png
,,,,,,00111,2023-12-06_17h13.54.934,vbt_B2_day1,2022.2.4,Win32,60.12144532,,,,,,,,,,,,,,,,,,,,,,,,,,,,,,,,,,,,,,,,,,,0.400925954,0.037962949,1,0,0,booi,booi,0,31,31,23,1,booi,images/br_booi.png,images/cb_booi.png
,,,,,,00111,2023-12-06_17h13.54.934,vbt_B2_day1,2022.2.4,Win32,60.12144532,,,,,,,,,,,,,,,,,,,,,,,,,,,,,,,,,,,,,,,,,,,0.400925954,0.037962949,1,0,0,fictie,fictie,0,32,32,48,1,fictie,images/br_fictie.png,images/cb_fictie.png
,,,,,,00111,2023-12-06_17h13.54.934,vbt_B2_day1,2022.2.4,Win32,60.12144532,,,,,,,,,,,,,,,,,,,,,,,,,,,,,,,,,,,,,,,,,,,0.400925954,0.037962949,1,0,0,meenemen,meenemen,0,33,33,57,1,meenemen,images/br_meenemen.png,images/cb_meenemen.png
,,,,,,00111,2023-12-06_17h13.54.934,vbt_B2_day1,2022.2.4,Win32,60.12144532,,,,,,,,,,,,,,,,,,,,,,,,,,,,,,,,,,,,,,,,,,,0.473148205,0.039814808,1,0,0,brijk,brijk,0,34,34,25,1,brijk,images/br_brijk.png,images/cb_brijk.png
,,,,,,00111,2023-12-06_17h13.54.934,vbt_B2_day1,2022.2.4,Win32,60.12144532,,,,,,,,,,,,,,,,,,,,,,,,,,,,,,,,,,,,,,,,,,,0.473148205,0.039814808,1,0,0,sch....,sch....,0,35,35,19,1,schuilen,images/br_schuilen.png,images/cb_schuilen.png
,,,,,,00111,2023-12-06_17h13.54.934,vbt_B2_day1,2022.2.4,Win32,60.12144532,,,,,,,,,,,,,,,,,,,,,,,,,,,,,,,,,,,,,,,,,,,0.473148205,0.039814808,1,0,0,lava,lava,0,36,36,43,1,lava,images/br_lava.png,images/cb_lava.png
,,,,,,00111,2023-12-06_17h13.54.934,vbt_B2_day1,2022.2.4,Win32,60.12144532,,,,,,,,,,,,,,,,,,,,,,,,,,,,,,,,,,,,,,,,,,,0.473148205,0.039814808,1,0,0,schievez,schievez,0,37,37,38,1,schielen,images/br_schielen.png,images/cb_schielen.png
,,,,,,00111,2023-12-06_17h13.54.934,vbt_B2_day1,2022.2.4,Win32,60.12144532,,,,,,,,,,,,,,,,,,,,,,,,,,,,,,,,,,,,,,,,,,,0.473148205,0.039814808,1,0,0,hiervre.,hiervre.,0,38,38,15,1,hiervan,images/br_hiervan.png,images/cb_hiervan.png
,,,,,,00111,2023-12-06_17h13.54.934,vbt_B2_day1,2022.2.4,Win32,60.12144532,,,,,,,,,,,,,,,,,,,,,,,,,,,,,,,,,,,,,,,,,,,0.473148205,0.039814808,1,0,0,rezer,rezer,0,39,39,24,1,rezer,images/br_rezer.png,images/cb_rezer.png
,,,,,,00111,2023-12-06_17h13.54.934,vbt_B2_day1,2022.2.4,Win32,60.12144532,,,,,,,,,,,,,,,,,,,,,,,,,,,,,,,,,,,,,,,,,,,0.473148205,0.039814808,1,0,0,locht..,locht..,0,40,40,34,1,lochten,images/br_lochten.png,images/cb_lochten.png
,,,,,,00111,2023-12-06_17h13.54.934,vbt_B2_day1,2022.2.4,Win32,60.12144532,,,,,,,,,,,,,,,,,,,,,,,,,,,,,,,,,,,,,,,,,,,0.477777834,0.008333312,1,0,0,bebrip,bebrip,0,41,41,28,1,bebrip,images/br_bebrip.png,images/cb_bebrip.png
,,,,,,00111,2023-12-06_17h13.54.934,vbt_B2_day1,2022.2.4,Win32,60.12144532,,,,,,,,,,,,,,,,,,,,,,,,,,,,,,,,,,,,,,,,,,,0.450000057,-0.041666667,1,0,0,lezen,lezen,0,42,42,46,1,lezen,images/br_lezen.png,images/cb_lezen.png
,,,,,,00111,2023-12-06_17h13.54.934,vbt_B2_day1,2022.2.4,Win32,60.12144532,,,,,,,,,,,,,,,,,,,,,,,,,,,,,,,,,,,,,,,,,,,0.450000057,-0.041666667,1,0,0,tekenen,tekenen,0,43,43,55,1,tekenen,images/br_tekenen.png,images/cb_tekenen.png
,,,,,,00111,2023-12-06_17h13.54.934,vbt_B2_day1,2022.2.4,Win32,60.12144532,,,,,,,,,,,,,,,,,,,,,,,,,,,,,,,,,,,,,,,,,,,0.450000057,-0.041666667,1,0,0,maken,maken,0,44,44,5,1,maken,images/br_maken.png,images/cb_maken.png
,,,,,,00111,2023-12-06_17h13.54.934,vbt_B2_day1,2022.2.4,Win32,60.12144532,,,,,,,,,,,,,,,,,,,,,,,,,,,,,,,,,,,,,,,,,,,0.450000057,-0.041666667,1,0,0,tars,tars,0,45,45,20,1,tars,images/br_tars.png,images/cb_tars.png
,,,,,,00111,2023-12-06_17h13.54.934,vbt_B2_day1,2022.2.4,Win32,60.12144532,,,,,,,,,,,,,,,,,,,,,,,,,,,,,,,,,,,,,,,,,,,0.450000057,-0.041666667,1,0,0,prort,prort,0,46,46,27,1,prort,images/br_prort.png,images/cb_prort.png
,,,,,,00111,2023-12-06_17h13.54.934,vbt_B2_day1,2022.2.4,Win32,60.12144532,,,,,,,,,,,,,,,,,,,,,,,,,,,,,,,,,,,,,,,,,,,0.450000057,-0.041666667,1,0,0,stamen,stamen,0,47,47,31,1,stamen,images/br_stamen.png,images/cb_stamen.png
,,,,,,00111,2023-12-06_17h13.54.934,vbt_B2_day1,2022.2.4,Win32,60.12144532,,,,,,,,,,,,,,,,,,,,,,,,,,,,,,,,,,,,,,,,,,,0.450000057,-0.041666667,1,0,0,jaar,jaar,0,48,48,2,1,jaar,images/br_jaar.png,images/cb_jaar.png
,,,,,,00111,2023-12-06_17h13.54.934,vbt_B2_day1,2022.2.4,Win32,60.12144532,,,,,,,,,,,,,,,,,,,,,,,,,,,,,,,,,,,,,,,,,,,0.450000057,-0.041666667,1,0,0,oplaan,oplaan,0,49,49,32,1,opplaan,images/br_opplaan.png,images/cb_opplaan.png
,,,,,,00111,2023-12-06_17h13.54.934,vbt_B2_day1,2022.2.4,Win32,60.12144532,,,,,,,,,,,,,,,,,,,,,,,,,,,,,,,,,,,,,,,,,,,0.450000057,-0.041666667,1,0,0,vijht..,vijht..,0,50,50,54,1,vijftig,images/br_vijftig.png,images/cb_vijftig.png
,,,,,,00111,2023-12-06_17h13.54.934,vbt_B2_day1,2022.2.4,Win32,60.12144532,,,,,,,,,,,,,,,,,,,,,,,,,,,,,,,,,,,,,,,,,,,0.450000057,-0.041666667,1,0,0,dubbel,dubbel,0,51,51,9,1,dubbel,images/br_dubbel.png,images/cb_dubbel.png
,,,,,,00111,2023-12-06_17h13.54.934,vbt_B2_day1,2022.2.4,Win32,60.12144532,,,,,,,,,,,,,,,,,,,,,,,,,,,,,,,,,,,,,,,,,,,0.381481453,-0.095370399,1,0,0,hemel,hemel,0,52,52,45,1,hemel,images/br_hemel.png,images/cb_hemel.png
,,,,,,00111,2023-12-06_17h13.54.934,vbt_B2_day1,2022.2.4,Win32,60.12144532,,,,,,,,,,,,,,,,,,,,,,,,,,,,,,,,,,,,,,,,,,,0.381481453,-0.095370399,1,0,0,.edti...,.edti...,0,53,53,18,1,uitdelen,images/br_uitdelen.png,images/cb_uitdelen.png
,,,,,,00111,2023-12-06_17h13.54.934,vbt_B2_day1,2022.2.4,Win32,60.12144532,,,,,,,,,,,,,,,,,,,,,,,,,,,,,,,,,,,,,,,,,,,0.381481453,-0.095370399,1,0,0,neuplap,neuplap,0,54,54,52,1,zuiplap,images/br_zuiplap.png,images/cb_zuiplap.png
,,,,,,00111,2023-12-06_17h13.54.934,vbt_B2_day1,2022.2.4,Win32,60.12144532,,,,,,,,,,,,,,,,,,,,,,,,,,,,,,,,,,,,,,,,,,,0.381481453,-0.095370399,1,0,0,vervad..,vervad..,0,55,55,36,1,vervaden,images/br_vervaden.png,images/cb_vervaden.png
,,,,,,00111,2023-12-06_17h13.54.934,vbt_B2_day1,2022.2.4,Win32,60.12144532,,,,,,,,,,,,,,,,,,,,,,,,,,,,,,,,,,,,,,,,,,,0.381481453,-0.095370399,1,0,0,euzizg,euzizg,0,56,56,11,1,mening,images/br_mening.png,images/cb_mening.png
,,,,,,00111,2023-12-06_17h13.54.934,vbt_B2_day1,2022.2.4,Win32,60.12144532,,,,,,,,,,,,,,,,,,,,,,,,,,,,,,,,,,,,,,,,,,,0.381481453,-0.095370399,1,0,0,slak,slak,0,57,57,0,1,slak,images/br_slak.png,images/cb_slak.png
,,,,,,00111,2023-12-06_17h13.54.934,vbt_B2_day1,2022.2.4,Win32,60.12144532,,,,,,,,,,,,,,,,,,,,,,,,,,,,,,,,,,,,,,,,,,,0.381481453,-0.095370399,1,0,0,reedje,reedje,0,58,58,30,1,reedje,images/br_reedje.png,images/cb_reedje.png
,,,,,,00111,2023-12-06_17h13.54.934,vbt_B2_day1,2022.2.4,Win32,60.12144532,,,,,,,,,,,,,,,,,,,,,,,,,,,,,,,,,,,,,,,,,,,0.381481453,-0.095370399,1,0,0,stuk,stuk,0,59,59,42,1,stuk,images/br_stuk.png,images/cb_stuk.png
,,,,,,00111,2023-12-06_17h13.54.934,vbt_B2_day1,2022.2.4,Win32,60.12144532,,,,,,,,,,,,,,,,,,,,,,,,,,,,,,,,,,,,,,,,,,,,,,,,,,,,,,,,,
