welcome_mouse.x,welcome_mouse.y,welcome_mouse.leftButton,welcome_mouse.midButton,welcome_mouse.rightButton,welcome_mouse.time,"ID",date,expName,psychopyVersion,OS,frameRate,mouse_2.x,mouse_2.y,mouse_2.leftButton,mouse_2.midButton,mouse_2.rightButton,mouse_2.time,mouse_3.x,mouse_3.y,mouse_3.leftButton,mouse_3.midButton,mouse_3.rightButton,mouse_3.time,train_mouse.x,train_mouse.y,train_mouse.leftButton,train_mouse.midButton,train_mouse.rightButton,train_mouse.time,braille_mouse.x,braille_mouse.y,braille_mouse.leftButton,braille_mouse.midButton,braille_mouse.rightButton,braille_mouse.time,trials.thisRepN,trials.thisTrialN,trials.thisN,trials.thisIndex,trials.ran,nlLet,brLet,cbLet,mouse.x,mouse.y,mouse.leftButton,mouse.midButton,mouse.rightButton,testInstr_mouse.x,testInstr_mouse.y,testInstr_mouse.leftButton,testInstr_mouse.midButton,testInstr_mouse.rightButton,test_mouse.x,test_mouse.y,test_mouse.leftButton,test_mouse.midButton,test_mouse.rightButton,test_response.text,testResp,test_loop.thisRepN,test_loop.thisTrialN,test_loop.thisN,test_loop.thisIndex,test_loop.ran,nlWrd,brWrd,cbWrd
0.356521739,-0.257608696,1,0,0,13.967,,2023-08-16_20h32.16.900,vbt_B2_day1,2022.2.4,MacIntel,8.333333333,,,,,,,,,,,,,,,,,,,,,,,,,,,,,,,,,,,,,,,,,,,,,,,,,,,,,,,,,
,,,,,,,2023-08-16_20h32.16.900,vbt_B2_day1,2022.2.4,MacIntel,8.333333333,-0.032608696,-0.409782609,1,0,0,6.079,,,,,,,,,,,,,,,,,,,,,,,,,,,,,,,,,,,,,,,,,,,,,,,,,,,
,,,,,,,2023-08-16_20h32.16.900,vbt_B2_day1,2022.2.4,MacIntel,8.333333333,,,,,,,-0.110869565,-0.390217391,1,0,0,22.779,,,,,,,,,,,,,,,,,,,,,,,,,,,,,,,,,,,,,,,,,,,,,
,,,,,,,2023-08-16_20h32.16.900,vbt_B2_day1,2022.2.4,MacIntel,8.333333333,,,,,,,,,,,,,0.156521739,-0.181521739,1,0,0,15.978,,,,,,,,,,,,,,,,,,,,,,,,,,,,,,,,,,,,,,,
,,,,,,,2023-08-16_20h32.16.900,vbt_B2_day1,2022.2.4,MacIntel,8.333333333,,,,,,,,,,,,,,,,,,,0.013043478,-0.15,1,0,0,7.083,0,0,0,23,1,x,images/br_x.png,images/cb_x.png,,,,,,,,,,,,,,,,,,,,,,,,,
,,,,,,,2023-08-16_20h32.16.900,vbt_B2_day1,2022.2.4,MacIntel,8.333333333,,,,,,,,,,,,,,,,,,,0.016304348,-0.192391304,1,0,0,7.549,0,1,1,5,1,f,images/br_f.png,images/cb_f.png,,,,,,,,,,,,,,,,,,,,,,,,,
,,,,,,,2023-08-16_20h32.16.900,vbt_B2_day1,2022.2.4,MacIntel,8.333333333,,,,,,,,,,,,,,,,,,,0.005434783,-0.189130435,1,0,0,13.782,0,2,2,19,1,t,images/br_t.png,images/cb_t.png,,,,,,,,,,,,,,,,,,,,,,,,,
,,,,,,,2023-08-16_20h32.16.900,vbt_B2_day1,2022.2.4,MacIntel,8.333333333,,,,,,,,,,,,,,,,,,,-0.006521739,-0.19673913,1,0,0,4.166,0,3,3,7,1,h,images/br_h.png,images/cb_h.png,,,,,,,,,,,,,,,,,,,,,,,,,
,,,,,,,2023-08-16_20h32.16.900,vbt_B2_day1,2022.2.4,MacIntel,8.333333333,,,,,,,,,,,,,,,,,,,-0.027173913,-0.131521739,1,0,0,3.333,0,4,4,17,1,r,images/br_r.png,images/cb_r.png,,,,,,,,,,,,,,,,,,,,,,,,,
,,,,,,,2023-08-16_20h32.16.900,vbt_B2_day1,2022.2.4,MacIntel,8.333333333,,,,,,,,,,,,,,,,,,,0.041304348,-0.227173913,1,0,0,3.983,0,5,5,20,1,u,images/br_u.png,images/cb_u.png,,,,,,,,,,,,,,,,,,,,,,,,,
,,,,,,,2023-08-16_20h32.16.900,vbt_B2_day1,2022.2.4,MacIntel,8.333333333,,,,,,,,,,,,,,,,,,,0.004347826,-0.226086957,1,0,0,2.118,0,6,6,11,1,l,images/br_l.png,images/cb_l.png,,,,,,,,,,,,,,,,,,,,,,,,,
,,,,,,,2023-08-16_20h32.16.900,vbt_B2_day1,2022.2.4,MacIntel,8.333333333,,,,,,,,,,,,,,,,,,,0.015217391,-0.013043478,1,0,0,5.45,0,7,7,2,1,c,images/br_c.png,images/cb_c.png,,,,,,,,,,,,,,,,,,,,,,,,,
,,,,,,,2023-08-16_20h32.16.900,vbt_B2_day1,2022.2.4,MacIntel,8.333333333,,,,,,,,,,,,,,,,,,,-0.004347826,-0.020652174,1,0,0,10.634,0,8,8,16,1,q,images/br_q.png,images/cb_q.png,,,,,,,,,,,,,,,,,,,,,,,,,
,,,,,,,2023-08-16_20h32.16.900,vbt_B2_day1,2022.2.4,MacIntel,8.333333333,,,,,,,,,,,,,,,,,,,0.009782609,-0.235869565,1,0,0,3.75,0,9,9,24,1,y,images/br_y.png,images/cb_y.png,,,,,,,,,,,,,,,,,,,,,,,,,
,,,,,,,2023-08-16_20h32.16.900,vbt_B2_day1,2022.2.4,MacIntel,8.333333333,,,,,,,,,,,,,,,,,,,0.009782609,-0.02826087,1,0,0,6.35,0,10,10,0,1,a,images/br_a.png,images/cb_a.png,,,,,,,,,,,,,,,,,,,,,,,,,
,,,,,,,2023-08-16_20h32.16.900,vbt_B2_day1,2022.2.4,MacIntel,8.333333333,,,,,,,,,,,,,,,,,,,0.017391304,-0.011956522,1,0,0,2.883,0,11,11,9,1,j,images/br_j.png,images/cb_j.png,,,,,,,,,,,,,,,,,,,,,,,,,
,,,,,,,2023-08-16_20h32.16.900,vbt_B2_day1,2022.2.4,MacIntel,8.333333333,,,,,,,,,,,,,,,,,,,0.015217391,-0.225,1,0,0,5.951,0,12,12,25,1,z,images/br_z.png,images/cb_z.png,,,,,,,,,,,,,,,,,,,,,,,,,
,,,,,,,2023-08-16_20h32.16.900,vbt_B2_day1,2022.2.4,MacIntel,8.333333333,,,,,,,,,,,,,,,,,,,0.020652174,-0.042391304,1,0,0,2.65,0,13,13,15,1,p,images/br_p.png,images/cb_p.png,,,,,,,,,,,,,,,,,,,,,,,,,
,,,,,,,2023-08-16_20h32.16.900,vbt_B2_day1,2022.2.4,MacIntel,8.333333333,,,,,,,,,,,,,,,,,,,0.015217391,-0.177173913,1,0,0,5.367,0,14,14,10,1,k,images/br_k.png,images/cb_k.png,,,,,,,,,,,,,,,,,,,,,,,,,
,,,,,,,2023-08-16_20h32.16.900,vbt_B2_day1,2022.2.4,MacIntel,8.333333333,,,,,,,,,,,,,,,,,,,0.011956522,-0.179347826,1,0,0,4.001,0,15,15,14,1,o,images/br_o.png,images/cb_o.png,,,,,,,,,,,,,,,,,,,,,,,,,
,,,,,,,2023-08-16_20h32.16.900,vbt_B2_day1,2022.2.4,MacIntel,8.333333333,,,,,,,,,,,,,,,,,,,0.010869565,-0.188043478,1,0,0,3.05,0,16,16,18,1,s,images/br_s.png,images/cb_s.png,,,,,,,,,,,,,,,,,,,,,,,,,
,,,,,,,2023-08-16_20h32.16.900,vbt_B2_day1,2022.2.4,MacIntel,8.333333333,,,,,,,,,,,,,,,,,,,0.006521739,-0.169565217,1,0,0,1.517,0,17,17,21,1,v,images/br_v.png,images/cb_v.png,,,,,,,,,,,,,,,,,,,,,,,,,
,,,,,,,2023-08-16_20h32.16.900,vbt_B2_day1,2022.2.4,MacIntel,8.333333333,,,,,,,,,,,,,,,,,,,0.009782609,-0.213043478,1,0,0,3.967,0,18,18,12,1,m,images/br_m.png,images/cb_m.png,,,,,,,,,,,,,,,,,,,,,,,,,
,,,,,,,2023-08-16_20h32.16.900,vbt_B2_day1,2022.2.4,MacIntel,8.333333333,,,,,,,,,,,,,,,,,,,0.014130435,-0.164130435,1,0,0,11.484,0,19,19,13,1,n,images/br_n.png,images/cb_n.png,,,,,,,,,,,,,,,,,,,,,,,,,
,,,,,,,2023-08-16_20h32.16.900,vbt_B2_day1,2022.2.4,MacIntel,8.333333333,,,,,,,,,,,,,,,,,,,0,-0.183695652,1,0,0,5.232,0,20,20,1,1,b,images/br_b.png,images/cb_b.png,,,,,,,,,,,,,,,,,,,,,,,,,
,,,,,,,2023-08-16_20h32.16.900,vbt_B2_day1,2022.2.4,MacIntel,8.333333333,,,,,,,,,,,,,,,,,,,-0.02173913,-0.219565217,1,0,0,1.033,0,21,21,4,1,e,images/br_e.png,images/cb_e.png,,,,,,,,,,,,,,,,,,,,,,,,,
,,,,,,,2023-08-16_20h32.16.900,vbt_B2_day1,2022.2.4,MacIntel,8.333333333,,,,,,,,,,,,,,,,,,,-0.022826087,-0.217391304,1,0,0,4.416,0,22,22,3,1,d,images/br_d.png,images/cb_d.png,,,,,,,,,,,,,,,,,,,,,,,,,
,,,,,,,2023-08-16_20h32.16.900,vbt_B2_day1,2022.2.4,MacIntel,8.333333333,,,,,,,,,,,,,,,,,,,-0.004347826,-0.148913043,1,0,0,4.166,0,23,23,6,1,g,images/br_g.png,images/cb_g.png,,,,,,,,,,,,,,,,,,,,,,,,,
,,,,,,,2023-08-16_20h32.16.900,vbt_B2_day1,2022.2.4,MacIntel,8.333333333,,,,,,,,,,,,,,,,,,,0.013043478,-0.197826087,1,0,0,5.283,0,24,24,22,1,w,images/br_w.png,images/cb_w.png,,,,,,,,,,,,,,,,,,,,,,,,,
,,,,,,,2023-08-16_20h32.16.900,vbt_B2_day1,2022.2.4,MacIntel,8.333333333,,,,,,,,,,,,,,,,,,,-0.004347826,-0.173913043,1,0,0,2.267,0,25,25,8,1,i,images/br_i.png,images/cb_i.png,,,,,,,,,,,,,,,,,,,,,,,,,
,,,,,,,2023-08-16_20h32.16.900,vbt_B2_day1,2022.2.4,MacIntel,8.333333333,,,,,,,,,,,,,,,,,,,-0.005434783,-0.234782609,1,0,0,4.966,1,0,26,24,1,y,images/br_y.png,images/cb_y.png,,,,,,,,,,,,,,,,,,,,,,,,,
,,,,,,,2023-08-16_20h32.16.900,vbt_B2_day1,2022.2.4,MacIntel,8.333333333,,,,,,,,,,,,,,,,,,,-0.001086957,-0.204347826,1,0,0,1.933,1,1,27,11,1,l,images/br_l.png,images/cb_l.png,,,,,,,,,,,,,,,,,,,,,,,,,
,,,,,,,2023-08-16_20h32.16.900,vbt_B2_day1,2022.2.4,MacIntel,8.333333333,,,,,,,,,,,,,,,,,,,-0.002173913,-0.206521739,1,0,0,1.649,1,2,28,2,1,c,images/br_c.png,images/cb_c.png,,,,,,,,,,,,,,,,,,,,,,,,,
,,,,,,,2023-08-16_20h32.16.900,vbt_B2_day1,2022.2.4,MacIntel,8.333333333,,,,,,,,,,,,,,,,,,,0,-0.197826087,1,0,0,11.217,1,3,29,10,1,k,images/br_k.png,images/cb_k.png,,,,,,,,,,,,,,,,,,,,,,,,,
,,,,,,,2023-08-16_20h32.16.900,vbt_B2_day1,2022.2.4,MacIntel,8.333333333,,,,,,,,,,,,,,,,,,,0.006521739,-0.207608696,1,0,0,1.316,1,4,30,21,1,v,images/br_v.png,images/cb_v.png,,,,,,,,,,,,,,,,,,,,,,,,,
,,,,,,,2023-08-16_20h32.16.900,vbt_B2_day1,2022.2.4,MacIntel,8.333333333,,,,,,,,,,,,,,,,,,,0.006521739,-0.207608696,1,0,0,9.2,1,5,31,15,1,p,images/br_p.png,images/cb_p.png,,,,,,,,,,,,,,,,,,,,,,,,,
,,,,,,,2023-08-16_20h32.16.900,vbt_B2_day1,2022.2.4,MacIntel,8.333333333,,,,,,,,,,,,,,,,,,,0.02826087,-0.177173913,1,0,0,3.166,1,6,32,9,1,j,images/br_j.png,images/cb_j.png,,,,,,,,,,,,,,,,,,,,,,,,,
,,,,,,,2023-08-16_20h32.16.900,vbt_B2_day1,2022.2.4,MacIntel,8.333333333,,,,,,,,,,,,,,,,,,,0.02826087,-0.177173913,1,0,0,12,1,7,33,17,1,r,images/br_r.png,images/cb_r.png,,,,,,,,,,,,,,,,,,,,,,,,,
,,,,,,,2023-08-16_20h32.16.900,vbt_B2_day1,2022.2.4,MacIntel,8.333333333,,,,,,,,,,,,,,,,,,,0.008695652,-0.19673913,1,0,0,0.05,1,8,34,23,1,x,images/br_x.png,images/cb_x.png,,,,,,,,,,,,,,,,,,,,,,,,,
,,,,,,,2023-08-16_20h32.16.900,vbt_B2_day1,2022.2.4,MacIntel,8.333333333,,,,,,,,,,,,,,,,,,,0.041304348,-0.106521739,1,0,0,6.467,1,9,35,6,1,g,images/br_g.png,images/cb_g.png,,,,,,,,,,,,,,,,,,,,,,,,,
,,,,,,,2023-08-16_20h32.16.900,vbt_B2_day1,2022.2.4,MacIntel,8.333333333,,,,,,,,,,,,,,,,,,,0.013043478,-0.173913043,1,0,0,0.401,1,10,36,20,1,u,images/br_u.png,images/cb_u.png,,,,,,,,,,,,,,,,,,,,,,,,,
,,,,,,,2023-08-16_20h32.16.900,vbt_B2_day1,2022.2.4,MacIntel,8.333333333,,,,,,,,,,,,,,,,,,,0.019565217,-0.257608696,1,0,0,1.7,1,11,37,8,1,i,images/br_i.png,images/cb_i.png,,,,,,,,,,,,,,,,,,,,,,,,,
,,,,,,,2023-08-16_20h32.16.900,vbt_B2_day1,2022.2.4,MacIntel,8.333333333,,,,,,,,,,,,,,,,,,,-0.010869565,-0.179347826,1,0,0,4.267,1,12,38,7,1,h,images/br_h.png,images/cb_h.png,,,,,,,,,,,,,,,,,,,,,,,,,
,,,,,,,2023-08-16_20h32.16.900,vbt_B2_day1,2022.2.4,MacIntel,8.333333333,,,,,,,,,,,,,,,,,,,0.02826087,-0.12826087,1,0,0,18.899,1,13,39,3,1,d,images/br_d.png,images/cb_d.png,,,,,,,,,,,,,,,,,,,,,,,,,
,,,,,,,2023-08-16_20h32.16.900,vbt_B2_day1,2022.2.4,MacIntel,8.333333333,,,,,,,,,,,,,,,,,,,0.002173913,-0.17826087,1,0,0,2.15,1,14,40,14,1,o,images/br_o.png,images/cb_o.png,,,,,,,,,,,,,,,,,,,,,,,,,
,,,,,,,2023-08-16_20h32.16.900,vbt_B2_day1,2022.2.4,MacIntel,8.333333333,,,,,,,,,,,,,,,,,,,-0.002173913,-0.210869565,1,0,0,5.333,1,15,41,18,1,s,images/br_s.png,images/cb_s.png,,,,,,,,,,,,,,,,,,,,,,,,,
,,,,,,,2023-08-16_20h32.16.900,vbt_B2_day1,2022.2.4,MacIntel,8.333333333,,,,,,,,,,,,,,,,,,,-0.002173913,-0.210869565,1,0,0,0.033,1,16,42,12,1,m,images/br_m.png,images/cb_m.png,,,,,,,,,,,,,,,,,,,,,,,,,
,,,,,,,2023-08-16_20h32.16.900,vbt_B2_day1,2022.2.4,MacIntel,8.333333333,,,,,,,,,,,,,,,,,,,-0.00326087,-0.22173913,1,0,0,8.5,1,17,43,0,1,a,images/br_a.png,images/cb_a.png,,,,,,,,,,,,,,,,,,,,,,,,,
,,,,,,,2023-08-16_20h32.16.900,vbt_B2_day1,2022.2.4,MacIntel,8.333333333,,,,,,,,,,,,,,,,,,,0.040217391,-0.19673913,1,0,0,3.351,1,18,44,16,1,q,images/br_q.png,images/cb_q.png,,,,,,,,,,,,,,,,,,,,,,,,,
,,,,,,,2023-08-16_20h32.16.900,vbt_B2_day1,2022.2.4,MacIntel,8.333333333,,,,,,,,,,,,,,,,,,,0.040217391,-0.19673913,1,0,0,3.383,1,19,45,22,1,w,images/br_w.png,images/cb_w.png,,,,,,,,,,,,,,,,,,,,,,,,,
,,,,,,,2023-08-16_20h32.16.900,vbt_B2_day1,2022.2.4,MacIntel,8.333333333,,,,,,,,,,,,,,,,,,,0.001086957,-0.234782609,1,0,0,0.883,1,20,46,25,1,z,images/br_z.png,images/cb_z.png,,,,,,,,,,,,,,,,,,,,,,,,,
,,,,,,,2023-08-16_20h32.16.900,vbt_B2_day1,2022.2.4,MacIntel,8.333333333,,,,,,,,,,,,,,,,,,,-0.013043478,-0.175,1,0,0,1.133,1,21,47,5,1,f,images/br_f.png,images/cb_f.png,,,,,,,,,,,,,,,,,,,,,,,,,
,,,,,,,2023-08-16_20h32.16.900,vbt_B2_day1,2022.2.4,MacIntel,8.333333333,,,,,,,,,,,,,,,,,,,0.00326087,-0.2,1,0,0,9.234,1,22,48,1,1,b,images/br_b.png,images/cb_b.png,,,,,,,,,,,,,,,,,,,,,,,,,
,,,,,,,2023-08-16_20h32.16.900,vbt_B2_day1,2022.2.4,MacIntel,8.333333333,,,,,,,,,,,,,,,,,,,0.009782609,-0.206521739,1,0,0,13.65,1,23,49,19,1,t,images/br_t.png,images/cb_t.png,,,,,,,,,,,,,,,,,,,,,,,,,
,,,,,,,2023-08-16_20h32.16.900,vbt_B2_day1,2022.2.4,MacIntel,8.333333333,,,,,,,,,,,,,,,,,,,0.008695652,-0.213043478,1,0,0,1.067,1,24,50,4,1,e,images/br_e.png,images/cb_e.png,,,,,,,,,,,,,,,,,,,,,,,,,
,,,,,,,2023-08-16_20h32.16.900,vbt_B2_day1,2022.2.4,MacIntel,8.333333333,,,,,,,,,,,,,,,,,,,0.002173913,-0.175,1,0,0,3.632,1,25,51,13,1,n,images/br_n.png,images/cb_n.png,,,,,,,,,,,,,,,,,,,,,,,,,
,,,,,,,2023-08-16_20h32.16.900,vbt_B2_day1,2022.2.4,MacIntel,8.333333333,,,,,,,,,,,,,,,,,,,0.00326087,-0.176086957,1,0,0,5.532,2,0,52,22,1,w,images/br_w.png,images/cb_w.png,,,,,,,,,,,,,,,,,,,,,,,,,
,,,,,,,2023-08-16_20h32.16.900,vbt_B2_day1,2022.2.4,MacIntel,8.333333333,,,,,,,,,,,,,,,,,,,0.008695652,-0.242391304,1,0,0,0.583,2,1,53,14,1,o,images/br_o.png,images/cb_o.png,,,,,,,,,,,,,,,,,,,,,,,,,
,,,,,,,2023-08-16_20h32.16.900,vbt_B2_day1,2022.2.4,MacIntel,8.333333333,,,,,,,,,,,,,,,,,,,0.00326087,-0.190217391,1,0,0,0.833,2,2,54,15,1,p,images/br_p.png,images/cb_p.png,,,,,,,,,,,,,,,,,,,,,,,,,
,,,,,,,2023-08-16_20h32.16.900,vbt_B2_day1,2022.2.4,MacIntel,8.333333333,,,,,,,,,,,,,,,,,,,-0.001086957,-0.240217391,1,0,0,21.049,2,3,55,7,1,h,images/br_h.png,images/cb_h.png,,,,,,,,,,,,,,,,,,,,,,,,,
,,,,,,,2023-08-16_20h32.16.900,vbt_B2_day1,2022.2.4,MacIntel,8.333333333,,,,,,,,,,,,,,,,,,,0.005434783,-0.213043478,1,0,0,1.117,2,4,56,3,1,d,images/br_d.png,images/cb_d.png,,,,,,,,,,,,,,,,,,,,,,,,,
,,,,,,,2023-08-16_20h32.16.900,vbt_B2_day1,2022.2.4,MacIntel,8.333333333,,,,,,,,,,,,,,,,,,,-0.010869565,-0.192391304,1,0,0,1.25,2,5,57,20,1,u,images/br_u.png,images/cb_u.png,,,,,,,,,,,,,,,,,,,,,,,,,
,,,,,,,2023-08-16_20h32.16.900,vbt_B2_day1,2022.2.4,MacIntel,8.333333333,,,,,,,,,,,,,,,,,,,0.014130435,-0.143478261,1,0,0,4.234,2,6,58,17,1,r,images/br_r.png,images/cb_r.png,,,,,,,,,,,,,,,,,,,,,,,,,
,,,,,,,2023-08-16_20h32.16.900,vbt_B2_day1,2022.2.4,MacIntel,8.333333333,,,,,,,,,,,,,,,,,,,0.013043478,-0.189130435,1,0,0,1.016,2,7,59,24,1,y,images/br_y.png,images/cb_y.png,,,,,,,,,,,,,,,,,,,,,,,,,
,,,,,,,2023-08-16_20h32.16.900,vbt_B2_day1,2022.2.4,MacIntel,8.333333333,,,,,,,,,,,,,,,,,,,0.013043478,-0.215217391,1,0,0,6.083,2,8,60,16,1,q,images/br_q.png,images/cb_q.png,,,,,,,,,,,,,,,,,,,,,,,,,
,,,,,,,2023-08-16_20h32.16.900,vbt_B2_day1,2022.2.4,MacIntel,8.333333333,,,,,,,,,,,,,,,,,,,0.013043478,-0.215217391,1,0,0,0.4,2,9,61,21,1,v,images/br_v.png,images/cb_v.png,,,,,,,,,,,,,,,,,,,,,,,,,
,,,,,,,2023-08-16_20h32.16.900,vbt_B2_day1,2022.2.4,MacIntel,8.333333333,,,,,,,,,,,,,,,,,,,0.014130435,-0.235869565,1,0,0,0.051,2,10,62,1,1,b,images/br_b.png,images/cb_b.png,,,,,,,,,,,,,,,,,,,,,,,,,
,,,,,,,2023-08-16_20h32.16.900,vbt_B2_day1,2022.2.4,MacIntel,8.333333333,,,,,,,,,,,,,,,,,,,0,-0.217391304,1,0,0,0.049,2,11,63,19,1,t,images/br_t.png,images/cb_t.png,,,,,,,,,,,,,,,,,,,,,,,,,
,,,,,,,2023-08-16_20h32.16.900,vbt_B2_day1,2022.2.4,MacIntel,8.333333333,,,,,,,,,,,,,,,,,,,0,-0.217391304,1,0,0,42.365,2,12,64,2,1,c,images/br_c.png,images/cb_c.png,,,,,,,,,,,,,,,,,,,,,,,,,
,,,,,,,2023-08-16_20h32.16.900,vbt_B2_day1,2022.2.4,MacIntel,8.333333333,,,,,,,,,,,,,,,,,,,0.011956522,-0.227173913,1,0,0,0.234,2,13,65,4,1,e,images/br_e.png,images/cb_e.png,,,,,,,,,,,,,,,,,,,,,,,,,
,,,,,,,2023-08-16_20h32.16.900,vbt_B2_day1,2022.2.4,MacIntel,8.333333333,,,,,,,,,,,,,,,,,,,0,-0.208695652,1,0,0,0.734,2,14,66,18,1,s,images/br_s.png,images/cb_s.png,,,,,,,,,,,,,,,,,,,,,,,,,
,,,,,,,2023-08-16_20h32.16.900,vbt_B2_day1,2022.2.4,MacIntel,8.333333333,,,,,,,,,,,,,,,,,,,0,-0.208695652,1,0,0,0.8,2,15,67,6,1,g,images/br_g.png,images/cb_g.png,,,,,,,,,,,,,,,,,,,,,,,,,
,,,,,,,2023-08-16_20h32.16.900,vbt_B2_day1,2022.2.4,MacIntel,8.333333333,,,,,,,,,,,,,,,,,,,0,-0.208695652,1,0,0,1.65,2,16,68,9,1,j,images/br_j.png,images/cb_j.png,,,,,,,,,,,,,,,,,,,,,,,,,
,,,,,,,2023-08-16_20h32.16.900,vbt_B2_day1,2022.2.4,MacIntel,8.333333333,,,,,,,,,,,,,,,,,,,0,-0.208695652,1,0,0,0.434,2,17,69,25,1,z,images/br_z.png,images/cb_z.png,,,,,,,,,,,,,,,,,,,,,,,,,
,,,,,,,2023-08-16_20h32.16.900,vbt_B2_day1,2022.2.4,MacIntel,8.333333333,,,,,,,,,,,,,,,,,,,0,-0.208695652,1,0,0,3.166,2,18,70,10,1,k,images/br_k.png,images/cb_k.png,,,,,,,,,,,,,,,,,,,,,,,,,
,,,,,,,2023-08-16_20h32.16.900,vbt_B2_day1,2022.2.4,MacIntel,8.333333333,,,,,,,,,,,,,,,,,,,0.025,-0.233695652,1,0,0,0.383,2,19,71,0,1,a,images/br_a.png,images/cb_a.png,,,,,,,,,,,,,,,,,,,,,,,,,
,,,,,,,2023-08-16_20h32.16.900,vbt_B2_day1,2022.2.4,MacIntel,8.333333333,,,,,,,,,,,,,,,,,,,-0.004347826,-0.197826087,1,0,0,0.433,2,20,72,5,1,f,images/br_f.png,images/cb_f.png,,,,,,,,,,,,,,,,,,,,,,,,,
,,,,,,,2023-08-16_20h32.16.900,vbt_B2_day1,2022.2.4,MacIntel,8.333333333,,,,,,,,,,,,,,,,,,,-0.004347826,-0.197826087,1,0,0,0.3,2,21,73,13,1,n,images/br_n.png,images/cb_n.png,,,,,,,,,,,,,,,,,,,,,,,,,
,,,,,,,2023-08-16_20h32.16.900,vbt_B2_day1,2022.2.4,MacIntel,8.333333333,,,,,,,,,,,,,,,,,,,-0.004347826,-0.197826087,1,0,0,1.334,2,22,74,8,1,i,images/br_i.png,images/cb_i.png,,,,,,,,,,,,,,,,,,,,,,,,,
,,,,,,,2023-08-16_20h32.16.900,vbt_B2_day1,2022.2.4,MacIntel,8.333333333,,,,,,,,,,,,,,,,,,,-0.004347826,-0.197826087,1,0,0,0.334,2,23,75,23,1,x,images/br_x.png,images/cb_x.png,,,,,,,,,,,,,,,,,,,,,,,,,
,,,,,,,2023-08-16_20h32.16.900,vbt_B2_day1,2022.2.4,MacIntel,8.333333333,,,,,,,,,,,,,,,,,,,-0.004347826,-0.197826087,1,0,0,1.567,2,24,76,11,1,l,images/br_l.png,images/cb_l.png,,,,,,,,,,,,,,,,,,,,,,,,,
,,,,,,,2023-08-16_20h32.16.900,vbt_B2_day1,2022.2.4,MacIntel,8.333333333,,,,,,,,,,,,,,,,,,,-0.004347826,-0.197826087,1,0,0,1.717,2,25,77,12,1,m,images/br_m.png,images/cb_m.png,,,,,,,,,,,,,,,,,,,,,,,,,
,,,,,,,2023-08-16_20h32.16.900,vbt_B2_day1,2022.2.4,MacIntel,8.333333333,,,,,,,,,,,,,,,,,,,-0.004347826,-0.197826087,1,0,0,0.383,3,0,78,5,1,f,images/br_f.png,images/cb_f.png,,,,,,,,,,,,,,,,,,,,,,,,,
,,,,,,,2023-08-16_20h32.16.900,vbt_B2_day1,2022.2.4,MacIntel,8.333333333,,,,,,,,,,,,,,,,,,,-0.004347826,-0.197826087,1,0,0,2.184,3,1,79,17,1,r,images/br_r.png,images/cb_r.png,,,,,,,,,,,,,,,,,,,,,,,,,
,,,,,,,2023-08-16_20h32.16.900,vbt_B2_day1,2022.2.4,MacIntel,8.333333333,,,,,,,,,,,,,,,,,,,-0.005434783,-0.197826087,1,0,0,0.45,3,2,80,2,1,c,images/br_c.png,images/cb_c.png,,,,,,,,,,,,,,,,,,,,,,,,,
,,,,,,,2023-08-16_20h32.16.900,vbt_B2_day1,2022.2.4,MacIntel,8.333333333,,,,,,,,,,,,,,,,,,,-0.005434783,-0.197826087,1,0,0,3.067,3,3,81,9,1,j,images/br_j.png,images/cb_j.png,,,,,,,,,,,,,,,,,,,,,,,,,
,,,,,,,2023-08-16_20h32.16.900,vbt_B2_day1,2022.2.4,MacIntel,8.333333333,,,,,,,,,,,,,,,,,,,0.010869565,-0.211956522,1,0,0,0.451,3,4,82,13,1,n,images/br_n.png,images/cb_n.png,,,,,,,,,,,,,,,,,,,,,,,,,
,,,,,,,2023-08-16_20h32.16.900,vbt_B2_day1,2022.2.4,MacIntel,8.333333333,,,,,,,,,,,,,,,,,,,0.010869565,-0.211956522,1,0,0,0.383,3,5,83,12,1,m,images/br_m.png,images/cb_m.png,,,,,,,,,,,,,,,,,,,,,,,,,
,,,,,,,2023-08-16_20h32.16.900,vbt_B2_day1,2022.2.4,MacIntel,8.333333333,,,,,,,,,,,,,,,,,,,0.010869565,-0.211956522,1,0,0,0.883,3,6,84,3,1,d,images/br_d.png,images/cb_d.png,,,,,,,,,,,,,,,,,,,,,,,,,
,,,,,,,2023-08-16_20h32.16.900,vbt_B2_day1,2022.2.4,MacIntel,8.333333333,,,,,,,,,,,,,,,,,,,0.010869565,-0.211956522,1,0,0,0.083,3,7,85,10,1,k,images/br_k.png,images/cb_k.png,,,,,,,,,,,,,,,,,,,,,,,,,
,,,,,,,2023-08-16_20h32.16.900,vbt_B2_day1,2022.2.4,MacIntel,8.333333333,,,,,,,,,,,,,,,,,,,0.010869565,-0.211956522,1,0,0,0.433,3,8,86,0,1,a,images/br_a.png,images/cb_a.png,,,,,,,,,,,,,,,,,,,,,,,,,
,,,,,,,2023-08-16_20h32.16.900,vbt_B2_day1,2022.2.4,MacIntel,8.333333333,,,,,,,,,,,,,,,,,,,0.010869565,-0.211956522,1,0,0,0.383,3,9,87,11,1,l,images/br_l.png,images/cb_l.png,,,,,,,,,,,,,,,,,,,,,,,,,
,,,,,,,2023-08-16_20h32.16.900,vbt_B2_day1,2022.2.4,MacIntel,8.333333333,,,,,,,,,,,,,,,,,,,0.010869565,-0.211956522,1,0,0,0.234,3,10,88,1,1,b,images/br_b.png,images/cb_b.png,,,,,,,,,,,,,,,,,,,,,,,,,
,,,,,,,2023-08-16_20h32.16.900,vbt_B2_day1,2022.2.4,MacIntel,8.333333333,,,,,,,,,,,,,,,,,,,0.010869565,-0.211956522,1,0,0,0.133,3,11,89,18,1,s,images/br_s.png,images/cb_s.png,,,,,,,,,,,,,,,,,,,,,,,,,
,,,,,,,2023-08-16_20h32.16.900,vbt_B2_day1,2022.2.4,MacIntel,8.333333333,,,,,,,,,,,,,,,,,,,0.010869565,-0.211956522,1,0,0,0.133,3,12,90,14,1,o,images/br_o.png,images/cb_o.png,,,,,,,,,,,,,,,,,,,,,,,,,
,,,,,,,2023-08-16_20h32.16.900,vbt_B2_day1,2022.2.4,MacIntel,8.333333333,,,,,,,,,,,,,,,,,,,0.010869565,-0.211956522,1,0,0,1.6,3,13,91,15,1,p,images/br_p.png,images/cb_p.png,,,,,,,,,,,,,,,,,,,,,,,,,
,,,,,,,2023-08-16_20h32.16.900,vbt_B2_day1,2022.2.4,MacIntel,8.333333333,,,,,,,,,,,,,,,,,,,0.010869565,-0.211956522,1,0,0,0.083,3,14,92,6,1,g,images/br_g.png,images/cb_g.png,,,,,,,,,,,,,,,,,,,,,,,,,
,,,,,,,2023-08-16_20h32.16.900,vbt_B2_day1,2022.2.4,MacIntel,8.333333333,,,,,,,,,,,,,,,,,,,0.010869565,-0.211956522,1,0,0,0.117,3,15,93,19,1,t,images/br_t.png,images/cb_t.png,,,,,,,,,,,,,,,,,,,,,,,,,
,,,,,,,2023-08-16_20h32.16.900,vbt_B2_day1,2022.2.4,MacIntel,8.333333333,,,,,,,,,,,,,,,,,,,0.010869565,-0.211956522,1,0,0,0.35,3,16,94,7,1,h,images/br_h.png,images/cb_h.png,,,,,,,,,,,,,,,,,,,,,,,,,
,,,,,,,2023-08-16_20h32.16.900,vbt_B2_day1,2022.2.4,MacIntel,8.333333333,,,,,,,,,,,,,,,,,,,0.010869565,-0.211956522,1,0,0,0.25,3,17,95,20,1,u,images/br_u.png,images/cb_u.png,,,,,,,,,,,,,,,,,,,,,,,,,
,,,,,,,2023-08-16_20h32.16.900,vbt_B2_day1,2022.2.4,MacIntel,8.333333333,,,,,,,,,,,,,,,,,,,0.010869565,-0.211956522,1,0,0,0.217,3,18,96,4,1,e,images/br_e.png,images/cb_e.png,,,,,,,,,,,,,,,,,,,,,,,,,
,,,,,,,2023-08-16_20h32.16.900,vbt_B2_day1,2022.2.4,MacIntel,8.333333333,,,,,,,,,,,,,,,,,,,0.010869565,-0.211956522,1,0,0,0.317,3,19,97,25,1,z,images/br_z.png,images/cb_z.png,,,,,,,,,,,,,,,,,,,,,,,,,
,,,,,,,2023-08-16_20h32.16.900,vbt_B2_day1,2022.2.4,MacIntel,8.333333333,,,,,,,,,,,,,,,,,,,0.010869565,-0.211956522,1,0,0,0.316,3,20,98,24,1,y,images/br_y.png,images/cb_y.png,,,,,,,,,,,,,,,,,,,,,,,,,
,,,,,,,2023-08-16_20h32.16.900,vbt_B2_day1,2022.2.4,MacIntel,8.333333333,,,,,,,,,,,,,,,,,,,0.010869565,-0.211956522,1,0,0,9.433,3,21,99,22,1,w,images/br_w.png,images/cb_w.png,,,,,,,,,,,,,,,,,,,,,,,,,
,,,,,,,2023-08-16_20h32.16.900,vbt_B2_day1,2022.2.4,MacIntel,8.333333333,,,,,,,,,,,,,,,,,,,0.010869565,-0.211956522,1,0,0,0.332,3,22,100,21,1,v,images/br_v.png,images/cb_v.png,,,,,,,,,,,,,,,,,,,,,,,,,
,,,,,,,2023-08-16_20h32.16.900,vbt_B2_day1,2022.2.4,MacIntel,8.333333333,,,,,,,,,,,,,,,,,,,0.010869565,-0.211956522,1,0,0,0.099,3,23,101,16,1,q,images/br_q.png,images/cb_q.png,,,,,,,,,,,,,,,,,,,,,,,,,
,,,,,,,2023-08-16_20h32.16.900,vbt_B2_day1,2022.2.4,MacIntel,8.333333333,,,,,,,,,,,,,,,,,,,0.010869565,-0.211956522,1,0,0,0.384,3,24,102,23,1,x,images/br_x.png,images/cb_x.png,,,,,,,,,,,,,,,,,,,,,,,,,
,,,,,,,2023-08-16_20h32.16.900,vbt_B2_day1,2022.2.4,MacIntel,8.333333333,,,,,,,,,,,,,,,,,,,0.010869565,-0.211956522,1,0,0,0.099,3,25,103,8,1,i,images/br_i.png,images/cb_i.png,,,,,,,,,,,,,,,,,,,,,,,,,
,,,,,,,2023-08-16_20h32.16.900,vbt_B2_day1,2022.2.4,MacIntel,8.333333333,,,,,,,,,,,,,,,,,,,0.010869565,-0.211956522,1,0,0,2.349,4,0,104,22,1,w,images/br_w.png,images/cb_w.png,,,,,,,,,,,,,,,,,,,,,,,,,
,,,,,,,2023-08-16_20h32.16.900,vbt_B2_day1,2022.2.4,MacIntel,8.333333333,,,,,,,,,,,,,,,,,,,0.010869565,-0.211956522,1,0,0,1.6,4,1,105,7,1,h,images/br_h.png,images/cb_h.png,,,,,,,,,,,,,,,,,,,,,,,,,
,,,,,,,2023-08-16_20h32.16.900,vbt_B2_day1,2022.2.4,MacIntel,8.333333333,,,,,,,,,,,,,,,,,,,0.010869565,-0.211956522,1,0,0,0.284,4,2,106,24,1,y,images/br_y.png,images/cb_y.png,,,,,,,,,,,,,,,,,,,,,,,,,
,,,,,,,2023-08-16_20h32.16.900,vbt_B2_day1,2022.2.4,MacIntel,8.333333333,,,,,,,,,,,,,,,,,,,0.010869565,-0.211956522,1,0,0,0.3,4,3,107,14,1,o,images/br_o.png,images/cb_o.png,,,,,,,,,,,,,,,,,,,,,,,,,
,,,,,,,2023-08-16_20h32.16.900,vbt_B2_day1,2022.2.4,MacIntel,8.333333333,,,,,,,,,,,,,,,,,,,0.011956522,-0.211956522,1,0,0,0.05,4,4,108,2,1,c,images/br_c.png,images/cb_c.png,,,,,,,,,,,,,,,,,,,,,,,,,
,,,,,,,2023-08-16_20h32.16.900,vbt_B2_day1,2022.2.4,MacIntel,8.333333333,,,,,,,,,,,,,,,,,,,0.011956522,-0.213043478,1,0,0,0.55,4,5,109,18,1,s,images/br_s.png,images/cb_s.png,,,,,,,,,,,,,,,,,,,,,,,,,
,,,,,,,2023-08-16_20h32.16.900,vbt_B2_day1,2022.2.4,MacIntel,8.333333333,,,,,,,,,,,,,,,,,,,0.011956522,-0.213043478,1,0,0,1.267,4,6,110,9,1,j,images/br_j.png,images/cb_j.png,,,,,,,,,,,,,,,,,,,,,,,,,
,,,,,,,2023-08-16_20h32.16.900,vbt_B2_day1,2022.2.4,MacIntel,8.333333333,,,,,,,,,,,,,,,,,,,0.011956522,-0.213043478,1,0,0,0.284,4,7,111,16,1,q,images/br_q.png,images/cb_q.png,,,,,,,,,,,,,,,,,,,,,,,,,
,,,,,,,2023-08-16_20h32.16.900,vbt_B2_day1,2022.2.4,MacIntel,8.333333333,,,,,,,,,,,,,,,,,,,0.011956522,-0.213043478,1,0,0,2.283,4,8,112,3,1,d,images/br_d.png,images/cb_d.png,,,,,,,,,,,,,,,,,,,,,,,,,
,,,,,,,2023-08-16_20h32.16.900,vbt_B2_day1,2022.2.4,MacIntel,8.333333333,,,,,,,,,,,,,,,,,,,0.011956522,-0.213043478,1,0,0,0.316,4,9,113,15,1,p,images/br_p.png,images/cb_p.png,,,,,,,,,,,,,,,,,,,,,,,,,
,,,,,,,2023-08-16_20h32.16.900,vbt_B2_day1,2022.2.4,MacIntel,8.333333333,,,,,,,,,,,,,,,,,,,0.011956522,-0.213043478,1,0,0,3.649,4,10,114,0,1,a,images/br_a.png,images/cb_a.png,,,,,,,,,,,,,,,,,,,,,,,,,
,,,,,,,2023-08-16_20h32.16.900,vbt_B2_day1,2022.2.4,MacIntel,8.333333333,,,,,,,,,,,,,,,,,,,0.011956522,-0.213043478,1,0,0,0.283,4,11,115,12,1,m,images/br_m.png,images/cb_m.png,,,,,,,,,,,,,,,,,,,,,,,,,
,,,,,,,2023-08-16_20h32.16.900,vbt_B2_day1,2022.2.4,MacIntel,8.333333333,,,,,,,,,,,,,,,,,,,0.011956522,-0.213043478,1,0,0,0.032,4,12,116,11,1,l,images/br_l.png,images/cb_l.png,,,,,,,,,,,,,,,,,,,,,,,,,
,,,,,,,2023-08-16_20h32.16.900,vbt_B2_day1,2022.2.4,MacIntel,8.333333333,,,,,,,,,,,,,,,,,,,0.011956522,-0.213043478,1,0,0,0.016,4,13,117,19,1,t,images/br_t.png,images/cb_t.png,,,,,,,,,,,,,,,,,,,,,,,,,
,,,,,,,2023-08-16_20h32.16.900,vbt_B2_day1,2022.2.4,MacIntel,8.333333333,,,,,,,,,,,,,,,,,,,0.011956522,-0.213043478,1,0,0,2.351,4,14,118,4,1,e,images/br_e.png,images/cb_e.png,,,,,,,,,,,,,,,,,,,,,,,,,
,,,,,,,2023-08-16_20h32.16.900,vbt_B2_day1,2022.2.4,MacIntel,8.333333333,,,,,,,,,,,,,,,,,,,0.005434783,-0.198913043,1,0,0,1.651,4,15,119,21,1,v,images/br_v.png,images/cb_v.png,,,,,,,,,,,,,,,,,,,,,,,,,
,,,,,,,2023-08-16_20h32.16.900,vbt_B2_day1,2022.2.4,MacIntel,8.333333333,,,,,,,,,,,,,,,,,,,0.005434783,-0.198913043,1,0,0,0.133,4,16,120,6,1,g,images/br_g.png,images/cb_g.png,,,,,,,,,,,,,,,,,,,,,,,,,
,,,,,,,2023-08-16_20h32.16.900,vbt_B2_day1,2022.2.4,MacIntel,8.333333333,,,,,,,,,,,,,,,,,,,0.005434783,-0.198913043,1,0,0,0.433,4,17,121,8,1,i,images/br_i.png,images/cb_i.png,,,,,,,,,,,,,,,,,,,,,,,,,
,,,,,,,2023-08-16_20h32.16.900,vbt_B2_day1,2022.2.4,MacIntel,8.333333333,,,,,,,,,,,,,,,,,,,0.005434783,-0.198913043,1,0,0,0.549,4,18,122,10,1,k,images/br_k.png,images/cb_k.png,,,,,,,,,,,,,,,,,,,,,,,,,
,,,,,,,2023-08-16_20h32.16.900,vbt_B2_day1,2022.2.4,MacIntel,8.333333333,,,,,,,,,,,,,,,,,,,0.005434783,-0.198913043,1,0,0,0.15,4,19,123,17,1,r,images/br_r.png,images/cb_r.png,,,,,,,,,,,,,,,,,,,,,,,,,
,,,,,,,2023-08-16_20h32.16.900,vbt_B2_day1,2022.2.4,MacIntel,8.333333333,,,,,,,,,,,,,,,,,,,0.005434783,-0.198913043,1,0,0,0.367,4,20,124,23,1,x,images/br_x.png,images/cb_x.png,,,,,,,,,,,,,,,,,,,,,,,,,
,,,,,,,2023-08-16_20h32.16.900,vbt_B2_day1,2022.2.4,MacIntel,8.333333333,,,,,,,,,,,,,,,,,,,0.005434783,-0.198913043,1,0,0,0.368,4,21,125,13,1,n,images/br_n.png,images/cb_n.png,,,,,,,,,,,,,,,,,,,,,,,,,
,,,,,,,2023-08-16_20h32.16.900,vbt_B2_day1,2022.2.4,MacIntel,8.333333333,,,,,,,,,,,,,,,,,,,0.005434783,-0.198913043,1,0,0,0.133,4,22,126,25,1,z,images/br_z.png,images/cb_z.png,,,,,,,,,,,,,,,,,,,,,,,,,
,,,,,,,2023-08-16_20h32.16.900,vbt_B2_day1,2022.2.4,MacIntel,8.333333333,,,,,,,,,,,,,,,,,,,0.005434783,-0.198913043,1,0,0,0.367,4,23,127,5,1,f,images/br_f.png,images/cb_f.png,,,,,,,,,,,,,,,,,,,,,,,,,
,,,,,,,2023-08-16_20h32.16.900,vbt_B2_day1,2022.2.4,MacIntel,8.333333333,,,,,,,,,,,,,,,,,,,0.005434783,-0.198913043,1,0,0,0.149,4,24,128,1,1,b,images/br_b.png,images/cb_b.png,,,,,,,,,,,,,,,,,,,,,,,,,
,,,,,,,2023-08-16_20h32.16.900,vbt_B2_day1,2022.2.4,MacIntel,8.333333333,,,,,,,,,,,,,,,,,,,0.005434783,-0.198913043,1,0,0,0.35,4,25,129,20,1,u,images/br_u.png,images/cb_u.png,,,,,,,,,,,,,,,,,,,,,,,,,
,,,,,,,2023-08-16_20h32.16.900,vbt_B2_day1,2022.2.4,MacIntel,8.333333333,,,,,,,,,,,,,,,,,,,0.004347826,-0.20326087,1,0,0,0.499,5,0,130,11,1,l,images/br_l.png,images/cb_l.png,,,,,,,,,,,,,,,,,,,,,,,,,
,,,,,,,2023-08-16_20h32.16.900,vbt_B2_day1,2022.2.4,MacIntel,8.333333333,,,,,,,,,,,,,,,,,,,0.004347826,-0.20326087,1,0,0,0.85,5,1,131,16,1,q,images/br_q.png,images/cb_q.png,,,,,,,,,,,,,,,,,,,,,,,,,
,,,,,,,2023-08-16_20h32.16.900,vbt_B2_day1,2022.2.4,MacIntel,8.333333333,,,,,,,,,,,,,,,,,,,0.004347826,-0.20326087,1,0,0,0.282,5,2,132,19,1,t,images/br_t.png,images/cb_t.png,,,,,,,,,,,,,,,,,,,,,,,,,
,,,,,,,2023-08-16_20h32.16.900,vbt_B2_day1,2022.2.4,MacIntel,8.333333333,,,,,,,,,,,,,,,,,,,0.004347826,-0.20326087,1,0,0,0.349,5,3,133,10,1,k,images/br_k.png,images/cb_k.png,,,,,,,,,,,,,,,,,,,,,,,,,
,,,,,,,2023-08-16_20h32.16.900,vbt_B2_day1,2022.2.4,MacIntel,8.333333333,,,,,,,,,,,,,,,,,,,0.00326087,-0.20326087,1,0,0,0.516,5,4,134,20,1,u,images/br_u.png,images/cb_u.png,,,,,,,,,,,,,,,,,,,,,,,,,
,,,,,,,2023-08-16_20h32.16.900,vbt_B2_day1,2022.2.4,MacIntel,8.333333333,,,,,,,,,,,,,,,,,,,0.00326087,-0.20326087,1,0,0,0.366,5,5,135,21,1,v,images/br_v.png,images/cb_v.png,,,,,,,,,,,,,,,,,,,,,,,,,
,,,,,,,2023-08-16_20h32.16.900,vbt_B2_day1,2022.2.4,MacIntel,8.333333333,,,,,,,,,,,,,,,,,,,0.00326087,-0.20326087,1,0,0,0.15,5,6,136,17,1,r,images/br_r.png,images/cb_r.png,,,,,,,,,,,,,,,,,,,,,,,,,
,,,,,,,2023-08-16_20h32.16.900,vbt_B2_day1,2022.2.4,MacIntel,8.333333333,,,,,,,,,,,,,,,,,,,0.00326087,-0.20326087,1,0,0,0.1,5,7,137,13,1,n,images/br_n.png,images/cb_n.png,,,,,,,,,,,,,,,,,,,,,,,,,
,,,,,,,2023-08-16_20h32.16.900,vbt_B2_day1,2022.2.4,MacIntel,8.333333333,,,,,,,,,,,,,,,,,,,0.00326087,-0.20326087,1,0,0,0.184,5,8,138,1,1,b,images/br_b.png,images/cb_b.png,,,,,,,,,,,,,,,,,,,,,,,,,
,,,,,,,2023-08-16_20h32.16.900,vbt_B2_day1,2022.2.4,MacIntel,8.333333333,,,,,,,,,,,,,,,,,,,0.00326087,-0.20326087,1,0,0,0.6,5,9,139,14,1,o,images/br_o.png,images/cb_o.png,,,,,,,,,,,,,,,,,,,,,,,,,
,,,,,,,2023-08-16_20h32.16.900,vbt_B2_day1,2022.2.4,MacIntel,8.333333333,,,,,,,,,,,,,,,,,,,0.00326087,-0.20326087,1,0,0,0.201,5,10,140,9,1,j,images/br_j.png,images/cb_j.png,,,,,,,,,,,,,,,,,,,,,,,,,
,,,,,,,2023-08-16_20h32.16.900,vbt_B2_day1,2022.2.4,MacIntel,8.333333333,,,,,,,,,,,,,,,,,,,0.00326087,-0.20326087,1,0,0,0.233,5,11,141,7,1,h,images/br_h.png,images/cb_h.png,,,,,,,,,,,,,,,,,,,,,,,,,
,,,,,,,2023-08-16_20h32.16.900,vbt_B2_day1,2022.2.4,MacIntel,8.333333333,,,,,,,,,,,,,,,,,,,0.00326087,-0.20326087,1,0,0,0.067,5,12,142,3,1,d,images/br_d.png,images/cb_d.png,,,,,,,,,,,,,,,,,,,,,,,,,
,,,,,,,2023-08-16_20h32.16.900,vbt_B2_day1,2022.2.4,MacIntel,8.333333333,,,,,,,,,,,,,,,,,,,0.00326087,-0.20326087,1,0,0,0.316,5,13,143,4,1,e,images/br_e.png,images/cb_e.png,,,,,,,,,,,,,,,,,,,,,,,,,
,,,,,,,2023-08-16_20h32.16.900,vbt_B2_day1,2022.2.4,MacIntel,8.333333333,,,,,,,,,,,,,,,,,,,0.00326087,-0.20326087,1,0,0,0.134,5,14,144,15,1,p,images/br_p.png,images/cb_p.png,,,,,,,,,,,,,,,,,,,,,,,,,
,,,,,,,2023-08-16_20h32.16.900,vbt_B2_day1,2022.2.4,MacIntel,8.333333333,,,,,,,,,,,,,,,,,,,0.00326087,-0.20326087,1,0,0,0.234,5,15,145,25,1,z,images/br_z.png,images/cb_z.png,,,,,,,,,,,,,,,,,,,,,,,,,
,,,,,,,2023-08-16_20h32.16.900,vbt_B2_day1,2022.2.4,MacIntel,8.333333333,,,,,,,,,,,,,,,,,,,0.00326087,-0.20326087,1,0,0,0.499,5,16,146,18,1,s,images/br_s.png,images/cb_s.png,,,,,,,,,,,,,,,,,,,,,,,,,
,,,,,,,2023-08-16_20h32.16.900,vbt_B2_day1,2022.2.4,MacIntel,8.333333333,,,,,,,,,,,,,,,,,,,0.00326087,-0.20326087,1,0,0,0.151,5,17,147,5,1,f,images/br_f.png,images/cb_f.png,,,,,,,,,,,,,,,,,,,,,,,,,
,,,,,,,2023-08-16_20h32.16.900,vbt_B2_day1,2022.2.4,MacIntel,8.333333333,,,,,,,,,,,,,,,,,,,0.00326087,-0.20326087,1,0,0,0.351,5,18,148,23,1,x,images/br_x.png,images/cb_x.png,,,,,,,,,,,,,,,,,,,,,,,,,
,,,,,,,2023-08-16_20h32.16.900,vbt_B2_day1,2022.2.4,MacIntel,8.333333333,,,,,,,,,,,,,,,,,,,0.00326087,-0.20326087,1,0,0,0.033,5,19,149,6,1,g,images/br_g.png,images/cb_g.png,,,,,,,,,,,,,,,,,,,,,,,,,
,,,,,,,2023-08-16_20h32.16.900,vbt_B2_day1,2022.2.4,MacIntel,8.333333333,,,,,,,,,,,,,,,,,,,0.00326087,-0.20326087,1,0,0,0.517,5,20,150,22,1,w,images/br_w.png,images/cb_w.png,,,,,,,,,,,,,,,,,,,,,,,,,
,,,,,,,2023-08-16_20h32.16.900,vbt_B2_day1,2022.2.4,MacIntel,8.333333333,,,,,,,,,,,,,,,,,,,0.00326087,-0.20326087,1,0,0,0.317,5,21,151,2,1,c,images/br_c.png,images/cb_c.png,,,,,,,,,,,,,,,,,,,,,,,,,
,,,,,,,2023-08-16_20h32.16.900,vbt_B2_day1,2022.2.4,MacIntel,8.333333333,,,,,,,,,,,,,,,,,,,0.00326087,-0.20326087,1,0,0,2.884,5,22,152,8,1,i,images/br_i.png,images/cb_i.png,,,,,,,,,,,,,,,,,,,,,,,,,
,,,,,,,2023-08-16_20h32.16.900,vbt_B2_day1,2022.2.4,MacIntel,8.333333333,,,,,,,,,,,,,,,,,,,0.00326087,-0.202173913,1,0,0,0.15,5,23,153,0,1,a,images/br_a.png,images/cb_a.png,,,,,,,,,,,,,,,,,,,,,,,,,
,,,,,,,2023-08-16_20h32.16.900,vbt_B2_day1,2022.2.4,MacIntel,8.333333333,,,,,,,,,,,,,,,,,,,0.00326087,-0.202173913,1,0,0,0.084,5,24,154,24,1,y,images/br_y.png,images/cb_y.png,,,,,,,,,,,,,,,,,,,,,,,,,
,,,,,,,2023-08-16_20h32.16.900,vbt_B2_day1,2022.2.4,MacIntel,8.333333333,,,,,,,,,,,,,,,,,,,0.00326087,-0.202173913,1,0,0,0.835,5,25,155,12,1,m,images/br_m.png,images/cb_m.png,,,,,,,,,,,,,,,,,,,,,,,,,
,,,,,,,2023-08-16_20h32.16.900,vbt_B2_day1,2022.2.4,MacIntel,8.333333333,,,,,,,,,,,,,,,,,,,0.00326087,-0.202173913,1,0,0,0.1,6,0,156,11,1,l,images/br_l.png,images/cb_l.png,,,,,,,,,,,,,,,,,,,,,,,,,
,,,,,,,2023-08-16_20h32.16.900,vbt_B2_day1,2022.2.4,MacIntel,8.333333333,,,,,,,,,,,,,,,,,,,0.00326087,-0.202173913,1,0,0,0.217,6,1,157,0,1,a,images/br_a.png,images/cb_a.png,,,,,,,,,,,,,,,,,,,,,,,,,
,,,,,,,2023-08-16_20h32.16.900,vbt_B2_day1,2022.2.4,MacIntel,8.333333333,,,,,,,,,,,,,,,,,,,0.00326087,-0.202173913,1,0,0,0.084,6,2,158,7,1,h,images/br_h.png,images/cb_h.png,,,,,,,,,,,,,,,,,,,,,,,,,
,,,,,,,2023-08-16_20h32.16.900,vbt_B2_day1,2022.2.4,MacIntel,8.333333333,,,,,,,,,,,,,,,,,,,0.00326087,-0.202173913,1,0,0,0.032,6,3,159,12,1,m,images/br_m.png,images/cb_m.png,,,,,,,,,,,,,,,,,,,,,,,,,
,,,,,,,2023-08-16_20h32.16.900,vbt_B2_day1,2022.2.4,MacIntel,8.333333333,,,,,,,,,,,,,,,,,,,0.00326087,-0.202173913,1,0,0,0.316,6,4,160,2,1,c,images/br_c.png,images/cb_c.png,,,,,,,,,,,,,,,,,,,,,,,,,
,,,,,,,2023-08-16_20h32.16.900,vbt_B2_day1,2022.2.4,MacIntel,8.333333333,,,,,,,,,,,,,,,,,,,0.00326087,-0.202173913,1,0,0,0.118,6,5,161,22,1,w,images/br_w.png,images/cb_w.png,,,,,,,,,,,,,,,,,,,,,,,,,
,,,,,,,2023-08-16_20h32.16.900,vbt_B2_day1,2022.2.4,MacIntel,8.333333333,,,,,,,,,,,,,,,,,,,0.00326087,-0.202173913,1,0,0,0.484,6,6,162,5,1,f,images/br_f.png,images/cb_f.png,,,,,,,,,,,,,,,,,,,,,,,,,
,,,,,,,2023-08-16_20h32.16.900,vbt_B2_day1,2022.2.4,MacIntel,8.333333333,,,,,,,,,,,,,,,,,,,0.00326087,-0.202173913,1,0,0,0.35,6,7,163,25,1,z,images/br_z.png,images/cb_z.png,,,,,,,,,,,,,,,,,,,,,,,,,
,,,,,,,2023-08-16_20h32.16.900,vbt_B2_day1,2022.2.4,MacIntel,8.333333333,,,,,,,,,,,,,,,,,,,0.00326087,-0.202173913,1,0,0,0.45,6,8,164,4,1,e,images/br_e.png,images/cb_e.png,,,,,,,,,,,,,,,,,,,,,,,,,
,,,,,,,2023-08-16_20h32.16.900,vbt_B2_day1,2022.2.4,MacIntel,8.333333333,,,,,,,,,,,,,,,,,,,0.00326087,-0.202173913,1,0,0,0.566,6,9,165,13,1,n,images/br_n.png,images/cb_n.png,,,,,,,,,,,,,,,,,,,,,,,,,
,,,,,,,2023-08-16_20h32.16.900,vbt_B2_day1,2022.2.4,MacIntel,8.333333333,,,,,,,,,,,,,,,,,,,0.00326087,-0.202173913,1,0,0,2.6,6,10,166,9,1,j,images/br_j.png,images/cb_j.png,,,,,,,,,,,,,,,,,,,,,,,,,
,,,,,,,2023-08-16_20h32.16.900,vbt_B2_day1,2022.2.4,MacIntel,8.333333333,,,,,,,,,,,,,,,,,,,0.00326087,-0.202173913,1,0,0,0.15,6,11,167,19,1,t,images/br_t.png,images/cb_t.png,,,,,,,,,,,,,,,,,,,,,,,,,
,,,,,,,2023-08-16_20h32.16.900,vbt_B2_day1,2022.2.4,MacIntel,8.333333333,,,,,,,,,,,,,,,,,,,0.00326087,-0.202173913,1,0,0,0.45,6,12,168,10,1,k,images/br_k.png,images/cb_k.png,,,,,,,,,,,,,,,,,,,,,,,,,
,,,,,,,2023-08-16_20h32.16.900,vbt_B2_day1,2022.2.4,MacIntel,8.333333333,,,,,,,,,,,,,,,,,,,0.00326087,-0.202173913,1,0,0,0.267,6,13,169,8,1,i,images/br_i.png,images/cb_i.png,,,,,,,,,,,,,,,,,,,,,,,,,
,,,,,,,2023-08-16_20h32.16.900,vbt_B2_day1,2022.2.4,MacIntel,8.333333333,,,,,,,,,,,,,,,,,,,0.00326087,-0.202173913,1,0,0,0.167,6,14,170,21,1,v,images/br_v.png,images/cb_v.png,,,,,,,,,,,,,,,,,,,,,,,,,
,,,,,,,2023-08-16_20h32.16.900,vbt_B2_day1,2022.2.4,MacIntel,8.333333333,,,,,,,,,,,,,,,,,,,0.00326087,-0.202173913,1,0,0,0.217,6,15,171,17,1,r,images/br_r.png,images/cb_r.png,,,,,,,,,,,,,,,,,,,,,,,,,
,,,,,,,2023-08-16_20h32.16.900,vbt_B2_day1,2022.2.4,MacIntel,8.333333333,,,,,,,,,,,,,,,,,,,0.00326087,-0.202173913,1,0,0,0.035,6,16,172,15,1,p,images/br_p.png,images/cb_p.png,,,,,,,,,,,,,,,,,,,,,,,,,
,,,,,,,2023-08-16_20h32.16.900,vbt_B2_day1,2022.2.4,MacIntel,8.333333333,,,,,,,,,,,,,,,,,,,0.00326087,-0.202173913,1,0,0,0.434,6,17,173,1,1,b,images/br_b.png,images/cb_b.png,,,,,,,,,,,,,,,,,,,,,,,,,
,,,,,,,2023-08-16_20h32.16.900,vbt_B2_day1,2022.2.4,MacIntel,8.333333333,,,,,,,,,,,,,,,,,,,0.00326087,-0.202173913,1,0,0,0.033,6,18,174,16,1,q,images/br_q.png,images/cb_q.png,,,,,,,,,,,,,,,,,,,,,,,,,
,,,,,,,2023-08-16_20h32.16.900,vbt_B2_day1,2022.2.4,MacIntel,8.333333333,,,,,,,,,,,,,,,,,,,0.00326087,-0.202173913,1,0,0,0.284,6,19,175,18,1,s,images/br_s.png,images/cb_s.png,,,,,,,,,,,,,,,,,,,,,,,,,
,,,,,,,2023-08-16_20h32.16.900,vbt_B2_day1,2022.2.4,MacIntel,8.333333333,,,,,,,,,,,,,,,,,,,0.00326087,-0.202173913,1,0,0,0.5,6,20,176,23,1,x,images/br_x.png,images/cb_x.png,,,,,,,,,,,,,,,,,,,,,,,,,
,,,,,,,2023-08-16_20h32.16.900,vbt_B2_day1,2022.2.4,MacIntel,8.333333333,,,,,,,,,,,,,,,,,,,0.00326087,-0.197826087,1,0,0,0.183,6,21,177,14,1,o,images/br_o.png,images/cb_o.png,,,,,,,,,,,,,,,,,,,,,,,,,
,,,,,,,2023-08-16_20h32.16.900,vbt_B2_day1,2022.2.4,MacIntel,8.333333333,,,,,,,,,,,,,,,,,,,0.00326087,-0.197826087,1,0,0,1.301,6,22,178,3,1,d,images/br_d.png,images/cb_d.png,,,,,,,,,,,,,,,,,,,,,,,,,
,,,,,,,2023-08-16_20h32.16.900,vbt_B2_day1,2022.2.4,MacIntel,8.333333333,,,,,,,,,,,,,,,,,,,0.002173913,-0.205434783,1,0,0,0.482,6,23,179,24,1,y,images/br_y.png,images/cb_y.png,,,,,,,,,,,,,,,,,,,,,,,,,
,,,,,,,2023-08-16_20h32.16.900,vbt_B2_day1,2022.2.4,MacIntel,8.333333333,,,,,,,,,,,,,,,,,,,0.001086957,-0.205434783,1,0,0,0.383,6,24,180,6,1,g,images/br_g.png,images/cb_g.png,,,,,,,,,,,,,,,,,,,,,,,,,
,,,,,,,2023-08-16_20h32.16.900,vbt_B2_day1,2022.2.4,MacIntel,8.333333333,,,,,,,,,,,,,,,,,,,0.001086957,-0.205434783,1,0,0,0.166,6,25,181,20,1,u,images/br_u.png,images/cb_u.png,,,,,,,,,,,,,,,,,,,,,,,,,
,,,,,,,2023-08-16_20h32.16.900,vbt_B2_day1,2022.2.4,MacIntel,8.333333333,,,,,,,,,,,,,,,,,,,,,,,,,,,,,,,,,0.001086957,-0.205434783,1,0,0,,,,,,,,,,,,,,,,,,,,
,,,,,,,2023-08-16_20h32.16.900,vbt_B2_day1,2022.2.4,MacIntel,8.333333333,,,,,,,,,,,,,,,,,,,,,,,,,,,,,,,,,,,,,,0.001086957,-0.205434783,1,0,0,,,,,,,,,,,,,,,
,,,,,,,2023-08-16_20h32.16.900,vbt_B2_day1,2022.2.4,MacIntel,8.333333333,,,,,,,,,,,,,,,,,,,,,,,,,,,,,,,,,,,,,,,,,,,-0.164130435,-0.2,1,0,0,,,0,0,0,33,1,flullen,images/br_flullen.png,images/cb_flullen.png
,,,,,,,2023-08-16_20h32.16.900,vbt_B2_day1,2022.2.4,MacIntel,8.333333333,,,,,,,,,,,,,,,,,,,,,,,,,,,,,,,,,,,,,,,,,,,-0.122826087,-0.073913043,1,0,0,dief,dief,0,1,1,40,1,dief,images/br_dief.png,images/cb_dief.png
,,,,,,,2023-08-16_20h32.16.900,vbt_B2_day1,2022.2.4,MacIntel,8.333333333,,,,,,,,,,,,,,,,,,,,,,,,,,,,,,,,,,,,,,,,,,,0.010869565,-0.179347826,1,0,0,stuik..,stuik..,0,2,2,35,1,stuikem,images/br_stuikem.png,images/cb_stuikem.png
,,,,,,,2023-08-16_20h32.16.900,vbt_B2_day1,2022.2.4,MacIntel,8.333333333,,,,,,,,,,,,,,,,,,,,,,,,,,,,,,,,,,,,,,,,,,,0.051086957,-0.206521739,1,0,0,per,per,0,3,3,36,1,vervaden,images/br_vervaden.png,images/cb_vervaden.png
,,,,,,,2023-08-16_20h32.16.900,vbt_B2_day1,2022.2.4,MacIntel,8.333333333,,,,,,,,,,,,,,,,,,,,,,,,,,,,,,,,,,,,,,,,,,,0.147826087,-0.257608696,1,0,0,meehe,meehe,0,4,4,57,1,meenemen,images/br_meenemen.png,images/cb_meenemen.png
,,,,,,,2023-08-16_20h32.16.900,vbt_B2_day1,2022.2.4,MacIntel,8.333333333,,,,,,,,,,,,,,,,,,,,,,,,,,,,,,,,,,,,,,,,,,,0.131521739,-0.219565217,1,0,0,uetd,uetd,0,5,5,18,1,uitdelen,images/br_uitdelen.png,images/cb_uitdelen.png
,,,,,,,2023-08-16_20h32.16.900,vbt_B2_day1,2022.2.4,MacIntel,8.333333333,,,,,,,,,,,,,,,,,,,,,,,,,,,,,,,,,,,,,,,,,,,0.111956522,-0.101086957,1,0,0,tekeheh,tekeheh,0,6,6,55,1,tekenen,images/br_tekenen.png,images/cb_tekenen.png
,,,,,,,2023-08-16_20h32.16.900,vbt_B2_day1,2022.2.4,MacIntel,8.333333333,,,,,,,,,,,,,,,,,,,,,,,,,,,,,,,,,,,,,,,,,,,-0.001086957,-0.175,1,0,0,opslaan,opslaan,0,7,7,53,1,opslaan,images/br_opslaan.png,images/cb_opslaan.png
,,,,,,,2023-08-16_20h32.16.900,vbt_B2_day1,2022.2.4,MacIntel,8.333333333,,,,,,,,,,,,,,,,,,,,,,,,,,,,,,,,,,,,,,,,,,,0.07826087,-0.163043478,1,0,0,men...,men...,0,8,8,11,1,mening,images/br_mening.png,images/cb_mening.png
,,,,,,,2023-08-16_20h32.16.900,vbt_B2_day1,2022.2.4,MacIntel,8.333333333,,,,,,,,,,,,,,,,,,,,,,,,,,,,,,,,,,,,,,,,,,,0.085869565,-0.004347826,1,0,0,toezicht,toezicht,0,9,9,56,1,toezicht,images/br_toezicht.png,images/cb_toezicht.png
,,,,,,,2023-08-16_20h32.16.900,vbt_B2_day1,2022.2.4,MacIntel,8.333333333,,,,,,,,,,,,,,,,,,,,,,,,,,,,,,,,,,,,,,,,,,,0.144565217,-0.047826087,1,0,0,schuilen,schuilen,0,10,10,19,1,schuilen,images/br_schuilen.png,images/cb_schuilen.png
,,,,,,,2023-08-16_20h32.16.900,vbt_B2_day1,2022.2.4,MacIntel,8.333333333,,,,,,,,,,,,,,,,,,,,,,,,,,,,,,,,,,,,,,,,,,,0.138043478,-0.055434783,1,0,0,opva...,opva...,0,11,11,59,1,opvatten,images/br_opvatten.png,images/cb_opvatten.png
,,,,,,,2023-08-16_20h32.16.900,vbt_B2_day1,2022.2.4,MacIntel,8.333333333,,,,,,,,,,,,,,,,,,,,,,,,,,,,,,,,,,,,,,,,,,,0.102173913,-0.108695652,1,0,0,wi.z.,wi.z.,0,12,12,44,1,wijze,images/br_wijze.png,images/cb_wijze.png
,,,,,,,2023-08-16_20h32.16.900,vbt_B2_day1,2022.2.4,MacIntel,8.333333333,,,,,,,,,,,,,,,,,,,,,,,,,,,,,,,,,,,,,,,,,,,0.109782609,-0.086956522,1,0,0,atten...,atten...,0,13,13,17,1,attentie,images/br_attentie.png,images/cb_attentie.png
,,,,,,,2023-08-16_20h32.16.900,vbt_B2_day1,2022.2.4,MacIntel,8.333333333,,,,,,,,,,,,,,,,,,,,,,,,,,,,,,,,,,,,,,,,,,,-0.006521739,-0.151086957,1,0,0,zuipl...,zuipl...,0,14,14,52,1,zuiplap,images/br_zuiplap.png,images/cb_zuiplap.png
,,,,,,,2023-08-16_20h32.16.900,vbt_B2_day1,2022.2.4,MacIntel,8.333333333,,,,,,,,,,,,,,,,,,,,,,,,,,,,,,,,,,,,,,,,,,,0.116304348,0.018478261,1,0,0,scheilen,scheilen,0,15,15,38,1,schielen,images/br_schielen.png,images/cb_schielen.png
,,,,,,,2023-08-16_20h32.16.900,vbt_B2_day1,2022.2.4,MacIntel,8.333333333,,,,,,,,,,,,,,,,,,,,,,,,,,,,,,,,,,,,,,,,,,,0.043478261,-0.035869565,1,0,0,opplaan,opplaan,0,16,16,32,1,opplaan,images/br_opplaan.png,images/cb_opplaan.png
,,,,,,,2023-08-16_20h32.16.900,vbt_B2_day1,2022.2.4,MacIntel,8.333333333,,,,,,,,,,,,,,,,,,,,,,,,,,,,,,,,,,,,,,,,,,,0.016304348,-0.018478261,1,0,0,klauw,klauw,0,17,17,7,1,klauw,images/br_klauw.png,images/cb_klauw.png
,,,,,,,2023-08-16_20h32.16.900,vbt_B2_day1,2022.2.4,MacIntel,8.333333333,,,,,,,,,,,,,,,,,,,,,,,,,,,,,,,,,,,,,,,,,,,0.035869565,-0.082608696,1,0,0,lezen,lezen,0,18,18,46,1,lezen,images/br_lezen.png,images/cb_lezen.png
,,,,,,,2023-08-16_20h32.16.900,vbt_B2_day1,2022.2.4,MacIntel,8.333333333,,,,,,,,,,,,,,,,,,,,,,,,,,,,,,,,,,,,,,,,,,,0.040217391,-0.222826087,1,0,0,slak,slak,0,19,19,0,1,slak,images/br_slak.png,images/cb_slak.png
,,,,,,,2023-08-16_20h32.16.900,vbt_B2_day1,2022.2.4,MacIntel,8.333333333,,,,,,,,,,,,,,,,,,,,,,,,,,,,,,,,,,,,,,,,,,,0.054347826,-0.032608696,1,0,0,spanzing,spanzing,0,20,20,37,1,spanzing,images/br_spanzing.png,images/cb_spanzing.png
,,,,,,,2023-08-16_20h32.16.900,vbt_B2_day1,2022.2.4,MacIntel,8.333333333,,,,,,,,,,,,,,,,,,,,,,,,,,,,,,,,,,,,,,,,,,,0.176086957,0.009782609,1,0,0,hiea...,hiea...,0,21,21,15,1,hiervan,images/br_hiervan.png,images/cb_hiervan.png
,,,,,,,2023-08-16_20h32.16.900,vbt_B2_day1,2022.2.4,MacIntel,8.333333333,,,,,,,,,,,,,,,,,,,,,,,,,,,,,,,,,,,,,,,,,,,0.085869565,-0.035869565,1,0,0,daar....,daar....,0,22,22,16,1,daarheen,images/br_daarheen.png,images/cb_daarheen.png
,,,,,,,2023-08-16_20h32.16.900,vbt_B2_day1,2022.2.4,MacIntel,8.333333333,,,,,,,,,,,,,,,,,,,,,,,,,,,,,,,,,,,,,,,,,,,0.151086957,-0.064130435,1,0,0,aeedj.,aeedj.,0,23,23,30,1,reedje,images/br_reedje.png,images/cb_reedje.png
,,,,,,,2023-08-16_20h32.16.900,vbt_B2_day1,2022.2.4,MacIntel,8.333333333,,,,,,,,,,,,,,,,,,,,,,,,,,,,,,,,,,,,,,,,,,,0.14673913,-0.033695652,1,0,0,liegen,liegen,0,24,24,50,1,liegen,images/br_liegen.png,images/cb_liegen.png
,,,,,,,2023-08-16_20h32.16.900,vbt_B2_day1,2022.2.4,MacIntel,8.333333333,,,,,,,,,,,,,,,,,,,,,,,,,,,,,,,,,,,,,,,,,,,0.210869565,-0.059782609,1,0,0,loods,loods,0,25,25,47,1,loods,images/br_loods.png,images/cb_loods.png
,,,,,,,2023-08-16_20h32.16.900,vbt_B2_day1,2022.2.4,MacIntel,8.333333333,,,,,,,,,,,,,,,,,,,,,,,,,,,,,,,,,,,,,,,,,,,0.251086957,-0.00326087,1,0,0,maken,maken,0,26,26,5,1,maken,images/br_maken.png,images/cb_maken.png
,,,,,,,2023-08-16_20h32.16.900,vbt_B2_day1,2022.2.4,MacIntel,8.333333333,,,,,,,,,,,,,,,,,,,,,,,,,,,,,,,,,,,,,,,,,,,0.234782609,-0.034782609,1,0,0,liefde,liefde,0,27,27,51,1,liefde,images/br_liefde.png,images/cb_liefde.png
,,,,,,,2023-08-16_20h32.16.900,vbt_B2_day1,2022.2.4,MacIntel,8.333333333,,,,,,,,,,,,,,,,,,,,,,,,,,,,,,,,,,,,,,,,,,,0.170652174,-0.068478261,1,0,0,twijfel,twijfel,0,28,28,13,1,twijfel,images/br_twijfel.png,images/cb_twijfel.png
,,,,,,,2023-08-16_20h32.16.900,vbt_B2_day1,2022.2.4,MacIntel,8.333333333,,,,,,,,,,,,,,,,,,,,,,,,,,,,,,,,,,,,,,,,,,,0.094565217,-0.122826087,1,0,0,dubbel,dubbel,0,29,29,9,1,dubbel,images/br_dubbel.png,images/cb_dubbel.png
,,,,,,,2023-08-16_20h32.16.900,vbt_B2_day1,2022.2.4,MacIntel,8.333333333,,,,,,,,,,,,,,,,,,,,,,,,,,,,,,,,,,,,,,,,,,,0.119565217,-0.068478261,1,0,0,hoog,hoog,0,30,30,41,1,hoog,images/br_hoog.png,images/cb_hoog.png
,,,,,,,2023-08-16_20h32.16.900,vbt_B2_day1,2022.2.4,MacIntel,8.333333333,,,,,,,,,,,,,,,,,,,,,,,,,,,,,,,,,,,,,,,,,,,0.156521739,-0.051086957,1,0,0,stamen,stamen,0,31,31,31,1,stamen,images/br_stamen.png,images/cb_stamen.png
,,,,,,,2023-08-16_20h32.16.900,vbt_B2_day1,2022.2.4,MacIntel,8.333333333,,,,,,,,,,,,,,,,,,,,,,,,,,,,,,,,,,,,,,,,,,,0.166304348,-0.055434783,1,0,0,vi..tin,vi..tin,0,32,32,54,1,vijftig,images/br_vijftig.png,images/cb_vijftig.png
,,,,,,,2023-08-16_20h32.16.900,vbt_B2_day1,2022.2.4,MacIntel,8.333333333,,,,,,,,,,,,,,,,,,,,,,,,,,,,,,,,,,,,,,,,,,,0.261956522,0.002173913,1,0,0,.ict..,.ict..,0,33,33,48,1,fictie,images/br_fictie.png,images/cb_fictie.png
,,,,,,,2023-08-16_20h32.16.900,vbt_B2_day1,2022.2.4,MacIntel,8.333333333,,,,,,,,,,,,,,,,,,,,,,,,,,,,,,,,,,,,,,,,,,,0.268478261,0.043478261,1,0,0,tars,tars,0,34,34,20,1,tars,images/br_tars.png,images/cb_tars.png
,,,,,,,2023-08-16_20h32.16.900,vbt_B2_day1,2022.2.4,MacIntel,8.333333333,,,,,,,,,,,,,,,,,,,,,,,,,,,,,,,,,,,,,,,,,,,0.081521739,-0.047826087,1,0,0,volop,volop,0,35,35,26,1,valop,images/br_valop.png,images/cb_valop.png
,,,,,,,2023-08-16_20h32.16.900,vbt_B2_day1,2022.2.4,MacIntel,8.333333333,,,,,,,,,,,,,,,,,,,,,,,,,,,,,,,,,,,,,,,,,,,0.017391304,0.15326087,1,0,0,vizier,vizier,0,36,36,49,1,vizier,images/br_vizier.png,images/cb_vizier.png
,,,,,,,2023-08-16_20h32.16.900,vbt_B2_day1,2022.2.4,MacIntel,8.333333333,,,,,,,,,,,,,,,,,,,,,,,,,,,,,,,,,,,,,,,,,,,0.104347826,0.057608696,1,0,0,jaar,jaar,0,37,37,2,1,jaar,images/br_jaar.png,images/cb_jaar.png
,,,,,,,2023-08-16_20h32.16.900,vbt_B2_day1,2022.2.4,MacIntel,8.333333333,,,,,,,,,,,,,,,,,,,,,,,,,,,,,,,,,,,,,,,,,,,0.064130435,0.020652174,1,0,0,prort,prort,0,38,38,27,1,prort,images/br_prort.png,images/cb_prort.png
,,,,,,,2023-08-16_20h32.16.900,vbt_B2_day1,2022.2.4,MacIntel,8.333333333,,,,,,,,,,,,,,,,,,,,,,,,,,,,,,,,,,,,,,,,,,,0.085869565,-0.088043478,1,0,0,lochten,lochten,0,39,39,34,1,lochten,images/br_lochten.png,images/cb_lochten.png
,,,,,,,2023-08-16_20h32.16.900,vbt_B2_day1,2022.2.4,MacIntel,8.333333333,,,,,,,,,,,,,,,,,,,,,,,,,,,,,,,,,,,,,,,,,,,0.106521739,-0.263043478,1,0,0,booi,booi,0,40,40,23,1,booi,images/br_booi.png,images/cb_booi.png
,,,,,,,2023-08-16_20h32.16.900,vbt_B2_day1,2022.2.4,MacIntel,8.333333333,,,,,,,,,,,,,,,,,,,,,,,,,,,,,,,,,,,,,,,,,,,-0.002173913,-0.040217391,1,0,0,reze.,reze.,0,41,41,24,1,rezer,images/br_rezer.png,images/cb_rezer.png
,,,,,,,2023-08-16_20h32.16.900,vbt_B2_day1,2022.2.4,MacIntel,8.333333333,,,,,,,,,,,,,,,,,,,,,,,,,,,,,,,,,,,,,,,,,,,0.076086957,-0.019565217,1,0,0,lapa,lapa,0,42,42,43,1,lava,images/br_lava.png,images/cb_lava.png
,,,,,,,2023-08-16_20h32.16.900,vbt_B2_day1,2022.2.4,MacIntel,8.333333333,,,,,,,,,,,,,,,,,,,,,,,,,,,,,,,,,,,,,,,,,,,0.108695652,0.029347826,1,0,0,muziek,muziek,0,43,43,10,1,muziek,images/br_muziek.png,images/cb_muziek.png
,,,,,,,2023-08-16_20h32.16.900,vbt_B2_day1,2022.2.4,MacIntel,8.333333333,,,,,,,,,,,,,,,,,,,,,,,,,,,,,,,,,,,,,,,,,,,0.068478261,0.033695652,1,0,0,bleek,bleek,0,44,44,6,1,bleek,images/br_bleek.png,images/cb_bleek.png
,,,,,,,2023-08-16_20h32.16.900,vbt_B2_day1,2022.2.4,MacIntel,8.333333333,,,,,,,,,,,,,,,,,,,,,,,,,,,,,,,,,,,,,,,,,,,0.173913043,-0.10326087,1,0,0,waarva.,waarva.,0,45,45,14,1,waarvan,images/br_waarvan.png,images/cb_waarvan.png
,,,,,,,2023-08-16_20h32.16.900,vbt_B2_day1,2022.2.4,MacIntel,8.333333333,,,,,,,,,,,,,,,,,,,,,,,,,,,,,,,,,,,,,,,,,,,0.017391304,0.070652174,1,0,0,mand,mand,0,46,46,3,1,mand,images/br_mand.png,images/cb_mand.png
,,,,,,,2023-08-16_20h32.16.900,vbt_B2_day1,2022.2.4,MacIntel,8.333333333,,,,,,,,,,,,,,,,,,,,,,,,,,,,,,,,,,,,,,,,,,,0.079347826,0.058695652,1,0,0,schep,schep,0,47,47,4,1,schep,images/br_schep.png,images/cb_schep.png
,,,,,,,2023-08-16_20h32.16.900,vbt_B2_day1,2022.2.4,MacIntel,8.333333333,,,,,,,,,,,,,,,,,,,,,,,,,,,,,,,,,,,,,,,,,,,0.066304348,-0.064130435,1,0,0,kan.e.,kan.e.,0,48,48,8,1,kanjer,images/br_kanjer.png,images/cb_kanjer.png
,,,,,,,2023-08-16_20h32.16.900,vbt_B2_day1,2022.2.4,MacIntel,8.333333333,,,,,,,,,,,,,,,,,,,,,,,,,,,,,,,,,,,,,,,,,,,0.075,-0.033695652,1,0,0,voorkant,voorkant,0,49,49,58,1,voorkeur,images/br_voorkeur.png,images/cb_voorkeur.png
,,,,,,,2023-08-16_20h32.16.900,vbt_B2_day1,2022.2.4,MacIntel,8.333333333,,,,,,,,,,,,,,,,,,,,,,,,,,,,,,,,,,,,,,,,,,,0.090217391,-0.009782609,1,0,0,hemel,hemel,0,50,50,45,1,hemel,images/br_hemel.png,images/cb_hemel.png
,,,,,,,2023-08-16_20h32.16.900,vbt_B2_day1,2022.2.4,MacIntel,8.333333333,,,,,,,,,,,,,,,,,,,,,,,,,,,,,,,,,,,,,,,,,,,0.014130435,-0.201086957,1,0,0,genen.,genen.,0,51,51,29,1,genond,images/br_genond.png,images/cb_genond.png
,,,,,,,2023-08-16_20h32.16.900,vbt_B2_day1,2022.2.4,MacIntel,8.333333333,,,,,,,,,,,,,,,,,,,,,,,,,,,,,,,,,,,,,,,,,,,0.066304348,0.126086957,1,0,0,stuk,stuk,0,52,52,42,1,stuk,images/br_stuk.png,images/cb_stuk.png
,,,,,,,2023-08-16_20h32.16.900,vbt_B2_day1,2022.2.4,MacIntel,8.333333333,,,,,,,,,,,,,,,,,,,,,,,,,,,,,,,,,,,,,,,,,,,0.009782609,-0.135869565,1,0,0,zaal,zaal,0,53,53,1,1,zaal,images/br_zaal.png,images/cb_zaal.png
,,,,,,,2023-08-16_20h32.16.900,vbt_B2_day1,2022.2.4,MacIntel,8.333333333,,,,,,,,,,,,,,,,,,,,,,,,,,,,,,,,,,,,,,,,,,,0.067391304,-0.085869565,1,0,0,vooru.,vooru.,0,54,54,39,1,voorreur,images/br_voorreur.png,images/cb_voorreur.png
,,,,,,,2023-08-16_20h32.16.900,vbt_B2_day1,2022.2.4,MacIntel,8.333333333,,,,,,,,,,,,,,,,,,,,,,,,,,,,,,,,,,,,,,,,,,,0.082608696,0.033695652,1,0,0,dred,dred,0,55,55,21,1,dred,images/br_dred.png,images/cb_dred.png
,,,,,,,2023-08-16_20h32.16.900,vbt_B2_day1,2022.2.4,MacIntel,8.333333333,,,,,,,,,,,,,,,,,,,,,,,,,,,,,,,,,,,,,,,,,,,0.116304348,-0.009782609,1,0,0,bri.k,bri.k,0,56,56,25,1,brijk,images/br_brijk.png,images/cb_brijk.png
,,,,,,,2023-08-16_20h32.16.900,vbt_B2_day1,2022.2.4,MacIntel,8.333333333,,,,,,,,,,,,,,,,,,,,,,,,,,,,,,,,,,,,,,,,,,,0.015217391,-0.060869565,1,0,0,klimmen,klimmen,0,57,57,12,1,klimmen,images/br_klimmen.png,images/cb_klimmen.png
,,,,,,,2023-08-16_20h32.16.900,vbt_B2_day1,2022.2.4,MacIntel,8.333333333,,,,,,,,,,,,,,,,,,,,,,,,,,,,,,,,,,,,,,,,,,,0.02173913,-0.157608696,1,0,0,bebrip,bebrip,0,58,58,28,1,bebrip,images/br_bebrip.png,images/cb_bebrip.png
,,,,,,,2023-08-16_20h32.16.900,vbt_B2_day1,2022.2.4,MacIntel,8.333333333,,,,,,,,,,,,,,,,,,,,,,,,,,,,,,,,,,,,,,,,,,,0.070652174,-0.056521739,1,0,0,knie,knie,0,59,59,22,1,knoe,images/br_knoe.png,images/cb_knoe.png
,,,,,,,2023-08-16_20h32.16.900,vbt_B2_day1,2022.2.4,MacIntel,8.333333333,,,,,,,,,,,,,,,,,,,,,,,,,,,,,,,,,,,,,,,,,,,,,,,,,,,,,,,,,
