welcome_mouse.x,welcome_mouse.y,welcome_mouse.leftButton,welcome_mouse.midButton,welcome_mouse.rightButton,welcome_mouse.time,"ID",date,expName,psychopyVersion,OS,frameRate,mouse_2.x,mouse_2.y,mouse_2.leftButton,mouse_2.midButton,mouse_2.rightButton,mouse_2.time,mouse_3.x,mouse_3.y,mouse_3.leftButton,mouse_3.midButton,mouse_3.rightButton,mouse_3.time,train_mouse.x,train_mouse.y,train_mouse.leftButton,train_mouse.midButton,train_mouse.rightButton,train_mouse.time,braille_mouse.x,braille_mouse.y,braille_mouse.leftButton,braille_mouse.midButton,braille_mouse.rightButton,braille_mouse.time,trials.thisRepN,trials.thisTrialN,trials.thisN,trials.thisIndex,trials.ran,nlLet,brLet,cbLet,mouse.x,mouse.y,mouse.leftButton,mouse.midButton,mouse.rightButton,testInstr_mouse.x,testInstr_mouse.y,testInstr_mouse.leftButton,testInstr_mouse.midButton,testInstr_mouse.rightButton,test_mouse.x,test_mouse.y,test_mouse.leftButton,test_mouse.midButton,test_mouse.rightButton,test_response.text,testResp,test_loop.thisRepN,test_loop.thisTrialN,test_loop.thisN,test_loop.thisIndex,test_loop.ran,nlWrd,brWrd,cbWrd
-0.215740698,-0.320370356,1,0,0,11.1735,00092,2023-10-30_22h22.52.500,vbt_B2_day1,2022.2.4,Win32,59.9268892,,,,,,,,,,,,,,,,,,,,,,,,,,,,,,,,,,,,,,,,,,,,,,,,,,,,,,,,,
,,,,,,00092,2023-10-30_22h22.52.500,vbt_B2_day1,2022.2.4,Win32,59.9268892,-0.215740698,-0.320370356,1,0,0,6.2824,,,,,,,,,,,,,,,,,,,,,,,,,,,,,,,,,,,,,,,,,,,,,,,,,,,
,,,,,,00092,2023-10-30_22h22.52.500,vbt_B2_day1,2022.2.4,Win32,59.9268892,,,,,,,-0.215740698,-0.320370356,1,0,0,25.8255,,,,,,,,,,,,,,,,,,,,,,,,,,,,,,,,,,,,,,,,,,,,,
,,,,,,00092,2023-10-30_22h22.52.500,vbt_B2_day1,2022.2.4,Win32,59.9268892,,,,,,,,,,,,,-0.215740698,-0.320370356,1,0,0,23.1538,,,,,,,,,,,,,,,,,,,,,,,,,,,,,,,,,,,,,,,
,,,,,,00092,2023-10-30_22h22.52.500,vbt_B2_day1,2022.2.4,Win32,59.9268892,,,,,,,,,,,,,,,,,,,-0.215740698,-0.320370356,1,0,0,11.5544,0,0,0,13,1,n,images/br_n.png,images/cb_n.png,,,,,,,,,,,,,,,,,,,,,,,,,
,,,,,,00092,2023-10-30_22h22.52.500,vbt_B2_day1,2022.2.4,Win32,59.9268892,,,,,,,,,,,,,,,,,,,-0.215740698,-0.320370356,1,0,0,4.2347,0,1,1,4,1,e,images/br_e.png,images/cb_e.png,,,,,,,,,,,,,,,,,,,,,,,,,
,,,,,,00092,2023-10-30_22h22.52.500,vbt_B2_day1,2022.2.4,Win32,59.9268892,,,,,,,,,,,,,,,,,,,-0.215740698,-0.320370356,1,0,0,1.5009,0,2,2,14,1,o,images/br_o.png,images/cb_o.png,,,,,,,,,,,,,,,,,,,,,,,,,
,,,,,,00092,2023-10-30_22h22.52.500,vbt_B2_day1,2022.2.4,Win32,59.9268892,,,,,,,,,,,,,,,,,,,-0.215740698,-0.320370356,1,0,0,4.4684,0,3,3,23,1,x,images/br_x.png,images/cb_x.png,,,,,,,,,,,,,,,,,,,,,,,,,
,,,,,,00092,2023-10-30_22h22.52.500,vbt_B2_day1,2022.2.4,Win32,59.9268892,,,,,,,,,,,,,,,,,,,-0.215740698,-0.320370356,1,0,0,0.8338,0,4,4,5,1,f,images/br_f.png,images/cb_f.png,,,,,,,,,,,,,,,,,,,,,,,,,
,,,,,,00092,2023-10-30_22h22.52.500,vbt_B2_day1,2022.2.4,Win32,59.9268892,,,,,,,,,,,,,,,,,,,-0.215740698,-0.320370356,1,0,0,0.417,0,5,5,9,1,j,images/br_j.png,images/cb_j.png,,,,,,,,,,,,,,,,,,,,,,,,,
,,,,,,00092,2023-10-30_22h22.52.500,vbt_B2_day1,2022.2.4,Win32,59.9268892,,,,,,,,,,,,,,,,,,,-0.215740698,-0.320370356,1,0,0,3.4517,0,6,6,3,1,d,images/br_d.png,images/cb_d.png,,,,,,,,,,,,,,,,,,,,,,,,,
,,,,,,00092,2023-10-30_22h22.52.500,vbt_B2_day1,2022.2.4,Win32,59.9268892,,,,,,,,,,,,,,,,,,,-0.215740698,-0.320370356,1,0,0,0.584,0,7,7,0,1,a,images/br_a.png,images/cb_a.png,,,,,,,,,,,,,,,,,,,,,,,,,
,,,,,,00092,2023-10-30_22h22.52.500,vbt_B2_day1,2022.2.4,Win32,59.9268892,,,,,,,,,,,,,,,,,,,-0.215740698,-0.320370356,1,0,0,0.2834,0,8,8,8,1,i,images/br_i.png,images/cb_i.png,,,,,,,,,,,,,,,,,,,,,,,,,
,,,,,,00092,2023-10-30_22h22.52.500,vbt_B2_day1,2022.2.4,Win32,59.9268892,,,,,,,,,,,,,,,,,,,-0.215740698,-0.320370356,1,0,0,1.4673,0,9,9,18,1,s,images/br_s.png,images/cb_s.png,,,,,,,,,,,,,,,,,,,,,,,,,
,,,,,,00092,2023-10-30_22h22.52.500,vbt_B2_day1,2022.2.4,Win32,59.9268892,,,,,,,,,,,,,,,,,,,-0.215740698,-0.320370356,1,0,0,3.2179,0,10,10,16,1,q,images/br_q.png,images/cb_q.png,,,,,,,,,,,,,,,,,,,,,,,,,
,,,,,,00092,2023-10-30_22h22.52.500,vbt_B2_day1,2022.2.4,Win32,59.9268892,,,,,,,,,,,,,,,,,,,-0.215740698,-0.320370356,1,0,0,0.4169,0,11,11,15,1,p,images/br_p.png,images/cb_p.png,,,,,,,,,,,,,,,,,,,,,,,,,
,,,,,,00092,2023-10-30_22h22.52.500,vbt_B2_day1,2022.2.4,Win32,59.9268892,,,,,,,,,,,,,,,,,,,-0.215740698,-0.320370356,1,0,0,0.8838,0,12,12,10,1,k,images/br_k.png,images/cb_k.png,,,,,,,,,,,,,,,,,,,,,,,,,
,,,,,,00092,2023-10-30_22h22.52.500,vbt_B2_day1,2022.2.4,Win32,59.9268892,,,,,,,,,,,,,,,,,,,-0.237962935,-0.314814815,1,0,0,3.0009,0,13,13,17,1,r,images/br_r.png,images/cb_r.png,,,,,,,,,,,,,,,,,,,,,,,,,
,,,,,,00092,2023-10-30_22h22.52.500,vbt_B2_day1,2022.2.4,Win32,59.9268892,,,,,,,,,,,,,,,,,,,-0.237962935,-0.314814815,1,0,0,0.3336,0,14,14,20,1,u,images/br_u.png,images/cb_u.png,,,,,,,,,,,,,,,,,,,,,,,,,
,,,,,,00092,2023-10-30_22h22.52.500,vbt_B2_day1,2022.2.4,Win32,59.9268892,,,,,,,,,,,,,,,,,,,-0.237962935,-0.314814815,1,0,0,0.5002,0,15,15,12,1,m,images/br_m.png,images/cb_m.png,,,,,,,,,,,,,,,,,,,,,,,,,
,,,,,,00092,2023-10-30_22h22.52.500,vbt_B2_day1,2022.2.4,Win32,59.9268892,,,,,,,,,,,,,,,,,,,-0.237962935,-0.314814815,1,0,0,0.2837,0,16,16,2,1,c,images/br_c.png,images/cb_c.png,,,,,,,,,,,,,,,,,,,,,,,,,
,,,,,,00092,2023-10-30_22h22.52.500,vbt_B2_day1,2022.2.4,Win32,59.9268892,,,,,,,,,,,,,,,,,,,-0.237962935,-0.314814815,1,0,0,0.1504,0,17,17,22,1,w,images/br_w.png,images/cb_w.png,,,,,,,,,,,,,,,,,,,,,,,,,
,,,,,,00092,2023-10-30_22h22.52.500,vbt_B2_day1,2022.2.4,Win32,59.9268892,,,,,,,,,,,,,,,,,,,-0.237962935,-0.314814815,1,0,0,3.3844,0,18,18,7,1,h,images/br_h.png,images/cb_h.png,,,,,,,,,,,,,,,,,,,,,,,,,
,,,,,,00092,2023-10-30_22h22.52.500,vbt_B2_day1,2022.2.4,Win32,59.9268892,,,,,,,,,,,,,,,,,,,-0.237962935,-0.314814815,1,0,0,0.1003,0,19,19,24,1,y,images/br_y.png,images/cb_y.png,,,,,,,,,,,,,,,,,,,,,,,,,
,,,,,,00092,2023-10-30_22h22.52.500,vbt_B2_day1,2022.2.4,Win32,59.9268892,,,,,,,,,,,,,,,,,,,-0.237962935,-0.314814815,1,0,0,2.8509,0,20,20,25,1,z,images/br_z.png,images/cb_z.png,,,,,,,,,,,,,,,,,,,,,,,,,
,,,,,,00092,2023-10-30_22h22.52.500,vbt_B2_day1,2022.2.4,Win32,59.9268892,,,,,,,,,,,,,,,,,,,-0.237962935,-0.314814815,1,0,0,0.9674,0,21,21,1,1,b,images/br_b.png,images/cb_b.png,,,,,,,,,,,,,,,,,,,,,,,,,
,,,,,,00092,2023-10-30_22h22.52.500,vbt_B2_day1,2022.2.4,Win32,59.9268892,,,,,,,,,,,,,,,,,,,-0.237962935,-0.314814815,1,0,0,0.7171,0,22,22,6,1,g,images/br_g.png,images/cb_g.png,,,,,,,,,,,,,,,,,,,,,,,,,
,,,,,,00092,2023-10-30_22h22.52.500,vbt_B2_day1,2022.2.4,Win32,59.9268892,,,,,,,,,,,,,,,,,,,-0.237962935,-0.314814815,1,0,0,0.2551,0,23,23,21,1,v,images/br_v.png,images/cb_v.png,,,,,,,,,,,,,,,,,,,,,,,,,
,,,,,,00092,2023-10-30_22h22.52.500,vbt_B2_day1,2022.2.4,Win32,59.9268892,,,,,,,,,,,,,,,,,,,-0.237962935,-0.314814815,1,0,0,0.1839,0,24,24,19,1,t,images/br_t.png,images/cb_t.png,,,,,,,,,,,,,,,,,,,,,,,,,
,,,,,,00092,2023-10-30_22h22.52.500,vbt_B2_day1,2022.2.4,Win32,59.9268892,,,,,,,,,,,,,,,,,,,-0.237962935,-0.314814815,1,0,0,0.3004,0,25,25,11,1,l,images/br_l.png,images/cb_l.png,,,,,,,,,,,,,,,,,,,,,,,,,
,,,,,,00092,2023-10-30_22h22.52.500,vbt_B2_day1,2022.2.4,Win32,59.9268892,,,,,,,,,,,,,,,,,,,-0.237962935,-0.314814815,1,0,0,0.1332,1,0,26,7,1,h,images/br_h.png,images/cb_h.png,,,,,,,,,,,,,,,,,,,,,,,,,
,,,,,,00092,2023-10-30_22h22.52.500,vbt_B2_day1,2022.2.4,Win32,59.9268892,,,,,,,,,,,,,,,,,,,-0.313888868,-0.248148176,1,0,0,2.4008,1,1,27,4,1,e,images/br_e.png,images/cb_e.png,,,,,,,,,,,,,,,,,,,,,,,,,
,,,,,,00092,2023-10-30_22h22.52.500,vbt_B2_day1,2022.2.4,Win32,59.9268892,,,,,,,,,,,,,,,,,,,-0.313888868,-0.248148176,1,0,0,0.8834,1,2,28,18,1,s,images/br_s.png,images/cb_s.png,,,,,,,,,,,,,,,,,,,,,,,,,
,,,,,,00092,2023-10-30_22h22.52.500,vbt_B2_day1,2022.2.4,Win32,59.9268892,,,,,,,,,,,,,,,,,,,-0.313888868,-0.248148176,1,0,0,0.0666,1,3,29,9,1,j,images/br_j.png,images/cb_j.png,,,,,,,,,,,,,,,,,,,,,,,,,
,,,,,,00092,2023-10-30_22h22.52.500,vbt_B2_day1,2022.2.4,Win32,59.9268892,,,,,,,,,,,,,,,,,,,-0.313888868,-0.248148176,1,0,0,1.5839,1,4,30,15,1,p,images/br_p.png,images/cb_p.png,,,,,,,,,,,,,,,,,,,,,,,,,
,,,,,,00092,2023-10-30_22h22.52.500,vbt_B2_day1,2022.2.4,Win32,59.9268892,,,,,,,,,,,,,,,,,,,-0.304629608,-0.27407406,1,0,0,0.2285,1,5,31,22,1,w,images/br_w.png,images/cb_w.png,,,,,,,,,,,,,,,,,,,,,,,,,
,,,,,,00092,2023-10-30_22h22.52.500,vbt_B2_day1,2022.2.4,Win32,59.9268892,,,,,,,,,,,,,,,,,,,-0.17777775,-0.157407407,1,0,0,1.0836,1,6,32,8,1,i,images/br_i.png,images/cb_i.png,,,,,,,,,,,,,,,,,,,,,,,,,
,,,,,,00092,2023-10-30_22h22.52.500,vbt_B2_day1,2022.2.4,Win32,59.9268892,,,,,,,,,,,,,,,,,,,-0.175925926,-0.158333319,1,0,0,2.6008,1,7,33,1,1,b,images/br_b.png,images/cb_b.png,,,,,,,,,,,,,,,,,,,,,,,,,
,,,,,,00092,2023-10-30_22h22.52.500,vbt_B2_day1,2022.2.4,Win32,59.9268892,,,,,,,,,,,,,,,,,,,-0.175925926,-0.158333319,1,0,0,2.201,1,8,34,21,1,v,images/br_v.png,images/cb_v.png,,,,,,,,,,,,,,,,,,,,,,,,,
,,,,,,00092,2023-10-30_22h22.52.500,vbt_B2_day1,2022.2.4,Win32,59.9268892,,,,,,,,,,,,,,,,,,,-0.196296268,-0.169444473,1,0,0,0.1954,1,9,35,3,1,d,images/br_d.png,images/cb_d.png,,,,,,,,,,,,,,,,,,,,,,,,,
,,,,,,00092,2023-10-30_22h22.52.500,vbt_B2_day1,2022.2.4,Win32,59.9268892,,,,,,,,,,,,,,,,,,,-0.089814787,0.304629626,1,0,0,0.9164,1,10,36,20,1,u,images/br_u.png,images/cb_u.png,,,,,,,,,,,,,,,,,,,,,,,,,
,,,,,,00092,2023-10-30_22h22.52.500,vbt_B2_day1,2022.2.4,Win32,59.9268892,,,,,,,,,,,,,,,,,,,-0.107407393,0.280555548,1,0,0,0.6,1,11,37,23,1,x,images/br_x.png,images/cb_x.png,,,,,,,,,,,,,,,,,,,,,,,,,
,,,,,,00092,2023-10-30_22h22.52.500,vbt_B2_day1,2022.2.4,Win32,59.9268892,,,,,,,,,,,,,,,,,,,-0.107407393,0.280555548,1,0,0,0.1334,1,12,38,14,1,o,images/br_o.png,images/cb_o.png,,,,,,,,,,,,,,,,,,,,,,,,,
,,,,,,00092,2023-10-30_22h22.52.500,vbt_B2_day1,2022.2.4,Win32,59.9268892,,,,,,,,,,,,,,,,,,,-0.107407393,0.280555548,1,0,0,0.2169,1,13,39,6,1,g,images/br_g.png,images/cb_g.png,,,,,,,,,,,,,,,,,,,,,,,,,
,,,,,,00092,2023-10-30_22h22.52.500,vbt_B2_day1,2022.2.4,Win32,59.9268892,,,,,,,,,,,,,,,,,,,-0.107407393,0.280555548,1,0,0,0.4167,1,14,40,10,1,k,images/br_k.png,images/cb_k.png,,,,,,,,,,,,,,,,,,,,,,,,,
,,,,,,00092,2023-10-30_22h22.52.500,vbt_B2_day1,2022.2.4,Win32,59.9268892,,,,,,,,,,,,,,,,,,,-0.107407393,0.280555548,1,0,0,2.7342,1,15,41,5,1,f,images/br_f.png,images/cb_f.png,,,,,,,,,,,,,,,,,,,,,,,,,
,,,,,,00092,2023-10-30_22h22.52.500,vbt_B2_day1,2022.2.4,Win32,59.9268892,,,,,,,,,,,,,,,,,,,-0.235185199,-0.072222215,1,0,0,8.0085,1,16,42,24,1,y,images/br_y.png,images/cb_y.png,,,,,,,,,,,,,,,,,,,,,,,,,
,,,,,,00092,2023-10-30_22h22.52.500,vbt_B2_day1,2022.2.4,Win32,59.9268892,,,,,,,,,,,,,,,,,,,-0.216666681,-0.072222215,1,0,0,0.4335,1,17,43,17,1,r,images/br_r.png,images/cb_r.png,,,,,,,,,,,,,,,,,,,,,,,,,
,,,,,,00092,2023-10-30_22h22.52.500,vbt_B2_day1,2022.2.4,Win32,59.9268892,,,,,,,,,,,,,,,,,,,-0.216666681,-0.072222215,1,0,0,10.7204,1,18,44,11,1,l,images/br_l.png,images/cb_l.png,,,,,,,,,,,,,,,,,,,,,,,,,
,,,,,,00092,2023-10-30_22h22.52.500,vbt_B2_day1,2022.2.4,Win32,59.9268892,,,,,,,,,,,,,,,,,,,-0.211111069,-0.108333376,1,0,0,0.3165,1,19,45,19,1,t,images/br_t.png,images/cb_t.png,,,,,,,,,,,,,,,,,,,,,,,,,
,,,,,,00092,2023-10-30_22h22.52.500,vbt_B2_day1,2022.2.4,Win32,59.9268892,,,,,,,,,,,,,,,,,,,-0.211111069,-0.108333376,1,0,0,3.1848,1,20,46,12,1,m,images/br_m.png,images/cb_m.png,,,,,,,,,,,,,,,,,,,,,,,,,
,,,,,,00092,2023-10-30_22h22.52.500,vbt_B2_day1,2022.2.4,Win32,59.9268892,,,,,,,,,,,,,,,,,,,-0.158333319,-0.312037079,1,0,0,1.2788,1,21,47,16,1,q,images/br_q.png,images/cb_q.png,,,,,,,,,,,,,,,,,,,,,,,,,
,,,,,,00092,2023-10-30_22h22.52.500,vbt_B2_day1,2022.2.4,Win32,59.9268892,,,,,,,,,,,,,,,,,,,-0.158333319,-0.312037079,1,0,0,5.1017,1,22,48,2,1,c,images/br_c.png,images/cb_c.png,,,,,,,,,,,,,,,,,,,,,,,,,
,,,,,,00092,2023-10-30_22h22.52.500,vbt_B2_day1,2022.2.4,Win32,59.9268892,,,,,,,,,,,,,,,,,,,-0.158333319,-0.312037079,1,0,0,1.1504,1,23,49,13,1,n,images/br_n.png,images/cb_n.png,,,,,,,,,,,,,,,,,,,,,,,,,
,,,,,,00092,2023-10-30_22h22.52.500,vbt_B2_day1,2022.2.4,Win32,59.9268892,,,,,,,,,,,,,,,,,,,-0.158333319,-0.312037079,1,0,0,2.7841,1,24,50,0,1,a,images/br_a.png,images/cb_a.png,,,,,,,,,,,,,,,,,,,,,,,,,
,,,,,,00092,2023-10-30_22h22.52.500,vbt_B2_day1,2022.2.4,Win32,59.9268892,,,,,,,,,,,,,,,,,,,-0.158333319,-0.312037079,1,0,0,3.3879,1,25,51,25,1,z,images/br_z.png,images/cb_z.png,,,,,,,,,,,,,,,,,,,,,,,,,
,,,,,,00092,2023-10-30_22h22.52.500,vbt_B2_day1,2022.2.4,Win32,59.9268892,,,,,,,,,,,,,,,,,,,0.178703732,-0.310185185,1,0,0,8.9417,2,0,52,20,1,u,images/br_u.png,images/cb_u.png,,,,,,,,,,,,,,,,,,,,,,,,,
,,,,,,00092,2023-10-30_22h22.52.500,vbt_B2_day1,2022.2.4,Win32,59.9268892,,,,,,,,,,,,,,,,,,,0.264814801,0.076851845,1,0,0,0.1617,2,1,53,19,1,t,images/br_t.png,images/cb_t.png,,,,,,,,,,,,,,,,,,,,,,,,,
,,,,,,00092,2023-10-30_22h22.52.500,vbt_B2_day1,2022.2.4,Win32,59.9268892,,,,,,,,,,,,,,,,,,,0.264814801,0.076851845,1,0,0,0.1172,2,2,54,10,1,k,images/br_k.png,images/cb_k.png,,,,,,,,,,,,,,,,,,,,,,,,,
,,,,,,00092,2023-10-30_22h22.52.500,vbt_B2_day1,2022.2.4,Win32,59.9268892,,,,,,,,,,,,,,,,,,,0.264814801,0.076851845,1,0,0,1.834,2,3,55,11,1,l,images/br_l.png,images/cb_l.png,,,,,,,,,,,,,,,,,,,,,,,,,
,,,,,,00092,2023-10-30_22h22.52.500,vbt_B2_day1,2022.2.4,Win32,59.9268892,,,,,,,,,,,,,,,,,,,0.324074074,0.116666653,1,0,0,3.5849,2,4,56,16,1,q,images/br_q.png,images/cb_q.png,,,,,,,,,,,,,,,,,,,,,,,,,
,,,,,,00092,2023-10-30_22h22.52.500,vbt_B2_day1,2022.2.4,Win32,59.9268892,,,,,,,,,,,,,,,,,,,0.233333376,-0.068518533,1,0,0,0.2501,2,5,57,14,1,o,images/br_o.png,images/cb_o.png,,,,,,,,,,,,,,,,,,,,,,,,,
,,,,,,00092,2023-10-30_22h22.52.500,vbt_B2_day1,2022.2.4,Win32,59.9268892,,,,,,,,,,,,,,,,,,,0.233333376,-0.063888903,1,0,0,0.5004,2,6,58,1,1,b,images/br_b.png,images/cb_b.png,,,,,,,,,,,,,,,,,,,,,,,,,
,,,,,,00092,2023-10-30_22h22.52.500,vbt_B2_day1,2022.2.4,Win32,59.9268892,,,,,,,,,,,,,,,,,,,0.234259288,-0.074074074,1,0,0,1.9508,2,7,59,18,1,s,images/br_s.png,images/cb_s.png,,,,,,,,,,,,,,,,,,,,,,,,,
,,,,,,00092,2023-10-30_22h22.52.500,vbt_B2_day1,2022.2.4,Win32,59.9268892,,,,,,,,,,,,,,,,,,,0.234259288,-0.074074074,1,0,0,1.8504,2,8,60,22,1,w,images/br_w.png,images/cb_w.png,,,,,,,,,,,,,,,,,,,,,,,,,
,,,,,,00092,2023-10-30_22h22.52.500,vbt_B2_day1,2022.2.4,Win32,59.9268892,,,,,,,,,,,,,,,,,,,0.234259288,-0.074074074,1,0,0,2.351,2,9,61,8,1,i,images/br_i.png,images/cb_i.png,,,,,,,,,,,,,,,,,,,,,,,,,
,,,,,,00092,2023-10-30_22h22.52.500,vbt_B2_day1,2022.2.4,Win32,59.9268892,,,,,,,,,,,,,,,,,,,0.234259288,-0.074074074,1,0,0,2.4508,2,10,62,12,1,m,images/br_m.png,images/cb_m.png,,,,,,,,,,,,,,,,,,,,,,,,,
,,,,,,00092,2023-10-30_22h22.52.500,vbt_B2_day1,2022.2.4,Win32,59.9268892,,,,,,,,,,,,,,,,,,,0.234259288,-0.074074074,1,0,0,1.1837,2,11,63,0,1,a,images/br_a.png,images/cb_a.png,,,,,,,,,,,,,,,,,,,,,,,,,
,,,,,,00092,2023-10-30_22h22.52.500,vbt_B2_day1,2022.2.4,Win32,59.9268892,,,,,,,,,,,,,,,,,,,0.234259288,-0.074074074,1,0,0,8.0861,2,12,64,9,1,j,images/br_j.png,images/cb_j.png,,,,,,,,,,,,,,,,,,,,,,,,,
,,,,,,00092,2023-10-30_22h22.52.500,vbt_B2_day1,2022.2.4,Win32,59.9268892,,,,,,,,,,,,,,,,,,,0.137037065,0.363888891,1,0,0,18.0902,2,13,65,5,1,f,images/br_f.png,images/cb_f.png,,,,,,,,,,,,,,,,,,,,,,,,,
,,,,,,00092,2023-10-30_22h22.52.500,vbt_B2_day1,2022.2.4,Win32,59.9268892,,,,,,,,,,,,,,,,,,,0.137037065,0.363888891,1,0,0,3.3514,2,14,66,15,1,p,images/br_p.png,images/cb_p.png,,,,,,,,,,,,,,,,,,,,,,,,,
,,,,,,00092,2023-10-30_22h22.52.500,vbt_B2_day1,2022.2.4,Win32,59.9268892,,,,,,,,,,,,,,,,,,,0.137037065,0.363888891,1,0,0,3.9349,2,15,67,3,1,d,images/br_d.png,images/cb_d.png,,,,,,,,,,,,,,,,,,,,,,,,,
,,,,,,00092,2023-10-30_22h22.52.500,vbt_B2_day1,2022.2.4,Win32,59.9268892,,,,,,,,,,,,,,,,,,,0.137037065,0.363888891,1,0,0,10.0368,2,16,68,23,1,x,images/br_x.png,images/cb_x.png,,,,,,,,,,,,,,,,,,,,,,,,,
,,,,,,00092,2023-10-30_22h22.52.500,vbt_B2_day1,2022.2.4,Win32,59.9268892,,,,,,,,,,,,,,,,,,,-0.433333326,-0.072222215,1,0,0,0.6339,2,17,69,21,1,v,images/br_v.png,images/cb_v.png,,,,,,,,,,,,,,,,,,,,,,,,,
,,,,,,00092,2023-10-30_22h22.52.500,vbt_B2_day1,2022.2.4,Win32,59.9268892,,,,,,,,,,,,,,,,,,,-0.433333326,-0.072222215,1,0,0,5.5685,2,18,70,6,1,g,images/br_g.png,images/cb_g.png,,,,,,,,,,,,,,,,,,,,,,,,,
,,,,,,00092,2023-10-30_22h22.52.500,vbt_B2_day1,2022.2.4,Win32,59.9268892,,,,,,,,,,,,,,,,,,,-0.433333326,-0.072222215,1,0,0,1.9171,2,19,71,13,1,n,images/br_n.png,images/cb_n.png,,,,,,,,,,,,,,,,,,,,,,,,,
,,,,,,00092,2023-10-30_22h22.52.500,vbt_B2_day1,2022.2.4,Win32,59.9268892,,,,,,,,,,,,,,,,,,,-0.433333326,-0.072222215,1,0,0,0.1167,2,20,72,2,1,c,images/br_c.png,images/cb_c.png,,,,,,,,,,,,,,,,,,,,,,,,,
,,,,,,00092,2023-10-30_22h22.52.500,vbt_B2_day1,2022.2.4,Win32,59.9268892,,,,,,,,,,,,,,,,,,,-0.48796297,-0.112963005,1,0,0,3.2513,2,21,73,25,1,z,images/br_z.png,images/cb_z.png,,,,,,,,,,,,,,,,,,,,,,,,,
,,,,,,00092,2023-10-30_22h22.52.500,vbt_B2_day1,2022.2.4,Win32,59.9268892,,,,,,,,,,,,,,,,,,,-0.589814822,0.021296289,1,0,0,427.1918,2,22,74,24,1,y,images/br_y.png,images/cb_y.png,,,,,,,,,,,,,,,,,,,,,,,,,
,,,,,,00092,2023-10-30_22h22.52.500,vbt_B2_day1,2022.2.4,Win32,59.9268892,,,,,,,,,,,,,,,,,,,-0.271296254,0.087962963,1,0,0,0.5503,2,23,75,7,1,h,images/br_h.png,images/cb_h.png,,,,,,,,,,,,,,,,,,,,,,,,,
,,,,,,00092,2023-10-30_22h22.52.500,vbt_B2_day1,2022.2.4,Win32,59.9268892,,,,,,,,,,,,,,,,,,,-0.271296254,0.087962963,1,0,0,0.3999,2,24,76,17,1,r,images/br_r.png,images/cb_r.png,,,,,,,,,,,,,,,,,,,,,,,,,
,,,,,,00092,2023-10-30_22h22.52.500,vbt_B2_day1,2022.2.4,Win32,59.9268892,,,,,,,,,,,,,,,,,,,-0.271296254,0.087962963,1,0,0,0.5839,2,25,77,4,1,e,images/br_e.png,images/cb_e.png,,,,,,,,,,,,,,,,,,,,,,,,,
,,,,,,00092,2023-10-30_22h22.52.500,vbt_B2_day1,2022.2.4,Win32,59.9268892,,,,,,,,,,,,,,,,,,,-0.271296254,0.087962963,1,0,0,1.584,3,0,78,6,1,g,images/br_g.png,images/cb_g.png,,,,,,,,,,,,,,,,,,,,,,,,,
,,,,,,00092,2023-10-30_22h22.52.500,vbt_B2_day1,2022.2.4,Win32,59.9268892,,,,,,,,,,,,,,,,,,,-0.271296254,0.087962963,1,0,0,0.0498,3,1,79,12,1,m,images/br_m.png,images/cb_m.png,,,,,,,,,,,,,,,,,,,,,,,,,
,,,,,,00092,2023-10-30_22h22.52.500,vbt_B2_day1,2022.2.4,Win32,59.9268892,,,,,,,,,,,,,,,,,,,-0.302777785,0.134259259,1,0,0,0.6054,3,2,80,17,1,r,images/br_r.png,images/cb_r.png,,,,,,,,,,,,,,,,,,,,,,,,,
,,,,,,00092,2023-10-30_22h22.52.500,vbt_B2_day1,2022.2.4,Win32,59.9268892,,,,,,,,,,,,,,,,,,,-0.227777764,0.187962956,1,0,0,1.2176,3,3,81,0,1,a,images/br_a.png,images/cb_a.png,,,,,,,,,,,,,,,,,,,,,,,,,
,,,,,,00092,2023-10-30_22h22.52.500,vbt_B2_day1,2022.2.4,Win32,59.9268892,,,,,,,,,,,,,,,,,,,-0.270370342,0.204629633,1,0,0,0.7668,3,4,82,5,1,f,images/br_f.png,images/cb_f.png,,,,,,,,,,,,,,,,,,,,,,,,,
,,,,,,00092,2023-10-30_22h22.52.500,vbt_B2_day1,2022.2.4,Win32,59.9268892,,,,,,,,,,,,,,,,,,,-0.274999972,0.196296303,1,0,0,7.2531,3,5,83,13,1,n,images/br_n.png,images/cb_n.png,,,,,,,,,,,,,,,,,,,,,,,,,
,,,,,,00092,2023-10-30_22h22.52.500,vbt_B2_day1,2022.2.4,Win32,59.9268892,,,,,,,,,,,,,,,,,,,0.650925954,0.5,1,0,0,12.9381,3,6,84,25,1,z,images/br_z.png,images/cb_z.png,,,,,,,,,,,,,,,,,,,,,,,,,
,,,,,,00092,2023-10-30_22h22.52.500,vbt_B2_day1,2022.2.4,Win32,59.9268892,,,,,,,,,,,,,,,,,,,0.5,0.234259252,1,0,0,0.7501,3,7,85,10,1,k,images/br_k.png,images/cb_k.png,,,,,,,,,,,,,,,,,,,,,,,,,
,,,,,,00092,2023-10-30_22h22.52.500,vbt_B2_day1,2022.2.4,Win32,59.9268892,,,,,,,,,,,,,,,,,,,0.5,0.234259252,1,0,0,0.4334,3,8,86,9,1,j,images/br_j.png,images/cb_j.png,,,,,,,,,,,,,,,,,,,,,,,,,
,,,,,,00092,2023-10-30_22h22.52.500,vbt_B2_day1,2022.2.4,Win32,59.9268892,,,,,,,,,,,,,,,,,,,0.5,0.234259252,1,0,0,0.4339,3,9,87,3,1,d,images/br_d.png,images/cb_d.png,,,,,,,,,,,,,,,,,,,,,,,,,
,,,,,,00092,2023-10-30_22h22.52.500,vbt_B2_day1,2022.2.4,Win32,59.9268892,,,,,,,,,,,,,,,,,,,0.5,0.234259252,1,0,0,0.3333,3,10,88,20,1,u,images/br_u.png,images/cb_u.png,,,,,,,,,,,,,,,,,,,,,,,,,
,,,,,,00092,2023-10-30_22h22.52.500,vbt_B2_day1,2022.2.4,Win32,59.9268892,,,,,,,,,,,,,,,,,,,0.491666723,0.299999996,1,0,0,0.2501,3,11,89,1,1,b,images/br_b.png,images/cb_b.png,,,,,,,,,,,,,,,,,,,,,,,,,
,,,,,,00092,2023-10-30_22h22.52.500,vbt_B2_day1,2022.2.4,Win32,59.9268892,,,,,,,,,,,,,,,,,,,0.491666723,0.299999996,1,0,0,0.5339,3,12,90,2,1,c,images/br_c.png,images/cb_c.png,,,,,,,,,,,,,,,,,,,,,,,,,
,,,,,,00092,2023-10-30_22h22.52.500,vbt_B2_day1,2022.2.4,Win32,59.9268892,,,,,,,,,,,,,,,,,,,0.491666723,0.299999996,1,0,0,0.5012,3,13,91,24,1,y,images/br_y.png,images/cb_y.png,,,,,,,,,,,,,,,,,,,,,,,,,
,,,,,,00092,2023-10-30_22h22.52.500,vbt_B2_day1,2022.2.4,Win32,59.9268892,,,,,,,,,,,,,,,,,,,0.491666723,0.299999996,1,0,0,0.6335,3,14,92,16,1,q,images/br_q.png,images/cb_q.png,,,,,,,,,,,,,,,,,,,,,,,,,
,,,,,,00092,2023-10-30_22h22.52.500,vbt_B2_day1,2022.2.4,Win32,59.9268892,,,,,,,,,,,,,,,,,,,0.491666723,0.299999996,1,0,0,0.0331,3,15,93,4,1,e,images/br_e.png,images/cb_e.png,,,,,,,,,,,,,,,,,,,,,,,,,
,,,,,,00092,2023-10-30_22h22.52.500,vbt_B2_day1,2022.2.4,Win32,59.9268892,,,,,,,,,,,,,,,,,,,0.399999972,0.264814818,1,0,0,0.3502,3,16,94,22,1,w,images/br_w.png,images/cb_w.png,,,,,,,,,,,,,,,,,,,,,,,,,
,,,,,,00092,2023-10-30_22h22.52.500,vbt_B2_day1,2022.2.4,Win32,59.9268892,,,,,,,,,,,,,,,,,,,0.399999972,0.264814818,1,0,0,0.8167,3,17,95,21,1,v,images/br_v.png,images/cb_v.png,,,,,,,,,,,,,,,,,,,,,,,,,
,,,,,,00092,2023-10-30_22h22.52.500,vbt_B2_day1,2022.2.4,Win32,59.9268892,,,,,,,,,,,,,,,,,,,0.399999972,0.264814818,1,0,0,0.8001,3,18,96,18,1,s,images/br_s.png,images/cb_s.png,,,,,,,,,,,,,,,,,,,,,,,,,
,,,,,,00092,2023-10-30_22h22.52.500,vbt_B2_day1,2022.2.4,Win32,59.9268892,,,,,,,,,,,,,,,,,,,0.399999972,0.264814818,1,0,0,0.2002,3,19,97,19,1,t,images/br_t.png,images/cb_t.png,,,,,,,,,,,,,,,,,,,,,,,,,
,,,,,,00092,2023-10-30_22h22.52.500,vbt_B2_day1,2022.2.4,Win32,59.9268892,,,,,,,,,,,,,,,,,,,0.399999972,0.264814818,1,0,0,0.25,3,20,98,8,1,i,images/br_i.png,images/cb_i.png,,,,,,,,,,,,,,,,,,,,,,,,,
,,,,,,00092,2023-10-30_22h22.52.500,vbt_B2_day1,2022.2.4,Win32,59.9268892,,,,,,,,,,,,,,,,,,,0.384259259,0.189814815,1,0,0,3.4511,3,21,99,7,1,h,images/br_h.png,images/cb_h.png,,,,,,,,,,,,,,,,,,,,,,,,,
,,,,,,00092,2023-10-30_22h22.52.500,vbt_B2_day1,2022.2.4,Win32,59.9268892,,,,,,,,,,,,,,,,,,,0.156481496,0.242592582,1,0,0,0.1787,3,22,100,14,1,o,images/br_o.png,images/cb_o.png,,,,,,,,,,,,,,,,,,,,,,,,,
,,,,,,00092,2023-10-30_22h22.52.500,vbt_B2_day1,2022.2.4,Win32,59.9268892,,,,,,,,,,,,,,,,,,,0.156481496,0.242592582,1,0,0,0.3339,3,23,101,11,1,l,images/br_l.png,images/cb_l.png,,,,,,,,,,,,,,,,,,,,,,,,,
,,,,,,00092,2023-10-30_22h22.52.500,vbt_B2_day1,2022.2.4,Win32,59.9268892,,,,,,,,,,,,,,,,,,,0.156481496,0.242592582,1,0,0,5.9687,3,24,102,23,1,x,images/br_x.png,images/cb_x.png,,,,,,,,,,,,,,,,,,,,,,,,,
,,,,,,00092,2023-10-30_22h22.52.500,vbt_B2_day1,2022.2.4,Win32,59.9268892,,,,,,,,,,,,,,,,,,,0.286111125,0.366666661,1,0,0,6.6692,3,25,103,15,1,p,images/br_p.png,images/cb_p.png,,,,,,,,,,,,,,,,,,,,,,,,,
,,,,,,00092,2023-10-30_22h22.52.500,vbt_B2_day1,2022.2.4,Win32,59.9268892,,,,,,,,,,,,,,,,,,,0.401851937,0.449074074,1,0,0,8.1861,4,0,104,19,1,t,images/br_t.png,images/cb_t.png,,,,,,,,,,,,,,,,,,,,,,,,,
,,,,,,00092,2023-10-30_22h22.52.500,vbt_B2_day1,2022.2.4,Win32,59.9268892,,,,,,,,,,,,,,,,,,,0.164814843,0.262962959,1,0,0,1.6837,4,1,105,3,1,d,images/br_d.png,images/cb_d.png,,,,,,,,,,,,,,,,,,,,,,,,,
,,,,,,00092,2023-10-30_22h22.52.500,vbt_B2_day1,2022.2.4,Win32,59.9268892,,,,,,,,,,,,,,,,,,,0.164814843,0.262962959,1,0,0,0.6504,4,2,106,20,1,u,images/br_u.png,images/cb_u.png,,,,,,,,,,,,,,,,,,,,,,,,,
,,,,,,00092,2023-10-30_22h22.52.500,vbt_B2_day1,2022.2.4,Win32,59.9268892,,,,,,,,,,,,,,,,,,,0.164814843,0.262962959,1,0,0,0.3833,4,3,107,1,1,b,images/br_b.png,images/cb_b.png,,,,,,,,,,,,,,,,,,,,,,,,,
,,,,,,00092,2023-10-30_22h22.52.500,vbt_B2_day1,2022.2.4,Win32,59.9268892,,,,,,,,,,,,,,,,,,,0.164814843,0.262962959,1,0,0,0.0999,4,4,108,12,1,m,images/br_m.png,images/cb_m.png,,,,,,,,,,,,,,,,,,,,,,,,,
,,,,,,00092,2023-10-30_22h22.52.500,vbt_B2_day1,2022.2.4,Win32,59.9268892,,,,,,,,,,,,,,,,,,,0.164814843,0.262962959,1,0,0,1.417,4,5,109,23,1,x,images/br_x.png,images/cb_x.png,,,,,,,,,,,,,,,,,,,,,,,,,
,,,,,,00092,2023-10-30_22h22.52.500,vbt_B2_day1,2022.2.4,Win32,59.9268892,,,,,,,,,,,,,,,,,,,0.164814843,0.262962959,1,0,0,0.9671,4,6,110,9,1,j,images/br_j.png,images/cb_j.png,,,,,,,,,,,,,,,,,,,,,,,,,
,,,,,,00092,2023-10-30_22h22.52.500,vbt_B2_day1,2022.2.4,Win32,59.9268892,,,,,,,,,,,,,,,,,,,0.164814843,0.262962959,1,0,0,0.3667,4,7,111,14,1,o,images/br_o.png,images/cb_o.png,,,,,,,,,,,,,,,,,,,,,,,,,
,,,,,,00092,2023-10-30_22h22.52.500,vbt_B2_day1,2022.2.4,Win32,59.9268892,,,,,,,,,,,,,,,,,,,0.164814843,0.262962959,1,0,0,0.0671,4,8,112,7,1,h,images/br_h.png,images/cb_h.png,,,,,,,,,,,,,,,,,,,,,,,,,
,,,,,,00092,2023-10-30_22h22.52.500,vbt_B2_day1,2022.2.4,Win32,59.9268892,,,,,,,,,,,,,,,,,,,0.164814843,0.262962959,1,0,0,0.8336,4,9,113,22,1,w,images/br_w.png,images/cb_w.png,,,,,,,,,,,,,,,,,,,,,,,,,
,,,,,,00092,2023-10-30_22h22.52.500,vbt_B2_day1,2022.2.4,Win32,59.9268892,,,,,,,,,,,,,,,,,,,0.164814843,0.262962959,1,0,0,0.5669,4,10,114,25,1,z,images/br_z.png,images/cb_z.png,,,,,,,,,,,,,,,,,,,,,,,,,
,,,,,,00092,2023-10-30_22h22.52.500,vbt_B2_day1,2022.2.4,Win32,59.9268892,,,,,,,,,,,,,,,,,,,0.164814843,0.262962959,1,0,0,0.1002,4,11,115,4,1,e,images/br_e.png,images/cb_e.png,,,,,,,,,,,,,,,,,,,,,,,,,
,,,,,,00092,2023-10-30_22h22.52.500,vbt_B2_day1,2022.2.4,Win32,59.9268892,,,,,,,,,,,,,,,,,,,0.164814843,0.262962959,1,0,0,0.217,4,12,116,6,1,g,images/br_g.png,images/cb_g.png,,,,,,,,,,,,,,,,,,,,,,,,,
,,,,,,00092,2023-10-30_22h22.52.500,vbt_B2_day1,2022.2.4,Win32,59.9268892,,,,,,,,,,,,,,,,,,,0.164814843,0.262962959,1,0,0,1.5175,4,13,117,16,1,q,images/br_q.png,images/cb_q.png,,,,,,,,,,,,,,,,,,,,,,,,,
,,,,,,00092,2023-10-30_22h22.52.500,vbt_B2_day1,2022.2.4,Win32,59.9268892,,,,,,,,,,,,,,,,,,,0.164814843,0.262962959,1,0,0,0.2337,4,14,118,0,1,a,images/br_a.png,images/cb_a.png,,,,,,,,,,,,,,,,,,,,,,,,,
,,,,,,00092,2023-10-30_22h22.52.500,vbt_B2_day1,2022.2.4,Win32,59.9268892,,,,,,,,,,,,,,,,,,,0.164814843,0.262962959,1,0,0,0.1168,4,15,119,10,1,k,images/br_k.png,images/cb_k.png,,,,,,,,,,,,,,,,,,,,,,,,,
,,,,,,00092,2023-10-30_22h22.52.500,vbt_B2_day1,2022.2.4,Win32,59.9268892,,,,,,,,,,,,,,,,,,,0.162037037,0.264814818,1,0,0,1.2174,4,16,120,18,1,s,images/br_s.png,images/cb_s.png,,,,,,,,,,,,,,,,,,,,,,,,,
,,,,,,00092,2023-10-30_22h22.52.500,vbt_B2_day1,2022.2.4,Win32,59.9268892,,,,,,,,,,,,,,,,,,,0.217592593,0.171296296,1,0,0,5.8518,4,17,121,15,1,p,images/br_p.png,images/cb_p.png,,,,,,,,,,,,,,,,,,,,,,,,,
,,,,,,00092,2023-10-30_22h22.52.500,vbt_B2_day1,2022.2.4,Win32,59.9268892,,,,,,,,,,,,,,,,,,,0.217592593,0.171296296,1,0,0,0.1001,4,18,122,13,1,n,images/br_n.png,images/cb_n.png,,,,,,,,,,,,,,,,,,,,,,,,,
,,,,,,00092,2023-10-30_22h22.52.500,vbt_B2_day1,2022.2.4,Win32,59.9268892,,,,,,,,,,,,,,,,,,,0.161111125,0.094444452,1,0,0,0.5005,4,19,123,8,1,i,images/br_i.png,images/cb_i.png,,,,,,,,,,,,,,,,,,,,,,,,,
,,,,,,00092,2023-10-30_22h22.52.500,vbt_B2_day1,2022.2.4,Win32,59.9268892,,,,,,,,,,,,,,,,,,,0.137962977,0.074999986,1,0,0,0.0165,4,20,124,17,1,r,images/br_r.png,images/cb_r.png,,,,,,,,,,,,,,,,,,,,,,,,,
,,,,,,00092,2023-10-30_22h22.52.500,vbt_B2_day1,2022.2.4,Win32,59.9268892,,,,,,,,,,,,,,,,,,,0.152777778,0.056481467,1,0,0,4.6687,4,21,125,2,1,c,images/br_c.png,images/cb_c.png,,,,,,,,,,,,,,,,,,,,,,,,,
,,,,,,00092,2023-10-30_22h22.52.500,vbt_B2_day1,2022.2.4,Win32,59.9268892,,,,,,,,,,,,,,,,,,,0.125,0.15370369,1,0,0,34.6016,4,22,126,5,1,f,images/br_f.png,images/cb_f.png,,,,,,,,,,,,,,,,,,,,,,,,,
,,,,,,00092,2023-10-30_22h22.52.500,vbt_B2_day1,2022.2.4,Win32,59.9268892,,,,,,,,,,,,,,,,,,,0.111111111,0.147222201,1,0,0,7.8193,4,23,127,24,1,y,images/br_y.png,images/cb_y.png,,,,,,,,,,,,,,,,,,,,,,,,,
,,,,,,00092,2023-10-30_22h22.52.500,vbt_B2_day1,2022.2.4,Win32,59.9268892,,,,,,,,,,,,,,,,,,,0.111111111,0.147222201,1,0,0,1.8508,4,24,128,11,1,l,images/br_l.png,images/cb_l.png,,,,,,,,,,,,,,,,,,,,,,,,,
,,,,,,00092,2023-10-30_22h22.52.500,vbt_B2_day1,2022.2.4,Win32,59.9268892,,,,,,,,,,,,,,,,,,,0.231481481,0.259259259,1,0,0,9.1533,4,25,129,21,1,v,images/br_v.png,images/cb_v.png,,,,,,,,,,,,,,,,,,,,,,,,,
,,,,,,00092,2023-10-30_22h22.52.500,vbt_B2_day1,2022.2.4,Win32,59.9268892,,,,,,,,,,,,,,,,,,,0.231481481,0.259259259,1,0,0,0.4169,5,0,130,15,1,p,images/br_p.png,images/cb_p.png,,,,,,,,,,,,,,,,,,,,,,,,,
,,,,,,00092,2023-10-30_22h22.52.500,vbt_B2_day1,2022.2.4,Win32,59.9268892,,,,,,,,,,,,,,,,,,,0.231481481,0.259259259,1,0,0,1.2507,5,1,131,8,1,i,images/br_i.png,images/cb_i.png,,,,,,,,,,,,,,,,,,,,,,,,,
,,,,,,00092,2023-10-30_22h22.52.500,vbt_B2_day1,2022.2.4,Win32,59.9268892,,,,,,,,,,,,,,,,,,,0.231481481,0.259259259,1,0,0,1.1506,5,2,132,5,1,f,images/br_f.png,images/cb_f.png,,,,,,,,,,,,,,,,,,,,,,,,,
,,,,,,00092,2023-10-30_22h22.52.500,vbt_B2_day1,2022.2.4,Win32,59.9268892,,,,,,,,,,,,,,,,,,,0.231481481,0.259259259,1,0,0,0.1333,5,3,133,6,1,g,images/br_g.png,images/cb_g.png,,,,,,,,,,,,,,,,,,,,,,,,,
,,,,,,00092,2023-10-30_22h22.52.500,vbt_B2_day1,2022.2.4,Win32,59.9268892,,,,,,,,,,,,,,,,,,,0.231481481,0.259259259,1,0,0,0.4666,5,4,134,13,1,n,images/br_n.png,images/cb_n.png,,,,,,,,,,,,,,,,,,,,,,,,,
,,,,,,00092,2023-10-30_22h22.52.500,vbt_B2_day1,2022.2.4,Win32,59.9268892,,,,,,,,,,,,,,,,,,,0.231481481,0.259259259,1,0,0,2.5178,5,5,135,19,1,t,images/br_t.png,images/cb_t.png,,,,,,,,,,,,,,,,,,,,,,,,,
,,,,,,00092,2023-10-30_22h22.52.500,vbt_B2_day1,2022.2.4,Win32,59.9268892,,,,,,,,,,,,,,,,,,,0.231481481,0.259259259,1,0,0,0.1001,5,6,136,2,1,c,images/br_c.png,images/cb_c.png,,,,,,,,,,,,,,,,,,,,,,,,,
,,,,,,00092,2023-10-30_22h22.52.500,vbt_B2_day1,2022.2.4,Win32,59.9268892,,,,,,,,,,,,,,,,,,,0.231481481,0.259259259,1,0,0,0.1833,5,7,137,21,1,v,images/br_v.png,images/cb_v.png,,,,,,,,,,,,,,,,,,,,,,,,,
,,,,,,00092,2023-10-30_22h22.52.500,vbt_B2_day1,2022.2.4,Win32,59.9268892,,,,,,,,,,,,,,,,,,,0.231481481,0.259259259,1,0,0,0.1336,5,8,138,10,1,k,images/br_k.png,images/cb_k.png,,,,,,,,,,,,,,,,,,,,,,,,,
,,,,,,00092,2023-10-30_22h22.52.500,vbt_B2_day1,2022.2.4,Win32,59.9268892,,,,,,,,,,,,,,,,,,,0.231481481,0.259259259,1,0,0,0.1667,5,9,139,24,1,y,images/br_y.png,images/cb_y.png,,,,,,,,,,,,,,,,,,,,,,,,,
,,,,,,00092,2023-10-30_22h22.52.500,vbt_B2_day1,2022.2.4,Win32,59.9268892,,,,,,,,,,,,,,,,,,,0.231481481,0.259259259,1,0,0,1.5173,5,10,140,16,1,q,images/br_q.png,images/cb_q.png,,,,,,,,,,,,,,,,,,,,,,,,,
,,,,,,00092,2023-10-30_22h22.52.500,vbt_B2_day1,2022.2.4,Win32,59.9268892,,,,,,,,,,,,,,,,,,,0.229629658,0.259259259,1,0,0,0.8002,5,11,141,12,1,m,images/br_m.png,images/cb_m.png,,,,,,,,,,,,,,,,,,,,,,,,,
,,,,,,00092,2023-10-30_22h22.52.500,vbt_B2_day1,2022.2.4,Win32,59.9268892,,,,,,,,,,,,,,,,,,,0.229629658,0.259259259,1,0,0,1.0173,5,12,142,14,1,o,images/br_o.png,images/cb_o.png,,,,,,,,,,,,,,,,,,,,,,,,,
,,,,,,00092,2023-10-30_22h22.52.500,vbt_B2_day1,2022.2.4,Win32,59.9268892,,,,,,,,,,,,,,,,,,,0.229629658,0.261111101,1,0,0,2.2508,5,13,143,17,1,r,images/br_r.png,images/cb_r.png,,,,,,,,,,,,,,,,,,,,,,,,,
,,,,,,00092,2023-10-30_22h22.52.500,vbt_B2_day1,2022.2.4,Win32,59.9268892,,,,,,,,,,,,,,,,,,,0.229629658,0.261111101,1,0,0,1.2837,5,14,144,1,1,b,images/br_b.png,images/cb_b.png,,,,,,,,,,,,,,,,,,,,,,,,,
,,,,,,00092,2023-10-30_22h22.52.500,vbt_B2_day1,2022.2.4,Win32,59.9268892,,,,,,,,,,,,,,,,,,,0.229629658,0.261111101,1,0,0,1.3172,5,15,145,25,1,z,images/br_z.png,images/cb_z.png,,,,,,,,,,,,,,,,,,,,,,,,,
,,,,,,00092,2023-10-30_22h22.52.500,vbt_B2_day1,2022.2.4,Win32,59.9268892,,,,,,,,,,,,,,,,,,,0.229629658,0.261111101,1,0,0,1.3339,5,16,146,23,1,x,images/br_x.png,images/cb_x.png,,,,,,,,,,,,,,,,,,,,,,,,,
,,,,,,00092,2023-10-30_22h22.52.500,vbt_B2_day1,2022.2.4,Win32,59.9268892,,,,,,,,,,,,,,,,,,,-0.214814787,-0.028703725,1,0,0,115.1758,5,17,147,9,1,j,images/br_j.png,images/cb_j.png,,,,,,,,,,,,,,,,,,,,,,,,,
,,,,,,00092,2023-10-30_22h22.52.500,vbt_B2_day1,2022.2.4,Win32,59.9268892,,,,,,,,,,,,,,,,,,,-0.016666624,-0.015740748,1,0,0,0.0337,5,18,148,18,1,s,images/br_s.png,images/cb_s.png,,,,,,,,,,,,,,,,,,,,,,,,,
,,,,,,00092,2023-10-30_22h22.52.500,vbt_B2_day1,2022.2.4,Win32,59.9268892,,,,,,,,,,,,,,,,,,,-0.012962977,-0.087037051,1,0,0,0.1504,5,19,149,7,1,h,images/br_h.png,images/cb_h.png,,,,,,,,,,,,,,,,,,,,,,,,,
,,,,,,00092,2023-10-30_22h22.52.500,vbt_B2_day1,2022.2.4,Win32,59.9268892,,,,,,,,,,,,,,,,,,,-0.10092594,0.008333312,1,0,0,0.4666,5,20,150,22,1,w,images/br_w.png,images/cb_w.png,,,,,,,,,,,,,,,,,,,,,,,,,
,,,,,,00092,2023-10-30_22h22.52.500,vbt_B2_day1,2022.2.4,Win32,59.9268892,,,,,,,,,,,,,,,,,,,-0.10555557,0.017592571,1,0,0,0.0171,5,21,151,20,1,u,images/br_u.png,images/cb_u.png,,,,,,,,,,,,,,,,,,,,,,,,,
,,,,,,00092,2023-10-30_22h22.52.500,vbt_B2_day1,2022.2.4,Win32,59.9268892,,,,,,,,,,,,,,,,,,,-0.108333305,0.018518519,1,0,0,0.1166,5,22,152,3,1,d,images/br_d.png,images/cb_d.png,,,,,,,,,,,,,,,,,,,,,,,,,
,,,,,,00092,2023-10-30_22h22.52.500,vbt_B2_day1,2022.2.4,Win32,59.9268892,,,,,,,,,,,,,,,,,,,-0.108333305,0.018518519,1,0,0,0.5,5,23,153,0,1,a,images/br_a.png,images/cb_a.png,,,,,,,,,,,,,,,,,,,,,,,,,
,,,,,,00092,2023-10-30_22h22.52.500,vbt_B2_day1,2022.2.4,Win32,59.9268892,,,,,,,,,,,,,,,,,,,-0.314814815,-0.209259245,1,0,0,1.1839,5,24,154,11,1,l,images/br_l.png,images/cb_l.png,,,,,,,,,,,,,,,,,,,,,,,,,
,,,,,,00092,2023-10-30_22h22.52.500,vbt_B2_day1,2022.2.4,Win32,59.9268892,,,,,,,,,,,,,,,,,,,-0.124074088,-0.181481467,1,0,0,0.862,5,25,155,4,1,e,images/br_e.png,images/cb_e.png,,,,,,,,,,,,,,,,,,,,,,,,,
,,,,,,00092,2023-10-30_22h22.52.500,vbt_B2_day1,2022.2.4,Win32,59.9268892,,,,,,,,,,,,,,,,,,,-0.10555557,-0.037962984,1,0,0,3.1177,6,0,156,12,1,m,images/br_m.png,images/cb_m.png,,,,,,,,,,,,,,,,,,,,,,,,,
,,,,,,00092,2023-10-30_22h22.52.500,vbt_B2_day1,2022.2.4,Win32,59.9268892,,,,,,,,,,,,,,,,,,,-0.10555557,-0.037962984,1,0,0,0.1166,6,1,157,23,1,x,images/br_x.png,images/cb_x.png,,,,,,,,,,,,,,,,,,,,,,,,,
,,,,,,00092,2023-10-30_22h22.52.500,vbt_B2_day1,2022.2.4,Win32,59.9268892,,,,,,,,,,,,,,,,,,,-0.10555557,-0.037962984,1,0,0,0.5218,6,2,158,11,1,l,images/br_l.png,images/cb_l.png,,,,,,,,,,,,,,,,,,,,,,,,,
,,,,,,00092,2023-10-30_22h22.52.500,vbt_B2_day1,2022.2.4,Win32,59.9268892,,,,,,,,,,,,,,,,,,,-0.302777785,0.1324074,1,0,0,0.2336,6,3,159,25,1,z,images/br_z.png,images/cb_z.png,,,,,,,,,,,,,,,,,,,,,,,,,
,,,,,,00092,2023-10-30_22h22.52.500,vbt_B2_day1,2022.2.4,Win32,59.9268892,,,,,,,,,,,,,,,,,,,-0.305555556,0.192592586,1,0,0,0.1,6,4,160,19,1,t,images/br_t.png,images/cb_t.png,,,,,,,,,,,,,,,,,,,,,,,,,
,,,,,,00092,2023-10-30_22h22.52.500,vbt_B2_day1,2022.2.4,Win32,59.9268892,,,,,,,,,,,,,,,,,,,-0.305555556,0.192592586,1,0,0,0.1,6,5,161,18,1,s,images/br_s.png,images/cb_s.png,,,,,,,,,,,,,,,,,,,,,,,,,
,,,,,,00092,2023-10-30_22h22.52.500,vbt_B2_day1,2022.2.4,Win32,59.9268892,,,,,,,,,,,,,,,,,,,-0.305555556,0.192592586,1,0,0,0.1001,6,6,162,2,1,c,images/br_c.png,images/cb_c.png,,,,,,,,,,,,,,,,,,,,,,,,,
,,,,,,00092,2023-10-30_22h22.52.500,vbt_B2_day1,2022.2.4,Win32,59.9268892,,,,,,,,,,,,,,,,,,,-0.305555556,0.192592586,1,0,0,0.683,6,7,163,1,1,b,images/br_b.png,images/cb_b.png,,,,,,,,,,,,,,,,,,,,,,,,,
,,,,,,00092,2023-10-30_22h22.52.500,vbt_B2_day1,2022.2.4,Win32,59.9268892,,,,,,,,,,,,,,,,,,,-0.305555556,0.192592586,1,0,0,0.0834,6,8,164,10,1,k,images/br_k.png,images/cb_k.png,,,,,,,,,,,,,,,,,,,,,,,,,
,,,,,,00092,2023-10-30_22h22.52.500,vbt_B2_day1,2022.2.4,Win32,59.9268892,,,,,,,,,,,,,,,,,,,-0.305555556,0.210185175,1,0,0,0.017,6,9,165,6,1,g,images/br_g.png,images/cb_g.png,,,,,,,,,,,,,,,,,,,,,,,,,
,,,,,,00092,2023-10-30_22h22.52.500,vbt_B2_day1,2022.2.4,Win32,59.9268892,,,,,,,,,,,,,,,,,,,-0.305555556,0.210185175,1,0,0,0.3836,6,10,166,8,1,i,images/br_i.png,images/cb_i.png,,,,,,,,,,,,,,,,,,,,,,,,,
,,,,,,00092,2023-10-30_22h22.52.500,vbt_B2_day1,2022.2.4,Win32,59.9268892,,,,,,,,,,,,,,,,,,,0.19722225,0.196296303,1,0,0,51.986,6,11,167,22,1,w,images/br_w.png,images/cb_w.png,,,,,,,,,,,,,,,,,,,,,,,,,
,,,,,,00092,2023-10-30_22h22.52.500,vbt_B2_day1,2022.2.4,Win32,59.9268892,,,,,,,,,,,,,,,,,,,0.166666667,0.235185182,1,0,0,0.2166,6,12,168,17,1,r,images/br_r.png,images/cb_r.png,,,,,,,,,,,,,,,,,,,,,,,,,
,,,,,,00092,2023-10-30_22h22.52.500,vbt_B2_day1,2022.2.4,Win32,59.9268892,,,,,,,,,,,,,,,,,,,0.166666667,0.235185182,1,0,0,0.5167,6,13,169,0,1,a,images/br_a.png,images/cb_a.png,,,,,,,,,,,,,,,,,,,,,,,,,
,,,,,,00092,2023-10-30_22h22.52.500,vbt_B2_day1,2022.2.4,Win32,59.9268892,,,,,,,,,,,,,,,,,,,0.607407464,0.160185178,1,0,0,0.45,6,14,170,16,1,q,images/br_q.png,images/cb_q.png,,,,,,,,,,,,,,,,,,,,,,,,,
,,,,,,00092,2023-10-30_22h22.52.500,vbt_B2_day1,2022.2.4,Win32,59.9268892,,,,,,,,,,,,,,,,,,,0.37962963,0.393518519,1,0,0,12.4714,6,15,171,15,1,p,images/br_p.png,images/cb_p.png,,,,,,,,,,,,,,,,,,,,,,,,,
,,,,,,00092,2023-10-30_22h22.52.500,vbt_B2_day1,2022.2.4,Win32,59.9268892,,,,,,,,,,,,,,,,,,,0.369444529,0.298148138,1,0,0,0.1336,6,16,172,13,1,n,images/br_n.png,images/cb_n.png,,,,,,,,,,,,,,,,,,,,,,,,,
,,,,,,00092,2023-10-30_22h22.52.500,vbt_B2_day1,2022.2.4,Win32,59.9268892,,,,,,,,,,,,,,,,,,,0.369444529,0.298148138,1,0,0,1.5172,6,17,173,5,1,f,images/br_f.png,images/cb_f.png,,,,,,,,,,,,,,,,,,,,,,,,,
,,,,,,00092,2023-10-30_22h22.52.500,vbt_B2_day1,2022.2.4,Win32,59.9268892,,,,,,,,,,,,,,,,,,,0.369444529,0.298148138,1,0,0,0.5339,6,18,174,21,1,v,images/br_v.png,images/cb_v.png,,,,,,,,,,,,,,,,,,,,,,,,,
,,,,,,00092,2023-10-30_22h22.52.500,vbt_B2_day1,2022.2.4,Win32,59.9268892,,,,,,,,,,,,,,,,,,,0.369444529,0.298148138,1,0,0,0.3499,6,19,175,20,1,u,images/br_u.png,images/cb_u.png,,,,,,,,,,,,,,,,,,,,,,,,,
,,,,,,00092,2023-10-30_22h22.52.500,vbt_B2_day1,2022.2.4,Win32,59.9268892,,,,,,,,,,,,,,,,,,,0.422222279,0.168518526,1,0,0,15.5224,6,20,176,3,1,d,images/br_d.png,images/cb_d.png,,,,,,,,,,,,,,,,,,,,,,,,,
,,,,,,00092,2023-10-30_22h22.52.500,vbt_B2_day1,2022.2.4,Win32,59.9268892,,,,,,,,,,,,,,,,,,,0.407407407,0.112037023,1,0,0,1.0456,6,21,177,24,1,y,images/br_y.png,images/cb_y.png,,,,,,,,,,,,,,,,,,,,,,,,,
,,,,,,00092,2023-10-30_22h22.52.500,vbt_B2_day1,2022.2.4,Win32,59.9268892,,,,,,,,,,,,,,,,,,,0.407407407,0.112037023,1,0,0,0.2002,6,22,178,14,1,o,images/br_o.png,images/cb_o.png,,,,,,,,,,,,,,,,,,,,,,,,,
,,,,,,00092,2023-10-30_22h22.52.500,vbt_B2_day1,2022.2.4,Win32,59.9268892,,,,,,,,,,,,,,,,,,,0.407407407,0.112037023,1,0,0,0.0168,6,23,179,4,1,e,images/br_e.png,images/cb_e.png,,,,,,,,,,,,,,,,,,,,,,,,,
,,,,,,00092,2023-10-30_22h22.52.500,vbt_B2_day1,2022.2.4,Win32,59.9268892,,,,,,,,,,,,,,,,,,,0.492592564,0.140740748,0,0,1,8.2753,6,24,180,7,1,h,images/br_h.png,images/cb_h.png,,,,,,,,,,,,,,,,,,,,,,,,,
,,,,,,00092,2023-10-30_22h22.52.500,vbt_B2_day1,2022.2.4,Win32,59.9268892,,,,,,,,,,,,,,,,,,,0.262962977,0.390740739,1,0,0,0.0503,6,25,181,9,1,j,images/br_j.png,images/cb_j.png,,,,,,,,,,,,,,,,,,,,,,,,,
,,,,,,00092,2023-10-30_22h22.52.500,vbt_B2_day1,2022.2.4,Win32,59.9268892,,,,,,,,,,,,,,,,,,,,,,,,,,,,,,,,,0.26944443,0.390740739,1,0,0,,,,,,,,,,,,,,,,,,,,
,,,,,,00092,2023-10-30_22h22.52.500,vbt_B2_day1,2022.2.4,Win32,59.9268892,,,,,,,,,,,,,,,,,,,,,,,,,,,,,,,,,,,,,,0.248148176,-0.046296296,1,0,0,,,,,,,,,,,,,,,
,,,,,,00092,2023-10-30_22h22.52.500,vbt_B2_day1,2022.2.4,Win32,59.9268892,,,,,,,,,,,,,,,,,,,,,,,,,,,,,,,,,,,,,,,,,,,0.358333305,-0.155555584,1,0,0,genoni.,genoni.,0,0,0,29,1,genond,images/br_genond.png,images/cb_genond.png
,,,,,,00092,2023-10-30_22h22.52.500,vbt_B2_day1,2022.2.4,Win32,59.9268892,,,,,,,,,,,,,,,,,,,,,,,,,,,,,,,,,,,,,,,,,,,-0.047222208,0.014814801,1,0,0,lenez,lenez,0,1,1,46,1,lezen,images/br_lezen.png,images/cb_lezen.png
,,,,,,00092,2023-10-30_22h22.52.500,vbt_B2_day1,2022.2.4,Win32,59.9268892,,,,,,,,,,,,,,,,,,,,,,,,,,,,,,,,,,,,,,,,,,,-0.099999958,-0.072222215,1,0,0,,,0,2,2,18,1,uitdelen,images/br_uitdelen.png,images/cb_uitdelen.png
,,,,,,00092,2023-10-30_22h22.52.500,vbt_B2_day1,2022.2.4,Win32,59.9268892,,,,,,,,,,,,,,,,,,,,,,,,,,,,,,,,,,,,,,,,,,,-0.346296275,-0.113888917,1,0,0,glaow,glaow,0,3,3,7,1,klauw,images/br_klauw.png,images/cb_klauw.png
,,,,,,00092,2023-10-30_22h22.52.500,vbt_B2_day1,2022.2.4,Win32,59.9268892,,,,,,,,,,,,,,,,,,,,,,,,,,,,,,,,,,,,,,,,,,,-0.127777735,0.134259259,1,0,0,,,0,4,4,38,1,schielen,images/br_schielen.png,images/cb_schielen.png
,,,,,,00092,2023-10-30_22h22.52.500,vbt_B2_day1,2022.2.4,Win32,59.9268892,,,,,,,,,,,,,,,,,,,,,,,,,,,,,,,,,,,,,,,,,,,0.128703718,-0.023148148,1,0,0,loc.t..,loc.t..,0,5,5,34,1,lochten,images/br_lochten.png,images/cb_lochten.png
,,,,,,00092,2023-10-30_22h22.52.500,vbt_B2_day1,2022.2.4,Win32,59.9268892,,,,,,,,,,,,,,,,,,,,,,,,,,,,,,,,,,,,,,,,,,,-0.124074088,-0.030555548,1,0,0,,,0,6,6,59,1,opvatten,images/br_opvatten.png,images/cb_opvatten.png
,,,,,,00092,2023-10-30_22h22.52.500,vbt_B2_day1,2022.2.4,Win32,59.9268892,,,,,,,,,,,,,,,,,,,,,,,,,,,,,,,,,,,,,,,,,,,0.038888931,-0.086111104,1,0,0,.aar.ee.,.aar.ee.,0,7,7,16,1,daarheen,images/br_daarheen.png,images/cb_daarheen.png
,,,,,,00092,2023-10-30_22h22.52.500,vbt_B2_day1,2022.2.4,Win32,59.9268892,,,,,,,,,,,,,,,,,,,,,,,,,,,,,,,,,,,,,,,,,,,0.038888931,-0.086111104,1,0,0,lava,lava,0,8,8,43,1,lava,images/br_lava.png,images/cb_lava.png
,,,,,,00092,2023-10-30_22h22.52.500,vbt_B2_day1,2022.2.4,Win32,59.9268892,,,,,,,,,,,,,,,,,,,,,,,,,,,,,,,,,,,,,,,,,,,0.038888931,-0.086111104,1,0,0,tennis,tennis,0,9,9,55,1,tekenen,images/br_tekenen.png,images/cb_tekenen.png
,,,,,,00092,2023-10-30_22h22.52.500,vbt_B2_day1,2022.2.4,Win32,59.9268892,,,,,,,,,,,,,,,,,,,,,,,,,,,,,,,,,,,,,,,,,,,0.038888931,-0.086111104,1,0,0,.aar.a..,.aar.a..,0,10,10,14,1,waarvan,images/br_waarvan.png,images/cb_waarvan.png
,,,,,,00092,2023-10-30_22h22.52.500,vbt_B2_day1,2022.2.4,Win32,59.9268892,,,,,,,,,,,,,,,,,,,,,,,,,,,,,,,,,,,,,,,,,,,0.068518533,-0.082407422,1,0,0,tooi,tooi,0,11,11,23,1,booi,images/br_booi.png,images/cb_booi.png
,,,,,,00092,2023-10-30_22h22.52.500,vbt_B2_day1,2022.2.4,Win32,59.9268892,,,,,,,,,,,,,,,,,,,,,,,,,,,,,,,,,,,,,,,,,,,-0.026851866,-0.032407407,1,0,0,tars,tars,0,12,12,20,1,tars,images/br_tars.png,images/cb_tars.png
,,,,,,00092,2023-10-30_22h22.52.500,vbt_B2_day1,2022.2.4,Win32,59.9268892,,,,,,,,,,,,,,,,,,,,,,,,,,,,,,,,,,,,,,,,,,,-0.076851809,0.02870369,1,0,0,.loon.,.loon.,0,13,13,33,1,flullen,images/br_flullen.png,images/cb_flullen.png
,,,,,,00092,2023-10-30_22h22.52.500,vbt_B2_day1,2022.2.4,Win32,59.9268892,,,,,,,,,,,,,,,,,,,,,,,,,,,,,,,,,,,,,,,,,,,0.155555584,-0.028703725,1,0,0,,,0,14,14,9,1,dubbel,images/br_dubbel.png,images/cb_dubbel.png
,,,,,,00092,2023-10-30_22h22.52.500,vbt_B2_day1,2022.2.4,Win32,59.9268892,,,,,,,,,,,,,,,,,,,,,,,,,,,,,,,,,,,,,,,,,,,-0.040740755,-0.190740727,1,0,0,rctie,rctie,0,15,15,48,1,fictie,images/br_fictie.png,images/cb_fictie.png
,,,,,,00092,2023-10-30_22h22.52.500,vbt_B2_day1,2022.2.4,Win32,59.9268892,,,,,,,,,,,,,,,,,,,,,,,,,,,,,,,,,,,,,,,,,,,-0.04814812,0.003703683,1,0,0,,,0,16,16,36,1,vervaden,images/br_vervaden.png,images/cb_vervaden.png
,,,,,,00092,2023-10-30_22h22.52.500,vbt_B2_day1,2022.2.4,Win32,59.9268892,,,,,,,,,,,,,,,,,,,,,,,,,,,,,,,,,,,,,,,,,,,-0.04814812,0.003703683,1,0,0,,,0,17,17,58,1,voorkeur,images/br_voorkeur.png,images/cb_voorkeur.png
,,,,,,00092,2023-10-30_22h22.52.500,vbt_B2_day1,2022.2.4,Win32,59.9268892,,,,,,,,,,,,,,,,,,,,,,,,,,,,,,,,,,,,,,,,,,,0.063888903,-0.006481489,1,0,0,,,0,18,18,4,1,schep,images/br_schep.png,images/cb_schep.png
,,,,,,00092,2023-10-30_22h22.52.500,vbt_B2_day1,2022.2.4,Win32,59.9268892,,,,,,,,,,,,,,,,,,,,,,,,,,,,,,,,,,,,,,,,,,,0.063888903,-0.006481489,1,0,0,wifne,wifne,0,19,19,44,1,wijze,images/br_wijze.png,images/cb_wijze.png
,,,,,,00092,2023-10-30_22h22.52.500,vbt_B2_day1,2022.2.4,Win32,59.9268892,,,,,,,,,,,,,,,,,,,,,,,,,,,,,,,,,,,,,,,,,,,0.063888903,-0.006481489,1,0,0,bebrip,bebrip,0,20,20,28,1,bebrip,images/br_bebrip.png,images/cb_bebrip.png
,,,,,,00092,2023-10-30_22h22.52.500,vbt_B2_day1,2022.2.4,Win32,59.9268892,,,,,,,,,,,,,,,,,,,,,,,,,,,,,,,,,,,,,,,,,,,-0.036111125,-0.047222243,1,0,0,stuihem,stuihem,0,21,21,35,1,stuikem,images/br_stuikem.png,images/cb_stuikem.png
,,,,,,00092,2023-10-30_22h22.52.500,vbt_B2_day1,2022.2.4,Win32,59.9268892,,,,,,,,,,,,,,,,,,,,,,,,,,,,,,,,,,,,,,,,,,,-0.036111125,-0.047222243,1,0,0,nuiplap,nuiplap,0,22,22,52,1,zuiplap,images/br_zuiplap.png,images/cb_zuiplap.png
,,,,,,00092,2023-10-30_22h22.52.500,vbt_B2_day1,2022.2.4,Win32,59.9268892,,,,,,,,,,,,,,,,,,,,,,,,,,,,,,,,,,,,,,,,,,,-0.036111125,-0.047222243,1,0,0,.emel,.emel,0,23,23,45,1,hemel,images/br_hemel.png,images/cb_hemel.png
,,,,,,00092,2023-10-30_22h22.52.500,vbt_B2_day1,2022.2.4,Win32,59.9268892,,,,,,,,,,,,,,,,,,,,,,,,,,,,,,,,,,,,,,,,,,,-0.036111125,-0.047222243,1,0,0,maken,maken,0,24,24,5,1,maken,images/br_maken.png,images/cb_maken.png
,,,,,,00092,2023-10-30_22h22.52.500,vbt_B2_day1,2022.2.4,Win32,59.9268892,,,,,,,,,,,,,,,,,,,,,,,,,,,,,,,,,,,,,,,,,,,-0.036111125,-0.047222243,1,0,0,slak,slak,0,25,25,0,1,slak,images/br_slak.png,images/cb_slak.png
,,,,,,00092,2023-10-30_22h22.52.500,vbt_B2_day1,2022.2.4,Win32,59.9268892,,,,,,,,,,,,,,,,,,,,,,,,,,,,,,,,,,,,,,,,,,,-0.036111125,-0.047222243,1,0,0,loo.s,loo.s,0,26,26,47,1,loods,images/br_loods.png,images/cb_loods.png
,,,,,,00092,2023-10-30_22h22.52.500,vbt_B2_day1,2022.2.4,Win32,59.9268892,,,,,,,,,,,,,,,,,,,,,,,,,,,,,,,,,,,,,,,,,,,-0.036111125,-0.047222243,1,0,0,.oog,.oog,0,27,27,41,1,hoog,images/br_hoog.png,images/cb_hoog.png
,,,,,,00092,2023-10-30_22h22.52.500,vbt_B2_day1,2022.2.4,Win32,59.9268892,,,,,,,,,,,,,,,,,,,,,,,,,,,,,,,,,,,,,,,,,,,-0.036111125,-0.047222243,1,0,0,mening,mening,0,28,28,11,1,mening,images/br_mening.png,images/cb_mening.png
,,,,,,00092,2023-10-30_22h22.52.500,vbt_B2_day1,2022.2.4,Win32,59.9268892,,,,,,,,,,,,,,,,,,,,,,,,,,,,,,,,,,,,,,,,,,,-0.036111125,-0.047222243,1,0,0,liegen,liegen,0,29,29,50,1,liegen,images/br_liegen.png,images/cb_liegen.png
,,,,,,00092,2023-10-30_22h22.52.500,vbt_B2_day1,2022.2.4,Win32,59.9268892,,,,,,,,,,,,,,,,,,,,,,,,,,,,,,,,,,,,,,,,,,,-0.012962977,-0.363888917,1,0,0,.ierhan,.ierhan,0,30,30,15,1,hiervan,images/br_hiervan.png,images/cb_hiervan.png
,,,,,,00092,2023-10-30_22h22.52.500,vbt_B2_day1,2022.2.4,Win32,59.9268892,,,,,,,,,,,,,,,,,,,,,,,,,,,,,,,,,,,,,,,,,,,-0.003703718,0.037962949,1,0,0,naal,naal,0,31,31,1,1,zaal,images/br_zaal.png,images/cb_zaal.png
,,,,,,00092,2023-10-30_22h22.52.500,vbt_B2_day1,2022.2.4,Win32,59.9268892,,,,,,,,,,,,,,,,,,,,,,,,,,,,,,,,,,,,,,,,,,,0.036111125,0.02407406,1,0,0,bri.k,bri.k,0,32,32,25,1,brijk,images/br_brijk.png,images/cb_brijk.png
,,,,,,00092,2023-10-30_22h22.52.500,vbt_B2_day1,2022.2.4,Win32,59.9268892,,,,,,,,,,,,,,,,,,,,,,,,,,,,,,,,,,,,,,,,,,,0.036111125,0.02407406,1,0,0,.re.,.re.,0,33,33,21,1,dred,images/br_dred.png,images/cb_dred.png
,,,,,,00092,2023-10-30_22h22.52.500,vbt_B2_day1,2022.2.4,Win32,59.9268892,,,,,,,,,,,,,,,,,,,,,,,,,,,,,,,,,,,,,,,,,,,0.036111125,0.02407406,1,0,0,attentie,attentie,0,34,34,17,1,attentie,images/br_attentie.png,images/cb_attentie.png
,,,,,,00092,2023-10-30_22h22.52.500,vbt_B2_day1,2022.2.4,Win32,59.9268892,,,,,,,,,,,,,,,,,,,,,,,,,,,,,,,,,,,,,,,,,,,0.036111125,0.02407406,1,0,0,opslaan,opslaan,0,35,35,53,1,opslaan,images/br_opslaan.png,images/cb_opslaan.png
,,,,,,00092,2023-10-30_22h22.52.500,vbt_B2_day1,2022.2.4,Win32,59.9268892,,,,,,,,,,,,,,,,,,,,,,,,,,,,,,,,,,,,,,,,,,,0.036111125,0.02407406,1,0,0,knoe,knoe,0,36,36,22,1,knoe,images/br_knoe.png,images/cb_knoe.png
,,,,,,00092,2023-10-30_22h22.52.500,vbt_B2_day1,2022.2.4,Win32,59.9268892,,,,,,,,,,,,,,,,,,,,,,,,,,,,,,,,,,,,,,,,,,,0.036111125,0.02407406,1,0,0,t.if.el,t.if.el,0,37,37,13,1,twijfel,images/br_twijfel.png,images/cb_twijfel.png
,,,,,,00092,2023-10-30_22h22.52.500,vbt_B2_day1,2022.2.4,Win32,59.9268892,,,,,,,,,,,,,,,,,,,,,,,,,,,,,,,,,,,,,,,,,,,0.033333319,0.018518519,1,0,0,mand,mand,0,38,38,3,1,mand,images/br_mand.png,images/cb_mand.png
,,,,,,00092,2023-10-30_22h22.52.500,vbt_B2_day1,2022.2.4,Win32,59.9268892,,,,,,,,,,,,,,,,,,,,,,,,,,,,,,,,,,,,,,,,,,,0.440740797,0.303703697,1,0,0,ree.fe,ree.fe,0,39,39,30,1,reedje,images/br_reedje.png,images/cb_reedje.png
,,,,,,00092,2023-10-30_22h22.52.500,vbt_B2_day1,2022.2.4,Win32,59.9268892,,,,,,,,,,,,,,,,,,,,,,,,,,,,,,,,,,,,,,,,,,,0.315740797,0.14444443,1,0,0,toenicht,toenicht,0,40,40,56,1,toezicht,images/br_toezicht.png,images/cb_toezicht.png
,,,,,,00092,2023-10-30_22h22.52.500,vbt_B2_day1,2022.2.4,Win32,59.9268892,,,,,,,,,,,,,,,,,,,,,,,,,,,,,,,,,,,,,,,,,,,0.428703732,0.189814815,1,0,0,schuilen,schuilen,0,41,41,19,1,schuilen,images/br_schuilen.png,images/cb_schuilen.png
,,,,,,00092,2023-10-30_22h22.52.500,vbt_B2_day1,2022.2.4,Win32,59.9268892,,,,,,,,,,,,,,,,,,,,,,,,,,,,,,,,,,,,,,,,,,,0.428703732,0.189814815,1,0,0,bleek,bleek,0,42,42,6,1,bleek,images/br_bleek.png,images/cb_bleek.png
,,,,,,00092,2023-10-30_22h22.52.500,vbt_B2_day1,2022.2.4,Win32,59.9268892,,,,,,,,,,,,,,,,,,,,,,,,,,,,,,,,,,,,,,,,,,,0.428703732,0.189814815,1,0,0,kanjer,kanjer,0,43,43,8,1,kanjer,images/br_kanjer.png,images/cb_kanjer.png
,,,,,,00092,2023-10-30_22h22.52.500,vbt_B2_day1,2022.2.4,Win32,59.9268892,,,,,,,,,,,,,,,,,,,,,,,,,,,,,,,,,,,,,,,,,,,0.428703732,0.189814815,1,0,0,span.ing,span.ing,0,44,44,37,1,spanzing,images/br_spanzing.png,images/cb_spanzing.png
,,,,,,00092,2023-10-30_22h22.52.500,vbt_B2_day1,2022.2.4,Win32,59.9268892,,,,,,,,,,,,,,,,,,,,,,,,,,,,,,,,,,,,,,,,,,,0.428703732,0.189814815,1,0,0,dief,dief,0,45,45,40,1,dief,images/br_dief.png,images/cb_dief.png
,,,,,,00092,2023-10-30_22h22.52.500,vbt_B2_day1,2022.2.4,Win32,59.9268892,,,,,,,,,,,,,,,,,,,,,,,,,,,,,,,,,,,,,,,,,,,0.373148176,0.087962963,1,0,0,prort,prort,0,46,46,27,1,prort,images/br_prort.png,images/cb_prort.png
,,,,,,00092,2023-10-30_22h22.52.500,vbt_B2_day1,2022.2.4,Win32,59.9268892,,,,,,,,,,,,,,,,,,,,,,,,,,,,,,,,,,,,,,,,,,,0.373148176,0.087962963,1,0,0,muniek,muniek,0,47,47,10,1,muziek,images/br_muziek.png,images/cb_muziek.png
,,,,,,00092,2023-10-30_22h22.52.500,vbt_B2_day1,2022.2.4,Win32,59.9268892,,,,,,,,,,,,,,,,,,,,,,,,,,,,,,,,,,,,,,,,,,,0.373148176,0.087962963,1,0,0,vin...,vin...,0,48,48,49,1,vizier,images/br_vizier.png,images/cb_vizier.png
,,,,,,00092,2023-10-30_22h22.52.500,vbt_B2_day1,2022.2.4,Win32,59.9268892,,,,,,,,,,,,,,,,,,,,,,,,,,,,,,,,,,,,,,,,,,,0.373148176,0.087962963,1,0,0,meenemen,meenemen,0,49,49,57,1,meenemen,images/br_meenemen.png,images/cb_meenemen.png
,,,,,,00092,2023-10-30_22h22.52.500,vbt_B2_day1,2022.2.4,Win32,59.9268892,,,,,,,,,,,,,,,,,,,,,,,,,,,,,,,,,,,,,,,,,,,0.373148176,0.087962963,1,0,0,klimmen,klimmen,0,50,50,12,1,klimmen,images/br_klimmen.png,images/cb_klimmen.png
,,,,,,00092,2023-10-30_22h22.52.500,vbt_B2_day1,2022.2.4,Win32,59.9268892,,,,,,,,,,,,,,,,,,,,,,,,,,,,,,,,,,,,,,,,,,,0.37037037,0.085185192,1,0,0,rener,rener,0,51,51,24,1,rezer,images/br_rezer.png,images/cb_rezer.png
,,,,,,00092,2023-10-30_22h22.52.500,vbt_B2_day1,2022.2.4,Win32,59.9268892,,,,,,,,,,,,,,,,,,,,,,,,,,,,,,,,,,,,,,,,,,,0.3648149,0.083333333,1,0,0,stamen,stamen,0,52,52,31,1,stamen,images/br_stamen.png,images/cb_stamen.png
,,,,,,00092,2023-10-30_22h22.52.500,vbt_B2_day1,2022.2.4,Win32,59.9268892,,,,,,,,,,,,,,,,,,,,,,,,,,,,,,,,,,,,,,,,,,,0.3648149,0.083333333,1,0,0,stuk,stuk,0,53,53,42,1,stuk,images/br_stuk.png,images/cb_stuk.png
,,,,,,00092,2023-10-30_22h22.52.500,vbt_B2_day1,2022.2.4,Win32,59.9268892,,,,,,,,,,,,,,,,,,,,,,,,,,,,,,,,,,,,,,,,,,,0.362037094,0.083333333,1,0,0,jaar,jaar,0,54,54,2,1,jaar,images/br_jaar.png,images/cb_jaar.png
,,,,,,00092,2023-10-30_22h22.52.500,vbt_B2_day1,2022.2.4,Win32,59.9268892,,,,,,,,,,,,,,,,,,,,,,,,,,,,,,,,,,,,,,,,,,,0.362037094,0.083333333,1,0,0,liefje,liefje,0,55,55,51,1,liefde,images/br_liefde.png,images/cb_liefde.png
,,,,,,00092,2023-10-30_22h22.52.500,vbt_B2_day1,2022.2.4,Win32,59.9268892,,,,,,,,,,,,,,,,,,,,,,,,,,,,,,,,,,,,,,,,,,,0.362037094,0.083333333,1,0,0,opplaan,opplaan,0,56,56,32,1,opplaan,images/br_opplaan.png,images/cb_opplaan.png
,,,,,,00092,2023-10-30_22h22.52.500,vbt_B2_day1,2022.2.4,Win32,59.9268892,,,,,,,,,,,,,,,,,,,,,,,,,,,,,,,,,,,,,,,,,,,0.362037094,0.083333333,1,0,0,valop,valop,0,57,57,26,1,valop,images/br_valop.png,images/cb_valop.png
,,,,,,00092,2023-10-30_22h22.52.500,vbt_B2_day1,2022.2.4,Win32,59.9268892,,,,,,,,,,,,,,,,,,,,,,,,,,,,,,,,,,,,,,,,,,,0.362037094,0.083333333,1,0,0,vijftig,vijftig,0,58,58,54,1,vijftig,images/br_vijftig.png,images/cb_vijftig.png
,,,,,,00092,2023-10-30_22h22.52.500,vbt_B2_day1,2022.2.4,Win32,59.9268892,,,,,,,,,,,,,,,,,,,,,,,,,,,,,,,,,,,,,,,,,,,0.362037094,0.083333333,1,0,0,voorreur,voorreur,0,59,59,39,1,voorreur,images/br_voorreur.png,images/cb_voorreur.png
,,,,,,00092,2023-10-30_22h22.52.500,vbt_B2_day1,2022.2.4,Win32,59.9268892,,,,,,,,,,,,,,,,,,,,,,,,,,,,,,,,,,,,,,,,,,,,,,,,,,,,,,,,,
