welcome_mouse.x,welcome_mouse.y,welcome_mouse.leftButton,welcome_mouse.midButton,welcome_mouse.rightButton,welcome_mouse.time,"ID",date,expName,psychopyVersion,OS,frameRate,mouse_2.x,mouse_2.y,mouse_2.leftButton,mouse_2.midButton,mouse_2.rightButton,mouse_2.time,mouse_3.x,mouse_3.y,mouse_3.leftButton,mouse_3.midButton,mouse_3.rightButton,mouse_3.time,train_mouse.x,train_mouse.y,train_mouse.leftButton,train_mouse.midButton,train_mouse.rightButton,train_mouse.time,braille_mouse.x,braille_mouse.y,braille_mouse.leftButton,braille_mouse.midButton,braille_mouse.rightButton,braille_mouse.time,trials.thisRepN,trials.thisTrialN,trials.thisN,trials.thisIndex,trials.ran,nlLet,brLet,cbLet,mouse.x,mouse.y,mouse.leftButton,mouse.midButton,mouse.rightButton,testInstr_mouse.x,testInstr_mouse.y,testInstr_mouse.leftButton,testInstr_mouse.midButton,testInstr_mouse.rightButton,test_mouse.x,test_mouse.y,test_mouse.leftButton,test_mouse.midButton,test_mouse.rightButton,test_response.text,testResp,test_loop.thisRepN,test_loop.thisTrialN,test_loop.thisN,test_loop.thisIndex,test_loop.ran,nlWrd,brWrd,cbWrd
-0.037962949,-0.337037051,1,0,0,4.523,00097,2023-11-06_14h55.11.160,vbt_B2_day1,2022.2.4,Win32,143.8641922,,,,,,,,,,,,,,,,,,,,,,,,,,,,,,,,,,,,,,,,,,,,,,,,,,,,,,,,,
,,,,,,00097,2023-11-06_14h55.11.160,vbt_B2_day1,2022.2.4,Win32,143.8641922,-0.01944443,-0.415740755,1,0,0,0.8321,,,,,,,,,,,,,,,,,,,,,,,,,,,,,,,,,,,,,,,,,,,,,,,,,,,
,,,,,,00097,2023-11-06_14h55.11.160,vbt_B2_day1,2022.2.4,Win32,143.8641922,,,,,,,-0.01944443,-0.415740755,1,0,0,0.6782,,,,,,,,,,,,,,,,,,,,,,,,,,,,,,,,,,,,,,,,,,,,,
,,,,,,00097,2023-11-06_14h55.11.160,vbt_B2_day1,2022.2.4,Win32,143.8641922,,,,,,,,,,,,,-0.01944443,-0.415740755,1,0,0,12.9692,,,,,,,,,,,,,,,,,,,,,,,,,,,,,,,,,,,,,,,
,,,,,,00097,2023-11-06_14h55.11.160,vbt_B2_day1,2022.2.4,Win32,143.8641922,,,,,,,,,,,,,,,,,,,-0.01944443,-0.415740755,1,0,0,18.2253,0,0,0,20,1,u,images/br_u.png,images/cb_u.png,,,,,,,,,,,,,,,,,,,,,,,,,
,,,,,,00097,2023-11-06_14h55.11.160,vbt_B2_day1,2022.2.4,Win32,143.8641922,,,,,,,,,,,,,,,,,,,-0.01944443,-0.415740755,1,0,0,17.007,0,1,1,24,1,y,images/br_y.png,images/cb_y.png,,,,,,,,,,,,,,,,,,,,,,,,,
,,,,,,00097,2023-11-06_14h55.11.160,vbt_B2_day1,2022.2.4,Win32,143.8641922,,,,,,,,,,,,,,,,,,,-0.01944443,-0.415740755,1,0,0,0.2084,0,2,2,3,1,d,images/br_d.png,images/cb_d.png,,,,,,,,,,,,,,,,,,,,,,,,,
,,,,,,00097,2023-11-06_14h55.11.160,vbt_B2_day1,2022.2.4,Win32,143.8641922,,,,,,,,,,,,,,,,,,,-0.01944443,-0.415740755,1,0,0,0.0097,0,3,3,13,1,n,images/br_n.png,images/cb_n.png,,,,,,,,,,,,,,,,,,,,,,,,,
,,,,,,00097,2023-11-06_14h55.11.160,vbt_B2_day1,2022.2.4,Win32,143.8641922,,,,,,,,,,,,,,,,,,,-0.01944443,-0.415740755,1,0,0,0.4305,0,4,4,14,1,o,images/br_o.png,images/cb_o.png,,,,,,,,,,,,,,,,,,,,,,,,,
,,,,,,00097,2023-11-06_14h55.11.160,vbt_B2_day1,2022.2.4,Win32,143.8641922,,,,,,,,,,,,,,,,,,,-0.01944443,-0.415740755,1,0,0,0.3821,0,5,5,25,1,z,images/br_z.png,images/cb_z.png,,,,,,,,,,,,,,,,,,,,,,,,,
,,,,,,00097,2023-11-06_14h55.11.160,vbt_B2_day1,2022.2.4,Win32,143.8641922,,,,,,,,,,,,,,,,,,,-0.01944443,-0.415740755,1,0,0,0.3206,0,6,6,8,1,i,images/br_i.png,images/cb_i.png,,,,,,,,,,,,,,,,,,,,,,,,,
,,,,,,00097,2023-11-06_14h55.11.160,vbt_B2_day1,2022.2.4,Win32,143.8641922,,,,,,,,,,,,,,,,,,,-0.01944443,-0.415740755,1,0,0,0.0394,0,7,7,19,1,t,images/br_t.png,images/cb_t.png,,,,,,,,,,,,,,,,,,,,,,,,,
,,,,,,00097,2023-11-06_14h55.11.160,vbt_B2_day1,2022.2.4,Win32,143.8641922,,,,,,,,,,,,,,,,,,,0.001851894,-0.374074088,1,0,0,0.2847,0,8,8,16,1,q,images/br_q.png,images/cb_q.png,,,,,,,,,,,,,,,,,,,,,,,,,
,,,,,,00097,2023-11-06_14h55.11.160,vbt_B2_day1,2022.2.4,Win32,143.8641922,,,,,,,,,,,,,,,,,,,0.001851894,-0.374074088,1,0,0,0.1944,0,9,9,15,1,p,images/br_p.png,images/cb_p.png,,,,,,,,,,,,,,,,,,,,,,,,,
,,,,,,00097,2023-11-06_14h55.11.160,vbt_B2_day1,2022.2.4,Win32,143.8641922,,,,,,,,,,,,,,,,,,,0.001851894,-0.374074088,1,0,0,0.3126,0,10,10,6,1,g,images/br_g.png,images/cb_g.png,,,,,,,,,,,,,,,,,,,,,,,,,
,,,,,,00097,2023-11-06_14h55.11.160,vbt_B2_day1,2022.2.4,Win32,143.8641922,,,,,,,,,,,,,,,,,,,0.001851894,-0.374074088,1,0,0,0.9004,0,11,11,12,1,m,images/br_m.png,images/cb_m.png,,,,,,,,,,,,,,,,,,,,,,,,,
,,,,,,00097,2023-11-06_14h55.11.160,vbt_B2_day1,2022.2.4,Win32,143.8641922,,,,,,,,,,,,,,,,,,,0.001851894,-0.374074088,1,0,0,0.7573,0,12,12,11,1,l,images/br_l.png,images/cb_l.png,,,,,,,,,,,,,,,,,,,,,,,,,
,,,,,,00097,2023-11-06_14h55.11.160,vbt_B2_day1,2022.2.4,Win32,143.8641922,,,,,,,,,,,,,,,,,,,0.001851894,-0.374074088,1,0,0,0.2667,0,13,13,4,1,e,images/br_e.png,images/cb_e.png,,,,,,,,,,,,,,,,,,,,,,,,,
,,,,,,00097,2023-11-06_14h55.11.160,vbt_B2_day1,2022.2.4,Win32,143.8641922,,,,,,,,,,,,,,,,,,,0.001851894,-0.374074088,1,0,0,0.4542,0,14,14,22,1,w,images/br_w.png,images/cb_w.png,,,,,,,,,,,,,,,,,,,,,,,,,
,,,,,,00097,2023-11-06_14h55.11.160,vbt_B2_day1,2022.2.4,Win32,143.8641922,,,,,,,,,,,,,,,,,,,0.001851894,-0.374074088,1,0,0,0.0834,0,15,15,0,1,a,images/br_a.png,images/cb_a.png,,,,,,,,,,,,,,,,,,,,,,,,,
,,,,,,00097,2023-11-06_14h55.11.160,vbt_B2_day1,2022.2.4,Win32,143.8641922,,,,,,,,,,,,,,,,,,,0.001851894,-0.374074088,1,0,0,0.0275,0,16,16,23,1,x,images/br_x.png,images/cb_x.png,,,,,,,,,,,,,,,,,,,,,,,,,
,,,,,,00097,2023-11-06_14h55.11.160,vbt_B2_day1,2022.2.4,Win32,143.8641922,,,,,,,,,,,,,,,,,,,0.001851894,-0.374074088,1,0,0,0.7153,0,17,17,18,1,s,images/br_s.png,images/cb_s.png,,,,,,,,,,,,,,,,,,,,,,,,,
,,,,,,00097,2023-11-06_14h55.11.160,vbt_B2_day1,2022.2.4,Win32,143.8641922,,,,,,,,,,,,,,,,,,,0.001851894,-0.374074088,1,0,0,0.336,0,18,18,17,1,r,images/br_r.png,images/cb_r.png,,,,,,,,,,,,,,,,,,,,,,,,,
,,,,,,00097,2023-11-06_14h55.11.160,vbt_B2_day1,2022.2.4,Win32,143.8641922,,,,,,,,,,,,,,,,,,,0.001851894,-0.374074088,1,0,0,0.1111,0,19,19,5,1,f,images/br_f.png,images/cb_f.png,,,,,,,,,,,,,,,,,,,,,,,,,
,,,,,,00097,2023-11-06_14h55.11.160,vbt_B2_day1,2022.2.4,Win32,143.8641922,,,,,,,,,,,,,,,,,,,0.001851894,-0.374074088,1,0,0,0.1177,0,20,20,7,1,h,images/br_h.png,images/cb_h.png,,,,,,,,,,,,,,,,,,,,,,,,,
,,,,,,00097,2023-11-06_14h55.11.160,vbt_B2_day1,2022.2.4,Win32,143.8641922,,,,,,,,,,,,,,,,,,,0.001851894,-0.374074088,1,0,0,0.354,0,21,21,2,1,c,images/br_c.png,images/cb_c.png,,,,,,,,,,,,,,,,,,,,,,,,,
,,,,,,00097,2023-11-06_14h55.11.160,vbt_B2_day1,2022.2.4,Win32,143.8641922,,,,,,,,,,,,,,,,,,,0.001851894,-0.374074088,1,0,0,0.3608,0,22,22,9,1,j,images/br_j.png,images/cb_j.png,,,,,,,,,,,,,,,,,,,,,,,,,
,,,,,,00097,2023-11-06_14h55.11.160,vbt_B2_day1,2022.2.4,Win32,143.8641922,,,,,,,,,,,,,,,,,,,0.001851894,-0.374074088,1,0,0,0.8402,0,23,23,10,1,k,images/br_k.png,images/cb_k.png,,,,,,,,,,,,,,,,,,,,,,,,,
,,,,,,00097,2023-11-06_14h55.11.160,vbt_B2_day1,2022.2.4,Win32,143.8641922,,,,,,,,,,,,,,,,,,,0.001851894,-0.374074088,1,0,0,0.8476,0,24,24,1,1,b,images/br_b.png,images/cb_b.png,,,,,,,,,,,,,,,,,,,,,,,,,
,,,,,,00097,2023-11-06_14h55.11.160,vbt_B2_day1,2022.2.4,Win32,143.8641922,,,,,,,,,,,,,,,,,,,0.001851894,-0.374074088,1,0,0,1.271,0,25,25,21,1,v,images/br_v.png,images/cb_v.png,,,,,,,,,,,,,,,,,,,,,,,,,
,,,,,,00097,2023-11-06_14h55.11.160,vbt_B2_day1,2022.2.4,Win32,143.8641922,,,,,,,,,,,,,,,,,,,0.001851894,-0.374074088,1,0,0,0.9165,1,0,26,5,1,f,images/br_f.png,images/cb_f.png,,,,,,,,,,,,,,,,,,,,,,,,,
,,,,,,00097,2023-11-06_14h55.11.160,vbt_B2_day1,2022.2.4,Win32,143.8641922,,,,,,,,,,,,,,,,,,,0.001851894,-0.374074088,1,0,0,1.1811,1,1,27,17,1,r,images/br_r.png,images/cb_r.png,,,,,,,,,,,,,,,,,,,,,,,,,
,,,,,,00097,2023-11-06_14h55.11.160,vbt_B2_day1,2022.2.4,Win32,143.8641922,,,,,,,,,,,,,,,,,,,0.001851894,-0.374074088,1,0,0,0.0972,1,2,28,21,1,v,images/br_v.png,images/cb_v.png,,,,,,,,,,,,,,,,,,,,,,,,,
,,,,,,00097,2023-11-06_14h55.11.160,vbt_B2_day1,2022.2.4,Win32,143.8641922,,,,,,,,,,,,,,,,,,,0.001851894,-0.374074088,1,0,0,0.1248,1,3,29,12,1,m,images/br_m.png,images/cb_m.png,,,,,,,,,,,,,,,,,,,,,,,,,
,,,,,,00097,2023-11-06_14h55.11.160,vbt_B2_day1,2022.2.4,Win32,143.8641922,,,,,,,,,,,,,,,,,,,0.001851894,-0.374074088,1,0,0,2.014,1,4,30,2,1,c,images/br_c.png,images/cb_c.png,,,,,,,,,,,,,,,,,,,,,,,,,
,,,,,,00097,2023-11-06_14h55.11.160,vbt_B2_day1,2022.2.4,Win32,143.8641922,,,,,,,,,,,,,,,,,,,0.001851894,-0.374074088,1,0,0,0.6017,1,5,31,1,1,b,images/br_b.png,images/cb_b.png,,,,,,,,,,,,,,,,,,,,,,,,,
,,,,,,00097,2023-11-06_14h55.11.160,vbt_B2_day1,2022.2.4,Win32,143.8641922,,,,,,,,,,,,,,,,,,,0.001851894,-0.374074088,1,0,0,0.9236,1,6,32,8,1,i,images/br_i.png,images/cb_i.png,,,,,,,,,,,,,,,,,,,,,,,,,
,,,,,,00097,2023-11-06_14h55.11.160,vbt_B2_day1,2022.2.4,Win32,143.8641922,,,,,,,,,,,,,,,,,,,0.001851894,-0.374074088,1,0,0,1.4907,1,7,33,24,1,y,images/br_y.png,images/cb_y.png,,,,,,,,,,,,,,,,,,,,,,,,,
,,,,,,00097,2023-11-06_14h55.11.160,vbt_B2_day1,2022.2.4,Win32,143.8641922,,,,,,,,,,,,,,,,,,,0.001851894,-0.374074088,1,0,0,0.3519,1,8,34,0,1,a,images/br_a.png,images/cb_a.png,,,,,,,,,,,,,,,,,,,,,,,,,
,,,,,,00097,2023-11-06_14h55.11.160,vbt_B2_day1,2022.2.4,Win32,143.8641922,,,,,,,,,,,,,,,,,,,0.001851894,-0.374074088,1,0,0,0.1316,1,9,35,11,1,l,images/br_l.png,images/cb_l.png,,,,,,,,,,,,,,,,,,,,,,,,,
,,,,,,00097,2023-11-06_14h55.11.160,vbt_B2_day1,2022.2.4,Win32,143.8641922,,,,,,,,,,,,,,,,,,,0.001851894,-0.374074088,1,0,0,0.6389,1,10,36,25,1,z,images/br_z.png,images/cb_z.png,,,,,,,,,,,,,,,,,,,,,,,,,
,,,,,,00097,2023-11-06_14h55.11.160,vbt_B2_day1,2022.2.4,Win32,143.8641922,,,,,,,,,,,,,,,,,,,-0.018518519,-0.335185228,1,0,0,0.0903,1,11,37,19,1,t,images/br_t.png,images/cb_t.png,,,,,,,,,,,,,,,,,,,,,,,,,
,,,,,,00097,2023-11-06_14h55.11.160,vbt_B2_day1,2022.2.4,Win32,143.8641922,,,,,,,,,,,,,,,,,,,-0.010185171,-0.256481524,1,0,0,2.5626,1,12,38,16,1,q,images/br_q.png,images/cb_q.png,,,,,,,,,,,,,,,,,,,,,,,,,
,,,,,,00097,2023-11-06_14h55.11.160,vbt_B2_day1,2022.2.4,Win32,143.8641922,,,,,,,,,,,,,,,,,,,-0.010185171,-0.256481524,1,0,0,0.8059,1,13,39,3,1,d,images/br_d.png,images/cb_d.png,,,,,,,,,,,,,,,,,,,,,,,,,
,,,,,,00097,2023-11-06_14h55.11.160,vbt_B2_day1,2022.2.4,Win32,143.8641922,,,,,,,,,,,,,,,,,,,-0.010185171,-0.256481524,1,0,0,1.9356,1,14,40,18,1,s,images/br_s.png,images/cb_s.png,,,,,,,,,,,,,,,,,,,,,,,,,
,,,,,,00097,2023-11-06_14h55.11.160,vbt_B2_day1,2022.2.4,Win32,143.8641922,,,,,,,,,,,,,,,,,,,-0.010185171,-0.256481524,1,0,0,1.5058,1,15,41,23,1,x,images/br_x.png,images/cb_x.png,,,,,,,,,,,,,,,,,,,,,,,,,
,,,,,,00097,2023-11-06_14h55.11.160,vbt_B2_day1,2022.2.4,Win32,143.8641922,,,,,,,,,,,,,,,,,,,-0.010185171,-0.256481524,1,0,0,0.3838,1,16,42,14,1,o,images/br_o.png,images/cb_o.png,,,,,,,,,,,,,,,,,,,,,,,,,
,,,,,,00097,2023-11-06_14h55.11.160,vbt_B2_day1,2022.2.4,Win32,143.8641922,,,,,,,,,,,,,,,,,,,-0.010185171,-0.256481524,1,0,0,0.051,1,17,43,9,1,j,images/br_j.png,images/cb_j.png,,,,,,,,,,,,,,,,,,,,,,,,,
,,,,,,00097,2023-11-06_14h55.11.160,vbt_B2_day1,2022.2.4,Win32,143.8641922,,,,,,,,,,,,,,,,,,,-0.010185171,-0.256481524,1,0,0,0.523,1,18,44,6,1,g,images/br_g.png,images/cb_g.png,,,,,,,,,,,,,,,,,,,,,,,,,
,,,,,,00097,2023-11-06_14h55.11.160,vbt_B2_day1,2022.2.4,Win32,143.8641922,,,,,,,,,,,,,,,,,,,-0.010185171,-0.256481524,1,0,0,0.3878,1,19,45,4,1,e,images/br_e.png,images/cb_e.png,,,,,,,,,,,,,,,,,,,,,,,,,
,,,,,,00097,2023-11-06_14h55.11.160,vbt_B2_day1,2022.2.4,Win32,143.8641922,,,,,,,,,,,,,,,,,,,-0.010185171,-0.256481524,1,0,0,0.0608,1,20,46,20,1,u,images/br_u.png,images/cb_u.png,,,,,,,,,,,,,,,,,,,,,,,,,
,,,,,,00097,2023-11-06_14h55.11.160,vbt_B2_day1,2022.2.4,Win32,143.8641922,,,,,,,,,,,,,,,,,,,0.023148148,0.008333312,1,0,0,0.2068,1,21,47,22,1,w,images/br_w.png,images/cb_w.png,,,,,,,,,,,,,,,,,,,,,,,,,
,,,,,,00097,2023-11-06_14h55.11.160,vbt_B2_day1,2022.2.4,Win32,143.8641922,,,,,,,,,,,,,,,,,,,0.023148148,0.008333312,1,0,0,0.2016,1,22,48,7,1,h,images/br_h.png,images/cb_h.png,,,,,,,,,,,,,,,,,,,,,,,,,
,,,,,,00097,2023-11-06_14h55.11.160,vbt_B2_day1,2022.2.4,Win32,143.8641922,,,,,,,,,,,,,,,,,,,0.023148148,0.008333312,1,0,0,0.8055,1,23,49,10,1,k,images/br_k.png,images/cb_k.png,,,,,,,,,,,,,,,,,,,,,,,,,
,,,,,,00097,2023-11-06_14h55.11.160,vbt_B2_day1,2022.2.4,Win32,143.8641922,,,,,,,,,,,,,,,,,,,0.023148148,0.008333312,1,0,0,1.5002,1,24,50,15,1,p,images/br_p.png,images/cb_p.png,,,,,,,,,,,,,,,,,,,,,,,,,
,,,,,,00097,2023-11-06_14h55.11.160,vbt_B2_day1,2022.2.4,Win32,143.8641922,,,,,,,,,,,,,,,,,,,0.023148148,0.008333312,1,0,0,0.66,1,25,51,13,1,n,images/br_n.png,images/cb_n.png,,,,,,,,,,,,,,,,,,,,,,,,,
,,,,,,00097,2023-11-06_14h55.11.160,vbt_B2_day1,2022.2.4,Win32,143.8641922,,,,,,,,,,,,,,,,,,,0.023148148,0.008333312,1,0,0,0.0341,2,0,52,19,1,t,images/br_t.png,images/cb_t.png,,,,,,,,,,,,,,,,,,,,,,,,,
,,,,,,00097,2023-11-06_14h55.11.160,vbt_B2_day1,2022.2.4,Win32,143.8641922,,,,,,,,,,,,,,,,,,,0.01944443,0.027777778,1,0,0,0.8406,2,1,53,7,1,h,images/br_h.png,images/cb_h.png,,,,,,,,,,,,,,,,,,,,,,,,,
,,,,,,00097,2023-11-06_14h55.11.160,vbt_B2_day1,2022.2.4,Win32,143.8641922,,,,,,,,,,,,,,,,,,,0.01944443,0.027777778,1,0,0,1.1668,2,2,54,20,1,u,images/br_u.png,images/cb_u.png,,,,,,,,,,,,,,,,,,,,,,,,,
,,,,,,00097,2023-11-06_14h55.11.160,vbt_B2_day1,2022.2.4,Win32,143.8641922,,,,,,,,,,,,,,,,,,,0.01944443,0.027777778,1,0,0,2.0842,2,3,55,8,1,i,images/br_i.png,images/cb_i.png,,,,,,,,,,,,,,,,,,,,,,,,,
,,,,,,00097,2023-11-06_14h55.11.160,vbt_B2_day1,2022.2.4,Win32,143.8641922,,,,,,,,,,,,,,,,,,,0.01944443,0.027777778,1,0,0,4.2437,2,4,56,16,1,q,images/br_q.png,images/cb_q.png,,,,,,,,,,,,,,,,,,,,,,,,,
,,,,,,00097,2023-11-06_14h55.11.160,vbt_B2_day1,2022.2.4,Win32,143.8641922,,,,,,,,,,,,,,,,,,,0.01944443,0.027777778,1,0,0,0.0068,2,5,57,4,1,e,images/br_e.png,images/cb_e.png,,,,,,,,,,,,,,,,,,,,,,,,,
,,,,,,00097,2023-11-06_14h55.11.160,vbt_B2_day1,2022.2.4,Win32,143.8641922,,,,,,,,,,,,,,,,,,,0.01944443,0.027777778,1,0,0,0.0603,2,6,58,10,1,k,images/br_k.png,images/cb_k.png,,,,,,,,,,,,,,,,,,,,,,,,,
,,,,,,00097,2023-11-06_14h55.11.160,vbt_B2_day1,2022.2.4,Win32,143.8641922,,,,,,,,,,,,,,,,,,,0.01944443,0.027777778,1,0,0,0.6114,2,7,59,2,1,c,images/br_c.png,images/cb_c.png,,,,,,,,,,,,,,,,,,,,,,,,,
,,,,,,00097,2023-11-06_14h55.11.160,vbt_B2_day1,2022.2.4,Win32,143.8641922,,,,,,,,,,,,,,,,,,,0.01944443,0.027777778,1,0,0,0.0463,2,8,60,11,1,l,images/br_l.png,images/cb_l.png,,,,,,,,,,,,,,,,,,,,,,,,,
,,,,,,00097,2023-11-06_14h55.11.160,vbt_B2_day1,2022.2.4,Win32,143.8641922,,,,,,,,,,,,,,,,,,,0.01944443,0.027777778,1,0,0,1.1506,2,9,61,13,1,n,images/br_n.png,images/cb_n.png,,,,,,,,,,,,,,,,,,,,,,,,,
,,,,,,00097,2023-11-06_14h55.11.160,vbt_B2_day1,2022.2.4,Win32,143.8641922,,,,,,,,,,,,,,,,,,,0.01944443,0.027777778,1,0,0,2.1277,2,10,62,0,1,a,images/br_a.png,images/cb_a.png,,,,,,,,,,,,,,,,,,,,,,,,,
,,,,,,00097,2023-11-06_14h55.11.160,vbt_B2_day1,2022.2.4,Win32,143.8641922,,,,,,,,,,,,,,,,,,,0.01944443,0.027777778,1,0,0,1.4787,2,11,63,5,1,f,images/br_f.png,images/cb_f.png,,,,,,,,,,,,,,,,,,,,,,,,,
,,,,,,00097,2023-11-06_14h55.11.160,vbt_B2_day1,2022.2.4,Win32,143.8641922,,,,,,,,,,,,,,,,,,,0.041666667,0.027777778,1,0,0,0.0278,2,12,64,14,1,o,images/br_o.png,images/cb_o.png,,,,,,,,,,,,,,,,,,,,,,,,,
,,,,,,00097,2023-11-06_14h55.11.160,vbt_B2_day1,2022.2.4,Win32,143.8641922,,,,,,,,,,,,,,,,,,,0.041666667,0.027777778,1,0,0,0.1112,2,13,65,24,1,y,images/br_y.png,images/cb_y.png,,,,,,,,,,,,,,,,,,,,,,,,,
,,,,,,00097,2023-11-06_14h55.11.160,vbt_B2_day1,2022.2.4,Win32,143.8641922,,,,,,,,,,,,,,,,,,,0.041666667,0.027777778,1,0,0,0.9576,2,14,66,21,1,v,images/br_v.png,images/cb_v.png,,,,,,,,,,,,,,,,,,,,,,,,,
,,,,,,00097,2023-11-06_14h55.11.160,vbt_B2_day1,2022.2.4,Win32,143.8641922,,,,,,,,,,,,,,,,,,,0.041666667,0.027777778,1,0,0,0.7458,2,15,67,18,1,s,images/br_s.png,images/cb_s.png,,,,,,,,,,,,,,,,,,,,,,,,,
,,,,,,00097,2023-11-06_14h55.11.160,vbt_B2_day1,2022.2.4,Win32,143.8641922,,,,,,,,,,,,,,,,,,,0.041666667,0.027777778,1,0,0,0.0206,2,16,68,25,1,z,images/br_z.png,images/cb_z.png,,,,,,,,,,,,,,,,,,,,,,,,,
,,,,,,00097,2023-11-06_14h55.11.160,vbt_B2_day1,2022.2.4,Win32,143.8641922,,,,,,,,,,,,,,,,,,,0.041666667,0.027777778,1,0,0,3.1257,2,17,69,6,1,g,images/br_g.png,images/cb_g.png,,,,,,,,,,,,,,,,,,,,,,,,,
,,,,,,00097,2023-11-06_14h55.11.160,vbt_B2_day1,2022.2.4,Win32,143.8641922,,,,,,,,,,,,,,,,,,,0.041666667,0.027777778,1,0,0,0.2891,2,18,70,1,1,b,images/br_b.png,images/cb_b.png,,,,,,,,,,,,,,,,,,,,,,,,,
,,,,,,00097,2023-11-06_14h55.11.160,vbt_B2_day1,2022.2.4,Win32,143.8641922,,,,,,,,,,,,,,,,,,,0.041666667,0.027777778,1,0,0,0.8611,2,19,71,9,1,j,images/br_j.png,images/cb_j.png,,,,,,,,,,,,,,,,,,,,,,,,,
,,,,,,00097,2023-11-06_14h55.11.160,vbt_B2_day1,2022.2.4,Win32,143.8641922,,,,,,,,,,,,,,,,,,,0.041666667,0.027777778,1,0,0,0.0484,2,20,72,15,1,p,images/br_p.png,images/cb_p.png,,,,,,,,,,,,,,,,,,,,,,,,,
,,,,,,00097,2023-11-06_14h55.11.160,vbt_B2_day1,2022.2.4,Win32,143.8641922,,,,,,,,,,,,,,,,,,,0.041666667,0.027777778,1,0,0,1.1043,2,21,73,22,1,w,images/br_w.png,images/cb_w.png,,,,,,,,,,,,,,,,,,,,,,,,,
,,,,,,00097,2023-11-06_14h55.11.160,vbt_B2_day1,2022.2.4,Win32,143.8641922,,,,,,,,,,,,,,,,,,,0.041666667,0.027777778,1,0,0,0.9032,2,22,74,12,1,m,images/br_m.png,images/cb_m.png,,,,,,,,,,,,,,,,,,,,,,,,,
,,,,,,00097,2023-11-06_14h55.11.160,vbt_B2_day1,2022.2.4,Win32,143.8641922,,,,,,,,,,,,,,,,,,,0.041666667,0.027777778,1,0,0,0.1054,2,23,75,3,1,d,images/br_d.png,images/cb_d.png,,,,,,,,,,,,,,,,,,,,,,,,,
,,,,,,00097,2023-11-06_14h55.11.160,vbt_B2_day1,2022.2.4,Win32,143.8641922,,,,,,,,,,,,,,,,,,,0.041666667,0.027777778,1,0,0,0.0209,2,24,76,23,1,x,images/br_x.png,images/cb_x.png,,,,,,,,,,,,,,,,,,,,,,,,,
,,,,,,00097,2023-11-06_14h55.11.160,vbt_B2_day1,2022.2.4,Win32,143.8641922,,,,,,,,,,,,,,,,,,,0.041666667,0.027777778,1,0,0,0.4585,2,25,77,17,1,r,images/br_r.png,images/cb_r.png,,,,,,,,,,,,,,,,,,,,,,,,,
,,,,,,00097,2023-11-06_14h55.11.160,vbt_B2_day1,2022.2.4,Win32,143.8641922,,,,,,,,,,,,,,,,,,,0.041666667,0.027777778,1,0,0,1.4861,3,0,78,7,1,h,images/br_h.png,images/cb_h.png,,,,,,,,,,,,,,,,,,,,,,,,,
,,,,,,00097,2023-11-06_14h55.11.160,vbt_B2_day1,2022.2.4,Win32,143.8641922,,,,,,,,,,,,,,,,,,,0.041666667,0.027777778,1,0,0,4.9442,3,1,79,15,1,p,images/br_p.png,images/cb_p.png,,,,,,,,,,,,,,,,,,,,,,,,,
,,,,,,00097,2023-11-06_14h55.11.160,vbt_B2_day1,2022.2.4,Win32,143.8641922,,,,,,,,,,,,,,,,,,,0.041666667,0.027777778,1,0,0,0.0695,3,2,80,17,1,r,images/br_r.png,images/cb_r.png,,,,,,,,,,,,,,,,,,,,,,,,,
,,,,,,00097,2023-11-06_14h55.11.160,vbt_B2_day1,2022.2.4,Win32,143.8641922,,,,,,,,,,,,,,,,,,,0.041666667,0.027777778,1,0,0,0.0227,3,3,81,11,1,l,images/br_l.png,images/cb_l.png,,,,,,,,,,,,,,,,,,,,,,,,,
,,,,,,00097,2023-11-06_14h55.11.160,vbt_B2_day1,2022.2.4,Win32,143.8641922,,,,,,,,,,,,,,,,,,,0.041666667,0.027777778,1,0,0,0.0417,3,4,82,22,1,w,images/br_w.png,images/cb_w.png,,,,,,,,,,,,,,,,,,,,,,,,,
,,,,,,00097,2023-11-06_14h55.11.160,vbt_B2_day1,2022.2.4,Win32,143.8641922,,,,,,,,,,,,,,,,,,,0.013888889,0.025000007,1,0,0,2.3198,3,5,83,13,1,n,images/br_n.png,images/cb_n.png,,,,,,,,,,,,,,,,,,,,,,,,,
,,,,,,00097,2023-11-06_14h55.11.160,vbt_B2_day1,2022.2.4,Win32,143.8641922,,,,,,,,,,,,,,,,,,,0.013888889,0.025000007,1,0,0,1.1249,3,6,84,3,1,d,images/br_d.png,images/cb_d.png,,,,,,,,,,,,,,,,,,,,,,,,,
,,,,,,00097,2023-11-06_14h55.11.160,vbt_B2_day1,2022.2.4,Win32,143.8641922,,,,,,,,,,,,,,,,,,,0.013888889,0.025000007,1,0,0,0.0491,3,7,85,18,1,s,images/br_s.png,images/cb_s.png,,,,,,,,,,,,,,,,,,,,,,,,,
,,,,,,00097,2023-11-06_14h55.11.160,vbt_B2_day1,2022.2.4,Win32,143.8641922,,,,,,,,,,,,,,,,,,,0.013888889,0.025000007,1,0,0,0.0139,3,8,86,24,1,y,images/br_y.png,images/cb_y.png,,,,,,,,,,,,,,,,,,,,,,,,,
,,,,,,00097,2023-11-06_14h55.11.160,vbt_B2_day1,2022.2.4,Win32,143.8641922,,,,,,,,,,,,,,,,,,,0.013888889,0.025000007,1,0,0,0.5277,3,9,87,21,1,v,images/br_v.png,images/cb_v.png,,,,,,,,,,,,,,,,,,,,,,,,,
,,,,,,00097,2023-11-06_14h55.11.160,vbt_B2_day1,2022.2.4,Win32,143.8641922,,,,,,,,,,,,,,,,,,,0.013888889,0.025000007,1,0,0,3.2014,3,10,88,12,1,m,images/br_m.png,images/cb_m.png,,,,,,,,,,,,,,,,,,,,,,,,,
,,,,,,00097,2023-11-06_14h55.11.160,vbt_B2_day1,2022.2.4,Win32,143.8641922,,,,,,,,,,,,,,,,,,,0.013888889,0.025000007,1,0,0,0.0418,3,11,89,6,1,g,images/br_g.png,images/cb_g.png,,,,,,,,,,,,,,,,,,,,,,,,,
,,,,,,00097,2023-11-06_14h55.11.160,vbt_B2_day1,2022.2.4,Win32,143.8641922,,,,,,,,,,,,,,,,,,,0.013888889,0.025000007,1,0,0,1.6034,3,12,90,20,1,u,images/br_u.png,images/cb_u.png,,,,,,,,,,,,,,,,,,,,,,,,,
,,,,,,00097,2023-11-06_14h55.11.160,vbt_B2_day1,2022.2.4,Win32,143.8641922,,,,,,,,,,,,,,,,,,,0.008333347,0.026851831,1,0,0,0.727,3,13,91,8,1,i,images/br_i.png,images/cb_i.png,,,,,,,,,,,,,,,,,,,,,,,,,
,,,,,,00097,2023-11-06_14h55.11.160,vbt_B2_day1,2022.2.4,Win32,143.8641922,,,,,,,,,,,,,,,,,,,0.008333347,0.026851831,1,0,0,2.9258,3,14,92,14,1,o,images/br_o.png,images/cb_o.png,,,,,,,,,,,,,,,,,,,,,,,,,
,,,,,,00097,2023-11-06_14h55.11.160,vbt_B2_day1,2022.2.4,Win32,143.8641922,,,,,,,,,,,,,,,,,,,0.008333347,0.026851831,1,0,0,0.8079,3,15,93,1,1,b,images/br_b.png,images/cb_b.png,,,,,,,,,,,,,,,,,,,,,,,,,
,,,,,,00097,2023-11-06_14h55.11.160,vbt_B2_day1,2022.2.4,Win32,143.8641922,,,,,,,,,,,,,,,,,,,-0.002777735,0.034259266,1,0,0,1.0275,3,16,94,0,1,a,images/br_a.png,images/cb_a.png,,,,,,,,,,,,,,,,,,,,,,,,,
,,,,,,00097,2023-11-06_14h55.11.160,vbt_B2_day1,2022.2.4,Win32,143.8641922,,,,,,,,,,,,,,,,,,,-0.002777735,0.034259266,1,0,0,0.7777,3,17,95,4,1,e,images/br_e.png,images/cb_e.png,,,,,,,,,,,,,,,,,,,,,,,,,
,,,,,,00097,2023-11-06_14h55.11.160,vbt_B2_day1,2022.2.4,Win32,143.8641922,,,,,,,,,,,,,,,,,,,-0.002777735,0.034259266,1,0,0,9.0211,3,18,96,23,1,x,images/br_x.png,images/cb_x.png,,,,,,,,,,,,,,,,,,,,,,,,,
,,,,,,00097,2023-11-06_14h55.11.160,vbt_B2_day1,2022.2.4,Win32,143.8641922,,,,,,,,,,,,,,,,,,,-0.002777735,0.034259266,1,0,0,4.1668,3,19,97,10,1,k,images/br_k.png,images/cb_k.png,,,,,,,,,,,,,,,,,,,,,,,,,
,,,,,,00097,2023-11-06_14h55.11.160,vbt_B2_day1,2022.2.4,Win32,143.8641922,,,,,,,,,,,,,,,,,,,-0.011111083,0.049074067,1,0,0,0.8403,3,20,98,9,1,j,images/br_j.png,images/cb_j.png,,,,,,,,,,,,,,,,,,,,,,,,,
,,,,,,00097,2023-11-06_14h55.11.160,vbt_B2_day1,2022.2.4,Win32,143.8641922,,,,,,,,,,,,,,,,,,,-0.011111083,0.049074067,1,0,0,0.507,3,21,99,16,1,q,images/br_q.png,images/cb_q.png,,,,,,,,,,,,,,,,,,,,,,,,,
,,,,,,00097,2023-11-06_14h55.11.160,vbt_B2_day1,2022.2.4,Win32,143.8641922,,,,,,,,,,,,,,,,,,,-0.011111083,0.049074067,1,0,0,0.3218,3,22,100,2,1,c,images/br_c.png,images/cb_c.png,,,,,,,,,,,,,,,,,,,,,,,,,
,,,,,,00097,2023-11-06_14h55.11.160,vbt_B2_day1,2022.2.4,Win32,143.8641922,,,,,,,,,,,,,,,,,,,-0.011111083,0.049074067,1,0,0,0.0347,3,23,101,5,1,f,images/br_f.png,images/cb_f.png,,,,,,,,,,,,,,,,,,,,,,,,,
,,,,,,00097,2023-11-06_14h55.11.160,vbt_B2_day1,2022.2.4,Win32,143.8641922,,,,,,,,,,,,,,,,,,,-0.011111083,0.048148155,1,0,0,0.0904,3,24,102,19,1,t,images/br_t.png,images/cb_t.png,,,,,,,,,,,,,,,,,,,,,,,,,
,,,,,,00097,2023-11-06_14h55.11.160,vbt_B2_day1,2022.2.4,Win32,143.8641922,,,,,,,,,,,,,,,,,,,-0.011111083,0.048148155,1,0,0,0.0532,3,25,103,25,1,z,images/br_z.png,images/cb_z.png,,,,,,,,,,,,,,,,,,,,,,,,,
,,,,,,00097,2023-11-06_14h55.11.160,vbt_B2_day1,2022.2.4,Win32,143.8641922,,,,,,,,,,,,,,,,,,,-0.006481453,0.044444437,1,0,0,0.5278,4,0,104,7,1,h,images/br_h.png,images/cb_h.png,,,,,,,,,,,,,,,,,,,,,,,,,
,,,,,,00097,2023-11-06_14h55.11.160,vbt_B2_day1,2022.2.4,Win32,143.8641922,,,,,,,,,,,,,,,,,,,-0.006481453,0.044444437,1,0,0,0.1391,4,1,105,1,1,b,images/br_b.png,images/cb_b.png,,,,,,,,,,,,,,,,,,,,,,,,,
,,,,,,00097,2023-11-06_14h55.11.160,vbt_B2_day1,2022.2.4,Win32,143.8641922,,,,,,,,,,,,,,,,,,,-0.006481453,0.044444437,1,0,0,0.6786,4,2,106,2,1,c,images/br_c.png,images/cb_c.png,,,,,,,,,,,,,,,,,,,,,,,,,
,,,,,,00097,2023-11-06_14h55.11.160,vbt_B2_day1,2022.2.4,Win32,143.8641922,,,,,,,,,,,,,,,,,,,-0.006481453,0.044444437,1,0,0,0.1047,4,3,107,5,1,f,images/br_f.png,images/cb_f.png,,,,,,,,,,,,,,,,,,,,,,,,,
,,,,,,00097,2023-11-06_14h55.11.160,vbt_B2_day1,2022.2.4,Win32,143.8641922,,,,,,,,,,,,,,,,,,,-0.006481453,0.044444437,1,0,0,0.4819,4,4,108,23,1,x,images/br_x.png,images/cb_x.png,,,,,,,,,,,,,,,,,,,,,,,,,
,,,,,,00097,2023-11-06_14h55.11.160,vbt_B2_day1,2022.2.4,Win32,143.8641922,,,,,,,,,,,,,,,,,,,-0.006481453,0.044444437,1,0,0,1.4631,4,5,109,15,1,p,images/br_p.png,images/cb_p.png,,,,,,,,,,,,,,,,,,,,,,,,,
,,,,,,00097,2023-11-06_14h55.11.160,vbt_B2_day1,2022.2.4,Win32,143.8641922,,,,,,,,,,,,,,,,,,,-0.006481453,0.044444437,1,0,0,0.5265,4,6,110,8,1,i,images/br_i.png,images/cb_i.png,,,,,,,,,,,,,,,,,,,,,,,,,
,,,,,,00097,2023-11-06_14h55.11.160,vbt_B2_day1,2022.2.4,Win32,143.8641922,,,,,,,,,,,,,,,,,,,-0.006481453,0.057407414,1,0,0,0.661,4,7,111,13,1,n,images/br_n.png,images/cb_n.png,,,,,,,,,,,,,,,,,,,,,,,,,
,,,,,,00097,2023-11-06_14h55.11.160,vbt_B2_day1,2022.2.4,Win32,143.8641922,,,,,,,,,,,,,,,,,,,-0.012036995,0.087037016,1,0,0,0.4494,4,8,112,14,1,o,images/br_o.png,images/cb_o.png,,,,,,,,,,,,,,,,,,,,,,,,,
,,,,,,00097,2023-11-06_14h55.11.160,vbt_B2_day1,2022.2.4,Win32,143.8641922,,,,,,,,,,,,,,,,,,,-0.012036995,0.087037016,0,0,1,2.3888,4,9,113,0,1,a,images/br_a.png,images/cb_a.png,,,,,,,,,,,,,,,,,,,,,,,,,
,,,,,,00097,2023-11-06_14h55.11.160,vbt_B2_day1,2022.2.4,Win32,143.8641922,,,,,,,,,,,,,,,,,,,-0.012036995,0.087037016,1,0,0,1.1164,4,10,114,20,1,u,images/br_u.png,images/cb_u.png,,,,,,,,,,,,,,,,,,,,,,,,,
,,,,,,00097,2023-11-06_14h55.11.160,vbt_B2_day1,2022.2.4,Win32,143.8641922,,,,,,,,,,,,,,,,,,,-0.012036995,0.087037016,1,0,0,0.5625,4,11,115,24,1,y,images/br_y.png,images/cb_y.png,,,,,,,,,,,,,,,,,,,,,,,,,
,,,,,,00097,2023-11-06_14h55.11.160,vbt_B2_day1,2022.2.4,Win32,143.8641922,,,,,,,,,,,,,,,,,,,-0.012036995,0.087037016,1,0,0,1.982,4,12,116,6,1,g,images/br_g.png,images/cb_g.png,,,,,,,,,,,,,,,,,,,,,,,,,
,,,,,,00097,2023-11-06_14h55.11.160,vbt_B2_day1,2022.2.4,Win32,143.8641922,,,,,,,,,,,,,,,,,,,-0.012036995,0.087037016,1,0,0,0.3888,4,13,117,4,1,e,images/br_e.png,images/cb_e.png,,,,,,,,,,,,,,,,,,,,,,,,,
,,,,,,00097,2023-11-06_14h55.11.160,vbt_B2_day1,2022.2.4,Win32,143.8641922,,,,,,,,,,,,,,,,,,,-0.012036995,0.087037016,1,0,0,0.6946,4,14,118,18,1,s,images/br_s.png,images/cb_s.png,,,,,,,,,,,,,,,,,,,,,,,,,
,,,,,,00097,2023-11-06_14h55.11.160,vbt_B2_day1,2022.2.4,Win32,143.8641922,,,,,,,,,,,,,,,,,,,-0.012036995,0.087037016,1,0,0,0.3611,4,15,119,9,1,j,images/br_j.png,images/cb_j.png,,,,,,,,,,,,,,,,,,,,,,,,,
,,,,,,00097,2023-11-06_14h55.11.160,vbt_B2_day1,2022.2.4,Win32,143.8641922,,,,,,,,,,,,,,,,,,,-0.012036995,0.087037016,1,0,0,1.3472,4,16,120,10,1,k,images/br_k.png,images/cb_k.png,,,,,,,,,,,,,,,,,,,,,,,,,
,,,,,,00097,2023-11-06_14h55.11.160,vbt_B2_day1,2022.2.4,Win32,143.8641922,,,,,,,,,,,,,,,,,,,-0.012036995,0.087037016,1,0,0,2.0555,4,17,121,22,1,w,images/br_w.png,images/cb_w.png,,,,,,,,,,,,,,,,,,,,,,,,,
,,,,,,00097,2023-11-06_14h55.11.160,vbt_B2_day1,2022.2.4,Win32,143.8641922,,,,,,,,,,,,,,,,,,,-0.012036995,0.087037016,0,0,1,0.2974,4,18,122,3,1,d,images/br_d.png,images/cb_d.png,,,,,,,,,,,,,,,,,,,,,,,,,
,,,,,,00097,2023-11-06_14h55.11.160,vbt_B2_day1,2022.2.4,Win32,143.8641922,,,,,,,,,,,,,,,,,,,-0.012036995,0.087037016,1,0,0,0.0712,4,19,123,16,1,q,images/br_q.png,images/cb_q.png,,,,,,,,,,,,,,,,,,,,,,,,,
,,,,,,00097,2023-11-06_14h55.11.160,vbt_B2_day1,2022.2.4,Win32,143.8641922,,,,,,,,,,,,,,,,,,,-0.013888889,0.090740734,1,0,0,0.3611,4,20,124,11,1,l,images/br_l.png,images/cb_l.png,,,,,,,,,,,,,,,,,,,,,,,,,
,,,,,,00097,2023-11-06_14h55.11.160,vbt_B2_day1,2022.2.4,Win32,143.8641922,,,,,,,,,,,,,,,,,,,-0.013888889,0.090740734,1,0,0,1.2246,4,21,125,17,1,r,images/br_r.png,images/cb_r.png,,,,,,,,,,,,,,,,,,,,,,,,,
,,,,,,00097,2023-11-06_14h55.11.160,vbt_B2_day1,2022.2.4,Win32,143.8641922,,,,,,,,,,,,,,,,,,,-0.013888889,0.090740734,1,0,0,0.6338,4,22,126,12,1,m,images/br_m.png,images/cb_m.png,,,,,,,,,,,,,,,,,,,,,,,,,
,,,,,,00097,2023-11-06_14h55.11.160,vbt_B2_day1,2022.2.4,Win32,143.8641922,,,,,,,,,,,,,,,,,,,-0.013888889,0.090740734,1,0,0,0.118,4,23,127,25,1,z,images/br_z.png,images/cb_z.png,,,,,,,,,,,,,,,,,,,,,,,,,
,,,,,,00097,2023-11-06_14h55.11.160,vbt_B2_day1,2022.2.4,Win32,143.8641922,,,,,,,,,,,,,,,,,,,-0.013888889,0.090740734,0,0,1,1.7847,4,24,128,19,1,t,images/br_t.png,images/cb_t.png,,,,,,,,,,,,,,,,,,,,,,,,,
,,,,,,00097,2023-11-06_14h55.11.160,vbt_B2_day1,2022.2.4,Win32,143.8641922,,,,,,,,,,,,,,,,,,,-0.013888889,0.090740734,1,0,0,0.3056,4,25,129,21,1,v,images/br_v.png,images/cb_v.png,,,,,,,,,,,,,,,,,,,,,,,,,
,,,,,,00097,2023-11-06_14h55.11.160,vbt_B2_day1,2022.2.4,Win32,143.8641922,,,,,,,,,,,,,,,,,,,-0.013888889,0.090740734,1,0,0,0.8331,5,0,130,2,1,c,images/br_c.png,images/cb_c.png,,,,,,,,,,,,,,,,,,,,,,,,,
,,,,,,00097,2023-11-06_14h55.11.160,vbt_B2_day1,2022.2.4,Win32,143.8641922,,,,,,,,,,,,,,,,,,,-0.017592607,0.13703703,1,0,0,0.0631,5,1,131,15,1,p,images/br_p.png,images/cb_p.png,,,,,,,,,,,,,,,,,,,,,,,,,
,,,,,,00097,2023-11-06_14h55.11.160,vbt_B2_day1,2022.2.4,Win32,143.8641922,,,,,,,,,,,,,,,,,,,-0.017592607,0.13703703,1,0,0,0.0074,5,2,132,17,1,r,images/br_r.png,images/cb_r.png,,,,,,,,,,,,,,,,,,,,,,,,,
,,,,,,00097,2023-11-06_14h55.11.160,vbt_B2_day1,2022.2.4,Win32,143.8641922,,,,,,,,,,,,,,,,,,,-0.017592607,0.13703703,1,0,0,0.9953,5,3,133,9,1,j,images/br_j.png,images/cb_j.png,,,,,,,,,,,,,,,,,,,,,,,,,
,,,,,,00097,2023-11-06_14h55.11.160,vbt_B2_day1,2022.2.4,Win32,143.8641922,,,,,,,,,,,,,,,,,,,-0.017592607,0.13703703,1,0,0,1.0002,5,4,134,20,1,u,images/br_u.png,images/cb_u.png,,,,,,,,,,,,,,,,,,,,,,,,,
,,,,,,00097,2023-11-06_14h55.11.160,vbt_B2_day1,2022.2.4,Win32,143.8641922,,,,,,,,,,,,,,,,,,,-0.017592607,0.13703703,1,0,0,2.118,5,5,135,10,1,k,images/br_k.png,images/cb_k.png,,,,,,,,,,,,,,,,,,,,,,,,,
,,,,,,00097,2023-11-06_14h55.11.160,vbt_B2_day1,2022.2.4,Win32,143.8641922,,,,,,,,,,,,,,,,,,,-0.017592607,0.13703703,1,0,0,0.375,5,6,136,16,1,q,images/br_q.png,images/cb_q.png,,,,,,,,,,,,,,,,,,,,,,,,,
,,,,,,00097,2023-11-06_14h55.11.160,vbt_B2_day1,2022.2.4,Win32,143.8641922,,,,,,,,,,,,,,,,,,,-0.017592607,0.13703703,1,0,0,0.0626,5,7,137,25,1,z,images/br_z.png,images/cb_z.png,,,,,,,,,,,,,,,,,,,,,,,,,
,,,,,,00097,2023-11-06_14h55.11.160,vbt_B2_day1,2022.2.4,Win32,143.8641922,,,,,,,,,,,,,,,,,,,-0.017592607,0.13703703,1,0,0,0.5139,5,8,138,23,1,x,images/br_x.png,images/cb_x.png,,,,,,,,,,,,,,,,,,,,,,,,,
,,,,,,00097,2023-11-06_14h55.11.160,vbt_B2_day1,2022.2.4,Win32,143.8641922,,,,,,,,,,,,,,,,,,,0.011111153,0.008333312,1,0,0,0.9715,5,9,139,24,1,y,images/br_y.png,images/cb_y.png,,,,,,,,,,,,,,,,,,,,,,,,,
,,,,,,00097,2023-11-06_14h55.11.160,vbt_B2_day1,2022.2.4,Win32,143.8641922,,,,,,,,,,,,,,,,,,,0.011111153,0.008333312,1,0,0,0.3615,5,10,140,5,1,f,images/br_f.png,images/cb_f.png,,,,,,,,,,,,,,,,,,,,,,,,,
,,,,,,00097,2023-11-06_14h55.11.160,vbt_B2_day1,2022.2.4,Win32,143.8641922,,,,,,,,,,,,,,,,,,,0.011111153,0.008333312,1,0,0,2.4239,5,11,141,13,1,n,images/br_n.png,images/cb_n.png,,,,,,,,,,,,,,,,,,,,,,,,,
,,,,,,00097,2023-11-06_14h55.11.160,vbt_B2_day1,2022.2.4,Win32,143.8641922,,,,,,,,,,,,,,,,,,,0.011111153,0.008333312,1,0,0,0.9264,5,12,142,14,1,o,images/br_o.png,images/cb_o.png,,,,,,,,,,,,,,,,,,,,,,,,,
,,,,,,00097,2023-11-06_14h55.11.160,vbt_B2_day1,2022.2.4,Win32,143.8641922,,,,,,,,,,,,,,,,,,,0.011111153,0.008333312,1,0,0,0.0625,5,13,143,3,1,d,images/br_d.png,images/cb_d.png,,,,,,,,,,,,,,,,,,,,,,,,,
,,,,,,00097,2023-11-06_14h55.11.160,vbt_B2_day1,2022.2.4,Win32,143.8641922,,,,,,,,,,,,,,,,,,,0.011111153,0.008333312,1,0,0,0.7986,5,14,144,19,1,t,images/br_t.png,images/cb_t.png,,,,,,,,,,,,,,,,,,,,,,,,,
,,,,,,00097,2023-11-06_14h55.11.160,vbt_B2_day1,2022.2.4,Win32,143.8641922,,,,,,,,,,,,,,,,,,,0.011111153,0.008333312,1,0,0,0.5279,5,15,145,1,1,b,images/br_b.png,images/cb_b.png,,,,,,,,,,,,,,,,,,,,,,,,,
,,,,,,00097,2023-11-06_14h55.11.160,vbt_B2_day1,2022.2.4,Win32,143.8641922,,,,,,,,,,,,,,,,,,,0.011111153,0.008333312,1,0,0,1.0417,5,16,146,8,1,i,images/br_i.png,images/cb_i.png,,,,,,,,,,,,,,,,,,,,,,,,,
,,,,,,00097,2023-11-06_14h55.11.160,vbt_B2_day1,2022.2.4,Win32,143.8641922,,,,,,,,,,,,,,,,,,,0.011111153,0.008333312,1,0,0,1.5764,5,17,147,0,1,a,images/br_a.png,images/cb_a.png,,,,,,,,,,,,,,,,,,,,,,,,,
,,,,,,00097,2023-11-06_14h55.11.160,vbt_B2_day1,2022.2.4,Win32,143.8641922,,,,,,,,,,,,,,,,,,,0.011111153,0.008333312,1,0,0,0.5263,5,18,148,22,1,w,images/br_w.png,images/cb_w.png,,,,,,,,,,,,,,,,,,,,,,,,,
,,,,,,00097,2023-11-06_14h55.11.160,vbt_B2_day1,2022.2.4,Win32,143.8641922,,,,,,,,,,,,,,,,,,,0.011111153,0.008333312,1,0,0,0.1875,5,19,149,7,1,h,images/br_h.png,images/cb_h.png,,,,,,,,,,,,,,,,,,,,,,,,,
,,,,,,00097,2023-11-06_14h55.11.160,vbt_B2_day1,2022.2.4,Win32,143.8641922,,,,,,,,,,,,,,,,,,,0.011111153,0.008333312,0,0,1,2.9323,5,20,150,4,1,e,images/br_e.png,images/cb_e.png,,,,,,,,,,,,,,,,,,,,,,,,,
,,,,,,00097,2023-11-06_14h55.11.160,vbt_B2_day1,2022.2.4,Win32,143.8641922,,,,,,,,,,,,,,,,,,,0.011111153,0.008333312,1,0,0,1.0227,5,21,151,21,1,v,images/br_v.png,images/cb_v.png,,,,,,,,,,,,,,,,,,,,,,,,,
,,,,,,00097,2023-11-06_14h55.11.160,vbt_B2_day1,2022.2.4,Win32,143.8641922,,,,,,,,,,,,,,,,,,,0.011111153,0.008333312,1,0,0,0.0556,5,22,152,11,1,l,images/br_l.png,images/cb_l.png,,,,,,,,,,,,,,,,,,,,,,,,,
,,,,,,00097,2023-11-06_14h55.11.160,vbt_B2_day1,2022.2.4,Win32,143.8641922,,,,,,,,,,,,,,,,,,,-0.040740755,0.002777771,1,0,0,1.8192,5,23,153,6,1,g,images/br_g.png,images/cb_g.png,,,,,,,,,,,,,,,,,,,,,,,,,
,,,,,,00097,2023-11-06_14h55.11.160,vbt_B2_day1,2022.2.4,Win32,143.8641922,,,,,,,,,,,,,,,,,,,-0.040740755,0.002777771,0,0,1,2.8589,5,24,154,18,1,s,images/br_s.png,images/cb_s.png,,,,,,,,,,,,,,,,,,,,,,,,,
,,,,,,00097,2023-11-06_14h55.11.160,vbt_B2_day1,2022.2.4,Win32,143.8641922,,,,,,,,,,,,,,,,,,,-0.040740755,0.002777771,1,0,0,0.2231,5,25,155,12,1,m,images/br_m.png,images/cb_m.png,,,,,,,,,,,,,,,,,,,,,,,,,
,,,,,,00097,2023-11-06_14h55.11.160,vbt_B2_day1,2022.2.4,Win32,143.8641922,,,,,,,,,,,,,,,,,,,-0.040740755,0.002777771,1,0,0,2.1946,6,0,156,6,1,g,images/br_g.png,images/cb_g.png,,,,,,,,,,,,,,,,,,,,,,,,,
,,,,,,00097,2023-11-06_14h55.11.160,vbt_B2_day1,2022.2.4,Win32,143.8641922,,,,,,,,,,,,,,,,,,,-0.040740755,0.002777771,0,0,1,3.6203,6,1,157,15,1,p,images/br_p.png,images/cb_p.png,,,,,,,,,,,,,,,,,,,,,,,,,
,,,,,,00097,2023-11-06_14h55.11.160,vbt_B2_day1,2022.2.4,Win32,143.8641922,,,,,,,,,,,,,,,,,,,0.014814801,-0.039814808,1,0,0,0.3078,6,2,158,20,1,u,images/br_u.png,images/cb_u.png,,,,,,,,,,,,,,,,,,,,,,,,,
,,,,,,00097,2023-11-06_14h55.11.160,vbt_B2_day1,2022.2.4,Win32,143.8641922,,,,,,,,,,,,,,,,,,,0.014814801,-0.039814808,1,0,0,0.3824,6,3,159,3,1,d,images/br_d.png,images/cb_d.png,,,,,,,,,,,,,,,,,,,,,,,,,
,,,,,,00097,2023-11-06_14h55.11.160,vbt_B2_day1,2022.2.4,Win32,143.8641922,,,,,,,,,,,,,,,,,,,0.014814801,-0.039814808,1,0,0,0.3515,6,4,160,9,1,j,images/br_j.png,images/cb_j.png,,,,,,,,,,,,,,,,,,,,,,,,,
,,,,,,00097,2023-11-06_14h55.11.160,vbt_B2_day1,2022.2.4,Win32,143.8641922,,,,,,,,,,,,,,,,,,,0.014814801,-0.039814808,1,0,0,0.1027,6,5,161,24,1,y,images/br_y.png,images/cb_y.png,,,,,,,,,,,,,,,,,,,,,,,,,
,,,,,,00097,2023-11-06_14h55.11.160,vbt_B2_day1,2022.2.4,Win32,143.8641922,,,,,,,,,,,,,,,,,,,0.014814801,-0.039814808,1,0,0,0.3126,6,6,162,22,1,w,images/br_w.png,images/cb_w.png,,,,,,,,,,,,,,,,,,,,,,,,,
,,,,,,00097,2023-11-06_14h55.11.160,vbt_B2_day1,2022.2.4,Win32,143.8641922,,,,,,,,,,,,,,,,,,,0.014814801,-0.039814808,1,0,0,0.0904,6,7,163,17,1,r,images/br_r.png,images/cb_r.png,,,,,,,,,,,,,,,,,,,,,,,,,
,,,,,,00097,2023-11-06_14h55.11.160,vbt_B2_day1,2022.2.4,Win32,143.8641922,,,,,,,,,,,,,,,,,,,0.014814801,-0.039814808,1,0,0,0.6669,6,8,164,16,1,q,images/br_q.png,images/cb_q.png,,,,,,,,,,,,,,,,,,,,,,,,,
,,,,,,00097,2023-11-06_14h55.11.160,vbt_B2_day1,2022.2.4,Win32,143.8641922,,,,,,,,,,,,,,,,,,,0.014814801,-0.039814808,1,0,0,1.3126,6,9,165,19,1,t,images/br_t.png,images/cb_t.png,,,,,,,,,,,,,,,,,,,,,,,,,
,,,,,,00097,2023-11-06_14h55.11.160,vbt_B2_day1,2022.2.4,Win32,143.8641922,,,,,,,,,,,,,,,,,,,0.014814801,-0.039814808,1,0,0,0.1601,6,10,166,14,1,o,images/br_o.png,images/cb_o.png,,,,,,,,,,,,,,,,,,,,,,,,,
,,,,,,00097,2023-11-06_14h55.11.160,vbt_B2_day1,2022.2.4,Win32,143.8641922,,,,,,,,,,,,,,,,,,,0.014814801,-0.039814808,1,0,0,0.801,6,11,167,25,1,z,images/br_z.png,images/cb_z.png,,,,,,,,,,,,,,,,,,,,,,,,,
,,,,,,00097,2023-11-06_14h55.11.160,vbt_B2_day1,2022.2.4,Win32,143.8641922,,,,,,,,,,,,,,,,,,,0.014814801,-0.039814808,1,0,0,0.0223,6,12,168,12,1,m,images/br_m.png,images/cb_m.png,,,,,,,,,,,,,,,,,,,,,,,,,
,,,,,,00097,2023-11-06_14h55.11.160,vbt_B2_day1,2022.2.4,Win32,143.8641922,,,,,,,,,,,,,,,,,,,0.014814801,-0.039814808,1,0,0,0.0793,6,13,169,21,1,v,images/br_v.png,images/cb_v.png,,,,,,,,,,,,,,,,,,,,,,,,,
,,,,,,00097,2023-11-06_14h55.11.160,vbt_B2_day1,2022.2.4,Win32,143.8641922,,,,,,,,,,,,,,,,,,,0.014814801,-0.039814808,1,0,0,0.8331,6,14,170,18,1,s,images/br_s.png,images/cb_s.png,,,,,,,,,,,,,,,,,,,,,,,,,
,,,,,,00097,2023-11-06_14h55.11.160,vbt_B2_day1,2022.2.4,Win32,143.8641922,,,,,,,,,,,,,,,,,,,0.014814801,-0.039814808,1,0,0,0.4773,6,15,171,7,1,h,images/br_h.png,images/cb_h.png,,,,,,,,,,,,,,,,,,,,,,,,,
,,,,,,00097,2023-11-06_14h55.11.160,vbt_B2_day1,2022.2.4,Win32,143.8641922,,,,,,,,,,,,,,,,,,,0.014814801,-0.039814808,1,0,0,0.4052,6,16,172,5,1,f,images/br_f.png,images/cb_f.png,,,,,,,,,,,,,,,,,,,,,,,,,
,,,,,,00097,2023-11-06_14h55.11.160,vbt_B2_day1,2022.2.4,Win32,143.8641922,,,,,,,,,,,,,,,,,,,0.014814801,-0.039814808,1,0,0,0.1988,6,17,173,1,1,b,images/br_b.png,images/cb_b.png,,,,,,,,,,,,,,,,,,,,,,,,,
,,,,,,00097,2023-11-06_14h55.11.160,vbt_B2_day1,2022.2.4,Win32,143.8641922,,,,,,,,,,,,,,,,,,,0.014814801,-0.039814808,1,0,0,0.5908,6,18,174,2,1,c,images/br_c.png,images/cb_c.png,,,,,,,,,,,,,,,,,,,,,,,,,
,,,,,,00097,2023-11-06_14h55.11.160,vbt_B2_day1,2022.2.4,Win32,143.8641922,,,,,,,,,,,,,,,,,,,0.014814801,-0.039814808,1,0,0,1.0762,6,19,175,4,1,e,images/br_e.png,images/cb_e.png,,,,,,,,,,,,,,,,,,,,,,,,,
,,,,,,00097,2023-11-06_14h55.11.160,vbt_B2_day1,2022.2.4,Win32,143.8641922,,,,,,,,,,,,,,,,,,,0.014814801,-0.039814808,1,0,0,1.66,6,20,176,8,1,i,images/br_i.png,images/cb_i.png,,,,,,,,,,,,,,,,,,,,,,,,,
,,,,,,00097,2023-11-06_14h55.11.160,vbt_B2_day1,2022.2.4,Win32,143.8641922,,,,,,,,,,,,,,,,,,,0.014814801,-0.039814808,1,0,0,1.0114,6,21,177,0,1,a,images/br_a.png,images/cb_a.png,,,,,,,,,,,,,,,,,,,,,,,,,
,,,,,,00097,2023-11-06_14h55.11.160,vbt_B2_day1,2022.2.4,Win32,143.8641922,,,,,,,,,,,,,,,,,,,0.014814801,-0.039814808,1,0,0,0.4517,6,22,178,10,1,k,images/br_k.png,images/cb_k.png,,,,,,,,,,,,,,,,,,,,,,,,,
,,,,,,00097,2023-11-06_14h55.11.160,vbt_B2_day1,2022.2.4,Win32,143.8641922,,,,,,,,,,,,,,,,,,,0.014814801,-0.039814808,1,0,0,0.049,6,23,179,11,1,l,images/br_l.png,images/cb_l.png,,,,,,,,,,,,,,,,,,,,,,,,,
,,,,,,00097,2023-11-06_14h55.11.160,vbt_B2_day1,2022.2.4,Win32,143.8641922,,,,,,,,,,,,,,,,,,,0.014814801,-0.039814808,1,0,0,1.9365,6,24,180,23,1,x,images/br_x.png,images/cb_x.png,,,,,,,,,,,,,,,,,,,,,,,,,
,,,,,,00097,2023-11-06_14h55.11.160,vbt_B2_day1,2022.2.4,Win32,143.8641922,,,,,,,,,,,,,,,,,,,0.014814801,-0.039814808,1,0,0,1.0141,6,25,181,13,1,n,images/br_n.png,images/cb_n.png,,,,,,,,,,,,,,,,,,,,,,,,,
,,,,,,00097,2023-11-06_14h55.11.160,vbt_B2_day1,2022.2.4,Win32,143.8641922,,,,,,,,,,,,,,,,,,,,,,,,,,,,,,,,,0.014814801,-0.039814808,1,0,0,,,,,,,,,,,,,,,,,,,,
,,,,,,00097,2023-11-06_14h55.11.160,vbt_B2_day1,2022.2.4,Win32,143.8641922,,,,,,,,,,,,,,,,,,,,,,,,,,,,,,,,,,,,,,-0.026851866,-0.090740734,1,0,0,,,,,,,,,,,,,,,
,,,,,,00097,2023-11-06_14h55.11.160,vbt_B2_day1,2022.2.4,Win32,143.8641922,,,,,,,,,,,,,,,,,,,,,,,,,,,,,,,,,,,,,,,,,,,-0.026851866,-0.090740734,1,0,0,prort,prort,0,0,0,27,1,prort,images/br_prort.png,images/cb_prort.png
,,,,,,00097,2023-11-06_14h55.11.160,vbt_B2_day1,2022.2.4,Win32,143.8641922,,,,,,,,,,,,,,,,,,,,,,,,,,,,,,,,,,,,,,,,,,,0.089814857,-0.219444487,1,0,0,schip,schip,0,1,1,4,1,schep,images/br_schep.png,images/cb_schep.png
,,,,,,00097,2023-11-06_14h55.11.160,vbt_B2_day1,2022.2.4,Win32,143.8641922,,,,,,,,,,,,,,,,,,,,,,,,,,,,,,,,,,,,,,,,,,,0.10555557,-0.198148162,1,0,0,zuiplap,zuiplap,0,2,2,52,1,zuiplap,images/br_zuiplap.png,images/cb_zuiplap.png
,,,,,,00097,2023-11-06_14h55.11.160,vbt_B2_day1,2022.2.4,Win32,143.8641922,,,,,,,,,,,,,,,,,,,,,,,,,,,,,,,,,,,,,,,,,,,0.10555557,-0.198148162,1,0,0,dred,dred,0,3,3,21,1,dred,images/br_dred.png,images/cb_dred.png
,,,,,,00097,2023-11-06_14h55.11.160,vbt_B2_day1,2022.2.4,Win32,143.8641922,,,,,,,,,,,,,,,,,,,,,,,,,,,,,,,,,,,,,,,,,,,0.10555557,-0.198148162,1,0,0,vijftig,vijftig,0,4,4,54,1,vijftig,images/br_vijftig.png,images/cb_vijftig.png
,,,,,,00097,2023-11-06_14h55.11.160,vbt_B2_day1,2022.2.4,Win32,143.8641922,,,,,,,,,,,,,,,,,,,,,,,,,,,,,,,,,,,,,,,,,,,0.10555557,-0.198148162,1,0,0,stuk,stuk,0,5,5,42,1,stuk,images/br_stuk.png,images/cb_stuk.png
,,,,,,00097,2023-11-06_14h55.11.160,vbt_B2_day1,2022.2.4,Win32,143.8641922,,,,,,,,,,,,,,,,,,,,,,,,,,,,,,,,,,,,,,,,,,,0.10555557,-0.198148162,1,0,0,twijfel,twijfel,0,6,6,13,1,twijfel,images/br_twijfel.png,images/cb_twijfel.png
,,,,,,00097,2023-11-06_14h55.11.160,vbt_B2_day1,2022.2.4,Win32,143.8641922,,,,,,,,,,,,,,,,,,,,,,,,,,,,,,,,,,,,,,,,,,,0.10555557,-0.198148162,1,0,0,daarheen,daarheen,0,7,7,16,1,daarheen,images/br_daarheen.png,images/cb_daarheen.png
,,,,,,00097,2023-11-06_14h55.11.160,vbt_B2_day1,2022.2.4,Win32,143.8641922,,,,,,,,,,,,,,,,,,,,,,,,,,,,,,,,,,,,,,,,,,,0.10555557,-0.198148162,1,0,0,opplaan,opplaan,0,8,8,32,1,opplaan,images/br_opplaan.png,images/cb_opplaan.png
,,,,,,00097,2023-11-06_14h55.11.160,vbt_B2_day1,2022.2.4,Win32,143.8641922,,,,,,,,,,,,,,,,,,,,,,,,,,,,,,,,,,,,,,,,,,,0.10555557,-0.198148162,1,0,0,hemel,hemel,0,9,9,45,1,hemel,images/br_hemel.png,images/cb_hemel.png
,,,,,,00097,2023-11-06_14h55.11.160,vbt_B2_day1,2022.2.4,Win32,143.8641922,,,,,,,,,,,,,,,,,,,,,,,,,,,,,,,,,,,,,,,,,,,0.10555557,-0.198148162,1,0,0,lochten,lochten,0,10,10,34,1,lochten,images/br_lochten.png,images/cb_lochten.png
,,,,,,00097,2023-11-06_14h55.11.160,vbt_B2_day1,2022.2.4,Win32,143.8641922,,,,,,,,,,,,,,,,,,,,,,,,,,,,,,,,,,,,,,,,,,,0.10555557,-0.198148162,1,0,0,rezer,rezer,0,11,11,24,1,rezer,images/br_rezer.png,images/cb_rezer.png
,,,,,,00097,2023-11-06_14h55.11.160,vbt_B2_day1,2022.2.4,Win32,143.8641922,,,,,,,,,,,,,,,,,,,,,,,,,,,,,,,,,,,,,,,,,,,0.10555557,-0.198148162,1,0,0,tars,tars,0,12,12,20,1,tars,images/br_tars.png,images/cb_tars.png
,,,,,,00097,2023-11-06_14h55.11.160,vbt_B2_day1,2022.2.4,Win32,143.8641922,,,,,,,,,,,,,,,,,,,,,,,,,,,,,,,,,,,,,,,,,,,0.10555557,-0.198148162,1,0,0,dubbel,dubbel,0,13,13,9,1,dubbel,images/br_dubbel.png,images/cb_dubbel.png
,,,,,,00097,2023-11-06_14h55.11.160,vbt_B2_day1,2022.2.4,Win32,143.8641922,,,,,,,,,,,,,,,,,,,,,,,,,,,,,,,,,,,,,,,,,,,0.10555557,-0.198148162,1,0,0,jaar,jaar,0,14,14,2,1,jaar,images/br_jaar.png,images/cb_jaar.png
,,,,,,00097,2023-11-06_14h55.11.160,vbt_B2_day1,2022.2.4,Win32,143.8641922,,,,,,,,,,,,,,,,,,,,,,,,,,,,,,,,,,,,,,,,,,,0.10555557,-0.198148162,1,0,0,dief,dief,0,15,15,40,1,dief,images/br_dief.png,images/cb_dief.png
,,,,,,00097,2023-11-06_14h55.11.160,vbt_B2_day1,2022.2.4,Win32,143.8641922,,,,,,,,,,,,,,,,,,,,,,,,,,,,,,,,,,,,,,,,,,,0.10555557,-0.198148162,1,0,0,uitdelen,uitdelen,0,16,16,18,1,uitdelen,images/br_uitdelen.png,images/cb_uitdelen.png
,,,,,,00097,2023-11-06_14h55.11.160,vbt_B2_day1,2022.2.4,Win32,143.8641922,,,,,,,,,,,,,,,,,,,,,,,,,,,,,,,,,,,,,,,,,,,0.10555557,-0.198148162,1,0,0,toezicht,toezicht,0,17,17,56,1,toezicht,images/br_toezicht.png,images/cb_toezicht.png
,,,,,,00097,2023-11-06_14h55.11.160,vbt_B2_day1,2022.2.4,Win32,143.8641922,,,,,,,,,,,,,,,,,,,,,,,,,,,,,,,,,,,,,,,,,,,0.10555557,-0.198148162,1,0,0,booi,booi,0,18,18,23,1,booi,images/br_booi.png,images/cb_booi.png
,,,,,,00097,2023-11-06_14h55.11.160,vbt_B2_day1,2022.2.4,Win32,143.8641922,,,,,,,,,,,,,,,,,,,,,,,,,,,,,,,,,,,,,,,,,,,0.10555557,-0.198148162,1,0,0,spanzing,spanzing,0,19,19,37,1,spanzing,images/br_spanzing.png,images/cb_spanzing.png
,,,,,,00097,2023-11-06_14h55.11.160,vbt_B2_day1,2022.2.4,Win32,143.8641922,,,,,,,,,,,,,,,,,,,,,,,,,,,,,,,,,,,,,,,,,,,0.10555557,-0.198148162,1,0,0,waarvan,waarvan,0,20,20,14,1,waarvan,images/br_waarvan.png,images/cb_waarvan.png
,,,,,,00097,2023-11-06_14h55.11.160,vbt_B2_day1,2022.2.4,Win32,143.8641922,,,,,,,,,,,,,,,,,,,,,,,,,,,,,,,,,,,,,,,,,,,0.10555557,-0.198148162,1,0,0,reedje,reedje,0,21,21,30,1,reedje,images/br_reedje.png,images/cb_reedje.png
,,,,,,00097,2023-11-06_14h55.11.160,vbt_B2_day1,2022.2.4,Win32,143.8641922,,,,,,,,,,,,,,,,,,,,,,,,,,,,,,,,,,,,,,,,,,,0.10555557,-0.198148162,1,0,0,knoe,knoe,0,22,22,22,1,knoe,images/br_knoe.png,images/cb_knoe.png
,,,,,,00097,2023-11-06_14h55.11.160,vbt_B2_day1,2022.2.4,Win32,143.8641922,,,,,,,,,,,,,,,,,,,,,,,,,,,,,,,,,,,,,,,,,,,0.10555557,-0.198148162,1,0,0,wijne,wijne,0,23,23,44,1,wijze,images/br_wijze.png,images/cb_wijze.png
,,,,,,00097,2023-11-06_14h55.11.160,vbt_B2_day1,2022.2.4,Win32,143.8641922,,,,,,,,,,,,,,,,,,,,,,,,,,,,,,,,,,,,,,,,,,,0.10555557,-0.198148162,1,0,0,slak,slak,0,24,24,0,1,slak,images/br_slak.png,images/cb_slak.png
,,,,,,00097,2023-11-06_14h55.11.160,vbt_B2_day1,2022.2.4,Win32,143.8641922,,,,,,,,,,,,,,,,,,,,,,,,,,,,,,,,,,,,,,,,,,,0.10555557,-0.198148162,1,0,0,loods,loods,0,25,25,47,1,loods,images/br_loods.png,images/cb_loods.png
,,,,,,00097,2023-11-06_14h55.11.160,vbt_B2_day1,2022.2.4,Win32,143.8641922,,,,,,,,,,,,,,,,,,,,,,,,,,,,,,,,,,,,,,,,,,,0.10555557,-0.198148162,1,0,0,klimmen,klimmen,0,26,26,12,1,klimmen,images/br_klimmen.png,images/cb_klimmen.png
,,,,,,00097,2023-11-06_14h55.11.160,vbt_B2_day1,2022.2.4,Win32,143.8641922,,,,,,,,,,,,,,,,,,,,,,,,,,,,,,,,,,,,,,,,,,,0.10555557,-0.198148162,1,0,0,klauw,klauw,0,27,27,7,1,klauw,images/br_klauw.png,images/cb_klauw.png
,,,,,,00097,2023-11-06_14h55.11.160,vbt_B2_day1,2022.2.4,Win32,143.8641922,,,,,,,,,,,,,,,,,,,,,,,,,,,,,,,,,,,,,,,,,,,0.10555557,-0.198148162,1,0,0,lezen,lezen,0,28,28,46,1,lezen,images/br_lezen.png,images/cb_lezen.png
,,,,,,00097,2023-11-06_14h55.11.160,vbt_B2_day1,2022.2.4,Win32,143.8641922,,,,,,,,,,,,,,,,,,,,,,,,,,,,,,,,,,,,,,,,,,,0.10555557,-0.198148162,1,0,0,opvatten,opvatten,0,29,29,59,1,opvatten,images/br_opvatten.png,images/cb_opvatten.png
,,,,,,00097,2023-11-06_14h55.11.160,vbt_B2_day1,2022.2.4,Win32,143.8641922,,,,,,,,,,,,,,,,,,,,,,,,,,,,,,,,,,,,,,,,,,,0.10555557,-0.198148162,1,0,0,bleek,bleek,0,30,30,6,1,bleek,images/br_bleek.png,images/cb_bleek.png
,,,,,,00097,2023-11-06_14h55.11.160,vbt_B2_day1,2022.2.4,Win32,143.8641922,,,,,,,,,,,,,,,,,,,,,,,,,,,,,,,,,,,,,,,,,,,0.10555557,-0.198148162,1,0,0,opslaan,opslaan,0,31,31,53,1,opslaan,images/br_opslaan.png,images/cb_opslaan.png
,,,,,,00097,2023-11-06_14h55.11.160,vbt_B2_day1,2022.2.4,Win32,143.8641922,,,,,,,,,,,,,,,,,,,,,,,,,,,,,,,,,,,,,,,,,,,0.10555557,-0.198148162,1,0,0,stuikem,stuikem,0,32,32,35,1,stuikem,images/br_stuikem.png,images/cb_stuikem.png
,,,,,,00097,2023-11-06_14h55.11.160,vbt_B2_day1,2022.2.4,Win32,143.8641922,,,,,,,,,,,,,,,,,,,,,,,,,,,,,,,,,,,,,,,,,,,0.10555557,-0.198148162,1,0,0,genond,genond,0,33,33,29,1,genond,images/br_genond.png,images/cb_genond.png
,,,,,,00097,2023-11-06_14h55.11.160,vbt_B2_day1,2022.2.4,Win32,143.8641922,,,,,,,,,,,,,,,,,,,,,,,,,,,,,,,,,,,,,,,,,,,0.10555557,-0.198148162,1,0,0,brijk,brijk,0,34,34,25,1,brijk,images/br_brijk.png,images/cb_brijk.png
,,,,,,00097,2023-11-06_14h55.11.160,vbt_B2_day1,2022.2.4,Win32,143.8641922,,,,,,,,,,,,,,,,,,,,,,,,,,,,,,,,,,,,,,,,,,,0.10555557,-0.198148162,1,0,0,attentie,attentie,0,35,35,17,1,attentie,images/br_attentie.png,images/cb_attentie.png
,,,,,,00097,2023-11-06_14h55.11.160,vbt_B2_day1,2022.2.4,Win32,143.8641922,,,,,,,,,,,,,,,,,,,,,,,,,,,,,,,,,,,,,,,,,,,0.10555557,-0.198148162,1,0,0,fictie,fictie,0,36,36,48,1,fictie,images/br_fictie.png,images/cb_fictie.png
,,,,,,00097,2023-11-06_14h55.11.160,vbt_B2_day1,2022.2.4,Win32,143.8641922,,,,,,,,,,,,,,,,,,,,,,,,,,,,,,,,,,,,,,,,,,,0.10555557,-0.198148162,1,0,0,mand,mand,0,37,37,3,1,mand,images/br_mand.png,images/cb_mand.png
,,,,,,00097,2023-11-06_14h55.11.160,vbt_B2_day1,2022.2.4,Win32,143.8641922,,,,,,,,,,,,,,,,,,,,,,,,,,,,,,,,,,,,,,,,,,,0.10555557,-0.198148162,1,0,0,stamen,stamen,0,38,38,31,1,stamen,images/br_stamen.png,images/cb_stamen.png
,,,,,,00097,2023-11-06_14h55.11.160,vbt_B2_day1,2022.2.4,Win32,143.8641922,,,,,,,,,,,,,,,,,,,,,,,,,,,,,,,,,,,,,,,,,,,0.10555557,-0.198148162,1,0,0,liefde,liefde,0,39,39,51,1,liefde,images/br_liefde.png,images/cb_liefde.png
,,,,,,00097,2023-11-06_14h55.11.160,vbt_B2_day1,2022.2.4,Win32,143.8641922,,,,,,,,,,,,,,,,,,,,,,,,,,,,,,,,,,,,,,,,,,,0.10555557,-0.198148162,1,0,0,flullen,flullen,0,40,40,33,1,flullen,images/br_flullen.png,images/cb_flullen.png
,,,,,,00097,2023-11-06_14h55.11.160,vbt_B2_day1,2022.2.4,Win32,143.8641922,,,,,,,,,,,,,,,,,,,,,,,,,,,,,,,,,,,,,,,,,,,0.10555557,-0.198148162,1,0,0,valop,valop,0,41,41,26,1,valop,images/br_valop.png,images/cb_valop.png
,,,,,,00097,2023-11-06_14h55.11.160,vbt_B2_day1,2022.2.4,Win32,143.8641922,,,,,,,,,,,,,,,,,,,,,,,,,,,,,,,,,,,,,,,,,,,0.10555557,-0.198148162,1,0,0,zaal,zaal,0,42,42,1,1,zaal,images/br_zaal.png,images/cb_zaal.png
,,,,,,00097,2023-11-06_14h55.11.160,vbt_B2_day1,2022.2.4,Win32,143.8641922,,,,,,,,,,,,,,,,,,,,,,,,,,,,,,,,,,,,,,,,,,,0.10555557,-0.198148162,1,0,0,hoog,hoog,0,43,43,41,1,hoog,images/br_hoog.png,images/cb_hoog.png
,,,,,,00097,2023-11-06_14h55.11.160,vbt_B2_day1,2022.2.4,Win32,143.8641922,,,,,,,,,,,,,,,,,,,,,,,,,,,,,,,,,,,,,,,,,,,0.10555557,-0.198148162,1,0,0,lava,lava,0,44,44,43,1,lava,images/br_lava.png,images/cb_lava.png
,,,,,,00097,2023-11-06_14h55.11.160,vbt_B2_day1,2022.2.4,Win32,143.8641922,,,,,,,,,,,,,,,,,,,,,,,,,,,,,,,,,,,,,,,,,,,0.10555557,-0.198148162,1,0,0,vizier,vizier,0,45,45,49,1,vizier,images/br_vizier.png,images/cb_vizier.png
,,,,,,00097,2023-11-06_14h55.11.160,vbt_B2_day1,2022.2.4,Win32,143.8641922,,,,,,,,,,,,,,,,,,,,,,,,,,,,,,,,,,,,,,,,,,,0.10555557,-0.198148162,1,0,0,bebrip,bebrip,0,46,46,28,1,bebrip,images/br_bebrip.png,images/cb_bebrip.png
,,,,,,00097,2023-11-06_14h55.11.160,vbt_B2_day1,2022.2.4,Win32,143.8641922,,,,,,,,,,,,,,,,,,,,,,,,,,,,,,,,,,,,,,,,,,,0.10555557,-0.198148162,1,0,0,voorkeur,voorkeur,0,47,47,58,1,voorkeur,images/br_voorkeur.png,images/cb_voorkeur.png
,,,,,,00097,2023-11-06_14h55.11.160,vbt_B2_day1,2022.2.4,Win32,143.8641922,,,,,,,,,,,,,,,,,,,,,,,,,,,,,,,,,,,,,,,,,,,0.10555557,-0.198148162,1,0,0,schielen,schielen,0,48,48,38,1,schielen,images/br_schielen.png,images/cb_schielen.png
,,,,,,00097,2023-11-06_14h55.11.160,vbt_B2_day1,2022.2.4,Win32,143.8641922,,,,,,,,,,,,,,,,,,,,,,,,,,,,,,,,,,,,,,,,,,,0.10555557,-0.198148162,1,0,0,maken,maken,0,49,49,5,1,maken,images/br_maken.png,images/cb_maken.png
,,,,,,00097,2023-11-06_14h55.11.160,vbt_B2_day1,2022.2.4,Win32,143.8641922,,,,,,,,,,,,,,,,,,,,,,,,,,,,,,,,,,,,,,,,,,,0.10555557,-0.198148162,1,0,0,vervaden,vervaden,0,50,50,36,1,vervaden,images/br_vervaden.png,images/cb_vervaden.png
,,,,,,00097,2023-11-06_14h55.11.160,vbt_B2_day1,2022.2.4,Win32,143.8641922,,,,,,,,,,,,,,,,,,,,,,,,,,,,,,,,,,,,,,,,,,,0.10555557,-0.198148162,1,0,0,tekenen,tekenen,0,51,51,55,1,tekenen,images/br_tekenen.png,images/cb_tekenen.png
,,,,,,00097,2023-11-06_14h55.11.160,vbt_B2_day1,2022.2.4,Win32,143.8641922,,,,,,,,,,,,,,,,,,,,,,,,,,,,,,,,,,,,,,,,,,,0.10555557,-0.198148162,1,0,0,liegen,liegen,0,52,52,50,1,liegen,images/br_liegen.png,images/cb_liegen.png
,,,,,,00097,2023-11-06_14h55.11.160,vbt_B2_day1,2022.2.4,Win32,143.8641922,,,,,,,,,,,,,,,,,,,,,,,,,,,,,,,,,,,,,,,,,,,0.10555557,-0.198148162,1,0,0,hiervan,hiervan,0,53,53,15,1,hiervan,images/br_hiervan.png,images/cb_hiervan.png
,,,,,,00097,2023-11-06_14h55.11.160,vbt_B2_day1,2022.2.4,Win32,143.8641922,,,,,,,,,,,,,,,,,,,,,,,,,,,,,,,,,,,,,,,,,,,0.10555557,-0.198148162,1,0,0,voorreur,voorreur,0,54,54,39,1,voorreur,images/br_voorreur.png,images/cb_voorreur.png
,,,,,,00097,2023-11-06_14h55.11.160,vbt_B2_day1,2022.2.4,Win32,143.8641922,,,,,,,,,,,,,,,,,,,,,,,,,,,,,,,,,,,,,,,,,,,0.10555557,-0.198148162,1,0,0,meenemen,meenemen,0,55,55,57,1,meenemen,images/br_meenemen.png,images/cb_meenemen.png
,,,,,,00097,2023-11-06_14h55.11.160,vbt_B2_day1,2022.2.4,Win32,143.8641922,,,,,,,,,,,,,,,,,,,,,,,,,,,,,,,,,,,,,,,,,,,0.10555557,-0.198148162,1,0,0,mening,mening,0,56,56,11,1,mening,images/br_mening.png,images/cb_mening.png
,,,,,,00097,2023-11-06_14h55.11.160,vbt_B2_day1,2022.2.4,Win32,143.8641922,,,,,,,,,,,,,,,,,,,,,,,,,,,,,,,,,,,,,,,,,,,0.10555557,-0.198148162,1,0,0,schuilen,schuilen,0,57,57,19,1,schuilen,images/br_schuilen.png,images/cb_schuilen.png
,,,,,,00097,2023-11-06_14h55.11.160,vbt_B2_day1,2022.2.4,Win32,143.8641922,,,,,,,,,,,,,,,,,,,,,,,,,,,,,,,,,,,,,,,,,,,0.10555557,-0.198148162,1,0,0,kanjer,kanjer,0,58,58,8,1,kanjer,images/br_kanjer.png,images/cb_kanjer.png
,,,,,,00097,2023-11-06_14h55.11.160,vbt_B2_day1,2022.2.4,Win32,143.8641922,,,,,,,,,,,,,,,,,,,,,,,,,,,,,,,,,,,,,,,,,,,0.10555557,-0.198148162,1,0,0,muziek,muziek,0,59,59,10,1,muziek,images/br_muziek.png,images/cb_muziek.png
,,,,,,00097,2023-11-06_14h55.11.160,vbt_B2_day1,2022.2.4,Win32,143.8641922,,,,,,,,,,,,,,,,,,,,,,,,,,,,,,,,,,,,,,,,,,,,,,,,,,,,,,,,,
