welcome_mouse.x,welcome_mouse.y,welcome_mouse.leftButton,welcome_mouse.midButton,welcome_mouse.rightButton,welcome_mouse.time,"ID",date,expName,psychopyVersion,OS,frameRate,mouse_2.x,mouse_2.y,mouse_2.leftButton,mouse_2.midButton,mouse_2.rightButton,mouse_2.time,mouse_3.x,mouse_3.y,mouse_3.leftButton,mouse_3.midButton,mouse_3.rightButton,mouse_3.time,train_mouse.x,train_mouse.y,train_mouse.leftButton,train_mouse.midButton,train_mouse.rightButton,train_mouse.time,braille_mouse.x,braille_mouse.y,braille_mouse.leftButton,braille_mouse.midButton,braille_mouse.rightButton,braille_mouse.time,trials.thisRepN,trials.thisTrialN,trials.thisN,trials.thisIndex,trials.ran,nlLet,brLet,cbLet,mouse.x,mouse.y,mouse.leftButton,mouse.midButton,mouse.rightButton,testInstr_mouse.x,testInstr_mouse.y,testInstr_mouse.leftButton,testInstr_mouse.midButton,testInstr_mouse.rightButton,test_mouse.x,test_mouse.y,test_mouse.leftButton,test_mouse.midButton,test_mouse.rightButton,test_response.text,testResp,test_loop.thisRepN,test_loop.thisTrialN,test_loop.thisN,test_loop.thisIndex,test_loop.ran,nlWrd,brWrd,cbWrd
-0.115740741,0.012962942,1,0,0,12.9715,00066,2023-10-13_17h37.25.667,vbt_B2_day1,2022.2.4,Win32,143.9263097,,,,,,,,,,,,,,,,,,,,,,,,,,,,,,,,,,,,,,,,,,,,,,,,,,,,,,,,,
,,,,,,00066,2023-10-13_17h37.25.667,vbt_B2_day1,2022.2.4,Win32,143.9263097,-0.045370384,-0.263888889,1,0,0,3.2618,,,,,,,,,,,,,,,,,,,,,,,,,,,,,,,,,,,,,,,,,,,,,,,,,,,
,,,,,,00066,2023-10-13_17h37.25.667,vbt_B2_day1,2022.2.4,Win32,143.9263097,,,,,,,-0.055555556,-0.27870369,1,0,0,12.207,,,,,,,,,,,,,,,,,,,,,,,,,,,,,,,,,,,,,,,,,,,,,
,,,,,,00066,2023-10-13_17h37.25.667,vbt_B2_day1,2022.2.4,Win32,143.9263097,,,,,,,,,,,,,0.352777834,-0.162962949,1,0,0,25.5599,,,,,,,,,,,,,,,,,,,,,,,,,,,,,,,,,,,,,,,
,,,,,,00066,2023-10-13_17h37.25.667,vbt_B2_day1,2022.2.4,Win32,143.9263097,,,,,,,,,,,,,,,,,,,0.352777834,-0.162962949,1,0,0,21.0349,0,0,0,13,1,n,images/br_n.png,images/cb_n.png,,,,,,,,,,,,,,,,,,,,,,,,,
,,,,,,00066,2023-10-13_17h37.25.667,vbt_B2_day1,2022.2.4,Win32,143.9263097,,,,,,,,,,,,,,,,,,,0.289814843,-0.163888931,1,0,0,9.5422,0,1,1,22,1,w,images/br_w.png,images/cb_w.png,,,,,,,,,,,,,,,,,,,,,,,,,
,,,,,,00066,2023-10-13_17h37.25.667,vbt_B2_day1,2022.2.4,Win32,143.9263097,,,,,,,,,,,,,,,,,,,0.288888931,-0.163888931,1,0,0,1.1313,0,2,2,1,1,b,images/br_b.png,images/cb_b.png,,,,,,,,,,,,,,,,,,,,,,,,,
,,,,,,00066,2023-10-13_17h37.25.667,vbt_B2_day1,2022.2.4,Win32,143.9263097,,,,,,,,,,,,,,,,,,,0.287962949,-0.166666667,1,0,0,2.4858,0,3,3,14,1,o,images/br_o.png,images/cb_o.png,,,,,,,,,,,,,,,,,,,,,,,,,
,,,,,,00066,2023-10-13_17h37.25.667,vbt_B2_day1,2022.2.4,Win32,143.9263097,,,,,,,,,,,,,,,,,,,0.283333319,-0.181481467,1,0,0,15.9856,0,4,4,7,1,h,images/br_h.png,images/cb_h.png,,,,,,,,,,,,,,,,,,,,,,,,,
,,,,,,00066,2023-10-13_17h37.25.667,vbt_B2_day1,2022.2.4,Win32,143.9263097,,,,,,,,,,,,,,,,,,,0.208333333,-0.056481503,1,0,0,3.2293,0,5,5,17,1,r,images/br_r.png,images/cb_r.png,,,,,,,,,,,,,,,,,,,,,,,,,
,,,,,,00066,2023-10-13_17h37.25.667,vbt_B2_day1,2022.2.4,Win32,143.9263097,,,,,,,,,,,,,,,,,,,0.208333333,-0.056481503,1,0,0,0.5625,0,6,6,24,1,y,images/br_y.png,images/cb_y.png,,,,,,,,,,,,,,,,,,,,,,,,,
,,,,,,00066,2023-10-13_17h37.25.667,vbt_B2_day1,2022.2.4,Win32,143.9263097,,,,,,,,,,,,,,,,,,,0.208333333,-0.056481503,1,0,0,0.5827,0,7,7,8,1,i,images/br_i.png,images/cb_i.png,,,,,,,,,,,,,,,,,,,,,,,,,
,,,,,,00066,2023-10-13_17h37.25.667,vbt_B2_day1,2022.2.4,Win32,143.9263097,,,,,,,,,,,,,,,,,,,0.200925968,-0.070370392,1,0,0,1.028,0,8,8,18,1,s,images/br_s.png,images/cb_s.png,,,,,,,,,,,,,,,,,,,,,,,,,
,,,,,,00066,2023-10-13_17h37.25.667,vbt_B2_day1,2022.2.4,Win32,143.9263097,,,,,,,,,,,,,,,,,,,0.340740769,-0.052777785,1,0,0,59.2011,0,9,9,2,1,c,images/br_c.png,images/cb_c.png,,,,,,,,,,,,,,,,,,,,,,,,,
,,,,,,00066,2023-10-13_17h37.25.667,vbt_B2_day1,2022.2.4,Win32,143.9263097,,,,,,,,,,,,,,,,,,,0.337037122,-0.048148155,1,0,0,1.2084,0,10,10,3,1,d,images/br_d.png,images/cb_d.png,,,,,,,,,,,,,,,,,,,,,,,,,
,,,,,,00066,2023-10-13_17h37.25.667,vbt_B2_day1,2022.2.4,Win32,143.9263097,,,,,,,,,,,,,,,,,,,0.32222225,-0.062037044,1,0,0,2.3329,0,11,11,19,1,t,images/br_t.png,images/cb_t.png,,,,,,,,,,,,,,,,,,,,,,,,,
,,,,,,00066,2023-10-13_17h37.25.667,vbt_B2_day1,2022.2.4,Win32,143.9263097,,,,,,,,,,,,,,,,,,,0.32222225,-0.062037044,1,0,0,2.0767,0,12,12,10,1,k,images/br_k.png,images/cb_k.png,,,,,,,,,,,,,,,,,,,,,,,,,
,,,,,,00066,2023-10-13_17h37.25.667,vbt_B2_day1,2022.2.4,Win32,143.9263097,,,,,,,,,,,,,,,,,,,0.119444459,-0.082407422,1,0,0,1.4446,0,13,13,25,1,z,images/br_z.png,images/cb_z.png,,,,,,,,,,,,,,,,,,,,,,,,,
,,,,,,00066,2023-10-13_17h37.25.667,vbt_B2_day1,2022.2.4,Win32,143.9263097,,,,,,,,,,,,,,,,,,,0.08148151,-0.087037051,1,0,0,3.0001,0,14,14,16,1,q,images/br_q.png,images/cb_q.png,,,,,,,,,,,,,,,,,,,,,,,,,
,,,,,,00066,2023-10-13_17h37.25.667,vbt_B2_day1,2022.2.4,Win32,143.9263097,,,,,,,,,,,,,,,,,,,0.117592635,-0.12037037,1,0,0,3.2502,0,15,15,23,1,x,images/br_x.png,images/cb_x.png,,,,,,,,,,,,,,,,,,,,,,,,,
,,,,,,00066,2023-10-13_17h37.25.667,vbt_B2_day1,2022.2.4,Win32,143.9263097,,,,,,,,,,,,,,,,,,,0.046296296,-0.123148176,1,0,0,4.3471,0,16,16,20,1,u,images/br_u.png,images/cb_u.png,,,,,,,,,,,,,,,,,,,,,,,,,
,,,,,,00066,2023-10-13_17h37.25.667,vbt_B2_day1,2022.2.4,Win32,143.9263097,,,,,,,,,,,,,,,,,,,0.038888931,-0.12037037,1,0,0,7.5072,0,17,17,4,1,e,images/br_e.png,images/cb_e.png,,,,,,,,,,,,,,,,,,,,,,,,,
,,,,,,00066,2023-10-13_17h37.25.667,vbt_B2_day1,2022.2.4,Win32,143.9263097,,,,,,,,,,,,,,,,,,,0.038888931,-0.12037037,1,0,0,0.5136,0,18,18,21,1,v,images/br_v.png,images/cb_v.png,,,,,,,,,,,,,,,,,,,,,,,,,
,,,,,,00066,2023-10-13_17h37.25.667,vbt_B2_day1,2022.2.4,Win32,143.9263097,,,,,,,,,,,,,,,,,,,0.038888931,-0.12037037,1,0,0,0.8955,0,19,19,9,1,j,images/br_j.png,images/cb_j.png,,,,,,,,,,,,,,,,,,,,,,,,,
,,,,,,00066,2023-10-13_17h37.25.667,vbt_B2_day1,2022.2.4,Win32,143.9263097,,,,,,,,,,,,,,,,,,,0.038888931,-0.12037037,1,0,0,1.9159,0,20,20,5,1,f,images/br_f.png,images/cb_f.png,,,,,,,,,,,,,,,,,,,,,,,,,
,,,,,,00066,2023-10-13_17h37.25.667,vbt_B2_day1,2022.2.4,Win32,143.9263097,,,,,,,,,,,,,,,,,,,0.038888931,-0.12037037,1,0,0,2.2913,0,21,21,12,1,m,images/br_m.png,images/cb_m.png,,,,,,,,,,,,,,,,,,,,,,,,,
,,,,,,00066,2023-10-13_17h37.25.667,vbt_B2_day1,2022.2.4,Win32,143.9263097,,,,,,,,,,,,,,,,,,,0.038888931,-0.12037037,1,0,0,0.2843,0,22,22,6,1,g,images/br_g.png,images/cb_g.png,,,,,,,,,,,,,,,,,,,,,,,,,
,,,,,,00066,2023-10-13_17h37.25.667,vbt_B2_day1,2022.2.4,Win32,143.9263097,,,,,,,,,,,,,,,,,,,0.038888931,-0.12037037,1,0,0,1.0756,0,23,23,0,1,a,images/br_a.png,images/cb_a.png,,,,,,,,,,,,,,,,,,,,,,,,,
,,,,,,00066,2023-10-13_17h37.25.667,vbt_B2_day1,2022.2.4,Win32,143.9263097,,,,,,,,,,,,,,,,,,,0.038888931,-0.12037037,1,0,0,0.438,0,24,24,15,1,p,images/br_p.png,images/cb_p.png,,,,,,,,,,,,,,,,,,,,,,,,,
,,,,,,00066,2023-10-13_17h37.25.667,vbt_B2_day1,2022.2.4,Win32,143.9263097,,,,,,,,,,,,,,,,,,,0.038888931,-0.12037037,1,0,0,0.3955,0,25,25,11,1,l,images/br_l.png,images/cb_l.png,,,,,,,,,,,,,,,,,,,,,,,,,
,,,,,,00066,2023-10-13_17h37.25.667,vbt_B2_day1,2022.2.4,Win32,143.9263097,,,,,,,,,,,,,,,,,,,0.038888931,-0.12037037,1,0,0,18.1524,1,0,26,20,1,u,images/br_u.png,images/cb_u.png,,,,,,,,,,,,,,,,,,,,,,,,,
,,,,,,00066,2023-10-13_17h37.25.667,vbt_B2_day1,2022.2.4,Win32,143.9263097,,,,,,,,,,,,,,,,,,,0.038888931,-0.12037037,1,0,0,6.0352,1,1,27,4,1,e,images/br_e.png,images/cb_e.png,,,,,,,,,,,,,,,,,,,,,,,,,
,,,,,,00066,2023-10-13_17h37.25.667,vbt_B2_day1,2022.2.4,Win32,143.9263097,,,,,,,,,,,,,,,,,,,0.038888931,-0.12037037,1,0,0,11.3542,1,2,28,6,1,g,images/br_g.png,images/cb_g.png,,,,,,,,,,,,,,,,,,,,,,,,,
,,,,,,00066,2023-10-13_17h37.25.667,vbt_B2_day1,2022.2.4,Win32,143.9263097,,,,,,,,,,,,,,,,,,,0.038888931,-0.12037037,1,0,0,1.9857,1,3,29,16,1,q,images/br_q.png,images/cb_q.png,,,,,,,,,,,,,,,,,,,,,,,,,
,,,,,,00066,2023-10-13_17h37.25.667,vbt_B2_day1,2022.2.4,Win32,143.9263097,,,,,,,,,,,,,,,,,,,0.087037051,-0.063888903,1,0,0,6.6108,1,4,30,21,1,v,images/br_v.png,images/cb_v.png,,,,,,,,,,,,,,,,,,,,,,,,,
,,,,,,00066,2023-10-13_17h37.25.667,vbt_B2_day1,2022.2.4,Win32,143.9263097,,,,,,,,,,,,,,,,,,,0.094444487,-0.075925933,1,0,0,1.743,1,5,31,7,1,h,images/br_h.png,images/cb_h.png,,,,,,,,,,,,,,,,,,,,,,,,,
,,,,,,00066,2023-10-13_17h37.25.667,vbt_B2_day1,2022.2.4,Win32,143.9263097,,,,,,,,,,,,,,,,,,,0.091666681,-0.075925933,1,0,0,2.1039,1,6,32,0,1,a,images/br_a.png,images/cb_a.png,,,,,,,,,,,,,,,,,,,,,,,,,
,,,,,,00066,2023-10-13_17h37.25.667,vbt_B2_day1,2022.2.4,Win32,143.9263097,,,,,,,,,,,,,,,,,,,0.068518533,-0.106481481,1,0,0,9.2493,1,7,33,13,1,n,images/br_n.png,images/cb_n.png,,,,,,,,,,,,,,,,,,,,,,,,,
,,,,,,00066,2023-10-13_17h37.25.667,vbt_B2_day1,2022.2.4,Win32,143.9263097,,,,,,,,,,,,,,,,,,,0.122222265,0.175925926,1,0,0,31.1385,1,8,34,2,1,c,images/br_c.png,images/cb_c.png,,,,,,,,,,,,,,,,,,,,,,,,,
,,,,,,00066,2023-10-13_17h37.25.667,vbt_B2_day1,2022.2.4,Win32,143.9263097,,,,,,,,,,,,,,,,,,,0.122222265,0.175925926,1,0,0,45.6674,1,9,35,24,1,y,images/br_y.png,images/cb_y.png,,,,,,,,,,,,,,,,,,,,,,,,,
,,,,,,00066,2023-10-13_17h37.25.667,vbt_B2_day1,2022.2.4,Win32,143.9263097,,,,,,,,,,,,,,,,,,,0.122222265,0.175925926,1,0,0,15.7634,1,10,36,3,1,d,images/br_d.png,images/cb_d.png,,,,,,,,,,,,,,,,,,,,,,,,,
,,,,,,00066,2023-10-13_17h37.25.667,vbt_B2_day1,2022.2.4,Win32,143.9263097,,,,,,,,,,,,,,,,,,,0.122222265,0.175925926,1,0,0,21.0695,1,11,37,17,1,r,images/br_r.png,images/cb_r.png,,,,,,,,,,,,,,,,,,,,,,,,,
,,,,,,00066,2023-10-13_17h37.25.667,vbt_B2_day1,2022.2.4,Win32,143.9263097,,,,,,,,,,,,,,,,,,,0.122222265,0.175925926,1,0,0,93.0064,1,12,38,8,1,i,images/br_i.png,images/cb_i.png,,,,,,,,,,,,,,,,,,,,,,,,,
,,,,,,00066,2023-10-13_17h37.25.667,vbt_B2_day1,2022.2.4,Win32,143.9263097,,,,,,,,,,,,,,,,,,,0.122222265,0.175925926,1,0,0,12.3051,1,13,39,23,1,x,images/br_x.png,images/cb_x.png,,,,,,,,,,,,,,,,,,,,,,,,,
,,,,,,00066,2023-10-13_17h37.25.667,vbt_B2_day1,2022.2.4,Win32,143.9263097,,,,,,,,,,,,,,,,,,,0.122222265,0.175925926,1,0,0,8.2779,1,14,40,5,1,f,images/br_f.png,images/cb_f.png,,,,,,,,,,,,,,,,,,,,,,,,,
,,,,,,00066,2023-10-13_17h37.25.667,vbt_B2_day1,2022.2.4,Win32,143.9263097,,,,,,,,,,,,,,,,,,,0.122222265,0.175925926,1,0,0,9,1,15,41,22,1,w,images/br_w.png,images/cb_w.png,,,,,,,,,,,,,,,,,,,,,,,,,
,,,,,,00066,2023-10-13_17h37.25.667,vbt_B2_day1,2022.2.4,Win32,143.9263097,,,,,,,,,,,,,,,,,,,0.122222265,0.175925926,1,0,0,11.1106,1,16,42,10,1,k,images/br_k.png,images/cb_k.png,,,,,,,,,,,,,,,,,,,,,,,,,
,,,,,,00066,2023-10-13_17h37.25.667,vbt_B2_day1,2022.2.4,Win32,143.9263097,,,,,,,,,,,,,,,,,,,0.122222265,0.175925926,1,0,0,8.0622,1,17,43,9,1,j,images/br_j.png,images/cb_j.png,,,,,,,,,,,,,,,,,,,,,,,,,
,,,,,,00066,2023-10-13_17h37.25.667,vbt_B2_day1,2022.2.4,Win32,143.9263097,,,,,,,,,,,,,,,,,,,0.122222265,0.175925926,1,0,0,0.0697,1,18,44,11,1,l,images/br_l.png,images/cb_l.png,,,,,,,,,,,,,,,,,,,,,,,,,
,,,,,,00066,2023-10-13_17h37.25.667,vbt_B2_day1,2022.2.4,Win32,143.9263097,,,,,,,,,,,,,,,,,,,0.122222265,0.175925926,1,0,0,13.0483,1,19,45,25,1,z,images/br_z.png,images/cb_z.png,,,,,,,,,,,,,,,,,,,,,,,,,
,,,,,,00066,2023-10-13_17h37.25.667,vbt_B2_day1,2022.2.4,Win32,143.9263097,,,,,,,,,,,,,,,,,,,0.122222265,0.175925926,1,0,0,5.3603,1,20,46,12,1,m,images/br_m.png,images/cb_m.png,,,,,,,,,,,,,,,,,,,,,,,,,
,,,,,,00066,2023-10-13_17h37.25.667,vbt_B2_day1,2022.2.4,Win32,143.9263097,,,,,,,,,,,,,,,,,,,0.122222265,0.175925926,1,0,0,4.1523,1,21,47,14,1,o,images/br_o.png,images/cb_o.png,,,,,,,,,,,,,,,,,,,,,,,,,
,,,,,,00066,2023-10-13_17h37.25.667,vbt_B2_day1,2022.2.4,Win32,143.9263097,,,,,,,,,,,,,,,,,,,0.122222265,0.175925926,1,0,0,0.3335,1,22,48,15,1,p,images/br_p.png,images/cb_p.png,,,,,,,,,,,,,,,,,,,,,,,,,
,,,,,,00066,2023-10-13_17h37.25.667,vbt_B2_day1,2022.2.4,Win32,143.9263097,,,,,,,,,,,,,,,,,,,0.122222265,0.175925926,1,0,0,2.2638,1,23,49,19,1,t,images/br_t.png,images/cb_t.png,,,,,,,,,,,,,,,,,,,,,,,,,
,,,,,,00066,2023-10-13_17h37.25.667,vbt_B2_day1,2022.2.4,Win32,143.9263097,,,,,,,,,,,,,,,,,,,0.122222265,0.175925926,1,0,0,0.3544,1,24,50,1,1,b,images/br_b.png,images/cb_b.png,,,,,,,,,,,,,,,,,,,,,,,,,
,,,,,,00066,2023-10-13_17h37.25.667,vbt_B2_day1,2022.2.4,Win32,143.9263097,,,,,,,,,,,,,,,,,,,0.122222265,0.175925926,1,0,0,0.3886,1,25,51,18,1,s,images/br_s.png,images/cb_s.png,,,,,,,,,,,,,,,,,,,,,,,,,
,,,,,,00066,2023-10-13_17h37.25.667,vbt_B2_day1,2022.2.4,Win32,143.9263097,,,,,,,,,,,,,,,,,,,0.122222265,0.175925926,1,0,0,0.1181,2,0,52,16,1,q,images/br_q.png,images/cb_q.png,,,,,,,,,,,,,,,,,,,,,,,,,
,,,,,,00066,2023-10-13_17h37.25.667,vbt_B2_day1,2022.2.4,Win32,143.9263097,,,,,,,,,,,,,,,,,,,0.122222265,0.175925926,1,0,0,1.0415,2,1,53,17,1,r,images/br_r.png,images/cb_r.png,,,,,,,,,,,,,,,,,,,,,,,,,
,,,,,,00066,2023-10-13_17h37.25.667,vbt_B2_day1,2022.2.4,Win32,143.9263097,,,,,,,,,,,,,,,,,,,0.122222265,0.175925926,1,0,0,6.8051,2,2,54,18,1,s,images/br_s.png,images/cb_s.png,,,,,,,,,,,,,,,,,,,,,,,,,
,,,,,,00066,2023-10-13_17h37.25.667,vbt_B2_day1,2022.2.4,Win32,143.9263097,,,,,,,,,,,,,,,,,,,0.138888889,-0.0074074,1,0,0,0.8885,2,3,55,1,1,b,images/br_b.png,images/cb_b.png,,,,,,,,,,,,,,,,,,,,,,,,,
,,,,,,00066,2023-10-13_17h37.25.667,vbt_B2_day1,2022.2.4,Win32,143.9263097,,,,,,,,,,,,,,,,,,,0.160185213,-0.08888891,1,0,0,1.0067,2,4,56,23,1,x,images/br_x.png,images/cb_x.png,,,,,,,,,,,,,,,,,,,,,,,,,
,,,,,,00066,2023-10-13_17h37.25.667,vbt_B2_day1,2022.2.4,Win32,143.9263097,,,,,,,,,,,,,,,,,,,0.160185213,-0.08888891,1,0,0,0.236,2,5,57,0,1,a,images/br_a.png,images/cb_a.png,,,,,,,,,,,,,,,,,,,,,,,,,
,,,,,,00066,2023-10-13_17h37.25.667,vbt_B2_day1,2022.2.4,Win32,143.9263097,,,,,,,,,,,,,,,,,,,0.140740783,-0.087037051,1,0,0,5.75,2,6,58,7,1,h,images/br_h.png,images/cb_h.png,,,,,,,,,,,,,,,,,,,,,,,,,
,,,,,,00066,2023-10-13_17h37.25.667,vbt_B2_day1,2022.2.4,Win32,143.9263097,,,,,,,,,,,,,,,,,,,0.140740783,-0.028703725,1,0,0,0.9724,2,7,59,20,1,u,images/br_u.png,images/cb_u.png,,,,,,,,,,,,,,,,,,,,,,,,,
,,,,,,00066,2023-10-13_17h37.25.667,vbt_B2_day1,2022.2.4,Win32,143.9263097,,,,,,,,,,,,,,,,,,,0.146296325,-0.022222236,1,0,0,1.3753,2,8,60,6,1,g,images/br_g.png,images/cb_g.png,,,,,,,,,,,,,,,,,,,,,,,,,
,,,,,,00066,2023-10-13_17h37.25.667,vbt_B2_day1,2022.2.4,Win32,143.9263097,,,,,,,,,,,,,,,,,,,0.140740783,-0.020370377,1,0,0,5.5552,2,9,61,13,1,n,images/br_n.png,images/cb_n.png,,,,,,,,,,,,,,,,,,,,,,,,,
,,,,,,00066,2023-10-13_17h37.25.667,vbt_B2_day1,2022.2.4,Win32,143.9263097,,,,,,,,,,,,,,,,,,,0.152777778,-0.006481489,1,0,0,0.6664,2,10,62,3,1,d,images/br_d.png,images/cb_d.png,,,,,,,,,,,,,,,,,,,,,,,,,
,,,,,,00066,2023-10-13_17h37.25.667,vbt_B2_day1,2022.2.4,Win32,143.9263097,,,,,,,,,,,,,,,,,,,0.152777778,-0.006481489,1,0,0,0.153,2,11,63,12,1,m,images/br_m.png,images/cb_m.png,,,,,,,,,,,,,,,,,,,,,,,,,
,,,,,,00066,2023-10-13_17h37.25.667,vbt_B2_day1,2022.2.4,Win32,143.9263097,,,,,,,,,,,,,,,,,,,0.152777778,-0.006481489,1,0,0,0.4029,2,12,64,5,1,f,images/br_f.png,images/cb_f.png,,,,,,,,,,,,,,,,,,,,,,,,,
,,,,,,00066,2023-10-13_17h37.25.667,vbt_B2_day1,2022.2.4,Win32,143.9263097,,,,,,,,,,,,,,,,,,,0.131481524,0,1,0,0,6.9306,2,13,65,14,1,o,images/br_o.png,images/cb_o.png,,,,,,,,,,,,,,,,,,,,,,,,,
,,,,,,00066,2023-10-13_17h37.25.667,vbt_B2_day1,2022.2.4,Win32,143.9263097,,,,,,,,,,,,,,,,,,,0.130555541,0.002777771,1,0,0,0.6176,2,14,66,24,1,y,images/br_y.png,images/cb_y.png,,,,,,,,,,,,,,,,,,,,,,,,,
,,,,,,00066,2023-10-13_17h37.25.667,vbt_B2_day1,2022.2.4,Win32,143.9263097,,,,,,,,,,,,,,,,,,,0.130555541,0.002777771,1,0,0,0.2569,2,15,67,2,1,c,images/br_c.png,images/cb_c.png,,,,,,,,,,,,,,,,,,,,,,,,,
,,,,,,00066,2023-10-13_17h37.25.667,vbt_B2_day1,2022.2.4,Win32,143.9263097,,,,,,,,,,,,,,,,,,,0.131481524,0.002777771,1,0,0,1.9442,2,16,68,11,1,l,images/br_l.png,images/cb_l.png,,,,,,,,,,,,,,,,,,,,,,,,,
,,,,,,00066,2023-10-13_17h37.25.667,vbt_B2_day1,2022.2.4,Win32,143.9263097,,,,,,,,,,,,,,,,,,,0.119444459,-0.013888889,1,0,0,5.0831,2,17,69,10,1,k,images/br_k.png,images/cb_k.png,,,,,,,,,,,,,,,,,,,,,,,,,
,,,,,,00066,2023-10-13_17h37.25.667,vbt_B2_day1,2022.2.4,Win32,143.9263097,,,,,,,,,,,,,,,,,,,0.109259288,-0.037962984,1,0,0,1.423,2,18,70,15,1,p,images/br_p.png,images/cb_p.png,,,,,,,,,,,,,,,,,,,,,,,,,
,,,,,,00066,2023-10-13_17h37.25.667,vbt_B2_day1,2022.2.4,Win32,143.9263097,,,,,,,,,,,,,,,,,,,0.109259288,-0.037962984,1,0,0,0.0973,2,19,71,9,1,j,images/br_j.png,images/cb_j.png,,,,,,,,,,,,,,,,,,,,,,,,,
,,,,,,00066,2023-10-13_17h37.25.667,vbt_B2_day1,2022.2.4,Win32,143.9263097,,,,,,,,,,,,,,,,,,,0.191666709,-0.029629637,1,0,0,0.2983,2,20,72,8,1,i,images/br_i.png,images/cb_i.png,,,,,,,,,,,,,,,,,,,,,,,,,
,,,,,,00066,2023-10-13_17h37.25.667,vbt_B2_day1,2022.2.4,Win32,143.9263097,,,,,,,,,,,,,,,,,,,0.190740727,-0.029629637,1,0,0,0.9791,2,21,73,22,1,w,images/br_w.png,images/cb_w.png,,,,,,,,,,,,,,,,,,,,,,,,,
,,,,,,00066,2023-10-13_17h37.25.667,vbt_B2_day1,2022.2.4,Win32,143.9263097,,,,,,,,,,,,,,,,,,,0.190740727,-0.029629637,1,0,0,2.0343,2,22,74,19,1,t,images/br_t.png,images/cb_t.png,,,,,,,,,,,,,,,,,,,,,,,,,
,,,,,,00066,2023-10-13_17h37.25.667,vbt_B2_day1,2022.2.4,Win32,143.9263097,,,,,,,,,,,,,,,,,,,0.190740727,-0.029629637,1,0,0,1.6944,2,23,75,4,1,e,images/br_e.png,images/cb_e.png,,,,,,,,,,,,,,,,,,,,,,,,,
,,,,,,00066,2023-10-13_17h37.25.667,vbt_B2_day1,2022.2.4,Win32,143.9263097,,,,,,,,,,,,,,,,,,,0.190740727,-0.029629637,1,0,0,1.8677,2,24,76,25,1,z,images/br_z.png,images/cb_z.png,,,,,,,,,,,,,,,,,,,,,,,,,
,,,,,,00066,2023-10-13_17h37.25.667,vbt_B2_day1,2022.2.4,Win32,143.9263097,,,,,,,,,,,,,,,,,,,0.190740727,-0.029629637,1,0,0,0.5483,2,25,77,21,1,v,images/br_v.png,images/cb_v.png,,,,,,,,,,,,,,,,,,,,,,,,,
,,,,,,00066,2023-10-13_17h37.25.667,vbt_B2_day1,2022.2.4,Win32,143.9263097,,,,,,,,,,,,,,,,,,,0.190740727,-0.029629637,1,0,0,1.0697,3,0,78,15,1,p,images/br_p.png,images/cb_p.png,,,,,,,,,,,,,,,,,,,,,,,,,
,,,,,,00066,2023-10-13_17h37.25.667,vbt_B2_day1,2022.2.4,Win32,143.9263097,,,,,,,,,,,,,,,,,,,0.17777782,-0.030555548,1,0,0,0.6251,3,1,79,17,1,r,images/br_r.png,images/cb_r.png,,,,,,,,,,,,,,,,,,,,,,,,,
,,,,,,00066,2023-10-13_17h37.25.667,vbt_B2_day1,2022.2.4,Win32,143.9263097,,,,,,,,,,,,,,,,,,,0.156481496,-0.030555548,1,0,0,0.5969,3,2,80,11,1,l,images/br_l.png,images/cb_l.png,,,,,,,,,,,,,,,,,,,,,,,,,
,,,,,,00066,2023-10-13_17h37.25.667,vbt_B2_day1,2022.2.4,Win32,143.9263097,,,,,,,,,,,,,,,,,,,0.14444443,-0.040740755,1,0,0,1.2081,3,3,81,16,1,q,images/br_q.png,images/cb_q.png,,,,,,,,,,,,,,,,,,,,,,,,,
,,,,,,00066,2023-10-13_17h37.25.667,vbt_B2_day1,2022.2.4,Win32,143.9263097,,,,,,,,,,,,,,,,,,,0.14444443,-0.040740755,1,0,0,0.8882,3,4,82,18,1,s,images/br_s.png,images/cb_s.png,,,,,,,,,,,,,,,,,,,,,,,,,
,,,,,,00066,2023-10-13_17h37.25.667,vbt_B2_day1,2022.2.4,Win32,143.9263097,,,,,,,,,,,,,,,,,,,0.143518519,-0.041666667,1,0,0,0.0347,3,5,83,25,1,z,images/br_z.png,images/cb_z.png,,,,,,,,,,,,,,,,,,,,,,,,,
,,,,,,00066,2023-10-13_17h37.25.667,vbt_B2_day1,2022.2.4,Win32,143.9263097,,,,,,,,,,,,,,,,,,,0.143518519,-0.041666667,1,0,0,1.0276,3,6,84,22,1,w,images/br_w.png,images/cb_w.png,,,,,,,,,,,,,,,,,,,,,,,,,
,,,,,,00066,2023-10-13_17h37.25.667,vbt_B2_day1,2022.2.4,Win32,143.9263097,,,,,,,,,,,,,,,,,,,0.143518519,-0.049074067,1,0,0,4.6181,3,7,85,7,1,h,images/br_h.png,images/cb_h.png,,,,,,,,,,,,,,,,,,,,,,,,,
,,,,,,00066,2023-10-13_17h37.25.667,vbt_B2_day1,2022.2.4,Win32,143.9263097,,,,,,,,,,,,,,,,,,,0.138888889,-0.055555556,1,0,0,0.1595,3,8,86,23,1,x,images/br_x.png,images/cb_x.png,,,,,,,,,,,,,,,,,,,,,,,,,
,,,,,,00066,2023-10-13_17h37.25.667,vbt_B2_day1,2022.2.4,Win32,143.9263097,,,,,,,,,,,,,,,,,,,0.138888889,-0.056481503,1,0,0,0.2293,3,9,87,24,1,y,images/br_y.png,images/cb_y.png,,,,,,,,,,,,,,,,,,,,,,,,,
,,,,,,00066,2023-10-13_17h37.25.667,vbt_B2_day1,2022.2.4,Win32,143.9263097,,,,,,,,,,,,,,,,,,,0.138888889,-0.056481503,1,0,0,0.1737,3,10,88,4,1,e,images/br_e.png,images/cb_e.png,,,,,,,,,,,,,,,,,,,,,,,,,
,,,,,,00066,2023-10-13_17h37.25.667,vbt_B2_day1,2022.2.4,Win32,143.9263097,,,,,,,,,,,,,,,,,,,0.125925912,-0.062037044,1,0,0,1.5071,3,11,89,20,1,u,images/br_u.png,images/cb_u.png,,,,,,,,,,,,,,,,,,,,,,,,,
,,,,,,00066,2023-10-13_17h37.25.667,vbt_B2_day1,2022.2.4,Win32,143.9263097,,,,,,,,,,,,,,,,,,,0.125925912,-0.062962956,1,0,0,0.5625,3,12,90,21,1,v,images/br_v.png,images/cb_v.png,,,,,,,,,,,,,,,,,,,,,,,,,
,,,,,,00066,2023-10-13_17h37.25.667,vbt_B2_day1,2022.2.4,Win32,143.9263097,,,,,,,,,,,,,,,,,,,0.12037037,-0.067592586,1,0,0,1.792,3,13,91,9,1,j,images/br_j.png,images/cb_j.png,,,,,,,,,,,,,,,,,,,,,,,,,
,,,,,,00066,2023-10-13_17h37.25.667,vbt_B2_day1,2022.2.4,Win32,143.9263097,,,,,,,,,,,,,,,,,,,0.114814829,-0.071296303,1,0,0,0.1941,3,14,92,19,1,t,images/br_t.png,images/cb_t.png,,,,,,,,,,,,,,,,,,,,,,,,,
,,,,,,00066,2023-10-13_17h37.25.667,vbt_B2_day1,2022.2.4,Win32,143.9263097,,,,,,,,,,,,,,,,,,,0.111111111,-0.073148162,1,0,0,0.3822,3,15,93,3,1,d,images/br_d.png,images/cb_d.png,,,,,,,,,,,,,,,,,,,,,,,,,
,,,,,,00066,2023-10-13_17h37.25.667,vbt_B2_day1,2022.2.4,Win32,143.9263097,,,,,,,,,,,,,,,,,,,0.111111111,-0.073148162,1,0,0,0.375,3,16,94,1,1,b,images/br_b.png,images/cb_b.png,,,,,,,,,,,,,,,,,,,,,,,,,
,,,,,,00066,2023-10-13_17h37.25.667,vbt_B2_day1,2022.2.4,Win32,143.9263097,,,,,,,,,,,,,,,,,,,0.106481481,-0.075000021,1,0,0,1.0069,3,17,95,8,1,i,images/br_i.png,images/cb_i.png,,,,,,,,,,,,,,,,,,,,,,,,,
,,,,,,00066,2023-10-13_17h37.25.667,vbt_B2_day1,2022.2.4,Win32,143.9263097,,,,,,,,,,,,,,,,,,,0.106481481,-0.075000021,1,0,0,1.4796,3,18,96,14,1,o,images/br_o.png,images/cb_o.png,,,,,,,,,,,,,,,,,,,,,,,,,
,,,,,,00066,2023-10-13_17h37.25.667,vbt_B2_day1,2022.2.4,Win32,143.9263097,,,,,,,,,,,,,,,,,,,0.194444444,-0.164814843,1,0,0,3.4099,3,19,97,6,1,g,images/br_g.png,images/cb_g.png,,,,,,,,,,,,,,,,,,,,,,,,,
,,,,,,00066,2023-10-13_17h37.25.667,vbt_B2_day1,2022.2.4,Win32,143.9263097,,,,,,,,,,,,,,,,,,,0.20648151,-0.14907406,1,0,0,0.0769,3,20,98,5,1,f,images/br_f.png,images/cb_f.png,,,,,,,,,,,,,,,,,,,,,,,,,
,,,,,,00066,2023-10-13_17h37.25.667,vbt_B2_day1,2022.2.4,Win32,143.9263097,,,,,,,,,,,,,,,,,,,0.212037051,-0.156481496,1,0,0,4.6948,3,21,99,12,1,m,images/br_m.png,images/cb_m.png,,,,,,,,,,,,,,,,,,,,,,,,,
,,,,,,00066,2023-10-13_17h37.25.667,vbt_B2_day1,2022.2.4,Win32,143.9263097,,,,,,,,,,,,,,,,,,,0.212037051,-0.156481496,1,0,0,0.8269,3,22,100,0,1,a,images/br_a.png,images/cb_a.png,,,,,,,,,,,,,,,,,,,,,,,,,
,,,,,,00066,2023-10-13_17h37.25.667,vbt_B2_day1,2022.2.4,Win32,143.9263097,,,,,,,,,,,,,,,,,,,0.212037051,-0.156481496,1,0,0,0.7081,3,23,101,10,1,k,images/br_k.png,images/cb_k.png,,,,,,,,,,,,,,,,,,,,,,,,,
,,,,,,00066,2023-10-13_17h37.25.667,vbt_B2_day1,2022.2.4,Win32,143.9263097,,,,,,,,,,,,,,,,,,,0.212037051,-0.156481496,1,0,0,0.2293,3,24,102,13,1,n,images/br_n.png,images/cb_n.png,,,,,,,,,,,,,,,,,,,,,,,,,
,,,,,,00066,2023-10-13_17h37.25.667,vbt_B2_day1,2022.2.4,Win32,143.9263097,,,,,,,,,,,,,,,,,,,0.212037051,-0.156481496,1,0,0,0.0698,3,25,103,2,1,c,images/br_c.png,images/cb_c.png,,,,,,,,,,,,,,,,,,,,,,,,,
,,,,,,00066,2023-10-13_17h37.25.667,vbt_B2_day1,2022.2.4,Win32,143.9263097,,,,,,,,,,,,,,,,,,,0.212037051,-0.156481496,1,0,0,0.3052,4,0,104,23,1,x,images/br_x.png,images/cb_x.png,,,,,,,,,,,,,,,,,,,,,,,,,
,,,,,,00066,2023-10-13_17h37.25.667,vbt_B2_day1,2022.2.4,Win32,143.9263097,,,,,,,,,,,,,,,,,,,0.212037051,-0.156481496,1,0,0,0.2845,4,1,105,18,1,s,images/br_s.png,images/cb_s.png,,,,,,,,,,,,,,,,,,,,,,,,,
,,,,,,00066,2023-10-13_17h37.25.667,vbt_B2_day1,2022.2.4,Win32,143.9263097,,,,,,,,,,,,,,,,,,,0.212037051,-0.156481496,1,0,0,0.5556,4,2,106,8,1,i,images/br_i.png,images/cb_i.png,,,,,,,,,,,,,,,,,,,,,,,,,
,,,,,,00066,2023-10-13_17h37.25.667,vbt_B2_day1,2022.2.4,Win32,143.9263097,,,,,,,,,,,,,,,,,,,0.212037051,-0.156481496,1,0,0,0.1526,4,3,107,22,1,w,images/br_w.png,images/cb_w.png,,,,,,,,,,,,,,,,,,,,,,,,,
,,,,,,00066,2023-10-13_17h37.25.667,vbt_B2_day1,2022.2.4,Win32,143.9263097,,,,,,,,,,,,,,,,,,,0.169444473,-0.131481524,1,0,0,2.7154,4,4,108,2,1,c,images/br_c.png,images/cb_c.png,,,,,,,,,,,,,,,,,,,,,,,,,
,,,,,,00066,2023-10-13_17h37.25.667,vbt_B2_day1,2022.2.4,Win32,143.9263097,,,,,,,,,,,,,,,,,,,0.169444473,-0.12962963,1,0,0,0.3536,4,5,109,13,1,n,images/br_n.png,images/cb_n.png,,,,,,,,,,,,,,,,,,,,,,,,,
,,,,,,00066,2023-10-13_17h37.25.667,vbt_B2_day1,2022.2.4,Win32,143.9263097,,,,,,,,,,,,,,,,,,,0.143518519,-0.131481524,1,0,0,14.4721,4,6,110,24,1,y,images/br_y.png,images/cb_y.png,,,,,,,,,,,,,,,,,,,,,,,,,
,,,,,,00066,2023-10-13_17h37.25.667,vbt_B2_day1,2022.2.4,Win32,143.9263097,,,,,,,,,,,,,,,,,,,0.143518519,-0.131481524,1,0,0,6.0976,4,7,111,6,1,g,images/br_g.png,images/cb_g.png,,,,,,,,,,,,,,,,,,,,,,,,,
,,,,,,00066,2023-10-13_17h37.25.667,vbt_B2_day1,2022.2.4,Win32,143.9263097,,,,,,,,,,,,,,,,,,,0.143518519,-0.131481524,1,0,0,1.2434,4,8,112,12,1,m,images/br_m.png,images/cb_m.png,,,,,,,,,,,,,,,,,,,,,,,,,
,,,,,,00066,2023-10-13_17h37.25.667,vbt_B2_day1,2022.2.4,Win32,143.9263097,,,,,,,,,,,,,,,,,,,0.143518519,-0.131481524,1,0,0,0.0073,4,9,113,15,1,p,images/br_p.png,images/cb_p.png,,,,,,,,,,,,,,,,,,,,,,,,,
,,,,,,00066,2023-10-13_17h37.25.667,vbt_B2_day1,2022.2.4,Win32,143.9263097,,,,,,,,,,,,,,,,,,,0.143518519,-0.131481524,1,0,0,0.0276,4,10,114,25,1,z,images/br_z.png,images/cb_z.png,,,,,,,,,,,,,,,,,,,,,,,,,
,,,,,,00066,2023-10-13_17h37.25.667,vbt_B2_day1,2022.2.4,Win32,143.9263097,,,,,,,,,,,,,,,,,,,0.143518519,-0.131481524,1,0,0,1.0003,4,11,115,3,1,d,images/br_d.png,images/cb_d.png,,,,,,,,,,,,,,,,,,,,,,,,,
,,,,,,00066,2023-10-13_17h37.25.667,vbt_B2_day1,2022.2.4,Win32,143.9263097,,,,,,,,,,,,,,,,,,,0.143518519,-0.130555541,1,0,0,1.1873,4,12,116,1,1,b,images/br_b.png,images/cb_b.png,,,,,,,,,,,,,,,,,,,,,,,,,
,,,,,,00066,2023-10-13_17h37.25.667,vbt_B2_day1,2022.2.4,Win32,143.9263097,,,,,,,,,,,,,,,,,,,0.143518519,-0.130555541,1,0,0,5.3961,4,13,117,10,1,k,images/br_k.png,images/cb_k.png,,,,,,,,,,,,,,,,,,,,,,,,,
,,,,,,00066,2023-10-13_17h37.25.667,vbt_B2_day1,2022.2.4,Win32,143.9263097,,,,,,,,,,,,,,,,,,,0.143518519,-0.130555541,1,0,0,5.1529,4,14,118,7,1,h,images/br_h.png,images/cb_h.png,,,,,,,,,,,,,,,,,,,,,,,,,
,,,,,,00066,2023-10-13_17h37.25.667,vbt_B2_day1,2022.2.4,Win32,143.9263097,,,,,,,,,,,,,,,,,,,0.140740783,-0.130555541,1,0,0,10.861,4,15,119,21,1,v,images/br_v.png,images/cb_v.png,,,,,,,,,,,,,,,,,,,,,,,,,
,,,,,,00066,2023-10-13_17h37.25.667,vbt_B2_day1,2022.2.4,Win32,143.9263097,,,,,,,,,,,,,,,,,,,0.140740783,-0.130555541,1,0,0,0.1181,4,16,120,0,1,a,images/br_a.png,images/cb_a.png,,,,,,,,,,,,,,,,,,,,,,,,,
,,,,,,00066,2023-10-13_17h37.25.667,vbt_B2_day1,2022.2.4,Win32,143.9263097,,,,,,,,,,,,,,,,,,,0.199999986,-0.01203703,1,0,0,1.0465,4,17,121,9,1,j,images/br_j.png,images/cb_j.png,,,,,,,,,,,,,,,,,,,,,,,,,
,,,,,,00066,2023-10-13_17h37.25.667,vbt_B2_day1,2022.2.4,Win32,143.9263097,,,,,,,,,,,,,,,,,,,0.198148162,-0.011111118,1,0,0,4.0553,4,18,122,5,1,f,images/br_f.png,images/cb_f.png,,,,,,,,,,,,,,,,,,,,,,,,,
,,,,,,00066,2023-10-13_17h37.25.667,vbt_B2_day1,2022.2.4,Win32,143.9263097,,,,,,,,,,,,,,,,,,,0.198148162,-0.011111118,1,0,0,1.0139,4,19,123,16,1,q,images/br_q.png,images/cb_q.png,,,,,,,,,,,,,,,,,,,,,,,,,
,,,,,,00066,2023-10-13_17h37.25.667,vbt_B2_day1,2022.2.4,Win32,143.9263097,,,,,,,,,,,,,,,,,,,0.198148162,-0.01203703,1,0,0,0.3959,4,20,124,17,1,r,images/br_r.png,images/cb_r.png,,,,,,,,,,,,,,,,,,,,,,,,,
,,,,,,00066,2023-10-13_17h37.25.667,vbt_B2_day1,2022.2.4,Win32,143.9263097,,,,,,,,,,,,,,,,,,,0.162962949,-0.058333326,1,0,0,0.3752,4,21,125,14,1,o,images/br_o.png,images/cb_o.png,,,,,,,,,,,,,,,,,,,,,,,,,
,,,,,,00066,2023-10-13_17h37.25.667,vbt_B2_day1,2022.2.4,Win32,143.9263097,,,,,,,,,,,,,,,,,,,0.082407422,-0.12962963,1,0,0,2.4374,4,22,126,20,1,u,images/br_u.png,images/cb_u.png,,,,,,,,,,,,,,,,,,,,,,,,,
,,,,,,00066,2023-10-13_17h37.25.667,vbt_B2_day1,2022.2.4,Win32,143.9263097,,,,,,,,,,,,,,,,,,,0.07222225,-0.171296296,1,0,0,5.7921,4,23,127,4,1,e,images/br_e.png,images/cb_e.png,,,,,,,,,,,,,,,,,,,,,,,,,
,,,,,,00066,2023-10-13_17h37.25.667,vbt_B2_day1,2022.2.4,Win32,143.9263097,,,,,,,,,,,,,,,,,,,0.07222225,-0.171296296,1,0,0,0.8267,4,24,128,19,1,t,images/br_t.png,images/cb_t.png,,,,,,,,,,,,,,,,,,,,,,,,,
,,,,,,00066,2023-10-13_17h37.25.667,vbt_B2_day1,2022.2.4,Win32,143.9263097,,,,,,,,,,,,,,,,,,,0.117592635,-0.172222208,1,0,0,0.7426,4,25,129,11,1,l,images/br_l.png,images/cb_l.png,,,,,,,,,,,,,,,,,,,,,,,,,
,,,,,,00066,2023-10-13_17h37.25.667,vbt_B2_day1,2022.2.4,Win32,143.9263097,,,,,,,,,,,,,,,,,,,0.10555557,-0.188888903,1,0,0,0.1787,5,0,130,12,1,m,images/br_m.png,images/cb_m.png,,,,,,,,,,,,,,,,,,,,,,,,,
,,,,,,00066,2023-10-13_17h37.25.667,vbt_B2_day1,2022.2.4,Win32,143.9263097,,,,,,,,,,,,,,,,,,,0.137037065,-0.14444443,1,0,0,0.3612,5,1,131,17,1,r,images/br_r.png,images/cb_r.png,,,,,,,,,,,,,,,,,,,,,,,,,
,,,,,,00066,2023-10-13_17h37.25.667,vbt_B2_day1,2022.2.4,Win32,143.9263097,,,,,,,,,,,,,,,,,,,0.136111153,-0.14444443,1,0,0,0.2643,5,2,132,0,1,a,images/br_a.png,images/cb_a.png,,,,,,,,,,,,,,,,,,,,,,,,,
,,,,,,00066,2023-10-13_17h37.25.667,vbt_B2_day1,2022.2.4,Win32,143.9263097,,,,,,,,,,,,,,,,,,,0.115740741,-0.162037037,1,0,0,11.3955,5,3,133,7,1,h,images/br_h.png,images/cb_h.png,,,,,,,,,,,,,,,,,,,,,,,,,
,,,,,,00066,2023-10-13_17h37.25.667,vbt_B2_day1,2022.2.4,Win32,143.9263097,,,,,,,,,,,,,,,,,,,0.115740741,-0.163888931,1,0,0,0.0347,5,4,134,9,1,j,images/br_j.png,images/cb_j.png,,,,,,,,,,,,,,,,,,,,,,,,,
,,,,,,00066,2023-10-13_17h37.25.667,vbt_B2_day1,2022.2.4,Win32,143.9263097,,,,,,,,,,,,,,,,,,,0.114814829,-0.164814843,1,0,0,1.076,5,5,135,24,1,y,images/br_y.png,images/cb_y.png,,,,,,,,,,,,,,,,,,,,,,,,,
,,,,,,00066,2023-10-13_17h37.25.667,vbt_B2_day1,2022.2.4,Win32,143.9263097,,,,,,,,,,,,,,,,,,,0.114814829,-0.164814843,1,0,0,0.5072,5,6,136,13,1,n,images/br_n.png,images/cb_n.png,,,,,,,,,,,,,,,,,,,,,,,,,
,,,,,,00066,2023-10-13_17h37.25.667,vbt_B2_day1,2022.2.4,Win32,143.9263097,,,,,,,,,,,,,,,,,,,0.114814829,-0.164814843,1,0,0,0.4724,5,7,137,20,1,u,images/br_u.png,images/cb_u.png,,,,,,,,,,,,,,,,,,,,,,,,,
,,,,,,00066,2023-10-13_17h37.25.667,vbt_B2_day1,2022.2.4,Win32,143.9263097,,,,,,,,,,,,,,,,,,,0.114814829,-0.164814843,1,0,0,0.2707,5,8,138,16,1,q,images/br_q.png,images/cb_q.png,,,,,,,,,,,,,,,,,,,,,,,,,
,,,,,,00066,2023-10-13_17h37.25.667,vbt_B2_day1,2022.2.4,Win32,143.9263097,,,,,,,,,,,,,,,,,,,0.114814829,-0.164814843,1,0,0,0.2847,5,9,139,4,1,e,images/br_e.png,images/cb_e.png,,,,,,,,,,,,,,,,,,,,,,,,,
,,,,,,00066,2023-10-13_17h37.25.667,vbt_B2_day1,2022.2.4,Win32,143.9263097,,,,,,,,,,,,,,,,,,,0.114814829,-0.164814843,1,0,0,7.9373,5,10,140,5,1,f,images/br_f.png,images/cb_f.png,,,,,,,,,,,,,,,,,,,,,,,,,
,,,,,,00066,2023-10-13_17h37.25.667,vbt_B2_day1,2022.2.4,Win32,143.9263097,,,,,,,,,,,,,,,,,,,0.114814829,-0.164814843,1,0,0,0.3614,5,11,141,8,1,i,images/br_i.png,images/cb_i.png,,,,,,,,,,,,,,,,,,,,,,,,,
,,,,,,00066,2023-10-13_17h37.25.667,vbt_B2_day1,2022.2.4,Win32,143.9263097,,,,,,,,,,,,,,,,,,,0.114814829,-0.164814843,1,0,0,0.7152,5,12,142,25,1,z,images/br_z.png,images/cb_z.png,,,,,,,,,,,,,,,,,,,,,,,,,
,,,,,,00066,2023-10-13_17h37.25.667,vbt_B2_day1,2022.2.4,Win32,143.9263097,,,,,,,,,,,,,,,,,,,0.097222222,-0.151851866,1,0,0,0.271,5,13,143,14,1,o,images/br_o.png,images/cb_o.png,,,,,,,,,,,,,,,,,,,,,,,,,
,,,,,,00066,2023-10-13_17h37.25.667,vbt_B2_day1,2022.2.4,Win32,143.9263097,,,,,,,,,,,,,,,,,,,0.091666681,-0.010185206,1,0,0,0.6804,5,14,144,15,1,p,images/br_p.png,images/cb_p.png,,,,,,,,,,,,,,,,,,,,,,,,,
,,,,,,00066,2023-10-13_17h37.25.667,vbt_B2_day1,2022.2.4,Win32,143.9263097,,,,,,,,,,,,,,,,,,,0.091666681,-0.010185206,1,0,0,0.3752,5,15,145,22,1,w,images/br_w.png,images/cb_w.png,,,,,,,,,,,,,,,,,,,,,,,,,
,,,,,,00066,2023-10-13_17h37.25.667,vbt_B2_day1,2022.2.4,Win32,143.9263097,,,,,,,,,,,,,,,,,,,0.091666681,-0.010185206,1,0,0,8.8682,5,16,146,2,1,c,images/br_c.png,images/cb_c.png,,,,,,,,,,,,,,,,,,,,,,,,,
,,,,,,00066,2023-10-13_17h37.25.667,vbt_B2_day1,2022.2.4,Win32,143.9263097,,,,,,,,,,,,,,,,,,,0.091666681,-0.010185206,1,0,0,0.243,5,17,147,21,1,v,images/br_v.png,images/cb_v.png,,,,,,,,,,,,,,,,,,,,,,,,,
,,,,,,00066,2023-10-13_17h37.25.667,vbt_B2_day1,2022.2.4,Win32,143.9263097,,,,,,,,,,,,,,,,,,,0.091666681,-0.010185206,1,0,0,0.7359,5,18,148,23,1,x,images/br_x.png,images/cb_x.png,,,,,,,,,,,,,,,,,,,,,,,,,
,,,,,,00066,2023-10-13_17h37.25.667,vbt_B2_day1,2022.2.4,Win32,143.9263097,,,,,,,,,,,,,,,,,,,0.091666681,-0.010185206,1,0,0,4.8891,5,19,149,3,1,d,images/br_d.png,images/cb_d.png,,,,,,,,,,,,,,,,,,,,,,,,,
,,,,,,00066,2023-10-13_17h37.25.667,vbt_B2_day1,2022.2.4,Win32,143.9263097,,,,,,,,,,,,,,,,,,,0.300925926,-0.056481503,1,0,0,133.1942,5,20,150,6,1,g,images/br_g.png,images/cb_g.png,,,,,,,,,,,,,,,,,,,,,,,,,
,,,,,,00066,2023-10-13_17h37.25.667,vbt_B2_day1,2022.2.4,Win32,143.9263097,,,,,,,,,,,,,,,,,,,0.325000057,-0.059259273,1,0,0,0.2293,5,21,151,10,1,k,images/br_k.png,images/cb_k.png,,,,,,,,,,,,,,,,,,,,,,,,,
,,,,,,00066,2023-10-13_17h37.25.667,vbt_B2_day1,2022.2.4,Win32,143.9263097,,,,,,,,,,,,,,,,,,,0.276851866,-0.093518504,1,0,0,57.1034,5,22,152,19,1,t,images/br_t.png,images/cb_t.png,,,,,,,,,,,,,,,,,,,,,,,,,
,,,,,,00066,2023-10-13_17h37.25.667,vbt_B2_day1,2022.2.4,Win32,143.9263097,,,,,,,,,,,,,,,,,,,0.276851866,-0.091666681,1,0,0,0.1943,5,23,153,11,1,l,images/br_l.png,images/cb_l.png,,,,,,,,,,,,,,,,,,,,,,,,,
,,,,,,00066,2023-10-13_17h37.25.667,vbt_B2_day1,2022.2.4,Win32,143.9263097,,,,,,,,,,,,,,,,,,,0.299074102,-0.087037051,1,0,0,18.2565,5,24,154,1,1,b,images/br_b.png,images/cb_b.png,,,,,,,,,,,,,,,,,,,,,,,,,
,,,,,,00066,2023-10-13_17h37.25.667,vbt_B2_day1,2022.2.4,Win32,143.9263097,,,,,,,,,,,,,,,,,,,0.307407379,-0.080555563,1,0,0,0.0207,5,25,155,18,1,s,images/br_s.png,images/cb_s.png,,,,,,,,,,,,,,,,,,,,,,,,,
,,,,,,00066,2023-10-13_17h37.25.667,vbt_B2_day1,2022.2.4,Win32,143.9263097,,,,,,,,,,,,,,,,,,,0.311111168,-0.074074074,1,0,0,0.1388,6,0,156,15,1,p,images/br_p.png,images/cb_p.png,,,,,,,,,,,,,,,,,,,,,,,,,
,,,,,,00066,2023-10-13_17h37.25.667,vbt_B2_day1,2022.2.4,Win32,143.9263097,,,,,,,,,,,,,,,,,,,-0.008333347,0.059259238,1,0,0,24.9238,6,1,157,12,1,m,images/br_m.png,images/cb_m.png,,,,,,,,,,,,,,,,,,,,,,,,,
,,,,,,00066,2023-10-13_17h37.25.667,vbt_B2_day1,2022.2.4,Win32,143.9263097,,,,,,,,,,,,,,,,,,,0.125,0.096296275,1,0,0,0.0552,6,2,158,4,1,e,images/br_e.png,images/cb_e.png,,,,,,,,,,,,,,,,,,,,,,,,,
,,,,,,00066,2023-10-13_17h37.25.667,vbt_B2_day1,2022.2.4,Win32,143.9263097,,,,,,,,,,,,,,,,,,,0.150000042,0.127777771,1,0,0,285.9153,6,3,159,7,1,h,images/br_h.png,images/cb_h.png,,,,,,,,,,,,,,,,,,,,,,,,,
,,,,,,00066,2023-10-13_17h37.25.667,vbt_B2_day1,2022.2.4,Win32,143.9263097,,,,,,,,,,,,,,,,,,,0.151851866,0.169444437,1,0,0,0.5074,6,4,160,0,1,a,images/br_a.png,images/cb_a.png,,,,,,,,,,,,,,,,,,,,,,,,,
,,,,,,00066,2023-10-13_17h37.25.667,vbt_B2_day1,2022.2.4,Win32,143.9263097,,,,,,,,,,,,,,,,,,,0.211111139,-0.040740755,1,0,0,1.229,6,5,161,22,1,w,images/br_w.png,images/cb_w.png,,,,,,,,,,,,,,,,,,,,,,,,,
,,,,,,00066,2023-10-13_17h37.25.667,vbt_B2_day1,2022.2.4,Win32,143.9263097,,,,,,,,,,,,,,,,,,,0.198148162,-0.062962956,1,0,0,79.5345,6,6,162,19,1,t,images/br_t.png,images/cb_t.png,,,,,,,,,,,,,,,,,,,,,,,,,
,,,,,,00066,2023-10-13_17h37.25.667,vbt_B2_day1,2022.2.4,Win32,143.9263097,,,,,,,,,,,,,,,,,,,0.198148162,-0.062962956,1,0,0,8.3958,6,7,163,6,1,g,images/br_g.png,images/cb_g.png,,,,,,,,,,,,,,,,,,,,,,,,,
,,,,,,00066,2023-10-13_17h37.25.667,vbt_B2_day1,2022.2.4,Win32,143.9263097,,,,,,,,,,,,,,,,,,,0.199074074,-0.062962956,1,0,0,14.7778,6,8,164,21,1,v,images/br_v.png,images/cb_v.png,,,,,,,,,,,,,,,,,,,,,,,,,
,,,,,,00066,2023-10-13_17h37.25.667,vbt_B2_day1,2022.2.4,Win32,143.9263097,,,,,,,,,,,,,,,,,,,0.199074074,-0.062962956,1,0,0,1.3128,6,9,165,16,1,q,images/br_q.png,images/cb_q.png,,,,,,,,,,,,,,,,,,,,,,,,,
,,,,,,00066,2023-10-13_17h37.25.667,vbt_B2_day1,2022.2.4,Win32,143.9263097,,,,,,,,,,,,,,,,,,,0.199074074,-0.062962956,1,0,0,2.8544,6,10,166,9,1,j,images/br_j.png,images/cb_j.png,,,,,,,,,,,,,,,,,,,,,,,,,
,,,,,,00066,2023-10-13_17h37.25.667,vbt_B2_day1,2022.2.4,Win32,143.9263097,,,,,,,,,,,,,,,,,,,0.215740769,0.047222208,1,0,0,26.6874,6,11,167,8,1,i,images/br_i.png,images/cb_i.png,,,,,,,,,,,,,,,,,,,,,,,,,
,,,,,,00066,2023-10-13_17h37.25.667,vbt_B2_day1,2022.2.4,Win32,143.9263097,,,,,,,,,,,,,,,,,,,0.222222222,0.052777785,1,0,0,2.3126,6,12,168,5,1,f,images/br_f.png,images/cb_f.png,,,,,,,,,,,,,,,,,,,,,,,,,
,,,,,,00066,2023-10-13_17h37.25.667,vbt_B2_day1,2022.2.4,Win32,143.9263097,,,,,,,,,,,,,,,,,,,0.222222222,0.052777785,1,0,0,0.514,6,13,169,18,1,s,images/br_s.png,images/cb_s.png,,,,,,,,,,,,,,,,,,,,,,,,,
,,,,,,00066,2023-10-13_17h37.25.667,vbt_B2_day1,2022.2.4,Win32,143.9263097,,,,,,,,,,,,,,,,,,,0.222222222,0.052777785,1,0,0,0.2358,6,14,170,2,1,c,images/br_c.png,images/cb_c.png,,,,,,,,,,,,,,,,,,,,,,,,,
,,,,,,00066,2023-10-13_17h37.25.667,vbt_B2_day1,2022.2.4,Win32,143.9263097,,,,,,,,,,,,,,,,,,,0.24537037,-0.118518547,1,0,0,2.1874,6,15,171,13,1,n,images/br_n.png,images/cb_n.png,,,,,,,,,,,,,,,,,,,,,,,,,
,,,,,,00066,2023-10-13_17h37.25.667,vbt_B2_day1,2022.2.4,Win32,143.9263097,,,,,,,,,,,,,,,,,,,0.225000028,-0.121296282,1,0,0,0.3678,6,16,172,17,1,r,images/br_r.png,images/cb_r.png,,,,,,,,,,,,,,,,,,,,,,,,,
,,,,,,00066,2023-10-13_17h37.25.667,vbt_B2_day1,2022.2.4,Win32,143.9263097,,,,,,,,,,,,,,,,,,,0.212962963,-0.123148176,1,0,0,1.8056,6,17,173,20,1,u,images/br_u.png,images/cb_u.png,,,,,,,,,,,,,,,,,,,,,,,,,
,,,,,,00066,2023-10-13_17h37.25.667,vbt_B2_day1,2022.2.4,Win32,143.9263097,,,,,,,,,,,,,,,,,,,0.212962963,-0.123148176,1,0,0,0.1595,6,18,174,3,1,d,images/br_d.png,images/cb_d.png,,,,,,,,,,,,,,,,,,,,,,,,,
,,,,,,00066,2023-10-13_17h37.25.667,vbt_B2_day1,2022.2.4,Win32,143.9263097,,,,,,,,,,,,,,,,,,,0.212962963,-0.123148176,1,0,0,0.1594,6,19,175,11,1,l,images/br_l.png,images/cb_l.png,,,,,,,,,,,,,,,,,,,,,,,,,
,,,,,,00066,2023-10-13_17h37.25.667,vbt_B2_day1,2022.2.4,Win32,143.9263097,,,,,,,,,,,,,,,,,,,0.210185228,-0.134259259,1,0,0,82.9577,6,20,176,10,1,k,images/br_k.png,images/cb_k.png,,,,,,,,,,,,,,,,,,,,,,,,,
,,,,,,00066,2023-10-13_17h37.25.667,vbt_B2_day1,2022.2.4,Win32,143.9263097,,,,,,,,,,,,,,,,,,,0.210185228,-0.134259259,1,0,0,117.8281,6,21,177,23,1,x,images/br_x.png,images/cb_x.png,,,,,,,,,,,,,,,,,,,,,,,,,
,,,,,,00066,2023-10-13_17h37.25.667,vbt_B2_day1,2022.2.4,Win32,143.9263097,,,,,,,,,,,,,,,,,,,0.160185213,-0.097222222,1,0,0,0.0348,6,22,178,24,1,y,images/br_y.png,images/cb_y.png,,,,,,,,,,,,,,,,,,,,,,,,,
,,,,,,00066,2023-10-13_17h37.25.667,vbt_B2_day1,2022.2.4,Win32,143.9263097,,,,,,,,,,,,,,,,,,,0.219444487,0.00462963,1,0,0,0.9166,6,23,179,1,1,b,images/br_b.png,images/cb_b.png,,,,,,,,,,,,,,,,,,,,,,,,,
,,,,,,00066,2023-10-13_17h37.25.667,vbt_B2_day1,2022.2.4,Win32,143.9263097,,,,,,,,,,,,,,,,,,,0.219444487,0.00462963,1,0,0,0.396,6,24,180,14,1,o,images/br_o.png,images/cb_o.png,,,,,,,,,,,,,,,,,,,,,,,,,
,,,,,,00066,2023-10-13_17h37.25.667,vbt_B2_day1,2022.2.4,Win32,143.9263097,,,,,,,,,,,,,,,,,,,0.219444487,0.00462963,1,0,0,5.5902,6,25,181,25,1,z,images/br_z.png,images/cb_z.png,,,,,,,,,,,,,,,,,,,,,,,,,
,,,,,,00066,2023-10-13_17h37.25.667,vbt_B2_day1,2022.2.4,Win32,143.9263097,,,,,,,,,,,,,,,,,,,,,,,,,,,,,,,,,0.380555612,0.093518504,1,0,0,,,,,,,,,,,,,,,,,,,,
,,,,,,00066,2023-10-13_17h37.25.667,vbt_B2_day1,2022.2.4,Win32,143.9263097,,,,,,,,,,,,,,,,,,,,,,,,,,,,,,,,,,,,,,0.465740769,0.123148141,1,0,0,,,,,,,,,,,,,,,
,,,,,,00066,2023-10-13_17h37.25.667,vbt_B2_day1,2022.2.4,Win32,143.9263097,,,,,,,,,,,,,,,,,,,,,,,,,,,,,,,,,,,,,,,,,,,0.412037037,0.136111118,1,0,0,leig..,leig..,0,0,0,50,1,liegen,images/br_liegen.png,images/cb_liegen.png
,,,,,,00066,2023-10-13_17h37.25.667,vbt_B2_day1,2022.2.4,Win32,143.9263097,,,,,,,,,,,,,,,,,,,,,,,,,,,,,,,,,,,,,,,,,,,0.450000057,0.167592578,1,0,0,kanj...,kanj...,0,1,1,8,1,kanjer,images/br_kanjer.png,images/cb_kanjer.png
,,,,,,00066,2023-10-13_17h37.25.667,vbt_B2_day1,2022.2.4,Win32,143.9263097,,,,,,,,,,,,,,,,,,,,,,,,,,,,,,,,,,,,,,,,,,,0.448148233,0.182407414,1,0,0,tars,tars,0,2,2,20,1,tars,images/br_tars.png,images/cb_tars.png
,,,,,,00066,2023-10-13_17h37.25.667,vbt_B2_day1,2022.2.4,Win32,143.9263097,,,,,,,,,,,,,,,,,,,,,,,,,,,,,,,,,,,,,,,,,,,0.422222279,0.182407414,1,0,0,schie....,schie....,0,3,3,38,1,schielen,images/br_schielen.png,images/cb_schielen.png
,,,,,,00066,2023-10-13_17h37.25.667,vbt_B2_day1,2022.2.4,Win32,143.9263097,,,,,,,,,,,,,,,,,,,,,,,,,,,,,,,,,,,,,,,,,,,0.443518603,0.199999986,1,0,0,la.a,la.a,0,4,4,43,1,lava,images/br_lava.png,images/cb_lava.png
,,,,,,00066,2023-10-13_17h37.25.667,vbt_B2_day1,2022.2.4,Win32,143.9263097,,,,,,,,,,,,,,,,,,,,,,,,,,,,,,,,,,,,,,,,,,,0.411111196,0.195370356,1,0,0,klimm...,klimm...,0,5,5,12,1,klimmen,images/br_klimmen.png,images/cb_klimmen.png
,,,,,,00066,2023-10-13_17h37.25.667,vbt_B2_day1,2022.2.4,Win32,143.9263097,,,,,,,,,,,,,,,,,,,,,,,,,,,,,,,,,,,,,,,,,,,0.443518603,0.210185175,1,0,0,schip,schip,0,6,6,4,1,schep,images/br_schep.png,images/cb_schep.png
,,,,,,00066,2023-10-13_17h37.25.667,vbt_B2_day1,2022.2.4,Win32,143.9263097,,,,,,,,,,,,,,,,,,,,,,,,,,,,,,,,,,,,,,,,,,,0.435185185,0.216666663,1,0,0,geno...,geno...,0,7,7,29,1,genond,images/br_genond.png,images/cb_genond.png
,,,,,,00066,2023-10-13_17h37.25.667,vbt_B2_day1,2022.2.4,Win32,143.9263097,,,,,,,,,,,,,,,,,,,,,,,,,,,,,,,,,,,,,,,,,,,0.412037037,0.231481481,1,0,0,knoe,knoe,0,8,8,22,1,knoe,images/br_knoe.png,images/cb_knoe.png
,,,,,,00066,2023-10-13_17h37.25.667,vbt_B2_day1,2022.2.4,Win32,143.9263097,,,,,,,,,,,,,,,,,,,,,,,,,,,,,,,,,,,,,,,,,,,-0.013888889,-0.186111097,1,0,0,aar,aar,0,9,9,2,1,jaar,images/br_jaar.png,images/cb_jaar.png
,,,,,,00066,2023-10-13_17h37.25.667,vbt_B2_day1,2022.2.4,Win32,143.9263097,,,,,,,,,,,,,,,,,,,,,,,,,,,,,,,,,,,,,,,,,,,0.287037037,-0.017592607,1,0,0,schu...,schu...,0,10,10,19,1,schuilen,images/br_schuilen.png,images/cb_schuilen.png
,,,,,,00066,2023-10-13_17h37.25.667,vbt_B2_day1,2022.2.4,Win32,143.9263097,,,,,,,,,,,,,,,,,,,,,,,,,,,,,,,,,,,,,,,,,,,0.287962949,-0.017592607,1,0,0,fic...,fic...,0,11,11,48,1,fictie,images/br_fictie.png,images/cb_fictie.png
,,,,,,00066,2023-10-13_17h37.25.667,vbt_B2_day1,2022.2.4,Win32,143.9263097,,,,,,,,,,,,,,,,,,,,,,,,,,,,,,,,,,,,,,,,,,,0.287037037,-0.01666666,1,0,0,daarh...,daarh...,0,12,12,16,1,daarheen,images/br_daarheen.png,images/cb_daarheen.png
,,,,,,00066,2023-10-13_17h37.25.667,vbt_B2_day1,2022.2.4,Win32,143.9263097,,,,,,,,,,,,,,,,,,,,,,,,,,,,,,,,,,,,,,,,,,,0.287037037,-0.01666666,1,0,0,jl...,jl...,0,13,13,33,1,flullen,images/br_flullen.png,images/cb_flullen.png
,,,,,,00066,2023-10-13_17h37.25.667,vbt_B2_day1,2022.2.4,Win32,143.9263097,,,,,,,,,,,,,,,,,,,,,,,,,,,,,,,,,,,,,,,,,,,0.297222279,-0.00462963,1,0,0,op.att...,op.att...,0,14,14,59,1,opvatten,images/br_opvatten.png,images/cb_opvatten.png
,,,,,,00066,2023-10-13_17h37.25.667,vbt_B2_day1,2022.2.4,Win32,143.9263097,,,,,,,,,,,,,,,,,,,,,,,,,,,,,,,,,,,,,,,,,,,0.291666667,0.005555541,1,0,0,bebr.a.t,bebr.a.t,0,15,15,28,1,bebrip,images/br_bebrip.png,images/cb_bebrip.png
,,,,,,00066,2023-10-13_17h37.25.667,vbt_B2_day1,2022.2.4,Win32,143.9263097,,,,,,,,,,,,,,,,,,,,,,,,,,,,,,,,,,,,,,,,,,,0.289814843,0.006481489,1,0,0,rezit,rezit,0,16,16,24,1,rezer,images/br_rezer.png,images/cb_rezer.png
,,,,,,00066,2023-10-13_17h37.25.667,vbt_B2_day1,2022.2.4,Win32,143.9263097,,,,,,,,,,,,,,,,,,,,,,,,,,,,,,,,,,,,,,,,,,,0.006481524,-0.194444444,1,0,0,liejdi,liejdi,0,17,17,51,1,liefde,images/br_liefde.png,images/cb_liefde.png
,,,,,,00066,2023-10-13_17h37.25.667,vbt_B2_day1,2022.2.4,Win32,143.9263097,,,,,,,,,,,,,,,,,,,,,,,,,,,,,,,,,,,,,,,,,,,0.016666695,-0.085185192,1,0,0,ei...,ei...,0,18,18,15,1,hiervan,images/br_hiervan.png,images/cb_hiervan.png
,,,,,,00066,2023-10-13_17h37.25.667,vbt_B2_day1,2022.2.4,Win32,143.9263097,,,,,,,,,,,,,,,,,,,,,,,,,,,,,,,,,,,,,,,,,,,-0.029629601,-0.193518533,1,0,0,oork,oork,0,19,19,58,1,voorkeur,images/br_voorkeur.png,images/cb_voorkeur.png
,,,,,,00066,2023-10-13_17h37.25.667,vbt_B2_day1,2022.2.4,Win32,143.9263097,,,,,,,,,,,,,,,,,,,,,,,,,,,,,,,,,,,,,,,,,,,0.137037065,-0.09629631,1,0,0,dier,dier,0,20,20,40,1,dief,images/br_dief.png,images/cb_dief.png
,,,,,,00066,2023-10-13_17h37.25.667,vbt_B2_day1,2022.2.4,Win32,143.9263097,,,,,,,,,,,,,,,,,,,,,,,,,,,,,,,,,,,,,,,,,,,0.213888875,0.029629637,1,0,0,galop,galop,0,21,21,26,1,valop,images/br_valop.png,images/cb_valop.png
,,,,,,00066,2023-10-13_17h37.25.667,vbt_B2_day1,2022.2.4,Win32,143.9263097,,,,,,,,,,,,,,,,,,,,,,,,,,,,,,,,,,,,,,,,,,,0.087962963,-0.009259259,1,0,0,.oorr...,.oorr...,0,22,22,39,1,voorreur,images/br_voorreur.png,images/cb_voorreur.png
,,,,,,00066,2023-10-13_17h37.25.667,vbt_B2_day1,2022.2.4,Win32,143.9263097,,,,,,,,,,,,,,,,,,,,,,,,,,,,,,,,,,,,,,,,,,,-0.002777735,0.03148146,1,0,0,.ijz...,.ijz...,0,23,23,44,1,wijze,images/br_wijze.png,images/cb_wijze.png
,,,,,,00066,2023-10-13_17h37.25.667,vbt_B2_day1,2022.2.4,Win32,143.9263097,,,,,,,,,,,,,,,,,,,,,,,,,,,,,,,,,,,,,,,,,,,0.106481481,-0.022222236,1,0,0,.izie.,.izie.,0,24,24,49,1,vizier,images/br_vizier.png,images/cb_vizier.png
,,,,,,00066,2023-10-13_17h37.25.667,vbt_B2_day1,2022.2.4,Win32,143.9263097,,,,,,,,,,,,,,,,,,,,,,,,,,,,,,,,,,,,,,,,,,,-0.030555513,-0.014814836,1,0,0,dred,dred,0,25,25,21,1,dred,images/br_dred.png,images/cb_dred.png
,,,,,,00066,2023-10-13_17h37.25.667,vbt_B2_day1,2022.2.4,Win32,143.9263097,,,,,,,,,,,,,,,,,,,,,,,,,,,,,,,,,,,,,,,,,,,0.021296325,0.061111097,1,0,0,.aar.a.,.aar.a.,0,26,26,14,1,waarvan,images/br_waarvan.png,images/cb_waarvan.png
,,,,,,00066,2023-10-13_17h37.25.667,vbt_B2_day1,2022.2.4,Win32,143.9263097,,,,,,,,,,,,,,,,,,,,,,,,,,,,,,,,,,,,,,,,,,,0.050925926,0.107407393,1,0,0,dnbbe.,dnbbe.,0,27,27,9,1,dubbel,images/br_dubbel.png,images/cb_dubbel.png
,,,,,,00066,2023-10-13_17h37.25.667,vbt_B2_day1,2022.2.4,Win32,143.9263097,,,,,,,,,,,,,,,,,,,,,,,,,,,,,,,,,,,,,,,,,,,0.083333333,0.098148134,1,0,0,brij,brij,0,28,28,25,1,brijk,images/br_brijk.png,images/cb_brijk.png
,,,,,,00066,2023-10-13_17h37.25.667,vbt_B2_day1,2022.2.4,Win32,143.9263097,,,,,,,,,,,,,,,,,,,,,,,,,,,,,,,,,,,,,,,,,,,-0.118518476,-0.022222236,1,0,0,stneki..,stneki..,0,29,29,35,1,stuikem,images/br_stuikem.png,images/cb_stuikem.png
,,,,,,00066,2023-10-13_17h37.25.667,vbt_B2_day1,2022.2.4,Win32,143.9263097,,,,,,,,,,,,,,,,,,,,,,,,,,,,,,,,,,,,,,,,,,,-0.044444402,0.099074081,1,0,0,klant,klant,0,30,30,7,1,klauw,images/br_klauw.png,images/cb_klauw.png
,,,,,,00066,2023-10-13_17h37.25.667,vbt_B2_day1,2022.2.4,Win32,143.9263097,,,,,,,,,,,,,,,,,,,,,,,,,,,,,,,,,,,,,,,,,,,-0.111111111,0.091666645,1,0,0,.nzie..,.nzie..,0,31,31,10,1,muziek,images/br_muziek.png,images/cb_muziek.png
,,,,,,00066,2023-10-13_17h37.25.667,vbt_B2_day1,2022.2.4,Win32,143.9263097,,,,,,,,,,,,,,,,,,,,,,,,,,,,,,,,,,,,,,,,,,,-0.111111111,0.098148134,1,0,0,nietd...,nietd...,0,32,32,18,1,uitdelen,images/br_uitdelen.png,images/cb_uitdelen.png
,,,,,,00066,2023-10-13_17h37.25.667,vbt_B2_day1,2022.2.4,Win32,143.9263097,,,,,,,,,,,,,,,,,,,,,,,,,,,,,,,,,,,,,,,,,,,-0.10555557,0.125925912,1,0,0,spanz...,spanz...,0,33,33,37,1,spanzing,images/br_spanzing.png,images/cb_spanzing.png
,,,,,,00066,2023-10-13_17h37.25.667,vbt_B2_day1,2022.2.4,Win32,143.9263097,,,,,,,,,,,,,,,,,,,,,,,,,,,,,,,,,,,,,,,,,,,0.150925954,0.130555541,1,0,0,lezen,lezen,0,34,34,46,1,lezen,images/br_lezen.png,images/cb_lezen.png
,,,,,,00066,2023-10-13_17h37.25.667,vbt_B2_day1,2022.2.4,Win32,143.9263097,,,,,,,,,,,,,,,,,,,,,,,,,,,,,,,,,,,,,,,,,,,0.132407436,0.106481481,1,0,0,stnk,stnk,0,35,35,42,1,stuk,images/br_stuk.png,images/cb_stuk.png
,,,,,,00066,2023-10-13_17h37.25.667,vbt_B2_day1,2022.2.4,Win32,143.9263097,,,,,,,,,,,,,,,,,,,,,,,,,,,,,,,,,,,,,,,,,,,0.130555541,0.109259252,1,0,0,.e.i.j...,.e.i.j...,0,36,36,11,1,mening,images/br_mening.png,images/cb_mening.png
,,,,,,00066,2023-10-13_17h37.25.667,vbt_B2_day1,2022.2.4,Win32,143.9263097,,,,,,,,,,,,,,,,,,,,,,,,,,,,,,,,,,,,,,,,,,,0.135185171,0.11296297,1,0,0,loch...,loch...,0,37,37,34,1,lochten,images/br_lochten.png,images/cb_lochten.png
,,,,,,00066,2023-10-13_17h37.25.667,vbt_B2_day1,2022.2.4,Win32,143.9263097,,,,,,,,,,,,,,,,,,,,,,,,,,,,,,,,,,,,,,,,,,,0.077777792,0.151851831,1,0,0,toezien,toezien,0,38,38,56,1,toezicht,images/br_toezicht.png,images/cb_toezicht.png
,,,,,,00066,2023-10-13_17h37.25.667,vbt_B2_day1,2022.2.4,Win32,143.9263097,,,,,,,,,,,,,,,,,,,,,,,,,,,,,,,,,,,,,,,,,,,0.113888917,0.056481467,1,0,0,mand,mand,0,39,39,3,1,mand,images/br_mand.png,images/cb_mand.png
,,,,,,00066,2023-10-13_17h37.25.667,vbt_B2_day1,2022.2.4,Win32,143.9263097,,,,,,,,,,,,,,,,,,,,,,,,,,,,,,,,,,,,,,,,,,,-0.139814801,0.070370356,1,0,0,zaal,zaal,0,40,40,1,1,zaal,images/br_zaal.png,images/cb_zaal.png
,,,,,,00066,2023-10-13_17h37.25.667,vbt_B2_day1,2022.2.4,Win32,143.9263097,,,,,,,,,,,,,,,,,,,,,,,,,,,,,,,,,,,,,,,,,,,-0.082407422,0.081481474,1,0,0,hezil,hezil,0,41,41,45,1,hemel,images/br_hemel.png,images/cb_hemel.png
,,,,,,00066,2023-10-13_17h37.25.667,vbt_B2_day1,2022.2.4,Win32,143.9263097,,,,,,,,,,,,,,,,,,,,,,,,,,,,,,,,,,,,,,,,,,,-0.045370384,0.080555563,1,0,0,opslaan,opslaan,0,42,42,53,1,opslaan,images/br_opslaan.png,images/cb_opslaan.png
,,,,,,00066,2023-10-13_17h37.25.667,vbt_B2_day1,2022.2.4,Win32,143.9263097,,,,,,,,,,,,,,,,,,,,,,,,,,,,,,,,,,,,,,,,,,,-0.112037023,0.048148155,1,0,0,t.i.,t.i.,0,43,43,13,1,twijfel,images/br_twijfel.png,images/cb_twijfel.png
,,,,,,00066,2023-10-13_17h37.25.667,vbt_B2_day1,2022.2.4,Win32,143.9263097,,,,,,,,,,,,,,,,,,,,,,,,,,,,,,,,,,,,,,,,,,,-0.107407393,0.052777785,1,0,0,loods,loods,0,44,44,47,1,loods,images/br_loods.png,images/cb_loods.png
,,,,,,00066,2023-10-13_17h37.25.667,vbt_B2_day1,2022.2.4,Win32,143.9263097,,,,,,,,,,,,,,,,,,,,,,,,,,,,,,,,,,,,,,,,,,,-0.085185157,0.055555556,1,0,0,hoog,hoog,0,45,45,41,1,hoog,images/br_hoog.png,images/cb_hoog.png
,,,,,,00066,2023-10-13_17h37.25.667,vbt_B2_day1,2022.2.4,Win32,143.9263097,,,,,,,,,,,,,,,,,,,,,,,,,,,,,,,,,,,,,,,,,,,-0.085185157,0.055555556,1,0,0,stant.,stant.,0,46,46,31,1,stamen,images/br_stamen.png,images/cb_stamen.png
,,,,,,00066,2023-10-13_17h37.25.667,vbt_B2_day1,2022.2.4,Win32,143.9263097,,,,,,,,,,,,,,,,,,,,,,,,,,,,,,,,,,,,,,,,,,,-0.021296254,0.042592578,1,0,0,opplaan,opplaan,0,47,47,32,1,opplaan,images/br_opplaan.png,images/cb_opplaan.png
,,,,,,00066,2023-10-13_17h37.25.667,vbt_B2_day1,2022.2.4,Win32,143.9263097,,,,,,,,,,,,,,,,,,,,,,,,,,,,,,,,,,,,,,,,,,,0.054629644,0.162962949,1,0,0,naken,naken,0,48,48,5,1,maken,images/br_maken.png,images/cb_maken.png
,,,,,,00066,2023-10-13_17h37.25.667,vbt_B2_day1,2022.2.4,Win32,143.9263097,,,,,,,,,,,,,,,,,,,,,,,,,,,,,,,,,,,,,,,,,,,0.054629644,0.162962949,1,0,0,reedj.,reedj.,0,49,49,30,1,reedje,images/br_reedje.png,images/cb_reedje.png
,,,,,,00066,2023-10-13_17h37.25.667,vbt_B2_day1,2022.2.4,Win32,143.9263097,,,,,,,,,,,,,,,,,,,,,,,,,,,,,,,,,,,,,,,,,,,-0.142592607,0.074999986,1,0,0,z....,z....,0,50,50,52,1,zuiplap,images/br_zuiplap.png,images/cb_zuiplap.png
,,,,,,00066,2023-10-13_17h37.25.667,vbt_B2_day1,2022.2.4,Win32,143.9263097,,,,,,,,,,,,,,,,,,,,,,,,,,,,,,,,,,,,,,,,,,,0.114814829,0.126851859,1,0,0,bleek,bleek,0,51,51,6,1,bleek,images/br_bleek.png,images/cb_bleek.png
,,,,,,00066,2023-10-13_17h37.25.667,vbt_B2_day1,2022.2.4,Win32,143.9263097,,,,,,,,,,,,,,,,,,,,,,,,,,,,,,,,,,,,,,,,,,,0.113888917,0.126851859,1,0,0,slak,slak,0,52,52,0,1,slak,images/br_slak.png,images/cb_slak.png
,,,,,,00066,2023-10-13_17h37.25.667,vbt_B2_day1,2022.2.4,Win32,143.9263097,,,,,,,,,,,,,,,,,,,,,,,,,,,,,,,,,,,,,,,,,,,0.113888917,0.126851859,1,0,0,tekenen,tekenen,0,53,53,55,1,tekenen,images/br_tekenen.png,images/cb_tekenen.png
,,,,,,00066,2023-10-13_17h37.25.667,vbt_B2_day1,2022.2.4,Win32,143.9263097,,,,,,,,,,,,,,,,,,,,,,,,,,,,,,,,,,,,,,,,,,,0.112963005,0.126851859,1,0,0,vl...,vl...,0,54,54,36,1,vervaden,images/br_vervaden.png,images/cb_vervaden.png
,,,,,,00066,2023-10-13_17h37.25.667,vbt_B2_day1,2022.2.4,Win32,143.9263097,,,,,,,,,,,,,,,,,,,,,,,,,,,,,,,,,,,,,,,,,,,0.112963005,0.126851859,1,0,0,vijf...,vijf...,0,55,55,54,1,vijftig,images/br_vijftig.png,images/cb_vijftig.png
,,,,,,00066,2023-10-13_17h37.25.667,vbt_B2_day1,2022.2.4,Win32,143.9263097,,,,,,,,,,,,,,,,,,,,,,,,,,,,,,,,,,,,,,,,,,,0.113888917,0.130555541,1,0,0,.ee...,.ee...,0,56,56,57,1,meenemen,images/br_meenemen.png,images/cb_meenemen.png
,,,,,,00066,2023-10-13_17h37.25.667,vbt_B2_day1,2022.2.4,Win32,143.9263097,,,,,,,,,,,,,,,,,,,,,,,,,,,,,,,,,,,,,,,,,,,0.113888917,0.130555541,1,0,0,propt,propt,0,57,57,27,1,prort,images/br_prort.png,images/cb_prort.png
,,,,,,00066,2023-10-13_17h37.25.667,vbt_B2_day1,2022.2.4,Win32,143.9263097,,,,,,,,,,,,,,,,,,,,,,,,,,,,,,,,,,,,,,,,,,,0.113888917,0.126851859,1,0,0,attentie,attentie,0,58,58,17,1,attentie,images/br_attentie.png,images/cb_attentie.png
,,,,,,00066,2023-10-13_17h37.25.667,vbt_B2_day1,2022.2.4,Win32,143.9263097,,,,,,,,,,,,,,,,,,,,,,,,,,,,,,,,,,,,,,,,,,,0.113888917,0.126851859,1,0,0,booi,booi,0,59,59,23,1,booi,images/br_booi.png,images/cb_booi.png
,,,,,,00066,2023-10-13_17h37.25.667,vbt_B2_day1,2022.2.4,Win32,143.9263097,,,,,,,,,,,,,,,,,,,,,,,,,,,,,,,,,,,,,,,,,,,,,,,,,,,,,,,,,
