welcome_mouse.x,welcome_mouse.y,welcome_mouse.leftButton,welcome_mouse.midButton,welcome_mouse.rightButton,welcome_mouse.time,"ID",date,expName,psychopyVersion,OS,frameRate,mouse_2.x,mouse_2.y,mouse_2.leftButton,mouse_2.midButton,mouse_2.rightButton,mouse_2.time,mouse_3.x,mouse_3.y,mouse_3.leftButton,mouse_3.midButton,mouse_3.rightButton,mouse_3.time,train_mouse.x,train_mouse.y,train_mouse.leftButton,train_mouse.midButton,train_mouse.rightButton,train_mouse.time,braille_mouse.x,braille_mouse.y,braille_mouse.leftButton,braille_mouse.midButton,braille_mouse.rightButton,braille_mouse.time,trials.thisRepN,trials.thisTrialN,trials.thisN,trials.thisIndex,trials.ran,nlLet,brLet,cbLet,mouse.x,mouse.y,mouse.leftButton,mouse.midButton,mouse.rightButton,testInstr_mouse.x,testInstr_mouse.y,testInstr_mouse.leftButton,testInstr_mouse.midButton,testInstr_mouse.rightButton,test_mouse.x,test_mouse.y,test_mouse.leftButton,test_mouse.midButton,test_mouse.rightButton,test_response.text,testResp,test_loop.thisRepN,test_loop.thisTrialN,test_loop.thisN,test_loop.thisIndex,test_loop.ran,nlWrd,brWrd,cbWrd
0.552439024,-0.059756098,1,0,0,24.712,00056,2023-10-12_20h58.59.623,vbt_B2_day1,2022.2.4,MacIntel,47.61904762,,,,,,,,,,,,,,,,,,,,,,,,,,,,,,,,,,,,,,,,,,,,,,,,,,,,,,,,,
,,,,,,00056,2023-10-12_20h58.59.623,vbt_B2_day1,2022.2.4,MacIntel,47.61904762,0.545121951,-0.080487805,1,0,0,8.119,,,,,,,,,,,,,,,,,,,,,,,,,,,,,,,,,,,,,,,,,,,,,,,,,,,
,,,,,,00056,2023-10-12_20h58.59.623,vbt_B2_day1,2022.2.4,MacIntel,47.61904762,,,,,,,0.545121951,-0.080487805,1,0,0,9.584,,,,,,,,,,,,,,,,,,,,,,,,,,,,,,,,,,,,,,,,,,,,,
,,,,,,00056,2023-10-12_20h58.59.623,vbt_B2_day1,2022.2.4,MacIntel,47.61904762,,,,,,,,,,,,,0.568292683,0.057317073,1,0,0,64.084,,,,,,,,,,,,,,,,,,,,,,,,,,,,,,,,,,,,,,,
,,,,,,00056,2023-10-12_20h58.59.623,vbt_B2_day1,2022.2.4,MacIntel,47.61904762,,,,,,,,,,,,,,,,,,,0.43902439,0.037804878,1,0,0,8.421,0,0,0,22,1,w,images/br_w.png,images/cb_w.png,,,,,,,,,,,,,,,,,,,,,,,,,
,,,,,,00056,2023-10-12_20h58.59.623,vbt_B2_day1,2022.2.4,MacIntel,47.61904762,,,,,,,,,,,,,,,,,,,0.43902439,0.037804878,1,0,0,3.823,0,1,1,4,1,e,images/br_e.png,images/cb_e.png,,,,,,,,,,,,,,,,,,,,,,,,,
,,,,,,00056,2023-10-12_20h58.59.623,vbt_B2_day1,2022.2.4,MacIntel,47.61904762,,,,,,,,,,,,,,,,,,,0.43902439,0.037804878,1,0,0,7.725,0,2,2,25,1,z,images/br_z.png,images/cb_z.png,,,,,,,,,,,,,,,,,,,,,,,,,
,,,,,,00056,2023-10-12_20h58.59.623,vbt_B2_day1,2022.2.4,MacIntel,47.61904762,,,,,,,,,,,,,,,,,,,0.43902439,0.037804878,1,0,0,4.206,0,3,3,5,1,f,images/br_f.png,images/cb_f.png,,,,,,,,,,,,,,,,,,,,,,,,,
,,,,,,00056,2023-10-12_20h58.59.623,vbt_B2_day1,2022.2.4,MacIntel,47.61904762,,,,,,,,,,,,,,,,,,,0.43902439,0.037804878,1,0,0,6.424,0,4,4,16,1,q,images/br_q.png,images/cb_q.png,,,,,,,,,,,,,,,,,,,,,,,,,
,,,,,,00056,2023-10-12_20h58.59.623,vbt_B2_day1,2022.2.4,MacIntel,47.61904762,,,,,,,,,,,,,,,,,,,0.43902439,0.037804878,1,0,0,10.959,0,5,5,20,1,u,images/br_u.png,images/cb_u.png,,,,,,,,,,,,,,,,,,,,,,,,,
,,,,,,00056,2023-10-12_20h58.59.623,vbt_B2_day1,2022.2.4,MacIntel,47.61904762,,,,,,,,,,,,,,,,,,,0.43902439,0.037804878,1,0,0,7.724,0,6,6,7,1,h,images/br_h.png,images/cb_h.png,,,,,,,,,,,,,,,,,,,,,,,,,
,,,,,,00056,2023-10-12_20h58.59.623,vbt_B2_day1,2022.2.4,MacIntel,47.61904762,,,,,,,,,,,,,,,,,,,0.43902439,0.037804878,1,0,0,7.459,0,7,7,18,1,s,images/br_s.png,images/cb_s.png,,,,,,,,,,,,,,,,,,,,,,,,,
,,,,,,00056,2023-10-12_20h58.59.623,vbt_B2_day1,2022.2.4,MacIntel,47.61904762,,,,,,,,,,,,,,,,,,,0.43902439,0.034146341,1,0,0,3.372,0,8,8,12,1,m,images/br_m.png,images/cb_m.png,,,,,,,,,,,,,,,,,,,,,,,,,
,,,,,,00056,2023-10-12_20h58.59.623,vbt_B2_day1,2022.2.4,MacIntel,47.61904762,,,,,,,,,,,,,,,,,,,0.43902439,0.034146341,1,0,0,6.249,0,9,9,9,1,j,images/br_j.png,images/cb_j.png,,,,,,,,,,,,,,,,,,,,,,,,,
,,,,,,00056,2023-10-12_20h58.59.623,vbt_B2_day1,2022.2.4,MacIntel,47.61904762,,,,,,,,,,,,,,,,,,,0.43902439,0.034146341,1,0,0,5.574,0,10,10,13,1,n,images/br_n.png,images/cb_n.png,,,,,,,,,,,,,,,,,,,,,,,,,
,,,,,,00056,2023-10-12_20h58.59.623,vbt_B2_day1,2022.2.4,MacIntel,47.61904762,,,,,,,,,,,,,,,,,,,0.43902439,0.034146341,1,0,0,2.726,0,11,11,14,1,o,images/br_o.png,images/cb_o.png,,,,,,,,,,,,,,,,,,,,,,,,,
,,,,,,00056,2023-10-12_20h58.59.623,vbt_B2_day1,2022.2.4,MacIntel,47.61904762,,,,,,,,,,,,,,,,,,,0.43902439,0.034146341,1,0,0,4.521,0,12,12,23,1,x,images/br_x.png,images/cb_x.png,,,,,,,,,,,,,,,,,,,,,,,,,
,,,,,,00056,2023-10-12_20h58.59.623,vbt_B2_day1,2022.2.4,MacIntel,47.61904762,,,,,,,,,,,,,,,,,,,0.559756098,-0.002439024,1,0,0,3.424,0,13,13,15,1,p,images/br_p.png,images/cb_p.png,,,,,,,,,,,,,,,,,,,,,,,,,
,,,,,,00056,2023-10-12_20h58.59.623,vbt_B2_day1,2022.2.4,MacIntel,47.61904762,,,,,,,,,,,,,,,,,,,0.559756098,-0.002439024,1,0,0,3.173,0,14,14,2,1,c,images/br_c.png,images/cb_c.png,,,,,,,,,,,,,,,,,,,,,,,,,
,,,,,,00056,2023-10-12_20h58.59.623,vbt_B2_day1,2022.2.4,MacIntel,47.61904762,,,,,,,,,,,,,,,,,,,0.559756098,-0.002439024,1,0,0,4.906,0,15,15,10,1,k,images/br_k.png,images/cb_k.png,,,,,,,,,,,,,,,,,,,,,,,,,
,,,,,,00056,2023-10-12_20h58.59.623,vbt_B2_day1,2022.2.4,MacIntel,47.61904762,,,,,,,,,,,,,,,,,,,0.559756098,-0.002439024,1,0,0,5.477,0,16,16,6,1,g,images/br_g.png,images/cb_g.png,,,,,,,,,,,,,,,,,,,,,,,,,
,,,,,,00056,2023-10-12_20h58.59.623,vbt_B2_day1,2022.2.4,MacIntel,47.61904762,,,,,,,,,,,,,,,,,,,0.559756098,-0.002439024,1,0,0,5.839,0,17,17,0,1,a,images/br_a.png,images/cb_a.png,,,,,,,,,,,,,,,,,,,,,,,,,
,,,,,,00056,2023-10-12_20h58.59.623,vbt_B2_day1,2022.2.4,MacIntel,47.61904762,,,,,,,,,,,,,,,,,,,0.558536585,-0.001219512,1,0,0,3.056,0,18,18,17,1,r,images/br_r.png,images/cb_r.png,,,,,,,,,,,,,,,,,,,,,,,,,
,,,,,,00056,2023-10-12_20h58.59.623,vbt_B2_day1,2022.2.4,MacIntel,47.61904762,,,,,,,,,,,,,,,,,,,0.557317073,0,1,0,0,7.133,0,19,19,11,1,l,images/br_l.png,images/cb_l.png,,,,,,,,,,,,,,,,,,,,,,,,,
,,,,,,00056,2023-10-12_20h58.59.623,vbt_B2_day1,2022.2.4,MacIntel,47.61904762,,,,,,,,,,,,,,,,,,,0.557317073,0,1,0,0,5.957,0,20,20,3,1,d,images/br_d.png,images/cb_d.png,,,,,,,,,,,,,,,,,,,,,,,,,
,,,,,,00056,2023-10-12_20h58.59.623,vbt_B2_day1,2022.2.4,MacIntel,47.61904762,,,,,,,,,,,,,,,,,,,0.557317073,0,1,0,0,5.873,0,21,21,8,1,i,images/br_i.png,images/cb_i.png,,,,,,,,,,,,,,,,,,,,,,,,,
,,,,,,00056,2023-10-12_20h58.59.623,vbt_B2_day1,2022.2.4,MacIntel,47.61904762,,,,,,,,,,,,,,,,,,,0.556097561,0,1,0,0,3.875,0,22,22,1,1,b,images/br_b.png,images/cb_b.png,,,,,,,,,,,,,,,,,,,,,,,,,
,,,,,,00056,2023-10-12_20h58.59.623,vbt_B2_day1,2022.2.4,MacIntel,47.61904762,,,,,,,,,,,,,,,,,,,0.554878049,0.002439024,1,0,0,4.121,0,23,23,19,1,t,images/br_t.png,images/cb_t.png,,,,,,,,,,,,,,,,,,,,,,,,,
,,,,,,00056,2023-10-12_20h58.59.623,vbt_B2_day1,2022.2.4,MacIntel,47.61904762,,,,,,,,,,,,,,,,,,,0.554878049,0.002439024,1,0,0,3.339,0,24,24,21,1,v,images/br_v.png,images/cb_v.png,,,,,,,,,,,,,,,,,,,,,,,,,
,,,,,,00056,2023-10-12_20h58.59.623,vbt_B2_day1,2022.2.4,MacIntel,47.61904762,,,,,,,,,,,,,,,,,,,0.554878049,0,1,0,0,7.488,0,25,25,24,1,y,images/br_y.png,images/cb_y.png,,,,,,,,,,,,,,,,,,,,,,,,,
,,,,,,00056,2023-10-12_20h58.59.623,vbt_B2_day1,2022.2.4,MacIntel,47.61904762,,,,,,,,,,,,,,,,,,,0.463414634,-0.024390244,1,0,0,103.681,1,0,26,15,1,p,images/br_p.png,images/cb_p.png,,,,,,,,,,,,,,,,,,,,,,,,,
,,,,,,00056,2023-10-12_20h58.59.623,vbt_B2_day1,2022.2.4,MacIntel,47.61904762,,,,,,,,,,,,,,,,,,,0.462195122,-0.026829268,1,0,0,5.933,1,1,27,17,1,r,images/br_r.png,images/cb_r.png,,,,,,,,,,,,,,,,,,,,,,,,,
,,,,,,00056,2023-10-12_20h58.59.623,vbt_B2_day1,2022.2.4,MacIntel,47.61904762,,,,,,,,,,,,,,,,,,,0.454878049,-0.023170732,1,0,0,11.874,1,2,28,23,1,x,images/br_x.png,images/cb_x.png,,,,,,,,,,,,,,,,,,,,,,,,,
,,,,,,00056,2023-10-12_20h58.59.623,vbt_B2_day1,2022.2.4,MacIntel,47.61904762,,,,,,,,,,,,,,,,,,,0.454878049,-0.024390244,1,0,0,0.625,1,3,29,6,1,g,images/br_g.png,images/cb_g.png,,,,,,,,,,,,,,,,,,,,,,,,,
,,,,,,00056,2023-10-12_20h58.59.623,vbt_B2_day1,2022.2.4,MacIntel,47.61904762,,,,,,,,,,,,,,,,,,,0.454878049,-0.023170732,1,0,0,2.225,1,4,30,20,1,u,images/br_u.png,images/cb_u.png,,,,,,,,,,,,,,,,,,,,,,,,,
,,,,,,00056,2023-10-12_20h58.59.623,vbt_B2_day1,2022.2.4,MacIntel,47.61904762,,,,,,,,,,,,,,,,,,,0.454878049,-0.02195122,1,0,0,2.92,1,5,31,21,1,v,images/br_v.png,images/cb_v.png,,,,,,,,,,,,,,,,,,,,,,,,,
,,,,,,00056,2023-10-12_20h58.59.623,vbt_B2_day1,2022.2.4,MacIntel,47.61904762,,,,,,,,,,,,,,,,,,,0.454878049,-0.02195122,1,0,0,0.3,1,6,32,11,1,l,images/br_l.png,images/cb_l.png,,,,,,,,,,,,,,,,,,,,,,,,,
,,,,,,00056,2023-10-12_20h58.59.623,vbt_B2_day1,2022.2.4,MacIntel,47.61904762,,,,,,,,,,,,,,,,,,,0.453658537,-0.020731707,1,0,0,0.592,1,7,33,8,1,i,images/br_i.png,images/cb_i.png,,,,,,,,,,,,,,,,,,,,,,,,,
,,,,,,00056,2023-10-12_20h58.59.623,vbt_B2_day1,2022.2.4,MacIntel,47.61904762,,,,,,,,,,,,,,,,,,,0.453658537,-0.020731707,1,0,0,0.022,1,8,34,4,1,e,images/br_e.png,images/cb_e.png,,,,,,,,,,,,,,,,,,,,,,,,,
,,,,,,00056,2023-10-12_20h58.59.623,vbt_B2_day1,2022.2.4,MacIntel,47.61904762,,,,,,,,,,,,,,,,,,,0.453658537,-0.020731707,1,0,0,4.174,1,9,35,22,1,w,images/br_w.png,images/cb_w.png,,,,,,,,,,,,,,,,,,,,,,,,,
,,,,,,00056,2023-10-12_20h58.59.623,vbt_B2_day1,2022.2.4,MacIntel,47.61904762,,,,,,,,,,,,,,,,,,,0.453658537,-0.020731707,1,0,0,2.125,1,10,36,3,1,d,images/br_d.png,images/cb_d.png,,,,,,,,,,,,,,,,,,,,,,,,,
,,,,,,00056,2023-10-12_20h58.59.623,vbt_B2_day1,2022.2.4,MacIntel,47.61904762,,,,,,,,,,,,,,,,,,,0.453658537,-0.020731707,1,0,0,1.458,1,11,37,13,1,n,images/br_n.png,images/cb_n.png,,,,,,,,,,,,,,,,,,,,,,,,,
,,,,,,00056,2023-10-12_20h58.59.623,vbt_B2_day1,2022.2.4,MacIntel,47.61904762,,,,,,,,,,,,,,,,,,,0.453658537,-0.020731707,1,0,0,2.609,1,12,38,2,1,c,images/br_c.png,images/cb_c.png,,,,,,,,,,,,,,,,,,,,,,,,,
,,,,,,00056,2023-10-12_20h58.59.623,vbt_B2_day1,2022.2.4,MacIntel,47.61904762,,,,,,,,,,,,,,,,,,,0.453658537,-0.02195122,1,0,0,3.134,1,13,39,19,1,t,images/br_t.png,images/cb_t.png,,,,,,,,,,,,,,,,,,,,,,,,,
,,,,,,00056,2023-10-12_20h58.59.623,vbt_B2_day1,2022.2.4,MacIntel,47.61904762,,,,,,,,,,,,,,,,,,,0.453658537,-0.023170732,1,0,0,2.633,1,14,40,10,1,k,images/br_k.png,images/cb_k.png,,,,,,,,,,,,,,,,,,,,,,,,,
,,,,,,00056,2023-10-12_20h58.59.623,vbt_B2_day1,2022.2.4,MacIntel,47.61904762,,,,,,,,,,,,,,,,,,,0.453658537,-0.023170732,1,0,0,0.789,1,15,41,7,1,h,images/br_h.png,images/cb_h.png,,,,,,,,,,,,,,,,,,,,,,,,,
,,,,,,00056,2023-10-12_20h58.59.623,vbt_B2_day1,2022.2.4,MacIntel,47.61904762,,,,,,,,,,,,,,,,,,,0.453658537,-0.023170732,1,0,0,4.023,1,16,42,9,1,j,images/br_j.png,images/cb_j.png,,,,,,,,,,,,,,,,,,,,,,,,,
,,,,,,00056,2023-10-12_20h58.59.623,vbt_B2_day1,2022.2.4,MacIntel,47.61904762,,,,,,,,,,,,,,,,,,,0.453658537,-0.023170732,1,0,0,2.256,1,17,43,18,1,s,images/br_s.png,images/cb_s.png,,,,,,,,,,,,,,,,,,,,,,,,,
,,,,,,00056,2023-10-12_20h58.59.623,vbt_B2_day1,2022.2.4,MacIntel,47.61904762,,,,,,,,,,,,,,,,,,,0.453658537,-0.023170732,1,0,0,4.274,1,18,44,16,1,q,images/br_q.png,images/cb_q.png,,,,,,,,,,,,,,,,,,,,,,,,,
,,,,,,00056,2023-10-12_20h58.59.623,vbt_B2_day1,2022.2.4,MacIntel,47.61904762,,,,,,,,,,,,,,,,,,,0.453658537,-0.023170732,1,0,0,4.474,1,19,45,25,1,z,images/br_z.png,images/cb_z.png,,,,,,,,,,,,,,,,,,,,,,,,,
,,,,,,00056,2023-10-12_20h58.59.623,vbt_B2_day1,2022.2.4,MacIntel,47.61904762,,,,,,,,,,,,,,,,,,,0.452439024,-0.023170732,1,0,0,4.833,1,20,46,5,1,f,images/br_f.png,images/cb_f.png,,,,,,,,,,,,,,,,,,,,,,,,,
,,,,,,00056,2023-10-12_20h58.59.623,vbt_B2_day1,2022.2.4,MacIntel,47.61904762,,,,,,,,,,,,,,,,,,,0.452439024,-0.023170732,1,0,0,7.856,1,21,47,14,1,o,images/br_o.png,images/cb_o.png,,,,,,,,,,,,,,,,,,,,,,,,,
,,,,,,00056,2023-10-12_20h58.59.623,vbt_B2_day1,2022.2.4,MacIntel,47.61904762,,,,,,,,,,,,,,,,,,,0.452439024,-0.025609756,1,0,0,1.985,1,22,48,12,1,m,images/br_m.png,images/cb_m.png,,,,,,,,,,,,,,,,,,,,,,,,,
,,,,,,00056,2023-10-12_20h58.59.623,vbt_B2_day1,2022.2.4,MacIntel,47.61904762,,,,,,,,,,,,,,,,,,,0.452439024,-0.025609756,1,0,0,1.672,1,23,49,24,1,y,images/br_y.png,images/cb_y.png,,,,,,,,,,,,,,,,,,,,,,,,,
,,,,,,00056,2023-10-12_20h58.59.623,vbt_B2_day1,2022.2.4,MacIntel,47.61904762,,,,,,,,,,,,,,,,,,,0.452439024,-0.025609756,1,0,0,1.558,1,24,50,1,1,b,images/br_b.png,images/cb_b.png,,,,,,,,,,,,,,,,,,,,,,,,,
,,,,,,00056,2023-10-12_20h58.59.623,vbt_B2_day1,2022.2.4,MacIntel,47.61904762,,,,,,,,,,,,,,,,,,,0.452439024,-0.026829268,1,0,0,2.376,1,25,51,0,1,a,images/br_a.png,images/cb_a.png,,,,,,,,,,,,,,,,,,,,,,,,,
,,,,,,00056,2023-10-12_20h58.59.623,vbt_B2_day1,2022.2.4,MacIntel,47.61904762,,,,,,,,,,,,,,,,,,,0.452439024,-0.026829268,1,0,0,0.855,2,0,52,23,1,x,images/br_x.png,images/cb_x.png,,,,,,,,,,,,,,,,,,,,,,,,,
,,,,,,00056,2023-10-12_20h58.59.623,vbt_B2_day1,2022.2.4,MacIntel,47.61904762,,,,,,,,,,,,,,,,,,,0.452439024,-0.026829268,1,0,0,10.456,2,1,53,17,1,r,images/br_r.png,images/cb_r.png,,,,,,,,,,,,,,,,,,,,,,,,,
,,,,,,00056,2023-10-12_20h58.59.623,vbt_B2_day1,2022.2.4,MacIntel,47.61904762,,,,,,,,,,,,,,,,,,,0.452439024,-0.026829268,1,0,0,16.488,2,2,54,1,1,b,images/br_b.png,images/cb_b.png,,,,,,,,,,,,,,,,,,,,,,,,,
,,,,,,00056,2023-10-12_20h58.59.623,vbt_B2_day1,2022.2.4,MacIntel,47.61904762,,,,,,,,,,,,,,,,,,,0.451219512,-0.026829268,1,0,0,0.539,2,3,55,0,1,a,images/br_a.png,images/cb_a.png,,,,,,,,,,,,,,,,,,,,,,,,,
,,,,,,00056,2023-10-12_20h58.59.623,vbt_B2_day1,2022.2.4,MacIntel,47.61904762,,,,,,,,,,,,,,,,,,,0.446341463,-0.026829268,1,0,0,5.572,2,4,56,20,1,u,images/br_u.png,images/cb_u.png,,,,,,,,,,,,,,,,,,,,,,,,,
,,,,,,00056,2023-10-12_20h58.59.623,vbt_B2_day1,2022.2.4,MacIntel,47.61904762,,,,,,,,,,,,,,,,,,,0.446341463,-0.026829268,1,0,0,14.325,2,5,57,16,1,q,images/br_q.png,images/cb_q.png,,,,,,,,,,,,,,,,,,,,,,,,,
,,,,,,00056,2023-10-12_20h58.59.623,vbt_B2_day1,2022.2.4,MacIntel,47.61904762,,,,,,,,,,,,,,,,,,,0.446341463,-0.02804878,1,0,0,14.699,2,6,58,5,1,f,images/br_f.png,images/cb_f.png,,,,,,,,,,,,,,,,,,,,,,,,,
,,,,,,00056,2023-10-12_20h58.59.623,vbt_B2_day1,2022.2.4,MacIntel,47.61904762,,,,,,,,,,,,,,,,,,,0.446341463,-0.026829268,1,0,0,1.689,2,7,59,18,1,s,images/br_s.png,images/cb_s.png,,,,,,,,,,,,,,,,,,,,,,,,,
,,,,,,00056,2023-10-12_20h58.59.623,vbt_B2_day1,2022.2.4,MacIntel,47.61904762,,,,,,,,,,,,,,,,,,,0.447560976,-0.026829268,1,0,0,6.173,2,8,60,15,1,p,images/br_p.png,images/cb_p.png,,,,,,,,,,,,,,,,,,,,,,,,,
,,,,,,00056,2023-10-12_20h58.59.623,vbt_B2_day1,2022.2.4,MacIntel,47.61904762,,,,,,,,,,,,,,,,,,,0.447560976,-0.02804878,1,0,0,3.605,2,9,61,13,1,n,images/br_n.png,images/cb_n.png,,,,,,,,,,,,,,,,,,,,,,,,,
,,,,,,00056,2023-10-12_20h58.59.623,vbt_B2_day1,2022.2.4,MacIntel,47.61904762,,,,,,,,,,,,,,,,,,,0.447560976,-0.02804878,1,0,0,12.257,2,10,62,10,1,k,images/br_k.png,images/cb_k.png,,,,,,,,,,,,,,,,,,,,,,,,,
,,,,,,00056,2023-10-12_20h58.59.623,vbt_B2_day1,2022.2.4,MacIntel,47.61904762,,,,,,,,,,,,,,,,,,,0.447560976,-0.02804878,1,0,0,3.055,2,11,63,21,1,v,images/br_v.png,images/cb_v.png,,,,,,,,,,,,,,,,,,,,,,,,,
,,,,,,00056,2023-10-12_20h58.59.623,vbt_B2_day1,2022.2.4,MacIntel,47.61904762,,,,,,,,,,,,,,,,,,,0.447560976,-0.030487805,1,0,0,1.107,2,12,64,11,1,l,images/br_l.png,images/cb_l.png,,,,,,,,,,,,,,,,,,,,,,,,,
,,,,,,00056,2023-10-12_20h58.59.623,vbt_B2_day1,2022.2.4,MacIntel,47.61904762,,,,,,,,,,,,,,,,,,,0.446341463,-0.029268293,1,0,0,0.317,2,13,65,24,1,y,images/br_y.png,images/cb_y.png,,,,,,,,,,,,,,,,,,,,,,,,,
,,,,,,00056,2023-10-12_20h58.59.623,vbt_B2_day1,2022.2.4,MacIntel,47.61904762,,,,,,,,,,,,,,,,,,,0.409756098,-0.141463415,1,0,0,1.216,2,14,66,14,1,o,images/br_o.png,images/cb_o.png,,,,,,,,,,,,,,,,,,,,,,,,,
,,,,,,00056,2023-10-12_20h58.59.623,vbt_B2_day1,2022.2.4,MacIntel,47.61904762,,,,,,,,,,,,,,,,,,,0.456097561,-0.112195122,1,0,0,1.634,2,15,67,6,1,g,images/br_g.png,images/cb_g.png,,,,,,,,,,,,,,,,,,,,,,,,,
,,,,,,00056,2023-10-12_20h58.59.623,vbt_B2_day1,2022.2.4,MacIntel,47.61904762,,,,,,,,,,,,,,,,,,,0.454878049,-0.11097561,1,0,0,19.422,2,16,68,19,1,t,images/br_t.png,images/cb_t.png,,,,,,,,,,,,,,,,,,,,,,,,,
,,,,,,00056,2023-10-12_20h58.59.623,vbt_B2_day1,2022.2.4,MacIntel,47.61904762,,,,,,,,,,,,,,,,,,,0.623170732,-0.259756098,1,0,0,15.037,2,17,69,9,1,j,images/br_j.png,images/cb_j.png,,,,,,,,,,,,,,,,,,,,,,,,,
,,,,,,00056,2023-10-12_20h58.59.623,vbt_B2_day1,2022.2.4,MacIntel,47.61904762,,,,,,,,,,,,,,,,,,,0.623170732,-0.259756098,1,0,0,26.588,2,18,70,7,1,h,images/br_h.png,images/cb_h.png,,,,,,,,,,,,,,,,,,,,,,,,,
,,,,,,00056,2023-10-12_20h58.59.623,vbt_B2_day1,2022.2.4,MacIntel,47.61904762,,,,,,,,,,,,,,,,,,,0.591463415,-0.22804878,1,0,0,21.638,2,19,71,2,1,c,images/br_c.png,images/cb_c.png,,,,,,,,,,,,,,,,,,,,,,,,,
,,,,,,00056,2023-10-12_20h58.59.623,vbt_B2_day1,2022.2.4,MacIntel,47.61904762,,,,,,,,,,,,,,,,,,,0.591463415,-0.22804878,1,0,0,10.057,2,20,72,12,1,m,images/br_m.png,images/cb_m.png,,,,,,,,,,,,,,,,,,,,,,,,,
,,,,,,00056,2023-10-12_20h58.59.623,vbt_B2_day1,2022.2.4,MacIntel,47.61904762,,,,,,,,,,,,,,,,,,,0.591463415,-0.22804878,1,0,0,3.527,2,21,73,3,1,d,images/br_d.png,images/cb_d.png,,,,,,,,,,,,,,,,,,,,,,,,,
,,,,,,00056,2023-10-12_20h58.59.623,vbt_B2_day1,2022.2.4,MacIntel,47.61904762,,,,,,,,,,,,,,,,,,,0.591463415,-0.226829268,1,0,0,6.34,2,22,74,4,1,e,images/br_e.png,images/cb_e.png,,,,,,,,,,,,,,,,,,,,,,,,,
,,,,,,00056,2023-10-12_20h58.59.623,vbt_B2_day1,2022.2.4,MacIntel,47.61904762,,,,,,,,,,,,,,,,,,,0.591463415,-0.225609756,1,0,0,8.938,2,23,75,25,1,z,images/br_z.png,images/cb_z.png,,,,,,,,,,,,,,,,,,,,,,,,,
,,,,,,00056,2023-10-12_20h58.59.623,vbt_B2_day1,2022.2.4,MacIntel,47.61904762,,,,,,,,,,,,,,,,,,,0.591463415,-0.225609756,1,0,0,0.01,2,24,76,8,1,i,images/br_i.png,images/cb_i.png,,,,,,,,,,,,,,,,,,,,,,,,,
,,,,,,00056,2023-10-12_20h58.59.623,vbt_B2_day1,2022.2.4,MacIntel,47.61904762,,,,,,,,,,,,,,,,,,,0.591463415,-0.225609756,1,0,0,12.192,2,25,77,22,1,w,images/br_w.png,images/cb_w.png,,,,,,,,,,,,,,,,,,,,,,,,,
,,,,,,00056,2023-10-12_20h58.59.623,vbt_B2_day1,2022.2.4,MacIntel,47.61904762,,,,,,,,,,,,,,,,,,,0.591463415,-0.225609756,1,0,0,0.389,3,0,78,4,1,e,images/br_e.png,images/cb_e.png,,,,,,,,,,,,,,,,,,,,,,,,,
,,,,,,00056,2023-10-12_20h58.59.623,vbt_B2_day1,2022.2.4,MacIntel,47.61904762,,,,,,,,,,,,,,,,,,,0.591463415,-0.225609756,1,0,0,7.141,3,1,79,24,1,y,images/br_y.png,images/cb_y.png,,,,,,,,,,,,,,,,,,,,,,,,,
,,,,,,00056,2023-10-12_20h58.59.623,vbt_B2_day1,2022.2.4,MacIntel,47.61904762,,,,,,,,,,,,,,,,,,,0.590243902,-0.224390244,1,0,0,4.342,3,2,80,14,1,o,images/br_o.png,images/cb_o.png,,,,,,,,,,,,,,,,,,,,,,,,,
,,,,,,00056,2023-10-12_20h58.59.623,vbt_B2_day1,2022.2.4,MacIntel,47.61904762,,,,,,,,,,,,,,,,,,,0.526829268,-0.235365854,1,0,0,0.899,3,3,81,2,1,c,images/br_c.png,images/cb_c.png,,,,,,,,,,,,,,,,,,,,,,,,,
,,,,,,00056,2023-10-12_20h58.59.623,vbt_B2_day1,2022.2.4,MacIntel,47.61904762,,,,,,,,,,,,,,,,,,,0.526829268,-0.235365854,1,0,0,0.239,3,4,82,5,1,f,images/br_f.png,images/cb_f.png,,,,,,,,,,,,,,,,,,,,,,,,,
,,,,,,00056,2023-10-12_20h58.59.623,vbt_B2_day1,2022.2.4,MacIntel,47.61904762,,,,,,,,,,,,,,,,,,,0.526829268,-0.235365854,1,0,0,0.316,3,5,83,3,1,d,images/br_d.png,images/cb_d.png,,,,,,,,,,,,,,,,,,,,,,,,,
,,,,,,00056,2023-10-12_20h58.59.623,vbt_B2_day1,2022.2.4,MacIntel,47.61904762,,,,,,,,,,,,,,,,,,,0.526829268,-0.234146341,1,0,0,0.783,3,6,84,0,1,a,images/br_a.png,images/cb_a.png,,,,,,,,,,,,,,,,,,,,,,,,,
,,,,,,00056,2023-10-12_20h58.59.623,vbt_B2_day1,2022.2.4,MacIntel,47.61904762,,,,,,,,,,,,,,,,,,,0.525609756,-0.232926829,1,0,0,0.683,3,7,85,17,1,r,images/br_r.png,images/cb_r.png,,,,,,,,,,,,,,,,,,,,,,,,,
,,,,,,00056,2023-10-12_20h58.59.623,vbt_B2_day1,2022.2.4,MacIntel,47.61904762,,,,,,,,,,,,,,,,,,,0.525609756,-0.232926829,1,0,0,13.142,3,8,86,21,1,v,images/br_v.png,images/cb_v.png,,,,,,,,,,,,,,,,,,,,,,,,,
,,,,,,00056,2023-10-12_20h58.59.623,vbt_B2_day1,2022.2.4,MacIntel,47.61904762,,,,,,,,,,,,,,,,,,,0.525609756,-0.232926829,1,0,0,1.417,3,9,87,12,1,m,images/br_m.png,images/cb_m.png,,,,,,,,,,,,,,,,,,,,,,,,,
,,,,,,00056,2023-10-12_20h58.59.623,vbt_B2_day1,2022.2.4,MacIntel,47.61904762,,,,,,,,,,,,,,,,,,,0.525609756,-0.232926829,1,0,0,6.625,3,10,88,10,1,k,images/br_k.png,images/cb_k.png,,,,,,,,,,,,,,,,,,,,,,,,,
,,,,,,00056,2023-10-12_20h58.59.623,vbt_B2_day1,2022.2.4,MacIntel,47.61904762,,,,,,,,,,,,,,,,,,,0.525609756,-0.232926829,1,0,0,1.445,3,11,89,8,1,i,images/br_i.png,images/cb_i.png,,,,,,,,,,,,,,,,,,,,,,,,,
,,,,,,00056,2023-10-12_20h58.59.623,vbt_B2_day1,2022.2.4,MacIntel,47.61904762,,,,,,,,,,,,,,,,,,,0.525609756,-0.232926829,1,0,0,4.784,3,12,90,11,1,l,images/br_l.png,images/cb_l.png,,,,,,,,,,,,,,,,,,,,,,,,,
,,,,,,00056,2023-10-12_20h58.59.623,vbt_B2_day1,2022.2.4,MacIntel,47.61904762,,,,,,,,,,,,,,,,,,,0.525609756,-0.232926829,1,0,0,1.356,3,13,91,22,1,w,images/br_w.png,images/cb_w.png,,,,,,,,,,,,,,,,,,,,,,,,,
,,,,,,00056,2023-10-12_20h58.59.623,vbt_B2_day1,2022.2.4,MacIntel,47.61904762,,,,,,,,,,,,,,,,,,,0.525609756,-0.232926829,1,0,0,3.355,3,14,92,9,1,j,images/br_j.png,images/cb_j.png,,,,,,,,,,,,,,,,,,,,,,,,,
,,,,,,00056,2023-10-12_20h58.59.623,vbt_B2_day1,2022.2.4,MacIntel,47.61904762,,,,,,,,,,,,,,,,,,,0.525609756,-0.232926829,1,0,0,23.224,3,15,93,15,1,p,images/br_p.png,images/cb_p.png,,,,,,,,,,,,,,,,,,,,,,,,,
,,,,,,00056,2023-10-12_20h58.59.623,vbt_B2_day1,2022.2.4,MacIntel,47.61904762,,,,,,,,,,,,,,,,,,,0.525609756,-0.232926829,1,0,0,6.556,3,16,94,23,1,x,images/br_x.png,images/cb_x.png,,,,,,,,,,,,,,,,,,,,,,,,,
,,,,,,00056,2023-10-12_20h58.59.623,vbt_B2_day1,2022.2.4,MacIntel,47.61904762,,,,,,,,,,,,,,,,,,,0.525609756,-0.231707317,1,0,0,9.941,3,17,95,18,1,s,images/br_s.png,images/cb_s.png,,,,,,,,,,,,,,,,,,,,,,,,,
,,,,,,00056,2023-10-12_20h58.59.623,vbt_B2_day1,2022.2.4,MacIntel,47.61904762,,,,,,,,,,,,,,,,,,,0.563414634,-0.263414634,1,0,0,9.038,3,18,96,20,1,u,images/br_u.png,images/cb_u.png,,,,,,,,,,,,,,,,,,,,,,,,,
,,,,,,00056,2023-10-12_20h58.59.623,vbt_B2_day1,2022.2.4,MacIntel,47.61904762,,,,,,,,,,,,,,,,,,,0.563414634,-0.263414634,1,0,0,6.257,3,19,97,19,1,t,images/br_t.png,images/cb_t.png,,,,,,,,,,,,,,,,,,,,,,,,,
,,,,,,00056,2023-10-12_20h58.59.623,vbt_B2_day1,2022.2.4,MacIntel,47.61904762,,,,,,,,,,,,,,,,,,,0.563414634,-0.263414634,1,0,0,4.222,3,20,98,25,1,z,images/br_z.png,images/cb_z.png,,,,,,,,,,,,,,,,,,,,,,,,,
,,,,,,00056,2023-10-12_20h58.59.623,vbt_B2_day1,2022.2.4,MacIntel,47.61904762,,,,,,,,,,,,,,,,,,,0.563414634,-0.263414634,1,0,0,6.34,3,21,99,16,1,q,images/br_q.png,images/cb_q.png,,,,,,,,,,,,,,,,,,,,,,,,,
,,,,,,00056,2023-10-12_20h58.59.623,vbt_B2_day1,2022.2.4,MacIntel,47.61904762,,,,,,,,,,,,,,,,,,,0.552439024,-0.056097561,1,0,0,0.489,3,22,100,6,1,g,images/br_g.png,images/cb_g.png,,,,,,,,,,,,,,,,,,,,,,,,,
,,,,,,00056,2023-10-12_20h58.59.623,vbt_B2_day1,2022.2.4,MacIntel,47.61904762,,,,,,,,,,,,,,,,,,,0.552439024,-0.056097561,1,0,0,0.705,3,23,101,7,1,h,images/br_h.png,images/cb_h.png,,,,,,,,,,,,,,,,,,,,,,,,,
,,,,,,00056,2023-10-12_20h58.59.623,vbt_B2_day1,2022.2.4,MacIntel,47.61904762,,,,,,,,,,,,,,,,,,,0.552439024,-0.056097561,1,0,0,1.573,3,24,102,1,1,b,images/br_b.png,images/cb_b.png,,,,,,,,,,,,,,,,,,,,,,,,,
,,,,,,00056,2023-10-12_20h58.59.623,vbt_B2_day1,2022.2.4,MacIntel,47.61904762,,,,,,,,,,,,,,,,,,,0.552439024,-0.056097561,1,0,0,17.539,3,25,103,13,1,n,images/br_n.png,images/cb_n.png,,,,,,,,,,,,,,,,,,,,,,,,,
,,,,,,00056,2023-10-12_20h58.59.623,vbt_B2_day1,2022.2.4,MacIntel,47.61904762,,,,,,,,,,,,,,,,,,,0.457317073,-0.06097561,1,0,0,0.606,4,0,104,13,1,n,images/br_n.png,images/cb_n.png,,,,,,,,,,,,,,,,,,,,,,,,,
,,,,,,00056,2023-10-12_20h58.59.623,vbt_B2_day1,2022.2.4,MacIntel,47.61904762,,,,,,,,,,,,,,,,,,,0.457317073,-0.06097561,1,0,0,0.608,4,1,105,8,1,i,images/br_i.png,images/cb_i.png,,,,,,,,,,,,,,,,,,,,,,,,,
,,,,,,00056,2023-10-12_20h58.59.623,vbt_B2_day1,2022.2.4,MacIntel,47.61904762,,,,,,,,,,,,,,,,,,,0.476829268,-0.063414634,1,0,0,0.551,4,2,106,0,1,a,images/br_a.png,images/cb_a.png,,,,,,,,,,,,,,,,,,,,,,,,,
,,,,,,00056,2023-10-12_20h58.59.623,vbt_B2_day1,2022.2.4,MacIntel,47.61904762,,,,,,,,,,,,,,,,,,,0.476829268,-0.063414634,1,0,0,1.209,4,3,107,1,1,b,images/br_b.png,images/cb_b.png,,,,,,,,,,,,,,,,,,,,,,,,,
,,,,,,00056,2023-10-12_20h58.59.623,vbt_B2_day1,2022.2.4,MacIntel,47.61904762,,,,,,,,,,,,,,,,,,,0.476829268,-0.063414634,1,0,0,0.056,4,4,108,4,1,e,images/br_e.png,images/cb_e.png,,,,,,,,,,,,,,,,,,,,,,,,,
,,,,,,00056,2023-10-12_20h58.59.623,vbt_B2_day1,2022.2.4,MacIntel,47.61904762,,,,,,,,,,,,,,,,,,,0.476829268,-0.063414634,1,0,0,5.139,4,5,109,15,1,p,images/br_p.png,images/cb_p.png,,,,,,,,,,,,,,,,,,,,,,,,,
,,,,,,00056,2023-10-12_20h58.59.623,vbt_B2_day1,2022.2.4,MacIntel,47.61904762,,,,,,,,,,,,,,,,,,,0.476829268,-0.063414634,1,0,0,2.623,4,6,110,22,1,w,images/br_w.png,images/cb_w.png,,,,,,,,,,,,,,,,,,,,,,,,,
,,,,,,00056,2023-10-12_20h58.59.623,vbt_B2_day1,2022.2.4,MacIntel,47.61904762,,,,,,,,,,,,,,,,,,,0.476829268,-0.063414634,1,0,0,7.774,4,7,111,21,1,v,images/br_v.png,images/cb_v.png,,,,,,,,,,,,,,,,,,,,,,,,,
,,,,,,00056,2023-10-12_20h58.59.623,vbt_B2_day1,2022.2.4,MacIntel,47.61904762,,,,,,,,,,,,,,,,,,,0.476829268,-0.063414634,1,0,0,1.806,4,8,112,14,1,o,images/br_o.png,images/cb_o.png,,,,,,,,,,,,,,,,,,,,,,,,,
,,,,,,00056,2023-10-12_20h58.59.623,vbt_B2_day1,2022.2.4,MacIntel,47.61904762,,,,,,,,,,,,,,,,,,,0.476829268,-0.063414634,1,0,0,4.999,4,9,113,10,1,k,images/br_k.png,images/cb_k.png,,,,,,,,,,,,,,,,,,,,,,,,,
,,,,,,00056,2023-10-12_20h58.59.623,vbt_B2_day1,2022.2.4,MacIntel,47.61904762,,,,,,,,,,,,,,,,,,,0.476829268,-0.063414634,1,0,0,0.457,4,10,114,19,1,t,images/br_t.png,images/cb_t.png,,,,,,,,,,,,,,,,,,,,,,,,,
,,,,,,00056,2023-10-12_20h58.59.623,vbt_B2_day1,2022.2.4,MacIntel,47.61904762,,,,,,,,,,,,,,,,,,,0.475609756,-0.063414634,1,0,0,0.4,4,11,115,17,1,r,images/br_r.png,images/cb_r.png,,,,,,,,,,,,,,,,,,,,,,,,,
,,,,,,00056,2023-10-12_20h58.59.623,vbt_B2_day1,2022.2.4,MacIntel,47.61904762,,,,,,,,,,,,,,,,,,,0.475609756,-0.063414634,1,0,0,4.622,4,12,116,16,1,q,images/br_q.png,images/cb_q.png,,,,,,,,,,,,,,,,,,,,,,,,,
,,,,,,00056,2023-10-12_20h58.59.623,vbt_B2_day1,2022.2.4,MacIntel,47.61904762,,,,,,,,,,,,,,,,,,,0.47195122,-0.06097561,1,0,0,1.372,4,13,117,5,1,f,images/br_f.png,images/cb_f.png,,,,,,,,,,,,,,,,,,,,,,,,,
,,,,,,00056,2023-10-12_20h58.59.623,vbt_B2_day1,2022.2.4,MacIntel,47.61904762,,,,,,,,,,,,,,,,,,,0.462195122,-0.058536585,1,0,0,0.221,4,14,118,2,1,c,images/br_c.png,images/cb_c.png,,,,,,,,,,,,,,,,,,,,,,,,,
,,,,,,00056,2023-10-12_20h58.59.623,vbt_B2_day1,2022.2.4,MacIntel,47.61904762,,,,,,,,,,,,,,,,,,,0.462195122,-0.058536585,1,0,0,0.722,4,15,119,18,1,s,images/br_s.png,images/cb_s.png,,,,,,,,,,,,,,,,,,,,,,,,,
,,,,,,00056,2023-10-12_20h58.59.623,vbt_B2_day1,2022.2.4,MacIntel,47.61904762,,,,,,,,,,,,,,,,,,,0.462195122,-0.058536585,1,0,0,6.933,4,16,120,20,1,u,images/br_u.png,images/cb_u.png,,,,,,,,,,,,,,,,,,,,,,,,,
,,,,,,00056,2023-10-12_20h58.59.623,vbt_B2_day1,2022.2.4,MacIntel,47.61904762,,,,,,,,,,,,,,,,,,,0.462195122,-0.058536585,1,0,0,0.187,4,17,121,23,1,x,images/br_x.png,images/cb_x.png,,,,,,,,,,,,,,,,,,,,,,,,,
,,,,,,00056,2023-10-12_20h58.59.623,vbt_B2_day1,2022.2.4,MacIntel,47.61904762,,,,,,,,,,,,,,,,,,,0.462195122,-0.058536585,1,0,0,0.756,4,18,122,11,1,l,images/br_l.png,images/cb_l.png,,,,,,,,,,,,,,,,,,,,,,,,,
,,,,,,00056,2023-10-12_20h58.59.623,vbt_B2_day1,2022.2.4,MacIntel,47.61904762,,,,,,,,,,,,,,,,,,,0.462195122,-0.058536585,1,0,0,0.823,4,19,123,6,1,g,images/br_g.png,images/cb_g.png,,,,,,,,,,,,,,,,,,,,,,,,,
,,,,,,00056,2023-10-12_20h58.59.623,vbt_B2_day1,2022.2.4,MacIntel,47.61904762,,,,,,,,,,,,,,,,,,,0.462195122,-0.058536585,1,0,0,3.558,4,20,124,9,1,j,images/br_j.png,images/cb_j.png,,,,,,,,,,,,,,,,,,,,,,,,,
,,,,,,00056,2023-10-12_20h58.59.623,vbt_B2_day1,2022.2.4,MacIntel,47.61904762,,,,,,,,,,,,,,,,,,,0.462195122,-0.058536585,1,0,0,9.872,4,21,125,25,1,z,images/br_z.png,images/cb_z.png,,,,,,,,,,,,,,,,,,,,,,,,,
,,,,,,00056,2023-10-12_20h58.59.623,vbt_B2_day1,2022.2.4,MacIntel,47.61904762,,,,,,,,,,,,,,,,,,,0.462195122,-0.059756098,1,0,0,0.105,4,22,126,24,1,y,images/br_y.png,images/cb_y.png,,,,,,,,,,,,,,,,,,,,,,,,,
,,,,,,00056,2023-10-12_20h58.59.623,vbt_B2_day1,2022.2.4,MacIntel,47.61904762,,,,,,,,,,,,,,,,,,,0.462195122,-0.059756098,1,0,0,2.489,4,23,127,12,1,m,images/br_m.png,images/cb_m.png,,,,,,,,,,,,,,,,,,,,,,,,,
,,,,,,00056,2023-10-12_20h58.59.623,vbt_B2_day1,2022.2.4,MacIntel,47.61904762,,,,,,,,,,,,,,,,,,,0.462195122,-0.06097561,1,0,0,1.083,4,24,128,3,1,d,images/br_d.png,images/cb_d.png,,,,,,,,,,,,,,,,,,,,,,,,,
,,,,,,00056,2023-10-12_20h58.59.623,vbt_B2_day1,2022.2.4,MacIntel,47.61904762,,,,,,,,,,,,,,,,,,,0.462195122,-0.06097561,1,0,0,0.638,4,25,129,7,1,h,images/br_h.png,images/cb_h.png,,,,,,,,,,,,,,,,,,,,,,,,,
,,,,,,00056,2023-10-12_20h58.59.623,vbt_B2_day1,2022.2.4,MacIntel,47.61904762,,,,,,,,,,,,,,,,,,,0.462195122,-0.06097561,1,0,0,0.505,5,0,130,18,1,s,images/br_s.png,images/cb_s.png,,,,,,,,,,,,,,,,,,,,,,,,,
,,,,,,00056,2023-10-12_20h58.59.623,vbt_B2_day1,2022.2.4,MacIntel,47.61904762,,,,,,,,,,,,,,,,,,,0.462195122,-0.06097561,1,0,0,0.64,5,1,131,3,1,d,images/br_d.png,images/cb_d.png,,,,,,,,,,,,,,,,,,,,,,,,,
,,,,,,00056,2023-10-12_20h58.59.623,vbt_B2_day1,2022.2.4,MacIntel,47.61904762,,,,,,,,,,,,,,,,,,,0.462195122,-0.06097561,1,0,0,0.319,5,2,132,23,1,x,images/br_x.png,images/cb_x.png,,,,,,,,,,,,,,,,,,,,,,,,,
,,,,,,00056,2023-10-12_20h58.59.623,vbt_B2_day1,2022.2.4,MacIntel,47.61904762,,,,,,,,,,,,,,,,,,,0.462195122,-0.06097561,1,0,0,1.174,5,3,133,21,1,v,images/br_v.png,images/cb_v.png,,,,,,,,,,,,,,,,,,,,,,,,,
,,,,,,00056,2023-10-12_20h58.59.623,vbt_B2_day1,2022.2.4,MacIntel,47.61904762,,,,,,,,,,,,,,,,,,,0.462195122,-0.06097561,1,0,0,0.95,5,4,134,8,1,i,images/br_i.png,images/cb_i.png,,,,,,,,,,,,,,,,,,,,,,,,,
,,,,,,00056,2023-10-12_20h58.59.623,vbt_B2_day1,2022.2.4,MacIntel,47.61904762,,,,,,,,,,,,,,,,,,,0.462195122,-0.06097561,1,0,0,0.272,5,5,135,20,1,u,images/br_u.png,images/cb_u.png,,,,,,,,,,,,,,,,,,,,,,,,,
,,,,,,00056,2023-10-12_20h58.59.623,vbt_B2_day1,2022.2.4,MacIntel,47.61904762,,,,,,,,,,,,,,,,,,,0.462195122,-0.06097561,1,0,0,6.642,5,6,136,5,1,f,images/br_f.png,images/cb_f.png,,,,,,,,,,,,,,,,,,,,,,,,,
,,,,,,00056,2023-10-12_20h58.59.623,vbt_B2_day1,2022.2.4,MacIntel,47.61904762,,,,,,,,,,,,,,,,,,,0.462195122,-0.062195122,1,0,0,0.011,5,7,137,12,1,m,images/br_m.png,images/cb_m.png,,,,,,,,,,,,,,,,,,,,,,,,,
,,,,,,00056,2023-10-12_20h58.59.623,vbt_B2_day1,2022.2.4,MacIntel,47.61904762,,,,,,,,,,,,,,,,,,,0.462195122,-0.062195122,1,0,0,1.672,5,8,138,14,1,o,images/br_o.png,images/cb_o.png,,,,,,,,,,,,,,,,,,,,,,,,,
,,,,,,00056,2023-10-12_20h58.59.623,vbt_B2_day1,2022.2.4,MacIntel,47.61904762,,,,,,,,,,,,,,,,,,,0.462195122,-0.062195122,1,0,0,2.208,5,9,139,19,1,t,images/br_t.png,images/cb_t.png,,,,,,,,,,,,,,,,,,,,,,,,,
,,,,,,00056,2023-10-12_20h58.59.623,vbt_B2_day1,2022.2.4,MacIntel,47.61904762,,,,,,,,,,,,,,,,,,,0.459756098,-0.058536585,1,0,0,0.722,5,10,140,17,1,r,images/br_r.png,images/cb_r.png,,,,,,,,,,,,,,,,,,,,,,,,,
,,,,,,00056,2023-10-12_20h58.59.623,vbt_B2_day1,2022.2.4,MacIntel,47.61904762,,,,,,,,,,,,,,,,,,,0.459756098,-0.058536585,1,0,0,2.441,5,11,141,15,1,p,images/br_p.png,images/cb_p.png,,,,,,,,,,,,,,,,,,,,,,,,,
,,,,,,00056,2023-10-12_20h58.59.623,vbt_B2_day1,2022.2.4,MacIntel,47.61904762,,,,,,,,,,,,,,,,,,,0.459756098,-0.058536585,1,0,0,4.272,5,12,142,25,1,z,images/br_z.png,images/cb_z.png,,,,,,,,,,,,,,,,,,,,,,,,,
,,,,,,00056,2023-10-12_20h58.59.623,vbt_B2_day1,2022.2.4,MacIntel,47.61904762,,,,,,,,,,,,,,,,,,,0.459756098,-0.058536585,1,0,0,0.391,5,13,143,4,1,e,images/br_e.png,images/cb_e.png,,,,,,,,,,,,,,,,,,,,,,,,,
,,,,,,00056,2023-10-12_20h58.59.623,vbt_B2_day1,2022.2.4,MacIntel,47.61904762,,,,,,,,,,,,,,,,,,,0.459756098,-0.058536585,1,0,0,8.054,5,14,144,22,1,w,images/br_w.png,images/cb_w.png,,,,,,,,,,,,,,,,,,,,,,,,,
,,,,,,00056,2023-10-12_20h58.59.623,vbt_B2_day1,2022.2.4,MacIntel,47.61904762,,,,,,,,,,,,,,,,,,,0.459756098,-0.058536585,1,0,0,1.816,5,15,145,16,1,q,images/br_q.png,images/cb_q.png,,,,,,,,,,,,,,,,,,,,,,,,,
,,,,,,00056,2023-10-12_20h58.59.623,vbt_B2_day1,2022.2.4,MacIntel,47.61904762,,,,,,,,,,,,,,,,,,,0.459756098,-0.058536585,1,0,0,1.6,5,16,146,1,1,b,images/br_b.png,images/cb_b.png,,,,,,,,,,,,,,,,,,,,,,,,,
,,,,,,00056,2023-10-12_20h58.59.623,vbt_B2_day1,2022.2.4,MacIntel,47.61904762,,,,,,,,,,,,,,,,,,,0.459756098,-0.058536585,1,0,0,0.055,5,17,147,11,1,l,images/br_l.png,images/cb_l.png,,,,,,,,,,,,,,,,,,,,,,,,,
,,,,,,00056,2023-10-12_20h58.59.623,vbt_B2_day1,2022.2.4,MacIntel,47.61904762,,,,,,,,,,,,,,,,,,,0.454878049,-0.058536585,1,0,0,6.433,5,18,148,10,1,k,images/br_k.png,images/cb_k.png,,,,,,,,,,,,,,,,,,,,,,,,,
,,,,,,00056,2023-10-12_20h58.59.623,vbt_B2_day1,2022.2.4,MacIntel,47.61904762,,,,,,,,,,,,,,,,,,,0.454878049,-0.058536585,1,0,0,0.672,5,19,149,6,1,g,images/br_g.png,images/cb_g.png,,,,,,,,,,,,,,,,,,,,,,,,,
,,,,,,00056,2023-10-12_20h58.59.623,vbt_B2_day1,2022.2.4,MacIntel,47.61904762,,,,,,,,,,,,,,,,,,,0.454878049,-0.058536585,1,0,0,2.039,5,20,150,7,1,h,images/br_h.png,images/cb_h.png,,,,,,,,,,,,,,,,,,,,,,,,,
,,,,,,00056,2023-10-12_20h58.59.623,vbt_B2_day1,2022.2.4,MacIntel,47.61904762,,,,,,,,,,,,,,,,,,,0.454878049,-0.058536585,1,0,0,2.191,5,21,151,13,1,n,images/br_n.png,images/cb_n.png,,,,,,,,,,,,,,,,,,,,,,,,,
,,,,,,00056,2023-10-12_20h58.59.623,vbt_B2_day1,2022.2.4,MacIntel,47.61904762,,,,,,,,,,,,,,,,,,,0.454878049,-0.058536585,1,0,0,0.825,5,22,152,24,1,y,images/br_y.png,images/cb_y.png,,,,,,,,,,,,,,,,,,,,,,,,,
,,,,,,00056,2023-10-12_20h58.59.623,vbt_B2_day1,2022.2.4,MacIntel,47.61904762,,,,,,,,,,,,,,,,,,,0.454878049,-0.058536585,1,0,0,0.575,5,23,153,0,1,a,images/br_a.png,images/cb_a.png,,,,,,,,,,,,,,,,,,,,,,,,,
,,,,,,00056,2023-10-12_20h58.59.623,vbt_B2_day1,2022.2.4,MacIntel,47.61904762,,,,,,,,,,,,,,,,,,,0.454878049,-0.057317073,1,0,0,0.373,5,24,154,2,1,c,images/br_c.png,images/cb_c.png,,,,,,,,,,,,,,,,,,,,,,,,,
,,,,,,00056,2023-10-12_20h58.59.623,vbt_B2_day1,2022.2.4,MacIntel,47.61904762,,,,,,,,,,,,,,,,,,,0.454878049,-0.057317073,1,0,0,2.024,5,25,155,9,1,j,images/br_j.png,images/cb_j.png,,,,,,,,,,,,,,,,,,,,,,,,,
,,,,,,00056,2023-10-12_20h58.59.623,vbt_B2_day1,2022.2.4,MacIntel,47.61904762,,,,,,,,,,,,,,,,,,,0.454878049,-0.057317073,1,0,0,1.021,6,0,156,5,1,f,images/br_f.png,images/cb_f.png,,,,,,,,,,,,,,,,,,,,,,,,,
,,,,,,00056,2023-10-12_20h58.59.623,vbt_B2_day1,2022.2.4,MacIntel,47.61904762,,,,,,,,,,,,,,,,,,,0.454878049,-0.057317073,1,0,0,1.191,6,1,157,20,1,u,images/br_u.png,images/cb_u.png,,,,,,,,,,,,,,,,,,,,,,,,,
,,,,,,00056,2023-10-12_20h58.59.623,vbt_B2_day1,2022.2.4,MacIntel,47.61904762,,,,,,,,,,,,,,,,,,,0.454878049,-0.057317073,1,0,0,0.222,6,2,158,11,1,l,images/br_l.png,images/cb_l.png,,,,,,,,,,,,,,,,,,,,,,,,,
,,,,,,00056,2023-10-12_20h58.59.623,vbt_B2_day1,2022.2.4,MacIntel,47.61904762,,,,,,,,,,,,,,,,,,,0.454878049,-0.057317073,1,0,0,1.576,6,3,159,3,1,d,images/br_d.png,images/cb_d.png,,,,,,,,,,,,,,,,,,,,,,,,,
,,,,,,00056,2023-10-12_20h58.59.623,vbt_B2_day1,2022.2.4,MacIntel,47.61904762,,,,,,,,,,,,,,,,,,,0.454878049,-0.056097561,1,0,0,0.675,6,4,160,16,1,q,images/br_q.png,images/cb_q.png,,,,,,,,,,,,,,,,,,,,,,,,,
,,,,,,00056,2023-10-12_20h58.59.623,vbt_B2_day1,2022.2.4,MacIntel,47.61904762,,,,,,,,,,,,,,,,,,,0.454878049,-0.056097561,1,0,0,0.039,6,5,161,14,1,o,images/br_o.png,images/cb_o.png,,,,,,,,,,,,,,,,,,,,,,,,,
,,,,,,00056,2023-10-12_20h58.59.623,vbt_B2_day1,2022.2.4,MacIntel,47.61904762,,,,,,,,,,,,,,,,,,,0.454878049,-0.056097561,1,0,0,13.025,6,6,162,0,1,a,images/br_a.png,images/cb_a.png,,,,,,,,,,,,,,,,,,,,,,,,,
,,,,,,00056,2023-10-12_20h58.59.623,vbt_B2_day1,2022.2.4,MacIntel,47.61904762,,,,,,,,,,,,,,,,,,,0.454878049,-0.059756098,1,0,0,0.588,6,7,163,23,1,x,images/br_x.png,images/cb_x.png,,,,,,,,,,,,,,,,,,,,,,,,,
,,,,,,00056,2023-10-12_20h58.59.623,vbt_B2_day1,2022.2.4,MacIntel,47.61904762,,,,,,,,,,,,,,,,,,,0.454878049,-0.059756098,1,0,0,0.508,6,8,164,9,1,j,images/br_j.png,images/cb_j.png,,,,,,,,,,,,,,,,,,,,,,,,,
,,,,,,00056,2023-10-12_20h58.59.623,vbt_B2_day1,2022.2.4,MacIntel,47.61904762,,,,,,,,,,,,,,,,,,,0.454878049,-0.059756098,1,0,0,0.138,6,9,165,8,1,i,images/br_i.png,images/cb_i.png,,,,,,,,,,,,,,,,,,,,,,,,,
,,,,,,00056,2023-10-12_20h58.59.623,vbt_B2_day1,2022.2.4,MacIntel,47.61904762,,,,,,,,,,,,,,,,,,,0.454878049,-0.059756098,1,0,0,2.993,6,10,166,1,1,b,images/br_b.png,images/cb_b.png,,,,,,,,,,,,,,,,,,,,,,,,,
,,,,,,00056,2023-10-12_20h58.59.623,vbt_B2_day1,2022.2.4,MacIntel,47.61904762,,,,,,,,,,,,,,,,,,,0.454878049,-0.059756098,1,0,0,0.825,6,11,167,2,1,c,images/br_c.png,images/cb_c.png,,,,,,,,,,,,,,,,,,,,,,,,,
,,,,,,00056,2023-10-12_20h58.59.623,vbt_B2_day1,2022.2.4,MacIntel,47.61904762,,,,,,,,,,,,,,,,,,,0.454878049,-0.059756098,1,0,0,0.571,6,12,168,24,1,y,images/br_y.png,images/cb_y.png,,,,,,,,,,,,,,,,,,,,,,,,,
,,,,,,00056,2023-10-12_20h58.59.623,vbt_B2_day1,2022.2.4,MacIntel,47.61904762,,,,,,,,,,,,,,,,,,,0.454878049,-0.059756098,1,0,0,0.299,6,13,169,19,1,t,images/br_t.png,images/cb_t.png,,,,,,,,,,,,,,,,,,,,,,,,,
,,,,,,00056,2023-10-12_20h58.59.623,vbt_B2_day1,2022.2.4,MacIntel,47.61904762,,,,,,,,,,,,,,,,,,,0.454878049,-0.059756098,1,0,0,10.474,6,14,170,15,1,p,images/br_p.png,images/cb_p.png,,,,,,,,,,,,,,,,,,,,,,,,,
,,,,,,00056,2023-10-12_20h58.59.623,vbt_B2_day1,2022.2.4,MacIntel,47.61904762,,,,,,,,,,,,,,,,,,,0.515853659,-0.096341463,1,0,0,0.334,6,15,171,12,1,m,images/br_m.png,images/cb_m.png,,,,,,,,,,,,,,,,,,,,,,,,,
,,,,,,00056,2023-10-12_20h58.59.623,vbt_B2_day1,2022.2.4,MacIntel,47.61904762,,,,,,,,,,,,,,,,,,,0.515853659,-0.096341463,1,0,0,17.108,6,16,172,13,1,n,images/br_n.png,images/cb_n.png,,,,,,,,,,,,,,,,,,,,,,,,,
,,,,,,00056,2023-10-12_20h58.59.623,vbt_B2_day1,2022.2.4,MacIntel,47.61904762,,,,,,,,,,,,,,,,,,,0.515853659,-0.096341463,1,0,0,0.839,6,17,173,21,1,v,images/br_v.png,images/cb_v.png,,,,,,,,,,,,,,,,,,,,,,,,,
,,,,,,00056,2023-10-12_20h58.59.623,vbt_B2_day1,2022.2.4,MacIntel,47.61904762,,,,,,,,,,,,,,,,,,,0.515853659,-0.096341463,1,0,0,0.333,6,18,174,6,1,g,images/br_g.png,images/cb_g.png,,,,,,,,,,,,,,,,,,,,,,,,,
,,,,,,00056,2023-10-12_20h58.59.623,vbt_B2_day1,2022.2.4,MacIntel,47.61904762,,,,,,,,,,,,,,,,,,,0.515853659,-0.096341463,1,0,0,3.708,6,19,175,10,1,k,images/br_k.png,images/cb_k.png,,,,,,,,,,,,,,,,,,,,,,,,,
,,,,,,00056,2023-10-12_20h58.59.623,vbt_B2_day1,2022.2.4,MacIntel,47.61904762,,,,,,,,,,,,,,,,,,,0.515853659,-0.096341463,1,0,0,0.658,6,20,176,17,1,r,images/br_r.png,images/cb_r.png,,,,,,,,,,,,,,,,,,,,,,,,,
,,,,,,00056,2023-10-12_20h58.59.623,vbt_B2_day1,2022.2.4,MacIntel,47.61904762,,,,,,,,,,,,,,,,,,,0.515853659,-0.096341463,1,0,0,0.873,6,21,177,4,1,e,images/br_e.png,images/cb_e.png,,,,,,,,,,,,,,,,,,,,,,,,,
,,,,,,00056,2023-10-12_20h58.59.623,vbt_B2_day1,2022.2.4,MacIntel,47.61904762,,,,,,,,,,,,,,,,,,,0.515853659,-0.096341463,1,0,0,2.406,6,22,178,25,1,z,images/br_z.png,images/cb_z.png,,,,,,,,,,,,,,,,,,,,,,,,,
,,,,,,00056,2023-10-12_20h58.59.623,vbt_B2_day1,2022.2.4,MacIntel,47.61904762,,,,,,,,,,,,,,,,,,,0.515853659,-0.096341463,1,0,0,0.536,6,23,179,18,1,s,images/br_s.png,images/cb_s.png,,,,,,,,,,,,,,,,,,,,,,,,,
,,,,,,00056,2023-10-12_20h58.59.623,vbt_B2_day1,2022.2.4,MacIntel,47.61904762,,,,,,,,,,,,,,,,,,,0.515853659,-0.096341463,1,0,0,0.305,6,24,180,7,1,h,images/br_h.png,images/cb_h.png,,,,,,,,,,,,,,,,,,,,,,,,,
,,,,,,00056,2023-10-12_20h58.59.623,vbt_B2_day1,2022.2.4,MacIntel,47.61904762,,,,,,,,,,,,,,,,,,,0.515853659,-0.097560976,1,0,0,0.873,6,25,181,22,1,w,images/br_w.png,images/cb_w.png,,,,,,,,,,,,,,,,,,,,,,,,,
,,,,,,00056,2023-10-12_20h58.59.623,vbt_B2_day1,2022.2.4,MacIntel,47.61904762,,,,,,,,,,,,,,,,,,,,,,,,,,,,,,,,,-0.401219512,0.026829268,1,0,0,,,,,,,,,,,,,,,,,,,,
,,,,,,00056,2023-10-12_20h58.59.623,vbt_B2_day1,2022.2.4,MacIntel,47.61904762,,,,,,,,,,,,,,,,,,,,,,,,,,,,,,,,,,,,,,0.515853659,0.12804878,1,0,0,,,,,,,,,,,,,,,
,,,,,,00056,2023-10-12_20h58.59.623,vbt_B2_day1,2022.2.4,MacIntel,47.61904762,,,,,,,,,,,,,,,,,,,,,,,,,,,,,,,,,,,,,,,,,,,-0.085790885,-0.213136729,1,0,0,,,0,0,0,55,1,tekenen,images/br_tekenen.png,images/cb_tekenen.png
,,,,,,00056,2023-10-12_20h58.59.623,vbt_B2_day1,2022.2.4,MacIntel,47.61904762,,,,,,,,,,,,,,,,,,,,,,,,,,,,,,,,,,,,,,,,,,,0.569705094,-0.113941019,1,0,0,Dedt..,Dedt..,0,1,1,28,1,bebrip,images/br_bebrip.png,images/cb_bebrip.png
,,,,,,00056,2023-10-12_20h58.59.623,vbt_B2_day1,2022.2.4,MacIntel,47.61904762,,,,,,,,,,,,,,,,,,,,,,,,,,,,,,,,,,,,,,,,,,,0.525469169,-0.186327078,1,0,0,,,0,2,2,52,1,zuiplap,images/br_zuiplap.png,images/cb_zuiplap.png
,,,,,,00056,2023-10-12_20h58.59.623,vbt_B2_day1,2022.2.4,MacIntel,47.61904762,,,,,,,,,,,,,,,,,,,,,,,,,,,,,,,,,,,,,,,,,,,0.730563003,-0.184986595,1,0,0,Stame,Stame,0,3,3,31,1,stamen,images/br_stamen.png,images/cb_stamen.png
,,,,,,00056,2023-10-12_20h58.59.623,vbt_B2_day1,2022.2.4,MacIntel,47.61904762,,,,,,,,,,,,,,,,,,,,,,,,,,,,,,,,,,,,,,,,,,,0.432975871,-0.139410188,1,0,0,Liefde,Liefde,0,4,4,51,1,liefde,images/br_liefde.png,images/cb_liefde.png
,,,,,,00056,2023-10-12_20h58.59.623,vbt_B2_day1,2022.2.4,MacIntel,47.61904762,,,,,,,,,,,,,,,,,,,,,,,,,,,,,,,,,,,,,,,,,,,0.387399464,-0.132707775,1,0,0,Stuk,Stuk,0,5,5,42,1,stuk,images/br_stuk.png,images/cb_stuk.png
,,,,,,00056,2023-10-12_20h58.59.623,vbt_B2_day1,2022.2.4,MacIntel,47.61904762,,,,,,,,,,,,,,,,,,,,,,,,,,,,,,,,,,,,,,,,,,,0.45308311,-0.097855228,1,0,0,Vijf…,Vijf…,0,6,6,54,1,vijftig,images/br_vijftig.png,images/cb_vijftig.png
,,,,,,00056,2023-10-12_20h58.59.623,vbt_B2_day1,2022.2.4,MacIntel,47.61904762,,,,,,,,,,,,,,,,,,,,,,,,,,,,,,,,,,,,,,,,,,,0.363270777,-0.121983914,1,0,0,Mand,Mand,0,7,7,3,1,mand,images/br_mand.png,images/cb_mand.png
,,,,,,00056,2023-10-12_20h58.59.623,vbt_B2_day1,2022.2.4,MacIntel,47.61904762,,,,,,,,,,,,,,,,,,,,,,,,,,,,,,,,,,,,,,,,,,,0.41689008,-0.117962466,1,0,0,Meneg,Meneg,0,8,8,11,1,mening,images/br_mening.png,images/cb_mening.png
,,,,,,00056,2023-10-12_20h58.59.623,vbt_B2_day1,2022.2.4,MacIntel,47.61904762,,,,,,,,,,,,,,,,,,,,,,,,,,,,,,,,,,,,,,,,,,,0.398123324,-0.097855228,1,0,0,Jaar,Jaar,0,9,9,2,1,jaar,images/br_jaar.png,images/cb_jaar.png
,,,,,,00056,2023-10-12_20h58.59.623,vbt_B2_day1,2022.2.4,MacIntel,47.61904762,,,,,,,,,,,,,,,,,,,,,,,,,,,,,,,,,,,,,,,,,,,0.404825737,-0.077747989,1,0,0,Hoog,Hoog,0,10,10,41,1,hoog,images/br_hoog.png,images/cb_hoog.png
,,,,,,00056,2023-10-12_20h58.59.623,vbt_B2_day1,2022.2.4,MacIntel,47.61904762,,,,,,,,,,,,,,,,,,,,,,,,,,,,,,,,,,,,,,,,,,,0.44772118,-0.080428954,1,0,0,Brij,Brij,0,11,11,25,1,brijk,images/br_brijk.png,images/cb_brijk.png
,,,,,,00056,2023-10-12_20h58.59.623,vbt_B2_day1,2022.2.4,MacIntel,47.61904762,,,,,,,,,,,,,,,,,,,,,,,,,,,,,,,,,,,,,,,,,,,0.509383378,-0.13538874,1,0,0,Meenemen,Meenemen,0,12,12,57,1,meenemen,images/br_meenemen.png,images/cb_meenemen.png
,,,,,,00056,2023-10-12_20h58.59.623,vbt_B2_day1,2022.2.4,MacIntel,47.61904762,,,,,,,,,,,,,,,,,,,,,,,,,,,,,,,,,,,,,,,,,,,0.510723861,-0.198391421,1,0,0,Attentie,Attentie,0,13,13,17,1,attentie,images/br_attentie.png,images/cb_attentie.png
,,,,,,00056,2023-10-12_20h58.59.623,vbt_B2_day1,2022.2.4,MacIntel,47.61904762,,,,,,,,,,,,,,,,,,,,,,,,,,,,,,,,,,,,,,,,,,,0.55227882,-0.142091153,1,0,0,Booi,Booi,0,14,14,23,1,booi,images/br_booi.png,images/cb_booi.png
,,,,,,00056,2023-10-12_20h58.59.623,vbt_B2_day1,2022.2.4,MacIntel,47.61904762,,,,,,,,,,,,,,,,,,,,,,,,,,,,,,,,,,,,,,,,,,,0.461126005,-0.14075067,1,0,0,Bleek,Bleek,0,15,15,6,1,bleek,images/br_bleek.png,images/cb_bleek.png
,,,,,,00056,2023-10-12_20h58.59.623,vbt_B2_day1,2022.2.4,MacIntel,47.61904762,,,,,,,,,,,,,,,,,,,,,,,,,,,,,,,,,,,,,,,,,,,0.518766756,-0.037533512,1,0,0,Dief,Dief,0,16,16,40,1,dief,images/br_dief.png,images/cb_dief.png
,,,,,,00056,2023-10-12_20h58.59.623,vbt_B2_day1,2022.2.4,MacIntel,47.61904762,,,,,,,,,,,,,,,,,,,,,,,,,,,,,,,,,,,,,,,,,,,0.54155496,0.067024129,1,0,0,K.oi,K.oi,0,17,17,22,1,knoe,images/br_knoe.png,images/cb_knoe.png
,,,,,,00056,2023-10-12_20h58.59.623,vbt_B2_day1,2022.2.4,MacIntel,47.61904762,,,,,,,,,,,,,,,,,,,,,,,,,,,,,,,,,,,,,,,,,,,0.585790885,0.120643432,1,0,0,Steike.,Steike.,0,18,18,35,1,stuikem,images/br_stuikem.png,images/cb_stuikem.png
,,,,,,00056,2023-10-12_20h58.59.623,vbt_B2_day1,2022.2.4,MacIntel,47.61904762,,,,,,,,,,,,,,,,,,,,,,,,,,,,,,,,,,,,,,,,,,,0.548257373,0.045576408,1,0,0,Maken,Maken,0,19,19,5,1,maken,images/br_maken.png,images/cb_maken.png
,,,,,,00056,2023-10-12_20h58.59.623,vbt_B2_day1,2022.2.4,MacIntel,47.61904762,,,,,,,,,,,,,,,,,,,,,,,,,,,,,,,,,,,,,,,,,,,0.512064343,0.016085791,1,0,0,Klimmen,Klimmen,0,20,20,12,1,klimmen,images/br_klimmen.png,images/cb_klimmen.png
,,,,,,00056,2023-10-12_20h58.59.623,vbt_B2_day1,2022.2.4,MacIntel,47.61904762,,,,,,,,,,,,,,,,,,,,,,,,,,,,,,,,,,,,,,,,,,,0.577747989,0.067024129,1,0,0,Voorruir,Voorruir,0,21,21,39,1,voorreur,images/br_voorreur.png,images/cb_voorreur.png
,,,,,,00056,2023-10-12_20h58.59.623,vbt_B2_day1,2022.2.4,MacIntel,47.61904762,,,,,,,,,,,,,,,,,,,,,,,,,,,,,,,,,,,,,,,,,,,0.518766756,-0.194369973,1,0,0,Locf…,Locf…,0,22,22,34,1,lochten,images/br_lochten.png,images/cb_lochten.png
,,,,,,00056,2023-10-12_20h58.59.623,vbt_B2_day1,2022.2.4,MacIntel,47.61904762,,,,,,,,,,,,,,,,,,,,,,,,,,,,,,,,,,,,,,,,,,,0.489276139,-0.226541555,1,0,0,Tars,Tars,0,23,23,20,1,tars,images/br_tars.png,images/cb_tars.png
,,,,,,00056,2023-10-12_20h58.59.623,vbt_B2_day1,2022.2.4,MacIntel,47.61904762,,,,,,,,,,,,,,,,,,,,,,,,,,,,,,,,,,,,,,,,,,,-0.014745308,-0.197050938,1,0,0,Lulli,Lulli,0,24,24,33,1,flullen,images/br_flullen.png,images/cb_flullen.png
,,,,,,00056,2023-10-12_20h58.59.623,vbt_B2_day1,2022.2.4,MacIntel,47.61904762,,,,,,,,,,,,,,,,,,,,,,,,,,,,,,,,,,,,,,,,,,,0.40616622,-0.148793566,1,0,0,Hemel,Hemel,0,25,25,45,1,hemel,images/br_hemel.png,images/cb_hemel.png
,,,,,,00056,2023-10-12_20h58.59.623,vbt_B2_day1,2022.2.4,MacIntel,47.61904762,,,,,,,,,,,,,,,,,,,,,,,,,,,,,,,,,,,,,,,,,,,0.454423592,-0.160857909,1,0,0,Voorkeur,Voorkeur,0,26,26,58,1,voorkeur,images/br_voorkeur.png,images/cb_voorkeur.png
,,,,,,00056,2023-10-12_20h58.59.623,vbt_B2_day1,2022.2.4,MacIntel,47.61904762,,,,,,,,,,,,,,,,,,,,,,,,,,,,,,,,,,,,,,,,,,,0.587131367,-0.168900804,1,0,0,Toen….,Toen….,0,27,27,56,1,toezicht,images/br_toezicht.png,images/cb_toezicht.png
,,,,,,00056,2023-10-12_20h58.59.623,vbt_B2_day1,2022.2.4,MacIntel,47.61904762,,,,,,,,,,,,,,,,,,,,,,,,,,,,,,,,,,,,,,,,,,,0.548257373,-0.18230563,1,0,0,Liegen,Liegen,0,28,28,50,1,liegen,images/br_liegen.png,images/cb_liegen.png
,,,,,,00056,2023-10-12_20h58.59.623,vbt_B2_day1,2022.2.4,MacIntel,47.61904762,,,,,,,,,,,,,,,,,,,,,,,,,,,,,,,,,,,,,,,,,,,0.607238606,-0.124664879,1,0,0,Geno…,Geno…,0,29,29,29,1,genond,images/br_genond.png,images/cb_genond.png
,,,,,,00056,2023-10-12_20h58.59.623,vbt_B2_day1,2022.2.4,MacIntel,47.61904762,,,,,,,,,,,,,,,,,,,,,,,,,,,,,,,,,,,,,,,,,,,0.607238606,-0.124664879,1,0,0,Waarvan,Waarvan,0,30,30,14,1,waarvan,images/br_waarvan.png,images/cb_waarvan.png
,,,,,,00056,2023-10-12_20h58.59.623,vbt_B2_day1,2022.2.4,MacIntel,47.61904762,,,,,,,,,,,,,,,,,,,,,,,,,,,,,,,,,,,,,,,,,,,0.561662198,-0.045576408,1,0,0,Daarheen,Daarheen,0,31,31,16,1,daarheen,images/br_daarheen.png,images/cb_daarheen.png
,,,,,,00056,2023-10-12_20h58.59.623,vbt_B2_day1,2022.2.4,MacIntel,47.61904762,,,,,,,,,,,,,,,,,,,,,,,,,,,,,,,,,,,,,,,,,,,0.591152815,-0.045576408,1,0,0,Dubbel,Dubbel,0,32,32,9,1,dubbel,images/br_dubbel.png,images/cb_dubbel.png
,,,,,,00056,2023-10-12_20h58.59.623,vbt_B2_day1,2022.2.4,MacIntel,47.61904762,,,,,,,,,,,,,,,,,,,,,,,,,,,,,,,,,,,,,,,,,,,0.573726542,-0.058981233,1,0,0,Opslaan,Opslaan,0,33,33,53,1,opslaan,images/br_opslaan.png,images/cb_opslaan.png
,,,,,,00056,2023-10-12_20h58.59.623,vbt_B2_day1,2022.2.4,MacIntel,47.61904762,,,,,,,,,,,,,,,,,,,,,,,,,,,,,,,,,,,,,,,,,,,0.573726542,-0.058981233,1,0,0,Reeddi,Reeddi,0,34,34,30,1,reedje,images/br_reedje.png,images/cb_reedje.png
,,,,,,00056,2023-10-12_20h58.59.623,vbt_B2_day1,2022.2.4,MacIntel,47.61904762,,,,,,,,,,,,,,,,,,,,,,,,,,,,,,,,,,,,,,,,,,,0.573726542,-0.058981233,1,0,0,Spa…..,Spa…..,0,35,35,37,1,spanzing,images/br_spanzing.png,images/cb_spanzing.png
,,,,,,00056,2023-10-12_20h58.59.623,vbt_B2_day1,2022.2.4,MacIntel,47.61904762,,,,,,,,,,,,,,,,,,,,,,,,,,,,,,,,,,,,,,,,,,,0.419571046,-0.104557641,1,0,0,Sch..,Sch..,0,36,36,4,1,schep,images/br_schep.png,images/cb_schep.png
,,,,,,00056,2023-10-12_20h58.59.623,vbt_B2_day1,2022.2.4,MacIntel,47.61904762,,,,,,,,,,,,,,,,,,,,,,,,,,,,,,,,,,,,,,,,,,,0.420911528,-0.104557641,1,0,0,Reue.,Reue.,0,37,37,24,1,rezer,images/br_rezer.png,images/cb_rezer.png
,,,,,,00056,2023-10-12_20h58.59.623,vbt_B2_day1,2022.2.4,MacIntel,47.61904762,,,,,,,,,,,,,,,,,,,,,,,,,,,,,,,,,,,,,,,,,,,0.420911528,-0.104557641,1,0,0,Viniel,Viniel,0,38,38,49,1,vizier,images/br_vizier.png,images/cb_vizier.png
,,,,,,00056,2023-10-12_20h58.59.623,vbt_B2_day1,2022.2.4,MacIntel,47.61904762,,,,,,,,,,,,,,,,,,,,,,,,,,,,,,,,,,,,,,,,,,,0.420911528,-0.104557641,1,0,0,Klauw,Klauw,0,39,39,7,1,klauw,images/br_klauw.png,images/cb_klauw.png
,,,,,,00056,2023-10-12_20h58.59.623,vbt_B2_day1,2022.2.4,MacIntel,47.61904762,,,,,,,,,,,,,,,,,,,,,,,,,,,,,,,,,,,,,,,,,,,0.506702413,-0.049597855,1,0,0,Valop,Valop,0,40,40,26,1,valop,images/br_valop.png,images/cb_valop.png
,,,,,,00056,2023-10-12_20h58.59.623,vbt_B2_day1,2022.2.4,MacIntel,47.61904762,,,,,,,,,,,,,,,,,,,,,,,,,,,,,,,,,,,,,,,,,,,0.501340483,0.022788204,1,0,0,Dred,Dred,0,41,41,21,1,dred,images/br_dred.png,images/cb_dred.png
,,,,,,00056,2023-10-12_20h58.59.623,vbt_B2_day1,2022.2.4,MacIntel,47.61904762,,,,,,,,,,,,,,,,,,,,,,,,,,,,,,,,,,,,,,,,,,,0.501340483,0.022788204,1,0,0,Opv….,Opv….,0,42,42,59,1,opvatten,images/br_opvatten.png,images/cb_opvatten.png
,,,,,,00056,2023-10-12_20h58.59.623,vbt_B2_day1,2022.2.4,MacIntel,47.61904762,,,,,,,,,,,,,,,,,,,,,,,,,,,,,,,,,,,,,,,,,,,0.501340483,0.022788204,1,0,0,Loods,Loods,0,43,43,47,1,loods,images/br_loods.png,images/cb_loods.png
,,,,,,00056,2023-10-12_20h58.59.623,vbt_B2_day1,2022.2.4,MacIntel,47.61904762,,,,,,,,,,,,,,,,,,,,,,,,,,,,,,,,,,,,,,,,,,,0.501340483,0.022788204,1,0,0,Kandel,Kandel,0,44,44,8,1,kanjer,images/br_kanjer.png,images/cb_kanjer.png
,,,,,,00056,2023-10-12_20h58.59.623,vbt_B2_day1,2022.2.4,MacIntel,47.61904762,,,,,,,,,,,,,,,,,,,,,,,,,,,,,,,,,,,,,,,,,,,0.501340483,0.022788204,1,0,0,Hierv…,Hierv…,0,45,45,15,1,hiervan,images/br_hiervan.png,images/cb_hiervan.png
,,,,,,00056,2023-10-12_20h58.59.623,vbt_B2_day1,2022.2.4,MacIntel,47.61904762,,,,,,,,,,,,,,,,,,,,,,,,,,,,,,,,,,,,,,,,,,,0.501340483,0.022788204,1,0,0,Lenen,Lenen,0,46,46,46,1,lezen,images/br_lezen.png,images/cb_lezen.png
,,,,,,00056,2023-10-12_20h58.59.623,vbt_B2_day1,2022.2.4,MacIntel,47.61904762,,,,,,,,,,,,,,,,,,,,,,,,,,,,,,,,,,,,,,,,,,,0.537533512,0.162198391,1,0,0,Oplaan,Oplaan,0,47,47,32,1,opplaan,images/br_opplaan.png,images/cb_opplaan.png
,,,,,,00056,2023-10-12_20h58.59.623,vbt_B2_day1,2022.2.4,MacIntel,47.61904762,,,,,,,,,,,,,,,,,,,,,,,,,,,,,,,,,,,,,,,,,,,0.537533512,0.162198391,1,0,0,Verv…,Verv…,0,48,48,36,1,vervaden,images/br_vervaden.png,images/cb_vervaden.png
,,,,,,00056,2023-10-12_20h58.59.623,vbt_B2_day1,2022.2.4,MacIntel,47.61904762,,,,,,,,,,,,,,,,,,,,,,,,,,,,,,,,,,,,,,,,,,,0.530831099,0.160857909,1,0,0,Uitde…,Uitde…,0,49,49,18,1,uitdelen,images/br_uitdelen.png,images/cb_uitdelen.png
,,,,,,00056,2023-10-12_20h58.59.623,vbt_B2_day1,2022.2.4,MacIntel,47.61904762,,,,,,,,,,,,,,,,,,,,,,,,,,,,,,,,,,,,,,,,,,,0.530831099,0.160857909,1,0,0,Lama,Lama,0,50,50,43,1,lava,images/br_lava.png,images/cb_lava.png
,,,,,,00056,2023-10-12_20h58.59.623,vbt_B2_day1,2022.2.4,MacIntel,47.61904762,,,,,,,,,,,,,,,,,,,,,,,,,,,,,,,,,,,,,,,,,,,0.530831099,0.160857909,1,0,0,Schiel..,Schiel..,0,51,51,38,1,schielen,images/br_schielen.png,images/cb_schielen.png
,,,,,,00056,2023-10-12_20h58.59.623,vbt_B2_day1,2022.2.4,MacIntel,47.61904762,,,,,,,,,,,,,,,,,,,,,,,,,,,,,,,,,,,,,,,,,,,0.530831099,0.160857909,1,0,0,Twijfel,Twijfel,0,52,52,13,1,twijfel,images/br_twijfel.png,images/cb_twijfel.png
,,,,,,00056,2023-10-12_20h58.59.623,vbt_B2_day1,2022.2.4,MacIntel,47.61904762,,,,,,,,,,,,,,,,,,,,,,,,,,,,,,,,,,,,,,,,,,,0.530831099,0.160857909,1,0,0,Slak,Slak,0,53,53,0,1,slak,images/br_slak.png,images/cb_slak.png
,,,,,,00056,2023-10-12_20h58.59.623,vbt_B2_day1,2022.2.4,MacIntel,47.61904762,,,,,,,,,,,,,,,,,,,,,,,,,,,,,,,,,,,,,,,,,,,0.530831099,0.160857909,1,0,0,Zaal,Zaal,0,54,54,1,1,zaal,images/br_zaal.png,images/cb_zaal.png
,,,,,,00056,2023-10-12_20h58.59.623,vbt_B2_day1,2022.2.4,MacIntel,47.61904762,,,,,,,,,,,,,,,,,,,,,,,,,,,,,,,,,,,,,,,,,,,0.530831099,0.160857909,1,0,0,Proat,Proat,0,55,55,27,1,prort,images/br_prort.png,images/cb_prort.png
,,,,,,00056,2023-10-12_20h58.59.623,vbt_B2_day1,2022.2.4,MacIntel,47.61904762,,,,,,,,,,,,,,,,,,,,,,,,,,,,,,,,,,,,,,,,,,,0.530831099,0.160857909,1,0,0,Wid..,Wid..,0,56,56,44,1,wijze,images/br_wijze.png,images/cb_wijze.png
,,,,,,00056,2023-10-12_20h58.59.623,vbt_B2_day1,2022.2.4,MacIntel,47.61904762,,,,,,,,,,,,,,,,,,,,,,,,,,,,,,,,,,,,,,,,,,,0.504021448,0.016085791,1,0,0,Muziek,Muziek,0,57,57,10,1,muziek,images/br_muziek.png,images/cb_muziek.png
,,,,,,00056,2023-10-12_20h58.59.623,vbt_B2_day1,2022.2.4,MacIntel,47.61904762,,,,,,,,,,,,,,,,,,,,,,,,,,,,,,,,,,,,,,,,,,,0.504021448,0.016085791,1,0,0,Fictie,Fictie,0,58,58,48,1,fictie,images/br_fictie.png,images/cb_fictie.png
,,,,,,00056,2023-10-12_20h58.59.623,vbt_B2_day1,2022.2.4,MacIntel,47.61904762,,,,,,,,,,,,,,,,,,,,,,,,,,,,,,,,,,,,,,,,,,,0.616621984,0.101876676,1,0,0,Schuilen,Schuilen,0,59,59,19,1,schuilen,images/br_schuilen.png,images/cb_schuilen.png
,,,,,,00056,2023-10-12_20h58.59.623,vbt_B2_day1,2022.2.4,MacIntel,47.61904762,,,,,,,,,,,,,,,,,,,,,,,,,,,,,,,,,,,,,,,,,,,,,,,,,,,,,,,,,
