welcome_mouse.x,welcome_mouse.y,welcome_mouse.leftButton,welcome_mouse.midButton,welcome_mouse.rightButton,welcome_mouse.time,"ID",date,expName,psychopyVersion,OS,frameRate,mouse_2.x,mouse_2.y,mouse_2.leftButton,mouse_2.midButton,mouse_2.rightButton,mouse_2.time,mouse_3.x,mouse_3.y,mouse_3.leftButton,mouse_3.midButton,mouse_3.rightButton,mouse_3.time,train_mouse.x,train_mouse.y,train_mouse.leftButton,train_mouse.midButton,train_mouse.rightButton,train_mouse.time,braille_mouse.x,braille_mouse.y,braille_mouse.leftButton,braille_mouse.midButton,braille_mouse.rightButton,braille_mouse.time,trials.thisRepN,trials.thisTrialN,trials.thisN,trials.thisIndex,trials.ran,nlLet,brLet,cbLet,mouse.x,mouse.y,mouse.leftButton,mouse.midButton,mouse.rightButton,testInstr_mouse.x,testInstr_mouse.y,testInstr_mouse.leftButton,testInstr_mouse.midButton,testInstr_mouse.rightButton,test_mouse.x,test_mouse.y,test_mouse.leftButton,test_mouse.midButton,test_mouse.rightButton,test_response.text,testResp,test_loop.thisRepN,test_loop.thisTrialN,test_loop.thisN,test_loop.thisIndex,test_loop.ran,nlWrd,brWrd,cbWrd
-0.042857143,-0.079047619,1,0,0,13.7662,00048,2023-10-04_22h05.43.426,vbt_B2_day1,2022.2.4,Win32,60.08532116,,,,,,,,,,,,,,,,,,,,,,,,,,,,,,,,,,,,,,,,,,,,,,,,,,,,,,,,,
,,,,,,00048,2023-10-04_22h05.43.426,vbt_B2_day1,2022.2.4,Win32,60.08532116,-0.186666667,-0.122857143,1,0,0,16.7791,,,,,,,,,,,,,,,,,,,,,,,,,,,,,,,,,,,,,,,,,,,,,,,,,,,
,,,,,,00048,2023-10-04_22h05.43.426,vbt_B2_day1,2022.2.4,Win32,60.08532116,,,,,,,-0.058095238,-0.302857143,1,0,0,56.0613,,,,,,,,,,,,,,,,,,,,,,,,,,,,,,,,,,,,,,,,,,,,,
,,,,,,00048,2023-10-04_22h05.43.426,vbt_B2_day1,2022.2.4,Win32,60.08532116,,,,,,,,,,,,,-0.048571429,-0.266666667,1,0,0,22.1197,,,,,,,,,,,,,,,,,,,,,,,,,,,,,,,,,,,,,,,
,,,,,,00048,2023-10-04_22h05.43.426,vbt_B2_day1,2022.2.4,Win32,60.08532116,,,,,,,,,,,,,,,,,,,0.436190476,0.024761905,1,0,0,23.4307,0,0,0,21,1,v,images/br_v.png,images/cb_v.png,,,,,,,,,,,,,,,,,,,,,,,,,
,,,,,,00048,2023-10-04_22h05.43.426,vbt_B2_day1,2022.2.4,Win32,60.08532116,,,,,,,,,,,,,,,,,,,0.19047619,0.012380952,1,0,0,5.3242,0,1,1,13,1,n,images/br_n.png,images/cb_n.png,,,,,,,,,,,,,,,,,,,,,,,,,
,,,,,,00048,2023-10-04_22h05.43.426,vbt_B2_day1,2022.2.4,Win32,60.08532116,,,,,,,,,,,,,,,,,,,0.185714286,0.01047619,1,0,0,3.976,0,2,2,9,1,j,images/br_j.png,images/cb_j.png,,,,,,,,,,,,,,,,,,,,,,,,,
,,,,,,00048,2023-10-04_22h05.43.426,vbt_B2_day1,2022.2.4,Win32,60.08532116,,,,,,,,,,,,,,,,,,,0.221904762,-0.044761905,1,0,0,3.3909,0,3,3,23,1,x,images/br_x.png,images/cb_x.png,,,,,,,,,,,,,,,,,,,,,,,,,
,,,,,,00048,2023-10-04_22h05.43.426,vbt_B2_day1,2022.2.4,Win32,60.08532116,,,,,,,,,,,,,,,,,,,0.103809524,-0.097142857,1,0,0,2.6653,0,4,4,14,1,o,images/br_o.png,images/cb_o.png,,,,,,,,,,,,,,,,,,,,,,,,,
,,,,,,00048,2023-10-04_22h05.43.426,vbt_B2_day1,2022.2.4,Win32,60.08532116,,,,,,,,,,,,,,,,,,,0.103809524,-0.092380952,1,0,0,3.3241,0,5,5,12,1,m,images/br_m.png,images/cb_m.png,,,,,,,,,,,,,,,,,,,,,,,,,
,,,,,,00048,2023-10-04_22h05.43.426,vbt_B2_day1,2022.2.4,Win32,60.08532116,,,,,,,,,,,,,,,,,,,0.103809524,-0.092380952,1,0,0,4.2926,0,6,6,7,1,h,images/br_h.png,images/cb_h.png,,,,,,,,,,,,,,,,,,,,,,,,,
,,,,,,00048,2023-10-04_22h05.43.426,vbt_B2_day1,2022.2.4,Win32,60.08532116,,,,,,,,,,,,,,,,,,,0.103809524,-0.092380952,1,0,0,2.4559,0,7,7,22,1,w,images/br_w.png,images/cb_w.png,,,,,,,,,,,,,,,,,,,,,,,,,
,,,,,,00048,2023-10-04_22h05.43.426,vbt_B2_day1,2022.2.4,Win32,60.08532116,,,,,,,,,,,,,,,,,,,0.103809524,-0.092380952,1,0,0,3.4745,0,8,8,24,1,y,images/br_y.png,images/cb_y.png,,,,,,,,,,,,,,,,,,,,,,,,,
,,,,,,00048,2023-10-04_22h05.43.426,vbt_B2_day1,2022.2.4,Win32,60.08532116,,,,,,,,,,,,,,,,,,,0.103809524,-0.091428571,1,0,0,2.1564,0,9,9,2,1,c,images/br_c.png,images/cb_c.png,,,,,,,,,,,,,,,,,,,,,,,,,
,,,,,,00048,2023-10-04_22h05.43.426,vbt_B2_day1,2022.2.4,Win32,60.08532116,,,,,,,,,,,,,,,,,,,0.102857143,-0.076190476,1,0,0,4.2927,0,10,10,25,1,z,images/br_z.png,images/cb_z.png,,,,,,,,,,,,,,,,,,,,,,,,,
,,,,,,00048,2023-10-04_22h05.43.426,vbt_B2_day1,2022.2.4,Win32,60.08532116,,,,,,,,,,,,,,,,,,,0.041904762,-0.068571429,1,0,0,2.2415,0,11,11,6,1,g,images/br_g.png,images/cb_g.png,,,,,,,,,,,,,,,,,,,,,,,,,
,,,,,,00048,2023-10-04_22h05.43.426,vbt_B2_day1,2022.2.4,Win32,60.08532116,,,,,,,,,,,,,,,,,,,0.040952381,-0.066666667,1,0,0,3.6599,0,12,12,1,1,b,images/br_b.png,images/cb_b.png,,,,,,,,,,,,,,,,,,,,,,,,,
,,,,,,00048,2023-10-04_22h05.43.426,vbt_B2_day1,2022.2.4,Win32,60.08532116,,,,,,,,,,,,,,,,,,,0.26952381,-0.176190476,1,0,0,2.3386,0,13,13,16,1,q,images/br_q.png,images/cb_q.png,,,,,,,,,,,,,,,,,,,,,,,,,
,,,,,,00048,2023-10-04_22h05.43.426,vbt_B2_day1,2022.2.4,Win32,60.08532116,,,,,,,,,,,,,,,,,,,0.26952381,-0.176190476,1,0,0,2.5895,0,14,14,11,1,l,images/br_l.png,images/cb_l.png,,,,,,,,,,,,,,,,,,,,,,,,,
,,,,,,00048,2023-10-04_22h05.43.426,vbt_B2_day1,2022.2.4,Win32,60.08532116,,,,,,,,,,,,,,,,,,,0.26952381,-0.176190476,1,0,0,2.6537,0,15,15,18,1,s,images/br_s.png,images/cb_s.png,,,,,,,,,,,,,,,,,,,,,,,,,
,,,,,,00048,2023-10-04_22h05.43.426,vbt_B2_day1,2022.2.4,Win32,60.08532116,,,,,,,,,,,,,,,,,,,0.26952381,-0.176190476,1,0,0,3.1627,0,16,16,0,1,a,images/br_a.png,images/cb_a.png,,,,,,,,,,,,,,,,,,,,,,,,,
,,,,,,00048,2023-10-04_22h05.43.426,vbt_B2_day1,2022.2.4,Win32,60.08532116,,,,,,,,,,,,,,,,,,,0.26952381,-0.176190476,1,0,0,2.8064,0,17,17,17,1,r,images/br_r.png,images/cb_r.png,,,,,,,,,,,,,,,,,,,,,,,,,
,,,,,,00048,2023-10-04_22h05.43.426,vbt_B2_day1,2022.2.4,Win32,60.08532116,,,,,,,,,,,,,,,,,,,0.26952381,-0.176190476,1,0,0,1.6714,0,18,18,19,1,t,images/br_t.png,images/cb_t.png,,,,,,,,,,,,,,,,,,,,,,,,,
,,,,,,00048,2023-10-04_22h05.43.426,vbt_B2_day1,2022.2.4,Win32,60.08532116,,,,,,,,,,,,,,,,,,,-0.134285714,-0.087619048,1,0,0,2.7397,0,19,19,20,1,u,images/br_u.png,images/cb_u.png,,,,,,,,,,,,,,,,,,,,,,,,,
,,,,,,00048,2023-10-04_22h05.43.426,vbt_B2_day1,2022.2.4,Win32,60.08532116,,,,,,,,,,,,,,,,,,,0.245714286,-0.12,1,0,0,2.2155,0,20,20,15,1,p,images/br_p.png,images/cb_p.png,,,,,,,,,,,,,,,,,,,,,,,,,
,,,,,,00048,2023-10-04_22h05.43.426,vbt_B2_day1,2022.2.4,Win32,60.08532116,,,,,,,,,,,,,,,,,,,0.220952381,-0.118095238,1,0,0,3.4082,0,21,21,10,1,k,images/br_k.png,images/cb_k.png,,,,,,,,,,,,,,,,,,,,,,,,,
,,,,,,00048,2023-10-04_22h05.43.426,vbt_B2_day1,2022.2.4,Win32,60.08532116,,,,,,,,,,,,,,,,,,,0.220952381,-0.119047619,1,0,0,4.1935,0,22,22,3,1,d,images/br_d.png,images/cb_d.png,,,,,,,,,,,,,,,,,,,,,,,,,
,,,,,,00048,2023-10-04_22h05.43.426,vbt_B2_day1,2022.2.4,Win32,60.08532116,,,,,,,,,,,,,,,,,,,0.285714286,-0.075238095,1,0,0,5.1781,0,23,23,5,1,f,images/br_f.png,images/cb_f.png,,,,,,,,,,,,,,,,,,,,,,,,,
,,,,,,00048,2023-10-04_22h05.43.426,vbt_B2_day1,2022.2.4,Win32,60.08532116,,,,,,,,,,,,,,,,,,,0.285714286,-0.075238095,1,0,0,6.0138,0,24,24,8,1,i,images/br_i.png,images/cb_i.png,,,,,,,,,,,,,,,,,,,,,,,,,
,,,,,,00048,2023-10-04_22h05.43.426,vbt_B2_day1,2022.2.4,Win32,60.08532116,,,,,,,,,,,,,,,,,,,0.285714286,-0.075238095,1,0,0,3.5928,0,25,25,4,1,e,images/br_e.png,images/cb_e.png,,,,,,,,,,,,,,,,,,,,,,,,,
,,,,,,00048,2023-10-04_22h05.43.426,vbt_B2_day1,2022.2.4,Win32,60.08532116,,,,,,,,,,,,,,,,,,,0.285714286,-0.075238095,1,0,0,1.171,1,0,26,8,1,i,images/br_i.png,images/cb_i.png,,,,,,,,,,,,,,,,,,,,,,,,,
,,,,,,00048,2023-10-04_22h05.43.426,vbt_B2_day1,2022.2.4,Win32,60.08532116,,,,,,,,,,,,,,,,,,,0.285714286,-0.075238095,1,0,0,3.9926,1,1,27,9,1,j,images/br_j.png,images/cb_j.png,,,,,,,,,,,,,,,,,,,,,,,,,
,,,,,,00048,2023-10-04_22h05.43.426,vbt_B2_day1,2022.2.4,Win32,60.08532116,,,,,,,,,,,,,,,,,,,0.285714286,-0.075238095,1,0,0,0.4689,1,2,28,1,1,b,images/br_b.png,images/cb_b.png,,,,,,,,,,,,,,,,,,,,,,,,,
,,,,,,00048,2023-10-04_22h05.43.426,vbt_B2_day1,2022.2.4,Win32,60.08532116,,,,,,,,,,,,,,,,,,,0.285714286,-0.075238095,1,0,0,0.3847,1,3,29,4,1,e,images/br_e.png,images/cb_e.png,,,,,,,,,,,,,,,,,,,,,,,,,
,,,,,,00048,2023-10-04_22h05.43.426,vbt_B2_day1,2022.2.4,Win32,60.08532116,,,,,,,,,,,,,,,,,,,0.285714286,-0.075238095,1,0,0,1.0197,1,4,30,2,1,c,images/br_c.png,images/cb_c.png,,,,,,,,,,,,,,,,,,,,,,,,,
,,,,,,00048,2023-10-04_22h05.43.426,vbt_B2_day1,2022.2.4,Win32,60.08532116,,,,,,,,,,,,,,,,,,,0.285714286,-0.076190476,1,0,0,1.5542,1,5,31,12,1,m,images/br_m.png,images/cb_m.png,,,,,,,,,,,,,,,,,,,,,,,,,
,,,,,,00048,2023-10-04_22h05.43.426,vbt_B2_day1,2022.2.4,Win32,60.08532116,,,,,,,,,,,,,,,,,,,0.02,-0.022857143,1,0,0,0.9361,1,6,32,18,1,s,images/br_s.png,images/cb_s.png,,,,,,,,,,,,,,,,,,,,,,,,,
,,,,,,00048,2023-10-04_22h05.43.426,vbt_B2_day1,2022.2.4,Win32,60.08532116,,,,,,,,,,,,,,,,,,,0.053333333,-0.111428571,1,0,0,4.2429,1,7,33,5,1,f,images/br_f.png,images/cb_f.png,,,,,,,,,,,,,,,,,,,,,,,,,
,,,,,,00048,2023-10-04_22h05.43.426,vbt_B2_day1,2022.2.4,Win32,60.08532116,,,,,,,,,,,,,,,,,,,0.053333333,-0.111428571,1,0,0,1.1525,1,8,34,17,1,r,images/br_r.png,images/cb_r.png,,,,,,,,,,,,,,,,,,,,,,,,,
,,,,,,00048,2023-10-04_22h05.43.426,vbt_B2_day1,2022.2.4,Win32,60.08532116,,,,,,,,,,,,,,,,,,,0.035238095,-0.16,1,0,0,3.5235,1,9,35,3,1,d,images/br_d.png,images/cb_d.png,,,,,,,,,,,,,,,,,,,,,,,,,
,,,,,,00048,2023-10-04_22h05.43.426,vbt_B2_day1,2022.2.4,Win32,60.08532116,,,,,,,,,,,,,,,,,,,0.035238095,-0.16,1,0,0,1.9778,1,10,36,10,1,k,images/br_k.png,images/cb_k.png,,,,,,,,,,,,,,,,,,,,,,,,,
,,,,,,00048,2023-10-04_22h05.43.426,vbt_B2_day1,2022.2.4,Win32,60.08532116,,,,,,,,,,,,,,,,,,,-0.016190476,-0.182857143,1,0,0,0.8025,1,11,37,19,1,t,images/br_t.png,images/cb_t.png,,,,,,,,,,,,,,,,,,,,,,,,,
,,,,,,00048,2023-10-04_22h05.43.426,vbt_B2_day1,2022.2.4,Win32,60.08532116,,,,,,,,,,,,,,,,,,,-0.016190476,-0.182857143,1,0,0,4.7606,1,12,38,13,1,n,images/br_n.png,images/cb_n.png,,,,,,,,,,,,,,,,,,,,,,,,,
,,,,,,00048,2023-10-04_22h05.43.426,vbt_B2_day1,2022.2.4,Win32,60.08532116,,,,,,,,,,,,,,,,,,,-0.016190476,-0.182857143,1,0,0,2.399,1,13,39,16,1,q,images/br_q.png,images/cb_q.png,,,,,,,,,,,,,,,,,,,,,,,,,
,,,,,,00048,2023-10-04_22h05.43.426,vbt_B2_day1,2022.2.4,Win32,60.08532116,,,,,,,,,,,,,,,,,,,-0.018095238,-0.182857143,1,0,0,0.5019,1,14,40,0,1,a,images/br_a.png,images/cb_a.png,,,,,,,,,,,,,,,,,,,,,,,,,
,,,,,,00048,2023-10-04_22h05.43.426,vbt_B2_day1,2022.2.4,Win32,60.08532116,,,,,,,,,,,,,,,,,,,-0.018095238,-0.182857143,1,0,0,3.0238,1,15,41,25,1,z,images/br_z.png,images/cb_z.png,,,,,,,,,,,,,,,,,,,,,,,,,
,,,,,,00048,2023-10-04_22h05.43.426,vbt_B2_day1,2022.2.4,Win32,60.08532116,,,,,,,,,,,,,,,,,,,-0.161904762,-0.040952381,1,0,0,2.5229,1,16,42,7,1,h,images/br_h.png,images/cb_h.png,,,,,,,,,,,,,,,,,,,,,,,,,
,,,,,,00048,2023-10-04_22h05.43.426,vbt_B2_day1,2022.2.4,Win32,60.08532116,,,,,,,,,,,,,,,,,,,0.052380952,0.047619048,1,0,0,8.635,1,17,43,24,1,y,images/br_y.png,images/cb_y.png,,,,,,,,,,,,,,,,,,,,,,,,,
,,,,,,00048,2023-10-04_22h05.43.426,vbt_B2_day1,2022.2.4,Win32,60.08532116,,,,,,,,,,,,,,,,,,,0.054285714,0.04952381,1,0,0,14.9144,1,18,44,22,1,w,images/br_w.png,images/cb_w.png,,,,,,,,,,,,,,,,,,,,,,,,,
,,,,,,00048,2023-10-04_22h05.43.426,vbt_B2_day1,2022.2.4,Win32,60.08532116,,,,,,,,,,,,,,,,,,,0.054285714,0.04952381,1,0,0,18.8886,1,19,45,15,1,p,images/br_p.png,images/cb_p.png,,,,,,,,,,,,,,,,,,,,,,,,,
,,,,,,00048,2023-10-04_22h05.43.426,vbt_B2_day1,2022.2.4,Win32,60.08532116,,,,,,,,,,,,,,,,,,,0.054285714,0.04952381,1,0,0,5.5607,1,20,46,14,1,o,images/br_o.png,images/cb_o.png,,,,,,,,,,,,,,,,,,,,,,,,,
,,,,,,00048,2023-10-04_22h05.43.426,vbt_B2_day1,2022.2.4,Win32,60.08532116,,,,,,,,,,,,,,,,,,,0.062857143,0.065714286,1,0,0,0.8023,1,21,47,23,1,x,images/br_x.png,images/cb_x.png,,,,,,,,,,,,,,,,,,,,,,,,,
,,,,,,00048,2023-10-04_22h05.43.426,vbt_B2_day1,2022.2.4,Win32,60.08532116,,,,,,,,,,,,,,,,,,,0.017142857,-0.123809524,1,0,0,2.1557,1,22,48,11,1,l,images/br_l.png,images/cb_l.png,,,,,,,,,,,,,,,,,,,,,,,,,
,,,,,,00048,2023-10-04_22h05.43.426,vbt_B2_day1,2022.2.4,Win32,60.08532116,,,,,,,,,,,,,,,,,,,0.016190476,-0.123809524,1,0,0,3.4577,1,23,49,20,1,u,images/br_u.png,images/cb_u.png,,,,,,,,,,,,,,,,,,,,,,,,,
,,,,,,00048,2023-10-04_22h05.43.426,vbt_B2_day1,2022.2.4,Win32,60.08532116,,,,,,,,,,,,,,,,,,,0.016190476,-0.123809524,1,0,0,10.6225,1,24,50,6,1,g,images/br_g.png,images/cb_g.png,,,,,,,,,,,,,,,,,,,,,,,,,
,,,,,,00048,2023-10-04_22h05.43.426,vbt_B2_day1,2022.2.4,Win32,60.08532116,,,,,,,,,,,,,,,,,,,0.04,-0.102857143,1,0,0,2.0216,1,25,51,21,1,v,images/br_v.png,images/cb_v.png,,,,,,,,,,,,,,,,,,,,,,,,,
,,,,,,00048,2023-10-04_22h05.43.426,vbt_B2_day1,2022.2.4,Win32,60.08532116,,,,,,,,,,,,,,,,,,,0.04,-0.102857143,1,0,0,7.5645,2,0,52,24,1,y,images/br_y.png,images/cb_y.png,,,,,,,,,,,,,,,,,,,,,,,,,
,,,,,,00048,2023-10-04_22h05.43.426,vbt_B2_day1,2022.2.4,Win32,60.08532116,,,,,,,,,,,,,,,,,,,0.04,-0.102857143,1,0,0,4.5937,2,1,53,1,1,b,images/br_b.png,images/cb_b.png,,,,,,,,,,,,,,,,,,,,,,,,,
,,,,,,00048,2023-10-04_22h05.43.426,vbt_B2_day1,2022.2.4,Win32,60.08532116,,,,,,,,,,,,,,,,,,,0.04,-0.102857143,1,0,0,1.119,2,2,54,4,1,e,images/br_e.png,images/cb_e.png,,,,,,,,,,,,,,,,,,,,,,,,,
,,,,,,00048,2023-10-04_22h05.43.426,vbt_B2_day1,2022.2.4,Win32,60.08532116,,,,,,,,,,,,,,,,,,,0.04,-0.102857143,1,0,0,2.5612,2,3,55,6,1,g,images/br_g.png,images/cb_g.png,,,,,,,,,,,,,,,,,,,,,,,,,
,,,,,,00048,2023-10-04_22h05.43.426,vbt_B2_day1,2022.2.4,Win32,60.08532116,,,,,,,,,,,,,,,,,,,0.047619048,-0.099047619,1,0,0,1.4372,2,4,56,0,1,a,images/br_a.png,images/cb_a.png,,,,,,,,,,,,,,,,,,,,,,,,,
,,,,,,00048,2023-10-04_22h05.43.426,vbt_B2_day1,2022.2.4,Win32,60.08532116,,,,,,,,,,,,,,,,,,,0.047619048,-0.099047619,1,0,0,0.7193,2,5,57,18,1,s,images/br_s.png,images/cb_s.png,,,,,,,,,,,,,,,,,,,,,,,,,
,,,,,,00048,2023-10-04_22h05.43.426,vbt_B2_day1,2022.2.4,Win32,60.08532116,,,,,,,,,,,,,,,,,,,0.047619048,-0.099047619,1,0,0,0.4683,2,6,58,9,1,j,images/br_j.png,images/cb_j.png,,,,,,,,,,,,,,,,,,,,,,,,,
,,,,,,00048,2023-10-04_22h05.43.426,vbt_B2_day1,2022.2.4,Win32,60.08532116,,,,,,,,,,,,,,,,,,,0.013333333,-0.125714286,1,0,0,0.4848,2,7,59,19,1,t,images/br_t.png,images/cb_t.png,,,,,,,,,,,,,,,,,,,,,,,,,
,,,,,,00048,2023-10-04_22h05.43.426,vbt_B2_day1,2022.2.4,Win32,60.08532116,,,,,,,,,,,,,,,,,,,0.013333333,-0.125714286,1,0,0,0.5521,2,8,60,8,1,i,images/br_i.png,images/cb_i.png,,,,,,,,,,,,,,,,,,,,,,,,,
,,,,,,00048,2023-10-04_22h05.43.426,vbt_B2_day1,2022.2.4,Win32,60.08532116,,,,,,,,,,,,,,,,,,,-0.016190476,0.000952381,1,0,0,0.2503,2,9,61,13,1,n,images/br_n.png,images/cb_n.png,,,,,,,,,,,,,,,,,,,,,,,,,
,,,,,,00048,2023-10-04_22h05.43.426,vbt_B2_day1,2022.2.4,Win32,60.08532116,,,,,,,,,,,,,,,,,,,-0.012380952,0.002857143,1,0,0,1.1866,2,10,62,21,1,v,images/br_v.png,images/cb_v.png,,,,,,,,,,,,,,,,,,,,,,,,,
,,,,,,00048,2023-10-04_22h05.43.426,vbt_B2_day1,2022.2.4,Win32,60.08532116,,,,,,,,,,,,,,,,,,,-0.021904762,-0.02952381,1,0,0,0.0373,2,11,63,11,1,l,images/br_l.png,images/cb_l.png,,,,,,,,,,,,,,,,,,,,,,,,,
,,,,,,00048,2023-10-04_22h05.43.426,vbt_B2_day1,2022.2.4,Win32,60.08532116,,,,,,,,,,,,,,,,,,,-0.021904762,-0.02952381,1,0,0,0.6616,2,12,64,3,1,d,images/br_d.png,images/cb_d.png,,,,,,,,,,,,,,,,,,,,,,,,,
,,,,,,00048,2023-10-04_22h05.43.426,vbt_B2_day1,2022.2.4,Win32,60.08532116,,,,,,,,,,,,,,,,,,,-0.021904762,-0.02952381,1,0,0,7.7325,2,13,65,7,1,h,images/br_h.png,images/cb_h.png,,,,,,,,,,,,,,,,,,,,,,,,,
,,,,,,00048,2023-10-04_22h05.43.426,vbt_B2_day1,2022.2.4,Win32,60.08532116,,,,,,,,,,,,,,,,,,,-0.021904762,-0.02952381,1,0,0,2.4228,2,14,66,20,1,u,images/br_u.png,images/cb_u.png,,,,,,,,,,,,,,,,,,,,,,,,,
,,,,,,00048,2023-10-04_22h05.43.426,vbt_B2_day1,2022.2.4,Win32,60.08532116,,,,,,,,,,,,,,,,,,,-0.021904762,-0.02952381,1,0,0,0.6706,2,15,67,14,1,o,images/br_o.png,images/cb_o.png,,,,,,,,,,,,,,,,,,,,,,,,,
,,,,,,00048,2023-10-04_22h05.43.426,vbt_B2_day1,2022.2.4,Win32,60.08532116,,,,,,,,,,,,,,,,,,,-0.021904762,-0.02952381,1,0,0,0.2008,2,16,68,16,1,q,images/br_q.png,images/cb_q.png,,,,,,,,,,,,,,,,,,,,,,,,,
,,,,,,00048,2023-10-04_22h05.43.426,vbt_B2_day1,2022.2.4,Win32,60.08532116,,,,,,,,,,,,,,,,,,,0.013333333,-0.16952381,1,0,0,0.3348,2,17,69,2,1,c,images/br_c.png,images/cb_c.png,,,,,,,,,,,,,,,,,,,,,,,,,
,,,,,,00048,2023-10-04_22h05.43.426,vbt_B2_day1,2022.2.4,Win32,60.08532116,,,,,,,,,,,,,,,,,,,0.02,-0.088571429,1,0,0,9.469,2,18,70,12,1,m,images/br_m.png,images/cb_m.png,,,,,,,,,,,,,,,,,,,,,,,,,
,,,,,,00048,2023-10-04_22h05.43.426,vbt_B2_day1,2022.2.4,Win32,60.08532116,,,,,,,,,,,,,,,,,,,0.000952381,-0.218095238,1,0,0,0.9694,2,19,71,23,1,x,images/br_x.png,images/cb_x.png,,,,,,,,,,,,,,,,,,,,,,,,,
,,,,,,00048,2023-10-04_22h05.43.426,vbt_B2_day1,2022.2.4,Win32,60.08532116,,,,,,,,,,,,,,,,,,,0.018095238,-0.186666667,1,0,0,1.7531,2,20,72,22,1,w,images/br_w.png,images/cb_w.png,,,,,,,,,,,,,,,,,,,,,,,,,
,,,,,,00048,2023-10-04_22h05.43.426,vbt_B2_day1,2022.2.4,Win32,60.08532116,,,,,,,,,,,,,,,,,,,0.002857143,-0.193333333,1,0,0,0.018,2,21,73,17,1,r,images/br_r.png,images/cb_r.png,,,,,,,,,,,,,,,,,,,,,,,,,
,,,,,,00048,2023-10-04_22h05.43.426,vbt_B2_day1,2022.2.4,Win32,60.08532116,,,,,,,,,,,,,,,,,,,-0.080952381,0.086666667,1,0,0,0.1834,2,22,74,5,1,f,images/br_f.png,images/cb_f.png,,,,,,,,,,,,,,,,,,,,,,,,,
,,,,,,00048,2023-10-04_22h05.43.426,vbt_B2_day1,2022.2.4,Win32,60.08532116,,,,,,,,,,,,,,,,,,,-0.042857143,0.064761905,1,0,0,0.3168,2,23,75,15,1,p,images/br_p.png,images/cb_p.png,,,,,,,,,,,,,,,,,,,,,,,,,
,,,,,,00048,2023-10-04_22h05.43.426,vbt_B2_day1,2022.2.4,Win32,60.08532116,,,,,,,,,,,,,,,,,,,-0.013333333,-0.217142857,1,0,0,0.2179,2,24,76,25,1,z,images/br_z.png,images/cb_z.png,,,,,,,,,,,,,,,,,,,,,,,,,
,,,,,,00048,2023-10-04_22h05.43.426,vbt_B2_day1,2022.2.4,Win32,60.08532116,,,,,,,,,,,,,,,,,,,-0.025714286,0.015238095,1,0,0,0.1679,2,25,77,10,1,k,images/br_k.png,images/cb_k.png,,,,,,,,,,,,,,,,,,,,,,,,,
,,,,,,00048,2023-10-04_22h05.43.426,vbt_B2_day1,2022.2.4,Win32,60.08532116,,,,,,,,,,,,,,,,,,,0.007619048,-0.02,1,0,0,0.6271,3,0,78,21,1,v,images/br_v.png,images/cb_v.png,,,,,,,,,,,,,,,,,,,,,,,,,
,,,,,,00048,2023-10-04_22h05.43.426,vbt_B2_day1,2022.2.4,Win32,60.08532116,,,,,,,,,,,,,,,,,,,0.075238095,-0.29047619,1,0,0,0.2354,3,1,79,8,1,i,images/br_i.png,images/cb_i.png,,,,,,,,,,,,,,,,,,,,,,,,,
,,,,,,00048,2023-10-04_22h05.43.426,vbt_B2_day1,2022.2.4,Win32,60.08532116,,,,,,,,,,,,,,,,,,,-0.000952381,-0.025714286,1,0,0,1.4873,3,2,80,17,1,r,images/br_r.png,images/cb_r.png,,,,,,,,,,,,,,,,,,,,,,,,,
,,,,,,00048,2023-10-04_22h05.43.426,vbt_B2_day1,2022.2.4,Win32,60.08532116,,,,,,,,,,,,,,,,,,,-0.00952381,-0.24,1,0,0,0.0342,3,3,81,12,1,m,images/br_m.png,images/cb_m.png,,,,,,,,,,,,,,,,,,,,,,,,,
,,,,,,00048,2023-10-04_22h05.43.426,vbt_B2_day1,2022.2.4,Win32,60.08532116,,,,,,,,,,,,,,,,,,,-0.012380952,-0.211428571,1,0,0,0.2332,3,4,82,13,1,n,images/br_n.png,images/cb_n.png,,,,,,,,,,,,,,,,,,,,,,,,,
,,,,,,00048,2023-10-04_22h05.43.426,vbt_B2_day1,2022.2.4,Win32,60.08532116,,,,,,,,,,,,,,,,,,,-0.014285714,-0.154285714,1,0,0,3.6251,3,5,83,1,1,b,images/br_b.png,images/cb_b.png,,,,,,,,,,,,,,,,,,,,,,,,,
,,,,,,00048,2023-10-04_22h05.43.426,vbt_B2_day1,2022.2.4,Win32,60.08532116,,,,,,,,,,,,,,,,,,,-0.005714286,-0.151428571,1,0,0,0.4353,3,6,84,2,1,c,images/br_c.png,images/cb_c.png,,,,,,,,,,,,,,,,,,,,,,,,,
,,,,,,00048,2023-10-04_22h05.43.426,vbt_B2_day1,2022.2.4,Win32,60.08532116,,,,,,,,,,,,,,,,,,,0.015238095,-0.212380952,1,0,0,0.6438,3,7,85,7,1,h,images/br_h.png,images/cb_h.png,,,,,,,,,,,,,,,,,,,,,,,,,
,,,,,,00048,2023-10-04_22h05.43.426,vbt_B2_day1,2022.2.4,Win32,60.08532116,,,,,,,,,,,,,,,,,,,0.015238095,-0.212380952,1,0,0,2.1386,3,8,86,25,1,z,images/br_z.png,images/cb_z.png,,,,,,,,,,,,,,,,,,,,,,,,,
,,,,,,00048,2023-10-04_22h05.43.426,vbt_B2_day1,2022.2.4,Win32,60.08532116,,,,,,,,,,,,,,,,,,,0.015238095,-0.212380952,1,0,0,0.0179,3,9,87,0,1,a,images/br_a.png,images/cb_a.png,,,,,,,,,,,,,,,,,,,,,,,,,
,,,,,,00048,2023-10-04_22h05.43.426,vbt_B2_day1,2022.2.4,Win32,60.08532116,,,,,,,,,,,,,,,,,,,-0.004761905,-0.214285714,1,0,0,0.1675,3,10,88,11,1,l,images/br_l.png,images/cb_l.png,,,,,,,,,,,,,,,,,,,,,,,,,
,,,,,,00048,2023-10-04_22h05.43.426,vbt_B2_day1,2022.2.4,Win32,60.08532116,,,,,,,,,,,,,,,,,,,0.000952381,-0.192380952,1,0,0,0.1348,3,11,89,22,1,w,images/br_w.png,images/cb_w.png,,,,,,,,,,,,,,,,,,,,,,,,,
,,,,,,00048,2023-10-04_22h05.43.426,vbt_B2_day1,2022.2.4,Win32,60.08532116,,,,,,,,,,,,,,,,,,,0.000952381,-0.192380952,1,0,0,0.1726,3,12,90,19,1,t,images/br_t.png,images/cb_t.png,,,,,,,,,,,,,,,,,,,,,,,,,
,,,,,,00048,2023-10-04_22h05.43.426,vbt_B2_day1,2022.2.4,Win32,60.08532116,,,,,,,,,,,,,,,,,,,0.000952381,-0.192380952,1,0,0,1.2363,3,13,91,18,1,s,images/br_s.png,images/cb_s.png,,,,,,,,,,,,,,,,,,,,,,,,,
,,,,,,00048,2023-10-04_22h05.43.426,vbt_B2_day1,2022.2.4,Win32,60.08532116,,,,,,,,,,,,,,,,,,,0.000952381,-0.192380952,1,0,0,0.0347,3,14,92,3,1,d,images/br_d.png,images/cb_d.png,,,,,,,,,,,,,,,,,,,,,,,,,
,,,,,,00048,2023-10-04_22h05.43.426,vbt_B2_day1,2022.2.4,Win32,60.08532116,,,,,,,,,,,,,,,,,,,0.000952381,-0.192380952,1,0,0,0.2011,3,15,93,23,1,x,images/br_x.png,images/cb_x.png,,,,,,,,,,,,,,,,,,,,,,,,,
,,,,,,00048,2023-10-04_22h05.43.426,vbt_B2_day1,2022.2.4,Win32,60.08532116,,,,,,,,,,,,,,,,,,,0.000952381,-0.192380952,1,0,0,0.018,3,16,94,15,1,p,images/br_p.png,images/cb_p.png,,,,,,,,,,,,,,,,,,,,,,,,,
,,,,,,00048,2023-10-04_22h05.43.426,vbt_B2_day1,2022.2.4,Win32,60.08532116,,,,,,,,,,,,,,,,,,,0.000952381,-0.192380952,1,0,0,1.0262,3,17,95,16,1,q,images/br_q.png,images/cb_q.png,,,,,,,,,,,,,,,,,,,,,,,,,
,,,,,,00048,2023-10-04_22h05.43.426,vbt_B2_day1,2022.2.4,Win32,60.08532116,,,,,,,,,,,,,,,,,,,-0.024761905,-0.200952381,1,0,0,0.1509,3,18,96,10,1,k,images/br_k.png,images/cb_k.png,,,,,,,,,,,,,,,,,,,,,,,,,
,,,,,,00048,2023-10-04_22h05.43.426,vbt_B2_day1,2022.2.4,Win32,60.08532116,,,,,,,,,,,,,,,,,,,-0.024761905,-0.200952381,1,0,0,0.4851,3,19,97,24,1,y,images/br_y.png,images/cb_y.png,,,,,,,,,,,,,,,,,,,,,,,,,
,,,,,,00048,2023-10-04_22h05.43.426,vbt_B2_day1,2022.2.4,Win32,60.08532116,,,,,,,,,,,,,,,,,,,-0.024761905,-0.200952381,1,0,0,0.0667,3,20,98,20,1,u,images/br_u.png,images/cb_u.png,,,,,,,,,,,,,,,,,,,,,,,,,
,,,,,,00048,2023-10-04_22h05.43.426,vbt_B2_day1,2022.2.4,Win32,60.08532116,,,,,,,,,,,,,,,,,,,-0.024761905,-0.200952381,1,0,0,0.1514,3,21,99,9,1,j,images/br_j.png,images/cb_j.png,,,,,,,,,,,,,,,,,,,,,,,,,
,,,,,,00048,2023-10-04_22h05.43.426,vbt_B2_day1,2022.2.4,Win32,60.08532116,,,,,,,,,,,,,,,,,,,-0.076190476,-0.09047619,1,0,0,4.4765,3,22,100,5,1,f,images/br_f.png,images/cb_f.png,,,,,,,,,,,,,,,,,,,,,,,,,
,,,,,,00048,2023-10-04_22h05.43.426,vbt_B2_day1,2022.2.4,Win32,60.08532116,,,,,,,,,,,,,,,,,,,0.020952381,0.022857143,1,0,0,5.0105,3,23,101,14,1,o,images/br_o.png,images/cb_o.png,,,,,,,,,,,,,,,,,,,,,,,,,
,,,,,,00048,2023-10-04_22h05.43.426,vbt_B2_day1,2022.2.4,Win32,60.08532116,,,,,,,,,,,,,,,,,,,0.020952381,0.022857143,1,0,0,0.1008,3,24,102,6,1,g,images/br_g.png,images/cb_g.png,,,,,,,,,,,,,,,,,,,,,,,,,
,,,,,,00048,2023-10-04_22h05.43.426,vbt_B2_day1,2022.2.4,Win32,60.08532116,,,,,,,,,,,,,,,,,,,0.020952381,0.022857143,1,0,0,0.5361,3,25,103,4,1,e,images/br_e.png,images/cb_e.png,,,,,,,,,,,,,,,,,,,,,,,,,
,,,,,,00048,2023-10-04_22h05.43.426,vbt_B2_day1,2022.2.4,Win32,60.08532116,,,,,,,,,,,,,,,,,,,0.008571429,0.025714286,1,0,0,0.5861,4,0,104,25,1,z,images/br_z.png,images/cb_z.png,,,,,,,,,,,,,,,,,,,,,,,,,
,,,,,,00048,2023-10-04_22h05.43.426,vbt_B2_day1,2022.2.4,Win32,60.08532116,,,,,,,,,,,,,,,,,,,0.006666667,0.025714286,1,0,0,1.2127,4,1,105,14,1,o,images/br_o.png,images/cb_o.png,,,,,,,,,,,,,,,,,,,,,,,,,
,,,,,,00048,2023-10-04_22h05.43.426,vbt_B2_day1,2022.2.4,Win32,60.08532116,,,,,,,,,,,,,,,,,,,0.006666667,0.025714286,1,0,0,10.8724,4,2,106,15,1,p,images/br_p.png,images/cb_p.png,,,,,,,,,,,,,,,,,,,,,,,,,
,,,,,,00048,2023-10-04_22h05.43.426,vbt_B2_day1,2022.2.4,Win32,60.08532116,,,,,,,,,,,,,,,,,,,0.006666667,0.025714286,1,0,0,3.9409,4,3,107,10,1,k,images/br_k.png,images/cb_k.png,,,,,,,,,,,,,,,,,,,,,,,,,
,,,,,,00048,2023-10-04_22h05.43.426,vbt_B2_day1,2022.2.4,Win32,60.08532116,,,,,,,,,,,,,,,,,,,0.006666667,0.025714286,1,0,0,11.5589,4,4,108,24,1,y,images/br_y.png,images/cb_y.png,,,,,,,,,,,,,,,,,,,,,,,,,
,,,,,,00048,2023-10-04_22h05.43.426,vbt_B2_day1,2022.2.4,Win32,60.08532116,,,,,,,,,,,,,,,,,,,0.006666667,0.025714286,1,0,0,19.9405,4,5,109,3,1,d,images/br_d.png,images/cb_d.png,,,,,,,,,,,,,,,,,,,,,,,,,
,,,,,,00048,2023-10-04_22h05.43.426,vbt_B2_day1,2022.2.4,Win32,60.08532116,,,,,,,,,,,,,,,,,,,0.006666667,0.025714286,1,0,0,5.4952,4,6,110,8,1,i,images/br_i.png,images/cb_i.png,,,,,,,,,,,,,,,,,,,,,,,,,
,,,,,,00048,2023-10-04_22h05.43.426,vbt_B2_day1,2022.2.4,Win32,60.08532116,,,,,,,,,,,,,,,,,,,0.006666667,0.025714286,1,0,0,2.3726,4,7,111,6,1,g,images/br_g.png,images/cb_g.png,,,,,,,,,,,,,,,,,,,,,,,,,
,,,,,,00048,2023-10-04_22h05.43.426,vbt_B2_day1,2022.2.4,Win32,60.08532116,,,,,,,,,,,,,,,,,,,0.006666667,0.025714286,1,0,0,2.9068,4,8,112,17,1,r,images/br_r.png,images/cb_r.png,,,,,,,,,,,,,,,,,,,,,,,,,
,,,,,,00048,2023-10-04_22h05.43.426,vbt_B2_day1,2022.2.4,Win32,60.08532116,,,,,,,,,,,,,,,,,,,0.006666667,0.025714286,1,0,0,5.6455,4,9,113,22,1,w,images/br_w.png,images/cb_w.png,,,,,,,,,,,,,,,,,,,,,,,,,
,,,,,,00048,2023-10-04_22h05.43.426,vbt_B2_day1,2022.2.4,Win32,60.08532116,,,,,,,,,,,,,,,,,,,0.006666667,0.025714286,1,0,0,2.5483,4,10,114,11,1,l,images/br_l.png,images/cb_l.png,,,,,,,,,,,,,,,,,,,,,,,,,
,,,,,,00048,2023-10-04_22h05.43.426,vbt_B2_day1,2022.2.4,Win32,60.08532116,,,,,,,,,,,,,,,,,,,0.006666667,0.025714286,1,0,0,1.0098,4,11,115,23,1,x,images/br_x.png,images/cb_x.png,,,,,,,,,,,,,,,,,,,,,,,,,
,,,,,,00048,2023-10-04_22h05.43.426,vbt_B2_day1,2022.2.4,Win32,60.08532116,,,,,,,,,,,,,,,,,,,0.006666667,0.025714286,1,0,0,6.3972,4,12,116,4,1,e,images/br_e.png,images/cb_e.png,,,,,,,,,,,,,,,,,,,,,,,,,
,,,,,,00048,2023-10-04_22h05.43.426,vbt_B2_day1,2022.2.4,Win32,60.08532116,,,,,,,,,,,,,,,,,,,0.006666667,0.025714286,1,0,0,14.6139,4,13,117,16,1,q,images/br_q.png,images/cb_q.png,,,,,,,,,,,,,,,,,,,,,,,,,
,,,,,,00048,2023-10-04_22h05.43.426,vbt_B2_day1,2022.2.4,Win32,60.08532116,,,,,,,,,,,,,,,,,,,0.019047619,0.039047619,1,0,0,17.9368,4,14,118,21,1,v,images/br_v.png,images/cb_v.png,,,,,,,,,,,,,,,,,,,,,,,,,
,,,,,,00048,2023-10-04_22h05.43.426,vbt_B2_day1,2022.2.4,Win32,60.08532116,,,,,,,,,,,,,,,,,,,0.019047619,0.039047619,1,0,0,7.5834,4,15,119,0,1,a,images/br_a.png,images/cb_a.png,,,,,,,,,,,,,,,,,,,,,,,,,
,,,,,,00048,2023-10-04_22h05.43.426,vbt_B2_day1,2022.2.4,Win32,60.08532116,,,,,,,,,,,,,,,,,,,0.019047619,0.039047619,1,0,0,0.8192,4,16,120,18,1,s,images/br_s.png,images/cb_s.png,,,,,,,,,,,,,,,,,,,,,,,,,
,,,,,,00048,2023-10-04_22h05.43.426,vbt_B2_day1,2022.2.4,Win32,60.08532116,,,,,,,,,,,,,,,,,,,0.019047619,0.039047619,1,0,0,6.2304,4,17,121,2,1,c,images/br_c.png,images/cb_c.png,,,,,,,,,,,,,,,,,,,,,,,,,
,,,,,,00048,2023-10-04_22h05.43.426,vbt_B2_day1,2022.2.4,Win32,60.08532116,,,,,,,,,,,,,,,,,,,0.013333333,0.018095238,1,0,0,1.204,4,18,122,9,1,j,images/br_j.png,images/cb_j.png,,,,,,,,,,,,,,,,,,,,,,,,,
,,,,,,00048,2023-10-04_22h05.43.426,vbt_B2_day1,2022.2.4,Win32,60.08532116,,,,,,,,,,,,,,,,,,,0.013333333,0.018095238,1,0,0,2.7069,4,19,123,13,1,n,images/br_n.png,images/cb_n.png,,,,,,,,,,,,,,,,,,,,,,,,,
,,,,,,00048,2023-10-04_22h05.43.426,vbt_B2_day1,2022.2.4,Win32,60.08532116,,,,,,,,,,,,,,,,,,,0.013333333,0.018095238,1,0,0,9.3363,4,20,124,12,1,m,images/br_m.png,images/cb_m.png,,,,,,,,,,,,,,,,,,,,,,,,,
,,,,,,00048,2023-10-04_22h05.43.426,vbt_B2_day1,2022.2.4,Win32,60.08532116,,,,,,,,,,,,,,,,,,,0.013333333,0.018095238,1,0,0,7.3494,4,21,125,1,1,b,images/br_b.png,images/cb_b.png,,,,,,,,,,,,,,,,,,,,,,,,,
,,,,,,00048,2023-10-04_22h05.43.426,vbt_B2_day1,2022.2.4,Win32,60.08532116,,,,,,,,,,,,,,,,,,,0.013333333,0.018095238,1,0,0,3.725,4,22,126,7,1,h,images/br_h.png,images/cb_h.png,,,,,,,,,,,,,,,,,,,,,,,,,
,,,,,,00048,2023-10-04_22h05.43.426,vbt_B2_day1,2022.2.4,Win32,60.08532116,,,,,,,,,,,,,,,,,,,0.013333333,0.018095238,1,0,0,10.5217,4,23,127,19,1,t,images/br_t.png,images/cb_t.png,,,,,,,,,,,,,,,,,,,,,,,,,
,,,,,,00048,2023-10-04_22h05.43.426,vbt_B2_day1,2022.2.4,Win32,60.08532116,,,,,,,,,,,,,,,,,,,0.013333333,0.018095238,1,0,0,0.357,4,24,128,5,1,f,images/br_f.png,images/cb_f.png,,,,,,,,,,,,,,,,,,,,,,,,,
,,,,,,00048,2023-10-04_22h05.43.426,vbt_B2_day1,2022.2.4,Win32,60.08532116,,,,,,,,,,,,,,,,,,,0.013333333,0.018095238,1,0,0,28.1406,4,25,129,20,1,u,images/br_u.png,images/cb_u.png,,,,,,,,,,,,,,,,,,,,,,,,,
,,,,,,00048,2023-10-04_22h05.43.426,vbt_B2_day1,2022.2.4,Win32,60.08532116,,,,,,,,,,,,,,,,,,,0.013333333,0.018095238,1,0,0,9.2203,5,0,130,4,1,e,images/br_e.png,images/cb_e.png,,,,,,,,,,,,,,,,,,,,,,,,,
,,,,,,00048,2023-10-04_22h05.43.426,vbt_B2_day1,2022.2.4,Win32,60.08532116,,,,,,,,,,,,,,,,,,,0.01047619,0.017142857,1,0,0,2.2222,5,1,131,2,1,c,images/br_c.png,images/cb_c.png,,,,,,,,,,,,,,,,,,,,,,,,,
,,,,,,00048,2023-10-04_22h05.43.426,vbt_B2_day1,2022.2.4,Win32,60.08532116,,,,,,,,,,,,,,,,,,,0.01047619,0.017142857,1,0,0,3.1909,5,2,132,0,1,a,images/br_a.png,images/cb_a.png,,,,,,,,,,,,,,,,,,,,,,,,,
,,,,,,00048,2023-10-04_22h05.43.426,vbt_B2_day1,2022.2.4,Win32,60.08532116,,,,,,,,,,,,,,,,,,,0.01047619,0.017142857,1,0,0,8.3178,5,3,133,17,1,r,images/br_r.png,images/cb_r.png,,,,,,,,,,,,,,,,,,,,,,,,,
,,,,,,00048,2023-10-04_22h05.43.426,vbt_B2_day1,2022.2.4,Win32,60.08532116,,,,,,,,,,,,,,,,,,,0.01047619,0.017142857,1,0,0,5.1279,5,4,134,20,1,u,images/br_u.png,images/cb_u.png,,,,,,,,,,,,,,,,,,,,,,,,,
,,,,,,00048,2023-10-04_22h05.43.426,vbt_B2_day1,2022.2.4,Win32,60.08532116,,,,,,,,,,,,,,,,,,,0.01047619,0.017142857,1,0,0,5.5953,5,5,135,18,1,s,images/br_s.png,images/cb_s.png,,,,,,,,,,,,,,,,,,,,,,,,,
,,,,,,00048,2023-10-04_22h05.43.426,vbt_B2_day1,2022.2.4,Win32,60.08532116,,,,,,,,,,,,,,,,,,,0.01047619,0.017142857,1,0,0,8.601,5,6,136,25,1,z,images/br_z.png,images/cb_z.png,,,,,,,,,,,,,,,,,,,,,,,,,
,,,,,,00048,2023-10-04_22h05.43.426,vbt_B2_day1,2022.2.4,Win32,60.08532116,,,,,,,,,,,,,,,,,,,0.008571429,0.016190476,1,0,0,13.8123,5,7,137,19,1,t,images/br_t.png,images/cb_t.png,,,,,,,,,,,,,,,,,,,,,,,,,
,,,,,,00048,2023-10-04_22h05.43.426,vbt_B2_day1,2022.2.4,Win32,60.08532116,,,,,,,,,,,,,,,,,,,0.008571429,0.016190476,1,0,0,8.5518,5,8,138,15,1,p,images/br_p.png,images/cb_p.png,,,,,,,,,,,,,,,,,,,,,,,,,
,,,,,,00048,2023-10-04_22h05.43.426,vbt_B2_day1,2022.2.4,Win32,60.08532116,,,,,,,,,,,,,,,,,,,0.079047619,-0.045714286,1,0,0,5.5963,5,9,139,10,1,k,images/br_k.png,images/cb_k.png,,,,,,,,,,,,,,,,,,,,,,,,,
,,,,,,00048,2023-10-04_22h05.43.426,vbt_B2_day1,2022.2.4,Win32,60.08532116,,,,,,,,,,,,,,,,,,,0.079047619,-0.045714286,1,0,0,9.069,5,10,140,1,1,b,images/br_b.png,images/cb_b.png,,,,,,,,,,,,,,,,,,,,,,,,,
,,,,,,00048,2023-10-04_22h05.43.426,vbt_B2_day1,2022.2.4,Win32,60.08532116,,,,,,,,,,,,,,,,,,,0.079047619,-0.045714286,1,0,0,1.1883,5,11,141,8,1,i,images/br_i.png,images/cb_i.png,,,,,,,,,,,,,,,,,,,,,,,,,
,,,,,,00048,2023-10-04_22h05.43.426,vbt_B2_day1,2022.2.4,Win32,60.08532116,,,,,,,,,,,,,,,,,,,0.079047619,-0.045714286,1,0,0,3.1239,5,12,142,23,1,x,images/br_x.png,images/cb_x.png,,,,,,,,,,,,,,,,,,,,,,,,,
,,,,,,00048,2023-10-04_22h05.43.426,vbt_B2_day1,2022.2.4,Win32,60.08532116,,,,,,,,,,,,,,,,,,,0.079047619,-0.045714286,1,0,0,5.0771,5,13,143,16,1,q,images/br_q.png,images/cb_q.png,,,,,,,,,,,,,,,,,,,,,,,,,
,,,,,,00048,2023-10-04_22h05.43.426,vbt_B2_day1,2022.2.4,Win32,60.08532116,,,,,,,,,,,,,,,,,,,0.079047619,-0.045714286,1,0,0,8.8696,5,14,144,13,1,n,images/br_n.png,images/cb_n.png,,,,,,,,,,,,,,,,,,,,,,,,,
,,,,,,00048,2023-10-04_22h05.43.426,vbt_B2_day1,2022.2.4,Win32,60.08532116,,,,,,,,,,,,,,,,,,,0.00952381,-0.03047619,1,0,0,0.869,5,15,145,7,1,h,images/br_h.png,images/cb_h.png,,,,,,,,,,,,,,,,,,,,,,,,,
,,,,,,00048,2023-10-04_22h05.43.426,vbt_B2_day1,2022.2.4,Win32,60.08532116,,,,,,,,,,,,,,,,,,,-0.01047619,-0.115238095,1,0,0,1.338,5,16,146,24,1,y,images/br_y.png,images/cb_y.png,,,,,,,,,,,,,,,,,,,,,,,,,
,,,,,,00048,2023-10-04_22h05.43.426,vbt_B2_day1,2022.2.4,Win32,60.08532116,,,,,,,,,,,,,,,,,,,-0.01047619,-0.115238095,1,0,0,1.7883,5,17,147,12,1,m,images/br_m.png,images/cb_m.png,,,,,,,,,,,,,,,,,,,,,,,,,
,,,,,,00048,2023-10-04_22h05.43.426,vbt_B2_day1,2022.2.4,Win32,60.08532116,,,,,,,,,,,,,,,,,,,-0.01047619,-0.115238095,1,0,0,6.5304,5,18,148,3,1,d,images/br_d.png,images/cb_d.png,,,,,,,,,,,,,,,,,,,,,,,,,
,,,,,,00048,2023-10-04_22h05.43.426,vbt_B2_day1,2022.2.4,Win32,60.08532116,,,,,,,,,,,,,,,,,,,-0.01047619,-0.115238095,1,0,0,3.4413,5,19,149,5,1,f,images/br_f.png,images/cb_f.png,,,,,,,,,,,,,,,,,,,,,,,,,
,,,,,,00048,2023-10-04_22h05.43.426,vbt_B2_day1,2022.2.4,Win32,60.08532116,,,,,,,,,,,,,,,,,,,-0.01047619,-0.115238095,1,0,0,1.9388,5,20,150,14,1,o,images/br_o.png,images/cb_o.png,,,,,,,,,,,,,,,,,,,,,,,,,
,,,,,,00048,2023-10-04_22h05.43.426,vbt_B2_day1,2022.2.4,Win32,60.08532116,,,,,,,,,,,,,,,,,,,-0.01047619,-0.115238095,1,0,0,1.9079,5,21,151,21,1,v,images/br_v.png,images/cb_v.png,,,,,,,,,,,,,,,,,,,,,,,,,
,,,,,,00048,2023-10-04_22h05.43.426,vbt_B2_day1,2022.2.4,Win32,60.08532116,,,,,,,,,,,,,,,,,,,-0.01047619,-0.113333333,1,0,0,0.6375,5,22,152,11,1,l,images/br_l.png,images/cb_l.png,,,,,,,,,,,,,,,,,,,,,,,,,
,,,,,,00048,2023-10-04_22h05.43.426,vbt_B2_day1,2022.2.4,Win32,60.08532116,,,,,,,,,,,,,,,,,,,-0.003809524,-0.1,1,0,0,13.4947,5,23,153,6,1,g,images/br_g.png,images/cb_g.png,,,,,,,,,,,,,,,,,,,,,,,,,
,,,,,,00048,2023-10-04_22h05.43.426,vbt_B2_day1,2022.2.4,Win32,60.08532116,,,,,,,,,,,,,,,,,,,-0.003809524,-0.1,1,0,0,9.4199,5,24,154,9,1,j,images/br_j.png,images/cb_j.png,,,,,,,,,,,,,,,,,,,,,,,,,
,,,,,,00048,2023-10-04_22h05.43.426,vbt_B2_day1,2022.2.4,Win32,60.08532116,,,,,,,,,,,,,,,,,,,-0.004761905,-0.101904762,1,0,0,12.7266,5,25,155,22,1,w,images/br_w.png,images/cb_w.png,,,,,,,,,,,,,,,,,,,,,,,,,
,,,,,,00048,2023-10-04_22h05.43.426,vbt_B2_day1,2022.2.4,Win32,60.08532116,,,,,,,,,,,,,,,,,,,-0.004761905,-0.101904762,1,0,0,0.8194,6,0,156,5,1,f,images/br_f.png,images/cb_f.png,,,,,,,,,,,,,,,,,,,,,,,,,
,,,,,,00048,2023-10-04_22h05.43.426,vbt_B2_day1,2022.2.4,Win32,60.08532116,,,,,,,,,,,,,,,,,,,-0.004761905,-0.101904762,1,0,0,0.6364,6,1,157,13,1,n,images/br_n.png,images/cb_n.png,,,,,,,,,,,,,,,,,,,,,,,,,
,,,,,,00048,2023-10-04_22h05.43.426,vbt_B2_day1,2022.2.4,Win32,60.08532116,,,,,,,,,,,,,,,,,,,-0.014285714,-0.057142857,1,0,0,3.4244,6,2,158,11,1,l,images/br_l.png,images/cb_l.png,,,,,,,,,,,,,,,,,,,,,,,,,
,,,,,,00048,2023-10-04_22h05.43.426,vbt_B2_day1,2022.2.4,Win32,60.08532116,,,,,,,,,,,,,,,,,,,-0.014285714,-0.057142857,1,0,0,1.4038,6,3,159,7,1,h,images/br_h.png,images/cb_h.png,,,,,,,,,,,,,,,,,,,,,,,,,
,,,,,,00048,2023-10-04_22h05.43.426,vbt_B2_day1,2022.2.4,Win32,60.08532116,,,,,,,,,,,,,,,,,,,-0.016190476,-0.053333333,1,0,0,25.9532,6,4,160,6,1,g,images/br_g.png,images/cb_g.png,,,,,,,,,,,,,,,,,,,,,,,,,
,,,,,,00048,2023-10-04_22h05.43.426,vbt_B2_day1,2022.2.4,Win32,60.08532116,,,,,,,,,,,,,,,,,,,-0.016190476,-0.053333333,1,0,0,1.6543,6,5,161,12,1,m,images/br_m.png,images/cb_m.png,,,,,,,,,,,,,,,,,,,,,,,,,
,,,,,,00048,2023-10-04_22h05.43.426,vbt_B2_day1,2022.2.4,Win32,60.08532116,,,,,,,,,,,,,,,,,,,-0.016190476,-0.053333333,1,0,0,0.0171,6,6,162,0,1,a,images/br_a.png,images/cb_a.png,,,,,,,,,,,,,,,,,,,,,,,,,
,,,,,,00048,2023-10-04_22h05.43.426,vbt_B2_day1,2022.2.4,Win32,60.08532116,,,,,,,,,,,,,,,,,,,-0.016190476,-0.053333333,1,0,0,0.7196,6,7,163,15,1,p,images/br_p.png,images/cb_p.png,,,,,,,,,,,,,,,,,,,,,,,,,
,,,,,,00048,2023-10-04_22h05.43.426,vbt_B2_day1,2022.2.4,Win32,60.08532116,,,,,,,,,,,,,,,,,,,-0.016190476,-0.053333333,1,0,0,0.2847,6,8,164,3,1,d,images/br_d.png,images/cb_d.png,,,,,,,,,,,,,,,,,,,,,,,,,
,,,,,,00048,2023-10-04_22h05.43.426,vbt_B2_day1,2022.2.4,Win32,60.08532116,,,,,,,,,,,,,,,,,,,-0.016190476,-0.053333333,1,0,0,0.4081,6,9,165,19,1,t,images/br_t.png,images/cb_t.png,,,,,,,,,,,,,,,,,,,,,,,,,
,,,,,,00048,2023-10-04_22h05.43.426,vbt_B2_day1,2022.2.4,Win32,60.08532116,,,,,,,,,,,,,,,,,,,-0.016190476,-0.053333333,1,0,0,4.4924,6,10,166,23,1,x,images/br_x.png,images/cb_x.png,,,,,,,,,,,,,,,,,,,,,,,,,
,,,,,,00048,2023-10-04_22h05.43.426,vbt_B2_day1,2022.2.4,Win32,60.08532116,,,,,,,,,,,,,,,,,,,-0.020952381,-0.06,1,0,0,12.8937,6,11,167,18,1,s,images/br_s.png,images/cb_s.png,,,,,,,,,,,,,,,,,,,,,,,,,
,,,,,,00048,2023-10-04_22h05.43.426,vbt_B2_day1,2022.2.4,Win32,60.08532116,,,,,,,,,,,,,,,,,,,-0.020952381,-0.06,1,0,0,4.9104,6,12,168,17,1,r,images/br_r.png,images/cb_r.png,,,,,,,,,,,,,,,,,,,,,,,,,
,,,,,,00048,2023-10-04_22h05.43.426,vbt_B2_day1,2022.2.4,Win32,60.08532116,,,,,,,,,,,,,,,,,,,-0.026666667,-0.065714286,1,0,0,11.3761,6,13,169,4,1,e,images/br_e.png,images/cb_e.png,,,,,,,,,,,,,,,,,,,,,,,,,
,,,,,,00048,2023-10-04_22h05.43.426,vbt_B2_day1,2022.2.4,Win32,60.08532116,,,,,,,,,,,,,,,,,,,-0.026666667,-0.066666667,1,0,0,24.1496,6,14,170,25,1,z,images/br_z.png,images/cb_z.png,,,,,,,,,,,,,,,,,,,,,,,,,
,,,,,,00048,2023-10-04_22h05.43.426,vbt_B2_day1,2022.2.4,Win32,60.08532116,,,,,,,,,,,,,,,,,,,-0.026666667,-0.066666667,1,0,0,1.4703,6,15,171,9,1,j,images/br_j.png,images/cb_j.png,,,,,,,,,,,,,,,,,,,,,,,,,
,,,,,,00048,2023-10-04_22h05.43.426,vbt_B2_day1,2022.2.4,Win32,60.08532116,,,,,,,,,,,,,,,,,,,-0.026666667,-0.066666667,1,0,0,0.9695,6,16,172,8,1,i,images/br_i.png,images/cb_i.png,,,,,,,,,,,,,,,,,,,,,,,,,
,,,,,,00048,2023-10-04_22h05.43.426,vbt_B2_day1,2022.2.4,Win32,60.08532116,,,,,,,,,,,,,,,,,,,-0.026666667,-0.066666667,1,0,0,1.6374,6,17,173,14,1,o,images/br_o.png,images/cb_o.png,,,,,,,,,,,,,,,,,,,,,,,,,
,,,,,,00048,2023-10-04_22h05.43.426,vbt_B2_day1,2022.2.4,Win32,60.08532116,,,,,,,,,,,,,,,,,,,-0.026666667,-0.066666667,1,0,0,1.6866,6,18,174,16,1,q,images/br_q.png,images/cb_q.png,,,,,,,,,,,,,,,,,,,,,,,,,
,,,,,,00048,2023-10-04_22h05.43.426,vbt_B2_day1,2022.2.4,Win32,60.08532116,,,,,,,,,,,,,,,,,,,-0.026666667,-0.066666667,1,0,0,0.3682,6,19,175,1,1,b,images/br_b.png,images/cb_b.png,,,,,,,,,,,,,,,,,,,,,,,,,
,,,,,,00048,2023-10-04_22h05.43.426,vbt_B2_day1,2022.2.4,Win32,60.08532116,,,,,,,,,,,,,,,,,,,-0.026666667,-0.066666667,1,0,0,5.277,6,20,176,21,1,v,images/br_v.png,images/cb_v.png,,,,,,,,,,,,,,,,,,,,,,,,,
,,,,,,00048,2023-10-04_22h05.43.426,vbt_B2_day1,2022.2.4,Win32,60.08532116,,,,,,,,,,,,,,,,,,,-0.027619048,-0.063809524,1,0,0,6.5809,6,21,177,2,1,c,images/br_c.png,images/cb_c.png,,,,,,,,,,,,,,,,,,,,,,,,,
,,,,,,00048,2023-10-04_22h05.43.426,vbt_B2_day1,2022.2.4,Win32,60.08532116,,,,,,,,,,,,,,,,,,,-0.027619048,-0.063809524,1,0,0,5.4944,6,22,178,24,1,y,images/br_y.png,images/cb_y.png,,,,,,,,,,,,,,,,,,,,,,,,,
,,,,,,00048,2023-10-04_22h05.43.426,vbt_B2_day1,2022.2.4,Win32,60.08532116,,,,,,,,,,,,,,,,,,,-0.035238095,0.007619048,1,0,0,2.6216,6,23,179,10,1,k,images/br_k.png,images/cb_k.png,,,,,,,,,,,,,,,,,,,,,,,,,
,,,,,,00048,2023-10-04_22h05.43.426,vbt_B2_day1,2022.2.4,Win32,60.08532116,,,,,,,,,,,,,,,,,,,-0.035238095,0.007619048,1,0,0,1.7378,6,24,180,22,1,w,images/br_w.png,images/cb_w.png,,,,,,,,,,,,,,,,,,,,,,,,,
,,,,,,00048,2023-10-04_22h05.43.426,vbt_B2_day1,2022.2.4,Win32,60.08532116,,,,,,,,,,,,,,,,,,,-0.035238095,0.007619048,1,0,0,0.2512,6,25,181,20,1,u,images/br_u.png,images/cb_u.png,,,,,,,,,,,,,,,,,,,,,,,,,
,,,,,,00048,2023-10-04_22h05.43.426,vbt_B2_day1,2022.2.4,Win32,60.08532116,,,,,,,,,,,,,,,,,,,,,,,,,,,,,,,,,-0.2,0.168571429,1,0,0,,,,,,,,,,,,,,,,,,,,
,,,,,,00048,2023-10-04_22h05.43.426,vbt_B2_day1,2022.2.4,Win32,60.08532116,,,,,,,,,,,,,,,,,,,,,,,,,,,,,,,,,,,,,,-0.021904762,-0.012380952,1,0,0,,,,,,,,,,,,,,,
,,,,,,00048,2023-10-04_22h05.43.426,vbt_B2_day1,2022.2.4,Win32,60.08532116,,,,,,,,,,,,,,,,,,,,,,,,,,,,,,,,,,,,,,,,,,,0.013333333,-0.03047619,1,0,0,s.c.l,s.c.l,0,0,0,4,1,schep,images/br_schep.png,images/cb_schep.png
,,,,,,00048,2023-10-04_22h05.43.426,vbt_B2_day1,2022.2.4,Win32,60.08532116,,,,,,,,,,,,,,,,,,,,,,,,,,,,,,,,,,,,,,,,,,,0.02952381,-0.007619048,1,0,0,stame.,stame.,0,1,1,31,1,stamen,images/br_stamen.png,images/cb_stamen.png
,,,,,,00048,2023-10-04_22h05.43.426,vbt_B2_day1,2022.2.4,Win32,60.08532116,,,,,,,,,,,,,,,,,,,,,,,,,,,,,,,,,,,,,,,,,,,-0.272380952,-0.00952381,1,0,0,le..,le..,0,2,2,46,1,lezen,images/br_lezen.png,images/cb_lezen.png
,,,,,,00048,2023-10-04_22h05.43.426,vbt_B2_day1,2022.2.4,Win32,60.08532116,,,,,,,,,,,,,,,,,,,,,,,,,,,,,,,,,,,,,,,,,,,-0.02,-0.21047619,1,0,0,schuilen,schuilen,0,3,3,19,1,schuilen,images/br_schuilen.png,images/cb_schuilen.png
,,,,,,00048,2023-10-04_22h05.43.426,vbt_B2_day1,2022.2.4,Win32,60.08532116,,,,,,,,,,,,,,,,,,,,,,,,,,,,,,,,,,,,,,,,,,,0.054285714,-0.304761905,1,0,0,b.ee.,b.ee.,0,4,4,6,1,bleek,images/br_bleek.png,images/cb_bleek.png
,,,,,,00048,2023-10-04_22h05.43.426,vbt_B2_day1,2022.2.4,Win32,60.08532116,,,,,,,,,,,,,,,,,,,,,,,,,,,,,,,,,,,,,,,,,,,0.054285714,-0.304761905,1,0,0,opvatten,opvatten,0,5,5,59,1,opvatten,images/br_opvatten.png,images/cb_opvatten.png
,,,,,,00048,2023-10-04_22h05.43.426,vbt_B2_day1,2022.2.4,Win32,60.08532116,,,,,,,,,,,,,,,,,,,,,,,,,,,,,,,,,,,,,,,,,,,0.111428571,-0.322857143,1,0,0,flullen,flullen,0,6,6,33,1,flullen,images/br_flullen.png,images/cb_flullen.png
,,,,,,00048,2023-10-04_22h05.43.426,vbt_B2_day1,2022.2.4,Win32,60.08532116,,,,,,,,,,,,,,,,,,,,,,,,,,,,,,,,,,,,,,,,,,,0.088571429,-0.315238095,1,0,0,booi,booi,0,7,7,23,1,booi,images/br_booi.png,images/cb_booi.png
,,,,,,00048,2023-10-04_22h05.43.426,vbt_B2_day1,2022.2.4,Win32,60.08532116,,,,,,,,,,,,,,,,,,,,,,,,,,,,,,,,,,,,,,,,,,,0.147619048,-0.28,1,0,0,vervaden,vervaden,0,8,8,36,1,vervaden,images/br_vervaden.png,images/cb_vervaden.png
,,,,,,00048,2023-10-04_22h05.43.426,vbt_B2_day1,2022.2.4,Win32,60.08532116,,,,,,,,,,,,,,,,,,,,,,,,,,,,,,,,,,,,,,,,,,,-0.087619048,-0.214285714,1,0,0,,,0,9,9,38,1,schielen,images/br_schielen.png,images/cb_schielen.png
,,,,,,00048,2023-10-04_22h05.43.426,vbt_B2_day1,2022.2.4,Win32,60.08532116,,,,,,,,,,,,,,,,,,,,,,,,,,,,,,,,,,,,,,,,,,,0.073333333,-0.281904762,1,0,0,klimmen,klimmen,0,10,10,12,1,klimmen,images/br_klimmen.png,images/cb_klimmen.png
,,,,,,00048,2023-10-04_22h05.43.426,vbt_B2_day1,2022.2.4,Win32,60.08532116,,,,,,,,,,,,,,,,,,,,,,,,,,,,,,,,,,,,,,,,,,,0.073333333,-0.281904762,1,0,0,liefde,liefde,0,11,11,51,1,liefde,images/br_liefde.png,images/cb_liefde.png
,,,,,,00048,2023-10-04_22h05.43.426,vbt_B2_day1,2022.2.4,Win32,60.08532116,,,,,,,,,,,,,,,,,,,,,,,,,,,,,,,,,,,,,,,,,,,0.067619048,-0.279047619,1,0,0,dred,dred,0,12,12,21,1,dred,images/br_dred.png,images/cb_dred.png
,,,,,,00048,2023-10-04_22h05.43.426,vbt_B2_day1,2022.2.4,Win32,60.08532116,,,,,,,,,,,,,,,,,,,,,,,,,,,,,,,,,,,,,,,,,,,0.067619048,-0.279047619,1,0,0,valop,valop,0,13,13,26,1,valop,images/br_valop.png,images/cb_valop.png
,,,,,,00048,2023-10-04_22h05.43.426,vbt_B2_day1,2022.2.4,Win32,60.08532116,,,,,,,,,,,,,,,,,,,,,,,,,,,,,,,,,,,,,,,,,,,0.067619048,-0.279047619,1,0,0,vizier,vizier,0,14,14,49,1,vizier,images/br_vizier.png,images/cb_vizier.png
,,,,,,00048,2023-10-04_22h05.43.426,vbt_B2_day1,2022.2.4,Win32,60.08532116,,,,,,,,,,,,,,,,,,,,,,,,,,,,,,,,,,,,,,,,,,,0.067619048,-0.279047619,1,0,0,slak,slak,0,15,15,0,1,slak,images/br_slak.png,images/cb_slak.png
,,,,,,00048,2023-10-04_22h05.43.426,vbt_B2_day1,2022.2.4,Win32,60.08532116,,,,,,,,,,,,,,,,,,,,,,,,,,,,,,,,,,,,,,,,,,,0.067619048,-0.279047619,1,0,0,daarheen,daarheen,0,16,16,16,1,daarheen,images/br_daarheen.png,images/cb_daarheen.png
,,,,,,00048,2023-10-04_22h05.43.426,vbt_B2_day1,2022.2.4,Win32,60.08532116,,,,,,,,,,,,,,,,,,,,,,,,,,,,,,,,,,,,,,,,,,,0.067619048,-0.279047619,1,0,0,bri.k,bri.k,0,17,17,25,1,brijk,images/br_brijk.png,images/cb_brijk.png
,,,,,,00048,2023-10-04_22h05.43.426,vbt_B2_day1,2022.2.4,Win32,60.08532116,,,,,,,,,,,,,,,,,,,,,,,,,,,,,,,,,,,,,,,,,,,0.067619048,-0.279047619,1,0,0,.and,.and,0,18,18,3,1,mand,images/br_mand.png,images/cb_mand.png
,,,,,,00048,2023-10-04_22h05.43.426,vbt_B2_day1,2022.2.4,Win32,60.08532116,,,,,,,,,,,,,,,,,,,,,,,,,,,,,,,,,,,,,,,,,,,0.067619048,-0.279047619,1,0,0,kanjer,kanjer,0,19,19,8,1,kanjer,images/br_kanjer.png,images/cb_kanjer.png
,,,,,,00048,2023-10-04_22h05.43.426,vbt_B2_day1,2022.2.4,Win32,60.08532116,,,,,,,,,,,,,,,,,,,,,,,,,,,,,,,,,,,,,,,,,,,0.067619048,-0.279047619,1,0,0,.enond,.enond,0,20,20,29,1,genond,images/br_genond.png,images/cb_genond.png
,,,,,,00048,2023-10-04_22h05.43.426,vbt_B2_day1,2022.2.4,Win32,60.08532116,,,,,,,,,,,,,,,,,,,,,,,,,,,,,,,,,,,,,,,,,,,0.067619048,-0.279047619,1,0,0,,,0,21,21,56,1,toezicht,images/br_toezicht.png,images/cb_toezicht.png
,,,,,,00048,2023-10-04_22h05.43.426,vbt_B2_day1,2022.2.4,Win32,60.08532116,,,,,,,,,,,,,,,,,,,,,,,,,,,,,,,,,,,,,,,,,,,0.067619048,-0.279047619,1,0,0,wij.e,wij.e,0,22,22,44,1,wijze,images/br_wijze.png,images/cb_wijze.png
,,,,,,00048,2023-10-04_22h05.43.426,vbt_B2_day1,2022.2.4,Win32,60.08532116,,,,,,,,,,,,,,,,,,,,,,,,,,,,,,,,,,,,,,,,,,,0.067619048,-0.279047619,1,0,0,attentie,attentie,0,23,23,17,1,attentie,images/br_attentie.png,images/cb_attentie.png
,,,,,,00048,2023-10-04_22h05.43.426,vbt_B2_day1,2022.2.4,Win32,60.08532116,,,,,,,,,,,,,,,,,,,,,,,,,,,,,,,,,,,,,,,,,,,0.067619048,-0.279047619,1,0,0,tji...,tji...,0,24,24,13,1,twijfel,images/br_twijfel.png,images/cb_twijfel.png
,,,,,,00048,2023-10-04_22h05.43.426,vbt_B2_day1,2022.2.4,Win32,60.08532116,,,,,,,,,,,,,,,,,,,,,,,,,,,,,,,,,,,,,,,,,,,0.067619048,-0.279047619,1,0,0,jaar,jaar,0,25,25,2,1,jaar,images/br_jaar.png,images/cb_jaar.png
,,,,,,00048,2023-10-04_22h05.43.426,vbt_B2_day1,2022.2.4,Win32,60.08532116,,,,,,,,,,,,,,,,,,,,,,,,,,,,,,,,,,,,,,,,,,,0.067619048,-0.279047619,1,0,0,stuk,stuk,0,26,26,42,1,stuk,images/br_stuk.png,images/cb_stuk.png
,,,,,,00048,2023-10-04_22h05.43.426,vbt_B2_day1,2022.2.4,Win32,60.08532116,,,,,,,,,,,,,,,,,,,,,,,,,,,,,,,,,,,,,,,,,,,0.067619048,-0.279047619,1,0,0,tars,tars,0,27,27,20,1,tars,images/br_tars.png,images/cb_tars.png
,,,,,,00048,2023-10-04_22h05.43.426,vbt_B2_day1,2022.2.4,Win32,60.08532116,,,,,,,,,,,,,,,,,,,,,,,,,,,,,,,,,,,,,,,,,,,0.067619048,-0.279047619,1,0,0,lieden,lieden,0,28,28,50,1,liegen,images/br_liegen.png,images/cb_liegen.png
,,,,,,00048,2023-10-04_22h05.43.426,vbt_B2_day1,2022.2.4,Win32,60.08532116,,,,,,,,,,,,,,,,,,,,,,,,,,,,,,,,,,,,,,,,,,,0.067619048,-0.279047619,1,0,0,klas.,klas.,0,29,29,7,1,klauw,images/br_klauw.png,images/cb_klauw.png
,,,,,,00048,2023-10-04_22h05.43.426,vbt_B2_day1,2022.2.4,Win32,60.08532116,,,,,,,,,,,,,,,,,,,,,,,,,,,,,,,,,,,,,,,,,,,0.086666667,-0.285714286,1,0,0,pr.r,pr.r,0,30,30,27,1,prort,images/br_prort.png,images/cb_prort.png
,,,,,,00048,2023-10-04_22h05.43.426,vbt_B2_day1,2022.2.4,Win32,60.08532116,,,,,,,,,,,,,,,,,,,,,,,,,,,,,,,,,,,,,,,,,,,-0.035238095,-0.207619048,1,0,0,.ening,.ening,0,31,31,11,1,mening,images/br_mening.png,images/cb_mening.png
,,,,,,00048,2023-10-04_22h05.43.426,vbt_B2_day1,2022.2.4,Win32,60.08532116,,,,,,,,,,,,,,,,,,,,,,,,,,,,,,,,,,,,,,,,,,,0.02,-0.067619048,1,0,0,,,0,32,32,14,1,waarvan,images/br_waarvan.png,images/cb_waarvan.png
,,,,,,00048,2023-10-04_22h05.43.426,vbt_B2_day1,2022.2.4,Win32,60.08532116,,,,,,,,,,,,,,,,,,,,,,,,,,,,,,,,,,,,,,,,,,,-0.128571429,-0.293333333,1,0,0,..iplap,..iplap,0,33,33,52,1,zuiplap,images/br_zuiplap.png,images/cb_zuiplap.png
,,,,,,00048,2023-10-04_22h05.43.426,vbt_B2_day1,2022.2.4,Win32,60.08532116,,,,,,,,,,,,,,,,,,,,,,,,,,,,,,,,,,,,,,,,,,,-0.073333333,-0.305714286,1,0,0,meenemen,meenemen,0,34,34,57,1,meenemen,images/br_meenemen.png,images/cb_meenemen.png
,,,,,,00048,2023-10-04_22h05.43.426,vbt_B2_day1,2022.2.4,Win32,60.08532116,,,,,,,,,,,,,,,,,,,,,,,,,,,,,,,,,,,,,,,,,,,-0.073333333,-0.305714286,1,0,0,voorre.r,voorre.r,0,35,35,39,1,voorreur,images/br_voorreur.png,images/cb_voorreur.png
,,,,,,00048,2023-10-04_22h05.43.426,vbt_B2_day1,2022.2.4,Win32,60.08532116,,,,,,,,,,,,,,,,,,,,,,,,,,,,,,,,,,,,,,,,,,,-0.073333333,-0.305714286,1,0,0,.aal,.aal,0,36,36,1,1,zaal,images/br_zaal.png,images/cb_zaal.png
,,,,,,00048,2023-10-04_22h05.43.426,vbt_B2_day1,2022.2.4,Win32,60.08532116,,,,,,,,,,,,,,,,,,,,,,,,,,,,,,,,,,,,,,,,,,,-0.071428571,-0.324761905,1,0,0,hoog,hoog,0,37,37,41,1,hoog,images/br_hoog.png,images/cb_hoog.png
,,,,,,00048,2023-10-04_22h05.43.426,vbt_B2_day1,2022.2.4,Win32,60.08532116,,,,,,,,,,,,,,,,,,,,,,,,,,,,,,,,,,,,,,,,,,,-0.071428571,-0.323809524,1,0,0,st.i.en,st.i.en,0,38,38,35,1,stuikem,images/br_stuikem.png,images/cb_stuikem.png
,,,,,,00048,2023-10-04_22h05.43.426,vbt_B2_day1,2022.2.4,Win32,60.08532116,,,,,,,,,,,,,,,,,,,,,,,,,,,,,,,,,,,,,,,,,,,-0.068571429,-0.317142857,1,0,0,loods,loods,0,39,39,47,1,loods,images/br_loods.png,images/cb_loods.png
,,,,,,00048,2023-10-04_22h05.43.426,vbt_B2_day1,2022.2.4,Win32,60.08532116,,,,,,,,,,,,,,,,,,,,,,,,,,,,,,,,,,,,,,,,,,,-0.065714286,-0.30952381,1,0,0,knoe,knoe,0,40,40,22,1,knoe,images/br_knoe.png,images/cb_knoe.png
,,,,,,00048,2023-10-04_22h05.43.426,vbt_B2_day1,2022.2.4,Win32,60.08532116,,,,,,,,,,,,,,,,,,,,,,,,,,,,,,,,,,,,,,,,,,,-0.064761905,-0.3,1,0,0,.i.jh,.i.jh,0,41,41,54,1,vijftig,images/br_vijftig.png,images/cb_vijftig.png
,,,,,,00048,2023-10-04_22h05.43.426,vbt_B2_day1,2022.2.4,Win32,60.08532116,,,,,,,,,,,,,,,,,,,,,,,,,,,,,,,,,,,,,,,,,,,-0.051428571,-0.300952381,1,0,0,lava,lava,0,42,42,43,1,lava,images/br_lava.png,images/cb_lava.png
,,,,,,00048,2023-10-04_22h05.43.426,vbt_B2_day1,2022.2.4,Win32,60.08532116,,,,,,,,,,,,,,,,,,,,,,,,,,,,,,,,,,,,,,,,,,,-0.051428571,-0.300952381,1,0,0,reedje,reedje,0,43,43,30,1,reedje,images/br_reedje.png,images/cb_reedje.png
,,,,,,00048,2023-10-04_22h05.43.426,vbt_B2_day1,2022.2.4,Win32,60.08532116,,,,,,,,,,,,,,,,,,,,,,,,,,,,,,,,,,,,,,,,,,,-0.051428571,-0.300952381,1,0,0,vie....,vie....,0,44,44,15,1,hiervan,images/br_hiervan.png,images/cb_hiervan.png
,,,,,,00048,2023-10-04_22h05.43.426,vbt_B2_day1,2022.2.4,Win32,60.08532116,,,,,,,,,,,,,,,,,,,,,,,,,,,,,,,,,,,,,,,,,,,-0.051428571,-0.300952381,1,0,0,......,......,0,45,45,18,1,uitdelen,images/br_uitdelen.png,images/cb_uitdelen.png
,,,,,,00048,2023-10-04_22h05.43.426,vbt_B2_day1,2022.2.4,Win32,60.08532116,,,,,,,,,,,,,,,,,,,,,,,,,,,,,,,,,,,,,,,,,,,-0.043809524,-0.298095238,1,0,0,re.er,re.er,0,46,46,24,1,rezer,images/br_rezer.png,images/cb_rezer.png
,,,,,,00048,2023-10-04_22h05.43.426,vbt_B2_day1,2022.2.4,Win32,60.08532116,,,,,,,,,,,,,,,,,,,,,,,,,,,,,,,,,,,,,,,,,,,-0.043809524,-0.298095238,1,0,0,maken,maken,0,47,47,5,1,maken,images/br_maken.png,images/cb_maken.png
,,,,,,00048,2023-10-04_22h05.43.426,vbt_B2_day1,2022.2.4,Win32,60.08532116,,,,,,,,,,,,,,,,,,,,,,,,,,,,,,,,,,,,,,,,,,,-0.043809524,-0.298095238,1,0,0,ceci.,ceci.,0,48,48,28,1,bebrip,images/br_bebrip.png,images/cb_bebrip.png
,,,,,,00048,2023-10-04_22h05.43.426,vbt_B2_day1,2022.2.4,Win32,60.08532116,,,,,,,,,,,,,,,,,,,,,,,,,,,,,,,,,,,,,,,,,,,-0.043809524,-0.298095238,1,0,0,voorke..,voorke..,0,49,49,58,1,voorkeur,images/br_voorkeur.png,images/cb_voorkeur.png
,,,,,,00048,2023-10-04_22h05.43.426,vbt_B2_day1,2022.2.4,Win32,60.08532116,,,,,,,,,,,,,,,,,,,,,,,,,,,,,,,,,,,,,,,,,,,-0.042857143,-0.293333333,1,0,0,o..laan,o..laan,0,50,50,32,1,opplaan,images/br_opplaan.png,images/cb_opplaan.png
,,,,,,00048,2023-10-04_22h05.43.426,vbt_B2_day1,2022.2.4,Win32,60.08532116,,,,,,,,,,,,,,,,,,,,,,,,,,,,,,,,,,,,,,,,,,,-0.042857143,-0.293333333,1,0,0,dief,dief,0,51,51,40,1,dief,images/br_dief.png,images/cb_dief.png
,,,,,,00048,2023-10-04_22h05.43.426,vbt_B2_day1,2022.2.4,Win32,60.08532116,,,,,,,,,,,,,,,,,,,,,,,,,,,,,,,,,,,,,,,,,,,-0.042857143,-0.293333333,1,0,0,locf...,locf...,0,52,52,34,1,lochten,images/br_lochten.png,images/cb_lochten.png
,,,,,,00048,2023-10-04_22h05.43.426,vbt_B2_day1,2022.2.4,Win32,60.08532116,,,,,,,,,,,,,,,,,,,,,,,,,,,,,,,,,,,,,,,,,,,-0.042857143,-0.293333333,1,0,0,m..iek,m..iek,0,53,53,10,1,muziek,images/br_muziek.png,images/cb_muziek.png
,,,,,,00048,2023-10-04_22h05.43.426,vbt_B2_day1,2022.2.4,Win32,60.08532116,,,,,,,,,,,,,,,,,,,,,,,,,,,,,,,,,,,,,,,,,,,-0.042857143,-0.292380952,1,0,0,.iektie,.iektie,0,54,54,48,1,fictie,images/br_fictie.png,images/cb_fictie.png
,,,,,,00048,2023-10-04_22h05.43.426,vbt_B2_day1,2022.2.4,Win32,60.08532116,,,,,,,,,,,,,,,,,,,,,,,,,,,,,,,,,,,,,,,,,,,-0.042857143,-0.292380952,1,0,0,hemel,hemel,0,55,55,45,1,hemel,images/br_hemel.png,images/cb_hemel.png
,,,,,,00048,2023-10-04_22h05.43.426,vbt_B2_day1,2022.2.4,Win32,60.08532116,,,,,,,,,,,,,,,,,,,,,,,,,,,,,,,,,,,,,,,,,,,-0.042857143,-0.292380952,1,0,0,,,0,56,56,9,1,dubbel,images/br_dubbel.png,images/cb_dubbel.png
,,,,,,00048,2023-10-04_22h05.43.426,vbt_B2_day1,2022.2.4,Win32,60.08532116,,,,,,,,,,,,,,,,,,,,,,,,,,,,,,,,,,,,,,,,,,,-0.042857143,-0.291428571,1,0,0,opslaan,opslaan,0,57,57,53,1,opslaan,images/br_opslaan.png,images/cb_opslaan.png
,,,,,,00048,2023-10-04_22h05.43.426,vbt_B2_day1,2022.2.4,Win32,60.08532116,,,,,,,,,,,,,,,,,,,,,,,,,,,,,,,,,,,,,,,,,,,-0.039047619,-0.288571429,1,0,0,tekenen,tekenen,0,58,58,55,1,tekenen,images/br_tekenen.png,images/cb_tekenen.png
,,,,,,00048,2023-10-04_22h05.43.426,vbt_B2_day1,2022.2.4,Win32,60.08532116,,,,,,,,,,,,,,,,,,,,,,,,,,,,,,,,,,,,,,,,,,,-0.034285714,-0.288571429,1,0,0,s.ee...,s.ee...,0,59,59,37,1,spanzing,images/br_spanzing.png,images/cb_spanzing.png
,,,,,,00048,2023-10-04_22h05.43.426,vbt_B2_day1,2022.2.4,Win32,60.08532116,,,,,,,,,,,,,,,,,,,,,,,,,,,,,,,,,,,,,,,,,,,,,,,,,,,,,,,,,
