welcome_mouse.x,welcome_mouse.y,welcome_mouse.leftButton,welcome_mouse.midButton,welcome_mouse.rightButton,welcome_mouse.time,"ID",date,expName,psychopyVersion,OS,frameRate,mouse_2.x,mouse_2.y,mouse_2.leftButton,mouse_2.midButton,mouse_2.rightButton,mouse_2.time,mouse_3.x,mouse_3.y,mouse_3.leftButton,mouse_3.midButton,mouse_3.rightButton,mouse_3.time,train_mouse.x,train_mouse.y,train_mouse.leftButton,train_mouse.midButton,train_mouse.rightButton,train_mouse.time,braille_mouse.x,braille_mouse.y,braille_mouse.leftButton,braille_mouse.midButton,braille_mouse.rightButton,braille_mouse.time,trials.thisRepN,trials.thisTrialN,trials.thisN,trials.thisIndex,trials.ran,nlLet,brLet,cbLet,mouse.x,mouse.y,mouse.leftButton,mouse.midButton,mouse.rightButton,testInstr_mouse.x,testInstr_mouse.y,testInstr_mouse.leftButton,testInstr_mouse.midButton,testInstr_mouse.rightButton,test_mouse.x,test_mouse.y,test_mouse.leftButton,test_mouse.midButton,test_mouse.rightButton,test_response.text,testResp,test_loop.thisRepN,test_loop.thisTrialN,test_loop.thisN,test_loop.thisIndex,test_loop.ran,nlWrd,brWrd,cbWrd
0.064444444,-0.046666667,1,0,0,24.678,00106,2023-11-10_14h04.04.728,vbt_B2_day1,2022.2.4,MacIntel,55.55555556,,,,,,,,,,,,,,,,,,,,,,,,,,,,,,,,,,,,,,,,,,,,,,,,,,,,,,,,,
,,,,,,00106,2023-11-10_14h04.04.728,vbt_B2_day1,2022.2.4,MacIntel,55.55555556,-0.003333333,-0.287777778,1,0,0,12.13,,,,,,,,,,,,,,,,,,,,,,,,,,,,,,,,,,,,,,,,,,,,,,,,,,,
,,,,,,00106,2023-11-10_14h04.04.728,vbt_B2_day1,2022.2.4,MacIntel,55.55555556,,,,,,,-0.082222222,-0.28,1,0,0,33.786,,,,,,,,,,,,,,,,,,,,,,,,,,,,,,,,,,,,,,,,,,,,,
,,,,,,00106,2023-11-10_14h04.04.728,vbt_B2_day1,2022.2.4,MacIntel,55.55555556,,,,,,,,,,,,,0.074444444,0.022222222,1,0,0,36.02,,,,,,,,,,,,,,,,,,,,,,,,,,,,,,,,,,,,,,,
,,,,,,00106,2023-11-10_14h04.04.728,vbt_B2_day1,2022.2.4,MacIntel,55.55555556,,,,,,,,,,,,,,,,,,,0.246666667,0.014444444,1,0,0,133.993,0,0,0,14,1,o,images/br_o.png,images/cb_o.png,,,,,,,,,,,,,,,,,,,,,,,,,
,,,,,,00106,2023-11-10_14h04.04.728,vbt_B2_day1,2022.2.4,MacIntel,55.55555556,,,,,,,,,,,,,,,,,,,0.246666667,0.014444444,1,0,0,4.934,0,1,1,5,1,f,images/br_f.png,images/cb_f.png,,,,,,,,,,,,,,,,,,,,,,,,,
,,,,,,00106,2023-11-10_14h04.04.728,vbt_B2_day1,2022.2.4,MacIntel,55.55555556,,,,,,,,,,,,,,,,,,,0.246666667,0.014444444,1,0,0,3.135,0,2,2,21,1,v,images/br_v.png,images/cb_v.png,,,,,,,,,,,,,,,,,,,,,,,,,
,,,,,,00106,2023-11-10_14h04.04.728,vbt_B2_day1,2022.2.4,MacIntel,55.55555556,,,,,,,,,,,,,,,,,,,0.246666667,0.014444444,1,0,0,4.517,0,3,3,16,1,q,images/br_q.png,images/cb_q.png,,,,,,,,,,,,,,,,,,,,,,,,,
,,,,,,00106,2023-11-10_14h04.04.728,vbt_B2_day1,2022.2.4,MacIntel,55.55555556,,,,,,,,,,,,,,,,,,,0.246666667,0.014444444,1,0,0,4.951,0,4,4,9,1,j,images/br_j.png,images/cb_j.png,,,,,,,,,,,,,,,,,,,,,,,,,
,,,,,,00106,2023-11-10_14h04.04.728,vbt_B2_day1,2022.2.4,MacIntel,55.55555556,,,,,,,,,,,,,,,,,,,0.246666667,0.014444444,1,0,0,2.75,0,5,5,6,1,g,images/br_g.png,images/cb_g.png,,,,,,,,,,,,,,,,,,,,,,,,,
,,,,,,00106,2023-11-10_14h04.04.728,vbt_B2_day1,2022.2.4,MacIntel,55.55555556,,,,,,,,,,,,,,,,,,,0.246666667,0.014444444,1,0,0,3.443,0,6,6,15,1,p,images/br_p.png,images/cb_p.png,,,,,,,,,,,,,,,,,,,,,,,,,
,,,,,,00106,2023-11-10_14h04.04.728,vbt_B2_day1,2022.2.4,MacIntel,55.55555556,,,,,,,,,,,,,,,,,,,0.246666667,0.014444444,1,0,0,6.415,0,7,7,22,1,w,images/br_w.png,images/cb_w.png,,,,,,,,,,,,,,,,,,,,,,,,,
,,,,,,00106,2023-11-10_14h04.04.728,vbt_B2_day1,2022.2.4,MacIntel,55.55555556,,,,,,,,,,,,,,,,,,,0.246666667,0.014444444,1,0,0,5.169,0,8,8,10,1,k,images/br_k.png,images/cb_k.png,,,,,,,,,,,,,,,,,,,,,,,,,
,,,,,,00106,2023-11-10_14h04.04.728,vbt_B2_day1,2022.2.4,MacIntel,55.55555556,,,,,,,,,,,,,,,,,,,0.246666667,0.014444444,1,0,0,7.884,0,9,9,20,1,u,images/br_u.png,images/cb_u.png,,,,,,,,,,,,,,,,,,,,,,,,,
,,,,,,00106,2023-11-10_14h04.04.728,vbt_B2_day1,2022.2.4,MacIntel,55.55555556,,,,,,,,,,,,,,,,,,,0.246666667,0.014444444,1,0,0,2.583,0,10,10,12,1,m,images/br_m.png,images/cb_m.png,,,,,,,,,,,,,,,,,,,,,,,,,
,,,,,,00106,2023-11-10_14h04.04.728,vbt_B2_day1,2022.2.4,MacIntel,55.55555556,,,,,,,,,,,,,,,,,,,0.246666667,0.014444444,1,0,0,3.3,0,11,11,13,1,n,images/br_n.png,images/cb_n.png,,,,,,,,,,,,,,,,,,,,,,,,,
,,,,,,00106,2023-11-10_14h04.04.728,vbt_B2_day1,2022.2.4,MacIntel,55.55555556,,,,,,,,,,,,,,,,,,,0.246666667,0.014444444,1,0,0,9.551,0,12,12,11,1,l,images/br_l.png,images/cb_l.png,,,,,,,,,,,,,,,,,,,,,,,,,
,,,,,,00106,2023-11-10_14h04.04.728,vbt_B2_day1,2022.2.4,MacIntel,55.55555556,,,,,,,,,,,,,,,,,,,0.246666667,0.014444444,1,0,0,8.864,0,13,13,8,1,i,images/br_i.png,images/cb_i.png,,,,,,,,,,,,,,,,,,,,,,,,,
,,,,,,00106,2023-11-10_14h04.04.728,vbt_B2_day1,2022.2.4,MacIntel,55.55555556,,,,,,,,,,,,,,,,,,,0.246666667,0.014444444,1,0,0,3.016,0,14,14,0,1,a,images/br_a.png,images/cb_a.png,,,,,,,,,,,,,,,,,,,,,,,,,
,,,,,,00106,2023-11-10_14h04.04.728,vbt_B2_day1,2022.2.4,MacIntel,55.55555556,,,,,,,,,,,,,,,,,,,0.246666667,0.014444444,1,0,0,2.049,0,15,15,1,1,b,images/br_b.png,images/cb_b.png,,,,,,,,,,,,,,,,,,,,,,,,,
,,,,,,00106,2023-11-10_14h04.04.728,vbt_B2_day1,2022.2.4,MacIntel,55.55555556,,,,,,,,,,,,,,,,,,,0.246666667,0.014444444,1,0,0,4.733,0,16,16,17,1,r,images/br_r.png,images/cb_r.png,,,,,,,,,,,,,,,,,,,,,,,,,
,,,,,,00106,2023-11-10_14h04.04.728,vbt_B2_day1,2022.2.4,MacIntel,55.55555556,,,,,,,,,,,,,,,,,,,0.246666667,0.014444444,1,0,0,6.35,0,17,17,25,1,z,images/br_z.png,images/cb_z.png,,,,,,,,,,,,,,,,,,,,,,,,,
,,,,,,00106,2023-11-10_14h04.04.728,vbt_B2_day1,2022.2.4,MacIntel,55.55555556,,,,,,,,,,,,,,,,,,,0.246666667,0.014444444,1,0,0,6.401,0,18,18,18,1,s,images/br_s.png,images/cb_s.png,,,,,,,,,,,,,,,,,,,,,,,,,
,,,,,,00106,2023-11-10_14h04.04.728,vbt_B2_day1,2022.2.4,MacIntel,55.55555556,,,,,,,,,,,,,,,,,,,0.246666667,0.014444444,1,0,0,2.484,0,19,19,4,1,e,images/br_e.png,images/cb_e.png,,,,,,,,,,,,,,,,,,,,,,,,,
,,,,,,00106,2023-11-10_14h04.04.728,vbt_B2_day1,2022.2.4,MacIntel,55.55555556,,,,,,,,,,,,,,,,,,,0.246666667,0.014444444,1,0,0,10.234,0,20,20,24,1,y,images/br_y.png,images/cb_y.png,,,,,,,,,,,,,,,,,,,,,,,,,
,,,,,,00106,2023-11-10_14h04.04.728,vbt_B2_day1,2022.2.4,MacIntel,55.55555556,,,,,,,,,,,,,,,,,,,0.246666667,0.014444444,1,0,0,6.65,0,21,21,3,1,d,images/br_d.png,images/cb_d.png,,,,,,,,,,,,,,,,,,,,,,,,,
,,,,,,00106,2023-11-10_14h04.04.728,vbt_B2_day1,2022.2.4,MacIntel,55.55555556,,,,,,,,,,,,,,,,,,,0.246666667,0.014444444,1,0,0,4.051,0,22,22,7,1,h,images/br_h.png,images/cb_h.png,,,,,,,,,,,,,,,,,,,,,,,,,
,,,,,,00106,2023-11-10_14h04.04.728,vbt_B2_day1,2022.2.4,MacIntel,55.55555556,,,,,,,,,,,,,,,,,,,0.246666667,0.014444444,1,0,0,4.85,0,23,23,2,1,c,images/br_c.png,images/cb_c.png,,,,,,,,,,,,,,,,,,,,,,,,,
,,,,,,00106,2023-11-10_14h04.04.728,vbt_B2_day1,2022.2.4,MacIntel,55.55555556,,,,,,,,,,,,,,,,,,,0.246666667,0.014444444,1,0,0,13.084,0,24,24,19,1,t,images/br_t.png,images/cb_t.png,,,,,,,,,,,,,,,,,,,,,,,,,
,,,,,,00106,2023-11-10_14h04.04.728,vbt_B2_day1,2022.2.4,MacIntel,55.55555556,,,,,,,,,,,,,,,,,,,0.246666667,0.014444444,1,0,0,6.433,0,25,25,23,1,x,images/br_x.png,images/cb_x.png,,,,,,,,,,,,,,,,,,,,,,,,,
,,,,,,00106,2023-11-10_14h04.04.728,vbt_B2_day1,2022.2.4,MacIntel,55.55555556,,,,,,,,,,,,,,,,,,,0.246666667,0.014444444,1,0,0,200.279,1,0,26,0,1,a,images/br_a.png,images/cb_a.png,,,,,,,,,,,,,,,,,,,,,,,,,
,,,,,,00106,2023-11-10_14h04.04.728,vbt_B2_day1,2022.2.4,MacIntel,55.55555556,,,,,,,,,,,,,,,,,,,0.246666667,0.014444444,1,0,0,8.501,1,1,27,22,1,w,images/br_w.png,images/cb_w.png,,,,,,,,,,,,,,,,,,,,,,,,,
,,,,,,00106,2023-11-10_14h04.04.728,vbt_B2_day1,2022.2.4,MacIntel,55.55555556,,,,,,,,,,,,,,,,,,,0.246666667,0.014444444,1,0,0,4.749,1,2,28,10,1,k,images/br_k.png,images/cb_k.png,,,,,,,,,,,,,,,,,,,,,,,,,
,,,,,,00106,2023-11-10_14h04.04.728,vbt_B2_day1,2022.2.4,MacIntel,55.55555556,,,,,,,,,,,,,,,,,,,0.246666667,0.014444444,1,0,0,2.951,1,3,29,14,1,o,images/br_o.png,images/cb_o.png,,,,,,,,,,,,,,,,,,,,,,,,,
,,,,,,00106,2023-11-10_14h04.04.728,vbt_B2_day1,2022.2.4,MacIntel,55.55555556,,,,,,,,,,,,,,,,,,,0.246666667,0.014444444,1,0,0,10.482,1,4,30,21,1,v,images/br_v.png,images/cb_v.png,,,,,,,,,,,,,,,,,,,,,,,,,
,,,,,,00106,2023-11-10_14h04.04.728,vbt_B2_day1,2022.2.4,MacIntel,55.55555556,,,,,,,,,,,,,,,,,,,0.246666667,0.014444444,1,0,0,3.383,1,5,31,6,1,g,images/br_g.png,images/cb_g.png,,,,,,,,,,,,,,,,,,,,,,,,,
,,,,,,00106,2023-11-10_14h04.04.728,vbt_B2_day1,2022.2.4,MacIntel,55.55555556,,,,,,,,,,,,,,,,,,,0.246666667,0.014444444,1,0,0,3.034,1,6,32,2,1,c,images/br_c.png,images/cb_c.png,,,,,,,,,,,,,,,,,,,,,,,,,
,,,,,,00106,2023-11-10_14h04.04.728,vbt_B2_day1,2022.2.4,MacIntel,55.55555556,,,,,,,,,,,,,,,,,,,0.246666667,0.014444444,1,0,0,4.732,1,7,33,16,1,q,images/br_q.png,images/cb_q.png,,,,,,,,,,,,,,,,,,,,,,,,,
,,,,,,00106,2023-11-10_14h04.04.728,vbt_B2_day1,2022.2.4,MacIntel,55.55555556,,,,,,,,,,,,,,,,,,,0.246666667,0.014444444,1,0,0,9.837,1,8,34,19,1,t,images/br_t.png,images/cb_t.png,,,,,,,,,,,,,,,,,,,,,,,,,
,,,,,,00106,2023-11-10_14h04.04.728,vbt_B2_day1,2022.2.4,MacIntel,55.55555556,,,,,,,,,,,,,,,,,,,0.246666667,0.014444444,1,0,0,4.184,1,9,35,24,1,y,images/br_y.png,images/cb_y.png,,,,,,,,,,,,,,,,,,,,,,,,,
,,,,,,00106,2023-11-10_14h04.04.728,vbt_B2_day1,2022.2.4,MacIntel,55.55555556,,,,,,,,,,,,,,,,,,,0.246666667,0.014444444,1,0,0,7.733,1,10,36,13,1,n,images/br_n.png,images/cb_n.png,,,,,,,,,,,,,,,,,,,,,,,,,
,,,,,,00106,2023-11-10_14h04.04.728,vbt_B2_day1,2022.2.4,MacIntel,55.55555556,,,,,,,,,,,,,,,,,,,0.246666667,0.014444444,1,0,0,3.132,1,11,37,8,1,i,images/br_i.png,images/cb_i.png,,,,,,,,,,,,,,,,,,,,,,,,,
,,,,,,00106,2023-11-10_14h04.04.728,vbt_B2_day1,2022.2.4,MacIntel,55.55555556,,,,,,,,,,,,,,,,,,,0.246666667,0.014444444,1,0,0,3.449,1,12,38,12,1,m,images/br_m.png,images/cb_m.png,,,,,,,,,,,,,,,,,,,,,,,,,
,,,,,,00106,2023-11-10_14h04.04.728,vbt_B2_day1,2022.2.4,MacIntel,55.55555556,,,,,,,,,,,,,,,,,,,0.246666667,0.014444444,1,0,0,0.817,1,13,39,3,1,d,images/br_d.png,images/cb_d.png,,,,,,,,,,,,,,,,,,,,,,,,,
,,,,,,00106,2023-11-10_14h04.04.728,vbt_B2_day1,2022.2.4,MacIntel,55.55555556,,,,,,,,,,,,,,,,,,,0.246666667,0.014444444,1,0,0,3.362,1,14,40,17,1,r,images/br_r.png,images/cb_r.png,,,,,,,,,,,,,,,,,,,,,,,,,
,,,,,,00106,2023-11-10_14h04.04.728,vbt_B2_day1,2022.2.4,MacIntel,55.55555556,,,,,,,,,,,,,,,,,,,0.246666667,0.014444444,1,0,0,7.733,1,15,41,1,1,b,images/br_b.png,images/cb_b.png,,,,,,,,,,,,,,,,,,,,,,,,,
,,,,,,00106,2023-11-10_14h04.04.728,vbt_B2_day1,2022.2.4,MacIntel,55.55555556,,,,,,,,,,,,,,,,,,,0.246666667,0.014444444,1,0,0,0.632,1,16,42,4,1,e,images/br_e.png,images/cb_e.png,,,,,,,,,,,,,,,,,,,,,,,,,
,,,,,,00106,2023-11-10_14h04.04.728,vbt_B2_day1,2022.2.4,MacIntel,55.55555556,,,,,,,,,,,,,,,,,,,0.246666667,0.014444444,1,0,0,4.797,1,17,43,9,1,j,images/br_j.png,images/cb_j.png,,,,,,,,,,,,,,,,,,,,,,,,,
,,,,,,00106,2023-11-10_14h04.04.728,vbt_B2_day1,2022.2.4,MacIntel,55.55555556,,,,,,,,,,,,,,,,,,,0.246666667,0.014444444,1,0,0,6.2,1,18,44,11,1,l,images/br_l.png,images/cb_l.png,,,,,,,,,,,,,,,,,,,,,,,,,
,,,,,,00106,2023-11-10_14h04.04.728,vbt_B2_day1,2022.2.4,MacIntel,55.55555556,,,,,,,,,,,,,,,,,,,0.246666667,0.014444444,1,0,0,2.984,1,19,45,18,1,s,images/br_s.png,images/cb_s.png,,,,,,,,,,,,,,,,,,,,,,,,,
,,,,,,00106,2023-11-10_14h04.04.728,vbt_B2_day1,2022.2.4,MacIntel,55.55555556,,,,,,,,,,,,,,,,,,,0.246666667,0.014444444,1,0,0,8.317,1,20,46,25,1,z,images/br_z.png,images/cb_z.png,,,,,,,,,,,,,,,,,,,,,,,,,
,,,,,,00106,2023-11-10_14h04.04.728,vbt_B2_day1,2022.2.4,MacIntel,55.55555556,,,,,,,,,,,,,,,,,,,0.246666667,0.014444444,1,0,0,2.367,1,21,47,15,1,p,images/br_p.png,images/cb_p.png,,,,,,,,,,,,,,,,,,,,,,,,,
,,,,,,00106,2023-11-10_14h04.04.728,vbt_B2_day1,2022.2.4,MacIntel,55.55555556,,,,,,,,,,,,,,,,,,,0.246666667,0.014444444,1,0,0,6.216,1,22,48,7,1,h,images/br_h.png,images/cb_h.png,,,,,,,,,,,,,,,,,,,,,,,,,
,,,,,,00106,2023-11-10_14h04.04.728,vbt_B2_day1,2022.2.4,MacIntel,55.55555556,,,,,,,,,,,,,,,,,,,0.246666667,0.014444444,1,0,0,3.901,1,23,49,23,1,x,images/br_x.png,images/cb_x.png,,,,,,,,,,,,,,,,,,,,,,,,,
,,,,,,00106,2023-11-10_14h04.04.728,vbt_B2_day1,2022.2.4,MacIntel,55.55555556,,,,,,,,,,,,,,,,,,,0.246666667,0.014444444,1,0,0,5.984,1,24,50,20,1,u,images/br_u.png,images/cb_u.png,,,,,,,,,,,,,,,,,,,,,,,,,
,,,,,,00106,2023-11-10_14h04.04.728,vbt_B2_day1,2022.2.4,MacIntel,55.55555556,,,,,,,,,,,,,,,,,,,0.246666667,0.014444444,1,0,0,4.221,1,25,51,5,1,f,images/br_f.png,images/cb_f.png,,,,,,,,,,,,,,,,,,,,,,,,,
,,,,,,00106,2023-11-10_14h04.04.728,vbt_B2_day1,2022.2.4,MacIntel,55.55555556,,,,,,,,,,,,,,,,,,,0.246666667,0.014444444,1,0,0,174.946,2,0,52,8,1,i,images/br_i.png,images/cb_i.png,,,,,,,,,,,,,,,,,,,,,,,,,
,,,,,,00106,2023-11-10_14h04.04.728,vbt_B2_day1,2022.2.4,MacIntel,55.55555556,,,,,,,,,,,,,,,,,,,0.246666667,0.014444444,1,0,0,8.571,2,1,53,21,1,v,images/br_v.png,images/cb_v.png,,,,,,,,,,,,,,,,,,,,,,,,,
,,,,,,00106,2023-11-10_14h04.04.728,vbt_B2_day1,2022.2.4,MacIntel,55.55555556,,,,,,,,,,,,,,,,,,,0.293333333,-0.03,1,0,0,187.532,2,2,54,24,1,y,images/br_y.png,images/cb_y.png,,,,,,,,,,,,,,,,,,,,,,,,,
,,,,,,00106,2023-11-10_14h04.04.728,vbt_B2_day1,2022.2.4,MacIntel,55.55555556,,,,,,,,,,,,,,,,,,,0.293333333,-0.03,1,0,0,21.918,2,3,55,3,1,d,images/br_d.png,images/cb_d.png,,,,,,,,,,,,,,,,,,,,,,,,,
,,,,,,00106,2023-11-10_14h04.04.728,vbt_B2_day1,2022.2.4,MacIntel,55.55555556,,,,,,,,,,,,,,,,,,,0.177777778,-0.21,1,0,0,252.134,2,4,56,20,1,u,images/br_u.png,images/cb_u.png,,,,,,,,,,,,,,,,,,,,,,,,,
,,,,,,00106,2023-11-10_14h04.04.728,vbt_B2_day1,2022.2.4,MacIntel,55.55555556,,,,,,,,,,,,,,,,,,,0.177777778,-0.21,1,0,0,248.122,2,5,57,12,1,m,images/br_m.png,images/cb_m.png,,,,,,,,,,,,,,,,,,,,,,,,,
,,,,,,00106,2023-11-10_14h04.04.728,vbt_B2_day1,2022.2.4,MacIntel,55.55555556,,,,,,,,,,,,,,,,,,,0.427777778,-0.082222222,1,0,0,1.342,2,6,58,10,1,k,images/br_k.png,images/cb_k.png,,,,,,,,,,,,,,,,,,,,,,,,,
,,,,,,00106,2023-11-10_14h04.04.728,vbt_B2_day1,2022.2.4,MacIntel,55.55555556,,,,,,,,,,,,,,,,,,,0.427777778,-0.082222222,1,0,0,0.034,2,7,59,0,1,a,images/br_a.png,images/cb_a.png,,,,,,,,,,,,,,,,,,,,,,,,,
,,,,,,00106,2023-11-10_14h04.04.728,vbt_B2_day1,2022.2.4,MacIntel,55.55555556,,,,,,,,,,,,,,,,,,,0.427777778,-0.082222222,1,0,0,0.701,2,8,60,5,1,f,images/br_f.png,images/cb_f.png,,,,,,,,,,,,,,,,,,,,,,,,,
,,,,,,00106,2023-11-10_14h04.04.728,vbt_B2_day1,2022.2.4,MacIntel,55.55555556,,,,,,,,,,,,,,,,,,,0.09,-0.231111111,1,0,0,2.967,2,9,61,6,1,g,images/br_g.png,images/cb_g.png,,,,,,,,,,,,,,,,,,,,,,,,,
,,,,,,00106,2023-11-10_14h04.04.728,vbt_B2_day1,2022.2.4,MacIntel,55.55555556,,,,,,,,,,,,,,,,,,,0.197777778,-0.156666667,1,0,0,3.884,2,10,62,14,1,o,images/br_o.png,images/cb_o.png,,,,,,,,,,,,,,,,,,,,,,,,,
,,,,,,00106,2023-11-10_14h04.04.728,vbt_B2_day1,2022.2.4,MacIntel,55.55555556,,,,,,,,,,,,,,,,,,,0.197777778,-0.156666667,1,0,0,3.602,2,11,63,17,1,r,images/br_r.png,images/cb_r.png,,,,,,,,,,,,,,,,,,,,,,,,,
,,,,,,00106,2023-11-10_14h04.04.728,vbt_B2_day1,2022.2.4,MacIntel,55.55555556,,,,,,,,,,,,,,,,,,,0.197777778,-0.156666667,1,0,0,1.302,2,12,64,15,1,p,images/br_p.png,images/cb_p.png,,,,,,,,,,,,,,,,,,,,,,,,,
,,,,,,00106,2023-11-10_14h04.04.728,vbt_B2_day1,2022.2.4,MacIntel,55.55555556,,,,,,,,,,,,,,,,,,,0.197777778,-0.156666667,1,0,0,0.179,2,13,65,1,1,b,images/br_b.png,images/cb_b.png,,,,,,,,,,,,,,,,,,,,,,,,,
,,,,,,00106,2023-11-10_14h04.04.728,vbt_B2_day1,2022.2.4,MacIntel,55.55555556,,,,,,,,,,,,,,,,,,,0.197777778,-0.156666667,1,0,0,1.467,2,14,66,23,1,x,images/br_x.png,images/cb_x.png,,,,,,,,,,,,,,,,,,,,,,,,,
,,,,,,00106,2023-11-10_14h04.04.728,vbt_B2_day1,2022.2.4,MacIntel,55.55555556,,,,,,,,,,,,,,,,,,,0.197777778,-0.156666667,1,0,0,2.099,2,15,67,22,1,w,images/br_w.png,images/cb_w.png,,,,,,,,,,,,,,,,,,,,,,,,,
,,,,,,00106,2023-11-10_14h04.04.728,vbt_B2_day1,2022.2.4,MacIntel,55.55555556,,,,,,,,,,,,,,,,,,,0.197777778,-0.156666667,1,0,0,4.885,2,16,68,13,1,n,images/br_n.png,images/cb_n.png,,,,,,,,,,,,,,,,,,,,,,,,,
,,,,,,00106,2023-11-10_14h04.04.728,vbt_B2_day1,2022.2.4,MacIntel,55.55555556,,,,,,,,,,,,,,,,,,,0.197777778,-0.156666667,1,0,0,2.582,2,17,69,4,1,e,images/br_e.png,images/cb_e.png,,,,,,,,,,,,,,,,,,,,,,,,,
,,,,,,00106,2023-11-10_14h04.04.728,vbt_B2_day1,2022.2.4,MacIntel,55.55555556,,,,,,,,,,,,,,,,,,,0.055555556,-0.225555556,1,0,0,1.55,2,18,70,18,1,s,images/br_s.png,images/cb_s.png,,,,,,,,,,,,,,,,,,,,,,,,,
,,,,,,00106,2023-11-10_14h04.04.728,vbt_B2_day1,2022.2.4,MacIntel,55.55555556,,,,,,,,,,,,,,,,,,,0.055555556,-0.225555556,1,0,0,1.267,2,19,71,19,1,t,images/br_t.png,images/cb_t.png,,,,,,,,,,,,,,,,,,,,,,,,,
,,,,,,00106,2023-11-10_14h04.04.728,vbt_B2_day1,2022.2.4,MacIntel,55.55555556,,,,,,,,,,,,,,,,,,,0.055555556,-0.225555556,1,0,0,2.929,2,20,72,25,1,z,images/br_z.png,images/cb_z.png,,,,,,,,,,,,,,,,,,,,,,,,,
,,,,,,00106,2023-11-10_14h04.04.728,vbt_B2_day1,2022.2.4,MacIntel,55.55555556,,,,,,,,,,,,,,,,,,,0.055555556,-0.225555556,1,0,0,1.037,2,21,73,9,1,j,images/br_j.png,images/cb_j.png,,,,,,,,,,,,,,,,,,,,,,,,,
,,,,,,00106,2023-11-10_14h04.04.728,vbt_B2_day1,2022.2.4,MacIntel,55.55555556,,,,,,,,,,,,,,,,,,,0.055555556,-0.225555556,1,0,0,0.08,2,22,74,7,1,h,images/br_h.png,images/cb_h.png,,,,,,,,,,,,,,,,,,,,,,,,,
,,,,,,00106,2023-11-10_14h04.04.728,vbt_B2_day1,2022.2.4,MacIntel,55.55555556,,,,,,,,,,,,,,,,,,,0.055555556,-0.225555556,1,0,0,2.016,2,23,75,11,1,l,images/br_l.png,images/cb_l.png,,,,,,,,,,,,,,,,,,,,,,,,,
,,,,,,00106,2023-11-10_14h04.04.728,vbt_B2_day1,2022.2.4,MacIntel,55.55555556,,,,,,,,,,,,,,,,,,,0.055555556,-0.225555556,1,0,0,2.468,2,24,76,2,1,c,images/br_c.png,images/cb_c.png,,,,,,,,,,,,,,,,,,,,,,,,,
,,,,,,00106,2023-11-10_14h04.04.728,vbt_B2_day1,2022.2.4,MacIntel,55.55555556,,,,,,,,,,,,,,,,,,,0.055555556,-0.225555556,1,0,0,4.767,2,25,77,16,1,q,images/br_q.png,images/cb_q.png,,,,,,,,,,,,,,,,,,,,,,,,,
,,,,,,00106,2023-11-10_14h04.04.728,vbt_B2_day1,2022.2.4,MacIntel,55.55555556,,,,,,,,,,,,,,,,,,,0.055555556,-0.225555556,1,0,0,2.566,3,0,78,17,1,r,images/br_r.png,images/cb_r.png,,,,,,,,,,,,,,,,,,,,,,,,,
,,,,,,00106,2023-11-10_14h04.04.728,vbt_B2_day1,2022.2.4,MacIntel,55.55555556,,,,,,,,,,,,,,,,,,,0.055555556,-0.225555556,1,0,0,0.767,3,1,79,16,1,q,images/br_q.png,images/cb_q.png,,,,,,,,,,,,,,,,,,,,,,,,,
,,,,,,00106,2023-11-10_14h04.04.728,vbt_B2_day1,2022.2.4,MacIntel,55.55555556,,,,,,,,,,,,,,,,,,,0.055555556,-0.225555556,1,0,0,2.714,3,2,80,13,1,n,images/br_n.png,images/cb_n.png,,,,,,,,,,,,,,,,,,,,,,,,,
,,,,,,00106,2023-11-10_14h04.04.728,vbt_B2_day1,2022.2.4,MacIntel,55.55555556,,,,,,,,,,,,,,,,,,,0.055555556,-0.225555556,1,0,0,2.704,3,3,81,24,1,y,images/br_y.png,images/cb_y.png,,,,,,,,,,,,,,,,,,,,,,,,,
,,,,,,00106,2023-11-10_14h04.04.728,vbt_B2_day1,2022.2.4,MacIntel,55.55555556,,,,,,,,,,,,,,,,,,,0.055555556,-0.225555556,1,0,0,2.216,3,4,82,6,1,g,images/br_g.png,images/cb_g.png,,,,,,,,,,,,,,,,,,,,,,,,,
,,,,,,00106,2023-11-10_14h04.04.728,vbt_B2_day1,2022.2.4,MacIntel,55.55555556,,,,,,,,,,,,,,,,,,,0.055555556,-0.225555556,1,0,0,0.967,3,5,83,18,1,s,images/br_s.png,images/cb_s.png,,,,,,,,,,,,,,,,,,,,,,,,,
,,,,,,00106,2023-11-10_14h04.04.728,vbt_B2_day1,2022.2.4,MacIntel,55.55555556,,,,,,,,,,,,,,,,,,,0.055555556,-0.225555556,1,0,0,1,3,6,84,15,1,p,images/br_p.png,images/cb_p.png,,,,,,,,,,,,,,,,,,,,,,,,,
,,,,,,00106,2023-11-10_14h04.04.728,vbt_B2_day1,2022.2.4,MacIntel,55.55555556,,,,,,,,,,,,,,,,,,,0.055555556,-0.225555556,1,0,0,3.502,3,7,85,7,1,h,images/br_h.png,images/cb_h.png,,,,,,,,,,,,,,,,,,,,,,,,,
,,,,,,00106,2023-11-10_14h04.04.728,vbt_B2_day1,2022.2.4,MacIntel,55.55555556,,,,,,,,,,,,,,,,,,,0.055555556,-0.225555556,1,0,0,1.764,3,8,86,2,1,c,images/br_c.png,images/cb_c.png,,,,,,,,,,,,,,,,,,,,,,,,,
,,,,,,00106,2023-11-10_14h04.04.728,vbt_B2_day1,2022.2.4,MacIntel,55.55555556,,,,,,,,,,,,,,,,,,,0.055555556,-0.225555556,1,0,0,1.717,3,9,87,4,1,e,images/br_e.png,images/cb_e.png,,,,,,,,,,,,,,,,,,,,,,,,,
,,,,,,00106,2023-11-10_14h04.04.728,vbt_B2_day1,2022.2.4,MacIntel,55.55555556,,,,,,,,,,,,,,,,,,,0.055555556,-0.225555556,1,0,0,2,3,10,88,5,1,f,images/br_f.png,images/cb_f.png,,,,,,,,,,,,,,,,,,,,,,,,,
,,,,,,00106,2023-11-10_14h04.04.728,vbt_B2_day1,2022.2.4,MacIntel,55.55555556,,,,,,,,,,,,,,,,,,,0.055555556,-0.225555556,1,0,0,0.119,3,11,89,3,1,d,images/br_d.png,images/cb_d.png,,,,,,,,,,,,,,,,,,,,,,,,,
,,,,,,00106,2023-11-10_14h04.04.728,vbt_B2_day1,2022.2.4,MacIntel,55.55555556,,,,,,,,,,,,,,,,,,,0.055555556,-0.225555556,1,0,0,2.366,3,12,90,1,1,b,images/br_b.png,images/cb_b.png,,,,,,,,,,,,,,,,,,,,,,,,,
,,,,,,00106,2023-11-10_14h04.04.728,vbt_B2_day1,2022.2.4,MacIntel,55.55555556,,,,,,,,,,,,,,,,,,,0.055555556,-0.225555556,1,0,0,0.334,3,13,91,23,1,x,images/br_x.png,images/cb_x.png,,,,,,,,,,,,,,,,,,,,,,,,,
,,,,,,00106,2023-11-10_14h04.04.728,vbt_B2_day1,2022.2.4,MacIntel,55.55555556,,,,,,,,,,,,,,,,,,,0.068888889,-0.07,1,0,0,1.117,3,14,92,19,1,t,images/br_t.png,images/cb_t.png,,,,,,,,,,,,,,,,,,,,,,,,,
,,,,,,00106,2023-11-10_14h04.04.728,vbt_B2_day1,2022.2.4,MacIntel,55.55555556,,,,,,,,,,,,,,,,,,,0.068888889,-0.07,1,0,0,0.802,3,15,93,8,1,i,images/br_i.png,images/cb_i.png,,,,,,,,,,,,,,,,,,,,,,,,,
,,,,,,00106,2023-11-10_14h04.04.728,vbt_B2_day1,2022.2.4,MacIntel,55.55555556,,,,,,,,,,,,,,,,,,,0.068888889,-0.07,1,0,0,0.55,3,16,94,10,1,k,images/br_k.png,images/cb_k.png,,,,,,,,,,,,,,,,,,,,,,,,,
,,,,,,00106,2023-11-10_14h04.04.728,vbt_B2_day1,2022.2.4,MacIntel,55.55555556,,,,,,,,,,,,,,,,,,,0.068888889,-0.07,1,0,0,1.182,3,17,95,0,1,a,images/br_a.png,images/cb_a.png,,,,,,,,,,,,,,,,,,,,,,,,,
,,,,,,00106,2023-11-10_14h04.04.728,vbt_B2_day1,2022.2.4,MacIntel,55.55555556,,,,,,,,,,,,,,,,,,,0.068888889,-0.07,1,0,0,2.151,3,18,96,14,1,o,images/br_o.png,images/cb_o.png,,,,,,,,,,,,,,,,,,,,,,,,,
,,,,,,00106,2023-11-10_14h04.04.728,vbt_B2_day1,2022.2.4,MacIntel,55.55555556,,,,,,,,,,,,,,,,,,,0.068888889,-0.07,1,0,0,1.151,3,19,97,22,1,w,images/br_w.png,images/cb_w.png,,,,,,,,,,,,,,,,,,,,,,,,,
,,,,,,00106,2023-11-10_14h04.04.728,vbt_B2_day1,2022.2.4,MacIntel,55.55555556,,,,,,,,,,,,,,,,,,,0.068888889,-0.07,1,0,0,0.55,3,20,98,11,1,l,images/br_l.png,images/cb_l.png,,,,,,,,,,,,,,,,,,,,,,,,,
,,,,,,00106,2023-11-10_14h04.04.728,vbt_B2_day1,2022.2.4,MacIntel,55.55555556,,,,,,,,,,,,,,,,,,,0.068888889,-0.07,1,0,0,1.283,3,21,99,20,1,u,images/br_u.png,images/cb_u.png,,,,,,,,,,,,,,,,,,,,,,,,,
,,,,,,00106,2023-11-10_14h04.04.728,vbt_B2_day1,2022.2.4,MacIntel,55.55555556,,,,,,,,,,,,,,,,,,,0.068888889,-0.07,1,0,0,0.816,3,22,100,12,1,m,images/br_m.png,images/cb_m.png,,,,,,,,,,,,,,,,,,,,,,,,,
,,,,,,00106,2023-11-10_14h04.04.728,vbt_B2_day1,2022.2.4,MacIntel,55.55555556,,,,,,,,,,,,,,,,,,,0.068888889,-0.07,1,0,0,1.085,3,23,101,9,1,j,images/br_j.png,images/cb_j.png,,,,,,,,,,,,,,,,,,,,,,,,,
,,,,,,00106,2023-11-10_14h04.04.728,vbt_B2_day1,2022.2.4,MacIntel,55.55555556,,,,,,,,,,,,,,,,,,,0.068888889,-0.07,1,0,0,1.353,3,24,102,25,1,z,images/br_z.png,images/cb_z.png,,,,,,,,,,,,,,,,,,,,,,,,,
,,,,,,00106,2023-11-10_14h04.04.728,vbt_B2_day1,2022.2.4,MacIntel,55.55555556,,,,,,,,,,,,,,,,,,,0.068888889,-0.07,1,0,0,0.901,3,25,103,21,1,v,images/br_v.png,images/cb_v.png,,,,,,,,,,,,,,,,,,,,,,,,,
,,,,,,00106,2023-11-10_14h04.04.728,vbt_B2_day1,2022.2.4,MacIntel,55.55555556,,,,,,,,,,,,,,,,,,,0.068888889,-0.07,1,0,0,0.901,4,0,104,4,1,e,images/br_e.png,images/cb_e.png,,,,,,,,,,,,,,,,,,,,,,,,,
,,,,,,00106,2023-11-10_14h04.04.728,vbt_B2_day1,2022.2.4,MacIntel,55.55555556,,,,,,,,,,,,,,,,,,,0.068888889,-0.07,1,0,0,1.182,4,1,105,12,1,m,images/br_m.png,images/cb_m.png,,,,,,,,,,,,,,,,,,,,,,,,,
,,,,,,00106,2023-11-10_14h04.04.728,vbt_B2_day1,2022.2.4,MacIntel,55.55555556,,,,,,,,,,,,,,,,,,,0.068888889,-0.07,1,0,0,0.617,4,2,106,9,1,j,images/br_j.png,images/cb_j.png,,,,,,,,,,,,,,,,,,,,,,,,,
,,,,,,00106,2023-11-10_14h04.04.728,vbt_B2_day1,2022.2.4,MacIntel,55.55555556,,,,,,,,,,,,,,,,,,,0.054444444,-0.168888889,1,0,1,2.301,4,3,107,16,1,q,images/br_q.png,images/cb_q.png,,,,,,,,,,,,,,,,,,,,,,,,,
,,,,,,00106,2023-11-10_14h04.04.728,vbt_B2_day1,2022.2.4,MacIntel,55.55555556,,,,,,,,,,,,,,,,,,,0.054444444,-0.168888889,1,0,1,0.336,4,4,108,5,1,f,images/br_f.png,images/cb_f.png,,,,,,,,,,,,,,,,,,,,,,,,,
,,,,,,00106,2023-11-10_14h04.04.728,vbt_B2_day1,2022.2.4,MacIntel,55.55555556,,,,,,,,,,,,,,,,,,,0.054444444,-0.168888889,1,0,1,0.209,4,5,109,2,1,c,images/br_c.png,images/cb_c.png,,,,,,,,,,,,,,,,,,,,,,,,,
,,,,,,00106,2023-11-10_14h04.04.728,vbt_B2_day1,2022.2.4,MacIntel,55.55555556,,,,,,,,,,,,,,,,,,,0.054444444,-0.168888889,1,0,1,0.883,4,6,110,8,1,i,images/br_i.png,images/cb_i.png,,,,,,,,,,,,,,,,,,,,,,,,,
,,,,,,00106,2023-11-10_14h04.04.728,vbt_B2_day1,2022.2.4,MacIntel,55.55555556,,,,,,,,,,,,,,,,,,,0.054444444,-0.168888889,1,0,1,0.333,4,7,111,25,1,z,images/br_z.png,images/cb_z.png,,,,,,,,,,,,,,,,,,,,,,,,,
,,,,,,00106,2023-11-10_14h04.04.728,vbt_B2_day1,2022.2.4,MacIntel,55.55555556,,,,,,,,,,,,,,,,,,,0.054444444,-0.168888889,1,0,1,0.25,4,8,112,1,1,b,images/br_b.png,images/cb_b.png,,,,,,,,,,,,,,,,,,,,,,,,,
,,,,,,00106,2023-11-10_14h04.04.728,vbt_B2_day1,2022.2.4,MacIntel,55.55555556,,,,,,,,,,,,,,,,,,,0.054444444,-0.168888889,1,0,1,1.101,4,9,113,21,1,v,images/br_v.png,images/cb_v.png,,,,,,,,,,,,,,,,,,,,,,,,,
,,,,,,00106,2023-11-10_14h04.04.728,vbt_B2_day1,2022.2.4,MacIntel,55.55555556,,,,,,,,,,,,,,,,,,,0.054444444,-0.168888889,1,0,1,0.701,4,10,114,14,1,o,images/br_o.png,images/cb_o.png,,,,,,,,,,,,,,,,,,,,,,,,,
,,,,,,00106,2023-11-10_14h04.04.728,vbt_B2_day1,2022.2.4,MacIntel,55.55555556,,,,,,,,,,,,,,,,,,,0.054444444,-0.168888889,1,0,1,0.516,4,11,115,6,1,g,images/br_g.png,images/cb_g.png,,,,,,,,,,,,,,,,,,,,,,,,,
,,,,,,00106,2023-11-10_14h04.04.728,vbt_B2_day1,2022.2.4,MacIntel,55.55555556,,,,,,,,,,,,,,,,,,,0.054444444,-0.168888889,1,0,1,0.983,4,12,116,0,1,a,images/br_a.png,images/cb_a.png,,,,,,,,,,,,,,,,,,,,,,,,,
,,,,,,00106,2023-11-10_14h04.04.728,vbt_B2_day1,2022.2.4,MacIntel,55.55555556,,,,,,,,,,,,,,,,,,,0.054444444,-0.168888889,1,0,1,1.797,4,13,117,7,1,h,images/br_h.png,images/cb_h.png,,,,,,,,,,,,,,,,,,,,,,,,,
,,,,,,00106,2023-11-10_14h04.04.728,vbt_B2_day1,2022.2.4,MacIntel,55.55555556,,,,,,,,,,,,,,,,,,,0.054444444,-0.168888889,1,0,1,3.65,4,14,118,13,1,n,images/br_n.png,images/cb_n.png,,,,,,,,,,,,,,,,,,,,,,,,,
,,,,,,00106,2023-11-10_14h04.04.728,vbt_B2_day1,2022.2.4,MacIntel,55.55555556,,,,,,,,,,,,,,,,,,,0.054444444,-0.168888889,1,0,1,0.166,4,15,119,17,1,r,images/br_r.png,images/cb_r.png,,,,,,,,,,,,,,,,,,,,,,,,,
,,,,,,00106,2023-11-10_14h04.04.728,vbt_B2_day1,2022.2.4,MacIntel,55.55555556,,,,,,,,,,,,,,,,,,,0.054444444,-0.168888889,1,0,1,0.333,4,16,120,11,1,l,images/br_l.png,images/cb_l.png,,,,,,,,,,,,,,,,,,,,,,,,,
,,,,,,00106,2023-11-10_14h04.04.728,vbt_B2_day1,2022.2.4,MacIntel,55.55555556,,,,,,,,,,,,,,,,,,,0.054444444,-0.168888889,1,0,1,0.316,4,17,121,10,1,k,images/br_k.png,images/cb_k.png,,,,,,,,,,,,,,,,,,,,,,,,,
,,,,,,00106,2023-11-10_14h04.04.728,vbt_B2_day1,2022.2.4,MacIntel,55.55555556,,,,,,,,,,,,,,,,,,,0.054444444,-0.168888889,1,0,1,1.018,4,18,122,23,1,x,images/br_x.png,images/cb_x.png,,,,,,,,,,,,,,,,,,,,,,,,,
,,,,,,00106,2023-11-10_14h04.04.728,vbt_B2_day1,2022.2.4,MacIntel,55.55555556,,,,,,,,,,,,,,,,,,,0.054444444,-0.168888889,1,0,1,1.649,4,19,123,22,1,w,images/br_w.png,images/cb_w.png,,,,,,,,,,,,,,,,,,,,,,,,,
,,,,,,00106,2023-11-10_14h04.04.728,vbt_B2_day1,2022.2.4,MacIntel,55.55555556,,,,,,,,,,,,,,,,,,,0.054444444,-0.168888889,1,0,1,0.566,4,20,124,18,1,s,images/br_s.png,images/cb_s.png,,,,,,,,,,,,,,,,,,,,,,,,,
,,,,,,00106,2023-11-10_14h04.04.728,vbt_B2_day1,2022.2.4,MacIntel,55.55555556,,,,,,,,,,,,,,,,,,,0.054444444,-0.168888889,1,0,1,0.249,4,21,125,24,1,y,images/br_y.png,images/cb_y.png,,,,,,,,,,,,,,,,,,,,,,,,,
,,,,,,00106,2023-11-10_14h04.04.728,vbt_B2_day1,2022.2.4,MacIntel,55.55555556,,,,,,,,,,,,,,,,,,,0.054444444,-0.168888889,0,0,1,0.086,4,22,126,3,1,d,images/br_d.png,images/cb_d.png,,,,,,,,,,,,,,,,,,,,,,,,,
,,,,,,00106,2023-11-10_14h04.04.728,vbt_B2_day1,2022.2.4,MacIntel,55.55555556,,,,,,,,,,,,,,,,,,,0.054444444,-0.167777778,1,0,1,0.15,4,23,127,19,1,t,images/br_t.png,images/cb_t.png,,,,,,,,,,,,,,,,,,,,,,,,,
,,,,,,00106,2023-11-10_14h04.04.728,vbt_B2_day1,2022.2.4,MacIntel,55.55555556,,,,,,,,,,,,,,,,,,,0.054444444,-0.167777778,0,0,1,0.072,4,24,128,15,1,p,images/br_p.png,images/cb_p.png,,,,,,,,,,,,,,,,,,,,,,,,,
,,,,,,00106,2023-11-10_14h04.04.728,vbt_B2_day1,2022.2.4,MacIntel,55.55555556,,,,,,,,,,,,,,,,,,,0.054444444,-0.167777778,1,0,1,1.216,4,25,129,20,1,u,images/br_u.png,images/cb_u.png,,,,,,,,,,,,,,,,,,,,,,,,,
,,,,,,00106,2023-11-10_14h04.04.728,vbt_B2_day1,2022.2.4,MacIntel,55.55555556,,,,,,,,,,,,,,,,,,,0.055555556,-0.167777778,1,0,1,0.384,5,0,130,13,1,n,images/br_n.png,images/cb_n.png,,,,,,,,,,,,,,,,,,,,,,,,,
,,,,,,00106,2023-11-10_14h04.04.728,vbt_B2_day1,2022.2.4,MacIntel,55.55555556,,,,,,,,,,,,,,,,,,,0.055555556,-0.167777778,0,0,1,0.067,5,1,131,23,1,x,images/br_x.png,images/cb_x.png,,,,,,,,,,,,,,,,,,,,,,,,,
,,,,,,00106,2023-11-10_14h04.04.728,vbt_B2_day1,2022.2.4,MacIntel,55.55555556,,,,,,,,,,,,,,,,,,,0.055555556,-0.166666667,1,0,1,0.566,5,2,132,1,1,b,images/br_b.png,images/cb_b.png,,,,,,,,,,,,,,,,,,,,,,,,,
,,,,,,00106,2023-11-10_14h04.04.728,vbt_B2_day1,2022.2.4,MacIntel,55.55555556,,,,,,,,,,,,,,,,,,,0.055555556,-0.166666667,1,0,1,0.299,5,3,133,25,1,z,images/br_z.png,images/cb_z.png,,,,,,,,,,,,,,,,,,,,,,,,,
,,,,,,00106,2023-11-10_14h04.04.728,vbt_B2_day1,2022.2.4,MacIntel,55.55555556,,,,,,,,,,,,,,,,,,,0.055555556,-0.165555556,1,0,1,0.2,5,4,134,8,1,i,images/br_i.png,images/cb_i.png,,,,,,,,,,,,,,,,,,,,,,,,,
,,,,,,00106,2023-11-10_14h04.04.728,vbt_B2_day1,2022.2.4,MacIntel,55.55555556,,,,,,,,,,,,,,,,,,,0.055555556,-0.165555556,1,0,1,6.05,5,5,135,6,1,g,images/br_g.png,images/cb_g.png,,,,,,,,,,,,,,,,,,,,,,,,,
,,,,,,00106,2023-11-10_14h04.04.728,vbt_B2_day1,2022.2.4,MacIntel,55.55555556,,,,,,,,,,,,,,,,,,,0.062222222,-0.13,1,0,1,1.217,5,6,136,10,1,k,images/br_k.png,images/cb_k.png,,,,,,,,,,,,,,,,,,,,,,,,,
,,,,,,00106,2023-11-10_14h04.04.728,vbt_B2_day1,2022.2.4,MacIntel,55.55555556,,,,,,,,,,,,,,,,,,,0.057777778,-0.123333333,1,0,1,0.766,5,7,137,24,1,y,images/br_y.png,images/cb_y.png,,,,,,,,,,,,,,,,,,,,,,,,,
,,,,,,00106,2023-11-10_14h04.04.728,vbt_B2_day1,2022.2.4,MacIntel,55.55555556,,,,,,,,,,,,,,,,,,,0.057777778,-0.123333333,1,0,1,0.318,5,8,138,15,1,p,images/br_p.png,images/cb_p.png,,,,,,,,,,,,,,,,,,,,,,,,,
,,,,,,00106,2023-11-10_14h04.04.728,vbt_B2_day1,2022.2.4,MacIntel,55.55555556,,,,,,,,,,,,,,,,,,,0.044444444,-0.146666667,1,0,1,0.234,5,9,139,0,1,a,images/br_a.png,images/cb_a.png,,,,,,,,,,,,,,,,,,,,,,,,,
,,,,,,00106,2023-11-10_14h04.04.728,vbt_B2_day1,2022.2.4,MacIntel,55.55555556,,,,,,,,,,,,,,,,,,,0.044444444,-0.146666667,0,0,1,0.151,5,10,140,5,1,f,images/br_f.png,images/cb_f.png,,,,,,,,,,,,,,,,,,,,,,,,,
,,,,,,00106,2023-11-10_14h04.04.728,vbt_B2_day1,2022.2.4,MacIntel,55.55555556,,,,,,,,,,,,,,,,,,,0.044444444,-0.146666667,1,0,1,1.167,5,11,141,11,1,l,images/br_l.png,images/cb_l.png,,,,,,,,,,,,,,,,,,,,,,,,,
,,,,,,00106,2023-11-10_14h04.04.728,vbt_B2_day1,2022.2.4,MacIntel,55.55555556,,,,,,,,,,,,,,,,,,,0.044444444,-0.146666667,1,0,1,0.416,5,12,142,12,1,m,images/br_m.png,images/cb_m.png,,,,,,,,,,,,,,,,,,,,,,,,,
,,,,,,00106,2023-11-10_14h04.04.728,vbt_B2_day1,2022.2.4,MacIntel,55.55555556,,,,,,,,,,,,,,,,,,,0.044444444,-0.146666667,1,0,1,1.016,5,13,143,4,1,e,images/br_e.png,images/cb_e.png,,,,,,,,,,,,,,,,,,,,,,,,,
,,,,,,00106,2023-11-10_14h04.04.728,vbt_B2_day1,2022.2.4,MacIntel,55.55555556,,,,,,,,,,,,,,,,,,,0.044444444,-0.146666667,1,0,1,0.066,5,14,144,7,1,h,images/br_h.png,images/cb_h.png,,,,,,,,,,,,,,,,,,,,,,,,,
,,,,,,00106,2023-11-10_14h04.04.728,vbt_B2_day1,2022.2.4,MacIntel,55.55555556,,,,,,,,,,,,,,,,,,,0.044444444,-0.146666667,1,0,1,0.984,5,15,145,18,1,s,images/br_s.png,images/cb_s.png,,,,,,,,,,,,,,,,,,,,,,,,,
,,,,,,00106,2023-11-10_14h04.04.728,vbt_B2_day1,2022.2.4,MacIntel,55.55555556,,,,,,,,,,,,,,,,,,,0.044444444,-0.146666667,1,0,1,1.7,5,16,146,16,1,q,images/br_q.png,images/cb_q.png,,,,,,,,,,,,,,,,,,,,,,,,,
,,,,,,00106,2023-11-10_14h04.04.728,vbt_B2_day1,2022.2.4,MacIntel,55.55555556,,,,,,,,,,,,,,,,,,,0.044444444,-0.146666667,1,0,1,1.533,5,17,147,22,1,w,images/br_w.png,images/cb_w.png,,,,,,,,,,,,,,,,,,,,,,,,,
,,,,,,00106,2023-11-10_14h04.04.728,vbt_B2_day1,2022.2.4,MacIntel,55.55555556,,,,,,,,,,,,,,,,,,,0.044444444,-0.146666667,1,0,1,1.716,5,18,148,9,1,j,images/br_j.png,images/cb_j.png,,,,,,,,,,,,,,,,,,,,,,,,,
,,,,,,00106,2023-11-10_14h04.04.728,vbt_B2_day1,2022.2.4,MacIntel,55.55555556,,,,,,,,,,,,,,,,,,,0.044444444,-0.146666667,1,0,1,0.772,5,19,149,19,1,t,images/br_t.png,images/cb_t.png,,,,,,,,,,,,,,,,,,,,,,,,,
,,,,,,00106,2023-11-10_14h04.04.728,vbt_B2_day1,2022.2.4,MacIntel,55.55555556,,,,,,,,,,,,,,,,,,,0.044444444,-0.146666667,1,0,1,0.865,5,20,150,2,1,c,images/br_c.png,images/cb_c.png,,,,,,,,,,,,,,,,,,,,,,,,,
,,,,,,00106,2023-11-10_14h04.04.728,vbt_B2_day1,2022.2.4,MacIntel,55.55555556,,,,,,,,,,,,,,,,,,,0.044444444,-0.146666667,1,0,1,1.083,5,21,151,14,1,o,images/br_o.png,images/cb_o.png,,,,,,,,,,,,,,,,,,,,,,,,,
,,,,,,00106,2023-11-10_14h04.04.728,vbt_B2_day1,2022.2.4,MacIntel,55.55555556,,,,,,,,,,,,,,,,,,,0.044444444,-0.146666667,1,0,1,0.417,5,22,152,17,1,r,images/br_r.png,images/cb_r.png,,,,,,,,,,,,,,,,,,,,,,,,,
,,,,,,00106,2023-11-10_14h04.04.728,vbt_B2_day1,2022.2.4,MacIntel,55.55555556,,,,,,,,,,,,,,,,,,,0.044444444,-0.146666667,1,0,1,1.15,5,23,153,21,1,v,images/br_v.png,images/cb_v.png,,,,,,,,,,,,,,,,,,,,,,,,,
,,,,,,00106,2023-11-10_14h04.04.728,vbt_B2_day1,2022.2.4,MacIntel,55.55555556,,,,,,,,,,,,,,,,,,,0.048888889,-0.153333333,1,0,1,2.483,5,24,154,20,1,u,images/br_u.png,images/cb_u.png,,,,,,,,,,,,,,,,,,,,,,,,,
,,,,,,00106,2023-11-10_14h04.04.728,vbt_B2_day1,2022.2.4,MacIntel,55.55555556,,,,,,,,,,,,,,,,,,,0.048888889,-0.153333333,1,0,1,0.951,5,25,155,3,1,d,images/br_d.png,images/cb_d.png,,,,,,,,,,,,,,,,,,,,,,,,,
,,,,,,00106,2023-11-10_14h04.04.728,vbt_B2_day1,2022.2.4,MacIntel,55.55555556,,,,,,,,,,,,,,,,,,,0.048888889,-0.153333333,1,0,1,0.167,6,0,156,6,1,g,images/br_g.png,images/cb_g.png,,,,,,,,,,,,,,,,,,,,,,,,,
,,,,,,00106,2023-11-10_14h04.04.728,vbt_B2_day1,2022.2.4,MacIntel,55.55555556,,,,,,,,,,,,,,,,,,,0.048888889,-0.153333333,1,0,1,0.433,6,1,157,14,1,o,images/br_o.png,images/cb_o.png,,,,,,,,,,,,,,,,,,,,,,,,,
,,,,,,00106,2023-11-10_14h04.04.728,vbt_B2_day1,2022.2.4,MacIntel,55.55555556,,,,,,,,,,,,,,,,,,,0.157777778,-0.166666667,1,0,1,8.304,6,2,158,10,1,k,images/br_k.png,images/cb_k.png,,,,,,,,,,,,,,,,,,,,,,,,,
,,,,,,00106,2023-11-10_14h04.04.728,vbt_B2_day1,2022.2.4,MacIntel,55.55555556,,,,,,,,,,,,,,,,,,,0.151111111,-0.177777778,1,0,1,0.815,6,3,159,15,1,p,images/br_p.png,images/cb_p.png,,,,,,,,,,,,,,,,,,,,,,,,,
,,,,,,00106,2023-11-10_14h04.04.728,vbt_B2_day1,2022.2.4,MacIntel,55.55555556,,,,,,,,,,,,,,,,,,,0.151111111,-0.177777778,1,0,1,2.45,6,4,160,3,1,d,images/br_d.png,images/cb_d.png,,,,,,,,,,,,,,,,,,,,,,,,,
,,,,,,00106,2023-11-10_14h04.04.728,vbt_B2_day1,2022.2.4,MacIntel,55.55555556,,,,,,,,,,,,,,,,,,,0.151111111,-0.177777778,1,0,1,0.334,6,5,161,23,1,x,images/br_x.png,images/cb_x.png,,,,,,,,,,,,,,,,,,,,,,,,,
,,,,,,00106,2023-11-10_14h04.04.728,vbt_B2_day1,2022.2.4,MacIntel,55.55555556,,,,,,,,,,,,,,,,,,,0.151111111,-0.178888889,1,0,1,1.75,6,6,162,18,1,s,images/br_s.png,images/cb_s.png,,,,,,,,,,,,,,,,,,,,,,,,,
,,,,,,00106,2023-11-10_14h04.04.728,vbt_B2_day1,2022.2.4,MacIntel,55.55555556,,,,,,,,,,,,,,,,,,,0.155555556,-0.178888889,0,0,1,0.082,6,7,163,11,1,l,images/br_l.png,images/cb_l.png,,,,,,,,,,,,,,,,,,,,,,,,,
,,,,,,00106,2023-11-10_14h04.04.728,vbt_B2_day1,2022.2.4,MacIntel,55.55555556,,,,,,,,,,,,,,,,,,,0.155555556,-0.178888889,1,0,1,0.547,6,8,164,2,1,c,images/br_c.png,images/cb_c.png,,,,,,,,,,,,,,,,,,,,,,,,,
,,,,,,00106,2023-11-10_14h04.04.728,vbt_B2_day1,2022.2.4,MacIntel,55.55555556,,,,,,,,,,,,,,,,,,,0.148888889,-0.188888889,1,0,1,1.066,6,9,165,17,1,r,images/br_r.png,images/cb_r.png,,,,,,,,,,,,,,,,,,,,,,,,,
,,,,,,00106,2023-11-10_14h04.04.728,vbt_B2_day1,2022.2.4,MacIntel,55.55555556,,,,,,,,,,,,,,,,,,,0.148888889,-0.188888889,0,0,1,0.101,6,10,166,4,1,e,images/br_e.png,images/cb_e.png,,,,,,,,,,,,,,,,,,,,,,,,,
,,,,,,00106,2023-11-10_14h04.04.728,vbt_B2_day1,2022.2.4,MacIntel,55.55555556,,,,,,,,,,,,,,,,,,,0.147777778,-0.188888889,1,0,1,2.517,6,11,167,1,1,b,images/br_b.png,images/cb_b.png,,,,,,,,,,,,,,,,,,,,,,,,,
,,,,,,00106,2023-11-10_14h04.04.728,vbt_B2_day1,2022.2.4,MacIntel,55.55555556,,,,,,,,,,,,,,,,,,,0.147777778,-0.188888889,1,0,1,0.316,6,12,168,7,1,h,images/br_h.png,images/cb_h.png,,,,,,,,,,,,,,,,,,,,,,,,,
,,,,,,00106,2023-11-10_14h04.04.728,vbt_B2_day1,2022.2.4,MacIntel,55.55555556,,,,,,,,,,,,,,,,,,,0.147777778,-0.188888889,1,0,1,0.801,6,13,169,24,1,y,images/br_y.png,images/cb_y.png,,,,,,,,,,,,,,,,,,,,,,,,,
,,,,,,00106,2023-11-10_14h04.04.728,vbt_B2_day1,2022.2.4,MacIntel,55.55555556,,,,,,,,,,,,,,,,,,,0.146666667,-0.188888889,1,0,1,0.417,6,14,170,22,1,w,images/br_w.png,images/cb_w.png,,,,,,,,,,,,,,,,,,,,,,,,,
,,,,,,00106,2023-11-10_14h04.04.728,vbt_B2_day1,2022.2.4,MacIntel,55.55555556,,,,,,,,,,,,,,,,,,,0.146666667,-0.188888889,1,0,1,1.501,6,15,171,20,1,u,images/br_u.png,images/cb_u.png,,,,,,,,,,,,,,,,,,,,,,,,,
,,,,,,00106,2023-11-10_14h04.04.728,vbt_B2_day1,2022.2.4,MacIntel,55.55555556,,,,,,,,,,,,,,,,,,,0.146666667,-0.188888889,1,0,1,0.233,6,16,172,0,1,a,images/br_a.png,images/cb_a.png,,,,,,,,,,,,,,,,,,,,,,,,,
,,,,,,00106,2023-11-10_14h04.04.728,vbt_B2_day1,2022.2.4,MacIntel,55.55555556,,,,,,,,,,,,,,,,,,,0.146666667,-0.188888889,1,0,1,0.269,6,17,173,12,1,m,images/br_m.png,images/cb_m.png,,,,,,,,,,,,,,,,,,,,,,,,,
,,,,,,00106,2023-11-10_14h04.04.728,vbt_B2_day1,2022.2.4,MacIntel,55.55555556,,,,,,,,,,,,,,,,,,,0.146666667,-0.188888889,1,0,1,0.434,6,18,174,16,1,q,images/br_q.png,images/cb_q.png,,,,,,,,,,,,,,,,,,,,,,,,,
,,,,,,00106,2023-11-10_14h04.04.728,vbt_B2_day1,2022.2.4,MacIntel,55.55555556,,,,,,,,,,,,,,,,,,,0.146666667,-0.188888889,1,0,1,1.568,6,19,175,25,1,z,images/br_z.png,images/cb_z.png,,,,,,,,,,,,,,,,,,,,,,,,,
,,,,,,00106,2023-11-10_14h04.04.728,vbt_B2_day1,2022.2.4,MacIntel,55.55555556,,,,,,,,,,,,,,,,,,,0.146666667,-0.188888889,1,0,1,0.346,6,20,176,8,1,i,images/br_i.png,images/cb_i.png,,,,,,,,,,,,,,,,,,,,,,,,,
,,,,,,00106,2023-11-10_14h04.04.728,vbt_B2_day1,2022.2.4,MacIntel,55.55555556,,,,,,,,,,,,,,,,,,,0.146666667,-0.188888889,1,0,1,0.117,6,21,177,19,1,t,images/br_t.png,images/cb_t.png,,,,,,,,,,,,,,,,,,,,,,,,,
,,,,,,00106,2023-11-10_14h04.04.728,vbt_B2_day1,2022.2.4,MacIntel,55.55555556,,,,,,,,,,,,,,,,,,,0.146666667,-0.188888889,1,0,1,0.066,6,22,178,13,1,n,images/br_n.png,images/cb_n.png,,,,,,,,,,,,,,,,,,,,,,,,,
,,,,,,00106,2023-11-10_14h04.04.728,vbt_B2_day1,2022.2.4,MacIntel,55.55555556,,,,,,,,,,,,,,,,,,,0.146666667,-0.178888889,1,0,1,0.866,6,23,179,21,1,v,images/br_v.png,images/cb_v.png,,,,,,,,,,,,,,,,,,,,,,,,,
,,,,,,00106,2023-11-10_14h04.04.728,vbt_B2_day1,2022.2.4,MacIntel,55.55555556,,,,,,,,,,,,,,,,,,,0.146666667,-0.178888889,1,0,1,0.599,6,24,180,9,1,j,images/br_j.png,images/cb_j.png,,,,,,,,,,,,,,,,,,,,,,,,,
,,,,,,00106,2023-11-10_14h04.04.728,vbt_B2_day1,2022.2.4,MacIntel,55.55555556,,,,,,,,,,,,,,,,,,,0.146666667,-0.178888889,1,0,1,0.369,6,25,181,5,1,f,images/br_f.png,images/cb_f.png,,,,,,,,,,,,,,,,,,,,,,,,,
,,,,,,00106,2023-11-10_14h04.04.728,vbt_B2_day1,2022.2.4,MacIntel,55.55555556,,,,,,,,,,,,,,,,,,,,,,,,,,,,,,,,,0.146666667,-0.178888889,0,0,1,,,,,,,,,,,,,,,,,,,,
,,,,,,00106,2023-11-10_14h04.04.728,vbt_B2_day1,2022.2.4,MacIntel,55.55555556,,,,,,,,,,,,,,,,,,,,,,,,,,,,,,,,,,,,,,0.164444444,-0.193333333,1,0,1,,,,,,,,,,,,,,,
,,,,,,00106,2023-11-10_14h04.04.728,vbt_B2_day1,2022.2.4,MacIntel,55.55555556,,,,,,,,,,,,,,,,,,,,,,,,,,,,,,,,,,,,,,,,,,,-0.204444444,-0.195555556,1,0,1,,,0,0,0,4,1,schep,images/br_schep.png,images/cb_schep.png
,,,,,,00106,2023-11-10_14h04.04.728,vbt_B2_day1,2022.2.4,MacIntel,55.55555556,,,,,,,,,,,,,,,,,,,,,,,,,,,,,,,,,,,,,,,,,,,-0.096666667,-0.053333333,1,0,1,stu.,stu.,0,1,1,42,1,stuk,images/br_stuk.png,images/cb_stuk.png
,,,,,,00106,2023-11-10_14h04.04.728,vbt_B2_day1,2022.2.4,MacIntel,55.55555556,,,,,,,,,,,,,,,,,,,,,,,,,,,,,,,,,,,,,,,,,,,0.215555556,-0.055555556,1,0,1,voorreur,voorreur,0,2,2,39,1,voorreur,images/br_voorreur.png,images/cb_voorreur.png
,,,,,,00106,2023-11-10_14h04.04.728,vbt_B2_day1,2022.2.4,MacIntel,55.55555556,,,,,,,,,,,,,,,,,,,,,,,,,,,,,,,,,,,,,,,,,,,0.074444444,-0.068888889,1,0,1,uitdelen,uitdelen,0,3,3,18,1,uitdelen,images/br_uitdelen.png,images/cb_uitdelen.png
,,,,,,00106,2023-11-10_14h04.04.728,vbt_B2_day1,2022.2.4,MacIntel,55.55555556,,,,,,,,,,,,,,,,,,,,,,,,,,,,,,,,,,,,,,,,,,,0.14,-0.015555556,1,0,1,bebrip,bebrip,0,4,4,28,1,bebrip,images/br_bebrip.png,images/cb_bebrip.png
,,,,,,00106,2023-11-10_14h04.04.728,vbt_B2_day1,2022.2.4,MacIntel,55.55555556,,,,,,,,,,,,,,,,,,,,,,,,,,,,,,,,,,,,,,,,,,,0.312222222,-0.05,1,0,1,dred,dred,0,5,5,21,1,dred,images/br_dred.png,images/cb_dred.png
,,,,,,00106,2023-11-10_14h04.04.728,vbt_B2_day1,2022.2.4,MacIntel,55.55555556,,,,,,,,,,,,,,,,,,,,,,,,,,,,,,,,,,,,,,,,,,,0.327777778,-0.076666667,1,0,1,klauw,klauw,0,6,6,7,1,klauw,images/br_klauw.png,images/cb_klauw.png
,,,,,,00106,2023-11-10_14h04.04.728,vbt_B2_day1,2022.2.4,MacIntel,55.55555556,,,,,,,,,,,,,,,,,,,,,,,,,,,,,,,,,,,,,,,,,,,0.33,-0.038888889,1,0,1,genond,genond,0,7,7,29,1,genond,images/br_genond.png,images/cb_genond.png
,,,,,,00106,2023-11-10_14h04.04.728,vbt_B2_day1,2022.2.4,MacIntel,55.55555556,,,,,,,,,,,,,,,,,,,,,,,,,,,,,,,,,,,,,,,,,,,0.141111111,0.032222222,1,0,1,mand,mand,0,8,8,3,1,mand,images/br_mand.png,images/cb_mand.png
,,,,,,00106,2023-11-10_14h04.04.728,vbt_B2_day1,2022.2.4,MacIntel,55.55555556,,,,,,,,,,,,,,,,,,,,,,,,,,,,,,,,,,,,,,,,,,,0.058888889,0.025555556,1,0,1,maken,maken,0,9,9,5,1,maken,images/br_maken.png,images/cb_maken.png
,,,,,,00106,2023-11-10_14h04.04.728,vbt_B2_day1,2022.2.4,MacIntel,55.55555556,,,,,,,,,,,,,,,,,,,,,,,,,,,,,,,,,,,,,,,,,,,0.165555556,0.004444444,1,0,1,tars,tars,0,10,10,20,1,tars,images/br_tars.png,images/cb_tars.png
,,,,,,00106,2023-11-10_14h04.04.728,vbt_B2_day1,2022.2.4,MacIntel,55.55555556,,,,,,,,,,,,,,,,,,,,,,,,,,,,,,,,,,,,,,,,,,,0.178888889,0.002222222,1,0,1,dubbel,dubbel,0,11,11,9,1,dubbel,images/br_dubbel.png,images/cb_dubbel.png
,,,,,,00106,2023-11-10_14h04.04.728,vbt_B2_day1,2022.2.4,MacIntel,55.55555556,,,,,,,,,,,,,,,,,,,,,,,,,,,,,,,,,,,,,,,,,,,0.001111111,-0.195555556,1,0,1,vijptig,vijptig,0,12,12,54,1,vijftig,images/br_vijftig.png,images/cb_vijftig.png
,,,,,,00106,2023-11-10_14h04.04.728,vbt_B2_day1,2022.2.4,MacIntel,55.55555556,,,,,,,,,,,,,,,,,,,,,,,,,,,,,,,,,,,,,,,,,,,0.078888889,-0.051111111,1,0,1,schielen,schielen,0,13,13,38,1,schielen,images/br_schielen.png,images/cb_schielen.png
,,,,,,00106,2023-11-10_14h04.04.728,vbt_B2_day1,2022.2.4,MacIntel,55.55555556,,,,,,,,,,,,,,,,,,,,,,,,,,,,,,,,,,,,,,,,,,,0.074444444,-0.034444444,1,0,1,.aarlan,.aarlan,0,14,14,14,1,waarvan,images/br_waarvan.png,images/cb_waarvan.png
,,,,,,00106,2023-11-10_14h04.04.728,vbt_B2_day1,2022.2.4,MacIntel,55.55555556,,,,,,,,,,,,,,,,,,,,,,,,,,,,,,,,,,,,,,,,,,,0.11,-0.052222222,1,0,1,liegen,liegen,0,15,15,50,1,liegen,images/br_liegen.png,images/cb_liegen.png
,,,,,,00106,2023-11-10_14h04.04.728,vbt_B2_day1,2022.2.4,MacIntel,55.55555556,,,,,,,,,,,,,,,,,,,,,,,,,,,,,,,,,,,,,,,,,,,0.057777778,0,1,0,1,dief,dief,0,16,16,40,1,dief,images/br_dief.png,images/cb_dief.png
,,,,,,00106,2023-11-10_14h04.04.728,vbt_B2_day1,2022.2.4,MacIntel,55.55555556,,,,,,,,,,,,,,,,,,,,,,,,,,,,,,,,,,,,,,,,,,,-0.125555556,-0.028888889,1,0,1,frort,frort,0,17,17,27,1,prort,images/br_prort.png,images/cb_prort.png
,,,,,,00106,2023-11-10_14h04.04.728,vbt_B2_day1,2022.2.4,MacIntel,55.55555556,,,,,,,,,,,,,,,,,,,,,,,,,,,,,,,,,,,,,,,,,,,0.08,-0.044444444,1,0,1,stuikem,stuikem,0,18,18,35,1,stuikem,images/br_stuikem.png,images/cb_stuikem.png
,,,,,,00106,2023-11-10_14h04.04.728,vbt_B2_day1,2022.2.4,MacIntel,55.55555556,,,,,,,,,,,,,,,,,,,,,,,,,,,,,,,,,,,,,,,,,,,-0.022222222,-0.184444444,1,0,1,,,0,19,19,44,1,wijze,images/br_wijze.png,images/cb_wijze.png
,,,,,,00106,2023-11-10_14h04.04.728,vbt_B2_day1,2022.2.4,MacIntel,55.55555556,,,,,,,,,,,,,,,,,,,,,,,,,,,,,,,,,,,,,,,,,,,0.032222222,-0.005555556,1,0,1,aee....,aee....,0,20,20,30,1,reedje,images/br_reedje.png,images/cb_reedje.png
,,,,,,00106,2023-11-10_14h04.04.728,vbt_B2_day1,2022.2.4,MacIntel,55.55555556,,,,,,,,,,,,,,,,,,,,,,,,,,,,,,,,,,,,,,,,,,,0.157777778,0.048888889,1,0,1,kanjer,kanjer,0,21,21,8,1,kanjer,images/br_kanjer.png,images/cb_kanjer.png
,,,,,,00106,2023-11-10_14h04.04.728,vbt_B2_day1,2022.2.4,MacIntel,55.55555556,,,,,,,,,,,,,,,,,,,,,,,,,,,,,,,,,,,,,,,,,,,0.114444444,0.156666667,1,0,1,mening,mening,0,22,22,11,1,mening,images/br_mening.png,images/cb_mening.png
,,,,,,00106,2023-11-10_14h04.04.728,vbt_B2_day1,2022.2.4,MacIntel,55.55555556,,,,,,,,,,,,,,,,,,,,,,,,,,,,,,,,,,,,,,,,,,,0.185555556,-0.098888889,1,0,1,twijfel,twijfel,0,23,23,13,1,twijfel,images/br_twijfel.png,images/cb_twijfel.png
,,,,,,00106,2023-11-10_14h04.04.728,vbt_B2_day1,2022.2.4,MacIntel,55.55555556,,,,,,,,,,,,,,,,,,,,,,,,,,,,,,,,,,,,,,,,,,,0.067777778,0.073333333,1,0,1,opplaam,opplaam,0,24,24,32,1,opplaan,images/br_opplaan.png,images/cb_opplaan.png
,,,,,,00106,2023-11-10_14h04.04.728,vbt_B2_day1,2022.2.4,MacIntel,55.55555556,,,,,,,,,,,,,,,,,,,,,,,,,,,,,,,,,,,,,,,,,,,0.197777778,0.002222222,1,0,1,hiervan,hiervan,0,25,25,15,1,hiervan,images/br_hiervan.png,images/cb_hiervan.png
,,,,,,00106,2023-11-10_14h04.04.728,vbt_B2_day1,2022.2.4,MacIntel,55.55555556,,,,,,,,,,,,,,,,,,,,,,,,,,,,,,,,,,,,,,,,,,,0.128888889,0.006666667,1,0,1,schu....,schu....,0,26,26,19,1,schuilen,images/br_schuilen.png,images/cb_schuilen.png
,,,,,,00106,2023-11-10_14h04.04.728,vbt_B2_day1,2022.2.4,MacIntel,55.55555556,,,,,,,,,,,,,,,,,,,,,,,,,,,,,,,,,,,,,,,,,,,0.046666667,-0.075555556,1,0,1,.lull....,.lull....,0,27,27,33,1,flullen,images/br_flullen.png,images/cb_flullen.png
,,,,,,00106,2023-11-10_14h04.04.728,vbt_B2_day1,2022.2.4,MacIntel,55.55555556,,,,,,,,,,,,,,,,,,,,,,,,,,,,,,,,,,,,,,,,,,,0.204444444,-0.004444444,1,0,1,slak,slak,0,28,28,0,1,slak,images/br_slak.png,images/cb_slak.png
,,,,,,00106,2023-11-10_14h04.04.728,vbt_B2_day1,2022.2.4,MacIntel,55.55555556,,,,,,,,,,,,,,,,,,,,,,,,,,,,,,,,,,,,,,,,,,,0.284444444,0.03,1,0,1,opslaan,opslaan,0,29,29,53,1,opslaan,images/br_opslaan.png,images/cb_opslaan.png
,,,,,,00106,2023-11-10_14h04.04.728,vbt_B2_day1,2022.2.4,MacIntel,55.55555556,,,,,,,,,,,,,,,,,,,,,,,,,,,,,,,,,,,,,,,,,,,0.106666667,-0.024444444,1,0,1,meenemen,meenemen,0,30,30,57,1,meenemen,images/br_meenemen.png,images/cb_meenemen.png
,,,,,,00106,2023-11-10_14h04.04.728,vbt_B2_day1,2022.2.4,MacIntel,55.55555556,,,,,,,,,,,,,,,,,,,,,,,,,,,,,,,,,,,,,,,,,,,-0.033333333,-0.057777778,1,0,1,fictie,fictie,0,31,31,48,1,fictie,images/br_fictie.png,images/cb_fictie.png
,,,,,,00106,2023-11-10_14h04.04.728,vbt_B2_day1,2022.2.4,MacIntel,55.55555556,,,,,,,,,,,,,,,,,,,,,,,,,,,,,,,,,,,,,,,,,,,0.122222222,-0.027777778,1,0,1,teken,teken,0,32,32,55,1,tekenen,images/br_tekenen.png,images/cb_tekenen.png
,,,,,,00106,2023-11-10_14h04.04.728,vbt_B2_day1,2022.2.4,MacIntel,55.55555556,,,,,,,,,,,,,,,,,,,,,,,,,,,,,,,,,,,,,,,,,,,0.142222222,-0.023333333,1,0,1,verva....,verva....,0,33,33,36,1,vervaden,images/br_vervaden.png,images/cb_vervaden.png
,,,,,,00106,2023-11-10_14h04.04.728,vbt_B2_day1,2022.2.4,MacIntel,55.55555556,,,,,,,,,,,,,,,,,,,,,,,,,,,,,,,,,,,,,,,,,,,0.21,0.132222222,1,0,1,lez..,lez..,0,34,34,46,1,lezen,images/br_lezen.png,images/cb_lezen.png
,,,,,,00106,2023-11-10_14h04.04.728,vbt_B2_day1,2022.2.4,MacIntel,55.55555556,,,,,,,,,,,,,,,,,,,,,,,,,,,,,,,,,,,,,,,,,,,0.038888889,-0.013333333,1,0,1,bleek,bleek,0,35,35,6,1,bleek,images/br_bleek.png,images/cb_bleek.png
,,,,,,00106,2023-11-10_14h04.04.728,vbt_B2_day1,2022.2.4,MacIntel,55.55555556,,,,,,,,,,,,,,,,,,,,,,,,,,,,,,,,,,,,,,,,,,,0.232222222,0.173333333,1,0,1,klimmen,klimmen,0,36,36,12,1,klimmen,images/br_klimmen.png,images/cb_klimmen.png
,,,,,,00106,2023-11-10_14h04.04.728,vbt_B2_day1,2022.2.4,MacIntel,55.55555556,,,,,,,,,,,,,,,,,,,,,,,,,,,,,,,,,,,,,,,,,,,0.225555556,0.211111111,1,0,1,hoog,hoog,0,37,37,41,1,hoog,images/br_hoog.png,images/cb_hoog.png
,,,,,,00106,2023-11-10_14h04.04.728,vbt_B2_day1,2022.2.4,MacIntel,55.55555556,,,,,,,,,,,,,,,,,,,,,,,,,,,,,,,,,,,,,,,,,,,0.231111111,0.301111111,1,0,1,valo.,valo.,0,38,38,26,1,valop,images/br_valop.png,images/cb_valop.png
,,,,,,00106,2023-11-10_14h04.04.728,vbt_B2_day1,2022.2.4,MacIntel,55.55555556,,,,,,,,,,,,,,,,,,,,,,,,,,,,,,,,,,,,,,,,,,,0.144444444,0.153333333,1,0,1,vizier,vizier,0,39,39,49,1,vizier,images/br_vizier.png,images/cb_vizier.png
,,,,,,00106,2023-11-10_14h04.04.728,vbt_B2_day1,2022.2.4,MacIntel,55.55555556,,,,,,,,,,,,,,,,,,,,,,,,,,,,,,,,,,,,,,,,,,,0.294444444,0.13,1,0,1,loods,loods,0,40,40,47,1,loods,images/br_loods.png,images/cb_loods.png
,,,,,,00106,2023-11-10_14h04.04.728,vbt_B2_day1,2022.2.4,MacIntel,55.55555556,,,,,,,,,,,,,,,,,,,,,,,,,,,,,,,,,,,,,,,,,,,0.251111111,0.183333333,1,0,1,daarheen,daarheen,0,41,41,16,1,daarheen,images/br_daarheen.png,images/cb_daarheen.png
,,,,,,00106,2023-11-10_14h04.04.728,vbt_B2_day1,2022.2.4,MacIntel,55.55555556,,,,,,,,,,,,,,,,,,,,,,,,,,,,,,,,,,,,,,,,,,,0.106666667,-0.025555556,1,0,1,rezer,rezer,0,42,42,24,1,rezer,images/br_rezer.png,images/cb_rezer.png
,,,,,,00106,2023-11-10_14h04.04.728,vbt_B2_day1,2022.2.4,MacIntel,55.55555556,,,,,,,,,,,,,,,,,,,,,,,,,,,,,,,,,,,,,,,,,,,0.176666667,-0.036666667,1,0,1,liefde,liefde,0,43,43,51,1,liefde,images/br_liefde.png,images/cb_liefde.png
,,,,,,00106,2023-11-10_14h04.04.728,vbt_B2_day1,2022.2.4,MacIntel,55.55555556,,,,,,,,,,,,,,,,,,,,,,,,,,,,,,,,,,,,,,,,,,,0.035555556,-0.024444444,1,0,1,sue...,sue...,0,44,44,52,1,zuiplap,images/br_zuiplap.png,images/cb_zuiplap.png
,,,,,,00106,2023-11-10_14h04.04.728,vbt_B2_day1,2022.2.4,MacIntel,55.55555556,,,,,,,,,,,,,,,,,,,,,,,,,,,,,,,,,,,,,,,,,,,0.037777778,0.004444444,1,0,1,atten...,atten...,0,45,45,17,1,attentie,images/br_attentie.png,images/cb_attentie.png
,,,,,,00106,2023-11-10_14h04.04.728,vbt_B2_day1,2022.2.4,MacIntel,55.55555556,,,,,,,,,,,,,,,,,,,,,,,,,,,,,,,,,,,,,,,,,,,0.077777778,-0.074444444,1,0,1,muz...,muz...,0,46,46,10,1,muziek,images/br_muziek.png,images/cb_muziek.png
,,,,,,00106,2023-11-10_14h04.04.728,vbt_B2_day1,2022.2.4,MacIntel,55.55555556,,,,,,,,,,,,,,,,,,,,,,,,,,,,,,,,,,,,,,,,,,,-0.022222222,-0.193333333,1,0,1,,,0,47,47,45,1,hemel,images/br_hemel.png,images/cb_hemel.png
,,,,,,00106,2023-11-10_14h04.04.728,vbt_B2_day1,2022.2.4,MacIntel,55.55555556,,,,,,,,,,,,,,,,,,,,,,,,,,,,,,,,,,,,,,,,,,,-0.011111111,-0.097777778,1,0,1,zaal,zaal,0,48,48,1,1,zaal,images/br_zaal.png,images/cb_zaal.png
,,,,,,00106,2023-11-10_14h04.04.728,vbt_B2_day1,2022.2.4,MacIntel,55.55555556,,,,,,,,,,,,,,,,,,,,,,,,,,,,,,,,,,,,,,,,,,,0.083333333,-0.018888889,1,0,1,brij...,brij...,0,49,49,25,1,brijk,images/br_brijk.png,images/cb_brijk.png
,,,,,,00106,2023-11-10_14h04.04.728,vbt_B2_day1,2022.2.4,MacIntel,55.55555556,,,,,,,,,,,,,,,,,,,,,,,,,,,,,,,,,,,,,,,,,,,0.065555556,-0.043333333,1,0,1,spa....,spa....,0,50,50,37,1,spanzing,images/br_spanzing.png,images/cb_spanzing.png
,,,,,,00106,2023-11-10_14h04.04.728,vbt_B2_day1,2022.2.4,MacIntel,55.55555556,,,,,,,,,,,,,,,,,,,,,,,,,,,,,,,,,,,,,,,,,,,0.224444444,-0.046666667,1,0,1,toez...,toez...,0,51,51,56,1,toezicht,images/br_toezicht.png,images/cb_toezicht.png
,,,,,,00106,2023-11-10_14h04.04.728,vbt_B2_day1,2022.2.4,MacIntel,55.55555556,,,,,,,,,,,,,,,,,,,,,,,,,,,,,,,,,,,,,,,,,,,0.151111111,0.037777778,1,0,1,booi,booi,0,52,52,23,1,booi,images/br_booi.png,images/cb_booi.png
,,,,,,00106,2023-11-10_14h04.04.728,vbt_B2_day1,2022.2.4,MacIntel,55.55555556,,,,,,,,,,,,,,,,,,,,,,,,,,,,,,,,,,,,,,,,,,,0.055555556,0.078888889,1,0,1,knie,knie,0,53,53,22,1,knoe,images/br_knoe.png,images/cb_knoe.png
,,,,,,00106,2023-11-10_14h04.04.728,vbt_B2_day1,2022.2.4,MacIntel,55.55555556,,,,,,,,,,,,,,,,,,,,,,,,,,,,,,,,,,,,,,,,,,,0.115555556,-0.015555556,1,0,1,v.....,v.....,0,54,54,58,1,voorkeur,images/br_voorkeur.png,images/cb_voorkeur.png
,,,,,,00106,2023-11-10_14h04.04.728,vbt_B2_day1,2022.2.4,MacIntel,55.55555556,,,,,,,,,,,,,,,,,,,,,,,,,,,,,,,,,,,,,,,,,,,0.122222222,0.041111111,1,0,1,s....,s....,0,55,55,31,1,stamen,images/br_stamen.png,images/cb_stamen.png
,,,,,,00106,2023-11-10_14h04.04.728,vbt_B2_day1,2022.2.4,MacIntel,55.55555556,,,,,,,,,,,,,,,,,,,,,,,,,,,,,,,,,,,,,,,,,,,0.088888889,0.016666667,1,0,1,jal...,jal...,0,56,56,43,1,lava,images/br_lava.png,images/cb_lava.png
,,,,,,00106,2023-11-10_14h04.04.728,vbt_B2_day1,2022.2.4,MacIntel,55.55555556,,,,,,,,,,,,,,,,,,,,,,,,,,,,,,,,,,,,,,,,,,,0.055555556,-0.208888889,1,0,1,,,0,57,57,59,1,opvatten,images/br_opvatten.png,images/cb_opvatten.png
,,,,,,00106,2023-11-10_14h04.04.728,vbt_B2_day1,2022.2.4,MacIntel,55.55555556,,,,,,,,,,,,,,,,,,,,,,,,,,,,,,,,,,,,,,,,,,,0.147777778,-0.044444444,1,0,1,LOCH...,LOCH...,0,58,58,34,1,lochten,images/br_lochten.png,images/cb_lochten.png
,,,,,,00106,2023-11-10_14h04.04.728,vbt_B2_day1,2022.2.4,MacIntel,55.55555556,,,,,,,,,,,,,,,,,,,,,,,,,,,,,,,,,,,,,,,,,,,0.05,-0.01,1,0,1,jaar,jaar,0,59,59,2,1,jaar,images/br_jaar.png,images/cb_jaar.png
,,,,,,00106,2023-11-10_14h04.04.728,vbt_B2_day1,2022.2.4,MacIntel,55.55555556,,,,,,,,,,,,,,,,,,,,,,,,,,,,,,,,,,,,,,,,,,,,,,,,,,,,,,,,,
