welcome_mouse.x,welcome_mouse.y,welcome_mouse.leftButton,welcome_mouse.midButton,welcome_mouse.rightButton,welcome_mouse.time,"ID",date,expName,psychopyVersion,OS,frameRate,participant,mouse_2.x,mouse_2.y,mouse_2.leftButton,mouse_2.midButton,mouse_2.rightButton,mouse_2.time,mouse_3.x,mouse_3.y,mouse_3.leftButton,mouse_3.midButton,mouse_3.rightButton,mouse_3.time,train_mouse.x,train_mouse.y,train_mouse.leftButton,train_mouse.midButton,train_mouse.rightButton,train_mouse.time,braille_mouse.x,braille_mouse.y,braille_mouse.leftButton,braille_mouse.midButton,braille_mouse.rightButton,braille_mouse.time,trials.thisRepN,trials.thisTrialN,trials.thisN,trials.thisIndex,trials.ran,nlLet,brLet,cbLet,mouse.x,mouse.y,mouse.leftButton,mouse.midButton,mouse.rightButton,testInstr_mouse.x,testInstr_mouse.y,testInstr_mouse.leftButton,testInstr_mouse.midButton,testInstr_mouse.rightButton,test_mouse.x,test_mouse.y,test_mouse.leftButton,test_mouse.midButton,test_mouse.rightButton,test_response.text,testResp,test_loop.thisRepN,test_loop.thisTrialN,test_loop.thisN,test_loop.thisIndex,test_loop.ran,nlWrd,brWrd,cbWrd
0.087963019,-0.427777778,1,0,0,30.5084,55987,2023-09-27_09h49.45.452,vbt_B2_day1,2022.2.4,Win32,60.07088364,55987,,,,,,,,,,,,,,,,,,,,,,,,,,,,,,,,,,,,,,,,,,,,,,,,,,,,,,,,,
,,,,,,55987,2023-09-27_09h49.45.452,vbt_B2_day1,2022.2.4,Win32,60.07088364,55987,0.335185242,-0.211111111,1,0,0,5.7471,,,,,,,,,,,,,,,,,,,,,,,,,,,,,,,,,,,,,,,,,,,,,,,,,,,
,,,,,,55987,2023-09-27_09h49.45.452,vbt_B2_day1,2022.2.4,Win32,60.07088364,55987,,,,,,,0.455555556,-0.339814843,1,0,0,4.7986,,,,,,,,,,,,,,,,,,,,,,,,,,,,,,,,,,,,,,,,,,,,,
,,,,,,55987,2023-09-27_09h49.45.452,vbt_B2_day1,2022.2.4,Win32,60.07088364,55987,,,,,,,,,,,,,0.455555556,-0.339814843,1,0,0,60.8551,,,,,,,,,,,,,,,,,,,,,,,,,,,,,,,,,,,,,,,
,,,,,,55987,2023-09-27_09h49.45.452,vbt_B2_day1,2022.2.4,Win32,60.07088364,55987,,,,,,,,,,,,,,,,,,,0.455555556,-0.339814843,1,0,0,2.6618,0,0,0,0,1,a,images/br_a.png,images/cb_a.png,,,,,,,,,,,,,,,,,,,,,,,,,
,,,,,,55987,2023-09-27_09h49.45.452,vbt_B2_day1,2022.2.4,Win32,60.07088364,55987,,,,,,,,,,,,,,,,,,,0.455555556,-0.339814843,1,0,0,5.0169,0,1,1,25,1,z,images/br_z.png,images/cb_z.png,,,,,,,,,,,,,,,,,,,,,,,,,
,,,,,,55987,2023-09-27_09h49.45.452,vbt_B2_day1,2022.2.4,Win32,60.07088364,55987,,,,,,,,,,,,,,,,,,,0.455555556,-0.339814843,1,0,0,5.1999,0,2,2,10,1,k,images/br_k.png,images/cb_k.png,,,,,,,,,,,,,,,,,,,,,,,,,
,,,,,,55987,2023-09-27_09h49.45.452,vbt_B2_day1,2022.2.4,Win32,60.07088364,55987,,,,,,,,,,,,,,,,,,,0.455555556,-0.339814843,1,0,0,4.2501,0,3,3,13,1,n,images/br_n.png,images/cb_n.png,,,,,,,,,,,,,,,,,,,,,,,,,
,,,,,,55987,2023-09-27_09h49.45.452,vbt_B2_day1,2022.2.4,Win32,60.07088364,55987,,,,,,,,,,,,,,,,,,,0.455555556,-0.339814843,1,0,0,5.7674,0,4,4,9,1,j,images/br_j.png,images/cb_j.png,,,,,,,,,,,,,,,,,,,,,,,,,
,,,,,,55987,2023-09-27_09h49.45.452,vbt_B2_day1,2022.2.4,Win32,60.07088364,55987,,,,,,,,,,,,,,,,,,,0.455555556,-0.339814843,1,0,0,5.4165,0,5,5,18,1,s,images/br_s.png,images/cb_s.png,,,,,,,,,,,,,,,,,,,,,,,,,
,,,,,,55987,2023-09-27_09h49.45.452,vbt_B2_day1,2022.2.4,Win32,60.07088364,55987,,,,,,,,,,,,,,,,,,,0.455555556,-0.339814843,1,0,0,5.1501,0,6,6,3,1,d,images/br_d.png,images/cb_d.png,,,,,,,,,,,,,,,,,,,,,,,,,
,,,,,,55987,2023-09-27_09h49.45.452,vbt_B2_day1,2022.2.4,Win32,60.07088364,55987,,,,,,,,,,,,,,,,,,,0.455555556,-0.339814843,1,0,0,4.1834,0,7,7,20,1,u,images/br_u.png,images/cb_u.png,,,,,,,,,,,,,,,,,,,,,,,,,
,,,,,,55987,2023-09-27_09h49.45.452,vbt_B2_day1,2022.2.4,Win32,60.07088364,55987,,,,,,,,,,,,,,,,,,,0.455555556,-0.339814843,1,0,0,2.5501,0,8,8,7,1,h,images/br_h.png,images/cb_h.png,,,,,,,,,,,,,,,,,,,,,,,,,
,,,,,,55987,2023-09-27_09h49.45.452,vbt_B2_day1,2022.2.4,Win32,60.07088364,55987,,,,,,,,,,,,,,,,,,,0.404629686,-0.222222222,1,0,0,4.6173,0,9,9,14,1,o,images/br_o.png,images/cb_o.png,,,,,,,,,,,,,,,,,,,,,,,,,
,,,,,,55987,2023-09-27_09h49.45.452,vbt_B2_day1,2022.2.4,Win32,60.07088364,55987,,,,,,,,,,,,,,,,,,,0.404629686,-0.222222222,1,0,0,5.7004,0,10,10,16,1,q,images/br_q.png,images/cb_q.png,,,,,,,,,,,,,,,,,,,,,,,,,
,,,,,,55987,2023-09-27_09h49.45.452,vbt_B2_day1,2022.2.4,Win32,60.07088364,55987,,,,,,,,,,,,,,,,,,,0.404629686,-0.222222222,1,0,0,7.2668,0,11,11,23,1,x,images/br_x.png,images/cb_x.png,,,,,,,,,,,,,,,,,,,,,,,,,
,,,,,,55987,2023-09-27_09h49.45.452,vbt_B2_day1,2022.2.4,Win32,60.07088364,55987,,,,,,,,,,,,,,,,,,,0.404629686,-0.222222222,1,0,0,5.5562,0,12,12,21,1,v,images/br_v.png,images/cb_v.png,,,,,,,,,,,,,,,,,,,,,,,,,
,,,,,,55987,2023-09-27_09h49.45.452,vbt_B2_day1,2022.2.4,Win32,60.07088364,55987,,,,,,,,,,,,,,,,,,,0.316666667,-0.273148176,1,0,0,10.5379,0,13,13,5,1,f,images/br_f.png,images/cb_f.png,,,,,,,,,,,,,,,,,,,,,,,,,
,,,,,,55987,2023-09-27_09h49.45.452,vbt_B2_day1,2022.2.4,Win32,60.07088364,55987,,,,,,,,,,,,,,,,,,,0.316666667,-0.273148176,1,0,0,5.9667,0,14,14,6,1,g,images/br_g.png,images/cb_g.png,,,,,,,,,,,,,,,,,,,,,,,,,
,,,,,,55987,2023-09-27_09h49.45.452,vbt_B2_day1,2022.2.4,Win32,60.07088364,55987,,,,,,,,,,,,,,,,,,,0.315740797,-0.273148176,1,0,0,9.1844,0,15,15,22,1,w,images/br_w.png,images/cb_w.png,,,,,,,,,,,,,,,,,,,,,,,,,
,,,,,,55987,2023-09-27_09h49.45.452,vbt_B2_day1,2022.2.4,Win32,60.07088364,55987,,,,,,,,,,,,,,,,,,,0.315740797,-0.273148176,1,0,0,6.917,0,16,16,1,1,b,images/br_b.png,images/cb_b.png,,,,,,,,,,,,,,,,,,,,,,,,,
,,,,,,55987,2023-09-27_09h49.45.452,vbt_B2_day1,2022.2.4,Win32,60.07088364,55987,,,,,,,,,,,,,,,,,,,0.315740797,-0.273148176,1,0,0,8.5835,0,17,17,19,1,t,images/br_t.png,images/cb_t.png,,,,,,,,,,,,,,,,,,,,,,,,,
,,,,,,55987,2023-09-27_09h49.45.452,vbt_B2_day1,2022.2.4,Win32,60.07088364,55987,,,,,,,,,,,,,,,,,,,0.315740797,-0.273148176,1,0,0,5.1668,0,18,18,17,1,r,images/br_r.png,images/cb_r.png,,,,,,,,,,,,,,,,,,,,,,,,,
,,,,,,55987,2023-09-27_09h49.45.452,vbt_B2_day1,2022.2.4,Win32,60.07088364,55987,,,,,,,,,,,,,,,,,,,0.315740797,-0.273148176,1,0,0,5.1501,0,19,19,15,1,p,images/br_p.png,images/cb_p.png,,,,,,,,,,,,,,,,,,,,,,,,,
,,,,,,55987,2023-09-27_09h49.45.452,vbt_B2_day1,2022.2.4,Win32,60.07088364,55987,,,,,,,,,,,,,,,,,,,0.315740797,-0.273148176,1,0,0,4.6836,0,20,20,24,1,y,images/br_y.png,images/cb_y.png,,,,,,,,,,,,,,,,,,,,,,,,,
,,,,,,55987,2023-09-27_09h49.45.452,vbt_B2_day1,2022.2.4,Win32,60.07088364,55987,,,,,,,,,,,,,,,,,,,0.315740797,-0.273148176,1,0,0,4.267,0,21,21,11,1,l,images/br_l.png,images/cb_l.png,,,,,,,,,,,,,,,,,,,,,,,,,
,,,,,,55987,2023-09-27_09h49.45.452,vbt_B2_day1,2022.2.4,Win32,60.07088364,55987,,,,,,,,,,,,,,,,,,,0.315740797,-0.273148176,1,0,0,5.8008,0,22,22,2,1,c,images/br_c.png,images/cb_c.png,,,,,,,,,,,,,,,,,,,,,,,,,
,,,,,,55987,2023-09-27_09h49.45.452,vbt_B2_day1,2022.2.4,Win32,60.07088364,55987,,,,,,,,,,,,,,,,,,,0.315740797,-0.273148176,1,0,0,9.3002,0,23,23,8,1,i,images/br_i.png,images/cb_i.png,,,,,,,,,,,,,,,,,,,,,,,,,
,,,,,,55987,2023-09-27_09h49.45.452,vbt_B2_day1,2022.2.4,Win32,60.07088364,55987,,,,,,,,,,,,,,,,,,,0.315740797,-0.273148176,1,0,0,3.8348,0,24,24,12,1,m,images/br_m.png,images/cb_m.png,,,,,,,,,,,,,,,,,,,,,,,,,
,,,,,,55987,2023-09-27_09h49.45.452,vbt_B2_day1,2022.2.4,Win32,60.07088364,55987,,,,,,,,,,,,,,,,,,,0.315740797,-0.273148176,1,0,0,6.4832,0,25,25,4,1,e,images/br_e.png,images/cb_e.png,,,,,,,,,,,,,,,,,,,,,,,,,
,,,,,,55987,2023-09-27_09h49.45.452,vbt_B2_day1,2022.2.4,Win32,60.07088364,55987,,,,,,,,,,,,,,,,,,,0.315740797,-0.273148176,1,0,0,2.3499,1,0,26,0,1,a,images/br_a.png,images/cb_a.png,,,,,,,,,,,,,,,,,,,,,,,,,
,,,,,,55987,2023-09-27_09h49.45.452,vbt_B2_day1,2022.2.4,Win32,60.07088364,55987,,,,,,,,,,,,,,,,,,,0.315740797,-0.273148176,1,0,0,4.0203,1,1,27,9,1,j,images/br_j.png,images/cb_j.png,,,,,,,,,,,,,,,,,,,,,,,,,
,,,,,,55987,2023-09-27_09h49.45.452,vbt_B2_day1,2022.2.4,Win32,60.07088364,55987,,,,,,,,,,,,,,,,,,,0.315740797,-0.273148176,1,0,0,1.9332,1,2,28,12,1,m,images/br_m.png,images/cb_m.png,,,,,,,,,,,,,,,,,,,,,,,,,
,,,,,,55987,2023-09-27_09h49.45.452,vbt_B2_day1,2022.2.4,Win32,60.07088364,55987,,,,,,,,,,,,,,,,,,,0.315740797,-0.273148176,1,0,0,3.8835,1,3,29,22,1,w,images/br_w.png,images/cb_w.png,,,,,,,,,,,,,,,,,,,,,,,,,
,,,,,,55987,2023-09-27_09h49.45.452,vbt_B2_day1,2022.2.4,Win32,60.07088364,55987,,,,,,,,,,,,,,,,,,,0.315740797,-0.273148176,1,0,0,2.9168,1,4,30,18,1,s,images/br_s.png,images/cb_s.png,,,,,,,,,,,,,,,,,,,,,,,,,
,,,,,,55987,2023-09-27_09h49.45.452,vbt_B2_day1,2022.2.4,Win32,60.07088364,55987,,,,,,,,,,,,,,,,,,,0.202777778,-0.313888889,1,0,0,1.9724,1,5,31,11,1,l,images/br_l.png,images/cb_l.png,,,,,,,,,,,,,,,,,,,,,,,,,
,,,,,,55987,2023-09-27_09h49.45.452,vbt_B2_day1,2022.2.4,Win32,60.07088364,55987,,,,,,,,,,,,,,,,,,,0.202777778,-0.313888889,1,0,0,4.3833,1,6,32,2,1,c,images/br_c.png,images/cb_c.png,,,,,,,,,,,,,,,,,,,,,,,,,
,,,,,,55987,2023-09-27_09h49.45.452,vbt_B2_day1,2022.2.4,Win32,60.07088364,55987,,,,,,,,,,,,,,,,,,,0.202777778,-0.313888889,1,0,0,4.6334,1,7,33,4,1,e,images/br_e.png,images/cb_e.png,,,,,,,,,,,,,,,,,,,,,,,,,
,,,,,,55987,2023-09-27_09h49.45.452,vbt_B2_day1,2022.2.4,Win32,60.07088364,55987,,,,,,,,,,,,,,,,,,,0.202777778,-0.313888889,1,0,0,6.4004,1,8,34,15,1,p,images/br_p.png,images/cb_p.png,,,,,,,,,,,,,,,,,,,,,,,,,
,,,,,,55987,2023-09-27_09h49.45.452,vbt_B2_day1,2022.2.4,Win32,60.07088364,55987,,,,,,,,,,,,,,,,,,,0.202777778,-0.313888889,1,0,0,5.8165,1,9,35,6,1,g,images/br_g.png,images/cb_g.png,,,,,,,,,,,,,,,,,,,,,,,,,
,,,,,,55987,2023-09-27_09h49.45.452,vbt_B2_day1,2022.2.4,Win32,60.07088364,55987,,,,,,,,,,,,,,,,,,,0.202777778,-0.313888889,1,0,0,3.5166,1,10,36,10,1,k,images/br_k.png,images/cb_k.png,,,,,,,,,,,,,,,,,,,,,,,,,
,,,,,,55987,2023-09-27_09h49.45.452,vbt_B2_day1,2022.2.4,Win32,60.07088364,55987,,,,,,,,,,,,,,,,,,,0.202777778,-0.313888889,1,0,0,1.2833,1,11,37,23,1,x,images/br_x.png,images/cb_x.png,,,,,,,,,,,,,,,,,,,,,,,,,
,,,,,,55987,2023-09-27_09h49.45.452,vbt_B2_day1,2022.2.4,Win32,60.07088364,55987,,,,,,,,,,,,,,,,,,,0.202777778,-0.313888889,1,0,0,4.2665,1,12,38,14,1,o,images/br_o.png,images/cb_o.png,,,,,,,,,,,,,,,,,,,,,,,,,
,,,,,,55987,2023-09-27_09h49.45.452,vbt_B2_day1,2022.2.4,Win32,60.07088364,55987,,,,,,,,,,,,,,,,,,,0.202777778,-0.313888889,1,0,0,7.0998,1,13,39,13,1,n,images/br_n.png,images/cb_n.png,,,,,,,,,,,,,,,,,,,,,,,,,
,,,,,,55987,2023-09-27_09h49.45.452,vbt_B2_day1,2022.2.4,Win32,60.07088364,55987,,,,,,,,,,,,,,,,,,,0.202777778,-0.313888889,1,0,0,7.3666,1,14,40,25,1,z,images/br_z.png,images/cb_z.png,,,,,,,,,,,,,,,,,,,,,,,,,
,,,,,,55987,2023-09-27_09h49.45.452,vbt_B2_day1,2022.2.4,Win32,60.07088364,55987,,,,,,,,,,,,,,,,,,,0.202777778,-0.313888889,1,0,0,0.9504,1,15,41,8,1,i,images/br_i.png,images/cb_i.png,,,,,,,,,,,,,,,,,,,,,,,,,
,,,,,,55987,2023-09-27_09h49.45.452,vbt_B2_day1,2022.2.4,Win32,60.07088364,55987,,,,,,,,,,,,,,,,,,,0.227777778,-0.288888889,1,0,0,5.4835,1,16,42,5,1,f,images/br_f.png,images/cb_f.png,,,,,,,,,,,,,,,,,,,,,,,,,
,,,,,,55987,2023-09-27_09h49.45.452,vbt_B2_day1,2022.2.4,Win32,60.07088364,55987,,,,,,,,,,,,,,,,,,,0.227777778,-0.288888889,1,0,0,0.3668,1,17,43,16,1,q,images/br_q.png,images/cb_q.png,,,,,,,,,,,,,,,,,,,,,,,,,
,,,,,,55987,2023-09-27_09h49.45.452,vbt_B2_day1,2022.2.4,Win32,60.07088364,55987,,,,,,,,,,,,,,,,,,,0.227777778,-0.288888889,1,0,0,4.2502,1,18,44,17,1,r,images/br_r.png,images/cb_r.png,,,,,,,,,,,,,,,,,,,,,,,,,
,,,,,,55987,2023-09-27_09h49.45.452,vbt_B2_day1,2022.2.4,Win32,60.07088364,55987,,,,,,,,,,,,,,,,,,,0.227777778,-0.288888889,1,0,0,4.3003,1,19,45,1,1,b,images/br_b.png,images/cb_b.png,,,,,,,,,,,,,,,,,,,,,,,,,
,,,,,,55987,2023-09-27_09h49.45.452,vbt_B2_day1,2022.2.4,Win32,60.07088364,55987,,,,,,,,,,,,,,,,,,,0.227777778,-0.288888889,1,0,0,6.8498,1,20,46,21,1,v,images/br_v.png,images/cb_v.png,,,,,,,,,,,,,,,,,,,,,,,,,
,,,,,,55987,2023-09-27_09h49.45.452,vbt_B2_day1,2022.2.4,Win32,60.07088364,55987,,,,,,,,,,,,,,,,,,,0.233333333,-0.289814843,1,0,0,13.6546,1,21,47,3,1,d,images/br_d.png,images/cb_d.png,,,,,,,,,,,,,,,,,,,,,,,,,
,,,,,,55987,2023-09-27_09h49.45.452,vbt_B2_day1,2022.2.4,Win32,60.07088364,55987,,,,,,,,,,,,,,,,,,,0.233333333,-0.287963019,1,0,0,6.7335,1,22,48,7,1,h,images/br_h.png,images/cb_h.png,,,,,,,,,,,,,,,,,,,,,,,,,
,,,,,,55987,2023-09-27_09h49.45.452,vbt_B2_day1,2022.2.4,Win32,60.07088364,55987,,,,,,,,,,,,,,,,,,,0.233333333,-0.287963019,1,0,0,1.7613,1,23,49,19,1,t,images/br_t.png,images/cb_t.png,,,,,,,,,,,,,,,,,,,,,,,,,
,,,,,,55987,2023-09-27_09h49.45.452,vbt_B2_day1,2022.2.4,Win32,60.07088364,55987,,,,,,,,,,,,,,,,,,,0.233333333,-0.287963019,1,0,0,3.4166,1,24,50,20,1,u,images/br_u.png,images/cb_u.png,,,,,,,,,,,,,,,,,,,,,,,,,
,,,,,,55987,2023-09-27_09h49.45.452,vbt_B2_day1,2022.2.4,Win32,60.07088364,55987,,,,,,,,,,,,,,,,,,,0.233333333,-0.287963019,1,0,0,7.7504,1,25,51,24,1,y,images/br_y.png,images/cb_y.png,,,,,,,,,,,,,,,,,,,,,,,,,
,,,,,,55987,2023-09-27_09h49.45.452,vbt_B2_day1,2022.2.4,Win32,60.07088364,55987,,,,,,,,,,,,,,,,,,,0.233333333,-0.287963019,1,0,0,3.8835,2,0,52,10,1,k,images/br_k.png,images/cb_k.png,,,,,,,,,,,,,,,,,,,,,,,,,
,,,,,,55987,2023-09-27_09h49.45.452,vbt_B2_day1,2022.2.4,Win32,60.07088364,55987,,,,,,,,,,,,,,,,,,,0.233333333,-0.287963019,1,0,0,0.833,2,1,53,23,1,x,images/br_x.png,images/cb_x.png,,,,,,,,,,,,,,,,,,,,,,,,,
,,,,,,55987,2023-09-27_09h49.45.452,vbt_B2_day1,2022.2.4,Win32,60.07088364,55987,,,,,,,,,,,,,,,,,,,0.233333333,-0.287963019,1,0,0,1.5331,2,2,54,9,1,j,images/br_j.png,images/cb_j.png,,,,,,,,,,,,,,,,,,,,,,,,,
,,,,,,55987,2023-09-27_09h49.45.452,vbt_B2_day1,2022.2.4,Win32,60.07088364,55987,,,,,,,,,,,,,,,,,,,0.233333333,-0.287963019,1,0,0,5.5154,2,3,55,13,1,n,images/br_n.png,images/cb_n.png,,,,,,,,,,,,,,,,,,,,,,,,,
,,,,,,55987,2023-09-27_09h49.45.452,vbt_B2_day1,2022.2.4,Win32,60.07088364,55987,,,,,,,,,,,,,,,,,,,0.233333333,-0.287963019,1,0,0,1.0164,2,4,56,17,1,r,images/br_r.png,images/cb_r.png,,,,,,,,,,,,,,,,,,,,,,,,,
,,,,,,55987,2023-09-27_09h49.45.452,vbt_B2_day1,2022.2.4,Win32,60.07088364,55987,,,,,,,,,,,,,,,,,,,0.183333333,-0.322222222,1,0,0,1.7331,2,5,57,16,1,q,images/br_q.png,images/cb_q.png,,,,,,,,,,,,,,,,,,,,,,,,,
,,,,,,55987,2023-09-27_09h49.45.452,vbt_B2_day1,2022.2.4,Win32,60.07088364,55987,,,,,,,,,,,,,,,,,,,0.127777778,-0.259259288,1,0,0,2.4669,2,6,58,11,1,l,images/br_l.png,images/cb_l.png,,,,,,,,,,,,,,,,,,,,,,,,,
,,,,,,55987,2023-09-27_09h49.45.452,vbt_B2_day1,2022.2.4,Win32,60.07088364,55987,,,,,,,,,,,,,,,,,,,0.127777778,-0.259259288,1,0,0,15.9004,2,7,59,22,1,w,images/br_w.png,images/cb_w.png,,,,,,,,,,,,,,,,,,,,,,,,,
,,,,,,55987,2023-09-27_09h49.45.452,vbt_B2_day1,2022.2.4,Win32,60.07088364,55987,,,,,,,,,,,,,,,,,,,0.127777778,-0.259259288,1,0,0,1.4498,2,8,60,20,1,u,images/br_u.png,images/cb_u.png,,,,,,,,,,,,,,,,,,,,,,,,,
,,,,,,55987,2023-09-27_09h49.45.452,vbt_B2_day1,2022.2.4,Win32,60.07088364,55987,,,,,,,,,,,,,,,,,,,0.127777778,-0.259259288,1,0,0,9.0168,2,9,61,24,1,y,images/br_y.png,images/cb_y.png,,,,,,,,,,,,,,,,,,,,,,,,,
,,,,,,55987,2023-09-27_09h49.45.452,vbt_B2_day1,2022.2.4,Win32,60.07088364,55987,,,,,,,,,,,,,,,,,,,0.127777778,-0.259259288,1,0,0,3.9997,2,10,62,21,1,v,images/br_v.png,images/cb_v.png,,,,,,,,,,,,,,,,,,,,,,,,,
,,,,,,55987,2023-09-27_09h49.45.452,vbt_B2_day1,2022.2.4,Win32,60.07088364,55987,,,,,,,,,,,,,,,,,,,0.094444444,-0.20648151,1,0,0,1.3664,2,11,63,8,1,i,images/br_i.png,images/cb_i.png,,,,,,,,,,,,,,,,,,,,,,,,,
,,,,,,55987,2023-09-27_09h49.45.452,vbt_B2_day1,2022.2.4,Win32,60.07088364,55987,,,,,,,,,,,,,,,,,,,0.094444444,-0.20648151,1,0,0,4.0334,2,12,64,18,1,s,images/br_s.png,images/cb_s.png,,,,,,,,,,,,,,,,,,,,,,,,,
,,,,,,55987,2023-09-27_09h49.45.452,vbt_B2_day1,2022.2.4,Win32,60.07088364,55987,,,,,,,,,,,,,,,,,,,0.094444444,-0.20648151,1,0,0,11.2501,2,13,65,12,1,m,images/br_m.png,images/cb_m.png,,,,,,,,,,,,,,,,,,,,,,,,,
,,,,,,55987,2023-09-27_09h49.45.452,vbt_B2_day1,2022.2.4,Win32,60.07088364,55987,,,,,,,,,,,,,,,,,,,0.094444444,-0.20648151,1,0,0,6.6002,2,14,66,25,1,z,images/br_z.png,images/cb_z.png,,,,,,,,,,,,,,,,,,,,,,,,,
,,,,,,55987,2023-09-27_09h49.45.452,vbt_B2_day1,2022.2.4,Win32,60.07088364,55987,,,,,,,,,,,,,,,,,,,0.094444444,-0.20648151,1,0,0,1.8833,2,15,67,15,1,p,images/br_p.png,images/cb_p.png,,,,,,,,,,,,,,,,,,,,,,,,,
,,,,,,55987,2023-09-27_09h49.45.452,vbt_B2_day1,2022.2.4,Win32,60.07088364,55987,,,,,,,,,,,,,,,,,,,0.094444444,-0.20648151,1,0,0,1.4495,2,16,68,3,1,d,images/br_d.png,images/cb_d.png,,,,,,,,,,,,,,,,,,,,,,,,,
,,,,,,55987,2023-09-27_09h49.45.452,vbt_B2_day1,2022.2.4,Win32,60.07088364,55987,,,,,,,,,,,,,,,,,,,0.094444444,-0.20648151,1,0,0,2.017,2,17,69,5,1,f,images/br_f.png,images/cb_f.png,,,,,,,,,,,,,,,,,,,,,,,,,
,,,,,,55987,2023-09-27_09h49.45.452,vbt_B2_day1,2022.2.4,Win32,60.07088364,55987,,,,,,,,,,,,,,,,,,,0.094444444,-0.20648151,1,0,0,0.4833,2,18,70,0,1,a,images/br_a.png,images/cb_a.png,,,,,,,,,,,,,,,,,,,,,,,,,
,,,,,,55987,2023-09-27_09h49.45.452,vbt_B2_day1,2022.2.4,Win32,60.07088364,55987,,,,,,,,,,,,,,,,,,,0.054629686,-0.118518533,1,0,0,0.4614,2,19,71,19,1,t,images/br_t.png,images/cb_t.png,,,,,,,,,,,,,,,,,,,,,,,,,
,,,,,,55987,2023-09-27_09h49.45.452,vbt_B2_day1,2022.2.4,Win32,60.07088364,55987,,,,,,,,,,,,,,,,,,,0.054629686,-0.118518533,1,0,0,1.0872,2,20,72,7,1,h,images/br_h.png,images/cb_h.png,,,,,,,,,,,,,,,,,,,,,,,,,
,,,,,,55987,2023-09-27_09h49.45.452,vbt_B2_day1,2022.2.4,Win32,60.07088364,55987,,,,,,,,,,,,,,,,,,,0.069444444,-0.136111111,1,0,0,0.4999,2,21,73,2,1,c,images/br_c.png,images/cb_c.png,,,,,,,,,,,,,,,,,,,,,,,,,
,,,,,,55987,2023-09-27_09h49.45.452,vbt_B2_day1,2022.2.4,Win32,60.07088364,55987,,,,,,,,,,,,,,,,,,,0.076851908,-0.129629644,1,0,0,0.583,2,22,74,14,1,o,images/br_o.png,images/cb_o.png,,,,,,,,,,,,,,,,,,,,,,,,,
,,,,,,55987,2023-09-27_09h49.45.452,vbt_B2_day1,2022.2.4,Win32,60.07088364,55987,,,,,,,,,,,,,,,,,,,0.076851908,-0.129629644,1,0,0,0.9664,2,23,75,6,1,g,images/br_g.png,images/cb_g.png,,,,,,,,,,,,,,,,,,,,,,,,,
,,,,,,55987,2023-09-27_09h49.45.452,vbt_B2_day1,2022.2.4,Win32,60.07088364,55987,,,,,,,,,,,,,,,,,,,0.076851908,-0.129629644,1,0,0,0.5833,2,24,76,4,1,e,images/br_e.png,images/cb_e.png,,,,,,,,,,,,,,,,,,,,,,,,,
,,,,,,55987,2023-09-27_09h49.45.452,vbt_B2_day1,2022.2.4,Win32,60.07088364,55987,,,,,,,,,,,,,,,,,,,0.076851908,-0.129629644,1,0,0,2.087,2,25,77,1,1,b,images/br_b.png,images/cb_b.png,,,,,,,,,,,,,,,,,,,,,,,,,
,,,,,,55987,2023-09-27_09h49.45.452,vbt_B2_day1,2022.2.4,Win32,60.07088364,55987,,,,,,,,,,,,,,,,,,,0.076851908,-0.129629644,1,0,0,0.3998,3,0,78,7,1,h,images/br_h.png,images/cb_h.png,,,,,,,,,,,,,,,,,,,,,,,,,
,,,,,,55987,2023-09-27_09h49.45.452,vbt_B2_day1,2022.2.4,Win32,60.07088364,55987,,,,,,,,,,,,,,,,,,,0.069444444,-0.127777778,1,0,0,1.1499,3,1,79,12,1,m,images/br_m.png,images/cb_m.png,,,,,,,,,,,,,,,,,,,,,,,,,
,,,,,,55987,2023-09-27_09h49.45.452,vbt_B2_day1,2022.2.4,Win32,60.07088364,55987,,,,,,,,,,,,,,,,,,,0.045370399,-0.110185199,1,0,0,3.3891,3,2,80,5,1,f,images/br_f.png,images/cb_f.png,,,,,,,,,,,,,,,,,,,,,,,,,
,,,,,,55987,2023-09-27_09h49.45.452,vbt_B2_day1,2022.2.4,Win32,60.07088364,55987,,,,,,,,,,,,,,,,,,,0.045370399,-0.110185199,1,0,0,1.0336,3,3,81,11,1,l,images/br_l.png,images/cb_l.png,,,,,,,,,,,,,,,,,,,,,,,,,
,,,,,,55987,2023-09-27_09h49.45.452,vbt_B2_day1,2022.2.4,Win32,60.07088364,55987,,,,,,,,,,,,,,,,,,,0.045370399,-0.110185199,1,0,0,0.7,3,4,82,2,1,c,images/br_c.png,images/cb_c.png,,,,,,,,,,,,,,,,,,,,,,,,,
,,,,,,55987,2023-09-27_09h49.45.452,vbt_B2_day1,2022.2.4,Win32,60.07088364,55987,,,,,,,,,,,,,,,,,,,0.045370399,-0.110185199,1,0,0,0.117,3,5,83,14,1,o,images/br_o.png,images/cb_o.png,,,,,,,,,,,,,,,,,,,,,,,,,
,,,,,,55987,2023-09-27_09h49.45.452,vbt_B2_day1,2022.2.4,Win32,60.07088364,55987,,,,,,,,,,,,,,,,,,,0.045370399,-0.110185199,1,0,0,1.5835,3,6,84,18,1,s,images/br_s.png,images/cb_s.png,,,,,,,,,,,,,,,,,,,,,,,,,
,,,,,,55987,2023-09-27_09h49.45.452,vbt_B2_day1,2022.2.4,Win32,60.07088364,55987,,,,,,,,,,,,,,,,,,,0.045370399,-0.110185199,1,0,0,2.2165,3,7,85,24,1,y,images/br_y.png,images/cb_y.png,,,,,,,,,,,,,,,,,,,,,,,,,
,,,,,,55987,2023-09-27_09h49.45.452,vbt_B2_day1,2022.2.4,Win32,60.07088364,55987,,,,,,,,,,,,,,,,,,,0.045370399,-0.110185199,1,0,0,0.2165,3,8,86,17,1,r,images/br_r.png,images/cb_r.png,,,,,,,,,,,,,,,,,,,,,,,,,
,,,,,,55987,2023-09-27_09h49.45.452,vbt_B2_day1,2022.2.4,Win32,60.07088364,55987,,,,,,,,,,,,,,,,,,,0.045370399,-0.110185199,1,0,0,1.2834,3,9,87,15,1,p,images/br_p.png,images/cb_p.png,,,,,,,,,,,,,,,,,,,,,,,,,
,,,,,,55987,2023-09-27_09h49.45.452,vbt_B2_day1,2022.2.4,Win32,60.07088364,55987,,,,,,,,,,,,,,,,,,,0.045370399,-0.110185199,1,0,0,7.3173,3,10,88,13,1,n,images/br_n.png,images/cb_n.png,,,,,,,,,,,,,,,,,,,,,,,,,
,,,,,,55987,2023-09-27_09h49.45.452,vbt_B2_day1,2022.2.4,Win32,60.07088364,55987,,,,,,,,,,,,,,,,,,,0.03148151,-0.123148176,1,0,0,0.4058,3,11,89,8,1,i,images/br_i.png,images/cb_i.png,,,,,,,,,,,,,,,,,,,,,,,,,
,,,,,,55987,2023-09-27_09h49.45.452,vbt_B2_day1,2022.2.4,Win32,60.07088364,55987,,,,,,,,,,,,,,,,,,,0.045370399,-0.122222222,1,0,0,0.1948,3,12,90,0,1,a,images/br_a.png,images/cb_a.png,,,,,,,,,,,,,,,,,,,,,,,,,
,,,,,,55987,2023-09-27_09h49.45.452,vbt_B2_day1,2022.2.4,Win32,60.07088364,55987,,,,,,,,,,,,,,,,,,,0.418518575,-0.237963019,1,0,0,5.1004,3,13,91,3,1,d,images/br_d.png,images/cb_d.png,,,,,,,,,,,,,,,,,,,,,,,,,
,,,,,,55987,2023-09-27_09h49.45.452,vbt_B2_day1,2022.2.4,Win32,60.07088364,55987,,,,,,,,,,,,,,,,,,,0.418518575,-0.237963019,1,0,0,8.6835,3,14,92,10,1,k,images/br_k.png,images/cb_k.png,,,,,,,,,,,,,,,,,,,,,,,,,
,,,,,,55987,2023-09-27_09h49.45.452,vbt_B2_day1,2022.2.4,Win32,60.07088364,55987,,,,,,,,,,,,,,,,,,,0.418518575,-0.237963019,1,0,0,0.1667,3,15,93,6,1,g,images/br_g.png,images/cb_g.png,,,,,,,,,,,,,,,,,,,,,,,,,
,,,,,,55987,2023-09-27_09h49.45.452,vbt_B2_day1,2022.2.4,Win32,60.07088364,55987,,,,,,,,,,,,,,,,,,,0.228703732,-0.010185199,1,0,0,1.3834,3,16,94,23,1,x,images/br_x.png,images/cb_x.png,,,,,,,,,,,,,,,,,,,,,,,,,
,,,,,,55987,2023-09-27_09h49.45.452,vbt_B2_day1,2022.2.4,Win32,60.07088364,55987,,,,,,,,,,,,,,,,,,,0.228703732,-0.010185199,1,0,0,2.5328,3,17,95,9,1,j,images/br_j.png,images/cb_j.png,,,,,,,,,,,,,,,,,,,,,,,,,
,,,,,,55987,2023-09-27_09h49.45.452,vbt_B2_day1,2022.2.4,Win32,60.07088364,55987,,,,,,,,,,,,,,,,,,,0.125925954,-0.073148176,1,0,0,0.7335,3,18,96,19,1,t,images/br_t.png,images/cb_t.png,,,,,,,,,,,,,,,,,,,,,,,,,
,,,,,,55987,2023-09-27_09h49.45.452,vbt_B2_day1,2022.2.4,Win32,60.07088364,55987,,,,,,,,,,,,,,,,,,,0.125925954,-0.073148176,1,0,0,3.2836,3,19,97,21,1,v,images/br_v.png,images/cb_v.png,,,,,,,,,,,,,,,,,,,,,,,,,
,,,,,,55987,2023-09-27_09h49.45.452,vbt_B2_day1,2022.2.4,Win32,60.07088364,55987,,,,,,,,,,,,,,,,,,,0.125925954,-0.073148176,1,0,0,7.6497,3,20,98,22,1,w,images/br_w.png,images/cb_w.png,,,,,,,,,,,,,,,,,,,,,,,,,
,,,,,,55987,2023-09-27_09h49.45.452,vbt_B2_day1,2022.2.4,Win32,60.07088364,55987,,,,,,,,,,,,,,,,,,,0.125925954,-0.073148176,1,0,0,0.3665,3,21,99,20,1,u,images/br_u.png,images/cb_u.png,,,,,,,,,,,,,,,,,,,,,,,,,
,,,,,,55987,2023-09-27_09h49.45.452,vbt_B2_day1,2022.2.4,Win32,60.07088364,55987,,,,,,,,,,,,,,,,,,,0.125925954,-0.073148176,1,0,0,1.7666,3,22,100,25,1,z,images/br_z.png,images/cb_z.png,,,,,,,,,,,,,,,,,,,,,,,,,
,,,,,,55987,2023-09-27_09h49.45.452,vbt_B2_day1,2022.2.4,Win32,60.07088364,55987,,,,,,,,,,,,,,,,,,,0.125925954,-0.073148176,1,0,0,0.3834,3,23,101,1,1,b,images/br_b.png,images/cb_b.png,,,,,,,,,,,,,,,,,,,,,,,,,
,,,,,,55987,2023-09-27_09h49.45.452,vbt_B2_day1,2022.2.4,Win32,60.07088364,55987,,,,,,,,,,,,,,,,,,,0.063888889,-0.125925954,1,0,0,1.1332,3,24,102,16,1,q,images/br_q.png,images/cb_q.png,,,,,,,,,,,,,,,,,,,,,,,,,
,,,,,,55987,2023-09-27_09h49.45.452,vbt_B2_day1,2022.2.4,Win32,60.07088364,55987,,,,,,,,,,,,,,,,,,,0.084259288,-0.100925954,1,0,0,0.478,3,25,103,4,1,e,images/br_e.png,images/cb_e.png,,,,,,,,,,,,,,,,,,,,,,,,,
,,,,,,55987,2023-09-27_09h49.45.452,vbt_B2_day1,2022.2.4,Win32,60.07088364,55987,,,,,,,,,,,,,,,,,,,0.028703732,-0.102777778,1,0,0,0.4167,4,0,104,0,1,a,images/br_a.png,images/cb_a.png,,,,,,,,,,,,,,,,,,,,,,,,,
,,,,,,55987,2023-09-27_09h49.45.452,vbt_B2_day1,2022.2.4,Win32,60.07088364,55987,,,,,,,,,,,,,,,,,,,0.028703732,-0.102777778,1,0,0,0.6659,4,1,105,5,1,f,images/br_f.png,images/cb_f.png,,,,,,,,,,,,,,,,,,,,,,,,,
,,,,,,55987,2023-09-27_09h49.45.452,vbt_B2_day1,2022.2.4,Win32,60.07088364,55987,,,,,,,,,,,,,,,,,,,0.075925954,-0.105555556,1,0,0,1.1166,4,2,106,20,1,u,images/br_u.png,images/cb_u.png,,,,,,,,,,,,,,,,,,,,,,,,,
,,,,,,55987,2023-09-27_09h49.45.452,vbt_B2_day1,2022.2.4,Win32,60.07088364,55987,,,,,,,,,,,,,,,,,,,0.075925954,-0.105555556,1,0,0,0.1833,4,3,107,3,1,d,images/br_d.png,images/cb_d.png,,,,,,,,,,,,,,,,,,,,,,,,,
,,,,,,55987,2023-09-27_09h49.45.452,vbt_B2_day1,2022.2.4,Win32,60.07088364,55987,,,,,,,,,,,,,,,,,,,0.073148176,-0.101851866,1,0,0,1.7496,4,4,108,10,1,k,images/br_k.png,images/cb_k.png,,,,,,,,,,,,,,,,,,,,,,,,,
,,,,,,55987,2023-09-27_09h49.45.452,vbt_B2_day1,2022.2.4,Win32,60.07088364,55987,,,,,,,,,,,,,,,,,,,0.073148176,-0.101851866,1,0,0,1.0999,4,5,109,7,1,h,images/br_h.png,images/cb_h.png,,,,,,,,,,,,,,,,,,,,,,,,,
,,,,,,55987,2023-09-27_09h49.45.452,vbt_B2_day1,2022.2.4,Win32,60.07088364,55987,,,,,,,,,,,,,,,,,,,0.073148176,-0.101851866,1,0,0,0.4664,4,6,110,17,1,r,images/br_r.png,images/cb_r.png,,,,,,,,,,,,,,,,,,,,,,,,,
,,,,,,55987,2023-09-27_09h49.45.452,vbt_B2_day1,2022.2.4,Win32,60.07088364,55987,,,,,,,,,,,,,,,,,,,0.045370399,-0.098148176,1,0,0,0.6334,4,7,111,14,1,o,images/br_o.png,images/cb_o.png,,,,,,,,,,,,,,,,,,,,,,,,,
,,,,,,55987,2023-09-27_09h49.45.452,vbt_B2_day1,2022.2.4,Win32,60.07088364,55987,,,,,,,,,,,,,,,,,,,0.045370399,-0.098148176,1,0,0,4.3173,4,8,112,13,1,n,images/br_n.png,images/cb_n.png,,,,,,,,,,,,,,,,,,,,,,,,,
,,,,,,55987,2023-09-27_09h49.45.452,vbt_B2_day1,2022.2.4,Win32,60.07088364,55987,,,,,,,,,,,,,,,,,,,0.053703732,-0.107407422,1,0,0,0.8993,4,9,113,1,1,b,images/br_b.png,images/cb_b.png,,,,,,,,,,,,,,,,,,,,,,,,,
,,,,,,55987,2023-09-27_09h49.45.452,vbt_B2_day1,2022.2.4,Win32,60.07088364,55987,,,,,,,,,,,,,,,,,,,0.040740797,-0.093518533,1,0,0,1.0998,4,10,114,21,1,v,images/br_v.png,images/cb_v.png,,,,,,,,,,,,,,,,,,,,,,,,,
,,,,,,55987,2023-09-27_09h49.45.452,vbt_B2_day1,2022.2.4,Win32,60.07088364,55987,,,,,,,,,,,,,,,,,,,0.040740797,-0.093518533,1,0,0,0.4334,4,11,115,15,1,p,images/br_p.png,images/cb_p.png,,,,,,,,,,,,,,,,,,,,,,,,,
,,,,,,55987,2023-09-27_09h49.45.452,vbt_B2_day1,2022.2.4,Win32,60.07088364,55987,,,,,,,,,,,,,,,,,,,0.026851908,-0.130555556,1,0,0,0.8171,4,12,116,11,1,l,images/br_l.png,images/cb_l.png,,,,,,,,,,,,,,,,,,,,,,,,,
,,,,,,55987,2023-09-27_09h49.45.452,vbt_B2_day1,2022.2.4,Win32,60.07088364,55987,,,,,,,,,,,,,,,,,,,0.026851908,-0.130555556,1,0,0,0.8498,4,13,117,22,1,w,images/br_w.png,images/cb_w.png,,,,,,,,,,,,,,,,,,,,,,,,,
,,,,,,55987,2023-09-27_09h49.45.452,vbt_B2_day1,2022.2.4,Win32,60.07088364,55987,,,,,,,,,,,,,,,,,,,0.070370399,-0.132407422,1,0,0,1.6834,4,14,118,19,1,t,images/br_t.png,images/cb_t.png,,,,,,,,,,,,,,,,,,,,,,,,,
,,,,,,55987,2023-09-27_09h49.45.452,vbt_B2_day1,2022.2.4,Win32,60.07088364,55987,,,,,,,,,,,,,,,,,,,0.054629686,-0.136111111,1,0,0,0.8215,4,15,119,4,1,e,images/br_e.png,images/cb_e.png,,,,,,,,,,,,,,,,,,,,,,,,,
,,,,,,55987,2023-09-27_09h49.45.452,vbt_B2_day1,2022.2.4,Win32,60.07088364,55987,,,,,,,,,,,,,,,,,,,0.054629686,-0.136111111,1,0,0,0.0999,4,16,120,18,1,s,images/br_s.png,images/cb_s.png,,,,,,,,,,,,,,,,,,,,,,,,,
,,,,,,55987,2023-09-27_09h49.45.452,vbt_B2_day1,2022.2.4,Win32,60.07088364,55987,,,,,,,,,,,,,,,,,,,0.054629686,-0.136111111,1,0,0,0.2499,4,17,121,2,1,c,images/br_c.png,images/cb_c.png,,,,,,,,,,,,,,,,,,,,,,,,,
,,,,,,55987,2023-09-27_09h49.45.452,vbt_B2_day1,2022.2.4,Win32,60.07088364,55987,,,,,,,,,,,,,,,,,,,0.054629686,-0.136111111,1,0,0,0.6667,4,18,122,23,1,x,images/br_x.png,images/cb_x.png,,,,,,,,,,,,,,,,,,,,,,,,,
,,,,,,55987,2023-09-27_09h49.45.452,vbt_B2_day1,2022.2.4,Win32,60.07088364,55987,,,,,,,,,,,,,,,,,,,0.035185242,-0.124074088,1,0,0,1.3051,4,19,123,9,1,j,images/br_j.png,images/cb_j.png,,,,,,,,,,,,,,,,,,,,,,,,,
,,,,,,55987,2023-09-27_09h49.45.452,vbt_B2_day1,2022.2.4,Win32,60.07088364,55987,,,,,,,,,,,,,,,,,,,0.093518575,-0.127777778,1,0,0,0.9501,4,20,124,6,1,g,images/br_g.png,images/cb_g.png,,,,,,,,,,,,,,,,,,,,,,,,,
,,,,,,55987,2023-09-27_09h49.45.452,vbt_B2_day1,2022.2.4,Win32,60.07088364,55987,,,,,,,,,,,,,,,,,,,0.159259288,-0.076851866,1,0,0,0.4332,4,21,125,8,1,i,images/br_i.png,images/cb_i.png,,,,,,,,,,,,,,,,,,,,,,,,,
,,,,,,55987,2023-09-27_09h49.45.452,vbt_B2_day1,2022.2.4,Win32,60.07088364,55987,,,,,,,,,,,,,,,,,,,0.169444444,-0.022222222,1,0,0,0.2835,4,22,126,12,1,m,images/br_m.png,images/cb_m.png,,,,,,,,,,,,,,,,,,,,,,,,,
,,,,,,55987,2023-09-27_09h49.45.452,vbt_B2_day1,2022.2.4,Win32,60.07088364,55987,,,,,,,,,,,,,,,,,,,0.165740797,-0.053703732,1,0,0,1.25,4,23,127,25,1,z,images/br_z.png,images/cb_z.png,,,,,,,,,,,,,,,,,,,,,,,,,
,,,,,,55987,2023-09-27_09h49.45.452,vbt_B2_day1,2022.2.4,Win32,60.07088364,55987,,,,,,,,,,,,,,,,,,,0.190740797,-0.050925954,1,0,0,0.65,4,24,128,16,1,q,images/br_q.png,images/cb_q.png,,,,,,,,,,,,,,,,,,,,,,,,,
,,,,,,55987,2023-09-27_09h49.45.452,vbt_B2_day1,2022.2.4,Win32,60.07088364,55987,,,,,,,,,,,,,,,,,,,0.190740797,-0.050925954,1,0,0,6.2336,4,25,129,24,1,y,images/br_y.png,images/cb_y.png,,,,,,,,,,,,,,,,,,,,,,,,,
,,,,,,55987,2023-09-27_09h49.45.452,vbt_B2_day1,2022.2.4,Win32,60.07088364,55987,,,,,,,,,,,,,,,,,,,0.190740797,-0.050925954,1,0,0,0.2663,5,0,130,15,1,p,images/br_p.png,images/cb_p.png,,,,,,,,,,,,,,,,,,,,,,,,,
,,,,,,55987,2023-09-27_09h49.45.452,vbt_B2_day1,2022.2.4,Win32,60.07088364,55987,,,,,,,,,,,,,,,,,,,0.226851908,-0.086111111,1,0,0,0.998,5,1,131,3,1,d,images/br_d.png,images/cb_d.png,,,,,,,,,,,,,,,,,,,,,,,,,
,,,,,,55987,2023-09-27_09h49.45.452,vbt_B2_day1,2022.2.4,Win32,60.07088364,55987,,,,,,,,,,,,,,,,,,,0.226851908,-0.084259288,1,0,0,0.5223,5,2,132,1,1,b,images/br_b.png,images/cb_b.png,,,,,,,,,,,,,,,,,,,,,,,,,
,,,,,,55987,2023-09-27_09h49.45.452,vbt_B2_day1,2022.2.4,Win32,60.07088364,55987,,,,,,,,,,,,,,,,,,,0.105555556,-0.104629644,1,0,0,0.4279,5,3,133,19,1,t,images/br_t.png,images/cb_t.png,,,,,,,,,,,,,,,,,,,,,,,,,
,,,,,,55987,2023-09-27_09h49.45.452,vbt_B2_day1,2022.2.4,Win32,60.07088364,55987,,,,,,,,,,,,,,,,,,,0.091666667,-0.092592621,1,0,0,0.9834,5,4,134,7,1,h,images/br_h.png,images/cb_h.png,,,,,,,,,,,,,,,,,,,,,,,,,
,,,,,,55987,2023-09-27_09h49.45.452,vbt_B2_day1,2022.2.4,Win32,60.07088364,55987,,,,,,,,,,,,,,,,,,,0.091666667,-0.092592621,1,0,0,0.1332,5,5,135,11,1,l,images/br_l.png,images/cb_l.png,,,,,,,,,,,,,,,,,,,,,,,,,
,,,,,,55987,2023-09-27_09h49.45.452,vbt_B2_day1,2022.2.4,Win32,60.07088364,55987,,,,,,,,,,,,,,,,,,,0.091666667,-0.092592621,1,0,0,0.0166,5,6,136,17,1,r,images/br_r.png,images/cb_r.png,,,,,,,,,,,,,,,,,,,,,,,,,
,,,,,,55987,2023-09-27_09h49.45.452,vbt_B2_day1,2022.2.4,Win32,60.07088364,55987,,,,,,,,,,,,,,,,,,,0.093518575,-0.090740755,1,0,0,13.8368,5,7,137,22,1,w,images/br_w.png,images/cb_w.png,,,,,,,,,,,,,,,,,,,,,,,,,
,,,,,,55987,2023-09-27_09h49.45.452,vbt_B2_day1,2022.2.4,Win32,60.07088364,55987,,,,,,,,,,,,,,,,,,,0.093518575,-0.090740755,1,0,0,0.316,5,8,138,10,1,k,images/br_k.png,images/cb_k.png,,,,,,,,,,,,,,,,,,,,,,,,,
,,,,,,55987,2023-09-27_09h49.45.452,vbt_B2_day1,2022.2.4,Win32,60.07088364,55987,,,,,,,,,,,,,,,,,,,0.073148176,-0.1,1,0,0,0.3884,5,9,139,13,1,n,images/br_n.png,images/cb_n.png,,,,,,,,,,,,,,,,,,,,,,,,,
,,,,,,55987,2023-09-27_09h49.45.452,vbt_B2_day1,2022.2.4,Win32,60.07088364,55987,,,,,,,,,,,,,,,,,,,0.119444444,-0.103703732,1,0,0,0.2954,5,10,140,24,1,y,images/br_y.png,images/cb_y.png,,,,,,,,,,,,,,,,,,,,,,,,,
,,,,,,55987,2023-09-27_09h49.45.452,vbt_B2_day1,2022.2.4,Win32,60.07088364,55987,,,,,,,,,,,,,,,,,,,0.071296353,-0.073148176,1,0,0,1.0778,5,11,141,8,1,i,images/br_i.png,images/cb_i.png,,,,,,,,,,,,,,,,,,,,,,,,,
,,,,,,55987,2023-09-27_09h49.45.452,vbt_B2_day1,2022.2.4,Win32,60.07088364,55987,,,,,,,,,,,,,,,,,,,0.149074131,-0.153703732,1,0,0,1.3167,5,12,142,18,1,s,images/br_s.png,images/cb_s.png,,,,,,,,,,,,,,,,,,,,,,,,,
,,,,,,55987,2023-09-27_09h49.45.452,vbt_B2_day1,2022.2.4,Win32,60.07088364,55987,,,,,,,,,,,,,,,,,,,0.046296353,-0.180555556,1,0,0,0.0391,5,13,143,25,1,z,images/br_z.png,images/cb_z.png,,,,,,,,,,,,,,,,,,,,,,,,,
,,,,,,55987,2023-09-27_09h49.45.452,vbt_B2_day1,2022.2.4,Win32,60.07088364,55987,,,,,,,,,,,,,,,,,,,0.103703732,-0.164814843,1,0,0,0.4807,5,14,144,2,1,c,images/br_c.png,images/cb_c.png,,,,,,,,,,,,,,,,,,,,,,,,,
,,,,,,55987,2023-09-27_09h49.45.452,vbt_B2_day1,2022.2.4,Win32,60.07088364,55987,,,,,,,,,,,,,,,,,,,0.040740797,-0.158333333,1,0,0,0.1834,5,15,145,12,1,m,images/br_m.png,images/cb_m.png,,,,,,,,,,,,,,,,,,,,,,,,,
,,,,,,55987,2023-09-27_09h49.45.452,vbt_B2_day1,2022.2.4,Win32,60.07088364,55987,,,,,,,,,,,,,,,,,,,0.068518575,-0.211111111,1,0,0,0.1196,5,16,146,16,1,q,images/br_q.png,images/cb_q.png,,,,,,,,,,,,,,,,,,,,,,,,,
,,,,,,55987,2023-09-27_09h49.45.452,vbt_B2_day1,2022.2.4,Win32,60.07088364,55987,,,,,,,,,,,,,,,,,,,0.052777778,-0.178703732,1,0,0,0.6167,5,17,147,9,1,j,images/br_j.png,images/cb_j.png,,,,,,,,,,,,,,,,,,,,,,,,,
,,,,,,55987,2023-09-27_09h49.45.452,vbt_B2_day1,2022.2.4,Win32,60.07088364,55987,,,,,,,,,,,,,,,,,,,0.035185242,-0.187037065,1,0,0,1.2158,5,18,148,0,1,a,images/br_a.png,images/cb_a.png,,,,,,,,,,,,,,,,,,,,,,,,,
,,,,,,55987,2023-09-27_09h49.45.452,vbt_B2_day1,2022.2.4,Win32,60.07088364,55987,,,,,,,,,,,,,,,,,,,0.037037065,-0.175925954,1,0,0,0.8305,5,19,149,23,1,x,images/br_x.png,images/cb_x.png,,,,,,,,,,,,,,,,,,,,,,,,,
,,,,,,55987,2023-09-27_09h49.45.452,vbt_B2_day1,2022.2.4,Win32,60.07088364,55987,,,,,,,,,,,,,,,,,,,0.036111111,-0.170370399,1,0,0,0.1665,5,20,150,4,1,e,images/br_e.png,images/cb_e.png,,,,,,,,,,,,,,,,,,,,,,,,,
,,,,,,55987,2023-09-27_09h49.45.452,vbt_B2_day1,2022.2.4,Win32,60.07088364,55987,,,,,,,,,,,,,,,,,,,0.037963019,-0.166666667,1,0,0,0.5666,5,21,151,5,1,f,images/br_f.png,images/cb_f.png,,,,,,,,,,,,,,,,,,,,,,,,,
,,,,,,55987,2023-09-27_09h49.45.452,vbt_B2_day1,2022.2.4,Win32,60.07088364,55987,,,,,,,,,,,,,,,,,,,0.041666667,-0.163888889,1,0,0,0.3836,5,22,152,20,1,u,images/br_u.png,images/cb_u.png,,,,,,,,,,,,,,,,,,,,,,,,,
,,,,,,55987,2023-09-27_09h49.45.452,vbt_B2_day1,2022.2.4,Win32,60.07088364,55987,,,,,,,,,,,,,,,,,,,0.041666667,-0.163888889,1,0,0,4.5177,5,23,153,21,1,v,images/br_v.png,images/cb_v.png,,,,,,,,,,,,,,,,,,,,,,,,,
,,,,,,55987,2023-09-27_09h49.45.452,vbt_B2_day1,2022.2.4,Win32,60.07088364,55987,,,,,,,,,,,,,,,,,,,0.063888889,-0.213888889,1,0,0,0.3616,5,24,154,6,1,g,images/br_g.png,images/cb_g.png,,,,,,,,,,,,,,,,,,,,,,,,,
,,,,,,55987,2023-09-27_09h49.45.452,vbt_B2_day1,2022.2.4,Win32,60.07088364,55987,,,,,,,,,,,,,,,,,,,0.063888889,-0.213888889,1,0,0,1.0494,5,25,155,14,1,o,images/br_o.png,images/cb_o.png,,,,,,,,,,,,,,,,,,,,,,,,,
,,,,,,55987,2023-09-27_09h49.45.452,vbt_B2_day1,2022.2.4,Win32,60.07088364,55987,,,,,,,,,,,,,,,,,,,0.063888889,-0.213888889,1,0,0,1.6827,6,0,156,2,1,c,images/br_c.png,images/cb_c.png,,,,,,,,,,,,,,,,,,,,,,,,,
,,,,,,55987,2023-09-27_09h49.45.452,vbt_B2_day1,2022.2.4,Win32,60.07088364,55987,,,,,,,,,,,,,,,,,,,0.063888889,-0.213888889,1,0,0,0.6367,6,1,157,21,1,v,images/br_v.png,images/cb_v.png,,,,,,,,,,,,,,,,,,,,,,,,,
,,,,,,55987,2023-09-27_09h49.45.452,vbt_B2_day1,2022.2.4,Win32,60.07088364,55987,,,,,,,,,,,,,,,,,,,0.063888889,-0.213888889,1,0,0,0.1329,6,2,158,13,1,n,images/br_n.png,images/cb_n.png,,,,,,,,,,,,,,,,,,,,,,,,,
,,,,,,55987,2023-09-27_09h49.45.452,vbt_B2_day1,2022.2.4,Win32,60.07088364,55987,,,,,,,,,,,,,,,,,,,0.068518575,-0.222222222,1,0,0,0.5196,6,3,159,11,1,l,images/br_l.png,images/cb_l.png,,,,,,,,,,,,,,,,,,,,,,,,,
,,,,,,55987,2023-09-27_09h49.45.452,vbt_B2_day1,2022.2.4,Win32,60.07088364,55987,,,,,,,,,,,,,,,,,,,0.069444444,-0.219444444,1,0,0,0.4332,6,4,160,9,1,j,images/br_j.png,images/cb_j.png,,,,,,,,,,,,,,,,,,,,,,,,,
,,,,,,55987,2023-09-27_09h49.45.452,vbt_B2_day1,2022.2.4,Win32,60.07088364,55987,,,,,,,,,,,,,,,,,,,0.061111111,-0.185185199,1,0,0,0.3118,6,5,161,1,1,b,images/br_b.png,images/cb_b.png,,,,,,,,,,,,,,,,,,,,,,,,,
,,,,,,55987,2023-09-27_09h49.45.452,vbt_B2_day1,2022.2.4,Win32,60.07088364,55987,,,,,,,,,,,,,,,,,,,0.071296353,-0.163888889,1,0,0,0.9501,6,6,162,22,1,w,images/br_w.png,images/cb_w.png,,,,,,,,,,,,,,,,,,,,,,,,,
,,,,,,55987,2023-09-27_09h49.45.452,vbt_B2_day1,2022.2.4,Win32,60.07088364,55987,,,,,,,,,,,,,,,,,,,0.071296353,-0.163888889,1,0,0,1.8666,6,7,163,3,1,d,images/br_d.png,images/cb_d.png,,,,,,,,,,,,,,,,,,,,,,,,,
,,,,,,55987,2023-09-27_09h49.45.452,vbt_B2_day1,2022.2.4,Win32,60.07088364,55987,,,,,,,,,,,,,,,,,,,0.071296353,-0.163888889,1,0,0,0.739,6,8,164,0,1,a,images/br_a.png,images/cb_a.png,,,,,,,,,,,,,,,,,,,,,,,,,
,,,,,,55987,2023-09-27_09h49.45.452,vbt_B2_day1,2022.2.4,Win32,60.07088364,55987,,,,,,,,,,,,,,,,,,,0.071296353,-0.163888889,1,0,0,0.3829,6,9,165,7,1,h,images/br_h.png,images/cb_h.png,,,,,,,,,,,,,,,,,,,,,,,,,
,,,,,,55987,2023-09-27_09h49.45.452,vbt_B2_day1,2022.2.4,Win32,60.07088364,55987,,,,,,,,,,,,,,,,,,,0.071296353,-0.163888889,1,0,0,1.0872,6,10,166,10,1,k,images/br_k.png,images/cb_k.png,,,,,,,,,,,,,,,,,,,,,,,,,
,,,,,,55987,2023-09-27_09h49.45.452,vbt_B2_day1,2022.2.4,Win32,60.07088364,55987,,,,,,,,,,,,,,,,,,,0.084259288,-0.102777778,1,0,0,0.7997,6,11,167,20,1,u,images/br_u.png,images/cb_u.png,,,,,,,,,,,,,,,,,,,,,,,,,
,,,,,,55987,2023-09-27_09h49.45.452,vbt_B2_day1,2022.2.4,Win32,60.07088364,55987,,,,,,,,,,,,,,,,,,,0.087037065,-0.105555556,1,0,0,0.4552,6,12,168,23,1,x,images/br_x.png,images/cb_x.png,,,,,,,,,,,,,,,,,,,,,,,,,
,,,,,,55987,2023-09-27_09h49.45.452,vbt_B2_day1,2022.2.4,Win32,60.07088364,55987,,,,,,,,,,,,,,,,,,,0.094444444,-0.125,1,0,0,0.2298,6,13,169,8,1,i,images/br_i.png,images/cb_i.png,,,,,,,,,,,,,,,,,,,,,,,,,
,,,,,,55987,2023-09-27_09h49.45.452,vbt_B2_day1,2022.2.4,Win32,60.07088364,55987,,,,,,,,,,,,,,,,,,,0.094444444,-0.125,1,0,0,0.7668,6,14,170,12,1,m,images/br_m.png,images/cb_m.png,,,,,,,,,,,,,,,,,,,,,,,,,
,,,,,,55987,2023-09-27_09h49.45.452,vbt_B2_day1,2022.2.4,Win32,60.07088364,55987,,,,,,,,,,,,,,,,,,,0.094444444,-0.125,1,0,0,0.6,6,15,171,17,1,r,images/br_r.png,images/cb_r.png,,,,,,,,,,,,,,,,,,,,,,,,,
,,,,,,55987,2023-09-27_09h49.45.452,vbt_B2_day1,2022.2.4,Win32,60.07088364,55987,,,,,,,,,,,,,,,,,,,0.096296353,-0.068518533,1,0,0,0.9457,6,16,172,15,1,p,images/br_p.png,images/cb_p.png,,,,,,,,,,,,,,,,,,,,,,,,,
,,,,,,55987,2023-09-27_09h49.45.452,vbt_B2_day1,2022.2.4,Win32,60.07088364,55987,,,,,,,,,,,,,,,,,,,0.116666667,-0.125,1,0,0,0.6277,6,17,173,25,1,z,images/br_z.png,images/cb_z.png,,,,,,,,,,,,,,,,,,,,,,,,,
,,,,,,55987,2023-09-27_09h49.45.452,vbt_B2_day1,2022.2.4,Win32,60.07088364,55987,,,,,,,,,,,,,,,,,,,0.116666667,-0.125,1,0,0,1.6833,6,18,174,14,1,o,images/br_o.png,images/cb_o.png,,,,,,,,,,,,,,,,,,,,,,,,,
,,,,,,55987,2023-09-27_09h49.45.452,vbt_B2_day1,2022.2.4,Win32,60.07088364,55987,,,,,,,,,,,,,,,,,,,0.069444444,-0.075925954,1,0,0,0.8054,6,19,175,24,1,y,images/br_y.png,images/cb_y.png,,,,,,,,,,,,,,,,,,,,,,,,,
,,,,,,55987,2023-09-27_09h49.45.452,vbt_B2_day1,2022.2.4,Win32,60.07088364,55987,,,,,,,,,,,,,,,,,,,0.327777778,-0.137037065,1,0,0,2.111,6,20,176,5,1,f,images/br_f.png,images/cb_f.png,,,,,,,,,,,,,,,,,,,,,,,,,
,,,,,,55987,2023-09-27_09h49.45.452,vbt_B2_day1,2022.2.4,Win32,60.07088364,55987,,,,,,,,,,,,,,,,,,,0.171296353,-0.102777778,1,0,0,0.5117,6,21,177,19,1,t,images/br_t.png,images/cb_t.png,,,,,,,,,,,,,,,,,,,,,,,,,
,,,,,,55987,2023-09-27_09h49.45.452,vbt_B2_day1,2022.2.4,Win32,60.07088364,55987,,,,,,,,,,,,,,,,,,,0.093518575,-0.133333333,1,0,0,0.5665,6,22,178,16,1,q,images/br_q.png,images/cb_q.png,,,,,,,,,,,,,,,,,,,,,,,,,
,,,,,,55987,2023-09-27_09h49.45.452,vbt_B2_day1,2022.2.4,Win32,60.07088364,55987,,,,,,,,,,,,,,,,,,,0.128703732,-0.087962977,1,0,0,0.6999,6,23,179,4,1,e,images/br_e.png,images/cb_e.png,,,,,,,,,,,,,,,,,,,,,,,,,
,,,,,,55987,2023-09-27_09h49.45.452,vbt_B2_day1,2022.2.4,Win32,60.07088364,55987,,,,,,,,,,,,,,,,,,,0.185185242,-0.108333333,1,0,0,0.1163,6,24,180,6,1,g,images/br_g.png,images/cb_g.png,,,,,,,,,,,,,,,,,,,,,,,,,
,,,,,,55987,2023-09-27_09h49.45.452,vbt_B2_day1,2022.2.4,Win32,60.07088364,55987,,,,,,,,,,,,,,,,,,,0.162963019,-0.089814843,1,0,0,0.7997,6,25,181,18,1,s,images/br_s.png,images/cb_s.png,,,,,,,,,,,,,,,,,,,,,,,,,
,,,,,,55987,2023-09-27_09h49.45.452,vbt_B2_day1,2022.2.4,Win32,60.07088364,55987,,,,,,,,,,,,,,,,,,,,,,,,,,,,,,,,,0.162963019,-0.089814843,1,0,0,,,,,,,,,,,,,,,,,,,,
,,,,,,55987,2023-09-27_09h49.45.452,vbt_B2_day1,2022.2.4,Win32,60.07088364,55987,,,,,,,,,,,,,,,,,,,,,,,,,,,,,,,,,,,,,,0.162963019,-0.089814843,1,0,0,,,,,,,,,,,,,,,
,,,,,,55987,2023-09-27_09h49.45.452,vbt_B2_day1,2022.2.4,Win32,60.07088364,55987,,,,,,,,,,,,,,,,,,,,,,,,,,,,,,,,,,,,,,,,,,,-0.079629601,-0.338888889,1,0,0,g....,g....,0,0,0,29,1,genond,images/br_genond.png,images/cb_genond.png
,,,,,,55987,2023-09-27_09h49.45.452,vbt_B2_day1,2022.2.4,Win32,60.07088364,55987,,,,,,,,,,,,,,,,,,,,,,,,,,,,,,,,,,,,,,,,,,,0.077777778,-0.209259288,1,0,0,,,0,1,1,59,1,opvatten,images/br_opvatten.png,images/cb_opvatten.png
,,,,,,55987,2023-09-27_09h49.45.452,vbt_B2_day1,2022.2.4,Win32,60.07088364,55987,,,,,,,,,,,,,,,,,,,,,,,,,,,,,,,,,,,,,,,,,,,0.110185242,-0.319444444,1,0,0,d.ttd,d.ttd,0,2,2,21,1,dred,images/br_dred.png,images/cb_dred.png
,,,,,,55987,2023-09-27_09h49.45.452,vbt_B2_day1,2022.2.4,Win32,60.07088364,55987,,,,,,,,,,,,,,,,,,,,,,,,,,,,,,,,,,,,,,,,,,,0.153703732,-0.182407422,1,0,0,,,0,3,3,40,1,dief,images/br_dief.png,images/cb_dief.png
,,,,,,55987,2023-09-27_09h49.45.452,vbt_B2_day1,2022.2.4,Win32,60.07088364,55987,,,,,,,,,,,,,,,,,,,,,,,,,,,,,,,,,,,,,,,,,,,0.104629686,-0.316666667,1,0,0,mus...,mus...,0,4,4,10,1,muziek,images/br_muziek.png,images/cb_muziek.png
,,,,,,55987,2023-09-27_09h49.45.452,vbt_B2_day1,2022.2.4,Win32,60.07088364,55987,,,,,,,,,,,,,,,,,,,,,,,,,,,,,,,,,,,,,,,,,,,0.214814843,-0.279629686,1,0,0,zttl,zttl,0,5,5,1,1,zaal,images/br_zaal.png,images/cb_zaal.png
,,,,,,55987,2023-09-27_09h49.45.452,vbt_B2_day1,2022.2.4,Win32,60.07088364,55987,,,,,,,,,,,,,,,,,,,,,,,,,,,,,,,,,,,,,,,,,,,0.205555556,-0.291666667,1,0,0,tw.....,tw.....,0,6,6,13,1,twijfel,images/br_twijfel.png,images/cb_twijfel.png
,,,,,,55987,2023-09-27_09h49.45.452,vbt_B2_day1,2022.2.4,Win32,60.07088364,55987,,,,,,,,,,,,,,,,,,,,,,,,,,,,,,,,,,,,,,,,,,,0.205555556,-0.291666667,1,0,0,.etel,.etel,0,7,7,45,1,hemel,images/br_hemel.png,images/cb_hemel.png
,,,,,,55987,2023-09-27_09h49.45.452,vbt_B2_day1,2022.2.4,Win32,60.07088364,55987,,,,,,,,,,,,,,,,,,,,,,,,,,,,,,,,,,,,,,,,,,,0.205555556,-0.291666667,1,0,0,.ooi,.ooi,0,8,8,23,1,booi,images/br_booi.png,images/cb_booi.png
,,,,,,55987,2023-09-27_09h49.45.452,vbt_B2_day1,2022.2.4,Win32,60.07088364,55987,,,,,,,,,,,,,,,,,,,,,,,,,,,,,,,,,,,,,,,,,,,0.205555556,-0.291666667,1,0,0,te.ene,te.ene,0,9,9,55,1,tekenen,images/br_tekenen.png,images/cb_tekenen.png
,,,,,,55987,2023-09-27_09h49.45.452,vbt_B2_day1,2022.2.4,Win32,60.07088364,55987,,,,,,,,,,,,,,,,,,,,,,,,,,,,,,,,,,,,,,,,,,,0.205555556,-0.291666667,1,0,0,sc......,sc......,0,10,10,38,1,schielen,images/br_schielen.png,images/cb_schielen.png
,,,,,,55987,2023-09-27_09h49.45.452,vbt_B2_day1,2022.2.4,Win32,60.07088364,55987,,,,,,,,,,,,,,,,,,,,,,,,,,,,,,,,,,,,,,,,,,,0.230555556,-0.354629686,1,0,0,wejz.,wejz.,0,11,11,44,1,wijze,images/br_wijze.png,images/cb_wijze.png
,,,,,,55987,2023-09-27_09h49.45.452,vbt_B2_day1,2022.2.4,Win32,60.07088364,55987,,,,,,,,,,,,,,,,,,,,,,,,,,,,,,,,,,,,,,,,,,,0.230555556,-0.354629686,1,0,0,.aar...,.aar...,0,12,12,16,1,daarheen,images/br_daarheen.png,images/cb_daarheen.png
,,,,,,55987,2023-09-27_09h49.45.452,vbt_B2_day1,2022.2.4,Win32,60.07088364,55987,,,,,,,,,,,,,,,,,,,,,,,,,,,,,,,,,,,,,,,,,,,0.230555556,-0.354629686,1,0,0,toez...,toez...,0,13,13,56,1,toezicht,images/br_toezicht.png,images/cb_toezicht.png
,,,,,,55987,2023-09-27_09h49.45.452,vbt_B2_day1,2022.2.4,Win32,60.07088364,55987,,,,,,,,,,,,,,,,,,,,,,,,,,,,,,,,,,,,,,,,,,,0.230555556,-0.354629686,1,0,0,stuk,stuk,0,14,14,42,1,stuk,images/br_stuk.png,images/cb_stuk.png
,,,,,,55987,2023-09-27_09h49.45.452,vbt_B2_day1,2022.2.4,Win32,60.07088364,55987,,,,,,,,,,,,,,,,,,,,,,,,,,,,,,,,,,,,,,,,,,,0.230555556,-0.354629686,1,0,0,......,......,0,15,15,14,1,waarvan,images/br_waarvan.png,images/cb_waarvan.png
,,,,,,55987,2023-09-27_09h49.45.452,vbt_B2_day1,2022.2.4,Win32,60.07088364,55987,,,,,,,,,,,,,,,,,,,,,,,,,,,,,,,,,,,,,,,,,,,0.230555556,-0.354629686,1,0,0,..a.....,..a.....,0,16,16,37,1,spanzing,images/br_spanzing.png,images/cb_spanzing.png
,,,,,,55987,2023-09-27_09h49.45.452,vbt_B2_day1,2022.2.4,Win32,60.07088364,55987,,,,,,,,,,,,,,,,,,,,,,,,,,,,,,,,,,,,,,,,,,,0.230555556,-0.354629686,1,0,0,.alo.,.alo.,0,17,17,26,1,valop,images/br_valop.png,images/cb_valop.png
,,,,,,55987,2023-09-27_09h49.45.452,vbt_B2_day1,2022.2.4,Win32,60.07088364,55987,,,,,,,,,,,,,,,,,,,,,,,,,,,,,,,,,,,,,,,,,,,0.230555556,-0.354629686,1,0,0,jaar,jaar,0,18,18,2,1,jaar,images/br_jaar.png,images/cb_jaar.png
,,,,,,55987,2023-09-27_09h49.45.452,vbt_B2_day1,2022.2.4,Win32,60.07088364,55987,,,,,,,,,,,,,,,,,,,,,,,,,,,,,,,,,,,,,,,,,,,0.230555556,-0.354629686,1,0,0,loc....,loc....,0,19,19,34,1,lochten,images/br_lochten.png,images/cb_lochten.png
,,,,,,55987,2023-09-27_09h49.45.452,vbt_B2_day1,2022.2.4,Win32,60.07088364,55987,,,,,,,,,,,,,,,,,,,,,,,,,,,,,,,,,,,,,,,,,,,0.230555556,-0.354629686,1,0,0,slak,slak,0,20,20,0,1,slak,images/br_slak.png,images/cb_slak.png
,,,,,,55987,2023-09-27_09h49.45.452,vbt_B2_day1,2022.2.4,Win32,60.07088364,55987,,,,,,,,,,,,,,,,,,,,,,,,,,,,,,,,,,,,,,,,,,,0.230555556,-0.354629686,1,0,0,k...e.,k...e.,0,21,21,54,1,vijftig,images/br_vijftig.png,images/cb_vijftig.png
,,,,,,55987,2023-09-27_09h49.45.452,vbt_B2_day1,2022.2.4,Win32,60.07088364,55987,,,,,,,,,,,,,,,,,,,,,,,,,,,,,,,,,,,,,,,,,,,0.230555556,-0.354629686,1,0,0,fect...,fect...,0,22,22,48,1,fictie,images/br_fictie.png,images/cb_fictie.png
,,,,,,55987,2023-09-27_09h49.45.452,vbt_B2_day1,2022.2.4,Win32,60.07088364,55987,,,,,,,,,,,,,,,,,,,,,,,,,,,,,,,,,,,,,,,,,,,0.230555556,-0.354629686,1,0,0,atten...,atten...,0,23,23,17,1,attentie,images/br_attentie.png,images/cb_attentie.png
,,,,,,55987,2023-09-27_09h49.45.452,vbt_B2_day1,2022.2.4,Win32,60.07088364,55987,,,,,,,,,,,,,,,,,,,,,,,,,,,,,,,,,,,,,,,,,,,0.204629686,-0.335185242,1,0,0,lezen,lezen,0,24,24,46,1,lezen,images/br_lezen.png,images/cb_lezen.png
,,,,,,55987,2023-09-27_09h49.45.452,vbt_B2_day1,2022.2.4,Win32,60.07088364,55987,,,,,,,,,,,,,,,,,,,,,,,,,,,,,,,,,,,,,,,,,,,0.204629686,-0.335185242,1,0,0,liegen,liegen,0,25,25,50,1,liegen,images/br_liegen.png,images/cb_liegen.png
,,,,,,55987,2023-09-27_09h49.45.452,vbt_B2_day1,2022.2.4,Win32,60.07088364,55987,,,,,,,,,,,,,,,,,,,,,,,,,,,,,,,,,,,,,,,,,,,0.204629686,-0.335185242,1,0,0,.oo.,.oo.,0,26,26,41,1,hoog,images/br_hoog.png,images/cb_hoog.png
,,,,,,55987,2023-09-27_09h49.45.452,vbt_B2_day1,2022.2.4,Win32,60.07088364,55987,,,,,,,,,,,,,,,,,,,,,,,,,,,,,,,,,,,,,,,,,,,0.204629686,-0.335185242,1,0,0,meenemen,meenemen,0,27,27,57,1,meenemen,images/br_meenemen.png,images/cb_meenemen.png
,,,,,,55987,2023-09-27_09h49.45.452,vbt_B2_day1,2022.2.4,Win32,60.07088364,55987,,,,,,,,,,,,,,,,,,,,,,,,,,,,,,,,,,,,,,,,,,,0.204629686,-0.335185242,1,0,0,o.s.....,o.s.....,0,28,28,53,1,opslaan,images/br_opslaan.png,images/cb_opslaan.png
,,,,,,55987,2023-09-27_09h49.45.452,vbt_B2_day1,2022.2.4,Win32,60.07088364,55987,,,,,,,,,,,,,,,,,,,,,,,,,,,,,,,,,,,,,,,,,,,0.204629686,-0.335185242,1,0,0,vez..,vez..,0,29,29,49,1,vizier,images/br_vizier.png,images/cb_vizier.png
,,,,,,55987,2023-09-27_09h49.45.452,vbt_B2_day1,2022.2.4,Win32,60.07088364,55987,,,,,,,,,,,,,,,,,,,,,,,,,,,,,,,,,,,,,,,,,,,0.204629686,-0.335185242,1,0,0,zui....,zui....,0,30,30,52,1,zuiplap,images/br_zuiplap.png,images/cb_zuiplap.png
,,,,,,55987,2023-09-27_09h49.45.452,vbt_B2_day1,2022.2.4,Win32,60.07088364,55987,,,,,,,,,,,,,,,,,,,,,,,,,,,,,,,,,,,,,,,,,,,0.204629686,-0.335185242,1,0,0,drij.,drij.,0,31,31,25,1,brijk,images/br_brijk.png,images/cb_brijk.png
,,,,,,55987,2023-09-27_09h49.45.452,vbt_B2_day1,2022.2.4,Win32,60.07088364,55987,,,,,,,,,,,,,,,,,,,,,,,,,,,,,,,,,,,,,,,,,,,0.204629686,-0.335185242,1,0,0,mak..,mak..,0,32,32,5,1,maken,images/br_maken.png,images/cb_maken.png
,,,,,,55987,2023-09-27_09h49.45.452,vbt_B2_day1,2022.2.4,Win32,60.07088364,55987,,,,,,,,,,,,,,,,,,,,,,,,,,,,,,,,,,,,,,,,,,,0.204629686,-0.335185242,1,0,0,tars,tars,0,33,33,20,1,tars,images/br_tars.png,images/cb_tars.png
,,,,,,55987,2023-09-27_09h49.45.452,vbt_B2_day1,2022.2.4,Win32,60.07088364,55987,,,,,,,,,,,,,,,,,,,,,,,,,,,,,,,,,,,,,,,,,,,0.204629686,-0.335185242,1,0,0,lie..e,lie..e,0,34,34,51,1,liefde,images/br_liefde.png,images/cb_liefde.png
,,,,,,55987,2023-09-27_09h49.45.452,vbt_B2_day1,2022.2.4,Win32,60.07088364,55987,,,,,,,,,,,,,,,,,,,,,,,,,,,,,,,,,,,,,,,,,,,0.204629686,-0.335185242,1,0,0,.u.....,.u.....,0,35,35,9,1,dubbel,images/br_dubbel.png,images/cb_dubbel.png
,,,,,,55987,2023-09-27_09h49.45.452,vbt_B2_day1,2022.2.4,Win32,60.07088364,55987,,,,,,,,,,,,,,,,,,,,,,,,,,,,,,,,,,,,,,,,,,,0.204629686,-0.335185242,1,0,0,kl.....,kl.....,0,36,36,7,1,klauw,images/br_klauw.png,images/cb_klauw.png
,,,,,,55987,2023-09-27_09h49.45.452,vbt_B2_day1,2022.2.4,Win32,60.07088364,55987,,,,,,,,,,,,,,,,,,,,,,,,,,,,,,,,,,,,,,,,,,,0.204629686,-0.335185242,1,0,0,rezer,rezer,0,37,37,24,1,rezer,images/br_rezer.png,images/cb_rezer.png
,,,,,,55987,2023-09-27_09h49.45.452,vbt_B2_day1,2022.2.4,Win32,60.07088364,55987,,,,,,,,,,,,,,,,,,,,,,,,,,,,,,,,,,,,,,,,,,,0.204629686,-0.335185242,1,0,0,klee....,klee....,0,38,38,12,1,klimmen,images/br_klimmen.png,images/cb_klimmen.png
,,,,,,55987,2023-09-27_09h49.45.452,vbt_B2_day1,2022.2.4,Win32,60.07088364,55987,,,,,,,,,,,,,,,,,,,,,,,,,,,,,,,,,,,,,,,,,,,0.204629686,-0.335185242,1,0,0,voorr....,voorr....,0,39,39,39,1,voorreur,images/br_voorreur.png,images/cb_voorreur.png
,,,,,,55987,2023-09-27_09h49.45.452,vbt_B2_day1,2022.2.4,Win32,60.07088364,55987,,,,,,,,,,,,,,,,,,,,,,,,,,,,,,,,,,,,,,,,,,,0.204629686,-0.335185242,1,0,0,.loll...,.loll...,0,40,40,33,1,flullen,images/br_flullen.png,images/cb_flullen.png
,,,,,,55987,2023-09-27_09h49.45.452,vbt_B2_day1,2022.2.4,Win32,60.07088364,55987,,,,,,,,,,,,,,,,,,,,,,,,,,,,,,,,,,,,,,,,,,,0.083333333,-0.316666667,1,0,0,voor.e.,voor.e.,0,41,41,58,1,voorkeur,images/br_voorkeur.png,images/cb_voorkeur.png
,,,,,,55987,2023-09-27_09h49.45.452,vbt_B2_day1,2022.2.4,Win32,60.07088364,55987,,,,,,,,,,,,,,,,,,,,,,,,,,,,,,,,,,,,,,,,,,,0.175925954,-0.348148176,1,0,0,.no.e,.no.e,0,42,42,22,1,knoe,images/br_knoe.png,images/cb_knoe.png
,,,,,,55987,2023-09-27_09h49.45.452,vbt_B2_day1,2022.2.4,Win32,60.07088364,55987,,,,,,,,,,,,,,,,,,,,,,,,,,,,,,,,,,,,,,,,,,,0.175925954,-0.348148176,1,0,0,kan....,kan....,0,43,43,8,1,kanjer,images/br_kanjer.png,images/cb_kanjer.png
,,,,,,55987,2023-09-27_09h49.45.452,vbt_B2_day1,2022.2.4,Win32,60.07088364,55987,,,,,,,,,,,,,,,,,,,,,,,,,,,,,,,,,,,,,,,,,,,0.492592621,-0.310185242,1,0,0,o......,o......,0,44,44,32,1,opplaan,images/br_opplaan.png,images/cb_opplaan.png
,,,,,,55987,2023-09-27_09h49.45.452,vbt_B2_day1,2022.2.4,Win32,60.07088364,55987,,,,,,,,,,,,,,,,,,,,,,,,,,,,,,,,,,,,,,,,,,,0.492592621,-0.310185242,1,0,0,uit.....,uit.....,0,45,45,18,1,uitdelen,images/br_uitdelen.png,images/cb_uitdelen.png
,,,,,,55987,2023-09-27_09h49.45.452,vbt_B2_day1,2022.2.4,Win32,60.07088364,55987,,,,,,,,,,,,,,,,,,,,,,,,,,,,,,,,,,,,,,,,,,,0.492592621,-0.310185242,1,0,0,uitv...,uitv...,0,46,46,36,1,vervaden,images/br_vervaden.png,images/cb_vervaden.png
,,,,,,55987,2023-09-27_09h49.45.452,vbt_B2_day1,2022.2.4,Win32,60.07088364,55987,,,,,,,,,,,,,,,,,,,,,,,,,,,,,,,,,,,,,,,,,,,0.087963019,-0.383333333,1,0,0,man.,man.,0,47,47,3,1,mand,images/br_mand.png,images/cb_mand.png
,,,,,,55987,2023-09-27_09h49.45.452,vbt_B2_day1,2022.2.4,Win32,60.07088364,55987,,,,,,,,,,,,,,,,,,,,,,,,,,,,,,,,,,,,,,,,,,,0.087963019,-0.383333333,1,0,0,lana,lana,0,48,48,43,1,lava,images/br_lava.png,images/cb_lava.png
,,,,,,55987,2023-09-27_09h49.45.452,vbt_B2_day1,2022.2.4,Win32,60.07088364,55987,,,,,,,,,,,,,,,,,,,,,,,,,,,,,,,,,,,,,,,,,,,0.075,-0.316666667,1,0,0,loo.s,loo.s,0,49,49,47,1,loods,images/br_loods.png,images/cb_loods.png
,,,,,,55987,2023-09-27_09h49.45.452,vbt_B2_day1,2022.2.4,Win32,60.07088364,55987,,,,,,,,,,,,,,,,,,,,,,,,,,,,,,,,,,,,,,,,,,,0.075,-0.316666667,1,0,0,leni..,leni..,0,50,50,11,1,mening,images/br_mening.png,images/cb_mening.png
,,,,,,55987,2023-09-27_09h49.45.452,vbt_B2_day1,2022.2.4,Win32,60.07088364,55987,,,,,,,,,,,,,,,,,,,,,,,,,,,,,,,,,,,,,,,,,,,0.075,-0.316666667,1,0,0,stuik..,stuik..,0,51,51,35,1,stuikem,images/br_stuikem.png,images/cb_stuikem.png
,,,,,,55987,2023-09-27_09h49.45.452,vbt_B2_day1,2022.2.4,Win32,60.07088364,55987,,,,,,,,,,,,,,,,,,,,,,,,,,,,,,,,,,,,,,,,,,,0.003703732,-0.266666667,1,0,0,sch.....,sch.....,0,52,52,19,1,schuilen,images/br_schuilen.png,images/cb_schuilen.png
,,,,,,55987,2023-09-27_09h49.45.452,vbt_B2_day1,2022.2.4,Win32,60.07088364,55987,,,,,,,,,,,,,,,,,,,,,,,,,,,,,,,,,,,,,,,,,,,0.003703732,-0.266666667,1,0,0,ree...,ree...,0,53,53,30,1,reedje,images/br_reedje.png,images/cb_reedje.png
,,,,,,55987,2023-09-27_09h49.45.452,vbt_B2_day1,2022.2.4,Win32,60.07088364,55987,,,,,,,,,,,,,,,,,,,,,,,,,,,,,,,,,,,,,,,,,,,0.003703732,-0.266666667,1,0,0,schee.,schee.,0,54,54,4,1,schep,images/br_schep.png,images/cb_schep.png
,,,,,,55987,2023-09-27_09h49.45.452,vbt_B2_day1,2022.2.4,Win32,60.07088364,55987,,,,,,,,,,,,,,,,,,,,,,,,,,,,,,,,,,,,,,,,,,,0.003703732,-0.266666667,1,0,0,..ee.,..ee.,0,55,55,6,1,bleek,images/br_bleek.png,images/cb_bleek.png
,,,,,,55987,2023-09-27_09h49.45.452,vbt_B2_day1,2022.2.4,Win32,60.07088364,55987,,,,,,,,,,,,,,,,,,,,,,,,,,,,,,,,,,,,,,,,,,,0.003703732,-0.266666667,1,0,0,.ror.,.ror.,0,56,56,27,1,prort,images/br_prort.png,images/cb_prort.png
,,,,,,55987,2023-09-27_09h49.45.452,vbt_B2_day1,2022.2.4,Win32,60.07088364,55987,,,,,,,,,,,,,,,,,,,,,,,,,,,,,,,,,,,,,,,,,,,0.003703732,-0.266666667,1,0,0,,,0,57,57,31,1,stamen,images/br_stamen.png,images/cb_stamen.png
,,,,,,55987,2023-09-27_09h49.45.452,vbt_B2_day1,2022.2.4,Win32,60.07088364,55987,,,,,,,,,,,,,,,,,,,,,,,,,,,,,,,,,,,,,,,,,,,0.003703732,-0.266666667,1,0,0,.eer.a.,.eer.a.,0,58,58,15,1,hiervan,images/br_hiervan.png,images/cb_hiervan.png
,,,,,,55987,2023-09-27_09h49.45.452,vbt_B2_day1,2022.2.4,Win32,60.07088364,55987,,,,,,,,,,,,,,,,,,,,,,,,,,,,,,,,,,,,,,,,,,,0.003703732,-0.266666667,1,0,0,.e.rt.,.e.rt.,0,59,59,28,1,bebrip,images/br_bebrip.png,images/cb_bebrip.png
,,,,,,55987,2023-09-27_09h49.45.452,vbt_B2_day1,2022.2.4,Win32,60.07088364,55987,,,,,,,,,,,,,,,,,,,,,,,,,,,,,,,,,,,,,,,,,,,,,,,,,,,,,,,,,
