welcome_mouse.x,welcome_mouse.y,welcome_mouse.leftButton,welcome_mouse.midButton,welcome_mouse.rightButton,welcome_mouse.time,"ID",date,expName,psychopyVersion,OS,frameRate,mouse_2.x,mouse_2.y,mouse_2.leftButton,mouse_2.midButton,mouse_2.rightButton,mouse_2.time,mouse_3.x,mouse_3.y,mouse_3.leftButton,mouse_3.midButton,mouse_3.rightButton,mouse_3.time,train_mouse.x,train_mouse.y,train_mouse.leftButton,train_mouse.midButton,train_mouse.rightButton,train_mouse.time,braille_mouse.x,braille_mouse.y,braille_mouse.leftButton,braille_mouse.midButton,braille_mouse.rightButton,braille_mouse.time,trials.thisRepN,trials.thisTrialN,trials.thisN,trials.thisIndex,trials.ran,nlLet,brLet,cbLet,mouse.x,mouse.y,mouse.leftButton,mouse.midButton,mouse.rightButton,testInstr_mouse.x,testInstr_mouse.y,testInstr_mouse.leftButton,testInstr_mouse.midButton,testInstr_mouse.rightButton,test_mouse.x,test_mouse.y,test_mouse.leftButton,test_mouse.midButton,test_mouse.rightButton,test_response.text,testResp,test_loop.thisRepN,test_loop.thisTrialN,test_loop.thisN,test_loop.thisIndex,test_loop.ran,nlWrd,brWrd,cbWrd
-0.15986437,-0.300859468,1,0,0,18.8553,00053,2023-10-18_19h26.20.544,vbt_B2_day1,2022.2.4,Linux x86_64,60.00960154,,,,,,,,,,,,,,,,,,,,,,,,,,,,,,,,,,,,,,,,,,,,,,,,,,,,,,,,,
,,,,,,00053,2023-10-18_19h26.20.544,vbt_B2_day1,2022.2.4,Linux x86_64,60.00960154,-0.035460571,-0.286548318,1,0,0,5.661,,,,,,,,,,,,,,,,,,,,,,,,,,,,,,,,,,,,,,,,,,,,,,,,,,,
,,,,,,00053,2023-10-18_19h26.20.544,vbt_B2_day1,2022.2.4,Linux x86_64,60.00960154,,,,,,,0.021385863,-0.198570067,1,0,0,5.1795,,,,,,,,,,,,,,,,,,,,,,,,,,,,,,,,,,,,,,,,,,,,,
,,,,,,00053,2023-10-18_19h26.20.544,vbt_B2_day1,2022.2.4,Linux x86_64,60.00960154,,,,,,,,,,,,,-0.00467296,-0.293101317,1,0,0,20.7084,,,,,,,,,,,,,,,,,,,,,,,,,,,,,,,,,,,,,,,
,,,,,,00053,2023-10-18_19h26.20.544,vbt_B2_day1,2022.2.4,Linux x86_64,60.00960154,,,,,,,,,,,,,,,,,,,0.131113546,-0.241491855,1,0,0,6.7005,0,0,0,24,1,y,images/br_y.png,images/cb_y.png,,,,,,,,,,,,,,,,,,,,,,,,,
,,,,,,00053,2023-10-18_19h26.20.544,vbt_B2_day1,2022.2.4,Linux x86_64,60.00960154,,,,,,,,,,,,,,,,,,,0.131113546,-0.241491855,1,0,0,2.8335,0,1,1,2,1,c,images/br_c.png,images/cb_c.png,,,,,,,,,,,,,,,,,,,,,,,,,
,,,,,,00053,2023-10-18_19h26.20.544,vbt_B2_day1,2022.2.4,Linux x86_64,60.00960154,,,,,,,,,,,,,,,,,,,0.131113546,-0.241491855,1,0,0,5.1657,0,2,2,14,1,o,images/br_o.png,images/cb_o.png,,,,,,,,,,,,,,,,,,,,,,,,,
,,,,,,00053,2023-10-18_19h26.20.544,vbt_B2_day1,2022.2.4,Linux x86_64,60.00960154,,,,,,,,,,,,,,,,,,,0.131113546,-0.241491855,1,0,0,3.2326,0,3,3,23,1,x,images/br_x.png,images/cb_x.png,,,,,,,,,,,,,,,,,,,,,,,,,
,,,,,,00053,2023-10-18_19h26.20.544,vbt_B2_day1,2022.2.4,Linux x86_64,60.00960154,,,,,,,,,,,,,,,,,,,0.131113546,-0.241491855,1,0,0,3.2,0,4,4,19,1,t,images/br_t.png,images/cb_t.png,,,,,,,,,,,,,,,,,,,,,,,,,
,,,,,,00053,2023-10-18_19h26.20.544,vbt_B2_day1,2022.2.4,Linux x86_64,60.00960154,,,,,,,,,,,,,,,,,,,0.131113546,-0.241491855,1,0,0,4.0655,0,5,5,7,1,h,images/br_h.png,images/cb_h.png,,,,,,,,,,,,,,,,,,,,,,,,,
,,,,,,00053,2023-10-18_19h26.20.544,vbt_B2_day1,2022.2.4,Linux x86_64,60.00960154,,,,,,,,,,,,,,,,,,,0.131113546,-0.241491855,1,0,0,3.049,0,6,6,21,1,v,images/br_v.png,images/cb_v.png,,,,,,,,,,,,,,,,,,,,,,,,,
,,,,,,00053,2023-10-18_19h26.20.544,vbt_B2_day1,2022.2.4,Linux x86_64,60.00960154,,,,,,,,,,,,,,,,,,,0.131113546,-0.241491855,1,0,0,4.951,0,7,7,1,1,b,images/br_b.png,images/cb_b.png,,,,,,,,,,,,,,,,,,,,,,,,,
,,,,,,00053,2023-10-18_19h26.20.544,vbt_B2_day1,2022.2.4,Linux x86_64,60.00960154,,,,,,,,,,,,,,,,,,,0.131113546,-0.241491855,1,0,0,3.5836,0,8,8,8,1,i,images/br_i.png,images/cb_i.png,,,,,,,,,,,,,,,,,,,,,,,,,
,,,,,,00053,2023-10-18_19h26.20.544,vbt_B2_day1,2022.2.4,Linux x86_64,60.00960154,,,,,,,,,,,,,,,,,,,0.131113546,-0.240022968,1,0,0,7.2154,0,9,9,16,1,q,images/br_q.png,images/cb_q.png,,,,,,,,,,,,,,,,,,,,,,,,,
,,,,,,00053,2023-10-18_19h26.20.544,vbt_B2_day1,2022.2.4,Linux x86_64,60.00960154,,,,,,,,,,,,,,,,,,,0.131113546,-0.240022968,1,0,0,2.3492,0,10,10,6,1,g,images/br_g.png,images/cb_g.png,,,,,,,,,,,,,,,,,,,,,,,,,
,,,,,,00053,2023-10-18_19h26.20.544,vbt_B2_day1,2022.2.4,Linux x86_64,60.00960154,,,,,,,,,,,,,,,,,,,0.131113546,-0.240022968,1,0,0,2.6827,0,11,11,20,1,u,images/br_u.png,images/cb_u.png,,,,,,,,,,,,,,,,,,,,,,,,,
,,,,,,00053,2023-10-18_19h26.20.544,vbt_B2_day1,2022.2.4,Linux x86_64,60.00960154,,,,,,,,,,,,,,,,,,,0.131113546,-0.240022968,1,0,0,2.1168,0,12,12,3,1,d,images/br_d.png,images/cb_d.png,,,,,,,,,,,,,,,,,,,,,,,,,
,,,,,,00053,2023-10-18_19h26.20.544,vbt_B2_day1,2022.2.4,Linux x86_64,60.00960154,,,,,,,,,,,,,,,,,,,0.131113546,-0.240022968,1,0,0,1.6488,0,13,13,12,1,m,images/br_m.png,images/cb_m.png,,,,,,,,,,,,,,,,,,,,,,,,,
,,,,,,00053,2023-10-18_19h26.20.544,vbt_B2_day1,2022.2.4,Linux x86_64,60.00960154,,,,,,,,,,,,,,,,,,,0.248012509,-0.094475463,1,0,0,6.6991,0,14,14,0,1,a,images/br_a.png,images/cb_a.png,,,,,,,,,,,,,,,,,,,,,,,,,
,,,,,,00053,2023-10-18_19h26.20.544,vbt_B2_day1,2022.2.4,Linux x86_64,60.00960154,,,,,,,,,,,,,,,,,,,0.248012509,-0.094475463,1,0,0,2.3323,0,15,15,18,1,s,images/br_s.png,images/cb_s.png,,,,,,,,,,,,,,,,,,,,,,,,,
,,,,,,00053,2023-10-18_19h26.20.544,vbt_B2_day1,2022.2.4,Linux x86_64,60.00960154,,,,,,,,,,,,,,,,,,,0.248012509,-0.094475463,1,0,0,8.8156,0,16,16,17,1,r,images/br_r.png,images/cb_r.png,,,,,,,,,,,,,,,,,,,,,,,,,
,,,,,,00053,2023-10-18_19h26.20.544,vbt_B2_day1,2022.2.4,Linux x86_64,60.00960154,,,,,,,,,,,,,,,,,,,0.248012509,-0.094475463,1,0,0,2.2662,0,17,17,5,1,f,images/br_f.png,images/cb_f.png,,,,,,,,,,,,,,,,,,,,,,,,,
,,,,,,00053,2023-10-18_19h26.20.544,vbt_B2_day1,2022.2.4,Linux x86_64,60.00960154,,,,,,,,,,,,,,,,,,,0.248012509,-0.094475463,1,0,0,4.8651,0,18,18,13,1,n,images/br_n.png,images/cb_n.png,,,,,,,,,,,,,,,,,,,,,,,,,
,,,,,,00053,2023-10-18_19h26.20.544,vbt_B2_day1,2022.2.4,Linux x86_64,60.00960154,,,,,,,,,,,,,,,,,,,0.248012509,-0.094475463,1,0,0,1.9834,0,19,19,15,1,p,images/br_p.png,images/cb_p.png,,,,,,,,,,,,,,,,,,,,,,,,,
,,,,,,00053,2023-10-18_19h26.20.544,vbt_B2_day1,2022.2.4,Linux x86_64,60.00960154,,,,,,,,,,,,,,,,,,,0.248012509,-0.094475463,1,0,0,2.5149,0,20,20,11,1,l,images/br_l.png,images/cb_l.png,,,,,,,,,,,,,,,,,,,,,,,,,
,,,,,,00053,2023-10-18_19h26.20.544,vbt_B2_day1,2022.2.4,Linux x86_64,60.00960154,,,,,,,,,,,,,,,,,,,0.248012509,-0.094475463,1,0,0,1.5996,0,21,21,10,1,k,images/br_k.png,images/cb_k.png,,,,,,,,,,,,,,,,,,,,,,,,,
,,,,,,00053,2023-10-18_19h26.20.544,vbt_B2_day1,2022.2.4,Linux x86_64,60.00960154,,,,,,,,,,,,,,,,,,,0.248012509,-0.094475463,1,0,0,1.2488,0,22,22,9,1,j,images/br_j.png,images/cb_j.png,,,,,,,,,,,,,,,,,,,,,,,,,
,,,,,,00053,2023-10-18_19h26.20.544,vbt_B2_day1,2022.2.4,Linux x86_64,60.00960154,,,,,,,,,,,,,,,,,,,0.248012509,-0.094475463,1,0,0,2.7668,0,23,23,25,1,z,images/br_z.png,images/cb_z.png,,,,,,,,,,,,,,,,,,,,,,,,,
,,,,,,00053,2023-10-18_19h26.20.544,vbt_B2_day1,2022.2.4,Linux x86_64,60.00960154,,,,,,,,,,,,,,,,,,,0.248012509,-0.094475463,1,0,0,0.8326,0,24,24,4,1,e,images/br_e.png,images/cb_e.png,,,,,,,,,,,,,,,,,,,,,,,,,
,,,,,,00053,2023-10-18_19h26.20.544,vbt_B2_day1,2022.2.4,Linux x86_64,60.00960154,,,,,,,,,,,,,,,,,,,0.248012509,-0.094475463,1,0,0,1.8488,0,25,25,22,1,w,images/br_w.png,images/cb_w.png,,,,,,,,,,,,,,,,,,,,,,,,,
,,,,,,00053,2023-10-18_19h26.20.544,vbt_B2_day1,2022.2.4,Linux x86_64,60.00960154,,,,,,,,,,,,,,,,,,,0.248012509,-0.094475463,1,0,0,1.3988,1,0,26,5,1,f,images/br_f.png,images/cb_f.png,,,,,,,,,,,,,,,,,,,,,,,,,
,,,,,,00053,2023-10-18_19h26.20.544,vbt_B2_day1,2022.2.4,Linux x86_64,60.00960154,,,,,,,,,,,,,,,,,,,0.248012509,-0.094475463,1,0,0,2.199,1,1,27,24,1,y,images/br_y.png,images/cb_y.png,,,,,,,,,,,,,,,,,,,,,,,,,
,,,,,,00053,2023-10-18_19h26.20.544,vbt_B2_day1,2022.2.4,Linux x86_64,60.00960154,,,,,,,,,,,,,,,,,,,0.248012509,-0.094475463,1,0,0,0.7172,1,2,28,10,1,k,images/br_k.png,images/cb_k.png,,,,,,,,,,,,,,,,,,,,,,,,,
,,,,,,00053,2023-10-18_19h26.20.544,vbt_B2_day1,2022.2.4,Linux x86_64,60.00960154,,,,,,,,,,,,,,,,,,,0.176783626,-0.160188517,1,0,0,1.5496,1,3,29,12,1,m,images/br_m.png,images/cb_m.png,,,,,,,,,,,,,,,,,,,,,,,,,
,,,,,,00053,2023-10-18_19h26.20.544,vbt_B2_day1,2022.2.4,Linux x86_64,60.00960154,,,,,,,,,,,,,,,,,,,0.176783626,-0.160188517,1,0,0,2.5995,1,4,30,9,1,j,images/br_j.png,images/cb_j.png,,,,,,,,,,,,,,,,,,,,,,,,,
,,,,,,00053,2023-10-18_19h26.20.544,vbt_B2_day1,2022.2.4,Linux x86_64,60.00960154,,,,,,,,,,,,,,,,,,,0.176783626,-0.160188517,1,0,0,0.8506,1,5,31,11,1,l,images/br_l.png,images/cb_l.png,,,,,,,,,,,,,,,,,,,,,,,,,
,,,,,,00053,2023-10-18_19h26.20.544,vbt_B2_day1,2022.2.4,Linux x86_64,60.00960154,,,,,,,,,,,,,,,,,,,0.067634651,-0.202374851,1,0,0,2.6837,1,6,32,14,1,o,images/br_o.png,images/cb_o.png,,,,,,,,,,,,,,,,,,,,,,,,,
,,,,,,00053,2023-10-18_19h26.20.544,vbt_B2_day1,2022.2.4,Linux x86_64,60.00960154,,,,,,,,,,,,,,,,,,,0.067634651,-0.202374851,1,0,0,0.4832,1,7,33,4,1,e,images/br_e.png,images/cb_e.png,,,,,,,,,,,,,,,,,,,,,,,,,
,,,,,,00053,2023-10-18_19h26.20.544,vbt_B2_day1,2022.2.4,Linux x86_64,60.00960154,,,,,,,,,,,,,,,,,,,0.067634651,-0.202374851,1,0,0,0.2998,1,8,34,2,1,c,images/br_c.png,images/cb_c.png,,,,,,,,,,,,,,,,,,,,,,,,,
,,,,,,00053,2023-10-18_19h26.20.544,vbt_B2_day1,2022.2.4,Linux x86_64,60.00960154,,,,,,,,,,,,,,,,,,,0.049257704,-0.226630144,1,0,0,5.9484,1,9,35,13,1,n,images/br_n.png,images/cb_n.png,,,,,,,,,,,,,,,,,,,,,,,,,
,,,,,,00053,2023-10-18_19h26.20.544,vbt_B2_day1,2022.2.4,Linux x86_64,60.00960154,,,,,,,,,,,,,,,,,,,0.049257704,-0.226630144,1,0,0,1.2188,1,10,36,21,1,v,images/br_v.png,images/cb_v.png,,,,,,,,,,,,,,,,,,,,,,,,,
,,,,,,00053,2023-10-18_19h26.20.544,vbt_B2_day1,2022.2.4,Linux x86_64,60.00960154,,,,,,,,,,,,,,,,,,,0.118938781,-0.219334849,1,0,0,0.5155,1,11,37,15,1,p,images/br_p.png,images/cb_p.png,,,,,,,,,,,,,,,,,,,,,,,,,
,,,,,,00053,2023-10-18_19h26.20.544,vbt_B2_day1,2022.2.4,Linux x86_64,60.00960154,,,,,,,,,,,,,,,,,,,0.118938781,-0.219334849,1,0,0,1.7656,1,12,38,7,1,h,images/br_h.png,images/cb_h.png,,,,,,,,,,,,,,,,,,,,,,,,,
,,,,,,00053,2023-10-18_19h26.20.544,vbt_B2_day1,2022.2.4,Linux x86_64,60.00960154,,,,,,,,,,,,,,,,,,,0.037080296,-0.231856464,1,0,0,1.6323,1,13,39,22,1,w,images/br_w.png,images/cb_w.png,,,,,,,,,,,,,,,,,,,,,,,,,
,,,,,,00053,2023-10-18_19h26.20.544,vbt_B2_day1,2022.2.4,Linux x86_64,60.00960154,,,,,,,,,,,,,,,,,,,-0.012040331,-0.188275885,1,0,0,4.1159,1,14,40,20,1,u,images/br_u.png,images/cb_u.png,,,,,,,,,,,,,,,,,,,,,,,,,
,,,,,,00053,2023-10-18_19h26.20.544,vbt_B2_day1,2022.2.4,Linux x86_64,60.00960154,,,,,,,,,,,,,,,,,,,-0.012040331,-0.188275885,1,0,0,1.6829,1,15,41,0,1,a,images/br_a.png,images/cb_a.png,,,,,,,,,,,,,,,,,,,,,,,,,
,,,,,,00053,2023-10-18_19h26.20.544,vbt_B2_day1,2022.2.4,Linux x86_64,60.00960154,,,,,,,,,,,,,,,,,,,-0.012040331,-0.188275885,1,0,0,0.9839,1,16,42,23,1,x,images/br_x.png,images/cb_x.png,,,,,,,,,,,,,,,,,,,,,,,,,
,,,,,,00053,2023-10-18_19h26.20.544,vbt_B2_day1,2022.2.4,Linux x86_64,60.00960154,,,,,,,,,,,,,,,,,,,0.036711441,-0.20132699,1,0,0,8.148,1,17,43,18,1,s,images/br_s.png,images/cb_s.png,,,,,,,,,,,,,,,,,,,,,,,,,
,,,,,,00053,2023-10-18_19h26.20.544,vbt_B2_day1,2022.2.4,Linux x86_64,60.00960154,,,,,,,,,,,,,,,,,,,0.036711441,-0.20132699,1,0,0,0.8665,1,18,44,17,1,r,images/br_r.png,images/cb_r.png,,,,,,,,,,,,,,,,,,,,,,,,,
,,,,,,00053,2023-10-18_19h26.20.544,vbt_B2_day1,2022.2.4,Linux x86_64,60.00960154,,,,,,,,,,,,,,,,,,,0.036711441,-0.20132699,1,0,0,2.066,1,19,45,8,1,i,images/br_i.png,images/cb_i.png,,,,,,,,,,,,,,,,,,,,,,,,,
,,,,,,00053,2023-10-18_19h26.20.544,vbt_B2_day1,2022.2.4,Linux x86_64,60.00960154,,,,,,,,,,,,,,,,,,,-0.016025111,-0.234379276,1,0,0,2.3322,1,20,46,25,1,z,images/br_z.png,images/cb_z.png,,,,,,,,,,,,,,,,,,,,,,,,,
,,,,,,00053,2023-10-18_19h26.20.544,vbt_B2_day1,2022.2.4,Linux x86_64,60.00960154,,,,,,,,,,,,,,,,,,,0.00894651,-0.225749372,1,0,0,4.4824,1,21,47,19,1,t,images/br_t.png,images/cb_t.png,,,,,,,,,,,,,,,,,,,,,,,,,
,,,,,,00053,2023-10-18_19h26.20.544,vbt_B2_day1,2022.2.4,Linux x86_64,60.00960154,,,,,,,,,,,,,,,,,,,0.00894651,-0.225749372,1,0,0,1.9839,1,22,48,3,1,d,images/br_d.png,images/cb_d.png,,,,,,,,,,,,,,,,,,,,,,,,,
,,,,,,00053,2023-10-18_19h26.20.544,vbt_B2_day1,2022.2.4,Linux x86_64,60.00960154,,,,,,,,,,,,,,,,,,,0.04342733,-0.150213934,1,0,0,1.8183,1,23,49,6,1,g,images/br_g.png,images/cb_g.png,,,,,,,,,,,,,,,,,,,,,,,,,
,,,,,,00053,2023-10-18_19h26.20.544,vbt_B2_day1,2022.2.4,Linux x86_64,60.00960154,,,,,,,,,,,,,,,,,,,0.033403802,-0.20120593,1,0,0,2.0831,1,24,50,1,1,b,images/br_b.png,images/cb_b.png,,,,,,,,,,,,,,,,,,,,,,,,,
,,,,,,00053,2023-10-18_19h26.20.544,vbt_B2_day1,2022.2.4,Linux x86_64,60.00960154,,,,,,,,,,,,,,,,,,,0.033403802,-0.20120593,1,0,0,8.4987,1,25,51,16,1,q,images/br_q.png,images/cb_q.png,,,,,,,,,,,,,,,,,,,,,,,,,
,,,,,,00053,2023-10-18_19h26.20.544,vbt_B2_day1,2022.2.4,Linux x86_64,60.00960154,,,,,,,,,,,,,,,,,,,0.033403802,-0.20120593,1,0,0,2.3685,2,0,52,2,1,c,images/br_c.png,images/cb_c.png,,,,,,,,,,,,,,,,,,,,,,,,,
,,,,,,00053,2023-10-18_19h26.20.544,vbt_B2_day1,2022.2.4,Linux x86_64,60.00960154,,,,,,,,,,,,,,,,,,,0.033403802,-0.20120593,1,0,0,4.7822,2,1,53,13,1,n,images/br_n.png,images/cb_n.png,,,,,,,,,,,,,,,,,,,,,,,,,
,,,,,,00053,2023-10-18_19h26.20.544,vbt_B2_day1,2022.2.4,Linux x86_64,60.00960154,,,,,,,,,,,,,,,,,,,0.033403802,-0.20120593,1,0,0,0.6336,2,2,54,19,1,t,images/br_t.png,images/cb_t.png,,,,,,,,,,,,,,,,,,,,,,,,,
,,,,,,00053,2023-10-18_19h26.20.544,vbt_B2_day1,2022.2.4,Linux x86_64,60.00960154,,,,,,,,,,,,,,,,,,,0.033403802,-0.20120593,1,0,0,0.2656,2,3,55,22,1,w,images/br_w.png,images/cb_w.png,,,,,,,,,,,,,,,,,,,,,,,,,
,,,,,,00053,2023-10-18_19h26.20.544,vbt_B2_day1,2022.2.4,Linux x86_64,60.00960154,,,,,,,,,,,,,,,,,,,0.033403802,-0.20120593,1,0,0,1.2331,2,4,56,24,1,y,images/br_y.png,images/cb_y.png,,,,,,,,,,,,,,,,,,,,,,,,,
,,,,,,00053,2023-10-18_19h26.20.544,vbt_B2_day1,2022.2.4,Linux x86_64,60.00960154,,,,,,,,,,,,,,,,,,,0.033403802,-0.20120593,1,0,0,0.9996,2,5,57,9,1,j,images/br_j.png,images/cb_j.png,,,,,,,,,,,,,,,,,,,,,,,,,
,,,,,,00053,2023-10-18_19h26.20.544,vbt_B2_day1,2022.2.4,Linux x86_64,60.00960154,,,,,,,,,,,,,,,,,,,0.015724134,-0.219179656,1,0,0,3.7497,2,6,58,0,1,a,images/br_a.png,images/cb_a.png,,,,,,,,,,,,,,,,,,,,,,,,,
,,,,,,00053,2023-10-18_19h26.20.544,vbt_B2_day1,2022.2.4,Linux x86_64,60.00960154,,,,,,,,,,,,,,,,,,,0.040917191,-0.217296586,1,0,0,4.9516,2,7,59,4,1,e,images/br_e.png,images/cb_e.png,,,,,,,,,,,,,,,,,,,,,,,,,
,,,,,,00053,2023-10-18_19h26.20.544,vbt_B2_day1,2022.2.4,Linux x86_64,60.00960154,,,,,,,,,,,,,,,,,,,0.040917191,-0.217296586,1,0,0,0.4167,2,8,60,7,1,h,images/br_h.png,images/cb_h.png,,,,,,,,,,,,,,,,,,,,,,,,,
,,,,,,00053,2023-10-18_19h26.20.544,vbt_B2_day1,2022.2.4,Linux x86_64,60.00960154,,,,,,,,,,,,,,,,,,,0.040917191,-0.217296586,1,0,0,1.383,2,9,61,5,1,f,images/br_f.png,images/cb_f.png,,,,,,,,,,,,,,,,,,,,,,,,,
,,,,,,00053,2023-10-18_19h26.20.544,vbt_B2_day1,2022.2.4,Linux x86_64,60.00960154,,,,,,,,,,,,,,,,,,,0.040917191,-0.217296586,1,0,0,4.1323,2,10,62,1,1,b,images/br_b.png,images/cb_b.png,,,,,,,,,,,,,,,,,,,,,,,,,
,,,,,,00053,2023-10-18_19h26.20.544,vbt_B2_day1,2022.2.4,Linux x86_64,60.00960154,,,,,,,,,,,,,,,,,,,0.040917191,-0.217296586,1,0,0,0.3667,2,11,63,23,1,x,images/br_x.png,images/cb_x.png,,,,,,,,,,,,,,,,,,,,,,,,,
,,,,,,00053,2023-10-18_19h26.20.544,vbt_B2_day1,2022.2.4,Linux x86_64,60.00960154,,,,,,,,,,,,,,,,,,,0.053579226,-0.200064145,1,0,0,4.5334,2,12,64,14,1,o,images/br_o.png,images/cb_o.png,,,,,,,,,,,,,,,,,,,,,,,,,
,,,,,,00053,2023-10-18_19h26.20.544,vbt_B2_day1,2022.2.4,Linux x86_64,60.00960154,,,,,,,,,,,,,,,,,,,0.053579226,-0.200064145,1,0,0,3.3167,2,13,65,16,1,q,images/br_q.png,images/cb_q.png,,,,,,,,,,,,,,,,,,,,,,,,,
,,,,,,00053,2023-10-18_19h26.20.544,vbt_B2_day1,2022.2.4,Linux x86_64,60.00960154,,,,,,,,,,,,,,,,,,,0.053579226,-0.200064145,1,0,0,0.3668,2,14,66,21,1,v,images/br_v.png,images/cb_v.png,,,,,,,,,,,,,,,,,,,,,,,,,
,,,,,,00053,2023-10-18_19h26.20.544,vbt_B2_day1,2022.2.4,Linux x86_64,60.00960154,,,,,,,,,,,,,,,,,,,0.053579226,-0.200064145,1,0,0,2.4993,2,15,67,12,1,m,images/br_m.png,images/cb_m.png,,,,,,,,,,,,,,,,,,,,,,,,,
,,,,,,00053,2023-10-18_19h26.20.544,vbt_B2_day1,2022.2.4,Linux x86_64,60.00960154,,,,,,,,,,,,,,,,,,,0.053579226,-0.200064145,1,0,0,1.6157,2,16,68,25,1,z,images/br_z.png,images/cb_z.png,,,,,,,,,,,,,,,,,,,,,,,,,
,,,,,,00053,2023-10-18_19h26.20.544,vbt_B2_day1,2022.2.4,Linux x86_64,60.00960154,,,,,,,,,,,,,,,,,,,0.053579226,-0.200064145,1,0,0,1.6159,2,17,69,8,1,i,images/br_i.png,images/cb_i.png,,,,,,,,,,,,,,,,,,,,,,,,,
,,,,,,00053,2023-10-18_19h26.20.544,vbt_B2_day1,2022.2.4,Linux x86_64,60.00960154,,,,,,,,,,,,,,,,,,,0.053579226,-0.200064145,1,0,0,4.0495,2,18,70,10,1,k,images/br_k.png,images/cb_k.png,,,,,,,,,,,,,,,,,,,,,,,,,
,,,,,,00053,2023-10-18_19h26.20.544,vbt_B2_day1,2022.2.4,Linux x86_64,60.00960154,,,,,,,,,,,,,,,,,,,0.03871666,-0.206842469,1,0,0,1.2329,2,19,71,6,1,g,images/br_g.png,images/cb_g.png,,,,,,,,,,,,,,,,,,,,,,,,,
,,,,,,00053,2023-10-18_19h26.20.544,vbt_B2_day1,2022.2.4,Linux x86_64,60.00960154,,,,,,,,,,,,,,,,,,,0.012399078,-0.214677517,1,0,0,1.9495,2,20,72,20,1,u,images/br_u.png,images/cb_u.png,,,,,,,,,,,,,,,,,,,,,,,,,
,,,,,,00053,2023-10-18_19h26.20.544,vbt_B2_day1,2022.2.4,Linux x86_64,60.00960154,,,,,,,,,,,,,,,,,,,0.012399078,-0.214677517,1,0,0,7.6152,2,21,73,11,1,l,images/br_l.png,images/cb_l.png,,,,,,,,,,,,,,,,,,,,,,,,,
,,,,,,00053,2023-10-18_19h26.20.544,vbt_B2_day1,2022.2.4,Linux x86_64,60.00960154,,,,,,,,,,,,,,,,,,,0.012399078,-0.214677517,1,0,0,1.5323,2,22,74,3,1,d,images/br_d.png,images/cb_d.png,,,,,,,,,,,,,,,,,,,,,,,,,
,,,,,,00053,2023-10-18_19h26.20.544,vbt_B2_day1,2022.2.4,Linux x86_64,60.00960154,,,,,,,,,,,,,,,,,,,0.012399078,-0.214677517,1,0,0,0.5825,2,23,75,18,1,s,images/br_s.png,images/cb_s.png,,,,,,,,,,,,,,,,,,,,,,,,,
,,,,,,00053,2023-10-18_19h26.20.544,vbt_B2_day1,2022.2.4,Linux x86_64,60.00960154,,,,,,,,,,,,,,,,,,,0.012399078,-0.214677517,1,0,0,0.8999,2,24,76,17,1,r,images/br_r.png,images/cb_r.png,,,,,,,,,,,,,,,,,,,,,,,,,
,,,,,,00053,2023-10-18_19h26.20.544,vbt_B2_day1,2022.2.4,Linux x86_64,60.00960154,,,,,,,,,,,,,,,,,,,0.012399078,-0.214677517,1,0,0,4.9489,2,25,77,15,1,p,images/br_p.png,images/cb_p.png,,,,,,,,,,,,,,,,,,,,,,,,,
,,,,,,00053,2023-10-18_19h26.20.544,vbt_B2_day1,2022.2.4,Linux x86_64,60.00960154,,,,,,,,,,,,,,,,,,,0.012399078,-0.214677517,1,0,0,0.6169,3,0,78,24,1,y,images/br_y.png,images/cb_y.png,,,,,,,,,,,,,,,,,,,,,,,,,
,,,,,,00053,2023-10-18_19h26.20.544,vbt_B2_day1,2022.2.4,Linux x86_64,60.00960154,,,,,,,,,,,,,,,,,,,0.012399078,-0.214677517,1,0,0,0.0329,3,1,79,14,1,o,images/br_o.png,images/cb_o.png,,,,,,,,,,,,,,,,,,,,,,,,,
,,,,,,00053,2023-10-18_19h26.20.544,vbt_B2_day1,2022.2.4,Linux x86_64,60.00960154,,,,,,,,,,,,,,,,,,,0.012399078,-0.214677517,1,0,0,0.2822,3,2,80,12,1,m,images/br_m.png,images/cb_m.png,,,,,,,,,,,,,,,,,,,,,,,,,
,,,,,,00053,2023-10-18_19h26.20.544,vbt_B2_day1,2022.2.4,Linux x86_64,60.00960154,,,,,,,,,,,,,,,,,,,0.012399078,-0.214677517,1,0,0,0.8496,3,3,81,22,1,w,images/br_w.png,images/cb_w.png,,,,,,,,,,,,,,,,,,,,,,,,,
,,,,,,00053,2023-10-18_19h26.20.544,vbt_B2_day1,2022.2.4,Linux x86_64,60.00960154,,,,,,,,,,,,,,,,,,,0.012399078,-0.214677517,1,0,0,0.4667,3,4,82,10,1,k,images/br_k.png,images/cb_k.png,,,,,,,,,,,,,,,,,,,,,,,,,
,,,,,,00053,2023-10-18_19h26.20.544,vbt_B2_day1,2022.2.4,Linux x86_64,60.00960154,,,,,,,,,,,,,,,,,,,0.012399078,-0.214677517,1,0,0,1.9828,3,5,83,4,1,e,images/br_e.png,images/cb_e.png,,,,,,,,,,,,,,,,,,,,,,,,,
,,,,,,00053,2023-10-18_19h26.20.544,vbt_B2_day1,2022.2.4,Linux x86_64,60.00960154,,,,,,,,,,,,,,,,,,,0.012399078,-0.214677517,1,0,0,0.0164,3,6,84,21,1,v,images/br_v.png,images/cb_v.png,,,,,,,,,,,,,,,,,,,,,,,,,
,,,,,,00053,2023-10-18_19h26.20.544,vbt_B2_day1,2022.2.4,Linux x86_64,60.00960154,,,,,,,,,,,,,,,,,,,0.012399078,-0.214677517,1,0,0,0.0997,3,7,85,5,1,f,images/br_f.png,images/cb_f.png,,,,,,,,,,,,,,,,,,,,,,,,,
,,,,,,00053,2023-10-18_19h26.20.544,vbt_B2_day1,2022.2.4,Linux x86_64,60.00960154,,,,,,,,,,,,,,,,,,,0.012399078,-0.214677517,1,0,0,1.467,3,8,86,23,1,x,images/br_x.png,images/cb_x.png,,,,,,,,,,,,,,,,,,,,,,,,,
,,,,,,00053,2023-10-18_19h26.20.544,vbt_B2_day1,2022.2.4,Linux x86_64,60.00960154,,,,,,,,,,,,,,,,,,,0.012399078,-0.214677517,1,0,0,0.4161,3,9,87,2,1,c,images/br_c.png,images/cb_c.png,,,,,,,,,,,,,,,,,,,,,,,,,
,,,,,,00053,2023-10-18_19h26.20.544,vbt_B2_day1,2022.2.4,Linux x86_64,60.00960154,,,,,,,,,,,,,,,,,,,0.012399078,-0.214677517,1,0,0,0.233,3,10,88,6,1,g,images/br_g.png,images/cb_g.png,,,,,,,,,,,,,,,,,,,,,,,,,
,,,,,,00053,2023-10-18_19h26.20.544,vbt_B2_day1,2022.2.4,Linux x86_64,60.00960154,,,,,,,,,,,,,,,,,,,0.012399078,-0.214677517,1,0,0,0.5174,3,11,89,0,1,a,images/br_a.png,images/cb_a.png,,,,,,,,,,,,,,,,,,,,,,,,,
,,,,,,00053,2023-10-18_19h26.20.544,vbt_B2_day1,2022.2.4,Linux x86_64,60.00960154,,,,,,,,,,,,,,,,,,,0.012399078,-0.214677517,1,0,0,0.7827,3,12,90,17,1,r,images/br_r.png,images/cb_r.png,,,,,,,,,,,,,,,,,,,,,,,,,
,,,,,,00053,2023-10-18_19h26.20.544,vbt_B2_day1,2022.2.4,Linux x86_64,60.00960154,,,,,,,,,,,,,,,,,,,0.012399078,-0.214677517,1,0,0,1.5822,3,13,91,20,1,u,images/br_u.png,images/cb_u.png,,,,,,,,,,,,,,,,,,,,,,,,,
,,,,,,00053,2023-10-18_19h26.20.544,vbt_B2_day1,2022.2.4,Linux x86_64,60.00960154,,,,,,,,,,,,,,,,,,,0.012399078,-0.214677517,1,0,0,0.5173,3,14,92,25,1,z,images/br_z.png,images/cb_z.png,,,,,,,,,,,,,,,,,,,,,,,,,
,,,,,,00053,2023-10-18_19h26.20.544,vbt_B2_day1,2022.2.4,Linux x86_64,60.00960154,,,,,,,,,,,,,,,,,,,0.012399078,-0.214677517,1,0,0,0.3149,3,15,93,19,1,t,images/br_t.png,images/cb_t.png,,,,,,,,,,,,,,,,,,,,,,,,,
,,,,,,00053,2023-10-18_19h26.20.544,vbt_B2_day1,2022.2.4,Linux x86_64,60.00960154,,,,,,,,,,,,,,,,,,,0.012399078,-0.214677517,1,0,0,0.7493,3,16,94,11,1,l,images/br_l.png,images/cb_l.png,,,,,,,,,,,,,,,,,,,,,,,,,
,,,,,,00053,2023-10-18_19h26.20.544,vbt_B2_day1,2022.2.4,Linux x86_64,60.00960154,,,,,,,,,,,,,,,,,,,0.012399078,-0.214677517,1,0,0,0.7342,3,17,95,16,1,q,images/br_q.png,images/cb_q.png,,,,,,,,,,,,,,,,,,,,,,,,,
,,,,,,00053,2023-10-18_19h26.20.544,vbt_B2_day1,2022.2.4,Linux x86_64,60.00960154,,,,,,,,,,,,,,,,,,,0.012399078,-0.214677517,1,0,0,1.0661,3,18,96,3,1,d,images/br_d.png,images/cb_d.png,,,,,,,,,,,,,,,,,,,,,,,,,
,,,,,,00053,2023-10-18_19h26.20.544,vbt_B2_day1,2022.2.4,Linux x86_64,60.00960154,,,,,,,,,,,,,,,,,,,-0.022972778,-0.239032877,1,0,0,2.499,3,19,97,13,1,n,images/br_n.png,images/cb_n.png,,,,,,,,,,,,,,,,,,,,,,,,,
,,,,,,00053,2023-10-18_19h26.20.544,vbt_B2_day1,2022.2.4,Linux x86_64,60.00960154,,,,,,,,,,,,,,,,,,,-0.022972778,-0.239032877,1,0,0,7.3487,3,20,98,7,1,h,images/br_h.png,images/cb_h.png,,,,,,,,,,,,,,,,,,,,,,,,,
,,,,,,00053,2023-10-18_19h26.20.544,vbt_B2_day1,2022.2.4,Linux x86_64,60.00960154,,,,,,,,,,,,,,,,,,,-0.022972778,-0.239032877,1,0,0,0.4827,3,21,99,15,1,p,images/br_p.png,images/cb_p.png,,,,,,,,,,,,,,,,,,,,,,,,,
,,,,,,00053,2023-10-18_19h26.20.544,vbt_B2_day1,2022.2.4,Linux x86_64,60.00960154,,,,,,,,,,,,,,,,,,,-0.022972778,-0.239032877,1,0,0,1.816,3,22,100,18,1,s,images/br_s.png,images/cb_s.png,,,,,,,,,,,,,,,,,,,,,,,,,
,,,,,,00053,2023-10-18_19h26.20.544,vbt_B2_day1,2022.2.4,Linux x86_64,60.00960154,,,,,,,,,,,,,,,,,,,-0.022972778,-0.239032877,1,0,0,0.1658,3,23,101,9,1,j,images/br_j.png,images/cb_j.png,,,,,,,,,,,,,,,,,,,,,,,,,
,,,,,,00053,2023-10-18_19h26.20.544,vbt_B2_day1,2022.2.4,Linux x86_64,60.00960154,,,,,,,,,,,,,,,,,,,-0.022972778,-0.239032877,1,0,0,0.1332,3,24,102,1,1,b,images/br_b.png,images/cb_b.png,,,,,,,,,,,,,,,,,,,,,,,,,
,,,,,,00053,2023-10-18_19h26.20.544,vbt_B2_day1,2022.2.4,Linux x86_64,60.00960154,,,,,,,,,,,,,,,,,,,-0.022972778,-0.239032877,1,0,0,3.4151,3,25,103,8,1,i,images/br_i.png,images/cb_i.png,,,,,,,,,,,,,,,,,,,,,,,,,
,,,,,,00053,2023-10-18_19h26.20.544,vbt_B2_day1,2022.2.4,Linux x86_64,60.00960154,,,,,,,,,,,,,,,,,,,-0.022972778,-0.239032877,1,0,0,0.849,4,0,104,21,1,v,images/br_v.png,images/cb_v.png,,,,,,,,,,,,,,,,,,,,,,,,,
,,,,,,00053,2023-10-18_19h26.20.544,vbt_B2_day1,2022.2.4,Linux x86_64,60.00960154,,,,,,,,,,,,,,,,,,,-0.022972778,-0.239032877,1,0,0,0.1994,4,1,105,11,1,l,images/br_l.png,images/cb_l.png,,,,,,,,,,,,,,,,,,,,,,,,,
,,,,,,00053,2023-10-18_19h26.20.544,vbt_B2_day1,2022.2.4,Linux x86_64,60.00960154,,,,,,,,,,,,,,,,,,,-0.022972778,-0.239032877,1,0,0,0.6499,4,2,106,23,1,x,images/br_x.png,images/cb_x.png,,,,,,,,,,,,,,,,,,,,,,,,,
,,,,,,00053,2023-10-18_19h26.20.544,vbt_B2_day1,2022.2.4,Linux x86_64,60.00960154,,,,,,,,,,,,,,,,,,,-0.022972778,-0.239032877,1,0,0,0.583,4,3,107,20,1,u,images/br_u.png,images/cb_u.png,,,,,,,,,,,,,,,,,,,,,,,,,
,,,,,,00053,2023-10-18_19h26.20.544,vbt_B2_day1,2022.2.4,Linux x86_64,60.00960154,,,,,,,,,,,,,,,,,,,-0.022972778,-0.239032877,1,0,0,0.7329,4,4,108,18,1,s,images/br_s.png,images/cb_s.png,,,,,,,,,,,,,,,,,,,,,,,,,
,,,,,,00053,2023-10-18_19h26.20.544,vbt_B2_day1,2022.2.4,Linux x86_64,60.00960154,,,,,,,,,,,,,,,,,,,-0.006675613,-0.222587595,1,0,0,1.8822,4,5,109,2,1,c,images/br_c.png,images/cb_c.png,,,,,,,,,,,,,,,,,,,,,,,,,
,,,,,,00053,2023-10-18_19h26.20.544,vbt_B2_day1,2022.2.4,Linux x86_64,60.00960154,,,,,,,,,,,,,,,,,,,0.014057524,-0.155392475,1,0,0,2.366,4,6,110,12,1,m,images/br_m.png,images/cb_m.png,,,,,,,,,,,,,,,,,,,,,,,,,
,,,,,,00053,2023-10-18_19h26.20.544,vbt_B2_day1,2022.2.4,Linux x86_64,60.00960154,,,,,,,,,,,,,,,,,,,0.014057524,-0.155392475,1,0,0,2.0662,4,7,111,15,1,p,images/br_p.png,images/cb_p.png,,,,,,,,,,,,,,,,,,,,,,,,,
,,,,,,00053,2023-10-18_19h26.20.544,vbt_B2_day1,2022.2.4,Linux x86_64,60.00960154,,,,,,,,,,,,,,,,,,,0.014057524,-0.155392475,1,0,0,0.2495,4,8,112,24,1,y,images/br_y.png,images/cb_y.png,,,,,,,,,,,,,,,,,,,,,,,,,
,,,,,,00053,2023-10-18_19h26.20.544,vbt_B2_day1,2022.2.4,Linux x86_64,60.00960154,,,,,,,,,,,,,,,,,,,0.029609593,-0.251062089,1,0,0,2.1654,4,9,113,17,1,r,images/br_r.png,images/cb_r.png,,,,,,,,,,,,,,,,,,,,,,,,,
,,,,,,00053,2023-10-18_19h26.20.544,vbt_B2_day1,2022.2.4,Linux x86_64,60.00960154,,,,,,,,,,,,,,,,,,,0.029609593,-0.251062089,1,0,0,3.1322,4,10,114,4,1,e,images/br_e.png,images/cb_e.png,,,,,,,,,,,,,,,,,,,,,,,,,
,,,,,,00053,2023-10-18_19h26.20.544,vbt_B2_day1,2022.2.4,Linux x86_64,60.00960154,,,,,,,,,,,,,,,,,,,0.029609593,-0.251062089,1,0,0,2.8997,4,11,115,7,1,h,images/br_h.png,images/cb_h.png,,,,,,,,,,,,,,,,,,,,,,,,,
,,,,,,00053,2023-10-18_19h26.20.544,vbt_B2_day1,2022.2.4,Linux x86_64,60.00960154,,,,,,,,,,,,,,,,,,,0.029609593,-0.251062089,1,0,0,0.4155,4,12,116,22,1,w,images/br_w.png,images/cb_w.png,,,,,,,,,,,,,,,,,,,,,,,,,
,,,,,,00053,2023-10-18_19h26.20.544,vbt_B2_day1,2022.2.4,Linux x86_64,60.00960154,,,,,,,,,,,,,,,,,,,0.029609593,-0.251062089,1,0,0,2.4329,4,13,117,0,1,a,images/br_a.png,images/cb_a.png,,,,,,,,,,,,,,,,,,,,,,,,,
,,,,,,00053,2023-10-18_19h26.20.544,vbt_B2_day1,2022.2.4,Linux x86_64,60.00960154,,,,,,,,,,,,,,,,,,,0.029609593,-0.251062089,1,0,0,1.599,4,14,118,14,1,o,images/br_o.png,images/cb_o.png,,,,,,,,,,,,,,,,,,,,,,,,,
,,,,,,00053,2023-10-18_19h26.20.544,vbt_B2_day1,2022.2.4,Linux x86_64,60.00960154,,,,,,,,,,,,,,,,,,,0.029609593,-0.251062089,1,0,0,2.8329,4,15,119,5,1,f,images/br_f.png,images/cb_f.png,,,,,,,,,,,,,,,,,,,,,,,,,
,,,,,,00053,2023-10-18_19h26.20.544,vbt_B2_day1,2022.2.4,Linux x86_64,60.00960154,,,,,,,,,,,,,,,,,,,0.029609593,-0.251062089,1,0,0,0.0998,4,16,120,10,1,k,images/br_k.png,images/cb_k.png,,,,,,,,,,,,,,,,,,,,,,,,,
,,,,,,00053,2023-10-18_19h26.20.544,vbt_B2_day1,2022.2.4,Linux x86_64,60.00960154,,,,,,,,,,,,,,,,,,,0.029609593,-0.251062089,1,0,0,0.2168,4,17,121,1,1,b,images/br_b.png,images/cb_b.png,,,,,,,,,,,,,,,,,,,,,,,,,
,,,,,,00053,2023-10-18_19h26.20.544,vbt_B2_day1,2022.2.4,Linux x86_64,60.00960154,,,,,,,,,,,,,,,,,,,0.029609593,-0.251062089,1,0,0,1.5653,4,18,122,16,1,q,images/br_q.png,images/cb_q.png,,,,,,,,,,,,,,,,,,,,,,,,,
,,,,,,00053,2023-10-18_19h26.20.544,vbt_B2_day1,2022.2.4,Linux x86_64,60.00960154,,,,,,,,,,,,,,,,,,,0.029609593,-0.251062089,1,0,0,2.6493,4,19,123,3,1,d,images/br_d.png,images/cb_d.png,,,,,,,,,,,,,,,,,,,,,,,,,
,,,,,,00053,2023-10-18_19h26.20.544,vbt_B2_day1,2022.2.4,Linux x86_64,60.00960154,,,,,,,,,,,,,,,,,,,0.029609593,-0.251062089,1,0,0,1.5504,4,20,124,9,1,j,images/br_j.png,images/cb_j.png,,,,,,,,,,,,,,,,,,,,,,,,,
,,,,,,00053,2023-10-18_19h26.20.544,vbt_B2_day1,2022.2.4,Linux x86_64,60.00960154,,,,,,,,,,,,,,,,,,,0.029609593,-0.251062089,1,0,0,1.0488,4,21,125,13,1,n,images/br_n.png,images/cb_n.png,,,,,,,,,,,,,,,,,,,,,,,,,
,,,,,,00053,2023-10-18_19h26.20.544,vbt_B2_day1,2022.2.4,Linux x86_64,60.00960154,,,,,,,,,,,,,,,,,,,0.029609593,-0.251062089,1,0,0,1.4987,4,22,126,19,1,t,images/br_t.png,images/cb_t.png,,,,,,,,,,,,,,,,,,,,,,,,,
,,,,,,00053,2023-10-18_19h26.20.544,vbt_B2_day1,2022.2.4,Linux x86_64,60.00960154,,,,,,,,,,,,,,,,,,,0.029609593,-0.251062089,1,0,0,0.2494,4,23,127,6,1,g,images/br_g.png,images/cb_g.png,,,,,,,,,,,,,,,,,,,,,,,,,
,,,,,,00053,2023-10-18_19h26.20.544,vbt_B2_day1,2022.2.4,Linux x86_64,60.00960154,,,,,,,,,,,,,,,,,,,0.029609593,-0.251062089,1,0,0,1.0181,4,24,128,8,1,i,images/br_i.png,images/cb_i.png,,,,,,,,,,,,,,,,,,,,,,,,,
,,,,,,00053,2023-10-18_19h26.20.544,vbt_B2_day1,2022.2.4,Linux x86_64,60.00960154,,,,,,,,,,,,,,,,,,,0.029609593,-0.251062089,1,0,0,3.6819,4,25,129,25,1,z,images/br_z.png,images/cb_z.png,,,,,,,,,,,,,,,,,,,,,,,,,
,,,,,,00053,2023-10-18_19h26.20.544,vbt_B2_day1,2022.2.4,Linux x86_64,60.00960154,,,,,,,,,,,,,,,,,,,0.029609593,-0.251062089,1,0,0,0.6171,5,0,130,22,1,w,images/br_w.png,images/cb_w.png,,,,,,,,,,,,,,,,,,,,,,,,,
,,,,,,00053,2023-10-18_19h26.20.544,vbt_B2_day1,2022.2.4,Linux x86_64,60.00960154,,,,,,,,,,,,,,,,,,,0.029609593,-0.251062089,1,0,0,0.3997,5,1,131,4,1,e,images/br_e.png,images/cb_e.png,,,,,,,,,,,,,,,,,,,,,,,,,
,,,,,,00053,2023-10-18_19h26.20.544,vbt_B2_day1,2022.2.4,Linux x86_64,60.00960154,,,,,,,,,,,,,,,,,,,0.029609593,-0.251062089,1,0,0,1.1827,5,2,132,2,1,c,images/br_c.png,images/cb_c.png,,,,,,,,,,,,,,,,,,,,,,,,,
,,,,,,00053,2023-10-18_19h26.20.544,vbt_B2_day1,2022.2.4,Linux x86_64,60.00960154,,,,,,,,,,,,,,,,,,,-0.014840018,-0.127834169,1,0,0,0.2494,5,3,133,17,1,r,images/br_r.png,images/cb_r.png,,,,,,,,,,,,,,,,,,,,,,,,,
,,,,,,00053,2023-10-18_19h26.20.544,vbt_B2_day1,2022.2.4,Linux x86_64,60.00960154,,,,,,,,,,,,,,,,,,,-0.012745851,-0.177555157,1,0,0,1.3678,5,4,134,0,1,a,images/br_a.png,images/cb_a.png,,,,,,,,,,,,,,,,,,,,,,,,,
,,,,,,00053,2023-10-18_19h26.20.544,vbt_B2_day1,2022.2.4,Linux x86_64,60.00960154,,,,,,,,,,,,,,,,,,,-0.012745851,-0.177555157,1,0,0,1.5497,5,5,135,21,1,v,images/br_v.png,images/cb_v.png,,,,,,,,,,,,,,,,,,,,,,,,,
,,,,,,00053,2023-10-18_19h26.20.544,vbt_B2_day1,2022.2.4,Linux x86_64,60.00960154,,,,,,,,,,,,,,,,,,,-0.012745851,-0.177555157,1,0,0,0.0999,5,6,136,23,1,x,images/br_x.png,images/cb_x.png,,,,,,,,,,,,,,,,,,,,,,,,,
,,,,,,00053,2023-10-18_19h26.20.544,vbt_B2_day1,2022.2.4,Linux x86_64,60.00960154,,,,,,,,,,,,,,,,,,,-0.006970604,-0.192847846,1,0,0,1.7831,5,7,137,6,1,g,images/br_g.png,images/cb_g.png,,,,,,,,,,,,,,,,,,,,,,,,,
,,,,,,00053,2023-10-18_19h26.20.544,vbt_B2_day1,2022.2.4,Linux x86_64,60.00960154,,,,,,,,,,,,,,,,,,,-0.006970604,-0.192847846,1,0,0,0.1158,5,8,138,13,1,n,images/br_n.png,images/cb_n.png,,,,,,,,,,,,,,,,,,,,,,,,,
,,,,,,00053,2023-10-18_19h26.20.544,vbt_B2_day1,2022.2.4,Linux x86_64,60.00960154,,,,,,,,,,,,,,,,,,,-0.006970604,-0.192847846,1,0,0,2.2497,5,9,139,1,1,b,images/br_b.png,images/cb_b.png,,,,,,,,,,,,,,,,,,,,,,,,,
,,,,,,00053,2023-10-18_19h26.20.544,vbt_B2_day1,2022.2.4,Linux x86_64,60.00960154,,,,,,,,,,,,,,,,,,,-0.006970604,-0.192847846,1,0,0,0.6,5,10,140,10,1,k,images/br_k.png,images/cb_k.png,,,,,,,,,,,,,,,,,,,,,,,,,
,,,,,,00053,2023-10-18_19h26.20.544,vbt_B2_day1,2022.2.4,Linux x86_64,60.00960154,,,,,,,,,,,,,,,,,,,-0.006970604,-0.192847846,1,0,0,0.3484,5,11,141,18,1,s,images/br_s.png,images/cb_s.png,,,,,,,,,,,,,,,,,,,,,,,,,
,,,,,,00053,2023-10-18_19h26.20.544,vbt_B2_day1,2022.2.4,Linux x86_64,60.00960154,,,,,,,,,,,,,,,,,,,-0.006970604,-0.192847846,1,0,0,1.4005,5,12,142,8,1,i,images/br_i.png,images/cb_i.png,,,,,,,,,,,,,,,,,,,,,,,,,
,,,,,,00053,2023-10-18_19h26.20.544,vbt_B2_day1,2022.2.4,Linux x86_64,60.00960154,,,,,,,,,,,,,,,,,,,0.006012546,-0.217594686,1,0,0,1.5166,5,13,143,3,1,d,images/br_d.png,images/cb_d.png,,,,,,,,,,,,,,,,,,,,,,,,,
,,,,,,00053,2023-10-18_19h26.20.544,vbt_B2_day1,2022.2.4,Linux x86_64,60.00960154,,,,,,,,,,,,,,,,,,,0.006012546,-0.217594686,1,0,0,1.3333,5,14,144,16,1,q,images/br_q.png,images/cb_q.png,,,,,,,,,,,,,,,,,,,,,,,,,
,,,,,,00053,2023-10-18_19h26.20.544,vbt_B2_day1,2022.2.4,Linux x86_64,60.00960154,,,,,,,,,,,,,,,,,,,0.006012546,-0.217594686,1,0,0,1.7826,5,15,145,9,1,j,images/br_j.png,images/cb_j.png,,,,,,,,,,,,,,,,,,,,,,,,,
,,,,,,00053,2023-10-18_19h26.20.544,vbt_B2_day1,2022.2.4,Linux x86_64,60.00960154,,,,,,,,,,,,,,,,,,,0.006012546,-0.217594686,1,0,0,0.382,5,16,146,12,1,m,images/br_m.png,images/cb_m.png,,,,,,,,,,,,,,,,,,,,,,,,,
,,,,,,00053,2023-10-18_19h26.20.544,vbt_B2_day1,2022.2.4,Linux x86_64,60.00960154,,,,,,,,,,,,,,,,,,,0.006012546,-0.217594686,1,0,0,3.3325,5,17,147,14,1,o,images/br_o.png,images/cb_o.png,,,,,,,,,,,,,,,,,,,,,,,,,
,,,,,,00053,2023-10-18_19h26.20.544,vbt_B2_day1,2022.2.4,Linux x86_64,60.00960154,,,,,,,,,,,,,,,,,,,0.006012546,-0.217594686,1,0,0,2.466,5,18,148,15,1,p,images/br_p.png,images/cb_p.png,,,,,,,,,,,,,,,,,,,,,,,,,
,,,,,,00053,2023-10-18_19h26.20.544,vbt_B2_day1,2022.2.4,Linux x86_64,60.00960154,,,,,,,,,,,,,,,,,,,0.006012546,-0.217594686,1,0,0,2.234,5,19,149,20,1,u,images/br_u.png,images/cb_u.png,,,,,,,,,,,,,,,,,,,,,,,,,
,,,,,,00053,2023-10-18_19h26.20.544,vbt_B2_day1,2022.2.4,Linux x86_64,60.00960154,,,,,,,,,,,,,,,,,,,0.006012546,-0.217594686,1,0,0,0.5998,5,20,150,19,1,t,images/br_t.png,images/cb_t.png,,,,,,,,,,,,,,,,,,,,,,,,,
,,,,,,00053,2023-10-18_19h26.20.544,vbt_B2_day1,2022.2.4,Linux x86_64,60.00960154,,,,,,,,,,,,,,,,,,,0.018331773,-0.229396708,1,0,0,2.4676,5,21,151,5,1,f,images/br_f.png,images/cb_f.png,,,,,,,,,,,,,,,,,,,,,,,,,
,,,,,,00053,2023-10-18_19h26.20.544,vbt_B2_day1,2022.2.4,Linux x86_64,60.00960154,,,,,,,,,,,,,,,,,,,0.018331773,-0.229396708,1,0,0,2.1174,5,22,152,7,1,h,images/br_h.png,images/cb_h.png,,,,,,,,,,,,,,,,,,,,,,,,,
,,,,,,00053,2023-10-18_19h26.20.544,vbt_B2_day1,2022.2.4,Linux x86_64,60.00960154,,,,,,,,,,,,,,,,,,,0.007796483,-0.219160296,1,0,0,2.7999,5,23,153,24,1,y,images/br_y.png,images/cb_y.png,,,,,,,,,,,,,,,,,,,,,,,,,
,,,,,,00053,2023-10-18_19h26.20.544,vbt_B2_day1,2022.2.4,Linux x86_64,60.00960154,,,,,,,,,,,,,,,,,,,0.007796483,-0.219160296,1,0,0,1.1341,5,24,154,25,1,z,images/br_z.png,images/cb_z.png,,,,,,,,,,,,,,,,,,,,,,,,,
,,,,,,00053,2023-10-18_19h26.20.544,vbt_B2_day1,2022.2.4,Linux x86_64,60.00960154,,,,,,,,,,,,,,,,,,,0.000635621,-0.216773316,1,0,0,1.0329,5,25,155,11,1,l,images/br_l.png,images/cb_l.png,,,,,,,,,,,,,,,,,,,,,,,,,
,,,,,,00053,2023-10-18_19h26.20.544,vbt_B2_day1,2022.2.4,Linux x86_64,60.00960154,,,,,,,,,,,,,,,,,,,0.0108033,-0.135798441,1,0,0,0.3675,6,0,156,5,1,f,images/br_f.png,images/cb_f.png,,,,,,,,,,,,,,,,,,,,,,,,,
,,,,,,00053,2023-10-18_19h26.20.544,vbt_B2_day1,2022.2.4,Linux x86_64,60.00960154,,,,,,,,,,,,,,,,,,,0.013467077,-0.206977757,1,0,0,2.4665,6,1,157,18,1,s,images/br_s.png,images/cb_s.png,,,,,,,,,,,,,,,,,,,,,,,,,
,,,,,,00053,2023-10-18_19h26.20.544,vbt_B2_day1,2022.2.4,Linux x86_64,60.00960154,,,,,,,,,,,,,,,,,,,0.050363334,-0.154458987,1,0,0,4.0001,6,2,158,15,1,p,images/br_p.png,images/cb_p.png,,,,,,,,,,,,,,,,,,,,,,,,,
,,,,,,00053,2023-10-18_19h26.20.544,vbt_B2_day1,2022.2.4,Linux x86_64,60.00960154,,,,,,,,,,,,,,,,,,,0.037401566,-0.17449267,1,0,0,0.1999,6,3,159,25,1,z,images/br_z.png,images/cb_z.png,,,,,,,,,,,,,,,,,,,,,,,,,
,,,,,,00053,2023-10-18_19h26.20.544,vbt_B2_day1,2022.2.4,Linux x86_64,60.00960154,,,,,,,,,,,,,,,,,,,-0.02034189,-0.19685494,1,0,0,3.3326,6,4,160,1,1,b,images/br_b.png,images/cb_b.png,,,,,,,,,,,,,,,,,,,,,,,,,
,,,,,,00053,2023-10-18_19h26.20.544,vbt_B2_day1,2022.2.4,Linux x86_64,60.00960154,,,,,,,,,,,,,,,,,,,-0.02034189,-0.19685494,1,0,0,0.1996,6,5,161,22,1,w,images/br_w.png,images/cb_w.png,,,,,,,,,,,,,,,,,,,,,,,,,
,,,,,,00053,2023-10-18_19h26.20.544,vbt_B2_day1,2022.2.4,Linux x86_64,60.00960154,,,,,,,,,,,,,,,,,,,0.018122232,-0.191371495,1,0,0,3.2999,6,6,162,4,1,e,images/br_e.png,images/cb_e.png,,,,,,,,,,,,,,,,,,,,,,,,,
,,,,,,00053,2023-10-18_19h26.20.544,vbt_B2_day1,2022.2.4,Linux x86_64,60.00960154,,,,,,,,,,,,,,,,,,,0.001251104,-0.232611667,1,0,0,4.1653,6,7,163,6,1,g,images/br_g.png,images/cb_g.png,,,,,,,,,,,,,,,,,,,,,,,,,
,,,,,,00053,2023-10-18_19h26.20.544,vbt_B2_day1,2022.2.4,Linux x86_64,60.00960154,,,,,,,,,,,,,,,,,,,0.001251104,-0.232611667,1,0,0,2.3502,6,8,164,17,1,r,images/br_r.png,images/cb_r.png,,,,,,,,,,,,,,,,,,,,,,,,,
,,,,,,00053,2023-10-18_19h26.20.544,vbt_B2_day1,2022.2.4,Linux x86_64,60.00960154,,,,,,,,,,,,,,,,,,,0.001251104,-0.232611667,1,0,0,0.0519,6,9,165,19,1,t,images/br_t.png,images/cb_t.png,,,,,,,,,,,,,,,,,,,,,,,,,
,,,,,,00053,2023-10-18_19h26.20.544,vbt_B2_day1,2022.2.4,Linux x86_64,60.00960154,,,,,,,,,,,,,,,,,,,0.001251104,-0.232611667,1,0,0,0.5989,6,10,166,12,1,m,images/br_m.png,images/cb_m.png,,,,,,,,,,,,,,,,,,,,,,,,,
,,,,,,00053,2023-10-18_19h26.20.544,vbt_B2_day1,2022.2.4,Linux x86_64,60.00960154,,,,,,,,,,,,,,,,,,,0.001251104,-0.232611667,1,0,0,3.3494,6,11,167,13,1,n,images/br_n.png,images/cb_n.png,,,,,,,,,,,,,,,,,,,,,,,,,
,,,,,,00053,2023-10-18_19h26.20.544,vbt_B2_day1,2022.2.4,Linux x86_64,60.00960154,,,,,,,,,,,,,,,,,,,0.001251104,-0.232611667,1,0,0,0.6174,6,12,168,9,1,j,images/br_j.png,images/cb_j.png,,,,,,,,,,,,,,,,,,,,,,,,,
,,,,,,00053,2023-10-18_19h26.20.544,vbt_B2_day1,2022.2.4,Linux x86_64,60.00960154,,,,,,,,,,,,,,,,,,,-0.000864678,-0.224939043,1,0,0,2.267,6,13,169,2,1,c,images/br_c.png,images/cb_c.png,,,,,,,,,,,,,,,,,,,,,,,,,
,,,,,,00053,2023-10-18_19h26.20.544,vbt_B2_day1,2022.2.4,Linux x86_64,60.00960154,,,,,,,,,,,,,,,,,,,0.017782223,-0.215301164,1,0,0,1.2493,6,14,170,14,1,o,images/br_o.png,images/cb_o.png,,,,,,,,,,,,,,,,,,,,,,,,,
,,,,,,00053,2023-10-18_19h26.20.544,vbt_B2_day1,2022.2.4,Linux x86_64,60.00960154,,,,,,,,,,,,,,,,,,,0.017782223,-0.215301164,1,0,0,1.368,6,15,171,23,1,x,images/br_x.png,images/cb_x.png,,,,,,,,,,,,,,,,,,,,,,,,,
,,,,,,00053,2023-10-18_19h26.20.544,vbt_B2_day1,2022.2.4,Linux x86_64,60.00960154,,,,,,,,,,,,,,,,,,,0.006398039,-0.216953778,1,0,0,2.3334,6,16,172,11,1,l,images/br_l.png,images/cb_l.png,,,,,,,,,,,,,,,,,,,,,,,,,
,,,,,,00053,2023-10-18_19h26.20.544,vbt_B2_day1,2022.2.4,Linux x86_64,60.00960154,,,,,,,,,,,,,,,,,,,0.006398039,-0.216953778,1,0,0,1.7332,6,17,173,3,1,d,images/br_d.png,images/cb_d.png,,,,,,,,,,,,,,,,,,,,,,,,,
,,,,,,00053,2023-10-18_19h26.20.544,vbt_B2_day1,2022.2.4,Linux x86_64,60.00960154,,,,,,,,,,,,,,,,,,,0.006398039,-0.216953778,1,0,0,2.117,6,18,174,24,1,y,images/br_y.png,images/cb_y.png,,,,,,,,,,,,,,,,,,,,,,,,,
,,,,,,00053,2023-10-18_19h26.20.544,vbt_B2_day1,2022.2.4,Linux x86_64,60.00960154,,,,,,,,,,,,,,,,,,,0.006398039,-0.216953778,1,0,0,0.3346,6,19,175,10,1,k,images/br_k.png,images/cb_k.png,,,,,,,,,,,,,,,,,,,,,,,,,
,,,,,,00053,2023-10-18_19h26.20.544,vbt_B2_day1,2022.2.4,Linux x86_64,60.00960154,,,,,,,,,,,,,,,,,,,0.006398039,-0.216953778,1,0,0,0.7671,6,20,176,20,1,u,images/br_u.png,images/cb_u.png,,,,,,,,,,,,,,,,,,,,,,,,,
,,,,,,00053,2023-10-18_19h26.20.544,vbt_B2_day1,2022.2.4,Linux x86_64,60.00960154,,,,,,,,,,,,,,,,,,,0.006398039,-0.216953778,1,0,0,1.4823,6,21,177,0,1,a,images/br_a.png,images/cb_a.png,,,,,,,,,,,,,,,,,,,,,,,,,
,,,,,,00053,2023-10-18_19h26.20.544,vbt_B2_day1,2022.2.4,Linux x86_64,60.00960154,,,,,,,,,,,,,,,,,,,0.006398039,-0.216953778,1,0,0,1.4331,6,22,178,7,1,h,images/br_h.png,images/cb_h.png,,,,,,,,,,,,,,,,,,,,,,,,,
,,,,,,00053,2023-10-18_19h26.20.544,vbt_B2_day1,2022.2.4,Linux x86_64,60.00960154,,,,,,,,,,,,,,,,,,,0.006398039,-0.216953778,1,0,0,0.3661,6,23,179,8,1,i,images/br_i.png,images/cb_i.png,,,,,,,,,,,,,,,,,,,,,,,,,
,,,,,,00053,2023-10-18_19h26.20.544,vbt_B2_day1,2022.2.4,Linux x86_64,60.00960154,,,,,,,,,,,,,,,,,,,0.006398039,-0.216953778,1,0,0,0.4337,6,24,180,16,1,q,images/br_q.png,images/cb_q.png,,,,,,,,,,,,,,,,,,,,,,,,,
,,,,,,00053,2023-10-18_19h26.20.544,vbt_B2_day1,2022.2.4,Linux x86_64,60.00960154,,,,,,,,,,,,,,,,,,,0.006398039,-0.216953778,1,0,0,1.5157,6,25,181,21,1,v,images/br_v.png,images/cb_v.png,,,,,,,,,,,,,,,,,,,,,,,,,
,,,,,,00053,2023-10-18_19h26.20.544,vbt_B2_day1,2022.2.4,Linux x86_64,60.00960154,,,,,,,,,,,,,,,,,,,,,,,,,,,,,,,,,0.027635164,-0.130474892,1,0,0,,,,,,,,,,,,,,,,,,,,
,,,,,,00053,2023-10-18_19h26.20.544,vbt_B2_day1,2022.2.4,Linux x86_64,60.00960154,,,,,,,,,,,,,,,,,,,,,,,,,,,,,,,,,,,,,,0.027635164,-0.130474892,1,0,0,,,,,,,,,,,,,,,
,,,,,,00053,2023-10-18_19h26.20.544,vbt_B2_day1,2022.2.4,Linux x86_64,60.00960154,,,,,,,,,,,,,,,,,,,,,,,,,,,,,,,,,,,,,,,,,,,0.178378471,-0.286882262,1,0,0,hand,hand,0,0,0,9,1,dubbel,images/br_dubbel.png,images/cb_dubbel.png
,,,,,,00053,2023-10-18_19h26.20.544,vbt_B2_day1,2022.2.4,Linux x86_64,60.00960154,,,,,,,,,,,,,,,,,,,,,,,,,,,,,,,,,,,,,,,,,,,0.09916549,-0.359682742,1,0,0,start,start,0,1,1,31,1,stamen,images/br_stamen.png,images/cb_stamen.png
,,,,,,00053,2023-10-18_19h26.20.544,vbt_B2_day1,2022.2.4,Linux x86_64,60.00960154,,,,,,,,,,,,,,,,,,,,,,,,,,,,,,,,,,,,,,,,,,,0.072634791,-0.499392214,1,0,0,siert,siert,0,2,2,15,1,hiervan,images/br_hiervan.png,images/cb_hiervan.png
,,,,,,00053,2023-10-18_19h26.20.544,vbt_B2_day1,2022.2.4,Linux x86_64,60.00960154,,,,,,,,,,,,,,,,,,,,,,,,,,,,,,,,,,,,,,,,,,,0.020851631,-0.221484375,1,0,0,klein,klein,0,3,3,33,1,flullen,images/br_flullen.png,images/cb_flullen.png
,,,,,,00053,2023-10-18_19h26.20.544,vbt_B2_day1,2022.2.4,Linux x86_64,60.00960154,,,,,,,,,,,,,,,,,,,,,,,,,,,,,,,,,,,,,,,,,,,-0.007728139,-0.392631463,1,0,0,lockdown,lockdown,0,4,4,34,1,lochten,images/br_lochten.png,images/cb_lochten.png
,,,,,,00053,2023-10-18_19h26.20.544,vbt_B2_day1,2022.2.4,Linux x86_64,60.00960154,,,,,,,,,,,,,,,,,,,,,,,,,,,,,,,,,,,,,,,,,,,-0.031922242,-0.376563822,1,0,0,schie,schie,0,5,5,38,1,schielen,images/br_schielen.png,images/cb_schielen.png
,,,,,,00053,2023-10-18_19h26.20.544,vbt_B2_day1,2022.2.4,Linux x86_64,60.00960154,,,,,,,,,,,,,,,,,,,,,,,,,,,,,,,,,,,,,,,,,,,-0.126209896,-0.395581366,1,0,0,te,te,0,6,6,55,1,tekenen,images/br_tekenen.png,images/cb_tekenen.png
,,,,,,00053,2023-10-18_19h26.20.544,vbt_B2_day1,2022.2.4,Linux x86_64,60.00960154,,,,,,,,,,,,,,,,,,,,,,,,,,,,,,,,,,,,,,,,,,,0.075161413,-0.311571877,1,0,0,va,va,0,7,7,26,1,valop,images/br_valop.png,images/cb_valop.png
,,,,,,00053,2023-10-18_19h26.20.544,vbt_B2_day1,2022.2.4,Linux x86_64,60.00960154,,,,,,,,,,,,,,,,,,,,,,,,,,,,,,,,,,,,,,,,,,,0.056878545,-0.29655373,1,0,0,eme,eme,0,8,8,45,1,hemel,images/br_hemel.png,images/cb_hemel.png
,,,,,,00053,2023-10-18_19h26.20.544,vbt_B2_day1,2022.2.4,Linux x86_64,60.00960154,,,,,,,,,,,,,,,,,,,,,,,,,,,,,,,,,,,,,,,,,,,0.003076716,-0.308572524,1,0,0,loods,loods,0,9,9,47,1,loods,images/br_loods.png,images/cb_loods.png
,,,,,,00053,2023-10-18_19h26.20.544,vbt_B2_day1,2022.2.4,Linux x86_64,60.00960154,,,,,,,,,,,,,,,,,,,,,,,,,,,,,,,,,,,,,,,,,,,-0.031929162,-0.371866525,1,0,0,kli,kli,0,10,10,12,1,klimmen,images/br_klimmen.png,images/cb_klimmen.png
,,,,,,00053,2023-10-18_19h26.20.544,vbt_B2_day1,2022.2.4,Linux x86_64,60.00960154,,,,,,,,,,,,,,,,,,,,,,,,,,,,,,,,,,,,,,,,,,,-0.022524538,-0.012519205,1,0,0,li,li,0,11,11,46,1,lezen,images/br_lezen.png,images/cb_lezen.png
,,,,,,00053,2023-10-18_19h26.20.544,vbt_B2_day1,2022.2.4,Linux x86_64,60.00960154,,,,,,,,,,,,,,,,,,,,,,,,,,,,,,,,,,,,,,,,,,,-0.068249512,-0.055558514,1,0,0,lui,lui,0,12,12,52,1,zuiplap,images/br_zuiplap.png,images/cb_zuiplap.png
,,,,,,00053,2023-10-18_19h26.20.544,vbt_B2_day1,2022.2.4,Linux x86_64,60.00960154,,,,,,,,,,,,,,,,,,,,,,,,,,,,,,,,,,,,,,,,,,,0.066150213,-0.028621173,1,0,0,haar,haar,0,13,13,2,1,jaar,images/br_jaar.png,images/cb_jaar.png
,,,,,,00053,2023-10-18_19h26.20.544,vbt_B2_day1,2022.2.4,Linux x86_64,60.00960154,,,,,,,,,,,,,,,,,,,,,,,,,,,,,,,,,,,,,,,,,,,0.066150213,-0.028621173,1,0,0,,,0,14,14,44,1,wijze,images/br_wijze.png,images/cb_wijze.png
,,,,,,00053,2023-10-18_19h26.20.544,vbt_B2_day1,2022.2.4,Linux x86_64,60.00960154,,,,,,,,,,,,,,,,,,,,,,,,,,,,,,,,,,,,,,,,,,,-0.073475676,-0.099919099,1,0,0,uit,uit,0,15,15,18,1,uitdelen,images/br_uitdelen.png,images/cb_uitdelen.png
,,,,,,00053,2023-10-18_19h26.20.544,vbt_B2_day1,2022.2.4,Linux x86_64,60.00960154,,,,,,,,,,,,,,,,,,,,,,,,,,,,,,,,,,,,,,,,,,,-0.073659404,-0.099919099,1,0,0,olatt,olatt,0,16,16,59,1,opvatten,images/br_opvatten.png,images/cb_opvatten.png
,,,,,,00053,2023-10-18_19h26.20.544,vbt_B2_day1,2022.2.4,Linux x86_64,60.00960154,,,,,,,,,,,,,,,,,,,,,,,,,,,,,,,,,,,,,,,,,,,-0.152617281,-0.147353135,1,0,0,v,v,0,17,17,54,1,vijftig,images/br_vijftig.png,images/cb_vijftig.png
,,,,,,00053,2023-10-18_19h26.20.544,vbt_B2_day1,2022.2.4,Linux x86_64,60.00960154,,,,,,,,,,,,,,,,,,,,,,,,,,,,,,,,,,,,,,,,,,,-0.152617281,-0.147353135,1,0,0,,,0,18,18,29,1,genond,images/br_genond.png,images/cb_genond.png
,,,,,,00053,2023-10-18_19h26.20.544,vbt_B2_day1,2022.2.4,Linux x86_64,60.00960154,,,,,,,,,,,,,,,,,,,,,,,,,,,,,,,,,,,,,,,,,,,0.05946146,-0.167351945,1,0,0,reder,reder,0,19,19,24,1,rezer,images/br_rezer.png,images/cb_rezer.png
,,,,,,00053,2023-10-18_19h26.20.544,vbt_B2_day1,2022.2.4,Linux x86_64,60.00960154,,,,,,,,,,,,,,,,,,,,,,,,,,,,,,,,,,,,,,,,,,,0.113251782,-0.082287364,1,0,0,br,br,0,20,20,25,1,brijk,images/br_brijk.png,images/cb_brijk.png
,,,,,,00053,2023-10-18_19h26.20.544,vbt_B2_day1,2022.2.4,Linux x86_64,60.00960154,,,,,,,,,,,,,,,,,,,,,,,,,,,,,,,,,,,,,,,,,,,0.05330243,-0.076522574,1,0,0,ree,ree,0,21,21,30,1,reedje,images/br_reedje.png,images/cb_reedje.png
,,,,,,00053,2023-10-18_19h26.20.544,vbt_B2_day1,2022.2.4,Linux x86_64,60.00960154,,,,,,,,,,,,,,,,,,,,,,,,,,,,,,,,,,,,,,,,,,,0.018819899,-0.06454254,1,0,0,voor,voor,0,22,22,58,1,voorkeur,images/br_voorkeur.png,images/cb_voorkeur.png
,,,,,,00053,2023-10-18_19h26.20.544,vbt_B2_day1,2022.2.4,Linux x86_64,60.00960154,,,,,,,,,,,,,,,,,,,,,,,,,,,,,,,,,,,,,,,,,,,-0.046373423,-0.064560733,1,0,0,tars,tars,0,23,23,20,1,tars,images/br_tars.png,images/cb_tars.png
,,,,,,00053,2023-10-18_19h26.20.544,vbt_B2_day1,2022.2.4,Linux x86_64,60.00960154,,,,,,,,,,,,,,,,,,,,,,,,,,,,,,,,,,,,,,,,,,,-0.043232173,-0.00883859,1,0,0,bibr,bibr,0,24,24,28,1,bebrip,images/br_bebrip.png,images/cb_bebrip.png
,,,,,,00053,2023-10-18_19h26.20.544,vbt_B2_day1,2022.2.4,Linux x86_64,60.00960154,,,,,,,,,,,,,,,,,,,,,,,,,,,,,,,,,,,,,,,,,,,-0.043232173,-0.00883859,1,0,0,dier,dier,0,25,25,40,1,dief,images/br_dief.png,images/cb_dief.png
,,,,,,00053,2023-10-18_19h26.20.544,vbt_B2_day1,2022.2.4,Linux x86_64,60.00960154,,,,,,,,,,,,,,,,,,,,,,,,,,,,,,,,,,,,,,,,,,,-0.118191898,-0.027493655,1,0,0,t,t,0,26,26,13,1,twijfel,images/br_twijfel.png,images/cb_twijfel.png
,,,,,,00053,2023-10-18_19h26.20.544,vbt_B2_day1,2022.2.4,Linux x86_64,60.00960154,,,,,,,,,,,,,,,,,,,,,,,,,,,,,,,,,,,,,,,,,,,-0.118191898,-0.027493655,1,0,0,lie e,lie e,0,27,27,51,1,liefde,images/br_liefde.png,images/cb_liefde.png
,,,,,,00053,2023-10-18_19h26.20.544,vbt_B2_day1,2022.2.4,Linux x86_64,60.00960154,,,,,,,,,,,,,,,,,,,,,,,,,,,,,,,,,,,,,,,,,,,-0.054463964,-0.101630144,1,0,0,oe,oe,0,28,28,22,1,knoe,images/br_knoe.png,images/cb_knoe.png
,,,,,,00053,2023-10-18_19h26.20.544,vbt_B2_day1,2022.2.4,Linux x86_64,60.00960154,,,,,,,,,,,,,,,,,,,,,,,,,,,,,,,,,,,,,,,,,,,-0.067867984,-0.103649941,1,0,0,schu,schu,0,29,29,19,1,schuilen,images/br_schuilen.png,images/cb_schuilen.png
,,,,,,00053,2023-10-18_19h26.20.544,vbt_B2_day1,2022.2.4,Linux x86_64,60.00960154,,,,,,,,,,,,,,,,,,,,,,,,,,,,,,,,,,,,,,,,,,,-0.065113626,-0.103649941,1,0,0,booe,booe,0,30,30,23,1,booi,images/br_booi.png,images/cb_booi.png
,,,,,,00053,2023-10-18_19h26.20.544,vbt_B2_day1,2022.2.4,Linux x86_64,60.00960154,,,,,,,,,,,,,,,,,,,,,,,,,,,,,,,,,,,,,,,,,,,-0.065113626,-0.103649941,1,0,0,a,a,0,31,31,17,1,attentie,images/br_attentie.png,images/cb_attentie.png
,,,,,,00053,2023-10-18_19h26.20.544,vbt_B2_day1,2022.2.4,Linux x86_64,60.00960154,,,,,,,,,,,,,,,,,,,,,,,,,,,,,,,,,,,,,,,,,,,-0.118007704,-0.070350132,1,0,0,bleef,bleef,0,32,32,6,1,bleek,images/br_bleek.png,images/cb_bleek.png
,,,,,,00053,2023-10-18_19h26.20.544,vbt_B2_day1,2022.2.4,Linux x86_64,60.00960154,,,,,,,,,,,,,,,,,,,,,,,,,,,,,,,,,,,,,,,,,,,-0.118007704,-0.070350132,1,0,0,liege,liege,0,33,33,50,1,liegen,images/br_liegen.png,images/cb_liegen.png
,,,,,,00053,2023-10-18_19h26.20.544,vbt_B2_day1,2022.2.4,Linux x86_64,60.00960154,,,,,,,,,,,,,,,,,,,,,,,,,,,,,,,,,,,,,,,,,,,-0.118007704,-0.070350132,1,0,0,ror,ror,0,34,34,27,1,prort,images/br_prort.png,images/cb_prort.png
,,,,,,00053,2023-10-18_19h26.20.544,vbt_B2_day1,2022.2.4,Linux x86_64,60.00960154,,,,,,,,,,,,,,,,,,,,,,,,,,,,,,,,,,,,,,,,,,,0.062827802,-0.088381589,1,0,0,s   a,s   a,0,35,35,37,1,spanzing,images/br_spanzing.png,images/cb_spanzing.png
,,,,,,00053,2023-10-18_19h26.20.544,vbt_B2_day1,2022.2.4,Linux x86_64,60.00960154,,,,,,,,,,,,,,,,,,,,,,,,,,,,,,,,,,,,,,,,,,,-0.13486126,0.004412298,1,0,0,m,m,0,36,36,10,1,muziek,images/br_muziek.png,images/cb_muziek.png
,,,,,,00053,2023-10-18_19h26.20.544,vbt_B2_day1,2022.2.4,Linux x86_64,60.00960154,,,,,,,,,,,,,,,,,,,,,,,,,,,,,,,,,,,,,,,,,,,-0.13486126,0.006432056,1,0,0,slag,slag,0,37,37,0,1,slak,images/br_slak.png,images/cb_slak.png
,,,,,,00053,2023-10-18_19h26.20.544,vbt_B2_day1,2022.2.4,Linux x86_64,60.00960154,,,,,,,,,,,,,,,,,,,,,,,,,,,,,,,,,,,,,,,,,,,0.202489535,0.022015186,1,0,0,schip,schip,0,38,38,4,1,schep,images/br_schep.png,images/cb_schep.png
,,,,,,00053,2023-10-18_19h26.20.544,vbt_B2_day1,2022.2.4,Linux x86_64,60.00960154,,,,,,,,,,,,,,,,,,,,,,,,,,,,,,,,,,,,,,,,,,,0.202489535,0.022015186,1,0,0,ict,ict,0,39,39,48,1,fictie,images/br_fictie.png,images/cb_fictie.png
,,,,,,00053,2023-10-18_19h26.20.544,vbt_B2_day1,2022.2.4,Linux x86_64,60.00960154,,,,,,,,,,,,,,,,,,,,,,,,,,,,,,,,,,,,,,,,,,,0.202489535,0.022015186,1,0,0,stuw,stuw,0,40,40,42,1,stuk,images/br_stuk.png,images/cb_stuk.png
,,,,,,00053,2023-10-18_19h26.20.544,vbt_B2_day1,2022.2.4,Linux x86_64,60.00960154,,,,,,,,,,,,,,,,,,,,,,,,,,,,,,,,,,,,,,,,,,,0.202489535,0.022015186,1,0,0,stu,stu,0,41,41,35,1,stuikem,images/br_stuikem.png,images/cb_stuikem.png
,,,,,,00053,2023-10-18_19h26.20.544,vbt_B2_day1,2022.2.4,Linux x86_64,60.00960154,,,,,,,,,,,,,,,,,,,,,,,,,,,,,,,,,,,,,,,,,,,0.202489535,0.022015186,1,0,0,toe,toe,0,42,42,56,1,toezicht,images/br_toezicht.png,images/cb_toezicht.png
,,,,,,00053,2023-10-18_19h26.20.544,vbt_B2_day1,2022.2.4,Linux x86_64,60.00960154,,,,,,,,,,,,,,,,,,,,,,,,,,,,,,,,,,,,,,,,,,,0.202489535,0.022015186,1,0,0,,,0,43,43,1,1,zaal,images/br_zaal.png,images/cb_zaal.png
,,,,,,00053,2023-10-18_19h26.20.544,vbt_B2_day1,2022.2.4,Linux x86_64,60.00960154,,,,,,,,,,,,,,,,,,,,,,,,,,,,,,,,,,,,,,,,,,,0.202489535,0.022015186,1,0,0,lauw,lauw,0,44,44,7,1,klauw,images/br_klauw.png,images/cb_klauw.png
,,,,,,00053,2023-10-18_19h26.20.544,vbt_B2_day1,2022.2.4,Linux x86_64,60.00960154,,,,,,,,,,,,,,,,,,,,,,,,,,,,,,,,,,,,,,,,,,,0.202489535,0.022015186,1,0,0,ma,ma,0,45,45,3,1,mand,images/br_mand.png,images/cb_mand.png
,,,,,,00053,2023-10-18_19h26.20.544,vbt_B2_day1,2022.2.4,Linux x86_64,60.00960154,,,,,,,,,,,,,,,,,,,,,,,,,,,,,,,,,,,,,,,,,,,0.202489535,0.022015186,1,0,0,hoog,hoog,0,46,46,41,1,hoog,images/br_hoog.png,images/cb_hoog.png
,,,,,,00053,2023-10-18_19h26.20.544,vbt_B2_day1,2022.2.4,Linux x86_64,60.00960154,,,,,,,,,,,,,,,,,,,,,,,,,,,,,,,,,,,,,,,,,,,0.202122157,0.022015186,1,0,0,a,a,0,47,47,8,1,kanjer,images/br_kanjer.png,images/cb_kanjer.png
,,,,,,00053,2023-10-18_19h26.20.544,vbt_B2_day1,2022.2.4,Linux x86_64,60.00960154,,,,,,,,,,,,,,,,,,,,,,,,,,,,,,,,,,,,,,,,,,,-0.122658427,0.057082605,1,0,0,mee  m,mee  m,0,48,48,57,1,meenemen,images/br_meenemen.png,images/cb_meenemen.png
,,,,,,00053,2023-10-18_19h26.20.544,vbt_B2_day1,2022.2.4,Linux x86_64,60.00960154,,,,,,,,,,,,,,,,,,,,,,,,,,,,,,,,,,,,,,,,,,,-0.077305729,0.015401852,1,0,0,osl  aa,osl  aa,0,49,49,53,1,opslaan,images/br_opslaan.png,images/cb_opslaan.png
,,,,,,00053,2023-10-18_19h26.20.544,vbt_B2_day1,2022.2.4,Linux x86_64,60.00960154,,,,,,,,,,,,,,,,,,,,,,,,,,,,,,,,,,,,,,,,,,,-0.077305729,0.015401852,1,0,0,o  laa,o  laa,0,50,50,32,1,opplaan,images/br_opplaan.png,images/cb_opplaan.png
,,,,,,00053,2023-10-18_19h26.20.544,vbt_B2_day1,2022.2.4,Linux x86_64,60.00960154,,,,,,,,,,,,,,,,,,,,,,,,,,,,,,,,,,,,,,,,,,,-0.079325488,0.015585463,1,0,0,voorr,voorr,0,51,51,39,1,voorreur,images/br_voorreur.png,images/cb_voorreur.png
,,,,,,00053,2023-10-18_19h26.20.544,vbt_B2_day1,2022.2.4,Linux x86_64,60.00960154,,,,,,,,,,,,,,,,,,,,,,,,,,,,,,,,,,,,,,,,,,,-0.079325488,0.015585463,1,0,0,aarla,aarla,0,52,52,14,1,waarvan,images/br_waarvan.png,images/cb_waarvan.png
,,,,,,00053,2023-10-18_19h26.20.544,vbt_B2_day1,2022.2.4,Linux x86_64,60.00960154,,,,,,,,,,,,,,,,,,,,,,,,,,,,,,,,,,,,,,,,,,,-0.079325488,0.015585463,1,0,0,ve,ve,0,53,53,49,1,vizier,images/br_vizier.png,images/cb_vizier.png
,,,,,,00053,2023-10-18_19h26.20.544,vbt_B2_day1,2022.2.4,Linux x86_64,60.00960154,,,,,,,,,,,,,,,,,,,,,,,,,,,,,,,,,,,,,,,,,,,-0.079325488,0.015585463,1,0,0,lava,lava,0,54,54,43,1,lava,images/br_lava.png,images/cb_lava.png
,,,,,,00053,2023-10-18_19h26.20.544,vbt_B2_day1,2022.2.4,Linux x86_64,60.00960154,,,,,,,,,,,,,,,,,,,,,,,,,,,,,,,,,,,,,,,,,,,-0.079325488,0.015585463,1,0,0,me,me,0,55,55,11,1,mening,images/br_mening.png,images/cb_mening.png
,,,,,,00053,2023-10-18_19h26.20.544,vbt_B2_day1,2022.2.4,Linux x86_64,60.00960154,,,,,,,,,,,,,,,,,,,,,,,,,,,,,,,,,,,,,,,,,,,-0.079325488,0.015585463,1,0,0,maker,maker,0,56,56,5,1,maken,images/br_maken.png,images/cb_maken.png
,,,,,,00053,2023-10-18_19h26.20.544,vbt_B2_day1,2022.2.4,Linux x86_64,60.00960154,,,,,,,,,,,,,,,,,,,,,,,,,,,,,,,,,,,,,,,,,,,-0.079325488,0.015585463,1,0,0,krik,krik,0,57,57,21,1,dred,images/br_dred.png,images/cb_dred.png
,,,,,,00053,2023-10-18_19h26.20.544,vbt_B2_day1,2022.2.4,Linux x86_64,60.00960154,,,,,,,,,,,,,,,,,,,,,,,,,,,,,,,,,,,,,,,,,,,-0.079325488,0.015585463,1,0,0,via,via,0,58,58,36,1,vervaden,images/br_vervaden.png,images/cb_vervaden.png
,,,,,,00053,2023-10-18_19h26.20.544,vbt_B2_day1,2022.2.4,Linux x86_64,60.00960154,,,,,,,,,,,,,,,,,,,,,,,,,,,,,,,,,,,,,,,,,,,-0.079325488,0.015585463,1,0,0,aar,aar,0,59,59,16,1,daarheen,images/br_daarheen.png,images/cb_daarheen.png
,,,,,,00053,2023-10-18_19h26.20.544,vbt_B2_day1,2022.2.4,Linux x86_64,60.00960154,,,,,,,,,,,,,,,,,,,,,,,,,,,,,,,,,,,,,,,,,,,,,,,,,,,,,,,,,
