welcome_mouse.x,welcome_mouse.y,welcome_mouse.leftButton,welcome_mouse.midButton,welcome_mouse.rightButton,welcome_mouse.time,"ID",date,expName,psychopyVersion,OS,frameRate,participant,mouse_2.x,mouse_2.y,mouse_2.leftButton,mouse_2.midButton,mouse_2.rightButton,mouse_2.time,mouse_3.x,mouse_3.y,mouse_3.leftButton,mouse_3.midButton,mouse_3.rightButton,mouse_3.time,train_mouse.x,train_mouse.y,train_mouse.leftButton,train_mouse.midButton,train_mouse.rightButton,train_mouse.time,braille_mouse.x,braille_mouse.y,braille_mouse.leftButton,braille_mouse.midButton,braille_mouse.rightButton,braille_mouse.time,trials.thisRepN,trials.thisTrialN,trials.thisN,trials.thisIndex,trials.ran,nlLet,brLet,cbLet,mouse.x,mouse.y,mouse.leftButton,mouse.midButton,mouse.rightButton,testInstr_mouse.x,testInstr_mouse.y,testInstr_mouse.leftButton,testInstr_mouse.midButton,testInstr_mouse.rightButton,test_mouse.x,test_mouse.y,test_mouse.leftButton,test_mouse.midButton,test_mouse.rightButton,test_response.text,testResp,test_loop.thisRepN,test_loop.thisTrialN,test_loop.thisN,test_loop.thisIndex,test_loop.ran,nlWrd,brWrd,cbWrd
-0.072222222,-0.350925926,1,0,0,24.3842,,2023-09-25_23h01.47.151,vbt_B2_day1,2022.2.4,Win32,60.12867537,55978,,,,,,,,,,,,,,,,,,,,,,,,,,,,,,,,,,,,,,,,,,,,,,,,,,,,,,,,,
,,,,,,,2023-09-25_23h01.47.151,vbt_B2_day1,2022.2.4,Win32,60.12867537,55978,-0.059259259,-0.330555556,1,0,0,12.0265,,,,,,,,,,,,,,,,,,,,,,,,,,,,,,,,,,,,,,,,,,,,,,,,,,,
,,,,,,,2023-09-25_23h01.47.151,vbt_B2_day1,2022.2.4,Win32,60.12867537,55978,,,,,,,0.042592593,-0.348148148,1,0,0,35.9115,,,,,,,,,,,,,,,,,,,,,,,,,,,,,,,,,,,,,,,,,,,,,
,,,,,,,2023-09-25_23h01.47.151,vbt_B2_day1,2022.2.4,Win32,60.12867537,55978,,,,,,,,,,,,,0.010185185,-0.238888889,1,0,0,38.3728,,,,,,,,,,,,,,,,,,,,,,,,,,,,,,,,,,,,,,,
,,,,,,,2023-09-25_23h01.47.151,vbt_B2_day1,2022.2.4,Win32,60.12867537,55978,,,,,,,,,,,,,,,,,,,0.010185185,-0.238888889,1,0,0,28.4162,0,0,0,3,1,d,images/br_d.png,images/cb_d.png,,,,,,,,,,,,,,,,,,,,,,,,,
,,,,,,,2023-09-25_23h01.47.151,vbt_B2_day1,2022.2.4,Win32,60.12867537,55978,,,,,,,,,,,,,,,,,,,0.010185185,-0.238888889,1,0,0,4.9326,0,1,1,8,1,i,images/br_i.png,images/cb_i.png,,,,,,,,,,,,,,,,,,,,,,,,,
,,,,,,,2023-09-25_23h01.47.151,vbt_B2_day1,2022.2.4,Win32,60.12867537,55978,,,,,,,,,,,,,,,,,,,0.010185185,-0.238888889,1,0,0,7.3335,0,2,2,17,1,r,images/br_r.png,images/cb_r.png,,,,,,,,,,,,,,,,,,,,,,,,,
,,,,,,,2023-09-25_23h01.47.151,vbt_B2_day1,2022.2.4,Win32,60.12867537,55978,,,,,,,,,,,,,,,,,,,0.010185185,-0.238888889,1,0,0,4.2837,0,3,3,9,1,j,images/br_j.png,images/cb_j.png,,,,,,,,,,,,,,,,,,,,,,,,,
,,,,,,,2023-09-25_23h01.47.151,vbt_B2_day1,2022.2.4,Win32,60.12867537,55978,,,,,,,,,,,,,,,,,,,0.010185185,-0.238888889,1,0,0,4.7242,0,4,4,10,1,k,images/br_k.png,images/cb_k.png,,,,,,,,,,,,,,,,,,,,,,,,,
,,,,,,,2023-09-25_23h01.47.151,vbt_B2_day1,2022.2.4,Win32,60.12867537,55978,,,,,,,,,,,,,,,,,,,0.010185185,-0.238888889,1,0,0,4.6178,0,5,5,20,1,u,images/br_u.png,images/cb_u.png,,,,,,,,,,,,,,,,,,,,,,,,,
,,,,,,,2023-09-25_23h01.47.151,vbt_B2_day1,2022.2.4,Win32,60.12867537,55978,,,,,,,,,,,,,,,,,,,0.010185185,-0.238888889,1,0,0,3.2993,0,6,6,21,1,v,images/br_v.png,images/cb_v.png,,,,,,,,,,,,,,,,,,,,,,,,,
,,,,,,,2023-09-25_23h01.47.151,vbt_B2_day1,2022.2.4,Win32,60.12867537,55978,,,,,,,,,,,,,,,,,,,-0.030555556,-0.330555556,1,0,0,5.2662,0,7,7,16,1,q,images/br_q.png,images/cb_q.png,,,,,,,,,,,,,,,,,,,,,,,,,
,,,,,,,2023-09-25_23h01.47.151,vbt_B2_day1,2022.2.4,Win32,60.12867537,55978,,,,,,,,,,,,,,,,,,,-0.030555556,-0.330555556,1,0,0,16.9162,0,8,8,12,1,m,images/br_m.png,images/cb_m.png,,,,,,,,,,,,,,,,,,,,,,,,,
,,,,,,,2023-09-25_23h01.47.151,vbt_B2_day1,2022.2.4,Win32,60.12867537,55978,,,,,,,,,,,,,,,,,,,-0.030555556,-0.330555556,1,0,0,13.3664,0,9,9,22,1,w,images/br_w.png,images/cb_w.png,,,,,,,,,,,,,,,,,,,,,,,,,
,,,,,,,2023-09-25_23h01.47.151,vbt_B2_day1,2022.2.4,Win32,60.12867537,55978,,,,,,,,,,,,,,,,,,,-0.030555556,-0.330555556,1,0,0,2.0339,0,10,10,2,1,c,images/br_c.png,images/cb_c.png,,,,,,,,,,,,,,,,,,,,,,,,,
,,,,,,,2023-09-25_23h01.47.151,vbt_B2_day1,2022.2.4,Win32,60.12867537,55978,,,,,,,,,,,,,,,,,,,-0.030555556,-0.330555556,1,0,0,2.8001,0,11,11,11,1,l,images/br_l.png,images/cb_l.png,,,,,,,,,,,,,,,,,,,,,,,,,
,,,,,,,2023-09-25_23h01.47.151,vbt_B2_day1,2022.2.4,Win32,60.12867537,55978,,,,,,,,,,,,,,,,,,,-0.030555556,-0.330555556,1,0,0,2.5326,0,12,12,4,1,e,images/br_e.png,images/cb_e.png,,,,,,,,,,,,,,,,,,,,,,,,,
,,,,,,,2023-09-25_23h01.47.151,vbt_B2_day1,2022.2.4,Win32,60.12867537,55978,,,,,,,,,,,,,,,,,,,-0.030555556,-0.330555556,1,0,0,9.633,0,13,13,0,1,a,images/br_a.png,images/cb_a.png,,,,,,,,,,,,,,,,,,,,,,,,,
,,,,,,,2023-09-25_23h01.47.151,vbt_B2_day1,2022.2.4,Win32,60.12867537,55978,,,,,,,,,,,,,,,,,,,-0.030555556,-0.330555556,1,0,0,3.5675,0,14,14,14,1,o,images/br_o.png,images/cb_o.png,,,,,,,,,,,,,,,,,,,,,,,,,
,,,,,,,2023-09-25_23h01.47.151,vbt_B2_day1,2022.2.4,Win32,60.12867537,55978,,,,,,,,,,,,,,,,,,,-0.030555556,-0.330555556,1,0,0,8.0828,0,15,15,18,1,s,images/br_s.png,images/cb_s.png,,,,,,,,,,,,,,,,,,,,,,,,,
,,,,,,,2023-09-25_23h01.47.151,vbt_B2_day1,2022.2.4,Win32,60.12867537,55978,,,,,,,,,,,,,,,,,,,-0.030555556,-0.330555556,1,0,0,6.8833,0,16,16,19,1,t,images/br_t.png,images/cb_t.png,,,,,,,,,,,,,,,,,,,,,,,,,
,,,,,,,2023-09-25_23h01.47.151,vbt_B2_day1,2022.2.4,Win32,60.12867537,55978,,,,,,,,,,,,,,,,,,,-0.030555556,-0.330555556,1,0,0,6.1997,0,17,17,7,1,h,images/br_h.png,images/cb_h.png,,,,,,,,,,,,,,,,,,,,,,,,,
,,,,,,,2023-09-25_23h01.47.151,vbt_B2_day1,2022.2.4,Win32,60.12867537,55978,,,,,,,,,,,,,,,,,,,-0.030555556,-0.330555556,1,0,0,11.4832,0,18,18,6,1,g,images/br_g.png,images/cb_g.png,,,,,,,,,,,,,,,,,,,,,,,,,
,,,,,,,2023-09-25_23h01.47.151,vbt_B2_day1,2022.2.4,Win32,60.12867537,55978,,,,,,,,,,,,,,,,,,,-0.030555556,-0.330555556,1,0,0,3.8329,0,19,19,23,1,x,images/br_x.png,images/cb_x.png,,,,,,,,,,,,,,,,,,,,,,,,,
,,,,,,,2023-09-25_23h01.47.151,vbt_B2_day1,2022.2.4,Win32,60.12867537,55978,,,,,,,,,,,,,,,,,,,-0.030555556,-0.330555556,1,0,0,4.133,0,20,20,13,1,n,images/br_n.png,images/cb_n.png,,,,,,,,,,,,,,,,,,,,,,,,,
,,,,,,,2023-09-25_23h01.47.151,vbt_B2_day1,2022.2.4,Win32,60.12867537,55978,,,,,,,,,,,,,,,,,,,-0.030555556,-0.330555556,1,0,0,6.0001,0,21,21,5,1,f,images/br_f.png,images/cb_f.png,,,,,,,,,,,,,,,,,,,,,,,,,
,,,,,,,2023-09-25_23h01.47.151,vbt_B2_day1,2022.2.4,Win32,60.12867537,55978,,,,,,,,,,,,,,,,,,,-0.030555556,-0.330555556,1,0,0,2.917,0,22,22,1,1,b,images/br_b.png,images/cb_b.png,,,,,,,,,,,,,,,,,,,,,,,,,
,,,,,,,2023-09-25_23h01.47.151,vbt_B2_day1,2022.2.4,Win32,60.12867537,55978,,,,,,,,,,,,,,,,,,,-0.030555556,-0.330555556,1,0,0,9.5666,0,23,23,25,1,z,images/br_z.png,images/cb_z.png,,,,,,,,,,,,,,,,,,,,,,,,,
,,,,,,,2023-09-25_23h01.47.151,vbt_B2_day1,2022.2.4,Win32,60.12867537,55978,,,,,,,,,,,,,,,,,,,-0.030555556,-0.330555556,1,0,0,1.8663,0,24,24,15,1,p,images/br_p.png,images/cb_p.png,,,,,,,,,,,,,,,,,,,,,,,,,
,,,,,,,2023-09-25_23h01.47.151,vbt_B2_day1,2022.2.4,Win32,60.12867537,55978,,,,,,,,,,,,,,,,,,,-0.030555556,-0.330555556,1,0,0,0.801,0,25,25,24,1,y,images/br_y.png,images/cb_y.png,,,,,,,,,,,,,,,,,,,,,,,,,
,,,,,,,2023-09-25_23h01.47.151,vbt_B2_day1,2022.2.4,Win32,60.12867537,55978,,,,,,,,,,,,,,,,,,,-0.030555556,-0.330555556,1,0,0,1.2989,1,0,26,25,1,z,images/br_z.png,images/cb_z.png,,,,,,,,,,,,,,,,,,,,,,,,,
,,,,,,,2023-09-25_23h01.47.151,vbt_B2_day1,2022.2.4,Win32,60.12867537,55978,,,,,,,,,,,,,,,,,,,-0.030555556,-0.330555556,1,0,0,2.5837,1,1,27,16,1,q,images/br_q.png,images/cb_q.png,,,,,,,,,,,,,,,,,,,,,,,,,
,,,,,,,2023-09-25_23h01.47.151,vbt_B2_day1,2022.2.4,Win32,60.12867537,55978,,,,,,,,,,,,,,,,,,,-0.030555556,-0.330555556,1,0,0,1.1502,1,2,28,5,1,f,images/br_f.png,images/cb_f.png,,,,,,,,,,,,,,,,,,,,,,,,,
,,,,,,,2023-09-25_23h01.47.151,vbt_B2_day1,2022.2.4,Win32,60.12867537,55978,,,,,,,,,,,,,,,,,,,-0.011111111,-0.25,1,0,0,2.2834,1,3,29,24,1,y,images/br_y.png,images/cb_y.png,,,,,,,,,,,,,,,,,,,,,,,,,
,,,,,,,2023-09-25_23h01.47.151,vbt_B2_day1,2022.2.4,Win32,60.12867537,55978,,,,,,,,,,,,,,,,,,,-0.011111111,-0.25,1,0,0,1.2337,1,4,30,9,1,j,images/br_j.png,images/cb_j.png,,,,,,,,,,,,,,,,,,,,,,,,,
,,,,,,,2023-09-25_23h01.47.151,vbt_B2_day1,2022.2.4,Win32,60.12867537,55978,,,,,,,,,,,,,,,,,,,-0.011111111,-0.25,1,0,0,0.3,1,5,31,8,1,i,images/br_i.png,images/cb_i.png,,,,,,,,,,,,,,,,,,,,,,,,,
,,,,,,,2023-09-25_23h01.47.151,vbt_B2_day1,2022.2.4,Win32,60.12867537,55978,,,,,,,,,,,,,,,,,,,-0.011111111,-0.25,1,0,0,1.4006,1,6,32,22,1,w,images/br_w.png,images/cb_w.png,,,,,,,,,,,,,,,,,,,,,,,,,
,,,,,,,2023-09-25_23h01.47.151,vbt_B2_day1,2022.2.4,Win32,60.12867537,55978,,,,,,,,,,,,,,,,,,,-0.011111111,-0.25,1,0,0,2.0173,1,7,33,10,1,k,images/br_k.png,images/cb_k.png,,,,,,,,,,,,,,,,,,,,,,,,,
,,,,,,,2023-09-25_23h01.47.151,vbt_B2_day1,2022.2.4,Win32,60.12867537,55978,,,,,,,,,,,,,,,,,,,-0.018518519,-0.201851852,1,0,0,2.7174,1,8,34,18,1,s,images/br_s.png,images/cb_s.png,,,,,,,,,,,,,,,,,,,,,,,,,
,,,,,,,2023-09-25_23h01.47.151,vbt_B2_day1,2022.2.4,Win32,60.12867537,55978,,,,,,,,,,,,,,,,,,,-0.018518519,-0.201851852,1,0,0,1.9163,1,9,35,12,1,m,images/br_m.png,images/cb_m.png,,,,,,,,,,,,,,,,,,,,,,,,,
,,,,,,,2023-09-25_23h01.47.151,vbt_B2_day1,2022.2.4,Win32,60.12867537,55978,,,,,,,,,,,,,,,,,,,-0.018518519,-0.201851852,1,0,0,1.3509,1,10,36,21,1,v,images/br_v.png,images/cb_v.png,,,,,,,,,,,,,,,,,,,,,,,,,
,,,,,,,2023-09-25_23h01.47.151,vbt_B2_day1,2022.2.4,Win32,60.12867537,55978,,,,,,,,,,,,,,,,,,,-0.018518519,-0.201851852,1,0,0,7.283,1,11,37,13,1,n,images/br_n.png,images/cb_n.png,,,,,,,,,,,,,,,,,,,,,,,,,
,,,,,,,2023-09-25_23h01.47.151,vbt_B2_day1,2022.2.4,Win32,60.12867537,55978,,,,,,,,,,,,,,,,,,,-0.018518519,-0.201851852,1,0,0,2.2501,1,12,38,0,1,a,images/br_a.png,images/cb_a.png,,,,,,,,,,,,,,,,,,,,,,,,,
,,,,,,,2023-09-25_23h01.47.151,vbt_B2_day1,2022.2.4,Win32,60.12867537,55978,,,,,,,,,,,,,,,,,,,-0.018518519,-0.201851852,1,0,0,3.4005,1,13,39,17,1,r,images/br_r.png,images/cb_r.png,,,,,,,,,,,,,,,,,,,,,,,,,
,,,,,,,2023-09-25_23h01.47.151,vbt_B2_day1,2022.2.4,Win32,60.12867537,55978,,,,,,,,,,,,,,,,,,,-0.018518519,-0.201851852,1,0,0,4.1159,1,14,40,4,1,e,images/br_e.png,images/cb_e.png,,,,,,,,,,,,,,,,,,,,,,,,,
,,,,,,,2023-09-25_23h01.47.151,vbt_B2_day1,2022.2.4,Win32,60.12867537,55978,,,,,,,,,,,,,,,,,,,-0.018518519,-0.201851852,1,0,0,2.8,1,15,41,6,1,g,images/br_g.png,images/cb_g.png,,,,,,,,,,,,,,,,,,,,,,,,,
,,,,,,,2023-09-25_23h01.47.151,vbt_B2_day1,2022.2.4,Win32,60.12867537,55978,,,,,,,,,,,,,,,,,,,-0.018518519,-0.201851852,1,0,0,2.0832,1,16,42,19,1,t,images/br_t.png,images/cb_t.png,,,,,,,,,,,,,,,,,,,,,,,,,
,,,,,,,2023-09-25_23h01.47.151,vbt_B2_day1,2022.2.4,Win32,60.12867537,55978,,,,,,,,,,,,,,,,,,,-0.018518519,-0.201851852,1,0,0,2.4329,1,17,43,11,1,l,images/br_l.png,images/cb_l.png,,,,,,,,,,,,,,,,,,,,,,,,,
,,,,,,,2023-09-25_23h01.47.151,vbt_B2_day1,2022.2.4,Win32,60.12867537,55978,,,,,,,,,,,,,,,,,,,-0.018518519,-0.201851852,1,0,0,1.8493,1,18,44,1,1,b,images/br_b.png,images/cb_b.png,,,,,,,,,,,,,,,,,,,,,,,,,
,,,,,,,2023-09-25_23h01.47.151,vbt_B2_day1,2022.2.4,Win32,60.12867537,55978,,,,,,,,,,,,,,,,,,,-0.018518519,-0.201851852,1,0,0,0.4162,1,19,45,7,1,h,images/br_h.png,images/cb_h.png,,,,,,,,,,,,,,,,,,,,,,,,,
,,,,,,,2023-09-25_23h01.47.151,vbt_B2_day1,2022.2.4,Win32,60.12867537,55978,,,,,,,,,,,,,,,,,,,-0.018518519,-0.201851852,1,0,0,1.5668,1,20,46,14,1,o,images/br_o.png,images/cb_o.png,,,,,,,,,,,,,,,,,,,,,,,,,
,,,,,,,2023-09-25_23h01.47.151,vbt_B2_day1,2022.2.4,Win32,60.12867537,55978,,,,,,,,,,,,,,,,,,,-0.018518519,-0.201851852,1,0,0,4.9335,1,21,47,15,1,p,images/br_p.png,images/cb_p.png,,,,,,,,,,,,,,,,,,,,,,,,,
,,,,,,,2023-09-25_23h01.47.151,vbt_B2_day1,2022.2.4,Win32,60.12867537,55978,,,,,,,,,,,,,,,,,,,-0.018518519,-0.201851852,1,0,0,0.5998,1,22,48,20,1,u,images/br_u.png,images/cb_u.png,,,,,,,,,,,,,,,,,,,,,,,,,
,,,,,,,2023-09-25_23h01.47.151,vbt_B2_day1,2022.2.4,Win32,60.12867537,55978,,,,,,,,,,,,,,,,,,,-0.018518519,-0.201851852,1,0,0,0.0513,1,23,49,23,1,x,images/br_x.png,images/cb_x.png,,,,,,,,,,,,,,,,,,,,,,,,,
,,,,,,,2023-09-25_23h01.47.151,vbt_B2_day1,2022.2.4,Win32,60.12867537,55978,,,,,,,,,,,,,,,,,,,-0.018518519,-0.201851852,1,0,0,2.133,1,24,50,2,1,c,images/br_c.png,images/cb_c.png,,,,,,,,,,,,,,,,,,,,,,,,,
,,,,,,,2023-09-25_23h01.47.151,vbt_B2_day1,2022.2.4,Win32,60.12867537,55978,,,,,,,,,,,,,,,,,,,0.008333333,-0.2,1,0,0,1.7336,1,25,51,3,1,d,images/br_d.png,images/cb_d.png,,,,,,,,,,,,,,,,,,,,,,,,,
,,,,,,,2023-09-25_23h01.47.151,vbt_B2_day1,2022.2.4,Win32,60.12867537,55978,,,,,,,,,,,,,,,,,,,-0.210185185,-0.14537037,1,0,0,252.6069,2,0,52,7,1,h,images/br_h.png,images/cb_h.png,,,,,,,,,,,,,,,,,,,,,,,,,
,,,,,,,2023-09-25_23h01.47.151,vbt_B2_day1,2022.2.4,Win32,60.12867537,55978,,,,,,,,,,,,,,,,,,,-0.210185185,-0.14537037,1,0,0,2.7999,2,1,53,21,1,v,images/br_v.png,images/cb_v.png,,,,,,,,,,,,,,,,,,,,,,,,,
,,,,,,,2023-09-25_23h01.47.151,vbt_B2_day1,2022.2.4,Win32,60.12867537,55978,,,,,,,,,,,,,,,,,,,-0.210185185,-0.14537037,1,0,0,1.765,2,2,54,2,1,c,images/br_c.png,images/cb_c.png,,,,,,,,,,,,,,,,,,,,,,,,,
,,,,,,,2023-09-25_23h01.47.151,vbt_B2_day1,2022.2.4,Win32,60.12867537,55978,,,,,,,,,,,,,,,,,,,-0.210185185,-0.14537037,1,0,0,6.0459,2,3,55,25,1,z,images/br_z.png,images/cb_z.png,,,,,,,,,,,,,,,,,,,,,,,,,
,,,,,,,2023-09-25_23h01.47.151,vbt_B2_day1,2022.2.4,Win32,60.12867537,55978,,,,,,,,,,,,,,,,,,,-0.210185185,-0.14537037,1,0,0,0.5462,2,4,56,19,1,t,images/br_t.png,images/cb_t.png,,,,,,,,,,,,,,,,,,,,,,,,,
,,,,,,,2023-09-25_23h01.47.151,vbt_B2_day1,2022.2.4,Win32,60.12867537,55978,,,,,,,,,,,,,,,,,,,-0.182407407,-0.15,1,0,0,0.317,2,5,57,1,1,b,images/br_b.png,images/cb_b.png,,,,,,,,,,,,,,,,,,,,,,,,,
,,,,,,,2023-09-25_23h01.47.151,vbt_B2_day1,2022.2.4,Win32,60.12867537,55978,,,,,,,,,,,,,,,,,,,-0.013888889,-0.216666667,1,0,0,0.5402,2,6,58,15,1,p,images/br_p.png,images/cb_p.png,,,,,,,,,,,,,,,,,,,,,,,,,
,,,,,,,2023-09-25_23h01.47.151,vbt_B2_day1,2022.2.4,Win32,60.12867537,55978,,,,,,,,,,,,,,,,,,,0.00462963,-0.193518519,1,0,0,0.4288,2,7,59,4,1,e,images/br_e.png,images/cb_e.png,,,,,,,,,,,,,,,,,,,,,,,,,
,,,,,,,2023-09-25_23h01.47.151,vbt_B2_day1,2022.2.4,Win32,60.12867537,55978,,,,,,,,,,,,,,,,,,,0.00462963,-0.193518519,1,0,0,2.2994,2,8,60,8,1,i,images/br_i.png,images/cb_i.png,,,,,,,,,,,,,,,,,,,,,,,,,
,,,,,,,2023-09-25_23h01.47.151,vbt_B2_day1,2022.2.4,Win32,60.12867537,55978,,,,,,,,,,,,,,,,,,,0.00462963,-0.193518519,0,0,1,0.191,2,9,61,13,1,n,images/br_n.png,images/cb_n.png,,,,,,,,,,,,,,,,,,,,,,,,,
,,,,,,,2023-09-25_23h01.47.151,vbt_B2_day1,2022.2.4,Win32,60.12867537,55978,,,,,,,,,,,,,,,,,,,-0.005555556,-0.181481481,1,0,0,0.3102,2,10,62,18,1,s,images/br_s.png,images/cb_s.png,,,,,,,,,,,,,,,,,,,,,,,,,
,,,,,,,2023-09-25_23h01.47.151,vbt_B2_day1,2022.2.4,Win32,60.12867537,55978,,,,,,,,,,,,,,,,,,,-0.005555556,-0.181481481,1,0,0,1.9441,2,11,63,6,1,g,images/br_g.png,images/cb_g.png,,,,,,,,,,,,,,,,,,,,,,,,,
,,,,,,,2023-09-25_23h01.47.151,vbt_B2_day1,2022.2.4,Win32,60.12867537,55978,,,,,,,,,,,,,,,,,,,-0.005555556,-0.181481481,1,0,0,2.0668,2,12,64,12,1,m,images/br_m.png,images/cb_m.png,,,,,,,,,,,,,,,,,,,,,,,,,
,,,,,,,2023-09-25_23h01.47.151,vbt_B2_day1,2022.2.4,Win32,60.12867537,55978,,,,,,,,,,,,,,,,,,,-0.005555556,-0.181481481,1,0,0,0.7823,2,13,65,17,1,r,images/br_r.png,images/cb_r.png,,,,,,,,,,,,,,,,,,,,,,,,,
,,,,,,,2023-09-25_23h01.47.151,vbt_B2_day1,2022.2.4,Win32,60.12867537,55978,,,,,,,,,,,,,,,,,,,-0.005555556,-0.181481481,1,0,0,3.2491,2,14,66,23,1,x,images/br_x.png,images/cb_x.png,,,,,,,,,,,,,,,,,,,,,,,,,
,,,,,,,2023-09-25_23h01.47.151,vbt_B2_day1,2022.2.4,Win32,60.12867537,55978,,,,,,,,,,,,,,,,,,,-0.005555556,-0.181481481,1,0,0,0.1665,2,15,67,11,1,l,images/br_l.png,images/cb_l.png,,,,,,,,,,,,,,,,,,,,,,,,,
,,,,,,,2023-09-25_23h01.47.151,vbt_B2_day1,2022.2.4,Win32,60.12867537,55978,,,,,,,,,,,,,,,,,,,-0.005555556,-0.181481481,1,0,0,5.6665,2,16,68,24,1,y,images/br_y.png,images/cb_y.png,,,,,,,,,,,,,,,,,,,,,,,,,
,,,,,,,2023-09-25_23h01.47.151,vbt_B2_day1,2022.2.4,Win32,60.12867537,55978,,,,,,,,,,,,,,,,,,,-0.005555556,-0.181481481,1,0,0,2.4178,2,17,69,10,1,k,images/br_k.png,images/cb_k.png,,,,,,,,,,,,,,,,,,,,,,,,,
,,,,,,,2023-09-25_23h01.47.151,vbt_B2_day1,2022.2.4,Win32,60.12867537,55978,,,,,,,,,,,,,,,,,,,-0.005555556,-0.181481481,1,0,0,4.3847,2,18,70,9,1,j,images/br_j.png,images/cb_j.png,,,,,,,,,,,,,,,,,,,,,,,,,
,,,,,,,2023-09-25_23h01.47.151,vbt_B2_day1,2022.2.4,Win32,60.12867537,55978,,,,,,,,,,,,,,,,,,,-0.005555556,-0.181481481,1,0,0,1.5938,2,19,71,16,1,q,images/br_q.png,images/cb_q.png,,,,,,,,,,,,,,,,,,,,,,,,,
,,,,,,,2023-09-25_23h01.47.151,vbt_B2_day1,2022.2.4,Win32,60.12867537,55978,,,,,,,,,,,,,,,,,,,-0.005555556,-0.181481481,1,0,0,51.3984,2,20,72,20,1,u,images/br_u.png,images/cb_u.png,,,,,,,,,,,,,,,,,,,,,,,,,
,,,,,,,2023-09-25_23h01.47.151,vbt_B2_day1,2022.2.4,Win32,60.12867537,55978,,,,,,,,,,,,,,,,,,,-0.005555556,-0.181481481,1,0,0,2.5675,2,21,73,22,1,w,images/br_w.png,images/cb_w.png,,,,,,,,,,,,,,,,,,,,,,,,,
,,,,,,,2023-09-25_23h01.47.151,vbt_B2_day1,2022.2.4,Win32,60.12867537,55978,,,,,,,,,,,,,,,,,,,0.007407407,-0.20462963,1,0,0,1.5338,2,22,74,3,1,d,images/br_d.png,images/cb_d.png,,,,,,,,,,,,,,,,,,,,,,,,,
,,,,,,,2023-09-25_23h01.47.151,vbt_B2_day1,2022.2.4,Win32,60.12867537,55978,,,,,,,,,,,,,,,,,,,0.007407407,-0.20462963,1,0,0,6.6163,2,23,75,5,1,f,images/br_f.png,images/cb_f.png,,,,,,,,,,,,,,,,,,,,,,,,,
,,,,,,,2023-09-25_23h01.47.151,vbt_B2_day1,2022.2.4,Win32,60.12867537,55978,,,,,,,,,,,,,,,,,,,0.007407407,-0.20462963,1,0,0,2.3176,2,24,76,14,1,o,images/br_o.png,images/cb_o.png,,,,,,,,,,,,,,,,,,,,,,,,,
,,,,,,,2023-09-25_23h01.47.151,vbt_B2_day1,2022.2.4,Win32,60.12867537,55978,,,,,,,,,,,,,,,,,,,0.007407407,-0.20462963,1,0,0,0.7896,2,25,77,0,1,a,images/br_a.png,images/cb_a.png,,,,,,,,,,,,,,,,,,,,,,,,,
,,,,,,,2023-09-25_23h01.47.151,vbt_B2_day1,2022.2.4,Win32,60.12867537,55978,,,,,,,,,,,,,,,,,,,0.007407407,-0.20462963,1,0,0,0.5076,3,0,78,10,1,k,images/br_k.png,images/cb_k.png,,,,,,,,,,,,,,,,,,,,,,,,,
,,,,,,,2023-09-25_23h01.47.151,vbt_B2_day1,2022.2.4,Win32,60.12867537,55978,,,,,,,,,,,,,,,,,,,0.007407407,-0.20462963,1,0,0,0.0503,3,1,79,13,1,n,images/br_n.png,images/cb_n.png,,,,,,,,,,,,,,,,,,,,,,,,,
,,,,,,,2023-09-25_23h01.47.151,vbt_B2_day1,2022.2.4,Win32,60.12867537,55978,,,,,,,,,,,,,,,,,,,0.007407407,-0.20462963,1,0,0,3.7491,3,2,80,7,1,h,images/br_h.png,images/cb_h.png,,,,,,,,,,,,,,,,,,,,,,,,,
,,,,,,,2023-09-25_23h01.47.151,vbt_B2_day1,2022.2.4,Win32,60.12867537,55978,,,,,,,,,,,,,,,,,,,0.007407407,-0.20462963,1,0,0,0.8277,3,3,81,4,1,e,images/br_e.png,images/cb_e.png,,,,,,,,,,,,,,,,,,,,,,,,,
,,,,,,,2023-09-25_23h01.47.151,vbt_B2_day1,2022.2.4,Win32,60.12867537,55978,,,,,,,,,,,,,,,,,,,0.007407407,-0.20462963,1,0,0,0.8826,3,4,82,3,1,d,images/br_d.png,images/cb_d.png,,,,,,,,,,,,,,,,,,,,,,,,,
,,,,,,,2023-09-25_23h01.47.151,vbt_B2_day1,2022.2.4,Win32,60.12867537,55978,,,,,,,,,,,,,,,,,,,0.007407407,-0.20462963,1,0,0,7.7663,3,5,83,21,1,v,images/br_v.png,images/cb_v.png,,,,,,,,,,,,,,,,,,,,,,,,,
,,,,,,,2023-09-25_23h01.47.151,vbt_B2_day1,2022.2.4,Win32,60.12867537,55978,,,,,,,,,,,,,,,,,,,0.007407407,-0.20462963,1,0,0,1.3719,3,6,84,9,1,j,images/br_j.png,images/cb_j.png,,,,,,,,,,,,,,,,,,,,,,,,,
,,,,,,,2023-09-25_23h01.47.151,vbt_B2_day1,2022.2.4,Win32,60.12867537,55978,,,,,,,,,,,,,,,,,,,0.007407407,-0.20462963,1,0,0,1.7739,3,7,85,20,1,u,images/br_u.png,images/cb_u.png,,,,,,,,,,,,,,,,,,,,,,,,,
,,,,,,,2023-09-25_23h01.47.151,vbt_B2_day1,2022.2.4,Win32,60.12867537,55978,,,,,,,,,,,,,,,,,,,0.007407407,-0.20462963,1,0,0,0.4671,3,8,86,8,1,i,images/br_i.png,images/cb_i.png,,,,,,,,,,,,,,,,,,,,,,,,,
,,,,,,,2023-09-25_23h01.47.151,vbt_B2_day1,2022.2.4,Win32,60.12867537,55978,,,,,,,,,,,,,,,,,,,0.001851852,-0.216666667,1,0,0,2.5558,3,9,87,17,1,r,images/br_r.png,images/cb_r.png,,,,,,,,,,,,,,,,,,,,,,,,,
,,,,,,,2023-09-25_23h01.47.151,vbt_B2_day1,2022.2.4,Win32,60.12867537,55978,,,,,,,,,,,,,,,,,,,0.001851852,-0.216666667,1,0,0,0.5275,3,10,88,6,1,g,images/br_g.png,images/cb_g.png,,,,,,,,,,,,,,,,,,,,,,,,,
,,,,,,,2023-09-25_23h01.47.151,vbt_B2_day1,2022.2.4,Win32,60.12867537,55978,,,,,,,,,,,,,,,,,,,0.001851852,-0.216666667,1,0,0,0.6837,3,11,89,16,1,q,images/br_q.png,images/cb_q.png,,,,,,,,,,,,,,,,,,,,,,,,,
,,,,,,,2023-09-25_23h01.47.151,vbt_B2_day1,2022.2.4,Win32,60.12867537,55978,,,,,,,,,,,,,,,,,,,0.001851852,-0.216666667,1,0,0,2.8872,3,12,90,15,1,p,images/br_p.png,images/cb_p.png,,,,,,,,,,,,,,,,,,,,,,,,,
,,,,,,,2023-09-25_23h01.47.151,vbt_B2_day1,2022.2.4,Win32,60.12867537,55978,,,,,,,,,,,,,,,,,,,0.001851852,-0.216666667,1,0,0,109.1691,3,13,91,25,1,z,images/br_z.png,images/cb_z.png,,,,,,,,,,,,,,,,,,,,,,,,,
,,,,,,,2023-09-25_23h01.47.151,vbt_B2_day1,2022.2.4,Win32,60.12867537,55978,,,,,,,,,,,,,,,,,,,0.001851852,-0.216666667,1,0,0,1.283,3,14,92,19,1,t,images/br_t.png,images/cb_t.png,,,,,,,,,,,,,,,,,,,,,,,,,
,,,,,,,2023-09-25_23h01.47.151,vbt_B2_day1,2022.2.4,Win32,60.12867537,55978,,,,,,,,,,,,,,,,,,,0.001851852,-0.216666667,1,0,0,3.6835,3,15,93,22,1,w,images/br_w.png,images/cb_w.png,,,,,,,,,,,,,,,,,,,,,,,,,
,,,,,,,2023-09-25_23h01.47.151,vbt_B2_day1,2022.2.4,Win32,60.12867537,55978,,,,,,,,,,,,,,,,,,,0.001851852,-0.216666667,1,0,0,0.8,3,16,94,23,1,x,images/br_x.png,images/cb_x.png,,,,,,,,,,,,,,,,,,,,,,,,,
,,,,,,,2023-09-25_23h01.47.151,vbt_B2_day1,2022.2.4,Win32,60.12867537,55978,,,,,,,,,,,,,,,,,,,0.001851852,-0.216666667,1,0,0,0.866,3,17,95,2,1,c,images/br_c.png,images/cb_c.png,,,,,,,,,,,,,,,,,,,,,,,,,
,,,,,,,2023-09-25_23h01.47.151,vbt_B2_day1,2022.2.4,Win32,60.12867537,55978,,,,,,,,,,,,,,,,,,,0.001851852,-0.216666667,1,0,0,1.1666,3,18,96,18,1,s,images/br_s.png,images/cb_s.png,,,,,,,,,,,,,,,,,,,,,,,,,
,,,,,,,2023-09-25_23h01.47.151,vbt_B2_day1,2022.2.4,Win32,60.12867537,55978,,,,,,,,,,,,,,,,,,,0.001851852,-0.216666667,1,0,0,0.1509,3,19,97,11,1,l,images/br_l.png,images/cb_l.png,,,,,,,,,,,,,,,,,,,,,,,,,
,,,,,,,2023-09-25_23h01.47.151,vbt_B2_day1,2022.2.4,Win32,60.12867537,55978,,,,,,,,,,,,,,,,,,,0.001851852,-0.216666667,1,0,0,1.1503,3,20,98,1,1,b,images/br_b.png,images/cb_b.png,,,,,,,,,,,,,,,,,,,,,,,,,
,,,,,,,2023-09-25_23h01.47.151,vbt_B2_day1,2022.2.4,Win32,60.12867537,55978,,,,,,,,,,,,,,,,,,,0.001851852,-0.216666667,1,0,0,0.0236,3,21,99,0,1,a,images/br_a.png,images/cb_a.png,,,,,,,,,,,,,,,,,,,,,,,,,
,,,,,,,2023-09-25_23h01.47.151,vbt_B2_day1,2022.2.4,Win32,60.12867537,55978,,,,,,,,,,,,,,,,,,,0.001851852,-0.216666667,1,0,0,0.5005,3,22,100,12,1,m,images/br_m.png,images/cb_m.png,,,,,,,,,,,,,,,,,,,,,,,,,
,,,,,,,2023-09-25_23h01.47.151,vbt_B2_day1,2022.2.4,Win32,60.12867537,55978,,,,,,,,,,,,,,,,,,,0.001851852,-0.216666667,1,0,0,0.0329,3,23,101,24,1,y,images/br_y.png,images/cb_y.png,,,,,,,,,,,,,,,,,,,,,,,,,
,,,,,,,2023-09-25_23h01.47.151,vbt_B2_day1,2022.2.4,Win32,60.12867537,55978,,,,,,,,,,,,,,,,,,,0.001851852,-0.216666667,1,0,0,0.2002,3,24,102,14,1,o,images/br_o.png,images/cb_o.png,,,,,,,,,,,,,,,,,,,,,,,,,
,,,,,,,2023-09-25_23h01.47.151,vbt_B2_day1,2022.2.4,Win32,60.12867537,55978,,,,,,,,,,,,,,,,,,,0.001851852,-0.216666667,1,0,0,6.7495,3,25,103,5,1,f,images/br_f.png,images/cb_f.png,,,,,,,,,,,,,,,,,,,,,,,,,
,,,,,,,2023-09-25_23h01.47.151,vbt_B2_day1,2022.2.4,Win32,60.12867537,55978,,,,,,,,,,,,,,,,,,,0.001851852,-0.216666667,1,0,0,2.2394,4,0,104,9,1,j,images/br_j.png,images/cb_j.png,,,,,,,,,,,,,,,,,,,,,,,,,
,,,,,,,2023-09-25_23h01.47.151,vbt_B2_day1,2022.2.4,Win32,60.12867537,55978,,,,,,,,,,,,,,,,,,,0.001851852,-0.216666667,1,0,0,1.6503,4,1,105,25,1,z,images/br_z.png,images/cb_z.png,,,,,,,,,,,,,,,,,,,,,,,,,
,,,,,,,2023-09-25_23h01.47.151,vbt_B2_day1,2022.2.4,Win32,60.12867537,55978,,,,,,,,,,,,,,,,,,,0.001851852,-0.216666667,1,0,0,1.6504,4,2,106,20,1,u,images/br_u.png,images/cb_u.png,,,,,,,,,,,,,,,,,,,,,,,,,
,,,,,,,2023-09-25_23h01.47.151,vbt_B2_day1,2022.2.4,Win32,60.12867537,55978,,,,,,,,,,,,,,,,,,,0.001851852,-0.216666667,1,0,0,1.75,4,3,107,8,1,i,images/br_i.png,images/cb_i.png,,,,,,,,,,,,,,,,,,,,,,,,,
,,,,,,,2023-09-25_23h01.47.151,vbt_B2_day1,2022.2.4,Win32,60.12867537,55978,,,,,,,,,,,,,,,,,,,0.001851852,-0.216666667,1,0,0,1.4838,4,4,108,23,1,x,images/br_x.png,images/cb_x.png,,,,,,,,,,,,,,,,,,,,,,,,,
,,,,,,,2023-09-25_23h01.47.151,vbt_B2_day1,2022.2.4,Win32,60.12867537,55978,,,,,,,,,,,,,,,,,,,0.001851852,-0.216666667,1,0,0,3.3881,4,5,109,7,1,h,images/br_h.png,images/cb_h.png,,,,,,,,,,,,,,,,,,,,,,,,,
,,,,,,,2023-09-25_23h01.47.151,vbt_B2_day1,2022.2.4,Win32,60.12867537,55978,,,,,,,,,,,,,,,,,,,0.001851852,-0.216666667,1,0,0,2.0663,4,6,110,14,1,o,images/br_o.png,images/cb_o.png,,,,,,,,,,,,,,,,,,,,,,,,,
,,,,,,,2023-09-25_23h01.47.151,vbt_B2_day1,2022.2.4,Win32,60.12867537,55978,,,,,,,,,,,,,,,,,,,0.001851852,-0.216666667,1,0,0,0.1411,4,7,111,2,1,c,images/br_c.png,images/cb_c.png,,,,,,,,,,,,,,,,,,,,,,,,,
,,,,,,,2023-09-25_23h01.47.151,vbt_B2_day1,2022.2.4,Win32,60.12867537,55978,,,,,,,,,,,,,,,,,,,0.001851852,-0.216666667,1,0,0,0.4501,4,8,112,6,1,g,images/br_g.png,images/cb_g.png,,,,,,,,,,,,,,,,,,,,,,,,,
,,,,,,,2023-09-25_23h01.47.151,vbt_B2_day1,2022.2.4,Win32,60.12867537,55978,,,,,,,,,,,,,,,,,,,0.001851852,-0.216666667,1,0,0,0.15,4,9,113,5,1,f,images/br_f.png,images/cb_f.png,,,,,,,,,,,,,,,,,,,,,,,,,
,,,,,,,2023-09-25_23h01.47.151,vbt_B2_day1,2022.2.4,Win32,60.12867537,55978,,,,,,,,,,,,,,,,,,,0.001851852,-0.216666667,1,0,0,1.15,4,10,114,17,1,r,images/br_r.png,images/cb_r.png,,,,,,,,,,,,,,,,,,,,,,,,,
,,,,,,,2023-09-25_23h01.47.151,vbt_B2_day1,2022.2.4,Win32,60.12867537,55978,,,,,,,,,,,,,,,,,,,0.001851852,-0.216666667,1,0,0,1.0666,4,11,115,11,1,l,images/br_l.png,images/cb_l.png,,,,,,,,,,,,,,,,,,,,,,,,,
,,,,,,,2023-09-25_23h01.47.151,vbt_B2_day1,2022.2.4,Win32,60.12867537,55978,,,,,,,,,,,,,,,,,,,0.001851852,-0.216666667,1,0,0,1.6005,4,12,116,4,1,e,images/br_e.png,images/cb_e.png,,,,,,,,,,,,,,,,,,,,,,,,,
,,,,,,,2023-09-25_23h01.47.151,vbt_B2_day1,2022.2.4,Win32,60.12867537,55978,,,,,,,,,,,,,,,,,,,0.001851852,-0.216666667,1,0,0,2.9831,4,13,117,13,1,n,images/br_n.png,images/cb_n.png,,,,,,,,,,,,,,,,,,,,,,,,,
,,,,,,,2023-09-25_23h01.47.151,vbt_B2_day1,2022.2.4,Win32,60.12867537,55978,,,,,,,,,,,,,,,,,,,0.001851852,-0.216666667,1,0,0,0.3,4,14,118,1,1,b,images/br_b.png,images/cb_b.png,,,,,,,,,,,,,,,,,,,,,,,,,
,,,,,,,2023-09-25_23h01.47.151,vbt_B2_day1,2022.2.4,Win32,60.12867537,55978,,,,,,,,,,,,,,,,,,,0.001851852,-0.216666667,1,0,0,2.7165,4,15,119,3,1,d,images/br_d.png,images/cb_d.png,,,,,,,,,,,,,,,,,,,,,,,,,
,,,,,,,2023-09-25_23h01.47.151,vbt_B2_day1,2022.2.4,Win32,60.12867537,55978,,,,,,,,,,,,,,,,,,,0.001851852,-0.216666667,1,0,0,0.1002,4,16,120,12,1,m,images/br_m.png,images/cb_m.png,,,,,,,,,,,,,,,,,,,,,,,,,
,,,,,,,2023-09-25_23h01.47.151,vbt_B2_day1,2022.2.4,Win32,60.12867537,55978,,,,,,,,,,,,,,,,,,,0.001851852,-0.216666667,1,0,0,1.3167,4,17,121,15,1,p,images/br_p.png,images/cb_p.png,,,,,,,,,,,,,,,,,,,,,,,,,
,,,,,,,2023-09-25_23h01.47.151,vbt_B2_day1,2022.2.4,Win32,60.12867537,55978,,,,,,,,,,,,,,,,,,,0.001851852,-0.216666667,1,0,0,0.517,4,18,122,16,1,q,images/br_q.png,images/cb_q.png,,,,,,,,,,,,,,,,,,,,,,,,,
,,,,,,,2023-09-25_23h01.47.151,vbt_B2_day1,2022.2.4,Win32,60.12867537,55978,,,,,,,,,,,,,,,,,,,0.001851852,-0.216666667,1,0,0,0.0177,4,19,123,18,1,s,images/br_s.png,images/cb_s.png,,,,,,,,,,,,,,,,,,,,,,,,,
,,,,,,,2023-09-25_23h01.47.151,vbt_B2_day1,2022.2.4,Win32,60.12867537,55978,,,,,,,,,,,,,,,,,,,0.001851852,-0.216666667,1,0,0,2.7337,4,20,124,0,1,a,images/br_a.png,images/cb_a.png,,,,,,,,,,,,,,,,,,,,,,,,,
,,,,,,,2023-09-25_23h01.47.151,vbt_B2_day1,2022.2.4,Win32,60.12867537,55978,,,,,,,,,,,,,,,,,,,0.001851852,-0.216666667,1,0,0,2.2826,4,21,125,24,1,y,images/br_y.png,images/cb_y.png,,,,,,,,,,,,,,,,,,,,,,,,,
,,,,,,,2023-09-25_23h01.47.151,vbt_B2_day1,2022.2.4,Win32,60.12867537,55978,,,,,,,,,,,,,,,,,,,0.001851852,-0.216666667,1,0,0,0.4841,4,22,126,10,1,k,images/br_k.png,images/cb_k.png,,,,,,,,,,,,,,,,,,,,,,,,,
,,,,,,,2023-09-25_23h01.47.151,vbt_B2_day1,2022.2.4,Win32,60.12867537,55978,,,,,,,,,,,,,,,,,,,0.001851852,-0.216666667,1,0,0,0.5834,4,23,127,22,1,w,images/br_w.png,images/cb_w.png,,,,,,,,,,,,,,,,,,,,,,,,,
,,,,,,,2023-09-25_23h01.47.151,vbt_B2_day1,2022.2.4,Win32,60.12867537,55978,,,,,,,,,,,,,,,,,,,0.001851852,-0.216666667,1,0,0,0.7675,4,24,128,19,1,t,images/br_t.png,images/cb_t.png,,,,,,,,,,,,,,,,,,,,,,,,,
,,,,,,,2023-09-25_23h01.47.151,vbt_B2_day1,2022.2.4,Win32,60.12867537,55978,,,,,,,,,,,,,,,,,,,0.001851852,-0.216666667,1,0,0,0.5171,4,25,129,21,1,v,images/br_v.png,images/cb_v.png,,,,,,,,,,,,,,,,,,,,,,,,,
,,,,,,,2023-09-25_23h01.47.151,vbt_B2_day1,2022.2.4,Win32,60.12867537,55978,,,,,,,,,,,,,,,,,,,0.001851852,-0.216666667,1,0,0,0.7506,5,0,130,23,1,x,images/br_x.png,images/cb_x.png,,,,,,,,,,,,,,,,,,,,,,,,,
,,,,,,,2023-09-25_23h01.47.151,vbt_B2_day1,2022.2.4,Win32,60.12867537,55978,,,,,,,,,,,,,,,,,,,0.001851852,-0.216666667,1,0,0,1.4677,5,1,131,3,1,d,images/br_d.png,images/cb_d.png,,,,,,,,,,,,,,,,,,,,,,,,,
,,,,,,,2023-09-25_23h01.47.151,vbt_B2_day1,2022.2.4,Win32,60.12867537,55978,,,,,,,,,,,,,,,,,,,0.001851852,-0.216666667,1,0,0,0.1995,5,2,132,15,1,p,images/br_p.png,images/cb_p.png,,,,,,,,,,,,,,,,,,,,,,,,,
,,,,,,,2023-09-25_23h01.47.151,vbt_B2_day1,2022.2.4,Win32,60.12867537,55978,,,,,,,,,,,,,,,,,,,0.001851852,-0.216666667,1,0,0,2.851,5,3,133,16,1,q,images/br_q.png,images/cb_q.png,,,,,,,,,,,,,,,,,,,,,,,,,
,,,,,,,2023-09-25_23h01.47.151,vbt_B2_day1,2022.2.4,Win32,60.12867537,55978,,,,,,,,,,,,,,,,,,,0.001851852,-0.216666667,1,0,0,1.1499,5,4,134,14,1,o,images/br_o.png,images/cb_o.png,,,,,,,,,,,,,,,,,,,,,,,,,
,,,,,,,2023-09-25_23h01.47.151,vbt_B2_day1,2022.2.4,Win32,60.12867537,55978,,,,,,,,,,,,,,,,,,,0.001851852,-0.216666667,1,0,0,2.5679,5,5,135,24,1,y,images/br_y.png,images/cb_y.png,,,,,,,,,,,,,,,,,,,,,,,,,
,,,,,,,2023-09-25_23h01.47.151,vbt_B2_day1,2022.2.4,Win32,60.12867537,55978,,,,,,,,,,,,,,,,,,,0.001851852,-0.216666667,1,0,0,6.7323,5,6,136,22,1,w,images/br_w.png,images/cb_w.png,,,,,,,,,,,,,,,,,,,,,,,,,
,,,,,,,2023-09-25_23h01.47.151,vbt_B2_day1,2022.2.4,Win32,60.12867537,55978,,,,,,,,,,,,,,,,,,,0.001851852,-0.216666667,1,0,0,2.0329,5,7,137,6,1,g,images/br_g.png,images/cb_g.png,,,,,,,,,,,,,,,,,,,,,,,,,
,,,,,,,2023-09-25_23h01.47.151,vbt_B2_day1,2022.2.4,Win32,60.12867537,55978,,,,,,,,,,,,,,,,,,,0.001851852,-0.216666667,1,0,0,2.2998,5,8,138,11,1,l,images/br_l.png,images/cb_l.png,,,,,,,,,,,,,,,,,,,,,,,,,
,,,,,,,2023-09-25_23h01.47.151,vbt_B2_day1,2022.2.4,Win32,60.12867537,55978,,,,,,,,,,,,,,,,,,,0.001851852,-0.216666667,1,0,0,1.2835,5,9,139,10,1,k,images/br_k.png,images/cb_k.png,,,,,,,,,,,,,,,,,,,,,,,,,
,,,,,,,2023-09-25_23h01.47.151,vbt_B2_day1,2022.2.4,Win32,60.12867537,55978,,,,,,,,,,,,,,,,,,,0.001851852,-0.216666667,1,0,0,2.0002,5,10,140,2,1,c,images/br_c.png,images/cb_c.png,,,,,,,,,,,,,,,,,,,,,,,,,
,,,,,,,2023-09-25_23h01.47.151,vbt_B2_day1,2022.2.4,Win32,60.12867537,55978,,,,,,,,,,,,,,,,,,,0.001851852,-0.216666667,1,0,0,1.1841,5,11,141,7,1,h,images/br_h.png,images/cb_h.png,,,,,,,,,,,,,,,,,,,,,,,,,
,,,,,,,2023-09-25_23h01.47.151,vbt_B2_day1,2022.2.4,Win32,60.12867537,55978,,,,,,,,,,,,,,,,,,,0.001851852,-0.216666667,1,0,0,0.4329,5,12,142,4,1,e,images/br_e.png,images/cb_e.png,,,,,,,,,,,,,,,,,,,,,,,,,
,,,,,,,2023-09-25_23h01.47.151,vbt_B2_day1,2022.2.4,Win32,60.12867537,55978,,,,,,,,,,,,,,,,,,,0.001851852,-0.216666667,1,0,0,1.4332,5,13,143,19,1,t,images/br_t.png,images/cb_t.png,,,,,,,,,,,,,,,,,,,,,,,,,
,,,,,,,2023-09-25_23h01.47.151,vbt_B2_day1,2022.2.4,Win32,60.12867537,55978,,,,,,,,,,,,,,,,,,,0.001851852,-0.216666667,1,0,0,0.9674,5,14,144,13,1,n,images/br_n.png,images/cb_n.png,,,,,,,,,,,,,,,,,,,,,,,,,
,,,,,,,2023-09-25_23h01.47.151,vbt_B2_day1,2022.2.4,Win32,60.12867537,55978,,,,,,,,,,,,,,,,,,,0.001851852,-0.216666667,1,0,0,0.9011,5,15,145,20,1,u,images/br_u.png,images/cb_u.png,,,,,,,,,,,,,,,,,,,,,,,,,
,,,,,,,2023-09-25_23h01.47.151,vbt_B2_day1,2022.2.4,Win32,60.12867537,55978,,,,,,,,,,,,,,,,,,,0.001851852,-0.216666667,1,0,0,1.1996,5,16,146,21,1,v,images/br_v.png,images/cb_v.png,,,,,,,,,,,,,,,,,,,,,,,,,
,,,,,,,2023-09-25_23h01.47.151,vbt_B2_day1,2022.2.4,Win32,60.12867537,55978,,,,,,,,,,,,,,,,,,,0.001851852,-0.216666667,1,0,0,1.4838,5,17,147,12,1,m,images/br_m.png,images/cb_m.png,,,,,,,,,,,,,,,,,,,,,,,,,
,,,,,,,2023-09-25_23h01.47.151,vbt_B2_day1,2022.2.4,Win32,60.12867537,55978,,,,,,,,,,,,,,,,,,,0.001851852,-0.216666667,1,0,0,1.05,5,18,148,18,1,s,images/br_s.png,images/cb_s.png,,,,,,,,,,,,,,,,,,,,,,,,,
,,,,,,,2023-09-25_23h01.47.151,vbt_B2_day1,2022.2.4,Win32,60.12867537,55978,,,,,,,,,,,,,,,,,,,0.001851852,-0.216666667,1,0,0,2.9172,5,19,149,5,1,f,images/br_f.png,images/cb_f.png,,,,,,,,,,,,,,,,,,,,,,,,,
,,,,,,,2023-09-25_23h01.47.151,vbt_B2_day1,2022.2.4,Win32,60.12867537,55978,,,,,,,,,,,,,,,,,,,0.001851852,-0.216666667,1,0,0,1.8995,5,20,150,25,1,z,images/br_z.png,images/cb_z.png,,,,,,,,,,,,,,,,,,,,,,,,,
,,,,,,,2023-09-25_23h01.47.151,vbt_B2_day1,2022.2.4,Win32,60.12867537,55978,,,,,,,,,,,,,,,,,,,0.001851852,-0.216666667,1,0,0,0.5336,5,21,151,0,1,a,images/br_a.png,images/cb_a.png,,,,,,,,,,,,,,,,,,,,,,,,,
,,,,,,,2023-09-25_23h01.47.151,vbt_B2_day1,2022.2.4,Win32,60.12867537,55978,,,,,,,,,,,,,,,,,,,0.001851852,-0.216666667,1,0,0,1.7344,5,22,152,17,1,r,images/br_r.png,images/cb_r.png,,,,,,,,,,,,,,,,,,,,,,,,,
,,,,,,,2023-09-25_23h01.47.151,vbt_B2_day1,2022.2.4,Win32,60.12867537,55978,,,,,,,,,,,,,,,,,,,0.001851852,-0.216666667,1,0,0,0.0994,5,23,153,9,1,j,images/br_j.png,images/cb_j.png,,,,,,,,,,,,,,,,,,,,,,,,,
,,,,,,,2023-09-25_23h01.47.151,vbt_B2_day1,2022.2.4,Win32,60.12867537,55978,,,,,,,,,,,,,,,,,,,-0.000925926,-0.216666667,1,0,0,0.7506,5,24,154,8,1,i,images/br_i.png,images/cb_i.png,,,,,,,,,,,,,,,,,,,,,,,,,
,,,,,,,2023-09-25_23h01.47.151,vbt_B2_day1,2022.2.4,Win32,60.12867537,55978,,,,,,,,,,,,,,,,,,,-0.000925926,-0.216666667,1,0,0,0.6835,5,25,155,1,1,b,images/br_b.png,images/cb_b.png,,,,,,,,,,,,,,,,,,,,,,,,,
,,,,,,,2023-09-25_23h01.47.151,vbt_B2_day1,2022.2.4,Win32,60.12867537,55978,,,,,,,,,,,,,,,,,,,-0.000925926,-0.216666667,1,0,0,1.4,6,0,156,1,1,b,images/br_b.png,images/cb_b.png,,,,,,,,,,,,,,,,,,,,,,,,,
,,,,,,,2023-09-25_23h01.47.151,vbt_B2_day1,2022.2.4,Win32,60.12867537,55978,,,,,,,,,,,,,,,,,,,-0.000925926,-0.216666667,1,0,0,2.2664,6,1,157,7,1,h,images/br_h.png,images/cb_h.png,,,,,,,,,,,,,,,,,,,,,,,,,
,,,,,,,2023-09-25_23h01.47.151,vbt_B2_day1,2022.2.4,Win32,60.12867537,55978,,,,,,,,,,,,,,,,,,,-0.000925926,-0.216666667,1,0,0,20.7155,6,2,158,24,1,y,images/br_y.png,images/cb_y.png,,,,,,,,,,,,,,,,,,,,,,,,,
,,,,,,,2023-09-25_23h01.47.151,vbt_B2_day1,2022.2.4,Win32,60.12867537,55978,,,,,,,,,,,,,,,,,,,-0.000925926,-0.216666667,1,0,0,1.9844,6,3,159,23,1,x,images/br_x.png,images/cb_x.png,,,,,,,,,,,,,,,,,,,,,,,,,
,,,,,,,2023-09-25_23h01.47.151,vbt_B2_day1,2022.2.4,Win32,60.12867537,55978,,,,,,,,,,,,,,,,,,,-0.000925926,-0.216666667,1,0,0,1.6837,6,4,160,4,1,e,images/br_e.png,images/cb_e.png,,,,,,,,,,,,,,,,,,,,,,,,,
,,,,,,,2023-09-25_23h01.47.151,vbt_B2_day1,2022.2.4,Win32,60.12867537,55978,,,,,,,,,,,,,,,,,,,-0.000925926,-0.216666667,1,0,0,1.2003,6,5,161,15,1,p,images/br_p.png,images/cb_p.png,,,,,,,,,,,,,,,,,,,,,,,,,
,,,,,,,2023-09-25_23h01.47.151,vbt_B2_day1,2022.2.4,Win32,60.12867537,55978,,,,,,,,,,,,,,,,,,,-0.000925926,-0.216666667,1,0,0,0.2828,6,6,162,14,1,o,images/br_o.png,images/cb_o.png,,,,,,,,,,,,,,,,,,,,,,,,,
,,,,,,,2023-09-25_23h01.47.151,vbt_B2_day1,2022.2.4,Win32,60.12867537,55978,,,,,,,,,,,,,,,,,,,-0.000925926,-0.216666667,1,0,0,2.3161,6,7,163,12,1,m,images/br_m.png,images/cb_m.png,,,,,,,,,,,,,,,,,,,,,,,,,
,,,,,,,2023-09-25_23h01.47.151,vbt_B2_day1,2022.2.4,Win32,60.12867537,55978,,,,,,,,,,,,,,,,,,,-0.000925926,-0.216666667,1,0,0,0.4663,6,8,164,18,1,s,images/br_s.png,images/cb_s.png,,,,,,,,,,,,,,,,,,,,,,,,,
,,,,,,,2023-09-25_23h01.47.151,vbt_B2_day1,2022.2.4,Win32,60.12867537,55978,,,,,,,,,,,,,,,,,,,-0.000925926,-0.216666667,1,0,0,1.016,6,9,165,17,1,r,images/br_r.png,images/cb_r.png,,,,,,,,,,,,,,,,,,,,,,,,,
,,,,,,,2023-09-25_23h01.47.151,vbt_B2_day1,2022.2.4,Win32,60.12867537,55978,,,,,,,,,,,,,,,,,,,-0.000925926,-0.216666667,1,0,0,1.0176,6,10,166,2,1,c,images/br_c.png,images/cb_c.png,,,,,,,,,,,,,,,,,,,,,,,,,
,,,,,,,2023-09-25_23h01.47.151,vbt_B2_day1,2022.2.4,Win32,60.12867537,55978,,,,,,,,,,,,,,,,,,,-0.005555556,-0.234259259,1,0,0,0.6669,6,11,167,13,1,n,images/br_n.png,images/cb_n.png,,,,,,,,,,,,,,,,,,,,,,,,,
,,,,,,,2023-09-25_23h01.47.151,vbt_B2_day1,2022.2.4,Win32,60.12867537,55978,,,,,,,,,,,,,,,,,,,-0.005555556,-0.234259259,1,0,0,0.0675,6,12,168,21,1,v,images/br_v.png,images/cb_v.png,,,,,,,,,,,,,,,,,,,,,,,,,
,,,,,,,2023-09-25_23h01.47.151,vbt_B2_day1,2022.2.4,Win32,60.12867537,55978,,,,,,,,,,,,,,,,,,,-0.005555556,-0.234259259,1,0,0,0.6999,6,13,169,0,1,a,images/br_a.png,images/cb_a.png,,,,,,,,,,,,,,,,,,,,,,,,,
,,,,,,,2023-09-25_23h01.47.151,vbt_B2_day1,2022.2.4,Win32,60.12867537,55978,,,,,,,,,,,,,,,,,,,-0.005555556,-0.234259259,1,0,0,1.2833,6,14,170,6,1,g,images/br_g.png,images/cb_g.png,,,,,,,,,,,,,,,,,,,,,,,,,
,,,,,,,2023-09-25_23h01.47.151,vbt_B2_day1,2022.2.4,Win32,60.12867537,55978,,,,,,,,,,,,,,,,,,,-0.003703704,-0.234259259,1,0,0,2.95,6,15,171,10,1,k,images/br_k.png,images/cb_k.png,,,,,,,,,,,,,,,,,,,,,,,,,
,,,,,,,2023-09-25_23h01.47.151,vbt_B2_day1,2022.2.4,Win32,60.12867537,55978,,,,,,,,,,,,,,,,,,,-0.003703704,-0.234259259,1,0,0,1.1998,6,16,172,8,1,i,images/br_i.png,images/cb_i.png,,,,,,,,,,,,,,,,,,,,,,,,,
,,,,,,,2023-09-25_23h01.47.151,vbt_B2_day1,2022.2.4,Win32,60.12867537,55978,,,,,,,,,,,,,,,,,,,-0.003703704,-0.234259259,1,0,0,0.5833,6,17,173,25,1,z,images/br_z.png,images/cb_z.png,,,,,,,,,,,,,,,,,,,,,,,,,
,,,,,,,2023-09-25_23h01.47.151,vbt_B2_day1,2022.2.4,Win32,60.12867537,55978,,,,,,,,,,,,,,,,,,,-0.021296296,-0.155555556,1,0,0,4.7503,6,18,174,11,1,l,images/br_l.png,images/cb_l.png,,,,,,,,,,,,,,,,,,,,,,,,,
,,,,,,,2023-09-25_23h01.47.151,vbt_B2_day1,2022.2.4,Win32,60.12867537,55978,,,,,,,,,,,,,,,,,,,-0.021296296,-0.155555556,1,0,0,2.6166,6,19,175,20,1,u,images/br_u.png,images/cb_u.png,,,,,,,,,,,,,,,,,,,,,,,,,
,,,,,,,2023-09-25_23h01.47.151,vbt_B2_day1,2022.2.4,Win32,60.12867537,55978,,,,,,,,,,,,,,,,,,,-0.010185185,-0.208333333,1,0,0,1.1004,6,20,176,9,1,j,images/br_j.png,images/cb_j.png,,,,,,,,,,,,,,,,,,,,,,,,,
,,,,,,,2023-09-25_23h01.47.151,vbt_B2_day1,2022.2.4,Win32,60.12867537,55978,,,,,,,,,,,,,,,,,,,-0.010185185,-0.208333333,1,0,0,0.7164,6,21,177,16,1,q,images/br_q.png,images/cb_q.png,,,,,,,,,,,,,,,,,,,,,,,,,
,,,,,,,2023-09-25_23h01.47.151,vbt_B2_day1,2022.2.4,Win32,60.12867537,55978,,,,,,,,,,,,,,,,,,,-0.010185185,-0.208333333,1,0,0,0.4165,6,22,178,5,1,f,images/br_f.png,images/cb_f.png,,,,,,,,,,,,,,,,,,,,,,,,,
,,,,,,,2023-09-25_23h01.47.151,vbt_B2_day1,2022.2.4,Win32,60.12867537,55978,,,,,,,,,,,,,,,,,,,-0.010185185,-0.208333333,1,0,0,1.3,6,23,179,22,1,w,images/br_w.png,images/cb_w.png,,,,,,,,,,,,,,,,,,,,,,,,,
,,,,,,,2023-09-25_23h01.47.151,vbt_B2_day1,2022.2.4,Win32,60.12867537,55978,,,,,,,,,,,,,,,,,,,-0.010185185,-0.208333333,1,0,0,2.6665,6,24,180,3,1,d,images/br_d.png,images/cb_d.png,,,,,,,,,,,,,,,,,,,,,,,,,
,,,,,,,2023-09-25_23h01.47.151,vbt_B2_day1,2022.2.4,Win32,60.12867537,55978,,,,,,,,,,,,,,,,,,,-0.010185185,-0.208333333,1,0,0,0.2333,6,25,181,19,1,t,images/br_t.png,images/cb_t.png,,,,,,,,,,,,,,,,,,,,,,,,,
,,,,,,,2023-09-25_23h01.47.151,vbt_B2_day1,2022.2.4,Win32,60.12867537,55978,,,,,,,,,,,,,,,,,,,,,,,,,,,,,,,,,-0.365740741,-0.048148148,1,0,0,,,,,,,,,,,,,,,,,,,,
,,,,,,,2023-09-25_23h01.47.151,vbt_B2_day1,2022.2.4,Win32,60.12867537,55978,,,,,,,,,,,,,,,,,,,,,,,,,,,,,,,,,,,,,,-0.365740741,-0.048148148,1,0,0,,,,,,,,,,,,,,,
,,,,,,,2023-09-25_23h01.47.151,vbt_B2_day1,2022.2.4,Win32,60.12867537,55978,,,,,,,,,,,,,,,,,,,,,,,,,,,,,,,,,,,,,,,,,,,-0.161111111,-0.216666667,1,0,0,stuk,stuk,0,0,0,42,1,stuk,images/br_stuk.png,images/cb_stuk.png
,,,,,,,2023-09-25_23h01.47.151,vbt_B2_day1,2022.2.4,Win32,60.12867537,55978,,,,,,,,,,,,,,,,,,,,,,,,,,,,,,,,,,,,,,,,,,,-0.161111111,-0.216666667,1,0,0,s.a.....,s.a.....,0,1,1,37,1,spanzing,images/br_spanzing.png,images/cb_spanzing.png
,,,,,,,2023-09-25_23h01.47.151,vbt_B2_day1,2022.2.4,Win32,60.12867537,55978,,,,,,,,,,,,,,,,,,,,,,,,,,,,,,,,,,,,,,,,,,,-0.096296296,-0.183333333,1,0,0,dubbel,dubbel,0,2,2,9,1,dubbel,images/br_dubbel.png,images/cb_dubbel.png
,,,,,,,2023-09-25_23h01.47.151,vbt_B2_day1,2022.2.4,Win32,60.12867537,55978,,,,,,,,,,,,,,,,,,,,,,,,,,,,,,,,,,,,,,,,,,,-0.071296296,-0.263888889,1,0,0,slak,slak,0,3,3,0,1,slak,images/br_slak.png,images/cb_slak.png
,,,,,,,2023-09-25_23h01.47.151,vbt_B2_day1,2022.2.4,Win32,60.12867537,55978,,,,,,,,,,,,,,,,,,,,,,,,,,,,,,,,,,,,,,,,,,,-0.056481481,-0.274074074,1,0,0,jaar,jaar,0,4,4,2,1,jaar,images/br_jaar.png,images/cb_jaar.png
,,,,,,,2023-09-25_23h01.47.151,vbt_B2_day1,2022.2.4,Win32,60.12867537,55978,,,,,,,,,,,,,,,,,,,,,,,,,,,,,,,,,,,,,,,,,,,-0.052777778,-0.275,1,0,0,op.tt...,op.tt...,0,5,5,59,1,opvatten,images/br_opvatten.png,images/cb_opvatten.png
,,,,,,,2023-09-25_23h01.47.151,vbt_B2_day1,2022.2.4,Win32,60.12867537,55978,,,,,,,,,,,,,,,,,,,,,,,,,,,,,,,,,,,,,,,,,,,-0.04537037,-0.287037037,1,0,0,braejk,braejk,0,6,6,25,1,brijk,images/br_brijk.png,images/cb_brijk.png
,,,,,,,2023-09-25_23h01.47.151,vbt_B2_day1,2022.2.4,Win32,60.12867537,55978,,,,,,,,,,,,,,,,,,,,,,,,,,,,,,,,,,,,,,,,,,,-0.04537037,-0.287037037,1,0,0,stuikel,stuikel,0,7,7,35,1,stuikem,images/br_stuikem.png,images/cb_stuikem.png
,,,,,,,2023-09-25_23h01.47.151,vbt_B2_day1,2022.2.4,Win32,60.12867537,55978,,,,,,,,,,,,,,,,,,,,,,,,,,,,,,,,,,,,,,,,,,,-0.04537037,-0.287037037,1,0,0,booi,booi,0,8,8,23,1,booi,images/br_booi.png,images/cb_booi.png
,,,,,,,2023-09-25_23h01.47.151,vbt_B2_day1,2022.2.4,Win32,60.12867537,55978,,,,,,,,,,,,,,,,,,,,,,,,,,,,,,,,,,,,,,,,,,,0.008333333,-0.27962963,1,0,0,klimmen,klimmen,0,9,9,12,1,klimmen,images/br_klimmen.png,images/cb_klimmen.png
,,,,,,,2023-09-25_23h01.47.151,vbt_B2_day1,2022.2.4,Win32,60.12867537,55978,,,,,,,,,,,,,,,,,,,,,,,,,,,,,,,,,,,,,,,,,,,0.008333333,-0.27962963,1,0,0,klauw,klauw,0,10,10,7,1,klauw,images/br_klauw.png,images/cb_klauw.png
,,,,,,,2023-09-25_23h01.47.151,vbt_B2_day1,2022.2.4,Win32,60.12867537,55978,,,,,,,,,,,,,,,,,,,,,,,,,,,,,,,,,,,,,,,,,,,0.008333333,-0.27962963,0,0,1,rezer,rezer,0,11,11,24,1,rezer,images/br_rezer.png,images/cb_rezer.png
,,,,,,,2023-09-25_23h01.47.151,vbt_B2_day1,2022.2.4,Win32,60.12867537,55978,,,,,,,,,,,,,,,,,,,,,,,,,,,,,,,,,,,,,,,,,,,-0.041666667,-0.205555556,1,0,0,,,0,12,12,28,1,bebrip,images/br_bebrip.png,images/cb_bebrip.png
,,,,,,,2023-09-25_23h01.47.151,vbt_B2_day1,2022.2.4,Win32,60.12867537,55978,,,,,,,,,,,,,,,,,,,,,,,,,,,,,,,,,,,,,,,,,,,-0.042592593,-0.266666667,1,0,0,waar...,waar...,0,13,13,14,1,waarvan,images/br_waarvan.png,images/cb_waarvan.png
,,,,,,,2023-09-25_23h01.47.151,vbt_B2_day1,2022.2.4,Win32,60.12867537,55978,,,,,,,,,,,,,,,,,,,,,,,,,,,,,,,,,,,,,,,,,,,-0.092592593,-0.258333333,1,0,0,bleek,bleek,0,14,14,6,1,bleek,images/br_bleek.png,images/cb_bleek.png
,,,,,,,2023-09-25_23h01.47.151,vbt_B2_day1,2022.2.4,Win32,60.12867537,55978,,,,,,,,,,,,,,,,,,,,,,,,,,,,,,,,,,,,,,,,,,,-0.084259259,-0.281481481,1,0,0,schielen,schielen,0,15,15,38,1,schielen,images/br_schielen.png,images/cb_schielen.png
,,,,,,,2023-09-25_23h01.47.151,vbt_B2_day1,2022.2.4,Win32,60.12867537,55978,,,,,,,,,,,,,,,,,,,,,,,,,,,,,,,,,,,,,,,,,,,-0.075925926,-0.303703704,1,0,0,liefde,liefde,0,16,16,51,1,liefde,images/br_liefde.png,images/cb_liefde.png
,,,,,,,2023-09-25_23h01.47.151,vbt_B2_day1,2022.2.4,Win32,60.12867537,55978,,,,,,,,,,,,,,,,,,,,,,,,,,,,,,,,,,,,,,,,,,,-0.093518519,-0.267592593,1,0,0,muziek,muziek,0,17,17,10,1,muziek,images/br_muziek.png,images/cb_muziek.png
,,,,,,,2023-09-25_23h01.47.151,vbt_B2_day1,2022.2.4,Win32,60.12867537,55978,,,,,,,,,,,,,,,,,,,,,,,,,,,,,,,,,,,,,,,,,,,-0.065740741,-0.266666667,1,0,0,opslaan,opslaan,0,18,18,53,1,opslaan,images/br_opslaan.png,images/cb_opslaan.png
,,,,,,,2023-09-25_23h01.47.151,vbt_B2_day1,2022.2.4,Win32,60.12867537,55978,,,,,,,,,,,,,,,,,,,,,,,,,,,,,,,,,,,,,,,,,,,-0.086111111,-0.275925926,1,0,0,tekenen,tekenen,0,19,19,55,1,tekenen,images/br_tekenen.png,images/cb_tekenen.png
,,,,,,,2023-09-25_23h01.47.151,vbt_B2_day1,2022.2.4,Win32,60.12867537,55978,,,,,,,,,,,,,,,,,,,,,,,,,,,,,,,,,,,,,,,,,,,-0.036111111,-0.259259259,1,0,0,genoeg,genoeg,0,20,20,29,1,genond,images/br_genond.png,images/cb_genond.png
,,,,,,,2023-09-25_23h01.47.151,vbt_B2_day1,2022.2.4,Win32,60.12867537,55978,,,,,,,,,,,,,,,,,,,,,,,,,,,,,,,,,,,,,,,,,,,-0.006481481,-0.278703704,1,0,0,maken,maken,0,21,21,5,1,maken,images/br_maken.png,images/cb_maken.png
,,,,,,,2023-09-25_23h01.47.151,vbt_B2_day1,2022.2.4,Win32,60.12867537,55978,,,,,,,,,,,,,,,,,,,,,,,,,,,,,,,,,,,,,,,,,,,0.038888889,-0.249074074,1,0,0,lava,lava,0,22,22,43,1,lava,images/br_lava.png,images/cb_lava.png
,,,,,,,2023-09-25_23h01.47.151,vbt_B2_day1,2022.2.4,Win32,60.12867537,55978,,,,,,,,,,,,,,,,,,,,,,,,,,,,,,,,,,,,,,,,,,,-0.016666667,-0.287037037,1,0,0,dred,dred,0,23,23,21,1,dred,images/br_dred.png,images/cb_dred.png
,,,,,,,2023-09-25_23h01.47.151,vbt_B2_day1,2022.2.4,Win32,60.12867537,55978,,,,,,,,,,,,,,,,,,,,,,,,,,,,,,,,,,,,,,,,,,,-0.101851852,-0.258333333,1,0,0,vervaden,vervaden,0,24,24,36,1,vervaden,images/br_vervaden.png,images/cb_vervaden.png
,,,,,,,2023-09-25_23h01.47.151,vbt_B2_day1,2022.2.4,Win32,60.12867537,55978,,,,,,,,,,,,,,,,,,,,,,,,,,,,,,,,,,,,,,,,,,,-0.052777778,-0.260185185,1,0,0,tars,tars,0,25,25,20,1,tars,images/br_tars.png,images/cb_tars.png
,,,,,,,2023-09-25_23h01.47.151,vbt_B2_day1,2022.2.4,Win32,60.12867537,55978,,,,,,,,,,,,,,,,,,,,,,,,,,,,,,,,,,,,,,,,,,,0.00462963,-0.25462963,1,0,0,wieze,wieze,0,26,26,44,1,wijze,images/br_wijze.png,images/cb_wijze.png
,,,,,,,2023-09-25_23h01.47.151,vbt_B2_day1,2022.2.4,Win32,60.12867537,55978,,,,,,,,,,,,,,,,,,,,,,,,,,,,,,,,,,,,,,,,,,,0.026851852,-0.255555556,1,0,0,lezen,lezen,0,27,27,46,1,lezen,images/br_lezen.png,images/cb_lezen.png
,,,,,,,2023-09-25_23h01.47.151,vbt_B2_day1,2022.2.4,Win32,60.12867537,55978,,,,,,,,,,,,,,,,,,,,,,,,,,,,,,,,,,,,,,,,,,,-0.090740741,-0.248148148,1,0,0,schep,schep,0,28,28,4,1,schep,images/br_schep.png,images/cb_schep.png
,,,,,,,2023-09-25_23h01.47.151,vbt_B2_day1,2022.2.4,Win32,60.12867537,55978,,,,,,,,,,,,,,,,,,,,,,,,,,,,,,,,,,,,,,,,,,,-0.080555556,-0.247222222,1,0,0,loods,loods,0,29,29,47,1,loods,images/br_loods.png,images/cb_loods.png
,,,,,,,2023-09-25_23h01.47.151,vbt_B2_day1,2022.2.4,Win32,60.12867537,55978,,,,,,,,,,,,,,,,,,,,,,,,,,,,,,,,,,,,,,,,,,,0.02037037,-0.262962963,1,0,0,kanjer,kanjer,0,30,30,8,1,kanjer,images/br_kanjer.png,images/cb_kanjer.png
,,,,,,,2023-09-25_23h01.47.151,vbt_B2_day1,2022.2.4,Win32,60.12867537,55978,,,,,,,,,,,,,,,,,,,,,,,,,,,,,,,,,,,,,,,,,,,0.026851852,-0.249074074,1,0,0,uitdelen,uitdelen,0,31,31,18,1,uitdelen,images/br_uitdelen.png,images/cb_uitdelen.png
,,,,,,,2023-09-25_23h01.47.151,vbt_B2_day1,2022.2.4,Win32,60.12867537,55978,,,,,,,,,,,,,,,,,,,,,,,,,,,,,,,,,,,,,,,,,,,0.017592593,-0.243518519,1,0,0,zuiplap,zuiplap,0,32,32,52,1,zuiplap,images/br_zuiplap.png,images/cb_zuiplap.png
,,,,,,,2023-09-25_23h01.47.151,vbt_B2_day1,2022.2.4,Win32,60.12867537,55978,,,,,,,,,,,,,,,,,,,,,,,,,,,,,,,,,,,,,,,,,,,-0.008333333,-0.266666667,1,0,0,voorreur,voorreur,0,33,33,39,1,voorreur,images/br_voorreur.png,images/cb_voorreur.png
,,,,,,,2023-09-25_23h01.47.151,vbt_B2_day1,2022.2.4,Win32,60.12867537,55978,,,,,,,,,,,,,,,,,,,,,,,,,,,,,,,,,,,,,,,,,,,-0.035185185,-0.262037037,1,0,0,opplaan,opplaan,0,34,34,32,1,opplaan,images/br_opplaan.png,images/cb_opplaan.png
,,,,,,,2023-09-25_23h01.47.151,vbt_B2_day1,2022.2.4,Win32,60.12867537,55978,,,,,,,,,,,,,,,,,,,,,,,,,,,,,,,,,,,,,,,,,,,-0.021296296,-0.211111111,1,0,0,mening,mening,0,35,35,11,1,mening,images/br_mening.png,images/cb_mening.png
,,,,,,,2023-09-25_23h01.47.151,vbt_B2_day1,2022.2.4,Win32,60.12867537,55978,,,,,,,,,,,,,,,,,,,,,,,,,,,,,,,,,,,,,,,,,,,-0.025925926,-0.25,1,0,0,flullen,flullen,0,36,36,33,1,flullen,images/br_flullen.png,images/cb_flullen.png
,,,,,,,2023-09-25_23h01.47.151,vbt_B2_day1,2022.2.4,Win32,60.12867537,55978,,,,,,,,,,,,,,,,,,,,,,,,,,,,,,,,,,,,,,,,,,,-0.012037037,-0.25,1,0,0,liegen,liegen,0,37,37,50,1,liegen,images/br_liegen.png,images/cb_liegen.png
,,,,,,,2023-09-25_23h01.47.151,vbt_B2_day1,2022.2.4,Win32,60.12867537,55978,,,,,,,,,,,,,,,,,,,,,,,,,,,,,,,,,,,,,,,,,,,-0.016666667,-0.272222222,1,0,0,daarheen,daarheen,0,38,38,16,1,daarheen,images/br_daarheen.png,images/cb_daarheen.png
,,,,,,,2023-09-25_23h01.47.151,vbt_B2_day1,2022.2.4,Win32,60.12867537,55978,,,,,,,,,,,,,,,,,,,,,,,,,,,,,,,,,,,,,,,,,,,-0.053703704,-0.275925926,1,0,0,attentie,attentie,0,39,39,17,1,attentie,images/br_attentie.png,images/cb_attentie.png
,,,,,,,2023-09-25_23h01.47.151,vbt_B2_day1,2022.2.4,Win32,60.12867537,55978,,,,,,,,,,,,,,,,,,,,,,,,,,,,,,,,,,,,,,,,,,,0.015740741,-0.249074074,1,0,0,mand,mand,0,40,40,3,1,mand,images/br_mand.png,images/cb_mand.png
,,,,,,,2023-09-25_23h01.47.151,vbt_B2_day1,2022.2.4,Win32,60.12867537,55978,,,,,,,,,,,,,,,,,,,,,,,,,,,,,,,,,,,,,,,,,,,-0.012962963,-0.237962963,1,0,0,lochten,lochten,0,41,41,34,1,lochten,images/br_lochten.png,images/cb_lochten.png
,,,,,,,2023-09-25_23h01.47.151,vbt_B2_day1,2022.2.4,Win32,60.12867537,55978,,,,,,,,,,,,,,,,,,,,,,,,,,,,,,,,,,,,,,,,,,,-0.017592593,-0.276851852,1,0,0,fitie,fitie,0,42,42,48,1,fictie,images/br_fictie.png,images/cb_fictie.png
,,,,,,,2023-09-25_23h01.47.151,vbt_B2_day1,2022.2.4,Win32,60.12867537,55978,,,,,,,,,,,,,,,,,,,,,,,,,,,,,,,,,,,,,,,,,,,0.006481481,-0.258333333,1,0,0,hoog,hoog,0,43,43,41,1,hoog,images/br_hoog.png,images/cb_hoog.png
,,,,,,,2023-09-25_23h01.47.151,vbt_B2_day1,2022.2.4,Win32,60.12867537,55978,,,,,,,,,,,,,,,,,,,,,,,,,,,,,,,,,,,,,,,,,,,0.006481481,-0.258333333,1,0,0,toezicht,toezicht,0,44,44,56,1,toezicht,images/br_toezicht.png,images/cb_toezicht.png
,,,,,,,2023-09-25_23h01.47.151,vbt_B2_day1,2022.2.4,Win32,60.12867537,55978,,,,,,,,,,,,,,,,,,,,,,,,,,,,,,,,,,,,,,,,,,,0.005555556,-0.237962963,1,0,0,twiedel,twiedel,0,45,45,13,1,twijfel,images/br_twijfel.png,images/cb_twijfel.png
,,,,,,,2023-09-25_23h01.47.151,vbt_B2_day1,2022.2.4,Win32,60.12867537,55978,,,,,,,,,,,,,,,,,,,,,,,,,,,,,,,,,,,,,,,,,,,0.005555556,-0.237962963,1,0,0,valop,valop,0,46,46,26,1,valop,images/br_valop.png,images/cb_valop.png
,,,,,,,2023-09-25_23h01.47.151,vbt_B2_day1,2022.2.4,Win32,60.12867537,55978,,,,,,,,,,,,,,,,,,,,,,,,,,,,,,,,,,,,,,,,,,,0.012962963,-0.241666667,1,0,0,voorkeur,voorkeur,0,47,47,58,1,voorkeur,images/br_voorkeur.png,images/cb_voorkeur.png
,,,,,,,2023-09-25_23h01.47.151,vbt_B2_day1,2022.2.4,Win32,60.12867537,55978,,,,,,,,,,,,,,,,,,,,,,,,,,,,,,,,,,,,,,,,,,,0.012962963,-0.241666667,1,0,0,dief,dief,0,48,48,40,1,dief,images/br_dief.png,images/cb_dief.png
,,,,,,,2023-09-25_23h01.47.151,vbt_B2_day1,2022.2.4,Win32,60.12867537,55978,,,,,,,,,,,,,,,,,,,,,,,,,,,,,,,,,,,,,,,,,,,-0.084259259,-0.284259259,1,0,0,meenemen,meenemen,0,49,49,57,1,meenemen,images/br_meenemen.png,images/cb_meenemen.png
,,,,,,,2023-09-25_23h01.47.151,vbt_B2_day1,2022.2.4,Win32,60.12867537,55978,,,,,,,,,,,,,,,,,,,,,,,,,,,,,,,,,,,,,,,,,,,0.021296296,-0.249074074,1,0,0,hemel,hemel,0,50,50,45,1,hemel,images/br_hemel.png,images/cb_hemel.png
,,,,,,,2023-09-25_23h01.47.151,vbt_B2_day1,2022.2.4,Win32,60.12867537,55978,,,,,,,,,,,,,,,,,,,,,,,,,,,,,,,,,,,,,,,,,,,0.037962963,-0.264814815,1,0,0,prort,prort,0,51,51,27,1,prort,images/br_prort.png,images/cb_prort.png
,,,,,,,2023-09-25_23h01.47.151,vbt_B2_day1,2022.2.4,Win32,60.12867537,55978,,,,,,,,,,,,,,,,,,,,,,,,,,,,,,,,,,,,,,,,,,,0.048148148,-0.246296296,1,0,0,hiervan,hiervan,0,52,52,15,1,hiervan,images/br_hiervan.png,images/cb_hiervan.png
,,,,,,,2023-09-25_23h01.47.151,vbt_B2_day1,2022.2.4,Win32,60.12867537,55978,,,,,,,,,,,,,,,,,,,,,,,,,,,,,,,,,,,,,,,,,,,0.035185185,-0.233333333,1,0,0,knoe,knoe,0,53,53,22,1,knoe,images/br_knoe.png,images/cb_knoe.png
,,,,,,,2023-09-25_23h01.47.151,vbt_B2_day1,2022.2.4,Win32,60.12867537,55978,,,,,,,,,,,,,,,,,,,,,,,,,,,,,,,,,,,,,,,,,,,0.017592593,-0.228703704,1,0,0,stamen,stamen,0,54,54,31,1,stamen,images/br_stamen.png,images/cb_stamen.png
,,,,,,,2023-09-25_23h01.47.151,vbt_B2_day1,2022.2.4,Win32,60.12867537,55978,,,,,,,,,,,,,,,,,,,,,,,,,,,,,,,,,,,,,,,,,,,-0.016666667,-0.253703704,1,0,0,vizier,vizier,0,55,55,49,1,vizier,images/br_vizier.png,images/cb_vizier.png
,,,,,,,2023-09-25_23h01.47.151,vbt_B2_day1,2022.2.4,Win32,60.12867537,55978,,,,,,,,,,,,,,,,,,,,,,,,,,,,,,,,,,,,,,,,,,,-0.002777778,-0.207407407,1,0,0,vijten,vijten,0,56,56,54,1,vijftig,images/br_vijftig.png,images/cb_vijftig.png
,,,,,,,2023-09-25_23h01.47.151,vbt_B2_day1,2022.2.4,Win32,60.12867537,55978,,,,,,,,,,,,,,,,,,,,,,,,,,,,,,,,,,,,,,,,,,,-0.000925926,-0.251851852,1,0,0,schuilen,schuilen,0,57,57,19,1,schuilen,images/br_schuilen.png,images/cb_schuilen.png
,,,,,,,2023-09-25_23h01.47.151,vbt_B2_day1,2022.2.4,Win32,60.12867537,55978,,,,,,,,,,,,,,,,,,,,,,,,,,,,,,,,,,,,,,,,,,,-0.252777778,-0.112962963,1,0,0,zaal,zaal,0,58,58,1,1,zaal,images/br_zaal.png,images/cb_zaal.png
,,,,,,,2023-09-25_23h01.47.151,vbt_B2_day1,2022.2.4,Win32,60.12867537,55978,,,,,,,,,,,,,,,,,,,,,,,,,,,,,,,,,,,,,,,,,,,-0.115740741,-0.286111111,1,0,0,reedje,reedje,0,59,59,30,1,reedje,images/br_reedje.png,images/cb_reedje.png
,,,,,,,2023-09-25_23h01.47.151,vbt_B2_day1,2022.2.4,Win32,60.12867537,55978,,,,,,,,,,,,,,,,,,,,,,,,,,,,,,,,,,,,,,,,,,,,,,,,,,,,,,,,,
