welcome_mouse.x,welcome_mouse.y,welcome_mouse.leftButton,welcome_mouse.midButton,welcome_mouse.rightButton,welcome_mouse.time,"ID",date,expName,psychopyVersion,OS,frameRate,mouse_2.x,mouse_2.y,mouse_2.leftButton,mouse_2.midButton,mouse_2.rightButton,mouse_2.time,mouse_3.x,mouse_3.y,mouse_3.leftButton,mouse_3.midButton,mouse_3.rightButton,mouse_3.time,train_mouse.x,train_mouse.y,train_mouse.leftButton,train_mouse.midButton,train_mouse.rightButton,train_mouse.time,braille_mouse.x,braille_mouse.y,braille_mouse.leftButton,braille_mouse.midButton,braille_mouse.rightButton,braille_mouse.time,trials.thisRepN,trials.thisTrialN,trials.thisN,trials.thisIndex,trials.ran,nlLet,brLet,cbLet,mouse.x,mouse.y,mouse.leftButton,mouse.midButton,mouse.rightButton,testInstr_mouse.x,testInstr_mouse.y,testInstr_mouse.leftButton,testInstr_mouse.midButton,testInstr_mouse.rightButton,test_mouse.x,test_mouse.y,test_mouse.leftButton,test_mouse.midButton,test_mouse.rightButton,test_response.text,testResp,test_loop.thisRepN,test_loop.thisTrialN,test_loop.thisN,test_loop.thisIndex,test_loop.ran,nlWrd,brWrd,cbWrd
-0.141375868,-0.049644097,1,0,0,20.4916,00047,2023-10-17_20h20.59.292,vbt_B2_day1,2022.2.4,MacIntel,59.99880002,,,,,,,,,,,,,,,,,,,,,,,,,,,,,,,,,,,,,,,,,,,,,,,,,,,,,,,,,
,,,,,,00047,2023-10-17_20h20.59.292,vbt_B2_day1,2022.2.4,MacIntel,59.99880002,-0.187747396,0.190564236,1,0,0,22.8123,,,,,,,,,,,,,,,,,,,,,,,,,,,,,,,,,,,,,,,,,,,,,,,,,,,
,,,,,,00047,2023-10-17_20h20.59.292,vbt_B2_day1,2022.2.4,MacIntel,59.99880002,,,,,,,-0.188081597,0.094071181,1,0,0,40.2015,,,,,,,,,,,,,,,,,,,,,,,,,,,,,,,,,,,,,,,,,,,,,
,,,,,,00047,2023-10-17_20h20.59.292,vbt_B2_day1,2022.2.4,MacIntel,59.99880002,,,,,,,,,,,,,-0.150798611,0.133025174,1,0,0,27.7943,,,,,,,,,,,,,,,,,,,,,,,,,,,,,,,,,,,,,,,
,,,,,,00047,2023-10-17_20h20.59.292,vbt_B2_day1,2022.2.4,MacIntel,59.99880002,,,,,,,,,,,,,,,,,,,-0.037482639,-0.206727431,1,0,0,29.601,0,0,0,10,1,k,images/br_k.png,images/cb_k.png,,,,,,,,,,,,,,,,,,,,,,,,,
,,,,,,00047,2023-10-17_20h20.59.292,vbt_B2_day1,2022.2.4,MacIntel,59.99880002,,,,,,,,,,,,,,,,,,,-0.127261285,-0.127686632,1,0,0,24.6676,0,1,1,24,1,y,images/br_y.png,images/cb_y.png,,,,,,,,,,,,,,,,,,,,,,,,,
,,,,,,00047,2023-10-17_20h20.59.292,vbt_B2_day1,2022.2.4,MacIntel,59.99880002,,,,,,,,,,,,,,,,,,,-0.133550347,-0.049778646,1,0,0,17.3168,0,2,2,3,1,d,images/br_d.png,images/cb_d.png,,,,,,,,,,,,,,,,,,,,,,,,,
,,,,,,00047,2023-10-17_20h20.59.292,vbt_B2_day1,2022.2.4,MacIntel,59.99880002,,,,,,,,,,,,,,,,,,,-0.145794271,-0.089978299,1,0,0,15.8826,0,3,3,14,1,o,images/br_o.png,images/cb_o.png,,,,,,,,,,,,,,,,,,,,,,,,,
,,,,,,00047,2023-10-17_20h20.59.292,vbt_B2_day1,2022.2.4,MacIntel,59.99880002,,,,,,,,,,,,,,,,,,,-0.128576389,-0.073528646,1,0,0,16.3342,0,4,4,18,1,s,images/br_s.png,images/cb_s.png,,,,,,,,,,,,,,,,,,,,,,,,,
,,,,,,00047,2023-10-17_20h20.59.292,vbt_B2_day1,2022.2.4,MacIntel,59.99880002,,,,,,,,,,,,,,,,,,,-0.164822049,-0.03328559,1,0,0,23.6335,0,5,5,12,1,m,images/br_m.png,images/cb_m.png,,,,,,,,,,,,,,,,,,,,,,,,,
,,,,,,00047,2023-10-17_20h20.59.292,vbt_B2_day1,2022.2.4,MacIntel,59.99880002,,,,,,,,,,,,,,,,,,,-0.120759549,-0.066627604,1,0,0,7.8975,0,6,6,11,1,l,images/br_l.png,images/cb_l.png,,,,,,,,,,,,,,,,,,,,,,,,,
,,,,,,00047,2023-10-17_20h20.59.292,vbt_B2_day1,2022.2.4,MacIntel,59.99880002,,,,,,,,,,,,,,,,,,,-0.136506076,-0.083563368,1,0,0,15.7493,0,7,7,8,1,i,images/br_i.png,images/cb_i.png,,,,,,,,,,,,,,,,,,,,,,,,,
,,,,,,00047,2023-10-17_20h20.59.292,vbt_B2_day1,2022.2.4,MacIntel,59.99880002,,,,,,,,,,,,,,,,,,,-0.140755208,-0.095993924,1,0,0,10.2374,0,8,8,21,1,v,images/br_v.png,images/cb_v.png,,,,,,,,,,,,,,,,,,,,,,,,,
,,,,,,00047,2023-10-17_20h20.59.292,vbt_B2_day1,2022.2.4,MacIntel,59.99880002,,,,,,,,,,,,,,,,,,,-0.108268229,-0.125455729,1,0,0,22.0169,0,9,9,25,1,z,images/br_z.png,images/cb_z.png,,,,,,,,,,,,,,,,,,,,,,,,,
,,,,,,00047,2023-10-17_20h20.59.292,vbt_B2_day1,2022.2.4,MacIntel,59.99880002,,,,,,,,,,,,,,,,,,,-0.122382812,-0.119926215,1,0,0,19.717,0,10,10,22,1,w,images/br_w.png,images/cb_w.png,,,,,,,,,,,,,,,,,,,,,,,,,
,,,,,,00047,2023-10-17_20h20.59.292,vbt_B2_day1,2022.2.4,MacIntel,59.99880002,,,,,,,,,,,,,,,,,,,-0.116627604,-0.121657986,1,0,0,8.116,0,11,11,17,1,r,images/br_r.png,images/cb_r.png,,,,,,,,,,,,,,,,,,,,,,,,,
,,,,,,00047,2023-10-17_20h20.59.292,vbt_B2_day1,2022.2.4,MacIntel,59.99880002,,,,,,,,,,,,,,,,,,,-0.11890625,-0.117178819,1,0,0,13.2312,0,12,12,20,1,u,images/br_u.png,images/cb_u.png,,,,,,,,,,,,,,,,,,,,,,,,,
,,,,,,00047,2023-10-17_20h20.59.292,vbt_B2_day1,2022.2.4,MacIntel,59.99880002,,,,,,,,,,,,,,,,,,,-0.118654514,-0.117178819,1,0,0,5.035,0,13,13,23,1,x,images/br_x.png,images/cb_x.png,,,,,,,,,,,,,,,,,,,,,,,,,
,,,,,,00047,2023-10-17_20h20.59.292,vbt_B2_day1,2022.2.4,MacIntel,59.99880002,,,,,,,,,,,,,,,,,,,-0.122100694,-0.101276042,1,0,0,20.6142,0,14,14,5,1,f,images/br_f.png,images/cb_f.png,,,,,,,,,,,,,,,,,,,,,,,,,
,,,,,,00047,2023-10-17_20h20.59.292,vbt_B2_day1,2022.2.4,MacIntel,59.99880002,,,,,,,,,,,,,,,,,,,-0.128103299,-0.084578993,1,0,0,5.6011,0,15,15,2,1,c,images/br_c.png,images/cb_c.png,,,,,,,,,,,,,,,,,,,,,,,,,
,,,,,,00047,2023-10-17_20h20.59.292,vbt_B2_day1,2022.2.4,MacIntel,59.99880002,,,,,,,,,,,,,,,,,,,-0.128103299,-0.094435764,1,0,0,7.018,0,16,16,15,1,p,images/br_p.png,images/cb_p.png,,,,,,,,,,,,,,,,,,,,,,,,,
,,,,,,00047,2023-10-17_20h20.59.292,vbt_B2_day1,2022.2.4,MacIntel,59.99880002,,,,,,,,,,,,,,,,,,,-0.128103299,-0.0946875,1,0,0,13.9833,0,17,17,13,1,n,images/br_n.png,images/cb_n.png,,,,,,,,,,,,,,,,,,,,,,,,,
,,,,,,00047,2023-10-17_20h20.59.292,vbt_B2_day1,2022.2.4,MacIntel,59.99880002,,,,,,,,,,,,,,,,,,,-0.138789063,-0.088897569,1,0,0,11.5166,0,18,18,1,1,b,images/br_b.png,images/cb_b.png,,,,,,,,,,,,,,,,,,,,,,,,,
,,,,,,00047,2023-10-17_20h20.59.292,vbt_B2_day1,2022.2.4,MacIntel,59.99880002,,,,,,,,,,,,,,,,,,,-0.116788194,-0.037361111,1,0,0,20.2531,0,19,19,6,1,g,images/br_g.png,images/cb_g.png,,,,,,,,,,,,,,,,,,,,,,,,,
,,,,,,00047,2023-10-17_20h20.59.292,vbt_B2_day1,2022.2.4,MacIntel,59.99880002,,,,,,,,,,,,,,,,,,,-0.125438368,-0.100238715,1,0,0,38.1344,0,20,20,9,1,j,images/br_j.png,images/cb_j.png,,,,,,,,,,,,,,,,,,,,,,,,,
,,,,,,00047,2023-10-17_20h20.59.292,vbt_B2_day1,2022.2.4,MacIntel,59.99880002,,,,,,,,,,,,,,,,,,,-0.13109375,-0.023090278,1,0,0,2.2661,0,21,21,0,1,a,images/br_a.png,images/cb_a.png,,,,,,,,,,,,,,,,,,,,,,,,,
,,,,,,00047,2023-10-17_20h20.59.292,vbt_B2_day1,2022.2.4,MacIntel,59.99880002,,,,,,,,,,,,,,,,,,,-0.125477431,-0.053819444,1,0,0,80.9345,0,22,22,4,1,e,images/br_e.png,images/cb_e.png,,,,,,,,,,,,,,,,,,,,,,,,,
,,,,,,00047,2023-10-17_20h20.59.292,vbt_B2_day1,2022.2.4,MacIntel,59.99880002,,,,,,,,,,,,,,,,,,,-0.15733941,-0.070998264,1,0,0,8.5675,0,23,23,16,1,q,images/br_q.png,images/cb_q.png,,,,,,,,,,,,,,,,,,,,,,,,,
,,,,,,00047,2023-10-17_20h20.59.292,vbt_B2_day1,2022.2.4,MacIntel,59.99880002,,,,,,,,,,,,,,,,,,,0.103133681,-0.145377604,1,0,0,15.516,0,24,24,19,1,t,images/br_t.png,images/cb_t.png,,,,,,,,,,,,,,,,,,,,,,,,,
,,,,,,00047,2023-10-17_20h20.59.292,vbt_B2_day1,2022.2.4,MacIntel,59.99880002,,,,,,,,,,,,,,,,,,,0.142083333,-0.117439236,1,0,0,5.6334,0,25,25,7,1,h,images/br_h.png,images/cb_h.png,,,,,,,,,,,,,,,,,,,,,,,,,
,,,,,,00047,2023-10-17_20h20.59.292,vbt_B2_day1,2022.2.4,MacIntel,59.99880002,,,,,,,,,,,,,,,,,,,0.084427083,-0.160690104,1,0,0,2.1818,1,0,26,7,1,h,images/br_h.png,images/cb_h.png,,,,,,,,,,,,,,,,,,,,,,,,,
,,,,,,00047,2023-10-17_20h20.59.292,vbt_B2_day1,2022.2.4,MacIntel,59.99880002,,,,,,,,,,,,,,,,,,,0.084427083,-0.161731771,1,0,0,1.2667,1,1,27,15,1,p,images/br_p.png,images/cb_p.png,,,,,,,,,,,,,,,,,,,,,,,,,
,,,,,,00047,2023-10-17_20h20.59.292,vbt_B2_day1,2022.2.4,MacIntel,59.99880002,,,,,,,,,,,,,,,,,,,0.086319444,-0.165021701,1,0,0,0.9484,1,2,28,5,1,f,images/br_f.png,images/cb_f.png,,,,,,,,,,,,,,,,,,,,,,,,,
,,,,,,00047,2023-10-17_20h20.59.292,vbt_B2_day1,2022.2.4,MacIntel,59.99880002,,,,,,,,,,,,,,,,,,,0.086319444,-0.165021701,1,0,0,0.347,1,3,29,23,1,x,images/br_x.png,images/cb_x.png,,,,,,,,,,,,,,,,,,,,,,,,,
,,,,,,00047,2023-10-17_20h20.59.292,vbt_B2_day1,2022.2.4,MacIntel,59.99880002,,,,,,,,,,,,,,,,,,,0.086319444,-0.165021701,1,0,0,5.6144,1,4,30,22,1,w,images/br_w.png,images/cb_w.png,,,,,,,,,,,,,,,,,,,,,,,,,
,,,,,,00047,2023-10-17_20h20.59.292,vbt_B2_day1,2022.2.4,MacIntel,59.99880002,,,,,,,,,,,,,,,,,,,0.089665799,-0.154296875,1,0,0,15.7667,1,5,31,21,1,v,images/br_v.png,images/cb_v.png,,,,,,,,,,,,,,,,,,,,,,,,,
,,,,,,00047,2023-10-17_20h20.59.292,vbt_B2_day1,2022.2.4,MacIntel,59.99880002,,,,,,,,,,,,,,,,,,,0.090677083,-0.172469618,1,0,0,3.8801,1,6,32,8,1,i,images/br_i.png,images/cb_i.png,,,,,,,,,,,,,,,,,,,,,,,,,
,,,,,,00047,2023-10-17_20h20.59.292,vbt_B2_day1,2022.2.4,MacIntel,59.99880002,,,,,,,,,,,,,,,,,,,0.092361111,-0.184375,1,0,0,10.2141,1,7,33,9,1,j,images/br_j.png,images/cb_j.png,,,,,,,,,,,,,,,,,,,,,,,,,
,,,,,,00047,2023-10-17_20h20.59.292,vbt_B2_day1,2022.2.4,MacIntel,59.99880002,,,,,,,,,,,,,,,,,,,0.102005208,-0.25671875,1,0,0,1.7163,1,8,34,17,1,r,images/br_r.png,images/cb_r.png,,,,,,,,,,,,,,,,,,,,,,,,,
,,,,,,00047,2023-10-17_20h20.59.292,vbt_B2_day1,2022.2.4,MacIntel,59.99880002,,,,,,,,,,,,,,,,,,,0.154344618,-0.1334375,1,0,0,3.4334,1,9,35,1,1,b,images/br_b.png,images/cb_b.png,,,,,,,,,,,,,,,,,,,,,,,,,
,,,,,,00047,2023-10-17_20h20.59.292,vbt_B2_day1,2022.2.4,MacIntel,59.99880002,,,,,,,,,,,,,,,,,,,0.14562066,-0.132291667,1,0,0,10.001,1,10,36,13,1,n,images/br_n.png,images/cb_n.png,,,,,,,,,,,,,,,,,,,,,,,,,
,,,,,,00047,2023-10-17_20h20.59.292,vbt_B2_day1,2022.2.4,MacIntel,59.99880002,,,,,,,,,,,,,,,,,,,0.14562066,-0.132291667,1,0,0,0.1497,1,11,37,18,1,s,images/br_s.png,images/cb_s.png,,,,,,,,,,,,,,,,,,,,,,,,,
,,,,,,00047,2023-10-17_20h20.59.292,vbt_B2_day1,2022.2.4,MacIntel,59.99880002,,,,,,,,,,,,,,,,,,,0.14562066,-0.132291667,1,0,0,2.5997,1,12,38,19,1,t,images/br_t.png,images/cb_t.png,,,,,,,,,,,,,,,,,,,,,,,,,
,,,,,,00047,2023-10-17_20h20.59.292,vbt_B2_day1,2022.2.4,MacIntel,59.99880002,,,,,,,,,,,,,,,,,,,0.140295139,-0.156671007,1,0,0,0.8342,1,13,39,2,1,c,images/br_c.png,images/cb_c.png,,,,,,,,,,,,,,,,,,,,,,,,,
,,,,,,00047,2023-10-17_20h20.59.292,vbt_B2_day1,2022.2.4,MacIntel,59.99880002,,,,,,,,,,,,,,,,,,,0.141167535,-0.14327691,1,0,0,0.6487,1,14,40,12,1,m,images/br_m.png,images/cb_m.png,,,,,,,,,,,,,,,,,,,,,,,,,
,,,,,,00047,2023-10-17_20h20.59.292,vbt_B2_day1,2022.2.4,MacIntel,59.99880002,,,,,,,,,,,,,,,,,,,0.150668403,-0.146987847,1,0,0,2.1674,1,15,41,3,1,d,images/br_d.png,images/cb_d.png,,,,,,,,,,,,,,,,,,,,,,,,,
,,,,,,00047,2023-10-17_20h20.59.292,vbt_B2_day1,2022.2.4,MacIntel,59.99880002,,,,,,,,,,,,,,,,,,,0.114618056,-0.159895833,1,0,0,12.2837,1,16,42,20,1,u,images/br_u.png,images/cb_u.png,,,,,,,,,,,,,,,,,,,,,,,,,
,,,,,,00047,2023-10-17_20h20.59.292,vbt_B2_day1,2022.2.4,MacIntel,59.99880002,,,,,,,,,,,,,,,,,,,0.197374132,-0.163515625,1,0,0,1.1654,1,17,43,4,1,e,images/br_e.png,images/cb_e.png,,,,,,,,,,,,,,,,,,,,,,,,,
,,,,,,00047,2023-10-17_20h20.59.292,vbt_B2_day1,2022.2.4,MacIntel,59.99880002,,,,,,,,,,,,,,,,,,,0.197374132,-0.163515625,1,0,0,0.2533,1,18,44,14,1,o,images/br_o.png,images/cb_o.png,,,,,,,,,,,,,,,,,,,,,,,,,
,,,,,,00047,2023-10-17_20h20.59.292,vbt_B2_day1,2022.2.4,MacIntel,59.99880002,,,,,,,,,,,,,,,,,,,0.188307292,-0.164448785,1,0,0,5.7171,1,19,45,0,1,a,images/br_a.png,images/cb_a.png,,,,,,,,,,,,,,,,,,,,,,,,,
,,,,,,00047,2023-10-17_20h20.59.292,vbt_B2_day1,2022.2.4,MacIntel,59.99880002,,,,,,,,,,,,,,,,,,,0.168138021,-0.160950521,1,0,0,8.7495,1,20,46,16,1,q,images/br_q.png,images/cb_q.png,,,,,,,,,,,,,,,,,,,,,,,,,
,,,,,,00047,2023-10-17_20h20.59.292,vbt_B2_day1,2022.2.4,MacIntel,59.99880002,,,,,,,,,,,,,,,,,,,0.185407986,-0.136940104,1,0,0,2.5655,1,21,47,24,1,y,images/br_y.png,images/cb_y.png,,,,,,,,,,,,,,,,,,,,,,,,,
,,,,,,00047,2023-10-17_20h20.59.292,vbt_B2_day1,2022.2.4,MacIntel,59.99880002,,,,,,,,,,,,,,,,,,,0.219405382,-0.13031684,1,0,0,0.4006,1,22,48,11,1,l,images/br_l.png,images/cb_l.png,,,,,,,,,,,,,,,,,,,,,,,,,
,,,,,,00047,2023-10-17_20h20.59.292,vbt_B2_day1,2022.2.4,MacIntel,59.99880002,,,,,,,,,,,,,,,,,,,0.225251736,-0.0553125,1,0,0,7.7817,1,23,49,25,1,z,images/br_z.png,images/cb_z.png,,,,,,,,,,,,,,,,,,,,,,,,,
,,,,,,00047,2023-10-17_20h20.59.292,vbt_B2_day1,2022.2.4,MacIntel,59.99880002,,,,,,,,,,,,,,,,,,,0.195889757,-0.121067708,1,0,0,8.1327,1,24,50,6,1,g,images/br_g.png,images/cb_g.png,,,,,,,,,,,,,,,,,,,,,,,,,
,,,,,,00047,2023-10-17_20h20.59.292,vbt_B2_day1,2022.2.4,MacIntel,59.99880002,,,,,,,,,,,,,,,,,,,0.187938368,-0.121671007,1,0,0,4.082,1,25,51,10,1,k,images/br_k.png,images/cb_k.png,,,,,,,,,,,,,,,,,,,,,,,,,
,,,,,,00047,2023-10-17_20h20.59.292,vbt_B2_day1,2022.2.4,MacIntel,59.99880002,,,,,,,,,,,,,,,,,,,0.196375868,-0.09062066,1,0,0,22.2981,2,0,52,13,1,n,images/br_n.png,images/cb_n.png,,,,,,,,,,,,,,,,,,,,,,,,,
,,,,,,00047,2023-10-17_20h20.59.292,vbt_B2_day1,2022.2.4,MacIntel,59.99880002,,,,,,,,,,,,,,,,,,,0.194852431,-0.098914931,1,0,0,1.4011,2,1,53,19,1,t,images/br_t.png,images/cb_t.png,,,,,,,,,,,,,,,,,,,,,,,,,
,,,,,,00047,2023-10-17_20h20.59.292,vbt_B2_day1,2022.2.4,MacIntel,59.99880002,,,,,,,,,,,,,,,,,,,0.169487847,-0.10594184,1,0,0,6.8842,2,2,54,24,1,y,images/br_y.png,images/cb_y.png,,,,,,,,,,,,,,,,,,,,,,,,,
,,,,,,00047,2023-10-17_20h20.59.292,vbt_B2_day1,2022.2.4,MacIntel,59.99880002,,,,,,,,,,,,,,,,,,,0.180585937,-0.106662326,1,0,0,11.7015,2,3,55,1,1,b,images/br_b.png,images/cb_b.png,,,,,,,,,,,,,,,,,,,,,,,,,
,,,,,,00047,2023-10-17_20h20.59.292,vbt_B2_day1,2022.2.4,MacIntel,59.99880002,,,,,,,,,,,,,,,,,,,0.090729167,-0.230290799,1,0,0,1.5496,2,4,56,10,1,k,images/br_k.png,images/cb_k.png,,,,,,,,,,,,,,,,,,,,,,,,,
,,,,,,00047,2023-10-17_20h20.59.292,vbt_B2_day1,2022.2.4,MacIntel,59.99880002,,,,,,,,,,,,,,,,,,,0.164114583,-0.164492187,1,0,0,29.6009,2,5,57,25,1,z,images/br_z.png,images/cb_z.png,,,,,,,,,,,,,,,,,,,,,,,,,
,,,,,,00047,2023-10-17_20h20.59.292,vbt_B2_day1,2022.2.4,MacIntel,59.99880002,,,,,,,,,,,,,,,,,,,0.165368924,-0.130924479,1,0,0,21.6674,2,6,58,7,1,h,images/br_h.png,images/cb_h.png,,,,,,,,,,,,,,,,,,,,,,,,,
,,,,,,00047,2023-10-17_20h20.59.292,vbt_B2_day1,2022.2.4,MacIntel,59.99880002,,,,,,,,,,,,,,,,,,,0.155985243,-0.20937934,1,0,0,2.2142,2,7,59,8,1,i,images/br_i.png,images/cb_i.png,,,,,,,,,,,,,,,,,,,,,,,,,
,,,,,,00047,2023-10-17_20h20.59.292,vbt_B2_day1,2022.2.4,MacIntel,59.99880002,,,,,,,,,,,,,,,,,,,0.098003472,-0.142235243,1,0,0,0.8806,2,8,60,4,1,e,images/br_e.png,images/cb_e.png,,,,,,,,,,,,,,,,,,,,,,,,,
,,,,,,00047,2023-10-17_20h20.59.292,vbt_B2_day1,2022.2.4,MacIntel,59.99880002,,,,,,,,,,,,,,,,,,,0.073602431,-0.161493056,1,0,0,1.2522,2,9,61,14,1,o,images/br_o.png,images/cb_o.png,,,,,,,,,,,,,,,,,,,,,,,,,
,,,,,,00047,2023-10-17_20h20.59.292,vbt_B2_day1,2022.2.4,MacIntel,59.99880002,,,,,,,,,,,,,,,,,,,0.089574653,-0.172786458,1,0,0,0.3832,2,10,62,20,1,u,images/br_u.png,images/cb_u.png,,,,,,,,,,,,,,,,,,,,,,,,,
,,,,,,00047,2023-10-17_20h20.59.292,vbt_B2_day1,2022.2.4,MacIntel,59.99880002,,,,,,,,,,,,,,,,,,,0.078736979,-0.172786458,1,0,0,3.484,2,11,63,5,1,f,images/br_f.png,images/cb_f.png,,,,,,,,,,,,,,,,,,,,,,,,,
,,,,,,00047,2023-10-17_20h20.59.292,vbt_B2_day1,2022.2.4,MacIntel,59.99880002,,,,,,,,,,,,,,,,,,,0.094713542,-0.232408854,1,0,0,0.3486,2,12,64,2,1,c,images/br_c.png,images/cb_c.png,,,,,,,,,,,,,,,,,,,,,,,,,
,,,,,,00047,2023-10-17_20h20.59.292,vbt_B2_day1,2022.2.4,MacIntel,59.99880002,,,,,,,,,,,,,,,,,,,0.101319444,-0.178993056,1,0,0,1.2836,2,13,65,16,1,q,images/br_q.png,images/cb_q.png,,,,,,,,,,,,,,,,,,,,,,,,,
,,,,,,00047,2023-10-17_20h20.59.292,vbt_B2_day1,2022.2.4,MacIntel,59.99880002,,,,,,,,,,,,,,,,,,,0.099921875,-0.20250434,1,0,0,0.6838,2,14,66,18,1,s,images/br_s.png,images/cb_s.png,,,,,,,,,,,,,,,,,,,,,,,,,
,,,,,,00047,2023-10-17_20h20.59.292,vbt_B2_day1,2022.2.4,MacIntel,59.99880002,,,,,,,,,,,,,,,,,,,0.076805556,-0.155872396,1,0,0,0.2178,2,15,67,23,1,x,images/br_x.png,images/cb_x.png,,,,,,,,,,,,,,,,,,,,,,,,,
,,,,,,00047,2023-10-17_20h20.59.292,vbt_B2_day1,2022.2.4,MacIntel,59.99880002,,,,,,,,,,,,,,,,,,,0.098328993,-0.187708333,1,0,0,20.9509,2,16,68,21,1,v,images/br_v.png,images/cb_v.png,,,,,,,,,,,,,,,,,,,,,,,,,
,,,,,,00047,2023-10-17_20h20.59.292,vbt_B2_day1,2022.2.4,MacIntel,59.99880002,,,,,,,,,,,,,,,,,,,0.072413194,-0.181059028,1,0,0,2.2002,2,17,69,12,1,m,images/br_m.png,images/cb_m.png,,,,,,,,,,,,,,,,,,,,,,,,,
,,,,,,00047,2023-10-17_20h20.59.292,vbt_B2_day1,2022.2.4,MacIntel,59.99880002,,,,,,,,,,,,,,,,,,,0.096388889,-0.148467882,1,0,0,0.2338,2,18,70,11,1,l,images/br_l.png,images/cb_l.png,,,,,,,,,,,,,,,,,,,,,,,,,
,,,,,,00047,2023-10-17_20h20.59.292,vbt_B2_day1,2022.2.4,MacIntel,59.99880002,,,,,,,,,,,,,,,,,,,0.082096354,-0.148203125,1,0,0,0.1985,2,19,71,3,1,d,images/br_d.png,images/cb_d.png,,,,,,,,,,,,,,,,,,,,,,,,,
,,,,,,00047,2023-10-17_20h20.59.292,vbt_B2_day1,2022.2.4,MacIntel,59.99880002,,,,,,,,,,,,,,,,,,,0.118953993,-0.165681424,1,0,0,11.1654,2,20,72,15,1,p,images/br_p.png,images/cb_p.png,,,,,,,,,,,,,,,,,,,,,,,,,
,,,,,,00047,2023-10-17_20h20.59.292,vbt_B2_day1,2022.2.4,MacIntel,59.99880002,,,,,,,,,,,,,,,,,,,0.105494792,-0.157721354,1,0,0,0.1833,2,21,73,0,1,a,images/br_a.png,images/cb_a.png,,,,,,,,,,,,,,,,,,,,,,,,,
,,,,,,00047,2023-10-17_20h20.59.292,vbt_B2_day1,2022.2.4,MacIntel,59.99880002,,,,,,,,,,,,,,,,,,,0.10187066,-0.159166667,1,0,0,0.9292,2,22,74,6,1,g,images/br_g.png,images/cb_g.png,,,,,,,,,,,,,,,,,,,,,,,,,
,,,,,,00047,2023-10-17_20h20.59.292,vbt_B2_day1,2022.2.4,MacIntel,59.99880002,,,,,,,,,,,,,,,,,,,0.160125868,-0.142200521,1,0,0,0.9139,2,23,75,22,1,w,images/br_w.png,images/cb_w.png,,,,,,,,,,,,,,,,,,,,,,,,,
,,,,,,00047,2023-10-17_20h20.59.292,vbt_B2_day1,2022.2.4,MacIntel,59.99880002,,,,,,,,,,,,,,,,,,,0.095850694,-0.147734375,1,0,0,1.4993,2,24,76,17,1,r,images/br_r.png,images/cb_r.png,,,,,,,,,,,,,,,,,,,,,,,,,
,,,,,,00047,2023-10-17_20h20.59.292,vbt_B2_day1,2022.2.4,MacIntel,59.99880002,,,,,,,,,,,,,,,,,,,0.100585938,-0.117078993,1,0,0,4.5502,2,25,77,9,1,j,images/br_j.png,images/cb_j.png,,,,,,,,,,,,,,,,,,,,,,,,,
,,,,,,00047,2023-10-17_20h20.59.292,vbt_B2_day1,2022.2.4,MacIntel,59.99880002,,,,,,,,,,,,,,,,,,,0.150581597,-0.096927083,1,0,0,0.033,3,0,78,11,1,l,images/br_l.png,images/cb_l.png,,,,,,,,,,,,,,,,,,,,,,,,,
,,,,,,00047,2023-10-17_20h20.59.292,vbt_B2_day1,2022.2.4,MacIntel,59.99880002,,,,,,,,,,,,,,,,,,,0.171527778,-0.090256076,1,0,0,0.3166,3,1,79,3,1,d,images/br_d.png,images/cb_d.png,,,,,,,,,,,,,,,,,,,,,,,,,
,,,,,,00047,2023-10-17_20h20.59.292,vbt_B2_day1,2022.2.4,MacIntel,59.99880002,,,,,,,,,,,,,,,,,,,0.140026042,-0.141844618,1,0,0,2.4842,3,2,80,12,1,m,images/br_m.png,images/cb_m.png,,,,,,,,,,,,,,,,,,,,,,,,,
,,,,,,00047,2023-10-17_20h20.59.292,vbt_B2_day1,2022.2.4,MacIntel,59.99880002,,,,,,,,,,,,,,,,,,,0.126987847,-0.12296875,1,0,0,0.5987,3,3,81,23,1,x,images/br_x.png,images/cb_x.png,,,,,,,,,,,,,,,,,,,,,,,,,
,,,,,,00047,2023-10-17_20h20.59.292,vbt_B2_day1,2022.2.4,MacIntel,59.99880002,,,,,,,,,,,,,,,,,,,0.137434896,-0.154904514,1,0,0,1.282,3,4,82,6,1,g,images/br_g.png,images/cb_g.png,,,,,,,,,,,,,,,,,,,,,,,,,
,,,,,,00047,2023-10-17_20h20.59.292,vbt_B2_day1,2022.2.4,MacIntel,59.99880002,,,,,,,,,,,,,,,,,,,0.151102431,-0.141019965,1,0,0,0.4033,3,5,83,2,1,c,images/br_c.png,images/cb_c.png,,,,,,,,,,,,,,,,,,,,,,,,,
,,,,,,00047,2023-10-17_20h20.59.292,vbt_B2_day1,2022.2.4,MacIntel,59.99880002,,,,,,,,,,,,,,,,,,,0.181497396,-0.138272569,1,0,0,1.1977,3,6,84,21,1,v,images/br_v.png,images/cb_v.png,,,,,,,,,,,,,,,,,,,,,,,,,
,,,,,,00047,2023-10-17_20h20.59.292,vbt_B2_day1,2022.2.4,MacIntel,59.99880002,,,,,,,,,,,,,,,,,,,0.203546007,-0.12296441,1,0,0,0.7998,3,7,85,24,1,y,images/br_y.png,images/cb_y.png,,,,,,,,,,,,,,,,,,,,,,,,,
,,,,,,00047,2023-10-17_20h20.59.292,vbt_B2_day1,2022.2.4,MacIntel,59.99880002,,,,,,,,,,,,,,,,,,,0.166644965,-0.131644965,1,0,0,0.2645,3,8,86,5,1,f,images/br_f.png,images/cb_f.png,,,,,,,,,,,,,,,,,,,,,,,,,
,,,,,,00047,2023-10-17_20h20.59.292,vbt_B2_day1,2022.2.4,MacIntel,59.99880002,,,,,,,,,,,,,,,,,,,0.155073785,-0.146397569,1,0,0,0.4666,3,9,87,22,1,w,images/br_w.png,images/cb_w.png,,,,,,,,,,,,,,,,,,,,,,,,,
,,,,,,00047,2023-10-17_20h20.59.292,vbt_B2_day1,2022.2.4,MacIntel,59.99880002,,,,,,,,,,,,,,,,,,,0.162282986,-0.175273437,1,0,0,1.6151,3,10,88,25,1,z,images/br_z.png,images/cb_z.png,,,,,,,,,,,,,,,,,,,,,,,,,
,,,,,,00047,2023-10-17_20h20.59.292,vbt_B2_day1,2022.2.4,MacIntel,59.99880002,,,,,,,,,,,,,,,,,,,0.159822049,-0.085195312,1,0,0,21.7662,3,11,89,7,1,h,images/br_h.png,images/cb_h.png,,,,,,,,,,,,,,,,,,,,,,,,,
,,,,,,00047,2023-10-17_20h20.59.292,vbt_B2_day1,2022.2.4,MacIntel,59.99880002,,,,,,,,,,,,,,,,,,,0.15655816,-0.062860243,1,0,0,2.0344,3,12,90,10,1,k,images/br_k.png,images/cb_k.png,,,,,,,,,,,,,,,,,,,,,,,,,
,,,,,,00047,2023-10-17_20h20.59.292,vbt_B2_day1,2022.2.4,MacIntel,59.99880002,,,,,,,,,,,,,,,,,,,0.161744792,-0.123676215,1,0,0,0.4167,3,13,91,4,1,e,images/br_e.png,images/cb_e.png,,,,,,,,,,,,,,,,,,,,,,,,,
,,,,,,00047,2023-10-17_20h20.59.292,vbt_B2_day1,2022.2.4,MacIntel,59.99880002,,,,,,,,,,,,,,,,,,,0.175421007,-0.15640625,1,0,0,0.166,3,14,92,0,1,a,images/br_a.png,images/cb_a.png,,,,,,,,,,,,,,,,,,,,,,,,,
,,,,,,00047,2023-10-17_20h20.59.292,vbt_B2_day1,2022.2.4,MacIntel,59.99880002,,,,,,,,,,,,,,,,,,,0.110763889,-0.105759549,1,0,0,24.9156,3,15,93,1,1,b,images/br_b.png,images/cb_b.png,,,,,,,,,,,,,,,,,,,,,,,,,
,,,,,,00047,2023-10-17_20h20.59.292,vbt_B2_day1,2022.2.4,MacIntel,59.99880002,,,,,,,,,,,,,,,,,,,0.080802951,-0.177777778,1,0,0,0.5333,3,16,94,18,1,s,images/br_s.png,images/cb_s.png,,,,,,,,,,,,,,,,,,,,,,,,,
,,,,,,00047,2023-10-17_20h20.59.292,vbt_B2_day1,2022.2.4,MacIntel,59.99880002,,,,,,,,,,,,,,,,,,,0.074631076,-0.202751736,1,0,0,0.5304,3,17,95,8,1,i,images/br_i.png,images/cb_i.png,,,,,,,,,,,,,,,,,,,,,,,,,
,,,,,,00047,2023-10-17_20h20.59.292,vbt_B2_day1,2022.2.4,MacIntel,59.99880002,,,,,,,,,,,,,,,,,,,0.072695312,-0.191662326,1,0,0,0.0819,3,18,96,19,1,t,images/br_t.png,images/cb_t.png,,,,,,,,,,,,,,,,,,,,,,,,,
,,,,,,00047,2023-10-17_20h20.59.292,vbt_B2_day1,2022.2.4,MacIntel,59.99880002,,,,,,,,,,,,,,,,,,,0.114809028,-0.186315104,1,0,0,32.7326,3,19,97,9,1,j,images/br_j.png,images/cb_j.png,,,,,,,,,,,,,,,,,,,,,,,,,
,,,,,,00047,2023-10-17_20h20.59.292,vbt_B2_day1,2022.2.4,MacIntel,59.99880002,,,,,,,,,,,,,,,,,,,0.067552083,-0.209292535,1,0,0,13.7027,3,20,98,16,1,q,images/br_q.png,images/cb_q.png,,,,,,,,,,,,,,,,,,,,,,,,,
,,,,,,00047,2023-10-17_20h20.59.292,vbt_B2_day1,2022.2.4,MacIntel,59.99880002,,,,,,,,,,,,,,,,,,,0.127764757,-0.12218316,1,0,0,2.3331,3,21,99,13,1,n,images/br_n.png,images/cb_n.png,,,,,,,,,,,,,,,,,,,,,,,,,
,,,,,,00047,2023-10-17_20h20.59.292,vbt_B2_day1,2022.2.4,MacIntel,59.99880002,,,,,,,,,,,,,,,,,,,0.095086806,-0.147239583,1,0,0,0.2503,3,22,100,17,1,r,images/br_r.png,images/cb_r.png,,,,,,,,,,,,,,,,,,,,,,,,,
,,,,,,00047,2023-10-17_20h20.59.292,vbt_B2_day1,2022.2.4,MacIntel,59.99880002,,,,,,,,,,,,,,,,,,,0.068841146,-0.120507813,1,0,0,0.297,3,23,101,20,1,u,images/br_u.png,images/cb_u.png,,,,,,,,,,,,,,,,,,,,,,,,,
,,,,,,00047,2023-10-17_20h20.59.292,vbt_B2_day1,2022.2.4,MacIntel,59.99880002,,,,,,,,,,,,,,,,,,,0.094032118,-0.107282986,1,0,0,3.7307,3,24,102,15,1,p,images/br_p.png,images/cb_p.png,,,,,,,,,,,,,,,,,,,,,,,,,
,,,,,,00047,2023-10-17_20h20.59.292,vbt_B2_day1,2022.2.4,MacIntel,59.99880002,,,,,,,,,,,,,,,,,,,0.085425347,-0.133428819,1,0,0,0.3997,3,25,103,14,1,o,images/br_o.png,images/cb_o.png,,,,,,,,,,,,,,,,,,,,,,,,,
,,,,,,00047,2023-10-17_20h20.59.292,vbt_B2_day1,2022.2.4,MacIntel,59.99880002,,,,,,,,,,,,,,,,,,,0.048815104,-0.155225694,1,0,0,0.0166,4,0,104,3,1,d,images/br_d.png,images/cb_d.png,,,,,,,,,,,,,,,,,,,,,,,,,
,,,,,,00047,2023-10-17_20h20.59.292,vbt_B2_day1,2022.2.4,MacIntel,59.99880002,,,,,,,,,,,,,,,,,,,0.058398437,-0.155529514,1,0,0,3.3496,4,1,105,13,1,n,images/br_n.png,images/cb_n.png,,,,,,,,,,,,,,,,,,,,,,,,,
,,,,,,00047,2023-10-17_20h20.59.292,vbt_B2_day1,2022.2.4,MacIntel,59.99880002,,,,,,,,,,,,,,,,,,,0.064934896,-0.125264757,1,0,0,3.6503,4,2,106,9,1,j,images/br_j.png,images/cb_j.png,,,,,,,,,,,,,,,,,,,,,,,,,
,,,,,,00047,2023-10-17_20h20.59.292,vbt_B2_day1,2022.2.4,MacIntel,59.99880002,,,,,,,,,,,,,,,,,,,0.004835069,-0.161050347,1,0,0,0.6978,4,3,107,2,1,c,images/br_c.png,images/cb_c.png,,,,,,,,,,,,,,,,,,,,,,,,,
,,,,,,00047,2023-10-17_20h20.59.292,vbt_B2_day1,2022.2.4,MacIntel,59.99880002,,,,,,,,,,,,,,,,,,,0.040768229,-0.138689236,1,0,0,0.0497,4,4,108,19,1,t,images/br_t.png,images/cb_t.png,,,,,,,,,,,,,,,,,,,,,,,,,
,,,,,,00047,2023-10-17_20h20.59.292,vbt_B2_day1,2022.2.4,MacIntel,59.99880002,,,,,,,,,,,,,,,,,,,0.040273438,-0.142877604,1,0,0,0.2361,4,5,109,22,1,w,images/br_w.png,images/cb_w.png,,,,,,,,,,,,,,,,,,,,,,,,,
,,,,,,00047,2023-10-17_20h20.59.292,vbt_B2_day1,2022.2.4,MacIntel,59.99880002,,,,,,,,,,,,,,,,,,,0.059427083,-0.179496528,1,0,0,0.6826,4,6,110,10,1,k,images/br_k.png,images/cb_k.png,,,,,,,,,,,,,,,,,,,,,,,,,
,,,,,,00047,2023-10-17_20h20.59.292,vbt_B2_day1,2022.2.4,MacIntel,59.99880002,,,,,,,,,,,,,,,,,,,0.094969618,-0.172491319,1,0,0,1.7325,4,7,111,12,1,m,images/br_m.png,images/cb_m.png,,,,,,,,,,,,,,,,,,,,,,,,,
,,,,,,00047,2023-10-17_20h20.59.292,vbt_B2_day1,2022.2.4,MacIntel,59.99880002,,,,,,,,,,,,,,,,,,,0.065386285,-0.154409722,1,0,0,3.4472,4,8,112,15,1,p,images/br_p.png,images/cb_p.png,,,,,,,,,,,,,,,,,,,,,,,,,
,,,,,,00047,2023-10-17_20h20.59.292,vbt_B2_day1,2022.2.4,MacIntel,59.99880002,,,,,,,,,,,,,,,,,,,0.069448785,-0.153567708,1,0,0,0.4162,4,9,113,14,1,o,images/br_o.png,images/cb_o.png,,,,,,,,,,,,,,,,,,,,,,,,,
,,,,,,00047,2023-10-17_20h20.59.292,vbt_B2_day1,2022.2.4,MacIntel,59.99880002,,,,,,,,,,,,,,,,,,,0.060290799,-0.14733941,1,0,0,6.6997,4,10,114,21,1,v,images/br_v.png,images/cb_v.png,,,,,,,,,,,,,,,,,,,,,,,,,
,,,,,,00047,2023-10-17_20h20.59.292,vbt_B2_day1,2022.2.4,MacIntel,59.99880002,,,,,,,,,,,,,,,,,,,0.089804687,-0.155828993,1,0,0,0.285,4,11,115,5,1,f,images/br_f.png,images/cb_f.png,,,,,,,,,,,,,,,,,,,,,,,,,
,,,,,,00047,2023-10-17_20h20.59.292,vbt_B2_day1,2022.2.4,MacIntel,59.99880002,,,,,,,,,,,,,,,,,,,0.121128472,-0.142105035,1,0,0,3.1495,4,12,116,8,1,i,images/br_i.png,images/cb_i.png,,,,,,,,,,,,,,,,,,,,,,,,,
,,,,,,00047,2023-10-17_20h20.59.292,vbt_B2_day1,2022.2.4,MacIntel,59.99880002,,,,,,,,,,,,,,,,,,,0.097087674,-0.142105035,1,0,0,1.6308,4,13,117,16,1,q,images/br_q.png,images/cb_q.png,,,,,,,,,,,,,,,,,,,,,,,,,
,,,,,,00047,2023-10-17_20h20.59.292,vbt_B2_day1,2022.2.4,MacIntel,59.99880002,,,,,,,,,,,,,,,,,,,0.107248264,-0.129657118,1,0,0,5.0866,4,14,118,1,1,b,images/br_b.png,images/cb_b.png,,,,,,,,,,,,,,,,,,,,,,,,,
,,,,,,00047,2023-10-17_20h20.59.292,vbt_B2_day1,2022.2.4,MacIntel,59.99880002,,,,,,,,,,,,,,,,,,,0.102378472,-0.132929688,1,0,0,3.9502,4,15,119,25,1,z,images/br_z.png,images/cb_z.png,,,,,,,,,,,,,,,,,,,,,,,,,
,,,,,,00047,2023-10-17_20h20.59.292,vbt_B2_day1,2022.2.4,MacIntel,59.99880002,,,,,,,,,,,,,,,,,,,0.137057292,-0.138832465,1,0,0,0.1473,4,16,120,24,1,y,images/br_y.png,images/cb_y.png,,,,,,,,,,,,,,,,,,,,,,,,,
,,,,,,00047,2023-10-17_20h20.59.292,vbt_B2_day1,2022.2.4,MacIntel,59.99880002,,,,,,,,,,,,,,,,,,,0.122743056,-0.164487847,1,0,0,0.6671,4,17,121,23,1,x,images/br_x.png,images/cb_x.png,,,,,,,,,,,,,,,,,,,,,,,,,
,,,,,,00047,2023-10-17_20h20.59.292,vbt_B2_day1,2022.2.4,MacIntel,59.99880002,,,,,,,,,,,,,,,,,,,0.099457465,-0.174444444,1,0,0,0.101,4,18,122,4,1,e,images/br_e.png,images/cb_e.png,,,,,,,,,,,,,,,,,,,,,,,,,
,,,,,,00047,2023-10-17_20h20.59.292,vbt_B2_day1,2022.2.4,MacIntel,59.99880002,,,,,,,,,,,,,,,,,,,0.082903646,-0.184952257,1,0,0,1.1822,4,19,123,0,1,a,images/br_a.png,images/cb_a.png,,,,,,,,,,,,,,,,,,,,,,,,,
,,,,,,00047,2023-10-17_20h20.59.292,vbt_B2_day1,2022.2.4,MacIntel,59.99880002,,,,,,,,,,,,,,,,,,,0.078203125,-0.176736111,1,0,0,0.2823,4,20,124,18,1,s,images/br_s.png,images/cb_s.png,,,,,,,,,,,,,,,,,,,,,,,,,
,,,,,,00047,2023-10-17_20h20.59.292,vbt_B2_day1,2022.2.4,MacIntel,59.99880002,,,,,,,,,,,,,,,,,,,0.062703993,-0.180086806,1,0,0,0.5692,4,21,125,6,1,g,images/br_g.png,images/cb_g.png,,,,,,,,,,,,,,,,,,,,,,,,,
,,,,,,00047,2023-10-17_20h20.59.292,vbt_B2_day1,2022.2.4,MacIntel,59.99880002,,,,,,,,,,,,,,,,,,,0.078689236,-0.188155382,1,0,0,1.833,4,22,126,17,1,r,images/br_r.png,images/cb_r.png,,,,,,,,,,,,,,,,,,,,,,,,,
,,,,,,00047,2023-10-17_20h20.59.292,vbt_B2_day1,2022.2.4,MacIntel,59.99880002,,,,,,,,,,,,,,,,,,,0.073984375,-0.176610243,1,0,0,0.6172,4,23,127,20,1,u,images/br_u.png,images/cb_u.png,,,,,,,,,,,,,,,,,,,,,,,,,
,,,,,,00047,2023-10-17_20h20.59.292,vbt_B2_day1,2022.2.4,MacIntel,59.99880002,,,,,,,,,,,,,,,,,,,0.081354167,-0.155993924,1,0,0,19.3518,4,24,128,7,1,h,images/br_h.png,images/cb_h.png,,,,,,,,,,,,,,,,,,,,,,,,,
,,,,,,00047,2023-10-17_20h20.59.292,vbt_B2_day1,2022.2.4,MacIntel,59.99880002,,,,,,,,,,,,,,,,,,,0.11155816,-0.163020833,1,0,0,0.1341,4,25,129,11,1,l,images/br_l.png,images/cb_l.png,,,,,,,,,,,,,,,,,,,,,,,,,
,,,,,,00047,2023-10-17_20h20.59.292,vbt_B2_day1,2022.2.4,MacIntel,59.99880002,,,,,,,,,,,,,,,,,,,0.08844184,-0.184991319,1,0,0,1.4164,5,0,130,23,1,x,images/br_x.png,images/cb_x.png,,,,,,,,,,,,,,,,,,,,,,,,,
,,,,,,00047,2023-10-17_20h20.59.292,vbt_B2_day1,2022.2.4,MacIntel,59.99880002,,,,,,,,,,,,,,,,,,,0.111944444,-0.145724826,1,0,0,19.649,5,1,131,1,1,b,images/br_b.png,images/cb_b.png,,,,,,,,,,,,,,,,,,,,,,,,,
,,,,,,00047,2023-10-17_20h20.59.292,vbt_B2_day1,2022.2.4,MacIntel,59.99880002,,,,,,,,,,,,,,,,,,,0.09375434,-0.138641493,1,0,0,2.2859,5,2,132,24,1,y,images/br_y.png,images/cb_y.png,,,,,,,,,,,,,,,,,,,,,,,,,
,,,,,,00047,2023-10-17_20h20.59.292,vbt_B2_day1,2022.2.4,MacIntel,59.99880002,,,,,,,,,,,,,,,,,,,0.061423611,-0.144895833,1,0,0,1.2978,5,3,133,14,1,o,images/br_o.png,images/cb_o.png,,,,,,,,,,,,,,,,,,,,,,,,,
,,,,,,00047,2023-10-17_20h20.59.292,vbt_B2_day1,2022.2.4,MacIntel,59.99880002,,,,,,,,,,,,,,,,,,,0.059470486,-0.167265625,1,0,0,1.7668,5,4,134,6,1,g,images/br_g.png,images/cb_g.png,,,,,,,,,,,,,,,,,,,,,,,,,
,,,,,,00047,2023-10-17_20h20.59.292,vbt_B2_day1,2022.2.4,MacIntel,59.99880002,,,,,,,,,,,,,,,,,,,0.059470486,-0.167265625,1,0,0,0.8636,5,5,135,10,1,k,images/br_k.png,images/cb_k.png,,,,,,,,,,,,,,,,,,,,,,,,,
,,,,,,00047,2023-10-17_20h20.59.292,vbt_B2_day1,2022.2.4,MacIntel,59.99880002,,,,,,,,,,,,,,,,,,,0.059470486,-0.167265625,1,0,0,1.1012,5,6,136,13,1,n,images/br_n.png,images/cb_n.png,,,,,,,,,,,,,,,,,,,,,,,,,
,,,,,,00047,2023-10-17_20h20.59.292,vbt_B2_day1,2022.2.4,MacIntel,59.99880002,,,,,,,,,,,,,,,,,,,0.059470486,-0.167265625,1,0,0,3.1327,5,7,137,25,1,z,images/br_z.png,images/cb_z.png,,,,,,,,,,,,,,,,,,,,,,,,,
,,,,,,00047,2023-10-17_20h20.59.292,vbt_B2_day1,2022.2.4,MacIntel,59.99880002,,,,,,,,,,,,,,,,,,,0.059470486,-0.167265625,1,0,0,0.3353,5,8,138,19,1,t,images/br_t.png,images/cb_t.png,,,,,,,,,,,,,,,,,,,,,,,,,
,,,,,,00047,2023-10-17_20h20.59.292,vbt_B2_day1,2022.2.4,MacIntel,59.99880002,,,,,,,,,,,,,,,,,,,0.059470486,-0.167265625,1,0,0,1.266,5,9,139,5,1,f,images/br_f.png,images/cb_f.png,,,,,,,,,,,,,,,,,,,,,,,,,
,,,,,,00047,2023-10-17_20h20.59.292,vbt_B2_day1,2022.2.4,MacIntel,59.99880002,,,,,,,,,,,,,,,,,,,0.059470486,-0.167265625,1,0,0,0.116,5,10,140,12,1,m,images/br_m.png,images/cb_m.png,,,,,,,,,,,,,,,,,,,,,,,,,
,,,,,,00047,2023-10-17_20h20.59.292,vbt_B2_day1,2022.2.4,MacIntel,59.99880002,,,,,,,,,,,,,,,,,,,0.059470486,-0.167265625,1,0,0,0.0993,5,11,141,2,1,c,images/br_c.png,images/cb_c.png,,,,,,,,,,,,,,,,,,,,,,,,,
,,,,,,00047,2023-10-17_20h20.59.292,vbt_B2_day1,2022.2.4,MacIntel,59.99880002,,,,,,,,,,,,,,,,,,,0.059470486,-0.167265625,1,0,0,3.5654,5,12,142,7,1,h,images/br_h.png,images/cb_h.png,,,,,,,,,,,,,,,,,,,,,,,,,
,,,,,,00047,2023-10-17_20h20.59.292,vbt_B2_day1,2022.2.4,MacIntel,59.99880002,,,,,,,,,,,,,,,,,,,0.081336806,-0.082382812,1,0,0,12.7148,5,13,143,21,1,v,images/br_v.png,images/cb_v.png,,,,,,,,,,,,,,,,,,,,,,,,,
,,,,,,00047,2023-10-17_20h20.59.292,vbt_B2_day1,2022.2.4,MacIntel,59.99880002,,,,,,,,,,,,,,,,,,,0.007677951,-0.152686632,1,0,0,34.2322,5,14,144,9,1,j,images/br_j.png,images/cb_j.png,,,,,,,,,,,,,,,,,,,,,,,,,
,,,,,,00047,2023-10-17_20h20.59.292,vbt_B2_day1,2022.2.4,MacIntel,59.99880002,,,,,,,,,,,,,,,,,,,0.096697049,-0.164982639,1,0,0,0.7019,5,15,145,0,1,a,images/br_a.png,images/cb_a.png,,,,,,,,,,,,,,,,,,,,,,,,,
,,,,,,00047,2023-10-17_20h20.59.292,vbt_B2_day1,2022.2.4,MacIntel,59.99880002,,,,,,,,,,,,,,,,,,,0.08047309,-0.143363715,1,0,0,0.1973,5,16,146,20,1,u,images/br_u.png,images/cb_u.png,,,,,,,,,,,,,,,,,,,,,,,,,
,,,,,,00047,2023-10-17_20h20.59.292,vbt_B2_day1,2022.2.4,MacIntel,59.99880002,,,,,,,,,,,,,,,,,,,0.071636285,-0.148763021,1,0,0,0.2674,5,17,147,11,1,l,images/br_l.png,images/cb_l.png,,,,,,,,,,,,,,,,,,,,,,,,,
,,,,,,00047,2023-10-17_20h20.59.292,vbt_B2_day1,2022.2.4,MacIntel,59.99880002,,,,,,,,,,,,,,,,,,,0.010529514,-0.182052951,1,0,0,10.7671,5,18,148,16,1,q,images/br_q.png,images/cb_q.png,,,,,,,,,,,,,,,,,,,,,,,,,
,,,,,,00047,2023-10-17_20h20.59.292,vbt_B2_day1,2022.2.4,MacIntel,59.99880002,,,,,,,,,,,,,,,,,,,0.022013889,-0.194939236,1,0,0,0.3517,5,19,149,4,1,e,images/br_e.png,images/cb_e.png,,,,,,,,,,,,,,,,,,,,,,,,,
,,,,,,00047,2023-10-17_20h20.59.292,vbt_B2_day1,2022.2.4,MacIntel,59.99880002,,,,,,,,,,,,,,,,,,,0.025828993,-0.199704861,1,0,0,0.599,5,20,150,15,1,p,images/br_p.png,images/cb_p.png,,,,,,,,,,,,,,,,,,,,,,,,,
,,,,,,00047,2023-10-17_20h20.59.292,vbt_B2_day1,2022.2.4,MacIntel,59.99880002,,,,,,,,,,,,,,,,,,,0.033480903,-0.194283854,1,0,0,0.1327,5,21,151,17,1,r,images/br_r.png,images/cb_r.png,,,,,,,,,,,,,,,,,,,,,,,,,
,,,,,,00047,2023-10-17_20h20.59.292,vbt_B2_day1,2022.2.4,MacIntel,59.99880002,,,,,,,,,,,,,,,,,,,0.035625,-0.205833333,1,0,0,0.8678,5,22,152,18,1,s,images/br_s.png,images/cb_s.png,,,,,,,,,,,,,,,,,,,,,,,,,
,,,,,,00047,2023-10-17_20h20.59.292,vbt_B2_day1,2022.2.4,MacIntel,59.99880002,,,,,,,,,,,,,,,,,,,0.011618924,-0.202747396,1,0,0,0.6008,5,23,153,8,1,i,images/br_i.png,images/cb_i.png,,,,,,,,,,,,,,,,,,,,,,,,,
,,,,,,00047,2023-10-17_20h20.59.292,vbt_B2_day1,2022.2.4,MacIntel,59.99880002,,,,,,,,,,,,,,,,,,,0.035546875,-0.157000868,1,0,0,1.332,5,24,154,22,1,w,images/br_w.png,images/cb_w.png,,,,,,,,,,,,,,,,,,,,,,,,,
,,,,,,00047,2023-10-17_20h20.59.292,vbt_B2_day1,2022.2.4,MacIntel,59.99880002,,,,,,,,,,,,,,,,,,,0.026419271,-0.180638021,1,0,0,7.9165,5,25,155,3,1,d,images/br_d.png,images/cb_d.png,,,,,,,,,,,,,,,,,,,,,,,,,
,,,,,,00047,2023-10-17_20h20.59.292,vbt_B2_day1,2022.2.4,MacIntel,59.99880002,,,,,,,,,,,,,,,,,,,0.056297743,-0.148337674,1,0,0,6.3997,6,0,156,16,1,q,images/br_q.png,images/cb_q.png,,,,,,,,,,,,,,,,,,,,,,,,,
,,,,,,00047,2023-10-17_20h20.59.292,vbt_B2_day1,2022.2.4,MacIntel,59.99880002,,,,,,,,,,,,,,,,,,,0.033927951,-0.18,1,0,0,0.8321,6,1,157,3,1,d,images/br_d.png,images/cb_d.png,,,,,,,,,,,,,,,,,,,,,,,,,
,,,,,,00047,2023-10-17_20h20.59.292,vbt_B2_day1,2022.2.4,MacIntel,59.99880002,,,,,,,,,,,,,,,,,,,0.021653646,-0.160373264,1,0,0,1.1487,6,2,158,11,1,l,images/br_l.png,images/cb_l.png,,,,,,,,,,,,,,,,,,,,,,,,,
,,,,,,00047,2023-10-17_20h20.59.292,vbt_B2_day1,2022.2.4,MacIntel,59.99880002,,,,,,,,,,,,,,,,,,,0.065230035,-0.152903646,1,0,0,0.3203,6,3,159,13,1,n,images/br_n.png,images/cb_n.png,,,,,,,,,,,,,,,,,,,,,,,,,
,,,,,,00047,2023-10-17_20h20.59.292,vbt_B2_day1,2022.2.4,MacIntel,59.99880002,,,,,,,,,,,,,,,,,,,0.063177083,-0.16750434,1,0,0,0.6508,6,4,160,22,1,w,images/br_w.png,images/cb_w.png,,,,,,,,,,,,,,,,,,,,,,,,,
,,,,,,00047,2023-10-17_20h20.59.292,vbt_B2_day1,2022.2.4,MacIntel,59.99880002,,,,,,,,,,,,,,,,,,,0.067638889,-0.162782118,1,0,0,1.1489,6,5,161,2,1,c,images/br_c.png,images/cb_c.png,,,,,,,,,,,,,,,,,,,,,,,,,
,,,,,,00047,2023-10-17_20h20.59.292,vbt_B2_day1,2022.2.4,MacIntel,59.99880002,,,,,,,,,,,,,,,,,,,0.070611979,-0.164592014,1,0,0,0.8839,6,6,162,21,1,v,images/br_v.png,images/cb_v.png,,,,,,,,,,,,,,,,,,,,,,,,,
,,,,,,00047,2023-10-17_20h20.59.292,vbt_B2_day1,2022.2.4,MacIntel,59.99880002,,,,,,,,,,,,,,,,,,,0.07343316,-0.156163194,1,0,0,0.4522,6,7,163,4,1,e,images/br_e.png,images/cb_e.png,,,,,,,,,,,,,,,,,,,,,,,,,
,,,,,,00047,2023-10-17_20h20.59.292,vbt_B2_day1,2022.2.4,MacIntel,59.99880002,,,,,,,,,,,,,,,,,,,0.059075521,-0.178880208,1,0,0,0.3303,6,8,164,24,1,y,images/br_y.png,images/cb_y.png,,,,,,,,,,,,,,,,,,,,,,,,,
,,,,,,00047,2023-10-17_20h20.59.292,vbt_B2_day1,2022.2.4,MacIntel,59.99880002,,,,,,,,,,,,,,,,,,,0.071493056,-0.168342014,1,0,0,0.0697,6,9,165,20,1,u,images/br_u.png,images/cb_u.png,,,,,,,,,,,,,,,,,,,,,,,,,
,,,,,,00047,2023-10-17_20h20.59.292,vbt_B2_day1,2022.2.4,MacIntel,59.99880002,,,,,,,,,,,,,,,,,,,0.071493056,-0.168342014,1,0,0,0.3331,6,10,166,17,1,r,images/br_r.png,images/cb_r.png,,,,,,,,,,,,,,,,,,,,,,,,,
,,,,,,00047,2023-10-17_20h20.59.292,vbt_B2_day1,2022.2.4,MacIntel,59.99880002,,,,,,,,,,,,,,,,,,,0.060646701,-0.194670139,1,0,0,9.1998,6,11,167,15,1,p,images/br_p.png,images/cb_p.png,,,,,,,,,,,,,,,,,,,,,,,,,
,,,,,,00047,2023-10-17_20h20.59.292,vbt_B2_day1,2022.2.4,MacIntel,59.99880002,,,,,,,,,,,,,,,,,,,0.045277778,-0.208663194,1,0,0,0.6838,6,12,168,6,1,g,images/br_g.png,images/cb_g.png,,,,,,,,,,,,,,,,,,,,,,,,,
,,,,,,00047,2023-10-17_20h20.59.292,vbt_B2_day1,2022.2.4,MacIntel,59.99880002,,,,,,,,,,,,,,,,,,,0.061297743,-0.18828559,1,0,0,0.7669,6,13,169,0,1,a,images/br_a.png,images/cb_a.png,,,,,,,,,,,,,,,,,,,,,,,,,
,,,,,,00047,2023-10-17_20h20.59.292,vbt_B2_day1,2022.2.4,MacIntel,59.99880002,,,,,,,,,,,,,,,,,,,0.041119792,-0.147065972,1,0,0,16.316,6,14,170,7,1,h,images/br_h.png,images/cb_h.png,,,,,,,,,,,,,,,,,,,,,,,,,
,,,,,,00047,2023-10-17_20h20.59.292,vbt_B2_day1,2022.2.4,MacIntel,59.99880002,,,,,,,,,,,,,,,,,,,0.069991319,-0.15937934,1,0,0,0.1154,6,15,171,12,1,m,images/br_m.png,images/cb_m.png,,,,,,,,,,,,,,,,,,,,,,,,,
,,,,,,00047,2023-10-17_20h20.59.292,vbt_B2_day1,2022.2.4,MacIntel,59.99880002,,,,,,,,,,,,,,,,,,,0.069991319,-0.15937934,1,0,0,0.3973,6,16,172,14,1,o,images/br_o.png,images/cb_o.png,,,,,,,,,,,,,,,,,,,,,,,,,
,,,,,,00047,2023-10-17_20h20.59.292,vbt_B2_day1,2022.2.4,MacIntel,59.99880002,,,,,,,,,,,,,,,,,,,0.069991319,-0.15937934,1,0,0,0.3798,6,17,173,19,1,t,images/br_t.png,images/cb_t.png,,,,,,,,,,,,,,,,,,,,,,,,,
,,,,,,00047,2023-10-17_20h20.59.292,vbt_B2_day1,2022.2.4,MacIntel,59.99880002,,,,,,,,,,,,,,,,,,,0.069991319,-0.15937934,1,0,0,0.2165,6,18,174,10,1,k,images/br_k.png,images/cb_k.png,,,,,,,,,,,,,,,,,,,,,,,,,
,,,,,,00047,2023-10-17_20h20.59.292,vbt_B2_day1,2022.2.4,MacIntel,59.99880002,,,,,,,,,,,,,,,,,,,0.069991319,-0.15937934,1,0,0,0.3175,6,19,175,23,1,x,images/br_x.png,images/cb_x.png,,,,,,,,,,,,,,,,,,,,,,,,,
,,,,,,00047,2023-10-17_20h20.59.292,vbt_B2_day1,2022.2.4,MacIntel,59.99880002,,,,,,,,,,,,,,,,,,,0.069991319,-0.15937934,1,0,0,0.6661,6,20,176,5,1,f,images/br_f.png,images/cb_f.png,,,,,,,,,,,,,,,,,,,,,,,,,
,,,,,,00047,2023-10-17_20h20.59.292,vbt_B2_day1,2022.2.4,MacIntel,59.99880002,,,,,,,,,,,,,,,,,,,0.069991319,-0.15937934,1,0,0,0.134,6,21,177,8,1,i,images/br_i.png,images/cb_i.png,,,,,,,,,,,,,,,,,,,,,,,,,
,,,,,,00047,2023-10-17_20h20.59.292,vbt_B2_day1,2022.2.4,MacIntel,59.99880002,,,,,,,,,,,,,,,,,,,0.069991319,-0.15937934,1,0,0,0.0959,6,22,178,18,1,s,images/br_s.png,images/cb_s.png,,,,,,,,,,,,,,,,,,,,,,,,,
,,,,,,00047,2023-10-17_20h20.59.292,vbt_B2_day1,2022.2.4,MacIntel,59.99880002,,,,,,,,,,,,,,,,,,,0.035928819,-0.148064236,1,0,0,5.1834,6,23,179,9,1,j,images/br_j.png,images/cb_j.png,,,,,,,,,,,,,,,,,,,,,,,,,
,,,,,,00047,2023-10-17_20h20.59.292,vbt_B2_day1,2022.2.4,MacIntel,59.99880002,,,,,,,,,,,,,,,,,,,0.039309896,-0.135724826,1,0,0,0.5299,6,24,180,25,1,z,images/br_z.png,images/cb_z.png,,,,,,,,,,,,,,,,,,,,,,,,,
,,,,,,00047,2023-10-17_20h20.59.292,vbt_B2_day1,2022.2.4,MacIntel,59.99880002,,,,,,,,,,,,,,,,,,,0.079188368,-0.14156684,1,0,0,0.5178,6,25,181,1,1,b,images/br_b.png,images/cb_b.png,,,,,,,,,,,,,,,,,,,,,,,,,
,,,,,,00047,2023-10-17_20h20.59.292,vbt_B2_day1,2022.2.4,MacIntel,59.99880002,,,,,,,,,,,,,,,,,,,,,,,,,,,,,,,,,0.075355903,-0.064027778,1,0,0,,,,,,,,,,,,,,,,,,,,
,,,,,,00047,2023-10-17_20h20.59.292,vbt_B2_day1,2022.2.4,MacIntel,59.99880002,,,,,,,,,,,,,,,,,,,,,,,,,,,,,,,,,,,,,,0.05234375,-0.140099826,1,0,0,,,,,,,,,,,,,,,
,,,,,,00047,2023-10-17_20h20.59.292,vbt_B2_day1,2022.2.4,MacIntel,59.99880002,,,,,,,,,,,,,,,,,,,,,,,,,,,,,,,,,,,,,,,,,,,0.167170139,0.065746528,1,0,0,drid,drid,0,0,0,21,1,dred,images/br_dred.png,images/cb_dred.png
,,,,,,00047,2023-10-17_20h20.59.292,vbt_B2_day1,2022.2.4,MacIntel,59.99880002,,,,,,,,,,,,,,,,,,,,,,,,,,,,,,,,,,,,,,,,,,,0.187634549,0.004796007,1,0,0,vervaden,vervaden,0,1,1,36,1,vervaden,images/br_vervaden.png,images/cb_vervaden.png
,,,,,,00047,2023-10-17_20h20.59.292,vbt_B2_day1,2022.2.4,MacIntel,59.99880002,,,,,,,,,,,,,,,,,,,,,,,,,,,,,,,,,,,,,,,,,,,0.237243924,0.032764757,1,0,0,schip,schip,0,2,2,4,1,schep,images/br_schep.png,images/cb_schep.png
,,,,,,00047,2023-10-17_20h20.59.292,vbt_B2_day1,2022.2.4,MacIntel,59.99880002,,,,,,,,,,,,,,,,,,,,,,,,,,,,,,,,,,,,,,,,,,,0.244344618,0.110421007,1,0,0,voorreur,voorreur,0,3,3,39,1,voorreur,images/br_voorreur.png,images/cb_voorreur.png
,,,,,,00047,2023-10-17_20h20.59.292,vbt_B2_day1,2022.2.4,MacIntel,59.99880002,,,,,,,,,,,,,,,,,,,,,,,,,,,,,,,,,,,,,,,,,,,0.205355903,0.004270833,1,0,0,wijze,wijze,0,4,4,44,1,wijze,images/br_wijze.png,images/cb_wijze.png
,,,,,,00047,2023-10-17_20h20.59.292,vbt_B2_day1,2022.2.4,MacIntel,59.99880002,,,,,,,,,,,,,,,,,,,,,,,,,,,,,,,,,,,,,,,,,,,0.166302083,-0.031072049,1,0,0,prort,prort,0,5,5,27,1,prort,images/br_prort.png,images/cb_prort.png
,,,,,,00047,2023-10-17_20h20.59.292,vbt_B2_day1,2022.2.4,MacIntel,59.99880002,,,,,,,,,,,,,,,,,,,,,,,,,,,,,,,,,,,,,,,,,,,-0.005664062,-0.199934896,1,0,0,sineng,sineng,0,6,6,11,1,mening,images/br_mening.png,images/cb_mening.png
,,,,,,00047,2023-10-17_20h20.59.292,vbt_B2_day1,2022.2.4,MacIntel,59.99880002,,,,,,,,,,,,,,,,,,,,,,,,,,,,,,,,,,,,,,,,,,,0.036692708,-0.111467014,1,0,0,kan.ir,kan.ir,0,7,7,8,1,kanjer,images/br_kanjer.png,images/cb_kanjer.png
,,,,,,00047,2023-10-17_20h20.59.292,vbt_B2_day1,2022.2.4,MacIntel,59.99880002,,,,,,,,,,,,,,,,,,,,,,,,,,,,,,,,,,,,,,,,,,,-0.015598958,-0.103854167,1,0,0,.alo.,.alo.,0,8,8,26,1,valop,images/br_valop.png,images/cb_valop.png
,,,,,,00047,2023-10-17_20h20.59.292,vbt_B2_day1,2022.2.4,MacIntel,59.99880002,,,,,,,,,,,,,,,,,,,,,,,,,,,,,,,,,,,,,,,,,,,-0.050347222,0.028940972,1,0,0,booi,booi,0,9,9,23,1,booi,images/br_booi.png,images/cb_booi.png
,,,,,,00047,2023-10-17_20h20.59.292,vbt_B2_day1,2022.2.4,MacIntel,59.99880002,,,,,,,,,,,,,,,,,,,,,,,,,,,,,,,,,,,,,,,,,,,0.008628472,-0.052586806,1,0,0,span.eng,span.eng,0,10,10,37,1,spanzing,images/br_spanzing.png,images/cb_spanzing.png
,,,,,,00047,2023-10-17_20h20.59.292,vbt_B2_day1,2022.2.4,MacIntel,59.99880002,,,,,,,,,,,,,,,,,,,,,,,,,,,,,,,,,,,,,,,,,,,-0.044314236,-0.020980903,1,0,0,stuk,stuk,0,11,11,42,1,stuk,images/br_stuk.png,images/cb_stuk.png
,,,,,,00047,2023-10-17_20h20.59.292,vbt_B2_day1,2022.2.4,MacIntel,59.99880002,,,,,,,,,,,,,,,,,,,,,,,,,,,,,,,,,,,,,,,,,,,-0.038654514,0.039678819,1,0,0,tars,tars,0,12,12,20,1,tars,images/br_tars.png,images/cb_tars.png
,,,,,,00047,2023-10-17_20h20.59.292,vbt_B2_day1,2022.2.4,MacIntel,59.99880002,,,,,,,,,,,,,,,,,,,,,,,,,,,,,,,,,,,,,,,,,,,-0.023567708,0.028107639,1,0,0,teke...,teke...,0,13,13,55,1,tekenen,images/br_tekenen.png,images/cb_tekenen.png
,,,,,,00047,2023-10-17_20h20.59.292,vbt_B2_day1,2022.2.4,MacIntel,59.99880002,,,,,,,,,,,,,,,,,,,,,,,,,,,,,,,,,,,,,,,,,,,-0.025711806,0.042634549,1,0,0,lava,lava,0,14,14,43,1,lava,images/br_lava.png,images/cb_lava.png
,,,,,,00047,2023-10-17_20h20.59.292,vbt_B2_day1,2022.2.4,MacIntel,59.99880002,,,,,,,,,,,,,,,,,,,,,,,,,,,,,,,,,,,,,,,,,,,0.008372396,0.109144965,1,0,0,.emel,.emel,0,15,15,45,1,hemel,images/br_hemel.png,images/cb_hemel.png
,,,,,,00047,2023-10-17_20h20.59.292,vbt_B2_day1,2022.2.4,MacIntel,59.99880002,,,,,,,,,,,,,,,,,,,,,,,,,,,,,,,,,,,,,,,,,,,-0.023914931,0.004071181,1,0,0,voorkeur,voorkeur,0,16,16,58,1,voorkeur,images/br_voorkeur.png,images/cb_voorkeur.png
,,,,,,00047,2023-10-17_20h20.59.292,vbt_B2_day1,2022.2.4,MacIntel,59.99880002,,,,,,,,,,,,,,,,,,,,,,,,,,,,,,,,,,,,,,,,,,,0.013519965,0.031236979,1,0,0,opvatten,opvatten,0,17,17,59,1,opvatten,images/br_opvatten.png,images/cb_opvatten.png
,,,,,,00047,2023-10-17_20h20.59.292,vbt_B2_day1,2022.2.4,MacIntel,59.99880002,,,,,,,,,,,,,,,,,,,,,,,,,,,,,,,,,,,,,,,,,,,-0.012921007,0.030503472,1,0,0,fluff..,fluff..,0,18,18,33,1,flullen,images/br_flullen.png,images/cb_flullen.png
,,,,,,00047,2023-10-17_20h20.59.292,vbt_B2_day1,2022.2.4,MacIntel,59.99880002,,,,,,,,,,,,,,,,,,,,,,,,,,,,,,,,,,,,,,,,,,,0.016922743,-0.12812066,1,0,0,maken,maken,0,19,19,5,1,maken,images/br_maken.png,images/cb_maken.png
,,,,,,00047,2023-10-17_20h20.59.292,vbt_B2_day1,2022.2.4,MacIntel,59.99880002,,,,,,,,,,,,,,,,,,,,,,,,,,,,,,,,,,,,,,,,,,,0.020238715,-0.049140625,1,0,0,stuik..,stuik..,0,20,20,35,1,stuikem,images/br_stuikem.png,images/cb_stuikem.png
,,,,,,00047,2023-10-17_20h20.59.292,vbt_B2_day1,2022.2.4,MacIntel,59.99880002,,,,,,,,,,,,,,,,,,,,,,,,,,,,,,,,,,,,,,,,,,,0.03609375,-0.028237847,1,0,0,ve.eir,ve.eir,0,21,21,49,1,vizier,images/br_vizier.png,images/cb_vizier.png
,,,,,,00047,2023-10-17_20h20.59.292,vbt_B2_day1,2022.2.4,MacIntel,59.99880002,,,,,,,,,,,,,,,,,,,,,,,,,,,,,,,,,,,,,,,,,,,0.032881944,-0.067282986,1,0,0,waar.an,waar.an,0,22,22,14,1,waarvan,images/br_waarvan.png,images/cb_waarvan.png
,,,,,,00047,2023-10-17_20h20.59.292,vbt_B2_day1,2022.2.4,MacIntel,59.99880002,,,,,,,,,,,,,,,,,,,,,,,,,,,,,,,,,,,,,,,,,,,0.075295139,-0.035512153,1,0,0,attentie,attentie,0,23,23,17,1,attentie,images/br_attentie.png,images/cb_attentie.png
,,,,,,00047,2023-10-17_20h20.59.292,vbt_B2_day1,2022.2.4,MacIntel,59.99880002,,,,,,,,,,,,,,,,,,,,,,,,,,,,,,,,,,,,,,,,,,,0.07656684,-0.004548611,1,0,0,upslaan,upslaan,0,24,24,53,1,opslaan,images/br_opslaan.png,images/cb_opslaan.png
,,,,,,00047,2023-10-17_20h20.59.292,vbt_B2_day1,2022.2.4,MacIntel,59.99880002,,,,,,,,,,,,,,,,,,,,,,,,,,,,,,,,,,,,,,,,,,,0.076011285,0.007092014,1,0,0,klimmen,klimmen,0,25,25,12,1,klimmen,images/br_klimmen.png,images/cb_klimmen.png
,,,,,,00047,2023-10-17_20h20.59.292,vbt_B2_day1,2022.2.4,MacIntel,59.99880002,,,,,,,,,,,,,,,,,,,,,,,,,,,,,,,,,,,,,,,,,,,-0.078255208,-0.11984809,1,0,0,vi..tig,vi..tig,0,26,26,54,1,vijftig,images/br_vijftig.png,images/cb_vijftig.png
,,,,,,00047,2023-10-17_20h20.59.292,vbt_B2_day1,2022.2.4,MacIntel,59.99880002,,,,,,,,,,,,,,,,,,,,,,,,,,,,,,,,,,,,,,,,,,,-0.088042535,0.024001736,1,0,0,schielig,schielig,0,27,27,38,1,schielen,images/br_schielen.png,images/cb_schielen.png
,,,,,,00047,2023-10-17_20h20.59.292,vbt_B2_day1,2022.2.4,MacIntel,59.99880002,,,,,,,,,,,,,,,,,,,,,,,,,,,,,,,,,,,,,,,,,,,-0.078420139,0.182443576,1,0,0,zuiplap,zuiplap,0,28,28,52,1,zuiplap,images/br_zuiplap.png,images/cb_zuiplap.png
,,,,,,00047,2023-10-17_20h20.59.292,vbt_B2_day1,2022.2.4,MacIntel,59.99880002,,,,,,,,,,,,,,,,,,,,,,,,,,,,,,,,,,,,,,,,,,,-0.014392361,0.043875868,1,0,0,liefde,liefde,0,29,29,51,1,liefde,images/br_liefde.png,images/cb_liefde.png
,,,,,,00047,2023-10-17_20h20.59.292,vbt_B2_day1,2022.2.4,MacIntel,59.99880002,,,,,,,,,,,,,,,,,,,,,,,,,,,,,,,,,,,,,,,,,,,-0.008862847,-0.013485243,1,0,0,slak,slak,0,30,30,0,1,slak,images/br_slak.png,images/cb_slak.png
,,,,,,00047,2023-10-17_20h20.59.292,vbt_B2_day1,2022.2.4,MacIntel,59.99880002,,,,,,,,,,,,,,,,,,,,,,,,,,,,,,,,,,,,,,,,,,,-0.03203559,-0.036449653,1,0,0,.oog,.oog,0,31,31,41,1,hoog,images/br_hoog.png,images/cb_hoog.png
,,,,,,00047,2023-10-17_20h20.59.292,vbt_B2_day1,2022.2.4,MacIntel,59.99880002,,,,,,,,,,,,,,,,,,,,,,,,,,,,,,,,,,,,,,,,,,,-0.048389757,-0.009340278,1,0,0,liegen,liegen,0,32,32,50,1,liegen,images/br_liegen.png,images/cb_liegen.png
,,,,,,00047,2023-10-17_20h20.59.292,vbt_B2_day1,2022.2.4,MacIntel,59.99880002,,,,,,,,,,,,,,,,,,,,,,,,,,,,,,,,,,,,,,,,,,,-0.004201389,0.098888889,1,0,0,schuilen,schuilen,0,33,33,19,1,schuilen,images/br_schuilen.png,images/cb_schuilen.png
,,,,,,00047,2023-10-17_20h20.59.292,vbt_B2_day1,2022.2.4,MacIntel,59.99880002,,,,,,,,,,,,,,,,,,,,,,,,,,,,,,,,,,,,,,,,,,,-0.015815972,0.140486111,1,0,0,genond,genond,0,34,34,29,1,genond,images/br_genond.png,images/cb_genond.png
,,,,,,00047,2023-10-17_20h20.59.292,vbt_B2_day1,2022.2.4,MacIntel,59.99880002,,,,,,,,,,,,,,,,,,,,,,,,,,,,,,,,,,,,,,,,,,,-0.016076389,0.153611111,1,0,0,klauw,klauw,0,35,35,7,1,klauw,images/br_klauw.png,images/cb_klauw.png
,,,,,,00047,2023-10-17_20h20.59.292,vbt_B2_day1,2022.2.4,MacIntel,59.99880002,,,,,,,,,,,,,,,,,,,,,,,,,,,,,,,,,,,,,,,,,,,-0.020885417,0.180477431,1,0,0,rezer,rezer,0,36,36,24,1,rezer,images/br_rezer.png,images/cb_rezer.png
,,,,,,00047,2023-10-17_20h20.59.292,vbt_B2_day1,2022.2.4,MacIntel,59.99880002,,,,,,,,,,,,,,,,,,,,,,,,,,,,,,,,,,,,,,,,,,,-0.050407986,0.240746528,1,0,0,lezen,lezen,0,37,37,46,1,lezen,images/br_lezen.png,images/cb_lezen.png
,,,,,,00047,2023-10-17_20h20.59.292,vbt_B2_day1,2022.2.4,MacIntel,59.99880002,,,,,,,,,,,,,,,,,,,,,,,,,,,,,,,,,,,,,,,,,,,-0.081193576,0.273832465,1,0,0,muziek,muziek,0,38,38,10,1,muziek,images/br_muziek.png,images/cb_muziek.png
,,,,,,00047,2023-10-17_20h20.59.292,vbt_B2_day1,2022.2.4,MacIntel,59.99880002,,,,,,,,,,,,,,,,,,,,,,,,,,,,,,,,,,,,,,,,,,,-0.094917535,0.25016059,1,0,0,tuizicht,tuizicht,0,39,39,56,1,toezicht,images/br_toezicht.png,images/cb_toezicht.png
,,,,,,00047,2023-10-17_20h20.59.292,vbt_B2_day1,2022.2.4,MacIntel,59.99880002,,,,,,,,,,,,,,,,,,,,,,,,,,,,,,,,,,,,,,,,,,,-0.094118924,0.259440104,1,0,0,loods,loods,0,40,40,47,1,loods,images/br_loods.png,images/cb_loods.png
,,,,,,00047,2023-10-17_20h20.59.292,vbt_B2_day1,2022.2.4,MacIntel,59.99880002,,,,,,,,,,,,,,,,,,,,,,,,,,,,,,,,,,,,,,,,,,,-0.021549479,0.009600694,1,0,0,daarheen,daarheen,0,41,41,16,1,daarheen,images/br_daarheen.png,images/cb_daarheen.png
,,,,,,00047,2023-10-17_20h20.59.292,vbt_B2_day1,2022.2.4,MacIntel,59.99880002,,,,,,,,,,,,,,,,,,,,,,,,,,,,,,,,,,,,,,,,,,,-0.015373264,0.039227431,1,0,0,mand,mand,0,42,42,3,1,mand,images/br_mand.png,images/cb_mand.png
,,,,,,00047,2023-10-17_20h20.59.292,vbt_B2_day1,2022.2.4,MacIntel,59.99880002,,,,,,,,,,,,,,,,,,,,,,,,,,,,,,,,,,,,,,,,,,,-0.003776042,0.026953125,1,0,0,reed.e,reed.e,0,43,43,30,1,reedje,images/br_reedje.png,images/cb_reedje.png
,,,,,,00047,2023-10-17_20h20.59.292,vbt_B2_day1,2022.2.4,MacIntel,59.99880002,,,,,,,,,,,,,,,,,,,,,,,,,,,,,,,,,,,,,,,,,,,-0.014092882,-0.205030382,1,0,0,festie,festie,0,44,44,48,1,fictie,images/br_fictie.png,images/cb_fictie.png
,,,,,,00047,2023-10-17_20h20.59.292,vbt_B2_day1,2022.2.4,MacIntel,59.99880002,,,,,,,,,,,,,,,,,,,,,,,,,,,,,,,,,,,,,,,,,,,0.072647569,0.095585937,1,0,0,ol..aa.,ol..aa.,0,45,45,32,1,opplaan,images/br_opplaan.png,images/cb_opplaan.png
,,,,,,00047,2023-10-17_20h20.59.292,vbt_B2_day1,2022.2.4,MacIntel,59.99880002,,,,,,,,,,,,,,,,,,,,,,,,,,,,,,,,,,,,,,,,,,,-0.003641493,-0.092439236,1,0,0,dubbel,dubbel,0,46,46,9,1,dubbel,images/br_dubbel.png,images/cb_dubbel.png
,,,,,,00047,2023-10-17_20h20.59.292,vbt_B2_day1,2022.2.4,MacIntel,59.99880002,,,,,,,,,,,,,,,,,,,,,,,,,,,,,,,,,,,,,,,,,,,0.046623264,-0.197986111,1,0,0,t,t,0,47,47,13,1,twijfel,images/br_twijfel.png,images/cb_twijfel.png
,,,,,,00047,2023-10-17_20h20.59.292,vbt_B2_day1,2022.2.4,MacIntel,59.99880002,,,,,,,,,,,,,,,,,,,,,,,,,,,,,,,,,,,,,,,,,,,0.04281684,-0.067999132,1,0,0,kz,kz,0,48,48,22,1,knoe,images/br_knoe.png,images/cb_knoe.png
,,,,,,00047,2023-10-17_20h20.59.292,vbt_B2_day1,2022.2.4,MacIntel,59.99880002,,,,,,,,,,,,,,,,,,,,,,,,,,,,,,,,,,,,,,,,,,,0.070334201,-0.007782118,1,0,0,uit,uit,0,49,49,18,1,uitdelen,images/br_uitdelen.png,images/cb_uitdelen.png
,,,,,,00047,2023-10-17_20h20.59.292,vbt_B2_day1,2022.2.4,MacIntel,59.99880002,,,,,,,,,,,,,,,,,,,,,,,,,,,,,,,,,,,,,,,,,,,0.071618924,0.030329861,1,0,0,loch,loch,0,50,50,34,1,lochten,images/br_lochten.png,images/cb_lochten.png
,,,,,,00047,2023-10-17_20h20.59.292,vbt_B2_day1,2022.2.4,MacIntel,59.99880002,,,,,,,,,,,,,,,,,,,,,,,,,,,,,,,,,,,,,,,,,,,0.031532118,0.017669271,1,0,0,brij,brij,0,51,51,25,1,brijk,images/br_brijk.png,images/cb_brijk.png
,,,,,,00047,2023-10-17_20h20.59.292,vbt_B2_day1,2022.2.4,MacIntel,59.99880002,,,,,,,,,,,,,,,,,,,,,,,,,,,,,,,,,,,,,,,,,,,-0.009913194,0.182465278,1,0,0,muun,muun,0,52,52,57,1,meenemen,images/br_meenemen.png,images/cb_meenemen.png
,,,,,,00047,2023-10-17_20h20.59.292,vbt_B2_day1,2022.2.4,MacIntel,59.99880002,,,,,,,,,,,,,,,,,,,,,,,,,,,,,,,,,,,,,,,,,,,-0.044184028,0.126128472,1,0,0,babr,babr,0,53,53,28,1,bebrip,images/br_bebrip.png,images/cb_bebrip.png
,,,,,,00047,2023-10-17_20h20.59.292,vbt_B2_day1,2022.2.4,MacIntel,59.99880002,,,,,,,,,,,,,,,,,,,,,,,,,,,,,,,,,,,,,,,,,,,-0.023615451,0.005768229,1,0,0,.eirv,.eirv,0,54,54,15,1,hiervan,images/br_hiervan.png,images/cb_hiervan.png
,,,,,,00047,2023-10-17_20h20.59.292,vbt_B2_day1,2022.2.4,MacIntel,59.99880002,,,,,,,,,,,,,,,,,,,,,,,,,,,,,,,,,,,,,,,,,,,-0.053472222,0.033155382,1,0,0,stamen,stamen,0,55,55,31,1,stamen,images/br_stamen.png,images/cb_stamen.png
,,,,,,00047,2023-10-17_20h20.59.292,vbt_B2_day1,2022.2.4,MacIntel,59.99880002,,,,,,,,,,,,,,,,,,,,,,,,,,,,,,,,,,,,,,,,,,,-0.071384549,0.119717882,1,0,0,bleek,bleek,0,56,56,6,1,bleek,images/br_bleek.png,images/cb_bleek.png
,,,,,,00047,2023-10-17_20h20.59.292,vbt_B2_day1,2022.2.4,MacIntel,59.99880002,,,,,,,,,,,,,,,,,,,,,,,,,,,,,,,,,,,,,,,,,,,0.029865451,0.176935764,1,0,0,jaar,jaar,0,57,57,2,1,jaar,images/br_jaar.png,images/cb_jaar.png
,,,,,,00047,2023-10-17_20h20.59.292,vbt_B2_day1,2022.2.4,MacIntel,59.99880002,,,,,,,,,,,,,,,,,,,,,,,,,,,,,,,,,,,,,,,,,,,-0.015581597,-0.055789931,1,0,0,zaal,zaal,0,58,58,1,1,zaal,images/br_zaal.png,images/cb_zaal.png
,,,,,,00047,2023-10-17_20h20.59.292,vbt_B2_day1,2022.2.4,MacIntel,59.99880002,,,,,,,,,,,,,,,,,,,,,,,,,,,,,,,,,,,,,,,,,,,-0.023728299,0.04891059,1,0,0,dief,dief,0,59,59,40,1,dief,images/br_dief.png,images/cb_dief.png
,,,,,,00047,2023-10-17_20h20.59.292,vbt_B2_day1,2022.2.4,MacIntel,59.99880002,,,,,,,,,,,,,,,,,,,,,,,,,,,,,,,,,,,,,,,,,,,,,,,,,,,,,,,,,
