welcome_mouse.x,welcome_mouse.y,welcome_mouse.leftButton,welcome_mouse.midButton,welcome_mouse.rightButton,"ID",date,expName,psychopyVersion,OS,frameRate,trainInstr_mouse.x,trainInstr_mouse.y,trainInstr_mouse.leftButton,trainInstr_mouse.midButton,trainInstr_mouse.rightButton,translation_key.keys,translation_key.corr,translation_key.rt,word_rsp.text,trWrd_mouse.x,trWrd_mouse.y,trWrd_mouse.leftButton,trWrd_mouse.midButton,trWrd_mouse.rightButton,train_loop.thisRepN,train_loop.thisTrialN,train_loop.thisN,train_loop.thisIndex,train_loop.ran,nlWrd,brWrd,cbWrd,test,testResp,mouse.x,mouse.y,mouse.leftButton,mouse.midButton,mouse.rightButton,testInstr_mouse.x,testInstr_mouse.y,testInstr_mouse.leftButton,testInstr_mouse.midButton,testInstr_mouse.rightButton,test_mouse.x,test_mouse.y,test_mouse.leftButton,test_mouse.midButton,test_mouse.rightButton,test_response.text,test_loop.thisRepN,test_loop.thisTrialN,test_loop.thisN,test_loop.thisIndex,test_loop.ran
0.242592635,-0.185185185,1,0,0,00074,2023-10-25_17h43.34.200,vbt_B1_day3,2022.2.4,Win32,59.99880002,,,,,,,,,,,,,,,,,,,,,,,,,,,,,,,,,,,,,,,,,,,,,
,,,,,00074,2023-10-25_17h43.34.200,vbt_B1_day3,2022.2.4,Win32,59.99880002,0.242592635,-0.185185185,1,0,0,,,,,,,,,,,,,,,,,,,,,,,,,,,,,,,,,,,,,,,,
,,,,,00074,2023-10-25_17h43.34.200,vbt_B1_day3,2022.2.4,Win32,59.99880002,,,,,,down,0,2.6359,,-0.083333333,-0.180555556,1,0,0,0,0,0,108,1,excuus,images/br_excuus.png,images/cb_excuus.png,0,,,,,,,,,,,,,,,,,,,,,,
,,,,,00074,2023-10-25_17h43.34.200,vbt_B1_day3,2022.2.4,Win32,59.99880002,,,,,,down,0,3.0228,,-0.083333333,-0.180555556,1,0,0,0,1,1,15,1,soda,images/br_soda.png,images/cb_soda.png,0,,,,,,,,,,,,,,,,,,,,,,
,,,,,00074,2023-10-25_17h43.34.200,vbt_B1_day3,2022.2.4,Win32,59.99880002,,,,,,down,0,1.8523,,-0.083333333,-0.180555556,1,0,0,0,2,2,157,1,uitlaat,images/br_uitlaat.png,images/cb_uitlaat.png,0,,,,,,,,,,,,,,,,,,,,,,
,,,,,00074,2023-10-25_17h43.34.200,vbt_B1_day3,2022.2.4,Win32,59.99880002,,,,,,down,0,1.3727,,-0.083333333,-0.180555556,1,0,0,0,3,3,84,1,lokken,images/br_lokken.png,images/cb_lokken.png,0,,,,,,,,,,,,,,,,,,,,,,
,,,,,00074,2023-10-25_17h43.34.200,vbt_B1_day3,2022.2.4,Win32,59.99880002,,,,,,down,0,17.7955,,0.238888917,-0.187037079,1,0,0,0,4,4,181,1,toegeven,images/br_toegeven.png,images/cb_toegeven.png,1,toegeven,,,,,,,,,,,,,,,,,,,,,
,,,,,00074,2023-10-25_17h43.34.200,vbt_B1_day3,2022.2.4,Win32,59.99880002,,,,,,down,0,0.517,,0.238888917,-0.187037079,1,0,0,0,5,5,37,1,mijn,images/br_mijn.png,images/cb_mijn.png,0,,,,,,,,,,,,,,,,,,,,,,
,,,,,00074,2023-10-25_17h43.34.200,vbt_B1_day3,2022.2.4,Win32,59.99880002,,,,,,down,0,5.2679,,0.238888917,-0.187037079,1,0,0,0,6,6,170,1,schatten,images/br_schatten.png,images/cb_schatten.png,0,,,,,,,,,,,,,,,,,,,,,,
,,,,,00074,2023-10-25_17h43.34.200,vbt_B1_day3,2022.2.4,Win32,59.99880002,,,,,,down,0,2.0297,,0.238888917,-0.187037079,1,0,0,0,7,7,107,1,maling,images/br_maling.png,images/cb_maling.png,0,,,,,,,,,,,,,,,,,,,,,,
,,,,,00074,2023-10-25_17h43.34.200,vbt_B1_day3,2022.2.4,Win32,59.99880002,,,,,,down,0,0.3092,,0.238888917,-0.187037079,1,0,0,0,8,8,134,1,geliefd,images/br_geliefd.png,images/cb_geliefd.png,0,,,,,,,,,,,,,,,,,,,,,,
,,,,,00074,2023-10-25_17h43.34.200,vbt_B1_day3,2022.2.4,Win32,59.99880002,,,,,,down,0,1.2177,,0.238888917,-0.187037079,1,0,0,0,9,9,135,1,gedicht,images/br_gedicht.png,images/cb_gedicht.png,0,,,,,,,,,,,,,,,,,,,,,,
,,,,,00074,2023-10-25_17h43.34.200,vbt_B1_day3,2022.2.4,Win32,59.99880002,,,,,,down,0,5.6594,,0.238888917,-0.187037079,1,0,0,0,10,10,105,1,wijlen,images/br_wijlen.png,images/cb_wijlen.png,0,,,,,,,,,,,,,,,,,,,,,,
,,,,,00074,2023-10-25_17h43.34.200,vbt_B1_day3,2022.2.4,Win32,59.99880002,,,,,,down,0,1.1861,,0.238888917,-0.187037079,1,0,0,0,11,11,150,1,gegeven,images/br_gegeven.png,images/cb_gegeven.png,0,,,,,,,,,,,,,,,,,,,,,,
,,,,,00074,2023-10-25_17h43.34.200,vbt_B1_day3,2022.2.4,Win32,59.99880002,,,,,,down,0,0.1445,,0.238888917,-0.187037079,1,0,0,0,12,12,123,1,hiervan,images/br_hiervan.png,images/cb_hiervan.png,0,,,,,,,,,,,,,,,,,,,,,,
,,,,,00074,2023-10-25_17h43.34.200,vbt_B1_day3,2022.2.4,Win32,59.99880002,,,,,,down,0,2.0887,,0.238888917,-0.187037079,1,0,0,0,13,13,197,1,spanning,images/br_spanning.png,images/cb_spanning.png,0,,,,,,,,,,,,,,,,,,,,,,
,,,,,00074,2023-10-25_17h43.34.200,vbt_B1_day3,2022.2.4,Win32,59.99880002,,,,,,down,0,2.1809,,0.175925926,-0.099074116,1,0,0,0,14,14,92,1,geheim,images/br_geheim.png,images/cb_geheim.png,0,,,,,,,,,,,,,,,,,,,,,,
,,,,,00074,2023-10-25_17h43.34.200,vbt_B1_day3,2022.2.4,Win32,59.99880002,,,,,,down,0,0.619,,0.175925926,-0.099074116,1,0,0,0,15,15,14,1,rijp,images/br_rijp.png,images/cb_rijp.png,0,,,,,,,,,,,,,,,,,,,,,,
,,,,,00074,2023-10-25_17h43.34.200,vbt_B1_day3,2022.2.4,Win32,59.99880002,,,,,,down,0,0.6482,,0.175925926,-0.099074116,1,0,0,0,16,16,39,1,laag,images/br_laag.png,images/cb_laag.png,0,,,,,,,,,,,,,,,,,,,,,,
,,,,,00074,2023-10-25_17h43.34.200,vbt_B1_day3,2022.2.4,Win32,59.99880002,,,,,,down,0,0.6346,,0.175925926,-0.099074116,1,0,0,0,17,17,174,1,stemming,images/br_stemming.png,images/cb_stemming.png,0,,,,,,,,,,,,,,,,,,,,,,
,,,,,00074,2023-10-25_17h43.34.200,vbt_B1_day3,2022.2.4,Win32,59.99880002,,,,,,down,0,0.1993,,0.175925926,-0.099074116,1,0,0,0,18,18,64,1,wegen,images/br_wegen.png,images/cb_wegen.png,0,,,,,,,,,,,,,,,,,,,,,,
,,,,,00074,2023-10-25_17h43.34.200,vbt_B1_day3,2022.2.4,Win32,59.99880002,,,,,,down,0,0.1329,,0.175925926,-0.099074116,1,0,0,0,19,19,66,1,lever,images/br_lever.png,images/cb_lever.png,0,,,,,,,,,,,,,,,,,,,,,,
,,,,,00074,2023-10-25_17h43.34.200,vbt_B1_day3,2022.2.4,Win32,59.99880002,,,,,,down,0,1.6843,,0.175925926,-0.099074116,1,0,0,0,20,20,175,1,heengaan,images/br_heengaan.png,images/cb_heengaan.png,0,,,,,,,,,,,,,,,,,,,,,,
,,,,,00074,2023-10-25_17h43.34.200,vbt_B1_day3,2022.2.4,Win32,59.99880002,,,,,,down,0,0.3177,,0.175925926,-0.099074116,1,0,0,0,21,21,111,1,ticket,images/br_ticket.png,images/cb_ticket.png,0,,,,,,,,,,,,,,,,,,,,,,
,,,,,00074,2023-10-25_17h43.34.200,vbt_B1_day3,2022.2.4,Win32,59.99880002,,,,,,down,0,1.9507,,0.175925926,-0.099074116,1,0,0,0,22,22,55,1,praat,images/br_praat.png,images/cb_praat.png,0,,,,,,,,,,,,,,,,,,,,,,
,,,,,00074,2023-10-25_17h43.34.200,vbt_B1_day3,2022.2.4,Win32,59.99880002,,,,,,down,0,0.2095,,0.175925926,-0.099074116,1,0,0,0,23,23,85,1,heilig,images/br_heilig.png,images/cb_heilig.png,0,,,,,,,,,,,,,,,,,,,,,,
,,,,,00074,2023-10-25_17h43.34.200,vbt_B1_day3,2022.2.4,Win32,59.99880002,,,,,,down,0,0.6513,,0.175925926,-0.099074116,1,0,0,0,24,24,81,1,dubbel,images/br_dubbel.png,images/cb_dubbel.png,0,,,,,,,,,,,,,,,,,,,,,,
,,,,,00074,2023-10-25_17h43.34.200,vbt_B1_day3,2022.2.4,Win32,59.99880002,,,,,,down,0,2.2841,,0.175925926,-0.099074116,1,0,0,0,25,25,122,1,waarvan,images/br_waarvan.png,images/cb_waarvan.png,0,,,,,,,,,,,,,,,,,,,,,,
,,,,,00074,2023-10-25_17h43.34.200,vbt_B1_day3,2022.2.4,Win32,59.99880002,,,,,,down,0,0.2357,,0.175925926,-0.099074116,1,0,0,0,26,26,124,1,bloeien,images/br_bloeien.png,images/cb_bloeien.png,0,,,,,,,,,,,,,,,,,,,,,,
,,,,,00074,2023-10-25_17h43.34.200,vbt_B1_day3,2022.2.4,Win32,59.99880002,,,,,,down,0,0.0701,,0.175925926,-0.099074116,1,0,0,0,27,27,160,1,daarheen,images/br_daarheen.png,images/cb_daarheen.png,0,,,,,,,,,,,,,,,,,,,,,,
,,,,,00074,2023-10-25_17h43.34.200,vbt_B1_day3,2022.2.4,Win32,59.99880002,,,,,,down,0,3.4908,,0.175925926,-0.099074116,1,0,0,0,28,28,20,1,site,images/br_site.png,images/cb_site.png,1,site,,,,,,,,,,,,,,,,,,,,,
,,,,,00074,2023-10-25_17h43.34.200,vbt_B1_day3,2022.2.4,Win32,59.99880002,,,,,,down,0,0.3053,,0.175925926,-0.099074116,1,0,0,0,29,29,88,1,boeien,images/br_boeien.png,images/cb_boeien.png,0,,,,,,,,,,,,,,,,,,,,,,
,,,,,00074,2023-10-25_17h43.34.200,vbt_B1_day3,2022.2.4,Win32,59.99880002,,,,,,down,0,1.7153,,0.175925926,-0.099074116,1,0,0,0,30,30,4,1,moes,images/br_moes.png,images/cb_moes.png,0,,,,,,,,,,,,,,,,,,,,,,
,,,,,00074,2023-10-25_17h43.34.200,vbt_B1_day3,2022.2.4,Win32,59.99880002,,,,,,down,0,0.5397,,0.175925926,-0.099074116,1,0,0,0,31,31,153,1,vervoer,images/br_vervoer.png,images/cb_vervoer.png,0,,,,,,,,,,,,,,,,,,,,,,
,,,,,00074,2023-10-25_17h43.34.200,vbt_B1_day3,2022.2.4,Win32,59.99880002,,,,,,down,0,0.5691,,0.175925926,-0.099074116,1,0,0,0,32,32,46,1,jagen,images/br_jagen.png,images/cb_jagen.png,0,,,,,,,,,,,,,,,,,,,,,,
,,,,,00074,2023-10-25_17h43.34.200,vbt_B1_day3,2022.2.4,Win32,59.99880002,,,,,,down,0,0.3017,,0.175925926,-0.099074116,1,0,0,0,33,33,191,1,opheffen,images/br_opheffen.png,images/cb_opheffen.png,0,,,,,,,,,,,,,,,,,,,,,,
,,,,,00074,2023-10-25_17h43.34.200,vbt_B1_day3,2022.2.4,Win32,59.99880002,,,,,,down,0,0.0005,,0.175925926,-0.099074116,1,0,0,0,34,34,185,1,mijnheer,images/br_mijnheer.png,images/cb_mijnheer.png,0,,,,,,,,,,,,,,,,,,,,,,
,,,,,00074,2023-10-25_17h43.34.200,vbt_B1_day3,2022.2.4,Win32,59.99880002,,,,,,down,0,0.4846,,0.175925926,-0.099074116,1,0,0,0,35,35,163,1,schuilen,images/br_schuilen.png,images/cb_schuilen.png,0,,,,,,,,,,,,,,,,,,,,,,
,,,,,00074,2023-10-25_17h43.34.200,vbt_B1_day3,2022.2.4,Win32,59.99880002,,,,,,down,0,1.4832,,0.175925926,-0.099074116,1,0,0,0,36,36,119,1,liefje,images/br_liefje.png,images/cb_liefje.png,0,,,,,,,,,,,,,,,,,,,,,,
,,,,,00074,2023-10-25_17h43.34.200,vbt_B1_day3,2022.2.4,Win32,59.99880002,,,,,,down,0,8.2674,,0.175925926,-0.099074116,1,0,0,0,37,37,142,1,snuiven,images/br_snuiven.png,images/cb_snuiven.png,1,snuiven,,,,,,,,,,,,,,,,,,,,,
,,,,,00074,2023-10-25_17h43.34.200,vbt_B1_day3,2022.2.4,Win32,59.99880002,,,,,,down,0,0.3551,,0.175925926,-0.099074116,1,0,0,0,38,38,93,1,waarop,images/br_waarop.png,images/cb_waarop.png,0,,,,,,,,,,,,,,,,,,,,,,
,,,,,00074,2023-10-25_17h43.34.200,vbt_B1_day3,2022.2.4,Win32,59.99880002,,,,,,down,0,0.345,,0.175925926,-0.099074116,1,0,0,0,39,39,149,1,redding,images/br_redding.png,images/cb_redding.png,0,,,,,,,,,,,,,,,,,,,,,,
,,,,,00074,2023-10-25_17h43.34.200,vbt_B1_day3,2022.2.4,Win32,59.99880002,,,,,,down,0,0.285,,0.175925926,-0.099074116,1,0,0,0,40,40,86,1,woning,images/br_woning.png,images/cb_woning.png,0,,,,,,,,,,,,,,,,,,,,,,
,,,,,00074,2023-10-25_17h43.34.200,vbt_B1_day3,2022.2.4,Win32,59.99880002,,,,,,down,0,2.3933,,0.175925926,-0.099074116,1,0,0,0,41,41,26,1,leuk,images/br_leuk.png,images/cb_leuk.png,0,,,,,,,,,,,,,,,,,,,,,,
,,,,,00074,2023-10-25_17h43.34.200,vbt_B1_day3,2022.2.4,Win32,59.99880002,,,,,,down,0,1.5188,,0.175925926,-0.099074116,1,0,0,0,42,42,116,1,besmet,images/br_besmet.png,images/cb_besmet.png,0,,,,,,,,,,,,,,,,,,,,,,
,,,,,00074,2023-10-25_17h43.34.200,vbt_B1_day3,2022.2.4,Win32,59.99880002,,,,,,down,0,2.0862,,0.175925926,-0.099074116,1,0,0,0,43,43,76,1,afval,images/br_afval.png,images/cb_afval.png,0,,,,,,,,,,,,,,,,,,,,,,
,,,,,00074,2023-10-25_17h43.34.200,vbt_B1_day3,2022.2.4,Win32,59.99880002,,,,,,down,0,0.6899,,0.175925926,-0.099074116,1,0,0,0,44,44,190,1,goedkoop,images/br_goedkoop.png,images/cb_goedkoop.png,0,,,,,,,,,,,,,,,,,,,,,,
,,,,,00074,2023-10-25_17h43.34.200,vbt_B1_day3,2022.2.4,Win32,59.99880002,,,,,,down,0,4.09,,0.175925926,-0.099074116,1,0,0,0,45,45,12,1,kust,images/br_kust.png,images/cb_kust.png,0,,,,,,,,,,,,,,,,,,,,,,
,,,,,00074,2023-10-25_17h43.34.200,vbt_B1_day3,2022.2.4,Win32,59.99880002,,,,,,down,0,0.1557,,0.175925926,-0.099074116,1,0,0,0,46,46,159,1,sufferd,images/br_sufferd.png,images/cb_sufferd.png,0,,,,,,,,,,,,,,,,,,,,,,
,,,,,00074,2023-10-25_17h43.34.200,vbt_B1_day3,2022.2.4,Win32,59.99880002,,,,,,down,0,1.4887,,0.175925926,-0.099074116,1,0,0,0,47,47,189,1,aanraden,images/br_aanraden.png,images/cb_aanraden.png,0,,,,,,,,,,,,,,,,,,,,,,
,,,,,00074,2023-10-25_17h43.34.200,vbt_B1_day3,2022.2.4,Win32,59.99880002,,,,,,down,0,8.6829,,0.175925926,-0.099074116,1,0,0,0,48,48,22,1,stof,images/br_stof.png,images/cb_stof.png,1,stof,,,,,,,,,,,,,,,,,,,,,
,,,,,00074,2023-10-25_17h43.34.200,vbt_B1_day3,2022.2.4,Win32,59.99880002,,,,,,down,0,1.5255,,-0.008333347,-0.242592635,1,0,0,0,49,49,120,1,klimmen,images/br_klimmen.png,images/cb_klimmen.png,0,,,,,,,,,,,,,,,,,,,,,,
,,,,,00074,2023-10-25_17h43.34.200,vbt_B1_day3,2022.2.4,Win32,59.99880002,,,,,,down,0,0.1675,,-0.008333347,-0.242592635,1,0,0,0,50,50,2,1,jaar,images/br_jaar.png,images/cb_jaar.png,0,,,,,,,,,,,,,,,,,,,,,,
,,,,,00074,2023-10-25_17h43.34.200,vbt_B1_day3,2022.2.4,Win32,59.99880002,,,,,,down,0,7.7041,,-0.008333347,-0.242592635,1,0,0,0,51,51,140,1,blijven,images/br_blijven.png,images/cb_blijven.png,1,blijven,,,,,,,,,,,,,,,,,,,,,
,,,,,00074,2023-10-25_17h43.34.200,vbt_B1_day3,2022.2.4,Win32,59.99880002,,,,,,down,0,5.6032,,-0.008333347,-0.242592635,1,0,0,0,52,52,21,1,mist,images/br_mist.png,images/cb_mist.png,1,mist,,,,,,,,,,,,,,,,,,,,,
,,,,,00074,2023-10-25_17h43.34.200,vbt_B1_day3,2022.2.4,Win32,59.99880002,,,,,,down,0,12.9172,,0.083333333,-0.247222265,1,0,0,0,53,53,182,1,bijkomen,images/br_bijkomen.png,images/cb_bijkomen.png,1,bidkomen,,,,,,,,,,,,,,,,,,,,,
,,,,,00074,2023-10-25_17h43.34.200,vbt_B1_day3,2022.2.4,Win32,59.99880002,,,,,,down,0,3.6672,,0.083333333,-0.247222265,1,0,0,0,54,54,139,1,stiekem,images/br_stiekem.png,images/cb_stiekem.png,0,,,,,,,,,,,,,,,,,,,,,,
,,,,,00074,2023-10-25_17h43.34.200,vbt_B1_day3,2022.2.4,Win32,59.99880002,,,,,,down,0,4.4177,,0.083333333,-0.247222265,1,0,0,0,55,55,193,1,weeshuis,images/br_weeshuis.png,images/cb_weeshuis.png,0,,,,,,,,,,,,,,,,,,,,,,
,,,,,00074,2023-10-25_17h43.34.200,vbt_B1_day3,2022.2.4,Win32,59.99880002,,,,,,down,0,28.0538,,0.071296339,-0.297222208,1,0,0,0,56,56,100,1,geduld,images/br_geduld.png,images/cb_geduld.png,1,geduld,,,,,,,,,,,,,,,,,,,,,
,,,,,00074,2023-10-25_17h43.34.200,vbt_B1_day3,2022.2.4,Win32,59.99880002,,,,,,down,0,2.3945,,0.071296339,-0.297222208,1,0,0,0,57,57,138,1,akkoord,images/br_akkoord.png,images/cb_akkoord.png,0,,,,,,,,,,,,,,,,,,,,,,
,,,,,00074,2023-10-25_17h43.34.200,vbt_B1_day3,2022.2.4,Win32,59.99880002,,,,,,down,0,0.9349,,0.071296339,-0.297222208,1,0,0,0,58,58,89,1,slapen,images/br_slapen.png,images/cb_slapen.png,0,,,,,,,,,,,,,,,,,,,,,,
,,,,,00074,2023-10-25_17h43.34.200,vbt_B1_day3,2022.2.4,Win32,59.99880002,,,,,,down,0,0.7012,,0.071296339,-0.297222208,1,0,0,0,59,59,33,1,vlek,images/br_vlek.png,images/cb_vlek.png,0,,,,,,,,,,,,,,,,,,,,,,
,,,,,00074,2023-10-25_17h43.34.200,vbt_B1_day3,2022.2.4,Win32,59.99880002,,,,,,down,0,1.2343,,0.071296339,-0.297222208,1,0,0,0,60,60,28,1,stal,images/br_stal.png,images/cb_stal.png,0,,,,,,,,,,,,,,,,,,,,,,
,,,,,00074,2023-10-25_17h43.34.200,vbt_B1_day3,2022.2.4,Win32,59.99880002,,,,,,down,0,0.9006,,0.071296339,-0.297222208,1,0,0,0,61,61,198,1,bedoelen,images/br_bedoelen.png,images/cb_bedoelen.png,0,,,,,,,,,,,,,,,,,,,,,,
,,,,,00074,2023-10-25_17h43.34.200,vbt_B1_day3,2022.2.4,Win32,59.99880002,,,,,,down,0,1.5993,,0.071296339,-0.297222208,1,0,0,0,62,62,96,1,slagen,images/br_slagen.png,images/cb_slagen.png,0,,,,,,,,,,,,,,,,,,,,,,
,,,,,00074,2023-10-25_17h43.34.200,vbt_B1_day3,2022.2.4,Win32,59.99880002,,,,,,down,0,1.8554,,0.073148162,-0.297222208,1,0,0,0,63,63,196,1,nakijken,images/br_nakijken.png,images/cb_nakijken.png,0,,,,,,,,,,,,,,,,,,,,,,
,,,,,00074,2023-10-25_17h43.34.200,vbt_B1_day3,2022.2.4,Win32,59.99880002,,,,,,down,0,0.9865,,0.073148162,-0.297222208,1,0,0,0,64,64,133,1,seizoen,images/br_seizoen.png,images/cb_seizoen.png,0,,,,,,,,,,,,,,,,,,,,,,
,,,,,00074,2023-10-25_17h43.34.200,vbt_B1_day3,2022.2.4,Win32,59.99880002,,,,,,down,0,1.1677,,0.073148162,-0.297222208,1,0,0,0,65,65,51,1,samen,images/br_samen.png,images/cb_samen.png,0,,,,,,,,,,,,,,,,,,,,,,
,,,,,00074,2023-10-25_17h43.34.200,vbt_B1_day3,2022.2.4,Win32,59.99880002,,,,,,down,0,3.1289,,0.073148162,-0.297222208,1,0,0,0,66,66,102,1,legaal,images/br_legaal.png,images/cb_legaal.png,1,legaal,,,,,,,,,,,,,,,,,,,,,
,,,,,00074,2023-10-25_17h43.34.200,vbt_B1_day3,2022.2.4,Win32,59.99880002,,,,,,down,0,0.4326,,0.073148162,-0.297222208,1,0,0,0,67,67,31,1,poes,images/br_poes.png,images/cb_poes.png,0,,,,,,,,,,,,,,,,,,,,,,
,,,,,00074,2023-10-25_17h43.34.200,vbt_B1_day3,2022.2.4,Win32,59.99880002,,,,,,down,0,0.7811,,0.073148162,-0.297222208,1,0,0,0,68,68,156,1,rechten,images/br_rechten.png,images/cb_rechten.png,0,,,,,,,,,,,,,,,,,,,,,,
,,,,,00074,2023-10-25_17h43.34.200,vbt_B1_day3,2022.2.4,Win32,59.99880002,,,,,,down,0,3.6665,,0.073148162,-0.297222208,1,0,0,0,69,69,141,1,knielen,images/br_knielen.png,images/cb_knielen.png,1,knielen,,,,,,,,,,,,,,,,,,,,,
,,,,,00074,2023-10-25_17h43.34.200,vbt_B1_day3,2022.2.4,Win32,59.99880002,,,,,,down,0,0.0526,,0.073148162,-0.297222208,1,0,0,0,70,70,73,1,volop,images/br_volop.png,images/cb_volop.png,0,,,,,,,,,,,,,,,,,,,,,,
,,,,,00074,2023-10-25_17h43.34.200,vbt_B1_day3,2022.2.4,Win32,59.99880002,,,,,,down,0,0.1169,,0.073148162,-0.297222208,1,0,0,0,71,71,187,1,opkijken,images/br_opkijken.png,images/cb_opkijken.png,0,,,,,,,,,,,,,,,,,,,,,,
,,,,,00074,2023-10-25_17h43.34.200,vbt_B1_day3,2022.2.4,Win32,59.99880002,,,,,,down,0,0.5885,,0.073148162,-0.297222208,1,0,0,0,72,72,3,1,mand,images/br_mand.png,images/cb_mand.png,0,,,,,,,,,,,,,,,,,,,,,,
,,,,,00074,2023-10-25_17h43.34.200,vbt_B1_day3,2022.2.4,Win32,59.99880002,,,,,,down,0,0.7012,,0.073148162,-0.297222208,1,0,0,0,73,73,70,1,ijdel,images/br_ijdel.png,images/cb_ijdel.png,0,,,,,,,,,,,,,,,,,,,,,,
,,,,,00074,2023-10-25_17h43.34.200,vbt_B1_day3,2022.2.4,Win32,59.99880002,,,,,,down,0,2.8672,,0.183333362,-0.087962963,1,0,0,0,74,74,129,1,verhaal,images/br_verhaal.png,images/cb_verhaal.png,0,,,,,,,,,,,,,,,,,,,,,,
,,,,,00074,2023-10-25_17h43.34.200,vbt_B1_day3,2022.2.4,Win32,59.99880002,,,,,,down,0,12.0667,,0.183333362,-0.087962963,1,0,0,0,75,75,63,1,flirt,images/br_flirt.png,images/cb_flirt.png,1,flirt,,,,,,,,,,,,,,,,,,,,,
,,,,,00074,2023-10-25_17h43.34.200,vbt_B1_day3,2022.2.4,Win32,59.99880002,,,,,,down,0,0.7056,,0.183333362,-0.087962963,1,0,0,0,76,76,0,1,slak,images/br_slak.png,images/cb_slak.png,0,,,,,,,,,,,,,,,,,,,,,,
,,,,,00074,2023-10-25_17h43.34.200,vbt_B1_day3,2022.2.4,Win32,59.99880002,,,,,,down,0,0.5392,,0.183333362,-0.087962963,1,0,0,0,77,77,68,1,schat,images/br_schat.png,images/cb_schat.png,0,,,,,,,,,,,,,,,,,,,,,,
,,,,,00074,2023-10-25_17h43.34.200,vbt_B1_day3,2022.2.4,Win32,59.99880002,,,,,,down,0,0.0116,,0.183333362,-0.087962963,1,0,0,0,78,78,145,1,invloed,images/br_invloed.png,images/cb_invloed.png,0,,,,,,,,,,,,,,,,,,,,,,
,,,,,00074,2023-10-25_17h43.34.200,vbt_B1_day3,2022.2.4,Win32,59.99880002,,,,,,down,0,2.1561,,0.183333362,-0.087962963,1,0,0,0,79,79,147,1,komisch,images/br_komisch.png,images/cb_komisch.png,0,,,,,,,,,,,,,,,,,,,,,,
,,,,,00074,2023-10-25_17h43.34.200,vbt_B1_day3,2022.2.4,Win32,59.99880002,,,,,,down,0,5.2862,,0.183333362,-0.087962963,1,0,0,0,80,80,148,1,smullen,images/br_smullen.png,images/cb_smullen.png,0,,,,,,,,,,,,,,,,,,,,,,
,,,,,00074,2023-10-25_17h43.34.200,vbt_B1_day3,2022.2.4,Win32,59.99880002,,,,,,down,0,0.8854,,0.183333362,-0.087962963,1,0,0,0,81,81,50,1,stoom,images/br_stoom.png,images/cb_stoom.png,0,,,,,,,,,,,,,,,,,,,,,,
,,,,,00074,2023-10-25_17h43.34.200,vbt_B1_day3,2022.2.4,Win32,59.99880002,,,,,,down,0,0.2712,,0.183333362,-0.087962963,1,0,0,0,82,82,67,1,zwart,images/br_zwart.png,images/cb_zwart.png,0,,,,,,,,,,,,,,,,,,,,,,
,,,,,00074,2023-10-25_17h43.34.200,vbt_B1_day3,2022.2.4,Win32,59.99880002,,,,,,down,0,0.6598,,0.183333362,-0.087962963,1,0,0,0,83,83,179,1,woestijn,images/br_woestijn.png,images/cb_woestijn.png,0,,,,,,,,,,,,,,,,,,,,,,
,,,,,00074,2023-10-25_17h43.34.200,vbt_B1_day3,2022.2.4,Win32,59.99880002,,,,,,down,0,2.2365,,0.183333362,-0.087962963,1,0,0,0,84,84,192,1,schaamte,images/br_schaamte.png,images/cb_schaamte.png,0,,,,,,,,,,,,,,,,,,,,,,
,,,,,00074,2023-10-25_17h43.34.200,vbt_B1_day3,2022.2.4,Win32,59.99880002,,,,,,down,0,1.0226,,0.183333362,-0.087962963,1,0,0,0,85,85,11,1,mode,images/br_mode.png,images/cb_mode.png,0,,,,,,,,,,,,,,,,,,,,,,
,,,,,00074,2023-10-25_17h43.34.200,vbt_B1_day3,2022.2.4,Win32,59.99880002,,,,,,down,0,1.9806,,0.183333362,-0.087962963,1,0,0,0,86,86,146,1,opkomen,images/br_opkomen.png,images/cb_opkomen.png,0,,,,,,,,,,,,,,,,,,,,,,
,,,,,00074,2023-10-25_17h43.34.200,vbt_B1_day3,2022.2.4,Win32,59.99880002,,,,,,down,0,0.0292,,0.183333362,-0.087962963,1,0,0,0,87,87,99,1,koffie,images/br_koffie.png,images/cb_koffie.png,0,,,,,,,,,,,,,,,,,,,,,,
,,,,,00074,2023-10-25_17h43.34.200,vbt_B1_day3,2022.2.4,Win32,59.99880002,,,,,,down,0,1.1163,,0.183333362,-0.087962963,1,0,0,0,88,88,131,1,opzicht,images/br_opzicht.png,images/cb_opzicht.png,0,,,,,,,,,,,,,,,,,,,,,,
,,,,,00074,2023-10-25_17h43.34.200,vbt_B1_day3,2022.2.4,Win32,59.99880002,,,,,,down,0,6.3172,,0.183333362,-0.087962963,1,0,0,0,89,89,23,1,zout,images/br_zout.png,images/cb_zout.png,1,zout,,,,,,,,,,,,,,,,,,,,,
,,,,,00074,2023-10-25_17h43.34.200,vbt_B1_day3,2022.2.4,Win32,59.99880002,,,,,,down,0,2.4186,,0.185185185,-0.08888891,1,0,0,0,90,90,91,1,gezond,images/br_gezond.png,images/cb_gezond.png,0,,,,,,,,,,,,,,,,,,,,,,
,,,,,00074,2023-10-25_17h43.34.200,vbt_B1_day3,2022.2.4,Win32,59.99880002,,,,,,down,0,2.5731,,0.185185185,-0.08888891,1,0,0,0,91,91,44,1,flits,images/br_flits.png,images/cb_flits.png,0,,,,,,,,,,,,,,,,,,,,,,
,,,,,00074,2023-10-25_17h43.34.200,vbt_B1_day3,2022.2.4,Win32,59.99880002,,,,,,down,0,0.9441,,0.185185185,-0.08888891,1,0,0,0,92,92,18,1,blik,images/br_blik.png,images/cb_blik.png,0,,,,,,,,,,,,,,,,,,,,,,
,,,,,00074,2023-10-25_17h43.34.200,vbt_B1_day3,2022.2.4,Win32,59.99880002,,,,,,down,0,0.2221,,0.185185185,-0.08888891,1,0,0,0,93,93,48,1,steel,images/br_steel.png,images/cb_steel.png,0,,,,,,,,,,,,,,,,,,,,,,
,,,,,00074,2023-10-25_17h43.34.200,vbt_B1_day3,2022.2.4,Win32,59.99880002,,,,,,down,0,0.8189,,0.185185185,-0.08888891,1,0,0,0,94,94,97,1,loyaal,images/br_loyaal.png,images/cb_loyaal.png,0,,,,,,,,,,,,,,,,,,,,,,
,,,,,00074,2023-10-25_17h43.34.200,vbt_B1_day3,2022.2.4,Win32,59.99880002,,,,,,down,0,0.6097,,0.185185185,-0.08888891,1,0,0,0,95,95,45,1,piste,images/br_piste.png,images/cb_piste.png,0,,,,,,,,,,,,,,,,,,,,,,
,,,,,00074,2023-10-25_17h43.34.200,vbt_B1_day3,2022.2.4,Win32,59.99880002,,,,,,down,0,1.1387,,0.185185185,-0.08888891,1,0,0,0,96,96,117,1,kennis,images/br_kennis.png,images/cb_kennis.png,0,,,,,,,,,,,,,,,,,,,,,,
,,,,,00074,2023-10-25_17h43.34.200,vbt_B1_day3,2022.2.4,Win32,59.99880002,,,,,,down,0,17.59,,0.113888917,-0.122222265,1,0,0,0,97,97,143,1,hechten,images/br_hechten.png,images/cb_hechten.png,1,hechten,,,,,,,,,,,,,,,,,,,,,
,,,,,00074,2023-10-25_17h43.34.200,vbt_B1_day3,2022.2.4,Win32,59.99880002,,,,,,down,0,3.2721,,0.113888917,-0.122222265,1,0,0,0,98,98,49,1,laken,images/br_laken.png,images/cb_laken.png,0,,,,,,,,,,,,,,,,,,,,,,
,,,,,00074,2023-10-25_17h43.34.200,vbt_B1_day3,2022.2.4,Win32,59.99880002,,,,,,down,0,0.9923,,0.113888917,-0.122222265,1,0,0,0,99,99,59,1,kring,images/br_kring.png,images/cb_kring.png,0,,,,,,,,,,,,,,,,,,,,,,
,,,,,00074,2023-10-25_17h43.34.200,vbt_B1_day3,2022.2.4,Win32,59.99880002,,,,,,down,0,0.7029,,0.113888917,-0.122222265,1,0,0,0,100,100,169,1,oprotten,images/br_oprotten.png,images/cb_oprotten.png,0,,,,,,,,,,,,,,,,,,,,,,
,,,,,00074,2023-10-25_17h43.34.200,vbt_B1_day3,2022.2.4,Win32,59.99880002,,,,,,down,0,0.8022,,0.113888917,-0.122222265,1,0,0,0,101,101,106,1,zingen,images/br_zingen.png,images/cb_zingen.png,0,,,,,,,,,,,,,,,,,,,,,,
,,,,,00074,2023-10-25_17h43.34.200,vbt_B1_day3,2022.2.4,Win32,59.99880002,,,,,,down,0,1.6057,,0.113888917,-0.122222265,1,0,0,0,102,102,112,1,lukken,images/br_lukken.png,images/cb_lukken.png,0,,,,,,,,,,,,,,,,,,,,,,
,,,,,00074,2023-10-25_17h43.34.200,vbt_B1_day3,2022.2.4,Win32,59.99880002,,,,,,down,0,2.874,,0.140740783,-0.100000028,1,0,0,0,103,103,30,1,uien,images/br_uien.png,images/cb_uien.png,0,,,,,,,,,,,,,,,,,,,,,,
,,,,,00074,2023-10-25_17h43.34.200,vbt_B1_day3,2022.2.4,Win32,59.99880002,,,,,,down,0,4.3462,,0.140740783,-0.100000028,1,0,0,0,104,104,199,1,beseffen,images/br_beseffen.png,images/cb_beseffen.png,0,,,,,,,,,,,,,,,,,,,,,,
,,,,,00074,2023-10-25_17h43.34.200,vbt_B1_day3,2022.2.4,Win32,59.99880002,,,,,,down,0,0.2663,,0.140740783,-0.100000028,1,0,0,0,105,105,9,1,hier,images/br_hier.png,images/cb_hier.png,0,,,,,,,,,,,,,,,,,,,,,,
,,,,,00074,2023-10-25_17h43.34.200,vbt_B1_day3,2022.2.4,Win32,59.99880002,,,,,,down,0,9.3232,,0.140740783,-0.100000028,1,0,0,0,106,106,180,1,openbaar,images/br_openbaar.png,images/cb_openbaar.png,1,openbaar,,,,,,,,,,,,,,,,,,,,,
,,,,,00074,2023-10-25_17h43.34.200,vbt_B1_day3,2022.2.4,Win32,59.99880002,,,,,,down,0,1.3506,,0.140740783,-0.100000028,1,0,0,0,107,107,82,1,muziek,images/br_muziek.png,images/cb_muziek.png,0,,,,,,,,,,,,,,,,,,,,,,
,,,,,00074,2023-10-25_17h43.34.200,vbt_B1_day3,2022.2.4,Win32,59.99880002,,,,,,down,0,0.4429,,0.142592607,-0.100000028,1,0,0,0,108,108,8,1,knie,images/br_knie.png,images/cb_knie.png,0,,,,,,,,,,,,,,,,,,,,,,
,,,,,00074,2023-10-25_17h43.34.200,vbt_B1_day3,2022.2.4,Win32,59.99880002,,,,,,down,0,0.4342,,0.142592607,-0.100000028,1,0,0,0,109,109,151,1,aanzoek,images/br_aanzoek.png,images/cb_aanzoek.png,0,,,,,,,,,,,,,,,,,,,,,,
,,,,,00074,2023-10-25_17h43.34.200,vbt_B1_day3,2022.2.4,Win32,59.99880002,,,,,,down,0,1.9301,,0.142592607,-0.100000028,1,0,0,0,110,110,176,1,techniek,images/br_techniek.png,images/cb_techniek.png,0,,,,,,,,,,,,,,,,,,,,,,
,,,,,00074,2023-10-25_17h43.34.200,vbt_B1_day3,2022.2.4,Win32,59.99880002,,,,,,down,0,1.5929,,0.142592607,-0.100000028,1,0,0,0,111,111,41,1,maken,images/br_maken.png,images/cb_maken.png,0,,,,,,,,,,,,,,,,,,,,,,
,,,,,00074,2023-10-25_17h43.34.200,vbt_B1_day3,2022.2.4,Win32,59.99880002,,,,,,down,0,0.0636,,0.142592607,-0.100000028,1,0,0,0,112,112,56,1,traag,images/br_traag.png,images/cb_traag.png,0,,,,,,,,,,,,,,,,,,,,,,
,,,,,00074,2023-10-25_17h43.34.200,vbt_B1_day3,2022.2.4,Win32,59.99880002,,,,,,down,0,1.0284,,0.142592607,-0.100000028,1,0,0,0,113,113,171,1,aarzelen,images/br_aarzelen.png,images/cb_aarzelen.png,0,,,,,,,,,,,,,,,,,,,,,,
,,,,,00074,2023-10-25_17h43.34.200,vbt_B1_day3,2022.2.4,Win32,59.99880002,,,,,,down,0,0.0787,,0.142592607,-0.100000028,1,0,0,0,114,114,109,1,totaal,images/br_totaal.png,images/cb_totaal.png,0,,,,,,,,,,,,,,,,,,,,,,
,,,,,00074,2023-10-25_17h43.34.200,vbt_B1_day3,2022.2.4,Win32,59.99880002,,,,,,down,0,0.2011,,0.142592607,-0.100000028,1,0,0,0,115,115,155,1,gerucht,images/br_gerucht.png,images/cb_gerucht.png,0,,,,,,,,,,,,,,,,,,,,,,
,,,,,00074,2023-10-25_17h43.34.200,vbt_B1_day3,2022.2.4,Win32,59.99880002,,,,,,down,0,0.0379,,0.142592607,-0.100000028,1,0,0,0,116,116,10,1,leek,images/br_leek.png,images/cb_leek.png,0,,,,,,,,,,,,,,,,,,,,,,
,,,,,00074,2023-10-25_17h43.34.200,vbt_B1_day3,2022.2.4,Win32,59.99880002,,,,,,down,0,7.6122,,0.142592607,-0.100000028,1,0,0,0,117,117,60,1,jasje,images/br_jasje.png,images/cb_jasje.png,1,jasje,,,,,,,,,,,,,,,,,,,,,
,,,,,00074,2023-10-25_17h43.34.200,vbt_B1_day3,2022.2.4,Win32,59.99880002,,,,,,down,0,0.9471,,0.142592607,-0.100000028,1,0,0,0,118,118,80,1,kanjer,images/br_kanjer.png,images/cb_kanjer.png,0,,,,,,,,,,,,,,,,,,,,,,
,,,,,00074,2023-10-25_17h43.34.200,vbt_B1_day3,2022.2.4,Win32,59.99880002,,,,,,down,0,0.4438,,0.142592607,-0.100000028,1,0,0,0,119,119,57,1,steek,images/br_steek.png,images/cb_steek.png,0,,,,,,,,,,,,,,,,,,,,,,
,,,,,00074,2023-10-25_17h43.34.200,vbt_B1_day3,2022.2.4,Win32,59.99880002,,,,,,down,0,0.3715,,0.142592607,-0.100000028,1,0,0,0,120,120,54,1,gebit,images/br_gebit.png,images/cb_gebit.png,0,,,,,,,,,,,,,,,,,,,,,,
,,,,,00074,2023-10-25_17h43.34.200,vbt_B1_day3,2022.2.4,Win32,59.99880002,,,,,,down,0,0.0279,,0.142592607,-0.100000028,1,0,0,0,121,121,35,1,lust,images/br_lust.png,images/cb_lust.png,0,,,,,,,,,,,,,,,,,,,,,,
,,,,,00074,2023-10-25_17h43.34.200,vbt_B1_day3,2022.2.4,Win32,59.99880002,,,,,,down,0,1.498,,0.142592607,-0.100000028,1,0,0,0,122,122,137,1,trekker,images/br_trekker.png,images/cb_trekker.png,0,,,,,,,,,,,,,,,,,,,,,,
,,,,,00074,2023-10-25_17h43.34.200,vbt_B1_day3,2022.2.4,Win32,59.99880002,,,,,,down,0,2.4371,,0.142592607,-0.100000028,1,0,0,0,123,123,104,1,zweven,images/br_zweven.png,images/cb_zweven.png,0,,,,,,,,,,,,,,,,,,,,,,
,,,,,00074,2023-10-25_17h43.34.200,vbt_B1_day3,2022.2.4,Win32,59.99880002,,,,,,down,0,1.5501,,0.145370413,-0.098148134,1,0,0,0,124,124,165,1,feestdag,images/br_feestdag.png,images/cb_feestdag.png,0,,,,,,,,,,,,,,,,,,,,,,
,,,,,00074,2023-10-25_17h43.34.200,vbt_B1_day3,2022.2.4,Win32,59.99880002,,,,,,down,0,1.6957,,0.145370413,-0.098148134,1,0,0,0,125,125,32,1,palm,images/br_palm.png,images/cb_palm.png,0,,,,,,,,,,,,,,,,,,,,,,
,,,,,00074,2023-10-25_17h43.34.200,vbt_B1_day3,2022.2.4,Win32,59.99880002,,,,,,down,0,2.4622,,0.145370413,-0.098148134,1,0,0,0,126,126,186,1,voorraad,images/br_voorraad.png,images/cb_voorraad.png,0,,,,,,,,,,,,,,,,,,,,,,
,,,,,00074,2023-10-25_17h43.34.200,vbt_B1_day3,2022.2.4,Win32,59.99880002,,,,,,down,0,2.1157,,0.145370413,-0.098148134,1,0,0,0,127,127,90,1,geluid,images/br_geluid.png,images/cb_geluid.png,0,,,,,,,,,,,,,,,,,,,,,,
,,,,,00074,2023-10-25_17h43.34.200,vbt_B1_day3,2022.2.4,Win32,59.99880002,,,,,,down,0,0.2663,,0.145370413,-0.098148134,1,0,0,0,128,128,78,1,leren,images/br_leren.png,images/cb_leren.png,0,,,,,,,,,,,,,,,,,,,,,,
,,,,,00074,2023-10-25_17h43.34.200,vbt_B1_day3,2022.2.4,Win32,59.99880002,,,,,,down,0,1.0009,,0.145370413,-0.098148134,1,0,0,0,129,129,13,1,kaal,images/br_kaal.png,images/cb_kaal.png,0,,,,,,,,,,,,,,,,,,,,,,
,,,,,00074,2023-10-25_17h43.34.200,vbt_B1_day3,2022.2.4,Win32,59.99880002,,,,,,down,0,0.7335,,0.145370413,-0.098148134,1,0,0,0,130,130,43,1,klauw,images/br_klauw.png,images/cb_klauw.png,0,,,,,,,,,,,,,,,,,,,,,,
,,,,,00074,2023-10-25_17h43.34.200,vbt_B1_day3,2022.2.4,Win32,59.99880002,,,,,,down,0,1.3513,,0.147222236,-0.098148134,1,0,0,0,131,131,132,1,grappen,images/br_grappen.png,images/cb_grappen.png,0,,,,,,,,,,,,,,,,,,,,,,
,,,,,00074,2023-10-25_17h43.34.200,vbt_B1_day3,2022.2.4,Win32,59.99880002,,,,,,down,0,5.1667,,0.147222236,-0.098148134,1,0,0,0,132,132,101,1,staren,images/br_staren.png,images/cb_staren.png,1,staren,,,,,,,,,,,,,,,,,,,,,
,,,,,00074,2023-10-25_17h43.34.200,vbt_B1_day3,2022.2.4,Win32,59.99880002,,,,,,down,0,0.1968,,0.147222236,-0.098148134,1,0,0,0,133,133,52,1,wagon,images/br_wagon.png,images/cb_wagon.png,0,,,,,,,,,,,,,,,,,,,,,,
,,,,,00074,2023-10-25_17h43.34.200,vbt_B1_day3,2022.2.4,Win32,59.99880002,,,,,,down,0,1.1024,,0.147222236,-0.098148134,1,0,0,0,134,134,87,1,toeval,images/br_toeval.png,images/cb_toeval.png,0,,,,,,,,,,,,,,,,,,,,,,
,,,,,00074,2023-10-25_17h43.34.200,vbt_B1_day3,2022.2.4,Win32,59.99880002,,,,,,down,0,2.9965,,0.147222236,-0.098148134,1,0,0,0,135,135,36,1,vuur,images/br_vuur.png,images/cb_vuur.png,0,,,,,,,,,,,,,,,,,,,,,,
,,,,,00074,2023-10-25_17h43.34.200,vbt_B1_day3,2022.2.4,Win32,59.99880002,,,,,,down,0,1.4168,,0.147222236,-0.098148134,1,0,0,0,136,136,75,1,snoep,images/br_snoep.png,images/cb_snoep.png,0,,,,,,,,,,,,,,,,,,,,,,
,,,,,00074,2023-10-25_17h43.34.200,vbt_B1_day3,2022.2.4,Win32,59.99880002,,,,,,down,0,0.2168,,0.147222236,-0.098148134,1,0,0,0,137,137,40,1,schep,images/br_schep.png,images/cb_schep.png,0,,,,,,,,,,,,,,,,,,,,,,
,,,,,00074,2023-10-25_17h43.34.200,vbt_B1_day3,2022.2.4,Win32,59.99880002,,,,,,down,0,1.3016,,0.147222236,-0.098148134,1,0,0,0,138,138,158,1,innemen,images/br_innemen.png,images/cb_innemen.png,0,,,,,,,,,,,,,,,,,,,,,,
,,,,,00074,2023-10-25_17h43.34.200,vbt_B1_day3,2022.2.4,Win32,59.99880002,,,,,,down,0,0.3341,,0.147222236,-0.098148134,1,0,0,0,139,139,118,1,vinger,images/br_vinger.png,images/cb_vinger.png,0,,,,,,,,,,,,,,,,,,,,,,
,,,,,00074,2023-10-25_17h43.34.200,vbt_B1_day3,2022.2.4,Win32,59.99880002,,,,,,down,0,0.0176,,0.147222236,-0.098148134,1,0,0,0,140,140,34,1,vorm,images/br_vorm.png,images/cb_vorm.png,0,,,,,,,,,,,,,,,,,,,,,,
,,,,,00074,2023-10-25_17h43.34.200,vbt_B1_day3,2022.2.4,Win32,59.99880002,,,,,,down,0,0.907,,0.147222236,-0.098148134,1,0,0,0,141,141,6,1,diep,images/br_diep.png,images/cb_diep.png,0,,,,,,,,,,,,,,,,,,,,,,
,,,,,00074,2023-10-25_17h43.34.200,vbt_B1_day3,2022.2.4,Win32,59.99880002,,,,,,down,0,5.746,,0.147222236,-0.098148134,1,0,0,0,142,142,61,1,groen,images/br_groen.png,images/cb_groen.png,1,groen,,,,,,,,,,,,,,,,,,,,,
,,,,,00074,2023-10-25_17h43.34.200,vbt_B1_day3,2022.2.4,Win32,59.99880002,,,,,,down,0,0.1671,,0.147222236,-0.098148134,1,0,0,0,143,143,113,1,koppen,images/br_koppen.png,images/cb_koppen.png,0,,,,,,,,,,,,,,,,,,,,,,
,,,,,00074,2023-10-25_17h43.34.200,vbt_B1_day3,2022.2.4,Win32,59.99880002,,,,,,down,0,0.6355,,0.147222236,-0.099074116,1,0,0,0,144,144,25,1,plek,images/br_plek.png,images/cb_plek.png,0,,,,,,,,,,,,,,,,,,,,,,
,,,,,00074,2023-10-25_17h43.34.200,vbt_B1_day3,2022.2.4,Win32,59.99880002,,,,,,down,0,0.3226,,0.145370413,-0.101851852,1,0,0,0,145,145,164,1,anarchie,images/br_anarchie.png,images/cb_anarchie.png,0,,,,,,,,,,,,,,,,,,,,,,
,,,,,00074,2023-10-25_17h43.34.200,vbt_B1_day3,2022.2.4,Win32,59.99880002,,,,,,down,0,0.4463,,0.145370413,-0.101851852,1,0,0,0,146,146,58,1,tekst,images/br_tekst.png,images/cb_tekst.png,0,,,,,,,,,,,,,,,,,,,,,,
,,,,,00074,2023-10-25_17h43.34.200,vbt_B1_day3,2022.2.4,Win32,59.99880002,,,,,,down,0,0.5405,,0.145370413,-0.101851852,1,0,0,0,147,147,161,1,attentie,images/br_attentie.png,images/cb_attentie.png,0,,,,,,,,,,,,,,,,,,,,,,
,,,,,00074,2023-10-25_17h43.34.200,vbt_B1_day3,2022.2.4,Win32,59.99880002,,,,,,down,0,0.9383,,0.145370413,-0.101851852,1,0,0,0,148,148,162,1,uitdelen,images/br_uitdelen.png,images/cb_uitdelen.png,0,,,,,,,,,,,,,,,,,,,,,,
,,,,,00074,2023-10-25_17h43.34.200,vbt_B1_day3,2022.2.4,Win32,59.99880002,,,,,,down,0,0.1142,,0.14444443,-0.101851852,1,0,0,0,149,149,5,1,blad,images/br_blad.png,images/cb_blad.png,0,,,,,,,,,,,,,,,,,,,,,,
,,,,,00074,2023-10-25_17h43.34.200,vbt_B1_day3,2022.2.4,Win32,59.99880002,,,,,,down,0,0.2021,,0.14444443,-0.101851852,1,0,0,0,150,150,17,1,taal,images/br_taal.png,images/cb_taal.png,0,,,,,,,,,,,,,,,,,,,,,,
,,,,,00074,2023-10-25_17h43.34.200,vbt_B1_day3,2022.2.4,Win32,59.99880002,,,,,,down,0,1.2686,,0.14444443,-0.101851852,1,0,0,0,151,151,136,1,waarbij,images/br_waarbij.png,images/cb_waarbij.png,0,,,,,,,,,,,,,,,,,,,,,,
,,,,,00074,2023-10-25_17h43.34.200,vbt_B1_day3,2022.2.4,Win32,59.99880002,,,,,,down,0,0.8515,,0.14444443,-0.101851852,1,0,0,0,152,152,184,1,aandelen,images/br_aandelen.png,images/cb_aandelen.png,0,,,,,,,,,,,,,,,,,,,,,,
,,,,,00074,2023-10-25_17h43.34.200,vbt_B1_day3,2022.2.4,Win32,59.99880002,,,,,,down,0,0.2558,,0.14444443,-0.101851852,1,0,0,0,153,153,71,1,bever,images/br_bever.png,images/cb_bever.png,0,,,,,,,,,,,,,,,,,,,,,,
,,,,,00074,2023-10-25_17h43.34.200,vbt_B1_day3,2022.2.4,Win32,59.99880002,,,,,,down,0,0.4357,,0.14444443,-0.101851852,1,0,0,0,154,154,16,1,ziek,images/br_ziek.png,images/cb_ziek.png,0,,,,,,,,,,,,,,,,,,,,,,
,,,,,00074,2023-10-25_17h43.34.200,vbt_B1_day3,2022.2.4,Win32,59.99880002,,,,,,down,0,1.2403,,0.14444443,-0.101851852,1,0,0,0,155,155,74,1,graaf,images/br_graaf.png,images/cb_graaf.png,0,,,,,,,,,,,,,,,,,,,,,,
,,,,,00074,2023-10-25_17h43.34.200,vbt_B1_day3,2022.2.4,Win32,59.99880002,,,,,,down,0,0.7222,,0.14444443,-0.101851852,1,0,0,0,156,156,29,1,baas,images/br_baas.png,images/cb_baas.png,0,,,,,,,,,,,,,,,,,,,,,,
,,,,,00074,2023-10-25_17h43.34.200,vbt_B1_day3,2022.2.4,Win32,59.99880002,,,,,,down,0,0.5601,,0.14444443,-0.101851852,1,0,0,0,157,157,27,1,dans,images/br_dans.png,images/cb_dans.png,0,,,,,,,,,,,,,,,,,,,,,,
,,,,,00074,2023-10-25_17h43.34.200,vbt_B1_day3,2022.2.4,Win32,59.99880002,,,,,,down,0,1.0051,,0.14444443,-0.101851852,1,0,0,0,158,158,195,1,middelen,images/br_middelen.png,images/cb_middelen.png,0,,,,,,,,,,,,,,,,,,,,,,
,,,,,00074,2023-10-25_17h43.34.200,vbt_B1_day3,2022.2.4,Win32,59.99880002,,,,,,down,0,42.7421,,0.14444443,-0.101851852,1,0,0,0,159,159,125,1,aanzien,images/br_aanzien.png,images/cb_aanzien.png,0,,,,,,,,,,,,,,,,,,,,,,
,,,,,00074,2023-10-25_17h43.34.200,vbt_B1_day3,2022.2.4,Win32,59.99880002,,,,,,down,0,1.0865,,0.14444443,-0.101851852,1,0,0,0,160,160,121,1,twijfel,images/br_twijfel.png,images/cb_twijfel.png,0,,,,,,,,,,,,,,,,,,,,,,
,,,,,00074,2023-10-25_17h43.34.200,vbt_B1_day3,2022.2.4,Win32,59.99880002,,,,,,down,0,0.2365,,0.14444443,-0.101851852,1,0,0,0,161,161,177,1,maaltijd,images/br_maaltijd.png,images/cb_maaltijd.png,0,,,,,,,,,,,,,,,,,,,,,,
,,,,,00074,2023-10-25_17h43.34.200,vbt_B1_day3,2022.2.4,Win32,59.99880002,,,,,,down,0,0.2229,,0.146296325,-0.101851852,1,0,0,0,162,162,173,1,apparaat,images/br_apparaat.png,images/cb_apparaat.png,0,,,,,,,,,,,,,,,,,,,,,,
,,,,,00074,2023-10-25_17h43.34.200,vbt_B1_day3,2022.2.4,Win32,59.99880002,,,,,,down,0,0.2857,,0.146296325,-0.101851852,1,0,0,0,163,163,144,1,eetlust,images/br_eetlust.png,images/cb_eetlust.png,0,,,,,,,,,,,,,,,,,,,,,,
,,,,,00074,2023-10-25_17h43.34.200,vbt_B1_day3,2022.2.4,Win32,59.99880002,,,,,,down,0,0.8051,,0.146296325,-0.101851852,1,0,0,0,164,164,110,1,zuster,images/br_zuster.png,images/cb_zuster.png,0,,,,,,,,,,,,,,,,,,,,,,
,,,,,00074,2023-10-25_17h43.34.200,vbt_B1_day3,2022.2.4,Win32,59.99880002,,,,,,down,0,0.1058,,0.145370413,-0.102777764,1,0,0,0,165,165,79,1,nodig,images/br_nodig.png,images/cb_nodig.png,0,,,,,,,,,,,,,,,,,,,,,,
,,,,,00074,2023-10-25_17h43.34.200,vbt_B1_day3,2022.2.4,Win32,59.99880002,,,,,,down,0,0.4396,,0.145370413,-0.102777764,1,0,0,0,166,166,38,1,baai,images/br_baai.png,images/cb_baai.png,0,,,,,,,,,,,,,,,,,,,,,,
,,,,,00074,2023-10-25_17h43.34.200,vbt_B1_day3,2022.2.4,Win32,59.99880002,,,,,,down,0,6.4683,,0.067592621,-0.104629658,1,0,0,0,167,167,103,1,joggen,images/br_joggen.png,images/cb_joggen.png,1,joggen,,,,,,,,,,,,,,,,,,,,,
,,,,,00074,2023-10-25_17h43.34.200,vbt_B1_day3,2022.2.4,Win32,59.99880002,,,,,,down,0,0.7558,,0.067592621,-0.104629658,1,0,0,0,168,168,152,1,afnemen,images/br_afnemen.png,images/cb_afnemen.png,0,,,,,,,,,,,,,,,,,,,,,,
,,,,,00074,2023-10-25_17h43.34.200,vbt_B1_day3,2022.2.4,Win32,59.99880002,,,,,,down,0,0.983,,0.067592621,-0.104629658,1,0,0,0,169,169,168,1,bisschop,images/br_bisschop.png,images/cb_bisschop.png,0,,,,,,,,,,,,,,,,,,,,,,
,,,,,00074,2023-10-25_17h43.34.200,vbt_B1_day3,2022.2.4,Win32,59.99880002,,,,,,down,0,0.2997,,0.067592621,-0.104629658,1,0,0,0,170,170,154,1,aflopen,images/br_aflopen.png,images/cb_aflopen.png,0,,,,,,,,,,,,,,,,,,,,,,
,,,,,00074,2023-10-25_17h43.34.200,vbt_B1_day3,2022.2.4,Win32,59.99880002,,,,,,down,0,0.4005,,0.067592621,-0.104629658,1,0,0,0,171,171,7,1,geld,images/br_geld.png,images/cb_geld.png,0,,,,,,,,,,,,,,,,,,,,,,
,,,,,00074,2023-10-25_17h43.34.200,vbt_B1_day3,2022.2.4,Win32,59.99880002,,,,,,down,0,0.2001,,0.067592621,-0.104629658,1,0,0,0,172,172,95,1,vreten,images/br_vreten.png,images/cb_vreten.png,0,,,,,,,,,,,,,,,,,,,,,,
,,,,,00074,2023-10-25_17h43.34.200,vbt_B1_day3,2022.2.4,Win32,59.99880002,,,,,,down,0,0.2506,,0.067592621,-0.104629658,1,0,0,0,173,173,47,1,kabel,images/br_kabel.png,images/cb_kabel.png,0,,,,,,,,,,,,,,,,,,,,,,
,,,,,00074,2023-10-25_17h43.34.200,vbt_B1_day3,2022.2.4,Win32,59.99880002,,,,,,down,0,0.5504,,0.067592621,-0.104629658,1,0,0,0,174,174,83,1,mening,images/br_mening.png,images/cb_mening.png,0,,,,,,,,,,,,,,,,,,,,,,
,,,,,00074,2023-10-25_17h43.34.200,vbt_B1_day3,2022.2.4,Win32,59.99880002,,,,,,down,0,7.6008,,0.067592621,-0.104629658,1,0,0,0,175,175,183,1,getuigen,images/br_getuigen.png,images/cb_getuigen.png,1,getuigen,,,,,,,,,,,,,,,,,,,,,
,,,,,00074,2023-10-25_17h43.34.200,vbt_B1_day3,2022.2.4,Win32,59.99880002,,,,,,down,0,0.3081,,0.067592621,-0.104629658,1,0,0,0,176,176,130,1,keihard,images/br_keihard.png,images/cb_keihard.png,0,,,,,,,,,,,,,,,,,,,,,,
,,,,,00074,2023-10-25_17h43.34.200,vbt_B1_day3,2022.2.4,Win32,59.99880002,,,,,,down,0,0.4364,,0.067592621,-0.104629658,1,0,0,0,177,177,65,1,parel,images/br_parel.png,images/cb_parel.png,0,,,,,,,,,,,,,,,,,,,,,,
,,,,,00074,2023-10-25_17h43.34.200,vbt_B1_day3,2022.2.4,Win32,59.99880002,,,,,,down,0,1.039,,0.067592621,-0.104629658,1,0,0,0,178,178,72,1,strak,images/br_strak.png,images/cb_strak.png,0,,,,,,,,,,,,,,,,,,,,,,
,,,,,00074,2023-10-25_17h43.34.200,vbt_B1_day3,2022.2.4,Win32,59.99880002,,,,,,down,0,0.5877,,0.067592621,-0.104629658,1,0,0,0,179,179,1,1,zaal,images/br_zaal.png,images/cb_zaal.png,0,,,,,,,,,,,,,,,,,,,,,,
,,,,,00074,2023-10-25_17h43.34.200,vbt_B1_day3,2022.2.4,Win32,59.99880002,,,,,,down,0,2.2511,,0.067592621,-0.104629658,1,0,0,0,180,180,114,1,vullen,images/br_vullen.png,images/cb_vullen.png,0,,,,,,,,,,,,,,,,,,,,,,
,,,,,00074,2023-10-25_17h43.34.200,vbt_B1_day3,2022.2.4,Win32,59.99880002,,,,,,down,0,0.5345,,0.067592621,-0.104629658,1,0,0,0,181,181,127,1,doodmoe,images/br_doodmoe.png,images/cb_doodmoe.png,0,,,,,,,,,,,,,,,,,,,,,,
,,,,,00074,2023-10-25_17h43.34.200,vbt_B1_day3,2022.2.4,Win32,59.99880002,,,,,,down,0,4.5844,,0.067592621,-0.104629658,1,0,0,0,182,182,42,1,bleek,images/br_bleek.png,images/cb_bleek.png,0,,,,,,,,,,,,,,,,,,,,,,
,,,,,00074,2023-10-25_17h43.34.200,vbt_B1_day3,2022.2.4,Win32,59.99880002,,,,,,down,0,0.5017,,0.067592621,-0.104629658,1,0,0,0,183,183,69,1,waken,images/br_waken.png,images/cb_waken.png,0,,,,,,,,,,,,,,,,,,,,,,
,,,,,00074,2023-10-25_17h43.34.200,vbt_B1_day3,2022.2.4,Win32,59.99880002,,,,,,down,0,0.9839,,0.067592621,-0.104629658,1,0,0,0,184,184,128,1,prikken,images/br_prikken.png,images/cb_prikken.png,0,,,,,,,,,,,,,,,,,,,,,,
,,,,,00074,2023-10-25_17h43.34.200,vbt_B1_day3,2022.2.4,Win32,59.99880002,,,,,,down,0,2.0678,,0.067592621,-0.104629658,1,0,0,0,185,185,24,1,jurk,images/br_jurk.png,images/cb_jurk.png,0,,,,,,,,,,,,,,,,,,,,,,
,,,,,00074,2023-10-25_17h43.34.200,vbt_B1_day3,2022.2.4,Win32,59.99880002,,,,,,down,0,0.101,,0.067592621,-0.104629658,1,0,0,0,186,186,77,1,woede,images/br_woede.png,images/cb_woede.png,0,,,,,,,,,,,,,,,,,,,,,,
,,,,,00074,2023-10-25_17h43.34.200,vbt_B1_day3,2022.2.4,Win32,59.99880002,,,,,,down,0,1.7012,,0.067592621,-0.104629658,1,0,0,0,187,187,19,1,geit,images/br_geit.png,images/cb_geit.png,0,,,,,,,,,,,,,,,,,,,,,,
,,,,,00074,2023-10-25_17h43.34.200,vbt_B1_day3,2022.2.4,Win32,59.99880002,,,,,,down,0,0.384,,0.067592621,-0.104629658,1,0,0,0,188,188,115,1,kleren,images/br_kleren.png,images/cb_kleren.png,0,,,,,,,,,,,,,,,,,,,,,,
,,,,,00074,2023-10-25_17h43.34.200,vbt_B1_day3,2022.2.4,Win32,59.99880002,,,,,,down,0,0.5019,,0.067592621,-0.104629658,1,0,0,0,189,189,94,1,oceaan,images/br_oceaan.png,images/cb_oceaan.png,0,,,,,,,,,,,,,,,,,,,,,,
,,,,,00074,2023-10-25_17h43.34.200,vbt_B1_day3,2022.2.4,Win32,59.99880002,,,,,,down,0,2.6344,,0.067592621,-0.104629658,1,0,0,0,190,190,178,1,huisdier,images/br_huisdier.png,images/cb_huisdier.png,0,,,,,,,,,,,,,,,,,,,,,,
,,,,,00074,2023-10-25_17h43.34.200,vbt_B1_day3,2022.2.4,Win32,59.99880002,,,,,,down,0,6.4196,,0.067592621,-0.104629658,1,0,0,0,191,191,167,1,eenhoorn,images/br_eenhoorn.png,images/cb_eenhoorn.png,0,,,,,,,,,,,,,,,,,,,,,,
,,,,,00074,2023-10-25_17h43.34.200,vbt_B1_day3,2022.2.4,Win32,59.99880002,,,,,,down,0,16.9676,,0.067592621,-0.104629658,1,0,0,0,192,192,194,1,driemaal,images/br_driemaal.png,images/cb_driemaal.png,0,,,,,,,,,,,,,,,,,,,,,,
,,,,,00074,2023-10-25_17h43.34.200,vbt_B1_day3,2022.2.4,Win32,59.99880002,,,,,,down,0,1.5843,,0.067592621,-0.104629658,1,0,0,0,193,193,172,1,weigeren,images/br_weigeren.png,images/cb_weigeren.png,0,,,,,,,,,,,,,,,,,,,,,,
,,,,,00074,2023-10-25_17h43.34.200,vbt_B1_day3,2022.2.4,Win32,59.99880002,,,,,,down,0,5.9729,,0.067592621,-0.104629658,1,0,0,0,194,194,62,1,knaap,images/br_knaap.png,images/cb_knaap.png,1,knaap,,,,,,,,,,,,,,,,,,,,,
,,,,,00074,2023-10-25_17h43.34.200,vbt_B1_day3,2022.2.4,Win32,59.99880002,,,,,,down,0,0.901,,0.067592621,-0.104629658,1,0,0,0,195,195,188,1,strekken,images/br_strekken.png,images/cb_strekken.png,0,,,,,,,,,,,,,,,,,,,,,,
,,,,,00074,2023-10-25_17h43.34.200,vbt_B1_day3,2022.2.4,Win32,59.99880002,,,,,,down,0,0.4849,,0.111111111,-0.090740734,1,0,0,0,196,196,98,1,kreeft,images/br_kreeft.png,images/cb_kreeft.png,0,,,,,,,,,,,,,,,,,,,,,,
,,,,,00074,2023-10-25_17h43.34.200,vbt_B1_day3,2022.2.4,Win32,59.99880002,,,,,,down,0,2.0676,,0.111111111,-0.090740734,1,0,0,0,197,197,126,1,kasteel,images/br_kasteel.png,images/cb_kasteel.png,0,,,,,,,,,,,,,,,,,,,,,,
,,,,,00074,2023-10-25_17h43.34.200,vbt_B1_day3,2022.2.4,Win32,59.99880002,,,,,,down,0,0.9481,,0.112037023,-0.090740734,1,0,0,0,198,198,166,1,strikken,images/br_strikken.png,images/cb_strikken.png,0,,,,,,,,,,,,,,,,,,,,,,
,,,,,00074,2023-10-25_17h43.34.200,vbt_B1_day3,2022.2.4,Win32,59.99880002,,,,,,down,0,0.7517,,0.112037023,-0.090740734,1,0,0,0,199,199,53,1,baron,images/br_baron.png,images/cb_baron.png,0,,,,,,,,,,,,,,,,,,,,,,
,,,,,00074,2023-10-25_17h43.34.200,vbt_B1_day3,2022.2.4,Win32,59.99880002,,,,,,,,,,,,,,,,,,,,,,,,,0.174074102,-0.119444459,1,0,0,,,,,,,,,,,,,,,,
,,,,,00074,2023-10-25_17h43.34.200,vbt_B1_day3,2022.2.4,Win32,59.99880002,,,,,,,,,,,,,,,,,,,,,,,,,,,,,,0.084259245,-0.135185171,1,0,0,,,,,,,,,,,
,,,,,00074,2023-10-25_17h43.34.200,vbt_B1_day3,2022.2.4,Win32,59.99880002,,,,,,,,,,,,,,,,,,,,gezond,images/br_gezond.png,images/cb_gezond.png,,gezond,,,,,,,,,,,0.091666681,-0.139814801,1,0,0,gezond,0,0,0,11,1
,,,,,00074,2023-10-25_17h43.34.200,vbt_B1_day3,2022.2.4,Win32,59.99880002,,,,,,,,,,,,,,,,,,,,jongelui,images/br_jongelui.png,images/cb_jongelui.png,,jongelui,,,,,,,,,,,0.091666681,-0.139814801,1,0,0,jongelui,0,1,1,59,1
,,,,,00074,2023-10-25_17h43.34.200,vbt_B1_day3,2022.2.4,Win32,59.99880002,,,,,,,,,,,,,,,,,,,,stallen,images/br_stallen.png,images/cb_stallen.png,,stallen,,,,,,,,,,,0.094444487,-0.107407393,1,0,0,stallen,0,2,2,52,1
,,,,,00074,2023-10-25_17h43.34.200,vbt_B1_day3,2022.2.4,Win32,59.99880002,,,,,,,,,,,,,,,,,,,,bisschop,images/br_bisschop.png,images/cb_bisschop.png,,bezoeken,,,,,,,,,,,0.083333333,-0.121296282,1,0,0,bezoeken,0,3,3,16,1
,,,,,00074,2023-10-25_17h43.34.200,vbt_B1_day3,2022.2.4,Win32,59.99880002,,,,,,,,,,,,,,,,,,,,leemaken,images/br_leemaken.png,images/cb_leemaken.png,,meemaken,,,,,,,,,,,0.061111097,-0.137037065,1,0,0,meemaken,0,4,4,39,1
,,,,,00074,2023-10-25_17h43.34.200,vbt_B1_day3,2022.2.4,Win32,59.99880002,,,,,,,,,,,,,,,,,,,,leugeren,images/br_leugeren.png,images/cb_leugeren.png,,luiget...,,,,,,,,,,,0.061111097,-0.137037065,1,0,0,luiget...,0,5,5,37,1
,,,,,00074,2023-10-25_17h43.34.200,vbt_B1_day3,2022.2.4,Win32,59.99880002,,,,,,,,,,,,,,,,,,,,gebod,images/br_gebod.png,images/cb_gebod.png,,gebod,,,,,,,,,,,0.080555598,-0.125,1,0,0,gebod,0,6,6,45,1
,,,,,00074,2023-10-25_17h43.34.200,vbt_B1_day3,2022.2.4,Win32,59.99880002,,,,,,,,,,,,,,,,,,,,laken,images/br_laken.png,images/cb_laken.png,,laken,,,,,,,,,,,0.036111125,-0.126851894,1,0,0,laken,0,7,7,5,1
,,,,,00074,2023-10-25_17h43.34.200,vbt_B1_day3,2022.2.4,Win32,59.99880002,,,,,,,,,,,,,,,,,,,,croo,images/br_croo.png,images/cb_croo.png,,croo,,,,,,,,,,,0.036111125,-0.126851894,1,0,0,croo,0,8,8,22,1
,,,,,00074,2023-10-25_17h43.34.200,vbt_B1_day3,2022.2.4,Win32,59.99880002,,,,,,,,,,,,,,,,,,,,dwang,images/br_dwang.png,images/cb_dwang.png,,dwang,,,,,,,,,,,0.036111125,-0.126851894,1,0,0,dwang,0,9,9,47,1
,,,,,00074,2023-10-25_17h43.34.200,vbt_B1_day3,2022.2.4,Win32,59.99880002,,,,,,,,,,,,,,,,,,,,slapen,images/br_slapen.png,images/cb_slapen.png,,slapen,,,,,,,,,,,0.094444487,-0.132407436,1,0,0,slapen,0,10,10,9,1
,,,,,00074,2023-10-25_17h43.34.200,vbt_B1_day3,2022.2.4,Win32,59.99880002,,,,,,,,,,,,,,,,,,,,brappen,images/br_brappen.png,images/cb_brappen.png,,brappen,,,,,,,,,,,0.094444487,-0.132407436,1,0,0,brappen,0,11,11,35,1
,,,,,00074,2023-10-25_17h43.34.200,vbt_B1_day3,2022.2.4,Win32,59.99880002,,,,,,,,,,,,,,,,,,,,geluid,images/br_geluid.png,images/cb_geluid.png,,geluid,,,,,,,,,,,-0.009259259,-0.145370413,1,0,0,geluid,0,12,12,10,1
,,,,,00074,2023-10-25_17h43.34.200,vbt_B1_day3,2022.2.4,Win32,59.99880002,,,,,,,,,,,,,,,,,,,,glijden,images/br_glijden.png,images/cb_glijden.png,,gle..en,,,,,,,,,,,-0.009259259,-0.145370413,1,0,0,gle..en,0,13,13,53,1
,,,,,00074,2023-10-25_17h43.34.200,vbt_B1_day3,2022.2.4,Win32,59.99880002,,,,,,,,,,,,,,,,,,,,hust,images/br_hust.png,images/cb_hust.png,,hust,,,,,,,,,,,0.020370413,-0.160185213,1,0,0,hust,0,14,14,23,1
,,,,,00074,2023-10-25_17h43.34.200,vbt_B1_day3,2022.2.4,Win32,59.99880002,,,,,,,,,,,,,,,,,,,,prikken,images/br_prikken.png,images/cb_prikken.png,,prikken,,,,,,,,,,,0.022222236,-0.118518547,1,0,0,prikken,0,15,15,12,1
,,,,,00074,2023-10-25_17h43.34.200,vbt_B1_day3,2022.2.4,Win32,59.99880002,,,,,,,,,,,,,,,,,,,,verraden,images/br_verraden.png,images/cb_verraden.png,,geraden,,,,,,,,,,,0.093518504,-0.102777764,1,0,0,geraden,0,16,16,58,1
,,,,,00074,2023-10-25_17h43.34.200,vbt_B1_day3,2022.2.4,Win32,59.99880002,,,,,,,,,,,,,,,,,,,,oprotten,images/br_oprotten.png,images/cb_oprotten.png,,oprotten,,,,,,,,,,,0.093518504,-0.102777764,1,0,0,oprotten,0,17,17,17,1
,,,,,00074,2023-10-25_17h43.34.200,vbt_B1_day3,2022.2.4,Win32,59.99880002,,,,,,,,,,,,,,,,,,,,stoom,images/br_stoom.png,images/cb_stoom.png,,stoom,,,,,,,,,,,0.093518504,-0.102777764,1,0,0,stoom,0,18,18,6,1
,,,,,00074,2023-10-25_17h43.34.200,vbt_B1_day3,2022.2.4,Win32,59.99880002,,,,,,,,,,,,,,,,,,,,mode,images/br_mode.png,images/cb_mode.png,,mode,,,,,,,,,,,0.091666681,-0.112037023,1,0,0,mode,0,19,19,3,1
,,,,,00074,2023-10-25_17h43.34.200,vbt_B1_day3,2022.2.4,Win32,59.99880002,,,,,,,,,,,,,,,,,,,,hint,images/br_hint.png,images/cb_hint.png,,hent,,,,,,,,,,,0.164814843,-0.087962963,1,0,0,hent,0,20,20,43,1
,,,,,00074,2023-10-25_17h43.34.200,vbt_B1_day3,2022.2.4,Win32,59.99880002,,,,,,,,,,,,,,,,,,,,opzetten,images/br_opzetten.png,images/cb_opzetten.png,,opzetten,,,,,,,,,,,0.128703718,-0.141666695,1,0,0,opzetten,0,21,21,56,1
,,,,,00074,2023-10-25_17h43.34.200,vbt_B1_day3,2022.2.4,Win32,59.99880002,,,,,,,,,,,,,,,,,,,,verwoor,images/br_verwoor.png,images/cb_verwoor.png,,verkoop,,,,,,,,,,,0.140740783,-0.097222222,1,0,0,verkoop,0,22,22,32,1
,,,,,00074,2023-10-25_17h43.34.200,vbt_B1_day3,2022.2.4,Win32,59.99880002,,,,,,,,,,,,,,,,,,,,sluier,images/br_sluier.png,images/cb_sluier.png,,sl.ier,,,,,,,,,,,0.10092594,-0.119444459,1,0,0,sl.ier,0,23,23,50,1
,,,,,00074,2023-10-25_17h43.34.200,vbt_B1_day3,2022.2.4,Win32,59.99880002,,,,,,,,,,,,,,,,,,,,kaas,images/br_kaas.png,images/cb_kaas.png,,kaas,,,,,,,,,,,0.014814801,-0.137962977,1,0,0,kaas,0,24,24,42,1
,,,,,00074,2023-10-25_17h43.34.200,vbt_B1_day3,2022.2.4,Win32,59.99880002,,,,,,,,,,,,,,,,,,,,stikken,images/br_stikken.png,images/cb_stikken.png,,stikken,,,,,,,,,,,0.053703732,-0.147222236,1,0,0,stikken,0,25,25,54,1
,,,,,00074,2023-10-25_17h43.34.200,vbt_B1_day3,2022.2.4,Win32,59.99880002,,,,,,,,,,,,,,,,,,,,boeien,images/br_boeien.png,images/cb_boeien.png,,boeien,,,,,,,,,,,0.053703732,-0.147222236,1,0,0,boeien,0,26,26,8,1
,,,,,00074,2023-10-25_17h43.34.200,vbt_B1_day3,2022.2.4,Win32,59.99880002,,,,,,,,,,,,,,,,,,,,kwaas,images/br_kwaas.png,images/cb_kwaas.png,,kwaas,,,,,,,,,,,-0.003703718,-0.142592607,1,0,0,kwaas,0,27,27,26,1
,,,,,00074,2023-10-25_17h43.34.200,vbt_B1_day3,2022.2.4,Win32,59.99880002,,,,,,,,,,,,,,,,,,,,keihard,images/br_keihard.png,images/cb_keihard.png,,kie.ar.,,,,,,,,,,,-0.003703718,-0.142592607,1,0,0,kie.ar.,0,28,28,14,1
,,,,,00074,2023-10-25_17h43.34.200,vbt_B1_day3,2022.2.4,Win32,59.99880002,,,,,,,,,,,,,,,,,,,,invallen,images/br_invallen.png,images/cb_invallen.png,,......,,,,,,,,,,,0.148148148,-0.104629658,1,0,0,......,0,29,29,57,1
,,,,,00074,2023-10-25_17h43.34.200,vbt_B1_day3,2022.2.4,Win32,59.99880002,,,,,,,,,,,,,,,,,,,,knie,images/br_knie.png,images/cb_knie.png,,knie,,,,,,,,,,,0.018518519,-0.112963005,1,0,0,knie,0,30,30,0,1
,,,,,00074,2023-10-25_17h43.34.200,vbt_B1_day3,2022.2.4,Win32,59.99880002,,,,,,,,,,,,,,,,,,,,eens,images/br_eens.png,images/cb_eens.png,,eens,,,,,,,,,,,0.048148191,-0.137037065,1,0,0,eens,0,31,31,40,1
,,,,,00074,2023-10-25_17h43.34.200,vbt_B1_day3,2022.2.4,Win32,59.99880002,,,,,,,,,,,,,,,,,,,,hier,images/br_hier.png,images/cb_hier.png,,hier,,,,,,,,,,,0.038888931,-0.156481496,1,0,0,hier,0,32,32,1,1
,,,,,00074,2023-10-25_17h43.34.200,vbt_B1_day3,2022.2.4,Win32,59.99880002,,,,,,,,,,,,,,,,,,,,vlager,images/br_vlager.png,images/cb_vlager.png,,vlager,,,,,,,,,,,0.038888931,-0.156481496,1,0,0,vlager,0,33,33,28,1
,,,,,00074,2023-10-25_17h43.34.200,vbt_B1_day3,2022.2.4,Win32,59.99880002,,,,,,,,,,,,,,,,,,,,leek,images/br_leek.png,images/cb_leek.png,,leek,,,,,,,,,,,0.061111097,-0.150925954,1,0,0,leek,0,34,34,2,1
,,,,,00074,2023-10-25_17h43.34.200,vbt_B1_day3,2022.2.4,Win32,59.99880002,,,,,,,,,,,,,,,,,,,,makieren,images/br_makieren.png,images/cb_makieren.png,,wakieren,,,,,,,,,,,0.061111097,-0.150925954,1,0,0,wakieren,0,35,35,36,1
,,,,,00074,2023-10-25_17h43.34.200,vbt_B1_day3,2022.2.4,Win32,59.99880002,,,,,,,,,,,,,,,,,,,,mugeek,images/br_mugeek.png,images/cb_mugeek.png,,..geek,,,,,,,,,,,0.061111097,-0.150925954,1,0,0,..geek,0,36,36,29,1
,,,,,00074,2023-10-25_17h43.34.200,vbt_B1_day3,2022.2.4,Win32,59.99880002,,,,,,,,,,,,,,,,,,,,gout,images/br_gout.png,images/cb_gout.png,,,,,,,,,,,,,0.006481524,-0.187962991,1,0,0,,0,37,37,20,1
,,,,,00074,2023-10-25_17h43.34.200,vbt_B1_day3,2022.2.4,Win32,59.99880002,,,,,,,,,,,,,,,,,,,,steel,images/br_steel.png,images/cb_steel.png,,steel,,,,,,,,,,,0.100000028,-0.061111132,1,0,0,steel,0,38,38,4,1
,,,,,00074,2023-10-25_17h43.34.200,vbt_B1_day3,2022.2.4,Win32,59.99880002,,,,,,,,,,,,,,,,,,,,kest,images/br_kest.png,images/cb_kest.png,,kest,,,,,,,,,,,0.001851894,-0.126851894,1,0,0,kest,0,39,39,21,1
,,,,,00074,2023-10-25_17h43.34.200,vbt_B1_day3,2022.2.4,Win32,59.99880002,,,,,,,,,,,,,,,,,,,,uviek,images/br_uviek.png,images/cb_uviek.png,,.viek,,,,,,,,,,,0.082407422,-0.137037065,1,0,0,.viek,0,40,40,25,1
,,,,,00074,2023-10-25_17h43.34.200,vbt_B1_day3,2022.2.4,Win32,59.99880002,,,,,,,,,,,,,,,,,,,,theeting,images/br_theeting.png,images/cb_theeting.png,,t.e.....,,,,,,,,,,,-0.007407365,-0.063888903,1,0,0,t.e.....,0,41,41,38,1
,,,,,00074,2023-10-25_17h43.34.200,vbt_B1_day3,2022.2.4,Win32,59.99880002,,,,,,,,,,,,,,,,,,,,bevret,images/br_bevret.png,images/cb_bevret.png,,bevret,,,,,,,,,,,0.074074074,-0.135185171,1,0,0,bevret,0,42,42,30,1
,,,,,00074,2023-10-25_17h43.34.200,vbt_B1_day3,2022.2.4,Win32,59.99880002,,,,,,,,,,,,,,,,,,,,zone,images/br_zone.png,images/cb_zone.png,,zone,,,,,,,,,,,0.093518504,-0.137962977,1,0,0,zone,0,43,43,41,1
,,,,,00074,2023-10-25_17h43.34.200,vbt_B1_day3,2022.2.4,Win32,59.99880002,,,,,,,,,,,,,,,,,,,,samen,images/br_samen.png,images/cb_samen.png,,s.a.en,,,,,,,,,,,0.093518504,-0.137962977,1,0,0,s.a.en,0,44,44,7,1
,,,,,00074,2023-10-25_17h43.34.200,vbt_B1_day3,2022.2.4,Win32,59.99880002,,,,,,,,,,,,,,,,,,,,uniek,images/br_uniek.png,images/cb_uniek.png,,uniek,,,,,,,,,,,0.093518504,-0.137962977,1,0,0,uniek,0,45,45,46,1
,,,,,00074,2023-10-25_17h43.34.200,vbt_B1_day3,2022.2.4,Win32,59.99880002,,,,,,,,,,,,,,,,,,,,alsof,images/br_alsof.png,images/cb_alsof.png,,alsof,,,,,,,,,,,0.099074116,-0.095370399,1,0,0,alsof,0,46,46,44,1
,,,,,00074,2023-10-25_17h43.34.200,vbt_B1_day3,2022.2.4,Win32,59.99880002,,,,,,,,,,,,,,,,,,,,sultan,images/br_sultan.png,images/cb_sultan.png,,sultan,,,,,,,,,,,0.099074116,-0.095370399,1,0,0,sultan,0,47,47,49,1
,,,,,00074,2023-10-25_17h43.34.200,vbt_B1_day3,2022.2.4,Win32,59.99880002,,,,,,,,,,,,,,,,,,,,beslag,images/br_beslag.png,images/cb_beslag.png,,beslag,,,,,,,,,,,0.075925968,-0.09629631,1,0,0,beslag,0,48,48,51,1
,,,,,00074,2023-10-25_17h43.34.200,vbt_B1_day3,2022.2.4,Win32,59.99880002,,,,,,,,,,,,,,,,,,,,paken,images/br_paken.png,images/cb_paken.png,,paken,,,,,,,,,,,0.075925968,-0.09629631,1,0,0,paken,0,49,49,27,1
,,,,,00074,2023-10-25_17h43.34.200,vbt_B1_day3,2022.2.4,Win32,59.99880002,,,,,,,,,,,,,,,,,,,,begrip,images/br_begrip.png,images/cb_begrip.png,,begrip,,,,,,,,,,,0.087037051,-0.131481524,1,0,0,begrip,0,50,50,48,1
,,,,,00074,2023-10-25_17h43.34.200,vbt_B1_day3,2022.2.4,Win32,59.99880002,,,,,,,,,,,,,,,,,,,,verhaal,images/br_verhaal.png,images/cb_verhaal.png,,viraal,,,,,,,,,,,0.147222236,-0.121296282,1,0,0,viraal,0,51,51,13,1
,,,,,00074,2023-10-25_17h43.34.200,vbt_B1_day3,2022.2.4,Win32,59.99880002,,,,,,,,,,,,,,,,,,,,booien,images/br_booien.png,images/cb_booien.png,,boeien,,,,,,,,,,,0.088888875,-0.146296325,1,0,0,boeien,0,52,52,31,1
,,,,,00074,2023-10-25_17h43.34.200,vbt_B1_day3,2022.2.4,Win32,59.99880002,,,,,,,,,,,,,,,,,,,,onrecht,images/br_onrecht.png,images/cb_onrecht.png,,ontech.,,,,,,,,,,,0.088888875,-0.146296325,1,0,0,ontech.,0,53,53,55,1
,,,,,00074,2023-10-25_17h43.34.200,vbt_B1_day3,2022.2.4,Win32,59.99880002,,,,,,,,,,,,,,,,,,,,twaaf,images/br_twaaf.png,images/cb_twaaf.png,,twaaf,,,,,,,,,,,0.036111125,-0.138888889,1,0,0,twaaf,0,54,54,24,1
,,,,,00074,2023-10-25_17h43.34.200,vbt_B1_day3,2022.2.4,Win32,59.99880002,,,,,,,,,,,,,,,,,,,,schatten,images/br_schatten.png,images/cb_schatten.png,,schat...,,,,,,,,,,,0.036111125,-0.138888889,1,0,0,schat...,0,55,55,18,1
,,,,,00074,2023-10-25_17h43.34.200,vbt_B1_day3,2022.2.4,Win32,59.99880002,,,,,,,,,,,,,,,,,,,,opzicht,images/br_opzicht.png,images/cb_opzicht.png,,opzieben,,,,,,,,,,,0.036111125,-0.138888889,1,0,0,opzieben,0,56,56,15,1
,,,,,00074,2023-10-25_17h43.34.200,vbt_B1_day3,2022.2.4,Win32,59.99880002,,,,,,,,,,,,,,,,,,,,aarzelen,images/br_aarzelen.png,images/cb_aarzelen.png,,aarzelen,,,,,,,,,,,0.036111125,-0.138888889,1,0,0,aarzelen,0,57,57,19,1
,,,,,00074,2023-10-25_17h43.34.200,vbt_B1_day3,2022.2.4,Win32,59.99880002,,,,,,,,,,,,,,,,,,,,schodel,images/br_schodel.png,images/cb_schodel.png,,schommel,,,,,,,,,,,0.036111125,-0.138888889,1,0,0,schommel,0,58,58,33,1
,,,,,00074,2023-10-25_17h43.34.200,vbt_B1_day3,2022.2.4,Win32,59.99880002,,,,,,,,,,,,,,,,,,,,afbopen,images/br_afbopen.png,images/cb_afbopen.png,,...open,,,,,,,,,,,0.036111125,-0.138888889,1,0,0,...open,0,59,59,34,1
,,,,,00074,2023-10-25_17h43.34.200,vbt_B1_day3,2022.2.4,Win32,59.99880002,,,,,,,,,,,,,,,,,,,,,,,,,,,,,,,,,,,,,,,,,,,,,
