welcome_mouse.x,welcome_mouse.y,welcome_mouse.leftButton,welcome_mouse.midButton,welcome_mouse.rightButton,"ID",date,expName,psychopyVersion,OS,frameRate,trainInstr_mouse.x,trainInstr_mouse.y,trainInstr_mouse.leftButton,trainInstr_mouse.midButton,trainInstr_mouse.rightButton,translation_key.keys,translation_key.corr,translation_key.rt,word_rsp.text,trWrd_mouse.x,trWrd_mouse.y,trWrd_mouse.leftButton,trWrd_mouse.midButton,trWrd_mouse.rightButton,train_loop.thisRepN,train_loop.thisTrialN,train_loop.thisN,train_loop.thisIndex,train_loop.ran,nlWrd,brWrd,cbWrd,test,testResp,mouse.x,mouse.y,mouse.leftButton,mouse.midButton,mouse.rightButton,testInstr_mouse.x,testInstr_mouse.y,testInstr_mouse.leftButton,testInstr_mouse.midButton,testInstr_mouse.rightButton,test_mouse.x,test_mouse.y,test_mouse.leftButton,test_mouse.midButton,test_mouse.rightButton,test_response.text,test_loop.thisRepN,test_loop.thisTrialN,test_loop.thisN,test_loop.thisIndex,test_loop.ran
0.441666667,-0.065,1,0,0,00076,2023-10-19_21h29.06.813,vbt_B1_day3,2022.2.4,Win32,58.50348096,,,,,,,,,,,,,,,,,,,,,,,,,,,,,,,,,,,,,,,,,,,,,
,,,,,00076,2023-10-19_21h29.06.813,vbt_B1_day3,2022.2.4,Win32,58.50348096,0.443333333,-0.0675,1,0,0,,,,,,,,,,,,,,,,,,,,,,,,,,,,,,,,,,,,,,,,
,,,,,00076,2023-10-19_21h29.06.813,vbt_B1_day3,2022.2.4,Win32,58.50348096,,,,,,down,0,2.8175,,0.443333333,-0.0675,1,0,0,0,0,0,43,1,klauw,images/br_klauw.png,images/cb_klauw.png,0,,,,,,,,,,,,,,,,,,,,,,
,,,,,00076,2023-10-19_21h29.06.813,vbt_B1_day3,2022.2.4,Win32,58.50348096,,,,,,down,0,4.2805,,0.443333333,-0.0675,1,0,0,0,1,1,83,1,mening,images/br_mening.png,images/cb_mening.png,0,,,,,,,,,,,,,,,,,,,,,,
,,,,,00076,2023-10-19_21h29.06.813,vbt_B1_day3,2022.2.4,Win32,58.50348096,,,,,,down,0,3.7617,,0.443333333,-0.0675,1,0,0,0,2,2,166,1,strikken,images/br_strikken.png,images/cb_strikken.png,0,,,,,,,,,,,,,,,,,,,,,,
,,,,,00076,2023-10-19_21h29.06.813,vbt_B1_day3,2022.2.4,Win32,58.50348096,,,,,,down,0,3.06,,0.443333333,-0.0675,1,0,0,0,3,3,65,1,parel,images/br_parel.png,images/cb_parel.png,0,,,,,,,,,,,,,,,,,,,,,,
,,,,,00076,2023-10-19_21h29.06.813,vbt_B1_day3,2022.2.4,Win32,58.50348096,,,,,,down,0,14.9647,,0.443333333,-0.0675,1,0,0,0,4,4,158,1,innemen,images/br_innemen.png,images/cb_innemen.png,0,,,,,,,,,,,,,,,,,,,,,,
,,,,,00076,2023-10-19_21h29.06.813,vbt_B1_day3,2022.2.4,Win32,58.50348096,,,,,,down,0,6.9932,,0.443333333,-0.0675,1,0,0,0,5,5,186,1,voorraad,images/br_voorraad.png,images/cb_voorraad.png,0,,,,,,,,,,,,,,,,,,,,,,
,,,,,00076,2023-10-19_21h29.06.813,vbt_B1_day3,2022.2.4,Win32,58.50348096,,,,,,down,0,1.4712,,0.443333333,-0.0675,1,0,0,0,6,6,115,1,kleren,images/br_kleren.png,images/cb_kleren.png,0,,,,,,,,,,,,,,,,,,,,,,
,,,,,00076,2023-10-19_21h29.06.813,vbt_B1_day3,2022.2.4,Win32,58.50348096,,,,,,down,0,1.7634,,0.443333333,-0.0675,1,0,0,0,7,7,72,1,strak,images/br_strak.png,images/cb_strak.png,0,,,,,,,,,,,,,,,,,,,,,,
,,,,,00076,2023-10-19_21h29.06.813,vbt_B1_day3,2022.2.4,Win32,58.50348096,,,,,,down,0,4.5576,,0.443333333,-0.0675,1,0,0,0,8,8,46,1,jagen,images/br_jagen.png,images/cb_jagen.png,0,,,,,,,,,,,,,,,,,,,,,,
,,,,,00076,2023-10-19_21h29.06.813,vbt_B1_day3,2022.2.4,Win32,58.50348096,,,,,,down,0,6.9453,,0.443333333,-0.070833333,1,0,0,0,9,9,116,1,besmet,images/br_besmet.png,images/cb_besmet.png,0,,,,,,,,,,,,,,,,,,,,,,
,,,,,00076,2023-10-19_21h29.06.813,vbt_B1_day3,2022.2.4,Win32,58.50348096,,,,,,down,0,2.1508,,0.443333333,-0.070833333,1,0,0,0,10,10,12,1,kust,images/br_kust.png,images/cb_kust.png,0,,,,,,,,,,,,,,,,,,,,,,
,,,,,00076,2023-10-19_21h29.06.813,vbt_B1_day3,2022.2.4,Win32,58.50348096,,,,,,down,0,3.6305,,0.443333333,-0.070833333,1,0,0,0,11,11,47,1,kabel,images/br_kabel.png,images/cb_kabel.png,0,,,,,,,,,,,,,,,,,,,,,,
,,,,,00076,2023-10-19_21h29.06.813,vbt_B1_day3,2022.2.4,Win32,58.50348096,,,,,,down,0,0.4515,,0.443333333,-0.070833333,1,0,0,0,12,12,56,1,traag,images/br_traag.png,images/cb_traag.png,0,,,,,,,,,,,,,,,,,,,,,,
,,,,,00076,2023-10-19_21h29.06.813,vbt_B1_day3,2022.2.4,Win32,58.50348096,,,,,,down,0,3.7009,,0.443333333,-0.070833333,1,0,0,0,13,13,136,1,waarbij,images/br_waarbij.png,images/cb_waarbij.png,0,,,,,,,,,,,,,,,,,,,,,,
,,,,,00076,2023-10-19_21h29.06.813,vbt_B1_day3,2022.2.4,Win32,58.50348096,,,,,,down,0,0.6372,,0.443333333,-0.070833333,1,0,0,0,14,14,179,1,woestijn,images/br_woestijn.png,images/cb_woestijn.png,0,,,,,,,,,,,,,,,,,,,,,,
,,,,,00076,2023-10-19_21h29.06.813,vbt_B1_day3,2022.2.4,Win32,58.50348096,,,,,,down,0,0.2399,,0.443333333,-0.071666667,1,0,0,0,15,15,170,1,schatten,images/br_schatten.png,images/cb_schatten.png,0,,,,,,,,,,,,,,,,,,,,,,
,,,,,00076,2023-10-19_21h29.06.813,vbt_B1_day3,2022.2.4,Win32,58.50348096,,,,,,down,0,0.7347,,0.443333333,-0.071666667,1,0,0,0,16,16,57,1,steek,images/br_steek.png,images/cb_steek.png,0,,,,,,,,,,,,,,,,,,,,,,
,,,,,00076,2023-10-19_21h29.06.813,vbt_B1_day3,2022.2.4,Win32,58.50348096,,,,,,down,0,0.4657,,0.443333333,-0.071666667,1,0,0,0,17,17,35,1,lust,images/br_lust.png,images/cb_lust.png,0,,,,,,,,,,,,,,,,,,,,,,
,,,,,00076,2023-10-19_21h29.06.813,vbt_B1_day3,2022.2.4,Win32,58.50348096,,,,,,down,0,0.5559,,0.443333333,-0.071666667,1,0,0,0,18,18,188,1,strekken,images/br_strekken.png,images/cb_strekken.png,0,,,,,,,,,,,,,,,,,,,,,,
,,,,,00076,2023-10-19_21h29.06.813,vbt_B1_day3,2022.2.4,Win32,58.50348096,,,,,,down,0,1.2736,,0.443333333,-0.071666667,1,0,0,0,19,19,38,1,baai,images/br_baai.png,images/cb_baai.png,0,,,,,,,,,,,,,,,,,,,,,,
,,,,,00076,2023-10-19_21h29.06.813,vbt_B1_day3,2022.2.4,Win32,58.50348096,,,,,,down,0,0.0904,,0.443333333,-0.071666667,1,0,0,0,20,20,0,1,slak,images/br_slak.png,images/cb_slak.png,0,,,,,,,,,,,,,,,,,,,,,,
,,,,,00076,2023-10-19_21h29.06.813,vbt_B1_day3,2022.2.4,Win32,58.50348096,,,,,,down,0,1.7369,,0.443333333,-0.071666667,1,0,0,0,21,21,39,1,laag,images/br_laag.png,images/cb_laag.png,0,,,,,,,,,,,,,,,,,,,,,,
,,,,,00076,2023-10-19_21h29.06.813,vbt_B1_day3,2022.2.4,Win32,58.50348096,,,,,,down,0,0.9649,,0.443333333,-0.071666667,1,0,0,0,22,22,134,1,geliefd,images/br_geliefd.png,images/cb_geliefd.png,0,,,,,,,,,,,,,,,,,,,,,,
,,,,,00076,2023-10-19_21h29.06.813,vbt_B1_day3,2022.2.4,Win32,58.50348096,,,,,,down,0,0.607,,0.443333333,-0.071666667,1,0,0,0,23,23,27,1,dans,images/br_dans.png,images/cb_dans.png,0,,,,,,,,,,,,,,,,,,,,,,
,,,,,00076,2023-10-19_21h29.06.813,vbt_B1_day3,2022.2.4,Win32,58.50348096,,,,,,down,0,0.3392,,0.443333333,-0.071666667,1,0,0,0,24,24,177,1,maaltijd,images/br_maaltijd.png,images/cb_maaltijd.png,0,,,,,,,,,,,,,,,,,,,,,,
,,,,,00076,2023-10-19_21h29.06.813,vbt_B1_day3,2022.2.4,Win32,58.50348096,,,,,,down,0,2.0731,,0.443333333,-0.071666667,1,0,0,0,25,25,189,1,aanraden,images/br_aanraden.png,images/cb_aanraden.png,0,,,,,,,,,,,,,,,,,,,,,,
,,,,,00076,2023-10-19_21h29.06.813,vbt_B1_day3,2022.2.4,Win32,58.50348096,,,,,,down,0,1.5177,,0.443333333,-0.070833333,1,0,0,0,26,26,11,1,mode,images/br_mode.png,images/cb_mode.png,0,,,,,,,,,,,,,,,,,,,,,,
,,,,,00076,2023-10-19_21h29.06.813,vbt_B1_day3,2022.2.4,Win32,58.50348096,,,,,,down,0,0.8532,,0.443333333,-0.070833333,1,0,0,0,27,27,119,1,liefje,images/br_liefje.png,images/cb_liefje.png,0,,,,,,,,,,,,,,,,,,,,,,
,,,,,00076,2023-10-19_21h29.06.813,vbt_B1_day3,2022.2.4,Win32,58.50348096,,,,,,down,0,0.4373,,0.443333333,-0.070833333,1,0,0,0,28,28,58,1,tekst,images/br_tekst.png,images/cb_tekst.png,0,,,,,,,,,,,,,,,,,,,,,,
,,,,,00076,2023-10-19_21h29.06.813,vbt_B1_day3,2022.2.4,Win32,58.50348096,,,,,,down,0,2.2832,,0.443333333,-0.070833333,1,0,0,0,29,29,54,1,gebit,images/br_gebit.png,images/cb_gebit.png,0,,,,,,,,,,,,,,,,,,,,,,
,,,,,00076,2023-10-19_21h29.06.813,vbt_B1_day3,2022.2.4,Win32,58.50348096,,,,,,down,0,0.435,,0.443333333,-0.070833333,1,0,0,0,30,30,78,1,leren,images/br_leren.png,images/cb_leren.png,0,,,,,,,,,,,,,,,,,,,,,,
,,,,,00076,2023-10-19_21h29.06.813,vbt_B1_day3,2022.2.4,Win32,58.50348096,,,,,,down,0,3.0905,,0.4425,-0.071666667,1,0,0,0,31,31,75,1,snoep,images/br_snoep.png,images/cb_snoep.png,0,,,,,,,,,,,,,,,,,,,,,,
,,,,,00076,2023-10-19_21h29.06.813,vbt_B1_day3,2022.2.4,Win32,58.50348096,,,,,,down,0,1.3717,,0.4425,-0.071666667,1,0,0,0,32,32,195,1,middelen,images/br_middelen.png,images/cb_middelen.png,0,,,,,,,,,,,,,,,,,,,,,,
,,,,,00076,2023-10-19_21h29.06.813,vbt_B1_day3,2022.2.4,Win32,58.50348096,,,,,,down,0,0.472,,0.4425,-0.071666667,1,0,0,0,33,33,79,1,nodig,images/br_nodig.png,images/cb_nodig.png,0,,,,,,,,,,,,,,,,,,,,,,
,,,,,00076,2023-10-19_21h29.06.813,vbt_B1_day3,2022.2.4,Win32,58.50348096,,,,,,down,0,3.7748,,0.441666667,-0.074166667,1,0,0,0,34,34,178,1,huisdier,images/br_huisdier.png,images/cb_huisdier.png,0,,,,,,,,,,,,,,,,,,,,,,
,,,,,00076,2023-10-19_21h29.06.813,vbt_B1_day3,2022.2.4,Win32,58.50348096,,,,,,down,0,2.5634,,0.441666667,-0.078333333,1,0,0,0,35,35,190,1,goedkoop,images/br_goedkoop.png,images/cb_goedkoop.png,0,,,,,,,,,,,,,,,,,,,,,,
,,,,,00076,2023-10-19_21h29.06.813,vbt_B1_day3,2022.2.4,Win32,58.50348096,,,,,,down,0,0.518,,0.441666667,-0.078333333,1,0,0,0,36,36,156,1,rechten,images/br_rechten.png,images/cb_rechten.png,0,,,,,,,,,,,,,,,,,,,,,,
,,,,,00076,2023-10-19_21h29.06.813,vbt_B1_day3,2022.2.4,Win32,58.50348096,,,,,,down,0,3.3745,,0.435,-0.085833333,1,0,0,0,37,37,42,1,bleek,images/br_bleek.png,images/cb_bleek.png,0,,,,,,,,,,,,,,,,,,,,,,
,,,,,00076,2023-10-19_21h29.06.813,vbt_B1_day3,2022.2.4,Win32,58.50348096,,,,,,down,0,6.0183,,0.435,-0.085833333,1,0,0,0,38,38,63,1,flirt,images/br_flirt.png,images/cb_flirt.png,1,flirt,,,,,,,,,,,,,,,,,,,,,
,,,,,00076,2023-10-19_21h29.06.813,vbt_B1_day3,2022.2.4,Win32,58.50348096,,,,,,down,0,1.9737,,0.435,-0.085833333,1,0,0,0,39,39,149,1,redding,images/br_redding.png,images/cb_redding.png,0,,,,,,,,,,,,,,,,,,,,,,
,,,,,00076,2023-10-19_21h29.06.813,vbt_B1_day3,2022.2.4,Win32,58.50348096,,,,,,down,0,3.9846,,0.435,-0.085833333,1,0,0,0,40,40,193,1,weeshuis,images/br_weeshuis.png,images/cb_weeshuis.png,0,,,,,,,,,,,,,,,,,,,,,,
,,,,,00076,2023-10-19_21h29.06.813,vbt_B1_day3,2022.2.4,Win32,58.50348096,,,,,,down,0,2.1059,,0.435,-0.085833333,1,0,0,0,41,41,154,1,aflopen,images/br_aflopen.png,images/cb_aflopen.png,0,,,,,,,,,,,,,,,,,,,,,,
,,,,,00076,2023-10-19_21h29.06.813,vbt_B1_day3,2022.2.4,Win32,58.50348096,,,,,,down,0,3.8677,,0.746666667,0.3325,1,0,0,0,42,42,155,1,gerucht,images/br_gerucht.png,images/cb_gerucht.png,0,,,,,,,,,,,,,,,,,,,,,,
,,,,,00076,2023-10-19_21h29.06.813,vbt_B1_day3,2022.2.4,Win32,58.50348096,,,,,,down,0,2.1034,,0.746666667,0.3325,1,0,0,0,43,43,107,1,maling,images/br_maling.png,images/cb_maling.png,0,,,,,,,,,,,,,,,,,,,,,,
,,,,,00076,2023-10-19_21h29.06.813,vbt_B1_day3,2022.2.4,Win32,58.50348096,,,,,,down,0,2.5657,,0.746666667,0.3325,1,0,0,0,44,44,71,1,bever,images/br_bever.png,images/cb_bever.png,0,,,,,,,,,,,,,,,,,,,,,,
,,,,,00076,2023-10-19_21h29.06.813,vbt_B1_day3,2022.2.4,Win32,58.50348096,,,,,,down,0,4.4821,,0.746666667,0.3325,1,0,0,0,45,45,90,1,geluid,images/br_geluid.png,images/cb_geluid.png,0,,,,,,,,,,,,,,,,,,,,,,
,,,,,00076,2023-10-19_21h29.06.813,vbt_B1_day3,2022.2.4,Win32,58.50348096,,,,,,down,0,8.3878,,0.746666667,0.3325,1,0,0,0,46,46,102,1,legaal,images/br_legaal.png,images/cb_legaal.png,1,legaal,,,,,,,,,,,,,,,,,,,,,
,,,,,00076,2023-10-19_21h29.06.813,vbt_B1_day3,2022.2.4,Win32,58.50348096,,,,,,down,0,2.5853,,0.746666667,0.3325,1,0,0,0,47,47,111,1,ticket,images/br_ticket.png,images/cb_ticket.png,0,,,,,,,,,,,,,,,,,,,,,,
,,,,,00076,2023-10-19_21h29.06.813,vbt_B1_day3,2022.2.4,Win32,58.50348096,,,,,,down,0,5.8479,,0.746666667,0.3325,1,0,0,0,48,48,21,1,mist,images/br_mist.png,images/cb_mist.png,1,mist,,,,,,,,,,,,,,,,,,,,,
,,,,,00076,2023-10-19_21h29.06.813,vbt_B1_day3,2022.2.4,Win32,58.50348096,,,,,,down,0,0.7393,,0.6875,0.300833333,1,0,0,0,49,49,194,1,driemaal,images/br_driemaal.png,images/cb_driemaal.png,0,,,,,,,,,,,,,,,,,,,,,,
,,,,,00076,2023-10-19_21h29.06.813,vbt_B1_day3,2022.2.4,Win32,58.50348096,,,,,,down,0,8.5802,,0.784166667,0.5,1,0,0,0,50,50,23,1,zout,images/br_zout.png,images/cb_zout.png,1,zout,,,,,,,,,,,,,,,,,,,,,
,,,,,00076,2023-10-19_21h29.06.813,vbt_B1_day3,2022.2.4,Win32,58.50348096,,,,,,down,0,1.6369,,0.61,0.325,1,0,0,0,51,51,52,1,wagon,images/br_wagon.png,images/cb_wagon.png,0,,,,,,,,,,,,,,,,,,,,,,
,,,,,00076,2023-10-19_21h29.06.813,vbt_B1_day3,2022.2.4,Win32,58.50348096,,,,,,down,0,4.3239,,0.61,0.325,1,0,0,0,52,52,60,1,jasje,images/br_jasje.png,images/cb_jasje.png,1,jasje,,,,,,,,,,,,,,,,,,,,,
,,,,,00076,2023-10-19_21h29.06.813,vbt_B1_day3,2022.2.4,Win32,58.50348096,,,,,,down,0,0.0472,,0.61,0.325,1,0,0,0,53,53,122,1,waarvan,images/br_waarvan.png,images/cb_waarvan.png,0,,,,,,,,,,,,,,,,,,,,,,
,,,,,00076,2023-10-19_21h29.06.813,vbt_B1_day3,2022.2.4,Win32,58.50348096,,,,,,down,0,1.09,,0.61,0.325,1,0,0,0,54,54,85,1,heilig,images/br_heilig.png,images/cb_heilig.png,0,,,,,,,,,,,,,,,,,,,,,,
,,,,,00076,2023-10-19_21h29.06.813,vbt_B1_day3,2022.2.4,Win32,58.50348096,,,,,,down,0,1.4527,,0.61,0.325,1,0,0,0,55,55,2,1,jaar,images/br_jaar.png,images/cb_jaar.png,0,,,,,,,,,,,,,,,,,,,,,,
,,,,,00076,2023-10-19_21h29.06.813,vbt_B1_day3,2022.2.4,Win32,58.50348096,,,,,,down,0,3.9341,,0.61,0.325,1,0,0,0,56,56,66,1,lever,images/br_lever.png,images/cb_lever.png,0,,,,,,,,,,,,,,,,,,,,,,
,,,,,00076,2023-10-19_21h29.06.813,vbt_B1_day3,2022.2.4,Win32,58.50348096,,,,,,down,0,7.7675,,0.511666667,0.255,1,0,0,0,57,57,105,1,wijlen,images/br_wijlen.png,images/cb_wijlen.png,0,,,,,,,,,,,,,,,,,,,,,,
,,,,,00076,2023-10-19_21h29.06.813,vbt_B1_day3,2022.2.4,Win32,58.50348096,,,,,,down,0,16.6644,,0.511666667,0.255,1,0,0,0,58,58,62,1,knaap,images/br_knaap.png,images/cb_knaap.png,1,knaap,,,,,,,,,,,,,,,,,,,,,
,,,,,00076,2023-10-19_21h29.06.813,vbt_B1_day3,2022.2.4,Win32,58.50348096,,,,,,down,0,0.1671,,0.511666667,0.255,1,0,0,0,59,59,191,1,opheffen,images/br_opheffen.png,images/cb_opheffen.png,0,,,,,,,,,,,,,,,,,,,,,,
,,,,,00076,2023-10-19_21h29.06.813,vbt_B1_day3,2022.2.4,Win32,58.50348096,,,,,,down,0,0.4357,,0.511666667,0.255,1,0,0,0,60,60,150,1,gegeven,images/br_gegeven.png,images/cb_gegeven.png,0,,,,,,,,,,,,,,,,,,,,,,
,,,,,00076,2023-10-19_21h29.06.813,vbt_B1_day3,2022.2.4,Win32,58.50348096,,,,,,down,0,0.7283,,0.511666667,0.255,1,0,0,0,61,61,69,1,waken,images/br_waken.png,images/cb_waken.png,0,,,,,,,,,,,,,,,,,,,,,,
,,,,,00076,2023-10-19_21h29.06.813,vbt_B1_day3,2022.2.4,Win32,58.50348096,,,,,,down,0,6.7052,,0.5175,0.193333333,1,0,0,0,62,62,123,1,hiervan,images/br_hiervan.png,images/cb_hiervan.png,0,,,,,,,,,,,,,,,,,,,,,,
,,,,,00076,2023-10-19_21h29.06.813,vbt_B1_day3,2022.2.4,Win32,58.50348096,,,,,,down,0,1.1024,,0.5175,0.193333333,0,0,1,0,63,63,5,1,blad,images/br_blad.png,images/cb_blad.png,0,,,,,,,,,,,,,,,,,,,,,,
,,,,,00076,2023-10-19_21h29.06.813,vbt_B1_day3,2022.2.4,Win32,58.50348096,,,,,,down,0,1.8587,,0.4325,0.1775,1,0,0,0,64,64,135,1,gedicht,images/br_gedicht.png,images/cb_gedicht.png,0,,,,,,,,,,,,,,,,,,,,,,
,,,,,00076,2023-10-19_21h29.06.813,vbt_B1_day3,2022.2.4,Win32,58.50348096,,,,,,down,0,1.4839,,0.4325,0.1775,1,0,0,0,65,65,114,1,vullen,images/br_vullen.png,images/cb_vullen.png,0,,,,,,,,,,,,,,,,,,,,,,
,,,,,00076,2023-10-19_21h29.06.813,vbt_B1_day3,2022.2.4,Win32,58.50348096,,,,,,down,0,4.1372,,0.4325,0.1775,1,0,0,0,66,66,161,1,attentie,images/br_attentie.png,images/cb_attentie.png,0,,,,,,,,,,,,,,,,,,,,,,
,,,,,00076,2023-10-19_21h29.06.813,vbt_B1_day3,2022.2.4,Win32,58.50348096,,,,,,down,0,7.7321,,0.4325,0.1775,1,0,0,0,67,67,22,1,stof,images/br_stof.png,images/cb_stof.png,1,,,,,,,,,,,,,,,,,,,,,,
,,,,,00076,2023-10-19_21h29.06.813,vbt_B1_day3,2022.2.4,Win32,58.50348096,,,,,,down,0,3.0081,,0.529166667,0.209166667,1,0,0,0,68,68,138,1,akkoord,images/br_akkoord.png,images/cb_akkoord.png,0,,,,,,,,,,,,,,,,,,,,,,
,,,,,00076,2023-10-19_21h29.06.813,vbt_B1_day3,2022.2.4,Win32,58.50348096,,,,,,down,0,0.3264,,0.529166667,0.209166667,1,0,0,0,69,69,137,1,trekker,images/br_trekker.png,images/cb_trekker.png,0,,,,,,,,,,,,,,,,,,,,,,
,,,,,00076,2023-10-19_21h29.06.813,vbt_B1_day3,2022.2.4,Win32,58.50348096,,,,,,down,0,1.7725,,0.529166667,0.209166667,1,0,0,0,70,70,127,1,doodmoe,images/br_doodmoe.png,images/cb_doodmoe.png,0,,,,,,,,,,,,,,,,,,,,,,
,,,,,00076,2023-10-19_21h29.06.813,vbt_B1_day3,2022.2.4,Win32,58.50348096,,,,,,down,0,0.579,,0.529166667,0.209166667,1,0,0,0,71,71,173,1,apparaat,images/br_apparaat.png,images/cb_apparaat.png,0,,,,,,,,,,,,,,,,,,,,,,
,,,,,00076,2023-10-19_21h29.06.813,vbt_B1_day3,2022.2.4,Win32,58.50348096,,,,,,down,0,2.1021,,0.529166667,0.209166667,1,0,0,0,72,72,185,1,mijnheer,images/br_mijnheer.png,images/cb_mijnheer.png,0,,,,,,,,,,,,,,,,,,,,,,
,,,,,00076,2023-10-19_21h29.06.813,vbt_B1_day3,2022.2.4,Win32,58.50348096,,,,,,down,0,1.2819,,0.529166667,0.209166667,1,0,0,0,73,73,163,1,schuilen,images/br_schuilen.png,images/cb_schuilen.png,0,,,,,,,,,,,,,,,,,,,,,,
,,,,,00076,2023-10-19_21h29.06.813,vbt_B1_day3,2022.2.4,Win32,58.50348096,,,,,,down,0,1.5754,,0.529166667,0.209166667,1,0,0,0,74,74,59,1,kring,images/br_kring.png,images/cb_kring.png,0,,,,,,,,,,,,,,,,,,,,,,
,,,,,00076,2023-10-19_21h29.06.813,vbt_B1_day3,2022.2.4,Win32,58.50348096,,,,,,down,0,0.4071,,0.529166667,0.209166667,1,0,0,0,75,75,199,1,beseffen,images/br_beseffen.png,images/cb_beseffen.png,0,,,,,,,,,,,,,,,,,,,,,,
,,,,,00076,2023-10-19_21h29.06.813,vbt_B1_day3,2022.2.4,Win32,58.50348096,,,,,,down,0,2.1336,,0.529166667,0.209166667,1,0,0,0,76,76,96,1,slagen,images/br_slagen.png,images/cb_slagen.png,0,,,,,,,,,,,,,,,,,,,,,,
,,,,,00076,2023-10-19_21h29.06.813,vbt_B1_day3,2022.2.4,Win32,58.50348096,,,,,,down,0,0.4529,,0.529166667,0.209166667,1,0,0,0,77,77,13,1,kaal,images/br_kaal.png,images/cb_kaal.png,0,,,,,,,,,,,,,,,,,,,,,,
,,,,,00076,2023-10-19_21h29.06.813,vbt_B1_day3,2022.2.4,Win32,58.50348096,,,,,,down,0,3.6525,,0.529166667,0.209166667,1,0,0,0,78,78,70,1,ijdel,images/br_ijdel.png,images/cb_ijdel.png,0,,,,,,,,,,,,,,,,,,,,,,
,,,,,00076,2023-10-19_21h29.06.813,vbt_B1_day3,2022.2.4,Win32,58.50348096,,,,,,down,0,5.4387,,0.533333333,0.215833333,1,0,0,0,79,79,124,1,bloeien,images/br_bloeien.png,images/cb_bloeien.png,0,,,,,,,,,,,,,,,,,,,,,,
,,,,,00076,2023-10-19_21h29.06.813,vbt_B1_day3,2022.2.4,Win32,58.50348096,,,,,,down,0,0.1025,,0.533333333,0.215833333,1,0,0,0,80,80,93,1,waarop,images/br_waarop.png,images/cb_waarop.png,0,,,,,,,,,,,,,,,,,,,,,,
,,,,,00076,2023-10-19_21h29.06.813,vbt_B1_day3,2022.2.4,Win32,58.50348096,,,,,,down,0,0.0079,,0.533333333,0.215833333,1,0,0,0,81,81,10,1,leek,images/br_leek.png,images/cb_leek.png,0,,,,,,,,,,,,,,,,,,,,,,
,,,,,00076,2023-10-19_21h29.06.813,vbt_B1_day3,2022.2.4,Win32,58.50348096,,,,,,down,0,3.3745,,0.533333333,0.215833333,1,0,0,0,82,82,64,1,wegen,images/br_wegen.png,images/cb_wegen.png,0,,,,,,,,,,,,,,,,,,,,,,
,,,,,00076,2023-10-19_21h29.06.813,vbt_B1_day3,2022.2.4,Win32,58.50348096,,,,,,down,0,4.006,,0.533333333,0.215833333,1,0,0,0,83,83,176,1,techniek,images/br_techniek.png,images/cb_techniek.png,0,,,,,,,,,,,,,,,,,,,,,,
,,,,,00076,2023-10-19_21h29.06.813,vbt_B1_day3,2022.2.4,Win32,58.50348096,,,,,,down,0,3.4325,,0.533333333,0.215833333,1,0,0,0,84,84,113,1,koppen,images/br_koppen.png,images/cb_koppen.png,0,,,,,,,,,,,,,,,,,,,,,,
,,,,,00076,2023-10-19_21h29.06.813,vbt_B1_day3,2022.2.4,Win32,58.50348096,,,,,,down,0,2.0648,,0.533333333,0.215833333,1,0,0,0,85,85,174,1,stemming,images/br_stemming.png,images/cb_stemming.png,0,,,,,,,,,,,,,,,,,,,,,,
,,,,,00076,2023-10-19_21h29.06.813,vbt_B1_day3,2022.2.4,Win32,58.50348096,,,,,,down,0,8.2345,,0.533333333,0.215833333,1,0,0,0,86,86,61,1,groen,images/br_groen.png,images/cb_groen.png,1,groen,,,,,,,,,,,,,,,,,,,,,
,,,,,00076,2023-10-19_21h29.06.813,vbt_B1_day3,2022.2.4,Win32,58.50348096,,,,,,down,0,2.4177,,0.533333333,0.215833333,1,0,0,0,87,87,139,1,stiekem,images/br_stiekem.png,images/cb_stiekem.png,0,,,,,,,,,,,,,,,,,,,,,,
,,,,,00076,2023-10-19_21h29.06.813,vbt_B1_day3,2022.2.4,Win32,58.50348096,,,,,,down,0,2.4207,,0.533333333,0.215833333,1,0,0,0,88,88,37,1,mijn,images/br_mijn.png,images/cb_mijn.png,0,,,,,,,,,,,,,,,,,,,,,,
,,,,,00076,2023-10-19_21h29.06.813,vbt_B1_day3,2022.2.4,Win32,58.50348096,,,,,,down,0,2.4021,,0.533333333,0.215833333,1,0,0,0,89,89,106,1,zingen,images/br_zingen.png,images/cb_zingen.png,0,,,,,,,,,,,,,,,,,,,,,,
,,,,,00076,2023-10-19_21h29.06.813,vbt_B1_day3,2022.2.4,Win32,58.50348096,,,,,,down,0,5.0209,,0.533333333,0.215833333,1,0,0,0,90,90,17,1,taal,images/br_taal.png,images/cb_taal.png,0,,,,,,,,,,,,,,,,,,,,,,
,,,,,00076,2023-10-19_21h29.06.813,vbt_B1_day3,2022.2.4,Win32,58.50348096,,,,,,down,0,9.9529,,0.533333333,0.215833333,1,0,0,0,91,91,140,1,blijven,images/br_blijven.png,images/cb_blijven.png,1,blijven,,,,,,,,,,,,,,,,,,,,,
,,,,,00076,2023-10-19_21h29.06.813,vbt_B1_day3,2022.2.4,Win32,58.50348096,,,,,,down,0,0.1338,,0.533333333,0.215833333,1,0,0,0,92,92,132,1,grappen,images/br_grappen.png,images/cb_grappen.png,0,,,,,,,,,,,,,,,,,,,,,,
,,,,,00076,2023-10-19_21h29.06.813,vbt_B1_day3,2022.2.4,Win32,58.50348096,,,,,,down,0,4.0533,,0.533333333,0.215833333,1,0,0,0,93,93,25,1,plek,images/br_plek.png,images/cb_plek.png,0,,,,,,,,,,,,,,,,,,,,,,
,,,,,00076,2023-10-19_21h29.06.813,vbt_B1_day3,2022.2.4,Win32,58.50348096,,,,,,down,0,3.4343,,0.533333333,0.215833333,1,0,0,0,94,94,24,1,jurk,images/br_jurk.png,images/cb_jurk.png,0,,,,,,,,,,,,,,,,,,,,,,
,,,,,00076,2023-10-19_21h29.06.813,vbt_B1_day3,2022.2.4,Win32,58.50348096,,,,,,down,0,0.7182,,0.533333333,0.215833333,1,0,0,0,95,95,40,1,schep,images/br_schep.png,images/cb_schep.png,0,,,,,,,,,,,,,,,,,,,,,,
,,,,,00076,2023-10-19_21h29.06.813,vbt_B1_day3,2022.2.4,Win32,58.50348096,,,,,,down,0,2.0467,,0.236666667,0.144166667,1,0,0,0,96,96,125,1,aanzien,images/br_aanzien.png,images/cb_aanzien.png,0,,,,,,,,,,,,,,,,,,,,,,
,,,,,00076,2023-10-19_21h29.06.813,vbt_B1_day3,2022.2.4,Win32,58.50348096,,,,,,down,0,1.6424,,0.236666667,0.144166667,1,0,0,0,97,97,110,1,zuster,images/br_zuster.png,images/cb_zuster.png,0,,,,,,,,,,,,,,,,,,,,,,
,,,,,00076,2023-10-19_21h29.06.813,vbt_B1_day3,2022.2.4,Win32,58.50348096,,,,,,down,0,0.985,,0.236666667,0.144166667,1,0,0,0,98,98,153,1,vervoer,images/br_vervoer.png,images/cb_vervoer.png,0,,,,,,,,,,,,,,,,,,,,,,
,,,,,00076,2023-10-19_21h29.06.813,vbt_B1_day3,2022.2.4,Win32,58.50348096,,,,,,down,0,0.5636,,0.236666667,0.144166667,1,0,0,0,99,99,82,1,muziek,images/br_muziek.png,images/cb_muziek.png,0,,,,,,,,,,,,,,,,,,,,,,
,,,,,00076,2023-10-19_21h29.06.813,vbt_B1_day3,2022.2.4,Win32,58.50348096,,,,,,down,0,10.6157,,0.236666667,0.144166667,1,0,0,0,100,100,142,1,snuiven,images/br_snuiven.png,images/cb_snuiven.png,1,snuiven,,,,,,,,,,,,,,,,,,,,,
,,,,,00076,2023-10-19_21h29.06.813,vbt_B1_day3,2022.2.4,Win32,58.50348096,,,,,,down,0,3.1309,,0.236666667,0.144166667,1,0,0,0,101,101,53,1,baron,images/br_baron.png,images/cb_baron.png,0,,,,,,,,,,,,,,,,,,,,,,
,,,,,00076,2023-10-19_21h29.06.813,vbt_B1_day3,2022.2.4,Win32,58.50348096,,,,,,down,0,2.6769,,0.236666667,0.144166667,1,0,0,0,102,102,172,1,weigeren,images/br_weigeren.png,images/cb_weigeren.png,0,,,,,,,,,,,,,,,,,,,,,,
,,,,,00076,2023-10-19_21h29.06.813,vbt_B1_day3,2022.2.4,Win32,58.50348096,,,,,,down,0,2.8274,,0.236666667,0.144166667,1,0,0,0,103,103,152,1,afnemen,images/br_afnemen.png,images/cb_afnemen.png,0,,,,,,,,,,,,,,,,,,,,,,
,,,,,00076,2023-10-19_21h29.06.813,vbt_B1_day3,2022.2.4,Win32,58.50348096,,,,,,down,0,3.627,,0.236666667,0.144166667,1,0,0,0,104,104,131,1,opzicht,images/br_opzicht.png,images/cb_opzicht.png,0,,,,,,,,,,,,,,,,,,,,,,
,,,,,00076,2023-10-19_21h29.06.813,vbt_B1_day3,2022.2.4,Win32,58.50348096,,,,,,down,0,0.6179,,0.236666667,0.144166667,1,0,0,0,105,105,165,1,feestdag,images/br_feestdag.png,images/cb_feestdag.png,0,,,,,,,,,,,,,,,,,,,,,,
,,,,,00076,2023-10-19_21h29.06.813,vbt_B1_day3,2022.2.4,Win32,58.50348096,,,,,,down,0,0.0762,,0.236666667,0.144166667,1,0,0,0,106,106,89,1,slapen,images/br_slapen.png,images/cb_slapen.png,0,,,,,,,,,,,,,,,,,,,,,,
,,,,,00076,2023-10-19_21h29.06.813,vbt_B1_day3,2022.2.4,Win32,58.50348096,,,,,,down,0,0.3512,,0.236666667,0.144166667,1,0,0,0,107,107,198,1,bedoelen,images/br_bedoelen.png,images/cb_bedoelen.png,0,,,,,,,,,,,,,,,,,,,,,,
,,,,,00076,2023-10-19_21h29.06.813,vbt_B1_day3,2022.2.4,Win32,58.50348096,,,,,,down,0,1.8898,,0.236666667,0.144166667,1,0,0,0,108,108,29,1,baas,images/br_baas.png,images/cb_baas.png,0,,,,,,,,,,,,,,,,,,,,,,
,,,,,00076,2023-10-19_21h29.06.813,vbt_B1_day3,2022.2.4,Win32,58.50348096,,,,,,down,0,0.5436,,0.236666667,0.144166667,1,0,0,0,109,109,18,1,blik,images/br_blik.png,images/cb_blik.png,0,,,,,,,,,,,,,,,,,,,,,,
,,,,,00076,2023-10-19_21h29.06.813,vbt_B1_day3,2022.2.4,Win32,58.50348096,,,,,,down,0,0.5486,,0.236666667,0.144166667,1,0,0,0,110,110,95,1,vreten,images/br_vreten.png,images/cb_vreten.png,0,,,,,,,,,,,,,,,,,,,,,,
,,,,,00076,2023-10-19_21h29.06.813,vbt_B1_day3,2022.2.4,Win32,58.50348096,,,,,,down,0,0.4818,,0.236666667,0.144166667,1,0,0,0,111,111,76,1,afval,images/br_afval.png,images/cb_afval.png,0,,,,,,,,,,,,,,,,,,,,,,
,,,,,00076,2023-10-19_21h29.06.813,vbt_B1_day3,2022.2.4,Win32,58.50348096,,,,,,down,0,0.2646,,0.236666667,0.144166667,1,0,0,0,112,112,144,1,eetlust,images/br_eetlust.png,images/cb_eetlust.png,0,,,,,,,,,,,,,,,,,,,,,,
,,,,,00076,2023-10-19_21h29.06.813,vbt_B1_day3,2022.2.4,Win32,58.50348096,,,,,,down,0,0.0512,,0.236666667,0.144166667,1,0,0,0,113,113,74,1,graaf,images/br_graaf.png,images/cb_graaf.png,0,,,,,,,,,,,,,,,,,,,,,,
,,,,,00076,2023-10-19_21h29.06.813,vbt_B1_day3,2022.2.4,Win32,58.50348096,,,,,,down,0,0.6027,,0.236666667,0.144166667,1,0,0,0,114,114,55,1,praat,images/br_praat.png,images/cb_praat.png,0,,,,,,,,,,,,,,,,,,,,,,
,,,,,00076,2023-10-19_21h29.06.813,vbt_B1_day3,2022.2.4,Win32,58.50348096,,,,,,down,0,5.1714,,0.236666667,0.144166667,1,0,0,0,115,115,143,1,hechten,images/br_hechten.png,images/cb_hechten.png,1,hechten,,,,,,,,,,,,,,,,,,,,,
,,,,,00076,2023-10-19_21h29.06.813,vbt_B1_day3,2022.2.4,Win32,58.50348096,,,,,,down,0,0.9062,,0.236666667,0.144166667,1,0,0,0,116,116,73,1,volop,images/br_volop.png,images/cb_volop.png,0,,,,,,,,,,,,,,,,,,,,,,
,,,,,00076,2023-10-19_21h29.06.813,vbt_B1_day3,2022.2.4,Win32,58.50348096,,,,,,down,0,1.2425,,0.236666667,0.144166667,1,0,0,0,117,117,48,1,steel,images/br_steel.png,images/cb_steel.png,0,,,,,,,,,,,,,,,,,,,,,,
,,,,,00076,2023-10-19_21h29.06.813,vbt_B1_day3,2022.2.4,Win32,58.50348096,,,,,,down,0,1.9514,,0.236666667,0.144166667,1,0,0,0,118,118,175,1,heengaan,images/br_heengaan.png,images/cb_heengaan.png,0,,,,,,,,,,,,,,,,,,,,,,
,,,,,00076,2023-10-19_21h29.06.813,vbt_B1_day3,2022.2.4,Win32,58.50348096,,,,,,down,0,4.0108,,0.236666667,0.144166667,1,0,0,0,119,119,19,1,geit,images/br_geit.png,images/cb_geit.png,0,,,,,,,,,,,,,,,,,,,,,,
,,,,,00076,2023-10-19_21h29.06.813,vbt_B1_day3,2022.2.4,Win32,58.50348096,,,,,,down,0,0.0239,,0.236666667,0.144166667,1,0,0,0,120,120,32,1,palm,images/br_palm.png,images/cb_palm.png,0,,,,,,,,,,,,,,,,,,,,,,
,,,,,00076,2023-10-19_21h29.06.813,vbt_B1_day3,2022.2.4,Win32,58.50348096,,,,,,down,0,3.3328,,0.236666667,0.144166667,1,0,0,0,121,121,49,1,laken,images/br_laken.png,images/cb_laken.png,0,,,,,,,,,,,,,,,,,,,,,,
,,,,,00076,2023-10-19_21h29.06.813,vbt_B1_day3,2022.2.4,Win32,58.50348096,,,,,,down,0,18.6502,,0.236666667,0.144166667,1,0,0,0,122,122,100,1,geduld,images/br_geduld.png,images/cb_geduld.png,1,geduld,,,,,,,,,,,,,,,,,,,,,
,,,,,00076,2023-10-19_21h29.06.813,vbt_B1_day3,2022.2.4,Win32,58.50348096,,,,,,down,0,5.0546,,0.236666667,0.144166667,1,0,0,0,123,123,16,1,ziek,images/br_ziek.png,images/cb_ziek.png,0,,,,,,,,,,,,,,,,,,,,,,
,,,,,00076,2023-10-19_21h29.06.813,vbt_B1_day3,2022.2.4,Win32,58.50348096,,,,,,down,0,0.3899,,0.236666667,0.144166667,1,0,0,0,124,124,31,1,poes,images/br_poes.png,images/cb_poes.png,0,,,,,,,,,,,,,,,,,,,,,,
,,,,,00076,2023-10-19_21h29.06.813,vbt_B1_day3,2022.2.4,Win32,58.50348096,,,,,,down,0,0.8922,,0.236666667,0.144166667,1,0,0,0,125,125,118,1,vinger,images/br_vinger.png,images/cb_vinger.png,0,,,,,,,,,,,,,,,,,,,,,,
,,,,,00076,2023-10-19_21h29.06.813,vbt_B1_day3,2022.2.4,Win32,58.50348096,,,,,,down,0,0.2152,,0.236666667,0.144166667,1,0,0,0,126,126,146,1,opkomen,images/br_opkomen.png,images/cb_opkomen.png,0,,,,,,,,,,,,,,,,,,,,,,
,,,,,00076,2023-10-19_21h29.06.813,vbt_B1_day3,2022.2.4,Win32,58.50348096,,,,,,down,0,0.7325,,0.236666667,0.144166667,1,0,0,0,127,127,192,1,schaamte,images/br_schaamte.png,images/cb_schaamte.png,0,,,,,,,,,,,,,,,,,,,,,,
,,,,,00076,2023-10-19_21h29.06.813,vbt_B1_day3,2022.2.4,Win32,58.50348096,,,,,,down,0,0.2395,,0.236666667,0.144166667,1,0,0,0,128,128,94,1,oceaan,images/br_oceaan.png,images/cb_oceaan.png,0,,,,,,,,,,,,,,,,,,,,,,
,,,,,00076,2023-10-19_21h29.06.813,vbt_B1_day3,2022.2.4,Win32,58.50348096,,,,,,down,0,0.1872,,0.236666667,0.144166667,1,0,0,0,129,129,104,1,zweven,images/br_zweven.png,images/cb_zweven.png,0,,,,,,,,,,,,,,,,,,,,,,
,,,,,00076,2023-10-19_21h29.06.813,vbt_B1_day3,2022.2.4,Win32,58.50348096,,,,,,down,0,1.0095,,0.236666667,0.144166667,1,0,0,0,130,130,8,1,knie,images/br_knie.png,images/cb_knie.png,0,,,,,,,,,,,,,,,,,,,,,,
,,,,,00076,2023-10-19_21h29.06.813,vbt_B1_day3,2022.2.4,Win32,58.50348096,,,,,,down,0,6.2699,,0.236666667,0.144166667,1,0,0,0,131,131,182,1,bijkomen,images/br_bijkomen.png,images/cb_bijkomen.png,1,bijkomen,,,,,,,,,,,,,,,,,,,,,
,,,,,00076,2023-10-19_21h29.06.813,vbt_B1_day3,2022.2.4,Win32,58.50348096,,,,,,down,0,1.6774,,0.236666667,0.144166667,1,0,0,0,132,132,97,1,loyaal,images/br_loyaal.png,images/cb_loyaal.png,0,,,,,,,,,,,,,,,,,,,,,,
,,,,,00076,2023-10-19_21h29.06.813,vbt_B1_day3,2022.2.4,Win32,58.50348096,,,,,,down,0,0.4542,,0.236666667,0.144166667,1,0,0,0,133,133,91,1,gezond,images/br_gezond.png,images/cb_gezond.png,0,,,,,,,,,,,,,,,,,,,,,,
,,,,,00076,2023-10-19_21h29.06.813,vbt_B1_day3,2022.2.4,Win32,58.50348096,,,,,,down,0,1.1684,,0.236666667,0.144166667,1,0,0,0,134,134,164,1,anarchie,images/br_anarchie.png,images/cb_anarchie.png,0,,,,,,,,,,,,,,,,,,,,,,
,,,,,00076,2023-10-19_21h29.06.813,vbt_B1_day3,2022.2.4,Win32,58.50348096,,,,,,down,0,1.0556,,0.236666667,0.144166667,1,0,0,0,135,135,3,1,mand,images/br_mand.png,images/cb_mand.png,0,,,,,,,,,,,,,,,,,,,,,,
,,,,,00076,2023-10-19_21h29.06.813,vbt_B1_day3,2022.2.4,Win32,58.50348096,,,,,,down,0,4.5364,,0.236666667,0.144166667,1,0,0,0,136,136,171,1,aarzelen,images/br_aarzelen.png,images/cb_aarzelen.png,0,,,,,,,,,,,,,,,,,,,,,,
,,,,,00076,2023-10-19_21h29.06.813,vbt_B1_day3,2022.2.4,Win32,58.50348096,,,,,,down,0,0.4646,,0.236666667,0.144166667,1,0,0,0,137,137,167,1,eenhoorn,images/br_eenhoorn.png,images/cb_eenhoorn.png,0,,,,,,,,,,,,,,,,,,,,,,
,,,,,00076,2023-10-19_21h29.06.813,vbt_B1_day3,2022.2.4,Win32,58.50348096,,,,,,down,0,2.857,,0.236666667,0.144166667,1,0,0,0,138,138,20,1,site,images/br_site.png,images/cb_site.png,1,site,,,,,,,,,,,,,,,,,,,,,
,,,,,00076,2023-10-19_21h29.06.813,vbt_B1_day3,2022.2.4,Win32,58.50348096,,,,,,down,0,2.2555,,0.236666667,0.144166667,1,0,0,0,139,139,147,1,komisch,images/br_komisch.png,images/cb_komisch.png,0,,,,,,,,,,,,,,,,,,,,,,
,,,,,00076,2023-10-19_21h29.06.813,vbt_B1_day3,2022.2.4,Win32,58.50348096,,,,,,down,0,0.388,,0.236666667,0.144166667,1,0,0,0,140,140,117,1,kennis,images/br_kennis.png,images/cb_kennis.png,0,,,,,,,,,,,,,,,,,,,,,,
,,,,,00076,2023-10-19_21h29.06.813,vbt_B1_day3,2022.2.4,Win32,58.50348096,,,,,,down,0,0.6592,,0.236666667,0.144166667,1,0,0,0,141,141,15,1,soda,images/br_soda.png,images/cb_soda.png,0,,,,,,,,,,,,,,,,,,,,,,
,,,,,00076,2023-10-19_21h29.06.813,vbt_B1_day3,2022.2.4,Win32,58.50348096,,,,,,down,0,0.8385,,0.236666667,0.144166667,1,0,0,0,142,142,6,1,diep,images/br_diep.png,images/cb_diep.png,0,,,,,,,,,,,,,,,,,,,,,,
,,,,,00076,2023-10-19_21h29.06.813,vbt_B1_day3,2022.2.4,Win32,58.50348096,,,,,,down,0,0.6855,,0.236666667,0.144166667,1,0,0,0,143,143,159,1,sufferd,images/br_sufferd.png,images/cb_sufferd.png,0,,,,,,,,,,,,,,,,,,,,,,
,,,,,00076,2023-10-19_21h29.06.813,vbt_B1_day3,2022.2.4,Win32,58.50348096,,,,,,down,0,2.675,,0.236666667,0.144166667,1,0,0,0,144,144,141,1,knielen,images/br_knielen.png,images/cb_knielen.png,1,knielen,,,,,,,,,,,,,,,,,,,,,
,,,,,00076,2023-10-19_21h29.06.813,vbt_B1_day3,2022.2.4,Win32,58.50348096,,,,,,down,0,4.4381,,0.225,0.099166667,1,0,0,0,145,145,45,1,piste,images/br_piste.png,images/cb_piste.png,0,,,,,,,,,,,,,,,,,,,,,,
,,,,,00076,2023-10-19_21h29.06.813,vbt_B1_day3,2022.2.4,Win32,58.50348096,,,,,,down,0,0.2142,,0.225,0.099166667,1,0,0,0,146,146,169,1,oprotten,images/br_oprotten.png,images/cb_oprotten.png,0,,,,,,,,,,,,,,,,,,,,,,
,,,,,00076,2023-10-19_21h29.06.813,vbt_B1_day3,2022.2.4,Win32,58.50348096,,,,,,down,0,2.2137,,0.225,0.099166667,1,0,0,0,147,147,148,1,smullen,images/br_smullen.png,images/cb_smullen.png,0,,,,,,,,,,,,,,,,,,,,,,
,,,,,00076,2023-10-19_21h29.06.813,vbt_B1_day3,2022.2.4,Win32,58.50348096,,,,,,down,0,0.4645,,0.225,0.099166667,1,0,0,0,148,148,44,1,flits,images/br_flits.png,images/cb_flits.png,0,,,,,,,,,,,,,,,,,,,,,,
,,,,,00076,2023-10-19_21h29.06.813,vbt_B1_day3,2022.2.4,Win32,58.50348096,,,,,,down,0,0.3716,,0.225,0.099166667,1,0,0,0,149,149,28,1,stal,images/br_stal.png,images/cb_stal.png,0,,,,,,,,,,,,,,,,,,,,,,
,,,,,00076,2023-10-19_21h29.06.813,vbt_B1_day3,2022.2.4,Win32,58.50348096,,,,,,down,0,1.1713,,0.225,0.099166667,1,0,0,0,150,150,36,1,vuur,images/br_vuur.png,images/cb_vuur.png,0,,,,,,,,,,,,,,,,,,,,,,
,,,,,00076,2023-10-19_21h29.06.813,vbt_B1_day3,2022.2.4,Win32,58.50348096,,,,,,down,0,1.4227,,0.225,0.099166667,1,0,0,0,151,151,120,1,klimmen,images/br_klimmen.png,images/cb_klimmen.png,0,,,,,,,,,,,,,,,,,,,,,,
,,,,,00076,2023-10-19_21h29.06.813,vbt_B1_day3,2022.2.4,Win32,58.50348096,,,,,,down,0,1.7388,,0.225,0.099166667,1,0,0,0,152,152,98,1,kreeft,images/br_kreeft.png,images/cb_kreeft.png,0,,,,,,,,,,,,,,,,,,,,,,
,,,,,00076,2023-10-19_21h29.06.813,vbt_B1_day3,2022.2.4,Win32,58.50348096,,,,,,down,0,2.6849,,0.225,0.099166667,1,0,0,0,153,153,67,1,zwart,images/br_zwart.png,images/cb_zwart.png,0,,,,,,,,,,,,,,,,,,,,,,
,,,,,00076,2023-10-19_21h29.06.813,vbt_B1_day3,2022.2.4,Win32,58.50348096,,,,,,down,0,0.8129,,0.225,0.099166667,1,0,0,0,154,154,68,1,schat,images/br_schat.png,images/cb_schat.png,0,,,,,,,,,,,,,,,,,,,,,,
,,,,,00076,2023-10-19_21h29.06.813,vbt_B1_day3,2022.2.4,Win32,58.50348096,,,,,,down,0,3.7525,,0.225,0.099166667,1,0,0,0,155,155,180,1,openbaar,images/br_openbaar.png,images/cb_openbaar.png,1,openbaar,,,,,,,,,,,,,,,,,,,,,
,,,,,00076,2023-10-19_21h29.06.813,vbt_B1_day3,2022.2.4,Win32,58.50348096,,,,,,down,0,0.1403,,0.225,0.099166667,1,0,0,0,156,156,41,1,maken,images/br_maken.png,images/cb_maken.png,0,,,,,,,,,,,,,,,,,,,,,,
,,,,,00076,2023-10-19_21h29.06.813,vbt_B1_day3,2022.2.4,Win32,58.50348096,,,,,,down,0,1.4469,,0.225,0.099166667,1,0,0,0,157,157,103,1,joggen,images/br_joggen.png,images/cb_joggen.png,1,joggen,,,,,,,,,,,,,,,,,,,,,
,,,,,00076,2023-10-19_21h29.06.813,vbt_B1_day3,2022.2.4,Win32,58.50348096,,,,,,down,0,1.1915,,0.225,0.099166667,1,0,0,0,158,158,128,1,prikken,images/br_prikken.png,images/cb_prikken.png,0,,,,,,,,,,,,,,,,,,,,,,
,,,,,00076,2023-10-19_21h29.06.813,vbt_B1_day3,2022.2.4,Win32,58.50348096,,,,,,down,0,0.2529,,0.225,0.099166667,1,0,0,0,159,159,130,1,keihard,images/br_keihard.png,images/cb_keihard.png,0,,,,,,,,,,,,,,,,,,,,,,
,,,,,00076,2023-10-19_21h29.06.813,vbt_B1_day3,2022.2.4,Win32,58.50348096,,,,,,down,0,5.4397,,0.225,0.099166667,1,0,0,0,160,160,50,1,stoom,images/br_stoom.png,images/cb_stoom.png,0,,,,,,,,,,,,,,,,,,,,,,
,,,,,00076,2023-10-19_21h29.06.813,vbt_B1_day3,2022.2.4,Win32,58.50348096,,,,,,down,0,4.4681,,0.225,0.099166667,1,0,0,0,161,161,88,1,boeien,images/br_boeien.png,images/cb_boeien.png,0,,,,,,,,,,,,,,,,,,,,,,
,,,,,00076,2023-10-19_21h29.06.813,vbt_B1_day3,2022.2.4,Win32,58.50348096,,,,,,down,0,0.3848,,0.225,0.099166667,1,0,0,0,162,162,51,1,samen,images/br_samen.png,images/cb_samen.png,0,,,,,,,,,,,,,,,,,,,,,,
,,,,,00076,2023-10-19_21h29.06.813,vbt_B1_day3,2022.2.4,Win32,58.50348096,,,,,,down,0,0.6423,,0.2275,0.093333333,1,0,0,0,163,163,109,1,totaal,images/br_totaal.png,images/cb_totaal.png,0,,,,,,,,,,,,,,,,,,,,,,
,,,,,00076,2023-10-19_21h29.06.813,vbt_B1_day3,2022.2.4,Win32,58.50348096,,,,,,down,0,2.1172,,0.225,0.0775,1,0,0,0,164,164,187,1,opkijken,images/br_opkijken.png,images/cb_opkijken.png,0,,,,,,,,,,,,,,,,,,,,,,
,,,,,00076,2023-10-19_21h29.06.813,vbt_B1_day3,2022.2.4,Win32,58.50348096,,,,,,down,0,1.3174,,0.2325,0.081666667,1,0,0,0,165,165,197,1,spanning,images/br_spanning.png,images/cb_spanning.png,0,,,,,,,,,,,,,,,,,,,,,,
,,,,,00076,2023-10-19_21h29.06.813,vbt_B1_day3,2022.2.4,Win32,58.50348096,,,,,,down,0,2.8611,,0.236666667,0.0825,1,0,0,0,166,166,99,1,koffie,images/br_koffie.png,images/cb_koffie.png,0,,,,,,,,,,,,,,,,,,,,,,
,,,,,00076,2023-10-19_21h29.06.813,vbt_B1_day3,2022.2.4,Win32,58.50348096,,,,,,down,0,2.1722,,0.236666667,0.0825,1,0,0,0,167,167,86,1,woning,images/br_woning.png,images/cb_woning.png,0,,,,,,,,,,,,,,,,,,,,,,
,,,,,00076,2023-10-19_21h29.06.813,vbt_B1_day3,2022.2.4,Win32,58.50348096,,,,,,down,0,1.4879,,0.233333333,0.0825,1,0,0,0,168,168,145,1,invloed,images/br_invloed.png,images/cb_invloed.png,0,,,,,,,,,,,,,,,,,,,,,,
,,,,,00076,2023-10-19_21h29.06.813,vbt_B1_day3,2022.2.4,Win32,58.50348096,,,,,,down,0,2.8228,,0.228333333,0.0825,1,0,0,0,169,169,196,1,nakijken,images/br_nakijken.png,images/cb_nakijken.png,0,,,,,,,,,,,,,,,,,,,,,,
,,,,,00076,2023-10-19_21h29.06.813,vbt_B1_day3,2022.2.4,Win32,58.50348096,,,,,,down,0,1.3332,,0.228333333,0.079166667,1,0,0,0,170,170,126,1,kasteel,images/br_kasteel.png,images/cb_kasteel.png,0,,,,,,,,,,,,,,,,,,,,,,
,,,,,00076,2023-10-19_21h29.06.813,vbt_B1_day3,2022.2.4,Win32,58.50348096,,,,,,down,0,1.1556,,0.224166667,0.080833333,1,0,0,0,171,171,30,1,uien,images/br_uien.png,images/cb_uien.png,0,,,,,,,,,,,,,,,,,,,,,,
,,,,,00076,2023-10-19_21h29.06.813,vbt_B1_day3,2022.2.4,Win32,58.50348096,,,,,,down,0,0.0184,,0.215833333,0.081666667,1,0,0,0,172,172,129,1,verhaal,images/br_verhaal.png,images/cb_verhaal.png,0,,,,,,,,,,,,,,,,,,,,,,
,,,,,00076,2023-10-19_21h29.06.813,vbt_B1_day3,2022.2.4,Win32,58.50348096,,,,,,down,0,0.4164,,0.2125,0.081666667,1,0,0,0,173,173,77,1,woede,images/br_woede.png,images/cb_woede.png,0,,,,,,,,,,,,,,,,,,,,,,
,,,,,00076,2023-10-19_21h29.06.813,vbt_B1_day3,2022.2.4,Win32,58.50348096,,,,,,down,0,0.3195,,0.211666667,0.080833333,1,0,0,0,174,174,4,1,moes,images/br_moes.png,images/cb_moes.png,0,,,,,,,,,,,,,,,,,,,,,,
,,,,,00076,2023-10-19_21h29.06.813,vbt_B1_day3,2022.2.4,Win32,58.50348096,,,,,,down,0,1.5178,,0.211666667,0.080833333,1,0,0,0,175,175,112,1,lukken,images/br_lukken.png,images/cb_lukken.png,0,,,,,,,,,,,,,,,,,,,,,,
,,,,,00076,2023-10-19_21h29.06.813,vbt_B1_day3,2022.2.4,Win32,58.50348096,,,,,,down,0,0.3418,,0.211666667,0.080833333,1,0,0,0,176,176,151,1,aanzoek,images/br_aanzoek.png,images/cb_aanzoek.png,0,,,,,,,,,,,,,,,,,,,,,,
,,,,,00076,2023-10-19_21h29.06.813,vbt_B1_day3,2022.2.4,Win32,58.50348096,,,,,,down,0,0.3904,,0.211666667,0.080833333,1,0,0,0,177,177,84,1,lokken,images/br_lokken.png,images/cb_lokken.png,0,,,,,,,,,,,,,,,,,,,,,,
,,,,,00076,2023-10-19_21h29.06.813,vbt_B1_day3,2022.2.4,Win32,58.50348096,,,,,,down,0,24.9338,,0.211666667,0.080833333,1,0,0,0,178,178,7,1,geld,images/br_geld.png,images/cb_geld.png,0,,,,,,,,,,,,,,,,,,,,,,
,,,,,00076,2023-10-19_21h29.06.813,vbt_B1_day3,2022.2.4,Win32,58.50348096,,,,,,down,0,0.9527,,0.211666667,0.080833333,1,0,0,0,179,179,87,1,toeval,images/br_toeval.png,images/cb_toeval.png,0,,,,,,,,,,,,,,,,,,,,,,
,,,,,00076,2023-10-19_21h29.06.813,vbt_B1_day3,2022.2.4,Win32,58.50348096,,,,,,down,0,0.4522,,0.211666667,0.080833333,1,0,0,0,180,180,184,1,aandelen,images/br_aandelen.png,images/cb_aandelen.png,0,,,,,,,,,,,,,,,,,,,,,,
,,,,,00076,2023-10-19_21h29.06.813,vbt_B1_day3,2022.2.4,Win32,58.50348096,,,,,,down,0,1.7314,,0.211666667,0.080833333,1,0,0,0,181,181,133,1,seizoen,images/br_seizoen.png,images/cb_seizoen.png,0,,,,,,,,,,,,,,,,,,,,,,
,,,,,00076,2023-10-19_21h29.06.813,vbt_B1_day3,2022.2.4,Win32,58.50348096,,,,,,down,0,3.7097,,0.211666667,0.080833333,1,0,0,0,182,182,101,1,staren,images/br_staren.png,images/cb_staren.png,1,staren,,,,,,,,,,,,,,,,,,,,,
,,,,,00076,2023-10-19_21h29.06.813,vbt_B1_day3,2022.2.4,Win32,58.50348096,,,,,,down,0,6.0046,,0.211666667,0.080833333,1,0,0,0,183,183,168,1,bisschop,images/br_bisschop.png,images/cb_bisschop.png,0,,,,,,,,,,,,,,,,,,,,,,
,,,,,00076,2023-10-19_21h29.06.813,vbt_B1_day3,2022.2.4,Win32,58.50348096,,,,,,down,0,9.8941,,0.211666667,0.080833333,1,0,0,0,184,184,108,1,excuus,images/br_excuus.png,images/cb_excuus.png,0,,,,,,,,,,,,,,,,,,,,,,
,,,,,00076,2023-10-19_21h29.06.813,vbt_B1_day3,2022.2.4,Win32,58.50348096,,,,,,down,0,6.1585,,0.211666667,0.080833333,1,0,0,0,185,185,183,1,getuigen,images/br_getuigen.png,images/cb_getuigen.png,1,getuigen,,,,,,,,,,,,,,,,,,,,,
,,,,,00076,2023-10-19_21h29.06.813,vbt_B1_day3,2022.2.4,Win32,58.50348096,,,,,,down,0,0.6702,,0.6725,0.161666667,1,0,0,0,186,186,33,1,vlek,images/br_vlek.png,images/cb_vlek.png,0,,,,,,,,,,,,,,,,,,,,,,
,,,,,00076,2023-10-19_21h29.06.813,vbt_B1_day3,2022.2.4,Win32,58.50348096,,,,,,down,0,3.2236,,0.6725,0.161666667,1,0,0,0,187,187,9,1,hier,images/br_hier.png,images/cb_hier.png,0,,,,,,,,,,,,,,,,,,,,,,
,,,,,00076,2023-10-19_21h29.06.813,vbt_B1_day3,2022.2.4,Win32,58.50348096,,,,,,down,0,1.6866,,0.6725,0.161666667,1,0,0,0,188,188,14,1,rijp,images/br_rijp.png,images/cb_rijp.png,0,,,,,,,,,,,,,,,,,,,,,,
,,,,,00076,2023-10-19_21h29.06.813,vbt_B1_day3,2022.2.4,Win32,58.50348096,,,,,,down,0,0.413,,0.6725,0.161666667,1,0,0,0,189,189,1,1,zaal,images/br_zaal.png,images/cb_zaal.png,0,,,,,,,,,,,,,,,,,,,,,,
,,,,,00076,2023-10-19_21h29.06.813,vbt_B1_day3,2022.2.4,Win32,58.50348096,,,,,,down,0,3.204,,0.6725,0.161666667,1,0,0,0,190,190,121,1,twijfel,images/br_twijfel.png,images/cb_twijfel.png,0,,,,,,,,,,,,,,,,,,,,,,
,,,,,00076,2023-10-19_21h29.06.813,vbt_B1_day3,2022.2.4,Win32,58.50348096,,,,,,down,0,11.1675,,0.6725,0.161666667,1,0,0,0,191,191,80,1,kanjer,images/br_kanjer.png,images/cb_kanjer.png,0,,,,,,,,,,,,,,,,,,,,,,
,,,,,00076,2023-10-19_21h29.06.813,vbt_B1_day3,2022.2.4,Win32,58.50348096,,,,,,down,0,0.252,,0.6725,0.161666667,1,0,0,0,192,192,34,1,vorm,images/br_vorm.png,images/cb_vorm.png,0,,,,,,,,,,,,,,,,,,,,,,
,,,,,00076,2023-10-19_21h29.06.813,vbt_B1_day3,2022.2.4,Win32,58.50348096,,,,,,down,0,8.1602,,0.670833333,0.165,1,0,0,0,193,193,160,1,daarheen,images/br_daarheen.png,images/cb_daarheen.png,0,,,,,,,,,,,,,,,,,,,,,,
,,,,,00076,2023-10-19_21h29.06.813,vbt_B1_day3,2022.2.4,Win32,58.50348096,,,,,,down,0,0.064,,0.670833333,0.165,1,0,0,0,194,194,26,1,leuk,images/br_leuk.png,images/cb_leuk.png,0,,,,,,,,,,,,,,,,,,,,,,
,,,,,00076,2023-10-19_21h29.06.813,vbt_B1_day3,2022.2.4,Win32,58.50348096,,,,,,down,0,16.4139,,0.670833333,0.165,1,0,0,0,195,195,181,1,toegeven,images/br_toegeven.png,images/cb_toegeven.png,1,toegeven,,,,,,,,,,,,,,,,,,,,,
,,,,,00076,2023-10-19_21h29.06.813,vbt_B1_day3,2022.2.4,Win32,58.50348096,,,,,,down,0,1.1062,,0.670833333,0.165,1,0,0,0,196,196,81,1,dubbel,images/br_dubbel.png,images/cb_dubbel.png,0,,,,,,,,,,,,,,,,,,,,,,
,,,,,00076,2023-10-19_21h29.06.813,vbt_B1_day3,2022.2.4,Win32,58.50348096,,,,,,down,0,2.6019,,0.670833333,0.165,1,0,0,0,197,197,92,1,geheim,images/br_geheim.png,images/cb_geheim.png,0,,,,,,,,,,,,,,,,,,,,,,
,,,,,00076,2023-10-19_21h29.06.813,vbt_B1_day3,2022.2.4,Win32,58.50348096,,,,,,down,0,2.1153,,0.670833333,0.165,1,0,0,0,198,198,157,1,uitlaat,images/br_uitlaat.png,images/cb_uitlaat.png,0,,,,,,,,,,,,,,,,,,,,,,
,,,,,00076,2023-10-19_21h29.06.813,vbt_B1_day3,2022.2.4,Win32,58.50348096,,,,,,down,0,19.7166,,0.670833333,0.165,1,0,0,0,199,199,162,1,uitdelen,images/br_uitdelen.png,images/cb_uitdelen.png,0,,,,,,,,,,,,,,,,,,,,,,
,,,,,00076,2023-10-19_21h29.06.813,vbt_B1_day3,2022.2.4,Win32,58.50348096,,,,,,,,,,,,,,,,,,,,,,,,,0.670833333,0.165,1,0,0,,,,,,,,,,,,,,,,
,,,,,00076,2023-10-19_21h29.06.813,vbt_B1_day3,2022.2.4,Win32,58.50348096,,,,,,,,,,,,,,,,,,,,,,,,,,,,,,0.670833333,0.165,1,0,0,,,,,,,,,,,
,,,,,00076,2023-10-19_21h29.06.813,vbt_B1_day3,2022.2.4,Win32,58.50348096,,,,,,,,,,,,,,,,,,,,onrecht,images/br_onrecht.png,images/cb_onrecht.png,,onrecht,,,,,,,,,,,0.670833333,0.165,1,0,0,onrecht,0,0,0,55,1
,,,,,00076,2023-10-19_21h29.06.813,vbt_B1_day3,2022.2.4,Win32,58.50348096,,,,,,,,,,,,,,,,,,,,uniek,images/br_uniek.png,images/cb_uniek.png,,uniek,,,,,,,,,,,0.670833333,0.165,1,0,0,uniek,0,1,1,46,1
,,,,,00076,2023-10-19_21h29.06.813,vbt_B1_day3,2022.2.4,Win32,58.50348096,,,,,,,,,,,,,,,,,,,,twaaf,images/br_twaaf.png,images/cb_twaaf.png,,twaaf,,,,,,,,,,,0.670833333,0.165,1,0,0,twaaf,0,2,2,24,1
,,,,,00076,2023-10-19_21h29.06.813,vbt_B1_day3,2022.2.4,Win32,58.50348096,,,,,,,,,,,,,,,,,,,,dwang,images/br_dwang.png,images/cb_dwang.png,,dwang,,,,,,,,,,,0.670833333,0.165,1,0,0,dwang,0,3,3,47,1
,,,,,00076,2023-10-19_21h29.06.813,vbt_B1_day3,2022.2.4,Win32,58.50348096,,,,,,,,,,,,,,,,,,,,keihard,images/br_keihard.png,images/cb_keihard.png,,keihard,,,,,,,,,,,0.670833333,0.165,1,0,0,keihard,0,4,4,14,1
,,,,,00076,2023-10-19_21h29.06.813,vbt_B1_day3,2022.2.4,Win32,58.50348096,,,,,,,,,,,,,,,,,,,,verwoor,images/br_verwoor.png,images/cb_verwoor.png,,verbaar,,,,,,,,,,,0.670833333,0.165,1,0,0,verbaar,0,5,5,32,1
,,,,,00076,2023-10-19_21h29.06.813,vbt_B1_day3,2022.2.4,Win32,58.50348096,,,,,,,,,,,,,,,,,,,,sluier,images/br_sluier.png,images/cb_sluier.png,,sluier,,,,,,,,,,,0.670833333,0.165,1,0,0,sluier,0,6,6,50,1
,,,,,00076,2023-10-19_21h29.06.813,vbt_B1_day3,2022.2.4,Win32,58.50348096,,,,,,,,,,,,,,,,,,,,stallen,images/br_stallen.png,images/cb_stallen.png,,stallen,,,,,,,,,,,0.670833333,0.165,1,0,0,stallen,0,7,7,52,1
,,,,,00076,2023-10-19_21h29.06.813,vbt_B1_day3,2022.2.4,Win32,58.50348096,,,,,,,,,,,,,,,,,,,,begrip,images/br_begrip.png,images/cb_begrip.png,,bergop,,,,,,,,,,,0.670833333,0.165,1,0,0,bergop,0,8,8,48,1
,,,,,00076,2023-10-19_21h29.06.813,vbt_B1_day3,2022.2.4,Win32,58.50348096,,,,,,,,,,,,,,,,,,,,prikken,images/br_prikken.png,images/cb_prikken.png,,prikken,,,,,,,,,,,0.670833333,0.165,1,0,0,prikken,0,9,9,12,1
,,,,,00076,2023-10-19_21h29.06.813,vbt_B1_day3,2022.2.4,Win32,58.50348096,,,,,,,,,,,,,,,,,,,,slapen,images/br_slapen.png,images/cb_slapen.png,,slapen,,,,,,,,,,,0.670833333,0.165,1,0,0,slapen,0,10,10,9,1
,,,,,00076,2023-10-19_21h29.06.813,vbt_B1_day3,2022.2.4,Win32,58.50348096,,,,,,,,,,,,,,,,,,,,theeting,images/br_theeting.png,images/cb_theeting.png,,theet,,,,,,,,,,,0.670833333,0.165,1,0,0,theet,0,11,11,38,1
,,,,,00076,2023-10-19_21h29.06.813,vbt_B1_day3,2022.2.4,Win32,58.50348096,,,,,,,,,,,,,,,,,,,,eens,images/br_eens.png,images/cb_eens.png,,eens,,,,,,,,,,,0.670833333,0.165,1,0,0,eens,0,12,12,40,1
,,,,,00076,2023-10-19_21h29.06.813,vbt_B1_day3,2022.2.4,Win32,58.50348096,,,,,,,,,,,,,,,,,,,,sultan,images/br_sultan.png,images/cb_sultan.png,,sultan,,,,,,,,,,,0.670833333,0.165,1,0,0,sultan,0,13,13,49,1
,,,,,00076,2023-10-19_21h29.06.813,vbt_B1_day3,2022.2.4,Win32,58.50348096,,,,,,,,,,,,,,,,,,,,opzetten,images/br_opzetten.png,images/cb_opzetten.png,,opnetten,,,,,,,,,,,0.670833333,0.165,1,0,0,opnetten,0,14,14,56,1
,,,,,00076,2023-10-19_21h29.06.813,vbt_B1_day3,2022.2.4,Win32,58.50348096,,,,,,,,,,,,,,,,,,,,hier,images/br_hier.png,images/cb_hier.png,,hier,,,,,,,,,,,0.670833333,0.165,1,0,0,hier,0,15,15,1,1
,,,,,00076,2023-10-19_21h29.06.813,vbt_B1_day3,2022.2.4,Win32,58.50348096,,,,,,,,,,,,,,,,,,,,verhaal,images/br_verhaal.png,images/cb_verhaal.png,,ler,,,,,,,,,,,0.670833333,0.165,1,0,0,ler,0,16,16,13,1
,,,,,00076,2023-10-19_21h29.06.813,vbt_B1_day3,2022.2.4,Win32,58.50348096,,,,,,,,,,,,,,,,,,,,bevret,images/br_bevret.png,images/cb_bevret.png,,belret,,,,,,,,,,,0.670833333,0.165,1,0,0,belret,0,17,17,30,1
,,,,,00076,2023-10-19_21h29.06.813,vbt_B1_day3,2022.2.4,Win32,58.50348096,,,,,,,,,,,,,,,,,,,,leek,images/br_leek.png,images/cb_leek.png,,leek,,,,,,,,,,,0.670833333,0.165,1,0,0,leek,0,18,18,2,1
,,,,,00076,2023-10-19_21h29.06.813,vbt_B1_day3,2022.2.4,Win32,58.50348096,,,,,,,,,,,,,,,,,,,,booien,images/br_booien.png,images/cb_booien.png,,booien,,,,,,,,,,,0.670833333,0.165,1,0,0,booien,0,19,19,31,1
,,,,,00076,2023-10-19_21h29.06.813,vbt_B1_day3,2022.2.4,Win32,58.50348096,,,,,,,,,,,,,,,,,,,,hint,images/br_hint.png,images/cb_hint.png,,hint,,,,,,,,,,,0.670833333,0.165,1,0,0,hint,0,20,20,43,1
,,,,,00076,2023-10-19_21h29.06.813,vbt_B1_day3,2022.2.4,Win32,58.50348096,,,,,,,,,,,,,,,,,,,,makieren,images/br_makieren.png,images/cb_makieren.png,,manieren,,,,,,,,,,,0.670833333,0.165,1,0,0,manieren,0,21,21,36,1
,,,,,00076,2023-10-19_21h29.06.813,vbt_B1_day3,2022.2.4,Win32,58.50348096,,,,,,,,,,,,,,,,,,,,glijden,images/br_glijden.png,images/cb_glijden.png,,glijden,,,,,,,,,,,0.670833333,0.165,1,0,0,glijden,0,22,22,53,1
,,,,,00076,2023-10-19_21h29.06.813,vbt_B1_day3,2022.2.4,Win32,58.50348096,,,,,,,,,,,,,,,,,,,,brappen,images/br_brappen.png,images/cb_brappen.png,,brappen,,,,,,,,,,,0.670833333,0.165,1,0,0,brappen,0,23,23,35,1
,,,,,00076,2023-10-19_21h29.06.813,vbt_B1_day3,2022.2.4,Win32,58.50348096,,,,,,,,,,,,,,,,,,,,boeien,images/br_boeien.png,images/cb_boeien.png,,boeien,,,,,,,,,,,0.671666667,0.164166667,1,0,0,boeien,0,24,24,8,1
,,,,,00076,2023-10-19_21h29.06.813,vbt_B1_day3,2022.2.4,Win32,58.50348096,,,,,,,,,,,,,,,,,,,,gebod,images/br_gebod.png,images/cb_gebod.png,,gebod,,,,,,,,,,,0.671666667,0.164166667,1,0,0,gebod,0,25,25,45,1
,,,,,00076,2023-10-19_21h29.06.813,vbt_B1_day3,2022.2.4,Win32,58.50348096,,,,,,,,,,,,,,,,,,,,bisschop,images/br_bisschop.png,images/cb_bisschop.png,,bisschop,,,,,,,,,,,0.671666667,0.164166667,1,0,0,bisschop,0,26,26,16,1
,,,,,00076,2023-10-19_21h29.06.813,vbt_B1_day3,2022.2.4,Win32,58.50348096,,,,,,,,,,,,,,,,,,,,geluid,images/br_geluid.png,images/cb_geluid.png,,geluid,,,,,,,,,,,0.671666667,0.164166667,1,0,0,geluid,0,27,27,10,1
,,,,,00076,2023-10-19_21h29.06.813,vbt_B1_day3,2022.2.4,Win32,58.50348096,,,,,,,,,,,,,,,,,,,,opzicht,images/br_opzicht.png,images/cb_opzicht.png,,opzicht,,,,,,,,,,,0.671666667,0.164166667,1,0,0,opzicht,0,28,28,15,1
,,,,,00076,2023-10-19_21h29.06.813,vbt_B1_day3,2022.2.4,Win32,58.50348096,,,,,,,,,,,,,,,,,,,,beslag,images/br_beslag.png,images/cb_beslag.png,,beslag,,,,,,,,,,,0.671666667,0.164166667,1,0,0,beslag,0,29,29,51,1
,,,,,00076,2023-10-19_21h29.06.813,vbt_B1_day3,2022.2.4,Win32,58.50348096,,,,,,,,,,,,,,,,,,,,samen,images/br_samen.png,images/cb_samen.png,,samen,,,,,,,,,,,0.671666667,0.164166667,1,0,0,samen,0,30,30,7,1
,,,,,00076,2023-10-19_21h29.06.813,vbt_B1_day3,2022.2.4,Win32,58.50348096,,,,,,,,,,,,,,,,,,,,invallen,images/br_invallen.png,images/cb_invallen.png,,env,,,,,,,,,,,0.671666667,0.164166667,1,0,0,env,0,31,31,57,1
,,,,,00076,2023-10-19_21h29.06.813,vbt_B1_day3,2022.2.4,Win32,58.50348096,,,,,,,,,,,,,,,,,,,,verraden,images/br_verraden.png,images/cb_verraden.png,,veraad,,,,,,,,,,,0.671666667,0.164166667,1,0,0,veraad,0,32,32,58,1
,,,,,00076,2023-10-19_21h29.06.813,vbt_B1_day3,2022.2.4,Win32,58.50348096,,,,,,,,,,,,,,,,,,,,kwaas,images/br_kwaas.png,images/cb_kwaas.png,,kwaas,,,,,,,,,,,0.671666667,0.164166667,1,0,0,kwaas,0,33,33,26,1
,,,,,00076,2023-10-19_21h29.06.813,vbt_B1_day3,2022.2.4,Win32,58.50348096,,,,,,,,,,,,,,,,,,,,steel,images/br_steel.png,images/cb_steel.png,,steel,,,,,,,,,,,0.671666667,0.164166667,1,0,0,steel,0,34,34,4,1
,,,,,00076,2023-10-19_21h29.06.813,vbt_B1_day3,2022.2.4,Win32,58.50348096,,,,,,,,,,,,,,,,,,,,gezond,images/br_gezond.png,images/cb_gezond.png,,gezond,,,,,,,,,,,0.671666667,0.164166667,1,0,0,gezond,0,35,35,11,1
,,,,,00076,2023-10-19_21h29.06.813,vbt_B1_day3,2022.2.4,Win32,58.50348096,,,,,,,,,,,,,,,,,,,,laken,images/br_laken.png,images/cb_laken.png,,laken,,,,,,,,,,,0.671666667,0.164166667,1,0,0,laken,0,36,36,5,1
,,,,,00076,2023-10-19_21h29.06.813,vbt_B1_day3,2022.2.4,Win32,58.50348096,,,,,,,,,,,,,,,,,,,,uviek,images/br_uviek.png,images/cb_uviek.png,,uviek,,,,,,,,,,,0.671666667,0.164166667,1,0,0,uviek,0,37,37,25,1
,,,,,00076,2023-10-19_21h29.06.813,vbt_B1_day3,2022.2.4,Win32,58.50348096,,,,,,,,,,,,,,,,,,,,jongelui,images/br_jongelui.png,images/cb_jongelui.png,,jong...,,,,,,,,,,,0.671666667,0.164166667,1,0,0,jong...,0,38,38,59,1
,,,,,00076,2023-10-19_21h29.06.813,vbt_B1_day3,2022.2.4,Win32,58.50348096,,,,,,,,,,,,,,,,,,,,zone,images/br_zone.png,images/cb_zone.png,,zone,,,,,,,,,,,0.671666667,0.164166667,1,0,0,zone,0,39,39,41,1
,,,,,00076,2023-10-19_21h29.06.813,vbt_B1_day3,2022.2.4,Win32,58.50348096,,,,,,,,,,,,,,,,,,,,mugeek,images/br_mugeek.png,images/cb_mugeek.png,,mugeek,,,,,,,,,,,0.671666667,0.164166667,1,0,0,mugeek,0,40,40,29,1
,,,,,00076,2023-10-19_21h29.06.813,vbt_B1_day3,2022.2.4,Win32,58.50348096,,,,,,,,,,,,,,,,,,,,mode,images/br_mode.png,images/cb_mode.png,,,,,,,,,,,,,0.671666667,0.164166667,1,0,0,,0,41,41,3,1
,,,,,00076,2023-10-19_21h29.06.813,vbt_B1_day3,2022.2.4,Win32,58.50348096,,,,,,,,,,,,,,,,,,,,stoom,images/br_stoom.png,images/cb_stoom.png,,stoop,,,,,,,,,,,0.671666667,0.164166667,1,0,0,stoop,0,42,42,6,1
,,,,,00076,2023-10-19_21h29.06.813,vbt_B1_day3,2022.2.4,Win32,58.50348096,,,,,,,,,,,,,,,,,,,,vlager,images/br_vlager.png,images/cb_vlager.png,,vlager,,,,,,,,,,,0.671666667,0.164166667,1,0,0,vlager,0,43,43,28,1
,,,,,00076,2023-10-19_21h29.06.813,vbt_B1_day3,2022.2.4,Win32,58.50348096,,,,,,,,,,,,,,,,,,,,schodel,images/br_schodel.png,images/cb_schodel.png,,sch,,,,,,,,,,,0.671666667,0.164166667,1,0,0,sch,0,44,44,33,1
,,,,,00076,2023-10-19_21h29.06.813,vbt_B1_day3,2022.2.4,Win32,58.50348096,,,,,,,,,,,,,,,,,,,,schatten,images/br_schatten.png,images/cb_schatten.png,,schatten,,,,,,,,,,,0.671666667,0.164166667,1,0,0,schatten,0,45,45,18,1
,,,,,00076,2023-10-19_21h29.06.813,vbt_B1_day3,2022.2.4,Win32,58.50348096,,,,,,,,,,,,,,,,,,,,stikken,images/br_stikken.png,images/cb_stikken.png,,stikken,,,,,,,,,,,0.671666667,0.164166667,1,0,0,stikken,0,46,46,54,1
,,,,,00076,2023-10-19_21h29.06.813,vbt_B1_day3,2022.2.4,Win32,58.50348096,,,,,,,,,,,,,,,,,,,,gout,images/br_gout.png,images/cb_gout.png,,gout,,,,,,,,,,,0.671666667,0.164166667,1,0,0,gout,0,47,47,20,1
,,,,,00076,2023-10-19_21h29.06.813,vbt_B1_day3,2022.2.4,Win32,58.50348096,,,,,,,,,,,,,,,,,,,,hust,images/br_hust.png,images/cb_hust.png,,hust,,,,,,,,,,,0.671666667,0.164166667,1,0,0,hust,0,48,48,23,1
,,,,,00076,2023-10-19_21h29.06.813,vbt_B1_day3,2022.2.4,Win32,58.50348096,,,,,,,,,,,,,,,,,,,,croo,images/br_croo.png,images/cb_croo.png,,croo,,,,,,,,,,,0.671666667,0.164166667,1,0,0,croo,0,49,49,22,1
,,,,,00076,2023-10-19_21h29.06.813,vbt_B1_day3,2022.2.4,Win32,58.50348096,,,,,,,,,,,,,,,,,,,,leugeren,images/br_leugeren.png,images/cb_leugeren.png,,leugerer,,,,,,,,,,,0.671666667,0.164166667,1,0,0,leugerer,0,50,50,37,1
,,,,,00076,2023-10-19_21h29.06.813,vbt_B1_day3,2022.2.4,Win32,58.50348096,,,,,,,,,,,,,,,,,,,,aarzelen,images/br_aarzelen.png,images/cb_aarzelen.png,,aarnelen,,,,,,,,,,,0.671666667,0.164166667,1,0,0,aarnelen,0,51,51,19,1
,,,,,00076,2023-10-19_21h29.06.813,vbt_B1_day3,2022.2.4,Win32,58.50348096,,,,,,,,,,,,,,,,,,,,paken,images/br_paken.png,images/cb_paken.png,,paken,,,,,,,,,,,0.671666667,0.164166667,1,0,0,paken,0,52,52,27,1
,,,,,00076,2023-10-19_21h29.06.813,vbt_B1_day3,2022.2.4,Win32,58.50348096,,,,,,,,,,,,,,,,,,,,alsof,images/br_alsof.png,images/cb_alsof.png,,alsof,,,,,,,,,,,0.671666667,0.164166667,1,0,0,alsof,0,53,53,44,1
,,,,,00076,2023-10-19_21h29.06.813,vbt_B1_day3,2022.2.4,Win32,58.50348096,,,,,,,,,,,,,,,,,,,,oprotten,images/br_oprotten.png,images/cb_oprotten.png,,oprotten,,,,,,,,,,,0.671666667,0.164166667,1,0,0,oprotten,0,54,54,17,1
,,,,,00076,2023-10-19_21h29.06.813,vbt_B1_day3,2022.2.4,Win32,58.50348096,,,,,,,,,,,,,,,,,,,,kaas,images/br_kaas.png,images/cb_kaas.png,,koos,,,,,,,,,,,0.671666667,0.164166667,1,0,0,koos,0,55,55,42,1
,,,,,00076,2023-10-19_21h29.06.813,vbt_B1_day3,2022.2.4,Win32,58.50348096,,,,,,,,,,,,,,,,,,,,knie,images/br_knie.png,images/cb_knie.png,,knie,,,,,,,,,,,0.671666667,0.164166667,1,0,0,knie,0,56,56,0,1
,,,,,00076,2023-10-19_21h29.06.813,vbt_B1_day3,2022.2.4,Win32,58.50348096,,,,,,,,,,,,,,,,,,,,afbopen,images/br_afbopen.png,images/cb_afbopen.png,,ofbopen,,,,,,,,,,,0.671666667,0.164166667,1,0,0,ofbopen,0,57,57,34,1
,,,,,00076,2023-10-19_21h29.06.813,vbt_B1_day3,2022.2.4,Win32,58.50348096,,,,,,,,,,,,,,,,,,,,leemaken,images/br_leemaken.png,images/cb_leemaken.png,,leepaken,,,,,,,,,,,0.671666667,0.164166667,1,0,0,leepaken,0,58,58,39,1
,,,,,00076,2023-10-19_21h29.06.813,vbt_B1_day3,2022.2.4,Win32,58.50348096,,,,,,,,,,,,,,,,,,,,kest,images/br_kest.png,images/cb_kest.png,,kest,,,,,,,,,,,0.671666667,0.164166667,1,0,0,kest,0,59,59,21,1
,,,,,00076,2023-10-19_21h29.06.813,vbt_B1_day3,2022.2.4,Win32,58.50348096,,,,,,,,,,,,,,,,,,,,,,,,,,,,,,,,,,,,,,,,,,,,,
