welcome_mouse.x,welcome_mouse.y,welcome_mouse.leftButton,welcome_mouse.midButton,welcome_mouse.rightButton,"ID",date,expName,psychopyVersion,OS,frameRate,trainInstr_mouse.x,trainInstr_mouse.y,trainInstr_mouse.leftButton,trainInstr_mouse.midButton,trainInstr_mouse.rightButton,translation_key.keys,translation_key.corr,translation_key.rt,word_rsp.text,trWrd_mouse.x,trWrd_mouse.y,trWrd_mouse.leftButton,trWrd_mouse.midButton,trWrd_mouse.rightButton,train_loop.thisRepN,train_loop.thisTrialN,train_loop.thisN,train_loop.thisIndex,train_loop.ran,nlWrd,brWrd,cbWrd,test,testResp,mouse.x,mouse.y,mouse.leftButton,mouse.midButton,mouse.rightButton,testInstr_mouse.x,testInstr_mouse.y,testInstr_mouse.leftButton,testInstr_mouse.midButton,testInstr_mouse.rightButton,test_mouse.x,test_mouse.y,test_mouse.leftButton,test_mouse.midButton,test_mouse.rightButton,test_response.text,test_loop.thisRepN,test_loop.thisTrialN,test_loop.thisN,test_loop.thisIndex,test_loop.ran
-0.199999986,-0.212037051,1,0,0,00082,2023-10-23_22h37.23.873,vbt_B1_day3,2022.2.4,Win32,60.0240096,,,,,,,,,,,,,,,,,,,,,,,,,,,,,,,,,,,,,,,,,,,,,
,,,,,00082,2023-10-23_22h37.23.873,vbt_B1_day3,2022.2.4,Win32,60.0240096,-0.092592593,-0.126851894,1,0,0,,,,,,,,,,,,,,,,,,,,,,,,,,,,,,,,,,,,,,,,
,,,,,00082,2023-10-23_22h37.23.873,vbt_B1_day3,2022.2.4,Win32,60.0240096,,,,,,down,0,0.301,,0.165740755,0.027777778,1,0,0,0,0,0,125,1,aanzien,images/br_aanzien.png,images/cb_aanzien.png,0,,,,,,,,,,,,,,,,,,,,,,
,,,,,00082,2023-10-23_22h37.23.873,vbt_B1_day3,2022.2.4,Win32,60.0240096,,,,,,down,0,6.0472,,0.176851838,0.047222208,1,0,0,0,1,1,69,1,waken,images/br_waken.png,images/cb_waken.png,0,,,,,,,,,,,,,,,,,,,,,,
,,,,,00082,2023-10-23_22h37.23.873,vbt_B1_day3,2022.2.4,Win32,60.0240096,,,,,,down,0,7.2101,,0.176851838,0.048148155,1,0,0,0,2,2,21,1,mist,images/br_mist.png,images/cb_mist.png,1,mist,,,,,,,,,,,,,,,,,,,,,
,,,,,00082,2023-10-23_22h37.23.873,vbt_B1_day3,2022.2.4,Win32,60.0240096,,,,,,down,0,19.5151,,0.188888903,-0.142592607,1,0,0,0,3,3,22,1,stof,images/br_stof.png,images/cb_stof.png,1,stof,,,,,,,,,,,,,,,,,,,,,
,,,,,00082,2023-10-23_22h37.23.873,vbt_B1_day3,2022.2.4,Win32,60.0240096,,,,,,down,0,1.3417,,0.490740741,0.033333319,1,0,0,0,4,4,122,1,waarvan,images/br_waarvan.png,images/cb_waarvan.png,0,,,,,,,,,,,,,,,,,,,,,,
,,,,,00082,2023-10-23_22h37.23.873,vbt_B1_day3,2022.2.4,Win32,60.0240096,,,,,,down,0,1.4329,,0.44722225,0.04074072,1,0,0,0,5,5,160,1,daarheen,images/br_daarheen.png,images/cb_daarheen.png,0,,,,,,,,,,,,,,,,,,,,,,
,,,,,00082,2023-10-23_22h37.23.873,vbt_B1_day3,2022.2.4,Win32,60.0240096,,,,,,down,0,1.8483,,0.44722225,0.04074072,1,0,0,0,6,6,79,1,nodig,images/br_nodig.png,images/cb_nodig.png,0,,,,,,,,,,,,,,,,,,,,,,
,,,,,00082,2023-10-23_22h37.23.873,vbt_B1_day3,2022.2.4,Win32,60.0240096,,,,,,down,0,0.1728,,0.44722225,0.04074072,1,0,0,0,7,7,113,1,koppen,images/br_koppen.png,images/cb_koppen.png,0,,,,,,,,,,,,,,,,,,,,,,
,,,,,00082,2023-10-23_22h37.23.873,vbt_B1_day3,2022.2.4,Win32,60.0240096,,,,,,down,0,1.4035,,0.450000057,0.043518526,1,0,0,0,8,8,90,1,geluid,images/br_geluid.png,images/cb_geluid.png,0,,,,,,,,,,,,,,,,,,,,,,
,,,,,00082,2023-10-23_22h37.23.873,vbt_B1_day3,2022.2.4,Win32,60.0240096,,,,,,down,0,0.4698,,0.450000057,0.043518526,1,0,0,0,9,9,48,1,steel,images/br_steel.png,images/cb_steel.png,0,,,,,,,,,,,,,,,,,,,,,,
,,,,,00082,2023-10-23_22h37.23.873,vbt_B1_day3,2022.2.4,Win32,60.0240096,,,,,,down,0,0.2342,,0.466666751,0.042592578,1,0,0,0,10,10,159,1,sufferd,images/br_sufferd.png,images/cb_sufferd.png,0,,,,,,,,,,,,,,,,,,,,,,
,,,,,00082,2023-10-23_22h37.23.873,vbt_B1_day3,2022.2.4,Win32,60.0240096,,,,,,down,0,0.4904,,0.479629658,0.043518526,1,0,0,0,11,11,8,1,knie,images/br_knie.png,images/cb_knie.png,0,,,,,,,,,,,,,,,,,,,,,,
,,,,,00082,2023-10-23_22h37.23.873,vbt_B1_day3,2022.2.4,Win32,60.0240096,,,,,,down,0,3.4445,,0.473148205,0.041666667,1,0,0,0,12,12,55,1,praat,images/br_praat.png,images/cb_praat.png,0,,,,,,,,,,,,,,,,,,,,,,
,,,,,00082,2023-10-23_22h37.23.873,vbt_B1_day3,2022.2.4,Win32,60.0240096,,,,,,down,0,0.2725,,0.466666751,0.04074072,1,0,0,0,13,13,6,1,diep,images/br_diep.png,images/cb_diep.png,0,,,,,,,,,,,,,,,,,,,,,,
,,,,,00082,2023-10-23_22h37.23.873,vbt_B1_day3,2022.2.4,Win32,60.0240096,,,,,,down,0,1.4364,,0.470370399,0.04074072,1,0,0,0,14,14,172,1,weigeren,images/br_weigeren.png,images/cb_weigeren.png,0,,,,,,,,,,,,,,,,,,,,,,
,,,,,00082,2023-10-23_22h37.23.873,vbt_B1_day3,2022.2.4,Win32,60.0240096,,,,,,down,0,0.0395,,0.483333305,0.099999993,1,0,0,0,15,15,36,1,vuur,images/br_vuur.png,images/cb_vuur.png,0,,,,,,,,,,,,,,,,,,,,,,
,,,,,00082,2023-10-23_22h37.23.873,vbt_B1_day3,2022.2.4,Win32,60.0240096,,,,,,down,0,3.6139,,0.483333305,0.099999993,1,0,0,0,16,16,168,1,bisschop,images/br_bisschop.png,images/cb_bisschop.png,0,,,,,,,,,,,,,,,,,,,,,,
,,,,,00082,2023-10-23_22h37.23.873,vbt_B1_day3,2022.2.4,Win32,60.0240096,,,,,,down,0,3.1836,,0.491666723,0.092592593,1,0,0,0,17,17,199,1,beseffen,images/br_beseffen.png,images/cb_beseffen.png,0,,,,,,,,,,,,,,,,,,,,,,
,,,,,00082,2023-10-23_22h37.23.873,vbt_B1_day3,2022.2.4,Win32,60.0240096,,,,,,down,0,0.2417,,0.491666723,0.092592593,1,0,0,0,18,18,0,1,slak,images/br_slak.png,images/cb_slak.png,0,,,,,,,,,,,,,,,,,,,,,,
,,,,,00082,2023-10-23_22h37.23.873,vbt_B1_day3,2022.2.4,Win32,60.0240096,,,,,,down,0,0.3168,,0.310185185,-0.170370384,1,0,0,0,19,19,56,1,traag,images/br_traag.png,images/cb_traag.png,0,,,,,,,,,,,,,,,,,,,,,,
,,,,,00082,2023-10-23_22h37.23.873,vbt_B1_day3,2022.2.4,Win32,60.0240096,,,,,,down,0,2.4148,,0.37962963,-0.142592607,1,0,0,0,20,20,9,1,hier,images/br_hier.png,images/cb_hier.png,0,,,,,,,,,,,,,,,,,,,,,,
,,,,,00082,2023-10-23_22h37.23.873,vbt_B1_day3,2022.2.4,Win32,60.0240096,,,,,,down,0,1.3031,,0.323148233,-0.145370413,1,0,0,0,21,21,166,1,strikken,images/br_strikken.png,images/cb_strikken.png,0,,,,,,,,,,,,,,,,,,,,,,
,,,,,00082,2023-10-23_22h37.23.873,vbt_B1_day3,2022.2.4,Win32,60.0240096,,,,,,down,0,0.4728,,0.323148233,-0.145370413,1,0,0,0,22,22,147,1,komisch,images/br_komisch.png,images/cb_komisch.png,0,,,,,,,,,,,,,,,,,,,,,,
,,,,,00082,2023-10-23_22h37.23.873,vbt_B1_day3,2022.2.4,Win32,60.0240096,,,,,,down,0,0.05,,0.323148233,-0.145370413,1,0,0,0,23,23,44,1,flits,images/br_flits.png,images/cb_flits.png,0,,,,,,,,,,,,,,,,,,,,,,
,,,,,00082,2023-10-23_22h37.23.873,vbt_B1_day3,2022.2.4,Win32,60.0240096,,,,,,down,0,1.2,,0.323148233,-0.145370413,1,0,0,0,24,24,78,1,leren,images/br_leren.png,images/cb_leren.png,0,,,,,,,,,,,,,,,,,,,,,,
,,,,,00082,2023-10-23_22h37.23.873,vbt_B1_day3,2022.2.4,Win32,60.0240096,,,,,,down,0,0.9088,,0.323148233,-0.145370413,1,0,0,0,25,25,173,1,apparaat,images/br_apparaat.png,images/cb_apparaat.png,0,,,,,,,,,,,,,,,,,,,,,,
,,,,,00082,2023-10-23_22h37.23.873,vbt_B1_day3,2022.2.4,Win32,60.0240096,,,,,,down,0,9.5831,,0.329629686,-0.162037037,1,0,0,0,26,26,142,1,snuiven,images/br_snuiven.png,images/cb_snuiven.png,1,snuiven,,,,,,,,,,,,,,,,,,,,,
,,,,,00082,2023-10-23_22h37.23.873,vbt_B1_day3,2022.2.4,Win32,60.0240096,,,,,,down,0,6.0961,,0.305555556,-0.166666667,1,0,0,0,27,27,16,1,ziek,images/br_ziek.png,images/cb_ziek.png,0,,,,,,,,,,,,,,,,,,,,,,
,,,,,00082,2023-10-23_22h37.23.873,vbt_B1_day3,2022.2.4,Win32,60.0240096,,,,,,down,0,1.1006,,0.30277775,-0.188888903,1,0,0,0,28,28,91,1,gezond,images/br_gezond.png,images/cb_gezond.png,0,,,,,,,,,,,,,,,,,,,,,,
,,,,,00082,2023-10-23_22h37.23.873,vbt_B1_day3,2022.2.4,Win32,60.0240096,,,,,,down,0,0.1557,,0.300000085,-0.192592621,1,0,0,0,29,29,124,1,bloeien,images/br_bloeien.png,images/cb_bloeien.png,0,,,,,,,,,,,,,,,,,,,,,,
,,,,,00082,2023-10-23_22h37.23.873,vbt_B1_day3,2022.2.4,Win32,60.0240096,,,,,,down,0,0.9711,,0.300000085,-0.192592621,1,0,0,0,30,30,112,1,lukken,images/br_lukken.png,images/cb_lukken.png,0,,,,,,,,,,,,,,,,,,,,,,
,,,,,00082,2023-10-23_22h37.23.873,vbt_B1_day3,2022.2.4,Win32,60.0240096,,,,,,down,0,8.9894,,0.304629714,-0.191666709,1,0,0,0,31,31,42,1,bleek,images/br_bleek.png,images/cb_bleek.png,0,,,,,,,,,,,,,,,,,,,,,,
,,,,,00082,2023-10-23_22h37.23.873,vbt_B1_day3,2022.2.4,Win32,60.0240096,,,,,,down,0,0.3745,,0.303703732,-0.192592621,1,0,0,0,32,32,131,1,opzicht,images/br_opzicht.png,images/cb_opzicht.png,0,,,,,,,,,,,,,,,,,,,,,,
,,,,,00082,2023-10-23_22h37.23.873,vbt_B1_day3,2022.2.4,Win32,60.0240096,,,,,,down,0,0.108,,0.283333319,-0.190740727,1,0,0,0,33,33,149,1,redding,images/br_redding.png,images/cb_redding.png,0,,,,,,,,,,,,,,,,,,,,,,
,,,,,00082,2023-10-23_22h37.23.873,vbt_B1_day3,2022.2.4,Win32,60.0240096,,,,,,down,0,0.2099,,0.287037037,-0.190740727,1,0,0,0,34,34,2,1,jaar,images/br_jaar.png,images/cb_jaar.png,0,,,,,,,,,,,,,,,,,,,,,,
,,,,,00082,2023-10-23_22h37.23.873,vbt_B1_day3,2022.2.4,Win32,60.0240096,,,,,,down,0,1.2366,,0.287037037,-0.190740727,1,0,0,0,35,35,96,1,slagen,images/br_slagen.png,images/cb_slagen.png,0,,,,,,,,,,,,,,,,,,,,,,
,,,,,00082,2023-10-23_22h37.23.873,vbt_B1_day3,2022.2.4,Win32,60.0240096,,,,,,down,0,0.6559,,0.287037037,-0.190740727,1,0,0,0,36,36,178,1,huisdier,images/br_huisdier.png,images/cb_huisdier.png,0,,,,,,,,,,,,,,,,,,,,,,
,,,,,00082,2023-10-23_22h37.23.873,vbt_B1_day3,2022.2.4,Win32,60.0240096,,,,,,down,0,0.5917,,0.287037037,-0.190740727,1,0,0,0,37,37,109,1,totaal,images/br_totaal.png,images/cb_totaal.png,0,,,,,,,,,,,,,,,,,,,,,,
,,,,,00082,2023-10-23_22h37.23.873,vbt_B1_day3,2022.2.4,Win32,60.0240096,,,,,,down,0,1.0831,,0.287037037,-0.190740727,1,0,0,0,38,38,130,1,keihard,images/br_keihard.png,images/cb_keihard.png,0,,,,,,,,,,,,,,,,,,,,,,
,,,,,00082,2023-10-23_22h37.23.873,vbt_B1_day3,2022.2.4,Win32,60.0240096,,,,,,down,0,9.1925,,0.275925954,-0.237037023,1,0,0,0,39,39,180,1,openbaar,images/br_openbaar.png,images/cb_openbaar.png,1,openbaar,,,,,,,,,,,,,,,,,,,,,
,,,,,00082,2023-10-23_22h37.23.873,vbt_B1_day3,2022.2.4,Win32,60.0240096,,,,,,down,0,11.8247,,0.281481496,-0.237037023,1,0,0,0,40,40,100,1,geduld,images/br_geduld.png,images/cb_geduld.png,1,geduld,,,,,,,,,,,,,,,,,,,,,
,,,,,00082,2023-10-23_22h37.23.873,vbt_B1_day3,2022.2.4,Win32,60.0240096,,,,,,down,0,4.6587,,0.279629672,-0.238888917,1,0,0,0,41,41,10,1,leek,images/br_leek.png,images/cb_leek.png,0,,,,,,,,,,,,,,,,,,,,,,
,,,,,00082,2023-10-23_22h37.23.873,vbt_B1_day3,2022.2.4,Win32,60.0240096,,,,,,down,0,0.9685,,0.27407406,-0.240740741,1,0,0,0,42,42,120,1,klimmen,images/br_klimmen.png,images/cb_klimmen.png,0,,,,,,,,,,,,,,,,,,,,,,
,,,,,00082,2023-10-23_22h37.23.873,vbt_B1_day3,2022.2.4,Win32,60.0240096,,,,,,down,0,2.3239,,0.27407406,-0.240740741,1,0,0,0,43,43,70,1,ijdel,images/br_ijdel.png,images/cb_ijdel.png,0,,,,,,,,,,,,,,,,,,,,,,
,,,,,00082,2023-10-23_22h37.23.873,vbt_B1_day3,2022.2.4,Win32,60.0240096,,,,,,down,0,1.8514,,0.239814829,-0.20185188,1,0,0,0,44,44,37,1,mijn,images/br_mijn.png,images/cb_mijn.png,0,,,,,,,,,,,,,,,,,,,,,,
,,,,,00082,2023-10-23_22h37.23.873,vbt_B1_day3,2022.2.4,Win32,60.0240096,,,,,,down,0,7.7264,,0.242592635,-0.20185188,1,0,0,0,45,45,53,1,baron,images/br_baron.png,images/cb_baron.png,0,,,,,,,,,,,,,,,,,,,,,,
,,,,,00082,2023-10-23_22h37.23.873,vbt_B1_day3,2022.2.4,Win32,60.0240096,,,,,,down,0,0.9832,,0.228703746,-0.196296339,1,0,0,0,46,46,105,1,wijlen,images/br_wijlen.png,images/cb_wijlen.png,0,,,,,,,,,,,,,,,,,,,,,,
,,,,,00082,2023-10-23_22h37.23.873,vbt_B1_day3,2022.2.4,Win32,60.0240096,,,,,,down,0,2.321,,0.235185199,-0.19722225,1,0,0,0,47,47,45,1,piste,images/br_piste.png,images/cb_piste.png,0,,,,,,,,,,,,,,,,,,,,,,
,,,,,00082,2023-10-23_22h37.23.873,vbt_B1_day3,2022.2.4,Win32,60.0240096,,,,,,down,0,2.1412,,0.210185228,-0.174074102,1,0,0,0,48,48,186,1,voorraad,images/br_voorraad.png,images/cb_voorraad.png,0,,,,,,,,,,,,,,,,,,,,,,
,,,,,00082,2023-10-23_22h37.23.873,vbt_B1_day3,2022.2.4,Win32,60.0240096,,,,,,down,0,2.8482,,0.219444487,-0.161111125,1,0,0,0,49,49,87,1,toeval,images/br_toeval.png,images/cb_toeval.png,0,,,,,,,,,,,,,,,,,,,,,,
,,,,,00082,2023-10-23_22h37.23.873,vbt_B1_day3,2022.2.4,Win32,60.0240096,,,,,,down,0,1.1846,,0.219444487,-0.156481496,1,0,0,0,50,50,41,1,maken,images/br_maken.png,images/cb_maken.png,0,,,,,,,,,,,,,,,,,,,,,,
,,,,,00082,2023-10-23_22h37.23.873,vbt_B1_day3,2022.2.4,Win32,60.0240096,,,,,,down,0,1.699,,0.219444487,-0.156481496,1,0,0,0,51,51,75,1,snoep,images/br_snoep.png,images/cb_snoep.png,0,,,,,,,,,,,,,,,,,,,,,,
,,,,,00082,2023-10-23_22h37.23.873,vbt_B1_day3,2022.2.4,Win32,60.0240096,,,,,,down,0,1.4657,,0.205555598,-0.158333319,1,0,0,0,52,52,4,1,moes,images/br_moes.png,images/cb_moes.png,0,,,,,,,,,,,,,,,,,,,,,,
,,,,,00082,2023-10-23_22h37.23.873,vbt_B1_day3,2022.2.4,Win32,60.0240096,,,,,,down,0,2.1389,,0.240740741,-0.050000014,1,0,0,0,53,53,17,1,taal,images/br_taal.png,images/cb_taal.png,0,,,,,,,,,,,,,,,,,,,,,,
,,,,,00082,2023-10-23_22h37.23.873,vbt_B1_day3,2022.2.4,Win32,60.0240096,,,,,,down,0,0.8562,,0.240740741,-0.050000014,1,0,0,0,54,54,47,1,kabel,images/br_kabel.png,images/cb_kabel.png,0,,,,,,,,,,,,,,,,,,,,,,
,,,,,00082,2023-10-23_22h37.23.873,vbt_B1_day3,2022.2.4,Win32,60.0240096,,,,,,down,0,4.7794,,0.248148176,-0.055555556,1,0,0,0,55,55,146,1,opkomen,images/br_opkomen.png,images/cb_opkomen.png,0,,,,,,,,,,,,,,,,,,,,,,
,,,,,00082,2023-10-23_22h37.23.873,vbt_B1_day3,2022.2.4,Win32,60.0240096,,,,,,down,0,3.0475,,0.248148176,-0.055555556,1,0,0,0,56,56,33,1,vlek,images/br_vlek.png,images/cb_vlek.png,0,,,,,,,,,,,,,,,,,,,,,,
,,,,,00082,2023-10-23_22h37.23.873,vbt_B1_day3,2022.2.4,Win32,60.0240096,,,,,,down,0,2.3316,,0.211111139,-0.036111125,1,0,0,0,57,57,117,1,kennis,images/br_kennis.png,images/cb_kennis.png,0,,,,,,,,,,,,,,,,,,,,,,
,,,,,00082,2023-10-23_22h37.23.873,vbt_B1_day3,2022.2.4,Win32,60.0240096,,,,,,down,0,0.4695,,0.211111139,-0.036111125,1,0,0,0,58,58,188,1,strekken,images/br_strekken.png,images/cb_strekken.png,0,,,,,,,,,,,,,,,,,,,,,,
,,,,,00082,2023-10-23_22h37.23.873,vbt_B1_day3,2022.2.4,Win32,60.0240096,,,,,,down,0,3.0646,,0.268518519,-0.050925926,1,0,0,0,59,59,107,1,maling,images/br_maling.png,images/cb_maling.png,0,,,,,,,,,,,,,,,,,,,,,,
,,,,,00082,2023-10-23_22h37.23.873,vbt_B1_day3,2022.2.4,Win32,60.0240096,,,,,,down,0,2.0294,,0.267592607,-0.049074067,1,0,0,0,60,60,134,1,geliefd,images/br_geliefd.png,images/cb_geliefd.png,0,,,,,,,,,,,,,,,,,,,,,,
,,,,,00082,2023-10-23_22h37.23.873,vbt_B1_day3,2022.2.4,Win32,60.0240096,,,,,,down,0,1.0994,,0.229629658,-0.042592614,1,0,0,0,61,61,77,1,woede,images/br_woede.png,images/cb_woede.png,0,,,,,,,,,,,,,,,,,,,,,,
,,,,,00082,2023-10-23_22h37.23.873,vbt_B1_day3,2022.2.4,Win32,60.0240096,,,,,,down,0,2.9194,,0.234259288,-0.037037037,1,0,0,0,62,62,93,1,waarop,images/br_waarop.png,images/cb_waarop.png,0,,,,,,,,,,,,,,,,,,,,,,
,,,,,00082,2023-10-23_22h37.23.873,vbt_B1_day3,2022.2.4,Win32,60.0240096,,,,,,down,0,2.1212,,0.198148162,-0.045370384,1,0,0,0,63,63,192,1,schaamte,images/br_schaamte.png,images/cb_schaamte.png,0,,,,,,,,,,,,,,,,,,,,,,
,,,,,00082,2023-10-23_22h37.23.873,vbt_B1_day3,2022.2.4,Win32,60.0240096,,,,,,down,0,3.6745,,0.215740769,-0.043518526,1,0,0,0,64,64,7,1,geld,images/br_geld.png,images/cb_geld.png,0,,,,,,,,,,,,,,,,,,,,,,
,,,,,00082,2023-10-23_22h37.23.873,vbt_B1_day3,2022.2.4,Win32,60.0240096,,,,,,down,0,0.0102,,0.216666681,-0.038888896,1,0,0,0,65,65,25,1,plek,images/br_plek.png,images/cb_plek.png,0,,,,,,,,,,,,,,,,,,,,,,
,,,,,00082,2023-10-23_22h37.23.873,vbt_B1_day3,2022.2.4,Win32,60.0240096,,,,,,down,0,0.4001,,0.216666681,-0.038888896,1,0,0,0,66,66,92,1,geheim,images/br_geheim.png,images/cb_geheim.png,0,,,,,,,,,,,,,,,,,,,,,,
,,,,,00082,2023-10-23_22h37.23.873,vbt_B1_day3,2022.2.4,Win32,60.0240096,,,,,,down,0,0.273,,0.216666681,-0.038888896,1,0,0,0,67,67,83,1,mening,images/br_mening.png,images/cb_mening.png,0,,,,,,,,,,,,,,,,,,,,,,
,,,,,00082,2023-10-23_22h37.23.873,vbt_B1_day3,2022.2.4,Win32,60.0240096,,,,,,down,0,0.5832,,0.216666681,-0.038888896,1,0,0,0,68,68,54,1,gebit,images/br_gebit.png,images/cb_gebit.png,0,,,,,,,,,,,,,,,,,,,,,,
,,,,,00082,2023-10-23_22h37.23.873,vbt_B1_day3,2022.2.4,Win32,60.0240096,,,,,,down,0,6.701,,0.219444487,-0.039814808,1,0,0,0,69,69,57,1,steek,images/br_steek.png,images/cb_steek.png,0,,,,,,,,,,,,,,,,,,,,,,
,,,,,00082,2023-10-23_22h37.23.873,vbt_B1_day3,2022.2.4,Win32,60.0240096,,,,,,down,0,5.2171,,0.213888875,-0.039814808,1,0,0,0,70,70,128,1,prikken,images/br_prikken.png,images/cb_prikken.png,0,,,,,,,,,,,,,,,,,,,,,,
,,,,,00082,2023-10-23_22h37.23.873,vbt_B1_day3,2022.2.4,Win32,60.0240096,,,,,,down,0,9.2518,,0.212962963,-0.041666667,1,0,0,0,71,71,174,1,stemming,images/br_stemming.png,images/cb_stemming.png,0,,,,,,,,,,,,,,,,,,,,,,
,,,,,00082,2023-10-23_22h37.23.873,vbt_B1_day3,2022.2.4,Win32,60.0240096,,,,,,down,0,13.7756,,0.255555541,-0.064814815,1,0,0,0,72,72,132,1,grappen,images/br_grappen.png,images/cb_grappen.png,0,,,,,,,,,,,,,,,,,,,,,,
,,,,,00082,2023-10-23_22h37.23.873,vbt_B1_day3,2022.2.4,Win32,60.0240096,,,,,,down,0,7.5578,,0.264814801,-0.126851894,1,0,0,0,73,73,95,1,vreten,images/br_vreten.png,images/cb_vreten.png,0,,,,,,,,,,,,,,,,,,,,,,
,,,,,00082,2023-10-23_22h37.23.873,vbt_B1_day3,2022.2.4,Win32,60.0240096,,,,,,down,0,0.0679,,0.110185199,0.125925912,1,0,0,0,74,74,158,1,innemen,images/br_innemen.png,images/cb_innemen.png,0,,,,,,,,,,,,,,,,,,,,,,
,,,,,00082,2023-10-23_22h37.23.873,vbt_B1_day3,2022.2.4,Win32,60.0240096,,,,,,down,0,0.5574,,0.112963005,0.125,1,0,0,0,75,75,98,1,kreeft,images/br_kreeft.png,images/cb_kreeft.png,0,,,,,,,,,,,,,,,,,,,,,,
,,,,,00082,2023-10-23_22h37.23.873,vbt_B1_day3,2022.2.4,Win32,60.0240096,,,,,,down,0,0.733,,0.109259288,0.124074053,1,0,0,0,76,76,170,1,schatten,images/br_schatten.png,images/cb_schatten.png,0,,,,,,,,,,,,,,,,,,,,,,
,,,,,00082,2023-10-23_22h37.23.873,vbt_B1_day3,2022.2.4,Win32,60.0240096,,,,,,down,0,2.037,,0.110185199,0.124074053,1,0,0,0,77,77,82,1,muziek,images/br_muziek.png,images/cb_muziek.png,0,,,,,,,,,,,,,,,,,,,,,,
,,,,,00082,2023-10-23_22h37.23.873,vbt_B1_day3,2022.2.4,Win32,60.0240096,,,,,,down,0,2.7227,,0.118518547,0.122222229,1,0,0,0,78,78,3,1,mand,images/br_mand.png,images/cb_mand.png,0,,,,,,,,,,,,,,,,,,,,,,
,,,,,00082,2023-10-23_22h37.23.873,vbt_B1_day3,2022.2.4,Win32,60.0240096,,,,,,down,0,1.0376,,0.118518547,0.121296282,1,0,0,0,79,79,179,1,woestijn,images/br_woestijn.png,images/cb_woestijn.png,0,,,,,,,,,,,,,,,,,,,,,,
,,,,,00082,2023-10-23_22h37.23.873,vbt_B1_day3,2022.2.4,Win32,60.0240096,,,,,,down,0,1.1906,,0.125,0.116666653,1,0,0,0,80,80,197,1,spanning,images/br_spanning.png,images/cb_spanning.png,0,,,,,,,,,,,,,,,,,,,,,,
,,,,,00082,2023-10-23_22h37.23.873,vbt_B1_day3,2022.2.4,Win32,60.0240096,,,,,,down,0,0.8686,,0.125,0.116666653,1,0,0,0,81,81,97,1,loyaal,images/br_loyaal.png,images/cb_loyaal.png,0,,,,,,,,,,,,,,,,,,,,,,
,,,,,00082,2023-10-23_22h37.23.873,vbt_B1_day3,2022.2.4,Win32,60.0240096,,,,,,down,0,1.7552,,0.125925912,0.115740741,1,0,0,0,82,82,27,1,dans,images/br_dans.png,images/cb_dans.png,0,,,,,,,,,,,,,,,,,,,,,,
,,,,,00082,2023-10-23_22h37.23.873,vbt_B1_day3,2022.2.4,Win32,60.0240096,,,,,,down,0,4.5634,,0.134259259,0.116666653,1,0,0,0,83,83,123,1,hiervan,images/br_hiervan.png,images/cb_hiervan.png,0,,,,,,,,,,,,,,,,,,,,,,
,,,,,00082,2023-10-23_22h37.23.873,vbt_B1_day3,2022.2.4,Win32,60.0240096,,,,,,down,0,6.9804,,0.229629658,0.128703683,1,0,0,0,84,84,60,1,jasje,images/br_jasje.png,images/cb_jasje.png,1,jasje,,,,,,,,,,,,,,,,,,,,,
,,,,,00082,2023-10-23_22h37.23.873,vbt_B1_day3,2022.2.4,Win32,60.0240096,,,,,,down,0,1.1559,,0.23055557,0.130555541,1,0,0,0,85,85,138,1,akkoord,images/br_akkoord.png,images/cb_akkoord.png,0,,,,,,,,,,,,,,,,,,,,,,
,,,,,00082,2023-10-23_22h37.23.873,vbt_B1_day3,2022.2.4,Win32,60.0240096,,,,,,down,0,5.7791,,0.231481481,0.130555541,1,0,0,0,86,86,32,1,palm,images/br_palm.png,images/cb_palm.png,0,,,,,,,,,,,,,,,,,,,,,,
,,,,,00082,2023-10-23_22h37.23.873,vbt_B1_day3,2022.2.4,Win32,60.0240096,,,,,,down,0,2.9516,,0.229629658,0.143518519,1,0,0,0,87,87,59,1,kring,images/br_kring.png,images/cb_kring.png,0,,,,,,,,,,,,,,,,,,,,,,
,,,,,00082,2023-10-23_22h37.23.873,vbt_B1_day3,2022.2.4,Win32,60.0240096,,,,,,down,0,8.26,,0.227777764,0.15370369,1,0,0,0,88,88,143,1,hechten,images/br_hechten.png,images/cb_hechten.png,1,hechten,,,,,,,,,,,,,,,,,,,,,
,,,,,00082,2023-10-23_22h37.23.873,vbt_B1_day3,2022.2.4,Win32,60.0240096,,,,,,down,0,4.6973,,0.252777806,0.104629623,1,0,0,0,89,89,74,1,graaf,images/br_graaf.png,images/cb_graaf.png,0,,,,,,,,,,,,,,,,,,,,,,
,,,,,00082,2023-10-23_22h37.23.873,vbt_B1_day3,2022.2.4,Win32,60.0240096,,,,,,down,0,1.2029,,0.218518504,0.050925926,1,0,0,0,90,90,30,1,uien,images/br_uien.png,images/cb_uien.png,0,,,,,,,,,,,,,,,,,,,,,,
,,,,,00082,2023-10-23_22h37.23.873,vbt_B1_day3,2022.2.4,Win32,60.0240096,,,,,,down,0,0.6398,,0.23055557,-0.0074074,1,0,0,0,91,91,72,1,strak,images/br_strak.png,images/cb_strak.png,0,,,,,,,,,,,,,,,,,,,,,,
,,,,,00082,2023-10-23_22h37.23.873,vbt_B1_day3,2022.2.4,Win32,60.0240096,,,,,,down,0,1.0093,,0.272222236,0.000925912,1,0,0,0,92,92,193,1,weeshuis,images/br_weeshuis.png,images/cb_weeshuis.png,0,,,,,,,,,,,,,,,,,,,,,,
,,,,,00082,2023-10-23_22h37.23.873,vbt_B1_day3,2022.2.4,Win32,60.0240096,,,,,,down,0,8.7604,,0.272222236,0.000925912,1,0,0,0,93,93,102,1,legaal,images/br_legaal.png,images/cb_legaal.png,1,legaal,,,,,,,,,,,,,,,,,,,,,
,,,,,00082,2023-10-23_22h37.23.873,vbt_B1_day3,2022.2.4,Win32,60.0240096,,,,,,down,0,1.0052,,0.275000042,0.008333312,1,0,0,0,94,94,111,1,ticket,images/br_ticket.png,images/cb_ticket.png,0,,,,,,,,,,,,,,,,,,,,,,
,,,,,00082,2023-10-23_22h37.23.873,vbt_B1_day3,2022.2.4,Win32,60.0240096,,,,,,down,0,2.8346,,0.383333418,0.021296289,1,0,0,0,95,95,195,1,middelen,images/br_middelen.png,images/cb_middelen.png,0,,,,,,,,,,,,,,,,,,,,,,
,,,,,00082,2023-10-23_22h37.23.873,vbt_B1_day3,2022.2.4,Win32,60.0240096,,,,,,down,0,0.7395,,0.383333418,0.021296289,1,0,0,0,96,96,177,1,maaltijd,images/br_maaltijd.png,images/cb_maaltijd.png,0,,,,,,,,,,,,,,,,,,,,,,
,,,,,00082,2023-10-23_22h37.23.873,vbt_B1_day3,2022.2.4,Win32,60.0240096,,,,,,down,0,1.7511,,0.383333418,0.021296289,1,0,0,0,97,97,66,1,lever,images/br_lever.png,images/cb_lever.png,0,,,,,,,,,,,,,,,,,,,,,,
,,,,,00082,2023-10-23_22h37.23.873,vbt_B1_day3,2022.2.4,Win32,60.0240096,,,,,,down,0,1.0001,,0.394444501,-0.009259259,1,0,0,0,98,98,52,1,wagon,images/br_wagon.png,images/cb_wagon.png,0,,,,,,,,,,,,,,,,,,,,,,
,,,,,00082,2023-10-23_22h37.23.873,vbt_B1_day3,2022.2.4,Win32,60.0240096,,,,,,down,0,1.0828,,0.414814843,-0.01203703,1,0,0,0,99,99,198,1,bedoelen,images/br_bedoelen.png,images/cb_bedoelen.png,0,,,,,,,,,,,,,,,,,,,,,,
,,,,,00082,2023-10-23_22h37.23.873,vbt_B1_day3,2022.2.4,Win32,60.0240096,,,,,,down,0,1.8481,,0.414814843,-0.01203703,1,0,0,0,100,100,194,1,driemaal,images/br_driemaal.png,images/cb_driemaal.png,0,,,,,,,,,,,,,,,,,,,,,,
,,,,,00082,2023-10-23_22h37.23.873,vbt_B1_day3,2022.2.4,Win32,60.0240096,,,,,,down,0,1.1753,,0.481481481,0.018518519,1,0,0,0,101,101,171,1,aarzelen,images/br_aarzelen.png,images/cb_aarzelen.png,0,,,,,,,,,,,,,,,,,,,,,,
,,,,,00082,2023-10-23_22h37.23.873,vbt_B1_day3,2022.2.4,Win32,60.0240096,,,,,,down,0,2.0553,,0.474074046,0.020370377,1,0,0,0,102,102,67,1,zwart,images/br_zwart.png,images/cb_zwart.png,0,,,,,,,,,,,,,,,,,,,,,,
,,,,,00082,2023-10-23_22h37.23.873,vbt_B1_day3,2022.2.4,Win32,60.0240096,,,,,,down,0,3.1521,,0.48518527,0.025000007,1,0,0,0,103,103,101,1,staren,images/br_staren.png,images/cb_staren.png,1,staren,,,,,,,,,,,,,,,,,,,,,
,,,,,00082,2023-10-23_22h37.23.873,vbt_B1_day3,2022.2.4,Win32,60.0240096,,,,,,down,0,2.4155,,0.45648151,0.037037037,1,0,0,0,104,104,164,1,anarchie,images/br_anarchie.png,images/cb_anarchie.png,0,,,,,,,,,,,,,,,,,,,,,,
,,,,,00082,2023-10-23_22h37.23.873,vbt_B1_day3,2022.2.4,Win32,60.0240096,,,,,,down,0,1,,0.45648151,0.037962949,1,0,0,0,105,105,31,1,poes,images/br_poes.png,images/cb_poes.png,0,,,,,,,,,,,,,,,,,,,,,,
,,,,,00082,2023-10-23_22h37.23.873,vbt_B1_day3,2022.2.4,Win32,60.0240096,,,,,,down,0,0.4071,,0.470370399,0.043518526,1,0,0,0,106,106,106,1,zingen,images/br_zingen.png,images/cb_zingen.png,0,,,,,,,,,,,,,,,,,,,,,,
,,,,,00082,2023-10-23_22h37.23.873,vbt_B1_day3,2022.2.4,Win32,60.0240096,,,,,,down,0,2.208,,0.470370399,0.043518526,1,0,0,0,107,107,152,1,afnemen,images/br_afnemen.png,images/cb_afnemen.png,0,,,,,,,,,,,,,,,,,,,,,,
,,,,,00082,2023-10-23_22h37.23.873,vbt_B1_day3,2022.2.4,Win32,60.0240096,,,,,,down,0,1.1549,,0.476851852,0.035185178,1,0,0,0,108,108,73,1,volop,images/br_volop.png,images/cb_volop.png,0,,,,,,,,,,,,,,,,,,,,,,
,,,,,00082,2023-10-23_22h37.23.873,vbt_B1_day3,2022.2.4,Win32,60.0240096,,,,,,down,0,1.9659,,0.294444473,0.01944443,1,0,0,0,109,109,169,1,oprotten,images/br_oprotten.png,images/cb_oprotten.png,0,,,,,,,,,,,,,,,,,,,,,,
,,,,,00082,2023-10-23_22h37.23.873,vbt_B1_day3,2022.2.4,Win32,60.0240096,,,,,,down,0,2.0153,,0.295370384,0.020370377,1,0,0,0,110,110,116,1,besmet,images/br_besmet.png,images/cb_besmet.png,0,,,,,,,,,,,,,,,,,,,,,,
,,,,,00082,2023-10-23_22h37.23.873,vbt_B1_day3,2022.2.4,Win32,60.0240096,,,,,,down,0,1.3835,,0.304629714,0.021296289,1,0,0,0,111,111,20,1,site,images/br_site.png,images/cb_site.png,1,site,,,,,,,,,,,,,,,,,,,,,
,,,,,00082,2023-10-23_22h37.23.873,vbt_B1_day3,2022.2.4,Win32,60.0240096,,,,,,down,0,0.8596,,0.304629714,0.021296289,1,0,0,0,112,112,12,1,kust,images/br_kust.png,images/cb_kust.png,0,,,,,,,,,,,,,,,,,,,,,,
,,,,,00082,2023-10-23_22h37.23.873,vbt_B1_day3,2022.2.4,Win32,60.0240096,,,,,,down,0,1.2407,,0.337037122,0.218518522,1,0,0,0,113,113,86,1,woning,images/br_woning.png,images/cb_woning.png,0,,,,,,,,,,,,,,,,,,,,,,
,,,,,00082,2023-10-23_22h37.23.873,vbt_B1_day3,2022.2.4,Win32,60.0240096,,,,,,down,0,0.3017,,0.329629686,0.215740734,1,0,0,0,114,114,104,1,zweven,images/br_zweven.png,images/cb_zweven.png,0,,,,,,,,,,,,,,,,,,,,,,
,,,,,00082,2023-10-23_22h37.23.873,vbt_B1_day3,2022.2.4,Win32,60.0240096,,,,,,down,0,2.5489,,0.366666723,0.102777764,1,0,0,0,115,115,141,1,knielen,images/br_knielen.png,images/cb_knielen.png,1,knielen,,,,,,,,,,,,,,,,,,,,,
,,,,,00082,2023-10-23_22h37.23.873,vbt_B1_day3,2022.2.4,Win32,60.0240096,,,,,,down,0,3.1869,,0.289814843,0.110185164,1,0,0,0,116,116,190,1,goedkoop,images/br_goedkoop.png,images/cb_goedkoop.png,0,,,,,,,,,,,,,,,,,,,,,,
,,,,,00082,2023-10-23_22h37.23.873,vbt_B1_day3,2022.2.4,Win32,60.0240096,,,,,,down,0,1.2324,,0.289814843,0.110185164,1,0,0,0,117,117,121,1,twijfel,images/br_twijfel.png,images/cb_twijfel.png,0,,,,,,,,,,,,,,,,,,,,,,
,,,,,00082,2023-10-23_22h37.23.873,vbt_B1_day3,2022.2.4,Win32,60.0240096,,,,,,down,0,1.517,,0.275000042,0.068518497,1,0,0,0,118,118,99,1,koffie,images/br_koffie.png,images/cb_koffie.png,0,,,,,,,,,,,,,,,,,,,,,,
,,,,,00082,2023-10-23_22h37.23.873,vbt_B1_day3,2022.2.4,Win32,60.0240096,,,,,,down,0,5.3311,,0.279629672,0.073148127,1,0,0,0,119,119,181,1,toegeven,images/br_toegeven.png,images/cb_toegeven.png,1,toegeven,,,,,,,,,,,,,,,,,,,,,
,,,,,00082,2023-10-23_22h37.23.873,vbt_B1_day3,2022.2.4,Win32,60.0240096,,,,,,down,0,2.1823,,0.277777778,0.073148127,1,0,0,0,120,120,1,1,zaal,images/br_zaal.png,images/cb_zaal.png,0,,,,,,,,,,,,,,,,,,,,,,
,,,,,00082,2023-10-23_22h37.23.873,vbt_B1_day3,2022.2.4,Win32,60.0240096,,,,,,down,0,1.1055,,0.235185199,0.052777785,1,0,0,0,121,121,24,1,jurk,images/br_jurk.png,images/cb_jurk.png,0,,,,,,,,,,,,,,,,,,,,,,
,,,,,00082,2023-10-23_22h37.23.873,vbt_B1_day3,2022.2.4,Win32,60.0240096,,,,,,down,0,3.9141,,0.26944443,0.055555556,1,0,0,0,122,122,61,1,groen,images/br_groen.png,images/cb_groen.png,1,groen,,,,,,,,,,,,,,,,,,,,,
,,,,,00082,2023-10-23_22h37.23.873,vbt_B1_day3,2022.2.4,Win32,60.0240096,,,,,,down,0,0.8996,,0.26944443,0.048148155,1,0,0,0,123,123,51,1,samen,images/br_samen.png,images/cb_samen.png,0,,,,,,,,,,,,,,,,,,,,,,
,,,,,00082,2023-10-23_22h37.23.873,vbt_B1_day3,2022.2.4,Win32,60.0240096,,,,,,down,0,2.236,,0.266666695,0.047222208,1,0,0,0,124,124,175,1,heengaan,images/br_heengaan.png,images/cb_heengaan.png,0,,,,,,,,,,,,,,,,,,,,,,
,,,,,00082,2023-10-23_22h37.23.873,vbt_B1_day3,2022.2.4,Win32,60.0240096,,,,,,down,0,0.1922,,0.27407406,0.0074074,1,0,0,0,125,125,71,1,bever,images/br_bever.png,images/cb_bever.png,0,,,,,,,,,,,,,,,,,,,,,,
,,,,,00082,2023-10-23_22h37.23.873,vbt_B1_day3,2022.2.4,Win32,60.0240096,,,,,,down,0,2.0149,,0.507407436,0.062037044,1,0,0,0,126,126,163,1,schuilen,images/br_schuilen.png,images/cb_schuilen.png,0,,,,,,,,,,,,,,,,,,,,,,
,,,,,00082,2023-10-23_22h37.23.873,vbt_B1_day3,2022.2.4,Win32,60.0240096,,,,,,down,0,1.1191,,0.494444529,0.059259238,1,0,0,0,127,127,167,1,eenhoorn,images/br_eenhoorn.png,images/cb_eenhoorn.png,0,,,,,,,,,,,,,,,,,,,,,,
,,,,,00082,2023-10-23_22h37.23.873,vbt_B1_day3,2022.2.4,Win32,60.0240096,,,,,,down,0,2.4515,,0.483333305,0.060185185,1,0,0,0,128,128,15,1,soda,images/br_soda.png,images/cb_soda.png,0,,,,,,,,,,,,,,,,,,,,,,
,,,,,00082,2023-10-23_22h37.23.873,vbt_B1_day3,2022.2.4,Win32,60.0240096,,,,,,down,0,2.1152,,0.486111111,0.057407414,1,0,0,0,129,129,145,1,invloed,images/br_invloed.png,images/cb_invloed.png,0,,,,,,,,,,,,,,,,,,,,,,
,,,,,00082,2023-10-23_22h37.23.873,vbt_B1_day3,2022.2.4,Win32,60.0240096,,,,,,down,0,5.2636,,0.487037094,0.048148155,1,0,0,0,130,130,80,1,kanjer,images/br_kanjer.png,images/cb_kanjer.png,0,,,,,,,,,,,,,,,,,,,,,,
,,,,,00082,2023-10-23_22h37.23.873,vbt_B1_day3,2022.2.4,Win32,60.0240096,,,,,,down,0,0.7506,,0.487962935,0.046296296,1,0,0,0,131,131,39,1,laag,images/br_laag.png,images/cb_laag.png,0,,,,,,,,,,,,,,,,,,,,,,
,,,,,00082,2023-10-23_22h37.23.873,vbt_B1_day3,2022.2.4,Win32,60.0240096,,,,,,down,0,1.1918,,0.493518547,0.047222208,1,0,0,0,132,132,68,1,schat,images/br_schat.png,images/cb_schat.png,0,,,,,,,,,,,,,,,,,,,,,,
,,,,,00082,2023-10-23_22h37.23.873,vbt_B1_day3,2022.2.4,Win32,60.0240096,,,,,,down,0,0.9832,,0.496296353,0.045370349,1,0,0,0,133,133,110,1,zuster,images/br_zuster.png,images/cb_zuster.png,0,,,,,,,,,,,,,,,,,,,,,,
,,,,,00082,2023-10-23_22h37.23.873,vbt_B1_day3,2022.2.4,Win32,60.0240096,,,,,,down,0,1.856,,0.496296353,0.045370349,1,0,0,0,134,134,119,1,liefje,images/br_liefje.png,images/cb_liefje.png,0,,,,,,,,,,,,,,,,,,,,,,
,,,,,00082,2023-10-23_22h37.23.873,vbt_B1_day3,2022.2.4,Win32,60.0240096,,,,,,down,0,1.7457,,0.4898149,-0.090740734,1,0,0,0,135,135,64,1,wegen,images/br_wegen.png,images/cb_wegen.png,0,,,,,,,,,,,,,,,,,,,,,,
,,,,,00082,2023-10-23_22h37.23.873,vbt_B1_day3,2022.2.4,Win32,60.0240096,,,,,,down,0,2.2501,,0.494444529,-0.078703704,1,0,0,0,136,136,115,1,kleren,images/br_kleren.png,images/cb_kleren.png,0,,,,,,,,,,,,,,,,,,,,,,
,,,,,00082,2023-10-23_22h37.23.873,vbt_B1_day3,2022.2.4,Win32,60.0240096,,,,,,down,0,0.2238,,0.490740741,-0.078703704,1,0,0,0,137,137,84,1,lokken,images/br_lokken.png,images/cb_lokken.png,0,,,,,,,,,,,,,,,,,,,,,,
,,,,,00082,2023-10-23_22h37.23.873,vbt_B1_day3,2022.2.4,Win32,60.0240096,,,,,,down,0,0.3007,,0.490740741,-0.078703704,1,0,0,0,138,138,108,1,excuus,images/br_excuus.png,images/cb_excuus.png,0,,,,,,,,,,,,,,,,,,,,,,
,,,,,00082,2023-10-23_22h37.23.873,vbt_B1_day3,2022.2.4,Win32,60.0240096,,,,,,down,0,0.3838,,0.490740741,-0.078703704,1,0,0,0,139,139,5,1,blad,images/br_blad.png,images/cb_blad.png,0,,,,,,,,,,,,,,,,,,,,,,
,,,,,00082,2023-10-23_22h37.23.873,vbt_B1_day3,2022.2.4,Win32,60.0240096,,,,,,down,0,0.4668,,0.490740741,-0.078703704,1,0,0,0,140,140,18,1,blik,images/br_blik.png,images/cb_blik.png,0,,,,,,,,,,,,,,,,,,,,,,
,,,,,00082,2023-10-23_22h37.23.873,vbt_B1_day3,2022.2.4,Win32,60.0240096,,,,,,down,0,2.484,,0.490740741,-0.078703704,1,0,0,0,141,141,11,1,mode,images/br_mode.png,images/cb_mode.png,0,,,,,,,,,,,,,,,,,,,,,,
,,,,,00082,2023-10-23_22h37.23.873,vbt_B1_day3,2022.2.4,Win32,60.0240096,,,,,,down,0,0.8001,,0.490740741,-0.078703704,1,0,0,0,142,142,43,1,klauw,images/br_klauw.png,images/cb_klauw.png,0,,,,,,,,,,,,,,,,,,,,,,
,,,,,00082,2023-10-23_22h37.23.873,vbt_B1_day3,2022.2.4,Win32,60.0240096,,,,,,down,0,2.938,,0.503703788,-0.083333333,1,0,0,0,143,143,114,1,vullen,images/br_vullen.png,images/cb_vullen.png,0,,,,,,,,,,,,,,,,,,,,,,
,,,,,00082,2023-10-23_22h37.23.873,vbt_B1_day3,2022.2.4,Win32,60.0240096,,,,,,down,0,1.1369,,0.503703788,-0.083333333,1,0,0,0,144,144,191,1,opheffen,images/br_opheffen.png,images/cb_opheffen.png,0,,,,,,,,,,,,,,,,,,,,,,
,,,,,00082,2023-10-23_22h37.23.873,vbt_B1_day3,2022.2.4,Win32,60.0240096,,,,,,down,0,0.9218,,0.503703788,-0.083333333,1,0,0,0,145,145,154,1,aflopen,images/br_aflopen.png,images/cb_aflopen.png,0,,,,,,,,,,,,,,,,,,,,,,
,,,,,00082,2023-10-23_22h37.23.873,vbt_B1_day3,2022.2.4,Win32,60.0240096,,,,,,down,0,3.6806,,0.488888917,-0.091666681,1,0,0,0,146,146,133,1,seizoen,images/br_seizoen.png,images/cb_seizoen.png,0,,,,,,,,,,,,,,,,,,,,,,
,,,,,00082,2023-10-23_22h37.23.873,vbt_B1_day3,2022.2.4,Win32,60.0240096,,,,,,down,0,3.5659,,0.462037122,-0.098148134,1,0,0,0,147,147,148,1,smullen,images/br_smullen.png,images/cb_smullen.png,0,,,,,,,,,,,,,,,,,,,,,,
,,,,,00082,2023-10-23_22h37.23.873,vbt_B1_day3,2022.2.4,Win32,60.0240096,,,,,,down,0,3.8818,,0.462037122,-0.098148134,1,0,0,0,148,148,94,1,oceaan,images/br_oceaan.png,images/cb_oceaan.png,0,,,,,,,,,,,,,,,,,,,,,,
,,,,,00082,2023-10-23_22h37.23.873,vbt_B1_day3,2022.2.4,Win32,60.0240096,,,,,,down,0,1.332,,0.458333333,-0.098148134,1,0,0,0,149,149,26,1,leuk,images/br_leuk.png,images/cb_leuk.png,0,,,,,,,,,,,,,,,,,,,,,,
,,,,,00082,2023-10-23_22h37.23.873,vbt_B1_day3,2022.2.4,Win32,60.0240096,,,,,,down,0,1.9649,,0.455555527,-0.099074116,1,0,0,0,150,150,81,1,dubbel,images/br_dubbel.png,images/cb_dubbel.png,0,,,,,,,,,,,,,,,,,,,,,,
,,,,,00082,2023-10-23_22h37.23.873,vbt_B1_day3,2022.2.4,Win32,60.0240096,,,,,,down,0,2.7812,,0.443518603,-0.080555563,1,0,0,0,151,151,144,1,eetlust,images/br_eetlust.png,images/cb_eetlust.png,0,,,,,,,,,,,,,,,,,,,,,,
,,,,,00082,2023-10-23_22h37.23.873,vbt_B1_day3,2022.2.4,Win32,60.0240096,,,,,,down,0,0.926,,0.443518603,-0.080555563,1,0,0,0,152,152,76,1,afval,images/br_afval.png,images/cb_afval.png,0,,,,,,,,,,,,,,,,,,,,,,
,,,,,00082,2023-10-23_22h37.23.873,vbt_B1_day3,2022.2.4,Win32,60.0240096,,,,,,down,0,1.3691,,0.443518603,-0.080555563,1,0,0,0,153,153,35,1,lust,images/br_lust.png,images/cb_lust.png,0,,,,,,,,,,,,,,,,,,,,,,
,,,,,00082,2023-10-23_22h37.23.873,vbt_B1_day3,2022.2.4,Win32,60.0240096,,,,,,down,0,0.9904,,0.443518603,-0.080555563,1,0,0,0,154,154,196,1,nakijken,images/br_nakijken.png,images/cb_nakijken.png,0,,,,,,,,,,,,,,,,,,,,,,
,,,,,00082,2023-10-23_22h37.23.873,vbt_B1_day3,2022.2.4,Win32,60.0240096,,,,,,down,0,5.9783,,0.443518603,-0.080555563,1,0,0,0,155,155,38,1,baai,images/br_baai.png,images/cb_baai.png,0,,,,,,,,,,,,,,,,,,,,,,
,,,,,00082,2023-10-23_22h37.23.873,vbt_B1_day3,2022.2.4,Win32,60.0240096,,,,,,down,0,2.6154,,0.445370427,-0.059259273,1,0,0,0,156,156,129,1,verhaal,images/br_verhaal.png,images/cb_verhaal.png,0,,,,,,,,,,,,,,,,,,,,,,
,,,,,00082,2023-10-23_22h37.23.873,vbt_B1_day3,2022.2.4,Win32,60.0240096,,,,,,down,0,4.0141,,0.445370427,-0.059259273,1,0,0,0,157,157,34,1,vorm,images/br_vorm.png,images/cb_vorm.png,0,,,,,,,,,,,,,,,,,,,,,,
,,,,,00082,2023-10-23_22h37.23.873,vbt_B1_day3,2022.2.4,Win32,60.0240096,,,,,,down,0,1.801,,0.441666638,-0.059259273,1,0,0,0,158,158,157,1,uitlaat,images/br_uitlaat.png,images/cb_uitlaat.png,0,,,,,,,,,,,,,,,,,,,,,,
,,,,,00082,2023-10-23_22h37.23.873,vbt_B1_day3,2022.2.4,Win32,60.0240096,,,,,,down,0,3.3129,,0.461111139,-0.048148155,1,0,0,0,159,159,183,1,getuigen,images/br_getuigen.png,images/cb_getuigen.png,1,getuigen,,,,,,,,,,,,,,,,,,,,,
,,,,,00082,2023-10-23_22h37.23.873,vbt_B1_day3,2022.2.4,Win32,60.0240096,,,,,,down,0,0.6025,,0.458333333,-0.052777785,1,0,0,0,160,160,162,1,uitdelen,images/br_uitdelen.png,images/cb_uitdelen.png,0,,,,,,,,,,,,,,,,,,,,,,
,,,,,00082,2023-10-23_22h37.23.873,vbt_B1_day3,2022.2.4,Win32,60.0240096,,,,,,down,0,0.9178,,0.458333333,-0.052777785,1,0,0,0,161,161,14,1,rijp,images/br_rijp.png,images/cb_rijp.png,0,,,,,,,,,,,,,,,,,,,,,,
,,,,,00082,2023-10-23_22h37.23.873,vbt_B1_day3,2022.2.4,Win32,60.0240096,,,,,,down,0,0.1008,,0.45648151,-0.057407414,1,0,0,0,162,162,46,1,jagen,images/br_jagen.png,images/cb_jagen.png,0,,,,,,,,,,,,,,,,,,,,,,
,,,,,00082,2023-10-23_22h37.23.873,vbt_B1_day3,2022.2.4,Win32,60.0240096,,,,,,down,0,0.8997,,0.450000057,-0.061111132,1,0,0,0,163,163,65,1,parel,images/br_parel.png,images/cb_parel.png,0,,,,,,,,,,,,,,,,,,,,,,
,,,,,00082,2023-10-23_22h37.23.873,vbt_B1_day3,2022.2.4,Win32,60.0240096,,,,,,down,0,3.0545,,0.455555527,-0.059259273,1,0,0,0,164,164,40,1,schep,images/br_schep.png,images/cb_schep.png,0,,,,,,,,,,,,,,,,,,,,,,
,,,,,00082,2023-10-23_22h37.23.873,vbt_B1_day3,2022.2.4,Win32,60.0240096,,,,,,down,0,0.4696,,0.44722225,-0.140740783,1,0,0,0,165,165,150,1,gegeven,images/br_gegeven.png,images/cb_gegeven.png,0,,,,,,,,,,,,,,,,,,,,,,
,,,,,00082,2023-10-23_22h37.23.873,vbt_B1_day3,2022.2.4,Win32,60.0240096,,,,,,down,0,1.154,,0.448148233,-0.14444443,1,0,0,0,166,166,153,1,vervoer,images/br_vervoer.png,images/cb_vervoer.png,0,,,,,,,,,,,,,,,,,,,,,,
,,,,,00082,2023-10-23_22h37.23.873,vbt_B1_day3,2022.2.4,Win32,60.0240096,,,,,,down,0,6.2685,,0.45185188,-0.15370369,1,0,0,0,167,167,151,1,aanzoek,images/br_aanzoek.png,images/cb_aanzoek.png,0,,,,,,,,,,,,,,,,,,,,,,
,,,,,00082,2023-10-23_22h37.23.873,vbt_B1_day3,2022.2.4,Win32,60.0240096,,,,,,down,0,5.5455,,0.45185188,-0.154629672,1,0,0,0,168,168,85,1,heilig,images/br_heilig.png,images/cb_heilig.png,0,,,,,,,,,,,,,,,,,,,,,,
,,,,,00082,2023-10-23_22h37.23.873,vbt_B1_day3,2022.2.4,Win32,60.0240096,,,,,,down,0,1.1877,,0.455555527,-0.152777778,1,0,0,0,169,169,185,1,mijnheer,images/br_mijnheer.png,images/cb_mijnheer.png,0,,,,,,,,,,,,,,,,,,,,,,
,,,,,00082,2023-10-23_22h37.23.873,vbt_B1_day3,2022.2.4,Win32,60.0240096,,,,,,down,0,2.637,,0.455555527,-0.152777778,1,0,0,0,170,170,63,1,flirt,images/br_flirt.png,images/cb_flirt.png,1,,,,,,,,,,,,,,,,,,,,,,
,,,,,00082,2023-10-23_22h37.23.873,vbt_B1_day3,2022.2.4,Win32,60.0240096,,,,,,down,0,2.648,,0.457407492,-0.152777778,1,0,0,0,171,171,161,1,attentie,images/br_attentie.png,images/cb_attentie.png,0,,,,,,,,,,,,,,,,,,,,,,
,,,,,00082,2023-10-23_22h37.23.873,vbt_B1_day3,2022.2.4,Win32,60.0240096,,,,,,down,0,11.1397,,0.462037122,-0.169444473,1,0,0,0,172,172,182,1,bijkomen,images/br_bijkomen.png,images/cb_bijkomen.png,1,bijkomen,,,,,,,,,,,,,,,,,,,,,
,,,,,00082,2023-10-23_22h37.23.873,vbt_B1_day3,2022.2.4,Win32,60.0240096,,,,,,down,0,0.734,,0.460185157,-0.169444473,1,0,0,0,173,173,62,1,knaap,images/br_knaap.png,images/cb_knaap.png,1,,,,,,,,,,,,,,,,,,,,,,
,,,,,00082,2023-10-23_22h37.23.873,vbt_B1_day3,2022.2.4,Win32,60.0240096,,,,,,down,0,5.8952,,0.458333333,-0.169444473,1,0,0,0,174,174,140,1,blijven,images/br_blijven.png,images/cb_blijven.png,1,blijven,,,,,,,,,,,,,,,,,,,,,
,,,,,00082,2023-10-23_22h37.23.873,vbt_B1_day3,2022.2.4,Win32,60.0240096,,,,,,down,0,3.7141,,0.472222222,-0.170370384,1,0,0,0,175,175,89,1,slapen,images/br_slapen.png,images/cb_slapen.png,0,,,,,,,,,,,,,,,,,,,,,,
,,,,,00082,2023-10-23_22h37.23.873,vbt_B1_day3,2022.2.4,Win32,60.0240096,,,,,,down,0,0.983,,0.475926011,-0.18240745,1,0,0,0,176,176,49,1,laken,images/br_laken.png,images/cb_laken.png,0,,,,,,,,,,,,,,,,,,,,,,
,,,,,00082,2023-10-23_22h37.23.873,vbt_B1_day3,2022.2.4,Win32,60.0240096,,,,,,down,0,1.749,,0.475926011,-0.18240745,1,0,0,0,177,177,189,1,aanraden,images/br_aanraden.png,images/cb_aanraden.png,0,,,,,,,,,,,,,,,,,,,,,,
,,,,,00082,2023-10-23_22h37.23.873,vbt_B1_day3,2022.2.4,Win32,60.0240096,,,,,,down,0,5.3131,,0.470370399,-0.18240745,1,0,0,0,178,178,127,1,doodmoe,images/br_doodmoe.png,images/cb_doodmoe.png,0,,,,,,,,,,,,,,,,,,,,,,
,,,,,00082,2023-10-23_22h37.23.873,vbt_B1_day3,2022.2.4,Win32,60.0240096,,,,,,down,0,3.3481,,0.478703675,-0.17777782,1,0,0,0,179,179,23,1,zout,images/br_zout.png,images/cb_zout.png,1,zout,,,,,,,,,,,,,,,,,,,,,
,,,,,00082,2023-10-23_22h37.23.873,vbt_B1_day3,2022.2.4,Win32,60.0240096,,,,,,down,0,2.9813,,0.474074046,-0.17777782,1,0,0,0,180,180,165,1,feestdag,images/br_feestdag.png,images/cb_feestdag.png,0,,,,,,,,,,,,,,,,,,,,,,
,,,,,00082,2023-10-23_22h37.23.873,vbt_B1_day3,2022.2.4,Win32,60.0240096,,,,,,down,0,1.6715,,0.481481481,-0.175925926,1,0,0,0,181,181,118,1,vinger,images/br_vinger.png,images/cb_vinger.png,0,,,,,,,,,,,,,,,,,,,,,,
,,,,,00082,2023-10-23_22h37.23.873,vbt_B1_day3,2022.2.4,Win32,60.0240096,,,,,,down,0,2.616,,0.492592564,-0.175000014,1,0,0,0,182,182,137,1,trekker,images/br_trekker.png,images/cb_trekker.png,0,,,,,,,,,,,,,,,,,,,,,,
,,,,,00082,2023-10-23_22h37.23.873,vbt_B1_day3,2022.2.4,Win32,60.0240096,,,,,,down,0,2.0186,,0.492592564,-0.175000014,1,0,0,0,183,183,155,1,gerucht,images/br_gerucht.png,images/cb_gerucht.png,0,,,,,,,,,,,,,,,,,,,,,,
,,,,,00082,2023-10-23_22h37.23.873,vbt_B1_day3,2022.2.4,Win32,60.0240096,,,,,,down,0,2.6059,,0.498148176,-0.181481467,1,0,0,0,184,184,13,1,kaal,images/br_kaal.png,images/cb_kaal.png,0,,,,,,,,,,,,,,,,,,,,,,
,,,,,00082,2023-10-23_22h37.23.873,vbt_B1_day3,2022.2.4,Win32,60.0240096,,,,,,down,0,1.1165,,0.42314812,-0.159259302,1,0,0,0,185,185,29,1,baas,images/br_baas.png,images/cb_baas.png,0,,,,,,,,,,,,,,,,,,,,,,
,,,,,00082,2023-10-23_22h37.23.873,vbt_B1_day3,2022.2.4,Win32,60.0240096,,,,,,down,0,8.1755,,0.419444473,-0.163888931,1,0,0,0,186,186,139,1,stiekem,images/br_stiekem.png,images/cb_stiekem.png,0,,,,,,,,,,,,,,,,,,,,,,
,,,,,00082,2023-10-23_22h37.23.873,vbt_B1_day3,2022.2.4,Win32,60.0240096,,,,,,down,0,11.3647,,0.416666667,-0.154629672,1,0,0,0,187,187,58,1,tekst,images/br_tekst.png,images/cb_tekst.png,0,,,,,,,,,,,,,,,,,,,,,,
,,,,,00082,2023-10-23_22h37.23.873,vbt_B1_day3,2022.2.4,Win32,60.0240096,,,,,,down,0,4.5984,,0.412037037,-0.132407436,1,0,0,0,188,188,135,1,gedicht,images/br_gedicht.png,images/cb_gedicht.png,0,,,,,,,,,,,,,,,,,,,,,,
,,,,,00082,2023-10-23_22h37.23.873,vbt_B1_day3,2022.2.4,Win32,60.0240096,,,,,,down,0,1.7683,,0.412037037,-0.132407436,1,0,0,0,189,189,136,1,waarbij,images/br_waarbij.png,images/cb_waarbij.png,0,,,,,,,,,,,,,,,,,,,,,,
,,,,,00082,2023-10-23_22h37.23.873,vbt_B1_day3,2022.2.4,Win32,60.0240096,,,,,,down,0,1.3667,,0.481481481,-0.143518519,1,0,0,0,190,190,19,1,geit,images/br_geit.png,images/cb_geit.png,0,,,,,,,,,,,,,,,,,,,,,,
,,,,,00082,2023-10-23_22h37.23.873,vbt_B1_day3,2022.2.4,Win32,60.0240096,,,,,,down,0,5.8009,,0.478703675,-0.143518519,1,0,0,0,191,191,156,1,rechten,images/br_rechten.png,images/cb_rechten.png,0,,,,,,,,,,,,,,,,,,,,,,
,,,,,00082,2023-10-23_22h37.23.873,vbt_B1_day3,2022.2.4,Win32,60.0240096,,,,,,down,0,2.1655,,0.478703675,-0.138888889,1,0,0,0,192,192,88,1,boeien,images/br_boeien.png,images/cb_boeien.png,0,,,,,,,,,,,,,,,,,,,,,,
,,,,,00082,2023-10-23_22h37.23.873,vbt_B1_day3,2022.2.4,Win32,60.0240096,,,,,,down,0,2.9479,,0.487962935,-0.140740783,1,0,0,0,193,193,103,1,joggen,images/br_joggen.png,images/cb_joggen.png,1,joggen,,,,,,,,,,,,,,,,,,,,,
,,,,,00082,2023-10-23_22h37.23.873,vbt_B1_day3,2022.2.4,Win32,60.0240096,,,,,,down,0,0.742,,0.487962935,-0.141666695,1,0,0,0,194,194,126,1,kasteel,images/br_kasteel.png,images/cb_kasteel.png,0,,,,,,,,,,,,,,,,,,,,,,
,,,,,00082,2023-10-23_22h37.23.873,vbt_B1_day3,2022.2.4,Win32,60.0240096,,,,,,down,0,1.3175,,0.487962935,-0.147222236,1,0,0,0,195,195,184,1,aandelen,images/br_aandelen.png,images/cb_aandelen.png,0,,,,,,,,,,,,,,,,,,,,,,
,,,,,00082,2023-10-23_22h37.23.873,vbt_B1_day3,2022.2.4,Win32,60.0240096,,,,,,down,0,0.0842,,0.487962935,-0.146296325,1,0,0,0,196,196,187,1,opkijken,images/br_opkijken.png,images/cb_opkijken.png,0,,,,,,,,,,,,,,,,,,,,,,
,,,,,00082,2023-10-23_22h37.23.873,vbt_B1_day3,2022.2.4,Win32,60.0240096,,,,,,down,0,1.7919,,0.487962935,-0.146296325,1,0,0,0,197,197,50,1,stoom,images/br_stoom.png,images/cb_stoom.png,0,,,,,,,,,,,,,,,,,,,,,,
,,,,,00082,2023-10-23_22h37.23.873,vbt_B1_day3,2022.2.4,Win32,60.0240096,,,,,,down,0,0.4719,,0.477777834,-0.145370413,1,0,0,0,198,198,176,1,techniek,images/br_techniek.png,images/cb_techniek.png,0,,,,,,,,,,,,,,,,,,,,,,
,,,,,00082,2023-10-23_22h37.23.873,vbt_B1_day3,2022.2.4,Win32,60.0240096,,,,,,down,0,1.9222,,0.479629658,-0.14444443,1,0,0,0,199,199,28,1,stal,images/br_stal.png,images/cb_stal.png,0,,,,,,,,,,,,,,,,,,,,,,
,,,,,00082,2023-10-23_22h37.23.873,vbt_B1_day3,2022.2.4,Win32,60.0240096,,,,,,,,,,,,,,,,,,,,,,,,,0.459259316,-0.137962977,1,0,0,,,,,,,,,,,,,,,,
,,,,,00082,2023-10-23_22h37.23.873,vbt_B1_day3,2022.2.4,Win32,60.0240096,,,,,,,,,,,,,,,,,,,,,,,,,,,,,,0.49537037,-0.098148134,1,0,0,,,,,,,,,,,
,,,,,00082,2023-10-23_22h37.23.873,vbt_B1_day3,2022.2.4,Win32,60.0240096,,,,,,,,,,,,,,,,,,,,hier,images/br_hier.png,images/cb_hier.png,,hier,,,,,,,,,,,0.497222194,-0.098148134,1,0,0,hier,0,0,0,1,1
,,,,,00082,2023-10-23_22h37.23.873,vbt_B1_day3,2022.2.4,Win32,60.0240096,,,,,,,,,,,,,,,,,,,,verwoor,images/br_verwoor.png,images/cb_verwoor.png,,virwoor,,,,,,,,,,,0.514814871,-0.091666681,1,0,0,virwoor,0,1,1,32,1
,,,,,00082,2023-10-23_22h37.23.873,vbt_B1_day3,2022.2.4,Win32,60.0240096,,,,,,,,,,,,,,,,,,,,slapen,images/br_slapen.png,images/cb_slapen.png,,slapen,,,,,,,,,,,0.514814871,-0.091666681,1,0,0,slapen,0,2,2,9,1
,,,,,00082,2023-10-23_22h37.23.873,vbt_B1_day3,2022.2.4,Win32,60.0240096,,,,,,,,,,,,,,,,,,,,begrip,images/br_begrip.png,images/cb_begrip.png,,begrip,,,,,,,,,,,0.514814871,-0.091666681,1,0,0,begrip,0,3,3,48,1
,,,,,00082,2023-10-23_22h37.23.873,vbt_B1_day3,2022.2.4,Win32,60.0240096,,,,,,,,,,,,,,,,,,,,verraden,images/br_verraden.png,images/cb_verraden.png,,verraden,,,,,,,,,,,0.514814871,-0.091666681,1,0,0,verraden,0,4,4,58,1
,,,,,00082,2023-10-23_22h37.23.873,vbt_B1_day3,2022.2.4,Win32,60.0240096,,,,,,,,,,,,,,,,,,,,brappen,images/br_brappen.png,images/cb_brappen.png,,brappen,,,,,,,,,,,0.514814871,-0.091666681,1,0,0,brappen,0,5,5,35,1
,,,,,00082,2023-10-23_22h37.23.873,vbt_B1_day3,2022.2.4,Win32,60.0240096,,,,,,,,,,,,,,,,,,,,makieren,images/br_makieren.png,images/cb_makieren.png,,makkieen,,,,,,,,,,,0.517592677,-0.092592593,1,0,0,makkieen,0,6,6,36,1
,,,,,00082,2023-10-23_22h37.23.873,vbt_B1_day3,2022.2.4,Win32,60.0240096,,,,,,,,,,,,,,,,,,,,theeting,images/br_theeting.png,images/cb_theeting.png,,theet...,,,,,,,,,,,0.517592677,-0.092592593,1,0,0,theet...,0,7,7,38,1
,,,,,00082,2023-10-23_22h37.23.873,vbt_B1_day3,2022.2.4,Win32,60.0240096,,,,,,,,,,,,,,,,,,,,samen,images/br_samen.png,images/cb_samen.png,,samen,,,,,,,,,,,0.517592677,-0.092592593,1,0,0,samen,0,8,8,7,1
,,,,,00082,2023-10-23_22h37.23.873,vbt_B1_day3,2022.2.4,Win32,60.0240096,,,,,,,,,,,,,,,,,,,,opzicht,images/br_opzicht.png,images/cb_opzicht.png,,opzicht,,,,,,,,,,,0.517592677,-0.092592593,1,0,0,opzicht,0,9,9,15,1
,,,,,00082,2023-10-23_22h37.23.873,vbt_B1_day3,2022.2.4,Win32,60.0240096,,,,,,,,,,,,,,,,,,,,gebod,images/br_gebod.png,images/cb_gebod.png,,gebod,,,,,,,,,,,0.517592677,-0.092592593,1,0,0,gebod,0,10,10,45,1
,,,,,00082,2023-10-23_22h37.23.873,vbt_B1_day3,2022.2.4,Win32,60.0240096,,,,,,,,,,,,,,,,,,,,knie,images/br_knie.png,images/cb_knie.png,,knie,,,,,,,,,,,0.517592677,-0.092592593,1,0,0,knie,0,11,11,0,1
,,,,,00082,2023-10-23_22h37.23.873,vbt_B1_day3,2022.2.4,Win32,60.0240096,,,,,,,,,,,,,,,,,,,,gout,images/br_gout.png,images/cb_gout.png,,gout,,,,,,,,,,,0.517592677,-0.092592593,1,0,0,gout,0,12,12,20,1
,,,,,00082,2023-10-23_22h37.23.873,vbt_B1_day3,2022.2.4,Win32,60.0240096,,,,,,,,,,,,,,,,,,,,sultan,images/br_sultan.png,images/cb_sultan.png,,sultan,,,,,,,,,,,0.517592677,-0.092592593,1,0,0,sultan,0,13,13,49,1
,,,,,00082,2023-10-23_22h37.23.873,vbt_B1_day3,2022.2.4,Win32,60.0240096,,,,,,,,,,,,,,,,,,,,aarzelen,images/br_aarzelen.png,images/cb_aarzelen.png,,aarzelen,,,,,,,,,,,0.517592677,-0.092592593,1,0,0,aarzelen,0,14,14,19,1
,,,,,00082,2023-10-23_22h37.23.873,vbt_B1_day3,2022.2.4,Win32,60.0240096,,,,,,,,,,,,,,,,,,,,paken,images/br_paken.png,images/cb_paken.png,,paken,,,,,,,,,,,0.517592677,-0.092592593,1,0,0,paken,0,15,15,27,1
,,,,,00082,2023-10-23_22h37.23.873,vbt_B1_day3,2022.2.4,Win32,60.0240096,,,,,,,,,,,,,,,,,,,,eens,images/br_eens.png,images/cb_eens.png,,eens,,,,,,,,,,,0.517592677,-0.092592593,1,0,0,eens,0,16,16,40,1
,,,,,00082,2023-10-23_22h37.23.873,vbt_B1_day3,2022.2.4,Win32,60.0240096,,,,,,,,,,,,,,,,,,,,dwang,images/br_dwang.png,images/cb_dwang.png,,dwang,,,,,,,,,,,0.517592677,-0.092592593,1,0,0,dwang,0,17,17,47,1
,,,,,00082,2023-10-23_22h37.23.873,vbt_B1_day3,2022.2.4,Win32,60.0240096,,,,,,,,,,,,,,,,,,,,leemaken,images/br_leemaken.png,images/cb_leemaken.png,,leemaken,,,,,,,,,,,0.517592677,-0.092592593,1,0,0,leemaken,0,18,18,39,1
,,,,,00082,2023-10-23_22h37.23.873,vbt_B1_day3,2022.2.4,Win32,60.0240096,,,,,,,,,,,,,,,,,,,,laken,images/br_laken.png,images/cb_laken.png,,laken,,,,,,,,,,,0.517592677,-0.092592593,1,0,0,laken,0,19,19,5,1
,,,,,00082,2023-10-23_22h37.23.873,vbt_B1_day3,2022.2.4,Win32,60.0240096,,,,,,,,,,,,,,,,,,,,kest,images/br_kest.png,images/cb_kest.png,,kest,,,,,,,,,,,0.517592677,-0.092592593,1,0,0,kest,0,20,20,21,1
,,,,,00082,2023-10-23_22h37.23.873,vbt_B1_day3,2022.2.4,Win32,60.0240096,,,,,,,,,,,,,,,,,,,,glijden,images/br_glijden.png,images/cb_glijden.png,,glijden,,,,,,,,,,,0.517592677,-0.092592593,1,0,0,glijden,0,21,21,53,1
,,,,,00082,2023-10-23_22h37.23.873,vbt_B1_day3,2022.2.4,Win32,60.0240096,,,,,,,,,,,,,,,,,,,,leek,images/br_leek.png,images/cb_leek.png,,leek,,,,,,,,,,,0.517592677,-0.092592593,1,0,0,leek,0,22,22,2,1
,,,,,00082,2023-10-23_22h37.23.873,vbt_B1_day3,2022.2.4,Win32,60.0240096,,,,,,,,,,,,,,,,,,,,opzetten,images/br_opzetten.png,images/cb_opzetten.png,,opzetten,,,,,,,,,,,0.517592677,-0.092592593,1,0,0,opzetten,0,23,23,56,1
,,,,,00082,2023-10-23_22h37.23.873,vbt_B1_day3,2022.2.4,Win32,60.0240096,,,,,,,,,,,,,,,,,,,,schodel,images/br_schodel.png,images/cb_schodel.png,,schodel,,,,,,,,,,,0.517592677,-0.092592593,1,0,0,schodel,0,24,24,33,1
,,,,,00082,2023-10-23_22h37.23.873,vbt_B1_day3,2022.2.4,Win32,60.0240096,,,,,,,,,,,,,,,,,,,,kwaas,images/br_kwaas.png,images/cb_kwaas.png,,kwoos,,,,,,,,,,,0.517592677,-0.092592593,1,0,0,kwoos,0,25,25,26,1
,,,,,00082,2023-10-23_22h37.23.873,vbt_B1_day3,2022.2.4,Win32,60.0240096,,,,,,,,,,,,,,,,,,,,hint,images/br_hint.png,images/cb_hint.png,,hent,,,,,,,,,,,0.513888889,-0.095370399,1,0,0,hent,0,26,26,43,1
,,,,,00082,2023-10-23_22h37.23.873,vbt_B1_day3,2022.2.4,Win32,60.0240096,,,,,,,,,,,,,,,,,,,,zone,images/br_zone.png,images/cb_zone.png,,zone,,,,,,,,,,,0.513888889,-0.095370399,1,0,0,zone,0,27,27,41,1
,,,,,00082,2023-10-23_22h37.23.873,vbt_B1_day3,2022.2.4,Win32,60.0240096,,,,,,,,,,,,,,,,,,,,gezond,images/br_gezond.png,images/cb_gezond.png,,gezond,,,,,,,,,,,0.513888889,-0.095370399,1,0,0,gezond,0,28,28,11,1
,,,,,00082,2023-10-23_22h37.23.873,vbt_B1_day3,2022.2.4,Win32,60.0240096,,,,,,,,,,,,,,,,,,,,mode,images/br_mode.png,images/cb_mode.png,,mode,,,,,,,,,,,0.514814871,-0.097222222,1,0,0,mode,0,29,29,3,1
,,,,,00082,2023-10-23_22h37.23.873,vbt_B1_day3,2022.2.4,Win32,60.0240096,,,,,,,,,,,,,,,,,,,,schatten,images/br_schatten.png,images/cb_schatten.png,,schatten,,,,,,,,,,,0.514814871,-0.097222222,1,0,0,schatten,0,30,30,18,1
,,,,,00082,2023-10-23_22h37.23.873,vbt_B1_day3,2022.2.4,Win32,60.0240096,,,,,,,,,,,,,,,,,,,,uniek,images/br_uniek.png,images/cb_uniek.png,,uniek,,,,,,,,,,,0.514814871,-0.097222222,1,0,0,uniek,0,31,31,46,1
,,,,,00082,2023-10-23_22h37.23.873,vbt_B1_day3,2022.2.4,Win32,60.0240096,,,,,,,,,,,,,,,,,,,,beslag,images/br_beslag.png,images/cb_beslag.png,,beslag,,,,,,,,,,,0.514814871,-0.097222222,1,0,0,beslag,0,32,32,51,1
,,,,,00082,2023-10-23_22h37.23.873,vbt_B1_day3,2022.2.4,Win32,60.0240096,,,,,,,,,,,,,,,,,,,,onrecht,images/br_onrecht.png,images/cb_onrecht.png,,onreih.,,,,,,,,,,,0.514814871,-0.097222222,1,0,0,onreih.,0,33,33,55,1
,,,,,00082,2023-10-23_22h37.23.873,vbt_B1_day3,2022.2.4,Win32,60.0240096,,,,,,,,,,,,,,,,,,,,sluier,images/br_sluier.png,images/cb_sluier.png,,sluier,,,,,,,,,,,0.514814871,-0.097222222,1,0,0,sluier,0,34,34,50,1
,,,,,00082,2023-10-23_22h37.23.873,vbt_B1_day3,2022.2.4,Win32,60.0240096,,,,,,,,,,,,,,,,,,,,kaas,images/br_kaas.png,images/cb_kaas.png,,kaas,,,,,,,,,,,0.514814871,-0.097222222,1,0,0,kaas,0,35,35,42,1
,,,,,00082,2023-10-23_22h37.23.873,vbt_B1_day3,2022.2.4,Win32,60.0240096,,,,,,,,,,,,,,,,,,,,jongelui,images/br_jongelui.png,images/cb_jongelui.png,,jongel..,,,,,,,,,,,0.514814871,-0.097222222,1,0,0,jongel..,0,36,36,59,1
,,,,,00082,2023-10-23_22h37.23.873,vbt_B1_day3,2022.2.4,Win32,60.0240096,,,,,,,,,,,,,,,,,,,,bevret,images/br_bevret.png,images/cb_bevret.png,,bevae.,,,,,,,,,,,0.41851849,0.00462963,1,0,0,bevae.,0,37,37,30,1
,,,,,00082,2023-10-23_22h37.23.873,vbt_B1_day3,2022.2.4,Win32,60.0240096,,,,,,,,,,,,,,,,,,,,oprotten,images/br_oprotten.png,images/cb_oprotten.png,,oprotten,,,,,,,,,,,0.41851849,0.00462963,1,0,0,oprotten,0,38,38,17,1
,,,,,00082,2023-10-23_22h37.23.873,vbt_B1_day3,2022.2.4,Win32,60.0240096,,,,,,,,,,,,,,,,,,,,afbopen,images/br_afbopen.png,images/cb_afbopen.png,,aftellen,,,,,,,,,,,0.41851849,0.00462963,1,0,0,aftellen,0,39,39,34,1
,,,,,00082,2023-10-23_22h37.23.873,vbt_B1_day3,2022.2.4,Win32,60.0240096,,,,,,,,,,,,,,,,,,,,geluid,images/br_geluid.png,images/cb_geluid.png,,geluid,,,,,,,,,,,0.260185171,-0.116666653,1,0,0,geluid,0,40,40,10,1
,,,,,00082,2023-10-23_22h37.23.873,vbt_B1_day3,2022.2.4,Win32,60.0240096,,,,,,,,,,,,,,,,,,,,bisschop,images/br_bisschop.png,images/cb_bisschop.png,,besscho.,,,,,,,,,,,0.505555612,-0.042592614,1,0,0,besscho.,0,41,41,16,1
,,,,,00082,2023-10-23_22h37.23.873,vbt_B1_day3,2022.2.4,Win32,60.0240096,,,,,,,,,,,,,,,,,,,,booien,images/br_booien.png,images/cb_booien.png,,boeien,,,,,,,,,,,0.505555612,-0.042592614,1,0,0,boeien,0,42,42,31,1
,,,,,00082,2023-10-23_22h37.23.873,vbt_B1_day3,2022.2.4,Win32,60.0240096,,,,,,,,,,,,,,,,,,,,prikken,images/br_prikken.png,images/cb_prikken.png,,prikken,,,,,,,,,,,0.505555612,-0.042592614,1,0,0,prikken,0,43,43,12,1
,,,,,00082,2023-10-23_22h37.23.873,vbt_B1_day3,2022.2.4,Win32,60.0240096,,,,,,,,,,,,,,,,,,,,croo,images/br_croo.png,images/cb_croo.png,,croo,,,,,,,,,,,0.50462963,-0.043518526,1,0,0,croo,0,44,44,22,1
,,,,,00082,2023-10-23_22h37.23.873,vbt_B1_day3,2022.2.4,Win32,60.0240096,,,,,,,,,,,,,,,,,,,,leugeren,images/br_leugeren.png,images/cb_leugeren.png,,leugens,,,,,,,,,,,0.50462963,-0.043518526,1,0,0,leugens,0,45,45,37,1
,,,,,00082,2023-10-23_22h37.23.873,vbt_B1_day3,2022.2.4,Win32,60.0240096,,,,,,,,,,,,,,,,,,,,mugeek,images/br_mugeek.png,images/cb_mugeek.png,,mugeek,,,,,,,,,,,0.50462963,-0.043518526,1,0,0,mugeek,0,46,46,29,1
,,,,,00082,2023-10-23_22h37.23.873,vbt_B1_day3,2022.2.4,Win32,60.0240096,,,,,,,,,,,,,,,,,,,,uviek,images/br_uviek.png,images/cb_uviek.png,,uviek,,,,,,,,,,,0.50462963,-0.043518526,1,0,0,uviek,0,47,47,25,1
,,,,,00082,2023-10-23_22h37.23.873,vbt_B1_day3,2022.2.4,Win32,60.0240096,,,,,,,,,,,,,,,,,,,,boeien,images/br_boeien.png,images/cb_boeien.png,,boeien,,,,,,,,,,,0.50462963,-0.043518526,1,0,0,boeien,0,48,48,8,1
,,,,,00082,2023-10-23_22h37.23.873,vbt_B1_day3,2022.2.4,Win32,60.0240096,,,,,,,,,,,,,,,,,,,,twaaf,images/br_twaaf.png,images/cb_twaaf.png,,twaaf,,,,,,,,,,,0.50462963,-0.043518526,1,0,0,twaaf,0,49,49,24,1
,,,,,00082,2023-10-23_22h37.23.873,vbt_B1_day3,2022.2.4,Win32,60.0240096,,,,,,,,,,,,,,,,,,,,hust,images/br_hust.png,images/cb_hust.png,,hust,,,,,,,,,,,0.50462963,-0.043518526,1,0,0,hust,0,50,50,23,1
,,,,,00082,2023-10-23_22h37.23.873,vbt_B1_day3,2022.2.4,Win32,60.0240096,,,,,,,,,,,,,,,,,,,,stallen,images/br_stallen.png,images/cb_stallen.png,,stallen,,,,,,,,,,,0.50462963,-0.043518526,1,0,0,stallen,0,51,51,52,1
,,,,,00082,2023-10-23_22h37.23.873,vbt_B1_day3,2022.2.4,Win32,60.0240096,,,,,,,,,,,,,,,,,,,,vlager,images/br_vlager.png,images/cb_vlager.png,,vlager,,,,,,,,,,,0.50462963,-0.043518526,1,0,0,vlager,0,52,52,28,1
,,,,,00082,2023-10-23_22h37.23.873,vbt_B1_day3,2022.2.4,Win32,60.0240096,,,,,,,,,,,,,,,,,,,,stoom,images/br_stoom.png,images/cb_stoom.png,,stoom,,,,,,,,,,,0.50462963,-0.043518526,1,0,0,stoom,0,53,53,6,1
,,,,,00082,2023-10-23_22h37.23.873,vbt_B1_day3,2022.2.4,Win32,60.0240096,,,,,,,,,,,,,,,,,,,,keihard,images/br_keihard.png,images/cb_keihard.png,,kei..ra.,,,,,,,,,,,0.50462963,-0.043518526,1,0,0,kei..ra.,0,54,54,14,1
,,,,,00082,2023-10-23_22h37.23.873,vbt_B1_day3,2022.2.4,Win32,60.0240096,,,,,,,,,,,,,,,,,,,,invallen,images/br_invallen.png,images/cb_invallen.png,,invallen,,,,,,,,,,,0.50462963,-0.043518526,1,0,0,invallen,0,55,55,57,1
,,,,,00082,2023-10-23_22h37.23.873,vbt_B1_day3,2022.2.4,Win32,60.0240096,,,,,,,,,,,,,,,,,,,,steel,images/br_steel.png,images/cb_steel.png,,steel,,,,,,,,,,,0.50462963,-0.043518526,1,0,0,steel,0,56,56,4,1
,,,,,00082,2023-10-23_22h37.23.873,vbt_B1_day3,2022.2.4,Win32,60.0240096,,,,,,,,,,,,,,,,,,,,verhaal,images/br_verhaal.png,images/cb_verhaal.png,,verhaal,,,,,,,,,,,0.50462963,-0.043518526,1,0,0,verhaal,0,57,57,13,1
,,,,,00082,2023-10-23_22h37.23.873,vbt_B1_day3,2022.2.4,Win32,60.0240096,,,,,,,,,,,,,,,,,,,,alsof,images/br_alsof.png,images/cb_alsof.png,,alsof,,,,,,,,,,,0.50462963,-0.043518526,1,0,0,alsof,0,58,58,44,1
,,,,,00082,2023-10-23_22h37.23.873,vbt_B1_day3,2022.2.4,Win32,60.0240096,,,,,,,,,,,,,,,,,,,,stikken,images/br_stikken.png,images/cb_stikken.png,,stikken,,,,,,,,,,,0.50462963,-0.043518526,1,0,0,stikken,0,59,59,54,1
,,,,,00082,2023-10-23_22h37.23.873,vbt_B1_day3,2022.2.4,Win32,60.0240096,,,,,,,,,,,,,,,,,,,,,,,,,,,,,,,,,,,,,,,,,,,,,
