welcome_mouse.x,welcome_mouse.y,welcome_mouse.leftButton,welcome_mouse.midButton,welcome_mouse.rightButton,"ID",date,expName,psychopyVersion,OS,frameRate,trainInstr_mouse.x,trainInstr_mouse.y,trainInstr_mouse.leftButton,trainInstr_mouse.midButton,trainInstr_mouse.rightButton,translation_key.keys,translation_key.corr,translation_key.rt,word_rsp.text,trWrd_mouse.x,trWrd_mouse.y,trWrd_mouse.leftButton,trWrd_mouse.midButton,trWrd_mouse.rightButton,train_loop.thisRepN,train_loop.thisTrialN,train_loop.thisN,train_loop.thisIndex,train_loop.ran,nlWrd,brWrd,cbWrd,test,testResp,mouse.x,mouse.y,mouse.leftButton,mouse.midButton,mouse.rightButton,testInstr_mouse.x,testInstr_mouse.y,testInstr_mouse.leftButton,testInstr_mouse.midButton,testInstr_mouse.rightButton,test_mouse.x,test_mouse.y,test_mouse.leftButton,test_mouse.midButton,test_mouse.rightButton,test_response.text,test_loop.thisRepN,test_loop.thisTrialN,test_loop.thisN,test_loop.thisIndex,test_loop.ran
-0.090740741,-0.093518519,1,0,0,00019,2023-08-23_15h02.43.347,vbt_B1_day3,2022.2.4,Win32,57.48117492,,,,,,,,,,,,,,,,,,,,,,,,,,,,,,,,,,,,,,,,,,,,,
,,,,,00019,2023-08-23_15h02.43.347,vbt_B1_day3,2022.2.4,Win32,57.48117492,-0.003703704,0.118518519,1,0,0,,,,,,,,,,,,,,,,,,,,,,,,,,,,,,,,,,,,,,,,
,,,,,00019,2023-08-23_15h02.43.347,vbt_B1_day3,2022.2.4,Win32,57.48117492,,,,,,down,0,9.1659,,0.135185185,0.161111111,1,0,0,0,0,0,156,1,rechten,images/br_rechten.png,images/cb_rechten.png,0,,,,,,,,,,,,,,,,,,,,,,
,,,,,00019,2023-08-23_15h02.43.347,vbt_B1_day3,2022.2.4,Win32,57.48117492,,,,,,down,0,6.802,,0.288888889,0.060185185,1,0,0,0,1,1,194,1,driemaal,images/br_driemaal.png,images/cb_driemaal.png,0,,,,,,,,,,,,,,,,,,,,,,
,,,,,00019,2023-08-23_15h02.43.347,vbt_B1_day3,2022.2.4,Win32,57.48117492,,,,,,down,0,1.2243,,0.291666667,0.060185185,1,0,0,0,2,2,55,1,praat,images/br_praat.png,images/cb_praat.png,0,,,,,,,,,,,,,,,,,,,,,,
,,,,,00019,2023-08-23_15h02.43.347,vbt_B1_day3,2022.2.4,Win32,57.48117492,,,,,,down,0,7.81,,0.197222222,-0.024074074,1,0,0,0,3,3,35,1,lust,images/br_lust.png,images/cb_lust.png,0,,,,,,,,,,,,,,,,,,,,,,
,,,,,00019,2023-08-23_15h02.43.347,vbt_B1_day3,2022.2.4,Win32,57.48117492,,,,,,down,0,2.8031,,0.197222222,-0.024074074,1,0,0,0,4,4,190,1,goedkoop,images/br_goedkoop.png,images/cb_goedkoop.png,0,,,,,,,,,,,,,,,,,,,,,,
,,,,,00019,2023-08-23_15h02.43.347,vbt_B1_day3,2022.2.4,Win32,57.48117492,,,,,,down,0,4.9472,,0.255555556,-0.066666667,1,0,0,0,5,5,147,1,komisch,images/br_komisch.png,images/cb_komisch.png,0,,,,,,,,,,,,,,,,,,,,,,
,,,,,00019,2023-08-23_15h02.43.347,vbt_B1_day3,2022.2.4,Win32,57.48117492,,,,,,down,0,1.6219,,0.255555556,-0.065740741,1,0,0,0,6,6,66,1,lever,images/br_lever.png,images/cb_lever.png,0,,,,,,,,,,,,,,,,,,,,,,
,,,,,00019,2023-08-23_15h02.43.347,vbt_B1_day3,2022.2.4,Win32,57.48117492,,,,,,down,0,4.4218,,0.25462963,-0.065740741,1,0,0,0,7,7,21,1,mist,images/br_mist.png,images/cb_mist.png,1,mist,,,,,,,,,,,,,,,,,,,,,
,,,,,00019,2023-08-23_15h02.43.347,vbt_B1_day3,2022.2.4,Win32,57.48117492,,,,,,down,0,1.8237,,0.25462963,-0.065740741,1,0,0,0,8,8,19,1,geit,images/br_geit.png,images/cb_geit.png,0,,,,,,,,,,,,,,,,,,,,,,
,,,,,00019,2023-08-23_15h02.43.347,vbt_B1_day3,2022.2.4,Win32,57.48117492,,,,,,down,0,5.9521,,0.25462963,-0.065740741,1,0,0,0,9,9,60,1,jasje,images/br_jasje.png,images/cb_jasje.png,1,jasje,,,,,,,,,,,,,,,,,,,,,
,,,,,00019,2023-08-23_15h02.43.347,vbt_B1_day3,2022.2.4,Win32,57.48117492,,,,,,down,0,4.0703,,0.25462963,-0.065740741,1,0,0,0,10,10,166,1,strikken,images/br_strikken.png,images/cb_strikken.png,0,,,,,,,,,,,,,,,,,,,,,,
,,,,,00019,2023-08-23_15h02.43.347,vbt_B1_day3,2022.2.4,Win32,57.48117492,,,,,,down,0,5.4038,,0.25462963,-0.065740741,1,0,0,0,11,11,177,1,maaltijd,images/br_maaltijd.png,images/cb_maaltijd.png,0,,,,,,,,,,,,,,,,,,,,,,
,,,,,00019,2023-08-23_15h02.43.347,vbt_B1_day3,2022.2.4,Win32,57.48117492,,,,,,down,0,2.6135,,0.25462963,-0.065740741,1,0,0,0,12,12,95,1,vreten,images/br_vreten.png,images/cb_vreten.png,0,,,,,,,,,,,,,,,,,,,,,,
,,,,,00019,2023-08-23_15h02.43.347,vbt_B1_day3,2022.2.4,Win32,57.48117492,,,,,,down,0,1.855,,0.25462963,-0.065740741,1,0,0,0,13,13,42,1,bleek,images/br_bleek.png,images/cb_bleek.png,0,,,,,,,,,,,,,,,,,,,,,,
,,,,,00019,2023-08-23_15h02.43.347,vbt_B1_day3,2022.2.4,Win32,57.48117492,,,,,,down,0,6.9134,,0.25462963,-0.065740741,1,0,0,0,14,14,192,1,schaamte,images/br_schaamte.png,images/cb_schaamte.png,0,,,,,,,,,,,,,,,,,,,,,,
,,,,,00019,2023-08-23_15h02.43.347,vbt_B1_day3,2022.2.4,Win32,57.48117492,,,,,,down,0,2.1145,,0.25462963,-0.065740741,1,0,0,0,15,15,52,1,wagon,images/br_wagon.png,images/cb_wagon.png,0,,,,,,,,,,,,,,,,,,,,,,
,,,,,00019,2023-08-23_15h02.43.347,vbt_B1_day3,2022.2.4,Win32,57.48117492,,,,,,down,0,4.788,,0.282407407,-0.082407407,1,0,0,0,16,16,144,1,eetlust,images/br_eetlust.png,images/cb_eetlust.png,0,,,,,,,,,,,,,,,,,,,,,,
,,,,,00019,2023-08-23_15h02.43.347,vbt_B1_day3,2022.2.4,Win32,57.48117492,,,,,,down,0,3.163,,0.283333333,-0.083333333,1,0,0,0,17,17,90,1,geluid,images/br_geluid.png,images/cb_geluid.png,0,,,,,,,,,,,,,,,,,,,,,,
,,,,,00019,2023-08-23_15h02.43.347,vbt_B1_day3,2022.2.4,Win32,57.48117492,,,,,,down,0,6.1984,,0.277777778,-0.083333333,1,0,0,0,18,18,155,1,gerucht,images/br_gerucht.png,images/cb_gerucht.png,0,,,,,,,,,,,,,,,,,,,,,,
,,,,,00019,2023-08-23_15h02.43.347,vbt_B1_day3,2022.2.4,Win32,57.48117492,,,,,,down,0,2.5654,,0.263888889,-0.085185185,1,0,0,0,19,19,20,1,site,images/br_site.png,images/cb_site.png,1,site,,,,,,,,,,,,,,,,,,,,,
,,,,,00019,2023-08-23_15h02.43.347,vbt_B1_day3,2022.2.4,Win32,57.48117492,,,,,,down,0,4.0744,,0.20462963,-0.084259259,1,0,0,0,20,20,18,1,blik,images/br_blik.png,images/cb_blik.png,0,,,,,,,,,,,,,,,,,,,,,,
,,,,,00019,2023-08-23_15h02.43.347,vbt_B1_day3,2022.2.4,Win32,57.48117492,,,,,,down,0,3.0513,,0.218518519,-0.093518519,1,0,0,0,21,21,83,1,mening,images/br_mening.png,images/cb_mening.png,0,,,,,,,,,,,,,,,,,,,,,,
,,,,,00019,2023-08-23_15h02.43.347,vbt_B1_day3,2022.2.4,Win32,57.48117492,,,,,,down,0,4.5642,,0.218518519,-0.093518519,1,0,0,0,22,22,129,1,verhaal,images/br_verhaal.png,images/cb_verhaal.png,0,,,,,,,,,,,,,,,,,,,,,,
,,,,,00019,2023-08-23_15h02.43.347,vbt_B1_day3,2022.2.4,Win32,57.48117492,,,,,,down,0,4.2986,,0.243518519,-0.081481481,1,0,0,0,23,23,37,1,mijn,images/br_mijn.png,images/cb_mijn.png,0,,,,,,,,,,,,,,,,,,,,,,
,,,,,00019,2023-08-23_15h02.43.347,vbt_B1_day3,2022.2.4,Win32,57.48117492,,,,,,down,0,1.853,,0.318518519,-0.172222222,1,0,0,0,24,24,118,1,vinger,images/br_vinger.png,images/cb_vinger.png,0,,,,,,,,,,,,,,,,,,,,,,
,,,,,00019,2023-08-23_15h02.43.347,vbt_B1_day3,2022.2.4,Win32,57.48117492,,,,,,down,0,2.204,,0.318518519,-0.172222222,1,0,0,0,25,25,128,1,prikken,images/br_prikken.png,images/cb_prikken.png,0,,,,,,,,,,,,,,,,,,,,,,
,,,,,00019,2023-08-23_15h02.43.347,vbt_B1_day3,2022.2.4,Win32,57.48117492,,,,,,down,0,1.2078,,0.369444444,-0.136111111,1,0,0,0,26,26,79,1,nodig,images/br_nodig.png,images/cb_nodig.png,0,,,,,,,,,,,,,,,,,,,,,,
,,,,,00019,2023-08-23_15h02.43.347,vbt_B1_day3,2022.2.4,Win32,57.48117492,,,,,,down,0,4.4863,,0.369444444,-0.136111111,1,0,0,0,27,27,110,1,zuster,images/br_zuster.png,images/cb_zuster.png,0,,,,,,,,,,,,,,,,,,,,,,
,,,,,00019,2023-08-23_15h02.43.347,vbt_B1_day3,2022.2.4,Win32,57.48117492,,,,,,down,0,3.6453,,0.369444444,-0.136111111,1,0,0,0,28,28,13,1,kaal,images/br_kaal.png,images/cb_kaal.png,0,,,,,,,,,,,,,,,,,,,,,,
,,,,,00019,2023-08-23_15h02.43.347,vbt_B1_day3,2022.2.4,Win32,57.48117492,,,,,,down,0,5.5875,,0.369444444,-0.136111111,1,0,0,0,29,29,30,1,uien,images/br_uien.png,images/cb_uien.png,0,,,,,,,,,,,,,,,,,,,,,,
,,,,,00019,2023-08-23_15h02.43.347,vbt_B1_day3,2022.2.4,Win32,57.48117492,,,,,,down,0,2.0055,,0.280555556,-0.057407407,1,0,0,0,30,30,112,1,lukken,images/br_lukken.png,images/cb_lukken.png,0,,,,,,,,,,,,,,,,,,,,,,
,,,,,00019,2023-08-23_15h02.43.347,vbt_B1_day3,2022.2.4,Win32,57.48117492,,,,,,down,0,4.2777,,0.280555556,-0.057407407,1,0,0,0,31,31,8,1,knie,images/br_knie.png,images/cb_knie.png,0,,,,,,,,,,,,,,,,,,,,,,
,,,,,00019,2023-08-23_15h02.43.347,vbt_B1_day3,2022.2.4,Win32,57.48117492,,,,,,down,0,1.2733,,0.280555556,-0.057407407,1,0,0,0,32,32,69,1,waken,images/br_waken.png,images/cb_waken.png,0,,,,,,,,,,,,,,,,,,,,,,
,,,,,00019,2023-08-23_15h02.43.347,vbt_B1_day3,2022.2.4,Win32,57.48117492,,,,,,down,0,2.9047,,0.280555556,-0.057407407,1,0,0,0,33,33,93,1,waarop,images/br_waarop.png,images/cb_waarop.png,0,,,,,,,,,,,,,,,,,,,,,,
,,,,,00019,2023-08-23_15h02.43.347,vbt_B1_day3,2022.2.4,Win32,57.48117492,,,,,,down,0,4.3966,,0.280555556,-0.057407407,1,0,0,0,34,34,176,1,techniek,images/br_techniek.png,images/cb_techniek.png,0,,,,,,,,,,,,,,,,,,,,,,
,,,,,00019,2023-08-23_15h02.43.347,vbt_B1_day3,2022.2.4,Win32,57.48117492,,,,,,down,0,6.3139,,0.280555556,-0.057407407,1,0,0,0,35,35,41,1,maken,images/br_maken.png,images/cb_maken.png,0,,,,,,,,,,,,,,,,,,,,,,
,,,,,00019,2023-08-23_15h02.43.347,vbt_B1_day3,2022.2.4,Win32,57.48117492,,,,,,down,0,1.7147,,0.280555556,-0.057407407,1,0,0,0,36,36,78,1,leren,images/br_leren.png,images/cb_leren.png,0,,,,,,,,,,,,,,,,,,,,,,
,,,,,00019,2023-08-23_15h02.43.347,vbt_B1_day3,2022.2.4,Win32,57.48117492,,,,,,down,0,1.0416,,0.280555556,-0.057407407,1,0,0,0,37,37,0,1,slak,images/br_slak.png,images/cb_slak.png,0,,,,,,,,,,,,,,,,,,,,,,
,,,,,00019,2023-08-23_15h02.43.347,vbt_B1_day3,2022.2.4,Win32,57.48117492,,,,,,down,0,2.4305,,-0.878703704,0.5,1,0,0,0,38,38,11,1,mode,images/br_mode.png,images/cb_mode.png,0,,,,,,,,,,,,,,,,,,,,,,
,,,,,00019,2023-08-23_15h02.43.347,vbt_B1_day3,2022.2.4,Win32,57.48117492,,,,,,down,0,2.9199,,-0.552777778,0.074074074,1,0,0,0,39,39,151,1,aanzoek,images/br_aanzoek.png,images/cb_aanzoek.png,0,,,,,,,,,,,,,,,,,,,,,,
,,,,,00019,2023-08-23_15h02.43.347,vbt_B1_day3,2022.2.4,Win32,57.48117492,,,,,,down,0,3.5181,,-0.552777778,0.074074074,1,0,0,0,40,40,197,1,spanning,images/br_spanning.png,images/cb_spanning.png,0,,,,,,,,,,,,,,,,,,,,,,
,,,,,00019,2023-08-23_15h02.43.347,vbt_B1_day3,2022.2.4,Win32,57.48117492,,,,,,down,0,3.3842,,-0.462962963,0.025925926,1,0,0,0,41,41,94,1,oceaan,images/br_oceaan.png,images/cb_oceaan.png,0,,,,,,,,,,,,,,,,,,,,,,
,,,,,00019,2023-08-23_15h02.43.347,vbt_B1_day3,2022.2.4,Win32,57.48117492,,,,,,down,0,2.9736,,-0.385185185,0.056481481,1,0,0,0,42,42,172,1,weigeren,images/br_weigeren.png,images/cb_weigeren.png,0,,,,,,,,,,,,,,,,,,,,,,
,,,,,00019,2023-08-23_15h02.43.347,vbt_B1_day3,2022.2.4,Win32,57.48117492,,,,,,down,0,4.5157,,0.690740741,0.062962963,1,0,0,0,43,43,117,1,kennis,images/br_kennis.png,images/cb_kennis.png,0,,,,,,,,,,,,,,,,,,,,,,
,,,,,00019,2023-08-23_15h02.43.347,vbt_B1_day3,2022.2.4,Win32,57.48117492,,,,,,down,0,1.4717,,0.690740741,0.062962963,1,0,0,0,44,44,28,1,stal,images/br_stal.png,images/cb_stal.png,0,,,,,,,,,,,,,,,,,,,,,,
,,,,,00019,2023-08-23_15h02.43.347,vbt_B1_day3,2022.2.4,Win32,57.48117492,,,,,,down,0,3.0661,,0.308333333,0.07962963,1,0,0,0,45,45,135,1,gedicht,images/br_gedicht.png,images/cb_gedicht.png,0,,,,,,,,,,,,,,,,,,,,,,
,,,,,00019,2023-08-23_15h02.43.347,vbt_B1_day3,2022.2.4,Win32,57.48117492,,,,,,down,0,5.0309,,0.311111111,0.07962963,1,0,0,0,46,46,167,1,eenhoorn,images/br_eenhoorn.png,images/cb_eenhoorn.png,0,,,,,,,,,,,,,,,,,,,,,,
,,,,,00019,2023-08-23_15h02.43.347,vbt_B1_day3,2022.2.4,Win32,57.48117492,,,,,,down,0,3.3862,,0.311111111,0.07962963,1,0,0,0,47,47,139,1,stiekem,images/br_stiekem.png,images/cb_stiekem.png,0,,,,,,,,,,,,,,,,,,,,,,
,,,,,00019,2023-08-23_15h02.43.347,vbt_B1_day3,2022.2.4,Win32,57.48117492,,,,,,down,0,3.9111,,-0.283333333,-0.156481481,1,0,0,0,48,48,173,1,apparaat,images/br_apparaat.png,images/cb_apparaat.png,0,,,,,,,,,,,,,,,,,,,,,,
,,,,,00019,2023-08-23_15h02.43.347,vbt_B1_day3,2022.2.4,Win32,57.48117492,,,,,,down,0,1.4762,,-0.283333333,-0.156481481,1,0,0,0,49,49,89,1,slapen,images/br_slapen.png,images/cb_slapen.png,0,,,,,,,,,,,,,,,,,,,,,,
,,,,,00019,2023-08-23_15h02.43.347,vbt_B1_day3,2022.2.4,Win32,57.48117492,,,,,,down,0,3.6341,,-0.206481481,-0.14537037,1,0,0,0,50,50,91,1,gezond,images/br_gezond.png,images/cb_gezond.png,0,,,,,,,,,,,,,,,,,,,,,,
,,,,,00019,2023-08-23_15h02.43.347,vbt_B1_day3,2022.2.4,Win32,57.48117492,,,,,,down,0,1.5352,,-0.206481481,-0.14537037,1,0,0,0,51,51,1,1,zaal,images/br_zaal.png,images/cb_zaal.png,0,,,,,,,,,,,,,,,,,,,,,,
,,,,,00019,2023-08-23_15h02.43.347,vbt_B1_day3,2022.2.4,Win32,57.48117492,,,,,,down,0,3.4444,,-0.206481481,-0.14537037,1,0,0,0,52,52,81,1,dubbel,images/br_dubbel.png,images/cb_dubbel.png,0,,,,,,,,,,,,,,,,,,,,,,
,,,,,00019,2023-08-23_15h02.43.347,vbt_B1_day3,2022.2.4,Win32,57.48117492,,,,,,down,0,2.3372,,-0.197222222,-0.135185185,1,0,0,0,53,53,56,1,traag,images/br_traag.png,images/cb_traag.png,0,,,,,,,,,,,,,,,,,,,,,,
,,,,,00019,2023-08-23_15h02.43.347,vbt_B1_day3,2022.2.4,Win32,57.48117492,,,,,,down,0,1.7954,,-0.202777778,-0.143518519,1,0,0,0,54,54,15,1,soda,images/br_soda.png,images/cb_soda.png,0,,,,,,,,,,,,,,,,,,,,,,
,,,,,00019,2023-08-23_15h02.43.347,vbt_B1_day3,2022.2.4,Win32,57.48117492,,,,,,down,0,1.253,,-0.202777778,-0.143518519,1,0,0,0,55,55,73,1,volop,images/br_volop.png,images/cb_volop.png,0,,,,,,,,,,,,,,,,,,,,,,
,,,,,00019,2023-08-23_15h02.43.347,vbt_B1_day3,2022.2.4,Win32,57.48117492,,,,,,down,0,9.5134,,-0.162962963,-0.090740741,1,0,0,0,56,56,98,1,kreeft,images/br_kreeft.png,images/cb_kreeft.png,0,,,,,,,,,,,,,,,,,,,,,,
,,,,,00019,2023-08-23_15h02.43.347,vbt_B1_day3,2022.2.4,Win32,57.48117492,,,,,,down,0,2.6522,,-0.162962963,-0.090740741,1,0,0,0,57,57,103,1,joggen,images/br_joggen.png,images/cb_joggen.png,1,joggen,,,,,,,,,,,,,,,,,,,,,
,,,,,00019,2023-08-23_15h02.43.347,vbt_B1_day3,2022.2.4,Win32,57.48117492,,,,,,down,0,4.7044,,-0.162962963,-0.089814815,1,0,0,0,58,58,160,1,daarheen,images/br_daarheen.png,images/cb_daarheen.png,0,,,,,,,,,,,,,,,,,,,,,,
,,,,,00019,2023-08-23_15h02.43.347,vbt_B1_day3,2022.2.4,Win32,57.48117492,,,,,,down,0,2.1314,,-0.15462963,-0.067592593,1,0,0,0,59,59,171,1,aarzelen,images/br_aarzelen.png,images/cb_aarzelen.png,0,,,,,,,,,,,,,,,,,,,,,,
,,,,,00019,2023-08-23_15h02.43.347,vbt_B1_day3,2022.2.4,Win32,57.48117492,,,,,,down,0,4.3874,,-0.084259259,-0.063888889,1,0,0,0,60,60,102,1,legaal,images/br_legaal.png,images/cb_legaal.png,1,legaal,,,,,,,,,,,,,,,,,,,,,
,,,,,00019,2023-08-23_15h02.43.347,vbt_B1_day3,2022.2.4,Win32,57.48117492,,,,,,down,0,9.6414,,-0.394444444,-0.112962963,1,0,0,0,61,61,163,1,schuilen,images/br_schuilen.png,images/cb_schuilen.png,0,,,,,,,,,,,,,,,,,,,,,,
,,,,,00019,2023-08-23_15h02.43.347,vbt_B1_day3,2022.2.4,Win32,57.48117492,,,,,,down,0,1.7907,,-0.39537037,-0.112962963,1,0,0,0,62,62,186,1,voorraad,images/br_voorraad.png,images/cb_voorraad.png,0,,,,,,,,,,,,,,,,,,,,,,
,,,,,00019,2023-08-23_15h02.43.347,vbt_B1_day3,2022.2.4,Win32,57.48117492,,,,,,down,0,1.0126,,-0.39537037,-0.112962963,1,0,0,0,63,63,16,1,ziek,images/br_ziek.png,images/cb_ziek.png,0,,,,,,,,,,,,,,,,,,,,,,
,,,,,00019,2023-08-23_15h02.43.347,vbt_B1_day3,2022.2.4,Win32,57.48117492,,,,,,down,0,2.5252,,-0.39537037,-0.112037037,1,0,0,0,64,64,99,1,koffie,images/br_koffie.png,images/cb_koffie.png,0,,,,,,,,,,,,,,,,,,,,,,
,,,,,00019,2023-08-23_15h02.43.347,vbt_B1_day3,2022.2.4,Win32,57.48117492,,,,,,down,0,4.2763,,-0.396296296,-0.111111111,1,0,0,0,65,65,131,1,opzicht,images/br_opzicht.png,images/cb_opzicht.png,0,,,,,,,,,,,,,,,,,,,,,,
,,,,,00019,2023-08-23_15h02.43.347,vbt_B1_day3,2022.2.4,Win32,57.48117492,,,,,,down,0,2.4506,,-0.396296296,-0.111111111,1,0,0,0,66,66,149,1,redding,images/br_redding.png,images/cb_redding.png,0,,,,,,,,,,,,,,,,,,,,,,
,,,,,00019,2023-08-23_15h02.43.347,vbt_B1_day3,2022.2.4,Win32,57.48117492,,,,,,down,0,10.1588,,-0.39537037,-0.112962963,1,0,0,0,67,67,68,1,schat,images/br_schat.png,images/cb_schat.png,0,,,,,,,,,,,,,,,,,,,,,,
,,,,,00019,2023-08-23_15h02.43.347,vbt_B1_day3,2022.2.4,Win32,57.48117492,,,,,,down,0,0.9918,,-0.39537037,-0.112962963,1,0,0,0,68,68,10,1,leek,images/br_leek.png,images/cb_leek.png,0,,,,,,,,,,,,,,,,,,,,,,
,,,,,00019,2023-08-23_15h02.43.347,vbt_B1_day3,2022.2.4,Win32,57.48117492,,,,,,down,0,3.4693,,-0.39537037,-0.112037037,1,0,0,0,69,69,193,1,weeshuis,images/br_weeshuis.png,images/cb_weeshuis.png,0,,,,,,,,,,,,,,,,,,,,,,
,,,,,00019,2023-08-23_15h02.43.347,vbt_B1_day3,2022.2.4,Win32,57.48117492,,,,,,down,0,4.5375,,-0.144444444,-0.033333333,1,0,0,0,70,70,130,1,keihard,images/br_keihard.png,images/cb_keihard.png,0,,,,,,,,,,,,,,,,,,,,,,
,,,,,00019,2023-08-23_15h02.43.347,vbt_B1_day3,2022.2.4,Win32,57.48117492,,,,,,down,0,3.0322,,0.587962963,0.159259259,1,0,0,0,71,71,85,1,heilig,images/br_heilig.png,images/cb_heilig.png,0,,,,,,,,,,,,,,,,,,,,,,
,,,,,00019,2023-08-23_15h02.43.347,vbt_B1_day3,2022.2.4,Win32,57.48117492,,,,,,down,0,2.5604,,0.588888889,0.160185185,1,0,0,0,72,72,14,1,rijp,images/br_rijp.png,images/cb_rijp.png,0,,,,,,,,,,,,,,,,,,,,,,
,,,,,00019,2023-08-23_15h02.43.347,vbt_B1_day3,2022.2.4,Win32,57.48117492,,,,,,down,0,10.1548,,0.6,0.167592593,1,0,0,0,73,73,3,1,mand,images/br_mand.png,images/cb_mand.png,0,,,,,,,,,,,,,,,,,,,,,,
,,,,,00019,2023-08-23_15h02.43.347,vbt_B1_day3,2022.2.4,Win32,57.48117492,,,,,,down,0,3.596,,0.6,0.167592593,1,0,0,0,74,74,43,1,klauw,images/br_klauw.png,images/cb_klauw.png,0,,,,,,,,,,,,,,,,,,,,,,
,,,,,00019,2023-08-23_15h02.43.347,vbt_B1_day3,2022.2.4,Win32,57.48117492,,,,,,down,0,2.2592,,0.598148148,0.171296296,1,0,0,0,75,75,54,1,gebit,images/br_gebit.png,images/cb_gebit.png,0,,,,,,,,,,,,,,,,,,,,,,
,,,,,00019,2023-08-23_15h02.43.347,vbt_B1_day3,2022.2.4,Win32,57.48117492,,,,,,down,0,3.9509,,0.598148148,0.171296296,1,0,0,0,76,76,62,1,knaap,images/br_knaap.png,images/cb_knaap.png,1,knaap,,,,,,,,,,,,,,,,,,,,,
,,,,,00019,2023-08-23_15h02.43.347,vbt_B1_day3,2022.2.4,Win32,57.48117492,,,,,,down,0,3.6405,,0.598148148,0.171296296,1,0,0,0,77,77,87,1,toeval,images/br_toeval.png,images/cb_toeval.png,0,,,,,,,,,,,,,,,,,,,,,,
,,,,,00019,2023-08-23_15h02.43.347,vbt_B1_day3,2022.2.4,Win32,57.48117492,,,,,,down,0,3.314,,0.522222222,0.063888889,1,0,0,0,78,78,67,1,zwart,images/br_zwart.png,images/cb_zwart.png,0,,,,,,,,,,,,,,,,,,,,,,
,,,,,00019,2023-08-23_15h02.43.347,vbt_B1_day3,2022.2.4,Win32,57.48117492,,,,,,down,0,2.01,,0.562037037,-0.021296296,1,0,0,0,79,79,70,1,ijdel,images/br_ijdel.png,images/cb_ijdel.png,0,,,,,,,,,,,,,,,,,,,,,,
,,,,,00019,2023-08-23_15h02.43.347,vbt_B1_day3,2022.2.4,Win32,57.48117492,,,,,,down,0,9.0504,,0.542592593,-0.018518519,1,0,0,0,80,80,142,1,snuiven,images/br_snuiven.png,images/cb_snuiven.png,1,,,,,,,,,,,,,,,,,,,,,,
,,,,,00019,2023-08-23_15h02.43.347,vbt_B1_day3,2022.2.4,Win32,57.48117492,,,,,,down,0,9.1885,,0.542592593,-0.018518519,1,0,0,0,81,81,140,1,blijven,images/br_blijven.png,images/cb_blijven.png,1,blijven,,,,,,,,,,,,,,,,,,,,,
,,,,,00019,2023-08-23_15h02.43.347,vbt_B1_day3,2022.2.4,Win32,57.48117492,,,,,,down,0,3.1241,,0.542592593,-0.018518519,1,0,0,0,82,82,122,1,waarvan,images/br_waarvan.png,images/cb_waarvan.png,0,,,,,,,,,,,,,,,,,,,,,,
,,,,,00019,2023-08-23_15h02.43.347,vbt_B1_day3,2022.2.4,Win32,57.48117492,,,,,,down,0,1.5766,,0.60462963,-0.035185185,1,0,0,0,83,83,50,1,stoom,images/br_stoom.png,images/cb_stoom.png,0,,,,,,,,,,,,,,,,,,,,,,
,,,,,00019,2023-08-23_15h02.43.347,vbt_B1_day3,2022.2.4,Win32,57.48117492,,,,,,down,0,3.7188,,0.619444444,-0.02037037,1,0,0,0,84,84,184,1,aandelen,images/br_aandelen.png,images/cb_aandelen.png,0,,,,,,,,,,,,,,,,,,,,,,
,,,,,00019,2023-08-23_15h02.43.347,vbt_B1_day3,2022.2.4,Win32,57.48117492,,,,,,down,0,3.7277,,0.619444444,-0.021296296,1,0,0,0,85,85,164,1,anarchie,images/br_anarchie.png,images/cb_anarchie.png,0,,,,,,,,,,,,,,,,,,,,,,
,,,,,00019,2023-08-23_15h02.43.347,vbt_B1_day3,2022.2.4,Win32,57.48117492,,,,,,down,0,4.0188,,0.625,-0.012962963,1,0,0,0,86,86,181,1,toegeven,images/br_toegeven.png,images/cb_toegeven.png,1,toegeven,,,,,,,,,,,,,,,,,,,,,
,,,,,00019,2023-08-23_15h02.43.347,vbt_B1_day3,2022.2.4,Win32,57.48117492,,,,,,down,0,11.1416,,0.625,-0.012962963,1,0,0,0,87,87,191,1,opheffen,images/br_opheffen.png,images/cb_opheffen.png,0,,,,,,,,,,,,,,,,,,,,,,
,,,,,00019,2023-08-23_15h02.43.347,vbt_B1_day3,2022.2.4,Win32,57.48117492,,,,,,down,0,2.1132,,0.625,-0.012962963,1,0,0,0,88,88,76,1,afval,images/br_afval.png,images/cb_afval.png,0,,,,,,,,,,,,,,,,,,,,,,
,,,,,00019,2023-08-23_15h02.43.347,vbt_B1_day3,2022.2.4,Win32,57.48117492,,,,,,down,0,1.0654,,0.343518519,-0.136111111,1,0,0,0,89,89,39,1,laag,images/br_laag.png,images/cb_laag.png,0,,,,,,,,,,,,,,,,,,,,,,
,,,,,00019,2023-08-23_15h02.43.347,vbt_B1_day3,2022.2.4,Win32,57.48117492,,,,,,down,0,5.4641,,0.343518519,-0.136111111,1,0,0,0,90,90,179,1,woestijn,images/br_woestijn.png,images/cb_woestijn.png,0,,,,,,,,,,,,,,,,,,,,,,
,,,,,00019,2023-08-23_15h02.43.347,vbt_B1_day3,2022.2.4,Win32,57.48117492,,,,,,down,0,4.8447,,0.343518519,-0.136111111,1,0,0,0,91,91,65,1,parel,images/br_parel.png,images/cb_parel.png,0,,,,,,,,,,,,,,,,,,,,,,
,,,,,00019,2023-08-23_15h02.43.347,vbt_B1_day3,2022.2.4,Win32,57.48117492,,,,,,down,0,2.2905,,0.349074074,-0.148148148,1,0,0,0,92,92,126,1,kasteel,images/br_kasteel.png,images/cb_kasteel.png,0,,,,,,,,,,,,,,,,,,,,,,
,,,,,00019,2023-08-23_15h02.43.347,vbt_B1_day3,2022.2.4,Win32,57.48117492,,,,,,down,0,1.1915,,0.34537037,-0.121296296,1,0,0,0,93,93,132,1,grappen,images/br_grappen.png,images/cb_grappen.png,0,,,,,,,,,,,,,,,,,,,,,,
,,,,,00019,2023-08-23_15h02.43.347,vbt_B1_day3,2022.2.4,Win32,57.48117492,,,,,,down,0,4.3853,,0.34537037,-0.121296296,1,0,0,0,94,94,92,1,geheim,images/br_geheim.png,images/cb_geheim.png,0,,,,,,,,,,,,,,,,,,,,,,
,,,,,00019,2023-08-23_15h02.43.347,vbt_B1_day3,2022.2.4,Win32,57.48117492,,,,,,down,0,6.6034,,0.342592593,-0.116666667,1,0,0,0,95,95,182,1,bijkomen,images/br_bijkomen.png,images/cb_bijkomen.png,1,bijkomen,,,,,,,,,,,,,,,,,,,,,
,,,,,00019,2023-08-23_15h02.43.347,vbt_B1_day3,2022.2.4,Win32,57.48117492,,,,,,down,0,1.1028,,0.342592593,-0.116666667,1,0,0,0,96,96,31,1,poes,images/br_poes.png,images/cb_poes.png,0,,,,,,,,,,,,,,,,,,,,,,
,,,,,00019,2023-08-23_15h02.43.347,vbt_B1_day3,2022.2.4,Win32,57.48117492,,,,,,down,0,1.45,,0.338888889,-0.127777778,1,0,0,0,97,97,4,1,moes,images/br_moes.png,images/cb_moes.png,0,,,,,,,,,,,,,,,,,,,,,,
,,,,,00019,2023-08-23_15h02.43.347,vbt_B1_day3,2022.2.4,Win32,57.48117492,,,,,,down,0,3.0546,,0.616666667,-0.084259259,1,0,0,0,98,98,119,1,liefje,images/br_liefje.png,images/cb_liefje.png,0,,,,,,,,,,,,,,,,,,,,,,
,,,,,00019,2023-08-23_15h02.43.347,vbt_B1_day3,2022.2.4,Win32,57.48117492,,,,,,down,0,5.6868,,0.616666667,-0.083333333,1,0,0,0,99,99,61,1,groen,images/br_groen.png,images/cb_groen.png,1,groen,,,,,,,,,,,,,,,,,,,,,
,,,,,00019,2023-08-23_15h02.43.347,vbt_B1_day3,2022.2.4,Win32,57.48117492,,,,,,down,0,8.9624,,0.616666667,-0.083333333,1,0,0,0,100,100,180,1,openbaar,images/br_openbaar.png,images/cb_openbaar.png,1,openbaar,,,,,,,,,,,,,,,,,,,,,
,,,,,00019,2023-08-23_15h02.43.347,vbt_B1_day3,2022.2.4,Win32,57.48117492,,,,,,down,0,2.3758,,0.610185185,-0.112037037,1,0,0,0,101,101,146,1,opkomen,images/br_opkomen.png,images/cb_opkomen.png,0,,,,,,,,,,,,,,,,,,,,,,
,,,,,00019,2023-08-23_15h02.43.347,vbt_B1_day3,2022.2.4,Win32,57.48117492,,,,,,down,0,4.0764,,0.610185185,-0.137962963,1,0,0,0,102,102,46,1,jagen,images/br_jagen.png,images/cb_jagen.png,0,,,,,,,,,,,,,,,,,,,,,,
,,,,,00019,2023-08-23_15h02.43.347,vbt_B1_day3,2022.2.4,Win32,57.48117492,,,,,,down,0,1.4766,,0.610185185,-0.137962963,1,0,0,0,103,103,32,1,palm,images/br_palm.png,images/cb_palm.png,0,,,,,,,,,,,,,,,,,,,,,,
,,,,,00019,2023-08-23_15h02.43.347,vbt_B1_day3,2022.2.4,Win32,57.48117492,,,,,,down,0,0.9482,,0.610185185,-0.137962963,1,0,0,0,104,104,53,1,baron,images/br_baron.png,images/cb_baron.png,0,,,,,,,,,,,,,,,,,,,,,,
,,,,,00019,2023-08-23_15h02.43.347,vbt_B1_day3,2022.2.4,Win32,57.48117492,,,,,,down,0,0.2949,,0.610185185,-0.138888889,1,0,0,0,105,105,5,1,blad,images/br_blad.png,images/cb_blad.png,0,,,,,,,,,,,,,,,,,,,,,,
,,,,,00019,2023-08-23_15h02.43.347,vbt_B1_day3,2022.2.4,Win32,57.48117492,,,,,,down,0,3.2261,,0.610185185,-0.138888889,1,0,0,0,106,106,174,1,stemming,images/br_stemming.png,images/cb_stemming.png,0,,,,,,,,,,,,,,,,,,,,,,
,,,,,00019,2023-08-23_15h02.43.347,vbt_B1_day3,2022.2.4,Win32,57.48117492,,,,,,down,0,2.7408,,0.610185185,-0.138888889,1,0,0,0,107,107,161,1,attentie,images/br_attentie.png,images/cb_attentie.png,0,,,,,,,,,,,,,,,,,,,,,,
,,,,,00019,2023-08-23_15h02.43.347,vbt_B1_day3,2022.2.4,Win32,57.48117492,,,,,,down,0,4.4241,,0.617592593,-0.143518519,1,0,0,0,108,108,196,1,nakijken,images/br_nakijken.png,images/cb_nakijken.png,0,,,,,,,,,,,,,,,,,,,,,,
,,,,,00019,2023-08-23_15h02.43.347,vbt_B1_day3,2022.2.4,Win32,57.48117492,,,,,,down,0,3.2769,,0.623148148,-0.138888889,1,0,0,0,109,109,38,1,baai,images/br_baai.png,images/cb_baai.png,0,,,,,,,,,,,,,,,,,,,,,,
,,,,,00019,2023-08-23_15h02.43.347,vbt_B1_day3,2022.2.4,Win32,57.48117492,,,,,,down,0,0.5749,,0.623148148,-0.138888889,1,0,0,0,110,110,49,1,laken,images/br_laken.png,images/cb_laken.png,0,,,,,,,,,,,,,,,,,,,,,,
,,,,,00019,2023-08-23_15h02.43.347,vbt_B1_day3,2022.2.4,Win32,57.48117492,,,,,,down,0,0.9524,,0.623148148,-0.137962963,1,0,0,0,111,111,57,1,steek,images/br_steek.png,images/cb_steek.png,0,,,,,,,,,,,,,,,,,,,,,,
,,,,,00019,2023-08-23_15h02.43.347,vbt_B1_day3,2022.2.4,Win32,57.48117492,,,,,,down,0,4.0664,,0.611111111,-0.163888889,1,0,0,0,112,112,111,1,ticket,images/br_ticket.png,images/cb_ticket.png,0,,,,,,,,,,,,,,,,,,,,,,
,,,,,00019,2023-08-23_15h02.43.347,vbt_B1_day3,2022.2.4,Win32,57.48117492,,,,,,down,0,6.7116,,0.615740741,-0.158333333,1,0,0,0,113,113,59,1,kring,images/br_kring.png,images/cb_kring.png,0,,,,,,,,,,,,,,,,,,,,,,
,,,,,00019,2023-08-23_15h02.43.347,vbt_B1_day3,2022.2.4,Win32,57.48117492,,,,,,down,0,5.402,,0.623148148,-0.156481481,1,0,0,0,114,114,199,1,beseffen,images/br_beseffen.png,images/cb_beseffen.png,0,,,,,,,,,,,,,,,,,,,,,,
,,,,,00019,2023-08-23_15h02.43.347,vbt_B1_day3,2022.2.4,Win32,57.48117492,,,,,,down,0,2.8942,,0.701851852,-0.192592593,1,0,0,0,115,115,116,1,besmet,images/br_besmet.png,images/cb_besmet.png,0,,,,,,,,,,,,,,,,,,,,,,
,,,,,00019,2023-08-23_15h02.43.347,vbt_B1_day3,2022.2.4,Win32,57.48117492,,,,,,down,0,45.7539,,0.760185185,-0.131481481,1,0,0,0,116,116,159,1,sufferd,images/br_sufferd.png,images/cb_sufferd.png,0,,,,,,,,,,,,,,,,,,,,,,
,,,,,00019,2023-08-23_15h02.43.347,vbt_B1_day3,2022.2.4,Win32,57.48117492,,,,,,down,0,2.3592,,0.760185185,-0.131481481,1,0,0,0,117,117,169,1,oprotten,images/br_oprotten.png,images/cb_oprotten.png,0,,,,,,,,,,,,,,,,,,,,,,
,,,,,00019,2023-08-23_15h02.43.347,vbt_B1_day3,2022.2.4,Win32,57.48117492,,,,,,down,0,2.1535,,0.760185185,-0.130555556,1,0,0,0,118,118,86,1,woning,images/br_woning.png,images/cb_woning.png,0,,,,,,,,,,,,,,,,,,,,,,
,,,,,00019,2023-08-23_15h02.43.347,vbt_B1_day3,2022.2.4,Win32,57.48117492,,,,,,down,0,1.2557,,0.760185185,-0.130555556,1,0,0,0,119,119,51,1,samen,images/br_samen.png,images/cb_samen.png,0,,,,,,,,,,,,,,,,,,,,,,
,,,,,00019,2023-08-23_15h02.43.347,vbt_B1_day3,2022.2.4,Win32,57.48117492,,,,,,down,0,1.5196,,0.760185185,-0.130555556,1,0,0,0,120,120,27,1,dans,images/br_dans.png,images/cb_dans.png,0,,,,,,,,,,,,,,,,,,,,,,
,,,,,00019,2023-08-23_15h02.43.347,vbt_B1_day3,2022.2.4,Win32,57.48117492,,,,,,down,0,1.7928,,0.760185185,-0.130555556,1,0,0,0,121,121,12,1,kust,images/br_kust.png,images/cb_kust.png,0,,,,,,,,,,,,,,,,,,,,,,
,,,,,00019,2023-08-23_15h02.43.347,vbt_B1_day3,2022.2.4,Win32,57.48117492,,,,,,down,0,5.6155,,0.760185185,-0.130555556,1,0,0,0,122,122,143,1,hechten,images/br_hechten.png,images/cb_hechten.png,1,hechten,,,,,,,,,,,,,,,,,,,,,
,,,,,00019,2023-08-23_15h02.43.347,vbt_B1_day3,2022.2.4,Win32,57.48117492,,,,,,down,0,1.9681,,0.760185185,-0.130555556,1,0,0,0,123,123,97,1,loyaal,images/br_loyaal.png,images/cb_loyaal.png,0,,,,,,,,,,,,,,,,,,,,,,
,,,,,00019,2023-08-23_15h02.43.347,vbt_B1_day3,2022.2.4,Win32,57.48117492,,,,,,down,0,0.7605,,0.663888889,-0.138888889,1,0,0,0,124,124,7,1,geld,images/br_geld.png,images/cb_geld.png,0,,,,,,,,,,,,,,,,,,,,,,
,,,,,00019,2023-08-23_15h02.43.347,vbt_B1_day3,2022.2.4,Win32,57.48117492,,,,,,down,0,2.998,,0.651851852,-0.138888889,1,0,0,0,125,125,150,1,gegeven,images/br_gegeven.png,images/cb_gegeven.png,0,,,,,,,,,,,,,,,,,,,,,,
,,,,,00019,2023-08-23_15h02.43.347,vbt_B1_day3,2022.2.4,Win32,57.48117492,,,,,,down,0,2.4792,,0.651851852,-0.138888889,1,0,0,0,126,126,198,1,bedoelen,images/br_bedoelen.png,images/cb_bedoelen.png,0,,,,,,,,,,,,,,,,,,,,,,
,,,,,00019,2023-08-23_15h02.43.347,vbt_B1_day3,2022.2.4,Win32,57.48117492,,,,,,down,0,4.999,,0.651851852,-0.138888889,1,0,0,0,127,127,158,1,innemen,images/br_innemen.png,images/cb_innemen.png,0,,,,,,,,,,,,,,,,,,,,,,
,,,,,00019,2023-08-23_15h02.43.347,vbt_B1_day3,2022.2.4,Win32,57.48117492,,,,,,down,0,1.8295,,0.650925926,-0.138888889,1,0,0,0,128,128,71,1,bever,images/br_bever.png,images/cb_bever.png,0,,,,,,,,,,,,,,,,,,,,,,
,,,,,00019,2023-08-23_15h02.43.347,vbt_B1_day3,2022.2.4,Win32,57.48117492,,,,,,down,0,2.6297,,0.650925926,-0.138888889,1,0,0,0,129,129,168,1,bisschop,images/br_bisschop.png,images/cb_bisschop.png,0,,,,,,,,,,,,,,,,,,,,,,
,,,,,00019,2023-08-23_15h02.43.347,vbt_B1_day3,2022.2.4,Win32,57.48117492,,,,,,down,0,3.5724,,0.650925926,-0.138888889,1,0,0,0,130,130,157,1,uitlaat,images/br_uitlaat.png,images/cb_uitlaat.png,0,,,,,,,,,,,,,,,,,,,,,,
,,,,,00019,2023-08-23_15h02.43.347,vbt_B1_day3,2022.2.4,Win32,57.48117492,,,,,,down,0,2.7298,,0.650925926,-0.137962963,1,0,0,0,131,131,145,1,invloed,images/br_invloed.png,images/cb_invloed.png,0,,,,,,,,,,,,,,,,,,,,,,
,,,,,00019,2023-08-23_15h02.43.347,vbt_B1_day3,2022.2.4,Win32,57.48117492,,,,,,down,0,6.6621,,0.650925926,-0.137037037,1,0,0,0,132,132,101,1,staren,images/br_staren.png,images/cb_staren.png,1,staren,,,,,,,,,,,,,,,,,,,,,
,,,,,00019,2023-08-23_15h02.43.347,vbt_B1_day3,2022.2.4,Win32,57.48117492,,,,,,down,0,1.4892,,0.712962963,-0.140740741,1,0,0,0,133,133,34,1,vorm,images/br_vorm.png,images/cb_vorm.png,0,,,,,,,,,,,,,,,,,,,,,,
,,,,,00019,2023-08-23_15h02.43.347,vbt_B1_day3,2022.2.4,Win32,57.48117492,,,,,,down,0,1.8786,,0.712962963,-0.140740741,1,0,0,0,134,134,134,1,geliefd,images/br_geliefd.png,images/cb_geliefd.png,0,,,,,,,,,,,,,,,,,,,,,,
,,,,,00019,2023-08-23_15h02.43.347,vbt_B1_day3,2022.2.4,Win32,57.48117492,,,,,,down,0,0.4422,,0.712962963,-0.139814815,1,0,0,0,135,135,96,1,slagen,images/br_slagen.png,images/cb_slagen.png,0,,,,,,,,,,,,,,,,,,,,,,
,,,,,00019,2023-08-23_15h02.43.347,vbt_B1_day3,2022.2.4,Win32,57.48117492,,,,,,down,0,0.6712,,0.713888889,-0.137962963,1,0,0,0,136,136,9,1,hier,images/br_hier.png,images/cb_hier.png,0,,,,,,,,,,,,,,,,,,,,,,
,,,,,00019,2023-08-23_15h02.43.347,vbt_B1_day3,2022.2.4,Win32,57.48117492,,,,,,down,0,1.3469,,0.713888889,-0.137962963,1,0,0,0,137,137,115,1,kleren,images/br_kleren.png,images/cb_kleren.png,0,,,,,,,,,,,,,,,,,,,,,,
,,,,,00019,2023-08-23_15h02.43.347,vbt_B1_day3,2022.2.4,Win32,57.48117492,,,,,,down,0,1.9481,,0.713888889,-0.137962963,1,0,0,0,138,138,105,1,wijlen,images/br_wijlen.png,images/cb_wijlen.png,0,,,,,,,,,,,,,,,,,,,,,,
,,,,,00019,2023-08-23_15h02.43.347,vbt_B1_day3,2022.2.4,Win32,57.48117492,,,,,,down,0,0.7604,,0.713888889,-0.137962963,1,0,0,0,139,139,64,1,wegen,images/br_wegen.png,images/cb_wegen.png,0,,,,,,,,,,,,,,,,,,,,,,
,,,,,00019,2023-08-23_15h02.43.347,vbt_B1_day3,2022.2.4,Win32,57.48117492,,,,,,down,0,6.1967,,0.713888889,-0.137962963,1,0,0,0,140,140,178,1,huisdier,images/br_huisdier.png,images/cb_huisdier.png,0,,,,,,,,,,,,,,,,,,,,,,
,,,,,00019,2023-08-23_15h02.43.347,vbt_B1_day3,2022.2.4,Win32,57.48117492,,,,,,down,0,4.4284,,0.713888889,-0.137037037,1,0,0,0,141,141,44,1,flits,images/br_flits.png,images/cb_flits.png,0,,,,,,,,,,,,,,,,,,,,,,
,,,,,00019,2023-08-23_15h02.43.347,vbt_B1_day3,2022.2.4,Win32,57.48117492,,,,,,down,0,2.8327,,0.686111111,-0.202777778,1,0,0,0,142,142,187,1,opkijken,images/br_opkijken.png,images/cb_opkijken.png,0,,,,,,,,,,,,,,,,,,,,,,
,,,,,00019,2023-08-23_15h02.43.347,vbt_B1_day3,2022.2.4,Win32,57.48117492,,,,,,down,0,1.2417,,0.688888889,-0.2,1,0,0,0,143,143,148,1,smullen,images/br_smullen.png,images/cb_smullen.png,0,,,,,,,,,,,,,,,,,,,,,,
,,,,,00019,2023-08-23_15h02.43.347,vbt_B1_day3,2022.2.4,Win32,57.48117492,,,,,,down,0,2.3777,,0.688888889,-0.199074074,1,0,0,0,144,144,106,1,zingen,images/br_zingen.png,images/cb_zingen.png,0,,,,,,,,,,,,,,,,,,,,,,
,,,,,00019,2023-08-23_15h02.43.347,vbt_B1_day3,2022.2.4,Win32,57.48117492,,,,,,down,0,3.0854,,0.690740741,-0.199074074,1,0,0,0,145,145,40,1,schep,images/br_schep.png,images/cb_schep.png,0,,,,,,,,,,,,,,,,,,,,,,
,,,,,00019,2023-08-23_15h02.43.347,vbt_B1_day3,2022.2.4,Win32,57.48117492,,,,,,down,0,0.8958,,0.711111111,-0.191666667,1,0,0,0,146,146,109,1,totaal,images/br_totaal.png,images/cb_totaal.png,0,,,,,,,,,,,,,,,,,,,,,,
,,,,,00019,2023-08-23_15h02.43.347,vbt_B1_day3,2022.2.4,Win32,57.48117492,,,,,,down,0,1.393,,0.762962963,-0.208333333,1,0,0,0,147,147,114,1,vullen,images/br_vullen.png,images/cb_vullen.png,0,,,,,,,,,,,,,,,,,,,,,,
,,,,,00019,2023-08-23_15h02.43.347,vbt_B1_day3,2022.2.4,Win32,57.48117492,,,,,,down,0,1.567,,0.513888889,0.152777778,1,0,0,0,148,148,47,1,kabel,images/br_kabel.png,images/cb_kabel.png,0,,,,,,,,,,,,,,,,,,,,,,
,,,,,00019,2023-08-23_15h02.43.347,vbt_B1_day3,2022.2.4,Win32,57.48117492,,,,,,down,0,1.2005,,0.513888889,0.152777778,1,0,0,0,149,149,26,1,leuk,images/br_leuk.png,images/cb_leuk.png,0,,,,,,,,,,,,,,,,,,,,,,
,,,,,00019,2023-08-23_15h02.43.347,vbt_B1_day3,2022.2.4,Win32,57.48117492,,,,,,down,0,3.0887,,0.513888889,0.152777778,1,0,0,0,150,150,189,1,aanraden,images/br_aanraden.png,images/cb_aanraden.png,0,,,,,,,,,,,,,,,,,,,,,,
,,,,,00019,2023-08-23_15h02.43.347,vbt_B1_day3,2022.2.4,Win32,57.48117492,,,,,,down,0,0.873,,0.513888889,0.153703704,1,0,0,0,151,151,72,1,strak,images/br_strak.png,images/cb_strak.png,0,,,,,,,,,,,,,,,,,,,,,,
,,,,,00019,2023-08-23_15h02.43.347,vbt_B1_day3,2022.2.4,Win32,57.48117492,,,,,,down,0,6.6992,,0.501851852,0.139814815,1,0,0,0,152,152,154,1,aflopen,images/br_aflopen.png,images/cb_aflopen.png,0,,,,,,,,,,,,,,,,,,,,,,
,,,,,00019,2023-08-23_15h02.43.347,vbt_B1_day3,2022.2.4,Win32,57.48117492,,,,,,down,0,2.2065,,0.500925926,0.140740741,1,0,0,0,153,153,2,1,jaar,images/br_jaar.png,images/cb_jaar.png,0,,,,,,,,,,,,,,,,,,,,,,
,,,,,00019,2023-08-23_15h02.43.347,vbt_B1_day3,2022.2.4,Win32,57.48117492,,,,,,down,0,3.0567,,0.5,0.140740741,1,0,0,0,154,154,88,1,boeien,images/br_boeien.png,images/cb_boeien.png,0,,,,,,,,,,,,,,,,,,,,,,
,,,,,00019,2023-08-23_15h02.43.347,vbt_B1_day3,2022.2.4,Win32,57.48117492,,,,,,down,0,5.8102,,0.5,0.140740741,1,0,0,0,155,155,100,1,geduld,images/br_geduld.png,images/cb_geduld.png,1,geduld,,,,,,,,,,,,,,,,,,,,,
,,,,,00019,2023-08-23_15h02.43.347,vbt_B1_day3,2022.2.4,Win32,57.48117492,,,,,,down,0,4.0292,,0.5,0.140740741,1,0,0,0,156,156,123,1,hiervan,images/br_hiervan.png,images/cb_hiervan.png,0,,,,,,,,,,,,,,,,,,,,,,
,,,,,00019,2023-08-23_15h02.43.347,vbt_B1_day3,2022.2.4,Win32,57.48117492,,,,,,down,0,12.9751,,0.5,0.141666667,1,0,0,0,157,157,108,1,excuus,images/br_excuus.png,images/cb_excuus.png,0,,,,,,,,,,,,,,,,,,,,,,
,,,,,00019,2023-08-23_15h02.43.347,vbt_B1_day3,2022.2.4,Win32,57.48117492,,,,,,down,0,1.7116,,0.5,0.141666667,1,0,0,0,158,158,104,1,zweven,images/br_zweven.png,images/cb_zweven.png,0,,,,,,,,,,,,,,,,,,,,,,
,,,,,00019,2023-08-23_15h02.43.347,vbt_B1_day3,2022.2.4,Win32,57.48117492,,,,,,down,0,1.031,,0.5,0.141666667,1,0,0,0,159,159,74,1,graaf,images/br_graaf.png,images/cb_graaf.png,0,,,,,,,,,,,,,,,,,,,,,,
,,,,,00019,2023-08-23_15h02.43.347,vbt_B1_day3,2022.2.4,Win32,57.48117492,,,,,,down,0,0.4202,,0.5,0.141666667,1,0,0,0,160,160,24,1,jurk,images/br_jurk.png,images/cb_jurk.png,0,,,,,,,,,,,,,,,,,,,,,,
,,,,,00019,2023-08-23_15h02.43.347,vbt_B1_day3,2022.2.4,Win32,57.48117492,,,,,,down,0,4.713,,0.5,0.141666667,1,0,0,0,161,161,195,1,middelen,images/br_middelen.png,images/cb_middelen.png,0,,,,,,,,,,,,,,,,,,,,,,
,,,,,00019,2023-08-23_15h02.43.347,vbt_B1_day3,2022.2.4,Win32,57.48117492,,,,,,down,0,1.7049,,0.5,0.141666667,1,0,0,0,162,162,188,1,strekken,images/br_strekken.png,images/cb_strekken.png,0,,,,,,,,,,,,,,,,,,,,,,
,,,,,00019,2023-08-23_15h02.43.347,vbt_B1_day3,2022.2.4,Win32,57.48117492,,,,,,down,0,0.1766,,0.5,0.141666667,1,0,0,0,163,163,36,1,vuur,images/br_vuur.png,images/cb_vuur.png,0,,,,,,,,,,,,,,,,,,,,,,
,,,,,00019,2023-08-23_15h02.43.347,vbt_B1_day3,2022.2.4,Win32,57.48117492,,,,,,down,0,5.0359,,0.5,0.141666667,1,0,0,0,164,164,141,1,knielen,images/br_knielen.png,images/cb_knielen.png,1,knielen,,,,,,,,,,,,,,,,,,,,,
,,,,,00019,2023-08-23_15h02.43.347,vbt_B1_day3,2022.2.4,Win32,57.48117492,,,,,,down,0,3.6698,,0.5,0.141666667,1,0,0,0,165,165,80,1,kanjer,images/br_kanjer.png,images/cb_kanjer.png,0,,,,,,,,,,,,,,,,,,,,,,
,,,,,00019,2023-08-23_15h02.43.347,vbt_B1_day3,2022.2.4,Win32,57.48117492,,,,,,down,0,0.8841,,0.497222222,0.153703704,1,0,0,0,166,166,84,1,lokken,images/br_lokken.png,images/cb_lokken.png,0,,,,,,,,,,,,,,,,,,,,,,
,,,,,00019,2023-08-23_15h02.43.347,vbt_B1_day3,2022.2.4,Win32,57.48117492,,,,,,down,0,3.5141,,0.497222222,0.153703704,1,0,0,0,167,167,22,1,stof,images/br_stof.png,images/cb_stof.png,1,stof,,,,,,,,,,,,,,,,,,,,,
,,,,,00019,2023-08-23_15h02.43.347,vbt_B1_day3,2022.2.4,Win32,57.48117492,,,,,,down,0,6.0115,,0.497222222,0.153703704,1,0,0,0,168,168,152,1,afnemen,images/br_afnemen.png,images/cb_afnemen.png,0,,,,,,,,,,,,,,,,,,,,,,
,,,,,00019,2023-08-23_15h02.43.347,vbt_B1_day3,2022.2.4,Win32,57.48117492,,,,,,down,0,1.6765,,0.487962963,0.151851852,1,0,0,0,169,169,124,1,bloeien,images/br_bloeien.png,images/cb_bloeien.png,0,,,,,,,,,,,,,,,,,,,,,,
,,,,,00019,2023-08-23_15h02.43.347,vbt_B1_day3,2022.2.4,Win32,57.48117492,,,,,,down,0,1.2891,,0.487962963,0.151851852,1,0,0,0,170,170,48,1,steel,images/br_steel.png,images/cb_steel.png,0,,,,,,,,,,,,,,,,,,,,,,
,,,,,00019,2023-08-23_15h02.43.347,vbt_B1_day3,2022.2.4,Win32,57.48117492,,,,,,down,0,0.4185,,0.27962963,0.102777778,1,0,0,0,171,171,6,1,diep,images/br_diep.png,images/cb_diep.png,0,,,,,,,,,,,,,,,,,,,,,,
,,,,,00019,2023-08-23_15h02.43.347,vbt_B1_day3,2022.2.4,Win32,57.48117492,,,,,,down,0,2.6494,,0.27962963,0.102777778,1,0,0,0,172,172,107,1,maling,images/br_maling.png,images/cb_maling.png,0,,,,,,,,,,,,,,,,,,,,,,
,,,,,00019,2023-08-23_15h02.43.347,vbt_B1_day3,2022.2.4,Win32,57.48117492,,,,,,down,0,1.4805,,0.27962963,0.102777778,1,0,0,0,173,173,58,1,tekst,images/br_tekst.png,images/cb_tekst.png,0,,,,,,,,,,,,,,,,,,,,,,
,,,,,00019,2023-08-23_15h02.43.347,vbt_B1_day3,2022.2.4,Win32,57.48117492,,,,,,down,0,4.7709,,0.27962963,0.103703704,1,0,0,0,174,174,162,1,uitdelen,images/br_uitdelen.png,images/cb_uitdelen.png,0,,,,,,,,,,,,,,,,,,,,,,
,,,,,00019,2023-08-23_15h02.43.347,vbt_B1_day3,2022.2.4,Win32,57.48117492,,,,,,down,0,2.9106,,0.27962963,0.103703704,1,0,0,0,175,175,153,1,vervoer,images/br_vervoer.png,images/cb_vervoer.png,0,,,,,,,,,,,,,,,,,,,,,,
,,,,,00019,2023-08-23_15h02.43.347,vbt_B1_day3,2022.2.4,Win32,57.48117492,,,,,,down,0,7.4617,,0.27962963,0.103703704,1,0,0,0,176,176,183,1,getuigen,images/br_getuigen.png,images/cb_getuigen.png,1,getuigen,,,,,,,,,,,,,,,,,,,,,
,,,,,00019,2023-08-23_15h02.43.347,vbt_B1_day3,2022.2.4,Win32,57.48117492,,,,,,down,0,9.4662,,0.27962963,0.103703704,1,0,0,0,177,177,127,1,doodmoe,images/br_doodmoe.png,images/cb_doodmoe.png,0,,,,,,,,,,,,,,,,,,,,,,
,,,,,00019,2023-08-23_15h02.43.347,vbt_B1_day3,2022.2.4,Win32,57.48117492,,,,,,down,0,2.4914,,0.27962963,0.10462963,1,0,0,0,178,178,82,1,muziek,images/br_muziek.png,images/cb_muziek.png,0,,,,,,,,,,,,,,,,,,,,,,
,,,,,00019,2023-08-23_15h02.43.347,vbt_B1_day3,2022.2.4,Win32,57.48117492,,,,,,down,0,0.0032,,0.27962963,0.10462963,1,0,0,0,179,179,17,1,taal,images/br_taal.png,images/cb_taal.png,0,,,,,,,,,,,,,,,,,,,,,,
,,,,,00019,2023-08-23_15h02.43.347,vbt_B1_day3,2022.2.4,Win32,57.48117492,,,,,,down,0,2.0163,,0.437962963,0.076851852,1,0,0,0,180,180,138,1,akkoord,images/br_akkoord.png,images/cb_akkoord.png,0,,,,,,,,,,,,,,,,,,,,,,
,,,,,00019,2023-08-23_15h02.43.347,vbt_B1_day3,2022.2.4,Win32,57.48117492,,,,,,down,0,4.5045,,0.437962963,0.076851852,1,0,0,0,181,181,175,1,heengaan,images/br_heengaan.png,images/cb_heengaan.png,0,,,,,,,,,,,,,,,,,,,,,,
,,,,,00019,2023-08-23_15h02.43.347,vbt_B1_day3,2022.2.4,Win32,57.48117492,,,,,,down,0,4.1322,,0.437962963,0.076851852,1,0,0,0,182,182,121,1,twijfel,images/br_twijfel.png,images/cb_twijfel.png,0,,,,,,,,,,,,,,,,,,,,,,
,,,,,00019,2023-08-23_15h02.43.347,vbt_B1_day3,2022.2.4,Win32,57.48117492,,,,,,down,0,5.5044,,0.437962963,0.076851852,1,0,0,0,183,183,165,1,feestdag,images/br_feestdag.png,images/cb_feestdag.png,0,,,,,,,,,,,,,,,,,,,,,,
,,,,,00019,2023-08-23_15h02.43.347,vbt_B1_day3,2022.2.4,Win32,57.48117492,,,,,,down,0,2.1693,,0.437962963,0.076851852,1,0,0,0,184,184,125,1,aanzien,images/br_aanzien.png,images/cb_aanzien.png,0,,,,,,,,,,,,,,,,,,,,,,
,,,,,00019,2023-08-23_15h02.43.347,vbt_B1_day3,2022.2.4,Win32,57.48117492,,,,,,down,0,4.7773,,0.440740741,0.087037037,1,0,0,0,185,185,170,1,schatten,images/br_schatten.png,images/cb_schatten.png,0,,,,,,,,,,,,,,,,,,,,,,
,,,,,00019,2023-08-23_15h02.43.347,vbt_B1_day3,2022.2.4,Win32,57.48117492,,,,,,down,0,15.2253,,0.440740741,0.087037037,1,0,0,0,186,186,63,1,flirt,images/br_flirt.png,images/cb_flirt.png,1,flirt,,,,,,,,,,,,,,,,,,,,,
,,,,,00019,2023-08-23_15h02.43.347,vbt_B1_day3,2022.2.4,Win32,57.48117492,,,,,,down,0,6.5975,,0.440740741,0.087037037,1,0,0,0,187,187,185,1,mijnheer,images/br_mijnheer.png,images/cb_mijnheer.png,0,,,,,,,,,,,,,,,,,,,,,,
,,,,,00019,2023-08-23_15h02.43.347,vbt_B1_day3,2022.2.4,Win32,57.48117492,,,,,,down,0,2.7108,,0.44537037,0.082407407,1,0,0,0,188,188,25,1,plek,images/br_plek.png,images/cb_plek.png,0,,,,,,,,,,,,,,,,,,,,,,
,,,,,00019,2023-08-23_15h02.43.347,vbt_B1_day3,2022.2.4,Win32,57.48117492,,,,,,down,0,2.0733,,0.446296296,0.080555556,1,0,0,0,189,189,133,1,seizoen,images/br_seizoen.png,images/cb_seizoen.png,0,,,,,,,,,,,,,,,,,,,,,,
,,,,,00019,2023-08-23_15h02.43.347,vbt_B1_day3,2022.2.4,Win32,57.48117492,,,,,,down,0,0.0977,,0.446296296,0.080555556,1,0,0,0,190,190,113,1,koppen,images/br_koppen.png,images/cb_koppen.png,0,,,,,,,,,,,,,,,,,,,,,,
,,,,,00019,2023-08-23_15h02.43.347,vbt_B1_day3,2022.2.4,Win32,57.48117492,,,,,,down,0,0.9557,,0.446296296,0.080555556,1,0,0,0,191,191,45,1,piste,images/br_piste.png,images/cb_piste.png,0,,,,,,,,,,,,,,,,,,,,,,
,,,,,00019,2023-08-23_15h02.43.347,vbt_B1_day3,2022.2.4,Win32,57.48117492,,,,,,down,0,1.0763,,0.452777778,0.068518519,1,0,0,0,192,192,29,1,baas,images/br_baas.png,images/cb_baas.png,0,,,,,,,,,,,,,,,,,,,,,,
,,,,,00019,2023-08-23_15h02.43.347,vbt_B1_day3,2022.2.4,Win32,57.48117492,,,,,,down,0,1.4519,,0.452777778,0.068518519,1,0,0,0,193,193,77,1,woede,images/br_woede.png,images/cb_woede.png,0,,,,,,,,,,,,,,,,,,,,,,
,,,,,00019,2023-08-23_15h02.43.347,vbt_B1_day3,2022.2.4,Win32,57.48117492,,,,,,down,0,2.8926,,0.453703704,0.068518519,1,0,0,0,194,194,120,1,klimmen,images/br_klimmen.png,images/cb_klimmen.png,0,,,,,,,,,,,,,,,,,,,,,,
,,,,,00019,2023-08-23_15h02.43.347,vbt_B1_day3,2022.2.4,Win32,57.48117492,,,,,,down,0,3.245,,0.465740741,0.065740741,1,0,0,0,195,195,75,1,snoep,images/br_snoep.png,images/cb_snoep.png,0,,,,,,,,,,,,,,,,,,,,,,
,,,,,00019,2023-08-23_15h02.43.347,vbt_B1_day3,2022.2.4,Win32,57.48117492,,,,,,down,0,5.1067,,0.466666667,0.065740741,1,0,0,0,196,196,137,1,trekker,images/br_trekker.png,images/cb_trekker.png,0,,,,,,,,,,,,,,,,,,,,,,
,,,,,00019,2023-08-23_15h02.43.347,vbt_B1_day3,2022.2.4,Win32,57.48117492,,,,,,down,0,6.1941,,0.466666667,0.065740741,1,0,0,0,197,197,23,1,zout,images/br_zout.png,images/cb_zout.png,1,zout,,,,,,,,,,,,,,,,,,,,,
,,,,,00019,2023-08-23_15h02.43.347,vbt_B1_day3,2022.2.4,Win32,57.48117492,,,,,,down,0,0.2941,,0.468518519,0.065740741,1,0,0,0,198,198,33,1,vlek,images/br_vlek.png,images/cb_vlek.png,0,,,,,,,,,,,,,,,,,,,,,,
,,,,,00019,2023-08-23_15h02.43.347,vbt_B1_day3,2022.2.4,Win32,57.48117492,,,,,,down,0,2.5124,,0.468518519,0.065740741,1,0,0,0,199,199,136,1,waarbij,images/br_waarbij.png,images/cb_waarbij.png,0,,,,,,,,,,,,,,,,,,,,,,
,,,,,00019,2023-08-23_15h02.43.347,vbt_B1_day3,2022.2.4,Win32,57.48117492,,,,,,,,,,,,,,,,,,,,,,,,,0.221296296,-0.141666667,1,0,0,,,,,,,,,,,,,,,,
,,,,,00019,2023-08-23_15h02.43.347,vbt_B1_day3,2022.2.4,Win32,57.48117492,,,,,,,,,,,,,,,,,,,,,,,,,,,,,,0.413888889,-0.042592593,1,0,0,,,,,,,,,,,
,,,,,00019,2023-08-23_15h02.43.347,vbt_B1_day3,2022.2.4,Win32,57.48117492,,,,,,,,,,,,,,,,,,,,gebod,images/br_gebod.png,images/cb_gebod.png,,gebod,,,,,,,,,,,0.413888889,-0.042592593,1,0,0,gebod,0,0,0,45,1
,,,,,00019,2023-08-23_15h02.43.347,vbt_B1_day3,2022.2.4,Win32,57.48117492,,,,,,,,,,,,,,,,,,,,verhaal,images/br_verhaal.png,images/cb_verhaal.png,,verhaal,,,,,,,,,,,0.450925926,0.255555556,1,0,0,verhaal,0,1,1,13,1
,,,,,00019,2023-08-23_15h02.43.347,vbt_B1_day3,2022.2.4,Win32,57.48117492,,,,,,,,,,,,,,,,,,,,afbopen,images/br_afbopen.png,images/cb_afbopen.png,,afbopen,,,,,,,,,,,0.450925926,0.255555556,1,0,0,afbopen,0,2,2,34,1
,,,,,00019,2023-08-23_15h02.43.347,vbt_B1_day3,2022.2.4,Win32,57.48117492,,,,,,,,,,,,,,,,,,,,leemaken,images/br_leemaken.png,images/cb_leemaken.png,,leemaken,,,,,,,,,,,0.450925926,0.255555556,1,0,0,leemaken,0,3,3,39,1
,,,,,00019,2023-08-23_15h02.43.347,vbt_B1_day3,2022.2.4,Win32,57.48117492,,,,,,,,,,,,,,,,,,,,twaaf,images/br_twaaf.png,images/cb_twaaf.png,,twaaf,,,,,,,,,,,0.450925926,0.255555556,1,0,0,twaaf,0,4,4,24,1
,,,,,00019,2023-08-23_15h02.43.347,vbt_B1_day3,2022.2.4,Win32,57.48117492,,,,,,,,,,,,,,,,,,,,laken,images/br_laken.png,images/cb_laken.png,,laken,,,,,,,,,,,0.450925926,0.255555556,1,0,0,laken,0,5,5,5,1
,,,,,00019,2023-08-23_15h02.43.347,vbt_B1_day3,2022.2.4,Win32,57.48117492,,,,,,,,,,,,,,,,,,,,schodel,images/br_schodel.png,images/cb_schodel.png,,schodel,,,,,,,,,,,0.450925926,0.255555556,1,0,0,schodel,0,6,6,33,1
,,,,,00019,2023-08-23_15h02.43.347,vbt_B1_day3,2022.2.4,Win32,57.48117492,,,,,,,,,,,,,,,,,,,,hint,images/br_hint.png,images/cb_hint.png,,hint,,,,,,,,,,,0.442592593,0.212037037,1,0,0,hint,0,7,7,43,1
,,,,,00019,2023-08-23_15h02.43.347,vbt_B1_day3,2022.2.4,Win32,57.48117492,,,,,,,,,,,,,,,,,,,,kest,images/br_kest.png,images/cb_kest.png,,kest,,,,,,,,,,,0.472222222,0.194444444,1,0,0,kest,0,8,8,21,1
,,,,,00019,2023-08-23_15h02.43.347,vbt_B1_day3,2022.2.4,Win32,57.48117492,,,,,,,,,,,,,,,,,,,,mugeek,images/br_mugeek.png,images/cb_mugeek.png,,mugeen,,,,,,,,,,,0.510185185,-0.059259259,1,0,0,mugeen,0,9,9,29,1
,,,,,00019,2023-08-23_15h02.43.347,vbt_B1_day3,2022.2.4,Win32,57.48117492,,,,,,,,,,,,,,,,,,,,brappen,images/br_brappen.png,images/cb_brappen.png,,brappen,,,,,,,,,,,0.386111111,-0.178703704,1,0,0,brappen,0,10,10,35,1
,,,,,00019,2023-08-23_15h02.43.347,vbt_B1_day3,2022.2.4,Win32,57.48117492,,,,,,,,,,,,,,,,,,,,kaas,images/br_kaas.png,images/cb_kaas.png,,kaas,,,,,,,,,,,0.437962963,-0.114814815,1,0,0,kaas,0,11,11,42,1
,,,,,00019,2023-08-23_15h02.43.347,vbt_B1_day3,2022.2.4,Win32,57.48117492,,,,,,,,,,,,,,,,,,,,theeting,images/br_theeting.png,images/cb_theeting.png,,theeting,,,,,,,,,,,0.439814815,-0.112037037,1,0,0,theeting,0,12,12,38,1
,,,,,00019,2023-08-23_15h02.43.347,vbt_B1_day3,2022.2.4,Win32,57.48117492,,,,,,,,,,,,,,,,,,,,bisschop,images/br_bisschop.png,images/cb_bisschop.png,,bisschop,,,,,,,,,,,0.460185185,-0.097222222,1,0,0,bisschop,0,13,13,16,1
,,,,,00019,2023-08-23_15h02.43.347,vbt_B1_day3,2022.2.4,Win32,57.48117492,,,,,,,,,,,,,,,,,,,,opzetten,images/br_opzetten.png,images/cb_opzetten.png,,opzet...,,,,,,,,,,,0.497222222,-0.098148148,1,0,0,opzet...,0,14,14,56,1
,,,,,00019,2023-08-23_15h02.43.347,vbt_B1_day3,2022.2.4,Win32,57.48117492,,,,,,,,,,,,,,,,,,,,schatten,images/br_schatten.png,images/cb_schatten.png,,schatten,,,,,,,,,,,0.506481481,-0.098148148,1,0,0,schatten,0,15,15,18,1
,,,,,00019,2023-08-23_15h02.43.347,vbt_B1_day3,2022.2.4,Win32,57.48117492,,,,,,,,,,,,,,,,,,,,dwang,images/br_dwang.png,images/cb_dwang.png,,dwang,,,,,,,,,,,0.508333333,-0.098148148,1,0,0,dwang,0,16,16,47,1
,,,,,00019,2023-08-23_15h02.43.347,vbt_B1_day3,2022.2.4,Win32,57.48117492,,,,,,,,,,,,,,,,,,,,gout,images/br_gout.png,images/cb_gout.png,,gout,,,,,,,,,,,0.508333333,-0.098148148,1,0,0,gout,0,17,17,20,1
,,,,,00019,2023-08-23_15h02.43.347,vbt_B1_day3,2022.2.4,Win32,57.48117492,,,,,,,,,,,,,,,,,,,,samen,images/br_samen.png,images/cb_samen.png,,samen,,,,,,,,,,,0.508333333,-0.098148148,1,0,0,samen,0,18,18,7,1
,,,,,00019,2023-08-23_15h02.43.347,vbt_B1_day3,2022.2.4,Win32,57.48117492,,,,,,,,,,,,,,,,,,,,mode,images/br_mode.png,images/cb_mode.png,,mode,,,,,,,,,,,0.508333333,-0.098148148,1,0,0,mode,0,19,19,3,1
,,,,,00019,2023-08-23_15h02.43.347,vbt_B1_day3,2022.2.4,Win32,57.48117492,,,,,,,,,,,,,,,,,,,,vlager,images/br_vlager.png,images/cb_vlager.png,,vlager,,,,,,,,,,,0.508333333,-0.098148148,1,0,0,vlager,0,20,20,28,1
,,,,,00019,2023-08-23_15h02.43.347,vbt_B1_day3,2022.2.4,Win32,57.48117492,,,,,,,,,,,,,,,,,,,,leugeren,images/br_leugeren.png,images/cb_leugeren.png,,leuger...,,,,,,,,,,,0.508333333,-0.098148148,1,0,0,leuger...,0,21,21,37,1
,,,,,00019,2023-08-23_15h02.43.347,vbt_B1_day3,2022.2.4,Win32,57.48117492,,,,,,,,,,,,,,,,,,,,uniek,images/br_uniek.png,images/cb_uniek.png,,uniek,,,,,,,,,,,0.483333333,-0.060185185,1,0,0,uniek,0,22,22,46,1
,,,,,00019,2023-08-23_15h02.43.347,vbt_B1_day3,2022.2.4,Win32,57.48117492,,,,,,,,,,,,,,,,,,,,stallen,images/br_stallen.png,images/cb_stallen.png,,stallen,,,,,,,,,,,0.483333333,-0.061111111,1,0,0,stallen,0,23,23,52,1
,,,,,00019,2023-08-23_15h02.43.347,vbt_B1_day3,2022.2.4,Win32,57.48117492,,,,,,,,,,,,,,,,,,,,stikken,images/br_stikken.png,images/cb_stikken.png,,stikken,,,,,,,,,,,0.561111111,-0.05462963,1,0,0,stikken,0,24,24,54,1
,,,,,00019,2023-08-23_15h02.43.347,vbt_B1_day3,2022.2.4,Win32,57.48117492,,,,,,,,,,,,,,,,,,,,uviek,images/br_uviek.png,images/cb_uviek.png,,uviek,,,,,,,,,,,0.561111111,-0.05462963,1,0,0,uviek,0,25,25,25,1
,,,,,00019,2023-08-23_15h02.43.347,vbt_B1_day3,2022.2.4,Win32,57.48117492,,,,,,,,,,,,,,,,,,,,steel,images/br_steel.png,images/cb_steel.png,,steel,,,,,,,,,,,0.561111111,-0.05462963,1,0,0,steel,0,26,26,4,1
,,,,,00019,2023-08-23_15h02.43.347,vbt_B1_day3,2022.2.4,Win32,57.48117492,,,,,,,,,,,,,,,,,,,,sluier,images/br_sluier.png,images/cb_sluier.png,,sluier,,,,,,,,,,,0.561111111,-0.05462963,1,0,0,sluier,0,27,27,50,1
,,,,,00019,2023-08-23_15h02.43.347,vbt_B1_day3,2022.2.4,Win32,57.48117492,,,,,,,,,,,,,,,,,,,,hust,images/br_hust.png,images/cb_hust.png,,hust,,,,,,,,,,,0.561111111,-0.05462963,1,0,0,hust,0,28,28,23,1
,,,,,00019,2023-08-23_15h02.43.347,vbt_B1_day3,2022.2.4,Win32,57.48117492,,,,,,,,,,,,,,,,,,,,geluid,images/br_geluid.png,images/cb_geluid.png,,geluid,,,,,,,,,,,0.561111111,-0.05462963,1,0,0,geluid,0,29,29,10,1
,,,,,00019,2023-08-23_15h02.43.347,vbt_B1_day3,2022.2.4,Win32,57.48117492,,,,,,,,,,,,,,,,,,,,onrecht,images/br_onrecht.png,images/cb_onrecht.png,,onrecht,,,,,,,,,,,0.561111111,-0.05462963,1,0,0,onrecht,0,30,30,55,1
,,,,,00019,2023-08-23_15h02.43.347,vbt_B1_day3,2022.2.4,Win32,57.48117492,,,,,,,,,,,,,,,,,,,,booien,images/br_booien.png,images/cb_booien.png,,booien,,,,,,,,,,,0.561111111,-0.05462963,1,0,0,booien,0,31,31,31,1
,,,,,00019,2023-08-23_15h02.43.347,vbt_B1_day3,2022.2.4,Win32,57.48117492,,,,,,,,,,,,,,,,,,,,aarzelen,images/br_aarzelen.png,images/cb_aarzelen.png,,aarzelen,,,,,,,,,,,0.561111111,-0.05462963,1,0,0,aarzelen,0,32,32,19,1
,,,,,00019,2023-08-23_15h02.43.347,vbt_B1_day3,2022.2.4,Win32,57.48117492,,,,,,,,,,,,,,,,,,,,alsof,images/br_alsof.png,images/cb_alsof.png,,alsof,,,,,,,,,,,0.363888889,-0.12037037,1,0,0,alsof,0,33,33,44,1
,,,,,00019,2023-08-23_15h02.43.347,vbt_B1_day3,2022.2.4,Win32,57.48117492,,,,,,,,,,,,,,,,,,,,opzicht,images/br_opzicht.png,images/cb_opzicht.png,,opzicht,,,,,,,,,,,0.363888889,-0.12037037,1,0,0,opzicht,0,34,34,15,1
,,,,,00019,2023-08-23_15h02.43.347,vbt_B1_day3,2022.2.4,Win32,57.48117492,,,,,,,,,,,,,,,,,,,,hier,images/br_hier.png,images/cb_hier.png,,hier,,,,,,,,,,,0.363888889,-0.12037037,1,0,0,hier,0,35,35,1,1
,,,,,00019,2023-08-23_15h02.43.347,vbt_B1_day3,2022.2.4,Win32,57.48117492,,,,,,,,,,,,,,,,,,,,begrip,images/br_begrip.png,images/cb_begrip.png,,begrip,,,,,,,,,,,0.421296296,-0.044444444,1,0,0,begrip,0,36,36,48,1
,,,,,00019,2023-08-23_15h02.43.347,vbt_B1_day3,2022.2.4,Win32,57.48117492,,,,,,,,,,,,,,,,,,,,invallen,images/br_invallen.png,images/cb_invallen.png,,invallen,,,,,,,,,,,0.410185185,-0.111111111,1,0,0,invallen,0,37,37,57,1
,,,,,00019,2023-08-23_15h02.43.347,vbt_B1_day3,2022.2.4,Win32,57.48117492,,,,,,,,,,,,,,,,,,,,gezond,images/br_gezond.png,images/cb_gezond.png,,gezond,,,,,,,,,,,0.437037037,-0.155555556,1,0,0,gezond,0,38,38,11,1
,,,,,00019,2023-08-23_15h02.43.347,vbt_B1_day3,2022.2.4,Win32,57.48117492,,,,,,,,,,,,,,,,,,,,croo,images/br_croo.png,images/cb_croo.png,,chroo,,,,,,,,,,,0.437037037,-0.155555556,1,0,0,chroo,0,39,39,22,1
,,,,,00019,2023-08-23_15h02.43.347,vbt_B1_day3,2022.2.4,Win32,57.48117492,,,,,,,,,,,,,,,,,,,,knie,images/br_knie.png,images/cb_knie.png,,knie,,,,,,,,,,,0.437037037,-0.155555556,1,0,0,knie,0,40,40,0,1
,,,,,00019,2023-08-23_15h02.43.347,vbt_B1_day3,2022.2.4,Win32,57.48117492,,,,,,,,,,,,,,,,,,,,sultan,images/br_sultan.png,images/cb_sultan.png,,sultan,,,,,,,,,,,0.341666667,-0.137037037,1,0,0,sultan,0,41,41,49,1
,,,,,00019,2023-08-23_15h02.43.347,vbt_B1_day3,2022.2.4,Win32,57.48117492,,,,,,,,,,,,,,,,,,,,paken,images/br_paken.png,images/cb_paken.png,,paken,,,,,,,,,,,0.338888889,-0.175,1,0,0,paken,0,42,42,27,1
,,,,,00019,2023-08-23_15h02.43.347,vbt_B1_day3,2022.2.4,Win32,57.48117492,,,,,,,,,,,,,,,,,,,,zone,images/br_zone.png,images/cb_zone.png,,zone,,,,,,,,,,,0.343518519,-0.169444444,1,0,0,zone,0,43,43,41,1
,,,,,00019,2023-08-23_15h02.43.347,vbt_B1_day3,2022.2.4,Win32,57.48117492,,,,,,,,,,,,,,,,,,,,beslag,images/br_beslag.png,images/cb_beslag.png,,beslag,,,,,,,,,,,0.343518519,-0.169444444,1,0,0,beslag,0,44,44,51,1
,,,,,00019,2023-08-23_15h02.43.347,vbt_B1_day3,2022.2.4,Win32,57.48117492,,,,,,,,,,,,,,,,,,,,verraden,images/br_verraden.png,images/cb_verraden.png,,verraden,,,,,,,,,,,0.343518519,-0.169444444,1,0,0,verraden,0,45,45,58,1
,,,,,00019,2023-08-23_15h02.43.347,vbt_B1_day3,2022.2.4,Win32,57.48117492,,,,,,,,,,,,,,,,,,,,leek,images/br_leek.png,images/cb_leek.png,,leek,,,,,,,,,,,0.344444444,-0.169444444,1,0,0,leek,0,46,46,2,1
,,,,,00019,2023-08-23_15h02.43.347,vbt_B1_day3,2022.2.4,Win32,57.48117492,,,,,,,,,,,,,,,,,,,,slapen,images/br_slapen.png,images/cb_slapen.png,,slapen,,,,,,,,,,,0.352777778,-0.181481481,1,0,0,slapen,0,47,47,9,1
,,,,,00019,2023-08-23_15h02.43.347,vbt_B1_day3,2022.2.4,Win32,57.48117492,,,,,,,,,,,,,,,,,,,,glijden,images/br_glijden.png,images/cb_glijden.png,,glijden,,,,,,,,,,,0.352777778,-0.181481481,1,0,0,glijden,0,48,48,53,1
,,,,,00019,2023-08-23_15h02.43.347,vbt_B1_day3,2022.2.4,Win32,57.48117492,,,,,,,,,,,,,,,,,,,,stoom,images/br_stoom.png,images/cb_stoom.png,,stoom,,,,,,,,,,,0.356481481,-0.17962963,1,0,0,stoom,0,49,49,6,1
,,,,,00019,2023-08-23_15h02.43.347,vbt_B1_day3,2022.2.4,Win32,57.48117492,,,,,,,,,,,,,,,,,,,,keihard,images/br_keihard.png,images/cb_keihard.png,,keihard,,,,,,,,,,,0.393518519,-0.140740741,1,0,0,keihard,0,50,50,14,1
,,,,,00019,2023-08-23_15h02.43.347,vbt_B1_day3,2022.2.4,Win32,57.48117492,,,,,,,,,,,,,,,,,,,,makieren,images/br_makieren.png,images/cb_makieren.png,,makie...,,,,,,,,,,,0.214814815,-0.111111111,1,0,0,makie...,0,51,51,36,1
,,,,,00019,2023-08-23_15h02.43.347,vbt_B1_day3,2022.2.4,Win32,57.48117492,,,,,,,,,,,,,,,,,,,,bevret,images/br_bevret.png,images/cb_bevret.png,,bevret,,,,,,,,,,,0.425925926,-0.067592593,1,0,0,bevret,0,52,52,30,1
,,,,,00019,2023-08-23_15h02.43.347,vbt_B1_day3,2022.2.4,Win32,57.48117492,,,,,,,,,,,,,,,,,,,,oprotten,images/br_oprotten.png,images/cb_oprotten.png,,oprotten,,,,,,,,,,,0.494444444,-0.025925926,1,0,0,oprotten,0,53,53,17,1
,,,,,00019,2023-08-23_15h02.43.347,vbt_B1_day3,2022.2.4,Win32,57.48117492,,,,,,,,,,,,,,,,,,,,boeien,images/br_boeien.png,images/cb_boeien.png,,boeien,,,,,,,,,,,0.494444444,-0.025925926,1,0,0,boeien,0,54,54,8,1
,,,,,00019,2023-08-23_15h02.43.347,vbt_B1_day3,2022.2.4,Win32,57.48117492,,,,,,,,,,,,,,,,,,,,prikken,images/br_prikken.png,images/cb_prikken.png,,prikken,,,,,,,,,,,0.494444444,-0.025,1,0,0,prikken,0,55,55,12,1
,,,,,00019,2023-08-23_15h02.43.347,vbt_B1_day3,2022.2.4,Win32,57.48117492,,,,,,,,,,,,,,,,,,,,eens,images/br_eens.png,images/cb_eens.png,,eens,,,,,,,,,,,0.507407407,-0.055555556,1,0,0,eens,0,56,56,40,1
,,,,,00019,2023-08-23_15h02.43.347,vbt_B1_day3,2022.2.4,Win32,57.48117492,,,,,,,,,,,,,,,,,,,,kwaas,images/br_kwaas.png,images/cb_kwaas.png,,kwaas,,,,,,,,,,,0.507407407,-0.055555556,1,0,0,kwaas,0,57,57,26,1
,,,,,00019,2023-08-23_15h02.43.347,vbt_B1_day3,2022.2.4,Win32,57.48117492,,,,,,,,,,,,,,,,,,,,jongelui,images/br_jongelui.png,images/cb_jongelui.png,,jongelui,,,,,,,,,,,0.507407407,-0.055555556,1,0,0,jongelui,0,58,58,59,1
,,,,,00019,2023-08-23_15h02.43.347,vbt_B1_day3,2022.2.4,Win32,57.48117492,,,,,,,,,,,,,,,,,,,,verwoor,images/br_verwoor.png,images/cb_verwoor.png,,verwoor,,,,,,,,,,,0.375,-0.047222222,1,0,0,verwoor,0,59,59,32,1
,,,,,00019,2023-08-23_15h02.43.347,vbt_B1_day3,2022.2.4,Win32,57.48117492,,,,,,,,,,,,,,,,,,,,,,,,,,,,,,,,,,,,,,,,,,,,,
