welcome_mouse.x,welcome_mouse.y,welcome_mouse.leftButton,welcome_mouse.midButton,welcome_mouse.rightButton,"ID",date,expName,psychopyVersion,OS,frameRate,trainInstr_mouse.x,trainInstr_mouse.y,trainInstr_mouse.leftButton,trainInstr_mouse.midButton,trainInstr_mouse.rightButton,translation_key.keys,translation_key.corr,translation_key.rt,word_rsp.text,trWrd_mouse.x,trWrd_mouse.y,trWrd_mouse.leftButton,trWrd_mouse.midButton,trWrd_mouse.rightButton,train_loop.thisRepN,train_loop.thisTrialN,train_loop.thisN,train_loop.thisIndex,train_loop.ran,nlWrd,brWrd,cbWrd,test,testResp,mouse.x,mouse.y,mouse.leftButton,mouse.midButton,mouse.rightButton,testInstr_mouse.x,testInstr_mouse.y,testInstr_mouse.leftButton,testInstr_mouse.midButton,testInstr_mouse.rightButton,test_mouse.x,test_mouse.y,test_mouse.leftButton,test_mouse.midButton,test_mouse.rightButton,test_response.text,test_loop.thisRepN,test_loop.thisTrialN,test_loop.thisN,test_loop.thisIndex,test_loop.ran
0.606097561,-0.197560976,1,0,0,00065,2023-10-18_13h34.18.794,vbt_B1_day3,2022.2.4,MacIntel,50,,,,,,,,,,,,,,,,,,,,,,,,,,,,,,,,,,,,,,,,,,,,,
,,,,,00065,2023-10-18_13h34.18.794,vbt_B1_day3,2022.2.4,MacIntel,50,0.569512195,-0.147560976,1,0,0,,,,,,,,,,,,,,,,,,,,,,,,,,,,,,,,,,,,,,,,
,,,,,00065,2023-10-18_13h34.18.794,vbt_B1_day3,2022.2.4,MacIntel,50,,,,,,down,0,3.668,,0.493902439,-0.082926829,1,0,0,0,0,0,109,1,totaal,images/br_totaal.png,images/cb_totaal.png,0,,,,,,,,,,,,,,,,,,,,,,
,,,,,00065,2023-10-18_13h34.18.794,vbt_B1_day3,2022.2.4,MacIntel,50,,,,,,down,0,17.26,,0.484146341,-0.175609756,1,0,0,0,1,1,164,1,anarchie,images/br_anarchie.png,images/cb_anarchie.png,0,,,,,,,,,,,,,,,,,,,,,,
,,,,,00065,2023-10-18_13h34.18.794,vbt_B1_day3,2022.2.4,MacIntel,50,,,,,,down,0,5.727,,0.469512195,-0.104878049,1,0,0,0,2,2,37,1,mijn,images/br_mijn.png,images/cb_mijn.png,0,,,,,,,,,,,,,,,,,,,,,,
,,,,,00065,2023-10-18_13h34.18.794,vbt_B1_day3,2022.2.4,MacIntel,50,,,,,,down,0,8.228,,0.519512195,-0.068292683,1,0,0,0,3,3,94,1,oceaan,images/br_oceaan.png,images/cb_oceaan.png,0,,,,,,,,,,,,,,,,,,,,,,
,,,,,00065,2023-10-18_13h34.18.794,vbt_B1_day3,2022.2.4,MacIntel,50,,,,,,down,0,7.16,,0.507317073,-0.05,1,0,0,0,4,4,146,1,opkomen,images/br_opkomen.png,images/cb_opkomen.png,0,,,,,,,,,,,,,,,,,,,,,,
,,,,,00065,2023-10-18_13h34.18.794,vbt_B1_day3,2022.2.4,MacIntel,50,,,,,,down,0,5.764,,0.52173913,-0.058204769,1,0,0,0,5,5,102,1,legaal,images/br_legaal.png,images/cb_legaal.png,1,Legaal,,,,,,,,,,,,,,,,,,,,,
,,,,,00065,2023-10-18_13h34.18.794,vbt_B1_day3,2022.2.4,MacIntel,50,,,,,,down,0,4.202,,0.527349229,-0.016129032,1,0,0,0,6,6,16,1,ziek,images/br_ziek.png,images/cb_ziek.png,0,,,,,,,,,,,,,,,,,,,,,,
,,,,,00065,2023-10-18_13h34.18.794,vbt_B1_day3,2022.2.4,MacIntel,50,,,,,,down,0,2.029,,0.566619916,-0.124123422,1,0,0,0,7,7,0,1,slak,images/br_slak.png,images/cb_slak.png,0,,,,,,,,,,,,,,,,,,,,,,
,,,,,00065,2023-10-18_13h34.18.794,vbt_B1_day3,2022.2.4,MacIntel,50,,,,,,down,0,2.729,,0.52173913,-0.076437588,1,0,0,0,8,8,9,1,hier,images/br_hier.png,images/cb_hier.png,0,,,,,,,,,,,,,,,,,,,,,,
,,,,,00065,2023-10-18_13h34.18.794,vbt_B1_day3,2022.2.4,MacIntel,50,,,,,,down,0,8.096,,0.603085554,-0.053997195,1,0,0,0,9,9,174,1,stemming,images/br_stemming.png,images/cb_stemming.png,0,,,,,,,,,,,,,,,,,,,,,,
,,,,,00065,2023-10-18_13h34.18.794,vbt_B1_day3,2022.2.4,MacIntel,50,,,,,,down,0,18.227,,0.559607293,-0.049789621,1,0,0,0,10,10,43,1,klauw,images/br_klauw.png,images/cb_klauw.png,0,,,,,,,,,,,,,,,,,,,,,,
,,,,,00065,2023-10-18_13h34.18.794,vbt_B1_day3,2022.2.4,MacIntel,50,,,,,,down,0,2.762,,0.589060309,-0.08345021,1,0,0,0,11,11,35,1,lust,images/br_lust.png,images/cb_lust.png,0,,,,,,,,,,,,,,,,,,,,,,
,,,,,00065,2023-10-18_13h34.18.794,vbt_B1_day3,2022.2.4,MacIntel,50,,,,,,down,0,16.261,,0.594670407,-0.028751753,1,0,0,0,12,12,147,1,komisch,images/br_komisch.png,images/cb_komisch.png,0,,,,,,,,,,,,,,,,,,,,,,
,,,,,00065,2023-10-18_13h34.18.794,vbt_B1_day3,2022.2.4,MacIntel,50,,,,,,down,0,2.444,,0.542776999,-0.063814867,1,0,0,0,13,13,18,1,blik,images/br_blik.png,images/cb_blik.png,0,,,,,,,,,,,,,,,,,,,,,,
,,,,,00065,2023-10-18_13h34.18.794,vbt_B1_day3,2022.2.4,MacIntel,50,,,,,,down,0,7.012,,0.569424965,-0.107293128,1,0,0,0,14,14,154,1,aflopen,images/br_aflopen.png,images/cb_aflopen.png,0,,,,,,,,,,,,,,,,,,,,,,
,,,,,00065,2023-10-18_13h34.18.794,vbt_B1_day3,2022.2.4,MacIntel,50,,,,,,down,0,2.228,,0.632538569,-0.042776999,1,0,0,0,15,15,36,1,vuur,images/br_vuur.png,images/cb_vuur.png,0,,,,,,,,,,,,,,,,,,,,,,
,,,,,00065,2023-10-18_13h34.18.794,vbt_B1_day3,2022.2.4,MacIntel,50,,,,,,down,0,4.962,,0.542776999,0.017531557,1,0,0,0,16,16,184,1,aandelen,images/br_aandelen.png,images/cb_aandelen.png,0,,,,,,,,,,,,,,,,,,,,,,
,,,,,00065,2023-10-18_13h34.18.794,vbt_B1_day3,2022.2.4,MacIntel,50,,,,,,down,0,5.729,,0.600280505,-0.118513324,1,0,0,0,17,17,26,1,leuk,images/br_leuk.png,images/cb_leuk.png,0,,,,,,,,,,,,,,,,,,,,,,
,,,,,00065,2023-10-18_13h34.18.794,vbt_B1_day3,2022.2.4,MacIntel,50,,,,,,down,0,3.313,,0.525946704,-0.118513324,1,0,0,0,18,18,126,1,kasteel,images/br_kasteel.png,images/cb_kasteel.png,0,,,,,,,,,,,,,,,,,,,,,,
,,,,,00065,2023-10-18_13h34.18.794,vbt_B1_day3,2022.2.4,MacIntel,50,,,,,,down,0,3.678,,0.549789621,-0.125525947,1,0,0,0,19,19,12,1,kust,images/br_kust.png,images/cb_kust.png,0,,,,,,,,,,,,,,,,,,,,,,
,,,,,00065,2023-10-18_13h34.18.794,vbt_B1_day3,2022.2.4,MacIntel,50,,,,,,down,0,1.529,,0.485273492,-0.00911641,1,0,0,0,20,20,8,1,knie,images/br_knie.png,images/cb_knie.png,0,,,,,,,,,,,,,,,,,,,,,,
,,,,,00065,2023-10-18_13h34.18.794,vbt_B1_day3,2022.2.4,MacIntel,50,,,,,,down,0,4.562,,-0.44740533,0.138148668,1,0,0,0,21,21,101,1,staren,images/br_staren.png,images/cb_staren.png,1,Staren,,,,,,,,,,,,,,,,,,,,,
,,,,,00065,2023-10-18_13h34.18.794,vbt_B1_day3,2022.2.4,MacIntel,50,,,,,,down,0,5.02,,0.53997195,-0.110098177,1,0,0,0,22,22,193,1,weeshuis,images/br_weeshuis.png,images/cb_weeshuis.png,0,,,,,,,,,,,,,,,,,,,,,,
,,,,,00065,2023-10-18_13h34.18.794,vbt_B1_day3,2022.2.4,MacIntel,50,,,,,,down,0,0.979,,0.485273492,-0.105890603,1,0,0,0,23,23,48,1,steel,images/br_steel.png,images/cb_steel.png,0,,,,,,,,,,,,,,,,,,,,,,
,,,,,00065,2023-10-18_13h34.18.794,vbt_B1_day3,2022.2.4,MacIntel,50,,,,,,down,0,1.412,,0.500701262,-0.121318373,1,0,0,0,24,24,25,1,plek,images/br_plek.png,images/cb_plek.png,0,,,,,,,,,,,,,,,,,,,,,,
,,,,,00065,2023-10-18_13h34.18.794,vbt_B1_day3,2022.2.4,MacIntel,50,,,,,,down,0,1.113,,0.635343619,-0.103085554,1,0,0,0,25,25,57,1,steek,images/br_steek.png,images/cb_steek.png,0,,,,,,,,,,,,,,,,,,,,,,
,,,,,00065,2023-10-18_13h34.18.794,vbt_B1_day3,2022.2.4,MacIntel,50,,,,,,down,0,2.294,,0.47545582,-0.101683029,1,0,0,0,26,26,58,1,tekst,images/br_tekst.png,images/cb_tekst.png,0,,,,,,,,,,,,,,,,,,,,,,
,,,,,00065,2023-10-18_13h34.18.794,vbt_B1_day3,2022.2.4,MacIntel,50,,,,,,down,0,9.512,,0.52173913,-0.107293128,1,0,0,0,27,27,149,1,redding,images/br_redding.png,images/cb_redding.png,0,,,,,,,,,,,,,,,,,,,,,,
,,,,,00065,2023-10-18_13h34.18.794,vbt_B1_day3,2022.2.4,MacIntel,50,,,,,,down,0,4.512,,0.504908836,-0.104488079,1,0,0,0,28,28,40,1,schep,images/br_schep.png,images/cb_schep.png,0,,,,,,,,,,,,,,,,,,,,,,
,,,,,00065,2023-10-18_13h34.18.794,vbt_B1_day3,2022.2.4,MacIntel,50,,,,,,down,0,3.695,,0.548387097,-0.096072931,1,0,0,0,29,29,197,1,spanning,images/br_spanning.png,images/cb_spanning.png,0,,,,,,,,,,,,,,,,,,,,,,
,,,,,00065,2023-10-18_13h34.18.794,vbt_B1_day3,2022.2.4,MacIntel,50,,,,,,down,0,1.596,,0.517531557,-0.111500701,1,0,0,0,30,30,29,1,baas,images/br_baas.png,images/cb_baas.png,0,,,,,,,,,,,,,,,,,,,,,,
,,,,,00065,2023-10-18_13h34.18.794,vbt_B1_day3,2022.2.4,MacIntel,50,,,,,,down,0,5.111,,0.531556802,-0.034361851,1,0,0,0,31,31,85,1,heilig,images/br_heilig.png,images/cb_heilig.png,0,,,,,,,,,,,,,,,,,,,,,,
,,,,,00065,2023-10-18_13h34.18.794,vbt_B1_day3,2022.2.4,MacIntel,50,,,,,,down,0,3.23,,-0.458625526,0.056802244,1,0,0,0,32,32,21,1,mist,images/br_mist.png,images/cb_mist.png,1,Mist,,,,,,,,,,,,,,,,,,,,,
,,,,,00065,2023-10-18_13h34.18.794,vbt_B1_day3,2022.2.4,MacIntel,50,,,,,,down,0,1.403,,0.451612903,-0.153576438,1,0,0,0,33,33,33,1,vlek,images/br_vlek.png,images/cb_vlek.png,0,,,,,,,,,,,,,,,,,,,,,,
,,,,,00065,2023-10-18_13h34.18.794,vbt_B1_day3,2022.2.4,MacIntel,50,,,,,,down,0,8.779,,-0.427769986,0.153576438,1,0,0,0,34,34,127,1,doodmoe,images/br_doodmoe.png,images/cb_doodmoe.png,0,,,,,,,,,,,,,,,,,,,,,,
,,,,,00065,2023-10-18_13h34.18.794,vbt_B1_day3,2022.2.4,MacIntel,50,,,,,,down,0,5.562,,-0.517531557,0.157784011,1,0,0,0,35,35,145,1,invloed,images/br_invloed.png,images/cb_invloed.png,0,,,,,,,,,,,,,,,,,,,,,,
,,,,,00065,2023-10-18_13h34.18.794,vbt_B1_day3,2022.2.4,MacIntel,50,,,,,,down,0,3.695,,0.542776999,-0.084852735,1,0,0,0,36,36,98,1,kreeft,images/br_kreeft.png,images/cb_kreeft.png,0,,,,,,,,,,,,,,,,,,,,,,
,,,,,00065,2023-10-18_13h34.18.794,vbt_B1_day3,2022.2.4,MacIntel,50,,,,,,down,0,15.311,,0.426367461,-0.089060309,1,0,0,0,37,37,176,1,techniek,images/br_techniek.png,images/cb_techniek.png,0,,,,,,,,,,,,,,,,,,,,,,
,,,,,00065,2023-10-18_13h34.18.794,vbt_B1_day3,2022.2.4,MacIntel,50,,,,,,down,0,8.997,,-0.429172511,0.216690042,1,0,0,0,38,38,182,1,bijkomen,images/br_bijkomen.png,images/cb_bijkomen.png,1,Bijkomen,,,,,,,,,,,,,,,,,,,,,
,,,,,00065,2023-10-18_13h34.18.794,vbt_B1_day3,2022.2.4,MacIntel,50,,,,,,down,0,9.694,,-0.476858345,0.122720898,1,0,0,0,39,39,103,1,joggen,images/br_joggen.png,images/cb_joggen.png,1,Joggen,,,,,,,,,,,,,,,,,,,,,
,,,,,00065,2023-10-18_13h34.18.794,vbt_B1_day3,2022.2.4,MacIntel,50,,,,,,down,0,4.389,,-0.446002805,0.192847125,1,0,0,0,40,40,169,1,oprotten,images/br_oprotten.png,images/cb_oprotten.png,0,,,,,,,,,,,,,,,,,,,,,,
,,,,,00065,2023-10-18_13h34.18.794,vbt_B1_day3,2022.2.4,MacIntel,50,,,,,,down,0,4.979,,-0.495091164,0.150771388,1,0,0,0,41,41,131,1,opzicht,images/br_opzicht.png,images/cb_opzicht.png,0,,,,,,,,,,,,,,,,,,,,,,
,,,,,00065,2023-10-18_13h34.18.794,vbt_B1_day3,2022.2.4,MacIntel,50,,,,,,down,0,1.829,,-0.573632539,0.167601683,1,0,0,0,42,42,28,1,stal,images/br_stal.png,images/cb_stal.png,0,,,,,,,,,,,,,,,,,,,,,,
,,,,,00065,2023-10-18_13h34.18.794,vbt_B1_day3,2022.2.4,MacIntel,50,,,,,,down,0,11.511,,-0.497896213,0.112903226,1,0,0,0,43,43,161,1,attentie,images/br_attentie.png,images/cb_attentie.png,0,,,,,,,,,,,,,,,,,,,,,,
,,,,,00065,2023-10-18_13h34.18.794,vbt_B1_day3,2022.2.4,MacIntel,50,,,,,,down,0,4.462,,-0.516129032,0.080645161,1,0,0,0,44,44,108,1,excuus,images/br_excuus.png,images/cb_excuus.png,0,,,,,,,,,,,,,,,,,,,,,,
,,,,,00065,2023-10-18_13h34.18.794,vbt_B1_day3,2022.2.4,MacIntel,50,,,,,,down,0,7.695,,-0.605890603,0.212482468,1,0,0,0,45,45,199,1,beseffen,images/br_beseffen.png,images/cb_beseffen.png,0,,,,,,,,,,,,,,,,,,,,,,
,,,,,00065,2023-10-18_13h34.18.794,vbt_B1_day3,2022.2.4,MacIntel,50,,,,,,down,0,5.178,,-0.503506311,0.227910238,1,0,0,0,46,46,195,1,middelen,images/br_middelen.png,images/cb_middelen.png,0,,,,,,,,,,,,,,,,,,,,,,
,,,,,00065,2023-10-18_13h34.18.794,vbt_B1_day3,2022.2.4,MacIntel,50,,,,,,down,0,4.311,,-0.563814867,0.180224404,1,0,0,0,47,47,1,1,zaal,images/br_zaal.png,images/cb_zaal.png,0,,,,,,,,,,,,,,,,,,,,,,
,,,,,00065,2023-10-18_13h34.18.794,vbt_B1_day3,2022.2.4,MacIntel,50,,,,,,down,0,4.494,,-0.62973352,0.133941094,1,0,0,0,48,48,111,1,ticket,images/br_ticket.png,images/cb_ticket.png,0,,,,,,,,,,,,,,,,,,,,,,
,,,,,00065,2023-10-18_13h34.18.794,vbt_B1_day3,2022.2.4,MacIntel,50,,,,,,down,0,6.012,,-0.589060309,0.055399719,1,0,0,0,49,49,80,1,kanjer,images/br_kanjer.png,images/cb_kanjer.png,0,,,,,,,,,,,,,,,,,,,,,,
,,,,,00065,2023-10-18_13h34.18.794,vbt_B1_day3,2022.2.4,MacIntel,50,,,,,,down,0,6.194,,-0.619915849,0.063814867,1,0,0,0,50,50,23,1,zout,images/br_zout.png,images/cb_zout.png,1,Zout,,,,,,,,,,,,,,,,,,,,,
,,,,,00065,2023-10-18_13h34.18.794,vbt_B1_day3,2022.2.4,MacIntel,50,,,,,,down,0,1.474,,-0.553997195,0.149368864,1,0,0,0,51,51,32,1,palm,images/br_palm.png,images/cb_palm.png,0,,,,,,,,,,,,,,,,,,,,,,
,,,,,00065,2023-10-18_13h34.18.794,vbt_B1_day3,2022.2.4,MacIntel,50,,,,,,down,0,3.928,,-0.656381487,0.028751753,1,0,0,0,52,52,61,1,groen,images/br_groen.png,images/cb_groen.png,1,Groen,,,,,,,,,,,,,,,,,,,,,
,,,,,00065,2023-10-18_13h34.18.794,vbt_B1_day3,2022.2.4,MacIntel,50,,,,,,down,0,2.453,,-0.643758766,0.013323983,1,0,0,0,53,53,54,1,gebit,images/br_gebit.png,images/cb_gebit.png,0,,,,,,,,,,,,,,,,,,,,,,
,,,,,00065,2023-10-18_13h34.18.794,vbt_B1_day3,2022.2.4,MacIntel,50,,,,,,down,0,1.996,,0.546984572,-0.147966339,1,0,0,0,54,54,78,1,leren,images/br_leren.png,images/cb_leren.png,0,,,,,,,,,,,,,,,,,,,,,,
,,,,,00065,2023-10-18_13h34.18.794,vbt_B1_day3,2022.2.4,MacIntel,50,,,,,,down,0,4.478,,-0.646563815,-0.002103787,1,0,0,0,55,55,139,1,stiekem,images/br_stiekem.png,images/cb_stiekem.png,0,,,,,,,,,,,,,,,,,,,,,,
,,,,,00065,2023-10-18_13h34.18.794,vbt_B1_day3,2022.2.4,MacIntel,50,,,,,,down,0,7.079,,-0.618513324,-0.002103787,1,0,0,0,56,56,163,1,schuilen,images/br_schuilen.png,images/cb_schuilen.png,0,,,,,,,,,,,,,,,,,,,,,,
,,,,,00065,2023-10-18_13h34.18.794,vbt_B1_day3,2022.2.4,MacIntel,50,,,,,,down,0,2.795,,-0.59887798,0.03997195,1,0,0,0,57,57,115,1,kleren,images/br_kleren.png,images/cb_kleren.png,0,,,,,,,,,,,,,,,,,,,,,,
,,,,,00065,2023-10-18_13h34.18.794,vbt_B1_day3,2022.2.4,MacIntel,50,,,,,,down,0,5.928,,-0.605890603,0.076437588,1,0,0,0,58,58,113,1,koppen,images/br_koppen.png,images/cb_koppen.png,0,,,,,,,,,,,,,,,,,,,,,,
,,,,,00065,2023-10-18_13h34.18.794,vbt_B1_day3,2022.2.4,MacIntel,50,,,,,,down,0,1.478,,-0.569424965,0.049789621,1,0,0,0,59,59,132,1,grappen,images/br_grappen.png,images/cb_grappen.png,0,,,,,,,,,,,,,,,,,,,,,,
,,,,,00065,2023-10-18_13h34.18.794,vbt_B1_day3,2022.2.4,MacIntel,50,,,,,,down,0,2.379,,-0.650771388,0.097475456,1,0,0,0,60,60,72,1,strak,images/br_strak.png,images/cb_strak.png,0,,,,,,,,,,,,,,,,,,,,,,
,,,,,00065,2023-10-18_13h34.18.794,vbt_B1_day3,2022.2.4,MacIntel,50,,,,,,down,0,11.111,,-0.591865358,0.023141655,1,0,0,0,61,61,90,1,geluid,images/br_geluid.png,images/cb_geluid.png,0,,,,,,,,,,,,,,,,,,,,,,
,,,,,00065,2023-10-18_13h34.18.794,vbt_B1_day3,2022.2.4,MacIntel,50,,,,,,down,0,6.462,,-0.594670407,0.049789621,1,0,0,0,62,62,63,1,flirt,images/br_flirt.png,images/cb_flirt.png,1,Flirt,,,,,,,,,,,,,,,,,,,,,
,,,,,00065,2023-10-18_13h34.18.794,vbt_B1_day3,2022.2.4,MacIntel,50,,,,,,down,0,10.902,,-0.563814867,0.016129032,1,0,0,0,63,63,167,1,eenhoorn,images/br_eenhoorn.png,images/cb_eenhoorn.png,0,,,,,,,,,,,,,,,,,,,,,,
,,,,,00065,2023-10-18_13h34.18.794,vbt_B1_day3,2022.2.4,MacIntel,50,,,,,,down,0,3.229,,-0.610098177,0.020336606,1,0,0,0,64,64,166,1,strikken,images/br_strikken.png,images/cb_strikken.png,0,,,,,,,,,,,,,,,,,,,,,,
,,,,,00065,2023-10-18_13h34.18.794,vbt_B1_day3,2022.2.4,MacIntel,50,,,,,,down,0,6.862,,-0.562412342,0.027349229,1,0,0,0,65,65,185,1,mijnheer,images/br_mijnheer.png,images/cb_mijnheer.png,0,,,,,,,,,,,,,,,,,,,,,,
,,,,,00065,2023-10-18_13h34.18.794,vbt_B1_day3,2022.2.4,MacIntel,50,,,,,,down,0,3.028,,-0.624123422,0.013323983,1,0,0,0,66,66,11,1,mode,images/br_mode.png,images/cb_mode.png,0,,,,,,,,,,,,,,,,,,,,,,
,,,,,00065,2023-10-18_13h34.18.794,vbt_B1_day3,2022.2.4,MacIntel,50,,,,,,down,0,4.746,,-0.584852735,0.018934081,1,0,0,0,67,67,93,1,waarop,images/br_waarop.png,images/cb_waarop.png,0,,,,,,,,,,,,,,,,,,,,,,
,,,,,00065,2023-10-18_13h34.18.794,vbt_B1_day3,2022.2.4,MacIntel,50,,,,,,down,0,4.496,,-0.584852735,-0.025946704,1,0,0,0,68,68,192,1,schaamte,images/br_schaamte.png,images/cb_schaamte.png,0,,,,,,,,,,,,,,,,,,,,,,
,,,,,00065,2023-10-18_13h34.18.794,vbt_B1_day3,2022.2.4,MacIntel,50,,,,,,down,0,3.412,,-0.656381487,-0.034361851,1,0,0,0,69,69,91,1,gezond,images/br_gezond.png,images/cb_gezond.png,0,,,,,,,,,,,,,,,,,,,,,,
,,,,,00065,2023-10-18_13h34.18.794,vbt_B1_day3,2022.2.4,MacIntel,50,,,,,,down,0,1.761,,-0.619915849,0.03997195,1,0,0,0,70,70,148,1,smullen,images/br_smullen.png,images/cb_smullen.png,0,,,,,,,,,,,,,,,,,,,,,,
,,,,,00065,2023-10-18_13h34.18.794,vbt_B1_day3,2022.2.4,MacIntel,50,,,,,,down,0,2.929,,-0.610098177,-0.007713885,1,0,0,0,71,71,144,1,eetlust,images/br_eetlust.png,images/cb_eetlust.png,0,,,,,,,,,,,,,,,,,,,,,,
,,,,,00065,2023-10-18_13h34.18.794,vbt_B1_day3,2022.2.4,MacIntel,50,,,,,,down,0,1.095,,-0.573632539,0.00911641,1,0,0,0,72,72,120,1,klimmen,images/br_klimmen.png,images/cb_klimmen.png,0,,,,,,,,,,,,,,,,,,,,,,
,,,,,00065,2023-10-18_13h34.18.794,vbt_B1_day3,2022.2.4,MacIntel,50,,,,,,down,0,2.078,,-0.589060309,-0.00631136,1,0,0,0,73,73,20,1,site,images/br_site.png,images/cb_site.png,1,Site,,,,,,,,,,,,,,,,,,,,,
,,,,,00065,2023-10-18_13h34.18.794,vbt_B1_day3,2022.2.4,MacIntel,50,,,,,,down,0,6.054,,-0.5371669,-0.002103787,1,0,0,0,74,74,136,1,waarbij,images/br_waarbij.png,images/cb_waarbij.png,0,,,,,,,,,,,,,,,,,,,,,,
,,,,,00065,2023-10-18_13h34.18.794,vbt_B1_day3,2022.2.4,MacIntel,50,,,,,,down,0,3.262,,-0.601683029,-0.051192146,1,0,0,0,75,75,46,1,jagen,images/br_jagen.png,images/cb_jagen.png,0,,,,,,,,,,,,,,,,,,,,,,
,,,,,00065,2023-10-18_13h34.18.794,vbt_B1_day3,2022.2.4,MacIntel,50,,,,,,down,0,2.977,,-0.551192146,-0.046984572,1,0,0,0,76,76,175,1,heengaan,images/br_heengaan.png,images/cb_heengaan.png,0,,,,,,,,,,,,,,,,,,,,,,
,,,,,00065,2023-10-18_13h34.18.794,vbt_B1_day3,2022.2.4,MacIntel,50,,,,,,down,0,6.295,,-0.559607293,-0.05259467,1,0,0,0,77,77,156,1,rechten,images/br_rechten.png,images/cb_rechten.png,0,,,,,,,,,,,,,,,,,,,,,,
,,,,,00065,2023-10-18_13h34.18.794,vbt_B1_day3,2022.2.4,MacIntel,50,,,,,,down,0,5.729,,-0.591865358,-0.061009818,1,0,0,0,78,78,183,1,getuigen,images/br_getuigen.png,images/cb_getuigen.png,1,Getuigen,,,,,,,,,,,,,,,,,,,,,
,,,,,00065,2023-10-18_13h34.18.794,vbt_B1_day3,2022.2.4,MacIntel,50,,,,,,down,0,6.661,,-0.591865358,-0.080645161,1,0,0,0,79,79,142,1,snuiven,images/br_snuiven.png,images/cb_snuiven.png,1,Snuiven,,,,,,,,,,,,,,,,,,,,,
,,,,,00065,2023-10-18_13h34.18.794,vbt_B1_day3,2022.2.4,MacIntel,50,,,,,,down,0,2.4,,0.532959327,-0.041374474,1,0,0,0,80,80,73,1,volop,images/br_volop.png,images/cb_volop.png,0,,,,,,,,,,,,,,,,,,,,,,
,,,,,00065,2023-10-18_13h34.18.794,vbt_B1_day3,2022.2.4,MacIntel,50,,,,,,down,0,3.962,,0.453015428,-0.051192146,1,0,0,0,81,81,76,1,afval,images/br_afval.png,images/cb_afval.png,0,,,,,,,,,,,,,,,,,,,,,,
,,,,,00065,2023-10-18_13h34.18.794,vbt_B1_day3,2022.2.4,MacIntel,50,,,,,,down,0,4.929,,0.483870968,-0.097475456,1,0,0,0,82,82,168,1,bisschop,images/br_bisschop.png,images/cb_bisschop.png,0,,,,,,,,,,,,,,,,,,,,,,
,,,,,00065,2023-10-18_13h34.18.794,vbt_B1_day3,2022.2.4,MacIntel,50,,,,,,down,0,2.212,,-0.582047686,-0.124123422,1,0,0,0,83,83,49,1,laken,images/br_laken.png,images/cb_laken.png,0,,,,,,,,,,,,,,,,,,,,,,
,,,,,00065,2023-10-18_13h34.18.794,vbt_B1_day3,2022.2.4,MacIntel,50,,,,,,down,0,4.713,,-0.451612903,-0.007713885,1,0,0,0,84,84,140,1,blijven,images/br_blijven.png,images/cb_blijven.png,1,Blijven,,,,,,,,,,,,,,,,,,,,,
,,,,,00065,2023-10-18_13h34.18.794,vbt_B1_day3,2022.2.4,MacIntel,50,,,,,,down,0,2.056,,-0.584852735,-0.077840112,1,0,0,0,85,85,5,1,blad,images/br_blad.png,images/cb_blad.png,0,,,,,,,,,,,,,,,,,,,,,,
,,,,,00065,2023-10-18_13h34.18.794,vbt_B1_day3,2022.2.4,MacIntel,50,,,,,,down,0,9.145,,-0.46002805,0.090462833,1,0,0,0,86,86,123,1,hiervan,images/br_hiervan.png,images/cb_hiervan.png,0,,,,,,,,,,,,,,,,,,,,,,
,,,,,00065,2023-10-18_13h34.18.794,vbt_B1_day3,2022.2.4,MacIntel,50,,,,,,down,0,4.196,,-0.575035063,0.002103787,1,0,0,0,87,87,181,1,toegeven,images/br_toegeven.png,images/cb_toegeven.png,1,Toegeven,,,,,,,,,,,,,,,,,,,,,
,,,,,00065,2023-10-18_13h34.18.794,vbt_B1_day3,2022.2.4,MacIntel,50,,,,,,down,0,2.605,,-0.601683029,-0.028751753,1,0,0,0,88,88,30,1,uien,images/br_uien.png,images/cb_uien.png,0,,,,,,,,,,,,,,,,,,,,,,
,,,,,00065,2023-10-18_13h34.18.794,vbt_B1_day3,2022.2.4,MacIntel,50,,,,,,down,0,2.496,,-0.556802244,-0.051192146,1,0,0,0,89,89,45,1,piste,images/br_piste.png,images/cb_piste.png,0,,,,,,,,,,,,,,,,,,,,,,
,,,,,00065,2023-10-18_13h34.18.794,vbt_B1_day3,2022.2.4,MacIntel,50,,,,,,down,0,3.395,,-0.590462833,-0.132538569,1,0,0,0,90,90,52,1,wagon,images/br_wagon.png,images/cb_wagon.png,0,,,,,,,,,,,,,,,,,,,,,,
,,,,,00065,2023-10-18_13h34.18.794,vbt_B1_day3,2022.2.4,MacIntel,50,,,,,,down,0,5.928,,-0.525946704,-0.079242637,1,0,0,0,91,91,129,1,verhaal,images/br_verhaal.png,images/cb_verhaal.png,0,,,,,,,,,,,,,,,,,,,,,,
,,,,,00065,2023-10-18_13h34.18.794,vbt_B1_day3,2022.2.4,MacIntel,50,,,,,,down,0,1.628,,-0.548387097,-0.059607293,1,0,0,0,92,92,34,1,vorm,images/br_vorm.png,images/cb_vorm.png,0,,,,,,,,,,,,,,,,,,,,,,
,,,,,00065,2023-10-18_13h34.18.794,vbt_B1_day3,2022.2.4,MacIntel,50,,,,,,down,0,2.946,,-0.5371669,-0.112903226,1,0,0,0,93,93,68,1,schat,images/br_schat.png,images/cb_schat.png,0,,,,,,,,,,,,,,,,,,,,,,
,,,,,00065,2023-10-18_13h34.18.794,vbt_B1_day3,2022.2.4,MacIntel,50,,,,,,down,0,2.895,,-0.605890603,-0.065217391,1,0,0,0,94,94,22,1,stof,images/br_stof.png,images/cb_stof.png,1,Stof,,,,,,,,,,,,,,,,,,,,,
,,,,,00065,2023-10-18_13h34.18.794,vbt_B1_day3,2022.2.4,MacIntel,50,,,,,,down,0,6.169,,-0.617110799,-0.066619916,1,0,0,0,95,95,189,1,aanraden,images/br_aanraden.png,images/cb_aanraden.png,0,,,,,,,,,,,,,,,,,,,,,,
,,,,,00065,2023-10-18_13h34.18.794,vbt_B1_day3,2022.2.4,MacIntel,50,,,,,,down,0,2.962,,-0.531556802,-0.065217391,1,0,0,0,96,96,42,1,bleek,images/br_bleek.png,images/cb_bleek.png,0,,,,,,,,,,,,,,,,,,,,,,
,,,,,00065,2023-10-18_13h34.18.794,vbt_B1_day3,2022.2.4,MacIntel,50,,,,,,down,0,2.846,,0.443197756,-0.117110799,1,0,0,0,97,97,96,1,slagen,images/br_slagen.png,images/cb_slagen.png,0,,,,,,,,,,,,,,,,,,,,,,
,,,,,00065,2023-10-18_13h34.18.794,vbt_B1_day3,2022.2.4,MacIntel,50,,,,,,down,0,3.378,,0.499298738,-0.035764376,1,0,0,0,98,98,31,1,poes,images/br_poes.png,images/cb_poes.png,0,,,,,,,,,,,,,,,,,,,,,,
,,,,,00065,2023-10-18_13h34.18.794,vbt_B1_day3,2022.2.4,MacIntel,50,,,,,,down,0,2.912,,-0.604488079,-0.030154278,1,0,0,0,99,99,112,1,lukken,images/br_lukken.png,images/cb_lukken.png,0,,,,,,,,,,,,,,,,,,,,,,
,,,,,00065,2023-10-18_13h34.18.794,vbt_B1_day3,2022.2.4,MacIntel,50,,,,,,down,0,5.761,,0.458625526,-0.041374474,1,0,0,0,100,100,171,1,aarzelen,images/br_aarzelen.png,images/cb_aarzelen.png,0,,,,,,,,,,,,,,,,,,,,,,
,,,,,00065,2023-10-18_13h34.18.794,vbt_B1_day3,2022.2.4,MacIntel,50,,,,,,down,0,8.229,,-0.572230014,0.094670407,1,0,0,0,101,101,141,1,knielen,images/br_knielen.png,images/cb_knielen.png,1,Knielen,,,,,,,,,,,,,,,,,,,,,
,,,,,00065,2023-10-18_13h34.18.794,vbt_B1_day3,2022.2.4,MacIntel,50,,,,,,down,0,11.187,,-0.438990182,0.070827489,1,0,0,0,102,102,104,1,zweven,images/br_zweven.png,images/cb_zweven.png,0,,,,,,,,,,,,,,,,,,,,,,
,,,,,00065,2023-10-18_13h34.18.794,vbt_B1_day3,2022.2.4,MacIntel,50,,,,,,down,0,2.745,,-0.52454418,0.003506311,1,0,0,0,103,103,75,1,snoep,images/br_snoep.png,images/cb_snoep.png,0,,,,,,,,,,,,,,,,,,,,,,
,,,,,00065,2023-10-18_13h34.18.794,vbt_B1_day3,2022.2.4,MacIntel,50,,,,,,down,0,6.028,,-0.513323983,-0.066619916,1,0,0,0,104,104,143,1,hechten,images/br_hechten.png,images/cb_hechten.png,1,Hechten,,,,,,,,,,,,,,,,,,,,,
,,,,,00065,2023-10-18_13h34.18.794,vbt_B1_day3,2022.2.4,MacIntel,50,,,,,,down,0,5.486,,-0.580645161,-0.00631136,1,0,0,0,105,105,194,1,driemaal,images/br_driemaal.png,images/cb_driemaal.png,0,,,,,,,,,,,,,,,,,,,,,,
,,,,,00065,2023-10-18_13h34.18.794,vbt_B1_day3,2022.2.4,MacIntel,50,,,,,,down,0,9.278,,-0.527349229,-0.082047686,1,0,0,0,106,106,191,1,opheffen,images/br_opheffen.png,images/cb_opheffen.png,0,,,,,,,,,,,,,,,,,,,,,,
,,,,,00065,2023-10-18_13h34.18.794,vbt_B1_day3,2022.2.4,MacIntel,50,,,,,,down,0,2.313,,-0.52173913,0.121318373,1,0,0,0,107,107,71,1,bever,images/br_bever.png,images/cb_bever.png,0,,,,,,,,,,,,,,,,,,,,,,
,,,,,00065,2023-10-18_13h34.18.794,vbt_B1_day3,2022.2.4,MacIntel,50,,,,,,down,0,1.978,,-0.49368864,-0.042776999,1,0,0,0,108,108,81,1,dubbel,images/br_dubbel.png,images/cb_dubbel.png,0,,,,,,,,,,,,,,,,,,,,,,
,,,,,00065,2023-10-18_13h34.18.794,vbt_B1_day3,2022.2.4,MacIntel,50,,,,,,down,0,7.128,,-0.640953717,-0.080645161,1,0,0,0,109,109,196,1,nakijken,images/br_nakijken.png,images/cb_nakijken.png,0,,,,,,,,,,,,,,,,,,,,,,
,,,,,00065,2023-10-18_13h34.18.794,vbt_B1_day3,2022.2.4,MacIntel,50,,,,,,down,0,15.677,,0.454417952,-0.046984572,1,0,0,0,110,110,162,1,uitdelen,images/br_uitdelen.png,images/cb_uitdelen.png,0,,,,,,,,,,,,,,,,,,,,,,
,,,,,00065,2023-10-18_13h34.18.794,vbt_B1_day3,2022.2.4,MacIntel,50,,,,,,down,0,1.713,,-0.622720898,-0.017531557,1,0,0,0,111,111,17,1,taal,images/br_taal.png,images/cb_taal.png,0,,,,,,,,,,,,,,,,,,,,,,
,,,,,00065,2023-10-18_13h34.18.794,vbt_B1_day3,2022.2.4,MacIntel,50,,,,,,down,0,3.528,,-0.659186536,0.020336606,1,0,0,0,112,112,170,1,schatten,images/br_schatten.png,images/cb_schatten.png,0,,,,,,,,,,,,,,,,,,,,,,
,,,,,00065,2023-10-18_13h34.18.794,vbt_B1_day3,2022.2.4,MacIntel,50,,,,,,down,0,3.512,,-0.607293128,-0.02454418,1,0,0,0,113,113,188,1,strekken,images/br_strekken.png,images/cb_strekken.png,0,,,,,,,,,,,,,,,,,,,,,,
,,,,,00065,2023-10-18_13h34.18.794,vbt_B1_day3,2022.2.4,MacIntel,50,,,,,,down,0,5.544,,-0.580645161,0.017531557,1,0,0,0,114,114,44,1,flits,images/br_flits.png,images/cb_flits.png,0,,,,,,,,,,,,,,,,,,,,,,
,,,,,00065,2023-10-18_13h34.18.794,vbt_B1_day3,2022.2.4,MacIntel,50,,,,,,down,0,0.678,,-0.50631136,0.000701262,1,0,0,0,115,115,84,1,lokken,images/br_lokken.png,images/cb_lokken.png,0,,,,,,,,,,,,,,,,,,,,,,
,,,,,00065,2023-10-18_13h34.18.794,vbt_B1_day3,2022.2.4,MacIntel,50,,,,,,down,0,8.178,,-0.673211781,-0.100280505,1,0,0,0,116,116,60,1,jasje,images/br_jasje.png,images/cb_jasje.png,1,Jasje,,,,,,,,,,,,,,,,,,,,,
,,,,,00065,2023-10-18_13h34.18.794,vbt_B1_day3,2022.2.4,MacIntel,50,,,,,,down,0,1.968,,-0.673211781,-0.149368864,1,0,0,0,117,117,55,1,praat,images/br_praat.png,images/cb_praat.png,0,,,,,,,,,,,,,,,,,,,,,,
,,,,,00065,2023-10-18_13h34.18.794,vbt_B1_day3,2022.2.4,MacIntel,50,,,,,,down,0,2.713,,-0.640953717,-0.065217391,1,0,0,0,118,118,186,1,voorraad,images/br_voorraad.png,images/cb_voorraad.png,0,,,,,,,,,,,,,,,,,,,,,,
,,,,,00065,2023-10-18_13h34.18.794,vbt_B1_day3,2022.2.4,MacIntel,50,,,,,,down,0,5.178,,-0.636746143,-0.157784011,1,0,0,0,119,119,121,1,twijfel,images/br_twijfel.png,images/cb_twijfel.png,0,,,,,,,,,,,,,,,,,,,,,,
,,,,,00065,2023-10-18_13h34.18.794,vbt_B1_day3,2022.2.4,MacIntel,50,,,,,,down,0,6.61,,-0.535764376,0.007713885,1,0,0,0,120,120,4,1,moes,images/br_moes.png,images/cb_moes.png,0,,,,,,,,,,,,,,,,,,,,,,
,,,,,00065,2023-10-18_13h34.18.794,vbt_B1_day3,2022.2.4,MacIntel,50,,,,,,down,0,1.829,,-0.559607293,-0.035764376,1,0,0,0,121,121,47,1,kabel,images/br_kabel.png,images/cb_kabel.png,0,,,,,,,,,,,,,,,,,,,,,,
,,,,,00065,2023-10-18_13h34.18.794,vbt_B1_day3,2022.2.4,MacIntel,50,,,,,,down,0,3.012,,-0.622720898,0.010518934,1,0,0,0,122,122,122,1,waarvan,images/br_waarvan.png,images/cb_waarvan.png,0,,,,,,,,,,,,,,,,,,,,,,
,,,,,00065,2023-10-18_13h34.18.794,vbt_B1_day3,2022.2.4,MacIntel,50,,,,,,down,0,2.379,,-0.624123422,-0.010518934,1,0,0,0,123,123,41,1,maken,images/br_maken.png,images/cb_maken.png,0,,,,,,,,,,,,,,,,,,,,,,
,,,,,00065,2023-10-18_13h34.18.794,vbt_B1_day3,2022.2.4,MacIntel,50,,,,,,down,0,2.829,,-0.558204769,-0.035764376,1,0,0,0,124,124,86,1,woning,images/br_woning.png,images/cb_woning.png,0,,,,,,,,,,,,,,,,,,,,,,
,,,,,00065,2023-10-18_13h34.18.794,vbt_B1_day3,2022.2.4,MacIntel,50,,,,,,down,0,2.796,,-0.582047686,0.010518934,1,0,0,0,125,125,67,1,zwart,images/br_zwart.png,images/cb_zwart.png,0,,,,,,,,,,,,,,,,,,,,,,
,,,,,00065,2023-10-18_13h34.18.794,vbt_B1_day3,2022.2.4,MacIntel,50,,,,,,down,0,10.311,,-0.604488079,-0.004908836,1,0,0,0,126,126,165,1,feestdag,images/br_feestdag.png,images/cb_feestdag.png,0,,,,,,,,,,,,,,,,,,,,,,
,,,,,00065,2023-10-18_13h34.18.794,vbt_B1_day3,2022.2.4,MacIntel,50,,,,,,down,0,2.329,,-0.632538569,-0.05259467,1,0,0,0,127,127,138,1,akkoord,images/br_akkoord.png,images/cb_akkoord.png,0,,,,,,,,,,,,,,,,,,,,,,
,,,,,00065,2023-10-18_13h34.18.794,vbt_B1_day3,2022.2.4,MacIntel,50,,,,,,down,0,3.345,,-0.605890603,-0.061009818,1,0,0,0,128,128,177,1,maaltijd,images/br_maaltijd.png,images/cb_maaltijd.png,0,,,,,,,,,,,,,,,,,,,,,,
,,,,,00065,2023-10-18_13h34.18.794,vbt_B1_day3,2022.2.4,MacIntel,50,,,,,,down,0,4.178,,-0.626928471,-0.0371669,1,0,0,0,129,129,15,1,soda,images/br_soda.png,images/cb_soda.png,0,,,,,,,,,,,,,,,,,,,,,,
,,,,,00065,2023-10-18_13h34.18.794,vbt_B1_day3,2022.2.4,MacIntel,50,,,,,,down,0,3.028,,-0.608695652,-0.065217391,1,0,0,0,130,130,116,1,besmet,images/br_besmet.png,images/cb_besmet.png,0,,,,,,,,,,,,,,,,,,,,,,
,,,,,00065,2023-10-18_13h34.18.794,vbt_B1_day3,2022.2.4,MacIntel,50,,,,,,down,0,4.012,,-0.657784011,-0.044179523,1,0,0,0,131,131,179,1,woestijn,images/br_woestijn.png,images/cb_woestijn.png,0,,,,,,,,,,,,,,,,,,,,,,
,,,,,00065,2023-10-18_13h34.18.794,vbt_B1_day3,2022.2.4,MacIntel,50,,,,,,down,0,2.928,,-0.553997195,-0.020336606,1,0,0,0,132,132,66,1,lever,images/br_lever.png,images/cb_lever.png,0,,,,,,,,,,,,,,,,,,,,,,
,,,,,00065,2023-10-18_13h34.18.794,vbt_B1_day3,2022.2.4,MacIntel,50,,,,,,down,0,5.763,,-0.573632539,-0.023141655,1,0,0,0,133,133,97,1,loyaal,images/br_loyaal.png,images/cb_loyaal.png,0,,,,,,,,,,,,,,,,,,,,,,
,,,,,00065,2023-10-18_13h34.18.794,vbt_B1_day3,2022.2.4,MacIntel,50,,,,,,down,0,2.578,,-0.593267882,-0.143758766,1,0,0,0,134,134,53,1,baron,images/br_baron.png,images/cb_baron.png,0,,,,,,,,,,,,,,,,,,,,,,
,,,,,00065,2023-10-18_13h34.18.794,vbt_B1_day3,2022.2.4,MacIntel,50,,,,,,down,0,3.328,,-0.604488079,-0.105890603,1,0,0,0,135,135,107,1,maling,images/br_maling.png,images/cb_maling.png,0,,,,,,,,,,,,,,,,,,,,,,
,,,,,00065,2023-10-18_13h34.18.794,vbt_B1_day3,2022.2.4,MacIntel,50,,,,,,down,0,3.095,,-0.646563815,-0.038569425,1,0,0,0,136,136,187,1,opkijken,images/br_opkijken.png,images/cb_opkijken.png,0,,,,,,,,,,,,,,,,,,,,,,
,,,,,00065,2023-10-18_13h34.18.794,vbt_B1_day3,2022.2.4,MacIntel,50,,,,,,down,0,2.395,,-0.664796634,-0.032959327,1,0,0,0,137,137,87,1,toeval,images/br_toeval.png,images/cb_toeval.png,0,,,,,,,,,,,,,,,,,,,,,,
,,,,,00065,2023-10-18_13h34.18.794,vbt_B1_day3,2022.2.4,MacIntel,50,,,,,,down,0,3.629,,-0.549789621,-0.087657784,1,0,0,0,138,138,77,1,woede,images/br_woede.png,images/cb_woede.png,0,,,,,,,,,,,,,,,,,,,,,,
,,,,,00065,2023-10-18_13h34.18.794,vbt_B1_day3,2022.2.4,MacIntel,50,,,,,,down,0,4.195,,-0.546984572,0.059607293,1,0,0,0,139,139,69,1,waken,images/br_waken.png,images/cb_waken.png,0,,,,,,,,,,,,,,,,,,,,,,
,,,,,00065,2023-10-18_13h34.18.794,vbt_B1_day3,2022.2.4,MacIntel,50,,,,,,down,0,5.294,,-0.624123422,-0.062412342,1,0,0,0,140,140,172,1,weigeren,images/br_weigeren.png,images/cb_weigeren.png,0,,,,,,,,,,,,,,,,,,,,,,
,,,,,00065,2023-10-18_13h34.18.794,vbt_B1_day3,2022.2.4,MacIntel,50,,,,,,down,0,3.995,,-0.556802244,-0.080645161,1,0,0,0,141,141,190,1,goedkoop,images/br_goedkoop.png,images/cb_goedkoop.png,0,,,,,,,,,,,,,,,,,,,,,,
,,,,,00065,2023-10-18_13h34.18.794,vbt_B1_day3,2022.2.4,MacIntel,50,,,,,,down,0,4.545,,-0.640953717,-0.132538569,1,0,0,0,142,142,99,1,koffie,images/br_koffie.png,images/cb_koffie.png,0,,,,,,,,,,,,,,,,,,,,,,
,,,,,00065,2023-10-18_13h34.18.794,vbt_B1_day3,2022.2.4,MacIntel,50,,,,,,down,0,3.845,,-0.603085554,-0.136746143,1,0,0,0,143,143,155,1,gerucht,images/br_gerucht.png,images/cb_gerucht.png,0,,,,,,,,,,,,,,,,,,,,,,
,,,,,00065,2023-10-18_13h34.18.794,vbt_B1_day3,2022.2.4,MacIntel,50,,,,,,down,0,3.512,,-0.636746143,-0.089060309,1,0,0,0,144,144,173,1,apparaat,images/br_apparaat.png,images/cb_apparaat.png,0,,,,,,,,,,,,,,,,,,,,,,
,,,,,00065,2023-10-18_13h34.18.794,vbt_B1_day3,2022.2.4,MacIntel,50,,,,,,down,0,1.827,,-0.646563815,-0.062412342,1,0,0,0,145,145,83,1,mening,images/br_mening.png,images/cb_mening.png,0,,,,,,,,,,,,,,,,,,,,,,
,,,,,00065,2023-10-18_13h34.18.794,vbt_B1_day3,2022.2.4,MacIntel,50,,,,,,down,0,0.596,,-0.647966339,-0.038569425,1,0,0,0,146,146,6,1,diep,images/br_diep.png,images/cb_diep.png,0,,,,,,,,,,,,,,,,,,,,,,
,,,,,00065,2023-10-18_13h34.18.794,vbt_B1_day3,2022.2.4,MacIntel,50,,,,,,down,0,5.362,,-0.650771388,-0.027349229,1,0,0,0,147,147,133,1,seizoen,images/br_seizoen.png,images/cb_seizoen.png,0,,,,,,,,,,,,,,,,,,,,,,
,,,,,00065,2023-10-18_13h34.18.794,vbt_B1_day3,2022.2.4,MacIntel,50,,,,,,down,0,4.428,,-0.520336606,0.117110799,1,0,0,0,148,148,135,1,gedicht,images/br_gedicht.png,images/cb_gedicht.png,0,,,,,,,,,,,,,,,,,,,,,,
,,,,,00065,2023-10-18_13h34.18.794,vbt_B1_day3,2022.2.4,MacIntel,50,,,,,,down,0,8.011,,-0.497896213,-0.017531557,1,0,0,0,149,149,152,1,afnemen,images/br_afnemen.png,images/cb_afnemen.png,0,,,,,,,,,,,,,,,,,,,,,,
,,,,,00065,2023-10-18_13h34.18.794,vbt_B1_day3,2022.2.4,MacIntel,50,,,,,,down,0,1.43,,-0.553997195,0.080645161,1,0,0,0,150,150,137,1,trekker,images/br_trekker.png,images/cb_trekker.png,0,,,,,,,,,,,,,,,,,,,,,,
,,,,,00065,2023-10-18_13h34.18.794,vbt_B1_day3,2022.2.4,MacIntel,50,,,,,,down,0,4.128,,-0.527349229,0.121318373,1,0,0,0,151,151,95,1,vreten,images/br_vreten.png,images/cb_vreten.png,0,,,,,,,,,,,,,,,,,,,,,,
,,,,,00065,2023-10-18_13h34.18.794,vbt_B1_day3,2022.2.4,MacIntel,50,,,,,,down,0,9.196,,-0.58345021,0.02173913,1,0,0,0,152,152,118,1,vinger,images/br_vinger.png,images/cb_vinger.png,0,,,,,,,,,,,,,,,,,,,,,,
,,,,,00065,2023-10-18_13h34.18.794,vbt_B1_day3,2022.2.4,MacIntel,50,,,,,,down,0,1.629,,-0.587657784,-0.014726508,1,0,0,0,153,153,106,1,zingen,images/br_zingen.png,images/cb_zingen.png,0,,,,,,,,,,,,,,,,,,,,,,
,,,,,00065,2023-10-18_13h34.18.794,vbt_B1_day3,2022.2.4,MacIntel,50,,,,,,down,0,1.812,,-0.541374474,0.072230014,1,0,0,0,154,154,128,1,prikken,images/br_prikken.png,images/cb_prikken.png,0,,,,,,,,,,,,,,,,,,,,,,
,,,,,00065,2023-10-18_13h34.18.794,vbt_B1_day3,2022.2.4,MacIntel,50,,,,,,down,0,0.662,,-0.632538569,0.125525947,1,0,0,0,155,155,19,1,geit,images/br_geit.png,images/cb_geit.png,0,,,,,,,,,,,,,,,,,,,,,,
,,,,,00065,2023-10-18_13h34.18.794,vbt_B1_day3,2022.2.4,MacIntel,50,,,,,,down,0,3.261,,-0.632538569,0.035764376,1,0,0,0,156,156,3,1,mand,images/br_mand.png,images/cb_mand.png,0,,,,,,,,,,,,,,,,,,,,,,
,,,,,00065,2023-10-18_13h34.18.794,vbt_B1_day3,2022.2.4,MacIntel,50,,,,,,down,0,3.229,,-0.647966339,0.003506311,1,0,0,0,157,157,117,1,kennis,images/br_kennis.png,images/cb_kennis.png,0,,,,,,,,,,,,,,,,,,,,,,
,,,,,00065,2023-10-18_13h34.18.794,vbt_B1_day3,2022.2.4,MacIntel,50,,,,,,down,0,3.045,,-0.626928471,-0.004908836,1,0,0,0,158,158,151,1,aanzoek,images/br_aanzoek.png,images/cb_aanzoek.png,0,,,,,,,,,,,,,,,,,,,,,,
,,,,,00065,2023-10-18_13h34.18.794,vbt_B1_day3,2022.2.4,MacIntel,50,,,,,,down,0,4.078,,-0.625525947,-0.032959327,1,0,0,0,159,159,88,1,boeien,images/br_boeien.png,images/cb_boeien.png,0,,,,,,,,,,,,,,,,,,,,,,
,,,,,00065,2023-10-18_13h34.18.794,vbt_B1_day3,2022.2.4,MacIntel,50,,,,,,down,0,3.062,,-0.565217391,0.112903226,1,0,0,0,160,160,110,1,zuster,images/br_zuster.png,images/cb_zuster.png,0,,,,,,,,,,,,,,,,,,,,,,
,,,,,00065,2023-10-18_13h34.18.794,vbt_B1_day3,2022.2.4,MacIntel,50,,,,,,down,0,1.061,,-0.570827489,0.096072931,1,0,0,0,161,161,7,1,geld,images/br_geld.png,images/cb_geld.png,0,,,,,,,,,,,,,,,,,,,,,,
,,,,,00065,2023-10-18_13h34.18.794,vbt_B1_day3,2022.2.4,MacIntel,50,,,,,,down,0,3.678,,-0.577840112,0.101683029,1,0,0,0,162,162,14,1,rijp,images/br_rijp.png,images/cb_rijp.png,0,,,,,,,,,,,,,,,,,,,,,,
,,,,,00065,2023-10-18_13h34.18.794,vbt_B1_day3,2022.2.4,MacIntel,50,,,,,,down,0,0.128,,-0.605890603,0.104488079,1,0,0,0,163,163,13,1,kaal,images/br_kaal.png,images/cb_kaal.png,0,,,,,,,,,,,,,,,,,,,,,,
,,,,,00065,2023-10-18_13h34.18.794,vbt_B1_day3,2022.2.4,MacIntel,50,,,,,,down,0,5.346,,-0.608695652,0.107293128,1,0,0,0,164,164,92,1,geheim,images/br_geheim.png,images/cb_geheim.png,0,,,,,,,,,,,,,,,,,,,,,,
,,,,,00065,2023-10-18_13h34.18.794,vbt_B1_day3,2022.2.4,MacIntel,50,,,,,,down,0,1.779,,-0.621318373,0.108695652,1,0,0,0,165,165,124,1,bloeien,images/br_bloeien.png,images/cb_bloeien.png,0,,,,,,,,,,,,,,,,,,,,,,
,,,,,00065,2023-10-18_13h34.18.794,vbt_B1_day3,2022.2.4,MacIntel,50,,,,,,down,0,6.179,,-0.566619916,0.051192146,1,0,0,0,166,166,134,1,geliefd,images/br_geliefd.png,images/cb_geliefd.png,0,,,,,,,,,,,,,,,,,,,,,,
,,,,,00065,2023-10-18_13h34.18.794,vbt_B1_day3,2022.2.4,MacIntel,50,,,,,,down,0,4.429,,-0.64516129,-0.104488079,1,0,0,0,167,167,100,1,geduld,images/br_geduld.png,images/cb_geduld.png,1,Geduld,,,,,,,,,,,,,,,,,,,,,
,,,,,00065,2023-10-18_13h34.18.794,vbt_B1_day3,2022.2.4,MacIntel,50,,,,,,down,0,2.689,,-0.652173913,-0.112903226,1,0,0,0,168,168,74,1,graaf,images/br_graaf.png,images/cb_graaf.png,0,,,,,,,,,,,,,,,,,,,,,,
,,,,,00065,2023-10-18_13h34.18.794,vbt_B1_day3,2022.2.4,MacIntel,50,,,,,,down,0,3.812,,-0.666199158,-0.048387097,1,0,0,0,169,169,158,1,innemen,images/br_innemen.png,images/cb_innemen.png,0,,,,,,,,,,,,,,,,,,,,,,
,,,,,00065,2023-10-18_13h34.18.794,vbt_B1_day3,2022.2.4,MacIntel,50,,,,,,down,0,5.895,,-0.626928471,0.089060309,1,0,0,0,170,170,125,1,aanzien,images/br_aanzien.png,images/cb_aanzien.png,0,,,,,,,,,,,,,,,,,,,,,,
,,,,,00065,2023-10-18_13h34.18.794,vbt_B1_day3,2022.2.4,MacIntel,50,,,,,,down,0,4.645,,-0.570827489,-0.02454418,1,0,0,0,171,171,159,1,sufferd,images/br_sufferd.png,images/cb_sufferd.png,0,,,,,,,,,,,,,,,,,,,,,,
,,,,,00065,2023-10-18_13h34.18.794,vbt_B1_day3,2022.2.4,MacIntel,50,,,,,,down,0,2.645,,-0.615708275,-0.066619916,1,0,0,0,172,172,82,1,muziek,images/br_muziek.png,images/cb_muziek.png,0,,,,,,,,,,,,,,,,,,,,,,
,,,,,00065,2023-10-18_13h34.18.794,vbt_B1_day3,2022.2.4,MacIntel,50,,,,,,down,0,1.111,,-0.611500701,-0.010518934,1,0,0,0,173,173,2,1,jaar,images/br_jaar.png,images/cb_jaar.png,0,,,,,,,,,,,,,,,,,,,,,,
,,,,,00065,2023-10-18_13h34.18.794,vbt_B1_day3,2022.2.4,MacIntel,50,,,,,,down,0,2.328,,-0.656381487,-0.042776999,1,0,0,0,174,174,150,1,gegeven,images/br_gegeven.png,images/cb_gegeven.png,0,,,,,,,,,,,,,,,,,,,,,,
,,,,,00065,2023-10-18_13h34.18.794,vbt_B1_day3,2022.2.4,MacIntel,50,,,,,,down,0,6.762,,-0.605890603,0.139551192,1,0,0,0,175,175,198,1,bedoelen,images/br_bedoelen.png,images/cb_bedoelen.png,0,,,,,,,,,,,,,,,,,,,,,,
,,,,,00065,2023-10-18_13h34.18.794,vbt_B1_day3,2022.2.4,MacIntel,50,,,,,,down,0,7.928,,-0.576437588,-0.02173913,1,0,0,0,176,176,157,1,uitlaat,images/br_uitlaat.png,images/cb_uitlaat.png,0,,,,,,,,,,,,,,,,,,,,,,
,,,,,00065,2023-10-18_13h34.18.794,vbt_B1_day3,2022.2.4,MacIntel,50,,,,,,down,0,1.929,,-0.523141655,0.133941094,1,0,0,0,177,177,64,1,wegen,images/br_wegen.png,images/cb_wegen.png,0,,,,,,,,,,,,,,,,,,,,,,
,,,,,00065,2023-10-18_13h34.18.794,vbt_B1_day3,2022.2.4,MacIntel,50,,,,,,down,0,1.196,,-0.454417952,0.089060309,1,0,0,0,178,178,114,1,vullen,images/br_vullen.png,images/cb_vullen.png,0,,,,,,,,,,,,,,,,,,,,,,
,,,,,00065,2023-10-18_13h34.18.794,vbt_B1_day3,2022.2.4,MacIntel,50,,,,,,down,0,1.828,,-0.542776999,0.018934081,1,0,0,0,179,179,59,1,kring,images/br_kring.png,images/cb_kring.png,0,,,,,,,,,,,,,,,,,,,,,,
,,,,,00065,2023-10-18_13h34.18.794,vbt_B1_day3,2022.2.4,MacIntel,50,,,,,,down,0,4.195,,-0.301542777,0.110098177,1,0,0,0,180,180,105,1,wijlen,images/br_wijlen.png,images/cb_wijlen.png,0,,,,,,,,,,,,,,,,,,,,,,
,,,,,00065,2023-10-18_13h34.18.794,vbt_B1_day3,2022.2.4,MacIntel,50,,,,,,down,0,0.612,,-0.50911641,0.236325386,1,0,0,0,181,181,39,1,laag,images/br_laag.png,images/cb_laag.png,0,,,,,,,,,,,,,,,,,,,,,,
,,,,,00065,2023-10-18_13h34.18.794,vbt_B1_day3,2022.2.4,MacIntel,50,,,,,,down,0,5.328,,-0.225806452,0.234922861,1,0,0,0,182,182,153,1,vervoer,images/br_vervoer.png,images/cb_vervoer.png,0,,,,,,,,,,,,,,,,,,,,,,
,,,,,00065,2023-10-18_13h34.18.794,vbt_B1_day3,2022.2.4,MacIntel,50,,,,,,down,0,1.445,,-0.544179523,0.093267882,1,0,0,0,183,183,38,1,baai,images/br_baai.png,images/cb_baai.png,0,,,,,,,,,,,,,,,,,,,,,,
,,,,,00065,2023-10-18_13h34.18.794,vbt_B1_day3,2022.2.4,MacIntel,50,,,,,,down,0,10.977,,-0.469845722,0.117110799,1,0,0,0,184,184,70,1,ijdel,images/br_ijdel.png,images/cb_ijdel.png,0,,,,,,,,,,,,,,,,,,,,,,
,,,,,00065,2023-10-18_13h34.18.794,vbt_B1_day3,2022.2.4,MacIntel,50,,,,,,down,0,6.596,,-0.559607293,0.218092567,1,0,0,0,185,185,178,1,huisdier,images/br_huisdier.png,images/cb_huisdier.png,0,,,,,,,,,,,,,,,,,,,,,,
,,,,,00065,2023-10-18_13h34.18.794,vbt_B1_day3,2022.2.4,MacIntel,50,,,,,,down,0,2.53,,-0.575035063,0.08345021,1,0,0,0,186,186,62,1,knaap,images/br_knaap.png,images/cb_knaap.png,1,Knaap,,,,,,,,,,,,,,,,,,,,,
,,,,,00065,2023-10-18_13h34.18.794,vbt_B1_day3,2022.2.4,MacIntel,50,,,,,,down,0,0.055,,-0.553997195,0.132538569,1,0,0,0,187,187,10,1,leek,images/br_leek.png,images/cb_leek.png,0,,,,,,,,,,,,,,,,,,,,,,
,,,,,00065,2023-10-18_13h34.18.794,vbt_B1_day3,2022.2.4,MacIntel,50,,,,,,down,0,4.661,,-0.601683029,0.053997195,1,0,0,0,188,188,51,1,samen,images/br_samen.png,images/cb_samen.png,0,,,,,,,,,,,,,,,,,,,,,,
,,,,,00065,2023-10-18_13h34.18.794,vbt_B1_day3,2022.2.4,MacIntel,50,,,,,,down,0,2.111,,-0.594670407,0.100280505,1,0,0,0,189,189,79,1,nodig,images/br_nodig.png,images/cb_nodig.png,0,,,,,,,,,,,,,,,,,,,,,,
,,,,,00065,2023-10-18_13h34.18.794,vbt_B1_day3,2022.2.4,MacIntel,50,,,,,,down,0,0.929,,-0.590462833,0.011921459,1,0,0,0,190,190,56,1,traag,images/br_traag.png,images/cb_traag.png,0,,,,,,,,,,,,,,,,,,,,,,
,,,,,00065,2023-10-18_13h34.18.794,vbt_B1_day3,2022.2.4,MacIntel,50,,,,,,down,0,2.012,,-0.657784011,0.061009818,1,0,0,0,191,191,27,1,dans,images/br_dans.png,images/cb_dans.png,0,,,,,,,,,,,,,,,,,,,,,,
,,,,,00065,2023-10-18_13h34.18.794,vbt_B1_day3,2022.2.4,MacIntel,50,,,,,,down,0,3.696,,-0.631136045,0.007713885,1,0,0,0,192,192,119,1,liefje,images/br_liefje.png,images/cb_liefje.png,0,,,,,,,,,,,,,,,,,,,,,,
,,,,,00065,2023-10-18_13h34.18.794,vbt_B1_day3,2022.2.4,MacIntel,50,,,,,,down,0,6.512,,-0.653576438,-0.097475456,1,0,0,0,193,193,130,1,keihard,images/br_keihard.png,images/cb_keihard.png,0,,,,,,,,,,,,,,,,,,,,,,
,,,,,00065,2023-10-18_13h34.18.794,vbt_B1_day3,2022.2.4,MacIntel,50,,,,,,down,0,2.495,,-0.626928471,0.142356241,1,0,0,0,194,194,50,1,stoom,images/br_stoom.png,images/cb_stoom.png,0,,,,,,,,,,,,,,,,,,,,,,
,,,,,00065,2023-10-18_13h34.18.794,vbt_B1_day3,2022.2.4,MacIntel,50,,,,,,down,0,4.612,,-0.591865358,-0.000701262,1,0,0,0,195,195,160,1,daarheen,images/br_daarheen.png,images/cb_daarheen.png,0,,,,,,,,,,,,,,,,,,,,,,
,,,,,00065,2023-10-18_13h34.18.794,vbt_B1_day3,2022.2.4,MacIntel,50,,,,,,down,0,1.496,,-0.617110799,0.08345021,1,0,0,0,196,196,65,1,parel,images/br_parel.png,images/cb_parel.png,0,,,,,,,,,,,,,,,,,,,,,,
,,,,,00065,2023-10-18_13h34.18.794,vbt_B1_day3,2022.2.4,MacIntel,50,,,,,,down,0,1.945,,-0.563814867,0.017531557,1,0,0,0,197,197,24,1,jurk,images/br_jurk.png,images/cb_jurk.png,0,,,,,,,,,,,,,,,,,,,,,,
,,,,,00065,2023-10-18_13h34.18.794,vbt_B1_day3,2022.2.4,MacIntel,50,,,,,,down,0,4.279,,-0.690042076,0.002103787,1,0,0,0,198,198,180,1,openbaar,images/br_openbaar.png,images/cb_openbaar.png,1,Openbaar,,,,,,,,,,,,,,,,,,,,,
,,,,,00065,2023-10-18_13h34.18.794,vbt_B1_day3,2022.2.4,MacIntel,50,,,,,,down,0,1.202,,-0.593267882,-0.061009818,1,0,0,0,199,199,89,1,slapen,images/br_slapen.png,images/cb_slapen.png,0,,,,,,,,,,,,,,,,,,,,,,
,,,,,00065,2023-10-18_13h34.18.794,vbt_B1_day3,2022.2.4,MacIntel,50,,,,,,,,,,,,,,,,,,,,,,,,,-0.61430575,-0.103085554,1,0,0,,,,,,,,,,,,,,,,
,,,,,00065,2023-10-18_13h34.18.794,vbt_B1_day3,2022.2.4,MacIntel,50,,,,,,,,,,,,,,,,,,,,,,,,,,,,,,-0.575035063,-0.159186536,1,0,0,,,,,,,,,,,
,,,,,00065,2023-10-18_13h34.18.794,vbt_B1_day3,2022.2.4,MacIntel,50,,,,,,,,,,,,,,,,,,,,boeien,images/br_boeien.png,images/cb_boeien.png,,Boeien,,,,,,,,,,,-0.642356241,-0.002103787,1,0,0,Boeien,0,0,0,8,1
,,,,,00065,2023-10-18_13h34.18.794,vbt_B1_day3,2022.2.4,MacIntel,50,,,,,,,,,,,,,,,,,,,,gout,images/br_gout.png,images/cb_gout.png,,Goun ,,,,,,,,,,,-0.548387097,0.077840112,1,0,0,Goun ,0,1,1,20,1
,,,,,00065,2023-10-18_13h34.18.794,vbt_B1_day3,2022.2.4,MacIntel,50,,,,,,,,,,,,,,,,,,,,gezond,images/br_gezond.png,images/cb_gezond.png,,Gezond,,,,,,,,,,,-0.565217391,0.110098177,1,0,0,Gezond,0,2,2,11,1
,,,,,00065,2023-10-18_13h34.18.794,vbt_B1_day3,2022.2.4,MacIntel,50,,,,,,,,,,,,,,,,,,,,bisschop,images/br_bisschop.png,images/cb_bisschop.png,,Bisschop,,,,,,,,,,,-0.633941094,0.041374474,1,0,0,Bisschop,0,3,3,16,1
,,,,,00065,2023-10-18_13h34.18.794,vbt_B1_day3,2022.2.4,MacIntel,50,,,,,,,,,,,,,,,,,,,,uviek,images/br_uviek.png,images/cb_uviek.png,,Uviek ,,,,,,,,,,,-0.504908836,-0.014726508,1,0,0,Uviek ,0,4,4,25,1
,,,,,00065,2023-10-18_13h34.18.794,vbt_B1_day3,2022.2.4,MacIntel,50,,,,,,,,,,,,,,,,,,,,verraden,images/br_verraden.png,images/cb_verraden.png,,Verraden,,,,,,,,,,,-0.546984572,0.169004208,1,0,0,Verraden,0,5,5,58,1
,,,,,00065,2023-10-18_13h34.18.794,vbt_B1_day3,2022.2.4,MacIntel,50,,,,,,,,,,,,,,,,,,,,bevret,images/br_bevret.png,images/cb_bevret.png,,Bevret ,,,,,,,,,,,-0.544179523,0.110098177,1,0,0,Bevret ,0,6,6,30,1
,,,,,00065,2023-10-18_13h34.18.794,vbt_B1_day3,2022.2.4,MacIntel,50,,,,,,,,,,,,,,,,,,,,glijden,images/br_glijden.png,images/cb_glijden.png,,Glijden,,,,,,,,,,,-0.488078541,0.171809257,1,0,0,Glijden,0,7,7,53,1
,,,,,00065,2023-10-18_13h34.18.794,vbt_B1_day3,2022.2.4,MacIntel,50,,,,,,,,,,,,,,,,,,,,samen,images/br_samen.png,images/cb_samen.png,,Samen,,,,,,,,,,,-0.619915849,0.038569425,1,0,0,Samen,0,8,8,7,1
,,,,,00065,2023-10-18_13h34.18.794,vbt_B1_day3,2022.2.4,MacIntel,50,,,,,,,,,,,,,,,,,,,,beslag,images/br_beslag.png,images/cb_beslag.png,,Beslag,,,,,,,,,,,-0.575035063,0.00911641,1,0,0,Beslag,0,9,9,51,1
,,,,,00065,2023-10-18_13h34.18.794,vbt_B1_day3,2022.2.4,MacIntel,50,,,,,,,,,,,,,,,,,,,,slapen,images/br_slapen.png,images/cb_slapen.png,,Slapen,,,,,,,,,,,-0.635343619,0.076437588,1,0,0,Slapen,0,10,10,9,1
,,,,,00065,2023-10-18_13h34.18.794,vbt_B1_day3,2022.2.4,MacIntel,50,,,,,,,,,,,,,,,,,,,,uniek,images/br_uniek.png,images/cb_uniek.png,,Uniek,,,,,,,,,,,-0.577840112,0.00631136,1,0,0,Uniek,0,11,11,46,1
,,,,,00065,2023-10-18_13h34.18.794,vbt_B1_day3,2022.2.4,MacIntel,50,,,,,,,,,,,,,,,,,,,,afbopen,images/br_afbopen.png,images/cb_afbopen.png,,Afb….,,,,,,,,,,,-0.5371669,0.007713885,1,0,0,Afb….,0,12,12,34,1
,,,,,00065,2023-10-18_13h34.18.794,vbt_B1_day3,2022.2.4,MacIntel,50,,,,,,,,,,,,,,,,,,,,kest,images/br_kest.png,images/cb_kest.png,,Kest ,,,,,,,,,,,-0.349228612,0.117110799,1,0,0,Kest ,0,13,13,21,1
,,,,,00065,2023-10-18_13h34.18.794,vbt_B1_day3,2022.2.4,MacIntel,50,,,,,,,,,,,,,,,,,,,,gebod,images/br_gebod.png,images/cb_gebod.png,,Gebod,,,,,,,,,,,-0.575035063,0.045582048,1,0,0,Gebod,0,14,14,45,1
,,,,,00065,2023-10-18_13h34.18.794,vbt_B1_day3,2022.2.4,MacIntel,50,,,,,,,,,,,,,,,,,,,,brappen,images/br_brappen.png,images/cb_brappen.png,,Brappen ,,,,,,,,,,,-0.516129032,0.11430575,1,0,0,Brappen ,0,15,15,35,1
,,,,,00065,2023-10-18_13h34.18.794,vbt_B1_day3,2022.2.4,MacIntel,50,,,,,,,,,,,,,,,,,,,,opzicht,images/br_opzicht.png,images/cb_opzicht.png,,Opzicht,,,,,,,,,,,-0.594670407,0.09887798,1,0,0,Opzicht,0,16,16,15,1
,,,,,00065,2023-10-18_13h34.18.794,vbt_B1_day3,2022.2.4,MacIntel,50,,,,,,,,,,,,,,,,,,,,onrecht,images/br_onrecht.png,images/cb_onrecht.png,,Onrecht,,,,,,,,,,,-0.605890603,0.000701262,1,0,0,Onrecht,0,17,17,55,1
,,,,,00065,2023-10-18_13h34.18.794,vbt_B1_day3,2022.2.4,MacIntel,50,,,,,,,,,,,,,,,,,,,,twaaf,images/br_twaaf.png,images/cb_twaaf.png,,Twaaf ,,,,,,,,,,,-0.377279102,0.059607293,1,0,0,Twaaf ,0,18,18,24,1
,,,,,00065,2023-10-18_13h34.18.794,vbt_B1_day3,2022.2.4,MacIntel,50,,,,,,,,,,,,,,,,,,,,aarzelen,images/br_aarzelen.png,images/cb_aarzelen.png,,Aarzelen,,,,,,,,,,,-0.549789621,0.090462833,1,0,0,Aarzelen,0,19,19,19,1
,,,,,00065,2023-10-18_13h34.18.794,vbt_B1_day3,2022.2.4,MacIntel,50,,,,,,,,,,,,,,,,,,,,kwaas,images/br_kwaas.png,images/cb_kwaas.png,,Kwaas ,,,,,,,,,,,-0.499298738,0.126928471,1,0,0,Kwaas ,0,20,20,26,1
,,,,,00065,2023-10-18_13h34.18.794,vbt_B1_day3,2022.2.4,MacIntel,50,,,,,,,,,,,,,,,,,,,,verhaal,images/br_verhaal.png,images/cb_verhaal.png,,Verhaal,,,,,,,,,,,-0.482468443,0.136746143,1,0,0,Verhaal,0,21,21,13,1
,,,,,00065,2023-10-18_13h34.18.794,vbt_B1_day3,2022.2.4,MacIntel,50,,,,,,,,,,,,,,,,,,,,leugeren,images/br_leugeren.png,images/cb_leugeren.png,,Leugeren ,,,,,,,,,,,-0.476858345,0.126928471,1,0,0,Leugeren ,0,22,22,37,1
,,,,,00065,2023-10-18_13h34.18.794,vbt_B1_day3,2022.2.4,MacIntel,50,,,,,,,,,,,,,,,,,,,,schodel,images/br_schodel.png,images/cb_schodel.png,,Schodel ,,,,,,,,,,,-0.513323983,0.153576438,1,0,0,Schodel ,0,23,23,33,1
,,,,,00065,2023-10-18_13h34.18.794,vbt_B1_day3,2022.2.4,MacIntel,50,,,,,,,,,,,,,,,,,,,,verwoor,images/br_verwoor.png,images/cb_verwoor.png,,Verwaar,,,,,,,,,,,-0.382889201,0.063814867,1,0,0,Verwaar,0,24,24,32,1
,,,,,00065,2023-10-18_13h34.18.794,vbt_B1_day3,2022.2.4,MacIntel,50,,,,,,,,,,,,,,,,,,,,paken,images/br_paken.png,images/cb_paken.png,,Paken ,,,,,,,,,,,-0.394109397,0.121318373,1,0,0,Paken ,0,25,25,27,1
,,,,,00065,2023-10-18_13h34.18.794,vbt_B1_day3,2022.2.4,MacIntel,50,,,,,,,,,,,,,,,,,,,,leemaken,images/br_leemaken.png,images/cb_leemaken.png,,Leemaken ,,,,,,,,,,,-0.417952314,0.188639551,1,0,0,Leemaken ,0,26,26,39,1
,,,,,00065,2023-10-18_13h34.18.794,vbt_B1_day3,2022.2.4,MacIntel,50,,,,,,,,,,,,,,,,,,,,leek,images/br_leek.png,images/cb_leek.png,,Leek,,,,,,,,,,,-0.593267882,0.104488079,1,0,0,Leek,0,27,27,2,1
,,,,,00065,2023-10-18_13h34.18.794,vbt_B1_day3,2022.2.4,MacIntel,50,,,,,,,,,,,,,,,,,,,,stallen,images/br_stallen.png,images/cb_stallen.png,,Stallen,,,,,,,,,,,-0.546984572,0.131136045,1,0,0,Stallen,0,28,28,52,1
,,,,,00065,2023-10-18_13h34.18.794,vbt_B1_day3,2022.2.4,MacIntel,50,,,,,,,,,,,,,,,,,,,,zone,images/br_zone.png,images/cb_zone.png,,Zone,,,,,,,,,,,-0.687237027,0.042776999,1,0,0,Zone,0,29,29,41,1
,,,,,00065,2023-10-18_13h34.18.794,vbt_B1_day3,2022.2.4,MacIntel,50,,,,,,,,,,,,,,,,,,,,dwang,images/br_dwang.png,images/cb_dwang.png,,Dwa…,,,,,,,,,,,-0.479663394,0.075035063,1,0,0,Dwa…,0,30,30,47,1
,,,,,00065,2023-10-18_13h34.18.794,vbt_B1_day3,2022.2.4,MacIntel,50,,,,,,,,,,,,,,,,,,,,hint,images/br_hint.png,images/cb_hint.png,,Hint,,,,,,,,,,,-0.5371669,0.153576438,1,0,0,Hint,0,31,31,43,1
,,,,,00065,2023-10-18_13h34.18.794,vbt_B1_day3,2022.2.4,MacIntel,50,,,,,,,,,,,,,,,,,,,,invallen,images/br_invallen.png,images/cb_invallen.png,,Invallen,,,,,,,,,,,-0.621318373,0.058204769,1,0,0,Invallen,0,32,32,57,1
,,,,,00065,2023-10-18_13h34.18.794,vbt_B1_day3,2022.2.4,MacIntel,50,,,,,,,,,,,,,,,,,,,,theeting,images/br_theeting.png,images/cb_theeting.png,,Theet…,,,,,,,,,,,-0.626928471,-0.020336606,1,0,0,Theet…,0,33,33,38,1
,,,,,00065,2023-10-18_13h34.18.794,vbt_B1_day3,2022.2.4,MacIntel,50,,,,,,,,,,,,,,,,,,,,alsof,images/br_alsof.png,images/cb_alsof.png,,Alsof,,,,,,,,,,,-0.615708275,-0.042776999,1,0,0,Alsof,0,34,34,44,1
,,,,,00065,2023-10-18_13h34.18.794,vbt_B1_day3,2022.2.4,MacIntel,50,,,,,,,,,,,,,,,,,,,,eens,images/br_eens.png,images/cb_eens.png,,Eens,,,,,,,,,,,-0.670406732,0.044179523,1,0,0,Eens,0,35,35,40,1
,,,,,00065,2023-10-18_13h34.18.794,vbt_B1_day3,2022.2.4,MacIntel,50,,,,,,,,,,,,,,,,,,,,keihard,images/br_keihard.png,images/cb_keihard.png,,Kieh…,,,,,,,,,,,-0.625525947,-0.007713885,1,0,0,Kieh…,0,36,36,14,1
,,,,,00065,2023-10-18_13h34.18.794,vbt_B1_day3,2022.2.4,MacIntel,50,,,,,,,,,,,,,,,,,,,,sluier,images/br_sluier.png,images/cb_sluier.png,,Sluier,,,,,,,,,,,-0.546984572,0.087657784,1,0,0,Sluier,0,37,37,50,1
,,,,,00065,2023-10-18_13h34.18.794,vbt_B1_day3,2022.2.4,MacIntel,50,,,,,,,,,,,,,,,,,,,,steel,images/br_steel.png,images/cb_steel.png,,Steel,,,,,,,,,,,-0.608695652,-0.0371669,1,0,0,Steel,0,38,38,4,1
,,,,,00065,2023-10-18_13h34.18.794,vbt_B1_day3,2022.2.4,MacIntel,50,,,,,,,,,,,,,,,,,,,,schatten,images/br_schatten.png,images/cb_schatten.png,,Schatten,,,,,,,,,,,-0.541374474,0.076437588,1,0,0,Schatten,0,39,39,18,1
,,,,,00065,2023-10-18_13h34.18.794,vbt_B1_day3,2022.2.4,MacIntel,50,,,,,,,,,,,,,,,,,,,,jongelui,images/br_jongelui.png,images/cb_jongelui.png,,Dong….,,,,,,,,,,,-0.62973352,-0.048387097,1,0,0,Dong….,0,40,40,59,1
,,,,,00065,2023-10-18_13h34.18.794,vbt_B1_day3,2022.2.4,MacIntel,50,,,,,,,,,,,,,,,,,,,,makieren,images/br_makieren.png,images/cb_makieren.png,,Makieren ,,,,,,,,,,,-0.321178121,0.166199158,1,0,0,Makieren ,0,41,41,36,1
,,,,,00065,2023-10-18_13h34.18.794,vbt_B1_day3,2022.2.4,MacIntel,50,,,,,,,,,,,,,,,,,,,,laken,images/br_laken.png,images/cb_laken.png,,Laken,,,,,,,,,,,-0.605890603,0.065217391,1,0,0,Laken,0,42,42,5,1
,,,,,00065,2023-10-18_13h34.18.794,vbt_B1_day3,2022.2.4,MacIntel,50,,,,,,,,,,,,,,,,,,,,stikken,images/br_stikken.png,images/cb_stikken.png,,Stikken,,,,,,,,,,,-0.52173913,0.185834502,1,0,0,Stikken,0,43,43,54,1
,,,,,00065,2023-10-18_13h34.18.794,vbt_B1_day3,2022.2.4,MacIntel,50,,,,,,,,,,,,,,,,,,,,stoom,images/br_stoom.png,images/cb_stoom.png,,Stoom,,,,,,,,,,,-0.541374474,0.075035063,1,0,0,Stoom,0,44,44,6,1
,,,,,00065,2023-10-18_13h34.18.794,vbt_B1_day3,2022.2.4,MacIntel,50,,,,,,,,,,,,,,,,,,,,opzetten,images/br_opzetten.png,images/cb_opzetten.png,,Opzetten,,,,,,,,,,,-0.582047686,0.149368864,1,0,0,Opzetten,0,45,45,56,1
,,,,,00065,2023-10-18_13h34.18.794,vbt_B1_day3,2022.2.4,MacIntel,50,,,,,,,,,,,,,,,,,,,,sultan,images/br_sultan.png,images/cb_sultan.png,,Sultan,,,,,,,,,,,-0.474053296,0.117110799,1,0,0,Sultan,0,46,46,49,1
,,,,,00065,2023-10-18_13h34.18.794,vbt_B1_day3,2022.2.4,MacIntel,50,,,,,,,,,,,,,,,,,,,,vlager,images/br_vlager.png,images/cb_vlager.png,,Vlager ,,,,,,,,,,,-0.297335203,0.225105189,1,0,0,Vlager ,0,47,47,28,1
,,,,,00065,2023-10-18_13h34.18.794,vbt_B1_day3,2022.2.4,MacIntel,50,,,,,,,,,,,,,,,,,,,,oprotten,images/br_oprotten.png,images/cb_oprotten.png,,Oprotten,,,,,,,,,,,-0.622720898,0.107293128,1,0,0,Oprotten,0,48,48,17,1
,,,,,00065,2023-10-18_13h34.18.794,vbt_B1_day3,2022.2.4,MacIntel,50,,,,,,,,,,,,,,,,,,,,prikken,images/br_prikken.png,images/cb_prikken.png,,Prikken,,,,,,,,,,,-0.562412342,0.110098177,1,0,0,Prikken,0,49,49,12,1
,,,,,00065,2023-10-18_13h34.18.794,vbt_B1_day3,2022.2.4,MacIntel,50,,,,,,,,,,,,,,,,,,,,croo,images/br_croo.png,images/cb_croo.png,,Croo,,,,,,,,,,,-0.642356241,0.086255259,1,0,0,Croo,0,50,50,22,1
,,,,,00065,2023-10-18_13h34.18.794,vbt_B1_day3,2022.2.4,MacIntel,50,,,,,,,,,,,,,,,,,,,,geluid,images/br_geluid.png,images/cb_geluid.png,,Geluid,,,,,,,,,,,-0.635343619,0.011921459,1,0,0,Geluid,0,51,51,10,1
,,,,,00065,2023-10-18_13h34.18.794,vbt_B1_day3,2022.2.4,MacIntel,50,,,,,,,,,,,,,,,,,,,,hust,images/br_hust.png,images/cb_hust.png,,Hust ,,,,,,,,,,,-0.43197756,0.149368864,1,0,0,Hust ,0,52,52,23,1
,,,,,00065,2023-10-18_13h34.18.794,vbt_B1_day3,2022.2.4,MacIntel,50,,,,,,,,,,,,,,,,,,,,begrip,images/br_begrip.png,images/cb_begrip.png,,Begrip,,,,,,,,,,,-0.639551192,-0.093267882,1,0,0,Begrip,0,53,53,48,1
,,,,,00065,2023-10-18_13h34.18.794,vbt_B1_day3,2022.2.4,MacIntel,50,,,,,,,,,,,,,,,,,,,,hier,images/br_hier.png,images/cb_hier.png,,Hier,,,,,,,,,,,-0.646563815,-0.041374474,1,0,0,Hier,0,54,54,1,1
,,,,,00065,2023-10-18_13h34.18.794,vbt_B1_day3,2022.2.4,MacIntel,50,,,,,,,,,,,,,,,,,,,,kaas,images/br_kaas.png,images/cb_kaas.png,,Kaas,,,,,,,,,,,-0.59887798,-0.034361851,1,0,0,Kaas,0,55,55,42,1
,,,,,00065,2023-10-18_13h34.18.794,vbt_B1_day3,2022.2.4,MacIntel,50,,,,,,,,,,,,,,,,,,,,mode,images/br_mode.png,images/cb_mode.png,,Mode,,,,,,,,,,,-0.591865358,-0.058204769,1,0,0,Mode,0,56,56,3,1
,,,,,00065,2023-10-18_13h34.18.794,vbt_B1_day3,2022.2.4,MacIntel,50,,,,,,,,,,,,,,,,,,,,knie,images/br_knie.png,images/cb_knie.png,,Knie,,,,,,,,,,,-0.582047686,-0.046984572,1,0,0,Knie,0,57,57,0,1
,,,,,00065,2023-10-18_13h34.18.794,vbt_B1_day3,2022.2.4,MacIntel,50,,,,,,,,,,,,,,,,,,,,mugeek,images/br_mugeek.png,images/cb_mugeek.png,,Mugeek ,,,,,,,,,,,-0.502103787,0.108695652,1,0,0,Mugeek ,0,58,58,29,1
,,,,,00065,2023-10-18_13h34.18.794,vbt_B1_day3,2022.2.4,MacIntel,50,,,,,,,,,,,,,,,,,,,,booien,images/br_booien.png,images/cb_booien.png,,Booien ,,,,,,,,,,,-0.586255259,0.136746143,1,0,0,Booien ,0,59,59,31,1
,,,,,00065,2023-10-18_13h34.18.794,vbt_B1_day3,2022.2.4,MacIntel,50,,,,,,,,,,,,,,,,,,,,,,,,,,,,,,,,,,,,,,,,,,,,,
