welcome_mouse.x,welcome_mouse.y,welcome_mouse.leftButton,welcome_mouse.midButton,welcome_mouse.rightButton,"ID",date,expName,psychopyVersion,OS,frameRate,trainInstr_mouse.x,trainInstr_mouse.y,trainInstr_mouse.leftButton,trainInstr_mouse.midButton,trainInstr_mouse.rightButton,translation_key.keys,translation_key.corr,translation_key.rt,word_rsp.text,trWrd_mouse.x,trWrd_mouse.y,trWrd_mouse.leftButton,trWrd_mouse.midButton,trWrd_mouse.rightButton,train_loop.thisRepN,train_loop.thisTrialN,train_loop.thisN,train_loop.thisIndex,train_loop.ran,nlWrd,brWrd,cbWrd,test,testResp,mouse.x,mouse.y,mouse.leftButton,mouse.midButton,mouse.rightButton,testInstr_mouse.x,testInstr_mouse.y,testInstr_mouse.leftButton,testInstr_mouse.midButton,testInstr_mouse.rightButton,test_mouse.x,test_mouse.y,test_mouse.leftButton,test_mouse.midButton,test_mouse.rightButton,test_response.text,test_loop.thisRepN,test_loop.thisTrialN,test_loop.thisN,test_loop.thisIndex,test_loop.ran
0.514814871,-0.139814801,1,0,0,00060,2023-10-12_19h04.44.958,vbt_B1_day3,2022.2.4,Win32,58.82352941,,,,,,,,,,,,,,,,,,,,,,,,,,,,,,,,,,,,,,,,,,,,,
,,,,,00060,2023-10-12_19h04.44.958,vbt_B1_day3,2022.2.4,Win32,58.82352941,0.464814787,-0.133333347,1,0,0,,,,,,,,,,,,,,,,,,,,,,,,,,,,,,,,,,,,,,,,
,,,,,00060,2023-10-12_19h04.44.958,vbt_B1_day3,2022.2.4,Win32,58.82352941,,,,,,down,0,5.691,,0.464814787,-0.133333347,1,0,0,0,0,0,64,1,wegen,images/br_wegen.png,images/cb_wegen.png,0,,,,,,,,,,,,,,,,,,,,,,
,,,,,00060,2023-10-12_19h04.44.958,vbt_B1_day3,2022.2.4,Win32,58.82352941,,,,,,down,0,1.961,,0.467592593,-0.141666695,1,0,0,0,1,1,83,1,mening,images/br_mening.png,images/cb_mening.png,0,,,,,,,,,,,,,,,,,,,,,,
,,,,,00060,2023-10-12_19h04.44.958,vbt_B1_day3,2022.2.4,Win32,58.82352941,,,,,,down,0,2.189,,0.419444473,-0.128703718,1,0,0,0,2,2,69,1,waken,images/br_waken.png,images/cb_waken.png,0,,,,,,,,,,,,,,,,,,,,,,
,,,,,00060,2023-10-12_19h04.44.958,vbt_B1_day3,2022.2.4,Win32,58.82352941,,,,,,down,0,0.944,,0.419444473,-0.126851894,1,0,0,0,3,3,48,1,steel,images/br_steel.png,images/cb_steel.png,0,,,,,,,,,,,,,,,,,,,,,,
,,,,,00060,2023-10-12_19h04.44.958,vbt_B1_day3,2022.2.4,Win32,58.82352941,,,,,,down,0,1.868,,0.40370376,-0.137037065,1,0,0,0,4,4,199,1,beseffen,images/br_beseffen.png,images/cb_beseffen.png,0,,,,,,,,,,,,,,,,,,,,,,
,,,,,00060,2023-10-12_19h04.44.958,vbt_B1_day3,2022.2.4,Win32,58.82352941,,,,,,down,0,2.884,,0.414814843,-0.102777764,1,0,0,0,5,5,118,1,vinger,images/br_vinger.png,images/cb_vinger.png,0,,,,,,,,,,,,,,,,,,,,,,
,,,,,00060,2023-10-12_19h04.44.958,vbt_B1_day3,2022.2.4,Win32,58.82352941,,,,,,down,0,1.532,,0.377777806,-0.137962977,1,0,0,0,6,6,57,1,steek,images/br_steek.png,images/cb_steek.png,0,,,,,,,,,,,,,,,,,,,,,,
,,,,,00060,2023-10-12_19h04.44.958,vbt_B1_day3,2022.2.4,Win32,58.82352941,,,,,,down,0,1.284,,0.343518575,-0.142592607,1,0,0,0,7,7,84,1,lokken,images/br_lokken.png,images/cb_lokken.png,0,,,,,,,,,,,,,,,,,,,,,,
,,,,,00060,2023-10-12_19h04.44.958,vbt_B1_day3,2022.2.4,Win32,58.82352941,,,,,,down,0,4.1,,0.343518575,-0.142592607,1,0,0,0,8,8,187,1,opkijken,images/br_opkijken.png,images/cb_opkijken.png,0,,,,,,,,,,,,,,,,,,,,,,
,,,,,00060,2023-10-12_19h04.44.958,vbt_B1_day3,2022.2.4,Win32,58.82352941,,,,,,down,0,2.918,,0.340740769,-0.139814801,1,0,0,0,9,9,188,1,strekken,images/br_strekken.png,images/cb_strekken.png,0,,,,,,,,,,,,,,,,,,,,,,
,,,,,00060,2023-10-12_19h04.44.958,vbt_B1_day3,2022.2.4,Win32,58.82352941,,,,,,down,0,2.467,,0.303703732,-0.151851866,1,0,0,0,10,10,189,1,aanraden,images/br_aanraden.png,images/cb_aanraden.png,0,,,,,,,,,,,,,,,,,,,,,,
,,,,,00060,2023-10-12_19h04.44.958,vbt_B1_day3,2022.2.4,Win32,58.82352941,,,,,,down,0,1.2,,0.294444473,-0.150000042,1,0,0,0,11,11,19,1,geit,images/br_geit.png,images/cb_geit.png,0,,,,,,,,,,,,,,,,,,,,,,
,,,,,00060,2023-10-12_19h04.44.958,vbt_B1_day3,2022.2.4,Win32,58.82352941,,,,,,down,0,5.065,,0.279629672,-0.162037037,1,0,0,0,12,12,194,1,driemaal,images/br_driemaal.png,images/cb_driemaal.png,0,,,,,,,,,,,,,,,,,,,,,,
,,,,,00060,2023-10-12_19h04.44.958,vbt_B1_day3,2022.2.4,Win32,58.82352941,,,,,,down,0,2.936,,0.336111139,-0.151851866,1,0,0,0,13,13,169,1,oprotten,images/br_oprotten.png,images/cb_oprotten.png,0,,,,,,,,,,,,,,,,,,,,,,
,,,,,00060,2023-10-12_19h04.44.958,vbt_B1_day3,2022.2.4,Win32,58.82352941,,,,,,down,0,5.918,,0.328703704,-0.173148191,1,0,0,0,14,14,185,1,mijnheer,images/br_mijnheer.png,images/cb_mijnheer.png,0,,,,,,,,,,,,,,,,,,,,,,
,,,,,00060,2023-10-12_19h04.44.958,vbt_B1_day3,2022.2.4,Win32,58.82352941,,,,,,down,0,11.439,,0.224074116,-0.126851894,1,0,0,0,15,15,87,1,toeval,images/br_toeval.png,images/cb_toeval.png,0,,,,,,,,,,,,,,,,,,,,,,
,,,,,00060,2023-10-12_19h04.44.958,vbt_B1_day3,2022.2.4,Win32,58.82352941,,,,,,down,0,1.25,,0.330555527,-0.133333347,1,0,0,0,16,16,108,1,excuus,images/br_excuus.png,images/cb_excuus.png,0,,,,,,,,,,,,,,,,,,,,,,
,,,,,00060,2023-10-12_19h04.44.958,vbt_B1_day3,2022.2.4,Win32,58.82352941,,,,,,down,0,4.688,,0.257407436,-0.184259273,1,0,0,0,17,17,20,1,site,images/br_site.png,images/cb_site.png,1,site,,,,,,,,,,,,,,,,,,,,,
,,,,,00060,2023-10-12_19h04.44.958,vbt_B1_day3,2022.2.4,Win32,58.82352941,,,,,,down,0,3.835,,0.242592635,-0.17777782,1,0,0,0,18,18,130,1,keihard,images/br_keihard.png,images/cb_keihard.png,0,,,,,,,,,,,,,,,,,,,,,,
,,,,,00060,2023-10-12_19h04.44.958,vbt_B1_day3,2022.2.4,Win32,58.82352941,,,,,,down,0,1.618,,0.246296282,-0.163888931,1,0,0,0,19,19,53,1,baron,images/br_baron.png,images/cb_baron.png,0,,,,,,,,,,,,,,,,,,,,,,
,,,,,00060,2023-10-12_19h04.44.958,vbt_B1_day3,2022.2.4,Win32,58.82352941,,,,,,down,0,31.864,,0.229629658,-0.030555548,1,0,0,0,20,20,198,1,bedoelen,images/br_bedoelen.png,images/cb_bedoelen.png,0,,,,,,,,,,,,,,,,,,,,,,
,,,,,00060,2023-10-12_19h04.44.958,vbt_B1_day3,2022.2.4,Win32,58.82352941,,,,,,down,0,0.635,,0.25462963,-0.025925919,1,0,0,0,21,21,117,1,kennis,images/br_kennis.png,images/cb_kennis.png,0,,,,,,,,,,,,,,,,,,,,,,
,,,,,00060,2023-10-12_19h04.44.958,vbt_B1_day3,2022.2.4,Win32,58.82352941,,,,,,down,0,1.984,,0.283333319,-0.132407436,1,0,0,0,22,22,173,1,apparaat,images/br_apparaat.png,images/cb_apparaat.png,0,,,,,,,,,,,,,,,,,,,,,,
,,,,,00060,2023-10-12_19h04.44.958,vbt_B1_day3,2022.2.4,Win32,58.82352941,,,,,,down,0,2.184,,0.281481496,-0.097222222,1,0,0,0,23,23,35,1,lust,images/br_lust.png,images/cb_lust.png,0,,,,,,,,,,,,,,,,,,,,,,
,,,,,00060,2023-10-12_19h04.44.958,vbt_B1_day3,2022.2.4,Win32,58.82352941,,,,,,down,0,4.599,,0.253703718,-0.133333347,1,0,0,0,24,24,157,1,uitlaat,images/br_uitlaat.png,images/cb_uitlaat.png,0,,,,,,,,,,,,,,,,,,,,,,
,,,,,00060,2023-10-12_19h04.44.958,vbt_B1_day3,2022.2.4,Win32,58.82352941,,,,,,down,0,8.257,,0.183333362,-0.097222222,1,0,0,0,25,25,152,1,afnemen,images/br_afnemen.png,images/cb_afnemen.png,0,,,,,,,,,,,,,,,,,,,,,,
,,,,,00060,2023-10-12_19h04.44.958,vbt_B1_day3,2022.2.4,Win32,58.82352941,,,,,,down,0,20.972,,0.22592594,-0.104629658,1,0,0,0,26,26,174,1,stemming,images/br_stemming.png,images/cb_stemming.png,0,,,,,,,,,,,,,,,,,,,,,,
,,,,,00060,2023-10-12_19h04.44.958,vbt_B1_day3,2022.2.4,Win32,58.82352941,,,,,,down,0,5.285,,0.27407406,-0.055555556,1,0,0,0,27,27,71,1,bever,images/br_bever.png,images/cb_bever.png,0,,,,,,,,,,,,,,,,,,,,,,
,,,,,00060,2023-10-12_19h04.44.958,vbt_B1_day3,2022.2.4,Win32,58.82352941,,,,,,down,0,26.939,,0.27407406,-0.055555556,1,0,0,0,28,28,129,1,verhaal,images/br_verhaal.png,images/cb_verhaal.png,0,,,,,,,,,,,,,,,,,,,,,,
,,,,,00060,2023-10-12_19h04.44.958,vbt_B1_day3,2022.2.4,Win32,58.82352941,,,,,,down,0,4.587,,0.336111139,-0.075925933,1,0,0,0,29,29,61,1,groen,images/br_groen.png,images/cb_groen.png,1,groen,,,,,,,,,,,,,,,,,,,,,
,,,,,00060,2023-10-12_19h04.44.958,vbt_B1_day3,2022.2.4,Win32,58.82352941,,,,,,down,0,4.317,,0.336111139,-0.075925933,1,0,0,0,30,30,170,1,schatten,images/br_schatten.png,images/cb_schatten.png,0,,,,,,,,,,,,,,,,,,,,,,
,,,,,00060,2023-10-12_19h04.44.958,vbt_B1_day3,2022.2.4,Win32,58.82352941,,,,,,down,0,0.717,,0.350000028,-0.080555563,1,0,0,0,31,31,9,1,hier,images/br_hier.png,images/cb_hier.png,0,,,,,,,,,,,,,,,,,,,,,,
,,,,,00060,2023-10-12_19h04.44.958,vbt_B1_day3,2022.2.4,Win32,58.82352941,,,,,,down,0,1.955,,0.369444529,-0.087962963,1,0,0,0,32,32,22,1,stof,images/br_stof.png,images/cb_stof.png,1,stof,,,,,,,,,,,,,,,,,,,,,
,,,,,00060,2023-10-12_19h04.44.958,vbt_B1_day3,2022.2.4,Win32,58.82352941,,,,,,down,0,0.858,,0.353703675,-0.086111104,1,0,0,0,33,33,175,1,heengaan,images/br_heengaan.png,images/cb_heengaan.png,0,,,,,,,,,,,,,,,,,,,,,,
,,,,,00060,2023-10-12_19h04.44.958,vbt_B1_day3,2022.2.4,Win32,58.82352941,,,,,,down,0,3.252,,0.390740712,-0.10555557,1,0,0,0,34,34,147,1,komisch,images/br_komisch.png,images/cb_komisch.png,0,,,,,,,,,,,,,,,,,,,,,,
,,,,,00060,2023-10-12_19h04.44.958,vbt_B1_day3,2022.2.4,Win32,58.82352941,,,,,,down,0,4.052,,0.337962963,-0.118518547,1,0,0,0,35,35,58,1,tekst,images/br_tekst.png,images/cb_tekst.png,0,,,,,,,,,,,,,,,,,,,,,,
,,,,,00060,2023-10-12_19h04.44.958,vbt_B1_day3,2022.2.4,Win32,58.82352941,,,,,,down,0,5.905,,0.41851849,-0.140740783,1,0,0,0,36,36,91,1,gezond,images/br_gezond.png,images/cb_gezond.png,0,,,,,,,,,,,,,,,,,,,,,,
,,,,,00060,2023-10-12_19h04.44.958,vbt_B1_day3,2022.2.4,Win32,58.82352941,,,,,,down,0,0.228,,0.411111196,-0.107407393,1,0,0,0,37,37,16,1,ziek,images/br_ziek.png,images/cb_ziek.png,0,,,,,,,,,,,,,,,,,,,,,,
,,,,,00060,2023-10-12_19h04.44.958,vbt_B1_day3,2022.2.4,Win32,58.82352941,,,,,,down,0,2.525,,0.385185242,-0.10555557,1,0,0,0,38,38,171,1,aarzelen,images/br_aarzelen.png,images/cb_aarzelen.png,0,,,,,,,,,,,,,,,,,,,,,,
,,,,,00060,2023-10-12_19h04.44.958,vbt_B1_day3,2022.2.4,Win32,58.82352941,,,,,,down,0,1.634,,0.393518519,-0.103703746,1,0,0,0,39,39,62,1,knaap,images/br_knaap.png,images/cb_knaap.png,1,knaap,,,,,,,,,,,,,,,,,,,,,
,,,,,00060,2023-10-12_19h04.44.958,vbt_B1_day3,2022.2.4,Win32,58.82352941,,,,,,down,0,1.153,,0.374074159,-0.123148176,1,0,0,0,40,40,5,1,blad,images/br_blad.png,images/cb_blad.png,0,,,,,,,,,,,,,,,,,,,,,,
,,,,,00060,2023-10-12_19h04.44.958,vbt_B1_day3,2022.2.4,Win32,58.82352941,,,,,,down,0,2.156,,0.374074159,-0.123148176,1,0,0,0,41,41,103,1,joggen,images/br_joggen.png,images/cb_joggen.png,1,joggen,,,,,,,,,,,,,,,,,,,,,
,,,,,00060,2023-10-12_19h04.44.958,vbt_B1_day3,2022.2.4,Win32,58.82352941,,,,,,down,0,1.334,,0.374074159,-0.101851852,1,0,0,0,42,42,33,1,vlek,images/br_vlek.png,images/cb_vlek.png,0,,,,,,,,,,,,,,,,,,,,,,
,,,,,00060,2023-10-12_19h04.44.958,vbt_B1_day3,2022.2.4,Win32,58.82352941,,,,,,down,0,0.723,,0.327777863,-0.12037037,1,0,0,0,43,43,25,1,plek,images/br_plek.png,images/cb_plek.png,0,,,,,,,,,,,,,,,,,,,,,,
,,,,,00060,2023-10-12_19h04.44.958,vbt_B1_day3,2022.2.4,Win32,58.82352941,,,,,,down,0,2.771,,0.339814787,-0.137037065,1,0,0,0,44,44,32,1,palm,images/br_palm.png,images/cb_palm.png,0,,,,,,,,,,,,,,,,,,,,,,
,,,,,00060,2023-10-12_19h04.44.958,vbt_B1_day3,2022.2.4,Win32,58.82352941,,,,,,down,0,2.317,,0.318518603,-0.162037037,1,0,0,0,45,45,172,1,weigeren,images/br_weigeren.png,images/cb_weigeren.png,0,,,,,,,,,,,,,,,,,,,,,,
,,,,,00060,2023-10-12_19h04.44.958,vbt_B1_day3,2022.2.4,Win32,58.82352941,,,,,,down,0,4.233,,0.349074046,-0.162037037,1,0,0,0,46,46,143,1,hechten,images/br_hechten.png,images/cb_hechten.png,1,hechten,,,,,,,,,,,,,,,,,,,,,
,,,,,00060,2023-10-12_19h04.44.958,vbt_B1_day3,2022.2.4,Win32,58.82352941,,,,,,down,0,3.553,,0.37037037,-0.170370384,1,0,0,0,47,47,102,1,legaal,images/br_legaal.png,images/cb_legaal.png,1,legaal,,,,,,,,,,,,,,,,,,,,,
,,,,,00060,2023-10-12_19h04.44.958,vbt_B1_day3,2022.2.4,Win32,58.82352941,,,,,,down,0,17.409,,0.24537037,-0.172222208,1,0,0,0,48,48,47,1,kabel,images/br_kabel.png,images/cb_kabel.png,0,,,,,,,,,,,,,,,,,,,,,,
,,,,,00060,2023-10-12_19h04.44.958,vbt_B1_day3,2022.2.4,Win32,58.82352941,,,,,,down,0,0.024,,0.291666667,-0.226851852,1,0,0,0,49,49,17,1,taal,images/br_taal.png,images/cb_taal.png,0,,,,,,,,,,,,,,,,,,,,,,
,,,,,00060,2023-10-12_19h04.44.958,vbt_B1_day3,2022.2.4,Win32,58.82352941,,,,,,down,0,3.942,,0.291666667,-0.17777782,1,0,0,0,50,50,131,1,opzicht,images/br_opzicht.png,images/cb_opzicht.png,0,,,,,,,,,,,,,,,,,,,,,,
,,,,,00060,2023-10-12_19h04.44.958,vbt_B1_day3,2022.2.4,Win32,58.82352941,,,,,,down,0,0.774,,0.249074088,-0.098148134,1,0,0,0,51,51,72,1,strak,images/br_strak.png,images/cb_strak.png,0,,,,,,,,,,,,,,,,,,,,,,
,,,,,00060,2023-10-12_19h04.44.958,vbt_B1_day3,2022.2.4,Win32,58.82352941,,,,,,down,0,6.083,,0.249074088,-0.098148134,1,0,0,0,52,52,55,1,praat,images/br_praat.png,images/cb_praat.png,0,,,,,,,,,,,,,,,,,,,,,,
,,,,,00060,2023-10-12_19h04.44.958,vbt_B1_day3,2022.2.4,Win32,58.82352941,,,,,,down,0,2.573,,0.349074046,-0.165740755,1,0,0,0,53,53,193,1,weeshuis,images/br_weeshuis.png,images/cb_weeshuis.png,0,,,,,,,,,,,,,,,,,,,,,,
,,,,,00060,2023-10-12_19h04.44.958,vbt_B1_day3,2022.2.4,Win32,58.82352941,,,,,,down,0,23.332,,0.343518575,-0.150925954,1,0,0,0,54,54,43,1,klauw,images/br_klauw.png,images/cb_klauw.png,0,,,,,,,,,,,,,,,,,,,,,,
,,,,,00060,2023-10-12_19h04.44.958,vbt_B1_day3,2022.2.4,Win32,58.82352941,,,,,,down,0,1.675,,0.343518575,-0.150925954,1,0,0,0,55,55,166,1,strikken,images/br_strikken.png,images/cb_strikken.png,0,,,,,,,,,,,,,,,,,,,,,,
,,,,,00060,2023-10-12_19h04.44.958,vbt_B1_day3,2022.2.4,Win32,58.82352941,,,,,,down,0,3.805,,0.299074102,-0.145370413,1,0,0,0,56,56,149,1,redding,images/br_redding.png,images/cb_redding.png,0,,,,,,,,,,,,,,,,,,,,,,
,,,,,00060,2023-10-12_19h04.44.958,vbt_B1_day3,2022.2.4,Win32,58.82352941,,,,,,down,0,0.528,,0.358333305,-0.109259288,1,0,0,0,57,57,36,1,vuur,images/br_vuur.png,images/cb_vuur.png,0,,,,,,,,,,,,,,,,,,,,,,
,,,,,00060,2023-10-12_19h04.44.958,vbt_B1_day3,2022.2.4,Win32,58.82352941,,,,,,down,0,0.75,,0.399074131,-0.150000042,1,0,0,0,58,58,86,1,woning,images/br_woning.png,images/cb_woning.png,0,,,,,,,,,,,,,,,,,,,,,,
,,,,,00060,2023-10-12_19h04.44.958,vbt_B1_day3,2022.2.4,Win32,58.82352941,,,,,,down,0,1.475,,0.363888917,-0.157407407,1,0,0,0,59,59,107,1,maling,images/br_maling.png,images/cb_maling.png,0,,,,,,,,,,,,,,,,,,,,,,
,,,,,00060,2023-10-12_19h04.44.958,vbt_B1_day3,2022.2.4,Win32,58.82352941,,,,,,down,0,1.034,,0.363888917,-0.157407407,1,0,0,0,60,60,106,1,zingen,images/br_zingen.png,images/cb_zingen.png,0,,,,,,,,,,,,,,,,,,,,,,
,,,,,00060,2023-10-12_19h04.44.958,vbt_B1_day3,2022.2.4,Win32,58.82352941,,,,,,down,0,2.566,,0.363888917,-0.157407407,1,0,0,0,61,61,90,1,geluid,images/br_geluid.png,images/cb_geluid.png,0,,,,,,,,,,,,,,,,,,,,,,
,,,,,00060,2023-10-12_19h04.44.958,vbt_B1_day3,2022.2.4,Win32,58.82352941,,,,,,down,0,27.023,,0.389814871,-0.057407414,1,0,0,0,62,62,4,1,moes,images/br_moes.png,images/cb_moes.png,0,,,,,,,,,,,,,,,,,,,,,,
,,,,,00060,2023-10-12_19h04.44.958,vbt_B1_day3,2022.2.4,Win32,58.82352941,,,,,,down,0,3.52,,0.362962935,-0.083333333,1,0,0,0,63,63,160,1,daarheen,images/br_daarheen.png,images/cb_daarheen.png,0,,,,,,,,,,,,,,,,,,,,,,
,,,,,00060,2023-10-12_19h04.44.958,vbt_B1_day3,2022.2.4,Win32,58.82352941,,,,,,down,0,2.722,,0.362962935,-0.083333333,1,0,0,0,64,64,60,1,jasje,images/br_jasje.png,images/cb_jasje.png,1,jasje,,,,,,,,,,,,,,,,,,,,,
,,,,,00060,2023-10-12_19h04.44.958,vbt_B1_day3,2022.2.4,Win32,58.82352941,,,,,,down,0,1.573,,0.347222222,-0.033333355,1,0,0,0,65,65,115,1,kleren,images/br_kleren.png,images/cb_kleren.png,0,,,,,,,,,,,,,,,,,,,,,,
,,,,,00060,2023-10-12_19h04.44.958,vbt_B1_day3,2022.2.4,Win32,58.82352941,,,,,,down,0,4.904,,0.287037037,-0.116666653,1,0,0,0,66,66,15,1,soda,images/br_soda.png,images/cb_soda.png,0,,,,,,,,,,,,,,,,,,,,,,
,,,,,00060,2023-10-12_19h04.44.958,vbt_B1_day3,2022.2.4,Win32,58.82352941,,,,,,down,0,6.219,,0.317592621,-0.091666681,1,0,0,0,67,67,179,1,woestijn,images/br_woestijn.png,images/cb_woestijn.png,0,,,,,,,,,,,,,,,,,,,,,,
,,,,,00060,2023-10-12_19h04.44.958,vbt_B1_day3,2022.2.4,Win32,58.82352941,,,,,,down,0,1.903,,0.349074046,-0.116666653,1,0,0,0,68,68,138,1,akkoord,images/br_akkoord.png,images/cb_akkoord.png,0,,,,,,,,,,,,,,,,,,,,,,
,,,,,00060,2023-10-12_19h04.44.958,vbt_B1_day3,2022.2.4,Win32,58.82352941,,,,,,down,0,3.3,,0.349074046,-0.116666653,1,0,0,0,69,69,67,1,zwart,images/br_zwart.png,images/cb_zwart.png,0,,,,,,,,,,,,,,,,,,,,,,
,,,,,00060,2023-10-12_19h04.44.958,vbt_B1_day3,2022.2.4,Win32,58.82352941,,,,,,down,0,2.733,,0.349074046,-0.115740741,1,0,0,0,70,70,140,1,blijven,images/br_blijven.png,images/cb_blijven.png,1,blijven,,,,,,,,,,,,,,,,,,,,,
,,,,,00060,2023-10-12_19h04.44.958,vbt_B1_day3,2022.2.4,Win32,58.82352941,,,,,,down,0,1.877,,0.303703732,-0.112963005,1,0,0,0,71,71,6,1,diep,images/br_diep.png,images/cb_diep.png,0,,,,,,,,,,,,,,,,,,,,,,
,,,,,00060,2023-10-12_19h04.44.958,vbt_B1_day3,2022.2.4,Win32,58.82352941,,,,,,down,0,2.089,,0.36018527,-0.10092594,1,0,0,0,72,72,31,1,poes,images/br_poes.png,images/cb_poes.png,0,,,,,,,,,,,,,,,,,,,,,,
,,,,,00060,2023-10-12_19h04.44.958,vbt_B1_day3,2022.2.4,Win32,58.82352941,,,,,,down,0,1.628,,0.291666667,-0.083333333,1,0,0,0,73,73,126,1,kasteel,images/br_kasteel.png,images/cb_kasteel.png,0,,,,,,,,,,,,,,,,,,,,,,
,,,,,00060,2023-10-12_19h04.44.958,vbt_B1_day3,2022.2.4,Win32,58.82352941,,,,,,down,0,0.619,,0.325000057,-0.128703718,1,0,0,0,74,74,59,1,kring,images/br_kring.png,images/cb_kring.png,0,,,,,,,,,,,,,,,,,,,,,,
,,,,,00060,2023-10-12_19h04.44.958,vbt_B1_day3,2022.2.4,Win32,58.82352941,,,,,,down,0,1.267,,0.325000057,-0.128703718,1,0,0,0,75,75,78,1,leren,images/br_leren.png,images/cb_leren.png,0,,,,,,,,,,,,,,,,,,,,,,
,,,,,00060,2023-10-12_19h04.44.958,vbt_B1_day3,2022.2.4,Win32,58.82352941,,,,,,down,0,0.701,,0.347222222,-0.101851852,1,0,0,0,76,76,41,1,maken,images/br_maken.png,images/cb_maken.png,0,,,,,,,,,,,,,,,,,,,,,,
,,,,,00060,2023-10-12_19h04.44.958,vbt_B1_day3,2022.2.4,Win32,58.82352941,,,,,,down,0,1.439,,0.262962977,-0.128703718,1,0,0,0,77,77,184,1,aandelen,images/br_aandelen.png,images/cb_aandelen.png,0,,,,,,,,,,,,,,,,,,,,,,
,,,,,00060,2023-10-12_19h04.44.958,vbt_B1_day3,2022.2.4,Win32,58.82352941,,,,,,down,0,0.108,,0.271296325,-0.104629658,1,0,0,0,78,78,39,1,laag,images/br_laag.png,images/cb_laag.png,0,,,,,,,,,,,,,,,,,,,,,,
,,,,,00060,2023-10-12_19h04.44.958,vbt_B1_day3,2022.2.4,Win32,58.82352941,,,,,,down,0,1.461,,0.271296325,-0.104629658,1,0,0,0,79,79,40,1,schep,images/br_schep.png,images/cb_schep.png,0,,,,,,,,,,,,,,,,,,,,,,
,,,,,00060,2023-10-12_19h04.44.958,vbt_B1_day3,2022.2.4,Win32,58.82352941,,,,,,down,0,5.055,,0.291666667,-0.148148148,1,0,0,0,80,80,180,1,openbaar,images/br_openbaar.png,images/cb_openbaar.png,1,openbaar,,,,,,,,,,,,,,,,,,,,,
,,,,,00060,2023-10-12_19h04.44.958,vbt_B1_day3,2022.2.4,Win32,58.82352941,,,,,,down,0,5.184,,0.309259344,-0.162962949,1,0,0,0,81,81,133,1,seizoen,images/br_seizoen.png,images/cb_seizoen.png,0,,,,,,,,,,,,,,,,,,,,,,
,,,,,00060,2023-10-12_19h04.44.958,vbt_B1_day3,2022.2.4,Win32,58.82352941,,,,,,down,0,1.318,,0.32685188,-0.10555557,1,0,0,0,82,82,28,1,stal,images/br_stal.png,images/cb_stal.png,0,,,,,,,,,,,,,,,,,,,,,,
,,,,,00060,2023-10-12_19h04.44.958,vbt_B1_day3,2022.2.4,Win32,58.82352941,,,,,,down,0,0.969,,0.304629714,-0.085185192,1,0,0,0,83,83,85,1,heilig,images/br_heilig.png,images/cb_heilig.png,0,,,,,,,,,,,,,,,,,,,,,,
,,,,,00060,2023-10-12_19h04.44.958,vbt_B1_day3,2022.2.4,Win32,58.82352941,,,,,,down,0,3.306,,0.30277775,-0.093518504,1,0,0,0,84,84,141,1,knielen,images/br_knielen.png,images/cb_knielen.png,1,knielen,,,,,,,,,,,,,,,,,,,,,
,,,,,00060,2023-10-12_19h04.44.958,vbt_B1_day3,2022.2.4,Win32,58.82352941,,,,,,down,0,0.756,,0.316666638,-0.147222236,1,0,0,0,85,85,68,1,schat,images/br_schat.png,images/cb_schat.png,0,,,,,,,,,,,,,,,,,,,,,,
,,,,,00060,2023-10-12_19h04.44.958,vbt_B1_day3,2022.2.4,Win32,58.82352941,,,,,,down,0,0.653,,0.306481538,-0.160185213,1,0,0,0,86,86,38,1,baai,images/br_baai.png,images/cb_baai.png,0,,,,,,,,,,,,,,,,,,,,,,
,,,,,00060,2023-10-12_19h04.44.958,vbt_B1_day3,2022.2.4,Win32,58.82352941,,,,,,down,0,3.427,,0.295370384,-0.152777778,1,0,0,0,87,87,26,1,leuk,images/br_leuk.png,images/cb_leuk.png,0,,,,,,,,,,,,,,,,,,,,,,
,,,,,00060,2023-10-12_19h04.44.958,vbt_B1_day3,2022.2.4,Win32,58.82352941,,,,,,down,0,2.484,,0.270370413,-0.107407393,1,0,0,0,88,88,24,1,jurk,images/br_jurk.png,images/cb_jurk.png,0,,,,,,,,,,,,,,,,,,,,,,
,,,,,00060,2023-10-12_19h04.44.958,vbt_B1_day3,2022.2.4,Win32,58.82352941,,,,,,down,0,1.534,,0.27870369,-0.146296325,1,0,0,0,89,89,74,1,graaf,images/br_graaf.png,images/cb_graaf.png,0,,,,,,,,,,,,,,,,,,,,,,
,,,,,00060,2023-10-12_19h04.44.958,vbt_B1_day3,2022.2.4,Win32,58.82352941,,,,,,down,0,5.225,,0.323148233,-0.175925926,1,0,0,0,90,90,128,1,prikken,images/br_prikken.png,images/cb_prikken.png,0,,,,,,,,,,,,,,,,,,,,,,
,,,,,00060,2023-10-12_19h04.44.958,vbt_B1_day3,2022.2.4,Win32,58.82352941,,,,,,down,0,2.422,,0.293518561,-0.148148148,1,0,0,0,91,91,45,1,piste,images/br_piste.png,images/cb_piste.png,0,,,,,,,,,,,,,,,,,,,,,,
,,,,,00060,2023-10-12_19h04.44.958,vbt_B1_day3,2022.2.4,Win32,58.82352941,,,,,,down,0,0.734,,0.293518561,-0.148148148,1,0,0,0,92,92,52,1,wagon,images/br_wagon.png,images/cb_wagon.png,0,,,,,,,,,,,,,,,,,,,,,,
,,,,,00060,2023-10-12_19h04.44.958,vbt_B1_day3,2022.2.4,Win32,58.82352941,,,,,,down,0,6.077,,0.304629714,-0.202777792,1,0,0,0,93,93,177,1,maaltijd,images/br_maaltijd.png,images/cb_maaltijd.png,0,,,,,,,,,,,,,,,,,,,,,,
,,,,,00060,2023-10-12_19h04.44.958,vbt_B1_day3,2022.2.4,Win32,58.82352941,,,,,,down,0,0.671,,0.304629714,-0.202777792,1,0,0,0,94,94,97,1,loyaal,images/br_loyaal.png,images/cb_loyaal.png,0,,,,,,,,,,,,,,,,,,,,,,
,,,,,00060,2023-10-12_19h04.44.958,vbt_B1_day3,2022.2.4,Win32,58.82352941,,,,,,down,0,14.984,,0.25462963,-0.193518533,1,0,0,0,95,95,7,1,geld,images/br_geld.png,images/cb_geld.png,0,,,,,,,,,,,,,,,,,,,,,,
,,,,,00060,2023-10-12_19h04.44.958,vbt_B1_day3,2022.2.4,Win32,58.82352941,,,,,,down,0,5.053,,0.26944443,-0.154629672,1,0,0,0,96,96,161,1,attentie,images/br_attentie.png,images/cb_attentie.png,0,,,,,,,,,,,,,,,,,,,,,,
,,,,,00060,2023-10-12_19h04.44.958,vbt_B1_day3,2022.2.4,Win32,58.82352941,,,,,,down,0,5.617,,0.405555584,-0.14907406,1,0,0,0,97,97,111,1,ticket,images/br_ticket.png,images/cb_ticket.png,0,,,,,,,,,,,,,,,,,,,,,,
,,,,,00060,2023-10-12_19h04.44.958,vbt_B1_day3,2022.2.4,Win32,58.82352941,,,,,,down,0,4.449,,0.362962935,-0.122222265,1,0,0,0,98,98,44,1,flits,images/br_flits.png,images/cb_flits.png,0,,,,,,,,,,,,,,,,,,,,,,
,,,,,00060,2023-10-12_19h04.44.958,vbt_B1_day3,2022.2.4,Win32,58.82352941,,,,,,down,0,2.1,,0.348148205,-0.130555541,1,0,0,0,99,99,139,1,stiekem,images/br_stiekem.png,images/cb_stiekem.png,0,,,,,,,,,,,,,,,,,,,,,,
,,,,,00060,2023-10-12_19h04.44.958,vbt_B1_day3,2022.2.4,Win32,58.82352941,,,,,,down,0,1.695,,0.304629714,-0.151851866,1,0,0,0,100,100,146,1,opkomen,images/br_opkomen.png,images/cb_opkomen.png,0,,,,,,,,,,,,,,,,,,,,,,
,,,,,00060,2023-10-12_19h04.44.958,vbt_B1_day3,2022.2.4,Win32,58.82352941,,,,,,down,0,1.75,,0.300000085,-0.155555584,1,0,0,0,101,101,124,1,bloeien,images/br_bloeien.png,images/cb_bloeien.png,0,,,,,,,,,,,,,,,,,,,,,,
,,,,,00060,2023-10-12_19h04.44.958,vbt_B1_day3,2022.2.4,Win32,58.82352941,,,,,,down,0,2.233,,0.294444473,-0.159259302,1,0,0,0,102,102,144,1,eetlust,images/br_eetlust.png,images/cb_eetlust.png,0,,,,,,,,,,,,,,,,,,,,,,
,,,,,00060,2023-10-12_19h04.44.958,vbt_B1_day3,2022.2.4,Win32,58.82352941,,,,,,down,0,0.034,,0.294444473,-0.159259302,1,0,0,0,103,103,50,1,stoom,images/br_stoom.png,images/cb_stoom.png,0,,,,,,,,,,,,,,,,,,,,,,
,,,,,00060,2023-10-12_19h04.44.958,vbt_B1_day3,2022.2.4,Win32,58.82352941,,,,,,down,0,7.242,,0.25,-0.148148148,1,0,0,0,104,104,94,1,oceaan,images/br_oceaan.png,images/cb_oceaan.png,0,,,,,,,,,,,,,,,,,,,,,,
,,,,,00060,2023-10-12_19h04.44.958,vbt_B1_day3,2022.2.4,Win32,58.82352941,,,,,,down,0,7.541,,0.294444473,-0.145370413,1,0,0,0,105,105,122,1,waarvan,images/br_waarvan.png,images/cb_waarvan.png,0,,,,,,,,,,,,,,,,,,,,,,
,,,,,00060,2023-10-12_19h04.44.958,vbt_B1_day3,2022.2.4,Win32,58.82352941,,,,,,down,0,2.324,,0.262962977,-0.175000014,1,0,0,0,106,106,164,1,anarchie,images/br_anarchie.png,images/cb_anarchie.png,0,,,,,,,,,,,,,,,,,,,,,,
,,,,,00060,2023-10-12_19h04.44.958,vbt_B1_day3,2022.2.4,Win32,58.82352941,,,,,,down,0,5.901,,0.253703718,-0.164814843,1,0,0,0,107,107,82,1,muziek,images/br_muziek.png,images/cb_muziek.png,0,,,,,,,,,,,,,,,,,,,,,,
,,,,,00060,2023-10-12_19h04.44.958,vbt_B1_day3,2022.2.4,Win32,58.82352941,,,,,,down,0,2.618,,0.325925898,-0.154629672,1,0,0,0,108,108,151,1,aanzoek,images/br_aanzoek.png,images/cb_aanzoek.png,0,,,,,,,,,,,,,,,,,,,,,,
,,,,,00060,2023-10-12_19h04.44.958,vbt_B1_day3,2022.2.4,Win32,58.82352941,,,,,,down,0,1.588,,0.320370427,-0.151851866,1,0,0,0,109,109,136,1,waarbij,images/br_waarbij.png,images/cb_waarbij.png,0,,,,,,,,,,,,,,,,,,,,,,
,,,,,00060,2023-10-12_19h04.44.958,vbt_B1_day3,2022.2.4,Win32,58.82352941,,,,,,down,0,2.673,,0.295370384,-0.168518561,1,0,0,0,110,110,51,1,samen,images/br_samen.png,images/cb_samen.png,0,,,,,,,,,,,,,,,,,,,,,,
,,,,,00060,2023-10-12_19h04.44.958,vbt_B1_day3,2022.2.4,Win32,58.82352941,,,,,,down,0,1.992,,0.294444473,-0.167592578,1,0,0,0,111,111,34,1,vorm,images/br_vorm.png,images/cb_vorm.png,0,,,,,,,,,,,,,,,,,,,,,,
,,,,,00060,2023-10-12_19h04.44.958,vbt_B1_day3,2022.2.4,Win32,58.82352941,,,,,,down,0,5.953,,0.279629672,-0.165740755,1,0,0,0,112,112,145,1,invloed,images/br_invloed.png,images/cb_invloed.png,0,,,,,,,,,,,,,,,,,,,,,,
,,,,,00060,2023-10-12_19h04.44.958,vbt_B1_day3,2022.2.4,Win32,58.82352941,,,,,,down,0,6.435,,0.275925954,-0.160185213,1,0,0,0,113,113,154,1,aflopen,images/br_aflopen.png,images/cb_aflopen.png,0,,,,,,,,,,,,,,,,,,,,,,
,,,,,00060,2023-10-12_19h04.44.958,vbt_B1_day3,2022.2.4,Win32,58.82352941,,,,,,down,0,2.801,,0.239814829,-0.14444443,1,0,0,0,114,114,104,1,zweven,images/br_zweven.png,images/cb_zweven.png,0,,,,,,,,,,,,,,,,,,,,,,
,,,,,00060,2023-10-12_19h04.44.958,vbt_B1_day3,2022.2.4,Win32,58.82352941,,,,,,down,0,0.951,,0.239814829,-0.14444443,1,0,0,0,115,115,56,1,traag,images/br_traag.png,images/cb_traag.png,0,,,,,,,,,,,,,,,,,,,,,,
,,,,,00060,2023-10-12_19h04.44.958,vbt_B1_day3,2022.2.4,Win32,58.82352941,,,,,,down,0,3.883,,0.24537037,-0.161111125,1,0,0,0,116,116,195,1,middelen,images/br_middelen.png,images/cb_middelen.png,0,,,,,,,,,,,,,,,,,,,,,,
,,,,,00060,2023-10-12_19h04.44.958,vbt_B1_day3,2022.2.4,Win32,58.82352941,,,,,,down,0,4.126,,0.24537037,-0.161111125,1,0,0,0,117,117,153,1,vervoer,images/br_vervoer.png,images/cb_vervoer.png,0,,,,,,,,,,,,,,,,,,,,,,
,,,,,00060,2023-10-12_19h04.44.958,vbt_B1_day3,2022.2.4,Win32,58.82352941,,,,,,down,0,8.123,,0.296296296,-0.171296296,1,0,0,0,118,118,183,1,getuigen,images/br_getuigen.png,images/cb_getuigen.png,1,getuigen,,,,,,,,,,,,,,,,,,,,,
,,,,,00060,2023-10-12_19h04.44.958,vbt_B1_day3,2022.2.4,Win32,58.82352941,,,,,,down,0,1.549,,0.328703704,-0.192592621,1,0,0,0,119,119,116,1,besmet,images/br_besmet.png,images/cb_besmet.png,0,,,,,,,,,,,,,,,,,,,,,,
,,,,,00060,2023-10-12_19h04.44.958,vbt_B1_day3,2022.2.4,Win32,58.82352941,,,,,,down,0,1.52,,0.248148176,-0.198148162,1,0,0,0,120,120,88,1,boeien,images/br_boeien.png,images/cb_boeien.png,0,,,,,,,,,,,,,,,,,,,,,,
,,,,,00060,2023-10-12_19h04.44.958,vbt_B1_day3,2022.2.4,Win32,58.82352941,,,,,,down,0,3.108,,0.241666653,-0.156481496,1,0,0,0,121,121,11,1,mode,images/br_mode.png,images/cb_mode.png,0,,,,,,,,,,,,,,,,,,,,,,
,,,,,00060,2023-10-12_19h04.44.958,vbt_B1_day3,2022.2.4,Win32,58.82352941,,,,,,down,0,2.324,,0.262962977,-0.15370369,1,0,0,0,122,122,101,1,staren,images/br_staren.png,images/cb_staren.png,1,staren,,,,,,,,,,,,,,,,,,,,,
,,,,,00060,2023-10-12_19h04.44.958,vbt_B1_day3,2022.2.4,Win32,58.82352941,,,,,,down,0,20.947,,0.262962977,-0.15370369,1,0,0,0,123,123,95,1,vreten,images/br_vreten.png,images/cb_vreten.png,0,,,,,,,,,,,,,,,,,,,,,,
,,,,,00060,2023-10-12_19h04.44.958,vbt_B1_day3,2022.2.4,Win32,58.82352941,,,,,,down,0,0.419,,0.248148176,-0.103703746,1,0,0,0,124,124,8,1,knie,images/br_knie.png,images/cb_knie.png,0,,,,,,,,,,,,,,,,,,,,,,
,,,,,00060,2023-10-12_19h04.44.958,vbt_B1_day3,2022.2.4,Win32,58.82352941,,,,,,down,0,2.182,,0.176851838,-0.185185185,1,0,0,0,125,125,121,1,twijfel,images/br_twijfel.png,images/cb_twijfel.png,0,,,,,,,,,,,,,,,,,,,,,,
,,,,,00060,2023-10-12_19h04.44.958,vbt_B1_day3,2022.2.4,Win32,58.82352941,,,,,,down,0,1.978,,0.253703718,-0.15370369,1,0,0,0,126,126,134,1,geliefd,images/br_geliefd.png,images/cb_geliefd.png,0,,,,,,,,,,,,,,,,,,,,,,
,,,,,00060,2023-10-12_19h04.44.958,vbt_B1_day3,2022.2.4,Win32,58.82352941,,,,,,down,0,4.204,,0.372222194,-0.125925912,1,0,0,0,127,127,65,1,parel,images/br_parel.png,images/cb_parel.png,0,,,,,,,,,,,,,,,,,,,,,,
,,,,,00060,2023-10-12_19h04.44.958,vbt_B1_day3,2022.2.4,Win32,58.82352941,,,,,,down,0,4.589,,0.387037065,-0.17777782,1,0,0,0,128,128,93,1,waarop,images/br_waarop.png,images/cb_waarop.png,0,,,,,,,,,,,,,,,,,,,,,,
,,,,,00060,2023-10-12_19h04.44.958,vbt_B1_day3,2022.2.4,Win32,58.82352941,,,,,,down,0,3.074,,0.335185157,-0.150000042,1,0,0,0,129,129,14,1,rijp,images/br_rijp.png,images/cb_rijp.png,0,,,,,,,,,,,,,,,,,,,,,,
,,,,,00060,2023-10-12_19h04.44.958,vbt_B1_day3,2022.2.4,Win32,58.82352941,,,,,,down,0,3.309,,0.363888917,-0.164814843,1,0,0,0,130,130,110,1,zuster,images/br_zuster.png,images/cb_zuster.png,0,,,,,,,,,,,,,,,,,,,,,,
,,,,,00060,2023-10-12_19h04.44.958,vbt_B1_day3,2022.2.4,Win32,58.82352941,,,,,,down,0,3.317,,0.366666723,-0.161111125,1,0,0,0,131,131,158,1,innemen,images/br_innemen.png,images/cb_innemen.png,0,,,,,,,,,,,,,,,,,,,,,,
,,,,,00060,2023-10-12_19h04.44.958,vbt_B1_day3,2022.2.4,Win32,58.82352941,,,,,,down,0,1.976,,0.399999972,-0.137037065,1,0,0,0,132,132,37,1,mijn,images/br_mijn.png,images/cb_mijn.png,0,,,,,,,,,,,,,,,,,,,,,,
,,,,,00060,2023-10-12_19h04.44.958,vbt_B1_day3,2022.2.4,Win32,58.82352941,,,,,,down,0,0.233,,0.358333305,-0.155555584,1,0,0,0,133,133,132,1,grappen,images/br_grappen.png,images/cb_grappen.png,0,,,,,,,,,,,,,,,,,,,,,,
,,,,,00060,2023-10-12_19h04.44.958,vbt_B1_day3,2022.2.4,Win32,58.82352941,,,,,,down,0,1.553,,0.358333305,-0.155555584,1,0,0,0,134,134,196,1,nakijken,images/br_nakijken.png,images/cb_nakijken.png,0,,,,,,,,,,,,,,,,,,,,,,
,,,,,00060,2023-10-12_19h04.44.958,vbt_B1_day3,2022.2.4,Win32,58.82352941,,,,,,down,0,1.207,,0.347222222,-0.150000042,1,0,0,0,135,135,98,1,kreeft,images/br_kreeft.png,images/cb_kreeft.png,0,,,,,,,,,,,,,,,,,,,,,,
,,,,,00060,2023-10-12_19h04.44.958,vbt_B1_day3,2022.2.4,Win32,58.82352941,,,,,,down,0,2.506,,0.345370399,-0.147222236,1,0,0,0,136,136,114,1,vullen,images/br_vullen.png,images/cb_vullen.png,0,,,,,,,,,,,,,,,,,,,,,,
,,,,,00060,2023-10-12_19h04.44.958,vbt_B1_day3,2022.2.4,Win32,58.82352941,,,,,,down,0,2.305,,0.334259316,-0.146296325,1,0,0,0,137,137,30,1,uien,images/br_uien.png,images/cb_uien.png,0,,,,,,,,,,,,,,,,,,,,,,
,,,,,00060,2023-10-12_19h04.44.958,vbt_B1_day3,2022.2.4,Win32,58.82352941,,,,,,down,0,1.268,,0.300925926,-0.161111125,1,0,0,0,138,138,3,1,mand,images/br_mand.png,images/cb_mand.png,0,,,,,,,,,,,,,,,,,,,,,,
,,,,,00060,2023-10-12_19h04.44.958,vbt_B1_day3,2022.2.4,Win32,58.82352941,,,,,,down,0,2.002,,0.300000085,-0.159259302,1,0,0,0,139,139,18,1,blik,images/br_blik.png,images/cb_blik.png,0,,,,,,,,,,,,,,,,,,,,,,
,,,,,00060,2023-10-12_19h04.44.958,vbt_B1_day3,2022.2.4,Win32,58.82352941,,,,,,down,0,3.334,,0.300000085,-0.159259302,1,0,0,0,140,140,21,1,mist,images/br_mist.png,images/cb_mist.png,1,mist,,,,,,,,,,,,,,,,,,,,,
,,,,,00060,2023-10-12_19h04.44.958,vbt_B1_day3,2022.2.4,Win32,58.82352941,,,,,,down,0,28.532,,0.320370427,-0.161111125,1,0,0,0,141,141,176,1,techniek,images/br_techniek.png,images/cb_techniek.png,0,,,,,,,,,,,,,,,,,,,,,,
,,,,,00060,2023-10-12_19h04.44.958,vbt_B1_day3,2022.2.4,Win32,58.82352941,,,,,,down,0,0.634,,0.281481496,-0.150000042,1,0,0,0,142,142,99,1,koffie,images/br_koffie.png,images/cb_koffie.png,0,,,,,,,,,,,,,,,,,,,,,,
,,,,,00060,2023-10-12_19h04.44.958,vbt_B1_day3,2022.2.4,Win32,58.82352941,,,,,,down,0,9.559,,0.223148134,-0.020370377,1,0,0,0,143,143,155,1,gerucht,images/br_gerucht.png,images/cb_gerucht.png,0,,,,,,,,,,,,,,,,,,,,,,
,,,,,00060,2023-10-12_19h04.44.958,vbt_B1_day3,2022.2.4,Win32,58.82352941,,,,,,down,0,7.022,,0.169444473,-0.145370413,1,0,0,0,144,144,178,1,huisdier,images/br_huisdier.png,images/cb_huisdier.png,0,,,,,,,,,,,,,,,,,,,,,,
,,,,,00060,2023-10-12_19h04.44.958,vbt_B1_day3,2022.2.4,Win32,58.82352941,,,,,,down,0,0.359,,0.316666638,-0.160185213,1,0,0,0,145,145,112,1,lukken,images/br_lukken.png,images/cb_lukken.png,0,,,,,,,,,,,,,,,,,,,,,,
,,,,,00060,2023-10-12_19h04.44.958,vbt_B1_day3,2022.2.4,Win32,58.82352941,,,,,,down,0,4.35,,0.325925898,-0.126851894,1,0,0,0,146,146,197,1,spanning,images/br_spanning.png,images/cb_spanning.png,0,,,,,,,,,,,,,,,,,,,,,,
,,,,,00060,2023-10-12_19h04.44.958,vbt_B1_day3,2022.2.4,Win32,58.82352941,,,,,,down,0,1.768,,0.338888945,-0.136111153,1,0,0,0,147,147,77,1,woede,images/br_woede.png,images/cb_woede.png,0,,,,,,,,,,,,,,,,,,,,,,
,,,,,00060,2023-10-12_19h04.44.958,vbt_B1_day3,2022.2.4,Win32,58.82352941,,,,,,down,0,2.836,,0.338888945,-0.136111153,1,0,0,0,148,148,63,1,flirt,images/br_flirt.png,images/cb_flirt.png,1,flirt,,,,,,,,,,,,,,,,,,,,,
,,,,,00060,2023-10-12_19h04.44.958,vbt_B1_day3,2022.2.4,Win32,58.82352941,,,,,,down,0,3.101,,0.337962963,-0.164814843,1,0,0,0,149,149,156,1,rechten,images/br_rechten.png,images/cb_rechten.png,0,,,,,,,,,,,,,,,,,,,,,,
,,,,,00060,2023-10-12_19h04.44.958,vbt_B1_day3,2022.2.4,Win32,58.82352941,,,,,,down,0,0.628,,0.33148151,-0.14907406,1,0,0,0,150,150,10,1,leek,images/br_leek.png,images/cb_leek.png,0,,,,,,,,,,,,,,,,,,,,,,
,,,,,00060,2023-10-12_19h04.44.958,vbt_B1_day3,2022.2.4,Win32,58.82352941,,,,,,down,0,0.451,,0.339814787,-0.14444443,1,0,0,0,151,151,29,1,baas,images/br_baas.png,images/cb_baas.png,0,,,,,,,,,,,,,,,,,,,,,,
,,,,,00060,2023-10-12_19h04.44.958,vbt_B1_day3,2022.2.4,Win32,58.82352941,,,,,,down,0,3.535,,0.334259316,-0.14444443,1,0,0,0,152,152,182,1,bijkomen,images/br_bijkomen.png,images/cb_bijkomen.png,1,bijkomen,,,,,,,,,,,,,,,,,,,,,
,,,,,00060,2023-10-12_19h04.44.958,vbt_B1_day3,2022.2.4,Win32,58.82352941,,,,,,down,0,2.384,,0.323148233,-0.14907406,1,0,0,0,153,153,79,1,nodig,images/br_nodig.png,images/cb_nodig.png,0,,,,,,,,,,,,,,,,,,,,,,
,,,,,00060,2023-10-12_19h04.44.958,vbt_B1_day3,2022.2.4,Win32,58.82352941,,,,,,down,0,4.01,,0.325000057,-0.161111125,1,0,0,0,154,154,100,1,geduld,images/br_geduld.png,images/cb_geduld.png,1,geduld,,,,,,,,,,,,,,,,,,,,,
,,,,,00060,2023-10-12_19h04.44.958,vbt_B1_day3,2022.2.4,Win32,58.82352941,,,,,,down,0,4.974,,0.313888974,-0.157407407,1,0,0,0,155,155,70,1,ijdel,images/br_ijdel.png,images/cb_ijdel.png,0,,,,,,,,,,,,,,,,,,,,,,
,,,,,00060,2023-10-12_19h04.44.958,vbt_B1_day3,2022.2.4,Win32,58.82352941,,,,,,down,0,1.867,,0.305555556,-0.168518561,1,0,0,0,156,156,150,1,gegeven,images/br_gegeven.png,images/cb_gegeven.png,0,,,,,,,,,,,,,,,,,,,,,,
,,,,,00060,2023-10-12_19h04.44.958,vbt_B1_day3,2022.2.4,Win32,58.82352941,,,,,,down,0,2.61,,0.295370384,-0.160185213,1,0,0,0,157,157,186,1,voorraad,images/br_voorraad.png,images/cb_voorraad.png,0,,,,,,,,,,,,,,,,,,,,,,
,,,,,00060,2023-10-12_19h04.44.958,vbt_B1_day3,2022.2.4,Win32,58.82352941,,,,,,down,0,3.208,,0.336111139,-0.148148148,1,0,0,0,158,158,192,1,schaamte,images/br_schaamte.png,images/cb_schaamte.png,0,,,,,,,,,,,,,,,,,,,,,,
,,,,,00060,2023-10-12_19h04.44.958,vbt_B1_day3,2022.2.4,Win32,58.82352941,,,,,,down,0,2.084,,0.357407464,-0.15370369,1,0,0,0,159,159,54,1,gebit,images/br_gebit.png,images/cb_gebit.png,0,,,,,,,,,,,,,,,,,,,,,,
,,,,,00060,2023-10-12_19h04.44.958,vbt_B1_day3,2022.2.4,Win32,58.82352941,,,,,,down,0,1.103,,0.35555564,-0.152777778,1,0,0,0,160,160,81,1,dubbel,images/br_dubbel.png,images/cb_dubbel.png,0,,,,,,,,,,,,,,,,,,,,,,
,,,,,00060,2023-10-12_19h04.44.958,vbt_B1_day3,2022.2.4,Win32,58.82352941,,,,,,down,0,4.509,,0.35555564,-0.152777778,1,0,0,0,161,161,142,1,snuiven,images/br_snuiven.png,images/cb_snuiven.png,1,snuiven,,,,,,,,,,,,,,,,,,,,,
,,,,,00060,2023-10-12_19h04.44.958,vbt_B1_day3,2022.2.4,Win32,58.82352941,,,,,,down,0,2.733,,0.333333333,-0.155555584,1,0,0,0,162,162,92,1,geheim,images/br_geheim.png,images/cb_geheim.png,0,,,,,,,,,,,,,,,,,,,,,,
,,,,,00060,2023-10-12_19h04.44.958,vbt_B1_day3,2022.2.4,Win32,58.82352941,,,,,,down,0,0.05,,0.300925926,-0.140740783,1,0,0,0,163,163,46,1,jagen,images/br_jagen.png,images/cb_jagen.png,0,,,,,,,,,,,,,,,,,,,,,,
,,,,,00060,2023-10-12_19h04.44.958,vbt_B1_day3,2022.2.4,Win32,58.82352941,,,,,,down,0,3.2,,0.297222279,-0.140740783,1,0,0,0,164,164,135,1,gedicht,images/br_gedicht.png,images/cb_gedicht.png,0,,,,,,,,,,,,,,,,,,,,,,
,,,,,00060,2023-10-12_19h04.44.958,vbt_B1_day3,2022.2.4,Win32,58.82352941,,,,,,down,0,0.761,,0.316666638,-0.128703718,1,0,0,0,165,165,120,1,klimmen,images/br_klimmen.png,images/cb_klimmen.png,0,,,,,,,,,,,,,,,,,,,,,,
,,,,,00060,2023-10-12_19h04.44.958,vbt_B1_day3,2022.2.4,Win32,58.82352941,,,,,,down,0,2.7,,0.324074074,-0.116666653,1,0,0,0,166,166,191,1,opheffen,images/br_opheffen.png,images/cb_opheffen.png,0,,,,,,,,,,,,,,,,,,,,,,
,,,,,00060,2023-10-12_19h04.44.958,vbt_B1_day3,2022.2.4,Win32,58.82352941,,,,,,down,0,0.038,,0.191666709,-0.164814843,1,0,0,0,167,167,2,1,jaar,images/br_jaar.png,images/cb_jaar.png,0,,,,,,,,,,,,,,,,,,,,,,
,,,,,00060,2023-10-12_19h04.44.958,vbt_B1_day3,2022.2.4,Win32,58.82352941,,,,,,down,0,0.025,,0.321296268,-0.139814801,1,0,0,0,168,168,13,1,kaal,images/br_kaal.png,images/cb_kaal.png,0,,,,,,,,,,,,,,,,,,,,,,
,,,,,00060,2023-10-12_19h04.44.958,vbt_B1_day3,2022.2.4,Win32,58.82352941,,,,,,down,0,6.26,,0.287962949,-0.127777806,1,0,0,0,169,169,168,1,bisschop,images/br_bisschop.png,images/cb_bisschop.png,0,,,,,,,,,,,,,,,,,,,,,,
,,,,,00060,2023-10-12_19h04.44.958,vbt_B1_day3,2022.2.4,Win32,58.82352941,,,,,,down,0,0.444,,0.273148148,-0.148148148,1,0,0,0,170,170,66,1,lever,images/br_lever.png,images/cb_lever.png,0,,,,,,,,,,,,,,,,,,,,,,
,,,,,00060,2023-10-12_19h04.44.958,vbt_B1_day3,2022.2.4,Win32,58.82352941,,,,,,down,0,3.871,,0.272222236,-0.14444443,1,0,0,0,171,171,105,1,wijlen,images/br_wijlen.png,images/cb_wijlen.png,0,,,,,,,,,,,,,,,,,,,,,,
,,,,,00060,2023-10-12_19h04.44.958,vbt_B1_day3,2022.2.4,Win32,58.82352941,,,,,,down,0,0.734,,0.29814812,-0.142592607,1,0,0,0,172,172,125,1,aanzien,images/br_aanzien.png,images/cb_aanzien.png,0,,,,,,,,,,,,,,,,,,,,,,
,,,,,00060,2023-10-12_19h04.44.958,vbt_B1_day3,2022.2.4,Win32,58.82352941,,,,,,down,0,2.492,,0.276851866,-0.127777806,1,0,0,0,173,173,80,1,kanjer,images/br_kanjer.png,images/cb_kanjer.png,0,,,,,,,,,,,,,,,,,,,,,,
,,,,,00060,2023-10-12_19h04.44.958,vbt_B1_day3,2022.2.4,Win32,58.82352941,,,,,,down,0,3.067,,0.266666695,-0.130555541,1,0,0,0,174,174,76,1,afval,images/br_afval.png,images/cb_afval.png,0,,,,,,,,,,,,,,,,,,,,,,
,,,,,00060,2023-10-12_19h04.44.958,vbt_B1_day3,2022.2.4,Win32,58.82352941,,,,,,down,0,5.355,,0.285185213,-0.131481524,1,0,0,0,175,175,127,1,doodmoe,images/br_doodmoe.png,images/cb_doodmoe.png,0,,,,,,,,,,,,,,,,,,,,,,
,,,,,00060,2023-10-12_19h04.44.958,vbt_B1_day3,2022.2.4,Win32,58.82352941,,,,,,down,0,0.091,,0.282407407,-0.12962963,1,0,0,0,176,176,1,1,zaal,images/br_zaal.png,images/cb_zaal.png,0,,,,,,,,,,,,,,,,,,,,,,
,,,,,00060,2023-10-12_19h04.44.958,vbt_B1_day3,2022.2.4,Win32,58.82352941,,,,,,down,0,2.555,,0.282407407,-0.12962963,1,0,0,0,177,177,181,1,toegeven,images/br_toegeven.png,images/cb_toegeven.png,1,toegeven,,,,,,,,,,,,,,,,,,,,,
,,,,,00060,2023-10-12_19h04.44.958,vbt_B1_day3,2022.2.4,Win32,58.82352941,,,,,,down,0,0.494,,0.292592578,-0.163888931,1,0,0,0,178,178,73,1,volop,images/br_volop.png,images/cb_volop.png,0,,,,,,,,,,,,,,,,,,,,,,
,,,,,00060,2023-10-12_19h04.44.958,vbt_B1_day3,2022.2.4,Win32,58.82352941,,,,,,down,0,4.62,,0.275000042,-0.09629631,1,0,0,0,179,179,148,1,smullen,images/br_smullen.png,images/cb_smullen.png,0,,,,,,,,,,,,,,,,,,,,,,
,,,,,00060,2023-10-12_19h04.44.958,vbt_B1_day3,2022.2.4,Win32,58.82352941,,,,,,down,0,2.034,,0.277777778,-0.099074116,1,0,0,0,180,180,23,1,zout,images/br_zout.png,images/cb_zout.png,1,zout,,,,,,,,,,,,,,,,,,,,,
,,,,,00060,2023-10-12_19h04.44.958,vbt_B1_day3,2022.2.4,Win32,58.82352941,,,,,,down,0,0.702,,0.308333362,-0.137962977,1,0,0,0,181,181,96,1,slagen,images/br_slagen.png,images/cb_slagen.png,0,,,,,,,,,,,,,,,,,,,,,,
,,,,,00060,2023-10-12_19h04.44.958,vbt_B1_day3,2022.2.4,Win32,58.82352941,,,,,,down,0,3.667,,0.318518603,-0.143518519,1,0,0,0,182,182,159,1,sufferd,images/br_sufferd.png,images/cb_sufferd.png,0,,,,,,,,,,,,,,,,,,,,,,
,,,,,00060,2023-10-12_19h04.44.958,vbt_B1_day3,2022.2.4,Win32,58.82352941,,,,,,down,0,1.45,,0.242592635,-0.173148191,1,0,0,0,183,183,89,1,slapen,images/br_slapen.png,images/cb_slapen.png,0,,,,,,,,,,,,,,,,,,,,,,
,,,,,00060,2023-10-12_19h04.44.958,vbt_B1_day3,2022.2.4,Win32,58.82352941,,,,,,down,0,1.542,,0.289814843,-0.184259273,1,0,0,0,184,184,119,1,liefje,images/br_liefje.png,images/cb_liefje.png,0,,,,,,,,,,,,,,,,,,,,,,
,,,,,00060,2023-10-12_19h04.44.958,vbt_B1_day3,2022.2.4,Win32,58.82352941,,,,,,down,0,1.365,,0.304629714,-0.189814815,1,0,0,0,185,185,12,1,kust,images/br_kust.png,images/cb_kust.png,0,,,,,,,,,,,,,,,,,,,,,,
,,,,,00060,2023-10-12_19h04.44.958,vbt_B1_day3,2022.2.4,Win32,58.82352941,,,,,,down,0,0.205,,0.301851908,-0.190740727,1,0,0,0,186,186,42,1,bleek,images/br_bleek.png,images/cb_bleek.png,0,,,,,,,,,,,,,,,,,,,,,,
,,,,,00060,2023-10-12_19h04.44.958,vbt_B1_day3,2022.2.4,Win32,58.82352941,,,,,,down,0,0.102,,0.308333362,-0.17777782,1,0,0,0,187,187,49,1,laken,images/br_laken.png,images/cb_laken.png,0,,,,,,,,,,,,,,,,,,,,,,
,,,,,00060,2023-10-12_19h04.44.958,vbt_B1_day3,2022.2.4,Win32,58.82352941,,,,,,down,0,0.259,,0.308333362,-0.176851838,1,0,0,0,188,188,113,1,koppen,images/br_koppen.png,images/cb_koppen.png,0,,,,,,,,,,,,,,,,,,,,,,
,,,,,00060,2023-10-12_19h04.44.958,vbt_B1_day3,2022.2.4,Win32,58.82352941,,,,,,down,0,2.784,,0.300000085,-0.161111125,1,0,0,0,189,189,123,1,hiervan,images/br_hiervan.png,images/cb_hiervan.png,0,,,,,,,,,,,,,,,,,,,,,,
,,,,,00060,2023-10-12_19h04.44.958,vbt_B1_day3,2022.2.4,Win32,58.82352941,,,,,,down,0,37.879,,0.276851866,-0.14444443,1,0,0,0,190,190,27,1,dans,images/br_dans.png,images/cb_dans.png,0,,,,,,,,,,,,,,,,,,,,,,
,,,,,00060,2023-10-12_19h04.44.958,vbt_B1_day3,2022.2.4,Win32,58.82352941,,,,,,down,0,2.541,,0.339814787,-0.113888917,1,0,0,0,191,191,163,1,schuilen,images/br_schuilen.png,images/cb_schuilen.png,0,,,,,,,,,,,,,,,,,,,,,,
,,,,,00060,2023-10-12_19h04.44.958,vbt_B1_day3,2022.2.4,Win32,58.82352941,,,,,,down,0,0.651,,0.362037094,-0.104629658,1,0,0,0,192,192,137,1,trekker,images/br_trekker.png,images/cb_trekker.png,0,,,,,,,,,,,,,,,,,,,,,,
,,,,,00060,2023-10-12_19h04.44.958,vbt_B1_day3,2022.2.4,Win32,58.82352941,,,,,,down,0,0.295,,0.348148205,-0.056481503,1,0,0,0,193,193,0,1,slak,images/br_slak.png,images/cb_slak.png,0,,,,,,,,,,,,,,,,,,,,,,
,,,,,00060,2023-10-12_19h04.44.958,vbt_B1_day3,2022.2.4,Win32,58.82352941,,,,,,down,0,1.782,,0.323148233,-0.049074067,1,0,0,0,194,194,109,1,totaal,images/br_totaal.png,images/cb_totaal.png,0,,,,,,,,,,,,,,,,,,,,,,
,,,,,00060,2023-10-12_19h04.44.958,vbt_B1_day3,2022.2.4,Win32,58.82352941,,,,,,down,0,3.006,,0.319444444,-0.047222243,1,0,0,0,195,195,162,1,uitdelen,images/br_uitdelen.png,images/cb_uitdelen.png,0,,,,,,,,,,,,,,,,,,,,,,
,,,,,00060,2023-10-12_19h04.44.958,vbt_B1_day3,2022.2.4,Win32,58.82352941,,,,,,down,0,0.608,,0.309259344,-0.086111104,1,0,0,0,196,196,167,1,eenhoorn,images/br_eenhoorn.png,images/cb_eenhoorn.png,0,,,,,,,,,,,,,,,,,,,,,,
,,,,,00060,2023-10-12_19h04.44.958,vbt_B1_day3,2022.2.4,Win32,58.82352941,,,,,,down,0,2.049,,0.27870369,-0.116666653,1,0,0,0,197,197,190,1,goedkoop,images/br_goedkoop.png,images/cb_goedkoop.png,0,,,,,,,,,,,,,,,,,,,,,,
,,,,,00060,2023-10-12_19h04.44.958,vbt_B1_day3,2022.2.4,Win32,58.82352941,,,,,,down,0,6.197,,0.287962949,-0.123148176,1,0,0,0,198,198,165,1,feestdag,images/br_feestdag.png,images/cb_feestdag.png,0,,,,,,,,,,,,,,,,,,,,,,
,,,,,00060,2023-10-12_19h04.44.958,vbt_B1_day3,2022.2.4,Win32,58.82352941,,,,,,down,0,0.24,,0.321296268,-0.102777764,1,0,0,0,199,199,75,1,snoep,images/br_snoep.png,images/cb_snoep.png,0,,,,,,,,,,,,,,,,,,,,,,
,,,,,00060,2023-10-12_19h04.44.958,vbt_B1_day3,2022.2.4,Win32,58.82352941,,,,,,,,,,,,,,,,,,,,,,,,,0.321296268,-0.104629658,1,0,0,,,,,,,,,,,,,,,,
,,,,,00060,2023-10-12_19h04.44.958,vbt_B1_day3,2022.2.4,Win32,58.82352941,,,,,,,,,,,,,,,,,,,,,,,,,,,,,,0.412963019,-0.059259273,1,0,0,,,,,,,,,,,
,,,,,00060,2023-10-12_19h04.44.958,vbt_B1_day3,2022.2.4,Win32,58.82352941,,,,,,,,,,,,,,,,,,,,steel,images/br_steel.png,images/cb_steel.png,,steel,,,,,,,,,,,0.431481538,-0.080555563,1,0,0,steel,0,0,0,4,1
,,,,,00060,2023-10-12_19h04.44.958,vbt_B1_day3,2022.2.4,Win32,58.82352941,,,,,,,,,,,,,,,,,,,,schodel,images/br_schodel.png,images/cb_schodel.png,,schodel,,,,,,,,,,,0.37962963,-0.090740734,1,0,0,schodel,0,1,1,33,1
,,,,,00060,2023-10-12_19h04.44.958,vbt_B1_day3,2022.2.4,Win32,58.82352941,,,,,,,,,,,,,,,,,,,,makieren,images/br_makieren.png,images/cb_makieren.png,,manieren,,,,,,,,,,,0.384259259,-0.102777764,1,0,0,manieren,0,2,2,36,1
,,,,,00060,2023-10-12_19h04.44.958,vbt_B1_day3,2022.2.4,Win32,58.82352941,,,,,,,,,,,,,,,,,,,,sultan,images/br_sultan.png,images/cb_sultan.png,,sultan,,,,,,,,,,,0.295370384,-0.079629651,1,0,0,sultan,0,3,3,49,1
,,,,,00060,2023-10-12_19h04.44.958,vbt_B1_day3,2022.2.4,Win32,58.82352941,,,,,,,,,,,,,,,,,,,,prikken,images/br_prikken.png,images/cb_prikken.png,,prikken,,,,,,,,,,,0.312962991,-0.070370392,1,0,0,prikken,0,4,4,12,1
,,,,,00060,2023-10-12_19h04.44.958,vbt_B1_day3,2022.2.4,Win32,58.82352941,,,,,,,,,,,,,,,,,,,,keihard,images/br_keihard.png,images/cb_keihard.png,,keihard,,,,,,,,,,,0.317592621,-0.09629631,1,0,0,keihard,0,5,5,14,1
,,,,,00060,2023-10-12_19h04.44.958,vbt_B1_day3,2022.2.4,Win32,58.82352941,,,,,,,,,,,,,,,,,,,,opzicht,images/br_opzicht.png,images/cb_opzicht.png,,opzicht,,,,,,,,,,,0.350926011,-0.106481481,1,0,0,opzicht,0,6,6,15,1
,,,,,00060,2023-10-12_19h04.44.958,vbt_B1_day3,2022.2.4,Win32,58.82352941,,,,,,,,,,,,,,,,,,,,samen,images/br_samen.png,images/cb_samen.png,,samen,,,,,,,,,,,0.310185185,-0.08425928,1,0,0,samen,0,7,7,7,1
,,,,,00060,2023-10-12_19h04.44.958,vbt_B1_day3,2022.2.4,Win32,58.82352941,,,,,,,,,,,,,,,,,,,,glijden,images/br_glijden.png,images/cb_glijden.png,,glijden,,,,,,,,,,,0.318518603,-0.098148134,1,0,0,glijden,0,8,8,53,1
,,,,,00060,2023-10-12_19h04.44.958,vbt_B1_day3,2022.2.4,Win32,58.82352941,,,,,,,,,,,,,,,,,,,,vlager,images/br_vlager.png,images/cb_vlager.png,,vlager,,,,,,,,,,,0.262962977,-0.137962977,1,0,0,vlager,0,9,9,28,1
,,,,,00060,2023-10-12_19h04.44.958,vbt_B1_day3,2022.2.4,Win32,58.82352941,,,,,,,,,,,,,,,,,,,,hint,images/br_hint.png,images/cb_hint.png,,hint,,,,,,,,,,,0.231481481,-0.117592635,1,0,0,hint,0,10,10,43,1
,,,,,00060,2023-10-12_19h04.44.958,vbt_B1_day3,2022.2.4,Win32,58.82352941,,,,,,,,,,,,,,,,,,,,gebod,images/br_gebod.png,images/cb_gebod.png,,gebod,,,,,,,,,,,0.317592621,-0.093518504,1,0,0,gebod,0,11,11,45,1
,,,,,00060,2023-10-12_19h04.44.958,vbt_B1_day3,2022.2.4,Win32,58.82352941,,,,,,,,,,,,,,,,,,,,paken,images/br_paken.png,images/cb_paken.png,,paken,,,,,,,,,,,0.3648149,-0.132407436,1,0,0,paken,0,12,12,27,1
,,,,,00060,2023-10-12_19h04.44.958,vbt_B1_day3,2022.2.4,Win32,58.82352941,,,,,,,,,,,,,,,,,,,,booien,images/br_booien.png,images/cb_booien.png,,booien,,,,,,,,,,,0.383333418,-0.044444437,1,0,0,booien,0,13,13,31,1
,,,,,00060,2023-10-12_19h04.44.958,vbt_B1_day3,2022.2.4,Win32,58.82352941,,,,,,,,,,,,,,,,,,,,gout,images/br_gout.png,images/cb_gout.png,,gout,,,,,,,,,,,0.180555556,0.032407407,1,0,0,gout,0,14,14,20,1
,,,,,00060,2023-10-12_19h04.44.958,vbt_B1_day3,2022.2.4,Win32,58.82352941,,,,,,,,,,,,,,,,,,,,gezond,images/br_gezond.png,images/cb_gezond.png,,gezond,,,,,,,,,,,0.319444444,-0.122222265,1,0,0,gezond,0,15,15,11,1
,,,,,00060,2023-10-12_19h04.44.958,vbt_B1_day3,2022.2.4,Win32,58.82352941,,,,,,,,,,,,,,,,,,,,kest,images/br_kest.png,images/cb_kest.png,,kist,,,,,,,,,,,0.268518519,-0.110185199,1,0,0,kist,0,16,16,21,1
,,,,,00060,2023-10-12_19h04.44.958,vbt_B1_day3,2022.2.4,Win32,58.82352941,,,,,,,,,,,,,,,,,,,,afbopen,images/br_afbopen.png,images/cb_afbopen.png,,afbopen,,,,,,,,,,,0.289814843,-0.142592607,1,0,0,afbopen,0,17,17,34,1
,,,,,00060,2023-10-12_19h04.44.958,vbt_B1_day3,2022.2.4,Win32,58.82352941,,,,,,,,,,,,,,,,,,,,leek,images/br_leek.png,images/cb_leek.png,,leek,,,,,,,,,,,0.336111139,-0.116666653,1,0,0,leek,0,18,18,2,1
,,,,,00060,2023-10-12_19h04.44.958,vbt_B1_day3,2022.2.4,Win32,58.82352941,,,,,,,,,,,,,,,,,,,,verraden,images/br_verraden.png,images/cb_verraden.png,,verraden,,,,,,,,,,,0.368518547,-0.093518504,1,0,0,verraden,0,19,19,58,1
,,,,,00060,2023-10-12_19h04.44.958,vbt_B1_day3,2022.2.4,Win32,58.82352941,,,,,,,,,,,,,,,,,,,,beslag,images/br_beslag.png,images/cb_beslag.png,,beslag,,,,,,,,,,,0.342592593,-0.126851894,1,0,0,beslag,0,20,20,51,1
,,,,,00060,2023-10-12_19h04.44.958,vbt_B1_day3,2022.2.4,Win32,58.82352941,,,,,,,,,,,,,,,,,,,,boeien,images/br_boeien.png,images/cb_boeien.png,,boeien,,,,,,,,,,,0.422222279,-0.102777764,1,0,0,boeien,0,21,21,8,1
,,,,,00060,2023-10-12_19h04.44.958,vbt_B1_day3,2022.2.4,Win32,58.82352941,,,,,,,,,,,,,,,,,,,,brappen,images/br_brappen.png,images/cb_brappen.png,,brappen,,,,,,,,,,,0.460185157,-0.150000042,1,0,0,brappen,0,22,22,35,1
,,,,,00060,2023-10-12_19h04.44.958,vbt_B1_day3,2022.2.4,Win32,58.82352941,,,,,,,,,,,,,,,,,,,,twaaf,images/br_twaaf.png,images/cb_twaaf.png,,twaaf,,,,,,,,,,,0.417592649,-0.109259288,1,0,0,twaaf,0,23,23,24,1
,,,,,00060,2023-10-12_19h04.44.958,vbt_B1_day3,2022.2.4,Win32,58.82352941,,,,,,,,,,,,,,,,,,,,opzetten,images/br_opzetten.png,images/cb_opzetten.png,,opzetten,,,,,,,,,,,0.42777775,-0.075925933,1,0,0,opzetten,0,24,24,56,1
,,,,,00060,2023-10-12_19h04.44.958,vbt_B1_day3,2022.2.4,Win32,58.82352941,,,,,,,,,,,,,,,,,,,,bevret,images/br_bevret.png,images/cb_bevret.png,,bevret,,,,,,,,,,,0.428703732,-0.062037044,1,0,0,bevret,0,25,25,30,1
,,,,,00060,2023-10-12_19h04.44.958,vbt_B1_day3,2022.2.4,Win32,58.82352941,,,,,,,,,,,,,,,,,,,,geluid,images/br_geluid.png,images/cb_geluid.png,,geluid,,,,,,,,,,,0.37037037,-0.042592614,1,0,0,geluid,0,26,26,10,1
,,,,,00060,2023-10-12_19h04.44.958,vbt_B1_day3,2022.2.4,Win32,58.82352941,,,,,,,,,,,,,,,,,,,,kaas,images/br_kaas.png,images/cb_kaas.png,,kaas,,,,,,,,,,,0.366666723,-0.065740762,1,0,0,kaas,0,27,27,42,1
,,,,,00060,2023-10-12_19h04.44.958,vbt_B1_day3,2022.2.4,Win32,58.82352941,,,,,,,,,,,,,,,,,,,,uniek,images/br_uniek.png,images/cb_uniek.png,,uniek,,,,,,,,,,,0.310185185,-0.034259266,1,0,0,uniek,0,28,28,46,1
,,,,,00060,2023-10-12_19h04.44.958,vbt_B1_day3,2022.2.4,Win32,58.82352941,,,,,,,,,,,,,,,,,,,,oprotten,images/br_oprotten.png,images/cb_oprotten.png,,oprotten,,,,,,,,,,,0.487962935,-0.066666674,1,0,0,oprotten,0,29,29,17,1
,,,,,00060,2023-10-12_19h04.44.958,vbt_B1_day3,2022.2.4,Win32,58.82352941,,,,,,,,,,,,,,,,,,,,begrip,images/br_begrip.png,images/cb_begrip.png,,begrip,,,,,,,,,,,0.431481538,-0.00462963,1,0,0,begrip,0,30,30,48,1
,,,,,00060,2023-10-12_19h04.44.958,vbt_B1_day3,2022.2.4,Win32,58.82352941,,,,,,,,,,,,,,,,,,,,knie,images/br_knie.png,images/cb_knie.png,,knie,,,,,,,,,,,0.436111168,-0.009259259,1,0,0,knie,0,31,31,0,1
,,,,,00060,2023-10-12_19h04.44.958,vbt_B1_day3,2022.2.4,Win32,58.82352941,,,,,,,,,,,,,,,,,,,,mugeek,images/br_mugeek.png,images/cb_mugeek.png,,mugeek,,,,,,,,,,,0.436111168,-0.157407407,1,0,0,mugeek,0,32,32,29,1
,,,,,00060,2023-10-12_19h04.44.958,vbt_B1_day3,2022.2.4,Win32,58.82352941,,,,,,,,,,,,,,,,,,,,leemaken,images/br_leemaken.png,images/cb_leemaken.png,,leemak,,,,,,,,,,,0.545370455,-0.169444473,1,0,0,leemak,0,33,33,39,1
,,,,,00060,2023-10-12_19h04.44.958,vbt_B1_day3,2022.2.4,Win32,58.82352941,,,,,,,,,,,,,,,,,,,,aarzelen,images/br_aarzelen.png,images/cb_aarzelen.png,,aarzelen,,,,,,,,,,,0.541666667,-0.163888931,1,0,0,aarzelen,0,34,34,19,1
,,,,,00060,2023-10-12_19h04.44.958,vbt_B1_day3,2022.2.4,Win32,58.82352941,,,,,,,,,,,,,,,,,,,,uviek,images/br_uviek.png,images/cb_uviek.png,,uviek,,,,,,,,,,,0.399999972,-0.111111111,1,0,0,uviek,0,35,35,25,1
,,,,,00060,2023-10-12_19h04.44.958,vbt_B1_day3,2022.2.4,Win32,58.82352941,,,,,,,,,,,,,,,,,,,,zone,images/br_zone.png,images/cb_zone.png,,zone,,,,,,,,,,,0.235185199,-0.048148155,1,0,0,zone,0,36,36,41,1
,,,,,00060,2023-10-12_19h04.44.958,vbt_B1_day3,2022.2.4,Win32,58.82352941,,,,,,,,,,,,,,,,,,,,hier,images/br_hier.png,images/cb_hier.png,,hier,,,,,,,,,,,0.352777834,-0.082407422,1,0,0,hier,0,37,37,1,1
,,,,,00060,2023-10-12_19h04.44.958,vbt_B1_day3,2022.2.4,Win32,58.82352941,,,,,,,,,,,,,,,,,,,,croo,images/br_croo.png,images/cb_croo.png,,croo,,,,,,,,,,,0.315740797,-0.098148134,1,0,0,croo,0,38,38,22,1
,,,,,00060,2023-10-12_19h04.44.958,vbt_B1_day3,2022.2.4,Win32,58.82352941,,,,,,,,,,,,,,,,,,,,leugeren,images/br_leugeren.png,images/cb_leugeren.png,,leugeren,,,,,,,,,,,0.411111196,-0.067592586,1,0,0,leugeren,0,39,39,37,1
,,,,,00060,2023-10-12_19h04.44.958,vbt_B1_day3,2022.2.4,Win32,58.82352941,,,,,,,,,,,,,,,,,,,,slapen,images/br_slapen.png,images/cb_slapen.png,,slapen,,,,,,,,,,,0.37962963,-0.070370392,1,0,0,slapen,0,40,40,9,1
,,,,,00060,2023-10-12_19h04.44.958,vbt_B1_day3,2022.2.4,Win32,58.82352941,,,,,,,,,,,,,,,,,,,,eens,images/br_eens.png,images/cb_eens.png,,eens,,,,,,,,,,,0.312037009,-0.037037037,1,0,0,eens,0,41,41,40,1
,,,,,00060,2023-10-12_19h04.44.958,vbt_B1_day3,2022.2.4,Win32,58.82352941,,,,,,,,,,,,,,,,,,,,onrecht,images/br_onrecht.png,images/cb_onrecht.png,,onrecht,,,,,,,,,,,0.32685188,-0.074074074,1,0,0,onrecht,0,42,42,55,1
,,,,,00060,2023-10-12_19h04.44.958,vbt_B1_day3,2022.2.4,Win32,58.82352941,,,,,,,,,,,,,,,,,,,,theeting,images/br_theeting.png,images/cb_theeting.png,,theeting,,,,,,,,,,,0.315740797,-0.081481474,1,0,0,theeting,0,43,43,38,1
,,,,,00060,2023-10-12_19h04.44.958,vbt_B1_day3,2022.2.4,Win32,58.82352941,,,,,,,,,,,,,,,,,,,,stoom,images/br_stoom.png,images/cb_stoom.png,,stoom,,,,,,,,,,,0.327777863,-0.092592593,1,0,0,stoom,0,44,44,6,1
,,,,,00060,2023-10-12_19h04.44.958,vbt_B1_day3,2022.2.4,Win32,58.82352941,,,,,,,,,,,,,,,,,,,,schatten,images/br_schatten.png,images/cb_schatten.png,,schatten,,,,,,,,,,,0.506481453,-0.024074095,1,0,0,schatten,0,45,45,18,1
,,,,,00060,2023-10-12_19h04.44.958,vbt_B1_day3,2022.2.4,Win32,58.82352941,,,,,,,,,,,,,,,,,,,,jongelui,images/br_jongelui.png,images/cb_jongelui.png,,jongelui,,,,,,,,,,,0.211111139,-0.085185192,1,0,0,jongelui,0,46,46,59,1
,,,,,00060,2023-10-12_19h04.44.958,vbt_B1_day3,2022.2.4,Win32,58.82352941,,,,,,,,,,,,,,,,,,,,dwang,images/br_dwang.png,images/cb_dwang.png,,dwang,,,,,,,,,,,0.410185213,-0.172222208,1,0,0,dwang,0,47,47,47,1
,,,,,00060,2023-10-12_19h04.44.958,vbt_B1_day3,2022.2.4,Win32,58.82352941,,,,,,,,,,,,,,,,,,,,stikken,images/br_stikken.png,images/cb_stikken.png,,stekkin,,,,,,,,,,,0.374074159,-0.095370399,1,0,0,stekkin,0,48,48,54,1
,,,,,00060,2023-10-12_19h04.44.958,vbt_B1_day3,2022.2.4,Win32,58.82352941,,,,,,,,,,,,,,,,,,,,laken,images/br_laken.png,images/cb_laken.png,,laken,,,,,,,,,,,0.292592578,-0.116666653,1,0,0,laken,0,49,49,5,1
,,,,,00060,2023-10-12_19h04.44.958,vbt_B1_day3,2022.2.4,Win32,58.82352941,,,,,,,,,,,,,,,,,,,,bisschop,images/br_bisschop.png,images/cb_bisschop.png,,bisschop,,,,,,,,,,,0.388888889,-0.067592586,1,0,0,bisschop,0,50,50,16,1
,,,,,00060,2023-10-12_19h04.44.958,vbt_B1_day3,2022.2.4,Win32,58.82352941,,,,,,,,,,,,,,,,,,,,verhaal,images/br_verhaal.png,images/cb_verhaal.png,,verhaal,,,,,,,,,,,0.299074102,-0.183333362,1,0,0,verhaal,0,51,51,13,1
,,,,,00060,2023-10-12_19h04.44.958,vbt_B1_day3,2022.2.4,Win32,58.82352941,,,,,,,,,,,,,,,,,,,,kwaas,images/br_kwaas.png,images/cb_kwaas.png,,kwaas,,,,,,,,,,,0.307407379,-0.077777792,1,0,0,kwaas,0,52,52,26,1
,,,,,00060,2023-10-12_19h04.44.958,vbt_B1_day3,2022.2.4,Win32,58.82352941,,,,,,,,,,,,,,,,,,,,stallen,images/br_stallen.png,images/cb_stallen.png,,stallen,,,,,,,,,,,0.397222307,-0.080555563,1,0,0,stallen,0,53,53,52,1
,,,,,00060,2023-10-12_19h04.44.958,vbt_B1_day3,2022.2.4,Win32,58.82352941,,,,,,,,,,,,,,,,,,,,mode,images/br_mode.png,images/cb_mode.png,,mode,,,,,,,,,,,0.406481566,-0.103703746,1,0,0,mode,0,54,54,3,1
,,,,,00060,2023-10-12_19h04.44.958,vbt_B1_day3,2022.2.4,Win32,58.82352941,,,,,,,,,,,,,,,,,,,,invallen,images/br_invallen.png,images/cb_invallen.png,,invallen,,,,,,,,,,,0.450000057,-0.092592593,1,0,0,invallen,0,55,55,57,1
,,,,,00060,2023-10-12_19h04.44.958,vbt_B1_day3,2022.2.4,Win32,58.82352941,,,,,,,,,,,,,,,,,,,,sluier,images/br_sluier.png,images/cb_sluier.png,,sluier,,,,,,,,,,,0.378703788,-0.044444437,1,0,0,sluier,0,56,56,50,1
,,,,,00060,2023-10-12_19h04.44.958,vbt_B1_day3,2022.2.4,Win32,58.82352941,,,,,,,,,,,,,,,,,,,,verwoor,images/br_verwoor.png,images/cb_verwoor.png,,verhoor,,,,,,,,,,,0.376851824,-0.108333376,1,0,0,verhoor,0,57,57,32,1
,,,,,00060,2023-10-12_19h04.44.958,vbt_B1_day3,2022.2.4,Win32,58.82352941,,,,,,,,,,,,,,,,,,,,alsof,images/br_alsof.png,images/cb_alsof.png,,alsof,,,,,,,,,,,0.289814843,-0.139814801,1,0,0,alsof,0,58,58,44,1
,,,,,00060,2023-10-12_19h04.44.958,vbt_B1_day3,2022.2.4,Win32,58.82352941,,,,,,,,,,,,,,,,,,,,hust,images/br_hust.png,images/cb_hust.png,,hust,,,,,,,,,,,0.30277775,-0.059259273,1,0,0,hust,0,59,59,23,1
,,,,,00060,2023-10-12_19h04.44.958,vbt_B1_day3,2022.2.4,Win32,58.82352941,,,,,,,,,,,,,,,,,,,,,,,,,,,,,,,,,,,,,,,,,,,,,
