welcome_mouse.x,welcome_mouse.y,welcome_mouse.leftButton,welcome_mouse.midButton,welcome_mouse.rightButton,"ID",date,expName,psychopyVersion,OS,frameRate,trainInstr_mouse.x,trainInstr_mouse.y,trainInstr_mouse.leftButton,trainInstr_mouse.midButton,trainInstr_mouse.rightButton,translation_key.keys,translation_key.corr,translation_key.rt,word_rsp.text,trWrd_mouse.x,trWrd_mouse.y,trWrd_mouse.leftButton,trWrd_mouse.midButton,trWrd_mouse.rightButton,train_loop.thisRepN,train_loop.thisTrialN,train_loop.thisN,train_loop.thisIndex,train_loop.ran,nlWrd,brWrd,cbWrd,test,testResp,mouse.x,mouse.y,mouse.leftButton,mouse.midButton,mouse.rightButton,testInstr_mouse.x,testInstr_mouse.y,testInstr_mouse.leftButton,testInstr_mouse.midButton,testInstr_mouse.rightButton,test_mouse.x,test_mouse.y,test_mouse.leftButton,test_mouse.midButton,test_mouse.rightButton,test_response.text,test_loop.thisRepN,test_loop.thisTrialN,test_loop.thisN,test_loop.thisIndex,test_loop.ran
-0.142,-0.257,1,0,0,00085,2023-10-30_16h41.07.531,vbt_B1_day3,2022.2.4,Win32,59.42123715,,,,,,,,,,,,,,,,,,,,,,,,,,,,,,,,,,,,,,,,,,,,,
,,,,,00085,2023-10-30_16h41.07.531,vbt_B1_day3,2022.2.4,Win32,59.42123715,-0.142,-0.257,1,0,0,,,,,,,,,,,,,,,,,,,,,,,,,,,,,,,,,,,,,,,,
,,,,,00085,2023-10-30_16h41.07.531,vbt_B1_day3,2022.2.4,Win32,59.42123715,,,,,,down,0,5.7096,,-0.142,-0.257,1,0,0,0,0,0,93,1,waarop,images/br_waarop.png,images/cb_waarop.png,0,,,,,,,,,,,,,,,,,,,,,,
,,,,,00085,2023-10-30_16h41.07.531,vbt_B1_day3,2022.2.4,Win32,59.42123715,,,,,,down,0,7.4523,,-0.142,-0.257,1,0,0,0,1,1,146,1,opkomen,images/br_opkomen.png,images/cb_opkomen.png,0,,,,,,,,,,,,,,,,,,,,,,
,,,,,00085,2023-10-30_16h41.07.531,vbt_B1_day3,2022.2.4,Win32,59.42123715,,,,,,down,0,10.1358,,-0.142,-0.257,1,0,0,0,2,2,63,1,flirt,images/br_flirt.png,images/cb_flirt.png,1,flirt,,,,,,,,,,,,,,,,,,,,,
,,,,,00085,2023-10-30_16h41.07.531,vbt_B1_day3,2022.2.4,Win32,59.42123715,,,,,,down,0,9.1355,,-0.142,-0.257,1,0,0,0,3,3,177,1,maaltijd,images/br_maaltijd.png,images/cb_maaltijd.png,0,,,,,,,,,,,,,,,,,,,,,,
,,,,,00085,2023-10-30_16h41.07.531,vbt_B1_day3,2022.2.4,Win32,59.42123715,,,,,,down,0,11.1014,,-0.142,-0.257,1,0,0,0,4,4,98,1,kreeft,images/br_kreeft.png,images/cb_kreeft.png,0,,,,,,,,,,,,,,,,,,,,,,
,,,,,00085,2023-10-30_16h41.07.531,vbt_B1_day3,2022.2.4,Win32,59.42123715,,,,,,down,0,17.6514,,-0.142,-0.257,1,0,0,0,5,5,152,1,afnemen,images/br_afnemen.png,images/cb_afnemen.png,0,,,,,,,,,,,,,,,,,,,,,,
,,,,,00085,2023-10-30_16h41.07.531,vbt_B1_day3,2022.2.4,Win32,59.42123715,,,,,,down,0,6.8022,,-0.142,-0.257,1,0,0,0,6,6,80,1,kanjer,images/br_kanjer.png,images/cb_kanjer.png,0,,,,,,,,,,,,,,,,,,,,,,
,,,,,00085,2023-10-30_16h41.07.531,vbt_B1_day3,2022.2.4,Win32,59.42123715,,,,,,down,0,2.0681,,-0.142,-0.257,1,0,0,0,7,7,19,1,geit,images/br_geit.png,images/cb_geit.png,0,,,,,,,,,,,,,,,,,,,,,,
,,,,,00085,2023-10-30_16h41.07.531,vbt_B1_day3,2022.2.4,Win32,59.42123715,,,,,,down,0,8.7188,,-0.142,-0.257,1,0,0,0,8,8,108,1,excuus,images/br_excuus.png,images/cb_excuus.png,0,,,,,,,,,,,,,,,,,,,,,,
,,,,,00085,2023-10-30_16h41.07.531,vbt_B1_day3,2022.2.4,Win32,59.42123715,,,,,,down,0,2.5515,,-0.142,-0.257,1,0,0,0,9,9,52,1,wagon,images/br_wagon.png,images/cb_wagon.png,0,,,,,,,,,,,,,,,,,,,,,,
,,,,,00085,2023-10-30_16h41.07.531,vbt_B1_day3,2022.2.4,Win32,59.42123715,,,,,,down,0,5.1861,,-0.142,-0.257,1,0,0,0,10,10,183,1,getuigen,images/br_getuigen.png,images/cb_getuigen.png,1,getuigen,,,,,,,,,,,,,,,,,,,,,
,,,,,00085,2023-10-30_16h41.07.531,vbt_B1_day3,2022.2.4,Win32,59.42123715,,,,,,down,0,1.1025,,-0.142,-0.257,1,0,0,0,11,11,89,1,slapen,images/br_slapen.png,images/cb_slapen.png,0,,,,,,,,,,,,,,,,,,,,,,
,,,,,00085,2023-10-30_16h41.07.531,vbt_B1_day3,2022.2.4,Win32,59.42123715,,,,,,down,0,10.3845,,-0.142,-0.257,1,0,0,0,12,12,156,1,rechten,images/br_rechten.png,images/cb_rechten.png,0,,,,,,,,,,,,,,,,,,,,,,
,,,,,00085,2023-10-30_16h41.07.531,vbt_B1_day3,2022.2.4,Win32,59.42123715,,,,,,down,0,6.9685,,-0.142,-0.257,1,0,0,0,13,13,162,1,uitdelen,images/br_uitdelen.png,images/cb_uitdelen.png,0,,,,,,,,,,,,,,,,,,,,,,
,,,,,00085,2023-10-30_16h41.07.531,vbt_B1_day3,2022.2.4,Win32,59.42123715,,,,,,down,0,5.0607,,-0.142,-0.257,1,0,0,0,14,14,37,1,mijn,images/br_mijn.png,images/cb_mijn.png,0,,,,,,,,,,,,,,,,,,,,,,
,,,,,00085,2023-10-30_16h41.07.531,vbt_B1_day3,2022.2.4,Win32,59.42123715,,,,,,down,0,5.9072,,-0.142,-0.257,1,0,0,0,15,15,14,1,rijp,images/br_rijp.png,images/cb_rijp.png,0,,,,,,,,,,,,,,,,,,,,,,
,,,,,00085,2023-10-30_16h41.07.531,vbt_B1_day3,2022.2.4,Win32,59.42123715,,,,,,down,0,1.9669,,-0.1795,-0.1025,1,0,0,0,16,16,28,1,stal,images/br_stal.png,images/cb_stal.png,0,,,,,,,,,,,,,,,,,,,,,,
,,,,,00085,2023-10-30_16h41.07.531,vbt_B1_day3,2022.2.4,Win32,59.42123715,,,,,,down,0,3.7181,,-0.1795,-0.1025,1,0,0,0,17,17,90,1,geluid,images/br_geluid.png,images/cb_geluid.png,0,,,,,,,,,,,,,,,,,,,,,,
,,,,,00085,2023-10-30_16h41.07.531,vbt_B1_day3,2022.2.4,Win32,59.42123715,,,,,,down,0,1.5842,,-0.1795,-0.1025,1,0,0,0,18,18,64,1,wegen,images/br_wegen.png,images/cb_wegen.png,0,,,,,,,,,,,,,,,,,,,,,,
,,,,,00085,2023-10-30_16h41.07.531,vbt_B1_day3,2022.2.4,Win32,59.42123715,,,,,,down,0,4.5514,,-0.1795,-0.1025,1,0,0,0,19,19,160,1,daarheen,images/br_daarheen.png,images/cb_daarheen.png,0,,,,,,,,,,,,,,,,,,,,,,
,,,,,00085,2023-10-30_16h41.07.531,vbt_B1_day3,2022.2.4,Win32,59.42123715,,,,,,down,0,1.4514,,-0.1795,-0.1025,1,0,0,0,20,20,122,1,waarvan,images/br_waarvan.png,images/cb_waarvan.png,0,,,,,,,,,,,,,,,,,,,,,,
,,,,,00085,2023-10-30_16h41.07.531,vbt_B1_day3,2022.2.4,Win32,59.42123715,,,,,,down,0,10.134,,-0.1795,-0.1025,1,0,0,0,21,21,43,1,klauw,images/br_klauw.png,images/cb_klauw.png,0,,,,,,,,,,,,,,,,,,,,,,
,,,,,00085,2023-10-30_16h41.07.531,vbt_B1_day3,2022.2.4,Win32,59.42123715,,,,,,down,0,9.7891,,-0.1795,-0.1025,1,0,0,0,22,22,174,1,stemming,images/br_stemming.png,images/cb_stemming.png,0,,,,,,,,,,,,,,,,,,,,,,
,,,,,00085,2023-10-30_16h41.07.531,vbt_B1_day3,2022.2.4,Win32,59.42123715,,,,,,down,0,11.4851,,-0.1795,-0.1025,1,0,0,0,23,23,50,1,stoom,images/br_stoom.png,images/cb_stoom.png,0,,,,,,,,,,,,,,,,,,,,,,
,,,,,00085,2023-10-30_16h41.07.531,vbt_B1_day3,2022.2.4,Win32,59.42123715,,,,,,down,0,5.8003,,-0.1795,-0.1025,1,0,0,0,24,24,82,1,muziek,images/br_muziek.png,images/cb_muziek.png,0,,,,,,,,,,,,,,,,,,,,,,
,,,,,00085,2023-10-30_16h41.07.531,vbt_B1_day3,2022.2.4,Win32,59.42123715,,,,,,down,0,1.3847,,-0.1795,-0.1025,1,0,0,0,25,25,15,1,soda,images/br_soda.png,images/cb_soda.png,0,,,,,,,,,,,,,,,,,,,,,,
,,,,,00085,2023-10-30_16h41.07.531,vbt_B1_day3,2022.2.4,Win32,59.42123715,,,,,,down,0,1.034,,-0.1795,-0.1025,1,0,0,0,26,26,11,1,mode,images/br_mode.png,images/cb_mode.png,0,,,,,,,,,,,,,,,,,,,,,,
,,,,,00085,2023-10-30_16h41.07.531,vbt_B1_day3,2022.2.4,Win32,59.42123715,,,,,,down,0,3.4517,,-0.1795,-0.1025,1,0,0,0,27,27,23,1,zout,images/br_zout.png,images/cb_zout.png,1,zout,,,,,,,,,,,,,,,,,,,,,
,,,,,00085,2023-10-30_16h41.07.531,vbt_B1_day3,2022.2.4,Win32,59.42123715,,,,,,down,0,10.834,,-0.1795,-0.1025,1,0,0,0,28,28,176,1,techniek,images/br_techniek.png,images/cb_techniek.png,0,,,,,,,,,,,,,,,,,,,,,,
,,,,,00085,2023-10-30_16h41.07.531,vbt_B1_day3,2022.2.4,Win32,59.42123715,,,,,,down,0,0.6838,,-0.1795,-0.1025,1,0,0,0,29,29,5,1,blad,images/br_blad.png,images/cb_blad.png,0,,,,,,,,,,,,,,,,,,,,,,
,,,,,00085,2023-10-30_16h41.07.531,vbt_B1_day3,2022.2.4,Win32,59.42123715,,,,,,down,0,5.4516,,-0.1795,-0.1025,1,0,0,0,30,30,199,1,beseffen,images/br_beseffen.png,images/cb_beseffen.png,0,,,,,,,,,,,,,,,,,,,,,,
,,,,,00085,2023-10-30_16h41.07.531,vbt_B1_day3,2022.2.4,Win32,59.42123715,,,,,,down,0,3.6008,,-0.1795,-0.1025,1,0,0,0,31,31,134,1,geliefd,images/br_geliefd.png,images/cb_geliefd.png,0,,,,,,,,,,,,,,,,,,,,,,
,,,,,00085,2023-10-30_16h41.07.531,vbt_B1_day3,2022.2.4,Win32,59.42123715,,,,,,down,0,7.0681,,-0.1795,-0.1025,1,0,0,0,32,32,142,1,snuiven,images/br_snuiven.png,images/cb_snuiven.png,1,snuiven,,,,,,,,,,,,,,,,,,,,,
,,,,,00085,2023-10-30_16h41.07.531,vbt_B1_day3,2022.2.4,Win32,59.42123715,,,,,,down,0,6.9167,,-0.1795,-0.1025,1,0,0,0,33,33,105,1,wijlen,images/br_wijlen.png,images/cb_wijlen.png,0,,,,,,,,,,,,,,,,,,,,,,
,,,,,00085,2023-10-30_16h41.07.531,vbt_B1_day3,2022.2.4,Win32,59.42123715,,,,,,down,0,3.9182,,-0.1795,-0.1025,1,0,0,0,34,34,148,1,smullen,images/br_smullen.png,images/cb_smullen.png,0,,,,,,,,,,,,,,,,,,,,,,
,,,,,00085,2023-10-30_16h41.07.531,vbt_B1_day3,2022.2.4,Win32,59.42123715,,,,,,down,0,2.7186,,-0.1795,-0.1025,1,0,0,0,35,35,21,1,mist,images/br_mist.png,images/cb_mist.png,1,mest,,,,,,,,,,,,,,,,,,,,,
,,,,,00085,2023-10-30_16h41.07.531,vbt_B1_day3,2022.2.4,Win32,59.42123715,,,,,,down,0,0.0013,,-0.1795,-0.1025,1,0,0,0,36,36,17,1,taal,images/br_taal.png,images/cb_taal.png,0,,,,,,,,,,,,,,,,,,,,,,
,,,,,00085,2023-10-30_16h41.07.531,vbt_B1_day3,2022.2.4,Win32,59.42123715,,,,,,down,0,0.8845,,-0.1795,-0.1025,1,0,0,0,37,37,114,1,vullen,images/br_vullen.png,images/cb_vullen.png,0,,,,,,,,,,,,,,,,,,,,,,
,,,,,00085,2023-10-30_16h41.07.531,vbt_B1_day3,2022.2.4,Win32,59.42123715,,,,,,down,0,2.8347,,-0.1795,-0.1025,1,0,0,0,38,38,170,1,schatten,images/br_schatten.png,images/cb_schatten.png,0,,,,,,,,,,,,,,,,,,,,,,
,,,,,00085,2023-10-30_16h41.07.531,vbt_B1_day3,2022.2.4,Win32,59.42123715,,,,,,down,0,1.7674,,-0.1795,-0.1025,1,0,0,0,39,39,40,1,schep,images/br_schep.png,images/cb_schep.png,0,,,,,,,,,,,,,,,,,,,,,,
,,,,,00085,2023-10-30_16h41.07.531,vbt_B1_day3,2022.2.4,Win32,59.42123715,,,,,,down,0,3.9013,,-0.1795,-0.1025,1,0,0,0,40,40,72,1,strak,images/br_strak.png,images/cb_strak.png,0,,,,,,,,,,,,,,,,,,,,,,
,,,,,00085,2023-10-30_16h41.07.531,vbt_B1_day3,2022.2.4,Win32,59.42123715,,,,,,down,0,2.4519,,-0.1795,-0.1025,1,0,0,0,41,41,76,1,afval,images/br_afval.png,images/cb_afval.png,0,,,,,,,,,,,,,,,,,,,,,,
,,,,,00085,2023-10-30_16h41.07.531,vbt_B1_day3,2022.2.4,Win32,59.42123715,,,,,,down,0,1.5175,,-0.1795,-0.1025,1,0,0,0,42,42,77,1,woede,images/br_woede.png,images/cb_woede.png,0,,,,,,,,,,,,,,,,,,,,,,
,,,,,00085,2023-10-30_16h41.07.531,vbt_B1_day3,2022.2.4,Win32,59.42123715,,,,,,down,0,15.585,,-0.1795,-0.1025,1,0,0,0,43,43,130,1,keihard,images/br_keihard.png,images/cb_keihard.png,0,,,,,,,,,,,,,,,,,,,,,,
,,,,,00085,2023-10-30_16h41.07.531,vbt_B1_day3,2022.2.4,Win32,59.42123715,,,,,,down,0,1.2009,,-0.1795,-0.1025,1,0,0,0,44,44,68,1,schat,images/br_schat.png,images/cb_schat.png,0,,,,,,,,,,,,,,,,,,,,,,
,,,,,00085,2023-10-30_16h41.07.531,vbt_B1_day3,2022.2.4,Win32,59.42123715,,,,,,down,0,2.4509,,-0.1795,-0.1025,1,0,0,0,45,45,110,1,zuster,images/br_zuster.png,images/cb_zuster.png,0,,,,,,,,,,,,,,,,,,,,,,
,,,,,00085,2023-10-30_16h41.07.531,vbt_B1_day3,2022.2.4,Win32,59.42123715,,,,,,down,0,7.2182,,-0.1795,-0.1025,1,0,0,0,46,46,107,1,maling,images/br_maling.png,images/cb_maling.png,0,,,,,,,,,,,,,,,,,,,,,,
,,,,,00085,2023-10-30_16h41.07.531,vbt_B1_day3,2022.2.4,Win32,59.42123715,,,,,,down,0,3.0842,,-0.1795,-0.1025,1,0,0,0,47,47,137,1,trekker,images/br_trekker.png,images/cb_trekker.png,0,,,,,,,,,,,,,,,,,,,,,,
,,,,,00085,2023-10-30_16h41.07.531,vbt_B1_day3,2022.2.4,Win32,59.42123715,,,,,,down,0,2.1028,,-0.1795,-0.1025,1,0,0,0,48,48,3,1,mand,images/br_mand.png,images/cb_mand.png,0,,,,,,,,,,,,,,,,,,,,,,
,,,,,00085,2023-10-30_16h41.07.531,vbt_B1_day3,2022.2.4,Win32,59.42123715,,,,,,down,0,0.924,,-0.1795,-0.1025,1,0,0,0,49,49,42,1,bleek,images/br_bleek.png,images/cb_bleek.png,0,,,,,,,,,,,,,,,,,,,,,,
,,,,,00085,2023-10-30_16h41.07.531,vbt_B1_day3,2022.2.4,Win32,59.42123715,,,,,,down,0,5.5233,,-0.1795,-0.1025,1,0,0,0,50,50,140,1,blijven,images/br_blijven.png,images/cb_blijven.png,1,blijven,,,,,,,,,,,,,,,,,,,,,
,,,,,00085,2023-10-30_16h41.07.531,vbt_B1_day3,2022.2.4,Win32,59.42123715,,,,,,down,0,6.0915,,-0.1795,-0.1025,1,0,0,0,51,51,172,1,weigeren,images/br_weigeren.png,images/cb_weigeren.png,0,,,,,,,,,,,,,,,,,,,,,,
,,,,,00085,2023-10-30_16h41.07.531,vbt_B1_day3,2022.2.4,Win32,59.42123715,,,,,,down,0,0.8227,,-0.1795,-0.1025,1,0,0,0,52,52,144,1,eetlust,images/br_eetlust.png,images/cb_eetlust.png,0,,,,,,,,,,,,,,,,,,,,,,
,,,,,00085,2023-10-30_16h41.07.531,vbt_B1_day3,2022.2.4,Win32,59.42123715,,,,,,down,0,11.8378,,-0.181,-0.095,1,0,0,0,53,53,30,1,uien,images/br_uien.png,images/cb_uien.png,0,,,,,,,,,,,,,,,,,,,,,,
,,,,,00085,2023-10-30_16h41.07.531,vbt_B1_day3,2022.2.4,Win32,59.42123715,,,,,,down,0,0.2347,,-0.181,-0.095,1,0,0,0,54,54,33,1,vlek,images/br_vlek.png,images/cb_vlek.png,0,,,,,,,,,,,,,,,,,,,,,,
,,,,,00085,2023-10-30_16h41.07.531,vbt_B1_day3,2022.2.4,Win32,59.42123715,,,,,,down,0,2.8504,,-0.181,-0.096,1,0,0,0,55,55,79,1,nodig,images/br_nodig.png,images/cb_nodig.png,0,,,,,,,,,,,,,,,,,,,,,,
,,,,,00085,2023-10-30_16h41.07.531,vbt_B1_day3,2022.2.4,Win32,59.42123715,,,,,,down,0,1.3345,,-0.181,-0.096,1,0,0,0,56,56,12,1,kust,images/br_kust.png,images/cb_kust.png,0,,,,,,,,,,,,,,,,,,,,,,
,,,,,00085,2023-10-30_16h41.07.531,vbt_B1_day3,2022.2.4,Win32,59.42123715,,,,,,down,0,3.4538,,-0.181,-0.096,1,0,0,0,57,57,106,1,zingen,images/br_zingen.png,images/cb_zingen.png,0,,,,,,,,,,,,,,,,,,,,,,
,,,,,00085,2023-10-30_16h41.07.531,vbt_B1_day3,2022.2.4,Win32,59.42123715,,,,,,down,0,2.4015,,-0.181,-0.096,1,0,0,0,58,58,58,1,tekst,images/br_tekst.png,images/cb_tekst.png,0,,,,,,,,,,,,,,,,,,,,,,
,,,,,00085,2023-10-30_16h41.07.531,vbt_B1_day3,2022.2.4,Win32,59.42123715,,,,,,down,0,4.5862,,-0.181,-0.096,1,0,0,0,59,59,159,1,sufferd,images/br_sufferd.png,images/cb_sufferd.png,0,,,,,,,,,,,,,,,,,,,,,,
,,,,,00085,2023-10-30_16h41.07.531,vbt_B1_day3,2022.2.4,Win32,59.42123715,,,,,,down,0,4.1828,,-0.181,-0.096,1,0,0,0,60,60,67,1,zwart,images/br_zwart.png,images/cb_zwart.png,0,,,,,,,,,,,,,,,,,,,,,,
,,,,,00085,2023-10-30_16h41.07.531,vbt_B1_day3,2022.2.4,Win32,59.42123715,,,,,,down,0,0.3011,,-0.181,-0.096,1,0,0,0,61,61,0,1,slak,images/br_slak.png,images/cb_slak.png,0,,,,,,,,,,,,,,,,,,,,,,
,,,,,00085,2023-10-30_16h41.07.531,vbt_B1_day3,2022.2.4,Win32,59.42123715,,,,,,down,0,2.3679,,-0.181,-0.096,1,0,0,0,62,62,163,1,schuilen,images/br_schuilen.png,images/cb_schuilen.png,0,,,,,,,,,,,,,,,,,,,,,,
,,,,,00085,2023-10-30_16h41.07.531,vbt_B1_day3,2022.2.4,Win32,59.42123715,,,,,,down,0,3.4184,,-0.181,-0.096,1,0,0,0,63,63,95,1,vreten,images/br_vreten.png,images/cb_vreten.png,0,,,,,,,,,,,,,,,,,,,,,,
,,,,,00085,2023-10-30_16h41.07.531,vbt_B1_day3,2022.2.4,Win32,59.42123715,,,,,,down,0,10.1847,,-0.181,-0.096,1,0,0,0,64,64,167,1,eenhoorn,images/br_eenhoorn.png,images/cb_eenhoorn.png,0,,,,,,,,,,,,,,,,,,,,,,
,,,,,00085,2023-10-30_16h41.07.531,vbt_B1_day3,2022.2.4,Win32,59.42123715,,,,,,down,0,13.5006,,-0.181,-0.096,1,0,0,0,65,65,194,1,driemaal,images/br_driemaal.png,images/cb_driemaal.png,0,,,,,,,,,,,,,,,,,,,,,,
,,,,,00085,2023-10-30_16h41.07.531,vbt_B1_day3,2022.2.4,Win32,59.42123715,,,,,,down,0,10.1256,,-0.181,-0.096,1,0,0,0,66,66,2,1,jaar,images/br_jaar.png,images/cb_jaar.png,0,,,,,,,,,,,,,,,,,,,,,,
,,,,,00085,2023-10-30_16h41.07.531,vbt_B1_day3,2022.2.4,Win32,59.42123715,,,,,,down,0,3.7688,,-0.181,-0.096,1,0,0,0,67,67,125,1,aanzien,images/br_aanzien.png,images/cb_aanzien.png,0,,,,,,,,,,,,,,,,,,,,,,
,,,,,00085,2023-10-30_16h41.07.531,vbt_B1_day3,2022.2.4,Win32,59.42123715,,,,,,down,0,4.5014,,-0.181,-0.096,1,0,0,0,68,68,88,1,boeien,images/br_boeien.png,images/cb_boeien.png,0,,,,,,,,,,,,,,,,,,,,,,
,,,,,00085,2023-10-30_16h41.07.531,vbt_B1_day3,2022.2.4,Win32,59.42123715,,,,,,down,0,6.8197,,-0.181,-0.096,1,0,0,0,69,69,27,1,dans,images/br_dans.png,images/cb_dans.png,0,,,,,,,,,,,,,,,,,,,,,,
,,,,,00085,2023-10-30_16h41.07.531,vbt_B1_day3,2022.2.4,Win32,59.42123715,,,,,,down,0,8.5527,,-0.181,-0.096,1,0,0,0,70,70,70,1,ijdel,images/br_ijdel.png,images/cb_ijdel.png,0,,,,,,,,,,,,,,,,,,,,,,
,,,,,00085,2023-10-30_16h41.07.531,vbt_B1_day3,2022.2.4,Win32,59.42123715,,,,,,down,0,4.6677,,-0.181,-0.096,1,0,0,0,71,71,32,1,palm,images/br_palm.png,images/cb_palm.png,0,,,,,,,,,,,,,,,,,,,,,,
,,,,,00085,2023-10-30_16h41.07.531,vbt_B1_day3,2022.2.4,Win32,59.42123715,,,,,,down,0,0.7453,,-0.181,-0.096,1,0,0,0,72,72,34,1,vorm,images/br_vorm.png,images/cb_vorm.png,0,,,,,,,,,,,,,,,,,,,,,,
,,,,,00085,2023-10-30_16h41.07.531,vbt_B1_day3,2022.2.4,Win32,59.42123715,,,,,,down,0,0.8021,,-0.181,-0.096,1,0,0,0,73,73,38,1,baai,images/br_baai.png,images/cb_baai.png,0,,,,,,,,,,,,,,,,,,,,,,
,,,,,00085,2023-10-30_16h41.07.531,vbt_B1_day3,2022.2.4,Win32,59.42123715,,,,,,down,0,4.3218,,-0.181,-0.096,1,0,0,0,74,74,20,1,site,images/br_site.png,images/cb_site.png,1,site,,,,,,,,,,,,,,,,,,,,,
,,,,,00085,2023-10-30_16h41.07.531,vbt_B1_day3,2022.2.4,Win32,59.42123715,,,,,,down,0,0.9685,,-0.181,-0.096,1,0,0,0,75,75,29,1,baas,images/br_baas.png,images/cb_baas.png,0,,,,,,,,,,,,,,,,,,,,,,
,,,,,00085,2023-10-30_16h41.07.531,vbt_B1_day3,2022.2.4,Win32,59.42123715,,,,,,down,0,2.9681,,-0.181,-0.096,1,0,0,0,76,76,104,1,zweven,images/br_zweven.png,images/cb_zweven.png,0,,,,,,,,,,,,,,,,,,,,,,
,,,,,00085,2023-10-30_16h41.07.531,vbt_B1_day3,2022.2.4,Win32,59.42123715,,,,,,down,0,4.2519,,-0.181,-0.096,1,0,0,0,77,77,69,1,waken,images/br_waken.png,images/cb_waken.png,0,,,,,,,,,,,,,,,,,,,,,,
,,,,,00085,2023-10-30_16h41.07.531,vbt_B1_day3,2022.2.4,Win32,59.42123715,,,,,,down,0,1.1736,,-0.181,-0.096,1,0,0,0,78,78,46,1,jagen,images/br_jagen.png,images/cb_jagen.png,0,,,,,,,,,,,,,,,,,,,,,,
,,,,,00085,2023-10-30_16h41.07.531,vbt_B1_day3,2022.2.4,Win32,59.42123715,,,,,,down,0,7.4027,,-0.181,-0.096,1,0,0,0,79,79,141,1,knielen,images/br_knielen.png,images/cb_knielen.png,1,knielen,,,,,,,,,,,,,,,,,,,,,
,,,,,00085,2023-10-30_16h41.07.531,vbt_B1_day3,2022.2.4,Win32,59.42123715,,,,,,down,0,1.5347,,-0.181,-0.096,1,0,0,0,80,80,71,1,bever,images/br_bever.png,images/cb_bever.png,0,,,,,,,,,,,,,,,,,,,,,,
,,,,,00085,2023-10-30_16h41.07.531,vbt_B1_day3,2022.2.4,Win32,59.42123715,,,,,,down,0,4.0842,,-0.181,-0.096,1,0,0,0,81,81,175,1,heengaan,images/br_heengaan.png,images/cb_heengaan.png,0,,,,,,,,,,,,,,,,,,,,,,
,,,,,00085,2023-10-30_16h41.07.531,vbt_B1_day3,2022.2.4,Win32,59.42123715,,,,,,down,0,8.9681,,-0.181,-0.096,1,0,0,0,82,82,128,1,prikken,images/br_prikken.png,images/cb_prikken.png,0,,,,,,,,,,,,,,,,,,,,,,
,,,,,00085,2023-10-30_16h41.07.531,vbt_B1_day3,2022.2.4,Win32,59.42123715,,,,,,down,0,8.0349,,-0.181,-0.096,1,0,0,0,83,83,127,1,doodmoe,images/br_doodmoe.png,images/cb_doodmoe.png,0,,,,,,,,,,,,,,,,,,,,,,
,,,,,00085,2023-10-30_16h41.07.531,vbt_B1_day3,2022.2.4,Win32,59.42123715,,,,,,down,0,4.7161,,-0.181,-0.096,1,0,0,0,84,84,6,1,diep,images/br_diep.png,images/cb_diep.png,0,,,,,,,,,,,,,,,,,,,,,,
,,,,,00085,2023-10-30_16h41.07.531,vbt_B1_day3,2022.2.4,Win32,59.42123715,,,,,,down,0,3.1338,,-0.181,-0.096,1,0,0,0,85,85,66,1,lever,images/br_lever.png,images/cb_lever.png,0,,,,,,,,,,,,,,,,,,,,,,
,,,,,00085,2023-10-30_16h41.07.531,vbt_B1_day3,2022.2.4,Win32,59.42123715,,,,,,down,0,2.1336,,-0.181,-0.096,1,0,0,0,86,86,188,1,strekken,images/br_strekken.png,images/cb_strekken.png,0,,,,,,,,,,,,,,,,,,,,,,
,,,,,00085,2023-10-30_16h41.07.531,vbt_B1_day3,2022.2.4,Win32,59.42123715,,,,,,down,0,1.618,,-0.181,-0.096,1,0,0,0,87,87,87,1,toeval,images/br_toeval.png,images/cb_toeval.png,0,,,,,,,,,,,,,,,,,,,,,,
,,,,,00085,2023-10-30_16h41.07.531,vbt_B1_day3,2022.2.4,Win32,59.42123715,,,,,,down,0,5.9847,,-0.181,-0.096,1,0,0,0,88,88,116,1,besmet,images/br_besmet.png,images/cb_besmet.png,0,,,,,,,,,,,,,,,,,,,,,,
,,,,,00085,2023-10-30_16h41.07.531,vbt_B1_day3,2022.2.4,Win32,59.42123715,,,,,,down,0,1.6332,,-0.181,-0.096,1,0,0,0,89,89,126,1,kasteel,images/br_kasteel.png,images/cb_kasteel.png,0,,,,,,,,,,,,,,,,,,,,,,
,,,,,00085,2023-10-30_16h41.07.531,vbt_B1_day3,2022.2.4,Win32,59.42123715,,,,,,down,0,5.4172,,-0.181,-0.096,1,0,0,0,90,90,81,1,dubbel,images/br_dubbel.png,images/cb_dubbel.png,0,,,,,,,,,,,,,,,,,,,,,,
,,,,,00085,2023-10-30_16h41.07.531,vbt_B1_day3,2022.2.4,Win32,59.42123715,,,,,,down,0,2.5676,,-0.181,-0.096,1,0,0,0,91,91,99,1,koffie,images/br_koffie.png,images/cb_koffie.png,0,,,,,,,,,,,,,,,,,,,,,,
,,,,,00085,2023-10-30_16h41.07.531,vbt_B1_day3,2022.2.4,Win32,59.42123715,,,,,,down,0,6.168,,-0.181,-0.096,1,0,0,0,92,92,83,1,mening,images/br_mening.png,images/cb_mening.png,0,,,,,,,,,,,,,,,,,,,,,,
,,,,,00085,2023-10-30_16h41.07.531,vbt_B1_day3,2022.2.4,Win32,59.42123715,,,,,,down,0,5.4348,,-0.181,-0.096,1,0,0,0,93,93,187,1,opkijken,images/br_opkijken.png,images/cb_opkijken.png,0,,,,,,,,,,,,,,,,,,,,,,
,,,,,00085,2023-10-30_16h41.07.531,vbt_B1_day3,2022.2.4,Win32,59.42123715,,,,,,down,0,0.8935,,-0.181,-0.096,1,0,0,0,94,94,48,1,steel,images/br_steel.png,images/cb_steel.png,0,,,,,,,,,,,,,,,,,,,,,,
,,,,,00085,2023-10-30_16h41.07.531,vbt_B1_day3,2022.2.4,Win32,59.42123715,,,,,,down,0,7.8191,,-0.181,-0.096,1,0,0,0,95,95,145,1,invloed,images/br_invloed.png,images/cb_invloed.png,0,,,,,,,,,,,,,,,,,,,,,,
,,,,,00085,2023-10-30_16h41.07.531,vbt_B1_day3,2022.2.4,Win32,59.42123715,,,,,,down,0,2.6173,,-0.181,-0.096,1,0,0,0,96,96,115,1,kleren,images/br_kleren.png,images/cb_kleren.png,0,,,,,,,,,,,,,,,,,,,,,,
,,,,,00085,2023-10-30_16h41.07.531,vbt_B1_day3,2022.2.4,Win32,59.42123715,,,,,,down,0,8.4008,,-0.181,-0.096,1,0,0,0,97,97,173,1,apparaat,images/br_apparaat.png,images/cb_apparaat.png,0,,,,,,,,,,,,,,,,,,,,,,
,,,,,00085,2023-10-30_16h41.07.531,vbt_B1_day3,2022.2.4,Win32,59.42123715,,,,,,down,0,4.0017,,-0.181,-0.096,1,0,0,0,98,98,161,1,attentie,images/br_attentie.png,images/cb_attentie.png,0,,,,,,,,,,,,,,,,,,,,,,
,,,,,00085,2023-10-30_16h41.07.531,vbt_B1_day3,2022.2.4,Win32,59.42123715,,,,,,down,0,0.1569,,-0.181,-0.096,1,0,0,0,99,99,1,1,zaal,images/br_zaal.png,images/cb_zaal.png,0,,,,,,,,,,,,,,,,,,,,,,
,,,,,00085,2023-10-30_16h41.07.531,vbt_B1_day3,2022.2.4,Win32,59.42123715,,,,,,down,0,6.319,,-0.181,-0.096,1,0,0,0,100,100,60,1,jasje,images/br_jasje.png,images/cb_jasje.png,1,jasje,,,,,,,,,,,,,,,,,,,,,
,,,,,00085,2023-10-30_16h41.07.531,vbt_B1_day3,2022.2.4,Win32,59.42123715,,,,,,down,0,1.2014,,-0.181,-0.096,1,0,0,0,101,101,18,1,blik,images/br_blik.png,images/cb_blik.png,0,,,,,,,,,,,,,,,,,,,,,,
,,,,,00085,2023-10-30_16h41.07.531,vbt_B1_day3,2022.2.4,Win32,59.42123715,,,,,,down,0,1.4846,,-0.181,-0.096,1,0,0,0,102,102,4,1,moes,images/br_moes.png,images/cb_moes.png,0,,,,,,,,,,,,,,,,,,,,,,
,,,,,00085,2023-10-30_16h41.07.531,vbt_B1_day3,2022.2.4,Win32,59.42123715,,,,,,down,0,5.5514,,-0.181,-0.096,1,0,0,0,103,103,190,1,goedkoop,images/br_goedkoop.png,images/cb_goedkoop.png,0,,,,,,,,,,,,,,,,,,,,,,
,,,,,00085,2023-10-30_16h41.07.531,vbt_B1_day3,2022.2.4,Win32,59.42123715,,,,,,down,0,6.0842,,-0.181,-0.096,1,0,0,0,104,104,181,1,toegeven,images/br_toegeven.png,images/cb_toegeven.png,1,toegeven,,,,,,,,,,,,,,,,,,,,,
,,,,,00085,2023-10-30_16h41.07.531,vbt_B1_day3,2022.2.4,Win32,59.42123715,,,,,,down,0,6.0348,,-0.181,-0.096,1,0,0,0,105,105,192,1,schaamte,images/br_schaamte.png,images/cb_schaamte.png,0,,,,,,,,,,,,,,,,,,,,,,
,,,,,00085,2023-10-30_16h41.07.531,vbt_B1_day3,2022.2.4,Win32,59.42123715,,,,,,down,0,1.551,,-0.181,-0.096,1,0,0,0,106,106,109,1,totaal,images/br_totaal.png,images/cb_totaal.png,0,,,,,,,,,,,,,,,,,,,,,,
,,,,,00085,2023-10-30_16h41.07.531,vbt_B1_day3,2022.2.4,Win32,59.42123715,,,,,,down,0,3.1511,,-0.181,-0.096,1,0,0,0,107,107,120,1,klimmen,images/br_klimmen.png,images/cb_klimmen.png,0,,,,,,,,,,,,,,,,,,,,,,
,,,,,00085,2023-10-30_16h41.07.531,vbt_B1_day3,2022.2.4,Win32,59.42123715,,,,,,down,0,2.8507,,-0.181,-0.096,1,0,0,0,108,108,75,1,snoep,images/br_snoep.png,images/cb_snoep.png,0,,,,,,,,,,,,,,,,,,,,,,
,,,,,00085,2023-10-30_16h41.07.531,vbt_B1_day3,2022.2.4,Win32,59.42123715,,,,,,down,0,0.4188,,-0.181,-0.096,1,0,0,0,109,109,13,1,kaal,images/br_kaal.png,images/cb_kaal.png,0,,,,,,,,,,,,,,,,,,,,,,
,,,,,00085,2023-10-30_16h41.07.531,vbt_B1_day3,2022.2.4,Win32,59.42123715,,,,,,down,0,2.6339,,-0.181,-0.096,1,0,0,0,110,110,45,1,piste,images/br_piste.png,images/cb_piste.png,0,,,,,,,,,,,,,,,,,,,,,,
,,,,,00085,2023-10-30_16h41.07.531,vbt_B1_day3,2022.2.4,Win32,59.42123715,,,,,,down,0,19.6526,,-0.181,-0.096,1,0,0,0,111,111,198,1,bedoelen,images/br_bedoelen.png,images/cb_bedoelen.png,0,,,,,,,,,,,,,,,,,,,,,,
,,,,,00085,2023-10-30_16h41.07.531,vbt_B1_day3,2022.2.4,Win32,59.42123715,,,,,,down,0,5.7513,,-0.181,-0.096,1,0,0,0,112,112,193,1,weeshuis,images/br_weeshuis.png,images/cb_weeshuis.png,0,,,,,,,,,,,,,,,,,,,,,,
,,,,,00085,2023-10-30_16h41.07.531,vbt_B1_day3,2022.2.4,Win32,59.42123715,,,,,,down,0,0.4016,,-0.181,-0.096,1,0,0,0,113,113,31,1,poes,images/br_poes.png,images/cb_poes.png,0,,,,,,,,,,,,,,,,,,,,,,
,,,,,00085,2023-10-30_16h41.07.531,vbt_B1_day3,2022.2.4,Win32,59.42123715,,,,,,down,0,2.4001,,-0.181,-0.096,1,0,0,0,114,114,169,1,oprotten,images/br_oprotten.png,images/cb_oprotten.png,0,,,,,,,,,,,,,,,,,,,,,,
,,,,,00085,2023-10-30_16h41.07.531,vbt_B1_day3,2022.2.4,Win32,59.42123715,,,,,,down,0,2.7333,,-0.181,-0.096,1,0,0,0,115,115,41,1,maken,images/br_maken.png,images/cb_maken.png,0,,,,,,,,,,,,,,,,,,,,,,
,,,,,00085,2023-10-30_16h41.07.531,vbt_B1_day3,2022.2.4,Win32,59.42123715,,,,,,down,0,5.75,,-0.181,-0.096,1,0,0,0,116,116,8,1,knie,images/br_knie.png,images/cb_knie.png,0,,,,,,,,,,,,,,,,,,,,,,
,,,,,00085,2023-10-30_16h41.07.531,vbt_B1_day3,2022.2.4,Win32,59.42123715,,,,,,down,0,6.1844,,-0.181,-0.096,1,0,0,0,117,117,136,1,waarbij,images/br_waarbij.png,images/cb_waarbij.png,0,,,,,,,,,,,,,,,,,,,,,,
,,,,,00085,2023-10-30_16h41.07.531,vbt_B1_day3,2022.2.4,Win32,59.42123715,,,,,,down,0,0.2851,,-0.181,-0.096,1,0,0,0,118,118,57,1,steek,images/br_steek.png,images/cb_steek.png,0,,,,,,,,,,,,,,,,,,,,,,
,,,,,00085,2023-10-30_16h41.07.531,vbt_B1_day3,2022.2.4,Win32,59.42123715,,,,,,down,0,0.403,,-0.181,-0.096,1,0,0,0,119,119,39,1,laag,images/br_laag.png,images/cb_laag.png,0,,,,,,,,,,,,,,,,,,,,,,
,,,,,00085,2023-10-30_16h41.07.531,vbt_B1_day3,2022.2.4,Win32,59.42123715,,,,,,down,0,4.2072,,-0.181,-0.096,1,0,0,0,120,120,118,1,vinger,images/br_vinger.png,images/cb_vinger.png,0,,,,,,,,,,,,,,,,,,,,,,
,,,,,00085,2023-10-30_16h41.07.531,vbt_B1_day3,2022.2.4,Win32,59.42123715,,,,,,down,0,1.9175,,-0.181,-0.096,1,0,0,0,121,121,157,1,uitlaat,images/br_uitlaat.png,images/cb_uitlaat.png,0,,,,,,,,,,,,,,,,,,,,,,
,,,,,00085,2023-10-30_16h41.07.531,vbt_B1_day3,2022.2.4,Win32,59.42123715,,,,,,down,0,1.4348,,-0.181,-0.096,1,0,0,0,122,122,124,1,bloeien,images/br_bloeien.png,images/cb_bloeien.png,0,,,,,,,,,,,,,,,,,,,,,,
,,,,,00085,2023-10-30_16h41.07.531,vbt_B1_day3,2022.2.4,Win32,59.42123715,,,,,,down,0,0.7837,,-0.181,-0.096,1,0,0,0,123,123,186,1,voorraad,images/br_voorraad.png,images/cb_voorraad.png,0,,,,,,,,,,,,,,,,,,,,,,
,,,,,00085,2023-10-30_16h41.07.531,vbt_B1_day3,2022.2.4,Win32,59.42123715,,,,,,down,0,1.0006,,-0.181,-0.096,1,0,0,0,124,124,78,1,leren,images/br_leren.png,images/cb_leren.png,0,,,,,,,,,,,,,,,,,,,,,,
,,,,,00085,2023-10-30_16h41.07.531,vbt_B1_day3,2022.2.4,Win32,59.42123715,,,,,,down,0,6.6174,,-0.181,-0.096,1,0,0,0,125,125,101,1,staren,images/br_staren.png,images/cb_staren.png,1,staren,,,,,,,,,,,,,,,,,,,,,
,,,,,00085,2023-10-30_16h41.07.531,vbt_B1_day3,2022.2.4,Win32,59.42123715,,,,,,down,0,0.7848,,-0.181,-0.096,1,0,0,0,126,126,47,1,kabel,images/br_kabel.png,images/cb_kabel.png,0,,,,,,,,,,,,,,,,,,,,,,
,,,,,00085,2023-10-30_16h41.07.531,vbt_B1_day3,2022.2.4,Win32,59.42123715,,,,,,down,0,15.2025,,-0.181,-0.096,1,0,0,0,127,127,100,1,geduld,images/br_geduld.png,images/cb_geduld.png,1,geduld,,,,,,,,,,,,,,,,,,,,,
,,,,,00085,2023-10-30_16h41.07.531,vbt_B1_day3,2022.2.4,Win32,59.42123715,,,,,,down,0,4.5357,,-0.181,-0.096,1,0,0,0,128,128,16,1,ziek,images/br_ziek.png,images/cb_ziek.png,0,,,,,,,,,,,,,,,,,,,,,,
,,,,,00085,2023-10-30_16h41.07.531,vbt_B1_day3,2022.2.4,Win32,59.42123715,,,,,,down,0,0.1334,,-0.181,-0.096,1,0,0,0,129,129,49,1,laken,images/br_laken.png,images/cb_laken.png,0,,,,,,,,,,,,,,,,,,,,,,
,,,,,00085,2023-10-30_16h41.07.531,vbt_B1_day3,2022.2.4,Win32,59.42123715,,,,,,down,0,1.6674,,-0.181,-0.096,1,0,0,0,130,130,59,1,kring,images/br_kring.png,images/cb_kring.png,0,,,,,,,,,,,,,,,,,,,,,,
,,,,,00085,2023-10-30_16h41.07.531,vbt_B1_day3,2022.2.4,Win32,59.42123715,,,,,,down,0,0.3331,,-0.181,-0.096,1,0,0,0,131,131,36,1,vuur,images/br_vuur.png,images/cb_vuur.png,0,,,,,,,,,,,,,,,,,,,,,,
,,,,,00085,2023-10-30_16h41.07.531,vbt_B1_day3,2022.2.4,Win32,59.42123715,,,,,,down,0,0.0668,,-0.181,-0.096,1,0,0,0,132,132,112,1,lukken,images/br_lukken.png,images/cb_lukken.png,0,,,,,,,,,,,,,,,,,,,,,,
,,,,,00085,2023-10-30_16h41.07.531,vbt_B1_day3,2022.2.4,Win32,59.42123715,,,,,,down,0,1.6676,,-0.181,-0.096,1,0,0,0,133,133,121,1,twijfel,images/br_twijfel.png,images/cb_twijfel.png,0,,,,,,,,,,,,,,,,,,,,,,
,,,,,00085,2023-10-30_16h41.07.531,vbt_B1_day3,2022.2.4,Win32,59.42123715,,,,,,down,0,0.3171,,-0.181,-0.096,1,0,0,0,134,134,10,1,leek,images/br_leek.png,images/cb_leek.png,0,,,,,,,,,,,,,,,,,,,,,,
,,,,,00085,2023-10-30_16h41.07.531,vbt_B1_day3,2022.2.4,Win32,59.42123715,,,,,,down,0,4.8851,,-0.181,-0.096,1,0,0,0,135,135,182,1,bijkomen,images/br_bijkomen.png,images/cb_bijkomen.png,1,bijkomen,,,,,,,,,,,,,,,,,,,,,
,,,,,00085,2023-10-30_16h41.07.531,vbt_B1_day3,2022.2.4,Win32,59.42123715,,,,,,down,0,4.4624,,-0.181,-0.096,1,0,0,0,136,136,191,1,opheffen,images/br_opheffen.png,images/cb_opheffen.png,0,,,,,,,,,,,,,,,,,,,,,,
,,,,,00085,2023-10-30_16h41.07.531,vbt_B1_day3,2022.2.4,Win32,59.42123715,,,,,,down,0,6.8929,,-0.181,-0.096,1,0,0,0,137,137,94,1,oceaan,images/br_oceaan.png,images/cb_oceaan.png,0,,,,,,,,,,,,,,,,,,,,,,
,,,,,00085,2023-10-30_16h41.07.531,vbt_B1_day3,2022.2.4,Win32,59.42123715,,,,,,down,0,0.5676,,-0.181,-0.096,1,0,0,0,138,138,84,1,lokken,images/br_lokken.png,images/cb_lokken.png,0,,,,,,,,,,,,,,,,,,,,,,
,,,,,00085,2023-10-30_16h41.07.531,vbt_B1_day3,2022.2.4,Win32,59.42123715,,,,,,down,0,4.151,,-0.181,-0.096,1,0,0,0,139,139,154,1,aflopen,images/br_aflopen.png,images/cb_aflopen.png,0,,,,,,,,,,,,,,,,,,,,,,
,,,,,00085,2023-10-30_16h41.07.531,vbt_B1_day3,2022.2.4,Win32,59.42123715,,,,,,down,0,3.0679,,-0.181,-0.096,1,0,0,0,140,140,197,1,spanning,images/br_spanning.png,images/cb_spanning.png,0,,,,,,,,,,,,,,,,,,,,,,
,,,,,00085,2023-10-30_16h41.07.531,vbt_B1_day3,2022.2.4,Win32,59.42123715,,,,,,down,0,4.7343,,-0.181,-0.096,1,0,0,0,141,141,184,1,aandelen,images/br_aandelen.png,images/cb_aandelen.png,0,,,,,,,,,,,,,,,,,,,,,,
,,,,,00085,2023-10-30_16h41.07.531,vbt_B1_day3,2022.2.4,Win32,59.42123715,,,,,,down,0,0.3078,,-0.181,-0.096,1,0,0,0,142,142,65,1,parel,images/br_parel.png,images/cb_parel.png,0,,,,,,,,,,,,,,,,,,,,,,
,,,,,00085,2023-10-30_16h41.07.531,vbt_B1_day3,2022.2.4,Win32,59.42123715,,,,,,down,0,5.5341,,-0.181,-0.096,1,0,0,0,143,143,147,1,komisch,images/br_komisch.png,images/cb_komisch.png,0,,,,,,,,,,,,,,,,,,,,,,
,,,,,00085,2023-10-30_16h41.07.531,vbt_B1_day3,2022.2.4,Win32,59.42123715,,,,,,down,0,1.7682,,-0.181,-0.096,1,0,0,0,144,144,9,1,hier,images/br_hier.png,images/cb_hier.png,0,,,,,,,,,,,,,,,,,,,,,,
,,,,,00085,2023-10-30_16h41.07.531,vbt_B1_day3,2022.2.4,Win32,59.42123715,,,,,,down,0,0.1854,,-0.181,-0.096,1,0,0,0,145,145,73,1,volop,images/br_volop.png,images/cb_volop.png,0,,,,,,,,,,,,,,,,,,,,,,
,,,,,00085,2023-10-30_16h41.07.531,vbt_B1_day3,2022.2.4,Win32,59.42123715,,,,,,down,0,4.0843,,-0.181,-0.096,1,0,0,0,146,146,149,1,redding,images/br_redding.png,images/cb_redding.png,0,,,,,,,,,,,,,,,,,,,,,,
,,,,,00085,2023-10-30_16h41.07.531,vbt_B1_day3,2022.2.4,Win32,59.42123715,,,,,,down,0,0.3342,,-0.181,-0.096,1,0,0,0,147,147,96,1,slagen,images/br_slagen.png,images/cb_slagen.png,0,,,,,,,,,,,,,,,,,,,,,,
,,,,,00085,2023-10-30_16h41.07.531,vbt_B1_day3,2022.2.4,Win32,59.42123715,,,,,,down,0,3.7062,,-0.181,-0.096,1,0,0,0,148,148,103,1,joggen,images/br_joggen.png,images/cb_joggen.png,1,joggen,,,,,,,,,,,,,,,,,,,,,
,,,,,00085,2023-10-30_16h41.07.531,vbt_B1_day3,2022.2.4,Win32,59.42123715,,,,,,down,0,2.5671,,-0.181,-0.096,1,0,0,0,149,149,179,1,woestijn,images/br_woestijn.png,images/cb_woestijn.png,0,,,,,,,,,,,,,,,,,,,,,,
,,,,,00085,2023-10-30_16h41.07.531,vbt_B1_day3,2022.2.4,Win32,59.42123715,,,,,,down,0,5.4683,,-0.181,-0.096,1,0,0,0,150,150,86,1,woning,images/br_woning.png,images/cb_woning.png,0,,,,,,,,,,,,,,,,,,,,,,
,,,,,00085,2023-10-30_16h41.07.531,vbt_B1_day3,2022.2.4,Win32,59.42123715,,,,,,down,0,5.2009,,-0.181,-0.096,1,0,0,0,151,151,196,1,nakijken,images/br_nakijken.png,images/cb_nakijken.png,0,,,,,,,,,,,,,,,,,,,,,,
,,,,,00085,2023-10-30_16h41.07.531,vbt_B1_day3,2022.2.4,Win32,59.42123715,,,,,,down,0,3.4122,,-0.181,-0.096,1,0,0,0,152,152,189,1,aanraden,images/br_aanraden.png,images/cb_aanraden.png,0,,,,,,,,,,,,,,,,,,,,,,
,,,,,00085,2023-10-30_16h41.07.531,vbt_B1_day3,2022.2.4,Win32,59.42123715,,,,,,down,0,2.8827,,-0.181,-0.096,1,0,0,0,153,153,97,1,loyaal,images/br_loyaal.png,images/cb_loyaal.png,0,,,,,,,,,,,,,,,,,,,,,,
,,,,,00085,2023-10-30_16h41.07.531,vbt_B1_day3,2022.2.4,Win32,59.42123715,,,,,,down,0,7.3498,,-0.181,-0.096,1,0,0,0,154,154,164,1,anarchie,images/br_anarchie.png,images/cb_anarchie.png,0,,,,,,,,,,,,,,,,,,,,,,
,,,,,00085,2023-10-30_16h41.07.531,vbt_B1_day3,2022.2.4,Win32,59.42123715,,,,,,down,0,2.0689,,-0.181,-0.096,1,0,0,0,155,155,62,1,knaap,images/br_knaap.png,images/cb_knaap.png,1,knaap,,,,,,,,,,,,,,,,,,,,,
,,,,,00085,2023-10-30_16h41.07.531,vbt_B1_day3,2022.2.4,Win32,59.42123715,,,,,,down,0,10.5182,,-0.181,-0.096,1,0,0,0,156,156,51,1,samen,images/br_samen.png,images/cb_samen.png,0,,,,,,,,,,,,,,,,,,,,,,
,,,,,00085,2023-10-30_16h41.07.531,vbt_B1_day3,2022.2.4,Win32,59.42123715,,,,,,down,0,4.6004,,-0.181,-0.096,1,0,0,0,157,157,195,1,middelen,images/br_middelen.png,images/cb_middelen.png,0,,,,,,,,,,,,,,,,,,,,,,
,,,,,00085,2023-10-30_16h41.07.531,vbt_B1_day3,2022.2.4,Win32,59.42123715,,,,,,down,0,8.8864,,-0.181,-0.096,1,0,0,0,158,158,180,1,openbaar,images/br_openbaar.png,images/cb_openbaar.png,1,openbaar,,,,,,,,,,,,,,,,,,,,,
,,,,,00085,2023-10-30_16h41.07.531,vbt_B1_day3,2022.2.4,Win32,59.42123715,,,,,,down,0,0.8346,,-0.181,-0.096,1,0,0,0,159,159,132,1,grappen,images/br_grappen.png,images/cb_grappen.png,0,,,,,,,,,,,,,,,,,,,,,,
,,,,,00085,2023-10-30_16h41.07.531,vbt_B1_day3,2022.2.4,Win32,59.42123715,,,,,,down,0,3.4087,,-0.181,-0.096,1,0,0,0,160,160,102,1,legaal,images/br_legaal.png,images/cb_legaal.png,1,legaal,,,,,,,,,,,,,,,,,,,,,
,,,,,00085,2023-10-30_16h41.07.531,vbt_B1_day3,2022.2.4,Win32,59.42123715,,,,,,down,0,4.4503,,-0.181,-0.096,1,0,0,0,161,161,135,1,gedicht,images/br_gedicht.png,images/cb_gedicht.png,0,,,,,,,,,,,,,,,,,,,,,,
,,,,,00085,2023-10-30_16h41.07.531,vbt_B1_day3,2022.2.4,Win32,59.42123715,,,,,,down,0,5.1187,,-0.181,-0.096,1,0,0,0,162,162,91,1,gezond,images/br_gezond.png,images/cb_gezond.png,0,,,,,,,,,,,,,,,,,,,,,,
,,,,,00085,2023-10-30_16h41.07.531,vbt_B1_day3,2022.2.4,Win32,59.42123715,,,,,,down,0,4.7848,,-0.181,-0.096,1,0,0,0,163,163,133,1,seizoen,images/br_seizoen.png,images/cb_seizoen.png,0,,,,,,,,,,,,,,,,,,,,,,
,,,,,00085,2023-10-30_16h41.07.531,vbt_B1_day3,2022.2.4,Win32,59.42123715,,,,,,down,0,4.1344,,-0.181,-0.096,1,0,0,0,164,164,117,1,kennis,images/br_kennis.png,images/cb_kennis.png,0,,,,,,,,,,,,,,,,,,,,,,
,,,,,00085,2023-10-30_16h41.07.531,vbt_B1_day3,2022.2.4,Win32,59.42123715,,,,,,down,0,8.4014,,-0.181,-0.096,1,0,0,0,165,165,143,1,hechten,images/br_hechten.png,images/cb_hechten.png,1,hechten,,,,,,,,,,,,,,,,,,,,,
,,,,,00085,2023-10-30_16h41.07.531,vbt_B1_day3,2022.2.4,Win32,59.42123715,,,,,,down,0,1.6262,,-0.181,-0.096,1,0,0,0,166,166,74,1,graaf,images/br_graaf.png,images/cb_graaf.png,0,,,,,,,,,,,,,,,,,,,,,,
,,,,,00085,2023-10-30_16h41.07.531,vbt_B1_day3,2022.2.4,Win32,59.42123715,,,,,,down,0,4.2957,,-0.181,-0.096,1,0,0,0,167,167,155,1,gerucht,images/br_gerucht.png,images/cb_gerucht.png,0,,,,,,,,,,,,,,,,,,,,,,
,,,,,00085,2023-10-30_16h41.07.531,vbt_B1_day3,2022.2.4,Win32,59.42123715,,,,,,down,0,13.3412,,-0.181,-0.096,1,0,0,0,168,168,165,1,feestdag,images/br_feestdag.png,images/cb_feestdag.png,0,,,,,,,,,,,,,,,,,,,,,,
,,,,,00085,2023-10-30_16h41.07.531,vbt_B1_day3,2022.2.4,Win32,59.42123715,,,,,,down,0,5.4898,,-0.181,-0.096,1,0,0,0,169,169,131,1,opzicht,images/br_opzicht.png,images/cb_opzicht.png,0,,,,,,,,,,,,,,,,,,,,,,
,,,,,00085,2023-10-30_16h41.07.531,vbt_B1_day3,2022.2.4,Win32,59.42123715,,,,,,down,0,14.9929,,-0.181,-0.096,1,0,0,0,170,170,129,1,verhaal,images/br_verhaal.png,images/cb_verhaal.png,0,,,,,,,,,,,,,,,,,,,,,,
,,,,,00085,2023-10-30_16h41.07.531,vbt_B1_day3,2022.2.4,Win32,59.42123715,,,,,,down,0,3.3238,,-0.181,-0.096,1,0,0,0,171,171,119,1,liefje,images/br_liefje.png,images/cb_liefje.png,0,,,,,,,,,,,,,,,,,,,,,,
,,,,,00085,2023-10-30_16h41.07.531,vbt_B1_day3,2022.2.4,Win32,59.42123715,,,,,,down,0,9.7847,,-0.181,-0.096,1,0,0,0,172,172,166,1,strikken,images/br_strikken.png,images/cb_strikken.png,0,,,,,,,,,,,,,,,,,,,,,,
,,,,,00085,2023-10-30_16h41.07.531,vbt_B1_day3,2022.2.4,Win32,59.42123715,,,,,,down,0,6.5519,,-0.181,-0.096,1,0,0,0,173,173,168,1,bisschop,images/br_bisschop.png,images/cb_bisschop.png,0,,,,,,,,,,,,,,,,,,,,,,
,,,,,00085,2023-10-30_16h41.07.531,vbt_B1_day3,2022.2.4,Win32,59.42123715,,,,,,down,0,0.7512,,-0.181,-0.096,1,0,0,0,174,174,7,1,geld,images/br_geld.png,images/cb_geld.png,0,,,,,,,,,,,,,,,,,,,,,,
,,,,,00085,2023-10-30_16h41.07.531,vbt_B1_day3,2022.2.4,Win32,59.42123715,,,,,,down,0,3.8679,,-0.181,-0.096,1,0,0,0,175,175,151,1,aanzoek,images/br_aanzoek.png,images/cb_aanzoek.png,0,,,,,,,,,,,,,,,,,,,,,,
,,,,,00085,2023-10-30_16h41.07.531,vbt_B1_day3,2022.2.4,Win32,59.42123715,,,,,,down,0,7.2458,,-0.181,-0.096,1,0,0,0,176,176,153,1,vervoer,images/br_vervoer.png,images/cb_vervoer.png,0,,,,,,,,,,,,,,,,,,,,,,
,,,,,00085,2023-10-30_16h41.07.531,vbt_B1_day3,2022.2.4,Win32,59.42123715,,,,,,down,0,0.4849,,-0.181,-0.096,1,0,0,0,177,177,150,1,gegeven,images/br_gegeven.png,images/cb_gegeven.png,0,,,,,,,,,,,,,,,,,,,,,,
,,,,,00085,2023-10-30_16h41.07.531,vbt_B1_day3,2022.2.4,Win32,59.42123715,,,,,,down,0,5.5847,,-0.181,-0.096,1,0,0,0,178,178,139,1,stiekem,images/br_stiekem.png,images/cb_stiekem.png,0,,,,,,,,,,,,,,,,,,,,,,
,,,,,00085,2023-10-30_16h41.07.531,vbt_B1_day3,2022.2.4,Win32,59.42123715,,,,,,down,0,1.8731,,-0.181,-0.096,1,0,0,0,179,179,138,1,akkoord,images/br_akkoord.png,images/cb_akkoord.png,0,,,,,,,,,,,,,,,,,,,,,,
,,,,,00085,2023-10-30_16h41.07.531,vbt_B1_day3,2022.2.4,Win32,59.42123715,,,,,,down,0,1.4566,,-0.181,-0.096,1,0,0,0,180,180,56,1,traag,images/br_traag.png,images/cb_traag.png,0,,,,,,,,,,,,,,,,,,,,,,
,,,,,00085,2023-10-30_16h41.07.531,vbt_B1_day3,2022.2.4,Win32,59.42123715,,,,,,down,0,2.8334,,-0.181,-0.096,1,0,0,0,181,181,35,1,lust,images/br_lust.png,images/cb_lust.png,0,,,,,,,,,,,,,,,,,,,,,,
,,,,,00085,2023-10-30_16h41.07.531,vbt_B1_day3,2022.2.4,Win32,59.42123715,,,,,,down,0,0.0514,,-0.181,-0.096,1,0,0,0,182,182,25,1,plek,images/br_plek.png,images/cb_plek.png,0,,,,,,,,,,,,,,,,,,,,,,
,,,,,00085,2023-10-30_16h41.07.531,vbt_B1_day3,2022.2.4,Win32,59.42123715,,,,,,down,0,2.0346,,-0.181,-0.096,1,0,0,0,183,183,113,1,koppen,images/br_koppen.png,images/cb_koppen.png,0,,,,,,,,,,,,,,,,,,,,,,
,,,,,00085,2023-10-30_16h41.07.531,vbt_B1_day3,2022.2.4,Win32,59.42123715,,,,,,down,0,2.9072,,-0.181,-0.096,1,0,0,0,184,184,92,1,geheim,images/br_geheim.png,images/cb_geheim.png,0,,,,,,,,,,,,,,,,,,,,,,
,,,,,00085,2023-10-30_16h41.07.531,vbt_B1_day3,2022.2.4,Win32,59.42123715,,,,,,down,0,7.5155,,-0.181,-0.096,1,0,0,0,185,185,185,1,mijnheer,images/br_mijnheer.png,images/cb_mijnheer.png,0,,,,,,,,,,,,,,,,,,,,,,
,,,,,00085,2023-10-30_16h41.07.531,vbt_B1_day3,2022.2.4,Win32,59.42123715,,,,,,down,0,0.9533,,-0.181,-0.096,1,0,0,0,186,186,26,1,leuk,images/br_leuk.png,images/cb_leuk.png,0,,,,,,,,,,,,,,,,,,,,,,
,,,,,00085,2023-10-30_16h41.07.531,vbt_B1_day3,2022.2.4,Win32,59.42123715,,,,,,down,0,6.976,,-0.181,-0.096,1,0,0,0,187,187,54,1,gebit,images/br_gebit.png,images/cb_gebit.png,0,,,,,,,,,,,,,,,,,,,,,,
,,,,,00085,2023-10-30_16h41.07.531,vbt_B1_day3,2022.2.4,Win32,59.42123715,,,,,,down,0,7.1675,,-0.181,-0.096,1,0,0,0,188,188,158,1,innemen,images/br_innemen.png,images/cb_innemen.png,0,,,,,,,,,,,,,,,,,,,,,,
,,,,,00085,2023-10-30_16h41.07.531,vbt_B1_day3,2022.2.4,Win32,59.42123715,,,,,,down,0,1.351,,-0.181,-0.096,1,0,0,0,189,189,24,1,jurk,images/br_jurk.png,images/cb_jurk.png,0,,,,,,,,,,,,,,,,,,,,,,
,,,,,00085,2023-10-30_16h41.07.531,vbt_B1_day3,2022.2.4,Win32,59.42123715,,,,,,down,0,5.9515,,-0.181,-0.096,1,0,0,0,190,190,61,1,groen,images/br_groen.png,images/cb_groen.png,1,groen,,,,,,,,,,,,,,,,,,,,,
,,,,,00085,2023-10-30_16h41.07.531,vbt_B1_day3,2022.2.4,Win32,59.42123715,,,,,,down,0,2.6689,,-0.181,-0.096,1,0,0,0,191,191,171,1,aarzelen,images/br_aarzelen.png,images/cb_aarzelen.png,0,,,,,,,,,,,,,,,,,,,,,,
,,,,,00085,2023-10-30_16h41.07.531,vbt_B1_day3,2022.2.4,Win32,59.42123715,,,,,,down,0,0.2143,,-0.181,-0.096,1,0,0,0,192,192,55,1,praat,images/br_praat.png,images/cb_praat.png,0,,,,,,,,,,,,,,,,,,,,,,
,,,,,00085,2023-10-30_16h41.07.531,vbt_B1_day3,2022.2.4,Win32,59.42123715,,,,,,down,0,4.2028,,-0.181,-0.096,1,0,0,0,193,193,178,1,huisdier,images/br_huisdier.png,images/cb_huisdier.png,0,,,,,,,,,,,,,,,,,,,,,,
,,,,,00085,2023-10-30_16h41.07.531,vbt_B1_day3,2022.2.4,Win32,59.42123715,,,,,,down,0,2.7676,,-0.181,-0.096,1,0,0,0,194,194,44,1,flits,images/br_flits.png,images/cb_flits.png,0,,,,,,,,,,,,,,,,,,,,,,
,,,,,00085,2023-10-30_16h41.07.531,vbt_B1_day3,2022.2.4,Win32,59.42123715,,,,,,down,0,3.2339,,-0.181,-0.096,1,0,0,0,195,195,85,1,heilig,images/br_heilig.png,images/cb_heilig.png,0,,,,,,,,,,,,,,,,,,,,,,
,,,,,00085,2023-10-30_16h41.07.531,vbt_B1_day3,2022.2.4,Win32,59.42123715,,,,,,down,0,2.0017,,-0.181,-0.096,1,0,0,0,196,196,22,1,stof,images/br_stof.png,images/cb_stof.png,1,stof,,,,,,,,,,,,,,,,,,,,,
,,,,,00085,2023-10-30_16h41.07.531,vbt_B1_day3,2022.2.4,Win32,59.42123715,,,,,,down,0,5.1343,,-0.181,-0.096,1,0,0,0,197,197,123,1,hiervan,images/br_hiervan.png,images/cb_hiervan.png,0,,,,,,,,,,,,,,,,,,,,,,
,,,,,00085,2023-10-30_16h41.07.531,vbt_B1_day3,2022.2.4,Win32,59.42123715,,,,,,down,0,9.1675,,-0.181,-0.096,1,0,0,0,198,198,111,1,ticket,images/br_ticket.png,images/cb_ticket.png,0,,,,,,,,,,,,,,,,,,,,,,
,,,,,00085,2023-10-30_16h41.07.531,vbt_B1_day3,2022.2.4,Win32,59.42123715,,,,,,down,0,13.1018,,-0.181,-0.096,1,0,0,0,199,199,53,1,baron,images/br_baron.png,images/cb_baron.png,0,,,,,,,,,,,,,,,,,,,,,,
,,,,,00085,2023-10-30_16h41.07.531,vbt_B1_day3,2022.2.4,Win32,59.42123715,,,,,,,,,,,,,,,,,,,,,,,,,-0.181,-0.096,1,0,0,,,,,,,,,,,,,,,,
,,,,,00085,2023-10-30_16h41.07.531,vbt_B1_day3,2022.2.4,Win32,59.42123715,,,,,,,,,,,,,,,,,,,,,,,,,,,,,,-0.181,-0.096,1,0,0,,,,,,,,,,,
,,,,,00085,2023-10-30_16h41.07.531,vbt_B1_day3,2022.2.4,Win32,59.42123715,,,,,,,,,,,,,,,,,,,,verhaal,images/br_verhaal.png,images/cb_verhaal.png,,verhaal,,,,,,,,,,,-0.181,-0.096,1,0,0,verhaal,0,0,0,13,1
,,,,,00085,2023-10-30_16h41.07.531,vbt_B1_day3,2022.2.4,Win32,59.42123715,,,,,,,,,,,,,,,,,,,,opzicht,images/br_opzicht.png,images/cb_opzicht.png,,opzicht,,,,,,,,,,,-0.181,-0.096,1,0,0,opzicht,0,1,1,15,1
,,,,,00085,2023-10-30_16h41.07.531,vbt_B1_day3,2022.2.4,Win32,59.42123715,,,,,,,,,,,,,,,,,,,,gout,images/br_gout.png,images/cb_gout.png,,gout,,,,,,,,,,,-0.181,-0.096,1,0,0,gout,0,2,2,20,1
,,,,,00085,2023-10-30_16h41.07.531,vbt_B1_day3,2022.2.4,Win32,59.42123715,,,,,,,,,,,,,,,,,,,,mode,images/br_mode.png,images/cb_mode.png,,mode,,,,,,,,,,,-0.181,-0.096,1,0,0,mode,0,3,3,3,1
,,,,,00085,2023-10-30_16h41.07.531,vbt_B1_day3,2022.2.4,Win32,59.42123715,,,,,,,,,,,,,,,,,,,,oprotten,images/br_oprotten.png,images/cb_oprotten.png,,oprotten,,,,,,,,,,,-0.181,-0.096,1,0,0,oprotten,0,4,4,17,1
,,,,,00085,2023-10-30_16h41.07.531,vbt_B1_day3,2022.2.4,Win32,59.42123715,,,,,,,,,,,,,,,,,,,,aarzelen,images/br_aarzelen.png,images/cb_aarzelen.png,,aarzelen,,,,,,,,,,,-0.181,-0.096,1,0,0,aarzelen,0,5,5,19,1
,,,,,00085,2023-10-30_16h41.07.531,vbt_B1_day3,2022.2.4,Win32,59.42123715,,,,,,,,,,,,,,,,,,,,schatten,images/br_schatten.png,images/cb_schatten.png,,schatten,,,,,,,,,,,-0.181,-0.096,1,0,0,schatten,0,6,6,18,1
,,,,,00085,2023-10-30_16h41.07.531,vbt_B1_day3,2022.2.4,Win32,59.42123715,,,,,,,,,,,,,,,,,,,,booien,images/br_booien.png,images/cb_booien.png,,booien,,,,,,,,,,,-0.181,-0.096,1,0,0,booien,0,7,7,31,1
,,,,,00085,2023-10-30_16h41.07.531,vbt_B1_day3,2022.2.4,Win32,59.42123715,,,,,,,,,,,,,,,,,,,,verwoor,images/br_verwoor.png,images/cb_verwoor.png,,verkoor,,,,,,,,,,,-0.181,-0.096,1,0,0,verkoor,0,8,8,32,1
,,,,,00085,2023-10-30_16h41.07.531,vbt_B1_day3,2022.2.4,Win32,59.42123715,,,,,,,,,,,,,,,,,,,,twaaf,images/br_twaaf.png,images/cb_twaaf.png,,dwaaf,,,,,,,,,,,-0.181,-0.096,1,0,0,dwaaf,0,9,9,24,1
,,,,,00085,2023-10-30_16h41.07.531,vbt_B1_day3,2022.2.4,Win32,59.42123715,,,,,,,,,,,,,,,,,,,,zone,images/br_zone.png,images/cb_zone.png,,zone,,,,,,,,,,,-0.181,-0.096,1,0,0,zone,0,10,10,41,1
,,,,,00085,2023-10-30_16h41.07.531,vbt_B1_day3,2022.2.4,Win32,59.42123715,,,,,,,,,,,,,,,,,,,,sultan,images/br_sultan.png,images/cb_sultan.png,,sultan,,,,,,,,,,,-0.181,-0.096,1,0,0,sultan,0,11,11,49,1
,,,,,00085,2023-10-30_16h41.07.531,vbt_B1_day3,2022.2.4,Win32,59.42123715,,,,,,,,,,,,,,,,,,,,stoom,images/br_stoom.png,images/cb_stoom.png,,stoom,,,,,,,,,,,-0.181,-0.096,1,0,0,stoom,0,12,12,6,1
,,,,,00085,2023-10-30_16h41.07.531,vbt_B1_day3,2022.2.4,Win32,59.42123715,,,,,,,,,,,,,,,,,,,,vlager,images/br_vlager.png,images/cb_vlager.png,,vlager,,,,,,,,,,,-0.181,-0.096,1,0,0,vlager,0,13,13,28,1
,,,,,00085,2023-10-30_16h41.07.531,vbt_B1_day3,2022.2.4,Win32,59.42123715,,,,,,,,,,,,,,,,,,,,theeting,images/br_theeting.png,images/cb_theeting.png,,theet..,,,,,,,,,,,-0.181,-0.096,1,0,0,theet..,0,14,14,38,1
,,,,,00085,2023-10-30_16h41.07.531,vbt_B1_day3,2022.2.4,Win32,59.42123715,,,,,,,,,,,,,,,,,,,,leemaken,images/br_leemaken.png,images/cb_leemaken.png,,leemaken,,,,,,,,,,,-0.181,-0.096,1,0,0,leemaken,0,15,15,39,1
,,,,,00085,2023-10-30_16h41.07.531,vbt_B1_day3,2022.2.4,Win32,59.42123715,,,,,,,,,,,,,,,,,,,,sluier,images/br_sluier.png,images/cb_sluier.png,,sluier,,,,,,,,,,,-0.181,-0.096,1,0,0,sluier,0,16,16,50,1
,,,,,00085,2023-10-30_16h41.07.531,vbt_B1_day3,2022.2.4,Win32,59.42123715,,,,,,,,,,,,,,,,,,,,keihard,images/br_keihard.png,images/cb_keihard.png,,keihard,,,,,,,,,,,-0.181,-0.096,1,0,0,keihard,0,17,17,14,1
,,,,,00085,2023-10-30_16h41.07.531,vbt_B1_day3,2022.2.4,Win32,59.42123715,,,,,,,,,,,,,,,,,,,,kaas,images/br_kaas.png,images/cb_kaas.png,,kaas,,,,,,,,,,,-0.181,-0.096,1,0,0,kaas,0,18,18,42,1
,,,,,00085,2023-10-30_16h41.07.531,vbt_B1_day3,2022.2.4,Win32,59.42123715,,,,,,,,,,,,,,,,,,,,kest,images/br_kest.png,images/cb_kest.png,,kest,,,,,,,,,,,-0.1805,-0.0965,1,0,0,kest,0,19,19,21,1
,,,,,00085,2023-10-30_16h41.07.531,vbt_B1_day3,2022.2.4,Win32,59.42123715,,,,,,,,,,,,,,,,,,,,glijden,images/br_glijden.png,images/cb_glijden.png,,glijden,,,,,,,,,,,-0.1805,-0.0965,1,0,0,glijden,0,20,20,53,1
,,,,,00085,2023-10-30_16h41.07.531,vbt_B1_day3,2022.2.4,Win32,59.42123715,,,,,,,,,,,,,,,,,,,,stikken,images/br_stikken.png,images/cb_stikken.png,,stikken,,,,,,,,,,,-0.1805,-0.0965,1,0,0,stikken,0,21,21,54,1
,,,,,00085,2023-10-30_16h41.07.531,vbt_B1_day3,2022.2.4,Win32,59.42123715,,,,,,,,,,,,,,,,,,,,stallen,images/br_stallen.png,images/cb_stallen.png,,stallen,,,,,,,,,,,-0.1805,-0.0965,1,0,0,stallen,0,22,22,52,1
,,,,,00085,2023-10-30_16h41.07.531,vbt_B1_day3,2022.2.4,Win32,59.42123715,,,,,,,,,,,,,,,,,,,,leek,images/br_leek.png,images/cb_leek.png,,leek,,,,,,,,,,,-0.1805,-0.0965,1,0,0,leek,0,23,23,2,1
,,,,,00085,2023-10-30_16h41.07.531,vbt_B1_day3,2022.2.4,Win32,59.42123715,,,,,,,,,,,,,,,,,,,,invallen,images/br_invallen.png,images/cb_invallen.png,,invallen,,,,,,,,,,,-0.1805,-0.0965,1,0,0,invallen,0,24,24,57,1
,,,,,00085,2023-10-30_16h41.07.531,vbt_B1_day3,2022.2.4,Win32,59.42123715,,,,,,,,,,,,,,,,,,,,makieren,images/br_makieren.png,images/cb_makieren.png,,makieren,,,,,,,,,,,-0.1805,-0.0965,1,0,0,makieren,0,25,25,36,1
,,,,,00085,2023-10-30_16h41.07.531,vbt_B1_day3,2022.2.4,Win32,59.42123715,,,,,,,,,,,,,,,,,,,,hust,images/br_hust.png,images/cb_hust.png,,hust,,,,,,,,,,,-0.1805,-0.0965,1,0,0,hust,0,26,26,23,1
,,,,,00085,2023-10-30_16h41.07.531,vbt_B1_day3,2022.2.4,Win32,59.42123715,,,,,,,,,,,,,,,,,,,,geluid,images/br_geluid.png,images/cb_geluid.png,,geluid,,,,,,,,,,,-0.1805,-0.0965,1,0,0,geluid,0,27,27,10,1
,,,,,00085,2023-10-30_16h41.07.531,vbt_B1_day3,2022.2.4,Win32,59.42123715,,,,,,,,,,,,,,,,,,,,samen,images/br_samen.png,images/cb_samen.png,,samen,,,,,,,,,,,-0.1805,-0.0965,1,0,0,samen,0,28,28,7,1
,,,,,00085,2023-10-30_16h41.07.531,vbt_B1_day3,2022.2.4,Win32,59.42123715,,,,,,,,,,,,,,,,,,,,prikken,images/br_prikken.png,images/cb_prikken.png,,prikken,,,,,,,,,,,-0.1805,-0.0965,1,0,0,prikken,0,29,29,12,1
,,,,,00085,2023-10-30_16h41.07.531,vbt_B1_day3,2022.2.4,Win32,59.42123715,,,,,,,,,,,,,,,,,,,,croo,images/br_croo.png,images/cb_croo.png,,croo,,,,,,,,,,,-0.1805,-0.0965,1,0,0,croo,0,30,30,22,1
,,,,,00085,2023-10-30_16h41.07.531,vbt_B1_day3,2022.2.4,Win32,59.42123715,,,,,,,,,,,,,,,,,,,,onrecht,images/br_onrecht.png,images/cb_onrecht.png,,onrecht,,,,,,,,,,,-0.1805,-0.0965,1,0,0,onrecht,0,31,31,55,1
,,,,,00085,2023-10-30_16h41.07.531,vbt_B1_day3,2022.2.4,Win32,59.42123715,,,,,,,,,,,,,,,,,,,,laken,images/br_laken.png,images/cb_laken.png,,laken,,,,,,,,,,,-0.1805,-0.0965,1,0,0,laken,0,32,32,5,1
,,,,,00085,2023-10-30_16h41.07.531,vbt_B1_day3,2022.2.4,Win32,59.42123715,,,,,,,,,,,,,,,,,,,,hint,images/br_hint.png,images/cb_hint.png,,hint,,,,,,,,,,,-0.1805,-0.0965,1,0,0,hint,0,33,33,43,1
,,,,,00085,2023-10-30_16h41.07.531,vbt_B1_day3,2022.2.4,Win32,59.42123715,,,,,,,,,,,,,,,,,,,,gebod,images/br_gebod.png,images/cb_gebod.png,,gebod,,,,,,,,,,,-0.1805,-0.0965,1,0,0,gebod,0,34,34,45,1
,,,,,00085,2023-10-30_16h41.07.531,vbt_B1_day3,2022.2.4,Win32,59.42123715,,,,,,,,,,,,,,,,,,,,mugeek,images/br_mugeek.png,images/cb_mugeek.png,,mugeek,,,,,,,,,,,-0.1805,-0.0965,1,0,0,mugeek,0,35,35,29,1
,,,,,00085,2023-10-30_16h41.07.531,vbt_B1_day3,2022.2.4,Win32,59.42123715,,,,,,,,,,,,,,,,,,,,leugeren,images/br_leugeren.png,images/cb_leugeren.png,,leugeren,,,,,,,,,,,-0.1805,-0.0965,1,0,0,leugeren,0,36,36,37,1
,,,,,00085,2023-10-30_16h41.07.531,vbt_B1_day3,2022.2.4,Win32,59.42123715,,,,,,,,,,,,,,,,,,,,steel,images/br_steel.png,images/cb_steel.png,,steel,,,,,,,,,,,-0.1805,-0.0965,1,0,0,steel,0,37,37,4,1
,,,,,00085,2023-10-30_16h41.07.531,vbt_B1_day3,2022.2.4,Win32,59.42123715,,,,,,,,,,,,,,,,,,,,verraden,images/br_verraden.png,images/cb_verraden.png,,verraden,,,,,,,,,,,-0.1805,-0.0965,1,0,0,verraden,0,38,38,58,1
,,,,,00085,2023-10-30_16h41.07.531,vbt_B1_day3,2022.2.4,Win32,59.42123715,,,,,,,,,,,,,,,,,,,,alsof,images/br_alsof.png,images/cb_alsof.png,,alsof,,,,,,,,,,,-0.1805,-0.0965,1,0,0,alsof,0,39,39,44,1
,,,,,00085,2023-10-30_16h41.07.531,vbt_B1_day3,2022.2.4,Win32,59.42123715,,,,,,,,,,,,,,,,,,,,opzetten,images/br_opzetten.png,images/cb_opzetten.png,,opzetten,,,,,,,,,,,-0.1805,-0.0965,1,0,0,opzetten,0,40,40,56,1
,,,,,00085,2023-10-30_16h41.07.531,vbt_B1_day3,2022.2.4,Win32,59.42123715,,,,,,,,,,,,,,,,,,,,afbopen,images/br_afbopen.png,images/cb_afbopen.png,,afbo...,,,,,,,,,,,-0.1805,-0.0965,1,0,0,afbo...,0,41,41,34,1
,,,,,00085,2023-10-30_16h41.07.531,vbt_B1_day3,2022.2.4,Win32,59.42123715,,,,,,,,,,,,,,,,,,,,schodel,images/br_schodel.png,images/cb_schodel.png,,schodel,,,,,,,,,,,-0.1805,-0.0965,1,0,0,schodel,0,42,42,33,1
,,,,,00085,2023-10-30_16h41.07.531,vbt_B1_day3,2022.2.4,Win32,59.42123715,,,,,,,,,,,,,,,,,,,,jongelui,images/br_jongelui.png,images/cb_jongelui.png,,jongel..,,,,,,,,,,,-0.1805,-0.0965,1,0,0,jongel..,0,43,43,59,1
,,,,,00085,2023-10-30_16h41.07.531,vbt_B1_day3,2022.2.4,Win32,59.42123715,,,,,,,,,,,,,,,,,,,,begrip,images/br_begrip.png,images/cb_begrip.png,,begrip,,,,,,,,,,,-0.1805,-0.0965,1,0,0,begrip,0,44,44,48,1
,,,,,00085,2023-10-30_16h41.07.531,vbt_B1_day3,2022.2.4,Win32,59.42123715,,,,,,,,,,,,,,,,,,,,dwang,images/br_dwang.png,images/cb_dwang.png,,dw...,,,,,,,,,,,-0.1805,-0.0965,1,0,0,dw...,0,45,45,47,1
,,,,,00085,2023-10-30_16h41.07.531,vbt_B1_day3,2022.2.4,Win32,59.42123715,,,,,,,,,,,,,,,,,,,,kwaas,images/br_kwaas.png,images/cb_kwaas.png,,kwaas,,,,,,,,,,,-0.1805,-0.0965,1,0,0,kwaas,0,46,46,26,1
,,,,,00085,2023-10-30_16h41.07.531,vbt_B1_day3,2022.2.4,Win32,59.42123715,,,,,,,,,,,,,,,,,,,,beslag,images/br_beslag.png,images/cb_beslag.png,,beslag,,,,,,,,,,,-0.1805,-0.0965,1,0,0,beslag,0,47,47,51,1
,,,,,00085,2023-10-30_16h41.07.531,vbt_B1_day3,2022.2.4,Win32,59.42123715,,,,,,,,,,,,,,,,,,,,uviek,images/br_uviek.png,images/cb_uviek.png,,mviek,,,,,,,,,,,-0.0095,-0.2025,1,0,0,mviek,0,48,48,25,1
,,,,,00085,2023-10-30_16h41.07.531,vbt_B1_day3,2022.2.4,Win32,59.42123715,,,,,,,,,,,,,,,,,,,,hier,images/br_hier.png,images/cb_hier.png,,hier,,,,,,,,,,,0.016,-0.2825,1,0,0,hier,0,49,49,1,1
,,,,,00085,2023-10-30_16h41.07.531,vbt_B1_day3,2022.2.4,Win32,59.42123715,,,,,,,,,,,,,,,,,,,,bisschop,images/br_bisschop.png,images/cb_bisschop.png,,bisschop,,,,,,,,,,,-0.006,-0.298,1,0,0,bisschop,0,50,50,16,1
,,,,,00085,2023-10-30_16h41.07.531,vbt_B1_day3,2022.2.4,Win32,59.42123715,,,,,,,,,,,,,,,,,,,,gezond,images/br_gezond.png,images/cb_gezond.png,,gezond,,,,,,,,,,,-0.006,-0.298,1,0,0,gezond,0,51,51,11,1
,,,,,00085,2023-10-30_16h41.07.531,vbt_B1_day3,2022.2.4,Win32,59.42123715,,,,,,,,,,,,,,,,,,,,eens,images/br_eens.png,images/cb_eens.png,,eens,,,,,,,,,,,-0.006,-0.298,1,0,0,eens,0,52,52,40,1
,,,,,00085,2023-10-30_16h41.07.531,vbt_B1_day3,2022.2.4,Win32,59.42123715,,,,,,,,,,,,,,,,,,,,boeien,images/br_boeien.png,images/cb_boeien.png,,boeien,,,,,,,,,,,-0.006,-0.298,1,0,0,boeien,0,53,53,8,1
,,,,,00085,2023-10-30_16h41.07.531,vbt_B1_day3,2022.2.4,Win32,59.42123715,,,,,,,,,,,,,,,,,,,,uniek,images/br_uniek.png,images/cb_uniek.png,,uniek,,,,,,,,,,,-0.006,-0.298,1,0,0,uniek,0,54,54,46,1
,,,,,00085,2023-10-30_16h41.07.531,vbt_B1_day3,2022.2.4,Win32,59.42123715,,,,,,,,,,,,,,,,,,,,bevret,images/br_bevret.png,images/cb_bevret.png,,bevret,,,,,,,,,,,-0.006,-0.298,1,0,0,bevret,0,55,55,30,1
,,,,,00085,2023-10-30_16h41.07.531,vbt_B1_day3,2022.2.4,Win32,59.42123715,,,,,,,,,,,,,,,,,,,,slapen,images/br_slapen.png,images/cb_slapen.png,,slapen,,,,,,,,,,,-0.006,-0.298,1,0,0,slapen,0,56,56,9,1
,,,,,00085,2023-10-30_16h41.07.531,vbt_B1_day3,2022.2.4,Win32,59.42123715,,,,,,,,,,,,,,,,,,,,paken,images/br_paken.png,images/cb_paken.png,,paken,,,,,,,,,,,-0.006,-0.298,1,0,0,paken,0,57,57,27,1
,,,,,00085,2023-10-30_16h41.07.531,vbt_B1_day3,2022.2.4,Win32,59.42123715,,,,,,,,,,,,,,,,,,,,knie,images/br_knie.png,images/cb_knie.png,,knie,,,,,,,,,,,-0.006,-0.298,1,0,0,knie,0,58,58,0,1
,,,,,00085,2023-10-30_16h41.07.531,vbt_B1_day3,2022.2.4,Win32,59.42123715,,,,,,,,,,,,,,,,,,,,brappen,images/br_brappen.png,images/cb_brappen.png,,brappen,,,,,,,,,,,-0.006,-0.298,1,0,0,brappen,0,59,59,35,1
,,,,,00085,2023-10-30_16h41.07.531,vbt_B1_day3,2022.2.4,Win32,59.42123715,,,,,,,,,,,,,,,,,,,,,,,,,,,,,,,,,,,,,,,,,,,,,
