welcome_mouse.x,welcome_mouse.y,welcome_mouse.leftButton,welcome_mouse.midButton,welcome_mouse.rightButton,"ID",date,expName,psychopyVersion,OS,frameRate,participant,trainInstr_mouse.x,trainInstr_mouse.y,trainInstr_mouse.leftButton,trainInstr_mouse.midButton,trainInstr_mouse.rightButton,translation_key.keys,translation_key.corr,translation_key.rt,word_rsp.text,trWrd_mouse.x,trWrd_mouse.y,trWrd_mouse.leftButton,trWrd_mouse.midButton,trWrd_mouse.rightButton,train_loop.thisRepN,train_loop.thisTrialN,train_loop.thisN,train_loop.thisIndex,train_loop.ran,nlWrd,brWrd,cbWrd,test,testResp,mouse.x,mouse.y,mouse.leftButton,mouse.midButton,mouse.rightButton,testInstr_mouse.x,testInstr_mouse.y,testInstr_mouse.leftButton,testInstr_mouse.midButton,testInstr_mouse.rightButton,test_mouse.x,test_mouse.y,test_mouse.leftButton,test_mouse.midButton,test_mouse.rightButton,test_response.text,test_loop.thisRepN,test_loop.thisTrialN,test_loop.thisN,test_loop.thisIndex,test_loop.ran
-0.06759255,-0.213888875,1,0,0,53500,2023-07-21_23h00.24.744,vbt_B1_day3,2022.2.4,Win32,60.24459305,53500,,,,,,,,,,,,,,,,,,,,,,,,,,,,,,,,,,,,,,,,,,,,,
,,,,,53500,2023-07-21_23h00.24.744,vbt_B1_day3,2022.2.4,Win32,60.24459305,53500,-0.06759255,-0.213888875,1,0,0,,,,,,,,,,,,,,,,,,,,,,,,,,,,,,,,,,,,,,,,
,,,,,53500,2023-07-21_23h00.24.744,vbt_B1_day3,2022.2.4,Win32,60.24459305,53500,,,,,,down,0,13.7812,,0.079629616,-0.233333376,1,0,0,0,0,0,8,1,knie,images/br_knie.png,images/cb_knie.png,0,,,,,,,,,,,,,,,,,,,,,,
,,,,,53500,2023-07-21_23h00.24.744,vbt_B1_day3,2022.2.4,Win32,60.24459305,53500,,,,,,down,0,35.0356,,0.347222222,-0.200925968,1,0,0,0,1,1,22,1,stof,images/br_stof.png,images/cb_stof.png,1,ster,,,,,,,,,,,,,,,,,,,,,
,,,,,53500,2023-07-21_23h00.24.744,vbt_B1_day3,2022.2.4,Win32,60.24459305,53500,,,,,,down,0,18.2521,,0.09629631,-0.319444444,1,0,0,0,2,2,76,1,afval,images/br_afval.png,images/cb_afval.png,0,,,,,,,,,,,,,,,,,,,,,,
,,,,,53500,2023-07-21_23h00.24.744,vbt_B1_day3,2022.2.4,Win32,60.24459305,53500,,,,,,down,0,22.0369,,-0.051851838,-0.079629651,1,0,0,0,3,3,45,1,piste,images/br_piste.png,images/cb_piste.png,0,,,,,,,,,,,,,,,,,,,,,,
,,,,,53500,2023-07-21_23h00.24.744,vbt_B1_day3,2022.2.4,Win32,60.24459305,53500,,,,,,down,0,14.0906,,0.175925926,-0.162962949,1,0,0,0,4,4,59,1,kring,images/br_kring.png,images/cb_kring.png,0,,,,,,,,,,,,,,,,,,,,,,
,,,,,53500,2023-07-21_23h00.24.744,vbt_B1_day3,2022.2.4,Win32,60.24459305,53500,,,,,,down,0,9.0005,,0.259259259,-0.280555584,1,0,0,0,5,5,20,1,site,images/br_site.png,images/cb_site.png,1,site,,,,,,,,,,,,,,,,,,,,,
,,,,,53500,2023-07-21_23h00.24.744,vbt_B1_day3,2022.2.4,Win32,60.24459305,53500,,,,,,down,0,14.7221,,0.281481496,-0.200925968,1,0,0,0,6,6,158,1,innemen,images/br_innemen.png,images/cb_innemen.png,0,,,,,,,,,,,,,,,,,,,,,,
,,,,,53500,2023-07-21_23h00.24.744,vbt_B1_day3,2022.2.4,Win32,60.24459305,53500,,,,,,down,0,10.6227,,0.281481496,-0.200925968,1,0,0,0,7,7,33,1,vlek,images/br_vlek.png,images/cb_vlek.png,0,,,,,,,,,,,,,,,,,,,,,,
,,,,,53500,2023-07-21_23h00.24.744,vbt_B1_day3,2022.2.4,Win32,60.24459305,53500,,,,,,down,0,20.6842,,0.282407407,-0.147222236,1,0,0,0,8,8,85,1,heilig,images/br_heilig.png,images/cb_heilig.png,0,,,,,,,,,,,,,,,,,,,,,,
,,,,,53500,2023-07-21_23h00.24.744,vbt_B1_day3,2022.2.4,Win32,60.24459305,53500,,,,,,down,0,16.365,,0.282407407,-0.147222236,1,0,0,0,9,9,156,1,rechten,images/br_rechten.png,images/cb_rechten.png,0,,,,,,,,,,,,,,,,,,,,,,
,,,,,53500,2023-07-21_23h00.24.744,vbt_B1_day3,2022.2.4,Win32,60.24459305,53500,,,,,,down,0,11.9583,,0.282407407,-0.147222236,1,0,0,0,10,10,137,1,trekker,images/br_trekker.png,images/cb_trekker.png,0,,,,,,,,,,,,,,,,,,,,,,
,,,,,53500,2023-07-21_23h00.24.744,vbt_B1_day3,2022.2.4,Win32,60.24459305,53500,,,,,,down,0,13.4106,,0.282407407,-0.147222236,1,0,0,0,11,11,161,1,attentie,images/br_attentie.png,images/cb_attentie.png,0,,,,,,,,,,,,,,,,,,,,,,
,,,,,53500,2023-07-21_23h00.24.744,vbt_B1_day3,2022.2.4,Win32,60.24459305,53500,,,,,,down,0,15.5349,,0.282407407,-0.147222236,1,0,0,0,12,12,194,1,driemaal,images/br_driemaal.png,images/cb_driemaal.png,0,,,,,,,,,,,,,,,,,,,,,,
,,,,,53500,2023-07-21_23h00.24.744,vbt_B1_day3,2022.2.4,Win32,60.24459305,53500,,,,,,down,0,17.0516,,0.282407407,-0.147222236,1,0,0,0,13,13,66,1,lever,images/br_lever.png,images/cb_lever.png,0,,,,,,,,,,,,,,,,,,,,,,
,,,,,53500,2023-07-21_23h00.24.744,vbt_B1_day3,2022.2.4,Win32,60.24459305,53500,,,,,,down,0,11.1176,,0.14444443,-0.284259302,1,0,0,0,14,14,6,1,diep,images/br_diep.png,images/cb_diep.png,0,,,,,,,,,,,,,,,,,,,,,,
,,,,,53500,2023-07-21_23h00.24.744,vbt_B1_day3,2022.2.4,Win32,60.24459305,53500,,,,,,down,0,13.2385,,0.14444443,-0.284259302,1,0,0,0,15,15,93,1,waarop,images/br_waarop.png,images/cb_waarop.png,0,,,,,,,,,,,,,,,,,,,,,,
,,,,,53500,2023-07-21_23h00.24.744,vbt_B1_day3,2022.2.4,Win32,60.24459305,53500,,,,,,down,0,20.7839,,0.14444443,-0.284259302,1,0,0,0,16,16,192,1,schaamte,images/br_schaamte.png,images/cb_schaamte.png,0,,,,,,,,,,,,,,,,,,,,,,
,,,,,53500,2023-07-21_23h00.24.744,vbt_B1_day3,2022.2.4,Win32,60.24459305,53500,,,,,,down,0,30.9173,,0.14444443,-0.284259302,1,0,0,0,17,17,165,1,feestdag,images/br_feestdag.png,images/cb_feestdag.png,0,,,,,,,,,,,,,,,,,,,,,,
,,,,,53500,2023-07-21_23h00.24.744,vbt_B1_day3,2022.2.4,Win32,60.24459305,53500,,,,,,down,0,34.0019,,0.030555584,-0.277777778,1,0,0,0,18,18,73,1,volop,images/br_volop.png,images/cb_volop.png,0,,,,,,,,,,,,,,,,,,,,,,
,,,,,53500,2023-07-21_23h00.24.744,vbt_B1_day3,2022.2.4,Win32,60.24459305,53500,,,,,,down,0,23.6305,,0.030555584,-0.277777778,1,0,0,0,19,19,60,1,jasje,images/br_jasje.png,images/cb_jasje.png,1,jasje,,,,,,,,,,,,,,,,,,,,,
,,,,,53500,2023-07-21_23h00.24.744,vbt_B1_day3,2022.2.4,Win32,60.24459305,53500,,,,,,down,0,26.4177,,0.334259316,-0.171296296,1,0,0,0,20,20,100,1,geduld,images/br_geduld.png,images/cb_geduld.png,1,geduld,,,,,,,,,,,,,,,,,,,,,
,,,,,53500,2023-07-21_23h00.24.744,vbt_B1_day3,2022.2.4,Win32,60.24459305,53500,,,,,,down,0,13.4239,,0.306481538,-0.261111153,1,0,0,0,21,21,105,1,wijlen,images/br_wijlen.png,images/cb_wijlen.png,0,,,,,,,,,,,,,,,,,,,,,,
,,,,,53500,2023-07-21_23h00.24.744,vbt_B1_day3,2022.2.4,Win32,60.24459305,53500,,,,,,down,0,7.1777,,0.306481538,-0.261111153,1,0,0,0,22,22,50,1,stoom,images/br_stoom.png,images/cb_stoom.png,0,,,,,,,,,,,,,,,,,,,,,,
,,,,,53500,2023-07-21_23h00.24.744,vbt_B1_day3,2022.2.4,Win32,60.24459305,53500,,,,,,down,0,15.3244,,0.307407379,-0.255555541,1,0,0,0,23,23,174,1,stemming,images/br_stemming.png,images/cb_stemming.png,0,,,,,,,,,,,,,,,,,,,,,,
,,,,,53500,2023-07-21_23h00.24.744,vbt_B1_day3,2022.2.4,Win32,60.24459305,53500,,,,,,down,0,29.829,,0.332407492,-0.285185213,1,0,0,0,24,24,183,1,getuigen,images/br_getuigen.png,images/cb_getuigen.png,1,getuigen,,,,,,,,,,,,,,,,,,,,,
,,,,,53500,2023-07-21_23h00.24.744,vbt_B1_day3,2022.2.4,Win32,60.24459305,53500,,,,,,down,0,13.1337,,0.332407492,-0.285185213,1,0,0,0,25,25,80,1,kanjer,images/br_kanjer.png,images/cb_kanjer.png,0,,,,,,,,,,,,,,,,,,,,,,
,,,,,53500,2023-07-21_23h00.24.744,vbt_B1_day3,2022.2.4,Win32,60.24459305,53500,,,,,,down,0,13.4451,,0.332407492,-0.285185213,1,0,0,0,26,26,139,1,stiekem,images/br_stiekem.png,images/cb_stiekem.png,0,,,,,,,,,,,,,,,,,,,,,,
,,,,,53500,2023-07-21_23h00.24.744,vbt_B1_day3,2022.2.4,Win32,60.24459305,53500,,,,,,down,0,6.6712,,0.332407492,-0.285185213,1,0,0,0,27,27,49,1,laken,images/br_laken.png,images/cb_laken.png,0,,,,,,,,,,,,,,,,,,,,,,
,,,,,53500,2023-07-21_23h00.24.744,vbt_B1_day3,2022.2.4,Win32,60.24459305,53500,,,,,,down,0,4.0838,,0.332407492,-0.285185213,1,0,0,0,28,28,18,1,blik,images/br_blik.png,images/cb_blik.png,0,,,,,,,,,,,,,,,,,,,,,,
,,,,,53500,2023-07-21_23h00.24.744,vbt_B1_day3,2022.2.4,Win32,60.24459305,53500,,,,,,down,0,7.5395,,0.332407492,-0.285185213,1,0,0,0,29,29,95,1,vreten,images/br_vreten.png,images/cb_vreten.png,0,,,,,,,,,,,,,,,,,,,,,,
,,,,,53500,2023-07-21_23h00.24.744,vbt_B1_day3,2022.2.4,Win32,60.24459305,53500,,,,,,down,0,14.584,,0.330555527,-0.288888931,1,0,0,0,30,30,5,1,blad,images/br_blad.png,images/cb_blad.png,0,,,,,,,,,,,,,,,,,,,,,,
,,,,,53500,2023-07-21_23h00.24.744,vbt_B1_day3,2022.2.4,Win32,60.24459305,53500,,,,,,down,0,20.8235,,0.330555527,-0.288888931,1,0,0,0,31,31,46,1,jagen,images/br_jagen.png,images/cb_jagen.png,0,,,,,,,,,,,,,,,,,,,,,,
,,,,,53500,2023-07-21_23h00.24.744,vbt_B1_day3,2022.2.4,Win32,60.24459305,53500,,,,,,down,0,7.665,,0.330555527,-0.288888931,1,0,0,0,32,32,55,1,praat,images/br_praat.png,images/cb_praat.png,0,,,,,,,,,,,,,,,,,,,,,,
,,,,,53500,2023-07-21_23h00.24.744,vbt_B1_day3,2022.2.4,Win32,60.24459305,53500,,,,,,down,0,9.6076,,0.330555527,-0.288888931,1,0,0,0,33,33,7,1,geld,images/br_geld.png,images/cb_geld.png,0,,,,,,,,,,,,,,,,,,,,,,
,,,,,53500,2023-07-21_23h00.24.744,vbt_B1_day3,2022.2.4,Win32,60.24459305,53500,,,,,,down,0,21.0507,,0.19722225,-0.173148191,1,0,0,0,34,34,140,1,blijven,images/br_blijven.png,images/cb_blijven.png,1,blijven,,,,,,,,,,,,,,,,,,,,,
,,,,,53500,2023-07-21_23h00.24.744,vbt_B1_day3,2022.2.4,Win32,60.24459305,53500,,,,,,down,0,5.2969,,0.19722225,-0.173148191,1,0,0,0,35,35,120,1,klimmen,images/br_klimmen.png,images/cb_klimmen.png,0,,,,,,,,,,,,,,,,,,,,,,
,,,,,53500,2023-07-21_23h00.24.744,vbt_B1_day3,2022.2.4,Win32,60.24459305,53500,,,,,,down,0,56.4847,,0.312962991,-0.178703732,1,0,0,0,36,36,181,1,toegeven,images/br_toegeven.png,images/cb_toegeven.png,1,toegeven,,,,,,,,,,,,,,,,,,,,,
,,,,,53500,2023-07-21_23h00.24.744,vbt_B1_day3,2022.2.4,Win32,60.24459305,53500,,,,,,down,0,24.0164,,0.325000057,-0.163888931,1,0,0,0,37,37,52,1,wagon,images/br_wagon.png,images/cb_wagon.png,0,,,,,,,,,,,,,,,,,,,,,,
,,,,,53500,2023-07-21_23h00.24.744,vbt_B1_day3,2022.2.4,Win32,60.24459305,53500,,,,,,down,0,22.116,,0.157407407,-0.203703704,1,0,0,0,38,38,41,1,maken,images/br_maken.png,images/cb_maken.png,0,,,,,,,,,,,,,,,,,,,,,,
,,,,,53500,2023-07-21_23h00.24.744,vbt_B1_day3,2022.2.4,Win32,60.24459305,53500,,,,,,down,0,6.3858,,0.160185213,-0.128703718,1,0,0,0,39,39,178,1,huisdier,images/br_huisdier.png,images/cb_huisdier.png,0,,,,,,,,,,,,,,,,,,,,,,
,,,,,53500,2023-07-21_23h00.24.744,vbt_B1_day3,2022.2.4,Win32,60.24459305,53500,,,,,,down,0,13.3403,,0.160185213,-0.128703718,1,0,0,0,40,40,24,1,jurk,images/br_jurk.png,images/cb_jurk.png,0,,,,,,,,,,,,,,,,,,,,,,
,,,,,53500,2023-07-21_23h00.24.744,vbt_B1_day3,2022.2.4,Win32,60.24459305,53500,,,,,,down,0,9.1585,,0.160185213,-0.128703718,1,0,0,0,41,41,128,1,prikken,images/br_prikken.png,images/cb_prikken.png,0,,,,,,,,,,,,,,,,,,,,,,
,,,,,53500,2023-07-21_23h00.24.744,vbt_B1_day3,2022.2.4,Win32,60.24459305,53500,,,,,,down,0,6.0175,,0.156481496,-0.131481524,1,0,0,0,42,42,130,1,keihard,images/br_keihard.png,images/cb_keihard.png,0,,,,,,,,,,,,,,,,,,,,,,
,,,,,53500,2023-07-21_23h00.24.744,vbt_B1_day3,2022.2.4,Win32,60.24459305,53500,,,,,,down,0,11.6951,,0.156481496,-0.131481524,1,0,0,0,43,43,110,1,zuster,images/br_zuster.png,images/cb_zuster.png,0,,,,,,,,,,,,,,,,,,,,,,
,,,,,53500,2023-07-21_23h00.24.744,vbt_B1_day3,2022.2.4,Win32,60.24459305,53500,,,,,,down,0,6.2984,,0.156481496,-0.131481524,1,0,0,0,44,44,184,1,aandelen,images/br_aandelen.png,images/cb_aandelen.png,0,,,,,,,,,,,,,,,,,,,,,,
,,,,,53500,2023-07-21_23h00.24.744,vbt_B1_day3,2022.2.4,Win32,60.24459305,53500,,,,,,down,0,6.9845,,0.160185213,-0.205555598,1,0,0,0,45,45,133,1,seizoen,images/br_seizoen.png,images/cb_seizoen.png,0,,,,,,,,,,,,,,,,,,,,,,
,,,,,53500,2023-07-21_23h00.24.744,vbt_B1_day3,2022.2.4,Win32,60.24459305,53500,,,,,,down,0,32.0716,,0.160185213,-0.205555598,1,0,0,0,46,46,182,1,bijkomen,images/br_bijkomen.png,images/cb_bijkomen.png,1,bijko,,,,,,,,,,,,,,,,,,,,,
,,,,,53500,2023-07-21_23h00.24.744,vbt_B1_day3,2022.2.4,Win32,60.24459305,53500,,,,,,down,0,21.2559,,0.14444443,-0.228703746,1,0,0,0,47,47,23,1,zout,images/br_zout.png,images/cb_zout.png,1,zo,,,,,,,,,,,,,,,,,,,,,
,,,,,53500,2023-07-21_23h00.24.744,vbt_B1_day3,2022.2.4,Win32,60.24459305,53500,,,,,,down,0,6.034,,0.187037079,-0.189814815,1,0,0,0,48,48,84,1,lokken,images/br_lokken.png,images/cb_lokken.png,0,,,,,,,,,,,,,,,,,,,,,,
,,,,,53500,2023-07-21_23h00.24.744,vbt_B1_day3,2022.2.4,Win32,60.24459305,53500,,,,,,down,0,11.1671,,0.187037079,-0.189814815,1,0,0,0,49,49,39,1,laag,images/br_laag.png,images/cb_laag.png,0,,,,,,,,,,,,,,,,,,,,,,
,,,,,53500,2023-07-21_23h00.24.744,vbt_B1_day3,2022.2.4,Win32,60.24459305,53500,,,,,,down,0,5.792,,0.187037079,-0.189814815,1,0,0,0,50,50,107,1,maling,images/br_maling.png,images/cb_maling.png,0,,,,,,,,,,,,,,,,,,,,,,
,,,,,53500,2023-07-21_23h00.24.744,vbt_B1_day3,2022.2.4,Win32,60.24459305,53500,,,,,,down,0,7.8907,,0.187037079,-0.189814815,1,0,0,0,51,51,16,1,ziek,images/br_ziek.png,images/cb_ziek.png,0,,,,,,,,,,,,,,,,,,,,,,
,,,,,53500,2023-07-21_23h00.24.744,vbt_B1_day3,2022.2.4,Win32,60.24459305,53500,,,,,,down,0,8.0346,,0.187037079,-0.189814815,1,0,0,0,52,52,40,1,schep,images/br_schep.png,images/cb_schep.png,0,,,,,,,,,,,,,,,,,,,,,,
,,,,,53500,2023-07-21_23h00.24.744,vbt_B1_day3,2022.2.4,Win32,60.24459305,53500,,,,,,down,0,17.4557,,0.19722225,-0.187962991,1,0,0,0,53,53,62,1,knaap,images/br_knaap.png,images/cb_knaap.png,1,knaap,,,,,,,,,,,,,,,,,,,,,
,,,,,53500,2023-07-21_23h00.24.744,vbt_B1_day3,2022.2.4,Win32,60.24459305,53500,,,,,,down,0,6.199,,0.19722225,-0.187962991,1,0,0,0,54,54,29,1,baas,images/br_baas.png,images/cb_baas.png,0,,,,,,,,,,,,,,,,,,,,,,
,,,,,53500,2023-07-21_23h00.24.744,vbt_B1_day3,2022.2.4,Win32,60.24459305,53500,,,,,,down,0,4.4508,,0.19722225,-0.187962991,1,0,0,0,55,55,67,1,zwart,images/br_zwart.png,images/cb_zwart.png,0,,,,,,,,,,,,,,,,,,,,,,
,,,,,53500,2023-07-21_23h00.24.744,vbt_B1_day3,2022.2.4,Win32,60.24459305,53500,,,,,,down,0,6.3932,,0.175925926,-0.275000042,1,0,0,0,56,56,99,1,koffie,images/br_koffie.png,images/cb_koffie.png,0,,,,,,,,,,,,,,,,,,,,,,
,,,,,53500,2023-07-21_23h00.24.744,vbt_B1_day3,2022.2.4,Win32,60.24459305,53500,,,,,,down,0,6.704,,0.175925926,-0.275000042,1,0,0,0,57,57,81,1,dubbel,images/br_dubbel.png,images/cb_dubbel.png,0,,,,,,,,,,,,,,,,,,,,,,
,,,,,53500,2023-07-21_23h00.24.744,vbt_B1_day3,2022.2.4,Win32,60.24459305,53500,,,,,,down,0,9.9389,,0.175925926,-0.275000042,1,0,0,0,58,58,163,1,schuilen,images/br_schuilen.png,images/cb_schuilen.png,0,,,,,,,,,,,,,,,,,,,,,,
,,,,,53500,2023-07-21_23h00.24.744,vbt_B1_day3,2022.2.4,Win32,60.24459305,53500,,,,,,down,0,8.5192,,0.175925926,-0.275000042,1,0,0,0,59,59,172,1,weigeren,images/br_weigeren.png,images/cb_weigeren.png,0,,,,,,,,,,,,,,,,,,,,,,
,,,,,53500,2023-07-21_23h00.24.744,vbt_B1_day3,2022.2.4,Win32,60.24459305,53500,,,,,,down,0,8.9827,,0.175925926,-0.275000042,1,0,0,0,60,60,169,1,oprotten,images/br_oprotten.png,images/cb_oprotten.png,0,,,,,,,,,,,,,,,,,,,,,,
,,,,,53500,2023-07-21_23h00.24.744,vbt_B1_day3,2022.2.4,Win32,60.24459305,53500,,,,,,down,0,7.9672,,0.175925926,-0.275000042,1,0,0,0,61,61,193,1,weeshuis,images/br_weeshuis.png,images/cb_weeshuis.png,0,,,,,,,,,,,,,,,,,,,,,,
,,,,,53500,2023-07-21_23h00.24.744,vbt_B1_day3,2022.2.4,Win32,60.24459305,53500,,,,,,down,0,3.3458,,0.175925926,-0.275000042,1,0,0,0,62,62,9,1,hier,images/br_hier.png,images/cb_hier.png,0,,,,,,,,,,,,,,,,,,,,,,
,,,,,53500,2023-07-21_23h00.24.744,vbt_B1_day3,2022.2.4,Win32,60.24459305,53500,,,,,,down,0,6.3,,0.175925926,-0.275000042,1,0,0,0,63,63,25,1,plek,images/br_plek.png,images/cb_plek.png,0,,,,,,,,,,,,,,,,,,,,,,
,,,,,53500,2023-07-21_23h00.24.744,vbt_B1_day3,2022.2.4,Win32,60.24459305,53500,,,,,,down,0,7.8085,,0.175925926,-0.275000042,1,0,0,0,64,64,68,1,schat,images/br_schat.png,images/cb_schat.png,0,,,,,,,,,,,,,,,,,,,,,,
,,,,,53500,2023-07-21_23h00.24.744,vbt_B1_day3,2022.2.4,Win32,60.24459305,53500,,,,,,down,0,5.1248,,0.175925926,-0.275000042,1,0,0,0,65,65,196,1,nakijken,images/br_nakijken.png,images/cb_nakijken.png,0,,,,,,,,,,,,,,,,,,,,,,
,,,,,53500,2023-07-21_23h00.24.744,vbt_B1_day3,2022.2.4,Win32,60.24459305,53500,,,,,,down,0,6.3742,,0.175925926,-0.275000042,1,0,0,0,66,66,65,1,parel,images/br_parel.png,images/cb_parel.png,0,,,,,,,,,,,,,,,,,,,,,,
,,,,,53500,2023-07-21_23h00.24.744,vbt_B1_day3,2022.2.4,Win32,60.24459305,53500,,,,,,down,0,5.9501,,0.175925926,-0.275000042,1,0,0,0,67,67,189,1,aanraden,images/br_aanraden.png,images/cb_aanraden.png,0,,,,,,,,,,,,,,,,,,,,,,
,,,,,53500,2023-07-21_23h00.24.744,vbt_B1_day3,2022.2.4,Win32,60.24459305,53500,,,,,,down,0,3.2888,,0.175925926,-0.275000042,1,0,0,0,68,68,97,1,loyaal,images/br_loyaal.png,images/cb_loyaal.png,0,,,,,,,,,,,,,,,,,,,,,,
,,,,,53500,2023-07-21_23h00.24.744,vbt_B1_day3,2022.2.4,Win32,60.24459305,53500,,,,,,down,0,4.8616,,0.175925926,-0.275000042,1,0,0,0,69,69,36,1,vuur,images/br_vuur.png,images/cb_vuur.png,0,,,,,,,,,,,,,,,,,,,,,,
,,,,,53500,2023-07-21_23h00.24.744,vbt_B1_day3,2022.2.4,Win32,60.24459305,53500,,,,,,down,0,38.9631,,0.175925926,-0.275000042,1,0,0,0,70,70,176,1,techniek,images/br_techniek.png,images/cb_techniek.png,0,,,,,,,,,,,,,,,,,,,,,,
,,,,,53500,2023-07-21_23h00.24.744,vbt_B1_day3,2022.2.4,Win32,60.24459305,53500,,,,,,down,0,3.9178,,0.175925926,-0.275000042,1,0,0,0,71,71,124,1,bloeien,images/br_bloeien.png,images/cb_bloeien.png,0,,,,,,,,,,,,,,,,,,,,,,
,,,,,53500,2023-07-21_23h00.24.744,vbt_B1_day3,2022.2.4,Win32,60.24459305,53500,,,,,,down,0,8.7005,,-0.041666667,-0.361111111,1,0,0,0,72,72,54,1,gebit,images/br_gebit.png,images/cb_gebit.png,0,,,,,,,,,,,,,,,,,,,,,,
,,,,,53500,2023-07-21_23h00.24.744,vbt_B1_day3,2022.2.4,Win32,60.24459305,53500,,,,,,down,0,31.0287,,0.289814843,-0.166666667,1,0,0,0,73,73,103,1,joggen,images/br_joggen.png,images/cb_joggen.png,1,joggen,,,,,,,,,,,,,,,,,,,,,
,,,,,53500,2023-07-21_23h00.24.744,vbt_B1_day3,2022.2.4,Win32,60.24459305,53500,,,,,,down,0,0.8181,,0.289814843,-0.166666667,1,0,0,0,74,74,34,1,vorm,images/br_vorm.png,images/cb_vorm.png,0,,,,,,,,,,,,,,,,,,,,,,
,,,,,53500,2023-07-21_23h00.24.744,vbt_B1_day3,2022.2.4,Win32,60.24459305,53500,,,,,,down,0,3.1514,,0.289814843,-0.166666667,1,0,0,0,75,75,160,1,daarheen,images/br_daarheen.png,images/cb_daarheen.png,0,,,,,,,,,,,,,,,,,,,,,,
,,,,,53500,2023-07-21_23h00.24.744,vbt_B1_day3,2022.2.4,Win32,60.24459305,53500,,,,,,down,0,18.0353,,0.289814843,-0.166666667,1,0,0,0,76,76,57,1,steek,images/br_steek.png,images/cb_steek.png,0,,,,,,,,,,,,,,,,,,,,,,
,,,,,53500,2023-07-21_23h00.24.744,vbt_B1_day3,2022.2.4,Win32,60.24459305,53500,,,,,,down,0,13.9183,,0.289814843,-0.166666667,1,0,0,0,77,77,145,1,invloed,images/br_invloed.png,images/cb_invloed.png,0,,,,,,,,,,,,,,,,,,,,,,
,,,,,53500,2023-07-21_23h00.24.744,vbt_B1_day3,2022.2.4,Win32,60.24459305,53500,,,,,,down,0,3.3343,,0.289814843,-0.166666667,1,0,0,0,78,78,125,1,aanzien,images/br_aanzien.png,images/cb_aanzien.png,0,,,,,,,,,,,,,,,,,,,,,,
,,,,,53500,2023-07-21_23h00.24.744,vbt_B1_day3,2022.2.4,Win32,60.24459305,53500,,,,,,down,0,6.168,,0.289814843,-0.166666667,1,0,0,0,79,79,35,1,lust,images/br_lust.png,images/cb_lust.png,0,,,,,,,,,,,,,,,,,,,,,,
,,,,,53500,2023-07-21_23h00.24.744,vbt_B1_day3,2022.2.4,Win32,60.24459305,53500,,,,,,down,0,10.3371,,0.289814843,-0.166666667,1,0,0,0,80,80,64,1,wegen,images/br_wegen.png,images/cb_wegen.png,0,,,,,,,,,,,,,,,,,,,,,,
,,,,,53500,2023-07-21_23h00.24.744,vbt_B1_day3,2022.2.4,Win32,60.24459305,53500,,,,,,down,0,6.6245,,0.289814843,-0.166666667,1,0,0,0,81,81,173,1,apparaat,images/br_apparaat.png,images/cb_apparaat.png,0,,,,,,,,,,,,,,,,,,,,,,
,,,,,53500,2023-07-21_23h00.24.744,vbt_B1_day3,2022.2.4,Win32,60.24459305,53500,,,,,,down,0,7.7172,,0.289814843,-0.166666667,1,0,0,0,82,82,104,1,zweven,images/br_zweven.png,images/cb_zweven.png,0,,,,,,,,,,,,,,,,,,,,,,
,,,,,53500,2023-07-21_23h00.24.744,vbt_B1_day3,2022.2.4,Win32,60.24459305,53500,,,,,,down,0,6.5177,,0.289814843,-0.166666667,1,0,0,0,83,83,188,1,strekken,images/br_strekken.png,images/cb_strekken.png,0,,,,,,,,,,,,,,,,,,,,,,
,,,,,53500,2023-07-21_23h00.24.744,vbt_B1_day3,2022.2.4,Win32,60.24459305,53500,,,,,,down,0,3.1941,,0.289814843,-0.166666667,1,0,0,0,84,84,2,1,jaar,images/br_jaar.png,images/cb_jaar.png,0,,,,,,,,,,,,,,,,,,,,,,
,,,,,53500,2023-07-21_23h00.24.744,vbt_B1_day3,2022.2.4,Win32,60.24459305,53500,,,,,,down,0,7.8416,,0.289814843,-0.166666667,1,0,0,0,85,85,157,1,uitlaat,images/br_uitlaat.png,images/cb_uitlaat.png,0,,,,,,,,,,,,,,,,,,,,,,
,,,,,53500,2023-07-21_23h00.24.744,vbt_B1_day3,2022.2.4,Win32,60.24459305,53500,,,,,,down,0,3.2019,,0.289814843,-0.166666667,1,0,0,0,86,86,4,1,moes,images/br_moes.png,images/cb_moes.png,0,,,,,,,,,,,,,,,,,,,,,,
,,,,,53500,2023-07-21_23h00.24.744,vbt_B1_day3,2022.2.4,Win32,60.24459305,53500,,,,,,down,0,4.2512,,0.289814843,-0.166666667,1,0,0,0,87,87,13,1,kaal,images/br_kaal.png,images/cb_kaal.png,0,,,,,,,,,,,,,,,,,,,,,,
,,,,,53500,2023-07-21_23h00.24.744,vbt_B1_day3,2022.2.4,Win32,60.24459305,53500,,,,,,down,0,6.6676,,0.289814843,-0.166666667,1,0,0,0,88,88,175,1,heengaan,images/br_heengaan.png,images/cb_heengaan.png,0,,,,,,,,,,,,,,,,,,,,,,
,,,,,53500,2023-07-21_23h00.24.744,vbt_B1_day3,2022.2.4,Win32,60.24459305,53500,,,,,,down,0,2.3744,,0.289814843,-0.166666667,1,0,0,0,89,89,27,1,dans,images/br_dans.png,images/cb_dans.png,0,,,,,,,,,,,,,,,,,,,,,,
,,,,,53500,2023-07-21_23h00.24.744,vbt_B1_day3,2022.2.4,Win32,60.24459305,53500,,,,,,down,0,7.3594,,0.289814843,-0.166666667,1,0,0,0,90,90,123,1,hiervan,images/br_hiervan.png,images/cb_hiervan.png,0,,,,,,,,,,,,,,,,,,,,,,
,,,,,53500,2023-07-21_23h00.24.744,vbt_B1_day3,2022.2.4,Win32,60.24459305,53500,,,,,,down,0,7.7689,,0.289814843,-0.166666667,1,0,0,0,91,91,197,1,spanning,images/br_spanning.png,images/cb_spanning.png,0,,,,,,,,,,,,,,,,,,,,,,
,,,,,53500,2023-07-21_23h00.24.744,vbt_B1_day3,2022.2.4,Win32,60.24459305,53500,,,,,,down,0,3.2179,,0.289814843,-0.166666667,1,0,0,0,92,92,177,1,maaltijd,images/br_maaltijd.png,images/cb_maaltijd.png,0,,,,,,,,,,,,,,,,,,,,,,
,,,,,53500,2023-07-21_23h00.24.744,vbt_B1_day3,2022.2.4,Win32,60.24459305,53500,,,,,,down,0,5.2342,,0.289814843,-0.166666667,1,0,0,0,93,93,53,1,baron,images/br_baron.png,images/cb_baron.png,0,,,,,,,,,,,,,,,,,,,,,,
,,,,,53500,2023-07-21_23h00.24.744,vbt_B1_day3,2022.2.4,Win32,60.24459305,53500,,,,,,down,0,7.4081,,0.289814843,-0.166666667,1,0,0,0,94,94,134,1,geliefd,images/br_geliefd.png,images/cb_geliefd.png,0,,,,,,,,,,,,,,,,,,,,,,
,,,,,53500,2023-07-21_23h00.24.744,vbt_B1_day3,2022.2.4,Win32,60.24459305,53500,,,,,,down,0,4.5715,,0.243518547,-0.20648151,1,0,0,0,95,95,78,1,leren,images/br_leren.png,images/cb_leren.png,0,,,,,,,,,,,,,,,,,,,,,,
,,,,,53500,2023-07-21_23h00.24.744,vbt_B1_day3,2022.2.4,Win32,60.24459305,53500,,,,,,down,0,7.1663,,0.243518547,-0.20648151,1,0,0,0,96,96,147,1,komisch,images/br_komisch.png,images/cb_komisch.png,0,,,,,,,,,,,,,,,,,,,,,,
,,,,,53500,2023-07-21_23h00.24.744,vbt_B1_day3,2022.2.4,Win32,60.24459305,53500,,,,,,down,0,6.8172,,0.243518547,-0.20648151,1,0,0,0,97,97,83,1,mening,images/br_mening.png,images/cb_mening.png,0,,,,,,,,,,,,,,,,,,,,,,
,,,,,53500,2023-07-21_23h00.24.744,vbt_B1_day3,2022.2.4,Win32,60.24459305,53500,,,,,,down,0,4.1773,,0.243518547,-0.20648151,1,0,0,0,98,98,179,1,woestijn,images/br_woestijn.png,images/cb_woestijn.png,0,,,,,,,,,,,,,,,,,,,,,,
,,,,,53500,2023-07-21_23h00.24.744,vbt_B1_day3,2022.2.4,Win32,60.24459305,53500,,,,,,down,0,4.1203,,0.243518547,-0.20648151,1,0,0,0,99,99,90,1,geluid,images/br_geluid.png,images/cb_geluid.png,0,,,,,,,,,,,,,,,,,,,,,,
,,,,,53500,2023-07-21_23h00.24.744,vbt_B1_day3,2022.2.4,Win32,60.24459305,53500,,,,,,down,0,5.1882,,0.243518547,-0.20648151,1,0,0,0,100,100,195,1,middelen,images/br_middelen.png,images/cb_middelen.png,0,,,,,,,,,,,,,,,,,,,,,,
,,,,,53500,2023-07-21_23h00.24.744,vbt_B1_day3,2022.2.4,Win32,60.24459305,53500,,,,,,down,0,10.0046,,0.243518547,-0.20648151,1,0,0,0,101,101,19,1,geit,images/br_geit.png,images/cb_geit.png,0,,,,,,,,,,,,,,,,,,,,,,
,,,,,53500,2023-07-21_23h00.24.744,vbt_B1_day3,2022.2.4,Win32,60.24459305,53500,,,,,,down,0,9.434,,0.243518547,-0.20648151,1,0,0,0,102,102,136,1,waarbij,images/br_waarbij.png,images/cb_waarbij.png,0,,,,,,,,,,,,,,,,,,,,,,
,,,,,53500,2023-07-21_23h00.24.744,vbt_B1_day3,2022.2.4,Win32,60.24459305,53500,,,,,,down,0,23.092,,0.243518547,-0.20648151,1,0,0,0,103,103,142,1,snuiven,images/br_snuiven.png,images/cb_snuiven.png,1,,,,,,,,,,,,,,,,,,,,,,
,,,,,53500,2023-07-21_23h00.24.744,vbt_B1_day3,2022.2.4,Win32,60.24459305,53500,,,,,,down,0,4.8388,,0.243518547,-0.20648151,1,0,0,0,104,104,129,1,verhaal,images/br_verhaal.png,images/cb_verhaal.png,0,,,,,,,,,,,,,,,,,,,,,,
,,,,,53500,2023-07-21_23h00.24.744,vbt_B1_day3,2022.2.4,Win32,60.24459305,53500,,,,,,down,0,4.44,,0.243518547,-0.20648151,1,0,0,0,105,105,166,1,strikken,images/br_strikken.png,images/cb_strikken.png,0,,,,,,,,,,,,,,,,,,,,,,
,,,,,53500,2023-07-21_23h00.24.744,vbt_B1_day3,2022.2.4,Win32,60.24459305,53500,,,,,,down,0,2.6347,,0.243518547,-0.20648151,1,0,0,0,106,106,75,1,snoep,images/br_snoep.png,images/cb_snoep.png,0,,,,,,,,,,,,,,,,,,,,,,
,,,,,53500,2023-07-21_23h00.24.744,vbt_B1_day3,2022.2.4,Win32,60.24459305,53500,,,,,,down,0,2.7264,,0.243518547,-0.20648151,1,0,0,0,107,107,89,1,slapen,images/br_slapen.png,images/cb_slapen.png,0,,,,,,,,,,,,,,,,,,,,,,
,,,,,53500,2023-07-21_23h00.24.744,vbt_B1_day3,2022.2.4,Win32,60.24459305,53500,,,,,,down,0,11.7012,,0.345370399,-0.119444459,1,0,0,0,108,108,61,1,groen,images/br_groen.png,images/cb_groen.png,1,groep,,,,,,,,,,,,,,,,,,,,,
,,,,,53500,2023-07-21_23h00.24.744,vbt_B1_day3,2022.2.4,Win32,60.24459305,53500,,,,,,down,0,14.5909,,0.333333333,-0.137962977,1,0,0,0,109,109,63,1,flirt,images/br_flirt.png,images/cb_flirt.png,1,flirt,,,,,,,,,,,,,,,,,,,,,
,,,,,53500,2023-07-21_23h00.24.744,vbt_B1_day3,2022.2.4,Win32,60.24459305,53500,,,,,,down,0,9.2959,,0.333333333,-0.137962977,1,0,0,0,110,110,3,1,mand,images/br_mand.png,images/cb_mand.png,0,,,,,,,,,,,,,,,,,,,,,,
,,,,,53500,2023-07-21_23h00.24.744,vbt_B1_day3,2022.2.4,Win32,60.24459305,53500,,,,,,down,0,1.7009,,0.333333333,-0.137962977,1,0,0,0,111,111,108,1,excuus,images/br_excuus.png,images/cb_excuus.png,0,,,,,,,,,,,,,,,,,,,,,,
,,,,,53500,2023-07-21_23h00.24.744,vbt_B1_day3,2022.2.4,Win32,60.24459305,53500,,,,,,down,0,4.9006,,0.333333333,-0.137962977,1,0,0,0,112,112,126,1,kasteel,images/br_kasteel.png,images/cb_kasteel.png,0,,,,,,,,,,,,,,,,,,,,,,
,,,,,53500,2023-07-21_23h00.24.744,vbt_B1_day3,2022.2.4,Win32,60.24459305,53500,,,,,,down,0,7.6365,,0.333333333,-0.137962977,1,0,0,0,113,113,148,1,smullen,images/br_smullen.png,images/cb_smullen.png,0,,,,,,,,,,,,,,,,,,,,,,
,,,,,53500,2023-07-21_23h00.24.744,vbt_B1_day3,2022.2.4,Win32,60.24459305,53500,,,,,,down,0,6.1016,,0.333333333,-0.137962977,1,0,0,0,114,114,44,1,flits,images/br_flits.png,images/cb_flits.png,0,,,,,,,,,,,,,,,,,,,,,,
,,,,,53500,2023-07-21_23h00.24.744,vbt_B1_day3,2022.2.4,Win32,60.24459305,53500,,,,,,down,0,9.9674,,0.333333333,-0.137962977,1,0,0,0,115,115,155,1,gerucht,images/br_gerucht.png,images/cb_gerucht.png,0,,,,,,,,,,,,,,,,,,,,,,
,,,,,53500,2023-07-21_23h00.24.744,vbt_B1_day3,2022.2.4,Win32,60.24459305,53500,,,,,,down,0,5.8041,,0.333333333,-0.137962977,1,0,0,0,116,116,38,1,baai,images/br_baai.png,images/cb_baai.png,0,,,,,,,,,,,,,,,,,,,,,,
,,,,,53500,2023-07-21_23h00.24.744,vbt_B1_day3,2022.2.4,Win32,60.24459305,53500,,,,,,down,0,5.3549,,0.333333333,-0.137962977,1,0,0,0,117,117,132,1,grappen,images/br_grappen.png,images/cb_grappen.png,0,,,,,,,,,,,,,,,,,,,,,,
,,,,,53500,2023-07-21_23h00.24.744,vbt_B1_day3,2022.2.4,Win32,60.24459305,53500,,,,,,down,0,2.7845,,0.333333333,-0.137962977,1,0,0,0,118,118,56,1,traag,images/br_traag.png,images/cb_traag.png,0,,,,,,,,,,,,,,,,,,,,,,
,,,,,53500,2023-07-21_23h00.24.744,vbt_B1_day3,2022.2.4,Win32,60.24459305,53500,,,,,,down,0,2.6035,,0.333333333,-0.137962977,1,0,0,0,119,119,152,1,afnemen,images/br_afnemen.png,images/cb_afnemen.png,0,,,,,,,,,,,,,,,,,,,,,,
,,,,,53500,2023-07-21_23h00.24.744,vbt_B1_day3,2022.2.4,Win32,60.24459305,53500,,,,,,down,0,4.5017,,0.333333333,-0.137962977,1,0,0,0,120,120,0,1,slak,images/br_slak.png,images/cb_slak.png,0,,,,,,,,,,,,,,,,,,,,,,
,,,,,53500,2023-07-21_23h00.24.744,vbt_B1_day3,2022.2.4,Win32,60.24459305,53500,,,,,,down,0,6.4556,,0.333333333,-0.137962977,1,0,0,0,121,121,154,1,aflopen,images/br_aflopen.png,images/cb_aflopen.png,0,,,,,,,,,,,,,,,,,,,,,,
,,,,,53500,2023-07-21_23h00.24.744,vbt_B1_day3,2022.2.4,Win32,60.24459305,53500,,,,,,down,0,1.6378,,0.333333333,-0.137962977,1,0,0,0,122,122,122,1,waarvan,images/br_waarvan.png,images/cb_waarvan.png,0,,,,,,,,,,,,,,,,,,,,,,
,,,,,53500,2023-07-21_23h00.24.744,vbt_B1_day3,2022.2.4,Win32,60.24459305,53500,,,,,,down,0,12.3359,,0.382407436,-0.075000021,1,0,0,0,123,123,102,1,legaal,images/br_legaal.png,images/cb_legaal.png,1,legaal,,,,,,,,,,,,,,,,,,,,,
,,,,,53500,2023-07-21_23h00.24.744,vbt_B1_day3,2022.2.4,Win32,60.24459305,53500,,,,,,down,0,4.7847,,0.19722225,-0.174074102,1,0,0,0,124,124,48,1,steel,images/br_steel.png,images/cb_steel.png,0,,,,,,,,,,,,,,,,,,,,,,
,,,,,53500,2023-07-21_23h00.24.744,vbt_B1_day3,2022.2.4,Win32,60.24459305,53500,,,,,,down,0,3.0032,,0.19722225,-0.174074102,1,0,0,0,125,125,47,1,kabel,images/br_kabel.png,images/cb_kabel.png,0,,,,,,,,,,,,,,,,,,,,,,
,,,,,53500,2023-07-21_23h00.24.744,vbt_B1_day3,2022.2.4,Win32,60.24459305,53500,,,,,,down,0,4.1765,,0.19722225,-0.174074102,1,0,0,0,126,126,77,1,woede,images/br_woede.png,images/cb_woede.png,0,,,,,,,,,,,,,,,,,,,,,,
,,,,,53500,2023-07-21_23h00.24.744,vbt_B1_day3,2022.2.4,Win32,60.24459305,53500,,,,,,down,0,0.8075,,0.19722225,-0.174074102,1,0,0,0,127,127,114,1,vullen,images/br_vullen.png,images/cb_vullen.png,0,,,,,,,,,,,,,,,,,,,,,,
,,,,,53500,2023-07-21_23h00.24.744,vbt_B1_day3,2022.2.4,Win32,60.24459305,53500,,,,,,down,0,2.3002,,0.19722225,-0.174074102,1,0,0,0,128,128,31,1,poes,images/br_poes.png,images/cb_poes.png,0,,,,,,,,,,,,,,,,,,,,,,
,,,,,53500,2023-07-21_23h00.24.744,vbt_B1_day3,2022.2.4,Win32,60.24459305,53500,,,,,,down,0,5.0426,,0.19722225,-0.174074102,1,0,0,0,129,129,198,1,bedoelen,images/br_bedoelen.png,images/cb_bedoelen.png,0,,,,,,,,,,,,,,,,,,,,,,
,,,,,53500,2023-07-21_23h00.24.744,vbt_B1_day3,2022.2.4,Win32,60.24459305,53500,,,,,,down,0,0.2602,,0.19722225,-0.174074102,1,0,0,0,130,130,170,1,schatten,images/br_schatten.png,images/cb_schatten.png,0,,,,,,,,,,,,,,,,,,,,,,
,,,,,53500,2023-07-21_23h00.24.744,vbt_B1_day3,2022.2.4,Win32,60.24459305,53500,,,,,,down,0,6.7011,,0.19722225,-0.174074102,1,0,0,0,131,131,144,1,eetlust,images/br_eetlust.png,images/cb_eetlust.png,0,,,,,,,,,,,,,,,,,,,,,,
,,,,,53500,2023-07-21_23h00.24.744,vbt_B1_day3,2022.2.4,Win32,60.24459305,53500,,,,,,down,0,4.5576,,0.19722225,-0.174074102,1,0,0,0,132,132,121,1,twijfel,images/br_twijfel.png,images/cb_twijfel.png,0,,,,,,,,,,,,,,,,,,,,,,
,,,,,53500,2023-07-21_23h00.24.744,vbt_B1_day3,2022.2.4,Win32,60.24459305,53500,,,,,,down,0,3.8003,,0.19722225,-0.174074102,1,0,0,0,133,133,167,1,eenhoorn,images/br_eenhoorn.png,images/cb_eenhoorn.png,0,,,,,,,,,,,,,,,,,,,,,,
,,,,,53500,2023-07-21_23h00.24.744,vbt_B1_day3,2022.2.4,Win32,60.24459305,53500,,,,,,down,0,0.3507,,0.19722225,-0.174074102,1,0,0,0,134,134,17,1,taal,images/br_taal.png,images/cb_taal.png,0,,,,,,,,,,,,,,,,,,,,,,
,,,,,53500,2023-07-21_23h00.24.744,vbt_B1_day3,2022.2.4,Win32,60.24459305,53500,,,,,,down,0,1.4721,,0.19722225,-0.174074102,1,0,0,0,135,135,135,1,gedicht,images/br_gedicht.png,images/cb_gedicht.png,0,,,,,,,,,,,,,,,,,,,,,,
,,,,,53500,2023-07-21_23h00.24.744,vbt_B1_day3,2022.2.4,Win32,60.24459305,53500,,,,,,down,0,2.3533,,0.19722225,-0.174074102,1,0,0,0,136,136,15,1,soda,images/br_soda.png,images/cb_soda.png,0,,,,,,,,,,,,,,,,,,,,,,
,,,,,53500,2023-07-21_23h00.24.744,vbt_B1_day3,2022.2.4,Win32,60.24459305,53500,,,,,,down,0,2.3398,,0.19722225,-0.174074102,1,0,0,0,137,137,199,1,beseffen,images/br_beseffen.png,images/cb_beseffen.png,0,,,,,,,,,,,,,,,,,,,,,,
,,,,,53500,2023-07-21_23h00.24.744,vbt_B1_day3,2022.2.4,Win32,60.24459305,53500,,,,,,down,0,3.1871,,0.19722225,-0.174074102,1,0,0,0,138,138,186,1,voorraad,images/br_voorraad.png,images/cb_voorraad.png,0,,,,,,,,,,,,,,,,,,,,,,
,,,,,53500,2023-07-21_23h00.24.744,vbt_B1_day3,2022.2.4,Win32,60.24459305,53500,,,,,,down,0,5.7894,,0.19722225,-0.174074102,1,0,0,0,139,139,86,1,woning,images/br_woning.png,images/cb_woning.png,0,,,,,,,,,,,,,,,,,,,,,,
,,,,,53500,2023-07-21_23h00.24.744,vbt_B1_day3,2022.2.4,Win32,60.24459305,53500,,,,,,down,0,5.1849,,0.19722225,-0.174074102,1,0,0,0,140,140,91,1,gezond,images/br_gezond.png,images/cb_gezond.png,0,,,,,,,,,,,,,,,,,,,,,,
,,,,,53500,2023-07-21_23h00.24.744,vbt_B1_day3,2022.2.4,Win32,60.24459305,53500,,,,,,down,0,4.9566,,0.19722225,-0.174074102,1,0,0,0,141,141,113,1,koppen,images/br_koppen.png,images/cb_koppen.png,0,,,,,,,,,,,,,,,,,,,,,,
,,,,,53500,2023-07-21_23h00.24.744,vbt_B1_day3,2022.2.4,Win32,60.24459305,53500,,,,,,down,0,13.1021,,0.332407492,-0.099074116,1,0,0,0,142,142,21,1,mist,images/br_mist.png,images/cb_mist.png,1,,,,,,,,,,,,,,,,,,,,,,
,,,,,53500,2023-07-21_23h00.24.744,vbt_B1_day3,2022.2.4,Win32,60.24459305,53500,,,,,,down,0,2.3846,,0.332407492,-0.099074116,1,0,0,0,143,143,138,1,akkoord,images/br_akkoord.png,images/cb_akkoord.png,0,,,,,,,,,,,,,,,,,,,,,,
,,,,,53500,2023-07-21_23h00.24.744,vbt_B1_day3,2022.2.4,Win32,60.24459305,53500,,,,,,down,0,1.5711,,0.332407492,-0.099074116,1,0,0,0,144,144,58,1,tekst,images/br_tekst.png,images/cb_tekst.png,0,,,,,,,,,,,,,,,,,,,,,,
,,,,,53500,2023-07-21_23h00.24.744,vbt_B1_day3,2022.2.4,Win32,60.24459305,53500,,,,,,down,0,8.2172,,0.332407492,-0.099074116,1,0,0,0,145,145,42,1,bleek,images/br_bleek.png,images/cb_bleek.png,0,,,,,,,,,,,,,,,,,,,,,,
,,,,,53500,2023-07-21_23h00.24.744,vbt_B1_day3,2022.2.4,Win32,60.24459305,53500,,,,,,down,0,1.4845,,0.332407492,-0.099074116,1,0,0,0,146,146,74,1,graaf,images/br_graaf.png,images/cb_graaf.png,0,,,,,,,,,,,,,,,,,,,,,,
,,,,,53500,2023-07-21_23h00.24.744,vbt_B1_day3,2022.2.4,Win32,60.24459305,53500,,,,,,down,0,0.0217,,0.332407492,-0.099074116,1,0,0,0,147,147,109,1,totaal,images/br_totaal.png,images/cb_totaal.png,0,,,,,,,,,,,,,,,,,,,,,,
,,,,,53500,2023-07-21_23h00.24.744,vbt_B1_day3,2022.2.4,Win32,60.24459305,53500,,,,,,down,0,0.8844,,0.332407492,-0.099074116,1,0,0,0,148,148,149,1,redding,images/br_redding.png,images/cb_redding.png,0,,,,,,,,,,,,,,,,,,,,,,
,,,,,53500,2023-07-21_23h00.24.744,vbt_B1_day3,2022.2.4,Win32,60.24459305,53500,,,,,,down,0,1.0186,,0.332407492,-0.099074116,1,0,0,0,149,149,96,1,slagen,images/br_slagen.png,images/cb_slagen.png,0,,,,,,,,,,,,,,,,,,,,,,
,,,,,53500,2023-07-21_23h00.24.744,vbt_B1_day3,2022.2.4,Win32,60.24459305,53500,,,,,,down,0,0.8509,,0.332407492,-0.099074116,1,0,0,0,150,150,51,1,samen,images/br_samen.png,images/cb_samen.png,0,,,,,,,,,,,,,,,,,,,,,,
,,,,,53500,2023-07-21_23h00.24.744,vbt_B1_day3,2022.2.4,Win32,60.24459305,53500,,,,,,down,0,1.8515,,0.332407492,-0.099074116,1,0,0,0,151,151,79,1,nodig,images/br_nodig.png,images/cb_nodig.png,0,,,,,,,,,,,,,,,,,,,,,,
,,,,,53500,2023-07-21_23h00.24.744,vbt_B1_day3,2022.2.4,Win32,60.24459305,53500,,,,,,down,0,0.6708,,0.332407492,-0.099074116,1,0,0,0,152,152,171,1,aarzelen,images/br_aarzelen.png,images/cb_aarzelen.png,0,,,,,,,,,,,,,,,,,,,,,,
,,,,,53500,2023-07-21_23h00.24.744,vbt_B1_day3,2022.2.4,Win32,60.24459305,53500,,,,,,down,0,5.3667,,0.332407492,-0.099074116,1,0,0,0,153,153,88,1,boeien,images/br_boeien.png,images/cb_boeien.png,0,,,,,,,,,,,,,,,,,,,,,,
,,,,,53500,2023-07-21_23h00.24.744,vbt_B1_day3,2022.2.4,Win32,60.24459305,53500,,,,,,down,0,2.0342,,0.332407492,-0.099074116,1,0,0,0,154,154,82,1,muziek,images/br_muziek.png,images/cb_muziek.png,0,,,,,,,,,,,,,,,,,,,,,,
,,,,,53500,2023-07-21_23h00.24.744,vbt_B1_day3,2022.2.4,Win32,60.24459305,53500,,,,,,down,0,5.2412,,0.332407492,-0.099074116,1,0,0,0,155,155,131,1,opzicht,images/br_opzicht.png,images/cb_opzicht.png,0,,,,,,,,,,,,,,,,,,,,,,
,,,,,53500,2023-07-21_23h00.24.744,vbt_B1_day3,2022.2.4,Win32,60.24459305,53500,,,,,,down,0,3.068,,0.332407492,-0.099074116,1,0,0,0,156,156,87,1,toeval,images/br_toeval.png,images/cb_toeval.png,0,,,,,,,,,,,,,,,,,,,,,,
,,,,,53500,2023-07-21_23h00.24.744,vbt_B1_day3,2022.2.4,Win32,60.24459305,53500,,,,,,down,0,0.9254,,0.332407492,-0.099074116,1,0,0,0,157,157,43,1,klauw,images/br_klauw.png,images/cb_klauw.png,0,,,,,,,,,,,,,,,,,,,,,,
,,,,,53500,2023-07-21_23h00.24.744,vbt_B1_day3,2022.2.4,Win32,60.24459305,53500,,,,,,down,0,0.8728,,0.332407492,-0.099074116,1,0,0,0,158,158,98,1,kreeft,images/br_kreeft.png,images/cb_kreeft.png,0,,,,,,,,,,,,,,,,,,,,,,
,,,,,53500,2023-07-21_23h00.24.744,vbt_B1_day3,2022.2.4,Win32,60.24459305,53500,,,,,,down,0,2.0519,,0.332407492,-0.099074116,1,0,0,0,159,159,168,1,bisschop,images/br_bisschop.png,images/cb_bisschop.png,0,,,,,,,,,,,,,,,,,,,,,,
,,,,,53500,2023-07-21_23h00.24.744,vbt_B1_day3,2022.2.4,Win32,60.24459305,53500,,,,,,down,0,0.7876,,0.332407492,-0.099074116,1,0,0,0,160,160,71,1,bever,images/br_bever.png,images/cb_bever.png,0,,,,,,,,,,,,,,,,,,,,,,
,,,,,53500,2023-07-21_23h00.24.744,vbt_B1_day3,2022.2.4,Win32,60.24459305,53500,,,,,,down,0,1.1232,,0.332407492,-0.099074116,1,0,0,0,161,161,112,1,lukken,images/br_lukken.png,images/cb_lukken.png,0,,,,,,,,,,,,,,,,,,,,,,
,,,,,53500,2023-07-21_23h00.24.744,vbt_B1_day3,2022.2.4,Win32,60.24459305,53500,,,,,,down,0,2.5543,,0.332407492,-0.099074116,1,0,0,0,162,162,28,1,stal,images/br_stal.png,images/cb_stal.png,0,,,,,,,,,,,,,,,,,,,,,,
,,,,,53500,2023-07-21_23h00.24.744,vbt_B1_day3,2022.2.4,Win32,60.24459305,53500,,,,,,down,0,2.2696,,0.332407492,-0.099074116,1,0,0,0,163,163,69,1,waken,images/br_waken.png,images/cb_waken.png,0,,,,,,,,,,,,,,,,,,,,,,
,,,,,53500,2023-07-21_23h00.24.744,vbt_B1_day3,2022.2.4,Win32,60.24459305,53500,,,,,,down,0,0.9606,,0.332407492,-0.099074116,1,0,0,0,164,164,151,1,aanzoek,images/br_aanzoek.png,images/cb_aanzoek.png,0,,,,,,,,,,,,,,,,,,,,,,
,,,,,53500,2023-07-21_23h00.24.744,vbt_B1_day3,2022.2.4,Win32,60.24459305,53500,,,,,,down,0,0.1203,,0.332407492,-0.099074116,1,0,0,0,165,165,187,1,opkijken,images/br_opkijken.png,images/cb_opkijken.png,0,,,,,,,,,,,,,,,,,,,,,,
,,,,,53500,2023-07-21_23h00.24.744,vbt_B1_day3,2022.2.4,Win32,60.24459305,53500,,,,,,down,0,1.2271,,0.332407492,-0.099074116,1,0,0,0,166,166,92,1,geheim,images/br_geheim.png,images/cb_geheim.png,0,,,,,,,,,,,,,,,,,,,,,,
,,,,,53500,2023-07-21_23h00.24.744,vbt_B1_day3,2022.2.4,Win32,60.24459305,53500,,,,,,down,0,0.5688,,0.332407492,-0.099074116,1,0,0,0,167,167,1,1,zaal,images/br_zaal.png,images/cb_zaal.png,0,,,,,,,,,,,,,,,,,,,,,,
,,,,,53500,2023-07-21_23h00.24.744,vbt_B1_day3,2022.2.4,Win32,60.24459305,53500,,,,,,down,0,3.1345,,0.332407492,-0.099074116,1,0,0,0,168,168,37,1,mijn,images/br_mijn.png,images/cb_mijn.png,0,,,,,,,,,,,,,,,,,,,,,,
,,,,,53500,2023-07-21_23h00.24.744,vbt_B1_day3,2022.2.4,Win32,60.24459305,53500,,,,,,down,0,39.8708,,0.127777806,-0.211111139,1,0,0,0,169,169,180,1,openbaar,images/br_openbaar.png,images/cb_openbaar.png,1,openbaar,,,,,,,,,,,,,,,,,,,,,
,,,,,53500,2023-07-21_23h00.24.744,vbt_B1_day3,2022.2.4,Win32,60.24459305,53500,,,,,,down,0,3.8091,,0.127777806,-0.211111139,1,0,0,0,170,170,115,1,kleren,images/br_kleren.png,images/cb_kleren.png,0,,,,,,,,,,,,,,,,,,,,,,
,,,,,53500,2023-07-21_23h00.24.744,vbt_B1_day3,2022.2.4,Win32,60.24459305,53500,,,,,,down,0,2.9695,,0.127777806,-0.211111139,1,0,0,0,171,171,72,1,strak,images/br_strak.png,images/cb_strak.png,0,,,,,,,,,,,,,,,,,,,,,,
,,,,,53500,2023-07-21_23h00.24.744,vbt_B1_day3,2022.2.4,Win32,60.24459305,53500,,,,,,down,0,1.8332,,0.127777806,-0.211111139,1,0,0,0,172,172,117,1,kennis,images/br_kennis.png,images/cb_kennis.png,0,,,,,,,,,,,,,,,,,,,,,,
,,,,,53500,2023-07-21_23h00.24.744,vbt_B1_day3,2022.2.4,Win32,60.24459305,53500,,,,,,down,0,0.8418,,0.127777806,-0.211111139,1,0,0,0,173,173,32,1,palm,images/br_palm.png,images/cb_palm.png,0,,,,,,,,,,,,,,,,,,,,,,
,,,,,53500,2023-07-21_23h00.24.744,vbt_B1_day3,2022.2.4,Win32,60.24459305,53500,,,,,,down,0,3.0561,,0.127777806,-0.211111139,1,0,0,0,174,174,106,1,zingen,images/br_zingen.png,images/cb_zingen.png,0,,,,,,,,,,,,,,,,,,,,,,
,,,,,53500,2023-07-21_23h00.24.744,vbt_B1_day3,2022.2.4,Win32,60.24459305,53500,,,,,,down,0,14.6596,,0.267592607,-0.117592635,1,0,0,0,175,175,141,1,knielen,images/br_knielen.png,images/cb_knielen.png,1,knielen,,,,,,,,,,,,,,,,,,,,,
,,,,,53500,2023-07-21_23h00.24.744,vbt_B1_day3,2022.2.4,Win32,60.24459305,53500,,,,,,down,0,3.2349,,0.267592607,-0.117592635,1,0,0,0,176,176,111,1,ticket,images/br_ticket.png,images/cb_ticket.png,0,,,,,,,,,,,,,,,,,,,,,,
,,,,,53500,2023-07-21_23h00.24.744,vbt_B1_day3,2022.2.4,Win32,60.24459305,53500,,,,,,down,0,2.9107,,0.267592607,-0.117592635,1,0,0,0,177,177,185,1,mijnheer,images/br_mijnheer.png,images/cb_mijnheer.png,0,,,,,,,,,,,,,,,,,,,,,,
,,,,,53500,2023-07-21_23h00.24.744,vbt_B1_day3,2022.2.4,Win32,60.24459305,53500,,,,,,down,0,5.2429,,0.267592607,-0.117592635,1,0,0,0,178,178,127,1,doodmoe,images/br_doodmoe.png,images/cb_doodmoe.png,0,,,,,,,,,,,,,,,,,,,,,,
,,,,,53500,2023-07-21_23h00.24.744,vbt_B1_day3,2022.2.4,Win32,60.24459305,53500,,,,,,down,0,2.5267,,0.267592607,-0.117592635,1,0,0,0,179,179,164,1,anarchie,images/br_anarchie.png,images/cb_anarchie.png,0,,,,,,,,,,,,,,,,,,,,,,
,,,,,53500,2023-07-21_23h00.24.744,vbt_B1_day3,2022.2.4,Win32,60.24459305,53500,,,,,,down,0,0.9378,,0.267592607,-0.117592635,1,0,0,0,180,180,26,1,leuk,images/br_leuk.png,images/cb_leuk.png,0,,,,,,,,,,,,,,,,,,,,,,
,,,,,53500,2023-07-21_23h00.24.744,vbt_B1_day3,2022.2.4,Win32,60.24459305,53500,,,,,,down,0,26.3724,,0.266666695,-0.130555541,1,0,0,0,181,181,143,1,hechten,images/br_hechten.png,images/cb_hechten.png,1,hechter,,,,,,,,,,,,,,,,,,,,,
,,,,,53500,2023-07-21_23h00.24.744,vbt_B1_day3,2022.2.4,Win32,60.24459305,53500,,,,,,down,0,3.6135,,0.266666695,-0.130555541,1,0,0,0,182,182,191,1,opheffen,images/br_opheffen.png,images/cb_opheffen.png,0,,,,,,,,,,,,,,,,,,,,,,
,,,,,53500,2023-07-21_23h00.24.744,vbt_B1_day3,2022.2.4,Win32,60.24459305,53500,,,,,,down,0,0.3629,,0.266666695,-0.130555541,1,0,0,0,183,183,30,1,uien,images/br_uien.png,images/cb_uien.png,0,,,,,,,,,,,,,,,,,,,,,,
,,,,,53500,2023-07-21_23h00.24.744,vbt_B1_day3,2022.2.4,Win32,60.24459305,53500,,,,,,down,0,1.6631,,0.266666695,-0.130555541,1,0,0,0,184,184,118,1,vinger,images/br_vinger.png,images/cb_vinger.png,0,,,,,,,,,,,,,,,,,,,,,,
,,,,,53500,2023-07-21_23h00.24.744,vbt_B1_day3,2022.2.4,Win32,60.24459305,53500,,,,,,down,0,2.1538,,0.266666695,-0.130555541,1,0,0,0,185,185,190,1,goedkoop,images/br_goedkoop.png,images/cb_goedkoop.png,0,,,,,,,,,,,,,,,,,,,,,,
,,,,,53500,2023-07-21_23h00.24.744,vbt_B1_day3,2022.2.4,Win32,60.24459305,53500,,,,,,down,0,2.8187,,0.266666695,-0.130555541,1,0,0,0,186,186,94,1,oceaan,images/br_oceaan.png,images/cb_oceaan.png,0,,,,,,,,,,,,,,,,,,,,,,
,,,,,53500,2023-07-21_23h00.24.744,vbt_B1_day3,2022.2.4,Win32,60.24459305,53500,,,,,,down,0,5.0164,,0.162962949,-0.048148155,1,0,0,0,187,187,11,1,mode,images/br_mode.png,images/cb_mode.png,0,,,,,,,,,,,,,,,,,,,,,,
,,,,,53500,2023-07-21_23h00.24.744,vbt_B1_day3,2022.2.4,Win32,60.24459305,53500,,,,,,down,0,2.1199,,0.184259273,-0.23055557,1,0,0,0,188,188,159,1,sufferd,images/br_sufferd.png,images/cb_sufferd.png,0,,,,,,,,,,,,,,,,,,,,,,
,,,,,53500,2023-07-21_23h00.24.744,vbt_B1_day3,2022.2.4,Win32,60.24459305,53500,,,,,,down,0,0.5268,,0.184259273,-0.23055557,1,0,0,0,189,189,146,1,opkomen,images/br_opkomen.png,images/cb_opkomen.png,0,,,,,,,,,,,,,,,,,,,,,,
,,,,,53500,2023-07-21_23h00.24.744,vbt_B1_day3,2022.2.4,Win32,60.24459305,53500,,,,,,down,0,4.6185,,0.184259273,-0.23055557,1,0,0,0,190,190,162,1,uitdelen,images/br_uitdelen.png,images/cb_uitdelen.png,0,,,,,,,,,,,,,,,,,,,,,,
,,,,,53500,2023-07-21_23h00.24.744,vbt_B1_day3,2022.2.4,Win32,60.24459305,53500,,,,,,down,0,1.0315,,0.184259273,-0.23055557,1,0,0,0,191,191,14,1,rijp,images/br_rijp.png,images/cb_rijp.png,0,,,,,,,,,,,,,,,,,,,,,,
,,,,,53500,2023-07-21_23h00.24.744,vbt_B1_day3,2022.2.4,Win32,60.24459305,53500,,,,,,down,0,22.5744,,0.17777782,-0.156481496,1,0,0,0,192,192,101,1,staren,images/br_staren.png,images/cb_staren.png,1,stra,,,,,,,,,,,,,,,,,,,,,
,,,,,53500,2023-07-21_23h00.24.744,vbt_B1_day3,2022.2.4,Win32,60.24459305,53500,,,,,,down,0,1.3898,,0.17777782,-0.156481496,1,0,0,0,193,193,70,1,ijdel,images/br_ijdel.png,images/cb_ijdel.png,0,,,,,,,,,,,,,,,,,,,,,,
,,,,,53500,2023-07-21_23h00.24.744,vbt_B1_day3,2022.2.4,Win32,60.24459305,53500,,,,,,down,0,1.547,,0.17777782,-0.156481496,1,0,0,0,194,194,119,1,liefje,images/br_liefje.png,images/cb_liefje.png,0,,,,,,,,,,,,,,,,,,,,,,
,,,,,53500,2023-07-21_23h00.24.744,vbt_B1_day3,2022.2.4,Win32,60.24459305,53500,,,,,,down,0,0.2261,,0.17777782,-0.156481496,1,0,0,0,195,195,10,1,leek,images/br_leek.png,images/cb_leek.png,0,,,,,,,,,,,,,,,,,,,,,,
,,,,,53500,2023-07-21_23h00.24.744,vbt_B1_day3,2022.2.4,Win32,60.24459305,53500,,,,,,down,0,1.8666,,0.17777782,-0.156481496,1,0,0,0,196,196,116,1,besmet,images/br_besmet.png,images/cb_besmet.png,0,,,,,,,,,,,,,,,,,,,,,,
,,,,,53500,2023-07-21_23h00.24.744,vbt_B1_day3,2022.2.4,Win32,60.24459305,53500,,,,,,down,0,0.4371,,0.17777782,-0.156481496,1,0,0,0,197,197,153,1,vervoer,images/br_vervoer.png,images/cb_vervoer.png,0,,,,,,,,,,,,,,,,,,,,,,
,,,,,53500,2023-07-21_23h00.24.744,vbt_B1_day3,2022.2.4,Win32,60.24459305,53500,,,,,,down,0,0.1715,,0.17777782,-0.156481496,1,0,0,0,198,198,150,1,gegeven,images/br_gegeven.png,images/cb_gegeven.png,0,,,,,,,,,,,,,,,,,,,,,,
,,,,,53500,2023-07-21_23h00.24.744,vbt_B1_day3,2022.2.4,Win32,60.24459305,53500,,,,,,down,0,1.0006,,0.17777782,-0.156481496,1,0,0,0,199,199,12,1,kust,images/br_kust.png,images/cb_kust.png,0,,,,,,,,,,,,,,,,,,,,,,
,,,,,53500,2023-07-21_23h00.24.744,vbt_B1_day3,2022.2.4,Win32,60.24459305,53500,,,,,,,,,,,,,,,,,,,,,,,,,0.17777782,-0.156481496,1,0,0,,,,,,,,,,,,,,,,
,,,,,53500,2023-07-21_23h00.24.744,vbt_B1_day3,2022.2.4,Win32,60.24459305,53500,,,,,,,,,,,,,,,,,,,,,,,,,,,,,,0.17777782,-0.156481496,1,0,0,,,,,,,,,,,
,,,,,53500,2023-07-21_23h00.24.744,vbt_B1_day3,2022.2.4,Win32,60.24459305,53500,,,,,,,,,,,,,,,,,,,,uviek,images/br_uviek.png,images/cb_uviek.png,,uviek,,,,,,,,,,,-0.01944443,-0.196296339,1,0,0,uviek,0,0,0,25,1
,,,,,53500,2023-07-21_23h00.24.744,vbt_B1_day3,2022.2.4,Win32,60.24459305,53500,,,,,,,,,,,,,,,,,,,,steel,images/br_steel.png,images/cb_steel.png,,steel,,,,,,,,,,,0.187962991,-0.024074095,1,0,0,steel,0,1,1,4,1
,,,,,53500,2023-07-21_23h00.24.744,vbt_B1_day3,2022.2.4,Win32,60.24459305,53500,,,,,,,,,,,,,,,,,,,,aarzelen,images/br_aarzelen.png,images/cb_aarzelen.png,,,,,,,,,,,,,-0.038888861,-0.212962963,1,0,0,,0,2,2,19,1
,,,,,53500,2023-07-21_23h00.24.744,vbt_B1_day3,2022.2.4,Win32,60.24459305,53500,,,,,,,,,,,,,,,,,,,,slapen,images/br_slapen.png,images/cb_slapen.png,,,,,,,,,,,,,0.022222236,-0.118518547,1,0,0,,0,3,3,9,1
,,,,,53500,2023-07-21_23h00.24.744,vbt_B1_day3,2022.2.4,Win32,60.24459305,53500,,,,,,,,,,,,,,,,,,,,stoom,images/br_stoom.png,images/cb_stoom.png,,swaa.,,,,,,,,,,,0.229629658,-0.063888903,1,0,0,swaa.,0,4,4,6,1
,,,,,53500,2023-07-21_23h00.24.744,vbt_B1_day3,2022.2.4,Win32,60.24459305,53500,,,,,,,,,,,,,,,,,,,,twaaf,images/br_twaaf.png,images/cb_twaaf.png,,staaf,,,,,,,,,,,0.247222265,-0.08888891,1,0,0,staaf,0,5,5,24,1
,,,,,53500,2023-07-21_23h00.24.744,vbt_B1_day3,2022.2.4,Win32,60.24459305,53500,,,,,,,,,,,,,,,,,,,,kaas,images/br_kaas.png,images/cb_kaas.png,,kaa.,,,,,,,,,,,0.204629616,0.002777771,1,0,0,kaa.,0,6,6,42,1
,,,,,53500,2023-07-21_23h00.24.744,vbt_B1_day3,2022.2.4,Win32,60.24459305,53500,,,,,,,,,,,,,,,,,,,,samen,images/br_samen.png,images/cb_samen.png,,sa.en,,,,,,,,,,,0.348148205,-0.021296289,1,0,0,sa.en,0,7,7,7,1
,,,,,53500,2023-07-21_23h00.24.744,vbt_B1_day3,2022.2.4,Win32,60.24459305,53500,,,,,,,,,,,,,,,,,,,,gout,images/br_gout.png,images/cb_gout.png,,gr.t,,,,,,,,,,,0.349074046,-0.186111097,1,0,0,gr.t,0,8,8,20,1
,,,,,53500,2023-07-21_23h00.24.744,vbt_B1_day3,2022.2.4,Win32,60.24459305,53500,,,,,,,,,,,,,,,,,,,,brappen,images/br_brappen.png,images/cb_brappen.png,,brappen,,,,,,,,,,,0.478703675,-0.178703732,1,0,0,brappen,0,9,9,35,1
,,,,,53500,2023-07-21_23h00.24.744,vbt_B1_day3,2022.2.4,Win32,60.24459305,53500,,,,,,,,,,,,,,,,,,,,makieren,images/br_makieren.png,images/cb_makieren.png,,.akkieren,,,,,,,,,,,0.338888945,-0.286111125,1,0,0,.akkieren,0,10,10,36,1
,,,,,53500,2023-07-21_23h00.24.744,vbt_B1_day3,2022.2.4,Win32,60.24459305,53500,,,,,,,,,,,,,,,,,,,,booien,images/br_booien.png,images/cb_booien.png,,,,,,,,,,,,,-0.011111083,-0.199074074,1,0,0,,0,11,11,31,1
,,,,,53500,2023-07-21_23h00.24.744,vbt_B1_day3,2022.2.4,Win32,60.24459305,53500,,,,,,,,,,,,,,,,,,,,paken,images/br_paken.png,images/cb_paken.png,,paken,,,,,,,,,,,0.25462963,0.010185171,1,0,0,paken,0,12,12,27,1
,,,,,53500,2023-07-21_23h00.24.744,vbt_B1_day3,2022.2.4,Win32,60.24459305,53500,,,,,,,,,,,,,,,,,,,,begrip,images/br_begrip.png,images/cb_begrip.png,,,,,,,,,,,,,0.358333305,-0.169444473,1,0,0,,0,13,13,48,1
,,,,,53500,2023-07-21_23h00.24.744,vbt_B1_day3,2022.2.4,Win32,60.24459305,53500,,,,,,,,,,,,,,,,,,,,mode,images/br_mode.png,images/cb_mode.png,,mo.e,,,,,,,,,,,0.304629714,-0.256481524,1,0,0,mo.e,0,14,14,3,1
,,,,,53500,2023-07-21_23h00.24.744,vbt_B1_day3,2022.2.4,Win32,60.24459305,53500,,,,,,,,,,,,,,,,,,,,schatten,images/br_schatten.png,images/cb_schatten.png,,schatten,,,,,,,,,,,0.359259288,-0.080555563,1,0,0,schatten,0,15,15,18,1
,,,,,53500,2023-07-21_23h00.24.744,vbt_B1_day3,2022.2.4,Win32,60.24459305,53500,,,,,,,,,,,,,,,,,,,,dwang,images/br_dwang.png,images/cb_dwang.png,,,,,,,,,,,,,0.140740783,-0.209259245,1,0,0,,0,16,16,47,1
,,,,,53500,2023-07-21_23h00.24.744,vbt_B1_day3,2022.2.4,Win32,60.24459305,53500,,,,,,,,,,,,,,,,,,,,keihard,images/br_keihard.png,images/cb_keihard.png,,keihard,,,,,,,,,,,0.251851894,-0.33148151,1,0,0,keihard,0,17,17,14,1
,,,,,53500,2023-07-21_23h00.24.744,vbt_B1_day3,2022.2.4,Win32,60.24459305,53500,,,,,,,,,,,,,,,,,,,,oprotten,images/br_oprotten.png,images/cb_oprotten.png,,opa.tten,,,,,,,,,,,0.553703732,-0.256481524,1,0,0,opa.tten,0,18,18,17,1
,,,,,53500,2023-07-21_23h00.24.744,vbt_B1_day3,2022.2.4,Win32,60.24459305,53500,,,,,,,,,,,,,,,,,,,,gezond,images/br_gezond.png,images/cb_gezond.png,,,,,,,,,,,,,0.553703732,-0.256481524,1,0,0,,0,19,19,11,1
,,,,,53500,2023-07-21_23h00.24.744,vbt_B1_day3,2022.2.4,Win32,60.24459305,53500,,,,,,,,,,,,,,,,,,,,verwoor,images/br_verwoor.png,images/cb_verwoor.png,,her,,,,,,,,,,,0.553703732,-0.256481524,1,0,0,her,0,20,20,32,1
,,,,,53500,2023-07-21_23h00.24.744,vbt_B1_day3,2022.2.4,Win32,60.24459305,53500,,,,,,,,,,,,,,,,,,,,prikken,images/br_prikken.png,images/cb_prikken.png,,,,,,,,,,,,,0.461111139,-0.074074074,1,0,0,,0,21,21,12,1
,,,,,53500,2023-07-21_23h00.24.744,vbt_B1_day3,2022.2.4,Win32,60.24459305,53500,,,,,,,,,,,,,,,,,,,,leemaken,images/br_leemaken.png,images/cb_leemaken.png,,leembakker,,,,,,,,,,,0.464814787,-0.079629651,1,0,0,leembakker,0,22,22,39,1
,,,,,53500,2023-07-21_23h00.24.744,vbt_B1_day3,2022.2.4,Win32,60.24459305,53500,,,,,,,,,,,,,,,,,,,,kest,images/br_kest.png,images/cb_kest.png,,k....,,,,,,,,,,,0.430555556,-0.093518504,1,0,0,k....,0,23,23,21,1
,,,,,53500,2023-07-21_23h00.24.744,vbt_B1_day3,2022.2.4,Win32,60.24459305,53500,,,,,,,,,,,,,,,,,,,,zone,images/br_zone.png,images/cb_zone.png,,zane,,,,,,,,,,,0.430555556,-0.093518504,1,0,0,zane,0,24,24,41,1
,,,,,53500,2023-07-21_23h00.24.744,vbt_B1_day3,2022.2.4,Win32,60.24459305,53500,,,,,,,,,,,,,,,,,,,,schodel,images/br_schodel.png,images/cb_schodel.png,,schakel,,,,,,,,,,,0.239814829,-0.169444473,1,0,0,schakel,0,25,25,33,1
,,,,,53500,2023-07-21_23h00.24.744,vbt_B1_day3,2022.2.4,Win32,60.24459305,53500,,,,,,,,,,,,,,,,,,,,sultan,images/br_sultan.png,images/cb_sultan.png,,sultan,,,,,,,,,,,0.382407436,-0.126851894,1,0,0,sultan,0,26,26,49,1
,,,,,53500,2023-07-21_23h00.24.744,vbt_B1_day3,2022.2.4,Win32,60.24459305,53500,,,,,,,,,,,,,,,,,,,,verhaal,images/br_verhaal.png,images/cb_verhaal.png,,v,,,,,,,,,,,0.382407436,-0.126851894,1,0,0,v,0,27,27,13,1
,,,,,53500,2023-07-21_23h00.24.744,vbt_B1_day3,2022.2.4,Win32,60.24459305,53500,,,,,,,,,,,,,,,,,,,,laken,images/br_laken.png,images/cb_laken.png,,laken,,,,,,,,,,,0.382407436,-0.126851894,1,0,0,laken,0,28,28,5,1
,,,,,53500,2023-07-21_23h00.24.744,vbt_B1_day3,2022.2.4,Win32,60.24459305,53500,,,,,,,,,,,,,,,,,,,,opzicht,images/br_opzicht.png,images/cb_opzicht.png,,,,,,,,,,,,,0.382407436,-0.126851894,1,0,0,,0,29,29,15,1
,,,,,53500,2023-07-21_23h00.24.744,vbt_B1_day3,2022.2.4,Win32,60.24459305,53500,,,,,,,,,,,,,,,,,,,,uniek,images/br_uniek.png,images/cb_uniek.png,,..eik,,,,,,,,,,,0.382407436,-0.126851894,1,0,0,..eik,0,30,30,46,1
,,,,,53500,2023-07-21_23h00.24.744,vbt_B1_day3,2022.2.4,Win32,60.24459305,53500,,,,,,,,,,,,,,,,,,,,hier,images/br_hier.png,images/cb_hier.png,,hier,,,,,,,,,,,0.270370413,-0.09629631,1,0,0,hier,0,31,31,1,1
,,,,,53500,2023-07-21_23h00.24.744,vbt_B1_day3,2022.2.4,Win32,60.24459305,53500,,,,,,,,,,,,,,,,,,,,glijden,images/br_glijden.png,images/cb_glijden.png,,glijden,,,,,,,,,,,0.103703746,-0.311111097,1,0,0,glijden,0,32,32,53,1
,,,,,53500,2023-07-21_23h00.24.744,vbt_B1_day3,2022.2.4,Win32,60.24459305,53500,,,,,,,,,,,,,,,,,,,,boeien,images/br_boeien.png,images/cb_boeien.png,,reien,,,,,,,,,,,-0.02407406,-0.189814815,1,0,0,reien,0,33,33,8,1
,,,,,53500,2023-07-21_23h00.24.744,vbt_B1_day3,2022.2.4,Win32,60.24459305,53500,,,,,,,,,,,,,,,,,,,,vlager,images/br_vlager.png,images/cb_vlager.png,,v,,,,,,,,,,,-0.112037023,-0.347222222,1,0,0,v,0,34,34,28,1
,,,,,53500,2023-07-21_23h00.24.744,vbt_B1_day3,2022.2.4,Win32,60.24459305,53500,,,,,,,,,,,,,,,,,,,,afbopen,images/br_afbopen.png,images/cb_afbopen.png,,afbaken,,,,,,,,,,,0.062962991,-0.317592621,1,0,0,afbaken,0,35,35,34,1
,,,,,53500,2023-07-21_23h00.24.744,vbt_B1_day3,2022.2.4,Win32,60.24459305,53500,,,,,,,,,,,,,,,,,,,,gebod,images/br_gebod.png,images/cb_gebod.png,,gebod,,,,,,,,,,,0.303703732,-0.304629644,1,0,0,gebod,0,36,36,45,1
,,,,,53500,2023-07-21_23h00.24.744,vbt_B1_day3,2022.2.4,Win32,60.24459305,53500,,,,,,,,,,,,,,,,,,,,theeting,images/br_theeting.png,images/cb_theeting.png,,theetijg,,,,,,,,,,,0.394444501,-0.262962977,1,0,0,theetijg,0,37,37,38,1
,,,,,53500,2023-07-21_23h00.24.744,vbt_B1_day3,2022.2.4,Win32,60.24459305,53500,,,,,,,,,,,,,,,,,,,,croo,images/br_croo.png,images/cb_croo.png,,croo,,,,,,,,,,,0.394444501,-0.262962977,1,0,0,croo,0,38,38,22,1
,,,,,53500,2023-07-21_23h00.24.744,vbt_B1_day3,2022.2.4,Win32,60.24459305,53500,,,,,,,,,,,,,,,,,,,,beslag,images/br_beslag.png,images/cb_beslag.png,,,,,,,,,,,,,0.394444501,-0.262962977,1,0,0,,0,39,39,51,1
,,,,,53500,2023-07-21_23h00.24.744,vbt_B1_day3,2022.2.4,Win32,60.24459305,53500,,,,,,,,,,,,,,,,,,,,mugeek,images/br_mugeek.png,images/cb_mugeek.png,,,,,,,,,,,,,0.394444501,-0.262962977,1,0,0,,0,40,40,29,1
,,,,,53500,2023-07-21_23h00.24.744,vbt_B1_day3,2022.2.4,Win32,60.24459305,53500,,,,,,,,,,,,,,,,,,,,alsof,images/br_alsof.png,images/cb_alsof.png,,alsof,,,,,,,,,,,0.253703718,-0.320370356,1,0,0,alsof,0,41,41,44,1
,,,,,53500,2023-07-21_23h00.24.744,vbt_B1_day3,2022.2.4,Win32,60.24459305,53500,,,,,,,,,,,,,,,,,,,,kwaas,images/br_kwaas.png,images/cb_kwaas.png,,kwaa.,,,,,,,,,,,0.063888903,-0.407407407,1,0,0,kwaa.,0,42,42,26,1
,,,,,53500,2023-07-21_23h00.24.744,vbt_B1_day3,2022.2.4,Win32,60.24459305,53500,,,,,,,,,,,,,,,,,,,,bisschop,images/br_bisschop.png,images/cb_bisschop.png,,,,,,,,,,,,,0.000925912,-0.387962977,1,0,0,,0,43,43,16,1
,,,,,53500,2023-07-21_23h00.24.744,vbt_B1_day3,2022.2.4,Win32,60.24459305,53500,,,,,,,,,,,,,,,,,,,,opzetten,images/br_opzetten.png,images/cb_opzetten.png,,opletten,,,,,,,,,,,0.012037065,-0.383333347,1,0,0,opletten,0,44,44,56,1
,,,,,53500,2023-07-21_23h00.24.744,vbt_B1_day3,2022.2.4,Win32,60.24459305,53500,,,,,,,,,,,,,,,,,,,,bevret,images/br_bevret.png,images/cb_bevret.png,,.,,,,,,,,,,,0.080555598,-0.306481467,1,0,0,.,0,45,45,30,1
,,,,,53500,2023-07-21_23h00.24.744,vbt_B1_day3,2022.2.4,Win32,60.24459305,53500,,,,,,,,,,,,,,,,,,,,hust,images/br_hust.png,images/cb_hust.png,,.,,,,,,,,,,,0.074074074,-0.282407407,1,0,0,.,0,46,46,23,1
,,,,,53500,2023-07-21_23h00.24.744,vbt_B1_day3,2022.2.4,Win32,60.24459305,53500,,,,,,,,,,,,,,,,,,,,invallen,images/br_invallen.png,images/cb_invallen.png,,.,,,,,,,,,,,0.358333305,-0.122222265,1,0,0,.,0,47,47,57,1
,,,,,53500,2023-07-21_23h00.24.744,vbt_B1_day3,2022.2.4,Win32,60.24459305,53500,,,,,,,,,,,,,,,,,,,,onrecht,images/br_onrecht.png,images/cb_onrecht.png,,opred.,,,,,,,,,,,0.253703718,-0.329629616,1,0,0,opred.,0,48,48,55,1
,,,,,53500,2023-07-21_23h00.24.744,vbt_B1_day3,2022.2.4,Win32,60.24459305,53500,,,,,,,,,,,,,,,,,,,,eens,images/br_eens.png,images/cb_eens.png,,eens,,,,,,,,,,,0.260185171,-0.365740741,1,0,0,eens,0,49,49,40,1
,,,,,53500,2023-07-21_23h00.24.744,vbt_B1_day3,2022.2.4,Win32,60.24459305,53500,,,,,,,,,,,,,,,,,,,,verraden,images/br_verraden.png,images/cb_verraden.png,,verrader,,,,,,,,,,,0.240740741,-0.311111097,1,0,0,verrader,0,50,50,58,1
,,,,,53500,2023-07-21_23h00.24.744,vbt_B1_day3,2022.2.4,Win32,60.24459305,53500,,,,,,,,,,,,,,,,,,,,jongelui,images/br_jongelui.png,images/cb_jongelui.png,,jongel..,,,,,,,,,,,0.342592593,-0.086111104,1,0,0,jongel..,0,51,51,59,1
,,,,,53500,2023-07-21_23h00.24.744,vbt_B1_day3,2022.2.4,Win32,60.24459305,53500,,,,,,,,,,,,,,,,,,,,geluid,images/br_geluid.png,images/cb_geluid.png,,geluid,,,,,,,,,,,0.191666709,-0.357407393,1,0,0,geluid,0,52,52,10,1
,,,,,53500,2023-07-21_23h00.24.744,vbt_B1_day3,2022.2.4,Win32,60.24459305,53500,,,,,,,,,,,,,,,,,,,,stallen,images/br_stallen.png,images/cb_stallen.png,,stallen,,,,,,,,,,,0.191666709,-0.357407393,1,0,0,stallen,0,53,53,52,1
,,,,,53500,2023-07-21_23h00.24.744,vbt_B1_day3,2022.2.4,Win32,60.24459305,53500,,,,,,,,,,,,,,,,,,,,leugeren,images/br_leugeren.png,images/cb_leugeren.png,,le.gere.,,,,,,,,,,,0.198148162,-0.314814815,1,0,0,le.gere.,0,54,54,37,1
,,,,,53500,2023-07-21_23h00.24.744,vbt_B1_day3,2022.2.4,Win32,60.24459305,53500,,,,,,,,,,,,,,,,,,,,knie,images/br_knie.png,images/cb_knie.png,,knie,,,,,,,,,,,0.315740797,-0.299074102,1,0,0,knie,0,55,55,0,1
,,,,,53500,2023-07-21_23h00.24.744,vbt_B1_day3,2022.2.4,Win32,60.24459305,53500,,,,,,,,,,,,,,,,,,,,sluier,images/br_sluier.png,images/cb_sluier.png,,sl...,,,,,,,,,,,0.315740797,-0.299074102,1,0,0,sl...,0,56,56,50,1
,,,,,53500,2023-07-21_23h00.24.744,vbt_B1_day3,2022.2.4,Win32,60.24459305,53500,,,,,,,,,,,,,,,,,,,,stikken,images/br_stikken.png,images/cb_stikken.png,,,,,,,,,,,,,0.030555584,-0.186111097,1,0,0,,0,57,57,54,1
,,,,,53500,2023-07-21_23h00.24.744,vbt_B1_day3,2022.2.4,Win32,60.24459305,53500,,,,,,,,,,,,,,,,,,,,leek,images/br_leek.png,images/cb_leek.png,,leek,,,,,,,,,,,-0.039814772,-0.284259302,1,0,0,leek,0,58,58,2,1
,,,,,53500,2023-07-21_23h00.24.744,vbt_B1_day3,2022.2.4,Win32,60.24459305,53500,,,,,,,,,,,,,,,,,,,,hint,images/br_hint.png,images/cb_hint.png,,hint,,,,,,,,,,,0.074074074,-0.30277782,1,0,0,hint,0,59,59,43,1
,,,,,53500,2023-07-21_23h00.24.744,vbt_B1_day3,2022.2.4,Win32,60.24459305,53500,,,,,,,,,,,,,,,,,,,,,,,,,,,,,,,,,,,,,,,,,,,,,
