welcome_mouse.x,welcome_mouse.y,welcome_mouse.leftButton,welcome_mouse.midButton,welcome_mouse.rightButton,"ID",date,expName,psychopyVersion,OS,frameRate,trainInstr_mouse.x,trainInstr_mouse.y,trainInstr_mouse.leftButton,trainInstr_mouse.midButton,trainInstr_mouse.rightButton,translation_key.keys,translation_key.corr,translation_key.rt,word_rsp.text,trWrd_mouse.x,trWrd_mouse.y,trWrd_mouse.leftButton,trWrd_mouse.midButton,trWrd_mouse.rightButton,train_loop.thisRepN,train_loop.thisTrialN,train_loop.thisN,train_loop.thisIndex,train_loop.ran,nlWrd,brWrd,cbWrd,test,testResp,mouse.x,mouse.y,mouse.leftButton,mouse.midButton,mouse.rightButton,testInstr_mouse.x,testInstr_mouse.y,testInstr_mouse.leftButton,testInstr_mouse.midButton,testInstr_mouse.rightButton,test_mouse.x,test_mouse.y,test_mouse.leftButton,test_mouse.midButton,test_mouse.rightButton,test_response.text,test_loop.thisRepN,test_loop.thisTrialN,test_loop.thisN,test_loop.thisIndex,test_loop.ran
-0.151851866,-0.263888889,1,0,0,00046,2023-10-03_19h55.21.647,vbt_B1_day3,2022.2.4,Win32,59.99880002,,,,,,,,,,,,,,,,,,,,,,,,,,,,,,,,,,,,,,,,,,,,,
,,,,,00046,2023-10-03_19h55.21.647,vbt_B1_day3,2022.2.4,Win32,59.99880002,-0.130555541,0.033333319,1,0,0,,,,,,,,,,,,,,,,,,,,,,,,,,,,,,,,,,,,,,,,
,,,,,00046,2023-10-03_19h55.21.647,vbt_B1_day3,2022.2.4,Win32,59.99880002,,,,,,down,0,4.2651,,0.512037065,-0.187037079,1,0,0,0,0,0,75,1,snoep,images/br_snoep.png,images/cb_snoep.png,0,,,,,,,,,,,,,,,,,,,,,,
,,,,,00046,2023-10-03_19h55.21.647,vbt_B1_day3,2022.2.4,Win32,59.99880002,,,,,,down,0,17.9047,,0.522222307,0.084259245,1,0,0,0,1,1,114,1,vullen,images/br_vullen.png,images/cb_vullen.png,0,,,,,,,,,,,,,,,,,,,,,,
,,,,,00046,2023-10-03_19h55.21.647,vbt_B1_day3,2022.2.4,Win32,59.99880002,,,,,,down,0,33.2616,,-0.322222215,0.215740734,1,0,0,0,2,2,98,1,kreeft,images/br_kreeft.png,images/cb_kreeft.png,0,,,,,,,,,,,,,,,,,,,,,,
,,,,,00046,2023-10-03_19h55.21.647,vbt_B1_day3,2022.2.4,Win32,59.99880002,,,,,,down,0,3.3076,,-0.322222215,0.215740734,1,0,0,0,3,3,27,1,dans,images/br_dans.png,images/cb_dans.png,0,,,,,,,,,,,,,,,,,,,,,,
,,,,,00046,2023-10-03_19h55.21.647,vbt_B1_day3,2022.2.4,Win32,59.99880002,,,,,,down,0,65.8074,,-0.322222215,0.215740734,1,0,0,0,4,4,161,1,attentie,images/br_attentie.png,images/cb_attentie.png,0,,,,,,,,,,,,,,,,,,,,,,
,,,,,00046,2023-10-03_19h55.21.647,vbt_B1_day3,2022.2.4,Win32,59.99880002,,,,,,down,0,3.7269,,-0.322222215,0.215740734,1,0,0,0,5,5,90,1,geluid,images/br_geluid.png,images/cb_geluid.png,0,,,,,,,,,,,,,,,,,,,,,,
,,,,,00046,2023-10-03_19h55.21.647,vbt_B1_day3,2022.2.4,Win32,59.99880002,,,,,,down,0,4.9326,,-0.322222215,0.215740734,1,0,0,0,6,6,80,1,kanjer,images/br_kanjer.png,images/cb_kanjer.png,0,,,,,,,,,,,,,,,,,,,,,,
,,,,,00046,2023-10-03_19h55.21.647,vbt_B1_day3,2022.2.4,Win32,59.99880002,,,,,,down,0,23.7918,,-0.322222215,0.215740734,1,0,0,0,7,7,110,1,zuster,images/br_zuster.png,images/cb_zuster.png,0,,,,,,,,,,,,,,,,,,,,,,
,,,,,00046,2023-10-03_19h55.21.647,vbt_B1_day3,2022.2.4,Win32,59.99880002,,,,,,down,0,33.9193,,-0.322222215,0.215740734,1,0,0,0,8,8,92,1,geheim,images/br_geheim.png,images/cb_geheim.png,0,,,,,,,,,,,,,,,,,,,,,,
,,,,,00046,2023-10-03_19h55.21.647,vbt_B1_day3,2022.2.4,Win32,59.99880002,,,,,,down,0,48.763,,-0.322222215,0.215740734,1,0,0,0,9,9,121,1,twijfel,images/br_twijfel.png,images/cb_twijfel.png,0,,,,,,,,,,,,,,,,,,,,,,
,,,,,00046,2023-10-03_19h55.21.647,vbt_B1_day3,2022.2.4,Win32,59.99880002,,,,,,down,0,1.4215,,-0.322222215,0.215740734,1,0,0,0,10,10,120,1,klimmen,images/br_klimmen.png,images/cb_klimmen.png,0,,,,,,,,,,,,,,,,,,,,,,
,,,,,00046,2023-10-03_19h55.21.647,vbt_B1_day3,2022.2.4,Win32,59.99880002,,,,,,down,0,6.9674,,-0.322222215,0.215740734,1,0,0,0,11,11,133,1,seizoen,images/br_seizoen.png,images/cb_seizoen.png,0,,,,,,,,,,,,,,,,,,,,,,
,,,,,00046,2023-10-03_19h55.21.647,vbt_B1_day3,2022.2.4,Win32,59.99880002,,,,,,down,0,3.1336,,-0.322222215,0.215740734,1,0,0,0,12,12,28,1,stal,images/br_stal.png,images/cb_stal.png,0,,,,,,,,,,,,,,,,,,,,,,
,,,,,00046,2023-10-03_19h55.21.647,vbt_B1_day3,2022.2.4,Win32,59.99880002,,,,,,down,0,100.9867,,-0.322222215,0.215740734,1,0,0,0,13,13,170,1,schatten,images/br_schatten.png,images/cb_schatten.png,0,,,,,,,,,,,,,,,,,,,,,,
,,,,,00046,2023-10-03_19h55.21.647,vbt_B1_day3,2022.2.4,Win32,59.99880002,,,,,,down,0,19.7573,,-0.322222215,0.215740734,1,0,0,0,14,14,35,1,lust,images/br_lust.png,images/cb_lust.png,0,,,,,,,,,,,,,,,,,,,,,,
,,,,,00046,2023-10-03_19h55.21.647,vbt_B1_day3,2022.2.4,Win32,59.99880002,,,,,,down,0,37.1063,,-0.322222215,0.215740734,1,0,0,0,15,15,71,1,bever,images/br_bever.png,images/cb_bever.png,0,,,,,,,,,,,,,,,,,,,,,,
,,,,,00046,2023-10-03_19h55.21.647,vbt_B1_day3,2022.2.4,Win32,59.99880002,,,,,,down,0,16.2834,,-0.322222215,0.215740734,1,0,0,0,16,16,104,1,zweven,images/br_zweven.png,images/cb_zweven.png,0,,,,,,,,,,,,,,,,,,,,,,
,,,,,00046,2023-10-03_19h55.21.647,vbt_B1_day3,2022.2.4,Win32,59.99880002,,,,,,down,0,1.2281,,-0.322222215,0.215740734,1,0,0,0,17,17,78,1,leren,images/br_leren.png,images/cb_leren.png,0,,,,,,,,,,,,,,,,,,,,,,
,,,,,00046,2023-10-03_19h55.21.647,vbt_B1_day3,2022.2.4,Win32,59.99880002,,,,,,down,0,18.3169,,-0.322222215,0.215740734,1,0,0,0,18,18,30,1,uien,images/br_uien.png,images/cb_uien.png,0,,,,,,,,,,,,,,,,,,,,,,
,,,,,00046,2023-10-03_19h55.21.647,vbt_B1_day3,2022.2.4,Win32,59.99880002,,,,,,down,0,5.0993,,-0.322222215,0.215740734,1,0,0,0,19,19,192,1,schaamte,images/br_schaamte.png,images/cb_schaamte.png,0,,,,,,,,,,,,,,,,,,,,,,
,,,,,00046,2023-10-03_19h55.21.647,vbt_B1_day3,2022.2.4,Win32,59.99880002,,,,,,down,0,38.6841,,-0.322222215,0.215740734,1,0,0,0,20,20,103,1,joggen,images/br_joggen.png,images/cb_joggen.png,1,joggen,,,,,,,,,,,,,,,,,,,,,
,,,,,00046,2023-10-03_19h55.21.647,vbt_B1_day3,2022.2.4,Win32,59.99880002,,,,,,down,0,9.735,,-0.322222215,0.215740734,1,0,0,0,21,21,46,1,jagen,images/br_jagen.png,images/cb_jagen.png,0,,,,,,,,,,,,,,,,,,,,,,
,,,,,00046,2023-10-03_19h55.21.647,vbt_B1_day3,2022.2.4,Win32,59.99880002,,,,,,down,0,5.1357,,-0.322222215,0.215740734,1,0,0,0,22,22,66,1,lever,images/br_lever.png,images/cb_lever.png,0,,,,,,,,,,,,,,,,,,,,,,
,,,,,00046,2023-10-03_19h55.21.647,vbt_B1_day3,2022.2.4,Win32,59.99880002,,,,,,down,0,2.0077,,-0.322222215,0.215740734,1,0,0,0,23,23,18,1,blik,images/br_blik.png,images/cb_blik.png,0,,,,,,,,,,,,,,,,,,,,,,
,,,,,00046,2023-10-03_19h55.21.647,vbt_B1_day3,2022.2.4,Win32,59.99880002,,,,,,down,0,4.6198,,-0.322222215,0.215740734,1,0,0,0,24,24,26,1,leuk,images/br_leuk.png,images/cb_leuk.png,0,,,,,,,,,,,,,,,,,,,,,,
,,,,,00046,2023-10-03_19h55.21.647,vbt_B1_day3,2022.2.4,Win32,59.99880002,,,,,,down,0,45.3311,,-0.322222215,0.215740734,1,0,0,0,25,25,51,1,samen,images/br_samen.png,images/cb_samen.png,0,,,,,,,,,,,,,,,,,,,,,,
,,,,,00046,2023-10-03_19h55.21.647,vbt_B1_day3,2022.2.4,Win32,59.99880002,,,,,,down,0,23.9681,,-0.349074081,0.172222208,1,0,0,0,26,26,22,1,stof,images/br_stof.png,images/cb_stof.png,1,stof,,,,,,,,,,,,,,,,,,,,,
,,,,,00046,2023-10-03_19h55.21.647,vbt_B1_day3,2022.2.4,Win32,59.99880002,,,,,,down,0,9.1185,,-0.349074081,0.172222208,1,0,0,0,27,27,154,1,aflopen,images/br_aflopen.png,images/cb_aflopen.png,0,,,,,,,,,,,,,,,,,,,,,,
,,,,,00046,2023-10-03_19h55.21.647,vbt_B1_day3,2022.2.4,Win32,59.99880002,,,,,,down,0,7.1446,,-0.349074081,0.172222208,1,0,0,0,28,28,128,1,prikken,images/br_prikken.png,images/cb_prikken.png,0,,,,,,,,,,,,,,,,,,,,,,
,,,,,00046,2023-10-03_19h55.21.647,vbt_B1_day3,2022.2.4,Win32,59.99880002,,,,,,down,0,6.9007,,-0.349074081,0.172222208,1,0,0,0,29,29,173,1,apparaat,images/br_apparaat.png,images/cb_apparaat.png,0,,,,,,,,,,,,,,,,,,,,,,
,,,,,00046,2023-10-03_19h55.21.647,vbt_B1_day3,2022.2.4,Win32,59.99880002,,,,,,down,0,1.5836,,-0.349074081,0.172222208,1,0,0,0,30,30,38,1,baai,images/br_baai.png,images/cb_baai.png,0,,,,,,,,,,,,,,,,,,,,,,
,,,,,00046,2023-10-03_19h55.21.647,vbt_B1_day3,2022.2.4,Win32,59.99880002,,,,,,down,0,6.7342,,-0.349074081,0.172222208,1,0,0,0,31,31,185,1,mijnheer,images/br_mijnheer.png,images/cb_mijnheer.png,0,,,,,,,,,,,,,,,,,,,,,,
,,,,,00046,2023-10-03_19h55.21.647,vbt_B1_day3,2022.2.4,Win32,59.99880002,,,,,,down,0,102.7531,,-0.349074081,0.172222208,1,0,0,0,32,32,44,1,flits,images/br_flits.png,images/cb_flits.png,0,,,,,,,,,,,,,,,,,,,,,,
,,,,,00046,2023-10-03_19h55.21.647,vbt_B1_day3,2022.2.4,Win32,59.99880002,,,,,,down,0,3.9071,,-0.349074081,0.172222208,1,0,0,0,33,33,32,1,palm,images/br_palm.png,images/cb_palm.png,0,,,,,,,,,,,,,,,,,,,,,,
,,,,,00046,2023-10-03_19h55.21.647,vbt_B1_day3,2022.2.4,Win32,59.99880002,,,,,,down,0,37.9271,,-0.349074081,0.172222208,1,0,0,0,34,34,8,1,knie,images/br_knie.png,images/cb_knie.png,0,,,,,,,,,,,,,,,,,,,,,,
,,,,,00046,2023-10-03_19h55.21.647,vbt_B1_day3,2022.2.4,Win32,59.99880002,,,,,,down,0,4.8263,,-0.349074081,0.172222208,1,0,0,0,35,35,109,1,totaal,images/br_totaal.png,images/cb_totaal.png,0,,,,,,,,,,,,,,,,,,,,,,
,,,,,00046,2023-10-03_19h55.21.647,vbt_B1_day3,2022.2.4,Win32,59.99880002,,,,,,down,0,58.8521,,-0.349074081,0.172222208,1,0,0,0,36,36,159,1,sufferd,images/br_sufferd.png,images/cb_sufferd.png,0,,,,,,,,,,,,,,,,,,,,,,
,,,,,00046,2023-10-03_19h55.21.647,vbt_B1_day3,2022.2.4,Win32,59.99880002,,,,,,down,0,26.0341,,-0.349074081,0.172222208,1,0,0,0,37,37,56,1,traag,images/br_traag.png,images/cb_traag.png,0,,,,,,,,,,,,,,,,,,,,,,
,,,,,00046,2023-10-03_19h55.21.647,vbt_B1_day3,2022.2.4,Win32,59.99880002,,,,,,down,0,113.3869,,-0.349074081,0.172222208,1,0,0,0,38,38,123,1,hiervan,images/br_hiervan.png,images/cb_hiervan.png,0,,,,,,,,,,,,,,,,,,,,,,
,,,,,00046,2023-10-03_19h55.21.647,vbt_B1_day3,2022.2.4,Win32,59.99880002,,,,,,down,0,42.9367,,-0.349074081,0.172222208,1,0,0,0,39,39,107,1,maling,images/br_maling.png,images/cb_maling.png,0,,,,,,,,,,,,,,,,,,,,,,
,,,,,00046,2023-10-03_19h55.21.647,vbt_B1_day3,2022.2.4,Win32,59.99880002,,,,,,down,0,261.6548,,-0.349074081,0.172222208,1,0,0,0,40,40,158,1,innemen,images/br_innemen.png,images/cb_innemen.png,0,,,,,,,,,,,,,,,,,,,,,,
,,,,,00046,2023-10-03_19h55.21.647,vbt_B1_day3,2022.2.4,Win32,59.99880002,,,,,,down,0,2.868,,-0.347222222,0.142592571,1,0,0,0,41,41,74,1,graaf,images/br_graaf.png,images/cb_graaf.png,0,,,,,,,,,,,,,,,,,,,,,,
,,,,,00046,2023-10-03_19h55.21.647,vbt_B1_day3,2022.2.4,Win32,59.99880002,,,,,,down,0,74.9168,,-0.347222222,0.142592571,1,0,0,0,42,42,164,1,anarchie,images/br_anarchie.png,images/cb_anarchie.png,0,,,,,,,,,,,,,,,,,,,,,,
,,,,,00046,2023-10-03_19h55.21.647,vbt_B1_day3,2022.2.4,Win32,59.99880002,,,,,,down,0,7.0764,,-0.347222222,0.142592571,1,0,0,0,43,43,181,1,toegeven,images/br_toegeven.png,images/cb_toegeven.png,1,toegeven,,,,,,,,,,,,,,,,,,,,,
,,,,,00046,2023-10-03_19h55.21.647,vbt_B1_day3,2022.2.4,Win32,59.99880002,,,,,,down,0,74.0471,,-0.328703704,-0.317592621,1,0,0,0,44,44,14,1,rijp,images/br_rijp.png,images/cb_rijp.png,0,,,,,,,,,,,,,,,,,,,,,,
,,,,,00046,2023-10-03_19h55.21.647,vbt_B1_day3,2022.2.4,Win32,59.99880002,,,,,,down,0,88.1536,,-0.328703704,-0.317592621,1,0,0,0,45,45,108,1,excuus,images/br_excuus.png,images/cb_excuus.png,0,,,,,,,,,,,,,,,,,,,,,,
,,,,,00046,2023-10-03_19h55.21.647,vbt_B1_day3,2022.2.4,Win32,59.99880002,,,,,,down,0,30.4226,,-0.328703704,-0.317592621,1,0,0,0,46,46,130,1,keihard,images/br_keihard.png,images/cb_keihard.png,0,,,,,,,,,,,,,,,,,,,,,,
,,,,,00046,2023-10-03_19h55.21.647,vbt_B1_day3,2022.2.4,Win32,59.99880002,,,,,,down,0,91.3186,,-0.324999986,-0.316666709,1,0,0,0,47,47,194,1,driemaal,images/br_driemaal.png,images/cb_driemaal.png,0,,,,,,,,,,,,,,,,,,,,,,
,,,,,00046,2023-10-03_19h55.21.647,vbt_B1_day3,2022.2.4,Win32,59.99880002,,,,,,down,0,127.0039,,-0.207407422,-0.154629672,1,0,0,0,48,48,175,1,heengaan,images/br_heengaan.png,images/cb_heengaan.png,0,,,,,,,,,,,,,,,,,,,,,,
,,,,,00046,2023-10-03_19h55.21.647,vbt_B1_day3,2022.2.4,Win32,59.99880002,,,,,,down,0,3.7221,,-0.207407422,-0.154629672,1,0,0,0,49,49,9,1,hier,images/br_hier.png,images/cb_hier.png,0,,,,,,,,,,,,,,,,,,,,,,
,,,,,00046,2023-10-03_19h55.21.647,vbt_B1_day3,2022.2.4,Win32,59.99880002,,,,,,down,0,57.7529,,-0.207407422,-0.154629672,1,0,0,0,50,50,132,1,grappen,images/br_grappen.png,images/cb_grappen.png,0,,,,,,,,,,,,,,,,,,,,,,
,,,,,00046,2023-10-03_19h55.21.647,vbt_B1_day3,2022.2.4,Win32,59.99880002,,,,,,down,0,2.2278,,-0.207407422,-0.154629672,1,0,0,0,51,51,57,1,steek,images/br_steek.png,images/cb_steek.png,0,,,,,,,,,,,,,,,,,,,,,,
,,,,,00046,2023-10-03_19h55.21.647,vbt_B1_day3,2022.2.4,Win32,59.99880002,,,,,,down,0,43.6872,,-0.207407422,-0.154629672,1,0,0,0,52,52,40,1,schep,images/br_schep.png,images/cb_schep.png,0,,,,,,,,,,,,,,,,,,,,,,
,,,,,00046,2023-10-03_19h55.21.647,vbt_B1_day3,2022.2.4,Win32,59.99880002,,,,,,down,0,61.386,,-0.207407422,-0.154629672,1,0,0,0,53,53,129,1,verhaal,images/br_verhaal.png,images/cb_verhaal.png,0,,,,,,,,,,,,,,,,,,,,,,
,,,,,00046,2023-10-03_19h55.21.647,vbt_B1_day3,2022.2.4,Win32,59.99880002,,,,,,down,0,12.8426,,0.887963048,0.5,1,0,0,0,54,54,63,1,flirt,images/br_flirt.png,images/cb_flirt.png,1,flirt,,,,,,,,,,,,,,,,,,,,,
,,,,,00046,2023-10-03_19h55.21.647,vbt_B1_day3,2022.2.4,Win32,59.99880002,,,,,,down,0,176.2698,,0.795370455,0.422222217,1,0,0,0,55,55,146,1,opkomen,images/br_opkomen.png,images/cb_opkomen.png,0,,,,,,,,,,,,,,,,,,,,,,
,,,,,00046,2023-10-03_19h55.21.647,vbt_B1_day3,2022.2.4,Win32,59.99880002,,,,,,down,0,12.6718,,0.795370455,0.422222217,1,0,0,0,56,56,23,1,zout,images/br_zout.png,images/cb_zout.png,1,zout,,,,,,,,,,,,,,,,,,,,,
,,,,,00046,2023-10-03_19h55.21.647,vbt_B1_day3,2022.2.4,Win32,59.99880002,,,,,,down,0,7.867,,0.795370455,0.422222217,1,0,0,0,57,57,179,1,woestijn,images/br_woestijn.png,images/cb_woestijn.png,0,,,,,,,,,,,,,,,,,,,,,,
,,,,,00046,2023-10-03_19h55.21.647,vbt_B1_day3,2022.2.4,Win32,59.99880002,,,,,,down,0,17.5739,,0.795370455,0.422222217,1,0,0,0,58,58,174,1,stemming,images/br_stemming.png,images/cb_stemming.png,0,,,,,,,,,,,,,,,,,,,,,,
,,,,,00046,2023-10-03_19h55.21.647,vbt_B1_day3,2022.2.4,Win32,59.99880002,,,,,,down,0,3.6426,,0.795370455,0.422222217,1,0,0,0,59,59,49,1,laken,images/br_laken.png,images/cb_laken.png,0,,,,,,,,,,,,,,,,,,,,,,
,,,,,00046,2023-10-03_19h55.21.647,vbt_B1_day3,2022.2.4,Win32,59.99880002,,,,,,down,0,10.2005,,0.795370455,0.422222217,1,0,0,0,60,60,172,1,weigeren,images/br_weigeren.png,images/cb_weigeren.png,0,,,,,,,,,,,,,,,,,,,,,,
,,,,,00046,2023-10-03_19h55.21.647,vbt_B1_day3,2022.2.4,Win32,59.99880002,,,,,,down,0,48.8509,,0.795370455,0.422222217,1,0,0,0,61,61,193,1,weeshuis,images/br_weeshuis.png,images/cb_weeshuis.png,0,,,,,,,,,,,,,,,,,,,,,,
,,,,,00046,2023-10-03_19h55.21.647,vbt_B1_day3,2022.2.4,Win32,59.99880002,,,,,,down,0,24.3737,,0.795370455,0.422222217,1,0,0,0,62,62,165,1,feestdag,images/br_feestdag.png,images/cb_feestdag.png,0,,,,,,,,,,,,,,,,,,,,,,
,,,,,00046,2023-10-03_19h55.21.647,vbt_B1_day3,2022.2.4,Win32,59.99880002,,,,,,down,0,2.5552,,0.795370455,0.422222217,1,0,0,0,63,63,21,1,mist,images/br_mist.png,images/cb_mist.png,1,mist,,,,,,,,,,,,,,,,,,,,,
,,,,,00046,2023-10-03_19h55.21.647,vbt_B1_day3,2022.2.4,Win32,59.99880002,,,,,,down,0,4.4702,,0.795370455,0.422222217,1,0,0,0,64,64,10,1,leek,images/br_leek.png,images/cb_leek.png,0,,,,,,,,,,,,,,,,,,,,,,
,,,,,00046,2023-10-03_19h55.21.647,vbt_B1_day3,2022.2.4,Win32,59.99880002,,,,,,down,0,7.6409,,0.795370455,0.422222217,1,0,0,0,65,65,119,1,liefje,images/br_liefje.png,images/cb_liefje.png,0,,,,,,,,,,,,,,,,,,,,,,
,,,,,00046,2023-10-03_19h55.21.647,vbt_B1_day3,2022.2.4,Win32,59.99880002,,,,,,down,0,4.2187,,0.795370455,0.422222217,1,0,0,0,66,66,5,1,blad,images/br_blad.png,images/cb_blad.png,0,,,,,,,,,,,,,,,,,,,,,,
,,,,,00046,2023-10-03_19h55.21.647,vbt_B1_day3,2022.2.4,Win32,59.99880002,,,,,,down,0,8.6217,,0.795370455,0.422222217,1,0,0,0,67,67,125,1,aanzien,images/br_aanzien.png,images/cb_aanzien.png,0,,,,,,,,,,,,,,,,,,,,,,
,,,,,00046,2023-10-03_19h55.21.647,vbt_B1_day3,2022.2.4,Win32,59.99880002,,,,,,down,0,3.5819,,0.795370455,0.422222217,1,0,0,0,68,68,73,1,volop,images/br_volop.png,images/cb_volop.png,0,,,,,,,,,,,,,,,,,,,,,,
,,,,,00046,2023-10-03_19h55.21.647,vbt_B1_day3,2022.2.4,Win32,59.99880002,,,,,,down,0,25.716,,0.795370455,0.422222217,1,0,0,0,69,69,47,1,kabel,images/br_kabel.png,images/cb_kabel.png,0,,,,,,,,,,,,,,,,,,,,,,
,,,,,00046,2023-10-03_19h55.21.647,vbt_B1_day3,2022.2.4,Win32,59.99880002,,,,,,down,0,7.1838,,0.795370455,0.422222217,1,0,0,0,70,70,11,1,mode,images/br_mode.png,images/cb_mode.png,0,,,,,,,,,,,,,,,,,,,,,,
,,,,,00046,2023-10-03_19h55.21.647,vbt_B1_day3,2022.2.4,Win32,59.99880002,,,,,,down,0,53.5185,,0.795370455,0.422222217,1,0,0,0,71,71,70,1,ijdel,images/br_ijdel.png,images/cb_ijdel.png,0,,,,,,,,,,,,,,,,,,,,,,
,,,,,00046,2023-10-03_19h55.21.647,vbt_B1_day3,2022.2.4,Win32,59.99880002,,,,,,down,0,2.6077,,0.622222194,0.128703683,1,0,0,0,72,72,97,1,loyaal,images/br_loyaal.png,images/cb_loyaal.png,0,,,,,,,,,,,,,,,,,,,,,,
,,,,,00046,2023-10-03_19h55.21.647,vbt_B1_day3,2022.2.4,Win32,59.99880002,,,,,,down,0,6.2009,,0.622222194,0.128703683,1,0,0,0,73,73,176,1,techniek,images/br_techniek.png,images/cb_techniek.png,0,,,,,,,,,,,,,,,,,,,,,,
,,,,,00046,2023-10-03_19h55.21.647,vbt_B1_day3,2022.2.4,Win32,59.99880002,,,,,,down,0,11.7827,,0.622222194,0.128703683,1,0,0,0,74,74,141,1,knielen,images/br_knielen.png,images/cb_knielen.png,1,knielen,,,,,,,,,,,,,,,,,,,,,
,,,,,00046,2023-10-03_19h55.21.647,vbt_B1_day3,2022.2.4,Win32,59.99880002,,,,,,down,0,4.9817,,0.622222194,0.128703683,1,0,0,0,75,75,72,1,strak,images/br_strak.png,images/cb_strak.png,0,,,,,,,,,,,,,,,,,,,,,,
,,,,,00046,2023-10-03_19h55.21.647,vbt_B1_day3,2022.2.4,Win32,59.99880002,,,,,,down,0,8.5576,,0.622222194,0.128703683,1,0,0,0,76,76,77,1,woede,images/br_woede.png,images/cb_woede.png,0,,,,,,,,,,,,,,,,,,,,,,
,,,,,00046,2023-10-03_19h55.21.647,vbt_B1_day3,2022.2.4,Win32,59.99880002,,,,,,down,0,21.6713,,0.622222194,0.128703683,1,0,0,0,77,77,184,1,aandelen,images/br_aandelen.png,images/cb_aandelen.png,0,,,,,,,,,,,,,,,,,,,,,,
,,,,,00046,2023-10-03_19h55.21.647,vbt_B1_day3,2022.2.4,Win32,59.99880002,,,,,,down,0,231.8329,,0.73518527,-0.064814815,1,0,0,0,78,78,4,1,moes,images/br_moes.png,images/cb_moes.png,0,,,,,,,,,,,,,,,,,,,,,,
,,,,,00046,2023-10-03_19h55.21.647,vbt_B1_day3,2022.2.4,Win32,59.99880002,,,,,,down,0,5.9148,,0.73518527,-0.064814815,1,0,0,0,79,79,3,1,mand,images/br_mand.png,images/cb_mand.png,0,,,,,,,,,,,,,,,,,,,,,,
,,,,,00046,2023-10-03_19h55.21.647,vbt_B1_day3,2022.2.4,Win32,59.99880002,,,,,,down,0,4.8793,,0.73518527,-0.064814815,1,0,0,0,80,80,142,1,snuiven,images/br_snuiven.png,images/cb_snuiven.png,1,snuiven,,,,,,,,,,,,,,,,,,,,,
,,,,,00046,2023-10-03_19h55.21.647,vbt_B1_day3,2022.2.4,Win32,59.99880002,,,,,,down,0,11.9514,,0.73518527,-0.064814815,1,0,0,0,81,81,45,1,piste,images/br_piste.png,images/cb_piste.png,0,,,,,,,,,,,,,,,,,,,,,,
,,,,,00046,2023-10-03_19h55.21.647,vbt_B1_day3,2022.2.4,Win32,59.99880002,,,,,,down,0,12.644,,0.73518527,-0.064814815,1,0,0,0,82,82,145,1,invloed,images/br_invloed.png,images/cb_invloed.png,0,,,,,,,,,,,,,,,,,,,,,,
,,,,,00046,2023-10-03_19h55.21.647,vbt_B1_day3,2022.2.4,Win32,59.99880002,,,,,,down,0,11.7241,,0.73518527,-0.064814815,1,0,0,0,83,83,117,1,kennis,images/br_kennis.png,images/cb_kennis.png,0,,,,,,,,,,,,,,,,,,,,,,
,,,,,00046,2023-10-03_19h55.21.647,vbt_B1_day3,2022.2.4,Win32,59.99880002,,,,,,down,0,9.8926,,0.73518527,-0.064814815,1,0,0,0,84,84,148,1,smullen,images/br_smullen.png,images/cb_smullen.png,0,,,,,,,,,,,,,,,,,,,,,,
,,,,,00046,2023-10-03_19h55.21.647,vbt_B1_day3,2022.2.4,Win32,59.99880002,,,,,,down,0,5.2587,,0.73518527,-0.064814815,1,0,0,0,85,85,183,1,getuigen,images/br_getuigen.png,images/cb_getuigen.png,1,getuigen,,,,,,,,,,,,,,,,,,,,,
,,,,,00046,2023-10-03_19h55.21.647,vbt_B1_day3,2022.2.4,Win32,59.99880002,,,,,,down,0,12.3685,,0.73518527,-0.064814815,1,0,0,0,86,86,59,1,kring,images/br_kring.png,images/cb_kring.png,0,,,,,,,,,,,,,,,,,,,,,,
,,,,,00046,2023-10-03_19h55.21.647,vbt_B1_day3,2022.2.4,Win32,59.99880002,,,,,,down,0,41.3256,,0.73518527,-0.064814815,1,0,0,0,87,87,186,1,voorraad,images/br_voorraad.png,images/cb_voorraad.png,0,,,,,,,,,,,,,,,,,,,,,,
,,,,,00046,2023-10-03_19h55.21.647,vbt_B1_day3,2022.2.4,Win32,59.99880002,,,,,,down,0,8.1555,,0.73518527,-0.064814815,1,0,0,0,88,88,180,1,openbaar,images/br_openbaar.png,images/cb_openbaar.png,1,openbaar,,,,,,,,,,,,,,,,,,,,,
,,,,,00046,2023-10-03_19h55.21.647,vbt_B1_day3,2022.2.4,Win32,59.99880002,,,,,,down,0,2.1974,,0.73518527,-0.064814815,1,0,0,0,89,89,42,1,bleek,images/br_bleek.png,images/cb_bleek.png,0,,,,,,,,,,,,,,,,,,,,,,
,,,,,00046,2023-10-03_19h55.21.647,vbt_B1_day3,2022.2.4,Win32,59.99880002,,,,,,down,0,6.6172,,0.73518527,-0.064814815,1,0,0,0,90,90,150,1,gegeven,images/br_gegeven.png,images/cb_gegeven.png,0,,,,,,,,,,,,,,,,,,,,,,
,,,,,00046,2023-10-03_19h55.21.647,vbt_B1_day3,2022.2.4,Win32,59.99880002,,,,,,down,0,6.6982,,0.73518527,-0.064814815,1,0,0,0,91,91,136,1,waarbij,images/br_waarbij.png,images/cb_waarbij.png,0,,,,,,,,,,,,,,,,,,,,,,
,,,,,00046,2023-10-03_19h55.21.647,vbt_B1_day3,2022.2.4,Win32,59.99880002,,,,,,down,0,34.669,,0.73518527,-0.064814815,1,0,0,0,92,92,147,1,komisch,images/br_komisch.png,images/cb_komisch.png,0,,,,,,,,,,,,,,,,,,,,,,
,,,,,00046,2023-10-03_19h55.21.647,vbt_B1_day3,2022.2.4,Win32,59.99880002,,,,,,down,0,12.8142,,0.73518527,-0.064814815,1,0,0,0,93,93,99,1,koffie,images/br_koffie.png,images/cb_koffie.png,0,,,,,,,,,,,,,,,,,,,,,,
,,,,,00046,2023-10-03_19h55.21.647,vbt_B1_day3,2022.2.4,Win32,59.99880002,,,,,,down,0,18.7391,,0.73518527,-0.064814815,1,0,0,0,94,94,124,1,bloeien,images/br_bloeien.png,images/cb_bloeien.png,0,,,,,,,,,,,,,,,,,,,,,,
,,,,,00046,2023-10-03_19h55.21.647,vbt_B1_day3,2022.2.4,Win32,59.99880002,,,,,,down,0,19.0638,,0.73518527,-0.064814815,1,0,0,0,95,95,55,1,praat,images/br_praat.png,images/cb_praat.png,0,,,,,,,,,,,,,,,,,,,,,,
,,,,,00046,2023-10-03_19h55.21.647,vbt_B1_day3,2022.2.4,Win32,59.99880002,,,,,,down,0,36.8957,,0.73518527,-0.064814815,1,0,0,0,96,96,160,1,daarheen,images/br_daarheen.png,images/cb_daarheen.png,0,,,,,,,,,,,,,,,,,,,,,,
,,,,,00046,2023-10-03_19h55.21.647,vbt_B1_day3,2022.2.4,Win32,59.99880002,,,,,,down,0,0.2502,,0.73518527,-0.064814815,1,0,0,0,97,97,137,1,trekker,images/br_trekker.png,images/cb_trekker.png,0,,,,,,,,,,,,,,,,,,,,,,
,,,,,00046,2023-10-03_19h55.21.647,vbt_B1_day3,2022.2.4,Win32,59.99880002,,,,,,down,0,0.7774,,0.73518527,-0.064814815,1,0,0,0,98,98,12,1,kust,images/br_kust.png,images/cb_kust.png,0,,,,,,,,,,,,,,,,,,,,,,
,,,,,00046,2023-10-03_19h55.21.647,vbt_B1_day3,2022.2.4,Win32,59.99880002,,,,,,down,0,0.7959,,0.73518527,-0.064814815,1,0,0,0,99,99,87,1,toeval,images/br_toeval.png,images/cb_toeval.png,0,,,,,,,,,,,,,,,,,,,,,,
,,,,,00046,2023-10-03_19h55.21.647,vbt_B1_day3,2022.2.4,Win32,59.99880002,,,,,,down,0,9.6734,,0.73518527,-0.064814815,1,0,0,0,100,100,189,1,aanraden,images/br_aanraden.png,images/cb_aanraden.png,0,,,,,,,,,,,,,,,,,,,,,,
,,,,,00046,2023-10-03_19h55.21.647,vbt_B1_day3,2022.2.4,Win32,59.99880002,,,,,,down,0,2.6842,,0.73518527,-0.064814815,1,0,0,0,101,101,19,1,geit,images/br_geit.png,images/cb_geit.png,0,,,,,,,,,,,,,,,,,,,,,,
,,,,,00046,2023-10-03_19h55.21.647,vbt_B1_day3,2022.2.4,Win32,59.99880002,,,,,,down,0,50.339,,0.73518527,-0.064814815,1,0,0,0,102,102,89,1,slapen,images/br_slapen.png,images/cb_slapen.png,0,,,,,,,,,,,,,,,,,,,,,,
,,,,,00046,2023-10-03_19h55.21.647,vbt_B1_day3,2022.2.4,Win32,59.99880002,,,,,,down,0,14.9765,,0.73518527,-0.064814815,1,0,0,0,103,103,152,1,afnemen,images/br_afnemen.png,images/cb_afnemen.png,0,,,,,,,,,,,,,,,,,,,,,,
,,,,,00046,2023-10-03_19h55.21.647,vbt_B1_day3,2022.2.4,Win32,59.99880002,,,,,,down,0,3.2167,,0.73518527,-0.064814815,1,0,0,0,104,104,122,1,waarvan,images/br_waarvan.png,images/cb_waarvan.png,0,,,,,,,,,,,,,,,,,,,,,,
,,,,,00046,2023-10-03_19h55.21.647,vbt_B1_day3,2022.2.4,Win32,59.99880002,,,,,,down,0,5.6374,,0.73518527,-0.064814815,1,0,0,0,105,105,169,1,oprotten,images/br_oprotten.png,images/cb_oprotten.png,0,,,,,,,,,,,,,,,,,,,,,,
,,,,,00046,2023-10-03_19h55.21.647,vbt_B1_day3,2022.2.4,Win32,59.99880002,,,,,,down,0,5.0336,,0.73518527,-0.064814815,1,0,0,0,106,106,101,1,staren,images/br_staren.png,images/cb_staren.png,1,staren,,,,,,,,,,,,,,,,,,,,,
,,,,,00046,2023-10-03_19h55.21.647,vbt_B1_day3,2022.2.4,Win32,59.99880002,,,,,,down,0,10.0416,,0.73518527,-0.064814815,1,0,0,0,107,107,60,1,jasje,images/br_jasje.png,images/cb_jasje.png,1,jasje,,,,,,,,,,,,,,,,,,,,,
,,,,,00046,2023-10-03_19h55.21.647,vbt_B1_day3,2022.2.4,Win32,59.99880002,,,,,,down,0,6.954,,0.73518527,-0.064814815,1,0,0,0,108,108,84,1,lokken,images/br_lokken.png,images/cb_lokken.png,0,,,,,,,,,,,,,,,,,,,,,,
,,,,,00046,2023-10-03_19h55.21.647,vbt_B1_day3,2022.2.4,Win32,59.99880002,,,,,,down,0,3.2993,,0.73518527,-0.064814815,1,0,0,0,109,109,1,1,zaal,images/br_zaal.png,images/cb_zaal.png,0,,,,,,,,,,,,,,,,,,,,,,
,,,,,00046,2023-10-03_19h55.21.647,vbt_B1_day3,2022.2.4,Win32,59.99880002,,,,,,down,0,2.9518,,0.73518527,-0.064814815,1,0,0,0,110,110,31,1,poes,images/br_poes.png,images/cb_poes.png,0,,,,,,,,,,,,,,,,,,,,,,
,,,,,00046,2023-10-03_19h55.21.647,vbt_B1_day3,2022.2.4,Win32,59.99880002,,,,,,down,0,4.2352,,0.73518527,-0.064814815,1,0,0,0,111,111,100,1,geduld,images/br_geduld.png,images/cb_geduld.png,1,geduld,,,,,,,,,,,,,,,,,,,,,
,,,,,00046,2023-10-03_19h55.21.647,vbt_B1_day3,2022.2.4,Win32,59.99880002,,,,,,down,0,14.0593,,0.73518527,-0.064814815,1,0,0,0,112,112,111,1,ticket,images/br_ticket.png,images/cb_ticket.png,0,,,,,,,,,,,,,,,,,,,,,,
,,,,,00046,2023-10-03_19h55.21.647,vbt_B1_day3,2022.2.4,Win32,59.99880002,,,,,,down,0,4.9559,,0.73518527,-0.064814815,1,0,0,0,113,113,116,1,besmet,images/br_besmet.png,images/cb_besmet.png,0,,,,,,,,,,,,,,,,,,,,,,
,,,,,00046,2023-10-03_19h55.21.647,vbt_B1_day3,2022.2.4,Win32,59.99880002,,,,,,down,0,40.068,,0.73518527,-0.064814815,1,0,0,0,114,114,163,1,schuilen,images/br_schuilen.png,images/cb_schuilen.png,0,,,,,,,,,,,,,,,,,,,,,,
,,,,,00046,2023-10-03_19h55.21.647,vbt_B1_day3,2022.2.4,Win32,59.99880002,,,,,,down,0,16.6357,,0.73518527,-0.064814815,1,0,0,0,115,115,191,1,opheffen,images/br_opheffen.png,images/cb_opheffen.png,0,,,,,,,,,,,,,,,,,,,,,,
,,,,,00046,2023-10-03_19h55.21.647,vbt_B1_day3,2022.2.4,Win32,59.99880002,,,,,,down,0,5.0852,,0.73518527,-0.064814815,1,0,0,0,116,116,65,1,parel,images/br_parel.png,images/cb_parel.png,0,,,,,,,,,,,,,,,,,,,,,,
,,,,,00046,2023-10-03_19h55.21.647,vbt_B1_day3,2022.2.4,Win32,59.99880002,,,,,,down,0,17.3614,,0.73518527,-0.064814815,1,0,0,0,117,117,58,1,tekst,images/br_tekst.png,images/cb_tekst.png,0,,,,,,,,,,,,,,,,,,,,,,
,,,,,00046,2023-10-03_19h55.21.647,vbt_B1_day3,2022.2.4,Win32,59.99880002,,,,,,down,0,5.4562,,0.73518527,-0.064814815,1,0,0,0,118,118,167,1,eenhoorn,images/br_eenhoorn.png,images/cb_eenhoorn.png,0,,,,,,,,,,,,,,,,,,,,,,
,,,,,00046,2023-10-03_19h55.21.647,vbt_B1_day3,2022.2.4,Win32,59.99880002,,,,,,down,0,8.3216,,0.73518527,-0.064814815,1,0,0,0,119,119,197,1,spanning,images/br_spanning.png,images/cb_spanning.png,0,,,,,,,,,,,,,,,,,,,,,,
,,,,,00046,2023-10-03_19h55.21.647,vbt_B1_day3,2022.2.4,Win32,59.99880002,,,,,,down,0,7.6939,,0.73518527,-0.064814815,1,0,0,0,120,120,64,1,wegen,images/br_wegen.png,images/cb_wegen.png,0,,,,,,,,,,,,,,,,,,,,,,
,,,,,00046,2023-10-03_19h55.21.647,vbt_B1_day3,2022.2.4,Win32,59.99880002,,,,,,down,0,10.5183,,0.73518527,-0.064814815,1,0,0,0,121,121,196,1,nakijken,images/br_nakijken.png,images/cb_nakijken.png,0,,,,,,,,,,,,,,,,,,,,,,
,,,,,00046,2023-10-03_19h55.21.647,vbt_B1_day3,2022.2.4,Win32,59.99880002,,,,,,down,0,3.7778,,0.73518527,-0.064814815,1,0,0,0,122,122,17,1,taal,images/br_taal.png,images/cb_taal.png,0,,,,,,,,,,,,,,,,,,,,,,
,,,,,00046,2023-10-03_19h55.21.647,vbt_B1_day3,2022.2.4,Win32,59.99880002,,,,,,down,0,3.8553,,0.73518527,-0.064814815,1,0,0,0,123,123,69,1,waken,images/br_waken.png,images/cb_waken.png,0,,,,,,,,,,,,,,,,,,,,,,
,,,,,00046,2023-10-03_19h55.21.647,vbt_B1_day3,2022.2.4,Win32,59.99880002,,,,,,down,0,3.8355,,0.73518527,-0.064814815,1,0,0,0,124,124,102,1,legaal,images/br_legaal.png,images/cb_legaal.png,1,legaal,,,,,,,,,,,,,,,,,,,,,
,,,,,00046,2023-10-03_19h55.21.647,vbt_B1_day3,2022.2.4,Win32,59.99880002,,,,,,down,0,49.5357,,0.73518527,-0.064814815,1,0,0,0,125,125,138,1,akkoord,images/br_akkoord.png,images/cb_akkoord.png,0,,,,,,,,,,,,,,,,,,,,,,
,,,,,00046,2023-10-03_19h55.21.647,vbt_B1_day3,2022.2.4,Win32,59.99880002,,,,,,down,0,3.6875,,0.738888917,-0.064814815,1,0,0,0,126,126,76,1,afval,images/br_afval.png,images/cb_afval.png,0,,,,,,,,,,,,,,,,,,,,,,
,,,,,00046,2023-10-03_19h55.21.647,vbt_B1_day3,2022.2.4,Win32,59.99880002,,,,,,down,0,8.3155,,0.738888917,-0.064814815,1,0,0,0,127,127,143,1,hechten,images/br_hechten.png,images/cb_hechten.png,1,hechten,,,,,,,,,,,,,,,,,,,,,
,,,,,00046,2023-10-03_19h55.21.647,vbt_B1_day3,2022.2.4,Win32,59.99880002,,,,,,down,0,5.2226,,0.738888917,-0.064814815,1,0,0,0,128,128,36,1,vuur,images/br_vuur.png,images/cb_vuur.png,0,,,,,,,,,,,,,,,,,,,,,,
,,,,,00046,2023-10-03_19h55.21.647,vbt_B1_day3,2022.2.4,Win32,59.99880002,,,,,,down,0,16.8525,,0.738888917,-0.064814815,1,0,0,0,129,129,171,1,aarzelen,images/br_aarzelen.png,images/cb_aarzelen.png,0,,,,,,,,,,,,,,,,,,,,,,
,,,,,00046,2023-10-03_19h55.21.647,vbt_B1_day3,2022.2.4,Win32,59.99880002,,,,,,down,0,6.5346,,0.738888917,-0.064814815,1,0,0,0,130,130,126,1,kasteel,images/br_kasteel.png,images/cb_kasteel.png,0,,,,,,,,,,,,,,,,,,,,,,
,,,,,00046,2023-10-03_19h55.21.647,vbt_B1_day3,2022.2.4,Win32,59.99880002,,,,,,down,0,20.3348,,0.738888917,-0.064814815,1,0,0,0,131,131,94,1,oceaan,images/br_oceaan.png,images/cb_oceaan.png,0,,,,,,,,,,,,,,,,,,,,,,
,,,,,00046,2023-10-03_19h55.21.647,vbt_B1_day3,2022.2.4,Win32,59.99880002,,,,,,down,0,5.6378,,0.738888917,-0.064814815,1,0,0,0,132,132,195,1,middelen,images/br_middelen.png,images/cb_middelen.png,0,,,,,,,,,,,,,,,,,,,,,,
,,,,,00046,2023-10-03_19h55.21.647,vbt_B1_day3,2022.2.4,Win32,59.99880002,,,,,,down,0,9.0776,,0.738888917,-0.064814815,1,0,0,0,133,133,6,1,diep,images/br_diep.png,images/cb_diep.png,0,,,,,,,,,,,,,,,,,,,,,,
,,,,,00046,2023-10-03_19h55.21.647,vbt_B1_day3,2022.2.4,Win32,59.99880002,,,,,,down,0,1.2852,,0.738888917,-0.064814815,1,0,0,0,134,134,13,1,kaal,images/br_kaal.png,images/cb_kaal.png,0,,,,,,,,,,,,,,,,,,,,,,
,,,,,00046,2023-10-03_19h55.21.647,vbt_B1_day3,2022.2.4,Win32,59.99880002,,,,,,down,0,1.9329,,0.738888917,-0.064814815,1,0,0,0,135,135,68,1,schat,images/br_schat.png,images/cb_schat.png,0,,,,,,,,,,,,,,,,,,,,,,
,,,,,00046,2023-10-03_19h55.21.647,vbt_B1_day3,2022.2.4,Win32,59.99880002,,,,,,down,0,4.2952,,0.738888917,-0.064814815,1,0,0,0,136,136,151,1,aanzoek,images/br_aanzoek.png,images/cb_aanzoek.png,0,,,,,,,,,,,,,,,,,,,,,,
,,,,,00046,2023-10-03_19h55.21.647,vbt_B1_day3,2022.2.4,Win32,59.99880002,,,,,,down,0,17.1904,,0.738888917,-0.064814815,1,0,0,0,137,137,144,1,eetlust,images/br_eetlust.png,images/cb_eetlust.png,0,,,,,,,,,,,,,,,,,,,,,,
,,,,,00046,2023-10-03_19h55.21.647,vbt_B1_day3,2022.2.4,Win32,59.99880002,,,,,,down,0,8.4185,,0.738888917,-0.064814815,1,0,0,0,138,138,82,1,muziek,images/br_muziek.png,images/cb_muziek.png,0,,,,,,,,,,,,,,,,,,,,,,
,,,,,00046,2023-10-03_19h55.21.647,vbt_B1_day3,2022.2.4,Win32,59.99880002,,,,,,down,0,10.5357,,0.738888917,-0.064814815,1,0,0,0,139,139,131,1,opzicht,images/br_opzicht.png,images/cb_opzicht.png,0,,,,,,,,,,,,,,,,,,,,,,
,,,,,00046,2023-10-03_19h55.21.647,vbt_B1_day3,2022.2.4,Win32,59.99880002,,,,,,down,0,9.4196,,0.738888917,-0.064814815,1,0,0,0,140,140,113,1,koppen,images/br_koppen.png,images/cb_koppen.png,0,,,,,,,,,,,,,,,,,,,,,,
,,,,,00046,2023-10-03_19h55.21.647,vbt_B1_day3,2022.2.4,Win32,59.99880002,,,,,,down,0,9.5338,,0.738888917,-0.064814815,1,0,0,0,141,141,15,1,soda,images/br_soda.png,images/cb_soda.png,0,,,,,,,,,,,,,,,,,,,,,,
,,,,,00046,2023-10-03_19h55.21.647,vbt_B1_day3,2022.2.4,Win32,59.99880002,,,,,,down,0,6.6264,,0.747222194,-0.067592586,1,0,0,0,142,142,199,1,beseffen,images/br_beseffen.png,images/cb_beseffen.png,0,,,,,,,,,,,,,,,,,,,,,,
,,,,,00046,2023-10-03_19h55.21.647,vbt_B1_day3,2022.2.4,Win32,59.99880002,,,,,,down,0,24.7713,,0.747222194,-0.067592586,1,0,0,0,143,143,29,1,baas,images/br_baas.png,images/cb_baas.png,0,,,,,,,,,,,,,,,,,,,,,,
,,,,,00046,2023-10-03_19h55.21.647,vbt_B1_day3,2022.2.4,Win32,59.99880002,,,,,,down,0,14.3019,,0.747222194,-0.067592586,1,0,0,0,144,144,178,1,huisdier,images/br_huisdier.png,images/cb_huisdier.png,0,,,,,,,,,,,,,,,,,,,,,,
,,,,,00046,2023-10-03_19h55.21.647,vbt_B1_day3,2022.2.4,Win32,59.99880002,,,,,,down,0,2.4845,,0.747222194,-0.067592586,1,0,0,0,145,145,7,1,geld,images/br_geld.png,images/cb_geld.png,0,,,,,,,,,,,,,,,,,,,,,,
,,,,,00046,2023-10-03_19h55.21.647,vbt_B1_day3,2022.2.4,Win32,59.99880002,,,,,,down,0,5.7675,,0.747222194,-0.067592586,1,0,0,0,146,146,95,1,vreten,images/br_vreten.png,images/cb_vreten.png,0,,,,,,,,,,,,,,,,,,,,,,
,,,,,00046,2023-10-03_19h55.21.647,vbt_B1_day3,2022.2.4,Win32,59.99880002,,,,,,down,0,6.1028,,0.747222194,-0.067592586,1,0,0,0,147,147,118,1,vinger,images/br_vinger.png,images/cb_vinger.png,0,,,,,,,,,,,,,,,,,,,,,,
,,,,,00046,2023-10-03_19h55.21.647,vbt_B1_day3,2022.2.4,Win32,59.99880002,,,,,,down,0,0.3161,,0.747222194,-0.067592586,1,0,0,0,148,148,0,1,slak,images/br_slak.png,images/cb_slak.png,0,,,,,,,,,,,,,,,,,,,,,,
,,,,,00046,2023-10-03_19h55.21.647,vbt_B1_day3,2022.2.4,Win32,59.99880002,,,,,,down,0,21.752,,0.747222194,-0.067592586,1,0,0,0,149,149,88,1,boeien,images/br_boeien.png,images/cb_boeien.png,0,,,,,,,,,,,,,,,,,,,,,,
,,,,,00046,2023-10-03_19h55.21.647,vbt_B1_day3,2022.2.4,Win32,59.99880002,,,,,,down,0,17.0536,,0.747222194,-0.067592586,1,0,0,0,150,150,83,1,mening,images/br_mening.png,images/cb_mening.png,0,,,,,,,,,,,,,,,,,,,,,,
,,,,,00046,2023-10-03_19h55.21.647,vbt_B1_day3,2022.2.4,Win32,59.99880002,,,,,,down,0,4.6734,,0.747222194,-0.067592586,1,0,0,0,151,151,140,1,blijven,images/br_blijven.png,images/cb_blijven.png,1,blijven,,,,,,,,,,,,,,,,,,,,,
,,,,,00046,2023-10-03_19h55.21.647,vbt_B1_day3,2022.2.4,Win32,59.99880002,,,,,,down,0,21.3892,,0.747222194,-0.067592586,1,0,0,0,152,152,41,1,maken,images/br_maken.png,images/cb_maken.png,0,,,,,,,,,,,,,,,,,,,,,,
,,,,,00046,2023-10-03_19h55.21.647,vbt_B1_day3,2022.2.4,Win32,59.99880002,,,,,,down,0,1.8668,,0.747222194,-0.067592586,1,0,0,0,153,153,79,1,nodig,images/br_nodig.png,images/cb_nodig.png,0,,,,,,,,,,,,,,,,,,,,,,
,,,,,00046,2023-10-03_19h55.21.647,vbt_B1_day3,2022.2.4,Win32,59.99880002,,,,,,down,0,5.2847,,0.747222194,-0.067592586,1,0,0,0,154,154,135,1,gedicht,images/br_gedicht.png,images/cb_gedicht.png,0,,,,,,,,,,,,,,,,,,,,,,
,,,,,00046,2023-10-03_19h55.21.647,vbt_B1_day3,2022.2.4,Win32,59.99880002,,,,,,down,0,3.1927,,0.747222194,-0.067592586,1,0,0,0,155,155,91,1,gezond,images/br_gezond.png,images/cb_gezond.png,0,,,,,,,,,,,,,,,,,,,,,,
,,,,,00046,2023-10-03_19h55.21.647,vbt_B1_day3,2022.2.4,Win32,59.99880002,,,,,,down,0,3.9662,,0.747222194,-0.067592586,1,0,0,0,156,156,20,1,site,images/br_site.png,images/cb_site.png,1,site,,,,,,,,,,,,,,,,,,,,,
,,,,,00046,2023-10-03_19h55.21.647,vbt_B1_day3,2022.2.4,Win32,59.99880002,,,,,,down,0,16.6592,,0.747222194,-0.067592586,1,0,0,0,157,157,177,1,maaltijd,images/br_maaltijd.png,images/cb_maaltijd.png,0,,,,,,,,,,,,,,,,,,,,,,
,,,,,00046,2023-10-03_19h55.21.647,vbt_B1_day3,2022.2.4,Win32,59.99880002,,,,,,down,0,5.5516,,0.747222194,-0.067592586,1,0,0,0,158,158,188,1,strekken,images/br_strekken.png,images/cb_strekken.png,0,,,,,,,,,,,,,,,,,,,,,,
,,,,,00046,2023-10-03_19h55.21.647,vbt_B1_day3,2022.2.4,Win32,59.99880002,,,,,,down,0,10.5894,,0.747222194,-0.067592586,1,0,0,0,159,159,127,1,doodmoe,images/br_doodmoe.png,images/cb_doodmoe.png,0,,,,,,,,,,,,,,,,,,,,,,
,,,,,00046,2023-10-03_19h55.21.647,vbt_B1_day3,2022.2.4,Win32,59.99880002,,,,,,down,0,2.085,,0.747222194,-0.067592586,1,0,0,0,160,160,2,1,jaar,images/br_jaar.png,images/cb_jaar.png,0,,,,,,,,,,,,,,,,,,,,,,
,,,,,00046,2023-10-03_19h55.21.647,vbt_B1_day3,2022.2.4,Win32,59.99880002,,,,,,down,0,2.0624,,0.747222194,-0.067592586,1,0,0,0,161,161,43,1,klauw,images/br_klauw.png,images/cb_klauw.png,0,,,,,,,,,,,,,,,,,,,,,,
,,,,,00046,2023-10-03_19h55.21.647,vbt_B1_day3,2022.2.4,Win32,59.99880002,,,,,,down,0,9.862,,0.747222194,-0.067592586,1,0,0,0,162,162,168,1,bisschop,images/br_bisschop.png,images/cb_bisschop.png,0,,,,,,,,,,,,,,,,,,,,,,
,,,,,00046,2023-10-03_19h55.21.647,vbt_B1_day3,2022.2.4,Win32,59.99880002,,,,,,down,0,12.4194,,0.747222194,-0.067592586,1,0,0,0,163,163,187,1,opkijken,images/br_opkijken.png,images/cb_opkijken.png,0,,,,,,,,,,,,,,,,,,,,,,
,,,,,00046,2023-10-03_19h55.21.647,vbt_B1_day3,2022.2.4,Win32,59.99880002,,,,,,down,0,4.0895,,0.747222194,-0.067592586,1,0,0,0,164,164,85,1,heilig,images/br_heilig.png,images/cb_heilig.png,0,,,,,,,,,,,,,,,,,,,,,,
,,,,,00046,2023-10-03_19h55.21.647,vbt_B1_day3,2022.2.4,Win32,59.99880002,,,,,,down,0,11.452,,0.747222194,-0.067592586,1,0,0,0,165,165,105,1,wijlen,images/br_wijlen.png,images/cb_wijlen.png,0,,,,,,,,,,,,,,,,,,,,,,
,,,,,00046,2023-10-03_19h55.21.647,vbt_B1_day3,2022.2.4,Win32,59.99880002,,,,,,down,0,16.6836,,0.747222194,-0.067592586,1,0,0,0,166,166,16,1,ziek,images/br_ziek.png,images/cb_ziek.png,0,,,,,,,,,,,,,,,,,,,,,,
,,,,,00046,2023-10-03_19h55.21.647,vbt_B1_day3,2022.2.4,Win32,59.99880002,,,,,,down,0,27.2233,,0.747222194,-0.067592586,1,0,0,0,167,167,50,1,stoom,images/br_stoom.png,images/cb_stoom.png,0,,,,,,,,,,,,,,,,,,,,,,
,,,,,00046,2023-10-03_19h55.21.647,vbt_B1_day3,2022.2.4,Win32,59.99880002,,,,,,down,0,0.9253,,0.747222194,-0.067592586,1,0,0,0,168,168,54,1,gebit,images/br_gebit.png,images/cb_gebit.png,0,,,,,,,,,,,,,,,,,,,,,,
,,,,,00046,2023-10-03_19h55.21.647,vbt_B1_day3,2022.2.4,Win32,59.99880002,,,,,,down,0,7.7356,,0.747222194,-0.067592586,1,0,0,0,169,169,24,1,jurk,images/br_jurk.png,images/cb_jurk.png,0,,,,,,,,,,,,,,,,,,,,,,
,,,,,00046,2023-10-03_19h55.21.647,vbt_B1_day3,2022.2.4,Win32,59.99880002,,,,,,down,0,3.6681,,0.566666638,-0.01666666,1,0,0,0,170,170,61,1,groen,images/br_groen.png,images/cb_groen.png,1,groen,,,,,,,,,,,,,,,,,,,,,
,,,,,00046,2023-10-03_19h55.21.647,vbt_B1_day3,2022.2.4,Win32,59.99880002,,,,,,down,0,8.5197,,0.566666638,-0.01666666,1,0,0,0,171,171,67,1,zwart,images/br_zwart.png,images/cb_zwart.png,0,,,,,,,,,,,,,,,,,,,,,,
,,,,,00046,2023-10-03_19h55.21.647,vbt_B1_day3,2022.2.4,Win32,59.99880002,,,,,,down,0,0.0878,,0.566666638,-0.01666666,1,0,0,0,172,172,37,1,mijn,images/br_mijn.png,images/cb_mijn.png,0,,,,,,,,,,,,,,,,,,,,,,
,,,,,00046,2023-10-03_19h55.21.647,vbt_B1_day3,2022.2.4,Win32,59.99880002,,,,,,down,0,9.083,,0.566666638,-0.01666666,1,0,0,0,173,173,162,1,uitdelen,images/br_uitdelen.png,images/cb_uitdelen.png,0,,,,,,,,,,,,,,,,,,,,,,
,,,,,00046,2023-10-03_19h55.21.647,vbt_B1_day3,2022.2.4,Win32,59.99880002,,,,,,down,0,2.6419,,0.566666638,-0.01666666,1,0,0,0,174,174,139,1,stiekem,images/br_stiekem.png,images/cb_stiekem.png,0,,,,,,,,,,,,,,,,,,,,,,
,,,,,00046,2023-10-03_19h55.21.647,vbt_B1_day3,2022.2.4,Win32,59.99880002,,,,,,down,0,7.3563,,0.566666638,-0.01666666,1,0,0,0,175,175,81,1,dubbel,images/br_dubbel.png,images/cb_dubbel.png,0,,,,,,,,,,,,,,,,,,,,,,
,,,,,00046,2023-10-03_19h55.21.647,vbt_B1_day3,2022.2.4,Win32,59.99880002,,,,,,down,0,14.1871,,0.566666638,-0.01666666,1,0,0,0,176,176,156,1,rechten,images/br_rechten.png,images/cb_rechten.png,0,,,,,,,,,,,,,,,,,,,,,,
,,,,,00046,2023-10-03_19h55.21.647,vbt_B1_day3,2022.2.4,Win32,59.99880002,,,,,,down,0,7.753,,0.566666638,-0.01666666,1,0,0,0,177,177,182,1,bijkomen,images/br_bijkomen.png,images/cb_bijkomen.png,1,bijkomen,,,,,,,,,,,,,,,,,,,,,
,,,,,00046,2023-10-03_19h55.21.647,vbt_B1_day3,2022.2.4,Win32,59.99880002,,,,,,down,0,39.2446,,0.566666638,-0.01666666,1,0,0,0,178,178,153,1,vervoer,images/br_vervoer.png,images/cb_vervoer.png,0,,,,,,,,,,,,,,,,,,,,,,
,,,,,00046,2023-10-03_19h55.21.647,vbt_B1_day3,2022.2.4,Win32,59.99880002,,,,,,down,0,12.2915,,0.566666638,-0.01666666,1,0,0,0,179,179,52,1,wagon,images/br_wagon.png,images/cb_wagon.png,0,,,,,,,,,,,,,,,,,,,,,,
,,,,,00046,2023-10-03_19h55.21.647,vbt_B1_day3,2022.2.4,Win32,59.99880002,,,,,,down,0,2.5009,,0.566666638,-0.01666666,1,0,0,0,180,180,33,1,vlek,images/br_vlek.png,images/cb_vlek.png,0,,,,,,,,,,,,,,,,,,,,,,
,,,,,00046,2023-10-03_19h55.21.647,vbt_B1_day3,2022.2.4,Win32,59.99880002,,,,,,down,0,2.3554,,0.566666638,-0.01666666,1,0,0,0,181,181,53,1,baron,images/br_baron.png,images/cb_baron.png,0,,,,,,,,,,,,,,,,,,,,,,
,,,,,00046,2023-10-03_19h55.21.647,vbt_B1_day3,2022.2.4,Win32,59.99880002,,,,,,down,0,3.5744,,0.566666638,-0.01666666,1,0,0,0,182,182,157,1,uitlaat,images/br_uitlaat.png,images/cb_uitlaat.png,0,,,,,,,,,,,,,,,,,,,,,,
,,,,,00046,2023-10-03_19h55.21.647,vbt_B1_day3,2022.2.4,Win32,59.99880002,,,,,,down,0,7.569,,0.566666638,-0.01666666,1,0,0,0,183,183,62,1,knaap,images/br_knaap.png,images/cb_knaap.png,1,knaap,,,,,,,,,,,,,,,,,,,,,
,,,,,00046,2023-10-03_19h55.21.647,vbt_B1_day3,2022.2.4,Win32,59.99880002,,,,,,down,0,1.453,,0.566666638,-0.01666666,1,0,0,0,184,184,48,1,steel,images/br_steel.png,images/cb_steel.png,0,,,,,,,,,,,,,,,,,,,,,,
,,,,,00046,2023-10-03_19h55.21.647,vbt_B1_day3,2022.2.4,Win32,59.99880002,,,,,,down,0,1.6021,,0.566666638,-0.01666666,1,0,0,0,185,185,166,1,strikken,images/br_strikken.png,images/cb_strikken.png,0,,,,,,,,,,,,,,,,,,,,,,
,,,,,00046,2023-10-03_19h55.21.647,vbt_B1_day3,2022.2.4,Win32,59.99880002,,,,,,down,0,26.5032,,0.566666638,-0.01666666,1,0,0,0,186,186,198,1,bedoelen,images/br_bedoelen.png,images/cb_bedoelen.png,0,,,,,,,,,,,,,,,,,,,,,,
,,,,,00046,2023-10-03_19h55.21.647,vbt_B1_day3,2022.2.4,Win32,59.99880002,,,,,,down,0,7.0082,,0.566666638,-0.01666666,1,0,0,0,187,187,155,1,gerucht,images/br_gerucht.png,images/cb_gerucht.png,0,,,,,,,,,,,,,,,,,,,,,,
,,,,,00046,2023-10-03_19h55.21.647,vbt_B1_day3,2022.2.4,Win32,59.99880002,,,,,,down,0,3.3941,,0.566666638,-0.01666666,1,0,0,0,188,188,96,1,slagen,images/br_slagen.png,images/cb_slagen.png,0,,,,,,,,,,,,,,,,,,,,,,
,,,,,00046,2023-10-03_19h55.21.647,vbt_B1_day3,2022.2.4,Win32,59.99880002,,,,,,down,0,3.2278,,0.566666638,-0.01666666,1,0,0,0,189,189,134,1,geliefd,images/br_geliefd.png,images/cb_geliefd.png,0,,,,,,,,,,,,,,,,,,,,,,
,,,,,00046,2023-10-03_19h55.21.647,vbt_B1_day3,2022.2.4,Win32,59.99880002,,,,,,down,0,17.0952,,0.566666638,-0.01666666,1,0,0,0,190,190,112,1,lukken,images/br_lukken.png,images/cb_lukken.png,0,,,,,,,,,,,,,,,,,,,,,,
,,,,,00046,2023-10-03_19h55.21.647,vbt_B1_day3,2022.2.4,Win32,59.99880002,,,,,,down,0,20.1395,,0.566666638,-0.01666666,1,0,0,0,191,191,86,1,woning,images/br_woning.png,images/cb_woning.png,0,,,,,,,,,,,,,,,,,,,,,,
,,,,,00046,2023-10-03_19h55.21.647,vbt_B1_day3,2022.2.4,Win32,59.99880002,,,,,,down,0,33.7376,,0.566666638,-0.01666666,1,0,0,0,192,192,93,1,waarop,images/br_waarop.png,images/cb_waarop.png,0,,,,,,,,,,,,,,,,,,,,,,
,,,,,00046,2023-10-03_19h55.21.647,vbt_B1_day3,2022.2.4,Win32,59.99880002,,,,,,down,0,6.4053,,0.566666638,-0.01666666,1,0,0,0,193,193,34,1,vorm,images/br_vorm.png,images/cb_vorm.png,0,,,,,,,,,,,,,,,,,,,,,,
,,,,,00046,2023-10-03_19h55.21.647,vbt_B1_day3,2022.2.4,Win32,59.99880002,,,,,,down,0,4.138,,0.566666638,-0.01666666,1,0,0,0,194,194,106,1,zingen,images/br_zingen.png,images/cb_zingen.png,0,,,,,,,,,,,,,,,,,,,,,,
,,,,,00046,2023-10-03_19h55.21.647,vbt_B1_day3,2022.2.4,Win32,59.99880002,,,,,,down,0,3.2845,,0.566666638,-0.01666666,1,0,0,0,195,195,149,1,redding,images/br_redding.png,images/cb_redding.png,0,,,,,,,,,,,,,,,,,,,,,,
,,,,,00046,2023-10-03_19h55.21.647,vbt_B1_day3,2022.2.4,Win32,59.99880002,,,,,,down,0,0.241,,0.566666638,-0.01666666,1,0,0,0,196,196,25,1,plek,images/br_plek.png,images/cb_plek.png,0,,,,,,,,,,,,,,,,,,,,,,
,,,,,00046,2023-10-03_19h55.21.647,vbt_B1_day3,2022.2.4,Win32,59.99880002,,,,,,down,0,0.1529,,0.566666638,-0.01666666,1,0,0,0,197,197,39,1,laag,images/br_laag.png,images/cb_laag.png,0,,,,,,,,,,,,,,,,,,,,,,
,,,,,00046,2023-10-03_19h55.21.647,vbt_B1_day3,2022.2.4,Win32,59.99880002,,,,,,down,0,37.5844,,0.566666638,-0.01666666,1,0,0,0,198,198,190,1,goedkoop,images/br_goedkoop.png,images/cb_goedkoop.png,0,,,,,,,,,,,,,,,,,,,,,,
,,,,,00046,2023-10-03_19h55.21.647,vbt_B1_day3,2022.2.4,Win32,59.99880002,,,,,,down,0,1.1026,,0.566666638,-0.01666666,1,0,0,0,199,199,115,1,kleren,images/br_kleren.png,images/cb_kleren.png,0,,,,,,,,,,,,,,,,,,,,,,
,,,,,00046,2023-10-03_19h55.21.647,vbt_B1_day3,2022.2.4,Win32,59.99880002,,,,,,,,,,,,,,,,,,,,,,,,,0.566666638,-0.01666666,1,0,0,,,,,,,,,,,,,,,,
,,,,,00046,2023-10-03_19h55.21.647,vbt_B1_day3,2022.2.4,Win32,59.99880002,,,,,,,,,,,,,,,,,,,,,,,,,,,,,,0.566666638,-0.01666666,1,0,0,,,,,,,,,,,
,,,,,00046,2023-10-03_19h55.21.647,vbt_B1_day3,2022.2.4,Win32,59.99880002,,,,,,,,,,,,,,,,,,,,invallen,images/br_invallen.png,images/cb_invallen.png,,inva....,,,,,,,,,,,0.566666638,-0.01666666,1,0,0,inva....,0,0,0,57,1
,,,,,00046,2023-10-03_19h55.21.647,vbt_B1_day3,2022.2.4,Win32,59.99880002,,,,,,,,,,,,,,,,,,,,prikken,images/br_prikken.png,images/cb_prikken.png,,prikken,,,,,,,,,,,0.566666638,-0.01666666,1,0,0,prikken,0,1,1,12,1
,,,,,00046,2023-10-03_19h55.21.647,vbt_B1_day3,2022.2.4,Win32,59.99880002,,,,,,,,,,,,,,,,,,,,bevret,images/br_bevret.png,images/cb_bevret.png,,pevria,,,,,,,,,,,0.566666638,-0.01666666,1,0,0,pevria,0,2,2,30,1
,,,,,00046,2023-10-03_19h55.21.647,vbt_B1_day3,2022.2.4,Win32,59.99880002,,,,,,,,,,,,,,,,,,,,dwang,images/br_dwang.png,images/cb_dwang.png,,dwang,,,,,,,,,,,0.566666638,-0.01666666,1,0,0,dwang,0,3,3,47,1
,,,,,00046,2023-10-03_19h55.21.647,vbt_B1_day3,2022.2.4,Win32,59.99880002,,,,,,,,,,,,,,,,,,,,leugeren,images/br_leugeren.png,images/cb_leugeren.png,,leuge....,,,,,,,,,,,0.566666638,-0.01666666,1,0,0,leuge....,0,4,4,37,1
,,,,,00046,2023-10-03_19h55.21.647,vbt_B1_day3,2022.2.4,Win32,59.99880002,,,,,,,,,,,,,,,,,,,,opzetten,images/br_opzetten.png,images/cb_opzetten.png,,opzetten,,,,,,,,,,,0.566666638,-0.01666666,1,0,0,opzetten,0,5,5,56,1
,,,,,00046,2023-10-03_19h55.21.647,vbt_B1_day3,2022.2.4,Win32,59.99880002,,,,,,,,,,,,,,,,,,,,keihard,images/br_keihard.png,images/cb_keihard.png,,keihard,,,,,,,,,,,0.566666638,-0.01666666,1,0,0,keihard,0,6,6,14,1
,,,,,00046,2023-10-03_19h55.21.647,vbt_B1_day3,2022.2.4,Win32,59.99880002,,,,,,,,,,,,,,,,,,,,steel,images/br_steel.png,images/cb_steel.png,,steel,,,,,,,,,,,0.566666638,-0.01666666,1,0,0,steel,0,7,7,4,1
,,,,,00046,2023-10-03_19h55.21.647,vbt_B1_day3,2022.2.4,Win32,59.99880002,,,,,,,,,,,,,,,,,,,,booien,images/br_booien.png,images/cb_booien.png,,booien,,,,,,,,,,,0.651851937,-0.095370399,1,0,0,booien,0,8,8,31,1
,,,,,00046,2023-10-03_19h55.21.647,vbt_B1_day3,2022.2.4,Win32,59.99880002,,,,,,,,,,,,,,,,,,,,bisschop,images/br_bisschop.png,images/cb_bisschop.png,,bisschop,,,,,,,,,,,0.651851937,-0.095370399,1,0,0,bisschop,0,9,9,16,1
,,,,,00046,2023-10-03_19h55.21.647,vbt_B1_day3,2022.2.4,Win32,59.99880002,,,,,,,,,,,,,,,,,,,,makieren,images/br_makieren.png,images/cb_makieren.png,,make....,,,,,,,,,,,0.651851937,-0.095370399,1,0,0,make....,0,10,10,36,1
,,,,,00046,2023-10-03_19h55.21.647,vbt_B1_day3,2022.2.4,Win32,59.99880002,,,,,,,,,,,,,,,,,,,,stallen,images/br_stallen.png,images/cb_stallen.png,,stallen,,,,,,,,,,,0.308333362,-0.15370369,1,0,0,stallen,0,11,11,52,1
,,,,,00046,2023-10-03_19h55.21.647,vbt_B1_day3,2022.2.4,Win32,59.99880002,,,,,,,,,,,,,,,,,,,,hint,images/br_hint.png,images/cb_hint.png,,hint,,,,,,,,,,,0.308333362,-0.15370369,1,0,0,hint,0,12,12,43,1
,,,,,00046,2023-10-03_19h55.21.647,vbt_B1_day3,2022.2.4,Win32,59.99880002,,,,,,,,,,,,,,,,,,,,oprotten,images/br_oprotten.png,images/cb_oprotten.png,,oprotten,,,,,,,,,,,0.308333362,-0.15370369,1,0,0,oprotten,0,13,13,17,1
,,,,,00046,2023-10-03_19h55.21.647,vbt_B1_day3,2022.2.4,Win32,59.99880002,,,,,,,,,,,,,,,,,,,,mode,images/br_mode.png,images/cb_mode.png,,mode,,,,,,,,,,,0.308333362,-0.15370369,1,0,0,mode,0,14,14,3,1
,,,,,00046,2023-10-03_19h55.21.647,vbt_B1_day3,2022.2.4,Win32,59.99880002,,,,,,,,,,,,,,,,,,,,brappen,images/br_brappen.png,images/cb_brappen.png,,brapp..,,,,,,,,,,,0.308333362,-0.15370369,1,0,0,brapp..,0,15,15,35,1
,,,,,00046,2023-10-03_19h55.21.647,vbt_B1_day3,2022.2.4,Win32,59.99880002,,,,,,,,,,,,,,,,,,,,schodel,images/br_schodel.png,images/cb_schodel.png,,schode.,,,,,,,,,,,0.308333362,-0.15370369,1,0,0,schode.,0,16,16,33,1
,,,,,00046,2023-10-03_19h55.21.647,vbt_B1_day3,2022.2.4,Win32,59.99880002,,,,,,,,,,,,,,,,,,,,hust,images/br_hust.png,images/cb_hust.png,,hust,,,,,,,,,,,0.308333362,-0.15370369,1,0,0,hust,0,17,17,23,1
,,,,,00046,2023-10-03_19h55.21.647,vbt_B1_day3,2022.2.4,Win32,59.99880002,,,,,,,,,,,,,,,,,,,,alsof,images/br_alsof.png,images/cb_alsof.png,,alsof,,,,,,,,,,,0.308333362,-0.15370369,1,0,0,alsof,0,18,18,44,1
,,,,,00046,2023-10-03_19h55.21.647,vbt_B1_day3,2022.2.4,Win32,59.99880002,,,,,,,,,,,,,,,,,,,,zone,images/br_zone.png,images/cb_zone.png,,zone,,,,,,,,,,,0.308333362,-0.15370369,1,0,0,zone,0,19,19,41,1
,,,,,00046,2023-10-03_19h55.21.647,vbt_B1_day3,2022.2.4,Win32,59.99880002,,,,,,,,,,,,,,,,,,,,verhaal,images/br_verhaal.png,images/cb_verhaal.png,,verhaal,,,,,,,,,,,0.308333362,-0.15370369,1,0,0,verhaal,0,20,20,13,1
,,,,,00046,2023-10-03_19h55.21.647,vbt_B1_day3,2022.2.4,Win32,59.99880002,,,,,,,,,,,,,,,,,,,,opzicht,images/br_opzicht.png,images/cb_opzicht.png,,opzicht,,,,,,,,,,,0.308333362,-0.15370369,1,0,0,opzicht,0,21,21,15,1
,,,,,00046,2023-10-03_19h55.21.647,vbt_B1_day3,2022.2.4,Win32,59.99880002,,,,,,,,,,,,,,,,,,,,stikken,images/br_stikken.png,images/cb_stikken.png,,stikken,,,,,,,,,,,0.308333362,-0.15370369,1,0,0,stikken,0,22,22,54,1
,,,,,00046,2023-10-03_19h55.21.647,vbt_B1_day3,2022.2.4,Win32,59.99880002,,,,,,,,,,,,,,,,,,,,aarzelen,images/br_aarzelen.png,images/cb_aarzelen.png,,aarzelen,,,,,,,,,,,0.308333362,-0.15370369,1,0,0,aarzelen,0,23,23,19,1
,,,,,00046,2023-10-03_19h55.21.647,vbt_B1_day3,2022.2.4,Win32,59.99880002,,,,,,,,,,,,,,,,,,,,gout,images/br_gout.png,images/cb_gout.png,,gout,,,,,,,,,,,0.308333362,-0.15370369,1,0,0,gout,0,24,24,20,1
,,,,,00046,2023-10-03_19h55.21.647,vbt_B1_day3,2022.2.4,Win32,59.99880002,,,,,,,,,,,,,,,,,,,,mugeek,images/br_mugeek.png,images/cb_mugeek.png,,mugeen,,,,,,,,,,,0.308333362,-0.15370369,1,0,0,mugeen,0,25,25,29,1
,,,,,00046,2023-10-03_19h55.21.647,vbt_B1_day3,2022.2.4,Win32,59.99880002,,,,,,,,,,,,,,,,,,,,croo,images/br_croo.png,images/cb_croo.png,,croo,,,,,,,,,,,0.308333362,-0.15370369,1,0,0,croo,0,26,26,22,1
,,,,,00046,2023-10-03_19h55.21.647,vbt_B1_day3,2022.2.4,Win32,59.99880002,,,,,,,,,,,,,,,,,,,,gezond,images/br_gezond.png,images/cb_gezond.png,,gezond,,,,,,,,,,,0.308333362,-0.15370369,1,0,0,gezond,0,27,27,11,1
,,,,,00046,2023-10-03_19h55.21.647,vbt_B1_day3,2022.2.4,Win32,59.99880002,,,,,,,,,,,,,,,,,,,,kaas,images/br_kaas.png,images/cb_kaas.png,,kaas,,,,,,,,,,,0.308333362,-0.15370369,1,0,0,kaas,0,28,28,42,1
,,,,,00046,2023-10-03_19h55.21.647,vbt_B1_day3,2022.2.4,Win32,59.99880002,,,,,,,,,,,,,,,,,,,,laken,images/br_laken.png,images/cb_laken.png,,laken,,,,,,,,,,,0.308333362,-0.15370369,1,0,0,laken,0,29,29,5,1
,,,,,00046,2023-10-03_19h55.21.647,vbt_B1_day3,2022.2.4,Win32,59.99880002,,,,,,,,,,,,,,,,,,,,samen,images/br_samen.png,images/cb_samen.png,,samen,,,,,,,,,,,0.308333362,-0.15370369,1,0,0,samen,0,30,30,7,1
,,,,,00046,2023-10-03_19h55.21.647,vbt_B1_day3,2022.2.4,Win32,59.99880002,,,,,,,,,,,,,,,,,,,,glijden,images/br_glijden.png,images/cb_glijden.png,,glijden,,,,,,,,,,,0.308333362,-0.15370369,1,0,0,glijden,0,31,31,53,1
,,,,,00046,2023-10-03_19h55.21.647,vbt_B1_day3,2022.2.4,Win32,59.99880002,,,,,,,,,,,,,,,,,,,,slapen,images/br_slapen.png,images/cb_slapen.png,,slapen,,,,,,,,,,,-0.037037037,-0.137962977,1,0,0,slapen,0,32,32,9,1
,,,,,00046,2023-10-03_19h55.21.647,vbt_B1_day3,2022.2.4,Win32,59.99880002,,,,,,,,,,,,,,,,,,,,uniek,images/br_uniek.png,images/cb_uniek.png,,un.eik,,,,,,,,,,,-0.037037037,-0.137962977,1,0,0,un.eik,0,33,33,46,1
,,,,,00046,2023-10-03_19h55.21.647,vbt_B1_day3,2022.2.4,Win32,59.99880002,,,,,,,,,,,,,,,,,,,,afbopen,images/br_afbopen.png,images/cb_afbopen.png,,afbo...,,,,,,,,,,,-0.037037037,-0.137962977,1,0,0,afbo...,0,34,34,34,1
,,,,,00046,2023-10-03_19h55.21.647,vbt_B1_day3,2022.2.4,Win32,59.99880002,,,,,,,,,,,,,,,,,,,,begrip,images/br_begrip.png,images/cb_begrip.png,,begrip,,,,,,,,,,,-0.037037037,-0.137962977,1,0,0,begrip,0,35,35,48,1
,,,,,00046,2023-10-03_19h55.21.647,vbt_B1_day3,2022.2.4,Win32,59.99880002,,,,,,,,,,,,,,,,,,,,leemaken,images/br_leemaken.png,images/cb_leemaken.png,,leema...,,,,,,,,,,,-0.037037037,-0.137962977,1,0,0,leema...,0,36,36,39,1
,,,,,00046,2023-10-03_19h55.21.647,vbt_B1_day3,2022.2.4,Win32,59.99880002,,,,,,,,,,,,,,,,,,,,knie,images/br_knie.png,images/cb_knie.png,,knie,,,,,,,,,,,-0.037037037,-0.137962977,1,0,0,knie,0,37,37,0,1
,,,,,00046,2023-10-03_19h55.21.647,vbt_B1_day3,2022.2.4,Win32,59.99880002,,,,,,,,,,,,,,,,,,,,uviek,images/br_uviek.png,images/cb_uviek.png,,uviek,,,,,,,,,,,-0.037037037,-0.137962977,1,0,0,uviek,0,38,38,25,1
,,,,,00046,2023-10-03_19h55.21.647,vbt_B1_day3,2022.2.4,Win32,59.99880002,,,,,,,,,,,,,,,,,,,,gebod,images/br_gebod.png,images/cb_gebod.png,,gebod,,,,,,,,,,,-0.037037037,-0.137962977,1,0,0,gebod,0,39,39,45,1
,,,,,00046,2023-10-03_19h55.21.647,vbt_B1_day3,2022.2.4,Win32,59.99880002,,,,,,,,,,,,,,,,,,,,stoom,images/br_stoom.png,images/cb_stoom.png,,stoom,,,,,,,,,,,-0.037037037,-0.137962977,1,0,0,stoom,0,40,40,6,1
,,,,,00046,2023-10-03_19h55.21.647,vbt_B1_day3,2022.2.4,Win32,59.99880002,,,,,,,,,,,,,,,,,,,,twaaf,images/br_twaaf.png,images/cb_twaaf.png,,twaa.,,,,,,,,,,,-0.037037037,-0.137962977,1,0,0,twaa.,0,41,41,24,1
,,,,,00046,2023-10-03_19h55.21.647,vbt_B1_day3,2022.2.4,Win32,59.99880002,,,,,,,,,,,,,,,,,,,,hier,images/br_hier.png,images/cb_hier.png,,h...,,,,,,,,,,,-0.037037037,-0.137962977,1,0,0,h...,0,42,42,1,1
,,,,,00046,2023-10-03_19h55.21.647,vbt_B1_day3,2022.2.4,Win32,59.99880002,,,,,,,,,,,,,,,,,,,,schatten,images/br_schatten.png,images/cb_schatten.png,,schatten,,,,,,,,,,,-0.037037037,-0.137962977,1,0,0,schatten,0,43,43,18,1
,,,,,00046,2023-10-03_19h55.21.647,vbt_B1_day3,2022.2.4,Win32,59.99880002,,,,,,,,,,,,,,,,,,,,kwaas,images/br_kwaas.png,images/cb_kwaas.png,,kwaas,,,,,,,,,,,-0.037037037,-0.137962977,1,0,0,kwaas,0,44,44,26,1
,,,,,00046,2023-10-03_19h55.21.647,vbt_B1_day3,2022.2.4,Win32,59.99880002,,,,,,,,,,,,,,,,,,,,jongelui,images/br_jongelui.png,images/cb_jongelui.png,,donge..,,,,,,,,,,,-0.037037037,-0.137962977,1,0,0,donge..,0,45,45,59,1
,,,,,00046,2023-10-03_19h55.21.647,vbt_B1_day3,2022.2.4,Win32,59.99880002,,,,,,,,,,,,,,,,,,,,vlager,images/br_vlager.png,images/cb_vlager.png,,vla..,,,,,,,,,,,-0.037037037,-0.137962977,1,0,0,vla..,0,46,46,28,1
,,,,,00046,2023-10-03_19h55.21.647,vbt_B1_day3,2022.2.4,Win32,59.99880002,,,,,,,,,,,,,,,,,,,,eens,images/br_eens.png,images/cb_eens.png,,eens,,,,,,,,,,,-0.037037037,-0.137962977,1,0,0,eens,0,47,47,40,1
,,,,,00046,2023-10-03_19h55.21.647,vbt_B1_day3,2022.2.4,Win32,59.99880002,,,,,,,,,,,,,,,,,,,,boeien,images/br_boeien.png,images/cb_boeien.png,,boeien,,,,,,,,,,,-0.037037037,-0.137962977,1,0,0,boeien,0,48,48,8,1
,,,,,00046,2023-10-03_19h55.21.647,vbt_B1_day3,2022.2.4,Win32,59.99880002,,,,,,,,,,,,,,,,,,,,onrecht,images/br_onrecht.png,images/cb_onrecht.png,,onrec..,,,,,,,,,,,-0.037037037,-0.137962977,1,0,0,onrec..,0,49,49,55,1
,,,,,00046,2023-10-03_19h55.21.647,vbt_B1_day3,2022.2.4,Win32,59.99880002,,,,,,,,,,,,,,,,,,,,paken,images/br_paken.png,images/cb_paken.png,,paken,,,,,,,,,,,-0.037037037,-0.137962977,1,0,0,paken,0,50,50,27,1
,,,,,00046,2023-10-03_19h55.21.647,vbt_B1_day3,2022.2.4,Win32,59.99880002,,,,,,,,,,,,,,,,,,,,geluid,images/br_geluid.png,images/cb_geluid.png,,gelu..,,,,,,,,,,,-0.037037037,-0.137962977,1,0,0,gelu..,0,51,51,10,1
,,,,,00046,2023-10-03_19h55.21.647,vbt_B1_day3,2022.2.4,Win32,59.99880002,,,,,,,,,,,,,,,,,,,,sultan,images/br_sultan.png,images/cb_sultan.png,,sult..,,,,,,,,,,,-0.037037037,-0.137962977,1,0,0,sult..,0,52,52,49,1
,,,,,00046,2023-10-03_19h55.21.647,vbt_B1_day3,2022.2.4,Win32,59.99880002,,,,,,,,,,,,,,,,,,,,beslag,images/br_beslag.png,images/cb_beslag.png,,beslag,,,,,,,,,,,-0.037037037,-0.137962977,1,0,0,beslag,0,53,53,51,1
,,,,,00046,2023-10-03_19h55.21.647,vbt_B1_day3,2022.2.4,Win32,59.99880002,,,,,,,,,,,,,,,,,,,,sluier,images/br_sluier.png,images/cb_sluier.png,,sluier,,,,,,,,,,,-0.037037037,-0.137962977,1,0,0,sluier,0,54,54,50,1
,,,,,00046,2023-10-03_19h55.21.647,vbt_B1_day3,2022.2.4,Win32,59.99880002,,,,,,,,,,,,,,,,,,,,theeting,images/br_theeting.png,images/cb_theeting.png,,theet..,,,,,,,,,,,-0.037037037,-0.137962977,1,0,0,theet..,0,55,55,38,1
,,,,,00046,2023-10-03_19h55.21.647,vbt_B1_day3,2022.2.4,Win32,59.99880002,,,,,,,,,,,,,,,,,,,,verraden,images/br_verraden.png,images/cb_verraden.png,,verraden,,,,,,,,,,,-0.037037037,-0.137962977,1,0,0,verraden,0,56,56,58,1
,,,,,00046,2023-10-03_19h55.21.647,vbt_B1_day3,2022.2.4,Win32,59.99880002,,,,,,,,,,,,,,,,,,,,verwoor,images/br_verwoor.png,images/cb_verwoor.png,,verwoo.,,,,,,,,,,,-0.037037037,-0.137962977,1,0,0,verwoo.,0,57,57,32,1
,,,,,00046,2023-10-03_19h55.21.647,vbt_B1_day3,2022.2.4,Win32,59.99880002,,,,,,,,,,,,,,,,,,,,kest,images/br_kest.png,images/cb_kest.png,,kest,,,,,,,,,,,-0.037037037,-0.137962977,1,0,0,kest,0,58,58,21,1
,,,,,00046,2023-10-03_19h55.21.647,vbt_B1_day3,2022.2.4,Win32,59.99880002,,,,,,,,,,,,,,,,,,,,leek,images/br_leek.png,images/cb_leek.png,,leek,,,,,,,,,,,-0.037037037,-0.137962977,1,0,0,leek,0,59,59,2,1
,,,,,00046,2023-10-03_19h55.21.647,vbt_B1_day3,2022.2.4,Win32,59.99880002,,,,,,,,,,,,,,,,,,,,,,,,,,,,,,,,,,,,,,,,,,,,,
