welcome_mouse.x,welcome_mouse.y,welcome_mouse.leftButton,welcome_mouse.midButton,welcome_mouse.rightButton,"ID",date,expName,psychopyVersion,OS,frameRate,trainInstr_mouse.x,trainInstr_mouse.y,trainInstr_mouse.leftButton,trainInstr_mouse.midButton,trainInstr_mouse.rightButton,translation_key.keys,translation_key.corr,translation_key.rt,word_rsp.text,trWrd_mouse.x,trWrd_mouse.y,trWrd_mouse.leftButton,trWrd_mouse.midButton,trWrd_mouse.rightButton,train_loop.thisRepN,train_loop.thisTrialN,train_loop.thisN,train_loop.thisIndex,train_loop.ran,nlWrd,brWrd,cbWrd,test,testResp,mouse.x,mouse.y,mouse.leftButton,mouse.midButton,mouse.rightButton,testInstr_mouse.x,testInstr_mouse.y,testInstr_mouse.leftButton,testInstr_mouse.midButton,testInstr_mouse.rightButton,test_mouse.x,test_mouse.y,test_mouse.leftButton,test_mouse.midButton,test_mouse.rightButton,test_response.text,test_loop.thisRepN,test_loop.thisTrialN,test_loop.thisN,test_loop.thisIndex,test_loop.ran
-0.043333333,-0.162222222,1,0,0,00089,2023-10-26_16h00.46.212,vbt_B1_day3,2022.2.4,MacIntel,58.82352941,,,,,,,,,,,,,,,,,,,,,,,,,,,,,,,,,,,,,,,,,,,,,
,,,,,00089,2023-10-26_16h00.46.212,vbt_B1_day3,2022.2.4,MacIntel,58.82352941,-0.044444444,-0.162222222,1,0,0,,,,,,,,,,,,,,,,,,,,,,,,,,,,,,,,,,,,,,,,
,,,,,00089,2023-10-26_16h00.46.212,vbt_B1_day3,2022.2.4,MacIntel,58.82352941,,,,,,down,0,10.534,,-0.044444444,-0.162222222,1,0,0,0,0,0,40,1,schep,images/br_schep.png,images/cb_schep.png,0,,,,,,,,,,,,,,,,,,,,,,
,,,,,00089,2023-10-26_16h00.46.212,vbt_B1_day3,2022.2.4,MacIntel,58.82352941,,,,,,down,0,14.473,,-0.038888889,-0.161111111,1,0,0,0,1,1,194,1,driemaal,images/br_driemaal.png,images/cb_driemaal.png,0,,,,,,,,,,,,,,,,,,,,,,
,,,,,00089,2023-10-26_16h00.46.212,vbt_B1_day3,2022.2.4,MacIntel,58.82352941,,,,,,down,0,3.902,,-0.033333333,-0.158888889,1,0,0,0,2,2,28,1,stal,images/br_stal.png,images/cb_stal.png,0,,,,,,,,,,,,,,,,,,,,,,
,,,,,00089,2023-10-26_16h00.46.212,vbt_B1_day3,2022.2.4,MacIntel,58.82352941,,,,,,down,0,13.086,,-0.064444444,-0.153333333,1,0,0,0,3,3,125,1,aanzien,images/br_aanzien.png,images/cb_aanzien.png,0,,,,,,,,,,,,,,,,,,,,,,
,,,,,00089,2023-10-26_16h00.46.212,vbt_B1_day3,2022.2.4,MacIntel,58.82352941,,,,,,down,0,7.585,,-0.047777778,-0.152222222,1,0,0,0,4,4,145,1,invloed,images/br_invloed.png,images/cb_invloed.png,0,,,,,,,,,,,,,,,,,,,,,,
,,,,,00089,2023-10-26_16h00.46.212,vbt_B1_day3,2022.2.4,MacIntel,58.82352941,,,,,,down,0,5.9,,-0.046666667,-0.152222222,1,0,0,0,5,5,115,1,kleren,images/br_kleren.png,images/cb_kleren.png,0,,,,,,,,,,,,,,,,,,,,,,
,,,,,00089,2023-10-26_16h00.46.212,vbt_B1_day3,2022.2.4,MacIntel,58.82352941,,,,,,down,0,12.652,,-0.04,-0.093333333,1,0,0,0,6,6,174,1,stemming,images/br_stemming.png,images/cb_stemming.png,0,,,,,,,,,,,,,,,,,,,,,,
,,,,,00089,2023-10-26_16h00.46.212,vbt_B1_day3,2022.2.4,MacIntel,58.82352941,,,,,,down,0,10.801,,-0.037777778,-0.092222222,1,0,0,0,7,7,88,1,boeien,images/br_boeien.png,images/cb_boeien.png,0,,,,,,,,,,,,,,,,,,,,,,
,,,,,00089,2023-10-26_16h00.46.212,vbt_B1_day3,2022.2.4,MacIntel,58.82352941,,,,,,down,0,14.769,,0.161111111,-0.076666667,1,0,0,0,8,8,63,1,flirt,images/br_flirt.png,images/cb_flirt.png,1,flirt,,,,,,,,,,,,,,,,,,,,,
,,,,,00089,2023-10-26_16h00.46.212,vbt_B1_day3,2022.2.4,MacIntel,58.82352941,,,,,,down,0,10.268,,0.385555556,-0.088888889,1,0,0,0,9,9,182,1,bijkomen,images/br_bijkomen.png,images/cb_bijkomen.png,1,bijkomen,,,,,,,,,,,,,,,,,,,,,
,,,,,00089,2023-10-26_16h00.46.212,vbt_B1_day3,2022.2.4,MacIntel,58.82352941,,,,,,down,0,7.451,,0.352222222,-0.121111111,1,0,0,0,10,10,177,1,maaltijd,images/br_maaltijd.png,images/cb_maaltijd.png,0,,,,,,,,,,,,,,,,,,,,,,
,,,,,00089,2023-10-26_16h00.46.212,vbt_B1_day3,2022.2.4,MacIntel,58.82352941,,,,,,down,0,7.839,,0.318888889,-0.124444444,1,0,0,0,11,11,69,1,waken,images/br_waken.png,images/cb_waken.png,0,,,,,,,,,,,,,,,,,,,,,,
,,,,,00089,2023-10-26_16h00.46.212,vbt_B1_day3,2022.2.4,MacIntel,58.82352941,,,,,,down,0,2.114,,0.318888889,-0.124444444,1,0,0,0,12,12,39,1,laag,images/br_laag.png,images/cb_laag.png,0,,,,,,,,,,,,,,,,,,,,,,
,,,,,00089,2023-10-26_16h00.46.212,vbt_B1_day3,2022.2.4,MacIntel,58.82352941,,,,,,down,0,4.021,,0.318888889,-0.124444444,1,0,0,0,13,13,25,1,plek,images/br_plek.png,images/cb_plek.png,0,,,,,,,,,,,,,,,,,,,,,,
,,,,,00089,2023-10-26_16h00.46.212,vbt_B1_day3,2022.2.4,MacIntel,58.82352941,,,,,,down,0,1.705,,0.318888889,-0.124444444,1,0,0,0,14,14,54,1,gebit,images/br_gebit.png,images/cb_gebit.png,0,,,,,,,,,,,,,,,,,,,,,,
,,,,,00089,2023-10-26_16h00.46.212,vbt_B1_day3,2022.2.4,MacIntel,58.82352941,,,,,,down,0,4.351,,0.318888889,-0.124444444,1,0,0,0,15,15,108,1,excuus,images/br_excuus.png,images/cb_excuus.png,0,,,,,,,,,,,,,,,,,,,,,,
,,,,,00089,2023-10-26_16h00.46.212,vbt_B1_day3,2022.2.4,MacIntel,58.82352941,,,,,,down,0,14.467,,0.298888889,-0.127777778,1,0,0,0,16,16,37,1,mijn,images/br_mijn.png,images/cb_mijn.png,0,,,,,,,,,,,,,,,,,,,,,,
,,,,,00089,2023-10-26_16h00.46.212,vbt_B1_day3,2022.2.4,MacIntel,58.82352941,,,,,,down,0,12.319,,0.291111111,-0.13,1,0,0,0,17,17,105,1,wijlen,images/br_wijlen.png,images/cb_wijlen.png,0,,,,,,,,,,,,,,,,,,,,,,
,,,,,00089,2023-10-26_16h00.46.212,vbt_B1_day3,2022.2.4,MacIntel,58.82352941,,,,,,down,0,2.767,,0.291111111,-0.13,1,0,0,0,18,18,35,1,lust,images/br_lust.png,images/cb_lust.png,0,,,,,,,,,,,,,,,,,,,,,,
,,,,,00089,2023-10-26_16h00.46.212,vbt_B1_day3,2022.2.4,MacIntel,58.82352941,,,,,,down,0,8.784,,0.291111111,-0.13,1,0,0,0,19,19,127,1,doodmoe,images/br_doodmoe.png,images/cb_doodmoe.png,0,,,,,,,,,,,,,,,,,,,,,,
,,,,,00089,2023-10-26_16h00.46.212,vbt_B1_day3,2022.2.4,MacIntel,58.82352941,,,,,,down,0,4.185,,0.24,-0.157777778,1,0,0,0,20,20,38,1,baai,images/br_baai.png,images/cb_baai.png,0,,,,,,,,,,,,,,,,,,,,,,
,,,,,00089,2023-10-26_16h00.46.212,vbt_B1_day3,2022.2.4,MacIntel,58.82352941,,,,,,down,0,4.118,,0.24,-0.157777778,1,0,0,0,21,21,131,1,opzicht,images/br_opzicht.png,images/cb_opzicht.png,0,,,,,,,,,,,,,,,,,,,,,,
,,,,,00089,2023-10-26_16h00.46.212,vbt_B1_day3,2022.2.4,MacIntel,58.82352941,,,,,,down,0,8.452,,0.302222222,-0.152222222,1,0,0,0,22,22,100,1,geduld,images/br_geduld.png,images/cb_geduld.png,1,geduld,,,,,,,,,,,,,,,,,,,,,
,,,,,00089,2023-10-26_16h00.46.212,vbt_B1_day3,2022.2.4,MacIntel,58.82352941,,,,,,down,0,8.119,,0.284444444,-0.213333333,1,0,0,0,23,23,193,1,weeshuis,images/br_weeshuis.png,images/cb_weeshuis.png,0,,,,,,,,,,,,,,,,,,,,,,
,,,,,00089,2023-10-26_16h00.46.212,vbt_B1_day3,2022.2.4,MacIntel,58.82352941,,,,,,down,0,12.856,,0.284444444,-0.213333333,1,0,0,0,24,24,41,1,maken,images/br_maken.png,images/cb_maken.png,0,,,,,,,,,,,,,,,,,,,,,,
,,,,,00089,2023-10-26_16h00.46.212,vbt_B1_day3,2022.2.4,MacIntel,58.82352941,,,,,,down,0,3.618,,0.284444444,-0.213333333,1,0,0,0,25,25,12,1,kust,images/br_kust.png,images/cb_kust.png,0,,,,,,,,,,,,,,,,,,,,,,
,,,,,00089,2023-10-26_16h00.46.212,vbt_B1_day3,2022.2.4,MacIntel,58.82352941,,,,,,down,0,4.353,,0.284444444,-0.213333333,1,0,0,0,26,26,116,1,besmet,images/br_besmet.png,images/cb_besmet.png,0,,,,,,,,,,,,,,,,,,,,,,
,,,,,00089,2023-10-26_16h00.46.212,vbt_B1_day3,2022.2.4,MacIntel,58.82352941,,,,,,down,0,1.284,,0.284444444,-0.213333333,1,0,0,0,27,27,10,1,leek,images/br_leek.png,images/cb_leek.png,0,,,,,,,,,,,,,,,,,,,,,,
,,,,,00089,2023-10-26_16h00.46.212,vbt_B1_day3,2022.2.4,MacIntel,58.82352941,,,,,,down,0,2.483,,0.284444444,-0.213333333,1,0,0,0,28,28,6,1,diep,images/br_diep.png,images/cb_diep.png,0,,,,,,,,,,,,,,,,,,,,,,
,,,,,00089,2023-10-26_16h00.46.212,vbt_B1_day3,2022.2.4,MacIntel,58.82352941,,,,,,down,0,2.334,,0.284444444,-0.213333333,1,0,0,0,29,29,31,1,poes,images/br_poes.png,images/cb_poes.png,0,,,,,,,,,,,,,,,,,,,,,,
,,,,,00089,2023-10-26_16h00.46.212,vbt_B1_day3,2022.2.4,MacIntel,58.82352941,,,,,,down,0,6.22,,0.284444444,-0.213333333,1,0,0,0,30,30,149,1,redding,images/br_redding.png,images/cb_redding.png,0,,,,,,,,,,,,,,,,,,,,,,
,,,,,00089,2023-10-26_16h00.46.212,vbt_B1_day3,2022.2.4,MacIntel,58.82352941,,,,,,down,0,17.551,,0.281111111,-0.213333333,1,0,0,0,31,31,106,1,zingen,images/br_zingen.png,images/cb_zingen.png,0,,,,,,,,,,,,,,,,,,,,,,
,,,,,00089,2023-10-26_16h00.46.212,vbt_B1_day3,2022.2.4,MacIntel,58.82352941,,,,,,down,0,0.168,,0.281111111,-0.213333333,1,0,0,0,32,32,156,1,rechten,images/br_rechten.png,images/cb_rechten.png,0,,,,,,,,,,,,,,,,,,,,,,
,,,,,00089,2023-10-26_16h00.46.212,vbt_B1_day3,2022.2.4,MacIntel,58.82352941,,,,,,down,0,0.834,,0.277777778,-0.211111111,1,0,0,0,33,33,144,1,eetlust,images/br_eetlust.png,images/cb_eetlust.png,0,,,,,,,,,,,,,,,,,,,,,,
,,,,,00089,2023-10-26_16h00.46.212,vbt_B1_day3,2022.2.4,MacIntel,58.82352941,,,,,,down,0,2.485,,0.277777778,-0.211111111,1,0,0,0,34,34,64,1,wegen,images/br_wegen.png,images/cb_wegen.png,0,,,,,,,,,,,,,,,,,,,,,,
,,,,,00089,2023-10-26_16h00.46.212,vbt_B1_day3,2022.2.4,MacIntel,58.82352941,,,,,,down,0,3.117,,0.277777778,-0.211111111,1,0,0,0,35,35,155,1,gerucht,images/br_gerucht.png,images/cb_gerucht.png,0,,,,,,,,,,,,,,,,,,,,,,
,,,,,00089,2023-10-26_16h00.46.212,vbt_B1_day3,2022.2.4,MacIntel,58.82352941,,,,,,down,0,0.9,,0.277777778,-0.211111111,1,0,0,0,36,36,97,1,loyaal,images/br_loyaal.png,images/cb_loyaal.png,0,,,,,,,,,,,,,,,,,,,,,,
,,,,,00089,2023-10-26_16h00.46.212,vbt_B1_day3,2022.2.4,MacIntel,58.82352941,,,,,,down,0,8.341,,0.277777778,-0.211111111,1,0,0,0,37,37,192,1,schaamte,images/br_schaamte.png,images/cb_schaamte.png,0,,,,,,,,,,,,,,,,,,,,,,
,,,,,00089,2023-10-26_16h00.46.212,vbt_B1_day3,2022.2.4,MacIntel,58.82352941,,,,,,down,0,10.604,,0.277777778,-0.211111111,1,0,0,0,38,38,7,1,geld,images/br_geld.png,images/cb_geld.png,0,,,,,,,,,,,,,,,,,,,,,,
,,,,,00089,2023-10-26_16h00.46.212,vbt_B1_day3,2022.2.4,MacIntel,58.82352941,,,,,,down,0,7.738,,0.277777778,-0.211111111,1,0,0,0,39,39,183,1,getuigen,images/br_getuigen.png,images/cb_getuigen.png,1,getuigen,,,,,,,,,,,,,,,,,,,,,
,,,,,00089,2023-10-26_16h00.46.212,vbt_B1_day3,2022.2.4,MacIntel,58.82352941,,,,,,down,0,2.869,,0.277777778,-0.211111111,1,0,0,0,40,40,98,1,kreeft,images/br_kreeft.png,images/cb_kreeft.png,0,,,,,,,,,,,,,,,,,,,,,,
,,,,,00089,2023-10-26_16h00.46.212,vbt_B1_day3,2022.2.4,MacIntel,58.82352941,,,,,,down,0,1.986,,0.277777778,-0.211111111,1,0,0,0,41,41,146,1,opkomen,images/br_opkomen.png,images/cb_opkomen.png,0,,,,,,,,,,,,,,,,,,,,,,
,,,,,00089,2023-10-26_16h00.46.212,vbt_B1_day3,2022.2.4,MacIntel,58.82352941,,,,,,down,0,5.05,,0.277777778,-0.211111111,1,0,0,0,42,42,196,1,nakijken,images/br_nakijken.png,images/cb_nakijken.png,0,,,,,,,,,,,,,,,,,,,,,,
,,,,,00089,2023-10-26_16h00.46.212,vbt_B1_day3,2022.2.4,MacIntel,58.82352941,,,,,,down,0,19.753,,0.277777778,-0.211111111,1,0,0,0,43,43,160,1,daarheen,images/br_daarheen.png,images/cb_daarheen.png,0,,,,,,,,,,,,,,,,,,,,,,
,,,,,00089,2023-10-26_16h00.46.212,vbt_B1_day3,2022.2.4,MacIntel,58.82352941,,,,,,down,0,9.134,,0.277777778,-0.211111111,1,0,0,0,44,44,26,1,leuk,images/br_leuk.png,images/cb_leuk.png,0,,,,,,,,,,,,,,,,,,,,,,
,,,,,00089,2023-10-26_16h00.46.212,vbt_B1_day3,2022.2.4,MacIntel,58.82352941,,,,,,down,0,6.551,,0.277777778,-0.211111111,1,0,0,0,45,45,68,1,schat,images/br_schat.png,images/cb_schat.png,0,,,,,,,,,,,,,,,,,,,,,,
,,,,,00089,2023-10-26_16h00.46.212,vbt_B1_day3,2022.2.4,MacIntel,58.82352941,,,,,,down,0,1.94,,0.277777778,-0.211111111,1,0,0,0,46,46,187,1,opkijken,images/br_opkijken.png,images/cb_opkijken.png,0,,,,,,,,,,,,,,,,,,,,,,
,,,,,00089,2023-10-26_16h00.46.212,vbt_B1_day3,2022.2.4,MacIntel,58.82352941,,,,,,down,0,7.407,,0.277777778,-0.211111111,1,0,0,0,47,47,173,1,apparaat,images/br_apparaat.png,images/cb_apparaat.png,0,,,,,,,,,,,,,,,,,,,,,,
,,,,,00089,2023-10-26_16h00.46.212,vbt_B1_day3,2022.2.4,MacIntel,58.82352941,,,,,,down,0,10.086,,0.287777778,-0.207777778,1,0,0,0,48,48,191,1,opheffen,images/br_opheffen.png,images/cb_opheffen.png,0,,,,,,,,,,,,,,,,,,,,,,
,,,,,00089,2023-10-26_16h00.46.212,vbt_B1_day3,2022.2.4,MacIntel,58.82352941,,,,,,down,0,18.372,,0.288888889,-0.207777778,1,0,0,0,49,49,89,1,slapen,images/br_slapen.png,images/cb_slapen.png,0,,,,,,,,,,,,,,,,,,,,,,
,,,,,00089,2023-10-26_16h00.46.212,vbt_B1_day3,2022.2.4,MacIntel,58.82352941,,,,,,down,0,30.874,,0.285555556,-0.21,1,0,0,0,50,50,45,1,piste,images/br_piste.png,images/cb_piste.png,0,,,,,,,,,,,,,,,,,,,,,,
,,,,,00089,2023-10-26_16h00.46.212,vbt_B1_day3,2022.2.4,MacIntel,58.82352941,,,,,,down,0,3.204,,0.285555556,-0.21,1,0,0,0,51,51,128,1,prikken,images/br_prikken.png,images/cb_prikken.png,0,,,,,,,,,,,,,,,,,,,,,,
,,,,,00089,2023-10-26_16h00.46.212,vbt_B1_day3,2022.2.4,MacIntel,58.82352941,,,,,,down,0,1.801,,0.285555556,-0.21,1,0,0,0,52,52,24,1,jurk,images/br_jurk.png,images/cb_jurk.png,0,,,,,,,,,,,,,,,,,,,,,,
,,,,,00089,2023-10-26_16h00.46.212,vbt_B1_day3,2022.2.4,MacIntel,58.82352941,,,,,,down,0,0.185,,0.285555556,-0.21,1,0,0,0,53,53,72,1,strak,images/br_strak.png,images/cb_strak.png,0,,,,,,,,,,,,,,,,,,,,,,
,,,,,00089,2023-10-26_16h00.46.212,vbt_B1_day3,2022.2.4,MacIntel,58.82352941,,,,,,down,0,4.172,,0.285555556,-0.21,1,0,0,0,54,54,52,1,wagon,images/br_wagon.png,images/cb_wagon.png,0,,,,,,,,,,,,,,,,,,,,,,
,,,,,00089,2023-10-26_16h00.46.212,vbt_B1_day3,2022.2.4,MacIntel,58.82352941,,,,,,down,0,0.534,,0.285555556,-0.21,1,0,0,0,55,55,19,1,geit,images/br_geit.png,images/cb_geit.png,0,,,,,,,,,,,,,,,,,,,,,,
,,,,,00089,2023-10-26_16h00.46.212,vbt_B1_day3,2022.2.4,MacIntel,58.82352941,,,,,,down,0,6.918,,0.285555556,-0.21,1,0,0,0,56,56,70,1,ijdel,images/br_ijdel.png,images/cb_ijdel.png,0,,,,,,,,,,,,,,,,,,,,,,
,,,,,00089,2023-10-26_16h00.46.212,vbt_B1_day3,2022.2.4,MacIntel,58.82352941,,,,,,down,0,1.018,,0.285555556,-0.21,1,0,0,0,57,57,169,1,oprotten,images/br_oprotten.png,images/cb_oprotten.png,0,,,,,,,,,,,,,,,,,,,,,,
,,,,,00089,2023-10-26_16h00.46.212,vbt_B1_day3,2022.2.4,MacIntel,58.82352941,,,,,,down,0,2.403,,0.285555556,-0.21,1,0,0,0,58,58,27,1,dans,images/br_dans.png,images/cb_dans.png,0,,,,,,,,,,,,,,,,,,,,,,
,,,,,00089,2023-10-26_16h00.46.212,vbt_B1_day3,2022.2.4,MacIntel,58.82352941,,,,,,down,0,10.019,,0.285555556,-0.21,1,0,0,0,59,59,5,1,blad,images/br_blad.png,images/cb_blad.png,0,,,,,,,,,,,,,,,,,,,,,,
,,,,,00089,2023-10-26_16h00.46.212,vbt_B1_day3,2022.2.4,MacIntel,58.82352941,,,,,,down,0,3.472,,0.285555556,-0.21,1,0,0,0,60,60,33,1,vlek,images/br_vlek.png,images/cb_vlek.png,0,,,,,,,,,,,,,,,,,,,,,,
,,,,,00089,2023-10-26_16h00.46.212,vbt_B1_day3,2022.2.4,MacIntel,58.82352941,,,,,,down,0,0.65,,0.285555556,-0.21,1,0,0,0,61,61,152,1,afnemen,images/br_afnemen.png,images/cb_afnemen.png,0,,,,,,,,,,,,,,,,,,,,,,
,,,,,00089,2023-10-26_16h00.46.212,vbt_B1_day3,2022.2.4,MacIntel,58.82352941,,,,,,down,0,4.318,,0.285555556,-0.21,1,0,0,0,62,62,95,1,vreten,images/br_vreten.png,images/cb_vreten.png,0,,,,,,,,,,,,,,,,,,,,,,
,,,,,00089,2023-10-26_16h00.46.212,vbt_B1_day3,2022.2.4,MacIntel,58.82352941,,,,,,down,0,5.769,,0.285555556,-0.21,1,0,0,0,63,63,15,1,soda,images/br_soda.png,images/cb_soda.png,0,,,,,,,,,,,,,,,,,,,,,,
,,,,,00089,2023-10-26_16h00.46.212,vbt_B1_day3,2022.2.4,MacIntel,58.82352941,,,,,,down,0,6.6,,0.285555556,-0.21,1,0,0,0,64,64,81,1,dubbel,images/br_dubbel.png,images/cb_dubbel.png,0,,,,,,,,,,,,,,,,,,,,,,
,,,,,00089,2023-10-26_16h00.46.212,vbt_B1_day3,2022.2.4,MacIntel,58.82352941,,,,,,down,0,2.801,,0.285555556,-0.21,1,0,0,0,65,65,91,1,gezond,images/br_gezond.png,images/cb_gezond.png,0,,,,,,,,,,,,,,,,,,,,,,
,,,,,00089,2023-10-26_16h00.46.212,vbt_B1_day3,2022.2.4,MacIntel,58.82352941,,,,,,down,0,4.283,,0.285555556,-0.21,1,0,0,0,66,66,57,1,steek,images/br_steek.png,images/cb_steek.png,0,,,,,,,,,,,,,,,,,,,,,,
,,,,,00089,2023-10-26_16h00.46.212,vbt_B1_day3,2022.2.4,MacIntel,58.82352941,,,,,,down,0,0.657,,0.285555556,-0.21,1,0,0,0,67,67,158,1,innemen,images/br_innemen.png,images/cb_innemen.png,0,,,,,,,,,,,,,,,,,,,,,,
,,,,,00089,2023-10-26_16h00.46.212,vbt_B1_day3,2022.2.4,MacIntel,58.82352941,,,,,,down,0,0.301,,0.285555556,-0.21,1,0,0,0,68,68,161,1,attentie,images/br_attentie.png,images/cb_attentie.png,0,,,,,,,,,,,,,,,,,,,,,,
,,,,,00089,2023-10-26_16h00.46.212,vbt_B1_day3,2022.2.4,MacIntel,58.82352941,,,,,,down,0,1.589,,0.285555556,-0.21,1,0,0,0,69,69,85,1,heilig,images/br_heilig.png,images/cb_heilig.png,0,,,,,,,,,,,,,,,,,,,,,,
,,,,,00089,2023-10-26_16h00.46.212,vbt_B1_day3,2022.2.4,MacIntel,58.82352941,,,,,,down,0,3.521,,0.285555556,-0.204444444,1,0,0,0,70,70,66,1,lever,images/br_lever.png,images/cb_lever.png,0,,,,,,,,,,,,,,,,,,,,,,
,,,,,00089,2023-10-26_16h00.46.212,vbt_B1_day3,2022.2.4,MacIntel,58.82352941,,,,,,down,0,25.218,,0.241111111,-0.282222222,1,0,0,0,71,71,110,1,zuster,images/br_zuster.png,images/cb_zuster.png,0,,,,,,,,,,,,,,,,,,,,,,
,,,,,00089,2023-10-26_16h00.46.212,vbt_B1_day3,2022.2.4,MacIntel,58.82352941,,,,,,down,0,0.586,,0.241111111,-0.282222222,1,0,0,0,72,72,150,1,gegeven,images/br_gegeven.png,images/cb_gegeven.png,0,,,,,,,,,,,,,,,,,,,,,,
,,,,,00089,2023-10-26_16h00.46.212,vbt_B1_day3,2022.2.4,MacIntel,58.82352941,,,,,,down,0,10.39,,0.384444444,-0.257777778,1,0,0,0,73,73,143,1,hechten,images/br_hechten.png,images/cb_hechten.png,1,"hechten
",,,,,,,,,,,,,,,,,,,,,
,,,,,00089,2023-10-26_16h00.46.212,vbt_B1_day3,2022.2.4,MacIntel,58.82352941,,,,,,down,0,0.734,,0.366666667,-0.255555556,1,0,0,0,74,74,166,1,strikken,images/br_strikken.png,images/cb_strikken.png,0,,,,,,,,,,,,,,,,,,,,,,
,,,,,00089,2023-10-26_16h00.46.212,vbt_B1_day3,2022.2.4,MacIntel,58.82352941,,,,,,down,0,4.501,,0.366666667,-0.255555556,1,0,0,0,75,75,112,1,lukken,images/br_lukken.png,images/cb_lukken.png,0,,,,,,,,,,,,,,,,,,,,,,
,,,,,00089,2023-10-26_16h00.46.212,vbt_B1_day3,2022.2.4,MacIntel,58.82352941,,,,,,down,0,1.851,,0.366666667,-0.255555556,1,0,0,0,76,76,53,1,baron,images/br_baron.png,images/cb_baron.png,0,,,,,,,,,,,,,,,,,,,,,,
,,,,,00089,2023-10-26_16h00.46.212,vbt_B1_day3,2022.2.4,MacIntel,58.82352941,,,,,,down,0,14.758,,0.411111111,-0.255555556,1,0,0,0,77,77,62,1,knaap,images/br_knaap.png,images/cb_knaap.png,1,knaap,,,,,,,,,,,,,,,,,,,,,
,,,,,00089,2023-10-26_16h00.46.212,vbt_B1_day3,2022.2.4,MacIntel,58.82352941,,,,,,down,0,10.36,,0.397777778,-0.248888889,1,0,0,0,78,78,181,1,toegeven,images/br_toegeven.png,images/cb_toegeven.png,1,toegeven,,,,,,,,,,,,,,,,,,,,,
,,,,,00089,2023-10-26_16h00.46.212,vbt_B1_day3,2022.2.4,MacIntel,58.82352941,,,,,,down,0,3.241,,0.251111111,-0.293333333,1,0,0,0,79,79,82,1,muziek,images/br_muziek.png,images/cb_muziek.png,0,,,,,,,,,,,,,,,,,,,,,,
,,,,,00089,2023-10-26_16h00.46.212,vbt_B1_day3,2022.2.4,MacIntel,58.82352941,,,,,,down,0,1.018,,0.251111111,-0.293333333,1,0,0,0,80,80,11,1,mode,images/br_mode.png,images/cb_mode.png,0,,,,,,,,,,,,,,,,,,,,,,
,,,,,00089,2023-10-26_16h00.46.212,vbt_B1_day3,2022.2.4,MacIntel,58.82352941,,,,,,down,0,1.185,,0.251111111,-0.293333333,1,0,0,0,81,81,109,1,totaal,images/br_totaal.png,images/cb_totaal.png,0,,,,,,,,,,,,,,,,,,,,,,
,,,,,00089,2023-10-26_16h00.46.212,vbt_B1_day3,2022.2.4,MacIntel,58.82352941,,,,,,down,0,22.61,,0.145555556,-0.233333333,1,0,0,0,82,82,142,1,snuiven,images/br_snuiven.png,images/cb_snuiven.png,1,snueven,,,,,,,,,,,,,,,,,,,,,
,,,,,00089,2023-10-26_16h00.46.212,vbt_B1_day3,2022.2.4,MacIntel,58.82352941,,,,,,down,0,2.886,,0.145555556,-0.233333333,1,0,0,0,83,83,4,1,moes,images/br_moes.png,images/cb_moes.png,0,,,,,,,,,,,,,,,,,,,,,,
,,,,,00089,2023-10-26_16h00.46.212,vbt_B1_day3,2022.2.4,MacIntel,58.82352941,,,,,,down,0,3.217,,0.145555556,-0.233333333,1,0,0,0,84,84,47,1,kabel,images/br_kabel.png,images/cb_kabel.png,0,,,,,,,,,,,,,,,,,,,,,,
,,,,,00089,2023-10-26_16h00.46.212,vbt_B1_day3,2022.2.4,MacIntel,58.82352941,,,,,,down,0,4.574,,0.145555556,-0.233333333,1,0,0,0,85,85,135,1,gedicht,images/br_gedicht.png,images/cb_gedicht.png,0,,,,,,,,,,,,,,,,,,,,,,
,,,,,00089,2023-10-26_16h00.46.212,vbt_B1_day3,2022.2.4,MacIntel,58.82352941,,,,,,down,0,1.341,,0.145555556,-0.233333333,1,0,0,0,86,86,165,1,feestdag,images/br_feestdag.png,images/cb_feestdag.png,0,,,,,,,,,,,,,,,,,,,,,,
,,,,,00089,2023-10-26_16h00.46.212,vbt_B1_day3,2022.2.4,MacIntel,58.82352941,,,,,,down,0,3.669,,0.281111111,-0.216666667,1,0,0,0,87,87,61,1,groen,images/br_groen.png,images/cb_groen.png,1,groen,,,,,,,,,,,,,,,,,,,,,
,,,,,00089,2023-10-26_16h00.46.212,vbt_B1_day3,2022.2.4,MacIntel,58.82352941,,,,,,down,0,5.282,,0.286666667,-0.215555556,1,0,0,0,88,88,3,1,mand,images/br_mand.png,images/cb_mand.png,0,,,,,,,,,,,,,,,,,,,,,,
,,,,,00089,2023-10-26_16h00.46.212,vbt_B1_day3,2022.2.4,MacIntel,58.82352941,,,,,,down,0,10.535,,0.286666667,-0.215555556,1,0,0,0,89,89,14,1,rijp,images/br_rijp.png,images/cb_rijp.png,0,,,,,,,,,,,,,,,,,,,,,,
,,,,,00089,2023-10-26_16h00.46.212,vbt_B1_day3,2022.2.4,MacIntel,58.82352941,,,,,,down,0,4.023,,0.286666667,-0.215555556,1,0,0,0,90,90,184,1,aandelen,images/br_aandelen.png,images/cb_aandelen.png,0,,,,,,,,,,,,,,,,,,,,,,
,,,,,00089,2023-10-26_16h00.46.212,vbt_B1_day3,2022.2.4,MacIntel,58.82352941,,,,,,down,0,6.601,,0.286666667,-0.215555556,1,0,0,0,91,91,148,1,smullen,images/br_smullen.png,images/cb_smullen.png,0,,,,,,,,,,,,,,,,,,,,,,
,,,,,00089,2023-10-26_16h00.46.212,vbt_B1_day3,2022.2.4,MacIntel,58.82352941,,,,,,down,0,5.219,,0.296666667,-0.161111111,1,0,0,0,92,92,48,1,steel,images/br_steel.png,images/cb_steel.png,0,,,,,,,,,,,,,,,,,,,,,,
,,,,,00089,2023-10-26_16h00.46.212,vbt_B1_day3,2022.2.4,MacIntel,58.82352941,,,,,,down,0,16.568,,0.296666667,-0.161111111,1,0,0,0,93,93,44,1,flits,images/br_flits.png,images/cb_flits.png,0,,,,,,,,,,,,,,,,,,,,,,
,,,,,00089,2023-10-26_16h00.46.212,vbt_B1_day3,2022.2.4,MacIntel,58.82352941,,,,,,down,0,3.356,,0.296666667,-0.161111111,1,0,0,0,94,94,51,1,samen,images/br_samen.png,images/cb_samen.png,0,,,,,,,,,,,,,,,,,,,,,,
,,,,,00089,2023-10-26_16h00.46.212,vbt_B1_day3,2022.2.4,MacIntel,58.82352941,,,,,,down,0,3.269,,0.296666667,-0.161111111,1,0,0,0,95,95,101,1,staren,images/br_staren.png,images/cb_staren.png,1,staren,,,,,,,,,,,,,,,,,,,,,
,,,,,00089,2023-10-26_16h00.46.212,vbt_B1_day3,2022.2.4,MacIntel,58.82352941,,,,,,down,0,4.384,,0.296666667,-0.161111111,1,0,0,0,96,96,36,1,vuur,images/br_vuur.png,images/cb_vuur.png,0,,,,,,,,,,,,,,,,,,,,,,
,,,,,00089,2023-10-26_16h00.46.212,vbt_B1_day3,2022.2.4,MacIntel,58.82352941,,,,,,down,0,11.685,,0.296666667,-0.161111111,1,0,0,0,97,97,49,1,laken,images/br_laken.png,images/cb_laken.png,0,,,,,,,,,,,,,,,,,,,,,,
,,,,,00089,2023-10-26_16h00.46.212,vbt_B1_day3,2022.2.4,MacIntel,58.82352941,,,,,,down,0,2.64,,0.296666667,-0.161111111,1,0,0,0,98,98,198,1,bedoelen,images/br_bedoelen.png,images/cb_bedoelen.png,0,,,,,,,,,,,,,,,,,,,,,,
,,,,,00089,2023-10-26_16h00.46.212,vbt_B1_day3,2022.2.4,MacIntel,58.82352941,,,,,,down,0,3.291,,0.296666667,-0.161111111,1,0,0,0,99,99,42,1,bleek,images/br_bleek.png,images/cb_bleek.png,0,,,,,,,,,,,,,,,,,,,,,,
,,,,,00089,2023-10-26_16h00.46.212,vbt_B1_day3,2022.2.4,MacIntel,58.82352941,,,,,,down,0,6.889,,0.296666667,-0.161111111,1,0,0,0,100,100,159,1,sufferd,images/br_sufferd.png,images/cb_sufferd.png,0,,,,,,,,,,,,,,,,,,,,,,
,,,,,00089,2023-10-26_16h00.46.212,vbt_B1_day3,2022.2.4,MacIntel,58.82352941,,,,,,down,0,8.185,,0.296666667,-0.161111111,1,0,0,0,101,101,77,1,woede,images/br_woede.png,images/cb_woede.png,0,,,,,,,,,,,,,,,,,,,,,,
,,,,,00089,2023-10-26_16h00.46.212,vbt_B1_day3,2022.2.4,MacIntel,58.82352941,,,,,,down,0,4.74,,0.335555556,-0.122222222,1,0,0,0,102,102,102,1,legaal,images/br_legaal.png,images/cb_legaal.png,1,legaal,,,,,,,,,,,,,,,,,,,,,
,,,,,00089,2023-10-26_16h00.46.212,vbt_B1_day3,2022.2.4,MacIntel,58.82352941,,,,,,down,0,0.884,,0.335555556,-0.123333333,1,0,0,0,103,103,185,1,mijnheer,images/br_mijnheer.png,images/cb_mijnheer.png,0,,,,,,,,,,,,,,,,,,,,,,
,,,,,00089,2023-10-26_16h00.46.212,vbt_B1_day3,2022.2.4,MacIntel,58.82352941,,,,,,down,0,0.274,,0.335555556,-0.121111111,1,0,0,0,104,104,119,1,liefje,images/br_liefje.png,images/cb_liefje.png,0,,,,,,,,,,,,,,,,,,,,,,
,,,,,00089,2023-10-26_16h00.46.212,vbt_B1_day3,2022.2.4,MacIntel,58.82352941,,,,,,down,0,2.55,,0.335555556,-0.121111111,1,0,0,0,105,105,114,1,vullen,images/br_vullen.png,images/cb_vullen.png,0,,,,,,,,,,,,,,,,,,,,,,
,,,,,00089,2023-10-26_16h00.46.212,vbt_B1_day3,2022.2.4,MacIntel,58.82352941,,,,,,down,0,1.368,,0.334444444,-0.121111111,1,0,0,0,106,106,195,1,middelen,images/br_middelen.png,images/cb_middelen.png,0,,,,,,,,,,,,,,,,,,,,,,
,,,,,00089,2023-10-26_16h00.46.212,vbt_B1_day3,2022.2.4,MacIntel,58.82352941,,,,,,down,0,13.001,,0.324444444,-0.187777778,1,0,0,0,107,107,2,1,jaar,images/br_jaar.png,images/cb_jaar.png,0,,,,,,,,,,,,,,,,,,,,,,
,,,,,00089,2023-10-26_16h00.46.212,vbt_B1_day3,2022.2.4,MacIntel,58.82352941,,,,,,down,0,4.72,,0.324444444,-0.187777778,1,0,0,0,108,108,153,1,vervoer,images/br_vervoer.png,images/cb_vervoer.png,0,,,,,,,,,,,,,,,,,,,,,,
,,,,,00089,2023-10-26_16h00.46.212,vbt_B1_day3,2022.2.4,MacIntel,58.82352941,,,,,,down,0,1.935,,0.324444444,-0.187777778,1,0,0,0,109,109,65,1,parel,images/br_parel.png,images/cb_parel.png,0,,,,,,,,,,,,,,,,,,,,,,
,,,,,00089,2023-10-26_16h00.46.212,vbt_B1_day3,2022.2.4,MacIntel,58.82352941,,,,,,down,0,6.687,,0.324444444,-0.187777778,1,0,0,0,110,110,140,1,blijven,images/br_blijven.png,images/cb_blijven.png,1,blijven,,,,,,,,,,,,,,,,,,,,,
,,,,,00089,2023-10-26_16h00.46.212,vbt_B1_day3,2022.2.4,MacIntel,58.82352941,,,,,,down,0,1.973,,0.324444444,-0.187777778,1,0,0,0,111,111,188,1,strekken,images/br_strekken.png,images/cb_strekken.png,0,,,,,,,,,,,,,,,,,,,,,,
,,,,,00089,2023-10-26_16h00.46.212,vbt_B1_day3,2022.2.4,MacIntel,58.82352941,,,,,,down,0,4.652,,0.328888889,-0.187777778,1,0,0,0,112,112,23,1,zout,images/br_zout.png,images/cb_zout.png,1,zout,,,,,,,,,,,,,,,,,,,,,
,,,,,00089,2023-10-26_16h00.46.212,vbt_B1_day3,2022.2.4,MacIntel,58.82352941,,,,,,down,0,0.041,,0.352222222,-0.195555556,1,0,0,0,113,113,138,1,akkoord,images/br_akkoord.png,images/cb_akkoord.png,0,,,,,,,,,,,,,,,,,,,,,,
,,,,,00089,2023-10-26_16h00.46.212,vbt_B1_day3,2022.2.4,MacIntel,58.82352941,,,,,,down,0,1.633,,0.352222222,-0.195555556,1,0,0,0,114,114,190,1,goedkoop,images/br_goedkoop.png,images/cb_goedkoop.png,0,,,,,,,,,,,,,,,,,,,,,,
,,,,,00089,2023-10-26_16h00.46.212,vbt_B1_day3,2022.2.4,MacIntel,58.82352941,,,,,,down,0,6.518,,0.352222222,-0.195555556,1,0,0,0,115,115,92,1,geheim,images/br_geheim.png,images/cb_geheim.png,0,,,,,,,,,,,,,,,,,,,,,,
,,,,,00089,2023-10-26_16h00.46.212,vbt_B1_day3,2022.2.4,MacIntel,58.82352941,,,,,,down,0,7.485,,0.352222222,-0.195555556,1,0,0,0,116,116,132,1,grappen,images/br_grappen.png,images/cb_grappen.png,0,,,,,,,,,,,,,,,,,,,,,,
,,,,,00089,2023-10-26_16h00.46.212,vbt_B1_day3,2022.2.4,MacIntel,58.82352941,,,,,,down,0,0.267,,0.35,-0.195555556,1,0,0,0,117,117,123,1,hiervan,images/br_hiervan.png,images/cb_hiervan.png,0,,,,,,,,,,,,,,,,,,,,,,
,,,,,00089,2023-10-26_16h00.46.212,vbt_B1_day3,2022.2.4,MacIntel,58.82352941,,,,,,down,0,6,,0.35,-0.195555556,1,0,0,0,118,118,58,1,tekst,images/br_tekst.png,images/cb_tekst.png,0,,,,,,,,,,,,,,,,,,,,,,
,,,,,00089,2023-10-26_16h00.46.212,vbt_B1_day3,2022.2.4,MacIntel,58.82352941,,,,,,down,0,1.518,,0.35,-0.195555556,1,0,0,0,119,119,1,1,zaal,images/br_zaal.png,images/cb_zaal.png,0,,,,,,,,,,,,,,,,,,,,,,
,,,,,00089,2023-10-26_16h00.46.212,vbt_B1_day3,2022.2.4,MacIntel,58.82352941,,,,,,down,0,2.801,,0.35,-0.195555556,1,0,0,0,120,120,86,1,woning,images/br_woning.png,images/cb_woning.png,0,,,,,,,,,,,,,,,,,,,,,,
,,,,,00089,2023-10-26_16h00.46.212,vbt_B1_day3,2022.2.4,MacIntel,58.82352941,,,,,,down,0,8.785,,0.35,-0.195555556,1,0,0,0,121,121,107,1,maling,images/br_maling.png,images/cb_maling.png,0,,,,,,,,,,,,,,,,,,,,,,
,,,,,00089,2023-10-26_16h00.46.212,vbt_B1_day3,2022.2.4,MacIntel,58.82352941,,,,,,down,0,4.524,,0.35,-0.195555556,1,0,0,0,122,122,32,1,palm,images/br_palm.png,images/cb_palm.png,0,,,,,,,,,,,,,,,,,,,,,,
,,,,,00089,2023-10-26_16h00.46.212,vbt_B1_day3,2022.2.4,MacIntel,58.82352941,,,,,,down,0,0.157,,0.35,-0.195555556,1,0,0,0,123,123,136,1,waarbij,images/br_waarbij.png,images/cb_waarbij.png,0,,,,,,,,,,,,,,,,,,,,,,
,,,,,00089,2023-10-26_16h00.46.212,vbt_B1_day3,2022.2.4,MacIntel,58.82352941,,,,,,down,0,6.167,,0.35,-0.195555556,1,0,0,0,124,124,96,1,slagen,images/br_slagen.png,images/cb_slagen.png,0,,,,,,,,,,,,,,,,,,,,,,
,,,,,00089,2023-10-26_16h00.46.212,vbt_B1_day3,2022.2.4,MacIntel,58.82352941,,,,,,down,0,0.084,,0.35,-0.195555556,1,0,0,0,125,125,175,1,heengaan,images/br_heengaan.png,images/cb_heengaan.png,0,,,,,,,,,,,,,,,,,,,,,,
,,,,,00089,2023-10-26_16h00.46.212,vbt_B1_day3,2022.2.4,MacIntel,58.82352941,,,,,,down,0,16.286,,0.35,-0.197777778,1,0,0,0,126,126,83,1,mening,images/br_mening.png,images/cb_mening.png,0,,,,,,,,,,,,,,,,,,,,,,
,,,,,00089,2023-10-26_16h00.46.212,vbt_B1_day3,2022.2.4,MacIntel,58.82352941,,,,,,down,0,12.741,,0.344444444,-0.197777778,1,0,0,0,127,127,73,1,volop,images/br_volop.png,images/cb_volop.png,0,,,,,,,,,,,,,,,,,,,,,,
,,,,,00089,2023-10-26_16h00.46.212,vbt_B1_day3,2022.2.4,MacIntel,58.82352941,,,,,,down,0,1.535,,0.345555556,-0.197777778,1,0,0,0,128,128,0,1,slak,images/br_slak.png,images/cb_slak.png,0,,,,,,,,,,,,,,,,,,,,,,
,,,,,00089,2023-10-26_16h00.46.212,vbt_B1_day3,2022.2.4,MacIntel,58.82352941,,,,,,down,0,5.801,,0.345555556,-0.197777778,1,0,0,0,129,129,117,1,kennis,images/br_kennis.png,images/cb_kennis.png,0,,,,,,,,,,,,,,,,,,,,,,
,,,,,00089,2023-10-26_16h00.46.212,vbt_B1_day3,2022.2.4,MacIntel,58.82352941,,,,,,down,0,0.569,,0.34,-0.198888889,1,0,0,0,130,130,137,1,trekker,images/br_trekker.png,images/cb_trekker.png,0,,,,,,,,,,,,,,,,,,,,,,
,,,,,00089,2023-10-26_16h00.46.212,vbt_B1_day3,2022.2.4,MacIntel,58.82352941,,,,,,down,0,4.567,,0.347777778,-0.197777778,1,0,0,0,131,131,22,1,stof,images/br_stof.png,images/cb_stof.png,1,stof,,,,,,,,,,,,,,,,,,,,,
,,,,,00089,2023-10-26_16h00.46.212,vbt_B1_day3,2022.2.4,MacIntel,58.82352941,,,,,,down,0,9.172,,0.346666667,-0.197777778,1,0,0,0,132,132,164,1,anarchie,images/br_anarchie.png,images/cb_anarchie.png,0,,,,,,,,,,,,,,,,,,,,,,
,,,,,00089,2023-10-26_16h00.46.212,vbt_B1_day3,2022.2.4,MacIntel,58.82352941,,,,,,down,0,0.405,,0.346666667,-0.197777778,1,0,0,0,133,133,171,1,aarzelen,images/br_aarzelen.png,images/cb_aarzelen.png,0,,,,,,,,,,,,,,,,,,,,,,
,,,,,00089,2023-10-26_16h00.46.212,vbt_B1_day3,2022.2.4,MacIntel,58.82352941,,,,,,down,0,2.517,,0.347777778,-0.196666667,1,0,0,0,134,134,16,1,ziek,images/br_ziek.png,images/cb_ziek.png,0,,,,,,,,,,,,,,,,,,,,,,
,,,,,00089,2023-10-26_16h00.46.212,vbt_B1_day3,2022.2.4,MacIntel,58.82352941,,,,,,down,0,18.373,,0.355555556,-0.196666667,1,0,0,0,135,135,118,1,vinger,images/br_vinger.png,images/cb_vinger.png,0,,,,,,,,,,,,,,,,,,,,,,
,,,,,00089,2023-10-26_16h00.46.212,vbt_B1_day3,2022.2.4,MacIntel,58.82352941,,,,,,down,0,3.834,,0.31,-0.191111111,1,0,0,0,136,136,154,1,aflopen,images/br_aflopen.png,images/cb_aflopen.png,0,,,,,,,,,,,,,,,,,,,,,,
,,,,,00089,2023-10-26_16h00.46.212,vbt_B1_day3,2022.2.4,MacIntel,58.82352941,,,,,,down,0,4.62,,0.358888889,-0.185555556,1,0,0,0,137,137,20,1,site,images/br_site.png,images/cb_site.png,1,site,,,,,,,,,,,,,,,,,,,,,
,,,,,00089,2023-10-26_16h00.46.212,vbt_B1_day3,2022.2.4,MacIntel,58.82352941,,,,,,down,0,6.633,,0.358888889,-0.185555556,1,0,0,0,138,138,199,1,beseffen,images/br_beseffen.png,images/cb_beseffen.png,0,,,,,,,,,,,,,,,,,,,,,,
,,,,,00089,2023-10-26_16h00.46.212,vbt_B1_day3,2022.2.4,MacIntel,58.82352941,,,,,,down,0,0.896,,0.358888889,-0.186666667,1,0,0,0,139,139,133,1,seizoen,images/br_seizoen.png,images/cb_seizoen.png,0,,,,,,,,,,,,,,,,,,,,,,
,,,,,00089,2023-10-26_16h00.46.212,vbt_B1_day3,2022.2.4,MacIntel,58.82352941,,,,,,down,0,7.884,,0.358888889,-0.186666667,1,0,0,0,140,140,67,1,zwart,images/br_zwart.png,images/cb_zwart.png,0,,,,,,,,,,,,,,,,,,,,,,
,,,,,00089,2023-10-26_16h00.46.212,vbt_B1_day3,2022.2.4,MacIntel,58.82352941,,,,,,down,0,4.636,,0.358888889,-0.186666667,1,0,0,0,141,141,34,1,vorm,images/br_vorm.png,images/cb_vorm.png,0,,,,,,,,,,,,,,,,,,,,,,
,,,,,00089,2023-10-26_16h00.46.212,vbt_B1_day3,2022.2.4,MacIntel,58.82352941,,,,,,down,0,5.399,,0.358888889,-0.186666667,1,0,0,0,142,142,87,1,toeval,images/br_toeval.png,images/cb_toeval.png,0,,,,,,,,,,,,,,,,,,,,,,
,,,,,00089,2023-10-26_16h00.46.212,vbt_B1_day3,2022.2.4,MacIntel,58.82352941,,,,,,down,0,4.537,,0.358888889,-0.186666667,1,0,0,0,143,143,93,1,waarop,images/br_waarop.png,images/cb_waarop.png,0,,,,,,,,,,,,,,,,,,,,,,
,,,,,00089,2023-10-26_16h00.46.212,vbt_B1_day3,2022.2.4,MacIntel,58.82352941,,,,,,down,0,0.36,,0.358888889,-0.186666667,1,0,0,0,144,144,122,1,waarvan,images/br_waarvan.png,images/cb_waarvan.png,0,,,,,,,,,,,,,,,,,,,,,,
,,,,,00089,2023-10-26_16h00.46.212,vbt_B1_day3,2022.2.4,MacIntel,58.82352941,,,,,,down,0,7.634,,0.358888889,-0.186666667,1,0,0,0,145,145,94,1,oceaan,images/br_oceaan.png,images/cb_oceaan.png,0,,,,,,,,,,,,,,,,,,,,,,
,,,,,00089,2023-10-26_16h00.46.212,vbt_B1_day3,2022.2.4,MacIntel,58.82352941,,,,,,down,0,3.068,,0.358888889,-0.186666667,0,0,1,0,146,146,21,1,mist,images/br_mist.png,images/cb_mist.png,1,mist,,,,,,,,,,,,,,,,,,,,,
,,,,,00089,2023-10-26_16h00.46.212,vbt_B1_day3,2022.2.4,MacIntel,58.82352941,,,,,,down,0,3.401,,0.267777778,-0.162222222,1,0,1,0,147,147,170,1,schatten,images/br_schatten.png,images/cb_schatten.png,0,,,,,,,,,,,,,,,,,,,,,,
,,,,,00089,2023-10-26_16h00.46.212,vbt_B1_day3,2022.2.4,MacIntel,58.82352941,,,,,,down,0,3.925,,0.267777778,-0.162222222,1,0,1,0,148,148,151,1,aanzoek,images/br_aanzoek.png,images/cb_aanzoek.png,0,,,,,,,,,,,,,,,,,,,,,,
,,,,,00089,2023-10-26_16h00.46.212,vbt_B1_day3,2022.2.4,MacIntel,58.82352941,,,,,,down,0,0.771,,0.267777778,-0.162222222,1,0,1,0,149,149,197,1,spanning,images/br_spanning.png,images/cb_spanning.png,0,,,,,,,,,,,,,,,,,,,,,,
,,,,,00089,2023-10-26_16h00.46.212,vbt_B1_day3,2022.2.4,MacIntel,58.82352941,,,,,,down,0,3.717,,0.267777778,-0.162222222,1,0,1,0,150,150,55,1,praat,images/br_praat.png,images/cb_praat.png,0,,,,,,,,,,,,,,,,,,,,,,
,,,,,00089,2023-10-26_16h00.46.212,vbt_B1_day3,2022.2.4,MacIntel,58.82352941,,,,,,down,0,0.651,,0.267777778,-0.162222222,1,0,1,0,151,151,147,1,komisch,images/br_komisch.png,images/cb_komisch.png,0,,,,,,,,,,,,,,,,,,,,,,
,,,,,00089,2023-10-26_16h00.46.212,vbt_B1_day3,2022.2.4,MacIntel,58.82352941,,,,,,down,0,3.005,,0.267777778,-0.162222222,1,0,1,0,152,152,46,1,jagen,images/br_jagen.png,images/cb_jagen.png,0,,,,,,,,,,,,,,,,,,,,,,
,,,,,00089,2023-10-26_16h00.46.212,vbt_B1_day3,2022.2.4,MacIntel,58.82352941,,,,,,down,0,0.367,,0.267777778,-0.162222222,1,0,1,0,153,153,189,1,aanraden,images/br_aanraden.png,images/cb_aanraden.png,0,,,,,,,,,,,,,,,,,,,,,,
,,,,,00089,2023-10-26_16h00.46.212,vbt_B1_day3,2022.2.4,MacIntel,58.82352941,,,,,,down,0,4.969,,0.267777778,-0.162222222,1,0,1,0,154,154,75,1,snoep,images/br_snoep.png,images/cb_snoep.png,0,,,,,,,,,,,,,,,,,,,,,,
,,,,,00089,2023-10-26_16h00.46.212,vbt_B1_day3,2022.2.4,MacIntel,58.82352941,,,,,,down,0,2.89,,0.267777778,-0.162222222,1,0,1,0,155,155,30,1,uien,images/br_uien.png,images/cb_uien.png,0,,,,,,,,,,,,,,,,,,,,,,
,,,,,00089,2023-10-26_16h00.46.212,vbt_B1_day3,2022.2.4,MacIntel,58.82352941,,,,,,down,0,4.052,,0.267777778,-0.162222222,1,0,1,0,156,156,129,1,verhaal,images/br_verhaal.png,images/cb_verhaal.png,0,,,,,,,,,,,,,,,,,,,,,,
,,,,,00089,2023-10-26_16h00.46.212,vbt_B1_day3,2022.2.4,MacIntel,58.82352941,,,,,,down,0,1.017,,0.267777778,-0.162222222,1,0,1,0,157,157,29,1,baas,images/br_baas.png,images/cb_baas.png,0,,,,,,,,,,,,,,,,,,,,,,
,,,,,00089,2023-10-26_16h00.46.212,vbt_B1_day3,2022.2.4,MacIntel,58.82352941,,,,,,down,0,5.75,,0.267777778,-0.162222222,1,0,1,0,158,158,78,1,leren,images/br_leren.png,images/cb_leren.png,0,,,,,,,,,,,,,,,,,,,,,,
,,,,,00089,2023-10-26_16h00.46.212,vbt_B1_day3,2022.2.4,MacIntel,58.82352941,,,,,,down,0,0.934,,0.267777778,-0.162222222,1,0,1,0,159,159,126,1,kasteel,images/br_kasteel.png,images/cb_kasteel.png,0,,,,,,,,,,,,,,,,,,,,,,
,,,,,00089,2023-10-26_16h00.46.212,vbt_B1_day3,2022.2.4,MacIntel,58.82352941,,,,,,down,0,2.749,,0.267777778,-0.162222222,1,0,1,0,160,160,104,1,zweven,images/br_zweven.png,images/cb_zweven.png,0,,,,,,,,,,,,,,,,,,,,,,
,,,,,00089,2023-10-26_16h00.46.212,vbt_B1_day3,2022.2.4,MacIntel,58.82352941,,,,,,down,0,5.001,,0.267777778,-0.162222222,1,0,1,0,161,161,18,1,blik,images/br_blik.png,images/cb_blik.png,0,,,,,,,,,,,,,,,,,,,,,,
,,,,,00089,2023-10-26_16h00.46.212,vbt_B1_day3,2022.2.4,MacIntel,58.82352941,,,,,,down,0,3.968,,0.267777778,-0.162222222,1,0,1,0,162,162,124,1,bloeien,images/br_bloeien.png,images/cb_bloeien.png,0,,,,,,,,,,,,,,,,,,,,,,
,,,,,00089,2023-10-26_16h00.46.212,vbt_B1_day3,2022.2.4,MacIntel,58.82352941,,,,,,down,0,0.369,,0.248888889,-0.16,1,0,1,0,163,163,167,1,eenhoorn,images/br_eenhoorn.png,images/cb_eenhoorn.png,0,,,,,,,,,,,,,,,,,,,,,,
,,,,,00089,2023-10-26_16h00.46.212,vbt_B1_day3,2022.2.4,MacIntel,58.82352941,,,,,,down,0,4.633,,0.248888889,-0.16,1,0,1,0,164,164,99,1,koffie,images/br_koffie.png,images/cb_koffie.png,0,,,,,,,,,,,,,,,,,,,,,,
,,,,,00089,2023-10-26_16h00.46.212,vbt_B1_day3,2022.2.4,MacIntel,58.82352941,,,,,,down,0,3.668,,0.231111111,-0.16,1,0,1,0,165,165,178,1,huisdier,images/br_huisdier.png,images/cb_huisdier.png,0,,,,,,,,,,,,,,,,,,,,,,
,,,,,00089,2023-10-26_16h00.46.212,vbt_B1_day3,2022.2.4,MacIntel,58.82352941,,,,,,down,0,9.37,,0.23,-0.16,1,0,1,0,166,166,111,1,ticket,images/br_ticket.png,images/cb_ticket.png,0,,,,,,,,,,,,,,,,,,,,,,
,,,,,00089,2023-10-26_16h00.46.212,vbt_B1_day3,2022.2.4,MacIntel,58.82352941,,,,,,down,0,9.235,,0.23,-0.16,1,0,1,0,167,167,134,1,geliefd,images/br_geliefd.png,images/cb_geliefd.png,0,,,,,,,,,,,,,,,,,,,,,,
,,,,,00089,2023-10-26_16h00.46.212,vbt_B1_day3,2022.2.4,MacIntel,58.82352941,,,,,,down,0,1.634,,0.23,-0.16,1,0,1,0,168,168,186,1,voorraad,images/br_voorraad.png,images/cb_voorraad.png,0,,,,,,,,,,,,,,,,,,,,,,
,,,,,00089,2023-10-26_16h00.46.212,vbt_B1_day3,2022.2.4,MacIntel,58.82352941,,,,,,down,0,1.905,,0.23,-0.16,1,0,1,0,169,169,139,1,stiekem,images/br_stiekem.png,images/cb_stiekem.png,0,,,,,,,,,,,,,,,,,,,,,,
,,,,,00089,2023-10-26_16h00.46.212,vbt_B1_day3,2022.2.4,MacIntel,58.82352941,,,,,,down,0,1.257,,0.23,-0.16,1,0,1,0,170,170,168,1,bisschop,images/br_bisschop.png,images/cb_bisschop.png,0,,,,,,,,,,,,,,,,,,,,,,
,,,,,00089,2023-10-26_16h00.46.212,vbt_B1_day3,2022.2.4,MacIntel,58.82352941,,,,,,down,0,1.902,,0.23,-0.16,1,0,1,0,171,171,113,1,koppen,images/br_koppen.png,images/cb_koppen.png,0,,,,,,,,,,,,,,,,,,,,,,
,,,,,00089,2023-10-26_16h00.46.212,vbt_B1_day3,2022.2.4,MacIntel,58.82352941,,,,,,down,0,1.068,,0.23,-0.16,1,0,1,0,172,172,176,1,techniek,images/br_techniek.png,images/cb_techniek.png,0,,,,,,,,,,,,,,,,,,,,,,
,,,,,00089,2023-10-26_16h00.46.212,vbt_B1_day3,2022.2.4,MacIntel,58.82352941,,,,,,down,0,1.001,,0.23,-0.16,1,0,1,0,173,173,120,1,klimmen,images/br_klimmen.png,images/cb_klimmen.png,0,,,,,,,,,,,,,,,,,,,,,,
,,,,,00089,2023-10-26_16h00.46.212,vbt_B1_day3,2022.2.4,MacIntel,58.82352941,,,,,,down,0,17.552,,0.23,-0.16,1,0,1,0,174,174,90,1,geluid,images/br_geluid.png,images/cb_geluid.png,0,,,,,,,,,,,,,,,,,,,,,,
,,,,,00089,2023-10-26_16h00.46.212,vbt_B1_day3,2022.2.4,MacIntel,58.82352941,,,,,,down,0,6.335,,0.23,-0.16,1,0,1,0,175,175,157,1,uitlaat,images/br_uitlaat.png,images/cb_uitlaat.png,0,,,,,,,,,,,,,,,,,,,,,,
,,,,,00089,2023-10-26_16h00.46.212,vbt_B1_day3,2022.2.4,MacIntel,58.82352941,,,,,,down,0,6.59,,0.23,-0.16,1,0,1,0,176,176,9,1,hier,images/br_hier.png,images/cb_hier.png,0,,,,,,,,,,,,,,,,,,,,,,
,,,,,00089,2023-10-26_16h00.46.212,vbt_B1_day3,2022.2.4,MacIntel,58.82352941,,,,,,down,0,1.002,,0.23,-0.16,1,0,1,0,177,177,74,1,graaf,images/br_graaf.png,images/cb_graaf.png,0,,,,,,,,,,,,,,,,,,,,,,
,,,,,00089,2023-10-26_16h00.46.212,vbt_B1_day3,2022.2.4,MacIntel,58.82352941,,,,,,down,0,21.985,,0.288888889,-0.121111111,1,0,1,0,178,178,80,1,kanjer,images/br_kanjer.png,images/cb_kanjer.png,0,,,,,,,,,,,,,,,,,,,,,,
,,,,,00089,2023-10-26_16h00.46.212,vbt_B1_day3,2022.2.4,MacIntel,58.82352941,,,,,,down,0,10.585,,0.344444444,-0.122222222,1,0,1,0,179,179,60,1,jasje,images/br_jasje.png,images/cb_jasje.png,1,jasje,,,,,,,,,,,,,,,,,,,,,
,,,,,00089,2023-10-26_16h00.46.212,vbt_B1_day3,2022.2.4,MacIntel,58.82352941,,,,,,down,0,1.518,,0.342222222,-0.124444444,1,0,1,0,180,180,179,1,woestijn,images/br_woestijn.png,images/cb_woestijn.png,0,,,,,,,,,,,,,,,,,,,,,,
,,,,,00089,2023-10-26_16h00.46.212,vbt_B1_day3,2022.2.4,MacIntel,58.82352941,,,,,,down,0,9.518,,0.342222222,-0.124444444,1,0,1,0,181,181,79,1,nodig,images/br_nodig.png,images/cb_nodig.png,0,,,,,,,,,,,,,,,,,,,,,,
,,,,,00089,2023-10-26_16h00.46.212,vbt_B1_day3,2022.2.4,MacIntel,58.82352941,,,,,,down,0,1.643,,0.337777778,-0.11,1,0,1,0,182,182,8,1,knie,images/br_knie.png,images/cb_knie.png,0,,,,,,,,,,,,,,,,,,,,,,
,,,,,00089,2023-10-26_16h00.46.212,vbt_B1_day3,2022.2.4,MacIntel,58.82352941,,,,,,down,0,6.237,,0.338888889,-0.112222222,1,0,1,0,183,183,180,1,openbaar,images/br_openbaar.png,images/cb_openbaar.png,1,openbaar,,,,,,,,,,,,,,,,,,,,,
,,,,,00089,2023-10-26_16h00.46.212,vbt_B1_day3,2022.2.4,MacIntel,58.82352941,,,,,,down,0,4.768,,0.361111111,-0.102222222,1,0,1,0,184,184,141,1,knielen,images/br_knielen.png,images/cb_knielen.png,1,knielen,,,,,,,,,,,,,,,,,,,,,
,,,,,00089,2023-10-26_16h00.46.212,vbt_B1_day3,2022.2.4,MacIntel,58.82352941,,,,,,down,0,11.924,,0.36,-0.098888889,1,0,1,0,185,185,59,1,kring,images/br_kring.png,images/cb_kring.png,0,,,,,,,,,,,,,,,,,,,,,,
,,,,,00089,2023-10-26_16h00.46.212,vbt_B1_day3,2022.2.4,MacIntel,58.82352941,,,,,,down,0,2.816,,0.365555556,-0.102222222,1,0,1,0,186,186,121,1,twijfel,images/br_twijfel.png,images/cb_twijfel.png,0,,,,,,,,,,,,,,,,,,,,,,
,,,,,00089,2023-10-26_16h00.46.212,vbt_B1_day3,2022.2.4,MacIntel,58.82352941,,,,,,down,0,2.307,,0.364444444,-0.102222222,1,0,1,0,187,187,56,1,traag,images/br_traag.png,images/cb_traag.png,0,,,,,,,,,,,,,,,,,,,,,,
,,,,,00089,2023-10-26_16h00.46.212,vbt_B1_day3,2022.2.4,MacIntel,58.82352941,,,,,,down,0,4.388,,0.364444444,-0.102222222,1,0,1,0,188,188,71,1,bever,images/br_bever.png,images/cb_bever.png,0,,,,,,,,,,,,,,,,,,,,,,
,,,,,00089,2023-10-26_16h00.46.212,vbt_B1_day3,2022.2.4,MacIntel,58.82352941,,,,,,down,0,6.503,,0.364444444,-0.102222222,1,0,1,0,189,189,13,1,kaal,images/br_kaal.png,images/cb_kaal.png,0,,,,,,,,,,,,,,,,,,,,,,
,,,,,00089,2023-10-26_16h00.46.212,vbt_B1_day3,2022.2.4,MacIntel,58.82352941,,,,,,down,0,10.969,,0.333333333,-0.138888889,1,0,1,0,190,190,130,1,keihard,images/br_keihard.png,images/cb_keihard.png,0,,,,,,,,,,,,,,,,,,,,,,
,,,,,00089,2023-10-26_16h00.46.212,vbt_B1_day3,2022.2.4,MacIntel,58.82352941,,,,,,down,0,3.383,,0.333333333,-0.138888889,1,0,1,0,191,191,172,1,weigeren,images/br_weigeren.png,images/cb_weigeren.png,0,,,,,,,,,,,,,,,,,,,,,,
,,,,,00089,2023-10-26_16h00.46.212,vbt_B1_day3,2022.2.4,MacIntel,58.82352941,,,,,,down,0,2.872,,0.401111111,-0.144444444,1,0,1,0,192,192,103,1,joggen,images/br_joggen.png,images/cb_joggen.png,1,"joggen
",,,,,,,,,,,,,,,,,,,,,
,,,,,00089,2023-10-26_16h00.46.212,vbt_B1_day3,2022.2.4,MacIntel,58.82352941,,,,,,down,0,0.484,,0.373333333,-0.157777778,1,0,1,0,193,193,163,1,schuilen,images/br_schuilen.png,images/cb_schuilen.png,0,,,,,,,,,,,,,,,,,,,,,,
,,,,,00089,2023-10-26_16h00.46.212,vbt_B1_day3,2022.2.4,MacIntel,58.82352941,,,,,,down,0,3.008,,0.373333333,-0.157777778,1,0,1,0,194,194,50,1,stoom,images/br_stoom.png,images/cb_stoom.png,0,,,,,,,,,,,,,,,,,,,,,,
,,,,,00089,2023-10-26_16h00.46.212,vbt_B1_day3,2022.2.4,MacIntel,58.82352941,,,,,,down,0,4.624,,0.373333333,-0.157777778,1,0,1,0,195,195,43,1,klauw,images/br_klauw.png,images/cb_klauw.png,0,,,,,,,,,,,,,,,,,,,,,,
,,,,,00089,2023-10-26_16h00.46.212,vbt_B1_day3,2022.2.4,MacIntel,58.82352941,,,,,,down,0,0.751,,0.373333333,-0.157777778,1,0,1,0,196,196,17,1,taal,images/br_taal.png,images/cb_taal.png,0,,,,,,,,,,,,,,,,,,,,,,
,,,,,00089,2023-10-26_16h00.46.212,vbt_B1_day3,2022.2.4,MacIntel,58.82352941,,,,,,down,0,1.683,,0.373333333,-0.157777778,1,0,1,0,197,197,84,1,lokken,images/br_lokken.png,images/cb_lokken.png,0,,,,,,,,,,,,,,,,,,,,,,
,,,,,00089,2023-10-26_16h00.46.212,vbt_B1_day3,2022.2.4,MacIntel,58.82352941,,,,,,down,0,4.101,,0.373333333,-0.157777778,1,0,1,0,198,198,76,1,afval,images/br_afval.png,images/cb_afval.png,0,,,,,,,,,,,,,,,,,,,,,,
,,,,,00089,2023-10-26_16h00.46.212,vbt_B1_day3,2022.2.4,MacIntel,58.82352941,,,,,,down,0,0.301,,0.378888889,-0.16,1,0,1,0,199,199,162,1,uitdelen,images/br_uitdelen.png,images/cb_uitdelen.png,0,,,,,,,,,,,,,,,,,,,,,,
,,,,,00089,2023-10-26_16h00.46.212,vbt_B1_day3,2022.2.4,MacIntel,58.82352941,,,,,,,,,,,,,,,,,,,,,,,,,0.378888889,-0.16,0,0,1,,,,,,,,,,,,,,,,
,,,,,00089,2023-10-26_16h00.46.212,vbt_B1_day3,2022.2.4,MacIntel,58.82352941,,,,,,,,,,,,,,,,,,,,,,,,,,,,,,0.368888889,-0.145555556,1,0,1,,,,,,,,,,,
,,,,,00089,2023-10-26_16h00.46.212,vbt_B1_day3,2022.2.4,MacIntel,58.82352941,,,,,,,,,,,,,,,,,,,,begrip,images/br_begrip.png,images/cb_begrip.png,,begris,,,,,,,,,,,0.21,-0.263333333,1,0,1,begris,0,0,0,48,1
,,,,,00089,2023-10-26_16h00.46.212,vbt_B1_day3,2022.2.4,MacIntel,58.82352941,,,,,,,,,,,,,,,,,,,,aarzelen,images/br_aarzelen.png,images/cb_aarzelen.png,,"aarnel,,",,,,,,,,,,,0.423333333,-0.193333333,1,0,1,"aarnel,,",0,1,1,19,1
,,,,,00089,2023-10-26_16h00.46.212,vbt_B1_day3,2022.2.4,MacIntel,58.82352941,,,,,,,,,,,,,,,,,,,,booien,images/br_booien.png,images/cb_booien.png,,booien,,,,,,,,,,,0.314444444,-0.23,1,0,1,booien,0,2,2,31,1
,,,,,00089,2023-10-26_16h00.46.212,vbt_B1_day3,2022.2.4,MacIntel,58.82352941,,,,,,,,,,,,,,,,,,,,uviek,images/br_uviek.png,images/cb_uviek.png,,uviek,,,,,,,,,,,0.167777778,-0.271111111,1,0,1,uviek,0,3,3,25,1
,,,,,00089,2023-10-26_16h00.46.212,vbt_B1_day3,2022.2.4,MacIntel,58.82352941,,,,,,,,,,,,,,,,,,,,bisschop,images/br_bisschop.png,images/cb_bisschop.png,,bisschop,,,,,,,,,,,0.233333333,-0.286666667,1,0,1,bisschop,0,4,4,16,1
,,,,,00089,2023-10-26_16h00.46.212,vbt_B1_day3,2022.2.4,MacIntel,58.82352941,,,,,,,,,,,,,,,,,,,,slapen,images/br_slapen.png,images/cb_slapen.png,,slapen,,,,,,,,,,,0.341111111,-0.294444444,1,0,1,slapen,0,5,5,9,1
,,,,,00089,2023-10-26_16h00.46.212,vbt_B1_day3,2022.2.4,MacIntel,58.82352941,,,,,,,,,,,,,,,,,,,,alsof,images/br_alsof.png,images/cb_alsof.png,,alsof,,,,,,,,,,,0.381111111,-0.282222222,1,0,1,alsof,0,6,6,44,1
,,,,,00089,2023-10-26_16h00.46.212,vbt_B1_day3,2022.2.4,MacIntel,58.82352941,,,,,,,,,,,,,,,,,,,,sultan,images/br_sultan.png,images/cb_sultan.png,,sultan,,,,,,,,,,,0.354444444,-0.254444444,1,0,1,sultan,0,7,7,49,1
,,,,,00089,2023-10-26_16h00.46.212,vbt_B1_day3,2022.2.4,MacIntel,58.82352941,,,,,,,,,,,,,,,,,,,,hier,images/br_hier.png,images/cb_hier.png,,hier,,,,,,,,,,,0.402222222,-0.2,1,0,1,hier,0,8,8,1,1
,,,,,00089,2023-10-26_16h00.46.212,vbt_B1_day3,2022.2.4,MacIntel,58.82352941,,,,,,,,,,,,,,,,,,,,invallen,images/br_invallen.png,images/cb_invallen.png,,invallen,,,,,,,,,,,0.436666667,-0.183333333,1,0,1,invallen,0,9,9,57,1
,,,,,00089,2023-10-26_16h00.46.212,vbt_B1_day3,2022.2.4,MacIntel,58.82352941,,,,,,,,,,,,,,,,,,,,gebod,images/br_gebod.png,images/cb_gebod.png,,gebod,,,,,,,,,,,0.324444444,-0.171111111,1,0,1,gebod,0,10,10,45,1
,,,,,00089,2023-10-26_16h00.46.212,vbt_B1_day3,2022.2.4,MacIntel,58.82352941,,,,,,,,,,,,,,,,,,,,eens,images/br_eens.png,images/cb_eens.png,,eens,,,,,,,,,,,0.298888889,-0.13,1,0,1,eens,0,11,11,40,1
,,,,,00089,2023-10-26_16h00.46.212,vbt_B1_day3,2022.2.4,MacIntel,58.82352941,,,,,,,,,,,,,,,,,,,,hint,images/br_hint.png,images/cb_hint.png,,hint,,,,,,,,,,,0.308888889,-0.123333333,1,0,1,hint,0,12,12,43,1
,,,,,00089,2023-10-26_16h00.46.212,vbt_B1_day3,2022.2.4,MacIntel,58.82352941,,,,,,,,,,,,,,,,,,,,paken,images/br_paken.png,images/cb_paken.png,,paken,,,,,,,,,,,0.305555556,-0.157777778,1,0,1,paken,0,13,13,27,1
,,,,,00089,2023-10-26_16h00.46.212,vbt_B1_day3,2022.2.4,MacIntel,58.82352941,,,,,,,,,,,,,,,,,,,,zone,images/br_zone.png,images/cb_zone.png,,zone,,,,,,,,,,,0.313333333,-0.137777778,1,0,1,zone,0,14,14,41,1
,,,,,00089,2023-10-26_16h00.46.212,vbt_B1_day3,2022.2.4,MacIntel,58.82352941,,,,,,,,,,,,,,,,,,,,stallen,images/br_stallen.png,images/cb_stallen.png,,stallen,,,,,,,,,,,0.341111111,-0.113333333,1,0,1,stallen,0,15,15,52,1
,,,,,00089,2023-10-26_16h00.46.212,vbt_B1_day3,2022.2.4,MacIntel,58.82352941,,,,,,,,,,,,,,,,,,,,mugeek,images/br_mugeek.png,images/cb_mugeek.png,,mugeek,,,,,,,,,,,0.184444444,-0.296666667,1,0,1,mugeek,0,16,16,29,1
,,,,,00089,2023-10-26_16h00.46.212,vbt_B1_day3,2022.2.4,MacIntel,58.82352941,,,,,,,,,,,,,,,,,,,,keihard,images/br_keihard.png,images/cb_keihard.png,,keihard,,,,,,,,,,,0.275555556,-0.295555556,1,0,1,keihard,0,17,17,14,1
,,,,,00089,2023-10-26_16h00.46.212,vbt_B1_day3,2022.2.4,MacIntel,58.82352941,,,,,,,,,,,,,,,,,,,,jongelui,images/br_jongelui.png,images/cb_jongelui.png,,"jong,,,",,,,,,,,,,,0.377777778,-0.285555556,1,0,1,"jong,,,",0,18,18,59,1
,,,,,00089,2023-10-26_16h00.46.212,vbt_B1_day3,2022.2.4,MacIntel,58.82352941,,,,,,,,,,,,,,,,,,,,kaas,images/br_kaas.png,images/cb_kaas.png,,kaas,,,,,,,,,,,0.351111111,-0.268888889,1,0,1,kaas,0,19,19,42,1
,,,,,00089,2023-10-26_16h00.46.212,vbt_B1_day3,2022.2.4,MacIntel,58.82352941,,,,,,,,,,,,,,,,,,,,geluid,images/br_geluid.png,images/cb_geluid.png,,geluid,,,,,,,,,,,0.367777778,-0.26,1,0,1,geluid,0,20,20,10,1
,,,,,00089,2023-10-26_16h00.46.212,vbt_B1_day3,2022.2.4,MacIntel,58.82352941,,,,,,,,,,,,,,,,,,,,leemaken,images/br_leemaken.png,images/cb_leemaken.png,,leemk,,,,,,,,,,,0.031111111,-0.282222222,1,0,1,leemk,0,21,21,39,1
,,,,,00089,2023-10-26_16h00.46.212,vbt_B1_day3,2022.2.4,MacIntel,58.82352941,,,,,,,,,,,,,,,,,,,,dwang,images/br_dwang.png,images/cb_dwang.png,,dwang,,,,,,,,,,,0.207777778,-0.266666667,1,0,1,dwang,0,22,22,47,1
,,,,,00089,2023-10-26_16h00.46.212,vbt_B1_day3,2022.2.4,MacIntel,58.82352941,,,,,,,,,,,,,,,,,,,,leek,images/br_leek.png,images/cb_leek.png,,leek,,,,,,,,,,,0.316666667,-0.282222222,1,0,1,leek,0,23,23,2,1
,,,,,00089,2023-10-26_16h00.46.212,vbt_B1_day3,2022.2.4,MacIntel,58.82352941,,,,,,,,,,,,,,,,,,,,boeien,images/br_boeien.png,images/cb_boeien.png,,boeien,,,,,,,,,,,0.437777778,-0.258888889,1,0,1,boeien,0,24,24,8,1
,,,,,00089,2023-10-26_16h00.46.212,vbt_B1_day3,2022.2.4,MacIntel,58.82352941,,,,,,,,,,,,,,,,,,,,samen,images/br_samen.png,images/cb_samen.png,,samen,,,,,,,,,,,0.398888889,-0.241111111,1,0,1,samen,0,25,25,7,1
,,,,,00089,2023-10-26_16h00.46.212,vbt_B1_day3,2022.2.4,MacIntel,58.82352941,,,,,,,,,,,,,,,,,,,,beslag,images/br_beslag.png,images/cb_beslag.png,,beslag,,,,,,,,,,,0.293333333,-0.248888889,1,0,1,beslag,0,26,26,51,1
,,,,,00089,2023-10-26_16h00.46.212,vbt_B1_day3,2022.2.4,MacIntel,58.82352941,,,,,,,,,,,,,,,,,,,,afbopen,images/br_afbopen.png,images/cb_afbopen.png,,"afb,,,",,,,,,,,,,,0.254444444,-0.293333333,1,0,1,"afb,,,",0,27,27,34,1
,,,,,00089,2023-10-26_16h00.46.212,vbt_B1_day3,2022.2.4,MacIntel,58.82352941,,,,,,,,,,,,,,,,,,,,verhaal,images/br_verhaal.png,images/cb_verhaal.png,,"verd,,,,",,,,,,,,,,,0.335555556,-0.305555556,1,0,1,"verd,,,,",0,28,28,13,1
,,,,,00089,2023-10-26_16h00.46.212,vbt_B1_day3,2022.2.4,MacIntel,58.82352941,,,,,,,,,,,,,,,,,,,,stoom,images/br_stoom.png,images/cb_stoom.png,,stoom,,,,,,,,,,,0.335555556,-0.331111111,1,0,1,stoom,0,29,29,6,1
,,,,,00089,2023-10-26_16h00.46.212,vbt_B1_day3,2022.2.4,MacIntel,58.82352941,,,,,,,,,,,,,,,,,,,,schatten,images/br_schatten.png,images/cb_schatten.png,,schakken,,,,,,,,,,,0.03,-0.254444444,1,0,1,schakken,0,30,30,18,1
,,,,,00089,2023-10-26_16h00.46.212,vbt_B1_day3,2022.2.4,MacIntel,58.82352941,,,,,,,,,,,,,,,,,,,,croo,images/br_croo.png,images/cb_croo.png,,broo,,,,,,,,,,,0.056666667,-0.287777778,1,0,1,broo,0,31,31,22,1
,,,,,00089,2023-10-26_16h00.46.212,vbt_B1_day3,2022.2.4,MacIntel,58.82352941,,,,,,,,,,,,,,,,,,,,theeting,images/br_theeting.png,images/cb_theeting.png,,,,,,,,,,,,,0.055555556,-0.288888889,1,0,1,,0,32,32,38,1
,,,,,00089,2023-10-26_16h00.46.212,vbt_B1_day3,2022.2.4,MacIntel,58.82352941,,,,,,,,,,,,,,,,,,,,verwoor,images/br_verwoor.png,images/cb_verwoor.png,,verkoop,,,,,,,,,,,0.034444444,-0.334444444,1,0,1,verkoop,0,33,33,32,1
,,,,,00089,2023-10-26_16h00.46.212,vbt_B1_day3,2022.2.4,MacIntel,58.82352941,,,,,,,,,,,,,,,,,,,,brappen,images/br_brappen.png,images/cb_brappen.png,,brappen,,,,,,,,,,,0.032222222,-0.268888889,1,0,1,brappen,0,34,34,35,1
,,,,,00089,2023-10-26_16h00.46.212,vbt_B1_day3,2022.2.4,MacIntel,58.82352941,,,,,,,,,,,,,,,,,,,,knie,images/br_knie.png,images/cb_knie.png,,knie,,,,,,,,,,,-0.047777778,-0.272222222,1,0,1,knie,0,35,35,0,1
,,,,,00089,2023-10-26_16h00.46.212,vbt_B1_day3,2022.2.4,MacIntel,58.82352941,,,,,,,,,,,,,,,,,,,,schodel,images/br_schodel.png,images/cb_schodel.png,,schodel,,,,,,,,,,,0.013333333,-0.285555556,1,0,1,schodel,0,36,36,33,1
,,,,,00089,2023-10-26_16h00.46.212,vbt_B1_day3,2022.2.4,MacIntel,58.82352941,,,,,,,,,,,,,,,,,,,,makieren,images/br_makieren.png,images/cb_makieren.png,,"makie,,,",,,,,,,,,,,0.178888889,-0.285555556,1,0,1,"makie,,,",0,37,37,36,1
,,,,,00089,2023-10-26_16h00.46.212,vbt_B1_day3,2022.2.4,MacIntel,58.82352941,,,,,,,,,,,,,,,,,,,,prikken,images/br_prikken.png,images/cb_prikken.png,,prikken,,,,,,,,,,,0.413333333,-0.272222222,1,0,1,prikken,0,38,38,12,1
,,,,,00089,2023-10-26_16h00.46.212,vbt_B1_day3,2022.2.4,MacIntel,58.82352941,,,,,,,,,,,,,,,,,,,,uniek,images/br_uniek.png,images/cb_uniek.png,,uniek,,,,,,,,,,,0.324444444,-0.28,1,0,1,uniek,0,39,39,46,1
,,,,,00089,2023-10-26_16h00.46.212,vbt_B1_day3,2022.2.4,MacIntel,58.82352941,,,,,,,,,,,,,,,,,,,,gout,images/br_gout.png,images/cb_gout.png,,goet,,,,,,,,,,,0.027777778,-0.286666667,1,0,1,goet,0,40,40,20,1
,,,,,00089,2023-10-26_16h00.46.212,vbt_B1_day3,2022.2.4,MacIntel,58.82352941,,,,,,,,,,,,,,,,,,,,sluier,images/br_sluier.png,images/cb_sluier.png,,sluiek,,,,,,,,,,,0.044444444,-0.291111111,1,0,1,sluiek,0,41,41,50,1
,,,,,00089,2023-10-26_16h00.46.212,vbt_B1_day3,2022.2.4,MacIntel,58.82352941,,,,,,,,,,,,,,,,,,,,opzicht,images/br_opzicht.png,images/cb_opzicht.png,,"opzich,,,",,,,,,,,,,,0.053333333,-0.265555556,1,0,1,"opzich,,,",0,42,42,15,1
,,,,,00089,2023-10-26_16h00.46.212,vbt_B1_day3,2022.2.4,MacIntel,58.82352941,,,,,,,,,,,,,,,,,,,,verraden,images/br_verraden.png,images/cb_verraden.png,,verraden,,,,,,,,,,,0.124444444,-0.283333333,1,0,1,verraden,0,43,43,58,1
,,,,,00089,2023-10-26_16h00.46.212,vbt_B1_day3,2022.2.4,MacIntel,58.82352941,,,,,,,,,,,,,,,,,,,,stikken,images/br_stikken.png,images/cb_stikken.png,,stekken,,,,,,,,,,,0.251111111,-0.292222222,1,0,1,stekken,0,44,44,54,1
,,,,,00089,2023-10-26_16h00.46.212,vbt_B1_day3,2022.2.4,MacIntel,58.82352941,,,,,,,,,,,,,,,,,,,,laken,images/br_laken.png,images/cb_laken.png,,laken,,,,,,,,,,,0.252222222,-0.282222222,1,0,1,laken,0,45,45,5,1
,,,,,00089,2023-10-26_16h00.46.212,vbt_B1_day3,2022.2.4,MacIntel,58.82352941,,,,,,,,,,,,,,,,,,,,twaaf,images/br_twaaf.png,images/cb_twaaf.png,,twaaf,,,,,,,,,,,0.071111111,-0.268888889,1,0,1,twaaf,0,46,46,24,1
,,,,,00089,2023-10-26_16h00.46.212,vbt_B1_day3,2022.2.4,MacIntel,58.82352941,,,,,,,,,,,,,,,,,,,,vlager,images/br_vlager.png,images/cb_vlager.png,,vlager,,,,,,,,,,,0.044444444,-0.263333333,1,0,1,vlager,0,47,47,28,1
,,,,,00089,2023-10-26_16h00.46.212,vbt_B1_day3,2022.2.4,MacIntel,58.82352941,,,,,,,,,,,,,,,,,,,,kest,images/br_kest.png,images/cb_kest.png,,kes,,,,,,,,,,,0.046666667,-0.261111111,1,0,1,kes,0,48,48,21,1
,,,,,00089,2023-10-26_16h00.46.212,vbt_B1_day3,2022.2.4,MacIntel,58.82352941,,,,,,,,,,,,,,,,,,,,hust,images/br_hust.png,images/cb_hust.png,,hust,,,,,,,,,,,0.041111111,-0.274444444,1,0,1,hust,0,49,49,23,1
,,,,,00089,2023-10-26_16h00.46.212,vbt_B1_day3,2022.2.4,MacIntel,58.82352941,,,,,,,,,,,,,,,,,,,,onrecht,images/br_onrecht.png,images/cb_onrecht.png,,"onre,,,",,,,,,,,,,,0.057777778,-0.303333333,1,0,1,"onre,,,",0,50,50,55,1
,,,,,00089,2023-10-26_16h00.46.212,vbt_B1_day3,2022.2.4,MacIntel,58.82352941,,,,,,,,,,,,,,,,,,,,glijden,images/br_glijden.png,images/cb_glijden.png,,"glijd,,,",,,,,,,,,,,0.048888889,-0.307777778,1,0,1,"glijd,,,",0,51,51,53,1
,,,,,00089,2023-10-26_16h00.46.212,vbt_B1_day3,2022.2.4,MacIntel,58.82352941,,,,,,,,,,,,,,,,,,,,bevret,images/br_bevret.png,images/cb_bevret.png,,bevret,,,,,,,,,,,0.118888889,-0.323333333,1,0,1,bevret,0,52,52,30,1
,,,,,00089,2023-10-26_16h00.46.212,vbt_B1_day3,2022.2.4,MacIntel,58.82352941,,,,,,,,,,,,,,,,,,,,gezond,images/br_gezond.png,images/cb_gezond.png,,gezond,,,,,,,,,,,0.156666667,-0.322222222,1,0,1,gezond,0,53,53,11,1
,,,,,00089,2023-10-26_16h00.46.212,vbt_B1_day3,2022.2.4,MacIntel,58.82352941,,,,,,,,,,,,,,,,,,,,steel,images/br_steel.png,images/cb_steel.png,,steel,,,,,,,,,,,0.101111111,-0.321111111,1,0,1,steel,0,54,54,4,1
,,,,,00089,2023-10-26_16h00.46.212,vbt_B1_day3,2022.2.4,MacIntel,58.82352941,,,,,,,,,,,,,,,,,,,,mode,images/br_mode.png,images/cb_mode.png,,mode,,,,,,,,,,,0.098888889,-0.32,1,0,1,mode,0,55,55,3,1
,,,,,00089,2023-10-26_16h00.46.212,vbt_B1_day3,2022.2.4,MacIntel,58.82352941,,,,,,,,,,,,,,,,,,,,kwaas,images/br_kwaas.png,images/cb_kwaas.png,,kwaas,,,,,,,,,,,0.017777778,-0.272222222,1,0,1,kwaas,0,56,56,26,1
,,,,,00089,2023-10-26_16h00.46.212,vbt_B1_day3,2022.2.4,MacIntel,58.82352941,,,,,,,,,,,,,,,,,,,,opzetten,images/br_opzetten.png,images/cb_opzetten.png,,opzetten,,,,,,,,,,,0.072222222,-0.278888889,1,0,1,opzetten,0,57,57,56,1
,,,,,00089,2023-10-26_16h00.46.212,vbt_B1_day3,2022.2.4,MacIntel,58.82352941,,,,,,,,,,,,,,,,,,,,leugeren,images/br_leugeren.png,images/cb_leugeren.png,,"luiger,,,",,,,,,,,,,,0.157777778,-0.341111111,1,0,1,"luiger,,,",0,58,58,37,1
,,,,,00089,2023-10-26_16h00.46.212,vbt_B1_day3,2022.2.4,MacIntel,58.82352941,,,,,,,,,,,,,,,,,,,,oprotten,images/br_oprotten.png,images/cb_oprotten.png,,oprotten,,,,,,,,,,,0.121111111,-0.338888889,1,0,1,oprotten,0,59,59,17,1
,,,,,00089,2023-10-26_16h00.46.212,vbt_B1_day3,2022.2.4,MacIntel,58.82352941,,,,,,,,,,,,,,,,,,,,,,,,,,,,,,,,,,,,,,,,,,,,,
