welcome_mouse.x,welcome_mouse.y,welcome_mouse.leftButton,welcome_mouse.midButton,welcome_mouse.rightButton,"ID",date,expName,psychopyVersion,OS,frameRate,trainInstr_mouse.x,trainInstr_mouse.y,trainInstr_mouse.leftButton,trainInstr_mouse.midButton,trainInstr_mouse.rightButton,translation_key.keys,translation_key.corr,translation_key.rt,word_rsp.text,trWrd_mouse.x,trWrd_mouse.y,trWrd_mouse.leftButton,trWrd_mouse.midButton,trWrd_mouse.rightButton,train_loop.thisRepN,train_loop.thisTrialN,train_loop.thisN,train_loop.thisIndex,train_loop.ran,nlWrd,brWrd,cbWrd,test,testResp,mouse.x,mouse.y,mouse.leftButton,mouse.midButton,mouse.rightButton,testInstr_mouse.x,testInstr_mouse.y,testInstr_mouse.leftButton,testInstr_mouse.midButton,testInstr_mouse.rightButton,test_mouse.x,test_mouse.y,test_mouse.leftButton,test_mouse.midButton,test_mouse.rightButton,test_response.text,test_loop.thisRepN,test_loop.thisTrialN,test_loop.thisN,test_loop.thisIndex,test_loop.ran
0.098148176,-0.179629644,1,0,0,00086,2023-10-25_19h00.53.971,vbt_B1_day3,2022.2.4,Win32,60.09976561,,,,,,,,,,,,,,,,,,,,,,,,,,,,,,,,,,,,,,,,,,,,,
,,,,,00086,2023-10-25_19h00.53.971,vbt_B1_day3,2022.2.4,Win32,60.09976561,0.009259288,0.034259245,1,0,0,,,,,,,,,,,,,,,,,,,,,,,,,,,,,,,,,,,,,,,,
,,,,,00086,2023-10-25_19h00.53.971,vbt_B1_day3,2022.2.4,Win32,60.09976561,,,,,,down,0,16.9936,,-0.179629601,0.165740734,1,0,0,0,0,0,95,1,vreten,images/br_vreten.png,images/cb_vreten.png,0,,,,,,,,,,,,,,,,,,,,,,
,,,,,00086,2023-10-25_19h00.53.971,vbt_B1_day3,2022.2.4,Win32,60.09976561,,,,,,down,0,3.7537,,-0.174074046,0.165740734,1,0,0,0,1,1,192,1,schaamte,images/br_schaamte.png,images/cb_schaamte.png,0,,,,,,,,,,,,,,,,,,,,,,
,,,,,00086,2023-10-25_19h00.53.971,vbt_B1_day3,2022.2.4,Win32,60.09976561,,,,,,down,0,1.9735,,-0.179629601,0.152777778,1,0,0,0,2,2,96,1,slagen,images/br_slagen.png,images/cb_slagen.png,0,,,,,,,,,,,,,,,,,,,,,,
,,,,,00086,2023-10-25_19h00.53.971,vbt_B1_day3,2022.2.4,Win32,60.09976561,,,,,,down,0,6.5168,,-0.179629601,0.152777778,1,0,0,0,3,3,53,1,baron,images/br_baron.png,images/cb_baron.png,0,,,,,,,,,,,,,,,,,,,,,,
,,,,,00086,2023-10-25_19h00.53.971,vbt_B1_day3,2022.2.4,Win32,60.09976561,,,,,,down,0,7.9049,,-0.179629601,0.152777778,1,0,0,0,4,4,145,1,invloed,images/br_invloed.png,images/cb_invloed.png,0,,,,,,,,,,,,,,,,,,,,,,
,,,,,00086,2023-10-25_19h00.53.971,vbt_B1_day3,2022.2.4,Win32,60.09976561,,,,,,down,0,3.0267,,-0.179629601,0.152777778,1,0,0,0,5,5,73,1,volop,images/br_volop.png,images/cb_volop.png,0,,,,,,,,,,,,,,,,,,,,,,
,,,,,00086,2023-10-25_19h00.53.971,vbt_B1_day3,2022.2.4,Win32,60.09976561,,,,,,down,0,3.8053,,-0.179629601,0.152777778,1,0,0,0,6,6,1,1,zaal,images/br_zaal.png,images/cb_zaal.png,0,,,,,,,,,,,,,,,,,,,,,,
,,,,,00086,2023-10-25_19h00.53.971,vbt_B1_day3,2022.2.4,Win32,60.09976561,,,,,,down,0,0.8221,,-0.179629601,0.152777778,1,0,0,0,7,7,56,1,traag,images/br_traag.png,images/cb_traag.png,0,,,,,,,,,,,,,,,,,,,,,,
,,,,,00086,2023-10-25_19h00.53.971,vbt_B1_day3,2022.2.4,Win32,60.09976561,,,,,,down,0,5.8221,,-0.179629601,0.152777778,1,0,0,0,8,8,24,1,jurk,images/br_jurk.png,images/cb_jurk.png,0,,,,,,,,,,,,,,,,,,,,,,
,,,,,00086,2023-10-25_19h00.53.971,vbt_B1_day3,2022.2.4,Win32,60.09976561,,,,,,down,0,5.2682,,-0.179629601,0.152777778,1,0,0,0,9,9,129,1,verhaal,images/br_verhaal.png,images/cb_verhaal.png,0,,,,,,,,,,,,,,,,,,,,,,
,,,,,00086,2023-10-25_19h00.53.971,vbt_B1_day3,2022.2.4,Win32,60.09976561,,,,,,down,0,7.4914,,-0.179629601,0.152777778,1,0,0,0,10,10,178,1,huisdier,images/br_huisdier.png,images/cb_huisdier.png,0,,,,,,,,,,,,,,,,,,,,,,
,,,,,00086,2023-10-25_19h00.53.971,vbt_B1_day3,2022.2.4,Win32,60.09976561,,,,,,down,0,0.2018,,-0.179629601,0.152777778,1,0,0,0,11,11,28,1,stal,images/br_stal.png,images/cb_stal.png,0,,,,,,,,,,,,,,,,,,,,,,
,,,,,00086,2023-10-25_19h00.53.971,vbt_B1_day3,2022.2.4,Win32,60.09976561,,,,,,down,0,2.5735,,-0.179629601,0.152777778,1,0,0,0,12,12,146,1,opkomen,images/br_opkomen.png,images/cb_opkomen.png,0,,,,,,,,,,,,,,,,,,,,,,
,,,,,00086,2023-10-25_19h00.53.971,vbt_B1_day3,2022.2.4,Win32,60.09976561,,,,,,down,0,13.0497,,-0.179629601,0.152777778,1,0,0,0,13,13,164,1,anarchie,images/br_anarchie.png,images/cb_anarchie.png,0,,,,,,,,,,,,,,,,,,,,,,
,,,,,00086,2023-10-25_19h00.53.971,vbt_B1_day3,2022.2.4,Win32,60.09976561,,,,,,down,0,3.9888,,-0.179629601,0.152777778,1,0,0,0,14,14,86,1,woning,images/br_woning.png,images/cb_woning.png,0,,,,,,,,,,,,,,,,,,,,,,
,,,,,00086,2023-10-25_19h00.53.971,vbt_B1_day3,2022.2.4,Win32,60.09976561,,,,,,down,0,3.0343,,-0.179629601,0.152777778,1,0,0,0,15,15,50,1,stoom,images/br_stoom.png,images/cb_stoom.png,0,,,,,,,,,,,,,,,,,,,,,,
,,,,,00086,2023-10-25_19h00.53.971,vbt_B1_day3,2022.2.4,Win32,60.09976561,,,,,,down,0,20.8155,,-0.17870369,0.154629623,1,0,0,0,16,16,133,1,seizoen,images/br_seizoen.png,images/cb_seizoen.png,0,,,,,,,,,,,,,,,,,,,,,,
,,,,,00086,2023-10-25_19h00.53.971,vbt_B1_day3,2022.2.4,Win32,60.09976561,,,,,,down,0,5.7375,,-0.17870369,0.15370369,1,0,0,0,17,17,104,1,zweven,images/br_zweven.png,images/cb_zweven.png,0,,,,,,,,,,,,,,,,,,,,,,
,,,,,00086,2023-10-25_19h00.53.971,vbt_B1_day3,2022.2.4,Win32,60.09976561,,,,,,down,0,2.9014,,-0.17870369,0.15370369,1,0,0,0,18,18,69,1,waken,images/br_waken.png,images/cb_waken.png,0,,,,,,,,,,,,,,,,,,,,,,
,,,,,00086,2023-10-25_19h00.53.971,vbt_B1_day3,2022.2.4,Win32,60.09976561,,,,,,down,0,35.2798,,-0.17870369,0.15370369,1,0,0,0,19,19,124,1,bloeien,images/br_bloeien.png,images/cb_bloeien.png,0,,,,,,,,,,,,,,,,,,,,,,
,,,,,00086,2023-10-25_19h00.53.971,vbt_B1_day3,2022.2.4,Win32,60.09976561,,,,,,down,0,2.4895,,-0.17870369,0.15370369,1,0,0,0,20,20,170,1,schatten,images/br_schatten.png,images/cb_schatten.png,0,,,,,,,,,,,,,,,,,,,,,,
,,,,,00086,2023-10-25_19h00.53.971,vbt_B1_day3,2022.2.4,Win32,60.09976561,,,,,,down,0,6.3373,,-0.17870369,0.15370369,1,0,0,0,21,21,171,1,aarzelen,images/br_aarzelen.png,images/cb_aarzelen.png,0,,,,,,,,,,,,,,,,,,,,,,
,,,,,00086,2023-10-25_19h00.53.971,vbt_B1_day3,2022.2.4,Win32,60.09976561,,,,,,down,0,3.6684,,-0.17870369,0.15370369,1,0,0,0,22,22,184,1,aandelen,images/br_aandelen.png,images/cb_aandelen.png,0,,,,,,,,,,,,,,,,,,,,,,
,,,,,00086,2023-10-25_19h00.53.971,vbt_B1_day3,2022.2.4,Win32,60.09976561,,,,,,down,0,5.0262,,-0.17870369,0.15370369,1,0,0,0,23,23,153,1,vervoer,images/br_vervoer.png,images/cb_vervoer.png,0,,,,,,,,,,,,,,,,,,,,,,
,,,,,00086,2023-10-25_19h00.53.971,vbt_B1_day3,2022.2.4,Win32,60.09976561,,,,,,down,0,4.0012,,-0.17870369,0.15370369,1,0,0,0,24,24,59,1,kring,images/br_kring.png,images/cb_kring.png,0,,,,,,,,,,,,,,,,,,,,,,
,,,,,00086,2023-10-25_19h00.53.971,vbt_B1_day3,2022.2.4,Win32,60.09976561,,,,,,down,0,5.0684,,-0.090740712,-0.041666667,1,0,0,0,25,25,61,1,groen,images/br_groen.png,images/cb_groen.png,1,groen,,,,,,,,,,,,,,,,,,,,,
,,,,,00086,2023-10-25_19h00.53.971,vbt_B1_day3,2022.2.4,Win32,60.09976561,,,,,,down,0,5.9347,,-0.090740712,-0.041666667,1,0,0,0,26,26,54,1,gebit,images/br_gebit.png,images/cb_gebit.png,0,,,,,,,,,,,,,,,,,,,,,,
,,,,,00086,2023-10-25_19h00.53.971,vbt_B1_day3,2022.2.4,Win32,60.09976561,,,,,,down,0,8.6013,,-0.090740712,-0.041666667,1,0,0,0,27,27,128,1,prikken,images/br_prikken.png,images/cb_prikken.png,0,,,,,,,,,,,,,,,,,,,,,,
,,,,,00086,2023-10-25_19h00.53.971,vbt_B1_day3,2022.2.4,Win32,60.09976561,,,,,,down,0,3.167,,-0.090740712,-0.041666667,1,0,0,0,28,28,177,1,maaltijd,images/br_maaltijd.png,images/cb_maaltijd.png,0,,,,,,,,,,,,,,,,,,,,,,
,,,,,00086,2023-10-25_19h00.53.971,vbt_B1_day3,2022.2.4,Win32,60.09976561,,,,,,down,0,4.9941,,-0.090740712,-0.041666667,1,0,0,0,29,29,103,1,joggen,images/br_joggen.png,images/cb_joggen.png,1,joggen,,,,,,,,,,,,,,,,,,,,,
,,,,,00086,2023-10-25_19h00.53.971,vbt_B1_day3,2022.2.4,Win32,60.09976561,,,,,,down,0,6.4429,,-0.090740712,-0.041666667,1,0,0,0,30,30,151,1,aanzoek,images/br_aanzoek.png,images/cb_aanzoek.png,0,,,,,,,,,,,,,,,,,,,,,,
,,,,,00086,2023-10-25_19h00.53.971,vbt_B1_day3,2022.2.4,Win32,60.09976561,,,,,,down,0,3.8859,,-0.090740712,-0.041666667,1,0,0,0,31,31,127,1,doodmoe,images/br_doodmoe.png,images/cb_doodmoe.png,0,,,,,,,,,,,,,,,,,,,,,,
,,,,,00086,2023-10-25_19h00.53.971,vbt_B1_day3,2022.2.4,Win32,60.09976561,,,,,,down,0,0.9379,,-0.090740712,-0.041666667,1,0,0,0,32,32,39,1,laag,images/br_laag.png,images/cb_laag.png,0,,,,,,,,,,,,,,,,,,,,,,
,,,,,00086,2023-10-25_19h00.53.971,vbt_B1_day3,2022.2.4,Win32,60.09976561,,,,,,down,0,4.353,,-0.090740712,-0.041666667,1,0,0,0,33,33,147,1,komisch,images/br_komisch.png,images/cb_komisch.png,0,,,,,,,,,,,,,,,,,,,,,,
,,,,,00086,2023-10-25_19h00.53.971,vbt_B1_day3,2022.2.4,Win32,60.09976561,,,,,,down,0,5.9229,,-0.090740712,-0.041666667,1,0,0,0,34,34,132,1,grappen,images/br_grappen.png,images/cb_grappen.png,0,,,,,,,,,,,,,,,,,,,,,,
,,,,,00086,2023-10-25_19h00.53.971,vbt_B1_day3,2022.2.4,Win32,60.09976561,,,,,,down,0,0.2333,,-0.090740712,-0.041666667,1,0,0,0,35,35,137,1,trekker,images/br_trekker.png,images/cb_trekker.png,0,,,,,,,,,,,,,,,,,,,,,,
,,,,,00086,2023-10-25_19h00.53.971,vbt_B1_day3,2022.2.4,Win32,60.09976561,,,,,,down,0,5.3354,,-0.090740712,-0.041666667,1,0,0,0,36,36,197,1,spanning,images/br_spanning.png,images/cb_spanning.png,0,,,,,,,,,,,,,,,,,,,,,,
,,,,,00086,2023-10-25_19h00.53.971,vbt_B1_day3,2022.2.4,Win32,60.09976561,,,,,,down,0,6.7205,,-0.090740712,-0.041666667,1,0,0,0,37,37,51,1,samen,images/br_samen.png,images/cb_samen.png,0,,,,,,,,,,,,,,,,,,,,,,
,,,,,00086,2023-10-25_19h00.53.971,vbt_B1_day3,2022.2.4,Win32,60.09976561,,,,,,down,0,1.0335,,-0.090740712,-0.041666667,1,0,0,0,38,38,0,1,slak,images/br_slak.png,images/cb_slak.png,0,,,,,,,,,,,,,,,,,,,,,,
,,,,,00086,2023-10-25_19h00.53.971,vbt_B1_day3,2022.2.4,Win32,60.09976561,,,,,,down,0,11.6,,-0.090740712,-0.041666667,1,0,0,0,39,39,161,1,attentie,images/br_attentie.png,images/cb_attentie.png,0,,,,,,,,,,,,,,,,,,,,,,
,,,,,00086,2023-10-25_19h00.53.971,vbt_B1_day3,2022.2.4,Win32,60.09976561,,,,,,down,0,2.8681,,-0.090740712,-0.041666667,1,0,0,0,40,40,47,1,kabel,images/br_kabel.png,images/cb_kabel.png,0,,,,,,,,,,,,,,,,,,,,,,
,,,,,00086,2023-10-25_19h00.53.971,vbt_B1_day3,2022.2.4,Win32,60.09976561,,,,,,down,0,0.8343,,-0.090740712,-0.041666667,1,0,0,0,41,41,15,1,soda,images/br_soda.png,images/cb_soda.png,0,,,,,,,,,,,,,,,,,,,,,,
,,,,,00086,2023-10-25_19h00.53.971,vbt_B1_day3,2022.2.4,Win32,60.09976561,,,,,,down,0,3.0351,,-0.090740712,-0.041666667,1,0,0,0,42,42,83,1,mening,images/br_mening.png,images/cb_mening.png,0,,,,,,,,,,,,,,,,,,,,,,
,,,,,00086,2023-10-25_19h00.53.971,vbt_B1_day3,2022.2.4,Win32,60.09976561,,,,,,down,0,9.0988,,-0.090740712,-0.041666667,1,0,0,0,43,43,119,1,liefje,images/br_liefje.png,images/cb_liefje.png,0,,,,,,,,,,,,,,,,,,,,,,
,,,,,00086,2023-10-25_19h00.53.971,vbt_B1_day3,2022.2.4,Win32,60.09976561,,,,,,down,0,4.2775,,-0.090740712,-0.041666667,1,0,0,0,44,44,6,1,diep,images/br_diep.png,images/cb_diep.png,0,,,,,,,,,,,,,,,,,,,,,,
,,,,,00086,2023-10-25_19h00.53.971,vbt_B1_day3,2022.2.4,Win32,60.09976561,,,,,,down,0,2.119,,-0.090740712,-0.041666667,1,0,0,0,45,45,144,1,eetlust,images/br_eetlust.png,images/cb_eetlust.png,0,,,,,,,,,,,,,,,,,,,,,,
,,,,,00086,2023-10-25_19h00.53.971,vbt_B1_day3,2022.2.4,Win32,60.09976561,,,,,,down,0,0.3688,,-0.090740712,-0.041666667,1,0,0,0,46,46,8,1,knie,images/br_knie.png,images/cb_knie.png,0,,,,,,,,,,,,,,,,,,,,,,
,,,,,00086,2023-10-25_19h00.53.971,vbt_B1_day3,2022.2.4,Win32,60.09976561,,,,,,down,0,6.5365,,-0.090740712,-0.041666667,1,0,0,0,47,47,94,1,oceaan,images/br_oceaan.png,images/cb_oceaan.png,0,,,,,,,,,,,,,,,,,,,,,,
,,,,,00086,2023-10-25_19h00.53.971,vbt_B1_day3,2022.2.4,Win32,60.09976561,,,,,,down,0,15.6661,,-0.090740712,-0.041666667,1,0,0,0,48,48,183,1,getuigen,images/br_getuigen.png,images/cb_getuigen.png,1,getuigen,,,,,,,,,,,,,,,,,,,,,
,,,,,00086,2023-10-25_19h00.53.971,vbt_B1_day3,2022.2.4,Win32,60.09976561,,,,,,down,0,7.1671,,-0.09351849,-0.041666667,1,0,0,0,49,49,85,1,heilig,images/br_heilig.png,images/cb_heilig.png,0,,,,,,,,,,,,,,,,,,,,,,
,,,,,00086,2023-10-25_19h00.53.971,vbt_B1_day3,2022.2.4,Win32,60.09976561,,,,,,down,0,2.017,,-0.09351849,-0.041666667,1,0,0,0,50,50,65,1,parel,images/br_parel.png,images/cb_parel.png,0,,,,,,,,,,,,,,,,,,,,,,
,,,,,00086,2023-10-25_19h00.53.971,vbt_B1_day3,2022.2.4,Win32,60.09976561,,,,,,down,0,1.0554,,-0.09351849,-0.041666667,1,0,0,0,51,51,10,1,leek,images/br_leek.png,images/cb_leek.png,0,,,,,,,,,,,,,,,,,,,,,,
,,,,,00086,2023-10-25_19h00.53.971,vbt_B1_day3,2022.2.4,Win32,60.09976561,,,,,,down,0,2.0514,,-0.09351849,-0.041666667,1,0,0,0,52,52,46,1,jagen,images/br_jagen.png,images/cb_jagen.png,0,,,,,,,,,,,,,,,,,,,,,,
,,,,,00086,2023-10-25_19h00.53.971,vbt_B1_day3,2022.2.4,Win32,60.09976561,,,,,,down,0,2.168,,-0.09351849,-0.041666667,1,0,0,0,53,53,62,1,knaap,images/br_knaap.png,images/cb_knaap.png,1,knaap,,,,,,,,,,,,,,,,,,,,,
,,,,,00086,2023-10-25_19h00.53.971,vbt_B1_day3,2022.2.4,Win32,60.09976561,,,,,,down,0,9.6508,,0.027777778,-0.075,1,0,0,0,54,54,156,1,rechten,images/br_rechten.png,images/cb_rechten.png,0,,,,,,,,,,,,,,,,,,,,,,
,,,,,00086,2023-10-25_19h00.53.971,vbt_B1_day3,2022.2.4,Win32,60.09976561,,,,,,down,0,10.0027,,0.027777778,-0.075,1,0,0,0,55,55,134,1,geliefd,images/br_geliefd.png,images/cb_geliefd.png,0,,,,,,,,,,,,,,,,,,,,,,
,,,,,00086,2023-10-25_19h00.53.971,vbt_B1_day3,2022.2.4,Win32,60.09976561,,,,,,down,0,19.6483,,0.027777778,-0.075,1,0,0,0,56,56,37,1,mijn,images/br_mijn.png,images/cb_mijn.png,0,,,,,,,,,,,,,,,,,,,,,,
,,,,,00086,2023-10-25_19h00.53.971,vbt_B1_day3,2022.2.4,Win32,60.09976561,,,,,,down,0,10.1859,,0.027777778,-0.075,1,0,0,0,57,57,99,1,koffie,images/br_koffie.png,images/cb_koffie.png,0,,,,,,,,,,,,,,,,,,,,,,
,,,,,00086,2023-10-25_19h00.53.971,vbt_B1_day3,2022.2.4,Win32,60.09976561,,,,,,down,0,8.3896,,0.027777778,-0.075,1,0,0,0,58,58,27,1,dans,images/br_dans.png,images/cb_dans.png,0,,,,,,,,,,,,,,,,,,,,,,
,,,,,00086,2023-10-25_19h00.53.971,vbt_B1_day3,2022.2.4,Win32,60.09976561,,,,,,down,0,3.8997,,0.027777778,-0.075,1,0,0,0,59,59,188,1,strekken,images/br_strekken.png,images/cb_strekken.png,0,,,,,,,,,,,,,,,,,,,,,,
,,,,,00086,2023-10-25_19h00.53.971,vbt_B1_day3,2022.2.4,Win32,60.09976561,,,,,,down,0,3.3277,,0.027777778,-0.075,1,0,0,0,60,60,78,1,leren,images/br_leren.png,images/cb_leren.png,0,,,,,,,,,,,,,,,,,,,,,,
,,,,,00086,2023-10-25_19h00.53.971,vbt_B1_day3,2022.2.4,Win32,60.09976561,,,,,,down,0,2.9674,,0.027777778,-0.075,1,0,0,0,61,61,42,1,bleek,images/br_bleek.png,images/cb_bleek.png,0,,,,,,,,,,,,,,,,,,,,,,
,,,,,00086,2023-10-25_19h00.53.971,vbt_B1_day3,2022.2.4,Win32,60.09976561,,,,,,down,0,4.5783,,0.027777778,-0.075,1,0,0,0,62,62,72,1,strak,images/br_strak.png,images/cb_strak.png,0,,,,,,,,,,,,,,,,,,,,,,
,,,,,00086,2023-10-25_19h00.53.971,vbt_B1_day3,2022.2.4,Win32,60.09976561,,,,,,down,0,0.0345,,0.027777778,-0.075,1,0,0,0,63,63,17,1,taal,images/br_taal.png,images/cb_taal.png,0,,,,,,,,,,,,,,,,,,,,,,
,,,,,00086,2023-10-25_19h00.53.971,vbt_B1_day3,2022.2.4,Win32,60.09976561,,,,,,down,0,0.0112,,0.027777778,-0.075,1,0,0,0,64,64,57,1,steek,images/br_steek.png,images/cb_steek.png,0,,,,,,,,,,,,,,,,,,,,,,
,,,,,00086,2023-10-25_19h00.53.971,vbt_B1_day3,2022.2.4,Win32,60.09976561,,,,,,down,0,0.7872,,0.027777778,-0.075,1,0,0,0,65,65,2,1,jaar,images/br_jaar.png,images/cb_jaar.png,0,,,,,,,,,,,,,,,,,,,,,,
,,,,,00086,2023-10-25_19h00.53.971,vbt_B1_day3,2022.2.4,Win32,60.09976561,,,,,,down,0,4.8535,,0.027777778,-0.075,1,0,0,0,66,66,4,1,moes,images/br_moes.png,images/cb_moes.png,0,,,,,,,,,,,,,,,,,,,,,,
,,,,,00086,2023-10-25_19h00.53.971,vbt_B1_day3,2022.2.4,Win32,60.09976561,,,,,,down,0,0.1346,,0.027777778,-0.075,1,0,0,0,67,67,109,1,totaal,images/br_totaal.png,images/cb_totaal.png,0,,,,,,,,,,,,,,,,,,,,,,
,,,,,00086,2023-10-25_19h00.53.971,vbt_B1_day3,2022.2.4,Win32,60.09976561,,,,,,down,0,3.958,,0.027777778,-0.075,1,0,0,0,68,68,32,1,palm,images/br_palm.png,images/cb_palm.png,0,,,,,,,,,,,,,,,,,,,,,,
,,,,,00086,2023-10-25_19h00.53.971,vbt_B1_day3,2022.2.4,Win32,60.09976561,,,,,,down,0,3.367,,0.027777778,-0.075,1,0,0,0,69,69,199,1,beseffen,images/br_beseffen.png,images/cb_beseffen.png,0,,,,,,,,,,,,,,,,,,,,,,
,,,,,00086,2023-10-25_19h00.53.971,vbt_B1_day3,2022.2.4,Win32,60.09976561,,,,,,down,0,0.7772,,0.027777778,-0.075,1,0,0,0,70,70,97,1,loyaal,images/br_loyaal.png,images/cb_loyaal.png,0,,,,,,,,,,,,,,,,,,,,,,
,,,,,00086,2023-10-25_19h00.53.971,vbt_B1_day3,2022.2.4,Win32,60.09976561,,,,,,down,0,6.1053,,0.027777778,-0.075,1,0,0,0,71,71,123,1,hiervan,images/br_hiervan.png,images/cb_hiervan.png,0,,,,,,,,,,,,,,,,,,,,,,
,,,,,00086,2023-10-25_19h00.53.971,vbt_B1_day3,2022.2.4,Win32,60.09976561,,,,,,down,0,7.3829,,0.027777778,-0.075,1,0,0,0,72,72,173,1,apparaat,images/br_apparaat.png,images/cb_apparaat.png,0,,,,,,,,,,,,,,,,,,,,,,
,,,,,00086,2023-10-25_19h00.53.971,vbt_B1_day3,2022.2.4,Win32,60.09976561,,,,,,down,0,1.4834,,0.027777778,-0.075,1,0,0,0,73,73,66,1,lever,images/br_lever.png,images/cb_lever.png,0,,,,,,,,,,,,,,,,,,,,,,
,,,,,00086,2023-10-25_19h00.53.971,vbt_B1_day3,2022.2.4,Win32,60.09976561,,,,,,down,0,2.3723,,0.027777778,-0.075,1,0,0,0,74,74,88,1,boeien,images/br_boeien.png,images/cb_boeien.png,0,,,,,,,,,,,,,,,,,,,,,,
,,,,,00086,2023-10-25_19h00.53.971,vbt_B1_day3,2022.2.4,Win32,60.09976561,,,,,,down,0,19.7344,,0.027777778,-0.075,1,0,0,0,75,75,185,1,mijnheer,images/br_mijnheer.png,images/cb_mijnheer.png,0,,,,,,,,,,,,,,,,,,,,,,
,,,,,00086,2023-10-25_19h00.53.971,vbt_B1_day3,2022.2.4,Win32,60.09976561,,,,,,down,0,4.4017,,0.027777778,-0.075,1,0,0,0,76,76,167,1,eenhoorn,images/br_eenhoorn.png,images/cb_eenhoorn.png,0,,,,,,,,,,,,,,,,,,,,,,
,,,,,00086,2023-10-25_19h00.53.971,vbt_B1_day3,2022.2.4,Win32,60.09976561,,,,,,down,0,3.6554,,0.027777778,-0.075,1,0,0,0,77,77,114,1,vullen,images/br_vullen.png,images/cb_vullen.png,0,,,,,,,,,,,,,,,,,,,,,,
,,,,,00086,2023-10-25_19h00.53.971,vbt_B1_day3,2022.2.4,Win32,60.09976561,,,,,,down,0,9.7125,,0.027777778,-0.075,1,0,0,0,78,78,168,1,bisschop,images/br_bisschop.png,images/cb_bisschop.png,0,,,,,,,,,,,,,,,,,,,,,,
,,,,,00086,2023-10-25_19h00.53.971,vbt_B1_day3,2022.2.4,Win32,60.09976561,,,,,,down,0,9.3359,,0.027777778,-0.075,1,0,0,0,79,79,121,1,twijfel,images/br_twijfel.png,images/cb_twijfel.png,0,,,,,,,,,,,,,,,,,,,,,,
,,,,,00086,2023-10-25_19h00.53.971,vbt_B1_day3,2022.2.4,Win32,60.09976561,,,,,,down,0,2.8178,,0.027777778,-0.075,1,0,0,0,80,80,5,1,blad,images/br_blad.png,images/cb_blad.png,0,,,,,,,,,,,,,,,,,,,,,,
,,,,,00086,2023-10-25_19h00.53.971,vbt_B1_day3,2022.2.4,Win32,60.09976561,,,,,,down,0,1.6448,,0.027777778,-0.075,1,0,0,0,81,81,25,1,plek,images/br_plek.png,images/cb_plek.png,0,,,,,,,,,,,,,,,,,,,,,,
,,,,,00086,2023-10-25_19h00.53.971,vbt_B1_day3,2022.2.4,Win32,60.09976561,,,,,,down,0,2.118,,0.027777778,-0.075,1,0,0,0,82,82,148,1,smullen,images/br_smullen.png,images/cb_smullen.png,0,,,,,,,,,,,,,,,,,,,,,,
,,,,,00086,2023-10-25_19h00.53.971,vbt_B1_day3,2022.2.4,Win32,60.09976561,,,,,,down,0,1.0178,,0.026851908,-0.076851866,1,0,0,0,83,83,49,1,laken,images/br_laken.png,images/cb_laken.png,0,,,,,,,,,,,,,,,,,,,,,,
,,,,,00086,2023-10-25_19h00.53.971,vbt_B1_day3,2022.2.4,Win32,60.09976561,,,,,,down,0,4.7676,,0.026851908,-0.076851866,1,0,0,0,84,84,63,1,flirt,images/br_flirt.png,images/cb_flirt.png,1,flirt,,,,,,,,,,,,,,,,,,,,,
,,,,,00086,2023-10-25_19h00.53.971,vbt_B1_day3,2022.2.4,Win32,60.09976561,,,,,,down,0,4.9334,,0.026851908,-0.076851866,1,0,0,0,85,85,195,1,middelen,images/br_middelen.png,images/cb_middelen.png,0,,,,,,,,,,,,,,,,,,,,,,
,,,,,00086,2023-10-25_19h00.53.971,vbt_B1_day3,2022.2.4,Win32,60.09976561,,,,,,down,0,1.4012,,0.026851908,-0.076851866,1,0,0,0,86,86,52,1,wagon,images/br_wagon.png,images/cb_wagon.png,0,,,,,,,,,,,,,,,,,,,,,,
,,,,,00086,2023-10-25_19h00.53.971,vbt_B1_day3,2022.2.4,Win32,60.09976561,,,,,,down,0,2.384,,0.026851908,-0.076851866,1,0,0,0,87,87,92,1,geheim,images/br_geheim.png,images/cb_geheim.png,0,,,,,,,,,,,,,,,,,,,,,,
,,,,,00086,2023-10-25_19h00.53.971,vbt_B1_day3,2022.2.4,Win32,60.09976561,,,,,,down,0,5.0672,,0.026851908,-0.076851866,1,0,0,0,88,88,77,1,woede,images/br_woede.png,images/cb_woede.png,0,,,,,,,,,,,,,,,,,,,,,,
,,,,,00086,2023-10-25_19h00.53.971,vbt_B1_day3,2022.2.4,Win32,60.09976561,,,,,,down,0,4.4515,,0.026851908,-0.076851866,1,0,0,0,89,89,102,1,legaal,images/br_legaal.png,images/cb_legaal.png,1,legaal,,,,,,,,,,,,,,,,,,,,,
,,,,,00086,2023-10-25_19h00.53.971,vbt_B1_day3,2022.2.4,Win32,60.09976561,,,,,,down,0,12.4206,,0.026851908,-0.076851866,1,0,0,0,90,90,180,1,openbaar,images/br_openbaar.png,images/cb_openbaar.png,1,openbaar,,,,,,,,,,,,,,,,,,,,,
,,,,,00086,2023-10-25_19h00.53.971,vbt_B1_day3,2022.2.4,Win32,60.09976561,,,,,,down,0,3.3881,,0.026851908,-0.076851866,1,0,0,0,91,91,139,1,stiekem,images/br_stiekem.png,images/cb_stiekem.png,0,,,,,,,,,,,,,,,,,,,,,,
,,,,,00086,2023-10-25_19h00.53.971,vbt_B1_day3,2022.2.4,Win32,60.09976561,,,,,,down,0,7.7166,,0.026851908,-0.076851866,1,0,0,0,92,92,187,1,opkijken,images/br_opkijken.png,images/cb_opkijken.png,0,,,,,,,,,,,,,,,,,,,,,,
,,,,,00086,2023-10-25_19h00.53.971,vbt_B1_day3,2022.2.4,Win32,60.09976561,,,,,,down,0,2.7674,,0.026851908,-0.076851866,1,0,0,0,93,93,45,1,piste,images/br_piste.png,images/cb_piste.png,0,,,,,,,,,,,,,,,,,,,,,,
,,,,,00086,2023-10-25_19h00.53.971,vbt_B1_day3,2022.2.4,Win32,60.09976561,,,,,,down,0,3.4529,,0.026851908,-0.076851866,1,0,0,0,94,94,9,1,hier,images/br_hier.png,images/cb_hier.png,0,,,,,,,,,,,,,,,,,,,,,,
,,,,,00086,2023-10-25_19h00.53.971,vbt_B1_day3,2022.2.4,Win32,60.09976561,,,,,,down,0,3.267,,0.026851908,-0.076851866,1,0,0,0,95,95,111,1,ticket,images/br_ticket.png,images/cb_ticket.png,0,,,,,,,,,,,,,,,,,,,,,,
,,,,,00086,2023-10-25_19h00.53.971,vbt_B1_day3,2022.2.4,Win32,60.09976561,,,,,,down,0,0.8895,,0.026851908,-0.076851866,1,0,0,0,96,96,20,1,site,images/br_site.png,images/cb_site.png,1,site,,,,,,,,,,,,,,,,,,,,,
,,,,,00086,2023-10-25_19h00.53.971,vbt_B1_day3,2022.2.4,Win32,60.09976561,,,,,,down,0,3.4898,,0.026851908,-0.076851866,1,0,0,0,97,97,108,1,excuus,images/br_excuus.png,images/cb_excuus.png,0,,,,,,,,,,,,,,,,,,,,,,
,,,,,00086,2023-10-25_19h00.53.971,vbt_B1_day3,2022.2.4,Win32,60.09976561,,,,,,down,0,2.5053,,0.026851908,-0.076851866,1,0,0,0,98,98,38,1,baai,images/br_baai.png,images/cb_baai.png,0,,,,,,,,,,,,,,,,,,,,,,
,,,,,00086,2023-10-25_19h00.53.971,vbt_B1_day3,2022.2.4,Win32,60.09976561,,,,,,down,0,3.9012,,0.032407464,-0.076851866,1,0,0,0,99,99,179,1,woestijn,images/br_woestijn.png,images/cb_woestijn.png,0,,,,,,,,,,,,,,,,,,,,,,
,,,,,00086,2023-10-25_19h00.53.971,vbt_B1_day3,2022.2.4,Win32,60.09976561,,,,,,down,0,5.9548,,0.032407464,-0.076851866,0,0,1,0,100,100,76,1,afval,images/br_afval.png,images/cb_afval.png,0,,,,,,,,,,,,,,,,,,,,,,
,,,,,00086,2023-10-25_19h00.53.971,vbt_B1_day3,2022.2.4,Win32,60.09976561,,,,,,down,0,6.9036,,-0.230555556,-0.087962977,1,0,0,0,101,101,93,1,waarop,images/br_waarop.png,images/cb_waarop.png,0,,,,,,,,,,,,,,,,,,,,,,
,,,,,00086,2023-10-25_19h00.53.971,vbt_B1_day3,2022.2.4,Win32,60.09976561,,,,,,down,0,8.4164,,-0.230555556,-0.093518533,1,0,0,0,102,102,130,1,keihard,images/br_keihard.png,images/cb_keihard.png,0,,,,,,,,,,,,,,,,,,,,,,
,,,,,00086,2023-10-25_19h00.53.971,vbt_B1_day3,2022.2.4,Win32,60.09976561,,,,,,down,0,2.5607,,-0.230555556,-0.095370399,1,0,0,0,103,103,70,1,ijdel,images/br_ijdel.png,images/cb_ijdel.png,0,,,,,,,,,,,,,,,,,,,,,,
,,,,,00086,2023-10-25_19h00.53.971,vbt_B1_day3,2022.2.4,Win32,60.09976561,,,,,,down,0,0.0343,,-0.230555556,-0.095370399,1,0,0,0,104,104,7,1,geld,images/br_geld.png,images/cb_geld.png,0,,,,,,,,,,,,,,,,,,,,,,
,,,,,00086,2023-10-25_19h00.53.971,vbt_B1_day3,2022.2.4,Win32,60.09976561,,,,,,down,0,13.1636,,-0.230555556,-0.095370399,1,0,0,0,105,105,30,1,uien,images/br_uien.png,images/cb_uien.png,0,,,,,,,,,,,,,,,,,,,,,,
,,,,,00086,2023-10-25_19h00.53.971,vbt_B1_day3,2022.2.4,Win32,60.09976561,,,,,,down,0,5.1257,,-0.230555556,-0.095370399,1,0,0,0,106,106,166,1,strikken,images/br_strikken.png,images/cb_strikken.png,0,,,,,,,,,,,,,,,,,,,,,,
,,,,,00086,2023-10-25_19h00.53.971,vbt_B1_day3,2022.2.4,Win32,60.09976561,,,,,,down,0,1.7692,,-0.230555556,-0.095370399,1,0,0,0,107,107,34,1,vorm,images/br_vorm.png,images/cb_vorm.png,0,,,,,,,,,,,,,,,,,,,,,,
,,,,,00086,2023-10-25_19h00.53.971,vbt_B1_day3,2022.2.4,Win32,60.09976561,,,,,,down,0,5.3614,,-0.230555556,-0.095370399,1,0,0,0,108,108,122,1,waarvan,images/br_waarvan.png,images/cb_waarvan.png,0,,,,,,,,,,,,,,,,,,,,,,
,,,,,00086,2023-10-25_19h00.53.971,vbt_B1_day3,2022.2.4,Win32,60.09976561,,,,,,down,0,7.106,,-0.230555556,-0.095370399,1,0,0,0,109,109,14,1,rijp,images/br_rijp.png,images/cb_rijp.png,0,,,,,,,,,,,,,,,,,,,,,,
,,,,,00086,2023-10-25_19h00.53.971,vbt_B1_day3,2022.2.4,Win32,60.09976561,,,,,,down,0,5.0533,,-0.230555556,-0.095370399,1,0,0,0,110,110,23,1,zout,images/br_zout.png,images/cb_zout.png,1,zout,,,,,,,,,,,,,,,,,,,,,
,,,,,00086,2023-10-25_19h00.53.971,vbt_B1_day3,2022.2.4,Win32,60.09976561,,,,,,down,0,6.2246,,-0.230555556,-0.095370399,1,0,0,0,111,111,196,1,nakijken,images/br_nakijken.png,images/cb_nakijken.png,0,,,,,,,,,,,,,,,,,,,,,,
,,,,,00086,2023-10-25_19h00.53.971,vbt_B1_day3,2022.2.4,Win32,60.09976561,,,,,,down,0,12.6069,,-0.230555556,-0.095370399,1,0,0,0,112,112,152,1,afnemen,images/br_afnemen.png,images/cb_afnemen.png,0,,,,,,,,,,,,,,,,,,,,,,
,,,,,00086,2023-10-25_19h00.53.971,vbt_B1_day3,2022.2.4,Win32,60.09976561,,,,,,down,0,4.9173,,-0.230555556,-0.095370399,1,0,0,0,113,113,160,1,daarheen,images/br_daarheen.png,images/cb_daarheen.png,0,,,,,,,,,,,,,,,,,,,,,,
,,,,,00086,2023-10-25_19h00.53.971,vbt_B1_day3,2022.2.4,Win32,60.09976561,,,,,,down,0,4.1249,,-0.230555556,-0.095370399,1,0,0,0,114,114,143,1,hechten,images/br_hechten.png,images/cb_hechten.png,1,hechten,,,,,,,,,,,,,,,,,,,,,
,,,,,00086,2023-10-25_19h00.53.971,vbt_B1_day3,2022.2.4,Win32,60.09976561,,,,,,down,0,5.6727,,-0.006481425,-0.110185199,1,0,0,0,115,115,190,1,goedkoop,images/br_goedkoop.png,images/cb_goedkoop.png,0,,,,,,,,,,,,,,,,,,,,,,
,,,,,00086,2023-10-25_19h00.53.971,vbt_B1_day3,2022.2.4,Win32,60.09976561,,,,,,down,0,7.0517,,-0.006481425,-0.110185199,1,0,0,0,116,116,165,1,feestdag,images/br_feestdag.png,images/cb_feestdag.png,0,,,,,,,,,,,,,,,,,,,,,,
,,,,,00086,2023-10-25_19h00.53.971,vbt_B1_day3,2022.2.4,Win32,60.09976561,,,,,,down,0,1.8682,,-0.006481425,-0.110185199,1,0,0,0,117,117,115,1,kleren,images/br_kleren.png,images/cb_kleren.png,0,,,,,,,,,,,,,,,,,,,,,,
,,,,,00086,2023-10-25_19h00.53.971,vbt_B1_day3,2022.2.4,Win32,60.09976561,,,,,,down,0,0.4847,,-0.006481425,-0.110185199,1,0,0,0,118,118,12,1,kust,images/br_kust.png,images/cb_kust.png,0,,,,,,,,,,,,,,,,,,,,,,
,,,,,00086,2023-10-25_19h00.53.971,vbt_B1_day3,2022.2.4,Win32,60.09976561,,,,,,down,0,2.0225,,-0.006481425,-0.110185199,1,0,0,0,119,119,91,1,gezond,images/br_gezond.png,images/cb_gezond.png,0,,,,,,,,,,,,,,,,,,,,,,
,,,,,00086,2023-10-25_19h00.53.971,vbt_B1_day3,2022.2.4,Win32,60.09976561,,,,,,down,0,8.9677,,-0.006481425,-0.110185199,1,0,0,0,120,120,149,1,redding,images/br_redding.png,images/cb_redding.png,0,,,,,,,,,,,,,,,,,,,,,,
,,,,,00086,2023-10-25_19h00.53.971,vbt_B1_day3,2022.2.4,Win32,60.09976561,,,,,,down,0,3.2847,,-0.006481425,-0.110185199,1,0,0,0,121,121,40,1,schep,images/br_schep.png,images/cb_schep.png,0,,,,,,,,,,,,,,,,,,,,,,
,,,,,00086,2023-10-25_19h00.53.971,vbt_B1_day3,2022.2.4,Win32,60.09976561,,,,,,down,0,4.1017,,-0.006481425,-0.110185199,1,0,0,0,122,122,31,1,poes,images/br_poes.png,images/cb_poes.png,0,,,,,,,,,,,,,,,,,,,,,,
,,,,,00086,2023-10-25_19h00.53.971,vbt_B1_day3,2022.2.4,Win32,60.09976561,,,,,,down,0,3.5024,,-0.006481425,-0.110185199,1,0,0,0,123,123,117,1,kennis,images/br_kennis.png,images/cb_kennis.png,0,,,,,,,,,,,,,,,,,,,,,,
,,,,,00086,2023-10-25_19h00.53.971,vbt_B1_day3,2022.2.4,Win32,60.09976561,,,,,,down,0,11.1,,-0.006481425,-0.110185199,1,0,0,0,124,124,82,1,muziek,images/br_muziek.png,images/cb_muziek.png,0,,,,,,,,,,,,,,,,,,,,,,
,,,,,00086,2023-10-25_19h00.53.971,vbt_B1_day3,2022.2.4,Win32,60.09976561,,,,,,down,0,2.5517,,-0.006481425,-0.110185199,1,0,0,0,125,125,87,1,toeval,images/br_toeval.png,images/cb_toeval.png,0,,,,,,,,,,,,,,,,,,,,,,
,,,,,00086,2023-10-25_19h00.53.971,vbt_B1_day3,2022.2.4,Win32,60.09976561,,,,,,down,0,4.8073,,-0.006481425,-0.110185199,1,0,0,0,126,126,80,1,kanjer,images/br_kanjer.png,images/cb_kanjer.png,0,,,,,,,,,,,,,,,,,,,,,,
,,,,,00086,2023-10-25_19h00.53.971,vbt_B1_day3,2022.2.4,Win32,60.09976561,,,,,,down,0,25.9481,,-0.006481425,-0.110185199,1,0,0,0,127,127,162,1,uitdelen,images/br_uitdelen.png,images/cb_uitdelen.png,0,,,,,,,,,,,,,,,,,,,,,,
,,,,,00086,2023-10-25_19h00.53.971,vbt_B1_day3,2022.2.4,Win32,60.09976561,,,,,,down,0,3.3348,,-0.006481425,-0.110185199,1,0,0,0,128,128,193,1,weeshuis,images/br_weeshuis.png,images/cb_weeshuis.png,0,,,,,,,,,,,,,,,,,,,,,,
,,,,,00086,2023-10-25_19h00.53.971,vbt_B1_day3,2022.2.4,Win32,60.09976561,,,,,,down,0,5.4672,,-0.006481425,-0.110185199,1,0,0,0,129,129,71,1,bever,images/br_bever.png,images/cb_bever.png,0,,,,,,,,,,,,,,,,,,,,,,
,,,,,00086,2023-10-25_19h00.53.971,vbt_B1_day3,2022.2.4,Win32,60.09976561,,,,,,down,0,2.8562,,-0.006481425,-0.110185199,1,0,0,0,130,130,44,1,flits,images/br_flits.png,images/cb_flits.png,0,,,,,,,,,,,,,,,,,,,,,,
,,,,,00086,2023-10-25_19h00.53.971,vbt_B1_day3,2022.2.4,Win32,60.09976561,,,,,,down,0,45.0037,,-0.006481425,-0.110185199,1,0,0,0,131,131,3,1,mand,images/br_mand.png,images/cb_mand.png,0,,,,,,,,,,,,,,,,,,,,,,
,,,,,00086,2023-10-25_19h00.53.971,vbt_B1_day3,2022.2.4,Win32,60.09976561,,,,,,down,0,1.2844,,-0.006481425,-0.110185199,1,0,0,0,132,132,36,1,vuur,images/br_vuur.png,images/cb_vuur.png,0,,,,,,,,,,,,,,,,,,,,,,
,,,,,00086,2023-10-25_19h00.53.971,vbt_B1_day3,2022.2.4,Win32,60.09976561,,,,,,down,0,0.5367,,-0.006481425,-0.110185199,1,0,0,0,133,133,19,1,geit,images/br_geit.png,images/cb_geit.png,0,,,,,,,,,,,,,,,,,,,,,,
,,,,,00086,2023-10-25_19h00.53.971,vbt_B1_day3,2022.2.4,Win32,60.09976561,,,,,,down,0,2.5974,,-0.006481425,-0.110185199,1,0,0,0,134,134,98,1,kreeft,images/br_kreeft.png,images/cb_kreeft.png,0,,,,,,,,,,,,,,,,,,,,,,
,,,,,00086,2023-10-25_19h00.53.971,vbt_B1_day3,2022.2.4,Win32,60.09976561,,,,,,down,0,3.5173,,-0.006481425,-0.110185199,1,0,0,0,135,135,89,1,slapen,images/br_slapen.png,images/cb_slapen.png,0,,,,,,,,,,,,,,,,,,,,,,
,,,,,00086,2023-10-25_19h00.53.971,vbt_B1_day3,2022.2.4,Win32,60.09976561,,,,,,down,0,8.7613,,-0.006481425,-0.110185199,1,0,0,0,136,136,198,1,bedoelen,images/br_bedoelen.png,images/cb_bedoelen.png,0,,,,,,,,,,,,,,,,,,,,,,
,,,,,00086,2023-10-25_19h00.53.971,vbt_B1_day3,2022.2.4,Win32,60.09976561,,,,,,down,0,2.2179,,-0.006481425,-0.110185199,1,0,0,0,137,137,81,1,dubbel,images/br_dubbel.png,images/cb_dubbel.png,0,,,,,,,,,,,,,,,,,,,,,,
,,,,,00086,2023-10-25_19h00.53.971,vbt_B1_day3,2022.2.4,Win32,60.09976561,,,,,,down,0,2.8864,,-0.006481425,-0.110185199,1,0,0,0,138,138,110,1,zuster,images/br_zuster.png,images/cb_zuster.png,0,,,,,,,,,,,,,,,,,,,,,,
,,,,,00086,2023-10-25_19h00.53.971,vbt_B1_day3,2022.2.4,Win32,60.09976561,,,,,,down,0,4.184,,-0.006481425,-0.110185199,1,0,0,0,139,139,175,1,heengaan,images/br_heengaan.png,images/cb_heengaan.png,0,,,,,,,,,,,,,,,,,,,,,,
,,,,,00086,2023-10-25_19h00.53.971,vbt_B1_day3,2022.2.4,Win32,60.09976561,,,,,,down,0,7.118,,-0.006481425,-0.110185199,1,0,0,0,140,140,142,1,snuiven,images/br_snuiven.png,images/cb_snuiven.png,1,snuiven,,,,,,,,,,,,,,,,,,,,,
,,,,,00086,2023-10-25_19h00.53.971,vbt_B1_day3,2022.2.4,Win32,60.09976561,,,,,,down,0,4.3512,,-0.006481425,-0.110185199,1,0,0,0,141,141,67,1,zwart,images/br_zwart.png,images/cb_zwart.png,0,,,,,,,,,,,,,,,,,,,,,,
,,,,,00086,2023-10-25_19h00.53.971,vbt_B1_day3,2022.2.4,Win32,60.09976561,,,,,,down,0,0.1341,,-0.006481425,-0.110185199,1,0,0,0,142,142,13,1,kaal,images/br_kaal.png,images/cb_kaal.png,0,,,,,,,,,,,,,,,,,,,,,,
,,,,,00086,2023-10-25_19h00.53.971,vbt_B1_day3,2022.2.4,Win32,60.09976561,,,,,,down,0,4.6199,,-0.006481425,-0.110185199,1,0,0,0,143,143,106,1,zingen,images/br_zingen.png,images/cb_zingen.png,0,,,,,,,,,,,,,,,,,,,,,,
,,,,,00086,2023-10-25_19h00.53.971,vbt_B1_day3,2022.2.4,Win32,60.09976561,,,,,,down,0,1.6203,,-0.006481425,-0.110185199,1,0,0,0,144,144,135,1,gedicht,images/br_gedicht.png,images/cb_gedicht.png,0,,,,,,,,,,,,,,,,,,,,,,
,,,,,00086,2023-10-25_19h00.53.971,vbt_B1_day3,2022.2.4,Win32,60.09976561,,,,,,down,0,2.9678,,-0.006481425,-0.110185199,1,0,0,0,145,145,125,1,aanzien,images/br_aanzien.png,images/cb_aanzien.png,0,,,,,,,,,,,,,,,,,,,,,,
,,,,,00086,2023-10-25_19h00.53.971,vbt_B1_day3,2022.2.4,Win32,60.09976561,,,,,,down,0,1.5019,,-0.006481425,-0.110185199,1,0,0,0,146,146,120,1,klimmen,images/br_klimmen.png,images/cb_klimmen.png,0,,,,,,,,,,,,,,,,,,,,,,
,,,,,00086,2023-10-25_19h00.53.971,vbt_B1_day3,2022.2.4,Win32,60.09976561,,,,,,down,0,4.0838,,-0.006481425,-0.110185199,1,0,0,0,147,147,194,1,driemaal,images/br_driemaal.png,images/cb_driemaal.png,0,,,,,,,,,,,,,,,,,,,,,,
,,,,,00086,2023-10-25_19h00.53.971,vbt_B1_day3,2022.2.4,Win32,60.09976561,,,,,,down,0,0.9463,,-0.006481425,-0.110185199,1,0,0,0,148,148,16,1,ziek,images/br_ziek.png,images/cb_ziek.png,0,,,,,,,,,,,,,,,,,,,,,,
,,,,,00086,2023-10-25_19h00.53.971,vbt_B1_day3,2022.2.4,Win32,60.09976561,,,,,,down,0,0.3746,,-0.006481425,-0.110185199,1,0,0,0,149,149,55,1,praat,images/br_praat.png,images/cb_praat.png,0,,,,,,,,,,,,,,,,,,,,,,
,,,,,00086,2023-10-25_19h00.53.971,vbt_B1_day3,2022.2.4,Win32,60.09976561,,,,,,down,0,0.1851,,-0.006481425,-0.110185199,1,0,0,0,150,150,33,1,vlek,images/br_vlek.png,images/cb_vlek.png,0,,,,,,,,,,,,,,,,,,,,,,
,,,,,00086,2023-10-25_19h00.53.971,vbt_B1_day3,2022.2.4,Win32,60.09976561,,,,,,down,0,2.1006,,-0.006481425,-0.110185199,1,0,0,0,151,151,68,1,schat,images/br_schat.png,images/cb_schat.png,0,,,,,,,,,,,,,,,,,,,,,,
,,,,,00086,2023-10-25_19h00.53.971,vbt_B1_day3,2022.2.4,Win32,60.09976561,,,,,,down,0,2.134,,-0.006481425,-0.110185199,1,0,0,0,152,152,126,1,kasteel,images/br_kasteel.png,images/cb_kasteel.png,0,,,,,,,,,,,,,,,,,,,,,,
,,,,,00086,2023-10-25_19h00.53.971,vbt_B1_day3,2022.2.4,Win32,60.09976561,,,,,,down,0,1.7395,,-0.006481425,-0.110185199,1,0,0,0,153,153,174,1,stemming,images/br_stemming.png,images/cb_stemming.png,0,,,,,,,,,,,,,,,,,,,,,,
,,,,,00086,2023-10-25_19h00.53.971,vbt_B1_day3,2022.2.4,Win32,60.09976561,,,,,,down,0,0.5832,,-0.006481425,-0.110185199,1,0,0,0,154,154,64,1,wegen,images/br_wegen.png,images/cb_wegen.png,0,,,,,,,,,,,,,,,,,,,,,,
,,,,,00086,2023-10-25_19h00.53.971,vbt_B1_day3,2022.2.4,Win32,60.09976561,,,,,,down,0,4.2669,,-0.006481425,-0.110185199,1,0,0,0,155,155,189,1,aanraden,images/br_aanraden.png,images/cb_aanraden.png,0,,,,,,,,,,,,,,,,,,,,,,
,,,,,00086,2023-10-25_19h00.53.971,vbt_B1_day3,2022.2.4,Win32,60.09976561,,,,,,down,0,10.9831,,-0.006481425,-0.110185199,1,0,0,0,156,156,118,1,vinger,images/br_vinger.png,images/cb_vinger.png,0,,,,,,,,,,,,,,,,,,,,,,
,,,,,00086,2023-10-25_19h00.53.971,vbt_B1_day3,2022.2.4,Win32,60.09976561,,,,,,down,0,3.1098,,-0.002777778,-0.112037065,1,0,0,0,157,157,169,1,oprotten,images/br_oprotten.png,images/cb_oprotten.png,0,,,,,,,,,,,,,,,,,,,,,,
,,,,,00086,2023-10-25_19h00.53.971,vbt_B1_day3,2022.2.4,Win32,60.09976561,,,,,,down,0,3.878,,-0.002777778,-0.112037065,1,0,0,0,158,158,18,1,blik,images/br_blik.png,images/cb_blik.png,0,,,,,,,,,,,,,,,,,,,,,,
,,,,,00086,2023-10-25_19h00.53.971,vbt_B1_day3,2022.2.4,Win32,60.09976561,,,,,,down,0,4.9255,,-0.002777778,-0.112037065,1,0,0,0,159,159,176,1,techniek,images/br_techniek.png,images/cb_techniek.png,0,,,,,,,,,,,,,,,,,,,,,,
,,,,,00086,2023-10-25_19h00.53.971,vbt_B1_day3,2022.2.4,Win32,60.09976561,,,,,,down,0,1.5154,,-0.002777778,-0.112037065,1,0,0,0,160,160,22,1,stof,images/br_stof.png,images/cb_stof.png,1,stof,,,,,,,,,,,,,,,,,,,,,
,,,,,00086,2023-10-25_19h00.53.971,vbt_B1_day3,2022.2.4,Win32,60.09976561,,,,,,down,0,0.8347,,-0.002777778,-0.112037065,1,0,0,0,161,161,35,1,lust,images/br_lust.png,images/cb_lust.png,0,,,,,,,,,,,,,,,,,,,,,,
,,,,,00086,2023-10-25_19h00.53.971,vbt_B1_day3,2022.2.4,Win32,60.09976561,,,,,,down,0,1.6912,,-0.002777778,-0.101851866,1,0,0,0,162,162,84,1,lokken,images/br_lokken.png,images/cb_lokken.png,0,,,,,,,,,,,,,,,,,,,,,,
,,,,,00086,2023-10-25_19h00.53.971,vbt_B1_day3,2022.2.4,Win32,60.09976561,,,,,,down,0,0.9123,,-0.002777778,-0.101851866,1,0,0,0,163,163,150,1,gegeven,images/br_gegeven.png,images/cb_gegeven.png,0,,,,,,,,,,,,,,,,,,,,,,
,,,,,00086,2023-10-25_19h00.53.971,vbt_B1_day3,2022.2.4,Win32,60.09976561,,,,,,down,0,2.8893,,-0.002777778,-0.101851866,1,0,0,0,164,164,74,1,graaf,images/br_graaf.png,images/cb_graaf.png,0,,,,,,,,,,,,,,,,,,,,,,
,,,,,00086,2023-10-25_19h00.53.971,vbt_B1_day3,2022.2.4,Win32,60.09976561,,,,,,down,0,5.3625,,-0.002777778,-0.101851866,1,0,0,0,165,165,107,1,maling,images/br_maling.png,images/cb_maling.png,0,,,,,,,,,,,,,,,,,,,,,,
,,,,,00086,2023-10-25_19h00.53.971,vbt_B1_day3,2022.2.4,Win32,60.09976561,,,,,,down,0,2.1853,,-0.002777778,-0.101851866,1,0,0,0,166,166,172,1,weigeren,images/br_weigeren.png,images/cb_weigeren.png,0,,,,,,,,,,,,,,,,,,,,,,
,,,,,00086,2023-10-25_19h00.53.971,vbt_B1_day3,2022.2.4,Win32,60.09976561,,,,,,down,0,2.9198,,-0.002777778,-0.101851866,1,0,0,0,167,167,105,1,wijlen,images/br_wijlen.png,images/cb_wijlen.png,0,,,,,,,,,,,,,,,,,,,,,,
,,,,,00086,2023-10-25_19h00.53.971,vbt_B1_day3,2022.2.4,Win32,60.09976561,,,,,,down,0,1.1922,,-0.002777778,-0.101851866,1,0,0,0,168,168,75,1,snoep,images/br_snoep.png,images/cb_snoep.png,0,,,,,,,,,,,,,,,,,,,,,,
,,,,,00086,2023-10-25_19h00.53.971,vbt_B1_day3,2022.2.4,Win32,60.09976561,,,,,,down,0,3.8502,,-0.002777778,-0.101851866,1,0,0,0,169,169,101,1,staren,images/br_staren.png,images/cb_staren.png,1,staren,,,,,,,,,,,,,,,,,,,,,
,,,,,00086,2023-10-25_19h00.53.971,vbt_B1_day3,2022.2.4,Win32,60.09976561,,,,,,down,0,9.843,,-0.002777778,-0.101851866,1,0,0,0,170,170,182,1,bijkomen,images/br_bijkomen.png,images/cb_bijkomen.png,1,bijkomen,,,,,,,,,,,,,,,,,,,,,
,,,,,00086,2023-10-25_19h00.53.971,vbt_B1_day3,2022.2.4,Win32,60.09976561,,,,,,down,0,6.1729,,-0.002777778,-0.101851866,1,0,0,0,171,171,157,1,uitlaat,images/br_uitlaat.png,images/cb_uitlaat.png,0,,,,,,,,,,,,,,,,,,,,,,
,,,,,00086,2023-10-25_19h00.53.971,vbt_B1_day3,2022.2.4,Win32,60.09976561,,,,,,down,0,2.9936,,-0.002777778,-0.101851866,1,0,0,0,172,172,21,1,mist,images/br_mist.png,images/cb_mist.png,1,mist,,,,,,,,,,,,,,,,,,,,,
,,,,,00086,2023-10-25_19h00.53.971,vbt_B1_day3,2022.2.4,Win32,60.09976561,,,,,,down,0,6.6014,,-0.127777778,-0.134259288,1,0,0,0,173,173,191,1,opheffen,images/br_opheffen.png,images/cb_opheffen.png,0,,,,,,,,,,,,,,,,,,,,,,
,,,,,00086,2023-10-25_19h00.53.971,vbt_B1_day3,2022.2.4,Win32,60.09976561,,,,,,down,0,3.2727,,-0.127777778,-0.134259288,1,0,0,0,174,174,112,1,lukken,images/br_lukken.png,images/cb_lukken.png,0,,,,,,,,,,,,,,,,,,,,,,
,,,,,00086,2023-10-25_19h00.53.971,vbt_B1_day3,2022.2.4,Win32,60.09976561,,,,,,down,0,3.4758,,-0.127777778,-0.134259288,1,0,0,0,175,175,43,1,klauw,images/br_klauw.png,images/cb_klauw.png,0,,,,,,,,,,,,,,,,,,,,,,
,,,,,00086,2023-10-25_19h00.53.971,vbt_B1_day3,2022.2.4,Win32,60.09976561,,,,,,down,0,5.3118,,-0.127777778,-0.134259288,1,0,0,0,176,176,131,1,opzicht,images/br_opzicht.png,images/cb_opzicht.png,0,,,,,,,,,,,,,,,,,,,,,,
,,,,,00086,2023-10-25_19h00.53.971,vbt_B1_day3,2022.2.4,Win32,60.09976561,,,,,,down,0,2.6335,,-0.127777778,-0.134259288,1,0,0,0,177,177,155,1,gerucht,images/br_gerucht.png,images/cb_gerucht.png,0,,,,,,,,,,,,,,,,,,,,,,
,,,,,00086,2023-10-25_19h00.53.971,vbt_B1_day3,2022.2.4,Win32,60.09976561,,,,,,down,0,4.727,,-0.127777778,-0.134259288,1,0,0,0,178,178,60,1,jasje,images/br_jasje.png,images/cb_jasje.png,1,jasje,,,,,,,,,,,,,,,,,,,,,
,,,,,00086,2023-10-25_19h00.53.971,vbt_B1_day3,2022.2.4,Win32,60.09976561,,,,,,down,0,6.7005,,-0.127777778,-0.134259288,1,0,0,0,179,179,41,1,maken,images/br_maken.png,images/cb_maken.png,0,,,,,,,,,,,,,,,,,,,,,,
,,,,,00086,2023-10-25_19h00.53.971,vbt_B1_day3,2022.2.4,Win32,60.09976561,,,,,,down,0,1.442,,-0.127777778,-0.134259288,1,0,0,0,180,180,29,1,baas,images/br_baas.png,images/cb_baas.png,0,,,,,,,,,,,,,,,,,,,,,,
,,,,,00086,2023-10-25_19h00.53.971,vbt_B1_day3,2022.2.4,Win32,60.09976561,,,,,,down,0,3.5195,,-0.127777778,-0.134259288,1,0,0,0,181,181,136,1,waarbij,images/br_waarbij.png,images/cb_waarbij.png,0,,,,,,,,,,,,,,,,,,,,,,
,,,,,00086,2023-10-25_19h00.53.971,vbt_B1_day3,2022.2.4,Win32,60.09976561,,,,,,down,0,18.5469,,-0.127777778,-0.134259288,1,0,0,0,182,182,141,1,knielen,images/br_knielen.png,images/cb_knielen.png,1,knielen,,,,,,,,,,,,,,,,,,,,,
,,,,,00086,2023-10-25_19h00.53.971,vbt_B1_day3,2022.2.4,Win32,60.09976561,,,,,,down,0,6.5535,,-0.127777778,-0.134259288,1,0,0,0,183,183,163,1,schuilen,images/br_schuilen.png,images/cb_schuilen.png,0,,,,,,,,,,,,,,,,,,,,,,
,,,,,00086,2023-10-25_19h00.53.971,vbt_B1_day3,2022.2.4,Win32,60.09976561,,,,,,down,0,5.8598,,-0.127777778,-0.134259288,1,0,0,0,184,184,154,1,aflopen,images/br_aflopen.png,images/cb_aflopen.png,0,,,,,,,,,,,,,,,,,,,,,,
,,,,,00086,2023-10-25_19h00.53.971,vbt_B1_day3,2022.2.4,Win32,60.09976561,,,,,,down,0,3.2505,,-0.127777778,-0.134259288,1,0,0,0,185,185,100,1,geduld,images/br_geduld.png,images/cb_geduld.png,1,geduld,,,,,,,,,,,,,,,,,,,,,
,,,,,00086,2023-10-25_19h00.53.971,vbt_B1_day3,2022.2.4,Win32,60.09976561,,,,,,down,0,4.5894,,-0.127777778,-0.134259288,1,0,0,0,186,186,158,1,innemen,images/br_innemen.png,images/cb_innemen.png,0,,,,,,,,,,,,,,,,,,,,,,
,,,,,00086,2023-10-25_19h00.53.971,vbt_B1_day3,2022.2.4,Win32,60.09976561,,,,,,down,0,7.8388,,-0.127777778,-0.134259288,1,0,0,0,187,187,11,1,mode,images/br_mode.png,images/cb_mode.png,0,,,,,,,,,,,,,,,,,,,,,,
,,,,,00086,2023-10-25_19h00.53.971,vbt_B1_day3,2022.2.4,Win32,60.09976561,,,,,,down,0,1.0344,,-0.127777778,-0.134259288,1,0,0,0,188,188,79,1,nodig,images/br_nodig.png,images/cb_nodig.png,0,,,,,,,,,,,,,,,,,,,,,,
,,,,,00086,2023-10-25_19h00.53.971,vbt_B1_day3,2022.2.4,Win32,60.09976561,,,,,,down,0,1.1178,,-0.127777778,-0.134259288,1,0,0,0,189,189,26,1,leuk,images/br_leuk.png,images/cb_leuk.png,0,,,,,,,,,,,,,,,,,,,,,,
,,,,,00086,2023-10-25_19h00.53.971,vbt_B1_day3,2022.2.4,Win32,60.09976561,,,,,,down,0,7.8014,,-0.127777778,-0.134259288,1,0,0,0,190,190,159,1,sufferd,images/br_sufferd.png,images/cb_sufferd.png,0,,,,,,,,,,,,,,,,,,,,,,
,,,,,00086,2023-10-25_19h00.53.971,vbt_B1_day3,2022.2.4,Win32,60.09976561,,,,,,down,0,4.8348,,-0.127777778,-0.134259288,1,0,0,0,191,191,140,1,blijven,images/br_blijven.png,images/cb_blijven.png,1,blijven,,,,,,,,,,,,,,,,,,,,,
,,,,,00086,2023-10-25_19h00.53.971,vbt_B1_day3,2022.2.4,Win32,60.09976561,,,,,,down,0,3.0198,,0.076851908,-0.080555556,1,0,0,0,192,192,58,1,tekst,images/br_tekst.png,images/cb_tekst.png,0,,,,,,,,,,,,,,,,,,,,,,
,,,,,00086,2023-10-25_19h00.53.971,vbt_B1_day3,2022.2.4,Win32,60.09976561,,,,,,down,0,4.7339,,0.076851908,-0.080555556,1,0,0,0,193,193,138,1,akkoord,images/br_akkoord.png,images/cb_akkoord.png,0,,,,,,,,,,,,,,,,,,,,,,
,,,,,00086,2023-10-25_19h00.53.971,vbt_B1_day3,2022.2.4,Win32,60.09976561,,,,,,down,0,1.1616,,-0.058333333,-0.077777778,1,0,0,0,194,194,186,1,voorraad,images/br_voorraad.png,images/cb_voorraad.png,0,,,,,,,,,,,,,,,,,,,,,,
,,,,,00086,2023-10-25_19h00.53.971,vbt_B1_day3,2022.2.4,Win32,60.09976561,,,,,,down,0,3.3494,,0.00648151,-0.205555556,1,0,0,0,195,195,113,1,koppen,images/br_koppen.png,images/cb_koppen.png,0,,,,,,,,,,,,,,,,,,,,,,
,,,,,00086,2023-10-25_19h00.53.971,vbt_B1_day3,2022.2.4,Win32,60.09976561,,,,,,down,0,5.098,,0.00648151,-0.205555556,1,0,0,0,196,196,181,1,toegeven,images/br_toegeven.png,images/cb_toegeven.png,1,toegeven,,,,,,,,,,,,,,,,,,,,,
,,,,,00086,2023-10-25_19h00.53.971,vbt_B1_day3,2022.2.4,Win32,60.09976561,,,,,,down,0,6.4173,,0.00648151,-0.205555556,1,0,0,0,197,197,116,1,besmet,images/br_besmet.png,images/cb_besmet.png,0,,,,,,,,,,,,,,,,,,,,,,
,,,,,00086,2023-10-25_19h00.53.971,vbt_B1_day3,2022.2.4,Win32,60.09976561,,,,,,down,0,2.4116,,-0.037962935,-0.069444444,1,0,0,0,198,198,90,1,geluid,images/br_geluid.png,images/cb_geluid.png,0,,,,,,,,,,,,,,,,,,,,,,
,,,,,00086,2023-10-25_19h00.53.971,vbt_B1_day3,2022.2.4,Win32,60.09976561,,,,,,down,0,1.3851,,-0.037962935,-0.069444444,1,0,0,0,199,199,48,1,steel,images/br_steel.png,images/cb_steel.png,0,,,,,,,,,,,,,,,,,,,,,,
,,,,,00086,2023-10-25_19h00.53.971,vbt_B1_day3,2022.2.4,Win32,60.09976561,,,,,,,,,,,,,,,,,,,,,,,,,-0.032407379,-0.024074088,1,0,0,,,,,,,,,,,,,,,,
,,,,,00086,2023-10-25_19h00.53.971,vbt_B1_day3,2022.2.4,Win32,60.09976561,,,,,,,,,,,,,,,,,,,,,,,,,,,,,,-0.002777778,-0.032407422,1,0,0,,,,,,,,,,,
,,,,,00086,2023-10-25_19h00.53.971,vbt_B1_day3,2022.2.4,Win32,60.09976561,,,,,,,,,,,,,,,,,,,,kwaas,images/br_kwaas.png,images/cb_kwaas.png,,kwaar,,,,,,,,,,,-0.041666667,-0.165740755,1,0,0,kwaar,0,0,0,26,1
,,,,,00086,2023-10-25_19h00.53.971,vbt_B1_day3,2022.2.4,Win32,60.09976561,,,,,,,,,,,,,,,,,,,,slapen,images/br_slapen.png,images/cb_slapen.png,,slapen,,,,,,,,,,,-0.041666667,-0.165740755,1,0,0,slapen,0,1,1,9,1
,,,,,00086,2023-10-25_19h00.53.971,vbt_B1_day3,2022.2.4,Win32,60.09976561,,,,,,,,,,,,,,,,,,,,onrecht,images/br_onrecht.png,images/cb_onrecht.png,,onrecht,,,,,,,,,,,-0.041666667,-0.165740755,1,0,0,onrecht,0,2,2,55,1
,,,,,00086,2023-10-25_19h00.53.971,vbt_B1_day3,2022.2.4,Win32,60.09976561,,,,,,,,,,,,,,,,,,,,stikken,images/br_stikken.png,images/cb_stikken.png,,stikken,,,,,,,,,,,-0.041666667,-0.165740755,1,0,0,stikken,0,3,3,54,1
,,,,,00086,2023-10-25_19h00.53.971,vbt_B1_day3,2022.2.4,Win32,60.09976561,,,,,,,,,,,,,,,,,,,,beslag,images/br_beslag.png,images/cb_beslag.png,,.esla.,,,,,,,,,,,-0.104629601,-0.066666667,1,0,0,.esla.,0,4,4,51,1
,,,,,00086,2023-10-25_19h00.53.971,vbt_B1_day3,2022.2.4,Win32,60.09976561,,,,,,,,,,,,,,,,,,,,jongelui,images/br_jongelui.png,images/cb_jongelui.png,,jongel..,,,,,,,,,,,-0.167592536,-0.034259288,1,0,0,jongel..,0,5,5,59,1
,,,,,00086,2023-10-25_19h00.53.971,vbt_B1_day3,2022.2.4,Win32,60.09976561,,,,,,,,,,,,,,,,,,,,glijden,images/br_glijden.png,images/cb_glijden.png,,glijden,,,,,,,,,,,-0.300925912,-0.023148176,1,0,0,glijden,0,6,6,53,1
,,,,,00086,2023-10-25_19h00.53.971,vbt_B1_day3,2022.2.4,Win32,60.09976561,,,,,,,,,,,,,,,,,,,,hier,images/br_hier.png,images/cb_hier.png,,hier,,,,,,,,,,,-0.369444444,0.022222222,1,0,0,hier,0,7,7,1,1
,,,,,00086,2023-10-25_19h00.53.971,vbt_B1_day3,2022.2.4,Win32,60.09976561,,,,,,,,,,,,,,,,,,,,kest,images/br_kest.png,images/cb_kest.png,,kest,,,,,,,,,,,-0.323148134,0.000925912,1,0,0,kest,0,8,8,21,1
,,,,,00086,2023-10-25_19h00.53.971,vbt_B1_day3,2022.2.4,Win32,60.09976561,,,,,,,,,,,,,,,,,,,,invallen,images/br_invallen.png,images/cb_invallen.png,,invallen,,,,,,,,,,,-0.009259203,-0.141666667,1,0,0,invallen,0,9,9,57,1
,,,,,00086,2023-10-25_19h00.53.971,vbt_B1_day3,2022.2.4,Win32,60.09976561,,,,,,,,,,,,,,,,,,,,geluid,images/br_geluid.png,images/cb_geluid.png,,geluid,,,,,,,,,,,-0.257407379,-0.037037065,1,0,0,geluid,0,10,10,10,1
,,,,,00086,2023-10-25_19h00.53.971,vbt_B1_day3,2022.2.4,Win32,60.09976561,,,,,,,,,,,,,,,,,,,,paken,images/br_paken.png,images/cb_paken.png,,paken,,,,,,,,,,,-0.206481467,-0.037037065,1,0,0,paken,0,11,11,27,1
,,,,,00086,2023-10-25_19h00.53.971,vbt_B1_day3,2022.2.4,Win32,60.09976561,,,,,,,,,,,,,,,,,,,,leugeren,images/br_leugeren.png,images/cb_leugeren.png,,luigeren,,,,,,,,,,,-0.217592578,-0.083333333,1,0,0,luigeren,0,12,12,37,1
,,,,,00086,2023-10-25_19h00.53.971,vbt_B1_day3,2022.2.4,Win32,60.09976561,,,,,,,,,,,,,,,,,,,,schatten,images/br_schatten.png,images/cb_schatten.png,,schatten,,,,,,,,,,,-0.145370314,-0.04629631,1,0,0,schatten,0,13,13,18,1
,,,,,00086,2023-10-25_19h00.53.971,vbt_B1_day3,2022.2.4,Win32,60.09976561,,,,,,,,,,,,,,,,,,,,gezond,images/br_gezond.png,images/cb_gezond.png,,gezond,,,,,,,,,,,-0.223148134,-0.072222222,1,0,0,gezond,0,14,14,11,1
,,,,,00086,2023-10-25_19h00.53.971,vbt_B1_day3,2022.2.4,Win32,60.09976561,,,,,,,,,,,,,,,,,,,,mode,images/br_mode.png,images/cb_mode.png,,mode,,,,,,,,,,,-0.249074046,-0.02129631,1,0,0,mode,0,15,15,3,1
,,,,,00086,2023-10-25_19h00.53.971,vbt_B1_day3,2022.2.4,Win32,60.09976561,,,,,,,,,,,,,,,,,,,,uniek,images/br_uniek.png,images/cb_uniek.png,,oneik,,,,,,,,,,,-0.194444444,-0.029629644,1,0,0,oneik,0,16,16,46,1
,,,,,00086,2023-10-25_19h00.53.971,vbt_B1_day3,2022.2.4,Win32,60.09976561,,,,,,,,,,,,,,,,,,,,afbopen,images/br_afbopen.png,images/cb_afbopen.png,,afbo....,,,,,,,,,,,-0.265740712,-0.124074088,1,0,0,afbo....,0,17,17,34,1
,,,,,00086,2023-10-25_19h00.53.971,vbt_B1_day3,2022.2.4,Win32,60.09976561,,,,,,,,,,,,,,,,,,,,sultan,images/br_sultan.png,images/cb_sultan.png,,sultan,,,,,,,,,,,-0.302777778,-0.08148151,1,0,0,sultan,0,18,18,49,1
,,,,,00086,2023-10-25_19h00.53.971,vbt_B1_day3,2022.2.4,Win32,60.09976561,,,,,,,,,,,,,,,,,,,,verhaal,images/br_verhaal.png,images/cb_verhaal.png,,verh...,,,,,,,,,,,-0.25,-0.093518533,1,0,0,verh...,0,19,19,13,1
,,,,,00086,2023-10-25_19h00.53.971,vbt_B1_day3,2022.2.4,Win32,60.09976561,,,,,,,,,,,,,,,,,,,,booien,images/br_booien.png,images/cb_booien.png,,booei.,,,,,,,,,,,-0.269444444,-0.067592621,1,0,0,booei.,0,20,20,31,1
,,,,,00086,2023-10-25_19h00.53.971,vbt_B1_day3,2022.2.4,Win32,60.09976561,,,,,,,,,,,,,,,,,,,,verwoor,images/br_verwoor.png,images/cb_verwoor.png,,verwoor,,,,,,,,,,,-0.242592578,-0.065740755,1,0,0,verwoor,0,21,21,32,1
,,,,,00086,2023-10-25_19h00.53.971,vbt_B1_day3,2022.2.4,Win32,60.09976561,,,,,,,,,,,,,,,,,,,,opzicht,images/br_opzicht.png,images/cb_opzicht.png,,opzicht,,,,,,,,,,,-0.321296268,-0.118518533,1,0,0,opzicht,0,22,22,15,1
,,,,,00086,2023-10-25_19h00.53.971,vbt_B1_day3,2022.2.4,Win32,60.09976561,,,,,,,,,,,,,,,,,,,,oprotten,images/br_oprotten.png,images/cb_oprotten.png,,oprotten,,,,,,,,,,,-0.35370369,-0.013888889,1,0,0,oprotten,0,23,23,17,1
,,,,,00086,2023-10-25_19h00.53.971,vbt_B1_day3,2022.2.4,Win32,60.09976561,,,,,,,,,,,,,,,,,,,,aarzelen,images/br_aarzelen.png,images/cb_aarzelen.png,,aarzelen,,,,,,,,,,,-0.299074046,-0.124074088,1,0,0,aarzelen,0,24,24,19,1
,,,,,00086,2023-10-25_19h00.53.971,vbt_B1_day3,2022.2.4,Win32,60.09976561,,,,,,,,,,,,,,,,,,,,stoom,images/br_stoom.png,images/cb_stoom.png,,stoom,,,,,,,,,,,-0.241666667,-0.102777778,1,0,0,stoom,0,25,25,6,1
,,,,,00086,2023-10-25_19h00.53.971,vbt_B1_day3,2022.2.4,Win32,60.09976561,,,,,,,,,,,,,,,,,,,,bevret,images/br_bevret.png,images/cb_bevret.png,,belrot,,,,,,,,,,,-0.267592578,-0.077777778,1,0,0,belrot,0,26,26,30,1
,,,,,00086,2023-10-25_19h00.53.971,vbt_B1_day3,2022.2.4,Win32,60.09976561,,,,,,,,,,,,,,,,,,,,knie,images/br_knie.png,images/cb_knie.png,,knie,,,,,,,,,,,-0.255555556,-0.066666667,1,0,0,knie,0,27,27,0,1
,,,,,00086,2023-10-25_19h00.53.971,vbt_B1_day3,2022.2.4,Win32,60.09976561,,,,,,,,,,,,,,,,,,,,laken,images/br_laken.png,images/cb_laken.png,,laken,,,,,,,,,,,-0.31851849,-0.045370399,1,0,0,laken,0,28,28,5,1
,,,,,00086,2023-10-25_19h00.53.971,vbt_B1_day3,2022.2.4,Win32,60.09976561,,,,,,,,,,,,,,,,,,,,eens,images/br_eens.png,images/cb_eens.png,,eens,,,,,,,,,,,-0.165740712,-0.02129631,1,0,0,eens,0,29,29,40,1
,,,,,00086,2023-10-25_19h00.53.971,vbt_B1_day3,2022.2.4,Win32,60.09976561,,,,,,,,,,,,,,,,,,,,vlager,images/br_vlager.png,images/cb_vlager.png,,vlager,,,,,,,,,,,-0.516666667,-0.137037065,1,0,0,vlager,0,30,30,28,1
,,,,,00086,2023-10-25_19h00.53.971,vbt_B1_day3,2022.2.4,Win32,60.09976561,,,,,,,,,,,,,,,,,,,,twaaf,images/br_twaaf.png,images/cb_twaaf.png,,twaaf,,,,,,,,,,,-0.298148134,-0.054629644,1,0,0,twaaf,0,31,31,24,1
,,,,,00086,2023-10-25_19h00.53.971,vbt_B1_day3,2022.2.4,Win32,60.09976561,,,,,,,,,,,,,,,,,,,,uviek,images/br_uviek.png,images/cb_uviek.png,,uveik,,,,,,,,,,,-0.361111111,-0.093518533,1,0,0,uveik,0,32,32,25,1
,,,,,00086,2023-10-25_19h00.53.971,vbt_B1_day3,2022.2.4,Win32,60.09976561,,,,,,,,,,,,,,,,,,,,steel,images/br_steel.png,images/cb_steel.png,,steel,,,,,,,,,,,-0.270370356,0.151851845,1,0,0,steel,0,33,33,4,1
,,,,,00086,2023-10-25_19h00.53.971,vbt_B1_day3,2022.2.4,Win32,60.09976561,,,,,,,,,,,,,,,,,,,,sluier,images/br_sluier.png,images/cb_sluier.png,,slueit,,,,,,,,,,,-0.321296268,-0.104629644,1,0,0,slueit,0,34,34,50,1
,,,,,00086,2023-10-25_19h00.53.971,vbt_B1_day3,2022.2.4,Win32,60.09976561,,,,,,,,,,,,,,,,,,,,brappen,images/br_brappen.png,images/cb_brappen.png,,brappen,,,,,,,,,,,-0.180555556,-0.088888889,1,0,0,brappen,0,35,35,35,1
,,,,,00086,2023-10-25_19h00.53.971,vbt_B1_day3,2022.2.4,Win32,60.09976561,,,,,,,,,,,,,,,,,,,,opzetten,images/br_opzetten.png,images/cb_opzetten.png,,opzetten,,,,,,,,,,,-0.272222222,-0.099074088,1,0,0,opzetten,0,36,36,56,1
,,,,,00086,2023-10-25_19h00.53.971,vbt_B1_day3,2022.2.4,Win32,60.09976561,,,,,,,,,,,,,,,,,,,,verraden,images/br_verraden.png,images/cb_verraden.png,,vlrra....,,,,,,,,,,,-0.296296268,-0.072222222,1,0,0,vlrra....,0,37,37,58,1
,,,,,00086,2023-10-25_19h00.53.971,vbt_B1_day3,2022.2.4,Win32,60.09976561,,,,,,,,,,,,,,,,,,,,keihard,images/br_keihard.png,images/cb_keihard.png,,keihard,,,,,,,,,,,-0.292592578,-0.015740755,1,0,0,keihard,0,38,38,14,1
,,,,,00086,2023-10-25_19h00.53.971,vbt_B1_day3,2022.2.4,Win32,60.09976561,,,,,,,,,,,,,,,,,,,,leek,images/br_leek.png,images/cb_leek.png,,leek,,,,,,,,,,,-0.112962935,-0.17129631,1,0,0,leek,0,39,39,2,1
,,,,,00086,2023-10-25_19h00.53.971,vbt_B1_day3,2022.2.4,Win32,60.09976561,,,,,,,,,,,,,,,,,,,,boeien,images/br_boeien.png,images/cb_boeien.png,,doeien,,,,,,,,,,,-0.275925912,-0.045370399,1,0,0,doeien,0,40,40,8,1
,,,,,00086,2023-10-25_19h00.53.971,vbt_B1_day3,2022.2.4,Win32,60.09976561,,,,,,,,,,,,,,,,,,,,begrip,images/br_begrip.png,images/cb_begrip.png,,begr.p,,,,,,,,,,,-0.205555556,0.051851824,1,0,0,begr.p,0,41,41,48,1
,,,,,00086,2023-10-25_19h00.53.971,vbt_B1_day3,2022.2.4,Win32,60.09976561,,,,,,,,,,,,,,,,,,,,makieren,images/br_makieren.png,images/cb_makieren.png,,makier..,,,,,,,,,,,-0.354629601,-0.114814843,1,0,0,makier..,0,42,42,36,1
,,,,,00086,2023-10-25_19h00.53.971,vbt_B1_day3,2022.2.4,Win32,60.09976561,,,,,,,,,,,,,,,,,,,,bisschop,images/br_bisschop.png,images/cb_bisschop.png,,bisschop,,,,,,,,,,,-0.289814801,-0.052777778,1,0,0,bisschop,0,43,43,16,1
,,,,,00086,2023-10-25_19h00.53.971,vbt_B1_day3,2022.2.4,Win32,60.09976561,,,,,,,,,,,,,,,,,,,,kaas,images/br_kaas.png,images/cb_kaas.png,,kaas,,,,,,,,,,,-0.185185157,-0.055555556,1,0,0,kaas,0,44,44,42,1
,,,,,00086,2023-10-25_19h00.53.971,vbt_B1_day3,2022.2.4,Win32,60.09976561,,,,,,,,,,,,,,,,,,,,hust,images/br_hust.png,images/cb_hust.png,,hust,,,,,,,,,,,-0.072222222,-0.062037065,1,0,0,hust,0,45,45,23,1
,,,,,00086,2023-10-25_19h00.53.971,vbt_B1_day3,2022.2.4,Win32,60.09976561,,,,,,,,,,,,,,,,,,,,hint,images/br_hint.png,images/cb_hint.png,,hint,,,,,,,,,,,-0.144444444,-0.048148176,1,0,0,hint,0,46,46,43,1
,,,,,00086,2023-10-25_19h00.53.971,vbt_B1_day3,2022.2.4,Win32,60.09976561,,,,,,,,,,,,,,,,,,,,theeting,images/br_theeting.png,images/cb_theeting.png,,theeting,,,,,,,,,,,-0.090740712,-0.050925954,1,0,0,theeting,0,47,47,38,1
,,,,,00086,2023-10-25_19h00.53.971,vbt_B1_day3,2022.2.4,Win32,60.09976561,,,,,,,,,,,,,,,,,,,,gebod,images/br_gebod.png,images/cb_gebod.png,,gebod,,,,,,,,,,,-0.031481425,-0.037037065,1,0,0,gebod,0,48,48,45,1
,,,,,00086,2023-10-25_19h00.53.971,vbt_B1_day3,2022.2.4,Win32,60.09976561,,,,,,,,,,,,,,,,,,,,dwang,images/br_dwang.png,images/cb_dwang.png,,dwang,,,,,,,,,,,-0.031481425,-0.037037065,1,0,0,dwang,0,49,49,47,1
,,,,,00086,2023-10-25_19h00.53.971,vbt_B1_day3,2022.2.4,Win32,60.09976561,,,,,,,,,,,,,,,,,,,,alsof,images/br_alsof.png,images/cb_alsof.png,,alsof,,,,,,,,,,,-0.031481425,-0.037037065,1,0,0,alsof,0,50,50,44,1
,,,,,00086,2023-10-25_19h00.53.971,vbt_B1_day3,2022.2.4,Win32,60.09976561,,,,,,,,,,,,,,,,,,,,leemaken,images/br_leemaken.png,images/cb_leemaken.png,,leemak..,,,,,,,,,,,-0.083333333,-0.122222222,1,0,0,leemak..,0,51,51,39,1
,,,,,00086,2023-10-25_19h00.53.971,vbt_B1_day3,2022.2.4,Win32,60.09976561,,,,,,,,,,,,,,,,,,,,prikken,images/br_prikken.png,images/cb_prikken.png,,prikken,,,,,,,,,,,-0.083333333,-0.122222222,1,0,0,prikken,0,52,52,12,1
,,,,,00086,2023-10-25_19h00.53.971,vbt_B1_day3,2022.2.4,Win32,60.09976561,,,,,,,,,,,,,,,,,,,,schodel,images/br_schodel.png,images/cb_schodel.png,,schodel,,,,,,,,,,,-0.085185157,-0.097222222,1,0,0,schodel,0,53,53,33,1
,,,,,00086,2023-10-25_19h00.53.971,vbt_B1_day3,2022.2.4,Win32,60.09976561,,,,,,,,,,,,,,,,,,,,mugeek,images/br_mugeek.png,images/cb_mugeek.png,,mogeek,,,,,,,,,,,-0.177777778,-0.017592621,1,0,0,mogeek,0,54,54,29,1
,,,,,00086,2023-10-25_19h00.53.971,vbt_B1_day3,2022.2.4,Win32,60.09976561,,,,,,,,,,,,,,,,,,,,samen,images/br_samen.png,images/cb_samen.png,,sam..,,,,,,,,,,,-0.241666667,-0.073148176,1,0,0,sam..,0,55,55,7,1
,,,,,00086,2023-10-25_19h00.53.971,vbt_B1_day3,2022.2.4,Win32,60.09976561,,,,,,,,,,,,,,,,,,,,croo,images/br_croo.png,images/cb_croo.png,,croo,,,,,,,,,,,-0.184259245,-0.060185199,1,0,0,croo,0,56,56,22,1
,,,,,00086,2023-10-25_19h00.53.971,vbt_B1_day3,2022.2.4,Win32,60.09976561,,,,,,,,,,,,,,,,,,,,gout,images/br_gout.png,images/cb_gout.png,,gout,,,,,,,,,,,-0.170370314,-0.050925954,1,0,0,gout,0,57,57,20,1
,,,,,00086,2023-10-25_19h00.53.971,vbt_B1_day3,2022.2.4,Win32,60.09976561,,,,,,,,,,,,,,,,,,,,zone,images/br_zone.png,images/cb_zone.png,,zone,,,,,,,,,,,-0.171296268,-0.008333333,1,0,0,zone,0,58,58,41,1
,,,,,00086,2023-10-25_19h00.53.971,vbt_B1_day3,2022.2.4,Win32,60.09976561,,,,,,,,,,,,,,,,,,,,stallen,images/br_stallen.png,images/cb_stallen.png,,stallen,,,,,,,,,,,-0.246296268,-0.045370399,1,0,0,stallen,0,59,59,52,1
,,,,,00086,2023-10-25_19h00.53.971,vbt_B1_day3,2022.2.4,Win32,60.09976561,,,,,,,,,,,,,,,,,,,,,,,,,,,,,,,,,,,,,,,,,,,,,
