welcome_mouse.x,welcome_mouse.y,welcome_mouse.leftButton,welcome_mouse.midButton,welcome_mouse.rightButton,"ID",date,expName,psychopyVersion,OS,frameRate,trainInstr_mouse.x,trainInstr_mouse.y,trainInstr_mouse.leftButton,trainInstr_mouse.midButton,trainInstr_mouse.rightButton,translation_key.keys,translation_key.corr,translation_key.rt,testResp,word_rsp.text,trWrd_mouse.x,trWrd_mouse.y,trWrd_mouse.leftButton,trWrd_mouse.midButton,trWrd_mouse.rightButton,train_loop.thisRepN,train_loop.thisTrialN,train_loop.thisN,train_loop.thisIndex,train_loop.ran,nlWrd,brWrd,cbWrd,test,mouse.x,mouse.y,mouse.leftButton,mouse.midButton,mouse.rightButton,testInstr_mouse.x,testInstr_mouse.y,testInstr_mouse.leftButton,testInstr_mouse.midButton,testInstr_mouse.rightButton,test_mouse.x,test_mouse.y,test_mouse.leftButton,test_mouse.midButton,test_mouse.rightButton,test_response.text,test_loop.thisRepN,test_loop.thisTrialN,test_loop.thisN,test_loop.thisIndex,test_loop.ran
-0.149999972,-0.255555541,1,0,0,00029,2023-09-11_23h37.14.660,vbt_B1_day3,2022.2.4,Win32,58.356676,,,,,,,,,,,,,,,,,,,,,,,,,,,,,,,,,,,,,,,,,,,,,
,,,,,00029,2023-09-11_23h37.14.660,vbt_B1_day3,2022.2.4,Win32,58.356676,-0.149999972,-0.255555541,1,0,0,,,,,,,,,,,,,,,,,,,,,,,,,,,,,,,,,,,,,,,,
,,,,,00029,2023-09-11_23h37.14.660,vbt_B1_day3,2022.2.4,Win32,58.356676,,,,,,down,0,21.1533,.e.t,,-0.149999972,-0.255555541,1,0,0,0,0,0,21,1,mist,images/br_mist.png,images/cb_mist.png,1,,,,,,,,,,,,,,,,,,,,,
,,,,,00029,2023-09-11_23h37.14.660,vbt_B1_day3,2022.2.4,Win32,58.356676,,,,,,down,0,0.3062,,,-0.149999972,-0.255555541,1,0,0,0,1,1,0,1,slak,images/br_slak.png,images/cb_slak.png,0,,,,,,,,,,,,,,,,,,,,,
,,,,,00029,2023-09-11_23h37.14.660,vbt_B1_day3,2022.2.4,Win32,58.356676,,,,,,down,0,7.1229,,,-0.151851866,-0.255555541,1,0,0,0,2,2,107,1,maling,images/br_maling.png,images/cb_maling.png,0,,,,,,,,,,,,,,,,,,,,,
,,,,,00029,2023-09-11_23h37.14.660,vbt_B1_day3,2022.2.4,Win32,58.356676,,,,,,down,0,32.8505,clempit,,-0.151851866,-0.255555541,1,0,0,0,3,3,140,1,blijven,images/br_blijven.png,images/cb_blijven.png,1,,,,,,,,,,,,,,,,,,,,,
,,,,,00029,2023-09-11_23h37.14.660,vbt_B1_day3,2022.2.4,Win32,58.356676,,,,,,down,0,60.4066,,,-0.151851866,-0.255555541,1,0,0,0,4,4,3,1,mand,images/br_mand.png,images/cb_mand.png,0,,,,,,,,,,,,,,,,,,,,,
,,,,,00029,2023-09-11_23h37.14.660,vbt_B1_day3,2022.2.4,Win32,58.356676,,,,,,down,0,6.8227,,,-0.151851866,-0.255555541,1,0,0,0,5,5,175,1,heengaan,images/br_heengaan.png,images/cb_heengaan.png,0,,,,,,,,,,,,,,,,,,,,,
,,,,,00029,2023-09-11_23h37.14.660,vbt_B1_day3,2022.2.4,Win32,58.356676,,,,,,down,0,2.8502,,,-0.151851866,-0.255555541,1,0,0,0,6,6,198,1,bedoelen,images/br_bedoelen.png,images/cb_bedoelen.png,0,,,,,,,,,,,,,,,,,,,,,
,,,,,00029,2023-09-11_23h37.14.660,vbt_B1_day3,2022.2.4,Win32,58.356676,,,,,,down,0,0.1109,,,-0.151851866,-0.255555541,1,0,0,0,7,7,50,1,stoom,images/br_stoom.png,images/cb_stoom.png,0,,,,,,,,,,,,,,,,,,,,,
,,,,,00029,2023-09-11_23h37.14.660,vbt_B1_day3,2022.2.4,Win32,58.356676,,,,,,down,0,0.1875,,,-0.151851866,-0.255555541,1,0,0,0,8,8,6,1,diep,images/br_diep.png,images/cb_diep.png,0,,,,,,,,,,,,,,,,,,,,,
,,,,,00029,2023-09-11_23h37.14.660,vbt_B1_day3,2022.2.4,Win32,58.356676,,,,,,down,0,0.2715,,,-0.151851866,-0.255555541,1,0,0,0,9,9,64,1,wegen,images/br_wegen.png,images/cb_wegen.png,0,,,,,,,,,,,,,,,,,,,,,
,,,,,00029,2023-09-11_23h37.14.660,vbt_B1_day3,2022.2.4,Win32,58.356676,,,,,,down,0,1.124,,,-0.151851866,-0.255555541,1,0,0,0,10,10,132,1,grappen,images/br_grappen.png,images/cb_grappen.png,0,,,,,,,,,,,,,,,,,,,,,
,,,,,00029,2023-09-11_23h37.14.660,vbt_B1_day3,2022.2.4,Win32,58.356676,,,,,,down,0,1.1684,,,-0.151851866,-0.255555541,1,0,0,0,11,11,120,1,klimmen,images/br_klimmen.png,images/cb_klimmen.png,0,,,,,,,,,,,,,,,,,,,,,
,,,,,00029,2023-09-11_23h37.14.660,vbt_B1_day3,2022.2.4,Win32,58.356676,,,,,,down,0,0.9546,,,-0.151851866,-0.255555541,1,0,0,0,12,12,5,1,blad,images/br_blad.png,images/cb_blad.png,0,,,,,,,,,,,,,,,,,,,,,
,,,,,00029,2023-09-11_23h37.14.660,vbt_B1_day3,2022.2.4,Win32,58.356676,,,,,,down,0,0.1526,,,-0.151851866,-0.255555541,1,0,0,0,13,13,151,1,aanzoek,images/br_aanzoek.png,images/cb_aanzoek.png,0,,,,,,,,,,,,,,,,,,,,,
,,,,,00029,2023-09-11_23h37.14.660,vbt_B1_day3,2022.2.4,Win32,58.356676,,,,,,down,0,18.0595,oktart,,-0.151851866,-0.255555541,1,0,0,0,14,14,101,1,staren,images/br_staren.png,images/cb_staren.png,1,,,,,,,,,,,,,,,,,,,,,
,,,,,00029,2023-09-11_23h37.14.660,vbt_B1_day3,2022.2.4,Win32,58.356676,,,,,,down,0,0.3442,,,-0.151851866,-0.255555541,1,0,0,0,15,15,33,1,vlek,images/br_vlek.png,images/cb_vlek.png,0,,,,,,,,,,,,,,,,,,,,,
,,,,,00029,2023-09-11_23h37.14.660,vbt_B1_day3,2022.2.4,Win32,58.356676,,,,,,down,0,3.5205,,,-0.151851866,-0.255555541,1,0,0,0,16,16,184,1,aandelen,images/br_aandelen.png,images/cb_aandelen.png,0,,,,,,,,,,,,,,,,,,,,,
,,,,,00029,2023-09-11_23h37.14.660,vbt_B1_day3,2022.2.4,Win32,58.356676,,,,,,down,0,0.4794,,,-0.151851866,-0.255555541,1,0,0,0,17,17,37,1,mijn,images/br_mijn.png,images/cb_mijn.png,0,,,,,,,,,,,,,,,,,,,,,
,,,,,00029,2023-09-11_23h37.14.660,vbt_B1_day3,2022.2.4,Win32,58.356676,,,,,,down,0,13.0527,.lar.,,-0.151851866,-0.255555541,1,0,0,0,18,18,63,1,flirt,images/br_flirt.png,images/cb_flirt.png,1,,,,,,,,,,,,,,,,,,,,,
,,,,,00029,2023-09-11_23h37.14.660,vbt_B1_day3,2022.2.4,Win32,58.356676,,,,,,down,0,4.1372,,,-0.151851866,-0.255555541,1,0,0,0,19,19,127,1,doodmoe,images/br_doodmoe.png,images/cb_doodmoe.png,0,,,,,,,,,,,,,,,,,,,,,
,,,,,00029,2023-09-11_23h37.14.660,vbt_B1_day3,2022.2.4,Win32,58.356676,,,,,,down,0,7.6492,knaap,,-0.151851866,-0.255555541,1,0,0,0,20,20,62,1,knaap,images/br_knaap.png,images/cb_knaap.png,1,,,,,,,,,,,,,,,,,,,,,
,,,,,00029,2023-09-11_23h37.14.660,vbt_B1_day3,2022.2.4,Win32,58.356676,,,,,,down,0,0.778,,,-0.151851866,-0.255555541,1,0,0,0,21,21,11,1,mode,images/br_mode.png,images/cb_mode.png,0,,,,,,,,,,,,,,,,,,,,,
,,,,,00029,2023-09-11_23h37.14.660,vbt_B1_day3,2022.2.4,Win32,58.356676,,,,,,down,0,0.1122,,,-0.151851866,-0.255555541,1,0,0,0,22,22,80,1,kanjer,images/br_kanjer.png,images/cb_kanjer.png,0,,,,,,,,,,,,,,,,,,,,,
,,,,,00029,2023-09-11_23h37.14.660,vbt_B1_day3,2022.2.4,Win32,58.356676,,,,,,down,0,0.536,,,-0.151851866,-0.255555541,1,0,0,0,23,23,126,1,kasteel,images/br_kasteel.png,images/cb_kasteel.png,0,,,,,,,,,,,,,,,,,,,,,
,,,,,00029,2023-09-11_23h37.14.660,vbt_B1_day3,2022.2.4,Win32,58.356676,,,,,,down,0,0.4358,,,-0.151851866,-0.255555541,1,0,0,0,24,24,139,1,stiekem,images/br_stiekem.png,images/cb_stiekem.png,0,,,,,,,,,,,,,,,,,,,,,
,,,,,00029,2023-09-11_23h37.14.660,vbt_B1_day3,2022.2.4,Win32,58.356676,,,,,,down,0,0.3,,,-0.151851866,-0.255555541,1,0,0,0,25,25,145,1,invloed,images/br_invloed.png,images/cb_invloed.png,0,,,,,,,,,,,,,,,,,,,,,
,,,,,00029,2023-09-11_23h37.14.660,vbt_B1_day3,2022.2.4,Win32,58.356676,,,,,,down,0,0.2732,,,-0.151851866,-0.255555541,1,0,0,0,26,26,19,1,geit,images/br_geit.png,images/cb_geit.png,0,,,,,,,,,,,,,,,,,,,,,
,,,,,00029,2023-09-11_23h37.14.660,vbt_B1_day3,2022.2.4,Win32,58.356676,,,,,,down,0,0.2018,,,-0.151851866,-0.255555541,1,0,0,0,27,27,144,1,eetlust,images/br_eetlust.png,images/cb_eetlust.png,0,,,,,,,,,,,,,,,,,,,,,
,,,,,00029,2023-09-11_23h37.14.660,vbt_B1_day3,2022.2.4,Win32,58.356676,,,,,,down,0,92.8488,snuiven,,-0.151851866,-0.255555541,1,0,0,0,28,28,142,1,snuiven,images/br_snuiven.png,images/cb_snuiven.png,1,,,,,,,,,,,,,,,,,,,,,
,,,,,00029,2023-09-11_23h37.14.660,vbt_B1_day3,2022.2.4,Win32,58.356676,,,,,,down,0,163.8221,zout,,-0.151851866,-0.255555541,1,0,0,0,29,29,23,1,zout,images/br_zout.png,images/cb_zout.png,1,,,,,,,,,,,,,,,,,,,,,
,,,,,00029,2023-09-11_23h37.14.660,vbt_B1_day3,2022.2.4,Win32,58.356676,,,,,,down,0,18.262,knielen,,-0.151851866,-0.255555541,1,0,0,0,30,30,141,1,knielen,images/br_knielen.png,images/cb_knielen.png,1,,,,,,,,,,,,,,,,,,,,,
,,,,,00029,2023-09-11_23h37.14.660,vbt_B1_day3,2022.2.4,Win32,58.356676,,,,,,down,0,0.0663,,,-0.151851866,-0.255555541,1,0,0,0,31,31,161,1,attentie,images/br_attentie.png,images/cb_attentie.png,0,,,,,,,,,,,,,,,,,,,,,
,,,,,00029,2023-09-11_23h37.14.660,vbt_B1_day3,2022.2.4,Win32,58.356676,,,,,,down,0,0.0253,,,-0.151851866,-0.255555541,1,0,0,0,32,32,97,1,loyaal,images/br_loyaal.png,images/cb_loyaal.png,0,,,,,,,,,,,,,,,,,,,,,
,,,,,00029,2023-09-11_23h37.14.660,vbt_B1_day3,2022.2.4,Win32,58.356676,,,,,,down,0,0.3057,,,-0.151851866,-0.255555541,1,0,0,0,33,33,108,1,excuus,images/br_excuus.png,images/cb_excuus.png,0,,,,,,,,,,,,,,,,,,,,,
,,,,,00029,2023-09-11_23h37.14.660,vbt_B1_day3,2022.2.4,Win32,58.356676,,,,,,down,0,4.6081,,,-0.151851866,-0.255555541,1,0,0,0,34,34,14,1,rijp,images/br_rijp.png,images/cb_rijp.png,0,,,,,,,,,,,,,,,,,,,,,
,,,,,00029,2023-09-11_23h37.14.660,vbt_B1_day3,2022.2.4,Win32,58.356676,,,,,,down,0,0.4751,,,-0.151851866,-0.255555541,1,0,0,0,35,35,156,1,rechten,images/br_rechten.png,images/cb_rechten.png,0,,,,,,,,,,,,,,,,,,,,,
,,,,,00029,2023-09-11_23h37.14.660,vbt_B1_day3,2022.2.4,Win32,58.356676,,,,,,down,0,1.3514,,,-0.151851866,-0.255555541,1,0,0,0,36,36,68,1,schat,images/br_schat.png,images/cb_schat.png,0,,,,,,,,,,,,,,,,,,,,,
,,,,,00029,2023-09-11_23h37.14.660,vbt_B1_day3,2022.2.4,Win32,58.356676,,,,,,down,0,0.5911,,,-0.151851866,-0.255555541,1,0,0,0,37,37,114,1,vullen,images/br_vullen.png,images/cb_vullen.png,0,,,,,,,,,,,,,,,,,,,,,
,,,,,00029,2023-09-11_23h37.14.660,vbt_B1_day3,2022.2.4,Win32,58.356676,,,,,,down,0,1.1062,,,-0.151851866,-0.255555541,1,0,0,0,38,38,53,1,baron,images/br_baron.png,images/cb_baron.png,0,,,,,,,,,,,,,,,,,,,,,
,,,,,00029,2023-09-11_23h37.14.660,vbt_B1_day3,2022.2.4,Win32,58.356676,,,,,,down,0,69.4487,jasje,,-0.151851866,-0.255555541,1,0,0,0,39,39,60,1,jasje,images/br_jasje.png,images/cb_jasje.png,1,,,,,,,,,,,,,,,,,,,,,
,,,,,00029,2023-09-11_23h37.14.660,vbt_B1_day3,2022.2.4,Win32,58.356676,,,,,,down,0,0.1298,,,-0.151851866,-0.255555541,1,0,0,0,40,40,106,1,zingen,images/br_zingen.png,images/cb_zingen.png,0,,,,,,,,,,,,,,,,,,,,,
,,,,,00029,2023-09-11_23h37.14.660,vbt_B1_day3,2022.2.4,Win32,58.356676,,,,,,down,0,0.3075,,,-0.151851866,-0.255555541,1,0,0,0,41,41,155,1,gerucht,images/br_gerucht.png,images/cb_gerucht.png,0,,,,,,,,,,,,,,,,,,,,,
,,,,,00029,2023-09-11_23h37.14.660,vbt_B1_day3,2022.2.4,Win32,58.356676,,,,,,down,0,0.3591,,,-0.151851866,-0.255555541,1,0,0,0,42,42,179,1,woestijn,images/br_woestijn.png,images/cb_woestijn.png,0,,,,,,,,,,,,,,,,,,,,,
,,,,,00029,2023-09-11_23h37.14.660,vbt_B1_day3,2022.2.4,Win32,58.356676,,,,,,down,0,0.2497,,,-0.151851866,-0.255555541,1,0,0,0,43,43,77,1,woede,images/br_woede.png,images/cb_woede.png,0,,,,,,,,,,,,,,,,,,,,,
,,,,,00029,2023-09-11_23h37.14.660,vbt_B1_day3,2022.2.4,Win32,58.356676,,,,,,down,0,1.3099,,,-0.151851866,-0.255555541,1,0,0,0,44,44,174,1,stemming,images/br_stemming.png,images/cb_stemming.png,0,,,,,,,,,,,,,,,,,,,,,
,,,,,00029,2023-09-11_23h37.14.660,vbt_B1_day3,2022.2.4,Win32,58.356676,,,,,,down,0,0.201,,,-0.151851866,-0.255555541,1,0,0,0,45,45,119,1,liefje,images/br_liefje.png,images/cb_liefje.png,0,,,,,,,,,,,,,,,,,,,,,
,,,,,00029,2023-09-11_23h37.14.660,vbt_B1_day3,2022.2.4,Win32,58.356676,,,,,,down,0,0.1345,,,-0.151851866,-0.255555541,1,0,0,0,46,46,10,1,leek,images/br_leek.png,images/cb_leek.png,0,,,,,,,,,,,,,,,,,,,,,
,,,,,00029,2023-09-11_23h37.14.660,vbt_B1_day3,2022.2.4,Win32,58.356676,,,,,,down,0,0.0864,,,-0.151851866,-0.255555541,1,0,0,0,47,47,150,1,gegeven,images/br_gegeven.png,images/cb_gegeven.png,0,,,,,,,,,,,,,,,,,,,,,
,,,,,00029,2023-09-11_23h37.14.660,vbt_B1_day3,2022.2.4,Win32,58.356676,,,,,,down,0,1.008,,,-0.151851866,-0.255555541,1,0,0,0,48,48,39,1,laag,images/br_laag.png,images/cb_laag.png,0,,,,,,,,,,,,,,,,,,,,,
,,,,,00029,2023-09-11_23h37.14.660,vbt_B1_day3,2022.2.4,Win32,58.356676,,,,,,down,0,0.8343,,,-0.151851866,-0.255555541,1,0,0,0,49,49,35,1,lust,images/br_lust.png,images/cb_lust.png,0,,,,,,,,,,,,,,,,,,,,,
,,,,,00029,2023-09-11_23h37.14.660,vbt_B1_day3,2022.2.4,Win32,58.356676,,,,,,down,0,0.1545,,,-0.151851866,-0.255555541,1,0,0,0,50,50,45,1,piste,images/br_piste.png,images/cb_piste.png,0,,,,,,,,,,,,,,,,,,,,,
,,,,,00029,2023-09-11_23h37.14.660,vbt_B1_day3,2022.2.4,Win32,58.356676,,,,,,down,0,0.6068,,,-0.151851866,-0.255555541,1,0,0,0,51,51,9,1,hier,images/br_hier.png,images/cb_hier.png,0,,,,,,,,,,,,,,,,,,,,,
,,,,,00029,2023-09-11_23h37.14.660,vbt_B1_day3,2022.2.4,Win32,58.356676,,,,,,down,0,0.3508,,,-0.151851866,-0.255555541,1,0,0,0,52,52,199,1,beseffen,images/br_beseffen.png,images/cb_beseffen.png,0,,,,,,,,,,,,,,,,,,,,,
,,,,,00029,2023-09-11_23h37.14.660,vbt_B1_day3,2022.2.4,Win32,58.356676,,,,,,down,0,0.2857,,,-0.151851866,-0.255555541,1,0,0,0,53,53,67,1,zwart,images/br_zwart.png,images/cb_zwart.png,0,,,,,,,,,,,,,,,,,,,,,
,,,,,00029,2023-09-11_23h37.14.660,vbt_B1_day3,2022.2.4,Win32,58.356676,,,,,,down,0,1.1173,,,-0.151851866,-0.255555541,1,0,0,0,54,54,128,1,prikken,images/br_prikken.png,images/cb_prikken.png,0,,,,,,,,,,,,,,,,,,,,,
,,,,,00029,2023-09-11_23h37.14.660,vbt_B1_day3,2022.2.4,Win32,58.356676,,,,,,down,0,0.6088,,,-0.151851866,-0.255555541,1,0,0,0,55,55,82,1,muziek,images/br_muziek.png,images/cb_muziek.png,0,,,,,,,,,,,,,,,,,,,,,
,,,,,00029,2023-09-11_23h37.14.660,vbt_B1_day3,2022.2.4,Win32,58.356676,,,,,,down,0,0.8343,,,-0.151851866,-0.255555541,1,0,0,0,56,56,15,1,soda,images/br_soda.png,images/cb_soda.png,0,,,,,,,,,,,,,,,,,,,,,
,,,,,00029,2023-09-11_23h37.14.660,vbt_B1_day3,2022.2.4,Win32,58.356676,,,,,,down,0,1.5018,,,-0.151851866,-0.255555541,1,0,0,0,57,57,38,1,baai,images/br_baai.png,images/cb_baai.png,0,,,,,,,,,,,,,,,,,,,,,
,,,,,00029,2023-09-11_23h37.14.660,vbt_B1_day3,2022.2.4,Win32,58.356676,,,,,,down,0,0.0941,,,-0.151851866,-0.255555541,1,0,0,0,58,58,58,1,tekst,images/br_tekst.png,images/cb_tekst.png,0,,,,,,,,,,,,,,,,,,,,,
,,,,,00029,2023-09-11_23h37.14.660,vbt_B1_day3,2022.2.4,Win32,58.356676,,,,,,down,0,0.3124,,,-0.151851866,-0.255555541,1,0,0,0,59,59,73,1,volop,images/br_volop.png,images/cb_volop.png,0,,,,,,,,,,,,,,,,,,,,,
,,,,,00029,2023-09-11_23h37.14.660,vbt_B1_day3,2022.2.4,Win32,58.356676,,,,,,down,0,104.2118,bijkomen,,-0.151851866,-0.255555541,1,0,0,0,60,60,182,1,bijkomen,images/br_bijkomen.png,images/cb_bijkomen.png,1,,,,,,,,,,,,,,,,,,,,,
,,,,,00029,2023-09-11_23h37.14.660,vbt_B1_day3,2022.2.4,Win32,58.356676,,,,,,down,0,0.7676,,,-0.151851866,-0.255555541,1,0,0,0,61,61,83,1,mening,images/br_mening.png,images/cb_mening.png,0,,,,,,,,,,,,,,,,,,,,,
,,,,,00029,2023-09-11_23h37.14.660,vbt_B1_day3,2022.2.4,Win32,58.356676,,,,,,down,0,0.2036,,,-0.151851866,-0.255555541,1,0,0,0,62,62,176,1,techniek,images/br_techniek.png,images/cb_techniek.png,0,,,,,,,,,,,,,,,,,,,,,
,,,,,00029,2023-09-11_23h37.14.660,vbt_B1_day3,2022.2.4,Win32,58.356676,,,,,,down,0,0.1617,,,-0.151851866,-0.255555541,1,0,0,0,63,63,55,1,praat,images/br_praat.png,images/cb_praat.png,0,,,,,,,,,,,,,,,,,,,,,
,,,,,00029,2023-09-11_23h37.14.660,vbt_B1_day3,2022.2.4,Win32,58.356676,,,,,,down,0,0.089,,,-0.151851866,-0.255555541,1,0,0,0,64,64,117,1,kennis,images/br_kennis.png,images/cb_kennis.png,0,,,,,,,,,,,,,,,,,,,,,
,,,,,00029,2023-09-11_23h37.14.660,vbt_B1_day3,2022.2.4,Win32,58.356676,,,,,,down,0,2.3508,,,-0.151851866,-0.255555541,1,0,0,0,65,65,197,1,spanning,images/br_spanning.png,images/cb_spanning.png,0,,,,,,,,,,,,,,,,,,,,,
,,,,,00029,2023-09-11_23h37.14.660,vbt_B1_day3,2022.2.4,Win32,58.356676,,,,,,down,0,1.6447,,,-0.151851866,-0.255555541,1,0,0,0,66,66,129,1,verhaal,images/br_verhaal.png,images/cb_verhaal.png,0,,,,,,,,,,,,,,,,,,,,,
,,,,,00029,2023-09-11_23h37.14.660,vbt_B1_day3,2022.2.4,Win32,58.356676,,,,,,down,0,0.8384,,,-0.151851866,-0.255555541,1,0,0,0,67,67,131,1,opzicht,images/br_opzicht.png,images/cb_opzicht.png,0,,,,,,,,,,,,,,,,,,,,,
,,,,,00029,2023-09-11_23h37.14.660,vbt_B1_day3,2022.2.4,Win32,58.356676,,,,,,down,0,85.5781,joggen,,-0.151851866,-0.255555541,1,0,0,0,68,68,103,1,joggen,images/br_joggen.png,images/cb_joggen.png,1,,,,,,,,,,,,,,,,,,,,,
,,,,,00029,2023-09-11_23h37.14.660,vbt_B1_day3,2022.2.4,Win32,58.356676,,,,,,down,0,2.4703,,,-0.151851866,-0.255555541,1,0,0,0,69,69,124,1,bloeien,images/br_bloeien.png,images/cb_bloeien.png,0,,,,,,,,,,,,,,,,,,,,,
,,,,,00029,2023-09-11_23h37.14.660,vbt_B1_day3,2022.2.4,Win32,58.356676,,,,,,down,0,0.2461,,,-0.151851866,-0.255555541,1,0,0,0,70,70,168,1,bisschop,images/br_bisschop.png,images/cb_bisschop.png,0,,,,,,,,,,,,,,,,,,,,,
,,,,,00029,2023-09-11_23h37.14.660,vbt_B1_day3,2022.2.4,Win32,58.356676,,,,,,down,0,1.1759,,,-0.151851866,-0.255555541,1,0,0,0,71,71,154,1,aflopen,images/br_aflopen.png,images/cb_aflopen.png,0,,,,,,,,,,,,,,,,,,,,,
,,,,,00029,2023-09-11_23h37.14.660,vbt_B1_day3,2022.2.4,Win32,58.356676,,,,,,down,0,3.3829,,,-0.151851866,-0.255555541,1,0,0,0,72,72,47,1,kabel,images/br_kabel.png,images/cb_kabel.png,0,,,,,,,,,,,,,,,,,,,,,
,,,,,00029,2023-09-11_23h37.14.660,vbt_B1_day3,2022.2.4,Win32,58.356676,,,,,,down,0,0.0009,,,-0.151851866,-0.255555541,1,0,0,0,73,73,118,1,vinger,images/br_vinger.png,images/cb_vinger.png,0,,,,,,,,,,,,,,,,,,,,,
,,,,,00029,2023-09-11_23h37.14.660,vbt_B1_day3,2022.2.4,Win32,58.356676,,,,,,down,0,0.6153,,,-0.151851866,-0.255555541,1,0,0,0,74,74,85,1,heilig,images/br_heilig.png,images/cb_heilig.png,0,,,,,,,,,,,,,,,,,,,,,
,,,,,00029,2023-09-11_23h37.14.660,vbt_B1_day3,2022.2.4,Win32,58.356676,,,,,,down,0,0.2652,,,-0.151851866,-0.255555541,1,0,0,0,75,75,137,1,trekker,images/br_trekker.png,images/cb_trekker.png,0,,,,,,,,,,,,,,,,,,,,,
,,,,,00029,2023-09-11_23h37.14.660,vbt_B1_day3,2022.2.4,Win32,58.356676,,,,,,down,0,27.2166,hechten,,-0.151851866,-0.255555541,1,0,0,0,76,76,143,1,hechten,images/br_hechten.png,images/cb_hechten.png,1,,,,,,,,,,,,,,,,,,,,,
,,,,,00029,2023-09-11_23h37.14.660,vbt_B1_day3,2022.2.4,Win32,58.356676,,,,,,down,0,25.1166,stof,,-0.151851866,-0.255555541,1,0,0,0,77,77,22,1,stof,images/br_stof.png,images/cb_stof.png,1,,,,,,,,,,,,,,,,,,,,,
,,,,,00029,2023-09-11_23h37.14.660,vbt_B1_day3,2022.2.4,Win32,58.356676,,,,,,down,0,0.3407,,,-0.151851866,-0.255555541,1,0,0,0,78,78,65,1,parel,images/br_parel.png,images/cb_parel.png,0,,,,,,,,,,,,,,,,,,,,,
,,,,,00029,2023-09-11_23h37.14.660,vbt_B1_day3,2022.2.4,Win32,58.356676,,,,,,down,0,0.1114,,,-0.151851866,-0.255555541,1,0,0,0,79,79,81,1,dubbel,images/br_dubbel.png,images/cb_dubbel.png,0,,,,,,,,,,,,,,,,,,,,,
,,,,,00029,2023-09-11_23h37.14.660,vbt_B1_day3,2022.2.4,Win32,58.356676,,,,,,down,0,1.8901,,,-0.151851866,-0.255555541,1,0,0,0,80,80,130,1,keihard,images/br_keihard.png,images/cb_keihard.png,0,,,,,,,,,,,,,,,,,,,,,
,,,,,00029,2023-09-11_23h37.14.660,vbt_B1_day3,2022.2.4,Win32,58.356676,,,,,,down,0,0.2839,,,-0.151851866,-0.255555541,1,0,0,0,81,81,69,1,waken,images/br_waken.png,images/cb_waken.png,0,,,,,,,,,,,,,,,,,,,,,
,,,,,00029,2023-09-11_23h37.14.660,vbt_B1_day3,2022.2.4,Win32,58.356676,,,,,,down,0,22.2324,site,,-0.151851866,-0.255555541,1,0,0,0,82,82,20,1,site,images/br_site.png,images/cb_site.png,1,,,,,,,,,,,,,,,,,,,,,
,,,,,00029,2023-09-11_23h37.14.660,vbt_B1_day3,2022.2.4,Win32,58.356676,,,,,,down,0,0.1103,,,-0.151851866,-0.255555541,1,0,0,0,83,83,27,1,dans,images/br_dans.png,images/cb_dans.png,0,,,,,,,,,,,,,,,,,,,,,
,,,,,00029,2023-09-11_23h37.14.660,vbt_B1_day3,2022.2.4,Win32,58.356676,,,,,,down,0,1.1498,,,-0.151851866,-0.255555541,1,0,0,0,84,84,138,1,akkoord,images/br_akkoord.png,images/cb_akkoord.png,0,,,,,,,,,,,,,,,,,,,,,
,,,,,00029,2023-09-11_23h37.14.660,vbt_B1_day3,2022.2.4,Win32,58.356676,,,,,,down,0,0.3078,,,-0.151851866,-0.255555541,1,0,0,0,85,85,71,1,bever,images/br_bever.png,images/cb_bever.png,0,,,,,,,,,,,,,,,,,,,,,
,,,,,00029,2023-09-11_23h37.14.660,vbt_B1_day3,2022.2.4,Win32,58.356676,,,,,,down,0,0.462,,,-0.151851866,-0.255555541,1,0,0,0,86,86,195,1,middelen,images/br_middelen.png,images/cb_middelen.png,0,,,,,,,,,,,,,,,,,,,,,
,,,,,00029,2023-09-11_23h37.14.660,vbt_B1_day3,2022.2.4,Win32,58.356676,,,,,,down,0,0.3345,,,-0.151851866,-0.255555541,1,0,0,0,87,87,185,1,mijnheer,images/br_mijnheer.png,images/cb_mijnheer.png,0,,,,,,,,,,,,,,,,,,,,,
,,,,,00029,2023-09-11_23h37.14.660,vbt_B1_day3,2022.2.4,Win32,58.356676,,,,,,down,0,1.0441,,,-0.151851866,-0.255555541,1,0,0,0,88,88,166,1,strikken,images/br_strikken.png,images/cb_strikken.png,0,,,,,,,,,,,,,,,,,,,,,
,,,,,00029,2023-09-11_23h37.14.660,vbt_B1_day3,2022.2.4,Win32,58.356676,,,,,,down,0,0.3721,,,-0.151851866,-0.255555541,1,0,0,0,89,89,12,1,kust,images/br_kust.png,images/cb_kust.png,0,,,,,,,,,,,,,,,,,,,,,
,,,,,00029,2023-09-11_23h37.14.660,vbt_B1_day3,2022.2.4,Win32,58.356676,,,,,,down,0,0.0625,,,-0.151851866,-0.255555541,1,0,0,0,90,90,16,1,ziek,images/br_ziek.png,images/cb_ziek.png,0,,,,,,,,,,,,,,,,,,,,,
,,,,,00029,2023-09-11_23h37.14.660,vbt_B1_day3,2022.2.4,Win32,58.356676,,,,,,down,0,4.0003,,,-0.151851866,-0.255555541,1,0,0,0,91,91,25,1,plek,images/br_plek.png,images/cb_plek.png,0,,,,,,,,,,,,,,,,,,,,,
,,,,,00029,2023-09-11_23h37.14.660,vbt_B1_day3,2022.2.4,Win32,58.356676,,,,,,down,0,0.1108,,,-0.151851866,-0.255555541,1,0,0,0,92,92,86,1,woning,images/br_woning.png,images/cb_woning.png,0,,,,,,,,,,,,,,,,,,,,,
,,,,,00029,2023-09-11_23h37.14.660,vbt_B1_day3,2022.2.4,Win32,58.356676,,,,,,down,0,1.2196,,,-0.151851866,-0.255555541,1,0,0,0,93,93,54,1,gebit,images/br_gebit.png,images/cb_gebit.png,0,,,,,,,,,,,,,,,,,,,,,
,,,,,00029,2023-09-11_23h37.14.660,vbt_B1_day3,2022.2.4,Win32,58.356676,,,,,,down,0,1.4889,,,-0.162962949,-0.255555541,1,0,0,0,94,94,95,1,vreten,images/br_vreten.png,images/cb_vreten.png,0,,,,,,,,,,,,,,,,,,,,,
,,,,,00029,2023-09-11_23h37.14.660,vbt_B1_day3,2022.2.4,Win32,58.356676,,,,,,down,0,0.331,,,-0.162962949,-0.255555541,1,0,0,0,95,95,170,1,schatten,images/br_schatten.png,images/cb_schatten.png,0,,,,,,,,,,,,,,,,,,,,,
,,,,,00029,2023-09-11_23h37.14.660,vbt_B1_day3,2022.2.4,Win32,58.356676,,,,,,down,0,0.2845,,,-0.162962949,-0.255555541,1,0,0,0,96,96,93,1,waarop,images/br_waarop.png,images/cb_waarop.png,0,,,,,,,,,,,,,,,,,,,,,
,,,,,00029,2023-09-11_23h37.14.660,vbt_B1_day3,2022.2.4,Win32,58.356676,,,,,,down,0,0.4288,,,-0.162962949,-0.255555541,1,0,0,0,97,97,162,1,uitdelen,images/br_uitdelen.png,images/cb_uitdelen.png,0,,,,,,,,,,,,,,,,,,,,,
,,,,,00029,2023-09-11_23h37.14.660,vbt_B1_day3,2022.2.4,Win32,58.356676,,,,,,down,0,1.0414,,,-0.162962949,-0.255555541,1,0,0,0,98,98,79,1,nodig,images/br_nodig.png,images/cb_nodig.png,0,,,,,,,,,,,,,,,,,,,,,
,,,,,00029,2023-09-11_23h37.14.660,vbt_B1_day3,2022.2.4,Win32,58.356676,,,,,,down,0,1.453,,,-0.162962949,-0.255555541,1,0,0,0,99,99,186,1,voorraad,images/br_voorraad.png,images/cb_voorraad.png,0,,,,,,,,,,,,,,,,,,,,,
,,,,,00029,2023-09-11_23h37.14.660,vbt_B1_day3,2022.2.4,Win32,58.356676,,,,,,down,0,1.1729,,,-0.162962949,-0.255555541,1,0,0,0,100,100,34,1,vorm,images/br_vorm.png,images/cb_vorm.png,0,,,,,,,,,,,,,,,,,,,,,
,,,,,00029,2023-09-11_23h37.14.660,vbt_B1_day3,2022.2.4,Win32,58.356676,,,,,,down,0,0.5172,,,-0.162962949,-0.255555541,1,0,0,0,101,101,26,1,leuk,images/br_leuk.png,images/cb_leuk.png,0,,,,,,,,,,,,,,,,,,,,,
,,,,,00029,2023-09-11_23h37.14.660,vbt_B1_day3,2022.2.4,Win32,58.356676,,,,,,down,0,0.0334,,,-0.162962949,-0.255555541,1,0,0,0,102,102,4,1,moes,images/br_moes.png,images/cb_moes.png,0,,,,,,,,,,,,,,,,,,,,,
,,,,,00029,2023-09-11_23h37.14.660,vbt_B1_day3,2022.2.4,Win32,58.356676,,,,,,down,0,0.9444,,,-0.162962949,-0.255555541,1,0,0,0,103,103,72,1,strak,images/br_strak.png,images/cb_strak.png,0,,,,,,,,,,,,,,,,,,,,,
,,,,,00029,2023-09-11_23h37.14.660,vbt_B1_day3,2022.2.4,Win32,58.356676,,,,,,down,0,1.005,,,-0.162962949,-0.255555541,1,0,0,0,104,104,136,1,waarbij,images/br_waarbij.png,images/cb_waarbij.png,0,,,,,,,,,,,,,,,,,,,,,
,,,,,00029,2023-09-11_23h37.14.660,vbt_B1_day3,2022.2.4,Win32,58.356676,,,,,,down,0,0.1044,,,-0.162962949,-0.255555541,1,0,0,0,105,105,148,1,smullen,images/br_smullen.png,images/cb_smullen.png,0,,,,,,,,,,,,,,,,,,,,,
,,,,,00029,2023-09-11_23h37.14.660,vbt_B1_day3,2022.2.4,Win32,58.356676,,,,,,down,0,0.4797,,,-0.162962949,-0.255555541,1,0,0,0,106,106,180,1,openbaar,images/br_openbaar.png,images/cb_openbaar.png,1,,,,,,,,,,,,,,,,,,,,,
,,,,,00029,2023-09-11_23h37.14.660,vbt_B1_day3,2022.2.4,Win32,58.356676,,,,,,down,0,1.8726,,,-0.162962949,-0.255555541,1,0,0,0,107,107,189,1,aanraden,images/br_aanraden.png,images/cb_aanraden.png,0,,,,,,,,,,,,,,,,,,,,,
,,,,,00029,2023-09-11_23h37.14.660,vbt_B1_day3,2022.2.4,Win32,58.356676,,,,,,down,0,1.4986,,,-0.162962949,-0.255555541,1,0,0,0,108,108,110,1,zuster,images/br_zuster.png,images/cb_zuster.png,0,,,,,,,,,,,,,,,,,,,,,
,,,,,00029,2023-09-11_23h37.14.660,vbt_B1_day3,2022.2.4,Win32,58.356676,,,,,,down,0,2.0689,,,-0.162962949,-0.255555541,1,0,0,0,109,109,18,1,blik,images/br_blik.png,images/cb_blik.png,0,,,,,,,,,,,,,,,,,,,,,
,,,,,00029,2023-09-11_23h37.14.660,vbt_B1_day3,2022.2.4,Win32,58.356676,,,,,,down,0,0.3344,,,-0.162962949,-0.255555541,1,0,0,0,110,110,121,1,twijfel,images/br_twijfel.png,images/cb_twijfel.png,0,,,,,,,,,,,,,,,,,,,,,
,,,,,00029,2023-09-11_23h37.14.660,vbt_B1_day3,2022.2.4,Win32,58.356676,,,,,,down,0,0.7843,,,-0.162962949,-0.255555541,1,0,0,0,111,111,98,1,kreeft,images/br_kreeft.png,images/cb_kreeft.png,0,,,,,,,,,,,,,,,,,,,,,
,,,,,00029,2023-09-11_23h37.14.660,vbt_B1_day3,2022.2.4,Win32,58.356676,,,,,,down,0,0.3829,,,-0.162962949,-0.255555541,1,0,0,0,112,112,96,1,slagen,images/br_slagen.png,images/cb_slagen.png,0,,,,,,,,,,,,,,,,,,,,,
,,,,,00029,2023-09-11_23h37.14.660,vbt_B1_day3,2022.2.4,Win32,58.356676,,,,,,down,0,0.6298,,,-0.162962949,-0.255555541,1,0,0,0,113,113,169,1,oprotten,images/br_oprotten.png,images/cb_oprotten.png,0,,,,,,,,,,,,,,,,,,,,,
,,,,,00029,2023-09-11_23h37.14.660,vbt_B1_day3,2022.2.4,Win32,58.356676,,,,,,down,0,1.1333,,,-0.162962949,-0.255555541,1,0,0,0,114,114,31,1,poes,images/br_poes.png,images/cb_poes.png,0,,,,,,,,,,,,,,,,,,,,,
,,,,,00029,2023-09-11_23h37.14.660,vbt_B1_day3,2022.2.4,Win32,58.356676,,,,,,down,0,0.8567,,,-0.162962949,-0.255555541,1,0,0,0,115,115,94,1,oceaan,images/br_oceaan.png,images/cb_oceaan.png,0,,,,,,,,,,,,,,,,,,,,,
,,,,,00029,2023-09-11_23h37.14.660,vbt_B1_day3,2022.2.4,Win32,58.356676,,,,,,down,0,0.577,,,-0.162962949,-0.255555541,1,0,0,0,116,116,167,1,eenhoorn,images/br_eenhoorn.png,images/cb_eenhoorn.png,0,,,,,,,,,,,,,,,,,,,,,
,,,,,00029,2023-09-11_23h37.14.660,vbt_B1_day3,2022.2.4,Win32,58.356676,,,,,,down,0,0.916,,,-0.162962949,-0.255555541,1,0,0,0,117,117,91,1,gezond,images/br_gezond.png,images/cb_gezond.png,0,,,,,,,,,,,,,,,,,,,,,
,,,,,00029,2023-09-11_23h37.14.660,vbt_B1_day3,2022.2.4,Win32,58.356676,,,,,,down,0,2.5942,,,-0.162962949,-0.255555541,1,0,0,0,118,118,123,1,hiervan,images/br_hiervan.png,images/cb_hiervan.png,0,,,,,,,,,,,,,,,,,,,,,
,,,,,00029,2023-09-11_23h37.14.660,vbt_B1_day3,2022.2.4,Win32,58.356676,,,,,,down,0,0.3851,,,-0.162962949,-0.255555541,1,0,0,0,119,119,173,1,apparaat,images/br_apparaat.png,images/cb_apparaat.png,0,,,,,,,,,,,,,,,,,,,,,
,,,,,00029,2023-09-11_23h37.14.660,vbt_B1_day3,2022.2.4,Win32,58.356676,,,,,,down,0,0.3258,,,-0.162962949,-0.255555541,1,0,0,0,120,120,8,1,knie,images/br_knie.png,images/cb_knie.png,0,,,,,,,,,,,,,,,,,,,,,
,,,,,00029,2023-09-11_23h37.14.660,vbt_B1_day3,2022.2.4,Win32,58.356676,,,,,,down,0,1.2003,,,-0.162962949,-0.255555541,1,0,0,0,121,121,122,1,waarvan,images/br_waarvan.png,images/cb_waarvan.png,0,,,,,,,,,,,,,,,,,,,,,
,,,,,00029,2023-09-11_23h37.14.660,vbt_B1_day3,2022.2.4,Win32,58.356676,,,,,,down,0,0.1858,,,-0.162962949,-0.255555541,1,0,0,0,122,122,104,1,zweven,images/br_zweven.png,images/cb_zweven.png,0,,,,,,,,,,,,,,,,,,,,,
,,,,,00029,2023-09-11_23h37.14.660,vbt_B1_day3,2022.2.4,Win32,58.356676,,,,,,down,0,1.3965,,,-0.162962949,-0.255555541,1,0,0,0,123,123,192,1,schaamte,images/br_schaamte.png,images/cb_schaamte.png,0,,,,,,,,,,,,,,,,,,,,,
,,,,,00029,2023-09-11_23h37.14.660,vbt_B1_day3,2022.2.4,Win32,58.356676,,,,,,down,0,0.4914,,,-0.162962949,-0.255555541,1,0,0,0,124,124,13,1,kaal,images/br_kaal.png,images/cb_kaal.png,0,,,,,,,,,,,,,,,,,,,,,
,,,,,00029,2023-09-11_23h37.14.660,vbt_B1_day3,2022.2.4,Win32,58.356676,,,,,,down,0,0.4874,,,-0.162962949,-0.255555541,1,0,0,0,125,125,87,1,toeval,images/br_toeval.png,images/cb_toeval.png,0,,,,,,,,,,,,,,,,,,,,,
,,,,,00029,2023-09-11_23h37.14.660,vbt_B1_day3,2022.2.4,Win32,58.356676,,,,,,down,0,1.0123,,,-0.162962949,-0.255555541,1,0,0,0,126,126,78,1,leren,images/br_leren.png,images/cb_leren.png,0,,,,,,,,,,,,,,,,,,,,,
,,,,,00029,2023-09-11_23h37.14.660,vbt_B1_day3,2022.2.4,Win32,58.356676,,,,,,down,0,0.4508,,,-0.162962949,-0.255555541,1,0,0,0,127,127,41,1,maken,images/br_maken.png,images/cb_maken.png,0,,,,,,,,,,,,,,,,,,,,,
,,,,,00029,2023-09-11_23h37.14.660,vbt_B1_day3,2022.2.4,Win32,58.356676,,,,,,down,0,0.4256,,,-0.162962949,-0.255555541,1,0,0,0,128,128,99,1,koffie,images/br_koffie.png,images/cb_koffie.png,0,,,,,,,,,,,,,,,,,,,,,
,,,,,00029,2023-09-11_23h37.14.660,vbt_B1_day3,2022.2.4,Win32,58.356676,,,,,,down,0,0.4446,,,-0.162962949,-0.255555541,1,0,0,0,129,129,1,1,zaal,images/br_zaal.png,images/cb_zaal.png,0,,,,,,,,,,,,,,,,,,,,,
,,,,,00029,2023-09-11_23h37.14.660,vbt_B1_day3,2022.2.4,Win32,58.356676,,,,,,down,0,0.4611,,,-0.162962949,-0.255555541,1,0,0,0,130,130,134,1,geliefd,images/br_geliefd.png,images/cb_geliefd.png,0,,,,,,,,,,,,,,,,,,,,,
,,,,,00029,2023-09-11_23h37.14.660,vbt_B1_day3,2022.2.4,Win32,58.356676,,,,,,down,0,0.4534,,,-0.162962949,-0.255555541,1,0,0,0,131,131,49,1,laken,images/br_laken.png,images/cb_laken.png,0,,,,,,,,,,,,,,,,,,,,,
,,,,,00029,2023-09-11_23h37.14.660,vbt_B1_day3,2022.2.4,Win32,58.356676,,,,,,down,0,0.101,,,-0.162962949,-0.255555541,1,0,0,0,132,132,43,1,klauw,images/br_klauw.png,images/cb_klauw.png,0,,,,,,,,,,,,,,,,,,,,,
,,,,,00029,2023-09-11_23h37.14.660,vbt_B1_day3,2022.2.4,Win32,58.356676,,,,,,down,0,0.2847,,,-0.162962949,-0.255555541,1,0,0,0,133,133,153,1,vervoer,images/br_vervoer.png,images/cb_vervoer.png,0,,,,,,,,,,,,,,,,,,,,,
,,,,,00029,2023-09-11_23h37.14.660,vbt_B1_day3,2022.2.4,Win32,58.356676,,,,,,down,0,1.7507,,,-0.162962949,-0.255555541,1,0,0,0,134,134,133,1,seizoen,images/br_seizoen.png,images/cb_seizoen.png,0,,,,,,,,,,,,,,,,,,,,,
,,,,,00029,2023-09-11_23h37.14.660,vbt_B1_day3,2022.2.4,Win32,58.356676,,,,,,down,0,14.3015,legaal,,-0.162962949,-0.255555541,1,0,0,0,135,135,102,1,legaal,images/br_legaal.png,images/cb_legaal.png,1,,,,,,,,,,,,,,,,,,,,,
,,,,,00029,2023-09-11_23h37.14.660,vbt_B1_day3,2022.2.4,Win32,58.356676,,,,,,down,0,0.8504,,,-0.162962949,-0.255555541,1,0,0,0,136,136,149,1,redding,images/br_redding.png,images/cb_redding.png,0,,,,,,,,,,,,,,,,,,,,,
,,,,,00029,2023-09-11_23h37.14.660,vbt_B1_day3,2022.2.4,Win32,58.356676,,,,,,down,0,0.3016,,,-0.162962949,-0.255555541,1,0,0,0,137,137,116,1,besmet,images/br_besmet.png,images/cb_besmet.png,0,,,,,,,,,,,,,,,,,,,,,
,,,,,00029,2023-09-11_23h37.14.660,vbt_B1_day3,2022.2.4,Win32,58.356676,,,,,,down,0,0.1185,,,-0.162962949,-0.255555541,1,0,0,0,138,138,178,1,huisdier,images/br_huisdier.png,images/cb_huisdier.png,0,,,,,,,,,,,,,,,,,,,,,
,,,,,00029,2023-09-11_23h37.14.660,vbt_B1_day3,2022.2.4,Win32,58.356676,,,,,,down,0,2.284,,,-0.162962949,-0.255555541,1,0,0,0,139,139,115,1,kleren,images/br_kleren.png,images/cb_kleren.png,0,,,,,,,,,,,,,,,,,,,,,
,,,,,00029,2023-09-11_23h37.14.660,vbt_B1_day3,2022.2.4,Win32,58.356676,,,,,,down,0,0.3162,,,-0.162962949,-0.255555541,1,0,0,0,140,140,111,1,ticket,images/br_ticket.png,images/cb_ticket.png,0,,,,,,,,,,,,,,,,,,,,,
,,,,,00029,2023-09-11_23h37.14.660,vbt_B1_day3,2022.2.4,Win32,58.356676,,,,,,down,0,0.8228,,,-0.162962949,-0.255555541,1,0,0,0,141,141,59,1,kring,images/br_kring.png,images/cb_kring.png,0,,,,,,,,,,,,,,,,,,,,,
,,,,,00029,2023-09-11_23h37.14.660,vbt_B1_day3,2022.2.4,Win32,58.356676,,,,,,down,0,1.8628,,,-0.162962949,-0.255555541,1,0,0,0,142,142,187,1,opkijken,images/br_opkijken.png,images/cb_opkijken.png,0,,,,,,,,,,,,,,,,,,,,,
,,,,,00029,2023-09-11_23h37.14.660,vbt_B1_day3,2022.2.4,Win32,58.356676,,,,,,down,0,1.3554,,,-0.162962949,-0.255555541,1,0,0,0,143,143,32,1,palm,images/br_palm.png,images/cb_palm.png,0,,,,,,,,,,,,,,,,,,,,,
,,,,,00029,2023-09-11_23h37.14.660,vbt_B1_day3,2022.2.4,Win32,58.356676,,,,,,down,0,2.5388,,,-0.162962949,-0.255555541,1,0,0,0,144,144,46,1,jagen,images/br_jagen.png,images/cb_jagen.png,0,,,,,,,,,,,,,,,,,,,,,
,,,,,00029,2023-09-11_23h37.14.660,vbt_B1_day3,2022.2.4,Win32,58.356676,,,,,,down,0,0.3392,,,-0.162962949,-0.255555541,1,0,0,0,145,145,193,1,weeshuis,images/br_weeshuis.png,images/cb_weeshuis.png,0,,,,,,,,,,,,,,,,,,,,,
,,,,,00029,2023-09-11_23h37.14.660,vbt_B1_day3,2022.2.4,Win32,58.356676,,,,,,down,0,0.6538,,,-0.162962949,-0.255555541,1,0,0,0,146,146,74,1,graaf,images/br_graaf.png,images/cb_graaf.png,0,,,,,,,,,,,,,,,,,,,,,
,,,,,00029,2023-09-11_23h37.14.660,vbt_B1_day3,2022.2.4,Win32,58.356676,,,,,,down,0,0.3508,,,-0.162962949,-0.255555541,1,0,0,0,147,147,28,1,stal,images/br_stal.png,images/cb_stal.png,0,,,,,,,,,,,,,,,,,,,,,
,,,,,00029,2023-09-11_23h37.14.660,vbt_B1_day3,2022.2.4,Win32,58.356676,,,,,,down,0,51.4581,geduld,,-0.162962949,-0.255555541,1,0,0,0,148,148,100,1,geduld,images/br_geduld.png,images/cb_geduld.png,1,,,,,,,,,,,,,,,,,,,,,
,,,,,00029,2023-09-11_23h37.14.660,vbt_B1_day3,2022.2.4,Win32,58.356676,,,,,,down,0,0.1204,,,-0.162962949,-0.255555541,1,0,0,0,149,149,2,1,jaar,images/br_jaar.png,images/cb_jaar.png,0,,,,,,,,,,,,,,,,,,,,,
,,,,,00029,2023-09-11_23h37.14.660,vbt_B1_day3,2022.2.4,Win32,58.356676,,,,,,down,0,0.0587,,,-0.162962949,-0.255555541,1,0,0,0,150,150,125,1,aanzien,images/br_aanzien.png,images/cb_aanzien.png,0,,,,,,,,,,,,,,,,,,,,,
,,,,,00029,2023-09-11_23h37.14.660,vbt_B1_day3,2022.2.4,Win32,58.356676,,,,,,down,0,0.2035,,,-0.162962949,-0.255555541,1,0,0,0,151,151,146,1,opkomen,images/br_opkomen.png,images/cb_opkomen.png,0,,,,,,,,,,,,,,,,,,,,,
,,,,,00029,2023-09-11_23h37.14.660,vbt_B1_day3,2022.2.4,Win32,58.356676,,,,,,down,0,0.3267,,,-0.162962949,-0.255555541,1,0,0,0,152,152,160,1,daarheen,images/br_daarheen.png,images/cb_daarheen.png,0,,,,,,,,,,,,,,,,,,,,,
,,,,,00029,2023-09-11_23h37.14.660,vbt_B1_day3,2022.2.4,Win32,58.356676,,,,,,down,0,0.3703,,,-0.162962949,-0.255555541,1,0,0,0,153,153,112,1,lukken,images/br_lukken.png,images/cb_lukken.png,0,,,,,,,,,,,,,,,,,,,,,
,,,,,00029,2023-09-11_23h37.14.660,vbt_B1_day3,2022.2.4,Win32,58.356676,,,,,,down,0,0.9303,,,-0.162962949,-0.255555541,1,0,0,0,154,154,90,1,geluid,images/br_geluid.png,images/cb_geluid.png,0,,,,,,,,,,,,,,,,,,,,,
,,,,,00029,2023-09-11_23h37.14.660,vbt_B1_day3,2022.2.4,Win32,58.356676,,,,,,down,0,1.6843,,,-0.162962949,-0.255555541,1,0,0,0,155,155,105,1,wijlen,images/br_wijlen.png,images/cb_wijlen.png,0,,,,,,,,,,,,,,,,,,,,,
,,,,,00029,2023-09-11_23h37.14.660,vbt_B1_day3,2022.2.4,Win32,58.356676,,,,,,down,0,0.2523,,,-0.162962949,-0.255555541,1,0,0,0,156,156,70,1,ijdel,images/br_ijdel.png,images/cb_ijdel.png,0,,,,,,,,,,,,,,,,,,,,,
,,,,,00029,2023-09-11_23h37.14.660,vbt_B1_day3,2022.2.4,Win32,58.356676,,,,,,down,0,1.053,,,-0.162962949,-0.255555541,1,0,0,0,157,157,88,1,boeien,images/br_boeien.png,images/cb_boeien.png,0,,,,,,,,,,,,,,,,,,,,,
,,,,,00029,2023-09-11_23h37.14.660,vbt_B1_day3,2022.2.4,Win32,58.356676,,,,,,down,0,2.5999,,,-0.162962949,-0.255555541,1,0,0,0,158,158,158,1,innemen,images/br_innemen.png,images/cb_innemen.png,0,,,,,,,,,,,,,,,,,,,,,
,,,,,00029,2023-09-11_23h37.14.660,vbt_B1_day3,2022.2.4,Win32,58.356676,,,,,,down,0,1.0389,,,-0.162962949,-0.255555541,1,0,0,0,159,159,165,1,feestdag,images/br_feestdag.png,images/cb_feestdag.png,0,,,,,,,,,,,,,,,,,,,,,
,,,,,00029,2023-09-11_23h37.14.660,vbt_B1_day3,2022.2.4,Win32,58.356676,,,,,,down,0,0.1729,,,-0.162962949,-0.255555541,1,0,0,0,160,160,191,1,opheffen,images/br_opheffen.png,images/cb_opheffen.png,0,,,,,,,,,,,,,,,,,,,,,
,,,,,00029,2023-09-11_23h37.14.660,vbt_B1_day3,2022.2.4,Win32,58.356676,,,,,,down,0,0.3366,,,-0.162962949,-0.255555541,1,0,0,0,161,161,190,1,goedkoop,images/br_goedkoop.png,images/cb_goedkoop.png,0,,,,,,,,,,,,,,,,,,,,,
,,,,,00029,2023-09-11_23h37.14.660,vbt_B1_day3,2022.2.4,Win32,58.356676,,,,,,down,0,24.6761,toegeven,,-0.162962949,-0.255555541,1,0,0,0,162,162,181,1,toegeven,images/br_toegeven.png,images/cb_toegeven.png,1,,,,,,,,,,,,,,,,,,,,,
,,,,,00029,2023-09-11_23h37.14.660,vbt_B1_day3,2022.2.4,Win32,58.356676,,,,,,down,0,0.3743,,,-0.162962949,-0.255555541,1,0,0,0,163,163,51,1,samen,images/br_samen.png,images/cb_samen.png,0,,,,,,,,,,,,,,,,,,,,,
,,,,,00029,2023-09-11_23h37.14.660,vbt_B1_day3,2022.2.4,Win32,58.356676,,,,,,down,0,0.576,,,-0.162962949,-0.255555541,1,0,0,0,164,164,196,1,nakijken,images/br_nakijken.png,images/cb_nakijken.png,0,,,,,,,,,,,,,,,,,,,,,
,,,,,00029,2023-09-11_23h37.14.660,vbt_B1_day3,2022.2.4,Win32,58.356676,,,,,,down,0,0.0572,,,-0.162962949,-0.255555541,1,0,0,0,165,165,113,1,koppen,images/br_koppen.png,images/cb_koppen.png,0,,,,,,,,,,,,,,,,,,,,,
,,,,,00029,2023-09-11_23h37.14.660,vbt_B1_day3,2022.2.4,Win32,58.356676,,,,,,down,0,0.3853,,,-0.162962949,-0.255555541,1,0,0,0,166,166,188,1,strekken,images/br_strekken.png,images/cb_strekken.png,0,,,,,,,,,,,,,,,,,,,,,
,,,,,00029,2023-09-11_23h37.14.660,vbt_B1_day3,2022.2.4,Win32,58.356676,,,,,,down,0,0.5499,,,-0.162962949,-0.255555541,1,0,0,0,167,167,89,1,slapen,images/br_slapen.png,images/cb_slapen.png,0,,,,,,,,,,,,,,,,,,,,,
,,,,,00029,2023-09-11_23h37.14.660,vbt_B1_day3,2022.2.4,Win32,58.356676,,,,,,down,0,1.1223,,,-0.162962949,-0.255555541,1,0,0,0,168,168,24,1,jurk,images/br_jurk.png,images/cb_jurk.png,0,,,,,,,,,,,,,,,,,,,,,
,,,,,00029,2023-09-11_23h37.14.660,vbt_B1_day3,2022.2.4,Win32,58.356676,,,,,,down,0,0.2356,,,-0.162962949,-0.255555541,1,0,0,0,169,169,84,1,lokken,images/br_lokken.png,images/cb_lokken.png,0,,,,,,,,,,,,,,,,,,,,,
,,,,,00029,2023-09-11_23h37.14.660,vbt_B1_day3,2022.2.4,Win32,58.356676,,,,,,down,0,0.2335,,,-0.162962949,-0.255555541,1,0,0,0,170,170,17,1,taal,images/br_taal.png,images/cb_taal.png,0,,,,,,,,,,,,,,,,,,,,,
,,,,,00029,2023-09-11_23h37.14.660,vbt_B1_day3,2022.2.4,Win32,58.356676,,,,,,down,0,0.2232,,,-0.162962949,-0.255555541,1,0,0,0,171,171,76,1,afval,images/br_afval.png,images/cb_afval.png,0,,,,,,,,,,,,,,,,,,,,,
,,,,,00029,2023-09-11_23h37.14.660,vbt_B1_day3,2022.2.4,Win32,58.356676,,,,,,down,0,0.4849,,,-0.162962949,-0.255555541,1,0,0,0,172,172,56,1,traag,images/br_traag.png,images/cb_traag.png,0,,,,,,,,,,,,,,,,,,,,,
,,,,,00029,2023-09-11_23h37.14.660,vbt_B1_day3,2022.2.4,Win32,58.356676,,,,,,down,0,0.4569,,,-0.162962949,-0.255555541,1,0,0,0,173,173,135,1,gedicht,images/br_gedicht.png,images/cb_gedicht.png,0,,,,,,,,,,,,,,,,,,,,,
,,,,,00029,2023-09-11_23h37.14.660,vbt_B1_day3,2022.2.4,Win32,58.356676,,,,,,down,0,0.9364,,,-0.162962949,-0.255555541,1,0,0,0,174,174,194,1,driemaal,images/br_driemaal.png,images/cb_driemaal.png,0,,,,,,,,,,,,,,,,,,,,,
,,,,,00029,2023-09-11_23h37.14.660,vbt_B1_day3,2022.2.4,Win32,58.356676,,,,,,down,0,1.4663,,,-0.162962949,-0.255555541,1,0,0,0,175,175,177,1,maaltijd,images/br_maaltijd.png,images/cb_maaltijd.png,0,,,,,,,,,,,,,,,,,,,,,
,,,,,00029,2023-09-11_23h37.14.660,vbt_B1_day3,2022.2.4,Win32,58.356676,,,,,,down,0,0.2703,,,-0.162962949,-0.255555541,1,0,0,0,176,176,152,1,afnemen,images/br_afnemen.png,images/cb_afnemen.png,0,,,,,,,,,,,,,,,,,,,,,
,,,,,00029,2023-09-11_23h37.14.660,vbt_B1_day3,2022.2.4,Win32,58.356676,,,,,,down,0,0.5013,,,-0.162962949,-0.255555541,1,0,0,0,177,177,42,1,bleek,images/br_bleek.png,images/cb_bleek.png,0,,,,,,,,,,,,,,,,,,,,,
,,,,,00029,2023-09-11_23h37.14.660,vbt_B1_day3,2022.2.4,Win32,58.356676,,,,,,down,0,0.4202,,,-0.162962949,-0.255555541,1,0,0,0,178,178,40,1,schep,images/br_schep.png,images/cb_schep.png,0,,,,,,,,,,,,,,,,,,,,,
,,,,,00029,2023-09-11_23h37.14.660,vbt_B1_day3,2022.2.4,Win32,58.356676,,,,,,down,0,0.288,,,-0.162962949,-0.255555541,1,0,0,0,179,179,163,1,schuilen,images/br_schuilen.png,images/cb_schuilen.png,0,,,,,,,,,,,,,,,,,,,,,
,,,,,00029,2023-09-11_23h37.14.660,vbt_B1_day3,2022.2.4,Win32,58.356676,,,,,,down,0,1.0707,,,-0.162962949,-0.255555541,1,0,0,0,180,180,164,1,anarchie,images/br_anarchie.png,images/cb_anarchie.png,0,,,,,,,,,,,,,,,,,,,,,
,,,,,00029,2023-09-11_23h37.14.660,vbt_B1_day3,2022.2.4,Win32,58.356676,,,,,,down,0,0.4977,,,-0.162962949,-0.255555541,1,0,0,0,181,181,147,1,komisch,images/br_komisch.png,images/cb_komisch.png,0,,,,,,,,,,,,,,,,,,,,,
,,,,,00029,2023-09-11_23h37.14.660,vbt_B1_day3,2022.2.4,Win32,58.356676,,,,,,down,0,0.5004,,,-0.162962949,-0.255555541,1,0,0,0,182,182,172,1,weigeren,images/br_weigeren.png,images/cb_weigeren.png,0,,,,,,,,,,,,,,,,,,,,,
,,,,,00029,2023-09-11_23h37.14.660,vbt_B1_day3,2022.2.4,Win32,58.356676,,,,,,down,0,0.1382,,,-0.162962949,-0.255555541,1,0,0,0,183,183,52,1,wagon,images/br_wagon.png,images/cb_wagon.png,0,,,,,,,,,,,,,,,,,,,,,
,,,,,00029,2023-09-11_23h37.14.660,vbt_B1_day3,2022.2.4,Win32,58.356676,,,,,,down,0,0.2136,,,-0.162962949,-0.255555541,1,0,0,0,184,184,30,1,uien,images/br_uien.png,images/cb_uien.png,0,,,,,,,,,,,,,,,,,,,,,
,,,,,00029,2023-09-11_23h37.14.660,vbt_B1_day3,2022.2.4,Win32,58.356676,,,,,,down,0,1.4848,,,-0.162962949,-0.255555541,1,0,0,0,185,185,66,1,lever,images/br_lever.png,images/cb_lever.png,0,,,,,,,,,,,,,,,,,,,,,
,,,,,00029,2023-09-11_23h37.14.660,vbt_B1_day3,2022.2.4,Win32,58.356676,,,,,,down,0,173.0506,getuige,,0.134259259,-0.145370413,1,0,0,0,186,186,183,1,getuigen,images/br_getuigen.png,images/cb_getuigen.png,1,,,,,,,,,,,,,,,,,,,,,
,,,,,00029,2023-09-11_23h37.14.660,vbt_B1_day3,2022.2.4,Win32,58.356676,,,,,,down,0,3.5832,,,0.134259259,-0.145370413,1,0,0,0,187,187,57,1,steek,images/br_steek.png,images/cb_steek.png,0,,,,,,,,,,,,,,,,,,,,,
,,,,,00029,2023-09-11_23h37.14.660,vbt_B1_day3,2022.2.4,Win32,58.356676,,,,,,down,0,6.8173,groen,,0.134259259,-0.145370413,1,0,0,0,188,188,61,1,groen,images/br_groen.png,images/cb_groen.png,1,,,,,,,,,,,,,,,,,,,,,
,,,,,00029,2023-09-11_23h37.14.660,vbt_B1_day3,2022.2.4,Win32,58.356676,,,,,,down,0,0.2004,,,0.134259259,-0.145370413,1,0,0,0,189,189,44,1,flits,images/br_flits.png,images/cb_flits.png,0,,,,,,,,,,,,,,,,,,,,,
,,,,,00029,2023-09-11_23h37.14.660,vbt_B1_day3,2022.2.4,Win32,58.356676,,,,,,down,0,0.2898,,,0.134259259,-0.145370413,1,0,0,0,190,190,29,1,baas,images/br_baas.png,images/cb_baas.png,0,,,,,,,,,,,,,,,,,,,,,
,,,,,00029,2023-09-11_23h37.14.660,vbt_B1_day3,2022.2.4,Win32,58.356676,,,,,,down,0,0.2178,,,0.134259259,-0.145370413,1,0,0,0,191,191,171,1,aarzelen,images/br_aarzelen.png,images/cb_aarzelen.png,0,,,,,,,,,,,,,,,,,,,,,
,,,,,00029,2023-09-11_23h37.14.660,vbt_B1_day3,2022.2.4,Win32,58.356676,,,,,,down,0,0.4808,,,0.134259259,-0.145370413,1,0,0,0,192,192,109,1,totaal,images/br_totaal.png,images/cb_totaal.png,0,,,,,,,,,,,,,,,,,,,,,
,,,,,00029,2023-09-11_23h37.14.660,vbt_B1_day3,2022.2.4,Win32,58.356676,,,,,,down,0,0.4503,,,0.134259259,-0.145370413,1,0,0,0,193,193,157,1,uitlaat,images/br_uitlaat.png,images/cb_uitlaat.png,0,,,,,,,,,,,,,,,,,,,,,
,,,,,00029,2023-09-11_23h37.14.660,vbt_B1_day3,2022.2.4,Win32,58.356676,,,,,,down,0,0.5833,,,0.134259259,-0.145370413,1,0,0,0,194,194,48,1,steel,images/br_steel.png,images/cb_steel.png,0,,,,,,,,,,,,,,,,,,,,,
,,,,,00029,2023-09-11_23h37.14.660,vbt_B1_day3,2022.2.4,Win32,58.356676,,,,,,down,0,0.0761,,,0.134259259,-0.145370413,1,0,0,0,195,195,36,1,vuur,images/br_vuur.png,images/cb_vuur.png,0,,,,,,,,,,,,,,,,,,,,,
,,,,,00029,2023-09-11_23h37.14.660,vbt_B1_day3,2022.2.4,Win32,58.356676,,,,,,down,0,0.8971,,,0.134259259,-0.145370413,1,0,0,0,196,196,92,1,geheim,images/br_geheim.png,images/cb_geheim.png,0,,,,,,,,,,,,,,,,,,,,,
,,,,,00029,2023-09-11_23h37.14.660,vbt_B1_day3,2022.2.4,Win32,58.356676,,,,,,down,0,2.8313,,,0.134259259,-0.145370413,1,0,0,0,197,197,159,1,sufferd,images/br_sufferd.png,images/cb_sufferd.png,0,,,,,,,,,,,,,,,,,,,,,
,,,,,00029,2023-09-11_23h37.14.660,vbt_B1_day3,2022.2.4,Win32,58.356676,,,,,,down,0,0.5426,,,0.134259259,-0.145370413,1,0,0,0,198,198,7,1,geld,images/br_geld.png,images/cb_geld.png,0,,,,,,,,,,,,,,,,,,,,,
,,,,,00029,2023-09-11_23h37.14.660,vbt_B1_day3,2022.2.4,Win32,58.356676,,,,,,down,0,0.3463,,,0.134259259,-0.145370413,1,0,0,0,199,199,75,1,snoep,images/br_snoep.png,images/cb_snoep.png,0,,,,,,,,,,,,,,,,,,,,,
,,,,,00029,2023-09-11_23h37.14.660,vbt_B1_day3,2022.2.4,Win32,58.356676,,,,,,,,,,,,,,,,,,,,,,,,,0.134259259,-0.145370413,1,0,0,,,,,,,,,,,,,,,,
,,,,,00029,2023-09-11_23h37.14.660,vbt_B1_day3,2022.2.4,Win32,58.356676,,,,,,,,,,,,,,,,,,,,,,,,,,,,,,0.134259259,-0.145370413,1,0,0,,,,,,,,,,,
,,,,,00029,2023-09-11_23h37.14.660,vbt_B1_day3,2022.2.4,Win32,58.356676,,,,,,,,,merel,,,,,,,,,,,,schodel,images/br_schodel.png,images/cb_schodel.png,,,,,,,,,,,,0.134259259,-0.145370413,1,0,0,merel,0,0,0,33,1
,,,,,00029,2023-09-11_23h37.14.660,vbt_B1_day3,2022.2.4,Win32,58.356676,,,,,,,,,,,,,,,,,,,,,opzicht,images/br_opzicht.png,images/cb_opzicht.png,,,,,,,,,,,,0.134259259,-0.145370413,1,0,0,,0,1,1,15,1
,,,,,00029,2023-09-11_23h37.14.660,vbt_B1_day3,2022.2.4,Win32,58.356676,,,,,,,,,,,,,,,,,,,,,mode,images/br_mode.png,images/cb_mode.png,,,,,,,,,,,,0.134259259,-0.145370413,1,0,0,,0,2,2,3,1
,,,,,00029,2023-09-11_23h37.14.660,vbt_B1_day3,2022.2.4,Win32,58.356676,,,,,,,,,nari,,,,,,,,,,,,zone,images/br_zone.png,images/cb_zone.png,,,,,,,,,,,,0.134259259,-0.145370413,1,0,0,nari,0,3,3,41,1
,,,,,00029,2023-09-11_23h37.14.660,vbt_B1_day3,2022.2.4,Win32,58.356676,,,,,,,,,nareen,,,,,,,,,,,,stoom,images/br_stoom.png,images/cb_stoom.png,,,,,,,,,,,,0.134259259,-0.145370413,1,0,0,nareen,0,4,4,6,1
,,,,,00029,2023-09-11_23h37.14.660,vbt_B1_day3,2022.2.4,Win32,58.356676,,,,,,,,,eend,,,,,,,,,,,,eens,images/br_eens.png,images/cb_eens.png,,,,,,,,,,,,0.134259259,-0.145370413,1,0,0,eend,0,5,5,40,1
,,,,,00029,2023-09-11_23h37.14.660,vbt_B1_day3,2022.2.4,Win32,58.356676,,,,,,,,,,,,,,,,,,,,,opzetten,images/br_opzetten.png,images/cb_opzetten.png,,,,,,,,,,,,0.134259259,-0.145370413,1,0,0,,0,6,6,56,1
,,,,,00029,2023-09-11_23h37.14.660,vbt_B1_day3,2022.2.4,Win32,58.356676,,,,,,,,,uniek,,,,,,,,,,,,uniek,images/br_uniek.png,images/cb_uniek.png,,,,,,,,,,,,0.134259259,-0.145370413,1,0,0,uniek,0,7,7,46,1
,,,,,00029,2023-09-11_23h37.14.660,vbt_B1_day3,2022.2.4,Win32,58.356676,,,,,,,,,kind,,,,,,,,,,,,hint,images/br_hint.png,images/cb_hint.png,,,,,,,,,,,,0.134259259,-0.145370413,1,0,0,kind,0,8,8,43,1
,,,,,00029,2023-09-11_23h37.14.660,vbt_B1_day3,2022.2.4,Win32,58.356676,,,,,,,,,,,,,,,,,,,,,bevret,images/br_bevret.png,images/cb_bevret.png,,,,,,,,,,,,0.134259259,-0.145370413,1,0,0,,0,9,9,30,1
,,,,,00029,2023-09-11_23h37.14.660,vbt_B1_day3,2022.2.4,Win32,58.356676,,,,,,,,,kent,,,,,,,,,,,,kest,images/br_kest.png,images/cb_kest.png,,,,,,,,,,,,0.134259259,-0.145370413,1,0,0,kent,0,10,10,21,1
,,,,,00029,2023-09-11_23h37.14.660,vbt_B1_day3,2022.2.4,Win32,58.356676,,,,,,,,,g..t,,,,,,,,,,,,gout,images/br_gout.png,images/cb_gout.png,,,,,,,,,,,,0.134259259,-0.145370413,1,0,0,g..t,0,11,11,20,1
,,,,,00029,2023-09-11_23h37.14.660,vbt_B1_day3,2022.2.4,Win32,58.356676,,,,,,,,,,,,,,,,,,,,,onrecht,images/br_onrecht.png,images/cb_onrecht.png,,,,,,,,,,,,0.134259259,-0.145370413,1,0,0,,0,12,12,55,1
,,,,,00029,2023-09-11_23h37.14.660,vbt_B1_day3,2022.2.4,Win32,58.356676,,,,,,,,,trekkind,,,,,,,,,,,,prikken,images/br_prikken.png,images/cb_prikken.png,,,,,,,,,,,,0.134259259,-0.145370413,1,0,0,trekkind,0,13,13,12,1
,,,,,00029,2023-09-11_23h37.14.660,vbt_B1_day3,2022.2.4,Win32,58.356676,,,,,,,,,,,,,,,,,,,,,bisschop,images/br_bisschop.png,images/cb_bisschop.png,,,,,,,,,,,,0.134259259,-0.145370413,1,0,0,,0,14,14,16,1
,,,,,00029,2023-09-11_23h37.14.660,vbt_B1_day3,2022.2.4,Win32,58.356676,,,,,,,,,kiezart,,,,,,,,,,,,keihard,images/br_keihard.png,images/cb_keihard.png,,,,,,,,,,,,0.134259259,-0.145370413,1,0,0,kiezart,0,15,15,14,1
,,,,,00029,2023-09-11_23h37.14.660,vbt_B1_day3,2022.2.4,Win32,58.356676,,,,,,,,,,,,,,,,,,,,,schatten,images/br_schatten.png,images/cb_schatten.png,,,,,,,,,,,,0.134259259,-0.145370413,1,0,0,,0,16,16,18,1
,,,,,00029,2023-09-11_23h37.14.660,vbt_B1_day3,2022.2.4,Win32,58.356676,,,,,,,,,kaas,,,,,,,,,,,,kaas,images/br_kaas.png,images/cb_kaas.png,,,,,,,,,,,,0.134259259,-0.145370413,1,0,0,kaas,0,17,17,42,1
,,,,,00029,2023-09-11_23h37.14.660,vbt_B1_day3,2022.2.4,Win32,58.356676,,,,,,,,,stallen,,,,,,,,,,,,stallen,images/br_stallen.png,images/cb_stallen.png,,,,,,,,,,,,0.134259259,-0.145370413,1,0,0,stallen,0,18,18,52,1
,,,,,00029,2023-09-11_23h37.14.660,vbt_B1_day3,2022.2.4,Win32,58.356676,,,,,,,,,leek,,,,,,,,,,,,leek,images/br_leek.png,images/cb_leek.png,,,,,,,,,,,,0.134259259,-0.145370413,1,0,0,leek,0,19,19,2,1
,,,,,00029,2023-09-11_23h37.14.660,vbt_B1_day3,2022.2.4,Win32,58.356676,,,,,,,,,la,,,,,,,,,,,,leugeren,images/br_leugeren.png,images/cb_leugeren.png,,,,,,,,,,,,0.134259259,-0.145370413,1,0,0,la,0,20,20,37,1
,,,,,00029,2023-09-11_23h37.14.660,vbt_B1_day3,2022.2.4,Win32,58.356676,,,,,,,,,.e.l,,,,,,,,,,,,beslag,images/br_beslag.png,images/cb_beslag.png,,,,,,,,,,,,0.134259259,-0.142592607,1,0,0,.e.l,0,21,21,51,1
,,,,,00029,2023-09-11_23h37.14.660,vbt_B1_day3,2022.2.4,Win32,58.356676,,,,,,,,,lee..e,,,,,,,,,,,,leemaken,images/br_leemaken.png,images/cb_leemaken.png,,,,,,,,,,,,0.134259259,-0.142592607,1,0,0,lee..e,0,22,22,39,1
,,,,,00029,2023-09-11_23h37.14.660,vbt_B1_day3,2022.2.4,Win32,58.356676,,,,,,,,,,,,,,,,,,,,,afbopen,images/br_afbopen.png,images/cb_afbopen.png,,,,,,,,,,,,0.134259259,-0.142592607,1,0,0,,0,23,23,34,1
,,,,,00029,2023-09-11_23h37.14.660,vbt_B1_day3,2022.2.4,Win32,58.356676,,,,,,,,,.la,,,,,,,,,,,,slapen,images/br_slapen.png,images/cb_slapen.png,,,,,,,,,,,,0.134259259,-0.142592607,1,0,0,.la,0,24,24,9,1
,,,,,00029,2023-09-11_23h37.14.660,vbt_B1_day3,2022.2.4,Win32,58.356676,,,,,,,,,mer,,,,,,,,,,,,verhaal,images/br_verhaal.png,images/cb_verhaal.png,,,,,,,,,,,,0.134259259,-0.142592607,1,0,0,mer,0,25,25,13,1
,,,,,00029,2023-09-11_23h37.14.660,vbt_B1_day3,2022.2.4,Win32,58.356676,,,,,,,,,karaa,,,,,,,,,,,,kwaas,images/br_kwaas.png,images/cb_kwaas.png,,,,,,,,,,,,0.134259259,-0.142592607,1,0,0,karaa,0,26,26,26,1
,,,,,00029,2023-09-11_23h37.14.660,vbt_B1_day3,2022.2.4,Win32,58.356676,,,,,,,,,,,,,,,,,,,,,laken,images/br_laken.png,images/cb_laken.png,,,,,,,,,,,,0.134259259,-0.142592607,1,0,0,,0,27,27,5,1
,,,,,00029,2023-09-11_23h37.14.660,vbt_B1_day3,2022.2.4,Win32,58.356676,,,,,,,,,,,,,,,,,,,,,vlager,images/br_vlager.png,images/cb_vlager.png,,,,,,,,,,,,0.134259259,-0.142592607,1,0,0,,0,28,28,28,1
,,,,,00029,2023-09-11_23h37.14.660,vbt_B1_day3,2022.2.4,Win32,58.356676,,,,,,,,,bier,,,,,,,,,,,,hier,images/br_hier.png,images/cb_hier.png,,,,,,,,,,,,0.134259259,-0.142592607,1,0,0,bier,0,29,29,1,1
,,,,,00029,2023-09-11_23h37.14.660,vbt_B1_day3,2022.2.4,Win32,58.356676,,,,,,,,,aarnele,,,,,,,,,,,,aarzelen,images/br_aarzelen.png,images/cb_aarzelen.png,,,,,,,,,,,,0.134259259,-0.142592607,1,0,0,aarnele,0,30,30,19,1
,,,,,00029,2023-09-11_23h37.14.660,vbt_B1_day3,2022.2.4,Win32,58.356676,,,,,,,,,smallen,,,,,,,,,,,,invallen,images/br_invallen.png,images/cb_invallen.png,,,,,,,,,,,,0.134259259,-0.142592607,1,0,0,smallen,0,31,31,57,1
,,,,,00029,2023-09-11_23h37.14.660,vbt_B1_day3,2022.2.4,Win32,58.356676,,,,,,,,,,,,,,,,,,,,,makieren,images/br_makieren.png,images/cb_makieren.png,,,,,,,,,,,,0.134259259,-0.142592607,1,0,0,,0,32,32,36,1
,,,,,00029,2023-09-11_23h37.14.660,vbt_B1_day3,2022.2.4,Win32,58.356676,,,,,,,,,,,,,,,,,,,,,knie,images/br_knie.png,images/cb_knie.png,,,,,,,,,,,,0.134259259,-0.142592607,1,0,0,,0,33,33,0,1
,,,,,00029,2023-09-11_23h37.14.660,vbt_B1_day3,2022.2.4,Win32,58.356676,,,,,,,,,gen..,,,,,,,,,,,,gebod,images/br_gebod.png,images/cb_gebod.png,,,,,,,,,,,,0.134259259,-0.142592607,1,0,0,gen..,0,34,34,45,1
,,,,,00029,2023-09-11_23h37.14.660,vbt_B1_day3,2022.2.4,Win32,58.356676,,,,,,,,,,,,,,,,,,,,,paken,images/br_paken.png,images/cb_paken.png,,,,,,,,,,,,0.134259259,-0.142592607,1,0,0,,0,35,35,27,1
,,,,,00029,2023-09-11_23h37.14.660,vbt_B1_day3,2022.2.4,Win32,58.356676,,,,,,,,,,,,,,,,,,,,,theeting,images/br_theeting.png,images/cb_theeting.png,,,,,,,,,,,,0.134259259,-0.142592607,1,0,0,,0,36,36,38,1
,,,,,00029,2023-09-11_23h37.14.660,vbt_B1_day3,2022.2.4,Win32,58.356676,,,,,,,,,,,,,,,,,,,,,hust,images/br_hust.png,images/cb_hust.png,,,,,,,,,,,,0.134259259,-0.142592607,1,0,0,,0,37,37,23,1
,,,,,00029,2023-09-11_23h37.14.660,vbt_B1_day3,2022.2.4,Win32,58.356676,,,,,,,,,...ien,,,,,,,,,,,,booien,images/br_booien.png,images/cb_booien.png,,,,,,,,,,,,0.134259259,-0.142592607,1,0,0,...ien,0,38,38,31,1
,,,,,00029,2023-09-11_23h37.14.660,vbt_B1_day3,2022.2.4,Win32,58.356676,,,,,,,,,,,,,,,,,,,,,steel,images/br_steel.png,images/cb_steel.png,,,,,,,,,,,,0.134259259,-0.142592607,1,0,0,,0,39,39,4,1
,,,,,00029,2023-09-11_23h37.14.660,vbt_B1_day3,2022.2.4,Win32,58.356676,,,,,,,,,traag,,,,,,,,,,,,twaaf,images/br_twaaf.png,images/cb_twaaf.png,,,,,,,,,,,,0.134259259,-0.142592607,1,0,0,traag,0,40,40,24,1
,,,,,00029,2023-09-11_23h37.14.660,vbt_B1_day3,2022.2.4,Win32,58.356676,,,,,,,,,,,,,,,,,,,,,jongelui,images/br_jongelui.png,images/cb_jongelui.png,,,,,,,,,,,,0.134259259,-0.142592607,1,0,0,,0,41,41,59,1
,,,,,00029,2023-09-11_23h37.14.660,vbt_B1_day3,2022.2.4,Win32,58.356676,,,,,,,,,leg...,,,,,,,,,,,,begrip,images/br_begrip.png,images/cb_begrip.png,,,,,,,,,,,,0.134259259,-0.142592607,1,0,0,leg...,0,42,42,48,1
,,,,,00029,2023-09-11_23h37.14.660,vbt_B1_day3,2022.2.4,Win32,58.356676,,,,,,,,,skieen,,,,,,,,,,,,boeien,images/br_boeien.png,images/cb_boeien.png,,,,,,,,,,,,0.134259259,-0.142592607,1,0,0,skieen,0,43,43,8,1
,,,,,00029,2023-09-11_23h37.14.660,vbt_B1_day3,2022.2.4,Win32,58.356676,,,,,,,,,al...,,,,,,,,,,,,alsof,images/br_alsof.png,images/cb_alsof.png,,,,,,,,,,,,0.134259259,-0.142592607,1,0,0,al...,0,44,44,44,1
,,,,,00029,2023-09-11_23h37.14.660,vbt_B1_day3,2022.2.4,Win32,58.356676,,,,,,,,,epiek,,,,,,,,,,,,uviek,images/br_uviek.png,images/cb_uviek.png,,,,,,,,,,,,0.134259259,-0.142592607,1,0,0,epiek,0,45,45,25,1
,,,,,00029,2023-09-11_23h37.14.660,vbt_B1_day3,2022.2.4,Win32,58.356676,,,,,,,,,,,,,,,,,,,,,croo,images/br_croo.png,images/cb_croo.png,,,,,,,,,,,,0.134259259,-0.142592607,1,0,0,,0,46,46,22,1
,,,,,00029,2023-09-11_23h37.14.660,vbt_B1_day3,2022.2.4,Win32,58.356676,,,,,,,,,,,,,,,,,,,,,stikken,images/br_stikken.png,images/cb_stikken.png,,,,,,,,,,,,0.134259259,-0.142592607,1,0,0,,0,47,47,54,1
,,,,,00029,2023-09-11_23h37.14.660,vbt_B1_day3,2022.2.4,Win32,58.356676,,,,,,,,,,,,,,,,,,,,,geluid,images/br_geluid.png,images/cb_geluid.png,,,,,,,,,,,,0.134259259,-0.142592607,1,0,0,,0,48,48,10,1
,,,,,00029,2023-09-11_23h37.14.660,vbt_B1_day3,2022.2.4,Win32,58.356676,,,,,,,,,,,,,,,,,,,,,glijden,images/br_glijden.png,images/cb_glijden.png,,,,,,,,,,,,0.134259259,-0.142592607,1,0,0,,0,49,49,53,1
,,,,,00029,2023-09-11_23h37.14.660,vbt_B1_day3,2022.2.4,Win32,58.356676,,,,,,,,,,,,,,,,,,,,,sluier,images/br_sluier.png,images/cb_sluier.png,,,,,,,,,,,,0.134259259,-0.142592607,1,0,0,,0,50,50,50,1
,,,,,00029,2023-09-11_23h37.14.660,vbt_B1_day3,2022.2.4,Win32,58.356676,,,,,,,,,,,,,,,,,,,,,dwang,images/br_dwang.png,images/cb_dwang.png,,,,,,,,,,,,0.134259259,-0.142592607,1,0,0,,0,51,51,47,1
,,,,,00029,2023-09-11_23h37.14.660,vbt_B1_day3,2022.2.4,Win32,58.356676,,,,,,,,,,,,,,,,,,,,,samen,images/br_samen.png,images/cb_samen.png,,,,,,,,,,,,0.134259259,-0.142592607,1,0,0,,0,52,52,7,1
,,,,,00029,2023-09-11_23h37.14.660,vbt_B1_day3,2022.2.4,Win32,58.356676,,,,,,,,,,,,,,,,,,,,,sultan,images/br_sultan.png,images/cb_sultan.png,,,,,,,,,,,,0.134259259,-0.142592607,1,0,0,,0,53,53,49,1
,,,,,00029,2023-09-11_23h37.14.660,vbt_B1_day3,2022.2.4,Win32,58.356676,,,,,,,,,gen..,,,,,,,,,,,,gezond,images/br_gezond.png,images/cb_gezond.png,,,,,,,,,,,,0.134259259,-0.142592607,1,0,0,gen..,0,54,54,11,1
,,,,,00029,2023-09-11_23h37.14.660,vbt_B1_day3,2022.2.4,Win32,58.356676,,,,,,,,,,,,,,,,,,,,,verwoor,images/br_verwoor.png,images/cb_verwoor.png,,,,,,,,,,,,0.134259259,-0.142592607,1,0,0,,0,55,55,32,1
,,,,,00029,2023-09-11_23h37.14.660,vbt_B1_day3,2022.2.4,Win32,58.356676,,,,,,,,,,,,,,,,,,,,,oprotten,images/br_oprotten.png,images/cb_oprotten.png,,,,,,,,,,,,0.134259259,-0.142592607,1,0,0,,0,56,56,17,1
,,,,,00029,2023-09-11_23h37.14.660,vbt_B1_day3,2022.2.4,Win32,58.356676,,,,,,,,,..geek,,,,,,,,,,,,mugeek,images/br_mugeek.png,images/cb_mugeek.png,,,,,,,,,,,,0.134259259,-0.142592607,1,0,0,..geek,0,57,57,29,1
,,,,,00029,2023-09-11_23h37.14.660,vbt_B1_day3,2022.2.4,Win32,58.356676,,,,,,,,,.ra...,,,,,,,,,,,,brappen,images/br_brappen.png,images/cb_brappen.png,,,,,,,,,,,,0.134259259,-0.142592607,1,0,0,.ra...,0,58,58,35,1
,,,,,00029,2023-09-11_23h37.14.660,vbt_B1_day3,2022.2.4,Win32,58.356676,,,,,,,,,perra...,,,,,,,,,,,,verraden,images/br_verraden.png,images/cb_verraden.png,,,,,,,,,,,,0.134259259,-0.142592607,1,0,0,perra...,0,59,59,58,1
,,,,,00029,2023-09-11_23h37.14.660,vbt_B1_day3,2022.2.4,Win32,58.356676,,,,,,,,,,,,,,,,,,,,,,,,,,,,,,,,,,,,,,,,,,,,,
