welcome_mouse.x,welcome_mouse.y,welcome_mouse.leftButton,welcome_mouse.midButton,welcome_mouse.rightButton,"ID",date,expName,psychopyVersion,OS,frameRate,participant,trainInstr_mouse.x,trainInstr_mouse.y,trainInstr_mouse.leftButton,trainInstr_mouse.midButton,trainInstr_mouse.rightButton,translation_key.keys,translation_key.corr,translation_key.rt,word_rsp.text,trWrd_mouse.x,trWrd_mouse.y,trWrd_mouse.leftButton,trWrd_mouse.midButton,trWrd_mouse.rightButton,train_loop.thisRepN,train_loop.thisTrialN,train_loop.thisN,train_loop.thisIndex,train_loop.ran,nlWrd,brWrd,cbWrd,test,testResp,mouse.x,mouse.y,mouse.leftButton,mouse.midButton,mouse.rightButton,testInstr_mouse.x,testInstr_mouse.y,testInstr_mouse.leftButton,testInstr_mouse.midButton,testInstr_mouse.rightButton,test_mouse.x,test_mouse.y,test_mouse.leftButton,test_mouse.midButton,test_mouse.rightButton,test_response.text,test_loop.thisRepN,test_loop.thisTrialN,test_loop.thisN,test_loop.thisIndex,test_loop.ran
-0.160185143,-0.237037023,1,0,0,55891,2023-09-26_10h19.19.467,vbt_B1_day3,2022.2.4,Win32,59.87306909,55891,,,,,,,,,,,,,,,,,,,,,,,,,,,,,,,,,,,,,,,,,,,,,
,,,,,55891,2023-09-26_10h19.19.467,vbt_B1_day3,2022.2.4,Win32,59.87306909,55891,-0.160185143,-0.237037023,1,0,0,,,,,,,,,,,,,,,,,,,,,,,,,,,,,,,,,,,,,,,,
,,,,,55891,2023-09-26_10h19.19.467,vbt_B1_day3,2022.2.4,Win32,59.87306909,55891,,,,,,down,0,4.5592,,0.609259288,-0.15370369,1,0,0,0,0,0,98,1,kreeft,images/br_kreeft.png,images/cb_kreeft.png,0,,,,,,,,,,,,,,,,,,,,,,
,,,,,55891,2023-09-26_10h19.19.467,vbt_B1_day3,2022.2.4,Win32,59.87306909,55891,,,,,,down,0,6.1329,,0.608333305,-0.162037037,1,0,0,0,1,1,142,1,snuiven,images/br_snuiven.png,images/cb_snuiven.png,1,,,,,,,,,,,,,,,,,,,,,,
,,,,,55891,2023-09-26_10h19.19.467,vbt_B1_day3,2022.2.4,Win32,59.87306909,55891,,,,,,down,0,2.9342,,0.608333305,-0.162037037,1,0,0,0,2,2,154,1,aflopen,images/br_aflopen.png,images/cb_aflopen.png,0,,,,,,,,,,,,,,,,,,,,,,
,,,,,55891,2023-09-26_10h19.19.467,vbt_B1_day3,2022.2.4,Win32,59.87306909,55891,,,,,,down,0,1.3517,,0.608333305,-0.162037037,1,0,0,0,3,3,14,1,rijp,images/br_rijp.png,images/cb_rijp.png,0,,,,,,,,,,,,,,,,,,,,,,
,,,,,55891,2023-09-26_10h19.19.467,vbt_B1_day3,2022.2.4,Win32,59.87306909,55891,,,,,,down,0,2.2008,,0.608333305,-0.162037037,1,0,0,0,4,4,96,1,slagen,images/br_slagen.png,images/cb_slagen.png,0,,,,,,,,,,,,,,,,,,,,,,
,,,,,55891,2023-09-26_10h19.19.467,vbt_B1_day3,2022.2.4,Win32,59.87306909,55891,,,,,,down,0,5.1583,,0.608333305,-0.162037037,1,0,0,0,5,5,131,1,opzicht,images/br_opzicht.png,images/cb_opzicht.png,0,,,,,,,,,,,,,,,,,,,,,,
,,,,,55891,2023-09-26_10h19.19.467,vbt_B1_day3,2022.2.4,Win32,59.87306909,55891,,,,,,down,0,0.9996,,0.608333305,-0.162037037,1,0,0,0,6,6,33,1,vlek,images/br_vlek.png,images/cb_vlek.png,0,,,,,,,,,,,,,,,,,,,,,,
,,,,,55891,2023-09-26_10h19.19.467,vbt_B1_day3,2022.2.4,Win32,59.87306909,55891,,,,,,down,0,7.2498,,0.608333305,-0.162037037,1,0,0,0,7,7,145,1,invloed,images/br_invloed.png,images/cb_invloed.png,0,,,,,,,,,,,,,,,,,,,,,,
,,,,,55891,2023-09-26_10h19.19.467,vbt_B1_day3,2022.2.4,Win32,59.87306909,55891,,,,,,down,0,4.1994,,0.608333305,-0.162037037,1,0,0,0,8,8,62,1,knaap,images/br_knaap.png,images/cb_knaap.png,1,knaap,,,,,,,,,,,,,,,,,,,,,
,,,,,55891,2023-09-26_10h19.19.467,vbt_B1_day3,2022.2.4,Win32,59.87306909,55891,,,,,,down,0,13.0857,,0.608333305,-0.162037037,1,0,0,0,9,9,164,1,anarchie,images/br_anarchie.png,images/cb_anarchie.png,0,,,,,,,,,,,,,,,,,,,,,,
,,,,,55891,2023-09-26_10h19.19.467,vbt_B1_day3,2022.2.4,Win32,59.87306909,55891,,,,,,down,0,3.3167,,0.608333305,-0.162037037,1,0,0,0,10,10,104,1,zweven,images/br_zweven.png,images/cb_zweven.png,0,,,,,,,,,,,,,,,,,,,,,,
,,,,,55891,2023-09-26_10h19.19.467,vbt_B1_day3,2022.2.4,Win32,59.87306909,55891,,,,,,down,0,6.7881,,0.608333305,-0.162037037,1,0,0,0,11,11,143,1,hechten,images/br_hechten.png,images/cb_hechten.png,1,,,,,,,,,,,,,,,,,,,,,,
,,,,,55891,2023-09-26_10h19.19.467,vbt_B1_day3,2022.2.4,Win32,59.87306909,55891,,,,,,down,0,2.6549,,0.608333305,-0.162037037,1,0,0,0,12,12,46,1,jagen,images/br_jagen.png,images/cb_jagen.png,0,,,,,,,,,,,,,,,,,,,,,,
,,,,,55891,2023-09-26_10h19.19.467,vbt_B1_day3,2022.2.4,Win32,59.87306909,55891,,,,,,down,0,1.3148,,0.608333305,-0.162037037,1,0,0,0,13,13,22,1,stof,images/br_stof.png,images/cb_stof.png,1,stof,,,,,,,,,,,,,,,,,,,,,
,,,,,55891,2023-09-26_10h19.19.467,vbt_B1_day3,2022.2.4,Win32,59.87306909,55891,,,,,,down,0,4.53,,0.608333305,-0.162037037,1,0,0,0,14,14,37,1,mijn,images/br_mijn.png,images/cb_mijn.png,0,,,,,,,,,,,,,,,,,,,,,,
,,,,,55891,2023-09-26_10h19.19.467,vbt_B1_day3,2022.2.4,Win32,59.87306909,55891,,,,,,down,0,3.7332,,0.608333305,-0.162037037,1,0,0,0,15,15,51,1,samen,images/br_samen.png,images/cb_samen.png,0,,,,,,,,,,,,,,,,,,,,,,
,,,,,55891,2023-09-26_10h19.19.467,vbt_B1_day3,2022.2.4,Win32,59.87306909,55891,,,,,,down,0,3.0253,,0.608333305,-0.162037037,1,0,0,0,16,16,59,1,kring,images/br_kring.png,images/cb_kring.png,0,,,,,,,,,,,,,,,,,,,,,,
,,,,,55891,2023-09-26_10h19.19.467,vbt_B1_day3,2022.2.4,Win32,59.87306909,55891,,,,,,down,0,9.0254,,0.608333305,-0.162037037,1,0,0,0,17,17,108,1,excuus,images/br_excuus.png,images/cb_excuus.png,0,,,,,,,,,,,,,,,,,,,,,,
,,,,,55891,2023-09-26_10h19.19.467,vbt_B1_day3,2022.2.4,Win32,59.87306909,55891,,,,,,down,0,2.7005,,0.608333305,-0.162037037,1,0,0,0,18,18,50,1,stoom,images/br_stoom.png,images/cb_stoom.png,0,,,,,,,,,,,,,,,,,,,,,,
,,,,,55891,2023-09-26_10h19.19.467,vbt_B1_day3,2022.2.4,Win32,59.87306909,55891,,,,,,down,0,1.7399,,0.608333305,-0.162037037,1,0,0,0,19,19,196,1,nakijken,images/br_nakijken.png,images/cb_nakijken.png,0,,,,,,,,,,,,,,,,,,,,,,
,,,,,55891,2023-09-26_10h19.19.467,vbt_B1_day3,2022.2.4,Win32,59.87306909,55891,,,,,,down,0,1.9936,,0.608333305,-0.162037037,1,0,0,0,20,20,107,1,maling,images/br_maling.png,images/cb_maling.png,0,,,,,,,,,,,,,,,,,,,,,,
,,,,,55891,2023-09-26_10h19.19.467,vbt_B1_day3,2022.2.4,Win32,59.87306909,55891,,,,,,down,0,9.7363,,0.608333305,-0.162037037,1,0,0,0,21,21,182,1,bijkomen,images/br_bijkomen.png,images/cb_bijkomen.png,1,bijkomen,,,,,,,,,,,,,,,,,,,,,
,,,,,55891,2023-09-26_10h19.19.467,vbt_B1_day3,2022.2.4,Win32,59.87306909,55891,,,,,,down,0,4.9832,,0.411111196,-0.353703746,1,0,0,0,22,22,44,1,flits,images/br_flits.png,images/cb_flits.png,0,,,,,,,,,,,,,,,,,,,,,,
,,,,,55891,2023-09-26_10h19.19.467,vbt_B1_day3,2022.2.4,Win32,59.87306909,55891,,,,,,down,0,0.9859,,0.411111196,-0.353703746,1,0,0,0,23,23,162,1,uitdelen,images/br_uitdelen.png,images/cb_uitdelen.png,0,,,,,,,,,,,,,,,,,,,,,,
,,,,,55891,2023-09-26_10h19.19.467,vbt_B1_day3,2022.2.4,Win32,59.87306909,55891,,,,,,down,0,0.4121,,0.411111196,-0.353703746,1,0,0,0,24,24,58,1,tekst,images/br_tekst.png,images/cb_tekst.png,0,,,,,,,,,,,,,,,,,,,,,,
,,,,,55891,2023-09-26_10h19.19.467,vbt_B1_day3,2022.2.4,Win32,59.87306909,55891,,,,,,down,0,1.3015,,0.411111196,-0.353703746,1,0,0,0,25,25,147,1,komisch,images/br_komisch.png,images/cb_komisch.png,0,,,,,,,,,,,,,,,,,,,,,,
,,,,,55891,2023-09-26_10h19.19.467,vbt_B1_day3,2022.2.4,Win32,59.87306909,55891,,,,,,down,0,0.3369,,0.411111196,-0.353703746,1,0,0,0,26,26,0,1,slak,images/br_slak.png,images/cb_slak.png,0,,,,,,,,,,,,,,,,,,,,,,
,,,,,55891,2023-09-26_10h19.19.467,vbt_B1_day3,2022.2.4,Win32,59.87306909,55891,,,,,,down,0,0.8073,,0.411111196,-0.353703746,1,0,0,0,27,27,39,1,laag,images/br_laag.png,images/cb_laag.png,0,,,,,,,,,,,,,,,,,,,,,,
,,,,,55891,2023-09-26_10h19.19.467,vbt_B1_day3,2022.2.4,Win32,59.87306909,55891,,,,,,down,0,0.0968,,0.411111196,-0.353703746,1,0,0,0,28,28,68,1,schat,images/br_schat.png,images/cb_schat.png,0,,,,,,,,,,,,,,,,,,,,,,
,,,,,55891,2023-09-26_10h19.19.467,vbt_B1_day3,2022.2.4,Win32,59.87306909,55891,,,,,,down,0,0.6311,,0.411111196,-0.353703746,1,0,0,0,29,29,163,1,schuilen,images/br_schuilen.png,images/cb_schuilen.png,0,,,,,,,,,,,,,,,,,,,,,,
,,,,,55891,2023-09-26_10h19.19.467,vbt_B1_day3,2022.2.4,Win32,59.87306909,55891,,,,,,down,0,0.5328,,0.411111196,-0.353703746,1,0,0,0,30,30,84,1,lokken,images/br_lokken.png,images/cb_lokken.png,0,,,,,,,,,,,,,,,,,,,,,,
,,,,,55891,2023-09-26_10h19.19.467,vbt_B1_day3,2022.2.4,Win32,59.87306909,55891,,,,,,down,0,2.0704,,0.411111196,-0.353703746,1,0,0,0,31,31,64,1,wegen,images/br_wegen.png,images/cb_wegen.png,0,,,,,,,,,,,,,,,,,,,,,,
,,,,,55891,2023-09-26_10h19.19.467,vbt_B1_day3,2022.2.4,Win32,59.87306909,55891,,,,,,down,0,4.7665,,0.411111196,-0.353703746,1,0,0,0,32,32,117,1,kennis,images/br_kennis.png,images/cb_kennis.png,0,,,,,,,,,,,,,,,,,,,,,,
,,,,,55891,2023-09-26_10h19.19.467,vbt_B1_day3,2022.2.4,Win32,59.87306909,55891,,,,,,down,0,1.8381,,0.411111196,-0.353703746,1,0,0,0,33,33,185,1,mijnheer,images/br_mijnheer.png,images/cb_mijnheer.png,0,,,,,,,,,,,,,,,,,,,,,,
,,,,,55891,2023-09-26_10h19.19.467,vbt_B1_day3,2022.2.4,Win32,59.87306909,55891,,,,,,down,0,0.5245,,0.411111196,-0.353703746,1,0,0,0,34,34,5,1,blad,images/br_blad.png,images/cb_blad.png,0,,,,,,,,,,,,,,,,,,,,,,
,,,,,55891,2023-09-26_10h19.19.467,vbt_B1_day3,2022.2.4,Win32,59.87306909,55891,,,,,,down,0,2.927,,0.411111196,-0.353703746,1,0,0,0,35,35,23,1,zout,images/br_zout.png,images/cb_zout.png,1,zout,,,,,,,,,,,,,,,,,,,,,
,,,,,55891,2023-09-26_10h19.19.467,vbt_B1_day3,2022.2.4,Win32,59.87306909,55891,,,,,,down,0,4.0635,,0.411111196,-0.353703746,1,0,0,0,36,36,87,1,toeval,images/br_toeval.png,images/cb_toeval.png,0,,,,,,,,,,,,,,,,,,,,,,
,,,,,55891,2023-09-26_10h19.19.467,vbt_B1_day3,2022.2.4,Win32,59.87306909,55891,,,,,,down,0,6.7502,,0.411111196,-0.353703746,1,0,0,0,37,37,60,1,jasje,images/br_jasje.png,images/cb_jasje.png,1,,,,,,,,,,,,,,,,,,,,,,
,,,,,55891,2023-09-26_10h19.19.467,vbt_B1_day3,2022.2.4,Win32,59.87306909,55891,,,,,,down,0,1.8567,,0.411111196,-0.353703746,1,0,0,0,38,38,123,1,hiervan,images/br_hiervan.png,images/cb_hiervan.png,0,,,,,,,,,,,,,,,,,,,,,,
,,,,,55891,2023-09-26_10h19.19.467,vbt_B1_day3,2022.2.4,Win32,59.87306909,55891,,,,,,down,0,0.4224,,0.411111196,-0.353703746,1,0,0,0,39,39,153,1,vervoer,images/br_vervoer.png,images/cb_vervoer.png,0,,,,,,,,,,,,,,,,,,,,,,
,,,,,55891,2023-09-26_10h19.19.467,vbt_B1_day3,2022.2.4,Win32,59.87306909,55891,,,,,,down,0,0.0801,,0.411111196,-0.353703746,1,0,0,0,40,40,199,1,beseffen,images/br_beseffen.png,images/cb_beseffen.png,0,,,,,,,,,,,,,,,,,,,,,,
,,,,,55891,2023-09-26_10h19.19.467,vbt_B1_day3,2022.2.4,Win32,59.87306909,55891,,,,,,down,0,1.4002,,0.411111196,-0.353703746,1,0,0,0,41,41,75,1,snoep,images/br_snoep.png,images/cb_snoep.png,0,,,,,,,,,,,,,,,,,,,,,,
,,,,,55891,2023-09-26_10h19.19.467,vbt_B1_day3,2022.2.4,Win32,59.87306909,55891,,,,,,down,0,4.4975,,0.411111196,-0.353703746,1,0,0,0,42,42,192,1,schaamte,images/br_schaamte.png,images/cb_schaamte.png,0,,,,,,,,,,,,,,,,,,,,,,
,,,,,55891,2023-09-26_10h19.19.467,vbt_B1_day3,2022.2.4,Win32,59.87306909,55891,,,,,,down,0,8.5165,,0.411111196,-0.353703746,1,0,0,0,43,43,94,1,oceaan,images/br_oceaan.png,images/cb_oceaan.png,0,,,,,,,,,,,,,,,,,,,,,,
,,,,,55891,2023-09-26_10h19.19.467,vbt_B1_day3,2022.2.4,Win32,59.87306909,55891,,,,,,down,0,1.2008,,0.411111196,-0.353703746,1,0,0,0,44,44,133,1,seizoen,images/br_seizoen.png,images/cb_seizoen.png,0,,,,,,,,,,,,,,,,,,,,,,
,,,,,55891,2023-09-26_10h19.19.467,vbt_B1_day3,2022.2.4,Win32,59.87306909,55891,,,,,,down,0,3.4165,,0.411111196,-0.353703746,1,0,0,0,45,45,105,1,wijlen,images/br_wijlen.png,images/cb_wijlen.png,0,,,,,,,,,,,,,,,,,,,,,,
,,,,,55891,2023-09-26_10h19.19.467,vbt_B1_day3,2022.2.4,Win32,59.87306909,55891,,,,,,down,0,5.4503,,0.411111196,-0.353703746,1,0,0,0,46,46,54,1,gebit,images/br_gebit.png,images/cb_gebit.png,0,,,,,,,,,,,,,,,,,,,,,,
,,,,,55891,2023-09-26_10h19.19.467,vbt_B1_day3,2022.2.4,Win32,59.87306909,55891,,,,,,down,0,1.7512,,0.411111196,-0.353703746,1,0,0,0,47,47,49,1,laken,images/br_laken.png,images/cb_laken.png,0,,,,,,,,,,,,,,,,,,,,,,
,,,,,55891,2023-09-26_10h19.19.467,vbt_B1_day3,2022.2.4,Win32,59.87306909,55891,,,,,,down,0,0.8678,,0.411111196,-0.353703746,1,0,0,0,48,48,114,1,vullen,images/br_vullen.png,images/cb_vullen.png,0,,,,,,,,,,,,,,,,,,,,,,
,,,,,55891,2023-09-26_10h19.19.467,vbt_B1_day3,2022.2.4,Win32,59.87306909,55891,,,,,,down,0,3.4465,,0.411111196,-0.353703746,1,0,0,0,49,49,160,1,daarheen,images/br_daarheen.png,images/cb_daarheen.png,0,,,,,,,,,,,,,,,,,,,,,,
,,,,,55891,2023-09-26_10h19.19.467,vbt_B1_day3,2022.2.4,Win32,59.87306909,55891,,,,,,down,0,2.057,,0.411111196,-0.353703746,1,0,0,0,50,50,124,1,bloeien,images/br_bloeien.png,images/cb_bloeien.png,0,,,,,,,,,,,,,,,,,,,,,,
,,,,,55891,2023-09-26_10h19.19.467,vbt_B1_day3,2022.2.4,Win32,59.87306909,55891,,,,,,down,0,1.1456,,0.411111196,-0.353703746,1,0,0,0,51,51,7,1,geld,images/br_geld.png,images/cb_geld.png,0,,,,,,,,,,,,,,,,,,,,,,
,,,,,55891,2023-09-26_10h19.19.467,vbt_B1_day3,2022.2.4,Win32,59.87306909,55891,,,,,,down,0,0.3274,,0.411111196,-0.353703746,1,0,0,0,52,52,57,1,steek,images/br_steek.png,images/cb_steek.png,0,,,,,,,,,,,,,,,,,,,,,,
,,,,,55891,2023-09-26_10h19.19.467,vbt_B1_day3,2022.2.4,Win32,59.87306909,55891,,,,,,down,0,2.6497,,0.411111196,-0.353703746,1,0,0,0,53,53,91,1,gezond,images/br_gezond.png,images/cb_gezond.png,0,,,,,,,,,,,,,,,,,,,,,,
,,,,,55891,2023-09-26_10h19.19.467,vbt_B1_day3,2022.2.4,Win32,59.87306909,55891,,,,,,down,0,3.6643,,0.411111196,-0.353703746,1,0,0,0,54,54,97,1,loyaal,images/br_loyaal.png,images/cb_loyaal.png,0,,,,,,,,,,,,,,,,,,,,,,
,,,,,55891,2023-09-26_10h19.19.467,vbt_B1_day3,2022.2.4,Win32,59.87306909,55891,,,,,,down,0,3.2478,,0.411111196,-0.353703746,1,0,0,0,55,55,148,1,smullen,images/br_smullen.png,images/cb_smullen.png,0,,,,,,,,,,,,,,,,,,,,,,
,,,,,55891,2023-09-26_10h19.19.467,vbt_B1_day3,2022.2.4,Win32,59.87306909,55891,,,,,,down,0,2.3166,,0.411111196,-0.353703746,1,0,0,0,56,56,119,1,liefje,images/br_liefje.png,images/cb_liefje.png,0,,,,,,,,,,,,,,,,,,,,,,
,,,,,55891,2023-09-26_10h19.19.467,vbt_B1_day3,2022.2.4,Win32,59.87306909,55891,,,,,,down,0,2.1727,,0.411111196,-0.353703746,1,0,0,0,57,57,187,1,opkijken,images/br_opkijken.png,images/cb_opkijken.png,0,,,,,,,,,,,,,,,,,,,,,,
,,,,,55891,2023-09-26_10h19.19.467,vbt_B1_day3,2022.2.4,Win32,59.87306909,55891,,,,,,down,0,3.8177,,0.411111196,-0.353703746,1,0,0,0,58,58,73,1,volop,images/br_volop.png,images/cb_volop.png,0,,,,,,,,,,,,,,,,,,,,,,
,,,,,55891,2023-09-26_10h19.19.467,vbt_B1_day3,2022.2.4,Win32,59.87306909,55891,,,,,,down,0,2.9735,,0.411111196,-0.353703746,1,0,0,0,59,59,61,1,groen,images/br_groen.png,images/cb_groen.png,1,groen,,,,,,,,,,,,,,,,,,,,,
,,,,,55891,2023-09-26_10h19.19.467,vbt_B1_day3,2022.2.4,Win32,59.87306909,55891,,,,,,down,0,3.4502,,0.411111196,-0.353703746,0,0,1,0,60,60,118,1,vinger,images/br_vinger.png,images/cb_vinger.png,0,,,,,,,,,,,,,,,,,,,,,,
,,,,,55891,2023-09-26_10h19.19.467,vbt_B1_day3,2022.2.4,Win32,59.87306909,55891,,,,,,down,0,0.013,,0.328703704,-0.332407422,1,0,0,0,61,61,171,1,aarzelen,images/br_aarzelen.png,images/cb_aarzelen.png,0,,,,,,,,,,,,,,,,,,,,,,
,,,,,55891,2023-09-26_10h19.19.467,vbt_B1_day3,2022.2.4,Win32,59.87306909,55891,,,,,,down,0,13.9987,,0.328703704,-0.332407422,1,0,0,0,62,62,149,1,redding,images/br_redding.png,images/cb_redding.png,0,,,,,,,,,,,,,,,,,,,,,,
,,,,,55891,2023-09-26_10h19.19.467,vbt_B1_day3,2022.2.4,Win32,59.87306909,55891,,,,,,down,0,0.1419,,0.328703704,-0.332407422,1,0,0,0,63,63,184,1,aandelen,images/br_aandelen.png,images/cb_aandelen.png,0,,,,,,,,,,,,,,,,,,,,,,
,,,,,55891,2023-09-26_10h19.19.467,vbt_B1_day3,2022.2.4,Win32,59.87306909,55891,,,,,,down,0,0.2476,,0.328703704,-0.332407422,1,0,0,0,64,64,40,1,schep,images/br_schep.png,images/cb_schep.png,0,,,,,,,,,,,,,,,,,,,,,,
,,,,,55891,2023-09-26_10h19.19.467,vbt_B1_day3,2022.2.4,Win32,59.87306909,55891,,,,,,down,0,1.5946,,0.328703704,-0.332407422,1,0,0,0,65,65,177,1,maaltijd,images/br_maaltijd.png,images/cb_maaltijd.png,0,,,,,,,,,,,,,,,,,,,,,,
,,,,,55891,2023-09-26_10h19.19.467,vbt_B1_day3,2022.2.4,Win32,59.87306909,55891,,,,,,down,0,7.4284,,0.328703704,-0.332407422,1,0,0,0,66,66,38,1,baai,images/br_baai.png,images/cb_baai.png,0,,,,,,,,,,,,,,,,,,,,,,
,,,,,55891,2023-09-26_10h19.19.467,vbt_B1_day3,2022.2.4,Win32,59.87306909,55891,,,,,,down,0,2.967,,0.328703704,-0.332407422,1,0,0,0,67,67,17,1,taal,images/br_taal.png,images/cb_taal.png,0,,,,,,,,,,,,,,,,,,,,,,
,,,,,55891,2023-09-26_10h19.19.467,vbt_B1_day3,2022.2.4,Win32,59.87306909,55891,,,,,,down,0,1.934,,0.328703704,-0.332407422,1,0,0,0,68,68,77,1,woede,images/br_woede.png,images/cb_woede.png,0,,,,,,,,,,,,,,,,,,,,,,
,,,,,55891,2023-09-26_10h19.19.467,vbt_B1_day3,2022.2.4,Win32,59.87306909,55891,,,,,,down,0,3.634,,0.328703704,-0.332407422,1,0,0,0,69,69,31,1,poes,images/br_poes.png,images/cb_poes.png,0,,,,,,,,,,,,,,,,,,,,,,
,,,,,55891,2023-09-26_10h19.19.467,vbt_B1_day3,2022.2.4,Win32,59.87306909,55891,,,,,,down,0,0.4351,,0.328703704,-0.332407422,1,0,0,0,70,70,4,1,moes,images/br_moes.png,images/cb_moes.png,0,,,,,,,,,,,,,,,,,,,,,,
,,,,,55891,2023-09-26_10h19.19.467,vbt_B1_day3,2022.2.4,Win32,59.87306909,55891,,,,,,down,0,0.3624,,0.328703704,-0.332407422,1,0,0,0,71,71,157,1,uitlaat,images/br_uitlaat.png,images/cb_uitlaat.png,0,,,,,,,,,,,,,,,,,,,,,,
,,,,,55891,2023-09-26_10h19.19.467,vbt_B1_day3,2022.2.4,Win32,59.87306909,55891,,,,,,down,0,0.5032,,0.328703704,-0.332407422,1,0,0,0,72,72,194,1,driemaal,images/br_driemaal.png,images/cb_driemaal.png,0,,,,,,,,,,,,,,,,,,,,,,
,,,,,55891,2023-09-26_10h19.19.467,vbt_B1_day3,2022.2.4,Win32,59.87306909,55891,,,,,,down,0,3.0308,,0.328703704,-0.332407422,1,0,0,0,73,73,42,1,bleek,images/br_bleek.png,images/cb_bleek.png,0,,,,,,,,,,,,,,,,,,,,,,
,,,,,55891,2023-09-26_10h19.19.467,vbt_B1_day3,2022.2.4,Win32,59.87306909,55891,,,,,,down,0,0.7839,,0.328703704,-0.332407422,1,0,0,0,74,74,170,1,schatten,images/br_schatten.png,images/cb_schatten.png,0,,,,,,,,,,,,,,,,,,,,,,
,,,,,55891,2023-09-26_10h19.19.467,vbt_B1_day3,2022.2.4,Win32,59.87306909,55891,,,,,,down,0,16.5284,,0.328703704,-0.332407422,1,0,0,0,75,75,144,1,eetlust,images/br_eetlust.png,images/cb_eetlust.png,0,,,,,,,,,,,,,,,,,,,,,,
,,,,,55891,2023-09-26_10h19.19.467,vbt_B1_day3,2022.2.4,Win32,59.87306909,55891,,,,,,down,0,6.8935,,0.328703704,-0.332407422,1,0,0,0,76,76,3,1,mand,images/br_mand.png,images/cb_mand.png,0,,,,,,,,,,,,,,,,,,,,,,
,,,,,55891,2023-09-26_10h19.19.467,vbt_B1_day3,2022.2.4,Win32,59.87306909,55891,,,,,,down,0,1.3129,,0.328703704,-0.332407422,1,0,0,0,77,77,152,1,afnemen,images/br_afnemen.png,images/cb_afnemen.png,0,,,,,,,,,,,,,,,,,,,,,,
,,,,,55891,2023-09-26_10h19.19.467,vbt_B1_day3,2022.2.4,Win32,59.87306909,55891,,,,,,down,0,3.4309,,0.328703704,-0.332407422,1,0,0,0,78,78,129,1,verhaal,images/br_verhaal.png,images/cb_verhaal.png,0,,,,,,,,,,,,,,,,,,,,,,
,,,,,55891,2023-09-26_10h19.19.467,vbt_B1_day3,2022.2.4,Win32,59.87306909,55891,,,,,,down,0,2.7524,,0.328703704,-0.332407422,1,0,0,0,79,79,79,1,nodig,images/br_nodig.png,images/cb_nodig.png,0,,,,,,,,,,,,,,,,,,,,,,
,,,,,55891,2023-09-26_10h19.19.467,vbt_B1_day3,2022.2.4,Win32,59.87306909,55891,,,,,,down,0,9.6697,,0.435185185,-0.310185185,1,0,0,0,80,80,132,1,grappen,images/br_grappen.png,images/cb_grappen.png,0,,,,,,,,,,,,,,,,,,,,,,
,,,,,55891,2023-09-26_10h19.19.467,vbt_B1_day3,2022.2.4,Win32,59.87306909,55891,,,,,,down,0,16.0005,,0.435185185,-0.310185185,1,0,0,0,81,81,63,1,flirt,images/br_flirt.png,images/cb_flirt.png,1,flirt,,,,,,,,,,,,,,,,,,,,,
,,,,,55891,2023-09-26_10h19.19.467,vbt_B1_day3,2022.2.4,Win32,59.87306909,55891,,,,,,down,0,3.6752,,0.435185185,-0.310185185,1,0,0,0,82,82,178,1,huisdier,images/br_huisdier.png,images/cb_huisdier.png,0,,,,,,,,,,,,,,,,,,,,,,
,,,,,55891,2023-09-26_10h19.19.467,vbt_B1_day3,2022.2.4,Win32,59.87306909,55891,,,,,,down,0,0.9493,,0.435185185,-0.310185185,1,0,0,0,83,83,128,1,prikken,images/br_prikken.png,images/cb_prikken.png,0,,,,,,,,,,,,,,,,,,,,,,
,,,,,55891,2023-09-26_10h19.19.467,vbt_B1_day3,2022.2.4,Win32,59.87306909,55891,,,,,,down,0,1.6918,,0.435185185,-0.310185185,1,0,0,0,84,84,90,1,geluid,images/br_geluid.png,images/cb_geluid.png,0,,,,,,,,,,,,,,,,,,,,,,
,,,,,55891,2023-09-26_10h19.19.467,vbt_B1_day3,2022.2.4,Win32,59.87306909,55891,,,,,,down,0,0.8803,,0.435185185,-0.310185185,1,0,0,0,85,85,32,1,palm,images/br_palm.png,images/cb_palm.png,0,,,,,,,,,,,,,,,,,,,,,,
,,,,,55891,2023-09-26_10h19.19.467,vbt_B1_day3,2022.2.4,Win32,59.87306909,55891,,,,,,down,0,5.7084,,0.435185185,-0.310185185,1,0,0,0,86,86,11,1,mode,images/br_mode.png,images/cb_mode.png,0,,,,,,,,,,,,,,,,,,,,,,
,,,,,55891,2023-09-26_10h19.19.467,vbt_B1_day3,2022.2.4,Win32,59.87306909,55891,,,,,,down,0,2.3123,,0.435185185,-0.310185185,1,0,0,0,87,87,72,1,strak,images/br_strak.png,images/cb_strak.png,0,,,,,,,,,,,,,,,,,,,,,,
,,,,,55891,2023-09-26_10h19.19.467,vbt_B1_day3,2022.2.4,Win32,59.87306909,55891,,,,,,down,0,0.7661,,0.435185185,-0.310185185,1,0,0,0,88,88,189,1,aanraden,images/br_aanraden.png,images/cb_aanraden.png,0,,,,,,,,,,,,,,,,,,,,,,
,,,,,55891,2023-09-26_10h19.19.467,vbt_B1_day3,2022.2.4,Win32,59.87306909,55891,,,,,,down,0,9.433,,0.435185185,-0.310185185,1,0,0,0,89,89,82,1,muziek,images/br_muziek.png,images/cb_muziek.png,0,,,,,,,,,,,,,,,,,,,,,,
,,,,,55891,2023-09-26_10h19.19.467,vbt_B1_day3,2022.2.4,Win32,59.87306909,55891,,,,,,down,0,4.5866,,0.435185185,-0.310185185,1,0,0,0,90,90,86,1,woning,images/br_woning.png,images/cb_woning.png,0,,,,,,,,,,,,,,,,,,,,,,
,,,,,55891,2023-09-26_10h19.19.467,vbt_B1_day3,2022.2.4,Win32,59.87306909,55891,,,,,,down,0,0.0294,,0.435185185,-0.310185185,1,0,0,0,91,91,174,1,stemming,images/br_stemming.png,images/cb_stemming.png,0,,,,,,,,,,,,,,,,,,,,,,
,,,,,55891,2023-09-26_10h19.19.467,vbt_B1_day3,2022.2.4,Win32,59.87306909,55891,,,,,,down,0,0.8166,,0.435185185,-0.310185185,1,0,0,0,92,92,193,1,weeshuis,images/br_weeshuis.png,images/cb_weeshuis.png,0,,,,,,,,,,,,,,,,,,,,,,
,,,,,55891,2023-09-26_10h19.19.467,vbt_B1_day3,2022.2.4,Win32,59.87306909,55891,,,,,,down,0,0.2593,,0.435185185,-0.310185185,1,0,0,0,93,93,8,1,knie,images/br_knie.png,images/cb_knie.png,0,,,,,,,,,,,,,,,,,,,,,,
,,,,,55891,2023-09-26_10h19.19.467,vbt_B1_day3,2022.2.4,Win32,59.87306909,55891,,,,,,down,0,0.8274,,0.435185185,-0.310185185,1,0,0,0,94,94,80,1,kanjer,images/br_kanjer.png,images/cb_kanjer.png,0,,,,,,,,,,,,,,,,,,,,,,
,,,,,55891,2023-09-26_10h19.19.467,vbt_B1_day3,2022.2.4,Win32,59.87306909,55891,,,,,,down,0,0.2098,,0.435185185,-0.310185185,1,0,0,0,95,95,69,1,waken,images/br_waken.png,images/cb_waken.png,0,,,,,,,,,,,,,,,,,,,,,,
,,,,,55891,2023-09-26_10h19.19.467,vbt_B1_day3,2022.2.4,Win32,59.87306909,55891,,,,,,down,0,2.3813,,0.435185185,-0.310185185,1,0,0,0,96,96,166,1,strikken,images/br_strikken.png,images/cb_strikken.png,0,,,,,,,,,,,,,,,,,,,,,,
,,,,,55891,2023-09-26_10h19.19.467,vbt_B1_day3,2022.2.4,Win32,59.87306909,55891,,,,,,down,0,1.5383,,0.435185185,-0.310185185,1,0,0,0,97,97,172,1,weigeren,images/br_weigeren.png,images/cb_weigeren.png,0,,,,,,,,,,,,,,,,,,,,,,
,,,,,55891,2023-09-26_10h19.19.467,vbt_B1_day3,2022.2.4,Win32,59.87306909,55891,,,,,,down,0,0.2693,,0.435185185,-0.310185185,1,0,0,0,98,98,47,1,kabel,images/br_kabel.png,images/cb_kabel.png,0,,,,,,,,,,,,,,,,,,,,,,
,,,,,55891,2023-09-26_10h19.19.467,vbt_B1_day3,2022.2.4,Win32,59.87306909,55891,,,,,,down,0,1.3097,,0.435185185,-0.310185185,1,0,0,0,99,99,191,1,opheffen,images/br_opheffen.png,images/cb_opheffen.png,0,,,,,,,,,,,,,,,,,,,,,,
,,,,,55891,2023-09-26_10h19.19.467,vbt_B1_day3,2022.2.4,Win32,59.87306909,55891,,,,,,down,0,0.565,,0.435185185,-0.310185185,1,0,0,0,100,100,35,1,lust,images/br_lust.png,images/cb_lust.png,0,,,,,,,,,,,,,,,,,,,,,,
,,,,,55891,2023-09-26_10h19.19.467,vbt_B1_day3,2022.2.4,Win32,59.87306909,55891,,,,,,down,0,2.1519,,0.435185185,-0.30740745,1,0,0,0,101,101,16,1,ziek,images/br_ziek.png,images/cb_ziek.png,0,,,,,,,,,,,,,,,,,,,,,,
,,,,,55891,2023-09-26_10h19.19.467,vbt_B1_day3,2022.2.4,Win32,59.87306909,55891,,,,,,down,0,0.5434,,0.435185185,-0.30740745,1,0,0,0,102,102,2,1,jaar,images/br_jaar.png,images/cb_jaar.png,0,,,,,,,,,,,,,,,,,,,,,,
,,,,,55891,2023-09-26_10h19.19.467,vbt_B1_day3,2022.2.4,Win32,59.87306909,55891,,,,,,down,0,4.8675,,0.435185185,-0.30740745,1,0,0,0,103,103,100,1,geduld,images/br_geduld.png,images/cb_geduld.png,1,geduld,,,,,,,,,,,,,,,,,,,,,
,,,,,55891,2023-09-26_10h19.19.467,vbt_B1_day3,2022.2.4,Win32,59.87306909,55891,,,,,,down,0,0.7352,,0.435185185,-0.30740745,1,0,0,0,104,104,74,1,graaf,images/br_graaf.png,images/cb_graaf.png,0,,,,,,,,,,,,,,,,,,,,,,
,,,,,55891,2023-09-26_10h19.19.467,vbt_B1_day3,2022.2.4,Win32,59.87306909,55891,,,,,,down,0,0.4282,,0.435185185,-0.30740745,1,0,0,0,105,105,25,1,plek,images/br_plek.png,images/cb_plek.png,0,,,,,,,,,,,,,,,,,,,,,,
,,,,,55891,2023-09-26_10h19.19.467,vbt_B1_day3,2022.2.4,Win32,59.87306909,55891,,,,,,down,0,1.9954,,0.435185185,-0.30740745,1,0,0,0,106,106,155,1,gerucht,images/br_gerucht.png,images/cb_gerucht.png,0,,,,,,,,,,,,,,,,,,,,,,
,,,,,55891,2023-09-26_10h19.19.467,vbt_B1_day3,2022.2.4,Win32,59.87306909,55891,,,,,,down,0,0.3635,,0.435185185,-0.30740745,1,0,0,0,107,107,70,1,ijdel,images/br_ijdel.png,images/cb_ijdel.png,0,,,,,,,,,,,,,,,,,,,,,,
,,,,,55891,2023-09-26_10h19.19.467,vbt_B1_day3,2022.2.4,Win32,59.87306909,55891,,,,,,down,0,1.1097,,0.435185185,-0.30740745,1,0,0,0,108,108,138,1,akkoord,images/br_akkoord.png,images/cb_akkoord.png,0,,,,,,,,,,,,,,,,,,,,,,
,,,,,55891,2023-09-26_10h19.19.467,vbt_B1_day3,2022.2.4,Win32,59.87306909,55891,,,,,,down,0,0.4552,,0.436111168,-0.303703732,1,0,0,0,109,109,36,1,vuur,images/br_vuur.png,images/cb_vuur.png,0,,,,,,,,,,,,,,,,,,,,,,
,,,,,55891,2023-09-26_10h19.19.467,vbt_B1_day3,2022.2.4,Win32,59.87306909,55891,,,,,,down,0,2.0241,,0.436111168,-0.303703732,1,0,0,0,110,110,173,1,apparaat,images/br_apparaat.png,images/cb_apparaat.png,0,,,,,,,,,,,,,,,,,,,,,,
,,,,,55891,2023-09-26_10h19.19.467,vbt_B1_day3,2022.2.4,Win32,59.87306909,55891,,,,,,down,0,4.0096,,0.436111168,-0.303703732,1,0,0,0,111,111,165,1,feestdag,images/br_feestdag.png,images/cb_feestdag.png,0,,,,,,,,,,,,,,,,,,,,,,
,,,,,55891,2023-09-26_10h19.19.467,vbt_B1_day3,2022.2.4,Win32,59.87306909,55891,,,,,,down,0,9.0879,,0.443518603,-0.312037079,1,0,0,0,112,112,99,1,koffie,images/br_koffie.png,images/cb_koffie.png,0,,,,,,,,,,,,,,,,,,,,,,
,,,,,55891,2023-09-26_10h19.19.467,vbt_B1_day3,2022.2.4,Win32,59.87306909,55891,,,,,,down,0,2.2558,,0.443518603,-0.312037079,1,0,0,0,113,113,20,1,site,images/br_site.png,images/cb_site.png,1,site,,,,,,,,,,,,,,,,,,,,,
,,,,,55891,2023-09-26_10h19.19.467,vbt_B1_day3,2022.2.4,Win32,59.87306909,55891,,,,,,down,0,6.0117,,0.443518603,-0.312037079,1,0,0,0,114,114,181,1,toegeven,images/br_toegeven.png,images/cb_toegeven.png,1,toegeven,,,,,,,,,,,,,,,,,,,,,
,,,,,55891,2023-09-26_10h19.19.467,vbt_B1_day3,2022.2.4,Win32,59.87306909,55891,,,,,,down,0,0.5923,,0.446296268,-0.314814815,1,0,0,0,115,115,10,1,leek,images/br_leek.png,images/cb_leek.png,0,,,,,,,,,,,,,,,,,,,,,,
,,,,,55891,2023-09-26_10h19.19.467,vbt_B1_day3,2022.2.4,Win32,59.87306909,55891,,,,,,down,0,0.3064,,0.446296268,-0.314814815,1,0,0,0,116,116,19,1,geit,images/br_geit.png,images/cb_geit.png,0,,,,,,,,,,,,,,,,,,,,,,
,,,,,55891,2023-09-26_10h19.19.467,vbt_B1_day3,2022.2.4,Win32,59.87306909,55891,,,,,,down,0,10.9913,,0.446296268,-0.314814815,1,0,0,0,117,117,43,1,klauw,images/br_klauw.png,images/cb_klauw.png,0,,,,,,,,,,,,,,,,,,,,,,
,,,,,55891,2023-09-26_10h19.19.467,vbt_B1_day3,2022.2.4,Win32,59.87306909,55891,,,,,,down,0,8.6356,,0.446296268,-0.314814815,1,0,0,0,118,118,134,1,geliefd,images/br_geliefd.png,images/cb_geliefd.png,0,,,,,,,,,,,,,,,,,,,,,,
,,,,,55891,2023-09-26_10h19.19.467,vbt_B1_day3,2022.2.4,Win32,59.87306909,55891,,,,,,down,0,15.5255,,0.446296268,-0.314814815,1,0,0,0,119,119,161,1,attentie,images/br_attentie.png,images/cb_attentie.png,0,,,,,,,,,,,,,,,,,,,,,,
,,,,,55891,2023-09-26_10h19.19.467,vbt_B1_day3,2022.2.4,Win32,59.87306909,55891,,,,,,down,0,17.0277,,0.446296268,-0.314814815,1,0,0,0,120,120,101,1,staren,images/br_staren.png,images/cb_staren.png,1,staren,,,,,,,,,,,,,,,,,,,,,
,,,,,55891,2023-09-26_10h19.19.467,vbt_B1_day3,2022.2.4,Win32,59.87306909,55891,,,,,,down,0,6.0216,,0.338888945,-0.309259273,1,0,0,0,121,121,180,1,openbaar,images/br_openbaar.png,images/cb_openbaar.png,1,openbaar,,,,,,,,,,,,,,,,,,,,,
,,,,,55891,2023-09-26_10h19.19.467,vbt_B1_day3,2022.2.4,Win32,59.87306909,55891,,,,,,down,0,8.5931,,0.338888945,-0.309259273,1,0,0,0,122,122,130,1,keihard,images/br_keihard.png,images/cb_keihard.png,0,,,,,,,,,,,,,,,,,,,,,,
,,,,,55891,2023-09-26_10h19.19.467,vbt_B1_day3,2022.2.4,Win32,59.87306909,55891,,,,,,down,0,8.9005,,-0.05277775,-0.301851838,1,0,0,0,123,123,103,1,joggen,images/br_joggen.png,images/cb_joggen.png,1,joggen,,,,,,,,,,,,,,,,,,,,,
,,,,,55891,2023-09-26_10h19.19.467,vbt_B1_day3,2022.2.4,Win32,59.87306909,55891,,,,,,down,0,0.1991,,-0.05277775,-0.301851838,1,0,0,0,124,124,151,1,aanzoek,images/br_aanzoek.png,images/cb_aanzoek.png,0,,,,,,,,,,,,,,,,,,,,,,
,,,,,55891,2023-09-26_10h19.19.467,vbt_B1_day3,2022.2.4,Win32,59.87306909,55891,,,,,,down,0,0.241,,-0.05277775,-0.301851838,1,0,0,0,125,125,95,1,vreten,images/br_vreten.png,images/cb_vreten.png,0,,,,,,,,,,,,,,,,,,,,,,
,,,,,55891,2023-09-26_10h19.19.467,vbt_B1_day3,2022.2.4,Win32,59.87306909,55891,,,,,,down,0,0.877,,-0.05277775,-0.301851838,1,0,0,0,126,126,120,1,klimmen,images/br_klimmen.png,images/cb_klimmen.png,0,,,,,,,,,,,,,,,,,,,,,,
,,,,,55891,2023-09-26_10h19.19.467,vbt_B1_day3,2022.2.4,Win32,59.87306909,55891,,,,,,down,0,1.9999,,-0.056481467,-0.300925926,1,0,0,0,127,127,53,1,baron,images/br_baron.png,images/cb_baron.png,0,,,,,,,,,,,,,,,,,,,,,,
,,,,,55891,2023-09-26_10h19.19.467,vbt_B1_day3,2022.2.4,Win32,59.87306909,55891,,,,,,down,0,0.1032,,-0.056481467,-0.300925926,1,0,0,0,128,128,34,1,vorm,images/br_vorm.png,images/cb_vorm.png,0,,,,,,,,,,,,,,,,,,,,,,
,,,,,55891,2023-09-26_10h19.19.467,vbt_B1_day3,2022.2.4,Win32,59.87306909,55891,,,,,,down,0,4.0094,,-0.056481467,-0.300925926,1,0,0,0,129,129,110,1,zuster,images/br_zuster.png,images/cb_zuster.png,0,,,,,,,,,,,,,,,,,,,,,,
,,,,,55891,2023-09-26_10h19.19.467,vbt_B1_day3,2022.2.4,Win32,59.87306909,55891,,,,,,down,0,2.2331,,-0.056481467,-0.300925926,1,0,0,0,130,130,121,1,twijfel,images/br_twijfel.png,images/cb_twijfel.png,0,,,,,,,,,,,,,,,,,,,,,,
,,,,,55891,2023-09-26_10h19.19.467,vbt_B1_day3,2022.2.4,Win32,59.87306909,55891,,,,,,down,0,2.4489,,-0.056481467,-0.300925926,1,0,0,0,131,131,156,1,rechten,images/br_rechten.png,images/cb_rechten.png,0,,,,,,,,,,,,,,,,,,,,,,
,,,,,55891,2023-09-26_10h19.19.467,vbt_B1_day3,2022.2.4,Win32,59.87306909,55891,,,,,,down,0,6.8663,,-0.056481467,-0.300925926,1,0,0,0,132,132,183,1,getuigen,images/br_getuigen.png,images/cb_getuigen.png,1,getuigen,,,,,,,,,,,,,,,,,,,,,
,,,,,55891,2023-09-26_10h19.19.467,vbt_B1_day3,2022.2.4,Win32,59.87306909,55891,,,,,,down,0,1.1007,,-0.056481467,-0.300925926,1,0,0,0,133,133,106,1,zingen,images/br_zingen.png,images/cb_zingen.png,0,,,,,,,,,,,,,,,,,,,,,,
,,,,,55891,2023-09-26_10h19.19.467,vbt_B1_day3,2022.2.4,Win32,59.87306909,55891,,,,,,down,0,0.5064,,-0.056481467,-0.300925926,1,0,0,0,134,134,175,1,heengaan,images/br_heengaan.png,images/cb_heengaan.png,0,,,,,,,,,,,,,,,,,,,,,,
,,,,,55891,2023-09-26_10h19.19.467,vbt_B1_day3,2022.2.4,Win32,59.87306909,55891,,,,,,down,0,1.9365,,-0.056481467,-0.300925926,1,0,0,0,135,135,198,1,bedoelen,images/br_bedoelen.png,images/cb_bedoelen.png,0,,,,,,,,,,,,,,,,,,,,,,
,,,,,55891,2023-09-26_10h19.19.467,vbt_B1_day3,2022.2.4,Win32,59.87306909,55891,,,,,,down,0,5.3407,,-0.056481467,-0.300925926,1,0,0,0,136,136,141,1,knielen,images/br_knielen.png,images/cb_knielen.png,1,knielen,,,,,,,,,,,,,,,,,,,,,
,,,,,55891,2023-09-26_10h19.19.467,vbt_B1_day3,2022.2.4,Win32,59.87306909,55891,,,,,,down,0,0.1356,,-0.056481467,-0.300925926,1,0,0,0,137,137,13,1,kaal,images/br_kaal.png,images/cb_kaal.png,0,,,,,,,,,,,,,,,,,,,,,,
,,,,,55891,2023-09-26_10h19.19.467,vbt_B1_day3,2022.2.4,Win32,59.87306909,55891,,,,,,down,0,2.784,,0.050925926,-0.365740741,1,0,0,0,138,138,21,1,mist,images/br_mist.png,images/cb_mist.png,1,mist,,,,,,,,,,,,,,,,,,,,,
,,,,,55891,2023-09-26_10h19.19.467,vbt_B1_day3,2022.2.4,Win32,59.87306909,55891,,,,,,down,0,0.4858,,0.050925926,-0.365740741,1,0,0,0,139,139,113,1,koppen,images/br_koppen.png,images/cb_koppen.png,0,,,,,,,,,,,,,,,,,,,,,,
,,,,,55891,2023-09-26_10h19.19.467,vbt_B1_day3,2022.2.4,Win32,59.87306909,55891,,,,,,down,0,9.6908,,0.050925926,-0.365740741,1,0,0,0,140,140,167,1,eenhoorn,images/br_eenhoorn.png,images/cb_eenhoorn.png,0,,,,,,,,,,,,,,,,,,,,,,
,,,,,55891,2023-09-26_10h19.19.467,vbt_B1_day3,2022.2.4,Win32,59.87306909,55891,,,,,,down,0,0.6256,,0.050925926,-0.368518547,1,0,0,0,141,141,111,1,ticket,images/br_ticket.png,images/cb_ticket.png,0,,,,,,,,,,,,,,,,,,,,,,
,,,,,55891,2023-09-26_10h19.19.467,vbt_B1_day3,2022.2.4,Win32,59.87306909,55891,,,,,,down,0,2.4572,,0.050925926,-0.368518547,1,0,0,0,142,142,139,1,stiekem,images/br_stiekem.png,images/cb_stiekem.png,0,,,,,,,,,,,,,,,,,,,,,,
,,,,,55891,2023-09-26_10h19.19.467,vbt_B1_day3,2022.2.4,Win32,59.87306909,55891,,,,,,down,0,0.5966,,0.050925926,-0.368518547,1,0,0,0,143,143,81,1,dubbel,images/br_dubbel.png,images/cb_dubbel.png,0,,,,,,,,,,,,,,,,,,,,,,
,,,,,55891,2023-09-26_10h19.19.467,vbt_B1_day3,2022.2.4,Win32,59.87306909,55891,,,,,,down,0,2.1873,,0.050925926,-0.368518547,1,0,0,0,144,144,76,1,afval,images/br_afval.png,images/cb_afval.png,0,,,,,,,,,,,,,,,,,,,,,,
,,,,,55891,2023-09-26_10h19.19.467,vbt_B1_day3,2022.2.4,Win32,59.87306909,55891,,,,,,down,0,0.4725,,0.050925926,-0.368518547,1,0,0,0,145,145,1,1,zaal,images/br_zaal.png,images/cb_zaal.png,0,,,,,,,,,,,,,,,,,,,,,,
,,,,,55891,2023-09-26_10h19.19.467,vbt_B1_day3,2022.2.4,Win32,59.87306909,55891,,,,,,down,0,4.8223,,0.050925926,-0.368518547,1,0,0,0,146,146,102,1,legaal,images/br_legaal.png,images/cb_legaal.png,1,legaal,,,,,,,,,,,,,,,,,,,,,
,,,,,55891,2023-09-26_10h19.19.467,vbt_B1_day3,2022.2.4,Win32,59.87306909,55891,,,,,,down,0,4.8136,,0.050925926,-0.368518547,1,0,0,0,147,147,137,1,trekker,images/br_trekker.png,images/cb_trekker.png,0,,,,,,,,,,,,,,,,,,,,,,
,,,,,55891,2023-09-26_10h19.19.467,vbt_B1_day3,2022.2.4,Win32,59.87306909,55891,,,,,,down,0,0.3622,,0.050925926,-0.368518547,1,0,0,0,148,148,92,1,geheim,images/br_geheim.png,images/cb_geheim.png,0,,,,,,,,,,,,,,,,,,,,,,
,,,,,55891,2023-09-26_10h19.19.467,vbt_B1_day3,2022.2.4,Win32,59.87306909,55891,,,,,,down,0,11.8497,,0.050925926,-0.368518547,1,0,0,0,149,149,176,1,techniek,images/br_techniek.png,images/cb_techniek.png,0,,,,,,,,,,,,,,,,,,,,,,
,,,,,55891,2023-09-26_10h19.19.467,vbt_B1_day3,2022.2.4,Win32,59.87306909,55891,,,,,,down,0,11.6708,,0.050925926,-0.368518547,1,0,0,0,150,150,88,1,boeien,images/br_boeien.png,images/cb_boeien.png,0,,,,,,,,,,,,,,,,,,,,,,
,,,,,55891,2023-09-26_10h19.19.467,vbt_B1_day3,2022.2.4,Win32,59.87306909,55891,,,,,,down,0,8.7332,,0.050925926,-0.368518547,1,0,0,0,151,151,140,1,blijven,images/br_blijven.png,images/cb_blijven.png,1,blijven,,,,,,,,,,,,,,,,,,,,,
,,,,,55891,2023-09-26_10h19.19.467,vbt_B1_day3,2022.2.4,Win32,59.87306909,55891,,,,,,down,0,0.2097,,0.050925926,-0.368518547,1,0,0,0,152,152,112,1,lukken,images/br_lukken.png,images/cb_lukken.png,0,,,,,,,,,,,,,,,,,,,,,,
,,,,,55891,2023-09-26_10h19.19.467,vbt_B1_day3,2022.2.4,Win32,59.87306909,55891,,,,,,down,0,3.5157,,0.050925926,-0.368518547,1,0,0,0,153,153,26,1,leuk,images/br_leuk.png,images/cb_leuk.png,0,,,,,,,,,,,,,,,,,,,,,,
,,,,,55891,2023-09-26_10h19.19.467,vbt_B1_day3,2022.2.4,Win32,59.87306909,55891,,,,,,down,0,2.9903,,0.050925926,-0.368518547,1,0,0,0,154,154,71,1,bever,images/br_bever.png,images/cb_bever.png,0,,,,,,,,,,,,,,,,,,,,,,
,,,,,55891,2023-09-26_10h19.19.467,vbt_B1_day3,2022.2.4,Win32,59.87306909,55891,,,,,,down,0,2.7201,,0.050925926,-0.368518547,1,0,0,0,155,155,122,1,waarvan,images/br_waarvan.png,images/cb_waarvan.png,0,,,,,,,,,,,,,,,,,,,,,,
,,,,,55891,2023-09-26_10h19.19.467,vbt_B1_day3,2022.2.4,Win32,59.87306909,55891,,,,,,down,0,4.7844,,0.050925926,-0.368518547,1,0,0,0,156,156,93,1,waarop,images/br_waarop.png,images/cb_waarop.png,0,,,,,,,,,,,,,,,,,,,,,,
,,,,,55891,2023-09-26_10h19.19.467,vbt_B1_day3,2022.2.4,Win32,59.87306909,55891,,,,,,down,0,3.9729,,0.050925926,-0.368518547,1,0,0,0,157,157,158,1,innemen,images/br_innemen.png,images/cb_innemen.png,0,,,,,,,,,,,,,,,,,,,,,,
,,,,,55891,2023-09-26_10h19.19.467,vbt_B1_day3,2022.2.4,Win32,59.87306909,55891,,,,,,down,0,2.1272,,0.050925926,-0.368518547,1,0,0,0,158,158,56,1,traag,images/br_traag.png,images/cb_traag.png,0,,,,,,,,,,,,,,,,,,,,,,
,,,,,55891,2023-09-26_10h19.19.467,vbt_B1_day3,2022.2.4,Win32,59.87306909,55891,,,,,,down,0,5.2533,,0.050925926,-0.368518547,1,0,0,0,159,159,109,1,totaal,images/br_totaal.png,images/cb_totaal.png,0,,,,,,,,,,,,,,,,,,,,,,
,,,,,55891,2023-09-26_10h19.19.467,vbt_B1_day3,2022.2.4,Win32,59.87306909,55891,,,,,,down,0,6.4826,,0.050925926,-0.368518547,1,0,0,0,160,160,127,1,doodmoe,images/br_doodmoe.png,images/cb_doodmoe.png,0,,,,,,,,,,,,,,,,,,,,,,
,,,,,55891,2023-09-26_10h19.19.467,vbt_B1_day3,2022.2.4,Win32,59.87306909,55891,,,,,,down,0,12.9896,,0.050925926,-0.368518547,1,0,0,0,161,161,67,1,zwart,images/br_zwart.png,images/cb_zwart.png,0,,,,,,,,,,,,,,,,,,,,,,
,,,,,55891,2023-09-26_10h19.19.467,vbt_B1_day3,2022.2.4,Win32,59.87306909,55891,,,,,,down,0,10.4499,,0.050925926,-0.368518547,1,0,0,0,162,162,27,1,dans,images/br_dans.png,images/cb_dans.png,0,,,,,,,,,,,,,,,,,,,,,,
,,,,,55891,2023-09-26_10h19.19.467,vbt_B1_day3,2022.2.4,Win32,59.87306909,55891,,,,,,down,0,6.4558,,0.050925926,-0.368518547,1,0,0,0,163,163,159,1,sufferd,images/br_sufferd.png,images/cb_sufferd.png,0,,,,,,,,,,,,,,,,,,,,,,
,,,,,55891,2023-09-26_10h19.19.467,vbt_B1_day3,2022.2.4,Win32,59.87306909,55891,,,,,,down,0,3.3696,,0.050925926,-0.368518547,1,0,0,0,164,164,125,1,aanzien,images/br_aanzien.png,images/cb_aanzien.png,0,,,,,,,,,,,,,,,,,,,,,,
,,,,,55891,2023-09-26_10h19.19.467,vbt_B1_day3,2022.2.4,Win32,59.87306909,55891,,,,,,down,0,5.6166,,0.050925926,-0.368518547,1,0,0,0,165,165,52,1,wagon,images/br_wagon.png,images/cb_wagon.png,0,,,,,,,,,,,,,,,,,,,,,,
,,,,,55891,2023-09-26_10h19.19.467,vbt_B1_day3,2022.2.4,Win32,59.87306909,55891,,,,,,down,0,8.1119,,0.050925926,-0.368518547,1,0,0,0,166,166,29,1,baas,images/br_baas.png,images/cb_baas.png,0,,,,,,,,,,,,,,,,,,,,,,
,,,,,55891,2023-09-26_10h19.19.467,vbt_B1_day3,2022.2.4,Win32,59.87306909,55891,,,,,,down,0,2.684,,0.050925926,-0.368518547,1,0,0,0,167,167,55,1,praat,images/br_praat.png,images/cb_praat.png,0,,,,,,,,,,,,,,,,,,,,,,
,,,,,55891,2023-09-26_10h19.19.467,vbt_B1_day3,2022.2.4,Win32,59.87306909,55891,,,,,,down,0,0.4386,,0.050925926,-0.368518547,1,0,0,0,168,168,18,1,blik,images/br_blik.png,images/cb_blik.png,0,,,,,,,,,,,,,,,,,,,,,,
,,,,,55891,2023-09-26_10h19.19.467,vbt_B1_day3,2022.2.4,Win32,59.87306909,55891,,,,,,down,0,0.1501,,0.050925926,-0.366666653,1,0,0,0,169,169,115,1,kleren,images/br_kleren.png,images/cb_kleren.png,0,,,,,,,,,,,,,,,,,,,,,,
,,,,,55891,2023-09-26_10h19.19.467,vbt_B1_day3,2022.2.4,Win32,59.87306909,55891,,,,,,down,0,5.8584,,0.050925926,-0.366666653,1,0,0,0,170,170,41,1,maken,images/br_maken.png,images/cb_maken.png,0,,,,,,,,,,,,,,,,,,,,,,
,,,,,55891,2023-09-26_10h19.19.467,vbt_B1_day3,2022.2.4,Win32,59.87306909,55891,,,,,,down,0,7.0145,,0.050925926,-0.366666653,1,0,0,0,171,171,135,1,gedicht,images/br_gedicht.png,images/cb_gedicht.png,0,,,,,,,,,,,,,,,,,,,,,,
,,,,,55891,2023-09-26_10h19.19.467,vbt_B1_day3,2022.2.4,Win32,59.87306909,55891,,,,,,down,0,4.8212,,0.050925926,-0.366666653,1,0,0,0,172,172,169,1,oprotten,images/br_oprotten.png,images/cb_oprotten.png,0,,,,,,,,,,,,,,,,,,,,,,
,,,,,55891,2023-09-26_10h19.19.467,vbt_B1_day3,2022.2.4,Win32,59.87306909,55891,,,,,,down,0,0.2499,,0.089814857,-0.319444444,1,0,0,0,173,173,45,1,piste,images/br_piste.png,images/cb_piste.png,0,,,,,,,,,,,,,,,,,,,,,,
,,,,,55891,2023-09-26_10h19.19.467,vbt_B1_day3,2022.2.4,Win32,59.87306909,55891,,,,,,down,0,13.4515,,0.089814857,-0.319444444,1,0,0,0,174,174,24,1,jurk,images/br_jurk.png,images/cb_jurk.png,0,,,,,,,,,,,,,,,,,,,,,,
,,,,,55891,2023-09-26_10h19.19.467,vbt_B1_day3,2022.2.4,Win32,59.87306909,55891,,,,,,down,0,0.2821,,0.089814857,-0.319444444,1,0,0,0,175,175,89,1,slapen,images/br_slapen.png,images/cb_slapen.png,0,,,,,,,,,,,,,,,,,,,,,,
,,,,,55891,2023-09-26_10h19.19.467,vbt_B1_day3,2022.2.4,Win32,59.87306909,55891,,,,,,down,0,3.8501,,0.089814857,-0.319444444,1,0,0,0,176,176,179,1,woestijn,images/br_woestijn.png,images/cb_woestijn.png,0,,,,,,,,,,,,,,,,,,,,,,
,,,,,55891,2023-09-26_10h19.19.467,vbt_B1_day3,2022.2.4,Win32,59.87306909,55891,,,,,,down,0,2.2915,,0.089814857,-0.319444444,1,0,0,0,177,177,28,1,stal,images/br_stal.png,images/cb_stal.png,0,,,,,,,,,,,,,,,,,,,,,,
,,,,,55891,2023-09-26_10h19.19.467,vbt_B1_day3,2022.2.4,Win32,59.87306909,55891,,,,,,down,0,0.9562,,0.089814857,-0.319444444,1,0,0,0,178,178,15,1,soda,images/br_soda.png,images/cb_soda.png,0,,,,,,,,,,,,,,,,,,,,,,
,,,,,55891,2023-09-26_10h19.19.467,vbt_B1_day3,2022.2.4,Win32,59.87306909,55891,,,,,,down,0,9.1789,,0.089814857,-0.319444444,1,0,0,0,179,179,168,1,bisschop,images/br_bisschop.png,images/cb_bisschop.png,0,,,,,,,,,,,,,,,,,,,,,,
,,,,,55891,2023-09-26_10h19.19.467,vbt_B1_day3,2022.2.4,Win32,59.87306909,55891,,,,,,down,0,8.7164,,0.089814857,-0.319444444,1,0,0,0,180,180,30,1,uien,images/br_uien.png,images/cb_uien.png,0,,,,,,,,,,,,,,,,,,,,,,
,,,,,55891,2023-09-26_10h19.19.467,vbt_B1_day3,2022.2.4,Win32,59.87306909,55891,,,,,,down,0,1.2174,,0.089814857,-0.319444444,1,0,0,0,181,181,48,1,steel,images/br_steel.png,images/cb_steel.png,0,,,,,,,,,,,,,,,,,,,,,,
,,,,,55891,2023-09-26_10h19.19.467,vbt_B1_day3,2022.2.4,Win32,59.87306909,55891,,,,,,down,0,7.9994,,0.089814857,-0.319444444,1,0,0,0,182,182,186,1,voorraad,images/br_voorraad.png,images/cb_voorraad.png,0,,,,,,,,,,,,,,,,,,,,,,
,,,,,55891,2023-09-26_10h19.19.467,vbt_B1_day3,2022.2.4,Win32,59.87306909,55891,,,,,,down,0,1.2899,,0.089814857,-0.319444444,1,0,0,0,183,183,9,1,hier,images/br_hier.png,images/cb_hier.png,0,,,,,,,,,,,,,,,,,,,,,,
,,,,,55891,2023-09-26_10h19.19.467,vbt_B1_day3,2022.2.4,Win32,59.87306909,55891,,,,,,down,0,1.3498,,0.089814857,-0.319444444,1,0,0,0,184,184,65,1,parel,images/br_parel.png,images/cb_parel.png,0,,,,,,,,,,,,,,,,,,,,,,
,,,,,55891,2023-09-26_10h19.19.467,vbt_B1_day3,2022.2.4,Win32,59.87306909,55891,,,,,,down,0,0.3183,,0.089814857,-0.319444444,1,0,0,0,185,185,6,1,diep,images/br_diep.png,images/cb_diep.png,0,,,,,,,,,,,,,,,,,,,,,,
,,,,,55891,2023-09-26_10h19.19.467,vbt_B1_day3,2022.2.4,Win32,59.87306909,55891,,,,,,down,0,3.8125,,0.089814857,-0.319444444,1,0,0,0,186,186,190,1,goedkoop,images/br_goedkoop.png,images/cb_goedkoop.png,0,,,,,,,,,,,,,,,,,,,,,,
,,,,,55891,2023-09-26_10h19.19.467,vbt_B1_day3,2022.2.4,Win32,59.87306909,55891,,,,,,down,0,3.8664,,0.089814857,-0.319444444,1,0,0,0,187,187,146,1,opkomen,images/br_opkomen.png,images/cb_opkomen.png,0,,,,,,,,,,,,,,,,,,,,,,
,,,,,55891,2023-09-26_10h19.19.467,vbt_B1_day3,2022.2.4,Win32,59.87306909,55891,,,,,,down,0,1.6215,,0.089814857,-0.319444444,1,0,0,0,188,188,78,1,leren,images/br_leren.png,images/cb_leren.png,0,,,,,,,,,,,,,,,,,,,,,,
,,,,,55891,2023-09-26_10h19.19.467,vbt_B1_day3,2022.2.4,Win32,59.87306909,55891,,,,,,down,0,1.1895,,0.089814857,-0.319444444,1,0,0,0,189,189,66,1,lever,images/br_lever.png,images/cb_lever.png,0,,,,,,,,,,,,,,,,,,,,,,
,,,,,55891,2023-09-26_10h19.19.467,vbt_B1_day3,2022.2.4,Win32,59.87306909,55891,,,,,,down,0,5.4443,,0.089814857,-0.319444444,1,0,0,0,190,190,195,1,middelen,images/br_middelen.png,images/cb_middelen.png,0,,,,,,,,,,,,,,,,,,,,,,
,,,,,55891,2023-09-26_10h19.19.467,vbt_B1_day3,2022.2.4,Win32,59.87306909,55891,,,,,,down,0,9.7693,,0.089814857,-0.319444444,1,0,0,0,191,191,126,1,kasteel,images/br_kasteel.png,images/cb_kasteel.png,0,,,,,,,,,,,,,,,,,,,,,,
,,,,,55891,2023-09-26_10h19.19.467,vbt_B1_day3,2022.2.4,Win32,59.87306909,55891,,,,,,down,0,4.3757,,0.089814857,-0.319444444,1,0,0,0,192,192,83,1,mening,images/br_mening.png,images/cb_mening.png,0,,,,,,,,,,,,,,,,,,,,,,
,,,,,55891,2023-09-26_10h19.19.467,vbt_B1_day3,2022.2.4,Win32,59.87306909,55891,,,,,,down,0,2.4248,,0.089814857,-0.319444444,1,0,0,0,193,193,85,1,heilig,images/br_heilig.png,images/cb_heilig.png,0,,,,,,,,,,,,,,,,,,,,,,
,,,,,55891,2023-09-26_10h19.19.467,vbt_B1_day3,2022.2.4,Win32,59.87306909,55891,,,,,,down,0,14.8721,,0.089814857,-0.319444444,1,0,0,0,194,194,12,1,kust,images/br_kust.png,images/cb_kust.png,0,,,,,,,,,,,,,,,,,,,,,,
,,,,,55891,2023-09-26_10h19.19.467,vbt_B1_day3,2022.2.4,Win32,59.87306909,55891,,,,,,down,0,3.738,,0.089814857,-0.319444444,1,0,0,0,195,195,197,1,spanning,images/br_spanning.png,images/cb_spanning.png,0,,,,,,,,,,,,,,,,,,,,,,
,,,,,55891,2023-09-26_10h19.19.467,vbt_B1_day3,2022.2.4,Win32,59.87306909,55891,,,,,,down,0,1.3427,,0.089814857,-0.319444444,1,0,0,0,196,196,116,1,besmet,images/br_besmet.png,images/cb_besmet.png,0,,,,,,,,,,,,,,,,,,,,,,
,,,,,55891,2023-09-26_10h19.19.467,vbt_B1_day3,2022.2.4,Win32,59.87306909,55891,,,,,,down,0,1.4369,,0.089814857,-0.319444444,1,0,0,0,197,197,136,1,waarbij,images/br_waarbij.png,images/cb_waarbij.png,0,,,,,,,,,,,,,,,,,,,,,,
,,,,,55891,2023-09-26_10h19.19.467,vbt_B1_day3,2022.2.4,Win32,59.87306909,55891,,,,,,down,0,5.1193,,0.089814857,-0.319444444,1,0,0,0,198,198,188,1,strekken,images/br_strekken.png,images/cb_strekken.png,0,,,,,,,,,,,,,,,,,,,,,,
,,,,,55891,2023-09-26_10h19.19.467,vbt_B1_day3,2022.2.4,Win32,59.87306909,55891,,,,,,down,0,1.3834,,0.089814857,-0.319444444,1,0,0,0,199,199,150,1,gegeven,images/br_gegeven.png,images/cb_gegeven.png,0,,,,,,,,,,,,,,,,,,,,,,
,,,,,55891,2023-09-26_10h19.19.467,vbt_B1_day3,2022.2.4,Win32,59.87306909,55891,,,,,,,,,,,,,,,,,,,,,,,,,0.089814857,-0.319444444,1,0,0,,,,,,,,,,,,,,,,
,,,,,55891,2023-09-26_10h19.19.467,vbt_B1_day3,2022.2.4,Win32,59.87306909,55891,,,,,,,,,,,,,,,,,,,,,,,,,,,,,,0.089814857,-0.319444444,1,0,0,,,,,,,,,,,
,,,,,55891,2023-09-26_10h19.19.467,vbt_B1_day3,2022.2.4,Win32,59.87306909,55891,,,,,,,,,,,,,,,,,,,,prikken,images/br_prikken.png,images/cb_prikken.png,,prikken,,,,,,,,,,,0.089814857,-0.319444444,1,0,0,prikken,0,0,0,12,1
,,,,,55891,2023-09-26_10h19.19.467,vbt_B1_day3,2022.2.4,Win32,59.87306909,55891,,,,,,,,,,,,,,,,,,,,schodel,images/br_schodel.png,images/cb_schodel.png,,sc.ol,,,,,,,,,,,0.089814857,-0.319444444,1,0,0,sc.ol,0,1,1,33,1
,,,,,55891,2023-09-26_10h19.19.467,vbt_B1_day3,2022.2.4,Win32,59.87306909,55891,,,,,,,,,,,,,,,,,,,,leemaken,images/br_leemaken.png,images/cb_leemaken.png,,veel.r.ken,,,,,,,,,,,0.089814857,-0.319444444,1,0,0,veel.r.ken,0,2,2,39,1
,,,,,55891,2023-09-26_10h19.19.467,vbt_B1_day3,2022.2.4,Win32,59.87306909,55891,,,,,,,,,,,,,,,,,,,,verwoor,images/br_verwoor.png,images/cb_verwoor.png,,verwoor,,,,,,,,,,,0.089814857,-0.319444444,1,0,0,verwoor,0,3,3,32,1
,,,,,55891,2023-09-26_10h19.19.467,vbt_B1_day3,2022.2.4,Win32,59.87306909,55891,,,,,,,,,,,,,,,,,,,,gout,images/br_gout.png,images/cb_gout.png,,gout,,,,,,,,,,,0.089814857,-0.319444444,1,0,0,gout,0,4,4,20,1
,,,,,55891,2023-09-26_10h19.19.467,vbt_B1_day3,2022.2.4,Win32,59.87306909,55891,,,,,,,,,,,,,,,,,,,,paken,images/br_paken.png,images/cb_paken.png,,paken,,,,,,,,,,,0.089814857,-0.319444444,1,0,0,paken,0,5,5,27,1
,,,,,55891,2023-09-26_10h19.19.467,vbt_B1_day3,2022.2.4,Win32,59.87306909,55891,,,,,,,,,,,,,,,,,,,,leugeren,images/br_leugeren.png,images/cb_leugeren.png,,leugeren,,,,,,,,,,,0.089814857,-0.319444444,1,0,0,leugeren,0,6,6,37,1
,,,,,55891,2023-09-26_10h19.19.467,vbt_B1_day3,2022.2.4,Win32,59.87306909,55891,,,,,,,,,,,,,,,,,,,,stallen,images/br_stallen.png,images/cb_stallen.png,,stallen,,,,,,,,,,,0.089814857,-0.319444444,1,0,0,stallen,0,7,7,52,1
,,,,,55891,2023-09-26_10h19.19.467,vbt_B1_day3,2022.2.4,Win32,59.87306909,55891,,,,,,,,,,,,,,,,,,,,glijden,images/br_glijden.png,images/cb_glijden.png,,gli..en,,,,,,,,,,,0.089814857,-0.319444444,1,0,0,gli..en,0,8,8,53,1
,,,,,55891,2023-09-26_10h19.19.467,vbt_B1_day3,2022.2.4,Win32,59.87306909,55891,,,,,,,,,,,,,,,,,,,,afbopen,images/br_afbopen.png,images/cb_afbopen.png,,a.bop,,,,,,,,,,,0.089814857,-0.319444444,1,0,0,a.bop,0,9,9,34,1
,,,,,55891,2023-09-26_10h19.19.467,vbt_B1_day3,2022.2.4,Win32,59.87306909,55891,,,,,,,,,,,,,,,,,,,,alsof,images/br_alsof.png,images/cb_alsof.png,,alsof,,,,,,,,,,,0.089814857,-0.319444444,1,0,0,alsof,0,10,10,44,1
,,,,,55891,2023-09-26_10h19.19.467,vbt_B1_day3,2022.2.4,Win32,59.87306909,55891,,,,,,,,,,,,,,,,,,,,steel,images/br_steel.png,images/cb_steel.png,,steel,,,,,,,,,,,0.089814857,-0.319444444,1,0,0,steel,0,11,11,4,1
,,,,,55891,2023-09-26_10h19.19.467,vbt_B1_day3,2022.2.4,Win32,59.87306909,55891,,,,,,,,,,,,,,,,,,,,leek,images/br_leek.png,images/cb_leek.png,,leek,,,,,,,,,,,0.089814857,-0.319444444,1,0,0,leek,0,12,12,2,1
,,,,,55891,2023-09-26_10h19.19.467,vbt_B1_day3,2022.2.4,Win32,59.87306909,55891,,,,,,,,,,,,,,,,,,,,croo,images/br_croo.png,images/cb_croo.png,,croo,,,,,,,,,,,0.089814857,-0.319444444,1,0,0,croo,0,13,13,22,1
,,,,,55891,2023-09-26_10h19.19.467,vbt_B1_day3,2022.2.4,Win32,59.87306909,55891,,,,,,,,,,,,,,,,,,,,vlager,images/br_vlager.png,images/cb_vlager.png,,vlager,,,,,,,,,,,0.089814857,-0.319444444,1,0,0,vlager,0,14,14,28,1
,,,,,55891,2023-09-26_10h19.19.467,vbt_B1_day3,2022.2.4,Win32,59.87306909,55891,,,,,,,,,,,,,,,,,,,,makieren,images/br_makieren.png,images/cb_makieren.png,,makie.,,,,,,,,,,,0.089814857,-0.319444444,1,0,0,makie.,0,15,15,36,1
,,,,,55891,2023-09-26_10h19.19.467,vbt_B1_day3,2022.2.4,Win32,59.87306909,55891,,,,,,,,,,,,,,,,,,,,bevret,images/br_bevret.png,images/cb_bevret.png,,bevret,,,,,,,,,,,0.089814857,-0.319444444,1,0,0,bevret,0,16,16,30,1
,,,,,55891,2023-09-26_10h19.19.467,vbt_B1_day3,2022.2.4,Win32,59.87306909,55891,,,,,,,,,,,,,,,,,,,,brappen,images/br_brappen.png,images/cb_brappen.png,,brappen,,,,,,,,,,,0.089814857,-0.319444444,1,0,0,brappen,0,17,17,35,1
,,,,,55891,2023-09-26_10h19.19.467,vbt_B1_day3,2022.2.4,Win32,59.87306909,55891,,,,,,,,,,,,,,,,,,,,booien,images/br_booien.png,images/cb_booien.png,,booien,,,,,,,,,,,0.092592593,-0.32222225,1,0,0,booien,0,18,18,31,1
,,,,,55891,2023-09-26_10h19.19.467,vbt_B1_day3,2022.2.4,Win32,59.87306909,55891,,,,,,,,,,,,,,,,,,,,begrip,images/br_begrip.png,images/cb_begrip.png,,begrip,,,,,,,,,,,0.092592593,-0.32222225,1,0,0,begrip,0,19,19,48,1
,,,,,55891,2023-09-26_10h19.19.467,vbt_B1_day3,2022.2.4,Win32,59.87306909,55891,,,,,,,,,,,,,,,,,,,,dwang,images/br_dwang.png,images/cb_dwang.png,,dwang,,,,,,,,,,,0.092592593,-0.32222225,1,0,0,dwang,0,20,20,47,1
,,,,,55891,2023-09-26_10h19.19.467,vbt_B1_day3,2022.2.4,Win32,59.87306909,55891,,,,,,,,,,,,,,,,,,,,samen,images/br_samen.png,images/cb_samen.png,,samen,,,,,,,,,,,0.092592593,-0.32222225,1,0,0,samen,0,21,21,7,1
,,,,,55891,2023-09-26_10h19.19.467,vbt_B1_day3,2022.2.4,Win32,59.87306909,55891,,,,,,,,,,,,,,,,,,,,kaas,images/br_kaas.png,images/cb_kaas.png,,kaas,,,,,,,,,,,0.092592593,-0.32222225,1,0,0,kaas,0,22,22,42,1
,,,,,55891,2023-09-26_10h19.19.467,vbt_B1_day3,2022.2.4,Win32,59.87306909,55891,,,,,,,,,,,,,,,,,,,,kwaas,images/br_kwaas.png,images/cb_kwaas.png,,kwaas,,,,,,,,,,,0.092592593,-0.32222225,1,0,0,kwaas,0,23,23,26,1
,,,,,55891,2023-09-26_10h19.19.467,vbt_B1_day3,2022.2.4,Win32,59.87306909,55891,,,,,,,,,,,,,,,,,,,,theeting,images/br_theeting.png,images/cb_theeting.png,,tee.teng,,,,,,,,,,,0.092592593,-0.32222225,1,0,0,tee.teng,0,24,24,38,1
,,,,,55891,2023-09-26_10h19.19.467,vbt_B1_day3,2022.2.4,Win32,59.87306909,55891,,,,,,,,,,,,,,,,,,,,verraden,images/br_verraden.png,images/cb_verraden.png,,verra.,,,,,,,,,,,0.092592593,-0.32222225,1,0,0,verra.,0,25,25,58,1
,,,,,55891,2023-09-26_10h19.19.467,vbt_B1_day3,2022.2.4,Win32,59.87306909,55891,,,,,,,,,,,,,,,,,,,,hint,images/br_hint.png,images/cb_hint.png,,.int,,,,,,,,,,,0.092592593,-0.32222225,1,0,0,.int,0,26,26,43,1
,,,,,55891,2023-09-26_10h19.19.467,vbt_B1_day3,2022.2.4,Win32,59.87306909,55891,,,,,,,,,,,,,,,,,,,,jongelui,images/br_jongelui.png,images/cb_jongelui.png,,.onge,,,,,,,,,,,0.092592593,-0.32222225,1,0,0,.onge,0,27,27,59,1
,,,,,55891,2023-09-26_10h19.19.467,vbt_B1_day3,2022.2.4,Win32,59.87306909,55891,,,,,,,,,,,,,,,,,,,,bisschop,images/br_bisschop.png,images/cb_bisschop.png,,bisschop,,,,,,,,,,,0.092592593,-0.32222225,1,0,0,bisschop,0,28,28,16,1
,,,,,55891,2023-09-26_10h19.19.467,vbt_B1_day3,2022.2.4,Win32,59.87306909,55891,,,,,,,,,,,,,,,,,,,,sluier,images/br_sluier.png,images/cb_sluier.png,,sluier,,,,,,,,,,,0.092592593,-0.32222225,1,0,0,sluier,0,29,29,50,1
,,,,,55891,2023-09-26_10h19.19.467,vbt_B1_day3,2022.2.4,Win32,59.87306909,55891,,,,,,,,,,,,,,,,,,,,kest,images/br_kest.png,images/cb_kest.png,,kist,,,,,,,,,,,0.092592593,-0.32222225,1,0,0,kist,0,30,30,21,1
,,,,,55891,2023-09-26_10h19.19.467,vbt_B1_day3,2022.2.4,Win32,59.87306909,55891,,,,,,,,,,,,,,,,,,,,slapen,images/br_slapen.png,images/cb_slapen.png,,slapen,,,,,,,,,,,0.092592593,-0.32222225,1,0,0,slapen,0,31,31,9,1
,,,,,55891,2023-09-26_10h19.19.467,vbt_B1_day3,2022.2.4,Win32,59.87306909,55891,,,,,,,,,,,,,,,,,,,,sultan,images/br_sultan.png,images/cb_sultan.png,,sultan,,,,,,,,,,,0.092592593,-0.32222225,1,0,0,sultan,0,32,32,49,1
,,,,,55891,2023-09-26_10h19.19.467,vbt_B1_day3,2022.2.4,Win32,59.87306909,55891,,,,,,,,,,,,,,,,,,,,zone,images/br_zone.png,images/cb_zone.png,,zone,,,,,,,,,,,0.092592593,-0.32222225,1,0,0,zone,0,33,33,41,1
,,,,,55891,2023-09-26_10h19.19.467,vbt_B1_day3,2022.2.4,Win32,59.87306909,55891,,,,,,,,,,,,,,,,,,,,twaaf,images/br_twaaf.png,images/cb_twaaf.png,,twaa.,,,,,,,,,,,0.092592593,-0.32222225,1,0,0,twaa.,0,34,34,24,1
,,,,,55891,2023-09-26_10h19.19.467,vbt_B1_day3,2022.2.4,Win32,59.87306909,55891,,,,,,,,,,,,,,,,,,,,aarzelen,images/br_aarzelen.png,images/cb_aarzelen.png,,aarzelen,,,,,,,,,,,0.092592593,-0.32222225,1,0,0,aarzelen,0,35,35,19,1
,,,,,55891,2023-09-26_10h19.19.467,vbt_B1_day3,2022.2.4,Win32,59.87306909,55891,,,,,,,,,,,,,,,,,,,,onrecht,images/br_onrecht.png,images/cb_onrecht.png,,onrecht,,,,,,,,,,,0.092592593,-0.32222225,1,0,0,onrecht,0,36,36,55,1
,,,,,55891,2023-09-26_10h19.19.467,vbt_B1_day3,2022.2.4,Win32,59.87306909,55891,,,,,,,,,,,,,,,,,,,,gebod,images/br_gebod.png,images/cb_gebod.png,,gebod,,,,,,,,,,,0.092592593,-0.32222225,1,0,0,gebod,0,37,37,45,1
,,,,,55891,2023-09-26_10h19.19.467,vbt_B1_day3,2022.2.4,Win32,59.87306909,55891,,,,,,,,,,,,,,,,,,,,mugeek,images/br_mugeek.png,images/cb_mugeek.png,,mug.n,,,,,,,,,,,0.092592593,-0.32222225,1,0,0,mug.n,0,38,38,29,1
,,,,,55891,2023-09-26_10h19.19.467,vbt_B1_day3,2022.2.4,Win32,59.87306909,55891,,,,,,,,,,,,,,,,,,,,laken,images/br_laken.png,images/cb_laken.png,,laken,,,,,,,,,,,0.092592593,-0.32222225,1,0,0,laken,0,39,39,5,1
,,,,,55891,2023-09-26_10h19.19.467,vbt_B1_day3,2022.2.4,Win32,59.87306909,55891,,,,,,,,,,,,,,,,,,,,knie,images/br_knie.png,images/cb_knie.png,,knie,,,,,,,,,,,0.092592593,-0.32222225,1,0,0,knie,0,40,40,0,1
,,,,,55891,2023-09-26_10h19.19.467,vbt_B1_day3,2022.2.4,Win32,59.87306909,55891,,,,,,,,,,,,,,,,,,,,schatten,images/br_schatten.png,images/cb_schatten.png,,sc.atten,,,,,,,,,,,0.092592593,-0.32222225,1,0,0,sc.atten,0,41,41,18,1
,,,,,55891,2023-09-26_10h19.19.467,vbt_B1_day3,2022.2.4,Win32,59.87306909,55891,,,,,,,,,,,,,,,,,,,,keihard,images/br_keihard.png,images/cb_keihard.png,,keihard,,,,,,,,,,,0.092592593,-0.32222225,1,0,0,keihard,0,42,42,14,1
,,,,,55891,2023-09-26_10h19.19.467,vbt_B1_day3,2022.2.4,Win32,59.87306909,55891,,,,,,,,,,,,,,,,,,,,invallen,images/br_invallen.png,images/cb_invallen.png,,invallen,,,,,,,,,,,0.092592593,-0.32222225,1,0,0,invallen,0,43,43,57,1
,,,,,55891,2023-09-26_10h19.19.467,vbt_B1_day3,2022.2.4,Win32,59.87306909,55891,,,,,,,,,,,,,,,,,,,,uviek,images/br_uviek.png,images/cb_uviek.png,,uviek,,,,,,,,,,,0.092592593,-0.32222225,1,0,0,uviek,0,44,44,25,1
,,,,,55891,2023-09-26_10h19.19.467,vbt_B1_day3,2022.2.4,Win32,59.87306909,55891,,,,,,,,,,,,,,,,,,,,eens,images/br_eens.png,images/cb_eens.png,,eens,,,,,,,,,,,0.092592593,-0.32222225,1,0,0,eens,0,45,45,40,1
,,,,,55891,2023-09-26_10h19.19.467,vbt_B1_day3,2022.2.4,Win32,59.87306909,55891,,,,,,,,,,,,,,,,,,,,boeien,images/br_boeien.png,images/cb_boeien.png,,obei.,,,,,,,,,,,0.092592593,-0.32222225,1,0,0,obei.,0,46,46,8,1
,,,,,55891,2023-09-26_10h19.19.467,vbt_B1_day3,2022.2.4,Win32,59.87306909,55891,,,,,,,,,,,,,,,,,,,,hier,images/br_hier.png,images/cb_hier.png,,fier,,,,,,,,,,,0.092592593,-0.32222225,1,0,0,fier,0,47,47,1,1
,,,,,55891,2023-09-26_10h19.19.467,vbt_B1_day3,2022.2.4,Win32,59.87306909,55891,,,,,,,,,,,,,,,,,,,,stoom,images/br_stoom.png,images/cb_stoom.png,,stoom,,,,,,,,,,,0.092592593,-0.32222225,1,0,0,stoom,0,48,48,6,1
,,,,,55891,2023-09-26_10h19.19.467,vbt_B1_day3,2022.2.4,Win32,59.87306909,55891,,,,,,,,,,,,,,,,,,,,geluid,images/br_geluid.png,images/cb_geluid.png,,gelu.,,,,,,,,,,,0.092592593,-0.32222225,1,0,0,gelu.,0,49,49,10,1
,,,,,55891,2023-09-26_10h19.19.467,vbt_B1_day3,2022.2.4,Win32,59.87306909,55891,,,,,,,,,,,,,,,,,,,,gezond,images/br_gezond.png,images/cb_gezond.png,,gezond,,,,,,,,,,,0.092592593,-0.32222225,1,0,0,gezond,0,50,50,11,1
,,,,,55891,2023-09-26_10h19.19.467,vbt_B1_day3,2022.2.4,Win32,59.87306909,55891,,,,,,,,,,,,,,,,,,,,oprotten,images/br_oprotten.png,images/cb_oprotten.png,,oprotten,,,,,,,,,,,0.092592593,-0.32222225,1,0,0,oprotten,0,51,51,17,1
,,,,,55891,2023-09-26_10h19.19.467,vbt_B1_day3,2022.2.4,Win32,59.87306909,55891,,,,,,,,,,,,,,,,,,,,uniek,images/br_uniek.png,images/cb_uniek.png,,uniek,,,,,,,,,,,0.092592593,-0.32222225,1,0,0,uniek,0,52,52,46,1
,,,,,55891,2023-09-26_10h19.19.467,vbt_B1_day3,2022.2.4,Win32,59.87306909,55891,,,,,,,,,,,,,,,,,,,,mode,images/br_mode.png,images/cb_mode.png,,mode,,,,,,,,,,,0.092592593,-0.32222225,1,0,0,mode,0,53,53,3,1
,,,,,55891,2023-09-26_10h19.19.467,vbt_B1_day3,2022.2.4,Win32,59.87306909,55891,,,,,,,,,,,,,,,,,,,,opzicht,images/br_opzicht.png,images/cb_opzicht.png,,opzib.,,,,,,,,,,,0.092592593,-0.32222225,1,0,0,opzib.,0,54,54,15,1
,,,,,55891,2023-09-26_10h19.19.467,vbt_B1_day3,2022.2.4,Win32,59.87306909,55891,,,,,,,,,,,,,,,,,,,,hust,images/br_hust.png,images/cb_hust.png,,.ust,,,,,,,,,,,0.092592593,-0.32222225,1,0,0,.ust,0,55,55,23,1
,,,,,55891,2023-09-26_10h19.19.467,vbt_B1_day3,2022.2.4,Win32,59.87306909,55891,,,,,,,,,,,,,,,,,,,,stikken,images/br_stikken.png,images/cb_stikken.png,,stikken,,,,,,,,,,,0.092592593,-0.32222225,1,0,0,stikken,0,56,56,54,1
,,,,,55891,2023-09-26_10h19.19.467,vbt_B1_day3,2022.2.4,Win32,59.87306909,55891,,,,,,,,,,,,,,,,,,,,beslag,images/br_beslag.png,images/cb_beslag.png,,beslag,,,,,,,,,,,0.092592593,-0.32222225,1,0,0,beslag,0,57,57,51,1
,,,,,55891,2023-09-26_10h19.19.467,vbt_B1_day3,2022.2.4,Win32,59.87306909,55891,,,,,,,,,,,,,,,,,,,,verhaal,images/br_verhaal.png,images/cb_verhaal.png,,verhaal,,,,,,,,,,,0.092592593,-0.32222225,1,0,0,verhaal,0,58,58,13,1
,,,,,55891,2023-09-26_10h19.19.467,vbt_B1_day3,2022.2.4,Win32,59.87306909,55891,,,,,,,,,,,,,,,,,,,,opzetten,images/br_opzetten.png,images/cb_opzetten.png,,opzetten,,,,,,,,,,,0.092592593,-0.32222225,1,0,0,opzetten,0,59,59,56,1
,,,,,55891,2023-09-26_10h19.19.467,vbt_B1_day3,2022.2.4,Win32,59.87306909,55891,,,,,,,,,,,,,,,,,,,,,,,,,,,,,,,,,,,,,,,,,,,,,
