welcome_mouse.x,welcome_mouse.y,welcome_mouse.leftButton,welcome_mouse.midButton,welcome_mouse.rightButton,"ID",date,expName,psychopyVersion,OS,frameRate,trainInstr_mouse.x,trainInstr_mouse.y,trainInstr_mouse.leftButton,trainInstr_mouse.midButton,trainInstr_mouse.rightButton,translation_key.keys,translation_key.corr,translation_key.rt,word_rsp.text,trWrd_mouse.x,trWrd_mouse.y,trWrd_mouse.leftButton,trWrd_mouse.midButton,trWrd_mouse.rightButton,train_loop.thisRepN,train_loop.thisTrialN,train_loop.thisN,train_loop.thisIndex,train_loop.ran,nlWrd,brWrd,cbWrd,test,testResp,mouse.x,mouse.y,mouse.leftButton,mouse.midButton,mouse.rightButton,testInstr_mouse.x,testInstr_mouse.y,testInstr_mouse.leftButton,testInstr_mouse.midButton,testInstr_mouse.rightButton,test_mouse.x,test_mouse.y,test_mouse.leftButton,test_mouse.midButton,test_mouse.rightButton,test_response.text,test_loop.thisRepN,test_loop.thisTrialN,test_loop.thisN,test_loop.thisIndex,test_loop.ran
0.420956308,-0.339467593,1,0,0,00108,2023-11-27_17h06.08.847,vbt_B1_day3,2022.2.4,MacIntel,60.0024001,,,,,,,,,,,,,,,,,,,,,,,,,,,,,,,,,,,,,,,,,,,,,
,,,,,00108,2023-11-27_17h06.08.847,vbt_B1_day3,2022.2.4,MacIntel,60.0024001,0.380457899,-0.329763455,1,0,0,,,,,,,,,,,,,,,,,,,,,,,,,,,,,,,,,,,,,,,,
,,,,,00108,2023-11-27_17h06.08.847,vbt_B1_day3,2022.2.4,MacIntel,60.0024001,,,,,,down,0,3.7265,,0.3484375,-0.122265625,1,0,0,0,0,0,36,1,vuur,images/br_vuur.png,images/cb_vuur.png,0,,,,,,,,,,,,,,,,,,,,,,
,,,,,00108,2023-11-27_17h06.08.847,vbt_B1_day3,2022.2.4,MacIntel,60.0024001,,,,,,down,0,4.5571,,0.15016276,-0.098549624,1,0,0,0,1,1,34,1,vorm,images/br_vorm.png,images/cb_vorm.png,0,,,,,,,,,,,,,,,,,,,,,,
,,,,,00108,2023-11-27_17h06.08.847,vbt_B1_day3,2022.2.4,MacIntel,60.0024001,,,,,,down,0,5.7946,,0.159700521,-0.089142072,1,0,0,0,2,2,43,1,klauw,images/br_klauw.png,images/cb_klauw.png,0,,,,,,,,,,,,,,,,,,,,,,
,,,,,00108,2023-11-27_17h06.08.847,vbt_B1_day3,2022.2.4,MacIntel,60.0024001,,,,,,down,0,3.4383,,0.194646991,-0.067527488,1,0,0,0,3,3,102,1,legaal,images/br_legaal.png,images/cb_legaal.png,1,legaal,,,,,,,,,,,,,,,,,,,,,
,,,,,00108,2023-11-27_17h06.08.847,vbt_B1_day3,2022.2.4,MacIntel,60.0024001,,,,,,down,0,5.5778,,0.202455874,-0.04729456,1,0,0,0,4,4,190,1,goedkoop,images/br_goedkoop.png,images/cb_goedkoop.png,0,,,,,,,,,,,,,,,,,,,,,,
,,,,,00108,2023-11-27_17h06.08.847,vbt_B1_day3,2022.2.4,MacIntel,60.0024001,,,,,,down,0,3.3109,,0.202455874,-0.04729456,1,0,0,0,5,5,57,1,steek,images/br_steek.png,images/cb_steek.png,0,,,,,,,,,,,,,,,,,,,,,,
,,,,,00108,2023-11-27_17h06.08.847,vbt_B1_day3,2022.2.4,MacIntel,60.0024001,,,,,,down,0,4.8905,,0.177032697,-0.045240162,1,0,0,0,6,6,111,1,ticket,images/br_ticket.png,images/cb_ticket.png,0,,,,,,,,,,,,,,,,,,,,,,
,,,,,00108,2023-11-27_17h06.08.847,vbt_B1_day3,2022.2.4,MacIntel,60.0024001,,,,,,down,0,5.6522,,0.11780599,-0.064854601,1,0,0,0,7,7,166,1,strikken,images/br_strikken.png,images/cb_strikken.png,0,,,,,,,,,,,,,,,,,,,,,,
,,,,,00108,2023-11-27_17h06.08.847,vbt_B1_day3,2022.2.4,MacIntel,60.0024001,,,,,,down,0,5.0344,,0.063454861,-0.039055266,1,0,0,0,8,8,173,1,apparaat,images/br_apparaat.png,images/cb_apparaat.png,0,,,,,,,,,,,,,,,,,,,,,,
,,,,,00108,2023-11-27_17h06.08.847,vbt_B1_day3,2022.2.4,MacIntel,60.0024001,,,,,,down,0,1.2833,,0.080320457,-0.065690104,1,0,0,0,9,9,39,1,laag,images/br_laag.png,images/cb_laag.png,0,,,,,,,,,,,,,,,,,,,,,,
,,,,,00108,2023-11-27_17h06.08.847,vbt_B1_day3,2022.2.4,MacIntel,60.0024001,,,,,,down,0,6.5087,,0.131579138,-0.087120226,1,0,0,0,10,10,144,1,eetlust,images/br_eetlust.png,images/cb_eetlust.png,0,,,,,,,,,,,,,,,,,,,,,,
,,,,,00108,2023-11-27_17h06.08.847,vbt_B1_day3,2022.2.4,MacIntel,60.0024001,,,,,,down,0,7.3351,,0.089825666,-0.05396412,1,0,0,0,11,11,162,1,uitdelen,images/br_uitdelen.png,images/cb_uitdelen.png,0,,,,,,,,,,,,,,,,,,,,,,
,,,,,00108,2023-11-27_17h06.08.847,vbt_B1_day3,2022.2.4,MacIntel,60.0024001,,,,,,down,0,16.8768,,0.117737269,-0.06630136,1,0,0,0,12,12,198,1,bedoelen,images/br_bedoelen.png,images/cb_bedoelen.png,0,,,,,,,,,,,,,,,,,,,,,,
,,,,,00108,2023-11-27_17h06.08.847,vbt_B1_day3,2022.2.4,MacIntel,60.0024001,,,,,,down,0,2.7764,,0.136447483,-0.062330006,1,0,0,0,13,13,91,1,gezond,images/br_gezond.png,images/cb_gezond.png,0,,,,,,,,,,,,,,,,,,,,,,
,,,,,00108,2023-11-27_17h06.08.847,vbt_B1_day3,2022.2.4,MacIntel,60.0024001,,,,,,down,0,9.1589,,0.042238137,-0.057425492,1,0,0,0,14,14,148,1,smullen,images/br_smullen.png,images/cb_smullen.png,0,,,,,,,,,,,,,,,,,,,,,,
,,,,,00108,2023-11-27_17h06.08.847,vbt_B1_day3,2022.2.4,MacIntel,60.0024001,,,,,,down,0,10.459,,0.276537182,-0.152256944,1,0,0,0,15,15,22,1,stof,images/br_stof.png,images/cb_stof.png,1,stof,,,,,,,,,,,,,,,,,,,,,
,,,,,00108,2023-11-27_17h06.08.847,vbt_B1_day3,2022.2.4,MacIntel,60.0024001,,,,,,down,0,17.6036,,0.011433015,-0.002531829,1,0,0,0,16,16,183,1,getuigen,images/br_getuigen.png,images/cb_getuigen.png,1,getuigen,,,,,,,,,,,,,,,,,,,,,
,,,,,00108,2023-11-27_17h06.08.847,vbt_B1_day3,2022.2.4,MacIntel,60.0024001,,,,,,down,0,4.917,,0.011331742,-0.041749855,1,0,0,0,17,17,119,1,liefje,images/br_liefje.png,images/cb_liefje.png,0,,,,,,,,,,,,,,,,,,,,,,
,,,,,00108,2023-11-27_17h06.08.847,vbt_B1_day3,2022.2.4,MacIntel,60.0024001,,,,,,down,0,4.966,,0.021006944,-0.028613281,1,0,0,0,18,18,146,1,opkomen,images/br_opkomen.png,images/cb_opkomen.png,0,,,,,,,,,,,,,,,,,,,,,,
,,,,,00108,2023-11-27_17h06.08.847,vbt_B1_day3,2022.2.4,MacIntel,60.0024001,,,,,,down,0,7.4064,,0.00808015,-0.022591146,1,0,0,0,19,19,59,1,kring,images/br_kring.png,images/cb_kring.png,0,,,,,,,,,,,,,,,,,,,,,,
,,,,,00108,2023-11-27_17h06.08.847,vbt_B1_day3,2022.2.4,MacIntel,60.0024001,,,,,,down,0,5.3717,,-0.013237847,-0.028045428,1,0,0,0,20,20,124,1,bloeien,images/br_bloeien.png,images/cb_bloeien.png,0,,,,,,,,,,,,,,,,,,,,,,
,,,,,00108,2023-11-27_17h06.08.847,vbt_B1_day3,2022.2.4,MacIntel,60.0024001,,,,,,down,0,4.0835,,0.03990162,-0.033854167,1,0,0,0,21,21,117,1,kennis,images/br_kennis.png,images/cb_kennis.png,0,,,,,,,,,,,,,,,,,,,,,,
,,,,,00108,2023-11-27_17h06.08.847,vbt_B1_day3,2022.2.4,MacIntel,60.0024001,,,,,,down,0,8.1206,,0.049714265,-0.038451244,1,0,0,0,22,22,3,1,mand,images/br_mand.png,images/cb_mand.png,0,,,,,,,,,,,,,,,,,,,,,,
,,,,,00108,2023-11-27_17h06.08.847,vbt_B1_day3,2022.2.4,MacIntel,60.0024001,,,,,,down,0,14.1183,,0.02348452,-0.026363571,1,0,0,0,23,23,176,1,techniek,images/br_techniek.png,images/cb_techniek.png,0,,,,,,,,,,,,,,,,,,,,,,
,,,,,00108,2023-11-27_17h06.08.847,vbt_B1_day3,2022.2.4,MacIntel,60.0024001,,,,,,down,0,4.8171,,0.108235677,-0.024981916,1,0,0,0,24,24,68,1,schat,images/br_schat.png,images/cb_schat.png,0,,,,,,,,,,,,,,,,,,,,,,
,,,,,00108,2023-11-27_17h06.08.847,vbt_B1_day3,2022.2.4,MacIntel,60.0024001,,,,,,down,0,2.6029,,0.057172309,-0.011903212,1,0,0,0,25,25,126,1,kasteel,images/br_kasteel.png,images/cb_kasteel.png,0,,,,,,,,,,,,,,,,,,,,,,
,,,,,00108,2023-11-27_17h06.08.847,vbt_B1_day3,2022.2.4,MacIntel,60.0024001,,,,,,down,0,20.1718,,-0.02583912,0.001540799,1,0,0,0,26,26,83,1,mening,images/br_mening.png,images/cb_mening.png,0,,,,,,,,,,,,,,,,,,,,,,
,,,,,00108,2023-11-27_17h06.08.847,vbt_B1_day3,2022.2.4,MacIntel,60.0024001,,,,,,down,0,7.1023,,0.094093605,-0.010883247,1,0,0,0,27,27,116,1,besmet,images/br_besmet.png,images/cb_besmet.png,0,,,,,,,,,,,,,,,,,,,,,,
,,,,,00108,2023-11-27_17h06.08.847,vbt_B1_day3,2022.2.4,MacIntel,60.0024001,,,,,,down,0,2.3178,,-0.099450231,-0.001146557,1,0,0,0,28,28,18,1,blik,images/br_blik.png,images/cb_blik.png,0,,,,,,,,,,,,,,,,,,,,,,
,,,,,00108,2023-11-27_17h06.08.847,vbt_B1_day3,2022.2.4,MacIntel,60.0024001,,,,,,down,0,5.2352,,0.196647135,-0.012467448,1,0,0,0,29,29,177,1,maaltijd,images/br_maaltijd.png,images/cb_maaltijd.png,0,,,,,,,,,,,,,,,,,,,,,,
,,,,,00108,2023-11-27_17h06.08.847,vbt_B1_day3,2022.2.4,MacIntel,60.0024001,,,,,,down,0,5.034,,0.205320457,-0.007606337,1,0,0,0,30,30,140,1,blijven,images/br_blijven.png,images/cb_blijven.png,1,blijven,,,,,,,,,,,,,,,,,,,,,
,,,,,00108,2023-11-27_17h06.08.847,vbt_B1_day3,2022.2.4,MacIntel,60.0024001,,,,,,down,0,4.186,,0.205320457,-0.007606337,1,0,0,0,31,31,16,1,ziek,images/br_ziek.png,images/cb_ziek.png,0,,,,,,,,,,,,,,,,,,,,,,
,,,,,00108,2023-11-27_17h06.08.847,vbt_B1_day3,2022.2.4,MacIntel,60.0024001,,,,,,down,0,6.5006,,0.040925203,-0.01234809,1,0,0,0,32,32,172,1,weigeren,images/br_weigeren.png,images/cb_weigeren.png,0,,,,,,,,,,,,,,,,,,,,,,
,,,,,00108,2023-11-27_17h06.08.847,vbt_B1_day3,2022.2.4,MacIntel,60.0024001,,,,,,down,0,3.6177,,-0.07698206,-0.017310475,1,0,0,0,33,33,26,1,leuk,images/br_leuk.png,images/cb_leuk.png,0,,,,,,,,,,,,,,,,,,,,,,
,,,,,00108,2023-11-27_17h06.08.847,vbt_B1_day3,2022.2.4,MacIntel,60.0024001,,,,,,down,0,7.5995,,-0.009353299,-0.012702546,1,0,0,0,34,34,19,1,geit,images/br_geit.png,images/cb_geit.png,0,,,,,,,,,,,,,,,,,,,,,,
,,,,,00108,2023-11-27_17h06.08.847,vbt_B1_day3,2022.2.4,MacIntel,60.0024001,,,,,,down,0,7.2427,,0.041290509,-0.014398872,1,0,0,0,35,35,96,1,slagen,images/br_slagen.png,images/cb_slagen.png,0,,,,,,,,,,,,,,,,,,,,,,
,,,,,00108,2023-11-27_17h06.08.847,vbt_B1_day3,2022.2.4,MacIntel,60.0024001,,,,,,down,0,5.2514,,0.114228877,-0.011942998,1,0,0,0,36,36,122,1,waarvan,images/br_waarvan.png,images/cb_waarvan.png,0,,,,,,,,,,,,,,,,,,,,,,
,,,,,00108,2023-11-27_17h06.08.847,vbt_B1_day3,2022.2.4,MacIntel,60.0024001,,,,,,down,0,0.7551,,0.057530382,0.000954861,1,0,0,0,37,37,1,1,zaal,images/br_zaal.png,images/cb_zaal.png,0,,,,,,,,,,,,,,,,,,,,,,
,,,,,00108,2023-11-27_17h06.08.847,vbt_B1_day3,2022.2.4,MacIntel,60.0024001,,,,,,down,0,12.9382,,0.057530382,0.000954861,1,0,0,0,38,38,132,1,grappen,images/br_grappen.png,images/cb_grappen.png,0,,,,,,,,,,,,,,,,,,,,,,
,,,,,00108,2023-11-27_17h06.08.847,vbt_B1_day3,2022.2.4,MacIntel,60.0024001,,,,,,down,0,6.1525,,0.057530382,0.000954861,1,0,0,0,39,39,192,1,schaamte,images/br_schaamte.png,images/cb_schaamte.png,0,,,,,,,,,,,,,,,,,,,,,,
,,,,,00108,2023-11-27_17h06.08.847,vbt_B1_day3,2022.2.4,MacIntel,60.0024001,,,,,,down,0,0.3342,,0.057530382,0.000954861,1,0,0,0,40,40,10,1,leek,images/br_leek.png,images/cb_leek.png,0,,,,,,,,,,,,,,,,,,,,,,
,,,,,00108,2023-11-27_17h06.08.847,vbt_B1_day3,2022.2.4,MacIntel,60.0024001,,,,,,down,0,1.472,,0.057530382,0.000954861,1,0,0,0,41,41,78,1,leren,images/br_leren.png,images/cb_leren.png,0,,,,,,,,,,,,,,,,,,,,,,
,,,,,00108,2023-11-27_17h06.08.847,vbt_B1_day3,2022.2.4,MacIntel,60.0024001,,,,,,down,0,3.4524,,0.057530382,0.000954861,1,0,0,0,42,42,97,1,loyaal,images/br_loyaal.png,images/cb_loyaal.png,0,,,,,,,,,,,,,,,,,,,,,,
,,,,,00108,2023-11-27_17h06.08.847,vbt_B1_day3,2022.2.4,MacIntel,60.0024001,,,,,,down,0,2.0582,,0.057530382,0.000954861,1,0,0,0,43,43,115,1,kleren,images/br_kleren.png,images/cb_kleren.png,0,,,,,,,,,,,,,,,,,,,,,,
,,,,,00108,2023-11-27_17h06.08.847,vbt_B1_day3,2022.2.4,MacIntel,60.0024001,,,,,,down,0,34.1398,,0.057530382,0.000954861,1,0,0,0,44,44,155,1,gerucht,images/br_gerucht.png,images/cb_gerucht.png,0,,,,,,,,,,,,,,,,,,,,,,
,,,,,00108,2023-11-27_17h06.08.847,vbt_B1_day3,2022.2.4,MacIntel,60.0024001,,,,,,down,0,6.3949,,0.057530382,0.000954861,1,0,0,0,45,45,65,1,parel,images/br_parel.png,images/cb_parel.png,0,,,,,,,,,,,,,,,,,,,,,,
,,,,,00108,2023-11-27_17h06.08.847,vbt_B1_day3,2022.2.4,MacIntel,60.0024001,,,,,,down,0,1.2477,,0.057530382,0.000954861,1,0,0,0,46,46,33,1,vlek,images/br_vlek.png,images/cb_vlek.png,0,,,,,,,,,,,,,,,,,,,,,,
,,,,,00108,2023-11-27_17h06.08.847,vbt_B1_day3,2022.2.4,MacIntel,60.0024001,,,,,,down,0,2.806,,0.057530382,0.000954861,1,0,0,0,47,47,4,1,moes,images/br_moes.png,images/cb_moes.png,0,,,,,,,,,,,,,,,,,,,,,,
,,,,,00108,2023-11-27_17h06.08.847,vbt_B1_day3,2022.2.4,MacIntel,60.0024001,,,,,,down,0,4.6027,,0.057530382,0.000954861,1,0,0,0,48,48,103,1,joggen,images/br_joggen.png,images/cb_joggen.png,1,joggen,,,,,,,,,,,,,,,,,,,,,
,,,,,00108,2023-11-27_17h06.08.847,vbt_B1_day3,2022.2.4,MacIntel,60.0024001,,,,,,down,0,5.6392,,0.057530382,0.000954861,1,0,0,0,49,49,159,1,sufferd,images/br_sufferd.png,images/cb_sufferd.png,0,,,,,,,,,,,,,,,,,,,,,,
,,,,,00108,2023-11-27_17h06.08.847,vbt_B1_day3,2022.2.4,MacIntel,60.0024001,,,,,,down,0,5.4613,,0.057530382,0.000954861,1,0,0,0,50,50,40,1,schep,images/br_schep.png,images/cb_schep.png,0,,,,,,,,,,,,,,,,,,,,,,
,,,,,00108,2023-11-27_17h06.08.847,vbt_B1_day3,2022.2.4,MacIntel,60.0024001,,,,,,down,0,4.8601,,0.057530382,0.000954861,1,0,0,0,51,51,95,1,vreten,images/br_vreten.png,images/cb_vreten.png,0,,,,,,,,,,,,,,,,,,,,,,
,,,,,00108,2023-11-27_17h06.08.847,vbt_B1_day3,2022.2.4,MacIntel,60.0024001,,,,,,down,0,7.5852,,0.056213831,-0.002105035,1,0,0,0,52,52,106,1,zingen,images/br_zingen.png,images/cb_zingen.png,0,,,,,,,,,,,,,,,,,,,,,,
,,,,,00108,2023-11-27_17h06.08.847,vbt_B1_day3,2022.2.4,MacIntel,60.0024001,,,,,,down,0,4.4523,,0.056213831,-0.002105035,1,0,0,0,53,53,0,1,slak,images/br_slak.png,images/cb_slak.png,0,,,,,,,,,,,,,,,,,,,,,,
,,,,,00108,2023-11-27_17h06.08.847,vbt_B1_day3,2022.2.4,MacIntel,60.0024001,,,,,,down,0,8.6107,,0.056213831,-0.002105035,1,0,0,0,54,54,12,1,kust,images/br_kust.png,images/cb_kust.png,0,,,,,,,,,,,,,,,,,,,,,,
,,,,,00108,2023-11-27_17h06.08.847,vbt_B1_day3,2022.2.4,MacIntel,60.0024001,,,,,,down,0,2.7013,,0.056213831,-0.002105035,1,0,0,0,55,55,69,1,waken,images/br_waken.png,images/cb_waken.png,0,,,,,,,,,,,,,,,,,,,,,,
,,,,,00108,2023-11-27_17h06.08.847,vbt_B1_day3,2022.2.4,MacIntel,60.0024001,,,,,,down,0,4.9356,,0.056213831,-0.002105035,1,0,0,0,56,56,156,1,rechten,images/br_rechten.png,images/cb_rechten.png,0,,,,,,,,,,,,,,,,,,,,,,
,,,,,00108,2023-11-27_17h06.08.847,vbt_B1_day3,2022.2.4,MacIntel,60.0024001,,,,,,down,0,1.9691,,0.056213831,-0.002105035,1,0,0,0,57,57,17,1,taal,images/br_taal.png,images/cb_taal.png,0,,,,,,,,,,,,,,,,,,,,,,
,,,,,00108,2023-11-27_17h06.08.847,vbt_B1_day3,2022.2.4,MacIntel,60.0024001,,,,,,down,0,3.2168,,0.056213831,-0.002105035,1,0,0,0,58,58,31,1,poes,images/br_poes.png,images/cb_poes.png,0,,,,,,,,,,,,,,,,,,,,,,
,,,,,00108,2023-11-27_17h06.08.847,vbt_B1_day3,2022.2.4,MacIntel,60.0024001,,,,,,down,0,5.2186,,0.056213831,-0.002105035,1,0,0,0,59,59,64,1,wegen,images/br_wegen.png,images/cb_wegen.png,0,,,,,,,,,,,,,,,,,,,,,,
,,,,,00108,2023-11-27_17h06.08.847,vbt_B1_day3,2022.2.4,MacIntel,60.0024001,,,,,,down,0,9.8876,,0.056213831,-0.002105035,1,0,0,0,60,60,157,1,uitlaat,images/br_uitlaat.png,images/cb_uitlaat.png,0,,,,,,,,,,,,,,,,,,,,,,
,,,,,00108,2023-11-27_17h06.08.847,vbt_B1_day3,2022.2.4,MacIntel,60.0024001,,,,,,down,0,9.2635,,0.056213831,-0.002105035,1,0,0,0,61,61,154,1,aflopen,images/br_aflopen.png,images/cb_aflopen.png,0,,,,,,,,,,,,,,,,,,,,,,
,,,,,00108,2023-11-27_17h06.08.847,vbt_B1_day3,2022.2.4,MacIntel,60.0024001,,,,,,down,0,4.2743,,0.056213831,-0.002105035,1,0,0,0,62,62,35,1,lust,images/br_lust.png,images/cb_lust.png,0,,,,,,,,,,,,,,,,,,,,,,
,,,,,00108,2023-11-27_17h06.08.847,vbt_B1_day3,2022.2.4,MacIntel,60.0024001,,,,,,down,0,5.5357,,0.056213831,-0.002105035,1,0,0,0,63,63,174,1,stemming,images/br_stemming.png,images/cb_stemming.png,0,,,,,,,,,,,,,,,,,,,,,,
,,,,,00108,2023-11-27_17h06.08.847,vbt_B1_day3,2022.2.4,MacIntel,60.0024001,,,,,,down,0,12.5847,,0.056213831,-0.002105035,1,0,0,0,64,64,180,1,openbaar,images/br_openbaar.png,images/cb_openbaar.png,1,openbaar,,,,,,,,,,,,,,,,,,,,,
,,,,,00108,2023-11-27_17h06.08.847,vbt_B1_day3,2022.2.4,MacIntel,60.0024001,,,,,,down,0,13.9359,,0.030953414,-0.008311632,1,0,0,0,65,65,199,1,beseffen,images/br_beseffen.png,images/cb_beseffen.png,0,,,,,,,,,,,,,,,,,,,,,,
,,,,,00108,2023-11-27_17h06.08.847,vbt_B1_day3,2022.2.4,MacIntel,60.0024001,,,,,,down,0,4.7596,,0.030953414,-0.008311632,1,0,0,0,66,66,21,1,mist,images/br_mist.png,images/cb_mist.png,1,mist,,,,,,,,,,,,,,,,,,,,,
,,,,,00108,2023-11-27_17h06.08.847,vbt_B1_day3,2022.2.4,MacIntel,60.0024001,,,,,,down,0,32.0155,,0.067643229,-0.016565394,1,0,0,0,67,67,196,1,nakijken,images/br_nakijken.png,images/cb_nakijken.png,0,,,,,,,,,,,,,,,,,,,,,,
,,,,,00108,2023-11-27_17h06.08.847,vbt_B1_day3,2022.2.4,MacIntel,60.0024001,,,,,,down,0,47.1539,,-0.00812717,-0.018341291,1,0,0,0,68,68,153,1,vervoer,images/br_vervoer.png,images/cb_vervoer.png,0,,,,,,,,,,,,,,,,,,,,,,
,,,,,00108,2023-11-27_17h06.08.847,vbt_B1_day3,2022.2.4,MacIntel,60.0024001,,,,,,down,0,15.322,,-0.00812717,-0.018341291,1,0,0,0,69,69,158,1,innemen,images/br_innemen.png,images/cb_innemen.png,0,,,,,,,,,,,,,,,,,,,,,,
,,,,,00108,2023-11-27_17h06.08.847,vbt_B1_day3,2022.2.4,MacIntel,60.0024001,,,,,,down,0,4.3277,,-0.00812717,-0.018341291,1,0,0,0,70,70,88,1,boeien,images/br_boeien.png,images/cb_boeien.png,0,,,,,,,,,,,,,,,,,,,,,,
,,,,,00108,2023-11-27_17h06.08.847,vbt_B1_day3,2022.2.4,MacIntel,60.0024001,,,,,,down,0,4.2853,,-0.00812717,-0.018341291,1,0,0,0,71,71,104,1,zweven,images/br_zweven.png,images/cb_zweven.png,0,,,,,,,,,,,,,,,,,,,,,,
,,,,,00108,2023-11-27_17h06.08.847,vbt_B1_day3,2022.2.4,MacIntel,60.0024001,,,,,,down,0,4.9722,,-0.00812717,-0.018341291,1,0,0,0,72,72,134,1,geliefd,images/br_geliefd.png,images/cb_geliefd.png,0,,,,,,,,,,,,,,,,,,,,,,
,,,,,00108,2023-11-27_17h06.08.847,vbt_B1_day3,2022.2.4,MacIntel,60.0024001,,,,,,down,0,8.5023,,-0.00812717,-0.018341291,1,0,0,0,73,73,80,1,kanjer,images/br_kanjer.png,images/cb_kanjer.png,0,,,,,,,,,,,,,,,,,,,,,,
,,,,,00108,2023-11-27_17h06.08.847,vbt_B1_day3,2022.2.4,MacIntel,60.0024001,,,,,,down,0,4.3878,,-0.00812717,-0.018341291,1,0,0,0,74,74,62,1,knaap,images/br_knaap.png,images/cb_knaap.png,1,knaap,,,,,,,,,,,,,,,,,,,,,
,,,,,00108,2023-11-27_17h06.08.847,vbt_B1_day3,2022.2.4,MacIntel,60.0024001,,,,,,down,0,1.0746,,-0.00812717,-0.018341291,1,0,0,0,75,75,114,1,vullen,images/br_vullen.png,images/cb_vullen.png,0,,,,,,,,,,,,,,,,,,,,,,
,,,,,00108,2023-11-27_17h06.08.847,vbt_B1_day3,2022.2.4,MacIntel,60.0024001,,,,,,down,0,7.9686,,-0.00812717,-0.018341291,1,0,0,0,76,76,178,1,huisdier,images/br_huisdier.png,images/cb_huisdier.png,0,,,,,,,,,,,,,,,,,,,,,,
,,,,,00108,2023-11-27_17h06.08.847,vbt_B1_day3,2022.2.4,MacIntel,60.0024001,,,,,,down,0,3.9202,,-0.00812717,-0.018341291,1,0,0,0,77,77,187,1,opkijken,images/br_opkijken.png,images/cb_opkijken.png,0,,,,,,,,,,,,,,,,,,,,,,
,,,,,00108,2023-11-27_17h06.08.847,vbt_B1_day3,2022.2.4,MacIntel,60.0024001,,,,,,down,0,4.4708,,-0.00812717,-0.018341291,1,0,0,0,78,78,8,1,knie,images/br_knie.png,images/cb_knie.png,0,,,,,,,,,,,,,,,,,,,,,,
,,,,,00108,2023-11-27_17h06.08.847,vbt_B1_day3,2022.2.4,MacIntel,60.0024001,,,,,,down,0,2.8035,,-0.00812717,-0.018341291,1,0,0,0,79,79,48,1,steel,images/br_steel.png,images/cb_steel.png,0,,,,,,,,,,,,,,,,,,,,,,
,,,,,00108,2023-11-27_17h06.08.847,vbt_B1_day3,2022.2.4,MacIntel,60.0024001,,,,,,down,0,11.003,,-0.00812717,-0.018341291,1,0,0,0,80,80,94,1,oceaan,images/br_oceaan.png,images/cb_oceaan.png,0,,,,,,,,,,,,,,,,,,,,,,
,,,,,00108,2023-11-27_17h06.08.847,vbt_B1_day3,2022.2.4,MacIntel,60.0024001,,,,,,down,0,2.6121,,-0.00812717,-0.018341291,1,0,0,0,81,81,6,1,diep,images/br_diep.png,images/cb_diep.png,0,,,,,,,,,,,,,,,,,,,,,,
,,,,,00108,2023-11-27_17h06.08.847,vbt_B1_day3,2022.2.4,MacIntel,60.0024001,,,,,,down,0,4.8697,,-0.00812717,-0.018341291,1,0,0,0,82,82,138,1,akkoord,images/br_akkoord.png,images/cb_akkoord.png,0,,,,,,,,,,,,,,,,,,,,,,
,,,,,00108,2023-11-27_17h06.08.847,vbt_B1_day3,2022.2.4,MacIntel,60.0024001,,,,,,down,0,8.8919,,-0.00812717,-0.018341291,1,0,0,0,83,83,182,1,bijkomen,images/br_bijkomen.png,images/cb_bijkomen.png,1,bijkomen,,,,,,,,,,,,,,,,,,,,,
,,,,,00108,2023-11-27_17h06.08.847,vbt_B1_day3,2022.2.4,MacIntel,60.0024001,,,,,,down,0,15.0686,,-0.00812717,-0.018341291,1,0,0,0,84,84,143,1,hechten,images/br_hechten.png,images/cb_hechten.png,1,hechten,,,,,,,,,,,,,,,,,,,,,
,,,,,00108,2023-11-27_17h06.08.847,vbt_B1_day3,2022.2.4,MacIntel,60.0024001,,,,,,down,0,9.2931,,0.218348524,-0.032067419,1,0,0,0,85,85,161,1,attentie,images/br_attentie.png,images/cb_attentie.png,0,,,,,,,,,,,,,,,,,,,,,,
,,,,,00108,2023-11-27_17h06.08.847,vbt_B1_day3,2022.2.4,MacIntel,60.0024001,,,,,,down,0,3.266,,-0.041286892,0.001374421,1,0,0,0,86,86,99,1,koffie,images/br_koffie.png,images/cb_koffie.png,0,,,,,,,,,,,,,,,,,,,,,,
,,,,,00108,2023-11-27_17h06.08.847,vbt_B1_day3,2022.2.4,MacIntel,60.0024001,,,,,,down,0,4.6539,,0.078446904,0.007125289,1,0,0,0,87,87,54,1,gebit,images/br_gebit.png,images/cb_gebit.png,0,,,,,,,,,,,,,,,,,,,,,,
,,,,,00108,2023-11-27_17h06.08.847,vbt_B1_day3,2022.2.4,MacIntel,60.0024001,,,,,,down,0,8.5228,,-0.065780527,-0.005483218,1,0,0,0,88,88,58,1,tekst,images/br_tekst.png,images/cb_tekst.png,0,,,,,,,,,,,,,,,,,,,,,,
,,,,,00108,2023-11-27_17h06.08.847,vbt_B1_day3,2022.2.4,MacIntel,60.0024001,,,,,,down,0,4.363,,-0.10103805,-0.001356337,1,0,0,0,89,89,125,1,aanzien,images/br_aanzien.png,images/cb_aanzien.png,0,,,,,,,,,,,,,,,,,,,,,,
,,,,,00108,2023-11-27_17h06.08.847,vbt_B1_day3,2022.2.4,MacIntel,60.0024001,,,,,,down,0,1.9234,,0.174442998,0.003215422,1,0,0,0,90,90,85,1,heilig,images/br_heilig.png,images/cb_heilig.png,0,,,,,,,,,,,,,,,,,,,,,,
,,,,,00108,2023-11-27_17h06.08.847,vbt_B1_day3,2022.2.4,MacIntel,60.0024001,,,,,,down,0,1.8362,,-0.177354601,-0.025712529,1,0,0,0,91,91,41,1,maken,images/br_maken.png,images/cb_maken.png,0,,,,,,,,,,,,,,,,,,,,,,
,,,,,00108,2023-11-27_17h06.08.847,vbt_B1_day3,2022.2.4,MacIntel,60.0024001,,,,,,down,0,6.8742,,-0.133648003,0.008398437,1,0,0,0,92,92,74,1,graaf,images/br_graaf.png,images/cb_graaf.png,0,,,,,,,,,,,,,,,,,,,,,,
,,,,,00108,2023-11-27_17h06.08.847,vbt_B1_day3,2022.2.4,MacIntel,60.0024001,,,,,,down,0,7.6757,,0.200387008,-0.023777488,1,0,0,0,93,93,165,1,feestdag,images/br_feestdag.png,images/cb_feestdag.png,0,,,,,,,,,,,,,,,,,,,,,,
,,,,,00108,2023-11-27_17h06.08.847,vbt_B1_day3,2022.2.4,MacIntel,60.0024001,,,,,,down,0,28.9915,,0.07463831,-0.080740017,1,0,0,0,94,94,51,1,samen,images/br_samen.png,images/cb_samen.png,0,,,,,,,,,,,,,,,,,,,,,,
,,,,,00108,2023-11-27_17h06.08.847,vbt_B1_day3,2022.2.4,MacIntel,60.0024001,,,,,,down,0,6.6907,,0.160850694,-0.016561777,1,0,0,0,95,95,179,1,woestijn,images/br_woestijn.png,images/cb_woestijn.png,0,,,,,,,,,,,,,,,,,,,,,,
,,,,,00108,2023-11-27_17h06.08.847,vbt_B1_day3,2022.2.4,MacIntel,60.0024001,,,,,,down,0,3.994,,0.242270689,-0.006756366,1,0,0,0,96,96,193,1,weeshuis,images/br_weeshuis.png,images/cb_weeshuis.png,0,,,,,,,,,,,,,,,,,,,,,,
,,,,,00108,2023-11-27_17h06.08.847,vbt_B1_day3,2022.2.4,MacIntel,60.0024001,,,,,,down,0,2.8133,,0.278475839,-0.008213976,1,0,0,0,97,97,163,1,schuilen,images/br_schuilen.png,images/cb_schuilen.png,0,,,,,,,,,,,,,,,,,,,,,,
,,,,,00108,2023-11-27_17h06.08.847,vbt_B1_day3,2022.2.4,MacIntel,60.0024001,,,,,,down,0,18.7285,,0.225643808,-0.022963686,1,0,0,0,98,98,145,1,invloed,images/br_invloed.png,images/cb_invloed.png,0,,,,,,,,,,,,,,,,,,,,,,
,,,,,00108,2023-11-27_17h06.08.847,vbt_B1_day3,2022.2.4,MacIntel,60.0024001,,,,,,down,0,2.6776,,0.225643808,-0.022963686,1,0,0,0,99,99,49,1,laken,images/br_laken.png,images/cb_laken.png,0,,,,,,,,,,,,,,,,,,,,,,
,,,,,00108,2023-11-27_17h06.08.847,vbt_B1_day3,2022.2.4,MacIntel,60.0024001,,,,,,down,0,2.1772,,0.110814525,-0.016887297,1,0,0,0,100,100,37,1,mijn,images/br_mijn.png,images/cb_mijn.png,0,,,,,,,,,,,,,,,,,,,,,,
,,,,,00108,2023-11-27_17h06.08.847,vbt_B1_day3,2022.2.4,MacIntel,60.0024001,,,,,,down,0,1.6033,,0.140943287,-0.016840278,1,0,0,0,101,101,50,1,stoom,images/br_stoom.png,images/cb_stoom.png,0,,,,,,,,,,,,,,,,,,,,,,
,,,,,00108,2023-11-27_17h06.08.847,vbt_B1_day3,2022.2.4,MacIntel,60.0024001,,,,,,down,0,19.9212,,0.043764468,-0.011848958,1,0,0,0,102,102,76,1,afval,images/br_afval.png,images/cb_afval.png,0,,,,,,,,,,,,,,,,,,,,,,
,,,,,00108,2023-11-27_17h06.08.847,vbt_B1_day3,2022.2.4,MacIntel,60.0024001,,,,,,down,0,3.5087,,0.109194155,0.016529225,1,0,0,0,103,103,42,1,bleek,images/br_bleek.png,images/cb_bleek.png,0,,,,,,,,,,,,,,,,,,,,,,
,,,,,00108,2023-11-27_17h06.08.847,vbt_B1_day3,2022.2.4,MacIntel,60.0024001,,,,,,down,0,12.7779,,0.146372251,0.014210793,1,0,0,0,104,104,118,1,vinger,images/br_vinger.png,images/cb_vinger.png,0,,,,,,,,,,,,,,,,,,,,,,
,,,,,00108,2023-11-27_17h06.08.847,vbt_B1_day3,2022.2.4,MacIntel,60.0024001,,,,,,down,0,6.368,,0.165570747,-0.012308304,1,0,0,0,105,105,66,1,lever,images/br_lever.png,images/cb_lever.png,0,,,,,,,,,,,,,,,,,,,,,,
,,,,,00108,2023-11-27_17h06.08.847,vbt_B1_day3,2022.2.4,MacIntel,60.0024001,,,,,,down,0,0.6201,,0.066843895,-0.017581742,1,0,0,0,106,106,84,1,lokken,images/br_lokken.png,images/cb_lokken.png,0,,,,,,,,,,,,,,,,,,,,,,
,,,,,00108,2023-11-27_17h06.08.847,vbt_B1_day3,2022.2.4,MacIntel,60.0024001,,,,,,down,0,3.9432,,0.066843895,-0.017581742,1,0,0,0,107,107,20,1,site,images/br_site.png,images/cb_site.png,1,site,,,,,,,,,,,,,,,,,,,,,
,,,,,00108,2023-11-27_17h06.08.847,vbt_B1_day3,2022.2.4,MacIntel,60.0024001,,,,,,down,0,7.1921,,0.007667824,-0.009667969,1,0,0,0,108,108,113,1,koppen,images/br_koppen.png,images/cb_koppen.png,0,,,,,,,,,,,,,,,,,,,,,,
,,,,,00108,2023-11-27_17h06.08.847,vbt_B1_day3,2022.2.4,MacIntel,60.0024001,,,,,,down,0,3.5051,,0.007667824,-0.009667969,1,0,0,0,109,109,2,1,jaar,images/br_jaar.png,images/cb_jaar.png,0,,,,,,,,,,,,,,,,,,,,,,
,,,,,00108,2023-11-27_17h06.08.847,vbt_B1_day3,2022.2.4,MacIntel,60.0024001,,,,,,down,0,2.1953,,0.022460938,-0.032465278,1,0,0,0,110,110,82,1,muziek,images/br_muziek.png,images/cb_muziek.png,0,,,,,,,,,,,,,,,,,,,,,,
,,,,,00108,2023-11-27_17h06.08.847,vbt_B1_day3,2022.2.4,MacIntel,60.0024001,,,,,,down,0,12.1649,,0.001938657,-0.054333044,1,0,0,0,111,111,168,1,bisschop,images/br_bisschop.png,images/cb_bisschop.png,0,,,,,,,,,,,,,,,,,,,,,,
,,,,,00108,2023-11-27_17h06.08.847,vbt_B1_day3,2022.2.4,MacIntel,60.0024001,,,,,,down,0,5.3536,,0.182906539,-0.005472367,1,0,0,0,112,112,160,1,daarheen,images/br_daarheen.png,images/cb_daarheen.png,0,,,,,,,,,,,,,,,,,,,,,,
,,,,,00108,2023-11-27_17h06.08.847,vbt_B1_day3,2022.2.4,MacIntel,60.0024001,,,,,,down,0,4.1548,,0.190071615,0.005815972,1,0,0,0,113,113,29,1,baas,images/br_baas.png,images/cb_baas.png,0,,,,,,,,,,,,,,,,,,,,,,
,,,,,00108,2023-11-27_17h06.08.847,vbt_B1_day3,2022.2.4,MacIntel,60.0024001,,,,,,down,0,115.4428,,0.04151114,0.006546586,1,0,0,0,114,114,30,1,uien,images/br_uien.png,images/cb_uien.png,0,,,,,,,,,,,,,,,,,,,,,,
,,,,,00108,2023-11-27_17h06.08.847,vbt_B1_day3,2022.2.4,MacIntel,60.0024001,,,,,,down,0,6.8548,,0.066937934,0.010658999,1,0,0,0,115,115,75,1,snoep,images/br_snoep.png,images/cb_snoep.png,0,,,,,,,,,,,,,,,,,,,,,,
,,,,,00108,2023-11-27_17h06.08.847,vbt_B1_day3,2022.2.4,MacIntel,60.0024001,,,,,,down,0,5.7704,,0.056723814,0.009248409,1,0,0,0,116,116,184,1,aandelen,images/br_aandelen.png,images/cb_aandelen.png,0,,,,,,,,,,,,,,,,,,,,,,
,,,,,00108,2023-11-27_17h06.08.847,vbt_B1_day3,2022.2.4,MacIntel,60.0024001,,,,,,down,0,10.3701,,-0.020062934,-0.015549045,1,0,0,0,117,117,73,1,volop,images/br_volop.png,images/cb_volop.png,0,,,,,,,,,,,,,,,,,,,,,,
,,,,,00108,2023-11-27_17h06.08.847,vbt_B1_day3,2022.2.4,MacIntel,60.0024001,,,,,,down,0,7.804,,-0.041908999,-0.008553964,1,0,0,0,118,118,14,1,rijp,images/br_rijp.png,images/cb_rijp.png,0,,,,,,,,,,,,,,,,,,,,,,
,,,,,00108,2023-11-27_17h06.08.847,vbt_B1_day3,2022.2.4,MacIntel,60.0024001,,,,,,down,0,3.9697,,-0.041908999,-0.008553964,1,0,0,0,119,119,141,1,knielen,images/br_knielen.png,images/cb_knielen.png,1,knielen,,,,,,,,,,,,,,,,,,,,,
,,,,,00108,2023-11-27_17h06.08.847,vbt_B1_day3,2022.2.4,MacIntel,60.0024001,,,,,,down,0,7.2445,,0.05141059,-0.006600839,1,0,0,0,120,120,15,1,soda,images/br_soda.png,images/cb_soda.png,0,,,,,,,,,,,,,,,,,,,,,,
,,,,,00108,2023-11-27_17h06.08.847,vbt_B1_day3,2022.2.4,MacIntel,60.0024001,,,,,,down,0,18.7384,,-0.11625434,-0.004752604,1,0,0,0,121,121,38,1,baai,images/br_baai.png,images/cb_baai.png,0,,,,,,,,,,,,,,,,,,,,,,
,,,,,00108,2023-11-27_17h06.08.847,vbt_B1_day3,2022.2.4,MacIntel,60.0024001,,,,,,down,0,5.8031,,0.093547454,0.002560764,1,0,0,0,122,122,189,1,aanraden,images/br_aanraden.png,images/cb_aanraden.png,0,,,,,,,,,,,,,,,,,,,,,,
,,,,,00108,2023-11-27_17h06.08.847,vbt_B1_day3,2022.2.4,MacIntel,60.0024001,,,,,,down,0,3.9783,,-0.014453125,-0.022804543,1,0,0,0,123,123,112,1,lukken,images/br_lukken.png,images/cb_lukken.png,0,,,,,,,,,,,,,,,,,,,,,,
,,,,,00108,2023-11-27_17h06.08.847,vbt_B1_day3,2022.2.4,MacIntel,60.0024001,,,,,,down,0,3.2538,,0.027105035,-0.003512008,1,0,0,0,124,124,52,1,wagon,images/br_wagon.png,images/cb_wagon.png,0,,,,,,,,,,,,,,,,,,,,,,
,,,,,00108,2023-11-27_17h06.08.847,vbt_B1_day3,2022.2.4,MacIntel,60.0024001,,,,,,down,0,4.7199,,0.085839844,0.013693576,1,0,0,0,125,125,56,1,traag,images/br_traag.png,images/cb_traag.png,0,,,,,,,,,,,,,,,,,,,,,,
,,,,,00108,2023-11-27_17h06.08.847,vbt_B1_day3,2022.2.4,MacIntel,60.0024001,,,,,,down,0,5.8009,,0.059110966,-0.012297454,1,0,0,0,126,126,123,1,hiervan,images/br_hiervan.png,images/cb_hiervan.png,0,,,,,,,,,,,,,,,,,,,,,,
,,,,,00108,2023-11-27_17h06.08.847,vbt_B1_day3,2022.2.4,MacIntel,60.0024001,,,,,,down,0,7.0925,,0.156398293,-0.044563802,1,0,0,0,127,127,135,1,gedicht,images/br_gedicht.png,images/cb_gedicht.png,0,,,,,,,,,,,,,,,,,,,,,,
,,,,,00108,2023-11-27_17h06.08.847,vbt_B1_day3,2022.2.4,MacIntel,60.0024001,,,,,,down,0,4.7691,,0.156398293,-0.044563802,1,0,0,0,128,128,181,1,toegeven,images/br_toegeven.png,images/cb_toegeven.png,1,toegeven,,,,,,,,,,,,,,,,,,,,,
,,,,,00108,2023-11-27_17h06.08.847,vbt_B1_day3,2022.2.4,MacIntel,60.0024001,,,,,,down,0,23.5937,,0.152846499,-0.013299334,1,0,0,0,129,129,108,1,excuus,images/br_excuus.png,images/cb_excuus.png,0,,,,,,,,,,,,,,,,,,,,,,
,,,,,00108,2023-11-27_17h06.08.847,vbt_B1_day3,2022.2.4,MacIntel,60.0024001,,,,,,down,0,62.0997,,-0.063154659,-0.010897714,1,0,0,0,130,130,167,1,eenhoorn,images/br_eenhoorn.png,images/cb_eenhoorn.png,0,,,,,,,,,,,,,,,,,,,,,,
,,,,,00108,2023-11-27_17h06.08.847,vbt_B1_day3,2022.2.4,MacIntel,60.0024001,,,,,,down,0,4.6087,,0.222139034,-0.027300347,1,0,0,0,131,131,194,1,driemaal,images/br_driemaal.png,images/cb_driemaal.png,0,,,,,,,,,,,,,,,,,,,,,,
,,,,,00108,2023-11-27_17h06.08.847,vbt_B1_day3,2022.2.4,MacIntel,60.0024001,,,,,,down,0,13.5409,,-0.097576678,-0.00219184,1,0,0,0,132,132,27,1,dans,images/br_dans.png,images/cb_dans.png,0,,,,,,,,,,,,,,,,,,,,,,
,,,,,00108,2023-11-27_17h06.08.847,vbt_B1_day3,2022.2.4,MacIntel,60.0024001,,,,,,down,0,7.0864,,-0.097576678,-0.00219184,1,0,0,0,133,133,23,1,zout,images/br_zout.png,images/cb_zout.png,1,zoet,,,,,,,,,,,,,,,,,,,,,
,,,,,00108,2023-11-27_17h06.08.847,vbt_B1_day3,2022.2.4,MacIntel,60.0024001,,,,,,down,0,6.1716,,0.055671296,-0.021317998,1,0,0,0,134,134,72,1,strak,images/br_strak.png,images/cb_strak.png,0,,,,,,,,,,,,,,,,,,,,,,
,,,,,00108,2023-11-27_17h06.08.847,vbt_B1_day3,2022.2.4,MacIntel,60.0024001,,,,,,down,0,4.9602,,-0.050155527,-0.011505353,1,0,0,0,135,135,87,1,toeval,images/br_toeval.png,images/cb_toeval.png,0,,,,,,,,,,,,,,,,,,,,,,
,,,,,00108,2023-11-27_17h06.08.847,vbt_B1_day3,2022.2.4,MacIntel,60.0024001,,,,,,down,0,15.2216,,-0.121708623,0.006589988,1,0,0,0,136,136,77,1,woede,images/br_woede.png,images/cb_woede.png,0,,,,,,,,,,,,,,,,,,,,,,
,,,,,00108,2023-11-27_17h06.08.847,vbt_B1_day3,2022.2.4,MacIntel,60.0024001,,,,,,down,0,3.4282,,0.004879196,-0.010868779,1,0,0,0,137,137,11,1,mode,images/br_mode.png,images/cb_mode.png,0,,,,,,,,,,,,,,,,,,,,,,
,,,,,00108,2023-11-27_17h06.08.847,vbt_B1_day3,2022.2.4,MacIntel,60.0024001,,,,,,down,0,6.1245,,-0.012069589,-0.021582031,1,0,0,0,138,138,28,1,stal,images/br_stal.png,images/cb_stal.png,0,,,,,,,,,,,,,,,,,,,,,,
,,,,,00108,2023-11-27_17h06.08.847,vbt_B1_day3,2022.2.4,MacIntel,60.0024001,,,,,,down,0,7.2387,,0.049909578,-0.004239005,1,0,0,0,139,139,152,1,afnemen,images/br_afnemen.png,images/cb_afnemen.png,0,,,,,,,,,,,,,,,,,,,,,,
,,,,,00108,2023-11-27_17h06.08.847,vbt_B1_day3,2022.2.4,MacIntel,60.0024001,,,,,,down,0,3.1981,,-0.169527633,-0.001128472,1,0,0,0,140,140,71,1,bever,images/br_bever.png,images/cb_bever.png,0,,,,,,,,,,,,,,,,,,,,,,
,,,,,00108,2023-11-27_17h06.08.847,vbt_B1_day3,2022.2.4,MacIntel,60.0024001,,,,,,down,0,21.7294,,0.011697049,-0.030696615,1,0,0,0,141,141,137,1,trekker,images/br_trekker.png,images/cb_trekker.png,0,,,,,,,,,,,,,,,,,,,,,,
,,,,,00108,2023-11-27_17h06.08.847,vbt_B1_day3,2022.2.4,MacIntel,60.0024001,,,,,,down,0,4.6265,,0.011697049,-0.030696615,1,0,0,0,142,142,101,1,staren,images/br_staren.png,images/cb_staren.png,1,staren,,,,,,,,,,,,,,,,,,,,,
,,,,,00108,2023-11-27_17h06.08.847,vbt_B1_day3,2022.2.4,MacIntel,60.0024001,,,,,,down,0,17.9033,,-0.033098235,-0.023593027,1,0,0,0,143,143,130,1,keihard,images/br_keihard.png,images/cb_keihard.png,0,,,,,,,,,,,,,,,,,,,,,,
,,,,,00108,2023-11-27_17h06.08.847,vbt_B1_day3,2022.2.4,MacIntel,60.0024001,,,,,,down,0,9.4742,,0.023593027,-0.010601128,1,0,0,0,144,144,60,1,jasje,images/br_jasje.png,images/cb_jasje.png,1,,,,,,,,,,,,,,,,,,,,,,
,,,,,00108,2023-11-27_17h06.08.847,vbt_B1_day3,2022.2.4,MacIntel,60.0024001,,,,,,down,0,4.233,,0.050788484,-0.018467882,1,0,0,0,145,145,128,1,prikken,images/br_prikken.png,images/cb_prikken.png,0,,,,,,,,,,,,,,,,,,,,,,
,,,,,00108,2023-11-27_17h06.08.847,vbt_B1_day3,2022.2.4,MacIntel,60.0024001,,,,,,down,0,1.4071,,0.051251447,-0.018467882,1,0,0,0,146,146,5,1,blad,images/br_blad.png,images/cb_blad.png,0,,,,,,,,,,,,,,,,,,,,,,
,,,,,00108,2023-11-27_17h06.08.847,vbt_B1_day3,2022.2.4,MacIntel,60.0024001,,,,,,down,0,4.4712,,0.032479745,-0.003421586,1,0,0,0,147,147,67,1,zwart,images/br_zwart.png,images/cb_zwart.png,0,,,,,,,,,,,,,,,,,,,,,,
,,,,,00108,2023-11-27_17h06.08.847,vbt_B1_day3,2022.2.4,MacIntel,60.0024001,,,,,,down,0,10.387,,0.118522135,0.011932147,1,0,0,0,148,148,191,1,opheffen,images/br_opheffen.png,images/cb_opheffen.png,0,,,,,,,,,,,,,,,,,,,,,,
,,,,,00108,2023-11-27_17h06.08.847,vbt_B1_day3,2022.2.4,MacIntel,60.0024001,,,,,,down,0,8.2951,,-0.073115596,-0.023198785,1,0,0,0,149,149,120,1,klimmen,images/br_klimmen.png,images/cb_klimmen.png,0,,,,,,,,,,,,,,,,,,,,,,
,,,,,00108,2023-11-27_17h06.08.847,vbt_B1_day3,2022.2.4,MacIntel,60.0024001,,,,,,down,0,7.7037,,0.128396267,0.000141059,1,0,0,0,150,150,131,1,opzicht,images/br_opzicht.png,images/cb_opzicht.png,0,,,,,,,,,,,,,,,,,,,,,,
,,,,,00108,2023-11-27_17h06.08.847,vbt_B1_day3,2022.2.4,MacIntel,60.0024001,,,,,,down,0,3.9708,,-0.138364439,0.000752315,1,0,0,0,151,151,149,1,redding,images/br_redding.png,images/cb_redding.png,0,,,,,,,,,,,,,,,,,,,,,,
,,,,,00108,2023-11-27_17h06.08.847,vbt_B1_day3,2022.2.4,MacIntel,60.0024001,,,,,,down,0,4.906,,-0.138364439,0.000752315,1,0,0,0,152,152,61,1,groen,images/br_groen.png,images/cb_groen.png,1,groen,,,,,,,,,,,,,,,,,,,,,
,,,,,00108,2023-11-27_17h06.08.847,vbt_B1_day3,2022.2.4,MacIntel,60.0024001,,,,,,down,0,9.4262,,-0.138364439,0.000752315,1,0,0,0,153,153,142,1,snuiven,images/br_snuiven.png,images/cb_snuiven.png,1,snuuiven,,,,,,,,,,,,,,,,,,,,,
,,,,,00108,2023-11-27_17h06.08.847,vbt_B1_day3,2022.2.4,MacIntel,60.0024001,,,,,,down,0,5.5564,,0.086628328,0.008373119,1,0,0,0,154,154,92,1,geheim,images/br_geheim.png,images/cb_geheim.png,0,,,,,,,,,,,,,,,,,,,,,,
,,,,,00108,2023-11-27_17h06.08.847,vbt_B1_day3,2022.2.4,MacIntel,60.0024001,,,,,,down,0,5.0947,,0.163465712,0.003360098,1,0,0,0,155,155,175,1,heengaan,images/br_heengaan.png,images/cb_heengaan.png,0,,,,,,,,,,,,,,,,,,,,,,
,,,,,00108,2023-11-27_17h06.08.847,vbt_B1_day3,2022.2.4,MacIntel,60.0024001,,,,,,down,0,8.0381,,-0.020728443,-0.010282841,1,0,0,0,156,156,79,1,nodig,images/br_nodig.png,images/cb_nodig.png,0,,,,,,,,,,,,,,,,,,,,,,
,,,,,00108,2023-11-27_17h06.08.847,vbt_B1_day3,2022.2.4,MacIntel,60.0024001,,,,,,down,0,10.1947,,0.004040075,-0.026826534,1,0,0,0,157,157,110,1,zuster,images/br_zuster.png,images/cb_zuster.png,0,,,,,,,,,,,,,,,,,,,,,,
,,,,,00108,2023-11-27_17h06.08.847,vbt_B1_day3,2022.2.4,MacIntel,60.0024001,,,,,,down,0,5.0366,,0.154669416,-0.052933304,1,0,0,0,158,158,81,1,dubbel,images/br_dubbel.png,images/cb_dubbel.png,0,,,,,,,,,,,,,,,,,,,,,,
,,,,,00108,2023-11-27_17h06.08.847,vbt_B1_day3,2022.2.4,MacIntel,60.0024001,,,,,,down,0,9.4513,,-0.013017216,-0.010604745,1,0,0,0,159,159,109,1,totaal,images/br_totaal.png,images/cb_totaal.png,0,,,,,,,,,,,,,,,,,,,,,,
,,,,,00108,2023-11-27_17h06.08.847,vbt_B1_day3,2022.2.4,MacIntel,60.0024001,,,,,,down,0,2.7701,,-0.11197555,-0.017259838,1,0,0,0,160,160,47,1,kabel,images/br_kabel.png,images/cb_kabel.png,0,,,,,,,,,,,,,,,,,,,,,,
,,,,,00108,2023-11-27_17h06.08.847,vbt_B1_day3,2022.2.4,MacIntel,60.0024001,,,,,,down,0,76.2063,,-0.11197555,-0.017259838,1,0,0,0,161,161,121,1,twijfel,images/br_twijfel.png,images/cb_twijfel.png,0,,,,,,,,,,,,,,,,,,,,,,
,,,,,00108,2023-11-27_17h06.08.847,vbt_B1_day3,2022.2.4,MacIntel,60.0024001,,,,,,down,0,2.6359,,-0.11197555,-0.017259838,1,0,0,0,162,162,25,1,plek,images/br_plek.png,images/cb_plek.png,0,,,,,,,,,,,,,,,,,,,,,,
,,,,,00108,2023-11-27_17h06.08.847,vbt_B1_day3,2022.2.4,MacIntel,60.0024001,,,,,,down,0,2.2533,,-0.11197555,-0.017259838,1,0,0,0,163,163,46,1,jagen,images/br_jagen.png,images/cb_jagen.png,0,,,,,,,,,,,,,,,,,,,,,,
,,,,,00108,2023-11-27_17h06.08.847,vbt_B1_day3,2022.2.4,MacIntel,60.0024001,,,,,,down,0,9.2357,,-0.11197555,-0.017259838,1,0,0,0,164,164,164,1,anarchie,images/br_anarchie.png,images/cb_anarchie.png,0,,,,,,,,,,,,,,,,,,,,,,
,,,,,00108,2023-11-27_17h06.08.847,vbt_B1_day3,2022.2.4,MacIntel,60.0024001,,,,,,down,0,5.919,,-0.11197555,-0.017259838,1,0,0,0,165,165,55,1,praat,images/br_praat.png,images/cb_praat.png,0,,,,,,,,,,,,,,,,,,,,,,
,,,,,00108,2023-11-27_17h06.08.847,vbt_B1_day3,2022.2.4,MacIntel,60.0024001,,,,,,down,0,5.3275,,-0.11197555,-0.017259838,1,0,0,0,166,166,24,1,jurk,images/br_jurk.png,images/cb_jurk.png,0,,,,,,,,,,,,,,,,,,,,,,
,,,,,00108,2023-11-27_17h06.08.847,vbt_B1_day3,2022.2.4,MacIntel,60.0024001,,,,,,down,0,3.0229,,-0.11197555,-0.017259838,1,0,0,0,167,167,93,1,waarop,images/br_waarop.png,images/cb_waarop.png,0,,,,,,,,,,,,,,,,,,,,,,
,,,,,00108,2023-11-27_17h06.08.847,vbt_B1_day3,2022.2.4,MacIntel,60.0024001,,,,,,down,0,14.24,,-0.11197555,-0.017259838,1,0,0,0,168,168,170,1,schatten,images/br_schatten.png,images/cb_schatten.png,0,,,,,,,,,,,,,,,,,,,,,,
,,,,,00108,2023-11-27_17h06.08.847,vbt_B1_day3,2022.2.4,MacIntel,60.0024001,,,,,,down,0,8.3196,,-0.11197555,-0.017259838,1,0,0,0,169,169,127,1,doodmoe,images/br_doodmoe.png,images/cb_doodmoe.png,0,,,,,,,,,,,,,,,,,,,,,,
,,,,,00108,2023-11-27_17h06.08.847,vbt_B1_day3,2022.2.4,MacIntel,60.0024001,,,,,,down,0,4.3524,,-0.11197555,-0.017259838,1,0,0,0,170,170,169,1,oprotten,images/br_oprotten.png,images/cb_oprotten.png,0,,,,,,,,,,,,,,,,,,,,,,
,,,,,00108,2023-11-27_17h06.08.847,vbt_B1_day3,2022.2.4,MacIntel,60.0024001,,,,,,down,0,1.8866,,-0.11197555,-0.017259838,1,0,0,0,171,171,13,1,kaal,images/br_kaal.png,images/cb_kaal.png,0,,,,,,,,,,,,,,,,,,,,,,
,,,,,00108,2023-11-27_17h06.08.847,vbt_B1_day3,2022.2.4,MacIntel,60.0024001,,,,,,down,0,139.749,,-0.11197555,-0.015458623,1,0,0,0,172,172,186,1,voorraad,images/br_voorraad.png,images/cb_voorraad.png,0,,,,,,,,,,,,,,,,,,,,,,
,,,,,00108,2023-11-27_17h06.08.847,vbt_B1_day3,2022.2.4,MacIntel,60.0024001,,,,,,down,0,1.4526,,-0.11197555,-0.015458623,1,0,0,0,173,173,7,1,geld,images/br_geld.png,images/cb_geld.png,0,,,,,,,,,,,,,,,,,,,,,,
,,,,,00108,2023-11-27_17h06.08.847,vbt_B1_day3,2022.2.4,MacIntel,60.0024001,,,,,,down,0,5.4128,,-0.166496672,-0.116659433,1,0,0,0,174,174,100,1,geduld,images/br_geduld.png,images/cb_geduld.png,1,geduld,,,,,,,,,,,,,,,,,,,,,
,,,,,00108,2023-11-27_17h06.08.847,vbt_B1_day3,2022.2.4,MacIntel,60.0024001,,,,,,down,0,3.104,,-0.166496672,-0.116659433,1,0,0,0,175,175,171,1,aarzelen,images/br_aarzelen.png,images/cb_aarzelen.png,0,,,,,,,,,,,,,,,,,,,,,,
,,,,,00108,2023-11-27_17h06.08.847,vbt_B1_day3,2022.2.4,MacIntel,60.0024001,,,,,,down,0,2.9953,,-0.166496672,-0.116659433,1,0,0,0,176,176,32,1,palm,images/br_palm.png,images/cb_palm.png,0,,,,,,,,,,,,,,,,,,,,,,
,,,,,00108,2023-11-27_17h06.08.847,vbt_B1_day3,2022.2.4,MacIntel,60.0024001,,,,,,down,0,12.1526,,-0.13129702,-0.024490017,1,0,0,0,177,177,150,1,gegeven,images/br_gegeven.png,images/cb_gegeven.png,0,,,,,,,,,,,,,,,,,,,,,,
,,,,,00108,2023-11-27_17h06.08.847,vbt_B1_day3,2022.2.4,MacIntel,60.0024001,,,,,,down,0,16.0714,,0.027759693,-0.010489005,1,0,0,0,178,178,139,1,stiekem,images/br_stiekem.png,images/cb_stiekem.png,0,,,,,,,,,,,,,,,,,,,,,,
,,,,,00108,2023-11-27_17h06.08.847,vbt_B1_day3,2022.2.4,MacIntel,60.0024001,,,,,,down,0,47.6064,,0.092093461,-0.018229167,1,0,0,0,179,179,185,1,mijnheer,images/br_mijnheer.png,images/cb_mijnheer.png,0,,,,,,,,,,,,,,,,,,,,,,
,,,,,00108,2023-11-27_17h06.08.847,vbt_B1_day3,2022.2.4,MacIntel,60.0024001,,,,,,down,0,4.5186,,-0.014941406,0.003280527,1,0,0,0,180,180,107,1,maling,images/br_maling.png,images/cb_maling.png,0,,,,,,,,,,,,,,,,,,,,,,
,,,,,00108,2023-11-27_17h06.08.847,vbt_B1_day3,2022.2.4,MacIntel,60.0024001,,,,,,down,0,22.5551,,0.082382089,-0.009751157,1,0,0,0,181,181,147,1,komisch,images/br_komisch.png,images/cb_komisch.png,0,,,,,,,,,,,,,,,,,,,,,,
,,,,,00108,2023-11-27_17h06.08.847,vbt_B1_day3,2022.2.4,MacIntel,60.0024001,,,,,,down,0,9.4336,,0.047565828,-0.008051215,1,0,0,0,182,182,44,1,flits,images/br_flits.png,images/cb_flits.png,0,,,,,,,,,,,,,,,,,,,,,,
,,,,,00108,2023-11-27_17h06.08.847,vbt_B1_day3,2022.2.4,MacIntel,60.0024001,,,,,,down,0,1.9926,,0.041330295,0.00510706,1,0,0,0,183,183,9,1,hier,images/br_hier.png,images/cb_hier.png,0,,,,,,,,,,,,,,,,,,,,,,
,,,,,00108,2023-11-27_17h06.08.847,vbt_B1_day3,2022.2.4,MacIntel,60.0024001,,,,,,down,0,5.3878,,-0.018478733,-0.009960937,1,0,0,0,184,184,133,1,seizoen,images/br_seizoen.png,images/cb_seizoen.png,0,,,,,,,,,,,,,,,,,,,,,,
,,,,,00108,2023-11-27_17h06.08.847,vbt_B1_day3,2022.2.4,MacIntel,60.0024001,,,,,,down,0,101.8253,,-0.036588542,-0.008496094,1,0,0,0,185,185,188,1,strekken,images/br_strekken.png,images/cb_strekken.png,0,,,,,,,,,,,,,,,,,,,,,,
,,,,,00108,2023-11-27_17h06.08.847,vbt_B1_day3,2022.2.4,MacIntel,60.0024001,,,,,,down,0,3.4854,,-0.015295862,-0.02520978,1,0,0,0,186,186,98,1,kreeft,images/br_kreeft.png,images/cb_kreeft.png,0,,,,,,,,,,,,,,,,,,,,,,
,,,,,00108,2023-11-27_17h06.08.847,vbt_B1_day3,2022.2.4,MacIntel,60.0024001,,,,,,down,0,3.4205,,-0.015295862,-0.02520978,1,0,0,0,187,187,90,1,geluid,images/br_geluid.png,images/cb_geluid.png,0,,,,,,,,,,,,,,,,,,,,,,
,,,,,00108,2023-11-27_17h06.08.847,vbt_B1_day3,2022.2.4,MacIntel,60.0024001,,,,,,down,0,6.8209,,0.084884983,-0.011595775,1,0,0,0,188,188,129,1,verhaal,images/br_verhaal.png,images/cb_verhaal.png,0,,,,,,,,,,,,,,,,,,,,,,
,,,,,00108,2023-11-27_17h06.08.847,vbt_B1_day3,2022.2.4,MacIntel,60.0024001,,,,,,down,0,12.1257,,-0.027803096,-0.012695313,1,0,0,0,189,189,89,1,slapen,images/br_slapen.png,images/cb_slapen.png,0,,,,,,,,,,,,,,,,,,,,,,
,,,,,00108,2023-11-27_17h06.08.847,vbt_B1_day3,2022.2.4,MacIntel,60.0024001,,,,,,down,0,21.1298,,0.032548466,0.011841725,1,0,0,0,190,190,136,1,waarbij,images/br_waarbij.png,images/cb_waarbij.png,0,,,,,,,,,,,,,,,,,,,,,,
,,,,,00108,2023-11-27_17h06.08.847,vbt_B1_day3,2022.2.4,MacIntel,60.0024001,,,,,,down,0,5.487,,-0.001124855,-0.00932798,1,0,0,0,191,191,45,1,piste,images/br_piste.png,images/cb_piste.png,0,,,,,,,,,,,,,,,,,,,,,,
,,,,,00108,2023-11-27_17h06.08.847,vbt_B1_day3,2022.2.4,MacIntel,60.0024001,,,,,,down,0,6.1532,,0.121180556,-0.005342159,1,0,0,0,192,192,197,1,spanning,images/br_spanning.png,images/cb_spanning.png,0,,,,,,,,,,,,,,,,,,,,,,
,,,,,00108,2023-11-27_17h06.08.847,vbt_B1_day3,2022.2.4,MacIntel,60.0024001,,,,,,down,0,4.9522,,0.035854311,-0.001222512,1,0,0,0,193,193,53,1,baron,images/br_baron.png,images/cb_baron.png,0,,,,,,,,,,,,,,,,,,,,,,
,,,,,00108,2023-11-27_17h06.08.847,vbt_B1_day3,2022.2.4,MacIntel,60.0024001,,,,,,down,0,5.0023,,0.136964699,-0.000274884,1,0,0,0,194,194,86,1,woning,images/br_woning.png,images/cb_woning.png,0,,,,,,,,,,,,,,,,,,,,,,
,,,,,00108,2023-11-27_17h06.08.847,vbt_B1_day3,2022.2.4,MacIntel,60.0024001,,,,,,down,0,4.6555,,0.001808449,-0.003927951,1,0,0,0,195,195,105,1,wijlen,images/br_wijlen.png,images/cb_wijlen.png,0,,,,,,,,,,,,,,,,,,,,,,
,,,,,00108,2023-11-27_17h06.08.847,vbt_B1_day3,2022.2.4,MacIntel,60.0024001,,,,,,down,0,4.179,,0.130841291,-0.016684751,1,0,0,0,196,196,151,1,aanzoek,images/br_aanzoek.png,images/cb_aanzoek.png,0,,,,,,,,,,,,,,,,,,,,,,
,,,,,00108,2023-11-27_17h06.08.847,vbt_B1_day3,2022.2.4,MacIntel,60.0024001,,,,,,down,0,5.2376,,-0.022710503,0.006257234,1,0,0,0,197,197,195,1,middelen,images/br_middelen.png,images/cb_middelen.png,0,,,,,,,,,,,,,,,,,,,,,,
,,,,,00108,2023-11-27_17h06.08.847,vbt_B1_day3,2022.2.4,MacIntel,60.0024001,,,,,,down,0,5.9211,,0.028313079,0.029564525,1,0,0,0,198,198,70,1,ijdel,images/br_ijdel.png,images/cb_ijdel.png,0,,,,,,,,,,,,,,,,,,,,,,
,,,,,00108,2023-11-27_17h06.08.847,vbt_B1_day3,2022.2.4,MacIntel,60.0024001,,,,,,down,0,11.0885,,0.028313079,0.029101563,1,0,0,0,199,199,63,1,flirt,images/br_flirt.png,images/cb_flirt.png,1,flitsflirt,,,,,,,,,,,,,,,,,,,,,
,,,,,00108,2023-11-27_17h06.08.847,vbt_B1_day3,2022.2.4,MacIntel,60.0024001,,,,,,,,,,,,,,,,,,,,,,,,,-0.085130932,-0.055418113,1,0,0,,,,,,,,,,,,,,,,
,,,,,00108,2023-11-27_17h06.08.847,vbt_B1_day3,2022.2.4,MacIntel,60.0024001,,,,,,,,,,,,,,,,,,,,,,,,,,,,,,-0.085130932,-0.055418113,1,0,0,,,,,,,,,,,
,,,,,00108,2023-11-27_17h06.08.847,vbt_B1_day3,2022.2.4,MacIntel,60.0024001,,,,,,,,,,,,,,,,,,,,leugeren,images/br_leugeren.png,images/cb_leugeren.png,,leugen,,,,,,,,,,,0.04233941,-0.036603009,1,0,0,leugen,0,0,0,37,1
,,,,,00108,2023-11-27_17h06.08.847,vbt_B1_day3,2022.2.4,MacIntel,60.0024001,,,,,,,,,,,,,,,,,,,,oprotten,images/br_oprotten.png,images/cb_oprotten.png,,oprotten,,,,,,,,,,,0.134895833,-0.054575376,1,0,0,oprotten,0,1,1,17,1
,,,,,00108,2023-11-27_17h06.08.847,vbt_B1_day3,2022.2.4,MacIntel,60.0024001,,,,,,,,,,,,,,,,,,,,jongelui,images/br_jongelui.png,images/cb_jongelui.png,,jongen,,,,,,,,,,,-0.02098886,0.0833261,1,0,0,jongen,0,2,2,59,1
,,,,,00108,2023-11-27_17h06.08.847,vbt_B1_day3,2022.2.4,MacIntel,60.0024001,,,,,,,,,,,,,,,,,,,,vlager,images/br_vlager.png,images/cb_vlager.png,,vlager,,,,,,,,,,,-0.042400897,0.111588542,1,0,0,vlager,0,3,3,28,1
,,,,,00108,2023-11-27_17h06.08.847,vbt_B1_day3,2022.2.4,MacIntel,60.0024001,,,,,,,,,,,,,,,,,,,,verhaal,images/br_verhaal.png,images/cb_verhaal.png,,verhaal,,,,,,,,,,,0.047497106,0.084338831,1,0,0,verhaal,0,4,4,13,1
,,,,,00108,2023-11-27_17h06.08.847,vbt_B1_day3,2022.2.4,MacIntel,60.0024001,,,,,,,,,,,,,,,,,,,,glijden,images/br_glijden.png,images/cb_glijden.png,,gelijden,,,,,,,,,,,0.13692853,0.00099103,1,0,0,gelijden,0,5,5,53,1
,,,,,00108,2023-11-27_17h06.08.847,vbt_B1_day3,2022.2.4,MacIntel,60.0024001,,,,,,,,,,,,,,,,,,,,opzetten,images/br_opzetten.png,images/cb_opzetten.png,,opzit,,,,,,,,,,,0.081485098,0.066507523,1,0,0,opzit,0,6,6,56,1
,,,,,00108,2023-11-27_17h06.08.847,vbt_B1_day3,2022.2.4,MacIntel,60.0024001,,,,,,,,,,,,,,,,,,,,samen,images/br_samen.png,images/cb_samen.png,,samen,,,,,,,,,,,0.107121672,-0.033474392,1,0,0,samen,0,7,7,7,1
,,,,,00108,2023-11-27_17h06.08.847,vbt_B1_day3,2022.2.4,MacIntel,60.0024001,,,,,,,,,,,,,,,,,,,,sultan,images/br_sultan.png,images/cb_sultan.png,,sultam,,,,,,,,,,,0.100813802,0.050025318,1,0,0,sultam,0,8,8,49,1
,,,,,00108,2023-11-27_17h06.08.847,vbt_B1_day3,2022.2.4,MacIntel,60.0024001,,,,,,,,,,,,,,,,,,,,kaas,images/br_kaas.png,images/cb_kaas.png,,kaas,,,,,,,,,,,0.016858362,-0.00380136,1,0,0,kaas,0,9,9,42,1
,,,,,00108,2023-11-27_17h06.08.847,vbt_B1_day3,2022.2.4,MacIntel,60.0024001,,,,,,,,,,,,,,,,,,,,kest,images/br_kest.png,images/cb_kest.png,,kest,,,,,,,,,,,0.101117622,0.044382957,1,0,0,kest,0,10,10,21,1
,,,,,00108,2023-11-27_17h06.08.847,vbt_B1_day3,2022.2.4,MacIntel,60.0024001,,,,,,,,,,,,,,,,,,,,hust,images/br_hust.png,images/cb_hust.png,,hust,,,,,,,,,,,0.088765914,-0.032465278,1,0,0,hust,0,11,11,23,1
,,,,,00108,2023-11-27_17h06.08.847,vbt_B1_day3,2022.2.4,MacIntel,60.0024001,,,,,,,,,,,,,,,,,,,,verwoor,images/br_verwoor.png,images/cb_verwoor.png,,verraad,,,,,,,,,,,0.030957031,-0.016623264,1,0,0,verraad,0,12,12,32,1
,,,,,00108,2023-11-27_17h06.08.847,vbt_B1_day3,2022.2.4,MacIntel,60.0024001,,,,,,,,,,,,,,,,,,,,zone,images/br_zone.png,images/cb_zone.png,,zone,,,,,,,,,,,0.157581019,-0.023795573,1,0,0,zone,0,13,13,41,1
,,,,,00108,2023-11-27_17h06.08.847,vbt_B1_day3,2022.2.4,MacIntel,60.0024001,,,,,,,,,,,,,,,,,,,,eens,images/br_eens.png,images/cb_eens.png,,eens,,,,,,,,,,,0.157581019,-0.023795573,1,0,0,eens,0,14,14,40,1
,,,,,00108,2023-11-27_17h06.08.847,vbt_B1_day3,2022.2.4,MacIntel,60.0024001,,,,,,,,,,,,,,,,,,,,sluier,images/br_sluier.png,images/cb_sluier.png,,sluier,,,,,,,,,,,0.157581019,-0.023795573,1,0,0,sluier,0,15,15,50,1
,,,,,00108,2023-11-27_17h06.08.847,vbt_B1_day3,2022.2.4,MacIntel,60.0024001,,,,,,,,,,,,,,,,,,,,uniek,images/br_uniek.png,images/cb_uniek.png,,uniek,,,,,,,,,,,0.157581019,-0.023795573,1,0,0,uniek,0,16,16,46,1
,,,,,00108,2023-11-27_17h06.08.847,vbt_B1_day3,2022.2.4,MacIntel,60.0024001,,,,,,,,,,,,,,,,,,,,keihard,images/br_keihard.png,images/cb_keihard.png,,keihard,,,,,,,,,,,0.250868056,0.015024595,1,0,0,keihard,0,17,17,14,1
,,,,,00108,2023-11-27_17h06.08.847,vbt_B1_day3,2022.2.4,MacIntel,60.0024001,,,,,,,,,,,,,,,,,,,,afbopen,images/br_afbopen.png,images/cb_afbopen.png,,afc,,,,,,,,,,,0.13598452,0.045808015,1,0,0,afc,0,18,18,34,1
,,,,,00108,2023-11-27_17h06.08.847,vbt_B1_day3,2022.2.4,MacIntel,60.0024001,,,,,,,,,,,,,,,,,,,,begrip,images/br_begrip.png,images/cb_begrip.png,,begrip,,,,,,,,,,,0.149254919,-0.005425347,1,0,0,begrip,0,19,19,48,1
,,,,,00108,2023-11-27_17h06.08.847,vbt_B1_day3,2022.2.4,MacIntel,60.0024001,,,,,,,,,,,,,,,,,,,,gebod,images/br_gebod.png,images/cb_gebod.png,,gebod,,,,,,,,,,,0.135709635,-0.049840856,1,0,0,gebod,0,20,20,45,1
,,,,,00108,2023-11-27_17h06.08.847,vbt_B1_day3,2022.2.4,MacIntel,60.0024001,,,,,,,,,,,,,,,,,,,,verraden,images/br_verraden.png,images/cb_verraden.png,,verraad,,,,,,,,,,,0.046477141,0.011592159,1,0,0,verraad,0,21,21,58,1
,,,,,00108,2023-11-27_17h06.08.847,vbt_B1_day3,2022.2.4,MacIntel,60.0024001,,,,,,,,,,,,,,,,,,,,kwaas,images/br_kwaas.png,images/cb_kwaas.png,,kwaas,,,,,,,,,,,0.02364728,-0.033308015,1,0,0,kwaas,0,22,22,26,1
,,,,,00108,2023-11-27_17h06.08.847,vbt_B1_day3,2022.2.4,MacIntel,60.0024001,,,,,,,,,,,,,,,,,,,,stallen,images/br_stallen.png,images/cb_stallen.png,,stallen,,,,,,,,,,,0.140002894,-0.019690394,1,0,0,stallen,0,23,23,52,1
,,,,,00108,2023-11-27_17h06.08.847,vbt_B1_day3,2022.2.4,MacIntel,60.0024001,,,,,,,,,,,,,,,,,,,,brappen,images/br_brappen.png,images/cb_brappen.png,,brappen,,,,,,,,,,,0.197978154,0.034396701,1,0,0,brappen,0,24,24,35,1
,,,,,00108,2023-11-27_17h06.08.847,vbt_B1_day3,2022.2.4,MacIntel,60.0024001,,,,,,,,,,,,,,,,,,,,mugeek,images/br_mugeek.png,images/cb_mugeek.png,,mugeek,,,,,,,,,,,0.197978154,0.034396701,1,0,0,mugeek,0,25,25,29,1
,,,,,00108,2023-11-27_17h06.08.847,vbt_B1_day3,2022.2.4,MacIntel,60.0024001,,,,,,,,,,,,,,,,,,,,leek,images/br_leek.png,images/cb_leek.png,,leek,,,,,,,,,,,0.197978154,0.034396701,1,0,0,leek,0,26,26,2,1
,,,,,00108,2023-11-27_17h06.08.847,vbt_B1_day3,2022.2.4,MacIntel,60.0024001,,,,,,,,,,,,,,,,,,,,laken,images/br_laken.png,images/cb_laken.png,,laken,,,,,,,,,,,0.197978154,0.034396701,1,0,0,laken,0,27,27,5,1
,,,,,00108,2023-11-27_17h06.08.847,vbt_B1_day3,2022.2.4,MacIntel,60.0024001,,,,,,,,,,,,,,,,,,,,croo,images/br_croo.png,images/cb_croo.png,,croo,,,,,,,,,,,0.197978154,0.034396701,1,0,0,croo,0,28,28,22,1
,,,,,00108,2023-11-27_17h06.08.847,vbt_B1_day3,2022.2.4,MacIntel,60.0024001,,,,,,,,,,,,,,,,,,,,makieren,images/br_makieren.png,images/cb_makieren.png,,makreel,,,,,,,,,,,0.197978154,0.034396701,1,0,0,makreel,0,29,29,36,1
,,,,,00108,2023-11-27_17h06.08.847,vbt_B1_day3,2022.2.4,MacIntel,60.0024001,,,,,,,,,,,,,,,,,,,,prikken,images/br_prikken.png,images/cb_prikken.png,,prikken,,,,,,,,,,,-0.00943287,-0.055324074,1,0,0,prikken,0,30,30,12,1
,,,,,00108,2023-11-27_17h06.08.847,vbt_B1_day3,2022.2.4,MacIntel,60.0024001,,,,,,,,,,,,,,,,,,,,stikken,images/br_stikken.png,images/cb_stikken.png,,stikken,,,,,,,,,,,0.071285446,-0.017874711,1,0,0,stikken,0,31,31,54,1
,,,,,00108,2023-11-27_17h06.08.847,vbt_B1_day3,2022.2.4,MacIntel,60.0024001,,,,,,,,,,,,,,,,,,,,mode,images/br_mode.png,images/cb_mode.png,,mode,,,,,,,,,,,-0.010376881,-0.003280527,1,0,0,mode,0,32,32,3,1
,,,,,00108,2023-11-27_17h06.08.847,vbt_B1_day3,2022.2.4,MacIntel,60.0024001,,,,,,,,,,,,,,,,,,,,hier,images/br_hier.png,images/cb_hier.png,,hier,,,,,,,,,,,0.115621383,-0.03208912,1,0,0,hier,0,33,33,1,1
,,,,,00108,2023-11-27_17h06.08.847,vbt_B1_day3,2022.2.4,MacIntel,60.0024001,,,,,,,,,,,,,,,,,,,,bevret,images/br_bevret.png,images/cb_bevret.png,,bevren,,,,,,,,,,,0.115621383,-0.03208912,1,0,0,bevren,0,34,34,30,1
,,,,,00108,2023-11-27_17h06.08.847,vbt_B1_day3,2022.2.4,MacIntel,60.0024001,,,,,,,,,,,,,,,,,,,,schodel,images/br_schodel.png,images/cb_schodel.png,,schadel,,,,,,,,,,,-0.023451968,-0.013668258,1,0,0,schadel,0,35,35,33,1
,,,,,00108,2023-11-27_17h06.08.847,vbt_B1_day3,2022.2.4,MacIntel,60.0024001,,,,,,,,,,,,,,,,,,,,gout,images/br_gout.png,images/cb_gout.png,,goet,,,,,,,,,,,0.016435185,-0.046137153,1,0,0,goet,0,36,36,20,1
,,,,,00108,2023-11-27_17h06.08.847,vbt_B1_day3,2022.2.4,MacIntel,60.0024001,,,,,,,,,,,,,,,,,,,,geluid,images/br_geluid.png,images/cb_geluid.png,,geluid,,,,,,,,,,,0.051913339,0.008228443,1,0,0,geluid,0,37,37,10,1
,,,,,00108,2023-11-27_17h06.08.847,vbt_B1_day3,2022.2.4,MacIntel,60.0024001,,,,,,,,,,,,,,,,,,,,beslag,images/br_beslag.png,images/cb_beslag.png,,beslag,,,,,,,,,,,0.097583912,-0.020862269,1,0,0,beslag,0,38,38,51,1
,,,,,00108,2023-11-27_17h06.08.847,vbt_B1_day3,2022.2.4,MacIntel,60.0024001,,,,,,,,,,,,,,,,,,,,leemaken,images/br_leemaken.png,images/cb_leemaken.png,,leemaker,,,,,,,,,,,0.164652054,0.054119647,1,0,0,leemaker,0,39,39,39,1
,,,,,00108,2023-11-27_17h06.08.847,vbt_B1_day3,2022.2.4,MacIntel,60.0024001,,,,,,,,,,,,,,,,,,,,theeting,images/br_theeting.png,images/cb_theeting.png,,thee,,,,,,,,,,,-0.049934896,-0.016963252,1,0,0,thee,0,40,40,38,1
,,,,,00108,2023-11-27_17h06.08.847,vbt_B1_day3,2022.2.4,MacIntel,60.0024001,,,,,,,,,,,,,,,,,,,,steel,images/br_steel.png,images/cb_steel.png,,steel,,,,,,,,,,,0.040516493,-0.022034144,1,0,0,steel,0,41,41,4,1
,,,,,00108,2023-11-27_17h06.08.847,vbt_B1_day3,2022.2.4,MacIntel,60.0024001,,,,,,,,,,,,,,,,,,,,knie,images/br_knie.png,images/cb_knie.png,,knie,,,,,,,,,,,0.024254919,-0.010706019,1,0,0,knie,0,42,42,0,1
,,,,,00108,2023-11-27_17h06.08.847,vbt_B1_day3,2022.2.4,MacIntel,60.0024001,,,,,,,,,,,,,,,,,,,,onrecht,images/br_onrecht.png,images/cb_onrecht.png,,onrecht,,,,,,,,,,,0.004090712,-0.051841001,1,0,0,onrecht,0,43,43,55,1
,,,,,00108,2023-11-27_17h06.08.847,vbt_B1_day3,2022.2.4,MacIntel,60.0024001,,,,,,,,,,,,,,,,,,,,dwang,images/br_dwang.png,images/cb_dwang.png,,dwang,,,,,,,,,,,0.025090422,-0.016999421,1,0,0,dwang,0,44,44,47,1
,,,,,00108,2023-11-27_17h06.08.847,vbt_B1_day3,2022.2.4,MacIntel,60.0024001,,,,,,,,,,,,,,,,,,,,aarzelen,images/br_aarzelen.png,images/cb_aarzelen.png,,aarzelen,,,,,,,,,,,0.060145399,-0.003399884,1,0,0,aarzelen,0,45,45,19,1
,,,,,00108,2023-11-27_17h06.08.847,vbt_B1_day3,2022.2.4,MacIntel,60.0024001,,,,,,,,,,,,,,,,,,,,schatten,images/br_schatten.png,images/cb_schatten.png,,schatten,,,,,,,,,,,0.059866898,-0.01307147,1,0,0,schatten,0,46,46,18,1
,,,,,00108,2023-11-27_17h06.08.847,vbt_B1_day3,2022.2.4,MacIntel,60.0024001,,,,,,,,,,,,,,,,,,,,paken,images/br_paken.png,images/cb_paken.png,,paken,,,,,,,,,,,-0.011190683,-0.032146991,1,0,0,paken,0,47,47,27,1
,,,,,00108,2023-11-27_17h06.08.847,vbt_B1_day3,2022.2.4,MacIntel,60.0024001,,,,,,,,,,,,,,,,,,,,alsof,images/br_alsof.png,images/cb_alsof.png,,alsof,,,,,,,,,,,-0.136924913,-0.02218967,1,0,0,alsof,0,48,48,44,1
,,,,,00108,2023-11-27_17h06.08.847,vbt_B1_day3,2022.2.4,MacIntel,60.0024001,,,,,,,,,,,,,,,,,,,,booien,images/br_booien.png,images/cb_booien.png,,boeien,,,,,,,,,,,0.017610677,0.007794416,1,0,0,boeien,0,49,49,31,1
,,,,,00108,2023-11-27_17h06.08.847,vbt_B1_day3,2022.2.4,MacIntel,60.0024001,,,,,,,,,,,,,,,,,,,,bisschop,images/br_bisschop.png,images/cb_bisschop.png,,bischop,,,,,,,,,,,-0.014930556,-0.206304253,1,0,0,bischop,0,50,50,16,1
,,,,,00108,2023-11-27_17h06.08.847,vbt_B1_day3,2022.2.4,MacIntel,60.0024001,,,,,,,,,,,,,,,,,,,,twaaf,images/br_twaaf.png,images/cb_twaaf.png,,twaaf,,,,,,,,,,,-0.008423756,-0.026475694,1,0,0,twaaf,0,51,51,24,1
,,,,,00108,2023-11-27_17h06.08.847,vbt_B1_day3,2022.2.4,MacIntel,60.0024001,,,,,,,,,,,,,,,,,,,,hint,images/br_hint.png,images/cb_hint.png,,hint,,,,,,,,,,,0.093623409,0.035991753,1,0,0,hint,0,52,52,43,1
,,,,,00108,2023-11-27_17h06.08.847,vbt_B1_day3,2022.2.4,MacIntel,60.0024001,,,,,,,,,,,,,,,,,,,,invallen,images/br_invallen.png,images/cb_invallen.png,,invallen,,,,,,,,,,,-0.115516493,-0.016601563,1,0,0,invallen,0,53,53,57,1
,,,,,00108,2023-11-27_17h06.08.847,vbt_B1_day3,2022.2.4,MacIntel,60.0024001,,,,,,,,,,,,,,,,,,,,stoom,images/br_stoom.png,images/cb_stoom.png,,stoom,,,,,,,,,,,0.014084201,-0.028215422,1,0,0,stoom,0,54,54,6,1
,,,,,00108,2023-11-27_17h06.08.847,vbt_B1_day3,2022.2.4,MacIntel,60.0024001,,,,,,,,,,,,,,,,,,,,opzicht,images/br_opzicht.png,images/cb_opzicht.png,,opzicht,,,,,,,,,,,-0.013357205,-0.010626447,1,0,0,opzicht,0,55,55,15,1
,,,,,00108,2023-11-27_17h06.08.847,vbt_B1_day3,2022.2.4,MacIntel,60.0024001,,,,,,,,,,,,,,,,,,,,boeien,images/br_boeien.png,images/cb_boeien.png,,boeing,,,,,,,,,,,-0.040360966,-0.013990162,1,0,0,boeing,0,56,56,8,1
,,,,,00108,2023-11-27_17h06.08.847,vbt_B1_day3,2022.2.4,MacIntel,60.0024001,,,,,,,,,,,,,,,,,,,,uviek,images/br_uviek.png,images/cb_uviek.png,,uviek,,,,,,,,,,,0.026439525,-0.014239728,1,0,0,uviek,0,57,57,25,1
,,,,,00108,2023-11-27_17h06.08.847,vbt_B1_day3,2022.2.4,MacIntel,60.0024001,,,,,,,,,,,,,,,,,,,,slapen,images/br_slapen.png,images/cb_slapen.png,,slapen,,,,,,,,,,,0.027155671,-0.021466291,1,0,0,slapen,0,58,58,9,1
,,,,,00108,2023-11-27_17h06.08.847,vbt_B1_day3,2022.2.4,MacIntel,60.0024001,,,,,,,,,,,,,,,,,,,,gezond,images/br_gezond.png,images/cb_gezond.png,,gezond,,,,,,,,,,,0.031235532,-0.011512587,1,0,0,gezond,0,59,59,11,1
,,,,,00108,2023-11-27_17h06.08.847,vbt_B1_day3,2022.2.4,MacIntel,60.0024001,,,,,,,,,,,,,,,,,,,,,,,,,,,,,,,,,,,,,,,,,,,,,
