welcome_mouse.x,welcome_mouse.y,welcome_mouse.leftButton,welcome_mouse.midButton,welcome_mouse.rightButton,"ID",date,expName,psychopyVersion,OS,frameRate,trainInstr_mouse.x,trainInstr_mouse.y,trainInstr_mouse.leftButton,trainInstr_mouse.midButton,trainInstr_mouse.rightButton,translation_key.keys,translation_key.corr,translation_key.rt,word_rsp.text,trWrd_mouse.x,trWrd_mouse.y,trWrd_mouse.leftButton,trWrd_mouse.midButton,trWrd_mouse.rightButton,train_loop.thisRepN,train_loop.thisTrialN,train_loop.thisN,train_loop.thisIndex,train_loop.ran,nlWrd,brWrd,cbWrd,test,testResp,mouse.x,mouse.y,mouse.leftButton,mouse.midButton,mouse.rightButton,testInstr_mouse.x,testInstr_mouse.y,testInstr_mouse.leftButton,testInstr_mouse.midButton,testInstr_mouse.rightButton,test_mouse.x,test_mouse.y,test_mouse.leftButton,test_mouse.midButton,test_mouse.rightButton,test_response.text,test_loop.thisRepN,test_loop.thisTrialN,test_loop.thisN,test_loop.thisIndex,test_loop.ran
0.073148176,-0.188888889,1,0,0,00058,2023-10-14_11h15.02.571,vbt_B1_day3,2022.2.4,Win32,59.56990528,,,,,,,,,,,,,,,,,,,,,,,,,,,,,,,,,,,,,,,,,,,,,
,,,,,00058,2023-10-14_11h15.02.571,vbt_B1_day3,2022.2.4,Win32,59.56990528,0.059259288,-0.285185242,1,0,0,,,,,,,,,,,,,,,,,,,,,,,,,,,,,,,,,,,,,,,,
,,,,,00058,2023-10-14_11h15.02.571,vbt_B1_day3,2022.2.4,Win32,59.56990528,,,,,,down,0,7.6872,,0.111111111,-0.185185199,1,0,0,0,0,0,34,1,vorm,images/br_vorm.png,images/cb_vorm.png,0,,,,,,,,,,,,,,,,,,,,,,
,,,,,00058,2023-10-14_11h15.02.571,vbt_B1_day3,2022.2.4,Win32,59.56990528,,,,,,down,0,14.3712,,0.080555556,-0.19629631,1,0,0,0,1,1,130,1,keihard,images/br_keihard.png,images/cb_keihard.png,0,,,,,,,,,,,,,,,,,,,,,,
,,,,,00058,2023-10-14_11h15.02.571,vbt_B1_day3,2022.2.4,Win32,59.56990528,,,,,,down,0,3.6607,,0.080555556,-0.19629631,1,0,0,0,2,2,77,1,woede,images/br_woede.png,images/cb_woede.png,0,,,,,,,,,,,,,,,,,,,,,,
,,,,,00058,2023-10-14_11h15.02.571,vbt_B1_day3,2022.2.4,Win32,59.56990528,,,,,,down,0,6.3971,,0.080555556,-0.19629631,1,0,0,0,3,3,61,1,groen,images/br_groen.png,images/cb_groen.png,1,groen,,,,,,,,,,,,,,,,,,,,,
,,,,,00058,2023-10-14_11h15.02.571,vbt_B1_day3,2022.2.4,Win32,59.56990528,,,,,,down,0,1.6002,,0.080555556,-0.19629631,1,0,0,0,4,4,84,1,lokken,images/br_lokken.png,images/cb_lokken.png,0,,,,,,,,,,,,,,,,,,,,,,
,,,,,00058,2023-10-14_11h15.02.571,vbt_B1_day3,2022.2.4,Win32,59.56990528,,,,,,down,0,7.4052,,0.080555556,-0.19629631,1,0,0,0,5,5,180,1,openbaar,images/br_openbaar.png,images/cb_openbaar.png,1,openbaar,,,,,,,,,,,,,,,,,,,,,
,,,,,00058,2023-10-14_11h15.02.571,vbt_B1_day3,2022.2.4,Win32,59.56990528,,,,,,down,0,10.4082,,0.080555556,-0.19629631,1,0,0,0,6,6,110,1,zuster,images/br_zuster.png,images/cb_zuster.png,0,,,,,,,,,,,,,,,,,,,,,,
,,,,,00058,2023-10-14_11h15.02.571,vbt_B1_day3,2022.2.4,Win32,59.56990528,,,,,,down,0,12.0474,,0.080555556,-0.19629631,1,0,0,0,7,7,157,1,uitlaat,images/br_uitlaat.png,images/cb_uitlaat.png,0,,,,,,,,,,,,,,,,,,,,,,
,,,,,00058,2023-10-14_11h15.02.571,vbt_B1_day3,2022.2.4,Win32,59.56990528,,,,,,down,0,4.7242,,0.080555556,-0.19629631,1,0,0,0,8,8,166,1,strikken,images/br_strikken.png,images/cb_strikken.png,0,,,,,,,,,,,,,,,,,,,,,,
,,,,,00058,2023-10-14_11h15.02.571,vbt_B1_day3,2022.2.4,Win32,59.56990528,,,,,,down,0,8.8076,,0.080555556,-0.19629631,1,0,0,0,9,9,159,1,sufferd,images/br_sufferd.png,images/cb_sufferd.png,0,,,,,,,,,,,,,,,,,,,,,,
,,,,,00058,2023-10-14_11h15.02.571,vbt_B1_day3,2022.2.4,Win32,59.56990528,,,,,,down,0,0.627,,0.080555556,-0.19629631,1,0,0,0,10,10,13,1,kaal,images/br_kaal.png,images/cb_kaal.png,0,,,,,,,,,,,,,,,,,,,,,,
,,,,,00058,2023-10-14_11h15.02.571,vbt_B1_day3,2022.2.4,Win32,59.56990528,,,,,,down,0,2.7964,,0.080555556,-0.19629631,1,0,0,0,11,11,87,1,toeval,images/br_toeval.png,images/cb_toeval.png,0,,,,,,,,,,,,,,,,,,,,,,
,,,,,00058,2023-10-14_11h15.02.571,vbt_B1_day3,2022.2.4,Win32,59.56990528,,,,,,down,0,7.5359,,0.080555556,-0.19629631,1,0,0,0,12,12,165,1,feestdag,images/br_feestdag.png,images/cb_feestdag.png,0,,,,,,,,,,,,,,,,,,,,,,
,,,,,00058,2023-10-14_11h15.02.571,vbt_B1_day3,2022.2.4,Win32,59.56990528,,,,,,down,0,9.2418,,0.080555556,-0.19629631,1,0,0,0,13,13,155,1,gerucht,images/br_gerucht.png,images/cb_gerucht.png,0,,,,,,,,,,,,,,,,,,,,,,
,,,,,00058,2023-10-14_11h15.02.571,vbt_B1_day3,2022.2.4,Win32,59.56990528,,,,,,down,0,1.5782,,0.080555556,-0.19629631,1,0,0,0,14,14,1,1,zaal,images/br_zaal.png,images/cb_zaal.png,0,,,,,,,,,,,,,,,,,,,,,,
,,,,,00058,2023-10-14_11h15.02.571,vbt_B1_day3,2022.2.4,Win32,59.56990528,,,,,,down,0,3.714,,0.080555556,-0.19629631,1,0,0,0,15,15,42,1,bleek,images/br_bleek.png,images/cb_bleek.png,0,,,,,,,,,,,,,,,,,,,,,,
,,,,,00058,2023-10-14_11h15.02.571,vbt_B1_day3,2022.2.4,Win32,59.56990528,,,,,,down,0,6.5708,,0.080555556,-0.19629631,1,0,0,0,16,16,174,1,stemming,images/br_stemming.png,images/cb_stemming.png,0,,,,,,,,,,,,,,,,,,,,,,
,,,,,00058,2023-10-14_11h15.02.571,vbt_B1_day3,2022.2.4,Win32,59.56990528,,,,,,down,0,3.42,,0.080555556,-0.19629631,1,0,0,0,17,17,38,1,baai,images/br_baai.png,images/cb_baai.png,0,,,,,,,,,,,,,,,,,,,,,,
,,,,,00058,2023-10-14_11h15.02.571,vbt_B1_day3,2022.2.4,Win32,59.56990528,,,,,,down,0,6.7532,,0.080555556,-0.19629631,1,0,0,0,18,18,162,1,uitdelen,images/br_uitdelen.png,images/cb_uitdelen.png,0,,,,,,,,,,,,,,,,,,,,,,
,,,,,00058,2023-10-14_11h15.02.571,vbt_B1_day3,2022.2.4,Win32,59.56990528,,,,,,down,0,3.794,,0.080555556,-0.19629631,1,0,0,0,19,19,63,1,flirt,images/br_flirt.png,images/cb_flirt.png,1,flirt,,,,,,,,,,,,,,,,,,,,,
,,,,,00058,2023-10-14_11h15.02.571,vbt_B1_day3,2022.2.4,Win32,59.56990528,,,,,,down,0,4.4384,,0.080555556,-0.19629631,1,0,0,0,20,20,148,1,smullen,images/br_smullen.png,images/cb_smullen.png,0,,,,,,,,,,,,,,,,,,,,,,
,,,,,00058,2023-10-14_11h15.02.571,vbt_B1_day3,2022.2.4,Win32,59.56990528,,,,,,down,0,8.1342,,0.080555556,-0.19629631,1,0,0,0,21,21,178,1,huisdier,images/br_huisdier.png,images/cb_huisdier.png,0,,,,,,,,,,,,,,,,,,,,,,
,,,,,00058,2023-10-14_11h15.02.571,vbt_B1_day3,2022.2.4,Win32,59.56990528,,,,,,down,0,1.5567,,0.080555556,-0.19629631,1,0,0,0,22,22,88,1,boeien,images/br_boeien.png,images/cb_boeien.png,0,,,,,,,,,,,,,,,,,,,,,,
,,,,,00058,2023-10-14_11h15.02.571,vbt_B1_day3,2022.2.4,Win32,59.56990528,,,,,,down,0,8.7528,,0.080555556,-0.19629631,1,0,0,0,23,23,191,1,opheffen,images/br_opheffen.png,images/cb_opheffen.png,0,,,,,,,,,,,,,,,,,,,,,,
,,,,,00058,2023-10-14_11h15.02.571,vbt_B1_day3,2022.2.4,Win32,59.56990528,,,,,,down,0,12.4705,,0.080555556,-0.19629631,1,0,0,0,24,24,134,1,geliefd,images/br_geliefd.png,images/cb_geliefd.png,0,,,,,,,,,,,,,,,,,,,,,,
,,,,,00058,2023-10-14_11h15.02.571,vbt_B1_day3,2022.2.4,Win32,59.56990528,,,,,,down,0,0.5186,,0.080555556,-0.19629631,1,0,0,0,25,25,25,1,plek,images/br_plek.png,images/cb_plek.png,0,,,,,,,,,,,,,,,,,,,,,,
,,,,,00058,2023-10-14_11h15.02.571,vbt_B1_day3,2022.2.4,Win32,59.56990528,,,,,,down,0,2.1982,,0.080555556,-0.19629631,1,0,0,0,26,26,120,1,klimmen,images/br_klimmen.png,images/cb_klimmen.png,0,,,,,,,,,,,,,,,,,,,,,,
,,,,,00058,2023-10-14_11h15.02.571,vbt_B1_day3,2022.2.4,Win32,59.56990528,,,,,,down,0,2.0973,,0.080555556,-0.19629631,1,0,0,0,27,27,71,1,bever,images/br_bever.png,images/cb_bever.png,0,,,,,,,,,,,,,,,,,,,,,,
,,,,,00058,2023-10-14_11h15.02.571,vbt_B1_day3,2022.2.4,Win32,59.56990528,,,,,,down,0,18.1942,,0.080555556,-0.19629631,1,0,0,0,28,28,140,1,blijven,images/br_blijven.png,images/cb_blijven.png,1,blijven,,,,,,,,,,,,,,,,,,,,,
,,,,,00058,2023-10-14_11h15.02.571,vbt_B1_day3,2022.2.4,Win32,59.56990528,,,,,,down,0,7.7092,,0.080555556,-0.19629631,1,0,0,0,29,29,60,1,jasje,images/br_jasje.png,images/cb_jasje.png,1,jasje,,,,,,,,,,,,,,,,,,,,,
,,,,,00058,2023-10-14_11h15.02.571,vbt_B1_day3,2022.2.4,Win32,59.56990528,,,,,,down,0,6.6787,,0.080555556,-0.19629631,1,0,0,0,30,30,183,1,getuigen,images/br_getuigen.png,images/cb_getuigen.png,1,getuigen,,,,,,,,,,,,,,,,,,,,,
,,,,,00058,2023-10-14_11h15.02.571,vbt_B1_day3,2022.2.4,Win32,59.56990528,,,,,,down,0,2.4489,,0.080555556,-0.19629631,1,0,0,0,31,31,74,1,graaf,images/br_graaf.png,images/cb_graaf.png,0,,,,,,,,,,,,,,,,,,,,,,
,,,,,00058,2023-10-14_11h15.02.571,vbt_B1_day3,2022.2.4,Win32,59.56990528,,,,,,down,0,2.7313,,0.080555556,-0.19629631,1,0,0,0,32,32,132,1,grappen,images/br_grappen.png,images/cb_grappen.png,0,,,,,,,,,,,,,,,,,,,,,,
,,,,,00058,2023-10-14_11h15.02.571,vbt_B1_day3,2022.2.4,Win32,59.56990528,,,,,,down,0,2.6579,,0.080555556,-0.19629631,1,0,0,0,33,33,92,1,geheim,images/br_geheim.png,images/cb_geheim.png,0,,,,,,,,,,,,,,,,,,,,,,
,,,,,00058,2023-10-14_11h15.02.571,vbt_B1_day3,2022.2.4,Win32,59.56990528,,,,,,down,0,10.177,,0.080555556,-0.19629631,1,0,0,0,34,34,154,1,aflopen,images/br_aflopen.png,images/cb_aflopen.png,0,,,,,,,,,,,,,,,,,,,,,,
,,,,,00058,2023-10-14_11h15.02.571,vbt_B1_day3,2022.2.4,Win32,59.56990528,,,,,,down,0,2.925,,0.080555556,-0.19629631,1,0,0,0,35,35,36,1,vuur,images/br_vuur.png,images/cb_vuur.png,0,,,,,,,,,,,,,,,,,,,,,,
,,,,,00058,2023-10-14_11h15.02.571,vbt_B1_day3,2022.2.4,Win32,59.56990528,,,,,,down,0,1.5787,,0.080555556,-0.19629631,1,0,0,0,36,36,2,1,jaar,images/br_jaar.png,images/cb_jaar.png,0,,,,,,,,,,,,,,,,,,,,,,
,,,,,00058,2023-10-14_11h15.02.571,vbt_B1_day3,2022.2.4,Win32,59.56990528,,,,,,down,0,0.9963,,0.080555556,-0.19629631,1,0,0,0,37,37,113,1,koppen,images/br_koppen.png,images/cb_koppen.png,0,,,,,,,,,,,,,,,,,,,,,,
,,,,,00058,2023-10-14_11h15.02.571,vbt_B1_day3,2022.2.4,Win32,59.56990528,,,,,,down,0,1.1343,,0.080555556,-0.19629631,1,0,0,0,38,38,29,1,baas,images/br_baas.png,images/cb_baas.png,0,,,,,,,,,,,,,,,,,,,,,,
,,,,,00058,2023-10-14_11h15.02.571,vbt_B1_day3,2022.2.4,Win32,59.56990528,,,,,,down,0,3.3912,,0.080555556,-0.19629631,1,0,0,0,39,39,117,1,kennis,images/br_kennis.png,images/cb_kennis.png,0,,,,,,,,,,,,,,,,,,,,,,
,,,,,00058,2023-10-14_11h15.02.571,vbt_B1_day3,2022.2.4,Win32,59.56990528,,,,,,down,0,3.8378,,0.080555556,-0.19629631,1,0,0,0,40,40,137,1,trekker,images/br_trekker.png,images/cb_trekker.png,0,,,,,,,,,,,,,,,,,,,,,,
,,,,,00058,2023-10-14_11h15.02.571,vbt_B1_day3,2022.2.4,Win32,59.56990528,,,,,,down,0,5.2312,,0.080555556,-0.19629631,1,0,0,0,41,41,164,1,anarchie,images/br_anarchie.png,images/cb_anarchie.png,0,,,,,,,,,,,,,,,,,,,,,,
,,,,,00058,2023-10-14_11h15.02.571,vbt_B1_day3,2022.2.4,Win32,59.56990528,,,,,,down,0,1.9057,,0.080555556,-0.19629631,1,0,0,0,42,42,89,1,slapen,images/br_slapen.png,images/cb_slapen.png,0,,,,,,,,,,,,,,,,,,,,,,
,,,,,00058,2023-10-14_11h15.02.571,vbt_B1_day3,2022.2.4,Win32,59.56990528,,,,,,down,0,3.7701,,0.080555556,-0.19629631,1,0,0,0,43,43,121,1,twijfel,images/br_twijfel.png,images/cb_twijfel.png,0,,,,,,,,,,,,,,,,,,,,,,
,,,,,00058,2023-10-14_11h15.02.571,vbt_B1_day3,2022.2.4,Win32,59.56990528,,,,,,down,0,9.6481,,0.080555556,-0.19629631,1,0,0,0,44,44,4,1,moes,images/br_moes.png,images/cb_moes.png,0,,,,,,,,,,,,,,,,,,,,,,
,,,,,00058,2023-10-14_11h15.02.571,vbt_B1_day3,2022.2.4,Win32,59.56990528,,,,,,down,0,0.8625,,0.080555556,-0.19629631,1,0,0,0,45,45,96,1,slagen,images/br_slagen.png,images/cb_slagen.png,0,,,,,,,,,,,,,,,,,,,,,,
,,,,,00058,2023-10-14_11h15.02.571,vbt_B1_day3,2022.2.4,Win32,59.56990528,,,,,,down,0,4.8685,,0.080555556,-0.19629631,1,0,0,0,46,46,108,1,excuus,images/br_excuus.png,images/cb_excuus.png,0,,,,,,,,,,,,,,,,,,,,,,
,,,,,00058,2023-10-14_11h15.02.571,vbt_B1_day3,2022.2.4,Win32,59.56990528,,,,,,down,0,0.3523,,0.080555556,-0.19629631,1,0,0,0,47,47,9,1,hier,images/br_hier.png,images/cb_hier.png,0,,,,,,,,,,,,,,,,,,,,,,
,,,,,00058,2023-10-14_11h15.02.571,vbt_B1_day3,2022.2.4,Win32,59.56990528,,,,,,down,0,2.8404,,0.080555556,-0.19629631,1,0,0,0,48,48,103,1,joggen,images/br_joggen.png,images/cb_joggen.png,1,joggen,,,,,,,,,,,,,,,,,,,,,
,,,,,00058,2023-10-14_11h15.02.571,vbt_B1_day3,2022.2.4,Win32,59.56990528,,,,,,down,0,2.2506,,0.080555556,-0.19629631,1,0,0,0,49,49,56,1,traag,images/br_traag.png,images/cb_traag.png,0,,,,,,,,,,,,,,,,,,,,,,
,,,,,00058,2023-10-14_11h15.02.571,vbt_B1_day3,2022.2.4,Win32,59.56990528,,,,,,down,0,3.7144,,0.080555556,-0.19629631,1,0,0,0,50,50,129,1,verhaal,images/br_verhaal.png,images/cb_verhaal.png,0,,,,,,,,,,,,,,,,,,,,,,
,,,,,00058,2023-10-14_11h15.02.571,vbt_B1_day3,2022.2.4,Win32,59.56990528,,,,,,down,0,7.7444,,0.080555556,-0.19629631,1,0,0,0,51,51,168,1,bisschop,images/br_bisschop.png,images/cb_bisschop.png,0,,,,,,,,,,,,,,,,,,,,,,
,,,,,00058,2023-10-14_11h15.02.571,vbt_B1_day3,2022.2.4,Win32,59.56990528,,,,,,down,0,6.7027,,0.080555556,-0.19629631,1,0,0,0,52,52,19,1,geit,images/br_geit.png,images/cb_geit.png,0,,,,,,,,,,,,,,,,,,,,,,
,,,,,00058,2023-10-14_11h15.02.571,vbt_B1_day3,2022.2.4,Win32,59.56990528,,,,,,down,0,7.5289,,0.080555556,-0.19629631,1,0,0,0,53,53,16,1,ziek,images/br_ziek.png,images/cb_ziek.png,0,,,,,,,,,,,,,,,,,,,,,,
,,,,,00058,2023-10-14_11h15.02.571,vbt_B1_day3,2022.2.4,Win32,59.56990528,,,,,,down,0,5.6283,,0.080555556,-0.19629631,1,0,0,0,54,54,160,1,daarheen,images/br_daarheen.png,images/cb_daarheen.png,0,,,,,,,,,,,,,,,,,,,,,,
,,,,,00058,2023-10-14_11h15.02.571,vbt_B1_day3,2022.2.4,Win32,59.56990528,,,,,,down,0,1.4413,,0.080555556,-0.19629631,1,0,0,0,55,55,184,1,aandelen,images/br_aandelen.png,images/cb_aandelen.png,0,,,,,,,,,,,,,,,,,,,,,,
,,,,,00058,2023-10-14_11h15.02.571,vbt_B1_day3,2022.2.4,Win32,59.56990528,,,,,,down,0,3.5758,,0.080555556,-0.19629631,1,0,0,0,56,56,131,1,opzicht,images/br_opzicht.png,images/cb_opzicht.png,0,,,,,,,,,,,,,,,,,,,,,,
,,,,,00058,2023-10-14_11h15.02.571,vbt_B1_day3,2022.2.4,Win32,59.56990528,,,,,,down,0,5.5304,,0.080555556,-0.19629631,1,0,0,0,57,57,199,1,beseffen,images/br_beseffen.png,images/cb_beseffen.png,0,,,,,,,,,,,,,,,,,,,,,,
,,,,,00058,2023-10-14_11h15.02.571,vbt_B1_day3,2022.2.4,Win32,59.56990528,,,,,,down,0,0.5916,,0.080555556,-0.19629631,1,0,0,0,58,58,26,1,leuk,images/br_leuk.png,images/cb_leuk.png,0,,,,,,,,,,,,,,,,,,,,,,
,,,,,00058,2023-10-14_11h15.02.571,vbt_B1_day3,2022.2.4,Win32,59.56990528,,,,,,down,0,1.0546,,0.080555556,-0.19629631,1,0,0,0,59,59,46,1,jagen,images/br_jagen.png,images/cb_jagen.png,0,,,,,,,,,,,,,,,,,,,,,,
,,,,,00058,2023-10-14_11h15.02.571,vbt_B1_day3,2022.2.4,Win32,59.56990528,,,,,,down,0,2.3053,,0.080555556,-0.19629631,1,0,0,0,60,60,43,1,klauw,images/br_klauw.png,images/cb_klauw.png,0,,,,,,,,,,,,,,,,,,,,,,
,,,,,00058,2023-10-14_11h15.02.571,vbt_B1_day3,2022.2.4,Win32,59.56990528,,,,,,down,0,2.3987,,0.080555556,-0.19629631,1,0,0,0,61,61,104,1,zweven,images/br_zweven.png,images/cb_zweven.png,0,,,,,,,,,,,,,,,,,,,,,,
,,,,,00058,2023-10-14_11h15.02.571,vbt_B1_day3,2022.2.4,Win32,59.56990528,,,,,,down,0,4.8804,,0.080555556,-0.19629631,1,0,0,0,62,62,127,1,doodmoe,images/br_doodmoe.png,images/cb_doodmoe.png,0,,,,,,,,,,,,,,,,,,,,,,
,,,,,00058,2023-10-14_11h15.02.571,vbt_B1_day3,2022.2.4,Win32,59.56990528,,,,,,down,0,2.5741,,0.080555556,-0.19629631,1,0,0,0,63,63,47,1,kabel,images/br_kabel.png,images/cb_kabel.png,0,,,,,,,,,,,,,,,,,,,,,,
,,,,,00058,2023-10-14_11h15.02.571,vbt_B1_day3,2022.2.4,Win32,59.56990528,,,,,,down,0,6.9449,,0.080555556,-0.19629631,1,0,0,0,64,64,83,1,mening,images/br_mening.png,images/cb_mening.png,0,,,,,,,,,,,,,,,,,,,,,,
,,,,,00058,2023-10-14_11h15.02.571,vbt_B1_day3,2022.2.4,Win32,59.56990528,,,,,,down,0,4.3965,,0.080555556,-0.19629631,1,0,0,0,65,65,14,1,rijp,images/br_rijp.png,images/cb_rijp.png,0,,,,,,,,,,,,,,,,,,,,,,
,,,,,00058,2023-10-14_11h15.02.571,vbt_B1_day3,2022.2.4,Win32,59.56990528,,,,,,down,0,2.4825,,0.080555556,-0.19629631,1,0,0,0,66,66,188,1,strekken,images/br_strekken.png,images/cb_strekken.png,0,,,,,,,,,,,,,,,,,,,,,,
,,,,,00058,2023-10-14_11h15.02.571,vbt_B1_day3,2022.2.4,Win32,59.56990528,,,,,,down,0,0.2222,,0.080555556,-0.19629631,1,0,0,0,67,67,73,1,volop,images/br_volop.png,images/cb_volop.png,0,,,,,,,,,,,,,,,,,,,,,,
,,,,,00058,2023-10-14_11h15.02.571,vbt_B1_day3,2022.2.4,Win32,59.56990528,,,,,,down,0,3.3748,,0.080555556,-0.19629631,1,0,0,0,68,68,22,1,stof,images/br_stof.png,images/cb_stof.png,1,stof,,,,,,,,,,,,,,,,,,,,,
,,,,,00058,2023-10-14_11h15.02.571,vbt_B1_day3,2022.2.4,Win32,59.56990528,,,,,,down,0,10.9818,,0.080555556,-0.19629631,1,0,0,0,69,69,106,1,zingen,images/br_zingen.png,images/cb_zingen.png,0,,,,,,,,,,,,,,,,,,,,,,
,,,,,00058,2023-10-14_11h15.02.571,vbt_B1_day3,2022.2.4,Win32,59.56990528,,,,,,down,0,5.1531,,0.080555556,-0.19629631,1,0,0,0,70,70,181,1,toegeven,images/br_toegeven.png,images/cb_toegeven.png,1,toegeven,,,,,,,,,,,,,,,,,,,,,
,,,,,00058,2023-10-14_11h15.02.571,vbt_B1_day3,2022.2.4,Win32,59.56990528,,,,,,down,0,5.3968,,0.080555556,-0.19629631,1,0,0,0,71,71,82,1,muziek,images/br_muziek.png,images/cb_muziek.png,0,,,,,,,,,,,,,,,,,,,,,,
,,,,,00058,2023-10-14_11h15.02.571,vbt_B1_day3,2022.2.4,Win32,59.56990528,,,,,,down,0,10.0536,,0.080555556,-0.19629631,1,0,0,0,72,72,153,1,vervoer,images/br_vervoer.png,images/cb_vervoer.png,0,,,,,,,,,,,,,,,,,,,,,,
,,,,,00058,2023-10-14_11h15.02.571,vbt_B1_day3,2022.2.4,Win32,59.56990528,,,,,,down,0,5.3649,,0.080555556,-0.19629631,1,0,0,0,73,73,135,1,gedicht,images/br_gedicht.png,images/cb_gedicht.png,0,,,,,,,,,,,,,,,,,,,,,,
,,,,,00058,2023-10-14_11h15.02.571,vbt_B1_day3,2022.2.4,Win32,59.56990528,,,,,,down,0,3.3575,,0.080555556,-0.19629631,1,0,0,0,74,74,90,1,geluid,images/br_geluid.png,images/cb_geluid.png,0,,,,,,,,,,,,,,,,,,,,,,
,,,,,00058,2023-10-14_11h15.02.571,vbt_B1_day3,2022.2.4,Win32,59.56990528,,,,,,down,0,2.8563,,0.080555556,-0.19629631,1,0,0,0,75,75,21,1,mist,images/br_mist.png,images/cb_mist.png,1,mist,,,,,,,,,,,,,,,,,,,,,
,,,,,00058,2023-10-14_11h15.02.571,vbt_B1_day3,2022.2.4,Win32,59.56990528,,,,,,down,0,7.3462,,0.080555556,-0.19629631,1,0,0,0,76,76,31,1,poes,images/br_poes.png,images/cb_poes.png,0,,,,,,,,,,,,,,,,,,,,,,
,,,,,00058,2023-10-14_11h15.02.571,vbt_B1_day3,2022.2.4,Win32,59.56990528,,,,,,down,0,7.5157,,0.080555556,-0.19629631,1,0,0,0,77,77,169,1,oprotten,images/br_oprotten.png,images/cb_oprotten.png,0,,,,,,,,,,,,,,,,,,,,,,
,,,,,00058,2023-10-14_11h15.02.571,vbt_B1_day3,2022.2.4,Win32,59.56990528,,,,,,down,0,5.8956,,0.080555556,-0.19629631,1,0,0,0,78,78,48,1,steel,images/br_steel.png,images/cb_steel.png,0,,,,,,,,,,,,,,,,,,,,,,
,,,,,00058,2023-10-14_11h15.02.571,vbt_B1_day3,2022.2.4,Win32,59.56990528,,,,,,down,0,3.7978,,0.080555556,-0.19629631,1,0,0,0,79,79,125,1,aanzien,images/br_aanzien.png,images/cb_aanzien.png,0,,,,,,,,,,,,,,,,,,,,,,
,,,,,00058,2023-10-14_11h15.02.571,vbt_B1_day3,2022.2.4,Win32,59.56990528,,,,,,down,0,5.314,,0.080555556,-0.19629631,1,0,0,0,80,80,52,1,wagon,images/br_wagon.png,images/cb_wagon.png,0,,,,,,,,,,,,,,,,,,,,,,
,,,,,00058,2023-10-14_11h15.02.571,vbt_B1_day3,2022.2.4,Win32,59.56990528,,,,,,down,0,4.6971,,0.080555556,-0.19629631,1,0,0,0,81,81,70,1,ijdel,images/br_ijdel.png,images/cb_ijdel.png,0,,,,,,,,,,,,,,,,,,,,,,
,,,,,00058,2023-10-14_11h15.02.571,vbt_B1_day3,2022.2.4,Win32,59.56990528,,,,,,down,0,1.537,,0.080555556,-0.173148176,1,0,0,0,82,82,151,1,aanzoek,images/br_aanzoek.png,images/cb_aanzoek.png,0,,,,,,,,,,,,,,,,,,,,,,
,,,,,00058,2023-10-14_11h15.02.571,vbt_B1_day3,2022.2.4,Win32,59.56990528,,,,,,down,0,1.2995,,0.080555556,-0.173148176,1,0,0,0,83,83,186,1,voorraad,images/br_voorraad.png,images/cb_voorraad.png,0,,,,,,,,,,,,,,,,,,,,,,
,,,,,00058,2023-10-14_11h15.02.571,vbt_B1_day3,2022.2.4,Win32,59.56990528,,,,,,down,0,3.7318,,0.080555556,-0.173148176,1,0,0,0,84,84,102,1,legaal,images/br_legaal.png,images/cb_legaal.png,1,legaal,,,,,,,,,,,,,,,,,,,,,
,,,,,00058,2023-10-14_11h15.02.571,vbt_B1_day3,2022.2.4,Win32,59.56990528,,,,,,down,0,1.7616,,0.080555556,-0.173148176,1,0,0,0,85,85,49,1,laken,images/br_laken.png,images/cb_laken.png,0,,,,,,,,,,,,,,,,,,,,,,
,,,,,00058,2023-10-14_11h15.02.571,vbt_B1_day3,2022.2.4,Win32,59.56990528,,,,,,down,0,9.8931,,0.080555556,-0.173148176,1,0,0,0,86,86,80,1,kanjer,images/br_kanjer.png,images/cb_kanjer.png,0,,,,,,,,,,,,,,,,,,,,,,
,,,,,00058,2023-10-14_11h15.02.571,vbt_B1_day3,2022.2.4,Win32,59.56990528,,,,,,down,0,1.8393,,0.080555556,-0.173148176,1,0,0,0,87,87,171,1,aarzelen,images/br_aarzelen.png,images/cb_aarzelen.png,0,,,,,,,,,,,,,,,,,,,,,,
,,,,,00058,2023-10-14_11h15.02.571,vbt_B1_day3,2022.2.4,Win32,59.56990528,,,,,,down,0,3.3278,,0.067592621,-0.178703732,1,0,0,0,88,88,75,1,snoep,images/br_snoep.png,images/cb_snoep.png,0,,,,,,,,,,,,,,,,,,,,,,
,,,,,00058,2023-10-14_11h15.02.571,vbt_B1_day3,2022.2.4,Win32,59.56990528,,,,,,down,0,0.7838,,0.067592621,-0.178703732,1,0,0,0,89,89,112,1,lukken,images/br_lukken.png,images/cb_lukken.png,0,,,,,,,,,,,,,,,,,,,,,,
,,,,,00058,2023-10-14_11h15.02.571,vbt_B1_day3,2022.2.4,Win32,59.56990528,,,,,,down,0,5.446,,0.067592621,-0.178703732,1,0,0,0,90,90,194,1,driemaal,images/br_driemaal.png,images/cb_driemaal.png,0,,,,,,,,,,,,,,,,,,,,,,
,,,,,00058,2023-10-14_11h15.02.571,vbt_B1_day3,2022.2.4,Win32,59.56990528,,,,,,down,0,2.5709,,0.067592621,-0.178703732,1,0,0,0,91,91,146,1,opkomen,images/br_opkomen.png,images/cb_opkomen.png,0,,,,,,,,,,,,,,,,,,,,,,
,,,,,00058,2023-10-14_11h15.02.571,vbt_B1_day3,2022.2.4,Win32,59.56990528,,,,,,down,0,7.3461,,0.067592621,-0.178703732,1,0,0,0,92,92,107,1,maling,images/br_maling.png,images/cb_maling.png,0,,,,,,,,,,,,,,,,,,,,,,
,,,,,00058,2023-10-14_11h15.02.571,vbt_B1_day3,2022.2.4,Win32,59.56990528,,,,,,down,0,2.6256,,0.067592621,-0.178703732,1,0,0,0,93,93,122,1,waarvan,images/br_waarvan.png,images/cb_waarvan.png,0,,,,,,,,,,,,,,,,,,,,,,
,,,,,00058,2023-10-14_11h15.02.571,vbt_B1_day3,2022.2.4,Win32,59.56990528,,,,,,down,0,1.7158,,0.067592621,-0.178703732,1,0,0,0,94,94,15,1,soda,images/br_soda.png,images/cb_soda.png,0,,,,,,,,,,,,,,,,,,,,,,
,,,,,00058,2023-10-14_11h15.02.571,vbt_B1_day3,2022.2.4,Win32,59.56990528,,,,,,down,0,3.2053,,0.067592621,-0.178703732,1,0,0,0,95,95,149,1,redding,images/br_redding.png,images/cb_redding.png,0,,,,,,,,,,,,,,,,,,,,,,
,,,,,00058,2023-10-14_11h15.02.571,vbt_B1_day3,2022.2.4,Win32,59.56990528,,,,,,down,0,2.1824,,0.067592621,-0.178703732,1,0,0,0,96,96,69,1,waken,images/br_waken.png,images/cb_waken.png,0,,,,,,,,,,,,,,,,,,,,,,
,,,,,00058,2023-10-14_11h15.02.571,vbt_B1_day3,2022.2.4,Win32,59.56990528,,,,,,down,0,3.5987,,0.067592621,-0.178703732,1,0,0,0,97,97,8,1,knie,images/br_knie.png,images/cb_knie.png,0,,,,,,,,,,,,,,,,,,,,,,
,,,,,00058,2023-10-14_11h15.02.571,vbt_B1_day3,2022.2.4,Win32,59.56990528,,,,,,down,0,10.8665,,0.067592621,-0.178703732,1,0,0,0,98,98,115,1,kleren,images/br_kleren.png,images/cb_kleren.png,0,,,,,,,,,,,,,,,,,,,,,,
,,,,,00058,2023-10-14_11h15.02.571,vbt_B1_day3,2022.2.4,Win32,59.56990528,,,,,,down,0,4.043,,0.067592621,-0.178703732,1,0,0,0,99,99,44,1,flits,images/br_flits.png,images/cb_flits.png,0,,,,,,,,,,,,,,,,,,,,,,
,,,,,00058,2023-10-14_11h15.02.571,vbt_B1_day3,2022.2.4,Win32,59.56990528,,,,,,down,0,9.4597,,0.067592621,-0.178703732,1,0,0,0,100,100,172,1,weigeren,images/br_weigeren.png,images/cb_weigeren.png,0,,,,,,,,,,,,,,,,,,,,,,
,,,,,00058,2023-10-14_11h15.02.571,vbt_B1_day3,2022.2.4,Win32,59.56990528,,,,,,down,0,5.816,,0.067592621,-0.178703732,1,0,0,0,101,101,85,1,heilig,images/br_heilig.png,images/cb_heilig.png,0,,,,,,,,,,,,,,,,,,,,,,
,,,,,00058,2023-10-14_11h15.02.571,vbt_B1_day3,2022.2.4,Win32,59.56990528,,,,,,down,0,3.3968,,0.067592621,-0.178703732,1,0,0,0,102,102,175,1,heengaan,images/br_heengaan.png,images/cb_heengaan.png,0,,,,,,,,,,,,,,,,,,,,,,
,,,,,00058,2023-10-14_11h15.02.571,vbt_B1_day3,2022.2.4,Win32,59.56990528,,,,,,down,0,4.6161,,0.067592621,-0.178703732,1,0,0,0,103,103,145,1,invloed,images/br_invloed.png,images/cb_invloed.png,0,,,,,,,,,,,,,,,,,,,,,,
,,,,,00058,2023-10-14_11h15.02.571,vbt_B1_day3,2022.2.4,Win32,59.56990528,,,,,,down,0,2.5112,,0.067592621,-0.178703732,1,0,0,0,104,104,123,1,hiervan,images/br_hiervan.png,images/cb_hiervan.png,0,,,,,,,,,,,,,,,,,,,,,,
,,,,,00058,2023-10-14_11h15.02.571,vbt_B1_day3,2022.2.4,Win32,59.56990528,,,,,,down,0,12.9276,,0.067592621,-0.178703732,1,0,0,0,105,105,94,1,oceaan,images/br_oceaan.png,images/cb_oceaan.png,0,,,,,,,,,,,,,,,,,,,,,,
,,,,,00058,2023-10-14_11h15.02.571,vbt_B1_day3,2022.2.4,Win32,59.56990528,,,,,,down,0,1.8672,,0.067592621,-0.178703732,1,0,0,0,106,106,3,1,mand,images/br_mand.png,images/cb_mand.png,0,,,,,,,,,,,,,,,,,,,,,,
,,,,,00058,2023-10-14_11h15.02.571,vbt_B1_day3,2022.2.4,Win32,59.56990528,,,,,,down,0,1.9184,,0.067592621,-0.178703732,1,0,0,0,107,107,39,1,laag,images/br_laag.png,images/cb_laag.png,0,,,,,,,,,,,,,,,,,,,,,,
,,,,,00058,2023-10-14_11h15.02.571,vbt_B1_day3,2022.2.4,Win32,59.56990528,,,,,,down,0,1.2346,,0.067592621,-0.178703732,1,0,0,0,108,108,17,1,taal,images/br_taal.png,images/cb_taal.png,0,,,,,,,,,,,,,,,,,,,,,,
,,,,,00058,2023-10-14_11h15.02.571,vbt_B1_day3,2022.2.4,Win32,59.56990528,,,,,,down,0,2.6146,,0.065740797,-0.173148176,1,0,0,0,109,109,97,1,loyaal,images/br_loyaal.png,images/cb_loyaal.png,0,,,,,,,,,,,,,,,,,,,,,,
,,,,,00058,2023-10-14_11h15.02.571,vbt_B1_day3,2022.2.4,Win32,59.56990528,,,,,,down,0,3.2988,,0.065740797,-0.173148176,1,0,0,0,110,110,23,1,zout,images/br_zout.png,images/cb_zout.png,1,zout,,,,,,,,,,,,,,,,,,,,,
,,,,,00058,2023-10-14_11h15.02.571,vbt_B1_day3,2022.2.4,Win32,59.56990528,,,,,,down,0,4.0991,,0.065740797,-0.173148176,1,0,0,0,111,111,105,1,wijlen,images/br_wijlen.png,images/cb_wijlen.png,0,,,,,,,,,,,,,,,,,,,,,,
,,,,,00058,2023-10-14_11h15.02.571,vbt_B1_day3,2022.2.4,Win32,59.56990528,,,,,,down,0,4.8145,,0.065740797,-0.173148176,1,0,0,0,112,112,118,1,vinger,images/br_vinger.png,images/cb_vinger.png,0,,,,,,,,,,,,,,,,,,,,,,
,,,,,00058,2023-10-14_11h15.02.571,vbt_B1_day3,2022.2.4,Win32,59.56990528,,,,,,down,0,0.9436,,0.065740797,-0.173148176,1,0,0,0,113,113,99,1,koffie,images/br_koffie.png,images/cb_koffie.png,0,,,,,,,,,,,,,,,,,,,,,,
,,,,,00058,2023-10-14_11h15.02.571,vbt_B1_day3,2022.2.4,Win32,59.56990528,,,,,,down,0,15.5137,,0.065740797,-0.173148176,1,0,0,0,114,114,30,1,uien,images/br_uien.png,images/cb_uien.png,0,,,,,,,,,,,,,,,,,,,,,,
,,,,,00058,2023-10-14_11h15.02.571,vbt_B1_day3,2022.2.4,Win32,59.56990528,,,,,,down,0,1.8093,,0.065740797,-0.173148176,1,0,0,0,115,115,41,1,maken,images/br_maken.png,images/cb_maken.png,0,,,,,,,,,,,,,,,,,,,,,,
,,,,,00058,2023-10-14_11h15.02.571,vbt_B1_day3,2022.2.4,Win32,59.56990528,,,,,,down,0,10.6292,,0.065740797,-0.173148176,1,0,0,0,116,116,116,1,besmet,images/br_besmet.png,images/cb_besmet.png,0,,,,,,,,,,,,,,,,,,,,,,
,,,,,00058,2023-10-14_11h15.02.571,vbt_B1_day3,2022.2.4,Win32,59.56990528,,,,,,down,0,3.3756,,0.065740797,-0.173148176,1,0,0,0,117,117,187,1,opkijken,images/br_opkijken.png,images/cb_opkijken.png,0,,,,,,,,,,,,,,,,,,,,,,
,,,,,00058,2023-10-14_11h15.02.571,vbt_B1_day3,2022.2.4,Win32,59.56990528,,,,,,down,0,0.8389,,0.065740797,-0.173148176,1,0,0,0,118,118,10,1,leek,images/br_leek.png,images/cb_leek.png,0,,,,,,,,,,,,,,,,,,,,,,
,,,,,00058,2023-10-14_11h15.02.571,vbt_B1_day3,2022.2.4,Win32,59.56990528,,,,,,down,0,4.1526,,0.065740797,-0.173148176,1,0,0,0,119,119,45,1,piste,images/br_piste.png,images/cb_piste.png,0,,,,,,,,,,,,,,,,,,,,,,
,,,,,00058,2023-10-14_11h15.02.571,vbt_B1_day3,2022.2.4,Win32,59.56990528,,,,,,down,0,2.2935,,0.065740797,-0.173148176,1,0,0,0,120,120,86,1,woning,images/br_woning.png,images/cb_woning.png,0,,,,,,,,,,,,,,,,,,,,,,
,,,,,00058,2023-10-14_11h15.02.571,vbt_B1_day3,2022.2.4,Win32,59.56990528,,,,,,down,0,2.2265,,0.065740797,-0.173148176,1,0,0,0,121,121,95,1,vreten,images/br_vreten.png,images/cb_vreten.png,0,,,,,,,,,,,,,,,,,,,,,,
,,,,,00058,2023-10-14_11h15.02.571,vbt_B1_day3,2022.2.4,Win32,59.56990528,,,,,,down,0,2.0718,,0.065740797,-0.173148176,1,0,0,0,122,122,18,1,blik,images/br_blik.png,images/cb_blik.png,0,,,,,,,,,,,,,,,,,,,,,,
,,,,,00058,2023-10-14_11h15.02.571,vbt_B1_day3,2022.2.4,Win32,59.56990528,,,,,,down,0,2.4827,,0.065740797,-0.173148176,1,0,0,0,123,123,66,1,lever,images/br_lever.png,images/cb_lever.png,0,,,,,,,,,,,,,,,,,,,,,,
,,,,,00058,2023-10-14_11h15.02.571,vbt_B1_day3,2022.2.4,Win32,59.56990528,,,,,,down,0,4.6086,,0.065740797,-0.173148176,1,0,0,0,124,124,5,1,blad,images/br_blad.png,images/cb_blad.png,0,,,,,,,,,,,,,,,,,,,,,,
,,,,,00058,2023-10-14_11h15.02.571,vbt_B1_day3,2022.2.4,Win32,59.56990528,,,,,,down,0,1.7842,,0.065740797,-0.173148176,1,0,0,0,125,125,40,1,schep,images/br_schep.png,images/cb_schep.png,0,,,,,,,,,,,,,,,,,,,,,,
,,,,,00058,2023-10-14_11h15.02.571,vbt_B1_day3,2022.2.4,Win32,59.56990528,,,,,,down,0,5.5649,,0.065740797,-0.173148176,1,0,0,0,126,126,136,1,waarbij,images/br_waarbij.png,images/cb_waarbij.png,0,,,,,,,,,,,,,,,,,,,,,,
,,,,,00058,2023-10-14_11h15.02.571,vbt_B1_day3,2022.2.4,Win32,59.56990528,,,,,,down,0,6.4106,,0.065740797,-0.173148176,1,0,0,0,127,127,182,1,bijkomen,images/br_bijkomen.png,images/cb_bijkomen.png,1,bijkomen,,,,,,,,,,,,,,,,,,,,,
,,,,,00058,2023-10-14_11h15.02.571,vbt_B1_day3,2022.2.4,Win32,59.56990528,,,,,,down,0,3.1647,,0.065740797,-0.173148176,1,0,0,0,128,128,156,1,rechten,images/br_rechten.png,images/cb_rechten.png,0,,,,,,,,,,,,,,,,,,,,,,
,,,,,00058,2023-10-14_11h15.02.571,vbt_B1_day3,2022.2.4,Win32,59.56990528,,,,,,down,0,4.6006,,0.065740797,-0.173148176,1,0,0,0,129,129,72,1,strak,images/br_strak.png,images/cb_strak.png,0,,,,,,,,,,,,,,,,,,,,,,
,,,,,00058,2023-10-14_11h15.02.571,vbt_B1_day3,2022.2.4,Win32,59.56990528,,,,,,down,0,2.7192,,0.065740797,-0.173148176,1,0,0,0,130,130,150,1,gegeven,images/br_gegeven.png,images/cb_gegeven.png,0,,,,,,,,,,,,,,,,,,,,,,
,,,,,00058,2023-10-14_11h15.02.571,vbt_B1_day3,2022.2.4,Win32,59.56990528,,,,,,down,0,9.8059,,0.065740797,-0.173148176,1,0,0,0,131,131,138,1,akkoord,images/br_akkoord.png,images/cb_akkoord.png,0,,,,,,,,,,,,,,,,,,,,,,
,,,,,00058,2023-10-14_11h15.02.571,vbt_B1_day3,2022.2.4,Win32,59.56990528,,,,,,down,0,3.4799,,0.065740797,-0.173148176,1,0,0,0,132,132,55,1,praat,images/br_praat.png,images/cb_praat.png,0,,,,,,,,,,,,,,,,,,,,,,
,,,,,00058,2023-10-14_11h15.02.571,vbt_B1_day3,2022.2.4,Win32,59.56990528,,,,,,down,0,3.5647,,0.065740797,-0.173148176,1,0,0,0,133,133,141,1,knielen,images/br_knielen.png,images/cb_knielen.png,1,knielen,,,,,,,,,,,,,,,,,,,,,
,,,,,00058,2023-10-14_11h15.02.571,vbt_B1_day3,2022.2.4,Win32,59.56990528,,,,,,down,0,4.3201,,0.065740797,-0.173148176,1,0,0,0,134,134,147,1,komisch,images/br_komisch.png,images/cb_komisch.png,0,,,,,,,,,,,,,,,,,,,,,,
,,,,,00058,2023-10-14_11h15.02.571,vbt_B1_day3,2022.2.4,Win32,59.56990528,,,,,,down,0,2.0323,,0.065740797,-0.173148176,1,0,0,0,135,135,114,1,vullen,images/br_vullen.png,images/cb_vullen.png,0,,,,,,,,,,,,,,,,,,,,,,
,,,,,00058,2023-10-14_11h15.02.571,vbt_B1_day3,2022.2.4,Win32,59.56990528,,,,,,down,0,1.0907,,0.065740797,-0.173148176,1,0,0,0,136,136,109,1,totaal,images/br_totaal.png,images/cb_totaal.png,0,,,,,,,,,,,,,,,,,,,,,,
,,,,,00058,2023-10-14_11h15.02.571,vbt_B1_day3,2022.2.4,Win32,59.56990528,,,,,,down,0,2.8231,,0.065740797,-0.173148176,1,0,0,0,137,137,128,1,prikken,images/br_prikken.png,images/cb_prikken.png,0,,,,,,,,,,,,,,,,,,,,,,
,,,,,00058,2023-10-14_11h15.02.571,vbt_B1_day3,2022.2.4,Win32,59.56990528,,,,,,down,0,7.3844,,0.065740797,-0.173148176,1,0,0,0,138,138,101,1,staren,images/br_staren.png,images/cb_staren.png,1,staren,,,,,,,,,,,,,,,,,,,,,
,,,,,00058,2023-10-14_11h15.02.571,vbt_B1_day3,2022.2.4,Win32,59.56990528,,,,,,down,0,0.2001,,0.065740797,-0.173148176,1,0,0,0,139,139,33,1,vlek,images/br_vlek.png,images/cb_vlek.png,0,,,,,,,,,,,,,,,,,,,,,,
,,,,,00058,2023-10-14_11h15.02.571,vbt_B1_day3,2022.2.4,Win32,59.56990528,,,,,,down,0,2.5584,,0.065740797,-0.173148176,1,0,0,0,140,140,167,1,eenhoorn,images/br_eenhoorn.png,images/cb_eenhoorn.png,0,,,,,,,,,,,,,,,,,,,,,,
,,,,,00058,2023-10-14_11h15.02.571,vbt_B1_day3,2022.2.4,Win32,59.56990528,,,,,,down,0,1.9969,,0.065740797,-0.173148176,1,0,0,0,141,141,152,1,afnemen,images/br_afnemen.png,images/cb_afnemen.png,0,,,,,,,,,,,,,,,,,,,,,,
,,,,,00058,2023-10-14_11h15.02.571,vbt_B1_day3,2022.2.4,Win32,59.56990528,,,,,,down,0,4.8035,,0.065740797,-0.173148176,1,0,0,0,142,142,68,1,schat,images/br_schat.png,images/cb_schat.png,0,,,,,,,,,,,,,,,,,,,,,,
,,,,,00058,2023-10-14_11h15.02.571,vbt_B1_day3,2022.2.4,Win32,59.56990528,,,,,,down,0,3.4146,,0.065740797,-0.173148176,1,0,0,0,143,143,65,1,parel,images/br_parel.png,images/cb_parel.png,0,,,,,,,,,,,,,,,,,,,,,,
,,,,,00058,2023-10-14_11h15.02.571,vbt_B1_day3,2022.2.4,Win32,59.56990528,,,,,,down,0,3.8145,,0.065740797,-0.173148176,1,0,0,0,144,144,170,1,schatten,images/br_schatten.png,images/cb_schatten.png,0,,,,,,,,,,,,,,,,,,,,,,
,,,,,00058,2023-10-14_11h15.02.571,vbt_B1_day3,2022.2.4,Win32,59.56990528,,,,,,down,0,5.3456,,0.065740797,-0.173148176,1,0,0,0,145,145,28,1,stal,images/br_stal.png,images/cb_stal.png,0,,,,,,,,,,,,,,,,,,,,,,
,,,,,00058,2023-10-14_11h15.02.571,vbt_B1_day3,2022.2.4,Win32,59.56990528,,,,,,down,0,3.0459,,0.065740797,-0.173148176,1,0,0,0,146,146,79,1,nodig,images/br_nodig.png,images/cb_nodig.png,0,,,,,,,,,,,,,,,,,,,,,,
,,,,,00058,2023-10-14_11h15.02.571,vbt_B1_day3,2022.2.4,Win32,59.56990528,,,,,,down,0,4.0714,,0.065740797,-0.173148176,1,0,0,0,147,147,58,1,tekst,images/br_tekst.png,images/cb_tekst.png,0,,,,,,,,,,,,,,,,,,,,,,
,,,,,00058,2023-10-14_11h15.02.571,vbt_B1_day3,2022.2.4,Win32,59.56990528,,,,,,down,0,5.4116,,0.065740797,-0.173148176,1,0,0,0,148,148,91,1,gezond,images/br_gezond.png,images/cb_gezond.png,0,,,,,,,,,,,,,,,,,,,,,,
,,,,,00058,2023-10-14_11h15.02.571,vbt_B1_day3,2022.2.4,Win32,59.56990528,,,,,,down,0,2.3321,,0.065740797,-0.173148176,1,0,0,0,149,149,32,1,palm,images/br_palm.png,images/cb_palm.png,0,,,,,,,,,,,,,,,,,,,,,,
,,,,,00058,2023-10-14_11h15.02.571,vbt_B1_day3,2022.2.4,Win32,59.56990528,,,,,,down,0,3.2149,,0.065740797,-0.173148176,1,0,0,0,150,150,163,1,schuilen,images/br_schuilen.png,images/cb_schuilen.png,0,,,,,,,,,,,,,,,,,,,,,,
,,,,,00058,2023-10-14_11h15.02.571,vbt_B1_day3,2022.2.4,Win32,59.56990528,,,,,,down,0,1.5463,,0.065740797,-0.173148176,1,0,0,0,151,151,190,1,goedkoop,images/br_goedkoop.png,images/cb_goedkoop.png,0,,,,,,,,,,,,,,,,,,,,,,
,,,,,00058,2023-10-14_11h15.02.571,vbt_B1_day3,2022.2.4,Win32,59.56990528,,,,,,down,0,6.9127,,0.065740797,-0.173148176,1,0,0,0,152,152,24,1,jurk,images/br_jurk.png,images/cb_jurk.png,0,,,,,,,,,,,,,,,,,,,,,,
,,,,,00058,2023-10-14_11h15.02.571,vbt_B1_day3,2022.2.4,Win32,59.56990528,,,,,,down,0,3.9504,,0.065740797,-0.173148176,1,0,0,0,153,153,158,1,innemen,images/br_innemen.png,images/cb_innemen.png,0,,,,,,,,,,,,,,,,,,,,,,
,,,,,00058,2023-10-14_11h15.02.571,vbt_B1_day3,2022.2.4,Win32,59.56990528,,,,,,down,0,3.1788,,0.065740797,-0.173148176,1,0,0,0,154,154,51,1,samen,images/br_samen.png,images/cb_samen.png,0,,,,,,,,,,,,,,,,,,,,,,
,,,,,00058,2023-10-14_11h15.02.571,vbt_B1_day3,2022.2.4,Win32,59.56990528,,,,,,down,0,3.5426,,0.065740797,-0.173148176,1,0,0,0,155,155,59,1,kring,images/br_kring.png,images/cb_kring.png,0,,,,,,,,,,,,,,,,,,,,,,
,,,,,00058,2023-10-14_11h15.02.571,vbt_B1_day3,2022.2.4,Win32,59.56990528,,,,,,down,0,0.7499,,0.065740797,-0.173148176,1,0,0,0,156,156,119,1,liefje,images/br_liefje.png,images/cb_liefje.png,0,,,,,,,,,,,,,,,,,,,,,,
,,,,,00058,2023-10-14_11h15.02.571,vbt_B1_day3,2022.2.4,Win32,59.56990528,,,,,,down,0,4.8169,,0.065740797,-0.173148176,1,0,0,0,157,157,76,1,afval,images/br_afval.png,images/cb_afval.png,0,,,,,,,,,,,,,,,,,,,,,,
,,,,,00058,2023-10-14_11h15.02.571,vbt_B1_day3,2022.2.4,Win32,59.56990528,,,,,,down,0,1.7796,,0.065740797,-0.173148176,1,0,0,0,158,158,177,1,maaltijd,images/br_maaltijd.png,images/cb_maaltijd.png,0,,,,,,,,,,,,,,,,,,,,,,
,,,,,00058,2023-10-14_11h15.02.571,vbt_B1_day3,2022.2.4,Win32,59.56990528,,,,,,down,0,3.2155,,0.065740797,-0.173148176,1,0,0,0,159,159,50,1,stoom,images/br_stoom.png,images/cb_stoom.png,0,,,,,,,,,,,,,,,,,,,,,,
,,,,,00058,2023-10-14_11h15.02.571,vbt_B1_day3,2022.2.4,Win32,59.56990528,,,,,,down,0,4.2151,,0.065740797,-0.173148176,1,0,0,0,160,160,197,1,spanning,images/br_spanning.png,images/cb_spanning.png,0,,,,,,,,,,,,,,,,,,,,,,
,,,,,00058,2023-10-14_11h15.02.571,vbt_B1_day3,2022.2.4,Win32,59.56990528,,,,,,down,0,2.3396,,0.065740797,-0.173148176,1,0,0,0,161,161,195,1,middelen,images/br_middelen.png,images/cb_middelen.png,0,,,,,,,,,,,,,,,,,,,,,,
,,,,,00058,2023-10-14_11h15.02.571,vbt_B1_day3,2022.2.4,Win32,59.56990528,,,,,,down,0,5.8289,,0.065740797,-0.173148176,1,0,0,0,162,162,196,1,nakijken,images/br_nakijken.png,images/cb_nakijken.png,0,,,,,,,,,,,,,,,,,,,,,,
,,,,,00058,2023-10-14_11h15.02.571,vbt_B1_day3,2022.2.4,Win32,59.56990528,,,,,,down,0,2.1628,,0.065740797,-0.173148176,1,0,0,0,163,163,27,1,dans,images/br_dans.png,images/cb_dans.png,0,,,,,,,,,,,,,,,,,,,,,,
,,,,,00058,2023-10-14_11h15.02.571,vbt_B1_day3,2022.2.4,Win32,59.56990528,,,,,,down,0,0.6635,,0.065740797,-0.173148176,1,0,0,0,164,164,11,1,mode,images/br_mode.png,images/cb_mode.png,0,,,,,,,,,,,,,,,,,,,,,,
,,,,,00058,2023-10-14_11h15.02.571,vbt_B1_day3,2022.2.4,Win32,59.56990528,,,,,,down,0,0.6635,,0.065740797,-0.173148176,1,0,0,0,165,165,6,1,diep,images/br_diep.png,images/cb_diep.png,0,,,,,,,,,,,,,,,,,,,,,,
,,,,,00058,2023-10-14_11h15.02.571,vbt_B1_day3,2022.2.4,Win32,59.56990528,,,,,,down,0,6.3959,,0.065740797,-0.173148176,1,0,0,0,166,166,143,1,hechten,images/br_hechten.png,images/cb_hechten.png,1,hechten,,,,,,,,,,,,,,,,,,,,,
,,,,,00058,2023-10-14_11h15.02.571,vbt_B1_day3,2022.2.4,Win32,59.56990528,,,,,,down,0,7.1123,,0.065740797,-0.173148176,1,0,0,0,167,167,54,1,gebit,images/br_gebit.png,images/cb_gebit.png,0,,,,,,,,,,,,,,,,,,,,,,
,,,,,00058,2023-10-14_11h15.02.571,vbt_B1_day3,2022.2.4,Win32,59.56990528,,,,,,down,0,3.1273,,0.065740797,-0.173148176,1,0,0,0,168,168,189,1,aanraden,images/br_aanraden.png,images/cb_aanraden.png,0,,,,,,,,,,,,,,,,,,,,,,
,,,,,00058,2023-10-14_11h15.02.571,vbt_B1_day3,2022.2.4,Win32,59.56990528,,,,,,down,0,2.7013,,0.065740797,-0.173148176,1,0,0,0,169,169,35,1,lust,images/br_lust.png,images/cb_lust.png,0,,,,,,,,,,,,,,,,,,,,,,
,,,,,00058,2023-10-14_11h15.02.571,vbt_B1_day3,2022.2.4,Win32,59.56990528,,,,,,down,0,4.7829,,0.065740797,-0.173148176,1,0,0,0,170,170,198,1,bedoelen,images/br_bedoelen.png,images/cb_bedoelen.png,0,,,,,,,,,,,,,,,,,,,,,,
,,,,,00058,2023-10-14_11h15.02.571,vbt_B1_day3,2022.2.4,Win32,59.56990528,,,,,,down,0,18.4748,,0.065740797,-0.173148176,1,0,0,0,171,171,111,1,ticket,images/br_ticket.png,images/cb_ticket.png,0,,,,,,,,,,,,,,,,,,,,,,
,,,,,00058,2023-10-14_11h15.02.571,vbt_B1_day3,2022.2.4,Win32,59.56990528,,,,,,down,0,4.3169,,0.065740797,-0.173148176,1,0,0,0,172,172,98,1,kreeft,images/br_kreeft.png,images/cb_kreeft.png,0,,,,,,,,,,,,,,,,,,,,,,
,,,,,00058,2023-10-14_11h15.02.571,vbt_B1_day3,2022.2.4,Win32,59.56990528,,,,,,down,0,4.3477,,0.065740797,-0.173148176,1,0,0,0,173,173,57,1,steek,images/br_steek.png,images/cb_steek.png,0,,,,,,,,,,,,,,,,,,,,,,
,,,,,00058,2023-10-14_11h15.02.571,vbt_B1_day3,2022.2.4,Win32,59.56990528,,,,,,down,0,4.3473,,0.065740797,-0.173148176,1,0,0,0,174,174,179,1,woestijn,images/br_woestijn.png,images/cb_woestijn.png,0,,,,,,,,,,,,,,,,,,,,,,
,,,,,00058,2023-10-14_11h15.02.571,vbt_B1_day3,2022.2.4,Win32,59.56990528,,,,,,down,0,7.5833,,0.065740797,-0.173148176,1,0,0,0,175,175,144,1,eetlust,images/br_eetlust.png,images/cb_eetlust.png,0,,,,,,,,,,,,,,,,,,,,,,
,,,,,00058,2023-10-14_11h15.02.571,vbt_B1_day3,2022.2.4,Win32,59.56990528,,,,,,down,0,11.0754,,0.065740797,-0.173148176,1,0,0,0,176,176,176,1,techniek,images/br_techniek.png,images/cb_techniek.png,0,,,,,,,,,,,,,,,,,,,,,,
,,,,,00058,2023-10-14_11h15.02.571,vbt_B1_day3,2022.2.4,Win32,59.56990528,,,,,,down,0,8.2707,,0.065740797,-0.173148176,1,0,0,0,177,177,81,1,dubbel,images/br_dubbel.png,images/cb_dubbel.png,0,,,,,,,,,,,,,,,,,,,,,,
,,,,,00058,2023-10-14_11h15.02.571,vbt_B1_day3,2022.2.4,Win32,59.56990528,,,,,,down,0,3.7638,,0.065740797,-0.173148176,1,0,0,0,178,178,193,1,weeshuis,images/br_weeshuis.png,images/cb_weeshuis.png,0,,,,,,,,,,,,,,,,,,,,,,
,,,,,00058,2023-10-14_11h15.02.571,vbt_B1_day3,2022.2.4,Win32,59.56990528,,,,,,down,0,5.4297,,0.065740797,-0.173148176,1,0,0,0,179,179,20,1,site,images/br_site.png,images/cb_site.png,1,site,,,,,,,,,,,,,,,,,,,,,
,,,,,00058,2023-10-14_11h15.02.571,vbt_B1_day3,2022.2.4,Win32,59.56990528,,,,,,down,0,5.968,,0.065740797,-0.173148176,1,0,0,0,180,180,37,1,mijn,images/br_mijn.png,images/cb_mijn.png,0,,,,,,,,,,,,,,,,,,,,,,
,,,,,00058,2023-10-14_11h15.02.571,vbt_B1_day3,2022.2.4,Win32,59.56990528,,,,,,down,0,3.0923,,0.065740797,-0.173148176,1,0,0,0,181,181,67,1,zwart,images/br_zwart.png,images/cb_zwart.png,0,,,,,,,,,,,,,,,,,,,,,,
,,,,,00058,2023-10-14_11h15.02.571,vbt_B1_day3,2022.2.4,Win32,59.56990528,,,,,,down,0,4.1607,,0.065740797,-0.173148176,1,0,0,0,182,182,62,1,knaap,images/br_knaap.png,images/cb_knaap.png,1,knaap,,,,,,,,,,,,,,,,,,,,,
,,,,,00058,2023-10-14_11h15.02.571,vbt_B1_day3,2022.2.4,Win32,59.56990528,,,,,,down,0,16.9516,,0.065740797,-0.173148176,1,0,0,0,183,183,133,1,seizoen,images/br_seizoen.png,images/cb_seizoen.png,0,,,,,,,,,,,,,,,,,,,,,,
,,,,,00058,2023-10-14_11h15.02.571,vbt_B1_day3,2022.2.4,Win32,59.56990528,,,,,,down,0,3.233,,0.065740797,-0.173148176,1,0,0,0,184,184,78,1,leren,images/br_leren.png,images/cb_leren.png,0,,,,,,,,,,,,,,,,,,,,,,
,,,,,00058,2023-10-14_11h15.02.571,vbt_B1_day3,2022.2.4,Win32,59.56990528,,,,,,down,0,10.2146,,0.062963019,-0.163888889,1,0,0,0,185,185,173,1,apparaat,images/br_apparaat.png,images/cb_apparaat.png,0,,,,,,,,,,,,,,,,,,,,,,
,,,,,00058,2023-10-14_11h15.02.571,vbt_B1_day3,2022.2.4,Win32,59.56990528,,,,,,down,0,6.3514,,-0.073148092,0.175,1,0,0,0,186,186,93,1,waarop,images/br_waarop.png,images/cb_waarop.png,0,,,,,,,,,,,,,,,,,,,,,,
,,,,,00058,2023-10-14_11h15.02.571,vbt_B1_day3,2022.2.4,Win32,59.56990528,,,,,,down,0,13.7393,,-0.073148092,0.175,1,0,0,0,187,187,161,1,attentie,images/br_attentie.png,images/cb_attentie.png,0,,,,,,,,,,,,,,,,,,,,,,
,,,,,00058,2023-10-14_11h15.02.571,vbt_B1_day3,2022.2.4,Win32,59.56990528,,,,,,down,0,5.472,,-0.073148092,0.175,1,0,0,0,188,188,142,1,snuiven,images/br_snuiven.png,images/cb_snuiven.png,1,snuiven,,,,,,,,,,,,,,,,,,,,,
,,,,,00058,2023-10-14_11h15.02.571,vbt_B1_day3,2022.2.4,Win32,59.56990528,,,,,,down,0,6.2754,,-0.073148092,0.175,1,0,0,0,189,189,53,1,baron,images/br_baron.png,images/cb_baron.png,0,,,,,,,,,,,,,,,,,,,,,,
,,,,,00058,2023-10-14_11h15.02.571,vbt_B1_day3,2022.2.4,Win32,59.56990528,,,,,,down,0,5.1636,,-0.073148092,0.175,1,0,0,0,190,190,124,1,bloeien,images/br_bloeien.png,images/cb_bloeien.png,0,,,,,,,,,,,,,,,,,,,,,,
,,,,,00058,2023-10-14_11h15.02.571,vbt_B1_day3,2022.2.4,Win32,59.56990528,,,,,,down,0,7.6141,,-0.073148092,0.175,1,0,0,0,191,191,139,1,stiekem,images/br_stiekem.png,images/cb_stiekem.png,0,,,,,,,,,,,,,,,,,,,,,,
,,,,,00058,2023-10-14_11h15.02.571,vbt_B1_day3,2022.2.4,Win32,59.56990528,,,,,,down,0,4.7704,,-0.073148092,0.175,1,0,0,0,192,192,126,1,kasteel,images/br_kasteel.png,images/cb_kasteel.png,0,,,,,,,,,,,,,,,,,,,,,,
,,,,,00058,2023-10-14_11h15.02.571,vbt_B1_day3,2022.2.4,Win32,59.56990528,,,,,,down,0,1.9723,,-0.073148092,0.175,1,0,0,0,193,193,64,1,wegen,images/br_wegen.png,images/cb_wegen.png,0,,,,,,,,,,,,,,,,,,,,,,
,,,,,00058,2023-10-14_11h15.02.571,vbt_B1_day3,2022.2.4,Win32,59.56990528,,,,,,down,0,2.0707,,-0.073148092,0.175,1,0,0,0,194,194,12,1,kust,images/br_kust.png,images/cb_kust.png,0,,,,,,,,,,,,,,,,,,,,,,
,,,,,00058,2023-10-14_11h15.02.571,vbt_B1_day3,2022.2.4,Win32,59.56990528,,,,,,down,0,2.6198,,-0.073148092,0.175,1,0,0,0,195,195,7,1,geld,images/br_geld.png,images/cb_geld.png,0,,,,,,,,,,,,,,,,,,,,,,
,,,,,00058,2023-10-14_11h15.02.571,vbt_B1_day3,2022.2.4,Win32,59.56990528,,,,,,down,0,7.4602,,-0.073148092,0.175,1,0,0,0,196,196,185,1,mijnheer,images/br_mijnheer.png,images/cb_mijnheer.png,0,,,,,,,,,,,,,,,,,,,,,,
,,,,,00058,2023-10-14_11h15.02.571,vbt_B1_day3,2022.2.4,Win32,59.56990528,,,,,,down,0,7.2361,,-0.073148092,0.175,1,0,0,0,197,197,100,1,geduld,images/br_geduld.png,images/cb_geduld.png,1,geduld,,,,,,,,,,,,,,,,,,,,,
,,,,,00058,2023-10-14_11h15.02.571,vbt_B1_day3,2022.2.4,Win32,59.56990528,,,,,,down,0,3.4558,,-0.073148092,0.175,1,0,0,0,198,198,192,1,schaamte,images/br_schaamte.png,images/cb_schaamte.png,0,,,,,,,,,,,,,,,,,,,,,,
,,,,,00058,2023-10-14_11h15.02.571,vbt_B1_day3,2022.2.4,Win32,59.56990528,,,,,,down,0,4.1979,,-0.073148092,0.175,1,0,0,0,199,199,0,1,slak,images/br_slak.png,images/cb_slak.png,0,,,,,,,,,,,,,,,,,,,,,,
,,,,,00058,2023-10-14_11h15.02.571,vbt_B1_day3,2022.2.4,Win32,59.56990528,,,,,,,,,,,,,,,,,,,,,,,,,0.575926039,-0.499074131,1,0,0,,,,,,,,,,,,,,,,
,,,,,00058,2023-10-14_11h15.02.571,vbt_B1_day3,2022.2.4,Win32,59.56990528,,,,,,,,,,,,,,,,,,,,,,,,,,,,,,0.674074131,-0.499074131,1,0,0,,,,,,,,,,,
,,,,,00058,2023-10-14_11h15.02.571,vbt_B1_day3,2022.2.4,Win32,59.56990528,,,,,,,,,,,,,,,,,,,,leemaken,images/br_leemaken.png,images/cb_leemaken.png,,leemmaken,,,,,,,,,,,0.415740797,-0.134259288,1,0,0,leemmaken,0,0,0,39,1
,,,,,00058,2023-10-14_11h15.02.571,vbt_B1_day3,2022.2.4,Win32,59.56990528,,,,,,,,,,,,,,,,,,,,uniek,images/br_uniek.png,images/cb_uniek.png,,uniek,,,,,,,,,,,0.415740797,-0.134259288,1,0,0,uniek,0,1,1,46,1
,,,,,00058,2023-10-14_11h15.02.571,vbt_B1_day3,2022.2.4,Win32,59.56990528,,,,,,,,,,,,,,,,,,,,leugeren,images/br_leugeren.png,images/cb_leugeren.png,,luigeken,,,,,,,,,,,0.415740797,-0.134259288,1,0,0,luigeken,0,2,2,37,1
,,,,,00058,2023-10-14_11h15.02.571,vbt_B1_day3,2022.2.4,Win32,59.56990528,,,,,,,,,,,,,,,,,,,,onrecht,images/br_onrecht.png,images/cb_onrecht.png,,onrecht,,,,,,,,,,,0.415740797,-0.134259288,1,0,0,onrecht,0,3,3,55,1
,,,,,00058,2023-10-14_11h15.02.571,vbt_B1_day3,2022.2.4,Win32,59.56990528,,,,,,,,,,,,,,,,,,,,leek,images/br_leek.png,images/cb_leek.png,,leek,,,,,,,,,,,0.415740797,-0.134259288,1,0,0,leek,0,4,4,2,1
,,,,,00058,2023-10-14_11h15.02.571,vbt_B1_day3,2022.2.4,Win32,59.56990528,,,,,,,,,,,,,,,,,,,,kest,images/br_kest.png,images/cb_kest.png,,kist,,,,,,,,,,,0.415740797,-0.136111111,1,0,0,kist,0,5,5,21,1
,,,,,00058,2023-10-14_11h15.02.571,vbt_B1_day3,2022.2.4,Win32,59.56990528,,,,,,,,,,,,,,,,,,,,dwang,images/br_dwang.png,images/cb_dwang.png,,dwang,,,,,,,,,,,0.415740797,-0.136111111,1,0,0,dwang,0,6,6,47,1
,,,,,00058,2023-10-14_11h15.02.571,vbt_B1_day3,2022.2.4,Win32,59.56990528,,,,,,,,,,,,,,,,,,,,bisschop,images/br_bisschop.png,images/cb_bisschop.png,,bisschop,,,,,,,,,,,0.392592621,-0.19629631,1,0,0,bisschop,0,7,7,16,1
,,,,,00058,2023-10-14_11h15.02.571,vbt_B1_day3,2022.2.4,Win32,59.56990528,,,,,,,,,,,,,,,,,,,,beslag,images/br_beslag.png,images/cb_beslag.png,,beslag,,,,,,,,,,,0.392592621,-0.19629631,1,0,0,beslag,0,8,8,51,1
,,,,,00058,2023-10-14_11h15.02.571,vbt_B1_day3,2022.2.4,Win32,59.56990528,,,,,,,,,,,,,,,,,,,,sultan,images/br_sultan.png,images/cb_sultan.png,,sultan,,,,,,,,,,,0.392592621,-0.19629631,1,0,0,sultan,0,9,9,49,1
,,,,,00058,2023-10-14_11h15.02.571,vbt_B1_day3,2022.2.4,Win32,59.56990528,,,,,,,,,,,,,,,,,,,,stikken,images/br_stikken.png,images/cb_stikken.png,,stikken,,,,,,,,,,,0.332407464,-0.186111111,1,0,0,stikken,0,10,10,54,1
,,,,,00058,2023-10-14_11h15.02.571,vbt_B1_day3,2022.2.4,Win32,59.56990528,,,,,,,,,,,,,,,,,,,,makieren,images/br_makieren.png,images/cb_makieren.png,,manieren,,,,,,,,,,,0.332407464,-0.186111111,1,0,0,manieren,0,11,11,36,1
,,,,,00058,2023-10-14_11h15.02.571,vbt_B1_day3,2022.2.4,Win32,59.56990528,,,,,,,,,,,,,,,,,,,,zone,images/br_zone.png,images/cb_zone.png,,zone,,,,,,,,,,,0.332407464,-0.186111111,1,0,0,zone,0,12,12,41,1
,,,,,00058,2023-10-14_11h15.02.571,vbt_B1_day3,2022.2.4,Win32,59.56990528,,,,,,,,,,,,,,,,,,,,kwaas,images/br_kwaas.png,images/cb_kwaas.png,,kwaas,,,,,,,,,,,0.332407464,-0.186111111,1,0,0,kwaas,0,13,13,26,1
,,,,,00058,2023-10-14_11h15.02.571,vbt_B1_day3,2022.2.4,Win32,59.56990528,,,,,,,,,,,,,,,,,,,,steel,images/br_steel.png,images/cb_steel.png,,steel,,,,,,,,,,,0.332407464,-0.186111111,1,0,0,steel,0,14,14,4,1
,,,,,00058,2023-10-14_11h15.02.571,vbt_B1_day3,2022.2.4,Win32,59.56990528,,,,,,,,,,,,,,,,,,,,schodel,images/br_schodel.png,images/cb_schodel.png,,schodel,,,,,,,,,,,0.332407464,-0.186111111,1,0,0,schodel,0,15,15,33,1
,,,,,00058,2023-10-14_11h15.02.571,vbt_B1_day3,2022.2.4,Win32,59.56990528,,,,,,,,,,,,,,,,,,,,stallen,images/br_stallen.png,images/cb_stallen.png,,stallen,,,,,,,,,,,0.332407464,-0.186111111,1,0,0,stallen,0,16,16,52,1
,,,,,00058,2023-10-14_11h15.02.571,vbt_B1_day3,2022.2.4,Win32,59.56990528,,,,,,,,,,,,,,,,,,,,knie,images/br_knie.png,images/cb_knie.png,,knie,,,,,,,,,,,0.332407464,-0.186111111,1,0,0,knie,0,17,17,0,1
,,,,,00058,2023-10-14_11h15.02.571,vbt_B1_day3,2022.2.4,Win32,59.56990528,,,,,,,,,,,,,,,,,,,,samen,images/br_samen.png,images/cb_samen.png,,samen,,,,,,,,,,,0.393518575,-0.203703732,1,0,0,samen,0,18,18,7,1
,,,,,00058,2023-10-14_11h15.02.571,vbt_B1_day3,2022.2.4,Win32,59.56990528,,,,,,,,,,,,,,,,,,,,stoom,images/br_stoom.png,images/cb_stoom.png,,stoom,,,,,,,,,,,0.424074131,-0.209259288,1,0,0,stoom,0,19,19,6,1
,,,,,00058,2023-10-14_11h15.02.571,vbt_B1_day3,2022.2.4,Win32,59.56990528,,,,,,,,,,,,,,,,,,,,mugeek,images/br_mugeek.png,images/cb_mugeek.png,,muggek,,,,,,,,,,,0.428703732,-0.210185199,1,0,0,muggek,0,20,20,29,1
,,,,,00058,2023-10-14_11h15.02.571,vbt_B1_day3,2022.2.4,Win32,59.56990528,,,,,,,,,,,,,,,,,,,,croo,images/br_croo.png,images/cb_croo.png,,croo,,,,,,,,,,,0.307407464,-0.175,1,0,0,croo,0,21,21,22,1
,,,,,00058,2023-10-14_11h15.02.571,vbt_B1_day3,2022.2.4,Win32,59.56990528,,,,,,,,,,,,,,,,,,,,schatten,images/br_schatten.png,images/cb_schatten.png,,schatten,,,,,,,,,,,0.307407464,-0.175,1,0,0,schatten,0,22,22,18,1
,,,,,00058,2023-10-14_11h15.02.571,vbt_B1_day3,2022.2.4,Win32,59.56990528,,,,,,,,,,,,,,,,,,,,alsof,images/br_alsof.png,images/cb_alsof.png,,alsof,,,,,,,,,,,0.307407464,-0.175,1,0,0,alsof,0,23,23,44,1
,,,,,00058,2023-10-14_11h15.02.571,vbt_B1_day3,2022.2.4,Win32,59.56990528,,,,,,,,,,,,,,,,,,,,begrip,images/br_begrip.png,images/cb_begrip.png,,begrip,,,,,,,,,,,0.322222222,-0.178703732,1,0,0,begrip,0,24,24,48,1
,,,,,00058,2023-10-14_11h15.02.571,vbt_B1_day3,2022.2.4,Win32,59.56990528,,,,,,,,,,,,,,,,,,,,hust,images/br_hust.png,images/cb_hust.png,,hust,,,,,,,,,,,0.297222222,-0.218518575,1,0,0,hust,0,25,25,23,1
,,,,,00058,2023-10-14_11h15.02.571,vbt_B1_day3,2022.2.4,Win32,59.56990528,,,,,,,,,,,,,,,,,,,,prikken,images/br_prikken.png,images/cb_prikken.png,,prikken,,,,,,,,,,,0.297222222,-0.218518575,1,0,0,prikken,0,26,26,12,1
,,,,,00058,2023-10-14_11h15.02.571,vbt_B1_day3,2022.2.4,Win32,59.56990528,,,,,,,,,,,,,,,,,,,,gezond,images/br_gezond.png,images/cb_gezond.png,,gezond,,,,,,,,,,,0.297222222,-0.218518575,1,0,0,gezond,0,27,27,11,1
,,,,,00058,2023-10-14_11h15.02.571,vbt_B1_day3,2022.2.4,Win32,59.56990528,,,,,,,,,,,,,,,,,,,,slapen,images/br_slapen.png,images/cb_slapen.png,,slapen,,,,,,,,,,,0.297222222,-0.218518575,1,0,0,slapen,0,28,28,9,1
,,,,,00058,2023-10-14_11h15.02.571,vbt_B1_day3,2022.2.4,Win32,59.56990528,,,,,,,,,,,,,,,,,,,,verhaal,images/br_verhaal.png,images/cb_verhaal.png,,verhaal,,,,,,,,,,,0.300925954,-0.207407422,1,0,0,verhaal,0,29,29,13,1
,,,,,00058,2023-10-14_11h15.02.571,vbt_B1_day3,2022.2.4,Win32,59.56990528,,,,,,,,,,,,,,,,,,,,vlager,images/br_vlager.png,images/cb_vlager.png,,vlager,,,,,,,,,,,0.323148176,-0.207407422,1,0,0,vlager,0,30,30,28,1
,,,,,00058,2023-10-14_11h15.02.571,vbt_B1_day3,2022.2.4,Win32,59.56990528,,,,,,,,,,,,,,,,,,,,hier,images/br_hier.png,images/cb_hier.png,,hier,,,,,,,,,,,0.315740797,-0.207407422,1,0,0,hier,0,31,31,1,1
,,,,,00058,2023-10-14_11h15.02.571,vbt_B1_day3,2022.2.4,Win32,59.56990528,,,,,,,,,,,,,,,,,,,,keihard,images/br_keihard.png,images/cb_keihard.png,,keihard,,,,,,,,,,,0.315740797,-0.207407422,1,0,0,keihard,0,32,32,14,1
,,,,,00058,2023-10-14_11h15.02.571,vbt_B1_day3,2022.2.4,Win32,59.56990528,,,,,,,,,,,,,,,,,,,,gout,images/br_gout.png,images/cb_gout.png,,gout,,,,,,,,,,,0.315740797,-0.207407422,1,0,0,gout,0,33,33,20,1
,,,,,00058,2023-10-14_11h15.02.571,vbt_B1_day3,2022.2.4,Win32,59.56990528,,,,,,,,,,,,,,,,,,,,afbopen,images/br_afbopen.png,images/cb_afbopen.png,,afcoppen,,,,,,,,,,,0.401851908,-0.222222222,1,0,0,afcoppen,0,34,34,34,1
,,,,,00058,2023-10-14_11h15.02.571,vbt_B1_day3,2022.2.4,Win32,59.56990528,,,,,,,,,,,,,,,,,,,,geluid,images/br_geluid.png,images/cb_geluid.png,,geluid,,,,,,,,,,,0.4,-0.221296353,1,0,0,geluid,0,35,35,10,1
,,,,,00058,2023-10-14_11h15.02.571,vbt_B1_day3,2022.2.4,Win32,59.56990528,,,,,,,,,,,,,,,,,,,,mode,images/br_mode.png,images/cb_mode.png,,mode,,,,,,,,,,,0.374074131,-0.224074131,1,0,0,mode,0,36,36,3,1
,,,,,00058,2023-10-14_11h15.02.571,vbt_B1_day3,2022.2.4,Win32,59.56990528,,,,,,,,,,,,,,,,,,,,jongelui,images/br_jongelui.png,images/cb_jongelui.png,,jongel..,,,,,,,,,,,0.320370399,-0.221296353,1,0,0,jongel..,0,37,37,59,1
,,,,,00058,2023-10-14_11h15.02.571,vbt_B1_day3,2022.2.4,Win32,59.56990528,,,,,,,,,,,,,,,,,,,,sluier,images/br_sluier.png,images/cb_sluier.png,,sluier,,,,,,,,,,,0.345370399,-0.213888889,1,0,0,sluier,0,38,38,50,1
,,,,,00058,2023-10-14_11h15.02.571,vbt_B1_day3,2022.2.4,Win32,59.56990528,,,,,,,,,,,,,,,,,,,,eens,images/br_eens.png,images/cb_eens.png,,eens,,,,,,,,,,,0.321296353,-0.213888889,1,0,0,eens,0,39,39,40,1
,,,,,00058,2023-10-14_11h15.02.571,vbt_B1_day3,2022.2.4,Win32,59.56990528,,,,,,,,,,,,,,,,,,,,brappen,images/br_brappen.png,images/cb_brappen.png,,brappen,,,,,,,,,,,0.321296353,-0.213888889,1,0,0,brappen,0,40,40,35,1
,,,,,00058,2023-10-14_11h15.02.571,vbt_B1_day3,2022.2.4,Win32,59.56990528,,,,,,,,,,,,,,,,,,,,opzetten,images/br_opzetten.png,images/cb_opzetten.png,,opzitten,,,,,,,,,,,0.437963019,-0.187962977,1,0,0,opzitten,0,41,41,56,1
,,,,,00058,2023-10-14_11h15.02.571,vbt_B1_day3,2022.2.4,Win32,59.56990528,,,,,,,,,,,,,,,,,,,,gebod,images/br_gebod.png,images/cb_gebod.png,,gebod,,,,,,,,,,,0.426851908,-0.195370399,1,0,0,gebod,0,42,42,45,1
,,,,,00058,2023-10-14_11h15.02.571,vbt_B1_day3,2022.2.4,Win32,59.56990528,,,,,,,,,,,,,,,,,,,,opzicht,images/br_opzicht.png,images/cb_opzicht.png,,opzicht,,,,,,,,,,,0.426851908,-0.195370399,1,0,0,opzicht,0,43,43,15,1
,,,,,00058,2023-10-14_11h15.02.571,vbt_B1_day3,2022.2.4,Win32,59.56990528,,,,,,,,,,,,,,,,,,,,laken,images/br_laken.png,images/cb_laken.png,,laken,,,,,,,,,,,0.380555556,-0.197222222,1,0,0,laken,0,44,44,5,1
,,,,,00058,2023-10-14_11h15.02.571,vbt_B1_day3,2022.2.4,Win32,59.56990528,,,,,,,,,,,,,,,,,,,,invallen,images/br_invallen.png,images/cb_invallen.png,,invallen,,,,,,,,,,,0.380555556,-0.197222222,1,0,0,invallen,0,45,45,57,1
,,,,,00058,2023-10-14_11h15.02.571,vbt_B1_day3,2022.2.4,Win32,59.56990528,,,,,,,,,,,,,,,,,,,,twaaf,images/br_twaaf.png,images/cb_twaaf.png,,twaaf,,,,,,,,,,,0.380555556,-0.197222222,1,0,0,twaaf,0,46,46,24,1
,,,,,00058,2023-10-14_11h15.02.571,vbt_B1_day3,2022.2.4,Win32,59.56990528,,,,,,,,,,,,,,,,,,,,theeting,images/br_theeting.png,images/cb_theeting.png,,theet...,,,,,,,,,,,0.372222222,-0.211111111,1,0,0,theet...,0,47,47,38,1
,,,,,00058,2023-10-14_11h15.02.571,vbt_B1_day3,2022.2.4,Win32,59.56990528,,,,,,,,,,,,,,,,,,,,oprotten,images/br_oprotten.png,images/cb_oprotten.png,,oprotten,,,,,,,,,,,0.304629686,-0.187037065,1,0,0,oprotten,0,48,48,17,1
,,,,,00058,2023-10-14_11h15.02.571,vbt_B1_day3,2022.2.4,Win32,59.56990528,,,,,,,,,,,,,,,,,,,,verwoor,images/br_verwoor.png,images/cb_verwoor.png,,veroo.,,,,,,,,,,,0.375,-0.193518533,1,0,0,veroo.,0,49,49,32,1
,,,,,00058,2023-10-14_11h15.02.571,vbt_B1_day3,2022.2.4,Win32,59.56990528,,,,,,,,,,,,,,,,,,,,glijden,images/br_glijden.png,images/cb_glijden.png,,glijden,,,,,,,,,,,0.375,-0.193518533,1,0,0,glijden,0,50,50,53,1
,,,,,00058,2023-10-14_11h15.02.571,vbt_B1_day3,2022.2.4,Win32,59.56990528,,,,,,,,,,,,,,,,,,,,uviek,images/br_uviek.png,images/cb_uviek.png,,uviek,,,,,,,,,,,0.375,-0.193518533,1,0,0,uviek,0,51,51,25,1
,,,,,00058,2023-10-14_11h15.02.571,vbt_B1_day3,2022.2.4,Win32,59.56990528,,,,,,,,,,,,,,,,,,,,booien,images/br_booien.png,images/cb_booien.png,,booien,,,,,,,,,,,0.375,-0.193518533,1,0,0,booien,0,52,52,31,1
,,,,,00058,2023-10-14_11h15.02.571,vbt_B1_day3,2022.2.4,Win32,59.56990528,,,,,,,,,,,,,,,,,,,,paken,images/br_paken.png,images/cb_paken.png,,paken,,,,,,,,,,,0.375,-0.193518533,1,0,0,paken,0,53,53,27,1
,,,,,00058,2023-10-14_11h15.02.571,vbt_B1_day3,2022.2.4,Win32,59.56990528,,,,,,,,,,,,,,,,,,,,bevret,images/br_bevret.png,images/cb_bevret.png,,bevri..,,,,,,,,,,,0.329629686,-0.198148176,1,0,0,bevri..,0,54,54,30,1
,,,,,00058,2023-10-14_11h15.02.571,vbt_B1_day3,2022.2.4,Win32,59.56990528,,,,,,,,,,,,,,,,,,,,verraden,images/br_verraden.png,images/cb_verraden.png,,verrad..,,,,,,,,,,,0.35,-0.203703732,1,0,0,verrad..,0,55,55,58,1
,,,,,00058,2023-10-14_11h15.02.571,vbt_B1_day3,2022.2.4,Win32,59.56990528,,,,,,,,,,,,,,,,,,,,boeien,images/br_boeien.png,images/cb_boeien.png,,boeien,,,,,,,,,,,0.35,-0.203703732,1,0,0,boeien,0,56,56,8,1
,,,,,00058,2023-10-14_11h15.02.571,vbt_B1_day3,2022.2.4,Win32,59.56990528,,,,,,,,,,,,,,,,,,,,kaas,images/br_kaas.png,images/cb_kaas.png,,kaas,,,,,,,,,,,0.349074131,-0.217592621,1,0,0,kaas,0,57,57,42,1
,,,,,00058,2023-10-14_11h15.02.571,vbt_B1_day3,2022.2.4,Win32,59.56990528,,,,,,,,,,,,,,,,,,,,hint,images/br_hint.png,images/cb_hint.png,,hint,,,,,,,,,,,0.349074131,-0.217592621,1,0,0,hint,0,58,58,43,1
,,,,,00058,2023-10-14_11h15.02.571,vbt_B1_day3,2022.2.4,Win32,59.56990528,,,,,,,,,,,,,,,,,,,,aarzelen,images/br_aarzelen.png,images/cb_aarzelen.png,,aarzelen,,,,,,,,,,,0.321296353,-0.223148176,1,0,0,aarzelen,0,59,59,19,1
,,,,,00058,2023-10-14_11h15.02.571,vbt_B1_day3,2022.2.4,Win32,59.56990528,,,,,,,,,,,,,,,,,,,,,,,,,,,,,,,,,,,,,,,,,,,,,
