welcome_mouse.x,welcome_mouse.y,welcome_mouse.leftButton,welcome_mouse.midButton,welcome_mouse.rightButton,"ID",date,expName,psychopyVersion,OS,frameRate,trainInstr_mouse.x,trainInstr_mouse.y,trainInstr_mouse.leftButton,trainInstr_mouse.midButton,trainInstr_mouse.rightButton,translation_key.keys,translation_key.corr,translation_key.rt,word_rsp.text,trWrd_mouse.x,trWrd_mouse.y,trWrd_mouse.leftButton,trWrd_mouse.midButton,trWrd_mouse.rightButton,train_loop.thisRepN,train_loop.thisTrialN,train_loop.thisN,train_loop.thisIndex,train_loop.ran,nlWrd,brWrd,cbWrd,test,testResp,mouse.x,mouse.y,mouse.leftButton,mouse.midButton,mouse.rightButton,testInstr_mouse.x,testInstr_mouse.y,testInstr_mouse.leftButton,testInstr_mouse.midButton,testInstr_mouse.rightButton,test_mouse.x,test_mouse.y,test_mouse.leftButton,test_mouse.midButton,test_mouse.rightButton,test_response.text,test_loop.thisRepN,test_loop.thisTrialN,test_loop.thisN,test_loop.thisIndex,test_loop.ran
0.096365929,-0.11491549,1,0,0,00026,2023-09-05_09h36.19.225,vbt_B1_day3,2022.2.4,Linux x86_64,60.06006006,,,,,,,,,,,,,,,,,,,,,,,,,,,,,,,,,,,,,,,,,,,,,
,,,,,00026,2023-09-05_09h36.19.225,vbt_B1_day3,2022.2.4,Linux x86_64,60.06006006,0.07242767,0.026867112,1,0,0,,,,,,,,,,,,,,,,,,,,,,,,,,,,,,,,,,,,,,,,
,,,,,00026,2023-09-05_09h36.19.225,vbt_B1_day3,2022.2.4,Linux x86_64,60.06006006,,,,,,down,0,9.2208,,0.111830393,-0.121432463,1,0,0,0,0,0,193,1,weeshuis,images/br_weeshuis.png,images/cb_weeshuis.png,0,,,,,,,,,,,,,,,,,,,,,,
,,,,,00026,2023-09-05_09h36.19.225,vbt_B1_day3,2022.2.4,Linux x86_64,60.06006006,,,,,,down,0,3.2198,,-0.080931266,-0.037748774,1,0,0,0,1,1,38,1,baai,images/br_baai.png,images/cb_baai.png,0,,,,,,,,,,,,,,,,,,,,,,
,,,,,00026,2023-09-05_09h36.19.225,vbt_B1_day3,2022.2.4,Linux x86_64,60.06006006,,,,,,down,0,25.3265,,0.04989179,-0.189643462,1,0,0,0,2,2,183,1,getuigen,images/br_getuigen.png,images/cb_getuigen.png,1,getuigen,,,,,,,,,,,,,,,,,,,,,
,,,,,00026,2023-09-05_09h36.19.225,vbt_B1_day3,2022.2.4,Linux x86_64,60.06006006,,,,,,down,0,24.0491,,0.132450581,-0.117252747,1,0,0,0,3,3,199,1,beseffen,images/br_beseffen.png,images/cb_beseffen.png,0,,,,,,,,,,,,,,,,,,,,,,
,,,,,00026,2023-09-05_09h36.19.225,vbt_B1_day3,2022.2.4,Linux x86_64,60.06006006,,,,,,down,0,8.5623,,0.193792582,-0.032639186,1,0,0,0,4,4,136,1,waarbij,images/br_waarbij.png,images/cb_waarbij.png,0,,,,,,,,,,,,,,,,,,,,,,
,,,,,00026,2023-09-05_09h36.19.225,vbt_B1_day3,2022.2.4,Linux x86_64,60.06006006,,,,,,down,0,0.4111,,0.065088431,-0.043514729,1,0,0,0,5,5,13,1,kaal,images/br_kaal.png,images/cb_kaal.png,0,,,,,,,,,,,,,,,,,,,,,,
,,,,,00026,2023-09-05_09h36.19.225,vbt_B1_day3,2022.2.4,Linux x86_64,60.06006006,,,,,,down,0,4.966,,0.11563468,-0.016710162,1,0,0,0,6,6,88,1,boeien,images/br_boeien.png,images/cb_boeien.png,0,,,,,,,,,,,,,,,,,,,,,,
,,,,,00026,2023-09-05_09h36.19.225,vbt_B1_day3,2022.2.4,Linux x86_64,60.06006006,,,,,,down,0,6.7997,,0.17763114,-0.116400242,1,0,0,0,7,7,124,1,bloeien,images/br_bloeien.png,images/cb_bloeien.png,0,,,,,,,,,,,,,,,,,,,,,,
,,,,,00026,2023-09-05_09h36.19.225,vbt_B1_day3,2022.2.4,Linux x86_64,60.06006006,,,,,,down,0,1.2829,,-0.009209553,-0.084593852,1,0,0,0,8,8,83,1,mening,images/br_mening.png,images/cb_mening.png,0,,,,,,,,,,,,,,,,,,,,,,
,,,,,00026,2023-09-05_09h36.19.225,vbt_B1_day3,2022.2.4,Linux x86_64,60.06006006,,,,,,down,0,6.0661,,0.148316622,-0.032696962,1,0,0,0,9,9,187,1,opkijken,images/br_opkijken.png,images/cb_opkijken.png,0,,,,,,,,,,,,,,,,,,,,,,
,,,,,00026,2023-09-05_09h36.19.225,vbt_B1_day3,2022.2.4,Linux x86_64,60.06006006,,,,,,down,0,9.5912,,0.006617943,-0.068604509,1,0,0,0,10,10,44,1,flits,images/br_flits.png,images/cb_flits.png,0,,,,,,,,,,,,,,,,,,,,,,
,,,,,00026,2023-09-05_09h36.19.225,vbt_B1_day3,2022.2.4,Linux x86_64,60.06006006,,,,,,down,0,6.0602,,0.123878241,0.00639526,1,0,0,0,11,11,176,1,techniek,images/br_techniek.png,images/cb_techniek.png,0,,,,,,,,,,,,,,,,,,,,,,
,,,,,00026,2023-09-05_09h36.19.225,vbt_B1_day3,2022.2.4,Linux x86_64,60.06006006,,,,,,down,0,3.6144,,0.038645347,-0.282868544,1,0,0,0,12,12,22,1,stof,images/br_stof.png,images/cb_stof.png,1,stop,,,,,,,,,,,,,,,,,,,,,
,,,,,00026,2023-09-05_09h36.19.225,vbt_B1_day3,2022.2.4,Linux x86_64,60.06006006,,,,,,down,0,6.8129,,0.091050545,0.005224824,1,0,0,0,13,13,59,1,kring,images/br_kring.png,images/cb_kring.png,0,,,,,,,,,,,,,,,,,,,,,,
,,,,,00026,2023-09-05_09h36.19.225,vbt_B1_day3,2022.2.4,Linux x86_64,60.06006006,,,,,,down,0,1.8806,,0.19392395,0.001136104,1,0,0,0,14,14,89,1,slapen,images/br_slapen.png,images/cb_slapen.png,0,,,,,,,,,,,,,,,,,,,,,,
,,,,,00026,2023-09-05_09h36.19.225,vbt_B1_day3,2022.2.4,Linux x86_64,60.06006006,,,,,,down,0,21.1825,,0.08716623,-0.167962392,1,0,0,0,15,15,164,1,anarchie,images/br_anarchie.png,images/cb_anarchie.png,0,,,,,,,,,,,,,,,,,,,,,,
,,,,,00026,2023-09-05_09h36.19.225,vbt_B1_day3,2022.2.4,Linux x86_64,60.06006006,,,,,,down,0,7.1455,,0.095254024,-0.041407029,1,0,0,0,16,16,50,1,stoom,images/br_stoom.png,images/cb_stoom.png,0,,,,,,,,,,,,,,,,,,,,,,
,,,,,00026,2023-09-05_09h36.19.225,vbt_B1_day3,2022.2.4,Linux x86_64,60.06006006,,,,,,down,0,6.1833,,0.065260092,0.005894105,1,0,0,0,17,17,31,1,poes,images/br_poes.png,images/cb_poes.png,0,,,,,,,,,,,,,,,,,,,,,,
,,,,,00026,2023-09-05_09h36.19.225,vbt_B1_day3,2022.2.4,Linux x86_64,60.06006006,,,,,,down,0,4.0627,,0.058210929,-0.001888196,1,0,0,0,18,18,65,1,parel,images/br_parel.png,images/cb_parel.png,0,,,,,,,,,,,,,,,,,,,,,,
,,,,,00026,2023-09-05_09h36.19.225,vbt_B1_day3,2022.2.4,Linux x86_64,60.06006006,,,,,,down,0,4.5148,,0.069736481,0.010707299,1,0,0,0,19,19,34,1,vorm,images/br_vorm.png,images/cb_vorm.png,0,,,,,,,,,,,,,,,,,,,,,,
,,,,,00026,2023-09-05_09h36.19.225,vbt_B1_day3,2022.2.4,Linux x86_64,60.06006006,,,,,,down,0,0.6502,,0.119062662,-0.010639946,1,0,0,0,20,20,39,1,laag,images/br_laag.png,images/cb_laag.png,0,,,,,,,,,,,,,,,,,,,,,,
,,,,,00026,2023-09-05_09h36.19.225,vbt_B1_day3,2022.2.4,Linux x86_64,60.06006006,,,,,,down,0,12.3043,,0.034139792,-0.075318217,1,0,0,0,21,21,195,1,middelen,images/br_middelen.png,images/cb_middelen.png,0,,,,,,,,,,,,,,,,,,,,,,
,,,,,00026,2023-09-05_09h36.19.225,vbt_B1_day3,2022.2.4,Linux x86_64,60.06006006,,,,,,down,0,2.6912,,0.313268741,-0.01992027,1,0,0,0,22,22,109,1,totaal,images/br_totaal.png,images/cb_totaal.png,0,,,,,,,,,,,,,,,,,,,,,,
,,,,,00026,2023-09-05_09h36.19.225,vbt_B1_day3,2022.2.4,Linux x86_64,60.06006006,,,,,,down,0,5.5645,,0.112689177,-0.011864781,1,0,0,0,23,23,111,1,ticket,images/br_ticket.png,images/cb_ticket.png,0,,,,,,,,,,,,,,,,,,,,,,
,,,,,00026,2023-09-05_09h36.19.225,vbt_B1_day3,2022.2.4,Linux x86_64,60.06006006,,,,,,down,0,2.7866,,0.13166213,-0.039540847,1,0,0,0,24,24,157,1,uitlaat,images/br_uitlaat.png,images/cb_uitlaat.png,0,,,,,,,,,,,,,,,,,,,,,,
,,,,,00026,2023-09-05_09h36.19.225,vbt_B1_day3,2022.2.4,Linux x86_64,60.06006006,,,,,,down,0,9.334,,0.066161156,-0.026286125,1,0,0,0,25,25,55,1,praat,images/br_praat.png,images/cb_praat.png,0,,,,,,,,,,,,,,,,,,,,,,
,,,,,00026,2023-09-05_09h36.19.225,vbt_B1_day3,2022.2.4,Linux x86_64,60.06006006,,,,,,down,0,13.0381,,0.006292343,-0.111777107,1,0,0,0,26,26,95,1,vreten,images/br_vreten.png,images/cb_vreten.png,0,,,,,,,,,,,,,,,,,,,,,,
,,,,,00026,2023-09-05_09h36.19.225,vbt_B1_day3,2022.2.4,Linux x86_64,60.06006006,,,,,,down,0,1.7648,,0.004643599,-0.065229535,1,0,0,0,27,27,27,1,dans,images/br_dans.png,images/cb_dans.png,0,,,,,,,,,,,,,,,,,,,,,,
,,,,,00026,2023-09-05_09h36.19.225,vbt_B1_day3,2022.2.4,Linux x86_64,60.06006006,,,,,,down,0,10.1453,,0.206894239,-0.050015052,1,0,0,0,28,28,134,1,geliefd,images/br_geliefd.png,images/cb_geliefd.png,0,,,,,,,,,,,,,,,,,,,,,,
,,,,,00026,2023-09-05_09h36.19.225,vbt_B1_day3,2022.2.4,Linux x86_64,60.06006006,,,,,,down,0,1.8447,,0.089785894,-0.075277289,1,0,0,0,29,29,19,1,geit,images/br_geit.png,images/cb_geit.png,0,,,,,,,,,,,,,,,,,,,,,,
,,,,,00026,2023-09-05_09h36.19.225,vbt_B1_day3,2022.2.4,Linux x86_64,60.06006006,,,,,,down,0,2.4326,,0.193588018,-0.008089344,1,0,0,0,30,30,126,1,kasteel,images/br_kasteel.png,images/cb_kasteel.png,0,,,,,,,,,,,,,,,,,,,,,,
,,,,,00026,2023-09-05_09h36.19.225,vbt_B1_day3,2022.2.4,Linux x86_64,60.06006006,,,,,,down,0,1.1554,,0.118125757,0.099381129,1,0,0,0,31,31,57,1,steek,images/br_steek.png,images/cb_steek.png,0,,,,,,,,,,,,,,,,,,,,,,
,,,,,00026,2023-09-05_09h36.19.225,vbt_B1_day3,2022.2.4,Linux x86_64,60.06006006,,,,,,down,0,9.555,,0.034338236,-0.056651235,1,0,0,0,32,32,153,1,vervoer,images/br_vervoer.png,images/cb_vervoer.png,0,,,,,,,,,,,,,,,,,,,,,,
,,,,,00026,2023-09-05_09h36.19.225,vbt_B1_day3,2022.2.4,Linux x86_64,60.06006006,,,,,,down,0,7.9303,,0.185556491,-0.00493892,1,0,0,0,33,33,131,1,opzicht,images/br_opzicht.png,images/cb_opzicht.png,0,,,,,,,,,,,,,,,,,,,,,,
,,,,,00026,2023-09-05_09h36.19.225,vbt_B1_day3,2022.2.4,Linux x86_64,60.06006006,,,,,,down,0,4.06,,0.108552853,-0.024135351,1,0,0,0,34,34,67,1,zwart,images/br_zwart.png,images/cb_zwart.png,0,,,,,,,,,,,,,,,,,,,,,,
,,,,,00026,2023-09-05_09h36.19.225,vbt_B1_day3,2022.2.4,Linux x86_64,60.06006006,,,,,,down,0,9.5222,,0.056923151,-0.06531918,1,0,0,0,35,35,196,1,nakijken,images/br_nakijken.png,images/cb_nakijken.png,0,,,,,,,,,,,,,,,,,,,,,,
,,,,,00026,2023-09-05_09h36.19.225,vbt_B1_day3,2022.2.4,Linux x86_64,60.06006006,,,,,,down,0,4.2504,,0.069286585,-0.042957425,1,0,0,0,36,36,77,1,woede,images/br_woede.png,images/cb_woede.png,0,,,,,,,,,,,,,,,,,,,,,,
,,,,,00026,2023-09-05_09h36.19.225,vbt_B1_day3,2022.2.4,Linux x86_64,60.06006006,,,,,,down,0,4.138,,0.021677653,-0.033346017,1,0,0,0,37,37,155,1,gerucht,images/br_gerucht.png,images/cb_gerucht.png,0,,,,,,,,,,,,,,,,,,,,,,
,,,,,00026,2023-09-05_09h36.19.225,vbt_B1_day3,2022.2.4,Linux x86_64,60.06006006,,,,,,down,0,6.2357,,-0.231778781,-0.031445384,1,0,0,0,38,38,175,1,heengaan,images/br_heengaan.png,images/cb_heengaan.png,0,,,,,,,,,,,,,,,,,,,,,,
,,,,,00026,2023-09-05_09h36.19.225,vbt_B1_day3,2022.2.4,Linux x86_64,60.06006006,,,,,,down,0,11.0554,,0.025857051,0.004390001,1,0,0,0,39,39,152,1,afnemen,images/br_afnemen.png,images/cb_afnemen.png,0,,,,,,,,,,,,,,,,,,,,,,
,,,,,00026,2023-09-05_09h36.19.225,vbt_B1_day3,2022.2.4,Linux x86_64,60.06006006,,,,,,down,0,0.3693,,0.031320016,-0.049217145,1,0,0,0,40,40,30,1,uien,images/br_uien.png,images/cb_uien.png,0,,,,,,,,,,,,,,,,,,,,,,
,,,,,00026,2023-09-05_09h36.19.225,vbt_B1_day3,2022.2.4,Linux x86_64,60.06006006,,,,,,down,0,0.7675,,-0.023111105,-0.065486868,1,0,0,0,41,41,66,1,lever,images/br_lever.png,images/cb_lever.png,0,,,,,,,,,,,,,,,,,,,,,,
,,,,,00026,2023-09-05_09h36.19.225,vbt_B1_day3,2022.2.4,Linux x86_64,60.06006006,,,,,,down,0,71.248,,0.037390312,-0.084594369,1,0,0,0,42,42,114,1,vullen,images/br_vullen.png,images/cb_vullen.png,0,,,,,,,,,,,,,,,,,,,,,,
,,,,,00026,2023-09-05_09h36.19.225,vbt_B1_day3,2022.2.4,Linux x86_64,60.06006006,,,,,,down,0,0.6799,,-0.002457857,-0.0675776,1,0,0,0,43,43,48,1,steel,images/br_steel.png,images/cb_steel.png,0,,,,,,,,,,,,,,,,,,,,,,
,,,,,00026,2023-09-05_09h36.19.225,vbt_B1_day3,2022.2.4,Linux x86_64,60.06006006,,,,,,down,0,3.0826,,0.005232255,-0.118532419,1,0,0,0,44,44,146,1,opkomen,images/br_opkomen.png,images/cb_opkomen.png,0,,,,,,,,,,,,,,,,,,,,,,
,,,,,00026,2023-09-05_09h36.19.225,vbt_B1_day3,2022.2.4,Linux x86_64,60.06006006,,,,,,down,0,1.6736,,0.006977479,-0.109223008,1,0,0,0,45,45,24,1,jurk,images/br_jurk.png,images/cb_jurk.png,0,,,,,,,,,,,,,,,,,,,,,,
,,,,,00026,2023-09-05_09h36.19.225,vbt_B1_day3,2022.2.4,Linux x86_64,60.06006006,,,,,,down,0,0.1552,,-0.049302896,-0.164773027,1,0,0,0,46,46,116,1,besmet,images/br_besmet.png,images/cb_besmet.png,0,,,,,,,,,,,,,,,,,,,,,,
,,,,,00026,2023-09-05_09h36.19.225,vbt_B1_day3,2022.2.4,Linux x86_64,60.06006006,,,,,,down,0,13.5669,,-0.078512271,-0.071648002,1,0,0,0,47,47,170,1,schatten,images/br_schatten.png,images/cb_schatten.png,0,,,,,,,,,,,,,,,,,,,,,,
,,,,,00026,2023-09-05_09h36.19.225,vbt_B1_day3,2022.2.4,Linux x86_64,60.06006006,,,,,,down,0,1.995,,-0.024078449,-0.059305867,1,0,0,0,48,48,178,1,huisdier,images/br_huisdier.png,images/cb_huisdier.png,0,,,,,,,,,,,,,,,,,,,,,,
,,,,,00026,2023-09-05_09h36.19.225,vbt_B1_day3,2022.2.4,Linux x86_64,60.06006006,,,,,,down,0,0.724,,-0.000934124,-0.141125997,1,0,0,0,49,49,43,1,klauw,images/br_klauw.png,images/cb_klauw.png,0,,,,,,,,,,,,,,,,,,,,,,
,,,,,00026,2023-09-05_09h36.19.225,vbt_B1_day3,2022.2.4,Linux x86_64,60.06006006,,,,,,down,0,0.4073,,0.156781673,0.176731408,1,0,0,0,50,50,4,1,moes,images/br_moes.png,images/cb_moes.png,0,,,,,,,,,,,,,,,,,,,,,,
,,,,,00026,2023-09-05_09h36.19.225,vbt_B1_day3,2022.2.4,Linux x86_64,60.06006006,,,,,,down,0,1.3856,,0.110276063,-0.011187673,1,0,0,0,51,51,147,1,komisch,images/br_komisch.png,images/cb_komisch.png,0,,,,,,,,,,,,,,,,,,,,,,
,,,,,00026,2023-09-05_09h36.19.225,vbt_B1_day3,2022.2.4,Linux x86_64,60.06006006,,,,,,down,0,2.4323,,0.050433397,0.033161362,1,0,0,0,52,52,103,1,joggen,images/br_joggen.png,images/cb_joggen.png,1,joggen,,,,,,,,,,,,,,,,,,,,,
,,,,,00026,2023-09-05_09h36.19.225,vbt_B1_day3,2022.2.4,Linux x86_64,60.06006006,,,,,,down,0,0.5428,,-0.062290748,-0.136755308,1,0,0,0,53,53,161,1,attentie,images/br_attentie.png,images/cb_attentie.png,0,,,,,,,,,,,,,,,,,,,,,,
,,,,,00026,2023-09-05_09h36.19.225,vbt_B1_day3,2022.2.4,Linux x86_64,60.06006006,,,,,,down,0,3.9131,,-0.064478636,-0.137508353,1,0,0,0,54,54,17,1,taal,images/br_taal.png,images/cb_taal.png,0,,,,,,,,,,,,,,,,,,,,,,
,,,,,00026,2023-09-05_09h36.19.225,vbt_B1_day3,2022.2.4,Linux x86_64,60.06006006,,,,,,down,0,0.6746,,-0.061979135,-0.117149393,1,0,0,0,55,55,197,1,spanning,images/br_spanning.png,images/cb_spanning.png,0,,,,,,,,,,,,,,,,,,,,,,
,,,,,00026,2023-09-05_09h36.19.225,vbt_B1_day3,2022.2.4,Linux x86_64,60.06006006,,,,,,down,0,8.931,,-0.098521153,-0.053502798,1,0,0,0,56,56,182,1,bijkomen,images/br_bijkomen.png,images/cb_bijkomen.png,1,bijkomen,,,,,,,,,,,,,,,,,,,,,
,,,,,00026,2023-09-05_09h36.19.225,vbt_B1_day3,2022.2.4,Linux x86_64,60.06006006,,,,,,down,0,0.768,,0.086227973,-0.156738838,1,0,0,0,57,57,173,1,apparaat,images/br_apparaat.png,images/cb_apparaat.png,0,,,,,,,,,,,,,,,,,,,,,,
,,,,,00026,2023-09-05_09h36.19.225,vbt_B1_day3,2022.2.4,Linux x86_64,60.06006006,,,,,,down,0,0.4828,,0.05219547,-0.198024829,1,0,0,0,58,58,159,1,sufferd,images/br_sufferd.png,images/cb_sufferd.png,0,,,,,,,,,,,,,,,,,,,,,,
,,,,,00026,2023-09-05_09h36.19.225,vbt_B1_day3,2022.2.4,Linux x86_64,60.06006006,,,,,,down,0,2.6999,,0.087512096,-0.188316345,1,0,0,0,59,59,138,1,akkoord,images/br_akkoord.png,images/cb_akkoord.png,0,,,,,,,,,,,,,,,,,,,,,,
,,,,,00026,2023-09-05_09h36.19.225,vbt_B1_day3,2022.2.4,Linux x86_64,60.06006006,,,,,,down,0,0.8979,,0.082122485,-0.179265579,1,0,0,0,60,60,2,1,jaar,images/br_jaar.png,images/cb_jaar.png,0,,,,,,,,,,,,,,,,,,,,,,
,,,,,00026,2023-09-05_09h36.19.225,vbt_B1_day3,2022.2.4,Linux x86_64,60.06006006,,,,,,down,0,0.5881,,0.048333963,-0.195350726,1,0,0,0,61,61,169,1,oprotten,images/br_oprotten.png,images/cb_oprotten.png,0,,,,,,,,,,,,,,,,,,,,,,
,,,,,00026,2023-09-05_09h36.19.225,vbt_B1_day3,2022.2.4,Linux x86_64,60.06006006,,,,,,down,0,1.3471,,0.00741744,-0.237163941,1,0,0,0,62,62,108,1,excuus,images/br_excuus.png,images/cb_excuus.png,0,,,,,,,,,,,,,,,,,,,,,,
,,,,,00026,2023-09-05_09h36.19.225,vbt_B1_day3,2022.2.4,Linux x86_64,60.06006006,,,,,,down,0,0.9437,,0.032669465,-0.172538519,1,0,0,0,63,63,154,1,aflopen,images/br_aflopen.png,images/cb_aflopen.png,0,,,,,,,,,,,,,,,,,,,,,,
,,,,,00026,2023-09-05_09h36.19.225,vbt_B1_day3,2022.2.4,Linux x86_64,60.06006006,,,,,,down,0,0.5966,,0.018625657,-0.126431584,1,0,0,0,64,64,8,1,knie,images/br_knie.png,images/cb_knie.png,0,,,,,,,,,,,,,,,,,,,,,,
,,,,,00026,2023-09-05_09h36.19.225,vbt_B1_day3,2022.2.4,Linux x86_64,60.06006006,,,,,,down,0,0.9494,,0.018916527,-0.120904287,1,0,0,0,65,65,96,1,slagen,images/br_slagen.png,images/cb_slagen.png,0,,,,,,,,,,,,,,,,,,,,,,
,,,,,00026,2023-09-05_09h36.19.225,vbt_B1_day3,2022.2.4,Linux x86_64,60.06006006,,,,,,down,0,0.1671,,0.021663348,-0.146409949,1,0,0,0,66,66,6,1,diep,images/br_diep.png,images/cb_diep.png,0,,,,,,,,,,,,,,,,,,,,,,
,,,,,00026,2023-09-05_09h36.19.225,vbt_B1_day3,2022.2.4,Linux x86_64,60.06006006,,,,,,down,0,1.4808,,-0.002906084,-0.221805096,1,0,0,0,67,67,45,1,piste,images/br_piste.png,images/cb_piste.png,0,,,,,,,,,,,,,,,,,,,,,,
,,,,,00026,2023-09-05_09h36.19.225,vbt_B1_day3,2022.2.4,Linux x86_64,60.06006006,,,,,,down,0,0.6346,,0.005614758,-0.250565132,1,0,0,0,68,68,7,1,geld,images/br_geld.png,images/cb_geld.png,0,,,,,,,,,,,,,,,,,,,,,,
,,,,,00026,2023-09-05_09h36.19.225,vbt_B1_day3,2022.2.4,Linux x86_64,60.06006006,,,,,,down,0,3.2977,,-0.06435585,-0.21412762,1,0,0,0,69,69,160,1,daarheen,images/br_daarheen.png,images/cb_daarheen.png,0,,,,,,,,,,,,,,,,,,,,,,
,,,,,00026,2023-09-05_09h36.19.225,vbt_B1_day3,2022.2.4,Linux x86_64,60.06006006,,,,,,down,0,3.5477,,-0.032694817,-0.316719691,1,0,0,0,70,70,127,1,doodmoe,images/br_doodmoe.png,images/cb_doodmoe.png,0,,,,,,,,,,,,,,,,,,,,,,
,,,,,00026,2023-09-05_09h36.19.225,vbt_B1_day3,2022.2.4,Linux x86_64,60.06006006,,,,,,down,0,16.7028,,-0.093443632,-0.136573752,1,0,0,0,71,71,100,1,geduld,images/br_geduld.png,images/cb_geduld.png,1,ge..l.,,,,,,,,,,,,,,,,,,,,,
,,,,,00026,2023-09-05_09h36.19.225,vbt_B1_day3,2022.2.4,Linux x86_64,60.06006006,,,,,,down,0,0.4507,,-0.098937988,-0.070953329,1,0,0,0,72,72,132,1,grappen,images/br_grappen.png,images/cb_grappen.png,0,,,,,,,,,,,,,,,,,,,,,,
,,,,,00026,2023-09-05_09h36.19.225,vbt_B1_day3,2022.2.4,Linux x86_64,60.06006006,,,,,,down,0,3.2836,,-0.043087244,0.059559782,1,0,0,0,73,73,102,1,legaal,images/br_legaal.png,images/cb_legaal.png,1,legaal,,,,,,,,,,,,,,,,,,,,,
,,,,,00026,2023-09-05_09h36.19.225,vbt_B1_day3,2022.2.4,Linux x86_64,60.06006006,,,,,,down,0,2.4056,,0.066320181,-0.030529062,1,0,0,0,74,74,37,1,mijn,images/br_mijn.png,images/cb_mijn.png,0,,,,,,,,,,,,,,,,,,,,,,
,,,,,00026,2023-09-05_09h36.19.225,vbt_B1_day3,2022.2.4,Linux x86_64,60.06006006,,,,,,down,0,0.2951,,0.232615074,-0.213705699,1,0,0,0,75,75,84,1,lokken,images/br_lokken.png,images/cb_lokken.png,0,,,,,,,,,,,,,,,,,,,,,,
,,,,,00026,2023-09-05_09h36.19.225,vbt_B1_day3,2022.2.4,Linux x86_64,60.06006006,,,,,,down,0,2.1535,,-0.017563979,-0.069946329,1,0,0,0,76,76,145,1,invloed,images/br_invloed.png,images/cb_invloed.png,0,,,,,,,,,,,,,,,,,,,,,,
,,,,,00026,2023-09-05_09h36.19.225,vbt_B1_day3,2022.2.4,Linux x86_64,60.06006006,,,,,,down,0,0.7016,,0.07851847,-0.068229238,1,0,0,0,77,77,87,1,toeval,images/br_toeval.png,images/cb_toeval.png,0,,,,,,,,,,,,,,,,,,,,,,
,,,,,00026,2023-09-05_09h36.19.225,vbt_B1_day3,2022.2.4,Linux x86_64,60.06006006,,,,,,down,0,0.0858,,0.276576996,0.062124769,1,0,0,0,78,78,10,1,leek,images/br_leek.png,images/cb_leek.png,0,,,,,,,,,,,,,,,,,,,,,,
,,,,,00026,2023-09-05_09h36.19.225,vbt_B1_day3,2022.2.4,Linux x86_64,60.06006006,,,,,,down,0,0.0359,,0.246646325,0.034885526,1,0,0,0,79,79,128,1,prikken,images/br_prikken.png,images/cb_prikken.png,0,,,,,,,,,,,,,,,,,,,,,,
,,,,,00026,2023-09-05_09h36.19.225,vbt_B1_day3,2022.2.4,Linux x86_64,60.06006006,,,,,,down,0,0.4748,,0.216053804,-0.050174197,1,0,0,0,80,80,5,1,blad,images/br_blad.png,images/cb_blad.png,0,,,,,,,,,,,,,,,,,,,,,,
,,,,,00026,2023-09-05_09h36.19.225,vbt_B1_day3,2022.2.4,Linux x86_64,60.06006006,,,,,,down,0,1.9162,,0.034063737,-0.138866425,1,0,0,0,81,81,26,1,leuk,images/br_leuk.png,images/cb_leuk.png,0,,,,,,,,,,,,,,,,,,,,,,
,,,,,00026,2023-09-05_09h36.19.225,vbt_B1_day3,2022.2.4,Linux x86_64,60.06006006,,,,,,down,0,0.0526,,0.036536137,-0.134502888,1,0,0,0,82,82,75,1,snoep,images/br_snoep.png,images/cb_snoep.png,0,,,,,,,,,,,,,,,,,,,,,,
,,,,,00026,2023-09-05_09h36.19.225,vbt_B1_day3,2022.2.4,Linux x86_64,60.06006006,,,,,,down,0,0.3875,,-0.03614982,-0.059947054,1,0,0,0,83,83,97,1,loyaal,images/br_loyaal.png,images/cb_loyaal.png,0,,,,,,,,,,,,,,,,,,,,,,
,,,,,00026,2023-09-05_09h36.19.225,vbt_B1_day3,2022.2.4,Linux x86_64,60.06006006,,,,,,down,0,0.1861,,0.022802273,-0.04146572,1,0,0,0,84,84,69,1,waken,images/br_waken.png,images/cb_waken.png,0,,,,,,,,,,,,,,,,,,,,,,
,,,,,00026,2023-09-05_09h36.19.225,vbt_B1_day3,2022.2.4,Linux x86_64,60.06006006,,,,,,down,0,0.1759,,-0.026444991,-0.088101109,1,0,0,0,85,85,16,1,ziek,images/br_ziek.png,images/cb_ziek.png,0,,,,,,,,,,,,,,,,,,,,,,
,,,,,00026,2023-09-05_09h36.19.225,vbt_B1_day3,2022.2.4,Linux x86_64,60.06006006,,,,,,down,0,0.6071,,-0.021585623,-0.390263001,1,0,0,0,86,86,29,1,baas,images/br_baas.png,images/cb_baas.png,0,,,,,,,,,,,,,,,,,,,,,,
,,,,,00026,2023-09-05_09h36.19.225,vbt_B1_day3,2022.2.4,Linux x86_64,60.06006006,,,,,,down,0,0.9752,,-0.045235316,-0.07676355,1,0,0,0,87,87,188,1,strekken,images/br_strekken.png,images/cb_strekken.png,0,,,,,,,,,,,,,,,,,,,,,,
,,,,,00026,2023-09-05_09h36.19.225,vbt_B1_day3,2022.2.4,Linux x86_64,60.06006006,,,,,,down,0,13.3758,,-0.027199586,-0.087817272,1,0,0,0,88,88,198,1,bedoelen,images/br_bedoelen.png,images/cb_bedoelen.png,0,,,,,,,,,,,,,,,,,,,,,,
,,,,,00026,2023-09-05_09h36.19.225,vbt_B1_day3,2022.2.4,Linux x86_64,60.06006006,,,,,,down,0,1.965,,-0.012709697,-0.100071669,1,0,0,0,89,89,117,1,kennis,images/br_kennis.png,images/cb_kennis.png,0,,,,,,,,,,,,,,,,,,,,,,
,,,,,00026,2023-09-05_09h36.19.225,vbt_B1_day3,2022.2.4,Linux x86_64,60.06006006,,,,,,down,0,0.8217,,-0.010964394,-0.092217048,1,0,0,0,90,90,25,1,plek,images/br_plek.png,images/cb_plek.png,0,,,,,,,,,,,,,,,,,,,,,,
,,,,,00026,2023-09-05_09h36.19.225,vbt_B1_day3,2022.2.4,Linux x86_64,60.06006006,,,,,,down,0,0.3869,,-0.009328604,-0.137045582,1,0,0,0,91,91,129,1,verhaal,images/br_verhaal.png,images/cb_verhaal.png,0,,,,,,,,,,,,,,,,,,,,,,
,,,,,00026,2023-09-05_09h36.19.225,vbt_B1_day3,2022.2.4,Linux x86_64,60.06006006,,,,,,down,0,0.1676,,0.303643703,-0.097591718,1,0,0,0,92,92,106,1,zingen,images/br_zingen.png,images/cb_zingen.png,0,,,,,,,,,,,,,,,,,,,,,,
,,,,,00026,2023-09-05_09h36.19.225,vbt_B1_day3,2022.2.4,Linux x86_64,60.06006006,,,,,,down,0,16.3837,,0.172890186,-0.074120959,1,0,0,0,93,93,74,1,graaf,images/br_graaf.png,images/cb_graaf.png,0,,,,,,,,,,,,,,,,,,,,,,
,,,,,00026,2023-09-05_09h36.19.225,vbt_B1_day3,2022.2.4,Linux x86_64,60.06006006,,,,,,down,0,3.9296,,0.136360168,0.009235779,1,0,0,0,94,94,141,1,knielen,images/br_knielen.png,images/cb_knielen.png,1,knielen,,,,,,,,,,,,,,,,,,,,,
,,,,,00026,2023-09-05_09h36.19.225,vbt_B1_day3,2022.2.4,Linux x86_64,60.06006006,,,,,,down,0,18.504,,0.162858248,-0.048171083,1,0,0,0,95,95,63,1,flirt,images/br_flirt.png,images/cb_flirt.png,1,flirt,,,,,,,,,,,,,,,,,,,,,
,,,,,00026,2023-09-05_09h36.19.225,vbt_B1_day3,2022.2.4,Linux x86_64,60.06006006,,,,,,down,0,0.6671,,0.080643892,-0.168924888,1,0,0,0,96,96,90,1,geluid,images/br_geluid.png,images/cb_geluid.png,0,,,,,,,,,,,,,,,,,,,,,,
,,,,,00026,2023-09-05_09h36.19.225,vbt_B1_day3,2022.2.4,Linux x86_64,60.06006006,,,,,,down,0,1.427,,0.079771201,-0.157870332,1,0,0,0,97,97,76,1,afval,images/br_afval.png,images/cb_afval.png,0,,,,,,,,,,,,,,,,,,,,,,
,,,,,00026,2023-09-05_09h36.19.225,vbt_B1_day3,2022.2.4,Linux x86_64,60.06006006,,,,,,down,0,1.7779,,0.082098405,-0.151761413,1,0,0,0,98,98,94,1,oceaan,images/br_oceaan.png,images/cb_oceaan.png,0,,,,,,,,,,,,,,,,,,,,,,
,,,,,00026,2023-09-05_09h36.19.225,vbt_B1_day3,2022.2.4,Linux x86_64,60.06006006,,,,,,down,0,0.5398,,-0.010293961,-0.183391094,1,0,0,0,99,99,79,1,nodig,images/br_nodig.png,images/cb_nodig.png,0,,,,,,,,,,,,,,,,,,,,,,
,,,,,00026,2023-09-05_09h36.19.225,vbt_B1_day3,2022.2.4,Linux x86_64,60.06006006,,,,,,down,0,4.0311,,0.014048894,-0.148455143,1,0,0,0,100,100,9,1,hier,images/br_hier.png,images/cb_hier.png,0,,,,,,,,,,,,,,,,,,,,,,
,,,,,00026,2023-09-05_09h36.19.225,vbt_B1_day3,2022.2.4,Linux x86_64,60.06006006,,,,,,down,0,3.0206,,0.083586534,-0.120390733,1,0,0,0,101,101,101,1,staren,images/br_staren.png,images/cb_staren.png,1,staren,,,,,,,,,,,,,,,,,,,,,
,,,,,00026,2023-09-05_09h36.19.225,vbt_B1_day3,2022.2.4,Linux x86_64,60.06006006,,,,,,down,0,1.2826,,-0.037179391,-0.123344858,1,0,0,0,102,102,184,1,aandelen,images/br_aandelen.png,images/cb_aandelen.png,0,,,,,,,,,,,,,,,,,,,,,,
,,,,,00026,2023-09-05_09h36.19.225,vbt_B1_day3,2022.2.4,Linux x86_64,60.06006006,,,,,,down,0,1.1151,,-0.038924694,-0.115199606,1,0,0,0,103,103,92,1,geheim,images/br_geheim.png,images/cb_geheim.png,0,,,,,,,,,,,,,,,,,,,,,,
,,,,,00026,2023-09-05_09h36.19.225,vbt_B1_day3,2022.2.4,Linux x86_64,60.06006006,,,,,,down,0,0.3702,,0.018783887,-0.130486886,1,0,0,0,104,104,192,1,schaamte,images/br_schaamte.png,images/cb_schaamte.png,0,,,,,,,,,,,,,,,,,,,,,,
,,,,,00026,2023-09-05_09h36.19.225,vbt_B1_day3,2022.2.4,Linux x86_64,60.06006006,,,,,,down,0,0.0864,,0.014782588,-0.125510653,1,0,0,0,105,105,64,1,wegen,images/br_wegen.png,images/cb_wegen.png,0,,,,,,,,,,,,,,,,,,,,,,
,,,,,00026,2023-09-05_09h36.19.225,vbt_B1_day3,2022.2.4,Linux x86_64,60.06006006,,,,,,down,0,2.2362,,0.030127684,-0.161593119,1,0,0,0,106,106,118,1,vinger,images/br_vinger.png,images/cb_vinger.png,0,,,,,,,,,,,,,,,,,,,,,,
,,,,,00026,2023-09-05_09h36.19.225,vbt_B1_day3,2022.2.4,Linux x86_64,60.06006006,,,,,,down,0,2.2868,,0.064807812,-0.168874741,1,0,0,0,107,107,3,1,mand,images/br_mand.png,images/cb_mand.png,0,,,,,,,,,,,,,,,,,,,,,,
,,,,,00026,2023-09-05_09h36.19.225,vbt_B1_day3,2022.2.4,Linux x86_64,60.06006006,,,,,,down,0,21.02,,0.030448357,-0.130966028,1,0,0,0,108,108,15,1,soda,images/br_soda.png,images/cb_soda.png,0,,,,,,,,,,,,,,,,,,,,,,
,,,,,00026,2023-09-05_09h36.19.225,vbt_B1_day3,2022.2.4,Linux x86_64,60.06006006,,,,,,down,0,0.3701,,-0.012048086,-0.094289263,1,0,0,0,109,109,189,1,aanraden,images/br_aanraden.png,images/cb_aanraden.png,0,,,,,,,,,,,,,,,,,,,,,,
,,,,,00026,2023-09-05_09h36.19.225,vbt_B1_day3,2022.2.4,Linux x86_64,60.06006006,,,,,,down,0,2.782,,-0.00069046,-0.090231697,1,0,0,0,110,110,42,1,bleek,images/br_bleek.png,images/cb_bleek.png,0,,,,,,,,,,,,,,,,,,,,,,
,,,,,00026,2023-09-05_09h36.19.225,vbt_B1_day3,2022.2.4,Linux x86_64,60.06006006,,,,,,down,0,6.5448,,-0.02167503,-0.04411749,1,0,0,0,111,111,181,1,toegeven,images/br_toegeven.png,images/cb_toegeven.png,1,toegeven,,,,,,,,,,,,,,,,,,,,,
,,,,,00026,2023-09-05_09h36.19.225,vbt_B1_day3,2022.2.4,Linux x86_64,60.06006006,,,,,,down,0,5.4948,,-0.077894449,-0.019180655,1,0,0,0,112,112,62,1,knaap,images/br_knaap.png,images/cb_knaap.png,1,knaap,,,,,,,,,,,,,,,,,,,,,
,,,,,00026,2023-09-05_09h36.19.225,vbt_B1_day3,2022.2.4,Linux x86_64,60.06006006,,,,,,down,0,5.4539,,0.180346568,-0.118173599,1,0,0,0,113,113,167,1,eenhoorn,images/br_eenhoorn.png,images/cb_eenhoorn.png,0,,,,,,,,,,,,,,,,,,,,,,
,,,,,00026,2023-09-05_09h36.19.225,vbt_B1_day3,2022.2.4,Linux x86_64,60.06006006,,,,,,down,0,3.4224,,-0.103305101,-0.065539956,1,0,0,0,114,114,186,1,voorraad,images/br_voorraad.png,images/cb_voorraad.png,0,,,,,,,,,,,,,,,,,,,,,,
,,,,,00026,2023-09-05_09h36.19.225,vbt_B1_day3,2022.2.4,Linux x86_64,60.06006006,,,,,,down,0,3.6775,,0.000498692,-0.023659865,1,0,0,0,115,115,56,1,traag,images/br_traag.png,images/cb_traag.png,0,,,,,,,,,,,,,,,,,,,,,,
,,,,,00026,2023-09-05_09h36.19.225,vbt_B1_day3,2022.2.4,Linux x86_64,60.06006006,,,,,,down,0,1.6622,,0.073548635,-0.101720095,1,0,0,0,116,116,80,1,kanjer,images/br_kanjer.png,images/cb_kanjer.png,0,,,,,,,,,,,,,,,,,,,,,,
,,,,,00026,2023-09-05_09h36.19.225,vbt_B1_day3,2022.2.4,Linux x86_64,60.06006006,,,,,,down,0,5.2792,,0.046676,-0.072455923,1,0,0,0,117,117,20,1,site,images/br_site.png,images/cb_site.png,1,site,,,,,,,,,,,,,,,,,,,,,
,,,,,00026,2023-09-05_09h36.19.225,vbt_B1_day3,2022.2.4,Linux x86_64,60.06006006,,,,,,down,0,1.9557,,-0.012888193,-0.075015028,1,0,0,0,118,118,121,1,twijfel,images/br_twijfel.png,images/cb_twijfel.png,0,,,,,,,,,,,,,,,,,,,,,,
,,,,,00026,2023-09-05_09h36.19.225,vbt_B1_day3,2022.2.4,Linux x86_64,60.06006006,,,,,,down,0,0.2178,,-0.00546209,-0.123449286,1,0,0,0,119,119,166,1,strikken,images/br_strikken.png,images/cb_strikken.png,0,,,,,,,,,,,,,,,,,,,,,,
,,,,,00026,2023-09-05_09h36.19.225,vbt_B1_day3,2022.2.4,Linux x86_64,60.06006006,,,,,,down,0,0.4698,,0.034176509,-0.144984682,1,0,0,0,120,120,46,1,jagen,images/br_jagen.png,images/cb_jagen.png,0,,,,,,,,,,,,,,,,,,,,,,
,,,,,00026,2023-09-05_09h36.19.225,vbt_B1_day3,2022.2.4,Linux x86_64,60.06006006,,,,,,down,0,0.2654,,0.047010899,-0.176578442,1,0,0,0,121,121,168,1,bisschop,images/br_bisschop.png,images/cb_bisschop.png,0,,,,,,,,,,,,,,,,,,,,,,
,,,,,00026,2023-09-05_09h36.19.225,vbt_B1_day3,2022.2.4,Linux x86_64,60.06006006,,,,,,down,0,0.2562,,0.001101891,-0.16679438,1,0,0,0,122,122,156,1,rechten,images/br_rechten.png,images/cb_rechten.png,0,,,,,,,,,,,,,,,,,,,,,,
,,,,,00026,2023-09-05_09h36.19.225,vbt_B1_day3,2022.2.4,Linux x86_64,60.06006006,,,,,,down,0,0.4049,,0.106925805,0.017110984,1,0,0,0,123,123,171,1,aarzelen,images/br_aarzelen.png,images/cb_aarzelen.png,0,,,,,,,,,,,,,,,,,,,,,,
,,,,,00026,2023-09-05_09h36.19.225,vbt_B1_day3,2022.2.4,Linux x86_64,60.06006006,,,,,,down,0,0.3012,,0.082282384,-0.078828216,1,0,0,0,124,124,104,1,zweven,images/br_zweven.png,images/cb_zweven.png,0,,,,,,,,,,,,,,,,,,,,,,
,,,,,00026,2023-09-05_09h36.19.225,vbt_B1_day3,2022.2.4,Linux x86_64,60.06006006,,,,,,down,0,0.5841,,0.08175381,-0.119030317,1,0,0,0,125,125,52,1,wagon,images/br_wagon.png,images/cb_wagon.png,0,,,,,,,,,,,,,,,,,,,,,,
,,,,,00026,2023-09-05_09h36.19.225,vbt_B1_day3,2022.2.4,Linux x86_64,60.06006006,,,,,,down,0,0.0236,,0.119622231,-0.12847511,1,0,0,0,126,126,85,1,heilig,images/br_heilig.png,images/cb_heilig.png,0,,,,,,,,,,,,,,,,,,,,,,
,,,,,00026,2023-09-05_09h36.19.225,vbt_B1_day3,2022.2.4,Linux x86_64,60.06006006,,,,,,down,0,0.3115,,0.123839299,-0.227598985,1,0,0,0,127,127,105,1,wijlen,images/br_wijlen.png,images/cb_wijlen.png,0,,,,,,,,,,,,,,,,,,,,,,
,,,,,00026,2023-09-05_09h36.19.225,vbt_B1_day3,2022.2.4,Linux x86_64,60.06006006,,,,,,down,0,1.1988,,0.151900848,-0.307084163,1,0,0,0,128,128,185,1,mijnheer,images/br_mijnheer.png,images/cb_mijnheer.png,0,,,,,,,,,,,,,,,,,,,,,,
,,,,,00026,2023-09-05_09h36.19.225,vbt_B1_day3,2022.2.4,Linux x86_64,60.06006006,,,,,,down,0,3.0216,,0.154227972,-0.295448303,1,0,0,0,129,129,113,1,koppen,images/br_koppen.png,images/cb_koppen.png,0,,,,,,,,,,,,,,,,,,,,,,
,,,,,00026,2023-09-05_09h36.19.225,vbt_B1_day3,2022.2.4,Linux x86_64,60.06006006,,,,,,down,0,33.4185,,0.074118376,-0.022900105,1,0,0,0,130,130,143,1,hechten,images/br_hechten.png,images/cb_hechten.png,1,hechten,,,,,,,,,,,,,,,,,,,,,
,,,,,00026,2023-09-05_09h36.19.225,vbt_B1_day3,2022.2.4,Linux x86_64,60.06006006,,,,,,down,0,2.3401,,0.000170469,-0.148219109,1,0,0,0,131,131,151,1,aanzoek,images/br_aanzoek.png,images/cb_aanzoek.png,0,,,,,,,,,,,,,,,,,,,,,,
,,,,,00026,2023-09-05_09h36.19.225,vbt_B1_day3,2022.2.4,Linux x86_64,60.06006006,,,,,,down,0,0.5386,,0.002000411,-0.207886616,1,0,0,0,132,132,41,1,maken,images/br_maken.png,images/cb_maken.png,0,,,,,,,,,,,,,,,,,,,,,,
,,,,,00026,2023-09-05_09h36.19.225,vbt_B1_day3,2022.2.4,Linux x86_64,60.06006006,,,,,,down,0,0.3919,,-0.004792531,-0.283833901,1,0,0,0,133,133,53,1,baron,images/br_baron.png,images/cb_baron.png,0,,,,,,,,,,,,,,,,,,,,,,
,,,,,00026,2023-09-05_09h36.19.225,vbt_B1_day3,2022.2.4,Linux x86_64,60.06006006,,,,,,down,0,0.2042,,-0.015252193,-0.225392977,1,0,0,0,134,134,54,1,gebit,images/br_gebit.png,images/cb_gebit.png,0,,,,,,,,,,,,,,,,,,,,,,
,,,,,00026,2023-09-05_09h36.19.225,vbt_B1_day3,2022.2.4,Linux x86_64,60.06006006,,,,,,down,0,1.7338,,-0.02732563,-0.264387608,1,0,0,0,135,135,86,1,woning,images/br_woning.png,images/cb_woning.png,0,,,,,,,,,,,,,,,,,,,,,,
,,,,,00026,2023-09-05_09h36.19.225,vbt_B1_day3,2022.2.4,Linux x86_64,60.06006006,,,,,,down,0,1.2051,,-0.026743889,-0.262933175,1,0,0,0,136,136,137,1,trekker,images/br_trekker.png,images/cb_trekker.png,0,,,,,,,,,,,,,,,,,,,,,,
,,,,,00026,2023-09-05_09h36.19.225,vbt_B1_day3,2022.2.4,Linux x86_64,60.06006006,,,,,,down,0,10.8642,,-0.026743889,-0.262933175,1,0,0,0,137,137,1,1,zaal,images/br_zaal.png,images/cb_zaal.png,0,,,,,,,,,,,,,,,,,,,,,,
,,,,,00026,2023-09-05_09h36.19.225,vbt_B1_day3,2022.2.4,Linux x86_64,60.06006006,,,,,,down,0,27.3241,,0.174899896,-0.139437795,1,0,0,0,138,138,23,1,zout,images/br_zout.png,images/cb_zout.png,1,zo.t,,,,,,,,,,,,,,,,,,,,,
,,,,,00026,2023-09-05_09h36.19.225,vbt_B1_day3,2022.2.4,Linux x86_64,60.06006006,,,,,,down,0,1.4166,,0.085005999,-0.097125332,1,0,0,0,139,139,110,1,zuster,images/br_zuster.png,images/cb_zuster.png,0,,,,,,,,,,,,,,,,,,,,,,
,,,,,00026,2023-09-05_09h36.19.225,vbt_B1_day3,2022.2.4,Linux x86_64,60.06006006,,,,,,down,0,0.9168,,0.069121361,-0.183542013,1,0,0,0,140,140,18,1,blik,images/br_blik.png,images/cb_blik.png,0,,,,,,,,,,,,,,,,,,,,,,
,,,,,00026,2023-09-05_09h36.19.225,vbt_B1_day3,2022.2.4,Linux x86_64,60.06006006,,,,,,down,0,0.5744,,0.059300661,-0.173803091,1,0,0,0,141,141,40,1,schep,images/br_schep.png,images/cb_schep.png,0,,,,,,,,,,,,,,,,,,,,,,
,,,,,00026,2023-09-05_09h36.19.225,vbt_B1_day3,2022.2.4,Linux x86_64,60.06006006,,,,,,down,0,0.8834,,0.073459148,-0.14943258,1,0,0,0,142,142,98,1,kreeft,images/br_kreeft.png,images/cb_kreeft.png,0,,,,,,,,,,,,,,,,,,,,,,
,,,,,00026,2023-09-05_09h36.19.225,vbt_B1_day3,2022.2.4,Linux x86_64,60.06006006,,,,,,down,0,2.5599,,0.078225454,-0.166409532,1,0,0,0,143,143,93,1,waarop,images/br_waarop.png,images/cb_waarop.png,0,,,,,,,,,,,,,,,,,,,,,,
,,,,,00026,2023-09-05_09h36.19.225,vbt_B1_day3,2022.2.4,Linux x86_64,60.06006006,,,,,,down,0,0.3557,,0.074361483,-0.173596462,1,0,0,0,144,144,163,1,schuilen,images/br_schuilen.png,images/cb_schuilen.png,0,,,,,,,,,,,,,,,,,,,,,,
,,,,,00026,2023-09-05_09h36.19.225,vbt_B1_day3,2022.2.4,Linux x86_64,60.06006006,,,,,,down,0,0.3044,,0.081548373,-0.172060092,1,0,0,0,145,145,14,1,rijp,images/br_rijp.png,images/cb_rijp.png,0,,,,,,,,,,,,,,,,,,,,,,
,,,,,00026,2023-09-05_09h36.19.225,vbt_B1_day3,2022.2.4,Linux x86_64,60.06006006,,,,,,down,0,7.5286,,0.067875862,-0.163915038,1,0,0,0,146,146,115,1,kleren,images/br_kleren.png,images/cb_kleren.png,0,,,,,,,,,,,,,,,,,,,,,,
,,,,,00026,2023-09-05_09h36.19.225,vbt_B1_day3,2022.2.4,Linux x86_64,60.06006006,,,,,,down,0,2.3164,,0.022961775,-0.173649391,1,0,0,0,147,147,32,1,palm,images/br_palm.png,images/cb_palm.png,0,,,,,,,,,,,,,,,,,,,,,,
,,,,,00026,2023-09-05_09h36.19.225,vbt_B1_day3,2022.2.4,Linux x86_64,60.06006006,,,,,,down,0,1.2504,,-0.002639771,-0.219819387,1,0,0,0,148,148,125,1,aanzien,images/br_aanzien.png,images/cb_aanzien.png,0,,,,,,,,,,,,,,,,,,,,,,
,,,,,00026,2023-09-05_09h36.19.225,vbt_B1_day3,2022.2.4,Linux x86_64,60.06006006,,,,,,down,0,1.9365,,-0.030839443,-0.244585594,1,0,0,0,149,149,162,1,uitdelen,images/br_uitdelen.png,images/cb_uitdelen.png,0,,,,,,,,,,,,,,,,,,,,,,
,,,,,00026,2023-09-05_09h36.19.225,vbt_B1_day3,2022.2.4,Linux x86_64,60.06006006,,,,,,down,0,1.1249,,-0.025167465,-0.245749474,1,0,0,0,150,150,190,1,goedkoop,images/br_goedkoop.png,images/cb_goedkoop.png,0,,,,,,,,,,,,,,,,,,,,,,
,,,,,00026,2023-09-05_09h36.19.225,vbt_B1_day3,2022.2.4,Linux x86_64,60.06006006,,,,,,down,0,3.2824,,-0.004912774,-0.207699378,1,0,0,0,151,151,35,1,lust,images/br_lust.png,images/cb_lust.png,0,,,,,,,,,,,,,,,,,,,,,,
,,,,,00026,2023-09-05_09h36.19.225,vbt_B1_day3,2022.2.4,Linux x86_64,60.06006006,,,,,,down,0,0.3462,,0.009810925,-0.094671528,1,0,0,0,152,152,179,1,woestijn,images/br_woestijn.png,images/cb_woestijn.png,0,,,,,,,,,,,,,,,,,,,,,,
,,,,,00026,2023-09-05_09h36.19.225,vbt_B1_day3,2022.2.4,Linux x86_64,60.06006006,,,,,,down,0,1.2435,,0.01788338,-0.11072584,1,0,0,0,153,153,144,1,eetlust,images/br_eetlust.png,images/cb_eetlust.png,0,,,,,,,,,,,,,,,,,,,,,,
,,,,,00026,2023-09-05_09h36.19.225,vbt_B1_day3,2022.2.4,Linux x86_64,60.06006006,,,,,,down,0,1.1341,,0.011399428,-0.127943556,1,0,0,0,154,154,107,1,maling,images/br_maling.png,images/cb_maling.png,0,,,,,,,,,,,,,,,,,,,,,,
,,,,,00026,2023-09-05_09h36.19.225,vbt_B1_day3,2022.2.4,Linux x86_64,60.06006006,,,,,,down,0,0.2015,,0.01227204,-0.125616391,1,0,0,0,155,155,91,1,gezond,images/br_gezond.png,images/cb_gezond.png,0,,,,,,,,,,,,,,,,,,,,,,
,,,,,00026,2023-09-05_09h36.19.225,vbt_B1_day3,2022.2.4,Linux x86_64,60.06006006,,,,,,down,0,0.8331,,-0.005184015,-0.157216469,1,0,0,0,156,156,139,1,stiekem,images/br_stiekem.png,images/cb_stiekem.png,0,,,,,,,,,,,,,,,,,,,,,,
,,,,,00026,2023-09-05_09h36.19.225,vbt_B1_day3,2022.2.4,Linux x86_64,60.06006006,,,,,,down,0,0.5688,,0.016122182,-0.18952322,1,0,0,0,157,157,133,1,seizoen,images/br_seizoen.png,images/cb_seizoen.png,0,,,,,,,,,,,,,,,,,,,,,,
,,,,,00026,2023-09-05_09h36.19.225,vbt_B1_day3,2022.2.4,Linux x86_64,60.06006006,,,,,,down,0,0.3453,,0.039135774,-0.263796171,1,0,0,0,158,158,191,1,opheffen,images/br_opheffen.png,images/cb_opheffen.png,0,,,,,,,,,,,,,,,,,,,,,,
,,,,,00026,2023-09-05_09h36.19.225,vbt_B1_day3,2022.2.4,Linux x86_64,60.06006006,,,,,,down,0,0.1032,,-0.041258653,-0.096132119,1,0,0,0,159,159,130,1,keihard,images/br_keihard.png,images/cb_keihard.png,0,,,,,,,,,,,,,,,,,,,,,,
,,,,,00026,2023-09-05_09h36.19.225,vbt_B1_day3,2022.2.4,Linux x86_64,60.06006006,,,,,,down,0,0.6305,,-0.052097003,-0.119204164,1,0,0,0,160,160,148,1,smullen,images/br_smullen.png,images/cb_smullen.png,0,,,,,,,,,,,,,,,,,,,,,,
,,,,,00026,2023-09-05_09h36.19.225,vbt_B1_day3,2022.2.4,Linux x86_64,60.06006006,,,,,,down,0,3.8977,,-0.039892832,-0.173330863,1,0,0,0,161,161,68,1,schat,images/br_schat.png,images/cb_schat.png,0,,,,,,,,,,,,,,,,,,,,,,
,,,,,00026,2023-09-05_09h36.19.225,vbt_B1_day3,2022.2.4,Linux x86_64,60.06006006,,,,,,down,0,0.1012,,-0.041347186,-0.165767789,1,0,0,0,162,162,123,1,hiervan,images/br_hiervan.png,images/cb_hiervan.png,0,,,,,,,,,,,,,,,,,,,,,,
,,,,,00026,2023-09-05_09h36.19.225,vbt_B1_day3,2022.2.4,Linux x86_64,60.06006006,,,,,,down,0,0.857,,-0.056803862,-0.150184433,1,0,0,0,163,163,73,1,volop,images/br_volop.png,images/cb_volop.png,0,,,,,,,,,,,,,,,,,,,,,,
,,,,,00026,2023-09-05_09h36.19.225,vbt_B1_day3,2022.2.4,Linux x86_64,60.06006006,,,,,,down,0,0.2195,,-0.055058638,-0.145820896,1,0,0,0,164,164,135,1,gedicht,images/br_gedicht.png,images/cb_gedicht.png,0,,,,,,,,,,,,,,,,,,,,,,
,,,,,00026,2023-09-05_09h36.19.225,vbt_B1_day3,2022.2.4,Linux x86_64,60.06006006,,,,,,down,0,1.0672,,-0.00851663,-0.180147171,1,0,0,0,165,165,194,1,driemaal,images/br_driemaal.png,images/cb_driemaal.png,0,,,,,,,,,,,,,,,,,,,,,,
,,,,,00026,2023-09-05_09h36.19.225,vbt_B1_day3,2022.2.4,Linux x86_64,60.06006006,,,,,,down,0,0.1858,,-0.005647818,-0.231872241,1,0,0,0,166,166,51,1,samen,images/br_samen.png,images/cb_samen.png,0,,,,,,,,,,,,,,,,,,,,,,
,,,,,00026,2023-09-05_09h36.19.225,vbt_B1_day3,2022.2.4,Linux x86_64,60.06006006,,,,,,down,0,1.3664,,0.251448234,-0.023681204,1,0,0,0,167,167,58,1,tekst,images/br_tekst.png,images/cb_tekst.png,0,,,,,,,,,,,,,,,,,,,,,,
,,,,,00026,2023-09-05_09h36.19.225,vbt_B1_day3,2022.2.4,Linux x86_64,60.06006006,,,,,,down,0,0.0008,,0.21527791,-0.086029689,1,0,0,0,168,168,78,1,leren,images/br_leren.png,images/cb_leren.png,0,,,,,,,,,,,,,,,,,,,,,,
,,,,,00026,2023-09-05_09h36.19.225,vbt_B1_day3,2022.2.4,Linux x86_64,60.06006006,,,,,,down,0,1.0694,,0.190817595,-0.075142543,1,0,0,0,169,169,11,1,mode,images/br_mode.png,images/cb_mode.png,0,,,,,,,,,,,,,,,,,,,,,,
,,,,,00026,2023-09-05_09h36.19.225,vbt_B1_day3,2022.2.4,Linux x86_64,60.06006006,,,,,,down,0,0.0326,,0.196344137,-0.07281522,1,0,0,0,170,170,82,1,muziek,images/br_muziek.png,images/cb_muziek.png,0,,,,,,,,,,,,,,,,,,,,,,
,,,,,00026,2023-09-05_09h36.19.225,vbt_B1_day3,2022.2.4,Linux x86_64,60.06006006,,,,,,down,0,0.396,,0.198380232,-0.061760704,1,0,0,0,171,171,120,1,klimmen,images/br_klimmen.png,images/cb_klimmen.png,0,,,,,,,,,,,,,,,,,,,,,,
,,,,,00026,2023-09-05_09h36.19.225,vbt_B1_day3,2022.2.4,Linux x86_64,60.06006006,,,,,,down,0,1.1709,,0.20187068,-0.062924345,1,0,0,0,172,172,72,1,strak,images/br_strak.png,images/cb_strak.png,0,,,,,,,,,,,,,,,,,,,,,,
,,,,,00026,2023-09-05_09h36.19.225,vbt_B1_day3,2022.2.4,Linux x86_64,60.06006006,,,,,,down,0,1.0133,,0.159186045,-0.096384327,1,0,0,0,173,173,177,1,maaltijd,images/br_maaltijd.png,images/cb_maaltijd.png,0,,,,,,,,,,,,,,,,,,,,,,
,,,,,00026,2023-09-05_09h36.19.225,vbt_B1_day3,2022.2.4,Linux x86_64,60.06006006,,,,,,down,0,0.7596,,0.138029496,-0.235695601,1,0,0,0,174,174,150,1,gegeven,images/br_gegeven.png,images/cb_gegeven.png,0,,,,,,,,,,,,,,,,,,,,,,
,,,,,00026,2023-09-05_09h36.19.225,vbt_B1_day3,2022.2.4,Linux x86_64,60.06006006,,,,,,down,0,0.035,,0.138029496,-0.237731536,1,0,0,0,175,175,0,1,slak,images/br_slak.png,images/cb_slak.png,0,,,,,,,,,,,,,,,,,,,,,,
,,,,,00026,2023-09-05_09h36.19.225,vbt_B1_day3,2022.2.4,Linux x86_64,60.06006006,,,,,,down,0,17.1837,,0.021112442,-0.202623367,1,0,0,0,176,176,21,1,mist,images/br_mist.png,images/cb_mist.png,1,mist,,,,,,,,,,,,,,,,,,,,,
,,,,,00026,2023-09-05_09h36.19.225,vbt_B1_day3,2022.2.4,Linux x86_64,60.06006006,,,,,,down,0,3.0387,,0.06949385,-0.057768186,1,0,0,0,177,177,158,1,innemen,images/br_innemen.png,images/cb_innemen.png,0,,,,,,,,,,,,,,,,,,,,,,
,,,,,00026,2023-09-05_09h36.19.225,vbt_B1_day3,2022.2.4,Linux x86_64,60.06006006,,,,,,down,0,1.2864,,0.113611937,-0.003834526,1,0,0,0,178,178,172,1,weigeren,images/br_weigeren.png,images/cb_weigeren.png,0,,,,,,,,,,,,,,,,,,,,,,
,,,,,00026,2023-09-05_09h36.19.225,vbt_B1_day3,2022.2.4,Linux x86_64,60.06006006,,,,,,down,0,2.1598,,0.098353863,-0.061740915,1,0,0,0,179,179,149,1,redding,images/br_redding.png,images/cb_redding.png,0,,,,,,,,,,,,,,,,,,,,,,
,,,,,00026,2023-09-05_09h36.19.225,vbt_B1_day3,2022.2.4,Linux x86_64,60.06006006,,,,,,down,0,4.6619,,0.075779597,0.064715743,1,0,0,0,180,180,61,1,groen,images/br_groen.png,images/cb_groen.png,1,groen,,,,,,,,,,,,,,,,,,,,,
,,,,,00026,2023-09-05_09h36.19.225,vbt_B1_day3,2022.2.4,Linux x86_64,60.06006006,,,,,,down,0,9.0431,,-0.026482503,0.087668896,1,0,0,0,181,181,180,1,openbaar,images/br_openbaar.png,images/cb_openbaar.png,1,openbaar,,,,,,,,,,,,,,,,,,,,,
,,,,,00026,2023-09-05_09h36.19.225,vbt_B1_day3,2022.2.4,Linux x86_64,60.06006006,,,,,,down,0,0.2417,,0.026698033,-0.06456093,1,0,0,0,182,182,33,1,vlek,images/br_vlek.png,images/cb_vlek.png,0,,,,,,,,,,,,,,,,,,,,,,
,,,,,00026,2023-09-05_09h36.19.225,vbt_B1_day3,2022.2.4,Linux x86_64,60.06006006,,,,,,down,0,4.9487,,0.027570645,-0.049724499,1,0,0,0,183,183,12,1,kust,images/br_kust.png,images/cb_kust.png,0,,,,,,,,,,,,,,,,,,,,,,
,,,,,00026,2023-09-05_09h36.19.225,vbt_B1_day3,2022.2.4,Linux x86_64,60.06006006,,,,,,down,0,12.539,,-0.125457287,-0.02047797,1,0,0,0,184,184,140,1,blijven,images/br_blijven.png,images/cb_blijven.png,1,blijven,,,,,,,,,,,,,,,,,,,,,
,,,,,00026,2023-09-05_09h36.19.225,vbt_B1_day3,2022.2.4,Linux x86_64,60.06006006,,,,,,down,0,1.5608,,-0.018127362,-0.08672905,1,0,0,0,185,185,165,1,feestdag,images/br_feestdag.png,images/cb_feestdag.png,0,,,,,,,,,,,,,,,,,,,,,,
,,,,,00026,2023-09-05_09h36.19.225,vbt_B1_day3,2022.2.4,Linux x86_64,60.06006006,,,,,,down,0,0.6175,,-0.013764302,-0.07247448,1,0,0,0,186,186,81,1,dubbel,images/br_dubbel.png,images/cb_dubbel.png,0,,,,,,,,,,,,,,,,,,,,,,
,,,,,00026,2023-09-05_09h36.19.225,vbt_B1_day3,2022.2.4,Linux x86_64,60.06006006,,,,,,down,0,9.9929,,-0.076302528,-0.029027859,1,0,0,0,187,187,142,1,snuiven,images/br_snuiven.png,images/cb_snuiven.png,1,snuiven,,,,,,,,,,,,,,,,,,,,,
,,,,,00026,2023-09-05_09h36.19.225,vbt_B1_day3,2022.2.4,Linux x86_64,60.06006006,,,,,,down,0,1.9541,,-0.012633483,-0.133843184,1,0,0,0,188,188,122,1,waarvan,images/br_waarvan.png,images/cb_waarvan.png,0,,,,,,,,,,,,,,,,,,,,,,
,,,,,00026,2023-09-05_09h36.19.225,vbt_B1_day3,2022.2.4,Linux x86_64,60.06006006,,,,,,down,0,3.7998,,-0.014357169,-0.149043481,1,0,0,0,189,189,47,1,kabel,images/br_kabel.png,images/cb_kabel.png,0,,,,,,,,,,,,,,,,,,,,,,
,,,,,00026,2023-09-05_09h36.19.225,vbt_B1_day3,2022.2.4,Linux x86_64,60.06006006,,,,,,down,0,4.8298,,-0.028637807,-0.123465816,1,0,0,0,190,190,28,1,stal,images/br_stal.png,images/cb_stal.png,0,,,,,,,,,,,,,,,,,,,,,,
,,,,,00026,2023-09-05_09h36.19.225,vbt_B1_day3,2022.2.4,Linux x86_64,60.06006006,,,,,,down,0,2.4338,,-0.016711156,-0.126665751,1,0,0,0,191,191,112,1,lukken,images/br_lukken.png,images/cb_lukken.png,0,,,,,,,,,,,,,,,,,,,,,,
,,,,,00026,2023-09-05_09h36.19.225,vbt_B1_day3,2022.2.4,Linux x86_64,60.06006006,,,,,,down,0,0.7146,,-0.034381628,-0.135694782,1,0,0,0,192,192,49,1,laken,images/br_laken.png,images/cb_laken.png,0,,,,,,,,,,,,,,,,,,,,,,
,,,,,00026,2023-09-05_09h36.19.225,vbt_B1_day3,2022.2.4,Linux x86_64,60.06006006,,,,,,down,0,4.5344,,-0.045326948,-0.140009125,1,0,0,0,193,193,71,1,bever,images/br_bever.png,images/cb_bever.png,0,,,,,,,,,,,,,,,,,,,,,,
,,,,,00026,2023-09-05_09h36.19.225,vbt_B1_day3,2022.2.4,Linux x86_64,60.06006006,,,,,,down,0,4.8037,,-0.035146316,-0.133318106,1,0,0,0,194,194,174,1,stemming,images/br_stemming.png,images/cb_stemming.png,0,,,,,,,,,,,,,,,,,,,,,,
,,,,,00026,2023-09-05_09h36.19.225,vbt_B1_day3,2022.2.4,Linux x86_64,60.06006006,,,,,,down,0,0.514,,-0.025241772,-0.173218648,1,0,0,0,195,195,70,1,ijdel,images/br_ijdel.png,images/cb_ijdel.png,0,,,,,,,,,,,,,,,,,,,,,,
,,,,,00026,2023-09-05_09h36.19.225,vbt_B1_day3,2022.2.4,Linux x86_64,60.06006006,,,,,,down,0,3.0529,,-0.02025946,-0.23977081,1,0,0,0,196,196,36,1,vuur,images/br_vuur.png,images/cb_vuur.png,0,,,,,,,,,,,,,,,,,,,,,,
,,,,,00026,2023-09-05_09h36.19.225,vbt_B1_day3,2022.2.4,Linux x86_64,60.06006006,,,,,,down,0,1.1912,,-0.008262714,-0.213326852,1,0,0,0,197,197,99,1,koffie,images/br_koffie.png,images/cb_koffie.png,0,,,,,,,,,,,,,,,,,,,,,,
,,,,,00026,2023-09-05_09h36.19.225,vbt_B1_day3,2022.2.4,Linux x86_64,60.06006006,,,,,,down,0,0.7498,,0.01913619,-0.216980775,1,0,0,0,198,198,119,1,liefje,images/br_liefje.png,images/cb_liefje.png,0,,,,,,,,,,,,,,,,,,,,,,
,,,,,00026,2023-09-05_09h36.19.225,vbt_B1_day3,2022.2.4,Linux x86_64,60.06006006,,,,,,down,0,3.9492,,-0.06242617,-0.077087561,1,0,0,0,199,199,60,1,jasje,images/br_jasje.png,images/cb_jasje.png,1,jasje,,,,,,,,,,,,,,,,,,,,,
,,,,,00026,2023-09-05_09h36.19.225,vbt_B1_day3,2022.2.4,Linux x86_64,60.06006006,,,,,,,,,,,,,,,,,,,,,,,,,-0.115026712,-0.059884508,1,0,0,,,,,,,,,,,,,,,,
,,,,,00026,2023-09-05_09h36.19.225,vbt_B1_day3,2022.2.4,Linux x86_64,60.06006006,,,,,,,,,,,,,,,,,,,,,,,,,,,,,,0.502759457,-0.063225428,1,0,0,,,,,,,,,,,
,,,,,00026,2023-09-05_09h36.19.225,vbt_B1_day3,2022.2.4,Linux x86_64,60.06006006,,,,,,,,,,,,,,,,,,,,mode,images/br_mode.png,images/cb_mode.png,,.o.e,,,,,,,,,,,-0.108005047,0.071876804,1,0,0,.o.e,0,0,0,3,1
,,,,,00026,2023-09-05_09h36.19.225,vbt_B1_day3,2022.2.4,Linux x86_64,60.06006006,,,,,,,,,,,,,,,,,,,,jongelui,images/br_jongelui.png,images/cb_jongelui.png,,jongel..,,,,,,,,,,,0.268920501,0.143036763,1,0,0,jongel..,0,1,1,59,1
,,,,,00026,2023-09-05_09h36.19.225,vbt_B1_day3,2022.2.4,Linux x86_64,60.06006006,,,,,,,,,,,,,,,,,,,,stallen,images/br_stallen.png,images/cb_stallen.png,,stallen,,,,,,,,,,,0.225512346,-0.080107768,1,0,0,stallen,0,2,2,52,1
,,,,,00026,2023-09-05_09h36.19.225,vbt_B1_day3,2022.2.4,Linux x86_64,60.06006006,,,,,,,,,,,,,,,,,,,,slapen,images/br_slapen.png,images/cb_slapen.png,,slapen,,,,,,,,,,,0.670901616,0.071614504,1,0,0,slapen,0,3,3,9,1
,,,,,00026,2023-09-05_09h36.19.225,vbt_B1_day3,2022.2.4,Linux x86_64,60.06006006,,,,,,,,,,,,,,,,,,,,leugeren,images/br_leugeren.png,images/cb_leugeren.png,,leg.e....,,,,,,,,,,,0.066063404,-0.009407163,1,0,0,leg.e....,0,4,4,37,1
,,,,,00026,2023-09-05_09h36.19.225,vbt_B1_day3,2022.2.4,Linux x86_64,60.06006006,,,,,,,,,,,,,,,,,,,,bevret,images/br_bevret.png,images/cb_bevret.png,,ber.et,,,,,,,,,,,0.204610348,0.081848065,1,0,0,ber.et,0,5,5,30,1
,,,,,00026,2023-09-05_09h36.19.225,vbt_B1_day3,2022.2.4,Linux x86_64,60.06006006,,,,,,,,,,,,,,,,,,,,makieren,images/br_makieren.png,images/cb_makieren.png,,.akieren,,,,,,,,,,,0.07001996,-0.007864118,1,0,0,.akieren,0,6,6,36,1
,,,,,00026,2023-09-05_09h36.19.225,vbt_B1_day3,2022.2.4,Linux x86_64,60.06006006,,,,,,,,,,,,,,,,,,,,invallen,images/br_invallen.png,images/cb_invallen.png,,inhalen,,,,,,,,,,,0.04616642,-0.035149495,1,0,0,inhalen,0,7,7,57,1
,,,,,00026,2023-09-05_09h36.19.225,vbt_B1_day3,2022.2.4,Linux x86_64,60.06006006,,,,,,,,,,,,,,,,,,,,uviek,images/br_uviek.png,images/cb_uviek.png,,..iek,,,,,,,,,,,-0.015438716,0.051371932,1,0,0,..iek,0,8,8,25,1
,,,,,00026,2023-09-05_09h36.19.225,vbt_B1_day3,2022.2.4,Linux x86_64,60.06006006,,,,,,,,,,,,,,,,,,,,twaaf,images/br_twaaf.png,images/cb_twaaf.png,,twaalf,,,,,,,,,,,0.417906841,0.046087384,1,0,0,twaalf,0,9,9,24,1
,,,,,00026,2023-09-05_09h36.19.225,vbt_B1_day3,2022.2.4,Linux x86_64,60.06006006,,,,,,,,,,,,,,,,,,,,aarzelen,images/br_aarzelen.png,images/cb_aarzelen.png,,aarzelen,,,,,,,,,,,0.145896832,-0.042108297,1,0,0,aarzelen,0,10,10,19,1
,,,,,00026,2023-09-05_09h36.19.225,vbt_B1_day3,2022.2.4,Linux x86_64,60.06006006,,,,,,,,,,,,,,,,,,,,knie,images/br_knie.png,images/cb_knie.png,,knie,,,,,,,,,,,0.401764313,-0.033282002,1,0,0,knie,0,11,11,0,1
,,,,,00026,2023-09-05_09h36.19.225,vbt_B1_day3,2022.2.4,Linux x86_64,60.06006006,,,,,,,,,,,,,,,,,,,,beslag,images/br_beslag.png,images/cb_beslag.png,,beslag,,,,,,,,,,,0.449796041,0.157951554,1,0,0,beslag,0,12,12,51,1
,,,,,00026,2023-09-05_09h36.19.225,vbt_B1_day3,2022.2.4,Linux x86_64,60.06006006,,,,,,,,,,,,,,,,,,,,geluid,images/br_geluid.png,images/cb_geluid.png,,gel.i.,,,,,,,,,,,0.137790442,-0.006644527,1,0,0,gel.i.,0,13,13,10,1
,,,,,00026,2023-09-05_09h36.19.225,vbt_B1_day3,2022.2.4,Linux x86_64,60.06006006,,,,,,,,,,,,,,,,,,,,steel,images/br_steel.png,images/cb_steel.png,,steel,,,,,,,,,,,-0.026432196,0.041537285,1,0,0,steel,0,14,14,4,1
,,,,,00026,2023-09-05_09h36.19.225,vbt_B1_day3,2022.2.4,Linux x86_64,60.06006006,,,,,,,,,,,,,,,,,,,,mugeek,images/br_mugeek.png,images/cb_mugeek.png,,..geek,,,,,,,,,,,0.148678859,0.106678446,1,0,0,..geek,0,15,15,29,1
,,,,,00026,2023-09-05_09h36.19.225,vbt_B1_day3,2022.2.4,Linux x86_64,60.06006006,,,,,,,,,,,,,,,,,,,,laken,images/br_laken.png,images/cb_laken.png,,laken,,,,,,,,,,,0.323932489,-0.004863262,1,0,0,laken,0,16,16,5,1
,,,,,00026,2023-09-05_09h36.19.225,vbt_B1_day3,2022.2.4,Linux x86_64,60.06006006,,,,,,,,,,,,,,,,,,,,sluier,images/br_sluier.png,images/cb_sluier.png,,sl.ier,,,,,,,,,,,-0.027909994,-0.0364966,1,0,0,sl.ier,0,17,17,50,1
,,,,,00026,2023-09-05_09h36.19.225,vbt_B1_day3,2022.2.4,Linux x86_64,60.06006006,,,,,,,,,,,,,,,,,,,,gout,images/br_gout.png,images/cb_gout.png,,go.t,,,,,,,,,,,0.300346692,-0.014999906,1,0,0,go.t,0,18,18,20,1
,,,,,00026,2023-09-05_09h36.19.225,vbt_B1_day3,2022.2.4,Linux x86_64,60.06006006,,,,,,,,,,,,,,,,,,,,leemaken,images/br_leemaken.png,images/cb_leemaken.png,,lee.aken,,,,,,,,,,,0.069133361,-0.049507697,1,0,0,lee.aken,0,19,19,39,1
,,,,,00026,2023-09-05_09h36.19.225,vbt_B1_day3,2022.2.4,Linux x86_64,60.06006006,,,,,,,,,,,,,,,,,,,,afbopen,images/br_afbopen.png,images/cb_afbopen.png,,..bopen,,,,,,,,,,,0.123302539,0.011698524,1,0,0,..bopen,0,20,20,34,1
,,,,,00026,2023-09-05_09h36.19.225,vbt_B1_day3,2022.2.4,Linux x86_64,60.06006006,,,,,,,,,,,,,,,,,,,,opzicht,images/br_opzicht.png,images/cb_opzicht.png,,opze....,,,,,,,,,,,0.083862225,0.072306593,1,0,0,opze....,0,21,21,15,1
,,,,,00026,2023-09-05_09h36.19.225,vbt_B1_day3,2022.2.4,Linux x86_64,60.06006006,,,,,,,,,,,,,,,,,,,,kaas,images/br_kaas.png,images/cb_kaas.png,,kaas,,,,,,,,,,,-0.149108171,-0.067062497,1,0,0,kaas,0,22,22,42,1
,,,,,00026,2023-09-05_09h36.19.225,vbt_B1_day3,2022.2.4,Linux x86_64,60.06006006,,,,,,,,,,,,,,,,,,,,uniek,images/br_uniek.png,images/cb_uniek.png,,.niek,,,,,,,,,,,0.035934846,0.023988446,1,0,0,.niek,0,23,23,46,1
,,,,,00026,2023-09-05_09h36.19.225,vbt_B1_day3,2022.2.4,Linux x86_64,60.06006006,,,,,,,,,,,,,,,,,,,,bisschop,images/br_bisschop.png,images/cb_bisschop.png,,bisscuit,,,,,,,,,,,0.002413273,-0.195536455,1,0,0,bisscuit,0,24,24,16,1
,,,,,00026,2023-09-05_09h36.19.225,vbt_B1_day3,2022.2.4,Linux x86_64,60.06006006,,,,,,,,,,,,,,,,,,,,croo,images/br_croo.png,images/cb_croo.png,,croo,,,,,,,,,,,-0.024724404,-0.018331607,1,0,0,croo,0,25,25,22,1
,,,,,00026,2023-09-05_09h36.19.225,vbt_B1_day3,2022.2.4,Linux x86_64,60.06006006,,,,,,,,,,,,,,,,,,,,hust,images/br_hust.png,images/cb_hust.png,,..st,,,,,,,,,,,0.144390901,0.185716232,1,0,0,..st,0,26,26,23,1
,,,,,00026,2023-09-05_09h36.19.225,vbt_B1_day3,2022.2.4,Linux x86_64,60.06006006,,,,,,,,,,,,,,,,,,,,gebod,images/br_gebod.png,images/cb_gebod.png,,gebod,,,,,,,,,,,0.074590762,0.020662268,1,0,0,gebod,0,27,27,45,1
,,,,,00026,2023-09-05_09h36.19.225,vbt_B1_day3,2022.2.4,Linux x86_64,60.06006006,,,,,,,,,,,,,,,,,,,,alsof,images/br_alsof.png,images/cb_alsof.png,,alsof,,,,,,,,,,,0.095298608,-0.025228063,1,0,0,alsof,0,28,28,44,1
,,,,,00026,2023-09-05_09h36.19.225,vbt_B1_day3,2022.2.4,Linux x86_64,60.06006006,,,,,,,,,,,,,,,,,,,,glijden,images/br_glijden.png,images/cb_glijden.png,,glijden,,,,,,,,,,,0.122375409,-0.006582459,1,0,0,glijden,0,29,29,53,1
,,,,,00026,2023-09-05_09h36.19.225,vbt_B1_day3,2022.2.4,Linux x86_64,60.06006006,,,,,,,,,,,,,,,,,,,,verraden,images/br_verraden.png,images/cb_verraden.png,,.erra....,,,,,,,,,,,0.096474727,0.001991113,1,0,0,.erra....,0,30,30,58,1
,,,,,00026,2023-09-05_09h36.19.225,vbt_B1_day3,2022.2.4,Linux x86_64,60.06006006,,,,,,,,,,,,,,,,,,,,kest,images/br_kest.png,images/cb_kest.png,,kest,,,,,,,,,,,0.110489845,-0.015911937,1,0,0,kest,0,31,31,21,1
,,,,,00026,2023-09-05_09h36.19.225,vbt_B1_day3,2022.2.4,Linux x86_64,60.06006006,,,,,,,,,,,,,,,,,,,,prikken,images/br_prikken.png,images/cb_prikken.png,,prikken,,,,,,,,,,,0.185359399,-0.071096023,1,0,0,prikken,0,32,32,12,1
,,,,,00026,2023-09-05_09h36.19.225,vbt_B1_day3,2022.2.4,Linux x86_64,60.06006006,,,,,,,,,,,,,,,,,,,,begrip,images/br_begrip.png,images/cb_begrip.png,,begrip,,,,,,,,,,,0.126329501,0.04822576,1,0,0,begrip,0,33,33,48,1
,,,,,00026,2023-09-05_09h36.19.225,vbt_B1_day3,2022.2.4,Linux x86_64,60.06006006,,,,,,,,,,,,,,,,,,,,zone,images/br_zone.png,images/cb_zone.png,,zone,,,,,,,,,,,0.051402013,-0.024259607,1,0,0,zone,0,34,34,41,1
,,,,,00026,2023-09-05_09h36.19.225,vbt_B1_day3,2022.2.4,Linux x86_64,60.06006006,,,,,,,,,,,,,,,,,,,,boeien,images/br_boeien.png,images/cb_boeien.png,,boeien,,,,,,,,,,,0.059270302,0.040020227,1,0,0,boeien,0,35,35,8,1
,,,,,00026,2023-09-05_09h36.19.225,vbt_B1_day3,2022.2.4,Linux x86_64,60.06006006,,,,,,,,,,,,,,,,,,,,gezond,images/br_gezond.png,images/cb_gezond.png,,gezond,,,,,,,,,,,0.29816707,0.015820821,1,0,0,gezond,0,36,36,11,1
,,,,,00026,2023-09-05_09h36.19.225,vbt_B1_day3,2022.2.4,Linux x86_64,60.06006006,,,,,,,,,,,,,,,,,,,,samen,images/br_samen.png,images/cb_samen.png,,samen,,,,,,,,,,,0.032024066,-0.032889088,1,0,0,samen,0,37,37,7,1
,,,,,00026,2023-09-05_09h36.19.225,vbt_B1_day3,2022.2.4,Linux x86_64,60.06006006,,,,,,,,,,,,,,,,,,,,hint,images/br_hint.png,images/cb_hint.png,,.int,,,,,,,,,,,-0.034133275,0.01290067,1,0,0,.int,0,38,38,43,1
,,,,,00026,2023-09-05_09h36.19.225,vbt_B1_day3,2022.2.4,Linux x86_64,60.06006006,,,,,,,,,,,,,,,,,,,,brappen,images/br_brappen.png,images/cb_brappen.png,,brappen,,,,,,,,,,,0.10317874,-0.073661764,1,0,0,brappen,0,39,39,35,1
,,,,,00026,2023-09-05_09h36.19.225,vbt_B1_day3,2022.2.4,Linux x86_64,60.06006006,,,,,,,,,,,,,,,,,,,,verwoor,images/br_verwoor.png,images/cb_verwoor.png,,.erwoor,,,,,,,,,,,0.392780701,0.216481666,1,0,0,.erwoor,0,40,40,32,1
,,,,,00026,2023-09-05_09h36.19.225,vbt_B1_day3,2022.2.4,Linux x86_64,60.06006006,,,,,,,,,,,,,,,,,,,,schodel,images/br_schodel.png,images/cb_schodel.png,,sc....,,,,,,,,,,,0.328278701,0.116885861,1,0,0,sc....,0,41,41,33,1
,,,,,00026,2023-09-05_09h36.19.225,vbt_B1_day3,2022.2.4,Linux x86_64,60.06006006,,,,,,,,,,,,,,,,,,,,eens,images/br_eens.png,images/cb_eens.png,,eens,,,,,,,,,,,0.276513577,-0.201613029,1,0,0,eens,0,42,42,40,1
,,,,,00026,2023-09-05_09h36.19.225,vbt_B1_day3,2022.2.4,Linux x86_64,60.06006006,,,,,,,,,,,,,,,,,,,,verhaal,images/br_verhaal.png,images/cb_verhaal.png,,.er.eel,,,,,,,,,,,0.140269438,-0.023995241,1,0,0,.er.eel,0,43,43,13,1
,,,,,00026,2023-09-05_09h36.19.225,vbt_B1_day3,2022.2.4,Linux x86_64,60.06006006,,,,,,,,,,,,,,,,,,,,keihard,images/br_keihard.png,images/cb_keihard.png,,kei.ar.,,,,,,,,,,,0.015211423,-0.056799134,1,0,0,kei.ar.,0,44,44,14,1
,,,,,00026,2023-09-05_09h36.19.225,vbt_B1_day3,2022.2.4,Linux x86_64,60.06006006,,,,,,,,,,,,,,,,,,,,leek,images/br_leek.png,images/cb_leek.png,,leek,,,,,,,,,,,0.072440465,0.007802844,1,0,0,leek,0,45,45,2,1
,,,,,00026,2023-09-05_09h36.19.225,vbt_B1_day3,2022.2.4,Linux x86_64,60.06006006,,,,,,,,,,,,,,,,,,,,paken,images/br_paken.png,images/cb_paken.png,,paken,,,,,,,,,,,0.066167672,-0.010226409,1,0,0,paken,0,46,46,27,1
,,,,,00026,2023-09-05_09h36.19.225,vbt_B1_day3,2022.2.4,Linux x86_64,60.06006006,,,,,,,,,,,,,,,,,,,,theeting,images/br_theeting.png,images/cb_theeting.png,,te.eeng,,,,,,,,,,,0.370646795,0.137753725,1,0,0,te.eeng,0,47,47,38,1
,,,,,00026,2023-09-05_09h36.19.225,vbt_B1_day3,2022.2.4,Linux x86_64,60.06006006,,,,,,,,,,,,,,,,,,,,kwaas,images/br_kwaas.png,images/cb_kwaas.png,,kwaas,,,,,,,,,,,0.149096012,-0.092003345,1,0,0,kwaas,0,48,48,26,1
,,,,,00026,2023-09-05_09h36.19.225,vbt_B1_day3,2022.2.4,Linux x86_64,60.06006006,,,,,,,,,,,,,,,,,,,,sultan,images/br_sultan.png,images/cb_sultan.png,,s.ltan,,,,,,,,,,,0.110171398,-0.008853634,1,0,0,s.ltan,0,49,49,49,1
,,,,,00026,2023-09-05_09h36.19.225,vbt_B1_day3,2022.2.4,Linux x86_64,60.06006006,,,,,,,,,,,,,,,,,,,,stoom,images/br_stoom.png,images/cb_stoom.png,,stoom,,,,,,,,,,,0.095886628,-0.071560502,1,0,0,stoom,0,50,50,6,1
,,,,,00026,2023-09-05_09h36.19.225,vbt_B1_day3,2022.2.4,Linux x86_64,60.06006006,,,,,,,,,,,,,,,,,,,,opzetten,images/br_opzetten.png,images/cb_opzetten.png,,opwetten,,,,,,,,,,,0.108864148,-0.096633554,1,0,0,opwetten,0,51,51,56,1
,,,,,00026,2023-09-05_09h36.19.225,vbt_B1_day3,2022.2.4,Linux x86_64,60.06006006,,,,,,,,,,,,,,,,,,,,vlager,images/br_vlager.png,images/cb_vlager.png,,.lager,,,,,,,,,,,0.223797401,-0.019461314,1,0,0,.lager,0,52,52,28,1
,,,,,00026,2023-09-05_09h36.19.225,vbt_B1_day3,2022.2.4,Linux x86_64,60.06006006,,,,,,,,,,,,,,,,,,,,schatten,images/br_schatten.png,images/cb_schatten.png,,schatt..,,,,,,,,,,,0.118668238,-0.016852736,1,0,0,schatt..,0,53,53,18,1
,,,,,00026,2023-09-05_09h36.19.225,vbt_B1_day3,2022.2.4,Linux x86_64,60.06006006,,,,,,,,,,,,,,,,,,,,onrecht,images/br_onrecht.png,images/cb_onrecht.png,,onrecht,,,,,,,,,,,0.046990951,-0.017072996,1,0,0,onrecht,0,54,54,55,1
,,,,,00026,2023-09-05_09h36.19.225,vbt_B1_day3,2022.2.4,Linux x86_64,60.06006006,,,,,,,,,,,,,,,,,,,,hier,images/br_hier.png,images/cb_hier.png,,.ier,,,,,,,,,,,0.147288084,0.000508229,1,0,0,.ier,0,55,55,1,1
,,,,,00026,2023-09-05_09h36.19.225,vbt_B1_day3,2022.2.4,Linux x86_64,60.06006006,,,,,,,,,,,,,,,,,,,,booien,images/br_booien.png,images/cb_booien.png,,boeien,,,,,,,,,,,0.283558369,-0.052399755,1,0,0,boeien,0,56,56,31,1
,,,,,00026,2023-09-05_09h36.19.225,vbt_B1_day3,2022.2.4,Linux x86_64,60.06006006,,,,,,,,,,,,,,,,,,,,oprotten,images/br_oprotten.png,images/cb_oprotten.png,,oprotten,,,,,,,,,,,0.065132538,-0.018302838,1,0,0,oprotten,0,57,57,17,1
,,,,,00026,2023-09-05_09h36.19.225,vbt_B1_day3,2022.2.4,Linux x86_64,60.06006006,,,,,,,,,,,,,,,,,,,,stikken,images/br_stikken.png,images/cb_stikken.png,,stikken,,,,,,,,,,,-0.043944756,-0.01817437,1,0,0,stikken,0,58,58,54,1
,,,,,00026,2023-09-05_09h36.19.225,vbt_B1_day3,2022.2.4,Linux x86_64,60.06006006,,,,,,,,,,,,,,,,,,,,dwang,images/br_dwang.png,images/cb_dwang.png,,.wang,,,,,,,,,,,0.164111694,-0.014930606,1,0,0,.wang,0,59,59,47,1
,,,,,00026,2023-09-05_09h36.19.225,vbt_B1_day3,2022.2.4,Linux x86_64,60.06006006,,,,,,,,,,,,,,,,,,,,,,,,,,,,,,,,,,,,,,,,,,,,,
