welcome_mouse.x,welcome_mouse.y,welcome_mouse.leftButton,welcome_mouse.midButton,welcome_mouse.rightButton,"ID",date,expName,psychopyVersion,OS,frameRate,trainInstr_mouse.x,trainInstr_mouse.y,trainInstr_mouse.leftButton,trainInstr_mouse.midButton,trainInstr_mouse.rightButton,translation_key.keys,translation_key.corr,translation_key.rt,word_rsp.text,trWrd_mouse.x,trWrd_mouse.y,trWrd_mouse.leftButton,trWrd_mouse.midButton,trWrd_mouse.rightButton,train_loop.thisRepN,train_loop.thisTrialN,train_loop.thisN,train_loop.thisIndex,train_loop.ran,nlWrd,brWrd,cbWrd,test,testResp,mouse.x,mouse.y,mouse.leftButton,mouse.midButton,mouse.rightButton,testInstr_mouse.x,testInstr_mouse.y,testInstr_mouse.leftButton,testInstr_mouse.midButton,testInstr_mouse.rightButton,test_mouse.x,test_mouse.y,test_mouse.leftButton,test_mouse.midButton,test_mouse.rightButton,test_response.text,test_loop.thisRepN,test_loop.thisTrialN,test_loop.thisN,test_loop.thisIndex,test_loop.ran
-0.190740727,-0.226851852,1,0,0,00063,2023-10-18_19h38.00.706,vbt_B1_day3,2022.2.4,Win32,60.03121623,,,,,,,,,,,,,,,,,,,,,,,,,,,,,,,,,,,,,,,,,,,,,
,,,,,00063,2023-10-18_19h38.00.706,vbt_B1_day3,2022.2.4,Win32,60.03121623,0.268518519,-0.300000014,1,0,0,,,,,,,,,,,,,,,,,,,,,,,,,,,,,,,,,,,,,,,,
,,,,,00063,2023-10-18_19h38.00.706,vbt_B1_day3,2022.2.4,Win32,60.03121623,,,,,,down,0,4.6544,,0.268518519,-0.300000014,1,0,0,0,0,0,186,1,voorraad,images/br_voorraad.png,images/cb_voorraad.png,0,,,,,,,,,,,,,,,,,,,,,,
,,,,,00063,2023-10-18_19h38.00.706,vbt_B1_day3,2022.2.4,Win32,60.03121623,,,,,,down,0,3.5954,,0.268518519,-0.300000014,1,0,0,0,1,1,86,1,woning,images/br_woning.png,images/cb_woning.png,0,,,,,,,,,,,,,,,,,,,,,,
,,,,,00063,2023-10-18_19h38.00.706,vbt_B1_day3,2022.2.4,Win32,60.03121623,,,,,,down,0,14.2961,,0.268518519,-0.300000014,1,0,0,0,2,2,40,1,schep,images/br_schep.png,images/cb_schep.png,0,,,,,,,,,,,,,,,,,,,,,,
,,,,,00063,2023-10-18_19h38.00.706,vbt_B1_day3,2022.2.4,Win32,60.03121623,,,,,,down,0,5.5851,,0.268518519,-0.300000014,1,0,0,0,3,3,11,1,mode,images/br_mode.png,images/cb_mode.png,0,,,,,,,,,,,,,,,,,,,,,,
,,,,,00063,2023-10-18_19h38.00.706,vbt_B1_day3,2022.2.4,Win32,60.03121623,,,,,,down,0,2.8181,,0.268518519,-0.300000014,1,0,0,0,4,4,34,1,vorm,images/br_vorm.png,images/cb_vorm.png,0,,,,,,,,,,,,,,,,,,,,,,
,,,,,00063,2023-10-18_19h38.00.706,vbt_B1_day3,2022.2.4,Win32,60.03121623,,,,,,down,0,1.4221,,0.268518519,-0.300000014,1,0,0,0,5,5,46,1,jagen,images/br_jagen.png,images/cb_jagen.png,0,,,,,,,,,,,,,,,,,,,,,,
,,,,,00063,2023-10-18_19h38.00.706,vbt_B1_day3,2022.2.4,Win32,60.03121623,,,,,,down,0,1.5674,,0.268518519,-0.300000014,1,0,0,0,6,6,52,1,wagon,images/br_wagon.png,images/cb_wagon.png,0,,,,,,,,,,,,,,,,,,,,,,
,,,,,00063,2023-10-18_19h38.00.706,vbt_B1_day3,2022.2.4,Win32,60.03121623,,,,,,down,0,5.1222,,0.268518519,-0.300000014,1,0,0,0,7,7,150,1,gegeven,images/br_gegeven.png,images/cb_gegeven.png,0,,,,,,,,,,,,,,,,,,,,,,
,,,,,00063,2023-10-18_19h38.00.706,vbt_B1_day3,2022.2.4,Win32,60.03121623,,,,,,down,0,5.5345,,0.268518519,-0.300000014,1,0,0,0,8,8,161,1,attentie,images/br_attentie.png,images/cb_attentie.png,0,,,,,,,,,,,,,,,,,,,,,,
,,,,,00063,2023-10-18_19h38.00.706,vbt_B1_day3,2022.2.4,Win32,60.03121623,,,,,,down,0,2.8552,,0.268518519,-0.300000014,1,0,0,0,9,9,138,1,akkoord,images/br_akkoord.png,images/cb_akkoord.png,0,,,,,,,,,,,,,,,,,,,,,,
,,,,,00063,2023-10-18_19h38.00.706,vbt_B1_day3,2022.2.4,Win32,60.03121623,,,,,,down,0,3.3177,,0.268518519,-0.300000014,1,0,0,0,10,10,172,1,weigeren,images/br_weigeren.png,images/cb_weigeren.png,0,,,,,,,,,,,,,,,,,,,,,,
,,,,,00063,2023-10-18_19h38.00.706,vbt_B1_day3,2022.2.4,Win32,60.03121623,,,,,,down,0,1.4499,,0.268518519,-0.300000014,1,0,0,0,11,11,0,1,slak,images/br_slak.png,images/cb_slak.png,0,,,,,,,,,,,,,,,,,,,,,,
,,,,,00063,2023-10-18_19h38.00.706,vbt_B1_day3,2022.2.4,Win32,60.03121623,,,,,,down,0,6.251,,0.268518519,-0.300000014,1,0,0,0,12,12,198,1,bedoelen,images/br_bedoelen.png,images/cb_bedoelen.png,0,,,,,,,,,,,,,,,,,,,,,,
,,,,,00063,2023-10-18_19h38.00.706,vbt_B1_day3,2022.2.4,Win32,60.03121623,,,,,,down,0,5.5762,,0.268518519,-0.300000014,1,0,0,0,13,13,165,1,feestdag,images/br_feestdag.png,images/cb_feestdag.png,0,,,,,,,,,,,,,,,,,,,,,,
,,,,,00063,2023-10-18_19h38.00.706,vbt_B1_day3,2022.2.4,Win32,60.03121623,,,,,,down,0,2.5916,,0.268518519,-0.300000014,1,0,0,0,14,14,118,1,vinger,images/br_vinger.png,images/cb_vinger.png,0,,,,,,,,,,,,,,,,,,,,,,
,,,,,00063,2023-10-18_19h38.00.706,vbt_B1_day3,2022.2.4,Win32,60.03121623,,,,,,down,0,6.1511,,0.268518519,-0.300000014,1,0,0,0,15,15,81,1,dubbel,images/br_dubbel.png,images/cb_dubbel.png,0,,,,,,,,,,,,,,,,,,,,,,
,,,,,00063,2023-10-18_19h38.00.706,vbt_B1_day3,2022.2.4,Win32,60.03121623,,,,,,down,0,4.6405,,0.268518519,-0.300000014,1,0,0,0,16,16,119,1,liefje,images/br_liefje.png,images/cb_liefje.png,0,,,,,,,,,,,,,,,,,,,,,,
,,,,,00063,2023-10-18_19h38.00.706,vbt_B1_day3,2022.2.4,Win32,60.03121623,,,,,,down,0,2.8175,,0.268518519,-0.300000014,1,0,0,0,17,17,77,1,woede,images/br_woede.png,images/cb_woede.png,0,,,,,,,,,,,,,,,,,,,,,,
,,,,,00063,2023-10-18_19h38.00.706,vbt_B1_day3,2022.2.4,Win32,60.03121623,,,,,,down,0,6.208,,0.268518519,-0.300000014,1,0,0,0,18,18,194,1,driemaal,images/br_driemaal.png,images/cb_driemaal.png,0,,,,,,,,,,,,,,,,,,,,,,
,,,,,00063,2023-10-18_19h38.00.706,vbt_B1_day3,2022.2.4,Win32,60.03121623,,,,,,down,0,2.1751,,0.268518519,-0.300000014,1,0,0,0,19,19,62,1,knaap,images/br_knaap.png,images/cb_knaap.png,1,knaap,,,,,,,,,,,,,,,,,,,,,
,,,,,00063,2023-10-18_19h38.00.706,vbt_B1_day3,2022.2.4,Win32,60.03121623,,,,,,down,0,6.776,,0.268518519,-0.300000014,1,0,0,0,20,20,15,1,soda,images/br_soda.png,images/cb_soda.png,0,,,,,,,,,,,,,,,,,,,,,,
,,,,,00063,2023-10-18_19h38.00.706,vbt_B1_day3,2022.2.4,Win32,60.03121623,,,,,,down,0,5.7786,,0.268518519,-0.300000014,1,0,0,0,21,21,166,1,strikken,images/br_strikken.png,images/cb_strikken.png,0,,,,,,,,,,,,,,,,,,,,,,
,,,,,00063,2023-10-18_19h38.00.706,vbt_B1_day3,2022.2.4,Win32,60.03121623,,,,,,down,0,3.0462,,0.268518519,-0.300000014,1,0,0,0,22,22,85,1,heilig,images/br_heilig.png,images/cb_heilig.png,0,,,,,,,,,,,,,,,,,,,,,,
,,,,,00063,2023-10-18_19h38.00.706,vbt_B1_day3,2022.2.4,Win32,60.03121623,,,,,,down,0,5.8264,,0.268518519,-0.300000014,1,0,0,0,23,23,190,1,goedkoop,images/br_goedkoop.png,images/cb_goedkoop.png,0,,,,,,,,,,,,,,,,,,,,,,
,,,,,00063,2023-10-18_19h38.00.706,vbt_B1_day3,2022.2.4,Win32,60.03121623,,,,,,down,0,0.2552,,0.268518519,-0.300000014,1,0,0,0,24,24,18,1,blik,images/br_blik.png,images/cb_blik.png,0,,,,,,,,,,,,,,,,,,,,,,
,,,,,00063,2023-10-18_19h38.00.706,vbt_B1_day3,2022.2.4,Win32,60.03121623,,,,,,down,0,0.6348,,0.268518519,-0.300000014,1,0,0,0,25,25,39,1,laag,images/br_laag.png,images/cb_laag.png,0,,,,,,,,,,,,,,,,,,,,,,
,,,,,00063,2023-10-18_19h38.00.706,vbt_B1_day3,2022.2.4,Win32,60.03121623,,,,,,down,0,2.7252,,0.268518519,-0.300000014,1,0,0,0,26,26,53,1,baron,images/br_baron.png,images/cb_baron.png,0,,,,,,,,,,,,,,,,,,,,,,
,,,,,00063,2023-10-18_19h38.00.706,vbt_B1_day3,2022.2.4,Win32,60.03121623,,,,,,down,0,1.4083,,0.268518519,-0.300000014,1,0,0,0,27,27,47,1,kabel,images/br_kabel.png,images/cb_kabel.png,0,,,,,,,,,,,,,,,,,,,,,,
,,,,,00063,2023-10-18_19h38.00.706,vbt_B1_day3,2022.2.4,Win32,60.03121623,,,,,,down,0,1.8378,,0.268518519,-0.300000014,1,0,0,0,28,28,9,1,hier,images/br_hier.png,images/cb_hier.png,0,,,,,,,,,,,,,,,,,,,,,,
,,,,,00063,2023-10-18_19h38.00.706,vbt_B1_day3,2022.2.4,Win32,60.03121623,,,,,,down,0,5.1355,,0.268518519,-0.300000014,1,0,0,0,29,29,134,1,geliefd,images/br_geliefd.png,images/cb_geliefd.png,0,,,,,,,,,,,,,,,,,,,,,,
,,,,,00063,2023-10-18_19h38.00.706,vbt_B1_day3,2022.2.4,Win32,60.03121623,,,,,,down,0,4.5707,,0.268518519,-0.300000014,1,0,0,0,30,30,171,1,aarzelen,images/br_aarzelen.png,images/cb_aarzelen.png,0,,,,,,,,,,,,,,,,,,,,,,
,,,,,00063,2023-10-18_19h38.00.706,vbt_B1_day3,2022.2.4,Win32,60.03121623,,,,,,down,0,0.8889,,0.268518519,-0.300000014,1,0,0,0,31,31,8,1,knie,images/br_knie.png,images/cb_knie.png,0,,,,,,,,,,,,,,,,,,,,,,
,,,,,00063,2023-10-18_19h38.00.706,vbt_B1_day3,2022.2.4,Win32,60.03121623,,,,,,down,0,0.8195,,0.268518519,-0.300000014,1,0,0,0,32,32,64,1,wegen,images/br_wegen.png,images/cb_wegen.png,0,,,,,,,,,,,,,,,,,,,,,,
,,,,,00063,2023-10-18_19h38.00.706,vbt_B1_day3,2022.2.4,Win32,60.03121623,,,,,,down,0,14.0951,,0.268518519,-0.300000014,1,0,0,0,33,33,193,1,weeshuis,images/br_weeshuis.png,images/cb_weeshuis.png,0,,,,,,,,,,,,,,,,,,,,,,
,,,,,00063,2023-10-18_19h38.00.706,vbt_B1_day3,2022.2.4,Win32,60.03121623,,,,,,down,0,4.9728,,0.268518519,-0.300000014,1,0,0,0,34,34,132,1,grappen,images/br_grappen.png,images/cb_grappen.png,0,,,,,,,,,,,,,,,,,,,,,,
,,,,,00063,2023-10-18_19h38.00.706,vbt_B1_day3,2022.2.4,Win32,60.03121623,,,,,,down,0,1.8231,,0.268518519,-0.300000014,1,0,0,0,35,35,93,1,waarop,images/br_waarop.png,images/cb_waarop.png,0,,,,,,,,,,,,,,,,,,,,,,
,,,,,00063,2023-10-18_19h38.00.706,vbt_B1_day3,2022.2.4,Win32,60.03121623,,,,,,down,0,3.5009,,0.268518519,-0.300000014,1,0,0,0,36,36,107,1,maling,images/br_maling.png,images/cb_maling.png,0,,,,,,,,,,,,,,,,,,,,,,
,,,,,00063,2023-10-18_19h38.00.706,vbt_B1_day3,2022.2.4,Win32,60.03121623,,,,,,down,0,5.4422,,0.268518519,-0.300000014,1,0,0,0,37,37,151,1,aanzoek,images/br_aanzoek.png,images/cb_aanzoek.png,0,,,,,,,,,,,,,,,,,,,,,,
,,,,,00063,2023-10-18_19h38.00.706,vbt_B1_day3,2022.2.4,Win32,60.03121623,,,,,,down,0,12.5065,,0.268518519,-0.300000014,1,0,0,0,38,38,136,1,waarbij,images/br_waarbij.png,images/cb_waarbij.png,0,,,,,,,,,,,,,,,,,,,,,,
,,,,,00063,2023-10-18_19h38.00.706,vbt_B1_day3,2022.2.4,Win32,60.03121623,,,,,,down,0,9.9375,,0.268518519,-0.300000014,1,0,0,0,39,39,174,1,stemming,images/br_stemming.png,images/cb_stemming.png,0,,,,,,,,,,,,,,,,,,,,,,
,,,,,00063,2023-10-18_19h38.00.706,vbt_B1_day3,2022.2.4,Win32,60.03121623,,,,,,down,0,10.134,,0.268518519,-0.300000014,1,0,0,0,40,40,156,1,rechten,images/br_rechten.png,images/cb_rechten.png,0,,,,,,,,,,,,,,,,,,,,,,
,,,,,00063,2023-10-18_19h38.00.706,vbt_B1_day3,2022.2.4,Win32,60.03121623,,,,,,down,0,0.8218,,0.268518519,-0.300000014,1,0,0,0,41,41,10,1,leek,images/br_leek.png,images/cb_leek.png,0,,,,,,,,,,,,,,,,,,,,,,
,,,,,00063,2023-10-18_19h38.00.706,vbt_B1_day3,2022.2.4,Win32,60.03121623,,,,,,down,0,5.1224,,0.268518519,-0.300000014,1,0,0,0,42,42,55,1,praat,images/br_praat.png,images/cb_praat.png,0,,,,,,,,,,,,,,,,,,,,,,
,,,,,00063,2023-10-18_19h38.00.706,vbt_B1_day3,2022.2.4,Win32,60.03121623,,,,,,down,0,2.1716,,0.268518519,-0.300000014,1,0,0,0,43,43,184,1,aandelen,images/br_aandelen.png,images/cb_aandelen.png,0,,,,,,,,,,,,,,,,,,,,,,
,,,,,00063,2023-10-18_19h38.00.706,vbt_B1_day3,2022.2.4,Win32,60.03121623,,,,,,down,0,6.2932,,0.268518519,-0.300000014,1,0,0,0,44,44,72,1,strak,images/br_strak.png,images/cb_strak.png,0,,,,,,,,,,,,,,,,,,,,,,
,,,,,00063,2023-10-18_19h38.00.706,vbt_B1_day3,2022.2.4,Win32,60.03121623,,,,,,down,0,4.0064,,0.268518519,-0.300000014,1,0,0,0,45,45,197,1,spanning,images/br_spanning.png,images/cb_spanning.png,0,,,,,,,,,,,,,,,,,,,,,,
,,,,,00063,2023-10-18_19h38.00.706,vbt_B1_day3,2022.2.4,Win32,60.03121623,,,,,,down,0,3.1012,,0.268518519,-0.300000014,1,0,0,0,46,46,188,1,strekken,images/br_strekken.png,images/cb_strekken.png,0,,,,,,,,,,,,,,,,,,,,,,
,,,,,00063,2023-10-18_19h38.00.706,vbt_B1_day3,2022.2.4,Win32,60.03121623,,,,,,down,0,2.2853,,0.268518519,-0.300000014,1,0,0,0,47,47,75,1,snoep,images/br_snoep.png,images/cb_snoep.png,0,,,,,,,,,,,,,,,,,,,,,,
,,,,,00063,2023-10-18_19h38.00.706,vbt_B1_day3,2022.2.4,Win32,60.03121623,,,,,,down,0,3.2205,,0.268518519,-0.300000014,1,0,0,0,48,48,68,1,schat,images/br_schat.png,images/cb_schat.png,0,,,,,,,,,,,,,,,,,,,,,,
,,,,,00063,2023-10-18_19h38.00.706,vbt_B1_day3,2022.2.4,Win32,60.03121623,,,,,,down,0,1.4846,,0.268518519,-0.300000014,1,0,0,0,49,49,50,1,stoom,images/br_stoom.png,images/cb_stoom.png,0,,,,,,,,,,,,,,,,,,,,,,
,,,,,00063,2023-10-18_19h38.00.706,vbt_B1_day3,2022.2.4,Win32,60.03121623,,,,,,down,0,4.0196,,0.268518519,-0.300000014,1,0,0,0,50,50,65,1,parel,images/br_parel.png,images/cb_parel.png,0,,,,,,,,,,,,,,,,,,,,,,
,,,,,00063,2023-10-18_19h38.00.706,vbt_B1_day3,2022.2.4,Win32,60.03121623,,,,,,down,0,3.6513,,0.268518519,-0.300000014,1,0,0,0,51,51,63,1,flirt,images/br_flirt.png,images/cb_flirt.png,1,flirt,,,,,,,,,,,,,,,,,,,,,
,,,,,00063,2023-10-18_19h38.00.706,vbt_B1_day3,2022.2.4,Win32,60.03121623,,,,,,down,0,0.7279,,0.268518519,-0.300000014,1,0,0,0,52,52,25,1,plek,images/br_plek.png,images/cb_plek.png,0,,,,,,,,,,,,,,,,,,,,,,
,,,,,00063,2023-10-18_19h38.00.706,vbt_B1_day3,2022.2.4,Win32,60.03121623,,,,,,down,0,2.4949,,0.268518519,-0.300000014,1,0,0,0,53,53,49,1,laken,images/br_laken.png,images/cb_laken.png,0,,,,,,,,,,,,,,,,,,,,,,
,,,,,00063,2023-10-18_19h38.00.706,vbt_B1_day3,2022.2.4,Win32,60.03121623,,,,,,down,0,1.0755,,0.268518519,-0.300000014,1,0,0,0,54,54,17,1,taal,images/br_taal.png,images/cb_taal.png,0,,,,,,,,,,,,,,,,,,,,,,
,,,,,00063,2023-10-18_19h38.00.706,vbt_B1_day3,2022.2.4,Win32,60.03121623,,,,,,down,0,6.9098,,0.268518519,-0.300000014,1,0,0,0,55,55,185,1,mijnheer,images/br_mijnheer.png,images/cb_mijnheer.png,0,,,,,,,,,,,,,,,,,,,,,,
,,,,,00063,2023-10-18_19h38.00.706,vbt_B1_day3,2022.2.4,Win32,60.03121623,,,,,,down,0,5.1586,,0.268518519,-0.300000014,1,0,0,0,56,56,181,1,toegeven,images/br_toegeven.png,images/cb_toegeven.png,1,toegeven,,,,,,,,,,,,,,,,,,,,,
,,,,,00063,2023-10-18_19h38.00.706,vbt_B1_day3,2022.2.4,Win32,60.03121623,,,,,,down,0,3.7212,,0.268518519,-0.300000014,1,0,0,0,57,57,78,1,leren,images/br_leren.png,images/cb_leren.png,0,,,,,,,,,,,,,,,,,,,,,,
,,,,,00063,2023-10-18_19h38.00.706,vbt_B1_day3,2022.2.4,Win32,60.03121623,,,,,,down,0,1.9095,,0.268518519,-0.300000014,1,0,0,0,58,58,144,1,eetlust,images/br_eetlust.png,images/cb_eetlust.png,0,,,,,,,,,,,,,,,,,,,,,,
,,,,,00063,2023-10-18_19h38.00.706,vbt_B1_day3,2022.2.4,Win32,60.03121623,,,,,,down,0,3.6678,,0.268518519,-0.300000014,1,0,0,0,59,59,173,1,apparaat,images/br_apparaat.png,images/cb_apparaat.png,0,,,,,,,,,,,,,,,,,,,,,,
,,,,,00063,2023-10-18_19h38.00.706,vbt_B1_day3,2022.2.4,Win32,60.03121623,,,,,,down,0,1.3506,,0.268518519,-0.300000014,1,0,0,0,60,60,4,1,moes,images/br_moes.png,images/cb_moes.png,0,,,,,,,,,,,,,,,,,,,,,,
,,,,,00063,2023-10-18_19h38.00.706,vbt_B1_day3,2022.2.4,Win32,60.03121623,,,,,,down,0,7.2317,,0.268518519,-0.300000014,1,0,0,0,61,61,142,1,snuiven,images/br_snuiven.png,images/cb_snuiven.png,1,snuiven,,,,,,,,,,,,,,,,,,,,,
,,,,,00063,2023-10-18_19h38.00.706,vbt_B1_day3,2022.2.4,Win32,60.03121623,,,,,,down,0,4.4216,,0.268518519,-0.300000014,1,0,0,0,62,62,183,1,getuigen,images/br_getuigen.png,images/cb_getuigen.png,1,getuigen,,,,,,,,,,,,,,,,,,,,,
,,,,,00063,2023-10-18_19h38.00.706,vbt_B1_day3,2022.2.4,Win32,60.03121623,,,,,,down,0,8.3677,,0.268518519,-0.300000014,1,0,0,0,63,63,169,1,oprotten,images/br_oprotten.png,images/cb_oprotten.png,0,,,,,,,,,,,,,,,,,,,,,,
,,,,,00063,2023-10-18_19h38.00.706,vbt_B1_day3,2022.2.4,Win32,60.03121623,,,,,,down,0,4.2844,,0.268518519,-0.300000014,1,0,0,0,64,64,167,1,eenhoorn,images/br_eenhoorn.png,images/cb_eenhoorn.png,0,,,,,,,,,,,,,,,,,,,,,,
,,,,,00063,2023-10-18_19h38.00.706,vbt_B1_day3,2022.2.4,Win32,60.03121623,,,,,,down,0,0.7509,,0.268518519,-0.300000014,1,0,0,0,65,65,57,1,steek,images/br_steek.png,images/cb_steek.png,0,,,,,,,,,,,,,,,,,,,,,,
,,,,,00063,2023-10-18_19h38.00.706,vbt_B1_day3,2022.2.4,Win32,60.03121623,,,,,,down,0,5.229,,0.268518519,-0.300000014,1,0,0,0,66,66,96,1,slagen,images/br_slagen.png,images/cb_slagen.png,0,,,,,,,,,,,,,,,,,,,,,,
,,,,,00063,2023-10-18_19h38.00.706,vbt_B1_day3,2022.2.4,Win32,60.03121623,,,,,,down,0,2.8344,,0.268518519,-0.300000014,1,0,0,0,67,67,67,1,zwart,images/br_zwart.png,images/cb_zwart.png,0,,,,,,,,,,,,,,,,,,,,,,
,,,,,00063,2023-10-18_19h38.00.706,vbt_B1_day3,2022.2.4,Win32,60.03121623,,,,,,down,0,2.8476,,0.268518519,-0.300000014,1,0,0,0,68,68,125,1,aanzien,images/br_aanzien.png,images/cb_aanzien.png,0,,,,,,,,,,,,,,,,,,,,,,
,,,,,00063,2023-10-18_19h38.00.706,vbt_B1_day3,2022.2.4,Win32,60.03121623,,,,,,down,0,4.6541,,0.268518519,-0.300000014,1,0,0,0,69,69,61,1,groen,images/br_groen.png,images/cb_groen.png,1,groen,,,,,,,,,,,,,,,,,,,,,
,,,,,00063,2023-10-18_19h38.00.706,vbt_B1_day3,2022.2.4,Win32,60.03121623,,,,,,down,0,1.4008,,0.268518519,-0.300000014,1,0,0,0,70,70,12,1,kust,images/br_kust.png,images/cb_kust.png,0,,,,,,,,,,,,,,,,,,,,,,
,,,,,00063,2023-10-18_19h38.00.706,vbt_B1_day3,2022.2.4,Win32,60.03121623,,,,,,down,0,2.9699,,0.268518519,-0.300000014,1,0,0,0,71,71,6,1,diep,images/br_diep.png,images/cb_diep.png,0,,,,,,,,,,,,,,,,,,,,,,
,,,,,00063,2023-10-18_19h38.00.706,vbt_B1_day3,2022.2.4,Win32,60.03121623,,,,,,down,0,6.1542,,0.321296268,-0.252777806,1,0,0,0,72,72,168,1,bisschop,images/br_bisschop.png,images/cb_bisschop.png,0,,,,,,,,,,,,,,,,,,,,,,
,,,,,00063,2023-10-18_19h38.00.706,vbt_B1_day3,2022.2.4,Win32,60.03121623,,,,,,down,0,3.7578,,0.321296268,-0.252777806,1,0,0,0,73,73,71,1,bever,images/br_bever.png,images/cb_bever.png,0,,,,,,,,,,,,,,,,,,,,,,
,,,,,00063,2023-10-18_19h38.00.706,vbt_B1_day3,2022.2.4,Win32,60.03121623,,,,,,down,0,2.9217,,0.321296268,-0.252777806,1,0,0,0,74,74,45,1,piste,images/br_piste.png,images/cb_piste.png,0,,,,,,,,,,,,,,,,,,,,,,
,,,,,00063,2023-10-18_19h38.00.706,vbt_B1_day3,2022.2.4,Win32,60.03121623,,,,,,down,0,3.0676,,0.321296268,-0.252777806,1,0,0,0,75,75,116,1,besmet,images/br_besmet.png,images/cb_besmet.png,0,,,,,,,,,,,,,,,,,,,,,,
,,,,,00063,2023-10-18_19h38.00.706,vbt_B1_day3,2022.2.4,Win32,60.03121623,,,,,,down,0,7.8952,,0.321296268,-0.252777806,1,0,0,0,76,76,187,1,opkijken,images/br_opkijken.png,images/cb_opkijken.png,0,,,,,,,,,,,,,,,,,,,,,,
,,,,,00063,2023-10-18_19h38.00.706,vbt_B1_day3,2022.2.4,Win32,60.03121623,,,,,,down,0,7.0679,,0.321296268,-0.252777806,1,0,0,0,77,77,101,1,staren,images/br_staren.png,images/cb_staren.png,1,staren,,,,,,,,,,,,,,,,,,,,,
,,,,,00063,2023-10-18_19h38.00.706,vbt_B1_day3,2022.2.4,Win32,60.03121623,,,,,,down,0,2.1222,,0.321296268,-0.252777806,1,0,0,0,78,78,19,1,geit,images/br_geit.png,images/cb_geit.png,0,,,,,,,,,,,,,,,,,,,,,,
,,,,,00063,2023-10-18_19h38.00.706,vbt_B1_day3,2022.2.4,Win32,60.03121623,,,,,,down,0,1.7875,,0.321296268,-0.252777806,1,0,0,0,79,79,41,1,maken,images/br_maken.png,images/cb_maken.png,0,,,,,,,,,,,,,,,,,,,,,,
,,,,,00063,2023-10-18_19h38.00.706,vbt_B1_day3,2022.2.4,Win32,60.03121623,,,,,,down,0,0.7509,,0.321296268,-0.252777806,1,0,0,0,80,80,113,1,koppen,images/br_koppen.png,images/cb_koppen.png,0,,,,,,,,,,,,,,,,,,,,,,
,,,,,00063,2023-10-18_19h38.00.706,vbt_B1_day3,2022.2.4,Win32,60.03121623,,,,,,down,0,4.902,,0.321296268,-0.252777806,1,0,0,0,81,81,162,1,uitdelen,images/br_uitdelen.png,images/cb_uitdelen.png,0,,,,,,,,,,,,,,,,,,,,,,
,,,,,00063,2023-10-18_19h38.00.706,vbt_B1_day3,2022.2.4,Win32,60.03121623,,,,,,down,0,5.7036,,0.321296268,-0.252777806,1,0,0,0,82,82,189,1,aanraden,images/br_aanraden.png,images/cb_aanraden.png,0,,,,,,,,,,,,,,,,,,,,,,
,,,,,00063,2023-10-18_19h38.00.706,vbt_B1_day3,2022.2.4,Win32,60.03121623,,,,,,down,0,7.5023,,0.321296268,-0.252777806,1,0,0,0,83,83,95,1,vreten,images/br_vreten.png,images/cb_vreten.png,0,,,,,,,,,,,,,,,,,,,,,,
,,,,,00063,2023-10-18_19h38.00.706,vbt_B1_day3,2022.2.4,Win32,60.03121623,,,,,,down,0,1.9021,,0.321296268,-0.252777806,1,0,0,0,84,84,1,1,zaal,images/br_zaal.png,images/cb_zaal.png,0,,,,,,,,,,,,,,,,,,,,,,
,,,,,00063,2023-10-18_19h38.00.706,vbt_B1_day3,2022.2.4,Win32,60.03121623,,,,,,down,0,5.2347,,0.321296268,-0.252777806,1,0,0,0,85,85,164,1,anarchie,images/br_anarchie.png,images/cb_anarchie.png,0,,,,,,,,,,,,,,,,,,,,,,
,,,,,00063,2023-10-18_19h38.00.706,vbt_B1_day3,2022.2.4,Win32,60.03121623,,,,,,down,0,4.1508,,0.321296268,-0.252777806,1,0,0,0,86,86,54,1,gebit,images/br_gebit.png,images/cb_gebit.png,0,,,,,,,,,,,,,,,,,,,,,,
,,,,,00063,2023-10-18_19h38.00.706,vbt_B1_day3,2022.2.4,Win32,60.03121623,,,,,,down,0,3.8008,,0.321296268,-0.252777806,1,0,0,0,87,87,79,1,nodig,images/br_nodig.png,images/cb_nodig.png,0,,,,,,,,,,,,,,,,,,,,,,
,,,,,00063,2023-10-18_19h38.00.706,vbt_B1_day3,2022.2.4,Win32,60.03121623,,,,,,down,0,4.1947,,0.321296268,-0.252777806,1,0,0,0,88,88,74,1,graaf,images/br_graaf.png,images/cb_graaf.png,0,,,,,,,,,,,,,,,,,,,,,,
,,,,,00063,2023-10-18_19h38.00.706,vbt_B1_day3,2022.2.4,Win32,60.03121623,,,,,,down,0,5.6343,,0.321296268,-0.252777806,1,0,0,0,89,89,127,1,doodmoe,images/br_doodmoe.png,images/cb_doodmoe.png,0,,,,,,,,,,,,,,,,,,,,,,
,,,,,00063,2023-10-18_19h38.00.706,vbt_B1_day3,2022.2.4,Win32,60.03121623,,,,,,down,0,1.1007,,0.321296268,-0.252777806,1,0,0,0,90,90,29,1,baas,images/br_baas.png,images/cb_baas.png,0,,,,,,,,,,,,,,,,,,,,,,
,,,,,00063,2023-10-18_19h38.00.706,vbt_B1_day3,2022.2.4,Win32,60.03121623,,,,,,down,0,4.3844,,0.321296268,-0.252777806,1,0,0,0,91,91,180,1,openbaar,images/br_openbaar.png,images/cb_openbaar.png,1,openbaar,,,,,,,,,,,,,,,,,,,,,
,,,,,00063,2023-10-18_19h38.00.706,vbt_B1_day3,2022.2.4,Win32,60.03121623,,,,,,down,0,2.0061,,0.321296268,-0.252777806,1,0,0,0,92,92,31,1,poes,images/br_poes.png,images/cb_poes.png,0,,,,,,,,,,,,,,,,,,,,,,
,,,,,00063,2023-10-18_19h38.00.706,vbt_B1_day3,2022.2.4,Win32,60.03121623,,,,,,down,0,4.0949,,0.321296268,-0.252777806,1,0,0,0,93,93,70,1,ijdel,images/br_ijdel.png,images/cb_ijdel.png,0,,,,,,,,,,,,,,,,,,,,,,
,,,,,00063,2023-10-18_19h38.00.706,vbt_B1_day3,2022.2.4,Win32,60.03121623,,,,,,down,0,8.3713,,0.321296268,-0.252777806,1,0,0,0,94,94,92,1,geheim,images/br_geheim.png,images/cb_geheim.png,0,,,,,,,,,,,,,,,,,,,,,,
,,,,,00063,2023-10-18_19h38.00.706,vbt_B1_day3,2022.2.4,Win32,60.03121623,,,,,,down,0,2.7417,,0.321296268,-0.252777806,1,0,0,0,95,95,148,1,smullen,images/br_smullen.png,images/cb_smullen.png,0,,,,,,,,,,,,,,,,,,,,,,
,,,,,00063,2023-10-18_19h38.00.706,vbt_B1_day3,2022.2.4,Win32,60.03121623,,,,,,down,0,4.1217,,0.321296268,-0.252777806,1,0,0,0,96,96,59,1,kring,images/br_kring.png,images/cb_kring.png,0,,,,,,,,,,,,,,,,,,,,,,
,,,,,00063,2023-10-18_19h38.00.706,vbt_B1_day3,2022.2.4,Win32,60.03121623,,,,,,down,0,1.7928,,0.321296268,-0.252777806,1,0,0,0,97,97,2,1,jaar,images/br_jaar.png,images/cb_jaar.png,0,,,,,,,,,,,,,,,,,,,,,,
,,,,,00063,2023-10-18_19h38.00.706,vbt_B1_day3,2022.2.4,Win32,60.03121623,,,,,,down,0,7.7114,,0.321296268,-0.252777806,1,0,0,0,98,98,157,1,uitlaat,images/br_uitlaat.png,images/cb_uitlaat.png,0,,,,,,,,,,,,,,,,,,,,,,
,,,,,00063,2023-10-18_19h38.00.706,vbt_B1_day3,2022.2.4,Win32,60.03121623,,,,,,down,0,4.4511,,0.321296268,-0.252777806,1,0,0,0,99,99,20,1,site,images/br_site.png,images/cb_site.png,1,site,,,,,,,,,,,,,,,,,,,,,
,,,,,00063,2023-10-18_19h38.00.706,vbt_B1_day3,2022.2.4,Win32,60.03121623,,,,,,down,0,10.1847,,0.321296268,-0.252777806,1,0,0,0,100,100,121,1,twijfel,images/br_twijfel.png,images/cb_twijfel.png,0,,,,,,,,,,,,,,,,,,,,,,
,,,,,00063,2023-10-18_19h38.00.706,vbt_B1_day3,2022.2.4,Win32,60.03121623,,,,,,down,0,1.6885,,0.321296268,-0.252777806,1,0,0,0,101,101,124,1,bloeien,images/br_bloeien.png,images/cb_bloeien.png,0,,,,,,,,,,,,,,,,,,,,,,
,,,,,00063,2023-10-18_19h38.00.706,vbt_B1_day3,2022.2.4,Win32,60.03121623,,,,,,down,0,6.4683,,0.321296268,-0.252777806,1,0,0,0,102,102,158,1,innemen,images/br_innemen.png,images/cb_innemen.png,0,,,,,,,,,,,,,,,,,,,,,,
,,,,,00063,2023-10-18_19h38.00.706,vbt_B1_day3,2022.2.4,Win32,60.03121623,,,,,,down,0,4.7528,,0.321296268,-0.252777806,1,0,0,0,103,103,27,1,dans,images/br_dans.png,images/cb_dans.png,0,,,,,,,,,,,,,,,,,,,,,,
,,,,,00063,2023-10-18_19h38.00.706,vbt_B1_day3,2022.2.4,Win32,60.03121623,,,,,,down,0,2.1357,,0.321296268,-0.252777806,1,0,0,0,104,104,36,1,vuur,images/br_vuur.png,images/cb_vuur.png,0,,,,,,,,,,,,,,,,,,,,,,
,,,,,00063,2023-10-18_19h38.00.706,vbt_B1_day3,2022.2.4,Win32,60.03121623,,,,,,down,0,0.7674,,0.321296268,-0.252777806,1,0,0,0,105,105,56,1,traag,images/br_traag.png,images/cb_traag.png,0,,,,,,,,,,,,,,,,,,,,,,
,,,,,00063,2023-10-18_19h38.00.706,vbt_B1_day3,2022.2.4,Win32,60.03121623,,,,,,down,0,4.5381,,0.321296268,-0.252777806,1,0,0,0,106,106,131,1,opzicht,images/br_opzicht.png,images/cb_opzicht.png,0,,,,,,,,,,,,,,,,,,,,,,
,,,,,00063,2023-10-18_19h38.00.706,vbt_B1_day3,2022.2.4,Win32,60.03121623,,,,,,down,0,5.1398,,0.321296268,-0.252777806,1,0,0,0,107,107,128,1,prikken,images/br_prikken.png,images/cb_prikken.png,0,,,,,,,,,,,,,,,,,,,,,,
,,,,,00063,2023-10-18_19h38.00.706,vbt_B1_day3,2022.2.4,Win32,60.03121623,,,,,,down,0,3.9182,,0.321296268,-0.252777806,1,0,0,0,108,108,159,1,sufferd,images/br_sufferd.png,images/cb_sufferd.png,0,,,,,,,,,,,,,,,,,,,,,,
,,,,,00063,2023-10-18_19h38.00.706,vbt_B1_day3,2022.2.4,Win32,60.03121623,,,,,,down,0,2.0354,,0.321296268,-0.252777806,1,0,0,0,109,109,23,1,zout,images/br_zout.png,images/cb_zout.png,1,zout,,,,,,,,,,,,,,,,,,,,,
,,,,,00063,2023-10-18_19h38.00.706,vbt_B1_day3,2022.2.4,Win32,60.03121623,,,,,,down,0,1.0871,,0.321296268,-0.252777806,1,0,0,0,110,110,3,1,mand,images/br_mand.png,images/cb_mand.png,0,,,,,,,,,,,,,,,,,,,,,,
,,,,,00063,2023-10-18_19h38.00.706,vbt_B1_day3,2022.2.4,Win32,60.03121623,,,,,,down,0,3.9674,,0.321296268,-0.252777806,1,0,0,0,111,111,143,1,hechten,images/br_hechten.png,images/cb_hechten.png,1,hechten,,,,,,,,,,,,,,,,,,,,,
,,,,,00063,2023-10-18_19h38.00.706,vbt_B1_day3,2022.2.4,Win32,60.03121623,,,,,,down,0,4.9124,,0.321296268,-0.252777806,1,0,0,0,112,112,141,1,knielen,images/br_knielen.png,images/cb_knielen.png,1,knielen,,,,,,,,,,,,,,,,,,,,,
,,,,,00063,2023-10-18_19h38.00.706,vbt_B1_day3,2022.2.4,Win32,60.03121623,,,,,,down,0,2.6899,,0.321296268,-0.252777806,1,0,0,0,113,113,109,1,totaal,images/br_totaal.png,images/cb_totaal.png,0,,,,,,,,,,,,,,,,,,,,,,
,,,,,00063,2023-10-18_19h38.00.706,vbt_B1_day3,2022.2.4,Win32,60.03121623,,,,,,down,0,1.9375,,0.321296268,-0.252777806,1,0,0,0,114,114,177,1,maaltijd,images/br_maaltijd.png,images/cb_maaltijd.png,0,,,,,,,,,,,,,,,,,,,,,,
,,,,,00063,2023-10-18_19h38.00.706,vbt_B1_day3,2022.2.4,Win32,60.03121623,,,,,,down,0,4.053,,0.321296268,-0.252777806,1,0,0,0,115,115,175,1,heengaan,images/br_heengaan.png,images/cb_heengaan.png,0,,,,,,,,,,,,,,,,,,,,,,
,,,,,00063,2023-10-18_19h38.00.706,vbt_B1_day3,2022.2.4,Win32,60.03121623,,,,,,down,0,2.7675,,0.321296268,-0.252777806,1,0,0,0,116,116,102,1,legaal,images/br_legaal.png,images/cb_legaal.png,1,legaal,,,,,,,,,,,,,,,,,,,,,
,,,,,00063,2023-10-18_19h38.00.706,vbt_B1_day3,2022.2.4,Win32,60.03121623,,,,,,down,0,0.8859,,0.321296268,-0.252777806,1,0,0,0,117,117,115,1,kleren,images/br_kleren.png,images/cb_kleren.png,0,,,,,,,,,,,,,,,,,,,,,,
,,,,,00063,2023-10-18_19h38.00.706,vbt_B1_day3,2022.2.4,Win32,60.03121623,,,,,,down,0,4.0573,,0.321296268,-0.252777806,1,0,0,0,118,118,129,1,verhaal,images/br_verhaal.png,images/cb_verhaal.png,0,,,,,,,,,,,,,,,,,,,,,,
,,,,,00063,2023-10-18_19h38.00.706,vbt_B1_day3,2022.2.4,Win32,60.03121623,,,,,,down,0,2.7675,,0.321296268,-0.252777806,1,0,0,0,119,119,73,1,volop,images/br_volop.png,images/cb_volop.png,0,,,,,,,,,,,,,,,,,,,,,,
,,,,,00063,2023-10-18_19h38.00.706,vbt_B1_day3,2022.2.4,Win32,60.03121623,,,,,,down,0,7.0177,,0.321296268,-0.252777806,1,0,0,0,120,120,69,1,waken,images/br_waken.png,images/cb_waken.png,0,,,,,,,,,,,,,,,,,,,,,,
,,,,,00063,2023-10-18_19h38.00.706,vbt_B1_day3,2022.2.4,Win32,60.03121623,,,,,,down,0,2.6177,,0.321296268,-0.252777806,1,0,0,0,121,121,155,1,gerucht,images/br_gerucht.png,images/cb_gerucht.png,0,,,,,,,,,,,,,,,,,,,,,,
,,,,,00063,2023-10-18_19h38.00.706,vbt_B1_day3,2022.2.4,Win32,60.03121623,,,,,,down,0,3.32,,0.321296268,-0.252777806,1,0,0,0,122,122,24,1,jurk,images/br_jurk.png,images/cb_jurk.png,0,,,,,,,,,,,,,,,,,,,,,,
,,,,,00063,2023-10-18_19h38.00.706,vbt_B1_day3,2022.2.4,Win32,60.03121623,,,,,,down,0,7.3385,,0.321296268,-0.252777806,1,0,0,0,123,123,51,1,samen,images/br_samen.png,images/cb_samen.png,0,,,,,,,,,,,,,,,,,,,,,,
,,,,,00063,2023-10-18_19h38.00.706,vbt_B1_day3,2022.2.4,Win32,60.03121623,,,,,,down,0,5.5008,,0.321296268,-0.252777806,1,0,0,0,124,124,191,1,opheffen,images/br_opheffen.png,images/cb_opheffen.png,0,,,,,,,,,,,,,,,,,,,,,,
,,,,,00063,2023-10-18_19h38.00.706,vbt_B1_day3,2022.2.4,Win32,60.03121623,,,,,,down,0,5.5512,,0.321296268,-0.252777806,1,0,0,0,125,125,179,1,woestijn,images/br_woestijn.png,images/cb_woestijn.png,0,,,,,,,,,,,,,,,,,,,,,,
,,,,,00063,2023-10-18_19h38.00.706,vbt_B1_day3,2022.2.4,Win32,60.03121623,,,,,,down,0,2.811,,0.321296268,-0.252777806,1,0,0,0,126,126,58,1,tekst,images/br_tekst.png,images/cb_tekst.png,0,,,,,,,,,,,,,,,,,,,,,,
,,,,,00063,2023-10-18_19h38.00.706,vbt_B1_day3,2022.2.4,Win32,60.03121623,,,,,,down,0,3.6891,,0.321296268,-0.252777806,1,0,0,0,127,127,108,1,excuus,images/br_excuus.png,images/cb_excuus.png,0,,,,,,,,,,,,,,,,,,,,,,
,,,,,00063,2023-10-18_19h38.00.706,vbt_B1_day3,2022.2.4,Win32,60.03121623,,,,,,down,0,3.7207,,0.321296268,-0.252777806,1,0,0,0,128,128,154,1,aflopen,images/br_aflopen.png,images/cb_aflopen.png,0,,,,,,,,,,,,,,,,,,,,,,
,,,,,00063,2023-10-18_19h38.00.706,vbt_B1_day3,2022.2.4,Win32,60.03121623,,,,,,down,0,11.0893,,0.321296268,-0.252777806,1,0,0,0,129,129,195,1,middelen,images/br_middelen.png,images/cb_middelen.png,0,,,,,,,,,,,,,,,,,,,,,,
,,,,,00063,2023-10-18_19h38.00.706,vbt_B1_day3,2022.2.4,Win32,60.03121623,,,,,,down,0,3.2523,,0.321296268,-0.252777806,1,0,0,0,130,130,88,1,boeien,images/br_boeien.png,images/cb_boeien.png,0,,,,,,,,,,,,,,,,,,,,,,
,,,,,00063,2023-10-18_19h38.00.706,vbt_B1_day3,2022.2.4,Win32,60.03121623,,,,,,down,0,5.758,,0.321296268,-0.252777806,1,0,0,0,131,131,76,1,afval,images/br_afval.png,images/cb_afval.png,0,,,,,,,,,,,,,,,,,,,,,,
,,,,,00063,2023-10-18_19h38.00.706,vbt_B1_day3,2022.2.4,Win32,60.03121623,,,,,,down,0,0.1509,,0.321296268,-0.252777806,1,0,0,0,132,132,42,1,bleek,images/br_bleek.png,images/cb_bleek.png,0,,,,,,,,,,,,,,,,,,,,,,
,,,,,00063,2023-10-18_19h38.00.706,vbt_B1_day3,2022.2.4,Win32,60.03121623,,,,,,down,0,0.1059,,0.321296268,-0.252777806,1,0,0,0,133,133,35,1,lust,images/br_lust.png,images/cb_lust.png,0,,,,,,,,,,,,,,,,,,,,,,
,,,,,00063,2023-10-18_19h38.00.706,vbt_B1_day3,2022.2.4,Win32,60.03121623,,,,,,down,0,3.608,,0.321296268,-0.252777806,1,0,0,0,134,134,98,1,kreeft,images/br_kreeft.png,images/cb_kreeft.png,0,,,,,,,,,,,,,,,,,,,,,,
,,,,,00063,2023-10-18_19h38.00.706,vbt_B1_day3,2022.2.4,Win32,60.03121623,,,,,,down,0,2.8608,,0.321296268,-0.252777806,1,0,0,0,135,135,103,1,joggen,images/br_joggen.png,images/cb_joggen.png,1,joggen,,,,,,,,,,,,,,,,,,,,,
,,,,,00063,2023-10-18_19h38.00.706,vbt_B1_day3,2022.2.4,Win32,60.03121623,,,,,,down,0,1.1706,,0.321296268,-0.252777806,1,0,0,0,136,136,120,1,klimmen,images/br_klimmen.png,images/cb_klimmen.png,0,,,,,,,,,,,,,,,,,,,,,,
,,,,,00063,2023-10-18_19h38.00.706,vbt_B1_day3,2022.2.4,Win32,60.03121623,,,,,,down,0,8.3249,,0.321296268,-0.252777806,1,0,0,0,137,137,122,1,waarvan,images/br_waarvan.png,images/cb_waarvan.png,0,,,,,,,,,,,,,,,,,,,,,,
,,,,,00063,2023-10-18_19h38.00.706,vbt_B1_day3,2022.2.4,Win32,60.03121623,,,,,,down,0,5.0861,,0.321296268,-0.252777806,1,0,0,0,138,138,60,1,jasje,images/br_jasje.png,images/cb_jasje.png,1,jasje,,,,,,,,,,,,,,,,,,,,,
,,,,,00063,2023-10-18_19h38.00.706,vbt_B1_day3,2022.2.4,Win32,60.03121623,,,,,,down,0,2.236,,0.317592621,-0.242592635,1,0,0,0,139,139,126,1,kasteel,images/br_kasteel.png,images/cb_kasteel.png,0,,,,,,,,,,,,,,,,,,,,,,
,,,,,00063,2023-10-18_19h38.00.706,vbt_B1_day3,2022.2.4,Win32,60.03121623,,,,,,down,0,4.0873,,0.310185185,-0.223148134,1,0,0,0,140,140,100,1,geduld,images/br_geduld.png,images/cb_geduld.png,1,geduld,,,,,,,,,,,,,,,,,,,,,
,,,,,00063,2023-10-18_19h38.00.706,vbt_B1_day3,2022.2.4,Win32,60.03121623,,,,,,down,0,1.4291,,0.310185185,-0.223148134,1,0,0,0,141,141,106,1,zingen,images/br_zingen.png,images/cb_zingen.png,0,,,,,,,,,,,,,,,,,,,,,,
,,,,,00063,2023-10-18_19h38.00.706,vbt_B1_day3,2022.2.4,Win32,60.03121623,,,,,,down,0,6.4509,,0.310185185,-0.223148134,1,0,0,0,142,142,149,1,redding,images/br_redding.png,images/cb_redding.png,0,,,,,,,,,,,,,,,,,,,,,,
,,,,,00063,2023-10-18_19h38.00.706,vbt_B1_day3,2022.2.4,Win32,60.03121623,,,,,,down,0,2.5508,,0.310185185,-0.223148134,1,0,0,0,143,143,139,1,stiekem,images/br_stiekem.png,images/cb_stiekem.png,0,,,,,,,,,,,,,,,,,,,,,,
,,,,,00063,2023-10-18_19h38.00.706,vbt_B1_day3,2022.2.4,Win32,60.03121623,,,,,,down,0,4.351,,0.310185185,-0.223148134,1,0,0,0,144,144,199,1,beseffen,images/br_beseffen.png,images/cb_beseffen.png,0,,,,,,,,,,,,,,,,,,,,,,
,,,,,00063,2023-10-18_19h38.00.706,vbt_B1_day3,2022.2.4,Win32,60.03121623,,,,,,down,0,3.7676,,0.310185185,-0.223148134,1,0,0,0,145,145,7,1,geld,images/br_geld.png,images/cb_geld.png,0,,,,,,,,,,,,,,,,,,,,,,
,,,,,00063,2023-10-18_19h38.00.706,vbt_B1_day3,2022.2.4,Win32,60.03121623,,,,,,down,0,1.5279,,0.310185185,-0.223148134,1,0,0,0,146,146,66,1,lever,images/br_lever.png,images/cb_lever.png,0,,,,,,,,,,,,,,,,,,,,,,
,,,,,00063,2023-10-18_19h38.00.706,vbt_B1_day3,2022.2.4,Win32,60.03121623,,,,,,down,0,0.3728,,0.310185185,-0.223148134,1,0,0,0,147,147,48,1,steel,images/br_steel.png,images/cb_steel.png,0,,,,,,,,,,,,,,,,,,,,,,
,,,,,00063,2023-10-18_19h38.00.706,vbt_B1_day3,2022.2.4,Win32,60.03121623,,,,,,down,0,7.0877,,0.310185185,-0.223148134,1,0,0,0,148,148,147,1,komisch,images/br_komisch.png,images/cb_komisch.png,0,,,,,,,,,,,,,,,,,,,,,,
,,,,,00063,2023-10-18_19h38.00.706,vbt_B1_day3,2022.2.4,Win32,60.03121623,,,,,,down,0,7.8169,,0.310185185,-0.223148134,1,0,0,0,149,149,178,1,huisdier,images/br_huisdier.png,images/cb_huisdier.png,0,,,,,,,,,,,,,,,,,,,,,,
,,,,,00063,2023-10-18_19h38.00.706,vbt_B1_day3,2022.2.4,Win32,60.03121623,,,,,,down,0,2.5086,,0.310185185,-0.223148134,1,0,0,0,150,150,22,1,stof,images/br_stof.png,images/cb_stof.png,1,stof,,,,,,,,,,,,,,,,,,,,,
,,,,,00063,2023-10-18_19h38.00.706,vbt_B1_day3,2022.2.4,Win32,60.03121623,,,,,,down,0,4.3583,,0.310185185,-0.223148134,1,0,0,0,151,151,192,1,schaamte,images/br_schaamte.png,images/cb_schaamte.png,0,,,,,,,,,,,,,,,,,,,,,,
,,,,,00063,2023-10-18_19h38.00.706,vbt_B1_day3,2022.2.4,Win32,60.03121623,,,,,,down,0,0.1679,,0.310185185,-0.223148134,1,0,0,0,152,152,13,1,kaal,images/br_kaal.png,images/cb_kaal.png,0,,,,,,,,,,,,,,,,,,,,,,
,,,,,00063,2023-10-18_19h38.00.706,vbt_B1_day3,2022.2.4,Win32,60.03121623,,,,,,down,0,3.4043,,0.310185185,-0.223148134,1,0,0,0,153,153,44,1,flits,images/br_flits.png,images/cb_flits.png,0,,,,,,,,,,,,,,,,,,,,,,
,,,,,00063,2023-10-18_19h38.00.706,vbt_B1_day3,2022.2.4,Win32,60.03121623,,,,,,down,0,3.675,,0.310185185,-0.223148134,1,0,0,0,154,154,82,1,muziek,images/br_muziek.png,images/cb_muziek.png,0,,,,,,,,,,,,,,,,,,,,,,
,,,,,00063,2023-10-18_19h38.00.706,vbt_B1_day3,2022.2.4,Win32,60.03121623,,,,,,down,0,5.1077,,0.310185185,-0.223148134,1,0,0,0,155,155,105,1,wijlen,images/br_wijlen.png,images/cb_wijlen.png,0,,,,,,,,,,,,,,,,,,,,,,
,,,,,00063,2023-10-18_19h38.00.706,vbt_B1_day3,2022.2.4,Win32,60.03121623,,,,,,down,0,3.3355,,0.310185185,-0.223148134,1,0,0,0,156,156,176,1,techniek,images/br_techniek.png,images/cb_techniek.png,0,,,,,,,,,,,,,,,,,,,,,,
,,,,,00063,2023-10-18_19h38.00.706,vbt_B1_day3,2022.2.4,Win32,60.03121623,,,,,,down,0,8.0414,,0.310185185,-0.223148134,1,0,0,0,157,157,91,1,gezond,images/br_gezond.png,images/cb_gezond.png,0,,,,,,,,,,,,,,,,,,,,,,
,,,,,00063,2023-10-18_19h38.00.706,vbt_B1_day3,2022.2.4,Win32,60.03121623,,,,,,down,0,7.9254,,0.310185185,-0.223148134,1,0,0,0,158,158,43,1,klauw,images/br_klauw.png,images/cb_klauw.png,0,,,,,,,,,,,,,,,,,,,,,,
,,,,,00063,2023-10-18_19h38.00.706,vbt_B1_day3,2022.2.4,Win32,60.03121623,,,,,,down,0,7.9251,,0.310185185,-0.223148134,1,0,0,0,159,159,152,1,afnemen,images/br_afnemen.png,images/cb_afnemen.png,0,,,,,,,,,,,,,,,,,,,,,,
,,,,,00063,2023-10-18_19h38.00.706,vbt_B1_day3,2022.2.4,Win32,60.03121623,,,,,,down,0,3.551,,0.310185185,-0.223148134,0,0,1,0,160,160,30,1,uien,images/br_uien.png,images/cb_uien.png,0,,,,,,,,,,,,,,,,,,,,,,
,,,,,00063,2023-10-18_19h38.00.706,vbt_B1_day3,2022.2.4,Win32,60.03121623,,,,,,down,0,4.9038,,0.498148176,-0.068518533,1,0,0,0,161,161,130,1,keihard,images/br_keihard.png,images/cb_keihard.png,0,,,,,,,,,,,,,,,,,,,,,,
,,,,,00063,2023-10-18_19h38.00.706,vbt_B1_day3,2022.2.4,Win32,60.03121623,,,,,,down,0,2.7342,,0.498148176,-0.068518533,1,0,0,0,162,162,32,1,palm,images/br_palm.png,images/cb_palm.png,0,,,,,,,,,,,,,,,,,,,,,,
,,,,,00063,2023-10-18_19h38.00.706,vbt_B1_day3,2022.2.4,Win32,60.03121623,,,,,,down,0,2.4952,,0.498148176,-0.068518533,1,0,0,0,163,163,140,1,blijven,images/br_blijven.png,images/cb_blijven.png,1,blijven,,,,,,,,,,,,,,,,,,,,,
,,,,,00063,2023-10-18_19h38.00.706,vbt_B1_day3,2022.2.4,Win32,60.03121623,,,,,,down,0,1.3749,,0.498148176,-0.068518533,1,0,0,0,164,164,90,1,geluid,images/br_geluid.png,images/cb_geluid.png,0,,,,,,,,,,,,,,,,,,,,,,
,,,,,00063,2023-10-18_19h38.00.706,vbt_B1_day3,2022.2.4,Win32,60.03121623,,,,,,down,0,2.4731,,0.498148176,-0.068518533,1,0,0,0,165,165,5,1,blad,images/br_blad.png,images/cb_blad.png,0,,,,,,,,,,,,,,,,,,,,,,
,,,,,00063,2023-10-18_19h38.00.706,vbt_B1_day3,2022.2.4,Win32,60.03121623,,,,,,down,0,8.3227,,0.498148176,-0.068518533,1,0,0,0,166,166,111,1,ticket,images/br_ticket.png,images/cb_ticket.png,0,,,,,,,,,,,,,,,,,,,,,,
,,,,,00063,2023-10-18_19h38.00.706,vbt_B1_day3,2022.2.4,Win32,60.03121623,,,,,,down,0,1.5424,,0.498148176,-0.068518533,1,0,0,0,167,167,21,1,mist,images/br_mist.png,images/cb_mist.png,1,mist,,,,,,,,,,,,,,,,,,,,,
,,,,,00063,2023-10-18_19h38.00.706,vbt_B1_day3,2022.2.4,Win32,60.03121623,,,,,,down,0,0.3917,,0.498148176,-0.068518533,1,0,0,0,168,168,84,1,lokken,images/br_lokken.png,images/cb_lokken.png,0,,,,,,,,,,,,,,,,,,,,,,
,,,,,00063,2023-10-18_19h38.00.706,vbt_B1_day3,2022.2.4,Win32,60.03121623,,,,,,down,0,4.378,,0.498148176,-0.068518533,1,0,0,0,169,169,133,1,seizoen,images/br_seizoen.png,images/cb_seizoen.png,0,,,,,,,,,,,,,,,,,,,,,,
,,,,,00063,2023-10-18_19h38.00.706,vbt_B1_day3,2022.2.4,Win32,60.03121623,,,,,,down,0,2.3889,,0.498148176,-0.068518533,1,0,0,0,170,170,99,1,koffie,images/br_koffie.png,images/cb_koffie.png,0,,,,,,,,,,,,,,,,,,,,,,
,,,,,00063,2023-10-18_19h38.00.706,vbt_B1_day3,2022.2.4,Win32,60.03121623,,,,,,down,0,5.6396,,0.498148176,-0.068518533,1,0,0,0,171,171,80,1,kanjer,images/br_kanjer.png,images/cb_kanjer.png,0,,,,,,,,,,,,,,,,,,,,,,
,,,,,00063,2023-10-18_19h38.00.706,vbt_B1_day3,2022.2.4,Win32,60.03121623,,,,,,down,0,1.173,,0.498148176,-0.068518533,1,0,0,0,172,172,117,1,kennis,images/br_kennis.png,images/cb_kennis.png,0,,,,,,,,,,,,,,,,,,,,,,
,,,,,00063,2023-10-18_19h38.00.706,vbt_B1_day3,2022.2.4,Win32,60.03121623,,,,,,down,0,1.7405,,0.498148176,-0.068518533,1,0,0,0,173,173,97,1,loyaal,images/br_loyaal.png,images/cb_loyaal.png,0,,,,,,,,,,,,,,,,,,,,,,
,,,,,00063,2023-10-18_19h38.00.706,vbt_B1_day3,2022.2.4,Win32,60.03121623,,,,,,down,0,1.3884,,0.498148176,-0.068518533,1,0,0,0,174,174,16,1,ziek,images/br_ziek.png,images/cb_ziek.png,0,,,,,,,,,,,,,,,,,,,,,,
,,,,,00063,2023-10-18_19h38.00.706,vbt_B1_day3,2022.2.4,Win32,60.03121623,,,,,,down,0,1.3707,,0.498148176,-0.068518533,1,0,0,0,175,175,37,1,mijn,images/br_mijn.png,images/cb_mijn.png,0,,,,,,,,,,,,,,,,,,,,,,
,,,,,00063,2023-10-18_19h38.00.706,vbt_B1_day3,2022.2.4,Win32,60.03121623,,,,,,down,0,4.5007,,0.498148176,-0.068518533,1,0,0,0,176,176,153,1,vervoer,images/br_vervoer.png,images/cb_vervoer.png,0,,,,,,,,,,,,,,,,,,,,,,
,,,,,00063,2023-10-18_19h38.00.706,vbt_B1_day3,2022.2.4,Win32,60.03121623,,,,,,down,0,2.6208,,0.498148176,-0.068518533,1,0,0,0,177,177,104,1,zweven,images/br_zweven.png,images/cb_zweven.png,0,,,,,,,,,,,,,,,,,,,,,,
,,,,,00063,2023-10-18_19h38.00.706,vbt_B1_day3,2022.2.4,Win32,60.03121623,,,,,,down,0,0.9852,,0.527777778,0.110185164,1,0,0,0,178,178,38,1,baai,images/br_baai.png,images/cb_baai.png,0,,,,,,,,,,,,,,,,,,,,,,
,,,,,00063,2023-10-18_19h38.00.706,vbt_B1_day3,2022.2.4,Win32,60.03121623,,,,,,down,0,2.7537,,0.527777778,0.110185164,1,0,0,0,179,179,114,1,vullen,images/br_vullen.png,images/cb_vullen.png,0,,,,,,,,,,,,,,,,,,,,,,
,,,,,00063,2023-10-18_19h38.00.706,vbt_B1_day3,2022.2.4,Win32,60.03121623,,,,,,down,0,4.7508,,0.5,0.098148134,1,0,0,0,180,180,170,1,schatten,images/br_schatten.png,images/cb_schatten.png,0,,,,,,,,,,,,,,,,,,,,,,
,,,,,00063,2023-10-18_19h38.00.706,vbt_B1_day3,2022.2.4,Win32,60.03121623,,,,,,down,0,2.6537,,0.5,0.098148134,1,0,0,0,181,181,146,1,opkomen,images/br_opkomen.png,images/cb_opkomen.png,0,,,,,,,,,,,,,,,,,,,,,,
,,,,,00063,2023-10-18_19h38.00.706,vbt_B1_day3,2022.2.4,Win32,60.03121623,,,,,,down,0,1.2841,,0.5,0.098148134,1,0,0,0,182,182,33,1,vlek,images/br_vlek.png,images/cb_vlek.png,0,,,,,,,,,,,,,,,,,,,,,,
,,,,,00063,2023-10-18_19h38.00.706,vbt_B1_day3,2022.2.4,Win32,60.03121623,,,,,,down,0,2.2079,,0.5,0.098148134,1,0,0,0,183,183,110,1,zuster,images/br_zuster.png,images/cb_zuster.png,0,,,,,,,,,,,,,,,,,,,,,,
,,,,,00063,2023-10-18_19h38.00.706,vbt_B1_day3,2022.2.4,Win32,60.03121623,,,,,,down,0,4.7218,,0.5,0.098148134,1,0,0,0,184,184,160,1,daarheen,images/br_daarheen.png,images/cb_daarheen.png,0,,,,,,,,,,,,,,,,,,,,,,
,,,,,00063,2023-10-18_19h38.00.706,vbt_B1_day3,2022.2.4,Win32,60.03121623,,,,,,down,0,4.8228,,0.5,0.098148134,1,0,0,0,185,185,89,1,slapen,images/br_slapen.png,images/cb_slapen.png,0,,,,,,,,,,,,,,,,,,,,,,
,,,,,00063,2023-10-18_19h38.00.706,vbt_B1_day3,2022.2.4,Win32,60.03121623,,,,,,down,0,3.951,,0.5,0.098148134,1,0,0,0,186,186,87,1,toeval,images/br_toeval.png,images/cb_toeval.png,0,,,,,,,,,,,,,,,,,,,,,,
,,,,,00063,2023-10-18_19h38.00.706,vbt_B1_day3,2022.2.4,Win32,60.03121623,,,,,,down,0,8.9351,,0.5,0.098148134,1,0,0,0,187,187,135,1,gedicht,images/br_gedicht.png,images/cb_gedicht.png,0,,,,,,,,,,,,,,,,,,,,,,
,,,,,00063,2023-10-18_19h38.00.706,vbt_B1_day3,2022.2.4,Win32,60.03121623,,,,,,down,0,4.7152,,0.5,0.098148134,1,0,0,0,188,188,163,1,schuilen,images/br_schuilen.png,images/cb_schuilen.png,0,,,,,,,,,,,,,,,,,,,,,,
,,,,,00063,2023-10-18_19h38.00.706,vbt_B1_day3,2022.2.4,Win32,60.03121623,,,,,,down,0,5.6238,,0.5,0.098148134,1,0,0,0,189,189,137,1,trekker,images/br_trekker.png,images/cb_trekker.png,0,,,,,,,,,,,,,,,,,,,,,,
,,,,,00063,2023-10-18_19h38.00.706,vbt_B1_day3,2022.2.4,Win32,60.03121623,,,,,,down,0,2.9144,,0.5,0.098148134,1,0,0,0,190,190,182,1,bijkomen,images/br_bijkomen.png,images/cb_bijkomen.png,1,bijkomen,,,,,,,,,,,,,,,,,,,,,
,,,,,00063,2023-10-18_19h38.00.706,vbt_B1_day3,2022.2.4,Win32,60.03121623,,,,,,down,0,10.4211,,0.5,0.098148134,1,0,0,0,191,191,94,1,oceaan,images/br_oceaan.png,images/cb_oceaan.png,0,,,,,,,,,,,,,,,,,,,,,,
,,,,,00063,2023-10-18_19h38.00.706,vbt_B1_day3,2022.2.4,Win32,60.03121623,,,,,,down,0,8.6004,,0.5,0.098148134,1,0,0,0,192,192,196,1,nakijken,images/br_nakijken.png,images/cb_nakijken.png,0,,,,,,,,,,,,,,,,,,,,,,
,,,,,00063,2023-10-18_19h38.00.706,vbt_B1_day3,2022.2.4,Win32,60.03121623,,,,,,down,0,0.3681,,0.5,0.098148134,1,0,0,0,193,193,26,1,leuk,images/br_leuk.png,images/cb_leuk.png,0,,,,,,,,,,,,,,,,,,,,,,
,,,,,00063,2023-10-18_19h38.00.706,vbt_B1_day3,2022.2.4,Win32,60.03121623,,,,,,down,0,0.0845,,0.5,0.098148134,1,0,0,0,194,194,112,1,lukken,images/br_lukken.png,images/cb_lukken.png,0,,,,,,,,,,,,,,,,,,,,,,
,,,,,00063,2023-10-18_19h38.00.706,vbt_B1_day3,2022.2.4,Win32,60.03121623,,,,,,down,0,4.073,,0.5,0.098148134,1,0,0,0,195,195,83,1,mening,images/br_mening.png,images/cb_mening.png,0,,,,,,,,,,,,,,,,,,,,,,
,,,,,00063,2023-10-18_19h38.00.706,vbt_B1_day3,2022.2.4,Win32,60.03121623,,,,,,down,0,1.598,,0.5,0.098148134,1,0,0,0,196,196,14,1,rijp,images/br_rijp.png,images/cb_rijp.png,0,,,,,,,,,,,,,,,,,,,,,,
,,,,,00063,2023-10-18_19h38.00.706,vbt_B1_day3,2022.2.4,Win32,60.03121623,,,,,,down,0,2.3737,,0.5,0.098148134,1,0,0,0,197,197,28,1,stal,images/br_stal.png,images/cb_stal.png,0,,,,,,,,,,,,,,,,,,,,,,
,,,,,00063,2023-10-18_19h38.00.706,vbt_B1_day3,2022.2.4,Win32,60.03121623,,,,,,down,0,7.3595,,0.5,0.098148134,1,0,0,0,198,198,123,1,hiervan,images/br_hiervan.png,images/cb_hiervan.png,0,,,,,,,,,,,,,,,,,,,,,,
,,,,,00063,2023-10-18_19h38.00.706,vbt_B1_day3,2022.2.4,Win32,60.03121623,,,,,,down,0,6.037,,0.5,0.098148134,0,0,1,0,199,199,145,1,invloed,images/br_invloed.png,images/cb_invloed.png,0,,,,,,,,,,,,,,,,,,,,,,
,,,,,00063,2023-10-18_19h38.00.706,vbt_B1_day3,2022.2.4,Win32,60.03121623,,,,,,,,,,,,,,,,,,,,,,,,,0.357407464,0.174074067,1,0,0,,,,,,,,,,,,,,,,
,,,,,00063,2023-10-18_19h38.00.706,vbt_B1_day3,2022.2.4,Win32,60.03121623,,,,,,,,,,,,,,,,,,,,,,,,,,,,,,0.6148149,-0.138888889,1,0,0,,,,,,,,,,,
,,,,,00063,2023-10-18_19h38.00.706,vbt_B1_day3,2022.2.4,Win32,60.03121623,,,,,,,,,,,,,,,,,,,,mugeek,images/br_mugeek.png,images/cb_mugeek.png,,ugeek,,,,,,,,,,,-0.040740755,-0.195370356,1,0,0,ugeek,0,0,0,29,1
,,,,,00063,2023-10-18_19h38.00.706,vbt_B1_day3,2022.2.4,Win32,60.03121623,,,,,,,,,,,,,,,,,,,,geluid,images/br_geluid.png,images/cb_geluid.png,,geluid,,,,,,,,,,,0.887963048,0.134259259,1,0,0,geluid,0,1,1,10,1
,,,,,00063,2023-10-18_19h38.00.706,vbt_B1_day3,2022.2.4,Win32,60.03121623,,,,,,,,,,,,,,,,,,,,verhaal,images/br_verhaal.png,images/cb_verhaal.png,,verhaal,,,,,,,,,,,0.887963048,0.134259259,1,0,0,verhaal,0,2,2,13,1
,,,,,00063,2023-10-18_19h38.00.706,vbt_B1_day3,2022.2.4,Win32,60.03121623,,,,,,,,,,,,,,,,,,,,stikken,images/br_stikken.png,images/cb_stikken.png,,stikken,,,,,,,,,,,0.887963048,0.134259259,1,0,0,stikken,0,3,3,54,1
,,,,,00063,2023-10-18_19h38.00.706,vbt_B1_day3,2022.2.4,Win32,60.03121623,,,,,,,,,,,,,,,,,,,,uniek,images/br_uniek.png,images/cb_uniek.png,,uniek,,,,,,,,,,,0.37037037,0.000925912,1,0,0,uniek,0,4,4,46,1
,,,,,00063,2023-10-18_19h38.00.706,vbt_B1_day3,2022.2.4,Win32,60.03121623,,,,,,,,,,,,,,,,,,,,boeien,images/br_boeien.png,images/cb_boeien.png,,boeien,,,,,,,,,,,0.37037037,0.000925912,1,0,0,boeien,0,5,5,8,1
,,,,,00063,2023-10-18_19h38.00.706,vbt_B1_day3,2022.2.4,Win32,60.03121623,,,,,,,,,,,,,,,,,,,,invallen,images/br_invallen.png,images/cb_invallen.png,,invallen,,,,,,,,,,,0.37037037,0.000925912,1,0,0,invallen,0,6,6,57,1
,,,,,00063,2023-10-18_19h38.00.706,vbt_B1_day3,2022.2.4,Win32,60.03121623,,,,,,,,,,,,,,,,,,,,opzicht,images/br_opzicht.png,images/cb_opzicht.png,,opzicht,,,,,,,,,,,0.37037037,0.000925912,1,0,0,opzicht,0,7,7,15,1
,,,,,00063,2023-10-18_19h38.00.706,vbt_B1_day3,2022.2.4,Win32,60.03121623,,,,,,,,,,,,,,,,,,,,glijden,images/br_glijden.png,images/cb_glijden.png,,glijden,,,,,,,,,,,0.37037037,0.000925912,1,0,0,glijden,0,8,8,53,1
,,,,,00063,2023-10-18_19h38.00.706,vbt_B1_day3,2022.2.4,Win32,60.03121623,,,,,,,,,,,,,,,,,,,,leek,images/br_leek.png,images/cb_leek.png,,leek,,,,,,,,,,,0.37037037,0.000925912,1,0,0,leek,0,9,9,2,1
,,,,,00063,2023-10-18_19h38.00.706,vbt_B1_day3,2022.2.4,Win32,60.03121623,,,,,,,,,,,,,,,,,,,,afbopen,images/br_afbopen.png,images/cb_afbopen.png,,afbopen,,,,,,,,,,,0.37037037,0.000925912,1,0,0,afbopen,0,10,10,34,1
,,,,,00063,2023-10-18_19h38.00.706,vbt_B1_day3,2022.2.4,Win32,60.03121623,,,,,,,,,,,,,,,,,,,,steel,images/br_steel.png,images/cb_steel.png,,steel,,,,,,,,,,,0.37037037,0.000925912,1,0,0,steel,0,11,11,4,1
,,,,,00063,2023-10-18_19h38.00.706,vbt_B1_day3,2022.2.4,Win32,60.03121623,,,,,,,,,,,,,,,,,,,,kaas,images/br_kaas.png,images/cb_kaas.png,,kaas,,,,,,,,,,,0.37037037,0.000925912,1,0,0,kaas,0,12,12,42,1
,,,,,00063,2023-10-18_19h38.00.706,vbt_B1_day3,2022.2.4,Win32,60.03121623,,,,,,,,,,,,,,,,,,,,vlager,images/br_vlager.png,images/cb_vlager.png,,vlager,,,,,,,,,,,0.37037037,0.000925912,1,0,0,vlager,0,13,13,28,1
,,,,,00063,2023-10-18_19h38.00.706,vbt_B1_day3,2022.2.4,Win32,60.03121623,,,,,,,,,,,,,,,,,,,,onrecht,images/br_onrecht.png,images/cb_onrecht.png,,onricht,,,,,,,,,,,0.37037037,0.000925912,1,0,0,onricht,0,14,14,55,1
,,,,,00063,2023-10-18_19h38.00.706,vbt_B1_day3,2022.2.4,Win32,60.03121623,,,,,,,,,,,,,,,,,,,,bevret,images/br_bevret.png,images/cb_bevret.png,,bevret,,,,,,,,,,,0.37037037,0.000925912,1,0,0,bevret,0,15,15,30,1
,,,,,00063,2023-10-18_19h38.00.706,vbt_B1_day3,2022.2.4,Win32,60.03121623,,,,,,,,,,,,,,,,,,,,twaaf,images/br_twaaf.png,images/cb_twaaf.png,,twaaf,,,,,,,,,,,0.37037037,0.000925912,1,0,0,twaaf,0,16,16,24,1
,,,,,00063,2023-10-18_19h38.00.706,vbt_B1_day3,2022.2.4,Win32,60.03121623,,,,,,,,,,,,,,,,,,,,kwaas,images/br_kwaas.png,images/cb_kwaas.png,,kwaas,,,,,,,,,,,0.37037037,0.000925912,1,0,0,kwaas,0,17,17,26,1
,,,,,00063,2023-10-18_19h38.00.706,vbt_B1_day3,2022.2.4,Win32,60.03121623,,,,,,,,,,,,,,,,,,,,aarzelen,images/br_aarzelen.png,images/cb_aarzelen.png,,aarzelen,,,,,,,,,,,0.37037037,0.000925912,1,0,0,aarzelen,0,18,18,19,1
,,,,,00063,2023-10-18_19h38.00.706,vbt_B1_day3,2022.2.4,Win32,60.03121623,,,,,,,,,,,,,,,,,,,,opzetten,images/br_opzetten.png,images/cb_opzetten.png,,opzetten,,,,,,,,,,,0.37037037,0.000925912,1,0,0,opzetten,0,19,19,56,1
,,,,,00063,2023-10-18_19h38.00.706,vbt_B1_day3,2022.2.4,Win32,60.03121623,,,,,,,,,,,,,,,,,,,,beslag,images/br_beslag.png,images/cb_beslag.png,,beslag,,,,,,,,,,,0.37037037,0.000925912,1,0,0,beslag,0,20,20,51,1
,,,,,00063,2023-10-18_19h38.00.706,vbt_B1_day3,2022.2.4,Win32,60.03121623,,,,,,,,,,,,,,,,,,,,stoom,images/br_stoom.png,images/cb_stoom.png,,stoom,,,,,,,,,,,0.37037037,0.000925912,1,0,0,stoom,0,21,21,6,1
,,,,,00063,2023-10-18_19h38.00.706,vbt_B1_day3,2022.2.4,Win32,60.03121623,,,,,,,,,,,,,,,,,,,,verwoor,images/br_verwoor.png,images/cb_verwoor.png,,varw...,,,,,,,,,,,0.37037037,0.000925912,1,0,0,varw...,0,22,22,32,1
,,,,,00063,2023-10-18_19h38.00.706,vbt_B1_day3,2022.2.4,Win32,60.03121623,,,,,,,,,,,,,,,,,,,,uviek,images/br_uviek.png,images/cb_uviek.png,,uviek,,,,,,,,,,,0.37037037,0.000925912,1,0,0,uviek,0,23,23,25,1
,,,,,00063,2023-10-18_19h38.00.706,vbt_B1_day3,2022.2.4,Win32,60.03121623,,,,,,,,,,,,,,,,,,,,bisschop,images/br_bisschop.png,images/cb_bisschop.png,,bisschop,,,,,,,,,,,0.37037037,0.000925912,1,0,0,bisschop,0,24,24,16,1
,,,,,00063,2023-10-18_19h38.00.706,vbt_B1_day3,2022.2.4,Win32,60.03121623,,,,,,,,,,,,,,,,,,,,schatten,images/br_schatten.png,images/cb_schatten.png,,schatten,,,,,,,,,,,0.37037037,0.000925912,1,0,0,schatten,0,25,25,18,1
,,,,,00063,2023-10-18_19h38.00.706,vbt_B1_day3,2022.2.4,Win32,60.03121623,,,,,,,,,,,,,,,,,,,,kest,images/br_kest.png,images/cb_kest.png,,kest,,,,,,,,,,,0.37037037,0.000925912,1,0,0,kest,0,26,26,21,1
,,,,,00063,2023-10-18_19h38.00.706,vbt_B1_day3,2022.2.4,Win32,60.03121623,,,,,,,,,,,,,,,,,,,,gezond,images/br_gezond.png,images/cb_gezond.png,,gezond,,,,,,,,,,,0.37037037,0.000925912,1,0,0,gezond,0,27,27,11,1
,,,,,00063,2023-10-18_19h38.00.706,vbt_B1_day3,2022.2.4,Win32,60.03121623,,,,,,,,,,,,,,,,,,,,laken,images/br_laken.png,images/cb_laken.png,,laken,,,,,,,,,,,0.37037037,0.000925912,1,0,0,laken,0,28,28,5,1
,,,,,00063,2023-10-18_19h38.00.706,vbt_B1_day3,2022.2.4,Win32,60.03121623,,,,,,,,,,,,,,,,,,,,eens,images/br_eens.png,images/cb_eens.png,,eens,,,,,,,,,,,0.37037037,0.000925912,1,0,0,eens,0,29,29,40,1
,,,,,00063,2023-10-18_19h38.00.706,vbt_B1_day3,2022.2.4,Win32,60.03121623,,,,,,,,,,,,,,,,,,,,verraden,images/br_verraden.png,images/cb_verraden.png,,verraden,,,,,,,,,,,0.37037037,0.000925912,1,0,0,verraden,0,30,30,58,1
,,,,,00063,2023-10-18_19h38.00.706,vbt_B1_day3,2022.2.4,Win32,60.03121623,,,,,,,,,,,,,,,,,,,,schodel,images/br_schodel.png,images/cb_schodel.png,,schodel,,,,,,,,,,,0.37037037,0.000925912,1,0,0,schodel,0,31,31,33,1
,,,,,00063,2023-10-18_19h38.00.706,vbt_B1_day3,2022.2.4,Win32,60.03121623,,,,,,,,,,,,,,,,,,,,knie,images/br_knie.png,images/cb_knie.png,,knie,,,,,,,,,,,0.37037037,0.000925912,1,0,0,knie,0,32,32,0,1
,,,,,00063,2023-10-18_19h38.00.706,vbt_B1_day3,2022.2.4,Win32,60.03121623,,,,,,,,,,,,,,,,,,,,zone,images/br_zone.png,images/cb_zone.png,,zone,,,,,,,,,,,0.37037037,0.000925912,1,0,0,zone,0,33,33,41,1
,,,,,00063,2023-10-18_19h38.00.706,vbt_B1_day3,2022.2.4,Win32,60.03121623,,,,,,,,,,,,,,,,,,,,hier,images/br_hier.png,images/cb_hier.png,,hier,,,,,,,,,,,0.37037037,0.000925912,1,0,0,hier,0,34,34,1,1
,,,,,00063,2023-10-18_19h38.00.706,vbt_B1_day3,2022.2.4,Win32,60.03121623,,,,,,,,,,,,,,,,,,,,dwang,images/br_dwang.png,images/cb_dwang.png,,dwang,,,,,,,,,,,0.37037037,0.000925912,1,0,0,dwang,0,35,35,47,1
,,,,,00063,2023-10-18_19h38.00.706,vbt_B1_day3,2022.2.4,Win32,60.03121623,,,,,,,,,,,,,,,,,,,,paken,images/br_paken.png,images/cb_paken.png,,paken,,,,,,,,,,,0.37037037,0.000925912,1,0,0,paken,0,36,36,27,1
,,,,,00063,2023-10-18_19h38.00.706,vbt_B1_day3,2022.2.4,Win32,60.03121623,,,,,,,,,,,,,,,,,,,,alsof,images/br_alsof.png,images/cb_alsof.png,,altof,,,,,,,,,,,0.37037037,0.000925912,1,0,0,altof,0,37,37,44,1
,,,,,00063,2023-10-18_19h38.00.706,vbt_B1_day3,2022.2.4,Win32,60.03121623,,,,,,,,,,,,,,,,,,,,slapen,images/br_slapen.png,images/cb_slapen.png,,slapen,,,,,,,,,,,0.37037037,0.000925912,1,0,0,slapen,0,38,38,9,1
,,,,,00063,2023-10-18_19h38.00.706,vbt_B1_day3,2022.2.4,Win32,60.03121623,,,,,,,,,,,,,,,,,,,,keihard,images/br_keihard.png,images/cb_keihard.png,,keihard,,,,,,,,,,,0.37037037,0.000925912,1,0,0,keihard,0,39,39,14,1
,,,,,00063,2023-10-18_19h38.00.706,vbt_B1_day3,2022.2.4,Win32,60.03121623,,,,,,,,,,,,,,,,,,,,oprotten,images/br_oprotten.png,images/cb_oprotten.png,,oprotten,,,,,,,,,,,0.37037037,0.000925912,1,0,0,oprotten,0,40,40,17,1
,,,,,00063,2023-10-18_19h38.00.706,vbt_B1_day3,2022.2.4,Win32,60.03121623,,,,,,,,,,,,,,,,,,,,jongelui,images/br_jongelui.png,images/cb_jongelui.png,,jongelui,,,,,,,,,,,0.37037037,0.000925912,1,0,0,jongelui,0,41,41,59,1
,,,,,00063,2023-10-18_19h38.00.706,vbt_B1_day3,2022.2.4,Win32,60.03121623,,,,,,,,,,,,,,,,,,,,brappen,images/br_brappen.png,images/cb_brappen.png,,brappen,,,,,,,,,,,0.37037037,0.000925912,1,0,0,brappen,0,42,42,35,1
,,,,,00063,2023-10-18_19h38.00.706,vbt_B1_day3,2022.2.4,Win32,60.03121623,,,,,,,,,,,,,,,,,,,,leemaken,images/br_leemaken.png,images/cb_leemaken.png,,leemaken,,,,,,,,,,,0.37037037,0.000925912,1,0,0,leemaken,0,43,43,39,1
,,,,,00063,2023-10-18_19h38.00.706,vbt_B1_day3,2022.2.4,Win32,60.03121623,,,,,,,,,,,,,,,,,,,,begrip,images/br_begrip.png,images/cb_begrip.png,,begrip,,,,,,,,,,,0.37037037,0.000925912,1,0,0,begrip,0,44,44,48,1
,,,,,00063,2023-10-18_19h38.00.706,vbt_B1_day3,2022.2.4,Win32,60.03121623,,,,,,,,,,,,,,,,,,,,gout,images/br_gout.png,images/cb_gout.png,,gout,,,,,,,,,,,0.37037037,0.000925912,1,0,0,gout,0,45,45,20,1
,,,,,00063,2023-10-18_19h38.00.706,vbt_B1_day3,2022.2.4,Win32,60.03121623,,,,,,,,,,,,,,,,,,,,leugeren,images/br_leugeren.png,images/cb_leugeren.png,,leugeren,,,,,,,,,,,0.37037037,0.000925912,1,0,0,leugeren,0,46,46,37,1
,,,,,00063,2023-10-18_19h38.00.706,vbt_B1_day3,2022.2.4,Win32,60.03121623,,,,,,,,,,,,,,,,,,,,booien,images/br_booien.png,images/cb_booien.png,,booien,,,,,,,,,,,0.37037037,0.000925912,1,0,0,booien,0,47,47,31,1
,,,,,00063,2023-10-18_19h38.00.706,vbt_B1_day3,2022.2.4,Win32,60.03121623,,,,,,,,,,,,,,,,,,,,prikken,images/br_prikken.png,images/cb_prikken.png,,prikken,,,,,,,,,,,0.37037037,0.000925912,1,0,0,prikken,0,48,48,12,1
,,,,,00063,2023-10-18_19h38.00.706,vbt_B1_day3,2022.2.4,Win32,60.03121623,,,,,,,,,,,,,,,,,,,,sluier,images/br_sluier.png,images/cb_sluier.png,,sluier,,,,,,,,,,,0.37037037,0.000925912,1,0,0,sluier,0,49,49,50,1
,,,,,00063,2023-10-18_19h38.00.706,vbt_B1_day3,2022.2.4,Win32,60.03121623,,,,,,,,,,,,,,,,,,,,theeting,images/br_theeting.png,images/cb_theeting.png,,tuee....,,,,,,,,,,,0.37037037,0.000925912,1,0,0,tuee....,0,50,50,38,1
,,,,,00063,2023-10-18_19h38.00.706,vbt_B1_day3,2022.2.4,Win32,60.03121623,,,,,,,,,,,,,,,,,,,,stallen,images/br_stallen.png,images/cb_stallen.png,,stallen,,,,,,,,,,,0.37037037,0.000925912,1,0,0,stallen,0,51,51,52,1
,,,,,00063,2023-10-18_19h38.00.706,vbt_B1_day3,2022.2.4,Win32,60.03121623,,,,,,,,,,,,,,,,,,,,hust,images/br_hust.png,images/cb_hust.png,,dust,,,,,,,,,,,0.37037037,0.000925912,1,0,0,dust,0,52,52,23,1
,,,,,00063,2023-10-18_19h38.00.706,vbt_B1_day3,2022.2.4,Win32,60.03121623,,,,,,,,,,,,,,,,,,,,makieren,images/br_makieren.png,images/cb_makieren.png,,makieren,,,,,,,,,,,0.37037037,0.000925912,1,0,0,makieren,0,53,53,36,1
,,,,,00063,2023-10-18_19h38.00.706,vbt_B1_day3,2022.2.4,Win32,60.03121623,,,,,,,,,,,,,,,,,,,,hint,images/br_hint.png,images/cb_hint.png,,hint,,,,,,,,,,,0.37037037,0.000925912,1,0,0,hint,0,54,54,43,1
,,,,,00063,2023-10-18_19h38.00.706,vbt_B1_day3,2022.2.4,Win32,60.03121623,,,,,,,,,,,,,,,,,,,,gebod,images/br_gebod.png,images/cb_gebod.png,,gebod,,,,,,,,,,,0.37037037,0.000925912,1,0,0,gebod,0,55,55,45,1
,,,,,00063,2023-10-18_19h38.00.706,vbt_B1_day3,2022.2.4,Win32,60.03121623,,,,,,,,,,,,,,,,,,,,samen,images/br_samen.png,images/cb_samen.png,,samen,,,,,,,,,,,0.37037037,0.000925912,1,0,0,samen,0,56,56,7,1
,,,,,00063,2023-10-18_19h38.00.706,vbt_B1_day3,2022.2.4,Win32,60.03121623,,,,,,,,,,,,,,,,,,,,sultan,images/br_sultan.png,images/cb_sultan.png,,sultan,,,,,,,,,,,0.37037037,0.000925912,1,0,0,sultan,0,57,57,49,1
,,,,,00063,2023-10-18_19h38.00.706,vbt_B1_day3,2022.2.4,Win32,60.03121623,,,,,,,,,,,,,,,,,,,,mode,images/br_mode.png,images/cb_mode.png,,mode,,,,,,,,,,,0.37037037,0.000925912,1,0,0,mode,0,58,58,3,1
,,,,,00063,2023-10-18_19h38.00.706,vbt_B1_day3,2022.2.4,Win32,60.03121623,,,,,,,,,,,,,,,,,,,,croo,images/br_croo.png,images/cb_croo.png,,croo,,,,,,,,,,,0.37037037,0.000925912,1,0,0,croo,0,59,59,22,1
,,,,,00063,2023-10-18_19h38.00.706,vbt_B1_day3,2022.2.4,Win32,60.03121623,,,,,,,,,,,,,,,,,,,,,,,,,,,,,,,,,,,,,,,,,,,,,
