welcome_mouse.x,welcome_mouse.y,welcome_mouse.leftButton,welcome_mouse.midButton,welcome_mouse.rightButton,"ID",date,expName,psychopyVersion,OS,frameRate,trainInstr_mouse.x,trainInstr_mouse.y,trainInstr_mouse.leftButton,trainInstr_mouse.midButton,trainInstr_mouse.rightButton,translation_key.keys,translation_key.corr,translation_key.rt,word_rsp.text,trWrd_mouse.x,trWrd_mouse.y,trWrd_mouse.leftButton,trWrd_mouse.midButton,trWrd_mouse.rightButton,train_loop.thisRepN,train_loop.thisTrialN,train_loop.thisN,train_loop.thisIndex,train_loop.ran,nlWrd,brWrd,cbWrd,test,testResp,mouse.x,mouse.y,mouse.leftButton,mouse.midButton,mouse.rightButton,testInstr_mouse.x,testInstr_mouse.y,testInstr_mouse.leftButton,testInstr_mouse.midButton,testInstr_mouse.rightButton,test_mouse.x,test_mouse.y,test_mouse.leftButton,test_mouse.midButton,test_mouse.rightButton,test_response.text,test_loop.thisRepN,test_loop.thisTrialN,test_loop.thisN,test_loop.thisIndex,test_loop.ran
-0.156692708,-0.272890625,1,0,0,00008,2023-07-26_13h25.49.412,vbt_B1_day3,2022.2.4,MacIntel,60.0024001,,,,,,,,,,,,,,,,,,,,,,,,,,,,,,,,,,,,,,,,,,,,,
,,,,,00008,2023-07-26_13h25.49.412,vbt_B1_day3,2022.2.4,MacIntel,60.0024001,-0.156692708,-0.272890625,1,0,0,,,,,,,,,,,,,,,,,,,,,,,,,,,,,,,,,,,,,,,,
,,,,,00008,2023-07-26_13h25.49.412,vbt_B1_day3,2022.2.4,MacIntel,60.0024001,,,,,,down,0,1.8385,,-0.156692708,-0.272890625,1,0,0,0,0,0,177,1,maaltijd,images/br_maaltijd.png,images/cb_maaltijd.png,0,,,,,,,,,,,,,,,,,,,,,,
,,,,,00008,2023-07-26_13h25.49.412,vbt_B1_day3,2022.2.4,MacIntel,60.0024001,,,,,,down,0,28.7843,,-0.156692708,-0.272890625,1,0,0,0,1,1,189,1,aanraden,images/br_aanraden.png,images/cb_aanraden.png,0,,,,,,,,,,,,,,,,,,,,,,
,,,,,00008,2023-07-26_13h25.49.412,vbt_B1_day3,2022.2.4,MacIntel,60.0024001,,,,,,down,0,95.2473,,-0.156692708,-0.272890625,1,0,0,0,2,2,2,1,jaar,images/br_jaar.png,images/cb_jaar.png,0,,,,,,,,,,,,,,,,,,,,,,
,,,,,00008,2023-07-26_13h25.49.412,vbt_B1_day3,2022.2.4,MacIntel,60.0024001,,,,,,down,0,0.5351,,-0.156692708,-0.272890625,1,0,0,0,3,3,65,1,parel,images/br_parel.png,images/cb_parel.png,0,,,,,,,,,,,,,,,,,,,,,,
,,,,,00008,2023-07-26_13h25.49.412,vbt_B1_day3,2022.2.4,MacIntel,60.0024001,,,,,,down,0,0.2537,,-0.156692708,-0.272890625,1,0,0,0,4,4,27,1,dans,images/br_dans.png,images/cb_dans.png,0,,,,,,,,,,,,,,,,,,,,,,
,,,,,00008,2023-07-26_13h25.49.412,vbt_B1_day3,2022.2.4,MacIntel,60.0024001,,,,,,down,0,10.0319,,-0.156692708,-0.272890625,1,0,0,0,5,5,191,1,opheffen,images/br_opheffen.png,images/cb_opheffen.png,0,,,,,,,,,,,,,,,,,,,,,,
,,,,,00008,2023-07-26_13h25.49.412,vbt_B1_day3,2022.2.4,MacIntel,60.0024001,,,,,,down,0,2.7334,,-0.156692708,-0.272890625,1,0,0,0,6,6,88,1,boeien,images/br_boeien.png,images/cb_boeien.png,0,,,,,,,,,,,,,,,,,,,,,,
,,,,,00008,2023-07-26_13h25.49.412,vbt_B1_day3,2022.2.4,MacIntel,60.0024001,,,,,,down,0,1.2143,,-0.156692708,-0.272890625,1,0,0,0,7,7,120,1,klimmen,images/br_klimmen.png,images/cb_klimmen.png,0,,,,,,,,,,,,,,,,,,,,,,
,,,,,00008,2023-07-26_13h25.49.412,vbt_B1_day3,2022.2.4,MacIntel,60.0024001,,,,,,down,0,27.4504,,-0.156692708,-0.272890625,1,0,0,0,8,8,143,1,hechten,images/br_hechten.png,images/cb_hechten.png,1,hechten,,,,,,,,,,,,,,,,,,,,,
,,,,,00008,2023-07-26_13h25.49.412,vbt_B1_day3,2022.2.4,MacIntel,60.0024001,,,,,,down,0,4.6506,,-0.156692708,-0.272890625,1,0,0,0,9,9,8,1,knie,images/br_knie.png,images/cb_knie.png,0,,,,,,,,,,,,,,,,,,,,,,
,,,,,00008,2023-07-26_13h25.49.412,vbt_B1_day3,2022.2.4,MacIntel,60.0024001,,,,,,down,0,9.2507,,-0.156692708,-0.272890625,1,0,0,0,10,10,161,1,attentie,images/br_attentie.png,images/cb_attentie.png,0,,,,,,,,,,,,,,,,,,,,,,
,,,,,00008,2023-07-26_13h25.49.412,vbt_B1_day3,2022.2.4,MacIntel,60.0024001,,,,,,down,0,11.1338,,-0.156692708,-0.272890625,1,0,0,0,11,11,153,1,vervoer,images/br_vervoer.png,images/cb_vervoer.png,0,,,,,,,,,,,,,,,,,,,,,,
,,,,,00008,2023-07-26_13h25.49.412,vbt_B1_day3,2022.2.4,MacIntel,60.0024001,,,,,,down,0,3.3163,,-0.156692708,-0.272890625,1,0,0,0,12,12,171,1,aarzelen,images/br_aarzelen.png,images/cb_aarzelen.png,0,,,,,,,,,,,,,,,,,,,,,,
,,,,,00008,2023-07-26_13h25.49.412,vbt_B1_day3,2022.2.4,MacIntel,60.0024001,,,,,,down,0,16.2661,,-0.156692708,-0.272890625,1,0,0,0,13,13,22,1,stof,images/br_stof.png,images/cb_stof.png,1,stom,,,,,,,,,,,,,,,,,,,,,
,,,,,00008,2023-07-26_13h25.49.412,vbt_B1_day3,2022.2.4,MacIntel,60.0024001,,,,,,down,0,2.2174,,-0.186631944,-0.248619792,1,0,0,0,14,14,5,1,blad,images/br_blad.png,images/cb_blad.png,0,,,,,,,,,,,,,,,,,,,,,,
,,,,,00008,2023-07-26_13h25.49.412,vbt_B1_day3,2022.2.4,MacIntel,60.0024001,,,,,,down,0,2.0833,,-0.185855035,-0.248619792,1,0,0,0,15,15,6,1,diep,images/br_diep.png,images/cb_diep.png,0,,,,,,,,,,,,,,,,,,,,,,
,,,,,00008,2023-07-26_13h25.49.412,vbt_B1_day3,2022.2.4,MacIntel,60.0024001,,,,,,down,0,1.0583,,-0.185855035,-0.248619792,1,0,0,0,16,16,111,1,ticket,images/br_ticket.png,images/cb_ticket.png,0,,,,,,,,,,,,,,,,,,,,,,
,,,,,00008,2023-07-26_13h25.49.412,vbt_B1_day3,2022.2.4,MacIntel,60.0024001,,,,,,down,0,2.2184,,-0.181332465,-0.248619792,1,0,0,0,17,17,15,1,soda,images/br_soda.png,images/cb_soda.png,0,,,,,,,,,,,,,,,,,,,,,,
,,,,,00008,2023-07-26_13h25.49.412,vbt_B1_day3,2022.2.4,MacIntel,60.0024001,,,,,,down,0,3.0688,,-0.181332465,-0.248619792,1,0,0,0,18,18,48,1,steel,images/br_steel.png,images/cb_steel.png,0,,,,,,,,,,,,,,,,,,,,,,
,,,,,00008,2023-07-26_13h25.49.412,vbt_B1_day3,2022.2.4,MacIntel,60.0024001,,,,,,down,0,2.2042,,0.40844184,0.475611979,1,0,0,0,19,19,167,1,eenhoorn,images/br_eenhoorn.png,images/cb_eenhoorn.png,0,,,,,,,,,,,,,,,,,,,,,,
,,,,,00008,2023-07-26_13h25.49.412,vbt_B1_day3,2022.2.4,MacIntel,60.0024001,,,,,,down,0,12.6163,,0.40844184,0.475611979,1,0,0,0,20,20,100,1,geduld,images/br_geduld.png,images/cb_geduld.png,1,geduld,,,,,,,,,,,,,,,,,,,,,
,,,,,00008,2023-07-26_13h25.49.412,vbt_B1_day3,2022.2.4,MacIntel,60.0024001,,,,,,down,0,0.7,,0.40844184,0.475611979,1,0,0,0,21,21,132,1,grappen,images/br_grappen.png,images/cb_grappen.png,0,,,,,,,,,,,,,,,,,,,,,,
,,,,,00008,2023-07-26_13h25.49.412,vbt_B1_day3,2022.2.4,MacIntel,60.0024001,,,,,,down,0,12.0836,,0.407929688,0.477916667,1,0,0,0,22,22,71,1,bever,images/br_bever.png,images/cb_bever.png,0,,,,,,,,,,,,,,,,,,,,,,
,,,,,00008,2023-07-26_13h25.49.412,vbt_B1_day3,2022.2.4,MacIntel,60.0024001,,,,,,down,0,1.5444,,0.398693576,0.483029514,1,0,0,0,23,23,166,1,strikken,images/br_strikken.png,images/cb_strikken.png,0,,,,,,,,,,,,,,,,,,,,,,
,,,,,00008,2023-07-26_13h25.49.412,vbt_B1_day3,2022.2.4,MacIntel,60.0024001,,,,,,down,0,2.287,,0.398693576,0.483029514,1,0,0,0,24,24,30,1,uien,images/br_uien.png,images/cb_uien.png,0,,,,,,,,,,,,,,,,,,,,,,
,,,,,00008,2023-07-26_13h25.49.412,vbt_B1_day3,2022.2.4,MacIntel,60.0024001,,,,,,down,0,10.5744,,0.398693576,0.483029514,1,0,0,0,25,25,61,1,groen,images/br_groen.png,images/cb_groen.png,1,groen,,,,,,,,,,,,,,,,,,,,,
,,,,,00008,2023-07-26_13h25.49.412,vbt_B1_day3,2022.2.4,MacIntel,60.0024001,,,,,,down,0,16.3871,,0.398693576,0.483029514,1,0,0,0,26,26,133,1,seizoen,images/br_seizoen.png,images/cb_seizoen.png,0,,,,,,,,,,,,,,,,,,,,,,
,,,,,00008,2023-07-26_13h25.49.412,vbt_B1_day3,2022.2.4,MacIntel,60.0024001,,,,,,down,0,1.8171,,0.398693576,0.483029514,1,0,0,0,27,27,99,1,koffie,images/br_koffie.png,images/cb_koffie.png,0,,,,,,,,,,,,,,,,,,,,,,
,,,,,00008,2023-07-26_13h25.49.412,vbt_B1_day3,2022.2.4,MacIntel,60.0024001,,,,,,down,0,0.9855,,0.393355035,0.487547743,1,0,0,0,28,28,58,1,tekst,images/br_tekst.png,images/cb_tekst.png,0,,,,,,,,,,,,,,,,,,,,,,
,,,,,00008,2023-07-26_13h25.49.412,vbt_B1_day3,2022.2.4,MacIntel,60.0024001,,,,,,down,0,9.6412,,0.393355035,0.487547743,1,0,0,0,29,29,131,1,opzicht,images/br_opzicht.png,images/cb_opzicht.png,0,,,,,,,,,,,,,,,,,,,,,,
,,,,,00008,2023-07-26_13h25.49.412,vbt_B1_day3,2022.2.4,MacIntel,60.0024001,,,,,,down,0,0.5174,,0.393355035,0.487547743,1,0,0,0,30,30,176,1,techniek,images/br_techniek.png,images/cb_techniek.png,0,,,,,,,,,,,,,,,,,,,,,,
,,,,,00008,2023-07-26_13h25.49.412,vbt_B1_day3,2022.2.4,MacIntel,60.0024001,,,,,,down,0,2.1095,,0.393355035,0.487547743,1,0,0,0,31,31,41,1,maken,images/br_maken.png,images/cb_maken.png,0,,,,,,,,,,,,,,,,,,,,,,
,,,,,00008,2023-07-26_13h25.49.412,vbt_B1_day3,2022.2.4,MacIntel,60.0024001,,,,,,down,0,4.6777,,0.393355035,0.487547743,1,0,0,0,32,32,82,1,muziek,images/br_muziek.png,images/cb_muziek.png,0,,,,,,,,,,,,,,,,,,,,,,
,,,,,00008,2023-07-26_13h25.49.412,vbt_B1_day3,2022.2.4,MacIntel,60.0024001,,,,,,down,0,1.4956,,0.393355035,0.487547743,1,0,0,0,33,33,47,1,kabel,images/br_kabel.png,images/cb_kabel.png,0,,,,,,,,,,,,,,,,,,,,,,
,,,,,00008,2023-07-26_13h25.49.412,vbt_B1_day3,2022.2.4,MacIntel,60.0024001,,,,,,down,0,0.3953,,0.391349826,0.488402778,1,0,0,0,34,34,146,1,opkomen,images/br_opkomen.png,images/cb_opkomen.png,0,,,,,,,,,,,,,,,,,,,,,,
,,,,,00008,2023-07-26_13h25.49.412,vbt_B1_day3,2022.2.4,MacIntel,60.0024001,,,,,,down,0,1.4485,,0.391349826,0.488402778,1,0,0,0,35,35,179,1,woestijn,images/br_woestijn.png,images/cb_woestijn.png,0,,,,,,,,,,,,,,,,,,,,,,
,,,,,00008,2023-07-26_13h25.49.412,vbt_B1_day3,2022.2.4,MacIntel,60.0024001,,,,,,down,0,2.567,,0.391349826,0.488402778,1,0,0,0,36,36,76,1,afval,images/br_afval.png,images/cb_afval.png,0,,,,,,,,,,,,,,,,,,,,,,
,,,,,00008,2023-07-26_13h25.49.412,vbt_B1_day3,2022.2.4,MacIntel,60.0024001,,,,,,down,0,49.3989,,0.409878472,0.428250868,1,0,0,0,37,37,21,1,mist,images/br_mist.png,images/cb_mist.png,1,uist,,,,,,,,,,,,,,,,,,,,,
,,,,,00008,2023-07-26_13h25.49.412,vbt_B1_day3,2022.2.4,MacIntel,60.0024001,,,,,,down,0,23.1493,,0.409878472,0.428250868,1,0,0,0,38,38,136,1,waarbij,images/br_waarbij.png,images/cb_waarbij.png,0,,,,,,,,,,,,,,,,,,,,,,
,,,,,00008,2023-07-26_13h25.49.412,vbt_B1_day3,2022.2.4,MacIntel,60.0024001,,,,,,down,0,2.2504,,0.409878472,0.428250868,1,0,0,0,39,39,196,1,nakijken,images/br_nakijken.png,images/cb_nakijken.png,0,,,,,,,,,,,,,,,,,,,,,,
,,,,,00008,2023-07-26_13h25.49.412,vbt_B1_day3,2022.2.4,MacIntel,60.0024001,,,,,,down,0,3.1741,,0.409878472,0.428250868,1,0,0,0,40,40,81,1,dubbel,images/br_dubbel.png,images/cb_dubbel.png,0,,,,,,,,,,,,,,,,,,,,,,
,,,,,00008,2023-07-26_13h25.49.412,vbt_B1_day3,2022.2.4,MacIntel,60.0024001,,,,,,down,0,1.6515,,0.409878472,0.428250868,1,0,0,0,41,41,49,1,laken,images/br_laken.png,images/cb_laken.png,0,,,,,,,,,,,,,,,,,,,,,,
,,,,,00008,2023-07-26_13h25.49.412,vbt_B1_day3,2022.2.4,MacIntel,60.0024001,,,,,,down,0,1.3336,,0.409878472,0.428250868,1,0,0,0,42,42,66,1,lever,images/br_lever.png,images/cb_lever.png,0,,,,,,,,,,,,,,,,,,,,,,
,,,,,00008,2023-07-26_13h25.49.412,vbt_B1_day3,2022.2.4,MacIntel,60.0024001,,,,,,down,0,2.3529,,0.409878472,0.428250868,1,0,0,0,43,43,156,1,rechten,images/br_rechten.png,images/cb_rechten.png,0,,,,,,,,,,,,,,,,,,,,,,
,,,,,00008,2023-07-26_13h25.49.412,vbt_B1_day3,2022.2.4,MacIntel,60.0024001,,,,,,down,0,2.3385,,0.409878472,0.428250868,1,0,0,0,44,44,73,1,volop,images/br_volop.png,images/cb_volop.png,0,,,,,,,,,,,,,,,,,,,,,,
,,,,,00008,2023-07-26_13h25.49.412,vbt_B1_day3,2022.2.4,MacIntel,60.0024001,,,,,,down,0,3.0088,,0.409878472,0.428250868,1,0,0,0,45,45,84,1,lokken,images/br_lokken.png,images/cb_lokken.png,0,,,,,,,,,,,,,,,,,,,,,,
,,,,,00008,2023-07-26_13h25.49.412,vbt_B1_day3,2022.2.4,MacIntel,60.0024001,,,,,,down,0,2.0664,,0.409878472,0.428250868,1,0,0,0,46,46,148,1,smullen,images/br_smullen.png,images/cb_smullen.png,0,,,,,,,,,,,,,,,,,,,,,,
,,,,,00008,2023-07-26_13h25.49.412,vbt_B1_day3,2022.2.4,MacIntel,60.0024001,,,,,,down,0,1.9398,,0.409878472,0.428250868,1,0,0,0,47,47,98,1,kreeft,images/br_kreeft.png,images/cb_kreeft.png,0,,,,,,,,,,,,,,,,,,,,,,
,,,,,00008,2023-07-26_13h25.49.412,vbt_B1_day3,2022.2.4,MacIntel,60.0024001,,,,,,down,0,1.5524,,0.409878472,0.428250868,1,0,0,0,48,48,163,1,schuilen,images/br_schuilen.png,images/cb_schuilen.png,0,,,,,,,,,,,,,,,,,,,,,,
,,,,,00008,2023-07-26_13h25.49.412,vbt_B1_day3,2022.2.4,MacIntel,60.0024001,,,,,,down,0,0.9989,,0.40953125,0.423919271,1,0,0,0,49,49,36,1,vuur,images/br_vuur.png,images/cb_vuur.png,0,,,,,,,,,,,,,,,,,,,,,,
,,,,,00008,2023-07-26_13h25.49.412,vbt_B1_day3,2022.2.4,MacIntel,60.0024001,,,,,,down,0,1.551,,0.405603299,0.425286458,1,0,0,0,50,50,31,1,poes,images/br_poes.png,images/cb_poes.png,0,,,,,,,,,,,,,,,,,,,,,,
,,,,,00008,2023-07-26_13h25.49.412,vbt_B1_day3,2022.2.4,MacIntel,60.0024001,,,,,,down,0,1.0694,,0.403559028,0.425286458,1,0,0,0,51,51,91,1,gezond,images/br_gezond.png,images/cb_gezond.png,0,,,,,,,,,,,,,,,,,,,,,,
,,,,,00008,2023-07-26_13h25.49.412,vbt_B1_day3,2022.2.4,MacIntel,60.0024001,,,,,,down,0,2.2919,,0.402000868,0.421974826,1,0,0,0,52,52,116,1,besmet,images/br_besmet.png,images/cb_besmet.png,0,,,,,,,,,,,,,,,,,,,,,,
,,,,,00008,2023-07-26_13h25.49.412,vbt_B1_day3,2022.2.4,MacIntel,60.0024001,,,,,,down,0,1.506,,0.399275174,0.418897569,1,0,0,0,53,53,44,1,flits,images/br_flits.png,images/cb_flits.png,0,,,,,,,,,,,,,,,,,,,,,,
,,,,,00008,2023-07-26_13h25.49.412,vbt_B1_day3,2022.2.4,MacIntel,60.0024001,,,,,,down,0,0.22,,0.399275174,0.41546441,1,0,0,0,54,54,19,1,geit,images/br_geit.png,images/cb_geit.png,0,,,,,,,,,,,,,,,,,,,,,,
,,,,,00008,2023-07-26_13h25.49.412,vbt_B1_day3,2022.2.4,MacIntel,60.0024001,,,,,,down,0,1.3382,,0.398984375,0.41265191,1,0,0,0,55,55,80,1,kanjer,images/br_kanjer.png,images/cb_kanjer.png,0,,,,,,,,,,,,,,,,,,,,,,
,,,,,00008,2023-07-26_13h25.49.412,vbt_B1_day3,2022.2.4,MacIntel,60.0024001,,,,,,down,0,1.037,,0.403038194,0.407543403,1,0,0,0,56,56,185,1,mijnheer,images/br_mijnheer.png,images/cb_mijnheer.png,0,,,,,,,,,,,,,,,,,,,,,,
,,,,,00008,2023-07-26_13h25.49.412,vbt_B1_day3,2022.2.4,MacIntel,60.0024001,,,,,,down,0,4.9016,,0.403038194,0.403033854,1,0,0,0,57,57,135,1,gedicht,images/br_gedicht.png,images/cb_gedicht.png,0,,,,,,,,,,,,,,,,,,,,,,
,,,,,00008,2023-07-26_13h25.49.412,vbt_B1_day3,2022.2.4,MacIntel,60.0024001,,,,,,down,0,2.0251,,0.402178819,0.400073785,1,0,0,0,58,58,138,1,akkoord,images/br_akkoord.png,images/cb_akkoord.png,0,,,,,,,,,,,,,,,,,,,,,,
,,,,,00008,2023-07-26_13h25.49.412,vbt_B1_day3,2022.2.4,MacIntel,60.0024001,,,,,,down,0,8.7204,,0.401644965,0.400073785,1,0,0,0,59,59,159,1,sufferd,images/br_sufferd.png,images/cb_sufferd.png,0,,,,,,,,,,,,,,,,,,,,,,
,,,,,00008,2023-07-26_13h25.49.412,vbt_B1_day3,2022.2.4,MacIntel,60.0024001,,,,,,down,0,10.6746,,0.401644965,0.399552951,1,0,0,0,60,60,165,1,feestdag,images/br_feestdag.png,images/cb_feestdag.png,0,,,,,,,,,,,,,,,,,,,,,,
,,,,,00008,2023-07-26_13h25.49.412,vbt_B1_day3,2022.2.4,MacIntel,60.0024001,,,,,,down,0,14.692,,0.401644965,0.399552951,1,0,0,0,61,61,62,1,knaap,images/br_knaap.png,images/cb_knaap.png,1,knaap,,,,,,,,,,,,,,,,,,,,,
,,,,,00008,2023-07-26_13h25.49.412,vbt_B1_day3,2022.2.4,MacIntel,60.0024001,,,,,,down,0,3.0243,,0.401644965,0.399552951,1,0,0,0,62,62,114,1,vullen,images/br_vullen.png,images/cb_vullen.png,0,,,,,,,,,,,,,,,,,,,,,,
,,,,,00008,2023-07-26_13h25.49.412,vbt_B1_day3,2022.2.4,MacIntel,60.0024001,,,,,,down,0,1.1889,,0.401644965,0.399552951,1,0,0,0,63,63,125,1,aanzien,images/br_aanzien.png,images/cb_aanzien.png,0,,,,,,,,,,,,,,,,,,,,,,
,,,,,00008,2023-07-26_13h25.49.412,vbt_B1_day3,2022.2.4,MacIntel,60.0024001,,,,,,down,0,1.8081,,0.401644965,0.399552951,1,0,0,0,64,64,34,1,vorm,images/br_vorm.png,images/cb_vorm.png,0,,,,,,,,,,,,,,,,,,,,,,
,,,,,00008,2023-07-26_13h25.49.412,vbt_B1_day3,2022.2.4,MacIntel,60.0024001,,,,,,down,0,2.4014,,0.384240451,0.399552951,1,0,0,0,65,65,126,1,kasteel,images/br_kasteel.png,images/cb_kasteel.png,0,,,,,,,,,,,,,,,,,,,,,,
,,,,,00008,2023-07-26_13h25.49.412,vbt_B1_day3,2022.2.4,MacIntel,60.0024001,,,,,,down,0,2.856,,0.384240451,0.399552951,1,0,0,0,66,66,186,1,voorraad,images/br_voorraad.png,images/cb_voorraad.png,0,,,,,,,,,,,,,,,,,,,,,,
,,,,,00008,2023-07-26_13h25.49.412,vbt_B1_day3,2022.2.4,MacIntel,60.0024001,,,,,,down,0,1.0776,,0.384240451,0.399552951,1,0,0,0,67,67,45,1,piste,images/br_piste.png,images/cb_piste.png,0,,,,,,,,,,,,,,,,,,,,,,
,,,,,00008,2023-07-26_13h25.49.412,vbt_B1_day3,2022.2.4,MacIntel,60.0024001,,,,,,down,0,3.6899,,0.384240451,0.399552951,1,0,0,0,68,68,42,1,bleek,images/br_bleek.png,images/cb_bleek.png,0,,,,,,,,,,,,,,,,,,,,,,
,,,,,00008,2023-07-26_13h25.49.412,vbt_B1_day3,2022.2.4,MacIntel,60.0024001,,,,,,down,0,2.7913,,0.384240451,0.399552951,1,0,0,0,69,69,175,1,heengaan,images/br_heengaan.png,images/cb_heengaan.png,0,,,,,,,,,,,,,,,,,,,,,,
,,,,,00008,2023-07-26_13h25.49.412,vbt_B1_day3,2022.2.4,MacIntel,60.0024001,,,,,,down,0,4.149,,0.384240451,0.399552951,1,0,0,0,70,70,51,1,samen,images/br_samen.png,images/cb_samen.png,0,,,,,,,,,,,,,,,,,,,,,,
,,,,,00008,2023-07-26_13h25.49.412,vbt_B1_day3,2022.2.4,MacIntel,60.0024001,,,,,,down,0,0.8326,,0.384240451,0.399552951,1,0,0,0,71,71,194,1,driemaal,images/br_driemaal.png,images/cb_driemaal.png,0,,,,,,,,,,,,,,,,,,,,,,
,,,,,00008,2023-07-26_13h25.49.412,vbt_B1_day3,2022.2.4,MacIntel,60.0024001,,,,,,down,0,2.5305,,0.384240451,0.399552951,1,0,0,0,72,72,74,1,graaf,images/br_graaf.png,images/cb_graaf.png,0,,,,,,,,,,,,,,,,,,,,,,
,,,,,00008,2023-07-26_13h25.49.412,vbt_B1_day3,2022.2.4,MacIntel,60.0024001,,,,,,down,0,13.0354,,0.368255208,0.44640191,1,0,0,0,73,73,60,1,jasje,images/br_jasje.png,images/cb_jasje.png,1,jasje,,,,,,,,,,,,,,,,,,,,,
,,,,,00008,2023-07-26_13h25.49.412,vbt_B1_day3,2022.2.4,MacIntel,60.0024001,,,,,,down,0,1.8152,,0.368789062,0.446137153,1,0,0,0,74,74,121,1,twijfel,images/br_twijfel.png,images/cb_twijfel.png,0,,,,,,,,,,,,,,,,,,,,,,
,,,,,00008,2023-07-26_13h25.49.412,vbt_B1_day3,2022.2.4,MacIntel,60.0024001,,,,,,down,0,0.8469,,0.368532986,0.446137153,1,0,0,0,75,75,117,1,kennis,images/br_kennis.png,images/cb_kennis.png,0,,,,,,,,,,,,,,,,,,,,,,
,,,,,00008,2023-07-26_13h25.49.412,vbt_B1_day3,2022.2.4,MacIntel,60.0024001,,,,,,down,0,1.9851,,0.368532986,0.446137153,1,0,0,0,76,76,86,1,woning,images/br_woning.png,images/cb_woning.png,0,,,,,,,,,,,,,,,,,,,,,,
,,,,,00008,2023-07-26_13h25.49.412,vbt_B1_day3,2022.2.4,MacIntel,60.0024001,,,,,,down,0,8.0835,,0.368532986,0.446137153,1,0,0,0,77,77,182,1,bijkomen,images/br_bijkomen.png,images/cb_bijkomen.png,1,bijkomen,,,,,,,,,,,,,,,,,,,,,
,,,,,00008,2023-07-26_13h25.49.412,vbt_B1_day3,2022.2.4,MacIntel,60.0024001,,,,,,down,0,0.3666,,0.368532986,0.446137153,1,0,0,0,78,78,178,1,huisdier,images/br_huisdier.png,images/cb_huisdier.png,0,,,,,,,,,,,,,,,,,,,,,,
,,,,,00008,2023-07-26_13h25.49.412,vbt_B1_day3,2022.2.4,MacIntel,60.0024001,,,,,,down,0,0.4316,,0.36827691,0.446393229,1,0,0,0,79,79,32,1,palm,images/br_palm.png,images/cb_palm.png,0,,,,,,,,,,,,,,,,,,,,,,
,,,,,00008,2023-07-26_13h25.49.412,vbt_B1_day3,2022.2.4,MacIntel,60.0024001,,,,,,down,0,0.8323,,0.36827691,0.446393229,1,0,0,0,80,80,139,1,stiekem,images/br_stiekem.png,images/cb_stiekem.png,0,,,,,,,,,,,,,,,,,,,,,,
,,,,,00008,2023-07-26_13h25.49.412,vbt_B1_day3,2022.2.4,MacIntel,60.0024001,,,,,,down,0,0.967,,0.36827691,0.446393229,1,0,0,0,81,81,172,1,weigeren,images/br_weigeren.png,images/cb_weigeren.png,0,,,,,,,,,,,,,,,,,,,,,,
,,,,,00008,2023-07-26_13h25.49.412,vbt_B1_day3,2022.2.4,MacIntel,60.0024001,,,,,,down,0,2.3678,,0.36827691,0.446393229,1,0,0,0,82,82,55,1,praat,images/br_praat.png,images/cb_praat.png,0,,,,,,,,,,,,,,,,,,,,,,
,,,,,00008,2023-07-26_13h25.49.412,vbt_B1_day3,2022.2.4,MacIntel,60.0024001,,,,,,down,0,1.4174,,0.368020833,0.446393229,1,0,0,0,83,83,64,1,wegen,images/br_wegen.png,images/cb_wegen.png,0,,,,,,,,,,,,,,,,,,,,,,
,,,,,00008,2023-07-26_13h25.49.412,vbt_B1_day3,2022.2.4,MacIntel,60.0024001,,,,,,down,0,1.7826,,0.368020833,0.446393229,1,0,0,0,84,84,144,1,eetlust,images/br_eetlust.png,images/cb_eetlust.png,0,,,,,,,,,,,,,,,,,,,,,,
,,,,,00008,2023-07-26_13h25.49.412,vbt_B1_day3,2022.2.4,MacIntel,60.0024001,,,,,,down,0,4.224,,0.368020833,0.446393229,1,0,0,0,85,85,20,1,site,images/br_site.png,images/cb_site.png,1,site,,,,,,,,,,,,,,,,,,,,,
,,,,,00008,2023-07-26_13h25.49.412,vbt_B1_day3,2022.2.4,MacIntel,60.0024001,,,,,,down,0,0.8842,,0.368020833,0.446649306,1,0,0,0,86,86,18,1,blik,images/br_blik.png,images/cb_blik.png,0,,,,,,,,,,,,,,,,,,,,,,
,,,,,00008,2023-07-26_13h25.49.412,vbt_B1_day3,2022.2.4,MacIntel,60.0024001,,,,,,down,0,1.1397,,0.366727431,0.446905382,1,0,0,0,87,87,107,1,maling,images/br_maling.png,images/cb_maling.png,0,,,,,,,,,,,,,,,,,,,,,,
,,,,,00008,2023-07-26_13h25.49.412,vbt_B1_day3,2022.2.4,MacIntel,60.0024001,,,,,,down,0,3.9029,,0.366727431,0.446905382,1,0,0,0,88,88,168,1,bisschop,images/br_bisschop.png,images/cb_bisschop.png,0,,,,,,,,,,,,,,,,,,,,,,
,,,,,00008,2023-07-26_13h25.49.412,vbt_B1_day3,2022.2.4,MacIntel,60.0024001,,,,,,down,0,1.3341,,0.366727431,0.446905382,1,0,0,0,89,89,56,1,traag,images/br_traag.png,images/cb_traag.png,0,,,,,,,,,,,,,,,,,,,,,,
,,,,,00008,2023-07-26_13h25.49.412,vbt_B1_day3,2022.2.4,MacIntel,60.0024001,,,,,,down,0,2.8707,,0.366727431,0.447695312,1,0,0,0,90,90,79,1,nodig,images/br_nodig.png,images/cb_nodig.png,0,,,,,,,,,,,,,,,,,,,,,,
,,,,,00008,2023-07-26_13h25.49.412,vbt_B1_day3,2022.2.4,MacIntel,60.0024001,,,,,,down,0,0.2525,,0.366727431,0.447695312,1,0,0,0,91,91,37,1,mijn,images/br_mijn.png,images/cb_mijn.png,0,,,,,,,,,,,,,,,,,,,,,,
,,,,,00008,2023-07-26_13h25.49.412,vbt_B1_day3,2022.2.4,MacIntel,60.0024001,,,,,,down,0,3.5028,,0.366727431,0.447695312,1,0,0,0,92,92,26,1,leuk,images/br_leuk.png,images/cb_leuk.png,0,,,,,,,,,,,,,,,,,,,,,,
,,,,,00008,2023-07-26_13h25.49.412,vbt_B1_day3,2022.2.4,MacIntel,60.0024001,,,,,,down,0,6.0245,,0.366727431,0.447695312,1,0,0,0,93,93,106,1,zingen,images/br_zingen.png,images/cb_zingen.png,0,,,,,,,,,,,,,,,,,,,,,,
,,,,,00008,2023-07-26_13h25.49.412,vbt_B1_day3,2022.2.4,MacIntel,60.0024001,,,,,,down,0,0.5902,,0.366471354,0.447695312,1,0,0,0,94,94,46,1,jagen,images/br_jagen.png,images/cb_jagen.png,0,,,,,,,,,,,,,,,,,,,,,,
,,,,,00008,2023-07-26_13h25.49.412,vbt_B1_day3,2022.2.4,MacIntel,60.0024001,,,,,,down,0,0.6342,,0.380703125,0.457131076,1,0,0,0,95,95,78,1,leren,images/br_leren.png,images/cb_leren.png,0,,,,,,,,,,,,,,,,,,,,,,
,,,,,00008,2023-07-26_13h25.49.412,vbt_B1_day3,2022.2.4,MacIntel,60.0024001,,,,,,down,0,19.0058,,0.380703125,0.457131076,1,0,0,0,96,96,181,1,toegeven,images/br_toegeven.png,images/cb_toegeven.png,1,toegeven,,,,,,,,,,,,,,,,,,,,,
,,,,,00008,2023-07-26_13h25.49.412,vbt_B1_day3,2022.2.4,MacIntel,60.0024001,,,,,,down,0,1.4353,,0.380703125,0.457131076,1,0,0,0,97,97,149,1,redding,images/br_redding.png,images/cb_redding.png,0,,,,,,,,,,,,,,,,,,,,,,
,,,,,00008,2023-07-26_13h25.49.412,vbt_B1_day3,2022.2.4,MacIntel,60.0024001,,,,,,down,0,0.3849,,0.386297743,0.455525174,1,0,0,0,98,98,112,1,lukken,images/br_lukken.png,images/cb_lukken.png,0,,,,,,,,,,,,,,,,,,,,,,
,,,,,00008,2023-07-26_13h25.49.412,vbt_B1_day3,2022.2.4,MacIntel,60.0024001,,,,,,down,0,1.9861,,0.387803819,0.461970486,1,0,0,0,99,99,150,1,gegeven,images/br_gegeven.png,images/cb_gegeven.png,0,,,,,,,,,,,,,,,,,,,,,,
,,,,,00008,2023-07-26_13h25.49.412,vbt_B1_day3,2022.2.4,MacIntel,60.0024001,,,,,,down,0,1.3844,,0.386927083,0.464960938,1,0,0,0,100,100,0,1,slak,images/br_slak.png,images/cb_slak.png,0,,,,,,,,,,,,,,,,,,,,,,
,,,,,00008,2023-07-26_13h25.49.412,vbt_B1_day3,2022.2.4,MacIntel,60.0024001,,,,,,down,0,1.8762,,0.38718316,0.465993924,1,0,0,0,101,101,39,1,laag,images/br_laag.png,images/cb_laag.png,0,,,,,,,,,,,,,,,,,,,,,,
,,,,,00008,2023-07-26_13h25.49.412,vbt_B1_day3,2022.2.4,MacIntel,60.0024001,,,,,,down,0,2.0436,,0.385950521,0.469934896,1,0,0,0,102,102,108,1,excuus,images/br_excuus.png,images/cb_excuus.png,0,,,,,,,,,,,,,,,,,,,,,,
,,,,,00008,2023-07-26_13h25.49.412,vbt_B1_day3,2022.2.4,MacIntel,60.0024001,,,,,,down,0,1.5999,,0.386966146,0.473194444,1,0,0,0,103,103,35,1,lust,images/br_lust.png,images/cb_lust.png,0,,,,,,,,,,,,,,,,,,,,,,
,,,,,00008,2023-07-26_13h25.49.412,vbt_B1_day3,2022.2.4,MacIntel,60.0024001,,,,,,down,0,0.5861,,0.385481771,0.475998264,1,0,0,0,104,104,94,1,oceaan,images/br_oceaan.png,images/cb_oceaan.png,0,,,,,,,,,,,,,,,,,,,,,,
,,,,,00008,2023-07-26_13h25.49.412,vbt_B1_day3,2022.2.4,MacIntel,60.0024001,,,,,,down,0,24.3626,,0.388797743,0.473350694,1,0,0,0,105,105,142,1,snuiven,images/br_snuiven.png,images/cb_snuiven.png,1,snuiven,,,,,,,,,,,,,,,,,,,,,
,,,,,00008,2023-07-26_13h25.49.412,vbt_B1_day3,2022.2.4,MacIntel,60.0024001,,,,,,down,0,3.9335,,0.388541667,0.473350694,1,0,0,0,106,106,164,1,anarchie,images/br_anarchie.png,images/cb_anarchie.png,0,,,,,,,,,,,,,,,,,,,,,,
,,,,,00008,2023-07-26_13h25.49.412,vbt_B1_day3,2022.2.4,MacIntel,60.0024001,,,,,,down,0,1.5387,,0.395577257,0.466679687,1,0,0,0,107,107,198,1,bedoelen,images/br_bedoelen.png,images/cb_bedoelen.png,0,,,,,,,,,,,,,,,,,,,,,,
,,,,,00008,2023-07-26_13h25.49.412,vbt_B1_day3,2022.2.4,MacIntel,60.0024001,,,,,,down,0,0.6268,,0.39609375,0.467200521,1,0,0,0,108,108,59,1,kring,images/br_kring.png,images/cb_kring.png,0,,,,,,,,,,,,,,,,,,,,,,
,,,,,00008,2023-07-26_13h25.49.412,vbt_B1_day3,2022.2.4,MacIntel,60.0024001,,,,,,down,0,6.6899,,0.395581597,0.467200521,1,0,0,0,109,109,130,1,keihard,images/br_keihard.png,images/cb_keihard.png,0,,,,,,,,,,,,,,,,,,,,,,
,,,,,00008,2023-07-26_13h25.49.412,vbt_B1_day3,2022.2.4,MacIntel,60.0024001,,,,,,down,0,11.3383,,0.395581597,0.467200521,1,0,0,0,110,110,140,1,blijven,images/br_blijven.png,images/cb_blijven.png,1,blijven,,,,,,,,,,,,,,,,,,,,,
,,,,,00008,2023-07-26_13h25.49.412,vbt_B1_day3,2022.2.4,MacIntel,60.0024001,,,,,,down,0,0.0393,,0.395581597,0.467200521,1,0,0,0,111,111,147,1,komisch,images/br_komisch.png,images/cb_komisch.png,0,,,,,,,,,,,,,,,,,,,,,,
,,,,,00008,2023-07-26_13h25.49.412,vbt_B1_day3,2022.2.4,MacIntel,60.0024001,,,,,,down,0,2.2154,,0.390980903,0.468723958,1,0,0,0,112,112,24,1,jurk,images/br_jurk.png,images/cb_jurk.png,0,,,,,,,,,,,,,,,,,,,,,,
,,,,,00008,2023-07-26_13h25.49.412,vbt_B1_day3,2022.2.4,MacIntel,60.0024001,,,,,,down,0,1.141,,0.402947049,0.462690972,1,0,0,0,113,113,187,1,opkijken,images/br_opkijken.png,images/cb_opkijken.png,0,,,,,,,,,,,,,,,,,,,,,,
,,,,,00008,2023-07-26_13h25.49.412,vbt_B1_day3,2022.2.4,MacIntel,60.0024001,,,,,,down,0,2.008,,0.408428819,0.462682292,1,0,0,0,114,114,195,1,middelen,images/br_middelen.png,images/cb_middelen.png,0,,,,,,,,,,,,,,,,,,,,,,
,,,,,00008,2023-07-26_13h25.49.412,vbt_B1_day3,2022.2.4,MacIntel,60.0024001,,,,,,down,0,0.9058,,0.409978299,0.462682292,1,0,0,0,115,115,40,1,schep,images/br_schep.png,images/cb_schep.png,0,,,,,,,,,,,,,,,,,,,,,,
,,,,,00008,2023-07-26_13h25.49.412,vbt_B1_day3,2022.2.4,MacIntel,60.0024001,,,,,,down,0,1.4592,,0.409978299,0.462682292,1,0,0,0,116,116,157,1,uitlaat,images/br_uitlaat.png,images/cb_uitlaat.png,0,,,,,,,,,,,,,,,,,,,,,,
,,,,,00008,2023-07-26_13h25.49.412,vbt_B1_day3,2022.2.4,MacIntel,60.0024001,,,,,,down,0,15.7324,,0.407157118,0.462174479,1,0,0,0,117,117,90,1,geluid,images/br_geluid.png,images/cb_geluid.png,0,,,,,,,,,,,,,,,,,,,,,,
,,,,,00008,2023-07-26_13h25.49.412,vbt_B1_day3,2022.2.4,MacIntel,60.0024001,,,,,,down,0,0.1621,,0.407157118,0.462174479,1,0,0,0,118,118,68,1,schat,images/br_schat.png,images/cb_schat.png,0,,,,,,,,,,,,,,,,,,,,,,
,,,,,00008,2023-07-26_13h25.49.412,vbt_B1_day3,2022.2.4,MacIntel,60.0024001,,,,,,down,0,0.3249,,0.412595486,0.466970486,1,0,0,0,119,119,184,1,aandelen,images/br_aandelen.png,images/cb_aandelen.png,0,,,,,,,,,,,,,,,,,,,,,,
,,,,,00008,2023-07-26_13h25.49.412,vbt_B1_day3,2022.2.4,MacIntel,60.0024001,,,,,,down,0,0.2448,,0.421106771,0.465768229,1,0,0,0,120,120,115,1,kleren,images/br_kleren.png,images/cb_kleren.png,0,,,,,,,,,,,,,,,,,,,,,,
,,,,,00008,2023-07-26_13h25.49.412,vbt_B1_day3,2022.2.4,MacIntel,60.0024001,,,,,,down,0,0.2991,,0.422647569,0.465334201,1,0,0,0,121,121,96,1,slagen,images/br_slagen.png,images/cb_slagen.png,0,,,,,,,,,,,,,,,,,,,,,,
,,,,,00008,2023-07-26_13h25.49.412,vbt_B1_day3,2022.2.4,MacIntel,60.0024001,,,,,,down,0,0.663,,0.420967882,0.468068576,1,0,0,0,122,122,33,1,vlek,images/br_vlek.png,images/cb_vlek.png,0,,,,,,,,,,,,,,,,,,,,,,
,,,,,00008,2023-07-26_13h25.49.412,vbt_B1_day3,2022.2.4,MacIntel,60.0024001,,,,,,down,0,0.1481,,0.424782986,0.465611979,1,0,0,0,123,123,123,1,hiervan,images/br_hiervan.png,images/cb_hiervan.png,0,,,,,,,,,,,,,,,,,,,,,,
,,,,,00008,2023-07-26_13h25.49.412,vbt_B1_day3,2022.2.4,MacIntel,60.0024001,,,,,,down,0,0.294,,0.427595486,0.463697917,1,0,0,0,124,124,193,1,weeshuis,images/br_weeshuis.png,images/cb_weeshuis.png,0,,,,,,,,,,,,,,,,,,,,,,
,,,,,00008,2023-07-26_13h25.49.412,vbt_B1_day3,2022.2.4,MacIntel,60.0024001,,,,,,down,0,2.1018,,0.426614583,0.465039062,1,0,0,0,125,125,169,1,oprotten,images/br_oprotten.png,images/cb_oprotten.png,0,,,,,,,,,,,,,,,,,,,,,,
,,,,,00008,2023-07-26_13h25.49.412,vbt_B1_day3,2022.2.4,MacIntel,60.0024001,,,,,,down,0,2.5022,,0.426085069,0.465828993,1,0,0,0,126,126,188,1,strekken,images/br_strekken.png,images/cb_strekken.png,0,,,,,,,,,,,,,,,,,,,,,,
,,,,,00008,2023-07-26_13h25.49.412,vbt_B1_day3,2022.2.4,MacIntel,60.0024001,,,,,,down,0,17.9317,,0.426085069,0.465828993,1,0,0,0,127,127,23,1,zout,images/br_zout.png,images/cb_zout.png,1,zout,,,,,,,,,,,,,,,,,,,,,
,,,,,00008,2023-07-26_13h25.49.412,vbt_B1_day3,2022.2.4,MacIntel,60.0024001,,,,,,down,0,2.2497,,0.426085069,0.465828993,1,0,0,0,128,128,17,1,taal,images/br_taal.png,images/cb_taal.png,0,,,,,,,,,,,,,,,,,,,,,,
,,,,,00008,2023-07-26_13h25.49.412,vbt_B1_day3,2022.2.4,MacIntel,60.0024001,,,,,,down,0,0.3319,,0.426085069,0.465828993,1,0,0,0,129,129,152,1,afnemen,images/br_afnemen.png,images/cb_afnemen.png,0,,,,,,,,,,,,,,,,,,,,,,
,,,,,00008,2023-07-26_13h25.49.412,vbt_B1_day3,2022.2.4,MacIntel,60.0024001,,,,,,down,0,1.9386,,0.426085069,0.465828993,1,0,0,0,130,130,160,1,daarheen,images/br_daarheen.png,images/cb_daarheen.png,0,,,,,,,,,,,,,,,,,,,,,,
,,,,,00008,2023-07-26_13h25.49.412,vbt_B1_day3,2022.2.4,MacIntel,60.0024001,,,,,,down,0,0.4514,,0.430208333,0.463554688,1,0,0,0,131,131,9,1,hier,images/br_hier.png,images/cb_hier.png,0,,,,,,,,,,,,,,,,,,,,,,
,,,,,00008,2023-07-26_13h25.49.412,vbt_B1_day3,2022.2.4,MacIntel,60.0024001,,,,,,down,0,24.4668,,0.436024306,0.458524306,1,0,0,0,132,132,183,1,getuigen,images/br_getuigen.png,images/cb_getuigen.png,1,getuigen,,,,,,,,,,,,,,,,,,,,,
,,,,,00008,2023-07-26_13h25.49.412,vbt_B1_day3,2022.2.4,MacIntel,60.0024001,,,,,,down,0,0.2997,,0.348185764,0.184796007,1,0,0,0,133,133,52,1,wagon,images/br_wagon.png,images/cb_wagon.png,0,,,,,,,,,,,,,,,,,,,,,,
,,,,,00008,2023-07-26_13h25.49.412,vbt_B1_day3,2022.2.4,MacIntel,60.0024001,,,,,,down,0,0.7341,,0.344739583,0.150251736,1,0,0,0,134,134,12,1,kust,images/br_kust.png,images/cb_kust.png,0,,,,,,,,,,,,,,,,,,,,,,
,,,,,00008,2023-07-26_13h25.49.412,vbt_B1_day3,2022.2.4,MacIntel,60.0024001,,,,,,down,0,1.917,,0.344739583,0.150251736,1,0,0,0,135,135,87,1,toeval,images/br_toeval.png,images/cb_toeval.png,0,,,,,,,,,,,,,,,,,,,,,,
,,,,,00008,2023-07-26_13h25.49.412,vbt_B1_day3,2022.2.4,MacIntel,60.0024001,,,,,,down,0,1.5841,,0.344739583,0.150251736,1,0,0,0,136,136,105,1,wijlen,images/br_wijlen.png,images/cb_wijlen.png,0,,,,,,,,,,,,,,,,,,,,,,
,,,,,00008,2023-07-26_13h25.49.412,vbt_B1_day3,2022.2.4,MacIntel,60.0024001,,,,,,down,0,0.1411,,0.344739583,0.150251736,1,0,0,0,137,137,129,1,verhaal,images/br_verhaal.png,images/cb_verhaal.png,0,,,,,,,,,,,,,,,,,,,,,,
,,,,,00008,2023-07-26_13h25.49.412,vbt_B1_day3,2022.2.4,MacIntel,60.0024001,,,,,,down,0,0.55,,0.344739583,0.150251736,1,0,0,0,138,138,1,1,zaal,images/br_zaal.png,images/cb_zaal.png,0,,,,,,,,,,,,,,,,,,,,,,
,,,,,00008,2023-07-26_13h25.49.412,vbt_B1_day3,2022.2.4,MacIntel,60.0024001,,,,,,down,0,1.5341,,0.344739583,0.150251736,1,0,0,0,139,139,154,1,aflopen,images/br_aflopen.png,images/cb_aflopen.png,0,,,,,,,,,,,,,,,,,,,,,,
,,,,,00008,2023-07-26_13h25.49.412,vbt_B1_day3,2022.2.4,MacIntel,60.0024001,,,,,,down,0,2.3507,,0.344739583,0.150251736,1,0,0,0,140,140,158,1,innemen,images/br_innemen.png,images/cb_innemen.png,0,,,,,,,,,,,,,,,,,,,,,,
,,,,,00008,2023-07-26_13h25.49.412,vbt_B1_day3,2022.2.4,MacIntel,60.0024001,,,,,,down,0,0.3171,,0.344739583,0.150251736,1,0,0,0,141,141,170,1,schatten,images/br_schatten.png,images/cb_schatten.png,0,,,,,,,,,,,,,,,,,,,,,,
,,,,,00008,2023-07-26_13h25.49.412,vbt_B1_day3,2022.2.4,MacIntel,60.0024001,,,,,,down,0,0.5168,,0.344739583,0.150251736,1,0,0,0,142,142,85,1,heilig,images/br_heilig.png,images/cb_heilig.png,0,,,,,,,,,,,,,,,,,,,,,,
,,,,,00008,2023-07-26_13h25.49.412,vbt_B1_day3,2022.2.4,MacIntel,60.0024001,,,,,,down,0,9.9872,,0.344739583,0.150251736,1,0,0,0,143,143,63,1,flirt,images/br_flirt.png,images/cb_flirt.png,1,flirt,,,,,,,,,,,,,,,,,,,,,
,,,,,00008,2023-07-26_13h25.49.412,vbt_B1_day3,2022.2.4,MacIntel,60.0024001,,,,,,down,0,0.9747,,0.32671441,0.130824653,1,0,0,0,144,144,95,1,vreten,images/br_vreten.png,images/cb_vreten.png,0,,,,,,,,,,,,,,,,,,,,,,
,,,,,00008,2023-07-26_13h25.49.412,vbt_B1_day3,2022.2.4,MacIntel,60.0024001,,,,,,down,0,0.7191,,0.326453993,0.131085069,1,0,0,0,145,145,137,1,trekker,images/br_trekker.png,images/cb_trekker.png,0,,,,,,,,,,,,,,,,,,,,,,
,,,,,00008,2023-07-26_13h25.49.412,vbt_B1_day3,2022.2.4,MacIntel,60.0024001,,,,,,down,0,3.5078,,0.32562934,0.140386285,1,0,0,0,146,146,14,1,rijp,images/br_rijp.png,images/cb_rijp.png,0,,,,,,,,,,,,,,,,,,,,,,
,,,,,00008,2023-07-26_13h25.49.412,vbt_B1_day3,2022.2.4,MacIntel,60.0024001,,,,,,down,0,0.7646,,0.326167535,0.140946181,1,0,0,0,147,147,28,1,stal,images/br_stal.png,images/cb_stal.png,0,,,,,,,,,,,,,,,,,,,,,,
,,,,,00008,2023-07-26_13h25.49.412,vbt_B1_day3,2022.2.4,MacIntel,60.0024001,,,,,,down,0,0.2192,,0.325590278,0.141480035,1,0,0,0,148,148,83,1,mening,images/br_mening.png,images/cb_mening.png,0,,,,,,,,,,,,,,,,,,,,,,
,,,,,00008,2023-07-26_13h25.49.412,vbt_B1_day3,2022.2.4,MacIntel,60.0024001,,,,,,down,0,2.8841,,0.326935764,0.145277778,0,0,1,0,149,149,134,1,geliefd,images/br_geliefd.png,images/cb_geliefd.png,0,,,,,,,,,,,,,,,,,,,,,,
,,,,,00008,2023-07-26_13h25.49.412,vbt_B1_day3,2022.2.4,MacIntel,60.0024001,,,,,,down,0,10.7539,,0.327443576,0.146054688,1,0,1,0,150,150,113,1,koppen,images/br_koppen.png,images/cb_koppen.png,0,,,,,,,,,,,,,,,,,,,,,,
,,,,,00008,2023-07-26_13h25.49.412,vbt_B1_day3,2022.2.4,MacIntel,60.0024001,,,,,,down,0,1.0386,,0.322261285,0.155815972,1,0,1,0,151,151,162,1,uitdelen,images/br_uitdelen.png,images/cb_uitdelen.png,0,,,,,,,,,,,,,,,,,,,,,,
,,,,,00008,2023-07-26_13h25.49.412,vbt_B1_day3,2022.2.4,MacIntel,60.0024001,,,,,,down,0,1.7764,,0.322261285,0.155815972,1,0,1,0,152,152,118,1,vinger,images/br_vinger.png,images/cb_vinger.png,0,,,,,,,,,,,,,,,,,,,,,,
,,,,,00008,2023-07-26_13h25.49.412,vbt_B1_day3,2022.2.4,MacIntel,60.0024001,,,,,,down,0,0.0284,,0.322261285,0.155815972,1,0,1,0,153,153,151,1,aanzoek,images/br_aanzoek.png,images/cb_aanzoek.png,0,,,,,,,,,,,,,,,,,,,,,,
,,,,,00008,2023-07-26_13h25.49.412,vbt_B1_day3,2022.2.4,MacIntel,60.0024001,,,,,,down,0,1.7499,,0.326006944,0.16484809,1,0,1,0,154,154,50,1,stoom,images/br_stoom.png,images/cb_stoom.png,0,,,,,,,,,,,,,,,,,,,,,,
,,,,,00008,2023-07-26_13h25.49.412,vbt_B1_day3,2022.2.4,MacIntel,60.0024001,,,,,,down,0,1.6215,,0.328849826,0.169049479,1,0,1,0,155,155,128,1,prikken,images/br_prikken.png,images/cb_prikken.png,0,,,,,,,,,,,,,,,,,,,,,,
,,,,,00008,2023-07-26_13h25.49.412,vbt_B1_day3,2022.2.4,MacIntel,60.0024001,,,,,,down,0,1.6996,,0.328849826,0.169309896,1,0,1,0,156,156,54,1,gebit,images/br_gebit.png,images/cb_gebit.png,0,,,,,,,,,,,,,,,,,,,,,,
,,,,,00008,2023-07-26_13h25.49.412,vbt_B1_day3,2022.2.4,MacIntel,60.0024001,,,,,,down,0,3.1709,,0.303858507,0.193051215,1,0,1,0,157,157,92,1,geheim,images/br_geheim.png,images/cb_geheim.png,0,,,,,,,,,,,,,,,,,,,,,,
,,,,,00008,2023-07-26_13h25.49.412,vbt_B1_day3,2022.2.4,MacIntel,60.0024001,,,,,,down,0,1.3917,,0.303858507,0.193051215,1,0,1,0,158,158,97,1,loyaal,images/br_loyaal.png,images/cb_loyaal.png,0,,,,,,,,,,,,,,,,,,,,,,
,,,,,00008,2023-07-26_13h25.49.412,vbt_B1_day3,2022.2.4,MacIntel,60.0024001,,,,,,down,0,0.4383,,0.307730035,0.199127604,1,0,1,0,159,159,122,1,waarvan,images/br_waarvan.png,images/cb_waarvan.png,0,,,,,,,,,,,,,,,,,,,,,,
,,,,,00008,2023-07-26_13h25.49.412,vbt_B1_day3,2022.2.4,MacIntel,60.0024001,,,,,,down,0,1.4294,,0.325039062,0.203836806,1,0,1,0,160,160,199,1,beseffen,images/br_beseffen.png,images/cb_beseffen.png,0,,,,,,,,,,,,,,,,,,,,,,
,,,,,00008,2023-07-26_13h25.49.412,vbt_B1_day3,2022.2.4,MacIntel,60.0024001,,,,,,down,0,5.5382,,0.325039062,0.203836806,1,0,1,0,161,161,11,1,mode,images/br_mode.png,images/cb_mode.png,0,,,,,,,,,,,,,,,,,,,,,,
,,,,,00008,2023-07-26_13h25.49.412,vbt_B1_day3,2022.2.4,MacIntel,60.0024001,,,,,,down,0,6.8061,,0.325039062,0.203836806,1,0,1,0,162,162,190,1,goedkoop,images/br_goedkoop.png,images/cb_goedkoop.png,0,,,,,,,,,,,,,,,,,,,,,,
,,,,,00008,2023-07-26_13h25.49.412,vbt_B1_day3,2022.2.4,MacIntel,60.0024001,,,,,,down,0,0.3145,,0.326970486,0.222378472,1,0,1,0,163,163,4,1,moes,images/br_moes.png,images/cb_moes.png,0,,,,,,,,,,,,,,,,,,,,,,
,,,,,00008,2023-07-26_13h25.49.412,vbt_B1_day3,2022.2.4,MacIntel,60.0024001,,,,,,down,0,6.2432,,0.330642361,0.217699653,1,0,1,0,164,164,102,1,legaal,images/br_legaal.png,images/cb_legaal.png,1,legaal,,,,,,,,,,,,,,,,,,,,,
,,,,,00008,2023-07-26_13h25.49.412,vbt_B1_day3,2022.2.4,MacIntel,60.0024001,,,,,,down,0,1.6577,,0.344344618,0.224700521,1,0,1,0,165,165,43,1,klauw,images/br_klauw.png,images/cb_klauw.png,0,,,,,,,,,,,,,,,,,,,,,,
,,,,,00008,2023-07-26_13h25.49.412,vbt_B1_day3,2022.2.4,MacIntel,60.0024001,,,,,,down,0,3.1918,,0.324787326,0.194240451,1,0,1,0,166,166,77,1,woede,images/br_woede.png,images/cb_woede.png,0,,,,,,,,,,,,,,,,,,,,,,
,,,,,00008,2023-07-26_13h25.49.412,vbt_B1_day3,2022.2.4,MacIntel,60.0024001,,,,,,down,0,8.5232,,0.324787326,0.195026042,1,0,1,0,167,167,180,1,openbaar,images/br_openbaar.png,images/cb_openbaar.png,1,openbaar,,,,,,,,,,,,,,,,,,,,,
,,,,,00008,2023-07-26_13h25.49.412,vbt_B1_day3,2022.2.4,MacIntel,60.0024001,,,,,,down,0,0.5598,,0.324787326,0.195026042,1,0,1,0,168,168,10,1,leek,images/br_leek.png,images/cb_leek.png,0,,,,,,,,,,,,,,,,,,,,,,
,,,,,00008,2023-07-26_13h25.49.412,vbt_B1_day3,2022.2.4,MacIntel,60.0024001,,,,,,down,0,1.6263,,0.326076389,0.195286458,1,0,1,0,169,169,53,1,baron,images/br_baron.png,images/cb_baron.png,0,,,,,,,,,,,,,,,,,,,,,,
,,,,,00008,2023-07-26_13h25.49.412,vbt_B1_day3,2022.2.4,MacIntel,60.0024001,,,,,,down,0,5.5831,,0.326076389,0.195286458,1,0,1,0,170,170,67,1,zwart,images/br_zwart.png,images/cb_zwart.png,0,,,,,,,,,,,,,,,,,,,,,,
,,,,,00008,2023-07-26_13h25.49.412,vbt_B1_day3,2022.2.4,MacIntel,60.0024001,,,,,,down,0,2.3446,,0.327387153,0.197113715,1,0,1,0,171,171,119,1,liefje,images/br_liefje.png,images/cb_liefje.png,0,,,,,,,,,,,,,,,,,,,,,,
,,,,,00008,2023-07-26_13h25.49.412,vbt_B1_day3,2022.2.4,MacIntel,60.0024001,,,,,,down,0,1.0999,,0.325811632,0.199505208,1,0,1,0,172,172,124,1,bloeien,images/br_bloeien.png,images/cb_bloeien.png,0,,,,,,,,,,,,,,,,,,,,,,
,,,,,00008,2023-07-26_13h25.49.412,vbt_B1_day3,2022.2.4,MacIntel,60.0024001,,,,,,down,0,0.4424,,0.32578559,0.200798611,1,0,1,0,173,173,3,1,mand,images/br_mand.png,images/cb_mand.png,0,,,,,,,,,,,,,,,,,,,,,,
,,,,,00008,2023-07-26_13h25.49.412,vbt_B1_day3,2022.2.4,MacIntel,60.0024001,,,,,,down,0,0.8314,,0.324131944,0.201605903,1,0,1,0,174,174,110,1,zuster,images/br_zuster.png,images/cb_zuster.png,0,,,,,,,,,,,,,,,,,,,,,,
,,,,,00008,2023-07-26_13h25.49.412,vbt_B1_day3,2022.2.4,MacIntel,60.0024001,,,,,,down,0,6.6516,,0.32812066,0.201263021,1,0,1,0,175,175,141,1,knielen,images/br_knielen.png,images/cb_knielen.png,1,knielen,,,,,,,,,,,,,,,,,,,,,
,,,,,00008,2023-07-26_13h25.49.412,vbt_B1_day3,2022.2.4,MacIntel,60.0024001,,,,,,down,0,1.0638,,0.328667535,0.200490451,1,0,1,0,176,176,197,1,spanning,images/br_spanning.png,images/cb_spanning.png,0,,,,,,,,,,,,,,,,,,,,,,
,,,,,00008,2023-07-26_13h25.49.412,vbt_B1_day3,2022.2.4,MacIntel,60.0024001,,,,,,down,0,5.7729,,0.328667535,0.200490451,1,0,1,0,177,177,69,1,waken,images/br_waken.png,images/cb_waken.png,0,,,,,,,,,,,,,,,,,,,,,,
,,,,,00008,2023-07-26_13h25.49.412,vbt_B1_day3,2022.2.4,MacIntel,60.0024001,,,,,,down,0,1.4035,,0.33077691,0.200169271,1,0,1,0,178,178,38,1,baai,images/br_baai.png,images/cb_baai.png,0,,,,,,,,,,,,,,,,,,,,,,
,,,,,00008,2023-07-26_13h25.49.412,vbt_B1_day3,2022.2.4,MacIntel,60.0024001,,,,,,down,0,0.818,,0.333415799,0.211662326,1,0,1,0,179,179,29,1,baas,images/br_baas.png,images/cb_baas.png,0,,,,,,,,,,,,,,,,,,,,,,
,,,,,00008,2023-07-26_13h25.49.412,vbt_B1_day3,2022.2.4,MacIntel,60.0024001,,,,,,down,0,3.6679,,0.335342882,0.217322049,1,0,1,0,180,180,16,1,ziek,images/br_ziek.png,images/cb_ziek.png,0,,,,,,,,,,,,,,,,,,,,,,
,,,,,00008,2023-07-26_13h25.49.412,vbt_B1_day3,2022.2.4,MacIntel,60.0024001,,,,,,down,0,1.9494,,0.33422309,0.217625868,1,0,1,0,181,181,173,1,apparaat,images/br_apparaat.png,images/cb_apparaat.png,0,,,,,,,,,,,,,,,,,,,,,,
,,,,,00008,2023-07-26_13h25.49.412,vbt_B1_day3,2022.2.4,MacIntel,60.0024001,,,,,,down,0,6.1984,,0.334761285,0.232912326,1,0,1,0,182,182,104,1,zweven,images/br_zweven.png,images/cb_zweven.png,0,,,,,,,,,,,,,,,,,,,,,,
,,,,,00008,2023-07-26_13h25.49.412,vbt_B1_day3,2022.2.4,MacIntel,60.0024001,,,,,,down,0,0.52,,0.3378125,0.227148437,1,0,1,0,183,183,13,1,kaal,images/br_kaal.png,images/cb_kaal.png,0,,,,,,,,,,,,,,,,,,,,,,
,,,,,00008,2023-07-26_13h25.49.412,vbt_B1_day3,2022.2.4,MacIntel,60.0024001,,,,,,down,0,10.9164,,0.3378125,0.227148437,1,0,1,0,184,184,103,1,joggen,images/br_joggen.png,images/cb_joggen.png,1,joggen,,,,,,,,,,,,,,,,,,,,,
,,,,,00008,2023-07-26_13h25.49.412,vbt_B1_day3,2022.2.4,MacIntel,60.0024001,,,,,,down,0,0.8174,,0.3378125,0.227148437,1,0,1,0,185,185,192,1,schaamte,images/br_schaamte.png,images/cb_schaamte.png,0,,,,,,,,,,,,,,,,,,,,,,
,,,,,00008,2023-07-26_13h25.49.412,vbt_B1_day3,2022.2.4,MacIntel,60.0024001,,,,,,down,0,0.967,,0.3378125,0.227148437,1,0,1,0,186,186,93,1,waarop,images/br_waarop.png,images/cb_waarop.png,0,,,,,,,,,,,,,,,,,,,,,,
,,,,,00008,2023-07-26_13h25.49.412,vbt_B1_day3,2022.2.4,MacIntel,60.0024001,,,,,,down,0,1.0674,,0.3378125,0.227148437,1,0,1,0,187,187,127,1,doodmoe,images/br_doodmoe.png,images/cb_doodmoe.png,0,,,,,,,,,,,,,,,,,,,,,,
,,,,,00008,2023-07-26_13h25.49.412,vbt_B1_day3,2022.2.4,MacIntel,60.0024001,,,,,,down,0,5.8666,,0.3378125,0.227148437,1,0,1,0,188,188,145,1,invloed,images/br_invloed.png,images/cb_invloed.png,0,,,,,,,,,,,,,,,,,,,,,,
,,,,,00008,2023-07-26_13h25.49.412,vbt_B1_day3,2022.2.4,MacIntel,60.0024001,,,,,,down,0,1.4005,,0.3378125,0.227148437,1,0,1,0,189,189,70,1,ijdel,images/br_ijdel.png,images/cb_ijdel.png,0,,,,,,,,,,,,,,,,,,,,,,
,,,,,00008,2023-07-26_13h25.49.412,vbt_B1_day3,2022.2.4,MacIntel,60.0024001,,,,,,down,0,0.6656,,0.3378125,0.226896701,1,0,1,0,190,190,57,1,steek,images/br_steek.png,images/cb_steek.png,0,,,,,,,,,,,,,,,,,,,,,,
,,,,,00008,2023-07-26_13h25.49.412,vbt_B1_day3,2022.2.4,MacIntel,60.0024001,,,,,,down,0,0.2822,,0.3378125,0.226644965,1,0,1,0,191,191,75,1,snoep,images/br_snoep.png,images/cb_snoep.png,0,,,,,,,,,,,,,,,,,,,,,,
,,,,,00008,2023-07-26_13h25.49.412,vbt_B1_day3,2022.2.4,MacIntel,60.0024001,,,,,,down,0,6.0197,,0.3378125,0.226644965,1,0,1,0,192,192,101,1,staren,images/br_staren.png,images/cb_staren.png,1,staren,,,,,,,,,,,,,,,,,,,,,
,,,,,00008,2023-07-26_13h25.49.412,vbt_B1_day3,2022.2.4,MacIntel,60.0024001,,,,,,down,0,2.6162,,0.335368924,0.229644097,1,0,1,0,193,193,155,1,gerucht,images/br_gerucht.png,images/cb_gerucht.png,0,,,,,,,,,,,,,,,,,,,,,,
,,,,,00008,2023-07-26_13h25.49.412,vbt_B1_day3,2022.2.4,MacIntel,60.0024001,,,,,,down,0,2.8673,,0.335368924,0.229127604,1,0,1,0,194,194,25,1,plek,images/br_plek.png,images/cb_plek.png,0,,,,,,,,,,,,,,,,,,,,,,
,,,,,00008,2023-07-26_13h25.49.412,vbt_B1_day3,2022.2.4,MacIntel,60.0024001,,,,,,down,0,1.7191,,0.335368924,0.229127604,1,0,1,0,195,195,89,1,slapen,images/br_slapen.png,images/cb_slapen.png,0,,,,,,,,,,,,,,,,,,,,,,
,,,,,00008,2023-07-26_13h25.49.412,vbt_B1_day3,2022.2.4,MacIntel,60.0024001,,,,,,down,0,2.0558,,0.3396875,0.223715278,1,0,1,0,196,196,174,1,stemming,images/br_stemming.png,images/cb_stemming.png,0,,,,,,,,,,,,,,,,,,,,,,
,,,,,00008,2023-07-26_13h25.49.412,vbt_B1_day3,2022.2.4,MacIntel,60.0024001,,,,,,down,0,1.6137,,0.296597222,0.149991319,1,0,1,0,197,197,109,1,totaal,images/br_totaal.png,images/cb_totaal.png,0,,,,,,,,,,,,,,,,,,,,,,
,,,,,00008,2023-07-26_13h25.49.412,vbt_B1_day3,2022.2.4,MacIntel,60.0024001,,,,,,down,0,3.4475,,0.303650174,0.144570312,1,0,1,0,198,198,72,1,strak,images/br_strak.png,images/cb_strak.png,0,,,,,,,,,,,,,,,,,,,,,,
,,,,,00008,2023-07-26_13h25.49.412,vbt_B1_day3,2022.2.4,MacIntel,60.0024001,,,,,,down,0,0.9268,,0.304162326,0.143177083,1,0,1,0,199,199,7,1,geld,images/br_geld.png,images/cb_geld.png,0,,,,,,,,,,,,,,,,,,,,,,
,,,,,00008,2023-07-26_13h25.49.412,vbt_B1_day3,2022.2.4,MacIntel,60.0024001,,,,,,,,,,,,,,,,,,,,,,,,,0.304162326,0.143177083,0,0,1,,,,,,,,,,,,,,,,
,,,,,00008,2023-07-26_13h25.49.412,vbt_B1_day3,2022.2.4,MacIntel,60.0024001,,,,,,,,,,,,,,,,,,,,,,,,,,,,,,0.304162326,0.143697917,1,0,1,,,,,,,,,,,
,,,,,00008,2023-07-26_13h25.49.412,vbt_B1_day3,2022.2.4,MacIntel,60.0024001,,,,,,,,,,,,,,,,,,,,boeien,images/br_boeien.png,images/cb_boeien.png,,boeien,,,,,,,,,,,0.308407118,0.143667535,1,0,1,boeien,0,0,0,8,1
,,,,,00008,2023-07-26_13h25.49.412,vbt_B1_day3,2022.2.4,MacIntel,60.0024001,,,,,,,,,,,,,,,,,,,,verraden,images/br_verraden.png,images/cb_verraden.png,,veaar..,,,,,,,,,,,0.209457465,-0.15516059,1,0,1,veaar..,0,1,1,58,1
,,,,,00008,2023-07-26_13h25.49.412,vbt_B1_day3,2022.2.4,MacIntel,60.0024001,,,,,,,,,,,,,,,,,,,,zone,images/br_zone.png,images/cb_zone.png,,z...,,,,,,,,,,,0.209457465,-0.15516059,1,0,1,z...,0,2,2,41,1
,,,,,00008,2023-07-26_13h25.49.412,vbt_B1_day3,2022.2.4,MacIntel,60.0024001,,,,,,,,,,,,,,,,,,,,croo,images/br_croo.png,images/cb_croo.png,,croo,,,,,,,,,,,0.209457465,-0.15516059,1,0,1,croo,0,3,3,22,1
,,,,,00008,2023-07-26_13h25.49.412,vbt_B1_day3,2022.2.4,MacIntel,60.0024001,,,,,,,,,,,,,,,,,,,,prikken,images/br_prikken.png,images/cb_prikken.png,,prikken,,,,,,,,,,,0.209457465,-0.15516059,1,0,1,prikken,0,4,4,12,1
,,,,,00008,2023-07-26_13h25.49.412,vbt_B1_day3,2022.2.4,MacIntel,60.0024001,,,,,,,,,,,,,,,,,,,,stoom,images/br_stoom.png,images/cb_stoom.png,,stoom,,,,,,,,,,,0.209457465,-0.15516059,1,0,1,stoom,0,5,5,6,1
,,,,,00008,2023-07-26_13h25.49.412,vbt_B1_day3,2022.2.4,MacIntel,60.0024001,,,,,,,,,,,,,,,,,,,,brappen,images/br_brappen.png,images/cb_brappen.png,,brappen,,,,,,,,,,,0.209457465,-0.15516059,1,0,1,brappen,0,6,6,35,1
,,,,,00008,2023-07-26_13h25.49.412,vbt_B1_day3,2022.2.4,MacIntel,60.0024001,,,,,,,,,,,,,,,,,,,,laken,images/br_laken.png,images/cb_laken.png,,laken,,,,,,,,,,,0.209457465,-0.15516059,1,0,1,laken,0,7,7,5,1
,,,,,00008,2023-07-26_13h25.49.412,vbt_B1_day3,2022.2.4,MacIntel,60.0024001,,,,,,,,,,,,,,,,,,,,beslag,images/br_beslag.png,images/cb_beslag.png,,bestel,,,,,,,,,,,0.209457465,-0.15516059,1,0,1,bestel,0,8,8,51,1
,,,,,00008,2023-07-26_13h25.49.412,vbt_B1_day3,2022.2.4,MacIntel,60.0024001,,,,,,,,,,,,,,,,,,,,uviek,images/br_uviek.png,images/cb_uviek.png,,uvei,,,,,,,,,,,0.209457465,-0.15516059,1,0,1,uvei,0,9,9,25,1
,,,,,00008,2023-07-26_13h25.49.412,vbt_B1_day3,2022.2.4,MacIntel,60.0024001,,,,,,,,,,,,,,,,,,,,glijden,images/br_glijden.png,images/cb_glijden.png,,gli..n,,,,,,,,,,,0.209201389,-0.153706597,1,0,1,gli..n,0,10,10,53,1
,,,,,00008,2023-07-26_13h25.49.412,vbt_B1_day3,2022.2.4,MacIntel,60.0024001,,,,,,,,,,,,,,,,,,,,twaaf,images/br_twaaf.png,images/cb_twaaf.png,,twijfel,,,,,,,,,,,0.209201389,-0.153706597,1,0,1,twijfel,0,11,11,24,1
,,,,,00008,2023-07-26_13h25.49.412,vbt_B1_day3,2022.2.4,MacIntel,60.0024001,,,,,,,,,,,,,,,,,,,,knie,images/br_knie.png,images/cb_knie.png,,knei,,,,,,,,,,,0.209201389,-0.153706597,1,0,1,knei,0,12,12,0,1
,,,,,00008,2023-07-26_13h25.49.412,vbt_B1_day3,2022.2.4,MacIntel,60.0024001,,,,,,,,,,,,,,,,,,,,verwoor,images/br_verwoor.png,images/cb_verwoor.png,,verw...,,,,,,,,,,,0.209201389,-0.153706597,1,0,1,verw...,0,13,13,32,1
,,,,,00008,2023-07-26_13h25.49.412,vbt_B1_day3,2022.2.4,MacIntel,60.0024001,,,,,,,,,,,,,,,,,,,,sultan,images/br_sultan.png,images/cb_sultan.png,,sul...,,,,,,,,,,,0.209201389,-0.153706597,1,0,1,sul...,0,14,14,49,1
,,,,,00008,2023-07-26_13h25.49.412,vbt_B1_day3,2022.2.4,MacIntel,60.0024001,,,,,,,,,,,,,,,,,,,,makieren,images/br_makieren.png,images/cb_makieren.png,,mak....,,,,,,,,,,,0.209201389,-0.153706597,1,0,1,mak....,0,15,15,36,1
,,,,,00008,2023-07-26_13h25.49.412,vbt_B1_day3,2022.2.4,MacIntel,60.0024001,,,,,,,,,,,,,,,,,,,,mode,images/br_mode.png,images/cb_mode.png,,mode,,,,,,,,,,,0.209201389,-0.153706597,1,0,1,mode,0,16,16,3,1
,,,,,00008,2023-07-26_13h25.49.412,vbt_B1_day3,2022.2.4,MacIntel,60.0024001,,,,,,,,,,,,,,,,,,,,opzetten,images/br_opzetten.png,images/cb_opzetten.png,,oprotten,,,,,,,,,,,0.209201389,-0.153706597,1,0,1,oprotten,0,17,17,56,1
,,,,,00008,2023-07-26_13h25.49.412,vbt_B1_day3,2022.2.4,MacIntel,60.0024001,,,,,,,,,,,,,,,,,,,,slapen,images/br_slapen.png,images/cb_slapen.png,,slapen,,,,,,,,,,,0.209201389,-0.153706597,1,0,1,slapen,0,18,18,9,1
,,,,,00008,2023-07-26_13h25.49.412,vbt_B1_day3,2022.2.4,MacIntel,60.0024001,,,,,,,,,,,,,,,,,,,,begrip,images/br_begrip.png,images/cb_begrip.png,,begaap,,,,,,,,,,,0.209201389,-0.153706597,1,0,1,begaap,0,19,19,48,1
,,,,,00008,2023-07-26_13h25.49.412,vbt_B1_day3,2022.2.4,MacIntel,60.0024001,,,,,,,,,,,,,,,,,,,,afbopen,images/br_afbopen.png,images/cb_afbopen.png,,afgieten,,,,,,,,,,,0.209201389,-0.153706597,1,0,1,afgieten,0,20,20,34,1
,,,,,00008,2023-07-26_13h25.49.412,vbt_B1_day3,2022.2.4,MacIntel,60.0024001,,,,,,,,,,,,,,,,,,,,aarzelen,images/br_aarzelen.png,images/cb_aarzelen.png,,aar.....,,,,,,,,,,,0.209201389,-0.153706597,1,0,1,aar.....,0,21,21,19,1
,,,,,00008,2023-07-26_13h25.49.412,vbt_B1_day3,2022.2.4,MacIntel,60.0024001,,,,,,,,,,,,,,,,,,,,gebod,images/br_gebod.png,images/cb_gebod.png,,gebod,,,,,,,,,,,0.209201389,-0.153706597,1,0,1,gebod,0,22,22,45,1
,,,,,00008,2023-07-26_13h25.49.412,vbt_B1_day3,2022.2.4,MacIntel,60.0024001,,,,,,,,,,,,,,,,,,,,dwang,images/br_dwang.png,images/cb_dwang.png,,donker,,,,,,,,,,,0.207452257,-0.156206597,1,0,1,donker,0,23,23,47,1
,,,,,00008,2023-07-26_13h25.49.412,vbt_B1_day3,2022.2.4,MacIntel,60.0024001,,,,,,,,,,,,,,,,,,,,bisschop,images/br_bisschop.png,images/cb_bisschop.png,,bisschop,,,,,,,,,,,0.207452257,-0.156206597,1,0,1,bisschop,0,24,24,16,1
,,,,,00008,2023-07-26_13h25.49.412,vbt_B1_day3,2022.2.4,MacIntel,60.0024001,,,,,,,,,,,,,,,,,,,,steel,images/br_steel.png,images/cb_steel.png,,steel,,,,,,,,,,,0.207452257,-0.156206597,1,0,1,steel,0,25,25,4,1
,,,,,00008,2023-07-26_13h25.49.412,vbt_B1_day3,2022.2.4,MacIntel,60.0024001,,,,,,,,,,,,,,,,,,,,uniek,images/br_uniek.png,images/cb_uniek.png,,steek,,,,,,,,,,,0.207452257,-0.156206597,1,0,1,steek,0,26,26,46,1
,,,,,00008,2023-07-26_13h25.49.412,vbt_B1_day3,2022.2.4,MacIntel,60.0024001,,,,,,,,,,,,,,,,,,,,geluid,images/br_geluid.png,images/cb_geluid.png,,gel.in,,,,,,,,,,,0.226796875,-0.163311632,1,0,1,gel.in,0,27,27,10,1
,,,,,00008,2023-07-26_13h25.49.412,vbt_B1_day3,2022.2.4,MacIntel,60.0024001,,,,,,,,,,,,,,,,,,,,paken,images/br_paken.png,images/cb_paken.png,,paken,,,,,,,,,,,0.226519097,-0.1646875,1,0,1,paken,0,28,28,27,1
,,,,,00008,2023-07-26_13h25.49.412,vbt_B1_day3,2022.2.4,MacIntel,60.0024001,,,,,,,,,,,,,,,,,,,,gout,images/br_gout.png,images/cb_gout.png,,gout,,,,,,,,,,,0.226519097,-0.1646875,1,0,1,gout,0,29,29,20,1
,,,,,00008,2023-07-26_13h25.49.412,vbt_B1_day3,2022.2.4,MacIntel,60.0024001,,,,,,,,,,,,,,,,,,,,hust,images/br_hust.png,images/cb_hust.png,,..st,,,,,,,,,,,0.226519097,-0.1646875,1,0,1,..st,0,30,30,23,1
,,,,,00008,2023-07-26_13h25.49.412,vbt_B1_day3,2022.2.4,MacIntel,60.0024001,,,,,,,,,,,,,,,,,,,,eens,images/br_eens.png,images/cb_eens.png,,eens,,,,,,,,,,,0.226519097,-0.1646875,1,0,1,eens,0,31,31,40,1
,,,,,00008,2023-07-26_13h25.49.412,vbt_B1_day3,2022.2.4,MacIntel,60.0024001,,,,,,,,,,,,,,,,,,,,verhaal,images/br_verhaal.png,images/cb_verhaal.png,,.er....,,,,,,,,,,,0.226519097,-0.1646875,1,0,1,.er....,0,32,32,13,1
,,,,,00008,2023-07-26_13h25.49.412,vbt_B1_day3,2022.2.4,MacIntel,60.0024001,,,,,,,,,,,,,,,,,,,,gezond,images/br_gezond.png,images/cb_gezond.png,,ge.o...,,,,,,,,,,,0.226519097,-0.1646875,1,0,1,ge.o...,0,33,33,11,1
,,,,,00008,2023-07-26_13h25.49.412,vbt_B1_day3,2022.2.4,MacIntel,60.0024001,,,,,,,,,,,,,,,,,,,,samen,images/br_samen.png,images/cb_samen.png,,samen,,,,,,,,,,,0.226519097,-0.1646875,1,0,1,samen,0,34,34,7,1
,,,,,00008,2023-07-26_13h25.49.412,vbt_B1_day3,2022.2.4,MacIntel,60.0024001,,,,,,,,,,,,,,,,,,,,oprotten,images/br_oprotten.png,images/cb_oprotten.png,,oprotten,,,,,,,,,,,0.226519097,-0.1646875,1,0,1,oprotten,0,35,35,17,1
,,,,,00008,2023-07-26_13h25.49.412,vbt_B1_day3,2022.2.4,MacIntel,60.0024001,,,,,,,,,,,,,,,,,,,,booien,images/br_booien.png,images/cb_booien.png,,booien,,,,,,,,,,,0.226519097,-0.160737847,1,0,1,booien,0,36,36,31,1
,,,,,00008,2023-07-26_13h25.49.412,vbt_B1_day3,2022.2.4,MacIntel,60.0024001,,,,,,,,,,,,,,,,,,,,opzicht,images/br_opzicht.png,images/cb_opzicht.png,,op.ec...,,,,,,,,,,,0.226519097,-0.160737847,1,0,1,op.ec...,0,37,37,15,1
,,,,,00008,2023-07-26_13h25.49.412,vbt_B1_day3,2022.2.4,MacIntel,60.0024001,,,,,,,,,,,,,,,,,,,,onrecht,images/br_onrecht.png,images/cb_onrecht.png,,......,,,,,,,,,,,0.226519097,-0.160737847,1,0,1,......,0,38,38,55,1
,,,,,00008,2023-07-26_13h25.49.412,vbt_B1_day3,2022.2.4,MacIntel,60.0024001,,,,,,,,,,,,,,,,,,,,hier,images/br_hier.png,images/cb_hier.png,,.eir,,,,,,,,,,,0.226519097,-0.160737847,1,0,1,.eir,0,39,39,1,1
,,,,,00008,2023-07-26_13h25.49.412,vbt_B1_day3,2022.2.4,MacIntel,60.0024001,,,,,,,,,,,,,,,,,,,,alsof,images/br_alsof.png,images/cb_alsof.png,,alstof,,,,,,,,,,,0.226519097,-0.160737847,1,0,1,alstof,0,40,40,44,1
,,,,,00008,2023-07-26_13h25.49.412,vbt_B1_day3,2022.2.4,MacIntel,60.0024001,,,,,,,,,,,,,,,,,,,,keihard,images/br_keihard.png,images/cb_keihard.png,,keif...,,,,,,,,,,,0.226519097,-0.160737847,1,0,1,keif...,0,41,41,14,1
,,,,,00008,2023-07-26_13h25.49.412,vbt_B1_day3,2022.2.4,MacIntel,60.0024001,,,,,,,,,,,,,,,,,,,,invallen,images/br_invallen.png,images/cb_invallen.png,,....lein,,,,,,,,,,,0.226519097,-0.160737847,1,0,1,....lein,0,42,42,57,1
,,,,,00008,2023-07-26_13h25.49.412,vbt_B1_day3,2022.2.4,MacIntel,60.0024001,,,,,,,,,,,,,,,,,,,,sluier,images/br_sluier.png,images/cb_sluier.png,,slueir,,,,,,,,,,,0.226519097,-0.160737847,1,0,1,slueir,0,43,43,50,1
,,,,,00008,2023-07-26_13h25.49.412,vbt_B1_day3,2022.2.4,MacIntel,60.0024001,,,,,,,,,,,,,,,,,,,,schatten,images/br_schatten.png,images/cb_schatten.png,,sc....,,,,,,,,,,,0.226519097,-0.160737847,1,0,1,sc....,0,44,44,18,1
,,,,,00008,2023-07-26_13h25.49.412,vbt_B1_day3,2022.2.4,MacIntel,60.0024001,,,,,,,,,,,,,,,,,,,,leugeren,images/br_leugeren.png,images/cb_leugeren.png,,leugen,,,,,,,,,,,0.226519097,-0.160737847,1,0,1,leugen,0,45,45,37,1
,,,,,00008,2023-07-26_13h25.49.412,vbt_B1_day3,2022.2.4,MacIntel,60.0024001,,,,,,,,,,,,,,,,,,,,mugeek,images/br_mugeek.png,images/cb_mugeek.png,,muge..,,,,,,,,,,,0.226519097,-0.160737847,1,0,1,muge..,0,46,46,29,1
,,,,,00008,2023-07-26_13h25.49.412,vbt_B1_day3,2022.2.4,MacIntel,60.0024001,,,,,,,,,,,,,,,,,,,,schodel,images/br_schodel.png,images/cb_schodel.png,,s....,,,,,,,,,,,0.226519097,-0.160737847,1,0,1,s....,0,47,47,33,1
,,,,,00008,2023-07-26_13h25.49.412,vbt_B1_day3,2022.2.4,MacIntel,60.0024001,,,,,,,,,,,,,,,,,,,,kest,images/br_kest.png,images/cb_kest.png,,kest,,,,,,,,,,,0.222322049,-0.160737847,1,0,1,kest,0,48,48,21,1
,,,,,00008,2023-07-26_13h25.49.412,vbt_B1_day3,2022.2.4,MacIntel,60.0024001,,,,,,,,,,,,,,,,,,,,vlager,images/br_vlager.png,images/cb_vlager.png,,......,,,,,,,,,,,0.222322049,-0.160737847,1,0,1,......,0,49,49,28,1
,,,,,00008,2023-07-26_13h25.49.412,vbt_B1_day3,2022.2.4,MacIntel,60.0024001,,,,,,,,,,,,,,,,,,,,kaas,images/br_kaas.png,images/cb_kaas.png,,kaas,,,,,,,,,,,0.222322049,-0.160737847,1,0,1,kaas,0,50,50,42,1
,,,,,00008,2023-07-26_13h25.49.412,vbt_B1_day3,2022.2.4,MacIntel,60.0024001,,,,,,,,,,,,,,,,,,,,kwaas,images/br_kwaas.png,images/cb_kwaas.png,,kwaas,,,,,,,,,,,0.222322049,-0.160481771,1,0,1,kwaas,0,51,51,26,1
,,,,,00008,2023-07-26_13h25.49.412,vbt_B1_day3,2022.2.4,MacIntel,60.0024001,,,,,,,,,,,,,,,,,,,,stallen,images/br_stallen.png,images/cb_stallen.png,,strallen,,,,,,,,,,,0.222322049,-0.160481771,1,0,1,strallen,0,52,52,52,1
,,,,,00008,2023-07-26_13h25.49.412,vbt_B1_day3,2022.2.4,MacIntel,60.0024001,,,,,,,,,,,,,,,,,,,,leemaken,images/br_leemaken.png,images/cb_leemaken.png,,leema..,,,,,,,,,,,0.222829861,-0.160481771,1,0,1,leema..,0,53,53,39,1
,,,,,00008,2023-07-26_13h25.49.412,vbt_B1_day3,2022.2.4,MacIntel,60.0024001,,,,,,,,,,,,,,,,,,,,jongelui,images/br_jongelui.png,images/cb_jongelui.png,,jong...,,,,,,,,,,,0.220789931,-0.160481771,1,0,1,jong...,0,54,54,59,1
,,,,,00008,2023-07-26_13h25.49.412,vbt_B1_day3,2022.2.4,MacIntel,60.0024001,,,,,,,,,,,,,,,,,,,,bevret,images/br_bevret.png,images/cb_bevret.png,,bev...,,,,,,,,,,,0.220789931,-0.160481771,1,0,1,bev...,0,55,55,30,1
,,,,,00008,2023-07-26_13h25.49.412,vbt_B1_day3,2022.2.4,MacIntel,60.0024001,,,,,,,,,,,,,,,,,,,,theeting,images/br_theeting.png,images/cb_theeting.png,,t......,,,,,,,,,,,0.220789931,-0.160481771,1,0,1,t......,0,56,56,38,1
,,,,,00008,2023-07-26_13h25.49.412,vbt_B1_day3,2022.2.4,MacIntel,60.0024001,,,,,,,,,,,,,,,,,,,,hint,images/br_hint.png,images/cb_hint.png,,.int,,,,,,,,,,,0.221892361,-0.161011285,1,0,1,.int,0,57,57,43,1
,,,,,00008,2023-07-26_13h25.49.412,vbt_B1_day3,2022.2.4,MacIntel,60.0024001,,,,,,,,,,,,,,,,,,,,leek,images/br_leek.png,images/cb_leek.png,,leek,,,,,,,,,,,0.221892361,-0.161011285,1,0,1,leek,0,58,58,2,1
,,,,,00008,2023-07-26_13h25.49.412,vbt_B1_day3,2022.2.4,MacIntel,60.0024001,,,,,,,,,,,,,,,,,,,,stikken,images/br_stikken.png,images/cb_stikken.png,,stikken,,,,,,,,,,,0.221892361,-0.161011285,1,0,1,stikken,0,59,59,54,1
,,,,,00008,2023-07-26_13h25.49.412,vbt_B1_day3,2022.2.4,MacIntel,60.0024001,,,,,,,,,,,,,,,,,,,,,,,,,,,,,,,,,,,,,,,,,,,,,
