welcome_mouse.x,welcome_mouse.y,welcome_mouse.leftButton,welcome_mouse.midButton,welcome_mouse.rightButton,"ID",date,expName,psychopyVersion,OS,frameRate,trainInstr_mouse.x,trainInstr_mouse.y,trainInstr_mouse.leftButton,trainInstr_mouse.midButton,trainInstr_mouse.rightButton,translation_key.keys,translation_key.corr,translation_key.rt,word_rsp.text,trWrd_mouse.x,trWrd_mouse.y,trWrd_mouse.leftButton,trWrd_mouse.midButton,trWrd_mouse.rightButton,train_loop.thisRepN,train_loop.thisTrialN,train_loop.thisN,train_loop.thisIndex,train_loop.ran,nlWrd,brWrd,cbWrd,test,testResp,mouse.x,mouse.y,mouse.leftButton,mouse.midButton,mouse.rightButton,testInstr_mouse.x,testInstr_mouse.y,testInstr_mouse.leftButton,testInstr_mouse.midButton,testInstr_mouse.rightButton,test_mouse.x,test_mouse.y,test_mouse.leftButton,test_mouse.midButton,test_mouse.rightButton,test_response.text,test_loop.thisRepN,test_loop.thisTrialN,test_loop.thisN,test_loop.thisIndex,test_loop.ran
-0.163333333,-0.26,1,0,0,00083,2023-10-25_12h32.51.604,vbt_B1_day3,2022.2.4,MacIntel,125,,,,,,,,,,,,,,,,,,,,,,,,,,,,,,,,,,,,,,,,,,,,,
,,,,,00083,2023-10-25_12h32.51.604,vbt_B1_day3,2022.2.4,MacIntel,125,-0.03,-0.198888889,1,0,0,,,,,,,,,,,,,,,,,,,,,,,,,,,,,,,,,,,,,,,,
,,,,,00083,2023-10-25_12h32.51.604,vbt_B1_day3,2022.2.4,MacIntel,125,,,,,,down,0,2.093,,0.262222222,-0.087777778,1,0,0,0,0,0,25,1,plek,images/br_plek.png,images/cb_plek.png,0,,,,,,,,,,,,,,,,,,,,,,
,,,,,00083,2023-10-25_12h32.51.604,vbt_B1_day3,2022.2.4,MacIntel,125,,,,,,down,0,3.982,,0.254444444,-0.087777778,1,0,0,0,1,1,119,1,liefje,images/br_liefje.png,images/cb_liefje.png,0,,,,,,,,,,,,,,,,,,,,,,
,,,,,00083,2023-10-25_12h32.51.604,vbt_B1_day3,2022.2.4,MacIntel,125,,,,,,down,0,4.22,,0.254444444,-0.087777778,1,0,0,0,2,2,159,1,sufferd,images/br_sufferd.png,images/cb_sufferd.png,0,,,,,,,,,,,,,,,,,,,,,,
,,,,,00083,2023-10-25_12h32.51.604,vbt_B1_day3,2022.2.4,MacIntel,125,,,,,,down,0,0.741,,0.254444444,-0.087777778,1,0,0,0,3,3,47,1,kabel,images/br_kabel.png,images/cb_kabel.png,0,,,,,,,,,,,,,,,,,,,,,,
,,,,,00083,2023-10-25_12h32.51.604,vbt_B1_day3,2022.2.4,MacIntel,125,,,,,,down,0,0.302,,0.254444444,-0.087777778,1,0,0,0,4,4,12,1,kust,images/br_kust.png,images/cb_kust.png,0,,,,,,,,,,,,,,,,,,,,,,
,,,,,00083,2023-10-25_12h32.51.604,vbt_B1_day3,2022.2.4,MacIntel,125,,,,,,down,0,4.036,,0.254444444,-0.087777778,1,0,0,0,5,5,163,1,schuilen,images/br_schuilen.png,images/cb_schuilen.png,0,,,,,,,,,,,,,,,,,,,,,,
,,,,,00083,2023-10-25_12h32.51.604,vbt_B1_day3,2022.2.4,MacIntel,125,,,,,,down,0,1.987,,0.254444444,-0.087777778,1,0,0,0,6,6,95,1,vreten,images/br_vreten.png,images/cb_vreten.png,0,,,,,,,,,,,,,,,,,,,,,,
,,,,,00083,2023-10-25_12h32.51.604,vbt_B1_day3,2022.2.4,MacIntel,125,,,,,,down,0,5.073,,0.254444444,-0.087777778,1,0,0,0,7,7,168,1,bisschop,images/br_bisschop.png,images/cb_bisschop.png,0,,,,,,,,,,,,,,,,,,,,,,
,,,,,00083,2023-10-25_12h32.51.604,vbt_B1_day3,2022.2.4,MacIntel,125,,,,,,down,0,2.685,,0.254444444,-0.087777778,1,0,0,0,8,8,191,1,opheffen,images/br_opheffen.png,images/cb_opheffen.png,0,,,,,,,,,,,,,,,,,,,,,,
,,,,,00083,2023-10-25_12h32.51.604,vbt_B1_day3,2022.2.4,MacIntel,125,,,,,,down,0,2.284,,0.254444444,-0.087777778,1,0,0,0,9,9,153,1,vervoer,images/br_vervoer.png,images/cb_vervoer.png,0,,,,,,,,,,,,,,,,,,,,,,
,,,,,00083,2023-10-25_12h32.51.604,vbt_B1_day3,2022.2.4,MacIntel,125,,,,,,down,0,1.247,,0.254444444,-0.087777778,1,0,0,0,10,10,68,1,schat,images/br_schat.png,images/cb_schat.png,0,,,,,,,,,,,,,,,,,,,,,,
,,,,,00083,2023-10-25_12h32.51.604,vbt_B1_day3,2022.2.4,MacIntel,125,,,,,,down,0,1.425,,0.254444444,-0.087777778,1,0,0,0,11,11,36,1,vuur,images/br_vuur.png,images/cb_vuur.png,0,,,,,,,,,,,,,,,,,,,,,,
,,,,,00083,2023-10-25_12h32.51.604,vbt_B1_day3,2022.2.4,MacIntel,125,,,,,,down,0,3.051,,0.254444444,-0.087777778,1,0,0,0,12,12,61,1,groen,images/br_groen.png,images/cb_groen.png,1,groen,,,,,,,,,,,,,,,,,,,,,
,,,,,00083,2023-10-25_12h32.51.604,vbt_B1_day3,2022.2.4,MacIntel,125,,,,,,down,0,1.204,,0.342222222,-0.047777778,1,0,0,0,13,13,20,1,site,images/br_site.png,images/cb_site.png,1,,,,,,,,,,,,,,,,,,,,,,
,,,,,00083,2023-10-25_12h32.51.604,vbt_B1_day3,2022.2.4,MacIntel,125,,,,,,down,0,4.011,,0.342222222,-0.047777778,1,0,0,0,14,14,123,1,hiervan,images/br_hiervan.png,images/cb_hiervan.png,0,,,,,,,,,,,,,,,,,,,,,,
,,,,,00083,2023-10-25_12h32.51.604,vbt_B1_day3,2022.2.4,MacIntel,125,,,,,,down,0,0.725,,0.342222222,-0.047777778,1,0,0,0,15,15,14,1,rijp,images/br_rijp.png,images/cb_rijp.png,0,,,,,,,,,,,,,,,,,,,,,,
,,,,,00083,2023-10-25_12h32.51.604,vbt_B1_day3,2022.2.4,MacIntel,125,,,,,,down,0,0.416,,0.342222222,-0.047777778,1,0,0,0,16,16,132,1,grappen,images/br_grappen.png,images/cb_grappen.png,0,,,,,,,,,,,,,,,,,,,,,,
,,,,,00083,2023-10-25_12h32.51.604,vbt_B1_day3,2022.2.4,MacIntel,125,,,,,,down,0,2.521,,0.342222222,-0.047777778,1,0,0,0,17,17,196,1,nakijken,images/br_nakijken.png,images/cb_nakijken.png,0,,,,,,,,,,,,,,,,,,,,,,
,,,,,00083,2023-10-25_12h32.51.604,vbt_B1_day3,2022.2.4,MacIntel,125,,,,,,down,0,5.853,,0.342222222,-0.047777778,1,0,0,0,18,18,121,1,twijfel,images/br_twijfel.png,images/cb_twijfel.png,0,,,,,,,,,,,,,,,,,,,,,,
,,,,,00083,2023-10-25_12h32.51.604,vbt_B1_day3,2022.2.4,MacIntel,125,,,,,,down,0,3.606,,0.342222222,-0.052222222,1,0,0,0,19,19,81,1,dubbel,images/br_dubbel.png,images/cb_dubbel.png,0,,,,,,,,,,,,,,,,,,,,,,
,,,,,00083,2023-10-25_12h32.51.604,vbt_B1_day3,2022.2.4,MacIntel,125,,,,,,down,0,2.074,,0.342222222,-0.052222222,1,0,0,0,20,20,18,1,blik,images/br_blik.png,images/cb_blik.png,0,,,,,,,,,,,,,,,,,,,,,,
,,,,,00083,2023-10-25_12h32.51.604,vbt_B1_day3,2022.2.4,MacIntel,125,,,,,,down,0,3.937,,0.342222222,-0.052222222,1,0,0,0,21,21,145,1,invloed,images/br_invloed.png,images/cb_invloed.png,0,,,,,,,,,,,,,,,,,,,,,,
,,,,,00083,2023-10-25_12h32.51.604,vbt_B1_day3,2022.2.4,MacIntel,125,,,,,,down,0,3.818,,0.553333333,0.02,1,0,0,0,22,22,176,1,techniek,images/br_techniek.png,images/cb_techniek.png,0,,,,,,,,,,,,,,,,,,,,,,
,,,,,00083,2023-10-25_12h32.51.604,vbt_B1_day3,2022.2.4,MacIntel,125,,,,,,down,0,6.207,,0.553333333,0.02,1,0,0,0,23,23,174,1,stemming,images/br_stemming.png,images/cb_stemming.png,0,,,,,,,,,,,,,,,,,,,,,,
,,,,,00083,2023-10-25_12h32.51.604,vbt_B1_day3,2022.2.4,MacIntel,125,,,,,,down,0,12.947,,0.553333333,0.02,1,0,0,0,24,24,43,1,klauw,images/br_klauw.png,images/cb_klauw.png,0,,,,,,,,,,,,,,,,,,,,,,
,,,,,00083,2023-10-25_12h32.51.604,vbt_B1_day3,2022.2.4,MacIntel,125,,,,,,down,0,70.691,,0.546666667,0.02,1,0,0,0,25,25,184,1,aandelen,images/br_aandelen.png,images/cb_aandelen.png,0,,,,,,,,,,,,,,,,,,,,,,
,,,,,00083,2023-10-25_12h32.51.604,vbt_B1_day3,2022.2.4,MacIntel,125,,,,,,down,0,0.106,,0.456666667,0.025555556,1,0,0,0,26,26,7,1,geld,images/br_geld.png,images/cb_geld.png,0,,,,,,,,,,,,,,,,,,,,,,
,,,,,00083,2023-10-25_12h32.51.604,vbt_B1_day3,2022.2.4,MacIntel,125,,,,,,down,0,0.79,,0.455555556,0.025555556,1,0,0,0,27,27,112,1,lukken,images/br_lukken.png,images/cb_lukken.png,0,,,,,,,,,,,,,,,,,,,,,,
,,,,,00083,2023-10-25_12h32.51.604,vbt_B1_day3,2022.2.4,MacIntel,125,,,,,,down,0,2.087,,0.455555556,0.025555556,1,0,0,0,28,28,148,1,smullen,images/br_smullen.png,images/cb_smullen.png,0,,,,,,,,,,,,,,,,,,,,,,
,,,,,00083,2023-10-25_12h32.51.604,vbt_B1_day3,2022.2.4,MacIntel,125,,,,,,down,0,2.188,,0.455555556,0.025555556,1,0,0,0,29,29,46,1,jagen,images/br_jagen.png,images/cb_jagen.png,0,,,,,,,,,,,,,,,,,,,,,,
,,,,,00083,2023-10-25_12h32.51.604,vbt_B1_day3,2022.2.4,MacIntel,125,,,,,,down,0,4.424,,0.455555556,0.025555556,1,0,0,0,30,30,32,1,palm,images/br_palm.png,images/cb_palm.png,0,,,,,,,,,,,,,,,,,,,,,,
,,,,,00083,2023-10-25_12h32.51.604,vbt_B1_day3,2022.2.4,MacIntel,125,,,,,,down,0,3.119,,0.455555556,0.025555556,1,0,0,0,31,31,156,1,rechten,images/br_rechten.png,images/cb_rechten.png,0,,,,,,,,,,,,,,,,,,,,,,
,,,,,00083,2023-10-25_12h32.51.604,vbt_B1_day3,2022.2.4,MacIntel,125,,,,,,down,0,10.547,,0.41,-0.042222222,1,0,0,0,32,32,180,1,openbaar,images/br_openbaar.png,images/cb_openbaar.png,1,openbaar,,,,,,,,,,,,,,,,,,,,,
,,,,,00083,2023-10-25_12h32.51.604,vbt_B1_day3,2022.2.4,MacIntel,125,,,,,,down,0,2.771,,0.41,-0.042222222,1,0,0,0,33,33,65,1,parel,images/br_parel.png,images/cb_parel.png,0,,,,,,,,,,,,,,,,,,,,,,
,,,,,00083,2023-10-25_12h32.51.604,vbt_B1_day3,2022.2.4,MacIntel,125,,,,,,down,0,53.354,,0.41,-0.042222222,1,0,0,0,34,34,87,1,toeval,images/br_toeval.png,images/cb_toeval.png,0,,,,,,,,,,,,,,,,,,,,,,
,,,,,00083,2023-10-25_12h32.51.604,vbt_B1_day3,2022.2.4,MacIntel,125,,,,,,down,0,3.486,,0.41,-0.042222222,1,0,0,0,35,35,125,1,aanzien,images/br_aanzien.png,images/cb_aanzien.png,0,,,,,,,,,,,,,,,,,,,,,,
,,,,,00083,2023-10-25_12h32.51.604,vbt_B1_day3,2022.2.4,MacIntel,125,,,,,,down,0,1.166,,0.41,-0.042222222,1,0,0,0,36,36,188,1,strekken,images/br_strekken.png,images/cb_strekken.png,0,,,,,,,,,,,,,,,,,,,,,,
,,,,,00083,2023-10-25_12h32.51.604,vbt_B1_day3,2022.2.4,MacIntel,125,,,,,,down,0,2.164,,0.41,-0.042222222,1,0,0,0,37,37,62,1,knaap,images/br_knaap.png,images/cb_knaap.png,1,knaap,,,,,,,,,,,,,,,,,,,,,
,,,,,00083,2023-10-25_12h32.51.604,vbt_B1_day3,2022.2.4,MacIntel,125,,,,,,down,0,4.85,,0.41,-0.042222222,1,0,0,0,38,38,195,1,middelen,images/br_middelen.png,images/cb_middelen.png,0,,,,,,,,,,,,,,,,,,,,,,
,,,,,00083,2023-10-25_12h32.51.604,vbt_B1_day3,2022.2.4,MacIntel,125,,,,,,down,0,0.733,,0.41,-0.042222222,1,0,0,0,39,39,13,1,kaal,images/br_kaal.png,images/cb_kaal.png,0,,,,,,,,,,,,,,,,,,,,,,
,,,,,00083,2023-10-25_12h32.51.604,vbt_B1_day3,2022.2.4,MacIntel,125,,,,,,down,0,8.226,,0.41,-0.042222222,1,0,0,0,40,40,116,1,besmet,images/br_besmet.png,images/cb_besmet.png,0,,,,,,,,,,,,,,,,,,,,,,
,,,,,00083,2023-10-25_12h32.51.604,vbt_B1_day3,2022.2.4,MacIntel,125,,,,,,down,0,4.765,,0.41,-0.042222222,1,0,0,0,41,41,85,1,heilig,images/br_heilig.png,images/cb_heilig.png,0,,,,,,,,,,,,,,,,,,,,,,
,,,,,00083,2023-10-25_12h32.51.604,vbt_B1_day3,2022.2.4,MacIntel,125,,,,,,down,0,0.181,,0.41,-0.042222222,1,0,0,0,42,42,8,1,knie,images/br_knie.png,images/cb_knie.png,0,,,,,,,,,,,,,,,,,,,,,,
,,,,,00083,2023-10-25_12h32.51.604,vbt_B1_day3,2022.2.4,MacIntel,125,,,,,,down,0,2.423,,0.41,-0.042222222,1,0,0,0,43,43,27,1,dans,images/br_dans.png,images/cb_dans.png,0,,,,,,,,,,,,,,,,,,,,,,
,,,,,00083,2023-10-25_12h32.51.604,vbt_B1_day3,2022.2.4,MacIntel,125,,,,,,down,0,4.431,,0.41,-0.042222222,1,0,0,0,44,44,155,1,gerucht,images/br_gerucht.png,images/cb_gerucht.png,0,,,,,,,,,,,,,,,,,,,,,,
,,,,,00083,2023-10-25_12h32.51.604,vbt_B1_day3,2022.2.4,MacIntel,125,,,,,,down,0,15.665,,0.41,-0.042222222,1,0,0,0,45,45,157,1,uitlaat,images/br_uitlaat.png,images/cb_uitlaat.png,0,,,,,,,,,,,,,,,,,,,,,,
,,,,,00083,2023-10-25_12h32.51.604,vbt_B1_day3,2022.2.4,MacIntel,125,,,,,,down,0,2.552,,0.41,-0.042222222,1,0,0,0,46,46,198,1,bedoelen,images/br_bedoelen.png,images/cb_bedoelen.png,0,,,,,,,,,,,,,,,,,,,,,,
,,,,,00083,2023-10-25_12h32.51.604,vbt_B1_day3,2022.2.4,MacIntel,125,,,,,,down,0,2.25,,0.41,-0.042222222,1,0,0,0,47,47,185,1,mijnheer,images/br_mijnheer.png,images/cb_mijnheer.png,0,,,,,,,,,,,,,,,,,,,,,,
,,,,,00083,2023-10-25_12h32.51.604,vbt_B1_day3,2022.2.4,MacIntel,125,,,,,,down,0,0.522,,0.401111111,-0.042222222,1,0,0,0,48,48,115,1,kleren,images/br_kleren.png,images/cb_kleren.png,0,,,,,,,,,,,,,,,,,,,,,,
,,,,,00083,2023-10-25_12h32.51.604,vbt_B1_day3,2022.2.4,MacIntel,125,,,,,,down,0,3.551,,0.401111111,-0.042222222,1,0,0,0,49,49,3,1,mand,images/br_mand.png,images/cb_mand.png,0,,,,,,,,,,,,,,,,,,,,,,
,,,,,00083,2023-10-25_12h32.51.604,vbt_B1_day3,2022.2.4,MacIntel,125,,,,,,down,0,0.906,,0.401111111,-0.042222222,1,0,0,0,50,50,97,1,loyaal,images/br_loyaal.png,images/cb_loyaal.png,0,,,,,,,,,,,,,,,,,,,,,,
,,,,,00083,2023-10-25_12h32.51.604,vbt_B1_day3,2022.2.4,MacIntel,125,,,,,,down,0,4.048,,0.401111111,-0.042222222,1,0,0,0,51,51,189,1,aanraden,images/br_aanraden.png,images/cb_aanraden.png,0,,,,,,,,,,,,,,,,,,,,,,
,,,,,00083,2023-10-25_12h32.51.604,vbt_B1_day3,2022.2.4,MacIntel,125,,,,,,down,0,2.431,,0.401111111,-0.042222222,1,0,0,0,52,52,105,1,wijlen,images/br_wijlen.png,images/cb_wijlen.png,0,,,,,,,,,,,,,,,,,,,,,,
,,,,,00083,2023-10-25_12h32.51.604,vbt_B1_day3,2022.2.4,MacIntel,125,,,,,,down,0,0.419,,0.401111111,-0.042222222,1,0,0,0,53,53,78,1,leren,images/br_leren.png,images/cb_leren.png,0,,,,,,,,,,,,,,,,,,,,,,
,,,,,00083,2023-10-25_12h32.51.604,vbt_B1_day3,2022.2.4,MacIntel,125,,,,,,down,0,1.767,,0.407777778,-0.042222222,1,0,0,0,54,54,93,1,waarop,images/br_waarop.png,images/cb_waarop.png,0,,,,,,,,,,,,,,,,,,,,,,
,,,,,00083,2023-10-25_12h32.51.604,vbt_B1_day3,2022.2.4,MacIntel,125,,,,,,down,0,1.199,,0.395555556,-0.046666667,1,0,0,0,55,55,51,1,samen,images/br_samen.png,images/cb_samen.png,0,,,,,,,,,,,,,,,,,,,,,,
,,,,,00083,2023-10-25_12h32.51.604,vbt_B1_day3,2022.2.4,MacIntel,125,,,,,,down,0,3.139,,0.395555556,-0.046666667,1,0,0,0,56,56,59,1,kring,images/br_kring.png,images/cb_kring.png,0,,,,,,,,,,,,,,,,,,,,,,
,,,,,00083,2023-10-25_12h32.51.604,vbt_B1_day3,2022.2.4,MacIntel,125,,,,,,down,0,5.886,,0.395555556,-0.046666667,1,0,0,0,57,57,152,1,afnemen,images/br_afnemen.png,images/cb_afnemen.png,0,,,,,,,,,,,,,,,,,,,,,,
,,,,,00083,2023-10-25_12h32.51.604,vbt_B1_day3,2022.2.4,MacIntel,125,,,,,,down,0,4.098,,0.443333333,-0.03,1,0,0,0,58,58,182,1,bijkomen,images/br_bijkomen.png,images/cb_bijkomen.png,1,bijkomen,,,,,,,,,,,,,,,,,,,,,
,,,,,00083,2023-10-25_12h32.51.604,vbt_B1_day3,2022.2.4,MacIntel,125,,,,,,down,0,0.502,,0.443333333,-0.031111111,1,0,0,0,59,59,41,1,maken,images/br_maken.png,images/cb_maken.png,0,,,,,,,,,,,,,,,,,,,,,,
,,,,,00083,2023-10-25_12h32.51.604,vbt_B1_day3,2022.2.4,MacIntel,125,,,,,,down,0,2.698,,0.443333333,-0.031111111,1,0,0,0,60,60,170,1,schatten,images/br_schatten.png,images/cb_schatten.png,0,,,,,,,,,,,,,,,,,,,,,,
,,,,,00083,2023-10-25_12h32.51.604,vbt_B1_day3,2022.2.4,MacIntel,125,,,,,,down,0,1.668,,0.443333333,-0.031111111,1,0,0,0,61,61,70,1,ijdel,images/br_ijdel.png,images/cb_ijdel.png,0,,,,,,,,,,,,,,,,,,,,,,
,,,,,00083,2023-10-25_12h32.51.604,vbt_B1_day3,2022.2.4,MacIntel,125,,,,,,down,0,0.2,,0.443333333,-0.031111111,1,0,0,0,62,62,1,1,zaal,images/br_zaal.png,images/cb_zaal.png,0,,,,,,,,,,,,,,,,,,,,,,
,,,,,00083,2023-10-25_12h32.51.604,vbt_B1_day3,2022.2.4,MacIntel,125,,,,,,down,0,5.534,,0.566666667,0.017777778,1,0,0,0,63,63,143,1,hechten,images/br_hechten.png,images/cb_hechten.png,1,hechten,,,,,,,,,,,,,,,,,,,,,
,,,,,00083,2023-10-25_12h32.51.604,vbt_B1_day3,2022.2.4,MacIntel,125,,,,,,down,0,2.572,,0.104444444,-0.094444444,1,0,0,0,64,64,190,1,goedkoop,images/br_goedkoop.png,images/cb_goedkoop.png,0,,,,,,,,,,,,,,,,,,,,,,
,,,,,00083,2023-10-25_12h32.51.604,vbt_B1_day3,2022.2.4,MacIntel,125,,,,,,down,0,3.13,,0.104444444,-0.094444444,1,0,0,0,65,65,128,1,prikken,images/br_prikken.png,images/cb_prikken.png,0,,,,,,,,,,,,,,,,,,,,,,
,,,,,00083,2023-10-25_12h32.51.604,vbt_B1_day3,2022.2.4,MacIntel,125,,,,,,down,0,1.834,,0.104444444,-0.094444444,1,0,0,0,66,66,166,1,strikken,images/br_strikken.png,images/cb_strikken.png,0,,,,,,,,,,,,,,,,,,,,,,
,,,,,00083,2023-10-25_12h32.51.604,vbt_B1_day3,2022.2.4,MacIntel,125,,,,,,down,0,0.417,,0.104444444,-0.094444444,1,0,0,0,67,67,186,1,voorraad,images/br_voorraad.png,images/cb_voorraad.png,0,,,,,,,,,,,,,,,,,,,,,,
,,,,,00083,2023-10-25_12h32.51.604,vbt_B1_day3,2022.2.4,MacIntel,125,,,,,,down,0,2.351,,0.104444444,-0.094444444,1,0,0,0,68,68,167,1,eenhoorn,images/br_eenhoorn.png,images/cb_eenhoorn.png,0,,,,,,,,,,,,,,,,,,,,,,
,,,,,00083,2023-10-25_12h32.51.604,vbt_B1_day3,2022.2.4,MacIntel,125,,,,,,down,0,1.116,,0.104444444,-0.094444444,1,0,0,0,69,69,114,1,vullen,images/br_vullen.png,images/cb_vullen.png,0,,,,,,,,,,,,,,,,,,,,,,
,,,,,00083,2023-10-25_12h32.51.604,vbt_B1_day3,2022.2.4,MacIntel,125,,,,,,down,0,3.543,,0.104444444,-0.094444444,1,0,0,0,70,70,94,1,oceaan,images/br_oceaan.png,images/cb_oceaan.png,0,,,,,,,,,,,,,,,,,,,,,,
,,,,,00083,2023-10-25_12h32.51.604,vbt_B1_day3,2022.2.4,MacIntel,125,,,,,,down,0,1.967,,0.1,-0.097777778,1,0,0,0,71,71,37,1,mijn,images/br_mijn.png,images/cb_mijn.png,0,,,,,,,,,,,,,,,,,,,,,,
,,,,,00083,2023-10-25_12h32.51.604,vbt_B1_day3,2022.2.4,MacIntel,125,,,,,,down,0,1.584,,0.098888889,-0.097777778,1,0,0,0,72,72,64,1,wegen,images/br_wegen.png,images/cb_wegen.png,0,,,,,,,,,,,,,,,,,,,,,,
,,,,,00083,2023-10-25_12h32.51.604,vbt_B1_day3,2022.2.4,MacIntel,125,,,,,,down,0,4.614,,0.18,-0.111111111,1,0,0,0,73,73,22,1,stof,images/br_stof.png,images/cb_stof.png,1,stof,,,,,,,,,,,,,,,,,,,,,
,,,,,00083,2023-10-25_12h32.51.604,vbt_B1_day3,2022.2.4,MacIntel,125,,,,,,down,0,7.297,,0.15,0.006666667,1,0,0,0,74,74,199,1,beseffen,images/br_beseffen.png,images/cb_beseffen.png,0,,,,,,,,,,,,,,,,,,,,,,
,,,,,00083,2023-10-25_12h32.51.604,vbt_B1_day3,2022.2.4,MacIntel,125,,,,,,down,0,0.116,,0.147777778,0.005555556,1,0,0,0,75,75,5,1,blad,images/br_blad.png,images/cb_blad.png,0,,,,,,,,,,,,,,,,,,,,,,
,,,,,00083,2023-10-25_12h32.51.604,vbt_B1_day3,2022.2.4,MacIntel,125,,,,,,down,0,1.237,,0.147777778,0.005555556,1,0,0,0,76,76,24,1,jurk,images/br_jurk.png,images/cb_jurk.png,0,,,,,,,,,,,,,,,,,,,,,,
,,,,,00083,2023-10-25_12h32.51.604,vbt_B1_day3,2022.2.4,MacIntel,125,,,,,,down,0,6.473,,0.147777778,0.005555556,1,0,0,0,77,77,135,1,gedicht,images/br_gedicht.png,images/cb_gedicht.png,0,,,,,,,,,,,,,,,,,,,,,,
,,,,,00083,2023-10-25_12h32.51.604,vbt_B1_day3,2022.2.4,MacIntel,125,,,,,,down,0,1.764,,0.146666667,0.007777778,1,0,0,0,78,78,71,1,bever,images/br_bever.png,images/cb_bever.png,0,,,,,,,,,,,,,,,,,,,,,,
,,,,,00083,2023-10-25_12h32.51.604,vbt_B1_day3,2022.2.4,MacIntel,125,,,,,,down,0,2.988,,0.356666667,0.126666667,1,0,0,0,79,79,113,1,koppen,images/br_koppen.png,images/cb_koppen.png,0,,,,,,,,,,,,,,,,,,,,,,
,,,,,00083,2023-10-25_12h32.51.604,vbt_B1_day3,2022.2.4,MacIntel,125,,,,,,down,0,2.847,,0.356666667,0.126666667,1,0,0,0,80,80,90,1,geluid,images/br_geluid.png,images/cb_geluid.png,0,,,,,,,,,,,,,,,,,,,,,,
,,,,,00083,2023-10-25_12h32.51.604,vbt_B1_day3,2022.2.4,MacIntel,125,,,,,,down,0,3.315,,0.547777778,0.106666667,1,0,0,0,81,81,100,1,geduld,images/br_geduld.png,images/cb_geduld.png,1,geduld,,,,,,,,,,,,,,,,,,,,,
,,,,,00083,2023-10-25_12h32.51.604,vbt_B1_day3,2022.2.4,MacIntel,125,,,,,,down,0,7.951,,0.294444444,-0.052222222,1,0,0,0,82,82,179,1,woestijn,images/br_woestijn.png,images/cb_woestijn.png,0,,,,,,,,,,,,,,,,,,,,,,
,,,,,00083,2023-10-25_12h32.51.604,vbt_B1_day3,2022.2.4,MacIntel,125,,,,,,down,0,4.868,,0.264444444,-0.042222222,1,0,0,0,83,83,30,1,uien,images/br_uien.png,images/cb_uien.png,0,,,,,,,,,,,,,,,,,,,,,,
,,,,,00083,2023-10-25_12h32.51.604,vbt_B1_day3,2022.2.4,MacIntel,125,,,,,,down,0,1.819,,0.264444444,-0.041111111,1,0,0,0,84,84,6,1,diep,images/br_diep.png,images/cb_diep.png,0,,,,,,,,,,,,,,,,,,,,,,
,,,,,00083,2023-10-25_12h32.51.604,vbt_B1_day3,2022.2.4,MacIntel,125,,,,,,down,0,3.418,,0.362222222,0.008888889,1,0,0,0,85,85,141,1,knielen,images/br_knielen.png,images/cb_knielen.png,1,knielen,,,,,,,,,,,,,,,,,,,,,
,,,,,00083,2023-10-25_12h32.51.604,vbt_B1_day3,2022.2.4,MacIntel,125,,,,,,down,0,1.592,,0.362222222,0.008888889,1,0,0,0,86,86,49,1,laken,images/br_laken.png,images/cb_laken.png,0,,,,,,,,,,,,,,,,,,,,,,
,,,,,00083,2023-10-25_12h32.51.604,vbt_B1_day3,2022.2.4,MacIntel,125,,,,,,down,0,5.339,,0.362222222,0.008888889,1,0,0,0,87,87,149,1,redding,images/br_redding.png,images/cb_redding.png,0,,,,,,,,,,,,,,,,,,,,,,
,,,,,00083,2023-10-25_12h32.51.604,vbt_B1_day3,2022.2.4,MacIntel,125,,,,,,down,0,3.518,,0.362222222,0.008888889,1,0,0,0,88,88,133,1,seizoen,images/br_seizoen.png,images/cb_seizoen.png,0,,,,,,,,,,,,,,,,,,,,,,
,,,,,00083,2023-10-25_12h32.51.604,vbt_B1_day3,2022.2.4,MacIntel,125,,,,,,down,0,2.532,,0.362222222,0.008888889,1,0,0,0,89,89,86,1,woning,images/br_woning.png,images/cb_woning.png,0,,,,,,,,,,,,,,,,,,,,,,
,,,,,00083,2023-10-25_12h32.51.604,vbt_B1_day3,2022.2.4,MacIntel,125,,,,,,down,0,4.702,,0.362222222,0.008888889,1,0,0,0,90,90,194,1,driemaal,images/br_driemaal.png,images/cb_driemaal.png,0,,,,,,,,,,,,,,,,,,,,,,
,,,,,00083,2023-10-25_12h32.51.604,vbt_B1_day3,2022.2.4,MacIntel,125,,,,,,down,0,3.714,,0.362222222,0.008888889,1,0,0,0,91,91,147,1,komisch,images/br_komisch.png,images/cb_komisch.png,0,,,,,,,,,,,,,,,,,,,,,,
,,,,,00083,2023-10-25_12h32.51.604,vbt_B1_day3,2022.2.4,MacIntel,125,,,,,,down,0,2.203,,0.362222222,0.008888889,1,0,0,0,92,92,67,1,zwart,images/br_zwart.png,images/cb_zwart.png,0,,,,,,,,,,,,,,,,,,,,,,
,,,,,00083,2023-10-25_12h32.51.604,vbt_B1_day3,2022.2.4,MacIntel,125,,,,,,down,0,3.136,,0.362222222,0.008888889,1,0,0,0,93,93,175,1,heengaan,images/br_heengaan.png,images/cb_heengaan.png,0,,,,,,,,,,,,,,,,,,,,,,
,,,,,00083,2023-10-25_12h32.51.604,vbt_B1_day3,2022.2.4,MacIntel,125,,,,,,down,0,3.702,,0.362222222,0.008888889,1,0,0,0,94,94,124,1,bloeien,images/br_bloeien.png,images/cb_bloeien.png,0,,,,,,,,,,,,,,,,,,,,,,
,,,,,00083,2023-10-25_12h32.51.604,vbt_B1_day3,2022.2.4,MacIntel,125,,,,,,down,0,0.501,,0.362222222,0.008888889,1,0,0,0,95,95,48,1,steel,images/br_steel.png,images/cb_steel.png,0,,,,,,,,,,,,,,,,,,,,,,
,,,,,00083,2023-10-25_12h32.51.604,vbt_B1_day3,2022.2.4,MacIntel,125,,,,,,down,0,0.601,,0.362222222,0.008888889,1,0,0,0,96,96,73,1,volop,images/br_volop.png,images/cb_volop.png,0,,,,,,,,,,,,,,,,,,,,,,
,,,,,00083,2023-10-25_12h32.51.604,vbt_B1_day3,2022.2.4,MacIntel,125,,,,,,down,0,1.738,,0.362222222,0.008888889,1,0,0,0,97,97,53,1,baron,images/br_baron.png,images/cb_baron.png,0,,,,,,,,,,,,,,,,,,,,,,
,,,,,00083,2023-10-25_12h32.51.604,vbt_B1_day3,2022.2.4,MacIntel,125,,,,,,down,0,1.815,,0.362222222,0.027777778,1,0,0,0,98,98,99,1,koffie,images/br_koffie.png,images/cb_koffie.png,0,,,,,,,,,,,,,,,,,,,,,,
,,,,,00083,2023-10-25_12h32.51.604,vbt_B1_day3,2022.2.4,MacIntel,125,,,,,,down,0,4.719,,0.362222222,0.027777778,1,0,0,0,99,99,129,1,verhaal,images/br_verhaal.png,images/cb_verhaal.png,0,,,,,,,,,,,,,,,,,,,,,,
,,,,,00083,2023-10-25_12h32.51.604,vbt_B1_day3,2022.2.4,MacIntel,125,,,,,,down,0,1.77,,0.363333333,0.024444444,1,0,0,0,100,100,50,1,stoom,images/br_stoom.png,images/cb_stoom.png,0,,,,,,,,,,,,,,,,,,,,,,
,,,,,00083,2023-10-25_12h32.51.604,vbt_B1_day3,2022.2.4,MacIntel,125,,,,,,down,0,4.204,,0.363333333,0.024444444,1,0,0,0,101,101,144,1,eetlust,images/br_eetlust.png,images/cb_eetlust.png,0,,,,,,,,,,,,,,,,,,,,,,
,,,,,00083,2023-10-25_12h32.51.604,vbt_B1_day3,2022.2.4,MacIntel,125,,,,,,down,0,8.686,,0.363333333,0.024444444,1,0,0,0,102,102,136,1,waarbij,images/br_waarbij.png,images/cb_waarbij.png,0,,,,,,,,,,,,,,,,,,,,,,
,,,,,00083,2023-10-25_12h32.51.604,vbt_B1_day3,2022.2.4,MacIntel,125,,,,,,down,0,4.498,,0.363333333,0.023333333,1,0,0,0,103,103,101,1,staren,images/br_staren.png,images/cb_staren.png,1,staren,,,,,,,,,,,,,,,,,,,,,
,,,,,00083,2023-10-25_12h32.51.604,vbt_B1_day3,2022.2.4,MacIntel,125,,,,,,down,0,0.99,,0.363333333,0.023333333,1,0,0,0,104,104,96,1,slagen,images/br_slagen.png,images/cb_slagen.png,0,,,,,,,,,,,,,,,,,,,,,,
,,,,,00083,2023-10-25_12h32.51.604,vbt_B1_day3,2022.2.4,MacIntel,125,,,,,,down,0,4.264,,0.363333333,0.023333333,1,0,0,0,105,105,134,1,geliefd,images/br_geliefd.png,images/cb_geliefd.png,0,,,,,,,,,,,,,,,,,,,,,,
,,,,,00083,2023-10-25_12h32.51.604,vbt_B1_day3,2022.2.4,MacIntel,125,,,,,,down,0,6.513,,0.36,0.023333333,1,0,0,0,106,106,158,1,innemen,images/br_innemen.png,images/cb_innemen.png,0,,,,,,,,,,,,,,,,,,,,,,
,,,,,00083,2023-10-25_12h32.51.604,vbt_B1_day3,2022.2.4,MacIntel,125,,,,,,down,0,1.497,,0.357777778,0.024444444,1,0,0,0,107,107,151,1,aanzoek,images/br_aanzoek.png,images/cb_aanzoek.png,0,,,,,,,,,,,,,,,,,,,,,,
,,,,,00083,2023-10-25_12h32.51.604,vbt_B1_day3,2022.2.4,MacIntel,125,,,,,,down,0,7.764,,0.357777778,0.024444444,1,0,0,0,108,108,165,1,feestdag,images/br_feestdag.png,images/cb_feestdag.png,0,,,,,,,,,,,,,,,,,,,,,,
,,,,,00083,2023-10-25_12h32.51.604,vbt_B1_day3,2022.2.4,MacIntel,125,,,,,,down,0,1.152,,0.357777778,0.024444444,1,0,0,0,109,109,102,1,legaal,images/br_legaal.png,images/cb_legaal.png,1,legaal,,,,,,,,,,,,,,,,,,,,,
,,,,,00083,2023-10-25_12h32.51.604,vbt_B1_day3,2022.2.4,MacIntel,125,,,,,,down,0,14.661,,0.357777778,0.024444444,1,0,0,0,110,110,118,1,vinger,images/br_vinger.png,images/cb_vinger.png,0,,,,,,,,,,,,,,,,,,,,,,
,,,,,00083,2023-10-25_12h32.51.604,vbt_B1_day3,2022.2.4,MacIntel,125,,,,,,down,0,3.834,,0.357777778,0.024444444,1,0,0,0,111,111,164,1,anarchie,images/br_anarchie.png,images/cb_anarchie.png,0,,,,,,,,,,,,,,,,,,,,,,
,,,,,00083,2023-10-25_12h32.51.604,vbt_B1_day3,2022.2.4,MacIntel,125,,,,,,down,0,1.468,,0.357777778,0.024444444,1,0,0,0,112,112,76,1,afval,images/br_afval.png,images/cb_afval.png,0,,,,,,,,,,,,,,,,,,,,,,
,,,,,00083,2023-10-25_12h32.51.604,vbt_B1_day3,2022.2.4,MacIntel,125,,,,,,down,0,2.305,,0.357777778,0.024444444,1,0,0,0,113,113,75,1,snoep,images/br_snoep.png,images/cb_snoep.png,0,,,,,,,,,,,,,,,,,,,,,,
,,,,,00083,2023-10-25_12h32.51.604,vbt_B1_day3,2022.2.4,MacIntel,125,,,,,,down,0,0.334,,0.357777778,0.024444444,1,0,0,0,114,114,74,1,graaf,images/br_graaf.png,images/cb_graaf.png,0,,,,,,,,,,,,,,,,,,,,,,
,,,,,00083,2023-10-25_12h32.51.604,vbt_B1_day3,2022.2.4,MacIntel,125,,,,,,down,0,0.383,,0.357777778,0.024444444,1,0,0,0,115,115,10,1,leek,images/br_leek.png,images/cb_leek.png,0,,,,,,,,,,,,,,,,,,,,,,
,,,,,00083,2023-10-25_12h32.51.604,vbt_B1_day3,2022.2.4,MacIntel,125,,,,,,down,0,1.807,,0.324444444,0.001111111,1,0,0,0,116,116,19,1,geit,images/br_geit.png,images/cb_geit.png,0,,,,,,,,,,,,,,,,,,,,,,
,,,,,00083,2023-10-25_12h32.51.604,vbt_B1_day3,2022.2.4,MacIntel,125,,,,,,down,0,1.801,,0.324444444,0.001111111,1,0,0,0,117,117,122,1,waarvan,images/br_waarvan.png,images/cb_waarvan.png,0,,,,,,,,,,,,,,,,,,,,,,
,,,,,00083,2023-10-25_12h32.51.604,vbt_B1_day3,2022.2.4,MacIntel,125,,,,,,down,0,0.849,,0.31,-0.003333333,1,0,0,0,118,118,72,1,strak,images/br_strak.png,images/cb_strak.png,0,,,,,,,,,,,,,,,,,,,,,,
,,,,,00083,2023-10-25_12h32.51.604,vbt_B1_day3,2022.2.4,MacIntel,125,,,,,,down,0,2.181,,0.308888889,-0.003333333,1,0,0,0,119,119,69,1,waken,images/br_waken.png,images/cb_waken.png,0,,,,,,,,,,,,,,,,,,,,,,
,,,,,00083,2023-10-25_12h32.51.604,vbt_B1_day3,2022.2.4,MacIntel,125,,,,,,down,0,0.988,,0.308888889,-0.001111111,1,0,0,0,120,120,89,1,slapen,images/br_slapen.png,images/cb_slapen.png,0,,,,,,,,,,,,,,,,,,,,,,
,,,,,00083,2023-10-25_12h32.51.604,vbt_B1_day3,2022.2.4,MacIntel,125,,,,,,down,0,0.713,,0.303333333,0,1,0,0,0,121,121,84,1,lokken,images/br_lokken.png,images/cb_lokken.png,0,,,,,,,,,,,,,,,,,,,,,,
,,,,,00083,2023-10-25_12h32.51.604,vbt_B1_day3,2022.2.4,MacIntel,125,,,,,,down,0,1.153,,0.301111111,0.001111111,1,0,0,0,122,122,56,1,traag,images/br_traag.png,images/cb_traag.png,0,,,,,,,,,,,,,,,,,,,,,,
,,,,,00083,2023-10-25_12h32.51.604,vbt_B1_day3,2022.2.4,MacIntel,125,,,,,,down,0,4.051,,0.301111111,0.001111111,1,0,0,0,123,123,172,1,weigeren,images/br_weigeren.png,images/cb_weigeren.png,0,,,,,,,,,,,,,,,,,,,,,,
,,,,,00083,2023-10-25_12h32.51.604,vbt_B1_day3,2022.2.4,MacIntel,125,,,,,,down,0,0.584,,0.301111111,0.001111111,1,0,0,0,124,124,150,1,gegeven,images/br_gegeven.png,images/cb_gegeven.png,0,,,,,,,,,,,,,,,,,,,,,,
,,,,,00083,2023-10-25_12h32.51.604,vbt_B1_day3,2022.2.4,MacIntel,125,,,,,,down,0,3.163,,0.301111111,0.001111111,1,0,0,0,125,125,187,1,opkijken,images/br_opkijken.png,images/cb_opkijken.png,0,,,,,,,,,,,,,,,,,,,,,,
,,,,,00083,2023-10-25_12h32.51.604,vbt_B1_day3,2022.2.4,MacIntel,125,,,,,,down,0,2.872,,0.301111111,0.001111111,1,0,0,0,126,126,83,1,mening,images/br_mening.png,images/cb_mening.png,0,,,,,,,,,,,,,,,,,,,,,,
,,,,,00083,2023-10-25_12h32.51.604,vbt_B1_day3,2022.2.4,MacIntel,125,,,,,,down,0,0.766,,0.301111111,0.001111111,1,0,0,0,127,127,126,1,kasteel,images/br_kasteel.png,images/cb_kasteel.png,0,,,,,,,,,,,,,,,,,,,,,,
,,,,,00083,2023-10-25_12h32.51.604,vbt_B1_day3,2022.2.4,MacIntel,125,,,,,,down,0,1.867,,0.25,-0.041111111,1,0,0,0,128,128,181,1,toegeven,images/br_toegeven.png,images/cb_toegeven.png,1,toegeven,,,,,,,,,,,,,,,,,,,,,
,,,,,00083,2023-10-25_12h32.51.604,vbt_B1_day3,2022.2.4,MacIntel,125,,,,,,down,0,0.735,,0.444444444,-0.018888889,1,0,0,0,129,129,77,1,woede,images/br_woede.png,images/cb_woede.png,0,,,,,,,,,,,,,,,,,,,,,,
,,,,,00083,2023-10-25_12h32.51.604,vbt_B1_day3,2022.2.4,MacIntel,125,,,,,,down,0,0.782,,0.444444444,-0.018888889,1,0,0,0,130,130,52,1,wagon,images/br_wagon.png,images/cb_wagon.png,0,,,,,,,,,,,,,,,,,,,,,,
,,,,,00083,2023-10-25_12h32.51.604,vbt_B1_day3,2022.2.4,MacIntel,125,,,,,,down,0,1.939,,0.444444444,-0.018888889,1,0,0,0,131,131,31,1,poes,images/br_poes.png,images/cb_poes.png,0,,,,,,,,,,,,,,,,,,,,,,
,,,,,00083,2023-10-25_12h32.51.604,vbt_B1_day3,2022.2.4,MacIntel,125,,,,,,down,0,4.019,,0.344444444,0.034444444,1,0,0,0,132,132,92,1,geheim,images/br_geheim.png,images/cb_geheim.png,0,,,,,,,,,,,,,,,,,,,,,,
,,,,,00083,2023-10-25_12h32.51.604,vbt_B1_day3,2022.2.4,MacIntel,125,,,,,,down,0,3.284,,0.344444444,0.034444444,1,0,0,0,133,133,160,1,daarheen,images/br_daarheen.png,images/cb_daarheen.png,0,,,,,,,,,,,,,,,,,,,,,,
,,,,,00083,2023-10-25_12h32.51.604,vbt_B1_day3,2022.2.4,MacIntel,125,,,,,,down,0,1.328,,0.344444444,0.034444444,1,0,0,0,134,134,91,1,gezond,images/br_gezond.png,images/cb_gezond.png,0,,,,,,,,,,,,,,,,,,,,,,
,,,,,00083,2023-10-25_12h32.51.604,vbt_B1_day3,2022.2.4,MacIntel,125,,,,,,down,0,4.421,,0.344444444,0.034444444,1,0,0,0,135,135,60,1,jasje,images/br_jasje.png,images/cb_jasje.png,1,jasje,,,,,,,,,,,,,,,,,,,,,
,,,,,00083,2023-10-25_12h32.51.604,vbt_B1_day3,2022.2.4,MacIntel,125,,,,,,down,0,2.433,,0.333333333,0.034444444,1,0,0,0,136,136,109,1,totaal,images/br_totaal.png,images/cb_totaal.png,0,,,,,,,,,,,,,,,,,,,,,,
,,,,,00083,2023-10-25_12h32.51.604,vbt_B1_day3,2022.2.4,MacIntel,125,,,,,,down,0,2.202,,0.33,0.034444444,1,0,0,0,137,137,16,1,ziek,images/br_ziek.png,images/cb_ziek.png,0,,,,,,,,,,,,,,,,,,,,,,
,,,,,00083,2023-10-25_12h32.51.604,vbt_B1_day3,2022.2.4,MacIntel,125,,,,,,down,0,4,,0.33,0.034444444,1,0,0,0,138,138,140,1,blijven,images/br_blijven.png,images/cb_blijven.png,1,blijven,,,,,,,,,,,,,,,,,,,,,
,,,,,00083,2023-10-25_12h32.51.604,vbt_B1_day3,2022.2.4,MacIntel,125,,,,,,down,0,4.213,,0.323333333,0.016666667,1,0,0,0,139,139,108,1,excuus,images/br_excuus.png,images/cb_excuus.png,0,,,,,,,,,,,,,,,,,,,,,,
,,,,,00083,2023-10-25_12h32.51.604,vbt_B1_day3,2022.2.4,MacIntel,125,,,,,,down,0,6.731,,0.372222222,0.023333333,1,0,0,0,140,140,183,1,getuigen,images/br_getuigen.png,images/cb_getuigen.png,1,getuigen,,,,,,,,,,,,,,,,,,,,,
,,,,,00083,2023-10-25_12h32.51.604,vbt_B1_day3,2022.2.4,MacIntel,125,,,,,,down,0,0.889,,0.367777778,0.023333333,1,0,0,0,141,141,28,1,stal,images/br_stal.png,images/cb_stal.png,0,,,,,,,,,,,,,,,,,,,,,,
,,,,,00083,2023-10-25_12h32.51.604,vbt_B1_day3,2022.2.4,MacIntel,125,,,,,,down,0,1.633,,0.383333333,0.036666667,1,0,0,0,142,142,82,1,muziek,images/br_muziek.png,images/cb_muziek.png,0,,,,,,,,,,,,,,,,,,,,,,
,,,,,00083,2023-10-25_12h32.51.604,vbt_B1_day3,2022.2.4,MacIntel,125,,,,,,down,0,3.103,,0.383333333,0.036666667,1,0,0,0,143,143,171,1,aarzelen,images/br_aarzelen.png,images/cb_aarzelen.png,0,,,,,,,,,,,,,,,,,,,,,,
,,,,,00083,2023-10-25_12h32.51.604,vbt_B1_day3,2022.2.4,MacIntel,125,,,,,,down,0,2.099,,0.383333333,0.036666667,1,0,0,0,144,144,15,1,soda,images/br_soda.png,images/cb_soda.png,0,,,,,,,,,,,,,,,,,,,,,,
,,,,,00083,2023-10-25_12h32.51.604,vbt_B1_day3,2022.2.4,MacIntel,125,,,,,,down,0,1.912,,0.366666667,0.032222222,1,0,0,0,145,145,54,1,gebit,images/br_gebit.png,images/cb_gebit.png,0,,,,,,,,,,,,,,,,,,,,,,
,,,,,00083,2023-10-25_12h32.51.604,vbt_B1_day3,2022.2.4,MacIntel,125,,,,,,down,0,1.251,,0.364444444,0.032222222,1,0,0,0,146,146,38,1,baai,images/br_baai.png,images/cb_baai.png,0,,,,,,,,,,,,,,,,,,,,,,
,,,,,00083,2023-10-25_12h32.51.604,vbt_B1_day3,2022.2.4,MacIntel,125,,,,,,down,0,0.845,,0.364444444,0.032222222,1,0,0,0,147,147,17,1,taal,images/br_taal.png,images/cb_taal.png,0,,,,,,,,,,,,,,,,,,,,,,
,,,,,00083,2023-10-25_12h32.51.604,vbt_B1_day3,2022.2.4,MacIntel,125,,,,,,down,0,1.738,,0.364444444,0.032222222,1,0,0,0,148,148,169,1,oprotten,images/br_oprotten.png,images/cb_oprotten.png,0,,,,,,,,,,,,,,,,,,,,,,
,,,,,00083,2023-10-25_12h32.51.604,vbt_B1_day3,2022.2.4,MacIntel,125,,,,,,down,0,2.149,,0.364444444,0.032222222,1,0,0,0,149,149,120,1,klimmen,images/br_klimmen.png,images/cb_klimmen.png,0,,,,,,,,,,,,,,,,,,,,,,
,,,,,00083,2023-10-25_12h32.51.604,vbt_B1_day3,2022.2.4,MacIntel,125,,,,,,down,0,0.251,,0.364444444,0.032222222,1,0,0,0,150,150,57,1,steek,images/br_steek.png,images/cb_steek.png,0,,,,,,,,,,,,,,,,,,,,,,
,,,,,00083,2023-10-25_12h32.51.604,vbt_B1_day3,2022.2.4,MacIntel,125,,,,,,down,0,8.662,,0.364444444,0.032222222,1,0,0,0,151,151,88,1,boeien,images/br_boeien.png,images/cb_boeien.png,0,,,,,,,,,,,,,,,,,,,,,,
,,,,,00083,2023-10-25_12h32.51.604,vbt_B1_day3,2022.2.4,MacIntel,125,,,,,,down,0,5.546,,0.364444444,0.032222222,1,0,0,0,152,152,104,1,zweven,images/br_zweven.png,images/cb_zweven.png,0,,,,,,,,,,,,,,,,,,,,,,
,,,,,00083,2023-10-25_12h32.51.604,vbt_B1_day3,2022.2.4,MacIntel,125,,,,,,down,0,3.547,,0.364444444,0.032222222,1,0,0,0,153,153,192,1,schaamte,images/br_schaamte.png,images/cb_schaamte.png,0,,,,,,,,,,,,,,,,,,,,,,
,,,,,00083,2023-10-25_12h32.51.604,vbt_B1_day3,2022.2.4,MacIntel,125,,,,,,down,0,5.931,,0.364444444,0.032222222,1,0,0,0,154,154,173,1,apparaat,images/br_apparaat.png,images/cb_apparaat.png,0,,,,,,,,,,,,,,,,,,,,,,
,,,,,00083,2023-10-25_12h32.51.604,vbt_B1_day3,2022.2.4,MacIntel,125,,,,,,down,0,3.198,,0.361111111,0.032222222,1,0,0,0,155,155,130,1,keihard,images/br_keihard.png,images/cb_keihard.png,0,,,,,,,,,,,,,,,,,,,,,,
,,,,,00083,2023-10-25_12h32.51.604,vbt_B1_day3,2022.2.4,MacIntel,125,,,,,,down,0,2.139,,0.356666667,0.032222222,1,0,0,0,156,156,21,1,mist,images/br_mist.png,images/cb_mist.png,1,mist,,,,,,,,,,,,,,,,,,,,,
,,,,,00083,2023-10-25_12h32.51.604,vbt_B1_day3,2022.2.4,MacIntel,125,,,,,,down,0,0.39,,0.357777778,0.043333333,1,0,0,0,157,157,34,1,vorm,images/br_vorm.png,images/cb_vorm.png,0,,,,,,,,,,,,,,,,,,,,,,
,,,,,00083,2023-10-25_12h32.51.604,vbt_B1_day3,2022.2.4,MacIntel,125,,,,,,down,0,5.066,,0.357777778,0.043333333,1,0,0,0,158,158,111,1,ticket,images/br_ticket.png,images/cb_ticket.png,0,,,,,,,,,,,,,,,,,,,,,,
,,,,,00083,2023-10-25_12h32.51.604,vbt_B1_day3,2022.2.4,MacIntel,125,,,,,,down,0,3.632,,0.357777778,0.043333333,1,0,0,0,159,159,146,1,opkomen,images/br_opkomen.png,images/cb_opkomen.png,0,,,,,,,,,,,,,,,,,,,,,,
,,,,,00083,2023-10-25_12h32.51.604,vbt_B1_day3,2022.2.4,MacIntel,125,,,,,,down,0,1.921,,0.355555556,0.043333333,1,0,0,0,160,160,138,1,akkoord,images/br_akkoord.png,images/cb_akkoord.png,0,,,,,,,,,,,,,,,,,,,,,,
,,,,,00083,2023-10-25_12h32.51.604,vbt_B1_day3,2022.2.4,MacIntel,125,,,,,,down,0,1.601,,0.345555556,0.043333333,1,0,0,0,161,161,79,1,nodig,images/br_nodig.png,images/cb_nodig.png,0,,,,,,,,,,,,,,,,,,,,,,
,,,,,00083,2023-10-25_12h32.51.604,vbt_B1_day3,2022.2.4,MacIntel,125,,,,,,down,0,0.834,,0.345555556,0.043333333,1,0,0,0,162,162,177,1,maaltijd,images/br_maaltijd.png,images/cb_maaltijd.png,0,,,,,,,,,,,,,,,,,,,,,,
,,,,,00083,2023-10-25_12h32.51.604,vbt_B1_day3,2022.2.4,MacIntel,125,,,,,,down,0,0.855,,0.345555556,0.043333333,1,0,0,0,163,163,137,1,trekker,images/br_trekker.png,images/cb_trekker.png,0,,,,,,,,,,,,,,,,,,,,,,
,,,,,00083,2023-10-25_12h32.51.604,vbt_B1_day3,2022.2.4,MacIntel,125,,,,,,down,0,2.372,,0.345555556,0.043333333,1,0,0,0,164,164,80,1,kanjer,images/br_kanjer.png,images/cb_kanjer.png,0,,,,,,,,,,,,,,,,,,,,,,
,,,,,00083,2023-10-25_12h32.51.604,vbt_B1_day3,2022.2.4,MacIntel,125,,,,,,down,0,0.727,,0.345555556,0.043333333,1,0,0,0,165,165,2,1,jaar,images/br_jaar.png,images/cb_jaar.png,0,,,,,,,,,,,,,,,,,,,,,,
,,,,,00083,2023-10-25_12h32.51.604,vbt_B1_day3,2022.2.4,MacIntel,125,,,,,,down,0,1.216,,0.345555556,0.043333333,1,0,0,0,166,166,39,1,laag,images/br_laag.png,images/cb_laag.png,0,,,,,,,,,,,,,,,,,,,,,,
,,,,,00083,2023-10-25_12h32.51.604,vbt_B1_day3,2022.2.4,MacIntel,125,,,,,,down,0,1.668,,0.336666667,0.043333333,1,0,0,0,167,167,117,1,kennis,images/br_kennis.png,images/cb_kennis.png,0,,,,,,,,,,,,,,,,,,,,,,
,,,,,00083,2023-10-25_12h32.51.604,vbt_B1_day3,2022.2.4,MacIntel,125,,,,,,down,0,9.143,,0.492222222,0.075555556,1,0,0,0,168,168,63,1,flirt,images/br_flirt.png,images/cb_flirt.png,1,flirt,,,,,,,,,,,,,,,,,,,,,
,,,,,00083,2023-10-25_12h32.51.604,vbt_B1_day3,2022.2.4,MacIntel,125,,,,,,down,0,2.201,,0.456666667,0.026666667,1,0,0,0,169,169,110,1,zuster,images/br_zuster.png,images/cb_zuster.png,0,,,,,,,,,,,,,,,,,,,,,,
,,,,,00083,2023-10-25_12h32.51.604,vbt_B1_day3,2022.2.4,MacIntel,125,,,,,,down,0,3.466,,0.456666667,0.026666667,1,0,0,0,170,170,139,1,stiekem,images/br_stiekem.png,images/cb_stiekem.png,0,,,,,,,,,,,,,,,,,,,,,,
,,,,,00083,2023-10-25_12h32.51.604,vbt_B1_day3,2022.2.4,MacIntel,125,,,,,,down,0,0.117,,0.456666667,0.026666667,1,0,0,0,171,171,42,1,bleek,images/br_bleek.png,images/cb_bleek.png,0,,,,,,,,,,,,,,,,,,,,,,
,,,,,00083,2023-10-25_12h32.51.604,vbt_B1_day3,2022.2.4,MacIntel,125,,,,,,down,0,0.752,,0.456666667,0.026666667,1,0,0,0,172,172,35,1,lust,images/br_lust.png,images/cb_lust.png,0,,,,,,,,,,,,,,,,,,,,,,
,,,,,00083,2023-10-25_12h32.51.604,vbt_B1_day3,2022.2.4,MacIntel,125,,,,,,down,0,2.176,,0.456666667,0.026666667,1,0,0,0,173,173,197,1,spanning,images/br_spanning.png,images/cb_spanning.png,0,,,,,,,,,,,,,,,,,,,,,,
,,,,,00083,2023-10-25_12h32.51.604,vbt_B1_day3,2022.2.4,MacIntel,125,,,,,,down,0,5.171,,0.444444444,0.042222222,1,0,0,0,174,174,58,1,tekst,images/br_tekst.png,images/cb_tekst.png,0,,,,,,,,,,,,,,,,,,,,,,
,,,,,00083,2023-10-25_12h32.51.604,vbt_B1_day3,2022.2.4,MacIntel,125,,,,,,down,0,13.241,,0.444444444,0.042222222,1,0,0,0,175,175,161,1,attentie,images/br_attentie.png,images/cb_attentie.png,0,,,,,,,,,,,,,,,,,,,,,,
,,,,,00083,2023-10-25_12h32.51.604,vbt_B1_day3,2022.2.4,MacIntel,125,,,,,,down,0,0.3,,0.444444444,0.042222222,1,0,0,0,176,176,0,1,slak,images/br_slak.png,images/cb_slak.png,0,,,,,,,,,,,,,,,,,,,,,,
,,,,,00083,2023-10-25_12h32.51.604,vbt_B1_day3,2022.2.4,MacIntel,125,,,,,,down,0,0.883,,0.444444444,0.042222222,1,0,0,0,177,177,98,1,kreeft,images/br_kreeft.png,images/cb_kreeft.png,0,,,,,,,,,,,,,,,,,,,,,,
,,,,,00083,2023-10-25_12h32.51.604,vbt_B1_day3,2022.2.4,MacIntel,125,,,,,,down,0,4.863,,0.444444444,0.042222222,1,0,0,0,178,178,131,1,opzicht,images/br_opzicht.png,images/cb_opzicht.png,0,,,,,,,,,,,,,,,,,,,,,,
,,,,,00083,2023-10-25_12h32.51.604,vbt_B1_day3,2022.2.4,MacIntel,125,,,,,,down,0,0.768,,0.444444444,0.042222222,1,0,0,0,179,179,29,1,baas,images/br_baas.png,images/cb_baas.png,0,,,,,,,,,,,,,,,,,,,,,,
,,,,,00083,2023-10-25_12h32.51.604,vbt_B1_day3,2022.2.4,MacIntel,125,,,,,,down,0,0.668,,0.443333333,0.042222222,1,0,0,0,180,180,9,1,hier,images/br_hier.png,images/cb_hier.png,0,,,,,,,,,,,,,,,,,,,,,,
,,,,,00083,2023-10-25_12h32.51.604,vbt_B1_day3,2022.2.4,MacIntel,125,,,,,,down,0,5.207,,0.441111111,0.042222222,1,0,0,0,181,181,154,1,aflopen,images/br_aflopen.png,images/cb_aflopen.png,0,,,,,,,,,,,,,,,,,,,,,,
,,,,,00083,2023-10-25_12h32.51.604,vbt_B1_day3,2022.2.4,MacIntel,125,,,,,,down,0,2.8,,0.483333333,0.036666667,1,0,0,0,182,182,103,1,joggen,images/br_joggen.png,images/cb_joggen.png,1,joggen,,,,,,,,,,,,,,,,,,,,,
,,,,,00083,2023-10-25_12h32.51.604,vbt_B1_day3,2022.2.4,MacIntel,125,,,,,,down,0,3.151,,0.411111111,0.035555556,1,0,0,0,183,183,162,1,uitdelen,images/br_uitdelen.png,images/cb_uitdelen.png,0,,,,,,,,,,,,,,,,,,,,,,
,,,,,00083,2023-10-25_12h32.51.604,vbt_B1_day3,2022.2.4,MacIntel,125,,,,,,down,0,0.548,,0.411111111,0.035555556,1,0,0,0,184,184,11,1,mode,images/br_mode.png,images/cb_mode.png,0,,,,,,,,,,,,,,,,,,,,,,
,,,,,00083,2023-10-25_12h32.51.604,vbt_B1_day3,2022.2.4,MacIntel,125,,,,,,down,0,2.922,,0.411111111,0.035555556,1,0,0,0,185,185,26,1,leuk,images/br_leuk.png,images/cb_leuk.png,0,,,,,,,,,,,,,,,,,,,,,,
,,,,,00083,2023-10-25_12h32.51.604,vbt_B1_day3,2022.2.4,MacIntel,125,,,,,,down,0,1.447,,0.411111111,0.035555556,1,0,0,0,186,186,106,1,zingen,images/br_zingen.png,images/cb_zingen.png,0,,,,,,,,,,,,,,,,,,,,,,
,,,,,00083,2023-10-25_12h32.51.604,vbt_B1_day3,2022.2.4,MacIntel,125,,,,,,down,0,1.735,,0.411111111,0.035555556,1,0,0,0,187,187,4,1,moes,images/br_moes.png,images/cb_moes.png,0,,,,,,,,,,,,,,,,,,,,,,
,,,,,00083,2023-10-25_12h32.51.604,vbt_B1_day3,2022.2.4,MacIntel,125,,,,,,down,0,5.615,,0.411111111,0.035555556,1,0,0,0,188,188,142,1,snuiven,images/br_snuiven.png,images/cb_snuiven.png,1,snuiven,,,,,,,,,,,,,,,,,,,,,
,,,,,00083,2023-10-25_12h32.51.604,vbt_B1_day3,2022.2.4,MacIntel,125,,,,,,down,0,5.145,,0.586666667,0.105555556,1,0,0,0,189,189,23,1,zout,images/br_zout.png,images/cb_zout.png,1,zout,,,,,,,,,,,,,,,,,,,,,
,,,,,00083,2023-10-25_12h32.51.604,vbt_B1_day3,2022.2.4,MacIntel,125,,,,,,down,0,2.175,,0.462222222,0.016666667,1,0,0,0,190,190,45,1,piste,images/br_piste.png,images/cb_piste.png,0,,,,,,,,,,,,,,,,,,,,,,
,,,,,00083,2023-10-25_12h32.51.604,vbt_B1_day3,2022.2.4,MacIntel,125,,,,,,down,0,4.253,,0.462222222,0.016666667,1,0,0,0,191,191,127,1,doodmoe,images/br_doodmoe.png,images/cb_doodmoe.png,0,,,,,,,,,,,,,,,,,,,,,,
,,,,,00083,2023-10-25_12h32.51.604,vbt_B1_day3,2022.2.4,MacIntel,125,,,,,,down,0,6.498,,0.462222222,0.016666667,1,0,0,0,192,192,107,1,maling,images/br_maling.png,images/cb_maling.png,0,,,,,,,,,,,,,,,,,,,,,,
,,,,,00083,2023-10-25_12h32.51.604,vbt_B1_day3,2022.2.4,MacIntel,125,,,,,,down,0,12.76,,0.462222222,0.016666667,1,0,0,0,193,193,178,1,huisdier,images/br_huisdier.png,images/cb_huisdier.png,0,,,,,,,,,,,,,,,,,,,,,,
,,,,,00083,2023-10-25_12h32.51.604,vbt_B1_day3,2022.2.4,MacIntel,125,,,,,,down,0,1.702,,0.462222222,0.016666667,1,0,0,0,194,194,193,1,weeshuis,images/br_weeshuis.png,images/cb_weeshuis.png,0,,,,,,,,,,,,,,,,,,,,,,
,,,,,00083,2023-10-25_12h32.51.604,vbt_B1_day3,2022.2.4,MacIntel,125,,,,,,down,0,2.434,,0.462222222,0.016666667,1,0,0,0,195,195,44,1,flits,images/br_flits.png,images/cb_flits.png,0,,,,,,,,,,,,,,,,,,,,,,
,,,,,00083,2023-10-25_12h32.51.604,vbt_B1_day3,2022.2.4,MacIntel,125,,,,,,down,0,3.037,,0.462222222,0.016666667,1,0,0,0,196,196,40,1,schep,images/br_schep.png,images/cb_schep.png,0,,,,,,,,,,,,,,,,,,,,,,
,,,,,00083,2023-10-25_12h32.51.604,vbt_B1_day3,2022.2.4,MacIntel,125,,,,,,down,0,1.374,,0.462222222,0.016666667,1,0,0,0,197,197,33,1,vlek,images/br_vlek.png,images/cb_vlek.png,0,,,,,,,,,,,,,,,,,,,,,,
,,,,,00083,2023-10-25_12h32.51.604,vbt_B1_day3,2022.2.4,MacIntel,125,,,,,,down,0,0.551,,0.462222222,0.016666667,1,0,0,0,198,198,66,1,lever,images/br_lever.png,images/cb_lever.png,0,,,,,,,,,,,,,,,,,,,,,,
,,,,,00083,2023-10-25_12h32.51.604,vbt_B1_day3,2022.2.4,MacIntel,125,,,,,,down,0,0.75,,0.462222222,0.016666667,1,0,0,0,199,199,55,1,praat,images/br_praat.png,images/cb_praat.png,0,,,,,,,,,,,,,,,,,,,,,,
,,,,,00083,2023-10-25_12h32.51.604,vbt_B1_day3,2022.2.4,MacIntel,125,,,,,,,,,,,,,,,,,,,,,,,,,0.522222222,0.032222222,1,0,0,,,,,,,,,,,,,,,,
,,,,,00083,2023-10-25_12h32.51.604,vbt_B1_day3,2022.2.4,MacIntel,125,,,,,,,,,,,,,,,,,,,,,,,,,,,,,,0.562222222,0.061111111,1,0,0,,,,,,,,,,,
,,,,,00083,2023-10-25_12h32.51.604,vbt_B1_day3,2022.2.4,MacIntel,125,,,,,,,,,,,,,,,,,,,,geluid,images/br_geluid.png,images/cb_geluid.png,,geluid,,,,,,,,,,,0.447777778,0.05,1,0,0,geluid,0,0,0,10,1
,,,,,00083,2023-10-25_12h32.51.604,vbt_B1_day3,2022.2.4,MacIntel,125,,,,,,,,,,,,,,,,,,,,eens,images/br_eens.png,images/cb_eens.png,,eens,,,,,,,,,,,0.368888889,0.035555556,1,0,0,eens,0,1,1,40,1
,,,,,00083,2023-10-25_12h32.51.604,vbt_B1_day3,2022.2.4,MacIntel,125,,,,,,,,,,,,,,,,,,,,knie,images/br_knie.png,images/cb_knie.png,,knie,,,,,,,,,,,0.29,0.026666667,1,0,0,knie,0,2,2,0,1
,,,,,00083,2023-10-25_12h32.51.604,vbt_B1_day3,2022.2.4,MacIntel,125,,,,,,,,,,,,,,,,,,,,hint,images/br_hint.png,images/cb_hint.png,,hint,,,,,,,,,,,0.29,0.026666667,1,0,0,hint,0,3,3,43,1
,,,,,00083,2023-10-25_12h32.51.604,vbt_B1_day3,2022.2.4,MacIntel,125,,,,,,,,,,,,,,,,,,,,vlager,images/br_vlager.png,images/cb_vlager.png,,vlager,,,,,,,,,,,0.252222222,0.063333333,1,0,0,vlager,0,4,4,28,1
,,,,,00083,2023-10-25_12h32.51.604,vbt_B1_day3,2022.2.4,MacIntel,125,,,,,,,,,,,,,,,,,,,,booien,images/br_booien.png,images/cb_booien.png,,booien,,,,,,,,,,,0.227777778,0.066666667,1,0,0,booien,0,5,5,31,1
,,,,,00083,2023-10-25_12h32.51.604,vbt_B1_day3,2022.2.4,MacIntel,125,,,,,,,,,,,,,,,,,,,,makieren,images/br_makieren.png,images/cb_makieren.png,,makieren,,,,,,,,,,,0.253333333,-0.108888889,1,0,0,makieren,0,6,6,36,1
,,,,,00083,2023-10-25_12h32.51.604,vbt_B1_day3,2022.2.4,MacIntel,125,,,,,,,,,,,,,,,,,,,,opzicht,images/br_opzicht.png,images/cb_opzicht.png,,opzicht,,,,,,,,,,,0.24,-0.067777778,1,0,0,opzicht,0,7,7,15,1
,,,,,00083,2023-10-25_12h32.51.604,vbt_B1_day3,2022.2.4,MacIntel,125,,,,,,,,,,,,,,,,,,,,uviek,images/br_uviek.png,images/cb_uviek.png,,uviek,,,,,,,,,,,0.268888889,0,1,0,0,uviek,0,8,8,25,1
,,,,,00083,2023-10-25_12h32.51.604,vbt_B1_day3,2022.2.4,MacIntel,125,,,,,,,,,,,,,,,,,,,,stikken,images/br_stikken.png,images/cb_stikken.png,,stikken,,,,,,,,,,,0.3,0.074444444,1,0,0,stikken,0,9,9,54,1
,,,,,00083,2023-10-25_12h32.51.604,vbt_B1_day3,2022.2.4,MacIntel,125,,,,,,,,,,,,,,,,,,,,croo,images/br_croo.png,images/cb_croo.png,,croo,,,,,,,,,,,0.301111111,0.082222222,1,0,0,croo,0,10,10,22,1
,,,,,00083,2023-10-25_12h32.51.604,vbt_B1_day3,2022.2.4,MacIntel,125,,,,,,,,,,,,,,,,,,,,uniek,images/br_uniek.png,images/cb_uniek.png,,uniek,,,,,,,,,,,0.322222222,0.135555556,1,0,0,uniek,0,11,11,46,1
,,,,,00083,2023-10-25_12h32.51.604,vbt_B1_day3,2022.2.4,MacIntel,125,,,,,,,,,,,,,,,,,,,,gebod,images/br_gebod.png,images/cb_gebod.png,,gebod,,,,,,,,,,,0.322222222,0.135555556,1,0,0,gebod,0,12,12,45,1
,,,,,00083,2023-10-25_12h32.51.604,vbt_B1_day3,2022.2.4,MacIntel,125,,,,,,,,,,,,,,,,,,,,prikken,images/br_prikken.png,images/cb_prikken.png,,prikken,,,,,,,,,,,0.347777778,0.113333333,1,0,0,prikken,0,13,13,12,1
,,,,,00083,2023-10-25_12h32.51.604,vbt_B1_day3,2022.2.4,MacIntel,125,,,,,,,,,,,,,,,,,,,,bisschop,images/br_bisschop.png,images/cb_bisschop.png,,bisschop,,,,,,,,,,,0.347777778,0.113333333,1,0,0,bisschop,0,14,14,16,1
,,,,,00083,2023-10-25_12h32.51.604,vbt_B1_day3,2022.2.4,MacIntel,125,,,,,,,,,,,,,,,,,,,,hier,images/br_hier.png,images/cb_hier.png,,hier,,,,,,,,,,,0.347777778,0.113333333,1,0,0,hier,0,15,15,1,1
,,,,,00083,2023-10-25_12h32.51.604,vbt_B1_day3,2022.2.4,MacIntel,125,,,,,,,,,,,,,,,,,,,,laken,images/br_laken.png,images/cb_laken.png,,laken,,,,,,,,,,,0.347777778,0.113333333,1,0,0,laken,0,16,16,5,1
,,,,,00083,2023-10-25_12h32.51.604,vbt_B1_day3,2022.2.4,MacIntel,125,,,,,,,,,,,,,,,,,,,,schodel,images/br_schodel.png,images/cb_schodel.png,,schodel,,,,,,,,,,,0.313333333,0.092222222,1,0,0,schodel,0,17,17,33,1
,,,,,00083,2023-10-25_12h32.51.604,vbt_B1_day3,2022.2.4,MacIntel,125,,,,,,,,,,,,,,,,,,,,kwaas,images/br_kwaas.png,images/cb_kwaas.png,,kwaas,,,,,,,,,,,0.252222222,0.088888889,1,0,0,kwaas,0,18,18,26,1
,,,,,00083,2023-10-25_12h32.51.604,vbt_B1_day3,2022.2.4,MacIntel,125,,,,,,,,,,,,,,,,,,,,mugeek,images/br_mugeek.png,images/cb_mugeek.png,,mugeek,,,,,,,,,,,0.245555556,0.137777778,1,0,0,mugeek,0,19,19,29,1
,,,,,00083,2023-10-25_12h32.51.604,vbt_B1_day3,2022.2.4,MacIntel,125,,,,,,,,,,,,,,,,,,,,paken,images/br_paken.png,images/cb_paken.png,,paken,,,,,,,,,,,0.245555556,0.137777778,1,0,0,paken,0,20,20,27,1
,,,,,00083,2023-10-25_12h32.51.604,vbt_B1_day3,2022.2.4,MacIntel,125,,,,,,,,,,,,,,,,,,,,leek,images/br_leek.png,images/cb_leek.png,,leek,,,,,,,,,,,0.245555556,0.137777778,1,0,0,leek,0,21,21,2,1
,,,,,00083,2023-10-25_12h32.51.604,vbt_B1_day3,2022.2.4,MacIntel,125,,,,,,,,,,,,,,,,,,,,steel,images/br_steel.png,images/cb_steel.png,,steel,,,,,,,,,,,0.245555556,0.137777778,1,0,0,steel,0,22,22,4,1
,,,,,00083,2023-10-25_12h32.51.604,vbt_B1_day3,2022.2.4,MacIntel,125,,,,,,,,,,,,,,,,,,,,kaas,images/br_kaas.png,images/cb_kaas.png,,kaas,,,,,,,,,,,0.245555556,0.137777778,1,0,0,kaas,0,23,23,42,1
,,,,,00083,2023-10-25_12h32.51.604,vbt_B1_day3,2022.2.4,MacIntel,125,,,,,,,,,,,,,,,,,,,,leemaken,images/br_leemaken.png,images/cb_leemaken.png,,leemaken,,,,,,,,,,,0.245555556,0.137777778,1,0,0,leemaken,0,24,24,39,1
,,,,,00083,2023-10-25_12h32.51.604,vbt_B1_day3,2022.2.4,MacIntel,125,,,,,,,,,,,,,,,,,,,,boeien,images/br_boeien.png,images/cb_boeien.png,,boeien,,,,,,,,,,,0.245555556,0.137777778,1,0,0,boeien,0,25,25,8,1
,,,,,00083,2023-10-25_12h32.51.604,vbt_B1_day3,2022.2.4,MacIntel,125,,,,,,,,,,,,,,,,,,,,verraden,images/br_verraden.png,images/cb_verraden.png,,verraden,,,,,,,,,,,0.245555556,0.137777778,1,0,0,verraden,0,26,26,58,1
,,,,,00083,2023-10-25_12h32.51.604,vbt_B1_day3,2022.2.4,MacIntel,125,,,,,,,,,,,,,,,,,,,,hust,images/br_hust.png,images/cb_hust.png,,hust,,,,,,,,,,,0.245555556,0.137777778,1,0,0,hust,0,27,27,23,1
,,,,,00083,2023-10-25_12h32.51.604,vbt_B1_day3,2022.2.4,MacIntel,125,,,,,,,,,,,,,,,,,,,,dwang,images/br_dwang.png,images/cb_dwang.png,,dwang,,,,,,,,,,,0.245555556,0.137777778,1,0,0,dwang,0,28,28,47,1
,,,,,00083,2023-10-25_12h32.51.604,vbt_B1_day3,2022.2.4,MacIntel,125,,,,,,,,,,,,,,,,,,,,keihard,images/br_keihard.png,images/cb_keihard.png,,keihard,,,,,,,,,,,0.245555556,0.137777778,1,0,0,keihard,0,29,29,14,1
,,,,,00083,2023-10-25_12h32.51.604,vbt_B1_day3,2022.2.4,MacIntel,125,,,,,,,,,,,,,,,,,,,,sluier,images/br_sluier.png,images/cb_sluier.png,,sluier,,,,,,,,,,,0.245555556,0.137777778,1,0,0,sluier,0,30,30,50,1
,,,,,00083,2023-10-25_12h32.51.604,vbt_B1_day3,2022.2.4,MacIntel,125,,,,,,,,,,,,,,,,,,,,verwoor,images/br_verwoor.png,images/cb_verwoor.png,,verwoor,,,,,,,,,,,0.206666667,0.137777778,1,0,0,verwoor,0,31,31,32,1
,,,,,00083,2023-10-25_12h32.51.604,vbt_B1_day3,2022.2.4,MacIntel,125,,,,,,,,,,,,,,,,,,,,mode,images/br_mode.png,images/cb_mode.png,,mode,,,,,,,,,,,0.206666667,0.137777778,1,0,0,mode,0,32,32,3,1
,,,,,00083,2023-10-25_12h32.51.604,vbt_B1_day3,2022.2.4,MacIntel,125,,,,,,,,,,,,,,,,,,,,theeting,images/br_theeting.png,images/cb_theeting.png,,theetijd,,,,,,,,,,,0.161111111,-0.031111111,1,0,0,theetijd,0,33,33,38,1
,,,,,00083,2023-10-25_12h32.51.604,vbt_B1_day3,2022.2.4,MacIntel,125,,,,,,,,,,,,,,,,,,,,jongelui,images/br_jongelui.png,images/cb_jongelui.png,,jongleren,,,,,,,,,,,0.075555556,-0.085555556,1,0,0,jongleren,0,34,34,59,1
,,,,,00083,2023-10-25_12h32.51.604,vbt_B1_day3,2022.2.4,MacIntel,125,,,,,,,,,,,,,,,,,,,,stallen,images/br_stallen.png,images/cb_stallen.png,,stallen,,,,,,,,,,,0.075555556,-0.085555556,1,0,0,stallen,0,35,35,52,1
,,,,,00083,2023-10-25_12h32.51.604,vbt_B1_day3,2022.2.4,MacIntel,125,,,,,,,,,,,,,,,,,,,,begrip,images/br_begrip.png,images/cb_begrip.png,,begrip,,,,,,,,,,,0.182222222,0.007777778,1,0,0,begrip,0,36,36,48,1
,,,,,00083,2023-10-25_12h32.51.604,vbt_B1_day3,2022.2.4,MacIntel,125,,,,,,,,,,,,,,,,,,,,brappen,images/br_brappen.png,images/cb_brappen.png,,brappen,,,,,,,,,,,0.182222222,0.007777778,1,0,0,brappen,0,37,37,35,1
,,,,,00083,2023-10-25_12h32.51.604,vbt_B1_day3,2022.2.4,MacIntel,125,,,,,,,,,,,,,,,,,,,,opzetten,images/br_opzetten.png,images/cb_opzetten.png,,opzetten,,,,,,,,,,,0.344444444,0.108888889,1,0,0,opzetten,0,38,38,56,1
,,,,,00083,2023-10-25_12h32.51.604,vbt_B1_day3,2022.2.4,MacIntel,125,,,,,,,,,,,,,,,,,,,,leugeren,images/br_leugeren.png,images/cb_leugeren.png,,leugeren,,,,,,,,,,,0.344444444,0.108888889,1,0,0,leugeren,0,39,39,37,1
,,,,,00083,2023-10-25_12h32.51.604,vbt_B1_day3,2022.2.4,MacIntel,125,,,,,,,,,,,,,,,,,,,,oprotten,images/br_oprotten.png,images/cb_oprotten.png,,oprotten,,,,,,,,,,,0.344444444,0.108888889,1,0,0,oprotten,0,40,40,17,1
,,,,,00083,2023-10-25_12h32.51.604,vbt_B1_day3,2022.2.4,MacIntel,125,,,,,,,,,,,,,,,,,,,,schatten,images/br_schatten.png,images/cb_schatten.png,,schatten,,,,,,,,,,,0.344444444,0.108888889,1,0,0,schatten,0,41,41,18,1
,,,,,00083,2023-10-25_12h32.51.604,vbt_B1_day3,2022.2.4,MacIntel,125,,,,,,,,,,,,,,,,,,,,zone,images/br_zone.png,images/cb_zone.png,,zone,,,,,,,,,,,0.344444444,0.108888889,1,0,0,zone,0,42,42,41,1
,,,,,00083,2023-10-25_12h32.51.604,vbt_B1_day3,2022.2.4,MacIntel,125,,,,,,,,,,,,,,,,,,,,stoom,images/br_stoom.png,images/cb_stoom.png,,stoom,,,,,,,,,,,0.344444444,0.108888889,1,0,0,stoom,0,43,43,6,1
,,,,,00083,2023-10-25_12h32.51.604,vbt_B1_day3,2022.2.4,MacIntel,125,,,,,,,,,,,,,,,,,,,,beslag,images/br_beslag.png,images/cb_beslag.png,,beslag,,,,,,,,,,,0.344444444,0.108888889,1,0,0,beslag,0,44,44,51,1
,,,,,00083,2023-10-25_12h32.51.604,vbt_B1_day3,2022.2.4,MacIntel,125,,,,,,,,,,,,,,,,,,,,glijden,images/br_glijden.png,images/cb_glijden.png,,glijden,,,,,,,,,,,0.344444444,0.108888889,1,0,0,glijden,0,45,45,53,1
,,,,,00083,2023-10-25_12h32.51.604,vbt_B1_day3,2022.2.4,MacIntel,125,,,,,,,,,,,,,,,,,,,,kest,images/br_kest.png,images/cb_kest.png,,kest,,,,,,,,,,,0.344444444,0.108888889,1,0,0,kest,0,46,46,21,1
,,,,,00083,2023-10-25_12h32.51.604,vbt_B1_day3,2022.2.4,MacIntel,125,,,,,,,,,,,,,,,,,,,,alsof,images/br_alsof.png,images/cb_alsof.png,,alsof,,,,,,,,,,,0.344444444,0.108888889,1,0,0,alsof,0,47,47,44,1
,,,,,00083,2023-10-25_12h32.51.604,vbt_B1_day3,2022.2.4,MacIntel,125,,,,,,,,,,,,,,,,,,,,verhaal,images/br_verhaal.png,images/cb_verhaal.png,,verhaal,,,,,,,,,,,0.344444444,0.108888889,1,0,0,verhaal,0,48,48,13,1
,,,,,00083,2023-10-25_12h32.51.604,vbt_B1_day3,2022.2.4,MacIntel,125,,,,,,,,,,,,,,,,,,,,aarzelen,images/br_aarzelen.png,images/cb_aarzelen.png,,aarzelen,,,,,,,,,,,0.344444444,0.108888889,1,0,0,aarzelen,0,49,49,19,1
,,,,,00083,2023-10-25_12h32.51.604,vbt_B1_day3,2022.2.4,MacIntel,125,,,,,,,,,,,,,,,,,,,,samen,images/br_samen.png,images/cb_samen.png,,samen,,,,,,,,,,,0.344444444,0.108888889,1,0,0,samen,0,50,50,7,1
,,,,,00083,2023-10-25_12h32.51.604,vbt_B1_day3,2022.2.4,MacIntel,125,,,,,,,,,,,,,,,,,,,,slapen,images/br_slapen.png,images/cb_slapen.png,,slapen,,,,,,,,,,,0.344444444,0.108888889,1,0,0,slapen,0,51,51,9,1
,,,,,00083,2023-10-25_12h32.51.604,vbt_B1_day3,2022.2.4,MacIntel,125,,,,,,,,,,,,,,,,,,,,onrecht,images/br_onrecht.png,images/cb_onrecht.png,,onrecht,,,,,,,,,,,0.344444444,0.108888889,1,0,0,onrecht,0,52,52,55,1
,,,,,00083,2023-10-25_12h32.51.604,vbt_B1_day3,2022.2.4,MacIntel,125,,,,,,,,,,,,,,,,,,,,twaaf,images/br_twaaf.png,images/cb_twaaf.png,,twaaf,,,,,,,,,,,0.344444444,0.108888889,1,0,0,twaaf,0,53,53,24,1
,,,,,00083,2023-10-25_12h32.51.604,vbt_B1_day3,2022.2.4,MacIntel,125,,,,,,,,,,,,,,,,,,,,bevret,images/br_bevret.png,images/cb_bevret.png,,bevret,,,,,,,,,,,0.344444444,0.108888889,1,0,0,bevret,0,54,54,30,1
,,,,,00083,2023-10-25_12h32.51.604,vbt_B1_day3,2022.2.4,MacIntel,125,,,,,,,,,,,,,,,,,,,,sultan,images/br_sultan.png,images/cb_sultan.png,,sultan,,,,,,,,,,,0.344444444,0.108888889,1,0,0,sultan,0,55,55,49,1
,,,,,00083,2023-10-25_12h32.51.604,vbt_B1_day3,2022.2.4,MacIntel,125,,,,,,,,,,,,,,,,,,,,gezond,images/br_gezond.png,images/cb_gezond.png,,gezond,,,,,,,,,,,0.344444444,0.108888889,1,0,0,gezond,0,56,56,11,1
,,,,,00083,2023-10-25_12h32.51.604,vbt_B1_day3,2022.2.4,MacIntel,125,,,,,,,,,,,,,,,,,,,,gout,images/br_gout.png,images/cb_gout.png,,gout,,,,,,,,,,,0.331111111,0.107777778,1,0,0,gout,0,57,57,20,1
,,,,,00083,2023-10-25_12h32.51.604,vbt_B1_day3,2022.2.4,MacIntel,125,,,,,,,,,,,,,,,,,,,,invallen,images/br_invallen.png,images/cb_invallen.png,,invallen,,,,,,,,,,,0.331111111,0.107777778,1,0,0,invallen,0,58,58,57,1
,,,,,00083,2023-10-25_12h32.51.604,vbt_B1_day3,2022.2.4,MacIntel,125,,,,,,,,,,,,,,,,,,,,afbopen,images/br_afbopen.png,images/cb_afbopen.png,,afbopen,,,,,,,,,,,0.274444444,0.084444444,1,0,0,afbopen,0,59,59,34,1
,,,,,00083,2023-10-25_12h32.51.604,vbt_B1_day3,2022.2.4,MacIntel,125,,,,,,,,,,,,,,,,,,,,,,,,,,,,,,,,,,,,,,,,,,,,,
