welcome_mouse.x,welcome_mouse.y,welcome_mouse.leftButton,welcome_mouse.midButton,welcome_mouse.rightButton,"ID",date,expName,psychopyVersion,OS,frameRate,trainInstr_mouse.x,trainInstr_mouse.y,trainInstr_mouse.leftButton,trainInstr_mouse.midButton,trainInstr_mouse.rightButton,translation_key.keys,translation_key.corr,translation_key.rt,word_rsp.text,trWrd_mouse.x,trWrd_mouse.y,trWrd_mouse.leftButton,trWrd_mouse.midButton,trWrd_mouse.rightButton,train_loop.thisRepN,train_loop.thisTrialN,train_loop.thisN,train_loop.thisIndex,train_loop.ran,nlWrd,brWrd,cbWrd,test,testResp,mouse.x,mouse.y,mouse.leftButton,mouse.midButton,mouse.rightButton,testInstr_mouse.x,testInstr_mouse.y,testInstr_mouse.leftButton,testInstr_mouse.midButton,testInstr_mouse.rightButton,test_mouse.x,test_mouse.y,test_mouse.leftButton,test_mouse.midButton,test_mouse.rightButton,test_response.text,test_loop.thisRepN,test_loop.thisTrialN,test_loop.thisN,test_loop.thisIndex,test_loop.ran
-0.05146464,-0.149212307,1,0,0,00100,2023-11-10_14h47.08.575,vbt_B1_day3,2022.2.4,MacIntel,60.0024001,,,,,,,,,,,,,,,,,,,,,,,,,,,,,,,,,,,,,,,,,,,,,
,,,,,00100,2023-11-10_14h47.08.575,vbt_B1_day3,2022.2.4,MacIntel,60.0024001,-0.051214125,-0.15024943,1,0,0,,,,,,,,,,,,,,,,,,,,,,,,,,,,,,,,,,,,,,,,
,,,,,00100,2023-11-10_14h47.08.575,vbt_B1_day3,2022.2.4,MacIntel,60.0024001,,,,,,down,0,7.5536,,0.430808377,0.144846937,1,0,0,0,0,0,193,1,weeshuis,images/br_weeshuis.png,images/cb_weeshuis.png,0,,,,,,,,,,,,,,,,,,,,,,
,,,,,00100,2023-11-10_14h47.08.575,vbt_B1_day3,2022.2.4,MacIntel,60.0024001,,,,,,down,0,5.7328,,0.430808377,0.144846937,1,0,0,0,1,1,119,1,liefje,images/br_liefje.png,images/cb_liefje.png,0,,,,,,,,,,,,,,,,,,,,,,
,,,,,00100,2023-11-10_14h47.08.575,vbt_B1_day3,2022.2.4,MacIntel,60.0024001,,,,,,down,0,4.1026,,0.430808377,0.144846937,1,0,0,0,2,2,115,1,kleren,images/br_kleren.png,images/cb_kleren.png,0,,,,,,,,,,,,,,,,,,,,,,
,,,,,00100,2023-11-10_14h47.08.575,vbt_B1_day3,2022.2.4,MacIntel,60.0024001,,,,,,down,0,3.8671,,0.430808377,0.144846937,1,0,0,0,3,3,62,1,knaap,images/br_knaap.png,images/cb_knaap.png,1,knaap,,,,,,,,,,,,,,,,,,,,,
,,,,,00100,2023-11-10_14h47.08.575,vbt_B1_day3,2022.2.4,MacIntel,60.0024001,,,,,,down,0,1.3334,,0.430808377,0.144846937,1,0,0,0,4,4,10,1,leek,images/br_leek.png,images/cb_leek.png,0,,,,,,,,,,,,,,,,,,,,,,
,,,,,00100,2023-11-10_14h47.08.575,vbt_B1_day3,2022.2.4,MacIntel,60.0024001,,,,,,down,0,4.1505,,0.430808377,0.144846937,1,0,0,0,5,5,78,1,leren,images/br_leren.png,images/cb_leren.png,0,,,,,,,,,,,,,,,,,,,,,,
,,,,,00100,2023-11-10_14h47.08.575,vbt_B1_day3,2022.2.4,MacIntel,60.0024001,,,,,,down,0,2.6326,,0.430808377,0.144846937,1,0,0,0,6,6,27,1,dans,images/br_dans.png,images/cb_dans.png,0,,,,,,,,,,,,,,,,,,,,,,
,,,,,00100,2023-11-10_14h47.08.575,vbt_B1_day3,2022.2.4,MacIntel,60.0024001,,,,,,down,0,2.0864,,0.430808377,0.144846937,1,0,0,0,7,7,103,1,joggen,images/br_joggen.png,images/cb_joggen.png,1,joggen,,,,,,,,,,,,,,,,,,,,,
,,,,,00100,2023-11-10_14h47.08.575,vbt_B1_day3,2022.2.4,MacIntel,60.0024001,,,,,,down,0,7.3828,,0.430808377,0.144846937,1,0,0,0,8,8,167,1,eenhoorn,images/br_eenhoorn.png,images/cb_eenhoorn.png,0,,,,,,,,,,,,,,,,,,,,,,
,,,,,00100,2023-11-10_14h47.08.575,vbt_B1_day3,2022.2.4,MacIntel,60.0024001,,,,,,down,0,3.0832,,0.430808377,0.144846937,1,0,0,0,9,9,95,1,vreten,images/br_vreten.png,images/cb_vreten.png,0,,,,,,,,,,,,,,,,,,,,,,
,,,,,00100,2023-11-10_14h47.08.575,vbt_B1_day3,2022.2.4,MacIntel,60.0024001,,,,,,down,0,1.3502,,0.430808377,0.144846937,1,0,0,0,10,10,16,1,ziek,images/br_ziek.png,images/cb_ziek.png,0,,,,,,,,,,,,,,,,,,,,,,
,,,,,00100,2023-11-10_14h47.08.575,vbt_B1_day3,2022.2.4,MacIntel,60.0024001,,,,,,down,0,0.9172,,0.430808377,0.144846937,1,0,0,0,11,11,38,1,baai,images/br_baai.png,images/cb_baai.png,0,,,,,,,,,,,,,,,,,,,,,,
,,,,,00100,2023-11-10_14h47.08.575,vbt_B1_day3,2022.2.4,MacIntel,60.0024001,,,,,,down,0,0.4838,,0.428738607,0.143992377,1,0,0,0,12,12,64,1,wegen,images/br_wegen.png,images/cb_wegen.png,0,,,,,,,,,,,,,,,,,,,,,,
,,,,,00100,2023-11-10_14h47.08.575,vbt_B1_day3,2022.2.4,MacIntel,60.0024001,,,,,,down,0,1.6006,,0.428183051,0.143436822,1,0,0,0,13,13,132,1,grappen,images/br_grappen.png,images/cb_grappen.png,0,,,,,,,,,,,,,,,,,,,,,,
,,,,,00100,2023-11-10_14h47.08.575,vbt_B1_day3,2022.2.4,MacIntel,60.0024001,,,,,,down,0,6.0509,,0.428183051,0.143436822,1,0,0,0,14,14,159,1,sufferd,images/br_sufferd.png,images/cb_sufferd.png,0,,,,,,,,,,,,,,,,,,,,,,
,,,,,00100,2023-11-10_14h47.08.575,vbt_B1_day3,2022.2.4,MacIntel,60.0024001,,,,,,down,0,3.4688,,0.428183051,0.142093235,1,0,0,0,15,15,8,1,knie,images/br_knie.png,images/cb_knie.png,0,,,,,,,,,,,,,,,,,,,,,,
,,,,,00100,2023-11-10_14h47.08.575,vbt_B1_day3,2022.2.4,MacIntel,60.0024001,,,,,,down,0,7.6829,,0.428183051,0.142093235,1,0,0,0,16,16,121,1,twijfel,images/br_twijfel.png,images/cb_twijfel.png,0,,,,,,,,,,,,,,,,,,,,,,
,,,,,00100,2023-11-10_14h47.08.575,vbt_B1_day3,2022.2.4,MacIntel,60.0024001,,,,,,down,0,1.9027,,0.427945692,0.142093235,1,0,0,0,17,17,50,1,stoom,images/br_stoom.png,images/cb_stoom.png,0,,,,,,,,,,,,,,,,,,,,,,
,,,,,00100,2023-11-10_14h47.08.575,vbt_B1_day3,2022.2.4,MacIntel,60.0024001,,,,,,down,0,6.8337,,0.426602105,0.142093235,1,0,0,0,18,18,143,1,hechten,images/br_hechten.png,images/cb_hechten.png,1,hechten,,,,,,,,,,,,,,,,,,,,,
,,,,,00100,2023-11-10_14h47.08.575,vbt_B1_day3,2022.2.4,MacIntel,60.0024001,,,,,,down,0,7.5169,,0.426602105,0.142093235,1,0,0,0,19,19,125,1,aanzien,images/br_aanzien.png,images/cb_aanzien.png,0,,,,,,,,,,,,,,,,,,,,,,
,,,,,00100,2023-11-10_14h47.08.575,vbt_B1_day3,2022.2.4,MacIntel,60.0024001,,,,,,down,0,15.4888,,0.426602105,0.142093235,1,0,0,0,20,20,152,1,afnemen,images/br_afnemen.png,images/cb_afnemen.png,0,,,,,,,,,,,,,,,,,,,,,,
,,,,,00100,2023-11-10_14h47.08.575,vbt_B1_day3,2022.2.4,MacIntel,60.0024001,,,,,,down,0,2.2343,,0.426602105,0.142093235,1,0,0,0,21,21,88,1,boeien,images/br_boeien.png,images/cb_boeien.png,0,,,,,,,,,,,,,,,,,,,,,,
,,,,,00100,2023-11-10_14h47.08.575,vbt_B1_day3,2022.2.4,MacIntel,60.0024001,,,,,,down,0,13.9713,,0.764705946,0.18141961,1,0,0,0,22,22,165,1,feestdag,images/br_feestdag.png,images/cb_feestdag.png,0,,,,,,,,,,,,,,,,,,,,,,
,,,,,00100,2023-11-10_14h47.08.575,vbt_B1_day3,2022.2.4,MacIntel,60.0024001,,,,,,down,0,8.7159,,0.249399482,-0.007326423,1,0,0,0,23,23,164,1,anarchie,images/br_anarchie.png,images/cb_anarchie.png,0,,,,,,,,,,,,,,,,,,,,,,
,,,,,00100,2023-11-10_14h47.08.575,vbt_B1_day3,2022.2.4,MacIntel,60.0024001,,,,,,down,0,1.0183,,0.249399482,-0.007088962,1,0,0,0,24,24,17,1,taal,images/br_taal.png,images/cb_taal.png,0,,,,,,,,,,,,,,,,,,,,,,
,,,,,00100,2023-11-10_14h47.08.575,vbt_B1_day3,2022.2.4,MacIntel,60.0024001,,,,,,down,0,1.6831,,0.249399482,-0.00637458,1,0,0,0,25,25,85,1,heilig,images/br_heilig.png,images/cb_heilig.png,0,,,,,,,,,,,,,,,,,,,,,,
,,,,,00100,2023-11-10_14h47.08.575,vbt_B1_day3,2022.2.4,MacIntel,60.0024001,,,,,,down,0,4.8176,,0.249399482,-0.00637458,1,0,0,0,26,26,116,1,besmet,images/br_besmet.png,images/cb_besmet.png,0,,,,,,,,,,,,,,,,,,,,,,
,,,,,00100,2023-11-10_14h47.08.575,vbt_B1_day3,2022.2.4,MacIntel,60.0024001,,,,,,down,0,3.25,,0.249399482,-0.00637458,1,0,0,0,27,27,83,1,mening,images/br_mening.png,images/cb_mening.png,0,,,,,,,,,,,,,,,,,,,,,,
,,,,,00100,2023-11-10_14h47.08.575,vbt_B1_day3,2022.2.4,MacIntel,60.0024001,,,,,,down,0,4.9002,,0.249399482,-0.00637458,1,0,0,0,28,28,176,1,techniek,images/br_techniek.png,images/cb_techniek.png,0,,,,,,,,,,,,,,,,,,,,,,
,,,,,00100,2023-11-10_14h47.08.575,vbt_B1_day3,2022.2.4,MacIntel,60.0024001,,,,,,down,0,16.1175,,0.249399482,-0.00637458,1,0,0,0,29,29,192,1,schaamte,images/br_schaamte.png,images/cb_schaamte.png,0,,,,,,,,,,,,,,,,,,,,,,
,,,,,00100,2023-11-10_14h47.08.575,vbt_B1_day3,2022.2.4,MacIntel,60.0024001,,,,,,down,0,5.6179,,0.248906386,-0.005547146,1,0,0,0,30,30,183,1,getuigen,images/br_getuigen.png,images/cb_getuigen.png,1,getuigen,,,,,,,,,,,,,,,,,,,,,
,,,,,00100,2023-11-10_14h47.08.575,vbt_B1_day3,2022.2.4,MacIntel,60.0024001,,,,,,down,0,2.7163,,0.248906386,-0.005547146,1,0,0,0,31,31,138,1,akkoord,images/br_akkoord.png,images/cb_akkoord.png,0,,,,,,,,,,,,,,,,,,,,,,
,,,,,00100,2023-11-10_14h47.08.575,vbt_B1_day3,2022.2.4,MacIntel,60.0024001,,,,,,down,0,1.9063,,0.248906386,-0.005547146,1,0,0,0,32,32,150,1,gegeven,images/br_gegeven.png,images/cb_gegeven.png,0,,,,,,,,,,,,,,,,,,,,,,
,,,,,00100,2023-11-10_14h47.08.575,vbt_B1_day3,2022.2.4,MacIntel,60.0024001,,,,,,down,0,3.8186,,0.248906386,-0.005547146,1,0,0,0,33,33,67,1,zwart,images/br_zwart.png,images/cb_zwart.png,0,,,,,,,,,,,,,,,,,,,,,,
,,,,,00100,2023-11-10_14h47.08.575,vbt_B1_day3,2022.2.4,MacIntel,60.0024001,,,,,,down,0,0.8498,,0.243396539,-0.029982198,1,0,0,0,34,34,48,1,steel,images/br_steel.png,images/cb_steel.png,0,,,,,,,,,,,,,,,,,,,,,,
,,,,,00100,2023-11-10_14h47.08.575,vbt_B1_day3,2022.2.4,MacIntel,60.0024001,,,,,,down,0,8.9005,,0.24315918,-0.030239088,1,0,0,0,35,35,197,1,spanning,images/br_spanning.png,images/cb_spanning.png,0,,,,,,,,,,,,,,,,,,,,,,
,,,,,00100,2023-11-10_14h47.08.575,vbt_B1_day3,2022.2.4,MacIntel,60.0024001,,,,,,down,0,2.2679,,0.24315918,-0.029688416,1,0,0,0,36,36,175,1,heengaan,images/br_heengaan.png,images/cb_heengaan.png,0,,,,,,,,,,,,,,,,,,,,,,
,,,,,00100,2023-11-10_14h47.08.575,vbt_B1_day3,2022.2.4,MacIntel,60.0024001,,,,,,down,0,0.5629,,0.24315918,-0.029688416,1,0,0,0,37,37,32,1,palm,images/br_palm.png,images/cb_palm.png,0,,,,,,,,,,,,,,,,,,,,,,
,,,,,00100,2023-11-10_14h47.08.575,vbt_B1_day3,2022.2.4,MacIntel,60.0024001,,,,,,down,0,2.5666,,0.24315918,-0.029688416,1,0,0,0,38,38,171,1,aarzelen,images/br_aarzelen.png,images/cb_aarzelen.png,0,,,,,,,,,,,,,,,,,,,,,,
,,,,,00100,2023-11-10_14h47.08.575,vbt_B1_day3,2022.2.4,MacIntel,60.0024001,,,,,,down,0,1.6485,,0.242921753,-0.029688416,1,0,0,0,39,39,73,1,volop,images/br_volop.png,images/cb_volop.png,0,,,,,,,,,,,,,,,,,,,,,,
,,,,,00100,2023-11-10_14h47.08.575,vbt_B1_day3,2022.2.4,MacIntel,60.0024001,,,,,,down,0,3.1171,,0.241810642,-0.029688416,1,0,0,0,40,40,92,1,geheim,images/br_geheim.png,images/cb_geheim.png,0,,,,,,,,,,,,,,,,,,,,,,
,,,,,00100,2023-11-10_14h47.08.575,vbt_B1_day3,2022.2.4,MacIntel,60.0024001,,,,,,down,0,5.7014,,0.240192803,-0.030987379,1,0,0,0,41,41,45,1,piste,images/br_piste.png,images/cb_piste.png,0,,,,,,,,,,,,,,,,,,,,,,
,,,,,00100,2023-11-10_14h47.08.575,vbt_B1_day3,2022.2.4,MacIntel,60.0024001,,,,,,down,0,3.5844,,0.240192803,-0.030987379,1,0,0,0,42,42,141,1,knielen,images/br_knielen.png,images/cb_knielen.png,1,knielen,,,,,,,,,,,,,,,,,,,,,
,,,,,00100,2023-11-10_14h47.08.575,vbt_B1_day3,2022.2.4,MacIntel,60.0024001,,,,,,down,0,2.8392,,0.240192803,-0.030987379,1,0,0,0,43,43,86,1,woning,images/br_woning.png,images/cb_woning.png,0,,,,,,,,,,,,,,,,,,,,,,
,,,,,00100,2023-11-10_14h47.08.575,vbt_B1_day3,2022.2.4,MacIntel,60.0024001,,,,,,down,0,2.767,,0.240430162,-0.030987379,1,0,0,0,44,44,90,1,geluid,images/br_geluid.png,images/cb_geluid.png,0,,,,,,,,,,,,,,,,,,,,,,
,,,,,00100,2023-11-10_14h47.08.575,vbt_B1_day3,2022.2.4,MacIntel,60.0024001,,,,,,down,0,2.4512,,0.240430162,-0.032941928,1,0,0,0,45,45,114,1,vullen,images/br_vullen.png,images/cb_vullen.png,0,,,,,,,,,,,,,,,,,,,,,,
,,,,,00100,2023-11-10_14h47.08.575,vbt_B1_day3,2022.2.4,MacIntel,60.0024001,,,,,,down,0,0.9991,,0.24015252,-0.033507555,1,0,0,0,46,46,52,1,wagon,images/br_wagon.png,images/cb_wagon.png,0,,,,,,,,,,,,,,,,,,,,,,
,,,,,00100,2023-11-10_14h47.08.575,vbt_B1_day3,2022.2.4,MacIntel,60.0024001,,,,,,down,0,2.4016,,0.24015252,-0.033507555,1,0,0,0,47,47,15,1,soda,images/br_soda.png,images/cb_soda.png,0,,,,,,,,,,,,,,,,,,,,,,
,,,,,00100,2023-11-10_14h47.08.575,vbt_B1_day3,2022.2.4,MacIntel,60.0024001,,,,,,down,0,4.2335,,0.24015252,-0.033507555,1,0,0,0,48,48,70,1,ijdel,images/br_ijdel.png,images/cb_ijdel.png,0,,,,,,,,,,,,,,,,,,,,,,
,,,,,00100,2023-11-10_14h47.08.575,vbt_B1_day3,2022.2.4,MacIntel,60.0024001,,,,,,down,0,7.5669,,0.24015252,-0.033507555,1,0,0,0,49,49,162,1,uitdelen,images/br_uitdelen.png,images/cb_uitdelen.png,0,,,,,,,,,,,,,,,,,,,,,,
,,,,,00100,2023-11-10_14h47.08.575,vbt_B1_day3,2022.2.4,MacIntel,60.0024001,,,,,,down,0,9.3335,,0.24015252,-0.033507555,1,0,0,0,50,50,154,1,aflopen,images/br_aflopen.png,images/cb_aflopen.png,0,,,,,,,,,,,,,,,,,,,,,,
,,,,,00100,2023-11-10_14h47.08.575,vbt_B1_day3,2022.2.4,MacIntel,60.0024001,,,,,,down,0,3.8339,,0.24015252,-0.033270196,1,0,0,0,51,51,137,1,trekker,images/br_trekker.png,images/cb_trekker.png,0,,,,,,,,,,,,,,,,,,,,,,
,,,,,00100,2023-11-10_14h47.08.575,vbt_B1_day3,2022.2.4,MacIntel,60.0024001,,,,,,down,0,14.8176,,-0.260648668,0.042243381,1,0,0,0,52,52,172,1,weigeren,images/br_weigeren.png,images/cb_weigeren.png,0,,,,,,,,,,,,,,,,,,,,,,
,,,,,00100,2023-11-10_14h47.08.575,vbt_B1_day3,2022.2.4,MacIntel,60.0024001,,,,,,down,0,3.0673,,-0.211235623,-0.00401964,1,0,0,0,53,53,34,1,vorm,images/br_vorm.png,images/cb_vorm.png,0,,,,,,,,,,,,,,,,,,,,,,
,,,,,00100,2023-11-10_14h47.08.575,vbt_B1_day3,2022.2.4,MacIntel,60.0024001,,,,,,down,0,2.5993,,-0.177184923,-0.014120212,1,0,0,0,54,54,3,1,mand,images/br_mand.png,images/cb_mand.png,0,,,,,,,,,,,,,,,,,,,,,,
,,,,,00100,2023-11-10_14h47.08.575,vbt_B1_day3,2022.2.4,MacIntel,60.0024001,,,,,,down,0,5.4879,,-0.177184923,-0.014675768,1,0,0,0,55,55,156,1,rechten,images/br_rechten.png,images/cb_rechten.png,0,,,,,,,,,,,,,,,,,,,,,,
,,,,,00100,2023-11-10_14h47.08.575,vbt_B1_day3,2022.2.4,MacIntel,60.0024001,,,,,,down,0,13.5507,,-0.027649333,0.295138329,1,0,0,0,56,56,187,1,opkijken,images/br_opkijken.png,images/cb_opkijken.png,0,,,,,,,,,,,,,,,,,,,,,,
,,,,,00100,2023-11-10_14h47.08.575,vbt_B1_day3,2022.2.4,MacIntel,60.0024001,,,,,,down,0,0.883,,-0.024008789,0.24942632,1,0,0,0,57,57,0,1,slak,images/br_slak.png,images/cb_slak.png,0,,,,,,,,,,,,,,,,,,,,,,
,,,,,00100,2023-11-10_14h47.08.575,vbt_B1_day3,2022.2.4,MacIntel,60.0024001,,,,,,down,0,3.2232,,-0.024008789,0.250412157,1,0,0,0,58,58,136,1,waarbij,images/br_waarbij.png,images/cb_waarbij.png,0,,,,,,,,,,,,,,,,,,,,,,
,,,,,00100,2023-11-10_14h47.08.575,vbt_B1_day3,2022.2.4,MacIntel,60.0024001,,,,,,down,0,8.206,,-0.024008789,0.250412157,1,0,0,0,59,59,155,1,gerucht,images/br_gerucht.png,images/cb_gerucht.png,0,,,,,,,,,,,,,,,,,,,,,,
,,,,,00100,2023-11-10_14h47.08.575,vbt_B1_day3,2022.2.4,MacIntel,60.0024001,,,,,,down,0,5.3692,,-0.016441176,0.23942298,1,0,0,0,60,60,182,1,bijkomen,images/br_bijkomen.png,images/cb_bijkomen.png,1,bijkomen,,,,,,,,,,,,,,,,,,,,,
,,,,,00100,2023-11-10_14h47.08.575,vbt_B1_day3,2022.2.4,MacIntel,60.0024001,,,,,,down,0,6.4552,,-0.016441176,0.23942298,1,0,0,0,61,61,142,1,snuiven,images/br_snuiven.png,images/cb_snuiven.png,1,snuiven,,,,,,,,,,,,,,,,,,,,,
,,,,,00100,2023-11-10_14h47.08.575,vbt_B1_day3,2022.2.4,MacIntel,60.0024001,,,,,,down,0,4.246,,0.070291748,0.183511963,1,0,0,0,62,62,53,1,baron,images/br_baron.png,images/cb_baron.png,0,,,,,,,,,,,,,,,,,,,,,,
,,,,,00100,2023-11-10_14h47.08.575,vbt_B1_day3,2022.2.4,MacIntel,60.0024001,,,,,,down,0,8.7286,,0.070291748,0.183511963,1,0,0,0,63,63,195,1,middelen,images/br_middelen.png,images/cb_middelen.png,0,,,,,,,,,,,,,,,,,,,,,,
,,,,,00100,2023-11-10_14h47.08.575,vbt_B1_day3,2022.2.4,MacIntel,60.0024001,,,,,,down,0,2.0011,,0.114802856,-7.95492E-05,1,0,0,0,64,64,41,1,maken,images/br_maken.png,images/cb_maken.png,0,,,,,,,,,,,,,,,,,,,,,,
,,,,,00100,2023-11-10_14h47.08.575,vbt_B1_day3,2022.2.4,MacIntel,60.0024001,,,,,,down,0,2.0025,,0.091997342,-0.001899482,1,0,0,0,65,65,54,1,gebit,images/br_gebit.png,images/cb_gebit.png,0,,,,,,,,,,,,,,,,,,,,,,
,,,,,00100,2023-11-10_14h47.08.575,vbt_B1_day3,2022.2.4,MacIntel,60.0024001,,,,,,down,0,1.6013,,0.08894416,-0.000710144,1,0,0,0,66,66,101,1,staren,images/br_staren.png,images/cb_staren.png,1,staren,,,,,,,,,,,,,,,,,,,,,
,,,,,00100,2023-11-10_14h47.08.575,vbt_B1_day3,2022.2.4,MacIntel,60.0024001,,,,,,down,0,3.2515,,-0.027857123,-0.218690389,1,0,0,0,67,67,9,1,hier,images/br_hier.png,images/cb_hier.png,0,,,,,,,,,,,,,,,,,,,,,,
,,,,,00100,2023-11-10_14h47.08.575,vbt_B1_day3,2022.2.4,MacIntel,60.0024001,,,,,,down,0,2.1676,,0.161223416,0.011036377,1,0,0,0,68,68,77,1,woede,images/br_woede.png,images/cb_woede.png,0,,,,,,,,,,,,,,,,,,,,,,
,,,,,00100,2023-11-10_14h47.08.575,vbt_B1_day3,2022.2.4,MacIntel,60.0024001,,,,,,down,0,3.0335,,0.161223416,0.011036377,1,0,0,0,69,69,130,1,keihard,images/br_keihard.png,images/cb_keihard.png,0,,,,,,,,,,,,,,,,,,,,,,
,,,,,00100,2023-11-10_14h47.08.575,vbt_B1_day3,2022.2.4,MacIntel,60.0024001,,,,,,down,0,1.3677,,0.156333279,-0.001916504,1,0,0,0,70,70,21,1,mist,images/br_mist.png,images/cb_mist.png,1,mist,,,,,,,,,,,,,,,,,,,,,
,,,,,00100,2023-11-10_14h47.08.575,vbt_B1_day3,2022.2.4,MacIntel,60.0024001,,,,,,down,0,3.1023,,0.156333279,-0.001916504,1,0,0,0,71,71,87,1,toeval,images/br_toeval.png,images/cb_toeval.png,0,,,,,,,,,,,,,,,,,,,,,,
,,,,,00100,2023-11-10_14h47.08.575,vbt_B1_day3,2022.2.4,MacIntel,60.0024001,,,,,,down,0,5.7333,,0.204405382,-0.084191488,1,0,0,0,72,72,99,1,koffie,images/br_koffie.png,images/cb_koffie.png,0,,,,,,,,,,,,,,,,,,,,,,
,,,,,00100,2023-11-10_14h47.08.575,vbt_B1_day3,2022.2.4,MacIntel,60.0024001,,,,,,down,0,0.5996,,0.204405382,-0.084191488,1,0,0,0,73,73,65,1,parel,images/br_parel.png,images/cb_parel.png,0,,,,,,,,,,,,,,,,,,,,,,
,,,,,00100,2023-11-10_14h47.08.575,vbt_B1_day3,2022.2.4,MacIntel,60.0024001,,,,,,down,0,2.5511,,0.197236871,-0.084580078,1,0,0,0,74,74,102,1,legaal,images/br_legaal.png,images/cb_legaal.png,1,legaal,,,,,,,,,,,,,,,,,,,,,
,,,,,00100,2023-11-10_14h47.08.575,vbt_B1_day3,2022.2.4,MacIntel,60.0024001,,,,,,down,0,4.8511,,0.197236871,-0.084580078,1,0,0,0,75,75,40,1,schep,images/br_schep.png,images/cb_schep.png,0,,,,,,,,,,,,,,,,,,,,,,
,,,,,00100,2023-11-10_14h47.08.575,vbt_B1_day3,2022.2.4,MacIntel,60.0024001,,,,,,down,0,1.4185,,0.197236871,-0.084580078,1,0,0,0,76,76,109,1,totaal,images/br_totaal.png,images/cb_totaal.png,0,,,,,,,,,,,,,,,,,,,,,,
,,,,,00100,2023-11-10_14h47.08.575,vbt_B1_day3,2022.2.4,MacIntel,60.0024001,,,,,,down,0,1.6537,,0.197236871,-0.084580078,1,0,0,0,77,77,118,1,vinger,images/br_vinger.png,images/cb_vinger.png,0,,,,,,,,,,,,,,,,,,,,,,
,,,,,00100,2023-11-10_14h47.08.575,vbt_B1_day3,2022.2.4,MacIntel,60.0024001,,,,,,down,0,11.9556,,0.194421048,-0.090906982,1,0,0,0,78,78,145,1,invloed,images/br_invloed.png,images/cb_invloed.png,0,,,,,,,,,,,,,,,,,,,,,,
,,,,,00100,2023-11-10_14h47.08.575,vbt_B1_day3,2022.2.4,MacIntel,60.0024001,,,,,,down,0,7.7855,,0.194421048,-0.090906982,1,0,0,0,79,79,75,1,snoep,images/br_snoep.png,images/cb_snoep.png,0,,,,,,,,,,,,,,,,,,,,,,
,,,,,00100,2023-11-10_14h47.08.575,vbt_B1_day3,2022.2.4,MacIntel,60.0024001,,,,,,down,0,3.6345,,0.194421048,-0.090906982,1,0,0,0,80,80,133,1,seizoen,images/br_seizoen.png,images/cb_seizoen.png,0,,,,,,,,,,,,,,,,,,,,,,
,,,,,00100,2023-11-10_14h47.08.575,vbt_B1_day3,2022.2.4,MacIntel,60.0024001,,,,,,down,0,4.5169,,0.194421048,-0.090669623,1,0,0,0,81,81,59,1,kring,images/br_kring.png,images/cb_kring.png,0,,,,,,,,,,,,,,,,,,,,,,
,,,,,00100,2023-11-10_14h47.08.575,vbt_B1_day3,2022.2.4,MacIntel,60.0024001,,,,,,down,0,3.1014,,0.194183621,-0.090824653,1,0,0,0,82,82,146,1,opkomen,images/br_opkomen.png,images/cb_opkomen.png,0,,,,,,,,,,,,,,,,,,,,,,
,,,,,00100,2023-11-10_14h47.08.575,vbt_B1_day3,2022.2.4,MacIntel,60.0024001,,,,,,down,0,6.4339,,0.194183621,-0.092673747,1,0,0,0,83,83,180,1,openbaar,images/br_openbaar.png,images/cb_openbaar.png,1,openbaar,,,,,,,,,,,,,,,,,,,,,
,,,,,00100,2023-11-10_14h47.08.575,vbt_B1_day3,2022.2.4,MacIntel,60.0024001,,,,,,down,0,1.3664,,0.194183621,-0.092673747,1,0,0,0,84,84,55,1,praat,images/br_praat.png,images/cb_praat.png,0,,,,,,,,,,,,,,,,,,,,,,
,,,,,00100,2023-11-10_14h47.08.575,vbt_B1_day3,2022.2.4,MacIntel,60.0024001,,,,,,down,0,9.2007,,0.194981147,-0.097576904,1,0,0,0,85,85,189,1,aanraden,images/br_aanraden.png,images/cb_aanraden.png,0,,,,,,,,,,,,,,,,,,,,,,
,,,,,00100,2023-11-10_14h47.08.575,vbt_B1_day3,2022.2.4,MacIntel,60.0024001,,,,,,down,0,5.1024,,0.194981147,-0.097576904,1,0,0,0,86,86,81,1,dubbel,images/br_dubbel.png,images/cb_dubbel.png,0,,,,,,,,,,,,,,,,,,,,,,
,,,,,00100,2023-11-10_14h47.08.575,vbt_B1_day3,2022.2.4,MacIntel,60.0024001,,,,,,down,0,1.9466,,0.197771539,-0.096419135,1,0,0,0,87,87,89,1,slapen,images/br_slapen.png,images/cb_slapen.png,0,,,,,,,,,,,,,,,,,,,,,,
,,,,,00100,2023-11-10_14h47.08.575,vbt_B1_day3,2022.2.4,MacIntel,60.0024001,,,,,,down,0,1.0495,,0.197771539,-0.096419135,1,0,0,0,88,88,69,1,waken,images/br_waken.png,images/cb_waken.png,0,,,,,,,,,,,,,,,,,,,,,,
,,,,,00100,2023-11-10_14h47.08.575,vbt_B1_day3,2022.2.4,MacIntel,60.0024001,,,,,,down,0,1.5494,,0.197771539,-0.096419135,1,0,0,0,89,89,76,1,afval,images/br_afval.png,images/cb_afval.png,0,,,,,,,,,,,,,,,,,,,,,,
,,,,,00100,2023-11-10_14h47.08.575,vbt_B1_day3,2022.2.4,MacIntel,60.0024001,,,,,,down,0,0.5164,,0.197771539,-0.096419135,1,0,0,0,90,90,28,1,stal,images/br_stal.png,images/cb_stal.png,0,,,,,,,,,,,,,,,,,,,,,,
,,,,,00100,2023-11-10_14h47.08.575,vbt_B1_day3,2022.2.4,MacIntel,60.0024001,,,,,,down,0,0.8878,,0.197771539,-0.096419135,1,0,0,0,91,91,68,1,schat,images/br_schat.png,images/cb_schat.png,0,,,,,,,,,,,,,,,,,,,,,,
,,,,,00100,2023-11-10_14h47.08.575,vbt_B1_day3,2022.2.4,MacIntel,60.0024001,,,,,,down,0,2.9837,,0.197771539,-0.096419135,1,0,0,0,92,92,120,1,klimmen,images/br_klimmen.png,images/cb_klimmen.png,0,,,,,,,,,,,,,,,,,,,,,,
,,,,,00100,2023-11-10_14h47.08.575,vbt_B1_day3,2022.2.4,MacIntel,60.0024001,,,,,,down,0,3.7005,,0.197771539,-0.096181776,1,0,0,0,93,93,46,1,jagen,images/br_jagen.png,images/cb_jagen.png,0,,,,,,,,,,,,,,,,,,,,,,
,,,,,00100,2023-11-10_14h47.08.575,vbt_B1_day3,2022.2.4,MacIntel,60.0024001,,,,,,down,0,4.1001,,0.197771539,-0.096181776,1,0,0,0,94,94,100,1,geduld,images/br_geduld.png,images/cb_geduld.png,1,geduld,,,,,,,,,,,,,,,,,,,,,
,,,,,00100,2023-11-10_14h47.08.575,vbt_B1_day3,2022.2.4,MacIntel,60.0024001,,,,,,down,0,1.7503,,0.197771539,-0.096181776,1,0,0,0,95,95,177,1,maaltijd,images/br_maaltijd.png,images/cb_maaltijd.png,0,,,,,,,,,,,,,,,,,,,,,,
,,,,,00100,2023-11-10_14h47.08.575,vbt_B1_day3,2022.2.4,MacIntel,60.0024001,,,,,,down,0,1.0336,,0.197771539,-0.096181776,1,0,0,0,96,96,113,1,koppen,images/br_koppen.png,images/cb_koppen.png,0,,,,,,,,,,,,,,,,,,,,,,
,,,,,00100,2023-11-10_14h47.08.575,vbt_B1_day3,2022.2.4,MacIntel,60.0024001,,,,,,down,0,1.9829,,0.197771539,-0.096181776,1,0,0,0,97,97,23,1,zout,images/br_zout.png,images/cb_zout.png,1,zout,,,,,,,,,,,,,,,,,,,,,
,,,,,00100,2023-11-10_14h47.08.575,vbt_B1_day3,2022.2.4,MacIntel,60.0024001,,,,,,down,0,3.0549,,0.197771539,-0.096181776,1,0,0,0,98,98,51,1,samen,images/br_samen.png,images/cb_samen.png,0,,,,,,,,,,,,,,,,,,,,,,
,,,,,00100,2023-11-10_14h47.08.575,vbt_B1_day3,2022.2.4,MacIntel,60.0024001,,,,,,down,0,9.0662,,0.197771539,-0.096181776,1,0,0,0,99,99,158,1,innemen,images/br_innemen.png,images/cb_innemen.png,0,,,,,,,,,,,,,,,,,,,,,,
,,,,,00100,2023-11-10_14h47.08.575,vbt_B1_day3,2022.2.4,MacIntel,60.0024001,,,,,,down,0,5.1511,,0.197771539,-0.096181776,1,0,0,0,100,100,63,1,flirt,images/br_flirt.png,images/cb_flirt.png,1,flirt,,,,,,,,,,,,,,,,,,,,,
,,,,,00100,2023-11-10_14h47.08.575,vbt_B1_day3,2022.2.4,MacIntel,60.0024001,,,,,,down,0,7.0312,,0.687386475,0.026200053,1,0,0,0,101,101,24,1,jurk,images/br_jurk.png,images/cb_jurk.png,0,,,,,,,,,,,,,,,,,,,,,,
,,,,,00100,2023-11-10_14h47.08.575,vbt_B1_day3,2022.2.4,MacIntel,60.0024001,,,,,,down,0,1.9672,,0.687386475,0.026200053,1,0,0,0,102,102,74,1,graaf,images/br_graaf.png,images/cb_graaf.png,0,,,,,,,,,,,,,,,,,,,,,,
,,,,,00100,2023-11-10_14h47.08.575,vbt_B1_day3,2022.2.4,MacIntel,60.0024001,,,,,,down,0,16.9339,,0.687386475,0.026200053,1,0,0,0,103,103,94,1,oceaan,images/br_oceaan.png,images/cb_oceaan.png,0,,,,,,,,,,,,,,,,,,,,,,
,,,,,00100,2023-11-10_14h47.08.575,vbt_B1_day3,2022.2.4,MacIntel,60.0024001,,,,,,down,0,5.5844,,0.687386475,0.026200053,1,0,0,0,104,104,47,1,kabel,images/br_kabel.png,images/cb_kabel.png,0,,,,,,,,,,,,,,,,,,,,,,
,,,,,00100,2023-11-10_14h47.08.575,vbt_B1_day3,2022.2.4,MacIntel,60.0024001,,,,,,down,0,3.3838,,0.687386475,0.026200053,1,0,0,0,105,105,188,1,strekken,images/br_strekken.png,images/cb_strekken.png,0,,,,,,,,,,,,,,,,,,,,,,
,,,,,00100,2023-11-10_14h47.08.575,vbt_B1_day3,2022.2.4,MacIntel,60.0024001,,,,,,down,0,3.7173,,0.687386475,0.026200053,1,0,0,0,106,106,174,1,stemming,images/br_stemming.png,images/cb_stemming.png,0,,,,,,,,,,,,,,,,,,,,,,
,,,,,00100,2023-11-10_14h47.08.575,vbt_B1_day3,2022.2.4,MacIntel,60.0024001,,,,,,down,0,2.6025,,0.687386475,0.026200053,1,0,0,0,107,107,22,1,stof,images/br_stof.png,images/cb_stof.png,1,stof,,,,,,,,,,,,,,,,,,,,,
,,,,,00100,2023-11-10_14h47.08.575,vbt_B1_day3,2022.2.4,MacIntel,60.0024001,,,,,,down,0,0.8154,,0.687386475,0.026200053,1,0,0,0,108,108,19,1,geit,images/br_geit.png,images/cb_geit.png,0,,,,,,,,,,,,,,,,,,,,,,
,,,,,00100,2023-11-10_14h47.08.575,vbt_B1_day3,2022.2.4,MacIntel,60.0024001,,,,,,down,0,0.8338,,0.687386475,0.026200053,1,0,0,0,109,109,13,1,kaal,images/br_kaal.png,images/cb_kaal.png,0,,,,,,,,,,,,,,,,,,,,,,
,,,,,00100,2023-11-10_14h47.08.575,vbt_B1_day3,2022.2.4,MacIntel,60.0024001,,,,,,down,0,7.4164,,0.687386475,0.026200053,1,0,0,0,110,110,144,1,eetlust,images/br_eetlust.png,images/cb_eetlust.png,0,,,,,,,,,,,,,,,,,,,,,,
,,,,,00100,2023-11-10_14h47.08.575,vbt_B1_day3,2022.2.4,MacIntel,60.0024001,,,,,,down,0,4.9007,,0.687386475,0.026200053,1,0,0,0,111,111,18,1,blik,images/br_blik.png,images/cb_blik.png,0,,,,,,,,,,,,,,,,,,,,,,
,,,,,00100,2023-11-10_14h47.08.575,vbt_B1_day3,2022.2.4,MacIntel,60.0024001,,,,,,down,0,3.2181,,0.687386475,0.026200053,1,0,0,0,112,112,148,1,smullen,images/br_smullen.png,images/cb_smullen.png,0,,,,,,,,,,,,,,,,,,,,,,
,,,,,00100,2023-11-10_14h47.08.575,vbt_B1_day3,2022.2.4,MacIntel,60.0024001,,,,,,down,0,7.4333,,0.687386475,0.026200053,1,0,0,0,113,113,191,1,opheffen,images/br_opheffen.png,images/cb_opheffen.png,0,,,,,,,,,,,,,,,,,,,,,,
,,,,,00100,2023-11-10_14h47.08.575,vbt_B1_day3,2022.2.4,MacIntel,60.0024001,,,,,,down,0,2.3042,,0.687386475,0.026200053,1,0,0,0,114,114,33,1,vlek,images/br_vlek.png,images/cb_vlek.png,0,,,,,,,,,,,,,,,,,,,,,,
,,,,,00100,2023-11-10_14h47.08.575,vbt_B1_day3,2022.2.4,MacIntel,60.0024001,,,,,,down,0,4.6331,,0.687386475,0.026200053,1,0,0,0,115,115,66,1,lever,images/br_lever.png,images/cb_lever.png,0,,,,,,,,,,,,,,,,,,,,,,
,,,,,00100,2023-11-10_14h47.08.575,vbt_B1_day3,2022.2.4,MacIntel,60.0024001,,,,,,down,0,6.8513,,0.687386475,0.026200053,1,0,0,0,116,116,25,1,plek,images/br_plek.png,images/cb_plek.png,0,,,,,,,,,,,,,,,,,,,,,,
,,,,,00100,2023-11-10_14h47.08.575,vbt_B1_day3,2022.2.4,MacIntel,60.0024001,,,,,,down,0,7.9344,,0.687386475,0.026200053,1,0,0,0,117,117,194,1,driemaal,images/br_driemaal.png,images/cb_driemaal.png,0,,,,,,,,,,,,,,,,,,,,,,
,,,,,00100,2023-11-10_14h47.08.575,vbt_B1_day3,2022.2.4,MacIntel,60.0024001,,,,,,down,0,6.8335,,0.687386475,0.026200053,1,0,0,0,118,118,185,1,mijnheer,images/br_mijnheer.png,images/cb_mijnheer.png,0,,,,,,,,,,,,,,,,,,,,,,
,,,,,00100,2023-11-10_14h47.08.575,vbt_B1_day3,2022.2.4,MacIntel,60.0024001,,,,,,down,0,1.1001,,0.687676731,0.027511664,1,0,0,0,119,119,42,1,bleek,images/br_bleek.png,images/cb_bleek.png,0,,,,,,,,,,,,,,,,,,,,,,
,,,,,00100,2023-11-10_14h47.08.575,vbt_B1_day3,2022.2.4,MacIntel,60.0024001,,,,,,down,0,4.3672,,0.687676731,0.027511664,1,0,0,0,120,120,58,1,tekst,images/br_tekst.png,images/cb_tekst.png,0,,,,,,,,,,,,,,,,,,,,,,
,,,,,00100,2023-11-10_14h47.08.575,vbt_B1_day3,2022.2.4,MacIntel,60.0024001,,,,,,down,0,3.6171,,0.686046821,0.028364597,1,0,0,0,121,121,60,1,jasje,images/br_jasje.png,images/cb_jasje.png,1,jasje,,,,,,,,,,,,,,,,,,,,,
,,,,,00100,2023-11-10_14h47.08.575,vbt_B1_day3,2022.2.4,MacIntel,60.0024001,,,,,,down,0,15.9538,,0.686046821,0.028364597,1,0,0,0,122,122,196,1,nakijken,images/br_nakijken.png,images/cb_nakijken.png,0,,,,,,,,,,,,,,,,,,,,,,
,,,,,00100,2023-11-10_14h47.08.575,vbt_B1_day3,2022.2.4,MacIntel,60.0024001,,,,,,down,0,5.601,,0.686046821,0.023258328,1,0,0,0,123,123,129,1,verhaal,images/br_verhaal.png,images/cb_verhaal.png,0,,,,,,,,,,,,,,,,,,,,,,
,,,,,00100,2023-11-10_14h47.08.575,vbt_B1_day3,2022.2.4,MacIntel,60.0024001,,,,,,down,0,2.1126,,0.669326986,-0.02359592,1,0,0,0,124,124,105,1,wijlen,images/br_wijlen.png,images/cb_wijlen.png,0,,,,,,,,,,,,,,,,,,,,,,
,,,,,00100,2023-11-10_14h47.08.575,vbt_B1_day3,2022.2.4,MacIntel,60.0024001,,,,,,down,0,4.1346,,0.669326986,-0.02359592,1,0,0,0,125,125,140,1,blijven,images/br_blijven.png,images/cb_blijven.png,1,blijven,,,,,,,,,,,,,,,,,,,,,
,,,,,00100,2023-11-10_14h47.08.575,vbt_B1_day3,2022.2.4,MacIntel,60.0024001,,,,,,down,0,6.1991,,0.669326986,-0.02359592,1,0,0,0,126,126,37,1,mijn,images/br_mijn.png,images/cb_mijn.png,0,,,,,,,,,,,,,,,,,,,,,,
,,,,,00100,2023-11-10_14h47.08.575,vbt_B1_day3,2022.2.4,MacIntel,60.0024001,,,,,,down,0,3.0041,,0.669326986,-0.02359592,1,0,0,0,127,127,11,1,mode,images/br_mode.png,images/cb_mode.png,0,,,,,,,,,,,,,,,,,,,,,,
,,,,,00100,2023-11-10_14h47.08.575,vbt_B1_day3,2022.2.4,MacIntel,60.0024001,,,,,,down,0,0.9666,,0.669326986,-0.02359592,1,0,0,0,128,128,30,1,uien,images/br_uien.png,images/cb_uien.png,0,,,,,,,,,,,,,,,,,,,,,,
,,,,,00100,2023-11-10_14h47.08.575,vbt_B1_day3,2022.2.4,MacIntel,60.0024001,,,,,,down,0,4.2835,,0.669326986,-0.02359592,1,0,0,0,129,129,169,1,oprotten,images/br_oprotten.png,images/cb_oprotten.png,0,,,,,,,,,,,,,,,,,,,,,,
,,,,,00100,2023-11-10_14h47.08.575,vbt_B1_day3,2022.2.4,MacIntel,60.0024001,,,,,,down,0,1.2494,,0.669326986,-0.02359592,1,0,0,0,130,130,96,1,slagen,images/br_slagen.png,images/cb_slagen.png,0,,,,,,,,,,,,,,,,,,,,,,
,,,,,00100,2023-11-10_14h47.08.575,vbt_B1_day3,2022.2.4,MacIntel,60.0024001,,,,,,down,0,3.5855,,0.669326986,-0.024109836,1,0,0,0,131,131,26,1,leuk,images/br_leuk.png,images/cb_leuk.png,0,,,,,,,,,,,,,,,,,,,,,,
,,,,,00100,2023-11-10_14h47.08.575,vbt_B1_day3,2022.2.4,MacIntel,60.0024001,,,,,,down,0,5.7673,,0.669326986,-0.024109836,1,0,0,0,132,132,166,1,strikken,images/br_strikken.png,images/cb_strikken.png,0,,,,,,,,,,,,,,,,,,,,,,
,,,,,00100,2023-11-10_14h47.08.575,vbt_B1_day3,2022.2.4,MacIntel,60.0024001,,,,,,down,0,11.2041,,0.669326986,-0.024109836,1,0,0,0,133,133,14,1,rijp,images/br_rijp.png,images/cb_rijp.png,0,,,,,,,,,,,,,,,,,,,,,,
,,,,,00100,2023-11-10_14h47.08.575,vbt_B1_day3,2022.2.4,MacIntel,60.0024001,,,,,,down,0,0.5502,,0.669326986,-0.024109836,1,0,0,0,134,134,36,1,vuur,images/br_vuur.png,images/cb_vuur.png,0,,,,,,,,,,,,,,,,,,,,,,
,,,,,00100,2023-11-10_14h47.08.575,vbt_B1_day3,2022.2.4,MacIntel,60.0024001,,,,,,down,0,4.002,,0.669326986,-0.024109836,1,0,0,0,135,135,199,1,beseffen,images/br_beseffen.png,images/cb_beseffen.png,0,,,,,,,,,,,,,,,,,,,,,,
,,,,,00100,2023-11-10_14h47.08.575,vbt_B1_day3,2022.2.4,MacIntel,60.0024001,,,,,,down,0,1.6016,,0.669326986,-0.024109836,1,0,0,0,136,136,128,1,prikken,images/br_prikken.png,images/cb_prikken.png,0,,,,,,,,,,,,,,,,,,,,,,
,,,,,00100,2023-11-10_14h47.08.575,vbt_B1_day3,2022.2.4,MacIntel,60.0024001,,,,,,down,0,0.8064,,0.669326986,-0.024109836,1,0,0,0,137,137,123,1,hiervan,images/br_hiervan.png,images/cb_hiervan.png,0,,,,,,,,,,,,,,,,,,,,,,
,,,,,00100,2023-11-10_14h47.08.575,vbt_B1_day3,2022.2.4,MacIntel,60.0024001,,,,,,down,0,1.7017,,0.669326986,-0.025626017,1,0,0,0,138,138,122,1,waarvan,images/br_waarvan.png,images/cb_waarvan.png,0,,,,,,,,,,,,,,,,,,,,,,
,,,,,00100,2023-11-10_14h47.08.575,vbt_B1_day3,2022.2.4,MacIntel,60.0024001,,,,,,down,0,0.3861,,0.669326986,-0.02630032,1,0,0,0,139,139,12,1,kust,images/br_kust.png,images/cb_kust.png,0,,,,,,,,,,,,,,,,,,,,,,
,,,,,00100,2023-11-10_14h47.08.575,vbt_B1_day3,2022.2.4,MacIntel,60.0024001,,,,,,down,0,3.7999,,0.669326986,-0.027474942,1,0,0,0,140,140,43,1,klauw,images/br_klauw.png,images/cb_klauw.png,0,,,,,,,,,,,,,,,,,,,,,,
,,,,,00100,2023-11-10_14h47.08.575,vbt_B1_day3,2022.2.4,MacIntel,60.0024001,,,,,,down,0,0.7672,,0.669326986,-0.028586053,1,0,0,0,141,141,39,1,laag,images/br_laag.png,images/cb_laag.png,0,,,,,,,,,,,,,,,,,,,,,,
,,,,,00100,2023-11-10_14h47.08.575,vbt_B1_day3,2022.2.4,MacIntel,60.0024001,,,,,,down,0,4.5006,,0.670693088,-0.029806688,1,0,0,0,142,142,91,1,gezond,images/br_gezond.png,images/cb_gezond.png,0,,,,,,,,,,,,,,,,,,,,,,
,,,,,00100,2023-11-10_14h47.08.575,vbt_B1_day3,2022.2.4,MacIntel,60.0024001,,,,,,down,0,1.6657,,0.670693088,-0.029806688,1,0,0,0,143,143,79,1,nodig,images/br_nodig.png,images/cb_nodig.png,0,,,,,,,,,,,,,,,,,,,,,,
,,,,,00100,2023-11-10_14h47.08.575,vbt_B1_day3,2022.2.4,MacIntel,60.0024001,,,,,,down,0,2.7176,,0.670178494,-0.030632935,1,0,0,0,144,144,98,1,kreeft,images/br_kreeft.png,images/cb_kreeft.png,0,,,,,,,,,,,,,,,,,,,,,,
,,,,,00100,2023-11-10_14h47.08.575,vbt_B1_day3,2022.2.4,MacIntel,60.0024001,,,,,,down,0,2.1357,,0.670178494,-0.030632935,1,0,0,0,145,145,170,1,schatten,images/br_schatten.png,images/cb_schatten.png,0,,,,,,,,,,,,,,,,,,,,,,
,,,,,00100,2023-11-10_14h47.08.575,vbt_B1_day3,2022.2.4,MacIntel,60.0024001,,,,,,down,0,2.6674,,0.670178494,-0.030632935,1,0,0,0,146,146,20,1,site,images/br_site.png,images/cb_site.png,1,site,,,,,,,,,,,,,,,,,,,,,
,,,,,00100,2023-11-10_14h47.08.575,vbt_B1_day3,2022.2.4,MacIntel,60.0024001,,,,,,down,0,2.0175,,0.670178494,-0.030632935,1,0,0,0,147,147,49,1,laken,images/br_laken.png,images/cb_laken.png,0,,,,,,,,,,,,,,,,,,,,,,
,,,,,00100,2023-11-10_14h47.08.575,vbt_B1_day3,2022.2.4,MacIntel,60.0024001,,,,,,down,0,4.2867,,0.670178494,-0.030632935,1,0,0,0,148,148,134,1,geliefd,images/br_geliefd.png,images/cb_geliefd.png,0,,,,,,,,,,,,,,,,,,,,,,
,,,,,00100,2023-11-10_14h47.08.575,vbt_B1_day3,2022.2.4,MacIntel,60.0024001,,,,,,down,0,0.4973,,0.670178494,-0.030632935,1,0,0,0,149,149,5,1,blad,images/br_blad.png,images/cb_blad.png,0,,,,,,,,,,,,,,,,,,,,,,
,,,,,00100,2023-11-10_14h47.08.575,vbt_B1_day3,2022.2.4,MacIntel,60.0024001,,,,,,down,0,0.5504,,0.670178494,-0.03075158,1,0,0,0,150,150,163,1,schuilen,images/br_schuilen.png,images/cb_schuilen.png,0,,,,,,,,,,,,,,,,,,,,,,
,,,,,00100,2023-11-10_14h47.08.575,vbt_B1_day3,2022.2.4,MacIntel,60.0024001,,,,,,down,0,4.2348,,0.669396701,-0.030443454,1,0,0,0,151,151,186,1,voorraad,images/br_voorraad.png,images/cb_voorraad.png,0,,,,,,,,,,,,,,,,,,,,,,
,,,,,00100,2023-11-10_14h47.08.575,vbt_B1_day3,2022.2.4,MacIntel,60.0024001,,,,,,down,0,6.0038,,0.669396701,-0.030443454,1,0,0,0,152,152,29,1,baas,images/br_baas.png,images/cb_baas.png,0,,,,,,,,,,,,,,,,,,,,,,
,,,,,00100,2023-11-10_14h47.08.575,vbt_B1_day3,2022.2.4,MacIntel,60.0024001,,,,,,down,0,1.9515,,0.666881239,-0.0310692,1,0,0,0,153,153,111,1,ticket,images/br_ticket.png,images/cb_ticket.png,0,,,,,,,,,,,,,,,,,,,,,,
,,,,,00100,2023-11-10_14h47.08.575,vbt_B1_day3,2022.2.4,MacIntel,60.0024001,,,,,,down,0,0.0341,,0.666881239,-0.0310692,1,0,0,0,154,154,57,1,steek,images/br_steek.png,images/cb_steek.png,0,,,,,,,,,,,,,,,,,,,,,,
,,,,,00100,2023-11-10_14h47.08.575,vbt_B1_day3,2022.2.4,MacIntel,60.0024001,,,,,,down,0,1.4193,,0.666881239,-0.0310692,1,0,0,0,155,155,2,1,jaar,images/br_jaar.png,images/cb_jaar.png,0,,,,,,,,,,,,,,,,,,,,,,
,,,,,00100,2023-11-10_14h47.08.575,vbt_B1_day3,2022.2.4,MacIntel,60.0024001,,,,,,down,0,4.3831,,0.666881239,-0.0310692,1,0,0,0,156,156,160,1,daarheen,images/br_daarheen.png,images/cb_daarheen.png,0,,,,,,,,,,,,,,,,,,,,,,
,,,,,00100,2023-11-10_14h47.08.575,vbt_B1_day3,2022.2.4,MacIntel,60.0024001,,,,,,down,0,3.1516,,0.66916531,-0.019130181,1,0,0,0,157,157,190,1,goedkoop,images/br_goedkoop.png,images/cb_goedkoop.png,0,,,,,,,,,,,,,,,,,,,,,,
,,,,,00100,2023-11-10_14h47.08.575,vbt_B1_day3,2022.2.4,MacIntel,60.0024001,,,,,,down,0,4.1841,,0.671685927,-0.020274251,1,0,0,0,158,158,93,1,waarop,images/br_waarop.png,images/cb_waarop.png,0,,,,,,,,,,,,,,,,,,,,,,
,,,,,00100,2023-11-10_14h47.08.575,vbt_B1_day3,2022.2.4,MacIntel,60.0024001,,,,,,down,0,4.0006,,0.671685927,-0.020711127,1,0,0,0,159,159,131,1,opzicht,images/br_opzicht.png,images/cb_opzicht.png,0,,,,,,,,,,,,,,,,,,,,,,
,,,,,00100,2023-11-10_14h47.08.575,vbt_B1_day3,2022.2.4,MacIntel,60.0024001,,,,,,down,0,3.5325,,0.671448296,-0.019918077,1,0,0,0,160,160,104,1,zweven,images/br_zweven.png,images/cb_zweven.png,0,,,,,,,,,,,,,,,,,,,,,,
,,,,,00100,2023-11-10_14h47.08.575,vbt_B1_day3,2022.2.4,MacIntel,60.0024001,,,,,,down,0,3.9672,,0.671448296,-0.01968065,1,0,0,0,161,161,4,1,moes,images/br_moes.png,images/cb_moes.png,0,,,,,,,,,,,,,,,,,,,,,,
,,,,,00100,2023-11-10_14h47.08.575,vbt_B1_day3,2022.2.4,MacIntel,60.0024001,,,,,,down,0,1.9873,,0.671448296,-0.018836534,1,0,0,0,162,162,56,1,traag,images/br_traag.png,images/cb_traag.png,0,,,,,,,,,,,,,,,,,,,,,,
,,,,,00100,2023-11-10_14h47.08.575,vbt_B1_day3,2022.2.4,MacIntel,60.0024001,,,,,,down,0,2.5341,,0.671685927,-0.018280979,1,0,0,0,163,163,35,1,lust,images/br_lust.png,images/cb_lust.png,0,,,,,,,,,,,,,,,,,,,,,,
,,,,,00100,2023-11-10_14h47.08.575,vbt_B1_day3,2022.2.4,MacIntel,60.0024001,,,,,,down,0,4.2509,,0.671685927,-0.018280979,1,0,0,0,164,164,61,1,groen,images/br_groen.png,images/cb_groen.png,1,groen,,,,,,,,,,,,,,,,,,,,,
,,,,,00100,2023-11-10_14h47.08.575,vbt_B1_day3,2022.2.4,MacIntel,60.0024001,,,,,,down,0,1.6512,,0.671685927,-0.018280979,1,0,0,0,165,165,7,1,geld,images/br_geld.png,images/cb_geld.png,0,,,,,,,,,,,,,,,,,,,,,,
,,,,,00100,2023-11-10_14h47.08.575,vbt_B1_day3,2022.2.4,MacIntel,60.0024001,,,,,,down,0,2.8163,,0.671685927,-0.018280979,1,0,0,0,166,166,117,1,kennis,images/br_kennis.png,images/cb_kennis.png,0,,,,,,,,,,,,,,,,,,,,,,
,,,,,00100,2023-11-10_14h47.08.575,vbt_B1_day3,2022.2.4,MacIntel,60.0024001,,,,,,down,0,2.0496,,0.389318034,0.157013482,1,0,0,0,167,167,80,1,kanjer,images/br_kanjer.png,images/cb_kanjer.png,0,,,,,,,,,,,,,,,,,,,,,,
,,,,,00100,2023-11-10_14h47.08.575,vbt_B1_day3,2022.2.4,MacIntel,60.0024001,,,,,,down,0,1.984,,0.389318034,0.157250909,1,0,0,0,168,168,126,1,kasteel,images/br_kasteel.png,images/cb_kasteel.png,0,,,,,,,,,,,,,,,,,,,,,,
,,,,,00100,2023-11-10_14h47.08.575,vbt_B1_day3,2022.2.4,MacIntel,60.0024001,,,,,,down,0,2.4658,,0.389318034,0.157250909,1,0,0,0,169,169,184,1,aandelen,images/br_aandelen.png,images/cb_aandelen.png,0,,,,,,,,,,,,,,,,,,,,,,
,,,,,00100,2023-11-10_14h47.08.575,vbt_B1_day3,2022.2.4,MacIntel,60.0024001,,,,,,down,0,0.2671,,0.389318034,0.157250909,1,0,0,0,170,170,1,1,zaal,images/br_zaal.png,images/cb_zaal.png,0,,,,,,,,,,,,,,,,,,,,,,
,,,,,00100,2023-11-10_14h47.08.575,vbt_B1_day3,2022.2.4,MacIntel,60.0024001,,,,,,down,0,5.0472,,0.389318034,0.157250909,1,0,0,0,171,171,173,1,apparaat,images/br_apparaat.png,images/cb_apparaat.png,0,,,,,,,,,,,,,,,,,,,,,,
,,,,,00100,2023-11-10_14h47.08.575,vbt_B1_day3,2022.2.4,MacIntel,60.0024001,,,,,,down,0,4.0498,,0.384687229,0.153301256,1,0,0,0,172,172,107,1,maling,images/br_maling.png,images/cb_maling.png,0,,,,,,,,,,,,,,,,,,,,,,
,,,,,00100,2023-11-10_14h47.08.575,vbt_B1_day3,2022.2.4,MacIntel,60.0024001,,,,,,down,0,8.354,,0.291923353,-0.276513401,1,0,0,0,173,173,198,1,bedoelen,images/br_bedoelen.png,images/cb_bedoelen.png,0,,,,,,,,,,,,,,,,,,,,,,
,,,,,00100,2023-11-10_14h47.08.575,vbt_B1_day3,2022.2.4,MacIntel,60.0024001,,,,,,down,0,5.0178,,0.028700629,0.049146491,1,0,0,0,174,174,71,1,bever,images/br_bever.png,images/cb_bever.png,0,,,,,,,,,,,,,,,,,,,,,,
,,,,,00100,2023-11-10_14h47.08.575,vbt_B1_day3,2022.2.4,MacIntel,60.0024001,,,,,,down,0,5.884,,0.088801948,-0.031737027,1,0,0,0,175,175,147,1,komisch,images/br_komisch.png,images/cb_komisch.png,0,,,,,,,,,,,,,,,,,,,,,,
,,,,,00100,2023-11-10_14h47.08.575,vbt_B1_day3,2022.2.4,MacIntel,60.0024001,,,,,,down,0,1.4834,,0.06414327,-0.0337323,1,0,0,0,176,176,84,1,lokken,images/br_lokken.png,images/cb_lokken.png,0,,,,,,,,,,,,,,,,,,,,,,
,,,,,00100,2023-11-10_14h47.08.575,vbt_B1_day3,2022.2.4,MacIntel,60.0024001,,,,,,down,0,3.2334,,0.06414327,-0.0337323,1,0,0,0,177,177,139,1,stiekem,images/br_stiekem.png,images/cb_stiekem.png,0,,,,,,,,,,,,,,,,,,,,,,
,,,,,00100,2023-11-10_14h47.08.575,vbt_B1_day3,2022.2.4,MacIntel,60.0024001,,,,,,down,0,4.3801,,0.06414327,-0.0337323,1,0,0,0,178,178,181,1,toegeven,images/br_toegeven.png,images/cb_toegeven.png,1,toegeven,,,,,,,,,,,,,,,,,,,,,
,,,,,00100,2023-11-10_14h47.08.575,vbt_B1_day3,2022.2.4,MacIntel,60.0024001,,,,,,down,0,4.404,,0.06414327,-0.0337323,1,0,0,0,179,179,135,1,gedicht,images/br_gedicht.png,images/cb_gedicht.png,0,,,,,,,,,,,,,,,,,,,,,,
,,,,,00100,2023-11-10_14h47.08.575,vbt_B1_day3,2022.2.4,MacIntel,60.0024001,,,,,,down,0,3.5003,,0.06414327,-0.0337323,1,0,0,0,180,180,82,1,muziek,images/br_muziek.png,images/cb_muziek.png,0,,,,,,,,,,,,,,,,,,,,,,
,,,,,00100,2023-11-10_14h47.08.575,vbt_B1_day3,2022.2.4,MacIntel,60.0024001,,,,,,down,0,1.8166,,0.06414327,-0.0337323,1,0,0,0,181,181,112,1,lukken,images/br_lukken.png,images/cb_lukken.png,0,,,,,,,,,,,,,,,,,,,,,,
,,,,,00100,2023-11-10_14h47.08.575,vbt_B1_day3,2022.2.4,MacIntel,60.0024001,,,,,,down,0,1.8124,,0.06414327,-0.0337323,1,0,0,0,182,182,124,1,bloeien,images/br_bloeien.png,images/cb_bloeien.png,0,,,,,,,,,,,,,,,,,,,,,,
,,,,,00100,2023-11-10_14h47.08.575,vbt_B1_day3,2022.2.4,MacIntel,60.0024001,,,,,,down,0,6.9512,,-0.048762953,-0.169076538,1,0,0,0,183,183,157,1,uitlaat,images/br_uitlaat.png,images/cb_uitlaat.png,0,,,,,,,,,,,,,,,,,,,,,,
,,,,,00100,2023-11-10_14h47.08.575,vbt_B1_day3,2022.2.4,MacIntel,60.0024001,,,,,,down,0,1.0007,,-0.048762953,-0.169076538,1,0,0,0,184,184,106,1,zingen,images/br_zingen.png,images/cb_zingen.png,0,,,,,,,,,,,,,,,,,,,,,,
,,,,,00100,2023-11-10_14h47.08.575,vbt_B1_day3,2022.2.4,MacIntel,60.0024001,,,,,,down,0,2.8502,,-0.048762953,-0.169076538,1,0,0,0,185,185,149,1,redding,images/br_redding.png,images/cb_redding.png,0,,,,,,,,,,,,,,,,,,,,,,
,,,,,00100,2023-11-10_14h47.08.575,vbt_B1_day3,2022.2.4,MacIntel,60.0024001,,,,,,down,0,0.8505,,-0.048762953,-0.169076538,1,0,0,0,186,186,97,1,loyaal,images/br_loyaal.png,images/cb_loyaal.png,0,,,,,,,,,,,,,,,,,,,,,,
,,,,,00100,2023-11-10_14h47.08.575,vbt_B1_day3,2022.2.4,MacIntel,60.0024001,,,,,,down,0,1.3836,,-0.048762953,-0.169076538,1,0,0,0,187,187,72,1,strak,images/br_strak.png,images/cb_strak.png,0,,,,,,,,,,,,,,,,,,,,,,
,,,,,00100,2023-11-10_14h47.08.575,vbt_B1_day3,2022.2.4,MacIntel,60.0024001,,,,,,down,0,46.9501,,-0.048762953,-0.169076538,1,0,0,0,188,188,168,1,bisschop,images/br_bisschop.png,images/cb_bisschop.png,0,,,,,,,,,,,,,,,,,,,,,,
,,,,,00100,2023-11-10_14h47.08.575,vbt_B1_day3,2022.2.4,MacIntel,60.0024001,,,,,,down,0,2.2505,,-0.048762953,-0.169076538,1,0,0,0,189,189,110,1,zuster,images/br_zuster.png,images/cb_zuster.png,0,,,,,,,,,,,,,,,,,,,,,,
,,,,,00100,2023-11-10_14h47.08.575,vbt_B1_day3,2022.2.4,MacIntel,60.0024001,,,,,,down,0,1.6824,,-0.048762953,-0.169076538,1,0,0,0,190,190,127,1,doodmoe,images/br_doodmoe.png,images/cb_doodmoe.png,0,,,,,,,,,,,,,,,,,,,,,,
,,,,,00100,2023-11-10_14h47.08.575,vbt_B1_day3,2022.2.4,MacIntel,60.0024001,,,,,,down,0,2.7676,,-0.049475098,-0.169076538,1,0,0,0,191,191,178,1,huisdier,images/br_huisdier.png,images/cb_huisdier.png,0,,,,,,,,,,,,,,,,,,,,,,
,,,,,00100,2023-11-10_14h47.08.575,vbt_B1_day3,2022.2.4,MacIntel,60.0024001,,,,,,down,0,2.4673,,-0.052808431,-0.169076538,1,0,0,0,192,192,179,1,woestijn,images/br_woestijn.png,images/cb_woestijn.png,0,,,,,,,,,,,,,,,,,,,,,,
,,,,,00100,2023-11-10_14h47.08.575,vbt_B1_day3,2022.2.4,MacIntel,60.0024001,,,,,,down,0,2.7674,,-0.052808431,-0.169076538,1,0,0,0,193,193,108,1,excuus,images/br_excuus.png,images/cb_excuus.png,0,,,,,,,,,,,,,,,,,,,,,,
,,,,,00100,2023-11-10_14h47.08.575,vbt_B1_day3,2022.2.4,MacIntel,60.0024001,,,,,,down,0,1.2341,,-0.053448283,-0.170530124,1,0,0,0,194,194,6,1,diep,images/br_diep.png,images/cb_diep.png,0,,,,,,,,,,,,,,,,,,,,,,
,,,,,00100,2023-11-10_14h47.08.575,vbt_B1_day3,2022.2.4,MacIntel,60.0024001,,,,,,down,0,6.6507,,-0.05376119,-0.170767551,1,0,0,0,195,195,153,1,vervoer,images/br_vervoer.png,images/cb_vervoer.png,0,,,,,,,,,,,,,,,,,,,,,,
,,,,,00100,2023-11-10_14h47.08.575,vbt_B1_day3,2022.2.4,MacIntel,60.0024001,,,,,,down,0,1.2248,,-0.057403564,-0.165504964,1,0,0,0,196,196,151,1,aanzoek,images/br_aanzoek.png,images/cb_aanzoek.png,0,,,,,,,,,,,,,,,,,,,,,,
,,,,,00100,2023-11-10_14h47.08.575,vbt_B1_day3,2022.2.4,MacIntel,60.0024001,,,,,,down,0,2.3989,,-0.057403564,-0.165504964,1,0,0,0,197,197,161,1,attentie,images/br_attentie.png,images/cb_attentie.png,0,,,,,,,,,,,,,,,,,,,,,,
,,,,,00100,2023-11-10_14h47.08.575,vbt_B1_day3,2022.2.4,MacIntel,60.0024001,,,,,,down,0,1.6842,,-0.057403564,-0.165504964,1,0,0,0,198,198,44,1,flits,images/br_flits.png,images/cb_flits.png,0,,,,,,,,,,,,,,,,,,,,,,
,,,,,00100,2023-11-10_14h47.08.575,vbt_B1_day3,2022.2.4,MacIntel,60.0024001,,,,,,down,0,1.4696,,-0.057403564,-0.165504964,1,0,0,0,199,199,31,1,poes,images/br_poes.png,images/cb_poes.png,0,,,,,,,,,,,,,,,,,,,,,,
,,,,,00100,2023-11-10_14h47.08.575,vbt_B1_day3,2022.2.4,MacIntel,60.0024001,,,,,,,,,,,,,,,,,,,,,,,,,0.268093058,0.07618866,1,0,0,,,,,,,,,,,,,,,,
,,,,,00100,2023-11-10_14h47.08.575,vbt_B1_day3,2022.2.4,MacIntel,60.0024001,,,,,,,,,,,,,,,,,,,,,,,,,,,,,,0.517277561,0.069652303,1,0,0,,,,,,,,,,,
,,,,,00100,2023-11-10_14h47.08.575,vbt_B1_day3,2022.2.4,MacIntel,60.0024001,,,,,,,,,,,,,,,,,,,,gebod,images/br_gebod.png,images/cb_gebod.png,,gebod,,,,,,,,,,,0.2829088,0.07858724,1,0,0,gebod,0,0,0,45,1
,,,,,00100,2023-11-10_14h47.08.575,vbt_B1_day3,2022.2.4,MacIntel,60.0024001,,,,,,,,,,,,,,,,,,,,vlager,images/br_vlager.png,images/cb_vlager.png,,vlager,,,,,,,,,,,0.172421875,0.065683662,1,0,0,vlager,0,1,1,28,1
,,,,,00100,2023-11-10_14h47.08.575,vbt_B1_day3,2022.2.4,MacIntel,60.0024001,,,,,,,,,,,,,,,,,,,,sluier,images/br_sluier.png,images/cb_sluier.png,,sluier,,,,,,,,,,,0.054331665,-0.00197425,1,0,0,sluier,0,2,2,50,1
,,,,,00100,2023-11-10_14h47.08.575,vbt_B1_day3,2022.2.4,MacIntel,60.0024001,,,,,,,,,,,,,,,,,,,,sultan,images/br_sultan.png,images/cb_sultan.png,,sultan,,,,,,,,,,,0.232528347,0.120225694,1,0,0,sultan,0,3,3,49,1
,,,,,00100,2023-11-10_14h47.08.575,vbt_B1_day3,2022.2.4,MacIntel,60.0024001,,,,,,,,,,,,,,,,,,,,invallen,images/br_invallen.png,images/cb_invallen.png,,invallen,,,,,,,,,,,0.283544651,0.148323737,1,0,0,invallen,0,4,4,57,1
,,,,,00100,2023-11-10_14h47.08.575,vbt_B1_day3,2022.2.4,MacIntel,60.0024001,,,,,,,,,,,,,,,,,,,,twaaf,images/br_twaaf.png,images/cb_twaaf.png,,twaaf,,,,,,,,,,,0.372064073,0.16728068,1,0,0,twaaf,0,5,5,24,1
,,,,,00100,2023-11-10_14h47.08.575,vbt_B1_day3,2022.2.4,MacIntel,60.0024001,,,,,,,,,,,,,,,,,,,,kest,images/br_kest.png,images/cb_kest.png,,kest,,,,,,,,,,,0.257061089,0.086977675,1,0,0,kest,0,6,6,21,1
,,,,,00100,2023-11-10_14h47.08.575,vbt_B1_day3,2022.2.4,MacIntel,60.0024001,,,,,,,,,,,,,,,,,,,,theeting,images/br_theeting.png,images/cb_theeting.png,,theeting,,,,,,,,,,,0.455590007,0.174015706,1,0,0,theeting,0,7,7,38,1
,,,,,00100,2023-11-10_14h47.08.575,vbt_B1_day3,2022.2.4,MacIntel,60.0024001,,,,,,,,,,,,,,,,,,,,alsof,images/br_alsof.png,images/cb_alsof.png,,alsof,,,,,,,,,,,0.469072537,0.150442912,1,0,0,alsof,0,8,8,44,1
,,,,,00100,2023-11-10_14h47.08.575,vbt_B1_day3,2022.2.4,MacIntel,60.0024001,,,,,,,,,,,,,,,,,,,,hier,images/br_hier.png,images/cb_hier.png,,hier,,,,,,,,,,,0.556869846,0.210527751,1,0,0,hier,0,9,9,1,1
,,,,,00100,2023-11-10_14h47.08.575,vbt_B1_day3,2022.2.4,MacIntel,60.0024001,,,,,,,,,,,,,,,,,,,,dwang,images/br_dwang.png,images/cb_dwang.png,,dwang,,,,,,,,,,,0.468181559,0.187039591,1,0,0,dwang,0,10,10,47,1
,,,,,00100,2023-11-10_14h47.08.575,vbt_B1_day3,2022.2.4,MacIntel,60.0024001,,,,,,,,,,,,,,,,,,,,croo,images/br_croo.png,images/cb_croo.png,,croo,,,,,,,,,,,0.498549127,0.209382392,1,0,0,croo,0,11,11,22,1
,,,,,00100,2023-11-10_14h47.08.575,vbt_B1_day3,2022.2.4,MacIntel,60.0024001,,,,,,,,,,,,,,,,,,,,onrecht,images/br_onrecht.png,images/cb_onrecht.png,,onrecht,,,,,,,,,,,0.520420736,0.327540097,1,0,0,onrecht,0,12,12,55,1
,,,,,00100,2023-11-10_14h47.08.575,vbt_B1_day3,2022.2.4,MacIntel,60.0024001,,,,,,,,,,,,,,,,,,,,uniek,images/br_uniek.png,images/cb_uniek.png,,uniek,,,,,,,,,,,0.580060764,0.357003615,1,0,0,uniek,0,13,13,46,1
,,,,,00100,2023-11-10_14h47.08.575,vbt_B1_day3,2022.2.4,MacIntel,60.0024001,,,,,,,,,,,,,,,,,,,,slapen,images/br_slapen.png,images/cb_slapen.png,,slapen,,,,,,,,,,,0.580060764,0.357003615,1,0,0,slapen,0,14,14,9,1
,,,,,00100,2023-11-10_14h47.08.575,vbt_B1_day3,2022.2.4,MacIntel,60.0024001,,,,,,,,,,,,,,,,,,,,stikken,images/br_stikken.png,images/cb_stikken.png,,stikken,,,,,,,,,,,0.580060764,0.357003615,1,0,0,stikken,0,15,15,54,1
,,,,,00100,2023-11-10_14h47.08.575,vbt_B1_day3,2022.2.4,MacIntel,60.0024001,,,,,,,,,,,,,,,,,,,,gezond,images/br_gezond.png,images/cb_gezond.png,,gezond,,,,,,,,,,,0.580060764,0.357003615,1,0,0,gezond,0,16,16,11,1
,,,,,00100,2023-11-10_14h47.08.575,vbt_B1_day3,2022.2.4,MacIntel,60.0024001,,,,,,,,,,,,,,,,,,,,kwaas,images/br_kwaas.png,images/cb_kwaas.png,,kwaas,,,,,,,,,,,0.536665853,0.328095788,1,0,0,kwaas,0,17,17,26,1
,,,,,00100,2023-11-10_14h47.08.575,vbt_B1_day3,2022.2.4,MacIntel,60.0024001,,,,,,,,,,,,,,,,,,,,mugeek,images/br_mugeek.png,images/cb_mugeek.png,,mugeek,,,,,,,,,,,0.588825005,0.326171519,1,0,0,mugeek,0,18,18,29,1
,,,,,00100,2023-11-10_14h47.08.575,vbt_B1_day3,2022.2.4,MacIntel,60.0024001,,,,,,,,,,,,,,,,,,,,verraden,images/br_verraden.png,images/cb_verraden.png,,verraden,,,,,,,,,,,0.588825005,0.326171519,1,0,0,verraden,0,19,19,58,1
,,,,,00100,2023-11-10_14h47.08.575,vbt_B1_day3,2022.2.4,MacIntel,60.0024001,,,,,,,,,,,,,,,,,,,,stoom,images/br_stoom.png,images/cb_stoom.png,,stoom,,,,,,,,,,,0.464235162,0.285481415,1,0,0,stoom,0,20,20,6,1
,,,,,00100,2023-11-10_14h47.08.575,vbt_B1_day3,2022.2.4,MacIntel,60.0024001,,,,,,,,,,,,,,,,,,,,jongelui,images/br_jongelui.png,images/cb_jongelui.png,,jongelui,,,,,,,,,,,0.537516276,0.295599891,1,0,0,jongelui,0,21,21,59,1
,,,,,00100,2023-11-10_14h47.08.575,vbt_B1_day3,2022.2.4,MacIntel,60.0024001,,,,,,,,,,,,,,,,,,,,knie,images/br_knie.png,images/cb_knie.png,,knie,,,,,,,,,,,0.599460042,0.33658254,1,0,0,knie,0,22,22,0,1
,,,,,00100,2023-11-10_14h47.08.575,vbt_B1_day3,2022.2.4,MacIntel,60.0024001,,,,,,,,,,,,,,,,,,,,booien,images/br_booien.png,images/cb_booien.png,,booien,,,,,,,,,,,0.599460042,0.33658254,1,0,0,booien,0,23,23,31,1
,,,,,00100,2023-11-10_14h47.08.575,vbt_B1_day3,2022.2.4,MacIntel,60.0024001,,,,,,,,,,,,,,,,,,,,begrip,images/br_begrip.png,images/cb_begrip.png,,begoi.,,,,,,,,,,,0.515462511,0.237281477,1,0,0,begoi.,0,24,24,48,1
,,,,,00100,2023-11-10_14h47.08.575,vbt_B1_day3,2022.2.4,MacIntel,60.0024001,,,,,,,,,,,,,,,,,,,,bisschop,images/br_bisschop.png,images/cb_bisschop.png,,bisschop,,,,,,,,,,,0.623407932,0.265416938,1,0,0,bisschop,0,25,25,16,1
,,,,,00100,2023-11-10_14h47.08.575,vbt_B1_day3,2022.2.4,MacIntel,60.0024001,,,,,,,,,,,,,,,,,,,,opzetten,images/br_opzetten.png,images/cb_opzetten.png,,opzetten,,,,,,,,,,,0.175140516,-0.055932651,1,0,0,opzetten,0,26,26,56,1
,,,,,00100,2023-11-10_14h47.08.575,vbt_B1_day3,2022.2.4,MacIntel,60.0024001,,,,,,,,,,,,,,,,,,,,schodel,images/br_schodel.png,images/cb_schodel.png,,schoft,,,,,,,,,,,0.228776313,-0.056287503,1,0,0,schoft,0,27,27,33,1
,,,,,00100,2023-11-10_14h47.08.575,vbt_B1_day3,2022.2.4,MacIntel,60.0024001,,,,,,,,,,,,,,,,,,,,stallen,images/br_stallen.png,images/cb_stallen.png,,stallen,,,,,,,,,,,0.314329156,0.04398702,1,0,0,stallen,0,28,28,52,1
,,,,,00100,2023-11-10_14h47.08.575,vbt_B1_day3,2022.2.4,MacIntel,60.0024001,,,,,,,,,,,,,,,,,,,,hust,images/br_hust.png,images/cb_hust.png,,hust,,,,,,,,,,,0.170455187,0.017634718,1,0,0,hust,0,29,29,23,1
,,,,,00100,2023-11-10_14h47.08.575,vbt_B1_day3,2022.2.4,MacIntel,60.0024001,,,,,,,,,,,,,,,,,,,,mode,images/br_mode.png,images/cb_mode.png,,mode,,,,,,,,,,,-0.00079739,-0.090578613,1,0,0,mode,0,30,30,3,1
,,,,,00100,2023-11-10_14h47.08.575,vbt_B1_day3,2022.2.4,MacIntel,60.0024001,,,,,,,,,,,,,,,,,,,,keihard,images/br_keihard.png,images/cb_keihard.png,,keihard,,,,,,,,,,,0.199943848,-0.036458028,1,0,0,keihard,0,31,31,14,1
,,,,,00100,2023-11-10_14h47.08.575,vbt_B1_day3,2022.2.4,MacIntel,60.0024001,,,,,,,,,,,,,,,,,,,,beslag,images/br_beslag.png,images/cb_beslag.png,,beslag,,,,,,,,,,,0.170104709,0.025308838,1,0,0,beslag,0,32,32,51,1
,,,,,00100,2023-11-10_14h47.08.575,vbt_B1_day3,2022.2.4,MacIntel,60.0024001,,,,,,,,,,,,,,,,,,,,verwoor,images/br_verwoor.png,images/cb_verwoor.png,,verkoor,,,,,,,,,,,0.169278497,0.025308838,1,0,0,verkoor,0,33,33,32,1
,,,,,00100,2023-11-10_14h47.08.575,vbt_B1_day3,2022.2.4,MacIntel,60.0024001,,,,,,,,,,,,,,,,,,,,afbopen,images/br_afbopen.png,images/cb_afbopen.png,,afbopen,,,,,,,,,,,0.164493951,-0.004536574,1,0,0,afbopen,0,34,34,34,1
,,,,,00100,2023-11-10_14h47.08.575,vbt_B1_day3,2022.2.4,MacIntel,60.0024001,,,,,,,,,,,,,,,,,,,,aarzelen,images/br_aarzelen.png,images/cb_aarzelen.png,,aarzelen,,,,,,,,,,,0.118649224,-0.014466281,1,0,0,aarzelen,0,35,35,19,1
,,,,,00100,2023-11-10_14h47.08.575,vbt_B1_day3,2022.2.4,MacIntel,60.0024001,,,,,,,,,,,,,,,,,,,,schatten,images/br_schatten.png,images/cb_schatten.png,,schatten,,,,,,,,,,,0.150134616,-0.016548394,1,0,0,schatten,0,36,36,18,1
,,,,,00100,2023-11-10_14h47.08.575,vbt_B1_day3,2022.2.4,MacIntel,60.0024001,,,,,,,,,,,,,,,,,,,,leek,images/br_leek.png,images/cb_leek.png,,leek,,,,,,,,,,,0.141189304,0.005593838,1,0,0,leek,0,37,37,2,1
,,,,,00100,2023-11-10_14h47.08.575,vbt_B1_day3,2022.2.4,MacIntel,60.0024001,,,,,,,,,,,,,,,,,,,,uviek,images/br_uviek.png,images/cb_uviek.png,,uviek,,,,,,,,,,,0.156333822,0.015660604,1,0,0,uviek,0,38,38,25,1
,,,,,00100,2023-11-10_14h47.08.575,vbt_B1_day3,2022.2.4,MacIntel,60.0024001,,,,,,,,,,,,,,,,,,,,laken,images/br_laken.png,images/cb_laken.png,,laken,,,,,,,,,,,0.065680745,0.005837402,1,0,0,laken,0,39,39,5,1
,,,,,00100,2023-11-10_14h47.08.575,vbt_B1_day3,2022.2.4,MacIntel,60.0024001,,,,,,,,,,,,,,,,,,,,makieren,images/br_makieren.png,images/cb_makieren.png,,makieren,,,,,,,,,,,0.095893283,-0.013974542,1,0,0,makieren,0,40,40,36,1
,,,,,00100,2023-11-10_14h47.08.575,vbt_B1_day3,2022.2.4,MacIntel,60.0024001,,,,,,,,,,,,,,,,,,,,geluid,images/br_geluid.png,images/cb_geluid.png,,gelmed,,,,,,,,,,,0.016375326,-0.202848443,1,0,0,gelmed,0,41,41,10,1
,,,,,00100,2023-11-10_14h47.08.575,vbt_B1_day3,2022.2.4,MacIntel,60.0024001,,,,,,,,,,,,,,,,,,,,steel,images/br_steel.png,images/cb_steel.png,,steel,,,,,,,,,,,0.075533786,-0.054570516,1,0,0,steel,0,42,42,4,1
,,,,,00100,2023-11-10_14h47.08.575,vbt_B1_day3,2022.2.4,MacIntel,60.0024001,,,,,,,,,,,,,,,,,,,,brappen,images/br_brappen.png,images/cb_brappen.png,,brappen,,,,,,,,,,,0.198801405,0.005951131,1,0,0,brappen,0,43,43,35,1
,,,,,00100,2023-11-10_14h47.08.575,vbt_B1_day3,2022.2.4,MacIntel,60.0024001,,,,,,,,,,,,,,,,,,,,glijden,images/br_glijden.png,images/cb_glijden.png,,glijden,,,,,,,,,,,0.025332167,-0.028338114,1,0,0,glijden,0,44,44,53,1
,,,,,00100,2023-11-10_14h47.08.575,vbt_B1_day3,2022.2.4,MacIntel,60.0024001,,,,,,,,,,,,,,,,,,,,leemaken,images/br_leemaken.png,images/cb_leemaken.png,,leema..,,,,,,,,,,,0.132519938,0.006924981,1,0,0,leema..,0,45,45,39,1
,,,,,00100,2023-11-10_14h47.08.575,vbt_B1_day3,2022.2.4,MacIntel,60.0024001,,,,,,,,,,,,,,,,,,,,paken,images/br_paken.png,images/cb_paken.png,,paken,,,,,,,,,,,0.107032267,-0.005270352,1,0,0,paken,0,46,46,27,1
,,,,,00100,2023-11-10_14h47.08.575,vbt_B1_day3,2022.2.4,MacIntel,60.0024001,,,,,,,,,,,,,,,,,,,,hint,images/br_hint.png,images/cb_hint.png,,hint,,,,,,,,,,,0.032151421,-0.026570299,1,0,0,hint,0,47,47,43,1
,,,,,00100,2023-11-10_14h47.08.575,vbt_B1_day3,2022.2.4,MacIntel,60.0024001,,,,,,,,,,,,,,,,,,,,boeien,images/br_boeien.png,images/cb_boeien.png,,boeien,,,,,,,,,,,0.093649767,-0.013569268,1,0,0,boeien,0,48,48,8,1
,,,,,00100,2023-11-10_14h47.08.575,vbt_B1_day3,2022.2.4,MacIntel,60.0024001,,,,,,,,,,,,,,,,,,,,oprotten,images/br_oprotten.png,images/cb_oprotten.png,,oprotten,,,,,,,,,,,0.202640584,-0.007706672,1,0,0,oprotten,0,49,49,17,1
,,,,,00100,2023-11-10_14h47.08.575,vbt_B1_day3,2022.2.4,MacIntel,60.0024001,,,,,,,,,,,,,,,,,,,,prikken,images/br_prikken.png,images/cb_prikken.png,,prikken,,,,,,,,,,,0.17862264,-0.008136936,1,0,0,prikken,0,50,50,12,1
,,,,,00100,2023-11-10_14h47.08.575,vbt_B1_day3,2022.2.4,MacIntel,60.0024001,,,,,,,,,,,,,,,,,,,,samen,images/br_samen.png,images/cb_samen.png,,samen,,,,,,,,,,,0.052919108,0.017467346,1,0,0,samen,0,51,51,7,1
,,,,,00100,2023-11-10_14h47.08.575,vbt_B1_day3,2022.2.4,MacIntel,60.0024001,,,,,,,,,,,,,,,,,,,,zone,images/br_zone.png,images/cb_zone.png,,zone,,,,,,,,,,,0.100648397,-0.006969808,1,0,0,zone,0,52,52,41,1
,,,,,00100,2023-11-10_14h47.08.575,vbt_B1_day3,2022.2.4,MacIntel,60.0024001,,,,,,,,,,,,,,,,,,,,kaas,images/br_kaas.png,images/cb_kaas.png,,kaas,,,,,,,,,,,0.007274306,0.044048903,1,0,0,kaas,0,53,53,42,1
,,,,,00100,2023-11-10_14h47.08.575,vbt_B1_day3,2022.2.4,MacIntel,60.0024001,,,,,,,,,,,,,,,,,,,,opzicht,images/br_opzicht.png,images/cb_opzicht.png,,opzicht,,,,,,,,,,,0.17434082,-0.030620355,1,0,0,opzicht,0,54,54,15,1
,,,,,00100,2023-11-10_14h47.08.575,vbt_B1_day3,2022.2.4,MacIntel,60.0024001,,,,,,,,,,,,,,,,,,,,leugeren,images/br_leugeren.png,images/cb_leugeren.png,,leugeren,,,,,,,,,,,0.040643514,-0.085042318,1,0,0,leugeren,0,55,55,37,1
,,,,,00100,2023-11-10_14h47.08.575,vbt_B1_day3,2022.2.4,MacIntel,60.0024001,,,,,,,,,,,,,,,,,,,,bevret,images/br_bevret.png,images/cb_bevret.png,,bevret,,,,,,,,,,,-0.060994059,-0.035494181,1,0,0,bevret,0,56,56,30,1
,,,,,00100,2023-11-10_14h47.08.575,vbt_B1_day3,2022.2.4,MacIntel,60.0024001,,,,,,,,,,,,,,,,,,,,eens,images/br_eens.png,images/cb_eens.png,,eens,,,,,,,,,,,0.088969862,-0.016058689,1,0,0,eens,0,57,57,40,1
,,,,,00100,2023-11-10_14h47.08.575,vbt_B1_day3,2022.2.4,MacIntel,60.0024001,,,,,,,,,,,,,,,,,,,,gout,images/br_gout.png,images/cb_gout.png,,gout,,,,,,,,,,,-0.003128866,-0.042691989,1,0,0,gout,0,58,58,20,1
,,,,,00100,2023-11-10_14h47.08.575,vbt_B1_day3,2022.2.4,MacIntel,60.0024001,,,,,,,,,,,,,,,,,,,,verhaal,images/br_verhaal.png,images/cb_verhaal.png,,verhaal,,,,,,,,,,,-0.010069173,-0.045041233,1,0,0,verhaal,0,59,59,13,1
,,,,,00100,2023-11-10_14h47.08.575,vbt_B1_day3,2022.2.4,MacIntel,60.0024001,,,,,,,,,,,,,,,,,,,,,,,,,,,,,,,,,,,,,,,,,,,,,
