welcome_mouse.x,welcome_mouse.y,welcome_mouse.leftButton,welcome_mouse.midButton,welcome_mouse.rightButton,"ID",date,expName,psychopyVersion,OS,frameRate,trainInstr_mouse.x,trainInstr_mouse.y,trainInstr_mouse.leftButton,trainInstr_mouse.midButton,trainInstr_mouse.rightButton,translation_key.keys,translation_key.corr,translation_key.rt,word_rsp.text,trWrd_mouse.x,trWrd_mouse.y,trWrd_mouse.leftButton,trWrd_mouse.midButton,trWrd_mouse.rightButton,train_loop.thisRepN,train_loop.thisTrialN,train_loop.thisN,train_loop.thisIndex,train_loop.ran,nlWrd,brWrd,cbWrd,test,testResp,mouse.x,mouse.y,mouse.leftButton,mouse.midButton,mouse.rightButton,testInstr_mouse.x,testInstr_mouse.y,testInstr_mouse.leftButton,testInstr_mouse.midButton,testInstr_mouse.rightButton,test_mouse.x,test_mouse.y,test_mouse.leftButton,test_mouse.midButton,test_mouse.rightButton,test_response.text,test_loop.thisRepN,test_loop.thisTrialN,test_loop.thisN,test_loop.thisIndex,test_loop.ran
-0.153937853,-0.266863675,1,0,0,00020,2023-08-20_12h14.15.651,vbt_B1_day3,2022.2.4,MacIntel,60.0024001,,,,,,,,,,,,,,,,,,,,,,,,,,,,,,,,,,,,,,,,,,,,,
,,,,,00020,2023-08-20_12h14.15.651,vbt_B1_day3,2022.2.4,MacIntel,60.0024001,0.179638875,-0.16669888,1,0,0,,,,,,,,,,,,,,,,,,,,,,,,,,,,,,,,,,,,,,,,
,,,,,00020,2023-08-20_12h14.15.651,vbt_B1_day3,2022.2.4,MacIntel,60.0024001,,,,,,down,0,3.0187,,0.179638875,-0.16669888,1,0,0,0,0,0,112,1,lukken,images/br_lukken.png,images/cb_lukken.png,0,,,,,,,,,,,,,,,,,,,,,,
,,,,,00020,2023-08-20_12h14.15.651,vbt_B1_day3,2022.2.4,MacIntel,60.0024001,,,,,,down,0,1.1521,,0.179638875,-0.16669888,1,0,0,0,1,1,117,1,kennis,images/br_kennis.png,images/cb_kennis.png,0,,,,,,,,,,,,,,,,,,,,,,
,,,,,00020,2023-08-20_12h14.15.651,vbt_B1_day3,2022.2.4,MacIntel,60.0024001,,,,,,down,0,1.3178,,0.179638875,-0.16669888,1,0,0,0,2,2,114,1,vullen,images/br_vullen.png,images/cb_vullen.png,0,,,,,,,,,,,,,,,,,,,,,,
,,,,,00020,2023-08-20_12h14.15.651,vbt_B1_day3,2022.2.4,MacIntel,60.0024001,,,,,,down,0,2.4364,,0.179638875,-0.16669888,1,0,0,0,3,3,168,1,bisschop,images/br_bisschop.png,images/cb_bisschop.png,0,,,,,,,,,,,,,,,,,,,,,,
,,,,,00020,2023-08-20_12h14.15.651,vbt_B1_day3,2022.2.4,MacIntel,60.0024001,,,,,,down,0,2.07,,0.179638875,-0.16669888,1,0,0,0,4,4,116,1,besmet,images/br_besmet.png,images/cb_besmet.png,0,,,,,,,,,,,,,,,,,,,,,,
,,,,,00020,2023-08-20_12h14.15.651,vbt_B1_day3,2022.2.4,MacIntel,60.0024001,,,,,,down,0,3.4022,,0.179638875,-0.16669888,1,0,0,0,5,5,104,1,zweven,images/br_zweven.png,images/cb_zweven.png,0,,,,,,,,,,,,,,,,,,,,,,
,,,,,00020,2023-08-20_12h14.15.651,vbt_B1_day3,2022.2.4,MacIntel,60.0024001,,,,,,down,0,6.1659,,0.179638875,-0.16669888,1,0,0,0,6,6,196,1,nakijken,images/br_nakijken.png,images/cb_nakijken.png,0,,,,,,,,,,,,,,,,,,,,,,
,,,,,00020,2023-08-20_12h14.15.651,vbt_B1_day3,2022.2.4,MacIntel,60.0024001,,,,,,down,0,0.7677,,0.179638875,-0.16669888,1,0,0,0,7,7,67,1,zwart,images/br_zwart.png,images/cb_zwart.png,0,,,,,,,,,,,,,,,,,,,,,,
,,,,,00020,2023-08-20_12h14.15.651,vbt_B1_day3,2022.2.4,MacIntel,60.0024001,,,,,,down,0,1.9501,,0.179638875,-0.16669888,1,0,0,0,8,8,68,1,schat,images/br_schat.png,images/cb_schat.png,0,,,,,,,,,,,,,,,,,,,,,,
,,,,,00020,2023-08-20_12h14.15.651,vbt_B1_day3,2022.2.4,MacIntel,60.0024001,,,,,,down,0,1.0995,,0.179638875,-0.16669888,1,0,0,0,9,9,197,1,spanning,images/br_spanning.png,images/cb_spanning.png,0,,,,,,,,,,,,,,,,,,,,,,
,,,,,00020,2023-08-20_12h14.15.651,vbt_B1_day3,2022.2.4,MacIntel,60.0024001,,,,,,down,0,3.1168,,0.179638875,-0.16669888,1,0,0,0,10,10,79,1,nodig,images/br_nodig.png,images/cb_nodig.png,0,,,,,,,,,,,,,,,,,,,,,,
,,,,,00020,2023-08-20_12h14.15.651,vbt_B1_day3,2022.2.4,MacIntel,60.0024001,,,,,,down,0,1.15,,0.179638875,-0.16669888,1,0,0,0,11,11,138,1,akkoord,images/br_akkoord.png,images/cb_akkoord.png,0,,,,,,,,,,,,,,,,,,,,,,
,,,,,00020,2023-08-20_12h14.15.651,vbt_B1_day3,2022.2.4,MacIntel,60.0024001,,,,,,down,0,2.9001,,0.179638875,-0.16669888,1,0,0,0,12,12,121,1,twijfel,images/br_twijfel.png,images/cb_twijfel.png,0,,,,,,,,,,,,,,,,,,,,,,
,,,,,00020,2023-08-20_12h14.15.651,vbt_B1_day3,2022.2.4,MacIntel,60.0024001,,,,,,down,0,13.3174,,0.179638875,-0.16669888,1,0,0,0,13,13,153,1,vervoer,images/br_vervoer.png,images/cb_vervoer.png,0,,,,,,,,,,,,,,,,,,,,,,
,,,,,00020,2023-08-20_12h14.15.651,vbt_B1_day3,2022.2.4,MacIntel,60.0024001,,,,,,down,0,1.1134,,0.179638875,-0.16669888,1,0,0,0,14,14,15,1,soda,images/br_soda.png,images/cb_soda.png,0,,,,,,,,,,,,,,,,,,,,,,
,,,,,00020,2023-08-20_12h14.15.651,vbt_B1_day3,2022.2.4,MacIntel,60.0024001,,,,,,down,0,1.6003,,0.179638875,-0.16669888,1,0,0,0,15,15,175,1,heengaan,images/br_heengaan.png,images/cb_heengaan.png,0,,,,,,,,,,,,,,,,,,,,,,
,,,,,00020,2023-08-20_12h14.15.651,vbt_B1_day3,2022.2.4,MacIntel,60.0024001,,,,,,down,0,3.6375,,0.179638875,-0.16669888,1,0,0,0,16,16,155,1,gerucht,images/br_gerucht.png,images/cb_gerucht.png,0,,,,,,,,,,,,,,,,,,,,,,
,,,,,00020,2023-08-20_12h14.15.651,vbt_B1_day3,2022.2.4,MacIntel,60.0024001,,,,,,down,0,1.4181,,0.179638875,-0.16669888,1,0,0,0,17,17,127,1,doodmoe,images/br_doodmoe.png,images/cb_doodmoe.png,0,,,,,,,,,,,,,,,,,,,,,,
,,,,,00020,2023-08-20_12h14.15.651,vbt_B1_day3,2022.2.4,MacIntel,60.0024001,,,,,,down,0,0.7509,,0.179638875,-0.16669888,1,0,0,0,18,18,137,1,trekker,images/br_trekker.png,images/cb_trekker.png,0,,,,,,,,,,,,,,,,,,,,,,
,,,,,00020,2023-08-20_12h14.15.651,vbt_B1_day3,2022.2.4,MacIntel,60.0024001,,,,,,down,0,5.3498,,0.179638875,-0.16669888,1,0,0,0,19,19,139,1,stiekem,images/br_stiekem.png,images/cb_stiekem.png,0,,,,,,,,,,,,,,,,,,,,,,
,,,,,00020,2023-08-20_12h14.15.651,vbt_B1_day3,2022.2.4,MacIntel,60.0024001,,,,,,down,0,5.2341,,0.179638875,-0.16669888,1,0,0,0,20,20,140,1,blijven,images/br_blijven.png,images/cb_blijven.png,1,blijven,,,,,,,,,,,,,,,,,,,,,
,,,,,00020,2023-08-20_12h14.15.651,vbt_B1_day3,2022.2.4,MacIntel,60.0024001,,,,,,down,0,0.4697,,0.179638875,-0.16669888,1,0,0,0,21,21,1,1,zaal,images/br_zaal.png,images/cb_zaal.png,0,,,,,,,,,,,,,,,,,,,,,,
,,,,,00020,2023-08-20_12h14.15.651,vbt_B1_day3,2022.2.4,MacIntel,60.0024001,,,,,,down,0,1.4344,,0.179638875,-0.16669888,1,0,0,0,22,22,147,1,komisch,images/br_komisch.png,images/cb_komisch.png,0,,,,,,,,,,,,,,,,,,,,,,
,,,,,00020,2023-08-20_12h14.15.651,vbt_B1_day3,2022.2.4,MacIntel,60.0024001,,,,,,down,0,1.9347,,0.179638875,-0.16669888,1,0,0,0,23,23,132,1,grappen,images/br_grappen.png,images/cb_grappen.png,0,,,,,,,,,,,,,,,,,,,,,,
,,,,,00020,2023-08-20_12h14.15.651,vbt_B1_day3,2022.2.4,MacIntel,60.0024001,,,,,,down,0,2.3671,,0.179638875,-0.16669888,1,0,0,0,24,24,46,1,jagen,images/br_jagen.png,images/cb_jagen.png,0,,,,,,,,,,,,,,,,,,,,,,
,,,,,00020,2023-08-20_12h14.15.651,vbt_B1_day3,2022.2.4,MacIntel,60.0024001,,,,,,down,0,3.5175,,0.179638875,-0.16669888,1,0,0,0,25,25,80,1,kanjer,images/br_kanjer.png,images/cb_kanjer.png,0,,,,,,,,,,,,,,,,,,,,,,
,,,,,00020,2023-08-20_12h14.15.651,vbt_B1_day3,2022.2.4,MacIntel,60.0024001,,,,,,down,0,3.3038,,0.179638875,-0.16669888,1,0,0,0,26,26,101,1,staren,images/br_staren.png,images/cb_staren.png,1,staren,,,,,,,,,,,,,,,,,,,,,
,,,,,00020,2023-08-20_12h14.15.651,vbt_B1_day3,2022.2.4,MacIntel,60.0024001,,,,,,down,0,0.6669,,0.179638875,-0.16669888,1,0,0,0,27,27,64,1,wegen,images/br_wegen.png,images/cb_wegen.png,0,,,,,,,,,,,,,,,,,,,,,,
,,,,,00020,2023-08-20_12h14.15.651,vbt_B1_day3,2022.2.4,MacIntel,60.0024001,,,,,,down,0,1.65,,0.179638875,-0.16669888,1,0,0,0,28,28,59,1,kring,images/br_kring.png,images/cb_kring.png,0,,,,,,,,,,,,,,,,,,,,,,
,,,,,00020,2023-08-20_12h14.15.651,vbt_B1_day3,2022.2.4,MacIntel,60.0024001,,,,,,down,0,1.6331,,0.179638875,-0.16669888,1,0,0,0,29,29,33,1,vlek,images/br_vlek.png,images/cb_vlek.png,0,,,,,,,,,,,,,,,,,,,,,,
,,,,,00020,2023-08-20_12h14.15.651,vbt_B1_day3,2022.2.4,MacIntel,60.0024001,,,,,,down,0,0.7173,,0.179638875,-0.16669888,1,0,0,0,30,30,78,1,leren,images/br_leren.png,images/cb_leren.png,0,,,,,,,,,,,,,,,,,,,,,,
,,,,,00020,2023-08-20_12h14.15.651,vbt_B1_day3,2022.2.4,MacIntel,60.0024001,,,,,,down,0,1.1666,,0.179638875,-0.16669888,1,0,0,0,31,31,122,1,waarvan,images/br_waarvan.png,images/cb_waarvan.png,0,,,,,,,,,,,,,,,,,,,,,,
,,,,,00020,2023-08-20_12h14.15.651,vbt_B1_day3,2022.2.4,MacIntel,60.0024001,,,,,,down,0,2.0335,,0.179638875,-0.16669888,1,0,0,0,32,32,177,1,maaltijd,images/br_maaltijd.png,images/cb_maaltijd.png,0,,,,,,,,,,,,,,,,,,,,,,
,,,,,00020,2023-08-20_12h14.15.651,vbt_B1_day3,2022.2.4,MacIntel,60.0024001,,,,,,down,0,1.4169,,0.179638875,-0.16669888,1,0,0,0,33,33,43,1,klauw,images/br_klauw.png,images/cb_klauw.png,0,,,,,,,,,,,,,,,,,,,,,,
,,,,,00020,2023-08-20_12h14.15.651,vbt_B1_day3,2022.2.4,MacIntel,60.0024001,,,,,,down,0,1.2003,,0.179638875,-0.16669888,1,0,0,0,34,34,6,1,diep,images/br_diep.png,images/cb_diep.png,0,,,,,,,,,,,,,,,,,,,,,,
,,,,,00020,2023-08-20_12h14.15.651,vbt_B1_day3,2022.2.4,MacIntel,60.0024001,,,,,,down,0,0.4508,,0.179638875,-0.16669888,1,0,0,0,35,35,58,1,tekst,images/br_tekst.png,images/cb_tekst.png,0,,,,,,,,,,,,,,,,,,,,,,
,,,,,00020,2023-08-20_12h14.15.651,vbt_B1_day3,2022.2.4,MacIntel,60.0024001,,,,,,down,0,7.0333,,0.179638875,-0.16669888,1,0,0,0,36,36,134,1,geliefd,images/br_geliefd.png,images/cb_geliefd.png,0,,,,,,,,,,,,,,,,,,,,,,
,,,,,00020,2023-08-20_12h14.15.651,vbt_B1_day3,2022.2.4,MacIntel,60.0024001,,,,,,down,0,2.4677,,0.179638875,-0.16669888,1,0,0,0,37,37,170,1,schatten,images/br_schatten.png,images/cb_schatten.png,0,,,,,,,,,,,,,,,,,,,,,,
,,,,,00020,2023-08-20_12h14.15.651,vbt_B1_day3,2022.2.4,MacIntel,60.0024001,,,,,,down,0,3.5002,,0.179638875,-0.16669888,1,0,0,0,38,38,141,1,knielen,images/br_knielen.png,images/cb_knielen.png,1,knielen,,,,,,,,,,,,,,,,,,,,,
,,,,,00020,2023-08-20_12h14.15.651,vbt_B1_day3,2022.2.4,MacIntel,60.0024001,,,,,,down,0,3.8839,,0.209180162,-0.030551215,1,0,0,0,39,39,159,1,sufferd,images/br_sufferd.png,images/cb_sufferd.png,0,,,,,,,,,,,,,,,,,,,,,,
,,,,,00020,2023-08-20_12h14.15.651,vbt_B1_day3,2022.2.4,MacIntel,60.0024001,,,,,,down,0,4.3508,,0.209180162,-0.030551215,1,0,0,0,40,40,173,1,apparaat,images/br_apparaat.png,images/cb_apparaat.png,0,,,,,,,,,,,,,,,,,,,,,,
,,,,,00020,2023-08-20_12h14.15.651,vbt_B1_day3,2022.2.4,MacIntel,60.0024001,,,,,,down,0,1.1499,,0.244044325,-0.032443169,1,0,0,0,41,41,11,1,mode,images/br_mode.png,images/cb_mode.png,0,,,,,,,,,,,,,,,,,,,,,,
,,,,,00020,2023-08-20_12h14.15.651,vbt_B1_day3,2022.2.4,MacIntel,60.0024001,,,,,,down,0,1.5838,,0.244044325,-0.032443169,1,0,0,0,42,42,90,1,geluid,images/br_geluid.png,images/cb_geluid.png,0,,,,,,,,,,,,,,,,,,,,,,
,,,,,00020,2023-08-20_12h14.15.651,vbt_B1_day3,2022.2.4,MacIntel,60.0024001,,,,,,down,0,0.9343,,0.244044325,-0.032443169,1,0,0,0,43,43,96,1,slagen,images/br_slagen.png,images/cb_slagen.png,0,,,,,,,,,,,,,,,,,,,,,,
,,,,,00020,2023-08-20_12h14.15.651,vbt_B1_day3,2022.2.4,MacIntel,60.0024001,,,,,,down,0,2.1025,,0.244044325,-0.032443169,1,0,0,0,44,44,190,1,goedkoop,images/br_goedkoop.png,images/cb_goedkoop.png,0,,,,,,,,,,,,,,,,,,,,,,
,,,,,00020,2023-08-20_12h14.15.651,vbt_B1_day3,2022.2.4,MacIntel,60.0024001,,,,,,down,0,0.2216,,0.244044325,-0.032443169,1,0,0,0,45,45,18,1,blik,images/br_blik.png,images/cb_blik.png,0,,,,,,,,,,,,,,,,,,,,,,
,,,,,00020,2023-08-20_12h14.15.651,vbt_B1_day3,2022.2.4,MacIntel,60.0024001,,,,,,down,0,1.9836,,0.244044325,-0.032443169,1,0,0,0,46,46,36,1,vuur,images/br_vuur.png,images/cb_vuur.png,0,,,,,,,,,,,,,,,,,,,,,,
,,,,,00020,2023-08-20_12h14.15.651,vbt_B1_day3,2022.2.4,MacIntel,60.0024001,,,,,,down,0,6.6842,,0.244044325,-0.032443169,1,0,0,0,47,47,9,1,hier,images/br_hier.png,images/cb_hier.png,0,,,,,,,,,,,,,,,,,,,,,,
,,,,,00020,2023-08-20_12h14.15.651,vbt_B1_day3,2022.2.4,MacIntel,60.0024001,,,,,,down,0,0.9176,,0.244044325,-0.032443169,1,0,0,0,48,48,13,1,kaal,images/br_kaal.png,images/cb_kaal.png,0,,,,,,,,,,,,,,,,,,,,,,
,,,,,00020,2023-08-20_12h14.15.651,vbt_B1_day3,2022.2.4,MacIntel,60.0024001,,,,,,down,0,1.4331,,0.244044325,-0.032443169,1,0,0,0,49,49,164,1,anarchie,images/br_anarchie.png,images/cb_anarchie.png,0,,,,,,,,,,,,,,,,,,,,,,
,,,,,00020,2023-08-20_12h14.15.651,vbt_B1_day3,2022.2.4,MacIntel,60.0024001,,,,,,down,0,1.35,,0.244044325,-0.032443169,1,0,0,0,50,50,192,1,schaamte,images/br_schaamte.png,images/cb_schaamte.png,0,,,,,,,,,,,,,,,,,,,,,,
,,,,,00020,2023-08-20_12h14.15.651,vbt_B1_day3,2022.2.4,MacIntel,60.0024001,,,,,,down,0,1.217,,0.244044325,-0.032443169,1,0,0,0,51,51,31,1,poes,images/br_poes.png,images/cb_poes.png,0,,,,,,,,,,,,,,,,,,,,,,
,,,,,00020,2023-08-20_12h14.15.651,vbt_B1_day3,2022.2.4,MacIntel,60.0024001,,,,,,down,0,2.4512,,0.244044325,-0.032443169,1,0,0,0,52,52,131,1,opzicht,images/br_opzicht.png,images/cb_opzicht.png,0,,,,,,,,,,,,,,,,,,,,,,
,,,,,00020,2023-08-20_12h14.15.651,vbt_B1_day3,2022.2.4,MacIntel,60.0024001,,,,,,down,0,2.6338,,0.244044325,-0.032443169,1,0,0,0,53,53,160,1,daarheen,images/br_daarheen.png,images/cb_daarheen.png,0,,,,,,,,,,,,,,,,,,,,,,
,,,,,00020,2023-08-20_12h14.15.651,vbt_B1_day3,2022.2.4,MacIntel,60.0024001,,,,,,down,0,4.8339,,0.244044325,-0.032443169,1,0,0,0,54,54,37,1,mijn,images/br_mijn.png,images/cb_mijn.png,0,,,,,,,,,,,,,,,,,,,,,,
,,,,,00020,2023-08-20_12h14.15.651,vbt_B1_day3,2022.2.4,MacIntel,60.0024001,,,,,,down,0,0.8346,,0.234602186,-0.018763665,1,0,0,0,55,55,56,1,traag,images/br_traag.png,images/cb_traag.png,0,,,,,,,,,,,,,,,,,,,,,,
,,,,,00020,2023-08-20_12h14.15.651,vbt_B1_day3,2022.2.4,MacIntel,60.0024001,,,,,,down,0,1.435,,0.234602186,-0.018763665,1,0,0,0,56,56,102,1,legaal,images/br_legaal.png,images/cb_legaal.png,1,legaal,,,,,,,,,,,,,,,,,,,,,
,,,,,00020,2023-08-20_12h14.15.651,vbt_B1_day3,2022.2.4,MacIntel,60.0024001,,,,,,down,0,1.0538,,0.234602186,-0.018507657,1,0,0,0,57,57,97,1,loyaal,images/br_loyaal.png,images/cb_loyaal.png,0,,,,,,,,,,,,,,,,,,,,,,
,,,,,00020,2023-08-20_12h14.15.651,vbt_B1_day3,2022.2.4,MacIntel,60.0024001,,,,,,down,0,2.6191,,0.234602186,-0.017725152,1,0,0,0,58,58,199,1,beseffen,images/br_beseffen.png,images/cb_beseffen.png,0,,,,,,,,,,,,,,,,,,,,,,
,,,,,00020,2023-08-20_12h14.15.651,vbt_B1_day3,2022.2.4,MacIntel,60.0024001,,,,,,down,0,2.7863,,0.234602186,-0.017725152,1,0,0,0,59,59,55,1,praat,images/br_praat.png,images/cb_praat.png,0,,,,,,,,,,,,,,,,,,,,,,
,,,,,00020,2023-08-20_12h14.15.651,vbt_B1_day3,2022.2.4,MacIntel,60.0024001,,,,,,down,0,0.4693,,0.234602186,-0.017725152,1,0,0,0,60,60,126,1,kasteel,images/br_kasteel.png,images/cb_kasteel.png,0,,,,,,,,,,,,,,,,,,,,,,
,,,,,00020,2023-08-20_12h14.15.651,vbt_B1_day3,2022.2.4,MacIntel,60.0024001,,,,,,down,0,3.0839,,0.234602186,-0.017725152,1,0,0,0,61,61,169,1,oprotten,images/br_oprotten.png,images/cb_oprotten.png,0,,,,,,,,,,,,,,,,,,,,,,
,,,,,00020,2023-08-20_12h14.15.651,vbt_B1_day3,2022.2.4,MacIntel,60.0024001,,,,,,down,0,2.3173,,0.234602186,-0.017725152,1,0,0,0,62,62,145,1,invloed,images/br_invloed.png,images/cb_invloed.png,0,,,,,,,,,,,,,,,,,,,,,,
,,,,,00020,2023-08-20_12h14.15.651,vbt_B1_day3,2022.2.4,MacIntel,60.0024001,,,,,,down,0,1.3846,,0.234602186,-0.017725152,1,0,0,0,63,63,157,1,uitlaat,images/br_uitlaat.png,images/cb_uitlaat.png,0,,,,,,,,,,,,,,,,,,,,,,
,,,,,00020,2023-08-20_12h14.15.651,vbt_B1_day3,2022.2.4,MacIntel,60.0024001,,,,,,down,0,2.617,,0.234602186,-0.017725152,1,0,0,0,64,64,88,1,boeien,images/br_boeien.png,images/cb_boeien.png,0,,,,,,,,,,,,,,,,,,,,,,
,,,,,00020,2023-08-20_12h14.15.651,vbt_B1_day3,2022.2.4,MacIntel,60.0024001,,,,,,down,0,8.1012,,0.234602186,-0.017725152,1,0,0,0,65,65,191,1,opheffen,images/br_opheffen.png,images/cb_opheffen.png,0,,,,,,,,,,,,,,,,,,,,,,
,,,,,00020,2023-08-20_12h14.15.651,vbt_B1_day3,2022.2.4,MacIntel,60.0024001,,,,,,down,0,1.3507,,0.234602186,-0.017725152,1,0,0,0,66,66,38,1,baai,images/br_baai.png,images/cb_baai.png,0,,,,,,,,,,,,,,,,,,,,,,
,,,,,00020,2023-08-20_12h14.15.651,vbt_B1_day3,2022.2.4,MacIntel,60.0024001,,,,,,down,0,6.5002,,0.232456394,-0.017725152,1,0,0,0,67,67,81,1,dubbel,images/br_dubbel.png,images/cb_dubbel.png,0,,,,,,,,,,,,,,,,,,,,,,
,,,,,00020,2023-08-20_12h14.15.651,vbt_B1_day3,2022.2.4,MacIntel,60.0024001,,,,,,down,0,1.4506,,0.232456394,-0.017725152,1,0,0,0,68,68,20,1,site,images/br_site.png,images/cb_site.png,1,site,,,,,,,,,,,,,,,,,,,,,
,,,,,00020,2023-08-20_12h14.15.651,vbt_B1_day3,2022.2.4,MacIntel,60.0024001,,,,,,down,0,0.5003,,0.232456394,-0.017725152,1,0,0,0,69,69,12,1,kust,images/br_kust.png,images/cb_kust.png,0,,,,,,,,,,,,,,,,,,,,,,
,,,,,00020,2023-08-20_12h14.15.651,vbt_B1_day3,2022.2.4,MacIntel,60.0024001,,,,,,down,0,0.0347,,0.232456394,-0.017725152,1,0,0,0,70,70,29,1,baas,images/br_baas.png,images/cb_baas.png,0,,,,,,,,,,,,,,,,,,,,,,
,,,,,00020,2023-08-20_12h14.15.651,vbt_B1_day3,2022.2.4,MacIntel,60.0024001,,,,,,down,0,4.634,,0.232456394,-0.017725152,1,0,0,0,71,71,94,1,oceaan,images/br_oceaan.png,images/cb_oceaan.png,0,,,,,,,,,,,,,,,,,,,,,,
,,,,,00020,2023-08-20_12h14.15.651,vbt_B1_day3,2022.2.4,MacIntel,60.0024001,,,,,,down,0,2.017,,0.232456394,-0.017725152,1,0,0,0,72,72,109,1,totaal,images/br_totaal.png,images/cb_totaal.png,0,,,,,,,,,,,,,,,,,,,,,,
,,,,,00020,2023-08-20_12h14.15.651,vbt_B1_day3,2022.2.4,MacIntel,60.0024001,,,,,,down,0,6.3002,,0.232456394,-0.017725152,1,0,0,0,73,73,105,1,wijlen,images/br_wijlen.png,images/cb_wijlen.png,0,,,,,,,,,,,,,,,,,,,,,,
,,,,,00020,2023-08-20_12h14.15.651,vbt_B1_day3,2022.2.4,MacIntel,60.0024001,,,,,,down,0,2.884,,0.232456394,-0.017725152,1,0,0,0,74,74,75,1,snoep,images/br_snoep.png,images/cb_snoep.png,0,,,,,,,,,,,,,,,,,,,,,,
,,,,,00020,2023-08-20_12h14.15.651,vbt_B1_day3,2022.2.4,MacIntel,60.0024001,,,,,,down,0,2.0175,,0.232456394,-0.017725152,1,0,0,0,75,75,66,1,lever,images/br_lever.png,images/cb_lever.png,0,,,,,,,,,,,,,,,,,,,,,,
,,,,,00020,2023-08-20_12h14.15.651,vbt_B1_day3,2022.2.4,MacIntel,60.0024001,,,,,,down,0,7.0009,,0.231688232,-0.021310187,1,0,0,0,76,76,162,1,uitdelen,images/br_uitdelen.png,images/cb_uitdelen.png,0,,,,,,,,,,,,,,,,,,,,,,
,,,,,00020,2023-08-20_12h14.15.651,vbt_B1_day3,2022.2.4,MacIntel,60.0024001,,,,,,down,0,2.7337,,0.231688232,-0.021310187,1,0,0,0,77,77,61,1,groen,images/br_groen.png,images/cb_groen.png,1,groen,,,,,,,,,,,,,,,,,,,,,
,,,,,00020,2023-08-20_12h14.15.651,vbt_B1_day3,2022.2.4,MacIntel,60.0024001,,,,,,down,0,2.351,,0.231688232,-0.021310187,1,0,0,0,78,78,171,1,aarzelen,images/br_aarzelen.png,images/cb_aarzelen.png,0,,,,,,,,,,,,,,,,,,,,,,
,,,,,00020,2023-08-20_12h14.15.651,vbt_B1_day3,2022.2.4,MacIntel,60.0024001,,,,,,down,0,0.4837,,0.231688232,-0.021310187,1,0,0,0,79,79,148,1,smullen,images/br_smullen.png,images/cb_smullen.png,0,,,,,,,,,,,,,,,,,,,,,,
,,,,,00020,2023-08-20_12h14.15.651,vbt_B1_day3,2022.2.4,MacIntel,60.0024001,,,,,,down,0,3.8167,,0.231688232,-0.021310187,1,0,0,0,80,80,186,1,voorraad,images/br_voorraad.png,images/cb_voorraad.png,0,,,,,,,,,,,,,,,,,,,,,,
,,,,,00020,2023-08-20_12h14.15.651,vbt_B1_day3,2022.2.4,MacIntel,60.0024001,,,,,,down,0,0.4665,,0.231688232,-0.021310187,1,0,0,0,81,81,8,1,knie,images/br_knie.png,images/cb_knie.png,0,,,,,,,,,,,,,,,,,,,,,,
,,,,,00020,2023-08-20_12h14.15.651,vbt_B1_day3,2022.2.4,MacIntel,60.0024001,,,,,,down,0,2.2174,,0.231688232,-0.021310187,1,0,0,0,82,82,14,1,rijp,images/br_rijp.png,images/cb_rijp.png,0,,,,,,,,,,,,,,,,,,,,,,
,,,,,00020,2023-08-20_12h14.15.651,vbt_B1_day3,2022.2.4,MacIntel,60.0024001,,,,,,down,0,0.1387,,0.231688232,-0.021310187,1,0,0,0,83,83,28,1,stal,images/br_stal.png,images/cb_stal.png,0,,,,,,,,,,,,,,,,,,,,,,
,,,,,00020,2023-08-20_12h14.15.651,vbt_B1_day3,2022.2.4,MacIntel,60.0024001,,,,,,down,0,1.9348,,0.231688232,-0.021310187,1,0,0,0,84,84,27,1,dans,images/br_dans.png,images/cb_dans.png,0,,,,,,,,,,,,,,,,,,,,,,
,,,,,00020,2023-08-20_12h14.15.651,vbt_B1_day3,2022.2.4,MacIntel,60.0024001,,,,,,down,0,0.8337,,0.231688232,-0.021310187,1,0,0,0,85,85,89,1,slapen,images/br_slapen.png,images/cb_slapen.png,0,,,,,,,,,,,,,,,,,,,,,,
,,,,,00020,2023-08-20_12h14.15.651,vbt_B1_day3,2022.2.4,MacIntel,60.0024001,,,,,,down,0,16.1831,,0.261486274,-0.03754164,1,0,0,0,86,86,193,1,weeshuis,images/br_weeshuis.png,images/cb_weeshuis.png,0,,,,,,,,,,,,,,,,,,,,,,
,,,,,00020,2023-08-20_12h14.15.651,vbt_B1_day3,2022.2.4,MacIntel,60.0024001,,,,,,down,0,3.3502,,0.331307712,-0.19844991,1,0,0,0,87,87,5,1,blad,images/br_blad.png,images/cb_blad.png,0,,,,,,,,,,,,,,,,,,,,,,
,,,,,00020,2023-08-20_12h14.15.651,vbt_B1_day3,2022.2.4,MacIntel,60.0024001,,,,,,down,0,4.1678,,0.331307712,-0.19844991,1,0,0,0,88,88,181,1,toegeven,images/br_toegeven.png,images/cb_toegeven.png,1,toegeven,,,,,,,,,,,,,,,,,,,,,
,,,,,00020,2023-08-20_12h14.15.651,vbt_B1_day3,2022.2.4,MacIntel,60.0024001,,,,,,down,0,2.8715,,0.331307712,-0.19844991,1,0,0,0,89,89,100,1,geduld,images/br_geduld.png,images/cb_geduld.png,1,geduld,,,,,,,,,,,,,,,,,,,,,
,,,,,00020,2023-08-20_12h14.15.651,vbt_B1_day3,2022.2.4,MacIntel,60.0024001,,,,,,down,0,3.7864,,0.331307712,-0.19844991,1,0,0,0,90,90,130,1,keihard,images/br_keihard.png,images/cb_keihard.png,0,,,,,,,,,,,,,,,,,,,,,,
,,,,,00020,2023-08-20_12h14.15.651,vbt_B1_day3,2022.2.4,MacIntel,60.0024001,,,,,,down,0,2.205,,0.331307712,-0.19844991,1,0,0,0,91,91,119,1,liefje,images/br_liefje.png,images/cb_liefje.png,0,,,,,,,,,,,,,,,,,,,,,,
,,,,,00020,2023-08-20_12h14.15.651,vbt_B1_day3,2022.2.4,MacIntel,60.0024001,,,,,,down,0,1.8664,,0.331307712,-0.19844991,1,0,0,0,92,92,86,1,woning,images/br_woning.png,images/cb_woning.png,0,,,,,,,,,,,,,,,,,,,,,,
,,,,,00020,2023-08-20_12h14.15.651,vbt_B1_day3,2022.2.4,MacIntel,60.0024001,,,,,,down,0,3.5342,,0.331307712,-0.19844991,1,0,0,0,93,93,77,1,woede,images/br_woede.png,images/cb_woede.png,0,,,,,,,,,,,,,,,,,,,,,,
,,,,,00020,2023-08-20_12h14.15.651,vbt_B1_day3,2022.2.4,MacIntel,60.0024001,,,,,,down,0,1.8337,,0.331307712,-0.19844991,1,0,0,0,94,94,71,1,bever,images/br_bever.png,images/cb_bever.png,0,,,,,,,,,,,,,,,,,,,,,,
,,,,,00020,2023-08-20_12h14.15.651,vbt_B1_day3,2022.2.4,MacIntel,60.0024001,,,,,,down,0,5.5668,,0.331307712,-0.19844991,1,0,0,0,95,95,111,1,ticket,images/br_ticket.png,images/cb_ticket.png,0,,,,,,,,,,,,,,,,,,,,,,
,,,,,00020,2023-08-20_12h14.15.651,vbt_B1_day3,2022.2.4,MacIntel,60.0024001,,,,,,down,0,0.5997,,0.331307712,-0.19844991,1,0,0,0,96,96,151,1,aanzoek,images/br_aanzoek.png,images/cb_aanzoek.png,0,,,,,,,,,,,,,,,,,,,,,,
,,,,,00020,2023-08-20_12h14.15.651,vbt_B1_day3,2022.2.4,MacIntel,60.0024001,,,,,,down,0,0.3673,,0.331307712,-0.19844991,1,0,0,0,97,97,65,1,parel,images/br_parel.png,images/cb_parel.png,0,,,,,,,,,,,,,,,,,,,,,,
,,,,,00020,2023-08-20_12h14.15.651,vbt_B1_day3,2022.2.4,MacIntel,60.0024001,,,,,,down,0,0.2837,,0.331307712,-0.19844991,1,0,0,0,98,98,32,1,palm,images/br_palm.png,images/cb_palm.png,0,,,,,,,,,,,,,,,,,,,,,,
,,,,,00020,2023-08-20_12h14.15.651,vbt_B1_day3,2022.2.4,MacIntel,60.0024001,,,,,,down,0,0.7004,,0.331307712,-0.19844991,1,0,0,0,99,99,93,1,waarop,images/br_waarop.png,images/cb_waarop.png,0,,,,,,,,,,,,,,,,,,,,,,
,,,,,00020,2023-08-20_12h14.15.651,vbt_B1_day3,2022.2.4,MacIntel,60.0024001,,,,,,down,0,2.9829,,0.331307712,-0.19844991,1,0,0,0,100,100,95,1,vreten,images/br_vreten.png,images/cb_vreten.png,0,,,,,,,,,,,,,,,,,,,,,,
,,,,,00020,2023-08-20_12h14.15.651,vbt_B1_day3,2022.2.4,MacIntel,60.0024001,,,,,,down,0,2.2514,,0.331307712,-0.19844991,1,0,0,0,101,101,103,1,joggen,images/br_joggen.png,images/cb_joggen.png,1,joggen,,,,,,,,,,,,,,,,,,,,,
,,,,,00020,2023-08-20_12h14.15.651,vbt_B1_day3,2022.2.4,MacIntel,60.0024001,,,,,,down,0,2.2169,,0.331307712,-0.19844991,1,0,0,0,102,102,24,1,jurk,images/br_jurk.png,images/cb_jurk.png,0,,,,,,,,,,,,,,,,,,,,,,
,,,,,00020,2023-08-20_12h14.15.651,vbt_B1_day3,2022.2.4,MacIntel,60.0024001,,,,,,down,0,0.5836,,0.331307712,-0.19844991,1,0,0,0,103,103,10,1,leek,images/br_leek.png,images/cb_leek.png,0,,,,,,,,,,,,,,,,,,,,,,
,,,,,00020,2023-08-20_12h14.15.651,vbt_B1_day3,2022.2.4,MacIntel,60.0024001,,,,,,down,0,0.8006,,0.331307712,-0.19844991,1,0,0,0,104,104,48,1,steel,images/br_steel.png,images/cb_steel.png,0,,,,,,,,,,,,,,,,,,,,,,
,,,,,00020,2023-08-20_12h14.15.651,vbt_B1_day3,2022.2.4,MacIntel,60.0024001,,,,,,down,0,5.067,,0.331307712,-0.19844991,1,0,0,0,105,105,21,1,mist,images/br_mist.png,images/cb_mist.png,1,mist,,,,,,,,,,,,,,,,,,,,,
,,,,,00020,2023-08-20_12h14.15.651,vbt_B1_day3,2022.2.4,MacIntel,60.0024001,,,,,,down,0,3.9003,,0.331307712,-0.19844991,1,0,0,0,106,106,115,1,kleren,images/br_kleren.png,images/cb_kleren.png,0,,,,,,,,,,,,,,,,,,,,,,
,,,,,00020,2023-08-20_12h14.15.651,vbt_B1_day3,2022.2.4,MacIntel,60.0024001,,,,,,down,0,0.1666,,0.331307712,-0.19844991,1,0,0,0,107,107,73,1,volop,images/br_volop.png,images/cb_volop.png,0,,,,,,,,,,,,,,,,,,,,,,
,,,,,00020,2023-08-20_12h14.15.651,vbt_B1_day3,2022.2.4,MacIntel,60.0024001,,,,,,down,0,1.0505,,0.331307712,-0.19844991,1,0,0,0,108,108,53,1,baron,images/br_baron.png,images/cb_baron.png,0,,,,,,,,,,,,,,,,,,,,,,
,,,,,00020,2023-08-20_12h14.15.651,vbt_B1_day3,2022.2.4,MacIntel,60.0024001,,,,,,down,0,1.3042,,0.331307712,-0.19844991,1,0,0,0,109,109,40,1,schep,images/br_schep.png,images/cb_schep.png,0,,,,,,,,,,,,,,,,,,,,,,
,,,,,00020,2023-08-20_12h14.15.651,vbt_B1_day3,2022.2.4,MacIntel,60.0024001,,,,,,down,0,2.2673,,0.331307712,-0.19844991,1,0,0,0,110,110,136,1,waarbij,images/br_waarbij.png,images/cb_waarbij.png,0,,,,,,,,,,,,,,,,,,,,,,
,,,,,00020,2023-08-20_12h14.15.651,vbt_B1_day3,2022.2.4,MacIntel,60.0024001,,,,,,down,0,0.6667,,0.331307712,-0.19844991,1,0,0,0,111,111,52,1,wagon,images/br_wagon.png,images/cb_wagon.png,0,,,,,,,,,,,,,,,,,,,,,,
,,,,,00020,2023-08-20_12h14.15.651,vbt_B1_day3,2022.2.4,MacIntel,60.0024001,,,,,,down,0,2.1179,,0.331307712,-0.19844991,1,0,0,0,112,112,92,1,geheim,images/br_geheim.png,images/cb_geheim.png,0,,,,,,,,,,,,,,,,,,,,,,
,,,,,00020,2023-08-20_12h14.15.651,vbt_B1_day3,2022.2.4,MacIntel,60.0024001,,,,,,down,0,9.8032,,0.371360541,-0.120641479,1,0,0,0,113,113,143,1,hechten,images/br_hechten.png,images/cb_hechten.png,1,hechten,,,,,,,,,,,,,,,,,,,,,
,,,,,00020,2023-08-20_12h14.15.651,vbt_B1_day3,2022.2.4,MacIntel,60.0024001,,,,,,down,0,3.5515,,0.371360541,-0.120641479,1,0,0,0,114,114,63,1,flirt,images/br_flirt.png,images/cb_flirt.png,1,flirt,,,,,,,,,,,,,,,,,,,,,
,,,,,00020,2023-08-20_12h14.15.651,vbt_B1_day3,2022.2.4,MacIntel,60.0024001,,,,,,down,0,3.4686,,0.35863227,-0.101792467,1,0,0,0,115,115,30,1,uien,images/br_uien.png,images/cb_uien.png,0,,,,,,,,,,,,,,,,,,,,,,
,,,,,00020,2023-08-20_12h14.15.651,vbt_B1_day3,2022.2.4,MacIntel,60.0024001,,,,,,down,0,3.0005,,0.35863227,-0.11239624,1,0,0,0,116,116,47,1,kabel,images/br_kabel.png,images/cb_kabel.png,0,,,,,,,,,,,,,,,,,,,,,,
,,,,,00020,2023-08-20_12h14.15.651,vbt_B1_day3,2022.2.4,MacIntel,60.0024001,,,,,,down,0,1.7335,,0.35863227,-0.11239624,1,0,0,0,117,117,83,1,mening,images/br_mening.png,images/cb_mening.png,0,,,,,,,,,,,,,,,,,,,,,,
,,,,,00020,2023-08-20_12h14.15.651,vbt_B1_day3,2022.2.4,MacIntel,60.0024001,,,,,,down,0,0.1673,,0.35863227,-0.11239624,1,0,0,0,118,118,0,1,slak,images/br_slak.png,images/cb_slak.png,0,,,,,,,,,,,,,,,,,,,,,,
,,,,,00020,2023-08-20_12h14.15.651,vbt_B1_day3,2022.2.4,MacIntel,60.0024001,,,,,,down,0,1.25,,0.35863227,-0.11239624,1,0,0,0,119,119,98,1,kreeft,images/br_kreeft.png,images/cb_kreeft.png,0,,,,,,,,,,,,,,,,,,,,,,
,,,,,00020,2023-08-20_12h14.15.651,vbt_B1_day3,2022.2.4,MacIntel,60.0024001,,,,,,down,0,1.7838,,0.35863227,-0.11239624,1,0,0,0,120,120,124,1,bloeien,images/br_bloeien.png,images/cb_bloeien.png,0,,,,,,,,,,,,,,,,,,,,,,
,,,,,00020,2023-08-20_12h14.15.651,vbt_B1_day3,2022.2.4,MacIntel,60.0024001,,,,,,down,0,2.4335,,0.35863227,-0.11239624,1,0,0,0,121,121,128,1,prikken,images/br_prikken.png,images/cb_prikken.png,0,,,,,,,,,,,,,,,,,,,,,,
,,,,,00020,2023-08-20_12h14.15.651,vbt_B1_day3,2022.2.4,MacIntel,60.0024001,,,,,,down,0,2.9517,,0.35863227,-0.11239624,1,0,0,0,122,122,183,1,getuigen,images/br_getuigen.png,images/cb_getuigen.png,1,getuigen,,,,,,,,,,,,,,,,,,,,,
,,,,,00020,2023-08-20_12h14.15.651,vbt_B1_day3,2022.2.4,MacIntel,60.0024001,,,,,,down,0,2.7095,,0.35863227,-0.11239624,1,0,0,0,123,123,62,1,knaap,images/br_knaap.png,images/cb_knaap.png,1,knaap,,,,,,,,,,,,,,,,,,,,,
,,,,,00020,2023-08-20_12h14.15.651,vbt_B1_day3,2022.2.4,MacIntel,60.0024001,,,,,,down,0,1.6682,,0.35863227,-0.11239624,1,0,0,0,124,124,50,1,stoom,images/br_stoom.png,images/cb_stoom.png,0,,,,,,,,,,,,,,,,,,,,,,
,,,,,00020,2023-08-20_12h14.15.651,vbt_B1_day3,2022.2.4,MacIntel,60.0024001,,,,,,down,0,1.5172,,0.35863227,-0.11239624,1,0,0,0,125,125,120,1,klimmen,images/br_klimmen.png,images/cb_klimmen.png,0,,,,,,,,,,,,,,,,,,,,,,
,,,,,00020,2023-08-20_12h14.15.651,vbt_B1_day3,2022.2.4,MacIntel,60.0024001,,,,,,down,0,2.6006,,0.35863227,-0.11239624,1,0,0,0,126,126,149,1,redding,images/br_redding.png,images/cb_redding.png,0,,,,,,,,,,,,,,,,,,,,,,
,,,,,00020,2023-08-20_12h14.15.651,vbt_B1_day3,2022.2.4,MacIntel,60.0024001,,,,,,down,0,1.1995,,0.35863227,-0.11239624,1,0,0,0,127,127,3,1,mand,images/br_mand.png,images/cb_mand.png,0,,,,,,,,,,,,,,,,,,,,,,
,,,,,00020,2023-08-20_12h14.15.651,vbt_B1_day3,2022.2.4,MacIntel,60.0024001,,,,,,down,0,3.3834,,0.35863227,-0.11239624,1,0,0,0,128,128,22,1,stof,images/br_stof.png,images/cb_stof.png,1,stof,,,,,,,,,,,,,,,,,,,,,
,,,,,00020,2023-08-20_12h14.15.651,vbt_B1_day3,2022.2.4,MacIntel,60.0024001,,,,,,down,0,0.6519,,0.35863227,-0.11239624,1,0,0,0,129,129,19,1,geit,images/br_geit.png,images/cb_geit.png,0,,,,,,,,,,,,,,,,,,,,,,
,,,,,00020,2023-08-20_12h14.15.651,vbt_B1_day3,2022.2.4,MacIntel,60.0024001,,,,,,down,0,0.5506,,0.35863227,-0.11239624,1,0,0,0,130,130,2,1,jaar,images/br_jaar.png,images/cb_jaar.png,0,,,,,,,,,,,,,,,,,,,,,,
,,,,,00020,2023-08-20_12h14.15.651,vbt_B1_day3,2022.2.4,MacIntel,60.0024001,,,,,,down,0,4.0674,,0.35863227,-0.11239624,1,0,0,0,131,131,158,1,innemen,images/br_innemen.png,images/cb_innemen.png,0,,,,,,,,,,,,,,,,,,,,,,
,,,,,00020,2023-08-20_12h14.15.651,vbt_B1_day3,2022.2.4,MacIntel,60.0024001,,,,,,down,0,2.4502,,0.35863227,-0.11239624,1,0,0,0,132,132,135,1,gedicht,images/br_gedicht.png,images/cb_gedicht.png,0,,,,,,,,,,,,,,,,,,,,,,
,,,,,00020,2023-08-20_12h14.15.651,vbt_B1_day3,2022.2.4,MacIntel,60.0024001,,,,,,down,0,0.8175,,0.35863227,-0.11239624,1,0,0,0,133,133,84,1,lokken,images/br_lokken.png,images/cb_lokken.png,0,,,,,,,,,,,,,,,,,,,,,,
,,,,,00020,2023-08-20_12h14.15.651,vbt_B1_day3,2022.2.4,MacIntel,60.0024001,,,,,,down,0,5.0176,,0.35863227,-0.11239624,1,0,0,0,134,134,70,1,ijdel,images/br_ijdel.png,images/cb_ijdel.png,0,,,,,,,,,,,,,,,,,,,,,,
,,,,,00020,2023-08-20_12h14.15.651,vbt_B1_day3,2022.2.4,MacIntel,60.0024001,,,,,,down,0,10.384,,0.35863227,-0.11239624,1,0,0,0,135,135,178,1,huisdier,images/br_huisdier.png,images/cb_huisdier.png,0,,,,,,,,,,,,,,,,,,,,,,
,,,,,00020,2023-08-20_12h14.15.651,vbt_B1_day3,2022.2.4,MacIntel,60.0024001,,,,,,down,0,2.1178,,0.35863227,-0.11239624,1,0,0,0,136,136,16,1,ziek,images/br_ziek.png,images/cb_ziek.png,0,,,,,,,,,,,,,,,,,,,,,,
,,,,,00020,2023-08-20_12h14.15.651,vbt_B1_day3,2022.2.4,MacIntel,60.0024001,,,,,,down,0,0.4341,,0.35863227,-0.11239624,1,0,0,0,137,137,174,1,stemming,images/br_stemming.png,images/cb_stemming.png,0,,,,,,,,,,,,,,,,,,,,,,
,,,,,00020,2023-08-20_12h14.15.651,vbt_B1_day3,2022.2.4,MacIntel,60.0024001,,,,,,down,0,6.4355,,0.35863227,-0.11239624,1,0,0,0,138,138,184,1,aandelen,images/br_aandelen.png,images/cb_aandelen.png,0,,,,,,,,,,,,,,,,,,,,,,
,,,,,00020,2023-08-20_12h14.15.651,vbt_B1_day3,2022.2.4,MacIntel,60.0024001,,,,,,down,0,3.5337,,0.362479384,-0.078467068,1,0,0,0,139,139,23,1,zout,images/br_zout.png,images/cb_zout.png,1,zout,,,,,,,,,,,,,,,,,,,,,
,,,,,00020,2023-08-20_12h14.15.651,vbt_B1_day3,2022.2.4,MacIntel,60.0024001,,,,,,down,0,0.684,,0.362479384,-0.078467068,1,0,0,0,140,140,42,1,bleek,images/br_bleek.png,images/cb_bleek.png,0,,,,,,,,,,,,,,,,,,,,,,
,,,,,00020,2023-08-20_12h14.15.651,vbt_B1_day3,2022.2.4,MacIntel,60.0024001,,,,,,down,0,9.017,,0.362479384,-0.078467068,1,0,0,0,141,141,172,1,weigeren,images/br_weigeren.png,images/cb_weigeren.png,0,,,,,,,,,,,,,,,,,,,,,,
,,,,,00020,2023-08-20_12h14.15.651,vbt_B1_day3,2022.2.4,MacIntel,60.0024001,,,,,,down,0,3.5697,,0.362479384,-0.078467068,1,0,0,0,142,142,185,1,mijnheer,images/br_mijnheer.png,images/cb_mijnheer.png,0,,,,,,,,,,,,,,,,,,,,,,
,,,,,00020,2023-08-20_12h14.15.651,vbt_B1_day3,2022.2.4,MacIntel,60.0024001,,,,,,down,0,1.9996,,0.362479384,-0.078467068,1,0,0,0,143,143,45,1,piste,images/br_piste.png,images/cb_piste.png,0,,,,,,,,,,,,,,,,,,,,,,
,,,,,00020,2023-08-20_12h14.15.651,vbt_B1_day3,2022.2.4,MacIntel,60.0024001,,,,,,down,0,2.8677,,0.362479384,-0.078467068,1,0,0,0,144,144,123,1,hiervan,images/br_hiervan.png,images/cb_hiervan.png,0,,,,,,,,,,,,,,,,,,,,,,
,,,,,00020,2023-08-20_12h14.15.651,vbt_B1_day3,2022.2.4,MacIntel,60.0024001,,,,,,down,0,1.1496,,0.362479384,-0.078467068,1,0,0,0,145,145,144,1,eetlust,images/br_eetlust.png,images/cb_eetlust.png,0,,,,,,,,,,,,,,,,,,,,,,
,,,,,00020,2023-08-20_12h14.15.651,vbt_B1_day3,2022.2.4,MacIntel,60.0024001,,,,,,down,0,4.0507,,0.362479384,-0.078467068,1,0,0,0,146,146,176,1,techniek,images/br_techniek.png,images/cb_techniek.png,0,,,,,,,,,,,,,,,,,,,,,,
,,,,,00020,2023-08-20_12h14.15.651,vbt_B1_day3,2022.2.4,MacIntel,60.0024001,,,,,,down,0,1.3007,,0.362479384,-0.078467068,1,0,0,0,147,147,187,1,opkijken,images/br_opkijken.png,images/cb_opkijken.png,0,,,,,,,,,,,,,,,,,,,,,,
,,,,,00020,2023-08-20_12h14.15.651,vbt_B1_day3,2022.2.4,MacIntel,60.0024001,,,,,,down,0,0.6004,,0.362479384,-0.078467068,1,0,0,0,148,148,146,1,opkomen,images/br_opkomen.png,images/cb_opkomen.png,0,,,,,,,,,,,,,,,,,,,,,,
,,,,,00020,2023-08-20_12h14.15.651,vbt_B1_day3,2022.2.4,MacIntel,60.0024001,,,,,,down,0,2.2002,,0.362479384,-0.078467068,1,0,0,0,149,149,91,1,gezond,images/br_gezond.png,images/cb_gezond.png,0,,,,,,,,,,,,,,,,,,,,,,
,,,,,00020,2023-08-20_12h14.15.651,vbt_B1_day3,2022.2.4,MacIntel,60.0024001,,,,,,down,0,1.4338,,0.362479384,-0.078467068,1,0,0,0,150,150,166,1,strikken,images/br_strikken.png,images/cb_strikken.png,0,,,,,,,,,,,,,,,,,,,,,,
,,,,,00020,2023-08-20_12h14.15.651,vbt_B1_day3,2022.2.4,MacIntel,60.0024001,,,,,,down,0,2.5657,,0.362479384,-0.078467068,1,0,0,0,151,151,198,1,bedoelen,images/br_bedoelen.png,images/cb_bedoelen.png,0,,,,,,,,,,,,,,,,,,,,,,
,,,,,00020,2023-08-20_12h14.15.651,vbt_B1_day3,2022.2.4,MacIntel,60.0024001,,,,,,down,0,0.3666,,0.362479384,-0.078467068,1,0,0,0,152,152,82,1,muziek,images/br_muziek.png,images/cb_muziek.png,0,,,,,,,,,,,,,,,,,,,,,,
,,,,,00020,2023-08-20_12h14.15.651,vbt_B1_day3,2022.2.4,MacIntel,60.0024001,,,,,,down,0,8.7164,,0.080342882,-0.232803277,1,0,0,0,153,153,142,1,snuiven,images/br_snuiven.png,images/cb_snuiven.png,1,snuiven,,,,,,,,,,,,,,,,,,,,,
,,,,,00020,2023-08-20_12h14.15.651,vbt_B1_day3,2022.2.4,MacIntel,60.0024001,,,,,,down,0,2.5341,,0.080342882,-0.232803277,1,0,0,0,154,154,188,1,strekken,images/br_strekken.png,images/cb_strekken.png,0,,,,,,,,,,,,,,,,,,,,,,
,,,,,00020,2023-08-20_12h14.15.651,vbt_B1_day3,2022.2.4,MacIntel,60.0024001,,,,,,down,0,6.7022,,0.080342882,-0.232803277,1,0,0,0,155,155,182,1,bijkomen,images/br_bijkomen.png,images/cb_bijkomen.png,1,bijkomen,,,,,,,,,,,,,,,,,,,,,
,,,,,00020,2023-08-20_12h14.15.651,vbt_B1_day3,2022.2.4,MacIntel,60.0024001,,,,,,down,0,0.9511,,0.080342882,-0.232803277,1,0,0,0,156,156,72,1,strak,images/br_strak.png,images/cb_strak.png,0,,,,,,,,,,,,,,,,,,,,,,
,,,,,00020,2023-08-20_12h14.15.651,vbt_B1_day3,2022.2.4,MacIntel,60.0024001,,,,,,down,0,2.7676,,0.080342882,-0.232803277,1,0,0,0,157,157,163,1,schuilen,images/br_schuilen.png,images/cb_schuilen.png,0,,,,,,,,,,,,,,,,,,,,,,
,,,,,00020,2023-08-20_12h14.15.651,vbt_B1_day3,2022.2.4,MacIntel,60.0024001,,,,,,down,0,0.3667,,0.080342882,-0.232803277,1,0,0,0,158,158,57,1,steek,images/br_steek.png,images/cb_steek.png,0,,,,,,,,,,,,,,,,,,,,,,
,,,,,00020,2023-08-20_12h14.15.651,vbt_B1_day3,2022.2.4,MacIntel,60.0024001,,,,,,down,0,4.9501,,0.080342882,-0.232803277,1,0,0,0,159,159,180,1,openbaar,images/br_openbaar.png,images/cb_openbaar.png,1,openbaar,,,,,,,,,,,,,,,,,,,,,
,,,,,00020,2023-08-20_12h14.15.651,vbt_B1_day3,2022.2.4,MacIntel,60.0024001,,,,,,down,0,4.7002,,0.080342882,-0.232803277,1,0,0,0,160,160,85,1,heilig,images/br_heilig.png,images/cb_heilig.png,0,,,,,,,,,,,,,,,,,,,,,,
,,,,,00020,2023-08-20_12h14.15.651,vbt_B1_day3,2022.2.4,MacIntel,60.0024001,,,,,,down,0,4.517,,0.080342882,-0.232803277,1,0,0,0,161,161,165,1,feestdag,images/br_feestdag.png,images/cb_feestdag.png,0,,,,,,,,,,,,,,,,,,,,,,
,,,,,00020,2023-08-20_12h14.15.651,vbt_B1_day3,2022.2.4,MacIntel,60.0024001,,,,,,down,0,3.0995,,0.103012899,-0.079784003,1,0,0,0,162,162,34,1,vorm,images/br_vorm.png,images/cb_vorm.png,0,,,,,,,,,,,,,,,,,,,,,,
,,,,,00020,2023-08-20_12h14.15.651,vbt_B1_day3,2022.2.4,MacIntel,60.0024001,,,,,,down,0,0.6033,,0.103012899,-0.079784003,1,0,0,0,163,163,107,1,maling,images/br_maling.png,images/cb_maling.png,0,,,,,,,,,,,,,,,,,,,,,,
,,,,,00020,2023-08-20_12h14.15.651,vbt_B1_day3,2022.2.4,MacIntel,60.0024001,,,,,,down,0,3.3337,,0.103012899,-0.079784003,1,0,0,0,164,164,118,1,vinger,images/br_vinger.png,images/cb_vinger.png,0,,,,,,,,,,,,,,,,,,,,,,
,,,,,00020,2023-08-20_12h14.15.651,vbt_B1_day3,2022.2.4,MacIntel,60.0024001,,,,,,down,0,0.5501,,0.103012899,-0.079784003,1,0,0,0,165,165,17,1,taal,images/br_taal.png,images/cb_taal.png,0,,,,,,,,,,,,,,,,,,,,,,
,,,,,00020,2023-08-20_12h14.15.651,vbt_B1_day3,2022.2.4,MacIntel,60.0024001,,,,,,down,0,4.2833,,0.103012899,-0.079784003,1,0,0,0,166,166,194,1,driemaal,images/br_driemaal.png,images/cb_driemaal.png,0,,,,,,,,,,,,,,,,,,,,,,
,,,,,00020,2023-08-20_12h14.15.651,vbt_B1_day3,2022.2.4,MacIntel,60.0024001,,,,,,down,0,3.0661,,0.103012899,-0.079784003,1,0,0,0,167,167,156,1,rechten,images/br_rechten.png,images/cb_rechten.png,0,,,,,,,,,,,,,,,,,,,,,,
,,,,,00020,2023-08-20_12h14.15.651,vbt_B1_day3,2022.2.4,MacIntel,60.0024001,,,,,,down,0,5.9388,,0.103012899,-0.079784003,1,0,0,0,168,168,195,1,middelen,images/br_middelen.png,images/cb_middelen.png,0,,,,,,,,,,,,,,,,,,,,,,
,,,,,00020,2023-08-20_12h14.15.651,vbt_B1_day3,2022.2.4,MacIntel,60.0024001,,,,,,down,0,8.5009,,0.103012899,-0.079784003,1,0,0,0,169,169,179,1,woestijn,images/br_woestijn.png,images/cb_woestijn.png,0,,,,,,,,,,,,,,,,,,,,,,
,,,,,00020,2023-08-20_12h14.15.651,vbt_B1_day3,2022.2.4,MacIntel,60.0024001,,,,,,down,0,11.7712,,0.103012899,-0.079784003,1,0,0,0,170,170,108,1,excuus,images/br_excuus.png,images/cb_excuus.png,0,,,,,,,,,,,,,,,,,,,,,,
,,,,,00020,2023-08-20_12h14.15.651,vbt_B1_day3,2022.2.4,MacIntel,60.0024001,,,,,,down,0,0.0351,,0.103012899,-0.079784003,1,0,0,0,171,171,25,1,plek,images/br_plek.png,images/cb_plek.png,0,,,,,,,,,,,,,,,,,,,,,,
,,,,,00020,2023-08-20_12h14.15.651,vbt_B1_day3,2022.2.4,MacIntel,60.0024001,,,,,,down,0,7.5835,,0.103012899,-0.079784003,1,0,0,0,172,172,60,1,jasje,images/br_jasje.png,images/cb_jasje.png,1,jasje,,,,,,,,,,,,,,,,,,,,,
,,,,,00020,2023-08-20_12h14.15.651,vbt_B1_day3,2022.2.4,MacIntel,60.0024001,,,,,,down,0,2.334,,0.103012899,-0.079784003,1,0,0,0,173,173,154,1,aflopen,images/br_aflopen.png,images/cb_aflopen.png,0,,,,,,,,,,,,,,,,,,,,,,
,,,,,00020,2023-08-20_12h14.15.651,vbt_B1_day3,2022.2.4,MacIntel,60.0024001,,,,,,down,0,3.918,,0.103012899,-0.079784003,1,0,0,0,174,174,110,1,zuster,images/br_zuster.png,images/cb_zuster.png,0,,,,,,,,,,,,,,,,,,,,,,
,,,,,00020,2023-08-20_12h14.15.651,vbt_B1_day3,2022.2.4,MacIntel,60.0024001,,,,,,down,0,3.8672,,0.103012899,-0.079784003,1,0,0,0,175,175,54,1,gebit,images/br_gebit.png,images/cb_gebit.png,0,,,,,,,,,,,,,,,,,,,,,,
,,,,,00020,2023-08-20_12h14.15.651,vbt_B1_day3,2022.2.4,MacIntel,60.0024001,,,,,,down,0,1.9178,,0.103012899,-0.079784003,1,0,0,0,176,176,152,1,afnemen,images/br_afnemen.png,images/cb_afnemen.png,0,,,,,,,,,,,,,,,,,,,,,,
,,,,,00020,2023-08-20_12h14.15.651,vbt_B1_day3,2022.2.4,MacIntel,60.0024001,,,,,,down,0,0.7005,,0.103012899,-0.079784003,1,0,0,0,177,177,35,1,lust,images/br_lust.png,images/cb_lust.png,0,,,,,,,,,,,,,,,,,,,,,,
,,,,,00020,2023-08-20_12h14.15.651,vbt_B1_day3,2022.2.4,MacIntel,60.0024001,,,,,,down,0,4.5839,,0.103012899,-0.079784003,1,0,0,0,178,178,129,1,verhaal,images/br_verhaal.png,images/cb_verhaal.png,0,,,,,,,,,,,,,,,,,,,,,,
,,,,,00020,2023-08-20_12h14.15.651,vbt_B1_day3,2022.2.4,MacIntel,60.0024001,,,,,,down,0,0.6497,,0.103012899,-0.079784003,1,0,0,0,179,179,99,1,koffie,images/br_koffie.png,images/cb_koffie.png,0,,,,,,,,,,,,,,,,,,,,,,
,,,,,00020,2023-08-20_12h14.15.651,vbt_B1_day3,2022.2.4,MacIntel,60.0024001,,,,,,down,0,2.234,,0.103012899,-0.079784003,1,0,0,0,180,180,161,1,attentie,images/br_attentie.png,images/cb_attentie.png,0,,,,,,,,,,,,,,,,,,,,,,
,,,,,00020,2023-08-20_12h14.15.651,vbt_B1_day3,2022.2.4,MacIntel,60.0024001,,,,,,down,0,0.1333,,0.103012899,-0.079784003,1,0,0,0,181,181,76,1,afval,images/br_afval.png,images/cb_afval.png,0,,,,,,,,,,,,,,,,,,,,,,
,,,,,00020,2023-08-20_12h14.15.651,vbt_B1_day3,2022.2.4,MacIntel,60.0024001,,,,,,down,0,1.1161,,0.103012899,-0.079784003,1,0,0,0,182,182,26,1,leuk,images/br_leuk.png,images/cb_leuk.png,0,,,,,,,,,,,,,,,,,,,,,,
,,,,,00020,2023-08-20_12h14.15.651,vbt_B1_day3,2022.2.4,MacIntel,60.0024001,,,,,,down,0,0.7008,,0.103012899,-0.079784003,1,0,0,0,183,183,51,1,samen,images/br_samen.png,images/cb_samen.png,0,,,,,,,,,,,,,,,,,,,,,,
,,,,,00020,2023-08-20_12h14.15.651,vbt_B1_day3,2022.2.4,MacIntel,60.0024001,,,,,,down,0,0.3009,,0.103012899,-0.079784003,1,0,0,0,184,184,69,1,waken,images/br_waken.png,images/cb_waken.png,0,,,,,,,,,,,,,,,,,,,,,,
,,,,,00020,2023-08-20_12h14.15.651,vbt_B1_day3,2022.2.4,MacIntel,60.0024001,,,,,,down,0,0.168,,0.103012899,-0.079784003,1,0,0,0,185,185,39,1,laag,images/br_laag.png,images/cb_laag.png,0,,,,,,,,,,,,,,,,,,,,,,
,,,,,00020,2023-08-20_12h14.15.651,vbt_B1_day3,2022.2.4,MacIntel,60.0024001,,,,,,down,0,0.5339,,0.103012899,-0.079784003,1,0,0,0,186,186,49,1,laken,images/br_laken.png,images/cb_laken.png,0,,,,,,,,,,,,,,,,,,,,,,
,,,,,00020,2023-08-20_12h14.15.651,vbt_B1_day3,2022.2.4,MacIntel,60.0024001,,,,,,down,0,2.3671,,0.103012899,-0.079784003,1,0,0,0,187,187,44,1,flits,images/br_flits.png,images/cb_flits.png,0,,,,,,,,,,,,,,,,,,,,,,
,,,,,00020,2023-08-20_12h14.15.651,vbt_B1_day3,2022.2.4,MacIntel,60.0024001,,,,,,down,0,0.9345,,0.103012899,-0.079784003,1,0,0,0,188,188,41,1,maken,images/br_maken.png,images/cb_maken.png,0,,,,,,,,,,,,,,,,,,,,,,
,,,,,00020,2023-08-20_12h14.15.651,vbt_B1_day3,2022.2.4,MacIntel,60.0024001,,,,,,down,0,2.0172,,0.103012899,-0.079784003,1,0,0,0,189,189,150,1,gegeven,images/br_gegeven.png,images/cb_gegeven.png,0,,,,,,,,,,,,,,,,,,,,,,
,,,,,00020,2023-08-20_12h14.15.651,vbt_B1_day3,2022.2.4,MacIntel,60.0024001,,,,,,down,0,0.1018,,0.103012899,-0.079784003,1,0,0,0,190,190,125,1,aanzien,images/br_aanzien.png,images/cb_aanzien.png,0,,,,,,,,,,,,,,,,,,,,,,
,,,,,00020,2023-08-20_12h14.15.651,vbt_B1_day3,2022.2.4,MacIntel,60.0024001,,,,,,down,0,0.8535,,0.103012899,-0.079784003,1,0,0,0,191,191,7,1,geld,images/br_geld.png,images/cb_geld.png,0,,,,,,,,,,,,,,,,,,,,,,
,,,,,00020,2023-08-20_12h14.15.651,vbt_B1_day3,2022.2.4,MacIntel,60.0024001,,,,,,down,0,0.9521,,0.103012899,-0.079784003,1,0,0,0,192,192,87,1,toeval,images/br_toeval.png,images/cb_toeval.png,0,,,,,,,,,,,,,,,,,,,,,,
,,,,,00020,2023-08-20_12h14.15.651,vbt_B1_day3,2022.2.4,MacIntel,60.0024001,,,,,,down,0,0.7011,,0.096861369,-0.0783648,1,0,0,0,193,193,106,1,zingen,images/br_zingen.png,images/cb_zingen.png,0,,,,,,,,,,,,,,,,,,,,,,
,,,,,00020,2023-08-20_12h14.15.651,vbt_B1_day3,2022.2.4,MacIntel,60.0024001,,,,,,down,0,0.0841,,0.096861369,-0.0783648,1,0,0,0,194,194,74,1,graaf,images/br_graaf.png,images/cb_graaf.png,0,,,,,,,,,,,,,,,,,,,,,,
,,,,,00020,2023-08-20_12h14.15.651,vbt_B1_day3,2022.2.4,MacIntel,60.0024001,,,,,,down,0,3.2173,,0.089400363,-0.077594944,1,0,0,0,195,195,167,1,eenhoorn,images/br_eenhoorn.png,images/cb_eenhoorn.png,0,,,,,,,,,,,,,,,,,,,,,,
,,,,,00020,2023-08-20_12h14.15.651,vbt_B1_day3,2022.2.4,MacIntel,60.0024001,,,,,,down,0,1.7505,,0.089400363,-0.077594944,1,0,0,0,196,196,189,1,aanraden,images/br_aanraden.png,images/cb_aanraden.png,0,,,,,,,,,,,,,,,,,,,,,,
,,,,,00020,2023-08-20_12h14.15.651,vbt_B1_day3,2022.2.4,MacIntel,60.0024001,,,,,,down,0,0.5169,,0.089400363,-0.077594944,1,0,0,0,197,197,4,1,moes,images/br_moes.png,images/cb_moes.png,0,,,,,,,,,,,,,,,,,,,,,,
,,,,,00020,2023-08-20_12h14.15.651,vbt_B1_day3,2022.2.4,MacIntel,60.0024001,,,,,,down,0,2.4166,,0.089400363,-0.077594944,1,0,0,0,198,198,133,1,seizoen,images/br_seizoen.png,images/cb_seizoen.png,0,,,,,,,,,,,,,,,,,,,,,,
,,,,,00020,2023-08-20_12h14.15.651,vbt_B1_day3,2022.2.4,MacIntel,60.0024001,,,,,,down,0,0.384,,0.089400363,-0.077594944,1,0,0,0,199,199,113,1,koppen,images/br_koppen.png,images/cb_koppen.png,0,,,,,,,,,,,,,,,,,,,,,,
,,,,,00020,2023-08-20_12h14.15.651,vbt_B1_day3,2022.2.4,MacIntel,60.0024001,,,,,,,,,,,,,,,,,,,,,,,,,-0.030818414,-0.079263306,1,0,0,,,,,,,,,,,,,,,,
,,,,,00020,2023-08-20_12h14.15.651,vbt_B1_day3,2022.2.4,MacIntel,60.0024001,,,,,,,,,,,,,,,,,,,,,,,,,,,,,,-0.024144626,-0.060788269,1,0,0,,,,,,,,,,,
,,,,,00020,2023-08-20_12h14.15.651,vbt_B1_day3,2022.2.4,MacIntel,60.0024001,,,,,,,,,,,,,,,,,,,,sultan,images/br_sultan.png,images/cb_sultan.png,,sultan,,,,,,,,,,,-0.024144626,-0.060788269,1,0,0,sultan,0,0,0,49,1
,,,,,00020,2023-08-20_12h14.15.651,vbt_B1_day3,2022.2.4,MacIntel,60.0024001,,,,,,,,,,,,,,,,,,,,kest,images/br_kest.png,images/cb_kest.png,,kest,,,,,,,,,,,-0.024144626,-0.060788269,1,0,0,kest,0,1,1,21,1
,,,,,00020,2023-08-20_12h14.15.651,vbt_B1_day3,2022.2.4,MacIntel,60.0024001,,,,,,,,,,,,,,,,,,,,geluid,images/br_geluid.png,images/cb_geluid.png,,geluid,,,,,,,,,,,-0.024144626,-0.060788269,1,0,0,geluid,0,2,2,10,1
,,,,,00020,2023-08-20_12h14.15.651,vbt_B1_day3,2022.2.4,MacIntel,60.0024001,,,,,,,,,,,,,,,,,,,,croo,images/br_croo.png,images/cb_croo.png,,croo,,,,,,,,,,,-0.024144626,-0.060788269,1,0,0,croo,0,3,3,22,1
,,,,,00020,2023-08-20_12h14.15.651,vbt_B1_day3,2022.2.4,MacIntel,60.0024001,,,,,,,,,,,,,,,,,,,,invallen,images/br_invallen.png,images/cb_invallen.png,,invallen,,,,,,,,,,,-0.024144626,-0.060788269,1,0,0,invallen,0,4,4,57,1
,,,,,00020,2023-08-20_12h14.15.651,vbt_B1_day3,2022.2.4,MacIntel,60.0024001,,,,,,,,,,,,,,,,,,,,kaas,images/br_kaas.png,images/cb_kaas.png,,kaas,,,,,,,,,,,-0.024144626,-0.060788269,1,0,0,kaas,0,5,5,42,1
,,,,,00020,2023-08-20_12h14.15.651,vbt_B1_day3,2022.2.4,MacIntel,60.0024001,,,,,,,,,,,,,,,,,,,,kwaas,images/br_kwaas.png,images/cb_kwaas.png,,kwaas,,,,,,,,,,,-0.024144626,-0.060788269,1,0,0,kwaas,0,6,6,26,1
,,,,,00020,2023-08-20_12h14.15.651,vbt_B1_day3,2022.2.4,MacIntel,60.0024001,,,,,,,,,,,,,,,,,,,,stoom,images/br_stoom.png,images/cb_stoom.png,,stoom,,,,,,,,,,,-0.024144626,-0.060788269,1,0,0,stoom,0,7,7,6,1
,,,,,00020,2023-08-20_12h14.15.651,vbt_B1_day3,2022.2.4,MacIntel,60.0024001,,,,,,,,,,,,,,,,,,,,uviek,images/br_uviek.png,images/cb_uviek.png,,uviek,,,,,,,,,,,-0.013150499,-0.056187812,1,0,0,uviek,0,8,8,25,1
,,,,,00020,2023-08-20_12h14.15.651,vbt_B1_day3,2022.2.4,MacIntel,60.0024001,,,,,,,,,,,,,,,,,,,,verwoor,images/br_verwoor.png,images/cb_verwoor.png,,veawoor,,,,,,,,,,,-0.013150499,-0.056187812,1,0,0,veawoor,0,9,9,32,1
,,,,,00020,2023-08-20_12h14.15.651,vbt_B1_day3,2022.2.4,MacIntel,60.0024001,,,,,,,,,,,,,,,,,,,,stallen,images/br_stallen.png,images/cb_stallen.png,,stallen,,,,,,,,,,,-0.013150499,-0.056187812,1,0,0,stallen,0,10,10,52,1
,,,,,00020,2023-08-20_12h14.15.651,vbt_B1_day3,2022.2.4,MacIntel,60.0024001,,,,,,,,,,,,,,,,,,,,gezond,images/br_gezond.png,images/cb_gezond.png,,gezond,,,,,,,,,,,-0.013150499,-0.056187812,1,0,0,gezond,0,11,11,11,1
,,,,,00020,2023-08-20_12h14.15.651,vbt_B1_day3,2022.2.4,MacIntel,60.0024001,,,,,,,,,,,,,,,,,,,,verhaal,images/br_verhaal.png,images/cb_verhaal.png,,verhaal,,,,,,,,,,,-0.013150499,-0.056187812,1,0,0,verhaal,0,12,12,13,1
,,,,,00020,2023-08-20_12h14.15.651,vbt_B1_day3,2022.2.4,MacIntel,60.0024001,,,,,,,,,,,,,,,,,,,,jongelui,images/br_jongelui.png,images/cb_jongelui.png,,dongelui,,,,,,,,,,,-0.013150499,-0.056187812,1,0,0,dongelui,0,13,13,59,1
,,,,,00020,2023-08-20_12h14.15.651,vbt_B1_day3,2022.2.4,MacIntel,60.0024001,,,,,,,,,,,,,,,,,,,,bevret,images/br_bevret.png,images/cb_bevret.png,,bevret,,,,,,,,,,,-0.013150499,-0.056187812,1,0,0,bevret,0,14,14,30,1
,,,,,00020,2023-08-20_12h14.15.651,vbt_B1_day3,2022.2.4,MacIntel,60.0024001,,,,,,,,,,,,,,,,,,,,brappen,images/br_brappen.png,images/cb_brappen.png,,brappen,,,,,,,,,,,-0.013150499,-0.056187812,1,0,0,brappen,0,15,15,35,1
,,,,,00020,2023-08-20_12h14.15.651,vbt_B1_day3,2022.2.4,MacIntel,60.0024001,,,,,,,,,,,,,,,,,,,,hier,images/br_hier.png,images/cb_hier.png,,hier,,,,,,,,,,,-0.013150499,-0.056187812,1,0,0,hier,0,16,16,1,1
,,,,,00020,2023-08-20_12h14.15.651,vbt_B1_day3,2022.2.4,MacIntel,60.0024001,,,,,,,,,,,,,,,,,,,,glijden,images/br_glijden.png,images/cb_glijden.png,,glijden,,,,,,,,,,,-0.013150499,-0.056187812,1,0,0,glijden,0,17,17,53,1
,,,,,00020,2023-08-20_12h14.15.651,vbt_B1_day3,2022.2.4,MacIntel,60.0024001,,,,,,,,,,,,,,,,,,,,hust,images/br_hust.png,images/cb_hust.png,,hust,,,,,,,,,,,-0.013150499,-0.056187812,1,0,0,hust,0,18,18,23,1
,,,,,00020,2023-08-20_12h14.15.651,vbt_B1_day3,2022.2.4,MacIntel,60.0024001,,,,,,,,,,,,,,,,,,,,aarzelen,images/br_aarzelen.png,images/cb_aarzelen.png,,aarzelen,,,,,,,,,,,-0.013150499,-0.056187812,1,0,0,aarzelen,0,19,19,19,1
,,,,,00020,2023-08-20_12h14.15.651,vbt_B1_day3,2022.2.4,MacIntel,60.0024001,,,,,,,,,,,,,,,,,,,,sluier,images/br_sluier.png,images/cb_sluier.png,,sluier,,,,,,,,,,,-0.013150499,-0.056187812,1,0,0,sluier,0,20,20,50,1
,,,,,00020,2023-08-20_12h14.15.651,vbt_B1_day3,2022.2.4,MacIntel,60.0024001,,,,,,,,,,,,,,,,,,,,zone,images/br_zone.png,images/cb_zone.png,,zone,,,,,,,,,,,-0.013150499,-0.056187812,1,0,0,zone,0,21,21,41,1
,,,,,00020,2023-08-20_12h14.15.651,vbt_B1_day3,2022.2.4,MacIntel,60.0024001,,,,,,,,,,,,,,,,,,,,alsof,images/br_alsof.png,images/cb_alsof.png,,alsof,,,,,,,,,,,-0.013150499,-0.056187812,1,0,0,alsof,0,22,22,44,1
,,,,,00020,2023-08-20_12h14.15.651,vbt_B1_day3,2022.2.4,MacIntel,60.0024001,,,,,,,,,,,,,,,,,,,,booien,images/br_booien.png,images/cb_booien.png,,booien,,,,,,,,,,,-0.013150499,-0.056187812,1,0,0,booien,0,23,23,31,1
,,,,,00020,2023-08-20_12h14.15.651,vbt_B1_day3,2022.2.4,MacIntel,60.0024001,,,,,,,,,,,,,,,,,,,,verraden,images/br_verraden.png,images/cb_verraden.png,,uerra...,,,,,,,,,,,-0.013150499,-0.056187812,1,0,0,uerra...,0,24,24,58,1
,,,,,00020,2023-08-20_12h14.15.651,vbt_B1_day3,2022.2.4,MacIntel,60.0024001,,,,,,,,,,,,,,,,,,,,oprotten,images/br_oprotten.png,images/cb_oprotten.png,,oprotten,,,,,,,,,,,-0.013150499,-0.056187812,1,0,0,oprotten,0,25,25,17,1
,,,,,00020,2023-08-20_12h14.15.651,vbt_B1_day3,2022.2.4,MacIntel,60.0024001,,,,,,,,,,,,,,,,,,,,leemaken,images/br_leemaken.png,images/cb_leemaken.png,,leemaken,,,,,,,,,,,-0.013150499,-0.056187812,1,0,0,leemaken,0,26,26,39,1
,,,,,00020,2023-08-20_12h14.15.651,vbt_B1_day3,2022.2.4,MacIntel,60.0024001,,,,,,,,,,,,,,,,,,,,bisschop,images/br_bisschop.png,images/cb_bisschop.png,,bisschop,,,,,,,,,,,-0.013150499,-0.056187812,1,0,0,bisschop,0,27,27,16,1
,,,,,00020,2023-08-20_12h14.15.651,vbt_B1_day3,2022.2.4,MacIntel,60.0024001,,,,,,,,,,,,,,,,,,,,leugeren,images/br_leugeren.png,images/cb_leugeren.png,,leuger...,,,,,,,,,,,-0.013150499,-0.056187812,1,0,0,leuger...,0,28,28,37,1
,,,,,00020,2023-08-20_12h14.15.651,vbt_B1_day3,2022.2.4,MacIntel,60.0024001,,,,,,,,,,,,,,,,,,,,eens,images/br_eens.png,images/cb_eens.png,,eens,,,,,,,,,,,0.044635417,-0.114689399,1,0,0,eens,0,29,29,40,1
,,,,,00020,2023-08-20_12h14.15.651,vbt_B1_day3,2022.2.4,MacIntel,60.0024001,,,,,,,,,,,,,,,,,,,,mugeek,images/br_mugeek.png,images/cb_mugeek.png,,mugeek,,,,,,,,,,,0.044635417,-0.114689399,1,0,0,mugeek,0,30,30,29,1
,,,,,00020,2023-08-20_12h14.15.651,vbt_B1_day3,2022.2.4,MacIntel,60.0024001,,,,,,,,,,,,,,,,,,,,vlager,images/br_vlager.png,images/cb_vlager.png,,vlager,,,,,,,,,,,0.044635417,-0.114689399,1,0,0,vlager,0,31,31,28,1
,,,,,00020,2023-08-20_12h14.15.651,vbt_B1_day3,2022.2.4,MacIntel,60.0024001,,,,,,,,,,,,,,,,,,,,opzetten,images/br_opzetten.png,images/cb_opzetten.png,,opzetten,,,,,,,,,,,0.108948975,-0.011801622,1,0,0,opzetten,0,32,32,56,1
,,,,,00020,2023-08-20_12h14.15.651,vbt_B1_day3,2022.2.4,MacIntel,60.0024001,,,,,,,,,,,,,,,,,,,,stikken,images/br_stikken.png,images/cb_stikken.png,,stikken,,,,,,,,,,,0.108948975,-0.011801622,1,0,0,stikken,0,33,33,54,1
,,,,,00020,2023-08-20_12h14.15.651,vbt_B1_day3,2022.2.4,MacIntel,60.0024001,,,,,,,,,,,,,,,,,,,,makieren,images/br_makieren.png,images/cb_makieren.png,,makieren,,,,,,,,,,,0.108948975,-0.011801622,1,0,0,makieren,0,34,34,36,1
,,,,,00020,2023-08-20_12h14.15.651,vbt_B1_day3,2022.2.4,MacIntel,60.0024001,,,,,,,,,,,,,,,,,,,,dwang,images/br_dwang.png,images/cb_dwang.png,,dwang,,,,,,,,,,,0.021607598,-0.094717272,1,0,0,dwang,0,35,35,47,1
,,,,,00020,2023-08-20_12h14.15.651,vbt_B1_day3,2022.2.4,MacIntel,60.0024001,,,,,,,,,,,,,,,,,,,,afbopen,images/br_afbopen.png,images/cb_afbopen.png,,afbopen,,,,,,,,,,,0.065444404,-0.046954549,1,0,0,afbopen,0,36,36,34,1
,,,,,00020,2023-08-20_12h14.15.651,vbt_B1_day3,2022.2.4,MacIntel,60.0024001,,,,,,,,,,,,,,,,,,,,keihard,images/br_keihard.png,images/cb_keihard.png,,keihard,,,,,,,,,,,0.152880046,-0.060389676,1,0,0,keihard,0,37,37,14,1
,,,,,00020,2023-08-20_12h14.15.651,vbt_B1_day3,2022.2.4,MacIntel,60.0024001,,,,,,,,,,,,,,,,,,,,schatten,images/br_schatten.png,images/cb_schatten.png,,schatten,,,,,,,,,,,0.198833008,-0.03007548,1,0,0,schatten,0,38,38,18,1
,,,,,00020,2023-08-20_12h14.15.651,vbt_B1_day3,2022.2.4,MacIntel,60.0024001,,,,,,,,,,,,,,,,,,,,begrip,images/br_begrip.png,images/cb_begrip.png,,begrip,,,,,,,,,,,0.094003364,-0.031340162,1,0,0,begrip,0,39,39,48,1
,,,,,00020,2023-08-20_12h14.15.651,vbt_B1_day3,2022.2.4,MacIntel,60.0024001,,,,,,,,,,,,,,,,,,,,paken,images/br_paken.png,images/cb_paken.png,,paken,,,,,,,,,,,0.084411011,-0.067386068,1,0,0,paken,0,40,40,27,1
,,,,,00020,2023-08-20_12h14.15.651,vbt_B1_day3,2022.2.4,MacIntel,60.0024001,,,,,,,,,,,,,,,,,,,,schodel,images/br_schodel.png,images/cb_schodel.png,,schodel,,,,,,,,,,,0.056481527,-0.063058099,1,0,0,schodel,0,41,41,33,1
,,,,,00020,2023-08-20_12h14.15.651,vbt_B1_day3,2022.2.4,MacIntel,60.0024001,,,,,,,,,,,,,,,,,,,,theeting,images/br_theeting.png,images/cb_theeting.png,,theeting,,,,,,,,,,,-0.061118978,-0.073152534,1,0,0,theeting,0,42,42,38,1
,,,,,00020,2023-08-20_12h14.15.651,vbt_B1_day3,2022.2.4,MacIntel,60.0024001,,,,,,,,,,,,,,,,,,,,prikken,images/br_prikken.png,images/cb_prikken.png,,prikken,,,,,,,,,,,-0.005204875,-0.06168986,1,0,0,prikken,0,43,43,12,1
,,,,,00020,2023-08-20_12h14.15.651,vbt_B1_day3,2022.2.4,MacIntel,60.0024001,,,,,,,,,,,,,,,,,,,,leek,images/br_leek.png,images/cb_leek.png,,leek,,,,,,,,,,,-0.005204875,-0.06168986,1,0,0,leek,0,44,44,2,1
,,,,,00020,2023-08-20_12h14.15.651,vbt_B1_day3,2022.2.4,MacIntel,60.0024001,,,,,,,,,,,,,,,,,,,,knie,images/br_knie.png,images/cb_knie.png,,knie,,,,,,,,,,,-0.005204875,-0.06168986,1,0,0,knie,0,45,45,0,1
,,,,,00020,2023-08-20_12h14.15.651,vbt_B1_day3,2022.2.4,MacIntel,60.0024001,,,,,,,,,,,,,,,,,,,,boeien,images/br_boeien.png,images/cb_boeien.png,,boeien,,,,,,,,,,,0.119390259,-0.099084608,1,0,0,boeien,0,46,46,8,1
,,,,,00020,2023-08-20_12h14.15.651,vbt_B1_day3,2022.2.4,MacIntel,60.0024001,,,,,,,,,,,,,,,,,,,,beslag,images/br_beslag.png,images/cb_beslag.png,,beslag,,,,,,,,,,,0.050166287,-0.034927199,1,0,0,beslag,0,47,47,51,1
,,,,,00020,2023-08-20_12h14.15.651,vbt_B1_day3,2022.2.4,MacIntel,60.0024001,,,,,,,,,,,,,,,,,,,,steel,images/br_steel.png,images/cb_steel.png,,steel,,,,,,,,,,,0.050166287,-0.034927199,1,0,0,steel,0,48,48,4,1
,,,,,00020,2023-08-20_12h14.15.651,vbt_B1_day3,2022.2.4,MacIntel,60.0024001,,,,,,,,,,,,,,,,,,,,gout,images/br_gout.png,images/cb_gout.png,,goud,,,,,,,,,,,0.02225552,-0.07573839,1,0,0,goud,0,49,49,20,1
,,,,,00020,2023-08-20_12h14.15.651,vbt_B1_day3,2022.2.4,MacIntel,60.0024001,,,,,,,,,,,,,,,,,,,,gebod,images/br_gebod.png,images/cb_gebod.png,,gebod,,,,,,,,,,,-0.006211751,-0.043134189,1,0,0,gebod,0,50,50,45,1
,,,,,00020,2023-08-20_12h14.15.651,vbt_B1_day3,2022.2.4,MacIntel,60.0024001,,,,,,,,,,,,,,,,,,,,laken,images/br_laken.png,images/cb_laken.png,,laken,,,,,,,,,,,0.02081448,-0.036043091,1,0,0,laken,0,51,51,5,1
,,,,,00020,2023-08-20_12h14.15.651,vbt_B1_day3,2022.2.4,MacIntel,60.0024001,,,,,,,,,,,,,,,,,,,,samen,images/br_samen.png,images/cb_samen.png,,samen,,,,,,,,,,,0.017301229,-0.044060533,1,0,0,samen,0,52,52,7,1
,,,,,00020,2023-08-20_12h14.15.651,vbt_B1_day3,2022.2.4,MacIntel,60.0024001,,,,,,,,,,,,,,,,,,,,mode,images/br_mode.png,images/cb_mode.png,,mode,,,,,,,,,,,0.017301229,-0.044060533,1,0,0,mode,0,53,53,3,1
,,,,,00020,2023-08-20_12h14.15.651,vbt_B1_day3,2022.2.4,MacIntel,60.0024001,,,,,,,,,,,,,,,,,,,,hint,images/br_hint.png,images/cb_hint.png,,hint,,,,,,,,,,,0.173572862,-0.036556125,1,0,0,hint,0,54,54,43,1
,,,,,00020,2023-08-20_12h14.15.651,vbt_B1_day3,2022.2.4,MacIntel,60.0024001,,,,,,,,,,,,,,,,,,,,uniek,images/br_uniek.png,images/cb_uniek.png,,uniek,,,,,,,,,,,0.130885145,-0.076772597,1,0,0,uniek,0,55,55,46,1
,,,,,00020,2023-08-20_12h14.15.651,vbt_B1_day3,2022.2.4,MacIntel,60.0024001,,,,,,,,,,,,,,,,,,,,slapen,images/br_slapen.png,images/cb_slapen.png,,slapen,,,,,,,,,,,0.064957954,-0.094818861,1,0,0,slapen,0,56,56,9,1
,,,,,00020,2023-08-20_12h14.15.651,vbt_B1_day3,2022.2.4,MacIntel,60.0024001,,,,,,,,,,,,,,,,,,,,opzicht,images/br_opzicht.png,images/cb_opzicht.png,,opzicht,,,,,,,,,,,0.019818251,-0.11030877,1,0,0,opzicht,0,57,57,15,1
,,,,,00020,2023-08-20_12h14.15.651,vbt_B1_day3,2022.2.4,MacIntel,60.0024001,,,,,,,,,,,,,,,,,,,,twaaf,images/br_twaaf.png,images/cb_twaaf.png,,twaaf,,,,,,,,,,,0.021079983,-0.083572456,1,0,0,twaaf,0,58,58,24,1
,,,,,00020,2023-08-20_12h14.15.651,vbt_B1_day3,2022.2.4,MacIntel,60.0024001,,,,,,,,,,,,,,,,,,,,onrecht,images/br_onrecht.png,images/cb_onrecht.png,,onr....,,,,,,,,,,,0.017299262,0.024103427,1,0,0,onr....,0,59,59,55,1
,,,,,00020,2023-08-20_12h14.15.651,vbt_B1_day3,2022.2.4,MacIntel,60.0024001,,,,,,,,,,,,,,,,,,,,,,,,,,,,,,,,,,,,,,,,,,,,,
