welcome_mouse.x,welcome_mouse.y,welcome_mouse.leftButton,welcome_mouse.midButton,welcome_mouse.rightButton,"ID",date,expName,psychopyVersion,OS,frameRate,trainInstr_mouse.x,trainInstr_mouse.y,trainInstr_mouse.leftButton,trainInstr_mouse.midButton,trainInstr_mouse.rightButton,translation_key.keys,translation_key.corr,translation_key.rt,word_rsp.text,trWrd_mouse.x,trWrd_mouse.y,trWrd_mouse.leftButton,trWrd_mouse.midButton,trWrd_mouse.rightButton,train_loop.thisRepN,train_loop.thisTrialN,train_loop.thisN,train_loop.thisIndex,train_loop.ran,nlWrd,brWrd,cbWrd,test,testResp,mouse.x,mouse.y,mouse.leftButton,mouse.midButton,mouse.rightButton,testInstr_mouse.x,testInstr_mouse.y,testInstr_mouse.leftButton,testInstr_mouse.midButton,testInstr_mouse.rightButton,test_mouse.x,test_mouse.y,test_mouse.leftButton,test_mouse.midButton,test_mouse.rightButton,test_response.text,test_loop.thisRepN,test_loop.thisTrialN,test_loop.thisN,test_loop.thisIndex,test_loop.ran
-0.02870369,-0.170370384,1,0,0,00084,2023-10-24_15h15.21.757,vbt_B1_day3,2022.2.4,Win32,59.13310863,,,,,,,,,,,,,,,,,,,,,,,,,,,,,,,,,,,,,,,,,,,,,
,,,,,00084,2023-10-24_15h15.21.757,vbt_B1_day3,2022.2.4,Win32,59.13310863,-0.666666667,0.084259245,1,0,0,,,,,,,,,,,,,,,,,,,,,,,,,,,,,,,,,,,,,,,,
,,,,,00084,2023-10-24_15h15.21.757,vbt_B1_day3,2022.2.4,Win32,59.13310863,,,,,,down,0,1.3847,,0.649999972,0.135185171,1,0,0,0,0,0,109,1,totaal,images/br_totaal.png,images/cb_totaal.png,0,,,,,,,,,,,,,,,,,,,,,,
,,,,,00084,2023-10-24_15h15.21.757,vbt_B1_day3,2022.2.4,Win32,59.13310863,,,,,,down,0,2.2688,,0.649999972,0.135185171,1,0,0,0,1,1,116,1,besmet,images/br_besmet.png,images/cb_besmet.png,0,,,,,,,,,,,,,,,,,,,,,,
,,,,,00084,2023-10-24_15h15.21.757,vbt_B1_day3,2022.2.4,Win32,59.13310863,,,,,,down,0,2.9705,,0.649999972,0.135185171,1,0,0,0,2,2,151,1,aanzoek,images/br_aanzoek.png,images/cb_aanzoek.png,0,,,,,,,,,,,,,,,,,,,,,,
,,,,,00084,2023-10-24_15h15.21.757,vbt_B1_day3,2022.2.4,Win32,59.13310863,,,,,,down,0,1.5023,,0.649999972,0.135185171,1,0,0,0,3,3,123,1,hiervan,images/br_hiervan.png,images/cb_hiervan.png,0,,,,,,,,,,,,,,,,,,,,,,
,,,,,00084,2023-10-24_15h15.21.757,vbt_B1_day3,2022.2.4,Win32,59.13310863,,,,,,down,0,2.9691,,0.649999972,0.135185171,1,0,0,0,4,4,191,1,opheffen,images/br_opheffen.png,images/cb_opheffen.png,0,,,,,,,,,,,,,,,,,,,,,,
,,,,,00084,2023-10-24_15h15.21.757,vbt_B1_day3,2022.2.4,Win32,59.13310863,,,,,,down,0,1.7684,,0.649999972,0.135185171,1,0,0,0,5,5,44,1,flits,images/br_flits.png,images/cb_flits.png,0,,,,,,,,,,,,,,,,,,,,,,
,,,,,00084,2023-10-24_15h15.21.757,vbt_B1_day3,2022.2.4,Win32,59.13310863,,,,,,down,0,4.409,,0.649999972,0.135185171,1,0,0,0,6,6,176,1,techniek,images/br_techniek.png,images/cb_techniek.png,0,,,,,,,,,,,,,,,,,,,,,,
,,,,,00084,2023-10-24_15h15.21.757,vbt_B1_day3,2022.2.4,Win32,59.13310863,,,,,,down,0,13.0457,,0.649999972,0.135185171,1,0,0,0,7,7,7,1,geld,images/br_geld.png,images/cb_geld.png,0,,,,,,,,,,,,,,,,,,,,,,
,,,,,00084,2023-10-24_15h15.21.757,vbt_B1_day3,2022.2.4,Win32,59.13310863,,,,,,down,0,4.2888,,0.649999972,0.135185171,1,0,0,0,8,8,97,1,loyaal,images/br_loyaal.png,images/cb_loyaal.png,0,,,,,,,,,,,,,,,,,,,,,,
,,,,,00084,2023-10-24_15h15.21.757,vbt_B1_day3,2022.2.4,Win32,59.13310863,,,,,,down,0,10.9206,,0.649999972,0.135185171,1,0,0,0,9,9,131,1,opzicht,images/br_opzicht.png,images/cb_opzicht.png,0,,,,,,,,,,,,,,,,,,,,,,
,,,,,00084,2023-10-24_15h15.21.757,vbt_B1_day3,2022.2.4,Win32,59.13310863,,,,,,down,0,3.8204,,0.649999972,0.135185171,1,0,0,0,10,10,139,1,stiekem,images/br_stiekem.png,images/cb_stiekem.png,0,,,,,,,,,,,,,,,,,,,,,,
,,,,,00084,2023-10-24_15h15.21.757,vbt_B1_day3,2022.2.4,Win32,59.13310863,,,,,,down,0,4.1428,,0.649999972,0.135185171,1,0,0,0,11,11,187,1,opkijken,images/br_opkijken.png,images/cb_opkijken.png,0,,,,,,,,,,,,,,,,,,,,,,
,,,,,00084,2023-10-24_15h15.21.757,vbt_B1_day3,2022.2.4,Win32,59.13310863,,,,,,down,0,2.7782,,0.649999972,0.135185171,1,0,0,0,12,12,133,1,seizoen,images/br_seizoen.png,images/cb_seizoen.png,0,,,,,,,,,,,,,,,,,,,,,,
,,,,,00084,2023-10-24_15h15.21.757,vbt_B1_day3,2022.2.4,Win32,59.13310863,,,,,,down,0,2.359,,0.649999972,0.135185171,1,0,0,0,13,13,165,1,feestdag,images/br_feestdag.png,images/cb_feestdag.png,0,,,,,,,,,,,,,,,,,,,,,,
,,,,,00084,2023-10-24_15h15.21.757,vbt_B1_day3,2022.2.4,Win32,59.13310863,,,,,,down,0,5.1888,,0.649999972,0.135185171,1,0,0,0,14,14,41,1,maken,images/br_maken.png,images/cb_maken.png,0,,,,,,,,,,,,,,,,,,,,,,
,,,,,00084,2023-10-24_15h15.21.757,vbt_B1_day3,2022.2.4,Win32,59.13310863,,,,,,down,0,5.1557,,0.649999972,0.135185171,1,0,0,0,15,15,17,1,taal,images/br_taal.png,images/cb_taal.png,0,,,,,,,,,,,,,,,,,,,,,,
,,,,,00084,2023-10-24_15h15.21.757,vbt_B1_day3,2022.2.4,Win32,59.13310863,,,,,,down,0,3.9946,,0.649999972,0.135185171,1,0,0,0,16,16,156,1,rechten,images/br_rechten.png,images/cb_rechten.png,0,,,,,,,,,,,,,,,,,,,,,,
,,,,,00084,2023-10-24_15h15.21.757,vbt_B1_day3,2022.2.4,Win32,59.13310863,,,,,,down,0,8.4777,,0.649999972,0.135185171,1,0,0,0,17,17,78,1,leren,images/br_leren.png,images/cb_leren.png,0,,,,,,,,,,,,,,,,,,,,,,
,,,,,00084,2023-10-24_15h15.21.757,vbt_B1_day3,2022.2.4,Win32,59.13310863,,,,,,down,0,19.9525,,0.649999972,0.135185171,1,0,0,0,18,18,180,1,openbaar,images/br_openbaar.png,images/cb_openbaar.png,1,openbaar,,,,,,,,,,,,,,,,,,,,,
,,,,,00084,2023-10-24_15h15.21.757,vbt_B1_day3,2022.2.4,Win32,59.13310863,,,,,,down,0,11.3223,,0.649999972,0.135185171,1,0,0,0,19,19,82,1,muziek,images/br_muziek.png,images/cb_muziek.png,0,,,,,,,,,,,,,,,,,,,,,,
,,,,,00084,2023-10-24_15h15.21.757,vbt_B1_day3,2022.2.4,Win32,59.13310863,,,,,,down,0,12.1752,,0.649999972,0.135185171,1,0,0,0,20,20,106,1,zingen,images/br_zingen.png,images/cb_zingen.png,0,,,,,,,,,,,,,,,,,,,,,,
,,,,,00084,2023-10-24_15h15.21.757,vbt_B1_day3,2022.2.4,Win32,59.13310863,,,,,,down,0,4.9898,,0.649999972,0.135185171,1,0,0,0,21,21,40,1,schep,images/br_schep.png,images/cb_schep.png,0,,,,,,,,,,,,,,,,,,,,,,
,,,,,00084,2023-10-24_15h15.21.757,vbt_B1_day3,2022.2.4,Win32,59.13310863,,,,,,down,0,19.2082,,0.649999972,0.135185171,1,0,0,0,22,22,174,1,stemming,images/br_stemming.png,images/cb_stemming.png,0,,,,,,,,,,,,,,,,,,,,,,
,,,,,00084,2023-10-24_15h15.21.757,vbt_B1_day3,2022.2.4,Win32,59.13310863,,,,,,down,0,16.1211,,0.649999972,0.135185171,1,0,0,0,23,23,114,1,vullen,images/br_vullen.png,images/cb_vullen.png,0,,,,,,,,,,,,,,,,,,,,,,
,,,,,00084,2023-10-24_15h15.21.757,vbt_B1_day3,2022.2.4,Win32,59.13310863,,,,,,down,0,4.2688,,0.649999972,0.135185171,1,0,0,0,24,24,52,1,wagon,images/br_wagon.png,images/cb_wagon.png,0,,,,,,,,,,,,,,,,,,,,,,
,,,,,00084,2023-10-24_15h15.21.757,vbt_B1_day3,2022.2.4,Win32,59.13310863,,,,,,down,0,3.553,,0.649999972,0.135185171,1,0,0,0,25,25,137,1,trekker,images/br_trekker.png,images/cb_trekker.png,0,,,,,,,,,,,,,,,,,,,,,,
,,,,,00084,2023-10-24_15h15.21.757,vbt_B1_day3,2022.2.4,Win32,59.13310863,,,,,,down,0,12.0112,,0.649999972,0.135185171,1,0,0,0,26,26,196,1,nakijken,images/br_nakijken.png,images/cb_nakijken.png,0,,,,,,,,,,,,,,,,,,,,,,
,,,,,00084,2023-10-24_15h15.21.757,vbt_B1_day3,2022.2.4,Win32,59.13310863,,,,,,down,0,9.9801,,0.649999972,0.135185171,1,0,0,0,27,27,33,1,vlek,images/br_vlek.png,images/cb_vlek.png,0,,,,,,,,,,,,,,,,,,,,,,
,,,,,00084,2023-10-24_15h15.21.757,vbt_B1_day3,2022.2.4,Win32,59.13310863,,,,,,down,0,10.1097,,0.649999972,0.135185171,1,0,0,0,28,28,104,1,zweven,images/br_zweven.png,images/cb_zweven.png,0,,,,,,,,,,,,,,,,,,,,,,
,,,,,00084,2023-10-24_15h15.21.757,vbt_B1_day3,2022.2.4,Win32,59.13310863,,,,,,down,0,4.8412,,0.649999972,0.135185171,1,0,0,0,29,29,50,1,stoom,images/br_stoom.png,images/cb_stoom.png,0,,,,,,,,,,,,,,,,,,,,,,
,,,,,00084,2023-10-24_15h15.21.757,vbt_B1_day3,2022.2.4,Win32,59.13310863,,,,,,down,0,7.3399,,0.649999972,0.135185171,1,0,0,0,30,30,184,1,aandelen,images/br_aandelen.png,images/cb_aandelen.png,0,,,,,,,,,,,,,,,,,,,,,,
,,,,,00084,2023-10-24_15h15.21.757,vbt_B1_day3,2022.2.4,Win32,59.13310863,,,,,,down,0,0.689,,0.649999972,0.135185171,1,0,0,0,31,31,83,1,mening,images/br_mening.png,images/cb_mening.png,0,,,,,,,,,,,,,,,,,,,,,,
,,,,,00084,2023-10-24_15h15.21.757,vbt_B1_day3,2022.2.4,Win32,59.13310863,,,,,,down,0,1.152,,0.649999972,0.135185171,1,0,0,0,32,32,170,1,schatten,images/br_schatten.png,images/cb_schatten.png,0,,,,,,,,,,,,,,,,,,,,,,
,,,,,00084,2023-10-24_15h15.21.757,vbt_B1_day3,2022.2.4,Win32,59.13310863,,,,,,down,0,1.4679,,0.649999972,0.135185171,1,0,0,0,33,33,72,1,strak,images/br_strak.png,images/cb_strak.png,0,,,,,,,,,,,,,,,,,,,,,,
,,,,,00084,2023-10-24_15h15.21.757,vbt_B1_day3,2022.2.4,Win32,59.13310863,,,,,,down,0,0.5944,,0.649999972,0.135185171,1,0,0,0,34,34,185,1,mijnheer,images/br_mijnheer.png,images/cb_mijnheer.png,0,,,,,,,,,,,,,,,,,,,,,,
,,,,,00084,2023-10-24_15h15.21.757,vbt_B1_day3,2022.2.4,Win32,59.13310863,,,,,,down,0,11.742,,0.649999972,0.135185171,1,0,0,0,35,35,47,1,kabel,images/br_kabel.png,images/cb_kabel.png,0,,,,,,,,,,,,,,,,,,,,,,
,,,,,00084,2023-10-24_15h15.21.757,vbt_B1_day3,2022.2.4,Win32,59.13310863,,,,,,down,0,7.995,,0.649999972,0.135185171,1,0,0,0,36,36,31,1,poes,images/br_poes.png,images/cb_poes.png,0,,,,,,,,,,,,,,,,,,,,,,
,,,,,00084,2023-10-24_15h15.21.757,vbt_B1_day3,2022.2.4,Win32,59.13310863,,,,,,down,0,5.17,,0.649999972,0.135185171,1,0,0,0,37,37,147,1,komisch,images/br_komisch.png,images/cb_komisch.png,0,,,,,,,,,,,,,,,,,,,,,,
,,,,,00084,2023-10-24_15h15.21.757,vbt_B1_day3,2022.2.4,Win32,59.13310863,,,,,,down,0,2.7687,,0.649999972,0.135185171,1,0,0,0,38,38,48,1,steel,images/br_steel.png,images/cb_steel.png,0,,,,,,,,,,,,,,,,,,,,,,
,,,,,00084,2023-10-24_15h15.21.757,vbt_B1_day3,2022.2.4,Win32,59.13310863,,,,,,down,0,7.8253,,0.649999972,0.135185171,1,0,0,0,39,39,89,1,slapen,images/br_slapen.png,images/cb_slapen.png,0,,,,,,,,,,,,,,,,,,,,,,
,,,,,00084,2023-10-24_15h15.21.757,vbt_B1_day3,2022.2.4,Win32,59.13310863,,,,,,down,0,12.7441,,0.649999972,0.135185171,1,0,0,0,40,40,132,1,grappen,images/br_grappen.png,images/cb_grappen.png,0,,,,,,,,,,,,,,,,,,,,,,
,,,,,00084,2023-10-24_15h15.21.757,vbt_B1_day3,2022.2.4,Win32,59.13310863,,,,,,down,0,12.5594,,0.649999972,0.135185171,1,0,0,0,41,41,25,1,plek,images/br_plek.png,images/cb_plek.png,0,,,,,,,,,,,,,,,,,,,,,,
,,,,,00084,2023-10-24_15h15.21.757,vbt_B1_day3,2022.2.4,Win32,59.13310863,,,,,,down,0,5.5525,,0.649999972,0.135185171,1,0,0,0,42,42,26,1,leuk,images/br_leuk.png,images/cb_leuk.png,0,,,,,,,,,,,,,,,,,,,,,,
,,,,,00084,2023-10-24_15h15.21.757,vbt_B1_day3,2022.2.4,Win32,59.13310863,,,,,,down,0,4.3864,,0.649999972,0.135185171,1,0,0,0,43,43,80,1,kanjer,images/br_kanjer.png,images/cb_kanjer.png,0,,,,,,,,,,,,,,,,,,,,,,
,,,,,00084,2023-10-24_15h15.21.757,vbt_B1_day3,2022.2.4,Win32,59.13310863,,,,,,down,0,7.2135,,0.649999972,0.135185171,1,0,0,0,44,44,43,1,klauw,images/br_klauw.png,images/cb_klauw.png,0,,,,,,,,,,,,,,,,,,,,,,
,,,,,00084,2023-10-24_15h15.21.757,vbt_B1_day3,2022.2.4,Win32,59.13310863,,,,,,down,0,9.2722,,0.649999972,0.135185171,1,0,0,0,45,45,71,1,bever,images/br_bever.png,images/cb_bever.png,0,,,,,,,,,,,,,,,,,,,,,,
,,,,,00084,2023-10-24_15h15.21.757,vbt_B1_day3,2022.2.4,Win32,59.13310863,,,,,,down,0,15.898,,0.649999972,0.135185171,1,0,0,0,46,46,1,1,zaal,images/br_zaal.png,images/cb_zaal.png,0,,,,,,,,,,,,,,,,,,,,,,
,,,,,00084,2023-10-24_15h15.21.757,vbt_B1_day3,2022.2.4,Win32,59.13310863,,,,,,down,0,16.8571,,0.649999972,0.135185171,1,0,0,0,47,47,23,1,zout,images/br_zout.png,images/cb_zout.png,1,zout,,,,,,,,,,,,,,,,,,,,,
,,,,,00084,2023-10-24_15h15.21.757,vbt_B1_day3,2022.2.4,Win32,59.13310863,,,,,,down,0,0.4014,,0.649999972,0.135185171,1,0,0,0,48,48,38,1,baai,images/br_baai.png,images/cb_baai.png,0,,,,,,,,,,,,,,,,,,,,,,
,,,,,00084,2023-10-24_15h15.21.757,vbt_B1_day3,2022.2.4,Win32,59.13310863,,,,,,down,0,4.802,,0.649999972,0.135185171,1,0,0,0,49,49,98,1,kreeft,images/br_kreeft.png,images/cb_kreeft.png,0,,,,,,,,,,,,,,,,,,,,,,
,,,,,00084,2023-10-24_15h15.21.757,vbt_B1_day3,2022.2.4,Win32,59.13310863,,,,,,down,0,4.7778,,0.649999972,0.135185171,1,0,0,0,50,50,94,1,oceaan,images/br_oceaan.png,images/cb_oceaan.png,0,,,,,,,,,,,,,,,,,,,,,,
,,,,,00084,2023-10-24_15h15.21.757,vbt_B1_day3,2022.2.4,Win32,59.13310863,,,,,,down,0,4.5534,,0.649999972,0.135185171,1,0,0,0,51,51,90,1,geluid,images/br_geluid.png,images/cb_geluid.png,0,,,,,,,,,,,,,,,,,,,,,,
,,,,,00084,2023-10-24_15h15.21.757,vbt_B1_day3,2022.2.4,Win32,59.13310863,,,,,,down,0,5.0019,,0.649999972,0.135185171,1,0,0,0,52,52,81,1,dubbel,images/br_dubbel.png,images/cb_dubbel.png,0,,,,,,,,,,,,,,,,,,,,,,
,,,,,00084,2023-10-24_15h15.21.757,vbt_B1_day3,2022.2.4,Win32,59.13310863,,,,,,down,0,0.7341,,0.649999972,0.135185171,1,0,0,0,53,53,37,1,mijn,images/br_mijn.png,images/cb_mijn.png,0,,,,,,,,,,,,,,,,,,,,,,
,,,,,00084,2023-10-24_15h15.21.757,vbt_B1_day3,2022.2.4,Win32,59.13310863,,,,,,down,0,1.7363,,0.649999972,0.135185171,1,0,0,0,54,54,69,1,waken,images/br_waken.png,images/cb_waken.png,0,,,,,,,,,,,,,,,,,,,,,,
,,,,,00084,2023-10-24_15h15.21.757,vbt_B1_day3,2022.2.4,Win32,59.13310863,,,,,,down,0,3.0279,,0.649999972,0.135185171,1,0,0,0,55,55,111,1,ticket,images/br_ticket.png,images/cb_ticket.png,0,,,,,,,,,,,,,,,,,,,,,,
,,,,,00084,2023-10-24_15h15.21.757,vbt_B1_day3,2022.2.4,Win32,59.13310863,,,,,,down,0,1.0077,,0.649999972,0.135185171,1,0,0,0,56,56,146,1,opkomen,images/br_opkomen.png,images/cb_opkomen.png,0,,,,,,,,,,,,,,,,,,,,,,
,,,,,00084,2023-10-24_15h15.21.757,vbt_B1_day3,2022.2.4,Win32,59.13310863,,,,,,down,0,4.3211,,0.649999972,0.135185171,1,0,0,0,57,57,167,1,eenhoorn,images/br_eenhoorn.png,images/cb_eenhoorn.png,0,,,,,,,,,,,,,,,,,,,,,,
,,,,,00084,2023-10-24_15h15.21.757,vbt_B1_day3,2022.2.4,Win32,59.13310863,,,,,,down,0,3.1864,,0.649999972,0.135185171,1,0,0,0,58,58,157,1,uitlaat,images/br_uitlaat.png,images/cb_uitlaat.png,0,,,,,,,,,,,,,,,,,,,,,,
,,,,,00084,2023-10-24_15h15.21.757,vbt_B1_day3,2022.2.4,Win32,59.13310863,,,,,,down,0,5.4078,,0.649999972,0.135185171,1,0,0,0,59,59,74,1,graaf,images/br_graaf.png,images/cb_graaf.png,0,,,,,,,,,,,,,,,,,,,,,,
,,,,,00084,2023-10-24_15h15.21.757,vbt_B1_day3,2022.2.4,Win32,59.13310863,,,,,,down,0,2.1514,,0.649999972,0.135185171,1,0,0,0,60,60,56,1,traag,images/br_traag.png,images/cb_traag.png,0,,,,,,,,,,,,,,,,,,,,,,
,,,,,00084,2023-10-24_15h15.21.757,vbt_B1_day3,2022.2.4,Win32,59.13310863,,,,,,down,0,16.6453,,0.649999972,0.135185171,1,0,0,0,61,61,101,1,staren,images/br_staren.png,images/cb_staren.png,1,staren,,,,,,,,,,,,,,,,,,,,,
,,,,,00084,2023-10-24_15h15.21.757,vbt_B1_day3,2022.2.4,Win32,59.13310863,,,,,,down,0,1.502,,0.649999972,0.135185171,1,0,0,0,62,62,189,1,aanraden,images/br_aanraden.png,images/cb_aanraden.png,0,,,,,,,,,,,,,,,,,,,,,,
,,,,,00084,2023-10-24_15h15.21.757,vbt_B1_day3,2022.2.4,Win32,59.13310863,,,,,,down,0,9.2805,,0.649999972,0.135185171,1,0,0,0,63,63,179,1,woestijn,images/br_woestijn.png,images/cb_woestijn.png,0,,,,,,,,,,,,,,,,,,,,,,
,,,,,00084,2023-10-24_15h15.21.757,vbt_B1_day3,2022.2.4,Win32,59.13310863,,,,,,down,0,5.9582,,0.649999972,0.135185171,1,0,0,0,64,64,53,1,baron,images/br_baron.png,images/cb_baron.png,0,,,,,,,,,,,,,,,,,,,,,,
,,,,,00084,2023-10-24_15h15.21.757,vbt_B1_day3,2022.2.4,Win32,59.13310863,,,,,,down,0,11.4109,,0.649999972,0.135185171,1,0,0,0,65,65,0,1,slak,images/br_slak.png,images/cb_slak.png,0,,,,,,,,,,,,,,,,,,,,,,
,,,,,00084,2023-10-24_15h15.21.757,vbt_B1_day3,2022.2.4,Win32,59.13310863,,,,,,down,0,2.8238,,0.649999972,0.135185171,1,0,0,0,66,66,193,1,weeshuis,images/br_weeshuis.png,images/cb_weeshuis.png,0,,,,,,,,,,,,,,,,,,,,,,
,,,,,00084,2023-10-24_15h15.21.757,vbt_B1_day3,2022.2.4,Win32,59.13310863,,,,,,down,0,7.7032,,0.649999972,0.135185171,1,0,0,0,67,67,30,1,uien,images/br_uien.png,images/cb_uien.png,0,,,,,,,,,,,,,,,,,,,,,,
,,,,,00084,2023-10-24_15h15.21.757,vbt_B1_day3,2022.2.4,Win32,59.13310863,,,,,,down,0,4.1862,,0.649999972,0.135185171,1,0,0,0,68,68,127,1,doodmoe,images/br_doodmoe.png,images/cb_doodmoe.png,0,,,,,,,,,,,,,,,,,,,,,,
,,,,,00084,2023-10-24_15h15.21.757,vbt_B1_day3,2022.2.4,Win32,59.13310863,,,,,,down,0,3.6008,,0.649999972,0.135185171,1,0,0,0,69,69,65,1,parel,images/br_parel.png,images/cb_parel.png,0,,,,,,,,,,,,,,,,,,,,,,
,,,,,00084,2023-10-24_15h15.21.757,vbt_B1_day3,2022.2.4,Win32,59.13310863,,,,,,down,0,16.4743,,0.649999972,0.135185171,1,0,0,0,70,70,142,1,snuiven,images/br_snuiven.png,images/cb_snuiven.png,1,snuipen,,,,,,,,,,,,,,,,,,,,,
,,,,,00084,2023-10-24_15h15.21.757,vbt_B1_day3,2022.2.4,Win32,59.13310863,,,,,,down,0,2.3888,,0.649999972,0.135185171,1,0,0,0,71,71,75,1,snoep,images/br_snoep.png,images/cb_snoep.png,0,,,,,,,,,,,,,,,,,,,,,,
,,,,,00084,2023-10-24_15h15.21.757,vbt_B1_day3,2022.2.4,Win32,59.13310863,,,,,,down,0,3.7778,,0.649999972,0.135185171,1,0,0,0,72,72,164,1,anarchie,images/br_anarchie.png,images/cb_anarchie.png,0,,,,,,,,,,,,,,,,,,,,,,
,,,,,00084,2023-10-24_15h15.21.757,vbt_B1_day3,2022.2.4,Win32,59.13310863,,,,,,down,0,14.7057,,0.649999972,0.135185171,1,0,0,0,73,73,39,1,laag,images/br_laag.png,images/cb_laag.png,0,,,,,,,,,,,,,,,,,,,,,,
,,,,,00084,2023-10-24_15h15.21.757,vbt_B1_day3,2022.2.4,Win32,59.13310863,,,,,,down,0,6.2215,,0.649999972,0.135185171,1,0,0,0,74,74,28,1,stal,images/br_stal.png,images/cb_stal.png,0,,,,,,,,,,,,,,,,,,,,,,
,,,,,00084,2023-10-24_15h15.21.757,vbt_B1_day3,2022.2.4,Win32,59.13310863,,,,,,down,0,1.4511,,0.649999972,0.135185171,1,0,0,0,75,75,120,1,klimmen,images/br_klimmen.png,images/cb_klimmen.png,0,,,,,,,,,,,,,,,,,,,,,,
,,,,,00084,2023-10-24_15h15.21.757,vbt_B1_day3,2022.2.4,Win32,59.13310863,,,,,,down,0,4.0349,,0.649999972,0.135185171,1,0,0,0,76,76,66,1,lever,images/br_lever.png,images/cb_lever.png,0,,,,,,,,,,,,,,,,,,,,,,
,,,,,00084,2023-10-24_15h15.21.757,vbt_B1_day3,2022.2.4,Win32,59.13310863,,,,,,down,0,6.6777,,0.649999972,0.135185171,1,0,0,0,77,77,117,1,kennis,images/br_kennis.png,images/cb_kennis.png,0,,,,,,,,,,,,,,,,,,,,,,
,,,,,00084,2023-10-24_15h15.21.757,vbt_B1_day3,2022.2.4,Win32,59.13310863,,,,,,down,0,5.0362,,0.649999972,0.135185171,1,0,0,0,78,78,96,1,slagen,images/br_slagen.png,images/cb_slagen.png,0,,,,,,,,,,,,,,,,,,,,,,
,,,,,00084,2023-10-24_15h15.21.757,vbt_B1_day3,2022.2.4,Win32,59.13310863,,,,,,down,0,3.7552,,0.649999972,0.135185171,1,0,0,0,79,79,57,1,steek,images/br_steek.png,images/cb_steek.png,0,,,,,,,,,,,,,,,,,,,,,,
,,,,,00084,2023-10-24_15h15.21.757,vbt_B1_day3,2022.2.4,Win32,59.13310863,,,,,,down,0,2.8089,,0.649999972,0.135185171,1,0,0,0,80,80,85,1,heilig,images/br_heilig.png,images/cb_heilig.png,0,,,,,,,,,,,,,,,,,,,,,,
,,,,,00084,2023-10-24_15h15.21.757,vbt_B1_day3,2022.2.4,Win32,59.13310863,,,,,,down,0,2.5342,,0.649999972,0.135185171,1,0,0,0,81,81,166,1,strikken,images/br_strikken.png,images/cb_strikken.png,0,,,,,,,,,,,,,,,,,,,,,,
,,,,,00084,2023-10-24_15h15.21.757,vbt_B1_day3,2022.2.4,Win32,59.13310863,,,,,,down,0,0.7844,,0.649999972,0.135185171,1,0,0,0,82,82,10,1,leek,images/br_leek.png,images/cb_leek.png,0,,,,,,,,,,,,,,,,,,,,,,
,,,,,00084,2023-10-24_15h15.21.757,vbt_B1_day3,2022.2.4,Win32,59.13310863,,,,,,down,0,2.9205,,0.649999972,0.135185171,1,0,0,0,83,83,158,1,innemen,images/br_innemen.png,images/cb_innemen.png,0,,,,,,,,,,,,,,,,,,,,,,
,,,,,00084,2023-10-24_15h15.21.757,vbt_B1_day3,2022.2.4,Win32,59.13310863,,,,,,down,0,3.458,,0.649999972,0.135185171,1,0,0,0,84,84,76,1,afval,images/br_afval.png,images/cb_afval.png,0,,,,,,,,,,,,,,,,,,,,,,
,,,,,00084,2023-10-24_15h15.21.757,vbt_B1_day3,2022.2.4,Win32,59.13310863,,,,,,down,0,5.9456,,0.649999972,0.135185171,1,0,0,0,85,85,18,1,blik,images/br_blik.png,images/cb_blik.png,0,,,,,,,,,,,,,,,,,,,,,,
,,,,,00084,2023-10-24_15h15.21.757,vbt_B1_day3,2022.2.4,Win32,59.13310863,,,,,,down,0,10.5367,,0.649999972,0.135185171,1,0,0,0,86,86,100,1,geduld,images/br_geduld.png,images/cb_geduld.png,1,geduld,,,,,,,,,,,,,,,,,,,,,
,,,,,00084,2023-10-24_15h15.21.757,vbt_B1_day3,2022.2.4,Win32,59.13310863,,,,,,down,0,2.9537,,0.649999972,0.135185171,1,0,0,0,87,87,136,1,waarbij,images/br_waarbij.png,images/cb_waarbij.png,0,,,,,,,,,,,,,,,,,,,,,,
,,,,,00084,2023-10-24_15h15.21.757,vbt_B1_day3,2022.2.4,Win32,59.13310863,,,,,,down,0,3.8881,,0.649999972,0.135185171,1,0,0,0,88,88,84,1,lokken,images/br_lokken.png,images/cb_lokken.png,0,,,,,,,,,,,,,,,,,,,,,,
,,,,,00084,2023-10-24_15h15.21.757,vbt_B1_day3,2022.2.4,Win32,59.13310863,,,,,,down,0,3.3685,,0.649999972,0.135185171,1,0,0,0,89,89,105,1,wijlen,images/br_wijlen.png,images/cb_wijlen.png,0,,,,,,,,,,,,,,,,,,,,,,
,,,,,00084,2023-10-24_15h15.21.757,vbt_B1_day3,2022.2.4,Win32,59.13310863,,,,,,down,0,5.9401,,0.649999972,0.135185171,1,0,0,0,90,90,58,1,tekst,images/br_tekst.png,images/cb_tekst.png,0,,,,,,,,,,,,,,,,,,,,,,
,,,,,00084,2023-10-24_15h15.21.757,vbt_B1_day3,2022.2.4,Win32,59.13310863,,,,,,down,0,9.1313,,0.649999972,0.135185171,1,0,0,0,91,91,63,1,flirt,images/br_flirt.png,images/cb_flirt.png,1,flirt,,,,,,,,,,,,,,,,,,,,,
,,,,,00084,2023-10-24_15h15.21.757,vbt_B1_day3,2022.2.4,Win32,59.13310863,,,,,,down,0,0.5517,,0.649999972,0.135185171,1,0,0,0,92,92,194,1,driemaal,images/br_driemaal.png,images/cb_driemaal.png,0,,,,,,,,,,,,,,,,,,,,,,
,,,,,00084,2023-10-24_15h15.21.757,vbt_B1_day3,2022.2.4,Win32,59.13310863,,,,,,down,0,13.9439,,0.649999972,0.135185171,1,0,0,0,93,93,141,1,knielen,images/br_knielen.png,images/cb_knielen.png,1,knielen,,,,,,,,,,,,,,,,,,,,,
,,,,,00084,2023-10-24_15h15.21.757,vbt_B1_day3,2022.2.4,Win32,59.13310863,,,,,,down,0,0.4187,,0.649999972,0.135185171,1,0,0,0,94,94,150,1,gegeven,images/br_gegeven.png,images/cb_gegeven.png,0,,,,,,,,,,,,,,,,,,,,,,
,,,,,00084,2023-10-24_15h15.21.757,vbt_B1_day3,2022.2.4,Win32,59.13310863,,,,,,down,0,14.1393,,0.649999972,0.135185171,1,0,0,0,95,95,140,1,blijven,images/br_blijven.png,images/cb_blijven.png,1,blijven,,,,,,,,,,,,,,,,,,,,,
,,,,,00084,2023-10-24_15h15.21.757,vbt_B1_day3,2022.2.4,Win32,59.13310863,,,,,,down,0,0.2814,,0.649999972,0.135185171,1,0,0,0,96,96,172,1,weigeren,images/br_weigeren.png,images/cb_weigeren.png,0,,,,,,,,,,,,,,,,,,,,,,
,,,,,00084,2023-10-24_15h15.21.757,vbt_B1_day3,2022.2.4,Win32,59.13310863,,,,,,down,0,0.1013,,0.649999972,0.135185171,1,0,0,0,97,97,171,1,aarzelen,images/br_aarzelen.png,images/cb_aarzelen.png,0,,,,,,,,,,,,,,,,,,,,,,
,,,,,00084,2023-10-24_15h15.21.757,vbt_B1_day3,2022.2.4,Win32,59.13310863,,,,,,down,0,4.4898,,0.649999972,0.135185171,1,0,0,0,98,98,34,1,vorm,images/br_vorm.png,images/cb_vorm.png,0,,,,,,,,,,,,,,,,,,,,,,
,,,,,00084,2023-10-24_15h15.21.757,vbt_B1_day3,2022.2.4,Win32,59.13310863,,,,,,down,0,0.2178,,0.649999972,0.135185171,1,0,0,0,99,99,162,1,uitdelen,images/br_uitdelen.png,images/cb_uitdelen.png,0,,,,,,,,,,,,,,,,,,,,,,
,,,,,00084,2023-10-24_15h15.21.757,vbt_B1_day3,2022.2.4,Win32,59.13310863,,,,,,down,0,0.886,,0.649999972,0.135185171,1,0,0,0,100,100,107,1,maling,images/br_maling.png,images/cb_maling.png,0,,,,,,,,,,,,,,,,,,,,,,
,,,,,00084,2023-10-24_15h15.21.757,vbt_B1_day3,2022.2.4,Win32,59.13310863,,,,,,down,0,4.6507,,0.649999972,0.135185171,1,0,0,0,101,101,121,1,twijfel,images/br_twijfel.png,images/cb_twijfel.png,0,,,,,,,,,,,,,,,,,,,,,,
,,,,,00084,2023-10-24_15h15.21.757,vbt_B1_day3,2022.2.4,Win32,59.13310863,,,,,,down,0,2.6508,,0.649999972,0.135185171,1,0,0,0,102,102,49,1,laken,images/br_laken.png,images/cb_laken.png,0,,,,,,,,,,,,,,,,,,,,,,
,,,,,00084,2023-10-24_15h15.21.757,vbt_B1_day3,2022.2.4,Win32,59.13310863,,,,,,down,0,3.7784,,0.649999972,0.135185171,1,0,0,0,103,103,144,1,eetlust,images/br_eetlust.png,images/cb_eetlust.png,0,,,,,,,,,,,,,,,,,,,,,,
,,,,,00084,2023-10-24_15h15.21.757,vbt_B1_day3,2022.2.4,Win32,59.13310863,,,,,,down,0,4.6372,,0.649999972,0.135185171,1,0,0,0,104,104,154,1,aflopen,images/br_aflopen.png,images/cb_aflopen.png,0,,,,,,,,,,,,,,,,,,,,,,
,,,,,00084,2023-10-24_15h15.21.757,vbt_B1_day3,2022.2.4,Win32,59.13310863,,,,,,down,0,8.0305,,0.649999972,0.135185171,1,0,0,0,105,105,67,1,zwart,images/br_zwart.png,images/cb_zwart.png,0,,,,,,,,,,,,,,,,,,,,,,
,,,,,00084,2023-10-24_15h15.21.757,vbt_B1_day3,2022.2.4,Win32,59.13310863,,,,,,down,0,19.9416,,0.649999972,0.135185171,1,0,0,0,106,106,5,1,blad,images/br_blad.png,images/cb_blad.png,0,,,,,,,,,,,,,,,,,,,,,,
,,,,,00084,2023-10-24_15h15.21.757,vbt_B1_day3,2022.2.4,Win32,59.13310863,,,,,,down,0,2.0187,,0.649999972,0.135185171,1,0,0,0,107,107,36,1,vuur,images/br_vuur.png,images/cb_vuur.png,0,,,,,,,,,,,,,,,,,,,,,,
,,,,,00084,2023-10-24_15h15.21.757,vbt_B1_day3,2022.2.4,Win32,59.13310863,,,,,,down,0,19.7143,,0.649999972,0.135185171,1,0,0,0,108,108,62,1,knaap,images/br_knaap.png,images/cb_knaap.png,1,knaap,,,,,,,,,,,,,,,,,,,,,
,,,,,00084,2023-10-24_15h15.21.757,vbt_B1_day3,2022.2.4,Win32,59.13310863,,,,,,down,0,4.7223,,0.649999972,0.135185171,1,0,0,0,109,109,87,1,toeval,images/br_toeval.png,images/cb_toeval.png,0,,,,,,,,,,,,,,,,,,,,,,
,,,,,00084,2023-10-24_15h15.21.757,vbt_B1_day3,2022.2.4,Win32,59.13310863,,,,,,down,0,11.0378,,0.649999972,0.135185171,1,0,0,0,110,110,24,1,jurk,images/br_jurk.png,images/cb_jurk.png,0,,,,,,,,,,,,,,,,,,,,,,
,,,,,00084,2023-10-24_15h15.21.757,vbt_B1_day3,2022.2.4,Win32,59.13310863,,,,,,down,0,2.5926,,0.649999972,0.135185171,1,0,0,0,111,111,134,1,geliefd,images/br_geliefd.png,images/cb_geliefd.png,0,,,,,,,,,,,,,,,,,,,,,,
,,,,,00084,2023-10-24_15h15.21.757,vbt_B1_day3,2022.2.4,Win32,59.13310863,,,,,,down,0,1.5604,,0.649999972,0.135185171,1,0,0,0,112,112,79,1,nodig,images/br_nodig.png,images/cb_nodig.png,0,,,,,,,,,,,,,,,,,,,,,,
,,,,,00084,2023-10-24_15h15.21.757,vbt_B1_day3,2022.2.4,Win32,59.13310863,,,,,,down,0,0.652,,0.649999972,0.135185171,1,0,0,0,113,113,112,1,lukken,images/br_lukken.png,images/cb_lukken.png,0,,,,,,,,,,,,,,,,,,,,,,
,,,,,00084,2023-10-24_15h15.21.757,vbt_B1_day3,2022.2.4,Win32,59.13310863,,,,,,down,0,0.7041,,0.649999972,0.135185171,1,0,0,0,114,114,129,1,verhaal,images/br_verhaal.png,images/cb_verhaal.png,0,,,,,,,,,,,,,,,,,,,,,,
,,,,,00084,2023-10-24_15h15.21.757,vbt_B1_day3,2022.2.4,Win32,59.13310863,,,,,,down,0,0.8724,,0.649999972,0.135185171,1,0,0,0,115,115,13,1,kaal,images/br_kaal.png,images/cb_kaal.png,0,,,,,,,,,,,,,,,,,,,,,,
,,,,,00084,2023-10-24_15h15.21.757,vbt_B1_day3,2022.2.4,Win32,59.13310863,,,,,,down,0,1.6585,,0.649999972,0.135185171,1,0,0,0,116,116,168,1,bisschop,images/br_bisschop.png,images/cb_bisschop.png,0,,,,,,,,,,,,,,,,,,,,,,
,,,,,00084,2023-10-24_15h15.21.757,vbt_B1_day3,2022.2.4,Win32,59.13310863,,,,,,down,0,0.817,,0.649999972,0.135185171,1,0,0,0,117,117,93,1,waarop,images/br_waarop.png,images/cb_waarop.png,0,,,,,,,,,,,,,,,,,,,,,,
,,,,,00084,2023-10-24_15h15.21.757,vbt_B1_day3,2022.2.4,Win32,59.13310863,,,,,,down,0,1.0012,,0.649999972,0.135185171,1,0,0,0,118,118,32,1,palm,images/br_palm.png,images/cb_palm.png,0,,,,,,,,,,,,,,,,,,,,,,
,,,,,00084,2023-10-24_15h15.21.757,vbt_B1_day3,2022.2.4,Win32,59.13310863,,,,,,down,0,11.7638,,0.649999972,0.135185171,1,0,0,0,119,119,143,1,hechten,images/br_hechten.png,images/cb_hechten.png,1,hechten,,,,,,,,,,,,,,,,,,,,,
,,,,,00084,2023-10-24_15h15.21.757,vbt_B1_day3,2022.2.4,Win32,59.13310863,,,,,,down,0,1.0703,,0.649999972,0.135185171,1,0,0,0,120,120,88,1,boeien,images/br_boeien.png,images/cb_boeien.png,0,,,,,,,,,,,,,,,,,,,,,,
,,,,,00084,2023-10-24_15h15.21.757,vbt_B1_day3,2022.2.4,Win32,59.13310863,,,,,,down,0,3.744,,0.649999972,0.135185171,1,0,0,0,121,121,178,1,huisdier,images/br_huisdier.png,images/cb_huisdier.png,0,,,,,,,,,,,,,,,,,,,,,,
,,,,,00084,2023-10-24_15h15.21.757,vbt_B1_day3,2022.2.4,Win32,59.13310863,,,,,,down,0,4.3286,,0.649999972,0.135185171,1,0,0,0,122,122,177,1,maaltijd,images/br_maaltijd.png,images/cb_maaltijd.png,0,,,,,,,,,,,,,,,,,,,,,,
,,,,,00084,2023-10-24_15h15.21.757,vbt_B1_day3,2022.2.4,Win32,59.13310863,,,,,,down,0,4.425,,0.649999972,0.135185171,1,0,0,0,123,123,113,1,koppen,images/br_koppen.png,images/cb_koppen.png,0,,,,,,,,,,,,,,,,,,,,,,
,,,,,00084,2023-10-24_15h15.21.757,vbt_B1_day3,2022.2.4,Win32,59.13310863,,,,,,down,0,0.4445,,0.649999972,0.135185171,1,0,0,0,124,124,45,1,piste,images/br_piste.png,images/cb_piste.png,0,,,,,,,,,,,,,,,,,,,,,,
,,,,,00084,2023-10-24_15h15.21.757,vbt_B1_day3,2022.2.4,Win32,59.13310863,,,,,,down,0,3.074,,0.649999972,0.135185171,1,0,0,0,125,125,55,1,praat,images/br_praat.png,images/cb_praat.png,0,,,,,,,,,,,,,,,,,,,,,,
,,,,,00084,2023-10-24_15h15.21.757,vbt_B1_day3,2022.2.4,Win32,59.13310863,,,,,,down,0,1.1757,,0.649999972,0.135185171,1,0,0,0,126,126,195,1,middelen,images/br_middelen.png,images/cb_middelen.png,0,,,,,,,,,,,,,,,,,,,,,,
,,,,,00084,2023-10-24_15h15.21.757,vbt_B1_day3,2022.2.4,Win32,59.13310863,,,,,,down,0,5.5775,,0.649999972,0.135185171,1,0,0,0,127,127,110,1,zuster,images/br_zuster.png,images/cb_zuster.png,0,,,,,,,,,,,,,,,,,,,,,,
,,,,,00084,2023-10-24_15h15.21.757,vbt_B1_day3,2022.2.4,Win32,59.13310863,,,,,,down,0,0.2173,,0.649999972,0.135185171,1,0,0,0,128,128,12,1,kust,images/br_kust.png,images/cb_kust.png,0,,,,,,,,,,,,,,,,,,,,,,
,,,,,00084,2023-10-24_15h15.21.757,vbt_B1_day3,2022.2.4,Win32,59.13310863,,,,,,down,0,5.4366,,0.649999972,0.135185171,1,0,0,0,129,129,130,1,keihard,images/br_keihard.png,images/cb_keihard.png,0,,,,,,,,,,,,,,,,,,,,,,
,,,,,00084,2023-10-24_15h15.21.757,vbt_B1_day3,2022.2.4,Win32,59.13310863,,,,,,down,0,19.692,,0.649999972,0.135185171,1,0,0,0,130,130,60,1,jasje,images/br_jasje.png,images/cb_jasje.png,1,jasje,,,,,,,,,,,,,,,,,,,,,
,,,,,00084,2023-10-24_15h15.21.757,vbt_B1_day3,2022.2.4,Win32,59.13310863,,,,,,down,0,7.3895,,0.649999972,0.135185171,1,0,0,0,131,131,148,1,smullen,images/br_smullen.png,images/cb_smullen.png,0,,,,,,,,,,,,,,,,,,,,,,
,,,,,00084,2023-10-24_15h15.21.757,vbt_B1_day3,2022.2.4,Win32,59.13310863,,,,,,down,0,5.8716,,0.649999972,0.135185171,1,0,0,0,132,132,188,1,strekken,images/br_strekken.png,images/cb_strekken.png,0,,,,,,,,,,,,,,,,,,,,,,
,,,,,00084,2023-10-24_15h15.21.757,vbt_B1_day3,2022.2.4,Win32,59.13310863,,,,,,down,0,4.368,,0.649999972,0.135185171,1,0,0,0,133,133,8,1,knie,images/br_knie.png,images/cb_knie.png,0,,,,,,,,,,,,,,,,,,,,,,
,,,,,00084,2023-10-24_15h15.21.757,vbt_B1_day3,2022.2.4,Win32,59.13310863,,,,,,down,0,3.8043,,0.649999972,0.135185171,1,0,0,0,134,134,135,1,gedicht,images/br_gedicht.png,images/cb_gedicht.png,0,,,,,,,,,,,,,,,,,,,,,,
,,,,,00084,2023-10-24_15h15.21.757,vbt_B1_day3,2022.2.4,Win32,59.13310863,,,,,,down,0,2.2348,,0.649999972,0.135185171,1,0,0,0,135,135,16,1,ziek,images/br_ziek.png,images/cb_ziek.png,0,,,,,,,,,,,,,,,,,,,,,,
,,,,,00084,2023-10-24_15h15.21.757,vbt_B1_day3,2022.2.4,Win32,59.13310863,,,,,,down,0,3.3525,,0.649999972,0.135185171,1,0,0,0,136,136,199,1,beseffen,images/br_beseffen.png,images/cb_beseffen.png,0,,,,,,,,,,,,,,,,,,,,,,
,,,,,00084,2023-10-24_15h15.21.757,vbt_B1_day3,2022.2.4,Win32,59.13310863,,,,,,down,0,2.4379,,0.649999972,0.135185171,1,0,0,0,137,137,128,1,prikken,images/br_prikken.png,images/cb_prikken.png,0,,,,,,,,,,,,,,,,,,,,,,
,,,,,00084,2023-10-24_15h15.21.757,vbt_B1_day3,2022.2.4,Win32,59.13310863,,,,,,down,0,3.2179,,0.649999972,0.135185171,1,0,0,0,138,138,15,1,soda,images/br_soda.png,images/cb_soda.png,0,,,,,,,,,,,,,,,,,,,,,,
,,,,,00084,2023-10-24_15h15.21.757,vbt_B1_day3,2022.2.4,Win32,59.13310863,,,,,,down,0,0.1722,,0.649999972,0.135185171,1,0,0,0,139,139,51,1,samen,images/br_samen.png,images/cb_samen.png,0,,,,,,,,,,,,,,,,,,,,,,
,,,,,00084,2023-10-24_15h15.21.757,vbt_B1_day3,2022.2.4,Win32,59.13310863,,,,,,down,0,3.6608,,0.649999972,0.135185171,1,0,0,0,140,140,73,1,volop,images/br_volop.png,images/cb_volop.png,0,,,,,,,,,,,,,,,,,,,,,,
,,,,,00084,2023-10-24_15h15.21.757,vbt_B1_day3,2022.2.4,Win32,59.13310863,,,,,,down,0,10.0536,,0.649999972,0.135185171,1,0,0,0,141,141,61,1,groen,images/br_groen.png,images/cb_groen.png,1,groen,,,,,,,,,,,,,,,,,,,,,
,,,,,00084,2023-10-24_15h15.21.757,vbt_B1_day3,2022.2.4,Win32,59.13310863,,,,,,down,0,0.4365,,0.649999972,0.135185171,1,0,0,0,142,142,163,1,schuilen,images/br_schuilen.png,images/cb_schuilen.png,0,,,,,,,,,,,,,,,,,,,,,,
,,,,,00084,2023-10-24_15h15.21.757,vbt_B1_day3,2022.2.4,Win32,59.13310863,,,,,,down,0,0.7512,,0.649999972,0.135185171,1,0,0,0,143,143,155,1,gerucht,images/br_gerucht.png,images/cb_gerucht.png,0,,,,,,,,,,,,,,,,,,,,,,
,,,,,00084,2023-10-24_15h15.21.757,vbt_B1_day3,2022.2.4,Win32,59.13310863,,,,,,down,0,5.394,,0.649999972,0.135185171,1,0,0,0,144,144,64,1,wegen,images/br_wegen.png,images/cb_wegen.png,0,,,,,,,,,,,,,,,,,,,,,,
,,,,,00084,2023-10-24_15h15.21.757,vbt_B1_day3,2022.2.4,Win32,59.13310863,,,,,,down,0,4.4396,,0.649999972,0.135185171,1,0,0,0,145,145,198,1,bedoelen,images/br_bedoelen.png,images/cb_bedoelen.png,0,,,,,,,,,,,,,,,,,,,,,,
,,,,,00084,2023-10-24_15h15.21.757,vbt_B1_day3,2022.2.4,Win32,59.13310863,,,,,,down,0,0.5696,,0.649999972,0.135185171,1,0,0,0,146,146,161,1,attentie,images/br_attentie.png,images/cb_attentie.png,0,,,,,,,,,,,,,,,,,,,,,,
,,,,,00084,2023-10-24_15h15.21.757,vbt_B1_day3,2022.2.4,Win32,59.13310863,,,,,,down,0,0.8338,,0.649999972,0.135185171,1,0,0,0,147,147,186,1,voorraad,images/br_voorraad.png,images/cb_voorraad.png,0,,,,,,,,,,,,,,,,,,,,,,
,,,,,00084,2023-10-24_15h15.21.757,vbt_B1_day3,2022.2.4,Win32,59.13310863,,,,,,down,0,2.3596,,0.649999972,0.135185171,1,0,0,0,148,148,124,1,bloeien,images/br_bloeien.png,images/cb_bloeien.png,0,,,,,,,,,,,,,,,,,,,,,,
,,,,,00084,2023-10-24_15h15.21.757,vbt_B1_day3,2022.2.4,Win32,59.13310863,,,,,,down,0,2.1752,,0.649999972,0.135185171,1,0,0,0,149,149,153,1,vervoer,images/br_vervoer.png,images/cb_vervoer.png,0,,,,,,,,,,,,,,,,,,,,,,
,,,,,00084,2023-10-24_15h15.21.757,vbt_B1_day3,2022.2.4,Win32,59.13310863,,,,,,down,0,1.8894,,0.649999972,0.135185171,1,0,0,0,150,150,173,1,apparaat,images/br_apparaat.png,images/cb_apparaat.png,0,,,,,,,,,,,,,,,,,,,,,,
,,,,,00084,2023-10-24_15h15.21.757,vbt_B1_day3,2022.2.4,Win32,59.13310863,,,,,,down,0,5.6517,,0.649999972,0.135185171,1,0,0,0,151,151,103,1,joggen,images/br_joggen.png,images/cb_joggen.png,1,joggen,,,,,,,,,,,,,,,,,,,,,
,,,,,00084,2023-10-24_15h15.21.757,vbt_B1_day3,2022.2.4,Win32,59.13310863,,,,,,down,0,2.8399,,0.649999972,0.135185171,1,0,0,0,152,152,99,1,koffie,images/br_koffie.png,images/cb_koffie.png,0,,,,,,,,,,,,,,,,,,,,,,
,,,,,00084,2023-10-24_15h15.21.757,vbt_B1_day3,2022.2.4,Win32,59.13310863,,,,,,down,0,0.2513,,0.649999972,0.135185171,1,0,0,0,153,153,9,1,hier,images/br_hier.png,images/cb_hier.png,0,,,,,,,,,,,,,,,,,,,,,,
,,,,,00084,2023-10-24_15h15.21.757,vbt_B1_day3,2022.2.4,Win32,59.13310863,,,,,,down,0,0.0453,,0.649999972,0.135185171,1,0,0,0,154,154,95,1,vreten,images/br_vreten.png,images/cb_vreten.png,0,,,,,,,,,,,,,,,,,,,,,,
,,,,,00084,2023-10-24_15h15.21.757,vbt_B1_day3,2022.2.4,Win32,59.13310863,,,,,,down,0,2.4269,,0.649999972,0.135185171,1,0,0,0,155,155,169,1,oprotten,images/br_oprotten.png,images/cb_oprotten.png,0,,,,,,,,,,,,,,,,,,,,,,
,,,,,00084,2023-10-24_15h15.21.757,vbt_B1_day3,2022.2.4,Win32,59.13310863,,,,,,down,0,25.6603,,0.649999972,0.135185171,1,0,0,0,156,156,182,1,bijkomen,images/br_bijkomen.png,images/cb_bijkomen.png,1,bijkomen,,,,,,,,,,,,,,,,,,,,,
,,,,,00084,2023-10-24_15h15.21.757,vbt_B1_day3,2022.2.4,Win32,59.13310863,,,,,,down,0,0.5323,,0.646296325,0.131481489,1,0,0,0,157,157,6,1,diep,images/br_diep.png,images/cb_diep.png,0,,,,,,,,,,,,,,,,,,,,,,
,,,,,00084,2023-10-24_15h15.21.757,vbt_B1_day3,2022.2.4,Win32,59.13310863,,,,,,down,0,6.6468,,0.646296325,0.131481489,1,0,0,0,158,158,149,1,redding,images/br_redding.png,images/cb_redding.png,0,,,,,,,,,,,,,,,,,,,,,,
,,,,,00084,2023-10-24_15h15.21.757,vbt_B1_day3,2022.2.4,Win32,59.13310863,,,,,,down,0,2.3522,,0.646296325,0.131481489,1,0,0,0,159,159,91,1,gezond,images/br_gezond.png,images/cb_gezond.png,0,,,,,,,,,,,,,,,,,,,,,,
,,,,,00084,2023-10-24_15h15.21.757,vbt_B1_day3,2022.2.4,Win32,59.13310863,,,,,,down,0,13.889,,0.646296325,0.131481489,1,0,0,0,160,160,2,1,jaar,images/br_jaar.png,images/cb_jaar.png,0,,,,,,,,,,,,,,,,,,,,,,
,,,,,00084,2023-10-24_15h15.21.757,vbt_B1_day3,2022.2.4,Win32,59.13310863,,,,,,down,0,6.6138,,0.646296325,0.131481489,1,0,0,0,161,161,14,1,rijp,images/br_rijp.png,images/cb_rijp.png,0,,,,,,,,,,,,,,,,,,,,,,
,,,,,00084,2023-10-24_15h15.21.757,vbt_B1_day3,2022.2.4,Win32,59.13310863,,,,,,down,0,0.6897,,0.646296325,0.131481489,1,0,0,0,162,162,70,1,ijdel,images/br_ijdel.png,images/cb_ijdel.png,0,,,,,,,,,,,,,,,,,,,,,,
,,,,,00084,2023-10-24_15h15.21.757,vbt_B1_day3,2022.2.4,Win32,59.13310863,,,,,,down,0,6.961,,0.646296325,0.131481489,1,0,0,0,163,163,102,1,legaal,images/br_legaal.png,images/cb_legaal.png,1,legaal,,,,,,,,,,,,,,,,,,,,,
,,,,,00084,2023-10-24_15h15.21.757,vbt_B1_day3,2022.2.4,Win32,59.13310863,,,,,,down,0,12.1093,,0.646296325,0.131481489,1,0,0,0,164,164,20,1,site,images/br_site.png,images/cb_site.png,1,site,,,,,,,,,,,,,,,,,,,,,
,,,,,00084,2023-10-24_15h15.21.757,vbt_B1_day3,2022.2.4,Win32,59.13310863,,,,,,down,0,1.6415,,0.646296325,0.131481489,1,0,0,0,165,165,59,1,kring,images/br_kring.png,images/cb_kring.png,0,,,,,,,,,,,,,,,,,,,,,,
,,,,,00084,2023-10-24_15h15.21.757,vbt_B1_day3,2022.2.4,Win32,59.13310863,,,,,,down,0,0.62,,0.646296325,0.131481489,1,0,0,0,166,166,11,1,mode,images/br_mode.png,images/cb_mode.png,0,,,,,,,,,,,,,,,,,,,,,,
,,,,,00084,2023-10-24_15h15.21.757,vbt_B1_day3,2022.2.4,Win32,59.13310863,,,,,,down,0,15.3914,,0.646296325,0.131481489,1,0,0,0,167,167,22,1,stof,images/br_stof.png,images/cb_stof.png,1,stof,,,,,,,,,,,,,,,,,,,,,
,,,,,00084,2023-10-24_15h15.21.757,vbt_B1_day3,2022.2.4,Win32,59.13310863,,,,,,down,0,0.4774,,0.646296325,0.131481489,1,0,0,0,168,168,46,1,jagen,images/br_jagen.png,images/cb_jagen.png,0,,,,,,,,,,,,,,,,,,,,,,
,,,,,00084,2023-10-24_15h15.21.757,vbt_B1_day3,2022.2.4,Win32,59.13310863,,,,,,down,0,0.2026,,0.646296325,0.131481489,1,0,0,0,169,169,138,1,akkoord,images/br_akkoord.png,images/cb_akkoord.png,0,,,,,,,,,,,,,,,,,,,,,,
,,,,,00084,2023-10-24_15h15.21.757,vbt_B1_day3,2022.2.4,Win32,59.13310863,,,,,,down,0,0.4017,,0.646296325,0.131481489,1,0,0,0,170,170,145,1,invloed,images/br_invloed.png,images/cb_invloed.png,0,,,,,,,,,,,,,,,,,,,,,,
,,,,,00084,2023-10-24_15h15.21.757,vbt_B1_day3,2022.2.4,Win32,59.13310863,,,,,,down,0,1.2516,,0.646296325,0.131481489,1,0,0,0,171,171,125,1,aanzien,images/br_aanzien.png,images/cb_aanzien.png,0,,,,,,,,,,,,,,,,,,,,,,
,,,,,00084,2023-10-24_15h15.21.757,vbt_B1_day3,2022.2.4,Win32,59.13310863,,,,,,down,0,0.0815,,0.646296325,0.131481489,1,0,0,0,172,172,35,1,lust,images/br_lust.png,images/cb_lust.png,0,,,,,,,,,,,,,,,,,,,,,,
,,,,,00084,2023-10-24_15h15.21.757,vbt_B1_day3,2022.2.4,Win32,59.13310863,,,,,,down,0,0.2672,,0.646296325,0.131481489,1,0,0,0,173,173,92,1,geheim,images/br_geheim.png,images/cb_geheim.png,0,,,,,,,,,,,,,,,,,,,,,,
,,,,,00084,2023-10-24_15h15.21.757,vbt_B1_day3,2022.2.4,Win32,59.13310863,,,,,,down,0,4.4186,,0.646296325,0.131481489,1,0,0,0,174,174,19,1,geit,images/br_geit.png,images/cb_geit.png,0,,,,,,,,,,,,,,,,,,,,,,
,,,,,00084,2023-10-24_15h15.21.757,vbt_B1_day3,2022.2.4,Win32,59.13310863,,,,,,down,0,15.5561,,0.646296325,0.131481489,1,0,0,0,175,175,183,1,getuigen,images/br_getuigen.png,images/cb_getuigen.png,1,getuigen,,,,,,,,,,,,,,,,,,,,,
,,,,,00084,2023-10-24_15h15.21.757,vbt_B1_day3,2022.2.4,Win32,59.13310863,,,,,,down,0,0.6573,,0.646296325,0.131481489,1,0,0,0,176,176,122,1,waarvan,images/br_waarvan.png,images/cb_waarvan.png,0,,,,,,,,,,,,,,,,,,,,,,
,,,,,00084,2023-10-24_15h15.21.757,vbt_B1_day3,2022.2.4,Win32,59.13310863,,,,,,down,0,8.313,,0.646296325,0.131481489,1,0,0,0,177,177,181,1,toegeven,images/br_toegeven.png,images/cb_toegeven.png,1,toegeven,,,,,,,,,,,,,,,,,,,,,
,,,,,00084,2023-10-24_15h15.21.757,vbt_B1_day3,2022.2.4,Win32,59.13310863,,,,,,down,0,2.1042,,0.646296325,0.131481489,1,0,0,0,178,178,119,1,liefje,images/br_liefje.png,images/cb_liefje.png,0,,,,,,,,,,,,,,,,,,,,,,
,,,,,00084,2023-10-24_15h15.21.757,vbt_B1_day3,2022.2.4,Win32,59.13310863,,,,,,down,0,1.1815,,0.646296325,0.131481489,1,0,0,0,179,179,160,1,daarheen,images/br_daarheen.png,images/cb_daarheen.png,0,,,,,,,,,,,,,,,,,,,,,,
,,,,,00084,2023-10-24_15h15.21.757,vbt_B1_day3,2022.2.4,Win32,59.13310863,,,,,,down,0,3.4527,,0.646296325,0.131481489,1,0,0,0,180,180,27,1,dans,images/br_dans.png,images/cb_dans.png,0,,,,,,,,,,,,,,,,,,,,,,
,,,,,00084,2023-10-24_15h15.21.757,vbt_B1_day3,2022.2.4,Win32,59.13310863,,,,,,down,0,5.3534,,0.646296325,0.131481489,1,0,0,0,181,181,152,1,afnemen,images/br_afnemen.png,images/cb_afnemen.png,0,,,,,,,,,,,,,,,,,,,,,,
,,,,,00084,2023-10-24_15h15.21.757,vbt_B1_day3,2022.2.4,Win32,59.13310863,,,,,,down,0,1.5514,,0.646296325,0.131481489,1,0,0,0,182,182,175,1,heengaan,images/br_heengaan.png,images/cb_heengaan.png,0,,,,,,,,,,,,,,,,,,,,,,
,,,,,00084,2023-10-24_15h15.21.757,vbt_B1_day3,2022.2.4,Win32,59.13310863,,,,,,down,0,2.7188,,0.646296325,0.131481489,1,0,0,0,183,183,77,1,woede,images/br_woede.png,images/cb_woede.png,0,,,,,,,,,,,,,,,,,,,,,,
,,,,,00084,2023-10-24_15h15.21.757,vbt_B1_day3,2022.2.4,Win32,59.13310863,,,,,,down,0,5.5733,,0.646296325,0.131481489,1,0,0,0,184,184,68,1,schat,images/br_schat.png,images/cb_schat.png,0,,,,,,,,,,,,,,,,,,,,,,
,,,,,00084,2023-10-24_15h15.21.757,vbt_B1_day3,2022.2.4,Win32,59.13310863,,,,,,down,0,1.8519,,0.646296325,0.131481489,1,0,0,0,185,185,86,1,woning,images/br_woning.png,images/cb_woning.png,0,,,,,,,,,,,,,,,,,,,,,,
,,,,,00084,2023-10-24_15h15.21.757,vbt_B1_day3,2022.2.4,Win32,59.13310863,,,,,,down,0,5.4519,,0.646296325,0.131481489,1,0,0,0,186,186,4,1,moes,images/br_moes.png,images/cb_moes.png,0,,,,,,,,,,,,,,,,,,,,,,
,,,,,00084,2023-10-24_15h15.21.757,vbt_B1_day3,2022.2.4,Win32,59.13310863,,,,,,down,0,11.0632,,0.646296325,0.131481489,1,0,0,0,187,187,21,1,mist,images/br_mist.png,images/cb_mist.png,1,mist,,,,,,,,,,,,,,,,,,,,,
,,,,,00084,2023-10-24_15h15.21.757,vbt_B1_day3,2022.2.4,Win32,59.13310863,,,,,,down,0,0.7096,,0.646296325,0.131481489,1,0,0,0,188,188,192,1,schaamte,images/br_schaamte.png,images/cb_schaamte.png,0,,,,,,,,,,,,,,,,,,,,,,
,,,,,00084,2023-10-24_15h15.21.757,vbt_B1_day3,2022.2.4,Win32,59.13310863,,,,,,down,0,0.8909,,0.646296325,0.131481489,1,0,0,0,189,189,190,1,goedkoop,images/br_goedkoop.png,images/cb_goedkoop.png,0,,,,,,,,,,,,,,,,,,,,,,
,,,,,00084,2023-10-24_15h15.21.757,vbt_B1_day3,2022.2.4,Win32,59.13310863,,,,,,down,0,0.3957,,0.646296325,0.131481489,1,0,0,0,190,190,3,1,mand,images/br_mand.png,images/cb_mand.png,0,,,,,,,,,,,,,,,,,,,,,,
,,,,,00084,2023-10-24_15h15.21.757,vbt_B1_day3,2022.2.4,Win32,59.13310863,,,,,,down,0,0.6665,,0.646296325,0.131481489,1,0,0,0,191,191,159,1,sufferd,images/br_sufferd.png,images/cb_sufferd.png,0,,,,,,,,,,,,,,,,,,,,,,
,,,,,00084,2023-10-24_15h15.21.757,vbt_B1_day3,2022.2.4,Win32,59.13310863,,,,,,down,0,0.2834,,0.646296325,0.131481489,1,0,0,0,192,192,54,1,gebit,images/br_gebit.png,images/cb_gebit.png,0,,,,,,,,,,,,,,,,,,,,,,
,,,,,00084,2023-10-24_15h15.21.757,vbt_B1_day3,2022.2.4,Win32,59.13310863,,,,,,down,0,1.4947,,0.646296325,0.131481489,1,0,0,0,193,193,108,1,excuus,images/br_excuus.png,images/cb_excuus.png,0,,,,,,,,,,,,,,,,,,,,,,
,,,,,00084,2023-10-24_15h15.21.757,vbt_B1_day3,2022.2.4,Win32,59.13310863,,,,,,down,0,1.4397,,0.646296325,0.131481489,1,0,0,0,194,194,197,1,spanning,images/br_spanning.png,images/cb_spanning.png,0,,,,,,,,,,,,,,,,,,,,,,
,,,,,00084,2023-10-24_15h15.21.757,vbt_B1_day3,2022.2.4,Win32,59.13310863,,,,,,down,0,1.2055,,0.646296325,0.131481489,1,0,0,0,195,195,42,1,bleek,images/br_bleek.png,images/cb_bleek.png,0,,,,,,,,,,,,,,,,,,,,,,
,,,,,00084,2023-10-24_15h15.21.757,vbt_B1_day3,2022.2.4,Win32,59.13310863,,,,,,down,0,4.8355,,0.646296325,0.131481489,1,0,0,0,196,196,115,1,kleren,images/br_kleren.png,images/cb_kleren.png,0,,,,,,,,,,,,,,,,,,,,,,
,,,,,00084,2023-10-24_15h15.21.757,vbt_B1_day3,2022.2.4,Win32,59.13310863,,,,,,down,0,1.7389,,0.646296325,0.131481489,1,0,0,0,197,197,29,1,baas,images/br_baas.png,images/cb_baas.png,0,,,,,,,,,,,,,,,,,,,,,,
,,,,,00084,2023-10-24_15h15.21.757,vbt_B1_day3,2022.2.4,Win32,59.13310863,,,,,,down,0,0.1836,,0.646296325,0.131481489,1,0,0,0,198,198,118,1,vinger,images/br_vinger.png,images/cb_vinger.png,0,,,,,,,,,,,,,,,,,,,,,,
,,,,,00084,2023-10-24_15h15.21.757,vbt_B1_day3,2022.2.4,Win32,59.13310863,,,,,,down,0,0.003,,0.646296325,0.131481489,1,0,0,0,199,199,126,1,kasteel,images/br_kasteel.png,images/cb_kasteel.png,0,,,,,,,,,,,,,,,,,,,,,,
,,,,,00084,2023-10-24_15h15.21.757,vbt_B1_day3,2022.2.4,Win32,59.13310863,,,,,,,,,,,,,,,,,,,,,,,,,0.646296325,0.131481489,1,0,0,,,,,,,,,,,,,,,,
,,,,,00084,2023-10-24_15h15.21.757,vbt_B1_day3,2022.2.4,Win32,59.13310863,,,,,,,,,,,,,,,,,,,,,,,,,,,,,,0.646296325,0.131481489,1,0,0,,,,,,,,,,,
,,,,,00084,2023-10-24_15h15.21.757,vbt_B1_day3,2022.2.4,Win32,59.13310863,,,,,,,,,,,,,,,,,,,,theeting,images/br_theeting.png,images/cb_theeting.png,,thee,,,,,,,,,,,0.646296325,0.131481489,1,0,0,thee,0,0,0,38,1
,,,,,00084,2023-10-24_15h15.21.757,vbt_B1_day3,2022.2.4,Win32,59.13310863,,,,,,,,,,,,,,,,,,,,leemaken,images/br_leemaken.png,images/cb_leemaken.png,,leem,,,,,,,,,,,0.646296325,0.131481489,1,0,0,leem,0,1,1,39,1
,,,,,00084,2023-10-24_15h15.21.757,vbt_B1_day3,2022.2.4,Win32,59.13310863,,,,,,,,,,,,,,,,,,,,steel,images/br_steel.png,images/cb_steel.png,,steel,,,,,,,,,,,0.646296325,0.131481489,1,0,0,steel,0,2,2,4,1
,,,,,00084,2023-10-24_15h15.21.757,vbt_B1_day3,2022.2.4,Win32,59.13310863,,,,,,,,,,,,,,,,,,,,prikken,images/br_prikken.png,images/cb_prikken.png,,prikk,,,,,,,,,,,0.646296325,0.131481489,1,0,0,prikk,0,3,3,12,1
,,,,,00084,2023-10-24_15h15.21.757,vbt_B1_day3,2022.2.4,Win32,59.13310863,,,,,,,,,,,,,,,,,,,,paken,images/br_paken.png,images/cb_paken.png,,pake,,,,,,,,,,,0.646296325,0.131481489,1,0,0,pake,0,4,4,27,1
,,,,,00084,2023-10-24_15h15.21.757,vbt_B1_day3,2022.2.4,Win32,59.13310863,,,,,,,,,,,,,,,,,,,,hier,images/br_hier.png,images/cb_hier.png,,haar,,,,,,,,,,,0.646296325,0.131481489,1,0,0,haar,0,5,5,1,1
,,,,,00084,2023-10-24_15h15.21.757,vbt_B1_day3,2022.2.4,Win32,59.13310863,,,,,,,,,,,,,,,,,,,,croo,images/br_croo.png,images/cb_croo.png,,croo,,,,,,,,,,,0.646296325,0.131481489,1,0,0,croo,0,6,6,22,1
,,,,,00084,2023-10-24_15h15.21.757,vbt_B1_day3,2022.2.4,Win32,59.13310863,,,,,,,,,,,,,,,,,,,,uviek,images/br_uviek.png,images/cb_uviek.png,,uviek,,,,,,,,,,,0.646296325,0.131481489,1,0,0,uviek,0,7,7,25,1
,,,,,00084,2023-10-24_15h15.21.757,vbt_B1_day3,2022.2.4,Win32,59.13310863,,,,,,,,,,,,,,,,,,,,alsof,images/br_alsof.png,images/cb_alsof.png,,also,,,,,,,,,,,0.646296325,0.131481489,1,0,0,also,0,8,8,44,1
,,,,,00084,2023-10-24_15h15.21.757,vbt_B1_day3,2022.2.4,Win32,59.13310863,,,,,,,,,,,,,,,,,,,,onrecht,images/br_onrecht.png,images/cb_onrecht.png,,on,,,,,,,,,,,0.646296325,0.131481489,1,0,0,on,0,9,9,55,1
,,,,,00084,2023-10-24_15h15.21.757,vbt_B1_day3,2022.2.4,Win32,59.13310863,,,,,,,,,,,,,,,,,,,,sultan,images/br_sultan.png,images/cb_sultan.png,,sultan,,,,,,,,,,,0.646296325,0.131481489,1,0,0,sultan,0,10,10,49,1
,,,,,00084,2023-10-24_15h15.21.757,vbt_B1_day3,2022.2.4,Win32,59.13310863,,,,,,,,,,,,,,,,,,,,gezond,images/br_gezond.png,images/cb_gezond.png,,gezo,,,,,,,,,,,0.646296325,0.131481489,1,0,0,gezo,0,11,11,11,1
,,,,,00084,2023-10-24_15h15.21.757,vbt_B1_day3,2022.2.4,Win32,59.13310863,,,,,,,,,,,,,,,,,,,,verraden,images/br_verraden.png,images/cb_verraden.png,,verrad,,,,,,,,,,,0.646296325,0.131481489,1,0,0,verrad,0,12,12,58,1
,,,,,00084,2023-10-24_15h15.21.757,vbt_B1_day3,2022.2.4,Win32,59.13310863,,,,,,,,,,,,,,,,,,,,knie,images/br_knie.png,images/cb_knie.png,,knie,,,,,,,,,,,0.646296325,0.131481489,1,0,0,knie,0,13,13,0,1
,,,,,00084,2023-10-24_15h15.21.757,vbt_B1_day3,2022.2.4,Win32,59.13310863,,,,,,,,,,,,,,,,,,,,hint,images/br_hint.png,images/cb_hint.png,,hint,,,,,,,,,,,0.646296325,0.131481489,1,0,0,hint,0,14,14,43,1
,,,,,00084,2023-10-24_15h15.21.757,vbt_B1_day3,2022.2.4,Win32,59.13310863,,,,,,,,,,,,,,,,,,,,kwaas,images/br_kwaas.png,images/cb_kwaas.png,,kwaa,,,,,,,,,,,0.646296325,0.131481489,1,0,0,kwaa,0,15,15,26,1
,,,,,00084,2023-10-24_15h15.21.757,vbt_B1_day3,2022.2.4,Win32,59.13310863,,,,,,,,,,,,,,,,,,,,oprotten,images/br_oprotten.png,images/cb_oprotten.png,,opratt,,,,,,,,,,,0.646296325,0.131481489,1,0,0,opratt,0,16,16,17,1
,,,,,00084,2023-10-24_15h15.21.757,vbt_B1_day3,2022.2.4,Win32,59.13310863,,,,,,,,,,,,,,,,,,,,geluid,images/br_geluid.png,images/cb_geluid.png,,geluid,,,,,,,,,,,0.646296325,0.131481489,1,0,0,geluid,0,17,17,10,1
,,,,,00084,2023-10-24_15h15.21.757,vbt_B1_day3,2022.2.4,Win32,59.13310863,,,,,,,,,,,,,,,,,,,,begrip,images/br_begrip.png,images/cb_begrip.png,,begrip,,,,,,,,,,,0.646296325,0.131481489,1,0,0,begrip,0,18,18,48,1
,,,,,00084,2023-10-24_15h15.21.757,vbt_B1_day3,2022.2.4,Win32,59.13310863,,,,,,,,,,,,,,,,,,,,gebod,images/br_gebod.png,images/cb_gebod.png,,gebod,,,,,,,,,,,0.646296325,0.131481489,1,0,0,gebod,0,19,19,45,1
,,,,,00084,2023-10-24_15h15.21.757,vbt_B1_day3,2022.2.4,Win32,59.13310863,,,,,,,,,,,,,,,,,,,,opzetten,images/br_opzetten.png,images/cb_opzetten.png,,op,,,,,,,,,,,0.646296325,0.131481489,1,0,0,op,0,20,20,56,1
,,,,,00084,2023-10-24_15h15.21.757,vbt_B1_day3,2022.2.4,Win32,59.13310863,,,,,,,,,,,,,,,,,,,,kest,images/br_kest.png,images/cb_kest.png,,kest,,,,,,,,,,,0.646296325,0.131481489,1,0,0,kest,0,21,21,21,1
,,,,,00084,2023-10-24_15h15.21.757,vbt_B1_day3,2022.2.4,Win32,59.13310863,,,,,,,,,,,,,,,,,,,,aarzelen,images/br_aarzelen.png,images/cb_aarzelen.png,,aarz,,,,,,,,,,,0.646296325,0.131481489,1,0,0,aarz,0,22,22,19,1
,,,,,00084,2023-10-24_15h15.21.757,vbt_B1_day3,2022.2.4,Win32,59.13310863,,,,,,,,,,,,,,,,,,,,dwang,images/br_dwang.png,images/cb_dwang.png,,dwang,,,,,,,,,,,0.646296325,0.131481489,1,0,0,dwang,0,23,23,47,1
,,,,,00084,2023-10-24_15h15.21.757,vbt_B1_day3,2022.2.4,Win32,59.13310863,,,,,,,,,,,,,,,,,,,,twaaf,images/br_twaaf.png,images/cb_twaaf.png,,twaaf,,,,,,,,,,,0.646296325,0.131481489,1,0,0,twaaf,0,24,24,24,1
,,,,,00084,2023-10-24_15h15.21.757,vbt_B1_day3,2022.2.4,Win32,59.13310863,,,,,,,,,,,,,,,,,,,,opzicht,images/br_opzicht.png,images/cb_opzicht.png,,opzi,,,,,,,,,,,0.646296325,0.131481489,1,0,0,opzi,0,25,25,15,1
,,,,,00084,2023-10-24_15h15.21.757,vbt_B1_day3,2022.2.4,Win32,59.13310863,,,,,,,,,,,,,,,,,,,,slapen,images/br_slapen.png,images/cb_slapen.png,,slapen,,,,,,,,,,,0.646296325,0.131481489,1,0,0,slapen,0,26,26,9,1
,,,,,00084,2023-10-24_15h15.21.757,vbt_B1_day3,2022.2.4,Win32,59.13310863,,,,,,,,,,,,,,,,,,,,stoom,images/br_stoom.png,images/cb_stoom.png,,stoom,,,,,,,,,,,0.646296325,0.131481489,1,0,0,stoom,0,27,27,6,1
,,,,,00084,2023-10-24_15h15.21.757,vbt_B1_day3,2022.2.4,Win32,59.13310863,,,,,,,,,,,,,,,,,,,,laken,images/br_laken.png,images/cb_laken.png,,laken,,,,,,,,,,,0.646296325,0.131481489,1,0,0,laken,0,28,28,5,1
,,,,,00084,2023-10-24_15h15.21.757,vbt_B1_day3,2022.2.4,Win32,59.13310863,,,,,,,,,,,,,,,,,,,,vlager,images/br_vlager.png,images/cb_vlager.png,,vlager,,,,,,,,,,,0.646296325,0.131481489,1,0,0,vlager,0,29,29,28,1
,,,,,00084,2023-10-24_15h15.21.757,vbt_B1_day3,2022.2.4,Win32,59.13310863,,,,,,,,,,,,,,,,,,,,kaas,images/br_kaas.png,images/cb_kaas.png,,kaas,,,,,,,,,,,0.646296325,0.131481489,1,0,0,kaas,0,30,30,42,1
,,,,,00084,2023-10-24_15h15.21.757,vbt_B1_day3,2022.2.4,Win32,59.13310863,,,,,,,,,,,,,,,,,,,,hust,images/br_hust.png,images/cb_hust.png,,hust,,,,,,,,,,,0.646296325,0.131481489,1,0,0,hust,0,31,31,23,1
,,,,,00084,2023-10-24_15h15.21.757,vbt_B1_day3,2022.2.4,Win32,59.13310863,,,,,,,,,,,,,,,,,,,,eens,images/br_eens.png,images/cb_eens.png,,eens,,,,,,,,,,,0.646296325,0.131481489,1,0,0,eens,0,32,32,40,1
,,,,,00084,2023-10-24_15h15.21.757,vbt_B1_day3,2022.2.4,Win32,59.13310863,,,,,,,,,,,,,,,,,,,,booien,images/br_booien.png,images/cb_booien.png,,booien,,,,,,,,,,,0.646296325,0.131481489,1,0,0,booien,0,33,33,31,1
,,,,,00084,2023-10-24_15h15.21.757,vbt_B1_day3,2022.2.4,Win32,59.13310863,,,,,,,,,,,,,,,,,,,,uniek,images/br_uniek.png,images/cb_uniek.png,,uniek,,,,,,,,,,,0.646296325,0.131481489,1,0,0,uniek,0,34,34,46,1
,,,,,00084,2023-10-24_15h15.21.757,vbt_B1_day3,2022.2.4,Win32,59.13310863,,,,,,,,,,,,,,,,,,,,glijden,images/br_glijden.png,images/cb_glijden.png,,glij,,,,,,,,,,,0.646296325,0.131481489,1,0,0,glij,0,35,35,53,1
,,,,,00084,2023-10-24_15h15.21.757,vbt_B1_day3,2022.2.4,Win32,59.13310863,,,,,,,,,,,,,,,,,,,,jongelui,images/br_jongelui.png,images/cb_jongelui.png,,jongle,,,,,,,,,,,0.646296325,0.131481489,1,0,0,jongle,0,36,36,59,1
,,,,,00084,2023-10-24_15h15.21.757,vbt_B1_day3,2022.2.4,Win32,59.13310863,,,,,,,,,,,,,,,,,,,,stallen,images/br_stallen.png,images/cb_stallen.png,,stallen,,,,,,,,,,,0.646296325,0.131481489,1,0,0,stallen,0,37,37,52,1
,,,,,00084,2023-10-24_15h15.21.757,vbt_B1_day3,2022.2.4,Win32,59.13310863,,,,,,,,,,,,,,,,,,,,brappen,images/br_brappen.png,images/cb_brappen.png,,brappen,,,,,,,,,,,0.646296325,0.131481489,1,0,0,brappen,0,38,38,35,1
,,,,,00084,2023-10-24_15h15.21.757,vbt_B1_day3,2022.2.4,Win32,59.13310863,,,,,,,,,,,,,,,,,,,,afbopen,images/br_afbopen.png,images/cb_afbopen.png,,afb,,,,,,,,,,,0.646296325,0.131481489,1,0,0,afb,0,39,39,34,1
,,,,,00084,2023-10-24_15h15.21.757,vbt_B1_day3,2022.2.4,Win32,59.13310863,,,,,,,,,,,,,,,,,,,,schodel,images/br_schodel.png,images/cb_schodel.png,,scho,,,,,,,,,,,0.646296325,0.131481489,1,0,0,scho,0,40,40,33,1
,,,,,00084,2023-10-24_15h15.21.757,vbt_B1_day3,2022.2.4,Win32,59.13310863,,,,,,,,,,,,,,,,,,,,schatten,images/br_schatten.png,images/cb_schatten.png,,schatt,,,,,,,,,,,0.646296325,0.131481489,1,0,0,schatt,0,41,41,18,1
,,,,,00084,2023-10-24_15h15.21.757,vbt_B1_day3,2022.2.4,Win32,59.13310863,,,,,,,,,,,,,,,,,,,,bevret,images/br_bevret.png,images/cb_bevret.png,,bepret,,,,,,,,,,,0.646296325,0.131481489,1,0,0,bepret,0,42,42,30,1
,,,,,00084,2023-10-24_15h15.21.757,vbt_B1_day3,2022.2.4,Win32,59.13310863,,,,,,,,,,,,,,,,,,,,gout,images/br_gout.png,images/cb_gout.png,,gout,,,,,,,,,,,0.646296325,0.131481489,1,0,0,gout,0,43,43,20,1
,,,,,00084,2023-10-24_15h15.21.757,vbt_B1_day3,2022.2.4,Win32,59.13310863,,,,,,,,,,,,,,,,,,,,invallen,images/br_invallen.png,images/cb_invallen.png,,invall,,,,,,,,,,,0.646296325,0.131481489,1,0,0,invall,0,44,44,57,1
,,,,,00084,2023-10-24_15h15.21.757,vbt_B1_day3,2022.2.4,Win32,59.13310863,,,,,,,,,,,,,,,,,,,,beslag,images/br_beslag.png,images/cb_beslag.png,,beslag,,,,,,,,,,,0.646296325,0.131481489,1,0,0,beslag,0,45,45,51,1
,,,,,00084,2023-10-24_15h15.21.757,vbt_B1_day3,2022.2.4,Win32,59.13310863,,,,,,,,,,,,,,,,,,,,stikken,images/br_stikken.png,images/cb_stikken.png,,stikken,,,,,,,,,,,0.646296325,0.131481489,1,0,0,stikken,0,46,46,54,1
,,,,,00084,2023-10-24_15h15.21.757,vbt_B1_day3,2022.2.4,Win32,59.13310863,,,,,,,,,,,,,,,,,,,,mugeek,images/br_mugeek.png,images/cb_mugeek.png,,mugge,,,,,,,,,,,0.646296325,0.131481489,1,0,0,mugge,0,47,47,29,1
,,,,,00084,2023-10-24_15h15.21.757,vbt_B1_day3,2022.2.4,Win32,59.13310863,,,,,,,,,,,,,,,,,,,,boeien,images/br_boeien.png,images/cb_boeien.png,,boeien,,,,,,,,,,,0.646296325,0.131481489,1,0,0,boeien,0,48,48,8,1
,,,,,00084,2023-10-24_15h15.21.757,vbt_B1_day3,2022.2.4,Win32,59.13310863,,,,,,,,,,,,,,,,,,,,mode,images/br_mode.png,images/cb_mode.png,,mode,,,,,,,,,,,0.646296325,0.131481489,1,0,0,mode,0,49,49,3,1
,,,,,00084,2023-10-24_15h15.21.757,vbt_B1_day3,2022.2.4,Win32,59.13310863,,,,,,,,,,,,,,,,,,,,zone,images/br_zone.png,images/cb_zone.png,,zone,,,,,,,,,,,0.646296325,0.131481489,1,0,0,zone,0,50,50,41,1
,,,,,00084,2023-10-24_15h15.21.757,vbt_B1_day3,2022.2.4,Win32,59.13310863,,,,,,,,,,,,,,,,,,,,leek,images/br_leek.png,images/cb_leek.png,,leek,,,,,,,,,,,0.646296325,0.131481489,1,0,0,leek,0,51,51,2,1
,,,,,00084,2023-10-24_15h15.21.757,vbt_B1_day3,2022.2.4,Win32,59.13310863,,,,,,,,,,,,,,,,,,,,bisschop,images/br_bisschop.png,images/cb_bisschop.png,,bessc,,,,,,,,,,,0.646296325,0.131481489,1,0,0,bessc,0,52,52,16,1
,,,,,00084,2023-10-24_15h15.21.757,vbt_B1_day3,2022.2.4,Win32,59.13310863,,,,,,,,,,,,,,,,,,,,leugeren,images/br_leugeren.png,images/cb_leugeren.png,,leuge,,,,,,,,,,,0.646296325,0.131481489,1,0,0,leuge,0,53,53,37,1
,,,,,00084,2023-10-24_15h15.21.757,vbt_B1_day3,2022.2.4,Win32,59.13310863,,,,,,,,,,,,,,,,,,,,sluier,images/br_sluier.png,images/cb_sluier.png,,sluier,,,,,,,,,,,0.646296325,0.131481489,1,0,0,sluier,0,54,54,50,1
,,,,,00084,2023-10-24_15h15.21.757,vbt_B1_day3,2022.2.4,Win32,59.13310863,,,,,,,,,,,,,,,,,,,,verhaal,images/br_verhaal.png,images/cb_verhaal.png,,ver,,,,,,,,,,,0.646296325,0.131481489,1,0,0,ver,0,55,55,13,1
,,,,,00084,2023-10-24_15h15.21.757,vbt_B1_day3,2022.2.4,Win32,59.13310863,,,,,,,,,,,,,,,,,,,,verwoor,images/br_verwoor.png,images/cb_verwoor.png,,verw,,,,,,,,,,,0.646296325,0.131481489,1,0,0,verw,0,56,56,32,1
,,,,,00084,2023-10-24_15h15.21.757,vbt_B1_day3,2022.2.4,Win32,59.13310863,,,,,,,,,,,,,,,,,,,,samen,images/br_samen.png,images/cb_samen.png,,samen,,,,,,,,,,,0.646296325,0.131481489,1,0,0,samen,0,57,57,7,1
,,,,,00084,2023-10-24_15h15.21.757,vbt_B1_day3,2022.2.4,Win32,59.13310863,,,,,,,,,,,,,,,,,,,,makieren,images/br_makieren.png,images/cb_makieren.png,,mak,,,,,,,,,,,0.646296325,0.131481489,1,0,0,mak,0,58,58,36,1
,,,,,00084,2023-10-24_15h15.21.757,vbt_B1_day3,2022.2.4,Win32,59.13310863,,,,,,,,,,,,,,,,,,,,keihard,images/br_keihard.png,images/cb_keihard.png,,keif,,,,,,,,,,,0.646296325,0.131481489,1,0,0,keif,0,59,59,14,1
,,,,,00084,2023-10-24_15h15.21.757,vbt_B1_day3,2022.2.4,Win32,59.13310863,,,,,,,,,,,,,,,,,,,,,,,,,,,,,,,,,,,,,,,,,,,,,
