welcome_mouse.x,welcome_mouse.y,welcome_mouse.leftButton,welcome_mouse.midButton,welcome_mouse.rightButton,"ID",date,expName,psychopyVersion,OS,frameRate,trainInstr_mouse.x,trainInstr_mouse.y,trainInstr_mouse.leftButton,trainInstr_mouse.midButton,trainInstr_mouse.rightButton,translation_key.keys,translation_key.corr,translation_key.rt,word_rsp.text,trWrd_mouse.x,trWrd_mouse.y,trWrd_mouse.leftButton,trWrd_mouse.midButton,trWrd_mouse.rightButton,train_loop.thisRepN,train_loop.thisTrialN,train_loop.thisN,train_loop.thisIndex,train_loop.ran,nlWrd,brWrd,cbWrd,test,testResp,mouse.x,mouse.y,mouse.leftButton,mouse.midButton,mouse.rightButton,testInstr_mouse.x,testInstr_mouse.y,testInstr_mouse.leftButton,testInstr_mouse.midButton,testInstr_mouse.rightButton,test_mouse.x,test_mouse.y,test_mouse.leftButton,test_mouse.midButton,test_mouse.rightButton,test_response.text,test_loop.thisRepN,test_loop.thisTrialN,test_loop.thisN,test_loop.thisIndex,test_loop.ran
-0.152777778,-0.134259259,1,0,0,00088,2023-10-25_11h20.47.502,vbt_B1_day3,2022.2.4,Win32,61.74745292,,,,,,,,,,,,,,,,,,,,,,,,,,,,,,,,,,,,,,,,,,,,,
,,,,,00088,2023-10-25_11h20.47.502,vbt_B1_day3,2022.2.4,Win32,61.74745292,-0.143518519,-0.250925912,1,0,0,,,,,,,,,,,,,,,,,,,,,,,,,,,,,,,,,,,,,,,,
,,,,,00088,2023-10-25_11h20.47.502,vbt_B1_day3,2022.2.4,Win32,61.74745292,,,,,,down,0,3.4179,,-0.143518519,-0.250925912,1,0,0,0,0,0,113,1,koppen,images/br_koppen.png,images/cb_koppen.png,0,,,,,,,,,,,,,,,,,,,,,,
,,,,,00088,2023-10-25_11h20.47.502,vbt_B1_day3,2022.2.4,Win32,61.74745292,,,,,,down,0,3.7543,,-0.313888868,-0.054629644,1,0,0,0,1,1,160,1,daarheen,images/br_daarheen.png,images/cb_daarheen.png,0,,,,,,,,,,,,,,,,,,,,,,
,,,,,00088,2023-10-25_11h20.47.502,vbt_B1_day3,2022.2.4,Win32,61.74745292,,,,,,down,0,10.9434,,-0.313888868,-0.054629644,1,0,0,0,2,2,163,1,schuilen,images/br_schuilen.png,images/cb_schuilen.png,0,,,,,,,,,,,,,,,,,,,,,,
,,,,,00088,2023-10-25_11h20.47.502,vbt_B1_day3,2022.2.4,Win32,61.74745292,,,,,,down,0,14.9007,,-0.313888868,-0.054629644,1,0,0,0,3,3,116,1,besmet,images/br_besmet.png,images/cb_besmet.png,0,,,,,,,,,,,,,,,,,,,,,,
,,,,,00088,2023-10-25_11h20.47.502,vbt_B1_day3,2022.2.4,Win32,61.74745292,,,,,,down,0,1.1697,,-0.313888868,-0.054629644,1,0,0,0,4,4,25,1,plek,images/br_plek.png,images/cb_plek.png,0,,,,,,,,,,,,,,,,,,,,,,
,,,,,00088,2023-10-25_11h20.47.502,vbt_B1_day3,2022.2.4,Win32,61.74745292,,,,,,down,0,0.595,,-0.313888868,-0.054629644,1,0,0,0,5,5,1,1,zaal,images/br_zaal.png,images/cb_zaal.png,0,,,,,,,,,,,,,,,,,,,,,,
,,,,,00088,2023-10-25_11h20.47.502,vbt_B1_day3,2022.2.4,Win32,61.74745292,,,,,,down,0,9.9594,,-0.313888868,-0.054629644,1,0,0,0,6,6,87,1,toeval,images/br_toeval.png,images/cb_toeval.png,0,,,,,,,,,,,,,,,,,,,,,,
,,,,,00088,2023-10-25_11h20.47.502,vbt_B1_day3,2022.2.4,Win32,61.74745292,,,,,,down,0,9.9625,,-0.313888868,-0.054629644,1,0,0,0,7,7,147,1,komisch,images/br_komisch.png,images/cb_komisch.png,0,,,,,,,,,,,,,,,,,,,,,,
,,,,,00088,2023-10-25_11h20.47.502,vbt_B1_day3,2022.2.4,Win32,61.74745292,,,,,,down,0,3.845,,-0.313888868,-0.054629644,1,0,0,0,8,8,124,1,bloeien,images/br_bloeien.png,images/cb_bloeien.png,0,,,,,,,,,,,,,,,,,,,,,,
,,,,,00088,2023-10-25_11h20.47.502,vbt_B1_day3,2022.2.4,Win32,61.74745292,,,,,,down,0,2.5901,,-0.313888868,-0.054629644,1,0,0,0,9,9,5,1,blad,images/br_blad.png,images/cb_blad.png,0,,,,,,,,,,,,,,,,,,,,,,
,,,,,00088,2023-10-25_11h20.47.502,vbt_B1_day3,2022.2.4,Win32,61.74745292,,,,,,down,0,0.9006,,-0.313888868,-0.054629644,1,0,0,0,10,10,38,1,baai,images/br_baai.png,images/cb_baai.png,0,,,,,,,,,,,,,,,,,,,,,,
,,,,,00088,2023-10-25_11h20.47.502,vbt_B1_day3,2022.2.4,Win32,61.74745292,,,,,,down,0,5.8891,,-0.313888868,-0.054629644,1,0,0,0,11,11,81,1,dubbel,images/br_dubbel.png,images/cb_dubbel.png,0,,,,,,,,,,,,,,,,,,,,,,
,,,,,00088,2023-10-25_11h20.47.502,vbt_B1_day3,2022.2.4,Win32,61.74745292,,,,,,down,0,3.8165,,-0.313888868,-0.054629644,1,0,0,0,12,12,127,1,doodmoe,images/br_doodmoe.png,images/cb_doodmoe.png,0,,,,,,,,,,,,,,,,,,,,,,
,,,,,00088,2023-10-25_11h20.47.502,vbt_B1_day3,2022.2.4,Win32,61.74745292,,,,,,down,0,2.8548,,-0.313888868,-0.054629644,1,0,0,0,13,13,184,1,aandelen,images/br_aandelen.png,images/cb_aandelen.png,0,,,,,,,,,,,,,,,,,,,,,,
,,,,,00088,2023-10-25_11h20.47.502,vbt_B1_day3,2022.2.4,Win32,61.74745292,,,,,,down,0,7.9758,,-0.313888868,-0.054629644,1,0,0,0,14,14,169,1,oprotten,images/br_oprotten.png,images/cb_oprotten.png,0,,,,,,,,,,,,,,,,,,,,,,
,,,,,00088,2023-10-25_11h20.47.502,vbt_B1_day3,2022.2.4,Win32,61.74745292,,,,,,down,0,1.7599,,-0.313888868,-0.054629644,1,0,0,0,15,15,2,1,jaar,images/br_jaar.png,images/cb_jaar.png,0,,,,,,,,,,,,,,,,,,,,,,
,,,,,00088,2023-10-25_11h20.47.502,vbt_B1_day3,2022.2.4,Win32,61.74745292,,,,,,down,0,7.8635,,-0.313888868,-0.054629644,1,0,0,0,16,16,12,1,kust,images/br_kust.png,images/cb_kust.png,0,,,,,,,,,,,,,,,,,,,,,,
,,,,,00088,2023-10-25_11h20.47.502,vbt_B1_day3,2022.2.4,Win32,61.74745292,,,,,,down,0,2.9942,,-0.313888868,-0.054629644,1,0,0,0,17,17,51,1,samen,images/br_samen.png,images/cb_samen.png,0,,,,,,,,,,,,,,,,,,,,,,
,,,,,00088,2023-10-25_11h20.47.502,vbt_B1_day3,2022.2.4,Win32,61.74745292,,,,,,down,0,3.9226,,-0.313888868,-0.054629644,1,0,0,0,18,18,144,1,eetlust,images/br_eetlust.png,images/cb_eetlust.png,0,,,,,,,,,,,,,,,,,,,,,,
,,,,,00088,2023-10-25_11h20.47.502,vbt_B1_day3,2022.2.4,Win32,61.74745292,,,,,,down,0,1.5351,,-0.313888868,-0.054629644,1,0,0,0,19,19,18,1,blik,images/br_blik.png,images/cb_blik.png,0,,,,,,,,,,,,,,,,,,,,,,
,,,,,00088,2023-10-25_11h20.47.502,vbt_B1_day3,2022.2.4,Win32,61.74745292,,,,,,down,0,11.7842,,-0.313888868,-0.054629644,1,0,0,0,20,20,133,1,seizoen,images/br_seizoen.png,images/cb_seizoen.png,0,,,,,,,,,,,,,,,,,,,,,,
,,,,,00088,2023-10-25_11h20.47.502,vbt_B1_day3,2022.2.4,Win32,61.74745292,,,,,,down,0,7.1591,,-0.313888868,-0.054629644,1,0,0,0,21,21,62,1,knaap,images/br_knaap.png,images/cb_knaap.png,1,knaap,,,,,,,,,,,,,,,,,,,,,
,,,,,00088,2023-10-25_11h20.47.502,vbt_B1_day3,2022.2.4,Win32,61.74745292,,,,,,down,0,7.0589,,-0.313888868,-0.054629644,1,0,0,0,22,22,117,1,kennis,images/br_kennis.png,images/cb_kennis.png,0,,,,,,,,,,,,,,,,,,,,,,
,,,,,00088,2023-10-25_11h20.47.502,vbt_B1_day3,2022.2.4,Win32,61.74745292,,,,,,down,0,6.5512,,-0.313888868,-0.054629644,1,0,0,0,23,23,71,1,bever,images/br_bever.png,images/cb_bever.png,0,,,,,,,,,,,,,,,,,,,,,,
,,,,,00088,2023-10-25_11h20.47.502,vbt_B1_day3,2022.2.4,Win32,61.74745292,,,,,,down,0,7.1003,,-0.313888868,-0.054629644,1,0,0,0,24,24,82,1,muziek,images/br_muziek.png,images/cb_muziek.png,0,,,,,,,,,,,,,,,,,,,,,,
,,,,,00088,2023-10-25_11h20.47.502,vbt_B1_day3,2022.2.4,Win32,61.74745292,,,,,,down,0,0.59,,-0.313888868,-0.054629644,1,0,0,0,25,25,16,1,ziek,images/br_ziek.png,images/cb_ziek.png,0,,,,,,,,,,,,,,,,,,,,,,
,,,,,00088,2023-10-25_11h20.47.502,vbt_B1_day3,2022.2.4,Win32,61.74745292,,,,,,down,0,11.7861,,-0.313888868,-0.054629644,1,0,0,0,26,26,179,1,woestijn,images/br_woestijn.png,images/cb_woestijn.png,0,,,,,,,,,,,,,,,,,,,,,,
,,,,,00088,2023-10-25_11h20.47.502,vbt_B1_day3,2022.2.4,Win32,61.74745292,,,,,,down,0,20.0336,,-0.313888868,-0.054629644,1,0,0,0,27,27,111,1,ticket,images/br_ticket.png,images/cb_ticket.png,0,,,,,,,,,,,,,,,,,,,,,,
,,,,,00088,2023-10-25_11h20.47.502,vbt_B1_day3,2022.2.4,Win32,61.74745292,,,,,,down,0,18.4894,,-0.313888868,-0.054629644,1,0,0,0,28,28,185,1,mijnheer,images/br_mijnheer.png,images/cb_mijnheer.png,0,,,,,,,,,,,,,,,,,,,,,,
,,,,,00088,2023-10-25_11h20.47.502,vbt_B1_day3,2022.2.4,Win32,61.74745292,,,,,,down,0,1.7455,,-0.313888868,-0.054629644,1,0,0,0,29,29,7,1,geld,images/br_geld.png,images/cb_geld.png,0,,,,,,,,,,,,,,,,,,,,,,
,,,,,00088,2023-10-25_11h20.47.502,vbt_B1_day3,2022.2.4,Win32,61.74745292,,,,,,down,0,5.8487,,-0.313888868,-0.054629644,1,0,0,0,30,30,149,1,redding,images/br_redding.png,images/cb_redding.png,0,,,,,,,,,,,,,,,,,,,,,,
,,,,,00088,2023-10-25_11h20.47.502,vbt_B1_day3,2022.2.4,Win32,61.74745292,,,,,,down,0,1.2894,,-0.313888868,-0.054629644,1,0,0,0,31,31,29,1,baas,images/br_baas.png,images/cb_baas.png,0,,,,,,,,,,,,,,,,,,,,,,
,,,,,00088,2023-10-25_11h20.47.502,vbt_B1_day3,2022.2.4,Win32,61.74745292,,,,,,down,0,4.0178,,-0.313888868,-0.054629644,1,0,0,0,32,32,125,1,aanzien,images/br_aanzien.png,images/cb_aanzien.png,0,,,,,,,,,,,,,,,,,,,,,,
,,,,,00088,2023-10-25_11h20.47.502,vbt_B1_day3,2022.2.4,Win32,61.74745292,,,,,,down,0,10.8739,,-0.313888868,-0.054629644,1,0,0,0,33,33,60,1,jasje,images/br_jasje.png,images/cb_jasje.png,1,jasje,,,,,,,,,,,,,,,,,,,,,
,,,,,00088,2023-10-25_11h20.47.502,vbt_B1_day3,2022.2.4,Win32,61.74745292,,,,,,down,0,16.801,,-0.313888868,-0.054629644,1,0,0,0,34,34,134,1,geliefd,images/br_geliefd.png,images/cb_geliefd.png,0,,,,,,,,,,,,,,,,,,,,,,
,,,,,00088,2023-10-25_11h20.47.502,vbt_B1_day3,2022.2.4,Win32,61.74745292,,,,,,down,0,1.5398,,-0.313888868,-0.054629644,1,0,0,0,35,35,9,1,hier,images/br_hier.png,images/cb_hier.png,0,,,,,,,,,,,,,,,,,,,,,,
,,,,,00088,2023-10-25_11h20.47.502,vbt_B1_day3,2022.2.4,Win32,61.74745292,,,,,,down,0,3.0014,,-0.313888868,-0.054629644,1,0,0,0,36,36,55,1,praat,images/br_praat.png,images/cb_praat.png,0,,,,,,,,,,,,,,,,,,,,,,
,,,,,00088,2023-10-25_11h20.47.502,vbt_B1_day3,2022.2.4,Win32,61.74745292,,,,,,down,0,8.056,,-0.313888868,-0.054629644,1,0,0,0,37,37,176,1,techniek,images/br_techniek.png,images/cb_techniek.png,0,,,,,,,,,,,,,,,,,,,,,,
,,,,,00088,2023-10-25_11h20.47.502,vbt_B1_day3,2022.2.4,Win32,61.74745292,,,,,,down,0,16.9676,,-0.313888868,-0.054629644,1,0,0,0,38,38,162,1,uitdelen,images/br_uitdelen.png,images/cb_uitdelen.png,0,,,,,,,,,,,,,,,,,,,,,,
,,,,,00088,2023-10-25_11h20.47.502,vbt_B1_day3,2022.2.4,Win32,61.74745292,,,,,,down,0,9.697,,-0.313888868,-0.054629644,1,0,0,0,39,39,146,1,opkomen,images/br_opkomen.png,images/cb_opkomen.png,0,,,,,,,,,,,,,,,,,,,,,,
,,,,,00088,2023-10-25_11h20.47.502,vbt_B1_day3,2022.2.4,Win32,61.74745292,,,,,,down,0,2.6501,,-0.313888868,-0.054629644,1,0,0,0,40,40,150,1,gegeven,images/br_gegeven.png,images/cb_gegeven.png,0,,,,,,,,,,,,,,,,,,,,,,
,,,,,00088,2023-10-25_11h20.47.502,vbt_B1_day3,2022.2.4,Win32,61.74745292,,,,,,down,0,3.5017,,-0.313888868,-0.054629644,1,0,0,0,41,41,177,1,maaltijd,images/br_maaltijd.png,images/cb_maaltijd.png,0,,,,,,,,,,,,,,,,,,,,,,
,,,,,00088,2023-10-25_11h20.47.502,vbt_B1_day3,2022.2.4,Win32,61.74745292,,,,,,down,0,16.0775,,-0.313888868,-0.054629644,1,0,0,0,42,42,94,1,oceaan,images/br_oceaan.png,images/cb_oceaan.png,0,,,,,,,,,,,,,,,,,,,,,,
,,,,,00088,2023-10-25_11h20.47.502,vbt_B1_day3,2022.2.4,Win32,61.74745292,,,,,,down,0,4.8567,,-0.313888868,-0.054629644,1,0,0,0,43,43,80,1,kanjer,images/br_kanjer.png,images/cb_kanjer.png,0,,,,,,,,,,,,,,,,,,,,,,
,,,,,00088,2023-10-25_11h20.47.502,vbt_B1_day3,2022.2.4,Win32,61.74745292,,,,,,down,0,1.4088,,-0.313888868,-0.054629644,1,0,0,0,44,44,31,1,poes,images/br_poes.png,images/cb_poes.png,0,,,,,,,,,,,,,,,,,,,,,,
,,,,,00088,2023-10-25_11h20.47.502,vbt_B1_day3,2022.2.4,Win32,61.74745292,,,,,,down,0,5.5178,,-0.313888868,-0.054629644,1,0,0,0,45,45,61,1,groen,images/br_groen.png,images/cb_groen.png,1,groen,,,,,,,,,,,,,,,,,,,,,
,,,,,00088,2023-10-25_11h20.47.502,vbt_B1_day3,2022.2.4,Win32,61.74745292,,,,,,down,0,7.6019,,-0.313888868,-0.054629644,1,0,0,0,46,46,36,1,vuur,images/br_vuur.png,images/cb_vuur.png,0,,,,,,,,,,,,,,,,,,,,,,
,,,,,00088,2023-10-25_11h20.47.502,vbt_B1_day3,2022.2.4,Win32,61.74745292,,,,,,down,0,11.3507,,-0.313888868,-0.054629644,1,0,0,0,47,47,139,1,stiekem,images/br_stiekem.png,images/cb_stiekem.png,0,,,,,,,,,,,,,,,,,,,,,,
,,,,,00088,2023-10-25_11h20.47.502,vbt_B1_day3,2022.2.4,Win32,61.74745292,,,,,,down,0,3.2116,,-0.313888868,-0.054629644,1,0,0,0,48,48,6,1,diep,images/br_diep.png,images/cb_diep.png,0,,,,,,,,,,,,,,,,,,,,,,
,,,,,00088,2023-10-25_11h20.47.502,vbt_B1_day3,2022.2.4,Win32,61.74745292,,,,,,down,0,7.3676,,-0.313888868,-0.054629644,1,0,0,0,49,49,56,1,traag,images/br_traag.png,images/cb_traag.png,0,,,,,,,,,,,,,,,,,,,,,,
,,,,,00088,2023-10-25_11h20.47.502,vbt_B1_day3,2022.2.4,Win32,61.74745292,,,,,,down,0,6.028,,-0.313888868,-0.054629644,1,0,0,0,50,50,58,1,tekst,images/br_tekst.png,images/cb_tekst.png,0,,,,,,,,,,,,,,,,,,,,,,
,,,,,00088,2023-10-25_11h20.47.502,vbt_B1_day3,2022.2.4,Win32,61.74745292,,,,,,down,0,1.7673,,-0.313888868,-0.054629644,1,0,0,0,51,51,27,1,dans,images/br_dans.png,images/cb_dans.png,0,,,,,,,,,,,,,,,,,,,,,,
,,,,,00088,2023-10-25_11h20.47.502,vbt_B1_day3,2022.2.4,Win32,61.74745292,,,,,,down,0,8.1358,,-0.313888868,-0.054629644,1,0,0,0,52,52,105,1,wijlen,images/br_wijlen.png,images/cb_wijlen.png,0,,,,,,,,,,,,,,,,,,,,,,
,,,,,00088,2023-10-25_11h20.47.502,vbt_B1_day3,2022.2.4,Win32,61.74745292,,,,,,down,0,2.8508,,-0.313888868,-0.054629644,1,0,0,0,53,53,112,1,lukken,images/br_lukken.png,images/cb_lukken.png,0,,,,,,,,,,,,,,,,,,,,,,
,,,,,00088,2023-10-25_11h20.47.502,vbt_B1_day3,2022.2.4,Win32,61.74745292,,,,,,down,0,10.5613,,-0.313888868,-0.054629644,1,0,0,0,54,54,172,1,weigeren,images/br_weigeren.png,images/cb_weigeren.png,0,,,,,,,,,,,,,,,,,,,,,,
,,,,,00088,2023-10-25_11h20.47.502,vbt_B1_day3,2022.2.4,Win32,61.74745292,,,,,,down,0,3.784,,-0.313888868,-0.054629644,1,0,0,0,55,55,96,1,slagen,images/br_slagen.png,images/cb_slagen.png,0,,,,,,,,,,,,,,,,,,,,,,
,,,,,00088,2023-10-25_11h20.47.502,vbt_B1_day3,2022.2.4,Win32,61.74745292,,,,,,down,0,0.783,,-0.313888868,-0.054629644,1,0,0,0,56,56,89,1,slapen,images/br_slapen.png,images/cb_slapen.png,0,,,,,,,,,,,,,,,,,,,,,,
,,,,,00088,2023-10-25_11h20.47.502,vbt_B1_day3,2022.2.4,Win32,61.74745292,,,,,,down,0,9.7007,,-0.313888868,-0.054629644,1,0,0,0,57,57,148,1,smullen,images/br_smullen.png,images/cb_smullen.png,0,,,,,,,,,,,,,,,,,,,,,,
,,,,,00088,2023-10-25_11h20.47.502,vbt_B1_day3,2022.2.4,Win32,61.74745292,,,,,,down,0,6.8185,,-0.313888868,-0.054629644,1,0,0,0,58,58,166,1,strikken,images/br_strikken.png,images/cb_strikken.png,0,,,,,,,,,,,,,,,,,,,,,,
,,,,,00088,2023-10-25_11h20.47.502,vbt_B1_day3,2022.2.4,Win32,61.74745292,,,,,,down,0,4.4914,,-0.313888868,-0.054629644,1,0,0,0,59,59,78,1,leren,images/br_leren.png,images/cb_leren.png,0,,,,,,,,,,,,,,,,,,,,,,
,,,,,00088,2023-10-25_11h20.47.502,vbt_B1_day3,2022.2.4,Win32,61.74745292,,,,,,down,0,5.0337,,-0.313888868,-0.054629644,1,0,0,0,60,60,85,1,heilig,images/br_heilig.png,images/cb_heilig.png,0,,,,,,,,,,,,,,,,,,,,,,
,,,,,00088,2023-10-25_11h20.47.502,vbt_B1_day3,2022.2.4,Win32,61.74745292,,,,,,down,0,2.7845,,-0.313888868,-0.054629644,1,0,0,0,61,61,64,1,wegen,images/br_wegen.png,images/cb_wegen.png,0,,,,,,,,,,,,,,,,,,,,,,
,,,,,00088,2023-10-25_11h20.47.502,vbt_B1_day3,2022.2.4,Win32,61.74745292,,,,,,down,0,4.4173,,-0.313888868,-0.054629644,1,0,0,0,62,62,99,1,koffie,images/br_koffie.png,images/cb_koffie.png,0,,,,,,,,,,,,,,,,,,,,,,
,,,,,00088,2023-10-25_11h20.47.502,vbt_B1_day3,2022.2.4,Win32,61.74745292,,,,,,down,0,8.7503,,-0.313888868,-0.054629644,1,0,0,0,63,63,194,1,driemaal,images/br_driemaal.png,images/cb_driemaal.png,0,,,,,,,,,,,,,,,,,,,,,,
,,,,,00088,2023-10-25_11h20.47.502,vbt_B1_day3,2022.2.4,Win32,61.74745292,,,,,,down,0,7.5002,,-0.313888868,-0.054629644,1,0,0,0,64,64,41,1,maken,images/br_maken.png,images/cb_maken.png,0,,,,,,,,,,,,,,,,,,,,,,
,,,,,00088,2023-10-25_11h20.47.502,vbt_B1_day3,2022.2.4,Win32,61.74745292,,,,,,down,0,13.9514,,-0.313888868,-0.054629644,1,0,0,0,65,65,151,1,aanzoek,images/br_aanzoek.png,images/cb_aanzoek.png,0,,,,,,,,,,,,,,,,,,,,,,
,,,,,00088,2023-10-25_11h20.47.502,vbt_B1_day3,2022.2.4,Win32,61.74745292,,,,,,down,0,10.8534,,-0.313888868,-0.054629644,1,0,0,0,66,66,145,1,invloed,images/br_invloed.png,images/cb_invloed.png,0,,,,,,,,,,,,,,,,,,,,,,
,,,,,00088,2023-10-25_11h20.47.502,vbt_B1_day3,2022.2.4,Win32,61.74745292,,,,,,down,0,7.7947,,-0.313888868,-0.054629644,1,0,0,0,67,67,154,1,aflopen,images/br_aflopen.png,images/cb_aflopen.png,0,,,,,,,,,,,,,,,,,,,,,,
,,,,,00088,2023-10-25_11h20.47.502,vbt_B1_day3,2022.2.4,Win32,61.74745292,,,,,,down,0,20.9489,,-0.484259252,-0.107407393,1,0,0,0,68,68,182,1,bijkomen,images/br_bijkomen.png,images/cb_bijkomen.png,1,bijkomen,,,,,,,,,,,,,,,,,,,,,
,,,,,00088,2023-10-25_11h20.47.502,vbt_B1_day3,2022.2.4,Win32,61.74745292,,,,,,down,0,2.7721,,-0.484259252,-0.107407393,1,0,0,0,69,69,53,1,baron,images/br_baron.png,images/cb_baron.png,0,,,,,,,,,,,,,,,,,,,,,,
,,,,,00088,2023-10-25_11h20.47.502,vbt_B1_day3,2022.2.4,Win32,61.74745292,,,,,,down,0,3.7527,,-0.484259252,-0.107407393,1,0,0,0,70,70,46,1,jagen,images/br_jagen.png,images/cb_jagen.png,0,,,,,,,,,,,,,,,,,,,,,,
,,,,,00088,2023-10-25_11h20.47.502,vbt_B1_day3,2022.2.4,Win32,61.74745292,,,,,,down,0,3.8159,,-0.484259252,-0.107407393,1,0,0,0,71,71,40,1,schep,images/br_schep.png,images/cb_schep.png,0,,,,,,,,,,,,,,,,,,,,,,
,,,,,00088,2023-10-25_11h20.47.502,vbt_B1_day3,2022.2.4,Win32,61.74745292,,,,,,down,0,4.362,,-0.402777778,-0.135185171,1,0,0,0,72,72,21,1,mist,images/br_mist.png,images/cb_mist.png,1,mest,,,,,,,,,,,,,,,,,,,,,
,,,,,00088,2023-10-25_11h20.47.502,vbt_B1_day3,2022.2.4,Win32,61.74745292,,,,,,down,0,8.3059,,-0.402777778,-0.135185171,1,0,0,0,73,73,79,1,nodig,images/br_nodig.png,images/cb_nodig.png,0,,,,,,,,,,,,,,,,,,,,,,
,,,,,00088,2023-10-25_11h20.47.502,vbt_B1_day3,2022.2.4,Win32,61.74745292,,,,,,down,0,5.3003,,-0.402777778,-0.135185171,1,0,0,0,74,74,102,1,legaal,images/br_legaal.png,images/cb_legaal.png,1,legaal,,,,,,,,,,,,,,,,,,,,,
,,,,,00088,2023-10-25_11h20.47.502,vbt_B1_day3,2022.2.4,Win32,61.74745292,,,,,,down,0,5.4254,,-0.402777778,-0.135185171,1,0,0,0,75,75,190,1,goedkoop,images/br_goedkoop.png,images/cb_goedkoop.png,0,,,,,,,,,,,,,,,,,,,,,,
,,,,,00088,2023-10-25_11h20.47.502,vbt_B1_day3,2022.2.4,Win32,61.74745292,,,,,,down,0,7.3347,,-0.402777778,-0.135185171,1,0,0,0,76,76,157,1,uitlaat,images/br_uitlaat.png,images/cb_uitlaat.png,0,,,,,,,,,,,,,,,,,,,,,,
,,,,,00088,2023-10-25_11h20.47.502,vbt_B1_day3,2022.2.4,Win32,61.74745292,,,,,,down,0,4.8293,,-0.402777778,-0.135185171,1,0,0,0,77,77,47,1,kabel,images/br_kabel.png,images/cb_kabel.png,0,,,,,,,,,,,,,,,,,,,,,,
,,,,,00088,2023-10-25_11h20.47.502,vbt_B1_day3,2022.2.4,Win32,61.74745292,,,,,,down,0,35.2041,,-0.402777778,-0.135185171,1,0,0,0,78,78,161,1,attentie,images/br_attentie.png,images/cb_attentie.png,0,,,,,,,,,,,,,,,,,,,,,,
,,,,,00088,2023-10-25_11h20.47.502,vbt_B1_day3,2022.2.4,Win32,61.74745292,,,,,,down,0,6.7452,,-0.402777778,-0.135185171,1,0,0,0,79,79,54,1,gebit,images/br_gebit.png,images/cb_gebit.png,0,,,,,,,,,,,,,,,,,,,,,,
,,,,,00088,2023-10-25_11h20.47.502,vbt_B1_day3,2022.2.4,Win32,61.74745292,,,,,,down,0,3.5167,,-0.402777778,-0.135185171,1,0,0,0,80,80,173,1,apparaat,images/br_apparaat.png,images/cb_apparaat.png,0,,,,,,,,,,,,,,,,,,,,,,
,,,,,00088,2023-10-25_11h20.47.502,vbt_B1_day3,2022.2.4,Win32,61.74745292,,,,,,down,0,1.0772,,-0.402777778,-0.135185171,1,0,0,0,81,81,0,1,slak,images/br_slak.png,images/cb_slak.png,0,,,,,,,,,,,,,,,,,,,,,,
,,,,,00088,2023-10-25_11h20.47.502,vbt_B1_day3,2022.2.4,Win32,61.74745292,,,,,,down,0,4.794,,-0.402777778,-0.135185171,1,0,0,0,82,82,34,1,vorm,images/br_vorm.png,images/cb_vorm.png,0,,,,,,,,,,,,,,,,,,,,,,
,,,,,00088,2023-10-25_11h20.47.502,vbt_B1_day3,2022.2.4,Win32,61.74745292,,,,,,down,0,3.469,,-0.402777778,-0.135185171,1,0,0,0,83,83,15,1,soda,images/br_soda.png,images/cb_soda.png,0,,,,,,,,,,,,,,,,,,,,,,
,,,,,00088,2023-10-25_11h20.47.502,vbt_B1_day3,2022.2.4,Win32,61.74745292,,,,,,down,0,7.0092,,-0.402777778,-0.135185171,1,0,0,0,84,84,77,1,woede,images/br_woede.png,images/cb_woede.png,0,,,,,,,,,,,,,,,,,,,,,,
,,,,,00088,2023-10-25_11h20.47.502,vbt_B1_day3,2022.2.4,Win32,61.74745292,,,,,,down,0,9.3428,,-0.402777778,-0.135185171,1,0,0,0,85,85,45,1,piste,images/br_piste.png,images/cb_piste.png,0,,,,,,,,,,,,,,,,,,,,,,
,,,,,00088,2023-10-25_11h20.47.502,vbt_B1_day3,2022.2.4,Win32,61.74745292,,,,,,down,0,3.0919,,-0.402777778,-0.135185171,1,0,0,0,86,86,22,1,stof,images/br_stof.png,images/cb_stof.png,1,stof,,,,,,,,,,,,,,,,,,,,,
,,,,,00088,2023-10-25_11h20.47.502,vbt_B1_day3,2022.2.4,Win32,61.74745292,,,,,,down,0,4.3396,,-0.402777778,-0.135185171,1,0,0,0,87,87,66,1,lever,images/br_lever.png,images/cb_lever.png,0,,,,,,,,,,,,,,,,,,,,,,
,,,,,00088,2023-10-25_11h20.47.502,vbt_B1_day3,2022.2.4,Win32,61.74745292,,,,,,down,0,12.5487,,-0.402777778,-0.135185171,1,0,0,0,88,88,37,1,mijn,images/br_mijn.png,images/cb_mijn.png,0,,,,,,,,,,,,,,,,,,,,,,
,,,,,00088,2023-10-25_11h20.47.502,vbt_B1_day3,2022.2.4,Win32,61.74745292,,,,,,down,0,6.3753,,-0.402777778,-0.135185171,1,0,0,0,89,89,198,1,bedoelen,images/br_bedoelen.png,images/cb_bedoelen.png,0,,,,,,,,,,,,,,,,,,,,,,
,,,,,00088,2023-10-25_11h20.47.502,vbt_B1_day3,2022.2.4,Win32,61.74745292,,,,,,down,0,9.2018,,-0.402777778,-0.135185171,1,0,0,0,90,90,181,1,toegeven,images/br_toegeven.png,images/cb_toegeven.png,1,toegeven,,,,,,,,,,,,,,,,,,,,,
,,,,,00088,2023-10-25_11h20.47.502,vbt_B1_day3,2022.2.4,Win32,61.74745292,,,,,,down,0,1.4,,-0.402777778,-0.135185171,1,0,0,0,91,91,33,1,vlek,images/br_vlek.png,images/cb_vlek.png,0,,,,,,,,,,,,,,,,,,,,,,
,,,,,00088,2023-10-25_11h20.47.502,vbt_B1_day3,2022.2.4,Win32,61.74745292,,,,,,down,0,2.4685,,-0.402777778,-0.135185171,1,0,0,0,92,92,188,1,strekken,images/br_strekken.png,images/cb_strekken.png,0,,,,,,,,,,,,,,,,,,,,,,
,,,,,00088,2023-10-25_11h20.47.502,vbt_B1_day3,2022.2.4,Win32,61.74745292,,,,,,down,0,4.3567,,-0.402777778,-0.135185171,1,0,0,0,93,93,152,1,afnemen,images/br_afnemen.png,images/cb_afnemen.png,0,,,,,,,,,,,,,,,,,,,,,,
,,,,,00088,2023-10-25_11h20.47.502,vbt_B1_day3,2022.2.4,Win32,61.74745292,,,,,,down,0,8.369,,-0.402777778,-0.135185171,1,0,0,0,94,94,199,1,beseffen,images/br_beseffen.png,images/cb_beseffen.png,0,,,,,,,,,,,,,,,,,,,,,,
,,,,,00088,2023-10-25_11h20.47.502,vbt_B1_day3,2022.2.4,Win32,61.74745292,,,,,,down,0,16.1349,,-0.402777778,-0.135185171,1,0,0,0,95,95,70,1,ijdel,images/br_ijdel.png,images/cb_ijdel.png,0,,,,,,,,,,,,,,,,,,,,,,
,,,,,00088,2023-10-25_11h20.47.502,vbt_B1_day3,2022.2.4,Win32,61.74745292,,,,,,down,0,5.0001,,-0.402777778,-0.135185171,1,0,0,0,96,96,73,1,volop,images/br_volop.png,images/cb_volop.png,0,,,,,,,,,,,,,,,,,,,,,,
,,,,,00088,2023-10-25_11h20.47.502,vbt_B1_day3,2022.2.4,Win32,61.74745292,,,,,,down,0,7.1619,,-0.402777778,-0.135185171,1,0,0,0,97,97,165,1,feestdag,images/br_feestdag.png,images/cb_feestdag.png,0,,,,,,,,,,,,,,,,,,,,,,
,,,,,00088,2023-10-25_11h20.47.502,vbt_B1_day3,2022.2.4,Win32,61.74745292,,,,,,down,0,2.2085,,-0.402777778,-0.135185171,1,0,0,0,98,98,115,1,kleren,images/br_kleren.png,images/cb_kleren.png,0,,,,,,,,,,,,,,,,,,,,,,
,,,,,00088,2023-10-25_11h20.47.502,vbt_B1_day3,2022.2.4,Win32,61.74745292,,,,,,down,0,8.3143,,-0.402777778,-0.135185171,1,0,0,0,99,99,142,1,snuiven,images/br_snuiven.png,images/cb_snuiven.png,1,snuiven,,,,,,,,,,,,,,,,,,,,,
,,,,,00088,2023-10-25_11h20.47.502,vbt_B1_day3,2022.2.4,Win32,61.74745292,,,,,,down,0,15.3513,,-0.402777778,-0.135185171,1,0,0,0,100,100,72,1,strak,images/br_strak.png,images/cb_strak.png,0,,,,,,,,,,,,,,,,,,,,,,
,,,,,00088,2023-10-25_11h20.47.502,vbt_B1_day3,2022.2.4,Win32,61.74745292,,,,,,down,0,32.8048,,-0.402777778,-0.135185171,1,0,0,0,101,101,88,1,boeien,images/br_boeien.png,images/cb_boeien.png,0,,,,,,,,,,,,,,,,,,,,,,
,,,,,00088,2023-10-25_11h20.47.502,vbt_B1_day3,2022.2.4,Win32,61.74745292,,,,,,down,0,6.4091,,-0.402777778,-0.135185171,1,0,0,0,102,102,155,1,gerucht,images/br_gerucht.png,images/cb_gerucht.png,0,,,,,,,,,,,,,,,,,,,,,,
,,,,,00088,2023-10-25_11h20.47.502,vbt_B1_day3,2022.2.4,Win32,61.74745292,,,,,,down,0,0.319,,-0.402777778,-0.135185171,1,0,0,0,103,103,17,1,taal,images/br_taal.png,images/cb_taal.png,0,,,,,,,,,,,,,,,,,,,,,,
,,,,,00088,2023-10-25_11h20.47.502,vbt_B1_day3,2022.2.4,Win32,61.74745292,,,,,,down,0,11.5532,,-0.402777778,-0.135185171,1,0,0,0,104,104,192,1,schaamte,images/br_schaamte.png,images/cb_schaamte.png,0,,,,,,,,,,,,,,,,,,,,,,
,,,,,00088,2023-10-25_11h20.47.502,vbt_B1_day3,2022.2.4,Win32,61.74745292,,,,,,down,0,5.8042,,-0.402777778,-0.135185171,1,0,0,0,105,105,186,1,voorraad,images/br_voorraad.png,images/cb_voorraad.png,0,,,,,,,,,,,,,,,,,,,,,,
,,,,,00088,2023-10-25_11h20.47.502,vbt_B1_day3,2022.2.4,Win32,61.74745292,,,,,,down,0,12.2909,,-0.402777778,-0.135185171,1,0,0,0,106,106,4,1,moes,images/br_moes.png,images/cb_moes.png,0,,,,,,,,,,,,,,,,,,,,,,
,,,,,00088,2023-10-25_11h20.47.502,vbt_B1_day3,2022.2.4,Win32,61.74745292,,,,,,down,0,10.3338,,-0.402777778,-0.135185171,1,0,0,0,107,107,63,1,flirt,images/br_flirt.png,images/cb_flirt.png,1,flirt,,,,,,,,,,,,,,,,,,,,,
,,,,,00088,2023-10-25_11h20.47.502,vbt_B1_day3,2022.2.4,Win32,61.74745292,,,,,,down,0,5.1665,,-0.402777778,-0.135185171,1,0,0,0,108,108,171,1,aarzelen,images/br_aarzelen.png,images/cb_aarzelen.png,0,,,,,,,,,,,,,,,,,,,,,,
,,,,,00088,2023-10-25_11h20.47.502,vbt_B1_day3,2022.2.4,Win32,61.74745292,,,,,,down,0,12.9103,,-0.402777778,-0.135185171,1,0,0,0,109,109,158,1,innemen,images/br_innemen.png,images/cb_innemen.png,0,,,,,,,,,,,,,,,,,,,,,,
,,,,,00088,2023-10-25_11h20.47.502,vbt_B1_day3,2022.2.4,Win32,61.74745292,,,,,,down,0,0.2978,,-0.402777778,-0.135185171,1,0,0,0,110,110,19,1,geit,images/br_geit.png,images/cb_geit.png,0,,,,,,,,,,,,,,,,,,,,,,
,,,,,00088,2023-10-25_11h20.47.502,vbt_B1_day3,2022.2.4,Win32,61.74745292,,,,,,down,0,4.1514,,-0.402777778,-0.135185171,1,0,0,0,111,111,35,1,lust,images/br_lust.png,images/cb_lust.png,0,,,,,,,,,,,,,,,,,,,,,,
,,,,,00088,2023-10-25_11h20.47.502,vbt_B1_day3,2022.2.4,Win32,61.74745292,,,,,,down,0,1.4669,,-0.402777778,-0.135185171,1,0,0,0,112,112,48,1,steel,images/br_steel.png,images/cb_steel.png,0,,,,,,,,,,,,,,,,,,,,,,
,,,,,00088,2023-10-25_11h20.47.502,vbt_B1_day3,2022.2.4,Win32,61.74745292,,,,,,down,0,6.3263,,-0.402777778,-0.135185171,1,0,0,0,113,113,136,1,waarbij,images/br_waarbij.png,images/cb_waarbij.png,0,,,,,,,,,,,,,,,,,,,,,,
,,,,,00088,2023-10-25_11h20.47.502,vbt_B1_day3,2022.2.4,Win32,61.74745292,,,,,,down,0,7.2882,,-0.402777778,-0.135185171,1,0,0,0,114,114,86,1,woning,images/br_woning.png,images/cb_woning.png,0,,,,,,,,,,,,,,,,,,,,,,
,,,,,00088,2023-10-25_11h20.47.502,vbt_B1_day3,2022.2.4,Win32,61.74745292,,,,,,down,0,46.8512,,-0.402777778,-0.135185171,1,0,0,0,115,115,178,1,huisdier,images/br_huisdier.png,images/cb_huisdier.png,0,,,,,,,,,,,,,,,,,,,,,,
,,,,,00088,2023-10-25_11h20.47.502,vbt_B1_day3,2022.2.4,Win32,61.74745292,,,,,,down,0,2.8671,,-0.402777778,-0.135185171,1,0,0,0,116,116,114,1,vullen,images/br_vullen.png,images/cb_vullen.png,0,,,,,,,,,,,,,,,,,,,,,,
,,,,,00088,2023-10-25_11h20.47.502,vbt_B1_day3,2022.2.4,Win32,61.74745292,,,,,,down,0,0.6005,,-0.402777778,-0.135185171,1,0,0,0,117,117,59,1,kring,images/br_kring.png,images/cb_kring.png,0,,,,,,,,,,,,,,,,,,,,,,
,,,,,00088,2023-10-25_11h20.47.502,vbt_B1_day3,2022.2.4,Win32,61.74745292,,,,,,down,0,3.551,,-0.402777778,-0.135185171,1,0,0,0,118,118,76,1,afval,images/br_afval.png,images/cb_afval.png,0,,,,,,,,,,,,,,,,,,,,,,
,,,,,00088,2023-10-25_11h20.47.502,vbt_B1_day3,2022.2.4,Win32,61.74745292,,,,,,down,0,17.8332,,-0.402777778,-0.135185171,1,0,0,0,119,119,28,1,stal,images/br_stal.png,images/cb_stal.png,0,,,,,,,,,,,,,,,,,,,,,,
,,,,,00088,2023-10-25_11h20.47.502,vbt_B1_day3,2022.2.4,Win32,61.74745292,,,,,,down,0,3.9,,-0.402777778,-0.135185171,1,0,0,0,120,120,23,1,zout,images/br_zout.png,images/cb_zout.png,1,zout,,,,,,,,,,,,,,,,,,,,,
,,,,,00088,2023-10-25_11h20.47.502,vbt_B1_day3,2022.2.4,Win32,61.74745292,,,,,,down,0,11.661,,-0.402777778,-0.135185171,1,0,0,0,121,121,153,1,vervoer,images/br_vervoer.png,images/cb_vervoer.png,0,,,,,,,,,,,,,,,,,,,,,,
,,,,,00088,2023-10-25_11h20.47.502,vbt_B1_day3,2022.2.4,Win32,61.74745292,,,,,,down,0,15.5674,,-0.402777778,-0.135185171,1,0,0,0,122,122,101,1,staren,images/br_staren.png,images/cb_staren.png,1,staren,,,,,,,,,,,,,,,,,,,,,
,,,,,00088,2023-10-25_11h20.47.502,vbt_B1_day3,2022.2.4,Win32,61.74745292,,,,,,down,0,11.9522,,-0.402777778,-0.135185171,1,0,0,0,123,123,141,1,knielen,images/br_knielen.png,images/cb_knielen.png,1,knielen,,,,,,,,,,,,,,,,,,,,,
,,,,,00088,2023-10-25_11h20.47.502,vbt_B1_day3,2022.2.4,Win32,61.74745292,,,,,,down,0,1.0417,,-0.402777778,-0.135185171,1,0,0,0,124,124,187,1,opkijken,images/br_opkijken.png,images/cb_opkijken.png,0,,,,,,,,,,,,,,,,,,,,,,
,,,,,00088,2023-10-25_11h20.47.502,vbt_B1_day3,2022.2.4,Win32,61.74745292,,,,,,down,0,2.1218,,-0.402777778,-0.135185171,1,0,0,0,125,125,10,1,leek,images/br_leek.png,images/cb_leek.png,0,,,,,,,,,,,,,,,,,,,,,,
,,,,,00088,2023-10-25_11h20.47.502,vbt_B1_day3,2022.2.4,Win32,61.74745292,,,,,,down,0,64.0725,,-0.402777778,-0.135185171,1,0,0,0,126,126,95,1,vreten,images/br_vreten.png,images/cb_vreten.png,0,,,,,,,,,,,,,,,,,,,,,,
,,,,,00088,2023-10-25_11h20.47.502,vbt_B1_day3,2022.2.4,Win32,61.74745292,,,,,,down,0,2.9429,,-0.402777778,-0.135185171,1,0,0,0,127,127,129,1,verhaal,images/br_verhaal.png,images/cb_verhaal.png,0,,,,,,,,,,,,,,,,,,,,,,
,,,,,00088,2023-10-25_11h20.47.502,vbt_B1_day3,2022.2.4,Win32,61.74745292,,,,,,down,0,12.9296,,-0.402777778,-0.135185171,1,0,0,0,128,128,108,1,excuus,images/br_excuus.png,images/cb_excuus.png,0,,,,,,,,,,,,,,,,,,,,,,
,,,,,00088,2023-10-25_11h20.47.502,vbt_B1_day3,2022.2.4,Win32,61.74745292,,,,,,down,0,4.5669,,-0.402777778,-0.135185171,1,0,0,0,129,129,122,1,waarvan,images/br_waarvan.png,images/cb_waarvan.png,0,,,,,,,,,,,,,,,,,,,,,,
,,,,,00088,2023-10-25_11h20.47.502,vbt_B1_day3,2022.2.4,Win32,61.74745292,,,,,,down,0,12.6415,,-0.402777778,-0.135185171,1,0,0,0,130,130,175,1,heengaan,images/br_heengaan.png,images/cb_heengaan.png,0,,,,,,,,,,,,,,,,,,,,,,
,,,,,00088,2023-10-25_11h20.47.502,vbt_B1_day3,2022.2.4,Win32,61.74745292,,,,,,down,0,7.1748,,-0.402777778,-0.135185171,1,0,0,0,131,131,159,1,sufferd,images/br_sufferd.png,images/cb_sufferd.png,0,,,,,,,,,,,,,,,,,,,,,,
,,,,,00088,2023-10-25_11h20.47.502,vbt_B1_day3,2022.2.4,Win32,61.74745292,,,,,,down,0,5.3496,,-0.402777778,-0.135185171,1,0,0,0,132,132,44,1,flits,images/br_flits.png,images/cb_flits.png,0,,,,,,,,,,,,,,,,,,,,,,
,,,,,00088,2023-10-25_11h20.47.502,vbt_B1_day3,2022.2.4,Win32,61.74745292,,,,,,down,0,9.6854,,-0.402777778,-0.135185171,0,0,1,0,133,133,50,1,stoom,images/br_stoom.png,images/cb_stoom.png,0,,,,,,,,,,,,,,,,,,,,,,
,,,,,00088,2023-10-25_11h20.47.502,vbt_B1_day3,2022.2.4,Win32,61.74745292,,,,,,down,0,11.7483,,-0.35833334,-0.043518526,1,0,0,0,134,134,196,1,nakijken,images/br_nakijken.png,images/cb_nakijken.png,0,,,,,,,,,,,,,,,,,,,,,,
,,,,,00088,2023-10-25_11h20.47.502,vbt_B1_day3,2022.2.4,Win32,61.74745292,,,,,,down,0,4.6018,,-0.35833334,-0.043518526,1,0,0,0,135,135,180,1,openbaar,images/br_openbaar.png,images/cb_openbaar.png,1,openbaar,,,,,,,,,,,,,,,,,,,,,
,,,,,00088,2023-10-25_11h20.47.502,vbt_B1_day3,2022.2.4,Win32,61.74745292,,,,,,down,0,2.8676,,-0.35833334,-0.043518526,1,0,0,0,136,136,126,1,kasteel,images/br_kasteel.png,images/cb_kasteel.png,0,,,,,,,,,,,,,,,,,,,,,,
,,,,,00088,2023-10-25_11h20.47.502,vbt_B1_day3,2022.2.4,Win32,61.74745292,,,,,,down,0,9.8791,,-0.35833334,-0.043518526,1,0,0,0,137,137,135,1,gedicht,images/br_gedicht.png,images/cb_gedicht.png,0,,,,,,,,,,,,,,,,,,,,,,
,,,,,00088,2023-10-25_11h20.47.502,vbt_B1_day3,2022.2.4,Win32,61.74745292,,,,,,down,0,6.2063,,-0.35833334,-0.043518526,1,0,0,0,138,138,197,1,spanning,images/br_spanning.png,images/cb_spanning.png,0,,,,,,,,,,,,,,,,,,,,,,
,,,,,00088,2023-10-25_11h20.47.502,vbt_B1_day3,2022.2.4,Win32,61.74745292,,,,,,down,0,9.2856,,-0.35833334,-0.043518526,1,0,0,0,139,139,137,1,trekker,images/br_trekker.png,images/cb_trekker.png,0,,,,,,,,,,,,,,,,,,,,,,
,,,,,00088,2023-10-25_11h20.47.502,vbt_B1_day3,2022.2.4,Win32,61.74745292,,,,,,down,0,5.2784,,-0.35833334,-0.043518526,1,0,0,0,140,140,26,1,leuk,images/br_leuk.png,images/cb_leuk.png,0,,,,,,,,,,,,,,,,,,,,,,
,,,,,00088,2023-10-25_11h20.47.502,vbt_B1_day3,2022.2.4,Win32,61.74745292,,,,,,down,0,5.0017,,-0.35833334,-0.043518526,1,0,0,0,141,141,138,1,akkoord,images/br_akkoord.png,images/cb_akkoord.png,0,,,,,,,,,,,,,,,,,,,,,,
,,,,,00088,2023-10-25_11h20.47.502,vbt_B1_day3,2022.2.4,Win32,61.74745292,,,,,,down,0,11.8356,,-0.35833334,-0.043518526,1,0,0,0,142,142,130,1,keihard,images/br_keihard.png,images/cb_keihard.png,0,,,,,,,,,,,,,,,,,,,,,,
,,,,,00088,2023-10-25_11h20.47.502,vbt_B1_day3,2022.2.4,Win32,61.74745292,,,,,,down,0,1.4011,,-0.35833334,-0.043518526,1,0,0,0,143,143,65,1,parel,images/br_parel.png,images/cb_parel.png,0,,,,,,,,,,,,,,,,,,,,,,
,,,,,00088,2023-10-25_11h20.47.502,vbt_B1_day3,2022.2.4,Win32,61.74745292,,,,,,down,0,2.1408,,-0.35833334,-0.043518526,1,0,0,0,144,144,30,1,uien,images/br_uien.png,images/cb_uien.png,0,,,,,,,,,,,,,,,,,,,,,,
,,,,,00088,2023-10-25_11h20.47.502,vbt_B1_day3,2022.2.4,Win32,61.74745292,,,,,,down,0,17.7575,,-0.35833334,-0.043518526,1,0,0,0,145,145,168,1,bisschop,images/br_bisschop.png,images/cb_bisschop.png,0,,,,,,,,,,,,,,,,,,,,,,
,,,,,00088,2023-10-25_11h20.47.502,vbt_B1_day3,2022.2.4,Win32,61.74745292,,,,,,down,0,2.4121,,-0.35833334,-0.043518526,1,0,0,0,146,146,103,1,joggen,images/br_joggen.png,images/cb_joggen.png,1,joggen,,,,,,,,,,,,,,,,,,,,,
,,,,,00088,2023-10-25_11h20.47.502,vbt_B1_day3,2022.2.4,Win32,61.74745292,,,,,,down,0,1.9418,,-0.35833334,-0.043518526,1,0,0,0,147,147,43,1,klauw,images/br_klauw.png,images/cb_klauw.png,0,,,,,,,,,,,,,,,,,,,,,,
,,,,,00088,2023-10-25_11h20.47.502,vbt_B1_day3,2022.2.4,Win32,61.74745292,,,,,,down,0,6.3701,,-0.35833334,-0.043518526,1,0,0,0,148,148,167,1,eenhoorn,images/br_eenhoorn.png,images/cb_eenhoorn.png,0,,,,,,,,,,,,,,,,,,,,,,
,,,,,00088,2023-10-25_11h20.47.502,vbt_B1_day3,2022.2.4,Win32,61.74745292,,,,,,down,0,4.3371,,-0.35833334,-0.043518526,1,0,0,0,149,149,100,1,geduld,images/br_geduld.png,images/cb_geduld.png,1,geduld,,,,,,,,,,,,,,,,,,,,,
,,,,,00088,2023-10-25_11h20.47.502,vbt_B1_day3,2022.2.4,Win32,61.74745292,,,,,,down,0,5.2861,,-0.35833334,-0.043518526,1,0,0,0,150,150,170,1,schatten,images/br_schatten.png,images/cb_schatten.png,0,,,,,,,,,,,,,,,,,,,,,,
,,,,,00088,2023-10-25_11h20.47.502,vbt_B1_day3,2022.2.4,Win32,61.74745292,,,,,,down,0,3.7346,,-0.35833334,-0.043518526,1,0,0,0,151,151,3,1,mand,images/br_mand.png,images/cb_mand.png,0,,,,,,,,,,,,,,,,,,,,,,
,,,,,00088,2023-10-25_11h20.47.502,vbt_B1_day3,2022.2.4,Win32,61.74745292,,,,,,down,0,12.7941,,-0.35833334,-0.043518526,1,0,0,0,152,152,193,1,weeshuis,images/br_weeshuis.png,images/cb_weeshuis.png,0,,,,,,,,,,,,,,,,,,,,,,
,,,,,00088,2023-10-25_11h20.47.502,vbt_B1_day3,2022.2.4,Win32,61.74745292,,,,,,down,0,15.6146,,-0.139814801,-0.194444444,1,0,0,0,153,153,143,1,hechten,images/br_hechten.png,images/cb_hechten.png,1,hechten,,,,,,,,,,,,,,,,,,,,,
,,,,,00088,2023-10-25_11h20.47.502,vbt_B1_day3,2022.2.4,Win32,61.74745292,,,,,,down,0,7.8561,,-0.139814801,-0.194444444,1,0,0,0,154,154,118,1,vinger,images/br_vinger.png,images/cb_vinger.png,0,,,,,,,,,,,,,,,,,,,,,,
,,,,,00088,2023-10-25_11h20.47.502,vbt_B1_day3,2022.2.4,Win32,61.74745292,,,,,,down,0,11.5799,,-0.139814801,-0.194444444,1,0,0,0,155,155,121,1,twijfel,images/br_twijfel.png,images/cb_twijfel.png,0,,,,,,,,,,,,,,,,,,,,,,
,,,,,00088,2023-10-25_11h20.47.502,vbt_B1_day3,2022.2.4,Win32,61.74745292,,,,,,down,0,13.5515,,-0.139814801,-0.194444444,1,0,0,0,156,156,68,1,schat,images/br_schat.png,images/cb_schat.png,0,,,,,,,,,,,,,,,,,,,,,,
,,,,,00088,2023-10-25_11h20.47.502,vbt_B1_day3,2022.2.4,Win32,61.74745292,,,,,,down,0,5.2898,,-0.139814801,-0.194444444,1,0,0,0,157,157,107,1,maling,images/br_maling.png,images/cb_maling.png,0,,,,,,,,,,,,,,,,,,,,,,
,,,,,00088,2023-10-25_11h20.47.502,vbt_B1_day3,2022.2.4,Win32,61.74745292,,,,,,down,0,7.6896,,-0.139814801,-0.194444444,1,0,0,0,158,158,195,1,middelen,images/br_middelen.png,images/cb_middelen.png,0,,,,,,,,,,,,,,,,,,,,,,
,,,,,00088,2023-10-25_11h20.47.502,vbt_B1_day3,2022.2.4,Win32,61.74745292,,,,,,down,0,2.1007,,-0.139814801,-0.194444444,1,0,0,0,159,159,109,1,totaal,images/br_totaal.png,images/cb_totaal.png,0,,,,,,,,,,,,,,,,,,,,,,
,,,,,00088,2023-10-25_11h20.47.502,vbt_B1_day3,2022.2.4,Win32,61.74745292,,,,,,down,0,2.9665,,-0.139814801,-0.194444444,1,0,0,0,160,160,32,1,palm,images/br_palm.png,images/cb_palm.png,0,,,,,,,,,,,,,,,,,,,,,,
,,,,,00088,2023-10-25_11h20.47.502,vbt_B1_day3,2022.2.4,Win32,61.74745292,,,,,,down,0,8.5724,,-0.139814801,-0.194444444,1,0,0,0,161,161,14,1,rijp,images/br_rijp.png,images/cb_rijp.png,0,,,,,,,,,,,,,,,,,,,,,,
,,,,,00088,2023-10-25_11h20.47.502,vbt_B1_day3,2022.2.4,Win32,61.74745292,,,,,,down,0,26.3665,,-0.139814801,-0.194444444,1,0,0,0,162,162,104,1,zweven,images/br_zweven.png,images/cb_zweven.png,0,,,,,,,,,,,,,,,,,,,,,,
,,,,,00088,2023-10-25_11h20.47.502,vbt_B1_day3,2022.2.4,Win32,61.74745292,,,,,,down,0,1.5722,,-0.332407386,-0.092592593,1,0,0,0,163,163,120,1,klimmen,images/br_klimmen.png,images/cb_klimmen.png,0,,,,,,,,,,,,,,,,,,,,,,
,,,,,00088,2023-10-25_11h20.47.502,vbt_B1_day3,2022.2.4,Win32,61.74745292,,,,,,down,0,9.6179,,-0.332407386,-0.092592593,1,0,0,0,164,164,132,1,grappen,images/br_grappen.png,images/cb_grappen.png,0,,,,,,,,,,,,,,,,,,,,,,
,,,,,00088,2023-10-25_11h20.47.502,vbt_B1_day3,2022.2.4,Win32,61.74745292,,,,,,down,0,1.9372,,-0.332407386,-0.092592593,1,0,0,0,165,165,84,1,lokken,images/br_lokken.png,images/cb_lokken.png,0,,,,,,,,,,,,,,,,,,,,,,
,,,,,00088,2023-10-25_11h20.47.502,vbt_B1_day3,2022.2.4,Win32,61.74745292,,,,,,down,0,4.1522,,-0.332407386,-0.092592593,1,0,0,0,166,166,49,1,laken,images/br_laken.png,images/cb_laken.png,0,,,,,,,,,,,,,,,,,,,,,,
,,,,,00088,2023-10-25_11h20.47.502,vbt_B1_day3,2022.2.4,Win32,61.74745292,,,,,,down,0,3.2995,,-0.332407386,-0.092592593,1,0,0,0,167,167,131,1,opzicht,images/br_opzicht.png,images/cb_opzicht.png,0,,,,,,,,,,,,,,,,,,,,,,
,,,,,00088,2023-10-25_11h20.47.502,vbt_B1_day3,2022.2.4,Win32,61.74745292,,,,,,down,0,8.8065,,-0.332407386,-0.092592593,1,0,0,0,168,168,90,1,geluid,images/br_geluid.png,images/cb_geluid.png,0,,,,,,,,,,,,,,,,,,,,,,
,,,,,00088,2023-10-25_11h20.47.502,vbt_B1_day3,2022.2.4,Win32,61.74745292,,,,,,down,0,0.5154,,-0.332407386,-0.092592593,1,0,0,0,169,169,8,1,knie,images/br_knie.png,images/cb_knie.png,0,,,,,,,,,,,,,,,,,,,,,,
,,,,,00088,2023-10-25_11h20.47.502,vbt_B1_day3,2022.2.4,Win32,61.74745292,,,,,,down,0,11.6013,,-0.332407386,-0.092592593,1,0,0,0,170,170,183,1,getuigen,images/br_getuigen.png,images/cb_getuigen.png,1,getuigen,,,,,,,,,,,,,,,,,,,,,
,,,,,00088,2023-10-25_11h20.47.502,vbt_B1_day3,2022.2.4,Win32,61.74745292,,,,,,down,0,4.3333,,-0.332407386,-0.092592593,1,0,0,0,171,171,123,1,hiervan,images/br_hiervan.png,images/cb_hiervan.png,0,,,,,,,,,,,,,,,,,,,,,,
,,,,,00088,2023-10-25_11h20.47.502,vbt_B1_day3,2022.2.4,Win32,61.74745292,,,,,,down,0,6.0507,,-0.332407386,-0.092592593,1,0,0,0,172,172,91,1,gezond,images/br_gezond.png,images/cb_gezond.png,0,,,,,,,,,,,,,,,,,,,,,,
,,,,,00088,2023-10-25_11h20.47.502,vbt_B1_day3,2022.2.4,Win32,61.74745292,,,,,,down,0,7.4404,,-0.332407386,-0.092592593,1,0,0,0,173,173,119,1,liefje,images/br_liefje.png,images/cb_liefje.png,0,,,,,,,,,,,,,,,,,,,,,,
,,,,,00088,2023-10-25_11h20.47.502,vbt_B1_day3,2022.2.4,Win32,61.74745292,,,,,,down,0,6.3839,,-0.332407386,-0.092592593,1,0,0,0,174,174,191,1,opheffen,images/br_opheffen.png,images/cb_opheffen.png,0,,,,,,,,,,,,,,,,,,,,,,
,,,,,00088,2023-10-25_11h20.47.502,vbt_B1_day3,2022.2.4,Win32,61.74745292,,,,,,down,0,1.2254,,-0.332407386,-0.092592593,1,0,0,0,175,175,97,1,loyaal,images/br_loyaal.png,images/cb_loyaal.png,0,,,,,,,,,,,,,,,,,,,,,,
,,,,,00088,2023-10-25_11h20.47.502,vbt_B1_day3,2022.2.4,Win32,61.74745292,,,,,,down,0,2.2918,,-0.332407386,-0.092592593,1,0,0,0,176,176,98,1,kreeft,images/br_kreeft.png,images/cb_kreeft.png,0,,,,,,,,,,,,,,,,,,,,,,
,,,,,00088,2023-10-25_11h20.47.502,vbt_B1_day3,2022.2.4,Win32,61.74745292,,,,,,down,0,6.9168,,-0.332407386,-0.092592593,1,0,0,0,177,177,67,1,zwart,images/br_zwart.png,images/cb_zwart.png,0,,,,,,,,,,,,,,,,,,,,,,
,,,,,00088,2023-10-25_11h20.47.502,vbt_B1_day3,2022.2.4,Win32,61.74745292,,,,,,down,0,0.6345,,-0.332407386,-0.092592593,1,0,0,0,178,178,42,1,bleek,images/br_bleek.png,images/cb_bleek.png,0,,,,,,,,,,,,,,,,,,,,,,
,,,,,00088,2023-10-25_11h20.47.502,vbt_B1_day3,2022.2.4,Win32,61.74745292,,,,,,down,0,2.7679,,-0.332407386,-0.092592593,1,0,0,0,179,179,74,1,graaf,images/br_graaf.png,images/cb_graaf.png,0,,,,,,,,,,,,,,,,,,,,,,
,,,,,00088,2023-10-25_11h20.47.502,vbt_B1_day3,2022.2.4,Win32,61.74745292,,,,,,down,0,8.4375,,-0.332407386,-0.092592593,1,0,0,0,180,180,52,1,wagon,images/br_wagon.png,images/cb_wagon.png,0,,,,,,,,,,,,,,,,,,,,,,
,,,,,00088,2023-10-25_11h20.47.502,vbt_B1_day3,2022.2.4,Win32,61.74745292,,,,,,down,0,11.7879,,-0.332407386,-0.092592593,1,0,0,0,181,181,156,1,rechten,images/br_rechten.png,images/cb_rechten.png,0,,,,,,,,,,,,,,,,,,,,,,
,,,,,00088,2023-10-25_11h20.47.502,vbt_B1_day3,2022.2.4,Win32,61.74745292,,,,,,down,0,4.211,,-0.332407386,-0.092592593,1,0,0,0,182,182,174,1,stemming,images/br_stemming.png,images/cb_stemming.png,0,,,,,,,,,,,,,,,,,,,,,,
,,,,,00088,2023-10-25_11h20.47.502,vbt_B1_day3,2022.2.4,Win32,61.74745292,,,,,,down,0,2.9109,,-0.332407386,-0.092592593,1,0,0,0,183,183,92,1,geheim,images/br_geheim.png,images/cb_geheim.png,0,,,,,,,,,,,,,,,,,,,,,,
,,,,,00088,2023-10-25_11h20.47.502,vbt_B1_day3,2022.2.4,Win32,61.74745292,,,,,,down,0,0.3504,,-0.332407386,-0.092592593,1,0,0,0,184,184,11,1,mode,images/br_mode.png,images/cb_mode.png,0,,,,,,,,,,,,,,,,,,,,,,
,,,,,00088,2023-10-25_11h20.47.502,vbt_B1_day3,2022.2.4,Win32,61.74745292,,,,,,down,0,7.8791,,-0.332407386,-0.092592593,1,0,0,0,185,185,69,1,waken,images/br_waken.png,images/cb_waken.png,0,,,,,,,,,,,,,,,,,,,,,,
,,,,,00088,2023-10-25_11h20.47.502,vbt_B1_day3,2022.2.4,Win32,61.74745292,,,,,,down,0,13.094,,-0.332407386,-0.092592593,1,0,0,0,186,186,164,1,anarchie,images/br_anarchie.png,images/cb_anarchie.png,0,,,,,,,,,,,,,,,,,,,,,,
,,,,,00088,2023-10-25_11h20.47.502,vbt_B1_day3,2022.2.4,Win32,61.74745292,,,,,,down,0,5.1257,,-0.332407386,-0.092592593,1,0,0,0,187,187,75,1,snoep,images/br_snoep.png,images/cb_snoep.png,0,,,,,,,,,,,,,,,,,,,,,,
,,,,,00088,2023-10-25_11h20.47.502,vbt_B1_day3,2022.2.4,Win32,61.74745292,,,,,,down,0,2.2676,,-0.332407386,-0.092592593,1,0,0,0,188,188,93,1,waarop,images/br_waarop.png,images/cb_waarop.png,0,,,,,,,,,,,,,,,,,,,,,,
,,,,,00088,2023-10-25_11h20.47.502,vbt_B1_day3,2022.2.4,Win32,61.74745292,,,,,,down,0,8.7,,-0.332407386,-0.092592593,1,0,0,0,189,189,128,1,prikken,images/br_prikken.png,images/cb_prikken.png,0,,,,,,,,,,,,,,,,,,,,,,
,,,,,00088,2023-10-25_11h20.47.502,vbt_B1_day3,2022.2.4,Win32,61.74745292,,,,,,down,0,7.7643,,-0.332407386,-0.092592593,1,0,0,0,190,190,140,1,blijven,images/br_blijven.png,images/cb_blijven.png,1,blijven,,,,,,,,,,,,,,,,,,,,,
,,,,,00088,2023-10-25_11h20.47.502,vbt_B1_day3,2022.2.4,Win32,61.74745292,,,,,,down,0,0.5173,,-0.332407386,-0.092592593,1,0,0,0,191,191,13,1,kaal,images/br_kaal.png,images/cb_kaal.png,0,,,,,,,,,,,,,,,,,,,,,,
,,,,,00088,2023-10-25_11h20.47.502,vbt_B1_day3,2022.2.4,Win32,61.74745292,,,,,,down,0,0.5181,,-0.332407386,-0.092592593,1,0,0,0,192,192,57,1,steek,images/br_steek.png,images/cb_steek.png,0,,,,,,,,,,,,,,,,,,,,,,
,,,,,00088,2023-10-25_11h20.47.502,vbt_B1_day3,2022.2.4,Win32,61.74745292,,,,,,down,0,7.4534,,-0.332407386,-0.092592593,1,0,0,0,193,193,83,1,mening,images/br_mening.png,images/cb_mening.png,0,,,,,,,,,,,,,,,,,,,,,,
,,,,,00088,2023-10-25_11h20.47.502,vbt_B1_day3,2022.2.4,Win32,61.74745292,,,,,,down,0,12.8121,,-0.332407386,-0.092592593,1,0,0,0,194,194,20,1,site,images/br_site.png,images/cb_site.png,1,site,,,,,,,,,,,,,,,,,,,,,
,,,,,00088,2023-10-25_11h20.47.502,vbt_B1_day3,2022.2.4,Win32,61.74745292,,,,,,down,0,5.1769,,-0.332407386,-0.092592593,1,0,0,0,195,195,24,1,jurk,images/br_jurk.png,images/cb_jurk.png,0,,,,,,,,,,,,,,,,,,,,,,
,,,,,00088,2023-10-25_11h20.47.502,vbt_B1_day3,2022.2.4,Win32,61.74745292,,,,,,down,0,2.7236,,-0.332407386,-0.092592593,1,0,0,0,196,196,106,1,zingen,images/br_zingen.png,images/cb_zingen.png,0,,,,,,,,,,,,,,,,,,,,,,
,,,,,00088,2023-10-25_11h20.47.502,vbt_B1_day3,2022.2.4,Win32,61.74745292,,,,,,down,0,3.6291,,-0.332407386,-0.092592593,1,0,0,0,197,197,110,1,zuster,images/br_zuster.png,images/cb_zuster.png,0,,,,,,,,,,,,,,,,,,,,,,
,,,,,00088,2023-10-25_11h20.47.502,vbt_B1_day3,2022.2.4,Win32,61.74745292,,,,,,down,0,4.8441,,-0.332407386,-0.092592593,1,0,0,0,198,198,189,1,aanraden,images/br_aanraden.png,images/cb_aanraden.png,0,,,,,,,,,,,,,,,,,,,,,,
,,,,,00088,2023-10-25_11h20.47.502,vbt_B1_day3,2022.2.4,Win32,61.74745292,,,,,,down,0,0.2164,,-0.332407386,-0.092592593,1,0,0,0,199,199,39,1,laag,images/br_laag.png,images/cb_laag.png,0,,,,,,,,,,,,,,,,,,,,,,
,,,,,00088,2023-10-25_11h20.47.502,vbt_B1_day3,2022.2.4,Win32,61.74745292,,,,,,,,,,,,,,,,,,,,,,,,,-0.332407386,-0.092592593,1,0,0,,,,,,,,,,,,,,,,
,,,,,00088,2023-10-25_11h20.47.502,vbt_B1_day3,2022.2.4,Win32,61.74745292,,,,,,,,,,,,,,,,,,,,,,,,,,,,,,-0.530555548,-0.050000014,1,0,0,,,,,,,,,,,
,,,,,00088,2023-10-25_11h20.47.502,vbt_B1_day3,2022.2.4,Win32,61.74745292,,,,,,,,,,,,,,,,,,,,gezond,images/br_gezond.png,images/cb_gezond.png,,genog,,,,,,,,,,,-0.530555548,-0.050000014,1,0,0,genog,0,0,0,11,1
,,,,,00088,2023-10-25_11h20.47.502,vbt_B1_day3,2022.2.4,Win32,61.74745292,,,,,,,,,,,,,,,,,,,,laken,images/br_laken.png,images/cb_laken.png,,laken,,,,,,,,,,,-0.530555548,-0.050000014,1,0,0,laken,0,1,1,5,1
,,,,,00088,2023-10-25_11h20.47.502,vbt_B1_day3,2022.2.4,Win32,61.74745292,,,,,,,,,,,,,,,,,,,,dwang,images/br_dwang.png,images/cb_dwang.png,,dw k,,,,,,,,,,,-0.530555548,-0.050000014,1,0,0,dw k,0,2,2,47,1
,,,,,00088,2023-10-25_11h20.47.502,vbt_B1_day3,2022.2.4,Win32,61.74745292,,,,,,,,,,,,,,,,,,,,prikken,images/br_prikken.png,images/cb_prikken.png,,prakken,,,,,,,,,,,-0.530555548,-0.050000014,1,0,0,prakken,0,3,3,12,1
,,,,,00088,2023-10-25_11h20.47.502,vbt_B1_day3,2022.2.4,Win32,61.74745292,,,,,,,,,,,,,,,,,,,,jongelui,images/br_jongelui.png,images/cb_jongelui.png,,jonge,,,,,,,,,,,-0.530555548,-0.050000014,1,0,0,jonge,0,4,4,59,1
,,,,,00088,2023-10-25_11h20.47.502,vbt_B1_day3,2022.2.4,Win32,61.74745292,,,,,,,,,,,,,,,,,,,,keihard,images/br_keihard.png,images/cb_keihard.png,,keihaal,,,,,,,,,,,-0.530555548,-0.050000014,1,0,0,keihaal,0,5,5,14,1
,,,,,00088,2023-10-25_11h20.47.502,vbt_B1_day3,2022.2.4,Win32,61.74745292,,,,,,,,,,,,,,,,,,,,gout,images/br_gout.png,images/cb_gout.png,,gout,,,,,,,,,,,-0.434259238,-0.058333326,1,0,0,gout,0,6,6,20,1
,,,,,00088,2023-10-25_11h20.47.502,vbt_B1_day3,2022.2.4,Win32,61.74745292,,,,,,,,,,,,,,,,,,,,hint,images/br_hint.png,images/cb_hint.png,,gent,,,,,,,,,,,-0.313888868,-0.132407436,1,0,0,gent,0,7,7,43,1
,,,,,00088,2023-10-25_11h20.47.502,vbt_B1_day3,2022.2.4,Win32,61.74745292,,,,,,,,,,,,,,,,,,,,aarzelen,images/br_aarzelen.png,images/cb_aarzelen.png,,aarzelen,,,,,,,,,,,-0.313888868,-0.132407436,1,0,0,aarzelen,0,8,8,19,1
,,,,,00088,2023-10-25_11h20.47.502,vbt_B1_day3,2022.2.4,Win32,61.74745292,,,,,,,,,,,,,,,,,,,,leemaken,images/br_leemaken.png,images/cb_leemaken.png,,leeu,,,,,,,,,,,-0.39166666,-0.143518519,1,0,0,leeu,0,9,9,39,1
,,,,,00088,2023-10-25_11h20.47.502,vbt_B1_day3,2022.2.4,Win32,61.74745292,,,,,,,,,,,,,,,,,,,,eens,images/br_eens.png,images/cb_eens.png,,eens,,,,,,,,,,,-0.383333312,-0.187037079,1,0,0,eens,0,10,10,40,1
,,,,,00088,2023-10-25_11h20.47.502,vbt_B1_day3,2022.2.4,Win32,61.74745292,,,,,,,,,,,,,,,,,,,,verhaal,images/br_verhaal.png,images/cb_verhaal.png,,vekh,,,,,,,,,,,-0.3675926,-0.186111097,1,0,0,vekh,0,11,11,13,1
,,,,,00088,2023-10-25_11h20.47.502,vbt_B1_day3,2022.2.4,Win32,61.74745292,,,,,,,,,,,,,,,,,,,,sluier,images/br_sluier.png,images/cb_sluier.png,,sluier,,,,,,,,,,,-0.3675926,-0.186111097,1,0,0,sluier,0,12,12,50,1
,,,,,00088,2023-10-25_11h20.47.502,vbt_B1_day3,2022.2.4,Win32,61.74745292,,,,,,,,,,,,,,,,,,,,oprotten,images/br_oprotten.png,images/cb_oprotten.png,,oprotten,,,,,,,,,,,-0.355555534,-0.204629616,1,0,0,oprotten,0,13,13,17,1
,,,,,00088,2023-10-25_11h20.47.502,vbt_B1_day3,2022.2.4,Win32,61.74745292,,,,,,,,,,,,,,,,,,,,opzicht,images/br_opzicht.png,images/cb_opzicht.png,,opzicht,,,,,,,,,,,-0.355555534,-0.204629616,1,0,0,opzicht,0,14,14,15,1
,,,,,00088,2023-10-25_11h20.47.502,vbt_B1_day3,2022.2.4,Win32,61.74745292,,,,,,,,,,,,,,,,,,,,onrecht,images/br_onrecht.png,images/cb_onrecht.png,,onricht,,,,,,,,,,,-0.344444452,-0.189814815,1,0,0,onricht,0,15,15,55,1
,,,,,00088,2023-10-25_11h20.47.502,vbt_B1_day3,2022.2.4,Win32,61.74745292,,,,,,,,,,,,,,,,,,,,geluid,images/br_geluid.png,images/cb_geluid.png,,geluid,,,,,,,,,,,-0.344444452,-0.189814815,1,0,0,geluid,0,16,16,10,1
,,,,,00088,2023-10-25_11h20.47.502,vbt_B1_day3,2022.2.4,Win32,61.74745292,,,,,,,,,,,,,,,,,,,,verraden,images/br_verraden.png,images/cb_verraden.png,,veraa,,,,,,,,,,,-0.344444452,-0.189814815,1,0,0,veraa,0,17,17,58,1
,,,,,00088,2023-10-25_11h20.47.502,vbt_B1_day3,2022.2.4,Win32,61.74745292,,,,,,,,,,,,,,,,,,,,boeien,images/br_boeien.png,images/cb_boeien.png,,boeien,,,,,,,,,,,-0.344444452,-0.189814815,1,0,0,boeien,0,18,18,8,1
,,,,,00088,2023-10-25_11h20.47.502,vbt_B1_day3,2022.2.4,Win32,61.74745292,,,,,,,,,,,,,,,,,,,,vlager,images/br_vlager.png,images/cb_vlager.png,,vlager,,,,,,,,,,,-0.375925912,-0.191666709,1,0,0,vlager,0,19,19,28,1
,,,,,00088,2023-10-25_11h20.47.502,vbt_B1_day3,2022.2.4,Win32,61.74745292,,,,,,,,,,,,,,,,,,,,schodel,images/br_schodel.png,images/cb_schodel.png,,scho  l,,,,,,,,,,,-0.322222215,-0.193518533,1,0,0,scho  l,0,20,20,33,1
,,,,,00088,2023-10-25_11h20.47.502,vbt_B1_day3,2022.2.4,Win32,61.74745292,,,,,,,,,,,,,,,,,,,,stallen,images/br_stallen.png,images/cb_stallen.png,,stallen,,,,,,,,,,,-0.322222215,-0.193518533,1,0,0,stallen,0,21,21,52,1
,,,,,00088,2023-10-25_11h20.47.502,vbt_B1_day3,2022.2.4,Win32,61.74745292,,,,,,,,,,,,,,,,,,,,glijden,images/br_glijden.png,images/cb_glijden.png,,glij,,,,,,,,,,,-0.322222215,-0.193518533,1,0,0,glij,0,22,22,53,1
,,,,,00088,2023-10-25_11h20.47.502,vbt_B1_day3,2022.2.4,Win32,61.74745292,,,,,,,,,,,,,,,,,,,,bisschop,images/br_bisschop.png,images/cb_bisschop.png,,bess,,,,,,,,,,,-0.294444402,-0.22129631,1,0,0,bess,0,23,23,16,1
,,,,,00088,2023-10-25_11h20.47.502,vbt_B1_day3,2022.2.4,Win32,61.74745292,,,,,,,,,,,,,,,,,,,,makieren,images/br_makieren.png,images/cb_makieren.png,,urkie,,,,,,,,,,,-0.016666624,-0.19722225,1,0,0,urkie,0,24,24,36,1
,,,,,00088,2023-10-25_11h20.47.502,vbt_B1_day3,2022.2.4,Win32,61.74745292,,,,,,,,,,,,,,,,,,,,uniek,images/br_uniek.png,images/cb_uniek.png,,vneik,,,,,,,,,,,-0.296296296,-0.138888889,1,0,0,vneik,0,25,25,46,1
,,,,,00088,2023-10-25_11h20.47.502,vbt_B1_day3,2022.2.4,Win32,61.74745292,,,,,,,,,,,,,,,,,,,,zone,images/br_zone.png,images/cb_zone.png,,zone,,,,,,,,,,,-0.296296296,-0.138888889,1,0,0,zone,0,26,26,41,1
,,,,,00088,2023-10-25_11h20.47.502,vbt_B1_day3,2022.2.4,Win32,61.74745292,,,,,,,,,,,,,,,,,,,,afbopen,images/br_afbopen.png,images/cb_afbopen.png,,afbop,,,,,,,,,,,-0.298148155,-0.162962949,1,0,0,afbop,0,27,27,34,1
,,,,,00088,2023-10-25_11h20.47.502,vbt_B1_day3,2022.2.4,Win32,61.74745292,,,,,,,,,,,,,,,,,,,,mode,images/br_mode.png,images/cb_mode.png,,uode,,,,,,,,,,,-0.299999979,-0.191666709,1,0,0,uode,0,28,28,3,1
,,,,,00088,2023-10-25_11h20.47.502,vbt_B1_day3,2022.2.4,Win32,61.74745292,,,,,,,,,,,,,,,,,,,,invallen,images/br_invallen.png,images/cb_invallen.png,,enva,,,,,,,,,,,-0.314814815,-0.193518533,1,0,0,enva,0,29,29,57,1
,,,,,00088,2023-10-25_11h20.47.502,vbt_B1_day3,2022.2.4,Win32,61.74745292,,,,,,,,,,,,,,,,,,,,steel,images/br_steel.png,images/cb_steel.png,,steel,,,,,,,,,,,-0.314814815,-0.193518533,1,0,0,steel,0,30,30,4,1
,,,,,00088,2023-10-25_11h20.47.502,vbt_B1_day3,2022.2.4,Win32,61.74745292,,,,,,,,,,,,,,,,,,,,paken,images/br_paken.png,images/cb_paken.png,,paken,,,,,,,,,,,-0.314814815,-0.193518533,1,0,0,paken,0,31,31,27,1
,,,,,00088,2023-10-25_11h20.47.502,vbt_B1_day3,2022.2.4,Win32,61.74745292,,,,,,,,,,,,,,,,,,,,uviek,images/br_uviek.png,images/cb_uviek.png,,uveik,,,,,,,,,,,-0.314814815,-0.193518533,1,0,0,uveik,0,32,32,25,1
,,,,,00088,2023-10-25_11h20.47.502,vbt_B1_day3,2022.2.4,Win32,61.74745292,,,,,,,,,,,,,,,,,,,,begrip,images/br_begrip.png,images/cb_begrip.png,,begrijp,,,,,,,,,,,-0.314814815,-0.193518533,1,0,0,begrijp,0,33,33,48,1
,,,,,00088,2023-10-25_11h20.47.502,vbt_B1_day3,2022.2.4,Win32,61.74745292,,,,,,,,,,,,,,,,,,,,leugeren,images/br_leugeren.png,images/cb_leugeren.png,,levg,,,,,,,,,,,-0.314814815,-0.193518533,1,0,0,levg,0,34,34,37,1
,,,,,00088,2023-10-25_11h20.47.502,vbt_B1_day3,2022.2.4,Win32,61.74745292,,,,,,,,,,,,,,,,,,,,alsof,images/br_alsof.png,images/cb_alsof.png,,als s,,,,,,,,,,,-0.314814815,-0.193518533,1,0,0,als s,0,35,35,44,1
,,,,,00088,2023-10-25_11h20.47.502,vbt_B1_day3,2022.2.4,Win32,61.74745292,,,,,,,,,,,,,,,,,,,,leek,images/br_leek.png,images/cb_leek.png,,leek,,,,,,,,,,,-0.314814815,-0.193518533,1,0,0,leek,0,36,36,2,1
,,,,,00088,2023-10-25_11h20.47.502,vbt_B1_day3,2022.2.4,Win32,61.74745292,,,,,,,,,,,,,,,,,,,,stoom,images/br_stoom.png,images/cb_stoom.png,,stoom,,,,,,,,,,,-0.314814815,-0.193518533,1,0,0,stoom,0,37,37,6,1
,,,,,00088,2023-10-25_11h20.47.502,vbt_B1_day3,2022.2.4,Win32,61.74745292,,,,,,,,,,,,,,,,,,,,gebod,images/br_gebod.png,images/cb_gebod.png,,gebod,,,,,,,,,,,-0.314814815,-0.193518533,1,0,0,gebod,0,38,38,45,1
,,,,,00088,2023-10-25_11h20.47.502,vbt_B1_day3,2022.2.4,Win32,61.74745292,,,,,,,,,,,,,,,,,,,,bevret,images/br_bevret.png,images/cb_bevret.png,,bevret,,,,,,,,,,,-0.328703704,-0.190740727,1,0,0,bevret,0,39,39,30,1
,,,,,00088,2023-10-25_11h20.47.502,vbt_B1_day3,2022.2.4,Win32,61.74745292,,,,,,,,,,,,,,,,,,,,booien,images/br_booien.png,images/cb_booien.png,,booien,,,,,,,,,,,-0.328703704,-0.190740727,1,0,0,booien,0,40,40,31,1
,,,,,00088,2023-10-25_11h20.47.502,vbt_B1_day3,2022.2.4,Win32,61.74745292,,,,,,,,,,,,,,,,,,,,croo,images/br_croo.png,images/cb_croo.png,,croo,,,,,,,,,,,-0.328703704,-0.190740727,1,0,0,croo,0,41,41,22,1
,,,,,00088,2023-10-25_11h20.47.502,vbt_B1_day3,2022.2.4,Win32,61.74745292,,,,,,,,,,,,,,,,,,,,kwaas,images/br_kwaas.png,images/cb_kwaas.png,,kwaas,,,,,,,,,,,-0.328703704,-0.190740727,1,0,0,kwaas,0,42,42,26,1
,,,,,00088,2023-10-25_11h20.47.502,vbt_B1_day3,2022.2.4,Win32,61.74745292,,,,,,,,,,,,,,,,,,,,twaaf,images/br_twaaf.png,images/cb_twaaf.png,,twaaf,,,,,,,,,,,-0.328703704,-0.190740727,1,0,0,twaaf,0,43,43,24,1
,,,,,00088,2023-10-25_11h20.47.502,vbt_B1_day3,2022.2.4,Win32,61.74745292,,,,,,,,,,,,,,,,,,,,beslag,images/br_beslag.png,images/cb_beslag.png,,beslag,,,,,,,,,,,-0.328703704,-0.190740727,1,0,0,beslag,0,44,44,51,1
,,,,,00088,2023-10-25_11h20.47.502,vbt_B1_day3,2022.2.4,Win32,61.74745292,,,,,,,,,,,,,,,,,,,,mugeek,images/br_mugeek.png,images/cb_mugeek.png,,mugeek,,,,,,,,,,,-0.328703704,-0.190740727,1,0,0,mugeek,0,45,45,29,1
,,,,,00088,2023-10-25_11h20.47.502,vbt_B1_day3,2022.2.4,Win32,61.74745292,,,,,,,,,,,,,,,,,,,,verwoor,images/br_verwoor.png,images/cb_verwoor.png,,verhaal,,,,,,,,,,,-0.328703704,-0.190740727,1,0,0,verhaal,0,46,46,32,1
,,,,,00088,2023-10-25_11h20.47.502,vbt_B1_day3,2022.2.4,Win32,61.74745292,,,,,,,,,,,,,,,,,,,,hust,images/br_hust.png,images/cb_hust.png,,g  t,,,,,,,,,,,-0.328703704,-0.190740727,1,0,0,g  t,0,47,47,23,1
,,,,,00088,2023-10-25_11h20.47.502,vbt_B1_day3,2022.2.4,Win32,61.74745292,,,,,,,,,,,,,,,,,,,,hier,images/br_hier.png,images/cb_hier.png,,hier,,,,,,,,,,,-0.328703704,-0.190740727,1,0,0,hier,0,48,48,1,1
,,,,,00088,2023-10-25_11h20.47.502,vbt_B1_day3,2022.2.4,Win32,61.74745292,,,,,,,,,,,,,,,,,,,,opzetten,images/br_opzetten.png,images/cb_opzetten.png,,opzetten,,,,,,,,,,,-0.328703704,-0.190740727,1,0,0,opzetten,0,49,49,56,1
,,,,,00088,2023-10-25_11h20.47.502,vbt_B1_day3,2022.2.4,Win32,61.74745292,,,,,,,,,,,,,,,,,,,,kaas,images/br_kaas.png,images/cb_kaas.png,,kaas,,,,,,,,,,,-0.328703704,-0.190740727,1,0,0,kaas,0,50,50,42,1
,,,,,00088,2023-10-25_11h20.47.502,vbt_B1_day3,2022.2.4,Win32,61.74745292,,,,,,,,,,,,,,,,,,,,kest,images/br_kest.png,images/cb_kest.png,,kest,,,,,,,,,,,-0.328703704,-0.190740727,1,0,0,kest,0,51,51,21,1
,,,,,00088,2023-10-25_11h20.47.502,vbt_B1_day3,2022.2.4,Win32,61.74745292,,,,,,,,,,,,,,,,,,,,sultan,images/br_sultan.png,images/cb_sultan.png,,sultan,,,,,,,,,,,-0.328703704,-0.190740727,1,0,0,sultan,0,52,52,49,1
,,,,,00088,2023-10-25_11h20.47.502,vbt_B1_day3,2022.2.4,Win32,61.74745292,,,,,,,,,,,,,,,,,,,,brappen,images/br_brappen.png,images/cb_brappen.png,,bar,,,,,,,,,,,-0.328703704,-0.190740727,1,0,0,bar,0,53,53,35,1
,,,,,00088,2023-10-25_11h20.47.502,vbt_B1_day3,2022.2.4,Win32,61.74745292,,,,,,,,,,,,,,,,,,,,stikken,images/br_stikken.png,images/cb_stikken.png,,stekken,,,,,,,,,,,-0.328703704,-0.190740727,1,0,0,stekken,0,54,54,54,1
,,,,,00088,2023-10-25_11h20.47.502,vbt_B1_day3,2022.2.4,Win32,61.74745292,,,,,,,,,,,,,,,,,,,,theeting,images/br_theeting.png,images/cb_theeting.png,,thaat,,,,,,,,,,,-0.328703704,-0.190740727,1,0,0,thaat,0,55,55,38,1
,,,,,00088,2023-10-25_11h20.47.502,vbt_B1_day3,2022.2.4,Win32,61.74745292,,,,,,,,,,,,,,,,,,,,samen,images/br_samen.png,images/cb_samen.png,,samen,,,,,,,,,,,-0.328703704,-0.190740727,1,0,0,samen,0,56,56,7,1
,,,,,00088,2023-10-25_11h20.47.502,vbt_B1_day3,2022.2.4,Win32,61.74745292,,,,,,,,,,,,,,,,,,,,schatten,images/br_schatten.png,images/cb_schatten.png,,schatten,,,,,,,,,,,-0.328703704,-0.190740727,1,0,0,schatten,0,57,57,18,1
,,,,,00088,2023-10-25_11h20.47.502,vbt_B1_day3,2022.2.4,Win32,61.74745292,,,,,,,,,,,,,,,,,,,,slapen,images/br_slapen.png,images/cb_slapen.png,,     ,,,,,,,,,,,-0.328703704,-0.190740727,1,0,0,     ,0,58,58,9,1
,,,,,00088,2023-10-25_11h20.47.502,vbt_B1_day3,2022.2.4,Win32,61.74745292,,,,,,,,,,,,,,,,,,,,knie,images/br_knie.png,images/cb_knie.png,,knie,,,,,,,,,,,-0.328703704,-0.190740727,1,0,0,knie,0,59,59,0,1
,,,,,00088,2023-10-25_11h20.47.502,vbt_B1_day3,2022.2.4,Win32,61.74745292,,,,,,,,,,,,,,,,,,,,,,,,,,,,,,,,,,,,,,,,,,,,,
