welcome_mouse.x,welcome_mouse.y,welcome_mouse.leftButton,welcome_mouse.midButton,welcome_mouse.rightButton,"ID",date,expName,psychopyVersion,OS,frameRate,trainInstr_mouse.x,trainInstr_mouse.y,trainInstr_mouse.leftButton,trainInstr_mouse.midButton,trainInstr_mouse.rightButton,translation_key.keys,translation_key.corr,translation_key.rt,word_rsp.text,trWrd_mouse.x,trWrd_mouse.y,trWrd_mouse.leftButton,trWrd_mouse.midButton,trWrd_mouse.rightButton,train_loop.thisRepN,train_loop.thisTrialN,train_loop.thisN,train_loop.thisIndex,train_loop.ran,nlWrd,brWrd,cbWrd,test,testResp,mouse.x,mouse.y,mouse.leftButton,mouse.midButton,mouse.rightButton,testInstr_mouse.x,testInstr_mouse.y,testInstr_mouse.leftButton,testInstr_mouse.midButton,testInstr_mouse.rightButton,test_mouse.x,test_mouse.y,test_mouse.leftButton,test_mouse.midButton,test_mouse.rightButton,test_response.text,test_loop.thisRepN,test_loop.thisTrialN,test_loop.thisN,test_loop.thisIndex,test_loop.ran
-0.022222236,-0.160185213,1,0,0,00087,2023-10-25_16h15.41.350,vbt_B1_day3,2022.2.4,Win32,59.95922773,,,,,,,,,,,,,,,,,,,,,,,,,,,,,,,,,,,,,,,,,,,,,
,,,,,00087,2023-10-25_16h15.41.350,vbt_B1_day3,2022.2.4,Win32,59.95922773,-0.022222236,-0.160185213,1,0,0,,,,,,,,,,,,,,,,,,,,,,,,,,,,,,,,,,,,,,,,
,,,,,00087,2023-10-25_16h15.41.350,vbt_B1_day3,2022.2.4,Win32,59.95922773,,,,,,down,0,0.366,,-0.022222236,-0.160185213,1,0,0,0,0,0,96,1,slagen,images/br_slagen.png,images/cb_slagen.png,0,,,,,,,,,,,,,,,,,,,,,,
,,,,,00087,2023-10-25_16h15.41.350,vbt_B1_day3,2022.2.4,Win32,59.95922773,,,,,,down,0,0.1836,,-0.022222236,-0.160185213,1,0,0,0,1,1,81,1,dubbel,images/br_dubbel.png,images/cb_dubbel.png,0,,,,,,,,,,,,,,,,,,,,,,
,,,,,00087,2023-10-25_16h15.41.350,vbt_B1_day3,2022.2.4,Win32,59.95922773,,,,,,down,0,0.1343,,-0.022222236,-0.160185213,1,0,0,0,2,2,10,1,leek,images/br_leek.png,images/cb_leek.png,0,,,,,,,,,,,,,,,,,,,,,,
,,,,,00087,2023-10-25_16h15.41.350,vbt_B1_day3,2022.2.4,Win32,59.95922773,,,,,,down,0,0.1672,,-0.022222236,-0.160185213,1,0,0,0,3,3,185,1,mijnheer,images/br_mijnheer.png,images/cb_mijnheer.png,0,,,,,,,,,,,,,,,,,,,,,,
,,,,,00087,2023-10-25_16h15.41.350,vbt_B1_day3,2022.2.4,Win32,59.95922773,,,,,,down,0,0.4007,,-0.022222236,-0.160185213,1,0,0,0,4,4,91,1,gezond,images/br_gezond.png,images/cb_gezond.png,0,,,,,,,,,,,,,,,,,,,,,,
,,,,,00087,2023-10-25_16h15.41.350,vbt_B1_day3,2022.2.4,Win32,59.95922773,,,,,,down,0,0.2669,,-0.022222236,-0.160185213,1,0,0,0,5,5,186,1,voorraad,images/br_voorraad.png,images/cb_voorraad.png,0,,,,,,,,,,,,,,,,,,,,,,
,,,,,00087,2023-10-25_16h15.41.350,vbt_B1_day3,2022.2.4,Win32,59.95922773,,,,,,down,0,2.1337,,-0.022222236,-0.160185213,1,0,0,0,6,6,90,1,geluid,images/br_geluid.png,images/cb_geluid.png,0,,,,,,,,,,,,,,,,,,,,,,
,,,,,00087,2023-10-25_16h15.41.350,vbt_B1_day3,2022.2.4,Win32,59.95922773,,,,,,down,0,0.1002,,-0.022222236,-0.160185213,1,0,0,0,7,7,11,1,mode,images/br_mode.png,images/cb_mode.png,0,,,,,,,,,,,,,,,,,,,,,,
,,,,,00087,2023-10-25_16h15.41.350,vbt_B1_day3,2022.2.4,Win32,59.95922773,,,,,,down,0,0.5337,,-0.022222236,-0.160185213,1,0,0,0,8,8,34,1,vorm,images/br_vorm.png,images/cb_vorm.png,0,,,,,,,,,,,,,,,,,,,,,,
,,,,,00087,2023-10-25_16h15.41.350,vbt_B1_day3,2022.2.4,Win32,59.95922773,,,,,,down,0,0.2165,,-0.022222236,-0.160185213,1,0,0,0,9,9,110,1,zuster,images/br_zuster.png,images/cb_zuster.png,0,,,,,,,,,,,,,,,,,,,,,,
,,,,,00087,2023-10-25_16h15.41.350,vbt_B1_day3,2022.2.4,Win32,59.95922773,,,,,,down,0,0.5004,,-0.022222236,-0.160185213,1,0,0,0,10,10,161,1,attentie,images/br_attentie.png,images/cb_attentie.png,0,,,,,,,,,,,,,,,,,,,,,,
,,,,,00087,2023-10-25_16h15.41.350,vbt_B1_day3,2022.2.4,Win32,59.95922773,,,,,,down,0,0.0174,,-0.022222236,-0.160185213,1,0,0,0,11,11,104,1,zweven,images/br_zweven.png,images/cb_zweven.png,0,,,,,,,,,,,,,,,,,,,,,,
,,,,,00087,2023-10-25_16h15.41.350,vbt_B1_day3,2022.2.4,Win32,59.95922773,,,,,,down,0,0.1003,,-0.022222236,-0.160185213,1,0,0,0,12,12,92,1,geheim,images/br_geheim.png,images/cb_geheim.png,0,,,,,,,,,,,,,,,,,,,,,,
,,,,,00087,2023-10-25_16h15.41.350,vbt_B1_day3,2022.2.4,Win32,59.95922773,,,,,,down,0,0.7999,,-0.022222236,-0.160185213,1,0,0,0,13,13,177,1,maaltijd,images/br_maaltijd.png,images/cb_maaltijd.png,0,,,,,,,,,,,,,,,,,,,,,,
,,,,,00087,2023-10-25_16h15.41.350,vbt_B1_day3,2022.2.4,Win32,59.95922773,,,,,,down,0,0.3838,,-0.022222236,-0.160185213,0,0,1,0,14,14,109,1,totaal,images/br_totaal.png,images/cb_totaal.png,0,,,,,,,,,,,,,,,,,,,,,,
,,,,,00087,2023-10-25_16h15.41.350,vbt_B1_day3,2022.2.4,Win32,59.95922773,,,,,,down,0,0.4834,,-0.055555556,-0.133333347,1,0,0,0,15,15,198,1,bedoelen,images/br_bedoelen.png,images/cb_bedoelen.png,0,,,,,,,,,,,,,,,,,,,,,,
,,,,,00087,2023-10-25_16h15.41.350,vbt_B1_day3,2022.2.4,Win32,59.95922773,,,,,,down,0,16.916,,-0.055555556,-0.133333347,1,0,0,0,16,16,52,1,wagon,images/br_wagon.png,images/cb_wagon.png,0,,,,,,,,,,,,,,,,,,,,,,
,,,,,00087,2023-10-25_16h15.41.350,vbt_B1_day3,2022.2.4,Win32,59.95922773,,,,,,down,0,0.0485,,-0.055555556,-0.133333347,1,0,0,0,17,17,116,1,besmet,images/br_besmet.png,images/cb_besmet.png,0,,,,,,,,,,,,,,,,,,,,,,
,,,,,00087,2023-10-25_16h15.41.350,vbt_B1_day3,2022.2.4,Win32,59.95922773,,,,,,down,0,0.2837,,-0.055555556,-0.133333347,1,0,0,0,18,18,49,1,laken,images/br_laken.png,images/cb_laken.png,0,,,,,,,,,,,,,,,,,,,,,,
,,,,,00087,2023-10-25_16h15.41.350,vbt_B1_day3,2022.2.4,Win32,59.95922773,,,,,,down,0,0.8511,,-0.055555556,-0.133333347,1,0,0,0,19,19,132,1,grappen,images/br_grappen.png,images/cb_grappen.png,0,,,,,,,,,,,,,,,,,,,,,,
,,,,,00087,2023-10-25_16h15.41.350,vbt_B1_day3,2022.2.4,Win32,59.95922773,,,,,,down,0,1.6835,,-0.055555556,-0.133333347,1,0,0,0,20,20,175,1,heengaan,images/br_heengaan.png,images/cb_heengaan.png,0,,,,,,,,,,,,,,,,,,,,,,
,,,,,00087,2023-10-25_16h15.41.350,vbt_B1_day3,2022.2.4,Win32,59.95922773,,,,,,down,0,1.9168,,-0.055555556,-0.133333347,1,0,0,0,21,21,57,1,steek,images/br_steek.png,images/cb_steek.png,0,,,,,,,,,,,,,,,,,,,,,,
,,,,,00087,2023-10-25_16h15.41.350,vbt_B1_day3,2022.2.4,Win32,59.95922773,,,,,,down,0,1.5153,,-0.055555556,-0.133333347,1,0,0,0,22,22,66,1,lever,images/br_lever.png,images/cb_lever.png,0,,,,,,,,,,,,,,,,,,,,,,
,,,,,00087,2023-10-25_16h15.41.350,vbt_B1_day3,2022.2.4,Win32,59.95922773,,,,,,down,0,12.4163,,-0.055555556,-0.133333347,1,0,0,0,23,23,141,1,knielen,images/br_knielen.png,images/cb_knielen.png,1,knielen,,,,,,,,,,,,,,,,,,,,,
,,,,,00087,2023-10-25_16h15.41.350,vbt_B1_day3,2022.2.4,Win32,59.95922773,,,,,,down,0,2.0332,,-0.055555556,-0.133333347,1,0,0,0,24,24,114,1,vullen,images/br_vullen.png,images/cb_vullen.png,0,,,,,,,,,,,,,,,,,,,,,,
,,,,,00087,2023-10-25_16h15.41.350,vbt_B1_day3,2022.2.4,Win32,59.95922773,,,,,,down,0,0.5169,,-0.055555556,-0.133333347,1,0,0,0,25,25,118,1,vinger,images/br_vinger.png,images/cb_vinger.png,0,,,,,,,,,,,,,,,,,,,,,,
,,,,,00087,2023-10-25_16h15.41.350,vbt_B1_day3,2022.2.4,Win32,59.95922773,,,,,,down,0,1.8835,,-0.055555556,-0.133333347,1,0,0,0,26,26,166,1,strikken,images/br_strikken.png,images/cb_strikken.png,0,,,,,,,,,,,,,,,,,,,,,,
,,,,,00087,2023-10-25_16h15.41.350,vbt_B1_day3,2022.2.4,Win32,59.95922773,,,,,,down,0,1.0669,,-0.055555556,-0.133333347,1,0,0,0,27,27,147,1,komisch,images/br_komisch.png,images/cb_komisch.png,0,,,,,,,,,,,,,,,,,,,,,,
,,,,,00087,2023-10-25_16h15.41.350,vbt_B1_day3,2022.2.4,Win32,59.95922773,,,,,,down,0,1.5332,,-0.055555556,-0.133333347,1,0,0,0,28,28,99,1,koffie,images/br_koffie.png,images/cb_koffie.png,0,,,,,,,,,,,,,,,,,,,,,,
,,,,,00087,2023-10-25_16h15.41.350,vbt_B1_day3,2022.2.4,Win32,59.95922773,,,,,,down,0,1.7336,,-0.055555556,-0.133333347,1,0,0,0,29,29,105,1,wijlen,images/br_wijlen.png,images/cb_wijlen.png,0,,,,,,,,,,,,,,,,,,,,,,
,,,,,00087,2023-10-25_16h15.41.350,vbt_B1_day3,2022.2.4,Win32,59.95922773,,,,,,down,0,0.2,,-0.055555556,-0.133333347,1,0,0,0,30,30,44,1,flits,images/br_flits.png,images/cb_flits.png,0,,,,,,,,,,,,,,,,,,,,,,
,,,,,00087,2023-10-25_16h15.41.350,vbt_B1_day3,2022.2.4,Win32,59.95922773,,,,,,down,0,0.3498,,-0.055555556,-0.133333347,1,0,0,0,31,31,129,1,verhaal,images/br_verhaal.png,images/cb_verhaal.png,0,,,,,,,,,,,,,,,,,,,,,,
,,,,,00087,2023-10-25_16h15.41.350,vbt_B1_day3,2022.2.4,Win32,59.95922773,,,,,,down,0,4.7838,,-0.055555556,-0.133333347,1,0,0,0,32,32,181,1,toegeven,images/br_toegeven.png,images/cb_toegeven.png,1,toegeven,,,,,,,,,,,,,,,,,,,,,
,,,,,00087,2023-10-25_16h15.41.350,vbt_B1_day3,2022.2.4,Win32,59.95922773,,,,,,down,0,0.5498,,-0.055555556,-0.133333347,1,0,0,0,33,33,32,1,palm,images/br_palm.png,images/cb_palm.png,0,,,,,,,,,,,,,,,,,,,,,,
,,,,,00087,2023-10-25_16h15.41.350,vbt_B1_day3,2022.2.4,Win32,59.95922773,,,,,,down,0,0.7335,,-0.055555556,-0.133333347,1,0,0,0,34,34,192,1,schaamte,images/br_schaamte.png,images/cb_schaamte.png,0,,,,,,,,,,,,,,,,,,,,,,
,,,,,00087,2023-10-25_16h15.41.350,vbt_B1_day3,2022.2.4,Win32,59.95922773,,,,,,down,0,4.6667,,-0.055555556,-0.133333347,1,0,0,0,35,35,22,1,stof,images/br_stof.png,images/cb_stof.png,1,stof,,,,,,,,,,,,,,,,,,,,,
,,,,,00087,2023-10-25_16h15.41.350,vbt_B1_day3,2022.2.4,Win32,59.95922773,,,,,,down,0,0.9008,,-0.055555556,-0.133333347,1,0,0,0,36,36,93,1,waarop,images/br_waarop.png,images/cb_waarop.png,0,,,,,,,,,,,,,,,,,,,,,,
,,,,,00087,2023-10-25_16h15.41.350,vbt_B1_day3,2022.2.4,Win32,59.95922773,,,,,,down,0,2.2503,,-0.055555556,-0.133333347,1,0,0,0,37,37,65,1,parel,images/br_parel.png,images/cb_parel.png,0,,,,,,,,,,,,,,,,,,,,,,
,,,,,00087,2023-10-25_16h15.41.350,vbt_B1_day3,2022.2.4,Win32,59.95922773,,,,,,down,0,2.7343,,-0.055555556,-0.133333347,1,0,0,0,38,38,164,1,anarchie,images/br_anarchie.png,images/cb_anarchie.png,0,,,,,,,,,,,,,,,,,,,,,,
,,,,,00087,2023-10-25_16h15.41.350,vbt_B1_day3,2022.2.4,Win32,59.95922773,,,,,,down,0,0.7836,,-0.055555556,-0.133333347,1,0,0,0,39,39,3,1,mand,images/br_mand.png,images/cb_mand.png,0,,,,,,,,,,,,,,,,,,,,,,
,,,,,00087,2023-10-25_16h15.41.350,vbt_B1_day3,2022.2.4,Win32,59.95922773,,,,,,down,0,0.5662,,-0.055555556,-0.133333347,1,0,0,0,40,40,17,1,taal,images/br_taal.png,images/cb_taal.png,0,,,,,,,,,,,,,,,,,,,,,,
,,,,,00087,2023-10-25_16h15.41.350,vbt_B1_day3,2022.2.4,Win32,59.95922773,,,,,,down,0,19.8159,,0.57222225,0.197222215,1,0,0,0,41,41,124,1,bloeien,images/br_bloeien.png,images/cb_bloeien.png,0,,,,,,,,,,,,,,,,,,,,,,
,,,,,00087,2023-10-25_16h15.41.350,vbt_B1_day3,2022.2.4,Win32,59.95922773,,,,,,down,0,11.1995,,0.57222225,0.197222215,1,0,0,0,42,42,134,1,geliefd,images/br_geliefd.png,images/cb_geliefd.png,0,,,,,,,,,,,,,,,,,,,,,,
,,,,,00087,2023-10-25_16h15.41.350,vbt_B1_day3,2022.2.4,Win32,59.95922773,,,,,,down,0,10.6165,,0.57222225,0.197222215,1,0,0,0,43,43,41,1,maken,images/br_maken.png,images/cb_maken.png,0,,,,,,,,,,,,,,,,,,,,,,
,,,,,00087,2023-10-25_16h15.41.350,vbt_B1_day3,2022.2.4,Win32,59.95922773,,,,,,down,0,1.0496,,0.57222225,0.197222215,1,0,0,0,44,44,173,1,apparaat,images/br_apparaat.png,images/cb_apparaat.png,0,,,,,,,,,,,,,,,,,,,,,,
,,,,,00087,2023-10-25_16h15.41.350,vbt_B1_day3,2022.2.4,Win32,59.95922773,,,,,,down,0,1.6839,,0.57222225,0.197222215,1,0,0,0,45,45,122,1,waarvan,images/br_waarvan.png,images/cb_waarvan.png,0,,,,,,,,,,,,,,,,,,,,,,
,,,,,00087,2023-10-25_16h15.41.350,vbt_B1_day3,2022.2.4,Win32,59.95922773,,,,,,down,0,0.0331,,0.57222225,0.197222215,1,0,0,0,46,46,130,1,keihard,images/br_keihard.png,images/cb_keihard.png,0,,,,,,,,,,,,,,,,,,,,,,
,,,,,00087,2023-10-25_16h15.41.350,vbt_B1_day3,2022.2.4,Win32,59.95922773,,,,,,down,0,0.6658,,0.57222225,0.197222215,1,0,0,0,47,47,149,1,redding,images/br_redding.png,images/cb_redding.png,0,,,,,,,,,,,,,,,,,,,,,,
,,,,,00087,2023-10-25_16h15.41.350,vbt_B1_day3,2022.2.4,Win32,59.95922773,,,,,,down,0,0.6336,,0.57222225,0.197222215,1,0,0,0,48,48,176,1,techniek,images/br_techniek.png,images/cb_techniek.png,0,,,,,,,,,,,,,,,,,,,,,,
,,,,,00087,2023-10-25_16h15.41.350,vbt_B1_day3,2022.2.4,Win32,59.95922773,,,,,,down,0,1.1003,,0.57222225,0.197222215,1,0,0,0,49,49,95,1,vreten,images/br_vreten.png,images/cb_vreten.png,0,,,,,,,,,,,,,,,,,,,,,,
,,,,,00087,2023-10-25_16h15.41.350,vbt_B1_day3,2022.2.4,Win32,59.95922773,,,,,,down,0,1.2165,,0.57222225,0.197222215,1,0,0,0,50,50,40,1,schep,images/br_schep.png,images/cb_schep.png,0,,,,,,,,,,,,,,,,,,,,,,
,,,,,00087,2023-10-25_16h15.41.350,vbt_B1_day3,2022.2.4,Win32,59.95922773,,,,,,down,0,2.3156,,0.012037065,-0.09629631,1,0,0,0,51,51,55,1,praat,images/br_praat.png,images/cb_praat.png,0,,,,,,,,,,,,,,,,,,,,,,
,,,,,00087,2023-10-25_16h15.41.350,vbt_B1_day3,2022.2.4,Win32,59.95922773,,,,,,down,0,1.6,,0.012037065,-0.09629631,1,0,0,0,52,52,2,1,jaar,images/br_jaar.png,images/cb_jaar.png,0,,,,,,,,,,,,,,,,,,,,,,
,,,,,00087,2023-10-25_16h15.41.350,vbt_B1_day3,2022.2.4,Win32,59.95922773,,,,,,down,0,1.0321,,0.012037065,-0.09629631,1,0,0,0,53,53,126,1,kasteel,images/br_kasteel.png,images/cb_kasteel.png,0,,,,,,,,,,,,,,,,,,,,,,
,,,,,00087,2023-10-25_16h15.41.350,vbt_B1_day3,2022.2.4,Win32,59.95922773,,,,,,down,0,2.2177,,0.013888889,-0.075000021,1,0,0,0,54,54,106,1,zingen,images/br_zingen.png,images/cb_zingen.png,0,,,,,,,,,,,,,,,,,,,,,,
,,,,,00087,2023-10-25_16h15.41.350,vbt_B1_day3,2022.2.4,Win32,59.95922773,,,,,,down,0,1.1676,,0.013888889,-0.075000021,1,0,0,0,55,55,59,1,kring,images/br_kring.png,images/cb_kring.png,0,,,,,,,,,,,,,,,,,,,,,,
,,,,,00087,2023-10-25_16h15.41.350,vbt_B1_day3,2022.2.4,Win32,59.95922773,,,,,,down,0,1.1502,,0.013888889,-0.075000021,1,0,0,0,56,56,71,1,bever,images/br_bever.png,images/cb_bever.png,0,,,,,,,,,,,,,,,,,,,,,,
,,,,,00087,2023-10-25_16h15.41.350,vbt_B1_day3,2022.2.4,Win32,59.95922773,,,,,,down,0,0.5504,,0.000925912,-0.266666695,1,0,0,0,57,57,72,1,strak,images/br_strak.png,images/cb_strak.png,0,,,,,,,,,,,,,,,,,,,,,,
,,,,,00087,2023-10-25_16h15.41.350,vbt_B1_day3,2022.2.4,Win32,59.95922773,,,,,,down,0,0.9826,,0.000925912,-0.266666695,1,0,0,0,58,58,108,1,excuus,images/br_excuus.png,images/cb_excuus.png,0,,,,,,,,,,,,,,,,,,,,,,
,,,,,00087,2023-10-25_16h15.41.350,vbt_B1_day3,2022.2.4,Win32,59.95922773,,,,,,down,0,1.3487,,0.000925912,-0.266666695,1,0,0,0,59,59,160,1,daarheen,images/br_daarheen.png,images/cb_daarheen.png,0,,,,,,,,,,,,,,,,,,,,,,
,,,,,00087,2023-10-25_16h15.41.350,vbt_B1_day3,2022.2.4,Win32,59.95922773,,,,,,down,0,14.7007,,0.000925912,-0.266666695,1,0,0,0,60,60,21,1,mist,images/br_mist.png,images/cb_mist.png,1,mist,,,,,,,,,,,,,,,,,,,,,
,,,,,00087,2023-10-25_16h15.41.350,vbt_B1_day3,2022.2.4,Win32,59.95922773,,,,,,down,0,2.598,,0.000925912,-0.266666695,1,0,0,0,61,61,0,1,slak,images/br_slak.png,images/cb_slak.png,0,,,,,,,,,,,,,,,,,,,,,,
,,,,,00087,2023-10-25_16h15.41.350,vbt_B1_day3,2022.2.4,Win32,59.95922773,,,,,,down,0,0.35,,0.000925912,-0.266666695,1,0,0,0,62,62,7,1,geld,images/br_geld.png,images/cb_geld.png,0,,,,,,,,,,,,,,,,,,,,,,
,,,,,00087,2023-10-25_16h15.41.350,vbt_B1_day3,2022.2.4,Win32,59.95922773,,,,,,down,0,1.2834,,0.000925912,-0.266666695,1,0,0,0,63,63,53,1,baron,images/br_baron.png,images/cb_baron.png,0,,,,,,,,,,,,,,,,,,,,,,
,,,,,00087,2023-10-25_16h15.41.350,vbt_B1_day3,2022.2.4,Win32,59.95922773,,,,,,down,0,18.3322,,-0.142592607,-0.286111125,1,0,0,0,64,64,60,1,jasje,images/br_jasje.png,images/cb_jasje.png,1,jasje,,,,,,,,,,,,,,,,,,,,,
,,,,,00087,2023-10-25_16h15.41.350,vbt_B1_day3,2022.2.4,Win32,59.95922773,,,,,,down,0,3.3675,,-0.142592607,-0.286111125,1,0,0,0,65,65,79,1,nodig,images/br_nodig.png,images/cb_nodig.png,0,,,,,,,,,,,,,,,,,,,,,,
,,,,,00087,2023-10-25_16h15.41.350,vbt_B1_day3,2022.2.4,Win32,59.95922773,,,,,,down,0,0.8507,,-0.142592607,-0.286111125,1,0,0,0,66,66,128,1,prikken,images/br_prikken.png,images/cb_prikken.png,0,,,,,,,,,,,,,,,,,,,,,,
,,,,,00087,2023-10-25_16h15.41.350,vbt_B1_day3,2022.2.4,Win32,59.95922773,,,,,,down,0,3.7669,,-0.142592607,-0.286111125,1,0,0,0,67,67,194,1,driemaal,images/br_driemaal.png,images/cb_driemaal.png,0,,,,,,,,,,,,,,,,,,,,,,
,,,,,00087,2023-10-25_16h15.41.350,vbt_B1_day3,2022.2.4,Win32,59.95922773,,,,,,down,0,0.2839,,-0.142592607,-0.286111125,1,0,0,0,68,68,150,1,gegeven,images/br_gegeven.png,images/cb_gegeven.png,0,,,,,,,,,,,,,,,,,,,,,,
,,,,,00087,2023-10-25_16h15.41.350,vbt_B1_day3,2022.2.4,Win32,59.95922773,,,,,,down,0,5.3903,,-0.142592607,-0.286111125,1,0,0,0,69,69,25,1,plek,images/br_plek.png,images/cb_plek.png,0,,,,,,,,,,,,,,,,,,,,,,
,,,,,00087,2023-10-25_16h15.41.350,vbt_B1_day3,2022.2.4,Win32,59.95922773,,,,,,down,0,0.6647,,-0.142592607,-0.286111125,1,0,0,0,70,70,171,1,aarzelen,images/br_aarzelen.png,images/cb_aarzelen.png,0,,,,,,,,,,,,,,,,,,,,,,
,,,,,00087,2023-10-25_16h15.41.350,vbt_B1_day3,2022.2.4,Win32,59.95922773,,,,,,down,0,3.7203,,-0.142592607,-0.286111125,1,0,0,0,71,71,42,1,bleek,images/br_bleek.png,images/cb_bleek.png,0,,,,,,,,,,,,,,,,,,,,,,
,,,,,00087,2023-10-25_16h15.41.350,vbt_B1_day3,2022.2.4,Win32,59.95922773,,,,,,down,0,30.3858,,-0.142592607,-0.286111125,1,0,0,0,72,72,182,1,bijkomen,images/br_bijkomen.png,images/cb_bijkomen.png,1,bijkomen,,,,,,,,,,,,,,,,,,,,,
,,,,,00087,2023-10-25_16h15.41.350,vbt_B1_day3,2022.2.4,Win32,59.95922773,,,,,,down,0,0.2507,,-0.142592607,-0.286111125,1,0,0,0,73,73,137,1,trekker,images/br_trekker.png,images/cb_trekker.png,0,,,,,,,,,,,,,,,,,,,,,,
,,,,,00087,2023-10-25_16h15.41.350,vbt_B1_day3,2022.2.4,Win32,59.95922773,,,,,,down,0,1.3169,,0.037962949,-0.034259266,1,0,0,0,74,74,38,1,baai,images/br_baai.png,images/cb_baai.png,0,,,,,,,,,,,,,,,,,,,,,,
,,,,,00087,2023-10-25_16h15.41.350,vbt_B1_day3,2022.2.4,Win32,59.95922773,,,,,,down,0,1.5,,0.037962949,-0.034259266,1,0,0,0,75,75,4,1,moes,images/br_moes.png,images/cb_moes.png,0,,,,,,,,,,,,,,,,,,,,,,
,,,,,00087,2023-10-25_16h15.41.350,vbt_B1_day3,2022.2.4,Win32,59.95922773,,,,,,down,0,0.1168,,0.471296381,0.015740748,1,0,0,0,76,76,87,1,toeval,images/br_toeval.png,images/cb_toeval.png,0,,,,,,,,,,,,,,,,,,,,,,
,,,,,00087,2023-10-25_16h15.41.350,vbt_B1_day3,2022.2.4,Win32,59.95922773,,,,,,down,0,2.7158,,0.471296381,0.015740748,1,0,0,0,77,77,8,1,knie,images/br_knie.png,images/cb_knie.png,0,,,,,,,,,,,,,,,,,,,,,,
,,,,,00087,2023-10-25_16h15.41.350,vbt_B1_day3,2022.2.4,Win32,59.95922773,,,,,,down,0,0.8167,,0.471296381,0.015740748,1,0,0,0,78,78,154,1,aflopen,images/br_aflopen.png,images/cb_aflopen.png,0,,,,,,,,,,,,,,,,,,,,,,
,,,,,00087,2023-10-25_16h15.41.350,vbt_B1_day3,2022.2.4,Win32,59.95922773,,,,,,down,0,0.6336,,0.471296381,0.015740748,1,0,0,0,79,79,1,1,zaal,images/br_zaal.png,images/cb_zaal.png,0,,,,,,,,,,,,,,,,,,,,,,
,,,,,00087,2023-10-25_16h15.41.350,vbt_B1_day3,2022.2.4,Win32,59.95922773,,,,,,down,0,0.804,,0.471296381,0.015740748,1,0,0,0,80,80,112,1,lukken,images/br_lukken.png,images/cb_lukken.png,0,,,,,,,,,,,,,,,,,,,,,,
,,,,,00087,2023-10-25_16h15.41.350,vbt_B1_day3,2022.2.4,Win32,59.95922773,,,,,,down,0,1.1669,,0.471296381,0.015740748,1,0,0,0,81,81,47,1,kabel,images/br_kabel.png,images/cb_kabel.png,0,,,,,,,,,,,,,,,,,,,,,,
,,,,,00087,2023-10-25_16h15.41.350,vbt_B1_day3,2022.2.4,Win32,59.95922773,,,,,,down,0,5.8205,,0.471296381,0.015740748,1,0,0,0,82,82,158,1,innemen,images/br_innemen.png,images/cb_innemen.png,0,,,,,,,,,,,,,,,,,,,,,,
,,,,,00087,2023-10-25_16h15.41.350,vbt_B1_day3,2022.2.4,Win32,59.95922773,,,,,,down,0,0.8005,,0.471296381,0.015740748,1,0,0,0,83,83,74,1,graaf,images/br_graaf.png,images/cb_graaf.png,0,,,,,,,,,,,,,,,,,,,,,,
,,,,,00087,2023-10-25_16h15.41.350,vbt_B1_day3,2022.2.4,Win32,59.95922773,,,,,,down,0,24.755,,-0.000925912,-0.286111125,1,0,0,0,84,84,143,1,hechten,images/br_hechten.png,images/cb_hechten.png,1,hechten,,,,,,,,,,,,,,,,,,,,,
,,,,,00087,2023-10-25_16h15.41.350,vbt_B1_day3,2022.2.4,Win32,59.95922773,,,,,,down,0,8.8498,,-0.000925912,-0.286111125,1,0,0,0,85,85,76,1,afval,images/br_afval.png,images/cb_afval.png,0,,,,,,,,,,,,,,,,,,,,,,
,,,,,00087,2023-10-25_16h15.41.350,vbt_B1_day3,2022.2.4,Win32,59.95922773,,,,,,down,0,0.4504,,-0.000925912,-0.286111125,1,0,0,0,86,86,98,1,kreeft,images/br_kreeft.png,images/cb_kreeft.png,0,,,,,,,,,,,,,,,,,,,,,,
,,,,,00087,2023-10-25_16h15.41.350,vbt_B1_day3,2022.2.4,Win32,59.95922773,,,,,,down,0,0.0341,,-0.000925912,-0.286111125,1,0,0,0,87,87,82,1,muziek,images/br_muziek.png,images/cb_muziek.png,0,,,,,,,,,,,,,,,,,,,,,,
,,,,,00087,2023-10-25_16h15.41.350,vbt_B1_day3,2022.2.4,Win32,59.95922773,,,,,,down,0,10.0169,,-0.000925912,-0.286111125,1,0,0,0,88,88,191,1,opheffen,images/br_opheffen.png,images/cb_opheffen.png,0,,,,,,,,,,,,,,,,,,,,,,
,,,,,00087,2023-10-25_16h15.41.350,vbt_B1_day3,2022.2.4,Win32,59.95922773,,,,,,down,0,1.1632,,-0.000925912,-0.286111125,1,0,0,0,89,89,170,1,schatten,images/br_schatten.png,images/cb_schatten.png,0,,,,,,,,,,,,,,,,,,,,,,
,,,,,00087,2023-10-25_16h15.41.350,vbt_B1_day3,2022.2.4,Win32,59.95922773,,,,,,down,0,0.3005,,0.00462963,-0.070370392,1,0,0,0,90,90,136,1,waarbij,images/br_waarbij.png,images/cb_waarbij.png,0,,,,,,,,,,,,,,,,,,,,,,
,,,,,00087,2023-10-25_16h15.41.350,vbt_B1_day3,2022.2.4,Win32,59.95922773,,,,,,down,0,0.0004,,0.00462963,-0.070370392,1,0,0,0,91,91,117,1,kennis,images/br_kennis.png,images/cb_kennis.png,0,,,,,,,,,,,,,,,,,,,,,,
,,,,,00087,2023-10-25_16h15.41.350,vbt_B1_day3,2022.2.4,Win32,59.95922773,,,,,,down,0,1.0336,,0.00462963,-0.070370392,1,0,0,0,92,92,26,1,leuk,images/br_leuk.png,images/cb_leuk.png,0,,,,,,,,,,,,,,,,,,,,,,
,,,,,00087,2023-10-25_16h15.41.350,vbt_B1_day3,2022.2.4,Win32,59.95922773,,,,,,down,0,2.0342,,-0.008333347,-0.116666653,1,0,0,0,93,93,102,1,legaal,images/br_legaal.png,images/cb_legaal.png,1,legaal,,,,,,,,,,,,,,,,,,,,,
,,,,,00087,2023-10-25_16h15.41.350,vbt_B1_day3,2022.2.4,Win32,59.95922773,,,,,,down,0,0.1862,,-0.008333347,-0.116666653,1,0,0,0,94,94,77,1,woede,images/br_woede.png,images/cb_woede.png,0,,,,,,,,,,,,,,,,,,,,,,
,,,,,00087,2023-10-25_16h15.41.350,vbt_B1_day3,2022.2.4,Win32,59.95922773,,,,,,down,0,15.6281,,-0.008333347,-0.116666653,1,0,0,0,95,95,174,1,stemming,images/br_stemming.png,images/cb_stemming.png,0,,,,,,,,,,,,,,,,,,,,,,
,,,,,00087,2023-10-25_16h15.41.350,vbt_B1_day3,2022.2.4,Win32,59.95922773,,,,,,down,0,0.5275,,-0.008333347,-0.116666653,1,0,0,0,96,96,75,1,snoep,images/br_snoep.png,images/cb_snoep.png,0,,,,,,,,,,,,,,,,,,,,,,
,,,,,00087,2023-10-25_16h15.41.350,vbt_B1_day3,2022.2.4,Win32,59.95922773,,,,,,down,0,0.5211,,-0.008333347,-0.116666653,1,0,0,0,97,97,125,1,aanzien,images/br_aanzien.png,images/cb_aanzien.png,0,,,,,,,,,,,,,,,,,,,,,,
,,,,,00087,2023-10-25_16h15.41.350,vbt_B1_day3,2022.2.4,Win32,59.95922773,,,,,,down,0,0.3732,,-0.008333347,-0.116666653,1,0,0,0,98,98,48,1,steel,images/br_steel.png,images/cb_steel.png,0,,,,,,,,,,,,,,,,,,,,,,
,,,,,00087,2023-10-25_16h15.41.350,vbt_B1_day3,2022.2.4,Win32,59.95922773,,,,,,down,0,4.8074,,-0.008333347,-0.116666653,1,0,0,0,99,99,45,1,piste,images/br_piste.png,images/cb_piste.png,0,,,,,,,,,,,,,,,,,,,,,,
,,,,,00087,2023-10-25_16h15.41.350,vbt_B1_day3,2022.2.4,Win32,59.95922773,,,,,,down,0,2.7401,,-0.008333347,-0.116666653,1,0,0,0,100,100,30,1,uien,images/br_uien.png,images/cb_uien.png,0,,,,,,,,,,,,,,,,,,,,,,
,,,,,00087,2023-10-25_16h15.41.350,vbt_B1_day3,2022.2.4,Win32,59.95922773,,,,,,down,0,0.3766,,-0.008333347,-0.116666653,1,0,0,0,101,101,83,1,mening,images/br_mening.png,images/cb_mening.png,0,,,,,,,,,,,,,,,,,,,,,,
,,,,,00087,2023-10-25_16h15.41.350,vbt_B1_day3,2022.2.4,Win32,59.95922773,,,,,,down,0,1.0053,,-0.008333347,-0.116666653,1,0,0,0,102,102,78,1,leren,images/br_leren.png,images/cb_leren.png,0,,,,,,,,,,,,,,,,,,,,,,
,,,,,00087,2023-10-25_16h15.41.350,vbt_B1_day3,2022.2.4,Win32,59.95922773,,,,,,down,0,3.5368,,-0.008333347,-0.116666653,1,0,0,0,103,103,101,1,staren,images/br_staren.png,images/cb_staren.png,1,staren,,,,,,,,,,,,,,,,,,,,,
,,,,,00087,2023-10-25_16h15.41.350,vbt_B1_day3,2022.2.4,Win32,59.95922773,,,,,,down,0,10.3812,,-0.008333347,-0.116666653,1,0,0,0,104,104,183,1,getuigen,images/br_getuigen.png,images/cb_getuigen.png,1,getuigen,,,,,,,,,,,,,,,,,,,,,
,,,,,00087,2023-10-25_16h15.41.350,vbt_B1_day3,2022.2.4,Win32,59.95922773,,,,,,down,0,0.3113,,-0.008333347,-0.116666653,1,0,0,0,105,105,67,1,zwart,images/br_zwart.png,images/cb_zwart.png,0,,,,,,,,,,,,,,,,,,,,,,
,,,,,00087,2023-10-25_16h15.41.350,vbt_B1_day3,2022.2.4,Win32,59.95922773,,,,,,down,0,0.1023,,-0.008333347,-0.116666653,1,0,0,0,106,106,35,1,lust,images/br_lust.png,images/cb_lust.png,0,,,,,,,,,,,,,,,,,,,,,,
,,,,,00087,2023-10-25_16h15.41.350,vbt_B1_day3,2022.2.4,Win32,59.95922773,,,,,,down,0,0.8762,,-0.008333347,-0.116666653,1,0,0,0,107,107,14,1,rijp,images/br_rijp.png,images/cb_rijp.png,0,,,,,,,,,,,,,,,,,,,,,,
,,,,,00087,2023-10-25_16h15.41.350,vbt_B1_day3,2022.2.4,Win32,59.95922773,,,,,,down,0,2.7971,,-0.008333347,-0.116666653,1,0,0,0,108,108,100,1,geduld,images/br_geduld.png,images/cb_geduld.png,1,geduld,,,,,,,,,,,,,,,,,,,,,
,,,,,00087,2023-10-25_16h15.41.350,vbt_B1_day3,2022.2.4,Win32,59.95922773,,,,,,down,0,1.3902,,-0.008333347,-0.116666653,1,0,0,0,109,109,107,1,maling,images/br_maling.png,images/cb_maling.png,0,,,,,,,,,,,,,,,,,,,,,,
,,,,,00087,2023-10-25_16h15.41.350,vbt_B1_day3,2022.2.4,Win32,59.95922773,,,,,,down,0,0.124,,-0.008333347,-0.116666653,1,0,0,0,110,110,39,1,laag,images/br_laag.png,images/cb_laag.png,0,,,,,,,,,,,,,,,,,,,,,,
,,,,,00087,2023-10-25_16h15.41.350,vbt_B1_day3,2022.2.4,Win32,59.95922773,,,,,,down,0,0.9596,,-0.008333347,-0.116666653,1,0,0,0,111,111,12,1,kust,images/br_kust.png,images/cb_kust.png,0,,,,,,,,,,,,,,,,,,,,,,
,,,,,00087,2023-10-25_16h15.41.350,vbt_B1_day3,2022.2.4,Win32,59.95922773,,,,,,down,0,1.5958,,0.050925926,-0.10092594,1,0,0,0,112,112,61,1,groen,images/br_groen.png,images/cb_groen.png,1,groen,,,,,,,,,,,,,,,,,,,,,
,,,,,00087,2023-10-25_16h15.41.350,vbt_B1_day3,2022.2.4,Win32,59.95922773,,,,,,down,0,0.5188,,0.050925926,-0.10092594,1,0,0,0,113,113,16,1,ziek,images/br_ziek.png,images/cb_ziek.png,0,,,,,,,,,,,,,,,,,,,,,,
,,,,,00087,2023-10-25_16h15.41.350,vbt_B1_day3,2022.2.4,Win32,59.95922773,,,,,,down,0,0.0592,,0.050925926,-0.10092594,1,0,0,0,114,114,70,1,ijdel,images/br_ijdel.png,images/cb_ijdel.png,0,,,,,,,,,,,,,,,,,,,,,,
,,,,,00087,2023-10-25_16h15.41.350,vbt_B1_day3,2022.2.4,Win32,59.95922773,,,,,,down,0,2.5162,,0.050925926,-0.10092594,1,0,0,0,115,115,19,1,geit,images/br_geit.png,images/cb_geit.png,0,,,,,,,,,,,,,,,,,,,,,,
,,,,,00087,2023-10-25_16h15.41.350,vbt_B1_day3,2022.2.4,Win32,59.95922773,,,,,,down,0,14.5257,,0.050925926,-0.10092594,1,0,0,0,116,116,103,1,joggen,images/br_joggen.png,images/cb_joggen.png,1,.oggen,,,,,,,,,,,,,,,,,,,,,
,,,,,00087,2023-10-25_16h15.41.350,vbt_B1_day3,2022.2.4,Win32,59.95922773,,,,,,down,0,2.6108,,0.050925926,-0.10092594,1,0,0,0,117,117,89,1,slapen,images/br_slapen.png,images/cb_slapen.png,0,,,,,,,,,,,,,,,,,,,,,,
,,,,,00087,2023-10-25_16h15.41.350,vbt_B1_day3,2022.2.4,Win32,59.95922773,,,,,,down,0,1.0704,,0.050925926,-0.10092594,1,0,0,0,118,118,189,1,aanraden,images/br_aanraden.png,images/cb_aanraden.png,0,,,,,,,,,,,,,,,,,,,,,,
,,,,,00087,2023-10-25_16h15.41.350,vbt_B1_day3,2022.2.4,Win32,59.95922773,,,,,,down,0,2.0773,,0.050925926,-0.10092594,1,0,0,0,119,119,197,1,spanning,images/br_spanning.png,images/cb_spanning.png,0,,,,,,,,,,,,,,,,,,,,,,
,,,,,00087,2023-10-25_16h15.41.350,vbt_B1_day3,2022.2.4,Win32,59.95922773,,,,,,down,0,1.8323,,0.050925926,-0.10092594,0,0,1,0,120,120,145,1,invloed,images/br_invloed.png,images/cb_invloed.png,0,,,,,,,,,,,,,,,,,,,,,,
,,,,,00087,2023-10-25_16h15.41.350,vbt_B1_day3,2022.2.4,Win32,59.95922773,,,,,,down,0,1.9012,,0.020370413,-0.14907406,1,0,0,0,121,121,184,1,aandelen,images/br_aandelen.png,images/cb_aandelen.png,0,,,,,,,,,,,,,,,,,,,,,,
,,,,,00087,2023-10-25_16h15.41.350,vbt_B1_day3,2022.2.4,Win32,59.95922773,,,,,,down,0,1.7004,,-0.002777735,-0.141666695,1,0,0,0,122,122,115,1,kleren,images/br_kleren.png,images/cb_kleren.png,0,,,,,,,,,,,,,,,,,,,,,,
,,,,,00087,2023-10-25_16h15.41.350,vbt_B1_day3,2022.2.4,Win32,59.95922773,,,,,,down,0,2.1675,,-0.002777735,-0.141666695,1,0,0,0,123,123,68,1,schat,images/br_schat.png,images/cb_schat.png,0,,,,,,,,,,,,,,,,,,,,,,
,,,,,00087,2023-10-25_16h15.41.350,vbt_B1_day3,2022.2.4,Win32,59.95922773,,,,,,down,0,1.6169,,-0.002777735,-0.141666695,1,0,0,0,124,124,178,1,huisdier,images/br_huisdier.png,images/cb_huisdier.png,0,,,,,,,,,,,,,,,,,,,,,,
,,,,,00087,2023-10-25_16h15.41.350,vbt_B1_day3,2022.2.4,Win32,59.95922773,,,,,,down,0,0.2002,,0.017592607,-0.126851894,1,0,0,0,125,125,119,1,liefje,images/br_liefje.png,images/cb_liefje.png,0,,,,,,,,,,,,,,,,,,,,,,
,,,,,00087,2023-10-25_16h15.41.350,vbt_B1_day3,2022.2.4,Win32,59.95922773,,,,,,down,0,0.2168,,0.017592607,-0.126851894,1,0,0,0,126,126,5,1,blad,images/br_blad.png,images/cb_blad.png,0,,,,,,,,,,,,,,,,,,,,,,
,,,,,00087,2023-10-25_16h15.41.350,vbt_B1_day3,2022.2.4,Win32,59.95922773,,,,,,down,0,5.0669,,0.017592607,-0.126851894,1,0,0,0,127,127,156,1,rechten,images/br_rechten.png,images/cb_rechten.png,0,,,,,,,,,,,,,,,,,,,,,,
,,,,,00087,2023-10-25_16h15.41.350,vbt_B1_day3,2022.2.4,Win32,59.95922773,,,,,,down,0,2.7673,,0.017592607,-0.126851894,1,0,0,0,128,128,135,1,gedicht,images/br_gedicht.png,images/cb_gedicht.png,0,,,,,,,,,,,,,,,,,,,,,,
,,,,,00087,2023-10-25_16h15.41.350,vbt_B1_day3,2022.2.4,Win32,59.95922773,,,,,,down,0,1.8667,,0.017592607,-0.126851894,1,0,0,0,129,129,139,1,stiekem,images/br_stiekem.png,images/cb_stiekem.png,0,,,,,,,,,,,,,,,,,,,,,,
,,,,,00087,2023-10-25_16h15.41.350,vbt_B1_day3,2022.2.4,Win32,59.95922773,,,,,,down,0,5.5363,,0.017592607,-0.126851894,1,0,0,0,130,130,62,1,knaap,images/br_knaap.png,images/cb_knaap.png,1,knaap,,,,,,,,,,,,,,,,,,,,,
,,,,,00087,2023-10-25_16h15.41.350,vbt_B1_day3,2022.2.4,Win32,59.95922773,,,,,,down,0,12.4672,,0.017592607,-0.126851894,1,0,0,0,131,131,18,1,blik,images/br_blik.png,images/cb_blik.png,0,,,,,,,,,,,,,,,,,,,,,,
,,,,,00087,2023-10-25_16h15.41.350,vbt_B1_day3,2022.2.4,Win32,59.95922773,,,,,,down,0,8.7103,,0.017592607,-0.126851894,1,0,0,0,132,132,43,1,klauw,images/br_klauw.png,images/cb_klauw.png,0,,,,,,,,,,,,,,,,,,,,,,
,,,,,00087,2023-10-25_16h15.41.350,vbt_B1_day3,2022.2.4,Win32,59.95922773,,,,,,down,0,2.2954,,0.017592607,-0.12962963,1,0,0,0,133,133,180,1,openbaar,images/br_openbaar.png,images/cb_openbaar.png,1,openbaar,,,,,,,,,,,,,,,,,,,,,
,,,,,00087,2023-10-25_16h15.41.350,vbt_B1_day3,2022.2.4,Win32,59.95922773,,,,,,down,0,0.4903,,0.017592607,-0.12962963,1,0,0,0,134,134,13,1,kaal,images/br_kaal.png,images/cb_kaal.png,0,,,,,,,,,,,,,,,,,,,,,,
,,,,,00087,2023-10-25_16h15.41.350,vbt_B1_day3,2022.2.4,Win32,59.95922773,,,,,,down,0,2.1023,,0.017592607,-0.12962963,1,0,0,0,135,135,58,1,tekst,images/br_tekst.png,images/cb_tekst.png,0,,,,,,,,,,,,,,,,,,,,,,
,,,,,00087,2023-10-25_16h15.41.350,vbt_B1_day3,2022.2.4,Win32,59.95922773,,,,,,down,0,0.2726,,0.017592607,-0.12962963,1,0,0,0,136,136,121,1,twijfel,images/br_twijfel.png,images/cb_twijfel.png,0,,,,,,,,,,,,,,,,,,,,,,
,,,,,00087,2023-10-25_16h15.41.350,vbt_B1_day3,2022.2.4,Win32,59.95922773,,,,,,down,0,1.1335,,0.017592607,-0.12962963,1,0,0,0,137,137,162,1,uitdelen,images/br_uitdelen.png,images/cb_uitdelen.png,0,,,,,,,,,,,,,,,,,,,,,,
,,,,,00087,2023-10-25_16h15.41.350,vbt_B1_day3,2022.2.4,Win32,59.95922773,,,,,,down,0,0.6347,,0.017592607,-0.12962963,1,0,0,0,138,138,33,1,vlek,images/br_vlek.png,images/cb_vlek.png,0,,,,,,,,,,,,,,,,,,,,,,
,,,,,00087,2023-10-25_16h15.41.350,vbt_B1_day3,2022.2.4,Win32,59.95922773,,,,,,down,0,2.4045,,0.017592607,-0.12962963,1,0,0,0,139,139,165,1,feestdag,images/br_feestdag.png,images/cb_feestdag.png,0,,,,,,,,,,,,,,,,,,,,,,
,,,,,00087,2023-10-25_16h15.41.350,vbt_B1_day3,2022.2.4,Win32,59.95922773,,,,,,down,0,1.702,,0.017592607,-0.12962963,1,0,0,0,140,140,111,1,ticket,images/br_ticket.png,images/cb_ticket.png,0,,,,,,,,,,,,,,,,,,,,,,
,,,,,00087,2023-10-25_16h15.41.350,vbt_B1_day3,2022.2.4,Win32,59.95922773,,,,,,down,0,0.692,,0.017592607,-0.12962963,1,0,0,0,141,141,131,1,opzicht,images/br_opzicht.png,images/cb_opzicht.png,0,,,,,,,,,,,,,,,,,,,,,,
,,,,,00087,2023-10-25_16h15.41.350,vbt_B1_day3,2022.2.4,Win32,59.95922773,,,,,,down,0,0.9171,,0.017592607,-0.12962963,1,0,0,0,142,142,46,1,jagen,images/br_jagen.png,images/cb_jagen.png,0,,,,,,,,,,,,,,,,,,,,,,
,,,,,00087,2023-10-25_16h15.41.350,vbt_B1_day3,2022.2.4,Win32,59.95922773,,,,,,down,0,0.6501,,0.017592607,-0.12962963,1,0,0,0,143,143,69,1,waken,images/br_waken.png,images/cb_waken.png,0,,,,,,,,,,,,,,,,,,,,,,
,,,,,00087,2023-10-25_16h15.41.350,vbt_B1_day3,2022.2.4,Win32,59.95922773,,,,,,down,0,0.134,,0.017592607,-0.12962963,1,0,0,0,144,144,85,1,heilig,images/br_heilig.png,images/cb_heilig.png,0,,,,,,,,,,,,,,,,,,,,,,
,,,,,00087,2023-10-25_16h15.41.350,vbt_B1_day3,2022.2.4,Win32,59.95922773,,,,,,down,0,1.0688,,0.017592607,-0.12962963,1,0,0,0,145,145,50,1,stoom,images/br_stoom.png,images/cb_stoom.png,0,,,,,,,,,,,,,,,,,,,,,,
,,,,,00087,2023-10-25_16h15.41.350,vbt_B1_day3,2022.2.4,Win32,59.95922773,,,,,,down,0,0.2006,,0.017592607,-0.12962963,1,0,0,0,146,146,190,1,goedkoop,images/br_goedkoop.png,images/cb_goedkoop.png,0,,,,,,,,,,,,,,,,,,,,,,
,,,,,00087,2023-10-25_16h15.41.350,vbt_B1_day3,2022.2.4,Win32,59.95922773,,,,,,down,0,0.2391,,0.017592607,-0.12962963,1,0,0,0,147,147,196,1,nakijken,images/br_nakijken.png,images/cb_nakijken.png,0,,,,,,,,,,,,,,,,,,,,,,
,,,,,00087,2023-10-25_16h15.41.350,vbt_B1_day3,2022.2.4,Win32,59.95922773,,,,,,down,0,0.218,,0.017592607,-0.12962963,1,0,0,0,148,148,37,1,mijn,images/br_mijn.png,images/cb_mijn.png,0,,,,,,,,,,,,,,,,,,,,,,
,,,,,00087,2023-10-25_16h15.41.350,vbt_B1_day3,2022.2.4,Win32,59.95922773,,,,,,down,0,0.6166,,0.017592607,-0.12962963,1,0,0,0,149,149,151,1,aanzoek,images/br_aanzoek.png,images/cb_aanzoek.png,0,,,,,,,,,,,,,,,,,,,,,,
,,,,,00087,2023-10-25_16h15.41.350,vbt_B1_day3,2022.2.4,Win32,59.95922773,,,,,,down,0,2.7368,,0.017592607,-0.12962963,1,0,0,0,150,150,120,1,klimmen,images/br_klimmen.png,images/cb_klimmen.png,0,,,,,,,,,,,,,,,,,,,,,,
,,,,,00087,2023-10-25_16h15.41.350,vbt_B1_day3,2022.2.4,Win32,59.95922773,,,,,,down,0,0.1096,,0.017592607,-0.12962963,1,0,0,0,151,151,27,1,dans,images/br_dans.png,images/cb_dans.png,0,,,,,,,,,,,,,,,,,,,,,,
,,,,,00087,2023-10-25_16h15.41.350,vbt_B1_day3,2022.2.4,Win32,59.95922773,,,,,,down,0,0.2098,,0.010185171,-0.143518519,1,0,0,0,152,152,28,1,stal,images/br_stal.png,images/cb_stal.png,0,,,,,,,,,,,,,,,,,,,,,,
,,,,,00087,2023-10-25_16h15.41.350,vbt_B1_day3,2022.2.4,Win32,59.95922773,,,,,,down,0,2.5595,,0.010185171,-0.143518519,1,0,0,0,153,153,195,1,middelen,images/br_middelen.png,images/cb_middelen.png,0,,,,,,,,,,,,,,,,,,,,,,
,,,,,00087,2023-10-25_16h15.41.350,vbt_B1_day3,2022.2.4,Win32,59.95922773,,,,,,down,0,1.3775,,0.010185171,-0.143518519,1,0,0,0,154,154,51,1,samen,images/br_samen.png,images/cb_samen.png,0,,,,,,,,,,,,,,,,,,,,,,
,,,,,00087,2023-10-25_16h15.41.350,vbt_B1_day3,2022.2.4,Win32,59.95922773,,,,,,down,0,3.9732,,0.010185171,-0.143518519,1,0,0,0,155,155,63,1,flirt,images/br_flirt.png,images/cb_flirt.png,1,flirt,,,,,,,,,,,,,,,,,,,,,
,,,,,00087,2023-10-25_16h15.41.350,vbt_B1_day3,2022.2.4,Win32,59.95922773,,,,,,down,0,1.2303,,0.010185171,-0.143518519,1,0,0,0,156,156,64,1,wegen,images/br_wegen.png,images/cb_wegen.png,0,,,,,,,,,,,,,,,,,,,,,,
,,,,,00087,2023-10-25_16h15.41.350,vbt_B1_day3,2022.2.4,Win32,59.95922773,,,,,,down,0,0.7684,,0.010185171,-0.143518519,1,0,0,0,157,157,127,1,doodmoe,images/br_doodmoe.png,images/cb_doodmoe.png,0,,,,,,,,,,,,,,,,,,,,,,
,,,,,00087,2023-10-25_16h15.41.350,vbt_B1_day3,2022.2.4,Win32,59.95922773,,,,,,down,0,0.3384,,0.010185171,-0.143518519,1,0,0,0,158,158,73,1,volop,images/br_volop.png,images/cb_volop.png,0,,,,,,,,,,,,,,,,,,,,,,
,,,,,00087,2023-10-25_16h15.41.350,vbt_B1_day3,2022.2.4,Win32,59.95922773,,,,,,down,0,0.3692,,0.010185171,-0.143518519,1,0,0,0,159,159,163,1,schuilen,images/br_schuilen.png,images/cb_schuilen.png,0,,,,,,,,,,,,,,,,,,,,,,
,,,,,00087,2023-10-25_16h15.41.350,vbt_B1_day3,2022.2.4,Win32,59.95922773,,,,,,down,0,2.5337,,0.010185171,-0.143518519,1,0,0,0,160,160,159,1,sufferd,images/br_sufferd.png,images/cb_sufferd.png,0,,,,,,,,,,,,,,,,,,,,,,
,,,,,00087,2023-10-25_16h15.41.350,vbt_B1_day3,2022.2.4,Win32,59.95922773,,,,,,down,0,9.4229,,0.001851894,-0.208333333,1,0,0,0,161,161,142,1,snuiven,images/br_snuiven.png,images/cb_snuiven.png,1,snuiven,,,,,,,,,,,,,,,,,,,,,
,,,,,00087,2023-10-25_16h15.41.350,vbt_B1_day3,2022.2.4,Win32,59.95922773,,,,,,down,0,5.5165,,-0.002777735,-0.287962949,1,0,0,0,162,162,140,1,blijven,images/br_blijven.png,images/cb_blijven.png,1,blijven,,,,,,,,,,,,,,,,,,,,,
,,,,,00087,2023-10-25_16h15.41.350,vbt_B1_day3,2022.2.4,Win32,59.95922773,,,,,,down,0,0.2928,,-0.002777735,-0.287962949,1,0,0,0,163,163,94,1,oceaan,images/br_oceaan.png,images/cb_oceaan.png,0,,,,,,,,,,,,,,,,,,,,,,
,,,,,00087,2023-10-25_16h15.41.350,vbt_B1_day3,2022.2.4,Win32,59.95922773,,,,,,down,0,0.1042,,-0.012036995,-0.176851838,1,0,0,0,164,164,88,1,boeien,images/br_boeien.png,images/cb_boeien.png,0,,,,,,,,,,,,,,,,,,,,,,
,,,,,00087,2023-10-25_16h15.41.350,vbt_B1_day3,2022.2.4,Win32,59.95922773,,,,,,down,0,0.2297,,-0.012036995,-0.176851838,1,0,0,0,165,165,167,1,eenhoorn,images/br_eenhoorn.png,images/cb_eenhoorn.png,0,,,,,,,,,,,,,,,,,,,,,,
,,,,,00087,2023-10-25_16h15.41.350,vbt_B1_day3,2022.2.4,Win32,59.95922773,,,,,,down,0,10.3053,,-0.012036995,-0.176851838,1,0,0,0,166,166,97,1,loyaal,images/br_loyaal.png,images/cb_loyaal.png,0,,,,,,,,,,,,,,,,,,,,,,
,,,,,00087,2023-10-25_16h15.41.350,vbt_B1_day3,2022.2.4,Win32,59.95922773,,,,,,down,0,4.7257,,-0.012036995,-0.176851838,1,0,0,0,167,167,179,1,woestijn,images/br_woestijn.png,images/cb_woestijn.png,0,,,,,,,,,,,,,,,,,,,,,,
,,,,,00087,2023-10-25_16h15.41.350,vbt_B1_day3,2022.2.4,Win32,59.95922773,,,,,,down,0,7.9073,,-0.012036995,-0.176851838,1,0,0,0,168,168,54,1,gebit,images/br_gebit.png,images/cb_gebit.png,0,,,,,,,,,,,,,,,,,,,,,,
,,,,,00087,2023-10-25_16h15.41.350,vbt_B1_day3,2022.2.4,Win32,59.95922773,,,,,,down,0,1.3798,,-0.012036995,-0.176851838,1,0,0,0,169,169,153,1,vervoer,images/br_vervoer.png,images/cb_vervoer.png,0,,,,,,,,,,,,,,,,,,,,,,
,,,,,00087,2023-10-25_16h15.41.350,vbt_B1_day3,2022.2.4,Win32,59.95922773,,,,,,down,0,0.4848,,-0.012036995,-0.176851838,1,0,0,0,170,170,15,1,soda,images/br_soda.png,images/cb_soda.png,0,,,,,,,,,,,,,,,,,,,,,,
,,,,,00087,2023-10-25_16h15.41.350,vbt_B1_day3,2022.2.4,Win32,59.95922773,,,,,,down,0,0.4006,,-0.012036995,-0.176851838,1,0,0,0,171,171,157,1,uitlaat,images/br_uitlaat.png,images/cb_uitlaat.png,0,,,,,,,,,,,,,,,,,,,,,,
,,,,,00087,2023-10-25_16h15.41.350,vbt_B1_day3,2022.2.4,Win32,59.95922773,,,,,,down,0,0.6171,,-0.012036995,-0.176851838,1,0,0,0,172,172,152,1,afnemen,images/br_afnemen.png,images/cb_afnemen.png,0,,,,,,,,,,,,,,,,,,,,,,
,,,,,00087,2023-10-25_16h15.41.350,vbt_B1_day3,2022.2.4,Win32,59.95922773,,,,,,down,0,1.7342,,-0.012036995,-0.176851838,1,0,0,0,173,173,155,1,gerucht,images/br_gerucht.png,images/cb_gerucht.png,0,,,,,,,,,,,,,,,,,,,,,,
,,,,,00087,2023-10-25_16h15.41.350,vbt_B1_day3,2022.2.4,Win32,59.95922773,,,,,,down,0,1.4332,,-0.012036995,-0.176851838,1,0,0,0,174,174,123,1,hiervan,images/br_hiervan.png,images/cb_hiervan.png,0,,,,,,,,,,,,,,,,,,,,,,
,,,,,00087,2023-10-25_16h15.41.350,vbt_B1_day3,2022.2.4,Win32,59.95922773,,,,,,down,0,4.6987,,-0.012036995,-0.176851838,1,0,0,0,175,175,113,1,koppen,images/br_koppen.png,images/cb_koppen.png,0,,,,,,,,,,,,,,,,,,,,,,
,,,,,00087,2023-10-25_16h15.41.350,vbt_B1_day3,2022.2.4,Win32,59.95922773,,,,,,down,0,0.9836,,-0.012036995,-0.176851838,1,0,0,0,176,176,168,1,bisschop,images/br_bisschop.png,images/cb_bisschop.png,0,,,,,,,,,,,,,,,,,,,,,,
,,,,,00087,2023-10-25_16h15.41.350,vbt_B1_day3,2022.2.4,Win32,59.95922773,,,,,,down,0,1.1887,,0.00462963,-0.118518547,1,0,0,0,177,177,6,1,diep,images/br_diep.png,images/cb_diep.png,0,,,,,,,,,,,,,,,,,,,,,,
,,,,,00087,2023-10-25_16h15.41.350,vbt_B1_day3,2022.2.4,Win32,59.95922773,,,,,,down,0,0.6283,,0.00462963,-0.118518547,1,0,0,0,178,178,36,1,vuur,images/br_vuur.png,images/cb_vuur.png,0,,,,,,,,,,,,,,,,,,,,,,
,,,,,00087,2023-10-25_16h15.41.350,vbt_B1_day3,2022.2.4,Win32,59.95922773,,,,,,down,0,0.6193,,0.00462963,-0.118518547,1,0,0,0,179,179,24,1,jurk,images/br_jurk.png,images/cb_jurk.png,0,,,,,,,,,,,,,,,,,,,,,,
,,,,,00087,2023-10-25_16h15.41.350,vbt_B1_day3,2022.2.4,Win32,59.95922773,,,,,,down,0,1.7108,,0.00462963,-0.118518547,1,0,0,0,180,180,144,1,eetlust,images/br_eetlust.png,images/cb_eetlust.png,0,,,,,,,,,,,,,,,,,,,,,,
,,,,,00087,2023-10-25_16h15.41.350,vbt_B1_day3,2022.2.4,Win32,59.95922773,,,,,,down,0,0.3611,,0.00462963,-0.118518547,1,0,0,0,181,181,9,1,hier,images/br_hier.png,images/cb_hier.png,0,,,,,,,,,,,,,,,,,,,,,,
,,,,,00087,2023-10-25_16h15.41.350,vbt_B1_day3,2022.2.4,Win32,59.95922773,,,,,,down,0,0.2538,,0.00462963,-0.118518547,1,0,0,0,182,182,146,1,opkomen,images/br_opkomen.png,images/cb_opkomen.png,0,,,,,,,,,,,,,,,,,,,,,,
,,,,,00087,2023-10-25_16h15.41.350,vbt_B1_day3,2022.2.4,Win32,59.95922773,,,,,,down,0,0.7582,,0.00462963,-0.118518547,1,0,0,0,183,183,29,1,baas,images/br_baas.png,images/cb_baas.png,0,,,,,,,,,,,,,,,,,,,,,,
,,,,,00087,2023-10-25_16h15.41.350,vbt_B1_day3,2022.2.4,Win32,59.95922773,,,,,,down,0,1.395,,0.00462963,-0.118518547,1,0,0,0,184,184,169,1,oprotten,images/br_oprotten.png,images/cb_oprotten.png,0,,,,,,,,,,,,,,,,,,,,,,
,,,,,00087,2023-10-25_16h15.41.350,vbt_B1_day3,2022.2.4,Win32,59.95922773,,,,,,down,0,7.4016,,0.00462963,-0.118518547,1,0,0,0,185,185,23,1,zout,images/br_zout.png,images/cb_zout.png,1,zout,,,,,,,,,,,,,,,,,,,,,
,,,,,00087,2023-10-25_16h15.41.350,vbt_B1_day3,2022.2.4,Win32,59.95922773,,,,,,down,0,0.6869,,0.00462963,-0.118518547,1,0,0,0,186,186,84,1,lokken,images/br_lokken.png,images/cb_lokken.png,0,,,,,,,,,,,,,,,,,,,,,,
,,,,,00087,2023-10-25_16h15.41.350,vbt_B1_day3,2022.2.4,Win32,59.95922773,,,,,,down,0,0.7503,,0.00462963,-0.118518547,1,0,0,0,187,187,56,1,traag,images/br_traag.png,images/cb_traag.png,0,,,,,,,,,,,,,,,,,,,,,,
,,,,,00087,2023-10-25_16h15.41.350,vbt_B1_day3,2022.2.4,Win32,59.95922773,,,,,,down,0,0.5169,,0.00462963,-0.118518547,1,0,0,0,188,188,148,1,smullen,images/br_smullen.png,images/cb_smullen.png,0,,,,,,,,,,,,,,,,,,,,,,
,,,,,00087,2023-10-25_16h15.41.350,vbt_B1_day3,2022.2.4,Win32,59.95922773,,,,,,down,0,1.2066,,0.00462963,-0.118518547,1,0,0,0,189,189,20,1,site,images/br_site.png,images/cb_site.png,1,site,,,,,,,,,,,,,,,,,,,,,
,,,,,00087,2023-10-25_16h15.41.350,vbt_B1_day3,2022.2.4,Win32,59.95922773,,,,,,down,0,0.5688,,0.00462963,-0.118518547,1,0,0,0,190,190,80,1,kanjer,images/br_kanjer.png,images/cb_kanjer.png,0,,,,,,,,,,,,,,,,,,,,,,
,,,,,00087,2023-10-25_16h15.41.350,vbt_B1_day3,2022.2.4,Win32,59.95922773,,,,,,down,0,0.1527,,0.00462963,-0.118518547,1,0,0,0,191,191,133,1,seizoen,images/br_seizoen.png,images/cb_seizoen.png,0,,,,,,,,,,,,,,,,,,,,,,
,,,,,00087,2023-10-25_16h15.41.350,vbt_B1_day3,2022.2.4,Win32,59.95922773,,,,,,down,0,0.6838,,0.00462963,-0.118518547,1,0,0,0,192,192,187,1,opkijken,images/br_opkijken.png,images/cb_opkijken.png,0,,,,,,,,,,,,,,,,,,,,,,
,,,,,00087,2023-10-25_16h15.41.350,vbt_B1_day3,2022.2.4,Win32,59.95922773,,,,,,down,0,0.5676,,0.00462963,-0.118518547,1,0,0,0,193,193,193,1,weeshuis,images/br_weeshuis.png,images/cb_weeshuis.png,0,,,,,,,,,,,,,,,,,,,,,,
,,,,,00087,2023-10-25_16h15.41.350,vbt_B1_day3,2022.2.4,Win32,59.95922773,,,,,,down,0,0.7823,,0.00462963,-0.118518547,1,0,0,0,194,194,172,1,weigeren,images/br_weigeren.png,images/cb_weigeren.png,0,,,,,,,,,,,,,,,,,,,,,,
,,,,,00087,2023-10-25_16h15.41.350,vbt_B1_day3,2022.2.4,Win32,59.95922773,,,,,,down,0,0.351,,0.00462963,-0.118518547,1,0,0,0,195,195,188,1,strekken,images/br_strekken.png,images/cb_strekken.png,0,,,,,,,,,,,,,,,,,,,,,,
,,,,,00087,2023-10-25_16h15.41.350,vbt_B1_day3,2022.2.4,Win32,59.95922773,,,,,,down,0,1.3662,,0.00462963,-0.118518547,1,0,0,0,196,196,199,1,beseffen,images/br_beseffen.png,images/cb_beseffen.png,0,,,,,,,,,,,,,,,,,,,,,,
,,,,,00087,2023-10-25_16h15.41.350,vbt_B1_day3,2022.2.4,Win32,59.95922773,,,,,,down,0,1.2008,,0.00462963,-0.118518547,1,0,0,0,197,197,86,1,woning,images/br_woning.png,images/cb_woning.png,0,,,,,,,,,,,,,,,,,,,,,,
,,,,,00087,2023-10-25_16h15.41.350,vbt_B1_day3,2022.2.4,Win32,59.95922773,,,,,,down,0,0.1284,,0.00462963,-0.118518547,1,0,0,0,198,198,31,1,poes,images/br_poes.png,images/cb_poes.png,0,,,,,,,,,,,,,,,,,,,,,,
,,,,,00087,2023-10-25_16h15.41.350,vbt_B1_day3,2022.2.4,Win32,59.95922773,,,,,,down,0,0.0794,,0.00462963,-0.118518547,1,0,0,0,199,199,138,1,akkoord,images/br_akkoord.png,images/cb_akkoord.png,0,,,,,,,,,,,,,,,,,,,,,,
,,,,,00087,2023-10-25_16h15.41.350,vbt_B1_day3,2022.2.4,Win32,59.95922773,,,,,,,,,,,,,,,,,,,,,,,,,-0.626851841,-0.076851845,1,0,0,,,,,,,,,,,,,,,,
,,,,,00087,2023-10-25_16h15.41.350,vbt_B1_day3,2022.2.4,Win32,59.95922773,,,,,,,,,,,,,,,,,,,,,,,,,,,,,,-0.626851841,-0.076851845,1,0,0,,,,,,,,,,,
,,,,,00087,2023-10-25_16h15.41.350,vbt_B1_day3,2022.2.4,Win32,59.95922773,,,,,,,,,,,,,,,,,,,,keihard,images/br_keihard.png,images/cb_keihard.png,,keihard,,,,,,,,,,,-0.6324074,-0.081481474,1,0,0,keihard,0,0,0,14,1
,,,,,00087,2023-10-25_16h15.41.350,vbt_B1_day3,2022.2.4,Win32,59.95922773,,,,,,,,,,,,,,,,,,,,eens,images/br_eens.png,images/cb_eens.png,,eens,,,,,,,,,,,-0.6324074,-0.086111104,1,0,0,eens,0,1,1,40,1
,,,,,00087,2023-10-25_16h15.41.350,vbt_B1_day3,2022.2.4,Win32,59.95922773,,,,,,,,,,,,,,,,,,,,slapen,images/br_slapen.png,images/cb_slapen.png,,slapen,,,,,,,,,,,-0.6324074,-0.086111104,1,0,0,slapen,0,2,2,9,1
,,,,,00087,2023-10-25_16h15.41.350,vbt_B1_day3,2022.2.4,Win32,59.95922773,,,,,,,,,,,,,,,,,,,,kaas,images/br_kaas.png,images/cb_kaas.png,,kaas,,,,,,,,,,,-0.6324074,-0.086111104,1,0,0,kaas,0,3,3,42,1
,,,,,00087,2023-10-25_16h15.41.350,vbt_B1_day3,2022.2.4,Win32,59.95922773,,,,,,,,,,,,,,,,,,,,steel,images/br_steel.png,images/cb_steel.png,,steel,,,,,,,,,,,-0.6324074,-0.086111104,1,0,0,steel,0,4,4,4,1
,,,,,00087,2023-10-25_16h15.41.350,vbt_B1_day3,2022.2.4,Win32,59.95922773,,,,,,,,,,,,,,,,,,,,kest,images/br_kest.png,images/cb_kest.png,,kest,,,,,,,,,,,-0.6324074,-0.086111104,1,0,0,kest,0,5,5,21,1
,,,,,00087,2023-10-25_16h15.41.350,vbt_B1_day3,2022.2.4,Win32,59.95922773,,,,,,,,,,,,,,,,,,,,onrecht,images/br_onrecht.png,images/cb_onrecht.png,,onrecht,,,,,,,,,,,-0.6324074,-0.086111104,1,0,0,onrecht,0,6,6,55,1
,,,,,00087,2023-10-25_16h15.41.350,vbt_B1_day3,2022.2.4,Win32,59.95922773,,,,,,,,,,,,,,,,,,,,paken,images/br_paken.png,images/cb_paken.png,,paken,,,,,,,,,,,-0.6324074,-0.086111104,1,0,0,paken,0,7,7,27,1
,,,,,00087,2023-10-25_16h15.41.350,vbt_B1_day3,2022.2.4,Win32,59.95922773,,,,,,,,,,,,,,,,,,,,geluid,images/br_geluid.png,images/cb_geluid.png,,geluid,,,,,,,,,,,-0.6324074,-0.086111104,1,0,0,geluid,0,8,8,10,1
,,,,,00087,2023-10-25_16h15.41.350,vbt_B1_day3,2022.2.4,Win32,59.95922773,,,,,,,,,,,,,,,,,,,,sluier,images/br_sluier.png,images/cb_sluier.png,,slier,,,,,,,,,,,-0.6324074,-0.086111104,1,0,0,slier,0,9,9,50,1
,,,,,00087,2023-10-25_16h15.41.350,vbt_B1_day3,2022.2.4,Win32,59.95922773,,,,,,,,,,,,,,,,,,,,gout,images/br_gout.png,images/cb_gout.png,,.,,,,,,,,,,,-0.6324074,-0.086111104,1,0,0,.,0,10,10,20,1
,,,,,00087,2023-10-25_16h15.41.350,vbt_B1_day3,2022.2.4,Win32,59.95922773,,,,,,,,,,,,,,,,,,,,verraden,images/br_verraden.png,images/cb_verraden.png,,.,,,,,,,,,,,-0.027777778,-0.023148148,1,0,0,.,0,11,11,58,1
,,,,,00087,2023-10-25_16h15.41.350,vbt_B1_day3,2022.2.4,Win32,59.95922773,,,,,,,,,,,,,,,,,,,,schatten,images/br_schatten.png,images/cb_schatten.png,,schatten,,,,,,,,,,,-0.027777778,-0.023148148,1,0,0,schatten,0,12,12,18,1
,,,,,00087,2023-10-25_16h15.41.350,vbt_B1_day3,2022.2.4,Win32,59.95922773,,,,,,,,,,,,,,,,,,,,booien,images/br_booien.png,images/cb_booien.png,,booien,,,,,,,,,,,-0.027777778,-0.023148148,1,0,0,booien,0,13,13,31,1
,,,,,00087,2023-10-25_16h15.41.350,vbt_B1_day3,2022.2.4,Win32,59.95922773,,,,,,,,,,,,,,,,,,,,boeien,images/br_boeien.png,images/cb_boeien.png,,boeien,,,,,,,,,,,-0.027777778,-0.023148148,1,0,0,boeien,0,14,14,8,1
,,,,,00087,2023-10-25_16h15.41.350,vbt_B1_day3,2022.2.4,Win32,59.95922773,,,,,,,,,,,,,,,,,,,,zone,images/br_zone.png,images/cb_zone.png,,zone,,,,,,,,,,,-0.027777778,-0.023148148,1,0,0,zone,0,15,15,41,1
,,,,,00087,2023-10-25_16h15.41.350,vbt_B1_day3,2022.2.4,Win32,59.95922773,,,,,,,,,,,,,,,,,,,,bevret,images/br_bevret.png,images/cb_bevret.png,,.,,,,,,,,,,,-0.027777778,-0.023148148,1,0,0,.,0,16,16,30,1
,,,,,00087,2023-10-25_16h15.41.350,vbt_B1_day3,2022.2.4,Win32,59.95922773,,,,,,,,,,,,,,,,,,,,mugeek,images/br_mugeek.png,images/cb_mugeek.png,,.,,,,,,,,,,,-0.027777778,-0.023148148,1,0,0,.,0,17,17,29,1
,,,,,00087,2023-10-25_16h15.41.350,vbt_B1_day3,2022.2.4,Win32,59.95922773,,,,,,,,,,,,,,,,,,,,glijden,images/br_glijden.png,images/cb_glijden.png,,glijden,,,,,,,,,,,-0.027777778,-0.023148148,1,0,0,glijden,0,18,18,53,1
,,,,,00087,2023-10-25_16h15.41.350,vbt_B1_day3,2022.2.4,Win32,59.95922773,,,,,,,,,,,,,,,,,,,,leugeren,images/br_leugeren.png,images/cb_leugeren.png,,leveren,,,,,,,,,,,-0.027777778,-0.023148148,1,0,0,leveren,0,19,19,37,1
,,,,,00087,2023-10-25_16h15.41.350,vbt_B1_day3,2022.2.4,Win32,59.95922773,,,,,,,,,,,,,,,,,,,,beslag,images/br_beslag.png,images/cb_beslag.png,,beslag,,,,,,,,,,,-0.027777778,-0.023148148,1,0,0,beslag,0,20,20,51,1
,,,,,00087,2023-10-25_16h15.41.350,vbt_B1_day3,2022.2.4,Win32,59.95922773,,,,,,,,,,,,,,,,,,,,leek,images/br_leek.png,images/cb_leek.png,,leek,,,,,,,,,,,-0.027777778,-0.023148148,1,0,0,leek,0,21,21,2,1
,,,,,00087,2023-10-25_16h15.41.350,vbt_B1_day3,2022.2.4,Win32,59.95922773,,,,,,,,,,,,,,,,,,,,brappen,images/br_brappen.png,images/cb_brappen.png,,brappen,,,,,,,,,,,-0.027777778,-0.023148148,1,0,0,brappen,0,22,22,35,1
,,,,,00087,2023-10-25_16h15.41.350,vbt_B1_day3,2022.2.4,Win32,59.95922773,,,,,,,,,,,,,,,,,,,,dwang,images/br_dwang.png,images/cb_dwang.png,,...ang,,,,,,,,,,,-0.027777778,-0.023148148,1,0,0,...ang,0,23,23,47,1
,,,,,00087,2023-10-25_16h15.41.350,vbt_B1_day3,2022.2.4,Win32,59.95922773,,,,,,,,,,,,,,,,,,,,hier,images/br_hier.png,images/cb_hier.png,,bier,,,,,,,,,,,-0.027777778,-0.023148148,1,0,0,bier,0,24,24,1,1
,,,,,00087,2023-10-25_16h15.41.350,vbt_B1_day3,2022.2.4,Win32,59.95922773,,,,,,,,,,,,,,,,,,,,begrip,images/br_begrip.png,images/cb_begrip.png,,begrip,,,,,,,,,,,-0.027777778,-0.023148148,1,0,0,begrip,0,25,25,48,1
,,,,,00087,2023-10-25_16h15.41.350,vbt_B1_day3,2022.2.4,Win32,59.95922773,,,,,,,,,,,,,,,,,,,,vlager,images/br_vlager.png,images/cb_vlager.png,,..leger,,,,,,,,,,,-0.027777778,-0.023148148,1,0,0,..leger,0,26,26,28,1
,,,,,00087,2023-10-25_16h15.41.350,vbt_B1_day3,2022.2.4,Win32,59.95922773,,,,,,,,,,,,,,,,,,,,invallen,images/br_invallen.png,images/cb_invallen.png,,.,,,,,,,,,,,-0.027777778,-0.023148148,1,0,0,.,0,27,27,57,1
,,,,,00087,2023-10-25_16h15.41.350,vbt_B1_day3,2022.2.4,Win32,59.95922773,,,,,,,,,,,,,,,,,,,,stallen,images/br_stallen.png,images/cb_stallen.png,,stallen,,,,,,,,,,,-0.027777778,-0.023148148,1,0,0,stallen,0,28,28,52,1
,,,,,00087,2023-10-25_16h15.41.350,vbt_B1_day3,2022.2.4,Win32,59.95922773,,,,,,,,,,,,,,,,,,,,opzetten,images/br_opzetten.png,images/cb_opzetten.png,,opzetten,,,,,,,,,,,-0.027777778,-0.023148148,1,0,0,opzetten,0,29,29,56,1
,,,,,00087,2023-10-25_16h15.41.350,vbt_B1_day3,2022.2.4,Win32,59.95922773,,,,,,,,,,,,,,,,,,,,croo,images/br_croo.png,images/cb_croo.png,,croo,,,,,,,,,,,-0.027777778,-0.023148148,1,0,0,croo,0,30,30,22,1
,,,,,00087,2023-10-25_16h15.41.350,vbt_B1_day3,2022.2.4,Win32,59.95922773,,,,,,,,,,,,,,,,,,,,alsof,images/br_alsof.png,images/cb_alsof.png,,alsof,,,,,,,,,,,-0.029629601,-0.101851852,1,0,0,alsof,0,31,31,44,1
,,,,,00087,2023-10-25_16h15.41.350,vbt_B1_day3,2022.2.4,Win32,59.95922773,,,,,,,,,,,,,,,,,,,,uviek,images/br_uviek.png,images/cb_uviek.png,,..uiek,,,,,,,,,,,-0.029629601,-0.101851852,1,0,0,..uiek,0,32,32,25,1
,,,,,00087,2023-10-25_16h15.41.350,vbt_B1_day3,2022.2.4,Win32,59.95922773,,,,,,,,,,,,,,,,,,,,opzicht,images/br_opzicht.png,images/cb_opzicht.png,,oprecht,,,,,,,,,,,-0.029629601,-0.101851852,1,0,0,oprecht,0,33,33,15,1
,,,,,00087,2023-10-25_16h15.41.350,vbt_B1_day3,2022.2.4,Win32,59.95922773,,,,,,,,,,,,,,,,,,,,kwaas,images/br_kwaas.png,images/cb_kwaas.png,,.,,,,,,,,,,,-0.029629601,-0.101851852,1,0,0,.,0,34,34,26,1
,,,,,00087,2023-10-25_16h15.41.350,vbt_B1_day3,2022.2.4,Win32,59.95922773,,,,,,,,,,,,,,,,,,,,leemaken,images/br_leemaken.png,images/cb_leemaken.png,,.,,,,,,,,,,,-0.029629601,-0.101851852,1,0,0,.,0,35,35,39,1
,,,,,00087,2023-10-25_16h15.41.350,vbt_B1_day3,2022.2.4,Win32,59.95922773,,,,,,,,,,,,,,,,,,,,jongelui,images/br_jongelui.png,images/cb_jongelui.png,,.,,,,,,,,,,,-0.095370328,0.042592578,1,0,0,.,0,36,36,59,1
,,,,,00087,2023-10-25_16h15.41.350,vbt_B1_day3,2022.2.4,Win32,59.95922773,,,,,,,,,,,,,,,,,,,,bisschop,images/br_bisschop.png,images/cb_bisschop.png,,.,,,,,,,,,,,0.067592621,-0.161111125,1,0,0,.,0,37,37,16,1
,,,,,00087,2023-10-25_16h15.41.350,vbt_B1_day3,2022.2.4,Win32,59.95922773,,,,,,,,,,,,,,,,,,,,laken,images/br_laken.png,images/cb_laken.png,,laken,,,,,,,,,,,0.067592621,-0.161111125,1,0,0,laken,0,38,38,5,1
,,,,,00087,2023-10-25_16h15.41.350,vbt_B1_day3,2022.2.4,Win32,59.95922773,,,,,,,,,,,,,,,,,,,,aarzelen,images/br_aarzelen.png,images/cb_aarzelen.png,,aarzelig,,,,,,,,,,,0.067592621,-0.161111125,1,0,0,aarzelig,0,39,39,19,1
,,,,,00087,2023-10-25_16h15.41.350,vbt_B1_day3,2022.2.4,Win32,59.95922773,,,,,,,,,,,,,,,,,,,,hint,images/br_hint.png,images/cb_hint.png,,hint,,,,,,,,,,,0.067592621,-0.161111125,1,0,0,hint,0,40,40,43,1
,,,,,00087,2023-10-25_16h15.41.350,vbt_B1_day3,2022.2.4,Win32,59.95922773,,,,,,,,,,,,,,,,,,,,hust,images/br_hust.png,images/cb_hust.png,,rust,,,,,,,,,,,0.067592621,-0.161111125,1,0,0,rust,0,41,41,23,1
,,,,,00087,2023-10-25_16h15.41.350,vbt_B1_day3,2022.2.4,Win32,59.95922773,,,,,,,,,,,,,,,,,,,,afbopen,images/br_afbopen.png,images/cb_afbopen.png,,.abopen,,,,,,,,,,,0.067592621,-0.161111125,1,0,0,.abopen,0,42,42,34,1
,,,,,00087,2023-10-25_16h15.41.350,vbt_B1_day3,2022.2.4,Win32,59.95922773,,,,,,,,,,,,,,,,,,,,stikken,images/br_stikken.png,images/cb_stikken.png,,stieken,,,,,,,,,,,0.067592621,-0.161111125,1,0,0,stieken,0,43,43,54,1
,,,,,00087,2023-10-25_16h15.41.350,vbt_B1_day3,2022.2.4,Win32,59.95922773,,,,,,,,,,,,,,,,,,,,gebod,images/br_gebod.png,images/cb_gebod.png,,gebod,,,,,,,,,,,0.067592621,-0.161111125,1,0,0,gebod,0,44,44,45,1
,,,,,00087,2023-10-25_16h15.41.350,vbt_B1_day3,2022.2.4,Win32,59.95922773,,,,,,,,,,,,,,,,,,,,stoom,images/br_stoom.png,images/cb_stoom.png,,stoom,,,,,,,,,,,0.067592621,-0.161111125,1,0,0,stoom,0,45,45,6,1
,,,,,00087,2023-10-25_16h15.41.350,vbt_B1_day3,2022.2.4,Win32,59.95922773,,,,,,,,,,,,,,,,,,,,schodel,images/br_schodel.png,images/cb_schodel.png,,.,,,,,,,,,,,0.067592621,-0.161111125,1,0,0,.,0,46,46,33,1
,,,,,00087,2023-10-25_16h15.41.350,vbt_B1_day3,2022.2.4,Win32,59.95922773,,,,,,,,,,,,,,,,,,,,knie,images/br_knie.png,images/cb_knie.png,,knie,,,,,,,,,,,0.062962991,-0.15370369,1,0,0,knie,0,47,47,0,1
,,,,,00087,2023-10-25_16h15.41.350,vbt_B1_day3,2022.2.4,Win32,59.95922773,,,,,,,,,,,,,,,,,,,,uniek,images/br_uniek.png,images/cb_uniek.png,,uniek,,,,,,,,,,,0.062962991,-0.15370369,1,0,0,uniek,0,48,48,46,1
,,,,,00087,2023-10-25_16h15.41.350,vbt_B1_day3,2022.2.4,Win32,59.95922773,,,,,,,,,,,,,,,,,,,,twaaf,images/br_twaaf.png,images/cb_twaaf.png,,.tau.,,,,,,,,,,,0.062962991,-0.15370369,1,0,0,.tau.,0,49,49,24,1
,,,,,00087,2023-10-25_16h15.41.350,vbt_B1_day3,2022.2.4,Win32,59.95922773,,,,,,,,,,,,,,,,,,,,samen,images/br_samen.png,images/cb_samen.png,,staren,,,,,,,,,,,0.062962991,-0.15370369,1,0,0,staren,0,50,50,7,1
,,,,,00087,2023-10-25_16h15.41.350,vbt_B1_day3,2022.2.4,Win32,59.95922773,,,,,,,,,,,,,,,,,,,,prikken,images/br_prikken.png,images/cb_prikken.png,,prikken,,,,,,,,,,,0.062962991,-0.15370369,1,0,0,prikken,0,51,51,12,1
,,,,,00087,2023-10-25_16h15.41.350,vbt_B1_day3,2022.2.4,Win32,59.95922773,,,,,,,,,,,,,,,,,,,,theeting,images/br_theeting.png,images/cb_theeting.png,,seeting,,,,,,,,,,,0.062962991,-0.15370369,1,0,0,seeting,0,52,52,38,1
,,,,,00087,2023-10-25_16h15.41.350,vbt_B1_day3,2022.2.4,Win32,59.95922773,,,,,,,,,,,,,,,,,,,,gezond,images/br_gezond.png,images/cb_gezond.png,,gezond,,,,,,,,,,,0.062962991,-0.15370369,1,0,0,gezond,0,53,53,11,1
,,,,,00087,2023-10-25_16h15.41.350,vbt_B1_day3,2022.2.4,Win32,59.95922773,,,,,,,,,,,,,,,,,,,,mode,images/br_mode.png,images/cb_mode.png,,.,,,,,,,,,,,0.062962991,-0.15370369,1,0,0,.,0,54,54,3,1
,,,,,00087,2023-10-25_16h15.41.350,vbt_B1_day3,2022.2.4,Win32,59.95922773,,,,,,,,,,,,,,,,,,,,oprotten,images/br_oprotten.png,images/cb_oprotten.png,,oprotten,,,,,,,,,,,0.062962991,-0.15370369,1,0,0,oprotten,0,55,55,17,1
,,,,,00087,2023-10-25_16h15.41.350,vbt_B1_day3,2022.2.4,Win32,59.95922773,,,,,,,,,,,,,,,,,,,,makieren,images/br_makieren.png,images/cb_makieren.png,,afkeren,,,,,,,,,,,0.062962991,-0.15370369,1,0,0,afkeren,0,56,56,36,1
,,,,,00087,2023-10-25_16h15.41.350,vbt_B1_day3,2022.2.4,Win32,59.95922773,,,,,,,,,,,,,,,,,,,,verwoor,images/br_verwoor.png,images/cb_verwoor.png,,akkoord,,,,,,,,,,,0.062962991,-0.15370369,1,0,0,akkoord,0,57,57,32,1
,,,,,00087,2023-10-25_16h15.41.350,vbt_B1_day3,2022.2.4,Win32,59.95922773,,,,,,,,,,,,,,,,,,,,sultan,images/br_sultan.png,images/cb_sultan.png,,slaten,,,,,,,,,,,0.062962991,-0.15370369,1,0,0,slaten,0,58,58,49,1
,,,,,00087,2023-10-25_16h15.41.350,vbt_B1_day3,2022.2.4,Win32,59.95922773,,,,,,,,,,,,,,,,,,,,verhaal,images/br_verhaal.png,images/cb_verhaal.png,,opstraal,,,,,,,,,,,0.062962991,-0.15370369,1,0,0,opstraal,0,59,59,13,1
,,,,,00087,2023-10-25_16h15.41.350,vbt_B1_day3,2022.2.4,Win32,59.95922773,,,,,,,,,,,,,,,,,,,,,,,,,,,,,,,,,,,,,,,,,,,,,
