welcome_mouse.x,welcome_mouse.y,welcome_mouse.leftButton,welcome_mouse.midButton,welcome_mouse.rightButton,"ID",date,expName,psychopyVersion,OS,frameRate,trainInstr_mouse.x,trainInstr_mouse.y,trainInstr_mouse.leftButton,trainInstr_mouse.midButton,trainInstr_mouse.rightButton,translation_key.keys,translation_key.corr,translation_key.rt,word_rsp.text,trWrd_mouse.x,trWrd_mouse.y,trWrd_mouse.leftButton,trWrd_mouse.midButton,trWrd_mouse.rightButton,train_loop.thisRepN,train_loop.thisTrialN,train_loop.thisN,train_loop.thisIndex,train_loop.ran,nlWrd,brWrd,cbWrd,test,testResp,mouse.x,mouse.y,mouse.leftButton,mouse.midButton,mouse.rightButton,testInstr_mouse.x,testInstr_mouse.y,testInstr_mouse.leftButton,testInstr_mouse.midButton,testInstr_mouse.rightButton,test_mouse.x,test_mouse.y,test_mouse.leftButton,test_mouse.midButton,test_mouse.rightButton,test_response.text,test_loop.thisRepN,test_loop.thisTrialN,test_loop.thisN,test_loop.thisIndex,test_loop.ran
-0.162962949,-0.235185199,1,0,0,00090,2023-10-25_11h54.14.436,vbt_B1_day3,2022.2.4,Win32,143.6575205,,,,,,,,,,,,,,,,,,,,,,,,,,,,,,,,,,,,,,,,,,,,,
,,,,,00090,2023-10-25_11h54.14.436,vbt_B1_day3,2022.2.4,Win32,143.6575205,-0.162962949,-0.235185199,1,0,0,,,,,,,,,,,,,,,,,,,,,,,,,,,,,,,,,,,,,,,,
,,,,,00090,2023-10-25_11h54.14.436,vbt_B1_day3,2022.2.4,Win32,143.6575205,,,,,,down,0,0.1461,,-0.162962949,-0.235185199,1,0,0,0,0,0,115,1,kleren,images/br_kleren.png,images/cb_kleren.png,0,,,,,,,,,,,,,,,,,,,,,,
,,,,,00090,2023-10-25_11h54.14.436,vbt_B1_day3,2022.2.4,Win32,143.6575205,,,,,,down,0,0.2555,,-0.117592564,-0.228703746,1,0,0,0,1,1,109,1,totaal,images/br_totaal.png,images/cb_totaal.png,0,,,,,,,,,,,,,,,,,,,,,,
,,,,,00090,2023-10-25_11h54.14.436,vbt_B1_day3,2022.2.4,Win32,143.6575205,,,,,,down,0,0.7157,,-0.117592564,-0.228703746,1,0,0,0,2,2,30,1,uien,images/br_uien.png,images/cb_uien.png,0,,,,,,,,,,,,,,,,,,,,,,
,,,,,00090,2023-10-25_11h54.14.436,vbt_B1_day3,2022.2.4,Win32,143.6575205,,,,,,down,0,7.2865,,-0.117592564,-0.228703746,1,0,0,0,3,3,181,1,toegeven,images/br_toegeven.png,images/cb_toegeven.png,1,toegeven,,,,,,,,,,,,,,,,,,,,,
,,,,,00090,2023-10-25_11h54.14.436,vbt_B1_day3,2022.2.4,Win32,143.6575205,,,,,,down,0,0.2263,,-0.117592564,-0.228703746,1,0,0,0,4,4,37,1,mijn,images/br_mijn.png,images/cb_mijn.png,0,,,,,,,,,,,,,,,,,,,,,,
,,,,,00090,2023-10-25_11h54.14.436,vbt_B1_day3,2022.2.4,Win32,143.6575205,,,,,,down,0,0.0508,,-0.117592564,-0.228703746,1,0,0,0,5,5,51,1,samen,images/br_samen.png,images/cb_samen.png,0,,,,,,,,,,,,,,,,,,,,,,
,,,,,00090,2023-10-25_11h54.14.436,vbt_B1_day3,2022.2.4,Win32,143.6575205,,,,,,down,0,0.2175,,-0.117592564,-0.228703746,1,0,0,0,6,6,31,1,poes,images/br_poes.png,images/cb_poes.png,0,,,,,,,,,,,,,,,,,,,,,,
,,,,,00090,2023-10-25_11h54.14.436,vbt_B1_day3,2022.2.4,Win32,143.6575205,,,,,,down,0,0.0165,,-0.117592564,-0.228703746,1,0,0,0,7,7,188,1,strekken,images/br_strekken.png,images/cb_strekken.png,0,,,,,,,,,,,,,,,,,,,,,,
,,,,,00090,2023-10-25_11h54.14.436,vbt_B1_day3,2022.2.4,Win32,143.6575205,,,,,,down,0,0.2038,,-0.117592564,-0.228703746,1,0,0,0,8,8,87,1,toeval,images/br_toeval.png,images/cb_toeval.png,0,,,,,,,,,,,,,,,,,,,,,,
,,,,,00090,2023-10-25_11h54.14.436,vbt_B1_day3,2022.2.4,Win32,143.6575205,,,,,,down,0,0.4956,,-0.117592564,-0.228703746,1,0,0,0,9,9,33,1,vlek,images/br_vlek.png,images/cb_vlek.png,0,,,,,,,,,,,,,,,,,,,,,,
,,,,,00090,2023-10-25_11h54.14.436,vbt_B1_day3,2022.2.4,Win32,143.6575205,,,,,,down,0,0.0066,,-0.117592564,-0.228703746,1,0,0,0,10,10,6,1,diep,images/br_diep.png,images/cb_diep.png,0,,,,,,,,,,,,,,,,,,,,,,
,,,,,00090,2023-10-25_11h54.14.436,vbt_B1_day3,2022.2.4,Win32,143.6575205,,,,,,down,0,0.2104,,-0.117592564,-0.228703746,1,0,0,0,11,11,114,1,vullen,images/br_vullen.png,images/cb_vullen.png,0,,,,,,,,,,,,,,,,,,,,,,
,,,,,00090,2023-10-25_11h54.14.436,vbt_B1_day3,2022.2.4,Win32,143.6575205,,,,,,down,0,0.2999,,-0.117592564,-0.228703746,1,0,0,0,12,12,151,1,aanzoek,images/br_aanzoek.png,images/cb_aanzoek.png,0,,,,,,,,,,,,,,,,,,,,,,
,,,,,00090,2023-10-25_11h54.14.436,vbt_B1_day3,2022.2.4,Win32,143.6575205,,,,,,down,0,0.2172,,-0.117592564,-0.228703746,1,0,0,0,13,13,41,1,maken,images/br_maken.png,images/cb_maken.png,0,,,,,,,,,,,,,,,,,,,,,,
,,,,,00090,2023-10-25_11h54.14.436,vbt_B1_day3,2022.2.4,Win32,143.6575205,,,,,,down,0,10.5867,,-0.117592564,-0.228703746,1,0,0,0,14,14,143,1,hechten,images/br_hechten.png,images/cb_hechten.png,1,hechten,,,,,,,,,,,,,,,,,,,,,
,,,,,00090,2023-10-25_11h54.14.436,vbt_B1_day3,2022.2.4,Win32,143.6575205,,,,,,down,0,0.4025,,-0.117592564,-0.228703746,1,0,0,0,15,15,75,1,snoep,images/br_snoep.png,images/cb_snoep.png,0,,,,,,,,,,,,,,,,,,,,,,
,,,,,00090,2023-10-25_11h54.14.436,vbt_B1_day3,2022.2.4,Win32,143.6575205,,,,,,down,0,0.2259,,-0.117592564,-0.228703746,1,0,0,0,16,16,88,1,boeien,images/br_boeien.png,images/cb_boeien.png,0,,,,,,,,,,,,,,,,,,,,,,
,,,,,00090,2023-10-25_11h54.14.436,vbt_B1_day3,2022.2.4,Win32,143.6575205,,,,,,down,0,0.3828,,-0.117592564,-0.228703746,1,0,0,0,17,17,40,1,schep,images/br_schep.png,images/cb_schep.png,0,,,,,,,,,,,,,,,,,,,,,,
,,,,,00090,2023-10-25_11h54.14.436,vbt_B1_day3,2022.2.4,Win32,143.6575205,,,,,,down,0,0.3441,,-0.117592564,-0.228703746,1,0,0,0,18,18,179,1,woestijn,images/br_woestijn.png,images/cb_woestijn.png,0,,,,,,,,,,,,,,,,,,,,,,
,,,,,00090,2023-10-25_11h54.14.436,vbt_B1_day3,2022.2.4,Win32,143.6575205,,,,,,down,0,0.1752,,-0.117592564,-0.228703746,1,0,0,0,19,19,74,1,graaf,images/br_graaf.png,images/cb_graaf.png,0,,,,,,,,,,,,,,,,,,,,,,
,,,,,00090,2023-10-25_11h54.14.436,vbt_B1_day3,2022.2.4,Win32,143.6575205,,,,,,down,0,18.298,,-0.117592564,-0.228703746,1,0,0,0,20,20,183,1,getuigen,images/br_getuigen.png,images/cb_getuigen.png,1,getuigen,,,,,,,,,,,,,,,,,,,,,
,,,,,00090,2023-10-25_11h54.14.436,vbt_B1_day3,2022.2.4,Win32,143.6575205,,,,,,down,0,0.174,,-0.117592564,-0.228703746,1,0,0,0,21,21,134,1,geliefd,images/br_geliefd.png,images/cb_geliefd.png,0,,,,,,,,,,,,,,,,,,,,,,
,,,,,00090,2023-10-25_11h54.14.436,vbt_B1_day3,2022.2.4,Win32,143.6575205,,,,,,down,0,3.1905,,-0.117592564,-0.228703746,1,0,0,0,22,22,27,1,dans,images/br_dans.png,images/cb_dans.png,0,,,,,,,,,,,,,,,,,,,,,,
,,,,,00090,2023-10-25_11h54.14.436,vbt_B1_day3,2022.2.4,Win32,143.6575205,,,,,,down,0,0.2158,,-0.117592564,-0.228703746,1,0,0,0,23,23,7,1,geld,images/br_geld.png,images/cb_geld.png,0,,,,,,,,,,,,,,,,,,,,,,
,,,,,00090,2023-10-25_11h54.14.436,vbt_B1_day3,2022.2.4,Win32,143.6575205,,,,,,down,0,0.1396,,-0.117592564,-0.228703746,1,0,0,0,24,24,80,1,kanjer,images/br_kanjer.png,images/cb_kanjer.png,0,,,,,,,,,,,,,,,,,,,,,,
,,,,,00090,2023-10-25_11h54.14.436,vbt_B1_day3,2022.2.4,Win32,143.6575205,,,,,,down,0,0.4325,,-0.117592564,-0.228703746,1,0,0,0,25,25,137,1,trekker,images/br_trekker.png,images/cb_trekker.png,0,,,,,,,,,,,,,,,,,,,,,,
,,,,,00090,2023-10-25_11h54.14.436,vbt_B1_day3,2022.2.4,Win32,143.6575205,,,,,,down,0,0.1204,,-0.117592564,-0.228703746,1,0,0,0,26,26,46,1,jagen,images/br_jagen.png,images/cb_jagen.png,0,,,,,,,,,,,,,,,,,,,,,,
,,,,,00090,2023-10-25_11h54.14.436,vbt_B1_day3,2022.2.4,Win32,143.6575205,,,,,,down,0,0.2783,,-0.117592564,-0.228703746,1,0,0,0,27,27,191,1,opheffen,images/br_opheffen.png,images/cb_opheffen.png,0,,,,,,,,,,,,,,,,,,,,,,
,,,,,00090,2023-10-25_11h54.14.436,vbt_B1_day3,2022.2.4,Win32,143.6575205,,,,,,down,0,0.3413,,-0.117592564,-0.228703746,1,0,0,0,28,28,165,1,feestdag,images/br_feestdag.png,images/cb_feestdag.png,0,,,,,,,,,,,,,,,,,,,,,,
,,,,,00090,2023-10-25_11h54.14.436,vbt_B1_day3,2022.2.4,Win32,143.6575205,,,,,,down,0,0.23,,-0.117592564,-0.228703746,1,0,0,0,29,29,42,1,bleek,images/br_bleek.png,images/cb_bleek.png,0,,,,,,,,,,,,,,,,,,,,,,
,,,,,00090,2023-10-25_11h54.14.436,vbt_B1_day3,2022.2.4,Win32,143.6575205,,,,,,down,0,0.2571,,-0.117592564,-0.228703746,1,0,0,0,30,30,39,1,laag,images/br_laag.png,images/cb_laag.png,0,,,,,,,,,,,,,,,,,,,,,,
,,,,,00090,2023-10-25_11h54.14.436,vbt_B1_day3,2022.2.4,Win32,143.6575205,,,,,,down,0,0.2794,,-0.117592564,-0.228703746,1,0,0,0,31,31,159,1,sufferd,images/br_sufferd.png,images/cb_sufferd.png,0,,,,,,,,,,,,,,,,,,,,,,
,,,,,00090,2023-10-25_11h54.14.436,vbt_B1_day3,2022.2.4,Win32,143.6575205,,,,,,down,0,0.2187,,-0.117592564,-0.228703746,1,0,0,0,32,32,169,1,oprotten,images/br_oprotten.png,images/cb_oprotten.png,0,,,,,,,,,,,,,,,,,,,,,,
,,,,,00090,2023-10-25_11h54.14.436,vbt_B1_day3,2022.2.4,Win32,143.6575205,,,,,,down,0,0.1753,,-0.117592564,-0.228703746,1,0,0,0,33,33,199,1,beseffen,images/br_beseffen.png,images/cb_beseffen.png,0,,,,,,,,,,,,,,,,,,,,,,
,,,,,00090,2023-10-25_11h54.14.436,vbt_B1_day3,2022.2.4,Win32,143.6575205,,,,,,down,0,0.2793,,-0.117592564,-0.228703746,1,0,0,0,34,34,45,1,piste,images/br_piste.png,images/cb_piste.png,0,,,,,,,,,,,,,,,,,,,,,,
,,,,,00090,2023-10-25_11h54.14.436,vbt_B1_day3,2022.2.4,Win32,143.6575205,,,,,,down,0,0.191,,-0.117592564,-0.228703746,1,0,0,0,35,35,89,1,slapen,images/br_slapen.png,images/cb_slapen.png,0,,,,,,,,,,,,,,,,,,,,,,
,,,,,00090,2023-10-25_11h54.14.436,vbt_B1_day3,2022.2.4,Win32,143.6575205,,,,,,down,0,0.1996,,-0.117592564,-0.228703746,1,0,0,0,36,36,139,1,stiekem,images/br_stiekem.png,images/cb_stiekem.png,0,,,,,,,,,,,,,,,,,,,,,,
,,,,,00090,2023-10-25_11h54.14.436,vbt_B1_day3,2022.2.4,Win32,143.6575205,,,,,,down,0,0.1977,,-0.117592564,-0.228703746,1,0,0,0,37,37,84,1,lokken,images/br_lokken.png,images/cb_lokken.png,0,,,,,,,,,,,,,,,,,,,,,,
,,,,,00090,2023-10-25_11h54.14.436,vbt_B1_day3,2022.2.4,Win32,143.6575205,,,,,,down,0,0.1126,,-0.117592564,-0.228703746,1,0,0,0,38,38,93,1,waarop,images/br_waarop.png,images/cb_waarop.png,0,,,,,,,,,,,,,,,,,,,,,,
,,,,,00090,2023-10-25_11h54.14.436,vbt_B1_day3,2022.2.4,Win32,143.6575205,,,,,,down,0,0.3404,,-0.117592564,-0.228703746,1,0,0,0,39,39,94,1,oceaan,images/br_oceaan.png,images/cb_oceaan.png,0,,,,,,,,,,,,,,,,,,,,,,
,,,,,00090,2023-10-25_11h54.14.436,vbt_B1_day3,2022.2.4,Win32,143.6575205,,,,,,down,0,0.2452,,-0.117592564,-0.228703746,1,0,0,0,40,40,105,1,wijlen,images/br_wijlen.png,images/cb_wijlen.png,0,,,,,,,,,,,,,,,,,,,,,,
,,,,,00090,2023-10-25_11h54.14.436,vbt_B1_day3,2022.2.4,Win32,143.6575205,,,,,,down,0,0.1806,,-0.117592564,-0.228703746,1,0,0,0,41,41,48,1,steel,images/br_steel.png,images/cb_steel.png,0,,,,,,,,,,,,,,,,,,,,,,
,,,,,00090,2023-10-25_11h54.14.436,vbt_B1_day3,2022.2.4,Win32,143.6575205,,,,,,down,0,8.3985,,0.151851866,-0.252777806,1,0,0,0,42,42,141,1,knielen,images/br_knielen.png,images/cb_knielen.png,1,knielen,,,,,,,,,,,,,,,,,,,,,
,,,,,00090,2023-10-25_11h54.14.436,vbt_B1_day3,2022.2.4,Win32,143.6575205,,,,,,down,0,0.1343,,0.151851866,-0.252777806,1,0,0,0,43,43,170,1,schatten,images/br_schatten.png,images/cb_schatten.png,0,,,,,,,,,,,,,,,,,,,,,,
,,,,,00090,2023-10-25_11h54.14.436,vbt_B1_day3,2022.2.4,Win32,143.6575205,,,,,,down,0,3.0355,,0.151851866,-0.252777806,1,0,0,0,44,44,102,1,legaal,images/br_legaal.png,images/cb_legaal.png,1,legaal,,,,,,,,,,,,,,,,,,,,,
,,,,,00090,2023-10-25_11h54.14.436,vbt_B1_day3,2022.2.4,Win32,143.6575205,,,,,,down,0,0.2025,,0.151851866,-0.252777806,1,0,0,0,45,45,99,1,koffie,images/br_koffie.png,images/cb_koffie.png,0,,,,,,,,,,,,,,,,,,,,,,
,,,,,00090,2023-10-25_11h54.14.436,vbt_B1_day3,2022.2.4,Win32,143.6575205,,,,,,down,0,0.2724,,0.151851866,-0.252777806,1,0,0,0,46,46,2,1,jaar,images/br_jaar.png,images/cb_jaar.png,0,,,,,,,,,,,,,,,,,,,,,,
,,,,,00090,2023-10-25_11h54.14.436,vbt_B1_day3,2022.2.4,Win32,143.6575205,,,,,,down,0,0.286,,0.151851866,-0.252777806,1,0,0,0,47,47,57,1,steek,images/br_steek.png,images/cb_steek.png,0,,,,,,,,,,,,,,,,,,,,,,
,,,,,00090,2023-10-25_11h54.14.436,vbt_B1_day3,2022.2.4,Win32,143.6575205,,,,,,down,0,0.1623,,0.151851866,-0.252777806,1,0,0,0,48,48,154,1,aflopen,images/br_aflopen.png,images/cb_aflopen.png,0,,,,,,,,,,,,,,,,,,,,,,
,,,,,00090,2023-10-25_11h54.14.436,vbt_B1_day3,2022.2.4,Win32,143.6575205,,,,,,down,0,0.1852,,0.151851866,-0.252777806,1,0,0,0,49,49,110,1,zuster,images/br_zuster.png,images/cb_zuster.png,0,,,,,,,,,,,,,,,,,,,,,,
,,,,,00090,2023-10-25_11h54.14.436,vbt_B1_day3,2022.2.4,Win32,143.6575205,,,,,,down,0,0.3355,,0.151851866,-0.252777806,1,0,0,0,50,50,11,1,mode,images/br_mode.png,images/cb_mode.png,0,,,,,,,,,,,,,,,,,,,,,,
,,,,,00090,2023-10-25_11h54.14.436,vbt_B1_day3,2022.2.4,Win32,143.6575205,,,,,,down,0,29.5083,,0.127777806,-0.273148148,1,0,0,0,51,51,100,1,geduld,images/br_geduld.png,images/cb_geduld.png,1,geduld,,,,,,,,,,,,,,,,,,,,,
,,,,,00090,2023-10-25_11h54.14.436,vbt_B1_day3,2022.2.4,Win32,143.6575205,,,,,,down,0,0.1968,,0.127777806,-0.273148148,1,0,0,0,52,52,64,1,wegen,images/br_wegen.png,images/cb_wegen.png,0,,,,,,,,,,,,,,,,,,,,,,
,,,,,00090,2023-10-25_11h54.14.436,vbt_B1_day3,2022.2.4,Win32,143.6575205,,,,,,down,0,3.8211,,0.127777806,-0.273148148,1,0,0,0,53,53,38,1,baai,images/br_baai.png,images/cb_baai.png,0,,,,,,,,,,,,,,,,,,,,,,
,,,,,00090,2023-10-25_11h54.14.436,vbt_B1_day3,2022.2.4,Win32,143.6575205,,,,,,down,0,0.2967,,0.127777806,-0.273148148,1,0,0,0,54,54,8,1,knie,images/br_knie.png,images/cb_knie.png,0,,,,,,,,,,,,,,,,,,,,,,
,,,,,00090,2023-10-25_11h54.14.436,vbt_B1_day3,2022.2.4,Win32,143.6575205,,,,,,down,0,0.1531,,0.127777806,-0.273148148,1,0,0,0,55,55,52,1,wagon,images/br_wagon.png,images/cb_wagon.png,0,,,,,,,,,,,,,,,,,,,,,,
,,,,,00090,2023-10-25_11h54.14.436,vbt_B1_day3,2022.2.4,Win32,143.6575205,,,,,,down,0,8.2372,,0.127777806,-0.273148148,1,0,0,0,56,56,168,1,bisschop,images/br_bisschop.png,images/cb_bisschop.png,0,,,,,,,,,,,,,,,,,,,,,,
,,,,,00090,2023-10-25_11h54.14.436,vbt_B1_day3,2022.2.4,Win32,143.6575205,,,,,,down,0,0.2939,,0.127777806,-0.273148148,1,0,0,0,57,57,156,1,rechten,images/br_rechten.png,images/cb_rechten.png,0,,,,,,,,,,,,,,,,,,,,,,
,,,,,00090,2023-10-25_11h54.14.436,vbt_B1_day3,2022.2.4,Win32,143.6575205,,,,,,down,0,0.2713,,0.127777806,-0.273148148,1,0,0,0,58,58,91,1,gezond,images/br_gezond.png,images/cb_gezond.png,0,,,,,,,,,,,,,,,,,,,,,,
,,,,,00090,2023-10-25_11h54.14.436,vbt_B1_day3,2022.2.4,Win32,143.6575205,,,,,,down,0,0.4878,,0.127777806,-0.273148148,1,0,0,0,59,59,135,1,gedicht,images/br_gedicht.png,images/cb_gedicht.png,0,,,,,,,,,,,,,,,,,,,,,,
,,,,,00090,2023-10-25_11h54.14.436,vbt_B1_day3,2022.2.4,Win32,143.6575205,,,,,,down,0,1.3629,,0.127777806,-0.273148148,1,0,0,0,60,60,121,1,twijfel,images/br_twijfel.png,images/cb_twijfel.png,0,,,,,,,,,,,,,,,,,,,,,,
,,,,,00090,2023-10-25_11h54.14.436,vbt_B1_day3,2022.2.4,Win32,143.6575205,,,,,,down,0,0.3834,,0.127777806,-0.273148148,1,0,0,0,61,61,92,1,geheim,images/br_geheim.png,images/cb_geheim.png,0,,,,,,,,,,,,,,,,,,,,,,
,,,,,00090,2023-10-25_11h54.14.436,vbt_B1_day3,2022.2.4,Win32,143.6575205,,,,,,down,0,15.682,,-0.040740755,-0.291666667,1,0,0,0,62,62,182,1,bijkomen,images/br_bijkomen.png,images/cb_bijkomen.png,1,bijkomen,,,,,,,,,,,,,,,,,,,,,
,,,,,00090,2023-10-25_11h54.14.436,vbt_B1_day3,2022.2.4,Win32,143.6575205,,,,,,down,0,4.2863,,-0.040740755,-0.291666667,1,0,0,0,63,63,189,1,aanraden,images/br_aanraden.png,images/cb_aanraden.png,0,,,,,,,,,,,,,,,,,,,,,,
,,,,,00090,2023-10-25_11h54.14.436,vbt_B1_day3,2022.2.4,Win32,143.6575205,,,,,,down,0,0.4596,,-0.040740755,-0.291666667,1,0,0,0,64,64,58,1,tekst,images/br_tekst.png,images/cb_tekst.png,0,,,,,,,,,,,,,,,,,,,,,,
,,,,,00090,2023-10-25_11h54.14.436,vbt_B1_day3,2022.2.4,Win32,143.6575205,,,,,,down,0,0.3553,,-0.040740755,-0.291666667,1,0,0,0,65,65,130,1,keihard,images/br_keihard.png,images/cb_keihard.png,0,,,,,,,,,,,,,,,,,,,,,,
,,,,,00090,2023-10-25_11h54.14.436,vbt_B1_day3,2022.2.4,Win32,143.6575205,,,,,,down,0,0.2648,,-0.040740755,-0.291666667,1,0,0,0,66,66,149,1,redding,images/br_redding.png,images/cb_redding.png,0,,,,,,,,,,,,,,,,,,,,,,
,,,,,00090,2023-10-25_11h54.14.436,vbt_B1_day3,2022.2.4,Win32,143.6575205,,,,,,down,0,15.8505,,-0.040740755,-0.291666667,1,0,0,0,67,67,152,1,afnemen,images/br_afnemen.png,images/cb_afnemen.png,0,,,,,,,,,,,,,,,,,,,,,,
,,,,,00090,2023-10-25_11h54.14.436,vbt_B1_day3,2022.2.4,Win32,143.6575205,,,,,,down,0,0.2019,,-0.040740755,-0.291666667,1,0,0,0,68,68,15,1,soda,images/br_soda.png,images/cb_soda.png,0,,,,,,,,,,,,,,,,,,,,,,
,,,,,00090,2023-10-25_11h54.14.436,vbt_B1_day3,2022.2.4,Win32,143.6575205,,,,,,down,0,0.0138,,-0.040740755,-0.291666667,1,0,0,0,69,69,164,1,anarchie,images/br_anarchie.png,images/cb_anarchie.png,0,,,,,,,,,,,,,,,,,,,,,,
,,,,,00090,2023-10-25_11h54.14.436,vbt_B1_day3,2022.2.4,Win32,143.6575205,,,,,,down,0,0.2454,,-0.040740755,-0.291666667,1,0,0,0,70,70,198,1,bedoelen,images/br_bedoelen.png,images/cb_bedoelen.png,0,,,,,,,,,,,,,,,,,,,,,,
,,,,,00090,2023-10-25_11h54.14.436,vbt_B1_day3,2022.2.4,Win32,143.6575205,,,,,,down,0,0.2422,,-0.040740755,-0.291666667,1,0,0,0,71,71,26,1,leuk,images/br_leuk.png,images/cb_leuk.png,0,,,,,,,,,,,,,,,,,,,,,,
,,,,,00090,2023-10-25_11h54.14.436,vbt_B1_day3,2022.2.4,Win32,143.6575205,,,,,,down,0,0.2244,,-0.040740755,-0.291666667,1,0,0,0,72,72,127,1,doodmoe,images/br_doodmoe.png,images/cb_doodmoe.png,0,,,,,,,,,,,,,,,,,,,,,,
,,,,,00090,2023-10-25_11h54.14.436,vbt_B1_day3,2022.2.4,Win32,143.6575205,,,,,,down,0,0.3162,,-0.040740755,-0.291666667,1,0,0,0,73,73,86,1,woning,images/br_woning.png,images/cb_woning.png,0,,,,,,,,,,,,,,,,,,,,,,
,,,,,00090,2023-10-25_11h54.14.436,vbt_B1_day3,2022.2.4,Win32,143.6575205,,,,,,down,0,0.0516,,-0.040740755,-0.291666667,1,0,0,0,74,74,49,1,laken,images/br_laken.png,images/cb_laken.png,0,,,,,,,,,,,,,,,,,,,,,,
,,,,,00090,2023-10-25_11h54.14.436,vbt_B1_day3,2022.2.4,Win32,143.6575205,,,,,,down,0,0.8275,,-0.040740755,-0.291666667,1,0,0,0,75,75,12,1,kust,images/br_kust.png,images/cb_kust.png,0,,,,,,,,,,,,,,,,,,,,,,
,,,,,00090,2023-10-25_11h54.14.436,vbt_B1_day3,2022.2.4,Win32,143.6575205,,,,,,down,0,0.7791,,-0.040740755,-0.291666667,1,0,0,0,76,76,78,1,leren,images/br_leren.png,images/cb_leren.png,0,,,,,,,,,,,,,,,,,,,,,,
,,,,,00090,2023-10-25_11h54.14.436,vbt_B1_day3,2022.2.4,Win32,143.6575205,,,,,,down,0,4.1194,,-0.040740755,-0.291666667,1,0,0,0,77,77,144,1,eetlust,images/br_eetlust.png,images/cb_eetlust.png,0,,,,,,,,,,,,,,,,,,,,,,
,,,,,00090,2023-10-25_11h54.14.436,vbt_B1_day3,2022.2.4,Win32,143.6575205,,,,,,down,0,39.2307,,0.069444444,-0.300925926,1,0,0,0,78,78,22,1,stof,images/br_stof.png,images/cb_stof.png,1,stof,,,,,,,,,,,,,,,,,,,,,
,,,,,00090,2023-10-25_11h54.14.436,vbt_B1_day3,2022.2.4,Win32,143.6575205,,,,,,down,0,0.3565,,0.069444444,-0.300925926,1,0,0,0,79,79,171,1,aarzelen,images/br_aarzelen.png,images/cb_aarzelen.png,0,,,,,,,,,,,,,,,,,,,,,,
,,,,,00090,2023-10-25_11h54.14.436,vbt_B1_day3,2022.2.4,Win32,143.6575205,,,,,,down,0,0.029,,0.069444444,-0.300925926,1,0,0,0,80,80,65,1,parel,images/br_parel.png,images/cb_parel.png,0,,,,,,,,,,,,,,,,,,,,,,
,,,,,00090,2023-10-25_11h54.14.436,vbt_B1_day3,2022.2.4,Win32,143.6575205,,,,,,down,0,0.244,,0.069444444,-0.300925926,1,0,0,0,81,81,68,1,schat,images/br_schat.png,images/cb_schat.png,0,,,,,,,,,,,,,,,,,,,,,,
,,,,,00090,2023-10-25_11h54.14.436,vbt_B1_day3,2022.2.4,Win32,143.6575205,,,,,,down,0,0.23,,0.069444444,-0.300925926,1,0,0,0,82,82,185,1,mijnheer,images/br_mijnheer.png,images/cb_mijnheer.png,0,,,,,,,,,,,,,,,,,,,,,,
,,,,,00090,2023-10-25_11h54.14.436,vbt_B1_day3,2022.2.4,Win32,143.6575205,,,,,,down,0,9.4334,,0.069444444,-0.300925926,1,0,0,0,83,83,140,1,blijven,images/br_blijven.png,images/cb_blijven.png,1,blijven,,,,,,,,,,,,,,,,,,,,,
,,,,,00090,2023-10-25_11h54.14.436,vbt_B1_day3,2022.2.4,Win32,143.6575205,,,,,,down,0,0.2308,,0.069444444,-0.300925926,1,0,0,0,84,84,25,1,plek,images/br_plek.png,images/cb_plek.png,0,,,,,,,,,,,,,,,,,,,,,,
,,,,,00090,2023-10-25_11h54.14.436,vbt_B1_day3,2022.2.4,Win32,143.6575205,,,,,,down,0,0.2179,,0.069444444,-0.300925926,1,0,0,0,85,85,167,1,eenhoorn,images/br_eenhoorn.png,images/cb_eenhoorn.png,0,,,,,,,,,,,,,,,,,,,,,,
,,,,,00090,2023-10-25_11h54.14.436,vbt_B1_day3,2022.2.4,Win32,143.6575205,,,,,,down,0,0.1604,,0.069444444,-0.300925926,1,0,0,0,86,86,184,1,aandelen,images/br_aandelen.png,images/cb_aandelen.png,0,,,,,,,,,,,,,,,,,,,,,,
,,,,,00090,2023-10-25_11h54.14.436,vbt_B1_day3,2022.2.4,Win32,143.6575205,,,,,,down,0,0.2226,,0.069444444,-0.300925926,1,0,0,0,87,87,3,1,mand,images/br_mand.png,images/cb_mand.png,0,,,,,,,,,,,,,,,,,,,,,,
,,,,,00090,2023-10-25_11h54.14.436,vbt_B1_day3,2022.2.4,Win32,143.6575205,,,,,,down,0,0.1815,,0.069444444,-0.300925926,1,0,0,0,88,88,35,1,lust,images/br_lust.png,images/cb_lust.png,0,,,,,,,,,,,,,,,,,,,,,,
,,,,,00090,2023-10-25_11h54.14.436,vbt_B1_day3,2022.2.4,Win32,143.6575205,,,,,,down,0,0.1808,,0.069444444,-0.300925926,1,0,0,0,89,89,160,1,daarheen,images/br_daarheen.png,images/cb_daarheen.png,0,,,,,,,,,,,,,,,,,,,,,,
,,,,,00090,2023-10-25_11h54.14.436,vbt_B1_day3,2022.2.4,Win32,143.6575205,,,,,,down,0,0.2185,,0.069444444,-0.300925926,1,0,0,0,90,90,82,1,muziek,images/br_muziek.png,images/cb_muziek.png,0,,,,,,,,,,,,,,,,,,,,,,
,,,,,00090,2023-10-25_11h54.14.436,vbt_B1_day3,2022.2.4,Win32,143.6575205,,,,,,down,0,0.2274,,0.069444444,-0.300925926,1,0,0,0,91,91,4,1,moes,images/br_moes.png,images/cb_moes.png,0,,,,,,,,,,,,,,,,,,,,,,
,,,,,00090,2023-10-25_11h54.14.436,vbt_B1_day3,2022.2.4,Win32,143.6575205,,,,,,down,0,0.5356,,0.069444444,-0.300925926,1,0,0,0,92,92,172,1,weigeren,images/br_weigeren.png,images/cb_weigeren.png,0,,,,,,,,,,,,,,,,,,,,,,
,,,,,00090,2023-10-25_11h54.14.436,vbt_B1_day3,2022.2.4,Win32,143.6575205,,,,,,down,0,0.1676,,0.069444444,-0.300925926,1,0,0,0,93,93,79,1,nodig,images/br_nodig.png,images/cb_nodig.png,0,,,,,,,,,,,,,,,,,,,,,,
,,,,,00090,2023-10-25_11h54.14.436,vbt_B1_day3,2022.2.4,Win32,143.6575205,,,,,,down,0,0.3146,,0.069444444,-0.300925926,1,0,0,0,94,94,59,1,kring,images/br_kring.png,images/cb_kring.png,0,,,,,,,,,,,,,,,,,,,,,,
,,,,,00090,2023-10-25_11h54.14.436,vbt_B1_day3,2022.2.4,Win32,143.6575205,,,,,,down,0,0.2158,,0.069444444,-0.300925926,1,0,0,0,95,95,193,1,weeshuis,images/br_weeshuis.png,images/cb_weeshuis.png,0,,,,,,,,,,,,,,,,,,,,,,
,,,,,00090,2023-10-25_11h54.14.436,vbt_B1_day3,2022.2.4,Win32,143.6575205,,,,,,down,0,0.1948,,0.069444444,-0.300925926,1,0,0,0,96,96,24,1,jurk,images/br_jurk.png,images/cb_jurk.png,0,,,,,,,,,,,,,,,,,,,,,,
,,,,,00090,2023-10-25_11h54.14.436,vbt_B1_day3,2022.2.4,Win32,143.6575205,,,,,,down,0,0.2845,,0.069444444,-0.300925926,1,0,0,0,97,97,163,1,schuilen,images/br_schuilen.png,images/cb_schuilen.png,0,,,,,,,,,,,,,,,,,,,,,,
,,,,,00090,2023-10-25_11h54.14.436,vbt_B1_day3,2022.2.4,Win32,143.6575205,,,,,,down,0,0.1995,,0.069444444,-0.300925926,1,0,0,0,98,98,123,1,hiervan,images/br_hiervan.png,images/cb_hiervan.png,0,,,,,,,,,,,,,,,,,,,,,,
,,,,,00090,2023-10-25_11h54.14.436,vbt_B1_day3,2022.2.4,Win32,143.6575205,,,,,,down,0,0.3813,,0.069444444,-0.300925926,1,0,0,0,99,99,108,1,excuus,images/br_excuus.png,images/cb_excuus.png,0,,,,,,,,,,,,,,,,,,,,,,
,,,,,00090,2023-10-25_11h54.14.436,vbt_B1_day3,2022.2.4,Win32,143.6575205,,,,,,down,0,0.3562,,0.069444444,-0.300925926,1,0,0,0,100,100,125,1,aanzien,images/br_aanzien.png,images/cb_aanzien.png,0,,,,,,,,,,,,,,,,,,,,,,
,,,,,00090,2023-10-25_11h54.14.436,vbt_B1_day3,2022.2.4,Win32,143.6575205,,,,,,down,0,0.3346,,0.069444444,-0.300925926,1,0,0,0,101,101,158,1,innemen,images/br_innemen.png,images/cb_innemen.png,0,,,,,,,,,,,,,,,,,,,,,,
,,,,,00090,2023-10-25_11h54.14.436,vbt_B1_day3,2022.2.4,Win32,143.6575205,,,,,,down,0,0.8613,,0.069444444,-0.300925926,1,0,0,0,102,102,194,1,driemaal,images/br_driemaal.png,images/cb_driemaal.png,0,,,,,,,,,,,,,,,,,,,,,,
,,,,,00090,2023-10-25_11h54.14.436,vbt_B1_day3,2022.2.4,Win32,143.6575205,,,,,,down,0,0.3281,,0.069444444,-0.300925926,1,0,0,0,103,103,98,1,kreeft,images/br_kreeft.png,images/cb_kreeft.png,0,,,,,,,,,,,,,,,,,,,,,,
,,,,,00090,2023-10-25_11h54.14.436,vbt_B1_day3,2022.2.4,Win32,143.6575205,,,,,,down,0,0.1479,,0.069444444,-0.300925926,1,0,0,0,104,104,50,1,stoom,images/br_stoom.png,images/cb_stoom.png,0,,,,,,,,,,,,,,,,,,,,,,
,,,,,00090,2023-10-25_11h54.14.436,vbt_B1_day3,2022.2.4,Win32,143.6575205,,,,,,down,0,0.2322,,0.069444444,-0.300925926,1,0,0,0,105,105,43,1,klauw,images/br_klauw.png,images/cb_klauw.png,0,,,,,,,,,,,,,,,,,,,,,,
,,,,,00090,2023-10-25_11h54.14.436,vbt_B1_day3,2022.2.4,Win32,143.6575205,,,,,,down,0,0.2659,,0.069444444,-0.300925926,1,0,0,0,106,106,69,1,waken,images/br_waken.png,images/cb_waken.png,0,,,,,,,,,,,,,,,,,,,,,,
,,,,,00090,2023-10-25_11h54.14.436,vbt_B1_day3,2022.2.4,Win32,143.6575205,,,,,,down,0,0.3864,,0.069444444,-0.300925926,1,0,0,0,107,107,56,1,traag,images/br_traag.png,images/cb_traag.png,0,,,,,,,,,,,,,,,,,,,,,,
,,,,,00090,2023-10-25_11h54.14.436,vbt_B1_day3,2022.2.4,Win32,143.6575205,,,,,,down,0,0.3062,,0.069444444,-0.300925926,1,0,0,0,108,108,104,1,zweven,images/br_zweven.png,images/cb_zweven.png,0,,,,,,,,,,,,,,,,,,,,,,
,,,,,00090,2023-10-25_11h54.14.436,vbt_B1_day3,2022.2.4,Win32,143.6575205,,,,,,down,0,0.1738,,0.069444444,-0.300925926,1,0,0,0,109,109,186,1,voorraad,images/br_voorraad.png,images/cb_voorraad.png,0,,,,,,,,,,,,,,,,,,,,,,
,,,,,00090,2023-10-25_11h54.14.436,vbt_B1_day3,2022.2.4,Win32,143.6575205,,,,,,down,0,0.1487,,0.069444444,-0.300925926,1,0,0,0,110,110,147,1,komisch,images/br_komisch.png,images/cb_komisch.png,0,,,,,,,,,,,,,,,,,,,,,,
,,,,,00090,2023-10-25_11h54.14.436,vbt_B1_day3,2022.2.4,Win32,143.6575205,,,,,,down,0,0.2768,,0.069444444,-0.300925926,1,0,0,0,111,111,166,1,strikken,images/br_strikken.png,images/cb_strikken.png,0,,,,,,,,,,,,,,,,,,,,,,
,,,,,00090,2023-10-25_11h54.14.436,vbt_B1_day3,2022.2.4,Win32,143.6575205,,,,,,down,0,0.4042,,0.069444444,-0.300925926,1,0,0,0,112,112,150,1,gegeven,images/br_gegeven.png,images/cb_gegeven.png,0,,,,,,,,,,,,,,,,,,,,,,
,,,,,00090,2023-10-25_11h54.14.436,vbt_B1_day3,2022.2.4,Win32,143.6575205,,,,,,down,0,3.7578,,0.069444444,-0.300925926,1,0,0,0,113,113,62,1,knaap,images/br_knaap.png,images/cb_knaap.png,1,knaap,,,,,,,,,,,,,,,,,,,,,
,,,,,00090,2023-10-25_11h54.14.436,vbt_B1_day3,2022.2.4,Win32,143.6575205,,,,,,down,0,0.2452,,0.069444444,-0.300925926,1,0,0,0,114,114,118,1,vinger,images/br_vinger.png,images/cb_vinger.png,0,,,,,,,,,,,,,,,,,,,,,,
,,,,,00090,2023-10-25_11h54.14.436,vbt_B1_day3,2022.2.4,Win32,143.6575205,,,,,,down,0,0.1603,,0.069444444,-0.300925926,1,0,0,0,115,115,13,1,kaal,images/br_kaal.png,images/cb_kaal.png,0,,,,,,,,,,,,,,,,,,,,,,
,,,,,00090,2023-10-25_11h54.14.436,vbt_B1_day3,2022.2.4,Win32,143.6575205,,,,,,down,0,5.9665,,0.069444444,-0.300925926,1,0,0,0,116,116,180,1,openbaar,images/br_openbaar.png,images/cb_openbaar.png,1,openbaar,,,,,,,,,,,,,,,,,,,,,
,,,,,00090,2023-10-25_11h54.14.436,vbt_B1_day3,2022.2.4,Win32,143.6575205,,,,,,down,0,0.2522,,0.069444444,-0.300925926,1,0,0,0,117,117,14,1,rijp,images/br_rijp.png,images/cb_rijp.png,0,,,,,,,,,,,,,,,,,,,,,,
,,,,,00090,2023-10-25_11h54.14.436,vbt_B1_day3,2022.2.4,Win32,143.6575205,,,,,,down,0,0.176,,0.069444444,-0.300925926,1,0,0,0,118,118,72,1,strak,images/br_strak.png,images/cb_strak.png,0,,,,,,,,,,,,,,,,,,,,,,
,,,,,00090,2023-10-25_11h54.14.436,vbt_B1_day3,2022.2.4,Win32,143.6575205,,,,,,down,0,0.1195,,0.069444444,-0.300925926,1,0,0,0,119,119,9,1,hier,images/br_hier.png,images/cb_hier.png,0,,,,,,,,,,,,,,,,,,,,,,
,,,,,00090,2023-10-25_11h54.14.436,vbt_B1_day3,2022.2.4,Win32,143.6575205,,,,,,down,0,0.3092,,0.069444444,-0.300925926,1,0,0,0,120,120,73,1,volop,images/br_volop.png,images/cb_volop.png,0,,,,,,,,,,,,,,,,,,,,,,
,,,,,00090,2023-10-25_11h54.14.436,vbt_B1_day3,2022.2.4,Win32,143.6575205,,,,,,down,0,0.2389,,0.069444444,-0.300925926,1,0,0,0,121,121,77,1,woede,images/br_woede.png,images/cb_woede.png,0,,,,,,,,,,,,,,,,,,,,,,
,,,,,00090,2023-10-25_11h54.14.436,vbt_B1_day3,2022.2.4,Win32,143.6575205,,,,,,down,0,0.2445,,0.069444444,-0.300925926,1,0,0,0,122,122,153,1,vervoer,images/br_vervoer.png,images/cb_vervoer.png,0,,,,,,,,,,,,,,,,,,,,,,
,,,,,00090,2023-10-25_11h54.14.436,vbt_B1_day3,2022.2.4,Win32,143.6575205,,,,,,down,0,0.3066,,0.069444444,-0.300925926,1,0,0,0,123,123,85,1,heilig,images/br_heilig.png,images/cb_heilig.png,0,,,,,,,,,,,,,,,,,,,,,,
,,,,,00090,2023-10-25_11h54.14.436,vbt_B1_day3,2022.2.4,Win32,143.6575205,,,,,,down,0,0.224,,0.069444444,-0.300925926,1,0,0,0,124,124,36,1,vuur,images/br_vuur.png,images/cb_vuur.png,0,,,,,,,,,,,,,,,,,,,,,,
,,,,,00090,2023-10-25_11h54.14.436,vbt_B1_day3,2022.2.4,Win32,143.6575205,,,,,,down,0,0.2488,,0.069444444,-0.300925926,1,0,0,0,125,125,112,1,lukken,images/br_lukken.png,images/cb_lukken.png,0,,,,,,,,,,,,,,,,,,,,,,
,,,,,00090,2023-10-25_11h54.14.436,vbt_B1_day3,2022.2.4,Win32,143.6575205,,,,,,down,0,4.4332,,0.069444444,-0.300925926,1,0,0,0,126,126,23,1,zout,images/br_zout.png,images/cb_zout.png,1,zout,,,,,,,,,,,,,,,,,,,,,
,,,,,00090,2023-10-25_11h54.14.436,vbt_B1_day3,2022.2.4,Win32,143.6575205,,,,,,down,0,0.208,,0.069444444,-0.300925926,1,0,0,0,127,127,161,1,attentie,images/br_attentie.png,images/cb_attentie.png,0,,,,,,,,,,,,,,,,,,,,,,
,,,,,00090,2023-10-25_11h54.14.436,vbt_B1_day3,2022.2.4,Win32,143.6575205,,,,,,down,0,0.1819,,0.069444444,-0.300925926,1,0,0,0,128,128,155,1,gerucht,images/br_gerucht.png,images/cb_gerucht.png,0,,,,,,,,,,,,,,,,,,,,,,
,,,,,00090,2023-10-25_11h54.14.436,vbt_B1_day3,2022.2.4,Win32,143.6575205,,,,,,down,0,0.1886,,0.069444444,-0.300925926,1,0,0,0,129,129,148,1,smullen,images/br_smullen.png,images/cb_smullen.png,0,,,,,,,,,,,,,,,,,,,,,,
,,,,,00090,2023-10-25_11h54.14.436,vbt_B1_day3,2022.2.4,Win32,143.6575205,,,,,,down,0,0.2923,,0.069444444,-0.300925926,1,0,0,0,130,130,10,1,leek,images/br_leek.png,images/cb_leek.png,0,,,,,,,,,,,,,,,,,,,,,,
,,,,,00090,2023-10-25_11h54.14.436,vbt_B1_day3,2022.2.4,Win32,143.6575205,,,,,,down,0,0.0916,,0.069444444,-0.300925926,1,0,0,0,131,131,175,1,heengaan,images/br_heengaan.png,images/cb_heengaan.png,0,,,,,,,,,,,,,,,,,,,,,,
,,,,,00090,2023-10-25_11h54.14.436,vbt_B1_day3,2022.2.4,Win32,143.6575205,,,,,,down,0,0.4346,,0.069444444,-0.300925926,1,0,0,0,132,132,187,1,opkijken,images/br_opkijken.png,images/cb_opkijken.png,0,,,,,,,,,,,,,,,,,,,,,,
,,,,,00090,2023-10-25_11h54.14.436,vbt_B1_day3,2022.2.4,Win32,143.6575205,,,,,,down,0,0.2317,,0.069444444,-0.300925926,1,0,0,0,133,133,97,1,loyaal,images/br_loyaal.png,images/cb_loyaal.png,0,,,,,,,,,,,,,,,,,,,,,,
,,,,,00090,2023-10-25_11h54.14.436,vbt_B1_day3,2022.2.4,Win32,143.6575205,,,,,,down,0,6.8846,,0.211111139,-0.279629672,1,0,0,0,134,134,21,1,mist,images/br_mist.png,images/cb_mist.png,1,mist,,,,,,,,,,,,,,,,,,,,,
,,,,,00090,2023-10-25_11h54.14.436,vbt_B1_day3,2022.2.4,Win32,143.6575205,,,,,,down,0,0.2605,,0.211111139,-0.279629672,1,0,0,0,135,135,176,1,techniek,images/br_techniek.png,images/cb_techniek.png,0,,,,,,,,,,,,,,,,,,,,,,
,,,,,00090,2023-10-25_11h54.14.436,vbt_B1_day3,2022.2.4,Win32,143.6575205,,,,,,down,0,0.2768,,0.211111139,-0.279629672,1,0,0,0,136,136,32,1,palm,images/br_palm.png,images/cb_palm.png,0,,,,,,,,,,,,,,,,,,,,,,
,,,,,00090,2023-10-25_11h54.14.436,vbt_B1_day3,2022.2.4,Win32,143.6575205,,,,,,down,0,0.1843,,0.211111139,-0.279629672,1,0,0,0,137,137,136,1,waarbij,images/br_waarbij.png,images/cb_waarbij.png,0,,,,,,,,,,,,,,,,,,,,,,
,,,,,00090,2023-10-25_11h54.14.436,vbt_B1_day3,2022.2.4,Win32,143.6575205,,,,,,down,0,0.1393,,0.211111139,-0.279629672,1,0,0,0,138,138,116,1,besmet,images/br_besmet.png,images/cb_besmet.png,0,,,,,,,,,,,,,,,,,,,,,,
,,,,,00090,2023-10-25_11h54.14.436,vbt_B1_day3,2022.2.4,Win32,143.6575205,,,,,,down,0,0.2127,,0.211111139,-0.279629672,1,0,0,0,139,139,70,1,ijdel,images/br_ijdel.png,images/cb_ijdel.png,0,,,,,,,,,,,,,,,,,,,,,,
,,,,,00090,2023-10-25_11h54.14.436,vbt_B1_day3,2022.2.4,Win32,143.6575205,,,,,,down,0,0.1347,,0.211111139,-0.279629672,1,0,0,0,140,140,162,1,uitdelen,images/br_uitdelen.png,images/cb_uitdelen.png,0,,,,,,,,,,,,,,,,,,,,,,
,,,,,00090,2023-10-25_11h54.14.436,vbt_B1_day3,2022.2.4,Win32,143.6575205,,,,,,down,0,0.2398,,0.211111139,-0.279629672,1,0,0,0,141,141,28,1,stal,images/br_stal.png,images/cb_stal.png,0,,,,,,,,,,,,,,,,,,,,,,
,,,,,00090,2023-10-25_11h54.14.436,vbt_B1_day3,2022.2.4,Win32,143.6575205,,,,,,down,0,0.2166,,0.211111139,-0.279629672,1,0,0,0,142,142,192,1,schaamte,images/br_schaamte.png,images/cb_schaamte.png,0,,,,,,,,,,,,,,,,,,,,,,
,,,,,00090,2023-10-25_11h54.14.436,vbt_B1_day3,2022.2.4,Win32,143.6575205,,,,,,down,0,0.0795,,0.211111139,-0.279629672,1,0,0,0,143,143,71,1,bever,images/br_bever.png,images/cb_bever.png,0,,,,,,,,,,,,,,,,,,,,,,
,,,,,00090,2023-10-25_11h54.14.436,vbt_B1_day3,2022.2.4,Win32,143.6575205,,,,,,down,0,0.349,,0.211111139,-0.279629672,1,0,0,0,144,144,107,1,maling,images/br_maling.png,images/cb_maling.png,0,,,,,,,,,,,,,,,,,,,,,,
,,,,,00090,2023-10-25_11h54.14.436,vbt_B1_day3,2022.2.4,Win32,143.6575205,,,,,,down,0,0.1382,,0.211111139,-0.279629672,1,0,0,0,145,145,196,1,nakijken,images/br_nakijken.png,images/cb_nakijken.png,0,,,,,,,,,,,,,,,,,,,,,,
,,,,,00090,2023-10-25_11h54.14.436,vbt_B1_day3,2022.2.4,Win32,143.6575205,,,,,,down,0,0.1325,,0.211111139,-0.279629672,1,0,0,0,146,146,195,1,middelen,images/br_middelen.png,images/cb_middelen.png,0,,,,,,,,,,,,,,,,,,,,,,
,,,,,00090,2023-10-25_11h54.14.436,vbt_B1_day3,2022.2.4,Win32,143.6575205,,,,,,down,0,0.3334,,0.211111139,-0.279629672,1,0,0,0,147,147,122,1,waarvan,images/br_waarvan.png,images/cb_waarvan.png,0,,,,,,,,,,,,,,,,,,,,,,
,,,,,00090,2023-10-25_11h54.14.436,vbt_B1_day3,2022.2.4,Win32,143.6575205,,,,,,down,0,9.8777,,0.23055557,-0.187037079,1,0,0,0,148,148,63,1,flirt,images/br_flirt.png,images/cb_flirt.png,1,flirt,,,,,,,,,,,,,,,,,,,,,
,,,,,00090,2023-10-25_11h54.14.436,vbt_B1_day3,2022.2.4,Win32,143.6575205,,,,,,down,0,0.549,,0.23055557,-0.187037079,1,0,0,0,149,149,111,1,ticket,images/br_ticket.png,images/cb_ticket.png,0,,,,,,,,,,,,,,,,,,,,,,
,,,,,00090,2023-10-25_11h54.14.436,vbt_B1_day3,2022.2.4,Win32,143.6575205,,,,,,down,0,0.1857,,0.23055557,-0.187037079,1,0,0,0,150,150,138,1,akkoord,images/br_akkoord.png,images/cb_akkoord.png,0,,,,,,,,,,,,,,,,,,,,,,
,,,,,00090,2023-10-25_11h54.14.436,vbt_B1_day3,2022.2.4,Win32,143.6575205,,,,,,down,0,0.2163,,0.23055557,-0.187037079,1,0,0,0,151,151,17,1,taal,images/br_taal.png,images/cb_taal.png,0,,,,,,,,,,,,,,,,,,,,,,
,,,,,00090,2023-10-25_11h54.14.436,vbt_B1_day3,2022.2.4,Win32,143.6575205,,,,,,down,0,0.0844,,0.23055557,-0.187037079,1,0,0,0,152,152,131,1,opzicht,images/br_opzicht.png,images/cb_opzicht.png,0,,,,,,,,,,,,,,,,,,,,,,
,,,,,00090,2023-10-25_11h54.14.436,vbt_B1_day3,2022.2.4,Win32,143.6575205,,,,,,down,0,0.2155,,0.23055557,-0.187037079,1,0,0,0,153,153,47,1,kabel,images/br_kabel.png,images/cb_kabel.png,0,,,,,,,,,,,,,,,,,,,,,,
,,,,,00090,2023-10-25_11h54.14.436,vbt_B1_day3,2022.2.4,Win32,143.6575205,,,,,,down,0,0.294,,0.23055557,-0.187037079,1,0,0,0,154,154,157,1,uitlaat,images/br_uitlaat.png,images/cb_uitlaat.png,0,,,,,,,,,,,,,,,,,,,,,,
,,,,,00090,2023-10-25_11h54.14.436,vbt_B1_day3,2022.2.4,Win32,143.6575205,,,,,,down,0,0.342,,0.23055557,-0.187037079,1,0,0,0,155,155,67,1,zwart,images/br_zwart.png,images/cb_zwart.png,0,,,,,,,,,,,,,,,,,,,,,,
,,,,,00090,2023-10-25_11h54.14.436,vbt_B1_day3,2022.2.4,Win32,143.6575205,,,,,,down,0,0.3186,,0.23055557,-0.187037079,1,0,0,0,156,156,66,1,lever,images/br_lever.png,images/cb_lever.png,0,,,,,,,,,,,,,,,,,,,,,,
,,,,,00090,2023-10-25_11h54.14.436,vbt_B1_day3,2022.2.4,Win32,143.6575205,,,,,,down,0,0.1884,,0.23055557,-0.187037079,1,0,0,0,157,157,106,1,zingen,images/br_zingen.png,images/cb_zingen.png,0,,,,,,,,,,,,,,,,,,,,,,
,,,,,00090,2023-10-25_11h54.14.436,vbt_B1_day3,2022.2.4,Win32,143.6575205,,,,,,down,0,0.1962,,0.23055557,-0.187037079,1,0,0,0,158,158,81,1,dubbel,images/br_dubbel.png,images/cb_dubbel.png,0,,,,,,,,,,,,,,,,,,,,,,
,,,,,00090,2023-10-25_11h54.14.436,vbt_B1_day3,2022.2.4,Win32,143.6575205,,,,,,down,0,0.2905,,0.23055557,-0.187037079,1,0,0,0,159,159,197,1,spanning,images/br_spanning.png,images/cb_spanning.png,0,,,,,,,,,,,,,,,,,,,,,,
,,,,,00090,2023-10-25_11h54.14.436,vbt_B1_day3,2022.2.4,Win32,143.6575205,,,,,,down,0,0.2024,,0.23055557,-0.187037079,1,0,0,0,160,160,120,1,klimmen,images/br_klimmen.png,images/cb_klimmen.png,0,,,,,,,,,,,,,,,,,,,,,,
,,,,,00090,2023-10-25_11h54.14.436,vbt_B1_day3,2022.2.4,Win32,143.6575205,,,,,,down,0,0.0003,,0.23055557,-0.187037079,1,0,0,0,161,161,178,1,huisdier,images/br_huisdier.png,images/cb_huisdier.png,0,,,,,,,,,,,,,,,,,,,,,,
,,,,,00090,2023-10-25_11h54.14.436,vbt_B1_day3,2022.2.4,Win32,143.6575205,,,,,,down,0,0.0837,,0.23055557,-0.187037079,1,0,0,0,162,162,18,1,blik,images/br_blik.png,images/cb_blik.png,0,,,,,,,,,,,,,,,,,,,,,,
,,,,,00090,2023-10-25_11h54.14.436,vbt_B1_day3,2022.2.4,Win32,143.6575205,,,,,,down,0,0.2849,,0.23055557,-0.187037079,1,0,0,0,163,163,129,1,verhaal,images/br_verhaal.png,images/cb_verhaal.png,0,,,,,,,,,,,,,,,,,,,,,,
,,,,,00090,2023-10-25_11h54.14.436,vbt_B1_day3,2022.2.4,Win32,143.6575205,,,,,,down,0,0.9755,,0.23055557,-0.187037079,1,0,0,0,164,164,0,1,slak,images/br_slak.png,images/cb_slak.png,0,,,,,,,,,,,,,,,,,,,,,,
,,,,,00090,2023-10-25_11h54.14.436,vbt_B1_day3,2022.2.4,Win32,143.6575205,,,,,,down,0,0.2436,,0.23055557,-0.187037079,1,0,0,0,165,165,145,1,invloed,images/br_invloed.png,images/cb_invloed.png,0,,,,,,,,,,,,,,,,,,,,,,
,,,,,00090,2023-10-25_11h54.14.436,vbt_B1_day3,2022.2.4,Win32,143.6575205,,,,,,down,0,10.9182,,0.23055557,-0.187037079,1,0,0,0,166,166,101,1,staren,images/br_staren.png,images/cb_staren.png,1,staren,,,,,,,,,,,,,,,,,,,,,
,,,,,00090,2023-10-25_11h54.14.436,vbt_B1_day3,2022.2.4,Win32,143.6575205,,,,,,down,0,0.2721,,0.23055557,-0.187037079,1,0,0,0,167,167,133,1,seizoen,images/br_seizoen.png,images/cb_seizoen.png,0,,,,,,,,,,,,,,,,,,,,,,
,,,,,00090,2023-10-25_11h54.14.436,vbt_B1_day3,2022.2.4,Win32,143.6575205,,,,,,down,0,0.2346,,0.23055557,-0.187037079,1,0,0,0,168,168,119,1,liefje,images/br_liefje.png,images/cb_liefje.png,0,,,,,,,,,,,,,,,,,,,,,,
,,,,,00090,2023-10-25_11h54.14.436,vbt_B1_day3,2022.2.4,Win32,143.6575205,,,,,,down,0,0.2506,,0.23055557,-0.187037079,1,0,0,0,169,169,34,1,vorm,images/br_vorm.png,images/cb_vorm.png,0,,,,,,,,,,,,,,,,,,,,,,
,,,,,00090,2023-10-25_11h54.14.436,vbt_B1_day3,2022.2.4,Win32,143.6575205,,,,,,down,0,0.3831,,0.23055557,-0.187037079,1,0,0,0,170,170,146,1,opkomen,images/br_opkomen.png,images/cb_opkomen.png,0,,,,,,,,,,,,,,,,,,,,,,
,,,,,00090,2023-10-25_11h54.14.436,vbt_B1_day3,2022.2.4,Win32,143.6575205,,,,,,down,0,0.104,,0.23055557,-0.187037079,1,0,0,0,171,171,55,1,praat,images/br_praat.png,images/cb_praat.png,0,,,,,,,,,,,,,,,,,,,,,,
,,,,,00090,2023-10-25_11h54.14.436,vbt_B1_day3,2022.2.4,Win32,143.6575205,,,,,,down,0,0.2779,,0.23055557,-0.187037079,1,0,0,0,172,172,83,1,mening,images/br_mening.png,images/cb_mening.png,0,,,,,,,,,,,,,,,,,,,,,,
,,,,,00090,2023-10-25_11h54.14.436,vbt_B1_day3,2022.2.4,Win32,143.6575205,,,,,,down,0,0.3535,,0.23055557,-0.187037079,1,0,0,0,173,173,96,1,slagen,images/br_slagen.png,images/cb_slagen.png,0,,,,,,,,,,,,,,,,,,,,,,
,,,,,00090,2023-10-25_11h54.14.436,vbt_B1_day3,2022.2.4,Win32,143.6575205,,,,,,down,0,0.168,,0.23055557,-0.187037079,1,0,0,0,174,174,124,1,bloeien,images/br_bloeien.png,images/cb_bloeien.png,0,,,,,,,,,,,,,,,,,,,,,,
,,,,,00090,2023-10-25_11h54.14.436,vbt_B1_day3,2022.2.4,Win32,143.6575205,,,,,,down,0,0.2097,,0.23055557,-0.187037079,1,0,0,0,175,175,29,1,baas,images/br_baas.png,images/cb_baas.png,0,,,,,,,,,,,,,,,,,,,,,,
,,,,,00090,2023-10-25_11h54.14.436,vbt_B1_day3,2022.2.4,Win32,143.6575205,,,,,,down,0,0.1765,,0.23055557,-0.187037079,1,0,0,0,176,176,95,1,vreten,images/br_vreten.png,images/cb_vreten.png,0,,,,,,,,,,,,,,,,,,,,,,
,,,,,00090,2023-10-25_11h54.14.436,vbt_B1_day3,2022.2.4,Win32,143.6575205,,,,,,down,0,0.3062,,0.23055557,-0.187037079,1,0,0,0,177,177,44,1,flits,images/br_flits.png,images/cb_flits.png,0,,,,,,,,,,,,,,,,,,,,,,
,,,,,00090,2023-10-25_11h54.14.436,vbt_B1_day3,2022.2.4,Win32,143.6575205,,,,,,down,0,0.1686,,0.23055557,-0.187037079,1,0,0,0,178,178,19,1,geit,images/br_geit.png,images/cb_geit.png,0,,,,,,,,,,,,,,,,,,,,,,
,,,,,00090,2023-10-25_11h54.14.436,vbt_B1_day3,2022.2.4,Win32,143.6575205,,,,,,down,0,0.1977,,0.23055557,-0.187037079,1,0,0,0,179,179,177,1,maaltijd,images/br_maaltijd.png,images/cb_maaltijd.png,0,,,,,,,,,,,,,,,,,,,,,,
,,,,,00090,2023-10-25_11h54.14.436,vbt_B1_day3,2022.2.4,Win32,143.6575205,,,,,,down,0,7.042,,0.23055557,-0.187037079,1,0,0,0,180,180,20,1,site,images/br_site.png,images/cb_site.png,1,site,,,,,,,,,,,,,,,,,,,,,
,,,,,00090,2023-10-25_11h54.14.436,vbt_B1_day3,2022.2.4,Win32,143.6575205,,,,,,down,0,0.1749,,0.23055557,-0.187037079,1,0,0,0,181,181,16,1,ziek,images/br_ziek.png,images/cb_ziek.png,0,,,,,,,,,,,,,,,,,,,,,,
,,,,,00090,2023-10-25_11h54.14.436,vbt_B1_day3,2022.2.4,Win32,143.6575205,,,,,,down,0,0.2578,,0.23055557,-0.187037079,0,0,1,0,182,182,5,1,blad,images/br_blad.png,images/cb_blad.png,0,,,,,,,,,,,,,,,,,,,,,,
,,,,,00090,2023-10-25_11h54.14.436,vbt_B1_day3,2022.2.4,Win32,143.6575205,,,,,,down,0,8.251,,0.125,-0.291666667,1,0,0,0,183,183,61,1,groen,images/br_groen.png,images/cb_groen.png,1,groen,,,,,,,,,,,,,,,,,,,,,
,,,,,00090,2023-10-25_11h54.14.436,vbt_B1_day3,2022.2.4,Win32,143.6575205,,,,,,down,0,0.1543,,0.125,-0.291666667,1,0,0,0,184,184,53,1,baron,images/br_baron.png,images/cb_baron.png,0,,,,,,,,,,,,,,,,,,,,,,
,,,,,00090,2023-10-25_11h54.14.436,vbt_B1_day3,2022.2.4,Win32,143.6575205,,,,,,down,0,0.202,,0.125,-0.291666667,1,0,0,0,185,185,126,1,kasteel,images/br_kasteel.png,images/cb_kasteel.png,0,,,,,,,,,,,,,,,,,,,,,,
,,,,,00090,2023-10-25_11h54.14.436,vbt_B1_day3,2022.2.4,Win32,143.6575205,,,,,,down,0,1.3024,,0.125,-0.291666667,1,0,0,0,186,186,117,1,kennis,images/br_kennis.png,images/cb_kennis.png,0,,,,,,,,,,,,,,,,,,,,,,
,,,,,00090,2023-10-25_11h54.14.436,vbt_B1_day3,2022.2.4,Win32,143.6575205,,,,,,down,0,0.2023,,0.125,-0.291666667,1,0,0,0,187,187,54,1,gebit,images/br_gebit.png,images/cb_gebit.png,0,,,,,,,,,,,,,,,,,,,,,,
,,,,,00090,2023-10-25_11h54.14.436,vbt_B1_day3,2022.2.4,Win32,143.6575205,,,,,,down,0,11.4596,,0.125,-0.291666667,1,0,0,0,188,188,60,1,jasje,images/br_jasje.png,images/cb_jasje.png,1,jasje,,,,,,,,,,,,,,,,,,,,,
,,,,,00090,2023-10-25_11h54.14.436,vbt_B1_day3,2022.2.4,Win32,143.6575205,,,,,,down,0,11.7037,,0.121296282,-0.288888931,1,0,0,0,189,189,103,1,joggen,images/br_joggen.png,images/cb_joggen.png,1,joggen,,,,,,,,,,,,,,,,,,,,,
,,,,,00090,2023-10-25_11h54.14.436,vbt_B1_day3,2022.2.4,Win32,143.6575205,,,,,,down,0,0.2514,,0.121296282,-0.288888931,1,0,0,0,190,190,90,1,geluid,images/br_geluid.png,images/cb_geluid.png,0,,,,,,,,,,,,,,,,,,,,,,
,,,,,00090,2023-10-25_11h54.14.436,vbt_B1_day3,2022.2.4,Win32,143.6575205,,,,,,down,0,0.2653,,0.121296282,-0.288888931,1,0,0,0,191,191,173,1,apparaat,images/br_apparaat.png,images/cb_apparaat.png,0,,,,,,,,,,,,,,,,,,,,,,
,,,,,00090,2023-10-25_11h54.14.436,vbt_B1_day3,2022.2.4,Win32,143.6575205,,,,,,down,0,0.1834,,0.121296282,-0.288888931,1,0,0,0,192,192,1,1,zaal,images/br_zaal.png,images/cb_zaal.png,0,,,,,,,,,,,,,,,,,,,,,,
,,,,,00090,2023-10-25_11h54.14.436,vbt_B1_day3,2022.2.4,Win32,143.6575205,,,,,,down,0,0.1667,,0.121296282,-0.288888931,1,0,0,0,193,193,190,1,goedkoop,images/br_goedkoop.png,images/cb_goedkoop.png,0,,,,,,,,,,,,,,,,,,,,,,
,,,,,00090,2023-10-25_11h54.14.436,vbt_B1_day3,2022.2.4,Win32,143.6575205,,,,,,down,0,0.4651,,0.121296282,-0.288888931,1,0,0,0,194,194,132,1,grappen,images/br_grappen.png,images/cb_grappen.png,0,,,,,,,,,,,,,,,,,,,,,,
,,,,,00090,2023-10-25_11h54.14.436,vbt_B1_day3,2022.2.4,Win32,143.6575205,,,,,,down,0,0.4528,,0.121296282,-0.288888931,1,0,0,0,195,195,76,1,afval,images/br_afval.png,images/cb_afval.png,0,,,,,,,,,,,,,,,,,,,,,,
,,,,,00090,2023-10-25_11h54.14.436,vbt_B1_day3,2022.2.4,Win32,143.6575205,,,,,,down,0,0.3359,,0.121296282,-0.288888931,1,0,0,0,196,196,174,1,stemming,images/br_stemming.png,images/cb_stemming.png,0,,,,,,,,,,,,,,,,,,,,,,
,,,,,00090,2023-10-25_11h54.14.436,vbt_B1_day3,2022.2.4,Win32,143.6575205,,,,,,down,0,0.2933,,0.121296282,-0.288888931,1,0,0,0,197,197,113,1,koppen,images/br_koppen.png,images/cb_koppen.png,0,,,,,,,,,,,,,,,,,,,,,,
,,,,,00090,2023-10-25_11h54.14.436,vbt_B1_day3,2022.2.4,Win32,143.6575205,,,,,,down,0,0.2951,,0.121296282,-0.288888931,1,0,0,0,198,198,128,1,prikken,images/br_prikken.png,images/cb_prikken.png,0,,,,,,,,,,,,,,,,,,,,,,
,,,,,00090,2023-10-25_11h54.14.436,vbt_B1_day3,2022.2.4,Win32,143.6575205,,,,,,down,0,11.3491,,0.121296282,-0.288888931,1,0,0,0,199,199,142,1,snuiven,images/br_snuiven.png,images/cb_snuiven.png,1,snuiven,,,,,,,,,,,,,,,,,,,,,
,,,,,00090,2023-10-25_11h54.14.436,vbt_B1_day3,2022.2.4,Win32,143.6575205,,,,,,,,,,,,,,,,,,,,,,,,,0.121296282,-0.288888931,1,0,0,,,,,,,,,,,,,,,,
,,,,,00090,2023-10-25_11h54.14.436,vbt_B1_day3,2022.2.4,Win32,143.6575205,,,,,,,,,,,,,,,,,,,,,,,,,,,,,,0.121296282,-0.288888931,1,0,0,,,,,,,,,,,
,,,,,00090,2023-10-25_11h54.14.436,vbt_B1_day3,2022.2.4,Win32,143.6575205,,,,,,,,,,,,,,,,,,,,opzetten,images/br_opzetten.png,images/cb_opzetten.png,,opzetten,,,,,,,,,,,0.048148191,-0.224074116,1,0,0,opzetten,0,0,0,56,1
,,,,,00090,2023-10-25_11h54.14.436,vbt_B1_day3,2022.2.4,Win32,143.6575205,,,,,,,,,,,,,,,,,,,,kaas,images/br_kaas.png,images/cb_kaas.png,,kaas,,,,,,,,,,,0.048148191,-0.224074116,1,0,0,kaas,0,1,1,42,1
,,,,,00090,2023-10-25_11h54.14.436,vbt_B1_day3,2022.2.4,Win32,143.6575205,,,,,,,,,,,,,,,,,,,,croo,images/br_croo.png,images/cb_croo.png,,croo,,,,,,,,,,,0.048148191,-0.224074116,1,0,0,croo,0,2,2,22,1
,,,,,00090,2023-10-25_11h54.14.436,vbt_B1_day3,2022.2.4,Win32,143.6575205,,,,,,,,,,,,,,,,,,,,onrecht,images/br_onrecht.png,images/cb_onrecht.png,,onrecht,,,,,,,,,,,0.048148191,-0.224074116,1,0,0,onrecht,0,3,3,55,1
,,,,,00090,2023-10-25_11h54.14.436,vbt_B1_day3,2022.2.4,Win32,143.6575205,,,,,,,,,,,,,,,,,,,,bisschop,images/br_bisschop.png,images/cb_bisschop.png,,bisschop,,,,,,,,,,,0.048148191,-0.224074116,1,0,0,bisschop,0,4,4,16,1
,,,,,00090,2023-10-25_11h54.14.436,vbt_B1_day3,2022.2.4,Win32,143.6575205,,,,,,,,,,,,,,,,,,,,stikken,images/br_stikken.png,images/cb_stikken.png,,stikken,,,,,,,,,,,0.048148191,-0.224074116,1,0,0,stikken,0,5,5,54,1
,,,,,00090,2023-10-25_11h54.14.436,vbt_B1_day3,2022.2.4,Win32,143.6575205,,,,,,,,,,,,,,,,,,,,mugeek,images/br_mugeek.png,images/cb_mugeek.png,,mugeek,,,,,,,,,,,0.048148191,-0.224074116,1,0,0,mugeek,0,6,6,29,1
,,,,,00090,2023-10-25_11h54.14.436,vbt_B1_day3,2022.2.4,Win32,143.6575205,,,,,,,,,,,,,,,,,,,,verraden,images/br_verraden.png,images/cb_verraden.png,,verraden,,,,,,,,,,,0.048148191,-0.224074116,1,0,0,verraden,0,7,7,58,1
,,,,,00090,2023-10-25_11h54.14.436,vbt_B1_day3,2022.2.4,Win32,143.6575205,,,,,,,,,,,,,,,,,,,,kwaas,images/br_kwaas.png,images/cb_kwaas.png,,kwaas,,,,,,,,,,,0.048148191,-0.224074116,1,0,0,kwaas,0,8,8,26,1
,,,,,00090,2023-10-25_11h54.14.436,vbt_B1_day3,2022.2.4,Win32,143.6575205,,,,,,,,,,,,,,,,,,,,leek,images/br_leek.png,images/cb_leek.png,,leek,,,,,,,,,,,0.048148191,-0.224074116,1,0,0,leek,0,9,9,2,1
,,,,,00090,2023-10-25_11h54.14.436,vbt_B1_day3,2022.2.4,Win32,143.6575205,,,,,,,,,,,,,,,,,,,,verhaal,images/br_verhaal.png,images/cb_verhaal.png,,verhaal,,,,,,,,,,,0.048148191,-0.224074116,1,0,0,verhaal,0,10,10,13,1
,,,,,00090,2023-10-25_11h54.14.436,vbt_B1_day3,2022.2.4,Win32,143.6575205,,,,,,,,,,,,,,,,,,,,slapen,images/br_slapen.png,images/cb_slapen.png,,slapen,,,,,,,,,,,0.048148191,-0.224074116,1,0,0,slapen,0,11,11,9,1
,,,,,00090,2023-10-25_11h54.14.436,vbt_B1_day3,2022.2.4,Win32,143.6575205,,,,,,,,,,,,,,,,,,,,mode,images/br_mode.png,images/cb_mode.png,,mode,,,,,,,,,,,0.048148191,-0.224074116,1,0,0,mode,0,12,12,3,1
,,,,,00090,2023-10-25_11h54.14.436,vbt_B1_day3,2022.2.4,Win32,143.6575205,,,,,,,,,,,,,,,,,,,,geluid,images/br_geluid.png,images/cb_geluid.png,,geluid,,,,,,,,,,,0.048148191,-0.224074116,1,0,0,geluid,0,13,13,10,1
,,,,,00090,2023-10-25_11h54.14.436,vbt_B1_day3,2022.2.4,Win32,143.6575205,,,,,,,,,,,,,,,,,,,,schodel,images/br_schodel.png,images/cb_schodel.png,,schodel,,,,,,,,,,,0.048148191,-0.224074116,1,0,0,schodel,0,14,14,33,1
,,,,,00090,2023-10-25_11h54.14.436,vbt_B1_day3,2022.2.4,Win32,143.6575205,,,,,,,,,,,,,,,,,,,,sluier,images/br_sluier.png,images/cb_sluier.png,,sluier,,,,,,,,,,,0.048148191,-0.224074116,1,0,0,sluier,0,15,15,50,1
,,,,,00090,2023-10-25_11h54.14.436,vbt_B1_day3,2022.2.4,Win32,143.6575205,,,,,,,,,,,,,,,,,,,,paken,images/br_paken.png,images/cb_paken.png,,paken,,,,,,,,,,,0.048148191,-0.224074116,1,0,0,paken,0,16,16,27,1
,,,,,00090,2023-10-25_11h54.14.436,vbt_B1_day3,2022.2.4,Win32,143.6575205,,,,,,,,,,,,,,,,,,,,brappen,images/br_brappen.png,images/cb_brappen.png,,brappen,,,,,,,,,,,0.048148191,-0.224074116,1,0,0,brappen,0,17,17,35,1
,,,,,00090,2023-10-25_11h54.14.436,vbt_B1_day3,2022.2.4,Win32,143.6575205,,,,,,,,,,,,,,,,,,,,gebod,images/br_gebod.png,images/cb_gebod.png,,,,,,,,,,,,,0.048148191,-0.224074116,1,0,0,,0,18,18,45,1
,,,,,00090,2023-10-25_11h54.14.436,vbt_B1_day3,2022.2.4,Win32,143.6575205,,,,,,,,,,,,,,,,,,,,jongelui,images/br_jongelui.png,images/cb_jongelui.png,,jongelui,,,,,,,,,,,-0.011111083,-0.212037051,1,0,0,jongelui,0,19,19,59,1
,,,,,00090,2023-10-25_11h54.14.436,vbt_B1_day3,2022.2.4,Win32,143.6575205,,,,,,,,,,,,,,,,,,,,boeien,images/br_boeien.png,images/cb_boeien.png,,boeien,,,,,,,,,,,-0.011111083,-0.212037051,1,0,0,boeien,0,20,20,8,1
,,,,,00090,2023-10-25_11h54.14.436,vbt_B1_day3,2022.2.4,Win32,143.6575205,,,,,,,,,,,,,,,,,,,,leugeren,images/br_leugeren.png,images/cb_leugeren.png,,leugeren,,,,,,,,,,,-0.011111083,-0.212037051,1,0,0,leugeren,0,21,21,37,1
,,,,,00090,2023-10-25_11h54.14.436,vbt_B1_day3,2022.2.4,Win32,143.6575205,,,,,,,,,,,,,,,,,,,,kest,images/br_kest.png,images/cb_kest.png,,kist,,,,,,,,,,,-0.011111083,-0.212037051,1,0,0,kist,0,22,22,21,1
,,,,,00090,2023-10-25_11h54.14.436,vbt_B1_day3,2022.2.4,Win32,143.6575205,,,,,,,,,,,,,,,,,,,,prikken,images/br_prikken.png,images/cb_prikken.png,,prikken,,,,,,,,,,,-0.011111083,-0.212037051,1,0,0,prikken,0,23,23,12,1
,,,,,00090,2023-10-25_11h54.14.436,vbt_B1_day3,2022.2.4,Win32,143.6575205,,,,,,,,,,,,,,,,,,,,alsof,images/br_alsof.png,images/cb_alsof.png,,alsof,,,,,,,,,,,-0.011111083,-0.212037051,1,0,0,alsof,0,24,24,44,1
,,,,,00090,2023-10-25_11h54.14.436,vbt_B1_day3,2022.2.4,Win32,143.6575205,,,,,,,,,,,,,,,,,,,,hust,images/br_hust.png,images/cb_hust.png,,hust,,,,,,,,,,,-0.011111083,-0.212037051,1,0,0,hust,0,25,25,23,1
,,,,,00090,2023-10-25_11h54.14.436,vbt_B1_day3,2022.2.4,Win32,143.6575205,,,,,,,,,,,,,,,,,,,,uniek,images/br_uniek.png,images/cb_uniek.png,,uniek,,,,,,,,,,,-0.011111083,-0.212037051,1,0,0,uniek,0,26,26,46,1
,,,,,00090,2023-10-25_11h54.14.436,vbt_B1_day3,2022.2.4,Win32,143.6575205,,,,,,,,,,,,,,,,,,,,invallen,images/br_invallen.png,images/cb_invallen.png,,invallen,,,,,,,,,,,-0.011111083,-0.212037051,1,0,0,invallen,0,27,27,57,1
,,,,,00090,2023-10-25_11h54.14.436,vbt_B1_day3,2022.2.4,Win32,143.6575205,,,,,,,,,,,,,,,,,,,,twaaf,images/br_twaaf.png,images/cb_twaaf.png,,twaaf,,,,,,,,,,,-0.011111083,-0.212037051,1,0,0,twaaf,0,28,28,24,1
,,,,,00090,2023-10-25_11h54.14.436,vbt_B1_day3,2022.2.4,Win32,143.6575205,,,,,,,,,,,,,,,,,,,,aarzelen,images/br_aarzelen.png,images/cb_aarzelen.png,,aarzelen,,,,,,,,,,,-0.011111083,-0.212037051,1,0,0,aarzelen,0,29,29,19,1
,,,,,00090,2023-10-25_11h54.14.436,vbt_B1_day3,2022.2.4,Win32,143.6575205,,,,,,,,,,,,,,,,,,,,hier,images/br_hier.png,images/cb_hier.png,,hiet,,,,,,,,,,,-0.011111083,-0.212037051,1,0,0,hiet,0,30,30,1,1
,,,,,00090,2023-10-25_11h54.14.436,vbt_B1_day3,2022.2.4,Win32,143.6575205,,,,,,,,,,,,,,,,,,,,knie,images/br_knie.png,images/cb_knie.png,,knie,,,,,,,,,,,-0.011111083,-0.212037051,1,0,0,knie,0,31,31,0,1
,,,,,00090,2023-10-25_11h54.14.436,vbt_B1_day3,2022.2.4,Win32,143.6575205,,,,,,,,,,,,,,,,,,,,gout,images/br_gout.png,images/cb_gout.png,,gout,,,,,,,,,,,-0.011111083,-0.212037051,1,0,0,gout,0,32,32,20,1
,,,,,00090,2023-10-25_11h54.14.436,vbt_B1_day3,2022.2.4,Win32,143.6575205,,,,,,,,,,,,,,,,,,,,oprotten,images/br_oprotten.png,images/cb_oprotten.png,,oprotten,,,,,,,,,,,-0.011111083,-0.212037051,1,0,0,oprotten,0,33,33,17,1
,,,,,00090,2023-10-25_11h54.14.436,vbt_B1_day3,2022.2.4,Win32,143.6575205,,,,,,,,,,,,,,,,,,,,leemaken,images/br_leemaken.png,images/cb_leemaken.png,,leemaken,,,,,,,,,,,-0.011111083,-0.212037051,1,0,0,leemaken,0,34,34,39,1
,,,,,00090,2023-10-25_11h54.14.436,vbt_B1_day3,2022.2.4,Win32,143.6575205,,,,,,,,,,,,,,,,,,,,makieren,images/br_makieren.png,images/cb_makieren.png,,makieren,,,,,,,,,,,-0.011111083,-0.212037051,1,0,0,makieren,0,35,35,36,1
,,,,,00090,2023-10-25_11h54.14.436,vbt_B1_day3,2022.2.4,Win32,143.6575205,,,,,,,,,,,,,,,,,,,,stoom,images/br_stoom.png,images/cb_stoom.png,,stoom,,,,,,,,,,,-0.011111083,-0.212037051,1,0,0,stoom,0,36,36,6,1
,,,,,00090,2023-10-25_11h54.14.436,vbt_B1_day3,2022.2.4,Win32,143.6575205,,,,,,,,,,,,,,,,,,,,zone,images/br_zone.png,images/cb_zone.png,,zone,,,,,,,,,,,-0.011111083,-0.212037051,1,0,0,zone,0,37,37,41,1
,,,,,00090,2023-10-25_11h54.14.436,vbt_B1_day3,2022.2.4,Win32,143.6575205,,,,,,,,,,,,,,,,,,,,schatten,images/br_schatten.png,images/cb_schatten.png,,schatten,,,,,,,,,,,-0.011111083,-0.212037051,1,0,0,schatten,0,38,38,18,1
,,,,,00090,2023-10-25_11h54.14.436,vbt_B1_day3,2022.2.4,Win32,143.6575205,,,,,,,,,,,,,,,,,,,,opzicht,images/br_opzicht.png,images/cb_opzicht.png,,opzicht,,,,,,,,,,,-0.011111083,-0.212037051,1,0,0,opzicht,0,39,39,15,1
,,,,,00090,2023-10-25_11h54.14.436,vbt_B1_day3,2022.2.4,Win32,143.6575205,,,,,,,,,,,,,,,,,,,,glijden,images/br_glijden.png,images/cb_glijden.png,,glijden,,,,,,,,,,,-0.011111083,-0.212037051,1,0,0,glijden,0,40,40,53,1
,,,,,00090,2023-10-25_11h54.14.436,vbt_B1_day3,2022.2.4,Win32,143.6575205,,,,,,,,,,,,,,,,,,,,verwoor,images/br_verwoor.png,images/cb_verwoor.png,,verwoor,,,,,,,,,,,-0.011111083,-0.212037051,1,0,0,verwoor,0,41,41,32,1
,,,,,00090,2023-10-25_11h54.14.436,vbt_B1_day3,2022.2.4,Win32,143.6575205,,,,,,,,,,,,,,,,,,,,beslag,images/br_beslag.png,images/cb_beslag.png,,beslag,,,,,,,,,,,-0.011111083,-0.212037051,1,0,0,beslag,0,42,42,51,1
,,,,,00090,2023-10-25_11h54.14.436,vbt_B1_day3,2022.2.4,Win32,143.6575205,,,,,,,,,,,,,,,,,,,,laken,images/br_laken.png,images/cb_laken.png,,laken,,,,,,,,,,,-0.011111083,-0.212037051,1,0,0,laken,0,43,43,5,1
,,,,,00090,2023-10-25_11h54.14.436,vbt_B1_day3,2022.2.4,Win32,143.6575205,,,,,,,,,,,,,,,,,,,,gezond,images/br_gezond.png,images/cb_gezond.png,,gezond,,,,,,,,,,,-0.011111083,-0.212037051,1,0,0,gezond,0,44,44,11,1
,,,,,00090,2023-10-25_11h54.14.436,vbt_B1_day3,2022.2.4,Win32,143.6575205,,,,,,,,,,,,,,,,,,,,samen,images/br_samen.png,images/cb_samen.png,,samen,,,,,,,,,,,-0.011111083,-0.212037051,1,0,0,samen,0,45,45,7,1
,,,,,00090,2023-10-25_11h54.14.436,vbt_B1_day3,2022.2.4,Win32,143.6575205,,,,,,,,,,,,,,,,,,,,afbopen,images/br_afbopen.png,images/cb_afbopen.png,,afbopen,,,,,,,,,,,-0.011111083,-0.212037051,1,0,0,afbopen,0,46,46,34,1
,,,,,00090,2023-10-25_11h54.14.436,vbt_B1_day3,2022.2.4,Win32,143.6575205,,,,,,,,,,,,,,,,,,,,begrip,images/br_begrip.png,images/cb_begrip.png,,begrip,,,,,,,,,,,-0.011111083,-0.212037051,1,0,0,begrip,0,47,47,48,1
,,,,,00090,2023-10-25_11h54.14.436,vbt_B1_day3,2022.2.4,Win32,143.6575205,,,,,,,,,,,,,,,,,,,,hint,images/br_hint.png,images/cb_hint.png,,hint,,,,,,,,,,,-0.011111083,-0.212037051,1,0,0,hint,0,48,48,43,1
,,,,,00090,2023-10-25_11h54.14.436,vbt_B1_day3,2022.2.4,Win32,143.6575205,,,,,,,,,,,,,,,,,,,,theeting,images/br_theeting.png,images/cb_theeting.png,,theeling,,,,,,,,,,,-0.011111083,-0.212037051,1,0,0,theeling,0,49,49,38,1
,,,,,00090,2023-10-25_11h54.14.436,vbt_B1_day3,2022.2.4,Win32,143.6575205,,,,,,,,,,,,,,,,,,,,keihard,images/br_keihard.png,images/cb_keihard.png,,keihard,,,,,,,,,,,0.066666709,-0.199074074,1,0,0,keihard,0,50,50,14,1
,,,,,00090,2023-10-25_11h54.14.436,vbt_B1_day3,2022.2.4,Win32,143.6575205,,,,,,,,,,,,,,,,,,,,stallen,images/br_stallen.png,images/cb_stallen.png,,stallen,,,,,,,,,,,0.066666709,-0.199074074,1,0,0,stallen,0,51,51,52,1
,,,,,00090,2023-10-25_11h54.14.436,vbt_B1_day3,2022.2.4,Win32,143.6575205,,,,,,,,,,,,,,,,,,,,booien,images/br_booien.png,images/cb_booien.png,,booien,,,,,,,,,,,0.066666709,-0.199074074,1,0,0,booien,0,52,52,31,1
,,,,,00090,2023-10-25_11h54.14.436,vbt_B1_day3,2022.2.4,Win32,143.6575205,,,,,,,,,,,,,,,,,,,,eens,images/br_eens.png,images/cb_eens.png,,eens,,,,,,,,,,,0.066666709,-0.199074074,1,0,0,eens,0,53,53,40,1
,,,,,00090,2023-10-25_11h54.14.436,vbt_B1_day3,2022.2.4,Win32,143.6575205,,,,,,,,,,,,,,,,,,,,bevret,images/br_bevret.png,images/cb_bevret.png,,bevret,,,,,,,,,,,0.066666709,-0.199074074,1,0,0,bevret,0,54,54,30,1
,,,,,00090,2023-10-25_11h54.14.436,vbt_B1_day3,2022.2.4,Win32,143.6575205,,,,,,,,,,,,,,,,,,,,uviek,images/br_uviek.png,images/cb_uviek.png,,uviek,,,,,,,,,,,0.066666709,-0.199074074,1,0,0,uviek,0,55,55,25,1
,,,,,00090,2023-10-25_11h54.14.436,vbt_B1_day3,2022.2.4,Win32,143.6575205,,,,,,,,,,,,,,,,,,,,dwang,images/br_dwang.png,images/cb_dwang.png,,dwang,,,,,,,,,,,0.066666709,-0.199074074,1,0,0,dwang,0,56,56,47,1
,,,,,00090,2023-10-25_11h54.14.436,vbt_B1_day3,2022.2.4,Win32,143.6575205,,,,,,,,,,,,,,,,,,,,vlager,images/br_vlager.png,images/cb_vlager.png,,vlagen,,,,,,,,,,,0.066666709,-0.199074074,1,0,0,vlagen,0,57,57,28,1
,,,,,00090,2023-10-25_11h54.14.436,vbt_B1_day3,2022.2.4,Win32,143.6575205,,,,,,,,,,,,,,,,,,,,sultan,images/br_sultan.png,images/cb_sultan.png,,sultan,,,,,,,,,,,0.066666709,-0.199074074,1,0,0,sultan,0,58,58,49,1
,,,,,00090,2023-10-25_11h54.14.436,vbt_B1_day3,2022.2.4,Win32,143.6575205,,,,,,,,,,,,,,,,,,,,steel,images/br_steel.png,images/cb_steel.png,,steel,,,,,,,,,,,0.066666709,-0.199074074,1,0,0,steel,0,59,59,4,1
,,,,,00090,2023-10-25_11h54.14.436,vbt_B1_day3,2022.2.4,Win32,143.6575205,,,,,,,,,,,,,,,,,,,,,,,,,,,,,,,,,,,,,,,,,,,,,
