welcome_mouse.x,welcome_mouse.y,welcome_mouse.leftButton,welcome_mouse.midButton,welcome_mouse.rightButton,"ID",date,expName,psychopyVersion,OS,frameRate,trainInstr_mouse.x,trainInstr_mouse.y,trainInstr_mouse.leftButton,trainInstr_mouse.midButton,trainInstr_mouse.rightButton,translation_key.keys,translation_key.corr,translation_key.rt,word_rsp.text,trWrd_mouse.x,trWrd_mouse.y,trWrd_mouse.leftButton,trWrd_mouse.midButton,trWrd_mouse.rightButton,train_loop.thisRepN,train_loop.thisTrialN,train_loop.thisN,train_loop.thisIndex,train_loop.ran,nlWrd,brWrd,cbWrd,test,testResp,mouse.x,mouse.y,mouse.leftButton,mouse.midButton,mouse.rightButton,testInstr_mouse.x,testInstr_mouse.y,testInstr_mouse.leftButton,testInstr_mouse.midButton,testInstr_mouse.rightButton,test_mouse.x,test_mouse.y,test_mouse.leftButton,test_mouse.midButton,test_mouse.rightButton,test_response.text,test_loop.thisRepN,test_loop.thisTrialN,test_loop.thisN,test_loop.thisIndex,test_loop.ran
-0.166666667,-0.250925912,1,0,0,00045,2023-10-09_18h44.47.248,vbt_B1_day3,2022.2.4,Win32,59.99160118,,,,,,,,,,,,,,,,,,,,,,,,,,,,,,,,,,,,,,,,,,,,,
,,,,,00045,2023-10-09_18h44.47.248,vbt_B1_day3,2022.2.4,Win32,59.99160118,-0.166666667,-0.250925912,1,0,0,,,,,,,,,,,,,,,,,,,,,,,,,,,,,,,,,,,,,,,,
,,,,,00045,2023-10-09_18h44.47.248,vbt_B1_day3,2022.2.4,Win32,59.99160118,,,,,,down,0,3.9284,,-0.166666667,-0.250925912,1,0,0,0,0,0,164,1,anarchie,images/br_anarchie.png,images/cb_anarchie.png,0,,,,,,,,,,,,,,,,,,,,,,
,,,,,00045,2023-10-09_18h44.47.248,vbt_B1_day3,2022.2.4,Win32,59.99160118,,,,,,down,0,1.2714,,-0.166666667,-0.250925912,1,0,0,0,1,1,19,1,geit,images/br_geit.png,images/cb_geit.png,0,,,,,,,,,,,,,,,,,,,,,,
,,,,,00045,2023-10-09_18h44.47.248,vbt_B1_day3,2022.2.4,Win32,59.99160118,,,,,,down,0,0.9828,,-0.166666667,-0.250925912,1,0,0,0,2,2,38,1,baai,images/br_baai.png,images/cb_baai.png,0,,,,,,,,,,,,,,,,,,,,,,
,,,,,00045,2023-10-09_18h44.47.248,vbt_B1_day3,2022.2.4,Win32,59.99160118,,,,,,down,0,8.1305,,-0.166666667,-0.250925912,1,0,0,0,3,3,101,1,staren,images/br_staren.png,images/cb_staren.png,1,staren,,,,,,,,,,,,,,,,,,,,,
,,,,,00045,2023-10-09_18h44.47.248,vbt_B1_day3,2022.2.4,Win32,59.99160118,,,,,,down,0,5.5166,,-0.166666667,-0.250925912,1,0,0,0,4,4,142,1,snuiven,images/br_snuiven.png,images/cb_snuiven.png,1,snuiven,,,,,,,,,,,,,,,,,,,,,
,,,,,00045,2023-10-09_18h44.47.248,vbt_B1_day3,2022.2.4,Win32,59.99160118,,,,,,down,0,4.3745,,-0.166666667,-0.250925912,1,0,0,0,5,5,16,1,ziek,images/br_ziek.png,images/cb_ziek.png,0,,,,,,,,,,,,,,,,,,,,,,
,,,,,00045,2023-10-09_18h44.47.248,vbt_B1_day3,2022.2.4,Win32,59.99160118,,,,,,down,0,3.5829,,-0.166666667,-0.250925912,1,0,0,0,6,6,63,1,flirt,images/br_flirt.png,images/cb_flirt.png,1,flirt,,,,,,,,,,,,,,,,,,,,,
,,,,,00045,2023-10-09_18h44.47.248,vbt_B1_day3,2022.2.4,Win32,59.99160118,,,,,,down,0,4.1126,,-0.166666667,-0.250925912,1,0,0,0,7,7,93,1,waarop,images/br_waarop.png,images/cb_waarop.png,0,,,,,,,,,,,,,,,,,,,,,,
,,,,,00045,2023-10-09_18h44.47.248,vbt_B1_day3,2022.2.4,Win32,59.99160118,,,,,,down,0,5.8327,,-0.166666667,-0.250925912,1,0,0,0,8,8,30,1,uien,images/br_uien.png,images/cb_uien.png,0,,,,,,,,,,,,,,,,,,,,,,
,,,,,00045,2023-10-09_18h44.47.248,vbt_B1_day3,2022.2.4,Win32,59.99160118,,,,,,down,0,7.1736,,-0.166666667,-0.250925912,1,0,0,0,9,9,192,1,schaamte,images/br_schaamte.png,images/cb_schaamte.png,0,,,,,,,,,,,,,,,,,,,,,,
,,,,,00045,2023-10-09_18h44.47.248,vbt_B1_day3,2022.2.4,Win32,59.99160118,,,,,,down,0,5.9423,,-0.166666667,-0.250925912,1,0,0,0,10,10,167,1,eenhoorn,images/br_eenhoorn.png,images/cb_eenhoorn.png,0,,,,,,,,,,,,,,,,,,,,,,
,,,,,00045,2023-10-09_18h44.47.248,vbt_B1_day3,2022.2.4,Win32,59.99160118,,,,,,down,0,3.8017,,-0.166666667,-0.250925912,1,0,0,0,11,11,80,1,kanjer,images/br_kanjer.png,images/cb_kanjer.png,0,,,,,,,,,,,,,,,,,,,,,,
,,,,,00045,2023-10-09_18h44.47.248,vbt_B1_day3,2022.2.4,Win32,59.99160118,,,,,,down,0,4.8283,,-0.166666667,-0.250925912,1,0,0,0,12,12,140,1,blijven,images/br_blijven.png,images/cb_blijven.png,1,blijven,,,,,,,,,,,,,,,,,,,,,
,,,,,00045,2023-10-09_18h44.47.248,vbt_B1_day3,2022.2.4,Win32,59.99160118,,,,,,down,0,7.1902,,-0.166666667,-0.250925912,1,0,0,0,13,13,169,1,oprotten,images/br_oprotten.png,images/cb_oprotten.png,0,,,,,,,,,,,,,,,,,,,,,,
,,,,,00045,2023-10-09_18h44.47.248,vbt_B1_day3,2022.2.4,Win32,59.99160118,,,,,,down,0,6.8736,,-0.166666667,-0.250925912,1,0,0,0,14,14,123,1,hiervan,images/br_hiervan.png,images/cb_hiervan.png,0,,,,,,,,,,,,,,,,,,,,,,
,,,,,00045,2023-10-09_18h44.47.248,vbt_B1_day3,2022.2.4,Win32,59.99160118,,,,,,down,0,6.4412,,-0.166666667,-0.250925912,1,0,0,0,15,15,194,1,driemaal,images/br_driemaal.png,images/cb_driemaal.png,0,,,,,,,,,,,,,,,,,,,,,,
,,,,,00045,2023-10-09_18h44.47.248,vbt_B1_day3,2022.2.4,Win32,59.99160118,,,,,,down,0,2.6138,,-0.166666667,-0.250925912,1,0,0,0,16,16,52,1,wagon,images/br_wagon.png,images/cb_wagon.png,0,,,,,,,,,,,,,,,,,,,,,,
,,,,,00045,2023-10-09_18h44.47.248,vbt_B1_day3,2022.2.4,Win32,59.99160118,,,,,,down,0,4.4612,,-0.166666667,-0.250925912,1,0,0,0,17,17,69,1,waken,images/br_waken.png,images/cb_waken.png,0,,,,,,,,,,,,,,,,,,,,,,
,,,,,00045,2023-10-09_18h44.47.248,vbt_B1_day3,2022.2.4,Win32,59.99160118,,,,,,down,0,6.4587,,-0.166666667,-0.250925912,1,0,0,0,18,18,27,1,dans,images/br_dans.png,images/cb_dans.png,0,,,,,,,,,,,,,,,,,,,,,,
,,,,,00045,2023-10-09_18h44.47.248,vbt_B1_day3,2022.2.4,Win32,59.99160118,,,,,,down,0,6.4071,,-0.166666667,-0.250925912,1,0,0,0,19,19,61,1,groen,images/br_groen.png,images/cb_groen.png,1,groen,,,,,,,,,,,,,,,,,,,,,
,,,,,00045,2023-10-09_18h44.47.248,vbt_B1_day3,2022.2.4,Win32,59.99160118,,,,,,down,0,3.6281,,-0.166666667,-0.250925912,1,0,0,0,20,20,82,1,muziek,images/br_muziek.png,images/cb_muziek.png,0,,,,,,,,,,,,,,,,,,,,,,
,,,,,00045,2023-10-09_18h44.47.248,vbt_B1_day3,2022.2.4,Win32,59.99160118,,,,,,down,0,3.3858,,-0.166666667,-0.250925912,1,0,0,0,21,21,6,1,diep,images/br_diep.png,images/cb_diep.png,0,,,,,,,,,,,,,,,,,,,,,,
,,,,,00045,2023-10-09_18h44.47.248,vbt_B1_day3,2022.2.4,Win32,59.99160118,,,,,,down,0,5.934,,-0.166666667,-0.250925912,1,0,0,0,22,22,8,1,knie,images/br_knie.png,images/cb_knie.png,0,,,,,,,,,,,,,,,,,,,,,,
,,,,,00045,2023-10-09_18h44.47.248,vbt_B1_day3,2022.2.4,Win32,59.99160118,,,,,,down,0,0.6924,,-0.166666667,-0.250925912,1,0,0,0,23,23,28,1,stal,images/br_stal.png,images/cb_stal.png,0,,,,,,,,,,,,,,,,,,,,,,
,,,,,00045,2023-10-09_18h44.47.248,vbt_B1_day3,2022.2.4,Win32,59.99160118,,,,,,down,0,4.7095,,-0.166666667,-0.250925912,1,0,0,0,24,24,83,1,mening,images/br_mening.png,images/cb_mening.png,0,,,,,,,,,,,,,,,,,,,,,,
,,,,,00045,2023-10-09_18h44.47.248,vbt_B1_day3,2022.2.4,Win32,59.99160118,,,,,,down,0,3.7459,,-0.166666667,-0.250925912,1,0,0,0,25,25,104,1,zweven,images/br_zweven.png,images/cb_zweven.png,0,,,,,,,,,,,,,,,,,,,,,,
,,,,,00045,2023-10-09_18h44.47.248,vbt_B1_day3,2022.2.4,Win32,59.99160118,,,,,,down,0,2.7232,,-0.166666667,-0.250925912,1,0,0,0,26,26,137,1,trekker,images/br_trekker.png,images/cb_trekker.png,0,,,,,,,,,,,,,,,,,,,,,,
,,,,,00045,2023-10-09_18h44.47.248,vbt_B1_day3,2022.2.4,Win32,59.99160118,,,,,,down,0,6.3169,,-0.166666667,-0.250925912,1,0,0,0,27,27,113,1,koppen,images/br_koppen.png,images/cb_koppen.png,0,,,,,,,,,,,,,,,,,,,,,,
,,,,,00045,2023-10-09_18h44.47.248,vbt_B1_day3,2022.2.4,Win32,59.99160118,,,,,,down,0,1.1988,,-0.166666667,-0.250925912,1,0,0,0,28,28,73,1,volop,images/br_volop.png,images/cb_volop.png,0,,,,,,,,,,,,,,,,,,,,,,
,,,,,00045,2023-10-09_18h44.47.248,vbt_B1_day3,2022.2.4,Win32,59.99160118,,,,,,down,0,1.6151,,-0.166666667,-0.250925912,1,0,0,0,29,29,89,1,slapen,images/br_slapen.png,images/cb_slapen.png,0,,,,,,,,,,,,,,,,,,,,,,
,,,,,00045,2023-10-09_18h44.47.248,vbt_B1_day3,2022.2.4,Win32,59.99160118,,,,,,down,0,2.5959,,-0.166666667,-0.250925912,1,0,0,0,30,30,7,1,geld,images/br_geld.png,images/cb_geld.png,0,,,,,,,,,,,,,,,,,,,,,,
,,,,,00045,2023-10-09_18h44.47.248,vbt_B1_day3,2022.2.4,Win32,59.99160118,,,,,,down,0,2.0386,,-0.166666667,-0.250925912,1,0,0,0,31,31,25,1,plek,images/br_plek.png,images/cb_plek.png,0,,,,,,,,,,,,,,,,,,,,,,
,,,,,00045,2023-10-09_18h44.47.248,vbt_B1_day3,2022.2.4,Win32,59.99160118,,,,,,down,0,3.3234,,-0.166666667,-0.250925912,1,0,0,0,32,32,11,1,mode,images/br_mode.png,images/cb_mode.png,0,,,,,,,,,,,,,,,,,,,,,,
,,,,,00045,2023-10-09_18h44.47.248,vbt_B1_day3,2022.2.4,Win32,59.99160118,,,,,,down,0,2.8299,,-0.166666667,-0.250925912,1,0,0,0,33,33,197,1,spanning,images/br_spanning.png,images/cb_spanning.png,0,,,,,,,,,,,,,,,,,,,,,,
,,,,,00045,2023-10-09_18h44.47.248,vbt_B1_day3,2022.2.4,Win32,59.99160118,,,,,,down,0,3.9111,,-0.166666667,-0.250925912,1,0,0,0,34,34,67,1,zwart,images/br_zwart.png,images/cb_zwart.png,0,,,,,,,,,,,,,,,,,,,,,,
,,,,,00045,2023-10-09_18h44.47.248,vbt_B1_day3,2022.2.4,Win32,59.99160118,,,,,,down,0,5.2087,,-0.166666667,-0.250925912,1,0,0,0,35,35,135,1,gedicht,images/br_gedicht.png,images/cb_gedicht.png,0,,,,,,,,,,,,,,,,,,,,,,
,,,,,00045,2023-10-09_18h44.47.248,vbt_B1_day3,2022.2.4,Win32,59.99160118,,,,,,down,0,20.3895,,-0.166666667,-0.250925912,1,0,0,0,36,36,12,1,kust,images/br_kust.png,images/cb_kust.png,0,,,,,,,,,,,,,,,,,,,,,,
,,,,,00045,2023-10-09_18h44.47.248,vbt_B1_day3,2022.2.4,Win32,59.99160118,,,,,,down,0,9.7389,,-0.386111118,-0.499074088,1,0,0,0,37,37,0,1,slak,images/br_slak.png,images/cb_slak.png,0,,,,,,,,,,,,,,,,,,,,,,
,,,,,00045,2023-10-09_18h44.47.248,vbt_B1_day3,2022.2.4,Win32,59.99160118,,,,,,down,0,8.8767,,-0.191666638,-0.305555556,1,0,0,0,38,38,115,1,kleren,images/br_kleren.png,images/cb_kleren.png,0,,,,,,,,,,,,,,,,,,,,,,
,,,,,00045,2023-10-09_18h44.47.248,vbt_B1_day3,2022.2.4,Win32,59.99160118,,,,,,down,0,21.6157,,-0.191666638,-0.305555556,1,0,0,0,39,39,100,1,geduld,images/br_geduld.png,images/cb_geduld.png,1,geduld,,,,,,,,,,,,,,,,,,,,,
,,,,,00045,2023-10-09_18h44.47.248,vbt_B1_day3,2022.2.4,Win32,59.99160118,,,,,,down,0,9.6609,,-0.191666638,-0.305555556,1,0,0,0,40,40,99,1,koffie,images/br_koffie.png,images/cb_koffie.png,0,,,,,,,,,,,,,,,,,,,,,,
,,,,,00045,2023-10-09_18h44.47.248,vbt_B1_day3,2022.2.4,Win32,59.99160118,,,,,,down,0,9.3871,,-0.191666638,-0.305555556,1,0,0,0,41,41,54,1,gebit,images/br_gebit.png,images/cb_gebit.png,0,,,,,,,,,,,,,,,,,,,,,,
,,,,,00045,2023-10-09_18h44.47.248,vbt_B1_day3,2022.2.4,Win32,59.99160118,,,,,,down,0,93.6488,,-0.191666638,-0.305555556,1,0,0,0,42,42,66,1,lever,images/br_lever.png,images/cb_lever.png,0,,,,,,,,,,,,,,,,,,,,,,
,,,,,00045,2023-10-09_18h44.47.248,vbt_B1_day3,2022.2.4,Win32,59.99160118,,,,,,down,0,2.2375,,-0.191666638,-0.305555556,1,0,0,0,43,43,64,1,wegen,images/br_wegen.png,images/cb_wegen.png,0,,,,,,,,,,,,,,,,,,,,,,
,,,,,00045,2023-10-09_18h44.47.248,vbt_B1_day3,2022.2.4,Win32,59.99160118,,,,,,down,0,9.995,,-0.191666638,-0.305555556,1,0,0,0,44,44,85,1,heilig,images/br_heilig.png,images/cb_heilig.png,0,,,,,,,,,,,,,,,,,,,,,,
,,,,,00045,2023-10-09_18h44.47.248,vbt_B1_day3,2022.2.4,Win32,59.99160118,,,,,,down,0,3.0623,,-0.191666638,-0.305555556,1,0,0,0,45,45,41,1,maken,images/br_maken.png,images/cb_maken.png,0,,,,,,,,,,,,,,,,,,,,,,
,,,,,00045,2023-10-09_18h44.47.248,vbt_B1_day3,2022.2.4,Win32,59.99160118,,,,,,down,0,4.2146,,-0.191666638,-0.305555556,1,0,0,0,46,46,114,1,vullen,images/br_vullen.png,images/cb_vullen.png,0,,,,,,,,,,,,,,,,,,,,,,
,,,,,00045,2023-10-09_18h44.47.248,vbt_B1_day3,2022.2.4,Win32,59.99160118,,,,,,down,0,5.6544,,-0.191666638,-0.305555556,1,0,0,0,47,47,76,1,afval,images/br_afval.png,images/cb_afval.png,0,,,,,,,,,,,,,,,,,,,,,,
,,,,,00045,2023-10-09_18h44.47.248,vbt_B1_day3,2022.2.4,Win32,59.99160118,,,,,,down,0,2.1351,,-0.191666638,-0.305555556,1,0,0,0,48,48,97,1,loyaal,images/br_loyaal.png,images/cb_loyaal.png,0,,,,,,,,,,,,,,,,,,,,,,
,,,,,00045,2023-10-09_18h44.47.248,vbt_B1_day3,2022.2.4,Win32,59.99160118,,,,,,down,0,4.716,,-0.191666638,-0.305555556,1,0,0,0,49,49,121,1,twijfel,images/br_twijfel.png,images/cb_twijfel.png,0,,,,,,,,,,,,,,,,,,,,,,
,,,,,00045,2023-10-09_18h44.47.248,vbt_B1_day3,2022.2.4,Win32,59.99160118,,,,,,down,0,13.0453,,0.179629644,-0.112037023,1,0,0,0,50,50,181,1,toegeven,images/br_toegeven.png,images/cb_toegeven.png,1,toegeven,,,,,,,,,,,,,,,,,,,,,
,,,,,00045,2023-10-09_18h44.47.248,vbt_B1_day3,2022.2.4,Win32,59.99160118,,,,,,down,0,10.7881,,0.179629644,-0.112037023,1,0,0,0,51,51,177,1,maaltijd,images/br_maaltijd.png,images/cb_maaltijd.png,0,,,,,,,,,,,,,,,,,,,,,,
,,,,,00045,2023-10-09_18h44.47.248,vbt_B1_day3,2022.2.4,Win32,59.99160118,,,,,,down,0,2.7465,,0.179629644,-0.112037023,1,0,0,0,52,52,53,1,baron,images/br_baron.png,images/cb_baron.png,0,,,,,,,,,,,,,,,,,,,,,,
,,,,,00045,2023-10-09_18h44.47.248,vbt_B1_day3,2022.2.4,Win32,59.99160118,,,,,,down,0,0.4861,,0.179629644,-0.112037023,1,0,0,0,53,53,117,1,kennis,images/br_kennis.png,images/cb_kennis.png,0,,,,,,,,,,,,,,,,,,,,,,
,,,,,00045,2023-10-09_18h44.47.248,vbt_B1_day3,2022.2.4,Win32,59.99160118,,,,,,down,0,1.5235,,0.179629644,-0.112037023,1,0,0,0,54,54,50,1,stoom,images/br_stoom.png,images/cb_stoom.png,0,,,,,,,,,,,,,,,,,,,,,,
,,,,,00045,2023-10-09_18h44.47.248,vbt_B1_day3,2022.2.4,Win32,59.99160118,,,,,,down,0,6.0017,,0.179629644,-0.112037023,1,0,0,0,55,55,180,1,openbaar,images/br_openbaar.png,images/cb_openbaar.png,1,openbaar,,,,,,,,,,,,,,,,,,,,,
,,,,,00045,2023-10-09_18h44.47.248,vbt_B1_day3,2022.2.4,Win32,59.99160118,,,,,,down,0,5.3474,,0.179629644,-0.112037023,1,0,0,0,56,56,132,1,grappen,images/br_grappen.png,images/cb_grappen.png,0,,,,,,,,,,,,,,,,,,,,,,
,,,,,00045,2023-10-09_18h44.47.248,vbt_B1_day3,2022.2.4,Win32,59.99160118,,,,,,down,0,9.0194,,0.179629644,-0.112037023,1,0,0,0,57,57,146,1,opkomen,images/br_opkomen.png,images/cb_opkomen.png,0,,,,,,,,,,,,,,,,,,,,,,
,,,,,00045,2023-10-09_18h44.47.248,vbt_B1_day3,2022.2.4,Win32,59.99160118,,,,,,down,0,4.8261,,0.179629644,-0.112037023,1,0,0,0,58,58,179,1,woestijn,images/br_woestijn.png,images/cb_woestijn.png,0,,,,,,,,,,,,,,,,,,,,,,
,,,,,00045,2023-10-09_18h44.47.248,vbt_B1_day3,2022.2.4,Win32,59.99160118,,,,,,down,0,0.5377,,0.179629644,-0.112037023,1,0,0,0,59,59,126,1,kasteel,images/br_kasteel.png,images/cb_kasteel.png,0,,,,,,,,,,,,,,,,,,,,,,
,,,,,00045,2023-10-09_18h44.47.248,vbt_B1_day3,2022.2.4,Win32,59.99160118,,,,,,down,0,6.4083,,0.179629644,-0.112037023,1,0,0,0,60,60,143,1,hechten,images/br_hechten.png,images/cb_hechten.png,1,hechten,,,,,,,,,,,,,,,,,,,,,
,,,,,00045,2023-10-09_18h44.47.248,vbt_B1_day3,2022.2.4,Win32,59.99160118,,,,,,down,0,0.2172,,0.179629644,-0.112037023,1,0,0,0,61,61,84,1,lokken,images/br_lokken.png,images/cb_lokken.png,0,,,,,,,,,,,,,,,,,,,,,,
,,,,,00045,2023-10-09_18h44.47.248,vbt_B1_day3,2022.2.4,Win32,59.99160118,,,,,,down,0,6.9412,,0.179629644,-0.112037023,1,0,0,0,62,62,133,1,seizoen,images/br_seizoen.png,images/cb_seizoen.png,0,,,,,,,,,,,,,,,,,,,,,,
,,,,,00045,2023-10-09_18h44.47.248,vbt_B1_day3,2022.2.4,Win32,59.99160118,,,,,,down,0,6.9311,,0.179629644,-0.112037023,1,0,0,0,63,63,165,1,feestdag,images/br_feestdag.png,images/cb_feestdag.png,0,,,,,,,,,,,,,,,,,,,,,,
,,,,,00045,2023-10-09_18h44.47.248,vbt_B1_day3,2022.2.4,Win32,59.99160118,,,,,,down,0,2.0639,,0.179629644,-0.112037023,1,0,0,0,64,64,138,1,akkoord,images/br_akkoord.png,images/cb_akkoord.png,0,,,,,,,,,,,,,,,,,,,,,,
,,,,,00045,2023-10-09_18h44.47.248,vbt_B1_day3,2022.2.4,Win32,59.99160118,,,,,,down,0,1.8978,,0.179629644,-0.112037023,1,0,0,0,65,65,72,1,strak,images/br_strak.png,images/cb_strak.png,0,,,,,,,,,,,,,,,,,,,,,,
,,,,,00045,2023-10-09_18h44.47.248,vbt_B1_day3,2022.2.4,Win32,59.99160118,,,,,,down,0,6.191,,0.179629644,-0.112037023,1,0,0,0,66,66,153,1,vervoer,images/br_vervoer.png,images/cb_vervoer.png,0,,,,,,,,,,,,,,,,,,,,,,
,,,,,00045,2023-10-09_18h44.47.248,vbt_B1_day3,2022.2.4,Win32,59.99160118,,,,,,down,0,0.8341,,0.179629644,-0.112037023,1,0,0,0,67,67,26,1,leuk,images/br_leuk.png,images/cb_leuk.png,0,,,,,,,,,,,,,,,,,,,,,,
,,,,,00045,2023-10-09_18h44.47.248,vbt_B1_day3,2022.2.4,Win32,59.99160118,,,,,,down,0,5.7511,,0.179629644,-0.112037023,1,0,0,0,68,68,32,1,palm,images/br_palm.png,images/cb_palm.png,0,,,,,,,,,,,,,,,,,,,,,,
,,,,,00045,2023-10-09_18h44.47.248,vbt_B1_day3,2022.2.4,Win32,59.99160118,,,,,,down,0,11.2492,,0.179629644,-0.112037023,1,0,0,0,69,69,185,1,mijnheer,images/br_mijnheer.png,images/cb_mijnheer.png,0,,,,,,,,,,,,,,,,,,,,,,
,,,,,00045,2023-10-09_18h44.47.248,vbt_B1_day3,2022.2.4,Win32,59.99160118,,,,,,down,0,6.0451,,0.179629644,-0.112037023,1,0,0,0,70,70,122,1,waarvan,images/br_waarvan.png,images/cb_waarvan.png,0,,,,,,,,,,,,,,,,,,,,,,
,,,,,00045,2023-10-09_18h44.47.248,vbt_B1_day3,2022.2.4,Win32,59.99160118,,,,,,down,0,3.6985,,0.179629644,-0.112037023,1,0,0,0,71,71,55,1,praat,images/br_praat.png,images/cb_praat.png,0,,,,,,,,,,,,,,,,,,,,,,
,,,,,00045,2023-10-09_18h44.47.248,vbt_B1_day3,2022.2.4,Win32,59.99160118,,,,,,down,0,3.5052,,0.179629644,-0.112037023,1,0,0,0,72,72,187,1,opkijken,images/br_opkijken.png,images/cb_opkijken.png,0,,,,,,,,,,,,,,,,,,,,,,
,,,,,00045,2023-10-09_18h44.47.248,vbt_B1_day3,2022.2.4,Win32,59.99160118,,,,,,down,0,10.7679,,0.179629644,-0.112037023,1,0,0,0,73,73,130,1,keihard,images/br_keihard.png,images/cb_keihard.png,0,,,,,,,,,,,,,,,,,,,,,,
,,,,,00045,2023-10-09_18h44.47.248,vbt_B1_day3,2022.2.4,Win32,59.99160118,,,,,,down,0,2.9969,,0.179629644,-0.112037023,1,0,0,0,74,74,51,1,samen,images/br_samen.png,images/cb_samen.png,0,,,,,,,,,,,,,,,,,,,,,,
,,,,,00045,2023-10-09_18h44.47.248,vbt_B1_day3,2022.2.4,Win32,59.99160118,,,,,,down,0,2.721,,0.179629644,-0.112037023,1,0,0,0,75,75,184,1,aandelen,images/br_aandelen.png,images/cb_aandelen.png,0,,,,,,,,,,,,,,,,,,,,,,
,,,,,00045,2023-10-09_18h44.47.248,vbt_B1_day3,2022.2.4,Win32,59.99160118,,,,,,down,0,3.645,,0.179629644,-0.112037023,1,0,0,0,76,76,15,1,soda,images/br_soda.png,images/cb_soda.png,0,,,,,,,,,,,,,,,,,,,,,,
,,,,,00045,2023-10-09_18h44.47.248,vbt_B1_day3,2022.2.4,Win32,59.99160118,,,,,,down,0,7.2237,,0.179629644,-0.112037023,1,0,0,0,77,77,172,1,weigeren,images/br_weigeren.png,images/cb_weigeren.png,0,,,,,,,,,,,,,,,,,,,,,,
,,,,,00045,2023-10-09_18h44.47.248,vbt_B1_day3,2022.2.4,Win32,59.99160118,,,,,,down,0,2.151,,0.179629644,-0.112037023,1,0,0,0,78,78,77,1,woede,images/br_woede.png,images/cb_woede.png,0,,,,,,,,,,,,,,,,,,,,,,
,,,,,00045,2023-10-09_18h44.47.248,vbt_B1_day3,2022.2.4,Win32,59.99160118,,,,,,down,0,23.7964,,0.179629644,-0.112037023,1,0,0,0,79,79,81,1,dubbel,images/br_dubbel.png,images/cb_dubbel.png,0,,,,,,,,,,,,,,,,,,,,,,
,,,,,00045,2023-10-09_18h44.47.248,vbt_B1_day3,2022.2.4,Win32,59.99160118,,,,,,down,0,1.7341,,0.179629644,-0.112037023,1,0,0,0,80,80,1,1,zaal,images/br_zaal.png,images/cb_zaal.png,0,,,,,,,,,,,,,,,,,,,,,,
,,,,,00045,2023-10-09_18h44.47.248,vbt_B1_day3,2022.2.4,Win32,59.99160118,,,,,,down,0,4.0441,,0.179629644,-0.112037023,1,0,0,0,81,81,4,1,moes,images/br_moes.png,images/cb_moes.png,0,,,,,,,,,,,,,,,,,,,,,,
,,,,,00045,2023-10-09_18h44.47.248,vbt_B1_day3,2022.2.4,Win32,59.99160118,,,,,,down,0,3.5151,,0.179629644,-0.112037023,1,0,0,0,82,82,90,1,geluid,images/br_geluid.png,images/cb_geluid.png,0,,,,,,,,,,,,,,,,,,,,,,
,,,,,00045,2023-10-09_18h44.47.248,vbt_B1_day3,2022.2.4,Win32,59.99160118,,,,,,down,0,4.444,,0.179629644,-0.112037023,1,0,0,0,83,83,46,1,jagen,images/br_jagen.png,images/cb_jagen.png,0,,,,,,,,,,,,,,,,,,,,,,
,,,,,00045,2023-10-09_18h44.47.248,vbt_B1_day3,2022.2.4,Win32,59.99160118,,,,,,down,0,10.4847,,0.179629644,-0.112037023,1,0,0,0,84,84,128,1,prikken,images/br_prikken.png,images/cb_prikken.png,0,,,,,,,,,,,,,,,,,,,,,,
,,,,,00045,2023-10-09_18h44.47.248,vbt_B1_day3,2022.2.4,Win32,59.99160118,,,,,,down,0,0.4766,,0.179629644,-0.112037023,1,0,0,0,85,85,35,1,lust,images/br_lust.png,images/cb_lust.png,0,,,,,,,,,,,,,,,,,,,,,,
,,,,,00045,2023-10-09_18h44.47.248,vbt_B1_day3,2022.2.4,Win32,59.99160118,,,,,,down,0,1.4484,,0.179629644,-0.112037023,1,0,0,0,86,86,49,1,laken,images/br_laken.png,images/cb_laken.png,0,,,,,,,,,,,,,,,,,,,,,,
,,,,,00045,2023-10-09_18h44.47.248,vbt_B1_day3,2022.2.4,Win32,59.99160118,,,,,,down,0,2.53,,0.179629644,-0.112037023,1,0,0,0,87,87,161,1,attentie,images/br_attentie.png,images/cb_attentie.png,0,,,,,,,,,,,,,,,,,,,,,,
,,,,,00045,2023-10-09_18h44.47.248,vbt_B1_day3,2022.2.4,Win32,59.99160118,,,,,,down,0,2.4361,,0.179629644,-0.112037023,1,0,0,0,88,88,45,1,piste,images/br_piste.png,images/cb_piste.png,0,,,,,,,,,,,,,,,,,,,,,,
,,,,,00045,2023-10-09_18h44.47.248,vbt_B1_day3,2022.2.4,Win32,59.99160118,,,,,,down,0,1.3895,,0.179629644,-0.112037023,1,0,0,0,89,89,119,1,liefje,images/br_liefje.png,images/cb_liefje.png,0,,,,,,,,,,,,,,,,,,,,,,
,,,,,00045,2023-10-09_18h44.47.248,vbt_B1_day3,2022.2.4,Win32,59.99160118,,,,,,down,0,3.6011,,0.179629644,-0.112037023,1,0,0,0,90,90,92,1,geheim,images/br_geheim.png,images/cb_geheim.png,0,,,,,,,,,,,,,,,,,,,,,,
,,,,,00045,2023-10-09_18h44.47.248,vbt_B1_day3,2022.2.4,Win32,59.99160118,,,,,,down,0,15.11,,0.179629644,-0.112037023,1,0,0,0,91,91,10,1,leek,images/br_leek.png,images/cb_leek.png,0,,,,,,,,,,,,,,,,,,,,,,
,,,,,00045,2023-10-09_18h44.47.248,vbt_B1_day3,2022.2.4,Win32,59.99160118,,,,,,down,0,3.9115,,0.179629644,-0.112037023,1,0,0,0,92,92,157,1,uitlaat,images/br_uitlaat.png,images/cb_uitlaat.png,0,,,,,,,,,,,,,,,,,,,,,,
,,,,,00045,2023-10-09_18h44.47.248,vbt_B1_day3,2022.2.4,Win32,59.99160118,,,,,,down,0,7.3405,,0.179629644,-0.112037023,1,0,0,0,93,93,145,1,invloed,images/br_invloed.png,images/cb_invloed.png,0,,,,,,,,,,,,,,,,,,,,,,
,,,,,00045,2023-10-09_18h44.47.248,vbt_B1_day3,2022.2.4,Win32,59.99160118,,,,,,down,0,0.4528,,0.179629644,-0.112037023,1,0,0,0,94,94,3,1,mand,images/br_mand.png,images/cb_mand.png,0,,,,,,,,,,,,,,,,,,,,,,
,,,,,00045,2023-10-09_18h44.47.248,vbt_B1_day3,2022.2.4,Win32,59.99160118,,,,,,down,0,11.998,,0.179629644,-0.112037023,1,0,0,0,95,95,111,1,ticket,images/br_ticket.png,images/cb_ticket.png,0,,,,,,,,,,,,,,,,,,,,,,
,,,,,00045,2023-10-09_18h44.47.248,vbt_B1_day3,2022.2.4,Win32,59.99160118,,,,,,down,0,7.6134,,0.179629644,-0.112037023,1,0,0,0,96,96,159,1,sufferd,images/br_sufferd.png,images/cb_sufferd.png,0,,,,,,,,,,,,,,,,,,,,,,
,,,,,00045,2023-10-09_18h44.47.248,vbt_B1_day3,2022.2.4,Win32,59.99160118,,,,,,down,0,6.99,,0.179629644,-0.112037023,1,0,0,0,97,97,182,1,bijkomen,images/br_bijkomen.png,images/cb_bijkomen.png,1,bijkomen,,,,,,,,,,,,,,,,,,,,,
,,,,,00045,2023-10-09_18h44.47.248,vbt_B1_day3,2022.2.4,Win32,59.99160118,,,,,,down,0,3.5498,,0.179629644,-0.112037023,1,0,0,0,98,98,136,1,waarbij,images/br_waarbij.png,images/cb_waarbij.png,0,,,,,,,,,,,,,,,,,,,,,,
,,,,,00045,2023-10-09_18h44.47.248,vbt_B1_day3,2022.2.4,Win32,59.99160118,,,,,,down,0,3.1683,,0.179629644,-0.112037023,1,0,0,0,99,99,65,1,parel,images/br_parel.png,images/cb_parel.png,0,,,,,,,,,,,,,,,,,,,,,,
,,,,,00045,2023-10-09_18h44.47.248,vbt_B1_day3,2022.2.4,Win32,59.99160118,,,,,,down,0,1.6867,,0.179629644,-0.112037023,1,0,0,0,100,100,79,1,nodig,images/br_nodig.png,images/cb_nodig.png,0,,,,,,,,,,,,,,,,,,,,,,
,,,,,00045,2023-10-09_18h44.47.248,vbt_B1_day3,2022.2.4,Win32,59.99160118,,,,,,down,0,2.3136,,0.179629644,-0.112037023,1,0,0,0,101,101,120,1,klimmen,images/br_klimmen.png,images/cb_klimmen.png,0,,,,,,,,,,,,,,,,,,,,,,
,,,,,00045,2023-10-09_18h44.47.248,vbt_B1_day3,2022.2.4,Win32,59.99160118,,,,,,down,0,7.1389,,0.179629644,-0.112037023,1,0,0,0,102,102,147,1,komisch,images/br_komisch.png,images/cb_komisch.png,0,,,,,,,,,,,,,,,,,,,,,,
,,,,,00045,2023-10-09_18h44.47.248,vbt_B1_day3,2022.2.4,Win32,59.99160118,,,,,,down,0,2.7971,,0.179629644,-0.112037023,1,0,0,0,103,103,23,1,zout,images/br_zout.png,images/cb_zout.png,1,zout,,,,,,,,,,,,,,,,,,,,,
,,,,,00045,2023-10-09_18h44.47.248,vbt_B1_day3,2022.2.4,Win32,59.99160118,,,,,,down,0,6.8731,,0.179629644,-0.112037023,1,0,0,0,104,104,183,1,getuigen,images/br_getuigen.png,images/cb_getuigen.png,1,getuigen,,,,,,,,,,,,,,,,,,,,,
,,,,,00045,2023-10-09_18h44.47.248,vbt_B1_day3,2022.2.4,Win32,59.99160118,,,,,,down,0,5.4583,,0.179629644,-0.112037023,1,0,0,0,105,105,168,1,bisschop,images/br_bisschop.png,images/cb_bisschop.png,0,,,,,,,,,,,,,,,,,,,,,,
,,,,,00045,2023-10-09_18h44.47.248,vbt_B1_day3,2022.2.4,Win32,59.99160118,,,,,,down,0,3.236,,0.179629644,-0.112037023,1,0,0,0,106,106,75,1,snoep,images/br_snoep.png,images/cb_snoep.png,0,,,,,,,,,,,,,,,,,,,,,,
,,,,,00045,2023-10-09_18h44.47.248,vbt_B1_day3,2022.2.4,Win32,59.99160118,,,,,,down,0,4.2467,,0.179629644,-0.112037023,1,0,0,0,107,107,163,1,schuilen,images/br_schuilen.png,images/cb_schuilen.png,0,,,,,,,,,,,,,,,,,,,,,,
,,,,,00045,2023-10-09_18h44.47.248,vbt_B1_day3,2022.2.4,Win32,59.99160118,,,,,,down,0,6.0332,,0.179629644,-0.112037023,1,0,0,0,108,108,78,1,leren,images/br_leren.png,images/cb_leren.png,0,,,,,,,,,,,,,,,,,,,,,,
,,,,,00045,2023-10-09_18h44.47.248,vbt_B1_day3,2022.2.4,Win32,59.99160118,,,,,,down,0,2.9464,,0.179629644,-0.112037023,1,0,0,0,109,109,166,1,strikken,images/br_strikken.png,images/cb_strikken.png,0,,,,,,,,,,,,,,,,,,,,,,
,,,,,00045,2023-10-09_18h44.47.248,vbt_B1_day3,2022.2.4,Win32,59.99160118,,,,,,down,0,4.0705,,0.179629644,-0.112037023,1,0,0,0,110,110,107,1,maling,images/br_maling.png,images/cb_maling.png,0,,,,,,,,,,,,,,,,,,,,,,
,,,,,00045,2023-10-09_18h44.47.248,vbt_B1_day3,2022.2.4,Win32,59.99160118,,,,,,down,0,6.5818,,0.179629644,-0.112037023,1,0,0,0,111,111,178,1,huisdier,images/br_huisdier.png,images/cb_huisdier.png,0,,,,,,,,,,,,,,,,,,,,,,
,,,,,00045,2023-10-09_18h44.47.248,vbt_B1_day3,2022.2.4,Win32,59.99160118,,,,,,down,0,4.5598,,0.179629644,-0.112037023,1,0,0,0,112,112,42,1,bleek,images/br_bleek.png,images/cb_bleek.png,0,,,,,,,,,,,,,,,,,,,,,,
,,,,,00045,2023-10-09_18h44.47.248,vbt_B1_day3,2022.2.4,Win32,59.99160118,,,,,,down,0,3.7311,,0.179629644,-0.112037023,1,0,0,0,113,113,173,1,apparaat,images/br_apparaat.png,images/cb_apparaat.png,0,,,,,,,,,,,,,,,,,,,,,,
,,,,,00045,2023-10-09_18h44.47.248,vbt_B1_day3,2022.2.4,Win32,59.99160118,,,,,,down,0,0.9231,,0.179629644,-0.112037023,1,0,0,0,114,114,125,1,aanzien,images/br_aanzien.png,images/cb_aanzien.png,0,,,,,,,,,,,,,,,,,,,,,,
,,,,,00045,2023-10-09_18h44.47.248,vbt_B1_day3,2022.2.4,Win32,59.99160118,,,,,,down,0,1.4998,,0.179629644,-0.112037023,1,0,0,0,115,115,40,1,schep,images/br_schep.png,images/cb_schep.png,0,,,,,,,,,,,,,,,,,,,,,,
,,,,,00045,2023-10-09_18h44.47.248,vbt_B1_day3,2022.2.4,Win32,59.99160118,,,,,,down,0,1.7145,,0.179629644,-0.112037023,1,0,0,0,116,116,56,1,traag,images/br_traag.png,images/cb_traag.png,0,,,,,,,,,,,,,,,,,,,,,,
,,,,,00045,2023-10-09_18h44.47.248,vbt_B1_day3,2022.2.4,Win32,59.99160118,,,,,,down,0,3.6933,,0.179629644,-0.112037023,1,0,0,0,117,117,24,1,jurk,images/br_jurk.png,images/cb_jurk.png,0,,,,,,,,,,,,,,,,,,,,,,
,,,,,00045,2023-10-09_18h44.47.248,vbt_B1_day3,2022.2.4,Win32,59.99160118,,,,,,down,0,3.2141,,0.179629644,-0.112037023,1,0,0,0,118,118,152,1,afnemen,images/br_afnemen.png,images/cb_afnemen.png,0,,,,,,,,,,,,,,,,,,,,,,
,,,,,00045,2023-10-09_18h44.47.248,vbt_B1_day3,2022.2.4,Win32,59.99160118,,,,,,down,0,1.1492,,0.179629644,-0.112037023,1,0,0,0,119,119,124,1,bloeien,images/br_bloeien.png,images/cb_bloeien.png,0,,,,,,,,,,,,,,,,,,,,,,
,,,,,00045,2023-10-09_18h44.47.248,vbt_B1_day3,2022.2.4,Win32,59.99160118,,,,,,down,0,10.0189,,0.179629644,-0.112037023,1,0,0,0,120,120,58,1,tekst,images/br_tekst.png,images/cb_tekst.png,0,,,,,,,,,,,,,,,,,,,,,,
,,,,,00045,2023-10-09_18h44.47.248,vbt_B1_day3,2022.2.4,Win32,59.99160118,,,,,,down,0,3.413,,0.179629644,-0.112037023,1,0,0,0,121,121,189,1,aanraden,images/br_aanraden.png,images/cb_aanraden.png,0,,,,,,,,,,,,,,,,,,,,,,
,,,,,00045,2023-10-09_18h44.47.248,vbt_B1_day3,2022.2.4,Win32,59.99160118,,,,,,down,0,0.892,,0.179629644,-0.112037023,1,0,0,0,122,122,68,1,schat,images/br_schat.png,images/cb_schat.png,0,,,,,,,,,,,,,,,,,,,,,,
,,,,,00045,2023-10-09_18h44.47.248,vbt_B1_day3,2022.2.4,Win32,59.99160118,,,,,,down,0,2.1493,,0.179629644,-0.112037023,1,0,0,0,123,123,62,1,knaap,images/br_knaap.png,images/cb_knaap.png,1,knaap,,,,,,,,,,,,,,,,,,,,,
,,,,,00045,2023-10-09_18h44.47.248,vbt_B1_day3,2022.2.4,Win32,59.99160118,,,,,,down,0,2.5298,,0.179629644,-0.112037023,1,0,0,0,124,124,151,1,aanzoek,images/br_aanzoek.png,images/cb_aanzoek.png,0,,,,,,,,,,,,,,,,,,,,,,
,,,,,00045,2023-10-09_18h44.47.248,vbt_B1_day3,2022.2.4,Win32,59.99160118,,,,,,down,0,5.2257,,0.179629644,-0.112037023,1,0,0,0,125,125,154,1,aflopen,images/br_aflopen.png,images/cb_aflopen.png,0,,,,,,,,,,,,,,,,,,,,,,
,,,,,00045,2023-10-09_18h44.47.248,vbt_B1_day3,2022.2.4,Win32,59.99160118,,,,,,down,0,4.0606,,0.179629644,-0.112037023,1,0,0,0,126,126,87,1,toeval,images/br_toeval.png,images/cb_toeval.png,0,,,,,,,,,,,,,,,,,,,,,,
,,,,,00045,2023-10-09_18h44.47.248,vbt_B1_day3,2022.2.4,Win32,59.99160118,,,,,,down,0,4.7265,,0.179629644,-0.112037023,1,0,0,0,127,127,70,1,ijdel,images/br_ijdel.png,images/cb_ijdel.png,0,,,,,,,,,,,,,,,,,,,,,,
,,,,,00045,2023-10-09_18h44.47.248,vbt_B1_day3,2022.2.4,Win32,59.99160118,,,,,,down,0,0.9329,,0.179629644,-0.112037023,1,0,0,0,128,128,29,1,baas,images/br_baas.png,images/cb_baas.png,0,,,,,,,,,,,,,,,,,,,,,,
,,,,,00045,2023-10-09_18h44.47.248,vbt_B1_day3,2022.2.4,Win32,59.99160118,,,,,,down,0,2.1667,,0.179629644,-0.112037023,1,0,0,0,129,129,102,1,legaal,images/br_legaal.png,images/cb_legaal.png,1,legaal,,,,,,,,,,,,,,,,,,,,,
,,,,,00045,2023-10-09_18h44.47.248,vbt_B1_day3,2022.2.4,Win32,59.99160118,,,,,,down,0,6.6265,,0.179629644,-0.112037023,1,0,0,0,130,130,149,1,redding,images/br_redding.png,images/cb_redding.png,0,,,,,,,,,,,,,,,,,,,,,,
,,,,,00045,2023-10-09_18h44.47.248,vbt_B1_day3,2022.2.4,Win32,59.99160118,,,,,,down,0,4.4661,,0.179629644,-0.112037023,1,0,0,0,131,131,20,1,site,images/br_site.png,images/cb_site.png,1,site,,,,,,,,,,,,,,,,,,,,,
,,,,,00045,2023-10-09_18h44.47.248,vbt_B1_day3,2022.2.4,Win32,59.99160118,,,,,,down,0,4.6286,,0.179629644,-0.112037023,1,0,0,0,132,132,103,1,joggen,images/br_joggen.png,images/cb_joggen.png,1,joggen,,,,,,,,,,,,,,,,,,,,,
,,,,,00045,2023-10-09_18h44.47.248,vbt_B1_day3,2022.2.4,Win32,59.99160118,,,,,,down,0,5.0094,,0.179629644,-0.112037023,1,0,0,0,133,133,193,1,weeshuis,images/br_weeshuis.png,images/cb_weeshuis.png,0,,,,,,,,,,,,,,,,,,,,,,
,,,,,00045,2023-10-09_18h44.47.248,vbt_B1_day3,2022.2.4,Win32,59.99160118,,,,,,down,0,6.4814,,0.179629644,-0.112037023,1,0,0,0,134,134,170,1,schatten,images/br_schatten.png,images/cb_schatten.png,0,,,,,,,,,,,,,,,,,,,,,,
,,,,,00045,2023-10-09_18h44.47.248,vbt_B1_day3,2022.2.4,Win32,59.99160118,,,,,,down,0,0.1709,,0.179629644,-0.112037023,1,0,0,0,135,135,33,1,vlek,images/br_vlek.png,images/cb_vlek.png,0,,,,,,,,,,,,,,,,,,,,,,
,,,,,00045,2023-10-09_18h44.47.248,vbt_B1_day3,2022.2.4,Win32,59.99160118,,,,,,down,0,4.4655,,0.179629644,-0.112037023,1,0,0,0,136,136,156,1,rechten,images/br_rechten.png,images/cb_rechten.png,0,,,,,,,,,,,,,,,,,,,,,,
,,,,,00045,2023-10-09_18h44.47.248,vbt_B1_day3,2022.2.4,Win32,59.99160118,,,,,,down,0,6.0907,,0.179629644,-0.112037023,1,0,0,0,137,137,155,1,gerucht,images/br_gerucht.png,images/cb_gerucht.png,0,,,,,,,,,,,,,,,,,,,,,,
,,,,,00045,2023-10-09_18h44.47.248,vbt_B1_day3,2022.2.4,Win32,59.99160118,,,,,,down,0,3.7113,,0.179629644,-0.112037023,1,0,0,0,138,138,105,1,wijlen,images/br_wijlen.png,images/cb_wijlen.png,0,,,,,,,,,,,,,,,,,,,,,,
,,,,,00045,2023-10-09_18h44.47.248,vbt_B1_day3,2022.2.4,Win32,59.99160118,,,,,,down,0,6.4652,,0.179629644,-0.112037023,1,0,0,0,139,139,190,1,goedkoop,images/br_goedkoop.png,images/cb_goedkoop.png,0,,,,,,,,,,,,,,,,,,,,,,
,,,,,00045,2023-10-09_18h44.47.248,vbt_B1_day3,2022.2.4,Win32,59.99160118,,,,,,down,0,0.1891,,0.179629644,-0.112037023,1,0,0,0,140,140,57,1,steek,images/br_steek.png,images/cb_steek.png,0,,,,,,,,,,,,,,,,,,,,,,
,,,,,00045,2023-10-09_18h44.47.248,vbt_B1_day3,2022.2.4,Win32,59.99160118,,,,,,down,0,7.6304,,0.179629644,-0.112037023,1,0,0,0,141,141,108,1,excuus,images/br_excuus.png,images/cb_excuus.png,0,,,,,,,,,,,,,,,,,,,,,,
,,,,,00045,2023-10-09_18h44.47.248,vbt_B1_day3,2022.2.4,Win32,59.99160118,,,,,,down,0,1.103,,0.179629644,-0.112037023,1,0,0,0,142,142,96,1,slagen,images/br_slagen.png,images/cb_slagen.png,0,,,,,,,,,,,,,,,,,,,,,,
,,,,,00045,2023-10-09_18h44.47.248,vbt_B1_day3,2022.2.4,Win32,59.99160118,,,,,,down,0,0.037,,0.179629644,-0.112037023,1,0,0,0,143,143,9,1,hier,images/br_hier.png,images/cb_hier.png,0,,,,,,,,,,,,,,,,,,,,,,
,,,,,00045,2023-10-09_18h44.47.248,vbt_B1_day3,2022.2.4,Win32,59.99160118,,,,,,down,0,4.2812,,0.179629644,-0.112037023,1,0,0,0,144,144,191,1,opheffen,images/br_opheffen.png,images/cb_opheffen.png,0,,,,,,,,,,,,,,,,,,,,,,
,,,,,00045,2023-10-09_18h44.47.248,vbt_B1_day3,2022.2.4,Win32,59.99160118,,,,,,down,0,1.0383,,0.179629644,-0.112037023,1,0,0,0,145,145,13,1,kaal,images/br_kaal.png,images/cb_kaal.png,0,,,,,,,,,,,,,,,,,,,,,,
,,,,,00045,2023-10-09_18h44.47.248,vbt_B1_day3,2022.2.4,Win32,59.99160118,,,,,,down,0,2.7528,,0.179629644,-0.112037023,1,0,0,0,146,146,127,1,doodmoe,images/br_doodmoe.png,images/cb_doodmoe.png,0,,,,,,,,,,,,,,,,,,,,,,
,,,,,00045,2023-10-09_18h44.47.248,vbt_B1_day3,2022.2.4,Win32,59.99160118,,,,,,down,0,2.497,,0.179629644,-0.112037023,1,0,0,0,147,147,21,1,mist,images/br_mist.png,images/cb_mist.png,1,mest,,,,,,,,,,,,,,,,,,,,,
,,,,,00045,2023-10-09_18h44.47.248,vbt_B1_day3,2022.2.4,Win32,59.99160118,,,,,,down,0,9.3021,,0.179629644,-0.112037023,1,0,0,0,148,148,134,1,geliefd,images/br_geliefd.png,images/cb_geliefd.png,0,,,,,,,,,,,,,,,,,,,,,,
,,,,,00045,2023-10-09_18h44.47.248,vbt_B1_day3,2022.2.4,Win32,59.99160118,,,,,,down,0,7.1763,,0.179629644,-0.112037023,1,0,0,0,149,149,175,1,heengaan,images/br_heengaan.png,images/cb_heengaan.png,0,,,,,,,,,,,,,,,,,,,,,,
,,,,,00045,2023-10-09_18h44.47.248,vbt_B1_day3,2022.2.4,Win32,59.99160118,,,,,,down,0,1.548,,0.179629644,-0.112037023,1,0,0,0,150,150,17,1,taal,images/br_taal.png,images/cb_taal.png,0,,,,,,,,,,,,,,,,,,,,,,
,,,,,00045,2023-10-09_18h44.47.248,vbt_B1_day3,2022.2.4,Win32,59.99160118,,,,,,down,0,1.5836,,0.179629644,-0.112037023,1,0,0,0,151,151,14,1,rijp,images/br_rijp.png,images/cb_rijp.png,0,,,,,,,,,,,,,,,,,,,,,,
,,,,,00045,2023-10-09_18h44.47.248,vbt_B1_day3,2022.2.4,Win32,59.99160118,,,,,,down,0,1.532,,0.179629644,-0.112037023,1,0,0,0,152,152,186,1,voorraad,images/br_voorraad.png,images/cb_voorraad.png,0,,,,,,,,,,,,,,,,,,,,,,
,,,,,00045,2023-10-09_18h44.47.248,vbt_B1_day3,2022.2.4,Win32,59.99160118,,,,,,down,0,1.0989,,0.179629644,-0.112037023,1,0,0,0,153,153,106,1,zingen,images/br_zingen.png,images/cb_zingen.png,0,,,,,,,,,,,,,,,,,,,,,,
,,,,,00045,2023-10-09_18h44.47.248,vbt_B1_day3,2022.2.4,Win32,59.99160118,,,,,,down,0,2.1472,,0.179629644,-0.112037023,1,0,0,0,154,154,162,1,uitdelen,images/br_uitdelen.png,images/cb_uitdelen.png,0,,,,,,,,,,,,,,,,,,,,,,
,,,,,00045,2023-10-09_18h44.47.248,vbt_B1_day3,2022.2.4,Win32,59.99160118,,,,,,down,0,2.8637,,0.179629644,-0.112037023,1,0,0,0,155,155,118,1,vinger,images/br_vinger.png,images/cb_vinger.png,0,,,,,,,,,,,,,,,,,,,,,,
,,,,,00045,2023-10-09_18h44.47.248,vbt_B1_day3,2022.2.4,Win32,59.99160118,,,,,,down,0,1.7384,,0.179629644,-0.112037023,1,0,0,0,156,156,47,1,kabel,images/br_kabel.png,images/cb_kabel.png,0,,,,,,,,,,,,,,,,,,,,,,
,,,,,00045,2023-10-09_18h44.47.248,vbt_B1_day3,2022.2.4,Win32,59.99160118,,,,,,down,0,3.3521,,0.179629644,-0.112037023,1,0,0,0,157,157,109,1,totaal,images/br_totaal.png,images/cb_totaal.png,0,,,,,,,,,,,,,,,,,,,,,,
,,,,,00045,2023-10-09_18h44.47.248,vbt_B1_day3,2022.2.4,Win32,59.99160118,,,,,,down,0,7.8377,,0.179629644,-0.112037023,1,0,0,0,158,158,150,1,gegeven,images/br_gegeven.png,images/cb_gegeven.png,0,,,,,,,,,,,,,,,,,,,,,,
,,,,,00045,2023-10-09_18h44.47.248,vbt_B1_day3,2022.2.4,Win32,59.99160118,,,,,,down,0,5.9746,,0.179629644,-0.112037023,1,0,0,0,159,159,110,1,zuster,images/br_zuster.png,images/cb_zuster.png,0,,,,,,,,,,,,,,,,,,,,,,
,,,,,00045,2023-10-09_18h44.47.248,vbt_B1_day3,2022.2.4,Win32,59.99160118,,,,,,down,0,0.1668,,0.179629644,-0.112037023,1,0,0,0,160,160,129,1,verhaal,images/br_verhaal.png,images/cb_verhaal.png,0,,,,,,,,,,,,,,,,,,,,,,
,,,,,00045,2023-10-09_18h44.47.248,vbt_B1_day3,2022.2.4,Win32,59.99160118,,,,,,down,0,0.3169,,0.179629644,-0.112037023,1,0,0,0,161,161,171,1,aarzelen,images/br_aarzelen.png,images/cb_aarzelen.png,0,,,,,,,,,,,,,,,,,,,,,,
,,,,,00045,2023-10-09_18h44.47.248,vbt_B1_day3,2022.2.4,Win32,59.99160118,,,,,,down,0,2.0972,,0.179629644,-0.112037023,1,0,0,0,162,162,36,1,vuur,images/br_vuur.png,images/cb_vuur.png,0,,,,,,,,,,,,,,,,,,,,,,
,,,,,00045,2023-10-09_18h44.47.248,vbt_B1_day3,2022.2.4,Win32,59.99160118,,,,,,down,0,4.4532,,0.179629644,-0.112037023,1,0,0,0,163,163,131,1,opzicht,images/br_opzicht.png,images/cb_opzicht.png,0,,,,,,,,,,,,,,,,,,,,,,
,,,,,00045,2023-10-09_18h44.47.248,vbt_B1_day3,2022.2.4,Win32,59.99160118,,,,,,down,0,2.3469,,0.179629644,-0.112037023,1,0,0,0,164,164,48,1,steel,images/br_steel.png,images/cb_steel.png,0,,,,,,,,,,,,,,,,,,,,,,
,,,,,00045,2023-10-09_18h44.47.248,vbt_B1_day3,2022.2.4,Win32,59.99160118,,,,,,down,0,1.0695,,0.179629644,-0.112037023,1,0,0,0,165,165,31,1,poes,images/br_poes.png,images/cb_poes.png,0,,,,,,,,,,,,,,,,,,,,,,
,,,,,00045,2023-10-09_18h44.47.248,vbt_B1_day3,2022.2.4,Win32,59.99160118,,,,,,down,0,7.3138,,0.179629644,-0.112037023,1,0,0,0,166,166,94,1,oceaan,images/br_oceaan.png,images/cb_oceaan.png,0,,,,,,,,,,,,,,,,,,,,,,
,,,,,00045,2023-10-09_18h44.47.248,vbt_B1_day3,2022.2.4,Win32,59.99160118,,,,,,down,0,1.1714,,0.179629644,-0.112037023,1,0,0,0,167,167,34,1,vorm,images/br_vorm.png,images/cb_vorm.png,0,,,,,,,,,,,,,,,,,,,,,,
,,,,,00045,2023-10-09_18h44.47.248,vbt_B1_day3,2022.2.4,Win32,59.99160118,,,,,,down,0,4.2475,,0.179629644,-0.112037023,1,0,0,0,168,168,196,1,nakijken,images/br_nakijken.png,images/cb_nakijken.png,0,,,,,,,,,,,,,,,,,,,,,,
,,,,,00045,2023-10-09_18h44.47.248,vbt_B1_day3,2022.2.4,Win32,59.99160118,,,,,,down,0,2.1654,,0.179629644,-0.112037023,1,0,0,0,169,169,158,1,innemen,images/br_innemen.png,images/cb_innemen.png,0,,,,,,,,,,,,,,,,,,,,,,
,,,,,00045,2023-10-09_18h44.47.248,vbt_B1_day3,2022.2.4,Win32,59.99160118,,,,,,down,0,0.5499,,0.179629644,-0.112037023,1,0,0,0,170,170,112,1,lukken,images/br_lukken.png,images/cb_lukken.png,0,,,,,,,,,,,,,,,,,,,,,,
,,,,,00045,2023-10-09_18h44.47.248,vbt_B1_day3,2022.2.4,Win32,59.99160118,,,,,,down,0,2.783,,0.179629644,-0.112037023,1,0,0,0,171,171,22,1,stof,images/br_stof.png,images/cb_stof.png,1,staf,,,,,,,,,,,,,,,,,,,,,
,,,,,00045,2023-10-09_18h44.47.248,vbt_B1_day3,2022.2.4,Win32,59.99160118,,,,,,down,0,4.4934,,0.179629644,-0.112037023,1,0,0,0,172,172,37,1,mijn,images/br_mijn.png,images/cb_mijn.png,0,,,,,,,,,,,,,,,,,,,,,,
,,,,,00045,2023-10-09_18h44.47.248,vbt_B1_day3,2022.2.4,Win32,59.99160118,,,,,,down,0,0.5496,,0.179629644,-0.112037023,1,0,0,0,173,173,95,1,vreten,images/br_vreten.png,images/cb_vreten.png,0,,,,,,,,,,,,,,,,,,,,,,
,,,,,00045,2023-10-09_18h44.47.248,vbt_B1_day3,2022.2.4,Win32,59.99160118,,,,,,down,0,1.1214,,0.179629644,-0.112037023,1,0,0,0,174,174,176,1,techniek,images/br_techniek.png,images/cb_techniek.png,0,,,,,,,,,,,,,,,,,,,,,,
,,,,,00045,2023-10-09_18h44.47.248,vbt_B1_day3,2022.2.4,Win32,59.99160118,,,,,,down,0,0.0841,,0.179629644,-0.112037023,1,0,0,0,175,175,18,1,blik,images/br_blik.png,images/cb_blik.png,0,,,,,,,,,,,,,,,,,,,,,,
,,,,,00045,2023-10-09_18h44.47.248,vbt_B1_day3,2022.2.4,Win32,59.99160118,,,,,,down,0,0.7831,,0.179629644,-0.112037023,1,0,0,0,176,176,188,1,strekken,images/br_strekken.png,images/cb_strekken.png,0,,,,,,,,,,,,,,,,,,,,,,
,,,,,00045,2023-10-09_18h44.47.248,vbt_B1_day3,2022.2.4,Win32,59.99160118,,,,,,down,0,0.788,,0.179629644,-0.112037023,1,0,0,0,177,177,5,1,blad,images/br_blad.png,images/cb_blad.png,0,,,,,,,,,,,,,,,,,,,,,,
,,,,,00045,2023-10-09_18h44.47.248,vbt_B1_day3,2022.2.4,Win32,59.99160118,,,,,,down,0,7.2444,,0.179629644,-0.112037023,1,0,0,0,178,178,148,1,smullen,images/br_smullen.png,images/cb_smullen.png,0,,,,,,,,,,,,,,,,,,,,,,
,,,,,00045,2023-10-09_18h44.47.248,vbt_B1_day3,2022.2.4,Win32,59.99160118,,,,,,down,0,2.4467,,0.179629644,-0.112037023,1,0,0,0,179,179,139,1,stiekem,images/br_stiekem.png,images/cb_stiekem.png,0,,,,,,,,,,,,,,,,,,,,,,
,,,,,00045,2023-10-09_18h44.47.248,vbt_B1_day3,2022.2.4,Win32,59.99160118,,,,,,down,0,2.039,,0.179629644,-0.112037023,1,0,0,0,180,180,141,1,knielen,images/br_knielen.png,images/cb_knielen.png,1,knielen,,,,,,,,,,,,,,,,,,,,,
,,,,,00045,2023-10-09_18h44.47.248,vbt_B1_day3,2022.2.4,Win32,59.99160118,,,,,,down,0,7.2556,,0.179629644,-0.112037023,1,0,0,0,181,181,160,1,daarheen,images/br_daarheen.png,images/cb_daarheen.png,0,,,,,,,,,,,,,,,,,,,,,,
,,,,,00045,2023-10-09_18h44.47.248,vbt_B1_day3,2022.2.4,Win32,59.99160118,,,,,,down,0,4.5648,,0.179629644,-0.112037023,1,0,0,0,182,182,71,1,bever,images/br_bever.png,images/cb_bever.png,0,,,,,,,,,,,,,,,,,,,,,,
,,,,,00045,2023-10-09_18h44.47.248,vbt_B1_day3,2022.2.4,Win32,59.99160118,,,,,,down,0,1.2155,,0.179629644,-0.112037023,1,0,0,0,183,183,198,1,bedoelen,images/br_bedoelen.png,images/cb_bedoelen.png,0,,,,,,,,,,,,,,,,,,,,,,
,,,,,00045,2023-10-09_18h44.47.248,vbt_B1_day3,2022.2.4,Win32,59.99160118,,,,,,down,0,0.0015,,0.179629644,-0.112037023,1,0,0,0,184,184,91,1,gezond,images/br_gezond.png,images/cb_gezond.png,0,,,,,,,,,,,,,,,,,,,,,,
,,,,,00045,2023-10-09_18h44.47.248,vbt_B1_day3,2022.2.4,Win32,59.99160118,,,,,,down,0,3.1159,,0.179629644,-0.112037023,1,0,0,0,185,185,174,1,stemming,images/br_stemming.png,images/cb_stemming.png,0,,,,,,,,,,,,,,,,,,,,,,
,,,,,00045,2023-10-09_18h44.47.248,vbt_B1_day3,2022.2.4,Win32,59.99160118,,,,,,down,0,0.7663,,0.179629644,-0.112037023,1,0,0,0,186,186,2,1,jaar,images/br_jaar.png,images/cb_jaar.png,0,,,,,,,,,,,,,,,,,,,,,,
,,,,,00045,2023-10-09_18h44.47.248,vbt_B1_day3,2022.2.4,Win32,59.99160118,,,,,,down,0,4.095,,0.179629644,-0.112037023,1,0,0,0,187,187,86,1,woning,images/br_woning.png,images/cb_woning.png,0,,,,,,,,,,,,,,,,,,,,,,
,,,,,00045,2023-10-09_18h44.47.248,vbt_B1_day3,2022.2.4,Win32,59.99160118,,,,,,down,0,2.4704,,0.179629644,-0.112037023,1,0,0,0,188,188,144,1,eetlust,images/br_eetlust.png,images/cb_eetlust.png,0,,,,,,,,,,,,,,,,,,,,,,
,,,,,00045,2023-10-09_18h44.47.248,vbt_B1_day3,2022.2.4,Win32,59.99160118,,,,,,down,0,2.4305,,0.179629644,-0.112037023,1,0,0,0,189,189,44,1,flits,images/br_flits.png,images/cb_flits.png,0,,,,,,,,,,,,,,,,,,,,,,
,,,,,00045,2023-10-09_18h44.47.248,vbt_B1_day3,2022.2.4,Win32,59.99160118,,,,,,down,0,7.0557,,0.179629644,-0.112037023,1,0,0,0,190,190,43,1,klauw,images/br_klauw.png,images/cb_klauw.png,0,,,,,,,,,,,,,,,,,,,,,,
,,,,,00045,2023-10-09_18h44.47.248,vbt_B1_day3,2022.2.4,Win32,59.99160118,,,,,,down,0,4.0011,,0.179629644,-0.112037023,1,0,0,0,191,191,60,1,jasje,images/br_jasje.png,images/cb_jasje.png,1,jasje,,,,,,,,,,,,,,,,,,,,,
,,,,,00045,2023-10-09_18h44.47.248,vbt_B1_day3,2022.2.4,Win32,59.99160118,,,,,,down,0,2.5042,,0.179629644,-0.112037023,1,0,0,0,192,192,59,1,kring,images/br_kring.png,images/cb_kring.png,0,,,,,,,,,,,,,,,,,,,,,,
,,,,,00045,2023-10-09_18h44.47.248,vbt_B1_day3,2022.2.4,Win32,59.99160118,,,,,,down,0,2.4876,,0.179629644,-0.112037023,1,0,0,0,193,193,39,1,laag,images/br_laag.png,images/cb_laag.png,0,,,,,,,,,,,,,,,,,,,,,,
,,,,,00045,2023-10-09_18h44.47.248,vbt_B1_day3,2022.2.4,Win32,59.99160118,,,,,,down,0,4.8366,,0.179629644,-0.112037023,1,0,0,0,194,194,195,1,middelen,images/br_middelen.png,images/cb_middelen.png,0,,,,,,,,,,,,,,,,,,,,,,
,,,,,00045,2023-10-09_18h44.47.248,vbt_B1_day3,2022.2.4,Win32,59.99160118,,,,,,down,0,3.5116,,0.179629644,-0.112037023,1,0,0,0,195,195,88,1,boeien,images/br_boeien.png,images/cb_boeien.png,0,,,,,,,,,,,,,,,,,,,,,,
,,,,,00045,2023-10-09_18h44.47.248,vbt_B1_day3,2022.2.4,Win32,59.99160118,,,,,,down,0,3.4949,,0.179629644,-0.112037023,1,0,0,0,196,196,199,1,beseffen,images/br_beseffen.png,images/cb_beseffen.png,0,,,,,,,,,,,,,,,,,,,,,,
,,,,,00045,2023-10-09_18h44.47.248,vbt_B1_day3,2022.2.4,Win32,59.99160118,,,,,,down,0,1.9813,,0.179629644,-0.112037023,1,0,0,0,197,197,74,1,graaf,images/br_graaf.png,images/cb_graaf.png,0,,,,,,,,,,,,,,,,,,,,,,
,,,,,00045,2023-10-09_18h44.47.248,vbt_B1_day3,2022.2.4,Win32,59.99160118,,,,,,down,0,0.7684,,0.179629644,-0.112037023,1,0,0,0,198,198,98,1,kreeft,images/br_kreeft.png,images/cb_kreeft.png,0,,,,,,,,,,,,,,,,,,,,,,
,,,,,00045,2023-10-09_18h44.47.248,vbt_B1_day3,2022.2.4,Win32,59.99160118,,,,,,down,0,1.0202,,0.179629644,-0.112037023,1,0,0,0,199,199,116,1,besmet,images/br_besmet.png,images/cb_besmet.png,0,,,,,,,,,,,,,,,,,,,,,,
,,,,,00045,2023-10-09_18h44.47.248,vbt_B1_day3,2022.2.4,Win32,59.99160118,,,,,,,,,,,,,,,,,,,,,,,,,0.179629644,-0.112037023,1,0,0,,,,,,,,,,,,,,,,
,,,,,00045,2023-10-09_18h44.47.248,vbt_B1_day3,2022.2.4,Win32,59.99160118,,,,,,,,,,,,,,,,,,,,,,,,,,,,,,0.711111139,-0.146296325,1,0,0,,,,,,,,,,,
,,,,,00045,2023-10-09_18h44.47.248,vbt_B1_day3,2022.2.4,Win32,59.99160118,,,,,,,,,,,,,,,,,,,,bisschop,images/br_bisschop.png,images/cb_bisschop.png,,bischop,,,,,,,,,,,0.70185188,-0.18240745,1,0,0,bischop,0,0,0,16,1
,,,,,00045,2023-10-09_18h44.47.248,vbt_B1_day3,2022.2.4,Win32,59.99160118,,,,,,,,,,,,,,,,,,,,makieren,images/br_makieren.png,images/cb_makieren.png,,makiet,,,,,,,,,,,0.70185188,-0.18240745,1,0,0,makiet,0,1,1,36,1
,,,,,00045,2023-10-09_18h44.47.248,vbt_B1_day3,2022.2.4,Win32,59.99160118,,,,,,,,,,,,,,,,,,,,verwoor,images/br_verwoor.png,images/cb_verwoor.png,,verwoor,,,,,,,,,,,0.70185188,-0.18240745,1,0,0,verwoor,0,2,2,32,1
,,,,,00045,2023-10-09_18h44.47.248,vbt_B1_day3,2022.2.4,Win32,59.99160118,,,,,,,,,,,,,,,,,,,,uniek,images/br_uniek.png,images/cb_uniek.png,,uniek,,,,,,,,,,,0.70185188,-0.18240745,1,0,0,uniek,0,3,3,46,1
,,,,,00045,2023-10-09_18h44.47.248,vbt_B1_day3,2022.2.4,Win32,59.99160118,,,,,,,,,,,,,,,,,,,,begrip,images/br_begrip.png,images/cb_begrip.png,,begrip,,,,,,,,,,,0.70185188,-0.18240745,1,0,0,begrip,0,4,4,48,1
,,,,,00045,2023-10-09_18h44.47.248,vbt_B1_day3,2022.2.4,Win32,59.99160118,,,,,,,,,,,,,,,,,,,,schodel,images/br_schodel.png,images/cb_schodel.png,,schodil,,,,,,,,,,,0.70185188,-0.18240745,1,0,0,schodil,0,5,5,33,1
,,,,,00045,2023-10-09_18h44.47.248,vbt_B1_day3,2022.2.4,Win32,59.99160118,,,,,,,,,,,,,,,,,,,,opzicht,images/br_opzicht.png,images/cb_opzicht.png,,opzischn,,,,,,,,,,,0.70185188,-0.18240745,1,0,0,opzischn,0,6,6,15,1
,,,,,00045,2023-10-09_18h44.47.248,vbt_B1_day3,2022.2.4,Win32,59.99160118,,,,,,,,,,,,,,,,,,,,prikken,images/br_prikken.png,images/cb_prikken.png,,prikken,,,,,,,,,,,0.70185188,-0.18240745,1,0,0,prikken,0,7,7,12,1
,,,,,00045,2023-10-09_18h44.47.248,vbt_B1_day3,2022.2.4,Win32,59.99160118,,,,,,,,,,,,,,,,,,,,knie,images/br_knie.png,images/cb_knie.png,,,,,,,,,,,,,0.70185188,-0.18240745,1,0,0,,0,8,8,0,1
,,,,,00045,2023-10-09_18h44.47.248,vbt_B1_day3,2022.2.4,Win32,59.99160118,,,,,,,,,,,,,,,,,,,,opzetten,images/br_opzetten.png,images/cb_opzetten.png,,opnett,,,,,,,,,,,0.70185188,-0.18240745,1,0,0,opnett,0,9,9,56,1
,,,,,00045,2023-10-09_18h44.47.248,vbt_B1_day3,2022.2.4,Win32,59.99160118,,,,,,,,,,,,,,,,,,,,brappen,images/br_brappen.png,images/cb_brappen.png,,brappen,,,,,,,,,,,0.70185188,-0.18240745,1,0,0,brappen,0,10,10,35,1
,,,,,00045,2023-10-09_18h44.47.248,vbt_B1_day3,2022.2.4,Win32,59.99160118,,,,,,,,,,,,,,,,,,,,leugeren,images/br_leugeren.png,images/cb_leugeren.png,,leuger,,,,,,,,,,,0.70185188,-0.18240745,1,0,0,leuger,0,11,11,37,1
,,,,,00045,2023-10-09_18h44.47.248,vbt_B1_day3,2022.2.4,Win32,59.99160118,,,,,,,,,,,,,,,,,,,,hier,images/br_hier.png,images/cb_hier.png,,hier,,,,,,,,,,,0.70185188,-0.18240745,1,0,0,hier,0,12,12,1,1
,,,,,00045,2023-10-09_18h44.47.248,vbt_B1_day3,2022.2.4,Win32,59.99160118,,,,,,,,,,,,,,,,,,,,twaaf,images/br_twaaf.png,images/cb_twaaf.png,,twaaf,,,,,,,,,,,0.70185188,-0.18240745,1,0,0,twaaf,0,13,13,24,1
,,,,,00045,2023-10-09_18h44.47.248,vbt_B1_day3,2022.2.4,Win32,59.99160118,,,,,,,,,,,,,,,,,,,,slapen,images/br_slapen.png,images/cb_slapen.png,,slapen,,,,,,,,,,,0.70185188,-0.18240745,1,0,0,slapen,0,14,14,9,1
,,,,,00045,2023-10-09_18h44.47.248,vbt_B1_day3,2022.2.4,Win32,59.99160118,,,,,,,,,,,,,,,,,,,,eens,images/br_eens.png,images/cb_eens.png,,eens,,,,,,,,,,,0.70185188,-0.18240745,1,0,0,eens,0,15,15,40,1
,,,,,00045,2023-10-09_18h44.47.248,vbt_B1_day3,2022.2.4,Win32,59.99160118,,,,,,,,,,,,,,,,,,,,schatten,images/br_schatten.png,images/cb_schatten.png,,schatten,,,,,,,,,,,0.70185188,-0.18240745,1,0,0,schatten,0,16,16,18,1
,,,,,00045,2023-10-09_18h44.47.248,vbt_B1_day3,2022.2.4,Win32,59.99160118,,,,,,,,,,,,,,,,,,,,boeien,images/br_boeien.png,images/cb_boeien.png,,boeien,,,,,,,,,,,0.70185188,-0.18240745,1,0,0,boeien,0,17,17,8,1
,,,,,00045,2023-10-09_18h44.47.248,vbt_B1_day3,2022.2.4,Win32,59.99160118,,,,,,,,,,,,,,,,,,,,laken,images/br_laken.png,images/cb_laken.png,,laken,,,,,,,,,,,0.70185188,-0.18240745,1,0,0,laken,0,18,18,5,1
,,,,,00045,2023-10-09_18h44.47.248,vbt_B1_day3,2022.2.4,Win32,59.99160118,,,,,,,,,,,,,,,,,,,,hint,images/br_hint.png,images/cb_hint.png,,hint,,,,,,,,,,,0.70185188,-0.18240745,1,0,0,hint,0,19,19,43,1
,,,,,00045,2023-10-09_18h44.47.248,vbt_B1_day3,2022.2.4,Win32,59.99160118,,,,,,,,,,,,,,,,,,,,keihard,images/br_keihard.png,images/cb_keihard.png,,keih,,,,,,,,,,,0.70185188,-0.18240745,1,0,0,keih,0,20,20,14,1
,,,,,00045,2023-10-09_18h44.47.248,vbt_B1_day3,2022.2.4,Win32,59.99160118,,,,,,,,,,,,,,,,,,,,onrecht,images/br_onrecht.png,images/cb_onrecht.png,,onresch,,,,,,,,,,,0.70185188,-0.18240745,1,0,0,onresch,0,21,21,55,1
,,,,,00045,2023-10-09_18h44.47.248,vbt_B1_day3,2022.2.4,Win32,59.99160118,,,,,,,,,,,,,,,,,,,,booien,images/br_booien.png,images/cb_booien.png,,booien,,,,,,,,,,,0.70185188,-0.18240745,1,0,0,booien,0,22,22,31,1
,,,,,00045,2023-10-09_18h44.47.248,vbt_B1_day3,2022.2.4,Win32,59.99160118,,,,,,,,,,,,,,,,,,,,gout,images/br_gout.png,images/cb_gout.png,,geut,,,,,,,,,,,0.70185188,-0.18240745,1,0,0,geut,0,23,23,20,1
,,,,,00045,2023-10-09_18h44.47.248,vbt_B1_day3,2022.2.4,Win32,59.99160118,,,,,,,,,,,,,,,,,,,,bevret,images/br_bevret.png,images/cb_bevret.png,,bevren,,,,,,,,,,,0.70185188,-0.18240745,1,0,0,bevren,0,24,24,30,1
,,,,,00045,2023-10-09_18h44.47.248,vbt_B1_day3,2022.2.4,Win32,59.99160118,,,,,,,,,,,,,,,,,,,,mugeek,images/br_mugeek.png,images/cb_mugeek.png,,mugeek,,,,,,,,,,,0.70185188,-0.18240745,1,0,0,mugeek,0,25,25,29,1
,,,,,00045,2023-10-09_18h44.47.248,vbt_B1_day3,2022.2.4,Win32,59.99160118,,,,,,,,,,,,,,,,,,,,croo,images/br_croo.png,images/cb_croo.png,,chroo,,,,,,,,,,,0.70185188,-0.18240745,1,0,0,chroo,0,26,26,22,1
,,,,,00045,2023-10-09_18h44.47.248,vbt_B1_day3,2022.2.4,Win32,59.99160118,,,,,,,,,,,,,,,,,,,,steel,images/br_steel.png,images/cb_steel.png,,steel,,,,,,,,,,,0.70185188,-0.18240745,1,0,0,steel,0,27,27,4,1
,,,,,00045,2023-10-09_18h44.47.248,vbt_B1_day3,2022.2.4,Win32,59.99160118,,,,,,,,,,,,,,,,,,,,zone,images/br_zone.png,images/cb_zone.png,,zone,,,,,,,,,,,0.70185188,-0.18240745,1,0,0,zone,0,28,28,41,1
,,,,,00045,2023-10-09_18h44.47.248,vbt_B1_day3,2022.2.4,Win32,59.99160118,,,,,,,,,,,,,,,,,,,,jongelui,images/br_jongelui.png,images/cb_jongelui.png,,jongeu,,,,,,,,,,,0.70185188,-0.18240745,1,0,0,jongeu,0,29,29,59,1
,,,,,00045,2023-10-09_18h44.47.248,vbt_B1_day3,2022.2.4,Win32,59.99160118,,,,,,,,,,,,,,,,,,,,geluid,images/br_geluid.png,images/cb_geluid.png,,geleud,,,,,,,,,,,0.70185188,-0.18240745,1,0,0,geleud,0,30,30,10,1
,,,,,00045,2023-10-09_18h44.47.248,vbt_B1_day3,2022.2.4,Win32,59.99160118,,,,,,,,,,,,,,,,,,,,samen,images/br_samen.png,images/cb_samen.png,,samen,,,,,,,,,,,0.70185188,-0.18240745,1,0,0,samen,0,31,31,7,1
,,,,,00045,2023-10-09_18h44.47.248,vbt_B1_day3,2022.2.4,Win32,59.99160118,,,,,,,,,,,,,,,,,,,,alsof,images/br_alsof.png,images/cb_alsof.png,,alsof,,,,,,,,,,,0.70185188,-0.18240745,1,0,0,alsof,0,32,32,44,1
,,,,,00045,2023-10-09_18h44.47.248,vbt_B1_day3,2022.2.4,Win32,59.99160118,,,,,,,,,,,,,,,,,,,,sultan,images/br_sultan.png,images/cb_sultan.png,,sultan,,,,,,,,,,,0.70185188,-0.18240745,1,0,0,sultan,0,33,33,49,1
,,,,,00045,2023-10-09_18h44.47.248,vbt_B1_day3,2022.2.4,Win32,59.99160118,,,,,,,,,,,,,,,,,,,,paken,images/br_paken.png,images/cb_paken.png,,paken,,,,,,,,,,,0.70185188,-0.18240745,1,0,0,paken,0,34,34,27,1
,,,,,00045,2023-10-09_18h44.47.248,vbt_B1_day3,2022.2.4,Win32,59.99160118,,,,,,,,,,,,,,,,,,,,verraden,images/br_verraden.png,images/cb_verraden.png,,verraden,,,,,,,,,,,0.70185188,-0.18240745,1,0,0,verraden,0,35,35,58,1
,,,,,00045,2023-10-09_18h44.47.248,vbt_B1_day3,2022.2.4,Win32,59.99160118,,,,,,,,,,,,,,,,,,,,stallen,images/br_stallen.png,images/cb_stallen.png,,stallen,,,,,,,,,,,0.70185188,-0.18240745,1,0,0,stallen,0,36,36,52,1
,,,,,00045,2023-10-09_18h44.47.248,vbt_B1_day3,2022.2.4,Win32,59.99160118,,,,,,,,,,,,,,,,,,,,aarzelen,images/br_aarzelen.png,images/cb_aarzelen.png,,aarzelen,,,,,,,,,,,0.70185188,-0.18240745,1,0,0,aarzelen,0,37,37,19,1
,,,,,00045,2023-10-09_18h44.47.248,vbt_B1_day3,2022.2.4,Win32,59.99160118,,,,,,,,,,,,,,,,,,,,leek,images/br_leek.png,images/cb_leek.png,,leek,,,,,,,,,,,0.70185188,-0.18240745,1,0,0,leek,0,38,38,2,1
,,,,,00045,2023-10-09_18h44.47.248,vbt_B1_day3,2022.2.4,Win32,59.99160118,,,,,,,,,,,,,,,,,,,,invallen,images/br_invallen.png,images/cb_invallen.png,,invullen,,,,,,,,,,,0.70185188,-0.18240745,1,0,0,invullen,0,39,39,57,1
,,,,,00045,2023-10-09_18h44.47.248,vbt_B1_day3,2022.2.4,Win32,59.99160118,,,,,,,,,,,,,,,,,,,,stikken,images/br_stikken.png,images/cb_stikken.png,,stikken,,,,,,,,,,,0.70185188,-0.18240745,1,0,0,stikken,0,40,40,54,1
,,,,,00045,2023-10-09_18h44.47.248,vbt_B1_day3,2022.2.4,Win32,59.99160118,,,,,,,,,,,,,,,,,,,,theeting,images/br_theeting.png,images/cb_theeting.png,,theet,,,,,,,,,,,0.70185188,-0.18240745,1,0,0,theet,0,41,41,38,1
,,,,,00045,2023-10-09_18h44.47.248,vbt_B1_day3,2022.2.4,Win32,59.99160118,,,,,,,,,,,,,,,,,,,,kwaas,images/br_kwaas.png,images/cb_kwaas.png,,kwaas,,,,,,,,,,,0.70185188,-0.18240745,1,0,0,kwaas,0,42,42,26,1
,,,,,00045,2023-10-09_18h44.47.248,vbt_B1_day3,2022.2.4,Win32,59.99160118,,,,,,,,,,,,,,,,,,,,oprotten,images/br_oprotten.png,images/cb_oprotten.png,,oprotten,,,,,,,,,,,0.70185188,-0.18240745,1,0,0,oprotten,0,43,43,17,1
,,,,,00045,2023-10-09_18h44.47.248,vbt_B1_day3,2022.2.4,Win32,59.99160118,,,,,,,,,,,,,,,,,,,,mode,images/br_mode.png,images/cb_mode.png,,mode,,,,,,,,,,,0.70185188,-0.18240745,1,0,0,mode,0,44,44,3,1
,,,,,00045,2023-10-09_18h44.47.248,vbt_B1_day3,2022.2.4,Win32,59.99160118,,,,,,,,,,,,,,,,,,,,leemaken,images/br_leemaken.png,images/cb_leemaken.png,,leemaken,,,,,,,,,,,0.70185188,-0.18240745,1,0,0,leemaken,0,45,45,39,1
,,,,,00045,2023-10-09_18h44.47.248,vbt_B1_day3,2022.2.4,Win32,59.99160118,,,,,,,,,,,,,,,,,,,,gezond,images/br_gezond.png,images/cb_gezond.png,,gezond,,,,,,,,,,,0.70185188,-0.18240745,1,0,0,gezond,0,46,46,11,1
,,,,,00045,2023-10-09_18h44.47.248,vbt_B1_day3,2022.2.4,Win32,59.99160118,,,,,,,,,,,,,,,,,,,,glijden,images/br_glijden.png,images/cb_glijden.png,,glijden,,,,,,,,,,,0.70185188,-0.18240745,1,0,0,glijden,0,47,47,53,1
,,,,,00045,2023-10-09_18h44.47.248,vbt_B1_day3,2022.2.4,Win32,59.99160118,,,,,,,,,,,,,,,,,,,,vlager,images/br_vlager.png,images/cb_vlager.png,,vlager,,,,,,,,,,,0.70185188,-0.18240745,1,0,0,vlager,0,48,48,28,1
,,,,,00045,2023-10-09_18h44.47.248,vbt_B1_day3,2022.2.4,Win32,59.99160118,,,,,,,,,,,,,,,,,,,,gebod,images/br_gebod.png,images/cb_gebod.png,,gebod,,,,,,,,,,,0.70185188,-0.18240745,1,0,0,gebod,0,49,49,45,1
,,,,,00045,2023-10-09_18h44.47.248,vbt_B1_day3,2022.2.4,Win32,59.99160118,,,,,,,,,,,,,,,,,,,,kaas,images/br_kaas.png,images/cb_kaas.png,,kaas,,,,,,,,,,,0.70185188,-0.18240745,1,0,0,kaas,0,50,50,42,1
,,,,,00045,2023-10-09_18h44.47.248,vbt_B1_day3,2022.2.4,Win32,59.99160118,,,,,,,,,,,,,,,,,,,,beslag,images/br_beslag.png,images/cb_beslag.png,,beslag,,,,,,,,,,,0.70185188,-0.18240745,1,0,0,beslag,0,51,51,51,1
,,,,,00045,2023-10-09_18h44.47.248,vbt_B1_day3,2022.2.4,Win32,59.99160118,,,,,,,,,,,,,,,,,,,,verhaal,images/br_verhaal.png,images/cb_verhaal.png,,verh,,,,,,,,,,,0.70185188,-0.18240745,1,0,0,verh,0,52,52,13,1
,,,,,00045,2023-10-09_18h44.47.248,vbt_B1_day3,2022.2.4,Win32,59.99160118,,,,,,,,,,,,,,,,,,,,uviek,images/br_uviek.png,images/cb_uviek.png,,uviek,,,,,,,,,,,0.70185188,-0.18240745,1,0,0,uviek,0,53,53,25,1
,,,,,00045,2023-10-09_18h44.47.248,vbt_B1_day3,2022.2.4,Win32,59.99160118,,,,,,,,,,,,,,,,,,,,afbopen,images/br_afbopen.png,images/cb_afbopen.png,,afboe,,,,,,,,,,,0.70185188,-0.18240745,1,0,0,afboe,0,54,54,34,1
,,,,,00045,2023-10-09_18h44.47.248,vbt_B1_day3,2022.2.4,Win32,59.99160118,,,,,,,,,,,,,,,,,,,,sluier,images/br_sluier.png,images/cb_sluier.png,,sluier,,,,,,,,,,,0.70185188,-0.18240745,1,0,0,sluier,0,55,55,50,1
,,,,,00045,2023-10-09_18h44.47.248,vbt_B1_day3,2022.2.4,Win32,59.99160118,,,,,,,,,,,,,,,,,,,,kest,images/br_kest.png,images/cb_kest.png,,kust,,,,,,,,,,,0.70185188,-0.18240745,1,0,0,kust,0,56,56,21,1
,,,,,00045,2023-10-09_18h44.47.248,vbt_B1_day3,2022.2.4,Win32,59.99160118,,,,,,,,,,,,,,,,,,,,hust,images/br_hust.png,images/cb_hust.png,,hust,,,,,,,,,,,0.70185188,-0.18240745,1,0,0,hust,0,57,57,23,1
,,,,,00045,2023-10-09_18h44.47.248,vbt_B1_day3,2022.2.4,Win32,59.99160118,,,,,,,,,,,,,,,,,,,,stoom,images/br_stoom.png,images/cb_stoom.png,,stoom,,,,,,,,,,,0.70185188,-0.18240745,1,0,0,stoom,0,58,58,6,1
,,,,,00045,2023-10-09_18h44.47.248,vbt_B1_day3,2022.2.4,Win32,59.99160118,,,,,,,,,,,,,,,,,,,,dwang,images/br_dwang.png,images/cb_dwang.png,,dwang,,,,,,,,,,,0.70185188,-0.18240745,1,0,0,dwang,0,59,59,47,1
,,,,,00045,2023-10-09_18h44.47.248,vbt_B1_day3,2022.2.4,Win32,59.99160118,,,,,,,,,,,,,,,,,,,,,,,,,,,,,,,,,,,,,,,,,,,,,
