welcome_mouse.x,welcome_mouse.y,welcome_mouse.leftButton,welcome_mouse.midButton,welcome_mouse.rightButton,"ID",date,expName,psychopyVersion,OS,frameRate,participant,trainInstr_mouse.x,trainInstr_mouse.y,trainInstr_mouse.leftButton,trainInstr_mouse.midButton,trainInstr_mouse.rightButton,translation_key.keys,translation_key.corr,translation_key.rt,word_rsp.text,trWrd_mouse.x,trWrd_mouse.y,trWrd_mouse.leftButton,trWrd_mouse.midButton,trWrd_mouse.rightButton,train_loop.thisRepN,train_loop.thisTrialN,train_loop.thisN,train_loop.thisIndex,train_loop.ran,nlWrd,brWrd,cbWrd,test,testResp,mouse.x,mouse.y,mouse.leftButton,mouse.midButton,mouse.rightButton,testInstr_mouse.x,testInstr_mouse.y,testInstr_mouse.leftButton,testInstr_mouse.midButton,testInstr_mouse.rightButton,test_mouse.x,test_mouse.y,test_mouse.leftButton,test_mouse.midButton,test_mouse.rightButton,test_response.text,test_loop.thisRepN,test_loop.thisTrialN,test_loop.thisN,test_loop.thisIndex,test_loop.ran
-0.127777778,-0.152777778,1,0,0,55009,2023-07-30_15h03.58.092,vbt_B1_day3,2022.2.4,Win32,60.42661188,55009,,,,,,,,,,,,,,,,,,,,,,,,,,,,,,,,,,,,,,,,,,,,,
,,,,,55009,2023-07-30_15h03.58.092,vbt_B1_day3,2022.2.4,Win32,60.42661188,55009,-0.015740741,0.065740741,1,0,0,,,,,,,,,,,,,,,,,,,,,,,,,,,,,,,,,,,,,,,,
,,,,,55009,2023-07-30_15h03.58.092,vbt_B1_day3,2022.2.4,Win32,60.42661188,55009,,,,,,down,0,7.6936,,0.02962963,-0.003703704,1,0,0,0,0,0,3,1,mand,images/br_mand.png,images/cb_mand.png,0,,,,,,,,,,,,,,,,,,,,,,
,,,,,55009,2023-07-30_15h03.58.092,vbt_B1_day3,2022.2.4,Win32,60.42661188,55009,,,,,,down,0,6.7712,,0.12962963,-0.000925926,1,0,0,0,1,1,164,1,anarchie,images/br_anarchie.png,images/cb_anarchie.png,0,,,,,,,,,,,,,,,,,,,,,,
,,,,,55009,2023-07-30_15h03.58.092,vbt_B1_day3,2022.2.4,Win32,60.42661188,55009,,,,,,down,0,4.5674,,0.102777778,-0.00462963,1,0,0,0,2,2,134,1,geliefd,images/br_geliefd.png,images/cb_geliefd.png,0,,,,,,,,,,,,,,,,,,,,,,
,,,,,55009,2023-07-30_15h03.58.092,vbt_B1_day3,2022.2.4,Win32,60.42661188,55009,,,,,,down,0,13.362,,0.024074074,-0.005555556,1,0,0,0,3,3,52,1,wagon,images/br_wagon.png,images/cb_wagon.png,0,,,,,,,,,,,,,,,,,,,,,,
,,,,,55009,2023-07-30_15h03.58.092,vbt_B1_day3,2022.2.4,Win32,60.42661188,55009,,,,,,down,0,123.1174,,0.026851852,-0.172222222,1,0,0,0,4,4,81,1,dubbel,images/br_dubbel.png,images/cb_dubbel.png,0,,,,,,,,,,,,,,,,,,,,,,
,,,,,55009,2023-07-30_15h03.58.092,vbt_B1_day3,2022.2.4,Win32,60.42661188,55009,,,,,,down,0,4.1665,,0.128703704,-0.136111111,1,0,0,0,5,5,22,1,stof,images/br_stof.png,images/cb_stof.png,1,stof,,,,,,,,,,,,,,,,,,,,,
,,,,,55009,2023-07-30_15h03.58.092,vbt_B1_day3,2022.2.4,Win32,60.42661188,55009,,,,,,down,0,5.0761,,0.103703704,-0.021296296,1,0,0,0,6,6,191,1,opheffen,images/br_opheffen.png,images/cb_opheffen.png,0,,,,,,,,,,,,,,,,,,,,,,
,,,,,55009,2023-07-30_15h03.58.092,vbt_B1_day3,2022.2.4,Win32,60.42661188,55009,,,,,,down,0,2.4512,,0.024074074,-0.012037037,1,0,0,0,7,7,74,1,graaf,images/br_graaf.png,images/cb_graaf.png,0,,,,,,,,,,,,,,,,,,,,,,
,,,,,55009,2023-07-30_15h03.58.092,vbt_B1_day3,2022.2.4,Win32,60.42661188,55009,,,,,,down,0,11.841,,0.225925926,-0.02037037,1,0,0,0,8,8,194,1,driemaal,images/br_driemaal.png,images/cb_driemaal.png,0,,,,,,,,,,,,,,,,,,,,,,
,,,,,55009,2023-07-30_15h03.58.092,vbt_B1_day3,2022.2.4,Win32,60.42661188,55009,,,,,,down,0,2.2168,,-0.028703704,-0.001851852,1,0,0,0,9,9,18,1,blik,images/br_blik.png,images/cb_blik.png,0,,,,,,,,,,,,,,,,,,,,,,
,,,,,55009,2023-07-30_15h03.58.092,vbt_B1_day3,2022.2.4,Win32,60.42661188,55009,,,,,,down,0,12.0975,,-0.074074074,0.011111111,1,0,0,0,10,10,185,1,mijnheer,images/br_mijnheer.png,images/cb_mijnheer.png,0,,,,,,,,,,,,,,,,,,,,,,
,,,,,55009,2023-07-30_15h03.58.092,vbt_B1_day3,2022.2.4,Win32,60.42661188,55009,,,,,,down,0,8.2503,,0.118518519,0.008333333,1,0,0,0,11,11,34,1,vorm,images/br_vorm.png,images/cb_vorm.png,0,,,,,,,,,,,,,,,,,,,,,,
,,,,,55009,2023-07-30_15h03.58.092,vbt_B1_day3,2022.2.4,Win32,60.42661188,55009,,,,,,down,0,1.9169,,-0.007407407,0.038888889,1,0,0,0,12,12,138,1,akkoord,images/br_akkoord.png,images/cb_akkoord.png,0,,,,,,,,,,,,,,,,,,,,,,
,,,,,55009,2023-07-30_15h03.58.092,vbt_B1_day3,2022.2.4,Win32,60.42661188,55009,,,,,,down,0,1.0385,,-0.027777778,0.00462963,1,0,0,0,13,13,7,1,geld,images/br_geld.png,images/cb_geld.png,0,,,,,,,,,,,,,,,,,,,,,,
,,,,,55009,2023-07-30_15h03.58.092,vbt_B1_day3,2022.2.4,Win32,60.42661188,55009,,,,,,down,0,2.4768,,-0.027777778,0.00462963,1,0,0,0,14,14,124,1,bloeien,images/br_bloeien.png,images/cb_bloeien.png,0,,,,,,,,,,,,,,,,,,,,,,
,,,,,55009,2023-07-30_15h03.58.092,vbt_B1_day3,2022.2.4,Win32,60.42661188,55009,,,,,,down,0,5.3338,,0.084259259,-0.009259259,1,0,0,0,15,15,173,1,apparaat,images/br_apparaat.png,images/cb_apparaat.png,0,,,,,,,,,,,,,,,,,,,,,,
,,,,,55009,2023-07-30_15h03.58.092,vbt_B1_day3,2022.2.4,Win32,60.42661188,55009,,,,,,down,0,1.2788,,0.025925926,0.001851852,1,0,0,0,16,16,186,1,voorraad,images/br_voorraad.png,images/cb_voorraad.png,0,,,,,,,,,,,,,,,,,,,,,,
,,,,,55009,2023-07-30_15h03.58.092,vbt_B1_day3,2022.2.4,Win32,60.42661188,55009,,,,,,down,0,2.4217,,0.025,0.001851852,1,0,0,0,17,17,175,1,heengaan,images/br_heengaan.png,images/cb_heengaan.png,0,,,,,,,,,,,,,,,,,,,,,,
,,,,,55009,2023-07-30_15h03.58.092,vbt_B1_day3,2022.2.4,Win32,60.42661188,55009,,,,,,down,0,2.6674,,-0.008333333,-0.006481481,1,0,0,0,18,18,188,1,strekken,images/br_strekken.png,images/cb_strekken.png,0,,,,,,,,,,,,,,,,,,,,,,
,,,,,55009,2023-07-30_15h03.58.092,vbt_B1_day3,2022.2.4,Win32,60.42661188,55009,,,,,,down,0,6.1591,,0.287037037,0.244444444,1,0,0,0,19,19,150,1,gegeven,images/br_gegeven.png,images/cb_gegeven.png,0,,,,,,,,,,,,,,,,,,,,,,
,,,,,55009,2023-07-30_15h03.58.092,vbt_B1_day3,2022.2.4,Win32,60.42661188,55009,,,,,,down,0,4.0673,,0.256481481,0.224074074,1,0,0,0,20,20,174,1,stemming,images/br_stemming.png,images/cb_stemming.png,0,,,,,,,,,,,,,,,,,,,,,,
,,,,,55009,2023-07-30_15h03.58.092,vbt_B1_day3,2022.2.4,Win32,60.42661188,55009,,,,,,down,0,1.2333,,0.256481481,0.224074074,1,0,0,0,21,21,66,1,lever,images/br_lever.png,images/cb_lever.png,0,,,,,,,,,,,,,,,,,,,,,,
,,,,,55009,2023-07-30_15h03.58.092,vbt_B1_day3,2022.2.4,Win32,60.42661188,55009,,,,,,down,0,18.3845,,0.119444444,-0.016666667,1,0,0,0,22,22,159,1,sufferd,images/br_sufferd.png,images/cb_sufferd.png,0,,,,,,,,,,,,,,,,,,,,,,
,,,,,55009,2023-07-30_15h03.58.092,vbt_B1_day3,2022.2.4,Win32,60.42661188,55009,,,,,,down,0,7.0171,,-0.008333333,0.007407407,1,0,0,0,23,23,16,1,ziek,images/br_ziek.png,images/cb_ziek.png,0,,,,,,,,,,,,,,,,,,,,,,
,,,,,55009,2023-07-30_15h03.58.092,vbt_B1_day3,2022.2.4,Win32,60.42661188,55009,,,,,,down,0,4.7003,,-0.010185185,0.018518519,1,0,0,0,24,24,97,1,loyaal,images/br_loyaal.png,images/cb_loyaal.png,0,,,,,,,,,,,,,,,,,,,,,,
,,,,,55009,2023-07-30_15h03.58.092,vbt_B1_day3,2022.2.4,Win32,60.42661188,55009,,,,,,down,0,4.3002,,0.157407407,0.013888889,1,0,0,0,25,25,155,1,gerucht,images/br_gerucht.png,images/cb_gerucht.png,0,,,,,,,,,,,,,,,,,,,,,,
,,,,,55009,2023-07-30_15h03.58.092,vbt_B1_day3,2022.2.4,Win32,60.42661188,55009,,,,,,down,0,4.4343,,-0.119444444,-0.021296296,1,0,0,0,26,26,177,1,maaltijd,images/br_maaltijd.png,images/cb_maaltijd.png,0,,,,,,,,,,,,,,,,,,,,,,
,,,,,55009,2023-07-30_15h03.58.092,vbt_B1_day3,2022.2.4,Win32,60.42661188,55009,,,,,,down,0,1.7556,,-0.053703704,-0.02962963,1,0,0,0,27,27,166,1,strikken,images/br_strikken.png,images/cb_strikken.png,0,,,,,,,,,,,,,,,,,,,,,,
,,,,,55009,2023-07-30_15h03.58.092,vbt_B1_day3,2022.2.4,Win32,60.42661188,55009,,,,,,down,0,2.1508,,-0.017592593,-0.025925926,1,0,0,0,28,28,144,1,eetlust,images/br_eetlust.png,images/cb_eetlust.png,0,,,,,,,,,,,,,,,,,,,,,,
,,,,,55009,2023-07-30_15h03.58.092,vbt_B1_day3,2022.2.4,Win32,60.42661188,55009,,,,,,down,0,1.0836,,-0.009259259,-0.028703704,1,0,0,0,29,29,73,1,volop,images/br_volop.png,images/cb_volop.png,0,,,,,,,,,,,,,,,,,,,,,,
,,,,,55009,2023-07-30_15h03.58.092,vbt_B1_day3,2022.2.4,Win32,60.42661188,55009,,,,,,down,0,3.8506,,-0.008333333,-0.021296296,1,0,0,0,30,30,8,1,knie,images/br_knie.png,images/cb_knie.png,0,,,,,,,,,,,,,,,,,,,,,,
,,,,,55009,2023-07-30_15h03.58.092,vbt_B1_day3,2022.2.4,Win32,60.42661188,55009,,,,,,down,0,8.6334,,0.155555556,-0.013888889,1,0,0,0,31,31,111,1,ticket,images/br_ticket.png,images/cb_ticket.png,0,,,,,,,,,,,,,,,,,,,,,,
,,,,,55009,2023-07-30_15h03.58.092,vbt_B1_day3,2022.2.4,Win32,60.42661188,55009,,,,,,down,0,1.9828,,0.040740741,0.010185185,1,0,0,0,32,32,64,1,wegen,images/br_wegen.png,images/cb_wegen.png,0,,,,,,,,,,,,,,,,,,,,,,
,,,,,55009,2023-07-30_15h03.58.092,vbt_B1_day3,2022.2.4,Win32,60.42661188,55009,,,,,,down,0,2.9881,,0.021296296,-0.005555556,1,0,0,0,33,33,49,1,laken,images/br_laken.png,images/cb_laken.png,0,,,,,,,,,,,,,,,,,,,,,,
,,,,,55009,2023-07-30_15h03.58.092,vbt_B1_day3,2022.2.4,Win32,60.42661188,55009,,,,,,down,0,1.5412,,0.037037037,-0.031481481,1,0,0,0,34,34,21,1,mist,images/br_mist.png,images/cb_mist.png,1,mist,,,,,,,,,,,,,,,,,,,,,
,,,,,55009,2023-07-30_15h03.58.092,vbt_B1_day3,2022.2.4,Win32,60.42661188,55009,,,,,,down,0,2.4531,,0.052777778,-0.003703704,1,0,0,0,35,35,88,1,boeien,images/br_boeien.png,images/cb_boeien.png,0,,,,,,,,,,,,,,,,,,,,,,
,,,,,55009,2023-07-30_15h03.58.092,vbt_B1_day3,2022.2.4,Win32,60.42661188,55009,,,,,,down,0,3.5841,,0.049074074,0.000925926,1,0,0,0,36,36,100,1,geduld,images/br_geduld.png,images/cb_geduld.png,1,geduld,,,,,,,,,,,,,,,,,,,,,
,,,,,55009,2023-07-30_15h03.58.092,vbt_B1_day3,2022.2.4,Win32,60.42661188,55009,,,,,,down,0,2.2756,,0.023148148,0.003703704,1,0,0,0,37,37,128,1,prikken,images/br_prikken.png,images/cb_prikken.png,0,,,,,,,,,,,,,,,,,,,,,,
,,,,,55009,2023-07-30_15h03.58.092,vbt_B1_day3,2022.2.4,Win32,60.42661188,55009,,,,,,down,0,3.2361,,0.053703704,-0.037037037,1,0,0,0,38,38,104,1,zweven,images/br_zweven.png,images/cb_zweven.png,0,,,,,,,,,,,,,,,,,,,,,,
,,,,,55009,2023-07-30_15h03.58.092,vbt_B1_day3,2022.2.4,Win32,60.42661188,55009,,,,,,down,0,0.1339,,0.053703704,-0.037037037,1,0,0,0,39,39,48,1,steel,images/br_steel.png,images/cb_steel.png,0,,,,,,,,,,,,,,,,,,,,,,
,,,,,55009,2023-07-30_15h03.58.092,vbt_B1_day3,2022.2.4,Win32,60.42661188,55009,,,,,,down,0,7.1503,,0.053703704,-0.037037037,1,0,0,0,40,40,143,1,hechten,images/br_hechten.png,images/cb_hechten.png,1,hechten,,,,,,,,,,,,,,,,,,,,,
,,,,,55009,2023-07-30_15h03.58.092,vbt_B1_day3,2022.2.4,Win32,60.42661188,55009,,,,,,down,0,2.9067,,0.080555556,0.005555556,1,0,0,0,41,41,146,1,opkomen,images/br_opkomen.png,images/cb_opkomen.png,0,,,,,,,,,,,,,,,,,,,,,,
,,,,,55009,2023-07-30_15h03.58.092,vbt_B1_day3,2022.2.4,Win32,60.42661188,55009,,,,,,down,0,2.3502,,0.007407407,-0.003703704,1,0,0,0,42,42,82,1,muziek,images/br_muziek.png,images/cb_muziek.png,0,,,,,,,,,,,,,,,,,,,,,,
,,,,,55009,2023-07-30_15h03.58.092,vbt_B1_day3,2022.2.4,Win32,60.42661188,55009,,,,,,down,0,0.4377,,0.033333333,-0.00462963,1,0,0,0,43,43,19,1,geit,images/br_geit.png,images/cb_geit.png,0,,,,,,,,,,,,,,,,,,,,,,
,,,,,55009,2023-07-30_15h03.58.092,vbt_B1_day3,2022.2.4,Win32,60.42661188,55009,,,,,,down,0,6.3164,,-0.161111111,0.014814815,1,0,0,0,44,44,153,1,vervoer,images/br_vervoer.png,images/cb_vervoer.png,0,,,,,,,,,,,,,,,,,,,,,,
,,,,,55009,2023-07-30_15h03.58.092,vbt_B1_day3,2022.2.4,Win32,60.42661188,55009,,,,,,down,0,1.1672,,0.014814815,-0.016666667,1,0,0,0,45,45,57,1,steek,images/br_steek.png,images/cb_steek.png,0,,,,,,,,,,,,,,,,,,,,,,
,,,,,55009,2023-07-30_15h03.58.092,vbt_B1_day3,2022.2.4,Win32,60.42661188,55009,,,,,,down,0,1.1205,,0.032407407,-0.001851852,1,0,0,0,46,46,37,1,mijn,images/br_mijn.png,images/cb_mijn.png,0,,,,,,,,,,,,,,,,,,,,,,
,,,,,55009,2023-07-30_15h03.58.092,vbt_B1_day3,2022.2.4,Win32,60.42661188,55009,,,,,,down,0,4.0455,,0.123148148,0.00462963,1,0,0,0,47,47,149,1,redding,images/br_redding.png,images/cb_redding.png,0,,,,,,,,,,,,,,,,,,,,,,
,,,,,55009,2023-07-30_15h03.58.092,vbt_B1_day3,2022.2.4,Win32,60.42661188,55009,,,,,,down,0,2.917,,0.089814815,0.005555556,1,0,0,0,48,48,160,1,daarheen,images/br_daarheen.png,images/cb_daarheen.png,0,,,,,,,,,,,,,,,,,,,,,,
,,,,,55009,2023-07-30_15h03.58.092,vbt_B1_day3,2022.2.4,Win32,60.42661188,55009,,,,,,down,0,9.6873,,0.012037037,-0.088888889,1,0,0,0,49,49,30,1,uien,images/br_uien.png,images/cb_uien.png,0,,,,,,,,,,,,,,,,,,,,,,
,,,,,55009,2023-07-30_15h03.58.092,vbt_B1_day3,2022.2.4,Win32,60.42661188,55009,,,,,,down,0,2.7865,,0.075,-0.014814815,1,0,0,0,50,50,123,1,hiervan,images/br_hiervan.png,images/cb_hiervan.png,0,,,,,,,,,,,,,,,,,,,,,,
,,,,,55009,2023-07-30_15h03.58.092,vbt_B1_day3,2022.2.4,Win32,60.42661188,55009,,,,,,down,0,1.249,,0.086111111,-0.002777778,1,0,0,0,51,51,85,1,heilig,images/br_heilig.png,images/cb_heilig.png,0,,,,,,,,,,,,,,,,,,,,,,
,,,,,55009,2023-07-30_15h03.58.092,vbt_B1_day3,2022.2.4,Win32,60.42661188,55009,,,,,,down,0,7.9684,,0.14537037,-0.009259259,1,0,0,0,52,52,199,1,beseffen,images/br_beseffen.png,images/cb_beseffen.png,0,,,,,,,,,,,,,,,,,,,,,,
,,,,,55009,2023-07-30_15h03.58.092,vbt_B1_day3,2022.2.4,Win32,60.42661188,55009,,,,,,down,0,2.0897,,-0.061111111,-0.005555556,1,0,0,0,53,53,106,1,zingen,images/br_zingen.png,images/cb_zingen.png,0,,,,,,,,,,,,,,,,,,,,,,
,,,,,55009,2023-07-30_15h03.58.092,vbt_B1_day3,2022.2.4,Win32,60.42661188,55009,,,,,,down,0,14.1705,,0.023148148,0.022222222,1,0,0,0,54,54,130,1,keihard,images/br_keihard.png,images/cb_keihard.png,0,,,,,,,,,,,,,,,,,,,,,,
,,,,,55009,2023-07-30_15h03.58.092,vbt_B1_day3,2022.2.4,Win32,60.42661188,55009,,,,,,down,0,4.0901,,0.062037037,-0.011111111,1,0,0,0,55,55,193,1,weeshuis,images/br_weeshuis.png,images/cb_weeshuis.png,0,,,,,,,,,,,,,,,,,,,,,,
,,,,,55009,2023-07-30_15h03.58.092,vbt_B1_day3,2022.2.4,Win32,60.42661188,55009,,,,,,down,0,8.2671,,0.062962963,-0.011111111,1,0,0,0,56,56,145,1,invloed,images/br_invloed.png,images/cb_invloed.png,0,,,,,,,,,,,,,,,,,,,,,,
,,,,,55009,2023-07-30_15h03.58.092,vbt_B1_day3,2022.2.4,Win32,60.42661188,55009,,,,,,down,0,1.9082,,0.118518519,-0.008333333,1,0,0,0,57,57,172,1,weigeren,images/br_weigeren.png,images/cb_weigeren.png,0,,,,,,,,,,,,,,,,,,,,,,
,,,,,55009,2023-07-30_15h03.58.092,vbt_B1_day3,2022.2.4,Win32,60.42661188,55009,,,,,,down,0,5.5336,,0.046296296,-0.002777778,1,0,0,0,58,58,171,1,aarzelen,images/br_aarzelen.png,images/cb_aarzelen.png,0,,,,,,,,,,,,,,,,,,,,,,
,,,,,55009,2023-07-30_15h03.58.092,vbt_B1_day3,2022.2.4,Win32,60.42661188,55009,,,,,,down,0,3.7849,,0.006481481,0.011111111,1,0,0,0,59,59,89,1,slapen,images/br_slapen.png,images/cb_slapen.png,0,,,,,,,,,,,,,,,,,,,,,,
,,,,,55009,2023-07-30_15h03.58.092,vbt_B1_day3,2022.2.4,Win32,60.42661188,55009,,,,,,down,0,1.7673,,0.006481481,0.006481481,1,0,0,0,60,60,9,1,hier,images/br_hier.png,images/cb_hier.png,0,,,,,,,,,,,,,,,,,,,,,,
,,,,,55009,2023-07-30_15h03.58.092,vbt_B1_day3,2022.2.4,Win32,60.42661188,55009,,,,,,down,0,5.5221,,0.147222222,-0.007407407,1,0,0,0,61,61,131,1,opzicht,images/br_opzicht.png,images/cb_opzicht.png,0,,,,,,,,,,,,,,,,,,,,,,
,,,,,55009,2023-07-30_15h03.58.092,vbt_B1_day3,2022.2.4,Win32,60.42661188,55009,,,,,,down,0,0.9006,,0.065740741,0.062962963,1,0,0,0,62,62,109,1,totaal,images/br_totaal.png,images/cb_totaal.png,0,,,,,,,,,,,,,,,,,,,,,,
,,,,,55009,2023-07-30_15h03.58.092,vbt_B1_day3,2022.2.4,Win32,60.42661188,55009,,,,,,down,0,1.1396,,0.007407407,0.039814815,1,0,0,0,63,63,35,1,lust,images/br_lust.png,images/cb_lust.png,0,,,,,,,,,,,,,,,,,,,,,,
,,,,,55009,2023-07-30_15h03.58.092,vbt_B1_day3,2022.2.4,Win32,60.42661188,55009,,,,,,down,0,20.9176,,0.061111111,-0.100925926,1,0,0,0,64,64,180,1,openbaar,images/br_openbaar.png,images/cb_openbaar.png,1,openbaar,,,,,,,,,,,,,,,,,,,,,
,,,,,55009,2023-07-30_15h03.58.092,vbt_B1_day3,2022.2.4,Win32,60.42661188,55009,,,,,,down,0,1.0872,,0.04537037,-0.036111111,1,0,0,0,65,65,113,1,koppen,images/br_koppen.png,images/cb_koppen.png,0,,,,,,,,,,,,,,,,,,,,,,
,,,,,55009,2023-07-30_15h03.58.092,vbt_B1_day3,2022.2.4,Win32,60.42661188,55009,,,,,,down,0,12.5002,,0.187962963,-0.02037037,1,0,0,0,66,66,162,1,uitdelen,images/br_uitdelen.png,images/cb_uitdelen.png,0,,,,,,,,,,,,,,,,,,,,,,
,,,,,55009,2023-07-30_15h03.58.092,vbt_B1_day3,2022.2.4,Win32,60.42661188,55009,,,,,,down,0,3.7844,,0.212037037,-0.056481481,1,0,0,0,67,67,102,1,legaal,images/br_legaal.png,images/cb_legaal.png,1,legaal,,,,,,,,,,,,,,,,,,,,,
,,,,,55009,2023-07-30_15h03.58.092,vbt_B1_day3,2022.2.4,Win32,60.42661188,55009,,,,,,down,0,3.4875,,-0.026851852,0,1,0,0,0,68,68,118,1,vinger,images/br_vinger.png,images/cb_vinger.png,0,,,,,,,,,,,,,,,,,,,,,,
,,,,,55009,2023-07-30_15h03.58.092,vbt_B1_day3,2022.2.4,Win32,60.42661188,55009,,,,,,down,0,2.0708,,0.034259259,0.00462963,1,0,0,0,69,69,96,1,slagen,images/br_slagen.png,images/cb_slagen.png,0,,,,,,,,,,,,,,,,,,,,,,
,,,,,55009,2023-07-30_15h03.58.092,vbt_B1_day3,2022.2.4,Win32,60.42661188,55009,,,,,,down,0,1.2721,,0.034259259,0.00462963,1,0,0,0,70,70,1,1,zaal,images/br_zaal.png,images/cb_zaal.png,0,,,,,,,,,,,,,,,,,,,,,,
,,,,,55009,2023-07-30_15h03.58.092,vbt_B1_day3,2022.2.4,Win32,60.42661188,55009,,,,,,down,0,1.0008,,0.035185185,0.00462963,1,0,0,0,71,71,86,1,woning,images/br_woning.png,images/cb_woning.png,0,,,,,,,,,,,,,,,,,,,,,,
,,,,,55009,2023-07-30_15h03.58.092,vbt_B1_day3,2022.2.4,Win32,60.42661188,55009,,,,,,down,0,13.5342,,-0.013888889,-0.010185185,1,0,0,0,72,72,75,1,snoep,images/br_snoep.png,images/cb_snoep.png,0,,,,,,,,,,,,,,,,,,,,,,
,,,,,55009,2023-07-30_15h03.58.092,vbt_B1_day3,2022.2.4,Win32,60.42661188,55009,,,,,,down,0,3.0539,,-0.007407407,-0.033333333,1,0,0,0,73,73,87,1,toeval,images/br_toeval.png,images/cb_toeval.png,0,,,,,,,,,,,,,,,,,,,,,,
,,,,,55009,2023-07-30_15h03.58.092,vbt_B1_day3,2022.2.4,Win32,60.42661188,55009,,,,,,down,0,4.6693,,-0.007407407,-0.031481481,1,0,0,0,74,74,11,1,mode,images/br_mode.png,images/cb_mode.png,0,,,,,,,,,,,,,,,,,,,,,,
,,,,,55009,2023-07-30_15h03.58.092,vbt_B1_day3,2022.2.4,Win32,60.42661188,55009,,,,,,down,0,1.8001,,-0.014814815,-0.021296296,1,0,0,0,75,75,40,1,schep,images/br_schep.png,images/cb_schep.png,0,,,,,,,,,,,,,,,,,,,,,,
,,,,,55009,2023-07-30_15h03.58.092,vbt_B1_day3,2022.2.4,Win32,60.42661188,55009,,,,,,down,0,0.4392,,-0.097222222,0.008333333,1,0,0,0,76,76,5,1,blad,images/br_blad.png,images/cb_blad.png,0,,,,,,,,,,,,,,,,,,,,,,
,,,,,55009,2023-07-30_15h03.58.092,vbt_B1_day3,2022.2.4,Win32,60.42661188,55009,,,,,,down,0,1.5004,,-0.097222222,0.008333333,1,0,0,0,77,77,112,1,lukken,images/br_lukken.png,images/cb_lukken.png,0,,,,,,,,,,,,,,,,,,,,,,
,,,,,55009,2023-07-30_15h03.58.092,vbt_B1_day3,2022.2.4,Win32,60.42661188,55009,,,,,,down,0,5.1779,,-0.088888889,-0.008333333,1,0,0,0,78,78,195,1,middelen,images/br_middelen.png,images/cb_middelen.png,0,,,,,,,,,,,,,,,,,,,,,,
,,,,,55009,2023-07-30_15h03.58.092,vbt_B1_day3,2022.2.4,Win32,60.42661188,55009,,,,,,down,0,1.9427,,-0.080555556,-0.015740741,1,0,0,0,79,79,14,1,rijp,images/br_rijp.png,images/cb_rijp.png,0,,,,,,,,,,,,,,,,,,,,,,
,,,,,55009,2023-07-30_15h03.58.092,vbt_B1_day3,2022.2.4,Win32,60.42661188,55009,,,,,,down,0,2.6003,,-0.114814815,-0.000925926,1,0,0,0,80,80,67,1,zwart,images/br_zwart.png,images/cb_zwart.png,0,,,,,,,,,,,,,,,,,,,,,,
,,,,,55009,2023-07-30_15h03.58.092,vbt_B1_day3,2022.2.4,Win32,60.42661188,55009,,,,,,down,0,3.4174,,-0.133333333,-0.009259259,1,0,0,0,81,81,170,1,schatten,images/br_schatten.png,images/cb_schatten.png,0,,,,,,,,,,,,,,,,,,,,,,
,,,,,55009,2023-07-30_15h03.58.092,vbt_B1_day3,2022.2.4,Win32,60.42661188,55009,,,,,,down,0,1.7427,,-0.133333333,-0.009259259,1,0,0,0,82,82,77,1,woede,images/br_woede.png,images/cb_woede.png,0,,,,,,,,,,,,,,,,,,,,,,
,,,,,55009,2023-07-30_15h03.58.092,vbt_B1_day3,2022.2.4,Win32,60.42661188,55009,,,,,,down,0,4.5339,,-0.133333333,-0.009259259,1,0,0,0,83,83,158,1,innemen,images/br_innemen.png,images/cb_innemen.png,0,,,,,,,,,,,,,,,,,,,,,,
,,,,,55009,2023-07-30_15h03.58.092,vbt_B1_day3,2022.2.4,Win32,60.42661188,55009,,,,,,down,0,1.7177,,-0.133333333,-0.009259259,1,0,0,0,84,84,70,1,ijdel,images/br_ijdel.png,images/cb_ijdel.png,0,,,,,,,,,,,,,,,,,,,,,,
,,,,,55009,2023-07-30_15h03.58.092,vbt_B1_day3,2022.2.4,Win32,60.42661188,55009,,,,,,down,0,3.9726,,-0.133333333,-0.009259259,1,0,0,0,85,85,91,1,gezond,images/br_gezond.png,images/cb_gezond.png,0,,,,,,,,,,,,,,,,,,,,,,
,,,,,55009,2023-07-30_15h03.58.092,vbt_B1_day3,2022.2.4,Win32,60.42661188,55009,,,,,,down,0,2.5593,,-0.183333333,0.036111111,1,0,0,0,86,86,110,1,zuster,images/br_zuster.png,images/cb_zuster.png,0,,,,,,,,,,,,,,,,,,,,,,
,,,,,55009,2023-07-30_15h03.58.092,vbt_B1_day3,2022.2.4,Win32,60.42661188,55009,,,,,,down,0,0.9536,,-0.183333333,0.036111111,1,0,0,0,87,87,0,1,slak,images/br_slak.png,images/cb_slak.png,0,,,,,,,,,,,,,,,,,,,,,,
,,,,,55009,2023-07-30_15h03.58.092,vbt_B1_day3,2022.2.4,Win32,60.42661188,55009,,,,,,down,0,4.4834,,-0.162037037,0.052777778,1,0,0,0,88,88,107,1,maling,images/br_maling.png,images/cb_maling.png,0,,,,,,,,,,,,,,,,,,,,,,
,,,,,55009,2023-07-30_15h03.58.092,vbt_B1_day3,2022.2.4,Win32,60.42661188,55009,,,,,,down,0,6.4047,,-0.167592593,0.053703704,1,0,0,0,89,89,142,1,snuiven,images/br_snuiven.png,images/cb_snuiven.png,1,snuiven,,,,,,,,,,,,,,,,,,,,,
,,,,,55009,2023-07-30_15h03.58.092,vbt_B1_day3,2022.2.4,Win32,60.42661188,55009,,,,,,down,0,7.1862,,-0.103703704,0.033333333,1,0,0,0,90,90,196,1,nakijken,images/br_nakijken.png,images/cb_nakijken.png,0,,,,,,,,,,,,,,,,,,,,,,
,,,,,55009,2023-07-30_15h03.58.092,vbt_B1_day3,2022.2.4,Win32,60.42661188,55009,,,,,,down,0,6.1222,,-0.124074074,-0.025925926,1,0,0,0,91,91,27,1,dans,images/br_dans.png,images/cb_dans.png,0,,,,,,,,,,,,,,,,,,,,,,
,,,,,55009,2023-07-30_15h03.58.092,vbt_B1_day3,2022.2.4,Win32,60.42661188,55009,,,,,,down,0,8.0008,,-0.108333333,-0.074074074,1,0,0,0,92,92,63,1,flirt,images/br_flirt.png,images/cb_flirt.png,1,flirt,,,,,,,,,,,,,,,,,,,,,
,,,,,55009,2023-07-30_15h03.58.092,vbt_B1_day3,2022.2.4,Win32,60.42661188,55009,,,,,,down,0,12.9347,,-0.076851852,-0.063888889,1,0,0,0,93,93,46,1,jagen,images/br_jagen.png,images/cb_jagen.png,0,,,,,,,,,,,,,,,,,,,,,,
,,,,,55009,2023-07-30_15h03.58.092,vbt_B1_day3,2022.2.4,Win32,60.42661188,55009,,,,,,down,0,4.5895,,-0.065740741,-0.077777778,1,0,0,0,94,94,189,1,aanraden,images/br_aanraden.png,images/cb_aanraden.png,0,,,,,,,,,,,,,,,,,,,,,,
,,,,,55009,2023-07-30_15h03.58.092,vbt_B1_day3,2022.2.4,Win32,60.42661188,55009,,,,,,down,0,16.4278,,-0.049074074,-0.028703704,1,0,0,0,95,95,32,1,palm,images/br_palm.png,images/cb_palm.png,0,,,,,,,,,,,,,,,,,,,,,,
,,,,,55009,2023-07-30_15h03.58.092,vbt_B1_day3,2022.2.4,Win32,60.42661188,55009,,,,,,down,0,2.4212,,0.032407407,0.031481481,1,0,0,0,96,96,69,1,waken,images/br_waken.png,images/cb_waken.png,0,,,,,,,,,,,,,,,,,,,,,,
,,,,,55009,2023-07-30_15h03.58.092,vbt_B1_day3,2022.2.4,Win32,60.42661188,55009,,,,,,down,0,9.6921,,0.040740741,0.02962963,1,0,0,0,97,97,167,1,eenhoorn,images/br_eenhoorn.png,images/cb_eenhoorn.png,0,,,,,,,,,,,,,,,,,,,,,,
,,,,,55009,2023-07-30_15h03.58.092,vbt_B1_day3,2022.2.4,Win32,60.42661188,55009,,,,,,down,0,33.2835,,0.083333333,0.012037037,1,0,0,0,98,98,25,1,plek,images/br_plek.png,images/cb_plek.png,0,,,,,,,,,,,,,,,,,,,,,,
,,,,,55009,2023-07-30_15h03.58.092,vbt_B1_day3,2022.2.4,Win32,60.42661188,55009,,,,,,down,0,2.2344,,-0.209259259,0.111111111,1,0,0,0,99,99,78,1,leren,images/br_leren.png,images/cb_leren.png,0,,,,,,,,,,,,,,,,,,,,,,
,,,,,55009,2023-07-30_15h03.58.092,vbt_B1_day3,2022.2.4,Win32,60.42661188,55009,,,,,,down,0,4.0508,,0.050925926,0.014814815,1,0,0,0,100,100,43,1,klauw,images/br_klauw.png,images/cb_klauw.png,0,,,,,,,,,,,,,,,,,,,,,,
,,,,,55009,2023-07-30_15h03.58.092,vbt_B1_day3,2022.2.4,Win32,60.42661188,55009,,,,,,down,0,2.4947,,0.068518519,-0.015740741,1,0,0,0,101,101,122,1,waarvan,images/br_waarvan.png,images/cb_waarvan.png,0,,,,,,,,,,,,,,,,,,,,,,
,,,,,55009,2023-07-30_15h03.58.092,vbt_B1_day3,2022.2.4,Win32,60.42661188,55009,,,,,,down,0,18.8512,,-0.211111111,-0.011111111,1,0,0,0,102,102,151,1,aanzoek,images/br_aanzoek.png,images/cb_aanzoek.png,0,,,,,,,,,,,,,,,,,,,,,,
,,,,,55009,2023-07-30_15h03.58.092,vbt_B1_day3,2022.2.4,Win32,60.42661188,55009,,,,,,down,0,1.6022,,0.083333333,0.000925926,1,0,0,0,103,103,68,1,schat,images/br_schat.png,images/cb_schat.png,0,,,,,,,,,,,,,,,,,,,,,,
,,,,,55009,2023-07-30_15h03.58.092,vbt_B1_day3,2022.2.4,Win32,60.42661188,55009,,,,,,down,0,13.4671,,-0.00462963,0.019444444,1,0,0,0,104,104,133,1,seizoen,images/br_seizoen.png,images/cb_seizoen.png,0,,,,,,,,,,,,,,,,,,,,,,
,,,,,55009,2023-07-30_15h03.58.092,vbt_B1_day3,2022.2.4,Win32,60.42661188,55009,,,,,,down,0,3.7177,,0.157407407,-0.015740741,1,0,0,0,105,105,137,1,trekker,images/br_trekker.png,images/cb_trekker.png,0,,,,,,,,,,,,,,,,,,,,,,
,,,,,55009,2023-07-30_15h03.58.092,vbt_B1_day3,2022.2.4,Win32,60.42661188,55009,,,,,,down,0,3.7236,,0.05462963,-0.005555556,1,0,0,0,106,106,165,1,feestdag,images/br_feestdag.png,images/cb_feestdag.png,0,,,,,,,,,,,,,,,,,,,,,,
,,,,,55009,2023-07-30_15h03.58.092,vbt_B1_day3,2022.2.4,Win32,60.42661188,55009,,,,,,down,0,8.0678,,-0.086111111,0.108333333,1,0,0,0,107,107,108,1,excuus,images/br_excuus.png,images/cb_excuus.png,0,,,,,,,,,,,,,,,,,,,,,,
,,,,,55009,2023-07-30_15h03.58.092,vbt_B1_day3,2022.2.4,Win32,60.42661188,55009,,,,,,down,0,6.6674,,-0.016666667,-0.040740741,1,0,0,0,108,108,50,1,stoom,images/br_stoom.png,images/cb_stoom.png,0,,,,,,,,,,,,,,,,,,,,,,
,,,,,55009,2023-07-30_15h03.58.092,vbt_B1_day3,2022.2.4,Win32,60.42661188,55009,,,,,,down,0,7.367,,-0.016666667,-0.040740741,1,0,0,0,109,109,121,1,twijfel,images/br_twijfel.png,images/cb_twijfel.png,0,,,,,,,,,,,,,,,,,,,,,,
,,,,,55009,2023-07-30_15h03.58.092,vbt_B1_day3,2022.2.4,Win32,60.42661188,55009,,,,,,down,0,4.2503,,-0.016666667,-0.040740741,1,0,0,0,110,110,99,1,koffie,images/br_koffie.png,images/cb_koffie.png,0,,,,,,,,,,,,,,,,,,,,,,
,,,,,55009,2023-07-30_15h03.58.092,vbt_B1_day3,2022.2.4,Win32,60.42661188,55009,,,,,,down,0,0.8677,,-0.016666667,-0.040740741,1,0,0,0,111,111,161,1,attentie,images/br_attentie.png,images/cb_attentie.png,0,,,,,,,,,,,,,,,,,,,,,,
,,,,,55009,2023-07-30_15h03.58.092,vbt_B1_day3,2022.2.4,Win32,60.42661188,55009,,,,,,down,0,1.1219,,-0.016666667,-0.040740741,1,0,0,0,112,112,126,1,kasteel,images/br_kasteel.png,images/cb_kasteel.png,0,,,,,,,,,,,,,,,,,,,,,,
,,,,,55009,2023-07-30_15h03.58.092,vbt_B1_day3,2022.2.4,Win32,60.42661188,55009,,,,,,down,0,0.3802,,-0.016666667,-0.040740741,1,0,0,0,113,113,178,1,huisdier,images/br_huisdier.png,images/cb_huisdier.png,0,,,,,,,,,,,,,,,,,,,,,,
,,,,,55009,2023-07-30_15h03.58.092,vbt_B1_day3,2022.2.4,Win32,60.42661188,55009,,,,,,down,0,4.2841,,-0.016666667,-0.040740741,1,0,0,0,114,114,44,1,flits,images/br_flits.png,images/cb_flits.png,0,,,,,,,,,,,,,,,,,,,,,,
,,,,,55009,2023-07-30_15h03.58.092,vbt_B1_day3,2022.2.4,Win32,60.42661188,55009,,,,,,down,0,11.6503,,-0.016666667,-0.040740741,1,0,0,0,115,115,129,1,verhaal,images/br_verhaal.png,images/cb_verhaal.png,0,,,,,,,,,,,,,,,,,,,,,,
,,,,,55009,2023-07-30_15h03.58.092,vbt_B1_day3,2022.2.4,Win32,60.42661188,55009,,,,,,down,0,21.606,,0.031481481,-0.005555556,1,0,0,0,116,116,98,1,kreeft,images/br_kreeft.png,images/cb_kreeft.png,0,,,,,,,,,,,,,,,,,,,,,,
,,,,,55009,2023-07-30_15h03.58.092,vbt_B1_day3,2022.2.4,Win32,60.42661188,55009,,,,,,down,0,7.7928,,0.037962963,-0.008333333,1,0,0,0,117,117,182,1,bijkomen,images/br_bijkomen.png,images/cb_bijkomen.png,1,bijkomen,,,,,,,,,,,,,,,,,,,,,
,,,,,55009,2023-07-30_15h03.58.092,vbt_B1_day3,2022.2.4,Win32,60.42661188,55009,,,,,,down,0,3.6409,,0.002777778,-0.013888889,1,0,0,0,118,118,24,1,jurk,images/br_jurk.png,images/cb_jurk.png,0,,,,,,,,,,,,,,,,,,,,,,
,,,,,55009,2023-07-30_15h03.58.092,vbt_B1_day3,2022.2.4,Win32,60.42661188,55009,,,,,,down,0,2.417,,0.002777778,-0.013888889,1,0,0,0,119,119,15,1,soda,images/br_soda.png,images/cb_soda.png,0,,,,,,,,,,,,,,,,,,,,,,
,,,,,55009,2023-07-30_15h03.58.092,vbt_B1_day3,2022.2.4,Win32,60.42661188,55009,,,,,,down,0,0.9926,,0.002777778,-0.013888889,1,0,0,0,120,120,59,1,kring,images/br_kring.png,images/cb_kring.png,0,,,,,,,,,,,,,,,,,,,,,,
,,,,,55009,2023-07-30_15h03.58.092,vbt_B1_day3,2022.2.4,Win32,60.42661188,55009,,,,,,down,0,3.8087,,0.005555556,-0.012962963,1,0,0,0,121,121,136,1,waarbij,images/br_waarbij.png,images/cb_waarbij.png,0,,,,,,,,,,,,,,,,,,,,,,
,,,,,55009,2023-07-30_15h03.58.092,vbt_B1_day3,2022.2.4,Win32,60.42661188,55009,,,,,,down,0,1.9391,,0.005555556,-0.015740741,1,0,0,0,122,122,12,1,kust,images/br_kust.png,images/cb_kust.png,0,,,,,,,,,,,,,,,,,,,,,,
,,,,,55009,2023-07-30_15h03.58.092,vbt_B1_day3,2022.2.4,Win32,60.42661188,55009,,,,,,down,0,0.9337,,0.005555556,-0.015740741,1,0,0,0,123,123,17,1,taal,images/br_taal.png,images/cb_taal.png,0,,,,,,,,,,,,,,,,,,,,,,
,,,,,55009,2023-07-30_15h03.58.092,vbt_B1_day3,2022.2.4,Win32,60.42661188,55009,,,,,,down,0,6.8115,,0.006481481,-0.042592593,1,0,0,0,124,124,92,1,geheim,images/br_geheim.png,images/cb_geheim.png,0,,,,,,,,,,,,,,,,,,,,,,
,,,,,55009,2023-07-30_15h03.58.092,vbt_B1_day3,2022.2.4,Win32,60.42661188,55009,,,,,,down,0,0.6087,,0.007407407,-0.037037037,1,0,0,0,125,125,13,1,kaal,images/br_kaal.png,images/cb_kaal.png,0,,,,,,,,,,,,,,,,,,,,,,
,,,,,55009,2023-07-30_15h03.58.092,vbt_B1_day3,2022.2.4,Win32,60.42661188,55009,,,,,,down,0,0.3168,,0.007407407,-0.037037037,1,0,0,0,126,126,33,1,vlek,images/br_vlek.png,images/cb_vlek.png,0,,,,,,,,,,,,,,,,,,,,,,
,,,,,55009,2023-07-30_15h03.58.092,vbt_B1_day3,2022.2.4,Win32,60.42661188,55009,,,,,,down,0,7.1514,,0.007407407,-0.036111111,1,0,0,0,127,127,71,1,bever,images/br_bever.png,images/cb_bever.png,0,,,,,,,,,,,,,,,,,,,,,,
,,,,,55009,2023-07-30_15h03.58.092,vbt_B1_day3,2022.2.4,Win32,60.42661188,55009,,,,,,down,0,58.8236,,0.00462963,-0.034259259,1,0,0,0,128,128,198,1,bedoelen,images/br_bedoelen.png,images/cb_bedoelen.png,0,,,,,,,,,,,,,,,,,,,,,,
,,,,,55009,2023-07-30_15h03.58.092,vbt_B1_day3,2022.2.4,Win32,60.42661188,55009,,,,,,down,0,3.7028,,0.119444444,-0.007407407,1,0,0,0,129,129,192,1,schaamte,images/br_schaamte.png,images/cb_schaamte.png,0,,,,,,,,,,,,,,,,,,,,,,
,,,,,55009,2023-07-30_15h03.58.092,vbt_B1_day3,2022.2.4,Win32,60.42661188,55009,,,,,,down,0,0.535,,0.122222222,-0.016666667,1,0,0,0,130,130,83,1,mening,images/br_mening.png,images/cb_mening.png,0,,,,,,,,,,,,,,,,,,,,,,
,,,,,55009,2023-07-30_15h03.58.092,vbt_B1_day3,2022.2.4,Win32,60.42661188,55009,,,,,,down,0,1.8001,,0.084259259,-0.001851852,1,0,0,0,131,131,56,1,traag,images/br_traag.png,images/cb_traag.png,0,,,,,,,,,,,,,,,,,,,,,,
,,,,,55009,2023-07-30_15h03.58.092,vbt_B1_day3,2022.2.4,Win32,60.42661188,55009,,,,,,down,0,7.5845,,0.174074074,0.260185185,1,0,0,0,132,132,54,1,gebit,images/br_gebit.png,images/cb_gebit.png,0,,,,,,,,,,,,,,,,,,,,,,
,,,,,55009,2023-07-30_15h03.58.092,vbt_B1_day3,2022.2.4,Win32,60.42661188,55009,,,,,,down,0,2.4339,,0.175925926,0.260185185,1,0,0,0,133,133,72,1,strak,images/br_strak.png,images/cb_strak.png,0,,,,,,,,,,,,,,,,,,,,,,
,,,,,55009,2023-07-30_15h03.58.092,vbt_B1_day3,2022.2.4,Win32,60.42661188,55009,,,,,,down,0,5.1932,,0.175925926,0.260185185,1,0,0,0,134,134,183,1,getuigen,images/br_getuigen.png,images/cb_getuigen.png,1,getuigen,,,,,,,,,,,,,,,,,,,,,
,,,,,55009,2023-07-30_15h03.58.092,vbt_B1_day3,2022.2.4,Win32,60.42661188,55009,,,,,,down,0,21.5675,,0.048148148,0.432407407,1,0,0,0,135,135,156,1,rechten,images/br_rechten.png,images/cb_rechten.png,0,,,,,,,,,,,,,,,,,,,,,,
,,,,,55009,2023-07-30_15h03.58.092,vbt_B1_day3,2022.2.4,Win32,60.42661188,55009,,,,,,down,0,1.734,,0.12037037,0.307407407,1,0,0,0,136,136,42,1,bleek,images/br_bleek.png,images/cb_bleek.png,0,,,,,,,,,,,,,,,,,,,,,,
,,,,,55009,2023-07-30_15h03.58.092,vbt_B1_day3,2022.2.4,Win32,60.42661188,55009,,,,,,down,0,9.8673,,0.148148148,0.252777778,1,0,0,0,137,137,147,1,komisch,images/br_komisch.png,images/cb_komisch.png,0,,,,,,,,,,,,,,,,,,,,,,
,,,,,55009,2023-07-30_15h03.58.092,vbt_B1_day3,2022.2.4,Win32,60.42661188,55009,,,,,,down,0,0.7668,,0.149074074,0.251851852,1,0,0,0,138,138,55,1,praat,images/br_praat.png,images/cb_praat.png,0,,,,,,,,,,,,,,,,,,,,,,
,,,,,55009,2023-07-30_15h03.58.092,vbt_B1_day3,2022.2.4,Win32,60.42661188,55009,,,,,,down,0,9.4364,,0.15462963,0.247222222,1,0,0,0,139,139,94,1,oceaan,images/br_oceaan.png,images/cb_oceaan.png,0,,,,,,,,,,,,,,,,,,,,,,
,,,,,55009,2023-07-30_15h03.58.092,vbt_B1_day3,2022.2.4,Win32,60.42661188,55009,,,,,,down,0,3.784,,-0.887962963,0.215740741,1,0,0,0,140,140,140,1,blijven,images/br_blijven.png,images/cb_blijven.png,1,blijven,,,,,,,,,,,,,,,,,,,,,
,,,,,55009,2023-07-30_15h03.58.092,vbt_B1_day3,2022.2.4,Win32,60.42661188,55009,,,,,,down,0,3.7843,,-0.02037037,0.226851852,1,0,0,0,141,141,47,1,kabel,images/br_kabel.png,images/cb_kabel.png,0,,,,,,,,,,,,,,,,,,,,,,
,,,,,55009,2023-07-30_15h03.58.092,vbt_B1_day3,2022.2.4,Win32,60.42661188,55009,,,,,,down,0,3.2885,,-0.081481481,0.196296296,1,0,0,0,142,142,176,1,techniek,images/br_techniek.png,images/cb_techniek.png,0,,,,,,,,,,,,,,,,,,,,,,
,,,,,55009,2023-07-30_15h03.58.092,vbt_B1_day3,2022.2.4,Win32,60.42661188,55009,,,,,,down,0,0.534,,-0.081481481,0.196296296,1,0,0,0,143,143,95,1,vreten,images/br_vreten.png,images/cb_vreten.png,0,,,,,,,,,,,,,,,,,,,,,,
,,,,,55009,2023-07-30_15h03.58.092,vbt_B1_day3,2022.2.4,Win32,60.42661188,55009,,,,,,down,0,1.6737,,-0.081481481,0.196296296,1,0,0,0,144,144,2,1,jaar,images/br_jaar.png,images/cb_jaar.png,0,,,,,,,,,,,,,,,,,,,,,,
,,,,,55009,2023-07-30_15h03.58.092,vbt_B1_day3,2022.2.4,Win32,60.42661188,55009,,,,,,down,0,0.9571,,-0.081481481,0.196296296,1,0,0,0,145,145,10,1,leek,images/br_leek.png,images/cb_leek.png,0,,,,,,,,,,,,,,,,,,,,,,
,,,,,55009,2023-07-30_15h03.58.092,vbt_B1_day3,2022.2.4,Win32,60.42661188,55009,,,,,,down,0,1.2679,,-0.081481481,0.196296296,1,0,0,0,146,146,120,1,klimmen,images/br_klimmen.png,images/cb_klimmen.png,0,,,,,,,,,,,,,,,,,,,,,,
,,,,,55009,2023-07-30_15h03.58.092,vbt_B1_day3,2022.2.4,Win32,60.42661188,55009,,,,,,down,0,8.2898,,-0.080555556,0.191666667,1,0,0,0,147,147,190,1,goedkoop,images/br_goedkoop.png,images/cb_goedkoop.png,0,,,,,,,,,,,,,,,,,,,,,,
,,,,,55009,2023-07-30_15h03.58.092,vbt_B1_day3,2022.2.4,Win32,60.42661188,55009,,,,,,down,0,6.6185,,-0.080555556,0.188888889,1,0,0,0,148,148,26,1,leuk,images/br_leuk.png,images/cb_leuk.png,0,,,,,,,,,,,,,,,,,,,,,,
,,,,,55009,2023-07-30_15h03.58.092,vbt_B1_day3,2022.2.4,Win32,60.42661188,55009,,,,,,down,0,2.2542,,-0.081481481,0.192592593,1,0,0,0,149,149,169,1,oprotten,images/br_oprotten.png,images/cb_oprotten.png,0,,,,,,,,,,,,,,,,,,,,,,
,,,,,55009,2023-07-30_15h03.58.092,vbt_B1_day3,2022.2.4,Win32,60.42661188,55009,,,,,,down,0,5.3183,,0.163888889,0.184259259,1,0,0,0,150,150,101,1,staren,images/br_staren.png,images/cb_staren.png,1,staren,,,,,,,,,,,,,,,,,,,,,
,,,,,55009,2023-07-30_15h03.58.092,vbt_B1_day3,2022.2.4,Win32,60.42661188,55009,,,,,,down,0,1.4401,,0.169444444,0.173148148,1,0,0,0,151,151,139,1,stiekem,images/br_stiekem.png,images/cb_stiekem.png,0,,,,,,,,,,,,,,,,,,,,,,
,,,,,55009,2023-07-30_15h03.58.092,vbt_B1_day3,2022.2.4,Win32,60.42661188,55009,,,,,,down,0,4.4502,,0.163888889,0.17037037,1,0,0,0,152,152,154,1,aflopen,images/br_aflopen.png,images/cb_aflopen.png,0,,,,,,,,,,,,,,,,,,,,,,
,,,,,55009,2023-07-30_15h03.58.092,vbt_B1_day3,2022.2.4,Win32,60.42661188,55009,,,,,,down,0,2.5343,,0.163888889,0.17037037,1,0,0,0,153,153,132,1,grappen,images/br_grappen.png,images/cb_grappen.png,0,,,,,,,,,,,,,,,,,,,,,,
,,,,,55009,2023-07-30_15h03.58.092,vbt_B1_day3,2022.2.4,Win32,60.42661188,55009,,,,,,down,0,1.4025,,0.163888889,0.17037037,1,0,0,0,154,154,79,1,nodig,images/br_nodig.png,images/cb_nodig.png,0,,,,,,,,,,,,,,,,,,,,,,
,,,,,55009,2023-07-30_15h03.58.092,vbt_B1_day3,2022.2.4,Win32,60.42661188,55009,,,,,,down,0,2.9529,,0.163888889,0.17037037,1,0,0,0,155,155,116,1,besmet,images/br_besmet.png,images/cb_besmet.png,0,,,,,,,,,,,,,,,,,,,,,,
,,,,,55009,2023-07-30_15h03.58.092,vbt_B1_day3,2022.2.4,Win32,60.42661188,55009,,,,,,down,0,2.9501,,-0.467592593,0.196296296,1,0,0,0,156,156,103,1,joggen,images/br_joggen.png,images/cb_joggen.png,1,joggen,,,,,,,,,,,,,,,,,,,,,
,,,,,55009,2023-07-30_15h03.58.092,vbt_B1_day3,2022.2.4,Win32,60.42661188,55009,,,,,,down,0,3.0671,,-0.272222222,0.233333333,1,0,0,0,157,157,20,1,site,images/br_site.png,images/cb_site.png,1,site,,,,,,,,,,,,,,,,,,,,,
,,,,,55009,2023-07-30_15h03.58.092,vbt_B1_day3,2022.2.4,Win32,60.42661188,55009,,,,,,down,0,11.822,,-0.317592593,0.210185185,1,0,0,0,158,158,23,1,zout,images/br_zout.png,images/cb_zout.png,1,zout,,,,,,,,,,,,,,,,,,,,,
,,,,,55009,2023-07-30_15h03.58.092,vbt_B1_day3,2022.2.4,Win32,60.42661188,55009,,,,,,down,0,7.9669,,-0.171296296,0.067592593,1,0,0,0,159,159,179,1,woestijn,images/br_woestijn.png,images/cb_woestijn.png,0,,,,,,,,,,,,,,,,,,,,,,
,,,,,55009,2023-07-30_15h03.58.092,vbt_B1_day3,2022.2.4,Win32,60.42661188,55009,,,,,,down,0,1.4503,,-0.205555556,0.121296296,1,0,0,0,160,160,29,1,baas,images/br_baas.png,images/cb_baas.png,0,,,,,,,,,,,,,,,,,,,,,,
,,,,,55009,2023-07-30_15h03.58.092,vbt_B1_day3,2022.2.4,Win32,60.42661188,55009,,,,,,down,0,14.0006,,0.507407407,0.259259259,1,0,0,0,161,161,80,1,kanjer,images/br_kanjer.png,images/cb_kanjer.png,0,,,,,,,,,,,,,,,,,,,,,,
,,,,,55009,2023-07-30_15h03.58.092,vbt_B1_day3,2022.2.4,Win32,60.42661188,55009,,,,,,down,0,3.1841,,0.27037037,0.040740741,1,0,0,0,162,162,93,1,waarop,images/br_waarop.png,images/cb_waarop.png,0,,,,,,,,,,,,,,,,,,,,,,
,,,,,55009,2023-07-30_15h03.58.092,vbt_B1_day3,2022.2.4,Win32,60.42661188,55009,,,,,,down,0,4.9341,,0.113888889,0.007407407,1,0,0,0,163,163,115,1,kleren,images/br_kleren.png,images/cb_kleren.png,0,,,,,,,,,,,,,,,,,,,,,,
,,,,,55009,2023-07-30_15h03.58.092,vbt_B1_day3,2022.2.4,Win32,60.42661188,55009,,,,,,down,0,2.3576,,0.114814815,0.010185185,1,0,0,0,164,164,65,1,parel,images/br_parel.png,images/cb_parel.png,0,,,,,,,,,,,,,,,,,,,,,,
,,,,,55009,2023-07-30_15h03.58.092,vbt_B1_day3,2022.2.4,Win32,60.42661188,55009,,,,,,down,0,2.4335,,0.096296296,0.022222222,1,0,0,0,165,165,76,1,afval,images/br_afval.png,images/cb_afval.png,0,,,,,,,,,,,,,,,,,,,,,,
,,,,,55009,2023-07-30_15h03.58.092,vbt_B1_day3,2022.2.4,Win32,60.42661188,55009,,,,,,down,0,2.4007,,0.303703704,-0.087037037,1,0,0,0,166,166,62,1,knaap,images/br_knaap.png,images/cb_knaap.png,1,knaap,,,,,,,,,,,,,,,,,,,,,
,,,,,55009,2023-07-30_15h03.58.092,vbt_B1_day3,2022.2.4,Win32,60.42661188,55009,,,,,,down,0,3.6895,,0.243518519,-0.137037037,1,0,0,0,167,167,152,1,afnemen,images/br_afnemen.png,images/cb_afnemen.png,0,,,,,,,,,,,,,,,,,,,,,,
,,,,,55009,2023-07-30_15h03.58.092,vbt_B1_day3,2022.2.4,Win32,60.42661188,55009,,,,,,down,0,3.1928,,0.02962963,-0.186111111,1,0,0,0,168,168,127,1,doodmoe,images/br_doodmoe.png,images/cb_doodmoe.png,0,,,,,,,,,,,,,,,,,,,,,,
,,,,,55009,2023-07-30_15h03.58.092,vbt_B1_day3,2022.2.4,Win32,60.42661188,55009,,,,,,down,0,1.1676,,0.02962963,-0.185185185,1,0,0,0,169,169,36,1,vuur,images/br_vuur.png,images/cb_vuur.png,0,,,,,,,,,,,,,,,,,,,,,,
,,,,,55009,2023-07-30_15h03.58.092,vbt_B1_day3,2022.2.4,Win32,60.42661188,55009,,,,,,down,0,4.1207,,0.02037037,-0.168518519,1,0,0,0,170,170,184,1,aandelen,images/br_aandelen.png,images/cb_aandelen.png,0,,,,,,,,,,,,,,,,,,,,,,
,,,,,55009,2023-07-30_15h03.58.092,vbt_B1_day3,2022.2.4,Win32,60.42661188,55009,,,,,,down,0,4.424,,0.027777778,-0.173148148,1,0,0,0,171,171,61,1,groen,images/br_groen.png,images/cb_groen.png,1,groen,,,,,,,,,,,,,,,,,,,,,
,,,,,55009,2023-07-30_15h03.58.092,vbt_B1_day3,2022.2.4,Win32,60.42661188,55009,,,,,,down,0,6.5258,,0.030555556,-0.160185185,1,0,0,0,172,172,181,1,toegeven,images/br_toegeven.png,images/cb_toegeven.png,1,toegeven,,,,,,,,,,,,,,,,,,,,,
,,,,,55009,2023-07-30_15h03.58.092,vbt_B1_day3,2022.2.4,Win32,60.42661188,55009,,,,,,down,0,2.5505,,0.026851852,-0.156481481,1,0,0,0,173,173,51,1,samen,images/br_samen.png,images/cb_samen.png,0,,,,,,,,,,,,,,,,,,,,,,
,,,,,55009,2023-07-30_15h03.58.092,vbt_B1_day3,2022.2.4,Win32,60.42661188,55009,,,,,,down,0,5.5174,,0.003703704,-0.093518519,1,0,0,0,174,174,119,1,liefje,images/br_liefje.png,images/cb_liefje.png,0,,,,,,,,,,,,,,,,,,,,,,
,,,,,55009,2023-07-30_15h03.58.092,vbt_B1_day3,2022.2.4,Win32,60.42661188,55009,,,,,,down,0,4.1339,,0.003703704,-0.093518519,1,0,0,0,175,175,4,1,moes,images/br_moes.png,images/cb_moes.png,0,,,,,,,,,,,,,,,,,,,,,,
,,,,,55009,2023-07-30_15h03.58.092,vbt_B1_day3,2022.2.4,Win32,60.42661188,55009,,,,,,down,0,1.1575,,0.003703704,-0.093518519,1,0,0,0,176,176,28,1,stal,images/br_stal.png,images/cb_stal.png,0,,,,,,,,,,,,,,,,,,,,,,
,,,,,55009,2023-07-30_15h03.58.092,vbt_B1_day3,2022.2.4,Win32,60.42661188,55009,,,,,,down,0,0.6844,,0.003703704,-0.093518519,1,0,0,0,177,177,45,1,piste,images/br_piste.png,images/cb_piste.png,0,,,,,,,,,,,,,,,,,,,,,,
,,,,,55009,2023-07-30_15h03.58.092,vbt_B1_day3,2022.2.4,Win32,60.42661188,55009,,,,,,down,0,9.279,,-0.003703704,-0.103703704,1,0,0,0,178,178,90,1,geluid,images/br_geluid.png,images/cb_geluid.png,0,,,,,,,,,,,,,,,,,,,,,,
,,,,,55009,2023-07-30_15h03.58.092,vbt_B1_day3,2022.2.4,Win32,60.42661188,55009,,,,,,down,0,12.2173,,0.00462963,-0.112037037,1,0,0,0,179,179,168,1,bisschop,images/br_bisschop.png,images/cb_bisschop.png,0,,,,,,,,,,,,,,,,,,,,,,
,,,,,55009,2023-07-30_15h03.58.092,vbt_B1_day3,2022.2.4,Win32,60.42661188,55009,,,,,,down,0,10.9072,,-0.019444444,-0.073148148,1,0,0,0,180,180,41,1,maken,images/br_maken.png,images/cb_maken.png,0,,,,,,,,,,,,,,,,,,,,,,
,,,,,55009,2023-07-30_15h03.58.092,vbt_B1_day3,2022.2.4,Win32,60.42661188,55009,,,,,,down,0,87.9342,,-0.008333333,-0.082407407,1,0,0,0,181,181,117,1,kennis,images/br_kennis.png,images/cb_kennis.png,0,,,,,,,,,,,,,,,,,,,,,,
,,,,,55009,2023-07-30_15h03.58.092,vbt_B1_day3,2022.2.4,Win32,60.42661188,55009,,,,,,down,0,3.9843,,0.026851852,-0.052777778,1,0,0,0,182,182,38,1,baai,images/br_baai.png,images/cb_baai.png,0,,,,,,,,,,,,,,,,,,,,,,
,,,,,55009,2023-07-30_15h03.58.092,vbt_B1_day3,2022.2.4,Win32,60.42661188,55009,,,,,,down,0,0.667,,0.025925926,-0.052777778,1,0,0,0,183,183,53,1,baron,images/br_baron.png,images/cb_baron.png,0,,,,,,,,,,,,,,,,,,,,,,
,,,,,55009,2023-07-30_15h03.58.092,vbt_B1_day3,2022.2.4,Win32,60.42661188,55009,,,,,,down,0,1.4503,,0.025925926,-0.052777778,1,0,0,0,184,184,197,1,spanning,images/br_spanning.png,images/cb_spanning.png,0,,,,,,,,,,,,,,,,,,,,,,
,,,,,55009,2023-07-30_15h03.58.092,vbt_B1_day3,2022.2.4,Win32,60.42661188,55009,,,,,,down,0,1.3843,,0.026851852,-0.052777778,1,0,0,0,185,185,31,1,poes,images/br_poes.png,images/cb_poes.png,0,,,,,,,,,,,,,,,,,,,,,,
,,,,,55009,2023-07-30_15h03.58.092,vbt_B1_day3,2022.2.4,Win32,60.42661188,55009,,,,,,down,0,0.0507,,0.081481481,-0.032407407,1,0,0,0,186,186,58,1,tekst,images/br_tekst.png,images/cb_tekst.png,0,,,,,,,,,,,,,,,,,,,,,,
,,,,,55009,2023-07-30_15h03.58.092,vbt_B1_day3,2022.2.4,Win32,60.42661188,55009,,,,,,down,0,3.9672,,0.081481481,-0.032407407,1,0,0,0,187,187,135,1,gedicht,images/br_gedicht.png,images/cb_gedicht.png,0,,,,,,,,,,,,,,,,,,,,,,
,,,,,55009,2023-07-30_15h03.58.092,vbt_B1_day3,2022.2.4,Win32,60.42661188,55009,,,,,,down,0,27.8843,,0.080555556,-0.032407407,1,0,0,0,188,188,105,1,wijlen,images/br_wijlen.png,images/cb_wijlen.png,0,,,,,,,,,,,,,,,,,,,,,,
,,,,,55009,2023-07-30_15h03.58.092,vbt_B1_day3,2022.2.4,Win32,60.42661188,55009,,,,,,down,0,6.2905,,0.044444444,0.025,1,0,0,0,189,189,157,1,uitlaat,images/br_uitlaat.png,images/cb_uitlaat.png,0,,,,,,,,,,,,,,,,,,,,,,
,,,,,55009,2023-07-30_15h03.58.092,vbt_B1_day3,2022.2.4,Win32,60.42661188,55009,,,,,,down,0,2.969,,0.041666667,0.031481481,1,0,0,0,190,190,6,1,diep,images/br_diep.png,images/cb_diep.png,0,,,,,,,,,,,,,,,,,,,,,,
,,,,,55009,2023-07-30_15h03.58.092,vbt_B1_day3,2022.2.4,Win32,60.42661188,55009,,,,,,down,0,4.0265,,-0.801851852,-0.310185185,1,0,0,0,191,191,60,1,jasje,images/br_jasje.png,images/cb_jasje.png,1,jasje,,,,,,,,,,,,,,,,,,,,,
,,,,,55009,2023-07-30_15h03.58.092,vbt_B1_day3,2022.2.4,Win32,60.42661188,55009,,,,,,down,0,3.3839,,-0.678703704,-0.300925926,1,0,0,0,192,192,187,1,opkijken,images/br_opkijken.png,images/cb_opkijken.png,0,,,,,,,,,,,,,,,,,,,,,,
,,,,,55009,2023-07-30_15h03.58.092,vbt_B1_day3,2022.2.4,Win32,60.42661188,55009,,,,,,down,0,0.8007,,-0.583333333,-0.118518519,1,0,0,0,193,193,39,1,laag,images/br_laag.png,images/cb_laag.png,0,,,,,,,,,,,,,,,,,,,,,,
,,,,,55009,2023-07-30_15h03.58.092,vbt_B1_day3,2022.2.4,Win32,60.42661188,55009,,,,,,down,0,1.3672,,-0.583333333,-0.118518519,1,0,0,0,194,194,114,1,vullen,images/br_vullen.png,images/cb_vullen.png,0,,,,,,,,,,,,,,,,,,,,,,
,,,,,55009,2023-07-30_15h03.58.092,vbt_B1_day3,2022.2.4,Win32,60.42661188,55009,,,,,,down,0,2.4378,,-0.583333333,-0.118518519,1,0,0,0,195,195,125,1,aanzien,images/br_aanzien.png,images/cb_aanzien.png,0,,,,,,,,,,,,,,,,,,,,,,
,,,,,55009,2023-07-30_15h03.58.092,vbt_B1_day3,2022.2.4,Win32,60.42661188,55009,,,,,,down,0,2.5263,,-0.583333333,-0.118518519,1,0,0,0,196,196,163,1,schuilen,images/br_schuilen.png,images/cb_schuilen.png,0,,,,,,,,,,,,,,,,,,,,,,
,,,,,55009,2023-07-30_15h03.58.092,vbt_B1_day3,2022.2.4,Win32,60.42661188,55009,,,,,,down,0,0.6668,,-0.583333333,-0.118518519,1,0,0,0,197,197,148,1,smullen,images/br_smullen.png,images/cb_smullen.png,0,,,,,,,,,,,,,,,,,,,,,,
,,,,,55009,2023-07-30_15h03.58.092,vbt_B1_day3,2022.2.4,Win32,60.42661188,55009,,,,,,down,0,3.967,,-0.580555556,-0.12037037,1,0,0,0,198,198,141,1,knielen,images/br_knielen.png,images/cb_knielen.png,1,knielen,,,,,,,,,,,,,,,,,,,,,
,,,,,55009,2023-07-30_15h03.58.092,vbt_B1_day3,2022.2.4,Win32,60.42661188,55009,,,,,,down,0,0.5671,,-0.546296296,-0.02037037,1,0,0,0,199,199,84,1,lokken,images/br_lokken.png,images/cb_lokken.png,0,,,,,,,,,,,,,,,,,,,,,,
,,,,,55009,2023-07-30_15h03.58.092,vbt_B1_day3,2022.2.4,Win32,60.42661188,55009,,,,,,,,,,,,,,,,,,,,,,,,,0.059259259,-0.112037037,1,0,0,,,,,,,,,,,,,,,,
,,,,,55009,2023-07-30_15h03.58.092,vbt_B1_day3,2022.2.4,Win32,60.42661188,55009,,,,,,,,,,,,,,,,,,,,,,,,,,,,,,0.198148148,0.160185185,1,0,0,,,,,,,,,,,
,,,,,55009,2023-07-30_15h03.58.092,vbt_B1_day3,2022.2.4,Win32,60.42661188,55009,,,,,,,,,,,,,,,,,,,,makieren,images/br_makieren.png,images/cb_makieren.png,,makie...,,,,,,,,,,,0.199074074,0.160185185,1,0,0,makie...,0,0,0,36,1
,,,,,55009,2023-07-30_15h03.58.092,vbt_B1_day3,2022.2.4,Win32,60.42661188,55009,,,,,,,,,,,,,,,,,,,,schatten,images/br_schatten.png,images/cb_schatten.png,,schatten,,,,,,,,,,,0.19537037,0.160185185,1,0,0,schatten,0,1,1,18,1
,,,,,55009,2023-07-30_15h03.58.092,vbt_B1_day3,2022.2.4,Win32,60.42661188,55009,,,,,,,,,,,,,,,,,,,,sultan,images/br_sultan.png,images/cb_sultan.png,,sultan,,,,,,,,,,,0.19537037,0.161111111,1,0,0,sultan,0,2,2,49,1
,,,,,55009,2023-07-30_15h03.58.092,vbt_B1_day3,2022.2.4,Win32,60.42661188,55009,,,,,,,,,,,,,,,,,,,,opzetten,images/br_opzetten.png,images/cb_opzetten.png,,opzetten,,,,,,,,,,,0.141666667,0.172222222,1,0,0,opzetten,0,3,3,56,1
,,,,,55009,2023-07-30_15h03.58.092,vbt_B1_day3,2022.2.4,Win32,60.42661188,55009,,,,,,,,,,,,,,,,,,,,zone,images/br_zone.png,images/cb_zone.png,,zone,,,,,,,,,,,0.141666667,0.172222222,1,0,0,zone,0,4,4,41,1
,,,,,55009,2023-07-30_15h03.58.092,vbt_B1_day3,2022.2.4,Win32,60.42661188,55009,,,,,,,,,,,,,,,,,,,,geluid,images/br_geluid.png,images/cb_geluid.png,,geluid,,,,,,,,,,,0.141666667,0.172222222,1,0,0,geluid,0,5,5,10,1
,,,,,55009,2023-07-30_15h03.58.092,vbt_B1_day3,2022.2.4,Win32,60.42661188,55009,,,,,,,,,,,,,,,,,,,,leek,images/br_leek.png,images/cb_leek.png,,leek,,,,,,,,,,,0.141666667,0.172222222,1,0,0,leek,0,6,6,2,1
,,,,,55009,2023-07-30_15h03.58.092,vbt_B1_day3,2022.2.4,Win32,60.42661188,55009,,,,,,,,,,,,,,,,,,,,gezond,images/br_gezond.png,images/cb_gezond.png,,gezond,,,,,,,,,,,0.141666667,0.172222222,1,0,0,gezond,0,7,7,11,1
,,,,,55009,2023-07-30_15h03.58.092,vbt_B1_day3,2022.2.4,Win32,60.42661188,55009,,,,,,,,,,,,,,,,,,,,boeien,images/br_boeien.png,images/cb_boeien.png,,boeien,,,,,,,,,,,0.141666667,0.172222222,1,0,0,boeien,0,8,8,8,1
,,,,,55009,2023-07-30_15h03.58.092,vbt_B1_day3,2022.2.4,Win32,60.42661188,55009,,,,,,,,,,,,,,,,,,,,sluier,images/br_sluier.png,images/cb_sluier.png,,sluier,,,,,,,,,,,0.141666667,0.172222222,1,0,0,sluier,0,9,9,50,1
,,,,,55009,2023-07-30_15h03.58.092,vbt_B1_day3,2022.2.4,Win32,60.42661188,55009,,,,,,,,,,,,,,,,,,,,mode,images/br_mode.png,images/cb_mode.png,,mode,,,,,,,,,,,0.139814815,0.191666667,1,0,0,mode,0,10,10,3,1
,,,,,55009,2023-07-30_15h03.58.092,vbt_B1_day3,2022.2.4,Win32,60.42661188,55009,,,,,,,,,,,,,,,,,,,,invallen,images/br_invallen.png,images/cb_invallen.png,,invallen,,,,,,,,,,,0.137037037,0.215740741,1,0,0,invallen,0,11,11,57,1
,,,,,55009,2023-07-30_15h03.58.092,vbt_B1_day3,2022.2.4,Win32,60.42661188,55009,,,,,,,,,,,,,,,,,,,,dwang,images/br_dwang.png,images/cb_dwang.png,,dwang,,,,,,,,,,,0.117592593,0.242592593,1,0,0,dwang,0,12,12,47,1
,,,,,55009,2023-07-30_15h03.58.092,vbt_B1_day3,2022.2.4,Win32,60.42661188,55009,,,,,,,,,,,,,,,,,,,,laken,images/br_laken.png,images/cb_laken.png,,laken,,,,,,,,,,,0.117592593,0.242592593,1,0,0,laken,0,13,13,5,1
,,,,,55009,2023-07-30_15h03.58.092,vbt_B1_day3,2022.2.4,Win32,60.42661188,55009,,,,,,,,,,,,,,,,,,,,uviek,images/br_uviek.png,images/cb_uviek.png,,uviek,,,,,,,,,,,0.117592593,0.242592593,1,0,0,uviek,0,14,14,25,1
,,,,,55009,2023-07-30_15h03.58.092,vbt_B1_day3,2022.2.4,Win32,60.42661188,55009,,,,,,,,,,,,,,,,,,,,hust,images/br_hust.png,images/cb_hust.png,,hust,,,,,,,,,,,0.117592593,0.242592593,1,0,0,hust,0,15,15,23,1
,,,,,55009,2023-07-30_15h03.58.092,vbt_B1_day3,2022.2.4,Win32,60.42661188,55009,,,,,,,,,,,,,,,,,,,,verhaal,images/br_verhaal.png,images/cb_verhaal.png,,verhaal,,,,,,,,,,,0.117592593,0.242592593,1,0,0,verhaal,0,16,16,13,1
,,,,,55009,2023-07-30_15h03.58.092,vbt_B1_day3,2022.2.4,Win32,60.42661188,55009,,,,,,,,,,,,,,,,,,,,stikken,images/br_stikken.png,images/cb_stikken.png,,stikken,,,,,,,,,,,0.117592593,0.242592593,1,0,0,stikken,0,17,17,54,1
,,,,,55009,2023-07-30_15h03.58.092,vbt_B1_day3,2022.2.4,Win32,60.42661188,55009,,,,,,,,,,,,,,,,,,,,bevret,images/br_bevret.png,images/cb_bevret.png,,bevret,,,,,,,,,,,0.118518519,0.238888889,1,0,0,bevret,0,18,18,30,1
,,,,,55009,2023-07-30_15h03.58.092,vbt_B1_day3,2022.2.4,Win32,60.42661188,55009,,,,,,,,,,,,,,,,,,,,vlager,images/br_vlager.png,images/cb_vlager.png,,vlager,,,,,,,,,,,0.114814815,0.257407407,1,0,0,vlager,0,19,19,28,1
,,,,,55009,2023-07-30_15h03.58.092,vbt_B1_day3,2022.2.4,Win32,60.42661188,55009,,,,,,,,,,,,,,,,,,,,eens,images/br_eens.png,images/cb_eens.png,,eens,,,,,,,,,,,0.114814815,0.257407407,1,0,0,eens,0,20,20,40,1
,,,,,55009,2023-07-30_15h03.58.092,vbt_B1_day3,2022.2.4,Win32,60.42661188,55009,,,,,,,,,,,,,,,,,,,,keihard,images/br_keihard.png,images/cb_keihard.png,,keihard,,,,,,,,,,,0.114814815,0.257407407,1,0,0,keihard,0,21,21,14,1
,,,,,55009,2023-07-30_15h03.58.092,vbt_B1_day3,2022.2.4,Win32,60.42661188,55009,,,,,,,,,,,,,,,,,,,,knie,images/br_knie.png,images/cb_knie.png,,knie,,,,,,,,,,,0.115740741,0.25462963,1,0,0,knie,0,22,22,0,1
,,,,,55009,2023-07-30_15h03.58.092,vbt_B1_day3,2022.2.4,Win32,60.42661188,55009,,,,,,,,,,,,,,,,,,,,kest,images/br_kest.png,images/cb_kest.png,,kest,,,,,,,,,,,0.025925926,0.157407407,1,0,0,kest,0,23,23,21,1
,,,,,55009,2023-07-30_15h03.58.092,vbt_B1_day3,2022.2.4,Win32,60.42661188,55009,,,,,,,,,,,,,,,,,,,,afbopen,images/br_afbopen.png,images/cb_afbopen.png,,afb...,,,,,,,,,,,0.025925926,0.157407407,1,0,0,afb...,0,24,24,34,1
,,,,,55009,2023-07-30_15h03.58.092,vbt_B1_day3,2022.2.4,Win32,60.42661188,55009,,,,,,,,,,,,,,,,,,,,begrip,images/br_begrip.png,images/cb_begrip.png,,begrip,,,,,,,,,,,0.025925926,0.157407407,1,0,0,begrip,0,25,25,48,1
,,,,,55009,2023-07-30_15h03.58.092,vbt_B1_day3,2022.2.4,Win32,60.42661188,55009,,,,,,,,,,,,,,,,,,,,bisschop,images/br_bisschop.png,images/cb_bisschop.png,,bisschop,,,,,,,,,,,0.025925926,0.157407407,1,0,0,bisschop,0,26,26,16,1
,,,,,55009,2023-07-30_15h03.58.092,vbt_B1_day3,2022.2.4,Win32,60.42661188,55009,,,,,,,,,,,,,,,,,,,,croo,images/br_croo.png,images/cb_croo.png,,craa,,,,,,,,,,,0.049074074,0.002777778,1,0,0,craa,0,27,27,22,1
,,,,,55009,2023-07-30_15h03.58.092,vbt_B1_day3,2022.2.4,Win32,60.42661188,55009,,,,,,,,,,,,,,,,,,,,kaas,images/br_kaas.png,images/cb_kaas.png,,kaas,,,,,,,,,,,0.048148148,0.002777778,1,0,0,kaas,0,28,28,42,1
,,,,,55009,2023-07-30_15h03.58.092,vbt_B1_day3,2022.2.4,Win32,60.42661188,55009,,,,,,,,,,,,,,,,,,,,theeting,images/br_theeting.png,images/cb_theeting.png,,theeti..,,,,,,,,,,,0.048148148,0.002777778,1,0,0,theeti..,0,29,29,38,1
,,,,,55009,2023-07-30_15h03.58.092,vbt_B1_day3,2022.2.4,Win32,60.42661188,55009,,,,,,,,,,,,,,,,,,,,aarzelen,images/br_aarzelen.png,images/cb_aarzelen.png,,aarzelen,,,,,,,,,,,0.048148148,0.002777778,1,0,0,aarzelen,0,30,30,19,1
,,,,,55009,2023-07-30_15h03.58.092,vbt_B1_day3,2022.2.4,Win32,60.42661188,55009,,,,,,,,,,,,,,,,,,,,oprotten,images/br_oprotten.png,images/cb_oprotten.png,,oprotten,,,,,,,,,,,-0.053703704,-0.058333333,1,0,0,oprotten,0,31,31,17,1
,,,,,55009,2023-07-30_15h03.58.092,vbt_B1_day3,2022.2.4,Win32,60.42661188,55009,,,,,,,,,,,,,,,,,,,,paken,images/br_paken.png,images/cb_paken.png,,paken,,,,,,,,,,,-0.053703704,-0.058333333,1,0,0,paken,0,32,32,27,1
,,,,,55009,2023-07-30_15h03.58.092,vbt_B1_day3,2022.2.4,Win32,60.42661188,55009,,,,,,,,,,,,,,,,,,,,mugeek,images/br_mugeek.png,images/cb_mugeek.png,,mugeek,,,,,,,,,,,-0.058333333,-0.046296296,1,0,0,mugeek,0,33,33,29,1
,,,,,55009,2023-07-30_15h03.58.092,vbt_B1_day3,2022.2.4,Win32,60.42661188,55009,,,,,,,,,,,,,,,,,,,,kwaas,images/br_kwaas.png,images/cb_kwaas.png,,kwaas,,,,,,,,,,,-0.063888889,-0.05,1,0,0,kwaas,0,34,34,26,1
,,,,,55009,2023-07-30_15h03.58.092,vbt_B1_day3,2022.2.4,Win32,60.42661188,55009,,,,,,,,,,,,,,,,,,,,twaaf,images/br_twaaf.png,images/cb_twaaf.png,,twoos,,,,,,,,,,,-0.063888889,-0.047222222,1,0,0,twoos,0,35,35,24,1
,,,,,55009,2023-07-30_15h03.58.092,vbt_B1_day3,2022.2.4,Win32,60.42661188,55009,,,,,,,,,,,,,,,,,,,,beslag,images/br_beslag.png,images/cb_beslag.png,,beslag,,,,,,,,,,,-0.063888889,-0.047222222,1,0,0,beslag,0,36,36,51,1
,,,,,55009,2023-07-30_15h03.58.092,vbt_B1_day3,2022.2.4,Win32,60.42661188,55009,,,,,,,,,,,,,,,,,,,,gout,images/br_gout.png,images/cb_gout.png,,gout,,,,,,,,,,,-0.063888889,-0.047222222,1,0,0,gout,0,37,37,20,1
,,,,,55009,2023-07-30_15h03.58.092,vbt_B1_day3,2022.2.4,Win32,60.42661188,55009,,,,,,,,,,,,,,,,,,,,stallen,images/br_stallen.png,images/cb_stallen.png,,stallen,,,,,,,,,,,-0.063888889,-0.047222222,1,0,0,stallen,0,38,38,52,1
,,,,,55009,2023-07-30_15h03.58.092,vbt_B1_day3,2022.2.4,Win32,60.42661188,55009,,,,,,,,,,,,,,,,,,,,slapen,images/br_slapen.png,images/cb_slapen.png,,slapen,,,,,,,,,,,-0.063888889,-0.047222222,1,0,0,slapen,0,39,39,9,1
,,,,,55009,2023-07-30_15h03.58.092,vbt_B1_day3,2022.2.4,Win32,60.42661188,55009,,,,,,,,,,,,,,,,,,,,onrecht,images/br_onrecht.png,images/cb_onrecht.png,,onrecht,,,,,,,,,,,0.009259259,0.038888889,1,0,0,onrecht,0,40,40,55,1
,,,,,55009,2023-07-30_15h03.58.092,vbt_B1_day3,2022.2.4,Win32,60.42661188,55009,,,,,,,,,,,,,,,,,,,,prikken,images/br_prikken.png,images/cb_prikken.png,,prikken,,,,,,,,,,,0.006481481,0.026851852,1,0,0,prikken,0,41,41,12,1
,,,,,55009,2023-07-30_15h03.58.092,vbt_B1_day3,2022.2.4,Win32,60.42661188,55009,,,,,,,,,,,,,,,,,,,,leugeren,images/br_leugeren.png,images/cb_leugeren.png,,leuger..,,,,,,,,,,,0.007407407,0.025,1,0,0,leuger..,0,42,42,37,1
,,,,,55009,2023-07-30_15h03.58.092,vbt_B1_day3,2022.2.4,Win32,60.42661188,55009,,,,,,,,,,,,,,,,,,,,samen,images/br_samen.png,images/cb_samen.png,,samen,,,,,,,,,,,0.007407407,0.025,1,0,0,samen,0,43,43,7,1
,,,,,55009,2023-07-30_15h03.58.092,vbt_B1_day3,2022.2.4,Win32,60.42661188,55009,,,,,,,,,,,,,,,,,,,,steel,images/br_steel.png,images/cb_steel.png,,steel,,,,,,,,,,,0.007407407,0.025,1,0,0,steel,0,44,44,4,1
,,,,,55009,2023-07-30_15h03.58.092,vbt_B1_day3,2022.2.4,Win32,60.42661188,55009,,,,,,,,,,,,,,,,,,,,schodel,images/br_schodel.png,images/cb_schodel.png,,schodel,,,,,,,,,,,0.007407407,0.025,1,0,0,schodel,0,45,45,33,1
,,,,,55009,2023-07-30_15h03.58.092,vbt_B1_day3,2022.2.4,Win32,60.42661188,55009,,,,,,,,,,,,,,,,,,,,brappen,images/br_brappen.png,images/cb_brappen.png,,brappen,,,,,,,,,,,0.007407407,0.025,1,0,0,brappen,0,46,46,35,1
,,,,,55009,2023-07-30_15h03.58.092,vbt_B1_day3,2022.2.4,Win32,60.42661188,55009,,,,,,,,,,,,,,,,,,,,opzicht,images/br_opzicht.png,images/cb_opzicht.png,,opzicht,,,,,,,,,,,0.007407407,0.025,1,0,0,opzicht,0,47,47,15,1
,,,,,55009,2023-07-30_15h03.58.092,vbt_B1_day3,2022.2.4,Win32,60.42661188,55009,,,,,,,,,,,,,,,,,,,,uniek,images/br_uniek.png,images/cb_uniek.png,,uniek,,,,,,,,,,,0.007407407,0.025,1,0,0,uniek,0,48,48,46,1
,,,,,55009,2023-07-30_15h03.58.092,vbt_B1_day3,2022.2.4,Win32,60.42661188,55009,,,,,,,,,,,,,,,,,,,,verwoor,images/br_verwoor.png,images/cb_verwoor.png,,verwoor,,,,,,,,,,,0.007407407,0.025,1,0,0,verwoor,0,49,49,32,1
,,,,,55009,2023-07-30_15h03.58.092,vbt_B1_day3,2022.2.4,Win32,60.42661188,55009,,,,,,,,,,,,,,,,,,,,glijden,images/br_glijden.png,images/cb_glijden.png,,glijden,,,,,,,,,,,0.007407407,0.025,1,0,0,glijden,0,50,50,53,1
,,,,,55009,2023-07-30_15h03.58.092,vbt_B1_day3,2022.2.4,Win32,60.42661188,55009,,,,,,,,,,,,,,,,,,,,gebod,images/br_gebod.png,images/cb_gebod.png,,gebod,,,,,,,,,,,0.007407407,0.025,1,0,0,gebod,0,51,51,45,1
,,,,,55009,2023-07-30_15h03.58.092,vbt_B1_day3,2022.2.4,Win32,60.42661188,55009,,,,,,,,,,,,,,,,,,,,jongelui,images/br_jongelui.png,images/cb_jongelui.png,,jongelui,,,,,,,,,,,0.007407407,0.025,1,0,0,jongelui,0,52,52,59,1
,,,,,55009,2023-07-30_15h03.58.092,vbt_B1_day3,2022.2.4,Win32,60.42661188,55009,,,,,,,,,,,,,,,,,,,,verraden,images/br_verraden.png,images/cb_verraden.png,,verrader,,,,,,,,,,,0.007407407,0.025,1,0,0,verrader,0,53,53,58,1
,,,,,55009,2023-07-30_15h03.58.092,vbt_B1_day3,2022.2.4,Win32,60.42661188,55009,,,,,,,,,,,,,,,,,,,,hier,images/br_hier.png,images/cb_hier.png,,hier,,,,,,,,,,,0.001851852,0.016666667,1,0,0,hier,0,54,54,1,1
,,,,,55009,2023-07-30_15h03.58.092,vbt_B1_day3,2022.2.4,Win32,60.42661188,55009,,,,,,,,,,,,,,,,,,,,leemaken,images/br_leemaken.png,images/cb_leemaken.png,,leemaken,,,,,,,,,,,0.001851852,0.016666667,1,0,0,leemaken,0,55,55,39,1
,,,,,55009,2023-07-30_15h03.58.092,vbt_B1_day3,2022.2.4,Win32,60.42661188,55009,,,,,,,,,,,,,,,,,,,,stoom,images/br_stoom.png,images/cb_stoom.png,,stoom,,,,,,,,,,,-0.006481481,0.021296296,1,0,0,stoom,0,56,56,6,1
,,,,,55009,2023-07-30_15h03.58.092,vbt_B1_day3,2022.2.4,Win32,60.42661188,55009,,,,,,,,,,,,,,,,,,,,hint,images/br_hint.png,images/cb_hint.png,,hint,,,,,,,,,,,-0.006481481,0.021296296,1,0,0,hint,0,57,57,43,1
,,,,,55009,2023-07-30_15h03.58.092,vbt_B1_day3,2022.2.4,Win32,60.42661188,55009,,,,,,,,,,,,,,,,,,,,booien,images/br_booien.png,images/cb_booien.png,,booien,,,,,,,,,,,-0.006481481,0.021296296,1,0,0,booien,0,58,58,31,1
,,,,,55009,2023-07-30_15h03.58.092,vbt_B1_day3,2022.2.4,Win32,60.42661188,55009,,,,,,,,,,,,,,,,,,,,alsof,images/br_alsof.png,images/cb_alsof.png,,alsof,,,,,,,,,,,-0.006481481,0.021296296,1,0,0,alsof,0,59,59,44,1
,,,,,55009,2023-07-30_15h03.58.092,vbt_B1_day3,2022.2.4,Win32,60.42661188,55009,,,,,,,,,,,,,,,,,,,,,,,,,,,,,,,,,,,,,,,,,,,,,
