welcome_mouse.x,welcome_mouse.y,welcome_mouse.leftButton,welcome_mouse.midButton,welcome_mouse.rightButton,welcome_mouse.time,"ID",date,expName,psychopyVersion,OS,frameRate,refresh_mouse.x,refresh_mouse.y,refresh_mouse.leftButton,refresh_mouse.midButton,refresh_mouse.rightButton,refresh_mouse.time,braille_mouse.x,braille_mouse.y,braille_mouse.leftButton,braille_mouse.midButton,braille_mouse.rightButton,braille_mouse.time,trials.thisRepN,trials.thisTrialN,trials.thisN,trials.thisIndex,trials.ran,nlLet,brLet,cbLet,trainInstr_mouse.x,trainInstr_mouse.y,trainInstr_mouse.leftButton,trainInstr_mouse.midButton,trainInstr_mouse.rightButton,trainInstr_mouse.time,translation_key.keys,translation_key.corr,translation_key.rt,word_rsp.text,word_mouse.x,word_mouse.y,word_mouse.leftButton,word_mouse.midButton,word_mouse.rightButton,word_mouse.time,train_loop.thisRepN,train_loop.thisTrialN,train_loop.thisN,train_loop.thisIndex,train_loop.ran,nlWrd,brWrd,cbWrd,test,testResp,mouse.x,mouse.y,mouse.leftButton,mouse.midButton,mouse.rightButton,testInstr_mouse.x,testInstr_mouse.y,testInstr_mouse.leftButton,testInstr_mouse.midButton,testInstr_mouse.rightButton,test_mouse.x,test_mouse.y,test_mouse.leftButton,test_mouse.midButton,test_mouse.rightButton,test_response.text,test_loop.thisRepN,test_loop.thisTrialN,test_loop.thisN,test_loop.thisIndex,test_loop.ran
0.047222208,-0.199074074,1,0,0,20.5108,00090,2023-10-24_11h19.33.120,vbt_B1_day2,2022.2.4,Win32,144.1337561,,,,,,,,,,,,,,,,,,,,,,,,,,,,,,,,,,,,,,,,,,,,,,,,,,,,,,,,,,,,,,,,,,,
,,,,,,00090,2023-10-24_11h19.33.120,vbt_B1_day2,2022.2.4,Win32,144.1337561,0.047222208,-0.199074074,1,0,0,8.8106,,,,,,,,,,,,,,,,,,,,,,,,,,,,,,,,,,,,,,,,,,,,,,,,,,,,,,,,,,,,,
,,,,,,00090,2023-10-24_11h19.33.120,vbt_B1_day2,2022.2.4,Win32,144.1337561,,,,,,,0.097222222,-0.19722225,1,0,0,0.9723,0,0,0,14,1,o,images/br_o.png,images/cb_o.png,,,,,,,,,,,,,,,,,,,,,,,,,,,,,,,,,,,,,,,,,,,,,,,
,,,,,,00090,2023-10-24_11h19.33.120,vbt_B1_day2,2022.2.4,Win32,144.1337561,,,,,,,0.097222222,-0.19722225,1,0,0,1.9933,0,1,1,19,1,t,images/br_t.png,images/cb_t.png,,,,,,,,,,,,,,,,,,,,,,,,,,,,,,,,,,,,,,,,,,,,,,,
,,,,,,00090,2023-10-24_11h19.33.120,vbt_B1_day2,2022.2.4,Win32,144.1337561,,,,,,,0.097222222,-0.19722225,1,0,0,0.0904,0,2,2,3,1,d,images/br_d.png,images/cb_d.png,,,,,,,,,,,,,,,,,,,,,,,,,,,,,,,,,,,,,,,,,,,,,,,
,,,,,,00090,2023-10-24_11h19.33.120,vbt_B1_day2,2022.2.4,Win32,144.1337561,,,,,,,0.097222222,-0.19722225,1,0,0,0.1251,0,3,3,10,1,k,images/br_k.png,images/cb_k.png,,,,,,,,,,,,,,,,,,,,,,,,,,,,,,,,,,,,,,,,,,,,,,,
,,,,,,00090,2023-10-24_11h19.33.120,vbt_B1_day2,2022.2.4,Win32,144.1337561,,,,,,,0.097222222,-0.19722225,1,0,0,0.4656,0,4,4,15,1,p,images/br_p.png,images/cb_p.png,,,,,,,,,,,,,,,,,,,,,,,,,,,,,,,,,,,,,,,,,,,,,,,
,,,,,,00090,2023-10-24_11h19.33.120,vbt_B1_day2,2022.2.4,Win32,144.1337561,,,,,,,0.097222222,-0.19722225,1,0,0,0.7294,0,5,5,24,1,y,images/br_y.png,images/cb_y.png,,,,,,,,,,,,,,,,,,,,,,,,,,,,,,,,,,,,,,,,,,,,,,,
,,,,,,00090,2023-10-24_11h19.33.120,vbt_B1_day2,2022.2.4,Win32,144.1337561,,,,,,,0.097222222,-0.19722225,1,0,0,0.0695,0,6,6,11,1,l,images/br_l.png,images/cb_l.png,,,,,,,,,,,,,,,,,,,,,,,,,,,,,,,,,,,,,,,,,,,,,,,
,,,,,,00090,2023-10-24_11h19.33.120,vbt_B1_day2,2022.2.4,Win32,144.1337561,,,,,,,0.097222222,-0.19722225,1,0,0,0.2638,0,7,7,1,1,b,images/br_b.png,images/cb_b.png,,,,,,,,,,,,,,,,,,,,,,,,,,,,,,,,,,,,,,,,,,,,,,,
,,,,,,00090,2023-10-24_11h19.33.120,vbt_B1_day2,2022.2.4,Win32,144.1337561,,,,,,,0.097222222,-0.19722225,1,0,0,0.7918,0,8,8,25,1,z,images/br_z.png,images/cb_z.png,,,,,,,,,,,,,,,,,,,,,,,,,,,,,,,,,,,,,,,,,,,,,,,
,,,,,,00090,2023-10-24_11h19.33.120,vbt_B1_day2,2022.2.4,Win32,144.1337561,,,,,,,0.097222222,-0.19722225,1,0,0,0.1183,0,9,9,21,1,v,images/br_v.png,images/cb_v.png,,,,,,,,,,,,,,,,,,,,,,,,,,,,,,,,,,,,,,,,,,,,,,,
,,,,,,00090,2023-10-24_11h19.33.120,vbt_B1_day2,2022.2.4,Win32,144.1337561,,,,,,,0.097222222,-0.19722225,1,0,0,0.375,0,10,10,23,1,x,images/br_x.png,images/cb_x.png,,,,,,,,,,,,,,,,,,,,,,,,,,,,,,,,,,,,,,,,,,,,,,,
,,,,,,00090,2023-10-24_11h19.33.120,vbt_B1_day2,2022.2.4,Win32,144.1337561,,,,,,,0.097222222,-0.19722225,1,0,0,0.2711,0,11,11,6,1,g,images/br_g.png,images/cb_g.png,,,,,,,,,,,,,,,,,,,,,,,,,,,,,,,,,,,,,,,,,,,,,,,
,,,,,,00090,2023-10-24_11h19.33.120,vbt_B1_day2,2022.2.4,Win32,144.1337561,,,,,,,0.097222222,-0.19722225,1,0,0,0.4859,0,12,12,7,1,h,images/br_h.png,images/cb_h.png,,,,,,,,,,,,,,,,,,,,,,,,,,,,,,,,,,,,,,,,,,,,,,,
,,,,,,00090,2023-10-24_11h19.33.120,vbt_B1_day2,2022.2.4,Win32,144.1337561,,,,,,,0.097222222,-0.19722225,1,0,0,0.0075,0,13,13,0,1,a,images/br_a.png,images/cb_a.png,,,,,,,,,,,,,,,,,,,,,,,,,,,,,,,,,,,,,,,,,,,,,,,
,,,,,,00090,2023-10-24_11h19.33.120,vbt_B1_day2,2022.2.4,Win32,144.1337561,,,,,,,0.097222222,-0.19722225,1,0,0,0.389,0,14,14,16,1,q,images/br_q.png,images/cb_q.png,,,,,,,,,,,,,,,,,,,,,,,,,,,,,,,,,,,,,,,,,,,,,,,
,,,,,,00090,2023-10-24_11h19.33.120,vbt_B1_day2,2022.2.4,Win32,144.1337561,,,,,,,0.097222222,-0.19722225,1,0,0,0.3126,0,15,15,13,1,n,images/br_n.png,images/cb_n.png,,,,,,,,,,,,,,,,,,,,,,,,,,,,,,,,,,,,,,,,,,,,,,,
,,,,,,00090,2023-10-24_11h19.33.120,vbt_B1_day2,2022.2.4,Win32,144.1337561,,,,,,,0.097222222,-0.19722225,1,0,0,0.0698,0,16,16,18,1,s,images/br_s.png,images/cb_s.png,,,,,,,,,,,,,,,,,,,,,,,,,,,,,,,,,,,,,,,,,,,,,,,
,,,,,,00090,2023-10-24_11h19.33.120,vbt_B1_day2,2022.2.4,Win32,144.1337561,,,,,,,0.097222222,-0.19722225,1,0,0,0.0833,0,17,17,22,1,w,images/br_w.png,images/cb_w.png,,,,,,,,,,,,,,,,,,,,,,,,,,,,,,,,,,,,,,,,,,,,,,,
,,,,,,00090,2023-10-24_11h19.33.120,vbt_B1_day2,2022.2.4,Win32,144.1337561,,,,,,,0.097222222,-0.19722225,1,0,0,1.1945,0,18,18,20,1,u,images/br_u.png,images/cb_u.png,,,,,,,,,,,,,,,,,,,,,,,,,,,,,,,,,,,,,,,,,,,,,,,
,,,,,,00090,2023-10-24_11h19.33.120,vbt_B1_day2,2022.2.4,Win32,144.1337561,,,,,,,0.097222222,-0.19722225,1,0,0,0.2364,0,19,19,12,1,m,images/br_m.png,images/cb_m.png,,,,,,,,,,,,,,,,,,,,,,,,,,,,,,,,,,,,,,,,,,,,,,,
,,,,,,00090,2023-10-24_11h19.33.120,vbt_B1_day2,2022.2.4,Win32,144.1337561,,,,,,,0.097222222,-0.19722225,1,0,0,0.3125,0,20,20,4,1,e,images/br_e.png,images/cb_e.png,,,,,,,,,,,,,,,,,,,,,,,,,,,,,,,,,,,,,,,,,,,,,,,
,,,,,,00090,2023-10-24_11h19.33.120,vbt_B1_day2,2022.2.4,Win32,144.1337561,,,,,,,0.097222222,-0.19722225,1,0,0,0.3334,0,21,21,2,1,c,images/br_c.png,images/cb_c.png,,,,,,,,,,,,,,,,,,,,,,,,,,,,,,,,,,,,,,,,,,,,,,,
,,,,,,00090,2023-10-24_11h19.33.120,vbt_B1_day2,2022.2.4,Win32,144.1337561,,,,,,,0.097222222,-0.19722225,1,0,0,0.0485,0,22,22,17,1,r,images/br_r.png,images/cb_r.png,,,,,,,,,,,,,,,,,,,,,,,,,,,,,,,,,,,,,,,,,,,,,,,
,,,,,,00090,2023-10-24_11h19.33.120,vbt_B1_day2,2022.2.4,Win32,144.1337561,,,,,,,0.097222222,-0.19722225,1,0,0,0.3267,0,23,23,8,1,i,images/br_i.png,images/cb_i.png,,,,,,,,,,,,,,,,,,,,,,,,,,,,,,,,,,,,,,,,,,,,,,,
,,,,,,00090,2023-10-24_11h19.33.120,vbt_B1_day2,2022.2.4,Win32,144.1337561,,,,,,,0.097222222,-0.19722225,1,0,0,0.979,0,24,24,9,1,j,images/br_j.png,images/cb_j.png,,,,,,,,,,,,,,,,,,,,,,,,,,,,,,,,,,,,,,,,,,,,,,,
,,,,,,00090,2023-10-24_11h19.33.120,vbt_B1_day2,2022.2.4,Win32,144.1337561,,,,,,,0.097222222,-0.19722225,1,0,0,0.3054,0,25,25,5,1,f,images/br_f.png,images/cb_f.png,,,,,,,,,,,,,,,,,,,,,,,,,,,,,,,,,,,,,,,,,,,,,,,
,,,,,,00090,2023-10-24_11h19.33.120,vbt_B1_day2,2022.2.4,Win32,144.1337561,,,,,,,,,,,,,,,,,,,,,0.150000042,-0.324999986,1,0,0,23.4503,,,,,,,,,,,,,,,,,,,,,,,,,,,,,,,,,,,,,,,,,
,,,,,,00090,2023-10-24_11h19.33.120,vbt_B1_day2,2022.2.4,Win32,144.1337561,,,,,,,,,,,,,,,,,,,,,,,,,,,down,0,12.5506,,0.15370369,-0.320370356,1,0,0,3.7959,0,0,0,0,1,slak,images/br_slak.png,images/cb_slak.png,0,,,,,,,,,,,,,,,,,,,,,,
,,,,,,00090,2023-10-24_11h19.33.120,vbt_B1_day2,2022.2.4,Win32,144.1337561,,,,,,,,,,,,,,,,,,,,,,,,,,,down,0,10.7025,,0.15370369,-0.320370356,1,0,0,4.6043,0,1,1,133,1,seizoen,images/br_seizoen.png,images/cb_seizoen.png,0,,,,,,,,,,,,,,,,,,,,,,
,,,,,,00090,2023-10-24_11h19.33.120,vbt_B1_day2,2022.2.4,Win32,144.1337561,,,,,,,,,,,,,,,,,,,,,,,,,,,down,0,0.6414,,0.238888917,-0.200925968,1,0,0,2.6874,0,2,2,21,1,mist,images/br_mist.png,images/cb_mist.png,0,,,,,,,,,,,,,,,,,,,,,,
,,,,,,00090,2023-10-24_11h19.33.120,vbt_B1_day2,2022.2.4,Win32,144.1337561,,,,,,,,,,,,,,,,,,,,,,,,,,,down,0,0.3213,,0.238888917,-0.200925968,1,0,0,1.2849,0,3,3,66,1,lever,images/br_lever.png,images/cb_lever.png,0,,,,,,,,,,,,,,,,,,,,,,
,,,,,,00090,2023-10-24_11h19.33.120,vbt_B1_day2,2022.2.4,Win32,144.1337561,,,,,,,,,,,,,,,,,,,,,,,,,,,down,0,0.326,,0.238888917,-0.200925968,1,0,0,1.4167,0,4,4,6,1,diep,images/br_diep.png,images/cb_diep.png,0,,,,,,,,,,,,,,,,,,,,,,
,,,,,,00090,2023-10-24_11h19.33.120,vbt_B1_day2,2022.2.4,Win32,144.1337561,,,,,,,,,,,,,,,,,,,,,,,,,,,down,0,0.2806,,0.238888917,-0.200925968,1,0,0,1.7568,0,5,5,135,1,gedicht,images/br_gedicht.png,images/cb_gedicht.png,0,,,,,,,,,,,,,,,,,,,,,,
,,,,,,00090,2023-10-24_11h19.33.120,vbt_B1_day2,2022.2.4,Win32,144.1337561,,,,,,,,,,,,,,,,,,,,,,,,,,,down,0,0.4443,,0.238888917,-0.200925968,1,0,0,1.0624,0,6,6,51,1,samen,images/br_samen.png,images/cb_samen.png,0,,,,,,,,,,,,,,,,,,,,,,
,,,,,,00090,2023-10-24_11h19.33.120,vbt_B1_day2,2022.2.4,Win32,144.1337561,,,,,,,,,,,,,,,,,,,,,,,,,,,down,0,0.429,,0.238888917,-0.200925968,1,0,0,1.1039,0,7,7,114,1,vullen,images/br_vullen.png,images/cb_vullen.png,0,,,,,,,,,,,,,,,,,,,,,,
,,,,,,00090,2023-10-24_11h19.33.120,vbt_B1_day2,2022.2.4,Win32,144.1337561,,,,,,,,,,,,,,,,,,,,,,,,,,,down,0,0.2381,,0.238888917,-0.200925968,1,0,0,0.8468,0,8,8,180,1,openbaar,images/br_openbaar.png,images/cb_openbaar.png,0,,,,,,,,,,,,,,,,,,,,,,
,,,,,,00090,2023-10-24_11h19.33.120,vbt_B1_day2,2022.2.4,Win32,144.1337561,,,,,,,,,,,,,,,,,,,,,,,,,,,down,0,0.042,,0.238888917,-0.200925968,1,0,0,0.4856,0,9,9,130,1,keihard,images/br_keihard.png,images/cb_keihard.png,0,,,,,,,,,,,,,,,,,,,,,,
,,,,,,00090,2023-10-24_11h19.33.120,vbt_B1_day2,2022.2.4,Win32,144.1337561,,,,,,,,,,,,,,,,,,,,,,,,,,,down,0,11.1406,,0.137037065,-0.295370384,1,0,0,5.6944,0,10,10,137,1,trekker,images/br_trekker.png,images/cb_trekker.png,1,trekker,,,,,,,,,,,,,,,,,,,,,
,,,,,,00090,2023-10-24_11h19.33.120,vbt_B1_day2,2022.2.4,Win32,144.1337561,,,,,,,,,,,,,,,,,,,,,,,,,,,down,0,0.9906,,0.262037065,-0.165740755,1,0,0,1.9999,0,11,11,148,1,smullen,images/br_smullen.png,images/cb_smullen.png,0,,,,,,,,,,,,,,,,,,,,,,
,,,,,,00090,2023-10-24_11h19.33.120,vbt_B1_day2,2022.2.4,Win32,144.1337561,,,,,,,,,,,,,,,,,,,,,,,,,,,down,0,0.3303,,0.262037065,-0.165740755,1,0,0,1.118,0,12,12,140,1,blijven,images/br_blijven.png,images/cb_blijven.png,0,,,,,,,,,,,,,,,,,,,,,,
,,,,,,00090,2023-10-24_11h19.33.120,vbt_B1_day2,2022.2.4,Win32,144.1337561,,,,,,,,,,,,,,,,,,,,,,,,,,,down,0,1.7945,,0.262037065,-0.165740755,1,0,0,2.5208,0,13,13,103,1,joggen,images/br_joggen.png,images/cb_joggen.png,0,,,,,,,,,,,,,,,,,,,,,,
,,,,,,00090,2023-10-24_11h19.33.120,vbt_B1_day2,2022.2.4,Win32,144.1337561,,,,,,,,,,,,,,,,,,,,,,,,,,,down,0,0.2929,,0.262037065,-0.165740755,1,0,0,1.9722,0,14,14,101,1,staren,images/br_staren.png,images/cb_staren.png,0,,,,,,,,,,,,,,,,,,,,,,
,,,,,,00090,2023-10-24_11h19.33.120,vbt_B1_day2,2022.2.4,Win32,144.1337561,,,,,,,,,,,,,,,,,,,,,,,,,,,down,0,0.3512,,0.262037065,-0.165740755,1,0,0,0.5972,0,15,15,92,1,geheim,images/br_geheim.png,images/cb_geheim.png,0,,,,,,,,,,,,,,,,,,,,,,
,,,,,,00090,2023-10-24_11h19.33.120,vbt_B1_day2,2022.2.4,Win32,144.1337561,,,,,,,,,,,,,,,,,,,,,,,,,,,down,0,0.3172,,0.262037065,-0.165740755,1,0,0,0.3747,0,16,16,156,1,rechten,images/br_rechten.png,images/cb_rechten.png,0,,,,,,,,,,,,,,,,,,,,,,
,,,,,,00090,2023-10-24_11h19.33.120,vbt_B1_day2,2022.2.4,Win32,144.1337561,,,,,,,,,,,,,,,,,,,,,,,,,,,down,0,0.3612,,0.262037065,-0.165740755,1,0,0,0.4795,0,17,17,144,1,eetlust,images/br_eetlust.png,images/cb_eetlust.png,0,,,,,,,,,,,,,,,,,,,,,,
,,,,,,00090,2023-10-24_11h19.33.120,vbt_B1_day2,2022.2.4,Win32,144.1337561,,,,,,,,,,,,,,,,,,,,,,,,,,,down,0,0.1877,,0.262037065,-0.165740755,1,0,0,0.6174,0,18,18,27,1,dans,images/br_dans.png,images/cb_dans.png,0,,,,,,,,,,,,,,,,,,,,,,
,,,,,,00090,2023-10-24_11h19.33.120,vbt_B1_day2,2022.2.4,Win32,144.1337561,,,,,,,,,,,,,,,,,,,,,,,,,,,down,0,0.4947,,0.262037065,-0.165740755,1,0,0,0.8,0,19,19,31,1,poes,images/br_poes.png,images/cb_poes.png,0,,,,,,,,,,,,,,,,,,,,,,
,,,,,,00090,2023-10-24_11h19.33.120,vbt_B1_day2,2022.2.4,Win32,144.1337561,,,,,,,,,,,,,,,,,,,,,,,,,,,down,0,0.4514,,0.262037065,-0.165740755,1,0,0,0.5065,0,20,20,182,1,bijkomen,images/br_bijkomen.png,images/cb_bijkomen.png,0,,,,,,,,,,,,,,,,,,,,,,
,,,,,,00090,2023-10-24_11h19.33.120,vbt_B1_day2,2022.2.4,Win32,144.1337561,,,,,,,,,,,,,,,,,,,,,,,,,,,down,0,0.2197,,0.262037065,-0.165740755,1,0,0,0.4514,0,21,21,146,1,opkomen,images/br_opkomen.png,images/cb_opkomen.png,0,,,,,,,,,,,,,,,,,,,,,,
,,,,,,00090,2023-10-24_11h19.33.120,vbt_B1_day2,2022.2.4,Win32,144.1337561,,,,,,,,,,,,,,,,,,,,,,,,,,,down,0,0.1891,,0.262037065,-0.165740755,1,0,0,0.4593,0,22,22,129,1,verhaal,images/br_verhaal.png,images/cb_verhaal.png,0,,,,,,,,,,,,,,,,,,,,,,
,,,,,,00090,2023-10-24_11h19.33.120,vbt_B1_day2,2022.2.4,Win32,144.1337561,,,,,,,,,,,,,,,,,,,,,,,,,,,down,0,0.1663,,0.262037065,-0.165740755,1,0,0,0.3476,0,23,23,155,1,gerucht,images/br_gerucht.png,images/cb_gerucht.png,0,,,,,,,,,,,,,,,,,,,,,,
,,,,,,00090,2023-10-24_11h19.33.120,vbt_B1_day2,2022.2.4,Win32,144.1337561,,,,,,,,,,,,,,,,,,,,,,,,,,,down,0,0.3124,,0.262037065,-0.165740755,1,0,0,0.3121,0,24,24,107,1,maling,images/br_maling.png,images/cb_maling.png,0,,,,,,,,,,,,,,,,,,,,,,
,,,,,,00090,2023-10-24_11h19.33.120,vbt_B1_day2,2022.2.4,Win32,144.1337561,,,,,,,,,,,,,,,,,,,,,,,,,,,down,0,0.2643,,0.262037065,-0.165740755,1,0,0,0.4027,0,25,25,45,1,piste,images/br_piste.png,images/cb_piste.png,0,,,,,,,,,,,,,,,,,,,,,,
,,,,,,00090,2023-10-24_11h19.33.120,vbt_B1_day2,2022.2.4,Win32,144.1337561,,,,,,,,,,,,,,,,,,,,,,,,,,,down,0,0.2987,,0.262037065,-0.165740755,1,0,0,0.3135,0,26,26,120,1,klimmen,images/br_klimmen.png,images/cb_klimmen.png,0,,,,,,,,,,,,,,,,,,,,,,
,,,,,,00090,2023-10-24_11h19.33.120,vbt_B1_day2,2022.2.4,Win32,144.1337561,,,,,,,,,,,,,,,,,,,,,,,,,,,down,0,0.3271,,0.262037065,-0.165740755,1,0,0,0.2983,0,27,27,42,1,bleek,images/br_bleek.png,images/cb_bleek.png,0,,,,,,,,,,,,,,,,,,,,,,
,,,,,,00090,2023-10-24_11h19.33.120,vbt_B1_day2,2022.2.4,Win32,144.1337561,,,,,,,,,,,,,,,,,,,,,,,,,,,down,0,8.4386,,0.354629658,-0.138888889,1,0,0,5.6259,0,28,28,16,1,ziek,images/br_ziek.png,images/cb_ziek.png,1,ziek,,,,,,,,,,,,,,,,,,,,,
,,,,,,00090,2023-10-24_11h19.33.120,vbt_B1_day2,2022.2.4,Win32,144.1337561,,,,,,,,,,,,,,,,,,,,,,,,,,,down,0,0.2078,,0.354629658,-0.138888889,1,0,0,0.4509,0,29,29,163,1,schuilen,images/br_schuilen.png,images/cb_schuilen.png,0,,,,,,,,,,,,,,,,,,,,,,
,,,,,,00090,2023-10-24_11h19.33.120,vbt_B1_day2,2022.2.4,Win32,144.1337561,,,,,,,,,,,,,,,,,,,,,,,,,,,down,0,0.189,,0.354629658,-0.138888889,1,0,0,0.3124,0,30,30,71,1,bever,images/br_bever.png,images/cb_bever.png,0,,,,,,,,,,,,,,,,,,,,,,
,,,,,,00090,2023-10-24_11h19.33.120,vbt_B1_day2,2022.2.4,Win32,144.1337561,,,,,,,,,,,,,,,,,,,,,,,,,,,down,0,0.2112,,0.354629658,-0.138888889,1,0,0,0.2925,0,31,31,119,1,liefje,images/br_liefje.png,images/cb_liefje.png,0,,,,,,,,,,,,,,,,,,,,,,
,,,,,,00090,2023-10-24_11h19.33.120,vbt_B1_day2,2022.2.4,Win32,144.1337561,,,,,,,,,,,,,,,,,,,,,,,,,,,down,0,0.2226,,0.354629658,-0.138888889,1,0,0,0.2909,0,32,32,151,1,aanzoek,images/br_aanzoek.png,images/cb_aanzoek.png,0,,,,,,,,,,,,,,,,,,,,,,
,,,,,,00090,2023-10-24_11h19.33.120,vbt_B1_day2,2022.2.4,Win32,144.1337561,,,,,,,,,,,,,,,,,,,,,,,,,,,down,0,10.6441,,0.166666667,-0.303703732,1,0,0,7.826,0,33,33,18,1,blik,images/br_blik.png,images/cb_blik.png,1,blik,,,,,,,,,,,,,,,,,,,,,
,,,,,,00090,2023-10-24_11h19.33.120,vbt_B1_day2,2022.2.4,Win32,144.1337561,,,,,,,,,,,,,,,,,,,,,,,,,,,down,0,0.2244,,0.166666667,-0.303703732,1,0,0,0.4171,0,34,34,11,1,mode,images/br_mode.png,images/cb_mode.png,0,,,,,,,,,,,,,,,,,,,,,,
,,,,,,00090,2023-10-24_11h19.33.120,vbt_B1_day2,2022.2.4,Win32,144.1337561,,,,,,,,,,,,,,,,,,,,,,,,,,,down,0,24.6304,,0.329629686,-0.23055557,1,0,0,1.5486,0,35,35,177,1,maaltijd,images/br_maaltijd.png,images/cb_maaltijd.png,1,maaltijd,,,,,,,,,,,,,,,,,,,,,
,,,,,,00090,2023-10-24_11h19.33.120,vbt_B1_day2,2022.2.4,Win32,144.1337561,,,,,,,,,,,,,,,,,,,,,,,,,,,down,0,0.4942,,0.329629686,-0.23055557,1,0,0,1.7989,0,36,36,100,1,geduld,images/br_geduld.png,images/cb_geduld.png,0,,,,,,,,,,,,,,,,,,,,,,
,,,,,,00090,2023-10-24_11h19.33.120,vbt_B1_day2,2022.2.4,Win32,144.1337561,,,,,,,,,,,,,,,,,,,,,,,,,,,down,0,0.1329,,0.329629686,-0.23055557,1,0,0,0.4517,0,37,37,5,1,blad,images/br_blad.png,images/cb_blad.png,0,,,,,,,,,,,,,,,,,,,,,,
,,,,,,00090,2023-10-24_11h19.33.120,vbt_B1_day2,2022.2.4,Win32,144.1337561,,,,,,,,,,,,,,,,,,,,,,,,,,,down,0,0.1521,,0.329629686,-0.23055557,1,0,0,0.3682,0,38,38,50,1,stoom,images/br_stoom.png,images/cb_stoom.png,0,,,,,,,,,,,,,,,,,,,,,,
,,,,,,00090,2023-10-24_11h19.33.120,vbt_B1_day2,2022.2.4,Win32,144.1337561,,,,,,,,,,,,,,,,,,,,,,,,,,,down,0,0.2255,,0.329629686,-0.23055557,1,0,0,0.3337,0,39,39,131,1,opzicht,images/br_opzicht.png,images/cb_opzicht.png,0,,,,,,,,,,,,,,,,,,,,,,
,,,,,,00090,2023-10-24_11h19.33.120,vbt_B1_day2,2022.2.4,Win32,144.1337561,,,,,,,,,,,,,,,,,,,,,,,,,,,down,0,0.2288,,0.329629686,-0.23055557,1,0,0,0.3187,0,40,40,145,1,invloed,images/br_invloed.png,images/cb_invloed.png,0,,,,,,,,,,,,,,,,,,,,,,
,,,,,,00090,2023-10-24_11h19.33.120,vbt_B1_day2,2022.2.4,Win32,144.1337561,,,,,,,,,,,,,,,,,,,,,,,,,,,down,0,0.1965,,0.329629686,-0.23055557,1,0,0,0.3055,0,41,41,125,1,aanzien,images/br_aanzien.png,images/cb_aanzien.png,0,,,,,,,,,,,,,,,,,,,,,,
,,,,,,00090,2023-10-24_11h19.33.120,vbt_B1_day2,2022.2.4,Win32,144.1337561,,,,,,,,,,,,,,,,,,,,,,,,,,,down,0,0.2396,,0.329629686,-0.23055557,1,0,0,0.4023,0,42,42,44,1,flits,images/br_flits.png,images/cb_flits.png,0,,,,,,,,,,,,,,,,,,,,,,
,,,,,,00090,2023-10-24_11h19.33.120,vbt_B1_day2,2022.2.4,Win32,144.1337561,,,,,,,,,,,,,,,,,,,,,,,,,,,down,0,2.3133,,0.329629686,-0.23055557,1,0,0,5.4451,0,43,43,17,1,taal,images/br_taal.png,images/cb_taal.png,1,taal,,,,,,,,,,,,,,,,,,,,,
,,,,,,00090,2023-10-24_11h19.33.120,vbt_B1_day2,2022.2.4,Win32,144.1337561,,,,,,,,,,,,,,,,,,,,,,,,,,,down,0,0.5855,,0.329629686,-0.23055557,1,0,0,0.4788,0,44,44,199,1,beseffen,images/br_beseffen.png,images/cb_beseffen.png,0,,,,,,,,,,,,,,,,,,,,,,
,,,,,,00090,2023-10-24_11h19.33.120,vbt_B1_day2,2022.2.4,Win32,144.1337561,,,,,,,,,,,,,,,,,,,,,,,,,,,down,0,0.3776,,0.329629686,-0.23055557,1,0,0,0.5902,0,45,45,73,1,volop,images/br_volop.png,images/cb_volop.png,0,,,,,,,,,,,,,,,,,,,,,,
,,,,,,00090,2023-10-24_11h19.33.120,vbt_B1_day2,2022.2.4,Win32,144.1337561,,,,,,,,,,,,,,,,,,,,,,,,,,,down,0,0.245,,0.329629686,-0.23055557,1,0,0,0.3064,0,46,46,194,1,driemaal,images/br_driemaal.png,images/cb_driemaal.png,0,,,,,,,,,,,,,,,,,,,,,,
,,,,,,00090,2023-10-24_11h19.33.120,vbt_B1_day2,2022.2.4,Win32,144.1337561,,,,,,,,,,,,,,,,,,,,,,,,,,,down,0,0.1748,,0.329629686,-0.23055557,1,0,0,0.3195,0,47,47,105,1,wijlen,images/br_wijlen.png,images/cb_wijlen.png,0,,,,,,,,,,,,,,,,,,,,,,
,,,,,,00090,2023-10-24_11h19.33.120,vbt_B1_day2,2022.2.4,Win32,144.1337561,,,,,,,,,,,,,,,,,,,,,,,,,,,down,0,0.168,,0.329629686,-0.23055557,1,0,0,0.3342,0,48,48,185,1,mijnheer,images/br_mijnheer.png,images/cb_mijnheer.png,0,,,,,,,,,,,,,,,,,,,,,,
,,,,,,00090,2023-10-24_11h19.33.120,vbt_B1_day2,2022.2.4,Win32,144.1337561,,,,,,,,,,,,,,,,,,,,,,,,,,,down,0,0.2531,,0.329629686,-0.23055557,1,0,0,1.5341,0,49,49,55,1,praat,images/br_praat.png,images/cb_praat.png,0,,,,,,,,,,,,,,,,,,,,,,
,,,,,,00090,2023-10-24_11h19.33.120,vbt_B1_day2,2022.2.4,Win32,144.1337561,,,,,,,,,,,,,,,,,,,,,,,,,,,down,0,2.1105,,0.329629686,-0.23055557,1,0,0,0.0274,0,50,50,79,1,nodig,images/br_nodig.png,images/cb_nodig.png,0,,,,,,,,,,,,,,,,,,,,,,
,,,,,,00090,2023-10-24_11h19.33.120,vbt_B1_day2,2022.2.4,Win32,144.1337561,,,,,,,,,,,,,,,,,,,,,,,,,,,down,0,0.1469,,0.329629686,-0.23055557,1,0,0,0.778,0,51,51,193,1,weeshuis,images/br_weeshuis.png,images/cb_weeshuis.png,0,,,,,,,,,,,,,,,,,,,,,,
,,,,,,00090,2023-10-24_11h19.33.120,vbt_B1_day2,2022.2.4,Win32,144.1337561,,,,,,,,,,,,,,,,,,,,,,,,,,,down,0,0.2255,,0.329629686,-0.23055557,1,0,0,0.3475,0,52,52,40,1,schep,images/br_schep.png,images/cb_schep.png,0,,,,,,,,,,,,,,,,,,,,,,
,,,,,,00090,2023-10-24_11h19.33.120,vbt_B1_day2,2022.2.4,Win32,144.1337561,,,,,,,,,,,,,,,,,,,,,,,,,,,down,0,0.2186,,0.329629686,-0.23055557,1,0,0,0.3547,0,53,53,20,1,site,images/br_site.png,images/cb_site.png,0,,,,,,,,,,,,,,,,,,,,,,
,,,,,,00090,2023-10-24_11h19.33.120,vbt_B1_day2,2022.2.4,Win32,144.1337561,,,,,,,,,,,,,,,,,,,,,,,,,,,down,0,0.8759,,0.329629686,-0.23055557,1,0,0,0.3536,0,54,54,191,1,opheffen,images/br_opheffen.png,images/cb_opheffen.png,0,,,,,,,,,,,,,,,,,,,,,,
,,,,,,00090,2023-10-24_11h19.33.120,vbt_B1_day2,2022.2.4,Win32,144.1337561,,,,,,,,,,,,,,,,,,,,,,,,,,,down,0,0.1599,,0.329629686,-0.23055557,1,0,0,0.2989,0,55,55,91,1,gezond,images/br_gezond.png,images/cb_gezond.png,0,,,,,,,,,,,,,,,,,,,,,,
,,,,,,00090,2023-10-24_11h19.33.120,vbt_B1_day2,2022.2.4,Win32,144.1337561,,,,,,,,,,,,,,,,,,,,,,,,,,,down,0,3.8037,,0.329629686,-0.23055557,1,0,0,1.5969,0,56,56,96,1,slagen,images/br_slagen.png,images/cb_slagen.png,1,slagen,,,,,,,,,,,,,,,,,,,,,
,,,,,,00090,2023-10-24_11h19.33.120,vbt_B1_day2,2022.2.4,Win32,144.1337561,,,,,,,,,,,,,,,,,,,,,,,,,,,down,0,0.2585,,0.232407393,-0.267592607,1,0,0,0.3744,0,57,57,26,1,leuk,images/br_leuk.png,images/cb_leuk.png,0,,,,,,,,,,,,,,,,,,,,,,
,,,,,,00090,2023-10-24_11h19.33.120,vbt_B1_day2,2022.2.4,Win32,144.1337561,,,,,,,,,,,,,,,,,,,,,,,,,,,down,0,0.856,,0.232407393,-0.267592607,1,0,0,0.6463,0,58,58,82,1,muziek,images/br_muziek.png,images/cb_muziek.png,0,,,,,,,,,,,,,,,,,,,,,,
,,,,,,00090,2023-10-24_11h19.33.120,vbt_B1_day2,2022.2.4,Win32,144.1337561,,,,,,,,,,,,,,,,,,,,,,,,,,,down,0,0.5224,,0.232407393,-0.267592607,1,0,0,1.8749,0,59,59,13,1,kaal,images/br_kaal.png,images/cb_kaal.png,0,,,,,,,,,,,,,,,,,,,,,,
,,,,,,00090,2023-10-24_11h19.33.120,vbt_B1_day2,2022.2.4,Win32,144.1337561,,,,,,,,,,,,,,,,,,,,,,,,,,,down,0,0.1427,,0.232407393,-0.267592607,1,0,0,0.3612,0,60,60,9,1,hier,images/br_hier.png,images/cb_hier.png,0,,,,,,,,,,,,,,,,,,,,,,
,,,,,,00090,2023-10-24_11h19.33.120,vbt_B1_day2,2022.2.4,Win32,144.1337561,,,,,,,,,,,,,,,,,,,,,,,,,,,down,0,0.2585,,0.232407393,-0.267592607,1,0,0,0.3124,0,61,61,69,1,waken,images/br_waken.png,images/cb_waken.png,0,,,,,,,,,,,,,,,,,,,,,,
,,,,,,00090,2023-10-24_11h19.33.120,vbt_B1_day2,2022.2.4,Win32,144.1337561,,,,,,,,,,,,,,,,,,,,,,,,,,,down,0,0.2121,,0.232407393,-0.267592607,1,0,0,0.3268,0,62,62,117,1,kennis,images/br_kennis.png,images/cb_kennis.png,0,,,,,,,,,,,,,,,,,,,,,,
,,,,,,00090,2023-10-24_11h19.33.120,vbt_B1_day2,2022.2.4,Win32,144.1337561,,,,,,,,,,,,,,,,,,,,,,,,,,,down,0,0.4285,,0.232407393,-0.267592607,1,0,0,0.2985,0,63,63,32,1,palm,images/br_palm.png,images/cb_palm.png,0,,,,,,,,,,,,,,,,,,,,,,
,,,,,,00090,2023-10-24_11h19.33.120,vbt_B1_day2,2022.2.4,Win32,144.1337561,,,,,,,,,,,,,,,,,,,,,,,,,,,down,0,0.2293,,0.232407393,-0.267592607,1,0,0,0.388,0,64,64,175,1,heengaan,images/br_heengaan.png,images/cb_heengaan.png,0,,,,,,,,,,,,,,,,,,,,,,
,,,,,,00090,2023-10-24_11h19.33.120,vbt_B1_day2,2022.2.4,Win32,144.1337561,,,,,,,,,,,,,,,,,,,,,,,,,,,down,0,0.1828,,0.232407393,-0.267592607,1,0,0,0.298,0,65,65,72,1,strak,images/br_strak.png,images/cb_strak.png,0,,,,,,,,,,,,,,,,,,,,,,
,,,,,,00090,2023-10-24_11h19.33.120,vbt_B1_day2,2022.2.4,Win32,144.1337561,,,,,,,,,,,,,,,,,,,,,,,,,,,down,0,0.1462,,0.232407393,-0.267592607,1,0,0,0.2845,0,66,66,1,1,zaal,images/br_zaal.png,images/cb_zaal.png,0,,,,,,,,,,,,,,,,,,,,,,
,,,,,,00090,2023-10-24_11h19.33.120,vbt_B1_day2,2022.2.4,Win32,144.1337561,,,,,,,,,,,,,,,,,,,,,,,,,,,down,0,7.3193,,0.434259344,-0.367592635,1,0,0,1.4517,0,67,67,138,1,akkoord,images/br_akkoord.png,images/cb_akkoord.png,1,akkoord,,,,,,,,,,,,,,,,,,,,,
,,,,,,00090,2023-10-24_11h19.33.120,vbt_B1_day2,2022.2.4,Win32,144.1337561,,,,,,,,,,,,,,,,,,,,,,,,,,,down,0,0.1944,,0.434259344,-0.367592635,1,0,0,0.3541,0,68,68,4,1,moes,images/br_moes.png,images/cb_moes.png,0,,,,,,,,,,,,,,,,,,,,,,
,,,,,,00090,2023-10-24_11h19.33.120,vbt_B1_day2,2022.2.4,Win32,144.1337561,,,,,,,,,,,,,,,,,,,,,,,,,,,down,0,0.1066,,0.434259344,-0.367592635,1,0,0,0.0409,0,69,69,24,1,jurk,images/br_jurk.png,images/cb_jurk.png,0,,,,,,,,,,,,,,,,,,,,,,
,,,,,,00090,2023-10-24_11h19.33.120,vbt_B1_day2,2022.2.4,Win32,144.1337561,,,,,,,,,,,,,,,,,,,,,,,,,,,down,0,0.1362,,0.434259344,-0.367592635,1,0,0,0.2847,0,70,70,108,1,excuus,images/br_excuus.png,images/cb_excuus.png,0,,,,,,,,,,,,,,,,,,,,,,
,,,,,,00090,2023-10-24_11h19.33.120,vbt_B1_day2,2022.2.4,Win32,144.1337561,,,,,,,,,,,,,,,,,,,,,,,,,,,down,0,0.3204,,0.434259344,-0.367592635,1,0,0,0.3748,0,71,71,118,1,vinger,images/br_vinger.png,images/cb_vinger.png,0,,,,,,,,,,,,,,,,,,,,,,
,,,,,,00090,2023-10-24_11h19.33.120,vbt_B1_day2,2022.2.4,Win32,144.1337561,,,,,,,,,,,,,,,,,,,,,,,,,,,down,0,0.3025,,0.434259344,-0.367592635,1,0,0,0.6604,0,72,72,86,1,woning,images/br_woning.png,images/cb_woning.png,0,,,,,,,,,,,,,,,,,,,,,,
,,,,,,00090,2023-10-24_11h19.33.120,vbt_B1_day2,2022.2.4,Win32,144.1337561,,,,,,,,,,,,,,,,,,,,,,,,,,,down,0,0.3561,,0.434259344,-0.367592635,1,0,0,0.3261,0,73,73,36,1,vuur,images/br_vuur.png,images/cb_vuur.png,0,,,,,,,,,,,,,,,,,,,,,,
,,,,,,00090,2023-10-24_11h19.33.120,vbt_B1_day2,2022.2.4,Win32,144.1337561,,,,,,,,,,,,,,,,,,,,,,,,,,,down,0,0.2828,,0.434259344,-0.367592635,1,0,0,0.2846,0,74,74,37,1,mijn,images/br_mijn.png,images/cb_mijn.png,0,,,,,,,,,,,,,,,,,,,,,,
,,,,,,00090,2023-10-24_11h19.33.120,vbt_B1_day2,2022.2.4,Win32,144.1337561,,,,,,,,,,,,,,,,,,,,,,,,,,,down,0,0.2108,,0.434259344,-0.367592635,1,0,0,0.306,0,75,75,123,1,hiervan,images/br_hiervan.png,images/cb_hiervan.png,0,,,,,,,,,,,,,,,,,,,,,,
,,,,,,00090,2023-10-24_11h19.33.120,vbt_B1_day2,2022.2.4,Win32,144.1337561,,,,,,,,,,,,,,,,,,,,,,,,,,,down,0,0.1113,,0.434259344,-0.367592635,1,0,0,0.2707,0,76,76,189,1,aanraden,images/br_aanraden.png,images/cb_aanraden.png,0,,,,,,,,,,,,,,,,,,,,,,
,,,,,,00090,2023-10-24_11h19.33.120,vbt_B1_day2,2022.2.4,Win32,144.1337561,,,,,,,,,,,,,,,,,,,,,,,,,,,down,0,0.174,,0.434259344,-0.367592635,1,0,0,0.3691,0,77,77,158,1,innemen,images/br_innemen.png,images/cb_innemen.png,0,,,,,,,,,,,,,,,,,,,,,,
,,,,,,00090,2023-10-24_11h19.33.120,vbt_B1_day2,2022.2.4,Win32,144.1337561,,,,,,,,,,,,,,,,,,,,,,,,,,,down,0,0.1941,,0.434259344,-0.367592635,1,0,0,0.3339,0,78,78,162,1,uitdelen,images/br_uitdelen.png,images/cb_uitdelen.png,0,,,,,,,,,,,,,,,,,,,,,,
,,,,,,00090,2023-10-24_11h19.33.120,vbt_B1_day2,2022.2.4,Win32,144.1337561,,,,,,,,,,,,,,,,,,,,,,,,,,,down,0,0.0423,,0.434259344,-0.367592635,1,0,0,0.2643,0,79,79,8,1,knie,images/br_knie.png,images/cb_knie.png,0,,,,,,,,,,,,,,,,,,,,,,
,,,,,,00090,2023-10-24_11h19.33.120,vbt_B1_day2,2022.2.4,Win32,144.1337561,,,,,,,,,,,,,,,,,,,,,,,,,,,down,0,0.1965,,0.434259344,-0.367592635,1,0,0,0.3344,0,80,80,124,1,bloeien,images/br_bloeien.png,images/cb_bloeien.png,0,,,,,,,,,,,,,,,,,,,,,,
,,,,,,00090,2023-10-24_11h19.33.120,vbt_B1_day2,2022.2.4,Win32,144.1337561,,,,,,,,,,,,,,,,,,,,,,,,,,,down,0,0.384,,0.434259344,-0.367592635,1,0,0,0.3677,0,81,81,93,1,waarop,images/br_waarop.png,images/cb_waarop.png,0,,,,,,,,,,,,,,,,,,,,,,
,,,,,,00090,2023-10-24_11h19.33.120,vbt_B1_day2,2022.2.4,Win32,144.1337561,,,,,,,,,,,,,,,,,,,,,,,,,,,down,0,0.1407,,0.434259344,-0.367592635,1,0,0,0.3609,0,82,82,174,1,stemming,images/br_stemming.png,images/cb_stemming.png,0,,,,,,,,,,,,,,,,,,,,,,
,,,,,,00090,2023-10-24_11h19.33.120,vbt_B1_day2,2022.2.4,Win32,144.1337561,,,,,,,,,,,,,,,,,,,,,,,,,,,down,0,4.9749,,0.084259245,-0.27870369,1,0,0,2.0339,0,83,83,58,1,tekst,images/br_tekst.png,images/cb_tekst.png,1,tekst,,,,,,,,,,,,,,,,,,,,,
,,,,,,00090,2023-10-24_11h19.33.120,vbt_B1_day2,2022.2.4,Win32,144.1337561,,,,,,,,,,,,,,,,,,,,,,,,,,,down,0,0.0361,,0.084259245,-0.27870369,1,0,0,0.1319,0,84,84,23,1,zout,images/br_zout.png,images/cb_zout.png,0,,,,,,,,,,,,,,,,,,,,,,
,,,,,,00090,2023-10-24_11h19.33.120,vbt_B1_day2,2022.2.4,Win32,144.1337561,,,,,,,,,,,,,,,,,,,,,,,,,,,down,0,0.1756,,0.084259245,-0.27870369,1,0,0,0.292,0,85,85,75,1,snoep,images/br_snoep.png,images/cb_snoep.png,0,,,,,,,,,,,,,,,,,,,,,,
,,,,,,00090,2023-10-24_11h19.33.120,vbt_B1_day2,2022.2.4,Win32,144.1337561,,,,,,,,,,,,,,,,,,,,,,,,,,,down,0,0.2212,,0.084259245,-0.27870369,1,0,0,0.4101,0,86,86,196,1,nakijken,images/br_nakijken.png,images/cb_nakijken.png,0,,,,,,,,,,,,,,,,,,,,,,
,,,,,,00090,2023-10-24_11h19.33.120,vbt_B1_day2,2022.2.4,Win32,144.1337561,,,,,,,,,,,,,,,,,,,,,,,,,,,down,0,0.0074,,0.084259245,-0.27870369,1,0,0,0.0624,0,87,87,198,1,bedoelen,images/br_bedoelen.png,images/cb_bedoelen.png,0,,,,,,,,,,,,,,,,,,,,,,
,,,,,,00090,2023-10-24_11h19.33.120,vbt_B1_day2,2022.2.4,Win32,144.1337561,,,,,,,,,,,,,,,,,,,,,,,,,,,down,0,0.1391,,0.084259245,-0.27870369,1,0,0,0.2913,0,88,88,112,1,lukken,images/br_lukken.png,images/cb_lukken.png,0,,,,,,,,,,,,,,,,,,,,,,
,,,,,,00090,2023-10-24_11h19.33.120,vbt_B1_day2,2022.2.4,Win32,144.1337561,,,,,,,,,,,,,,,,,,,,,,,,,,,down,0,0.2938,,0.084259245,-0.27870369,1,0,0,0.2918,0,89,89,134,1,geliefd,images/br_geliefd.png,images/cb_geliefd.png,0,,,,,,,,,,,,,,,,,,,,,,
,,,,,,00090,2023-10-24_11h19.33.120,vbt_B1_day2,2022.2.4,Win32,144.1337561,,,,,,,,,,,,,,,,,,,,,,,,,,,down,0,0.1953,,0.084259245,-0.27870369,1,0,0,0.2917,0,90,90,167,1,eenhoorn,images/br_eenhoorn.png,images/cb_eenhoorn.png,0,,,,,,,,,,,,,,,,,,,,,,
,,,,,,00090,2023-10-24_11h19.33.120,vbt_B1_day2,2022.2.4,Win32,144.1337561,,,,,,,,,,,,,,,,,,,,,,,,,,,down,0,0.1066,,0.084259245,-0.27870369,1,0,0,0.2915,0,91,91,81,1,dubbel,images/br_dubbel.png,images/cb_dubbel.png,0,,,,,,,,,,,,,,,,,,,,,,
,,,,,,00090,2023-10-24_11h19.33.120,vbt_B1_day2,2022.2.4,Win32,144.1337561,,,,,,,,,,,,,,,,,,,,,,,,,,,down,0,0.3183,,0.084259245,-0.27870369,1,0,0,0.3264,0,92,92,33,1,vlek,images/br_vlek.png,images/cb_vlek.png,0,,,,,,,,,,,,,,,,,,,,,,
,,,,,,00090,2023-10-24_11h19.33.120,vbt_B1_day2,2022.2.4,Win32,144.1337561,,,,,,,,,,,,,,,,,,,,,,,,,,,down,0,0.1424,,0.084259245,-0.27870369,1,0,0,0.2915,0,93,93,22,1,stof,images/br_stof.png,images/cb_stof.png,0,,,,,,,,,,,,,,,,,,,,,,
,,,,,,00090,2023-10-24_11h19.33.120,vbt_B1_day2,2022.2.4,Win32,144.1337561,,,,,,,,,,,,,,,,,,,,,,,,,,,down,0,0.2638,,0.084259245,-0.27870369,1,0,0,0.6601,0,94,94,78,1,leren,images/br_leren.png,images/cb_leren.png,0,,,,,,,,,,,,,,,,,,,,,,
,,,,,,00090,2023-10-24_11h19.33.120,vbt_B1_day2,2022.2.4,Win32,144.1337561,,,,,,,,,,,,,,,,,,,,,,,,,,,down,0,0.2666,,0.084259245,-0.27870369,1,0,0,0.3261,0,95,95,157,1,uitlaat,images/br_uitlaat.png,images/cb_uitlaat.png,0,,,,,,,,,,,,,,,,,,,,,,
,,,,,,00090,2023-10-24_11h19.33.120,vbt_B1_day2,2022.2.4,Win32,144.1337561,,,,,,,,,,,,,,,,,,,,,,,,,,,down,0,0.1608,,0.084259245,-0.27870369,1,0,0,0.3607,0,96,96,195,1,middelen,images/br_middelen.png,images/cb_middelen.png,0,,,,,,,,,,,,,,,,,,,,,,
,,,,,,00090,2023-10-24_11h19.33.120,vbt_B1_day2,2022.2.4,Win32,144.1337561,,,,,,,,,,,,,,,,,,,,,,,,,,,down,0,15.9802,,0.216666681,-0.25462963,1,0,0,1.2562,0,97,97,176,1,techniek,images/br_techniek.png,images/cb_techniek.png,1,techniek,,,,,,,,,,,,,,,,,,,,,
,,,,,,00090,2023-10-24_11h19.33.120,vbt_B1_day2,2022.2.4,Win32,144.1337561,,,,,,,,,,,,,,,,,,,,,,,,,,,down,0,1.1968,,0.216666681,-0.25462963,1,0,0,0.354,0,98,98,153,1,vervoer,images/br_vervoer.png,images/cb_vervoer.png,0,,,,,,,,,,,,,,,,,,,,,,
,,,,,,00090,2023-10-24_11h19.33.120,vbt_B1_day2,2022.2.4,Win32,144.1337561,,,,,,,,,,,,,,,,,,,,,,,,,,,down,0,0.2805,,0.216666681,-0.25462963,1,0,0,0.5476,0,99,99,67,1,zwart,images/br_zwart.png,images/cb_zwart.png,0,,,,,,,,,,,,,,,,,,,,,,
,,,,,,00090,2023-10-24_11h19.33.120,vbt_B1_day2,2022.2.4,Win32,144.1337561,,,,,,,,,,,,,,,,,,,,,,,,,,,down,0,0.2568,,0.216666681,-0.25462963,1,0,0,0.3964,0,100,100,165,1,feestdag,images/br_feestdag.png,images/cb_feestdag.png,0,,,,,,,,,,,,,,,,,,,,,,
,,,,,,00090,2023-10-24_11h19.33.120,vbt_B1_day2,2022.2.4,Win32,144.1337561,,,,,,,,,,,,,,,,,,,,,,,,,,,down,0,0.2047,,0.216666681,-0.25462963,1,0,0,0.2011,0,101,101,166,1,strikken,images/br_strikken.png,images/cb_strikken.png,0,,,,,,,,,,,,,,,,,,,,,,
,,,,,,00090,2023-10-24_11h19.33.120,vbt_B1_day2,2022.2.4,Win32,144.1337561,,,,,,,,,,,,,,,,,,,,,,,,,,,down,0,0.1808,,0.216666681,-0.25462963,1,0,0,0.3128,0,102,102,64,1,wegen,images/br_wegen.png,images/cb_wegen.png,0,,,,,,,,,,,,,,,,,,,,,,
,,,,,,00090,2023-10-24_11h19.33.120,vbt_B1_day2,2022.2.4,Win32,144.1337561,,,,,,,,,,,,,,,,,,,,,,,,,,,down,0,0.2381,,0.216666681,-0.25462963,1,0,0,0.3196,0,103,103,115,1,kleren,images/br_kleren.png,images/cb_kleren.png,0,,,,,,,,,,,,,,,,,,,,,,
,,,,,,00090,2023-10-24_11h19.33.120,vbt_B1_day2,2022.2.4,Win32,144.1337561,,,,,,,,,,,,,,,,,,,,,,,,,,,down,0,0.2424,,0.216666681,-0.25462963,1,0,0,0.2986,0,104,104,122,1,waarvan,images/br_waarvan.png,images/cb_waarvan.png,0,,,,,,,,,,,,,,,,,,,,,,
,,,,,,00090,2023-10-24_11h19.33.120,vbt_B1_day2,2022.2.4,Win32,144.1337561,,,,,,,,,,,,,,,,,,,,,,,,,,,down,0,0.174,,0.216666681,-0.25462963,1,0,0,0.3256,0,105,105,95,1,vreten,images/br_vreten.png,images/cb_vreten.png,0,,,,,,,,,,,,,,,,,,,,,,
,,,,,,00090,2023-10-24_11h19.33.120,vbt_B1_day2,2022.2.4,Win32,144.1337561,,,,,,,,,,,,,,,,,,,,,,,,,,,down,0,0.6281,,0.216666681,-0.25462963,1,0,0,0.9588,0,106,106,170,1,schatten,images/br_schatten.png,images/cb_schatten.png,0,,,,,,,,,,,,,,,,,,,,,,
,,,,,,00090,2023-10-24_11h19.33.120,vbt_B1_day2,2022.2.4,Win32,144.1337561,,,,,,,,,,,,,,,,,,,,,,,,,,,down,0,0.2099,,0.216666681,-0.25462963,1,0,0,0.3131,0,107,107,83,1,mening,images/br_mening.png,images/cb_mening.png,0,,,,,,,,,,,,,,,,,,,,,,
,,,,,,00090,2023-10-24_11h19.33.120,vbt_B1_day2,2022.2.4,Win32,144.1337561,,,,,,,,,,,,,,,,,,,,,,,,,,,down,0,0.1,,0.216666681,-0.25462963,1,0,0,0.1874,0,108,108,7,1,geld,images/br_geld.png,images/cb_geld.png,0,,,,,,,,,,,,,,,,,,,,,,
,,,,,,00090,2023-10-24_11h19.33.120,vbt_B1_day2,2022.2.4,Win32,144.1337561,,,,,,,,,,,,,,,,,,,,,,,,,,,down,0,0.2501,,0.216666681,-0.25462963,1,0,0,0.3553,0,109,109,52,1,wagon,images/br_wagon.png,images/cb_wagon.png,0,,,,,,,,,,,,,,,,,,,,,,
,,,,,,00090,2023-10-24_11h19.33.120,vbt_B1_day2,2022.2.4,Win32,144.1337561,,,,,,,,,,,,,,,,,,,,,,,,,,,down,0,0.2111,,0.216666681,-0.25462963,1,0,0,0.3397,0,110,110,63,1,flirt,images/br_flirt.png,images/cb_flirt.png,0,,,,,,,,,,,,,,,,,,,,,,
,,,,,,00090,2023-10-24_11h19.33.120,vbt_B1_day2,2022.2.4,Win32,144.1337561,,,,,,,,,,,,,,,,,,,,,,,,,,,down,0,0.0625,,0.216666681,-0.25462963,1,0,0,0.2327,0,111,111,132,1,grappen,images/br_grappen.png,images/cb_grappen.png,0,,,,,,,,,,,,,,,,,,,,,,
,,,,,,00090,2023-10-24_11h19.33.120,vbt_B1_day2,2022.2.4,Win32,144.1337561,,,,,,,,,,,,,,,,,,,,,,,,,,,down,0,0.8091,,0.216666681,-0.25462963,1,0,0,0.4585,0,112,112,150,1,gegeven,images/br_gegeven.png,images/cb_gegeven.png,0,,,,,,,,,,,,,,,,,,,,,,
,,,,,,00090,2023-10-24_11h19.33.120,vbt_B1_day2,2022.2.4,Win32,144.1337561,,,,,,,,,,,,,,,,,,,,,,,,,,,down,0,0.2932,,0.216666681,-0.25462963,1,0,0,0.2773,0,113,113,152,1,afnemen,images/br_afnemen.png,images/cb_afnemen.png,0,,,,,,,,,,,,,,,,,,,,,,
,,,,,,00090,2023-10-24_11h19.33.120,vbt_B1_day2,2022.2.4,Win32,144.1337561,,,,,,,,,,,,,,,,,,,,,,,,,,,down,0,0.2231,,0.216666681,-0.25462963,1,0,0,0.1594,0,114,114,102,1,legaal,images/br_legaal.png,images/cb_legaal.png,0,,,,,,,,,,,,,,,,,,,,,,
,,,,,,00090,2023-10-24_11h19.33.120,vbt_B1_day2,2022.2.4,Win32,144.1337561,,,,,,,,,,,,,,,,,,,,,,,,,,,down,0,0.1942,,0.216666681,-0.25462963,1,0,0,0.3203,0,115,115,171,1,aarzelen,images/br_aarzelen.png,images/cb_aarzelen.png,0,,,,,,,,,,,,,,,,,,,,,,
,,,,,,00090,2023-10-24_11h19.33.120,vbt_B1_day2,2022.2.4,Win32,144.1337561,,,,,,,,,,,,,,,,,,,,,,,,,,,down,0,0.2388,,0.216666681,-0.25462963,1,0,0,0.3127,0,116,116,141,1,knielen,images/br_knielen.png,images/cb_knielen.png,0,,,,,,,,,,,,,,,,,,,,,,
,,,,,,00090,2023-10-24_11h19.33.120,vbt_B1_day2,2022.2.4,Win32,144.1337561,,,,,,,,,,,,,,,,,,,,,,,,,,,down,0,0.2029,,0.216666681,-0.25462963,1,0,0,0.2223,0,117,117,183,1,getuigen,images/br_getuigen.png,images/cb_getuigen.png,0,,,,,,,,,,,,,,,,,,,,,,
,,,,,,00090,2023-10-24_11h19.33.120,vbt_B1_day2,2022.2.4,Win32,144.1337561,,,,,,,,,,,,,,,,,,,,,,,,,,,down,0,0.2399,,0.216666681,-0.25462963,1,0,0,0.2779,0,118,118,168,1,bisschop,images/br_bisschop.png,images/cb_bisschop.png,0,,,,,,,,,,,,,,,,,,,,,,
,,,,,,00090,2023-10-24_11h19.33.120,vbt_B1_day2,2022.2.4,Win32,144.1337561,,,,,,,,,,,,,,,,,,,,,,,,,,,down,0,32.9112,,0.210185228,-0.256481524,1,0,0,3.701,0,119,119,136,1,waarbij,images/br_waarbij.png,images/cb_waarbij.png,1,waarbij,,,,,,,,,,,,,,,,,,,,,
,,,,,,00090,2023-10-24_11h19.33.120,vbt_B1_day2,2022.2.4,Win32,144.1337561,,,,,,,,,,,,,,,,,,,,,,,,,,,down,0,0.2244,,0.210185228,-0.256481524,1,0,0,1.3678,0,120,120,89,1,slapen,images/br_slapen.png,images/cb_slapen.png,0,,,,,,,,,,,,,,,,,,,,,,
,,,,,,00090,2023-10-24_11h19.33.120,vbt_B1_day2,2022.2.4,Win32,144.1337561,,,,,,,,,,,,,,,,,,,,,,,,,,,down,0,0.1982,,0.210185228,-0.256481524,1,0,0,0.3537,0,121,121,109,1,totaal,images/br_totaal.png,images/cb_totaal.png,0,,,,,,,,,,,,,,,,,,,,,,
,,,,,,00090,2023-10-24_11h19.33.120,vbt_B1_day2,2022.2.4,Win32,144.1337561,,,,,,,,,,,,,,,,,,,,,,,,,,,down,0,0.2803,,0.210185228,-0.256481524,1,0,0,0.3683,0,122,122,164,1,anarchie,images/br_anarchie.png,images/cb_anarchie.png,0,,,,,,,,,,,,,,,,,,,,,,
,,,,,,00090,2023-10-24_11h19.33.120,vbt_B1_day2,2022.2.4,Win32,144.1337561,,,,,,,,,,,,,,,,,,,,,,,,,,,down,0,0.1956,,0.210185228,-0.256481524,1,0,0,0.2987,0,123,123,143,1,hechten,images/br_hechten.png,images/cb_hechten.png,0,,,,,,,,,,,,,,,,,,,,,,
,,,,,,00090,2023-10-24_11h19.33.120,vbt_B1_day2,2022.2.4,Win32,144.1337561,,,,,,,,,,,,,,,,,,,,,,,,,,,down,0,0.3071,,0.210185228,-0.256481524,1,0,0,0.3188,0,124,124,159,1,sufferd,images/br_sufferd.png,images/cb_sufferd.png,0,,,,,,,,,,,,,,,,,,,,,,
,,,,,,00090,2023-10-24_11h19.33.120,vbt_B1_day2,2022.2.4,Win32,144.1337561,,,,,,,,,,,,,,,,,,,,,,,,,,,down,0,0.1969,,0.210185228,-0.256481524,1,0,0,0.3819,0,125,125,48,1,steel,images/br_steel.png,images/cb_steel.png,0,,,,,,,,,,,,,,,,,,,,,,
,,,,,,00090,2023-10-24_11h19.33.120,vbt_B1_day2,2022.2.4,Win32,144.1337561,,,,,,,,,,,,,,,,,,,,,,,,,,,down,0,0.14,,0.210185228,-0.256481524,1,0,0,0.2641,0,126,126,128,1,prikken,images/br_prikken.png,images/cb_prikken.png,0,,,,,,,,,,,,,,,,,,,,,,
,,,,,,00090,2023-10-24_11h19.33.120,vbt_B1_day2,2022.2.4,Win32,144.1337561,,,,,,,,,,,,,,,,,,,,,,,,,,,down,0,0.1966,,0.210185228,-0.256481524,1,0,0,0.3331,0,127,127,25,1,plek,images/br_plek.png,images/cb_plek.png,0,,,,,,,,,,,,,,,,,,,,,,
,,,,,,00090,2023-10-24_11h19.33.120,vbt_B1_day2,2022.2.4,Win32,144.1337561,,,,,,,,,,,,,,,,,,,,,,,,,,,down,0,0.0589,,0.210185228,-0.256481524,1,0,0,0.1797,0,128,128,46,1,jagen,images/br_jagen.png,images/cb_jagen.png,0,,,,,,,,,,,,,,,,,,,,,,
,,,,,,00090,2023-10-24_11h19.33.120,vbt_B1_day2,2022.2.4,Win32,144.1337561,,,,,,,,,,,,,,,,,,,,,,,,,,,down,0,0.0152,,0.210185228,-0.256481524,1,0,0,0.2782,0,129,129,160,1,daarheen,images/br_daarheen.png,images/cb_daarheen.png,0,,,,,,,,,,,,,,,,,,,,,,
,,,,,,00090,2023-10-24_11h19.33.120,vbt_B1_day2,2022.2.4,Win32,144.1337561,,,,,,,,,,,,,,,,,,,,,,,,,,,down,0,0.0864,,0.210185228,-0.256481524,1,0,0,0.1322,0,130,130,127,1,doodmoe,images/br_doodmoe.png,images/cb_doodmoe.png,0,,,,,,,,,,,,,,,,,,,,,,
,,,,,,00090,2023-10-24_11h19.33.120,vbt_B1_day2,2022.2.4,Win32,144.1337561,,,,,,,,,,,,,,,,,,,,,,,,,,,down,0,0.0426,,0.210185228,-0.256481524,1,0,0,0.2358,0,131,131,172,1,weigeren,images/br_weigeren.png,images/cb_weigeren.png,0,,,,,,,,,,,,,,,,,,,,,,
,,,,,,00090,2023-10-24_11h19.33.120,vbt_B1_day2,2022.2.4,Win32,144.1337561,,,,,,,,,,,,,,,,,,,,,,,,,,,down,0,0.2015,,0.210185228,-0.256481524,1,0,0,0.5491,0,132,132,111,1,ticket,images/br_ticket.png,images/cb_ticket.png,0,,,,,,,,,,,,,,,,,,,,,,
,,,,,,00090,2023-10-24_11h19.33.120,vbt_B1_day2,2022.2.4,Win32,144.1337561,,,,,,,,,,,,,,,,,,,,,,,,,,,down,0,0.2044,,0.210185228,-0.256481524,1,0,0,0.3333,0,133,133,126,1,kasteel,images/br_kasteel.png,images/cb_kasteel.png,0,,,,,,,,,,,,,,,,,,,,,,
,,,,,,00090,2023-10-24_11h19.33.120,vbt_B1_day2,2022.2.4,Win32,144.1337561,,,,,,,,,,,,,,,,,,,,,,,,,,,down,0,13.7303,,0.257407436,-0.262962977,1,0,0,3.1391,0,134,134,99,1,koffie,images/br_koffie.png,images/cb_koffie.png,1,koffie,,,,,,,,,,,,,,,,,,,,,
,,,,,,00090,2023-10-24_11h19.33.120,vbt_B1_day2,2022.2.4,Win32,144.1337561,,,,,,,,,,,,,,,,,,,,,,,,,,,down,0,0.1599,,0.257407436,-0.262962977,1,0,0,0.2853,0,135,135,90,1,geluid,images/br_geluid.png,images/cb_geluid.png,0,,,,,,,,,,,,,,,,,,,,,,
,,,,,,00090,2023-10-24_11h19.33.120,vbt_B1_day2,2022.2.4,Win32,144.1337561,,,,,,,,,,,,,,,,,,,,,,,,,,,down,0,0.2534,,0.257407436,-0.262962977,1,0,0,0.2498,0,136,136,35,1,lust,images/br_lust.png,images/cb_lust.png,0,,,,,,,,,,,,,,,,,,,,,,
,,,,,,00090,2023-10-24_11h19.33.120,vbt_B1_day2,2022.2.4,Win32,144.1337561,,,,,,,,,,,,,,,,,,,,,,,,,,,down,0,8.6902,,0.257407436,-0.262962977,1,0,0,3.3607,0,137,137,179,1,woestijn,images/br_woestijn.png,images/cb_woestijn.png,1,woestijn,,,,,,,,,,,,,,,,,,,,,
,,,,,,00090,2023-10-24_11h19.33.120,vbt_B1_day2,2022.2.4,Win32,144.1337561,,,,,,,,,,,,,,,,,,,,,,,,,,,down,0,0.2787,,0.257407436,-0.262962977,1,0,0,0.25,0,138,138,121,1,twijfel,images/br_twijfel.png,images/cb_twijfel.png,0,,,,,,,,,,,,,,,,,,,,,,
,,,,,,00090,2023-10-24_11h19.33.120,vbt_B1_day2,2022.2.4,Win32,144.1337561,,,,,,,,,,,,,,,,,,,,,,,,,,,down,0,0.1423,,0.257407436,-0.262962977,1,0,0,0.2503,0,139,139,3,1,mand,images/br_mand.png,images/cb_mand.png,0,,,,,,,,,,,,,,,,,,,,,,
,,,,,,00090,2023-10-24_11h19.33.120,vbt_B1_day2,2022.2.4,Win32,144.1337561,,,,,,,,,,,,,,,,,,,,,,,,,,,down,0,2.1946,,0.242592635,-0.273148148,1,0,0,1.2851,0,140,140,56,1,traag,images/br_traag.png,images/cb_traag.png,1,traag,,,,,,,,,,,,,,,,,,,,,
,,,,,,00090,2023-10-24_11h19.33.120,vbt_B1_day2,2022.2.4,Win32,144.1337561,,,,,,,,,,,,,,,,,,,,,,,,,,,down,0,0.1817,,0.242592635,-0.273148148,1,0,0,0.2567,0,141,141,187,1,opkijken,images/br_opkijken.png,images/cb_opkijken.png,0,,,,,,,,,,,,,,,,,,,,,,
,,,,,,00090,2023-10-24_11h19.33.120,vbt_B1_day2,2022.2.4,Win32,144.1337561,,,,,,,,,,,,,,,,,,,,,,,,,,,down,0,0.2367,,0.242592635,-0.273148148,1,0,0,0.1594,0,142,142,142,1,snuiven,images/br_snuiven.png,images/cb_snuiven.png,0,,,,,,,,,,,,,,,,,,,,,,
,,,,,,00090,2023-10-24_11h19.33.120,vbt_B1_day2,2022.2.4,Win32,144.1337561,,,,,,,,,,,,,,,,,,,,,,,,,,,down,0,0.3483,,0.242592635,-0.273148148,1,0,0,0.1171,0,143,143,28,1,stal,images/br_stal.png,images/cb_stal.png,0,,,,,,,,,,,,,,,,,,,,,,
,,,,,,00090,2023-10-24_11h19.33.120,vbt_B1_day2,2022.2.4,Win32,144.1337561,,,,,,,,,,,,,,,,,,,,,,,,,,,down,0,0.1893,,0.242592635,-0.273148148,1,0,0,0.2916,0,144,144,41,1,maken,images/br_maken.png,images/cb_maken.png,0,,,,,,,,,,,,,,,,,,,,,,
,,,,,,00090,2023-10-24_11h19.33.120,vbt_B1_day2,2022.2.4,Win32,144.1337561,,,,,,,,,,,,,,,,,,,,,,,,,,,down,0,0.1911,,0.242592635,-0.273148148,1,0,0,0.2846,0,145,145,84,1,lokken,images/br_lokken.png,images/cb_lokken.png,0,,,,,,,,,,,,,,,,,,,,,,
,,,,,,00090,2023-10-24_11h19.33.120,vbt_B1_day2,2022.2.4,Win32,144.1337561,,,,,,,,,,,,,,,,,,,,,,,,,,,down,0,0.1277,,0.242592635,-0.273148148,1,0,0,0.2087,0,146,146,74,1,graaf,images/br_graaf.png,images/cb_graaf.png,0,,,,,,,,,,,,,,,,,,,,,,
,,,,,,00090,2023-10-24_11h19.33.120,vbt_B1_day2,2022.2.4,Win32,144.1337561,,,,,,,,,,,,,,,,,,,,,,,,,,,down,0,0.057,,0.242592635,-0.273148148,1,0,0,0.2357,0,147,147,39,1,laag,images/br_laag.png,images/cb_laag.png,0,,,,,,,,,,,,,,,,,,,,,,
,,,,,,00090,2023-10-24_11h19.33.120,vbt_B1_day2,2022.2.4,Win32,144.1337561,,,,,,,,,,,,,,,,,,,,,,,,,,,down,0,0.4805,,0.242592635,-0.273148148,1,0,0,0.1531,0,148,148,30,1,uien,images/br_uien.png,images/cb_uien.png,0,,,,,,,,,,,,,,,,,,,,,,
,,,,,,00090,2023-10-24_11h19.33.120,vbt_B1_day2,2022.2.4,Win32,144.1337561,,,,,,,,,,,,,,,,,,,,,,,,,,,down,0,0.238,,0.242592635,-0.273148148,1,0,0,0.2849,0,149,149,2,1,jaar,images/br_jaar.png,images/cb_jaar.png,0,,,,,,,,,,,,,,,,,,,,,,
,,,,,,00090,2023-10-24_11h19.33.120,vbt_B1_day2,2022.2.4,Win32,144.1337561,,,,,,,,,,,,,,,,,,,,,,,,,,,down,0,0.0506,,0.242592635,-0.273148148,1,0,0,0.2497,0,150,150,173,1,apparaat,images/br_apparaat.png,images/cb_apparaat.png,0,,,,,,,,,,,,,,,,,,,,,,
,,,,,,00090,2023-10-24_11h19.33.120,vbt_B1_day2,2022.2.4,Win32,144.1337561,,,,,,,,,,,,,,,,,,,,,,,,,,,down,0,0.1895,,0.242592635,-0.273148148,1,0,0,0.2508,0,151,151,197,1,spanning,images/br_spanning.png,images/cb_spanning.png,0,,,,,,,,,,,,,,,,,,,,,,
,,,,,,00090,2023-10-24_11h19.33.120,vbt_B1_day2,2022.2.4,Win32,144.1337561,,,,,,,,,,,,,,,,,,,,,,,,,,,down,0,0.1421,,0.242592635,-0.273148148,1,0,0,0.271,0,152,152,88,1,boeien,images/br_boeien.png,images/cb_boeien.png,0,,,,,,,,,,,,,,,,,,,,,,
,,,,,,00090,2023-10-24_11h19.33.120,vbt_B1_day2,2022.2.4,Win32,144.1337561,,,,,,,,,,,,,,,,,,,,,,,,,,,down,0,0.0702,,0.242592635,-0.273148148,1,0,0,0.2429,0,153,153,34,1,vorm,images/br_vorm.png,images/cb_vorm.png,0,,,,,,,,,,,,,,,,,,,,,,
,,,,,,00090,2023-10-24_11h19.33.120,vbt_B1_day2,2022.2.4,Win32,144.1337561,,,,,,,,,,,,,,,,,,,,,,,,,,,down,0,0.0486,,0.242592635,-0.273148148,1,0,0,0.4026,0,154,154,87,1,toeval,images/br_toeval.png,images/cb_toeval.png,0,,,,,,,,,,,,,,,,,,,,,,
,,,,,,00090,2023-10-24_11h19.33.120,vbt_B1_day2,2022.2.4,Win32,144.1337561,,,,,,,,,,,,,,,,,,,,,,,,,,,down,0,0.0079,,0.242592635,-0.273148148,1,0,0,0.1878,0,155,155,14,1,rijp,images/br_rijp.png,images/cb_rijp.png,0,,,,,,,,,,,,,,,,,,,,,,
,,,,,,00090,2023-10-24_11h19.33.120,vbt_B1_day2,2022.2.4,Win32,144.1337561,,,,,,,,,,,,,,,,,,,,,,,,,,,down,0,0.2658,,0.242592635,-0.273148148,1,0,0,0.2708,0,156,156,85,1,heilig,images/br_heilig.png,images/cb_heilig.png,0,,,,,,,,,,,,,,,,,,,,,,
,,,,,,00090,2023-10-24_11h19.33.120,vbt_B1_day2,2022.2.4,Win32,144.1337561,,,,,,,,,,,,,,,,,,,,,,,,,,,down,0,0.313,,0.242592635,-0.273148148,1,0,0,0.1257,0,157,157,62,1,knaap,images/br_knaap.png,images/cb_knaap.png,0,,,,,,,,,,,,,,,,,,,,,,
,,,,,,00090,2023-10-24_11h19.33.120,vbt_B1_day2,2022.2.4,Win32,144.1337561,,,,,,,,,,,,,,,,,,,,,,,,,,,down,0,4.043,,0.242592635,-0.273148148,1,0,0,0.7916,0,158,158,98,1,kreeft,images/br_kreeft.png,images/cb_kreeft.png,1,kreeft,,,,,,,,,,,,,,,,,,,,,
,,,,,,00090,2023-10-24_11h19.33.120,vbt_B1_day2,2022.2.4,Win32,144.1337561,,,,,,,,,,,,,,,,,,,,,,,,,,,down,0,0.2643,,0.242592635,-0.273148148,1,0,0,0.3056,0,159,159,113,1,koppen,images/br_koppen.png,images/cb_koppen.png,0,,,,,,,,,,,,,,,,,,,,,,
,,,,,,00090,2023-10-24_11h19.33.120,vbt_B1_day2,2022.2.4,Win32,144.1337561,,,,,,,,,,,,,,,,,,,,,,,,,,,down,0,5.3674,,0.242592635,-0.273148148,1,0,0,0.3537,0,160,160,59,1,kring,images/br_kring.png,images/cb_kring.png,1,kring,,,,,,,,,,,,,,,,,,,,,
,,,,,,00090,2023-10-24_11h19.33.120,vbt_B1_day2,2022.2.4,Win32,144.1337561,,,,,,,,,,,,,,,,,,,,,,,,,,,down,0,0.2377,,0.242592635,-0.273148148,1,0,0,0.3411,0,161,161,65,1,parel,images/br_parel.png,images/cb_parel.png,0,,,,,,,,,,,,,,,,,,,,,,
,,,,,,00090,2023-10-24_11h19.33.120,vbt_B1_day2,2022.2.4,Win32,144.1337561,,,,,,,,,,,,,,,,,,,,,,,,,,,down,0,0.0769,,0.242592635,-0.273148148,1,0,0,0.1041,0,162,162,116,1,besmet,images/br_besmet.png,images/cb_besmet.png,0,,,,,,,,,,,,,,,,,,,,,,
,,,,,,00090,2023-10-24_11h19.33.120,vbt_B1_day2,2022.2.4,Win32,144.1337561,,,,,,,,,,,,,,,,,,,,,,,,,,,down,0,0.2388,,0.242592635,-0.273148148,1,0,0,0.3129,0,163,163,186,1,voorraad,images/br_voorraad.png,images/cb_voorraad.png,0,,,,,,,,,,,,,,,,,,,,,,
,,,,,,00090,2023-10-24_11h19.33.120,vbt_B1_day2,2022.2.4,Win32,144.1337561,,,,,,,,,,,,,,,,,,,,,,,,,,,down,0,0.0217,,0.242592635,-0.273148148,1,0,0,0.3129,0,164,164,53,1,baron,images/br_baron.png,images/cb_baron.png,0,,,,,,,,,,,,,,,,,,,,,,
,,,,,,00090,2023-10-24_11h19.33.120,vbt_B1_day2,2022.2.4,Win32,144.1337561,,,,,,,,,,,,,,,,,,,,,,,,,,,down,0,0.0777,,0.242592635,-0.273148148,1,0,0,0.2502,0,165,165,54,1,gebit,images/br_gebit.png,images/cb_gebit.png,0,,,,,,,,,,,,,,,,,,,,,,
,,,,,,00090,2023-10-24_11h19.33.120,vbt_B1_day2,2022.2.4,Win32,144.1337561,,,,,,,,,,,,,,,,,,,,,,,,,,,down,0,0.2446,,0.242592635,-0.273148148,1,0,0,0.5284,0,166,166,192,1,schaamte,images/br_schaamte.png,images/cb_schaamte.png,0,,,,,,,,,,,,,,,,,,,,,,
,,,,,,00090,2023-10-24_11h19.33.120,vbt_B1_day2,2022.2.4,Win32,144.1337561,,,,,,,,,,,,,,,,,,,,,,,,,,,down,0,0.1836,,0.242592635,-0.273148148,1,0,0,0.2853,0,167,167,94,1,oceaan,images/br_oceaan.png,images/cb_oceaan.png,0,,,,,,,,,,,,,,,,,,,,,,
,,,,,,00090,2023-10-24_11h19.33.120,vbt_B1_day2,2022.2.4,Win32,144.1337561,,,,,,,,,,,,,,,,,,,,,,,,,,,down,0,4.2653,,0.242592635,-0.273148148,1,0,0,0.4657,0,168,168,57,1,steek,images/br_steek.png,images/cb_steek.png,1,steek,,,,,,,,,,,,,,,,,,,,,
,,,,,,00090,2023-10-24_11h19.33.120,vbt_B1_day2,2022.2.4,Win32,144.1337561,,,,,,,,,,,,,,,,,,,,,,,,,,,down,0,0.1946,,0.242592635,-0.273148148,1,0,0,0.1882,0,169,169,29,1,baas,images/br_baas.png,images/cb_baas.png,0,,,,,,,,,,,,,,,,,,,,,,
,,,,,,00090,2023-10-24_11h19.33.120,vbt_B1_day2,2022.2.4,Win32,144.1337561,,,,,,,,,,,,,,,,,,,,,,,,,,,down,0,0.1626,,0.242592635,-0.273148148,1,0,0,0.215,0,170,170,61,1,groen,images/br_groen.png,images/cb_groen.png,0,,,,,,,,,,,,,,,,,,,,,,
,,,,,,00090,2023-10-24_11h19.33.120,vbt_B1_day2,2022.2.4,Win32,144.1337561,,,,,,,,,,,,,,,,,,,,,,,,,,,down,0,0.295,,0.242592635,-0.273148148,1,0,0,0.2636,0,171,171,70,1,ijdel,images/br_ijdel.png,images/cb_ijdel.png,0,,,,,,,,,,,,,,,,,,,,,,
,,,,,,00090,2023-10-24_11h19.33.120,vbt_B1_day2,2022.2.4,Win32,144.1337561,,,,,,,,,,,,,,,,,,,,,,,,,,,down,0,0.0436,,0.242592635,-0.273148148,1,0,0,0.2087,0,172,172,47,1,kabel,images/br_kabel.png,images/cb_kabel.png,0,,,,,,,,,,,,,,,,,,,,,,
,,,,,,00090,2023-10-24_11h19.33.120,vbt_B1_day2,2022.2.4,Win32,144.1337561,,,,,,,,,,,,,,,,,,,,,,,,,,,down,0,0.1888,,0.242592635,-0.273148148,1,0,0,0.3615,0,173,173,38,1,baai,images/br_baai.png,images/cb_baai.png,0,,,,,,,,,,,,,,,,,,,,,,
,,,,,,00090,2023-10-24_11h19.33.120,vbt_B1_day2,2022.2.4,Win32,144.1337561,,,,,,,,,,,,,,,,,,,,,,,,,,,down,0,0.4388,,0.242592635,-0.273148148,1,0,0,0.2503,0,174,174,104,1,zweven,images/br_zweven.png,images/cb_zweven.png,0,,,,,,,,,,,,,,,,,,,,,,
,,,,,,00090,2023-10-24_11h19.33.120,vbt_B1_day2,2022.2.4,Win32,144.1337561,,,,,,,,,,,,,,,,,,,,,,,,,,,down,0,27.1896,,0.101851852,-0.317592621,1,0,0,0.7498,0,175,175,178,1,huisdier,images/br_huisdier.png,images/cb_huisdier.png,1,huisdier,,,,,,,,,,,,,,,,,,,,,
,,,,,,00090,2023-10-24_11h19.33.120,vbt_B1_day2,2022.2.4,Win32,144.1337561,,,,,,,,,,,,,,,,,,,,,,,,,,,down,0,0.2448,,0.101851852,-0.317592621,1,0,0,0.3396,0,176,176,43,1,klauw,images/br_klauw.png,images/cb_klauw.png,0,,,,,,,,,,,,,,,,,,,,,,
,,,,,,00090,2023-10-24_11h19.33.120,vbt_B1_day2,2022.2.4,Win32,144.1337561,,,,,,,,,,,,,,,,,,,,,,,,,,,down,0,0.1259,,0.101851852,-0.317592621,1,0,0,0.2154,0,177,177,161,1,attentie,images/br_attentie.png,images/cb_attentie.png,0,,,,,,,,,,,,,,,,,,,,,,
,,,,,,00090,2023-10-24_11h19.33.120,vbt_B1_day2,2022.2.4,Win32,144.1337561,,,,,,,,,,,,,,,,,,,,,,,,,,,down,0,0.2584,,0.101851852,-0.317592621,1,0,0,0.2707,0,178,178,77,1,woede,images/br_woede.png,images/cb_woede.png,0,,,,,,,,,,,,,,,,,,,,,,
,,,,,,00090,2023-10-24_11h19.33.120,vbt_B1_day2,2022.2.4,Win32,144.1337561,,,,,,,,,,,,,,,,,,,,,,,,,,,down,0,0.1495,,0.101851852,-0.317592621,1,0,0,0.3127,0,179,179,106,1,zingen,images/br_zingen.png,images/cb_zingen.png,0,,,,,,,,,,,,,,,,,,,,,,
,,,,,,00090,2023-10-24_11h19.33.120,vbt_B1_day2,2022.2.4,Win32,144.1337561,,,,,,,,,,,,,,,,,,,,,,,,,,,down,0,0.0358,,0.101851852,-0.317592621,1,0,0,0.1521,0,180,180,49,1,laken,images/br_laken.png,images/cb_laken.png,0,,,,,,,,,,,,,,,,,,,,,,
,,,,,,00090,2023-10-24_11h19.33.120,vbt_B1_day2,2022.2.4,Win32,144.1337561,,,,,,,,,,,,,,,,,,,,,,,,,,,down,0,0.2581,,0.101851852,-0.317592621,1,0,0,0.2292,0,181,181,184,1,aandelen,images/br_aandelen.png,images/cb_aandelen.png,0,,,,,,,,,,,,,,,,,,,,,,
,,,,,,00090,2023-10-24_11h19.33.120,vbt_B1_day2,2022.2.4,Win32,144.1337561,,,,,,,,,,,,,,,,,,,,,,,,,,,down,0,0.0415,,0.101851852,-0.317592621,1,0,0,0.2289,0,182,182,110,1,zuster,images/br_zuster.png,images/cb_zuster.png,0,,,,,,,,,,,,,,,,,,,,,,
,,,,,,00090,2023-10-24_11h19.33.120,vbt_B1_day2,2022.2.4,Win32,144.1337561,,,,,,,,,,,,,,,,,,,,,,,,,,,down,0,0.5855,,0.101851852,-0.317592621,1,0,0,0.1522,0,183,183,80,1,kanjer,images/br_kanjer.png,images/cb_kanjer.png,0,,,,,,,,,,,,,,,,,,,,,,
,,,,,,00090,2023-10-24_11h19.33.120,vbt_B1_day2,2022.2.4,Win32,144.1337561,,,,,,,,,,,,,,,,,,,,,,,,,,,down,0,0.1897,,0.101851852,-0.317592621,1,0,0,0.2362,0,184,184,188,1,strekken,images/br_strekken.png,images/cb_strekken.png,0,,,,,,,,,,,,,,,,,,,,,,
,,,,,,00090,2023-10-24_11h19.33.120,vbt_B1_day2,2022.2.4,Win32,144.1337561,,,,,,,,,,,,,,,,,,,,,,,,,,,down,0,3.3207,,0.101851852,-0.317592621,1,0,0,0.2704,0,185,185,97,1,loyaal,images/br_loyaal.png,images/cb_loyaal.png,1,loyaal,,,,,,,,,,,,,,,,,,,,,
,,,,,,00090,2023-10-24_11h19.33.120,vbt_B1_day2,2022.2.4,Win32,144.1337561,,,,,,,,,,,,,,,,,,,,,,,,,,,down,0,0.2584,,0.101851852,-0.317592621,1,0,0,0.2988,0,186,186,68,1,schat,images/br_schat.png,images/cb_schat.png,0,,,,,,,,,,,,,,,,,,,,,,
,,,,,,00090,2023-10-24_11h19.33.120,vbt_B1_day2,2022.2.4,Win32,144.1337561,,,,,,,,,,,,,,,,,,,,,,,,,,,down,0,0.188,,0.101851852,-0.317592621,1,0,0,0.1459,0,187,187,190,1,goedkoop,images/br_goedkoop.png,images/cb_goedkoop.png,0,,,,,,,,,,,,,,,,,,,,,,
,,,,,,00090,2023-10-24_11h19.33.120,vbt_B1_day2,2022.2.4,Win32,144.1337561,,,,,,,,,,,,,,,,,,,,,,,,,,,down,0,0.1948,,0.101851852,-0.317592621,1,0,0,0.4167,0,188,188,12,1,kust,images/br_kust.png,images/cb_kust.png,0,,,,,,,,,,,,,,,,,,,,,,
,,,,,,00090,2023-10-24_11h19.33.120,vbt_B1_day2,2022.2.4,Win32,144.1337561,,,,,,,,,,,,,,,,,,,,,,,,,,,down,0,0.264,,0.101851852,-0.317592621,1,0,0,0.4299,0,189,189,154,1,aflopen,images/br_aflopen.png,images/cb_aflopen.png,0,,,,,,,,,,,,,,,,,,,,,,
,,,,,,00090,2023-10-24_11h19.33.120,vbt_B1_day2,2022.2.4,Win32,144.1337561,,,,,,,,,,,,,,,,,,,,,,,,,,,down,0,0.1946,,0.101851852,-0.317592621,1,0,0,0.2563,0,190,190,169,1,oprotten,images/br_oprotten.png,images/cb_oprotten.png,0,,,,,,,,,,,,,,,,,,,,,,
,,,,,,00090,2023-10-24_11h19.33.120,vbt_B1_day2,2022.2.4,Win32,144.1337561,,,,,,,,,,,,,,,,,,,,,,,,,,,down,0,0.2863,,0.101851852,-0.317592621,1,0,0,0.3057,0,191,191,60,1,jasje,images/br_jasje.png,images/cb_jasje.png,0,,,,,,,,,,,,,,,,,,,,,,
,,,,,,00090,2023-10-24_11h19.33.120,vbt_B1_day2,2022.2.4,Win32,144.1337561,,,,,,,,,,,,,,,,,,,,,,,,,,,down,0,0.0448,,0.101851852,-0.317592621,1,0,0,0.2573,0,192,192,15,1,soda,images/br_soda.png,images/cb_soda.png,0,,,,,,,,,,,,,,,,,,,,,,
,,,,,,00090,2023-10-24_11h19.33.120,vbt_B1_day2,2022.2.4,Win32,144.1337561,,,,,,,,,,,,,,,,,,,,,,,,,,,down,0,0.5155,,0.101851852,-0.317592621,1,0,0,0.3338,0,193,193,76,1,afval,images/br_afval.png,images/cb_afval.png,0,,,,,,,,,,,,,,,,,,,,,,
,,,,,,00090,2023-10-24_11h19.33.120,vbt_B1_day2,2022.2.4,Win32,144.1337561,,,,,,,,,,,,,,,,,,,,,,,,,,,down,0,6.6061,,0.101851852,-0.317592621,1,0,0,0.3612,0,194,194,19,1,geit,images/br_geit.png,images/cb_geit.png,1,geit,,,,,,,,,,,,,,,,,,,,,
,,,,,,00090,2023-10-24_11h19.33.120,vbt_B1_day2,2022.2.4,Win32,144.1337561,,,,,,,,,,,,,,,,,,,,,,,,,,,down,0,0.2026,,0.101851852,-0.317592621,1,0,0,0.2567,0,195,195,149,1,redding,images/br_redding.png,images/cb_redding.png,0,,,,,,,,,,,,,,,,,,,,,,
,,,,,,00090,2023-10-24_11h19.33.120,vbt_B1_day2,2022.2.4,Win32,144.1337561,,,,,,,,,,,,,,,,,,,,,,,,,,,down,0,5.0117,,0.101851852,-0.317592621,1,0,0,0.4652,0,196,196,139,1,stiekem,images/br_stiekem.png,images/cb_stiekem.png,1,stiekem,,,,,,,,,,,,,,,,,,,,,
,,,,,,00090,2023-10-24_11h19.33.120,vbt_B1_day2,2022.2.4,Win32,144.1337561,,,,,,,,,,,,,,,,,,,,,,,,,,,down,0,0.3976,,0.101851852,-0.317592621,1,0,0,0.4164,0,197,197,147,1,komisch,images/br_komisch.png,images/cb_komisch.png,0,,,,,,,,,,,,,,,,,,,,,,
,,,,,,00090,2023-10-24_11h19.33.120,vbt_B1_day2,2022.2.4,Win32,144.1337561,,,,,,,,,,,,,,,,,,,,,,,,,,,down,0,0.266,,0.101851852,-0.317592621,1,0,0,0.2777,0,198,198,181,1,toegeven,images/br_toegeven.png,images/cb_toegeven.png,0,,,,,,,,,,,,,,,,,,,,,,
,,,,,,00090,2023-10-24_11h19.33.120,vbt_B1_day2,2022.2.4,Win32,144.1337561,,,,,,,,,,,,,,,,,,,,,,,,,,,down,0,0.141,,0.101851852,-0.317592621,1,0,0,0.243,0,199,199,10,1,leek,images/br_leek.png,images/cb_leek.png,0,,,,,,,,,,,,,,,,,,,,,,
,,,,,,00090,2023-10-24_11h19.33.120,vbt_B1_day2,2022.2.4,Win32,144.1337561,,,,,,,,,,,,,,,,,,,,,,,,,,,,,,,,,,,,,,,,,,,,,,,0.101851852,-0.317592621,1,0,0,,,,,,,,,,,,,,,,
,,,,,,00090,2023-10-24_11h19.33.120,vbt_B1_day2,2022.2.4,Win32,144.1337561,,,,,,,,,,,,,,,,,,,,,,,,,,,,,,,,,,,,,,,,,,,,,,,,,,,,0.101851852,-0.317592621,1,0,0,,,,,,,,,,,
,,,,,,00090,2023-10-24_11h19.33.120,vbt_B1_day2,2022.2.4,Win32,144.1337561,,,,,,,,,,,,,,,,,,,,,,,,,,,,,,,,,,,,,,,,,,thema,images/br_thema.png,images/cb_thema.png,,thema,,,,,,,,,,,0.115740741,-0.202777792,1,0,0,thema,0,0,0,47,1
,,,,,,00090,2023-10-24_11h19.33.120,vbt_B1_day2,2022.2.4,Win32,144.1337561,,,,,,,,,,,,,,,,,,,,,,,,,,,,,,,,,,,,,,,,,,plannen,images/br_plannen.png,images/cb_plannen.png,,plannen,,,,,,,,,,,0.115740741,-0.202777792,1,0,0,plannen,0,1,1,55,1
,,,,,,00090,2023-10-24_11h19.33.120,vbt_B1_day2,2022.2.4,Win32,144.1337561,,,,,,,,,,,,,,,,,,,,,,,,,,,,,,,,,,,,,,,,,,kenzis,images/br_kenzis.png,images/cb_kenzis.png,,kenzis,,,,,,,,,,,0.115740741,-0.202777792,1,0,0,kenzis,0,2,2,30,1
,,,,,,00090,2023-10-24_11h19.33.120,vbt_B1_day2,2022.2.4,Win32,144.1337561,,,,,,,,,,,,,,,,,,,,,,,,,,,,,,,,,,,,,,,,,,remel,images/br_remel.png,images/cb_remel.png,,remel,,,,,,,,,,,0.115740741,-0.202777792,1,0,0,remel,0,3,3,25,1
,,,,,,00090,2023-10-24_11h19.33.120,vbt_B1_day2,2022.2.4,Win32,144.1337561,,,,,,,,,,,,,,,,,,,,,,,,,,,,,,,,,,,,,,,,,,heengeen,images/br_heengeen.png,images/cb_heengeen.png,,heengeen,,,,,,,,,,,0.115740741,-0.202777792,1,0,0,heengeen,0,4,4,38,1
,,,,,,00090,2023-10-24_11h19.33.120,vbt_B1_day2,2022.2.4,Win32,144.1337561,,,,,,,,,,,,,,,,,,,,,,,,,,,,,,,,,,,,,,,,,,joes,images/br_joes.png,images/cb_joes.png,,joes,,,,,,,,,,,0.115740741,-0.202777792,1,0,0,joes,0,5,5,20,1
,,,,,,00090,2023-10-24_11h19.33.120,vbt_B1_day2,2022.2.4,Win32,144.1337561,,,,,,,,,,,,,,,,,,,,,,,,,,,,,,,,,,,,,,,,,,stes,images/br_stes.png,images/cb_stes.png,,stes,,,,,,,,,,,0.115740741,-0.202777792,1,0,0,stes,0,6,6,21,1
,,,,,,00090,2023-10-24_11h19.33.120,vbt_B1_day2,2022.2.4,Win32,144.1337561,,,,,,,,,,,,,,,,,,,,,,,,,,,,,,,,,,,,,,,,,,moes,images/br_moes.png,images/cb_moes.png,,moes,,,,,,,,,,,0.115740741,-0.202777792,1,0,0,moes,0,7,7,0,1
,,,,,,00090,2023-10-24_11h19.33.120,vbt_B1_day2,2022.2.4,Win32,144.1337561,,,,,,,,,,,,,,,,,,,,,,,,,,,,,,,,,,,,,,,,,,ophuimen,images/br_ophuimen.png,images/cb_ophuimen.png,,ophuemen,,,,,,,,,,,0.115740741,-0.202777792,1,0,0,ophuemen,0,8,8,36,1
,,,,,,00090,2023-10-24_11h19.33.120,vbt_B1_day2,2022.2.4,Win32,144.1337561,,,,,,,,,,,,,,,,,,,,,,,,,,,,,,,,,,,,,,,,,,heilig,images/br_heilig.png,images/cb_heilig.png,,heilig,,,,,,,,,,,0.115740741,-0.202777792,1,0,0,heilig,0,9,9,9,1
,,,,,,00090,2023-10-24_11h19.33.120,vbt_B1_day2,2022.2.4,Win32,144.1337561,,,,,,,,,,,,,,,,,,,,,,,,,,,,,,,,,,,,,,,,,,wijve,images/br_wijve.png,images/cb_wijve.png,,wijve,,,,,,,,,,,0.115740741,-0.202777792,1,0,0,wijve,0,10,10,27,1
,,,,,,00090,2023-10-24_11h19.33.120,vbt_B1_day2,2022.2.4,Win32,144.1337561,,,,,,,,,,,,,,,,,,,,,,,,,,,,,,,,,,,,,,,,,,doodmoe,images/br_doodmoe.png,images/cb_doodmoe.png,,doodmoe,,,,,,,,,,,0.115740741,-0.202777792,1,0,0,doodmoe,0,11,11,15,1
,,,,,,00090,2023-10-24_11h19.33.120,vbt_B1_day2,2022.2.4,Win32,144.1337561,,,,,,,,,,,,,,,,,,,,,,,,,,,,,,,,,,,,,,,,,,tweeling,images/br_tweeling.png,images/cb_tweeling.png,,tweeling,,,,,,,,,,,0.115740741,-0.202777792,1,0,0,tweeling,0,12,12,58,1
,,,,,,00090,2023-10-24_11h19.33.120,vbt_B1_day2,2022.2.4,Win32,144.1337561,,,,,,,,,,,,,,,,,,,,,,,,,,,,,,,,,,,,,,,,,,negel,images/br_negel.png,images/cb_negel.png,,negel,,,,,,,,,,,0.115740741,-0.202777792,1,0,0,negel,0,13,13,24,1
,,,,,,00090,2023-10-24_11h19.33.120,vbt_B1_day2,2022.2.4,Win32,144.1337561,,,,,,,,,,,,,,,,,,,,,,,,,,,,,,,,,,,,,,,,,,flits,images/br_flits.png,images/cb_flits.png,,flits,,,,,,,,,,,0.115740741,-0.202777792,1,0,0,flits,0,14,14,4,1
,,,,,,00090,2023-10-24_11h19.33.120,vbt_B1_day2,2022.2.4,Win32,144.1337561,,,,,,,,,,,,,,,,,,,,,,,,,,,,,,,,,,,,,,,,,,bereuwen,images/br_bereuwen.png,images/cb_bereuwen.png,,bereuwen,,,,,,,,,,,0.115740741,-0.202777792,1,0,0,bereuwen,0,15,15,39,1
,,,,,,00090,2023-10-24_11h19.33.120,vbt_B1_day2,2022.2.4,Win32,144.1337561,,,,,,,,,,,,,,,,,,,,,,,,,,,,,,,,,,,,,,,,,,piste,images/br_piste.png,images/cb_piste.png,,piste,,,,,,,,,,,0.115740741,-0.202777792,1,0,0,piste,0,16,16,5,1
,,,,,,00090,2023-10-24_11h19.33.120,vbt_B1_day2,2022.2.4,Win32,144.1337561,,,,,,,,,,,,,,,,,,,,,,,,,,,,,,,,,,,,,,,,,,kijlen,images/br_kijlen.png,images/cb_kijlen.png,,kijlen,,,,,,,,,,,0.115740741,-0.202777792,1,0,0,kijlen,0,17,17,31,1
,,,,,,00090,2023-10-24_11h19.33.120,vbt_B1_day2,2022.2.4,Win32,144.1337561,,,,,,,,,,,,,,,,,,,,,,,,,,,,,,,,,,,,,,,,,,zomers,images/br_zomers.png,images/cb_zomers.png,,zomers,,,,,,,,,,,0.115740741,-0.202777792,1,0,0,zomers,0,18,18,48,1
,,,,,,00090,2023-10-24_11h19.33.120,vbt_B1_day2,2022.2.4,Win32,144.1337561,,,,,,,,,,,,,,,,,,,,,,,,,,,,,,,,,,,,,,,,,,goon,images/br_goon.png,images/cb_goon.png,,goon,,,,,,,,,,,0.115740741,-0.202777792,1,0,0,goon,0,19,19,23,1
,,,,,,00090,2023-10-24_11h19.33.120,vbt_B1_day2,2022.2.4,Win32,144.1337561,,,,,,,,,,,,,,,,,,,,,,,,,,,,,,,,,,,,,,,,,,zegel,images/br_zegel.png,images/cb_zegel.png,,zegel,,,,,,,,,,,0.115740741,-0.202777792,1,0,0,zegel,0,20,20,46,1
,,,,,,00090,2023-10-24_11h19.33.120,vbt_B1_day2,2022.2.4,Win32,144.1337561,,,,,,,,,,,,,,,,,,,,,,,,,,,,,,,,,,,,,,,,,,lurgen,images/br_lurgen.png,images/cb_lurgen.png,,lurgen,,,,,,,,,,,0.115740741,-0.202777792,1,0,0,lurgen,0,21,21,29,1
,,,,,,00090,2023-10-24_11h19.33.120,vbt_B1_day2,2022.2.4,Win32,144.1337561,,,,,,,,,,,,,,,,,,,,,,,,,,,,,,,,,,,,,,,,,,eenhoorn,images/br_eenhoorn.png,images/cb_eenhoorn.png,,eenhoorn,,,,,,,,,,,0.115740741,-0.202777792,1,0,0,eenhoorn,0,22,22,19,1
,,,,,,00090,2023-10-24_11h19.33.120,vbt_B1_day2,2022.2.4,Win32,144.1337561,,,,,,,,,,,,,,,,,,,,,,,,,,,,,,,,,,,,,,,,,,blad,images/br_blad.png,images/cb_blad.png,,blad,,,,,,,,,,,0.115740741,-0.202777792,1,0,0,blad,0,23,23,1,1
,,,,,,00090,2023-10-24_11h19.33.120,vbt_B1_day2,2022.2.4,Win32,144.1337561,,,,,,,,,,,,,,,,,,,,,,,,,,,,,,,,,,,,,,,,,,woning,images/br_woning.png,images/cb_woning.png,,woning,,,,,,,,,,,0.115740741,-0.202777792,1,0,0,woning,0,24,24,10,1
,,,,,,00090,2023-10-24_11h19.33.120,vbt_B1_day2,2022.2.4,Win32,144.1337561,,,,,,,,,,,,,,,,,,,,,,,,,,,,,,,,,,,,,,,,,,bloeien,images/br_bloeien.png,images/cb_bloeien.png,,bloeien,,,,,,,,,,,0.115740741,-0.202777792,1,0,0,bloeien,0,25,25,12,1
,,,,,,00090,2023-10-24_11h19.33.120,vbt_B1_day2,2022.2.4,Win32,144.1337561,,,,,,,,,,,,,,,,,,,,,,,,,,,,,,,,,,,,,,,,,,jagen,images/br_jagen.png,images/cb_jagen.png,,jagen,,,,,,,,,,,0.115740741,-0.202777792,1,0,0,jagen,0,26,26,6,1
,,,,,,00090,2023-10-24_11h19.33.120,vbt_B1_day2,2022.2.4,Win32,144.1337561,,,,,,,,,,,,,,,,,,,,,,,,,,,,,,,,,,,,,,,,,,lokken,images/br_lokken.png,images/cb_lokken.png,,lokken,,,,,,,,,,,0.115740741,-0.202777792,1,0,0,lokken,0,27,27,8,1
,,,,,,00090,2023-10-24_11h19.33.120,vbt_B1_day2,2022.2.4,Win32,144.1337561,,,,,,,,,,,,,,,,,,,,,,,,,,,,,,,,,,,,,,,,,,jong,images/br_jong.png,images/cb_jong.png,,jong,,,,,,,,,,,0.115740741,-0.202777792,1,0,0,jong,0,28,28,43,1
,,,,,,00090,2023-10-24_11h19.33.120,vbt_B1_day2,2022.2.4,Win32,144.1337561,,,,,,,,,,,,,,,,,,,,,,,,,,,,,,,,,,,,,,,,,,prekken,images/br_prekken.png,images/cb_prekken.png,,prekken,,,,,,,,,,,0.115740741,-0.202777792,1,0,0,prekken,0,29,29,34,1
,,,,,,00090,2023-10-24_11h19.33.120,vbt_B1_day2,2022.2.4,Win32,144.1337561,,,,,,,,,,,,,,,,,,,,,,,,,,,,,,,,,,,,,,,,,,badon,images/br_badon.png,images/cb_badon.png,,badon,,,,,,,,,,,0.115740741,-0.202777792,1,0,0,badon,0,30,30,26,1
,,,,,,00090,2023-10-24_11h19.33.120,vbt_B1_day2,2022.2.4,Win32,144.1337561,,,,,,,,,,,,,,,,,,,,,,,,,,,,,,,,,,,,,,,,,,zwager,images/br_zwager.png,images/cb_zwager.png,,zwager,,,,,,,,,,,0.115740741,-0.202777792,1,0,0,zwager,0,31,31,49,1
,,,,,,00090,2023-10-24_11h19.33.120,vbt_B1_day2,2022.2.4,Win32,144.1337561,,,,,,,,,,,,,,,,,,,,,,,,,,,,,,,,,,,,,,,,,,tand,images/br_tand.png,images/cb_tand.png,,tand,,,,,,,,,,,0.115740741,-0.202777792,1,0,0,tand,0,32,32,42,1
,,,,,,00090,2023-10-24_11h19.33.120,vbt_B1_day2,2022.2.4,Win32,144.1337561,,,,,,,,,,,,,,,,,,,,,,,,,,,,,,,,,,,,,,,,,,feestdag,images/br_feestdag.png,images/cb_feestdag.png,,foostdag,,,,,,,,,,,0.115740741,-0.202777792,1,0,0,foostdag,0,33,33,17,1
,,,,,,00090,2023-10-24_11h19.33.120,vbt_B1_day2,2022.2.4,Win32,144.1337561,,,,,,,,,,,,,,,,,,,,,,,,,,,,,,,,,,,,,,,,,,kabel,images/br_kabel.png,images/cb_kabel.png,,kabel,,,,,,,,,,,0.115740741,-0.202777792,1,0,0,kabel,0,34,34,7,1
,,,,,,00090,2023-10-24_11h19.33.120,vbt_B1_day2,2022.2.4,Win32,144.1337561,,,,,,,,,,,,,,,,,,,,,,,,,,,,,,,,,,,,,,,,,,trots,images/br_trots.png,images/cb_trots.png,,trots,,,,,,,,,,,0.115740741,-0.202777792,1,0,0,trots,0,35,35,44,1
,,,,,,00090,2023-10-24_11h19.33.120,vbt_B1_day2,2022.2.4,Win32,144.1337561,,,,,,,,,,,,,,,,,,,,,,,,,,,,,,,,,,,,,,,,,,geld,images/br_geld.png,images/cb_geld.png,,geld,,,,,,,,,,,0.115740741,-0.202777792,1,0,0,geld,0,36,36,3,1
,,,,,,00090,2023-10-24_11h19.33.120,vbt_B1_day2,2022.2.4,Win32,144.1337561,,,,,,,,,,,,,,,,,,,,,,,,,,,,,,,,,,,,,,,,,,aanzien,images/br_aanzien.png,images/cb_aanzien.png,,aanzien,,,,,,,,,,,0.115740741,-0.202777792,1,0,0,aanzien,0,37,37,13,1
,,,,,,00090,2023-10-24_11h19.33.120,vbt_B1_day2,2022.2.4,Win32,144.1337561,,,,,,,,,,,,,,,,,,,,,,,,,,,,,,,,,,,,,,,,,,agressie,images/br_agressie.png,images/cb_agressie.png,,agressie,,,,,,,,,,,0.115740741,-0.202777792,1,0,0,agressie,0,38,38,59,1
,,,,,,00090,2023-10-24_11h19.33.120,vbt_B1_day2,2022.2.4,Win32,144.1337561,,,,,,,,,,,,,,,,,,,,,,,,,,,,,,,,,,,,,,,,,,toeval,images/br_toeval.png,images/cb_toeval.png,,toeval,,,,,,,,,,,0.115740741,-0.202777792,1,0,0,toeval,0,39,39,11,1
,,,,,,00090,2023-10-24_11h19.33.120,vbt_B1_day2,2022.2.4,Win32,144.1337561,,,,,,,,,,,,,,,,,,,,,,,,,,,,,,,,,,,,,,,,,,lijnen,images/br_lijnen.png,images/cb_lijnen.png,,lijnen,,,,,,,,,,,0.115740741,-0.202777792,1,0,0,lijnen,0,40,40,51,1
,,,,,,00090,2023-10-24_11h19.33.120,vbt_B1_day2,2022.2.4,Win32,144.1337561,,,,,,,,,,,,,,,,,,,,,,,,,,,,,,,,,,,,,,,,,,sjijfel,images/br_sjijfel.png,images/cb_sjijfel.png,,sjijfel,,,,,,,,,,,0.115740741,-0.202777792,1,0,0,sjijfel,0,41,41,33,1
,,,,,,00090,2023-10-24_11h19.33.120,vbt_B1_day2,2022.2.4,Win32,144.1337561,,,,,,,,,,,,,,,,,,,,,,,,,,,,,,,,,,,,,,,,,,diep,images/br_diep.png,images/cb_diep.png,,diep,,,,,,,,,,,0.115740741,-0.202777792,1,0,0,diep,0,42,42,2,1
,,,,,,00090,2023-10-24_11h19.33.120,vbt_B1_day2,2022.2.4,Win32,144.1337561,,,,,,,,,,,,,,,,,,,,,,,,,,,,,,,,,,,,,,,,,,aanvraag,images/br_aanvraag.png,images/cb_aanvraag.png,,aanvraag,,,,,,,,,,,0.115740741,-0.202777792,1,0,0,aanvraag,0,43,43,57,1
,,,,,,00090,2023-10-24_11h19.33.120,vbt_B1_day2,2022.2.4,Win32,144.1337561,,,,,,,,,,,,,,,,,,,,,,,,,,,,,,,,,,,,,,,,,,systeem,images/br_systeem.png,images/cb_systeem.png,,systeem,,,,,,,,,,,0.115740741,-0.202777792,1,0,0,systeem,0,44,44,54,1
,,,,,,00090,2023-10-24_11h19.33.120,vbt_B1_day2,2022.2.4,Win32,144.1337561,,,,,,,,,,,,,,,,,,,,,,,,,,,,,,,,,,,,,,,,,,ningen,images/br_ningen.png,images/cb_ningen.png,,ningen,,,,,,,,,,,0.115740741,-0.202777792,1,0,0,ningen,0,45,45,28,1
,,,,,,00090,2023-10-24_11h19.33.120,vbt_B1_day2,2022.2.4,Win32,144.1337561,,,,,,,,,,,,,,,,,,,,,,,,,,,,,,,,,,,,,,,,,,clan,images/br_clan.png,images/cb_clan.png,,clan,,,,,,,,,,,0.115740741,-0.202777792,1,0,0,clan,0,46,46,40,1
,,,,,,00090,2023-10-24_11h19.33.120,vbt_B1_day2,2022.2.4,Win32,144.1337561,,,,,,,,,,,,,,,,,,,,,,,,,,,,,,,,,,,,,,,,,,sora,images/br_sora.png,images/cb_sora.png,,sora,,,,,,,,,,,0.115740741,-0.202777792,1,0,0,sora,0,47,47,22,1
,,,,,,00090,2023-10-24_11h19.33.120,vbt_B1_day2,2022.2.4,Win32,144.1337561,,,,,,,,,,,,,,,,,,,,,,,,,,,,,,,,,,,,,,,,,,welzijn,images/br_welzijn.png,images/cb_welzijn.png,,welzijn,,,,,,,,,,,0.115740741,-0.202777792,1,0,0,welzijn,0,48,48,52,1
,,,,,,00090,2023-10-24_11h19.33.120,vbt_B1_day2,2022.2.4,Win32,144.1337561,,,,,,,,,,,,,,,,,,,,,,,,,,,,,,,,,,,,,,,,,,inzicht,images/br_inzicht.png,images/cb_inzicht.png,,inzicht,,,,,,,,,,,0.115740741,-0.202777792,1,0,0,inzicht,0,49,49,53,1
,,,,,,00090,2023-10-24_11h19.33.120,vbt_B1_day2,2022.2.4,Win32,144.1337561,,,,,,,,,,,,,,,,,,,,,,,,,,,,,,,,,,,,,,,,,,strikken,images/br_strikken.png,images/cb_strikken.png,,strikken,,,,,,,,,,,0.115740741,-0.202777792,1,0,0,strikken,0,50,50,18,1
,,,,,,00090,2023-10-24_11h19.33.120,vbt_B1_day2,2022.2.4,Win32,144.1337561,,,,,,,,,,,,,,,,,,,,,,,,,,,,,,,,,,,,,,,,,,breuk,images/br_breuk.png,images/cb_breuk.png,,breuk,,,,,,,,,,,0.115740741,-0.202777792,1,0,0,breuk,0,51,51,45,1
,,,,,,00090,2023-10-24_11h19.33.120,vbt_B1_day2,2022.2.4,Win32,144.1337561,,,,,,,,,,,,,,,,,,,,,,,,,,,,,,,,,,,,,,,,,,anarchie,images/br_anarchie.png,images/cb_anarchie.png,,anarchie,,,,,,,,,,,0.115740741,-0.202777792,1,0,0,anarchie,0,52,52,16,1
,,,,,,00090,2023-10-24_11h19.33.120,vbt_B1_day2,2022.2.4,Win32,144.1337561,,,,,,,,,,,,,,,,,,,,,,,,,,,,,,,,,,,,,,,,,,krimmen,images/br_krimmen.png,images/cb_krimmen.png,,kremmen,,,,,,,,,,,0.115740741,-0.202777792,1,0,0,kremmen,0,53,53,35,1
,,,,,,00090,2023-10-24_11h19.33.120,vbt_B1_day2,2022.2.4,Win32,144.1337561,,,,,,,,,,,,,,,,,,,,,,,,,,,,,,,,,,,,,,,,,,sifferd,images/br_sifferd.png,images/cb_sifferd.png,,sifferd,,,,,,,,,,,0.115740741,-0.202777792,1,0,0,sifferd,0,54,54,32,1
,,,,,,00090,2023-10-24_11h19.33.120,vbt_B1_day2,2022.2.4,Win32,144.1337561,,,,,,,,,,,,,,,,,,,,,,,,,,,,,,,,,,,,,,,,,,dode,images/br_dode.png,images/cb_dode.png,,dode,,,,,,,,,,,0.115740741,-0.202777792,1,0,0,dode,0,55,55,41,1
,,,,,,00090,2023-10-24_11h19.33.120,vbt_B1_day2,2022.2.4,Win32,144.1337561,,,,,,,,,,,,,,,,,,,,,,,,,,,,,,,,,,,,,,,,,,koorts,images/br_koorts.png,images/cb_koorts.png,,koorts,,,,,,,,,,,0.115740741,-0.202777792,1,0,0,koorts,0,56,56,50,1
,,,,,,00090,2023-10-24_11h19.33.120,vbt_B1_day2,2022.2.4,Win32,144.1337561,,,,,,,,,,,,,,,,,,,,,,,,,,,,,,,,,,,,,,,,,,opdatten,images/br_opdatten.png,images/cb_opdatten.png,,opdatten,,,,,,,,,,,0.115740741,-0.202777792,1,0,0,opdatten,0,57,57,37,1
,,,,,,00090,2023-10-24_11h19.33.120,vbt_B1_day2,2022.2.4,Win32,144.1337561,,,,,,,,,,,,,,,,,,,,,,,,,,,,,,,,,,,,,,,,,,kasteel,images/br_kasteel.png,images/cb_kasteel.png,,kasteel,,,,,,,,,,,0.115740741,-0.202777792,1,0,0,kasteel,0,58,58,14,1
,,,,,,00090,2023-10-24_11h19.33.120,vbt_B1_day2,2022.2.4,Win32,144.1337561,,,,,,,,,,,,,,,,,,,,,,,,,,,,,,,,,,,,,,,,,,manieren,images/br_manieren.png,images/cb_manieren.png,,manieren,,,,,,,,,,,0.115740741,-0.202777792,1,0,0,manieren,0,59,59,56,1
,,,,,,00090,2023-10-24_11h19.33.120,vbt_B1_day2,2022.2.4,Win32,144.1337561,,,,,,,,,,,,,,,,,,,,,,,,,,,,,,,,,,,,,,,,,,,,,,,,,,,,,,,,,,,,,,,,,,,
