welcome_mouse.x,welcome_mouse.y,welcome_mouse.leftButton,welcome_mouse.midButton,welcome_mouse.rightButton,welcome_mouse.time,"ID",date,expName,psychopyVersion,OS,frameRate,refresh_mouse.x,refresh_mouse.y,refresh_mouse.leftButton,refresh_mouse.midButton,refresh_mouse.rightButton,refresh_mouse.time,braille_mouse.x,braille_mouse.y,braille_mouse.leftButton,braille_mouse.midButton,braille_mouse.rightButton,braille_mouse.time,trials.thisRepN,trials.thisTrialN,trials.thisN,trials.thisIndex,trials.ran,nlLet,brLet,cbLet,trainInstr_mouse.x,trainInstr_mouse.y,trainInstr_mouse.leftButton,trainInstr_mouse.midButton,trainInstr_mouse.rightButton,trainInstr_mouse.time,translation_key.keys,translation_key.corr,translation_key.rt,word_rsp.text,word_mouse.x,word_mouse.y,word_mouse.leftButton,word_mouse.midButton,word_mouse.rightButton,word_mouse.time,train_loop.thisRepN,train_loop.thisTrialN,train_loop.thisN,train_loop.thisIndex,train_loop.ran,nlWrd,brWrd,cbWrd,test,testResp,mouse.x,mouse.y,mouse.leftButton,mouse.midButton,mouse.rightButton,testInstr_mouse.x,testInstr_mouse.y,testInstr_mouse.leftButton,testInstr_mouse.midButton,testInstr_mouse.rightButton,test_mouse.x,test_mouse.y,test_mouse.leftButton,test_mouse.midButton,test_mouse.rightButton,test_response.text,test_loop.thisRepN,test_loop.thisTrialN,test_loop.thisN,test_loop.thisIndex,test_loop.ran
-0.000925912,-0.169444473,1,0,0,8.8148,,2023-10-24_19h04.43.473,vbt_B1_day2,2022.2.4,Win32,60.04202942,,,,,,,,,,,,,,,,,,,,,,,,,,,,,,,,,,,,,,,,,,,,,,,,,,,,,,,,,,,,,,,,,,,
,,,,,,,2023-10-24_19h04.43.473,vbt_B1_day2,2022.2.4,Win32,60.04202942,0.061111097,-0.186111097,1,0,0,7.1755,,,,,,,,,,,,,,,,,,,,,,,,,,,,,,,,,,,,,,,,,,,,,,,,,,,,,,,,,,,,,
,,,,,,,2023-10-24_19h04.43.473,vbt_B1_day2,2022.2.4,Win32,60.04202942,,,,,,,-0.045370384,-0.167592578,1,0,0,3.5001,0,0,0,8,1,i,images/br_i.png,images/cb_i.png,,,,,,,,,,,,,,,,,,,,,,,,,,,,,,,,,,,,,,,,,,,,,,,
,,,,,,,2023-10-24_19h04.43.473,vbt_B1_day2,2022.2.4,Win32,60.04202942,,,,,,,-0.045370384,-0.167592578,1,0,0,12.4666,0,1,1,16,1,q,images/br_q.png,images/cb_q.png,,,,,,,,,,,,,,,,,,,,,,,,,,,,,,,,,,,,,,,,,,,,,,,
,,,,,,,2023-10-24_19h04.43.473,vbt_B1_day2,2022.2.4,Win32,60.04202942,,,,,,,-0.045370384,-0.167592578,1,0,0,5.9058,0,2,2,1,1,b,images/br_b.png,images/cb_b.png,,,,,,,,,,,,,,,,,,,,,,,,,,,,,,,,,,,,,,,,,,,,,,,
,,,,,,,2023-10-24_19h04.43.473,vbt_B1_day2,2022.2.4,Win32,60.04202942,,,,,,,-0.045370384,-0.167592578,1,0,0,0.1667,0,3,3,11,1,l,images/br_l.png,images/cb_l.png,,,,,,,,,,,,,,,,,,,,,,,,,,,,,,,,,,,,,,,,,,,,,,,
,,,,,,,2023-10-24_19h04.43.473,vbt_B1_day2,2022.2.4,Win32,60.04202942,,,,,,,-0.045370384,-0.167592578,1,0,0,6.9834,0,4,4,9,1,j,images/br_j.png,images/cb_j.png,,,,,,,,,,,,,,,,,,,,,,,,,,,,,,,,,,,,,,,,,,,,,,,
,,,,,,,2023-10-24_19h04.43.473,vbt_B1_day2,2022.2.4,Win32,60.04202942,,,,,,,-0.002777735,-0.138888889,1,0,0,0.4838,0,5,5,18,1,s,images/br_s.png,images/cb_s.png,,,,,,,,,,,,,,,,,,,,,,,,,,,,,,,,,,,,,,,,,,,,,,,
,,,,,,,2023-10-24_19h04.43.473,vbt_B1_day2,2022.2.4,Win32,60.04202942,,,,,,,-0.018518519,-0.138888889,1,0,0,4.2473,0,6,6,21,1,v,images/br_v.png,images/cb_v.png,,,,,,,,,,,,,,,,,,,,,,,,,,,,,,,,,,,,,,,,,,,,,,,
,,,,,,,2023-10-24_19h04.43.473,vbt_B1_day2,2022.2.4,Win32,60.04202942,,,,,,,-0.018518519,-0.138888889,1,0,0,6.7535,0,7,7,5,1,f,images/br_f.png,images/cb_f.png,,,,,,,,,,,,,,,,,,,,,,,,,,,,,,,,,,,,,,,,,,,,,,,
,,,,,,,2023-10-24_19h04.43.473,vbt_B1_day2,2022.2.4,Win32,60.04202942,,,,,,,-0.018518519,-0.138888889,1,0,0,0.2087,0,8,8,0,1,a,images/br_a.png,images/cb_a.png,,,,,,,,,,,,,,,,,,,,,,,,,,,,,,,,,,,,,,,,,,,,,,,
,,,,,,,2023-10-24_19h04.43.473,vbt_B1_day2,2022.2.4,Win32,60.04202942,,,,,,,-0.018518519,-0.138888889,1,0,0,0.2409,0,9,9,13,1,n,images/br_n.png,images/cb_n.png,,,,,,,,,,,,,,,,,,,,,,,,,,,,,,,,,,,,,,,,,,,,,,,
,,,,,,,2023-10-24_19h04.43.473,vbt_B1_day2,2022.2.4,Win32,60.04202942,,,,,,,-0.018518519,-0.138888889,1,0,0,0.8416,0,10,10,23,1,x,images/br_x.png,images/cb_x.png,,,,,,,,,,,,,,,,,,,,,,,,,,,,,,,,,,,,,,,,,,,,,,,
,,,,,,,2023-10-24_19h04.43.473,vbt_B1_day2,2022.2.4,Win32,60.04202942,,,,,,,-0.018518519,-0.138888889,1,0,0,0.2682,0,11,11,2,1,c,images/br_c.png,images/cb_c.png,,,,,,,,,,,,,,,,,,,,,,,,,,,,,,,,,,,,,,,,,,,,,,,
,,,,,,,2023-10-24_19h04.43.473,vbt_B1_day2,2022.2.4,Win32,60.04202942,,,,,,,-0.018518519,-0.138888889,1,0,0,2.9676,0,12,12,15,1,p,images/br_p.png,images/cb_p.png,,,,,,,,,,,,,,,,,,,,,,,,,,,,,,,,,,,,,,,,,,,,,,,
,,,,,,,2023-10-24_19h04.43.473,vbt_B1_day2,2022.2.4,Win32,60.04202942,,,,,,,-0.018518519,-0.138888889,1,0,0,5.8836,0,13,13,10,1,k,images/br_k.png,images/cb_k.png,,,,,,,,,,,,,,,,,,,,,,,,,,,,,,,,,,,,,,,,,,,,,,,
,,,,,,,2023-10-24_19h04.43.473,vbt_B1_day2,2022.2.4,Win32,60.04202942,,,,,,,-0.018518519,-0.138888889,1,0,0,6.1836,0,14,14,19,1,t,images/br_t.png,images/cb_t.png,,,,,,,,,,,,,,,,,,,,,,,,,,,,,,,,,,,,,,,,,,,,,,,
,,,,,,,2023-10-24_19h04.43.473,vbt_B1_day2,2022.2.4,Win32,60.04202942,,,,,,,-0.018518519,-0.138888889,1,0,0,7.2329,0,15,15,12,1,m,images/br_m.png,images/cb_m.png,,,,,,,,,,,,,,,,,,,,,,,,,,,,,,,,,,,,,,,,,,,,,,,
,,,,,,,2023-10-24_19h04.43.473,vbt_B1_day2,2022.2.4,Win32,60.04202942,,,,,,,-0.018518519,-0.138888889,1,0,0,0.367,0,16,16,24,1,y,images/br_y.png,images/cb_y.png,,,,,,,,,,,,,,,,,,,,,,,,,,,,,,,,,,,,,,,,,,,,,,,
,,,,,,,2023-10-24_19h04.43.473,vbt_B1_day2,2022.2.4,Win32,60.04202942,,,,,,,-0.018518519,-0.138888889,1,0,0,0.3168,0,17,17,4,1,e,images/br_e.png,images/cb_e.png,,,,,,,,,,,,,,,,,,,,,,,,,,,,,,,,,,,,,,,,,,,,,,,
,,,,,,,2023-10-24_19h04.43.473,vbt_B1_day2,2022.2.4,Win32,60.04202942,,,,,,,-0.018518519,-0.138888889,1,0,0,0.5668,0,18,18,3,1,d,images/br_d.png,images/cb_d.png,,,,,,,,,,,,,,,,,,,,,,,,,,,,,,,,,,,,,,,,,,,,,,,
,,,,,,,2023-10-24_19h04.43.473,vbt_B1_day2,2022.2.4,Win32,60.04202942,,,,,,,-0.018518519,-0.138888889,1,0,0,1.0835,0,19,19,22,1,w,images/br_w.png,images/cb_w.png,,,,,,,,,,,,,,,,,,,,,,,,,,,,,,,,,,,,,,,,,,,,,,,
,,,,,,,2023-10-24_19h04.43.473,vbt_B1_day2,2022.2.4,Win32,60.04202942,,,,,,,-0.018518519,-0.138888889,1,0,0,0.9169,0,20,20,7,1,h,images/br_h.png,images/cb_h.png,,,,,,,,,,,,,,,,,,,,,,,,,,,,,,,,,,,,,,,,,,,,,,,
,,,,,,,2023-10-24_19h04.43.473,vbt_B1_day2,2022.2.4,Win32,60.04202942,,,,,,,-0.018518519,-0.138888889,1,0,0,0.1336,0,21,21,14,1,o,images/br_o.png,images/cb_o.png,,,,,,,,,,,,,,,,,,,,,,,,,,,,,,,,,,,,,,,,,,,,,,,
,,,,,,,2023-10-24_19h04.43.473,vbt_B1_day2,2022.2.4,Win32,60.04202942,,,,,,,-0.018518519,-0.138888889,1,0,0,0.7337,0,22,22,25,1,z,images/br_z.png,images/cb_z.png,,,,,,,,,,,,,,,,,,,,,,,,,,,,,,,,,,,,,,,,,,,,,,,
,,,,,,,2023-10-24_19h04.43.473,vbt_B1_day2,2022.2.4,Win32,60.04202942,,,,,,,-0.018518519,-0.138888889,1,0,0,0.7836,0,23,23,6,1,g,images/br_g.png,images/cb_g.png,,,,,,,,,,,,,,,,,,,,,,,,,,,,,,,,,,,,,,,,,,,,,,,
,,,,,,,2023-10-24_19h04.43.473,vbt_B1_day2,2022.2.4,Win32,60.04202942,,,,,,,-0.018518519,-0.138888889,1,0,0,5.9591,0,24,24,20,1,u,images/br_u.png,images/cb_u.png,,,,,,,,,,,,,,,,,,,,,,,,,,,,,,,,,,,,,,,,,,,,,,,
,,,,,,,2023-10-24_19h04.43.473,vbt_B1_day2,2022.2.4,Win32,60.04202942,,,,,,,-0.018518519,-0.138888889,1,0,0,0.0173,0,25,25,17,1,r,images/br_r.png,images/cb_r.png,,,,,,,,,,,,,,,,,,,,,,,,,,,,,,,,,,,,,,,,,,,,,,,
,,,,,,,2023-10-24_19h04.43.473,vbt_B1_day2,2022.2.4,Win32,60.04202942,,,,,,,,,,,,,,,,,,,,,0.338888945,-0.150925954,1,0,0,32.7606,,,,,,,,,,,,,,,,,,,,,,,,,,,,,,,,,,,,,,,,,
,,,,,,,2023-10-24_19h04.43.473,vbt_B1_day2,2022.2.4,Win32,60.04202942,,,,,,,,,,,,,,,,,,,,,,,,,,,down,0,12.1503,,0.180555556,-0.085185192,1,0,0,5.5912,0,0,0,192,1,schaamte,images/br_schaamte.png,images/cb_schaamte.png,0,,,,,,,,,,,,,,,,,,,,,,
,,,,,,,2023-10-24_19h04.43.473,vbt_B1_day2,2022.2.4,Win32,60.04202942,,,,,,,,,,,,,,,,,,,,,,,,,,,down,0,6.7343,,0.037037037,-0.093518504,1,0,0,24.0722,0,1,1,20,1,site,images/br_site.png,images/cb_site.png,0,,,,,,,,,,,,,,,,,,,,,,
,,,,,,,2023-10-24_19h04.43.473,vbt_B1_day2,2022.2.4,Win32,60.04202942,,,,,,,,,,,,,,,,,,,,,,,,,,,down,0,10.6867,,0.037037037,-0.093518504,1,0,0,2.9164,0,2,2,167,1,eenhoorn,images/br_eenhoorn.png,images/cb_eenhoorn.png,0,,,,,,,,,,,,,,,,,,,,,,
,,,,,,,2023-10-24_19h04.43.473,vbt_B1_day2,2022.2.4,Win32,60.04202942,,,,,,,,,,,,,,,,,,,,,,,,,,,down,0,5.7008,,0.037037037,-0.093518504,1,0,0,0.949,0,3,3,109,1,totaal,images/br_totaal.png,images/cb_totaal.png,0,,,,,,,,,,,,,,,,,,,,,,
,,,,,,,2023-10-24_19h04.43.473,vbt_B1_day2,2022.2.4,Win32,60.04202942,,,,,,,,,,,,,,,,,,,,,,,,,,,down,0,8.5511,,0.037037037,-0.093518504,1,0,0,0.7835,0,4,4,85,1,heilig,images/br_heilig.png,images/cb_heilig.png,0,,,,,,,,,,,,,,,,,,,,,,
,,,,,,,2023-10-24_19h04.43.473,vbt_B1_day2,2022.2.4,Win32,60.04202942,,,,,,,,,,,,,,,,,,,,,,,,,,,down,0,5.1004,,0.037037037,-0.093518504,1,0,0,1.7007,0,5,5,64,1,wegen,images/br_wegen.png,images/cb_wegen.png,0,,,,,,,,,,,,,,,,,,,,,,
,,,,,,,2023-10-24_19h04.43.473,vbt_B1_day2,2022.2.4,Win32,60.04202942,,,,,,,,,,,,,,,,,,,,,,,,,,,down,0,14.5748,,0.037037037,-0.093518504,1,0,0,4.4491,0,6,6,98,1,kreeft,images/br_kreeft.png,images/cb_kreeft.png,1,kreeft,,,,,,,,,,,,,,,,,,,,,
,,,,,,,2023-10-24_19h04.43.473,vbt_B1_day2,2022.2.4,Win32,60.04202942,,,,,,,,,,,,,,,,,,,,,,,,,,,down,0,11.9398,,0.068518533,-0.080555563,1,0,0,1.5334,0,7,7,183,1,getuigen,images/br_getuigen.png,images/cb_getuigen.png,0,,,,,,,,,,,,,,,,,,,,,,
,,,,,,,2023-10-24_19h04.43.473,vbt_B1_day2,2022.2.4,Win32,60.04202942,,,,,,,,,,,,,,,,,,,,,,,,,,,down,0,15.1535,,-0.003703718,-0.118518547,1,0,0,3.3026,0,8,8,137,1,trekker,images/br_trekker.png,images/cb_trekker.png,1,trekker,,,,,,,,,,,,,,,,,,,,,
,,,,,,,2023-10-24_19h04.43.473,vbt_B1_day2,2022.2.4,Win32,60.04202942,,,,,,,,,,,,,,,,,,,,,,,,,,,down,0,3.617,,-0.187037009,-0.099074116,1,0,0,2.3001,0,9,9,112,1,lukken,images/br_lukken.png,images/cb_lukken.png,0,,,,,,,,,,,,,,,,,,,,,,
,,,,,,,2023-10-24_19h04.43.473,vbt_B1_day2,2022.2.4,Win32,60.04202942,,,,,,,,,,,,,,,,,,,,,,,,,,,down,0,5.49,,-0.187037009,-0.099074116,1,0,0,1.433,0,10,10,196,1,nakijken,images/br_nakijken.png,images/cb_nakijken.png,0,,,,,,,,,,,,,,,,,,,,,,
,,,,,,,2023-10-24_19h04.43.473,vbt_B1_day2,2022.2.4,Win32,60.04202942,,,,,,,,,,,,,,,,,,,,,,,,,,,down,0,5.5039,,0.005555541,-0.091666681,1,0,0,2.0666,0,11,11,18,1,blik,images/br_blik.png,images/cb_blik.png,1,blik,,,,,,,,,,,,,,,,,,,,,
,,,,,,,2023-10-24_19h04.43.473,vbt_B1_day2,2022.2.4,Win32,60.04202942,,,,,,,,,,,,,,,,,,,,,,,,,,,down,0,2.7516,,-0.082407422,-0.162037037,1,0,0,1.0832,0,12,12,69,1,waken,images/br_waken.png,images/cb_waken.png,0,,,,,,,,,,,,,,,,,,,,,,
,,,,,,,2023-10-24_19h04.43.473,vbt_B1_day2,2022.2.4,Win32,60.04202942,,,,,,,,,,,,,,,,,,,,,,,,,,,down,0,2.7676,,-0.082407422,-0.162037037,1,0,0,0.7832,0,13,13,54,1,gebit,images/br_gebit.png,images/cb_gebit.png,0,,,,,,,,,,,,,,,,,,,,,,
,,,,,,,2023-10-24_19h04.43.473,vbt_B1_day2,2022.2.4,Win32,60.04202942,,,,,,,,,,,,,,,,,,,,,,,,,,,down,0,11.7051,,-0.002777735,-0.181481467,1,0,0,1.55,0,14,14,99,1,koffie,images/br_koffie.png,images/cb_koffie.png,1,koffie,,,,,,,,,,,,,,,,,,,,,
,,,,,,,2023-10-24_19h04.43.473,vbt_B1_day2,2022.2.4,Win32,60.04202942,,,,,,,,,,,,,,,,,,,,,,,,,,,down,0,1.1057,,-0.09629631,-0.137037065,1,0,0,1.4003,0,15,15,160,1,daarheen,images/br_daarheen.png,images/cb_daarheen.png,0,,,,,,,,,,,,,,,,,,,,,,
,,,,,,,2023-10-24_19h04.43.473,vbt_B1_day2,2022.2.4,Win32,60.04202942,,,,,,,,,,,,,,,,,,,,,,,,,,,down,0,2.1678,,-0.09629631,-0.137037065,1,0,0,0.6665,0,16,16,8,1,knie,images/br_knie.png,images/cb_knie.png,0,,,,,,,,,,,,,,,,,,,,,,
,,,,,,,2023-10-24_19h04.43.473,vbt_B1_day2,2022.2.4,Win32,60.04202942,,,,,,,,,,,,,,,,,,,,,,,,,,,down,0,0.7675,,-0.09629631,-0.137037065,1,0,0,0.5664,0,17,17,153,1,vervoer,images/br_vervoer.png,images/cb_vervoer.png,0,,,,,,,,,,,,,,,,,,,,,,
,,,,,,,2023-10-24_19h04.43.473,vbt_B1_day2,2022.2.4,Win32,60.04202942,,,,,,,,,,,,,,,,,,,,,,,,,,,down,0,1.8675,,-0.09629631,-0.137037065,1,0,0,0.9666,0,18,18,79,1,nodig,images/br_nodig.png,images/cb_nodig.png,0,,,,,,,,,,,,,,,,,,,,,,
,,,,,,,2023-10-24_19h04.43.473,vbt_B1_day2,2022.2.4,Win32,60.04202942,,,,,,,,,,,,,,,,,,,,,,,,,,,down,0,2.3244,,-0.09629631,-0.137037065,1,0,0,0.8654,0,19,19,173,1,apparaat,images/br_apparaat.png,images/cb_apparaat.png,0,,,,,,,,,,,,,,,,,,,,,,
,,,,,,,2023-10-24_19h04.43.473,vbt_B1_day2,2022.2.4,Win32,60.04202942,,,,,,,,,,,,,,,,,,,,,,,,,,,down,0,3.3015,,-0.09629631,-0.137037065,1,0,0,1.9665,0,20,20,80,1,kanjer,images/br_kanjer.png,images/cb_kanjer.png,0,,,,,,,,,,,,,,,,,,,,,,
,,,,,,,2023-10-24_19h04.43.473,vbt_B1_day2,2022.2.4,Win32,60.04202942,,,,,,,,,,,,,,,,,,,,,,,,,,,down,0,1.6998,,-0.09629631,-0.137037065,1,0,0,1.1332,0,21,21,2,1,jaar,images/br_jaar.png,images/cb_jaar.png,0,,,,,,,,,,,,,,,,,,,,,,
,,,,,,,2023-10-24_19h04.43.473,vbt_B1_day2,2022.2.4,Win32,60.04202942,,,,,,,,,,,,,,,,,,,,,,,,,,,down,0,0.5009,,-0.09629631,-0.137037065,1,0,0,0.6999,0,22,22,159,1,sufferd,images/br_sufferd.png,images/cb_sufferd.png,0,,,,,,,,,,,,,,,,,,,,,,
,,,,,,,2023-10-24_19h04.43.473,vbt_B1_day2,2022.2.4,Win32,60.04202942,,,,,,,,,,,,,,,,,,,,,,,,,,,down,0,1.8341,,-0.09629631,-0.137037065,1,0,0,0.7997,0,23,23,51,1,samen,images/br_samen.png,images/cb_samen.png,0,,,,,,,,,,,,,,,,,,,,,,
,,,,,,,2023-10-24_19h04.43.473,vbt_B1_day2,2022.2.4,Win32,60.04202942,,,,,,,,,,,,,,,,,,,,,,,,,,,down,0,0.0208,,-0.09629631,-0.137037065,1,0,0,1.033,0,24,24,155,1,gerucht,images/br_gerucht.png,images/cb_gerucht.png,0,,,,,,,,,,,,,,,,,,,,,,
,,,,,,,2023-10-24_19h04.43.473,vbt_B1_day2,2022.2.4,Win32,60.04202942,,,,,,,,,,,,,,,,,,,,,,,,,,,down,0,1.9232,,-0.09629631,-0.137037065,1,0,0,0.9167,0,25,25,102,1,legaal,images/br_legaal.png,images/cb_legaal.png,0,,,,,,,,,,,,,,,,,,,,,,
,,,,,,,2023-10-24_19h04.43.473,vbt_B1_day2,2022.2.4,Win32,60.04202942,,,,,,,,,,,,,,,,,,,,,,,,,,,down,0,0.9508,,-0.09629631,-0.137037065,1,0,0,0.8165,0,26,26,84,1,lokken,images/br_lokken.png,images/cb_lokken.png,0,,,,,,,,,,,,,,,,,,,,,,
,,,,,,,2023-10-24_19h04.43.473,vbt_B1_day2,2022.2.4,Win32,60.04202942,,,,,,,,,,,,,,,,,,,,,,,,,,,down,0,0.1025,,-0.09629631,-0.137037065,1,0,0,0.6501,0,27,27,94,1,oceaan,images/br_oceaan.png,images/cb_oceaan.png,0,,,,,,,,,,,,,,,,,,,,,,
,,,,,,,2023-10-24_19h04.43.473,vbt_B1_day2,2022.2.4,Win32,60.04202942,,,,,,,,,,,,,,,,,,,,,,,,,,,down,0,0.586,,-0.09629631,-0.137037065,1,0,0,0.7499,0,28,28,87,1,toeval,images/br_toeval.png,images/cb_toeval.png,0,,,,,,,,,,,,,,,,,,,,,,
,,,,,,,2023-10-24_19h04.43.473,vbt_B1_day2,2022.2.4,Win32,60.04202942,,,,,,,,,,,,,,,,,,,,,,,,,,,down,0,1.505,,-0.09629631,-0.137037065,1,0,0,0.7665,0,29,29,151,1,aanzoek,images/br_aanzoek.png,images/cb_aanzoek.png,0,,,,,,,,,,,,,,,,,,,,,,
,,,,,,,2023-10-24_19h04.43.473,vbt_B1_day2,2022.2.4,Win32,60.04202942,,,,,,,,,,,,,,,,,,,,,,,,,,,down,0,1.5178,,-0.09629631,-0.137037065,1,0,0,0.5996,0,30,30,117,1,kennis,images/br_kennis.png,images/cb_kennis.png,0,,,,,,,,,,,,,,,,,,,,,,
,,,,,,,2023-10-24_19h04.43.473,vbt_B1_day2,2022.2.4,Win32,60.04202942,,,,,,,,,,,,,,,,,,,,,,,,,,,down,0,0.9507,,-0.09629631,-0.137037065,1,0,0,0.6001,0,31,31,107,1,maling,images/br_maling.png,images/cb_maling.png,0,,,,,,,,,,,,,,,,,,,,,,
,,,,,,,2023-10-24_19h04.43.473,vbt_B1_day2,2022.2.4,Win32,60.04202942,,,,,,,,,,,,,,,,,,,,,,,,,,,down,0,0.338,,-0.09629631,-0.137037065,1,0,0,1.0165,0,32,32,161,1,attentie,images/br_attentie.png,images/cb_attentie.png,0,,,,,,,,,,,,,,,,,,,,,,
,,,,,,,2023-10-24_19h04.43.473,vbt_B1_day2,2022.2.4,Win32,60.04202942,,,,,,,,,,,,,,,,,,,,,,,,,,,down,0,0.1342,,-0.09629631,-0.137037065,1,0,0,0.883,0,33,33,45,1,piste,images/br_piste.png,images/cb_piste.png,0,,,,,,,,,,,,,,,,,,,,,,
,,,,,,,2023-10-24_19h04.43.473,vbt_B1_day2,2022.2.4,Win32,60.04202942,,,,,,,,,,,,,,,,,,,,,,,,,,,down,0,3.2341,,-0.09629631,-0.137037065,1,0,0,0.7164,0,34,34,143,1,hechten,images/br_hechten.png,images/cb_hechten.png,0,,,,,,,,,,,,,,,,,,,,,,
,,,,,,,2023-10-24_19h04.43.473,vbt_B1_day2,2022.2.4,Win32,60.04202942,,,,,,,,,,,,,,,,,,,,,,,,,,,down,0,1.0716,,-0.09629631,-0.137037065,1,0,0,0.9165,0,35,35,124,1,bloeien,images/br_bloeien.png,images/cb_bloeien.png,0,,,,,,,,,,,,,,,,,,,,,,
,,,,,,,2023-10-24_19h04.43.473,vbt_B1_day2,2022.2.4,Win32,60.04202942,,,,,,,,,,,,,,,,,,,,,,,,,,,down,0,0.034,,-0.09629631,-0.137037065,1,0,0,0.5664,0,36,36,104,1,zweven,images/br_zweven.png,images/cb_zweven.png,0,,,,,,,,,,,,,,,,,,,,,,
,,,,,,,2023-10-24_19h04.43.473,vbt_B1_day2,2022.2.4,Win32,60.04202942,,,,,,,,,,,,,,,,,,,,,,,,,,,down,0,4.3176,,0.151851866,-0.102777764,1,0,0,2.5196,0,37,37,65,1,parel,images/br_parel.png,images/cb_parel.png,0,,,,,,,,,,,,,,,,,,,,,,
,,,,,,,2023-10-24_19h04.43.473,vbt_B1_day2,2022.2.4,Win32,60.04202942,,,,,,,,,,,,,,,,,,,,,,,,,,,down,0,1.2342,,0.151851866,-0.102777764,1,0,0,0.7485,0,38,38,74,1,graaf,images/br_graaf.png,images/cb_graaf.png,0,,,,,,,,,,,,,,,,,,,,,,
,,,,,,,2023-10-24_19h04.43.473,vbt_B1_day2,2022.2.4,Win32,60.04202942,,,,,,,,,,,,,,,,,,,,,,,,,,,down,0,1.3846,,0.151851866,-0.102777764,1,0,0,0.8386,0,39,39,120,1,klimmen,images/br_klimmen.png,images/cb_klimmen.png,0,,,,,,,,,,,,,,,,,,,,,,
,,,,,,,2023-10-24_19h04.43.473,vbt_B1_day2,2022.2.4,Win32,60.04202942,,,,,,,,,,,,,,,,,,,,,,,,,,,down,0,0.5342,,0.151851866,-0.102777764,1,0,0,0.8165,0,40,40,115,1,kleren,images/br_kleren.png,images/cb_kleren.png,0,,,,,,,,,,,,,,,,,,,,,,
,,,,,,,2023-10-24_19h04.43.473,vbt_B1_day2,2022.2.4,Win32,60.04202942,,,,,,,,,,,,,,,,,,,,,,,,,,,down,0,1.0008,,0.151851866,-0.102777764,1,0,0,0.6991,0,41,41,38,1,baai,images/br_baai.png,images/cb_baai.png,0,,,,,,,,,,,,,,,,,,,,,,
,,,,,,,2023-10-24_19h04.43.473,vbt_B1_day2,2022.2.4,Win32,60.04202942,,,,,,,,,,,,,,,,,,,,,,,,,,,down,0,1.6288,,0.151851866,-0.102777764,1,0,0,0.6666,0,42,42,142,1,snuiven,images/br_snuiven.png,images/cb_snuiven.png,0,,,,,,,,,,,,,,,,,,,,,,
,,,,,,,2023-10-24_19h04.43.473,vbt_B1_day2,2022.2.4,Win32,60.04202942,,,,,,,,,,,,,,,,,,,,,,,,,,,down,0,2.151,,0.151851866,-0.102777764,1,0,0,0.7501,0,43,43,67,1,zwart,images/br_zwart.png,images/cb_zwart.png,0,,,,,,,,,,,,,,,,,,,,,,
,,,,,,,2023-10-24_19h04.43.473,vbt_B1_day2,2022.2.4,Win32,60.04202942,,,,,,,,,,,,,,,,,,,,,,,,,,,down,0,0.4334,,0.151851866,-0.102777764,1,0,0,0.8099,0,44,44,66,1,lever,images/br_lever.png,images/cb_lever.png,0,,,,,,,,,,,,,,,,,,,,,,
,,,,,,,2023-10-24_19h04.43.473,vbt_B1_day2,2022.2.4,Win32,60.04202942,,,,,,,,,,,,,,,,,,,,,,,,,,,down,0,0.7571,,0.151851866,-0.102777764,1,0,0,0.7502,0,45,45,15,1,soda,images/br_soda.png,images/cb_soda.png,0,,,,,,,,,,,,,,,,,,,,,,
,,,,,,,2023-10-24_19h04.43.473,vbt_B1_day2,2022.2.4,Win32,60.04202942,,,,,,,,,,,,,,,,,,,,,,,,,,,down,0,2.7184,,0.151851866,-0.102777764,1,0,0,0.8002,0,46,46,189,1,aanraden,images/br_aanraden.png,images/cb_aanraden.png,0,,,,,,,,,,,,,,,,,,,,,,
,,,,,,,2023-10-24_19h04.43.473,vbt_B1_day2,2022.2.4,Win32,60.04202942,,,,,,,,,,,,,,,,,,,,,,,,,,,down,0,0.8863,,0.151851866,-0.102777764,1,0,0,0.6996,0,47,47,154,1,aflopen,images/br_aflopen.png,images/cb_aflopen.png,0,,,,,,,,,,,,,,,,,,,,,,
,,,,,,,2023-10-24_19h04.43.473,vbt_B1_day2,2022.2.4,Win32,60.04202942,,,,,,,,,,,,,,,,,,,,,,,,,,,down,0,0.6867,,0.151851866,-0.102777764,1,0,0,0.9669,0,48,48,163,1,schuilen,images/br_schuilen.png,images/cb_schuilen.png,0,,,,,,,,,,,,,,,,,,,,,,
,,,,,,,2023-10-24_19h04.43.473,vbt_B1_day2,2022.2.4,Win32,60.04202942,,,,,,,,,,,,,,,,,,,,,,,,,,,down,0,0.8008,,0.151851866,-0.102777764,1,0,0,0.7659,0,49,49,110,1,zuster,images/br_zuster.png,images/cb_zuster.png,0,,,,,,,,,,,,,,,,,,,,,,
,,,,,,,2023-10-24_19h04.43.473,vbt_B1_day2,2022.2.4,Win32,60.04202942,,,,,,,,,,,,,,,,,,,,,,,,,,,down,0,0.4137,,0.151851866,-0.102777764,1,0,0,0.6695,0,50,50,1,1,zaal,images/br_zaal.png,images/cb_zaal.png,0,,,,,,,,,,,,,,,,,,,,,,
,,,,,,,2023-10-24_19h04.43.473,vbt_B1_day2,2022.2.4,Win32,60.04202942,,,,,,,,,,,,,,,,,,,,,,,,,,,down,0,1.0199,,0.151851866,-0.102777764,1,0,0,0.8167,0,51,51,60,1,jasje,images/br_jasje.png,images/cb_jasje.png,0,,,,,,,,,,,,,,,,,,,,,,
,,,,,,,2023-10-24_19h04.43.473,vbt_B1_day2,2022.2.4,Win32,60.04202942,,,,,,,,,,,,,,,,,,,,,,,,,,,down,0,1.1005,,0.151851866,-0.102777764,1,0,0,1.1354,0,52,52,4,1,moes,images/br_moes.png,images/cb_moes.png,0,,,,,,,,,,,,,,,,,,,,,,
,,,,,,,2023-10-24_19h04.43.473,vbt_B1_day2,2022.2.4,Win32,60.04202942,,,,,,,,,,,,,,,,,,,,,,,,,,,down,0,0.5676,,0.151851866,-0.102777764,1,0,0,1.15,0,53,53,34,1,vorm,images/br_vorm.png,images/cb_vorm.png,0,,,,,,,,,,,,,,,,,,,,,,
,,,,,,,2023-10-24_19h04.43.473,vbt_B1_day2,2022.2.4,Win32,60.04202942,,,,,,,,,,,,,,,,,,,,,,,,,,,down,0,3.9496,,0.151851866,-0.102777764,1,0,0,0.7265,0,54,54,123,1,hiervan,images/br_hiervan.png,images/cb_hiervan.png,0,,,,,,,,,,,,,,,,,,,,,,
,,,,,,,2023-10-24_19h04.43.473,vbt_B1_day2,2022.2.4,Win32,60.04202942,,,,,,,,,,,,,,,,,,,,,,,,,,,down,0,12.7852,,0.063888903,-0.217592593,1,0,0,2.6478,0,55,55,97,1,loyaal,images/br_loyaal.png,images/cb_loyaal.png,1,lokaal,,,,,,,,,,,,,,,,,,,,,
,,,,,,,2023-10-24_19h04.43.473,vbt_B1_day2,2022.2.4,Win32,60.04202942,,,,,,,,,,,,,,,,,,,,,,,,,,,down,0,0.773,,0.063888903,-0.217592593,1,0,0,1.6498,0,56,56,122,1,waarvan,images/br_waarvan.png,images/cb_waarvan.png,0,,,,,,,,,,,,,,,,,,,,,,
,,,,,,,2023-10-24_19h04.43.473,vbt_B1_day2,2022.2.4,Win32,60.04202942,,,,,,,,,,,,,,,,,,,,,,,,,,,down,0,1.1694,,-0.287037037,-0.057407414,1,0,0,0.7494,0,57,57,132,1,grappen,images/br_grappen.png,images/cb_grappen.png,0,,,,,,,,,,,,,,,,,,,,,,
,,,,,,,2023-10-24_19h04.43.473,vbt_B1_day2,2022.2.4,Win32,60.04202942,,,,,,,,,,,,,,,,,,,,,,,,,,,down,0,0.7216,,-0.287037037,-0.057407414,1,0,0,0.7834,0,58,58,121,1,twijfel,images/br_twijfel.png,images/cb_twijfel.png,0,,,,,,,,,,,,,,,,,,,,,,
,,,,,,,2023-10-24_19h04.43.473,vbt_B1_day2,2022.2.4,Win32,60.04202942,,,,,,,,,,,,,,,,,,,,,,,,,,,down,0,0.505,,-0.287037037,-0.057407414,1,0,0,0.6666,0,59,59,50,1,stoom,images/br_stoom.png,images/cb_stoom.png,0,,,,,,,,,,,,,,,,,,,,,,
,,,,,,,2023-10-24_19h04.43.473,vbt_B1_day2,2022.2.4,Win32,60.04202942,,,,,,,,,,,,,,,,,,,,,,,,,,,down,0,1.6223,,-0.287037037,-0.057407414,1,0,0,0.7165,0,60,60,172,1,weigeren,images/br_weigeren.png,images/cb_weigeren.png,0,,,,,,,,,,,,,,,,,,,,,,
,,,,,,,2023-10-24_19h04.43.473,vbt_B1_day2,2022.2.4,Win32,60.04202942,,,,,,,,,,,,,,,,,,,,,,,,,,,down,0,1.6758,,-0.287037037,-0.057407414,1,0,0,0.6665,0,61,61,106,1,zingen,images/br_zingen.png,images/cb_zingen.png,0,,,,,,,,,,,,,,,,,,,,,,
,,,,,,,2023-10-24_19h04.43.473,vbt_B1_day2,2022.2.4,Win32,60.04202942,,,,,,,,,,,,,,,,,,,,,,,,,,,down,0,3.373,,-0.287962949,-0.058333326,1,0,0,0.8674,0,62,62,187,1,opkijken,images/br_opkijken.png,images/cb_opkijken.png,0,,,,,,,,,,,,,,,,,,,,,,
,,,,,,,2023-10-24_19h04.43.473,vbt_B1_day2,2022.2.4,Win32,60.04202942,,,,,,,,,,,,,,,,,,,,,,,,,,,down,0,1.8357,,-0.287962949,-0.058333326,1,0,0,0.9666,0,63,63,133,1,seizoen,images/br_seizoen.png,images/cb_seizoen.png,0,,,,,,,,,,,,,,,,,,,,,,
,,,,,,,2023-10-24_19h04.43.473,vbt_B1_day2,2022.2.4,Win32,60.04202942,,,,,,,,,,,,,,,,,,,,,,,,,,,down,0,0.4716,,-0.287962949,-0.058333326,1,0,0,0.8832,0,64,64,83,1,mening,images/br_mening.png,images/cb_mening.png,0,,,,,,,,,,,,,,,,,,,,,,
,,,,,,,2023-10-24_19h04.43.473,vbt_B1_day2,2022.2.4,Win32,60.04202942,,,,,,,,,,,,,,,,,,,,,,,,,,,down,0,2.1405,,-0.287962949,-0.058333326,1,0,0,0.6996,0,65,65,43,1,klauw,images/br_klauw.png,images/cb_klauw.png,0,,,,,,,,,,,,,,,,,,,,,,
,,,,,,,2023-10-24_19h04.43.473,vbt_B1_day2,2022.2.4,Win32,60.04202942,,,,,,,,,,,,,,,,,,,,,,,,,,,down,0,0.203,,-0.287962949,-0.058333326,1,0,0,1.0497,0,66,66,129,1,verhaal,images/br_verhaal.png,images/cb_verhaal.png,0,,,,,,,,,,,,,,,,,,,,,,
,,,,,,,2023-10-24_19h04.43.473,vbt_B1_day2,2022.2.4,Win32,60.04202942,,,,,,,,,,,,,,,,,,,,,,,,,,,down,0,2.0391,,-0.287962949,-0.058333326,1,0,0,0.8666,0,67,67,46,1,jagen,images/br_jagen.png,images/cb_jagen.png,0,,,,,,,,,,,,,,,,,,,,,,
,,,,,,,2023-10-24_19h04.43.473,vbt_B1_day2,2022.2.4,Win32,60.04202942,,,,,,,,,,,,,,,,,,,,,,,,,,,down,0,1.5378,,-0.287962949,-0.058333326,1,0,0,0.8163,0,68,68,145,1,invloed,images/br_invloed.png,images/cb_invloed.png,0,,,,,,,,,,,,,,,,,,,,,,
,,,,,,,2023-10-24_19h04.43.473,vbt_B1_day2,2022.2.4,Win32,60.04202942,,,,,,,,,,,,,,,,,,,,,,,,,,,down,0,3.7338,,-0.015740712,-0.128703718,1,0,0,2.9592,0,69,69,53,1,baron,images/br_baron.png,images/cb_baron.png,0,,,,,,,,,,,,,,,,,,,,,,
,,,,,,,2023-10-24_19h04.43.473,vbt_B1_day2,2022.2.4,Win32,60.04202942,,,,,,,,,,,,,,,,,,,,,,,,,,,down,0,0.4352,,-0.015740712,-0.128703718,1,0,0,0.6487,0,70,70,35,1,lust,images/br_lust.png,images/cb_lust.png,0,,,,,,,,,,,,,,,,,,,,,,
,,,,,,,2023-10-24_19h04.43.473,vbt_B1_day2,2022.2.4,Win32,60.04202942,,,,,,,,,,,,,,,,,,,,,,,,,,,down,0,2.7833,,-0.015740712,-0.128703718,1,0,0,0.8592,0,71,71,194,1,driemaal,images/br_driemaal.png,images/cb_driemaal.png,0,,,,,,,,,,,,,,,,,,,,,,
,,,,,,,2023-10-24_19h04.43.473,vbt_B1_day2,2022.2.4,Win32,60.04202942,,,,,,,,,,,,,,,,,,,,,,,,,,,down,0,3.8013,,-0.015740712,-0.128703718,1,0,0,0.9402,0,72,72,162,1,uitdelen,images/br_uitdelen.png,images/cb_uitdelen.png,0,,,,,,,,,,,,,,,,,,,,,,
,,,,,,,2023-10-24_19h04.43.473,vbt_B1_day2,2022.2.4,Win32,60.04202942,,,,,,,,,,,,,,,,,,,,,,,,,,,down,0,2.4008,,-0.015740712,-0.128703718,1,0,0,0.6524,0,73,73,68,1,schat,images/br_schat.png,images/cb_schat.png,0,,,,,,,,,,,,,,,,,,,,,,
,,,,,,,2023-10-24_19h04.43.473,vbt_B1_day2,2022.2.4,Win32,60.04202942,,,,,,,,,,,,,,,,,,,,,,,,,,,down,0,1.9841,,-0.015740712,-0.128703718,1,0,0,0.749,0,74,74,128,1,prikken,images/br_prikken.png,images/cb_prikken.png,0,,,,,,,,,,,,,,,,,,,,,,
,,,,,,,2023-10-24_19h04.43.473,vbt_B1_day2,2022.2.4,Win32,60.04202942,,,,,,,,,,,,,,,,,,,,,,,,,,,down,0,0.217,,-0.015740712,-0.128703718,1,0,0,0.6364,0,75,75,31,1,poes,images/br_poes.png,images/cb_poes.png,0,,,,,,,,,,,,,,,,,,,,,,
,,,,,,,2023-10-24_19h04.43.473,vbt_B1_day2,2022.2.4,Win32,60.04202942,,,,,,,,,,,,,,,,,,,,,,,,,,,down,0,1.6366,,-0.015740712,-0.128703718,1,0,0,0.7167,0,76,76,158,1,innemen,images/br_innemen.png,images/cb_innemen.png,0,,,,,,,,,,,,,,,,,,,,,,
,,,,,,,2023-10-24_19h04.43.473,vbt_B1_day2,2022.2.4,Win32,60.04202942,,,,,,,,,,,,,,,,,,,,,,,,,,,down,0,0.9524,,-0.015740712,-0.128703718,1,0,0,0.5831,0,77,77,156,1,rechten,images/br_rechten.png,images/cb_rechten.png,0,,,,,,,,,,,,,,,,,,,,,,
,,,,,,,2023-10-24_19h04.43.473,vbt_B1_day2,2022.2.4,Win32,60.04202942,,,,,,,,,,,,,,,,,,,,,,,,,,,down,0,1.234,,-0.015740712,-0.128703718,1,0,0,0.6485,0,78,78,32,1,palm,images/br_palm.png,images/cb_palm.png,0,,,,,,,,,,,,,,,,,,,,,,
,,,,,,,2023-10-24_19h04.43.473,vbt_B1_day2,2022.2.4,Win32,60.04202942,,,,,,,,,,,,,,,,,,,,,,,,,,,down,0,1.3675,,-0.015740712,-0.128703718,1,0,0,0.8163,0,79,79,77,1,woede,images/br_woede.png,images/cb_woede.png,0,,,,,,,,,,,,,,,,,,,,,,
,,,,,,,2023-10-24_19h04.43.473,vbt_B1_day2,2022.2.4,Win32,60.04202942,,,,,,,,,,,,,,,,,,,,,,,,,,,down,0,2.4025,,-0.015740712,-0.128703718,1,0,0,0.7162,0,80,80,140,1,blijven,images/br_blijven.png,images/cb_blijven.png,0,,,,,,,,,,,,,,,,,,,,,,
,,,,,,,2023-10-24_19h04.43.473,vbt_B1_day2,2022.2.4,Win32,60.04202942,,,,,,,,,,,,,,,,,,,,,,,,,,,down,0,1.0676,,-0.015740712,-0.128703718,1,0,0,0.952,0,81,81,198,1,bedoelen,images/br_bedoelen.png,images/cb_bedoelen.png,0,,,,,,,,,,,,,,,,,,,,,,
,,,,,,,2023-10-24_19h04.43.473,vbt_B1_day2,2022.2.4,Win32,60.04202942,,,,,,,,,,,,,,,,,,,,,,,,,,,down,0,0.9508,,-0.015740712,-0.128703718,1,0,0,0.7373,0,82,82,184,1,aandelen,images/br_aandelen.png,images/cb_aandelen.png,0,,,,,,,,,,,,,,,,,,,,,,
,,,,,,,2023-10-24_19h04.43.473,vbt_B1_day2,2022.2.4,Win32,60.04202942,,,,,,,,,,,,,,,,,,,,,,,,,,,down,0,6.0728,,-0.015740712,-0.128703718,1,0,0,0.9245,0,83,83,96,1,slagen,images/br_slagen.png,images/cb_slagen.png,1,slagen,,,,,,,,,,,,,,,,,,,,,
,,,,,,,2023-10-24_19h04.43.473,vbt_B1_day2,2022.2.4,Win32,60.04202942,,,,,,,,,,,,,,,,,,,,,,,,,,,down,0,0.1189,,-0.015740712,-0.128703718,1,0,0,1.4496,0,84,84,40,1,schep,images/br_schep.png,images/cb_schep.png,0,,,,,,,,,,,,,,,,,,,,,,
,,,,,,,2023-10-24_19h04.43.473,vbt_B1_day2,2022.2.4,Win32,60.04202942,,,,,,,,,,,,,,,,,,,,,,,,,,,down,0,0.9168,,-0.015740712,-0.128703718,1,0,0,0.6609,0,85,85,130,1,keihard,images/br_keihard.png,images/cb_keihard.png,0,,,,,,,,,,,,,,,,,,,,,,
,,,,,,,2023-10-24_19h04.43.473,vbt_B1_day2,2022.2.4,Win32,60.04202942,,,,,,,,,,,,,,,,,,,,,,,,,,,down,0,2.8387,,-0.015740712,-0.128703718,1,0,0,0.6325,0,86,86,166,1,strikken,images/br_strikken.png,images/cb_strikken.png,0,,,,,,,,,,,,,,,,,,,,,,
,,,,,,,2023-10-24_19h04.43.473,vbt_B1_day2,2022.2.4,Win32,60.04202942,,,,,,,,,,,,,,,,,,,,,,,,,,,down,0,0.3587,,-0.015740712,-0.128703718,1,0,0,0.7407,0,87,87,92,1,geheim,images/br_geheim.png,images/cb_geheim.png,0,,,,,,,,,,,,,,,,,,,,,,
,,,,,,,2023-10-24_19h04.43.473,vbt_B1_day2,2022.2.4,Win32,60.04202942,,,,,,,,,,,,,,,,,,,,,,,,,,,down,0,1.0904,,-0.015740712,-0.128703718,1,0,0,0.7483,0,88,88,174,1,stemming,images/br_stemming.png,images/cb_stemming.png,0,,,,,,,,,,,,,,,,,,,,,,
,,,,,,,2023-10-24_19h04.43.473,vbt_B1_day2,2022.2.4,Win32,60.04202942,,,,,,,,,,,,,,,,,,,,,,,,,,,down,0,2.4674,,-0.015740712,-0.128703718,1,0,0,0.8318,0,89,89,36,1,vuur,images/br_vuur.png,images/cb_vuur.png,0,,,,,,,,,,,,,,,,,,,,,,
,,,,,,,2023-10-24_19h04.43.473,vbt_B1_day2,2022.2.4,Win32,60.04202942,,,,,,,,,,,,,,,,,,,,,,,,,,,down,0,7.3668,,-0.015740712,-0.128703718,1,0,0,1.8565,0,90,90,75,1,snoep,images/br_snoep.png,images/cb_snoep.png,0,,,,,,,,,,,,,,,,,,,,,,
,,,,,,,2023-10-24_19h04.43.473,vbt_B1_day2,2022.2.4,Win32,60.04202942,,,,,,,,,,,,,,,,,,,,,,,,,,,down,0,0.5489,,-0.015740712,-0.128703718,1,0,0,0.6674,0,91,91,81,1,dubbel,images/br_dubbel.png,images/cb_dubbel.png,0,,,,,,,,,,,,,,,,,,,,,,
,,,,,,,2023-10-24_19h04.43.473,vbt_B1_day2,2022.2.4,Win32,60.04202942,,,,,,,,,,,,,,,,,,,,,,,,,,,down,0,10.5836,,-0.015740712,-0.128703718,1,0,0,0.9174,0,92,92,176,1,techniek,images/br_techniek.png,images/cb_techniek.png,1,techniek,,,,,,,,,,,,,,,,,,,,,
,,,,,,,2023-10-24_19h04.43.473,vbt_B1_day2,2022.2.4,Win32,60.04202942,,,,,,,,,,,,,,,,,,,,,,,,,,,down,0,0.4997,,-0.015740712,-0.128703718,1,0,0,0.577,0,93,93,113,1,koppen,images/br_koppen.png,images/cb_koppen.png,0,,,,,,,,,,,,,,,,,,,,,,
,,,,,,,2023-10-24_19h04.43.473,vbt_B1_day2,2022.2.4,Win32,60.04202942,,,,,,,,,,,,,,,,,,,,,,,,,,,down,0,0.3831,,-0.015740712,-0.128703718,1,0,0,0.6768,0,94,94,30,1,uien,images/br_uien.png,images/cb_uien.png,0,,,,,,,,,,,,,,,,,,,,,,
,,,,,,,2023-10-24_19h04.43.473,vbt_B1_day2,2022.2.4,Win32,60.04202942,,,,,,,,,,,,,,,,,,,,,,,,,,,down,0,0.4834,,-0.015740712,-0.128703718,1,0,0,0.666,0,95,95,71,1,bever,images/br_bever.png,images/cb_bever.png,0,,,,,,,,,,,,,,,,,,,,,,
,,,,,,,2023-10-24_19h04.43.473,vbt_B1_day2,2022.2.4,Win32,60.04202942,,,,,,,,,,,,,,,,,,,,,,,,,,,down,0,1.2164,,-0.015740712,-0.128703718,1,0,0,0.5766,0,96,96,44,1,flits,images/br_flits.png,images/cb_flits.png,0,,,,,,,,,,,,,,,,,,,,,,
,,,,,,,2023-10-24_19h04.43.473,vbt_B1_day2,2022.2.4,Win32,60.04202942,,,,,,,,,,,,,,,,,,,,,,,,,,,down,0,0.2319,,-0.015740712,-0.128703718,1,0,0,0.7105,0,97,97,116,1,besmet,images/br_besmet.png,images/cb_besmet.png,0,,,,,,,,,,,,,,,,,,,,,,
,,,,,,,2023-10-24_19h04.43.473,vbt_B1_day2,2022.2.4,Win32,60.04202942,,,,,,,,,,,,,,,,,,,,,,,,,,,down,0,1.2304,,-0.015740712,-0.128703718,1,0,0,1.0058,0,98,98,175,1,heengaan,images/br_heengaan.png,images/cb_heengaan.png,0,,,,,,,,,,,,,,,,,,,,,,
,,,,,,,2023-10-24_19h04.43.473,vbt_B1_day2,2022.2.4,Win32,60.04202942,,,,,,,,,,,,,,,,,,,,,,,,,,,down,0,1.0162,,-0.015740712,-0.128703718,1,0,0,0.7118,0,99,99,188,1,strekken,images/br_strekken.png,images/cb_strekken.png,0,,,,,,,,,,,,,,,,,,,,,,
,,,,,,,2023-10-24_19h04.43.473,vbt_B1_day2,2022.2.4,Win32,60.04202942,,,,,,,,,,,,,,,,,,,,,,,,,,,down,0,2.9378,,0.060185185,-0.125,1,0,0,0.8885,0,100,100,72,1,strak,images/br_strak.png,images/cb_strak.png,0,,,,,,,,,,,,,,,,,,,,,,
,,,,,,,2023-10-24_19h04.43.473,vbt_B1_day2,2022.2.4,Win32,60.04202942,,,,,,,,,,,,,,,,,,,,,,,,,,,down,0,1.9199,,0.060185185,-0.125,1,0,0,0.6155,0,101,101,169,1,oprotten,images/br_oprotten.png,images/cb_oprotten.png,0,,,,,,,,,,,,,,,,,,,,,,
,,,,,,,2023-10-24_19h04.43.473,vbt_B1_day2,2022.2.4,Win32,60.04202942,,,,,,,,,,,,,,,,,,,,,,,,,,,down,0,0.8997,,0.060185185,-0.125,1,0,0,0.6142,0,102,102,6,1,diep,images/br_diep.png,images/cb_diep.png,0,,,,,,,,,,,,,,,,,,,,,,
,,,,,,,2023-10-24_19h04.43.473,vbt_B1_day2,2022.2.4,Win32,60.04202942,,,,,,,,,,,,,,,,,,,,,,,,,,,down,0,15.9216,,0.060185185,-0.125,1,0,0,0.8071,0,103,103,178,1,huisdier,images/br_huisdier.png,images/cb_huisdier.png,1,huisdier,,,,,,,,,,,,,,,,,,,,,
,,,,,,,2023-10-24_19h04.43.473,vbt_B1_day2,2022.2.4,Win32,60.04202942,,,,,,,,,,,,,,,,,,,,,,,,,,,down,0,5.0043,,0.060185185,-0.125,1,0,0,0.6162,0,104,104,103,1,joggen,images/br_joggen.png,images/cb_joggen.png,0,,,,,,,,,,,,,,,,,,,,,,
,,,,,,,2023-10-24_19h04.43.473,vbt_B1_day2,2022.2.4,Win32,60.04202942,,,,,,,,,,,,,,,,,,,,,,,,,,,down,0,0.1406,,0.060185185,-0.125,1,0,0,0.6332,0,105,105,131,1,opzicht,images/br_opzicht.png,images/cb_opzicht.png,0,,,,,,,,,,,,,,,,,,,,,,
,,,,,,,2023-10-24_19h04.43.473,vbt_B1_day2,2022.2.4,Win32,60.04202942,,,,,,,,,,,,,,,,,,,,,,,,,,,down,0,0.8042,,0.060185185,-0.125,1,0,0,0.6164,0,106,106,148,1,smullen,images/br_smullen.png,images/cb_smullen.png,0,,,,,,,,,,,,,,,,,,,,,,
,,,,,,,2023-10-24_19h04.43.473,vbt_B1_day2,2022.2.4,Win32,60.04202942,,,,,,,,,,,,,,,,,,,,,,,,,,,down,0,7.352,,0.060185185,-0.125,1,0,0,0.7006,0,107,107,59,1,kring,images/br_kring.png,images/cb_kring.png,1,kring,,,,,,,,,,,,,,,,,,,,,
,,,,,,,2023-10-24_19h04.43.473,vbt_B1_day2,2022.2.4,Win32,60.04202942,,,,,,,,,,,,,,,,,,,,,,,,,,,down,0,0.4403,,0.060185185,-0.125,1,0,0,0.9001,0,108,108,114,1,vullen,images/br_vullen.png,images/cb_vullen.png,0,,,,,,,,,,,,,,,,,,,,,,
,,,,,,,2023-10-24_19h04.43.473,vbt_B1_day2,2022.2.4,Win32,60.04202942,,,,,,,,,,,,,,,,,,,,,,,,,,,down,0,0.4511,,0.060185185,-0.125,1,0,0,0.6229,0,109,109,7,1,geld,images/br_geld.png,images/cb_geld.png,0,,,,,,,,,,,,,,,,,,,,,,
,,,,,,,2023-10-24_19h04.43.473,vbt_B1_day2,2022.2.4,Win32,60.04202942,,,,,,,,,,,,,,,,,,,,,,,,,,,down,0,0.584,,0.060185185,-0.125,1,0,0,0.8492,0,110,110,108,1,excuus,images/br_excuus.png,images/cb_excuus.png,0,,,,,,,,,,,,,,,,,,,,,,
,,,,,,,2023-10-24_19h04.43.473,vbt_B1_day2,2022.2.4,Win32,60.04202942,,,,,,,,,,,,,,,,,,,,,,,,,,,down,0,1.2671,,0.060185185,-0.125,1,0,0,0.8171,0,111,111,146,1,opkomen,images/br_opkomen.png,images/cb_opkomen.png,0,,,,,,,,,,,,,,,,,,,,,,
,,,,,,,2023-10-24_19h04.43.473,vbt_B1_day2,2022.2.4,Win32,60.04202942,,,,,,,,,,,,,,,,,,,,,,,,,,,down,0,0.6206,,0.060185185,-0.125,1,0,0,0.7999,0,112,112,134,1,geliefd,images/br_geliefd.png,images/cb_geliefd.png,0,,,,,,,,,,,,,,,,,,,,,,
,,,,,,,2023-10-24_19h04.43.473,vbt_B1_day2,2022.2.4,Win32,60.04202942,,,,,,,,,,,,,,,,,,,,,,,,,,,down,0,0.4685,,0.060185185,-0.125,1,0,0,0.6327,0,113,113,90,1,geluid,images/br_geluid.png,images/cb_geluid.png,0,,,,,,,,,,,,,,,,,,,,,,
,,,,,,,2023-10-24_19h04.43.473,vbt_B1_day2,2022.2.4,Win32,60.04202942,,,,,,,,,,,,,,,,,,,,,,,,,,,down,0,1.4349,,0.060185185,-0.125,1,0,0,0.666,0,114,114,181,1,toegeven,images/br_toegeven.png,images/cb_toegeven.png,0,,,,,,,,,,,,,,,,,,,,,,
,,,,,,,2023-10-24_19h04.43.473,vbt_B1_day2,2022.2.4,Win32,60.04202942,,,,,,,,,,,,,,,,,,,,,,,,,,,down,0,0.7678,,0.060185185,-0.125,1,0,0,0.6161,0,115,115,171,1,aarzelen,images/br_aarzelen.png,images/cb_aarzelen.png,0,,,,,,,,,,,,,,,,,,,,,,
,,,,,,,2023-10-24_19h04.43.473,vbt_B1_day2,2022.2.4,Win32,60.04202942,,,,,,,,,,,,,,,,,,,,,,,,,,,down,0,0.2505,,0.060185185,-0.125,1,0,0,0.5664,0,116,116,25,1,plek,images/br_plek.png,images/cb_plek.png,0,,,,,,,,,,,,,,,,,,,,,,
,,,,,,,2023-10-24_19h04.43.473,vbt_B1_day2,2022.2.4,Win32,60.04202942,,,,,,,,,,,,,,,,,,,,,,,,,,,down,0,1.1175,,0.060185185,-0.125,1,0,0,0.5669,0,117,117,135,1,gedicht,images/br_gedicht.png,images/cb_gedicht.png,0,,,,,,,,,,,,,,,,,,,,,,
,,,,,,,2023-10-24_19h04.43.473,vbt_B1_day2,2022.2.4,Win32,60.04202942,,,,,,,,,,,,,,,,,,,,,,,,,,,down,0,0.6341,,0.060185185,-0.125,1,0,0,0.6327,0,118,118,26,1,leuk,images/br_leuk.png,images/cb_leuk.png,0,,,,,,,,,,,,,,,,,,,,,,
,,,,,,,2023-10-24_19h04.43.473,vbt_B1_day2,2022.2.4,Win32,60.04202942,,,,,,,,,,,,,,,,,,,,,,,,,,,down,0,0.1698,,0.060185185,-0.125,1,0,0,0.5496,0,119,119,0,1,slak,images/br_slak.png,images/cb_slak.png,0,,,,,,,,,,,,,,,,,,,,,,
,,,,,,,2023-10-24_19h04.43.473,vbt_B1_day2,2022.2.4,Win32,60.04202942,,,,,,,,,,,,,,,,,,,,,,,,,,,down,0,0.5506,,0.060185185,-0.125,1,0,0,0.5668,0,120,120,126,1,kasteel,images/br_kasteel.png,images/cb_kasteel.png,0,,,,,,,,,,,,,,,,,,,,,,
,,,,,,,2023-10-24_19h04.43.473,vbt_B1_day2,2022.2.4,Win32,60.04202942,,,,,,,,,,,,,,,,,,,,,,,,,,,down,0,1.6176,,0.060185185,-0.125,1,0,0,0.4834,0,121,121,95,1,vreten,images/br_vreten.png,images/cb_vreten.png,0,,,,,,,,,,,,,,,,,,,,,,
,,,,,,,2023-10-24_19h04.43.473,vbt_B1_day2,2022.2.4,Win32,60.04202942,,,,,,,,,,,,,,,,,,,,,,,,,,,down,0,0.1344,,0.060185185,-0.125,1,0,0,0.666,0,122,122,22,1,stof,images/br_stof.png,images/cb_stof.png,0,,,,,,,,,,,,,,,,,,,,,,
,,,,,,,2023-10-24_19h04.43.473,vbt_B1_day2,2022.2.4,Win32,60.04202942,,,,,,,,,,,,,,,,,,,,,,,,,,,down,0,0.0677,,0.060185185,-0.125,1,0,0,0.6168,0,123,123,119,1,liefje,images/br_liefje.png,images/cb_liefje.png,0,,,,,,,,,,,,,,,,,,,,,,
,,,,,,,2023-10-24_19h04.43.473,vbt_B1_day2,2022.2.4,Win32,60.04202942,,,,,,,,,,,,,,,,,,,,,,,,,,,down,0,0.669,,0.060185185,-0.125,1,0,0,0.582,0,124,124,39,1,laag,images/br_laag.png,images/cb_laag.png,0,,,,,,,,,,,,,,,,,,,,,,
,,,,,,,2023-10-24_19h04.43.473,vbt_B1_day2,2022.2.4,Win32,60.04202942,,,,,,,,,,,,,,,,,,,,,,,,,,,down,0,0.6676,,0.060185185,-0.125,1,0,0,0.6834,0,125,125,195,1,middelen,images/br_middelen.png,images/cb_middelen.png,0,,,,,,,,,,,,,,,,,,,,,,
,,,,,,,2023-10-24_19h04.43.473,vbt_B1_day2,2022.2.4,Win32,60.04202942,,,,,,,,,,,,,,,,,,,,,,,,,,,down,0,0.5199,,0.060185185,-0.125,1,0,0,1.1658,0,126,126,100,1,geduld,images/br_geduld.png,images/cb_geduld.png,0,,,,,,,,,,,,,,,,,,,,,,
,,,,,,,2023-10-24_19h04.43.473,vbt_B1_day2,2022.2.4,Win32,60.04202942,,,,,,,,,,,,,,,,,,,,,,,,,,,down,0,0.3734,,0.060185185,-0.125,1,0,0,0.8833,0,127,127,180,1,openbaar,images/br_openbaar.png,images/cb_openbaar.png,0,,,,,,,,,,,,,,,,,,,,,,
,,,,,,,2023-10-24_19h04.43.473,vbt_B1_day2,2022.2.4,Win32,60.04202942,,,,,,,,,,,,,,,,,,,,,,,,,,,down,0,5.0009,,0.060185185,-0.125,1,0,0,0.8167,0,128,128,138,1,akkoord,images/br_akkoord.png,images/cb_akkoord.png,1,akkoord,,,,,,,,,,,,,,,,,,,,,
,,,,,,,2023-10-24_19h04.43.473,vbt_B1_day2,2022.2.4,Win32,60.04202942,,,,,,,,,,,,,,,,,,,,,,,,,,,down,0,0.4182,,0.060185185,-0.125,1,0,0,0.5998,0,129,129,37,1,mijn,images/br_mijn.png,images/cb_mijn.png,0,,,,,,,,,,,,,,,,,,,,,,
,,,,,,,2023-10-24_19h04.43.473,vbt_B1_day2,2022.2.4,Win32,60.04202942,,,,,,,,,,,,,,,,,,,,,,,,,,,down,0,0.068,,0.060185185,-0.125,1,0,0,1.1494,0,130,130,11,1,mode,images/br_mode.png,images/cb_mode.png,0,,,,,,,,,,,,,,,,,,,,,,
,,,,,,,2023-10-24_19h04.43.473,vbt_B1_day2,2022.2.4,Win32,60.04202942,,,,,,,,,,,,,,,,,,,,,,,,,,,down,0,8.5844,,0.060185185,-0.125,1,0,0,0.6,0,131,131,139,1,stiekem,images/br_stiekem.png,images/cb_stiekem.png,1,stiekem,,,,,,,,,,,,,,,,,,,,,
,,,,,,,2023-10-24_19h04.43.473,vbt_B1_day2,2022.2.4,Win32,60.04202942,,,,,,,,,,,,,,,,,,,,,,,,,,,down,0,0.5993,,0.097222222,-0.097222222,1,0,0,0.5366,0,132,132,28,1,stal,images/br_stal.png,images/cb_stal.png,0,,,,,,,,,,,,,,,,,,,,,,
,,,,,,,2023-10-24_19h04.43.473,vbt_B1_day2,2022.2.4,Win32,60.04202942,,,,,,,,,,,,,,,,,,,,,,,,,,,down,0,0.4672,,0.097222222,-0.097222222,1,0,0,0.6329,0,133,133,118,1,vinger,images/br_vinger.png,images/cb_vinger.png,0,,,,,,,,,,,,,,,,,,,,,,
,,,,,,,2023-10-24_19h04.43.473,vbt_B1_day2,2022.2.4,Win32,60.04202942,,,,,,,,,,,,,,,,,,,,,,,,,,,down,0,0.716,,0.097222222,-0.097222222,1,0,0,0.6097,0,134,134,82,1,muziek,images/br_muziek.png,images/cb_muziek.png,0,,,,,,,,,,,,,,,,,,,,,,
,,,,,,,2023-10-24_19h04.43.473,vbt_B1_day2,2022.2.4,Win32,60.04202942,,,,,,,,,,,,,,,,,,,,,,,,,,,down,0,1.1165,,0.097222222,-0.097222222,1,0,0,0.5929,0,135,135,3,1,mand,images/br_mand.png,images/cb_mand.png,0,,,,,,,,,,,,,,,,,,,,,,
,,,,,,,2023-10-24_19h04.43.473,vbt_B1_day2,2022.2.4,Win32,60.04202942,,,,,,,,,,,,,,,,,,,,,,,,,,,down,0,0.5178,,0.097222222,-0.097222222,1,0,0,0.6673,0,136,136,12,1,kust,images/br_kust.png,images/cb_kust.png,0,,,,,,,,,,,,,,,,,,,,,,
,,,,,,,2023-10-24_19h04.43.473,vbt_B1_day2,2022.2.4,Win32,60.04202942,,,,,,,,,,,,,,,,,,,,,,,,,,,down,0,0.399,,0.097222222,-0.097222222,1,0,0,0.9342,0,137,137,76,1,afval,images/br_afval.png,images/cb_afval.png,0,,,,,,,,,,,,,,,,,,,,,,
,,,,,,,2023-10-24_19h04.43.473,vbt_B1_day2,2022.2.4,Win32,60.04202942,,,,,,,,,,,,,,,,,,,,,,,,,,,down,0,1.2222,,0.097222222,-0.097222222,1,0,0,0.5846,0,138,138,23,1,zout,images/br_zout.png,images/cb_zout.png,0,,,,,,,,,,,,,,,,,,,,,,
,,,,,,,2023-10-24_19h04.43.473,vbt_B1_day2,2022.2.4,Win32,60.04202942,,,,,,,,,,,,,,,,,,,,,,,,,,,down,0,1.183,,0.09629631,-0.09629631,1,0,0,0.6924,0,139,139,88,1,boeien,images/br_boeien.png,images/cb_boeien.png,0,,,,,,,,,,,,,,,,,,,,,,
,,,,,,,2023-10-24_19h04.43.473,vbt_B1_day2,2022.2.4,Win32,60.04202942,,,,,,,,,,,,,,,,,,,,,,,,,,,down,0,0.3332,,0.095370399,-0.09629631,1,0,0,0.6086,0,140,140,27,1,dans,images/br_dans.png,images/cb_dans.png,0,,,,,,,,,,,,,,,,,,,,,,
,,,,,,,2023-10-24_19h04.43.473,vbt_B1_day2,2022.2.4,Win32,60.04202942,,,,,,,,,,,,,,,,,,,,,,,,,,,down,0,0.6162,,0.095370399,-0.09629631,1,0,0,0.5932,0,141,141,24,1,jurk,images/br_jurk.png,images/cb_jurk.png,0,,,,,,,,,,,,,,,,,,,,,,
,,,,,,,2023-10-24_19h04.43.473,vbt_B1_day2,2022.2.4,Win32,60.04202942,,,,,,,,,,,,,,,,,,,,,,,,,,,down,0,0.3343,,0.095370399,-0.09629631,1,0,0,0.573,0,142,142,78,1,leren,images/br_leren.png,images/cb_leren.png,0,,,,,,,,,,,,,,,,,,,,,,
,,,,,,,2023-10-24_19h04.43.473,vbt_B1_day2,2022.2.4,Win32,60.04202942,,,,,,,,,,,,,,,,,,,,,,,,,,,down,0,1.7046,,0.095370399,-0.09629631,1,0,0,0.7333,0,143,143,164,1,anarchie,images/br_anarchie.png,images/cb_anarchie.png,0,,,,,,,,,,,,,,,,,,,,,,
,,,,,,,2023-10-24_19h04.43.473,vbt_B1_day2,2022.2.4,Win32,60.04202942,,,,,,,,,,,,,,,,,,,,,,,,,,,down,0,0.536,,0.095370399,-0.092592593,1,0,0,1.3167,0,144,144,91,1,gezond,images/br_gezond.png,images/cb_gezond.png,0,,,,,,,,,,,,,,,,,,,,,,
,,,,,,,2023-10-24_19h04.43.473,vbt_B1_day2,2022.2.4,Win32,60.04202942,,,,,,,,,,,,,,,,,,,,,,,,,,,down,0,0.8718,,0.095370399,-0.092592593,1,0,0,0.5499,0,145,145,49,1,laken,images/br_laken.png,images/cb_laken.png,0,,,,,,,,,,,,,,,,,,,,,,
,,,,,,,2023-10-24_19h04.43.473,vbt_B1_day2,2022.2.4,Win32,60.04202942,,,,,,,,,,,,,,,,,,,,,,,,,,,down,0,0.0521,,0.095370399,-0.092592593,1,0,0,0.7333,0,146,146,193,1,weeshuis,images/br_weeshuis.png,images/cb_weeshuis.png,0,,,,,,,,,,,,,,,,,,,,,,
,,,,,,,2023-10-24_19h04.43.473,vbt_B1_day2,2022.2.4,Win32,60.04202942,,,,,,,,,,,,,,,,,,,,,,,,,,,down,0,1.3988,,0.095370399,-0.092592593,1,0,0,0.7833,0,147,147,62,1,knaap,images/br_knaap.png,images/cb_knaap.png,0,,,,,,,,,,,,,,,,,,,,,,
,,,,,,,2023-10-24_19h04.43.473,vbt_B1_day2,2022.2.4,Win32,60.04202942,,,,,,,,,,,,,,,,,,,,,,,,,,,down,0,0.6009,,0.095370399,-0.092592593,1,0,0,0.5159,0,148,148,52,1,wagon,images/br_wagon.png,images/cb_wagon.png,0,,,,,,,,,,,,,,,,,,,,,,
,,,,,,,2023-10-24_19h04.43.473,vbt_B1_day2,2022.2.4,Win32,60.04202942,,,,,,,,,,,,,,,,,,,,,,,,,,,down,0,0.869,,0.095370399,-0.092592593,1,0,0,0.5997,0,149,149,197,1,spanning,images/br_spanning.png,images/cb_spanning.png,0,,,,,,,,,,,,,,,,,,,,,,
,,,,,,,2023-10-24_19h04.43.473,vbt_B1_day2,2022.2.4,Win32,60.04202942,,,,,,,,,,,,,,,,,,,,,,,,,,,down,0,3.3732,,0.095370399,-0.092592593,1,0,0,1.1162,0,150,150,101,1,staren,images/br_staren.png,images/cb_staren.png,0,,,,,,,,,,,,,,,,,,,,,,
,,,,,,,2023-10-24_19h04.43.473,vbt_B1_day2,2022.2.4,Win32,60.04202942,,,,,,,,,,,,,,,,,,,,,,,,,,,down,0,8.73,,-0.027777778,-0.199074074,1,0,0,1.4202,0,151,151,58,1,tekst,images/br_tekst.png,images/cb_tekst.png,1,tekst,,,,,,,,,,,,,,,,,,,,,
,,,,,,,2023-10-24_19h04.43.473,vbt_B1_day2,2022.2.4,Win32,60.04202942,,,,,,,,,,,,,,,,,,,,,,,,,,,down,0,0.9031,,-0.027777778,-0.199074074,1,0,0,1.1001,0,152,152,93,1,waarop,images/br_waarop.png,images/cb_waarop.png,0,,,,,,,,,,,,,,,,,,,,,,
,,,,,,,2023-10-24_19h04.43.473,vbt_B1_day2,2022.2.4,Win32,60.04202942,,,,,,,,,,,,,,,,,,,,,,,,,,,down,0,2.7053,,-0.027777778,-0.199074074,1,0,0,0.6998,0,153,153,125,1,aanzien,images/br_aanzien.png,images/cb_aanzien.png,0,,,,,,,,,,,,,,,,,,,,,,
,,,,,,,2023-10-24_19h04.43.473,vbt_B1_day2,2022.2.4,Win32,60.04202942,,,,,,,,,,,,,,,,,,,,,,,,,,,down,0,1.626,,-0.027777778,-0.199074074,1,0,0,0.8499,0,154,154,61,1,groen,images/br_groen.png,images/cb_groen.png,0,,,,,,,,,,,,,,,,,,,,,,
,,,,,,,2023-10-24_19h04.43.473,vbt_B1_day2,2022.2.4,Win32,60.04202942,,,,,,,,,,,,,,,,,,,,,,,,,,,down,0,2.9337,,-0.027777778,-0.199074074,1,0,0,0.7427,0,155,155,157,1,uitlaat,images/br_uitlaat.png,images/cb_uitlaat.png,0,,,,,,,,,,,,,,,,,,,,,,
,,,,,,,2023-10-24_19h04.43.473,vbt_B1_day2,2022.2.4,Win32,60.04202942,,,,,,,,,,,,,,,,,,,,,,,,,,,down,0,6.4331,,-0.027777778,-0.199074074,1,0,0,0.7005,0,156,156,47,1,kabel,images/br_kabel.png,images/cb_kabel.png,0,,,,,,,,,,,,,,,,,,,,,,
,,,,,,,2023-10-24_19h04.43.473,vbt_B1_day2,2022.2.4,Win32,60.04202942,,,,,,,,,,,,,,,,,,,,,,,,,,,down,0,1.9497,,-0.027777778,-0.199074074,1,0,0,0.6842,0,157,157,17,1,taal,images/br_taal.png,images/cb_taal.png,1,taal,,,,,,,,,,,,,,,,,,,,,
,,,,,,,2023-10-24_19h04.43.473,vbt_B1_day2,2022.2.4,Win32,60.04202942,,,,,,,,,,,,,,,,,,,,,,,,,,,down,0,21.5172,,-0.029629601,-0.20185188,1,0,0,0.5961,0,158,158,144,1,eetlust,images/br_eetlust.png,images/cb_eetlust.png,0,,,,,,,,,,,,,,,,,,,,,,
,,,,,,,2023-10-24_19h04.43.473,vbt_B1_day2,2022.2.4,Win32,60.04202942,,,,,,,,,,,,,,,,,,,,,,,,,,,down,0,0.2662,,-0.029629601,-0.20185188,1,0,0,0.7768,0,159,159,5,1,blad,images/br_blad.png,images/cb_blad.png,0,,,,,,,,,,,,,,,,,,,,,,
,,,,,,,2023-10-24_19h04.43.473,vbt_B1_day2,2022.2.4,Win32,60.04202942,,,,,,,,,,,,,,,,,,,,,,,,,,,down,0,0.7996,,-0.029629601,-0.20185188,1,0,0,0.7335,0,160,160,14,1,rijp,images/br_rijp.png,images/cb_rijp.png,0,,,,,,,,,,,,,,,,,,,,,,
,,,,,,,2023-10-24_19h04.43.473,vbt_B1_day2,2022.2.4,Win32,60.04202942,,,,,,,,,,,,,,,,,,,,,,,,,,,down,0,9.1041,,0.139814801,-0.10092594,1,0,0,0.9424,0,161,161,150,1,gegeven,images/br_gegeven.png,images/cb_gegeven.png,0,,,,,,,,,,,,,,,,,,,,,,
,,,,,,,2023-10-24_19h04.43.473,vbt_B1_day2,2022.2.4,Win32,60.04202942,,,,,,,,,,,,,,,,,,,,,,,,,,,down,0,28.934,,0.139814801,-0.10092594,1,0,0,0.7275,0,162,162,179,1,woestijn,images/br_woestijn.png,images/cb_woestijn.png,1,woestijn,,,,,,,,,,,,,,,,,,,,,
,,,,,,,2023-10-24_19h04.43.473,vbt_B1_day2,2022.2.4,Win32,60.04202942,,,,,,,,,,,,,,,,,,,,,,,,,,,down,0,0.8944,,0.139814801,-0.10092594,1,0,0,0.7476,0,163,163,185,1,mijnheer,images/br_mijnheer.png,images/cb_mijnheer.png,0,,,,,,,,,,,,,,,,,,,,,,
,,,,,,,2023-10-24_19h04.43.473,vbt_B1_day2,2022.2.4,Win32,60.04202942,,,,,,,,,,,,,,,,,,,,,,,,,,,down,0,1.1393,,0.139814801,-0.10092594,1,0,0,1.2666,0,164,164,149,1,redding,images/br_redding.png,images/cb_redding.png,0,,,,,,,,,,,,,,,,,,,,,,
,,,,,,,2023-10-24_19h04.43.473,vbt_B1_day2,2022.2.4,Win32,60.04202942,,,,,,,,,,,,,,,,,,,,,,,,,,,down,0,6.8781,,0.139814801,-0.10092594,1,0,0,0.6667,0,165,165,19,1,geit,images/br_geit.png,images/cb_geit.png,1,geit,,,,,,,,,,,,,,,,,,,,,
,,,,,,,2023-10-24_19h04.43.473,vbt_B1_day2,2022.2.4,Win32,60.04202942,,,,,,,,,,,,,,,,,,,,,,,,,,,down,0,0.7657,,0.139814801,-0.10092594,1,0,0,0.6798,0,166,166,141,1,knielen,images/br_knielen.png,images/cb_knielen.png,0,,,,,,,,,,,,,,,,,,,,,,
,,,,,,,2023-10-24_19h04.43.473,vbt_B1_day2,2022.2.4,Win32,60.04202942,,,,,,,,,,,,,,,,,,,,,,,,,,,down,0,0.4056,,0.139814801,-0.10092594,1,0,0,1.4996,0,167,167,42,1,bleek,images/br_bleek.png,images/cb_bleek.png,0,,,,,,,,,,,,,,,,,,,,,,
,,,,,,,2023-10-24_19h04.43.473,vbt_B1_day2,2022.2.4,Win32,60.04202942,,,,,,,,,,,,,,,,,,,,,,,,,,,down,0,0.7164,,0.139814801,-0.10092594,1,0,0,1.1099,0,168,168,105,1,wijlen,images/br_wijlen.png,images/cb_wijlen.png,0,,,,,,,,,,,,,,,,,,,,,,
,,,,,,,2023-10-24_19h04.43.473,vbt_B1_day2,2022.2.4,Win32,60.04202942,,,,,,,,,,,,,,,,,,,,,,,,,,,down,0,9.2505,,0.139814801,-0.10092594,1,0,0,0.6528,0,169,169,29,1,baas,images/br_baas.png,images/cb_baas.png,0,,,,,,,,,,,,,,,,,,,,,,
,,,,,,,2023-10-24_19h04.43.473,vbt_B1_day2,2022.2.4,Win32,60.04202942,,,,,,,,,,,,,,,,,,,,,,,,,,,down,0,3.6872,,0.139814801,-0.10092594,1,0,0,0.7931,0,170,170,41,1,maken,images/br_maken.png,images/cb_maken.png,0,,,,,,,,,,,,,,,,,,,,,,
,,,,,,,2023-10-24_19h04.43.473,vbt_B1_day2,2022.2.4,Win32,60.04202942,,,,,,,,,,,,,,,,,,,,,,,,,,,down,0,1.9215,,0.139814801,-0.10092594,1,0,0,0.7698,0,171,171,186,1,voorraad,images/br_voorraad.png,images/cb_voorraad.png,0,,,,,,,,,,,,,,,,,,,,,,
,,,,,,,2023-10-24_19h04.43.473,vbt_B1_day2,2022.2.4,Win32,60.04202942,,,,,,,,,,,,,,,,,,,,,,,,,,,down,0,1.9066,,0.139814801,-0.10092594,1,0,0,0.6664,0,172,172,152,1,afnemen,images/br_afnemen.png,images/cb_afnemen.png,0,,,,,,,,,,,,,,,,,,,,,,
,,,,,,,2023-10-24_19h04.43.473,vbt_B1_day2,2022.2.4,Win32,60.04202942,,,,,,,,,,,,,,,,,,,,,,,,,,,down,0,0.335,,0.139814801,-0.10092594,1,0,0,0.8832,0,173,173,165,1,feestdag,images/br_feestdag.png,images/cb_feestdag.png,0,,,,,,,,,,,,,,,,,,,,,,
,,,,,,,2023-10-24_19h04.43.473,vbt_B1_day2,2022.2.4,Win32,60.04202942,,,,,,,,,,,,,,,,,,,,,,,,,,,down,0,1.6386,,0.139814801,-0.10092594,1,0,0,0.7333,0,174,174,63,1,flirt,images/br_flirt.png,images/cb_flirt.png,0,,,,,,,,,,,,,,,,,,,,,,
,,,,,,,2023-10-24_19h04.43.473,vbt_B1_day2,2022.2.4,Win32,60.04202942,,,,,,,,,,,,,,,,,,,,,,,,,,,down,0,5.8878,,0.139814801,-0.10092594,1,0,0,0.5659,0,175,175,57,1,steek,images/br_steek.png,images/cb_steek.png,1,steek,,,,,,,,,,,,,,,,,,,,,
,,,,,,,2023-10-24_19h04.43.473,vbt_B1_day2,2022.2.4,Win32,60.04202942,,,,,,,,,,,,,,,,,,,,,,,,,,,down,0,1.3358,,0.139814801,-0.10092594,1,0,0,0.6494,0,176,176,127,1,doodmoe,images/br_doodmoe.png,images/cb_doodmoe.png,0,,,,,,,,,,,,,,,,,,,,,,
,,,,,,,2023-10-24_19h04.43.473,vbt_B1_day2,2022.2.4,Win32,60.04202942,,,,,,,,,,,,,,,,,,,,,,,,,,,down,0,1.5667,,0.139814801,-0.10092594,1,0,0,1.4121,0,177,177,111,1,ticket,images/br_ticket.png,images/cb_ticket.png,0,,,,,,,,,,,,,,,,,,,,,,
,,,,,,,2023-10-24_19h04.43.473,vbt_B1_day2,2022.2.4,Win32,60.04202942,,,,,,,,,,,,,,,,,,,,,,,,,,,down,0,0.6963,,0.139814801,-0.10092594,1,0,0,0.74,0,178,178,170,1,schatten,images/br_schatten.png,images/cb_schatten.png,0,,,,,,,,,,,,,,,,,,,,,,
,,,,,,,2023-10-24_19h04.43.473,vbt_B1_day2,2022.2.4,Win32,60.04202942,,,,,,,,,,,,,,,,,,,,,,,,,,,down,0,0.8513,,0.276851866,-0.125925912,1,0,0,0.7168,0,179,179,9,1,hier,images/br_hier.png,images/cb_hier.png,0,,,,,,,,,,,,,,,,,,,,,,
,,,,,,,2023-10-24_19h04.43.473,vbt_B1_day2,2022.2.4,Win32,60.04202942,,,,,,,,,,,,,,,,,,,,,,,,,,,down,0,4.6167,,0.276851866,-0.125925912,1,0,0,0.6759,0,180,180,73,1,volop,images/br_volop.png,images/cb_volop.png,0,,,,,,,,,,,,,,,,,,,,,,
,,,,,,,2023-10-24_19h04.43.473,vbt_B1_day2,2022.2.4,Win32,60.04202942,,,,,,,,,,,,,,,,,,,,,,,,,,,down,0,3.2475,,0.276851866,-0.125925912,1,0,0,0.5532,0,181,181,16,1,ziek,images/br_ziek.png,images/cb_ziek.png,1,ziek,,,,,,,,,,,,,,,,,,,,,
,,,,,,,2023-10-24_19h04.43.473,vbt_B1_day2,2022.2.4,Win32,60.04202942,,,,,,,,,,,,,,,,,,,,,,,,,,,down,0,1.9857,,0.276851866,-0.125925912,1,0,0,0.7333,0,182,182,33,1,vlek,images/br_vlek.png,images/cb_vlek.png,0,,,,,,,,,,,,,,,,,,,,,,
,,,,,,,2023-10-24_19h04.43.473,vbt_B1_day2,2022.2.4,Win32,60.04202942,,,,,,,,,,,,,,,,,,,,,,,,,,,down,0,22.9922,,0.143518519,-0.26944443,1,0,0,0.8116,0,183,183,136,1,waarbij,images/br_waarbij.png,images/cb_waarbij.png,1,waarbij,,,,,,,,,,,,,,,,,,,,,
,,,,,,,2023-10-24_19h04.43.473,vbt_B1_day2,2022.2.4,Win32,60.04202942,,,,,,,,,,,,,,,,,,,,,,,,,,,down,0,0.6782,,0.143518519,-0.271296325,1,0,0,1.5496,0,184,184,21,1,mist,images/br_mist.png,images/cb_mist.png,0,,,,,,,,,,,,,,,,,,,,,,
,,,,,,,2023-10-24_19h04.43.473,vbt_B1_day2,2022.2.4,Win32,60.04202942,,,,,,,,,,,,,,,,,,,,,,,,,,,down,0,0.2567,,0.143518519,-0.271296325,1,0,0,0.6667,0,185,185,191,1,opheffen,images/br_opheffen.png,images/cb_opheffen.png,0,,,,,,,,,,,,,,,,,,,,,,
,,,,,,,2023-10-24_19h04.43.473,vbt_B1_day2,2022.2.4,Win32,60.04202942,,,,,,,,,,,,,,,,,,,,,,,,,,,down,0,1.6227,,0.143518519,-0.271296325,1,0,0,0.8832,0,186,186,89,1,slapen,images/br_slapen.png,images/cb_slapen.png,0,,,,,,,,,,,,,,,,,,,,,,
,,,,,,,2023-10-24_19h04.43.473,vbt_B1_day2,2022.2.4,Win32,60.04202942,,,,,,,,,,,,,,,,,,,,,,,,,,,down,0,0.6452,,0.143518519,-0.271296325,1,0,0,1.0495,0,187,187,55,1,praat,images/br_praat.png,images/cb_praat.png,0,,,,,,,,,,,,,,,,,,,,,,
,,,,,,,2023-10-24_19h04.43.473,vbt_B1_day2,2022.2.4,Win32,60.04202942,,,,,,,,,,,,,,,,,,,,,,,,,,,down,0,1.6946,,0.143518519,-0.271296325,1,0,0,0.6164,0,188,188,199,1,beseffen,images/br_beseffen.png,images/cb_beseffen.png,0,,,,,,,,,,,,,,,,,,,,,,
,,,,,,,2023-10-24_19h04.43.473,vbt_B1_day2,2022.2.4,Win32,60.04202942,,,,,,,,,,,,,,,,,,,,,,,,,,,down,0,1.8544,,0.143518519,-0.271296325,1,0,0,1.067,0,189,189,182,1,bijkomen,images/br_bijkomen.png,images/cb_bijkomen.png,0,,,,,,,,,,,,,,,,,,,,,,
,,,,,,,2023-10-24_19h04.43.473,vbt_B1_day2,2022.2.4,Win32,60.04202942,,,,,,,,,,,,,,,,,,,,,,,,,,,down,0,2.8874,,0.143518519,-0.271296325,1,0,0,0.6833,0,190,190,147,1,komisch,images/br_komisch.png,images/cb_komisch.png,0,,,,,,,,,,,,,,,,,,,,,,
,,,,,,,2023-10-24_19h04.43.473,vbt_B1_day2,2022.2.4,Win32,60.04202942,,,,,,,,,,,,,,,,,,,,,,,,,,,down,0,3.3066,,0.143518519,-0.271296325,1,0,0,0.716,0,191,191,86,1,woning,images/br_woning.png,images/cb_woning.png,0,,,,,,,,,,,,,,,,,,,,,,
,,,,,,,2023-10-24_19h04.43.473,vbt_B1_day2,2022.2.4,Win32,60.04202942,,,,,,,,,,,,,,,,,,,,,,,,,,,down,0,2.3552,,0.145370413,-0.273148148,1,0,0,0.6497,0,192,192,70,1,ijdel,images/br_ijdel.png,images/cb_ijdel.png,0,,,,,,,,,,,,,,,,,,,,,,
,,,,,,,2023-10-24_19h04.43.473,vbt_B1_day2,2022.2.4,Win32,60.04202942,,,,,,,,,,,,,,,,,,,,,,,,,,,down,0,4.1517,,0.145370413,-0.273148148,1,0,0,0.5579,0,193,193,56,1,traag,images/br_traag.png,images/cb_traag.png,1,traag,,,,,,,,,,,,,,,,,,,,,
,,,,,,,2023-10-24_19h04.43.473,vbt_B1_day2,2022.2.4,Win32,60.04202942,,,,,,,,,,,,,,,,,,,,,,,,,,,down,0,2.035,,0.145370413,-0.275000042,1,0,0,0.6,0,194,194,13,1,kaal,images/br_kaal.png,images/cb_kaal.png,0,,,,,,,,,,,,,,,,,,,,,,
,,,,,,,2023-10-24_19h04.43.473,vbt_B1_day2,2022.2.4,Win32,60.04202942,,,,,,,,,,,,,,,,,,,,,,,,,,,down,0,1.6882,,0.145370413,-0.275000042,1,0,0,0.75,0,195,195,10,1,leek,images/br_leek.png,images/cb_leek.png,0,,,,,,,,,,,,,,,,,,,,,,
,,,,,,,2023-10-24_19h04.43.473,vbt_B1_day2,2022.2.4,Win32,60.04202942,,,,,,,,,,,,,,,,,,,,,,,,,,,down,0,3.3521,,0.145370413,-0.275000042,1,0,0,1.0499,0,196,196,168,1,bisschop,images/br_bisschop.png,images/cb_bisschop.png,0,,,,,,,,,,,,,,,,,,,,,,
,,,,,,,2023-10-24_19h04.43.473,vbt_B1_day2,2022.2.4,Win32,60.04202942,,,,,,,,,,,,,,,,,,,,,,,,,,,down,0,1.4518,,0.145370413,-0.275000042,1,0,0,1.0168,0,197,197,190,1,goedkoop,images/br_goedkoop.png,images/cb_goedkoop.png,0,,,,,,,,,,,,,,,,,,,,,,
,,,,,,,2023-10-24_19h04.43.473,vbt_B1_day2,2022.2.4,Win32,60.04202942,,,,,,,,,,,,,,,,,,,,,,,,,,,down,0,6.0513,,0.145370413,-0.275000042,1,0,0,0.8162,0,198,198,48,1,steel,images/br_steel.png,images/cb_steel.png,0,,,,,,,,,,,,,,,,,,,,,,
,,,,,,,2023-10-24_19h04.43.473,vbt_B1_day2,2022.2.4,Win32,60.04202942,,,,,,,,,,,,,,,,,,,,,,,,,,,down,0,21.14,,0.459259316,-0.417592578,1,0,0,0.6833,0,199,199,177,1,maaltijd,images/br_maaltijd.png,images/cb_maaltijd.png,1,maaltijd,,,,,,,,,,,,,,,,,,,,,
,,,,,,,2023-10-24_19h04.43.473,vbt_B1_day2,2022.2.4,Win32,60.04202942,,,,,,,,,,,,,,,,,,,,,,,,,,,,,,,,,,,,,,,,,,,,,,,-0.104629587,-0.138888889,1,0,0,,,,,,,,,,,,,,,,
,,,,,,,2023-10-24_19h04.43.473,vbt_B1_day2,2022.2.4,Win32,60.04202942,,,,,,,,,,,,,,,,,,,,,,,,,,,,,,,,,,,,,,,,,,,,,,,,,,,,-0.123148106,-0.207407422,1,0,0,,,,,,,,,,,
,,,,,,,2023-10-24_19h04.43.473,vbt_B1_day2,2022.2.4,Win32,60.04202942,,,,,,,,,,,,,,,,,,,,,,,,,,,,,,,,,,,,,,,,,,doodmoe,images/br_doodmoe.png,images/cb_doodmoe.png,,.oo..oo.,,,,,,,,,,,0.062962991,-0.172222208,1,0,0,.oo..oo.,0,0,0,15,1
,,,,,,,2023-10-24_19h04.43.473,vbt_B1_day2,2022.2.4,Win32,60.04202942,,,,,,,,,,,,,,,,,,,,,,,,,,,,,,,,,,,,,,,,,,bereuwen,images/br_bereuwen.png,images/cb_bereuwen.png,,berem...,,,,,,,,,,,0.062962991,-0.172222208,1,0,0,berem...,0,1,1,39,1
,,,,,,,2023-10-24_19h04.43.473,vbt_B1_day2,2022.2.4,Win32,60.04202942,,,,,,,,,,,,,,,,,,,,,,,,,,,,,,,,,,,,,,,,,,wijve,images/br_wijve.png,images/cb_wijve.png,,wiede,,,,,,,,,,,0.018518519,-0.12037037,1,0,0,wiede,0,2,2,27,1
,,,,,,,2023-10-24_19h04.43.473,vbt_B1_day2,2022.2.4,Win32,60.04202942,,,,,,,,,,,,,,,,,,,,,,,,,,,,,,,,,,,,,,,,,,woning,images/br_woning.png,images/cb_woning.png,,woning,,,,,,,,,,,-0.022222236,-0.12962963,1,0,0,woning,0,3,3,10,1
,,,,,,,2023-10-24_19h04.43.473,vbt_B1_day2,2022.2.4,Win32,60.04202942,,,,,,,,,,,,,,,,,,,,,,,,,,,,,,,,,,,,,,,,,,tweeling,images/br_tweeling.png,images/cb_tweeling.png,,tweeling,,,,,,,,,,,0.042592578,-0.125,1,0,0,tweeling,0,4,4,58,1
,,,,,,,2023-10-24_19h04.43.473,vbt_B1_day2,2022.2.4,Win32,60.04202942,,,,,,,,,,,,,,,,,,,,,,,,,,,,,,,,,,,,,,,,,,joes,images/br_joes.png,images/cb_joes.png,,.ois,,,,,,,,,,,0.020370413,-0.078703704,1,0,0,.ois,0,5,5,20,1
,,,,,,,2023-10-24_19h04.43.473,vbt_B1_day2,2022.2.4,Win32,60.04202942,,,,,,,,,,,,,,,,,,,,,,,,,,,,,,,,,,,,,,,,,,geld,images/br_geld.png,images/cb_geld.png,,geld,,,,,,,,,,,0.00462963,-0.111111111,1,0,0,geld,0,6,6,3,1
,,,,,,,2023-10-24_19h04.43.473,vbt_B1_day2,2022.2.4,Win32,60.04202942,,,,,,,,,,,,,,,,,,,,,,,,,,,,,,,,,,,,,,,,,,strikken,images/br_strikken.png,images/cb_strikken.png,,st....,,,,,,,,,,,-0.02870369,-0.10555557,1,0,0,st....,0,7,7,18,1
,,,,,,,2023-10-24_19h04.43.473,vbt_B1_day2,2022.2.4,Win32,60.04202942,,,,,,,,,,,,,,,,,,,,,,,,,,,,,,,,,,,,,,,,,,kijlen,images/br_kijlen.png,images/cb_kijlen.png,,ki.l..,,,,,,,,,,,-0.02870369,-0.10555557,1,0,0,ki.l..,0,8,8,31,1
,,,,,,,2023-10-24_19h04.43.473,vbt_B1_day2,2022.2.4,Win32,60.04202942,,,,,,,,,,,,,,,,,,,,,,,,,,,,,,,,,,,,,,,,,,trots,images/br_trots.png,images/cb_trots.png,,trots,,,,,,,,,,,0.048148191,-0.139814801,1,0,0,trots,0,9,9,44,1
,,,,,,,2023-10-24_19h04.43.473,vbt_B1_day2,2022.2.4,Win32,60.04202942,,,,,,,,,,,,,,,,,,,,,,,,,,,,,,,,,,,,,,,,,,piste,images/br_piste.png,images/cb_piste.png,,piste,,,,,,,,,,,0.006481524,-0.140740783,1,0,0,piste,0,10,10,5,1
,,,,,,,2023-10-24_19h04.43.473,vbt_B1_day2,2022.2.4,Win32,60.04202942,,,,,,,,,,,,,,,,,,,,,,,,,,,,,,,,,,,,,,,,,,systeem,images/br_systeem.png,images/cb_systeem.png,,s.iste.,,,,,,,,,,,0.006481524,-0.140740783,1,0,0,s.iste.,0,11,11,54,1
,,,,,,,2023-10-24_19h04.43.473,vbt_B1_day2,2022.2.4,Win32,60.04202942,,,,,,,,,,,,,,,,,,,,,,,,,,,,,,,,,,,,,,,,,,feestdag,images/br_feestdag.png,images/cb_feestdag.png,,eesta..,,,,,,,,,,,0.034259302,-0.133333347,1,0,0,eesta..,0,12,12,17,1
,,,,,,,2023-10-24_19h04.43.473,vbt_B1_day2,2022.2.4,Win32,60.04202942,,,,,,,,,,,,,,,,,,,,,,,,,,,,,,,,,,,,,,,,,,anarchie,images/br_anarchie.png,images/cb_anarchie.png,,anarchie,,,,,,,,,,,0.034259302,-0.133333347,1,0,0,anarchie,0,13,13,16,1
,,,,,,,2023-10-24_19h04.43.473,vbt_B1_day2,2022.2.4,Win32,60.04202942,,,,,,,,,,,,,,,,,,,,,,,,,,,,,,,,,,,,,,,,,,lurgen,images/br_lurgen.png,images/cb_lurgen.png,,ls..,,,,,,,,,,,0.034259302,-0.133333347,1,0,0,ls..,0,14,14,29,1
,,,,,,,2023-10-24_19h04.43.473,vbt_B1_day2,2022.2.4,Win32,60.04202942,,,,,,,,,,,,,,,,,,,,,,,,,,,,,,,,,,,,,,,,,,goon,images/br_goon.png,images/cb_goon.png,,goon,,,,,,,,,,,-0.025925884,-0.14444443,1,0,0,goon,0,15,15,23,1
,,,,,,,2023-10-24_19h04.43.473,vbt_B1_day2,2022.2.4,Win32,60.04202942,,,,,,,,,,,,,,,,,,,,,,,,,,,,,,,,,,,,,,,,,,thema,images/br_thema.png,images/cb_thema.png,,tem,,,,,,,,,,,0.163888931,-0.099074116,1,0,0,tem,0,16,16,47,1
,,,,,,,2023-10-24_19h04.43.473,vbt_B1_day2,2022.2.4,Win32,60.04202942,,,,,,,,,,,,,,,,,,,,,,,,,,,,,,,,,,,,,,,,,,krimmen,images/br_krimmen.png,images/cb_krimmen.png,,kre....,,,,,,,,,,,0.074999986,-0.141666695,1,0,0,kre....,0,17,17,35,1
,,,,,,,2023-10-24_19h04.43.473,vbt_B1_day2,2022.2.4,Win32,60.04202942,,,,,,,,,,,,,,,,,,,,,,,,,,,,,,,,,,,,,,,,,,zegel,images/br_zegel.png,images/cb_zegel.png,,zegel,,,,,,,,,,,-0.137962977,-0.108333376,1,0,0,zegel,0,18,18,46,1
,,,,,,,2023-10-24_19h04.43.473,vbt_B1_day2,2022.2.4,Win32,60.04202942,,,,,,,,,,,,,,,,,,,,,,,,,,,,,,,,,,,,,,,,,,diep,images/br_diep.png,images/cb_diep.png,,diep,,,,,,,,,,,0.022222236,-0.142592607,1,0,0,diep,0,19,19,2,1
,,,,,,,2023-10-24_19h04.43.473,vbt_B1_day2,2022.2.4,Win32,60.04202942,,,,,,,,,,,,,,,,,,,,,,,,,,,,,,,,,,,,,,,,,,zomers,images/br_zomers.png,images/cb_zomers.png,,zomers,,,,,,,,,,,0.071296339,-0.094444487,1,0,0,zomers,0,20,20,48,1
,,,,,,,2023-10-24_19h04.43.473,vbt_B1_day2,2022.2.4,Win32,60.04202942,,,,,,,,,,,,,,,,,,,,,,,,,,,,,,,,,,,,,,,,,,breuk,images/br_breuk.png,images/cb_breuk.png,,breuk,,,,,,,,,,,0.01944443,-0.116666653,1,0,0,breuk,0,21,21,45,1
,,,,,,,2023-10-24_19h04.43.473,vbt_B1_day2,2022.2.4,Win32,60.04202942,,,,,,,,,,,,,,,,,,,,,,,,,,,,,,,,,,,,,,,,,,welzijn,images/br_welzijn.png,images/cb_welzijn.png,,welnie.,,,,,,,,,,,-0.035185143,-0.127777806,1,0,0,welnie.,0,22,22,52,1
,,,,,,,2023-10-24_19h04.43.473,vbt_B1_day2,2022.2.4,Win32,60.04202942,,,,,,,,,,,,,,,,,,,,,,,,,,,,,,,,,,,,,,,,,,aanzien,images/br_aanzien.png,images/cb_aanzien.png,,aannien,,,,,,,,,,,0.066666709,-0.126851894,1,0,0,aannien,0,23,23,13,1
,,,,,,,2023-10-24_19h04.43.473,vbt_B1_day2,2022.2.4,Win32,60.04202942,,,,,,,,,,,,,,,,,,,,,,,,,,,,,,,,,,,,,,,,,,inzicht,images/br_inzicht.png,images/cb_inzicht.png,,.....,,,,,,,,,,,0.02407406,-0.12962963,1,0,0,.....,0,24,24,53,1
,,,,,,,2023-10-24_19h04.43.473,vbt_B1_day2,2022.2.4,Win32,60.04202942,,,,,,,,,,,,,,,,,,,,,,,,,,,,,,,,,,,,,,,,,,ningen,images/br_ningen.png,images/cb_ningen.png,,ninigen,,,,,,,,,,,0.069444444,-0.071296303,1,0,0,ninigen,0,25,25,28,1
,,,,,,,2023-10-24_19h04.43.473,vbt_B1_day2,2022.2.4,Win32,60.04202942,,,,,,,,,,,,,,,,,,,,,,,,,,,,,,,,,,,,,,,,,,sifferd,images/br_sifferd.png,images/cb_sifferd.png,,se....,,,,,,,,,,,-0.010185171,-0.134259259,1,0,0,se....,0,26,26,32,1
,,,,,,,2023-10-24_19h04.43.473,vbt_B1_day2,2022.2.4,Win32,60.04202942,,,,,,,,,,,,,,,,,,,,,,,,,,,,,,,,,,,,,,,,,,tand,images/br_tand.png,images/cb_tand.png,,tand,,,,,,,,,,,0.012037065,-0.132407436,1,0,0,tand,0,27,27,42,1
,,,,,,,2023-10-24_19h04.43.473,vbt_B1_day2,2022.2.4,Win32,60.04202942,,,,,,,,,,,,,,,,,,,,,,,,,,,,,,,,,,,,,,,,,,kasteel,images/br_kasteel.png,images/cb_kasteel.png,,kasteel,,,,,,,,,,,0.029629672,-0.14444443,1,0,0,kasteel,0,28,28,14,1
,,,,,,,2023-10-24_19h04.43.473,vbt_B1_day2,2022.2.4,Win32,60.04202942,,,,,,,,,,,,,,,,,,,,,,,,,,,,,,,,,,,,,,,,,,lijnen,images/br_lijnen.png,images/cb_lijnen.png,,lenen,,,,,,,,,,,0.041666667,-0.137962977,1,0,0,lenen,0,29,29,51,1
,,,,,,,2023-10-24_19h04.43.473,vbt_B1_day2,2022.2.4,Win32,60.04202942,,,,,,,,,,,,,,,,,,,,,,,,,,,,,,,,,,,,,,,,,,sora,images/br_sora.png,images/cb_sora.png,,sora,,,,,,,,,,,-0.033333319,-0.148148148,1,0,0,sora,0,30,30,22,1
,,,,,,,2023-10-24_19h04.43.473,vbt_B1_day2,2022.2.4,Win32,60.04202942,,,,,,,,,,,,,,,,,,,,,,,,,,,,,,,,,,,,,,,,,,jagen,images/br_jagen.png,images/cb_jagen.png,,dagen,,,,,,,,,,,0.065740727,-0.150925954,1,0,0,dagen,0,31,31,6,1
,,,,,,,2023-10-24_19h04.43.473,vbt_B1_day2,2022.2.4,Win32,60.04202942,,,,,,,,,,,,,,,,,,,,,,,,,,,,,,,,,,,,,,,,,,clan,images/br_clan.png,images/cb_clan.png,,cle..,,,,,,,,,,,0.101851852,-0.147222236,1,0,0,cle..,0,32,32,40,1
,,,,,,,2023-10-24_19h04.43.473,vbt_B1_day2,2022.2.4,Win32,60.04202942,,,,,,,,,,,,,,,,,,,,,,,,,,,,,,,,,,,,,,,,,,sjijfel,images/br_sjijfel.png,images/cb_sjijfel.png,,se....,,,,,,,,,,,0.101851852,-0.147222236,1,0,0,se....,0,33,33,33,1
,,,,,,,2023-10-24_19h04.43.473,vbt_B1_day2,2022.2.4,Win32,60.04202942,,,,,,,,,,,,,,,,,,,,,,,,,,,,,,,,,,,,,,,,,,opdatten,images/br_opdatten.png,images/cb_opdatten.png,,op...,,,,,,,,,,,0.10092594,-0.164814843,1,0,0,op...,0,34,34,37,1
,,,,,,,2023-10-24_19h04.43.473,vbt_B1_day2,2022.2.4,Win32,60.04202942,,,,,,,,,,,,,,,,,,,,,,,,,,,,,,,,,,,,,,,,,,badon,images/br_badon.png,images/cb_badon.png,,badon,,,,,,,,,,,0.043518561,-0.151851866,1,0,0,badon,0,35,35,26,1
,,,,,,,2023-10-24_19h04.43.473,vbt_B1_day2,2022.2.4,Win32,60.04202942,,,,,,,,,,,,,,,,,,,,,,,,,,,,,,,,,,,,,,,,,,agressie,images/br_agressie.png,images/cb_agressie.png,,agressie,,,,,,,,,,,0.092592593,-0.138888889,1,0,0,agressie,0,36,36,59,1
,,,,,,,2023-10-24_19h04.43.473,vbt_B1_day2,2022.2.4,Win32,60.04202942,,,,,,,,,,,,,,,,,,,,,,,,,,,,,,,,,,,,,,,,,,moes,images/br_moes.png,images/cb_moes.png,,moes,,,,,,,,,,,-0.037962949,-0.150925954,1,0,0,moes,0,37,37,0,1
,,,,,,,2023-10-24_19h04.43.473,vbt_B1_day2,2022.2.4,Win32,60.04202942,,,,,,,,,,,,,,,,,,,,,,,,,,,,,,,,,,,,,,,,,,stes,images/br_stes.png,images/cb_stes.png,,stes,,,,,,,,,,,-0.020370342,-0.162037037,1,0,0,stes,0,38,38,21,1
,,,,,,,2023-10-24_19h04.43.473,vbt_B1_day2,2022.2.4,Win32,60.04202942,,,,,,,,,,,,,,,,,,,,,,,,,,,,,,,,,,,,,,,,,,heengeen,images/br_heengeen.png,images/cb_heengeen.png,,eengeen,,,,,,,,,,,-0.020370342,-0.162037037,1,0,0,eengeen,0,39,39,38,1
,,,,,,,2023-10-24_19h04.43.473,vbt_B1_day2,2022.2.4,Win32,60.04202942,,,,,,,,,,,,,,,,,,,,,,,,,,,,,,,,,,,,,,,,,,heilig,images/br_heilig.png,images/cb_heilig.png,,dieleng,,,,,,,,,,,-0.020370342,-0.162037037,1,0,0,dieleng,0,40,40,9,1
,,,,,,,2023-10-24_19h04.43.473,vbt_B1_day2,2022.2.4,Win32,60.04202942,,,,,,,,,,,,,,,,,,,,,,,,,,,,,,,,,,,,,,,,,,kabel,images/br_kabel.png,images/cb_kabel.png,,kabel,,,,,,,,,,,-0.020370342,-0.162037037,1,0,0,kabel,0,41,41,7,1
,,,,,,,2023-10-24_19h04.43.473,vbt_B1_day2,2022.2.4,Win32,60.04202942,,,,,,,,,,,,,,,,,,,,,,,,,,,,,,,,,,,,,,,,,,jong,images/br_jong.png,images/cb_jong.png,,jong,,,,,,,,,,,0.12962963,-0.134259259,1,0,0,jong,0,42,42,43,1
,,,,,,,2023-10-24_19h04.43.473,vbt_B1_day2,2022.2.4,Win32,60.04202942,,,,,,,,,,,,,,,,,,,,,,,,,,,,,,,,,,,,,,,,,,dode,images/br_dode.png,images/cb_dode.png,,dode,,,,,,,,,,,0.12962963,-0.134259259,1,0,0,dode,0,43,43,41,1
,,,,,,,2023-10-24_19h04.43.473,vbt_B1_day2,2022.2.4,Win32,60.04202942,,,,,,,,,,,,,,,,,,,,,,,,,,,,,,,,,,,,,,,,,,plannen,images/br_plannen.png,images/cb_plannen.png,,plannen,,,,,,,,,,,0.074074074,-0.126851894,1,0,0,plannen,0,44,44,55,1
,,,,,,,2023-10-24_19h04.43.473,vbt_B1_day2,2022.2.4,Win32,60.04202942,,,,,,,,,,,,,,,,,,,,,,,,,,,,,,,,,,,,,,,,,,koorts,images/br_koorts.png,images/cb_koorts.png,,koorts,,,,,,,,,,,0.074074074,-0.126851894,1,0,0,koorts,0,45,45,50,1
,,,,,,,2023-10-24_19h04.43.473,vbt_B1_day2,2022.2.4,Win32,60.04202942,,,,,,,,,,,,,,,,,,,,,,,,,,,,,,,,,,,,,,,,,,flits,images/br_flits.png,images/cb_flits.png,,jets,,,,,,,,,,,0.020370413,-0.116666653,1,0,0,jets,0,46,46,4,1
,,,,,,,2023-10-24_19h04.43.473,vbt_B1_day2,2022.2.4,Win32,60.04202942,,,,,,,,,,,,,,,,,,,,,,,,,,,,,,,,,,,,,,,,,,aanvraag,images/br_aanvraag.png,images/cb_aanvraag.png,,aan....,,,,,,,,,,,0.020370413,-0.117592635,1,0,0,aan....,0,47,47,57,1
,,,,,,,2023-10-24_19h04.43.473,vbt_B1_day2,2022.2.4,Win32,60.04202942,,,,,,,,,,,,,,,,,,,,,,,,,,,,,,,,,,,,,,,,,,eenhoorn,images/br_eenhoorn.png,images/cb_eenhoorn.png,,eenoosn,,,,,,,,,,,0.044444473,-0.150925954,1,0,0,eenoosn,0,48,48,19,1
,,,,,,,2023-10-24_19h04.43.473,vbt_B1_day2,2022.2.4,Win32,60.04202942,,,,,,,,,,,,,,,,,,,,,,,,,,,,,,,,,,,,,,,,,,zwager,images/br_zwager.png,images/cb_zwager.png,,.wage..,,,,,,,,,,,0.044444473,-0.150925954,1,0,0,.wage..,0,49,49,49,1
,,,,,,,2023-10-24_19h04.43.473,vbt_B1_day2,2022.2.4,Win32,60.04202942,,,,,,,,,,,,,,,,,,,,,,,,,,,,,,,,,,,,,,,,,,blad,images/br_blad.png,images/cb_blad.png,,blad,,,,,,,,,,,0.055555556,-0.146296325,1,0,0,blad,0,50,50,1,1
,,,,,,,2023-10-24_19h04.43.473,vbt_B1_day2,2022.2.4,Win32,60.04202942,,,,,,,,,,,,,,,,,,,,,,,,,,,,,,,,,,,,,,,,,,prekken,images/br_prekken.png,images/cb_prekken.png,,prekken,,,,,,,,,,,0.054629644,-0.122222265,1,0,0,prekken,0,51,51,34,1
,,,,,,,2023-10-24_19h04.43.473,vbt_B1_day2,2022.2.4,Win32,60.04202942,,,,,,,,,,,,,,,,,,,,,,,,,,,,,,,,,,,,,,,,,,remel,images/br_remel.png,images/cb_remel.png,,regel,,,,,,,,,,,0.054629644,-0.122222265,1,0,0,regel,0,52,52,25,1
,,,,,,,2023-10-24_19h04.43.473,vbt_B1_day2,2022.2.4,Win32,60.04202942,,,,,,,,,,,,,,,,,,,,,,,,,,,,,,,,,,,,,,,,,,bloeien,images/br_bloeien.png,images/cb_bloeien.png,,bloeien,,,,,,,,,,,0.037962949,-0.138888889,1,0,0,bloeien,0,53,53,12,1
,,,,,,,2023-10-24_19h04.43.473,vbt_B1_day2,2022.2.4,Win32,60.04202942,,,,,,,,,,,,,,,,,,,,,,,,,,,,,,,,,,,,,,,,,,kenzis,images/br_kenzis.png,images/cb_kenzis.png,,kennis,,,,,,,,,,,-0.00462963,-0.10092594,1,0,0,kennis,0,54,54,30,1
,,,,,,,2023-10-24_19h04.43.473,vbt_B1_day2,2022.2.4,Win32,60.04202942,,,,,,,,,,,,,,,,,,,,,,,,,,,,,,,,,,,,,,,,,,negel,images/br_negel.png,images/cb_negel.png,,negel,,,,,,,,,,,-0.017592607,-0.137962977,1,0,0,negel,0,55,55,24,1
,,,,,,,2023-10-24_19h04.43.473,vbt_B1_day2,2022.2.4,Win32,60.04202942,,,,,,,,,,,,,,,,,,,,,,,,,,,,,,,,,,,,,,,,,,manieren,images/br_manieren.png,images/cb_manieren.png,,.anie...,,,,,,,,,,,-0.014814801,-0.240740741,1,0,0,.anie...,0,56,56,56,1
,,,,,,,2023-10-24_19h04.43.473,vbt_B1_day2,2022.2.4,Win32,60.04202942,,,,,,,,,,,,,,,,,,,,,,,,,,,,,,,,,,,,,,,,,,lokken,images/br_lokken.png,images/cb_lokken.png,,lokken,,,,,,,,,,,-0.006481453,-0.143518519,1,0,0,lokken,0,57,57,8,1
,,,,,,,2023-10-24_19h04.43.473,vbt_B1_day2,2022.2.4,Win32,60.04202942,,,,,,,,,,,,,,,,,,,,,,,,,,,,,,,,,,,,,,,,,,toeval,images/br_toeval.png,images/cb_toeval.png,,toe...,,,,,,,,,,,-0.006481453,-0.143518519,1,0,0,toe...,0,58,58,11,1
,,,,,,,2023-10-24_19h04.43.473,vbt_B1_day2,2022.2.4,Win32,60.04202942,,,,,,,,,,,,,,,,,,,,,,,,,,,,,,,,,,,,,,,,,,ophuimen,images/br_ophuimen.png,images/cb_ophuimen.png,,ope...,,,,,,,,,,,-0.006481453,-0.143518519,1,0,0,ope...,0,59,59,36,1
,,,,,,,2023-10-24_19h04.43.473,vbt_B1_day2,2022.2.4,Win32,60.04202942,,,,,,,,,,,,,,,,,,,,,,,,,,,,,,,,,,,,,,,,,,,,,,,,,,,,,,,,,,,,,,,,,,,
