welcome_mouse.x,welcome_mouse.y,welcome_mouse.leftButton,welcome_mouse.midButton,welcome_mouse.rightButton,welcome_mouse.time,"ID",date,expName,psychopyVersion,OS,frameRate,refresh_mouse.x,refresh_mouse.y,refresh_mouse.leftButton,refresh_mouse.midButton,refresh_mouse.rightButton,refresh_mouse.time,braille_mouse.x,braille_mouse.y,braille_mouse.leftButton,braille_mouse.midButton,braille_mouse.rightButton,braille_mouse.time,trials.thisRepN,trials.thisTrialN,trials.thisN,trials.thisIndex,trials.ran,nlLet,brLet,cbLet,trainInstr_mouse.x,trainInstr_mouse.y,trainInstr_mouse.leftButton,trainInstr_mouse.midButton,trainInstr_mouse.rightButton,trainInstr_mouse.time,translation_key.keys,translation_key.corr,translation_key.rt,word_rsp.text,word_mouse.x,word_mouse.y,word_mouse.leftButton,word_mouse.midButton,word_mouse.rightButton,word_mouse.time,train_loop.thisRepN,train_loop.thisTrialN,train_loop.thisN,train_loop.thisIndex,train_loop.ran,nlWrd,brWrd,cbWrd,test,testResp,mouse.x,mouse.y,mouse.leftButton,mouse.midButton,mouse.rightButton,testInstr_mouse.x,testInstr_mouse.y,testInstr_mouse.leftButton,testInstr_mouse.midButton,testInstr_mouse.rightButton,test_mouse.x,test_mouse.y,test_mouse.leftButton,test_mouse.midButton,test_mouse.rightButton,test_response.text,test_loop.thisRepN,test_loop.thisTrialN,test_loop.thisN,test_loop.thisIndex,test_loop.ran
0.120420853,-0.116942525,1,0,0,8.9622,00026,2023-09-04_08h18.53.173,vbt_B1_day2,2022.2.4,Linux x86_64,60.01680471,,,,,,,,,,,,,,,,,,,,,,,,,,,,,,,,,,,,,,,,,,,,,,,,,,,,,,,,,,,,,,,,,,,
,,,,,,00026,2023-09-04_08h18.53.173,vbt_B1_day2,2022.2.4,Linux x86_64,60.01680471,0.125801961,-0.107487837,1,0,0,7.7916,,,,,,,,,,,,,,,,,,,,,,,,,,,,,,,,,,,,,,,,,,,,,,,,,,,,,,,,,,,,,
,,,,,,00026,2023-09-04_08h18.53.173,vbt_B1_day2,2022.2.4,Linux x86_64,60.01680471,,,,,,,0.127547185,-0.105160515,1,0,0,0.4501,0,0,0,0,1,a,images/br_a.png,images/cb_a.png,,,,,,,,,,,,,,,,,,,,,,,,,,,,,,,,,,,,,,,,,,,,,,,
,,,,,,00026,2023-09-04_08h18.53.173,vbt_B1_day2,2022.2.4,Linux x86_64,60.01680471,,,,,,,0.008062601,-0.028295795,1,0,0,1.384,0,1,1,22,1,w,images/br_w.png,images/cb_w.png,,,,,,,,,,,,,,,,,,,,,,,,,,,,,,,,,,,,,,,,,,,,,,,
,,,,,,00026,2023-09-04_08h18.53.173,vbt_B1_day2,2022.2.4,Linux x86_64,60.01680471,,,,,,,0.064027071,-0.063636661,1,0,0,0.5657,0,2,2,19,1,t,images/br_t.png,images/cb_t.png,,,,,,,,,,,,,,,,,,,,,,,,,,,,,,,,,,,,,,,,,,,,,,,
,,,,,,00026,2023-09-04_08h18.53.173,vbt_B1_day2,2022.2.4,Linux x86_64,60.01680471,,,,,,,0.012313128,-0.049414873,1,0,0,0.1174,0,3,3,8,1,i,images/br_i.png,images/cb_i.png,,,,,,,,,,,,,,,,,,,,,,,,,,,,,,,,,,,,,,,,,,,,,,,
,,,,,,00026,2023-09-04_08h18.53.173,vbt_B1_day2,2022.2.4,Linux x86_64,60.01680471,,,,,,,0.033808311,-0.077360988,1,0,0,0.6999,0,4,4,2,1,c,images/br_c.png,images/cb_c.png,,,,,,,,,,,,,,,,,,,,,,,,,,,,,,,,,,,,,,,,,,,,,,,
,,,,,,00026,2023-09-04_08h18.53.173,vbt_B1_day2,2022.2.4,Linux x86_64,60.01680471,,,,,,,0.055652062,-0.060941418,1,0,0,0.5164,0,5,5,10,1,k,images/br_k.png,images/cb_k.png,,,,,,,,,,,,,,,,,,,,,,,,,,,,,,,,,,,,,,,,,,,,,,,
,,,,,,00026,2023-09-04_08h18.53.173,vbt_B1_day2,2022.2.4,Linux x86_64,60.01680471,,,,,,,0.042851448,-0.083631635,1,0,0,0.7993,0,6,6,5,1,f,images/br_f.png,images/cb_f.png,,,,,,,,,,,,,,,,,,,,,,,,,,,,,,,,,,,,,,,,,,,,,,,
,,,,,,00026,2023-09-04_08h18.53.173,vbt_B1_day2,2022.2.4,Linux x86_64,60.01680471,,,,,,,0.025534709,-0.076821168,1,0,0,1.7813,0,7,7,24,1,y,images/br_y.png,images/cb_y.png,,,,,,,,,,,,,,,,,,,,,,,,,,,,,,,,,,,,,,,,,,,,,,,
,,,,,,00026,2023-09-04_08h18.53.173,vbt_B1_day2,2022.2.4,Linux x86_64,60.01680471,,,,,,,0.040425142,-0.072453976,1,0,0,3.1651,0,8,8,14,1,o,images/br_o.png,images/cb_o.png,,,,,,,,,,,,,,,,,,,,,,,,,,,,,,,,,,,,,,,,,,,,,,,
,,,,,,00026,2023-09-04_08h18.53.173,vbt_B1_day2,2022.2.4,Linux x86_64,60.01680471,,,,,,,0.053951422,-0.090781371,1,0,0,1.8338,0,9,9,23,1,x,images/br_x.png,images/cb_x.png,,,,,,,,,,,,,,,,,,,,,,,,,,,,,,,,,,,,,,,,,,,,,,,
,,,,,,00026,2023-09-04_08h18.53.173,vbt_B1_day2,2022.2.4,Linux x86_64,60.01680471,,,,,,,0.056860129,-0.089326819,1,0,0,2.4822,0,10,10,16,1,q,images/br_q.png,images/cb_q.png,,,,,,,,,,,,,,,,,,,,,,,,,,,,,,,,,,,,,,,,,,,,,,,
,,,,,,00026,2023-09-04_08h18.53.173,vbt_B1_day2,2022.2.4,Linux x86_64,60.01680471,,,,,,,0.057296435,-0.086417675,1,0,0,2.6988,0,11,11,3,1,d,images/br_d.png,images/cb_d.png,,,,,,,,,,,,,,,,,,,,,,,,,,,,,,,,,,,,,,,,,,,,,,,
,,,,,,00026,2023-09-04_08h18.53.173,vbt_B1_day2,2022.2.4,Linux x86_64,60.01680471,,,,,,,0.054188967,-0.088097533,1,0,0,6.3309,0,12,12,7,1,h,images/br_h.png,images/cb_h.png,,,,,,,,,,,,,,,,,,,,,,,,,,,,,,,,,,,,,,,,,,,,,,,
,,,,,,00026,2023-09-04_08h18.53.173,vbt_B1_day2,2022.2.4,Linux x86_64,60.01680471,,,,,,,0.048662345,-0.093915621,1,0,0,0.4331,0,13,13,12,1,m,images/br_m.png,images/cb_m.png,,,,,,,,,,,,,,,,,,,,,,,,,,,,,,,,,,,,,,,,,,,,,,,
,,,,,,00026,2023-09-04_08h18.53.173,vbt_B1_day2,2022.2.4,Linux x86_64,60.01680471,,,,,,,0.044299285,-0.087806424,1,0,0,1.8156,0,14,14,13,1,n,images/br_n.png,images/cb_n.png,,,,,,,,,,,,,,,,,,,,,,,,,,,,,,,,,,,,,,,,,,,,,,,
,,,,,,00026,2023-09-04_08h18.53.173,vbt_B1_day2,2022.2.4,Linux x86_64,60.01680471,,,,,,,0.046189944,-0.08518823,1,0,0,1.2493,0,15,15,4,1,e,images/br_e.png,images/cb_e.png,,,,,,,,,,,,,,,,,,,,,,,,,,,,,,,,,,,,,,,,,,,,,,,
,,,,,,00026,2023-09-04_08h18.53.173,vbt_B1_day2,2022.2.4,Linux x86_64,60.01680471,,,,,,,0.044299285,-0.083151897,1,0,0,1.0491,0,16,16,25,1,z,images/br_z.png,images/cb_z.png,,,,,,,,,,,,,,,,,,,,,,,,,,,,,,,,,,,,,,,,,,,,,,,
,,,,,,00026,2023-09-04_08h18.53.173,vbt_B1_day2,2022.2.4,Linux x86_64,60.01680471,,,,,,,0.009483655,-0.092178226,1,0,0,0.5829,0,17,17,18,1,s,images/br_s.png,images/cb_s.png,,,,,,,,,,,,,,,,,,,,,,,,,,,,,,,,,,,,,,,,,,,,,,,
,,,,,,00026,2023-09-04_08h18.53.173,vbt_B1_day2,2022.2.4,Linux x86_64,60.01680471,,,,,,,0.010647138,-0.094505469,1,0,0,0.8143,0,18,18,9,1,j,images/br_j.png,images/cb_j.png,,,,,,,,,,,,,,,,,,,,,,,,,,,,,,,,,,,,,,,,,,,,,,,
,,,,,,00026,2023-09-04_08h18.53.173,vbt_B1_day2,2022.2.4,Linux x86_64,60.01680471,,,,,,,0.011590878,-0.057177941,1,0,0,2.1661,0,19,19,11,1,l,images/br_l.png,images/cb_l.png,,,,,,,,,,,,,,,,,,,,,,,,,,,,,,,,,,,,,,,,,,,,,,,
,,,,,,00026,2023-09-04_08h18.53.173,vbt_B1_day2,2022.2.4,Linux x86_64,60.01680471,,,,,,,0.03209877,-0.061541597,1,0,0,1.8324,0,20,20,17,1,r,images/br_r.png,images/cb_r.png,,,,,,,,,,,,,,,,,,,,,,,,,,,,,,,,,,,,,,,,,,,,,,,
,,,,,,00026,2023-09-04_08h18.53.173,vbt_B1_day2,2022.2.4,Linux x86_64,60.01680471,,,,,,,0.038207054,-0.056596001,1,0,0,0.8332,0,21,21,20,1,u,images/br_u.png,images/cb_u.png,,,,,,,,,,,,,,,,,,,,,,,,,,,,,,,,,,,,,,,,,,,,,,,
,,,,,,00026,2023-09-04_08h18.53.173,vbt_B1_day2,2022.2.4,Linux x86_64,60.01680471,,,,,,,0.031516631,-0.056886951,1,0,0,1.7159,0,22,22,15,1,p,images/br_p.png,images/cb_p.png,,,,,,,,,,,,,,,,,,,,,,,,,,,,,,,,,,,,,,,,,,,,,,,
,,,,,,00026,2023-09-04_08h18.53.173,vbt_B1_day2,2022.2.4,Linux x86_64,60.01680471,,,,,,,0.039948543,-0.078669111,1,0,0,0.0679,0,23,23,6,1,g,images/br_g.png,images/cb_g.png,,,,,,,,,,,,,,,,,,,,,,,,,,,,,,,,,,,,,,,,,,,,,,,
,,,,,,00026,2023-09-04_08h18.53.173,vbt_B1_day2,2022.2.4,Linux x86_64,60.01680471,,,,,,,0.039366086,-0.070523659,1,0,0,0.3468,0,24,24,21,1,v,images/br_v.png,images/cb_v.png,,,,,,,,,,,,,,,,,,,,,,,,,,,,,,,,,,,,,,,,,,,,,,,
,,,,,,00026,2023-09-04_08h18.53.173,vbt_B1_day2,2022.2.4,Linux x86_64,60.01680471,,,,,,,0.043438276,-0.061505357,1,0,0,1.2497,0,25,25,1,1,b,images/br_b.png,images/cb_b.png,,,,,,,,,,,,,,,,,,,,,,,,,,,,,,,,,,,,,,,,,,,,,,,
,,,,,,00026,2023-09-04_08h18.53.173,vbt_B1_day2,2022.2.4,Linux x86_64,60.01680471,,,,,,,,,,,,,,,,,,,,,0.176355124,-0.136385361,1,0,0,34.3684,,,,,,,,,,,,,,,,,,,,,,,,,,,,,,,,,,,,,,,,,
,,,,,,00026,2023-09-04_08h18.53.173,vbt_B1_day2,2022.2.4,Linux x86_64,60.01680471,,,,,,,,,,,,,,,,,,,,,,,,,,,down,0,9.6591,,0.01592207,-0.165686806,1,0,0,5.0082,0,0,0,7,1,geld,images/br_geld.png,images/cb_geld.png,0,,,,,,,,,,,,,,,,,,,,,,
,,,,,,00026,2023-09-04_08h18.53.173,vbt_B1_day2,2022.2.4,Linux x86_64,60.01680471,,,,,,,,,,,,,,,,,,,,,,,,,,,down,0,5.0307,,0.117319107,-0.082637469,1,0,0,3.5982,0,1,1,62,1,knaap,images/br_knaap.png,images/cb_knaap.png,0,,,,,,,,,,,,,,,,,,,,,,
,,,,,,00026,2023-09-04_08h18.53.173,vbt_B1_day2,2022.2.4,Linux x86_64,60.01680471,,,,,,,,,,,,,,,,,,,,,,,,,,,down,0,4.8542,,0.084732453,-0.021089594,1,0,0,1.9651,0,2,2,31,1,poes,images/br_poes.png,images/cb_poes.png,0,,,,,,,,,,,,,,,,,,,,,,
,,,,,,00026,2023-09-04_08h18.53.173,vbt_B1_day2,2022.2.4,Linux x86_64,60.01680471,,,,,,,,,,,,,,,,,,,,,,,,,,,down,0,2.9208,,-0.065061887,-0.030767202,1,0,0,1.5829,0,3,3,29,1,baas,images/br_baas.png,images/cb_baas.png,0,,,,,,,,,,,,,,,,,,,,,,
,,,,,,00026,2023-09-04_08h18.53.173,vbt_B1_day2,2022.2.4,Linux x86_64,60.01680471,,,,,,,,,,,,,,,,,,,,,,,,,,,down,0,6.4561,,0.116823991,-0.069601218,1,0,0,12.4255,0,4,4,125,1,aanzien,images/br_aanzien.png,images/cb_aanzien.png,0,,,,,,,,,,,,,,,,,,,,,,
,,,,,,00026,2023-09-04_08h18.53.173,vbt_B1_day2,2022.2.4,Linux x86_64,60.01680471,,,,,,,,,,,,,,,,,,,,,,,,,,,down,0,12.6021,,0.03928415,-0.134099245,1,0,0,1.5654,0,5,5,185,1,mijnheer,images/br_mijnheer.png,images/cb_mijnheer.png,0,,,,,,,,,,,,,,,,,,,,,,
,,,,,,00026,2023-09-04_08h18.53.173,vbt_B1_day2,2022.2.4,Linux x86_64,60.01680471,,,,,,,,,,,,,,,,,,,,,,,,,,,down,0,41.3482,,0.22725749,0.007448037,1,0,0,6.6226,0,6,6,137,1,trekker,images/br_trekker.png,images/cb_trekker.png,1,trekker,,,,,,,,,,,,,,,,,,,,,
,,,,,,00026,2023-09-04_08h18.53.173,vbt_B1_day2,2022.2.4,Linux x86_64,60.01680471,,,,,,,,,,,,,,,,,,,,,,,,,,,down,0,8.7959,,0.033657074,-0.045762539,1,0,0,2.4323,0,7,7,44,1,flits,images/br_flits.png,images/cb_flits.png,0,,,,,,,,,,,,,,,,,,,,,,
,,,,,,00026,2023-09-04_08h18.53.173,vbt_B1_day2,2022.2.4,Linux x86_64,60.01680471,,,,,,,,,,,,,,,,,,,,,,,,,,,down,0,6.4484,,0.204154094,-0.031922221,1,0,0,2.0823,0,8,8,58,1,tekst,images/br_tekst.png,images/cb_tekst.png,1,tekst,,,,,,,,,,,,,,,,,,,,,
,,,,,,00026,2023-09-04_08h18.53.173,vbt_B1_day2,2022.2.4,Linux x86_64,60.01680471,,,,,,,,,,,,,,,,,,,,,,,,,,,down,0,7.1745,,0.033606291,-0.056790312,1,0,0,13.8464,0,9,9,140,1,blijven,images/br_blijven.png,images/cb_blijven.png,0,,,,,,,,,,,,,,,,,,,,,,
,,,,,,00026,2023-09-04_08h18.53.173,vbt_B1_day2,2022.2.4,Linux x86_64,60.01680471,,,,,,,,,,,,,,,,,,,,,,,,,,,down,0,6.0641,,-0.005313238,-0.083609422,1,0,0,0.8494,0,10,10,45,1,piste,images/br_piste.png,images/cb_piste.png,0,,,,,,,,,,,,,,,,,,,,,,
,,,,,,00026,2023-09-04_08h18.53.173,vbt_B1_day2,2022.2.4,Linux x86_64,60.01680471,,,,,,,,,,,,,,,,,,,,,,,,,,,down,0,12.1856,,0.066141764,-0.018469413,1,0,0,2.581,0,11,11,78,1,leren,images/br_leren.png,images/cb_leren.png,0,,,,,,,,,,,,,,,,,,,,,,
,,,,,,00026,2023-09-04_08h18.53.173,vbt_B1_day2,2022.2.4,Linux x86_64,60.01680471,,,,,,,,,,,,,,,,,,,,,,,,,,,down,0,5.9657,,0.025120576,-0.097801367,1,0,0,2.8989,0,12,12,60,1,jasje,images/br_jasje.png,images/cb_jasje.png,0,,,,,,,,,,,,,,,,,,,,,,
,,,,,,00026,2023-09-04_08h18.53.173,vbt_B1_day2,2022.2.4,Linux x86_64,60.01680471,,,,,,,,,,,,,,,,,,,,,,,,,,,down,0,2.2923,,0.134039243,-0.05565536,1,0,0,1.8335,0,13,13,20,1,site,images/br_site.png,images/cb_site.png,0,,,,,,,,,,,,,,,,,,,,,,
,,,,,,00026,2023-09-04_08h18.53.173,vbt_B1_day2,2022.2.4,Linux x86_64,60.01680471,,,,,,,,,,,,,,,,,,,,,,,,,,,down,0,9.4399,,0.215022087,-0.224585295,1,0,0,5.9298,0,14,14,171,1,aarzelen,images/br_aarzelen.png,images/cb_aarzelen.png,0,,,,,,,,,,,,,,,,,,,,,,
,,,,,,00026,2023-09-04_08h18.53.173,vbt_B1_day2,2022.2.4,Linux x86_64,60.01680471,,,,,,,,,,,,,,,,,,,,,,,,,,,down,0,20.659,,0.11411651,-0.128023664,1,0,0,5.7473,0,15,15,174,1,stemming,images/br_stemming.png,images/cb_stemming.png,0,,,,,,,,,,,,,,,,,,,,,,
,,,,,,00026,2023-09-04_08h18.53.173,vbt_B1_day2,2022.2.4,Linux x86_64,60.01680471,,,,,,,,,,,,,,,,,,,,,,,,,,,down,0,16.4946,,0.08763202,-0.059455156,1,0,0,2.4046,0,16,16,95,1,vreten,images/br_vreten.png,images/cb_vreten.png,0,,,,,,,,,,,,,,,,,,,,,,
,,,,,,00026,2023-09-04_08h18.53.173,vbt_B1_day2,2022.2.4,Linux x86_64,60.01680471,,,,,,,,,,,,,,,,,,,,,,,,,,,down,0,7.8953,,0.030237675,-0.138936957,1,0,0,3.1828,0,17,17,15,1,soda,images/br_soda.png,images/cb_soda.png,0,,,,,,,,,,,,,,,,,,,,,,
,,,,,,00026,2023-09-04_08h18.53.173,vbt_B1_day2,2022.2.4,Linux x86_64,60.01680471,,,,,,,,,,,,,,,,,,,,,,,,,,,down,0,7.5307,,0.108018875,-0.06270202,1,0,0,10.8309,0,18,18,121,1,twijfel,images/br_twijfel.png,images/cb_twijfel.png,0,,,,,,,,,,,,,,,,,,,,,,
,,,,,,00026,2023-09-04_08h18.53.173,vbt_B1_day2,2022.2.4,Linux x86_64,60.01680471,,,,,,,,,,,,,,,,,,,,,,,,,,,down,0,17.3263,,-0.061639229,0.028364817,1,0,0,4.7809,0,19,19,99,1,koffie,images/br_koffie.png,images/cb_koffie.png,1,koffie,,,,,,,,,,,,,,,,,,,,,
,,,,,,00026,2023-09-04_08h18.53.173,vbt_B1_day2,2022.2.4,Linux x86_64,60.01680471,,,,,,,,,,,,,,,,,,,,,,,,,,,down,0,10.1685,,0.048566898,-0.056894501,1,0,0,5.8856,0,20,20,191,1,opheffen,images/br_opheffen.png,images/cb_opheffen.png,0,,,,,,,,,,,,,,,,,,,,,,
,,,,,,00026,2023-09-04_08h18.53.173,vbt_B1_day2,2022.2.4,Linux x86_64,60.01680471,,,,,,,,,,,,,,,,,,,,,,,,,,,down,0,6.1816,,0.201794147,0.008509398,1,0,0,3.4157,0,21,21,85,1,heilig,images/br_heilig.png,images/cb_heilig.png,0,,,,,,,,,,,,,,,,,,,,,,
,,,,,,00026,2023-09-04_08h18.53.173,vbt_B1_day2,2022.2.4,Linux x86_64,60.01680471,,,,,,,,,,,,,,,,,,,,,,,,,,,down,0,6.308,,0.136452119,-0.092767715,1,0,0,0.7665,0,22,22,57,1,steek,images/br_steek.png,images/cb_steek.png,1,steek,,,,,,,,,,,,,,,,,,,,,
,,,,,,00026,2023-09-04_08h18.53.173,vbt_B1_day2,2022.2.4,Linux x86_64,60.01680471,,,,,,,,,,,,,,,,,,,,,,,,,,,down,0,11.148,,0.361408869,-0.095049103,1,0,0,1.3654,0,23,23,139,1,stiekem,images/br_stiekem.png,images/cb_stiekem.png,1,stiekem,,,,,,,,,,,,,,,,,,,,,
,,,,,,00026,2023-09-04_08h18.53.173,vbt_B1_day2,2022.2.4,Linux x86_64,60.01680471,,,,,,,,,,,,,,,,,,,,,,,,,,,down,0,9.031,,0.172690948,-0.087272843,1,0,0,2.6521,0,24,24,127,1,doodmoe,images/br_doodmoe.png,images/cb_doodmoe.png,0,,,,,,,,,,,,,,,,,,,,,,
,,,,,,00026,2023-09-04_08h18.53.173,vbt_B1_day2,2022.2.4,Linux x86_64,60.01680471,,,,,,,,,,,,,,,,,,,,,,,,,,,down,0,5.9649,,0.067173322,0.0124319,1,0,0,2.085,0,25,25,3,1,mand,images/br_mand.png,images/cb_mand.png,0,,,,,,,,,,,,,,,,,,,,,,
,,,,,,00026,2023-09-04_08h18.53.173,vbt_B1_day2,2022.2.4,Linux x86_64,60.01680471,,,,,,,,,,,,,,,,,,,,,,,,,,,down,0,4.1984,,0.040517966,-0.143463453,1,0,0,1.7509,0,26,26,117,1,kennis,images/br_kennis.png,images/cb_kennis.png,0,,,,,,,,,,,,,,,,,,,,,,
,,,,,,00026,2023-09-04_08h18.53.173,vbt_B1_day2,2022.2.4,Linux x86_64,60.01680471,,,,,,,,,,,,,,,,,,,,,,,,,,,down,0,6.4687,,0.094427586,-0.156571627,1,0,0,3.7658,0,27,27,108,1,excuus,images/br_excuus.png,images/cb_excuus.png,0,,,,,,,,,,,,,,,,,,,,,,
,,,,,,00026,2023-09-04_08h18.53.173,vbt_B1_day2,2022.2.4,Linux x86_64,60.01680471,,,,,,,,,,,,,,,,,,,,,,,,,,,down,0,4.0566,,0.29104948,-0.080060283,1,0,0,2.7487,0,28,28,141,1,knielen,images/br_knielen.png,images/cb_knielen.png,0,,,,,,,,,,,,,,,,,,,,,,
,,,,,,00026,2023-09-04_08h18.53.173,vbt_B1_day2,2022.2.4,Linux x86_64,60.01680471,,,,,,,,,,,,,,,,,,,,,,,,,,,down,0,6.277,,0.108298222,-0.027308305,1,0,0,1.8321,0,29,29,86,1,woning,images/br_woning.png,images/cb_woning.png,0,,,,,,,,,,,,,,,,,,,,,,
,,,,,,00026,2023-09-04_08h18.53.173,vbt_B1_day2,2022.2.4,Linux x86_64,60.01680471,,,,,,,,,,,,,,,,,,,,,,,,,,,down,0,21.7723,,0.130248944,-0.04504021,1,0,0,3.0146,0,30,30,153,1,vervoer,images/br_vervoer.png,images/cb_vervoer.png,0,,,,,,,,,,,,,,,,,,,,,,
,,,,,,00026,2023-09-04_08h18.53.173,vbt_B1_day2,2022.2.4,Linux x86_64,60.01680471,,,,,,,,,,,,,,,,,,,,,,,,,,,down,0,7.5506,,0.060196718,-0.040379405,1,0,0,1.2531,0,31,31,122,1,waarvan,images/br_waarvan.png,images/cb_waarvan.png,0,,,,,,,,,,,,,,,,,,,,,,
,,,,,,00026,2023-09-04_08h18.53.173,vbt_B1_day2,2022.2.4,Linux x86_64,60.01680471,,,,,,,,,,,,,,,,,,,,,,,,,,,down,0,7.4128,,0.047091881,-0.021758358,1,0,0,7.6137,0,32,32,145,1,invloed,images/br_invloed.png,images/cb_invloed.png,0,,,,,,,,,,,,,,,,,,,,,,
,,,,,,00026,2023-09-04_08h18.53.173,vbt_B1_day2,2022.2.4,Linux x86_64,60.01680471,,,,,,,,,,,,,,,,,,,,,,,,,,,down,0,8.9796,,0.112341245,-0.058077216,1,0,0,6.633,0,33,33,184,1,aandelen,images/br_aandelen.png,images/cb_aandelen.png,0,,,,,,,,,,,,,,,,,,,,,,
,,,,,,00026,2023-09-04_08h18.53.173,vbt_B1_day2,2022.2.4,Linux x86_64,60.01680471,,,,,,,,,,,,,,,,,,,,,,,,,,,down,0,8.0969,,0.017658313,-0.092043241,1,0,0,3.5483,0,34,34,72,1,strak,images/br_strak.png,images/cb_strak.png,0,,,,,,,,,,,,,,,,,,,,,,
,,,,,,00026,2023-09-04_08h18.53.173,vbt_B1_day2,2022.2.4,Linux x86_64,60.01680471,,,,,,,,,,,,,,,,,,,,,,,,,,,down,0,18.4621,,-0.073438088,-0.025115053,1,0,0,1.2803,0,35,35,179,1,woestijn,images/br_woestijn.png,images/cb_woestijn.png,1,woestijn,,,,,,,,,,,,,,,,,,,,,
,,,,,,00026,2023-09-04_08h18.53.173,vbt_B1_day2,2022.2.4,Linux x86_64,60.01680471,,,,,,,,,,,,,,,,,,,,,,,,,,,down,0,8.1926,,-0.072916269,-0.11897548,1,0,0,1.7153,0,36,36,103,1,joggen,images/br_joggen.png,images/cb_joggen.png,0,,,,,,,,,,,,,,,,,,,,,,
,,,,,,00026,2023-09-04_08h18.53.173,vbt_B1_day2,2022.2.4,Linux x86_64,60.01680471,,,,,,,,,,,,,,,,,,,,,,,,,,,down,0,17.4591,,0.083165487,-0.067969322,1,0,0,3.8313,0,37,37,111,1,ticket,images/br_ticket.png,images/cb_ticket.png,0,,,,,,,,,,,,,,,,,,,,,,
,,,,,,00026,2023-09-04_08h18.53.173,vbt_B1_day2,2022.2.4,Linux x86_64,60.01680471,,,,,,,,,,,,,,,,,,,,,,,,,,,down,0,6.801,,0.054413795,-0.083037694,1,0,0,3.8823,0,38,38,79,1,nodig,images/br_nodig.png,images/cb_nodig.png,0,,,,,,,,,,,,,,,,,,,,,,
,,,,,,00026,2023-09-04_08h18.53.173,vbt_B1_day2,2022.2.4,Linux x86_64,60.01680471,,,,,,,,,,,,,,,,,,,,,,,,,,,down,0,4.3882,,0.233722289,-0.053680142,1,0,0,1.5682,0,39,39,189,1,aanraden,images/br_aanraden.png,images/cb_aanraden.png,0,,,,,,,,,,,,,,,,,,,,,,
,,,,,,00026,2023-09-04_08h18.53.173,vbt_B1_day2,2022.2.4,Linux x86_64,60.01680471,,,,,,,,,,,,,,,,,,,,,,,,,,,down,0,6.8134,,0.012069543,-0.039669196,1,0,0,2.8641,0,40,40,47,1,kabel,images/br_kabel.png,images/cb_kabel.png,0,,,,,,,,,,,,,,,,,,,,,,
,,,,,,00026,2023-09-04_08h18.53.173,vbt_B1_day2,2022.2.4,Linux x86_64,60.01680471,,,,,,,,,,,,,,,,,,,,,,,,,,,down,0,12.9049,,0.023434718,-0.059792161,1,0,0,3.317,0,41,41,118,1,vinger,images/br_vinger.png,images/cb_vinger.png,0,,,,,,,,,,,,,,,,,,,,,,
,,,,,,00026,2023-09-04_08h18.53.173,vbt_B1_day2,2022.2.4,Linux x86_64,60.01680471,,,,,,,,,,,,,,,,,,,,,,,,,,,down,0,25.2064,,0.264640411,-0.082958976,1,0,0,1.1523,0,42,42,173,1,apparaat,images/br_apparaat.png,images/cb_apparaat.png,0,,,,,,,,,,,,,,,,,,,,,,
,,,,,,00026,2023-09-04_08h18.53.173,vbt_B1_day2,2022.2.4,Linux x86_64,60.01680471,,,,,,,,,,,,,,,,,,,,,,,,,,,down,0,3.7345,,-0.017008066,-0.036734223,1,0,0,1.2205,0,43,43,113,1,koppen,images/br_koppen.png,images/cb_koppen.png,0,,,,,,,,,,,,,,,,,,,,,,
,,,,,,00026,2023-09-04_08h18.53.173,vbt_B1_day2,2022.2.4,Linux x86_64,60.01680471,,,,,,,,,,,,,,,,,,,,,,,,,,,down,0,8.693,,0.149694363,-0.029563983,1,0,0,3.6322,0,44,44,168,1,bisschop,images/br_bisschop.png,images/cb_bisschop.png,0,,,,,,,,,,,,,,,,,,,,,,
,,,,,,00026,2023-09-04_08h18.53.173,vbt_B1_day2,2022.2.4,Linux x86_64,60.01680471,,,,,,,,,,,,,,,,,,,,,,,,,,,down,0,10.8569,,0.068519751,-0.152898153,1,0,0,2.0356,0,45,45,104,1,zweven,images/br_zweven.png,images/cb_zweven.png,0,,,,,,,,,,,,,,,,,,,,,,
,,,,,,00026,2023-09-04_08h18.53.173,vbt_B1_day2,2022.2.4,Linux x86_64,60.01680471,,,,,,,,,,,,,,,,,,,,,,,,,,,down,0,8.228,,0.295073271,-0.007481416,1,0,0,8.4964,0,46,46,194,1,driemaal,images/br_driemaal.png,images/cb_driemaal.png,0,,,,,,,,,,,,,,,,,,,,,,
,,,,,,00026,2023-09-04_08h18.53.173,vbt_B1_day2,2022.2.4,Linux x86_64,60.01680471,,,,,,,,,,,,,,,,,,,,,,,,,,,down,0,10.7896,,0.003944556,-0.120527426,1,0,0,4.5977,0,47,47,107,1,maling,images/br_maling.png,images/cb_maling.png,0,,,,,,,,,,,,,,,,,,,,,,
,,,,,,00026,2023-09-04_08h18.53.173,vbt_B1_day2,2022.2.4,Linux x86_64,60.01680471,,,,,,,,,,,,,,,,,,,,,,,,,,,down,0,17.227,,0.294650475,0.038144986,1,0,0,5.5307,0,48,48,136,1,waarbij,images/br_waarbij.png,images/cb_waarbij.png,1,waar,,,,,,,,,,,,,,,,,,,,,
,,,,,,00026,2023-09-04_08h18.53.173,vbt_B1_day2,2022.2.4,Linux x86_64,60.01680471,,,,,,,,,,,,,,,,,,,,,,,,,,,down,0,4.0798,,0.147897085,-0.033087571,1,0,0,1.6562,0,49,49,130,1,keihard,images/br_keihard.png,images/cb_keihard.png,0,,,,,,,,,,,,,,,,,,,,,,
,,,,,,00026,2023-09-04_08h18.53.173,vbt_B1_day2,2022.2.4,Linux x86_64,60.01680471,,,,,,,,,,,,,,,,,,,,,,,,,,,down,0,2.1674,,-0.029907624,-0.048803409,1,0,0,3.5322,0,50,50,25,1,plek,images/br_plek.png,images/cb_plek.png,0,,,,,,,,,,,,,,,,,,,,,,
,,,,,,00026,2023-09-04_08h18.53.173,vbt_B1_day2,2022.2.4,Linux x86_64,60.01680471,,,,,,,,,,,,,,,,,,,,,,,,,,,down,0,5.8663,,-0.050439199,-0.056326747,1,0,0,1.1392,0,51,51,97,1,loyaal,images/br_loyaal.png,images/cb_loyaal.png,1,loyaal,,,,,,,,,,,,,,,,,,,,,
,,,,,,00026,2023-09-04_08h18.53.173,vbt_B1_day2,2022.2.4,Linux x86_64,60.01680471,,,,,,,,,,,,,,,,,,,,,,,,,,,down,0,7.6105,,-0.000980854,-0.089565794,1,0,0,3.1329,0,52,52,167,1,eenhoorn,images/br_eenhoorn.png,images/cb_eenhoorn.png,0,,,,,,,,,,,,,,,,,,,,,,
,,,,,,00026,2023-09-04_08h18.53.173,vbt_B1_day2,2022.2.4,Linux x86_64,60.01680471,,,,,,,,,,,,,,,,,,,,,,,,,,,down,0,6.138,,0.005283991,-0.087771098,1,0,0,1.9927,0,53,53,87,1,toeval,images/br_toeval.png,images/cb_toeval.png,0,,,,,,,,,,,,,,,,,,,,,,
,,,,,,00026,2023-09-04_08h18.53.173,vbt_B1_day2,2022.2.4,Linux x86_64,60.01680471,,,,,,,,,,,,,,,,,,,,,,,,,,,down,0,4.8712,,-0.100506147,-0.079117219,1,0,0,0.833,0,54,54,59,1,kring,images/br_kring.png,images/cb_kring.png,1,kring,,,,,,,,,,,,,,,,,,,,,
,,,,,,00026,2023-09-04_08h18.53.173,vbt_B1_day2,2022.2.4,Linux x86_64,60.01680471,,,,,,,,,,,,,,,,,,,,,,,,,,,down,0,9.0209,,0.082477172,-0.019716899,1,0,0,0.8153,0,55,55,27,1,dans,images/br_dans.png,images/cb_dans.png,0,,,,,,,,,,,,,,,,,,,,,,
,,,,,,00026,2023-09-04_08h18.53.173,vbt_B1_day2,2022.2.4,Linux x86_64,60.01680471,,,,,,,,,,,,,,,,,,,,,,,,,,,down,0,6.682,,0.135394573,-0.059945782,1,0,0,1.181,0,56,56,43,1,klauw,images/br_klauw.png,images/cb_klauw.png,0,,,,,,,,,,,,,,,,,,,,,,
,,,,,,00026,2023-09-04_08h18.53.173,vbt_B1_day2,2022.2.4,Linux x86_64,60.01680471,,,,,,,,,,,,,,,,,,,,,,,,,,,down,0,4.7741,,0.121662458,-0.034448663,1,0,0,0.8671,0,57,57,53,1,baron,images/br_baron.png,images/cb_baron.png,0,,,,,,,,,,,,,,,,,,,,,,
,,,,,,00026,2023-09-04_08h18.53.173,vbt_B1_day2,2022.2.4,Linux x86_64,60.01680471,,,,,,,,,,,,,,,,,,,,,,,,,,,down,0,8.2329,,0.229990005,-0.065446377,1,0,0,8.9293,0,58,58,190,1,goedkoop,images/br_goedkoop.png,images/cb_goedkoop.png,0,,,,,,,,,,,,,,,,,,,,,,
,,,,,,00026,2023-09-04_08h18.53.173,vbt_B1_day2,2022.2.4,Linux x86_64,60.01680471,,,,,,,,,,,,,,,,,,,,,,,,,,,down,0,12.1348,,0.030942202,-0.14510417,1,0,0,1.5824,0,59,59,96,1,slagen,images/br_slagen.png,images/cb_slagen.png,1,slagen,,,,,,,,,,,,,,,,,,,,,
,,,,,,00026,2023-09-04_08h18.53.173,vbt_B1_day2,2022.2.4,Linux x86_64,60.01680471,,,,,,,,,,,,,,,,,,,,,,,,,,,down,0,9.2823,,0.101991097,-0.07074964,1,0,0,1.3024,0,60,60,123,1,hiervan,images/br_hiervan.png,images/cb_hiervan.png,0,,,,,,,,,,,,,,,,,,,,,,
,,,,,,00026,2023-09-04_08h18.53.173,vbt_B1_day2,2022.2.4,Linux x86_64,60.01680471,,,,,,,,,,,,,,,,,,,,,,,,,,,down,0,4.751,,-0.025942008,-0.133891503,1,0,0,4.3311,0,61,61,175,1,heengaan,images/br_heengaan.png,images/cb_heengaan.png,0,,,,,,,,,,,,,,,,,,,,,,
,,,,,,00026,2023-09-04_08h18.53.173,vbt_B1_day2,2022.2.4,Linux x86_64,60.01680471,,,,,,,,,,,,,,,,,,,,,,,,,,,down,0,6.3399,,0.004432281,0.043640415,1,0,0,2.4824,0,62,62,195,1,middelen,images/br_middelen.png,images/cb_middelen.png,0,,,,,,,,,,,,,,,,,,,,,,
,,,,,,00026,2023-09-04_08h18.53.173,vbt_B1_day2,2022.2.4,Linux x86_64,60.01680471,,,,,,,,,,,,,,,,,,,,,,,,,,,down,0,4.3796,,0.114621401,-0.085030675,1,0,0,0.9826,0,63,63,74,1,graaf,images/br_graaf.png,images/cb_graaf.png,0,,,,,,,,,,,,,,,,,,,,,,
,,,,,,00026,2023-09-04_08h18.53.173,vbt_B1_day2,2022.2.4,Linux x86_64,60.01680471,,,,,,,,,,,,,,,,,,,,,,,,,,,down,0,2.6261,,0.242856503,-0.139840841,1,0,0,1.321,0,64,64,120,1,klimmen,images/br_klimmen.png,images/cb_klimmen.png,0,,,,,,,,,,,,,,,,,,,,,,
,,,,,,00026,2023-09-04_08h18.53.173,vbt_B1_day2,2022.2.4,Linux x86_64,60.01680471,,,,,,,,,,,,,,,,,,,,,,,,,,,down,0,14.6739,,0.158853928,-0.075100064,1,0,0,2.3028,0,65,65,134,1,geliefd,images/br_geliefd.png,images/cb_geliefd.png,0,,,,,,,,,,,,,,,,,,,,,,
,,,,,,00026,2023-09-04_08h18.53.173,vbt_B1_day2,2022.2.4,Linux x86_64,60.01680471,,,,,,,,,,,,,,,,,,,,,,,,,,,down,0,7.711,,0.053246498,-0.078621467,1,0,0,0.6846,0,66,66,33,1,vlek,images/br_vlek.png,images/cb_vlek.png,0,,,,,,,,,,,,,,,,,,,,,,
,,,,,,00026,2023-09-04_08h18.53.173,vbt_B1_day2,2022.2.4,Linux x86_64,60.01680471,,,,,,,,,,,,,,,,,,,,,,,,,,,down,0,7.3822,,0.180544058,-0.070358594,1,0,0,1.9017,0,67,67,91,1,gezond,images/br_gezond.png,images/cb_gezond.png,0,,,,,,,,,,,,,,,,,,,,,,
,,,,,,00026,2023-09-04_08h18.53.173,vbt_B1_day2,2022.2.4,Linux x86_64,60.01680471,,,,,,,,,,,,,,,,,,,,,,,,,,,down,0,1.7225,,0.080253839,-0.056571802,1,0,0,0.5828,0,68,68,28,1,stal,images/br_stal.png,images/cb_stal.png,0,,,,,,,,,,,,,,,,,,,,,,
,,,,,,00026,2023-09-04_08h18.53.173,vbt_B1_day2,2022.2.4,Linux x86_64,60.01680471,,,,,,,,,,,,,,,,,,,,,,,,,,,down,0,0.7367,,-0.018185457,-0.075579604,1,0,0,4.3193,0,69,69,112,1,lukken,images/br_lukken.png,images/cb_lukken.png,0,,,,,,,,,,,,,,,,,,,,,,
,,,,,,00026,2023-09-04_08h18.53.173,vbt_B1_day2,2022.2.4,Linux x86_64,60.01680471,,,,,,,,,,,,,,,,,,,,,,,,,,,down,0,1.8172,,0.06959184,-0.144540191,1,0,0,0.7555,0,70,70,2,1,jaar,images/br_jaar.png,images/cb_jaar.png,0,,,,,,,,,,,,,,,,,,,,,,
,,,,,,00026,2023-09-04_08h18.53.173,vbt_B1_day2,2022.2.4,Linux x86_64,60.01680471,,,,,,,,,,,,,,,,,,,,,,,,,,,down,0,1.3929,,0.327428977,0.05003349,1,0,0,0.8857,0,71,71,5,1,blad,images/br_blad.png,images/cb_blad.png,0,,,,,,,,,,,,,,,,,,,,,,
,,,,,,00026,2023-09-04_08h18.53.173,vbt_B1_day2,2022.2.4,Linux x86_64,60.01680471,,,,,,,,,,,,,,,,,,,,,,,,,,,down,0,8.8404,,0.032507817,-0.125256737,1,0,0,1.5159,0,72,72,71,1,bever,images/br_bever.png,images/cb_bever.png,0,,,,,,,,,,,,,,,,,,,,,,
,,,,,,00026,2023-09-04_08h18.53.173,vbt_B1_day2,2022.2.4,Linux x86_64,60.01680471,,,,,,,,,,,,,,,,,,,,,,,,,,,down,0,0.2739,,0.30503877,-0.087131977,1,0,0,5.2105,0,73,73,166,1,strikken,images/br_strikken.png,images/cb_strikken.png,0,,,,,,,,,,,,,,,,,,,,,,
,,,,,,00026,2023-09-04_08h18.53.173,vbt_B1_day2,2022.2.4,Linux x86_64,60.01680471,,,,,,,,,,,,,,,,,,,,,,,,,,,down,0,3.101,,0.111004273,-0.044200261,1,0,0,2.7489,0,74,74,114,1,vullen,images/br_vullen.png,images/cb_vullen.png,0,,,,,,,,,,,,,,,,,,,,,,
,,,,,,00026,2023-09-04_08h18.53.173,vbt_B1_day2,2022.2.4,Linux x86_64,60.01680471,,,,,,,,,,,,,,,,,,,,,,,,,,,down,0,1.0137,,0.222198645,-0.093467236,1,0,0,0.9677,0,75,75,1,1,zaal,images/br_zaal.png,images/cb_zaal.png,0,,,,,,,,,,,,,,,,,,,,,,
,,,,,,00026,2023-09-04_08h18.53.173,vbt_B1_day2,2022.2.4,Linux x86_64,60.01680471,,,,,,,,,,,,,,,,,,,,,,,,,,,down,0,0.619,,0.100995064,-0.085628589,1,0,0,4.6644,0,76,76,128,1,prikken,images/br_prikken.png,images/cb_prikken.png,0,,,,,,,,,,,,,,,,,,,,,,
,,,,,,00026,2023-09-04_08h18.53.173,vbt_B1_day2,2022.2.4,Linux x86_64,60.01680471,,,,,,,,,,,,,,,,,,,,,,,,,,,down,0,158.4849,,0.01312844,-0.066281319,1,0,0,0.9657,0,77,77,22,1,stof,images/br_stof.png,images/cb_stof.png,0,,,,,,,,,,,,,,,,,,,,,,
,,,,,,00026,2023-09-04_08h18.53.173,vbt_B1_day2,2022.2.4,Linux x86_64,60.01680471,,,,,,,,,,,,,,,,,,,,,,,,,,,down,0,0.0993,,0.460058212,0.040630619,1,0,0,4.8283,0,78,78,149,1,redding,images/br_redding.png,images/cb_redding.png,0,,,,,,,,,,,,,,,,,,,,,,
,,,,,,00026,2023-09-04_08h18.53.173,vbt_B1_day2,2022.2.4,Linux x86_64,60.01680471,,,,,,,,,,,,,,,,,,,,,,,,,,,down,0,3.2699,,0.088951906,0.0022403,1,0,0,2.564,0,79,79,51,1,samen,images/br_samen.png,images/cb_samen.png,0,,,,,,,,,,,,,,,,,,,,,,
,,,,,,00026,2023-09-04_08h18.53.173,vbt_B1_day2,2022.2.4,Linux x86_64,60.01680471,,,,,,,,,,,,,,,,,,,,,,,,,,,down,0,5.8966,,0.321424484,-0.321543535,1,0,0,0.6332,0,80,80,172,1,weigeren,images/br_weigeren.png,images/cb_weigeren.png,0,,,,,,,,,,,,,,,,,,,,,,
,,,,,,00026,2023-09-04_08h18.53.173,vbt_B1_day2,2022.2.4,Linux x86_64,60.01680471,,,,,,,,,,,,,,,,,,,,,,,,,,,down,0,3.5936,,0.274004857,0.074707071,1,0,0,0.6992,0,81,81,67,1,zwart,images/br_zwart.png,images/cb_zwart.png,0,,,,,,,,,,,,,,,,,,,,,,
,,,,,,00026,2023-09-04_08h18.53.173,vbt_B1_day2,2022.2.4,Linux x86_64,60.01680471,,,,,,,,,,,,,,,,,,,,,,,,,,,down,0,11.2551,,0.15926679,-0.089835246,1,0,0,1.1346,0,82,82,131,1,opzicht,images/br_opzicht.png,images/cb_opzicht.png,0,,,,,,,,,,,,,,,,,,,,,,
,,,,,,00026,2023-09-04_08h18.53.173,vbt_B1_day2,2022.2.4,Linux x86_64,60.01680471,,,,,,,,,,,,,,,,,,,,,,,,,,,down,0,2.3732,,0.123398066,-0.215706666,1,0,0,0.9386,0,83,83,26,1,leuk,images/br_leuk.png,images/cb_leuk.png,0,,,,,,,,,,,,,,,,,,,,,,
,,,,,,00026,2023-09-04_08h18.53.173,vbt_B1_day2,2022.2.4,Linux x86_64,60.01680471,,,,,,,,,,,,,,,,,,,,,,,,,,,down,0,2.4154,,0.194603046,-0.04985408,1,0,0,3.8128,0,84,84,183,1,getuigen,images/br_getuigen.png,images/cb_getuigen.png,0,,,,,,,,,,,,,,,,,,,,,,
,,,,,,00026,2023-09-04_08h18.53.173,vbt_B1_day2,2022.2.4,Linux x86_64,60.01680471,,,,,,,,,,,,,,,,,,,,,,,,,,,down,0,6.4473,,0.158181111,-0.009209752,1,0,0,6.4933,0,85,85,180,1,openbaar,images/br_openbaar.png,images/cb_openbaar.png,0,,,,,,,,,,,,,,,,,,,,,,
,,,,,,00026,2023-09-04_08h18.53.173,vbt_B1_day2,2022.2.4,Linux x86_64,60.01680471,,,,,,,,,,,,,,,,,,,,,,,,,,,down,0,3.7251,,0.257703622,-0.087412596,1,0,0,0.8533,0,86,86,151,1,aanzoek,images/br_aanzoek.png,images/cb_aanzoek.png,0,,,,,,,,,,,,,,,,,,,,,,
,,,,,,00026,2023-09-04_08h18.53.173,vbt_B1_day2,2022.2.4,Linux x86_64,60.01680471,,,,,,,,,,,,,,,,,,,,,,,,,,,down,0,7.0714,,0.024020195,-0.049806118,1,0,0,1.9314,0,87,87,156,1,rechten,images/br_rechten.png,images/cb_rechten.png,0,,,,,,,,,,,,,,,,,,,,,,
,,,,,,00026,2023-09-04_08h18.53.173,vbt_B1_day2,2022.2.4,Linux x86_64,60.01680471,,,,,,,,,,,,,,,,,,,,,,,,,,,down,0,6.5704,,0.303672473,-0.240985394,1,0,0,6.294,0,88,88,124,1,bloeien,images/br_bloeien.png,images/cb_bloeien.png,0,,,,,,,,,,,,,,,,,,,,,,
,,,,,,00026,2023-09-04_08h18.53.173,vbt_B1_day2,2022.2.4,Linux x86_64,60.01680471,,,,,,,,,,,,,,,,,,,,,,,,,,,down,0,3.9869,,0.011570136,-0.035256306,1,0,0,0.6989,0,89,89,55,1,praat,images/br_praat.png,images/cb_praat.png,0,,,,,,,,,,,,,,,,,,,,,,
,,,,,,00026,2023-09-04_08h18.53.173,vbt_B1_day2,2022.2.4,Linux x86_64,60.01680471,,,,,,,,,,,,,,,,,,,,,,,,,,,down,0,6.6279,,0.057988723,-0.08108743,1,0,0,1.9973,0,90,90,92,1,geheim,images/br_geheim.png,images/cb_geheim.png,0,,,,,,,,,,,,,,,,,,,,,,
,,,,,,00026,2023-09-04_08h18.53.173,vbt_B1_day2,2022.2.4,Linux x86_64,60.01680471,,,,,,,,,,,,,,,,,,,,,,,,,,,down,0,1.1699,,0.04483525,-0.081766168,1,0,0,1.6338,0,91,91,105,1,wijlen,images/br_wijlen.png,images/cb_wijlen.png,0,,,,,,,,,,,,,,,,,,,,,,
,,,,,,00026,2023-09-04_08h18.53.173,vbt_B1_day2,2022.2.4,Linux x86_64,60.01680471,,,,,,,,,,,,,,,,,,,,,,,,,,,down,0,6.199,,0.177933216,-0.00522085,1,0,0,6.9471,0,92,92,196,1,nakijken,images/br_nakijken.png,images/cb_nakijken.png,0,,,,,,,,,,,,,,,,,,,,,,
,,,,,,00026,2023-09-04_08h18.53.173,vbt_B1_day2,2022.2.4,Linux x86_64,60.01680471,,,,,,,,,,,,,,,,,,,,,,,,,,,down,0,2.024,,0.093411922,-0.013066689,1,0,0,0.52,0,93,93,46,1,jagen,images/br_jagen.png,images/cb_jagen.png,0,,,,,,,,,,,,,,,,,,,,,,
,,,,,,00026,2023-09-04_08h18.53.173,vbt_B1_day2,2022.2.4,Linux x86_64,60.01680471,,,,,,,,,,,,,,,,,,,,,,,,,,,down,0,4.9437,,0.092842261,0.004799763,1,0,0,1.3021,0,94,94,37,1,mijn,images/br_mijn.png,images/cb_mijn.png,0,,,,,,,,,,,,,,,,,,,,,,
,,,,,,00026,2023-09-04_08h18.53.173,vbt_B1_day2,2022.2.4,Linux x86_64,60.01680471,,,,,,,,,,,,,,,,,,,,,,,,,,,down,0,1.2636,,0.034055233,-0.016547879,1,0,0,0.5182,0,95,95,8,1,knie,images/br_knie.png,images/cb_knie.png,0,,,,,,,,,,,,,,,,,,,,,,
,,,,,,00026,2023-09-04_08h18.53.173,vbt_B1_day2,2022.2.4,Linux x86_64,60.01680471,,,,,,,,,,,,,,,,,,,,,,,,,,,down,0,3.8593,,0.008064747,-0.036826968,1,0,0,0.8417,0,96,96,9,1,hier,images/br_hier.png,images/cb_hier.png,0,,,,,,,,,,,,,,,,,,,,,,
,,,,,,00026,2023-09-04_08h18.53.173,vbt_B1_day2,2022.2.4,Linux x86_64,60.01680471,,,,,,,,,,,,,,,,,,,,,,,,,,,down,0,5.7536,,0.124862194,-0.071958661,1,0,0,2.58,0,97,97,23,1,zout,images/br_zout.png,images/cb_zout.png,0,,,,,,,,,,,,,,,,,,,,,,
,,,,,,00026,2023-09-04_08h18.53.173,vbt_B1_day2,2022.2.4,Linux x86_64,60.01680471,,,,,,,,,,,,,,,,,,,,,,,,,,,down,0,4.8317,,0.530232906,-0.158720334,1,0,0,0.6642,0,98,98,146,1,opkomen,images/br_opkomen.png,images/cb_opkomen.png,0,,,,,,,,,,,,,,,,,,,,,,
,,,,,,00026,2023-09-04_08h18.53.173,vbt_B1_day2,2022.2.4,Linux x86_64,60.01680471,,,,,,,,,,,,,,,,,,,,,,,,,,,down,0,2.9823,,0.083214442,-0.023355762,1,0,0,1.7988,0,99,99,12,1,kust,images/br_kust.png,images/cb_kust.png,0,,,,,,,,,,,,,,,,,,,,,,
,,,,,,00026,2023-09-04_08h18.53.173,vbt_B1_day2,2022.2.4,Linux x86_64,60.01680471,,,,,,,,,,,,,,,,,,,,,,,,,,,down,0,9.444,,0.089385509,0.042120377,1,0,0,3.2759,0,100,100,176,1,techniek,images/br_techniek.png,images/cb_techniek.png,1,techniek,,,,,,,,,,,,,,,,,,,,,
,,,,,,00026,2023-09-04_08h18.53.173,vbt_B1_day2,2022.2.4,Linux x86_64,60.01680471,,,,,,,,,,,,,,,,,,,,,,,,,,,down,0,6.9942,,0.314987183,-0.092060089,1,0,0,0.8653,0,101,101,144,1,eetlust,images/br_eetlust.png,images/cb_eetlust.png,0,,,,,,,,,,,,,,,,,,,,,,
,,,,,,00026,2023-09-04_08h18.53.173,vbt_B1_day2,2022.2.4,Linux x86_64,60.01680471,,,,,,,,,,,,,,,,,,,,,,,,,,,down,0,5.6291,,0.035626968,-0.055473924,1,0,0,1.4365,0,102,102,198,1,bedoelen,images/br_bedoelen.png,images/cb_bedoelen.png,0,,,,,,,,,,,,,,,,,,,,,,
,,,,,,00026,2023-09-04_08h18.53.173,vbt_B1_day2,2022.2.4,Linux x86_64,60.01680471,,,,,,,,,,,,,,,,,,,,,,,,,,,down,0,4.1162,,0.250825485,-0.015623252,1,0,0,2.7807,0,103,103,155,1,gerucht,images/br_gerucht.png,images/cb_gerucht.png,0,,,,,,,,,,,,,,,,,,,,,,
,,,,,,00026,2023-09-04_08h18.53.173,vbt_B1_day2,2022.2.4,Linux x86_64,60.01680471,,,,,,,,,,,,,,,,,,,,,,,,,,,down,0,0.5095,,0.028216839,-0.053720315,1,0,0,1.698,0,104,104,110,1,zuster,images/br_zuster.png,images/cb_zuster.png,0,,,,,,,,,,,,,,,,,,,,,,
,,,,,,00026,2023-09-04_08h18.53.173,vbt_B1_day2,2022.2.4,Linux x86_64,60.01680471,,,,,,,,,,,,,,,,,,,,,,,,,,,down,0,4.0807,,-0.055380901,-0.027169625,1,0,0,1.6328,0,105,105,42,1,bleek,images/br_bleek.png,images/cb_bleek.png,0,,,,,,,,,,,,,,,,,,,,,,
,,,,,,00026,2023-09-04_08h18.53.173,vbt_B1_day2,2022.2.4,Linux x86_64,60.01680471,,,,,,,,,,,,,,,,,,,,,,,,,,,down,0,1.4195,,0.166489601,0.003369292,1,0,0,3.6128,0,106,106,192,1,schaamte,images/br_schaamte.png,images/cb_schaamte.png,0,,,,,,,,,,,,,,,,,,,,,,
,,,,,,00026,2023-09-04_08h18.53.173,vbt_B1_day2,2022.2.4,Linux x86_64,60.01680471,,,,,,,,,,,,,,,,,,,,,,,,,,,down,0,5.2074,,0.26131471,-0.132371068,1,0,0,6.4088,0,107,107,187,1,opkijken,images/br_opkijken.png,images/cb_opkijken.png,0,,,,,,,,,,,,,,,,,,,,,,
,,,,,,00026,2023-09-04_08h18.53.173,vbt_B1_day2,2022.2.4,Linux x86_64,60.01680471,,,,,,,,,,,,,,,,,,,,,,,,,,,down,0,3.1853,,0.147150358,-0.07520779,1,0,0,1.2659,0,108,108,90,1,geluid,images/br_geluid.png,images/cb_geluid.png,0,,,,,,,,,,,,,,,,,,,,,,
,,,,,,00026,2023-09-04_08h18.53.173,vbt_B1_day2,2022.2.4,Linux x86_64,60.01680471,,,,,,,,,,,,,,,,,,,,,,,,,,,down,0,5.4941,,0.247586966,-0.056260745,1,0,0,1.1836,0,109,109,197,1,spanning,images/br_spanning.png,images/cb_spanning.png,0,,,,,,,,,,,,,,,,,,,,,,
,,,,,,00026,2023-09-04_08h18.53.173,vbt_B1_day2,2022.2.4,Linux x86_64,60.01680471,,,,,,,,,,,,,,,,,,,,,,,,,,,down,0,1.6684,,0.154122194,-0.031581402,1,0,0,0.6202,0,110,110,52,1,wagon,images/br_wagon.png,images/cb_wagon.png,0,,,,,,,,,,,,,,,,,,,,,,
,,,,,,00026,2023-09-04_08h18.53.173,vbt_B1_day2,2022.2.4,Linux x86_64,60.01680471,,,,,,,,,,,,,,,,,,,,,,,,,,,down,0,1.5214,,0.03447628,0.054856777,1,0,0,3.4974,0,111,111,182,1,bijkomen,images/br_bijkomen.png,images/cb_bijkomen.png,0,,,,,,,,,,,,,,,,,,,,,,
,,,,,,00026,2023-09-04_08h18.53.173,vbt_B1_day2,2022.2.4,Linux x86_64,60.01680471,,,,,,,,,,,,,,,,,,,,,,,,,,,down,0,3.0804,,0.070675453,-0.04353718,1,0,0,1.3168,0,112,112,21,1,mist,images/br_mist.png,images/cb_mist.png,0,,,,,,,,,,,,,,,,,,,,,,
,,,,,,00026,2023-09-04_08h18.53.173,vbt_B1_day2,2022.2.4,Linux x86_64,60.01680471,,,,,,,,,,,,,,,,,,,,,,,,,,,down,0,10.1069,,-0.078148127,-0.125397523,1,0,0,4.6495,0,113,113,14,1,rijp,images/br_rijp.png,images/cb_rijp.png,0,,,,,,,,,,,,,,,,,,,,,,
,,,,,,00026,2023-09-04_08h18.53.173,vbt_B1_day2,2022.2.4,Linux x86_64,60.01680471,,,,,,,,,,,,,,,,,,,,,,,,,,,down,0,0.3083,,-0.008947213,-0.073437572,1,0,0,1.8311,0,114,114,36,1,vuur,images/br_vuur.png,images/cb_vuur.png,0,,,,,,,,,,,,,,,,,,,,,,
,,,,,,00026,2023-09-04_08h18.53.173,vbt_B1_day2,2022.2.4,Linux x86_64,60.01680471,,,,,,,,,,,,,,,,,,,,,,,,,,,down,0,0.0858,,0.231595198,0.049626827,1,0,0,5.3775,0,115,115,193,1,weeshuis,images/br_weeshuis.png,images/cb_weeshuis.png,0,,,,,,,,,,,,,,,,,,,,,,
,,,,,,00026,2023-09-04_08h18.53.173,vbt_B1_day2,2022.2.4,Linux x86_64,60.01680471,,,,,,,,,,,,,,,,,,,,,,,,,,,down,0,26.5909,,0.106522799,0.052770654,1,0,0,0.9159,0,116,116,177,1,maaltijd,images/br_maaltijd.png,images/cb_maaltijd.png,1,maaltijd,,,,,,,,,,,,,,,,,,,,,
,,,,,,00026,2023-09-04_08h18.53.173,vbt_B1_day2,2022.2.4,Linux x86_64,60.01680471,,,,,,,,,,,,,,,,,,,,,,,,,,,down,0,8.4182,,0.053720395,-0.064001838,1,0,0,0.9327,0,117,117,116,1,besmet,images/br_besmet.png,images/cb_besmet.png,0,,,,,,,,,,,,,,,,,,,,,,
,,,,,,00026,2023-09-04_08h18.53.173,vbt_B1_day2,2022.2.4,Linux x86_64,60.01680471,,,,,,,,,,,,,,,,,,,,,,,,,,,down,0,0.5708,,0.130626043,-0.031556169,1,0,0,2.2462,0,118,118,157,1,uitlaat,images/br_uitlaat.png,images/cb_uitlaat.png,0,,,,,,,,,,,,,,,,,,,,,,
,,,,,,00026,2023-09-04_08h18.53.173,vbt_B1_day2,2022.2.4,Linux x86_64,60.01680471,,,,,,,,,,,,,,,,,,,,,,,,,,,down,0,4.9264,,0.246615648,0.069214503,1,0,0,1.0173,0,119,119,88,1,boeien,images/br_boeien.png,images/cb_boeien.png,0,,,,,,,,,,,,,,,,,,,,,,
,,,,,,00026,2023-09-04_08h18.53.173,vbt_B1_day2,2022.2.4,Linux x86_64,60.01680471,,,,,,,,,,,,,,,,,,,,,,,,,,,down,0,0.4454,,0.12288936,-0.04758954,1,0,0,4.9281,0,120,120,186,1,voorraad,images/br_voorraad.png,images/cb_voorraad.png,0,,,,,,,,,,,,,,,,,,,,,,
,,,,,,00026,2023-09-04_08h18.53.173,vbt_B1_day2,2022.2.4,Linux x86_64,60.01680471,,,,,,,,,,,,,,,,,,,,,,,,,,,down,0,8.3274,,0.026251475,-0.080999613,1,0,0,1.8859,0,121,121,164,1,anarchie,images/br_anarchie.png,images/cb_anarchie.png,0,,,,,,,,,,,,,,,,,,,,,,
,,,,,,00026,2023-09-04_08h18.53.173,vbt_B1_day2,2022.2.4,Linux x86_64,60.01680471,,,,,,,,,,,,,,,,,,,,,,,,,,,down,0,1.2519,,0.005909999,-0.174606641,1,0,0,1.1316,0,122,122,16,1,ziek,images/br_ziek.png,images/cb_ziek.png,1,ziek,,,,,,,,,,,,,,,,,,,,,
,,,,,,00026,2023-09-04_08h18.53.173,vbt_B1_day2,2022.2.4,Linux x86_64,60.01680471,,,,,,,,,,,,,,,,,,,,,,,,,,,down,0,6.7718,,0.007874727,-0.014992793,1,0,0,1.0822,0,123,123,165,1,feestdag,images/br_feestdag.png,images/cb_feestdag.png,0,,,,,,,,,,,,,,,,,,,,,,
,,,,,,00026,2023-09-04_08h18.53.173,vbt_B1_day2,2022.2.4,Linux x86_64,60.01680471,,,,,,,,,,,,,,,,,,,,,,,,,,,down,0,1.2699,,0.123913129,-0.040961862,1,0,0,1.4848,0,124,124,13,1,kaal,images/br_kaal.png,images/cb_kaal.png,0,,,,,,,,,,,,,,,,,,,,,,
,,,,,,00026,2023-09-04_08h18.53.173,vbt_B1_day2,2022.2.4,Linux x86_64,60.01680471,,,,,,,,,,,,,,,,,,,,,,,,,,,down,0,10.6643,,0.094533046,-0.122092088,1,0,0,1.3814,0,125,125,81,1,dubbel,images/br_dubbel.png,images/cb_dubbel.png,0,,,,,,,,,,,,,,,,,,,,,,
,,,,,,00026,2023-09-04_08h18.53.173,vbt_B1_day2,2022.2.4,Linux x86_64,60.01680471,,,,,,,,,,,,,,,,,,,,,,,,,,,down,0,3.815,,0.094242175,-0.122092088,1,0,0,0.7197,0,126,126,126,1,kasteel,images/br_kasteel.png,images/cb_kasteel.png,0,,,,,,,,,,,,,,,,,,,,,,
,,,,,,00026,2023-09-04_08h18.53.173,vbt_B1_day2,2022.2.4,Linux x86_64,60.01680471,,,,,,,,,,,,,,,,,,,,,,,,,,,down,0,5.5633,,0.167479753,-0.093489567,1,0,0,1.7874,0,127,127,161,1,attentie,images/br_attentie.png,images/cb_attentie.png,0,,,,,,,,,,,,,,,,,,,,,,
,,,,,,00026,2023-09-04_08h18.53.173,vbt_B1_day2,2022.2.4,Linux x86_64,60.01680471,,,,,,,,,,,,,,,,,,,,,,,,,,,down,0,6.4183,,0.117940903,-0.030486425,1,0,0,0.6495,0,128,128,69,1,waken,images/br_waken.png,images/cb_waken.png,0,,,,,,,,,,,,,,,,,,,,,,
,,,,,,00026,2023-09-04_08h18.53.173,vbt_B1_day2,2022.2.4,Linux x86_64,60.01680471,,,,,,,,,,,,,,,,,,,,,,,,,,,down,0,0.7502,,0.141939799,-0.026780049,1,0,0,3.9948,0,129,129,73,1,volop,images/br_volop.png,images/cb_volop.png,0,,,,,,,,,,,,,,,,,,,,,,
,,,,,,00026,2023-09-04_08h18.53.173,vbt_B1_day2,2022.2.4,Linux x86_64,60.01680471,,,,,,,,,,,,,,,,,,,,,,,,,,,down,0,5.6627,,0.269123395,-0.169923226,1,0,0,1.6316,0,130,130,30,1,uien,images/br_uien.png,images/cb_uien.png,0,,,,,,,,,,,,,,,,,,,,,,
,,,,,,00026,2023-09-04_08h18.53.173,vbt_B1_day2,2022.2.4,Linux x86_64,60.01680471,,,,,,,,,,,,,,,,,,,,,,,,,,,down,0,1.9868,,0.350570679,0.022491256,1,0,0,2.105,0,131,131,143,1,hechten,images/br_hechten.png,images/cb_hechten.png,0,,,,,,,,,,,,,,,,,,,,,,
,,,,,,00026,2023-09-04_08h18.53.173,vbt_B1_day2,2022.2.4,Linux x86_64,60.01680471,,,,,,,,,,,,,,,,,,,,,,,,,,,down,0,1.6512,,0.055727641,-0.07547617,1,0,0,0.899,0,132,132,115,1,kleren,images/br_kleren.png,images/cb_kleren.png,0,,,,,,,,,,,,,,,,,,,,,,
,,,,,,00026,2023-09-04_08h18.53.173,vbt_B1_day2,2022.2.4,Linux x86_64,60.01680471,,,,,,,,,,,,,,,,,,,,,,,,,,,down,0,2.384,,0.205362797,-0.090369423,1,0,0,2.8628,0,133,133,162,1,uitdelen,images/br_uitdelen.png,images/cb_uitdelen.png,0,,,,,,,,,,,,,,,,,,,,,,
,,,,,,00026,2023-09-04_08h18.53.173,vbt_B1_day2,2022.2.4,Linux x86_64,60.01680471,,,,,,,,,,,,,,,,,,,,,,,,,,,down,0,3.2795,,0.142154376,-0.103005489,1,0,0,1.1853,0,134,134,76,1,afval,images/br_afval.png,images/cb_afval.png,0,,,,,,,,,,,,,,,,,,,,,,
,,,,,,00026,2023-09-04_08h18.53.173,vbt_B1_day2,2022.2.4,Linux x86_64,60.01680471,,,,,,,,,,,,,,,,,,,,,,,,,,,down,0,5.6365,,0.22423617,-0.000700871,1,0,0,2.1139,0,135,135,160,1,daarheen,images/br_daarheen.png,images/cb_daarheen.png,0,,,,,,,,,,,,,,,,,,,,,,
,,,,,,00026,2023-09-04_08h18.53.173,vbt_B1_day2,2022.2.4,Linux x86_64,60.01680471,,,,,,,,,,,,,,,,,,,,,,,,,,,down,0,0.8251,,0.096045812,-0.060193261,1,0,0,6.3772,0,136,136,142,1,snuiven,images/br_snuiven.png,images/cb_snuiven.png,0,,,,,,,,,,,,,,,,,,,,,,
,,,,,,00026,2023-09-04_08h18.53.173,vbt_B1_day2,2022.2.4,Linux x86_64,60.01680471,,,,,,,,,,,,,,,,,,,,,,,,,,,down,0,0.3625,,0.14009889,-0.096346736,1,0,0,2.597,0,137,137,11,1,mode,images/br_mode.png,images/cb_mode.png,0,,,,,,,,,,,,,,,,,,,,,,
,,,,,,00026,2023-09-04_08h18.53.173,vbt_B1_day2,2022.2.4,Linux x86_64,60.01680471,,,,,,,,,,,,,,,,,,,,,,,,,,,down,0,2.4023,,0.026360432,-0.021160324,1,0,0,1.782,0,138,138,61,1,groen,images/br_groen.png,images/cb_groen.png,0,,,,,,,,,,,,,,,,,,,,,,
,,,,,,00026,2023-09-04_08h18.53.173,vbt_B1_day2,2022.2.4,Linux x86_64,60.01680471,,,,,,,,,,,,,,,,,,,,,,,,,,,down,0,1.4438,,0.429633379,0.06577611,1,0,0,1.3511,0,139,139,34,1,vorm,images/br_vorm.png,images/cb_vorm.png,0,,,,,,,,,,,,,,,,,,,,,,
,,,,,,00026,2023-09-04_08h18.53.173,vbt_B1_day2,2022.2.4,Linux x86_64,60.01680471,,,,,,,,,,,,,,,,,,,,,,,,,,,down,0,3.0065,,0.120505174,-0.035121918,1,0,0,1.8462,0,140,140,158,1,innemen,images/br_innemen.png,images/cb_innemen.png,0,,,,,,,,,,,,,,,,,,,,,,
,,,,,,00026,2023-09-04_08h18.53.173,vbt_B1_day2,2022.2.4,Linux x86_64,60.01680471,,,,,,,,,,,,,,,,,,,,,,,,,,,down,0,1.617,,0.271035671,-0.144477526,1,0,0,0.939,0,141,141,49,1,laken,images/br_laken.png,images/cb_laken.png,0,,,,,,,,,,,,,,,,,,,,,,
,,,,,,00026,2023-09-04_08h18.53.173,vbt_B1_day2,2022.2.4,Linux x86_64,60.01680471,,,,,,,,,,,,,,,,,,,,,,,,,,,down,0,1.8147,,0.253744364,-0.172979355,1,0,0,1.0243,0,142,142,169,1,oprotten,images/br_oprotten.png,images/cb_oprotten.png,0,,,,,,,,,,,,,,,,,,,,,,
,,,,,,00026,2023-09-04_08h18.53.173,vbt_B1_day2,2022.2.4,Linux x86_64,60.01680471,,,,,,,,,,,,,,,,,,,,,,,,,,,down,0,7.1481,,0.28365167,-0.103490988,1,0,0,1.3181,0,143,143,163,1,schuilen,images/br_schuilen.png,images/cb_schuilen.png,0,,,,,,,,,,,,,,,,,,,,,,
,,,,,,00026,2023-09-04_08h18.53.173,vbt_B1_day2,2022.2.4,Linux x86_64,60.01680471,,,,,,,,,,,,,,,,,,,,,,,,,,,down,0,5.026,,0.21680665,-0.158497175,1,0,0,0.9827,0,144,144,40,1,schep,images/br_schep.png,images/cb_schep.png,0,,,,,,,,,,,,,,,,,,,,,,
,,,,,,00026,2023-09-04_08h18.53.173,vbt_B1_day2,2022.2.4,Linux x86_64,60.01680471,,,,,,,,,,,,,,,,,,,,,,,,,,,down,0,3.8837,,0.215061029,-0.160242637,1,0,0,0.982,0,145,145,83,1,mening,images/br_mening.png,images/cb_mening.png,0,,,,,,,,,,,,,,,,,,,,,,
,,,,,,00026,2023-09-04_08h18.53.173,vbt_B1_day2,2022.2.4,Linux x86_64,60.01680471,,,,,,,,,,,,,,,,,,,,,,,,,,,down,0,19.4745,,0.03827103,-0.132343054,1,0,0,0.9158,0,146,146,6,1,diep,images/br_diep.png,images/cb_diep.png,0,,,,,,,,,,,,,,,,,,,,,,
,,,,,,00026,2023-09-04_08h18.53.173,vbt_B1_day2,2022.2.4,Linux x86_64,60.01680471,,,,,,,,,,,,,,,,,,,,,,,,,,,down,0,1.8727,,0.195868333,-0.182983955,1,0,0,3.3011,0,147,147,133,1,seizoen,images/br_seizoen.png,images/cb_seizoen.png,0,,,,,,,,,,,,,,,,,,,,,,
,,,,,,00026,2023-09-04_08h18.53.173,vbt_B1_day2,2022.2.4,Linux x86_64,60.01680471,,,,,,,,,,,,,,,,,,,,,,,,,,,down,0,11.3817,,0.303905725,-0.142366846,1,0,0,9.8805,0,148,148,48,1,steel,images/br_steel.png,images/cb_steel.png,0,,,,,,,,,,,,,,,,,,,,,,
,,,,,,00026,2023-09-04_08h18.53.173,vbt_B1_day2,2022.2.4,Linux x86_64,60.01680471,,,,,,,,,,,,,,,,,,,,,,,,,,,down,0,0.3302,,0.074206114,-0.03351291,1,0,0,4.8125,0,149,149,32,1,palm,images/br_palm.png,images/cb_palm.png,0,,,,,,,,,,,,,,,,,,,,,,
,,,,,,00026,2023-09-04_08h18.53.173,vbt_B1_day2,2022.2.4,Linux x86_64,60.01680471,,,,,,,,,,,,,,,,,,,,,,,,,,,down,0,4.7298,,-0.121707519,-0.075521469,1,0,0,1.9369,0,150,150,188,1,strekken,images/br_strekken.png,images/cb_strekken.png,0,,,,,,,,,,,,,,,,,,,,,,
,,,,,,00026,2023-09-04_08h18.53.173,vbt_B1_day2,2022.2.4,Linux x86_64,60.01680471,,,,,,,,,,,,,,,,,,,,,,,,,,,down,0,1.753,,0.128481706,-0.04752632,1,0,0,3.7957,0,151,151,35,1,lust,images/br_lust.png,images/cb_lust.png,0,,,,,,,,,,,,,,,,,,,,,,
,,,,,,00026,2023-09-04_08h18.53.173,vbt_B1_day2,2022.2.4,Linux x86_64,60.01680471,,,,,,,,,,,,,,,,,,,,,,,,,,,down,0,9.2284,,0.097946246,-0.101572593,1,0,0,0.8324,0,152,152,101,1,staren,images/br_staren.png,images/cb_staren.png,0,,,,,,,,,,,,,,,,,,,,,,
,,,,,,00026,2023-09-04_08h18.53.173,vbt_B1_day2,2022.2.4,Linux x86_64,60.01680471,,,,,,,,,,,,,,,,,,,,,,,,,,,down,0,0.7674,,0.088083665,-0.129222194,1,0,0,1.1821,0,153,153,4,1,moes,images/br_moes.png,images/cb_moes.png,0,,,,,,,,,,,,,,,,,,,,,,
,,,,,,00026,2023-09-04_08h18.53.173,vbt_B1_day2,2022.2.4,Linux x86_64,60.01680471,,,,,,,,,,,,,,,,,,,,,,,,,,,down,0,2.7223,,0.144228935,-0.000441631,1,0,0,2.1993,0,154,154,19,1,geit,images/br_geit.png,images/cb_geit.png,1,geit,,,,,,,,,,,,,,,,,,,,,
,,,,,,00026,2023-09-04_08h18.53.173,vbt_B1_day2,2022.2.4,Linux x86_64,60.01680471,,,,,,,,,,,,,,,,,,,,,,,,,,,down,0,2.5442,,0.206943989,-0.057332317,1,0,0,2.8471,0,155,155,199,1,beseffen,images/br_beseffen.png,images/cb_beseffen.png,0,,,,,,,,,,,,,,,,,,,,,,
,,,,,,00026,2023-09-04_08h18.53.173,vbt_B1_day2,2022.2.4,Linux x86_64,60.01680471,,,,,,,,,,,,,,,,,,,,,,,,,,,down,0,1.4498,,0.135733048,-0.107898275,1,0,0,2.2663,0,156,156,119,1,liefje,images/br_liefje.png,images/cb_liefje.png,0,,,,,,,,,,,,,,,,,,,,,,
,,,,,,00026,2023-09-04_08h18.53.173,vbt_B1_day2,2022.2.4,Linux x86_64,60.01680471,,,,,,,,,,,,,,,,,,,,,,,,,,,down,0,1.7907,,0.167114655,-0.070706288,1,0,0,1.7692,0,157,157,38,1,baai,images/br_baai.png,images/cb_baai.png,0,,,,,,,,,,,,,,,,,,,,,,
,,,,,,00026,2023-09-04_08h18.53.173,vbt_B1_day2,2022.2.4,Linux x86_64,60.01680471,,,,,,,,,,,,,,,,,,,,,,,,,,,down,0,0.3829,,0.134213765,-0.063209295,1,0,0,2.0811,0,158,158,70,1,ijdel,images/br_ijdel.png,images/cb_ijdel.png,0,,,,,,,,,,,,,,,,,,,,,,
,,,,,,00026,2023-09-04_08h18.53.173,vbt_B1_day2,2022.2.4,Linux x86_64,60.01680471,,,,,,,,,,,,,,,,,,,,,,,,,,,down,0,2.4002,,0.11581707,-0.095110218,1,0,0,2.7918,0,159,159,54,1,gebit,images/br_gebit.png,images/cb_gebit.png,0,,,,,,,,,,,,,,,,,,,,,,
,,,,,,00026,2023-09-04_08h18.53.173,vbt_B1_day2,2022.2.4,Linux x86_64,60.01680471,,,,,,,,,,,,,,,,,,,,,,,,,,,down,0,5.3487,,0.168469032,-0.16704154,1,0,0,1.5324,0,160,160,75,1,snoep,images/br_snoep.png,images/cb_snoep.png,0,,,,,,,,,,,,,,,,,,,,,,
,,,,,,00026,2023-09-04_08h18.53.173,vbt_B1_day2,2022.2.4,Linux x86_64,60.01680471,,,,,,,,,,,,,,,,,,,,,,,,,,,down,0,8.5285,,0.063170592,-0.245774269,1,0,0,1.0981,0,161,161,66,1,lever,images/br_lever.png,images/cb_lever.png,0,,,,,,,,,,,,,,,,,,,,,,
,,,,,,00026,2023-09-04_08h18.53.173,vbt_B1_day2,2022.2.4,Linux x86_64,60.01680471,,,,,,,,,,,,,,,,,,,,,,,,,,,down,0,2.7392,,0.154501994,-0.037153165,1,0,0,1.57,0,162,162,50,1,stoom,images/br_stoom.png,images/cb_stoom.png,0,,,,,,,,,,,,,,,,,,,,,,
,,,,,,00026,2023-09-04_08h18.53.173,vbt_B1_day2,2022.2.4,Linux x86_64,60.01680471,,,,,,,,,,,,,,,,,,,,,,,,,,,down,0,5.2621,,0.156002919,-0.01905934,1,0,0,2.0982,0,163,163,178,1,huisdier,images/br_huisdier.png,images/cb_huisdier.png,1,,,,,,,,,,,,,,,,,,,,,,
,,,,,,00026,2023-09-04_08h18.53.173,vbt_B1_day2,2022.2.4,Linux x86_64,60.01680471,,,,,,,,,,,,,,,,,,,,,,,,,,,down,0,0.7365,,0.230377674,0.087225358,1,0,0,3.4123,0,164,164,77,1,woede,images/br_woede.png,images/cb_woede.png,0,,,,,,,,,,,,,,,,,,,,,,
,,,,,,00026,2023-09-04_08h18.53.173,vbt_B1_day2,2022.2.4,Linux x86_64,60.01680471,,,,,,,,,,,,,,,,,,,,,,,,,,,down,0,3.417,,0.118515491,-0.027714054,1,0,0,1.216,0,165,165,147,1,komisch,images/br_komisch.png,images/cb_komisch.png,0,,,,,,,,,,,,,,,,,,,,,,
,,,,,,00026,2023-09-04_08h18.53.173,vbt_B1_day2,2022.2.4,Linux x86_64,60.01680471,,,,,,,,,,,,,,,,,,,,,,,,,,,down,0,6.0625,,0.106981993,-0.165331364,1,0,0,1.5484,0,166,166,135,1,gedicht,images/br_gedicht.png,images/cb_gedicht.png,0,,,,,,,,,,,,,,,,,,,,,,
,,,,,,00026,2023-09-04_08h18.53.173,vbt_B1_day2,2022.2.4,Linux x86_64,60.01680471,,,,,,,,,,,,,,,,,,,,,,,,,,,down,0,4.2305,,0.095275958,-0.221983751,1,0,0,1.0989,0,167,167,94,1,oceaan,images/br_oceaan.png,images/cb_oceaan.png,0,,,,,,,,,,,,,,,,,,,,,,
,,,,,,00026,2023-09-04_08h18.53.173,vbt_B1_day2,2022.2.4,Linux x86_64,60.01680471,,,,,,,,,,,,,,,,,,,,,,,,,,,down,0,1.482,,0.123259544,-0.192145189,1,0,0,1.1145,0,168,168,64,1,wegen,images/br_wegen.png,images/cb_wegen.png,0,,,,,,,,,,,,,,,,,,,,,,
,,,,,,00026,2023-09-04_08h18.53.173,vbt_B1_day2,2022.2.4,Linux x86_64,60.01680471,,,,,,,,,,,,,,,,,,,,,,,,,,,down,0,0.4308,,0.155183713,-0.13261346,1,0,0,0.9156,0,169,169,159,1,sufferd,images/br_sufferd.png,images/cb_sufferd.png,0,,,,,,,,,,,,,,,,,,,,,,
,,,,,,00026,2023-09-04_08h18.53.173,vbt_B1_day2,2022.2.4,Linux x86_64,60.01680471,,,,,,,,,,,,,,,,,,,,,,,,,,,down,0,0.4162,,0.203980128,-0.0989091,1,0,0,0.954,0,170,170,102,1,legaal,images/br_legaal.png,images/cb_legaal.png,0,,,,,,,,,,,,,,,,,,,,,,
,,,,,,00026,2023-09-04_08h18.53.173,vbt_B1_day2,2022.2.4,Linux x86_64,60.01680471,,,,,,,,,,,,,,,,,,,,,,,,,,,down,0,0.2684,,0.04001681,-0.03041033,1,0,0,1.4276,0,171,171,82,1,muziek,images/br_muziek.png,images/cb_muziek.png,0,,,,,,,,,,,,,,,,,,,,,,
,,,,,,00026,2023-09-04_08h18.53.173,vbt_B1_day2,2022.2.4,Linux x86_64,60.01680471,,,,,,,,,,,,,,,,,,,,,,,,,,,down,0,0.1872,,-0.009388844,-0.085407257,1,0,0,0.8824,0,172,172,84,1,lokken,images/br_lokken.png,images/cb_lokken.png,0,,,,,,,,,,,,,,,,,,,,,,
,,,,,,00026,2023-09-04_08h18.53.173,vbt_B1_day2,2022.2.4,Linux x86_64,60.01680471,,,,,,,,,,,,,,,,,,,,,,,,,,,down,0,0.8665,,-0.011786858,-0.06586949,1,0,0,2.0817,0,173,173,63,1,flirt,images/br_flirt.png,images/cb_flirt.png,0,,,,,,,,,,,,,,,,,,,,,,
,,,,,,00026,2023-09-04_08h18.53.173,vbt_B1_day2,2022.2.4,Linux x86_64,60.01680471,,,,,,,,,,,,,,,,,,,,,,,,,,,down,0,0.4346,,-0.040742556,-0.004535079,1,0,0,1.5485,0,174,174,132,1,grappen,images/br_grappen.png,images/cb_grappen.png,0,,,,,,,,,,,,,,,,,,,,,,
,,,,,,00026,2023-09-04_08h18.53.173,vbt_B1_day2,2022.2.4,Linux x86_64,60.01680471,,,,,,,,,,,,,,,,,,,,,,,,,,,down,0,0.1049,,0.069216172,-0.003858089,1,0,0,1.249,0,175,175,109,1,totaal,images/br_totaal.png,images/cb_totaal.png,0,,,,,,,,,,,,,,,,,,,,,,
,,,,,,00026,2023-09-04_08h18.53.173,vbt_B1_day2,2022.2.4,Linux x86_64,60.01680471,,,,,,,,,,,,,,,,,,,,,,,,,,,down,0,0.1152,,0.166012605,0.023491661,1,0,0,1.6974,0,176,176,170,1,schatten,images/br_schatten.png,images/cb_schatten.png,0,,,,,,,,,,,,,,,,,,,,,,
,,,,,,00026,2023-09-04_08h18.53.173,vbt_B1_day2,2022.2.4,Linux x86_64,60.01680471,,,,,,,,,,,,,,,,,,,,,,,,,,,down,0,3.2323,,0.129853964,-0.049167156,1,0,0,1.2986,0,177,177,106,1,zingen,images/br_zingen.png,images/cb_zingen.png,0,,,,,,,,,,,,,,,,,,,,,,
,,,,,,00026,2023-09-04_08h18.53.173,vbt_B1_day2,2022.2.4,Linux x86_64,60.01680471,,,,,,,,,,,,,,,,,,,,,,,,,,,down,0,1.5778,,0.052740177,-0.125926614,1,0,0,1.2498,0,178,178,41,1,maken,images/br_maken.png,images/cb_maken.png,0,,,,,,,,,,,,,,,,,,,,,,
,,,,,,00026,2023-09-04_08h18.53.173,vbt_B1_day2,2022.2.4,Linux x86_64,60.01680471,,,,,,,,,,,,,,,,,,,,,,,,,,,down,0,0.3868,,0.002636353,-0.140103579,1,0,0,4.1796,0,179,179,0,1,slak,images/br_slak.png,images/cb_slak.png,0,,,,,,,,,,,,,,,,,,,,,,
,,,,,,00026,2023-09-04_08h18.53.173,vbt_B1_day2,2022.2.4,Linux x86_64,60.01680471,,,,,,,,,,,,,,,,,,,,,,,,,,,down,0,3.8481,,0.054697434,-0.112312158,1,0,0,1.2655,0,180,180,56,1,traag,images/br_traag.png,images/cb_traag.png,1,traag,,,,,,,,,,,,,,,,,,,,,
,,,,,,00026,2023-09-04_08h18.53.173,vbt_B1_day2,2022.2.4,Linux x86_64,60.01680471,,,,,,,,,,,,,,,,,,,,,,,,,,,down,0,0.1192,,0.195070744,-0.01508685,1,0,0,1.848,0,181,181,89,1,slapen,images/br_slapen.png,images/cb_slapen.png,0,,,,,,,,,,,,,,,,,,,,,,
,,,,,,00026,2023-09-04_08h18.53.173,vbt_B1_day2,2022.2.4,Linux x86_64,60.01680471,,,,,,,,,,,,,,,,,,,,,,,,,,,down,0,10.7899,,0.1752189,0.039101283,1,0,0,0.8996,0,182,182,98,1,kreeft,images/br_kreeft.png,images/cb_kreeft.png,1,kreeft,,,,,,,,,,,,,,,,,,,,,
,,,,,,00026,2023-09-04_08h18.53.173,vbt_B1_day2,2022.2.4,Linux x86_64,60.01680471,,,,,,,,,,,,,,,,,,,,,,,,,,,down,0,0.7634,,0.050639153,0.037874103,1,0,0,1.7983,0,183,183,10,1,leek,images/br_leek.png,images/cb_leek.png,0,,,,,,,,,,,,,,,,,,,,,,
,,,,,,00026,2023-09-04_08h18.53.173,vbt_B1_day2,2022.2.4,Linux x86_64,60.01680471,,,,,,,,,,,,,,,,,,,,,,,,,,,down,0,8.0269,,0.020036777,-0.082858165,1,0,0,1.4316,0,184,184,138,1,akkoord,images/br_akkoord.png,images/cb_akkoord.png,1,akkoord,,,,,,,,,,,,,,,,,,,,,
,,,,,,00026,2023-09-04_08h18.53.173,vbt_B1_day2,2022.2.4,Linux x86_64,60.01680471,,,,,,,,,,,,,,,,,,,,,,,,,,,down,0,1.9603,,0.276621739,-0.135972063,1,0,0,5.211,0,185,185,150,1,gegeven,images/br_gegeven.png,images/cb_gegeven.png,0,,,,,,,,,,,,,,,,,,,,,,
,,,,,,00026,2023-09-04_08h18.53.173,vbt_B1_day2,2022.2.4,Linux x86_64,60.01680471,,,,,,,,,,,,,,,,,,,,,,,,,,,down,0,6.3793,,0.082594633,-0.291738987,1,0,0,1.3516,0,186,186,181,1,toegeven,images/br_toegeven.png,images/cb_toegeven.png,0,,,,,,,,,,,,,,,,,,,,,,
,,,,,,00026,2023-09-04_08h18.53.173,vbt_B1_day2,2022.2.4,Linux x86_64,60.01680471,,,,,,,,,,,,,,,,,,,,,,,,,,,down,0,0.0176,,0.206824859,-0.162612597,1,0,0,1.2994,0,187,187,65,1,parel,images/br_parel.png,images/cb_parel.png,0,,,,,,,,,,,,,,,,,,,,,,
,,,,,,00026,2023-09-04_08h18.53.173,vbt_B1_day2,2022.2.4,Linux x86_64,60.01680471,,,,,,,,,,,,,,,,,,,,,,,,,,,down,0,0.4989,,0.196066618,-0.051442663,1,0,0,0.8705,0,188,188,68,1,schat,images/br_schat.png,images/cb_schat.png,0,,,,,,,,,,,,,,,,,,,,,,
,,,,,,00026,2023-09-04_08h18.53.173,vbt_B1_day2,2022.2.4,Linux x86_64,60.01680471,,,,,,,,,,,,,,,,,,,,,,,,,,,down,0,0.4786,,0.161151568,-0.112507939,1,0,0,1.0848,0,189,189,100,1,geduld,images/br_geduld.png,images/cb_geduld.png,0,,,,,,,,,,,,,,,,,,,,,,
,,,,,,00026,2023-09-04_08h18.53.173,vbt_B1_day2,2022.2.4,Linux x86_64,60.01680471,,,,,,,,,,,,,,,,,,,,,,,,,,,down,0,1.8422,,0.117894332,-0.186373711,1,0,0,1.0324,0,190,190,154,1,aflopen,images/br_aflopen.png,images/cb_aflopen.png,0,,,,,,,,,,,,,,,,,,,,,,
,,,,,,00026,2023-09-04_08h18.53.173,vbt_B1_day2,2022.2.4,Linux x86_64,60.01680471,,,,,,,,,,,,,,,,,,,,,,,,,,,down,0,0.838,,0.075052738,-0.12632064,1,0,0,14.8677,0,191,191,152,1,afnemen,images/br_afnemen.png,images/cb_afnemen.png,0,,,,,,,,,,,,,,,,,,,,,,
,,,,,,00026,2023-09-04_08h18.53.173,vbt_B1_day2,2022.2.4,Linux x86_64,60.01680471,,,,,,,,,,,,,,,,,,,,,,,,,,,down,0,0.3823,,0.021124681,-0.154057741,1,0,0,0.9858,0,192,192,80,1,kanjer,images/br_kanjer.png,images/cb_kanjer.png,0,,,,,,,,,,,,,,,,,,,,,,
,,,,,,00026,2023-09-04_08h18.53.173,vbt_B1_day2,2022.2.4,Linux x86_64,60.01680471,,,,,,,,,,,,,,,,,,,,,,,,,,,down,0,1.5703,,0.195955912,0.024252137,1,0,0,0.9302,0,193,193,129,1,verhaal,images/br_verhaal.png,images/cb_verhaal.png,0,,,,,,,,,,,,,,,,,,,,,,
,,,,,,00026,2023-09-04_08h18.53.173,vbt_B1_day2,2022.2.4,Linux x86_64,60.01680471,,,,,,,,,,,,,,,,,,,,,,,,,,,down,0,1.616,,0.040379842,-0.175226688,1,0,0,0.7326,0,194,194,24,1,jurk,images/br_jurk.png,images/cb_jurk.png,0,,,,,,,,,,,,,,,,,,,,,,
,,,,,,00026,2023-09-04_08h18.53.173,vbt_B1_day2,2022.2.4,Linux x86_64,60.01680471,,,,,,,,,,,,,,,,,,,,,,,,,,,down,0,0.3476,,0.046965281,-0.188575665,1,0,0,0.9736,0,195,195,93,1,waarop,images/br_waarop.png,images/cb_waarop.png,0,,,,,,,,,,,,,,,,,,,,,,
,,,,,,00026,2023-09-04_08h18.53.173,vbt_B1_day2,2022.2.4,Linux x86_64,60.01680471,,,,,,,,,,,,,,,,,,,,,,,,,,,down,0,2.425,,0.049292326,-0.173158884,1,0,0,0.8291,0,196,196,148,1,smullen,images/br_smullen.png,images/cb_smullen.png,0,,,,,,,,,,,,,,,,,,,,,,
,,,,,,00026,2023-09-04_08h18.53.173,vbt_B1_day2,2022.2.4,Linux x86_64,60.01680471,,,,,,,,,,,,,,,,,,,,,,,,,,,down,0,4.025,,0.063614845,-0.186837196,1,0,0,0.8152,0,197,197,39,1,laag,images/br_laag.png,images/cb_laag.png,0,,,,,,,,,,,,,,,,,,,,,,
,,,,,,00026,2023-09-04_08h18.53.173,vbt_B1_day2,2022.2.4,Linux x86_64,60.01680471,,,,,,,,,,,,,,,,,,,,,,,,,,,down,0,3.1195,,-0.022531271,-0.129926403,1,0,0,0.8827,0,198,198,18,1,blik,images/br_blik.png,images/cb_blik.png,1,blik,,,,,,,,,,,,,,,,,,,,,
,,,,,,00026,2023-09-04_08h18.53.173,vbt_B1_day2,2022.2.4,Linux x86_64,60.01680471,,,,,,,,,,,,,,,,,,,,,,,,,,,down,0,0.6409,,-0.070551078,-0.064014475,1,0,0,0.7001,0,199,199,17,1,taal,images/br_taal.png,images/cb_taal.png,1,taal,,,,,,,,,,,,,,,,,,,,,
,,,,,,00026,2023-09-04_08h18.53.173,vbt_B1_day2,2022.2.4,Linux x86_64,60.01680471,,,,,,,,,,,,,,,,,,,,,,,,,,,,,,,,,,,,,,,,,,,,,,,0.022271554,-0.128747622,1,0,0,,,,,,,,,,,,,,,,
,,,,,,00026,2023-09-04_08h18.53.173,vbt_B1_day2,2022.2.4,Linux x86_64,60.01680471,,,,,,,,,,,,,,,,,,,,,,,,,,,,,,,,,,,,,,,,,,,,,,,,,,,,0.003884872,-0.22936511,1,0,0,,,,,,,,,,,
,,,,,,00026,2023-09-04_08h18.53.173,vbt_B1_day2,2022.2.4,Linux x86_64,60.01680471,,,,,,,,,,,,,,,,,,,,,,,,,,,,,,,,,,,,,,,,,,tand,images/br_tand.png,images/cb_tand.png,,tan.,,,,,,,,,,,0.124591748,0.122461279,1,0,0,tan.,0,0,0,42,1
,,,,,,00026,2023-09-04_08h18.53.173,vbt_B1_day2,2022.2.4,Linux x86_64,60.01680471,,,,,,,,,,,,,,,,,,,,,,,,,,,,,,,,,,,,,,,,,,opdatten,images/br_opdatten.png,images/cb_opdatten.png,,op..ten,,,,,,,,,,,0.203137716,0.011883418,1,0,0,op..ten,0,1,1,37,1
,,,,,,00026,2023-09-04_08h18.53.173,vbt_B1_day2,2022.2.4,Linux x86_64,60.01680471,,,,,,,,,,,,,,,,,,,,,,,,,,,,,,,,,,,,,,,,,,woning,images/br_woning.png,images/cb_woning.png,,woning,,,,,,,,,,,0.161107063,-0.05896155,1,0,0,woning,0,2,2,10,1
,,,,,,00026,2023-09-04_08h18.53.173,vbt_B1_day2,2022.2.4,Linux x86_64,60.01680471,,,,,,,,,,,,,,,,,,,,,,,,,,,,,,,,,,,,,,,,,,aanzien,images/br_aanzien.png,images/cb_aanzien.png,,aanzien,,,,,,,,,,,0.092524767,0.078484337,1,0,0,aanzien,0,3,3,13,1
,,,,,,00026,2023-09-04_08h18.53.173,vbt_B1_day2,2022.2.4,Linux x86_64,60.01680471,,,,,,,,,,,,,,,,,,,,,,,,,,,,,,,,,,,,,,,,,,thema,images/br_thema.png,images/cb_thema.png,,t.e.n,,,,,,,,,,,-0.004988035,0.081702987,1,0,0,t.e.n,0,4,4,47,1
,,,,,,00026,2023-09-04_08h18.53.173,vbt_B1_day2,2022.2.4,Linux x86_64,60.01680471,,,,,,,,,,,,,,,,,,,,,,,,,,,,,,,,,,,,,,,,,,zomers,images/br_zomers.png,images/cb_zomers.png,,zo.er.,,,,,,,,,,,-0.061023712,-0.037149191,1,0,0,zo.er.,0,5,5,48,1
,,,,,,00026,2023-09-04_08h18.53.173,vbt_B1_day2,2022.2.4,Linux x86_64,60.01680471,,,,,,,,,,,,,,,,,,,,,,,,,,,,,,,,,,,,,,,,,,wijve,images/br_wijve.png,images/cb_wijve.png,,wi....,,,,,,,,,,,0.066225847,0.018240452,1,0,0,wi....,0,6,6,27,1
,,,,,,00026,2023-09-04_08h18.53.173,vbt_B1_day2,2022.2.4,Linux x86_64,60.01680471,,,,,,,,,,,,,,,,,,,,,,,,,,,,,,,,,,,,,,,,,,remel,images/br_remel.png,images/cb_remel.png,,re.el,,,,,,,,,,,0.035875797,0.013487538,1,0,0,re.el,0,7,7,25,1
,,,,,,00026,2023-09-04_08h18.53.173,vbt_B1_day2,2022.2.4,Linux x86_64,60.01680471,,,,,,,,,,,,,,,,,,,,,,,,,,,,,,,,,,,,,,,,,,geld,images/br_geld.png,images/cb_geld.png,,geld,,,,,,,,,,,-0.026013692,0.005032937,1,0,0,geld,0,8,8,3,1
,,,,,,00026,2023-09-04_08h18.53.173,vbt_B1_day2,2022.2.4,Linux x86_64,60.01680471,,,,,,,,,,,,,,,,,,,,,,,,,,,,,,,,,,,,,,,,,,systeem,images/br_systeem.png,images/cb_systeem.png,,systeem,,,,,,,,,,,0.066081365,0.146626989,1,0,0,systeem,0,9,9,54,1
,,,,,,00026,2023-09-04_08h18.53.173,vbt_B1_day2,2022.2.4,Linux x86_64,60.01680471,,,,,,,,,,,,,,,,,,,,,,,,,,,,,,,,,,,,,,,,,,negel,images/br_negel.png,images/cb_negel.png,,negel,,,,,,,,,,,0.010910829,0.06169796,1,0,0,negel,0,10,10,24,1
,,,,,,00026,2023-09-04_08h18.53.173,vbt_B1_day2,2022.2.4,Linux x86_64,60.01680471,,,,,,,,,,,,,,,,,,,,,,,,,,,,,,,,,,,,,,,,,,diep,images/br_diep.png,images/cb_diep.png,,.ie.,,,,,,,,,,,-0.023034334,0.052867492,1,0,0,.ie.,0,11,11,2,1
,,,,,,00026,2023-09-04_08h18.53.173,vbt_B1_day2,2022.2.4,Linux x86_64,60.01680471,,,,,,,,,,,,,,,,,,,,,,,,,,,,,,,,,,,,,,,,,,kenzis,images/br_kenzis.png,images/cb_kenzis.png,,kin...,,,,,,,,,,,0.049260855,0.111189167,1,0,0,kin...,0,12,12,30,1
,,,,,,00026,2023-09-04_08h18.53.173,vbt_B1_day2,2022.2.4,Linux x86_64,60.01680471,,,,,,,,,,,,,,,,,,,,,,,,,,,,,,,,,,,,,,,,,,tweeling,images/br_tweeling.png,images/cb_tweeling.png,,tweel..,,,,,,,,,,,-0.078382095,0.088938395,1,0,0,tweel..,0,13,13,58,1
,,,,,,00026,2023-09-04_08h18.53.173,vbt_B1_day2,2022.2.4,Linux x86_64,60.01680471,,,,,,,,,,,,,,,,,,,,,,,,,,,,,,,,,,,,,,,,,,bloeien,images/br_bloeien.png,images/cb_bloeien.png,,bloeie..,,,,,,,,,,,0.038466851,0.100413958,1,0,0,bloeie..,0,14,14,12,1
,,,,,,00026,2023-09-04_08h18.53.173,vbt_B1_day2,2022.2.4,Linux x86_64,60.01680471,,,,,,,,,,,,,,,,,,,,,,,,,,,,,,,,,,,,,,,,,,prekken,images/br_prekken.png,images/cb_prekken.png,,prekke.,,,,,,,,,,,0.05729564,0.126867096,1,0,0,prekke.,0,15,15,34,1
,,,,,,00026,2023-09-04_08h18.53.173,vbt_B1_day2,2022.2.4,Linux x86_64,60.01680471,,,,,,,,,,,,,,,,,,,,,,,,,,,,,,,,,,,,,,,,,,blad,images/br_blad.png,images/cb_blad.png,,blad,,,,,,,,,,,0.021228313,0.018518527,1,0,0,blad,0,16,16,1,1
,,,,,,00026,2023-09-04_08h18.53.173,vbt_B1_day2,2022.2.4,Linux x86_64,60.01680471,,,,,,,,,,,,,,,,,,,,,,,,,,,,,,,,,,,,,,,,,,kijlen,images/br_kijlen.png,images/cb_kijlen.png,,kijlen,,,,,,,,,,,0.093630632,-0.120292465,1,0,0,kijlen,0,17,17,31,1
,,,,,,00026,2023-09-04_08h18.53.173,vbt_B1_day2,2022.2.4,Linux x86_64,60.01680471,,,,,,,,,,,,,,,,,,,,,,,,,,,,,,,,,,,,,,,,,,krimmen,images/br_krimmen.png,images/cb_krimmen.png,,kri.....,,,,,,,,,,,0.187405189,0.020298839,1,0,0,kri.....,0,18,18,35,1
,,,,,,00026,2023-09-04_08h18.53.173,vbt_B1_day2,2022.2.4,Linux x86_64,60.01680471,,,,,,,,,,,,,,,,,,,,,,,,,,,,,,,,,,,,,,,,,,goon,images/br_goon.png,images/cb_goon.png,,goon,,,,,,,,,,,0.134377321,0.039256811,1,0,0,goon,0,19,19,23,1
,,,,,,00026,2023-09-04_08h18.53.173,vbt_B1_day2,2022.2.4,Linux x86_64,60.01680471,,,,,,,,,,,,,,,,,,,,,,,,,,,,,,,,,,,,,,,,,,heengeen,images/br_heengeen.png,images/cb_heengeen.png,,eengeen,,,,,,,,,,,-0.091166258,-0.209689617,1,0,0,eengeen,0,20,20,38,1
,,,,,,00026,2023-09-04_08h18.53.173,vbt_B1_day2,2022.2.4,Linux x86_64,60.01680471,,,,,,,,,,,,,,,,,,,,,,,,,,,,,,,,,,,,,,,,,,badon,images/br_badon.png,images/cb_badon.png,,ba.on,,,,,,,,,,,0.082239707,-0.080119093,1,0,0,ba.on,0,21,21,26,1
,,,,,,00026,2023-09-04_08h18.53.173,vbt_B1_day2,2022.2.4,Linux x86_64,60.01680471,,,,,,,,,,,,,,,,,,,,,,,,,,,,,,,,,,,,,,,,,,flits,images/br_flits.png,images/cb_flits.png,,flits,,,,,,,,,,,0.162194888,-0.039334655,1,0,0,flits,0,22,22,4,1
,,,,,,00026,2023-09-04_08h18.53.173,vbt_B1_day2,2022.2.4,Linux x86_64,60.01680471,,,,,,,,,,,,,,,,,,,,,,,,,,,,,,,,,,,,,,,,,,lokken,images/br_lokken.png,images/cb_lokken.png,,lokken,,,,,,,,,,,0.196053743,0.033984741,1,0,0,lokken,0,23,23,8,1
,,,,,,00026,2023-09-04_08h18.53.173,vbt_B1_day2,2022.2.4,Linux x86_64,60.01680471,,,,,,,,,,,,,,,,,,,,,,,,,,,,,,,,,,,,,,,,,,strikken,images/br_strikken.png,images/cb_strikken.png,,strikken,,,,,,,,,,,0.155408859,0.028155327,1,0,0,strikken,0,24,24,18,1
,,,,,,00026,2023-09-04_08h18.53.173,vbt_B1_day2,2022.2.4,Linux x86_64,60.01680471,,,,,,,,,,,,,,,,,,,,,,,,,,,,,,,,,,,,,,,,,,manieren,images/br_manieren.png,images/cb_manieren.png,,.aneir..,,,,,,,,,,,0.069926341,0.009132067,1,0,0,.aneir..,0,25,25,56,1
,,,,,,00026,2023-09-04_08h18.53.173,vbt_B1_day2,2022.2.4,Linux x86_64,60.01680471,,,,,,,,,,,,,,,,,,,,,,,,,,,,,,,,,,,,,,,,,,jong,images/br_jong.png,images/cb_jong.png,,jong,,,,,,,,,,,0.057460864,-0.086435556,1,0,0,jong,0,26,26,43,1
,,,,,,00026,2023-09-04_08h18.53.173,vbt_B1_day2,2022.2.4,Linux x86_64,60.01680471,,,,,,,,,,,,,,,,,,,,,,,,,,,,,,,,,,,,,,,,,,kasteel,images/br_kasteel.png,images/cb_kasteel.png,,kasteel,,,,,,,,,,,0.124572674,0.005156199,1,0,0,kasteel,0,27,27,14,1
,,,,,,00026,2023-09-04_08h18.53.173,vbt_B1_day2,2022.2.4,Linux x86_64,60.01680471,,,,,,,,,,,,,,,,,,,,,,,,,,,,,,,,,,,,,,,,,,aanvraag,images/br_aanvraag.png,images/cb_aanvraag.png,,aan.arr.,,,,,,,,,,,0.077149947,-0.004619996,1,0,0,aan.arr.,0,28,28,57,1
,,,,,,00026,2023-09-04_08h18.53.173,vbt_B1_day2,2022.2.4,Linux x86_64,60.01680471,,,,,,,,,,,,,,,,,,,,,,,,,,,,,,,,,,,,,,,,,,joes,images/br_joes.png,images/cb_joes.png,,joes,,,,,,,,,,,-0.05261143,0.177772959,1,0,0,joes,0,29,29,20,1
,,,,,,00026,2023-09-04_08h18.53.173,vbt_B1_day2,2022.2.4,Linux x86_64,60.01680471,,,,,,,,,,,,,,,,,,,,,,,,,,,,,,,,,,,,,,,,,,plannen,images/br_plannen.png,images/cb_plannen.png,,plannen,,,,,,,,,,,0.155997992,0.064594547,1,0,0,plannen,0,30,30,55,1
,,,,,,00026,2023-09-04_08h18.53.173,vbt_B1_day2,2022.2.4,Linux x86_64,60.01680471,,,,,,,,,,,,,,,,,,,,,,,,,,,,,,,,,,,,,,,,,,toeval,images/br_toeval.png,images/cb_toeval.png,,toeval,,,,,,,,,,,0.074354092,0.002072533,1,0,0,toeval,0,31,31,11,1
,,,,,,00026,2023-09-04_08h18.53.173,vbt_B1_day2,2022.2.4,Linux x86_64,60.01680471,,,,,,,,,,,,,,,,,,,,,,,,,,,,,,,,,,,,,,,,,,kabel,images/br_kabel.png,images/cb_kabel.png,,kabel,,,,,,,,,,,0.082159599,-0.016477466,1,0,0,kabel,0,32,32,7,1
,,,,,,00026,2023-09-04_08h18.53.173,vbt_B1_day2,2022.2.4,Linux x86_64,60.01680471,,,,,,,,,,,,,,,,,,,,,,,,,,,,,,,,,,,,,,,,,,agressie,images/br_agressie.png,images/cb_agressie.png,,agressie,,,,,,,,,,,0.231045405,0.042991757,1,0,0,agressie,0,33,33,59,1
,,,,,,00026,2023-09-04_08h18.53.173,vbt_B1_day2,2022.2.4,Linux x86_64,60.01680471,,,,,,,,,,,,,,,,,,,,,,,,,,,,,,,,,,,,,,,,,,eenhoorn,images/br_eenhoorn.png,images/cb_eenhoorn.png,,een.oor.,,,,,,,,,,,0.049828609,0.009496371,1,0,0,een.oor.,0,34,34,19,1
,,,,,,00026,2023-09-04_08h18.53.173,vbt_B1_day2,2022.2.4,Linux x86_64,60.01680471,,,,,,,,,,,,,,,,,,,,,,,,,,,,,,,,,,,,,,,,,,heilig,images/br_heilig.png,images/cb_heilig.png,,.eil.en,,,,,,,,,,,0.033747991,-0.059457501,1,0,0,.eil.en,0,35,35,9,1
,,,,,,00026,2023-09-04_08h18.53.173,vbt_B1_day2,2022.2.4,Linux x86_64,60.01680471,,,,,,,,,,,,,,,,,,,,,,,,,,,,,,,,,,,,,,,,,,bereuwen,images/br_bereuwen.png,images/cb_bereuwen.png,,bere....,,,,,,,,,,,-0.016355912,-0.002753576,1,0,0,bere....,0,36,36,39,1
,,,,,,00026,2023-09-04_08h18.53.173,vbt_B1_day2,2022.2.4,Linux x86_64,60.01680471,,,,,,,,,,,,,,,,,,,,,,,,,,,,,,,,,,,,,,,,,,welzijn,images/br_welzijn.png,images/cb_welzijn.png,,welzijn,,,,,,,,,,,-0.053068161,0.00015831,1,0,0,welzijn,0,37,37,52,1
,,,,,,00026,2023-09-04_08h18.53.173,vbt_B1_day2,2022.2.4,Linux x86_64,60.01680471,,,,,,,,,,,,,,,,,,,,,,,,,,,,,,,,,,,,,,,,,,sifferd,images/br_sifferd.png,images/cb_sifferd.png,,si..e..,,,,,,,,,,,0.036229134,-0.006991625,1,0,0,si..e..,0,38,38,32,1
,,,,,,00026,2023-09-04_08h18.53.173,vbt_B1_day2,2022.2.4,Linux x86_64,60.01680471,,,,,,,,,,,,,,,,,,,,,,,,,,,,,,,,,,,,,,,,,,anarchie,images/br_anarchie.png,images/cb_anarchie.png,,anarchie,,,,,,,,,,,0.103475253,0.141441385,1,0,0,anarchie,0,39,39,16,1
,,,,,,00026,2023-09-04_08h18.53.173,vbt_B1_day2,2022.2.4,Linux x86_64,60.01680471,,,,,,,,,,,,,,,,,,,,,,,,,,,,,,,,,,,,,,,,,,trots,images/br_trots.png,images/cb_trots.png,,troks,,,,,,,,,,,0.07700038,-0.035530845,1,0,0,troks,0,40,40,44,1
,,,,,,00026,2023-09-04_08h18.53.173,vbt_B1_day2,2022.2.4,Linux x86_64,60.01680471,,,,,,,,,,,,,,,,,,,,,,,,,,,,,,,,,,,,,,,,,,zwager,images/br_zwager.png,images/cb_zwager.png,,zwager,,,,,,,,,,,0.091154337,-0.008342862,1,0,0,zwager,0,41,41,49,1
,,,,,,00026,2023-09-04_08h18.53.173,vbt_B1_day2,2022.2.4,Linux x86_64,60.01680471,,,,,,,,,,,,,,,,,,,,,,,,,,,,,,,,,,,,,,,,,,clan,images/br_clan.png,images/cb_clan.png,,clan,,,,,,,,,,,0.042358955,0.012445966,1,0,0,clan,0,42,42,40,1
,,,,,,00026,2023-09-04_08h18.53.173,vbt_B1_day2,2022.2.4,Linux x86_64,60.01680471,,,,,,,,,,,,,,,,,,,,,,,,,,,,,,,,,,,,,,,,,,inzicht,images/br_inzicht.png,images/cb_inzicht.png,,......,,,,,,,,,,,0.067634185,-0.015035907,1,0,0,......,0,43,43,53,1
,,,,,,00026,2023-09-04_08h18.53.173,vbt_B1_day2,2022.2.4,Linux x86_64,60.01680471,,,,,,,,,,,,,,,,,,,,,,,,,,,,,,,,,,,,,,,,,,sjijfel,images/br_sjijfel.png,images/cb_sjijfel.png,,s.....l,,,,,,,,,,,-0.076648871,0.024499218,1,0,0,s.....l,0,44,44,33,1
,,,,,,00026,2023-09-04_08h18.53.173,vbt_B1_day2,2022.2.4,Linux x86_64,60.01680471,,,,,,,,,,,,,,,,,,,,,,,,,,,,,,,,,,,,,,,,,,piste,images/br_piste.png,images/cb_piste.png,,piste,,,,,,,,,,,0.071003358,-0.024765412,1,0,0,piste,0,45,45,5,1
,,,,,,00026,2023-09-04_08h18.53.173,vbt_B1_day2,2022.2.4,Linux x86_64,60.01680471,,,,,,,,,,,,,,,,,,,,,,,,,,,,,,,,,,,,,,,,,,ningen,images/br_ningen.png,images/cb_ningen.png,,ninge.,,,,,,,,,,,0.101730982,0.013380885,1,0,0,ninge.,0,46,46,28,1
,,,,,,00026,2023-09-04_08h18.53.173,vbt_B1_day2,2022.2.4,Linux x86_64,60.01680471,,,,,,,,,,,,,,,,,,,,,,,,,,,,,,,,,,,,,,,,,,dode,images/br_dode.png,images/cb_dode.png,,.o.e,,,,,,,,,,,-0.027869225,0.011900385,1,0,0,.o.e,0,47,47,41,1
,,,,,,00026,2023-09-04_08h18.53.173,vbt_B1_day2,2022.2.4,Linux x86_64,60.01680471,,,,,,,,,,,,,,,,,,,,,,,,,,,,,,,,,,,,,,,,,,breuk,images/br_breuk.png,images/cb_breuk.png,,bre.k,,,,,,,,,,,0.008672873,-0.033888419,1,0,0,bre.k,0,48,48,45,1
,,,,,,00026,2023-09-04_08h18.53.173,vbt_B1_day2,2022.2.4,Linux x86_64,60.01680471,,,,,,,,,,,,,,,,,,,,,,,,,,,,,,,,,,,,,,,,,,feestdag,images/br_feestdag.png,images/cb_feestdag.png,,.eest.g,,,,,,,,,,,0.124727488,0.041196426,1,0,0,.eest.g,0,49,49,17,1
,,,,,,00026,2023-09-04_08h18.53.173,vbt_B1_day2,2022.2.4,Linux x86_64,60.01680471,,,,,,,,,,,,,,,,,,,,,,,,,,,,,,,,,,,,,,,,,,sora,images/br_sora.png,images/cb_sora.png,,sora,,,,,,,,,,,-0.051457246,0.002577106,1,0,0,sora,0,50,50,22,1
,,,,,,00026,2023-09-04_08h18.53.173,vbt_B1_day2,2022.2.4,Linux x86_64,60.01680471,,,,,,,,,,,,,,,,,,,,,,,,,,,,,,,,,,,,,,,,,,moes,images/br_moes.png,images/cb_moes.png,,.oes,,,,,,,,,,,0.11830012,-0.048427264,1,0,0,.oes,0,51,51,0,1
,,,,,,00026,2023-09-04_08h18.53.173,vbt_B1_day2,2022.2.4,Linux x86_64,60.01680471,,,,,,,,,,,,,,,,,,,,,,,,,,,,,,,,,,,,,,,,,,doodmoe,images/br_doodmoe.png,images/cb_doodmoe.png,,.oo.oe.,,,,,,,,,,,0.107388655,0.037530382,1,0,0,.oo.oe.,0,52,52,15,1
,,,,,,00026,2023-09-04_08h18.53.173,vbt_B1_day2,2022.2.4,Linux x86_64,60.01680471,,,,,,,,,,,,,,,,,,,,,,,,,,,,,,,,,,,,,,,,,,jagen,images/br_jagen.png,images/cb_jagen.png,,jagen,,,,,,,,,,,0.095223506,-0.011914968,1,0,0,jagen,0,53,53,6,1
,,,,,,00026,2023-09-04_08h18.53.173,vbt_B1_day2,2022.2.4,Linux x86_64,60.01680471,,,,,,,,,,,,,,,,,,,,,,,,,,,,,,,,,,,,,,,,,,lijnen,images/br_lijnen.png,images/cb_lijnen.png,,lijen,,,,,,,,,,,-0.036823352,-0.02083981,1,0,0,lijen,0,54,54,51,1
,,,,,,00026,2023-09-04_08h18.53.173,vbt_B1_day2,2022.2.4,Linux x86_64,60.01680471,,,,,,,,,,,,,,,,,,,,,,,,,,,,,,,,,,,,,,,,,,ophuimen,images/br_ophuimen.png,images/cb_ophuimen.png,,op.....,,,,,,,,,,,0.16133372,-0.010156314,1,0,0,op.....,0,55,55,36,1
,,,,,,00026,2023-09-04_08h18.53.173,vbt_B1_day2,2022.2.4,Linux x86_64,60.01680471,,,,,,,,,,,,,,,,,,,,,,,,,,,,,,,,,,,,,,,,,,koorts,images/br_koorts.png,images/cb_koorts.png,,koorts,,,,,,,,,,,0.075463931,-0.023338278,1,0,0,koorts,0,56,56,50,1
,,,,,,00026,2023-09-04_08h18.53.173,vbt_B1_day2,2022.2.4,Linux x86_64,60.01680471,,,,,,,,,,,,,,,,,,,,,,,,,,,,,,,,,,,,,,,,,,zegel,images/br_zegel.png,images/cb_zegel.png,,zegel,,,,,,,,,,,-0.085381111,0.051849802,1,0,0,zegel,0,57,57,46,1
,,,,,,00026,2023-09-04_08h18.53.173,vbt_B1_day2,2022.2.4,Linux x86_64,60.01680471,,,,,,,,,,,,,,,,,,,,,,,,,,,,,,,,,,,,,,,,,,lurgen,images/br_lurgen.png,images/cb_lurgen.png,,l.....,,,,,,,,,,,-0.052067598,0.009824673,1,0,0,l.....,0,58,58,29,1
,,,,,,00026,2023-09-04_08h18.53.173,vbt_B1_day2,2022.2.4,Linux x86_64,60.01680471,,,,,,,,,,,,,,,,,,,,,,,,,,,,,,,,,,,,,,,,,,stes,images/br_stes.png,images/cb_stes.png,,stes,,,,,,,,,,,0.123172442,-0.00561134,1,0,0,stes,0,59,59,21,1
,,,,,,00026,2023-09-04_08h18.53.173,vbt_B1_day2,2022.2.4,Linux x86_64,60.01680471,,,,,,,,,,,,,,,,,,,,,,,,,,,,,,,,,,,,,,,,,,,,,,,,,,,,,,,,,,,,,,,,,,,
