welcome_mouse.x,welcome_mouse.y,welcome_mouse.leftButton,welcome_mouse.midButton,welcome_mouse.rightButton,welcome_mouse.time,"ID",date,expName,psychopyVersion,OS,frameRate,refresh_mouse.x,refresh_mouse.y,refresh_mouse.leftButton,refresh_mouse.midButton,refresh_mouse.rightButton,refresh_mouse.time,braille_mouse.x,braille_mouse.y,braille_mouse.leftButton,braille_mouse.midButton,braille_mouse.rightButton,braille_mouse.time,trials.thisRepN,trials.thisTrialN,trials.thisN,trials.thisIndex,trials.ran,nlLet,brLet,cbLet,trainInstr_mouse.x,trainInstr_mouse.y,trainInstr_mouse.leftButton,trainInstr_mouse.midButton,trainInstr_mouse.rightButton,trainInstr_mouse.time,translation_key.keys,translation_key.corr,translation_key.rt,testResp,word_rsp.text,word_mouse.x,word_mouse.y,word_mouse.leftButton,word_mouse.midButton,word_mouse.rightButton,word_mouse.time,train_loop.thisRepN,train_loop.thisTrialN,train_loop.thisN,train_loop.thisIndex,train_loop.ran,nlWrd,brWrd,cbWrd,test,mouse.x,mouse.y,mouse.leftButton,mouse.midButton,mouse.rightButton,testInstr_mouse.x,testInstr_mouse.y,testInstr_mouse.leftButton,testInstr_mouse.midButton,testInstr_mouse.rightButton,test_mouse.x,test_mouse.y,test_mouse.leftButton,test_mouse.midButton,test_mouse.rightButton,test_response.text,test_loop.thisRepN,test_loop.thisTrialN,test_loop.thisN,test_loop.thisIndex,test_loop.ran
0.022222222,-0.164444444,1,0,0,17.537,00083,2023-10-24_14h47.32.107,vbt_B1_day2,2022.2.4,MacIntel,25.64102564,,,,,,,,,,,,,,,,,,,,,,,,,,,,,,,,,,,,,,,,,,,,,,,,,,,,,,,,,,,,,,,,,,,
,,,,,,00083,2023-10-24_14h47.32.107,vbt_B1_day2,2022.2.4,MacIntel,25.64102564,0.022222222,-0.164444444,1,0,0,9.906,,,,,,,,,,,,,,,,,,,,,,,,,,,,,,,,,,,,,,,,,,,,,,,,,,,,,,,,,,,,,
,,,,,,00083,2023-10-24_14h47.32.107,vbt_B1_day2,2022.2.4,MacIntel,25.64102564,,,,,,,0.071111111,-0.118888889,1,0,0,3.798,0,0,0,1,1,b,images/br_b.png,images/cb_b.png,,,,,,,,,,,,,,,,,,,,,,,,,,,,,,,,,,,,,,,,,,,,,,,
,,,,,,00083,2023-10-24_14h47.32.107,vbt_B1_day2,2022.2.4,MacIntel,25.64102564,,,,,,,0.138888889,-0.101111111,1,0,0,8.143,0,1,1,19,1,t,images/br_t.png,images/cb_t.png,,,,,,,,,,,,,,,,,,,,,,,,,,,,,,,,,,,,,,,,,,,,,,,
,,,,,,00083,2023-10-24_14h47.32.107,vbt_B1_day2,2022.2.4,MacIntel,25.64102564,,,,,,,0.138888889,-0.101111111,1,0,0,0.8,0,2,2,20,1,u,images/br_u.png,images/cb_u.png,,,,,,,,,,,,,,,,,,,,,,,,,,,,,,,,,,,,,,,,,,,,,,,
,,,,,,00083,2023-10-24_14h47.32.107,vbt_B1_day2,2022.2.4,MacIntel,25.64102564,,,,,,,0.138888889,-0.101111111,1,0,0,0.882,0,3,3,10,1,k,images/br_k.png,images/cb_k.png,,,,,,,,,,,,,,,,,,,,,,,,,,,,,,,,,,,,,,,,,,,,,,,
,,,,,,00083,2023-10-24_14h47.32.107,vbt_B1_day2,2022.2.4,MacIntel,25.64102564,,,,,,,0.138888889,-0.101111111,1,0,0,0.649,0,4,4,7,1,h,images/br_h.png,images/cb_h.png,,,,,,,,,,,,,,,,,,,,,,,,,,,,,,,,,,,,,,,,,,,,,,,
,,,,,,00083,2023-10-24_14h47.32.107,vbt_B1_day2,2022.2.4,MacIntel,25.64102564,,,,,,,0.138888889,-0.101111111,1,0,0,3.881,0,5,5,18,1,s,images/br_s.png,images/cb_s.png,,,,,,,,,,,,,,,,,,,,,,,,,,,,,,,,,,,,,,,,,,,,,,,
,,,,,,00083,2023-10-24_14h47.32.107,vbt_B1_day2,2022.2.4,MacIntel,25.64102564,,,,,,,0.138888889,-0.101111111,1,0,0,0.151,0,6,6,24,1,y,images/br_y.png,images/cb_y.png,,,,,,,,,,,,,,,,,,,,,,,,,,,,,,,,,,,,,,,,,,,,,,,
,,,,,,00083,2023-10-24_14h47.32.107,vbt_B1_day2,2022.2.4,MacIntel,25.64102564,,,,,,,0.138888889,-0.101111111,1,0,0,0.417,0,7,7,25,1,z,images/br_z.png,images/cb_z.png,,,,,,,,,,,,,,,,,,,,,,,,,,,,,,,,,,,,,,,,,,,,,,,
,,,,,,00083,2023-10-24_14h47.32.107,vbt_B1_day2,2022.2.4,MacIntel,25.64102564,,,,,,,0.138888889,-0.101111111,1,0,0,0.08,0,8,8,21,1,v,images/br_v.png,images/cb_v.png,,,,,,,,,,,,,,,,,,,,,,,,,,,,,,,,,,,,,,,,,,,,,,,
,,,,,,00083,2023-10-24_14h47.32.107,vbt_B1_day2,2022.2.4,MacIntel,25.64102564,,,,,,,0.138888889,-0.101111111,1,0,0,0.201,0,9,9,6,1,g,images/br_g.png,images/cb_g.png,,,,,,,,,,,,,,,,,,,,,,,,,,,,,,,,,,,,,,,,,,,,,,,
,,,,,,00083,2023-10-24_14h47.32.107,vbt_B1_day2,2022.2.4,MacIntel,25.64102564,,,,,,,0.138888889,-0.101111111,1,0,0,0.1,0,10,10,5,1,f,images/br_f.png,images/cb_f.png,,,,,,,,,,,,,,,,,,,,,,,,,,,,,,,,,,,,,,,,,,,,,,,
,,,,,,00083,2023-10-24_14h47.32.107,vbt_B1_day2,2022.2.4,MacIntel,25.64102564,,,,,,,0.138888889,-0.101111111,1,0,0,2.432,0,11,11,8,1,i,images/br_i.png,images/cb_i.png,,,,,,,,,,,,,,,,,,,,,,,,,,,,,,,,,,,,,,,,,,,,,,,
,,,,,,00083,2023-10-24_14h47.32.107,vbt_B1_day2,2022.2.4,MacIntel,25.64102564,,,,,,,0.138888889,-0.101111111,1,0,0,0.217,0,12,12,14,1,o,images/br_o.png,images/cb_o.png,,,,,,,,,,,,,,,,,,,,,,,,,,,,,,,,,,,,,,,,,,,,,,,
,,,,,,00083,2023-10-24_14h47.32.107,vbt_B1_day2,2022.2.4,MacIntel,25.64102564,,,,,,,0.138888889,-0.101111111,1,0,0,0.483,0,13,13,17,1,r,images/br_r.png,images/cb_r.png,,,,,,,,,,,,,,,,,,,,,,,,,,,,,,,,,,,,,,,,,,,,,,,
,,,,,,00083,2023-10-24_14h47.32.107,vbt_B1_day2,2022.2.4,MacIntel,25.64102564,,,,,,,0.138888889,-0.103333333,1,0,0,4.513,0,14,14,23,1,x,images/br_x.png,images/cb_x.png,,,,,,,,,,,,,,,,,,,,,,,,,,,,,,,,,,,,,,,,,,,,,,,
,,,,,,00083,2023-10-24_14h47.32.107,vbt_B1_day2,2022.2.4,MacIntel,25.64102564,,,,,,,0.138888889,-0.103333333,1,0,0,5.197,0,15,15,2,1,c,images/br_c.png,images/cb_c.png,,,,,,,,,,,,,,,,,,,,,,,,,,,,,,,,,,,,,,,,,,,,,,,
,,,,,,00083,2023-10-24_14h47.32.107,vbt_B1_day2,2022.2.4,MacIntel,25.64102564,,,,,,,0.138888889,-0.103333333,1,0,0,0.267,0,16,16,22,1,w,images/br_w.png,images/cb_w.png,,,,,,,,,,,,,,,,,,,,,,,,,,,,,,,,,,,,,,,,,,,,,,,
,,,,,,00083,2023-10-24_14h47.32.107,vbt_B1_day2,2022.2.4,MacIntel,25.64102564,,,,,,,0.138888889,-0.103333333,1,0,0,2.158,0,17,17,11,1,l,images/br_l.png,images/cb_l.png,,,,,,,,,,,,,,,,,,,,,,,,,,,,,,,,,,,,,,,,,,,,,,,
,,,,,,00083,2023-10-24_14h47.32.107,vbt_B1_day2,2022.2.4,MacIntel,25.64102564,,,,,,,0.138888889,-0.103333333,1,0,0,0.448,0,18,18,16,1,q,images/br_q.png,images/cb_q.png,,,,,,,,,,,,,,,,,,,,,,,,,,,,,,,,,,,,,,,,,,,,,,,
,,,,,,00083,2023-10-24_14h47.32.107,vbt_B1_day2,2022.2.4,MacIntel,25.64102564,,,,,,,0.138888889,-0.103333333,1,0,0,2.18,0,19,19,4,1,e,images/br_e.png,images/cb_e.png,,,,,,,,,,,,,,,,,,,,,,,,,,,,,,,,,,,,,,,,,,,,,,,
,,,,,,00083,2023-10-24_14h47.32.107,vbt_B1_day2,2022.2.4,MacIntel,25.64102564,,,,,,,0.138888889,-0.103333333,1,0,0,1.282,0,20,20,15,1,p,images/br_p.png,images/cb_p.png,,,,,,,,,,,,,,,,,,,,,,,,,,,,,,,,,,,,,,,,,,,,,,,
,,,,,,00083,2023-10-24_14h47.32.107,vbt_B1_day2,2022.2.4,MacIntel,25.64102564,,,,,,,0.182222222,-0.054444444,1,0,0,1.815,0,21,21,9,1,j,images/br_j.png,images/cb_j.png,,,,,,,,,,,,,,,,,,,,,,,,,,,,,,,,,,,,,,,,,,,,,,,
,,,,,,00083,2023-10-24_14h47.32.107,vbt_B1_day2,2022.2.4,MacIntel,25.64102564,,,,,,,0.182222222,-0.054444444,1,0,0,0.419,0,22,22,3,1,d,images/br_d.png,images/cb_d.png,,,,,,,,,,,,,,,,,,,,,,,,,,,,,,,,,,,,,,,,,,,,,,,
,,,,,,00083,2023-10-24_14h47.32.107,vbt_B1_day2,2022.2.4,MacIntel,25.64102564,,,,,,,0.182222222,-0.054444444,1,0,0,0.099,0,23,23,12,1,m,images/br_m.png,images/cb_m.png,,,,,,,,,,,,,,,,,,,,,,,,,,,,,,,,,,,,,,,,,,,,,,,
,,,,,,00083,2023-10-24_14h47.32.107,vbt_B1_day2,2022.2.4,MacIntel,25.64102564,,,,,,,0.182222222,-0.054444444,1,0,0,0.116,0,24,24,13,1,n,images/br_n.png,images/cb_n.png,,,,,,,,,,,,,,,,,,,,,,,,,,,,,,,,,,,,,,,,,,,,,,,
,,,,,,00083,2023-10-24_14h47.32.107,vbt_B1_day2,2022.2.4,MacIntel,25.64102564,,,,,,,0.182222222,-0.054444444,1,0,0,2.547,0,25,25,0,1,a,images/br_a.png,images/cb_a.png,,,,,,,,,,,,,,,,,,,,,,,,,,,,,,,,,,,,,,,,,,,,,,,
,,,,,,00083,2023-10-24_14h47.32.107,vbt_B1_day2,2022.2.4,MacIntel,25.64102564,,,,,,,,,,,,,,,,,,,,,0.182222222,-0.054444444,1,0,0,30.48,,,,,,,,,,,,,,,,,,,,,,,,,,,,,,,,,,,,,,,,,
,,,,,,00083,2023-10-24_14h47.32.107,vbt_B1_day2,2022.2.4,MacIntel,25.64102564,,,,,,,,,,,,,,,,,,,,,,,,,,,down,0,15.992,trekker,,0.407777778,0.004444444,1,0,0,26.625,0,0,0,137,1,trekker,images/br_trekker.png,images/cb_trekker.png,1,,,,,,,,,,,,,,,,,,,,,
,,,,,,00083,2023-10-24_14h47.32.107,vbt_B1_day2,2022.2.4,MacIntel,25.64102564,,,,,,,,,,,,,,,,,,,,,,,,,,,down,0,8.533,maaltijd,,0.38,-0.046666667,1,0,0,7.353,0,1,1,177,1,maaltijd,images/br_maaltijd.png,images/cb_maaltijd.png,1,,,,,,,,,,,,,,,,,,,,,
,,,,,,00083,2023-10-24_14h47.32.107,vbt_B1_day2,2022.2.4,MacIntel,25.64102564,,,,,,,,,,,,,,,,,,,,,,,,,,,down,0,7.348,,,0.38,-0.046666667,1,0,0,2.949,0,2,2,54,1,gebit,images/br_gebit.png,images/cb_gebit.png,0,,,,,,,,,,,,,,,,,,,,,
,,,,,,00083,2023-10-24_14h47.32.107,vbt_B1_day2,2022.2.4,MacIntel,25.64102564,,,,,,,,,,,,,,,,,,,,,,,,,,,down,0,10.258,,,0.376666667,-0.056666667,1,0,0,7.014,0,3,3,198,1,bedoelen,images/br_bedoelen.png,images/cb_bedoelen.png,0,,,,,,,,,,,,,,,,,,,,,
,,,,,,00083,2023-10-24_14h47.32.107,vbt_B1_day2,2022.2.4,MacIntel,25.64102564,,,,,,,,,,,,,,,,,,,,,,,,,,,down,0,5.583,,,0.376666667,-0.055555556,1,0,0,4.714,0,4,4,100,1,geduld,images/br_geduld.png,images/cb_geduld.png,0,,,,,,,,,,,,,,,,,,,,,
,,,,,,00083,2023-10-24_14h47.32.107,vbt_B1_day2,2022.2.4,MacIntel,25.64102564,,,,,,,,,,,,,,,,,,,,,,,,,,,down,0,0.867,,,0.356666667,-0.031111111,1,0,0,1.383,0,5,5,7,1,geld,images/br_geld.png,images/cb_geld.png,0,,,,,,,,,,,,,,,,,,,,,
,,,,,,00083,2023-10-24_14h47.32.107,vbt_B1_day2,2022.2.4,MacIntel,25.64102564,,,,,,,,,,,,,,,,,,,,,,,,,,,down,0,2.236,taal,,0.38,-0.013333333,1,0,0,1.088,0,6,6,17,1,taal,images/br_taal.png,images/cb_taal.png,1,,,,,,,,,,,,,,,,,,,,,
,,,,,,00083,2023-10-24_14h47.32.107,vbt_B1_day2,2022.2.4,MacIntel,25.64102564,,,,,,,,,,,,,,,,,,,,,,,,,,,down,0,5.573,kreeft,,0.323333333,0.01,1,0,0,1.032,0,7,7,98,1,kreeft,images/br_kreeft.png,images/cb_kreeft.png,1,,,,,,,,,,,,,,,,,,,,,
,,,,,,00083,2023-10-24_14h47.32.107,vbt_B1_day2,2022.2.4,MacIntel,25.64102564,,,,,,,,,,,,,,,,,,,,,,,,,,,down,0,6.016,,,0.362222222,0.01,1,0,0,0.999,0,8,8,157,1,uitlaat,images/br_uitlaat.png,images/cb_uitlaat.png,0,,,,,,,,,,,,,,,,,,,,,
,,,,,,00083,2023-10-24_14h47.32.107,vbt_B1_day2,2022.2.4,MacIntel,25.64102564,,,,,,,,,,,,,,,,,,,,,,,,,,,down,0,2.914,,,0.363333333,0.01,1,0,0,0.467,0,9,9,52,1,wagon,images/br_wagon.png,images/cb_wagon.png,0,,,,,,,,,,,,,,,,,,,,,
,,,,,,00083,2023-10-24_14h47.32.107,vbt_B1_day2,2022.2.4,MacIntel,25.64102564,,,,,,,,,,,,,,,,,,,,,,,,,,,down,0,2.847,,,0.363333333,0.01,1,0,0,0.8,0,10,10,60,1,jasje,images/br_jasje.png,images/cb_jasje.png,0,,,,,,,,,,,,,,,,,,,,,
,,,,,,00083,2023-10-24_14h47.32.107,vbt_B1_day2,2022.2.4,MacIntel,25.64102564,,,,,,,,,,,,,,,,,,,,,,,,,,,down,0,18.426,,,0.363333333,0.01,1,0,0,1.082,0,11,11,146,1,opkomen,images/br_opkomen.png,images/cb_opkomen.png,0,,,,,,,,,,,,,,,,,,,,,
,,,,,,00083,2023-10-24_14h47.32.107,vbt_B1_day2,2022.2.4,MacIntel,25.64102564,,,,,,,,,,,,,,,,,,,,,,,,,,,down,0,2.988,,,0.363333333,0.01,1,0,0,0.583,0,12,12,3,1,mand,images/br_mand.png,images/cb_mand.png,0,,,,,,,,,,,,,,,,,,,,,
,,,,,,00083,2023-10-24_14h47.32.107,vbt_B1_day2,2022.2.4,MacIntel,25.64102564,,,,,,,,,,,,,,,,,,,,,,,,,,,down,0,4.88,,,0.363333333,0.01,1,0,0,0.617,0,13,13,40,1,schep,images/br_schep.png,images/cb_schep.png,0,,,,,,,,,,,,,,,,,,,,,
,,,,,,00083,2023-10-24_14h47.32.107,vbt_B1_day2,2022.2.4,MacIntel,25.64102564,,,,,,,,,,,,,,,,,,,,,,,,,,,down,0,2.184,,,0.363333333,0.01,1,0,0,0.62,0,14,14,89,1,slapen,images/br_slapen.png,images/cb_slapen.png,0,,,,,,,,,,,,,,,,,,,,,
,,,,,,00083,2023-10-24_14h47.32.107,vbt_B1_day2,2022.2.4,MacIntel,25.64102564,,,,,,,,,,,,,,,,,,,,,,,,,,,down,0,10.631,,,0.363333333,0.01,1,0,0,0.75,0,15,15,193,1,weeshuis,images/br_weeshuis.png,images/cb_weeshuis.png,0,,,,,,,,,,,,,,,,,,,,,
,,,,,,00083,2023-10-24_14h47.32.107,vbt_B1_day2,2022.2.4,MacIntel,25.64102564,,,,,,,,,,,,,,,,,,,,,,,,,,,down,0,6.73,techniek,,0.363333333,0.01,1,0,0,0.566,0,16,16,176,1,techniek,images/br_techniek.png,images/cb_techniek.png,1,,,,,,,,,,,,,,,,,,,,,
,,,,,,00083,2023-10-24_14h47.32.107,vbt_B1_day2,2022.2.4,MacIntel,25.64102564,,,,,,,,,,,,,,,,,,,,,,,,,,,down,0,5.614,,,0.363333333,0.01,1,0,0,1.104,0,17,17,161,1,attentie,images/br_attentie.png,images/cb_attentie.png,0,,,,,,,,,,,,,,,,,,,,,
,,,,,,00083,2023-10-24_14h47.32.107,vbt_B1_day2,2022.2.4,MacIntel,25.64102564,,,,,,,,,,,,,,,,,,,,,,,,,,,down,0,7.548,,,0.363333333,0.01,1,0,0,0.566,0,18,18,61,1,groen,images/br_groen.png,images/cb_groen.png,0,,,,,,,,,,,,,,,,,,,,,
,,,,,,00083,2023-10-24_14h47.32.107,vbt_B1_day2,2022.2.4,MacIntel,25.64102564,,,,,,,,,,,,,,,,,,,,,,,,,,,down,0,5.384,,,0.363333333,0.01,1,0,0,0.533,0,19,19,31,1,poes,images/br_poes.png,images/cb_poes.png,0,,,,,,,,,,,,,,,,,,,,,
,,,,,,00083,2023-10-24_14h47.32.107,vbt_B1_day2,2022.2.4,MacIntel,25.64102564,,,,,,,,,,,,,,,,,,,,,,,,,,,down,0,2.949,,,0.363333333,0.01,1,0,0,0.5,0,20,20,71,1,bever,images/br_bever.png,images/cb_bever.png,0,,,,,,,,,,,,,,,,,,,,,
,,,,,,00083,2023-10-24_14h47.32.107,vbt_B1_day2,2022.2.4,MacIntel,25.64102564,,,,,,,,,,,,,,,,,,,,,,,,,,,down,0,9.868,,,0.363333333,0.01,1,0,0,0.783,0,21,21,130,1,keihard,images/br_keihard.png,images/cb_keihard.png,0,,,,,,,,,,,,,,,,,,,,,
,,,,,,00083,2023-10-24_14h47.32.107,vbt_B1_day2,2022.2.4,MacIntel,25.64102564,,,,,,,,,,,,,,,,,,,,,,,,,,,down,0,1.967,,,0.363333333,0.01,1,0,0,0.698,0,22,22,114,1,vullen,images/br_vullen.png,images/cb_vullen.png,0,,,,,,,,,,,,,,,,,,,,,
,,,,,,00083,2023-10-24_14h47.32.107,vbt_B1_day2,2022.2.4,MacIntel,25.64102564,,,,,,,,,,,,,,,,,,,,,,,,,,,down,0,13.294,huisdier,,0.353333333,-0.182222222,1,0,0,9.096,0,23,23,178,1,huisdier,images/br_huisdier.png,images/cb_huisdier.png,1,,,,,,,,,,,,,,,,,,,,,
,,,,,,00083,2023-10-24_14h47.32.107,vbt_B1_day2,2022.2.4,MacIntel,25.64102564,,,,,,,,,,,,,,,,,,,,,,,,,,,down,0,7.814,,,0.353333333,-0.182222222,1,0,0,1.017,0,24,24,165,1,feestdag,images/br_feestdag.png,images/cb_feestdag.png,0,,,,,,,,,,,,,,,,,,,,,
,,,,,,00083,2023-10-24_14h47.32.107,vbt_B1_day2,2022.2.4,MacIntel,25.64102564,,,,,,,,,,,,,,,,,,,,,,,,,,,down,0,5.732,,,0.353333333,-0.182222222,1,0,0,1.249,0,25,25,93,1,waarop,images/br_waarop.png,images/cb_waarop.png,0,,,,,,,,,,,,,,,,,,,,,
,,,,,,00083,2023-10-24_14h47.32.107,vbt_B1_day2,2022.2.4,MacIntel,25.64102564,,,,,,,,,,,,,,,,,,,,,,,,,,,down,0,10.206,,,0.355555556,-0.186666667,1,0,0,8.911,0,26,26,195,1,middelen,images/br_middelen.png,images/cb_middelen.png,0,,,,,,,,,,,,,,,,,,,,,
,,,,,,00083,2023-10-24_14h47.32.107,vbt_B1_day2,2022.2.4,MacIntel,25.64102564,,,,,,,,,,,,,,,,,,,,,,,,,,,down,0,10.708,,,0.355555556,-0.186666667,1,0,0,1.332,0,27,27,116,1,besmet,images/br_besmet.png,images/cb_besmet.png,0,,,,,,,,,,,,,,,,,,,,,
,,,,,,00083,2023-10-24_14h47.32.107,vbt_B1_day2,2022.2.4,MacIntel,25.64102564,,,,,,,,,,,,,,,,,,,,,,,,,,,down,0,8.415,,,0.355555556,-0.186666667,1,0,0,0.884,0,28,28,147,1,komisch,images/br_komisch.png,images/cb_komisch.png,0,,,,,,,,,,,,,,,,,,,,,
,,,,,,00083,2023-10-24_14h47.32.107,vbt_B1_day2,2022.2.4,MacIntel,25.64102564,,,,,,,,,,,,,,,,,,,,,,,,,,,down,0,2.898,,,0.355555556,-0.186666667,1,0,0,0.383,0,29,29,53,1,baron,images/br_baron.png,images/cb_baron.png,0,,,,,,,,,,,,,,,,,,,,,
,,,,,,00083,2023-10-24_14h47.32.107,vbt_B1_day2,2022.2.4,MacIntel,25.64102564,,,,,,,,,,,,,,,,,,,,,,,,,,,down,0,5.012,,,0.355555556,-0.186666667,1,0,0,1.066,0,30,30,174,1,stemming,images/br_stemming.png,images/cb_stemming.png,0,,,,,,,,,,,,,,,,,,,,,
,,,,,,00083,2023-10-24_14h47.32.107,vbt_B1_day2,2022.2.4,MacIntel,25.64102564,,,,,,,,,,,,,,,,,,,,,,,,,,,down,0,4.952,,,0.355555556,-0.186666667,1,0,0,0.633,0,31,31,20,1,site,images/br_site.png,images/cb_site.png,0,,,,,,,,,,,,,,,,,,,,,
,,,,,,00083,2023-10-24_14h47.32.107,vbt_B1_day2,2022.2.4,MacIntel,25.64102564,,,,,,,,,,,,,,,,,,,,,,,,,,,down,0,3.233,,,0.355555556,-0.186666667,1,0,0,0.483,0,32,32,80,1,kanjer,images/br_kanjer.png,images/cb_kanjer.png,0,,,,,,,,,,,,,,,,,,,,,
,,,,,,00083,2023-10-24_14h47.32.107,vbt_B1_day2,2022.2.4,MacIntel,25.64102564,,,,,,,,,,,,,,,,,,,,,,,,,,,down,0,4.401,,,0.357777778,-0.185555556,1,0,0,0.415,0,33,33,62,1,knaap,images/br_knaap.png,images/cb_knaap.png,0,,,,,,,,,,,,,,,,,,,,,
,,,,,,00083,2023-10-24_14h47.32.107,vbt_B1_day2,2022.2.4,MacIntel,25.64102564,,,,,,,,,,,,,,,,,,,,,,,,,,,down,0,6.98,,,0.361111111,-0.172222222,1,0,0,0.316,0,34,34,119,1,liefje,images/br_liefje.png,images/cb_liefje.png,0,,,,,,,,,,,,,,,,,,,,,
,,,,,,00083,2023-10-24_14h47.32.107,vbt_B1_day2,2022.2.4,MacIntel,25.64102564,,,,,,,,,,,,,,,,,,,,,,,,,,,down,0,6.646,traag,,0.442222222,-0.15,1,0,0,0.966,0,35,35,56,1,traag,images/br_traag.png,images/cb_traag.png,1,,,,,,,,,,,,,,,,,,,,,
,,,,,,00083,2023-10-24_14h47.32.107,vbt_B1_day2,2022.2.4,MacIntel,25.64102564,,,,,,,,,,,,,,,,,,,,,,,,,,,down,0,4.015,,,0.193333333,0.072222222,1,0,0,6.978,0,36,36,44,1,flits,images/br_flits.png,images/cb_flits.png,0,,,,,,,,,,,,,,,,,,,,,
,,,,,,00083,2023-10-24_14h47.32.107,vbt_B1_day2,2022.2.4,MacIntel,25.64102564,,,,,,,,,,,,,,,,,,,,,,,,,,,down,0,4.649,,,0.22,0.067777778,1,0,0,5.497,0,37,37,133,1,seizoen,images/br_seizoen.png,images/cb_seizoen.png,0,,,,,,,,,,,,,,,,,,,,,
,,,,,,00083,2023-10-24_14h47.32.107,vbt_B1_day2,2022.2.4,MacIntel,25.64102564,,,,,,,,,,,,,,,,,,,,,,,,,,,down,0,3.869,,,0.22,0.067777778,1,0,0,0.483,0,38,38,26,1,leuk,images/br_leuk.png,images/cb_leuk.png,0,,,,,,,,,,,,,,,,,,,,,
,,,,,,00083,2023-10-24_14h47.32.107,vbt_B1_day2,2022.2.4,MacIntel,25.64102564,,,,,,,,,,,,,,,,,,,,,,,,,,,down,0,6.362,stiekem,,0.335555556,0.074444444,1,0,0,0.965,0,39,39,139,1,stiekem,images/br_stiekem.png,images/cb_stiekem.png,1,,,,,,,,,,,,,,,,,,,,,
,,,,,,00083,2023-10-24_14h47.32.107,vbt_B1_day2,2022.2.4,MacIntel,25.64102564,,,,,,,,,,,,,,,,,,,,,,,,,,,down,0,2.533,,,0.23,-0.01,1,0,0,0.981,0,40,40,8,1,knie,images/br_knie.png,images/cb_knie.png,0,,,,,,,,,,,,,,,,,,,,,
,,,,,,00083,2023-10-24_14h47.32.107,vbt_B1_day2,2022.2.4,MacIntel,25.64102564,,,,,,,,,,,,,,,,,,,,,,,,,,,down,0,4.848,,,0.267777778,-0.021111111,1,0,0,0.842,0,41,41,183,1,getuigen,images/br_getuigen.png,images/cb_getuigen.png,0,,,,,,,,,,,,,,,,,,,,,
,,,,,,00083,2023-10-24_14h47.32.107,vbt_B1_day2,2022.2.4,MacIntel,25.64102564,,,,,,,,,,,,,,,,,,,,,,,,,,,down,0,5.983,,,0.267777778,-0.021111111,1,0,0,6.25,0,42,42,145,1,invloed,images/br_invloed.png,images/cb_invloed.png,0,,,,,,,,,,,,,,,,,,,,,
,,,,,,00083,2023-10-24_14h47.32.107,vbt_B1_day2,2022.2.4,MacIntel,25.64102564,,,,,,,,,,,,,,,,,,,,,,,,,,,down,0,6.263,,,0.267777778,-0.021111111,1,0,0,0.483,0,43,43,38,1,baai,images/br_baai.png,images/cb_baai.png,0,,,,,,,,,,,,,,,,,,,,,
,,,,,,00083,2023-10-24_14h47.32.107,vbt_B1_day2,2022.2.4,MacIntel,25.64102564,,,,,,,,,,,,,,,,,,,,,,,,,,,down,0,3.751,,,0.267777778,-0.021111111,1,0,0,0.467,0,44,44,140,1,blijven,images/br_blijven.png,images/cb_blijven.png,0,,,,,,,,,,,,,,,,,,,,,
,,,,,,00083,2023-10-24_14h47.32.107,vbt_B1_day2,2022.2.4,MacIntel,25.64102564,,,,,,,,,,,,,,,,,,,,,,,,,,,down,0,11.37,,,0.371111111,-0.043333333,1,0,0,0.87,0,45,45,77,1,woede,images/br_woede.png,images/cb_woede.png,0,,,,,,,,,,,,,,,,,,,,,
,,,,,,00083,2023-10-24_14h47.32.107,vbt_B1_day2,2022.2.4,MacIntel,25.64102564,,,,,,,,,,,,,,,,,,,,,,,,,,,down,0,6.784,,,0.371111111,-0.043333333,1,0,0,0.566,0,46,46,182,1,bijkomen,images/br_bijkomen.png,images/cb_bijkomen.png,0,,,,,,,,,,,,,,,,,,,,,
,,,,,,00083,2023-10-24_14h47.32.107,vbt_B1_day2,2022.2.4,MacIntel,25.64102564,,,,,,,,,,,,,,,,,,,,,,,,,,,down,0,7.518,,,0.371111111,-0.043333333,1,0,0,0.449,0,47,47,153,1,vervoer,images/br_vervoer.png,images/cb_vervoer.png,0,,,,,,,,,,,,,,,,,,,,,
,,,,,,00083,2023-10-24_14h47.32.107,vbt_B1_day2,2022.2.4,MacIntel,25.64102564,,,,,,,,,,,,,,,,,,,,,,,,,,,down,0,3.818,,,0.371111111,-0.043333333,1,0,0,0.534,0,48,48,95,1,vreten,images/br_vreten.png,images/cb_vreten.png,0,,,,,,,,,,,,,,,,,,,,,
,,,,,,00083,2023-10-24_14h47.32.107,vbt_B1_day2,2022.2.4,MacIntel,25.64102564,,,,,,,,,,,,,,,,,,,,,,,,,,,down,0,6.031,,,0.371111111,-0.043333333,1,0,0,0.7,0,49,49,129,1,verhaal,images/br_verhaal.png,images/cb_verhaal.png,0,,,,,,,,,,,,,,,,,,,,,
,,,,,,00083,2023-10-24_14h47.32.107,vbt_B1_day2,2022.2.4,MacIntel,25.64102564,,,,,,,,,,,,,,,,,,,,,,,,,,,down,0,4.651,,,0.371111111,-0.043333333,1,0,0,0.584,0,50,50,191,1,opheffen,images/br_opheffen.png,images/cb_opheffen.png,0,,,,,,,,,,,,,,,,,,,,,
,,,,,,00083,2023-10-24_14h47.32.107,vbt_B1_day2,2022.2.4,MacIntel,25.64102564,,,,,,,,,,,,,,,,,,,,,,,,,,,down,0,1.513,,,0.371111111,-0.043333333,1,0,0,0.582,0,51,51,21,1,mist,images/br_mist.png,images/cb_mist.png,0,,,,,,,,,,,,,,,,,,,,,
,,,,,,00083,2023-10-24_14h47.32.107,vbt_B1_day2,2022.2.4,MacIntel,25.64102564,,,,,,,,,,,,,,,,,,,,,,,,,,,down,0,1.439,,,0.341111111,-0.071111111,1,0,0,1.382,0,52,52,2,1,jaar,images/br_jaar.png,images/cb_jaar.png,0,,,,,,,,,,,,,,,,,,,,,
,,,,,,00083,2023-10-24_14h47.32.107,vbt_B1_day2,2022.2.4,MacIntel,25.64102564,,,,,,,,,,,,,,,,,,,,,,,,,,,down,0,6.353,,,0.341111111,-0.071111111,1,0,0,0.566,0,53,53,162,1,uitdelen,images/br_uitdelen.png,images/cb_uitdelen.png,0,,,,,,,,,,,,,,,,,,,,,
,,,,,,00083,2023-10-24_14h47.32.107,vbt_B1_day2,2022.2.4,MacIntel,25.64102564,,,,,,,,,,,,,,,,,,,,,,,,,,,down,0,2.215,,,0.341111111,-0.071111111,1,0,0,0.817,0,54,54,13,1,kaal,images/br_kaal.png,images/cb_kaal.png,0,,,,,,,,,,,,,,,,,,,,,
,,,,,,00083,2023-10-24_14h47.32.107,vbt_B1_day2,2022.2.4,MacIntel,25.64102564,,,,,,,,,,,,,,,,,,,,,,,,,,,down,0,3.514,,,0.341111111,-0.071111111,1,0,0,0.45,0,55,55,27,1,dans,images/br_dans.png,images/cb_dans.png,0,,,,,,,,,,,,,,,,,,,,,
,,,,,,00083,2023-10-24_14h47.32.107,vbt_B1_day2,2022.2.4,MacIntel,25.64102564,,,,,,,,,,,,,,,,,,,,,,,,,,,down,0,10.482,,,0.341111111,-0.071111111,1,0,0,0.616,0,56,56,63,1,flirt,images/br_flirt.png,images/cb_flirt.png,0,,,,,,,,,,,,,,,,,,,,,
,,,,,,00083,2023-10-24_14h47.32.107,vbt_B1_day2,2022.2.4,MacIntel,25.64102564,,,,,,,,,,,,,,,,,,,,,,,,,,,down,0,4.455,,,0.341111111,-0.071111111,1,0,0,0.45,0,57,57,14,1,rijp,images/br_rijp.png,images/cb_rijp.png,0,,,,,,,,,,,,,,,,,,,,,
,,,,,,00083,2023-10-24_14h47.32.107,vbt_B1_day2,2022.2.4,MacIntel,25.64102564,,,,,,,,,,,,,,,,,,,,,,,,,,,down,0,7.081,,,0.341111111,-0.071111111,1,0,0,0.483,0,58,58,185,1,mijnheer,images/br_mijnheer.png,images/cb_mijnheer.png,0,,,,,,,,,,,,,,,,,,,,,
,,,,,,00083,2023-10-24_14h47.32.107,vbt_B1_day2,2022.2.4,MacIntel,25.64102564,,,,,,,,,,,,,,,,,,,,,,,,,,,down,0,3.151,,,0.341111111,-0.071111111,1,0,0,0.45,0,59,59,169,1,oprotten,images/br_oprotten.png,images/cb_oprotten.png,0,,,,,,,,,,,,,,,,,,,,,
,,,,,,00083,2023-10-24_14h47.32.107,vbt_B1_day2,2022.2.4,MacIntel,25.64102564,,,,,,,,,,,,,,,,,,,,,,,,,,,down,0,10.71,,,0.341111111,-0.071111111,1,0,0,0.817,0,60,60,111,1,ticket,images/br_ticket.png,images/cb_ticket.png,0,,,,,,,,,,,,,,,,,,,,,
,,,,,,00083,2023-10-24_14h47.32.107,vbt_B1_day2,2022.2.4,MacIntel,25.64102564,,,,,,,,,,,,,,,,,,,,,,,,,,,down,0,3.615,,,0.341111111,-0.071111111,1,0,0,0.549,0,61,61,144,1,eetlust,images/br_eetlust.png,images/cb_eetlust.png,0,,,,,,,,,,,,,,,,,,,,,
,,,,,,00083,2023-10-24_14h47.32.107,vbt_B1_day2,2022.2.4,MacIntel,25.64102564,,,,,,,,,,,,,,,,,,,,,,,,,,,down,0,2.914,,,0.341111111,-0.071111111,1,0,0,0.983,0,62,62,173,1,apparaat,images/br_apparaat.png,images/cb_apparaat.png,0,,,,,,,,,,,,,,,,,,,,,
,,,,,,00083,2023-10-24_14h47.32.107,vbt_B1_day2,2022.2.4,MacIntel,25.64102564,,,,,,,,,,,,,,,,,,,,,,,,,,,down,0,5.832,,,0.342222222,-0.07,1,0,0,1.515,0,63,63,107,1,maling,images/br_maling.png,images/cb_maling.png,0,,,,,,,,,,,,,,,,,,,,,
,,,,,,00083,2023-10-24_14h47.32.107,vbt_B1_day2,2022.2.4,MacIntel,25.64102564,,,,,,,,,,,,,,,,,,,,,,,,,,,down,0,4.295,,,0.344444444,-0.06,1,0,0,99.717,0,64,64,170,1,schatten,images/br_schatten.png,images/cb_schatten.png,0,,,,,,,,,,,,,,,,,,,,,
,,,,,,00083,2023-10-24_14h47.32.107,vbt_B1_day2,2022.2.4,MacIntel,25.64102564,,,,,,,,,,,,,,,,,,,,,,,,,,,down,0,6.817,,,0.344444444,-0.06,1,0,0,0.767,0,65,65,108,1,excuus,images/br_excuus.png,images/cb_excuus.png,0,,,,,,,,,,,,,,,,,,,,,
,,,,,,00083,2023-10-24_14h47.32.107,vbt_B1_day2,2022.2.4,MacIntel,25.64102564,,,,,,,,,,,,,,,,,,,,,,,,,,,down,0,3.831,,,0.344444444,-0.06,1,0,0,0.333,0,66,66,102,1,legaal,images/br_legaal.png,images/cb_legaal.png,0,,,,,,,,,,,,,,,,,,,,,
,,,,,,00083,2023-10-24_14h47.32.107,vbt_B1_day2,2022.2.4,MacIntel,25.64102564,,,,,,,,,,,,,,,,,,,,,,,,,,,down,0,3.631,steek,,0.402222222,-0.028888889,1,0,0,0.867,0,67,67,57,1,steek,images/br_steek.png,images/cb_steek.png,1,,,,,,,,,,,,,,,,,,,,,
,,,,,,00083,2023-10-24_14h47.32.107,vbt_B1_day2,2022.2.4,MacIntel,25.64102564,,,,,,,,,,,,,,,,,,,,,,,,,,,down,0,5.583,,,0.402222222,-0.028888889,1,0,0,0.733,0,68,68,122,1,waarvan,images/br_waarvan.png,images/cb_waarvan.png,0,,,,,,,,,,,,,,,,,,,,,
,,,,,,00083,2023-10-24_14h47.32.107,vbt_B1_day2,2022.2.4,MacIntel,25.64102564,,,,,,,,,,,,,,,,,,,,,,,,,,,down,0,6.948,,,0.396666667,-0.028888889,1,0,0,0.733,0,69,69,180,1,openbaar,images/br_openbaar.png,images/cb_openbaar.png,0,,,,,,,,,,,,,,,,,,,,,
,,,,,,00083,2023-10-24_14h47.32.107,vbt_B1_day2,2022.2.4,MacIntel,25.64102564,,,,,,,,,,,,,,,,,,,,,,,,,,,down,0,8.38,,,0.396666667,-0.028888889,1,0,0,17.256,0,70,70,124,1,bloeien,images/br_bloeien.png,images/cb_bloeien.png,0,,,,,,,,,,,,,,,,,,,,,
,,,,,,00083,2023-10-24_14h47.32.107,vbt_B1_day2,2022.2.4,MacIntel,25.64102564,,,,,,,,,,,,,,,,,,,,,,,,,,,down,0,2.108,,,0.383333333,-0.02,1,0,0,0.482,0,71,71,66,1,lever,images/br_lever.png,images/cb_lever.png,0,,,,,,,,,,,,,,,,,,,,,
,,,,,,00083,2023-10-24_14h47.32.107,vbt_B1_day2,2022.2.4,MacIntel,25.64102564,,,,,,,,,,,,,,,,,,,,,,,,,,,down,0,2.999,,,0.383333333,-0.02,1,0,0,0.433,0,72,72,181,1,toegeven,images/br_toegeven.png,images/cb_toegeven.png,0,,,,,,,,,,,,,,,,,,,,,
,,,,,,00083,2023-10-24_14h47.32.107,vbt_B1_day2,2022.2.4,MacIntel,25.64102564,,,,,,,,,,,,,,,,,,,,,,,,,,,down,0,7.669,,,0.383333333,-0.02,1,0,0,0.799,0,73,73,184,1,aandelen,images/br_aandelen.png,images/cb_aandelen.png,0,,,,,,,,,,,,,,,,,,,,,
,,,,,,00083,2023-10-24_14h47.32.107,vbt_B1_day2,2022.2.4,MacIntel,25.64102564,,,,,,,,,,,,,,,,,,,,,,,,,,,down,0,8.495,,,0.382222222,0.007777778,1,0,0,1.483,0,74,74,168,1,bisschop,images/br_bisschop.png,images/cb_bisschop.png,0,,,,,,,,,,,,,,,,,,,,,
,,,,,,00083,2023-10-24_14h47.32.107,vbt_B1_day2,2022.2.4,MacIntel,25.64102564,,,,,,,,,,,,,,,,,,,,,,,,,,,down,0,9.116,,,0.382222222,0.007777778,1,0,0,0.551,0,75,75,163,1,schuilen,images/br_schuilen.png,images/cb_schuilen.png,0,,,,,,,,,,,,,,,,,,,,,
,,,,,,00083,2023-10-24_14h47.32.107,vbt_B1_day2,2022.2.4,MacIntel,25.64102564,,,,,,,,,,,,,,,,,,,,,,,,,,,down,0,3.634,,,0.382222222,0.007777778,1,0,0,0.449,0,76,76,48,1,steel,images/br_steel.png,images/cb_steel.png,0,,,,,,,,,,,,,,,,,,,,,
,,,,,,00083,2023-10-24_14h47.32.107,vbt_B1_day2,2022.2.4,MacIntel,25.64102564,,,,,,,,,,,,,,,,,,,,,,,,,,,down,0,5.96,,,0.382222222,0.007777778,1,0,0,0.5,0,77,77,47,1,kabel,images/br_kabel.png,images/cb_kabel.png,0,,,,,,,,,,,,,,,,,,,,,
,,,,,,00083,2023-10-24_14h47.32.107,vbt_B1_day2,2022.2.4,MacIntel,25.64102564,,,,,,,,,,,,,,,,,,,,,,,,,,,down,0,0.833,,,0.382222222,0.007777778,1,0,0,0.449,0,78,78,33,1,vlek,images/br_vlek.png,images/cb_vlek.png,0,,,,,,,,,,,,,,,,,,,,,
,,,,,,00083,2023-10-24_14h47.32.107,vbt_B1_day2,2022.2.4,MacIntel,25.64102564,,,,,,,,,,,,,,,,,,,,,,,,,,,down,0,5.477,,,0.382222222,0.007777778,1,0,0,0.333,0,79,79,142,1,snuiven,images/br_snuiven.png,images/cb_snuiven.png,0,,,,,,,,,,,,,,,,,,,,,
,,,,,,00083,2023-10-24_14h47.32.107,vbt_B1_day2,2022.2.4,MacIntel,25.64102564,,,,,,,,,,,,,,,,,,,,,,,,,,,down,0,2.625,,,0.382222222,0.007777778,1,0,0,0.565,0,80,80,41,1,maken,images/br_maken.png,images/cb_maken.png,0,,,,,,,,,,,,,,,,,,,,,
,,,,,,00083,2023-10-24_14h47.32.107,vbt_B1_day2,2022.2.4,MacIntel,25.64102564,,,,,,,,,,,,,,,,,,,,,,,,,,,down,0,3.854,,,0.382222222,0.007777778,1,0,0,0.515,0,81,81,91,1,gezond,images/br_gezond.png,images/cb_gezond.png,0,,,,,,,,,,,,,,,,,,,,,
,,,,,,00083,2023-10-24_14h47.32.107,vbt_B1_day2,2022.2.4,MacIntel,25.64102564,,,,,,,,,,,,,,,,,,,,,,,,,,,down,0,4.713,,,0.382222222,0.007777778,1,0,0,0.449,0,82,82,15,1,soda,images/br_soda.png,images/cb_soda.png,0,,,,,,,,,,,,,,,,,,,,,
,,,,,,00083,2023-10-24_14h47.32.107,vbt_B1_day2,2022.2.4,MacIntel,25.64102564,,,,,,,,,,,,,,,,,,,,,,,,,,,down,0,1.871,,,0.382222222,0.007777778,1,0,0,0.649,0,83,83,112,1,lukken,images/br_lukken.png,images/cb_lukken.png,0,,,,,,,,,,,,,,,,,,,,,
,,,,,,00083,2023-10-24_14h47.32.107,vbt_B1_day2,2022.2.4,MacIntel,25.64102564,,,,,,,,,,,,,,,,,,,,,,,,,,,down,0,1.702,,,0.382222222,0.007777778,1,0,0,0.534,0,84,84,50,1,stoom,images/br_stoom.png,images/cb_stoom.png,0,,,,,,,,,,,,,,,,,,,,,
,,,,,,00083,2023-10-24_14h47.32.107,vbt_B1_day2,2022.2.4,MacIntel,25.64102564,,,,,,,,,,,,,,,,,,,,,,,,,,,down,0,3.119,,,0.382222222,0.007777778,1,0,0,0.483,0,85,85,82,1,muziek,images/br_muziek.png,images/cb_muziek.png,0,,,,,,,,,,,,,,,,,,,,,
,,,,,,00083,2023-10-24_14h47.32.107,vbt_B1_day2,2022.2.4,MacIntel,25.64102564,,,,,,,,,,,,,,,,,,,,,,,,,,,down,0,2.773,,,0.382222222,0.007777778,1,0,0,0.433,0,86,86,88,1,boeien,images/br_boeien.png,images/cb_boeien.png,0,,,,,,,,,,,,,,,,,,,,,
,,,,,,00083,2023-10-24_14h47.32.107,vbt_B1_day2,2022.2.4,MacIntel,25.64102564,,,,,,,,,,,,,,,,,,,,,,,,,,,down,0,1.635,,,0.382222222,0.007777778,1,0,0,0.434,0,87,87,86,1,woning,images/br_woning.png,images/cb_woning.png,0,,,,,,,,,,,,,,,,,,,,,
,,,,,,00083,2023-10-24_14h47.32.107,vbt_B1_day2,2022.2.4,MacIntel,25.64102564,,,,,,,,,,,,,,,,,,,,,,,,,,,down,0,7.282,,,0.382222222,0.007777778,1,0,0,0.5,0,88,88,199,1,beseffen,images/br_beseffen.png,images/cb_beseffen.png,0,,,,,,,,,,,,,,,,,,,,,
,,,,,,00083,2023-10-24_14h47.32.107,vbt_B1_day2,2022.2.4,MacIntel,25.64102564,,,,,,,,,,,,,,,,,,,,,,,,,,,down,0,2.832,,,0.382222222,0.007777778,1,0,0,0.434,0,89,89,24,1,jurk,images/br_jurk.png,images/cb_jurk.png,0,,,,,,,,,,,,,,,,,,,,,
,,,,,,00083,2023-10-24_14h47.32.107,vbt_B1_day2,2022.2.4,MacIntel,25.64102564,,,,,,,,,,,,,,,,,,,,,,,,,,,down,0,2.905,,,0.382222222,0.007777778,1,0,0,0.417,0,90,90,105,1,wijlen,images/br_wijlen.png,images/cb_wijlen.png,0,,,,,,,,,,,,,,,,,,,,,
,,,,,,00083,2023-10-24_14h47.32.107,vbt_B1_day2,2022.2.4,MacIntel,25.64102564,,,,,,,,,,,,,,,,,,,,,,,,,,,down,0,5.713,,,0.382222222,0.007777778,1,0,0,0.583,0,91,91,143,1,hechten,images/br_hechten.png,images/cb_hechten.png,0,,,,,,,,,,,,,,,,,,,,,
,,,,,,00083,2023-10-24_14h47.32.107,vbt_B1_day2,2022.2.4,MacIntel,25.64102564,,,,,,,,,,,,,,,,,,,,,,,,,,,down,0,6.862,,,0.382222222,0.007777778,1,0,0,0.566,0,92,92,23,1,zout,images/br_zout.png,images/cb_zout.png,0,,,,,,,,,,,,,,,,,,,,,
,,,,,,00083,2023-10-24_14h47.32.107,vbt_B1_day2,2022.2.4,MacIntel,25.64102564,,,,,,,,,,,,,,,,,,,,,,,,,,,down,0,3.878,,,0.382222222,0.007777778,1,0,0,0.484,0,93,93,188,1,strekken,images/br_strekken.png,images/cb_strekken.png,0,,,,,,,,,,,,,,,,,,,,,
,,,,,,00083,2023-10-24_14h47.32.107,vbt_B1_day2,2022.2.4,MacIntel,25.64102564,,,,,,,,,,,,,,,,,,,,,,,,,,,down,0,1.919,akkoord,,0.387777778,0.013333333,1,0,0,5.33,0,94,94,138,1,akkoord,images/br_akkoord.png,images/cb_akkoord.png,1,,,,,,,,,,,,,,,,,,,,,
,,,,,,00083,2023-10-24_14h47.32.107,vbt_B1_day2,2022.2.4,MacIntel,25.64102564,,,,,,,,,,,,,,,,,,,,,,,,,,,down,0,4.349,,,0.365555556,0.008888889,1,0,0,1.266,0,95,95,87,1,toeval,images/br_toeval.png,images/cb_toeval.png,0,,,,,,,,,,,,,,,,,,,,,
,,,,,,00083,2023-10-24_14h47.32.107,vbt_B1_day2,2022.2.4,MacIntel,25.64102564,,,,,,,,,,,,,,,,,,,,,,,,,,,down,0,3.135,,,0.325555556,0.018888889,1,0,0,35.056,0,96,96,34,1,vorm,images/br_vorm.png,images/cb_vorm.png,0,,,,,,,,,,,,,,,,,,,,,
,,,,,,00083,2023-10-24_14h47.32.107,vbt_B1_day2,2022.2.4,MacIntel,25.64102564,,,,,,,,,,,,,,,,,,,,,,,,,,,down,0,8.014,,,0.325555556,0.018888889,1,0,0,1.817,0,97,97,171,1,aarzelen,images/br_aarzelen.png,images/cb_aarzelen.png,0,,,,,,,,,,,,,,,,,,,,,
,,,,,,00083,2023-10-24_14h47.32.107,vbt_B1_day2,2022.2.4,MacIntel,25.64102564,,,,,,,,,,,,,,,,,,,,,,,,,,,down,0,1.487,,,0.327777778,0.018888889,1,0,0,0.683,0,98,98,49,1,laken,images/br_laken.png,images/cb_laken.png,0,,,,,,,,,,,,,,,,,,,,,
,,,,,,00083,2023-10-24_14h47.32.107,vbt_B1_day2,2022.2.4,MacIntel,25.64102564,,,,,,,,,,,,,,,,,,,,,,,,,,,down,0,4.082,,,0.327777778,0.018888889,1,0,0,0.832,0,99,99,155,1,gerucht,images/br_gerucht.png,images/cb_gerucht.png,0,,,,,,,,,,,,,,,,,,,,,
,,,,,,00083,2023-10-24_14h47.32.107,vbt_B1_day2,2022.2.4,MacIntel,25.64102564,,,,,,,,,,,,,,,,,,,,,,,,,,,down,0,5.827,woestijn,,0.391111111,0.045555556,1,0,0,2.864,0,100,100,179,1,woestijn,images/br_woestijn.png,images/cb_woestijn.png,1,,,,,,,,,,,,,,,,,,,,,
,,,,,,00083,2023-10-24_14h47.32.107,vbt_B1_day2,2022.2.4,MacIntel,25.64102564,,,,,,,,,,,,,,,,,,,,,,,,,,,down,0,6.513,,,0.391111111,0.045555556,1,0,0,0.6,0,101,101,125,1,aanzien,images/br_aanzien.png,images/cb_aanzien.png,0,,,,,,,,,,,,,,,,,,,,,
,,,,,,00083,2023-10-24_14h47.32.107,vbt_B1_day2,2022.2.4,MacIntel,25.64102564,,,,,,,,,,,,,,,,,,,,,,,,,,,down,0,0.85,,,0.391111111,0.045555556,1,0,0,0.416,0,102,102,28,1,stal,images/br_stal.png,images/cb_stal.png,0,,,,,,,,,,,,,,,,,,,,,
,,,,,,00083,2023-10-24_14h47.32.107,vbt_B1_day2,2022.2.4,MacIntel,25.64102564,,,,,,,,,,,,,,,,,,,,,,,,,,,down,0,4.049,,,0.391111111,0.045555556,1,0,0,0.5,0,103,103,117,1,kennis,images/br_kennis.png,images/cb_kennis.png,0,,,,,,,,,,,,,,,,,,,,,
,,,,,,00083,2023-10-24_14h47.32.107,vbt_B1_day2,2022.2.4,MacIntel,25.64102564,,,,,,,,,,,,,,,,,,,,,,,,,,,down,0,5.75,,,0.391111111,0.045555556,1,0,0,0.65,0,104,104,123,1,hiervan,images/br_hiervan.png,images/cb_hiervan.png,0,,,,,,,,,,,,,,,,,,,,,
,,,,,,00083,2023-10-24_14h47.32.107,vbt_B1_day2,2022.2.4,MacIntel,25.64102564,,,,,,,,,,,,,,,,,,,,,,,,,,,down,0,3.236,,,0.391111111,0.045555556,1,0,0,0.516,0,105,105,43,1,klauw,images/br_klauw.png,images/cb_klauw.png,0,,,,,,,,,,,,,,,,,,,,,
,,,,,,00083,2023-10-24_14h47.32.107,vbt_B1_day2,2022.2.4,MacIntel,25.64102564,,,,,,,,,,,,,,,,,,,,,,,,,,,down,0,2.653,,,0.391111111,0.045555556,1,0,0,0.535,0,106,106,192,1,schaamte,images/br_schaamte.png,images/cb_schaamte.png,0,,,,,,,,,,,,,,,,,,,,,
,,,,,,00083,2023-10-24_14h47.32.107,vbt_B1_day2,2022.2.4,MacIntel,25.64102564,,,,,,,,,,,,,,,,,,,,,,,,,,,down,0,2.721,,,0.391111111,0.045555556,1,0,0,20.071,0,107,107,25,1,plek,images/br_plek.png,images/cb_plek.png,0,,,,,,,,,,,,,,,,,,,,,
,,,,,,00083,2023-10-24_14h47.32.107,vbt_B1_day2,2022.2.4,MacIntel,25.64102564,,,,,,,,,,,,,,,,,,,,,,,,,,,down,0,4.512,,,0.391111111,0.045555556,1,0,0,0.418,0,108,108,106,1,zingen,images/br_zingen.png,images/cb_zingen.png,0,,,,,,,,,,,,,,,,,,,,,
,,,,,,00083,2023-10-24_14h47.32.107,vbt_B1_day2,2022.2.4,MacIntel,25.64102564,,,,,,,,,,,,,,,,,,,,,,,,,,,down,0,0.972,,,0.391111111,0.045555556,1,0,0,0.433,0,109,109,9,1,hier,images/br_hier.png,images/cb_hier.png,0,,,,,,,,,,,,,,,,,,,,,
,,,,,,00083,2023-10-24_14h47.32.107,vbt_B1_day2,2022.2.4,MacIntel,25.64102564,,,,,,,,,,,,,,,,,,,,,,,,,,,down,0,2.863,,,0.391111111,0.045555556,1,0,0,0.712,0,110,110,83,1,mening,images/br_mening.png,images/cb_mening.png,0,,,,,,,,,,,,,,,,,,,,,
,,,,,,00083,2023-10-24_14h47.32.107,vbt_B1_day2,2022.2.4,MacIntel,25.64102564,,,,,,,,,,,,,,,,,,,,,,,,,,,down,0,2.067,,,0.393333333,0.042222222,1,0,0,0.673,0,111,111,103,1,joggen,images/br_joggen.png,images/cb_joggen.png,0,,,,,,,,,,,,,,,,,,,,,
,,,,,,00083,2023-10-24_14h47.32.107,vbt_B1_day2,2022.2.4,MacIntel,25.64102564,,,,,,,,,,,,,,,,,,,,,,,,,,,down,0,5.057,,,0.393333333,0.042222222,1,0,0,0.5,0,112,112,172,1,weigeren,images/br_weigeren.png,images/cb_weigeren.png,0,,,,,,,,,,,,,,,,,,,,,
,,,,,,00083,2023-10-24_14h47.32.107,vbt_B1_day2,2022.2.4,MacIntel,25.64102564,,,,,,,,,,,,,,,,,,,,,,,,,,,down,0,1.532,,,0.393333333,0.042222222,1,0,0,0.448,0,113,113,11,1,mode,images/br_mode.png,images/cb_mode.png,0,,,,,,,,,,,,,,,,,,,,,
,,,,,,00083,2023-10-24_14h47.32.107,vbt_B1_day2,2022.2.4,MacIntel,25.64102564,,,,,,,,,,,,,,,,,,,,,,,,,,,down,0,5.768,,,0.393333333,0.042222222,1,0,0,0.449,0,114,114,158,1,innemen,images/br_innemen.png,images/cb_innemen.png,0,,,,,,,,,,,,,,,,,,,,,
,,,,,,00083,2023-10-24_14h47.32.107,vbt_B1_day2,2022.2.4,MacIntel,25.64102564,,,,,,,,,,,,,,,,,,,,,,,,,,,down,0,1.752,,,0.393333333,0.042222222,1,0,0,0.467,0,115,115,151,1,aanzoek,images/br_aanzoek.png,images/cb_aanzoek.png,0,,,,,,,,,,,,,,,,,,,,,
,,,,,,00083,2023-10-24_14h47.32.107,vbt_B1_day2,2022.2.4,MacIntel,25.64102564,,,,,,,,,,,,,,,,,,,,,,,,,,,down,0,1.736,,,0.393333333,0.042222222,1,0,0,0.478,0,116,116,1,1,zaal,images/br_zaal.png,images/cb_zaal.png,0,,,,,,,,,,,,,,,,,,,,,
,,,,,,00083,2023-10-24_14h47.32.107,vbt_B1_day2,2022.2.4,MacIntel,25.64102564,,,,,,,,,,,,,,,,,,,,,,,,,,,down,0,10.47,,,0.393333333,0.042222222,1,0,0,1.048,0,117,117,94,1,oceaan,images/br_oceaan.png,images/cb_oceaan.png,0,,,,,,,,,,,,,,,,,,,,,
,,,,,,00083,2023-10-24_14h47.32.107,vbt_B1_day2,2022.2.4,MacIntel,25.64102564,,,,,,,,,,,,,,,,,,,,,,,,,,,down,0,3.766,loyaalloyaal,,0.418888889,0.015555556,1,0,0,2.552,0,118,118,97,1,loyaal,images/br_loyaal.png,images/cb_loyaal.png,1,,,,,,,,,,,,,,,,,,,,,
,,,,,,00083,2023-10-24_14h47.32.107,vbt_B1_day2,2022.2.4,MacIntel,25.64102564,,,,,,,,,,,,,,,,,,,,,,,,,,,down,0,2.868,,,0.42,0.015555556,1,0,0,0.532,0,119,119,120,1,klimmen,images/br_klimmen.png,images/cb_klimmen.png,0,,,,,,,,,,,,,,,,,,,,,
,,,,,,00083,2023-10-24_14h47.32.107,vbt_B1_day2,2022.2.4,MacIntel,25.64102564,,,,,,,,,,,,,,,,,,,,,,,,,,,down,0,1.773,,,0.42,0.015555556,1,0,0,0.565,0,120,120,46,1,jagen,images/br_jagen.png,images/cb_jagen.png,0,,,,,,,,,,,,,,,,,,,,,
,,,,,,00083,2023-10-24_14h47.32.107,vbt_B1_day2,2022.2.4,MacIntel,25.64102564,,,,,,,,,,,,,,,,,,,,,,,,,,,down,0,4.263,,,0.42,0.015555556,1,0,0,0.383,0,121,121,5,1,blad,images/br_blad.png,images/cb_blad.png,0,,,,,,,,,,,,,,,,,,,,,
,,,,,,00083,2023-10-24_14h47.32.107,vbt_B1_day2,2022.2.4,MacIntel,25.64102564,,,,,,,,,,,,,,,,,,,,,,,,,,,down,0,8.155,,,0.42,0.015555556,1,0,0,1.213,0,122,122,167,1,eenhoorn,images/br_eenhoorn.png,images/cb_eenhoorn.png,0,,,,,,,,,,,,,,,,,,,,,
,,,,,,00083,2023-10-24_14h47.32.107,vbt_B1_day2,2022.2.4,MacIntel,25.64102564,,,,,,,,,,,,,,,,,,,,,,,,,,,down,0,2.604,,,0.42,0.015555556,1,0,0,0.45,0,123,123,150,1,gegeven,images/br_gegeven.png,images/cb_gegeven.png,0,,,,,,,,,,,,,,,,,,,,,
,,,,,,00083,2023-10-24_14h47.32.107,vbt_B1_day2,2022.2.4,MacIntel,25.64102564,,,,,,,,,,,,,,,,,,,,,,,,,,,down,0,15.619,waarbij,,0.386666667,-0.024444444,1,0,0,1.034,0,124,124,136,1,waarbij,images/br_waarbij.png,images/cb_waarbij.png,1,,,,,,,,,,,,,,,,,,,,,
,,,,,,00083,2023-10-24_14h47.32.107,vbt_B1_day2,2022.2.4,MacIntel,25.64102564,,,,,,,,,,,,,,,,,,,,,,,,,,,down,0,7.531,,,0.386666667,-0.024444444,1,0,0,0.618,0,125,125,160,1,daarheen,images/br_daarheen.png,images/cb_daarheen.png,0,,,,,,,,,,,,,,,,,,,,,
,,,,,,00083,2023-10-24_14h47.32.107,vbt_B1_day2,2022.2.4,MacIntel,25.64102564,,,,,,,,,,,,,,,,,,,,,,,,,,,down,0,3.351,,,0.386666667,-0.024444444,1,0,0,0.416,0,126,126,156,1,rechten,images/br_rechten.png,images/cb_rechten.png,0,,,,,,,,,,,,,,,,,,,,,
,,,,,,00083,2023-10-24_14h47.32.107,vbt_B1_day2,2022.2.4,MacIntel,25.64102564,,,,,,,,,,,,,,,,,,,,,,,,,,,down,0,0.229,,,0.386666667,-0.024444444,1,0,0,0.45,0,127,127,29,1,baas,images/br_baas.png,images/cb_baas.png,0,,,,,,,,,,,,,,,,,,,,,
,,,,,,00083,2023-10-24_14h47.32.107,vbt_B1_day2,2022.2.4,MacIntel,25.64102564,,,,,,,,,,,,,,,,,,,,,,,,,,,down,0,4.185,tekst,,0.347777778,-0.034444444,1,0,0,1.799,0,128,128,58,1,tekst,images/br_tekst.png,images/cb_tekst.png,1,,,,,,,,,,,,,,,,,,,,,
,,,,,,00083,2023-10-24_14h47.32.107,vbt_B1_day2,2022.2.4,MacIntel,25.64102564,,,,,,,,,,,,,,,,,,,,,,,,,,,down,0,2.017,,,0.332222222,-0.051111111,1,0,0,1.099,0,129,129,55,1,praat,images/br_praat.png,images/cb_praat.png,0,,,,,,,,,,,,,,,,,,,,,
,,,,,,00083,2023-10-24_14h47.32.107,vbt_B1_day2,2022.2.4,MacIntel,25.64102564,,,,,,,,,,,,,,,,,,,,,,,,,,,down,0,6.077,,,0.331111111,-0.051111111,1,0,0,0.451,0,130,130,104,1,zweven,images/br_zweven.png,images/cb_zweven.png,0,,,,,,,,,,,,,,,,,,,,,
,,,,,,00083,2023-10-24_14h47.32.107,vbt_B1_day2,2022.2.4,MacIntel,25.64102564,,,,,,,,,,,,,,,,,,,,,,,,,,,down,0,4.031,,,0.331111111,-0.047777778,1,0,0,1.4,0,131,131,187,1,opkijken,images/br_opkijken.png,images/cb_opkijken.png,0,,,,,,,,,,,,,,,,,,,,,
,,,,,,00083,2023-10-24_14h47.32.107,vbt_B1_day2,2022.2.4,MacIntel,25.64102564,,,,,,,,,,,,,,,,,,,,,,,,,,,down,0,29.666,,,0.286666667,-0.057777778,1,0,0,24.117,0,132,132,152,1,afnemen,images/br_afnemen.png,images/cb_afnemen.png,0,,,,,,,,,,,,,,,,,,,,,
,,,,,,00083,2023-10-24_14h47.32.107,vbt_B1_day2,2022.2.4,MacIntel,25.64102564,,,,,,,,,,,,,,,,,,,,,,,,,,,down,0,2.297,,,0.286666667,-0.057777778,1,0,0,0.433,0,133,133,148,1,smullen,images/br_smullen.png,images/cb_smullen.png,0,,,,,,,,,,,,,,,,,,,,,
,,,,,,00083,2023-10-24_14h47.32.107,vbt_B1_day2,2022.2.4,MacIntel,25.64102564,,,,,,,,,,,,,,,,,,,,,,,,,,,down,0,2.367,,,0.286666667,-0.057777778,1,0,0,0.483,0,134,134,65,1,parel,images/br_parel.png,images/cb_parel.png,0,,,,,,,,,,,,,,,,,,,,,
,,,,,,00083,2023-10-24_14h47.32.107,vbt_B1_day2,2022.2.4,MacIntel,25.64102564,,,,,,,,,,,,,,,,,,,,,,,,,,,down,0,3.501,blik,,0.3,0.051111111,1,0,0,0.924,0,135,135,18,1,blik,images/br_blik.png,images/cb_blik.png,1,,,,,,,,,,,,,,,,,,,,,
,,,,,,00083,2023-10-24_14h47.32.107,vbt_B1_day2,2022.2.4,MacIntel,25.64102564,,,,,,,,,,,,,,,,,,,,,,,,,,,down,0,6.898,,,0.3,0.05,1,0,0,0.382,0,136,136,141,1,knielen,images/br_knielen.png,images/cb_knielen.png,0,,,,,,,,,,,,,,,,,,,,,
,,,,,,00083,2023-10-24_14h47.32.107,vbt_B1_day2,2022.2.4,MacIntel,25.64102564,,,,,,,,,,,,,,,,,,,,,,,,,,,down,0,0.742,,,0.3,0.05,1,0,0,0.349,0,137,137,0,1,slak,images/br_slak.png,images/cb_slak.png,0,,,,,,,,,,,,,,,,,,,,,
,,,,,,00083,2023-10-24_14h47.32.107,vbt_B1_day2,2022.2.4,MacIntel,25.64102564,,,,,,,,,,,,,,,,,,,,,,,,,,,down,0,1.3,,,0.3,0.05,1,0,0,0.632,0,138,138,84,1,lokken,images/br_lokken.png,images/cb_lokken.png,0,,,,,,,,,,,,,,,,,,,,,
,,,,,,00083,2023-10-24_14h47.32.107,vbt_B1_day2,2022.2.4,MacIntel,25.64102564,,,,,,,,,,,,,,,,,,,,,,,,,,,down,0,2.968,,,0.3,0.05,1,0,0,0.499,0,139,139,128,1,prikken,images/br_prikken.png,images/cb_prikken.png,0,,,,,,,,,,,,,,,,,,,,,
,,,,,,00083,2023-10-24_14h47.32.107,vbt_B1_day2,2022.2.4,MacIntel,25.64102564,,,,,,,,,,,,,,,,,,,,,,,,,,,down,0,7.004,,,0.3,0.05,1,0,0,0.464,0,140,140,190,1,goedkoop,images/br_goedkoop.png,images/cb_goedkoop.png,0,,,,,,,,,,,,,,,,,,,,,
,,,,,,00083,2023-10-24_14h47.32.107,vbt_B1_day2,2022.2.4,MacIntel,25.64102564,,,,,,,,,,,,,,,,,,,,,,,,,,,down,0,1.573,,,0.3,0.05,1,0,0,0.554,0,141,141,75,1,snoep,images/br_snoep.png,images/cb_snoep.png,0,,,,,,,,,,,,,,,,,,,,,
,,,,,,00083,2023-10-24_14h47.32.107,vbt_B1_day2,2022.2.4,MacIntel,25.64102564,,,,,,,,,,,,,,,,,,,,,,,,,,,down,0,0.405,,,0.3,0.05,1,0,0,0.4,0,142,142,10,1,leek,images/br_leek.png,images/cb_leek.png,0,,,,,,,,,,,,,,,,,,,,,
,,,,,,00083,2023-10-24_14h47.32.107,vbt_B1_day2,2022.2.4,MacIntel,25.64102564,,,,,,,,,,,,,,,,,,,,,,,,,,,down,0,3.083,,,0.285555556,0.038888889,1,0,0,0.466,0,143,143,118,1,vinger,images/br_vinger.png,images/cb_vinger.png,0,,,,,,,,,,,,,,,,,,,,,
,,,,,,00083,2023-10-24_14h47.32.107,vbt_B1_day2,2022.2.4,MacIntel,25.64102564,,,,,,,,,,,,,,,,,,,,,,,,,,,down,0,3.479,,,0.285555556,0.038888889,1,0,0,0.416,0,144,144,67,1,zwart,images/br_zwart.png,images/cb_zwart.png,0,,,,,,,,,,,,,,,,,,,,,
,,,,,,00083,2023-10-24_14h47.32.107,vbt_B1_day2,2022.2.4,MacIntel,25.64102564,,,,,,,,,,,,,,,,,,,,,,,,,,,down,0,2.259,geit,,0.335555556,0.065555556,1,0,0,0.783,0,145,145,19,1,geit,images/br_geit.png,images/cb_geit.png,1,,,,,,,,,,,,,,,,,,,,,
,,,,,,00083,2023-10-24_14h47.32.107,vbt_B1_day2,2022.2.4,MacIntel,25.64102564,,,,,,,,,,,,,,,,,,,,,,,,,,,down,0,1.573,,,0.333333333,0.086666667,1,0,0,0.451,0,146,146,42,1,bleek,images/br_bleek.png,images/cb_bleek.png,0,,,,,,,,,,,,,,,,,,,,,
,,,,,,00083,2023-10-24_14h47.32.107,vbt_B1_day2,2022.2.4,MacIntel,25.64102564,,,,,,,,,,,,,,,,,,,,,,,,,,,down,0,5.18,koffie,,0.382222222,0.086666667,1,0,0,0.615,0,147,147,99,1,koffie,images/br_koffie.png,images/cb_koffie.png,1,,,,,,,,,,,,,,,,,,,,,
,,,,,,00083,2023-10-24_14h47.32.107,vbt_B1_day2,2022.2.4,MacIntel,25.64102564,,,,,,,,,,,,,,,,,,,,,,,,,,,down,0,5.617,,,0.153333333,-0.075555556,1,0,0,0.803,0,148,148,159,1,sufferd,images/br_sufferd.png,images/cb_sufferd.png,0,,,,,,,,,,,,,,,,,,,,,
,,,,,,00083,2023-10-24_14h47.32.107,vbt_B1_day2,2022.2.4,MacIntel,25.64102564,,,,,,,,,,,,,,,,,,,,,,,,,,,down,0,6.835,,,0.155555556,-0.078888889,1,0,0,0.517,0,149,149,131,1,opzicht,images/br_opzicht.png,images/cb_opzicht.png,0,,,,,,,,,,,,,,,,,,,,,
,,,,,,00083,2023-10-24_14h47.32.107,vbt_B1_day2,2022.2.4,MacIntel,25.64102564,,,,,,,,,,,,,,,,,,,,,,,,,,,down,0,3.582,,,0.161111111,-0.087777778,1,0,0,0.532,0,150,150,76,1,afval,images/br_afval.png,images/cb_afval.png,0,,,,,,,,,,,,,,,,,,,,,
,,,,,,00083,2023-10-24_14h47.32.107,vbt_B1_day2,2022.2.4,MacIntel,25.64102564,,,,,,,,,,,,,,,,,,,,,,,,,,,down,0,2.934,slagen,,0.324444444,-0.042222222,1,0,0,1.366,0,151,151,96,1,slagen,images/br_slagen.png,images/cb_slagen.png,1,,,,,,,,,,,,,,,,,,,,,
,,,,,,00083,2023-10-24_14h47.32.107,vbt_B1_day2,2022.2.4,MacIntel,25.64102564,,,,,,,,,,,,,,,,,,,,,,,,,,,down,0,0.905,,,0.274444444,-0.047777778,1,0,0,0.616,0,152,152,22,1,stof,images/br_stof.png,images/cb_stof.png,0,,,,,,,,,,,,,,,,,,,,,
,,,,,,00083,2023-10-24_14h47.32.107,vbt_B1_day2,2022.2.4,MacIntel,25.64102564,,,,,,,,,,,,,,,,,,,,,,,,,,,down,0,1.536,,,0.274444444,-0.047777778,1,0,0,0.435,0,153,153,64,1,wegen,images/br_wegen.png,images/cb_wegen.png,0,,,,,,,,,,,,,,,,,,,,,
,,,,,,00083,2023-10-24_14h47.32.107,vbt_B1_day2,2022.2.4,MacIntel,25.64102564,,,,,,,,,,,,,,,,,,,,,,,,,,,down,0,3.377,,,0.274444444,-0.047777778,1,0,0,0.466,0,154,154,81,1,dubbel,images/br_dubbel.png,images/cb_dubbel.png,0,,,,,,,,,,,,,,,,,,,,,
,,,,,,00083,2023-10-24_14h47.32.107,vbt_B1_day2,2022.2.4,MacIntel,25.64102564,,,,,,,,,,,,,,,,,,,,,,,,,,,down,0,1.386,,,0.274444444,-0.047777778,1,0,0,1.771,0,155,155,51,1,samen,images/br_samen.png,images/cb_samen.png,0,,,,,,,,,,,,,,,,,,,,,
,,,,,,00083,2023-10-24_14h47.32.107,vbt_B1_day2,2022.2.4,MacIntel,25.64102564,,,,,,,,,,,,,,,,,,,,,,,,,,,down,0,1.586,,,0.274444444,-0.047777778,1,0,0,0.517,0,156,156,32,1,palm,images/br_palm.png,images/cb_palm.png,0,,,,,,,,,,,,,,,,,,,,,
,,,,,,00083,2023-10-24_14h47.32.107,vbt_B1_day2,2022.2.4,MacIntel,25.64102564,,,,,,,,,,,,,,,,,,,,,,,,,,,down,0,8.456,,,0.274444444,-0.047777778,1,0,0,0.499,0,157,157,164,1,anarchie,images/br_anarchie.png,images/cb_anarchie.png,0,,,,,,,,,,,,,,,,,,,,,
,,,,,,00083,2023-10-24_14h47.32.107,vbt_B1_day2,2022.2.4,MacIntel,25.64102564,,,,,,,,,,,,,,,,,,,,,,,,,,,down,0,1.469,,,0.274444444,-0.047777778,1,0,0,1.133,0,158,158,6,1,diep,images/br_diep.png,images/cb_diep.png,0,,,,,,,,,,,,,,,,,,,,,
,,,,,,00083,2023-10-24_14h47.32.107,vbt_B1_day2,2022.2.4,MacIntel,25.64102564,,,,,,,,,,,,,,,,,,,,,,,,,,,down,0,4.631,,,0.274444444,-0.047777778,1,0,0,0.732,0,159,159,149,1,redding,images/br_redding.png,images/cb_redding.png,0,,,,,,,,,,,,,,,,,,,,,
,,,,,,00083,2023-10-24_14h47.32.107,vbt_B1_day2,2022.2.4,MacIntel,25.64102564,,,,,,,,,,,,,,,,,,,,,,,,,,,down,0,10.609,,,0.274444444,-0.047777778,1,0,0,1.697,0,160,160,194,1,driemaal,images/br_driemaal.png,images/cb_driemaal.png,0,,,,,,,,,,,,,,,,,,,,,
,,,,,,00083,2023-10-24_14h47.32.107,vbt_B1_day2,2022.2.4,MacIntel,25.64102564,,,,,,,,,,,,,,,,,,,,,,,,,,,down,0,10.784,,,0.06,0.005555556,1,0,0,6.295,0,161,161,101,1,staren,images/br_staren.png,images/cb_staren.png,0,,,,,,,,,,,,,,,,,,,,,
,,,,,,00083,2023-10-24_14h47.32.107,vbt_B1_day2,2022.2.4,MacIntel,25.64102564,,,,,,,,,,,,,,,,,,,,,,,,,,,down,0,4.265,,,0.218888889,-0.07,1,0,0,1.317,0,162,162,79,1,nodig,images/br_nodig.png,images/cb_nodig.png,0,,,,,,,,,,,,,,,,,,,,,
,,,,,,00083,2023-10-24_14h47.32.107,vbt_B1_day2,2022.2.4,MacIntel,25.64102564,,,,,,,,,,,,,,,,,,,,,,,,,,,down,0,1.166,ziek,,0.447777778,0.036666667,1,0,0,3.447,0,163,163,16,1,ziek,images/br_ziek.png,images/cb_ziek.png,1,,,,,,,,,,,,,,,,,,,,,
,,,,,,00083,2023-10-24_14h47.32.107,vbt_B1_day2,2022.2.4,MacIntel,25.64102564,,,,,,,,,,,,,,,,,,,,,,,,,,,down,0,1.737,,,0.384444444,0.028888889,1,0,0,1.016,0,164,164,35,1,lust,images/br_lust.png,images/cb_lust.png,0,,,,,,,,,,,,,,,,,,,,,
,,,,,,00083,2023-10-24_14h47.32.107,vbt_B1_day2,2022.2.4,MacIntel,25.64102564,,,,,,,,,,,,,,,,,,,,,,,,,,,down,0,3.297,,,0.378888889,0.032222222,1,0,0,0.932,0,165,165,132,1,grappen,images/br_grappen.png,images/cb_grappen.png,0,,,,,,,,,,,,,,,,,,,,,
,,,,,,00083,2023-10-24_14h47.32.107,vbt_B1_day2,2022.2.4,MacIntel,25.64102564,,,,,,,,,,,,,,,,,,,,,,,,,,,down,0,3.812,,,0.378888889,0.032222222,1,0,0,0.45,0,166,166,121,1,twijfel,images/br_twijfel.png,images/cb_twijfel.png,0,,,,,,,,,,,,,,,,,,,,,
,,,,,,00083,2023-10-24_14h47.32.107,vbt_B1_day2,2022.2.4,MacIntel,25.64102564,,,,,,,,,,,,,,,,,,,,,,,,,,,down,0,1.819,,,0.378888889,0.032222222,1,0,0,0.633,0,167,167,69,1,waken,images/br_waken.png,images/cb_waken.png,0,,,,,,,,,,,,,,,,,,,,,
,,,,,,00083,2023-10-24_14h47.32.107,vbt_B1_day2,2022.2.4,MacIntel,25.64102564,,,,,,,,,,,,,,,,,,,,,,,,,,,down,0,2.434,,,0.378888889,0.032222222,1,0,0,0.45,0,168,168,4,1,moes,images/br_moes.png,images/cb_moes.png,0,,,,,,,,,,,,,,,,,,,,,
,,,,,,00083,2023-10-24_14h47.32.107,vbt_B1_day2,2022.2.4,MacIntel,25.64102564,,,,,,,,,,,,,,,,,,,,,,,,,,,down,0,3.648,,,0.378888889,0.032222222,1,0,0,0.433,0,169,169,166,1,strikken,images/br_strikken.png,images/cb_strikken.png,0,,,,,,,,,,,,,,,,,,,,,
,,,,,,00083,2023-10-24_14h47.32.107,vbt_B1_day2,2022.2.4,MacIntel,25.64102564,,,,,,,,,,,,,,,,,,,,,,,,,,,down,0,4.486,kring,,0.471111111,0.06,1,0,0,0.38,0,170,170,59,1,kring,images/br_kring.png,images/cb_kring.png,1,,,,,,,,,,,,,,,,,,,,,
,,,,,,00083,2023-10-24_14h47.32.107,vbt_B1_day2,2022.2.4,MacIntel,25.64102564,,,,,,,,,,,,,,,,,,,,,,,,,,,down,0,6.276,,,0.36,0.031111111,1,0,0,0.596,0,171,171,127,1,doodmoe,images/br_doodmoe.png,images/cb_doodmoe.png,0,,,,,,,,,,,,,,,,,,,,,
,,,,,,00083,2023-10-24_14h47.32.107,vbt_B1_day2,2022.2.4,MacIntel,25.64102564,,,,,,,,,,,,,,,,,,,,,,,,,,,down,0,1.702,,,0.355555556,0.033333333,1,0,0,0.665,0,172,172,36,1,vuur,images/br_vuur.png,images/cb_vuur.png,0,,,,,,,,,,,,,,,,,,,,,
,,,,,,00083,2023-10-24_14h47.32.107,vbt_B1_day2,2022.2.4,MacIntel,25.64102564,,,,,,,,,,,,,,,,,,,,,,,,,,,down,0,4.532,,,0.307777778,0.032222222,1,0,0,0.666,0,173,173,135,1,gedicht,images/br_gedicht.png,images/cb_gedicht.png,0,,,,,,,,,,,,,,,,,,,,,
,,,,,,00083,2023-10-24_14h47.32.107,vbt_B1_day2,2022.2.4,MacIntel,25.64102564,,,,,,,,,,,,,,,,,,,,,,,,,,,down,0,6.247,,,0.305555556,0.031111111,1,0,0,2.333,0,174,174,92,1,geheim,images/br_geheim.png,images/cb_geheim.png,0,,,,,,,,,,,,,,,,,,,,,
,,,,,,00083,2023-10-24_14h47.32.107,vbt_B1_day2,2022.2.4,MacIntel,25.64102564,,,,,,,,,,,,,,,,,,,,,,,,,,,down,0,5.918,,,0.305555556,0.031111111,1,0,0,0.432,0,175,175,70,1,ijdel,images/br_ijdel.png,images/cb_ijdel.png,0,,,,,,,,,,,,,,,,,,,,,
,,,,,,00083,2023-10-24_14h47.32.107,vbt_B1_day2,2022.2.4,MacIntel,25.64102564,,,,,,,,,,,,,,,,,,,,,,,,,,,down,0,2.119,,,0.305555556,0.031111111,1,0,0,0.467,0,176,176,115,1,kleren,images/br_kleren.png,images/cb_kleren.png,0,,,,,,,,,,,,,,,,,,,,,
,,,,,,00083,2023-10-24_14h47.32.107,vbt_B1_day2,2022.2.4,MacIntel,25.64102564,,,,,,,,,,,,,,,,,,,,,,,,,,,down,0,0.721,,,0.305555556,0.031111111,1,0,0,0.434,0,177,177,72,1,strak,images/br_strak.png,images/cb_strak.png,0,,,,,,,,,,,,,,,,,,,,,
,,,,,,00083,2023-10-24_14h47.32.107,vbt_B1_day2,2022.2.4,MacIntel,25.64102564,,,,,,,,,,,,,,,,,,,,,,,,,,,down,0,1.689,,,0.305555556,0.031111111,1,0,0,0.383,0,178,178,154,1,aflopen,images/br_aflopen.png,images/cb_aflopen.png,0,,,,,,,,,,,,,,,,,,,,,
,,,,,,00083,2023-10-24_14h47.32.107,vbt_B1_day2,2022.2.4,MacIntel,25.64102564,,,,,,,,,,,,,,,,,,,,,,,,,,,down,0,1.422,,,0.305555556,0.031111111,1,0,0,0.484,0,179,179,126,1,kasteel,images/br_kasteel.png,images/cb_kasteel.png,0,,,,,,,,,,,,,,,,,,,,,
,,,,,,00083,2023-10-24_14h47.32.107,vbt_B1_day2,2022.2.4,MacIntel,25.64102564,,,,,,,,,,,,,,,,,,,,,,,,,,,down,0,4.781,,,0.305555556,0.031111111,1,0,0,0.45,0,180,180,196,1,nakijken,images/br_nakijken.png,images/cb_nakijken.png,0,,,,,,,,,,,,,,,,,,,,,
,,,,,,00083,2023-10-24_14h47.32.107,vbt_B1_day2,2022.2.4,MacIntel,25.64102564,,,,,,,,,,,,,,,,,,,,,,,,,,,down,0,1.15,,,0.305555556,0.031111111,1,0,0,0.432,0,181,181,78,1,leren,images/br_leren.png,images/cb_leren.png,0,,,,,,,,,,,,,,,,,,,,,
,,,,,,00083,2023-10-24_14h47.32.107,vbt_B1_day2,2022.2.4,MacIntel,25.64102564,,,,,,,,,,,,,,,,,,,,,,,,,,,down,0,5.598,,,0.305555556,0.031111111,1,0,0,0.416,0,182,182,45,1,piste,images/br_piste.png,images/cb_piste.png,0,,,,,,,,,,,,,,,,,,,,,
,,,,,,00083,2023-10-24_14h47.32.107,vbt_B1_day2,2022.2.4,MacIntel,25.64102564,,,,,,,,,,,,,,,,,,,,,,,,,,,down,0,3.419,,,0.305555556,0.031111111,1,0,0,0.616,0,183,183,189,1,aanraden,images/br_aanraden.png,images/cb_aanraden.png,0,,,,,,,,,,,,,,,,,,,,,
,,,,,,00083,2023-10-24_14h47.32.107,vbt_B1_day2,2022.2.4,MacIntel,25.64102564,,,,,,,,,,,,,,,,,,,,,,,,,,,down,0,1.539,,,0.306666667,0.004444444,1,0,0,1.166,0,184,184,113,1,koppen,images/br_koppen.png,images/cb_koppen.png,0,,,,,,,,,,,,,,,,,,,,,
,,,,,,00083,2023-10-24_14h47.32.107,vbt_B1_day2,2022.2.4,MacIntel,25.64102564,,,,,,,,,,,,,,,,,,,,,,,,,,,down,0,1.849,,,0.306666667,0.004444444,1,0,0,0.399,0,185,185,109,1,totaal,images/br_totaal.png,images/cb_totaal.png,0,,,,,,,,,,,,,,,,,,,,,
,,,,,,00083,2023-10-24_14h47.32.107,vbt_B1_day2,2022.2.4,MacIntel,25.64102564,,,,,,,,,,,,,,,,,,,,,,,,,,,down,0,1.532,,,0.306666667,0.004444444,1,0,0,0.499,0,186,186,186,1,voorraad,images/br_voorraad.png,images/cb_voorraad.png,0,,,,,,,,,,,,,,,,,,,,,
,,,,,,00083,2023-10-24_14h47.32.107,vbt_B1_day2,2022.2.4,MacIntel,25.64102564,,,,,,,,,,,,,,,,,,,,,,,,,,,down,0,1.506,,,0.306666667,0.004444444,1,0,0,0.784,0,187,187,90,1,geluid,images/br_geluid.png,images/cb_geluid.png,0,,,,,,,,,,,,,,,,,,,,,
,,,,,,00083,2023-10-24_14h47.32.107,vbt_B1_day2,2022.2.4,MacIntel,25.64102564,,,,,,,,,,,,,,,,,,,,,,,,,,,down,0,6.083,,,0.306666667,0.004444444,1,0,0,0.65,0,188,188,85,1,heilig,images/br_heilig.png,images/cb_heilig.png,0,,,,,,,,,,,,,,,,,,,,,
,,,,,,00083,2023-10-24_14h47.32.107,vbt_B1_day2,2022.2.4,MacIntel,25.64102564,,,,,,,,,,,,,,,,,,,,,,,,,,,down,0,0.933,,,0.306666667,0.004444444,1,0,0,0.416,0,189,189,12,1,kust,images/br_kust.png,images/cb_kust.png,0,,,,,,,,,,,,,,,,,,,,,
,,,,,,00083,2023-10-24_14h47.32.107,vbt_B1_day2,2022.2.4,MacIntel,25.64102564,,,,,,,,,,,,,,,,,,,,,,,,,,,down,0,1.416,,,0.306666667,0.004444444,1,0,0,0.399,0,190,190,68,1,schat,images/br_schat.png,images/cb_schat.png,0,,,,,,,,,,,,,,,,,,,,,
,,,,,,00083,2023-10-24_14h47.32.107,vbt_B1_day2,2022.2.4,MacIntel,25.64102564,,,,,,,,,,,,,,,,,,,,,,,,,,,down,0,7.777,,,0.288888889,0.025555556,1,0,0,4.281,0,191,191,134,1,geliefd,images/br_geliefd.png,images/cb_geliefd.png,0,,,,,,,,,,,,,,,,,,,,,
,,,,,,00083,2023-10-24_14h47.32.107,vbt_B1_day2,2022.2.4,MacIntel,25.64102564,,,,,,,,,,,,,,,,,,,,,,,,,,,down,0,3.134,,,0.288888889,0.025555556,1,0,0,0.533,0,192,192,37,1,mijn,images/br_mijn.png,images/cb_mijn.png,0,,,,,,,,,,,,,,,,,,,,,
,,,,,,00083,2023-10-24_14h47.32.107,vbt_B1_day2,2022.2.4,MacIntel,25.64102564,,,,,,,,,,,,,,,,,,,,,,,,,,,down,0,3.248,,,0.24,-0.007777778,1,0,0,1.199,0,193,193,197,1,spanning,images/br_spanning.png,images/cb_spanning.png,0,,,,,,,,,,,,,,,,,,,,,
,,,,,,00083,2023-10-24_14h47.32.107,vbt_B1_day2,2022.2.4,MacIntel,25.64102564,,,,,,,,,,,,,,,,,,,,,,,,,,,down,0,3.794,,,0.163333333,-0.124444444,1,0,0,0.411,0,194,194,30,1,uien,images/br_uien.png,images/cb_uien.png,0,,,,,,,,,,,,,,,,,,,,,
,,,,,,00083,2023-10-24_14h47.32.107,vbt_B1_day2,2022.2.4,MacIntel,25.64102564,,,,,,,,,,,,,,,,,,,,,,,,,,,down,0,4.856,,,0.163333333,-0.124444444,1,0,0,0.399,0,195,195,110,1,zuster,images/br_zuster.png,images/cb_zuster.png,0,,,,,,,,,,,,,,,,,,,,,
,,,,,,00083,2023-10-24_14h47.32.107,vbt_B1_day2,2022.2.4,MacIntel,25.64102564,,,,,,,,,,,,,,,,,,,,,,,,,,,down,0,0.953,,,0.163333333,-0.124444444,1,0,0,0.399,0,196,196,74,1,graaf,images/br_graaf.png,images/cb_graaf.png,0,,,,,,,,,,,,,,,,,,,,,
,,,,,,00083,2023-10-24_14h47.32.107,vbt_B1_day2,2022.2.4,MacIntel,25.64102564,,,,,,,,,,,,,,,,,,,,,,,,,,,down,0,3.188,,,0.163333333,-0.124444444,1,0,0,0.416,0,197,197,175,1,heengaan,images/br_heengaan.png,images/cb_heengaan.png,0,,,,,,,,,,,,,,,,,,,,,
,,,,,,00083,2023-10-24_14h47.32.107,vbt_B1_day2,2022.2.4,MacIntel,25.64102564,,,,,,,,,,,,,,,,,,,,,,,,,,,down,0,2.106,,,0.163333333,-0.124444444,1,0,0,0.387,0,198,198,73,1,volop,images/br_volop.png,images/cb_volop.png,0,,,,,,,,,,,,,,,,,,,,,
,,,,,,00083,2023-10-24_14h47.32.107,vbt_B1_day2,2022.2.4,MacIntel,25.64102564,,,,,,,,,,,,,,,,,,,,,,,,,,,down,0,0.436,,,0.163333333,-0.124444444,1,0,0,0.3,0,199,199,39,1,laag,images/br_laag.png,images/cb_laag.png,0,,,,,,,,,,,,,,,,,,,,,
,,,,,,00083,2023-10-24_14h47.32.107,vbt_B1_day2,2022.2.4,MacIntel,25.64102564,,,,,,,,,,,,,,,,,,,,,,,,,,,,,,,,,,,,,,,,,,,,,,,0.311111111,0.142222222,1,0,0,,,,,,,,,,,,,,,,
,,,,,,00083,2023-10-24_14h47.32.107,vbt_B1_day2,2022.2.4,MacIntel,25.64102564,,,,,,,,,,,,,,,,,,,,,,,,,,,,,,,,,,,,,,,,,,,,,,,,,,,,0.222222222,-0.054444444,1,0,0,,,,,,,,,,,
,,,,,,00083,2023-10-24_14h47.32.107,vbt_B1_day2,2022.2.4,MacIntel,25.64102564,,,,,,,,,,,,,,,,,,,,,,,,,,,,,,zo.....,,,,,,,,,,,,,zomers,images/br_zomers.png,images/cb_zomers.png,,,,,,,,,,,,0.306666667,0.092222222,1,0,0,zo.....,0,0,0,48,1
,,,,,,00083,2023-10-24_14h47.32.107,vbt_B1_day2,2022.2.4,MacIntel,25.64102564,,,,,,,,,,,,,,,,,,,,,,,,,,,,,,wijve,,,,,,,,,,,,,wijve,images/br_wijve.png,images/cb_wijve.png,,,,,,,,,,,,0.223333333,0.033333333,1,0,0,wijve,0,1,1,27,1
,,,,,,00083,2023-10-24_14h47.32.107,vbt_B1_day2,2022.2.4,MacIntel,25.64102564,,,,,,,,,,,,,,,,,,,,,,,,,,,,,,.........,,,,,,,,,,,,,heengeen,images/br_heengeen.png,images/cb_heengeen.png,,,,,,,,,,,,0.257777778,0.065555556,1,0,0,.........,0,2,2,38,1
,,,,,,00083,2023-10-24_14h47.32.107,vbt_B1_day2,2022.2.4,MacIntel,25.64102564,,,,,,,,,,,,,,,,,,,,,,,,,,,,,,feesten,,,,,,,,,,,,,feestdag,images/br_feestdag.png,images/cb_feestdag.png,,,,,,,,,,,,0.175555556,-0.014444444,1,0,0,feesten,0,3,3,17,1
,,,,,,00083,2023-10-24_14h47.32.107,vbt_B1_day2,2022.2.4,MacIntel,25.64102564,,,,,,,,,,,,,,,,,,,,,,,,,,,,,,negel,,,,,,,,,,,,,negel,images/br_negel.png,images/cb_negel.png,,,,,,,,,,,,0.186666667,-0.03,1,0,0,negel,0,4,4,24,1
,,,,,,00083,2023-10-24_14h47.32.107,vbt_B1_day2,2022.2.4,MacIntel,25.64102564,,,,,,,,,,,,,,,,,,,,,,,,,,,,,,breuk,,,,,,,,,,,,,breuk,images/br_breuk.png,images/cb_breuk.png,,,,,,,,,,,,0.18,-0.022222222,1,0,0,breuk,0,5,5,45,1
,,,,,,00083,2023-10-24_14h47.32.107,vbt_B1_day2,2022.2.4,MacIntel,25.64102564,,,,,,,,,,,,,,,,,,,,,,,,,,,,,,krimmen,,,,,,,,,,,,,krimmen,images/br_krimmen.png,images/cb_krimmen.png,,,,,,,,,,,,0.196666667,0.008888889,1,0,0,krimmen,0,6,6,35,1
,,,,,,00083,2023-10-24_14h47.32.107,vbt_B1_day2,2022.2.4,MacIntel,25.64102564,,,,,,,,,,,,,,,,,,,,,,,,,,,,,,blad,,,,,,,,,,,,,blad,images/br_blad.png,images/cb_blad.png,,,,,,,,,,,,0.256666667,0.005555556,1,0,0,blad,0,7,7,1,1
,,,,,,00083,2023-10-24_14h47.32.107,vbt_B1_day2,2022.2.4,MacIntel,25.64102564,,,,,,,,,,,,,,,,,,,,,,,,,,,,,,moes,,,,,,,,,,,,,moes,images/br_moes.png,images/cb_moes.png,,,,,,,,,,,,0.191111111,0.001111111,1,0,0,moes,0,8,8,0,1
,,,,,,00083,2023-10-24_14h47.32.107,vbt_B1_day2,2022.2.4,MacIntel,25.64102564,,,,,,,,,,,,,,,,,,,,,,,,,,,,,,geld,,,,,,,,,,,,,geld,images/br_geld.png,images/cb_geld.png,,,,,,,,,,,,0.224444444,-0.018888889,1,0,0,geld,0,9,9,3,1
,,,,,,00083,2023-10-24_14h47.32.107,vbt_B1_day2,2022.2.4,MacIntel,25.64102564,,,,,,,,,,,,,,,,,,,,,,,,,,,,,,anarchie,,,,,,,,,,,,,anarchie,images/br_anarchie.png,images/cb_anarchie.png,,,,,,,,,,,,0.253333333,-0.014444444,1,0,0,anarchie,0,10,10,16,1
,,,,,,00083,2023-10-24_14h47.32.107,vbt_B1_day2,2022.2.4,MacIntel,25.64102564,,,,,,,,,,,,,,,,,,,,,,,,,,,,,,zegel,,,,,,,,,,,,,zegel,images/br_zegel.png,images/cb_zegel.png,,,,,,,,,,,,0.242222222,-0.043333333,1,0,0,zegel,0,11,11,46,1
,,,,,,00083,2023-10-24_14h47.32.107,vbt_B1_day2,2022.2.4,MacIntel,25.64102564,,,,,,,,,,,,,,,,,,,,,,,,,,,,,,prekken,,,,,,,,,,,,,prekken,images/br_prekken.png,images/cb_prekken.png,,,,,,,,,,,,0.213333333,-0.01,1,0,0,prekken,0,12,12,34,1
,,,,,,00083,2023-10-24_14h47.32.107,vbt_B1_day2,2022.2.4,MacIntel,25.64102564,,,,,,,,,,,,,,,,,,,,,,,,,,,,,,opdatten,,,,,,,,,,,,,opdatten,images/br_opdatten.png,images/cb_opdatten.png,,,,,,,,,,,,0.216666667,-0.036666667,1,0,0,opdatten,0,13,13,37,1
,,,,,,00083,2023-10-24_14h47.32.107,vbt_B1_day2,2022.2.4,MacIntel,25.64102564,,,,,,,,,,,,,,,,,,,,,,,,,,,,,,lokken,,,,,,,,,,,,,lokken,images/br_lokken.png,images/cb_lokken.png,,,,,,,,,,,,0.17,-0.067777778,1,0,0,lokken,0,14,14,8,1
,,,,,,00083,2023-10-24_14h47.32.107,vbt_B1_day2,2022.2.4,MacIntel,25.64102564,,,,,,,,,,,,,,,,,,,,,,,,,,,,,,sifferd,,,,,,,,,,,,,sifferd,images/br_sifferd.png,images/cb_sifferd.png,,,,,,,,,,,,0.184444444,-0.062222222,1,0,0,sifferd,0,15,15,32,1
,,,,,,00083,2023-10-24_14h47.32.107,vbt_B1_day2,2022.2.4,MacIntel,25.64102564,,,,,,,,,,,,,,,,,,,,,,,,,,,,,,manieren,,,,,,,,,,,,,manieren,images/br_manieren.png,images/cb_manieren.png,,,,,,,,,,,,0.195555556,-0.017777778,1,0,0,manieren,0,16,16,56,1
,,,,,,00083,2023-10-24_14h47.32.107,vbt_B1_day2,2022.2.4,MacIntel,25.64102564,,,,,,,,,,,,,,,,,,,,,,,,,,,,,,toeval,,,,,,,,,,,,,toeval,images/br_toeval.png,images/cb_toeval.png,,,,,,,,,,,,0.195555556,-0.017777778,1,0,0,toeval,0,17,17,11,1
,,,,,,00083,2023-10-24_14h47.32.107,vbt_B1_day2,2022.2.4,MacIntel,25.64102564,,,,,,,,,,,,,,,,,,,,,,,,,,,,,,aanzien,,,,,,,,,,,,,aanzien,images/br_aanzien.png,images/cb_aanzien.png,,,,,,,,,,,,0.265555556,-0.037777778,1,0,0,aanzien,0,18,18,13,1
,,,,,,00083,2023-10-24_14h47.32.107,vbt_B1_day2,2022.2.4,MacIntel,25.64102564,,,,,,,,,,,,,,,,,,,,,,,,,,,,,,kenzis,,,,,,,,,,,,,kenzis,images/br_kenzis.png,images/cb_kenzis.png,,,,,,,,,,,,0.29,-0.022222222,1,0,0,kenzis,0,19,19,30,1
,,,,,,00083,2023-10-24_14h47.32.107,vbt_B1_day2,2022.2.4,MacIntel,25.64102564,,,,,,,,,,,,,,,,,,,,,,,,,,,,,,kijlen,,,,,,,,,,,,,kijlen,images/br_kijlen.png,images/cb_kijlen.png,,,,,,,,,,,,0.294444444,-0.001111111,1,0,0,kijlen,0,20,20,31,1
,,,,,,00083,2023-10-24_14h47.32.107,vbt_B1_day2,2022.2.4,MacIntel,25.64102564,,,,,,,,,,,,,,,,,,,,,,,,,,,,,,tweeling,,,,,,,,,,,,,tweeling,images/br_tweeling.png,images/cb_tweeling.png,,,,,,,,,,,,0.264444444,-0.001111111,1,0,0,tweeling,0,21,21,58,1
,,,,,,00083,2023-10-24_14h47.32.107,vbt_B1_day2,2022.2.4,MacIntel,25.64102564,,,,,,,,,,,,,,,,,,,,,,,,,,,,,,lurgen,,,,,,,,,,,,,lurgen,images/br_lurgen.png,images/cb_lurgen.png,,,,,,,,,,,,0.261111111,-0.036666667,1,0,0,lurgen,0,22,22,29,1
,,,,,,00083,2023-10-24_14h47.32.107,vbt_B1_day2,2022.2.4,MacIntel,25.64102564,,,,,,,,,,,,,,,,,,,,,,,,,,,,,,badon,,,,,,,,,,,,,badon,images/br_badon.png,images/cb_badon.png,,,,,,,,,,,,0.23,-0.045555556,1,0,0,badon,0,23,23,26,1
,,,,,,00083,2023-10-24_14h47.32.107,vbt_B1_day2,2022.2.4,MacIntel,25.64102564,,,,,,,,,,,,,,,,,,,,,,,,,,,,,,agressie,,,,,,,,,,,,,agressie,images/br_agressie.png,images/cb_agressie.png,,,,,,,,,,,,0.252222222,-0.025555556,1,0,0,agressie,0,24,24,59,1
,,,,,,00083,2023-10-24_14h47.32.107,vbt_B1_day2,2022.2.4,MacIntel,25.64102564,,,,,,,,,,,,,,,,,,,,,,,,,,,,,,eenhoorn,,,,,,,,,,,,,eenhoorn,images/br_eenhoorn.png,images/cb_eenhoorn.png,,,,,,,,,,,,0.246666667,-0.002222222,1,0,0,eenhoorn,0,25,25,19,1
,,,,,,00083,2023-10-24_14h47.32.107,vbt_B1_day2,2022.2.4,MacIntel,25.64102564,,,,,,,,,,,,,,,,,,,,,,,,,,,,,,th..a,,,,,,,,,,,,,thema,images/br_thema.png,images/cb_thema.png,,,,,,,,,,,,0.002222222,-0.203333333,1,0,0,th..a,0,26,26,47,1
,,,,,,00083,2023-10-24_14h47.32.107,vbt_B1_day2,2022.2.4,MacIntel,25.64102564,,,,,,,,,,,,,,,,,,,,,,,,,,,,,,welzijn,,,,,,,,,,,,,welzijn,images/br_welzijn.png,images/cb_welzijn.png,,,,,,,,,,,,0.247777778,-0.05,1,0,0,welzijn,0,27,27,52,1
,,,,,,00083,2023-10-24_14h47.32.107,vbt_B1_day2,2022.2.4,MacIntel,25.64102564,,,,,,,,,,,,,,,,,,,,,,,,,,,,,,systeem,,,,,,,,,,,,,systeem,images/br_systeem.png,images/cb_systeem.png,,,,,,,,,,,,0.304444444,-0.021111111,1,0,0,systeem,0,28,28,54,1
,,,,,,00083,2023-10-24_14h47.32.107,vbt_B1_day2,2022.2.4,MacIntel,25.64102564,,,,,,,,,,,,,,,,,,,,,,,,,,,,,,strikken,,,,,,,,,,,,,strikken,images/br_strikken.png,images/cb_strikken.png,,,,,,,,,,,,0.307777778,0.006666667,1,0,0,strikken,0,29,29,18,1
,,,,,,00083,2023-10-24_14h47.32.107,vbt_B1_day2,2022.2.4,MacIntel,25.64102564,,,,,,,,,,,,,,,,,,,,,,,,,,,,,,bereu...,,,,,,,,,,,,,bereuwen,images/br_bereuwen.png,images/cb_bereuwen.png,,,,,,,,,,,,0.271111111,0.006666667,1,0,0,bereu...,0,30,30,39,1
,,,,,,00083,2023-10-24_14h47.32.107,vbt_B1_day2,2022.2.4,MacIntel,25.64102564,,,,,,,,,,,,,,,,,,,,,,,,,,,,,,plannen,,,,,,,,,,,,,plannen,images/br_plannen.png,images/cb_plannen.png,,,,,,,,,,,,0.292222222,0.034444444,1,0,0,plannen,0,31,31,55,1
,,,,,,00083,2023-10-24_14h47.32.107,vbt_B1_day2,2022.2.4,MacIntel,25.64102564,,,,,,,,,,,,,,,,,,,,,,,,,,,,,,sora,,,,,,,,,,,,,sora,images/br_sora.png,images/cb_sora.png,,,,,,,,,,,,0.294444444,0.021111111,1,0,0,sora,0,32,32,22,1
,,,,,,00083,2023-10-24_14h47.32.107,vbt_B1_day2,2022.2.4,MacIntel,25.64102564,,,,,,,,,,,,,,,,,,,,,,,,,,,,,,zwager,,,,,,,,,,,,,zwager,images/br_zwager.png,images/cb_zwager.png,,,,,,,,,,,,0.307777778,0.08,1,0,0,zwager,0,33,33,49,1
,,,,,,00083,2023-10-24_14h47.32.107,vbt_B1_day2,2022.2.4,MacIntel,25.64102564,,,,,,,,,,,,,,,,,,,,,,,,,,,,,,heilig,,,,,,,,,,,,,heilig,images/br_heilig.png,images/cb_heilig.png,,,,,,,,,,,,0.304444444,0.076666667,1,0,0,heilig,0,34,34,9,1
,,,,,,00083,2023-10-24_14h47.32.107,vbt_B1_day2,2022.2.4,MacIntel,25.64102564,,,,,,,,,,,,,,,,,,,,,,,,,,,,,,kabel,,,,,,,,,,,,,kabel,images/br_kabel.png,images/cb_kabel.png,,,,,,,,,,,,0.328888889,0.102222222,1,0,0,kabel,0,35,35,7,1
,,,,,,00083,2023-10-24_14h47.32.107,vbt_B1_day2,2022.2.4,MacIntel,25.64102564,,,,,,,,,,,,,,,,,,,,,,,,,,,,,,aanvraag,,,,,,,,,,,,,aanvraag,images/br_aanvraag.png,images/cb_aanvraag.png,,,,,,,,,,,,0.35,0.134444444,1,0,0,aanvraag,0,36,36,57,1
,,,,,,00083,2023-10-24_14h47.32.107,vbt_B1_day2,2022.2.4,MacIntel,25.64102564,,,,,,,,,,,,,,,,,,,,,,,,,,,,,,stes,,,,,,,,,,,,,stes,images/br_stes.png,images/cb_stes.png,,,,,,,,,,,,0.31,0.068888889,1,0,0,stes,0,37,37,21,1
,,,,,,00083,2023-10-24_14h47.32.107,vbt_B1_day2,2022.2.4,MacIntel,25.64102564,,,,,,,,,,,,,,,,,,,,,,,,,,,,,,remel,,,,,,,,,,,,,remel,images/br_remel.png,images/cb_remel.png,,,,,,,,,,,,0.315555556,0.074444444,1,0,0,remel,0,38,38,25,1
,,,,,,00083,2023-10-24_14h47.32.107,vbt_B1_day2,2022.2.4,MacIntel,25.64102564,,,,,,,,,,,,,,,,,,,,,,,,,,,,,,trots,,,,,,,,,,,,,trots,images/br_trots.png,images/cb_trots.png,,,,,,,,,,,,0.336666667,0.085555556,1,0,0,trots,0,39,39,44,1
,,,,,,00083,2023-10-24_14h47.32.107,vbt_B1_day2,2022.2.4,MacIntel,25.64102564,,,,,,,,,,,,,,,,,,,,,,,,,,,,,,ophues..,,,,,,,,,,,,,ophuimen,images/br_ophuimen.png,images/cb_ophuimen.png,,,,,,,,,,,,0.314444444,-0.005555556,1,0,0,ophues..,0,40,40,36,1
,,,,,,00083,2023-10-24_14h47.32.107,vbt_B1_day2,2022.2.4,MacIntel,25.64102564,,,,,,,,,,,,,,,,,,,,,,,,,,,,,,joes,,,,,,,,,,,,,joes,images/br_joes.png,images/cb_joes.png,,,,,,,,,,,,0.33,0.036666667,1,0,0,joes,0,41,41,20,1
,,,,,,00083,2023-10-24_14h47.32.107,vbt_B1_day2,2022.2.4,MacIntel,25.64102564,,,,,,,,,,,,,,,,,,,,,,,,,,,,,,koorts,,,,,,,,,,,,,koorts,images/br_koorts.png,images/cb_koorts.png,,,,,,,,,,,,0.338888889,0.077777778,1,0,0,koorts,0,42,42,50,1
,,,,,,00083,2023-10-24_14h47.32.107,vbt_B1_day2,2022.2.4,MacIntel,25.64102564,,,,,,,,,,,,,,,,,,,,,,,,,,,,,,lijnen,,,,,,,,,,,,,lijnen,images/br_lijnen.png,images/cb_lijnen.png,,,,,,,,,,,,0.337777778,0.075555556,1,0,0,lijnen,0,43,43,51,1
,,,,,,00083,2023-10-24_14h47.32.107,vbt_B1_day2,2022.2.4,MacIntel,25.64102564,,,,,,,,,,,,,,,,,,,,,,,,,,,,,,bloeien,,,,,,,,,,,,,bloeien,images/br_bloeien.png,images/cb_bloeien.png,,,,,,,,,,,,0.341111111,0.083333333,1,0,0,bloeien,0,44,44,12,1
,,,,,,00083,2023-10-24_14h47.32.107,vbt_B1_day2,2022.2.4,MacIntel,25.64102564,,,,,,,,,,,,,,,,,,,,,,,,,,,,,,diep,,,,,,,,,,,,,diep,images/br_diep.png,images/cb_diep.png,,,,,,,,,,,,0.341111111,0.083333333,1,0,0,diep,0,45,45,2,1
,,,,,,00083,2023-10-24_14h47.32.107,vbt_B1_day2,2022.2.4,MacIntel,25.64102564,,,,,,,,,,,,,,,,,,,,,,,,,,,,,,jong,,,,,,,,,,,,,jong,images/br_jong.png,images/cb_jong.png,,,,,,,,,,,,0.337777778,0.087777778,1,0,0,jong,0,46,46,43,1
,,,,,,00083,2023-10-24_14h47.32.107,vbt_B1_day2,2022.2.4,MacIntel,25.64102564,,,,,,,,,,,,,,,,,,,,,,,,,,,,,,goon,,,,,,,,,,,,,goon,images/br_goon.png,images/cb_goon.png,,,,,,,,,,,,0.335555556,0.085555556,1,0,0,goon,0,47,47,23,1
,,,,,,00083,2023-10-24_14h47.32.107,vbt_B1_day2,2022.2.4,MacIntel,25.64102564,,,,,,,,,,,,,,,,,,,,,,,,,,,,,,woning,,,,,,,,,,,,,woning,images/br_woning.png,images/cb_woning.png,,,,,,,,,,,,0.335555556,0.085555556,1,0,0,woning,0,48,48,10,1
,,,,,,00083,2023-10-24_14h47.32.107,vbt_B1_day2,2022.2.4,MacIntel,25.64102564,,,,,,,,,,,,,,,,,,,,,,,,,,,,,,piste,,,,,,,,,,,,,piste,images/br_piste.png,images/cb_piste.png,,,,,,,,,,,,0.332222222,0.086666667,1,0,0,piste,0,49,49,5,1
,,,,,,00083,2023-10-24_14h47.32.107,vbt_B1_day2,2022.2.4,MacIntel,25.64102564,,,,,,,,,,,,,,,,,,,,,,,,,,,,,,clap,,,,,,,,,,,,,clan,images/br_clan.png,images/cb_clan.png,,,,,,,,,,,,0.327777778,0.084444444,1,0,0,clap,0,50,50,40,1
,,,,,,00083,2023-10-24_14h47.32.107,vbt_B1_day2,2022.2.4,MacIntel,25.64102564,,,,,,,,,,,,,,,,,,,,,,,,,,,,,,flits,,,,,,,,,,,,,flits,images/br_flits.png,images/cb_flits.png,,,,,,,,,,,,0.327777778,0.084444444,1,0,0,flits,0,51,51,4,1
,,,,,,00083,2023-10-24_14h47.32.107,vbt_B1_day2,2022.2.4,MacIntel,25.64102564,,,,,,,,,,,,,,,,,,,,,,,,,,,,,,dode,,,,,,,,,,,,,dode,images/br_dode.png,images/cb_dode.png,,,,,,,,,,,,0.327777778,0.084444444,1,0,0,dode,0,52,52,41,1
,,,,,,00083,2023-10-24_14h47.32.107,vbt_B1_day2,2022.2.4,MacIntel,25.64102564,,,,,,,,,,,,,,,,,,,,,,,,,,,,,,nengen,,,,,,,,,,,,,ningen,images/br_ningen.png,images/cb_ningen.png,,,,,,,,,,,,0.327777778,0.084444444,1,0,0,nengen,0,53,53,28,1
,,,,,,00083,2023-10-24_14h47.32.107,vbt_B1_day2,2022.2.4,MacIntel,25.64102564,,,,,,,,,,,,,,,,,,,,,,,,,,,,,,sjij...,,,,,,,,,,,,,sjijfel,images/br_sjijfel.png,images/cb_sjijfel.png,,,,,,,,,,,,0.321111111,0.074444444,1,0,0,sjij...,0,54,54,33,1
,,,,,,00083,2023-10-24_14h47.32.107,vbt_B1_day2,2022.2.4,MacIntel,25.64102564,,,,,,,,,,,,,,,,,,,,,,,,,,,,,,jagen,,,,,,,,,,,,,jagen,images/br_jagen.png,images/cb_jagen.png,,,,,,,,,,,,0.321111111,0.074444444,1,0,0,jagen,0,55,55,6,1
,,,,,,00083,2023-10-24_14h47.32.107,vbt_B1_day2,2022.2.4,MacIntel,25.64102564,,,,,,,,,,,,,,,,,,,,,,,,,,,,,,doodmoe,,,,,,,,,,,,,doodmoe,images/br_doodmoe.png,images/cb_doodmoe.png,,,,,,,,,,,,0.321111111,0.074444444,1,0,0,doodmoe,0,56,56,15,1
,,,,,,00083,2023-10-24_14h47.32.107,vbt_B1_day2,2022.2.4,MacIntel,25.64102564,,,,,,,,,,,,,,,,,,,,,,,,,,,,,,kasteel,,,,,,,,,,,,,kasteel,images/br_kasteel.png,images/cb_kasteel.png,,,,,,,,,,,,0.321111111,0.074444444,1,0,0,kasteel,0,57,57,14,1
,,,,,,00083,2023-10-24_14h47.32.107,vbt_B1_day2,2022.2.4,MacIntel,25.64102564,,,,,,,,,,,,,,,,,,,,,,,,,,,,,,inzicht,,,,,,,,,,,,,inzicht,images/br_inzicht.png,images/cb_inzicht.png,,,,,,,,,,,,0.331111111,0.073333333,1,0,0,inzicht,0,58,58,53,1
,,,,,,00083,2023-10-24_14h47.32.107,vbt_B1_day2,2022.2.4,MacIntel,25.64102564,,,,,,,,,,,,,,,,,,,,,,,,,,,,,,tand,,,,,,,,,,,,,tand,images/br_tand.png,images/cb_tand.png,,,,,,,,,,,,0.331111111,0.073333333,1,0,0,tand,0,59,59,42,1
,,,,,,00083,2023-10-24_14h47.32.107,vbt_B1_day2,2022.2.4,MacIntel,25.64102564,,,,,,,,,,,,,,,,,,,,,,,,,,,,,,,,,,,,,,,,,,,,,,,,,,,,,,,,,,,,,,,,,,,
