welcome_mouse.x,welcome_mouse.y,welcome_mouse.leftButton,welcome_mouse.midButton,welcome_mouse.rightButton,welcome_mouse.time,"ID",date,expName,psychopyVersion,OS,frameRate,refresh_mouse.x,refresh_mouse.y,refresh_mouse.leftButton,refresh_mouse.midButton,refresh_mouse.rightButton,refresh_mouse.time,braille_mouse.x,braille_mouse.y,braille_mouse.leftButton,braille_mouse.midButton,braille_mouse.rightButton,braille_mouse.time,trials.thisRepN,trials.thisTrialN,trials.thisN,trials.thisIndex,trials.ran,nlLet,brLet,cbLet,trainInstr_mouse.x,trainInstr_mouse.y,trainInstr_mouse.leftButton,trainInstr_mouse.midButton,trainInstr_mouse.rightButton,trainInstr_mouse.time,translation_key.keys,translation_key.corr,translation_key.rt,word_rsp.text,word_mouse.x,word_mouse.y,word_mouse.leftButton,word_mouse.midButton,word_mouse.rightButton,word_mouse.time,train_loop.thisRepN,train_loop.thisTrialN,train_loop.thisN,train_loop.thisIndex,train_loop.ran,nlWrd,brWrd,cbWrd,test,testResp,mouse.x,mouse.y,mouse.leftButton,mouse.midButton,mouse.rightButton,testInstr_mouse.x,testInstr_mouse.y,testInstr_mouse.leftButton,testInstr_mouse.midButton,testInstr_mouse.rightButton,test_mouse.x,test_mouse.y,test_mouse.leftButton,test_mouse.midButton,test_mouse.rightButton,test_response.text,test_loop.thisRepN,test_loop.thisTrialN,test_loop.thisN,test_loop.thisIndex,test_loop.ran
-0.1375,-0.255,1,0,0,10.0507,00085,2023-10-29_16h52.21.564,vbt_B1_day2,2022.2.4,Win32,59.76571838,,,,,,,,,,,,,,,,,,,,,,,,,,,,,,,,,,,,,,,,,,,,,,,,,,,,,,,,,,,,,,,,,,,
,,,,,,00085,2023-10-29_16h52.21.564,vbt_B1_day2,2022.2.4,Win32,59.76571838,-0.1375,-0.255,1,0,0,10.3686,,,,,,,,,,,,,,,,,,,,,,,,,,,,,,,,,,,,,,,,,,,,,,,,,,,,,,,,,,,,,
,,,,,,00085,2023-10-29_16h52.21.564,vbt_B1_day2,2022.2.4,Win32,59.76571838,,,,,,,-0.1375,-0.255,1,0,0,0.1004,0,0,0,18,1,s,images/br_s.png,images/cb_s.png,,,,,,,,,,,,,,,,,,,,,,,,,,,,,,,,,,,,,,,,,,,,,,,
,,,,,,00085,2023-10-29_16h52.21.564,vbt_B1_day2,2022.2.4,Win32,59.76571838,,,,,,,-0.138,-0.1625,1,0,0,1.0539,0,1,1,11,1,l,images/br_l.png,images/cb_l.png,,,,,,,,,,,,,,,,,,,,,,,,,,,,,,,,,,,,,,,,,,,,,,,
,,,,,,00085,2023-10-29_16h52.21.564,vbt_B1_day2,2022.2.4,Win32,59.76571838,,,,,,,-0.134,-0.166,1,0,0,0.1259,0,2,2,5,1,f,images/br_f.png,images/cb_f.png,,,,,,,,,,,,,,,,,,,,,,,,,,,,,,,,,,,,,,,,,,,,,,,
,,,,,,00085,2023-10-29_16h52.21.564,vbt_B1_day2,2022.2.4,Win32,59.76571838,,,,,,,-0.134,-0.166,1,0,0,0.4004,0,3,3,21,1,v,images/br_v.png,images/cb_v.png,,,,,,,,,,,,,,,,,,,,,,,,,,,,,,,,,,,,,,,,,,,,,,,
,,,,,,00085,2023-10-29_16h52.21.564,vbt_B1_day2,2022.2.4,Win32,59.76571838,,,,,,,-0.1025,-0.167,1,0,0,0.6244,0,4,4,13,1,n,images/br_n.png,images/cb_n.png,,,,,,,,,,,,,,,,,,,,,,,,,,,,,,,,,,,,,,,,,,,,,,,
,,,,,,00085,2023-10-29_16h52.21.564,vbt_B1_day2,2022.2.4,Win32,59.76571838,,,,,,,-0.1025,-0.2135,1,0,0,0.2388,0,5,5,23,1,x,images/br_x.png,images/cb_x.png,,,,,,,,,,,,,,,,,,,,,,,,,,,,,,,,,,,,,,,,,,,,,,,
,,,,,,00085,2023-10-29_16h52.21.564,vbt_B1_day2,2022.2.4,Win32,59.76571838,,,,,,,-0.124,-0.2075,1,0,0,0.4435,0,6,6,9,1,j,images/br_j.png,images/cb_j.png,,,,,,,,,,,,,,,,,,,,,,,,,,,,,,,,,,,,,,,,,,,,,,,
,,,,,,00085,2023-10-29_16h52.21.564,vbt_B1_day2,2022.2.4,Win32,59.76571838,,,,,,,-0.1035,-0.197,1,0,0,0.2004,0,7,7,3,1,d,images/br_d.png,images/cb_d.png,,,,,,,,,,,,,,,,,,,,,,,,,,,,,,,,,,,,,,,,,,,,,,,
,,,,,,00085,2023-10-29_16h52.21.564,vbt_B1_day2,2022.2.4,Win32,59.76571838,,,,,,,-0.1035,-0.197,1,0,0,0.2601,0,8,8,0,1,a,images/br_a.png,images/cb_a.png,,,,,,,,,,,,,,,,,,,,,,,,,,,,,,,,,,,,,,,,,,,,,,,
,,,,,,00085,2023-10-29_16h52.21.564,vbt_B1_day2,2022.2.4,Win32,59.76571838,,,,,,,-0.1035,-0.197,1,0,0,0.4834,0,9,9,12,1,m,images/br_m.png,images/cb_m.png,,,,,,,,,,,,,,,,,,,,,,,,,,,,,,,,,,,,,,,,,,,,,,,
,,,,,,00085,2023-10-29_16h52.21.564,vbt_B1_day2,2022.2.4,Win32,59.76571838,,,,,,,-0.1035,-0.197,1,0,0,4.2999,0,10,10,24,1,y,images/br_y.png,images/cb_y.png,,,,,,,,,,,,,,,,,,,,,,,,,,,,,,,,,,,,,,,,,,,,,,,
,,,,,,00085,2023-10-29_16h52.21.564,vbt_B1_day2,2022.2.4,Win32,59.76571838,,,,,,,-0.1035,-0.197,1,0,0,0.3249,0,11,11,2,1,c,images/br_c.png,images/cb_c.png,,,,,,,,,,,,,,,,,,,,,,,,,,,,,,,,,,,,,,,,,,,,,,,
,,,,,,00085,2023-10-29_16h52.21.564,vbt_B1_day2,2022.2.4,Win32,59.76571838,,,,,,,-0.1035,-0.197,1,0,0,0.6389,0,12,12,16,1,q,images/br_q.png,images/cb_q.png,,,,,,,,,,,,,,,,,,,,,,,,,,,,,,,,,,,,,,,,,,,,,,,
,,,,,,00085,2023-10-29_16h52.21.564,vbt_B1_day2,2022.2.4,Win32,59.76571838,,,,,,,-0.1035,-0.197,1,0,0,32.0838,0,13,13,22,1,w,images/br_w.png,images/cb_w.png,,,,,,,,,,,,,,,,,,,,,,,,,,,,,,,,,,,,,,,,,,,,,,,
,,,,,,00085,2023-10-29_16h52.21.564,vbt_B1_day2,2022.2.4,Win32,59.76571838,,,,,,,-0.1365,-0.1675,1,0,0,0.6001,0,14,14,7,1,h,images/br_h.png,images/cb_h.png,,,,,,,,,,,,,,,,,,,,,,,,,,,,,,,,,,,,,,,,,,,,,,,
,,,,,,00085,2023-10-29_16h52.21.564,vbt_B1_day2,2022.2.4,Win32,59.76571838,,,,,,,-0.0585,-0.171,1,0,0,0.8973,0,15,15,25,1,z,images/br_z.png,images/cb_z.png,,,,,,,,,,,,,,,,,,,,,,,,,,,,,,,,,,,,,,,,,,,,,,,
,,,,,,00085,2023-10-29_16h52.21.564,vbt_B1_day2,2022.2.4,Win32,59.76571838,,,,,,,-0.162,-0.1195,1,0,0,0.0312,0,16,16,17,1,r,images/br_r.png,images/cb_r.png,,,,,,,,,,,,,,,,,,,,,,,,,,,,,,,,,,,,,,,,,,,,,,,
,,,,,,00085,2023-10-29_16h52.21.564,vbt_B1_day2,2022.2.4,Win32,59.76571838,,,,,,,-0.1365,-0.131,1,0,0,1.9677,0,17,17,15,1,p,images/br_p.png,images/cb_p.png,,,,,,,,,,,,,,,,,,,,,,,,,,,,,,,,,,,,,,,,,,,,,,,
,,,,,,00085,2023-10-29_16h52.21.564,vbt_B1_day2,2022.2.4,Win32,59.76571838,,,,,,,-0.136,-0.1535,1,0,0,0.7501,0,18,18,14,1,o,images/br_o.png,images/cb_o.png,,,,,,,,,,,,,,,,,,,,,,,,,,,,,,,,,,,,,,,,,,,,,,,
,,,,,,00085,2023-10-29_16h52.21.564,vbt_B1_day2,2022.2.4,Win32,59.76571838,,,,,,,-0.0555,-0.147,1,0,0,0.1365,0,19,19,4,1,e,images/br_e.png,images/cb_e.png,,,,,,,,,,,,,,,,,,,,,,,,,,,,,,,,,,,,,,,,,,,,,,,
,,,,,,00085,2023-10-29_16h52.21.564,vbt_B1_day2,2022.2.4,Win32,59.76571838,,,,,,,-0.0825,-0.14,1,0,0,0.0168,0,20,20,19,1,t,images/br_t.png,images/cb_t.png,,,,,,,,,,,,,,,,,,,,,,,,,,,,,,,,,,,,,,,,,,,,,,,
,,,,,,00085,2023-10-29_16h52.21.564,vbt_B1_day2,2022.2.4,Win32,59.76571838,,,,,,,-0.1265,-0.158,1,0,0,0.0634,0,21,21,6,1,g,images/br_g.png,images/cb_g.png,,,,,,,,,,,,,,,,,,,,,,,,,,,,,,,,,,,,,,,,,,,,,,,
,,,,,,00085,2023-10-29_16h52.21.564,vbt_B1_day2,2022.2.4,Win32,59.76571838,,,,,,,-0.069,-0.145,1,0,0,0.5132,0,22,22,1,1,b,images/br_b.png,images/cb_b.png,,,,,,,,,,,,,,,,,,,,,,,,,,,,,,,,,,,,,,,,,,,,,,,
,,,,,,00085,2023-10-29_16h52.21.564,vbt_B1_day2,2022.2.4,Win32,59.76571838,,,,,,,-0.069,-0.145,1,0,0,0.1331,0,23,23,20,1,u,images/br_u.png,images/cb_u.png,,,,,,,,,,,,,,,,,,,,,,,,,,,,,,,,,,,,,,,,,,,,,,,
,,,,,,00085,2023-10-29_16h52.21.564,vbt_B1_day2,2022.2.4,Win32,59.76571838,,,,,,,-0.069,-0.145,1,0,0,4.2339,0,24,24,10,1,k,images/br_k.png,images/cb_k.png,,,,,,,,,,,,,,,,,,,,,,,,,,,,,,,,,,,,,,,,,,,,,,,
,,,,,,00085,2023-10-29_16h52.21.564,vbt_B1_day2,2022.2.4,Win32,59.76571838,,,,,,,-0.1375,-0.162,1,0,0,0.621,0,25,25,8,1,i,images/br_i.png,images/cb_i.png,,,,,,,,,,,,,,,,,,,,,,,,,,,,,,,,,,,,,,,,,,,,,,,
,,,,,,00085,2023-10-29_16h52.21.564,vbt_B1_day2,2022.2.4,Win32,59.76571838,,,,,,,,,,,,,,,,,,,,,-0.1375,-0.162,1,0,0,46.5419,,,,,,,,,,,,,,,,,,,,,,,,,,,,,,,,,,,,,,,,,
,,,,,,00085,2023-10-29_16h52.21.564,vbt_B1_day2,2022.2.4,Win32,59.76571838,,,,,,,,,,,,,,,,,,,,,,,,,,,down,0,9.6067,,-0.1375,-0.162,1,0,0,1.2575,0,0,0,78,1,leren,images/br_leren.png,images/cb_leren.png,0,,,,,,,,,,,,,,,,,,,,,,
,,,,,,00085,2023-10-29_16h52.21.564,vbt_B1_day2,2022.2.4,Win32,59.76571838,,,,,,,,,,,,,,,,,,,,,,,,,,,down,0,13.919,,-0.1375,-0.162,1,0,0,1.7668,0,1,1,5,1,blad,images/br_blad.png,images/cb_blad.png,0,,,,,,,,,,,,,,,,,,,,,,
,,,,,,00085,2023-10-29_16h52.21.564,vbt_B1_day2,2022.2.4,Win32,59.76571838,,,,,,,,,,,,,,,,,,,,,,,,,,,down,0,11.2518,,-0.1375,-0.162,1,0,0,3.1166,0,2,2,70,1,ijdel,images/br_ijdel.png,images/cb_ijdel.png,0,,,,,,,,,,,,,,,,,,,,,,
,,,,,,00085,2023-10-29_16h52.21.564,vbt_B1_day2,2022.2.4,Win32,59.76571838,,,,,,,,,,,,,,,,,,,,,,,,,,,down,0,10.3347,,-0.1375,-0.162,1,0,0,2.6867,0,3,3,162,1,uitdelen,images/br_uitdelen.png,images/cb_uitdelen.png,0,,,,,,,,,,,,,,,,,,,,,,
,,,,,,00085,2023-10-29_16h52.21.564,vbt_B1_day2,2022.2.4,Win32,59.76571838,,,,,,,,,,,,,,,,,,,,,,,,,,,down,0,19.9814,,-0.1375,-0.162,1,0,0,1.8395,0,4,4,97,1,loyaal,images/br_loyaal.png,images/cb_loyaal.png,1,loyaal,,,,,,,,,,,,,,,,,,,,,
,,,,,,00085,2023-10-29_16h52.21.564,vbt_B1_day2,2022.2.4,Win32,59.76571838,,,,,,,,,,,,,,,,,,,,,,,,,,,down,0,8.3841,,-0.1375,-0.162,1,0,0,2.0502,0,5,5,45,1,piste,images/br_piste.png,images/cb_piste.png,0,,,,,,,,,,,,,,,,,,,,,,
,,,,,,00085,2023-10-29_16h52.21.564,vbt_B1_day2,2022.2.4,Win32,59.76571838,,,,,,,,,,,,,,,,,,,,,,,,,,,down,0,37.8847,,-0.1375,-0.162,1,0,0,3.0358,0,6,6,185,1,mijnheer,images/br_mijnheer.png,images/cb_mijnheer.png,0,,,,,,,,,,,,,,,,,,,,,,
,,,,,,00085,2023-10-29_16h52.21.564,vbt_B1_day2,2022.2.4,Win32,59.76571838,,,,,,,,,,,,,,,,,,,,,,,,,,,down,0,8.0688,,-0.1375,-0.162,1,0,0,1.25,0,7,7,85,1,heilig,images/br_heilig.png,images/cb_heilig.png,0,,,,,,,,,,,,,,,,,,,,,,
,,,,,,00085,2023-10-29_16h52.21.564,vbt_B1_day2,2022.2.4,Win32,59.76571838,,,,,,,,,,,,,,,,,,,,,,,,,,,down,0,33.3353,,-0.1375,-0.162,1,0,0,1.4161,0,8,8,152,1,afnemen,images/br_afnemen.png,images/cb_afnemen.png,0,,,,,,,,,,,,,,,,,,,,,,
,,,,,,00085,2023-10-29_16h52.21.564,vbt_B1_day2,2022.2.4,Win32,59.76571838,,,,,,,,,,,,,,,,,,,,,,,,,,,down,0,4.6351,,-0.1375,-0.162,1,0,0,8.3997,0,9,9,13,1,kaal,images/br_kaal.png,images/cb_kaal.png,0,,,,,,,,,,,,,,,,,,,,,,
,,,,,,00085,2023-10-29_16h52.21.564,vbt_B1_day2,2022.2.4,Win32,59.76571838,,,,,,,,,,,,,,,,,,,,,,,,,,,down,0,12.0515,,-0.1375,-0.162,1,0,0,1.8663,0,10,10,80,1,kanjer,images/br_kanjer.png,images/cb_kanjer.png,0,,,,,,,,,,,,,,,,,,,,,,
,,,,,,00085,2023-10-29_16h52.21.564,vbt_B1_day2,2022.2.4,Win32,59.76571838,,,,,,,,,,,,,,,,,,,,,,,,,,,down,0,2.3512,,-0.1375,-0.162,1,0,0,1.3338,0,11,11,26,1,leuk,images/br_leuk.png,images/cb_leuk.png,0,,,,,,,,,,,,,,,,,,,,,,
,,,,,,00085,2023-10-29_16h52.21.564,vbt_B1_day2,2022.2.4,Win32,59.76571838,,,,,,,,,,,,,,,,,,,,,,,,,,,down,0,12.9412,,-0.1375,-0.162,1,0,0,4.3415,0,12,12,30,1,uien,images/br_uien.png,images/cb_uien.png,0,,,,,,,,,,,,,,,,,,,,,,
,,,,,,00085,2023-10-29_16h52.21.564,vbt_B1_day2,2022.2.4,Win32,59.76571838,,,,,,,,,,,,,,,,,,,,,,,,,,,down,0,14.9181,,-0.1375,-0.162,1,0,0,0.8495,0,13,13,120,1,klimmen,images/br_klimmen.png,images/cb_klimmen.png,0,,,,,,,,,,,,,,,,,,,,,,
,,,,,,00085,2023-10-29_16h52.21.564,vbt_B1_day2,2022.2.4,Win32,59.76571838,,,,,,,,,,,,,,,,,,,,,,,,,,,down,0,8.3344,,-0.1375,-0.162,1,0,0,1.6376,0,14,14,95,1,vreten,images/br_vreten.png,images/cb_vreten.png,0,,,,,,,,,,,,,,,,,,,,,,
,,,,,,00085,2023-10-29_16h52.21.564,vbt_B1_day2,2022.2.4,Win32,59.76571838,,,,,,,,,,,,,,,,,,,,,,,,,,,down,0,4.7848,,-0.1375,-0.162,1,0,0,0.8334,0,15,15,186,1,voorraad,images/br_voorraad.png,images/cb_voorraad.png,0,,,,,,,,,,,,,,,,,,,,,,
,,,,,,00085,2023-10-29_16h52.21.564,vbt_B1_day2,2022.2.4,Win32,59.76571838,,,,,,,,,,,,,,,,,,,,,,,,,,,down,0,11.8844,,-0.1375,-0.162,1,0,0,4.067,0,16,16,44,1,flits,images/br_flits.png,images/cb_flits.png,0,,,,,,,,,,,,,,,,,,,,,,
,,,,,,00085,2023-10-29_16h52.21.564,vbt_B1_day2,2022.2.4,Win32,59.76571838,,,,,,,,,,,,,,,,,,,,,,,,,,,down,0,3.5999,,-0.1375,-0.162,1,0,0,0.7504,0,17,17,38,1,baai,images/br_baai.png,images/cb_baai.png,0,,,,,,,,,,,,,,,,,,,,,,
,,,,,,00085,2023-10-29_16h52.21.564,vbt_B1_day2,2022.2.4,Win32,59.76571838,,,,,,,,,,,,,,,,,,,,,,,,,,,down,0,3.9519,,-0.1375,-0.162,1,0,0,0.9876,0,18,18,112,1,lukken,images/br_lukken.png,images/cb_lukken.png,0,,,,,,,,,,,,,,,,,,,,,,
,,,,,,00085,2023-10-29_16h52.21.564,vbt_B1_day2,2022.2.4,Win32,59.76571838,,,,,,,,,,,,,,,,,,,,,,,,,,,down,0,13.6907,,-0.1375,-0.162,1,0,0,2.0829,0,19,19,177,1,maaltijd,images/br_maaltijd.png,images/cb_maaltijd.png,1,maaltijd,,,,,,,,,,,,,,,,,,,,,
,,,,,,00085,2023-10-29_16h52.21.564,vbt_B1_day2,2022.2.4,Win32,59.76571838,,,,,,,,,,,,,,,,,,,,,,,,,,,down,0,7.3486,,-0.1375,-0.162,1,0,0,3.7656,0,20,20,16,1,ziek,images/br_ziek.png,images/cb_ziek.png,1,zeik,,,,,,,,,,,,,,,,,,,,,
,,,,,,00085,2023-10-29_16h52.21.564,vbt_B1_day2,2022.2.4,Win32,59.76571838,,,,,,,,,,,,,,,,,,,,,,,,,,,down,0,1.5021,,-0.1375,-0.162,1,0,0,0.6829,0,21,21,1,1,zaal,images/br_zaal.png,images/cb_zaal.png,0,,,,,,,,,,,,,,,,,,,,,,
,,,,,,00085,2023-10-29_16h52.21.564,vbt_B1_day2,2022.2.4,Win32,59.76571838,,,,,,,,,,,,,,,,,,,,,,,,,,,down,0,8.1909,,-0.1375,-0.162,1,0,0,3.3664,0,22,22,163,1,schuilen,images/br_schuilen.png,images/cb_schuilen.png,0,,,,,,,,,,,,,,,,,,,,,,
,,,,,,00085,2023-10-29_16h52.21.564,vbt_B1_day2,2022.2.4,Win32,59.76571838,,,,,,,,,,,,,,,,,,,,,,,,,,,down,0,3.5009,,-0.1375,-0.162,1,0,0,1.1973,0,23,23,10,1,leek,images/br_leek.png,images/cb_leek.png,0,,,,,,,,,,,,,,,,,,,,,,
,,,,,,00085,2023-10-29_16h52.21.564,vbt_B1_day2,2022.2.4,Win32,59.76571838,,,,,,,,,,,,,,,,,,,,,,,,,,,down,0,3.251,,-0.1375,-0.162,1,0,0,0.9003,0,24,24,66,1,lever,images/br_lever.png,images/cb_lever.png,0,,,,,,,,,,,,,,,,,,,,,,
,,,,,,00085,2023-10-29_16h52.21.564,vbt_B1_day2,2022.2.4,Win32,59.76571838,,,,,,,,,,,,,,,,,,,,,,,,,,,down,0,7.4849,,-0.1375,-0.162,1,0,0,0.9002,0,25,25,40,1,schep,images/br_schep.png,images/cb_schep.png,0,,,,,,,,,,,,,,,,,,,,,,
,,,,,,00085,2023-10-29_16h52.21.564,vbt_B1_day2,2022.2.4,Win32,59.76571838,,,,,,,,,,,,,,,,,,,,,,,,,,,down,0,5.9847,,-0.1375,-0.162,1,0,0,0.4971,0,26,26,76,1,afval,images/br_afval.png,images/cb_afval.png,0,,,,,,,,,,,,,,,,,,,,,,
,,,,,,00085,2023-10-29_16h52.21.564,vbt_B1_day2,2022.2.4,Win32,59.76571838,,,,,,,,,,,,,,,,,,,,,,,,,,,down,0,5.5344,,-0.1375,-0.162,1,0,0,0.6499,0,27,27,103,1,joggen,images/br_joggen.png,images/cb_joggen.png,0,,,,,,,,,,,,,,,,,,,,,,
,,,,,,00085,2023-10-29_16h52.21.564,vbt_B1_day2,2022.2.4,Win32,59.76571838,,,,,,,,,,,,,,,,,,,,,,,,,,,down,0,34.7019,,-0.1375,-0.162,1,0,0,0.9076,0,28,28,164,1,anarchie,images/br_anarchie.png,images/cb_anarchie.png,0,,,,,,,,,,,,,,,,,,,,,,
,,,,,,00085,2023-10-29_16h52.21.564,vbt_B1_day2,2022.2.4,Win32,59.76571838,,,,,,,,,,,,,,,,,,,,,,,,,,,down,0,10.9514,,-0.1375,-0.162,1,0,0,1.3332,0,29,29,61,1,groen,images/br_groen.png,images/cb_groen.png,0,,,,,,,,,,,,,,,,,,,,,,
,,,,,,00085,2023-10-29_16h52.21.564,vbt_B1_day2,2022.2.4,Win32,59.76571838,,,,,,,,,,,,,,,,,,,,,,,,,,,down,0,10.0683,,-0.1375,-0.162,1,0,0,0.7835,0,30,30,154,1,aflopen,images/br_aflopen.png,images/cb_aflopen.png,0,,,,,,,,,,,,,,,,,,,,,,
,,,,,,00085,2023-10-29_16h52.21.564,vbt_B1_day2,2022.2.4,Win32,59.76571838,,,,,,,,,,,,,,,,,,,,,,,,,,,down,0,2.1842,,-0.1375,-0.162,1,0,0,0.6866,0,31,31,49,1,laken,images/br_laken.png,images/cb_laken.png,0,,,,,,,,,,,,,,,,,,,,,,
,,,,,,00085,2023-10-29_16h52.21.564,vbt_B1_day2,2022.2.4,Win32,59.76571838,,,,,,,,,,,,,,,,,,,,,,,,,,,down,0,8.2379,,-0.1375,-0.162,1,0,0,0.6161,0,32,32,116,1,besmet,images/br_besmet.png,images/cb_besmet.png,0,,,,,,,,,,,,,,,,,,,,,,
,,,,,,00085,2023-10-29_16h52.21.564,vbt_B1_day2,2022.2.4,Win32,59.76571838,,,,,,,,,,,,,,,,,,,,,,,,,,,down,0,12.4509,,-0.1375,-0.162,1,0,0,1.1002,0,33,33,137,1,trekker,images/br_trekker.png,images/cb_trekker.png,1,trekker,,,,,,,,,,,,,,,,,,,,,
,,,,,,00085,2023-10-29_16h52.21.564,vbt_B1_day2,2022.2.4,Win32,59.76571838,,,,,,,,,,,,,,,,,,,,,,,,,,,down,0,6.9348,,-0.1375,-0.162,1,0,0,0.4829,0,34,34,51,1,samen,images/br_samen.png,images/cb_samen.png,0,,,,,,,,,,,,,,,,,,,,,,
,,,,,,00085,2023-10-29_16h52.21.564,vbt_B1_day2,2022.2.4,Win32,59.76571838,,,,,,,,,,,,,,,,,,,,,,,,,,,down,0,9.2682,,-0.1375,-0.162,1,0,0,0.6497,0,35,35,133,1,seizoen,images/br_seizoen.png,images/cb_seizoen.png,0,,,,,,,,,,,,,,,,,,,,,,
,,,,,,00085,2023-10-29_16h52.21.564,vbt_B1_day2,2022.2.4,Win32,59.76571838,,,,,,,,,,,,,,,,,,,,,,,,,,,down,0,5.4009,,-0.1375,-0.162,1,0,0,0.5825,0,36,36,199,1,beseffen,images/br_beseffen.png,images/cb_beseffen.png,0,,,,,,,,,,,,,,,,,,,,,,
,,,,,,00085,2023-10-29_16h52.21.564,vbt_B1_day2,2022.2.4,Win32,59.76571838,,,,,,,,,,,,,,,,,,,,,,,,,,,down,0,13.3013,,-0.1375,-0.162,1,0,0,1.0666,0,37,37,130,1,keihard,images/br_keihard.png,images/cb_keihard.png,0,,,,,,,,,,,,,,,,,,,,,,
,,,,,,00085,2023-10-29_16h52.21.564,vbt_B1_day2,2022.2.4,Win32,59.76571838,,,,,,,,,,,,,,,,,,,,,,,,,,,down,0,6.0846,,-0.1375,-0.162,1,0,0,0.6473,0,38,38,190,1,goedkoop,images/br_goedkoop.png,images/cb_goedkoop.png,0,,,,,,,,,,,,,,,,,,,,,,
,,,,,,00085,2023-10-29_16h52.21.564,vbt_B1_day2,2022.2.4,Win32,59.76571838,,,,,,,,,,,,,,,,,,,,,,,,,,,down,0,2.218,,-0.1375,-0.162,1,0,0,0.6665,0,39,39,87,1,toeval,images/br_toeval.png,images/cb_toeval.png,0,,,,,,,,,,,,,,,,,,,,,,
,,,,,,00085,2023-10-29_16h52.21.564,vbt_B1_day2,2022.2.4,Win32,59.76571838,,,,,,,,,,,,,,,,,,,,,,,,,,,down,0,8.0845,,-0.1375,-0.162,1,0,0,0.5497,0,40,40,72,1,strak,images/br_strak.png,images/cb_strak.png,0,,,,,,,,,,,,,,,,,,,,,,
,,,,,,00085,2023-10-29_16h52.21.564,vbt_B1_day2,2022.2.4,Win32,59.76571838,,,,,,,,,,,,,,,,,,,,,,,,,,,down,0,6.7512,,-0.1375,-0.162,1,0,0,0.5831,0,41,41,127,1,doodmoe,images/br_doodmoe.png,images/cb_doodmoe.png,0,,,,,,,,,,,,,,,,,,,,,,
,,,,,,00085,2023-10-29_16h52.21.564,vbt_B1_day2,2022.2.4,Win32,59.76571838,,,,,,,,,,,,,,,,,,,,,,,,,,,down,0,5.2702,,-0.1375,-0.162,1,0,0,0.6,0,42,42,148,1,smullen,images/br_smullen.png,images/cb_smullen.png,0,,,,,,,,,,,,,,,,,,,,,,
,,,,,,00085,2023-10-29_16h52.21.564,vbt_B1_day2,2022.2.4,Win32,59.76571838,,,,,,,,,,,,,,,,,,,,,,,,,,,down,0,1.101,,-0.1375,-0.162,1,0,0,0.4997,0,43,43,0,1,slak,images/br_slak.png,images/cb_slak.png,0,,,,,,,,,,,,,,,,,,,,,,
,,,,,,00085,2023-10-29_16h52.21.564,vbt_B1_day2,2022.2.4,Win32,59.76571838,,,,,,,,,,,,,,,,,,,,,,,,,,,down,0,9.7508,,-0.1375,-0.162,1,0,0,0.5405,0,44,44,142,1,snuiven,images/br_snuiven.png,images/cb_snuiven.png,0,,,,,,,,,,,,,,,,,,,,,,
,,,,,,00085,2023-10-29_16h52.21.564,vbt_B1_day2,2022.2.4,Win32,59.76571838,,,,,,,,,,,,,,,,,,,,,,,,,,,down,0,5.3239,,-0.1375,-0.162,1,0,0,0.897,0,45,45,19,1,geit,images/br_geit.png,images/cb_geit.png,1,geit,,,,,,,,,,,,,,,,,,,,,
,,,,,,00085,2023-10-29_16h52.21.564,vbt_B1_day2,2022.2.4,Win32,59.76571838,,,,,,,,,,,,,,,,,,,,,,,,,,,down,0,10.7465,,-0.1375,-0.162,1,0,0,0.5498,0,46,46,146,1,opkomen,images/br_opkomen.png,images/cb_opkomen.png,0,,,,,,,,,,,,,,,,,,,,,,
,,,,,,00085,2023-10-29_16h52.21.564,vbt_B1_day2,2022.2.4,Win32,59.76571838,,,,,,,,,,,,,,,,,,,,,,,,,,,down,0,8.2325,,-0.1375,-0.162,1,0,0,1.1274,0,47,47,99,1,koffie,images/br_koffie.png,images/cb_koffie.png,1,koffie,,,,,,,,,,,,,,,,,,,,,
,,,,,,00085,2023-10-29_16h52.21.564,vbt_B1_day2,2022.2.4,Win32,59.76571838,,,,,,,,,,,,,,,,,,,,,,,,,,,down,0,4.7344,,-0.1375,-0.162,1,0,0,0.5136,0,48,48,52,1,wagon,images/br_wagon.png,images/cb_wagon.png,0,,,,,,,,,,,,,,,,,,,,,,
,,,,,,00085,2023-10-29_16h52.21.564,vbt_B1_day2,2022.2.4,Win32,59.76571838,,,,,,,,,,,,,,,,,,,,,,,,,,,down,0,7.0678,,-0.1375,-0.162,1,0,0,0.6136,0,49,49,108,1,excuus,images/br_excuus.png,images/cb_excuus.png,0,,,,,,,,,,,,,,,,,,,,,,
,,,,,,00085,2023-10-29_16h52.21.564,vbt_B1_day2,2022.2.4,Win32,59.76571838,,,,,,,,,,,,,,,,,,,,,,,,,,,down,0,2.168,,-0.1375,-0.162,1,0,0,0.524,0,50,50,102,1,legaal,images/br_legaal.png,images/cb_legaal.png,0,,,,,,,,,,,,,,,,,,,,,,
,,,,,,00085,2023-10-29_16h52.21.564,vbt_B1_day2,2022.2.4,Win32,59.76571838,,,,,,,,,,,,,,,,,,,,,,,,,,,down,0,2.1177,,-0.1375,-0.162,1,0,0,0.4412,0,51,51,31,1,poes,images/br_poes.png,images/cb_poes.png,0,,,,,,,,,,,,,,,,,,,,,,
,,,,,,00085,2023-10-29_16h52.21.564,vbt_B1_day2,2022.2.4,Win32,59.76571838,,,,,,,,,,,,,,,,,,,,,,,,,,,down,0,4.018,,-0.1375,-0.162,1,0,0,0.6164,0,52,52,24,1,jurk,images/br_jurk.png,images/cb_jurk.png,0,,,,,,,,,,,,,,,,,,,,,,
,,,,,,00085,2023-10-29_16h52.21.564,vbt_B1_day2,2022.2.4,Win32,59.76571838,,,,,,,,,,,,,,,,,,,,,,,,,,,down,0,9.068,,-0.1375,-0.162,1,0,0,0.6636,0,53,53,161,1,attentie,images/br_attentie.png,images/cb_attentie.png,0,,,,,,,,,,,,,,,,,,,,,,
,,,,,,00085,2023-10-29_16h52.21.564,vbt_B1_day2,2022.2.4,Win32,59.76571838,,,,,,,,,,,,,,,,,,,,,,,,,,,down,0,17.351,,-0.1375,-0.162,1,0,0,3.0001,0,54,54,83,1,mening,images/br_mening.png,images/cb_mening.png,0,,,,,,,,,,,,,,,,,,,,,,
,,,,,,00085,2023-10-29_16h52.21.564,vbt_B1_day2,2022.2.4,Win32,59.76571838,,,,,,,,,,,,,,,,,,,,,,,,,,,down,0,3.6347,,-0.1375,-0.162,1,0,0,0.6171,0,55,55,68,1,schat,images/br_schat.png,images/cb_schat.png,0,,,,,,,,,,,,,,,,,,,,,,
,,,,,,00085,2023-10-29_16h52.21.564,vbt_B1_day2,2022.2.4,Win32,59.76571838,,,,,,,,,,,,,,,,,,,,,,,,,,,down,0,7.6076,,-0.1375,-0.162,1,0,0,0.4571,0,56,56,129,1,verhaal,images/br_verhaal.png,images/cb_verhaal.png,0,,,,,,,,,,,,,,,,,,,,,,
,,,,,,00085,2023-10-29_16h52.21.564,vbt_B1_day2,2022.2.4,Win32,59.76571838,,,,,,,,,,,,,,,,,,,,,,,,,,,down,0,0.188,,-0.1375,-0.162,1,0,0,0.5459,0,57,57,39,1,laag,images/br_laag.png,images/cb_laag.png,0,,,,,,,,,,,,,,,,,,,,,,
,,,,,,00085,2023-10-29_16h52.21.564,vbt_B1_day2,2022.2.4,Win32,59.76571838,,,,,,,,,,,,,,,,,,,,,,,,,,,down,0,6.4295,,-0.1375,-0.162,1,0,0,0.5665,0,58,58,65,1,parel,images/br_parel.png,images/cb_parel.png,0,,,,,,,,,,,,,,,,,,,,,,
,,,,,,00085,2023-10-29_16h52.21.564,vbt_B1_day2,2022.2.4,Win32,59.76571838,,,,,,,,,,,,,,,,,,,,,,,,,,,down,0,12.2691,,-0.1375,-0.162,1,0,0,2.9158,0,59,59,166,1,strikken,images/br_strikken.png,images/cb_strikken.png,0,,,,,,,,,,,,,,,,,,,,,,
,,,,,,00085,2023-10-29_16h52.21.564,vbt_B1_day2,2022.2.4,Win32,59.76571838,,,,,,,,,,,,,,,,,,,,,,,,,,,down,0,6.3847,,-0.1375,-0.162,1,0,0,0.53,0,60,60,124,1,bloeien,images/br_bloeien.png,images/cb_bloeien.png,0,,,,,,,,,,,,,,,,,,,,,,
,,,,,,00085,2023-10-29_16h52.21.564,vbt_B1_day2,2022.2.4,Win32,59.76571838,,,,,,,,,,,,,,,,,,,,,,,,,,,down,0,3.1678,,-0.1375,-0.162,1,0,0,0.5963,0,61,61,75,1,snoep,images/br_snoep.png,images/cb_snoep.png,0,,,,,,,,,,,,,,,,,,,,,,
,,,,,,00085,2023-10-29_16h52.21.564,vbt_B1_day2,2022.2.4,Win32,59.76571838,,,,,,,,,,,,,,,,,,,,,,,,,,,down,0,4.701,,-0.1375,-0.162,1,0,0,0.6662,0,62,62,123,1,hiervan,images/br_hiervan.png,images/cb_hiervan.png,0,,,,,,,,,,,,,,,,,,,,,,
,,,,,,00085,2023-10-29_16h52.21.564,vbt_B1_day2,2022.2.4,Win32,59.76571838,,,,,,,,,,,,,,,,,,,,,,,,,,,down,0,11.5095,,-0.1375,-0.162,1,0,0,2.6833,0,63,63,118,1,vinger,images/br_vinger.png,images/cb_vinger.png,0,,,,,,,,,,,,,,,,,,,,,,
,,,,,,00085,2023-10-29_16h52.21.564,vbt_B1_day2,2022.2.4,Win32,59.76571838,,,,,,,,,,,,,,,,,,,,,,,,,,,down,0,3.7547,,-0.1375,-0.162,1,0,0,2.8325,0,64,64,7,1,geld,images/br_geld.png,images/cb_geld.png,0,,,,,,,,,,,,,,,,,,,,,,
,,,,,,00085,2023-10-29_16h52.21.564,vbt_B1_day2,2022.2.4,Win32,59.76571838,,,,,,,,,,,,,,,,,,,,,,,,,,,down,0,6.4842,,-0.1375,-0.162,1,0,0,0.6027,0,65,65,14,1,rijp,images/br_rijp.png,images/cb_rijp.png,0,,,,,,,,,,,,,,,,,,,,,,
,,,,,,00085,2023-10-29_16h52.21.564,vbt_B1_day2,2022.2.4,Win32,59.76571838,,,,,,,,,,,,,,,,,,,,,,,,,,,down,0,11.0182,,-0.1375,-0.162,1,0,0,0.6334,0,66,66,145,1,invloed,images/br_invloed.png,images/cb_invloed.png,0,,,,,,,,,,,,,,,,,,,,,,
,,,,,,00085,2023-10-29_16h52.21.564,vbt_B1_day2,2022.2.4,Win32,59.76571838,,,,,,,,,,,,,,,,,,,,,,,,,,,down,0,0.4681,,-0.1375,-0.162,1,0,0,0.5497,0,67,67,28,1,stal,images/br_stal.png,images/cb_stal.png,0,,,,,,,,,,,,,,,,,,,,,,
,,,,,,00085,2023-10-29_16h52.21.564,vbt_B1_day2,2022.2.4,Win32,59.76571838,,,,,,,,,,,,,,,,,,,,,,,,,,,down,0,5.9177,,-0.1375,-0.162,1,0,0,0.6333,0,68,68,15,1,soda,images/br_soda.png,images/cb_soda.png,0,,,,,,,,,,,,,,,,,,,,,,
,,,,,,00085,2023-10-29_16h52.21.564,vbt_B1_day2,2022.2.4,Win32,59.76571838,,,,,,,,,,,,,,,,,,,,,,,,,,,down,0,8.1182,,-0.1375,-0.162,1,0,0,0.5165,0,69,69,90,1,geluid,images/br_geluid.png,images/cb_geluid.png,0,,,,,,,,,,,,,,,,,,,,,,
,,,,,,00085,2023-10-29_16h52.21.564,vbt_B1_day2,2022.2.4,Win32,59.76571838,,,,,,,,,,,,,,,,,,,,,,,,,,,down,0,5.2846,,-0.1375,-0.162,1,0,0,0.47,0,70,70,11,1,mode,images/br_mode.png,images/cb_mode.png,0,,,,,,,,,,,,,,,,,,,,,,
,,,,,,00085,2023-10-29_16h52.21.564,vbt_B1_day2,2022.2.4,Win32,59.76571838,,,,,,,,,,,,,,,,,,,,,,,,,,,down,0,10.3673,,-0.1375,-0.162,1,0,0,0.9781,0,71,71,173,1,apparaat,images/br_apparaat.png,images/cb_apparaat.png,0,,,,,,,,,,,,,,,,,,,,,,
,,,,,,00085,2023-10-29_16h52.21.564,vbt_B1_day2,2022.2.4,Win32,59.76571838,,,,,,,,,,,,,,,,,,,,,,,,,,,down,0,5.1846,,-0.1375,-0.162,1,0,0,0.5498,0,72,72,106,1,zingen,images/br_zingen.png,images/cb_zingen.png,0,,,,,,,,,,,,,,,,,,,,,,
,,,,,,00085,2023-10-29_16h52.21.564,vbt_B1_day2,2022.2.4,Win32,59.76571838,,,,,,,,,,,,,,,,,,,,,,,,,,,down,0,1.3347,,-0.1375,-0.162,1,0,0,0.5583,0,73,73,53,1,baron,images/br_baron.png,images/cb_baron.png,0,,,,,,,,,,,,,,,,,,,,,,
,,,,,,00085,2023-10-29_16h52.21.564,vbt_B1_day2,2022.2.4,Win32,59.76571838,,,,,,,,,,,,,,,,,,,,,,,,,,,down,0,11.7346,,-0.1375,-0.162,1,0,0,1.1579,0,74,74,105,1,wijlen,images/br_wijlen.png,images/cb_wijlen.png,0,,,,,,,,,,,,,,,,,,,,,,
,,,,,,00085,2023-10-29_16h52.21.564,vbt_B1_day2,2022.2.4,Win32,59.76571838,,,,,,,,,,,,,,,,,,,,,,,,,,,down,0,6.6848,,-0.1375,-0.162,1,0,0,1.7691,0,75,75,172,1,weigeren,images/br_weigeren.png,images/cb_weigeren.png,0,,,,,,,,,,,,,,,,,,,,,,
,,,,,,00085,2023-10-29_16h52.21.564,vbt_B1_day2,2022.2.4,Win32,59.76571838,,,,,,,,,,,,,,,,,,,,,,,,,,,down,0,7.9679,,-0.1375,-0.162,1,0,0,1.3529,0,76,76,170,1,schatten,images/br_schatten.png,images/cb_schatten.png,0,,,,,,,,,,,,,,,,,,,,,,
,,,,,,00085,2023-10-29_16h52.21.564,vbt_B1_day2,2022.2.4,Win32,59.76571838,,,,,,,,,,,,,,,,,,,,,,,,,,,down,0,13.903,,-0.1375,-0.162,1,0,0,12.9007,0,77,77,147,1,komisch,images/br_komisch.png,images/cb_komisch.png,0,,,,,,,,,,,,,,,,,,,,,,
,,,,,,00085,2023-10-29_16h52.21.564,vbt_B1_day2,2022.2.4,Win32,59.76571838,,,,,,,,,,,,,,,,,,,,,,,,,,,down,0,6.5174,,-0.1375,-0.162,1,0,0,0.6333,0,78,78,119,1,liefje,images/br_liefje.png,images/cb_liefje.png,0,,,,,,,,,,,,,,,,,,,,,,
,,,,,,00085,2023-10-29_16h52.21.564,vbt_B1_day2,2022.2.4,Win32,59.76571838,,,,,,,,,,,,,,,,,,,,,,,,,,,down,0,3.4007,,-0.1375,-0.162,1,0,0,0.416,0,79,79,126,1,kasteel,images/br_kasteel.png,images/cb_kasteel.png,0,,,,,,,,,,,,,,,,,,,,,,
,,,,,,00085,2023-10-29_16h52.21.564,vbt_B1_day2,2022.2.4,Win32,59.76571838,,,,,,,,,,,,,,,,,,,,,,,,,,,down,0,3.8869,,-0.1375,-0.162,1,0,0,0.567,0,80,80,20,1,site,images/br_site.png,images/cb_site.png,0,,,,,,,,,,,,,,,,,,,,,,
,,,,,,00085,2023-10-29_16h52.21.564,vbt_B1_day2,2022.2.4,Win32,59.76571838,,,,,,,,,,,,,,,,,,,,,,,,,,,down,0,3.9017,,-0.1375,-0.162,1,0,0,0.5335,0,81,81,181,1,toegeven,images/br_toegeven.png,images/cb_toegeven.png,0,,,,,,,,,,,,,,,,,,,,,,
,,,,,,00085,2023-10-29_16h52.21.564,vbt_B1_day2,2022.2.4,Win32,59.76571838,,,,,,,,,,,,,,,,,,,,,,,,,,,down,0,4.4344,,-0.1375,-0.162,1,0,0,0.7007,0,82,82,93,1,waarop,images/br_waarop.png,images/cb_waarop.png,0,,,,,,,,,,,,,,,,,,,,,,
,,,,,,00085,2023-10-29_16h52.21.564,vbt_B1_day2,2022.2.4,Win32,59.76571838,,,,,,,,,,,,,,,,,,,,,,,,,,,down,0,3.7348,,-0.1375,-0.162,1,0,0,0.4301,0,83,83,23,1,zout,images/br_zout.png,images/cb_zout.png,0,,,,,,,,,,,,,,,,,,,,,,
,,,,,,00085,2023-10-29_16h52.21.564,vbt_B1_day2,2022.2.4,Win32,59.76571838,,,,,,,,,,,,,,,,,,,,,,,,,,,down,0,13.6016,,-0.1375,-0.162,1,0,0,0.6002,0,84,84,195,1,middelen,images/br_middelen.png,images/cb_middelen.png,0,,,,,,,,,,,,,,,,,,,,,,
,,,,,,00085,2023-10-29_16h52.21.564,vbt_B1_day2,2022.2.4,Win32,59.76571838,,,,,,,,,,,,,,,,,,,,,,,,,,,down,0,3.7179,,-0.1375,-0.162,1,0,0,0.6166,0,85,85,88,1,boeien,images/br_boeien.png,images/cb_boeien.png,0,,,,,,,,,,,,,,,,,,,,,,
,,,,,,00085,2023-10-29_16h52.21.564,vbt_B1_day2,2022.2.4,Win32,59.76571838,,,,,,,,,,,,,,,,,,,,,,,,,,,down,0,5.9677,,-0.1375,-0.162,1,0,0,0.5524,0,86,86,115,1,kleren,images/br_kleren.png,images/cb_kleren.png,0,,,,,,,,,,,,,,,,,,,,,,
,,,,,,00085,2023-10-29_16h52.21.564,vbt_B1_day2,2022.2.4,Win32,59.76571838,,,,,,,,,,,,,,,,,,,,,,,,,,,down,0,17.6185,,-0.1375,-0.162,1,0,0,1.7833,0,87,87,143,1,hechten,images/br_hechten.png,images/cb_hechten.png,0,,,,,,,,,,,,,,,,,,,,,,
,,,,,,00085,2023-10-29_16h52.21.564,vbt_B1_day2,2022.2.4,Win32,59.76571838,,,,,,,,,,,,,,,,,,,,,,,,,,,down,0,8.0358,,-0.1375,-0.162,1,0,0,0.6003,0,88,88,92,1,geheim,images/br_geheim.png,images/cb_geheim.png,0,,,,,,,,,,,,,,,,,,,,,,
,,,,,,00085,2023-10-29_16h52.21.564,vbt_B1_day2,2022.2.4,Win32,59.76571838,,,,,,,,,,,,,,,,,,,,,,,,,,,down,0,0.6177,,-0.1375,-0.162,1,0,0,0.3833,0,89,89,2,1,jaar,images/br_jaar.png,images/cb_jaar.png,0,,,,,,,,,,,,,,,,,,,,,,
,,,,,,00085,2023-10-29_16h52.21.564,vbt_B1_day2,2022.2.4,Win32,59.76571838,,,,,,,,,,,,,,,,,,,,,,,,,,,down,0,3.1073,,-0.1375,-0.162,1,0,0,0.5135,0,90,90,113,1,koppen,images/br_koppen.png,images/cb_koppen.png,0,,,,,,,,,,,,,,,,,,,,,,
,,,,,,00085,2023-10-29_16h52.21.564,vbt_B1_day2,2022.2.4,Win32,59.76571838,,,,,,,,,,,,,,,,,,,,,,,,,,,down,0,15.3016,,-0.1375,-0.162,1,0,0,0.4641,0,91,91,111,1,ticket,images/br_ticket.png,images/cb_ticket.png,0,,,,,,,,,,,,,,,,,,,,,,
,,,,,,00085,2023-10-29_16h52.21.564,vbt_B1_day2,2022.2.4,Win32,59.76571838,,,,,,,,,,,,,,,,,,,,,,,,,,,down,0,7.054,,-0.1375,-0.162,1,0,0,0.6162,0,92,92,184,1,aandelen,images/br_aandelen.png,images/cb_aandelen.png,0,,,,,,,,,,,,,,,,,,,,,,
,,,,,,00085,2023-10-29_16h52.21.564,vbt_B1_day2,2022.2.4,Win32,59.76571838,,,,,,,,,,,,,,,,,,,,,,,,,,,down,0,6.2798,,-0.1375,-0.162,1,0,0,0.6493,0,93,93,150,1,gegeven,images/br_gegeven.png,images/cb_gegeven.png,0,,,,,,,,,,,,,,,,,,,,,,
,,,,,,00085,2023-10-29_16h52.21.564,vbt_B1_day2,2022.2.4,Win32,59.76571838,,,,,,,,,,,,,,,,,,,,,,,,,,,down,0,9.5513,,-0.1375,-0.162,1,0,0,1.0502,0,94,94,54,1,gebit,images/br_gebit.png,images/cb_gebit.png,0,,,,,,,,,,,,,,,,,,,,,,
,,,,,,00085,2023-10-29_16h52.21.564,vbt_B1_day2,2022.2.4,Win32,59.76571838,,,,,,,,,,,,,,,,,,,,,,,,,,,down,0,9.3663,,-0.1375,-0.162,1,0,0,0.7114,0,95,95,139,1,stiekem,images/br_stiekem.png,images/cb_stiekem.png,1,stiekem,,,,,,,,,,,,,,,,,,,,,
,,,,,,00085,2023-10-29_16h52.21.564,vbt_B1_day2,2022.2.4,Win32,59.76571838,,,,,,,,,,,,,,,,,,,,,,,,,,,down,0,6.717,,-0.1375,-0.162,1,0,0,2.8183,0,96,96,125,1,aanzien,images/br_aanzien.png,images/cb_aanzien.png,0,,,,,,,,,,,,,,,,,,,,,,
,,,,,,00085,2023-10-29_16h52.21.564,vbt_B1_day2,2022.2.4,Win32,59.76571838,,,,,,,,,,,,,,,,,,,,,,,,,,,down,0,11.0006,,-0.1375,-0.162,1,0,0,1.9662,0,97,97,176,1,techniek,images/br_techniek.png,images/cb_techniek.png,1,techniek,,,,,,,,,,,,,,,,,,,,,
,,,,,,00085,2023-10-29_16h52.21.564,vbt_B1_day2,2022.2.4,Win32,59.76571838,,,,,,,,,,,,,,,,,,,,,,,,,,,down,0,0.4679,,-0.1375,-0.162,1,0,0,0.4336,0,98,98,36,1,vuur,images/br_vuur.png,images/cb_vuur.png,0,,,,,,,,,,,,,,,,,,,,,,
,,,,,,00085,2023-10-29_16h52.21.564,vbt_B1_day2,2022.2.4,Win32,59.76571838,,,,,,,,,,,,,,,,,,,,,,,,,,,down,0,4.168,,-0.1375,-0.162,1,0,0,0.5498,0,99,99,3,1,mand,images/br_mand.png,images/cb_mand.png,0,,,,,,,,,,,,,,,,,,,,,,
,,,,,,00085,2023-10-29_16h52.21.564,vbt_B1_day2,2022.2.4,Win32,59.76571838,,,,,,,,,,,,,,,,,,,,,,,,,,,down,0,1.9179,,-0.1375,-0.162,1,0,0,0.6498,0,100,100,71,1,bever,images/br_bever.png,images/cb_bever.png,0,,,,,,,,,,,,,,,,,,,,,,
,,,,,,00085,2023-10-29_16h52.21.564,vbt_B1_day2,2022.2.4,Win32,59.76571838,,,,,,,,,,,,,,,,,,,,,,,,,,,down,0,5.7687,,-0.1375,-0.162,1,0,0,0.5989,0,101,101,59,1,kring,images/br_kring.png,images/cb_kring.png,1,kring,,,,,,,,,,,,,,,,,,,,,
,,,,,,00085,2023-10-29_16h52.21.564,vbt_B1_day2,2022.2.4,Win32,59.76571838,,,,,,,,,,,,,,,,,,,,,,,,,,,down,0,6.4852,,-0.1375,-0.162,1,0,0,0.6252,0,102,102,107,1,maling,images/br_maling.png,images/cb_maling.png,0,,,,,,,,,,,,,,,,,,,,,,
,,,,,,00085,2023-10-29_16h52.21.564,vbt_B1_day2,2022.2.4,Win32,59.76571838,,,,,,,,,,,,,,,,,,,,,,,,,,,down,0,12.4685,,-0.1375,-0.162,1,0,0,0.5991,0,103,103,178,1,huisdier,images/br_huisdier.png,images/cb_huisdier.png,1,huisdier,,,,,,,,,,,,,,,,,,,,,
,,,,,,00085,2023-10-29_16h52.21.564,vbt_B1_day2,2022.2.4,Win32,59.76571838,,,,,,,,,,,,,,,,,,,,,,,,,,,down,0,1.9345,,-0.1375,-0.162,1,0,0,0.3828,0,104,104,33,1,vlek,images/br_vlek.png,images/cb_vlek.png,0,,,,,,,,,,,,,,,,,,,,,,
,,,,,,00085,2023-10-29_16h52.21.564,vbt_B1_day2,2022.2.4,Win32,59.76571838,,,,,,,,,,,,,,,,,,,,,,,,,,,down,0,1.4349,,-0.1375,-0.162,1,0,0,0.4303,0,105,105,55,1,praat,images/br_praat.png,images/cb_praat.png,0,,,,,,,,,,,,,,,,,,,,,,
,,,,,,00085,2023-10-29_16h52.21.564,vbt_B1_day2,2022.2.4,Win32,59.76571838,,,,,,,,,,,,,,,,,,,,,,,,,,,down,0,7.435,,-0.1375,-0.162,1,0,0,0.3997,0,106,106,192,1,schaamte,images/br_schaamte.png,images/cb_schaamte.png,0,,,,,,,,,,,,,,,,,,,,,,
,,,,,,00085,2023-10-29_16h52.21.564,vbt_B1_day2,2022.2.4,Win32,59.76571838,,,,,,,,,,,,,,,,,,,,,,,,,,,down,0,5.2018,,-0.1375,-0.162,1,0,0,0.5998,0,107,107,198,1,bedoelen,images/br_bedoelen.png,images/cb_bedoelen.png,0,,,,,,,,,,,,,,,,,,,,,,
,,,,,,00085,2023-10-29_16h52.21.564,vbt_B1_day2,2022.2.4,Win32,59.76571838,,,,,,,,,,,,,,,,,,,,,,,,,,,down,0,4.5016,,-0.1375,-0.162,1,0,0,0.4968,0,108,108,128,1,prikken,images/br_prikken.png,images/cb_prikken.png,0,,,,,,,,,,,,,,,,,,,,,,
,,,,,,00085,2023-10-29_16h52.21.564,vbt_B1_day2,2022.2.4,Win32,59.76571838,,,,,,,,,,,,,,,,,,,,,,,,,,,down,0,3.4675,,-0.1375,-0.162,1,0,0,0.4462,0,109,109,144,1,eetlust,images/br_eetlust.png,images/cb_eetlust.png,0,,,,,,,,,,,,,,,,,,,,,,
,,,,,,00085,2023-10-29_16h52.21.564,vbt_B1_day2,2022.2.4,Win32,59.76571838,,,,,,,,,,,,,,,,,,,,,,,,,,,down,0,2.6177,,-0.1375,-0.162,1,0,0,0.4485,0,110,110,12,1,kust,images/br_kust.png,images/cb_kust.png,0,,,,,,,,,,,,,,,,,,,,,,
,,,,,,00085,2023-10-29_16h52.21.564,vbt_B1_day2,2022.2.4,Win32,59.76571838,,,,,,,,,,,,,,,,,,,,,,,,,,,down,0,2.5449,,-0.1375,-0.162,1,0,0,0.5915,0,111,111,110,1,zuster,images/br_zuster.png,images/cb_zuster.png,0,,,,,,,,,,,,,,,,,,,,,,
,,,,,,00085,2023-10-29_16h52.21.564,vbt_B1_day2,2022.2.4,Win32,59.76571838,,,,,,,,,,,,,,,,,,,,,,,,,,,down,0,6.15,,-0.1375,-0.162,1,0,0,0.4337,0,112,112,193,1,weeshuis,images/br_weeshuis.png,images/cb_weeshuis.png,0,,,,,,,,,,,,,,,,,,,,,,
,,,,,,00085,2023-10-29_16h52.21.564,vbt_B1_day2,2022.2.4,Win32,59.76571838,,,,,,,,,,,,,,,,,,,,,,,,,,,down,0,4.7351,,-0.1375,-0.162,1,0,0,0.4045,0,113,113,37,1,mijn,images/br_mijn.png,images/cb_mijn.png,0,,,,,,,,,,,,,,,,,,,,,,
,,,,,,00085,2023-10-29_16h52.21.564,vbt_B1_day2,2022.2.4,Win32,59.76571838,,,,,,,,,,,,,,,,,,,,,,,,,,,down,0,2.701,,-0.1375,-0.162,1,0,0,0.5659,0,114,114,132,1,grappen,images/br_grappen.png,images/cb_grappen.png,0,,,,,,,,,,,,,,,,,,,,,,
,,,,,,00085,2023-10-29_16h52.21.564,vbt_B1_day2,2022.2.4,Win32,59.76571838,,,,,,,,,,,,,,,,,,,,,,,,,,,down,0,4.4013,,-0.1375,-0.162,1,0,0,0.4138,0,115,115,74,1,graaf,images/br_graaf.png,images/cb_graaf.png,0,,,,,,,,,,,,,,,,,,,,,,
,,,,,,00085,2023-10-29_16h52.21.564,vbt_B1_day2,2022.2.4,Win32,59.76571838,,,,,,,,,,,,,,,,,,,,,,,,,,,down,0,3.4179,,-0.1375,-0.162,1,0,0,0.386,0,116,116,81,1,dubbel,images/br_dubbel.png,images/cb_dubbel.png,0,,,,,,,,,,,,,,,,,,,,,,
,,,,,,00085,2023-10-29_16h52.21.564,vbt_B1_day2,2022.2.4,Win32,59.76571838,,,,,,,,,,,,,,,,,,,,,,,,,,,down,0,5.9686,,-0.1375,-0.162,1,0,0,0.4665,0,117,117,194,1,driemaal,images/br_driemaal.png,images/cb_driemaal.png,0,,,,,,,,,,,,,,,,,,,,,,
,,,,,,00085,2023-10-29_16h52.21.564,vbt_B1_day2,2022.2.4,Win32,59.76571838,,,,,,,,,,,,,,,,,,,,,,,,,,,down,0,0.2271,,-0.1375,-0.162,1,0,0,0.4301,0,118,118,29,1,baas,images/br_baas.png,images/cb_baas.png,0,,,,,,,,,,,,,,,,,,,,,,
,,,,,,00085,2023-10-29_16h52.21.564,vbt_B1_day2,2022.2.4,Win32,59.76571838,,,,,,,,,,,,,,,,,,,,,,,,,,,down,0,6.618,,-0.1375,-0.162,1,0,0,0.413,0,119,119,91,1,gezond,images/br_gezond.png,images/cb_gezond.png,0,,,,,,,,,,,,,,,,,,,,,,
,,,,,,00085,2023-10-29_16h52.21.564,vbt_B1_day2,2022.2.4,Win32,59.76571838,,,,,,,,,,,,,,,,,,,,,,,,,,,down,0,13.5679,,-0.1375,-0.162,1,0,0,0.3295,0,120,120,67,1,zwart,images/br_zwart.png,images/cb_zwart.png,0,,,,,,,,,,,,,,,,,,,,,,
,,,,,,00085,2023-10-29_16h52.21.564,vbt_B1_day2,2022.2.4,Win32,59.76571838,,,,,,,,,,,,,,,,,,,,,,,,,,,down,0,7.2347,,-0.1375,-0.162,1,0,0,0.4824,0,121,121,187,1,opkijken,images/br_opkijken.png,images/cb_opkijken.png,0,,,,,,,,,,,,,,,,,,,,,,
,,,,,,00085,2023-10-29_16h52.21.564,vbt_B1_day2,2022.2.4,Win32,59.76571838,,,,,,,,,,,,,,,,,,,,,,,,,,,down,0,5.4372,,-0.1375,-0.162,1,0,0,0.533,0,122,122,104,1,zweven,images/br_zweven.png,images/cb_zweven.png,0,,,,,,,,,,,,,,,,,,,,,,
,,,,,,00085,2023-10-29_16h52.21.564,vbt_B1_day2,2022.2.4,Win32,59.76571838,,,,,,,,,,,,,,,,,,,,,,,,,,,down,0,4.1011,,-0.1375,-0.162,1,0,0,0.3803,0,123,123,9,1,hier,images/br_hier.png,images/cb_hier.png,0,,,,,,,,,,,,,,,,,,,,,,
,,,,,,00085,2023-10-29_16h52.21.564,vbt_B1_day2,2022.2.4,Win32,59.76571838,,,,,,,,,,,,,,,,,,,,,,,,,,,down,0,5.0175,,-0.1375,-0.162,1,0,0,0.5004,0,124,124,101,1,staren,images/br_staren.png,images/cb_staren.png,0,,,,,,,,,,,,,,,,,,,,,,
,,,,,,00085,2023-10-29_16h52.21.564,vbt_B1_day2,2022.2.4,Win32,59.76571838,,,,,,,,,,,,,,,,,,,,,,,,,,,down,0,1.3014,,-0.1375,-0.162,1,0,0,0.3865,0,125,125,42,1,bleek,images/br_bleek.png,images/cb_bleek.png,0,,,,,,,,,,,,,,,,,,,,,,
,,,,,,00085,2023-10-29_16h52.21.564,vbt_B1_day2,2022.2.4,Win32,59.76571838,,,,,,,,,,,,,,,,,,,,,,,,,,,down,0,9.3616,,-0.1375,-0.162,1,0,0,0.472,0,126,126,100,1,geduld,images/br_geduld.png,images/cb_geduld.png,0,,,,,,,,,,,,,,,,,,,,,,
,,,,,,00085,2023-10-29_16h52.21.564,vbt_B1_day2,2022.2.4,Win32,59.76571838,,,,,,,,,,,,,,,,,,,,,,,,,,,down,0,1.4177,,-0.1375,-0.162,1,0,0,0.591,0,127,127,109,1,totaal,images/br_totaal.png,images/cb_totaal.png,0,,,,,,,,,,,,,,,,,,,,,,
,,,,,,00085,2023-10-29_16h52.21.564,vbt_B1_day2,2022.2.4,Win32,59.76571838,,,,,,,,,,,,,,,,,,,,,,,,,,,down,0,5.4905,,-0.1375,-0.162,1,0,0,0.4835,0,128,128,151,1,aanzoek,images/br_aanzoek.png,images/cb_aanzoek.png,0,,,,,,,,,,,,,,,,,,,,,,
,,,,,,00085,2023-10-29_16h52.21.564,vbt_B1_day2,2022.2.4,Win32,59.76571838,,,,,,,,,,,,,,,,,,,,,,,,,,,down,0,21.74,,-0.1375,-0.162,1,0,0,0.6668,0,129,129,158,1,innemen,images/br_innemen.png,images/cb_innemen.png,0,,,,,,,,,,,,,,,,,,,,,,
,,,,,,00085,2023-10-29_16h52.21.564,vbt_B1_day2,2022.2.4,Win32,59.76571838,,,,,,,,,,,,,,,,,,,,,,,,,,,down,0,4.9234,,-0.1375,-0.162,1,0,0,0.4426,0,130,130,21,1,mist,images/br_mist.png,images/cb_mist.png,0,,,,,,,,,,,,,,,,,,,,,,
,,,,,,00085,2023-10-29_16h52.21.564,vbt_B1_day2,2022.2.4,Win32,59.76571838,,,,,,,,,,,,,,,,,,,,,,,,,,,down,0,4.1177,,-0.1375,-0.162,1,0,0,0.6997,0,131,131,114,1,vullen,images/br_vullen.png,images/cb_vullen.png,0,,,,,,,,,,,,,,,,,,,,,,
,,,,,,00085,2023-10-29_16h52.21.564,vbt_B1_day2,2022.2.4,Win32,59.76571838,,,,,,,,,,,,,,,,,,,,,,,,,,,down,0,16.0014,,-0.1375,-0.162,1,0,0,2.683,0,132,132,94,1,oceaan,images/br_oceaan.png,images/cb_oceaan.png,0,,,,,,,,,,,,,,,,,,,,,,
,,,,,,00085,2023-10-29_16h52.21.564,vbt_B1_day2,2022.2.4,Win32,59.76571838,,,,,,,,,,,,,,,,,,,,,,,,,,,down,0,5.6347,,-0.1375,-0.162,1,0,0,0.5349,0,133,133,189,1,aanraden,images/br_aanraden.png,images/cb_aanraden.png,0,,,,,,,,,,,,,,,,,,,,,,
,,,,,,00085,2023-10-29_16h52.21.564,vbt_B1_day2,2022.2.4,Win32,59.76571838,,,,,,,,,,,,,,,,,,,,,,,,,,,down,0,0.2737,,-0.1375,-0.162,1,0,0,0.5996,0,134,134,84,1,lokken,images/br_lokken.png,images/cb_lokken.png,0,,,,,,,,,,,,,,,,,,,,,,
,,,,,,00085,2023-10-29_16h52.21.564,vbt_B1_day2,2022.2.4,Win32,59.76571838,,,,,,,,,,,,,,,,,,,,,,,,,,,down,0,0.4512,,-0.1375,-0.162,1,0,0,0.4139,0,135,135,25,1,plek,images/br_plek.png,images/cb_plek.png,0,,,,,,,,,,,,,,,,,,,,,,
,,,,,,00085,2023-10-29_16h52.21.564,vbt_B1_day2,2022.2.4,Win32,59.76571838,,,,,,,,,,,,,,,,,,,,,,,,,,,down,0,3.7073,,-0.1375,-0.162,1,0,0,0.4137,0,136,136,77,1,woede,images/br_woede.png,images/cb_woede.png,0,,,,,,,,,,,,,,,,,,,,,,
,,,,,,00085,2023-10-29_16h52.21.564,vbt_B1_day2,2022.2.4,Win32,59.76571838,,,,,,,,,,,,,,,,,,,,,,,,,,,down,0,1.3026,,-0.1375,-0.162,1,0,0,0.471,0,137,137,34,1,vorm,images/br_vorm.png,images/cb_vorm.png,0,,,,,,,,,,,,,,,,,,,,,,
,,,,,,00085,2023-10-29_16h52.21.564,vbt_B1_day2,2022.2.4,Win32,59.76571838,,,,,,,,,,,,,,,,,,,,,,,,,,,down,0,14.7517,,-0.1375,-0.162,1,0,0,0.6496,0,138,138,159,1,sufferd,images/br_sufferd.png,images/cb_sufferd.png,0,,,,,,,,,,,,,,,,,,,,,,
,,,,,,00085,2023-10-29_16h52.21.564,vbt_B1_day2,2022.2.4,Win32,59.76571838,,,,,,,,,,,,,,,,,,,,,,,,,,,down,0,4.0179,,-0.1375,-0.162,1,0,0,0.396,0,139,139,122,1,waarvan,images/br_waarvan.png,images/cb_waarvan.png,0,,,,,,,,,,,,,,,,,,,,,,
,,,,,,00085,2023-10-29_16h52.21.564,vbt_B1_day2,2022.2.4,Win32,59.76571838,,,,,,,,,,,,,,,,,,,,,,,,,,,down,0,4.641,,-0.1375,-0.162,1,0,0,0.4295,0,140,140,6,1,diep,images/br_diep.png,images/cb_diep.png,0,,,,,,,,,,,,,,,,,,,,,,
,,,,,,00085,2023-10-29_16h52.21.564,vbt_B1_day2,2022.2.4,Win32,59.76571838,,,,,,,,,,,,,,,,,,,,,,,,,,,down,0,3.9013,,-0.1375,-0.162,1,0,0,0.4473,0,141,141,41,1,maken,images/br_maken.png,images/cb_maken.png,0,,,,,,,,,,,,,,,,,,,,,,
,,,,,,00085,2023-10-29_16h52.21.564,vbt_B1_day2,2022.2.4,Win32,59.76571838,,,,,,,,,,,,,,,,,,,,,,,,,,,down,0,5.2501,,-0.1375,-0.162,1,0,0,0.4672,0,142,142,160,1,daarheen,images/br_daarheen.png,images/cb_daarheen.png,0,,,,,,,,,,,,,,,,,,,,,,
,,,,,,00085,2023-10-29_16h52.21.564,vbt_B1_day2,2022.2.4,Win32,59.76571838,,,,,,,,,,,,,,,,,,,,,,,,,,,down,0,5.8877,,-0.1375,-0.162,1,0,0,0.4466,0,143,143,117,1,kennis,images/br_kennis.png,images/cb_kennis.png,0,,,,,,,,,,,,,,,,,,,,,,
,,,,,,00085,2023-10-29_16h52.21.564,vbt_B1_day2,2022.2.4,Win32,59.76571838,,,,,,,,,,,,,,,,,,,,,,,,,,,down,0,3.2567,,-0.1375,-0.162,1,0,0,0.4495,0,144,144,60,1,jasje,images/br_jasje.png,images/cb_jasje.png,0,,,,,,,,,,,,,,,,,,,,,,
,,,,,,00085,2023-10-29_16h52.21.564,vbt_B1_day2,2022.2.4,Win32,59.76571838,,,,,,,,,,,,,,,,,,,,,,,,,,,down,0,2.1516,,-0.1375,-0.162,1,0,0,0.48,0,145,145,62,1,knaap,images/br_knaap.png,images/cb_knaap.png,0,,,,,,,,,,,,,,,,,,,,,,
,,,,,,00085,2023-10-29_16h52.21.564,vbt_B1_day2,2022.2.4,Win32,59.76571838,,,,,,,,,,,,,,,,,,,,,,,,,,,down,0,2.7828,,-0.1375,-0.162,1,0,0,0.9544,0,146,146,57,1,steek,images/br_steek.png,images/cb_steek.png,1,steek,,,,,,,,,,,,,,,,,,,,,
,,,,,,00085,2023-10-29_16h52.21.564,vbt_B1_day2,2022.2.4,Win32,59.76571838,,,,,,,,,,,,,,,,,,,,,,,,,,,down,0,2.3712,,-0.1375,-0.162,1,0,0,0.413,0,147,147,27,1,dans,images/br_dans.png,images/cb_dans.png,0,,,,,,,,,,,,,,,,,,,,,,
,,,,,,00085,2023-10-29_16h52.21.564,vbt_B1_day2,2022.2.4,Win32,59.76571838,,,,,,,,,,,,,,,,,,,,,,,,,,,down,0,8.5671,,-0.1375,-0.162,1,0,0,0.4405,0,148,148,188,1,strekken,images/br_strekken.png,images/cb_strekken.png,0,,,,,,,,,,,,,,,,,,,,,,
,,,,,,00085,2023-10-29_16h52.21.564,vbt_B1_day2,2022.2.4,Win32,59.76571838,,,,,,,,,,,,,,,,,,,,,,,,,,,down,0,3.3846,,-0.1375,-0.162,1,0,0,0.3469,0,149,149,89,1,slapen,images/br_slapen.png,images/cb_slapen.png,0,,,,,,,,,,,,,,,,,,,,,,
,,,,,,00085,2023-10-29_16h52.21.564,vbt_B1_day2,2022.2.4,Win32,59.76571838,,,,,,,,,,,,,,,,,,,,,,,,,,,down,0,8.6355,,-0.1375,-0.162,1,0,0,0.2864,0,150,150,182,1,bijkomen,images/br_bijkomen.png,images/cb_bijkomen.png,0,,,,,,,,,,,,,,,,,,,,,,
,,,,,,00085,2023-10-29_16h52.21.564,vbt_B1_day2,2022.2.4,Win32,59.76571838,,,,,,,,,,,,,,,,,,,,,,,,,,,down,0,1.0348,,-0.1375,-0.162,1,0,0,0.409,0,151,151,17,1,taal,images/br_taal.png,images/cb_taal.png,1,taal,,,,,,,,,,,,,,,,,,,,,
,,,,,,00085,2023-10-29_16h52.21.564,vbt_B1_day2,2022.2.4,Win32,59.76571838,,,,,,,,,,,,,,,,,,,,,,,,,,,down,0,1.0853,,-0.1375,-0.162,1,0,0,0.3419,0,152,152,73,1,volop,images/br_volop.png,images/cb_volop.png,0,,,,,,,,,,,,,,,,,,,,,,
,,,,,,00085,2023-10-29_16h52.21.564,vbt_B1_day2,2022.2.4,Win32,59.76571838,,,,,,,,,,,,,,,,,,,,,,,,,,,down,0,4.618,,-0.1375,-0.162,1,0,0,0.9158,0,153,153,79,1,nodig,images/br_nodig.png,images/cb_nodig.png,0,,,,,,,,,,,,,,,,,,,,,,
,,,,,,00085,2023-10-29_16h52.21.564,vbt_B1_day2,2022.2.4,Win32,59.76571838,,,,,,,,,,,,,,,,,,,,,,,,,,,down,0,7.2354,,-0.1375,-0.162,1,0,0,1.0628,0,154,154,131,1,opzicht,images/br_opzicht.png,images/cb_opzicht.png,0,,,,,,,,,,,,,,,,,,,,,,
,,,,,,00085,2023-10-29_16h52.21.564,vbt_B1_day2,2022.2.4,Win32,59.76571838,,,,,,,,,,,,,,,,,,,,,,,,,,,down,0,8.9253,,-0.1375,-0.162,1,0,0,0.4755,0,155,155,156,1,rechten,images/br_rechten.png,images/cb_rechten.png,0,,,,,,,,,,,,,,,,,,,,,,
,,,,,,00085,2023-10-29_16h52.21.564,vbt_B1_day2,2022.2.4,Win32,59.76571838,,,,,,,,,,,,,,,,,,,,,,,,,,,down,0,10.5072,,-0.1375,-0.162,1,0,0,0.3249,0,156,156,149,1,redding,images/br_redding.png,images/cb_redding.png,0,,,,,,,,,,,,,,,,,,,,,,
,,,,,,00085,2023-10-29_16h52.21.564,vbt_B1_day2,2022.2.4,Win32,59.76571838,,,,,,,,,,,,,,,,,,,,,,,,,,,down,0,10.2649,,-0.1375,-0.162,1,0,0,0.4838,0,157,157,179,1,woestijn,images/br_woestijn.png,images/cb_woestijn.png,1,woestijn,,,,,,,,,,,,,,,,,,,,,
,,,,,,00085,2023-10-29_16h52.21.564,vbt_B1_day2,2022.2.4,Win32,59.76571838,,,,,,,,,,,,,,,,,,,,,,,,,,,down,0,1.5192,,-0.1375,-0.162,1,0,0,0.4462,0,158,158,22,1,stof,images/br_stof.png,images/cb_stof.png,0,,,,,,,,,,,,,,,,,,,,,,
,,,,,,00085,2023-10-29_16h52.21.564,vbt_B1_day2,2022.2.4,Win32,59.76571838,,,,,,,,,,,,,,,,,,,,,,,,,,,down,0,6.6921,,-0.1375,-0.162,1,0,0,0.5459,0,159,159,153,1,vervoer,images/br_vervoer.png,images/cb_vervoer.png,0,,,,,,,,,,,,,,,,,,,,,,
,,,,,,00085,2023-10-29_16h52.21.564,vbt_B1_day2,2022.2.4,Win32,59.76571838,,,,,,,,,,,,,,,,,,,,,,,,,,,down,0,9.4848,,-0.1375,-0.162,1,0,0,0.3824,0,160,160,165,1,feestdag,images/br_feestdag.png,images/cb_feestdag.png,0,,,,,,,,,,,,,,,,,,,,,,
,,,,,,00085,2023-10-29_16h52.21.564,vbt_B1_day2,2022.2.4,Win32,59.76571838,,,,,,,,,,,,,,,,,,,,,,,,,,,down,0,5.8404,,-0.1375,-0.162,1,0,0,0.3488,0,161,161,135,1,gedicht,images/br_gedicht.png,images/cb_gedicht.png,0,,,,,,,,,,,,,,,,,,,,,,
,,,,,,00085,2023-10-29_16h52.21.564,vbt_B1_day2,2022.2.4,Win32,59.76571838,,,,,,,,,,,,,,,,,,,,,,,,,,,down,0,4.7413,,-0.1375,-0.162,1,0,0,0.406,0,162,162,43,1,klauw,images/br_klauw.png,images/cb_klauw.png,0,,,,,,,,,,,,,,,,,,,,,,
,,,,,,00085,2023-10-29_16h52.21.564,vbt_B1_day2,2022.2.4,Win32,59.76571838,,,,,,,,,,,,,,,,,,,,,,,,,,,down,0,8.2857,,-0.1375,-0.162,1,0,0,0.4318,0,163,163,98,1,kreeft,images/br_kreeft.png,images/cb_kreeft.png,1,kreeft,,,,,,,,,,,,,,,,,,,,,
,,,,,,00085,2023-10-29_16h52.21.564,vbt_B1_day2,2022.2.4,Win32,59.76571838,,,,,,,,,,,,,,,,,,,,,,,,,,,down,0,3.484,,-0.1375,-0.162,1,0,0,0.3822,0,164,164,197,1,spanning,images/br_spanning.png,images/cb_spanning.png,0,,,,,,,,,,,,,,,,,,,,,,
,,,,,,00085,2023-10-29_16h52.21.564,vbt_B1_day2,2022.2.4,Win32,59.76571838,,,,,,,,,,,,,,,,,,,,,,,,,,,down,0,3.6699,,-0.1375,-0.162,1,0,0,0.5306,0,165,165,69,1,waken,images/br_waken.png,images/cb_waken.png,0,,,,,,,,,,,,,,,,,,,,,,
,,,,,,00085,2023-10-29_16h52.21.564,vbt_B1_day2,2022.2.4,Win32,59.76571838,,,,,,,,,,,,,,,,,,,,,,,,,,,down,0,5.3316,,-0.1375,-0.162,1,0,0,0.48,0,166,166,155,1,gerucht,images/br_gerucht.png,images/cb_gerucht.png,0,,,,,,,,,,,,,,,,,,,,,,
,,,,,,00085,2023-10-29_16h52.21.564,vbt_B1_day2,2022.2.4,Win32,59.76571838,,,,,,,,,,,,,,,,,,,,,,,,,,,down,0,0.3684,,-0.1375,-0.162,1,0,0,0.3817,0,167,167,35,1,lust,images/br_lust.png,images/cb_lust.png,0,,,,,,,,,,,,,,,,,,,,,,
,,,,,,00085,2023-10-29_16h52.21.564,vbt_B1_day2,2022.2.4,Win32,59.76571838,,,,,,,,,,,,,,,,,,,,,,,,,,,down,0,2.5748,,-0.1375,-0.162,1,0,0,0.3969,0,168,168,171,1,aarzelen,images/br_aarzelen.png,images/cb_aarzelen.png,0,,,,,,,,,,,,,,,,,,,,,,
,,,,,,00085,2023-10-29_16h52.21.564,vbt_B1_day2,2022.2.4,Win32,59.76571838,,,,,,,,,,,,,,,,,,,,,,,,,,,down,0,0.2237,,-0.1375,-0.162,1,0,0,0.3828,0,169,169,48,1,steel,images/br_steel.png,images/cb_steel.png,0,,,,,,,,,,,,,,,,,,,,,,
,,,,,,00085,2023-10-29_16h52.21.564,vbt_B1_day2,2022.2.4,Win32,59.76571838,,,,,,,,,,,,,,,,,,,,,,,,,,,down,0,2.5287,,-0.1375,-0.162,1,0,0,0.4081,0,170,170,4,1,moes,images/br_moes.png,images/cb_moes.png,0,,,,,,,,,,,,,,,,,,,,,,
,,,,,,00085,2023-10-29_16h52.21.564,vbt_B1_day2,2022.2.4,Win32,59.76571838,,,,,,,,,,,,,,,,,,,,,,,,,,,down,0,3.1508,,-0.1375,-0.162,1,0,0,0.4196,0,171,171,183,1,getuigen,images/br_getuigen.png,images/cb_getuigen.png,0,,,,,,,,,,,,,,,,,,,,,,
,,,,,,00085,2023-10-29_16h52.21.564,vbt_B1_day2,2022.2.4,Win32,59.76571838,,,,,,,,,,,,,,,,,,,,,,,,,,,down,0,13.045,,-0.1375,-0.162,1,0,0,0.3573,0,172,172,196,1,nakijken,images/br_nakijken.png,images/cb_nakijken.png,0,,,,,,,,,,,,,,,,,,,,,,
,,,,,,00085,2023-10-29_16h52.21.564,vbt_B1_day2,2022.2.4,Win32,59.76571838,,,,,,,,,,,,,,,,,,,,,,,,,,,down,0,15.1155,,-0.1375,-0.162,1,0,0,0.3512,0,173,173,191,1,opheffen,images/br_opheffen.png,images/cb_opheffen.png,0,,,,,,,,,,,,,,,,,,,,,,
,,,,,,00085,2023-10-29_16h52.21.564,vbt_B1_day2,2022.2.4,Win32,59.76571838,,,,,,,,,,,,,,,,,,,,,,,,,,,down,0,5.248,,-0.1375,-0.162,1,0,0,0.4493,0,174,174,63,1,flirt,images/br_flirt.png,images/cb_flirt.png,0,,,,,,,,,,,,,,,,,,,,,,
,,,,,,00085,2023-10-29_16h52.21.564,vbt_B1_day2,2022.2.4,Win32,59.76571838,,,,,,,,,,,,,,,,,,,,,,,,,,,down,0,7.4126,,-0.1375,-0.162,1,0,0,0.5347,0,175,175,167,1,eenhoorn,images/br_eenhoorn.png,images/cb_eenhoorn.png,0,,,,,,,,,,,,,,,,,,,,,,
,,,,,,00085,2023-10-29_16h52.21.564,vbt_B1_day2,2022.2.4,Win32,59.76571838,,,,,,,,,,,,,,,,,,,,,,,,,,,down,0,7.4344,,-0.1375,-0.162,1,0,0,2.5138,0,176,176,8,1,knie,images/br_knie.png,images/cb_knie.png,0,,,,,,,,,,,,,,,,,,,,,,
,,,,,,00085,2023-10-29_16h52.21.564,vbt_B1_day2,2022.2.4,Win32,59.76571838,,,,,,,,,,,,,,,,,,,,,,,,,,,down,0,6.2849,,-0.1375,-0.162,1,0,0,0.7354,0,177,177,47,1,kabel,images/br_kabel.png,images/cb_kabel.png,0,,,,,,,,,,,,,,,,,,,,,,
,,,,,,00085,2023-10-29_16h52.21.564,vbt_B1_day2,2022.2.4,Win32,59.76571838,,,,,,,,,,,,,,,,,,,,,,,,,,,down,0,8.3521,,-0.1375,-0.162,1,0,0,0.9153,0,178,178,18,1,blik,images/br_blik.png,images/cb_blik.png,1,blik,,,,,,,,,,,,,,,,,,,,,
,,,,,,00085,2023-10-29_16h52.21.564,vbt_B1_day2,2022.2.4,Win32,59.76571838,,,,,,,,,,,,,,,,,,,,,,,,,,,down,0,3.5018,,-0.1375,-0.162,1,0,0,0.6175,0,179,179,169,1,oprotten,images/br_oprotten.png,images/cb_oprotten.png,0,,,,,,,,,,,,,,,,,,,,,,
,,,,,,00085,2023-10-29_16h52.21.564,vbt_B1_day2,2022.2.4,Win32,59.76571838,,,,,,,,,,,,,,,,,,,,,,,,,,,down,0,2.8516,,-0.1375,-0.162,1,0,0,0.6691,0,180,180,175,1,heengaan,images/br_heengaan.png,images/cb_heengaan.png,0,,,,,,,,,,,,,,,,,,,,,,
,,,,,,00085,2023-10-29_16h52.21.564,vbt_B1_day2,2022.2.4,Win32,59.76571838,,,,,,,,,,,,,,,,,,,,,,,,,,,down,0,4.602,,-0.1375,-0.162,1,0,0,0.4159,0,181,181,56,1,traag,images/br_traag.png,images/cb_traag.png,1,traag,,,,,,,,,,,,,,,,,,,,,
,,,,,,00085,2023-10-29_16h52.21.564,vbt_B1_day2,2022.2.4,Win32,59.76571838,,,,,,,,,,,,,,,,,,,,,,,,,,,down,0,3.5506,,-0.1375,-0.162,1,0,0,0.4663,0,182,182,50,1,stoom,images/br_stoom.png,images/cb_stoom.png,0,,,,,,,,,,,,,,,,,,,,,,
,,,,,,00085,2023-10-29_16h52.21.564,vbt_B1_day2,2022.2.4,Win32,59.76571838,,,,,,,,,,,,,,,,,,,,,,,,,,,down,0,11.9346,,-0.1375,-0.162,1,0,0,0.4662,0,183,183,121,1,twijfel,images/br_twijfel.png,images/cb_twijfel.png,0,,,,,,,,,,,,,,,,,,,,,,
,,,,,,00085,2023-10-29_16h52.21.564,vbt_B1_day2,2022.2.4,Win32,59.76571838,,,,,,,,,,,,,,,,,,,,,,,,,,,down,0,7.94,,-0.1375,-0.162,1,0,0,0.4164,0,184,184,180,1,openbaar,images/br_openbaar.png,images/cb_openbaar.png,0,,,,,,,,,,,,,,,,,,,,,,
,,,,,,00085,2023-10-29_16h52.21.564,vbt_B1_day2,2022.2.4,Win32,59.76571838,,,,,,,,,,,,,,,,,,,,,,,,,,,down,0,5.7355,,-0.1375,-0.162,1,0,0,0.516,0,185,185,58,1,tekst,images/br_tekst.png,images/cb_tekst.png,1,tekst,,,,,,,,,,,,,,,,,,,,,
,,,,,,00085,2023-10-29_16h52.21.564,vbt_B1_day2,2022.2.4,Win32,59.76571838,,,,,,,,,,,,,,,,,,,,,,,,,,,down,0,4.7684,,-0.1375,-0.162,1,0,0,0.4818,0,186,186,138,1,akkoord,images/br_akkoord.png,images/cb_akkoord.png,1,akkoord,,,,,,,,,,,,,,,,,,,,,
,,,,,,00085,2023-10-29_16h52.21.564,vbt_B1_day2,2022.2.4,Win32,59.76571838,,,,,,,,,,,,,,,,,,,,,,,,,,,down,0,9.9242,,-0.1375,-0.162,1,0,0,0.3902,0,187,187,46,1,jagen,images/br_jagen.png,images/cb_jagen.png,0,,,,,,,,,,,,,,,,,,,,,,
,,,,,,00085,2023-10-29_16h52.21.564,vbt_B1_day2,2022.2.4,Win32,59.76571838,,,,,,,,,,,,,,,,,,,,,,,,,,,down,0,3.7069,,-0.1375,-0.162,1,0,0,0.3826,0,188,188,140,1,blijven,images/br_blijven.png,images/cb_blijven.png,0,,,,,,,,,,,,,,,,,,,,,,
,,,,,,00085,2023-10-29_16h52.21.564,vbt_B1_day2,2022.2.4,Win32,59.76571838,,,,,,,,,,,,,,,,,,,,,,,,,,,down,0,5.251,,-0.1375,-0.162,1,0,0,0.6487,0,189,189,82,1,muziek,images/br_muziek.png,images/cb_muziek.png,0,,,,,,,,,,,,,,,,,,,,,,
,,,,,,00085,2023-10-29_16h52.21.564,vbt_B1_day2,2022.2.4,Win32,59.76571838,,,,,,,,,,,,,,,,,,,,,,,,,,,down,0,4.2725,,-0.1375,-0.162,1,0,0,0.6827,0,190,190,96,1,slagen,images/br_slagen.png,images/cb_slagen.png,1,slagen,,,,,,,,,,,,,,,,,,,,,
,,,,,,00085,2023-10-29_16h52.21.564,vbt_B1_day2,2022.2.4,Win32,59.76571838,,,,,,,,,,,,,,,,,,,,,,,,,,,down,0,3.324,,-0.1375,-0.162,1,0,0,0.5146,0,191,191,157,1,uitlaat,images/br_uitlaat.png,images/cb_uitlaat.png,0,,,,,,,,,,,,,,,,,,,,,,
,,,,,,00085,2023-10-29_16h52.21.564,vbt_B1_day2,2022.2.4,Win32,59.76571838,,,,,,,,,,,,,,,,,,,,,,,,,,,down,0,6.4254,,-0.1375,-0.162,1,0,0,0.4465,0,192,192,64,1,wegen,images/br_wegen.png,images/cb_wegen.png,0,,,,,,,,,,,,,,,,,,,,,,
,,,,,,00085,2023-10-29_16h52.21.564,vbt_B1_day2,2022.2.4,Win32,59.76571838,,,,,,,,,,,,,,,,,,,,,,,,,,,down,0,4.0345,,-0.1375,-0.162,1,0,0,0.4985,0,193,193,141,1,knielen,images/br_knielen.png,images/cb_knielen.png,0,,,,,,,,,,,,,,,,,,,,,,
,,,,,,00085,2023-10-29_16h52.21.564,vbt_B1_day2,2022.2.4,Win32,59.76571838,,,,,,,,,,,,,,,,,,,,,,,,,,,down,0,7.3568,,-0.1375,-0.162,1,0,0,0.5396,0,194,194,174,1,stemming,images/br_stemming.png,images/cb_stemming.png,0,,,,,,,,,,,,,,,,,,,,,,
,,,,,,00085,2023-10-29_16h52.21.564,vbt_B1_day2,2022.2.4,Win32,59.76571838,,,,,,,,,,,,,,,,,,,,,,,,,,,down,0,12.742,,-0.1375,-0.162,1,0,0,0.4356,0,195,195,168,1,bisschop,images/br_bisschop.png,images/cb_bisschop.png,0,,,,,,,,,,,,,,,,,,,,,,
,,,,,,00085,2023-10-29_16h52.21.564,vbt_B1_day2,2022.2.4,Win32,59.76571838,,,,,,,,,,,,,,,,,,,,,,,,,,,down,0,1.4889,,-0.1375,-0.162,1,0,0,0.4786,0,196,196,32,1,palm,images/br_palm.png,images/cb_palm.png,0,,,,,,,,,,,,,,,,,,,,,,
,,,,,,00085,2023-10-29_16h52.21.564,vbt_B1_day2,2022.2.4,Win32,59.76571838,,,,,,,,,,,,,,,,,,,,,,,,,,,down,0,7.7754,,-0.1375,-0.162,1,0,0,0.6982,0,197,197,134,1,geliefd,images/br_geliefd.png,images/cb_geliefd.png,0,,,,,,,,,,,,,,,,,,,,,,
,,,,,,00085,2023-10-29_16h52.21.564,vbt_B1_day2,2022.2.4,Win32,59.76571838,,,,,,,,,,,,,,,,,,,,,,,,,,,down,0,8.5564,,-0.1375,-0.162,1,0,0,0.5956,0,198,198,86,1,woning,images/br_woning.png,images/cb_woning.png,0,,,,,,,,,,,,,,,,,,,,,,
,,,,,,00085,2023-10-29_16h52.21.564,vbt_B1_day2,2022.2.4,Win32,59.76571838,,,,,,,,,,,,,,,,,,,,,,,,,,,down,0,12.1255,,-0.1375,-0.162,1,0,0,0.5963,0,199,199,136,1,waarbij,images/br_waarbij.png,images/cb_waarbij.png,1,waarbij,,,,,,,,,,,,,,,,,,,,,
,,,,,,00085,2023-10-29_16h52.21.564,vbt_B1_day2,2022.2.4,Win32,59.76571838,,,,,,,,,,,,,,,,,,,,,,,,,,,,,,,,,,,,,,,,,,,,,,,-0.1375,-0.162,1,0,0,,,,,,,,,,,,,,,,
,,,,,,00085,2023-10-29_16h52.21.564,vbt_B1_day2,2022.2.4,Win32,59.76571838,,,,,,,,,,,,,,,,,,,,,,,,,,,,,,,,,,,,,,,,,,,,,,,,,,,,-0.1375,-0.162,1,0,0,,,,,,,,,,,
,,,,,,00085,2023-10-29_16h52.21.564,vbt_B1_day2,2022.2.4,Win32,59.76571838,,,,,,,,,,,,,,,,,,,,,,,,,,,,,,,,,,,,,,,,,,welzijn,images/br_welzijn.png,images/cb_welzijn.png,,welzijn,,,,,,,,,,,-0.043,-0.2775,1,0,0,welzijn,0,0,0,52,1
,,,,,,00085,2023-10-29_16h52.21.564,vbt_B1_day2,2022.2.4,Win32,59.76571838,,,,,,,,,,,,,,,,,,,,,,,,,,,,,,,,,,,,,,,,,,sora,images/br_sora.png,images/cb_sora.png,,sora,,,,,,,,,,,-0.043,-0.2775,1,0,0,sora,0,1,1,22,1
,,,,,,00085,2023-10-29_16h52.21.564,vbt_B1_day2,2022.2.4,Win32,59.76571838,,,,,,,,,,,,,,,,,,,,,,,,,,,,,,,,,,,,,,,,,,tand,images/br_tand.png,images/cb_tand.png,,tand,,,,,,,,,,,-0.043,-0.2775,1,0,0,tand,0,2,2,42,1
,,,,,,00085,2023-10-29_16h52.21.564,vbt_B1_day2,2022.2.4,Win32,59.76571838,,,,,,,,,,,,,,,,,,,,,,,,,,,,,,,,,,,,,,,,,,plannen,images/br_plannen.png,images/cb_plannen.png,,plannen,,,,,,,,,,,-0.043,-0.2775,1,0,0,plannen,0,3,3,55,1
,,,,,,00085,2023-10-29_16h52.21.564,vbt_B1_day2,2022.2.4,Win32,59.76571838,,,,,,,,,,,,,,,,,,,,,,,,,,,,,,,,,,,,,,,,,,trots,images/br_trots.png,images/cb_trots.png,,trots,,,,,,,,,,,0.072,-0.273,1,0,0,trots,0,4,4,44,1
,,,,,,00085,2023-10-29_16h52.21.564,vbt_B1_day2,2022.2.4,Win32,59.76571838,,,,,,,,,,,,,,,,,,,,,,,,,,,,,,,,,,,,,,,,,,agressie,images/br_agressie.png,images/cb_agressie.png,,agressie,,,,,,,,,,,0.072,-0.273,1,0,0,agressie,0,5,5,59,1
,,,,,,00085,2023-10-29_16h52.21.564,vbt_B1_day2,2022.2.4,Win32,59.76571838,,,,,,,,,,,,,,,,,,,,,,,,,,,,,,,,,,,,,,,,,,remel,images/br_remel.png,images/cb_remel.png,,remel,,,,,,,,,,,0.072,-0.273,1,0,0,remel,0,6,6,25,1
,,,,,,00085,2023-10-29_16h52.21.564,vbt_B1_day2,2022.2.4,Win32,59.76571838,,,,,,,,,,,,,,,,,,,,,,,,,,,,,,,,,,,,,,,,,,ophuimen,images/br_ophuimen.png,images/cb_ophuimen.png,,ophui....,,,,,,,,,,,0.0215,-0.2895,1,0,0,ophui....,0,7,7,36,1
,,,,,,00085,2023-10-29_16h52.21.564,vbt_B1_day2,2022.2.4,Win32,59.76571838,,,,,,,,,,,,,,,,,,,,,,,,,,,,,,,,,,,,,,,,,,kasteel,images/br_kasteel.png,images/cb_kasteel.png,,kasteel,,,,,,,,,,,0.0215,-0.2895,1,0,0,kasteel,0,8,8,14,1
,,,,,,00085,2023-10-29_16h52.21.564,vbt_B1_day2,2022.2.4,Win32,59.76571838,,,,,,,,,,,,,,,,,,,,,,,,,,,,,,,,,,,,,,,,,,tweeling,images/br_tweeling.png,images/cb_tweeling.png,,tweeling,,,,,,,,,,,0.0215,-0.2895,1,0,0,tweeling,0,9,9,58,1
,,,,,,00085,2023-10-29_16h52.21.564,vbt_B1_day2,2022.2.4,Win32,59.76571838,,,,,,,,,,,,,,,,,,,,,,,,,,,,,,,,,,,,,,,,,,systeem,images/br_systeem.png,images/cb_systeem.png,,systeem,,,,,,,,,,,0.0215,-0.2895,1,0,0,systeem,0,10,10,54,1
,,,,,,00085,2023-10-29_16h52.21.564,vbt_B1_day2,2022.2.4,Win32,59.76571838,,,,,,,,,,,,,,,,,,,,,,,,,,,,,,,,,,,,,,,,,,toeval,images/br_toeval.png,images/cb_toeval.png,,toeval,,,,,,,,,,,0.0215,-0.2895,1,0,0,toeval,0,11,11,11,1
,,,,,,00085,2023-10-29_16h52.21.564,vbt_B1_day2,2022.2.4,Win32,59.76571838,,,,,,,,,,,,,,,,,,,,,,,,,,,,,,,,,,,,,,,,,,flits,images/br_flits.png,images/cb_flits.png,,flits,,,,,,,,,,,0.0215,-0.2895,1,0,0,flits,0,12,12,4,1
,,,,,,00085,2023-10-29_16h52.21.564,vbt_B1_day2,2022.2.4,Win32,59.76571838,,,,,,,,,,,,,,,,,,,,,,,,,,,,,,,,,,,,,,,,,,woning,images/br_woning.png,images/cb_woning.png,,woning,,,,,,,,,,,0.0215,-0.2895,1,0,0,woning,0,13,13,10,1
,,,,,,00085,2023-10-29_16h52.21.564,vbt_B1_day2,2022.2.4,Win32,59.76571838,,,,,,,,,,,,,,,,,,,,,,,,,,,,,,,,,,,,,,,,,,lurgen,images/br_lurgen.png,images/cb_lurgen.png,,lurging,,,,,,,,,,,0.0215,-0.2895,1,0,0,lurging,0,14,14,29,1
,,,,,,00085,2023-10-29_16h52.21.564,vbt_B1_day2,2022.2.4,Win32,59.76571838,,,,,,,,,,,,,,,,,,,,,,,,,,,,,,,,,,,,,,,,,,anarchie,images/br_anarchie.png,images/cb_anarchie.png,,anarchie,,,,,,,,,,,0.0215,-0.2895,1,0,0,anarchie,0,15,15,16,1
,,,,,,00085,2023-10-29_16h52.21.564,vbt_B1_day2,2022.2.4,Win32,59.76571838,,,,,,,,,,,,,,,,,,,,,,,,,,,,,,,,,,,,,,,,,,heilig,images/br_heilig.png,images/cb_heilig.png,,veilig,,,,,,,,,,,0.0515,-0.318,1,0,0,veilig,0,16,16,9,1
,,,,,,00085,2023-10-29_16h52.21.564,vbt_B1_day2,2022.2.4,Win32,59.76571838,,,,,,,,,,,,,,,,,,,,,,,,,,,,,,,,,,,,,,,,,,aanzien,images/br_aanzien.png,images/cb_aanzien.png,,aanzijn,,,,,,,,,,,0.0515,-0.318,1,0,0,aanzijn,0,17,17,13,1
,,,,,,00085,2023-10-29_16h52.21.564,vbt_B1_day2,2022.2.4,Win32,59.76571838,,,,,,,,,,,,,,,,,,,,,,,,,,,,,,,,,,,,,,,,,,zomers,images/br_zomers.png,images/cb_zomers.png,,zomers,,,,,,,,,,,0.0515,-0.318,1,0,0,zomers,0,18,18,48,1
,,,,,,00085,2023-10-29_16h52.21.564,vbt_B1_day2,2022.2.4,Win32,59.76571838,,,,,,,,,,,,,,,,,,,,,,,,,,,,,,,,,,,,,,,,,,zwager,images/br_zwager.png,images/cb_zwager.png,,zwager,,,,,,,,,,,0.0515,-0.318,1,0,0,zwager,0,19,19,49,1
,,,,,,00085,2023-10-29_16h52.21.564,vbt_B1_day2,2022.2.4,Win32,59.76571838,,,,,,,,,,,,,,,,,,,,,,,,,,,,,,,,,,,,,,,,,,joes,images/br_joes.png,images/cb_joes.png,,joes,,,,,,,,,,,0.0515,-0.318,1,0,0,joes,0,20,20,20,1
,,,,,,00085,2023-10-29_16h52.21.564,vbt_B1_day2,2022.2.4,Win32,59.76571838,,,,,,,,,,,,,,,,,,,,,,,,,,,,,,,,,,,,,,,,,,strikken,images/br_strikken.png,images/cb_strikken.png,,strekken,,,,,,,,,,,0.0515,-0.318,1,0,0,strekken,0,21,21,18,1
,,,,,,00085,2023-10-29_16h52.21.564,vbt_B1_day2,2022.2.4,Win32,59.76571838,,,,,,,,,,,,,,,,,,,,,,,,,,,,,,,,,,,,,,,,,,aanvraag,images/br_aanvraag.png,images/cb_aanvraag.png,,aanvarrg,,,,,,,,,,,0.0515,-0.318,1,0,0,aanvarrg,0,22,22,57,1
,,,,,,00085,2023-10-29_16h52.21.564,vbt_B1_day2,2022.2.4,Win32,59.76571838,,,,,,,,,,,,,,,,,,,,,,,,,,,,,,,,,,,,,,,,,,thema,images/br_thema.png,images/cb_thema.png,,thi...,,,,,,,,,,,0.0515,-0.318,1,0,0,thi...,0,23,23,47,1
,,,,,,00085,2023-10-29_16h52.21.564,vbt_B1_day2,2022.2.4,Win32,59.76571838,,,,,,,,,,,,,,,,,,,,,,,,,,,,,,,,,,,,,,,,,,feestdag,images/br_feestdag.png,images/cb_feestdag.png,,feestdag,,,,,,,,,,,0.03,-0.3205,1,0,0,feestdag,0,24,24,17,1
,,,,,,00085,2023-10-29_16h52.21.564,vbt_B1_day2,2022.2.4,Win32,59.76571838,,,,,,,,,,,,,,,,,,,,,,,,,,,,,,,,,,,,,,,,,,wijve,images/br_wijve.png,images/cb_wijve.png,,wijve,,,,,,,,,,,0.03,-0.3205,1,0,0,wijve,0,25,25,27,1
,,,,,,00085,2023-10-29_16h52.21.564,vbt_B1_day2,2022.2.4,Win32,59.76571838,,,,,,,,,,,,,,,,,,,,,,,,,,,,,,,,,,,,,,,,,,manieren,images/br_manieren.png,images/cb_manieren.png,,manieren,,,,,,,,,,,0.03,-0.3205,1,0,0,manieren,0,26,26,56,1
,,,,,,00085,2023-10-29_16h52.21.564,vbt_B1_day2,2022.2.4,Win32,59.76571838,,,,,,,,,,,,,,,,,,,,,,,,,,,,,,,,,,,,,,,,,,kabel,images/br_kabel.png,images/cb_kabel.png,,kabel,,,,,,,,,,,-0.0515,-0.3185,1,0,0,kabel,0,27,27,7,1
,,,,,,00085,2023-10-29_16h52.21.564,vbt_B1_day2,2022.2.4,Win32,59.76571838,,,,,,,,,,,,,,,,,,,,,,,,,,,,,,,,,,,,,,,,,,breuk,images/br_breuk.png,images/cb_breuk.png,,breuk,,,,,,,,,,,0.0385,-0.338,1,0,0,breuk,0,28,28,45,1
,,,,,,00085,2023-10-29_16h52.21.564,vbt_B1_day2,2022.2.4,Win32,59.76571838,,,,,,,,,,,,,,,,,,,,,,,,,,,,,,,,,,,,,,,,,,ningen,images/br_ningen.png,images/cb_ningen.png,,ningen,,,,,,,,,,,-0.0415,-0.341,1,0,0,ningen,0,29,29,28,1
,,,,,,00085,2023-10-29_16h52.21.564,vbt_B1_day2,2022.2.4,Win32,59.76571838,,,,,,,,,,,,,,,,,,,,,,,,,,,,,,,,,,,,,,,,,,zegel,images/br_zegel.png,images/cb_zegel.png,,zegel,,,,,,,,,,,0.049,-0.3335,1,0,0,zegel,0,30,30,46,1
,,,,,,00085,2023-10-29_16h52.21.564,vbt_B1_day2,2022.2.4,Win32,59.76571838,,,,,,,,,,,,,,,,,,,,,,,,,,,,,,,,,,,,,,,,,,diep,images/br_diep.png,images/cb_diep.png,,diep,,,,,,,,,,,0.049,-0.3335,1,0,0,diep,0,31,31,2,1
,,,,,,00085,2023-10-29_16h52.21.564,vbt_B1_day2,2022.2.4,Win32,59.76571838,,,,,,,,,,,,,,,,,,,,,,,,,,,,,,,,,,,,,,,,,,heengeen,images/br_heengeen.png,images/cb_heengeen.png,,heengaan,,,,,,,,,,,-0.0235,-0.338,1,0,0,heengaan,0,32,32,38,1
,,,,,,00085,2023-10-29_16h52.21.564,vbt_B1_day2,2022.2.4,Win32,59.76571838,,,,,,,,,,,,,,,,,,,,,,,,,,,,,,,,,,,,,,,,,,krimmen,images/br_krimmen.png,images/cb_krimmen.png,,krinnen,,,,,,,,,,,0.0175,-0.341,1,0,0,krinnen,0,33,33,35,1
,,,,,,00085,2023-10-29_16h52.21.564,vbt_B1_day2,2022.2.4,Win32,59.76571838,,,,,,,,,,,,,,,,,,,,,,,,,,,,,,,,,,,,,,,,,,opdatten,images/br_opdatten.png,images/cb_opdatten.png,,opbatten,,,,,,,,,,,-0.0545,0.003,1,0,0,opbatten,0,34,34,37,1
,,,,,,00085,2023-10-29_16h52.21.564,vbt_B1_day2,2022.2.4,Win32,59.76571838,,,,,,,,,,,,,,,,,,,,,,,,,,,,,,,,,,,,,,,,,,sifferd,images/br_sifferd.png,images/cb_sifferd.png,,siffer,,,,,,,,,,,0.0865,-0.044,1,0,0,siffer,0,35,35,32,1
,,,,,,00085,2023-10-29_16h52.21.564,vbt_B1_day2,2022.2.4,Win32,59.76571838,,,,,,,,,,,,,,,,,,,,,,,,,,,,,,,,,,,,,,,,,,goon,images/br_goon.png,images/cb_goon.png,,goon,,,,,,,,,,,0.2555,-0.1105,1,0,0,goon,0,36,36,23,1
,,,,,,00085,2023-10-29_16h52.21.564,vbt_B1_day2,2022.2.4,Win32,59.76571838,,,,,,,,,,,,,,,,,,,,,,,,,,,,,,,,,,,,,,,,,,moes,images/br_moes.png,images/cb_moes.png,,moes,,,,,,,,,,,0.283,-0.1285,1,0,0,moes,0,37,37,0,1
,,,,,,00085,2023-10-29_16h52.21.564,vbt_B1_day2,2022.2.4,Win32,59.76571838,,,,,,,,,,,,,,,,,,,,,,,,,,,,,,,,,,,,,,,,,,inzicht,images/br_inzicht.png,images/cb_inzicht.png,,inzicht,,,,,,,,,,,0.283,-0.1285,1,0,0,inzicht,0,38,38,53,1
,,,,,,00085,2023-10-29_16h52.21.564,vbt_B1_day2,2022.2.4,Win32,59.76571838,,,,,,,,,,,,,,,,,,,,,,,,,,,,,,,,,,,,,,,,,,jong,images/br_jong.png,images/cb_jong.png,,jong,,,,,,,,,,,0.283,-0.1285,1,0,0,jong,0,39,39,43,1
,,,,,,00085,2023-10-29_16h52.21.564,vbt_B1_day2,2022.2.4,Win32,59.76571838,,,,,,,,,,,,,,,,,,,,,,,,,,,,,,,,,,,,,,,,,,lijnen,images/br_lijnen.png,images/cb_lijnen.png,,lijnen,,,,,,,,,,,0.1535,-0.3235,1,0,0,lijnen,0,40,40,51,1
,,,,,,00085,2023-10-29_16h52.21.564,vbt_B1_day2,2022.2.4,Win32,59.76571838,,,,,,,,,,,,,,,,,,,,,,,,,,,,,,,,,,,,,,,,,,doodmoe,images/br_doodmoe.png,images/cb_doodmoe.png,,doodmoe,,,,,,,,,,,0.1535,-0.3235,1,0,0,doodmoe,0,41,41,15,1
,,,,,,00085,2023-10-29_16h52.21.564,vbt_B1_day2,2022.2.4,Win32,59.76571838,,,,,,,,,,,,,,,,,,,,,,,,,,,,,,,,,,,,,,,,,,lokken,images/br_lokken.png,images/cb_lokken.png,,lokken,,,,,,,,,,,0.1535,-0.3235,1,0,0,lokken,0,42,42,8,1
,,,,,,00085,2023-10-29_16h52.21.564,vbt_B1_day2,2022.2.4,Win32,59.76571838,,,,,,,,,,,,,,,,,,,,,,,,,,,,,,,,,,,,,,,,,,sjijfel,images/br_sjijfel.png,images/cb_sjijfel.png,,sij.el,,,,,,,,,,,0.1535,-0.3235,1,0,0,sij.el,0,43,43,33,1
,,,,,,00085,2023-10-29_16h52.21.564,vbt_B1_day2,2022.2.4,Win32,59.76571838,,,,,,,,,,,,,,,,,,,,,,,,,,,,,,,,,,,,,,,,,,dode,images/br_dode.png,images/cb_dode.png,,dode,,,,,,,,,,,0.046,-0.303,1,0,0,dode,0,44,44,41,1
,,,,,,00085,2023-10-29_16h52.21.564,vbt_B1_day2,2022.2.4,Win32,59.76571838,,,,,,,,,,,,,,,,,,,,,,,,,,,,,,,,,,,,,,,,,,kijlen,images/br_kijlen.png,images/cb_kijlen.png,,kijlen,,,,,,,,,,,0.046,-0.303,1,0,0,kijlen,0,45,45,31,1
,,,,,,00085,2023-10-29_16h52.21.564,vbt_B1_day2,2022.2.4,Win32,59.76571838,,,,,,,,,,,,,,,,,,,,,,,,,,,,,,,,,,,,,,,,,,geld,images/br_geld.png,images/cb_geld.png,,geld,,,,,,,,,,,-0.0225,-0.3305,1,0,0,geld,0,46,46,3,1
,,,,,,00085,2023-10-29_16h52.21.564,vbt_B1_day2,2022.2.4,Win32,59.76571838,,,,,,,,,,,,,,,,,,,,,,,,,,,,,,,,,,,,,,,,,,bloeien,images/br_bloeien.png,images/cb_bloeien.png,,bloeien,,,,,,,,,,,0.0585,-0.341,1,0,0,bloeien,0,47,47,12,1
,,,,,,00085,2023-10-29_16h52.21.564,vbt_B1_day2,2022.2.4,Win32,59.76571838,,,,,,,,,,,,,,,,,,,,,,,,,,,,,,,,,,,,,,,,,,stes,images/br_stes.png,images/cb_stes.png,,stes,,,,,,,,,,,-0.0065,-0.353,1,0,0,stes,0,48,48,21,1
,,,,,,00085,2023-10-29_16h52.21.564,vbt_B1_day2,2022.2.4,Win32,59.76571838,,,,,,,,,,,,,,,,,,,,,,,,,,,,,,,,,,,,,,,,,,badon,images/br_badon.png,images/cb_badon.png,,bado.,,,,,,,,,,,0.0605,-0.349,1,0,0,bado.,0,49,49,26,1
,,,,,,00085,2023-10-29_16h52.21.564,vbt_B1_day2,2022.2.4,Win32,59.76571838,,,,,,,,,,,,,,,,,,,,,,,,,,,,,,,,,,,,,,,,,,clan,images/br_clan.png,images/cb_clan.png,,clan,,,,,,,,,,,0.0605,-0.35,1,0,0,clan,0,50,50,40,1
,,,,,,00085,2023-10-29_16h52.21.564,vbt_B1_day2,2022.2.4,Win32,59.76571838,,,,,,,,,,,,,,,,,,,,,,,,,,,,,,,,,,,,,,,,,,blad,images/br_blad.png,images/cb_blad.png,,blad,,,,,,,,,,,0.0605,-0.35,1,0,0,blad,0,51,51,1,1
,,,,,,00085,2023-10-29_16h52.21.564,vbt_B1_day2,2022.2.4,Win32,59.76571838,,,,,,,,,,,,,,,,,,,,,,,,,,,,,,,,,,,,,,,,,,prekken,images/br_prekken.png,images/cb_prekken.png,,prikken,,,,,,,,,,,-0.0745,-0.32,1,0,0,prikken,0,52,52,34,1
,,,,,,00085,2023-10-29_16h52.21.564,vbt_B1_day2,2022.2.4,Win32,59.76571838,,,,,,,,,,,,,,,,,,,,,,,,,,,,,,,,,,,,,,,,,,piste,images/br_piste.png,images/cb_piste.png,,piste,,,,,,,,,,,-0.0355,-0.3315,1,0,0,piste,0,53,53,5,1
,,,,,,00085,2023-10-29_16h52.21.564,vbt_B1_day2,2022.2.4,Win32,59.76571838,,,,,,,,,,,,,,,,,,,,,,,,,,,,,,,,,,,,,,,,,,jagen,images/br_jagen.png,images/cb_jagen.png,,jagen,,,,,,,,,,,0.0675,-0.332,1,0,0,jagen,0,54,54,6,1
,,,,,,00085,2023-10-29_16h52.21.564,vbt_B1_day2,2022.2.4,Win32,59.76571838,,,,,,,,,,,,,,,,,,,,,,,,,,,,,,,,,,,,,,,,,,kenzis,images/br_kenzis.png,images/cb_kenzis.png,,kinz..,,,,,,,,,,,0.046,-0.3275,1,0,0,kinz..,0,55,55,30,1
,,,,,,00085,2023-10-29_16h52.21.564,vbt_B1_day2,2022.2.4,Win32,59.76571838,,,,,,,,,,,,,,,,,,,,,,,,,,,,,,,,,,,,,,,,,,koorts,images/br_koorts.png,images/cb_koorts.png,,koorts,,,,,,,,,,,0.0805,-0.309,1,0,0,koorts,0,56,56,50,1
,,,,,,00085,2023-10-29_16h52.21.564,vbt_B1_day2,2022.2.4,Win32,59.76571838,,,,,,,,,,,,,,,,,,,,,,,,,,,,,,,,,,,,,,,,,,eenhoorn,images/br_eenhoorn.png,images/cb_eenhoorn.png,,eenhoorn,,,,,,,,,,,-0.026,-0.328,1,0,0,eenhoorn,0,57,57,19,1
,,,,,,00085,2023-10-29_16h52.21.564,vbt_B1_day2,2022.2.4,Win32,59.76571838,,,,,,,,,,,,,,,,,,,,,,,,,,,,,,,,,,,,,,,,,,bereuwen,images/br_bereuwen.png,images/cb_bereuwen.png,,bereu...,,,,,,,,,,,-0.026,-0.328,1,0,0,bereu...,0,58,58,39,1
,,,,,,00085,2023-10-29_16h52.21.564,vbt_B1_day2,2022.2.4,Win32,59.76571838,,,,,,,,,,,,,,,,,,,,,,,,,,,,,,,,,,,,,,,,,,negel,images/br_negel.png,images/cb_negel.png,,nigil,,,,,,,,,,,-0.026,-0.328,1,0,0,nigil,0,59,59,24,1
,,,,,,00085,2023-10-29_16h52.21.564,vbt_B1_day2,2022.2.4,Win32,59.76571838,,,,,,,,,,,,,,,,,,,,,,,,,,,,,,,,,,,,,,,,,,,,,,,,,,,,,,,,,,,,,,,,,,,
