welcome_mouse.x,welcome_mouse.y,welcome_mouse.leftButton,welcome_mouse.midButton,welcome_mouse.rightButton,welcome_mouse.time,"ID",date,expName,psychopyVersion,OS,frameRate,refresh_mouse.x,refresh_mouse.y,refresh_mouse.leftButton,refresh_mouse.midButton,refresh_mouse.rightButton,refresh_mouse.time,braille_mouse.x,braille_mouse.y,braille_mouse.leftButton,braille_mouse.midButton,braille_mouse.rightButton,braille_mouse.time,trials.thisRepN,trials.thisTrialN,trials.thisN,trials.thisIndex,trials.ran,nlLet,brLet,cbLet,trainInstr_mouse.x,trainInstr_mouse.y,trainInstr_mouse.leftButton,trainInstr_mouse.midButton,trainInstr_mouse.rightButton,trainInstr_mouse.time,translation_key.keys,translation_key.corr,translation_key.rt,word_rsp.text,word_mouse.x,word_mouse.y,word_mouse.leftButton,word_mouse.midButton,word_mouse.rightButton,word_mouse.time,train_loop.thisRepN,train_loop.thisTrialN,train_loop.thisN,train_loop.thisIndex,train_loop.ran,nlWrd,brWrd,cbWrd,test,testResp,mouse.x,mouse.y,mouse.leftButton,mouse.midButton,mouse.rightButton,testInstr_mouse.x,testInstr_mouse.y,testInstr_mouse.leftButton,testInstr_mouse.midButton,testInstr_mouse.rightButton,test_mouse.x,test_mouse.y,test_mouse.leftButton,test_mouse.midButton,test_mouse.rightButton,test_response.text,test_loop.thisRepN,test_loop.thisTrialN,test_loop.thisN,test_loop.thisIndex,test_loop.ran
0.143518519,-0.318518533,1,0,0,17.3166,00063,2023-10-17_20h09.56.240,vbt_B1_day2,2022.2.4,Win32,59.86590038,,,,,,,,,,,,,,,,,,,,,,,,,,,,,,,,,,,,,,,,,,,,,,,,,,,,,,,,,,,,,,,,,,,
,,,,,,00063,2023-10-17_20h09.56.240,vbt_B1_day2,2022.2.4,Win32,59.86590038,0.143518519,-0.318518533,1,0,0,10.77,,,,,,,,,,,,,,,,,,,,,,,,,,,,,,,,,,,,,,,,,,,,,,,,,,,,,,,,,,,,,
,,,,,,00063,2023-10-17_20h09.56.240,vbt_B1_day2,2022.2.4,Win32,59.86590038,,,,,,,0.575925898,-0.030555548,1,0,0,5.07,0,0,0,17,1,r,images/br_r.png,images/cb_r.png,,,,,,,,,,,,,,,,,,,,,,,,,,,,,,,,,,,,,,,,,,,,,,,
,,,,,,00063,2023-10-17_20h09.56.240,vbt_B1_day2,2022.2.4,Win32,59.86590038,,,,,,,0.575925898,-0.030555548,1,0,0,1.9914,0,1,1,23,1,x,images/br_x.png,images/cb_x.png,,,,,,,,,,,,,,,,,,,,,,,,,,,,,,,,,,,,,,,,,,,,,,,
,,,,,,00063,2023-10-17_20h09.56.240,vbt_B1_day2,2022.2.4,Win32,59.86590038,,,,,,,0.575925898,-0.030555548,1,0,0,4.0837,0,2,2,1,1,b,images/br_b.png,images/cb_b.png,,,,,,,,,,,,,,,,,,,,,,,,,,,,,,,,,,,,,,,,,,,,,,,
,,,,,,00063,2023-10-17_20h09.56.240,vbt_B1_day2,2022.2.4,Win32,59.86590038,,,,,,,0.575925898,-0.030555548,1,0,0,8.1508,0,3,3,13,1,n,images/br_n.png,images/cb_n.png,,,,,,,,,,,,,,,,,,,,,,,,,,,,,,,,,,,,,,,,,,,,,,,
,,,,,,00063,2023-10-17_20h09.56.240,vbt_B1_day2,2022.2.4,Win32,59.86590038,,,,,,,0.575925898,-0.030555548,1,0,0,2.417,0,4,4,0,1,a,images/br_a.png,images/cb_a.png,,,,,,,,,,,,,,,,,,,,,,,,,,,,,,,,,,,,,,,,,,,,,,,
,,,,,,00063,2023-10-17_20h09.56.240,vbt_B1_day2,2022.2.4,Win32,59.86590038,,,,,,,0.575925898,-0.030555548,1,0,0,4.7747,0,5,5,7,1,h,images/br_h.png,images/cb_h.png,,,,,,,,,,,,,,,,,,,,,,,,,,,,,,,,,,,,,,,,,,,,,,,
,,,,,,00063,2023-10-17_20h09.56.240,vbt_B1_day2,2022.2.4,Win32,59.86590038,,,,,,,0.575925898,-0.030555548,1,0,0,5.9006,0,6,6,3,1,d,images/br_d.png,images/cb_d.png,,,,,,,,,,,,,,,,,,,,,,,,,,,,,,,,,,,,,,,,,,,,,,,
,,,,,,00063,2023-10-17_20h09.56.240,vbt_B1_day2,2022.2.4,Win32,59.86590038,,,,,,,0.575925898,-0.030555548,1,0,0,2.4838,0,7,7,20,1,u,images/br_u.png,images/cb_u.png,,,,,,,,,,,,,,,,,,,,,,,,,,,,,,,,,,,,,,,,,,,,,,,
,,,,,,00063,2023-10-17_20h09.56.240,vbt_B1_day2,2022.2.4,Win32,59.86590038,,,,,,,0.575925898,-0.030555548,1,0,0,5.8505,0,8,8,21,1,v,images/br_v.png,images/cb_v.png,,,,,,,,,,,,,,,,,,,,,,,,,,,,,,,,,,,,,,,,,,,,,,,
,,,,,,00063,2023-10-17_20h09.56.240,vbt_B1_day2,2022.2.4,Win32,59.86590038,,,,,,,0.575925898,-0.030555548,1,0,0,5.2173,0,9,9,4,1,e,images/br_e.png,images/cb_e.png,,,,,,,,,,,,,,,,,,,,,,,,,,,,,,,,,,,,,,,,,,,,,,,
,,,,,,00063,2023-10-17_20h09.56.240,vbt_B1_day2,2022.2.4,Win32,59.86590038,,,,,,,0.575925898,-0.030555548,1,0,0,5.3671,0,10,10,9,1,j,images/br_j.png,images/cb_j.png,,,,,,,,,,,,,,,,,,,,,,,,,,,,,,,,,,,,,,,,,,,,,,,
,,,,,,00063,2023-10-17_20h09.56.240,vbt_B1_day2,2022.2.4,Win32,59.86590038,,,,,,,0.575925898,-0.030555548,1,0,0,3.6337,0,11,11,6,1,g,images/br_g.png,images/cb_g.png,,,,,,,,,,,,,,,,,,,,,,,,,,,,,,,,,,,,,,,,,,,,,,,
,,,,,,00063,2023-10-17_20h09.56.240,vbt_B1_day2,2022.2.4,Win32,59.86590038,,,,,,,0.575925898,-0.030555548,1,0,0,4.4004,0,12,12,22,1,w,images/br_w.png,images/cb_w.png,,,,,,,,,,,,,,,,,,,,,,,,,,,,,,,,,,,,,,,,,,,,,,,
,,,,,,00063,2023-10-17_20h09.56.240,vbt_B1_day2,2022.2.4,Win32,59.86590038,,,,,,,0.575925898,-0.030555548,1,0,0,3.8001,0,13,13,19,1,t,images/br_t.png,images/cb_t.png,,,,,,,,,,,,,,,,,,,,,,,,,,,,,,,,,,,,,,,,,,,,,,,
,,,,,,00063,2023-10-17_20h09.56.240,vbt_B1_day2,2022.2.4,Win32,59.86590038,,,,,,,0.575925898,-0.030555548,1,0,0,4.6836,0,14,14,12,1,m,images/br_m.png,images/cb_m.png,,,,,,,,,,,,,,,,,,,,,,,,,,,,,,,,,,,,,,,,,,,,,,,
,,,,,,00063,2023-10-17_20h09.56.240,vbt_B1_day2,2022.2.4,Win32,59.86590038,,,,,,,0.575925898,-0.030555548,1,0,0,5.2173,0,15,15,5,1,f,images/br_f.png,images/cb_f.png,,,,,,,,,,,,,,,,,,,,,,,,,,,,,,,,,,,,,,,,,,,,,,,
,,,,,,00063,2023-10-17_20h09.56.240,vbt_B1_day2,2022.2.4,Win32,59.86590038,,,,,,,0.575925898,-0.030555548,1,0,0,4.2168,0,16,16,16,1,q,images/br_q.png,images/cb_q.png,,,,,,,,,,,,,,,,,,,,,,,,,,,,,,,,,,,,,,,,,,,,,,,
,,,,,,00063,2023-10-17_20h09.56.240,vbt_B1_day2,2022.2.4,Win32,59.86590038,,,,,,,0.575925898,-0.030555548,1,0,0,2.4505,0,17,17,2,1,c,images/br_c.png,images/cb_c.png,,,,,,,,,,,,,,,,,,,,,,,,,,,,,,,,,,,,,,,,,,,,,,,
,,,,,,00063,2023-10-17_20h09.56.240,vbt_B1_day2,2022.2.4,Win32,59.86590038,,,,,,,0.575925898,-0.030555548,1,0,0,4.6335,0,18,18,14,1,o,images/br_o.png,images/cb_o.png,,,,,,,,,,,,,,,,,,,,,,,,,,,,,,,,,,,,,,,,,,,,,,,
,,,,,,00063,2023-10-17_20h09.56.240,vbt_B1_day2,2022.2.4,Win32,59.86590038,,,,,,,0.575925898,-0.030555548,1,0,0,7.017,0,19,19,15,1,p,images/br_p.png,images/cb_p.png,,,,,,,,,,,,,,,,,,,,,,,,,,,,,,,,,,,,,,,,,,,,,,,
,,,,,,00063,2023-10-17_20h09.56.240,vbt_B1_day2,2022.2.4,Win32,59.86590038,,,,,,,0.575925898,-0.030555548,1,0,0,3.2671,0,20,20,10,1,k,images/br_k.png,images/cb_k.png,,,,,,,,,,,,,,,,,,,,,,,,,,,,,,,,,,,,,,,,,,,,,,,
,,,,,,00063,2023-10-17_20h09.56.240,vbt_B1_day2,2022.2.4,Win32,59.86590038,,,,,,,0.575925898,-0.030555548,1,0,0,5.9336,0,21,21,8,1,i,images/br_i.png,images/cb_i.png,,,,,,,,,,,,,,,,,,,,,,,,,,,,,,,,,,,,,,,,,,,,,,,
,,,,,,00063,2023-10-17_20h09.56.240,vbt_B1_day2,2022.2.4,Win32,59.86590038,,,,,,,0.575925898,-0.030555548,1,0,0,5.3838,0,22,22,18,1,s,images/br_s.png,images/cb_s.png,,,,,,,,,,,,,,,,,,,,,,,,,,,,,,,,,,,,,,,,,,,,,,,
,,,,,,00063,2023-10-17_20h09.56.240,vbt_B1_day2,2022.2.4,Win32,59.86590038,,,,,,,0.575925898,-0.030555548,1,0,0,5.667,0,23,23,24,1,y,images/br_y.png,images/cb_y.png,,,,,,,,,,,,,,,,,,,,,,,,,,,,,,,,,,,,,,,,,,,,,,,
,,,,,,00063,2023-10-17_20h09.56.240,vbt_B1_day2,2022.2.4,Win32,59.86590038,,,,,,,0.575925898,-0.030555548,1,0,0,4.3837,0,24,24,25,1,z,images/br_z.png,images/cb_z.png,,,,,,,,,,,,,,,,,,,,,,,,,,,,,,,,,,,,,,,,,,,,,,,
,,,,,,00063,2023-10-17_20h09.56.240,vbt_B1_day2,2022.2.4,Win32,59.86590038,,,,,,,0.575925898,-0.030555548,1,0,0,1.7168,0,25,25,11,1,l,images/br_l.png,images/cb_l.png,,,,,,,,,,,,,,,,,,,,,,,,,,,,,,,,,,,,,,,,,,,,,,,
,,,,,,00063,2023-10-17_20h09.56.240,vbt_B1_day2,2022.2.4,Win32,59.86590038,,,,,,,,,,,,,,,,,,,,,0.575925898,-0.030555548,1,0,0,30.0162,,,,,,,,,,,,,,,,,,,,,,,,,,,,,,,,,,,,,,,,,
,,,,,,00063,2023-10-17_20h09.56.240,vbt_B1_day2,2022.2.4,Win32,59.86590038,,,,,,,,,,,,,,,,,,,,,,,,,,,down,0,17.3652,,0.575925898,-0.030555548,1,0,0,15.2615,0,0,0,184,1,aandelen,images/br_aandelen.png,images/cb_aandelen.png,0,,,,,,,,,,,,,,,,,,,,,,
,,,,,,00063,2023-10-17_20h09.56.240,vbt_B1_day2,2022.2.4,Win32,59.86590038,,,,,,,,,,,,,,,,,,,,,,,,,,,down,0,3.2274,,0.575925898,-0.030555548,1,0,0,9.9838,0,1,1,1,1,zaal,images/br_zaal.png,images/cb_zaal.png,0,,,,,,,,,,,,,,,,,,,,,,
,,,,,,00063,2023-10-17_20h09.56.240,vbt_B1_day2,2022.2.4,Win32,59.86590038,,,,,,,,,,,,,,,,,,,,,,,,,,,down,0,6.5114,,0.575925898,-0.030555548,1,0,0,3.3,0,2,2,111,1,ticket,images/br_ticket.png,images/cb_ticket.png,0,,,,,,,,,,,,,,,,,,,,,,
,,,,,,00063,2023-10-17_20h09.56.240,vbt_B1_day2,2022.2.4,Win32,59.86590038,,,,,,,,,,,,,,,,,,,,,,,,,,,down,0,6.8071,,0.575925898,-0.030555548,1,0,0,3.5668,0,3,3,65,1,parel,images/br_parel.png,images/cb_parel.png,0,,,,,,,,,,,,,,,,,,,,,,
,,,,,,00063,2023-10-17_20h09.56.240,vbt_B1_day2,2022.2.4,Win32,59.86590038,,,,,,,,,,,,,,,,,,,,,,,,,,,down,0,10.9729,,0.575925898,-0.030555548,1,0,0,13.117,0,4,4,168,1,bisschop,images/br_bisschop.png,images/cb_bisschop.png,0,,,,,,,,,,,,,,,,,,,,,,
,,,,,,00063,2023-10-17_20h09.56.240,vbt_B1_day2,2022.2.4,Win32,59.86590038,,,,,,,,,,,,,,,,,,,,,,,,,,,down,0,9.2018,,0.575925898,-0.030555548,1,0,0,23.0842,0,5,5,191,1,opheffen,images/br_opheffen.png,images/cb_opheffen.png,0,,,,,,,,,,,,,,,,,,,,,,
,,,,,,00063,2023-10-17_20h09.56.240,vbt_B1_day2,2022.2.4,Win32,59.86590038,,,,,,,,,,,,,,,,,,,,,,,,,,,down,0,23.3192,,0.575925898,-0.030555548,1,0,0,1.6999,0,6,6,180,1,openbaar,images/br_openbaar.png,images/cb_openbaar.png,0,,,,,,,,,,,,,,,,,,,,,,
,,,,,,00063,2023-10-17_20h09.56.240,vbt_B1_day2,2022.2.4,Win32,59.86590038,,,,,,,,,,,,,,,,,,,,,,,,,,,down,0,11.2069,,0.575925898,-0.030555548,1,0,0,6.9666,0,7,7,145,1,invloed,images/br_invloed.png,images/cb_invloed.png,0,,,,,,,,,,,,,,,,,,,,,,
,,,,,,00063,2023-10-17_20h09.56.240,vbt_B1_day2,2022.2.4,Win32,59.86590038,,,,,,,,,,,,,,,,,,,,,,,,,,,down,0,16.4079,,0.575925898,-0.030555548,1,0,0,1.917,0,8,8,137,1,trekker,images/br_trekker.png,images/cb_trekker.png,1,trekker,,,,,,,,,,,,,,,,,,,,,
,,,,,,00063,2023-10-17_20h09.56.240,vbt_B1_day2,2022.2.4,Win32,59.86590038,,,,,,,,,,,,,,,,,,,,,,,,,,,down,0,8.9455,,0.575925898,-0.030555548,1,0,0,1.5831,0,9,9,190,1,goedkoop,images/br_goedkoop.png,images/cb_goedkoop.png,0,,,,,,,,,,,,,,,,,,,,,,
,,,,,,00063,2023-10-17_20h09.56.240,vbt_B1_day2,2022.2.4,Win32,59.86590038,,,,,,,,,,,,,,,,,,,,,,,,,,,down,0,16.8347,,0.575925898,-0.030555548,1,0,0,0.6406,0,10,10,163,1,schuilen,images/br_schuilen.png,images/cb_schuilen.png,0,,,,,,,,,,,,,,,,,,,,,,
,,,,,,00063,2023-10-17_20h09.56.240,vbt_B1_day2,2022.2.4,Win32,59.86590038,,,,,,,,,,,,,,,,,,,,,,,,,,,down,0,14.1584,,0.575925898,-0.030555548,1,0,0,8.4503,0,11,11,140,1,blijven,images/br_blijven.png,images/cb_blijven.png,0,,,,,,,,,,,,,,,,,,,,,,
,,,,,,00063,2023-10-17_20h09.56.240,vbt_B1_day2,2022.2.4,Win32,59.86590038,,,,,,,,,,,,,,,,,,,,,,,,,,,down,0,9.7152,,0.420370455,0.092592593,1,0,0,20.8126,0,12,12,159,1,sufferd,images/br_sufferd.png,images/cb_sufferd.png,0,,,,,,,,,,,,,,,,,,,,,,
,,,,,,00063,2023-10-17_20h09.56.240,vbt_B1_day2,2022.2.4,Win32,59.86590038,,,,,,,,,,,,,,,,,,,,,,,,,,,down,0,2.4368,,0.420370455,0.092592593,1,0,0,0.9831,0,13,13,29,1,baas,images/br_baas.png,images/cb_baas.png,0,,,,,,,,,,,,,,,,,,,,,,
,,,,,,00063,2023-10-17_20h09.56.240,vbt_B1_day2,2022.2.4,Win32,59.86590038,,,,,,,,,,,,,,,,,,,,,,,,,,,down,0,13.2099,,0.420370455,0.092592593,1,0,0,11.7252,0,14,14,77,1,woede,images/br_woede.png,images/cb_woede.png,0,,,,,,,,,,,,,,,,,,,,,,
,,,,,,00063,2023-10-17_20h09.56.240,vbt_B1_day2,2022.2.4,Win32,59.86590038,,,,,,,,,,,,,,,,,,,,,,,,,,,down,0,14.5359,,0.420370455,0.092592593,1,0,0,6.6099,0,15,15,80,1,kanjer,images/br_kanjer.png,images/cb_kanjer.png,0,,,,,,,,,,,,,,,,,,,,,,
,,,,,,00063,2023-10-17_20h09.56.240,vbt_B1_day2,2022.2.4,Win32,59.86590038,,,,,,,,,,,,,,,,,,,,,,,,,,,down,0,4.0041,,0.420370455,0.092592593,1,0,0,1.0332,0,16,16,71,1,bever,images/br_bever.png,images/cb_bever.png,0,,,,,,,,,,,,,,,,,,,,,,
,,,,,,00063,2023-10-17_20h09.56.240,vbt_B1_day2,2022.2.4,Win32,59.86590038,,,,,,,,,,,,,,,,,,,,,,,,,,,down,0,8.8583,,0.420370455,0.092592593,1,0,0,4.6242,0,17,17,182,1,bijkomen,images/br_bijkomen.png,images/cb_bijkomen.png,0,,,,,,,,,,,,,,,,,,,,,,
,,,,,,00063,2023-10-17_20h09.56.240,vbt_B1_day2,2022.2.4,Win32,59.86590038,,,,,,,,,,,,,,,,,,,,,,,,,,,down,0,8.7745,,0.420370455,0.092592593,1,0,0,7.858,0,18,18,130,1,keihard,images/br_keihard.png,images/cb_keihard.png,0,,,,,,,,,,,,,,,,,,,,,,
,,,,,,00063,2023-10-17_20h09.56.240,vbt_B1_day2,2022.2.4,Win32,59.86590038,,,,,,,,,,,,,,,,,,,,,,,,,,,down,0,8.9749,,0.420370455,0.092592593,1,0,0,0.5664,0,19,19,76,1,afval,images/br_afval.png,images/cb_afval.png,0,,,,,,,,,,,,,,,,,,,,,,
,,,,,,00063,2023-10-17_20h09.56.240,vbt_B1_day2,2022.2.4,Win32,59.86590038,,,,,,,,,,,,,,,,,,,,,,,,,,,down,0,6.139,,0.420370455,0.092592593,1,0,0,0.8174,0,20,20,138,1,akkoord,images/br_akkoord.png,images/cb_akkoord.png,1,akkoord,,,,,,,,,,,,,,,,,,,,,
,,,,,,00063,2023-10-17_20h09.56.240,vbt_B1_day2,2022.2.4,Win32,59.86590038,,,,,,,,,,,,,,,,,,,,,,,,,,,down,0,6.5776,,0.420370455,0.092592593,1,0,0,0.8165,0,21,21,70,1,ijdel,images/br_ijdel.png,images/cb_ijdel.png,0,,,,,,,,,,,,,,,,,,,,,,
,,,,,,00063,2023-10-17_20h09.56.240,vbt_B1_day2,2022.2.4,Win32,59.86590038,,,,,,,,,,,,,,,,,,,,,,,,,,,down,0,9.501,,0.420370455,0.092592593,1,0,0,0.5509,0,22,22,86,1,woning,images/br_woning.png,images/cb_woning.png,0,,,,,,,,,,,,,,,,,,,,,,
,,,,,,00063,2023-10-17_20h09.56.240,vbt_B1_day2,2022.2.4,Win32,59.86590038,,,,,,,,,,,,,,,,,,,,,,,,,,,down,0,17.3554,,0.420370455,0.092592593,1,0,0,7.9835,0,23,23,125,1,aanzien,images/br_aanzien.png,images/cb_aanzien.png,0,,,,,,,,,,,,,,,,,,,,,,
,,,,,,00063,2023-10-17_20h09.56.240,vbt_B1_day2,2022.2.4,Win32,59.86590038,,,,,,,,,,,,,,,,,,,,,,,,,,,down,0,3.7013,,0.420370455,0.092592593,1,0,0,0.8255,0,24,24,48,1,steel,images/br_steel.png,images/cb_steel.png,0,,,,,,,,,,,,,,,,,,,,,,
,,,,,,00063,2023-10-17_20h09.56.240,vbt_B1_day2,2022.2.4,Win32,59.86590038,,,,,,,,,,,,,,,,,,,,,,,,,,,down,0,3.2176,,0.420370455,0.092592593,1,0,0,0.5667,0,25,25,8,1,knie,images/br_knie.png,images/cb_knie.png,0,,,,,,,,,,,,,,,,,,,,,,
,,,,,,00063,2023-10-17_20h09.56.240,vbt_B1_day2,2022.2.4,Win32,59.86590038,,,,,,,,,,,,,,,,,,,,,,,,,,,down,0,6.0507,,0.420370455,0.092592593,1,0,0,0.9004,0,26,26,84,1,lokken,images/br_lokken.png,images/cb_lokken.png,0,,,,,,,,,,,,,,,,,,,,,,
,,,,,,00063,2023-10-17_20h09.56.240,vbt_B1_day2,2022.2.4,Win32,59.86590038,,,,,,,,,,,,,,,,,,,,,,,,,,,down,0,9.8277,,0.420370455,0.092592593,1,0,0,0.5831,0,27,27,187,1,opkijken,images/br_opkijken.png,images/cb_opkijken.png,0,,,,,,,,,,,,,,,,,,,,,,
,,,,,,00063,2023-10-17_20h09.56.240,vbt_B1_day2,2022.2.4,Win32,59.86590038,,,,,,,,,,,,,,,,,,,,,,,,,,,down,0,2.2408,,0.420370455,0.092592593,1,0,0,0.5998,0,28,28,53,1,baron,images/br_baron.png,images/cb_baron.png,0,,,,,,,,,,,,,,,,,,,,,,
,,,,,,00063,2023-10-17_20h09.56.240,vbt_B1_day2,2022.2.4,Win32,59.86590038,,,,,,,,,,,,,,,,,,,,,,,,,,,down,0,10.37,,0.420370455,0.092592593,1,0,0,3.8166,0,29,29,183,1,getuigen,images/br_getuigen.png,images/cb_getuigen.png,0,,,,,,,,,,,,,,,,,,,,,,
,,,,,,00063,2023-10-17_20h09.56.240,vbt_B1_day2,2022.2.4,Win32,59.86590038,,,,,,,,,,,,,,,,,,,,,,,,,,,down,0,27.5428,,0.420370455,0.092592593,1,0,0,0.6003,0,30,30,56,1,traag,images/br_traag.png,images/cb_traag.png,1,traag,,,,,,,,,,,,,,,,,,,,,
,,,,,,00063,2023-10-17_20h09.56.240,vbt_B1_day2,2022.2.4,Win32,59.86590038,,,,,,,,,,,,,,,,,,,,,,,,,,,down,0,4.5092,,0.420370455,0.092592593,1,0,0,0.6834,0,31,31,45,1,piste,images/br_piste.png,images/cb_piste.png,0,,,,,,,,,,,,,,,,,,,,,,
,,,,,,00063,2023-10-17_20h09.56.240,vbt_B1_day2,2022.2.4,Win32,59.86590038,,,,,,,,,,,,,,,,,,,,,,,,,,,down,0,1.4505,,0.420370455,0.092592593,1,0,0,0.5666,0,32,32,13,1,kaal,images/br_kaal.png,images/cb_kaal.png,0,,,,,,,,,,,,,,,,,,,,,,
,,,,,,00063,2023-10-17_20h09.56.240,vbt_B1_day2,2022.2.4,Win32,59.86590038,,,,,,,,,,,,,,,,,,,,,,,,,,,down,0,13.5514,,0.420370455,0.092592593,1,0,0,3.2592,0,33,33,185,1,mijnheer,images/br_mijnheer.png,images/cb_mijnheer.png,0,,,,,,,,,,,,,,,,,,,,,,
,,,,,,00063,2023-10-17_20h09.56.240,vbt_B1_day2,2022.2.4,Win32,59.86590038,,,,,,,,,,,,,,,,,,,,,,,,,,,down,0,7.0008,,0.420370455,0.092592593,1,0,0,2.8335,0,34,34,44,1,flits,images/br_flits.png,images/cb_flits.png,0,,,,,,,,,,,,,,,,,,,,,,
,,,,,,00063,2023-10-17_20h09.56.240,vbt_B1_day2,2022.2.4,Win32,59.86590038,,,,,,,,,,,,,,,,,,,,,,,,,,,down,0,8.9446,,0.420370455,0.092592593,1,0,0,1.8761,0,35,35,122,1,waarvan,images/br_waarvan.png,images/cb_waarvan.png,0,,,,,,,,,,,,,,,,,,,,,,
,,,,,,00063,2023-10-17_20h09.56.240,vbt_B1_day2,2022.2.4,Win32,59.86590038,,,,,,,,,,,,,,,,,,,,,,,,,,,down,0,7.4846,,0.420370455,0.092592593,1,0,0,0.5429,0,36,36,117,1,kennis,images/br_kennis.png,images/cb_kennis.png,0,,,,,,,,,,,,,,,,,,,,,,
,,,,,,00063,2023-10-17_20h09.56.240,vbt_B1_day2,2022.2.4,Win32,59.86590038,,,,,,,,,,,,,,,,,,,,,,,,,,,down,0,6.3015,,0.420370455,0.092592593,1,0,0,0.6077,0,37,37,128,1,prikken,images/br_prikken.png,images/cb_prikken.png,0,,,,,,,,,,,,,,,,,,,,,,
,,,,,,00063,2023-10-17_20h09.56.240,vbt_B1_day2,2022.2.4,Win32,59.86590038,,,,,,,,,,,,,,,,,,,,,,,,,,,down,0,8.2268,,0.420370455,0.092592593,1,0,0,0.7166,0,38,38,85,1,heilig,images/br_heilig.png,images/cb_heilig.png,0,,,,,,,,,,,,,,,,,,,,,,
,,,,,,00063,2023-10-17_20h09.56.240,vbt_B1_day2,2022.2.4,Win32,59.86590038,,,,,,,,,,,,,,,,,,,,,,,,,,,down,0,9.8839,,0.420370455,0.092592593,1,0,0,2.9834,0,39,39,94,1,oceaan,images/br_oceaan.png,images/cb_oceaan.png,0,,,,,,,,,,,,,,,,,,,,,,
,,,,,,00063,2023-10-17_20h09.56.240,vbt_B1_day2,2022.2.4,Win32,59.86590038,,,,,,,,,,,,,,,,,,,,,,,,,,,down,0,12.8895,,0.420370455,0.092592593,1,0,0,4.3905,0,40,40,171,1,aarzelen,images/br_aarzelen.png,images/cb_aarzelen.png,0,,,,,,,,,,,,,,,,,,,,,,
,,,,,,00063,2023-10-17_20h09.56.240,vbt_B1_day2,2022.2.4,Win32,59.86590038,,,,,,,,,,,,,,,,,,,,,,,,,,,down,0,8.268,,0.420370455,0.092592593,1,0,0,0.5504,0,41,41,58,1,tekst,images/br_tekst.png,images/cb_tekst.png,1,tekst,,,,,,,,,,,,,,,,,,,,,
,,,,,,00063,2023-10-17_20h09.56.240,vbt_B1_day2,2022.2.4,Win32,59.86590038,,,,,,,,,,,,,,,,,,,,,,,,,,,down,0,2.877,,0.420370455,0.092592593,1,0,0,0.5238,0,42,42,103,1,joggen,images/br_joggen.png,images/cb_joggen.png,0,,,,,,,,,,,,,,,,,,,,,,
,,,,,,00063,2023-10-17_20h09.56.240,vbt_B1_day2,2022.2.4,Win32,59.86590038,,,,,,,,,,,,,,,,,,,,,,,,,,,down,0,7.2178,,0.420370455,0.092592593,1,0,0,0.6142,0,43,43,91,1,gezond,images/br_gezond.png,images/cb_gezond.png,0,,,,,,,,,,,,,,,,,,,,,,
,,,,,,00063,2023-10-17_20h09.56.240,vbt_B1_day2,2022.2.4,Win32,59.86590038,,,,,,,,,,,,,,,,,,,,,,,,,,,down,0,9.685,,0.420370455,0.092592593,1,0,0,0.5258,0,44,44,109,1,totaal,images/br_totaal.png,images/cb_totaal.png,0,,,,,,,,,,,,,,,,,,,,,,
,,,,,,00063,2023-10-17_20h09.56.240,vbt_B1_day2,2022.2.4,Win32,59.86590038,,,,,,,,,,,,,,,,,,,,,,,,,,,down,0,5.7759,,0.420370455,0.092592593,1,0,0,2.9414,0,45,45,82,1,muziek,images/br_muziek.png,images/cb_muziek.png,0,,,,,,,,,,,,,,,,,,,,,,
,,,,,,00063,2023-10-17_20h09.56.240,vbt_B1_day2,2022.2.4,Win32,59.86590038,,,,,,,,,,,,,,,,,,,,,,,,,,,down,0,7.1702,,0.420370455,0.092592593,1,0,0,0.5167,0,46,46,124,1,bloeien,images/br_bloeien.png,images/cb_bloeien.png,0,,,,,,,,,,,,,,,,,,,,,,
,,,,,,00063,2023-10-17_20h09.56.240,vbt_B1_day2,2022.2.4,Win32,59.86590038,,,,,,,,,,,,,,,,,,,,,,,,,,,down,0,16.0526,,0.420370455,0.092592593,1,0,0,0.5504,0,47,47,179,1,woestijn,images/br_woestijn.png,images/cb_woestijn.png,1,woestijn,,,,,,,,,,,,,,,,,,,,,
,,,,,,00063,2023-10-17_20h09.56.240,vbt_B1_day2,2022.2.4,Win32,59.86590038,,,,,,,,,,,,,,,,,,,,,,,,,,,down,0,9.3009,,0.420370455,0.092592593,1,0,0,0.4164,0,48,48,36,1,vuur,images/br_vuur.png,images/cb_vuur.png,0,,,,,,,,,,,,,,,,,,,,,,
,,,,,,00063,2023-10-17_20h09.56.240,vbt_B1_day2,2022.2.4,Win32,59.86590038,,,,,,,,,,,,,,,,,,,,,,,,,,,down,0,3.4347,,0.420370455,0.092592593,1,0,0,0.5331,0,49,49,0,1,slak,images/br_slak.png,images/cb_slak.png,0,,,,,,,,,,,,,,,,,,,,,,
,,,,,,00063,2023-10-17_20h09.56.240,vbt_B1_day2,2022.2.4,Win32,59.86590038,,,,,,,,,,,,,,,,,,,,,,,,,,,down,0,3.9011,,0.420370455,0.092592593,1,0,0,0.4162,0,50,50,87,1,toeval,images/br_toeval.png,images/cb_toeval.png,0,,,,,,,,,,,,,,,,,,,,,,
,,,,,,00063,2023-10-17_20h09.56.240,vbt_B1_day2,2022.2.4,Win32,59.86590038,,,,,,,,,,,,,,,,,,,,,,,,,,,down,0,23.1201,,0.442592621,0.087037016,1,0,0,3.8834,0,51,51,129,1,verhaal,images/br_verhaal.png,images/cb_verhaal.png,0,,,,,,,,,,,,,,,,,,,,,,
,,,,,,00063,2023-10-17_20h09.56.240,vbt_B1_day2,2022.2.4,Win32,59.86590038,,,,,,,,,,,,,,,,,,,,,,,,,,,down,0,4.2381,,0.442592621,0.087037016,1,0,0,0.4165,0,52,52,59,1,kring,images/br_kring.png,images/cb_kring.png,1,kring,,,,,,,,,,,,,,,,,,,,,
,,,,,,00063,2023-10-17_20h09.56.240,vbt_B1_day2,2022.2.4,Win32,59.86590038,,,,,,,,,,,,,,,,,,,,,,,,,,,down,0,4.7684,,0.442592621,0.087037016,1,0,0,0.5078,0,53,53,69,1,waken,images/br_waken.png,images/cb_waken.png,0,,,,,,,,,,,,,,,,,,,,,,
,,,,,,00063,2023-10-17_20h09.56.240,vbt_B1_day2,2022.2.4,Win32,59.86590038,,,,,,,,,,,,,,,,,,,,,,,,,,,down,0,2.3077,,0.442592621,0.087037016,1,0,0,0.3834,0,54,54,33,1,vlek,images/br_vlek.png,images/cb_vlek.png,0,,,,,,,,,,,,,,,,,,,,,,
,,,,,,00063,2023-10-17_20h09.56.240,vbt_B1_day2,2022.2.4,Win32,59.86590038,,,,,,,,,,,,,,,,,,,,,,,,,,,down,0,0.7577,,0.442592621,0.087037016,1,0,0,0.5832,0,55,55,7,1,geld,images/br_geld.png,images/cb_geld.png,0,,,,,,,,,,,,,,,,,,,,,,
,,,,,,00063,2023-10-17_20h09.56.240,vbt_B1_day2,2022.2.4,Win32,59.86590038,,,,,,,,,,,,,,,,,,,,,,,,,,,down,0,17.8379,,0.442592621,0.087037016,1,0,0,6.0244,0,56,56,167,1,eenhoorn,images/br_eenhoorn.png,images/cb_eenhoorn.png,0,,,,,,,,,,,,,,,,,,,,,,
,,,,,,00063,2023-10-17_20h09.56.240,vbt_B1_day2,2022.2.4,Win32,59.86590038,,,,,,,,,,,,,,,,,,,,,,,,,,,down,0,6.1557,,0.442592621,0.087037016,1,0,0,0.5666,0,57,57,155,1,gerucht,images/br_gerucht.png,images/cb_gerucht.png,0,,,,,,,,,,,,,,,,,,,,,,
,,,,,,00063,2023-10-17_20h09.56.240,vbt_B1_day2,2022.2.4,Win32,59.86590038,,,,,,,,,,,,,,,,,,,,,,,,,,,down,0,5.8544,,0.442592621,0.087037016,1,0,0,0.5496,0,58,58,120,1,klimmen,images/br_klimmen.png,images/cb_klimmen.png,0,,,,,,,,,,,,,,,,,,,,,,
,,,,,,00063,2023-10-17_20h09.56.240,vbt_B1_day2,2022.2.4,Win32,59.86590038,,,,,,,,,,,,,,,,,,,,,,,,,,,down,0,6.8078,,0.442592621,0.087037016,1,0,0,0.4494,0,59,59,114,1,vullen,images/br_vullen.png,images/cb_vullen.png,0,,,,,,,,,,,,,,,,,,,,,,
,,,,,,00063,2023-10-17_20h09.56.240,vbt_B1_day2,2022.2.4,Win32,59.86590038,,,,,,,,,,,,,,,,,,,,,,,,,,,down,0,14.3345,,0.442592621,0.087037016,1,0,0,9.8585,0,60,60,67,1,zwart,images/br_zwart.png,images/cb_zwart.png,0,,,,,,,,,,,,,,,,,,,,,,
,,,,,,00063,2023-10-17_20h09.56.240,vbt_B1_day2,2022.2.4,Win32,59.86590038,,,,,,,,,,,,,,,,,,,,,,,,,,,down,0,3.9045,,0.442592621,0.089814822,1,0,0,2.2005,0,61,61,6,1,diep,images/br_diep.png,images/cb_diep.png,0,,,,,,,,,,,,,,,,,,,,,,
,,,,,,00063,2023-10-17_20h09.56.240,vbt_B1_day2,2022.2.4,Win32,59.86590038,,,,,,,,,,,,,,,,,,,,,,,,,,,down,0,17.7514,,0.442592621,0.089814822,1,0,0,3.9333,0,62,62,107,1,maling,images/br_maling.png,images/cb_maling.png,0,,,,,,,,,,,,,,,,,,,,,,
,,,,,,00063,2023-10-17_20h09.56.240,vbt_B1_day2,2022.2.4,Win32,59.86590038,,,,,,,,,,,,,,,,,,,,,,,,,,,down,0,8.6849,,0.442592621,0.089814822,1,0,0,0.6829,0,63,63,127,1,doodmoe,images/br_doodmoe.png,images/cb_doodmoe.png,0,,,,,,,,,,,,,,,,,,,,,,
,,,,,,00063,2023-10-17_20h09.56.240,vbt_B1_day2,2022.2.4,Win32,59.86590038,,,,,,,,,,,,,,,,,,,,,,,,,,,down,0,9.9349,,0.442592621,0.089814822,1,0,0,2.4511,0,64,64,181,1,toegeven,images/br_toegeven.png,images/cb_toegeven.png,0,,,,,,,,,,,,,,,,,,,,,,
,,,,,,00063,2023-10-17_20h09.56.240,vbt_B1_day2,2022.2.4,Win32,59.86590038,,,,,,,,,,,,,,,,,,,,,,,,,,,down,0,15.8528,,0.442592621,0.089814822,1,0,0,0.4661,0,65,65,121,1,twijfel,images/br_twijfel.png,images/cb_twijfel.png,0,,,,,,,,,,,,,,,,,,,,,,
,,,,,,00063,2023-10-17_20h09.56.240,vbt_B1_day2,2022.2.4,Win32,59.86590038,,,,,,,,,,,,,,,,,,,,,,,,,,,down,0,3.9046,,0.442592621,0.089814822,1,0,0,0.5999,0,66,66,68,1,schat,images/br_schat.png,images/cb_schat.png,0,,,,,,,,,,,,,,,,,,,,,,
,,,,,,00063,2023-10-17_20h09.56.240,vbt_B1_day2,2022.2.4,Win32,59.86590038,,,,,,,,,,,,,,,,,,,,,,,,,,,down,0,4.3062,,0.442592621,0.089814822,1,0,0,0.4164,0,67,67,51,1,samen,images/br_samen.png,images/cb_samen.png,0,,,,,,,,,,,,,,,,,,,,,,
,,,,,,00063,2023-10-17_20h09.56.240,vbt_B1_day2,2022.2.4,Win32,59.86590038,,,,,,,,,,,,,,,,,,,,,,,,,,,down,0,4.756,,0.442592621,0.089814822,1,0,0,0.7352,0,68,68,139,1,stiekem,images/br_stiekem.png,images/cb_stiekem.png,1,stiekem,,,,,,,,,,,,,,,,,,,,,
,,,,,,00063,2023-10-17_20h09.56.240,vbt_B1_day2,2022.2.4,Win32,59.86590038,,,,,,,,,,,,,,,,,,,,,,,,,,,down,0,17.736,,0.442592621,0.089814822,1,0,0,0.5333,0,69,69,194,1,driemaal,images/br_driemaal.png,images/cb_driemaal.png,0,,,,,,,,,,,,,,,,,,,,,,
,,,,,,00063,2023-10-17_20h09.56.240,vbt_B1_day2,2022.2.4,Win32,59.86590038,,,,,,,,,,,,,,,,,,,,,,,,,,,down,0,6.5347,,0.442592621,0.089814822,1,0,0,0.5499,0,70,70,63,1,flirt,images/br_flirt.png,images/cb_flirt.png,0,,,,,,,,,,,,,,,,,,,,,,
,,,,,,00063,2023-10-17_20h09.56.240,vbt_B1_day2,2022.2.4,Win32,59.86590038,,,,,,,,,,,,,,,,,,,,,,,,,,,down,0,9.3684,,0.442592621,0.089814822,1,0,0,0.5996,0,71,71,55,1,praat,images/br_praat.png,images/cb_praat.png,0,,,,,,,,,,,,,,,,,,,,,,
,,,,,,00063,2023-10-17_20h09.56.240,vbt_B1_day2,2022.2.4,Win32,59.86590038,,,,,,,,,,,,,,,,,,,,,,,,,,,down,0,2.1875,,0.442592621,0.089814822,1,0,0,0.5162,0,72,72,37,1,mijn,images/br_mijn.png,images/cb_mijn.png,0,,,,,,,,,,,,,,,,,,,,,,
,,,,,,00063,2023-10-17_20h09.56.240,vbt_B1_day2,2022.2.4,Win32,59.86590038,,,,,,,,,,,,,,,,,,,,,,,,,,,down,0,2.2526,,0.442592621,0.089814822,1,0,0,0.4332,0,73,73,19,1,geit,images/br_geit.png,images/cb_geit.png,1,geit,,,,,,,,,,,,,,,,,,,,,
,,,,,,00063,2023-10-17_20h09.56.240,vbt_B1_day2,2022.2.4,Win32,59.86590038,,,,,,,,,,,,,,,,,,,,,,,,,,,down,0,3.0383,,0.442592621,0.089814822,1,0,0,0.4076,0,74,74,52,1,wagon,images/br_wagon.png,images/cb_wagon.png,0,,,,,,,,,,,,,,,,,,,,,,
,,,,,,00063,2023-10-17_20h09.56.240,vbt_B1_day2,2022.2.4,Win32,59.86590038,,,,,,,,,,,,,,,,,,,,,,,,,,,down,0,19.569,,0.442592621,0.089814822,1,0,0,5.1335,0,75,75,199,1,beseffen,images/br_beseffen.png,images/cb_beseffen.png,0,,,,,,,,,,,,,,,,,,,,,,
,,,,,,00063,2023-10-17_20h09.56.240,vbt_B1_day2,2022.2.4,Win32,59.86590038,,,,,,,,,,,,,,,,,,,,,,,,,,,down,0,5.4202,,0.442592621,0.089814822,1,0,0,0.5332,0,76,76,47,1,kabel,images/br_kabel.png,images/cb_kabel.png,0,,,,,,,,,,,,,,,,,,,,,,
,,,,,,00063,2023-10-17_20h09.56.240,vbt_B1_day2,2022.2.4,Win32,59.86590038,,,,,,,,,,,,,,,,,,,,,,,,,,,down,0,7.9816,,0.442592621,0.089814822,1,0,0,0.5285,0,77,77,170,1,schatten,images/br_schatten.png,images/cb_schatten.png,0,,,,,,,,,,,,,,,,,,,,,,
,,,,,,00063,2023-10-17_20h09.56.240,vbt_B1_day2,2022.2.4,Win32,59.86590038,,,,,,,,,,,,,,,,,,,,,,,,,,,down,0,3.267,,0.442592621,0.089814822,1,0,0,0.5926,0,78,78,88,1,boeien,images/br_boeien.png,images/cb_boeien.png,0,,,,,,,,,,,,,,,,,,,,,,
,,,,,,00063,2023-10-17_20h09.56.240,vbt_B1_day2,2022.2.4,Win32,59.86590038,,,,,,,,,,,,,,,,,,,,,,,,,,,down,0,8.4421,,0.442592621,0.089814822,1,0,0,1.5844,0,79,79,133,1,seizoen,images/br_seizoen.png,images/cb_seizoen.png,0,,,,,,,,,,,,,,,,,,,,,,
,,,,,,00063,2023-10-17_20h09.56.240,vbt_B1_day2,2022.2.4,Win32,59.86590038,,,,,,,,,,,,,,,,,,,,,,,,,,,down,0,15.8217,,0.442592621,0.089814822,1,0,0,5.3167,0,80,80,149,1,redding,images/br_redding.png,images/cb_redding.png,0,,,,,,,,,,,,,,,,,,,,,,
,,,,,,00063,2023-10-17_20h09.56.240,vbt_B1_day2,2022.2.4,Win32,59.86590038,,,,,,,,,,,,,,,,,,,,,,,,,,,down,0,10.052,,0.442592621,0.089814822,1,0,0,0.4665,0,81,81,195,1,middelen,images/br_middelen.png,images/cb_middelen.png,0,,,,,,,,,,,,,,,,,,,,,,
,,,,,,00063,2023-10-17_20h09.56.240,vbt_B1_day2,2022.2.4,Win32,59.86590038,,,,,,,,,,,,,,,,,,,,,,,,,,,down,0,13.1383,,0.442592621,0.089814822,1,0,0,0.6168,0,82,82,165,1,feestdag,images/br_feestdag.png,images/cb_feestdag.png,0,,,,,,,,,,,,,,,,,,,,,,
,,,,,,00063,2023-10-17_20h09.56.240,vbt_B1_day2,2022.2.4,Win32,59.86590038,,,,,,,,,,,,,,,,,,,,,,,,,,,down,0,3.8618,,0.442592621,0.089814822,1,0,0,0.5674,0,83,83,96,1,slagen,images/br_slagen.png,images/cb_slagen.png,1,slagen,,,,,,,,,,,,,,,,,,,,,
,,,,,,00063,2023-10-17_20h09.56.240,vbt_B1_day2,2022.2.4,Win32,59.86590038,,,,,,,,,,,,,,,,,,,,,,,,,,,down,0,11.4577,,0.442592621,0.089814822,1,0,0,0.7168,0,84,84,110,1,zuster,images/br_zuster.png,images/cb_zuster.png,0,,,,,,,,,,,,,,,,,,,,,,
,,,,,,00063,2023-10-17_20h09.56.240,vbt_B1_day2,2022.2.4,Win32,59.86590038,,,,,,,,,,,,,,,,,,,,,,,,,,,down,0,3.8673,,0.442592621,0.089814822,1,0,0,0.5162,0,85,85,126,1,kasteel,images/br_kasteel.png,images/cb_kasteel.png,0,,,,,,,,,,,,,,,,,,,,,,
,,,,,,00063,2023-10-17_20h09.56.240,vbt_B1_day2,2022.2.4,Win32,59.86590038,,,,,,,,,,,,,,,,,,,,,,,,,,,down,0,6.0252,,0.442592621,0.089814822,1,0,0,1.0744,0,86,86,150,1,gegeven,images/br_gegeven.png,images/cb_gegeven.png,0,,,,,,,,,,,,,,,,,,,,,,
,,,,,,00063,2023-10-17_20h09.56.240,vbt_B1_day2,2022.2.4,Win32,59.86590038,,,,,,,,,,,,,,,,,,,,,,,,,,,down,0,3.7588,,0.442592621,0.089814822,1,0,0,0.3502,0,87,87,22,1,stof,images/br_stof.png,images/cb_stof.png,0,,,,,,,,,,,,,,,,,,,,,,
,,,,,,00063,2023-10-17_20h09.56.240,vbt_B1_day2,2022.2.4,Win32,59.86590038,,,,,,,,,,,,,,,,,,,,,,,,,,,down,0,1.8908,,0.442592621,0.089814822,1,0,0,0.4165,0,88,88,31,1,poes,images/br_poes.png,images/cb_poes.png,0,,,,,,,,,,,,,,,,,,,,,,
,,,,,,00063,2023-10-17_20h09.56.240,vbt_B1_day2,2022.2.4,Win32,59.86590038,,,,,,,,,,,,,,,,,,,,,,,,,,,down,0,0.9253,,0.442592621,0.089814822,1,0,0,0.4167,0,89,89,42,1,bleek,images/br_bleek.png,images/cb_bleek.png,0,,,,,,,,,,,,,,,,,,,,,,
,,,,,,00063,2023-10-17_20h09.56.240,vbt_B1_day2,2022.2.4,Win32,59.86590038,,,,,,,,,,,,,,,,,,,,,,,,,,,down,0,9.656,,0.442592621,0.089814822,1,0,0,0.3834,0,90,90,166,1,strikken,images/br_strikken.png,images/cb_strikken.png,0,,,,,,,,,,,,,,,,,,,,,,
,,,,,,00063,2023-10-17_20h09.56.240,vbt_B1_day2,2022.2.4,Win32,59.86590038,,,,,,,,,,,,,,,,,,,,,,,,,,,down,0,5.2845,,0.442592621,0.089814822,1,0,0,0.4164,0,91,91,20,1,site,images/br_site.png,images/cb_site.png,0,,,,,,,,,,,,,,,,,,,,,,
,,,,,,00063,2023-10-17_20h09.56.240,vbt_B1_day2,2022.2.4,Win32,59.86590038,,,,,,,,,,,,,,,,,,,,,,,,,,,down,0,3.8103,,0.442592621,0.089814822,1,0,0,0.401,0,92,92,108,1,excuus,images/br_excuus.png,images/cb_excuus.png,0,,,,,,,,,,,,,,,,,,,,,,
,,,,,,00063,2023-10-17_20h09.56.240,vbt_B1_day2,2022.2.4,Win32,59.86590038,,,,,,,,,,,,,,,,,,,,,,,,,,,down,0,9.377,,0.442592621,0.089814822,1,0,0,4.5333,0,93,93,79,1,nodig,images/br_nodig.png,images/cb_nodig.png,0,,,,,,,,,,,,,,,,,,,,,,
,,,,,,00063,2023-10-17_20h09.56.240,vbt_B1_day2,2022.2.4,Win32,59.86590038,,,,,,,,,,,,,,,,,,,,,,,,,,,down,0,11.2352,,0.442592621,0.089814822,1,0,0,17.2839,0,94,94,131,1,opzicht,images/br_opzicht.png,images/cb_opzicht.png,0,,,,,,,,,,,,,,,,,,,,,,
,,,,,,00063,2023-10-17_20h09.56.240,vbt_B1_day2,2022.2.4,Win32,59.86590038,,,,,,,,,,,,,,,,,,,,,,,,,,,down,0,14.6091,,0.442592621,0.089814822,1,0,0,0.4163,0,95,95,78,1,leren,images/br_leren.png,images/cb_leren.png,0,,,,,,,,,,,,,,,,,,,,,,
,,,,,,00063,2023-10-17_20h09.56.240,vbt_B1_day2,2022.2.4,Win32,59.86590038,,,,,,,,,,,,,,,,,,,,,,,,,,,down,0,1.6174,,0.442592621,0.089814822,1,0,0,0.4166,0,96,96,17,1,taal,images/br_taal.png,images/cb_taal.png,1,taal,,,,,,,,,,,,,,,,,,,,,
,,,,,,00063,2023-10-17_20h09.56.240,vbt_B1_day2,2022.2.4,Win32,59.86590038,,,,,,,,,,,,,,,,,,,,,,,,,,,down,0,9.6173,,0.442592621,0.089814822,1,0,0,0.426,0,97,97,173,1,apparaat,images/br_apparaat.png,images/cb_apparaat.png,0,,,,,,,,,,,,,,,,,,,,,,
,,,,,,00063,2023-10-17_20h09.56.240,vbt_B1_day2,2022.2.4,Win32,59.86590038,,,,,,,,,,,,,,,,,,,,,,,,,,,down,0,6.9547,,0.442592621,0.089814822,1,0,0,0.5163,0,98,98,74,1,graaf,images/br_graaf.png,images/cb_graaf.png,0,,,,,,,,,,,,,,,,,,,,,,
,,,,,,00063,2023-10-17_20h09.56.240,vbt_B1_day2,2022.2.4,Win32,59.86590038,,,,,,,,,,,,,,,,,,,,,,,,,,,down,0,7.5507,,0.442592621,0.089814822,1,0,0,0.4006,0,99,99,27,1,dans,images/br_dans.png,images/cb_dans.png,0,,,,,,,,,,,,,,,,,,,,,,
,,,,,,00063,2023-10-17_20h09.56.240,vbt_B1_day2,2022.2.4,Win32,59.86590038,,,,,,,,,,,,,,,,,,,,,,,,,,,down,0,7.7874,,0.442592621,0.089814822,1,0,0,0.4004,0,100,100,193,1,weeshuis,images/br_weeshuis.png,images/cb_weeshuis.png,0,,,,,,,,,,,,,,,,,,,,,,
,,,,,,00063,2023-10-17_20h09.56.240,vbt_B1_day2,2022.2.4,Win32,59.86590038,,,,,,,,,,,,,,,,,,,,,,,,,,,down,0,18.5262,,0.442592621,0.089814822,1,0,0,0.7502,0,101,101,15,1,soda,images/br_soda.png,images/cb_soda.png,0,,,,,,,,,,,,,,,,,,,,,,
,,,,,,00063,2023-10-17_20h09.56.240,vbt_B1_day2,2022.2.4,Win32,59.86590038,,,,,,,,,,,,,,,,,,,,,,,,,,,down,0,6.2674,,0.442592621,0.089814822,1,0,0,0.376,0,102,102,135,1,gedicht,images/br_gedicht.png,images/cb_gedicht.png,0,,,,,,,,,,,,,,,,,,,,,,
,,,,,,00063,2023-10-17_20h09.56.240,vbt_B1_day2,2022.2.4,Win32,59.86590038,,,,,,,,,,,,,,,,,,,,,,,,,,,down,0,4.9502,,0.442592621,0.089814822,1,0,0,0.5001,0,103,103,148,1,smullen,images/br_smullen.png,images/cb_smullen.png,0,,,,,,,,,,,,,,,,,,,,,,
,,,,,,00063,2023-10-17_20h09.56.240,vbt_B1_day2,2022.2.4,Win32,59.86590038,,,,,,,,,,,,,,,,,,,,,,,,,,,down,0,3.9818,,0.442592621,0.089814822,1,0,0,0.4448,0,104,104,14,1,rijp,images/br_rijp.png,images/cb_rijp.png,0,,,,,,,,,,,,,,,,,,,,,,
,,,,,,00063,2023-10-17_20h09.56.240,vbt_B1_day2,2022.2.4,Win32,59.86590038,,,,,,,,,,,,,,,,,,,,,,,,,,,down,0,15.6086,,0.442592621,0.089814822,1,0,0,0.4499,0,105,105,89,1,slapen,images/br_slapen.png,images/cb_slapen.png,0,,,,,,,,,,,,,,,,,,,,,,
,,,,,,00063,2023-10-17_20h09.56.240,vbt_B1_day2,2022.2.4,Win32,59.86590038,,,,,,,,,,,,,,,,,,,,,,,,,,,down,0,3.2381,,0.442592621,0.089814822,1,0,0,0.3914,0,106,106,24,1,jurk,images/br_jurk.png,images/cb_jurk.png,0,,,,,,,,,,,,,,,,,,,,,,
,,,,,,00063,2023-10-17_20h09.56.240,vbt_B1_day2,2022.2.4,Win32,59.86590038,,,,,,,,,,,,,,,,,,,,,,,,,,,down,0,6.7403,,0.442592621,0.089814822,1,0,0,0.4,0,107,107,9,1,hier,images/br_hier.png,images/cb_hier.png,0,,,,,,,,,,,,,,,,,,,,,,
,,,,,,00063,2023-10-17_20h09.56.240,vbt_B1_day2,2022.2.4,Win32,59.86590038,,,,,,,,,,,,,,,,,,,,,,,,,,,down,0,19.0598,,0.442592621,0.089814822,1,0,0,0.4833,0,108,108,95,1,vreten,images/br_vreten.png,images/cb_vreten.png,0,,,,,,,,,,,,,,,,,,,,,,
,,,,,,00063,2023-10-17_20h09.56.240,vbt_B1_day2,2022.2.4,Win32,59.86590038,,,,,,,,,,,,,,,,,,,,,,,,,,,down,0,2.0932,,0.442592621,0.089814822,1,0,0,0.367,0,109,109,2,1,jaar,images/br_jaar.png,images/cb_jaar.png,0,,,,,,,,,,,,,,,,,,,,,,
,,,,,,00063,2023-10-17_20h09.56.240,vbt_B1_day2,2022.2.4,Win32,59.86590038,,,,,,,,,,,,,,,,,,,,,,,,,,,down,0,5.9002,,0.442592621,0.089814822,1,0,0,0.3922,0,110,110,106,1,zingen,images/br_zingen.png,images/cb_zingen.png,0,,,,,,,,,,,,,,,,,,,,,,
,,,,,,00063,2023-10-17_20h09.56.240,vbt_B1_day2,2022.2.4,Win32,59.86590038,,,,,,,,,,,,,,,,,,,,,,,,,,,down,0,8.152,,0.442592621,0.089814822,1,0,0,0.3756,0,111,111,98,1,kreeft,images/br_kreeft.png,images/cb_kreeft.png,1,kreeft,,,,,,,,,,,,,,,,,,,,,
,,,,,,00063,2023-10-17_20h09.56.240,vbt_B1_day2,2022.2.4,Win32,59.86590038,,,,,,,,,,,,,,,,,,,,,,,,,,,down,0,6.95,,0.442592621,0.089814822,1,0,0,0.3998,0,112,112,97,1,loyaal,images/br_loyaal.png,images/cb_loyaal.png,1,loyaal,,,,,,,,,,,,,,,,,,,,,
,,,,,,00063,2023-10-17_20h09.56.240,vbt_B1_day2,2022.2.4,Win32,59.86590038,,,,,,,,,,,,,,,,,,,,,,,,,,,down,0,1.2025,,0.442592621,0.089814822,1,0,0,0.65,0,113,113,39,1,laag,images/br_laag.png,images/cb_laag.png,0,,,,,,,,,,,,,,,,,,,,,,
,,,,,,00063,2023-10-17_20h09.56.240,vbt_B1_day2,2022.2.4,Win32,59.86590038,,,,,,,,,,,,,,,,,,,,,,,,,,,down,0,5.1675,,0.442592621,0.089814822,1,0,0,1.1484,0,114,114,4,1,moes,images/br_moes.png,images/cb_moes.png,0,,,,,,,,,,,,,,,,,,,,,,
,,,,,,00063,2023-10-17_20h09.56.240,vbt_B1_day2,2022.2.4,Win32,59.86590038,,,,,,,,,,,,,,,,,,,,,,,,,,,down,0,4.4412,,0.442592621,0.089814822,1,0,0,2.2,0,115,115,147,1,komisch,images/br_komisch.png,images/cb_komisch.png,0,,,,,,,,,,,,,,,,,,,,,,
,,,,,,00063,2023-10-17_20h09.56.240,vbt_B1_day2,2022.2.4,Win32,59.86590038,,,,,,,,,,,,,,,,,,,,,,,,,,,down,0,5.5444,,0.442592621,0.089814822,1,0,0,1,0,116,116,188,1,strekken,images/br_strekken.png,images/cb_strekken.png,0,,,,,,,,,,,,,,,,,,,,,,
,,,,,,00063,2023-10-17_20h09.56.240,vbt_B1_day2,2022.2.4,Win32,59.86590038,,,,,,,,,,,,,,,,,,,,,,,,,,,down,0,6.3364,,0.442592621,0.089814822,1,0,0,1.233,0,117,117,92,1,geheim,images/br_geheim.png,images/cb_geheim.png,0,,,,,,,,,,,,,,,,,,,,,,
,,,,,,00063,2023-10-17_20h09.56.240,vbt_B1_day2,2022.2.4,Win32,59.86590038,,,,,,,,,,,,,,,,,,,,,,,,,,,down,0,17.3357,,0.442592621,0.089814822,1,0,0,2.0662,0,118,118,3,1,mand,images/br_mand.png,images/cb_mand.png,0,,,,,,,,,,,,,,,,,,,,,,
,,,,,,00063,2023-10-17_20h09.56.240,vbt_B1_day2,2022.2.4,Win32,59.86590038,,,,,,,,,,,,,,,,,,,,,,,,,,,down,0,2.2342,,0.442592621,0.089814822,1,0,0,0.4072,0,119,119,11,1,mode,images/br_mode.png,images/cb_mode.png,0,,,,,,,,,,,,,,,,,,,,,,
,,,,,,00063,2023-10-17_20h09.56.240,vbt_B1_day2,2022.2.4,Win32,59.86590038,,,,,,,,,,,,,,,,,,,,,,,,,,,down,0,6.4923,,0.442592621,0.089814822,1,0,0,0.3835,0,120,120,160,1,daarheen,images/br_daarheen.png,images/cb_daarheen.png,0,,,,,,,,,,,,,,,,,,,,,,
,,,,,,00063,2023-10-17_20h09.56.240,vbt_B1_day2,2022.2.4,Win32,59.86590038,,,,,,,,,,,,,,,,,,,,,,,,,,,down,0,6.4552,,0.442592621,0.089814822,1,0,0,0.3997,0,121,121,192,1,schaamte,images/br_schaamte.png,images/cb_schaamte.png,0,,,,,,,,,,,,,,,,,,,,,,
,,,,,,00063,2023-10-17_20h09.56.240,vbt_B1_day2,2022.2.4,Win32,59.86590038,,,,,,,,,,,,,,,,,,,,,,,,,,,down,0,5.5168,,0.442592621,0.089814822,1,0,0,0.3498,0,122,122,50,1,stoom,images/br_stoom.png,images/cb_stoom.png,0,,,,,,,,,,,,,,,,,,,,,,
,,,,,,00063,2023-10-17_20h09.56.240,vbt_B1_day2,2022.2.4,Win32,59.86590038,,,,,,,,,,,,,,,,,,,,,,,,,,,down,0,3.1397,,0.442592621,0.089814822,1,0,0,0.3665,0,123,123,146,1,opkomen,images/br_opkomen.png,images/cb_opkomen.png,0,,,,,,,,,,,,,,,,,,,,,,
,,,,,,00063,2023-10-17_20h09.56.240,vbt_B1_day2,2022.2.4,Win32,59.86590038,,,,,,,,,,,,,,,,,,,,,,,,,,,down,0,8.0846,,0.442592621,0.089814822,1,0,0,0.4588,0,124,124,30,1,uien,images/br_uien.png,images/cb_uien.png,0,,,,,,,,,,,,,,,,,,,,,,
,,,,,,00063,2023-10-17_20h09.56.240,vbt_B1_day2,2022.2.4,Win32,59.86590038,,,,,,,,,,,,,,,,,,,,,,,,,,,down,0,8.2844,,0.442592621,0.089814822,1,0,0,0.4259,0,125,125,104,1,zweven,images/br_zweven.png,images/cb_zweven.png,0,,,,,,,,,,,,,,,,,,,,,,
,,,,,,00063,2023-10-17_20h09.56.240,vbt_B1_day2,2022.2.4,Win32,59.86590038,,,,,,,,,,,,,,,,,,,,,,,,,,,down,0,3.4506,,0.442592621,0.089814822,1,0,0,0.5937,0,126,126,5,1,blad,images/br_blad.png,images/cb_blad.png,0,,,,,,,,,,,,,,,,,,,,,,
,,,,,,00063,2023-10-17_20h09.56.240,vbt_B1_day2,2022.2.4,Win32,59.86590038,,,,,,,,,,,,,,,,,,,,,,,,,,,down,0,3.6673,,0.442592621,0.089814822,1,0,0,0.5095,0,127,127,61,1,groen,images/br_groen.png,images/cb_groen.png,0,,,,,,,,,,,,,,,,,,,,,,
,,,,,,00063,2023-10-17_20h09.56.240,vbt_B1_day2,2022.2.4,Win32,59.86590038,,,,,,,,,,,,,,,,,,,,,,,,,,,down,0,1.6508,,0.442592621,0.089814822,1,0,0,0.693,0,128,128,12,1,kust,images/br_kust.png,images/cb_kust.png,0,,,,,,,,,,,,,,,,,,,,,,
,,,,,,00063,2023-10-17_20h09.56.240,vbt_B1_day2,2022.2.4,Win32,59.86590038,,,,,,,,,,,,,,,,,,,,,,,,,,,down,0,9.6676,,0.442592621,0.089814822,1,0,0,0.4926,0,129,129,157,1,uitlaat,images/br_uitlaat.png,images/cb_uitlaat.png,0,,,,,,,,,,,,,,,,,,,,,,
,,,,,,00063,2023-10-17_20h09.56.240,vbt_B1_day2,2022.2.4,Win32,59.86590038,,,,,,,,,,,,,,,,,,,,,,,,,,,down,0,7.0184,,0.442592621,0.089814822,1,0,0,0.3669,0,130,130,75,1,snoep,images/br_snoep.png,images/cb_snoep.png,0,,,,,,,,,,,,,,,,,,,,,,
,,,,,,00063,2023-10-17_20h09.56.240,vbt_B1_day2,2022.2.4,Win32,59.86590038,,,,,,,,,,,,,,,,,,,,,,,,,,,down,0,7.4677,,0.442592621,0.089814822,1,0,0,0.4176,0,131,131,178,1,huisdier,images/br_huisdier.png,images/cb_huisdier.png,1,huisdier,,,,,,,,,,,,,,,,,,,,,
,,,,,,00063,2023-10-17_20h09.56.240,vbt_B1_day2,2022.2.4,Win32,59.86590038,,,,,,,,,,,,,,,,,,,,,,,,,,,down,0,7.2211,,0.442592621,0.089814822,1,0,0,0.6998,0,132,132,93,1,waarop,images/br_waarop.png,images/cb_waarop.png,0,,,,,,,,,,,,,,,,,,,,,,
,,,,,,00063,2023-10-17_20h09.56.240,vbt_B1_day2,2022.2.4,Win32,59.86590038,,,,,,,,,,,,,,,,,,,,,,,,,,,down,0,1.5414,,0.442592621,0.089814822,1,0,0,0.3922,0,133,133,57,1,steek,images/br_steek.png,images/cb_steek.png,1,steek,,,,,,,,,,,,,,,,,,,,,
,,,,,,00063,2023-10-17_20h09.56.240,vbt_B1_day2,2022.2.4,Win32,59.86590038,,,,,,,,,,,,,,,,,,,,,,,,,,,down,0,2.7413,,0.442592621,0.089814822,1,0,0,0.3998,0,134,134,102,1,legaal,images/br_legaal.png,images/cb_legaal.png,0,,,,,,,,,,,,,,,,,,,,,,
,,,,,,00063,2023-10-17_20h09.56.240,vbt_B1_day2,2022.2.4,Win32,59.86590038,,,,,,,,,,,,,,,,,,,,,,,,,,,down,0,4.3342,,0.442592621,0.089814822,1,0,0,0.4242,0,135,135,132,1,grappen,images/br_grappen.png,images/cb_grappen.png,0,,,,,,,,,,,,,,,,,,,,,,
,,,,,,00063,2023-10-17_20h09.56.240,vbt_B1_day2,2022.2.4,Win32,59.86590038,,,,,,,,,,,,,,,,,,,,,,,,,,,down,0,11.8736,,0.442592621,0.089814822,1,0,0,0.6164,0,136,136,156,1,rechten,images/br_rechten.png,images/cb_rechten.png,0,,,,,,,,,,,,,,,,,,,,,,
,,,,,,00063,2023-10-17_20h09.56.240,vbt_B1_day2,2022.2.4,Win32,59.86590038,,,,,,,,,,,,,,,,,,,,,,,,,,,down,0,7.9851,,0.442592621,0.089814822,1,0,0,0.5165,0,137,137,174,1,stemming,images/br_stemming.png,images/cb_stemming.png,0,,,,,,,,,,,,,,,,,,,,,,
,,,,,,00063,2023-10-17_20h09.56.240,vbt_B1_day2,2022.2.4,Win32,59.86590038,,,,,,,,,,,,,,,,,,,,,,,,,,,down,0,1.0169,,0.442592621,0.089814822,1,0,0,0.383,0,138,138,26,1,leuk,images/br_leuk.png,images/cb_leuk.png,0,,,,,,,,,,,,,,,,,,,,,,
,,,,,,00063,2023-10-17_20h09.56.240,vbt_B1_day2,2022.2.4,Win32,59.86590038,,,,,,,,,,,,,,,,,,,,,,,,,,,down,0,3.0319,,0.442592621,0.089814822,1,0,0,0.662,0,139,139,43,1,klauw,images/br_klauw.png,images/cb_klauw.png,0,,,,,,,,,,,,,,,,,,,,,,
,,,,,,00063,2023-10-17_20h09.56.240,vbt_B1_day2,2022.2.4,Win32,59.86590038,,,,,,,,,,,,,,,,,,,,,,,,,,,down,0,8.2262,,0.442592621,0.089814822,1,0,0,1.8835,0,140,140,119,1,liefje,images/br_liefje.png,images/cb_liefje.png,0,,,,,,,,,,,,,,,,,,,,,,
,,,,,,00063,2023-10-17_20h09.56.240,vbt_B1_day2,2022.2.4,Win32,59.86590038,,,,,,,,,,,,,,,,,,,,,,,,,,,down,0,9.0481,,0.442592621,0.089814822,1,0,0,0.446,0,141,141,189,1,aanraden,images/br_aanraden.png,images/cb_aanraden.png,0,,,,,,,,,,,,,,,,,,,,,,
,,,,,,00063,2023-10-17_20h09.56.240,vbt_B1_day2,2022.2.4,Win32,59.86590038,,,,,,,,,,,,,,,,,,,,,,,,,,,down,0,4.669,,0.442592621,0.089814822,1,0,0,0.3662,0,142,142,90,1,geluid,images/br_geluid.png,images/cb_geluid.png,0,,,,,,,,,,,,,,,,,,,,,,
,,,,,,00063,2023-10-17_20h09.56.240,vbt_B1_day2,2022.2.4,Win32,59.86590038,,,,,,,,,,,,,,,,,,,,,,,,,,,down,0,3.2678,,0.442592621,0.089814822,1,0,0,0.4591,0,143,143,73,1,volop,images/br_volop.png,images/cb_volop.png,0,,,,,,,,,,,,,,,,,,,,,,
,,,,,,00063,2023-10-17_20h09.56.240,vbt_B1_day2,2022.2.4,Win32,59.86590038,,,,,,,,,,,,,,,,,,,,,,,,,,,down,0,4.3184,,0.442592621,0.089814822,1,0,0,1.4834,0,144,144,134,1,geliefd,images/br_geliefd.png,images/cb_geliefd.png,0,,,,,,,,,,,,,,,,,,,,,,
,,,,,,00063,2023-10-17_20h09.56.240,vbt_B1_day2,2022.2.4,Win32,59.86590038,,,,,,,,,,,,,,,,,,,,,,,,,,,down,0,10.2674,,0.442592621,0.089814822,1,0,0,0.55,0,145,145,72,1,strak,images/br_strak.png,images/cb_strak.png,0,,,,,,,,,,,,,,,,,,,,,,
,,,,,,00063,2023-10-17_20h09.56.240,vbt_B1_day2,2022.2.4,Win32,59.86590038,,,,,,,,,,,,,,,,,,,,,,,,,,,down,0,3.2676,,0.455555527,0.12962963,1,0,0,1.3081,0,146,146,100,1,geduld,images/br_geduld.png,images/cb_geduld.png,0,,,,,,,,,,,,,,,,,,,,,,
,,,,,,00063,2023-10-17_20h09.56.240,vbt_B1_day2,2022.2.4,Win32,59.86590038,,,,,,,,,,,,,,,,,,,,,,,,,,,down,0,8.0601,,0.455555527,0.12962963,1,0,0,1.2163,0,147,147,196,1,nakijken,images/br_nakijken.png,images/cb_nakijken.png,0,,,,,,,,,,,,,,,,,,,,,,
,,,,,,00063,2023-10-17_20h09.56.240,vbt_B1_day2,2022.2.4,Win32,59.86590038,,,,,,,,,,,,,,,,,,,,,,,,,,,down,0,1.7503,,0.455555527,0.12962963,1,0,0,0.4081,0,148,148,41,1,maken,images/br_maken.png,images/cb_maken.png,0,,,,,,,,,,,,,,,,,,,,,,
,,,,,,00063,2023-10-17_20h09.56.240,vbt_B1_day2,2022.2.4,Win32,59.86590038,,,,,,,,,,,,,,,,,,,,,,,,,,,down,0,2.7058,,0.455555527,0.12962963,1,0,0,0.7166,0,149,149,62,1,knaap,images/br_knaap.png,images/cb_knaap.png,0,,,,,,,,,,,,,,,,,,,,,,
,,,,,,00063,2023-10-17_20h09.56.240,vbt_B1_day2,2022.2.4,Win32,59.86590038,,,,,,,,,,,,,,,,,,,,,,,,,,,down,0,0.2006,,0.455555527,0.12962963,1,0,0,0.4496,0,150,150,10,1,leek,images/br_leek.png,images/cb_leek.png,0,,,,,,,,,,,,,,,,,,,,,,
,,,,,,00063,2023-10-17_20h09.56.240,vbt_B1_day2,2022.2.4,Win32,59.86590038,,,,,,,,,,,,,,,,,,,,,,,,,,,down,0,4.5402,,0.455555527,0.12962963,1,0,0,0.3665,0,151,151,142,1,snuiven,images/br_snuiven.png,images/cb_snuiven.png,0,,,,,,,,,,,,,,,,,,,,,,
,,,,,,00063,2023-10-17_20h09.56.240,vbt_B1_day2,2022.2.4,Win32,59.86590038,,,,,,,,,,,,,,,,,,,,,,,,,,,down,0,3.8523,,0.455555527,0.12962963,1,0,0,0.4663,0,152,152,54,1,gebit,images/br_gebit.png,images/cb_gebit.png,0,,,,,,,,,,,,,,,,,,,,,,
,,,,,,00063,2023-10-17_20h09.56.240,vbt_B1_day2,2022.2.4,Win32,59.86590038,,,,,,,,,,,,,,,,,,,,,,,,,,,down,0,6.3067,,0.455555527,0.12962963,1,0,0,0.4,0,153,153,175,1,heengaan,images/br_heengaan.png,images/cb_heengaan.png,0,,,,,,,,,,,,,,,,,,,,,,
,,,,,,00063,2023-10-17_20h09.56.240,vbt_B1_day2,2022.2.4,Win32,59.86590038,,,,,,,,,,,,,,,,,,,,,,,,,,,down,0,3.8229,,0.455555527,0.12962963,1,0,0,0.4998,0,154,154,143,1,hechten,images/br_hechten.png,images/cb_hechten.png,0,,,,,,,,,,,,,,,,,,,,,,
,,,,,,00063,2023-10-17_20h09.56.240,vbt_B1_day2,2022.2.4,Win32,59.86590038,,,,,,,,,,,,,,,,,,,,,,,,,,,down,0,3.8197,,0.455555527,0.12962963,1,0,0,1.983,0,155,155,23,1,zout,images/br_zout.png,images/cb_zout.png,0,,,,,,,,,,,,,,,,,,,,,,
,,,,,,00063,2023-10-17_20h09.56.240,vbt_B1_day2,2022.2.4,Win32,59.86590038,,,,,,,,,,,,,,,,,,,,,,,,,,,down,0,3.7346,,0.455555527,0.12962963,1,0,0,0.3831,0,156,156,34,1,vorm,images/br_vorm.png,images/cb_vorm.png,0,,,,,,,,,,,,,,,,,,,,,,
,,,,,,00063,2023-10-17_20h09.56.240,vbt_B1_day2,2022.2.4,Win32,59.86590038,,,,,,,,,,,,,,,,,,,,,,,,,,,down,0,6.6224,,0.455555527,0.12962963,1,0,0,0.4833,0,157,157,197,1,spanning,images/br_spanning.png,images/cb_spanning.png,0,,,,,,,,,,,,,,,,,,,,,,
,,,,,,00063,2023-10-17_20h09.56.240,vbt_B1_day2,2022.2.4,Win32,59.86590038,,,,,,,,,,,,,,,,,,,,,,,,,,,down,0,4.1187,,0.455555527,0.12962963,1,0,0,0.817,0,158,158,99,1,koffie,images/br_koffie.png,images/cb_koffie.png,1,koffie,,,,,,,,,,,,,,,,,,,,,
,,,,,,00063,2023-10-17_20h09.56.240,vbt_B1_day2,2022.2.4,Win32,59.86590038,,,,,,,,,,,,,,,,,,,,,,,,,,,down,0,2.0524,,0.455555527,0.12962963,1,0,0,0.4338,0,159,159,66,1,lever,images/br_lever.png,images/cb_lever.png,0,,,,,,,,,,,,,,,,,,,,,,
,,,,,,00063,2023-10-17_20h09.56.240,vbt_B1_day2,2022.2.4,Win32,59.86590038,,,,,,,,,,,,,,,,,,,,,,,,,,,down,0,11.7887,,0.455555527,0.12962963,1,0,0,0.433,0,160,160,153,1,vervoer,images/br_vervoer.png,images/cb_vervoer.png,0,,,,,,,,,,,,,,,,,,,,,,
,,,,,,00063,2023-10-17_20h09.56.240,vbt_B1_day2,2022.2.4,Win32,59.86590038,,,,,,,,,,,,,,,,,,,,,,,,,,,down,0,6.002,,0.455555527,0.12962963,1,0,0,0.4498,0,161,161,113,1,koppen,images/br_koppen.png,images/cb_koppen.png,0,,,,,,,,,,,,,,,,,,,,,,
,,,,,,00063,2023-10-17_20h09.56.240,vbt_B1_day2,2022.2.4,Win32,59.86590038,,,,,,,,,,,,,,,,,,,,,,,,,,,down,0,2.1241,,0.455555527,0.12962963,1,0,0,0.5669,0,162,162,46,1,jagen,images/br_jagen.png,images/cb_jagen.png,0,,,,,,,,,,,,,,,,,,,,,,
,,,,,,00063,2023-10-17_20h09.56.240,vbt_B1_day2,2022.2.4,Win32,59.86590038,,,,,,,,,,,,,,,,,,,,,,,,,,,down,0,2.257,,0.455555527,0.12962963,1,0,0,0.3999,0,163,163,64,1,wegen,images/br_wegen.png,images/cb_wegen.png,0,,,,,,,,,,,,,,,,,,,,,,
,,,,,,00063,2023-10-17_20h09.56.240,vbt_B1_day2,2022.2.4,Win32,59.86590038,,,,,,,,,,,,,,,,,,,,,,,,,,,down,0,11.392,,0.455555527,0.12962963,1,0,0,0.3827,0,164,164,169,1,oprotten,images/br_oprotten.png,images/cb_oprotten.png,0,,,,,,,,,,,,,,,,,,,,,,
,,,,,,00063,2023-10-17_20h09.56.240,vbt_B1_day2,2022.2.4,Win32,59.86590038,,,,,,,,,,,,,,,,,,,,,,,,,,,down,0,0.5341,,0.455555527,0.12962963,1,0,0,0.5,0,165,165,112,1,lukken,images/br_lukken.png,images/cb_lukken.png,0,,,,,,,,,,,,,,,,,,,,,,
,,,,,,00063,2023-10-17_20h09.56.240,vbt_B1_day2,2022.2.4,Win32,59.86590038,,,,,,,,,,,,,,,,,,,,,,,,,,,down,0,4.9034,,0.455555527,0.12962963,1,0,0,1.7159,0,166,166,81,1,dubbel,images/br_dubbel.png,images/cb_dubbel.png,0,,,,,,,,,,,,,,,,,,,,,,
,,,,,,00063,2023-10-17_20h09.56.240,vbt_B1_day2,2022.2.4,Win32,59.86590038,,,,,,,,,,,,,,,,,,,,,,,,,,,down,0,1.2074,,0.455555527,0.12962963,1,0,0,0.4668,0,167,167,18,1,blik,images/br_blik.png,images/cb_blik.png,1,blik,,,,,,,,,,,,,,,,,,,,,
,,,,,,00063,2023-10-17_20h09.56.240,vbt_B1_day2,2022.2.4,Win32,59.86590038,,,,,,,,,,,,,,,,,,,,,,,,,,,down,0,2.9509,,0.455555527,0.12962963,1,0,0,0.5999,0,168,168,16,1,ziek,images/br_ziek.png,images/cb_ziek.png,1,ziek,,,,,,,,,,,,,,,,,,,,,
,,,,,,00063,2023-10-17_20h09.56.240,vbt_B1_day2,2022.2.4,Win32,59.86590038,,,,,,,,,,,,,,,,,,,,,,,,,,,down,0,9.5359,,0.455555527,0.12962963,1,0,0,0.433,0,169,169,116,1,besmet,images/br_besmet.png,images/cb_besmet.png,0,,,,,,,,,,,,,,,,,,,,,,
,,,,,,00063,2023-10-17_20h09.56.240,vbt_B1_day2,2022.2.4,Win32,59.86590038,,,,,,,,,,,,,,,,,,,,,,,,,,,down,0,4.3565,,0.455555527,0.12962963,1,0,0,0.4502,0,170,170,60,1,jasje,images/br_jasje.png,images/cb_jasje.png,0,,,,,,,,,,,,,,,,,,,,,,
,,,,,,00063,2023-10-17_20h09.56.240,vbt_B1_day2,2022.2.4,Win32,59.86590038,,,,,,,,,,,,,,,,,,,,,,,,,,,down,0,9.8181,,0.455555527,0.12962963,1,0,0,0.5606,0,171,171,83,1,mening,images/br_mening.png,images/cb_mening.png,0,,,,,,,,,,,,,,,,,,,,,,
,,,,,,00063,2023-10-17_20h09.56.240,vbt_B1_day2,2022.2.4,Win32,59.86590038,,,,,,,,,,,,,,,,,,,,,,,,,,,down,0,23.2262,,0.455555527,0.12962963,1,0,0,1.6333,0,172,172,123,1,hiervan,images/br_hiervan.png,images/cb_hiervan.png,0,,,,,,,,,,,,,,,,,,,,,,
,,,,,,00063,2023-10-17_20h09.56.240,vbt_B1_day2,2022.2.4,Win32,59.86590038,,,,,,,,,,,,,,,,,,,,,,,,,,,down,0,4.5843,,0.455555527,0.12962963,1,0,0,0.5436,0,173,173,177,1,maaltijd,images/br_maaltijd.png,images/cb_maaltijd.png,1,maaltijd,,,,,,,,,,,,,,,,,,,,,
,,,,,,00063,2023-10-17_20h09.56.240,vbt_B1_day2,2022.2.4,Win32,59.86590038,,,,,,,,,,,,,,,,,,,,,,,,,,,down,0,0.9838,,0.309259344,0.16111109,1,0,0,1.8336,0,174,174,35,1,lust,images/br_lust.png,images/cb_lust.png,0,,,,,,,,,,,,,,,,,,,,,,
,,,,,,00063,2023-10-17_20h09.56.240,vbt_B1_day2,2022.2.4,Win32,59.86590038,,,,,,,,,,,,,,,,,,,,,,,,,,,down,0,1.1771,,0.430555556,0.242592582,1,0,0,0.4834,0,175,175,32,1,palm,images/br_palm.png,images/cb_palm.png,0,,,,,,,,,,,,,,,,,,,,,,
,,,,,,00063,2023-10-17_20h09.56.240,vbt_B1_day2,2022.2.4,Win32,59.86590038,,,,,,,,,,,,,,,,,,,,,,,,,,,down,0,7.9368,,0.430555556,0.242592582,1,0,0,0.45,0,176,176,164,1,anarchie,images/br_anarchie.png,images/cb_anarchie.png,0,,,,,,,,,,,,,,,,,,,,,,
,,,,,,00063,2023-10-17_20h09.56.240,vbt_B1_day2,2022.2.4,Win32,59.86590038,,,,,,,,,,,,,,,,,,,,,,,,,,,down,0,8.6214,,0.430555556,0.242592582,1,0,0,1.8167,0,177,177,162,1,uitdelen,images/br_uitdelen.png,images/cb_uitdelen.png,0,,,,,,,,,,,,,,,,,,,,,,
,,,,,,00063,2023-10-17_20h09.56.240,vbt_B1_day2,2022.2.4,Win32,59.86590038,,,,,,,,,,,,,,,,,,,,,,,,,,,down,0,3.5842,,0.430555556,0.242592582,1,0,0,0.3996,0,178,178,115,1,kleren,images/br_kleren.png,images/cb_kleren.png,0,,,,,,,,,,,,,,,,,,,,,,
,,,,,,00063,2023-10-17_20h09.56.240,vbt_B1_day2,2022.2.4,Win32,59.86590038,,,,,,,,,,,,,,,,,,,,,,,,,,,down,0,7.3037,,0.430555556,0.242592582,1,0,0,1.133,0,179,179,172,1,weigeren,images/br_weigeren.png,images/cb_weigeren.png,0,,,,,,,,,,,,,,,,,,,,,,
,,,,,,00063,2023-10-17_20h09.56.240,vbt_B1_day2,2022.2.4,Win32,59.86590038,,,,,,,,,,,,,,,,,,,,,,,,,,,down,0,3.2889,,0.430555556,0.242592582,1,0,0,0.3999,0,180,180,21,1,mist,images/br_mist.png,images/cb_mist.png,0,,,,,,,,,,,,,,,,,,,,,,
,,,,,,00063,2023-10-17_20h09.56.240,vbt_B1_day2,2022.2.4,Win32,59.86590038,,,,,,,,,,,,,,,,,,,,,,,,,,,down,0,6.5722,,0.430555556,0.242592582,1,0,0,0.4333,0,181,181,186,1,voorraad,images/br_voorraad.png,images/cb_voorraad.png,0,,,,,,,,,,,,,,,,,,,,,,
,,,,,,00063,2023-10-17_20h09.56.240,vbt_B1_day2,2022.2.4,Win32,59.86590038,,,,,,,,,,,,,,,,,,,,,,,,,,,down,0,3.751,,0.430555556,0.242592582,1,0,0,0.5306,0,182,182,49,1,laken,images/br_laken.png,images/cb_laken.png,0,,,,,,,,,,,,,,,,,,,,,,
,,,,,,00063,2023-10-17_20h09.56.240,vbt_B1_day2,2022.2.4,Win32,59.86590038,,,,,,,,,,,,,,,,,,,,,,,,,,,down,0,4.4091,,0.262962977,0.089814822,1,0,0,1.8076,0,183,183,38,1,baai,images/br_baai.png,images/cb_baai.png,0,,,,,,,,,,,,,,,,,,,,,,
,,,,,,00063,2023-10-17_20h09.56.240,vbt_B1_day2,2022.2.4,Win32,59.86590038,,,,,,,,,,,,,,,,,,,,,,,,,,,down,0,5.6238,,0.338888945,0.268518519,1,0,0,0.3998,0,184,184,101,1,staren,images/br_staren.png,images/cb_staren.png,0,,,,,,,,,,,,,,,,,,,,,,
,,,,,,00063,2023-10-17_20h09.56.240,vbt_B1_day2,2022.2.4,Win32,59.86590038,,,,,,,,,,,,,,,,,,,,,,,,,,,down,0,6.4349,,0.338888945,0.268518519,1,0,0,0.4998,0,185,185,176,1,techniek,images/br_techniek.png,images/cb_techniek.png,1,techniek,,,,,,,,,,,,,,,,,,,,,
,,,,,,00063,2023-10-17_20h09.56.240,vbt_B1_day2,2022.2.4,Win32,59.86590038,,,,,,,,,,,,,,,,,,,,,,,,,,,down,0,6.3346,,0.338888945,0.268518519,1,0,0,0.4667,0,186,186,136,1,waarbij,images/br_waarbij.png,images/cb_waarbij.png,1,waarbij,,,,,,,,,,,,,,,,,,,,,
,,,,,,00063,2023-10-17_20h09.56.240,vbt_B1_day2,2022.2.4,Win32,59.86590038,,,,,,,,,,,,,,,,,,,,,,,,,,,down,0,9.0282,,0.14444443,0.171296296,1,0,0,1.5154,0,187,187,141,1,knielen,images/br_knielen.png,images/cb_knielen.png,0,,,,,,,,,,,,,,,,,,,,,,
,,,,,,00063,2023-10-17_20h09.56.240,vbt_B1_day2,2022.2.4,Win32,59.86590038,,,,,,,,,,,,,,,,,,,,,,,,,,,down,0,0.4944,,0.387037065,0.346296293,1,0,0,0.4676,0,188,188,25,1,plek,images/br_plek.png,images/cb_plek.png,0,,,,,,,,,,,,,,,,,,,,,,
,,,,,,00063,2023-10-17_20h09.56.240,vbt_B1_day2,2022.2.4,Win32,59.86590038,,,,,,,,,,,,,,,,,,,,,,,,,,,down,0,6.2003,,0.387037065,0.346296293,1,0,0,0.5429,0,189,189,154,1,aflopen,images/br_aflopen.png,images/cb_aflopen.png,0,,,,,,,,,,,,,,,,,,,,,,
,,,,,,00063,2023-10-17_20h09.56.240,vbt_B1_day2,2022.2.4,Win32,59.86590038,,,,,,,,,,,,,,,,,,,,,,,,,,,down,0,4.3175,,0.387037065,0.346296293,1,0,0,0.6047,0,190,190,152,1,afnemen,images/br_afnemen.png,images/cb_afnemen.png,0,,,,,,,,,,,,,,,,,,,,,,
,,,,,,00063,2023-10-17_20h09.56.240,vbt_B1_day2,2022.2.4,Win32,59.86590038,,,,,,,,,,,,,,,,,,,,,,,,,,,down,0,3.5506,,0.387037065,0.346296293,1,0,0,0.4433,0,191,191,40,1,schep,images/br_schep.png,images/cb_schep.png,0,,,,,,,,,,,,,,,,,,,,,,
,,,,,,00063,2023-10-17_20h09.56.240,vbt_B1_day2,2022.2.4,Win32,59.86590038,,,,,,,,,,,,,,,,,,,,,,,,,,,down,0,3.682,,0.387037065,0.346296293,1,0,0,0.7077,0,192,192,105,1,wijlen,images/br_wijlen.png,images/cb_wijlen.png,0,,,,,,,,,,,,,,,,,,,,,,
,,,,,,00063,2023-10-17_20h09.56.240,vbt_B1_day2,2022.2.4,Win32,59.86590038,,,,,,,,,,,,,,,,,,,,,,,,,,,down,0,9.5348,,0.387037065,0.346296293,1,0,0,0.4337,0,193,193,161,1,attentie,images/br_attentie.png,images/cb_attentie.png,0,,,,,,,,,,,,,,,,,,,,,,
,,,,,,00063,2023-10-17_20h09.56.240,vbt_B1_day2,2022.2.4,Win32,59.86590038,,,,,,,,,,,,,,,,,,,,,,,,,,,down,0,9.7242,,0.387037065,0.346296293,1,0,0,0.4837,0,194,194,158,1,innemen,images/br_innemen.png,images/cb_innemen.png,0,,,,,,,,,,,,,,,,,,,,,,
,,,,,,00063,2023-10-17_20h09.56.240,vbt_B1_day2,2022.2.4,Win32,59.86590038,,,,,,,,,,,,,,,,,,,,,,,,,,,down,0,4.0351,,0.387037065,0.346296293,1,0,0,0.3833,0,195,195,144,1,eetlust,images/br_eetlust.png,images/cb_eetlust.png,0,,,,,,,,,,,,,,,,,,,,,,
,,,,,,00063,2023-10-17_20h09.56.240,vbt_B1_day2,2022.2.4,Win32,59.86590038,,,,,,,,,,,,,,,,,,,,,,,,,,,down,0,4.6339,,0.387037065,0.346296293,1,0,0,0.4428,0,196,196,118,1,vinger,images/br_vinger.png,images/cb_vinger.png,0,,,,,,,,,,,,,,,,,,,,,,
,,,,,,00063,2023-10-17_20h09.56.240,vbt_B1_day2,2022.2.4,Win32,59.86590038,,,,,,,,,,,,,,,,,,,,,,,,,,,down,0,6.6739,,0.387037065,0.346296293,1,0,0,1.2745,0,197,197,151,1,aanzoek,images/br_aanzoek.png,images/cb_aanzoek.png,0,,,,,,,,,,,,,,,,,,,,,,
,,,,,,00063,2023-10-17_20h09.56.240,vbt_B1_day2,2022.2.4,Win32,59.86590038,,,,,,,,,,,,,,,,,,,,,,,,,,,down,0,5.8606,,0.387037065,0.346296293,1,0,0,0.4496,0,198,198,28,1,stal,images/br_stal.png,images/cb_stal.png,0,,,,,,,,,,,,,,,,,,,,,,
,,,,,,00063,2023-10-17_20h09.56.240,vbt_B1_day2,2022.2.4,Win32,59.86590038,,,,,,,,,,,,,,,,,,,,,,,,,,,down,0,7.8667,,0.387037065,0.346296293,1,0,0,0.4507,0,199,199,198,1,bedoelen,images/br_bedoelen.png,images/cb_bedoelen.png,0,,,,,,,,,,,,,,,,,,,,,,
,,,,,,00063,2023-10-17_20h09.56.240,vbt_B1_day2,2022.2.4,Win32,59.86590038,,,,,,,,,,,,,,,,,,,,,,,,,,,,,,,,,,,,,,,,,,,,,,,0.212962963,-0.19722225,1,0,0,,,,,,,,,,,,,,,,
,,,,,,00063,2023-10-17_20h09.56.240,vbt_B1_day2,2022.2.4,Win32,59.86590038,,,,,,,,,,,,,,,,,,,,,,,,,,,,,,,,,,,,,,,,,,,,,,,,,,,,0.387963048,-0.042592614,1,0,0,,,,,,,,,,,
,,,,,,00063,2023-10-17_20h09.56.240,vbt_B1_day2,2022.2.4,Win32,59.86590038,,,,,,,,,,,,,,,,,,,,,,,,,,,,,,,,,,,,,,,,,,zwager,images/br_zwager.png,images/cb_zwager.png,,zwager,,,,,,,,,,,0.387963048,-0.042592614,1,0,0,zwager,0,0,0,49,1
,,,,,,00063,2023-10-17_20h09.56.240,vbt_B1_day2,2022.2.4,Win32,59.86590038,,,,,,,,,,,,,,,,,,,,,,,,,,,,,,,,,,,,,,,,,,opdatten,images/br_opdatten.png,images/cb_opdatten.png,,opdat...,,,,,,,,,,,0.387963048,-0.042592614,1,0,0,opdat...,0,1,1,37,1
,,,,,,00063,2023-10-17_20h09.56.240,vbt_B1_day2,2022.2.4,Win32,59.86590038,,,,,,,,,,,,,,,,,,,,,,,,,,,,,,,,,,,,,,,,,,anarchie,images/br_anarchie.png,images/cb_anarchie.png,,anarchie,,,,,,,,,,,0.387963048,-0.042592614,1,0,0,anarchie,0,2,2,16,1
,,,,,,00063,2023-10-17_20h09.56.240,vbt_B1_day2,2022.2.4,Win32,59.86590038,,,,,,,,,,,,,,,,,,,,,,,,,,,,,,,,,,,,,,,,,,bereuwen,images/br_bereuwen.png,images/cb_bereuwen.png,,bezeuren,,,,,,,,,,,0.387963048,-0.042592614,1,0,0,bezeuren,0,3,3,39,1
,,,,,,00063,2023-10-17_20h09.56.240,vbt_B1_day2,2022.2.4,Win32,59.86590038,,,,,,,,,,,,,,,,,,,,,,,,,,,,,,,,,,,,,,,,,,inzicht,images/br_inzicht.png,images/cb_inzicht.png,,inzicht,,,,,,,,,,,0.387963048,-0.042592614,1,0,0,inzicht,0,4,4,53,1
,,,,,,00063,2023-10-17_20h09.56.240,vbt_B1_day2,2022.2.4,Win32,59.86590038,,,,,,,,,,,,,,,,,,,,,,,,,,,,,,,,,,,,,,,,,,blad,images/br_blad.png,images/cb_blad.png,,blad,,,,,,,,,,,0.387963048,-0.042592614,1,0,0,blad,0,5,5,1,1
,,,,,,00063,2023-10-17_20h09.56.240,vbt_B1_day2,2022.2.4,Win32,59.86590038,,,,,,,,,,,,,,,,,,,,,,,,,,,,,,,,,,,,,,,,,,plannen,images/br_plannen.png,images/cb_plannen.png,,plannen,,,,,,,,,,,0.387963048,-0.042592614,1,0,0,plannen,0,6,6,55,1
,,,,,,00063,2023-10-17_20h09.56.240,vbt_B1_day2,2022.2.4,Win32,59.86590038,,,,,,,,,,,,,,,,,,,,,,,,,,,,,,,,,,,,,,,,,,kijlen,images/br_kijlen.png,images/cb_kijlen.png,,wijlen,,,,,,,,,,,0.387963048,-0.042592614,1,0,0,wijlen,0,7,7,31,1
,,,,,,00063,2023-10-17_20h09.56.240,vbt_B1_day2,2022.2.4,Win32,59.86590038,,,,,,,,,,,,,,,,,,,,,,,,,,,,,,,,,,,,,,,,,,trots,images/br_trots.png,images/cb_trots.png,,trots,,,,,,,,,,,0.387963048,-0.042592614,1,0,0,trots,0,8,8,44,1
,,,,,,00063,2023-10-17_20h09.56.240,vbt_B1_day2,2022.2.4,Win32,59.86590038,,,,,,,,,,,,,,,,,,,,,,,,,,,,,,,,,,,,,,,,,,systeem,images/br_systeem.png,images/cb_systeem.png,,pijstiim,,,,,,,,,,,0.387963048,-0.042592614,1,0,0,pijstiim,0,9,9,54,1
,,,,,,00063,2023-10-17_20h09.56.240,vbt_B1_day2,2022.2.4,Win32,59.86590038,,,,,,,,,,,,,,,,,,,,,,,,,,,,,,,,,,,,,,,,,,sora,images/br_sora.png,images/cb_sora.png,,sora,,,,,,,,,,,0.387963048,-0.042592614,1,0,0,sora,0,10,10,22,1
,,,,,,00063,2023-10-17_20h09.56.240,vbt_B1_day2,2022.2.4,Win32,59.86590038,,,,,,,,,,,,,,,,,,,,,,,,,,,,,,,,,,,,,,,,,,dode,images/br_dode.png,images/cb_dode.png,,dode,,,,,,,,,,,0.387963048,-0.042592614,1,0,0,dode,0,11,11,41,1
,,,,,,00063,2023-10-17_20h09.56.240,vbt_B1_day2,2022.2.4,Win32,59.86590038,,,,,,,,,,,,,,,,,,,,,,,,,,,,,,,,,,,,,,,,,,woning,images/br_woning.png,images/cb_woning.png,,woning,,,,,,,,,,,0.387963048,-0.042592614,1,0,0,woning,0,12,12,10,1
,,,,,,00063,2023-10-17_20h09.56.240,vbt_B1_day2,2022.2.4,Win32,59.86590038,,,,,,,,,,,,,,,,,,,,,,,,,,,,,,,,,,,,,,,,,,goon,images/br_goon.png,images/cb_goon.png,,goon,,,,,,,,,,,0.387963048,-0.042592614,1,0,0,goon,0,13,13,23,1
,,,,,,00063,2023-10-17_20h09.56.240,vbt_B1_day2,2022.2.4,Win32,59.86590038,,,,,,,,,,,,,,,,,,,,,,,,,,,,,,,,,,,,,,,,,,feestdag,images/br_feestdag.png,images/cb_feestdag.png,,feestdag,,,,,,,,,,,0.387963048,-0.042592614,1,0,0,feestdag,0,14,14,17,1
,,,,,,00063,2023-10-17_20h09.56.240,vbt_B1_day2,2022.2.4,Win32,59.86590038,,,,,,,,,,,,,,,,,,,,,,,,,,,,,,,,,,,,,,,,,,lijnen,images/br_lijnen.png,images/cb_lijnen.png,,lijnen,,,,,,,,,,,0.387963048,-0.042592614,1,0,0,lijnen,0,15,15,51,1
,,,,,,00063,2023-10-17_20h09.56.240,vbt_B1_day2,2022.2.4,Win32,59.86590038,,,,,,,,,,,,,,,,,,,,,,,,,,,,,,,,,,,,,,,,,,strikken,images/br_strikken.png,images/cb_strikken.png,,ptrekkin,,,,,,,,,,,0.387963048,-0.042592614,1,0,0,ptrekkin,0,16,16,18,1
,,,,,,00063,2023-10-17_20h09.56.240,vbt_B1_day2,2022.2.4,Win32,59.86590038,,,,,,,,,,,,,,,,,,,,,,,,,,,,,,,,,,,,,,,,,,kabel,images/br_kabel.png,images/cb_kabel.png,,kabel,,,,,,,,,,,0.387963048,-0.042592614,1,0,0,kabel,0,17,17,7,1
,,,,,,00063,2023-10-17_20h09.56.240,vbt_B1_day2,2022.2.4,Win32,59.86590038,,,,,,,,,,,,,,,,,,,,,,,,,,,,,,,,,,,,,,,,,,tweeling,images/br_tweeling.png,images/cb_tweeling.png,,tweeling,,,,,,,,,,,0.387963048,-0.042592614,1,0,0,tweeling,0,18,18,58,1
,,,,,,00063,2023-10-17_20h09.56.240,vbt_B1_day2,2022.2.4,Win32,59.86590038,,,,,,,,,,,,,,,,,,,,,,,,,,,,,,,,,,,,,,,,,,moes,images/br_moes.png,images/cb_moes.png,,moes,,,,,,,,,,,0.387963048,-0.042592614,1,0,0,moes,0,19,19,0,1
,,,,,,00063,2023-10-17_20h09.56.240,vbt_B1_day2,2022.2.4,Win32,59.86590038,,,,,,,,,,,,,,,,,,,,,,,,,,,,,,,,,,,,,,,,,,kenzis,images/br_kenzis.png,images/cb_kenzis.png,,kenzip,,,,,,,,,,,0.387963048,-0.042592614,1,0,0,kenzip,0,20,20,30,1
,,,,,,00063,2023-10-17_20h09.56.240,vbt_B1_day2,2022.2.4,Win32,59.86590038,,,,,,,,,,,,,,,,,,,,,,,,,,,,,,,,,,,,,,,,,,breuk,images/br_breuk.png,images/cb_breuk.png,,breuk,,,,,,,,,,,0.387963048,-0.042592614,1,0,0,breuk,0,21,21,45,1
,,,,,,00063,2023-10-17_20h09.56.240,vbt_B1_day2,2022.2.4,Win32,59.86590038,,,,,,,,,,,,,,,,,,,,,,,,,,,,,,,,,,,,,,,,,,diep,images/br_diep.png,images/cb_diep.png,,diep,,,,,,,,,,,0.387963048,-0.042592614,1,0,0,diep,0,22,22,2,1
,,,,,,00063,2023-10-17_20h09.56.240,vbt_B1_day2,2022.2.4,Win32,59.86590038,,,,,,,,,,,,,,,,,,,,,,,,,,,,,,,,,,,,,,,,,,prekken,images/br_prekken.png,images/cb_prekken.png,,prekken,,,,,,,,,,,0.387963048,-0.042592614,1,0,0,prekken,0,23,23,34,1
,,,,,,00063,2023-10-17_20h09.56.240,vbt_B1_day2,2022.2.4,Win32,59.86590038,,,,,,,,,,,,,,,,,,,,,,,,,,,,,,,,,,,,,,,,,,flits,images/br_flits.png,images/cb_flits.png,,flits,,,,,,,,,,,0.387963048,-0.042592614,1,0,0,flits,0,24,24,4,1
,,,,,,00063,2023-10-17_20h09.56.240,vbt_B1_day2,2022.2.4,Win32,59.86590038,,,,,,,,,,,,,,,,,,,,,,,,,,,,,,,,,,,,,,,,,,agressie,images/br_agressie.png,images/cb_agressie.png,,agressie,,,,,,,,,,,0.387963048,-0.042592614,1,0,0,agressie,0,25,25,59,1
,,,,,,00063,2023-10-17_20h09.56.240,vbt_B1_day2,2022.2.4,Win32,59.86590038,,,,,,,,,,,,,,,,,,,,,,,,,,,,,,,,,,,,,,,,,,doodmoe,images/br_doodmoe.png,images/cb_doodmoe.png,,doodmoe,,,,,,,,,,,0.387963048,-0.042592614,1,0,0,doodmoe,0,26,26,15,1
,,,,,,00063,2023-10-17_20h09.56.240,vbt_B1_day2,2022.2.4,Win32,59.86590038,,,,,,,,,,,,,,,,,,,,,,,,,,,,,,,,,,,,,,,,,,lokken,images/br_lokken.png,images/cb_lokken.png,,lokken,,,,,,,,,,,0.387963048,-0.042592614,1,0,0,lokken,0,27,27,8,1
,,,,,,00063,2023-10-17_20h09.56.240,vbt_B1_day2,2022.2.4,Win32,59.86590038,,,,,,,,,,,,,,,,,,,,,,,,,,,,,,,,,,,,,,,,,,thema,images/br_thema.png,images/cb_thema.png,,themr,,,,,,,,,,,0.387963048,-0.042592614,1,0,0,themr,0,28,28,47,1
,,,,,,00063,2023-10-17_20h09.56.240,vbt_B1_day2,2022.2.4,Win32,59.86590038,,,,,,,,,,,,,,,,,,,,,,,,,,,,,,,,,,,,,,,,,,manieren,images/br_manieren.png,images/cb_manieren.png,,manie...,,,,,,,,,,,0.387963048,-0.042592614,1,0,0,manie...,0,29,29,56,1
,,,,,,00063,2023-10-17_20h09.56.240,vbt_B1_day2,2022.2.4,Win32,59.86590038,,,,,,,,,,,,,,,,,,,,,,,,,,,,,,,,,,,,,,,,,,bloeien,images/br_bloeien.png,images/cb_bloeien.png,,bloeien,,,,,,,,,,,0.387963048,-0.042592614,1,0,0,bloeien,0,30,30,12,1
,,,,,,00063,2023-10-17_20h09.56.240,vbt_B1_day2,2022.2.4,Win32,59.86590038,,,,,,,,,,,,,,,,,,,,,,,,,,,,,,,,,,,,,,,,,,jagen,images/br_jagen.png,images/cb_jagen.png,,jagen,,,,,,,,,,,0.387963048,-0.042592614,1,0,0,jagen,0,31,31,6,1
,,,,,,00063,2023-10-17_20h09.56.240,vbt_B1_day2,2022.2.4,Win32,59.86590038,,,,,,,,,,,,,,,,,,,,,,,,,,,,,,,,,,,,,,,,,,sjijfel,images/br_sjijfel.png,images/cb_sjijfel.png,,sjij...,,,,,,,,,,,0.387963048,-0.042592614,1,0,0,sjij...,0,32,32,33,1
,,,,,,00063,2023-10-17_20h09.56.240,vbt_B1_day2,2022.2.4,Win32,59.86590038,,,,,,,,,,,,,,,,,,,,,,,,,,,,,,,,,,,,,,,,,,ophuimen,images/br_ophuimen.png,images/cb_ophuimen.png,,opduim..,,,,,,,,,,,0.387963048,-0.042592614,1,0,0,opduim..,0,33,33,36,1
,,,,,,00063,2023-10-17_20h09.56.240,vbt_B1_day2,2022.2.4,Win32,59.86590038,,,,,,,,,,,,,,,,,,,,,,,,,,,,,,,,,,,,,,,,,,joes,images/br_joes.png,images/cb_joes.png,,joes,,,,,,,,,,,0.387963048,-0.042592614,1,0,0,joes,0,34,34,20,1
,,,,,,00063,2023-10-17_20h09.56.240,vbt_B1_day2,2022.2.4,Win32,59.86590038,,,,,,,,,,,,,,,,,,,,,,,,,,,,,,,,,,,,,,,,,,kasteel,images/br_kasteel.png,images/cb_kasteel.png,,kasteel,,,,,,,,,,,0.387963048,-0.042592614,1,0,0,kasteel,0,35,35,14,1
,,,,,,00063,2023-10-17_20h09.56.240,vbt_B1_day2,2022.2.4,Win32,59.86590038,,,,,,,,,,,,,,,,,,,,,,,,,,,,,,,,,,,,,,,,,,koorts,images/br_koorts.png,images/cb_koorts.png,,koorts,,,,,,,,,,,0.387963048,-0.042592614,1,0,0,koorts,0,36,36,50,1
,,,,,,00063,2023-10-17_20h09.56.240,vbt_B1_day2,2022.2.4,Win32,59.86590038,,,,,,,,,,,,,,,,,,,,,,,,,,,,,,,,,,,,,,,,,,aanzien,images/br_aanzien.png,images/cb_aanzien.png,,aanzien,,,,,,,,,,,0.387963048,-0.042592614,1,0,0,aanzien,0,37,37,13,1
,,,,,,00063,2023-10-17_20h09.56.240,vbt_B1_day2,2022.2.4,Win32,59.86590038,,,,,,,,,,,,,,,,,,,,,,,,,,,,,,,,,,,,,,,,,,ningen,images/br_ningen.png,images/cb_ningen.png,,ningen,,,,,,,,,,,0.387963048,-0.042592614,1,0,0,ningen,0,38,38,28,1
,,,,,,00063,2023-10-17_20h09.56.240,vbt_B1_day2,2022.2.4,Win32,59.86590038,,,,,,,,,,,,,,,,,,,,,,,,,,,,,,,,,,,,,,,,,,jong,images/br_jong.png,images/cb_jong.png,,jong,,,,,,,,,,,0.387963048,-0.042592614,1,0,0,jong,0,39,39,43,1
,,,,,,00063,2023-10-17_20h09.56.240,vbt_B1_day2,2022.2.4,Win32,59.86590038,,,,,,,,,,,,,,,,,,,,,,,,,,,,,,,,,,,,,,,,,,tand,images/br_tand.png,images/cb_tand.png,,tand,,,,,,,,,,,0.387963048,-0.042592614,1,0,0,tand,0,40,40,42,1
,,,,,,00063,2023-10-17_20h09.56.240,vbt_B1_day2,2022.2.4,Win32,59.86590038,,,,,,,,,,,,,,,,,,,,,,,,,,,,,,,,,,,,,,,,,,lurgen,images/br_lurgen.png,images/cb_lurgen.png,,lurgen,,,,,,,,,,,0.387963048,-0.042592614,1,0,0,lurgen,0,41,41,29,1
,,,,,,00063,2023-10-17_20h09.56.240,vbt_B1_day2,2022.2.4,Win32,59.86590038,,,,,,,,,,,,,,,,,,,,,,,,,,,,,,,,,,,,,,,,,,geld,images/br_geld.png,images/cb_geld.png,,geld,,,,,,,,,,,0.387963048,-0.042592614,1,0,0,geld,0,42,42,3,1
,,,,,,00063,2023-10-17_20h09.56.240,vbt_B1_day2,2022.2.4,Win32,59.86590038,,,,,,,,,,,,,,,,,,,,,,,,,,,,,,,,,,,,,,,,,,stes,images/br_stes.png,images/cb_stes.png,,stes,,,,,,,,,,,0.387963048,-0.042592614,1,0,0,stes,0,43,43,21,1
,,,,,,00063,2023-10-17_20h09.56.240,vbt_B1_day2,2022.2.4,Win32,59.86590038,,,,,,,,,,,,,,,,,,,,,,,,,,,,,,,,,,,,,,,,,,badon,images/br_badon.png,images/cb_badon.png,,badon,,,,,,,,,,,0.387963048,-0.042592614,1,0,0,badon,0,44,44,26,1
,,,,,,00063,2023-10-17_20h09.56.240,vbt_B1_day2,2022.2.4,Win32,59.86590038,,,,,,,,,,,,,,,,,,,,,,,,,,,,,,,,,,,,,,,,,,clan,images/br_clan.png,images/cb_clan.png,,clan,,,,,,,,,,,0.387963048,-0.042592614,1,0,0,clan,0,45,45,40,1
,,,,,,00063,2023-10-17_20h09.56.240,vbt_B1_day2,2022.2.4,Win32,59.86590038,,,,,,,,,,,,,,,,,,,,,,,,,,,,,,,,,,,,,,,,,,heilig,images/br_heilig.png,images/cb_heilig.png,,heil...,,,,,,,,,,,0.387963048,-0.042592614,1,0,0,heil...,0,46,46,9,1
,,,,,,00063,2023-10-17_20h09.56.240,vbt_B1_day2,2022.2.4,Win32,59.86590038,,,,,,,,,,,,,,,,,,,,,,,,,,,,,,,,,,,,,,,,,,zegel,images/br_zegel.png,images/cb_zegel.png,,zegel,,,,,,,,,,,0.387963048,-0.042592614,1,0,0,zegel,0,47,47,46,1
,,,,,,00063,2023-10-17_20h09.56.240,vbt_B1_day2,2022.2.4,Win32,59.86590038,,,,,,,,,,,,,,,,,,,,,,,,,,,,,,,,,,,,,,,,,,piste,images/br_piste.png,images/cb_piste.png,,piste,,,,,,,,,,,0.387963048,-0.042592614,1,0,0,piste,0,48,48,5,1
,,,,,,00063,2023-10-17_20h09.56.240,vbt_B1_day2,2022.2.4,Win32,59.86590038,,,,,,,,,,,,,,,,,,,,,,,,,,,,,,,,,,,,,,,,,,toeval,images/br_toeval.png,images/cb_toeval.png,,toeval,,,,,,,,,,,0.387963048,-0.042592614,1,0,0,toeval,0,49,49,11,1
,,,,,,00063,2023-10-17_20h09.56.240,vbt_B1_day2,2022.2.4,Win32,59.86590038,,,,,,,,,,,,,,,,,,,,,,,,,,,,,,,,,,,,,,,,,,aanvraag,images/br_aanvraag.png,images/cb_aanvraag.png,,aanvraag,,,,,,,,,,,0.387963048,-0.042592614,1,0,0,aanvraag,0,50,50,57,1
,,,,,,00063,2023-10-17_20h09.56.240,vbt_B1_day2,2022.2.4,Win32,59.86590038,,,,,,,,,,,,,,,,,,,,,,,,,,,,,,,,,,,,,,,,,,negel,images/br_negel.png,images/cb_negel.png,,zegel,,,,,,,,,,,0.387963048,-0.042592614,1,0,0,zegel,0,51,51,24,1
,,,,,,00063,2023-10-17_20h09.56.240,vbt_B1_day2,2022.2.4,Win32,59.86590038,,,,,,,,,,,,,,,,,,,,,,,,,,,,,,,,,,,,,,,,,,eenhoorn,images/br_eenhoorn.png,images/cb_eenhoorn.png,,eenhoorn,,,,,,,,,,,0.387963048,-0.042592614,1,0,0,eenhoorn,0,52,52,19,1
,,,,,,00063,2023-10-17_20h09.56.240,vbt_B1_day2,2022.2.4,Win32,59.86590038,,,,,,,,,,,,,,,,,,,,,,,,,,,,,,,,,,,,,,,,,,sifferd,images/br_sifferd.png,images/cb_sifferd.png,,sifferd,,,,,,,,,,,0.387963048,-0.042592614,1,0,0,sifferd,0,53,53,32,1
,,,,,,00063,2023-10-17_20h09.56.240,vbt_B1_day2,2022.2.4,Win32,59.86590038,,,,,,,,,,,,,,,,,,,,,,,,,,,,,,,,,,,,,,,,,,zomers,images/br_zomers.png,images/cb_zomers.png,,zomers,,,,,,,,,,,0.387963048,-0.042592614,1,0,0,zomers,0,54,54,48,1
,,,,,,00063,2023-10-17_20h09.56.240,vbt_B1_day2,2022.2.4,Win32,59.86590038,,,,,,,,,,,,,,,,,,,,,,,,,,,,,,,,,,,,,,,,,,wijve,images/br_wijve.png,images/cb_wijve.png,,wijve,,,,,,,,,,,0.387963048,-0.042592614,1,0,0,wijve,0,55,55,27,1
,,,,,,00063,2023-10-17_20h09.56.240,vbt_B1_day2,2022.2.4,Win32,59.86590038,,,,,,,,,,,,,,,,,,,,,,,,,,,,,,,,,,,,,,,,,,welzijn,images/br_welzijn.png,images/cb_welzijn.png,,welzijn,,,,,,,,,,,0.387963048,-0.042592614,1,0,0,welzijn,0,56,56,52,1
,,,,,,00063,2023-10-17_20h09.56.240,vbt_B1_day2,2022.2.4,Win32,59.86590038,,,,,,,,,,,,,,,,,,,,,,,,,,,,,,,,,,,,,,,,,,heengeen,images/br_heengeen.png,images/cb_heengeen.png,,deengeen,,,,,,,,,,,0.387963048,-0.042592614,1,0,0,deengeen,0,57,57,38,1
,,,,,,00063,2023-10-17_20h09.56.240,vbt_B1_day2,2022.2.4,Win32,59.86590038,,,,,,,,,,,,,,,,,,,,,,,,,,,,,,,,,,,,,,,,,,remel,images/br_remel.png,images/cb_remel.png,,remel,,,,,,,,,,,0.387963048,-0.042592614,1,0,0,remel,0,58,58,25,1
,,,,,,00063,2023-10-17_20h09.56.240,vbt_B1_day2,2022.2.4,Win32,59.86590038,,,,,,,,,,,,,,,,,,,,,,,,,,,,,,,,,,,,,,,,,,krimmen,images/br_krimmen.png,images/cb_krimmen.png,,krimmen,,,,,,,,,,,0.387963048,-0.042592614,1,0,0,krimmen,0,59,59,35,1
,,,,,,00063,2023-10-17_20h09.56.240,vbt_B1_day2,2022.2.4,Win32,59.86590038,,,,,,,,,,,,,,,,,,,,,,,,,,,,,,,,,,,,,,,,,,,,,,,,,,,,,,,,,,,,,,,,,,,
