welcome_mouse.x,welcome_mouse.y,welcome_mouse.leftButton,welcome_mouse.midButton,welcome_mouse.rightButton,welcome_mouse.time,"ID",date,expName,psychopyVersion,OS,frameRate,refresh_mouse.x,refresh_mouse.y,refresh_mouse.leftButton,refresh_mouse.midButton,refresh_mouse.rightButton,refresh_mouse.time,braille_mouse.x,braille_mouse.y,braille_mouse.leftButton,braille_mouse.midButton,braille_mouse.rightButton,braille_mouse.time,trials.thisRepN,trials.thisTrialN,trials.thisN,trials.thisIndex,trials.ran,nlLet,brLet,cbLet,trainInstr_mouse.x,trainInstr_mouse.y,trainInstr_mouse.leftButton,trainInstr_mouse.midButton,trainInstr_mouse.rightButton,trainInstr_mouse.time,translation_key.keys,translation_key.corr,translation_key.rt,word_rsp.text,word_mouse.x,word_mouse.y,word_mouse.leftButton,word_mouse.midButton,word_mouse.rightButton,word_mouse.time,train_loop.thisRepN,train_loop.thisTrialN,train_loop.thisN,train_loop.thisIndex,train_loop.ran,nlWrd,brWrd,cbWrd,test,testResp,mouse.x,mouse.y,mouse.leftButton,mouse.midButton,mouse.rightButton,testInstr_mouse.x,testInstr_mouse.y,testInstr_mouse.leftButton,testInstr_mouse.midButton,testInstr_mouse.rightButton,test_mouse.x,test_mouse.y,test_mouse.leftButton,test_mouse.midButton,test_mouse.rightButton,test_response.text,test_loop.thisRepN,test_loop.thisTrialN,test_loop.thisN,test_loop.thisIndex,test_loop.ran
0.111111111,-0.275,1,0,0,7.7463,00050,2023-10-11_08h48.05.537,vbt_B1_day2,2022.2.4,Win32,60.04924038,,,,,,,,,,,,,,,,,,,,,,,,,,,,,,,,,,,,,,,,,,,,,,,,,,,,,,,,,,,,,,,,,,,
,,,,,,00050,2023-10-11_08h48.05.537,vbt_B1_day2,2022.2.4,Win32,60.04924038,0.111111111,-0.275,1,0,0,7.802,,,,,,,,,,,,,,,,,,,,,,,,,,,,,,,,,,,,,,,,,,,,,,,,,,,,,,,,,,,,,
,,,,,,00050,2023-10-11_08h48.05.537,vbt_B1_day2,2022.2.4,Win32,60.04924038,,,,,,,0.111111111,-0.275,1,0,0,1.6513,0,0,0,14,1,o,images/br_o.png,images/cb_o.png,,,,,,,,,,,,,,,,,,,,,,,,,,,,,,,,,,,,,,,,,,,,,,,
,,,,,,00050,2023-10-11_08h48.05.537,vbt_B1_day2,2022.2.4,Win32,60.04924038,,,,,,,0.111111111,-0.275,1,0,0,0.8026,0,1,1,4,1,e,images/br_e.png,images/cb_e.png,,,,,,,,,,,,,,,,,,,,,,,,,,,,,,,,,,,,,,,,,,,,,,,
,,,,,,00050,2023-10-11_08h48.05.537,vbt_B1_day2,2022.2.4,Win32,60.04924038,,,,,,,0.111111111,-0.275,1,0,0,0.9691,0,2,2,11,1,l,images/br_l.png,images/cb_l.png,,,,,,,,,,,,,,,,,,,,,,,,,,,,,,,,,,,,,,,,,,,,,,,
,,,,,,00050,2023-10-11_08h48.05.537,vbt_B1_day2,2022.2.4,Win32,60.04924038,,,,,,,0.111111111,-0.275,1,0,0,3.6967,0,3,3,20,1,u,images/br_u.png,images/cb_u.png,,,,,,,,,,,,,,,,,,,,,,,,,,,,,,,,,,,,,,,,,,,,,,,
,,,,,,00050,2023-10-11_08h48.05.537,vbt_B1_day2,2022.2.4,Win32,60.04924038,,,,,,,0.111111111,-0.275,1,0,0,2.9125,0,4,4,13,1,n,images/br_n.png,images/cb_n.png,,,,,,,,,,,,,,,,,,,,,,,,,,,,,,,,,,,,,,,,,,,,,,,
,,,,,,00050,2023-10-11_08h48.05.537,vbt_B1_day2,2022.2.4,Win32,60.04924038,,,,,,,0.111111111,-0.275,1,0,0,1.8483,0,5,5,6,1,g,images/br_g.png,images/cb_g.png,,,,,,,,,,,,,,,,,,,,,,,,,,,,,,,,,,,,,,,,,,,,,,,
,,,,,,00050,2023-10-11_08h48.05.537,vbt_B1_day2,2022.2.4,Win32,60.04924038,,,,,,,0.111111111,-0.275,1,0,0,3.6635,0,6,6,16,1,q,images/br_q.png,images/cb_q.png,,,,,,,,,,,,,,,,,,,,,,,,,,,,,,,,,,,,,,,,,,,,,,,
,,,,,,00050,2023-10-11_08h48.05.537,vbt_B1_day2,2022.2.4,Win32,60.04924038,,,,,,,0.111111111,-0.275,1,0,0,4.4939,0,7,7,5,1,f,images/br_f.png,images/cb_f.png,,,,,,,,,,,,,,,,,,,,,,,,,,,,,,,,,,,,,,,,,,,,,,,
,,,,,,00050,2023-10-11_08h48.05.537,vbt_B1_day2,2022.2.4,Win32,60.04924038,,,,,,,0.111111111,-0.275,1,0,0,1.4155,0,8,8,19,1,t,images/br_t.png,images/cb_t.png,,,,,,,,,,,,,,,,,,,,,,,,,,,,,,,,,,,,,,,,,,,,,,,
,,,,,,00050,2023-10-11_08h48.05.537,vbt_B1_day2,2022.2.4,Win32,60.04924038,,,,,,,0.111111111,-0.275,1,0,0,2.6645,0,9,9,21,1,v,images/br_v.png,images/cb_v.png,,,,,,,,,,,,,,,,,,,,,,,,,,,,,,,,,,,,,,,,,,,,,,,
,,,,,,00050,2023-10-11_08h48.05.537,vbt_B1_day2,2022.2.4,Win32,60.04924038,,,,,,,0.111111111,-0.275,1,0,0,3.064,0,10,10,7,1,h,images/br_h.png,images/cb_h.png,,,,,,,,,,,,,,,,,,,,,,,,,,,,,,,,,,,,,,,,,,,,,,,
,,,,,,00050,2023-10-11_08h48.05.537,vbt_B1_day2,2022.2.4,Win32,60.04924038,,,,,,,0.111111111,-0.275,1,0,0,2.7139,0,11,11,10,1,k,images/br_k.png,images/cb_k.png,,,,,,,,,,,,,,,,,,,,,,,,,,,,,,,,,,,,,,,,,,,,,,,
,,,,,,00050,2023-10-11_08h48.05.537,vbt_B1_day2,2022.2.4,Win32,60.04924038,,,,,,,0.111111111,-0.275,1,0,0,0.533,0,12,12,8,1,i,images/br_i.png,images/cb_i.png,,,,,,,,,,,,,,,,,,,,,,,,,,,,,,,,,,,,,,,,,,,,,,,
,,,,,,00050,2023-10-11_08h48.05.537,vbt_B1_day2,2022.2.4,Win32,60.04924038,,,,,,,0.111111111,-0.275,1,0,0,2.2013,0,13,13,25,1,z,images/br_z.png,images/cb_z.png,,,,,,,,,,,,,,,,,,,,,,,,,,,,,,,,,,,,,,,,,,,,,,,
,,,,,,00050,2023-10-11_08h48.05.537,vbt_B1_day2,2022.2.4,Win32,60.04924038,,,,,,,0.111111111,-0.275,1,0,0,0.7492,0,14,14,23,1,x,images/br_x.png,images/cb_x.png,,,,,,,,,,,,,,,,,,,,,,,,,,,,,,,,,,,,,,,,,,,,,,,
,,,,,,00050,2023-10-11_08h48.05.537,vbt_B1_day2,2022.2.4,Win32,60.04924038,,,,,,,0.111111111,-0.275,1,0,0,1.3987,0,15,15,1,1,b,images/br_b.png,images/cb_b.png,,,,,,,,,,,,,,,,,,,,,,,,,,,,,,,,,,,,,,,,,,,,,,,
,,,,,,00050,2023-10-11_08h48.05.537,vbt_B1_day2,2022.2.4,Win32,60.04924038,,,,,,,0.111111111,-0.275,1,0,0,0.1997,0,16,16,17,1,r,images/br_r.png,images/cb_r.png,,,,,,,,,,,,,,,,,,,,,,,,,,,,,,,,,,,,,,,,,,,,,,,
,,,,,,00050,2023-10-11_08h48.05.537,vbt_B1_day2,2022.2.4,Win32,60.04924038,,,,,,,0.111111111,-0.275,1,0,0,0.7327,0,17,17,24,1,y,images/br_y.png,images/cb_y.png,,,,,,,,,,,,,,,,,,,,,,,,,,,,,,,,,,,,,,,,,,,,,,,
,,,,,,00050,2023-10-11_08h48.05.537,vbt_B1_day2,2022.2.4,Win32,60.04924038,,,,,,,0.111111111,-0.275,1,0,0,0.6185,0,18,18,2,1,c,images/br_c.png,images/cb_c.png,,,,,,,,,,,,,,,,,,,,,,,,,,,,,,,,,,,,,,,,,,,,,,,
,,,,,,00050,2023-10-11_08h48.05.537,vbt_B1_day2,2022.2.4,Win32,60.04924038,,,,,,,0.111111111,-0.275,1,0,0,2.0015,0,19,19,22,1,w,images/br_w.png,images/cb_w.png,,,,,,,,,,,,,,,,,,,,,,,,,,,,,,,,,,,,,,,,,,,,,,,
,,,,,,00050,2023-10-11_08h48.05.537,vbt_B1_day2,2022.2.4,Win32,60.04924038,,,,,,,0.111111111,-0.275,1,0,0,0.8326,0,20,20,3,1,d,images/br_d.png,images/cb_d.png,,,,,,,,,,,,,,,,,,,,,,,,,,,,,,,,,,,,,,,,,,,,,,,
,,,,,,00050,2023-10-11_08h48.05.537,vbt_B1_day2,2022.2.4,Win32,60.04924038,,,,,,,0.111111111,-0.275,1,0,0,0.3865,0,21,21,0,1,a,images/br_a.png,images/cb_a.png,,,,,,,,,,,,,,,,,,,,,,,,,,,,,,,,,,,,,,,,,,,,,,,
,,,,,,00050,2023-10-11_08h48.05.537,vbt_B1_day2,2022.2.4,Win32,60.04924038,,,,,,,0.111111111,-0.275,1,0,0,0.1332,0,22,22,9,1,j,images/br_j.png,images/cb_j.png,,,,,,,,,,,,,,,,,,,,,,,,,,,,,,,,,,,,,,,,,,,,,,,
,,,,,,00050,2023-10-11_08h48.05.537,vbt_B1_day2,2022.2.4,Win32,60.04924038,,,,,,,0.111111111,-0.275,1,0,0,0.6194,0,23,23,18,1,s,images/br_s.png,images/cb_s.png,,,,,,,,,,,,,,,,,,,,,,,,,,,,,,,,,,,,,,,,,,,,,,,
,,,,,,00050,2023-10-11_08h48.05.537,vbt_B1_day2,2022.2.4,Win32,60.04924038,,,,,,,0.111111111,-0.275,1,0,0,2.5476,0,24,24,15,1,p,images/br_p.png,images/cb_p.png,,,,,,,,,,,,,,,,,,,,,,,,,,,,,,,,,,,,,,,,,,,,,,,
,,,,,,00050,2023-10-11_08h48.05.537,vbt_B1_day2,2022.2.4,Win32,60.04924038,,,,,,,0.111111111,-0.275,1,0,0,0.8158,0,25,25,12,1,m,images/br_m.png,images/cb_m.png,,,,,,,,,,,,,,,,,,,,,,,,,,,,,,,,,,,,,,,,,,,,,,,
,,,,,,00050,2023-10-11_08h48.05.537,vbt_B1_day2,2022.2.4,Win32,60.04924038,,,,,,,,,,,,,,,,,,,,,0.111111111,-0.275,1,0,0,21.3857,,,,,,,,,,,,,,,,,,,,,,,,,,,,,,,,,,,,,,,,,
,,,,,,00050,2023-10-11_08h48.05.537,vbt_B1_day2,2022.2.4,Win32,60.04924038,,,,,,,,,,,,,,,,,,,,,,,,,,,down,0,7.5597,,0.111111111,-0.275,1,0,0,3.445,0,0,0,115,1,kleren,images/br_kleren.png,images/cb_kleren.png,0,,,,,,,,,,,,,,,,,,,,,,
,,,,,,00050,2023-10-11_08h48.05.537,vbt_B1_day2,2022.2.4,Win32,60.04924038,,,,,,,,,,,,,,,,,,,,,,,,,,,down,0,7.2519,,0.111111111,-0.275,1,0,0,2.034,0,1,1,125,1,aanzien,images/br_aanzien.png,images/cb_aanzien.png,0,,,,,,,,,,,,,,,,,,,,,,
,,,,,,00050,2023-10-11_08h48.05.537,vbt_B1_day2,2022.2.4,Win32,60.04924038,,,,,,,,,,,,,,,,,,,,,,,,,,,down,0,6.3447,,0.111111111,-0.275,1,0,0,1.2624,0,2,2,113,1,koppen,images/br_koppen.png,images/cb_koppen.png,0,,,,,,,,,,,,,,,,,,,,,,
,,,,,,00050,2023-10-11_08h48.05.537,vbt_B1_day2,2022.2.4,Win32,60.04924038,,,,,,,,,,,,,,,,,,,,,,,,,,,down,0,9.2007,,0.111111111,-0.275,1,0,0,2.7642,0,3,3,111,1,ticket,images/br_ticket.png,images/cb_ticket.png,0,,,,,,,,,,,,,,,,,,,,,,
,,,,,,00050,2023-10-11_08h48.05.537,vbt_B1_day2,2022.2.4,Win32,60.04924038,,,,,,,,,,,,,,,,,,,,,,,,,,,down,0,3.3214,,0.111111111,-0.275,1,0,0,1.0322,0,4,4,25,1,plek,images/br_plek.png,images/cb_plek.png,0,,,,,,,,,,,,,,,,,,,,,,
,,,,,,00050,2023-10-11_08h48.05.537,vbt_B1_day2,2022.2.4,Win32,60.04924038,,,,,,,,,,,,,,,,,,,,,,,,,,,down,0,8.42,,0.111111111,-0.275,1,0,0,4.1289,0,5,5,154,1,aflopen,images/br_aflopen.png,images/cb_aflopen.png,0,,,,,,,,,,,,,,,,,,,,,,
,,,,,,00050,2023-10-11_08h48.05.537,vbt_B1_day2,2022.2.4,Win32,60.04924038,,,,,,,,,,,,,,,,,,,,,,,,,,,down,0,4.1402,,0.111111111,-0.275,1,0,0,2.0009,0,6,6,31,1,poes,images/br_poes.png,images/cb_poes.png,0,,,,,,,,,,,,,,,,,,,,,,
,,,,,,00050,2023-10-11_08h48.05.537,vbt_B1_day2,2022.2.4,Win32,60.04924038,,,,,,,,,,,,,,,,,,,,,,,,,,,down,0,8.1503,,0.111111111,-0.275,1,0,0,1.552,0,7,7,172,1,weigeren,images/br_weigeren.png,images/cb_weigeren.png,0,,,,,,,,,,,,,,,,,,,,,,
,,,,,,00050,2023-10-11_08h48.05.537,vbt_B1_day2,2022.2.4,Win32,60.04924038,,,,,,,,,,,,,,,,,,,,,,,,,,,down,0,2.235,,0.111111111,-0.275,1,0,0,1.6675,0,8,8,50,1,stoom,images/br_stoom.png,images/cb_stoom.png,0,,,,,,,,,,,,,,,,,,,,,,
,,,,,,00050,2023-10-11_08h48.05.537,vbt_B1_day2,2022.2.4,Win32,60.04924038,,,,,,,,,,,,,,,,,,,,,,,,,,,down,0,5.7216,,0.111111111,-0.275,1,0,0,1.6809,0,9,9,14,1,rijp,images/br_rijp.png,images/cb_rijp.png,0,,,,,,,,,,,,,,,,,,,,,,
,,,,,,00050,2023-10-11_08h48.05.537,vbt_B1_day2,2022.2.4,Win32,60.04924038,,,,,,,,,,,,,,,,,,,,,,,,,,,down,0,3.2975,,0.111111111,-0.275,1,0,0,1.4446,0,10,10,124,1,bloeien,images/br_bloeien.png,images/cb_bloeien.png,0,,,,,,,,,,,,,,,,,,,,,,
,,,,,,00050,2023-10-11_08h48.05.537,vbt_B1_day2,2022.2.4,Win32,60.04924038,,,,,,,,,,,,,,,,,,,,,,,,,,,down,0,6.3152,,0.111111111,-0.275,1,0,0,1.2323,0,11,11,40,1,schep,images/br_schep.png,images/cb_schep.png,0,,,,,,,,,,,,,,,,,,,,,,
,,,,,,00050,2023-10-11_08h48.05.537,vbt_B1_day2,2022.2.4,Win32,60.04924038,,,,,,,,,,,,,,,,,,,,,,,,,,,down,0,4.1137,,0.111111111,-0.275,1,0,0,3.413,0,12,12,140,1,blijven,images/br_blijven.png,images/cb_blijven.png,0,,,,,,,,,,,,,,,,,,,,,,
,,,,,,00050,2023-10-11_08h48.05.537,vbt_B1_day2,2022.2.4,Win32,60.04924038,,,,,,,,,,,,,,,,,,,,,,,,,,,down,0,4.0153,,0.111111111,-0.275,1,0,0,2.7131,0,13,13,24,1,jurk,images/br_jurk.png,images/cb_jurk.png,0,,,,,,,,,,,,,,,,,,,,,,
,,,,,,00050,2023-10-11_08h48.05.537,vbt_B1_day2,2022.2.4,Win32,60.04924038,,,,,,,,,,,,,,,,,,,,,,,,,,,down,0,7.5935,,0.101851852,-0.280555556,1,0,0,1.5455,0,14,14,127,1,doodmoe,images/br_doodmoe.png,images/cb_doodmoe.png,0,,,,,,,,,,,,,,,,,,,,,,
,,,,,,00050,2023-10-11_08h48.05.537,vbt_B1_day2,2022.2.4,Win32,60.04924038,,,,,,,,,,,,,,,,,,,,,,,,,,,down,0,3.2571,,0.101851852,-0.280555556,1,0,0,1.2655,0,15,15,89,1,slapen,images/br_slapen.png,images/cb_slapen.png,0,,,,,,,,,,,,,,,,,,,,,,
,,,,,,00050,2023-10-11_08h48.05.537,vbt_B1_day2,2022.2.4,Win32,60.04924038,,,,,,,,,,,,,,,,,,,,,,,,,,,down,0,10.228,,0.101851852,-0.280555556,1,0,0,1.9981,0,16,16,145,1,invloed,images/br_invloed.png,images/cb_invloed.png,0,,,,,,,,,,,,,,,,,,,,,,
,,,,,,00050,2023-10-11_08h48.05.537,vbt_B1_day2,2022.2.4,Win32,60.04924038,,,,,,,,,,,,,,,,,,,,,,,,,,,down,0,2.897,,0.101851852,-0.280555556,1,0,0,1.2798,0,17,17,22,1,stof,images/br_stof.png,images/cb_stof.png,0,,,,,,,,,,,,,,,,,,,,,,
,,,,,,00050,2023-10-11_08h48.05.537,vbt_B1_day2,2022.2.4,Win32,60.04924038,,,,,,,,,,,,,,,,,,,,,,,,,,,down,0,5.3084,,0.101851852,-0.280555556,1,0,0,1.1822,0,18,18,106,1,zingen,images/br_zingen.png,images/cb_zingen.png,0,,,,,,,,,,,,,,,,,,,,,,
,,,,,,00050,2023-10-11_08h48.05.537,vbt_B1_day2,2022.2.4,Win32,60.04924038,,,,,,,,,,,,,,,,,,,,,,,,,,,down,0,4.0191,,0.101851852,-0.280555556,1,0,0,1.0657,0,19,19,87,1,toeval,images/br_toeval.png,images/cb_toeval.png,0,,,,,,,,,,,,,,,,,,,,,,
,,,,,,00050,2023-10-11_08h48.05.537,vbt_B1_day2,2022.2.4,Win32,60.04924038,,,,,,,,,,,,,,,,,,,,,,,,,,,down,0,7.0038,,0.101851852,-0.278703704,1,0,0,0.8691,0,20,20,86,1,woning,images/br_woning.png,images/cb_woning.png,0,,,,,,,,,,,,,,,,,,,,,,
,,,,,,00050,2023-10-11_08h48.05.537,vbt_B1_day2,2022.2.4,Win32,60.04924038,,,,,,,,,,,,,,,,,,,,,,,,,,,down,0,16.8327,,0.524074074,-0.255555556,1,0,0,1.6518,0,21,21,177,1,maaltijd,images/br_maaltijd.png,images/cb_maaltijd.png,1,maaltijd,,,,,,,,,,,,,,,,,,,,,
,,,,,,00050,2023-10-11_08h48.05.537,vbt_B1_day2,2022.2.4,Win32,60.04924038,,,,,,,,,,,,,,,,,,,,,,,,,,,down,0,8.8248,,0.524074074,-0.255555556,1,0,0,0.6491,0,22,22,163,1,schuilen,images/br_schuilen.png,images/cb_schuilen.png,0,,,,,,,,,,,,,,,,,,,,,,
,,,,,,00050,2023-10-11_08h48.05.537,vbt_B1_day2,2022.2.4,Win32,60.04924038,,,,,,,,,,,,,,,,,,,,,,,,,,,down,0,5.4958,,0.524074074,-0.255555556,1,0,0,0.9122,0,23,23,131,1,opzicht,images/br_opzicht.png,images/cb_opzicht.png,0,,,,,,,,,,,,,,,,,,,,,,
,,,,,,00050,2023-10-11_08h48.05.537,vbt_B1_day2,2022.2.4,Win32,60.04924038,,,,,,,,,,,,,,,,,,,,,,,,,,,down,0,2.0825,,0.524074074,-0.255555556,1,0,0,1.8973,0,24,24,112,1,lukken,images/br_lukken.png,images/cb_lukken.png,0,,,,,,,,,,,,,,,,,,,,,,
,,,,,,00050,2023-10-11_08h48.05.537,vbt_B1_day2,2022.2.4,Win32,60.04924038,,,,,,,,,,,,,,,,,,,,,,,,,,,down,0,2.1914,,0.524074074,-0.255555556,1,0,0,1.5182,0,25,25,23,1,zout,images/br_zout.png,images/cb_zout.png,0,,,,,,,,,,,,,,,,,,,,,,
,,,,,,00050,2023-10-11_08h48.05.537,vbt_B1_day2,2022.2.4,Win32,60.04924038,,,,,,,,,,,,,,,,,,,,,,,,,,,down,0,9.7399,,0.524074074,-0.255555556,1,0,0,3.8293,0,26,26,60,1,jasje,images/br_jasje.png,images/cb_jasje.png,0,,,,,,,,,,,,,,,,,,,,,,
,,,,,,00050,2023-10-11_08h48.05.537,vbt_B1_day2,2022.2.4,Win32,60.04924038,,,,,,,,,,,,,,,,,,,,,,,,,,,down,0,12.8059,,0.524074074,-0.255555556,1,0,0,0.6793,0,27,27,136,1,waarbij,images/br_waarbij.png,images/cb_waarbij.png,1,waarbij,,,,,,,,,,,,,,,,,,,,,
,,,,,,00050,2023-10-11_08h48.05.537,vbt_B1_day2,2022.2.4,Win32,60.04924038,,,,,,,,,,,,,,,,,,,,,,,,,,,down,0,8.483,,0.524074074,-0.255555556,1,0,0,0.5156,0,28,28,153,1,vervoer,images/br_vervoer.png,images/cb_vervoer.png,0,,,,,,,,,,,,,,,,,,,,,,
,,,,,,00050,2023-10-11_08h48.05.537,vbt_B1_day2,2022.2.4,Win32,60.04924038,,,,,,,,,,,,,,,,,,,,,,,,,,,down,0,1.736,,0.524074074,-0.255555556,1,0,0,0.6494,0,29,29,42,1,bleek,images/br_bleek.png,images/cb_bleek.png,0,,,,,,,,,,,,,,,,,,,,,,
,,,,,,00050,2023-10-11_08h48.05.537,vbt_B1_day2,2022.2.4,Win32,60.04924038,,,,,,,,,,,,,,,,,,,,,,,,,,,down,0,4.6646,,0.524074074,-0.255555556,1,0,0,3.896,0,30,30,44,1,flits,images/br_flits.png,images/cb_flits.png,0,,,,,,,,,,,,,,,,,,,,,,
,,,,,,00050,2023-10-11_08h48.05.537,vbt_B1_day2,2022.2.4,Win32,60.04924038,,,,,,,,,,,,,,,,,,,,,,,,,,,down,0,4.1375,,0.524074074,-0.255555556,1,0,0,4.4456,0,31,31,119,1,liefje,images/br_liefje.png,images/cb_liefje.png,0,,,,,,,,,,,,,,,,,,,,,,
,,,,,,00050,2023-10-11_08h48.05.537,vbt_B1_day2,2022.2.4,Win32,60.04924038,,,,,,,,,,,,,,,,,,,,,,,,,,,down,0,6.6204,,0.524074074,-0.255555556,1,0,0,0.833,0,32,32,192,1,schaamte,images/br_schaamte.png,images/cb_schaamte.png,0,,,,,,,,,,,,,,,,,,,,,,
,,,,,,00050,2023-10-11_08h48.05.537,vbt_B1_day2,2022.2.4,Win32,60.04924038,,,,,,,,,,,,,,,,,,,,,,,,,,,down,0,2.2442,,0.524074074,-0.255555556,1,0,0,1.1325,0,33,33,81,1,dubbel,images/br_dubbel.png,images/cb_dubbel.png,0,,,,,,,,,,,,,,,,,,,,,,
,,,,,,00050,2023-10-11_08h48.05.537,vbt_B1_day2,2022.2.4,Win32,60.04924038,,,,,,,,,,,,,,,,,,,,,,,,,,,down,0,2.4875,,0.524074074,-0.255555556,1,0,0,1.0857,0,34,34,8,1,knie,images/br_knie.png,images/cb_knie.png,0,,,,,,,,,,,,,,,,,,,,,,
,,,,,,00050,2023-10-11_08h48.05.537,vbt_B1_day2,2022.2.4,Win32,60.04924038,,,,,,,,,,,,,,,,,,,,,,,,,,,down,0,1.7224,,0.524074074,-0.255555556,1,0,0,1.232,0,35,35,101,1,staren,images/br_staren.png,images/cb_staren.png,0,,,,,,,,,,,,,,,,,,,,,,
,,,,,,00050,2023-10-11_08h48.05.537,vbt_B1_day2,2022.2.4,Win32,60.04924038,,,,,,,,,,,,,,,,,,,,,,,,,,,down,0,5.353,,0.524074074,-0.255555556,1,0,0,0.7852,0,36,36,149,1,redding,images/br_redding.png,images/cb_redding.png,0,,,,,,,,,,,,,,,,,,,,,,
,,,,,,00050,2023-10-11_08h48.05.537,vbt_B1_day2,2022.2.4,Win32,60.04924038,,,,,,,,,,,,,,,,,,,,,,,,,,,down,0,3.5972,,0.524074074,-0.255555556,1,0,0,0.7796,0,37,37,90,1,geluid,images/br_geluid.png,images/cb_geluid.png,0,,,,,,,,,,,,,,,,,,,,,,
,,,,,,00050,2023-10-11_08h48.05.537,vbt_B1_day2,2022.2.4,Win32,60.04924038,,,,,,,,,,,,,,,,,,,,,,,,,,,down,0,4.6373,,0.524074074,-0.255555556,1,0,0,1.0823,0,38,38,169,1,oprotten,images/br_oprotten.png,images/cb_oprotten.png,0,,,,,,,,,,,,,,,,,,,,,,
,,,,,,00050,2023-10-11_08h48.05.537,vbt_B1_day2,2022.2.4,Win32,60.04924038,,,,,,,,,,,,,,,,,,,,,,,,,,,down,0,2.9477,,0.524074074,-0.255555556,1,0,0,1.1158,0,39,39,70,1,ijdel,images/br_ijdel.png,images/cb_ijdel.png,0,,,,,,,,,,,,,,,,,,,,,,
,,,,,,00050,2023-10-11_08h48.05.537,vbt_B1_day2,2022.2.4,Win32,60.04924038,,,,,,,,,,,,,,,,,,,,,,,,,,,down,0,3.521,,0.524074074,-0.255555556,1,0,0,0.916,0,40,40,189,1,aanraden,images/br_aanraden.png,images/cb_aanraden.png,0,,,,,,,,,,,,,,,,,,,,,,
,,,,,,00050,2023-10-11_08h48.05.537,vbt_B1_day2,2022.2.4,Win32,60.04924038,,,,,,,,,,,,,,,,,,,,,,,,,,,down,0,3.2983,,0.524074074,-0.255555556,1,0,0,1.6482,0,41,41,128,1,prikken,images/br_prikken.png,images/cb_prikken.png,0,,,,,,,,,,,,,,,,,,,,,,
,,,,,,00050,2023-10-11_08h48.05.537,vbt_B1_day2,2022.2.4,Win32,60.04924038,,,,,,,,,,,,,,,,,,,,,,,,,,,down,0,6.4686,,0.524074074,-0.255555556,1,0,0,1.216,0,42,42,121,1,twijfel,images/br_twijfel.png,images/cb_twijfel.png,0,,,,,,,,,,,,,,,,,,,,,,
,,,,,,00050,2023-10-11_08h48.05.537,vbt_B1_day2,2022.2.4,Win32,60.04924038,,,,,,,,,,,,,,,,,,,,,,,,,,,down,0,2.0306,,0.524074074,-0.255555556,1,0,0,1.1467,0,43,43,33,1,vlek,images/br_vlek.png,images/cb_vlek.png,0,,,,,,,,,,,,,,,,,,,,,,
,,,,,,00050,2023-10-11_08h48.05.537,vbt_B1_day2,2022.2.4,Win32,60.04924038,,,,,,,,,,,,,,,,,,,,,,,,,,,down,0,1.0062,,0.524074074,-0.255555556,1,0,0,1.3819,0,44,44,5,1,blad,images/br_blad.png,images/cb_blad.png,0,,,,,,,,,,,,,,,,,,,,,,
,,,,,,00050,2023-10-11_08h48.05.537,vbt_B1_day2,2022.2.4,Win32,60.04924038,,,,,,,,,,,,,,,,,,,,,,,,,,,down,0,9.2858,,0.524074074,-0.255555556,1,0,0,1.2322,0,45,45,168,1,bisschop,images/br_bisschop.png,images/cb_bisschop.png,0,,,,,,,,,,,,,,,,,,,,,,
,,,,,,00050,2023-10-11_08h48.05.537,vbt_B1_day2,2022.2.4,Win32,60.04924038,,,,,,,,,,,,,,,,,,,,,,,,,,,down,0,1.7797,,0.524074074,-0.255555556,1,0,0,1.1488,0,46,46,62,1,knaap,images/br_knaap.png,images/cb_knaap.png,0,,,,,,,,,,,,,,,,,,,,,,
,,,,,,00050,2023-10-11_08h48.05.537,vbt_B1_day2,2022.2.4,Win32,60.04924038,,,,,,,,,,,,,,,,,,,,,,,,,,,down,0,2.0654,,0.524074074,-0.255555556,1,0,0,1.5454,0,47,47,43,1,klauw,images/br_klauw.png,images/cb_klauw.png,0,,,,,,,,,,,,,,,,,,,,,,
,,,,,,00050,2023-10-11_08h48.05.537,vbt_B1_day2,2022.2.4,Win32,60.04924038,,,,,,,,,,,,,,,,,,,,,,,,,,,down,0,1.8169,,0.524074074,-0.255555556,1,0,0,0.5826,0,48,48,96,1,slagen,images/br_slagen.png,images/cb_slagen.png,1,slagen,,,,,,,,,,,,,,,,,,,,,
,,,,,,00050,2023-10-11_08h48.05.537,vbt_B1_day2,2022.2.4,Win32,60.04924038,,,,,,,,,,,,,,,,,,,,,,,,,,,down,0,8.7863,,0.524074074,-0.255555556,1,0,0,1.3159,0,49,49,130,1,keihard,images/br_keihard.png,images/cb_keihard.png,0,,,,,,,,,,,,,,,,,,,,,,
,,,,,,00050,2023-10-11_08h48.05.537,vbt_B1_day2,2022.2.4,Win32,60.04924038,,,,,,,,,,,,,,,,,,,,,,,,,,,down,0,2.8888,,0.524074074,-0.255555556,1,0,0,0.9991,0,50,50,197,1,spanning,images/br_spanning.png,images/cb_spanning.png,0,,,,,,,,,,,,,,,,,,,,,,
,,,,,,00050,2023-10-11_08h48.05.537,vbt_B1_day2,2022.2.4,Win32,60.04924038,,,,,,,,,,,,,,,,,,,,,,,,,,,down,0,1.8715,,0.524074074,-0.255555556,1,0,0,1.0982,0,51,51,26,1,leuk,images/br_leuk.png,images/cb_leuk.png,0,,,,,,,,,,,,,,,,,,,,,,
,,,,,,00050,2023-10-11_08h48.05.537,vbt_B1_day2,2022.2.4,Win32,60.04924038,,,,,,,,,,,,,,,,,,,,,,,,,,,down,0,6.6787,,0.524074074,-0.255555556,1,0,0,0.9525,0,52,52,95,1,vreten,images/br_vreten.png,images/cb_vreten.png,0,,,,,,,,,,,,,,,,,,,,,,
,,,,,,00050,2023-10-11_08h48.05.537,vbt_B1_day2,2022.2.4,Win32,60.04924038,,,,,,,,,,,,,,,,,,,,,,,,,,,down,0,5.7418,,0.524074074,-0.255555556,1,0,0,3.4473,0,53,53,137,1,trekker,images/br_trekker.png,images/cb_trekker.png,1,trekker,,,,,,,,,,,,,,,,,,,,,
,,,,,,00050,2023-10-11_08h48.05.537,vbt_B1_day2,2022.2.4,Win32,60.04924038,,,,,,,,,,,,,,,,,,,,,,,,,,,down,0,11.5588,,0.524074074,-0.255555556,1,0,0,0.9984,0,54,54,4,1,moes,images/br_moes.png,images/cb_moes.png,0,,,,,,,,,,,,,,,,,,,,,,
,,,,,,00050,2023-10-11_08h48.05.537,vbt_B1_day2,2022.2.4,Win32,60.04924038,,,,,,,,,,,,,,,,,,,,,,,,,,,down,0,5.0488,,0.524074074,-0.255555556,1,0,0,6.8269,0,55,55,190,1,goedkoop,images/br_goedkoop.png,images/cb_goedkoop.png,0,,,,,,,,,,,,,,,,,,,,,,
,,,,,,00050,2023-10-11_08h48.05.537,vbt_B1_day2,2022.2.4,Win32,60.04924038,,,,,,,,,,,,,,,,,,,,,,,,,,,down,0,10.7142,,0.524074074,-0.255555556,1,0,0,1.5685,0,56,56,3,1,mand,images/br_mand.png,images/cb_mand.png,0,,,,,,,,,,,,,,,,,,,,,,
,,,,,,00050,2023-10-11_08h48.05.537,vbt_B1_day2,2022.2.4,Win32,60.04924038,,,,,,,,,,,,,,,,,,,,,,,,,,,down,0,7.0276,,0.524074074,-0.255555556,1,0,0,5.9111,0,57,57,126,1,kasteel,images/br_kasteel.png,images/cb_kasteel.png,0,,,,,,,,,,,,,,,,,,,,,,
,,,,,,00050,2023-10-11_08h48.05.537,vbt_B1_day2,2022.2.4,Win32,60.04924038,,,,,,,,,,,,,,,,,,,,,,,,,,,down,0,0.2737,,0.524074074,-0.255555556,1,0,0,1.332,0,58,58,13,1,kaal,images/br_kaal.png,images/cb_kaal.png,0,,,,,,,,,,,,,,,,,,,,,,
,,,,,,00050,2023-10-11_08h48.05.537,vbt_B1_day2,2022.2.4,Win32,60.04924038,,,,,,,,,,,,,,,,,,,,,,,,,,,down,0,3.9641,,0.524074074,-0.255555556,1,0,0,0.8954,0,59,59,77,1,woede,images/br_woede.png,images/cb_woede.png,0,,,,,,,,,,,,,,,,,,,,,,
,,,,,,00050,2023-10-11_08h48.05.537,vbt_B1_day2,2022.2.4,Win32,60.04924038,,,,,,,,,,,,,,,,,,,,,,,,,,,down,0,1.9657,,0.524074074,-0.255555556,1,0,0,1.3854,0,60,60,109,1,totaal,images/br_totaal.png,images/cb_totaal.png,0,,,,,,,,,,,,,,,,,,,,,,
,,,,,,00050,2023-10-11_08h48.05.537,vbt_B1_day2,2022.2.4,Win32,60.04924038,,,,,,,,,,,,,,,,,,,,,,,,,,,down,0,3.3939,,0.524074074,-0.255555556,1,0,0,1.099,0,61,61,74,1,graaf,images/br_graaf.png,images/cb_graaf.png,0,,,,,,,,,,,,,,,,,,,,,,
,,,,,,00050,2023-10-11_08h48.05.537,vbt_B1_day2,2022.2.4,Win32,60.04924038,,,,,,,,,,,,,,,,,,,,,,,,,,,down,0,1.7537,,0.524074074,-0.255555556,1,0,0,2.181,0,62,62,65,1,parel,images/br_parel.png,images/cb_parel.png,0,,,,,,,,,,,,,,,,,,,,,,
,,,,,,00050,2023-10-11_08h48.05.537,vbt_B1_day2,2022.2.4,Win32,60.04924038,,,,,,,,,,,,,,,,,,,,,,,,,,,down,0,0.7643,,0.524074074,-0.255555556,1,0,0,1.8151,0,63,63,32,1,palm,images/br_palm.png,images/cb_palm.png,0,,,,,,,,,,,,,,,,,,,,,,
,,,,,,00050,2023-10-11_08h48.05.537,vbt_B1_day2,2022.2.4,Win32,60.04924038,,,,,,,,,,,,,,,,,,,,,,,,,,,down,0,2.2655,,0.524074074,-0.255555556,1,0,0,1.0657,0,64,64,88,1,boeien,images/br_boeien.png,images/cb_boeien.png,0,,,,,,,,,,,,,,,,,,,,,,
,,,,,,00050,2023-10-11_08h48.05.537,vbt_B1_day2,2022.2.4,Win32,60.04924038,,,,,,,,,,,,,,,,,,,,,,,,,,,down,0,9.5733,,0.524074074,-0.255555556,1,0,0,0.7491,0,65,65,152,1,afnemen,images/br_afnemen.png,images/cb_afnemen.png,0,,,,,,,,,,,,,,,,,,,,,,
,,,,,,00050,2023-10-11_08h48.05.537,vbt_B1_day2,2022.2.4,Win32,60.04924038,,,,,,,,,,,,,,,,,,,,,,,,,,,down,0,2.5573,,0.524074074,-0.255555556,1,0,0,0.8491,0,66,66,67,1,zwart,images/br_zwart.png,images/cb_zwart.png,0,,,,,,,,,,,,,,,,,,,,,,
,,,,,,00050,2023-10-11_08h48.05.537,vbt_B1_day2,2022.2.4,Win32,60.04924038,,,,,,,,,,,,,,,,,,,,,,,,,,,down,0,2.9488,,0.524074074,-0.255555556,1,0,0,0.8855,0,67,67,69,1,waken,images/br_waken.png,images/cb_waken.png,0,,,,,,,,,,,,,,,,,,,,,,
,,,,,,00050,2023-10-11_08h48.05.537,vbt_B1_day2,2022.2.4,Win32,60.04924038,,,,,,,,,,,,,,,,,,,,,,,,,,,down,0,2.0208,,0.524074074,-0.255555556,1,0,0,1.0484,0,68,68,75,1,snoep,images/br_snoep.png,images/cb_snoep.png,0,,,,,,,,,,,,,,,,,,,,,,
,,,,,,00050,2023-10-11_08h48.05.537,vbt_B1_day2,2022.2.4,Win32,60.04924038,,,,,,,,,,,,,,,,,,,,,,,,,,,down,0,3.5118,,0.524074074,-0.255555556,1,0,0,0.4328,0,69,69,97,1,loyaal,images/br_loyaal.png,images/cb_loyaal.png,1,loyaal,,,,,,,,,,,,,,,,,,,,,
,,,,,,00050,2023-10-11_08h48.05.537,vbt_B1_day2,2022.2.4,Win32,60.04924038,,,,,,,,,,,,,,,,,,,,,,,,,,,down,0,3.485,,0.524074074,-0.255555556,1,0,0,1.3485,0,70,70,100,1,geduld,images/br_geduld.png,images/cb_geduld.png,0,,,,,,,,,,,,,,,,,,,,,,
,,,,,,00050,2023-10-11_08h48.05.537,vbt_B1_day2,2022.2.4,Win32,60.04924038,,,,,,,,,,,,,,,,,,,,,,,,,,,down,0,1.7215,,0.524074074,-0.255555556,1,0,0,1.1844,0,71,71,82,1,muziek,images/br_muziek.png,images/cb_muziek.png,0,,,,,,,,,,,,,,,,,,,,,,
,,,,,,00050,2023-10-11_08h48.05.537,vbt_B1_day2,2022.2.4,Win32,60.04924038,,,,,,,,,,,,,,,,,,,,,,,,,,,down,0,2.183,,0.524074074,-0.255555556,1,0,0,1.2823,0,72,72,103,1,joggen,images/br_joggen.png,images/cb_joggen.png,0,,,,,,,,,,,,,,,,,,,,,,
,,,,,,00050,2023-10-11_08h48.05.537,vbt_B1_day2,2022.2.4,Win32,60.04924038,,,,,,,,,,,,,,,,,,,,,,,,,,,down,0,0.9175,,0.524074074,-0.255555556,1,0,0,1.4678,0,73,73,10,1,leek,images/br_leek.png,images/cb_leek.png,0,,,,,,,,,,,,,,,,,,,,,,
,,,,,,00050,2023-10-11_08h48.05.537,vbt_B1_day2,2022.2.4,Win32,60.04924038,,,,,,,,,,,,,,,,,,,,,,,,,,,down,0,1.2151,,0.524074074,-0.255555556,1,0,0,1.7141,0,74,74,27,1,dans,images/br_dans.png,images/cb_dans.png,0,,,,,,,,,,,,,,,,,,,,,,
,,,,,,00050,2023-10-11_08h48.05.537,vbt_B1_day2,2022.2.4,Win32,60.04924038,,,,,,,,,,,,,,,,,,,,,,,,,,,down,0,2.901,,0.524074074,-0.255555556,1,0,0,0.8983,0,75,75,170,1,schatten,images/br_schatten.png,images/cb_schatten.png,0,,,,,,,,,,,,,,,,,,,,,,
,,,,,,00050,2023-10-11_08h48.05.537,vbt_B1_day2,2022.2.4,Win32,60.04924038,,,,,,,,,,,,,,,,,,,,,,,,,,,down,0,1.8816,,0.524074074,-0.255555556,1,0,0,1.462,0,76,76,73,1,volop,images/br_volop.png,images/cb_volop.png,0,,,,,,,,,,,,,,,,,,,,,,
,,,,,,00050,2023-10-11_08h48.05.537,vbt_B1_day2,2022.2.4,Win32,60.04924038,,,,,,,,,,,,,,,,,,,,,,,,,,,down,0,6.4634,,0.524074074,-0.255555556,1,0,0,0.8152,0,77,77,166,1,strikken,images/br_strikken.png,images/cb_strikken.png,0,,,,,,,,,,,,,,,,,,,,,,
,,,,,,00050,2023-10-11_08h48.05.537,vbt_B1_day2,2022.2.4,Win32,60.04924038,,,,,,,,,,,,,,,,,,,,,,,,,,,down,0,6.2355,,0.524074074,-0.255555556,1,0,0,0.6855,0,78,78,167,1,eenhoorn,images/br_eenhoorn.png,images/cb_eenhoorn.png,0,,,,,,,,,,,,,,,,,,,,,,
,,,,,,00050,2023-10-11_08h48.05.537,vbt_B1_day2,2022.2.4,Win32,60.04924038,,,,,,,,,,,,,,,,,,,,,,,,,,,down,0,2.9323,,0.524074074,-0.255555556,1,0,0,1.4843,0,79,79,78,1,leren,images/br_leren.png,images/cb_leren.png,0,,,,,,,,,,,,,,,,,,,,,,
,,,,,,00050,2023-10-11_08h48.05.537,vbt_B1_day2,2022.2.4,Win32,60.04924038,,,,,,,,,,,,,,,,,,,,,,,,,,,down,0,2.8204,,0.524074074,-0.255555556,1,0,0,1.5644,0,80,80,110,1,zuster,images/br_zuster.png,images/cb_zuster.png,0,,,,,,,,,,,,,,,,,,,,,,
,,,,,,00050,2023-10-11_08h48.05.537,vbt_B1_day2,2022.2.4,Win32,60.04924038,,,,,,,,,,,,,,,,,,,,,,,,,,,down,0,4.0094,,0.524074074,-0.255555556,1,0,0,1.1158,0,81,81,104,1,zweven,images/br_zweven.png,images/cb_zweven.png,0,,,,,,,,,,,,,,,,,,,,,,
,,,,,,00050,2023-10-11_08h48.05.537,vbt_B1_day2,2022.2.4,Win32,60.04924038,,,,,,,,,,,,,,,,,,,,,,,,,,,down,0,11.7232,,0.524074074,-0.255555556,1,0,0,0.6464,0,82,82,116,1,besmet,images/br_besmet.png,images/cb_besmet.png,0,,,,,,,,,,,,,,,,,,,,,,
,,,,,,00050,2023-10-11_08h48.05.537,vbt_B1_day2,2022.2.4,Win32,60.04924038,,,,,,,,,,,,,,,,,,,,,,,,,,,down,0,1.5602,,0.524074074,-0.255555556,1,0,0,0.8659,0,83,83,12,1,kust,images/br_kust.png,images/cb_kust.png,0,,,,,,,,,,,,,,,,,,,,,,
,,,,,,00050,2023-10-11_08h48.05.537,vbt_B1_day2,2022.2.4,Win32,60.04924038,,,,,,,,,,,,,,,,,,,,,,,,,,,down,0,6.3662,,0.524074074,-0.255555556,1,0,0,0.766,0,84,84,92,1,geheim,images/br_geheim.png,images/cb_geheim.png,0,,,,,,,,,,,,,,,,,,,,,,
,,,,,,00050,2023-10-11_08h48.05.537,vbt_B1_day2,2022.2.4,Win32,60.04924038,,,,,,,,,,,,,,,,,,,,,,,,,,,down,0,4.3063,,0.524074074,-0.255555556,1,0,0,0.7992,0,85,85,188,1,strekken,images/br_strekken.png,images/cb_strekken.png,0,,,,,,,,,,,,,,,,,,,,,,
,,,,,,00050,2023-10-11_08h48.05.537,vbt_B1_day2,2022.2.4,Win32,60.04924038,,,,,,,,,,,,,,,,,,,,,,,,,,,down,0,4.1264,,0.524074074,-0.255555556,1,0,0,0.6659,0,86,86,174,1,stemming,images/br_stemming.png,images/cb_stemming.png,0,,,,,,,,,,,,,,,,,,,,,,
,,,,,,00050,2023-10-11_08h48.05.537,vbt_B1_day2,2022.2.4,Win32,60.04924038,,,,,,,,,,,,,,,,,,,,,,,,,,,down,0,2.2359,,0.524074074,-0.255555556,1,0,0,1.7818,0,87,87,46,1,jagen,images/br_jagen.png,images/cb_jagen.png,0,,,,,,,,,,,,,,,,,,,,,,
,,,,,,00050,2023-10-11_08h48.05.537,vbt_B1_day2,2022.2.4,Win32,60.04924038,,,,,,,,,,,,,,,,,,,,,,,,,,,down,0,2.1318,,0.524074074,-0.255555556,1,0,0,0.8287,0,88,88,148,1,smullen,images/br_smullen.png,images/cb_smullen.png,0,,,,,,,,,,,,,,,,,,,,,,
,,,,,,00050,2023-10-11_08h48.05.537,vbt_B1_day2,2022.2.4,Win32,60.04924038,,,,,,,,,,,,,,,,,,,,,,,,,,,down,0,4.4368,,0.524074074,-0.255555556,1,0,0,1.3019,0,89,89,133,1,seizoen,images/br_seizoen.png,images/cb_seizoen.png,0,,,,,,,,,,,,,,,,,,,,,,
,,,,,,00050,2023-10-11_08h48.05.537,vbt_B1_day2,2022.2.4,Win32,60.04924038,,,,,,,,,,,,,,,,,,,,,,,,,,,down,0,5.7507,,0.524074074,-0.255555556,1,0,0,0.8014,0,90,90,157,1,uitlaat,images/br_uitlaat.png,images/cb_uitlaat.png,0,,,,,,,,,,,,,,,,,,,,,,
,,,,,,00050,2023-10-11_08h48.05.537,vbt_B1_day2,2022.2.4,Win32,60.04924038,,,,,,,,,,,,,,,,,,,,,,,,,,,down,0,2.1419,,0.524074074,-0.255555556,1,0,0,1.1678,0,91,91,71,1,bever,images/br_bever.png,images/cb_bever.png,0,,,,,,,,,,,,,,,,,,,,,,
,,,,,,00050,2023-10-11_08h48.05.537,vbt_B1_day2,2022.2.4,Win32,60.04924038,,,,,,,,,,,,,,,,,,,,,,,,,,,down,0,1.3653,,0.524074074,-0.255555556,1,0,0,0.8293,0,92,92,2,1,jaar,images/br_jaar.png,images/cb_jaar.png,0,,,,,,,,,,,,,,,,,,,,,,
,,,,,,00050,2023-10-11_08h48.05.537,vbt_B1_day2,2022.2.4,Win32,60.04924038,,,,,,,,,,,,,,,,,,,,,,,,,,,down,0,1.0657,,0.524074074,-0.255555556,1,0,0,1.1157,0,93,93,34,1,vorm,images/br_vorm.png,images/cb_vorm.png,0,,,,,,,,,,,,,,,,,,,,,,
,,,,,,00050,2023-10-11_08h48.05.537,vbt_B1_day2,2022.2.4,Win32,60.04924038,,,,,,,,,,,,,,,,,,,,,,,,,,,down,0,4.2647,,0.524074074,-0.255555556,1,0,0,3.0967,0,94,94,63,1,flirt,images/br_flirt.png,images/cb_flirt.png,0,,,,,,,,,,,,,,,,,,,,,,
,,,,,,00050,2023-10-11_08h48.05.537,vbt_B1_day2,2022.2.4,Win32,60.04924038,,,,,,,,,,,,,,,,,,,,,,,,,,,down,0,4.9619,,0.524074074,-0.255555556,1,0,0,0.8444,0,95,95,161,1,attentie,images/br_attentie.png,images/cb_attentie.png,0,,,,,,,,,,,,,,,,,,,,,,
,,,,,,00050,2023-10-11_08h48.05.537,vbt_B1_day2,2022.2.4,Win32,60.04924038,,,,,,,,,,,,,,,,,,,,,,,,,,,down,0,0.759,,0.524074074,-0.255555556,1,0,0,1.0489,0,96,96,48,1,steel,images/br_steel.png,images/cb_steel.png,0,,,,,,,,,,,,,,,,,,,,,,
,,,,,,00050,2023-10-11_08h48.05.537,vbt_B1_day2,2022.2.4,Win32,60.04924038,,,,,,,,,,,,,,,,,,,,,,,,,,,down,0,1.2934,,0.524074074,-0.255555556,1,0,0,0.466,0,97,97,57,1,steek,images/br_steek.png,images/cb_steek.png,1,steek,,,,,,,,,,,,,,,,,,,,,
,,,,,,00050,2023-10-11_08h48.05.537,vbt_B1_day2,2022.2.4,Win32,60.04924038,,,,,,,,,,,,,,,,,,,,,,,,,,,down,0,2.297,,0.524074074,-0.255555556,1,0,0,0.6493,0,98,98,68,1,schat,images/br_schat.png,images/cb_schat.png,0,,,,,,,,,,,,,,,,,,,,,,
,,,,,,00050,2023-10-11_08h48.05.537,vbt_B1_day2,2022.2.4,Win32,60.04924038,,,,,,,,,,,,,,,,,,,,,,,,,,,down,0,1.3809,,0.524074074,-0.255555556,1,0,0,1.0322,0,99,99,1,1,zaal,images/br_zaal.png,images/cb_zaal.png,0,,,,,,,,,,,,,,,,,,,,,,
,,,,,,00050,2023-10-11_08h48.05.537,vbt_B1_day2,2022.2.4,Win32,60.04924038,,,,,,,,,,,,,,,,,,,,,,,,,,,down,0,0.7999,,0.524074074,-0.255555556,1,0,0,1.4954,0,100,100,64,1,wegen,images/br_wegen.png,images/cb_wegen.png,0,,,,,,,,,,,,,,,,,,,,,,
,,,,,,00050,2023-10-11_08h48.05.537,vbt_B1_day2,2022.2.4,Win32,60.04924038,,,,,,,,,,,,,,,,,,,,,,,,,,,down,0,0.1709,,0.524074074,-0.255555556,1,0,0,1.448,0,101,101,84,1,lokken,images/br_lokken.png,images/cb_lokken.png,0,,,,,,,,,,,,,,,,,,,,,,
,,,,,,00050,2023-10-11_08h48.05.537,vbt_B1_day2,2022.2.4,Win32,60.04924038,,,,,,,,,,,,,,,,,,,,,,,,,,,down,0,8.6313,,0.524074074,-0.255555556,1,0,0,1.8315,0,102,102,199,1,beseffen,images/br_beseffen.png,images/cb_beseffen.png,0,,,,,,,,,,,,,,,,,,,,,,
,,,,,,00050,2023-10-11_08h48.05.537,vbt_B1_day2,2022.2.4,Win32,60.04924038,,,,,,,,,,,,,,,,,,,,,,,,,,,down,0,5.0044,,0.524074074,-0.255555556,1,0,0,0.8652,0,103,103,180,1,openbaar,images/br_openbaar.png,images/cb_openbaar.png,0,,,,,,,,,,,,,,,,,,,,,,
,,,,,,00050,2023-10-11_08h48.05.537,vbt_B1_day2,2022.2.4,Win32,60.04924038,,,,,,,,,,,,,,,,,,,,,,,,,,,down,0,3.2266,,0.524074074,-0.255555556,1,0,0,1.049,0,104,104,79,1,nodig,images/br_nodig.png,images/cb_nodig.png,0,,,,,,,,,,,,,,,,,,,,,,
,,,,,,00050,2023-10-11_08h48.05.537,vbt_B1_day2,2022.2.4,Win32,60.04924038,,,,,,,,,,,,,,,,,,,,,,,,,,,down,0,2.1203,,0.524074074,-0.255555556,1,0,0,1.1822,0,105,105,184,1,aandelen,images/br_aandelen.png,images/cb_aandelen.png,0,,,,,,,,,,,,,,,,,,,,,,
,,,,,,00050,2023-10-11_08h48.05.537,vbt_B1_day2,2022.2.4,Win32,60.04924038,,,,,,,,,,,,,,,,,,,,,,,,,,,down,0,3.1662,,0.524074074,-0.255555556,1,0,0,0.8321,0,106,106,150,1,gegeven,images/br_gegeven.png,images/cb_gegeven.png,0,,,,,,,,,,,,,,,,,,,,,,
,,,,,,00050,2023-10-11_08h48.05.537,vbt_B1_day2,2022.2.4,Win32,60.04924038,,,,,,,,,,,,,,,,,,,,,,,,,,,down,0,1.0989,,0.524074074,-0.255555556,1,0,0,1.0293,0,107,107,0,1,slak,images/br_slak.png,images/cb_slak.png,0,,,,,,,,,,,,,,,,,,,,,,
,,,,,,00050,2023-10-11_08h48.05.537,vbt_B1_day2,2022.2.4,Win32,60.04924038,,,,,,,,,,,,,,,,,,,,,,,,,,,down,0,0.8301,,0.524074074,-0.255555556,1,0,0,0.4499,0,108,108,19,1,geit,images/br_geit.png,images/cb_geit.png,1,geit,,,,,,,,,,,,,,,,,,,,,
,,,,,,00050,2023-10-11_08h48.05.537,vbt_B1_day2,2022.2.4,Win32,60.04924038,,,,,,,,,,,,,,,,,,,,,,,,,,,down,0,1.1507,,0.524074074,-0.255555556,1,0,0,1.2356,0,109,109,36,1,vuur,images/br_vuur.png,images/cb_vuur.png,0,,,,,,,,,,,,,,,,,,,,,,
,,,,,,00050,2023-10-11_08h48.05.537,vbt_B1_day2,2022.2.4,Win32,60.04924038,,,,,,,,,,,,,,,,,,,,,,,,,,,down,0,3.5646,,0.524074074,-0.255555556,1,0,0,0.9787,0,110,110,107,1,maling,images/br_maling.png,images/cb_maling.png,0,,,,,,,,,,,,,,,,,,,,,,
,,,,,,00050,2023-10-11_08h48.05.537,vbt_B1_day2,2022.2.4,Win32,60.04924038,,,,,,,,,,,,,,,,,,,,,,,,,,,down,0,3.7357,,0.526851852,-0.255555556,1,0,0,0.7859,0,111,111,117,1,kennis,images/br_kennis.png,images/cb_kennis.png,0,,,,,,,,,,,,,,,,,,,,,,
,,,,,,00050,2023-10-11_08h48.05.537,vbt_B1_day2,2022.2.4,Win32,60.04924038,,,,,,,,,,,,,,,,,,,,,,,,,,,down,0,1.9049,,0.526851852,-0.255555556,1,0,0,0.8487,0,112,112,186,1,voorraad,images/br_voorraad.png,images/cb_voorraad.png,0,,,,,,,,,,,,,,,,,,,,,,
,,,,,,00050,2023-10-11_08h48.05.537,vbt_B1_day2,2022.2.4,Win32,60.04924038,,,,,,,,,,,,,,,,,,,,,,,,,,,down,0,11.0019,,0.526851852,-0.255555556,1,0,0,2.6812,0,113,113,160,1,daarheen,images/br_daarheen.png,images/cb_daarheen.png,0,,,,,,,,,,,,,,,,,,,,,,
,,,,,,00050,2023-10-11_08h48.05.537,vbt_B1_day2,2022.2.4,Win32,60.04924038,,,,,,,,,,,,,,,,,,,,,,,,,,,down,0,0.4667,,0.526851852,-0.255555556,1,0,0,0.6663,0,114,114,17,1,taal,images/br_taal.png,images/cb_taal.png,1,taal,,,,,,,,,,,,,,,,,,,,,
,,,,,,00050,2023-10-11_08h48.05.537,vbt_B1_day2,2022.2.4,Win32,60.04924038,,,,,,,,,,,,,,,,,,,,,,,,,,,down,0,3.1313,,0.526851852,-0.255555556,1,0,0,1.7679,0,115,115,122,1,waarvan,images/br_waarvan.png,images/cb_waarvan.png,0,,,,,,,,,,,,,,,,,,,,,,
,,,,,,00050,2023-10-11_08h48.05.537,vbt_B1_day2,2022.2.4,Win32,60.04924038,,,,,,,,,,,,,,,,,,,,,,,,,,,down,0,0.9696,,0.526851852,-0.255555556,1,0,0,1.4154,0,116,116,66,1,lever,images/br_lever.png,images/cb_lever.png,0,,,,,,,,,,,,,,,,,,,,,,
,,,,,,00050,2023-10-11_08h48.05.537,vbt_B1_day2,2022.2.4,Win32,60.04924038,,,,,,,,,,,,,,,,,,,,,,,,,,,down,0,11.5903,,0.526851852,-0.255555556,1,0,0,1.9114,0,117,117,182,1,bijkomen,images/br_bijkomen.png,images/cb_bijkomen.png,0,,,,,,,,,,,,,,,,,,,,,,
,,,,,,00050,2023-10-11_08h48.05.537,vbt_B1_day2,2022.2.4,Win32,60.04924038,,,,,,,,,,,,,,,,,,,,,,,,,,,down,0,6.5466,,0.526851852,-0.255555556,1,0,0,1.4985,0,118,118,187,1,opkijken,images/br_opkijken.png,images/cb_opkijken.png,0,,,,,,,,,,,,,,,,,,,,,,
,,,,,,00050,2023-10-11_08h48.05.537,vbt_B1_day2,2022.2.4,Win32,60.04924038,,,,,,,,,,,,,,,,,,,,,,,,,,,down,0,7.8934,,0.526851852,-0.255555556,1,0,0,0.3999,0,119,119,179,1,woestijn,images/br_woestijn.png,images/cb_woestijn.png,1,woestijn,,,,,,,,,,,,,,,,,,,,,
,,,,,,00050,2023-10-11_08h48.05.537,vbt_B1_day2,2022.2.4,Win32,60.04924038,,,,,,,,,,,,,,,,,,,,,,,,,,,down,0,1.3625,,0.526851852,-0.255555556,1,0,0,0.9522,0,120,120,114,1,vullen,images/br_vullen.png,images/cb_vullen.png,0,,,,,,,,,,,,,,,,,,,,,,
,,,,,,00050,2023-10-11_08h48.05.537,vbt_B1_day2,2022.2.4,Win32,60.04924038,,,,,,,,,,,,,,,,,,,,,,,,,,,down,0,4.6971,,0.526851852,-0.255555556,1,0,0,1.1842,0,121,121,147,1,komisch,images/br_komisch.png,images/cb_komisch.png,0,,,,,,,,,,,,,,,,,,,,,,
,,,,,,00050,2023-10-11_08h48.05.537,vbt_B1_day2,2022.2.4,Win32,60.04924038,,,,,,,,,,,,,,,,,,,,,,,,,,,down,0,6.7939,,0.526851852,-0.255555556,1,0,0,3.2259,0,122,122,9,1,hier,images/br_hier.png,images/cb_hier.png,0,,,,,,,,,,,,,,,,,,,,,,
,,,,,,00050,2023-10-11_08h48.05.537,vbt_B1_day2,2022.2.4,Win32,60.04924038,,,,,,,,,,,,,,,,,,,,,,,,,,,down,0,2.3481,,0.526851852,-0.255555556,1,0,0,0.8153,0,123,123,20,1,site,images/br_site.png,images/cb_site.png,0,,,,,,,,,,,,,,,,,,,,,,
,,,,,,00050,2023-10-11_08h48.05.537,vbt_B1_day2,2022.2.4,Win32,60.04924038,,,,,,,,,,,,,,,,,,,,,,,,,,,down,0,2.1643,,0.526851852,-0.255555556,1,0,0,0.9801,0,124,124,132,1,grappen,images/br_grappen.png,images/cb_grappen.png,0,,,,,,,,,,,,,,,,,,,,,,
,,,,,,00050,2023-10-11_08h48.05.537,vbt_B1_day2,2022.2.4,Win32,60.04924038,,,,,,,,,,,,,,,,,,,,,,,,,,,down,0,7.4402,,0.526851852,-0.255555556,1,0,0,1.2159,0,125,125,80,1,kanjer,images/br_kanjer.png,images/cb_kanjer.png,0,,,,,,,,,,,,,,,,,,,,,,
,,,,,,00050,2023-10-11_08h48.05.537,vbt_B1_day2,2022.2.4,Win32,60.04924038,,,,,,,,,,,,,,,,,,,,,,,,,,,down,0,5.4292,,0.526851852,-0.255555556,1,0,0,0.3962,0,126,126,98,1,kreeft,images/br_kreeft.png,images/cb_kreeft.png,1,kreeft,,,,,,,,,,,,,,,,,,,,,
,,,,,,00050,2023-10-11_08h48.05.537,vbt_B1_day2,2022.2.4,Win32,60.04924038,,,,,,,,,,,,,,,,,,,,,,,,,,,down,0,3.6472,,0.526851852,-0.255555556,1,0,0,0.9457,0,127,127,158,1,innemen,images/br_innemen.png,images/cb_innemen.png,0,,,,,,,,,,,,,,,,,,,,,,
,,,,,,00050,2023-10-11_08h48.05.537,vbt_B1_day2,2022.2.4,Win32,60.04924038,,,,,,,,,,,,,,,,,,,,,,,,,,,down,0,2.5725,,0.526851852,-0.255555556,1,0,0,1.0851,0,128,128,83,1,mening,images/br_mening.png,images/cb_mening.png,0,,,,,,,,,,,,,,,,,,,,,,
,,,,,,00050,2023-10-11_08h48.05.537,vbt_B1_day2,2022.2.4,Win32,60.04924038,,,,,,,,,,,,,,,,,,,,,,,,,,,down,0,2.8762,,0.526851852,-0.255555556,1,0,0,1.0158,0,129,129,61,1,groen,images/br_groen.png,images/cb_groen.png,0,,,,,,,,,,,,,,,,,,,,,,
,,,,,,00050,2023-10-11_08h48.05.537,vbt_B1_day2,2022.2.4,Win32,60.04924038,,,,,,,,,,,,,,,,,,,,,,,,,,,down,0,6.8048,,0.526851852,-0.255555556,1,0,0,0.9656,0,130,130,191,1,opheffen,images/br_opheffen.png,images/cb_opheffen.png,0,,,,,,,,,,,,,,,,,,,,,,
,,,,,,00050,2023-10-11_08h48.05.537,vbt_B1_day2,2022.2.4,Win32,60.04924038,,,,,,,,,,,,,,,,,,,,,,,,,,,down,0,2.1838,,0.526851852,-0.255555556,1,0,0,0.4527,0,131,131,16,1,ziek,images/br_ziek.png,images/cb_ziek.png,1,ziek,,,,,,,,,,,,,,,,,,,,,
,,,,,,00050,2023-10-11_08h48.05.537,vbt_B1_day2,2022.2.4,Win32,60.04924038,,,,,,,,,,,,,,,,,,,,,,,,,,,down,0,4.5645,,0.526851852,-0.255555556,1,0,0,1.7982,0,132,132,196,1,nakijken,images/br_nakijken.png,images/cb_nakijken.png,0,,,,,,,,,,,,,,,,,,,,,,
,,,,,,00050,2023-10-11_08h48.05.537,vbt_B1_day2,2022.2.4,Win32,60.04924038,,,,,,,,,,,,,,,,,,,,,,,,,,,down,0,4.1966,,0.526851852,-0.255555556,1,0,0,2.3337,0,133,133,85,1,heilig,images/br_heilig.png,images/cb_heilig.png,0,,,,,,,,,,,,,,,,,,,,,,
,,,,,,00050,2023-10-11_08h48.05.537,vbt_B1_day2,2022.2.4,Win32,60.04924038,,,,,,,,,,,,,,,,,,,,,,,,,,,down,0,5.4619,,0.526851852,-0.255555556,1,0,0,1.6791,0,134,134,76,1,afval,images/br_afval.png,images/cb_afval.png,0,,,,,,,,,,,,,,,,,,,,,,
,,,,,,00050,2023-10-11_08h48.05.537,vbt_B1_day2,2022.2.4,Win32,60.04924038,,,,,,,,,,,,,,,,,,,,,,,,,,,down,0,2.9001,,0.526851852,-0.255555556,1,0,0,1.2856,0,135,135,151,1,aanzoek,images/br_aanzoek.png,images/cb_aanzoek.png,0,,,,,,,,,,,,,,,,,,,,,,
,,,,,,00050,2023-10-11_08h48.05.537,vbt_B1_day2,2022.2.4,Win32,60.04924038,,,,,,,,,,,,,,,,,,,,,,,,,,,down,0,4.0966,,0.526851852,-0.255555556,1,0,0,3.6969,0,136,136,30,1,uien,images/br_uien.png,images/cb_uien.png,0,,,,,,,,,,,,,,,,,,,,,,
,,,,,,00050,2023-10-11_08h48.05.537,vbt_B1_day2,2022.2.4,Win32,60.04924038,,,,,,,,,,,,,,,,,,,,,,,,,,,down,0,1.6676,,0.526851852,-0.255555556,1,0,0,0.7362,0,137,137,28,1,stal,images/br_stal.png,images/cb_stal.png,0,,,,,,,,,,,,,,,,,,,,,,
,,,,,,00050,2023-10-11_08h48.05.537,vbt_B1_day2,2022.2.4,Win32,60.04924038,,,,,,,,,,,,,,,,,,,,,,,,,,,down,0,1.5145,,0.526851852,-0.255555556,1,0,0,1.3818,0,138,138,102,1,legaal,images/br_legaal.png,images/cb_legaal.png,0,,,,,,,,,,,,,,,,,,,,,,
,,,,,,00050,2023-10-11_08h48.05.537,vbt_B1_day2,2022.2.4,Win32,60.04924038,,,,,,,,,,,,,,,,,,,,,,,,,,,down,0,3.2557,,0.526851852,-0.255555556,1,0,0,0.766,0,139,139,183,1,getuigen,images/br_getuigen.png,images/cb_getuigen.png,0,,,,,,,,,,,,,,,,,,,,,,
,,,,,,00050,2023-10-11_08h48.05.537,vbt_B1_day2,2022.2.4,Win32,60.04924038,,,,,,,,,,,,,,,,,,,,,,,,,,,down,0,3.5877,,0.526851852,-0.255555556,1,0,0,1.066,0,140,140,51,1,samen,images/br_samen.png,images/cb_samen.png,0,,,,,,,,,,,,,,,,,,,,,,
,,,,,,00050,2023-10-11_08h48.05.537,vbt_B1_day2,2022.2.4,Win32,60.04924038,,,,,,,,,,,,,,,,,,,,,,,,,,,down,0,0.8673,,0.526851852,-0.255555556,1,0,0,1.6946,0,141,141,49,1,laken,images/br_laken.png,images/cb_laken.png,0,,,,,,,,,,,,,,,,,,,,,,
,,,,,,00050,2023-10-11_08h48.05.537,vbt_B1_day2,2022.2.4,Win32,60.04924038,,,,,,,,,,,,,,,,,,,,,,,,,,,down,0,2.6983,,0.526851852,-0.255555556,1,0,0,2.6436,0,142,142,21,1,mist,images/br_mist.png,images/cb_mist.png,0,,,,,,,,,,,,,,,,,,,,,,
,,,,,,00050,2023-10-11_08h48.05.537,vbt_B1_day2,2022.2.4,Win32,60.04924038,,,,,,,,,,,,,,,,,,,,,,,,,,,down,0,5.0461,,0.526851852,-0.255555556,1,0,0,0.9991,0,143,143,105,1,wijlen,images/br_wijlen.png,images/cb_wijlen.png,0,,,,,,,,,,,,,,,,,,,,,,
,,,,,,00050,2023-10-11_08h48.05.537,vbt_B1_day2,2022.2.4,Win32,60.04924038,,,,,,,,,,,,,,,,,,,,,,,,,,,down,0,0.0275,,0.526851852,-0.255555556,1,0,0,1.5156,0,144,144,39,1,laag,images/br_laag.png,images/cb_laag.png,0,,,,,,,,,,,,,,,,,,,,,,
,,,,,,00050,2023-10-11_08h48.05.537,vbt_B1_day2,2022.2.4,Win32,60.04924038,,,,,,,,,,,,,,,,,,,,,,,,,,,down,0,3.4129,,0.526851852,-0.255555556,1,0,0,1.0853,0,145,145,6,1,diep,images/br_diep.png,images/cb_diep.png,0,,,,,,,,,,,,,,,,,,,,,,
,,,,,,00050,2023-10-11_08h48.05.537,vbt_B1_day2,2022.2.4,Win32,60.04924038,,,,,,,,,,,,,,,,,,,,,,,,,,,down,0,2.3983,,0.526851852,-0.255555556,1,0,0,0.9628,0,146,146,15,1,soda,images/br_soda.png,images/cb_soda.png,0,,,,,,,,,,,,,,,,,,,,,,
,,,,,,00050,2023-10-11_08h48.05.537,vbt_B1_day2,2022.2.4,Win32,60.04924038,,,,,,,,,,,,,,,,,,,,,,,,,,,down,0,9.126,,0.526851852,-0.255555556,1,0,0,0.746,0,147,147,193,1,weeshuis,images/br_weeshuis.png,images/cb_weeshuis.png,0,,,,,,,,,,,,,,,,,,,,,,
,,,,,,00050,2023-10-11_08h48.05.537,vbt_B1_day2,2022.2.4,Win32,60.04924038,,,,,,,,,,,,,,,,,,,,,,,,,,,down,0,1.9326,,0.526851852,-0.255555556,1,0,0,0.7984,0,148,148,54,1,gebit,images/br_gebit.png,images/cb_gebit.png,0,,,,,,,,,,,,,,,,,,,,,,
,,,,,,00050,2023-10-11_08h48.05.537,vbt_B1_day2,2022.2.4,Win32,60.04924038,,,,,,,,,,,,,,,,,,,,,,,,,,,down,0,5.4788,,0.526851852,-0.255555556,1,0,0,1.4688,0,149,149,195,1,middelen,images/br_middelen.png,images/cb_middelen.png,0,,,,,,,,,,,,,,,,,,,,,,
,,,,,,00050,2023-10-11_08h48.05.537,vbt_B1_day2,2022.2.4,Win32,60.04924038,,,,,,,,,,,,,,,,,,,,,,,,,,,down,0,2.6475,,0.526851852,-0.255555556,1,0,0,0.4632,0,150,150,58,1,tekst,images/br_tekst.png,images/cb_tekst.png,1,tekst,,,,,,,,,,,,,,,,,,,,,
,,,,,,00050,2023-10-11_08h48.05.537,vbt_B1_day2,2022.2.4,Win32,60.04924038,,,,,,,,,,,,,,,,,,,,,,,,,,,down,0,1.1163,,0.526851852,-0.255555556,1,0,0,0.9959,0,151,151,53,1,baron,images/br_baron.png,images/cb_baron.png,0,,,,,,,,,,,,,,,,,,,,,,
,,,,,,00050,2023-10-11_08h48.05.537,vbt_B1_day2,2022.2.4,Win32,60.04924038,,,,,,,,,,,,,,,,,,,,,,,,,,,down,0,10.923,,0.526851852,-0.255555556,1,0,0,0.4131,0,152,152,176,1,techniek,images/br_techniek.png,images/cb_techniek.png,1,techniek,,,,,,,,,,,,,,,,,,,,,
,,,,,,00050,2023-10-11_08h48.05.537,vbt_B1_day2,2022.2.4,Win32,60.04924038,,,,,,,,,,,,,,,,,,,,,,,,,,,down,0,3.0369,,0.526851852,-0.255555556,1,0,0,0.4199,0,153,153,139,1,stiekem,images/br_stiekem.png,images/cb_stiekem.png,1,stiekem,,,,,,,,,,,,,,,,,,,,,
,,,,,,00050,2023-10-11_08h48.05.537,vbt_B1_day2,2022.2.4,Win32,60.04924038,,,,,,,,,,,,,,,,,,,,,,,,,,,down,0,9.6864,,0.526851852,-0.255555556,1,0,0,0.6028,0,154,154,123,1,hiervan,images/br_hiervan.png,images/cb_hiervan.png,0,,,,,,,,,,,,,,,,,,,,,,
,,,,,,00050,2023-10-11_08h48.05.537,vbt_B1_day2,2022.2.4,Win32,60.04924038,,,,,,,,,,,,,,,,,,,,,,,,,,,down,0,5.6085,,0.526851852,-0.255555556,1,0,0,0.783,0,155,155,164,1,anarchie,images/br_anarchie.png,images/cb_anarchie.png,0,,,,,,,,,,,,,,,,,,,,,,
,,,,,,00050,2023-10-11_08h48.05.537,vbt_B1_day2,2022.2.4,Win32,60.04924038,,,,,,,,,,,,,,,,,,,,,,,,,,,down,0,0.5216,,0.526851852,-0.255555556,1,0,0,5.411,0,156,156,7,1,geld,images/br_geld.png,images/cb_geld.png,0,,,,,,,,,,,,,,,,,,,,,,
,,,,,,00050,2023-10-11_08h48.05.537,vbt_B1_day2,2022.2.4,Win32,60.04924038,,,,,,,,,,,,,,,,,,,,,,,,,,,down,0,0.7601,,0.526851852,-0.255555556,1,0,0,0.8681,0,157,157,41,1,maken,images/br_maken.png,images/cb_maken.png,0,,,,,,,,,,,,,,,,,,,,,,
,,,,,,00050,2023-10-11_08h48.05.537,vbt_B1_day2,2022.2.4,Win32,60.04924038,,,,,,,,,,,,,,,,,,,,,,,,,,,down,0,4.3375,,0.526851852,-0.255555556,1,0,0,0.869,0,158,158,198,1,bedoelen,images/br_bedoelen.png,images/cb_bedoelen.png,0,,,,,,,,,,,,,,,,,,,,,,
,,,,,,00050,2023-10-11_08h48.05.537,vbt_B1_day2,2022.2.4,Win32,60.04924038,,,,,,,,,,,,,,,,,,,,,,,,,,,down,0,2.1269,,0.526851852,-0.255555556,1,0,0,1.2158,0,159,159,93,1,waarop,images/br_waarop.png,images/cb_waarop.png,0,,,,,,,,,,,,,,,,,,,,,,
,,,,,,00050,2023-10-11_08h48.05.537,vbt_B1_day2,2022.2.4,Win32,60.04924038,,,,,,,,,,,,,,,,,,,,,,,,,,,down,0,6.2776,,0.526851852,-0.255555556,1,0,0,0.9319,0,160,160,108,1,excuus,images/br_excuus.png,images/cb_excuus.png,0,,,,,,,,,,,,,,,,,,,,,,
,,,,,,00050,2023-10-11_08h48.05.537,vbt_B1_day2,2022.2.4,Win32,60.04924038,,,,,,,,,,,,,,,,,,,,,,,,,,,down,0,3.3044,,0.526851852,-0.255555556,1,0,0,1.0326,0,161,161,129,1,verhaal,images/br_verhaal.png,images/cb_verhaal.png,0,,,,,,,,,,,,,,,,,,,,,,
,,,,,,00050,2023-10-11_08h48.05.537,vbt_B1_day2,2022.2.4,Win32,60.04924038,,,,,,,,,,,,,,,,,,,,,,,,,,,down,0,7.5194,,0.526851852,-0.255555556,1,0,0,1.432,0,162,162,159,1,sufferd,images/br_sufferd.png,images/cb_sufferd.png,0,,,,,,,,,,,,,,,,,,,,,,
,,,,,,00050,2023-10-11_08h48.05.537,vbt_B1_day2,2022.2.4,Win32,60.04924038,,,,,,,,,,,,,,,,,,,,,,,,,,,down,0,5.5703,,0.526851852,-0.255555556,1,0,0,1.1654,0,163,163,55,1,praat,images/br_praat.png,images/cb_praat.png,0,,,,,,,,,,,,,,,,,,,,,,
,,,,,,00050,2023-10-11_08h48.05.537,vbt_B1_day2,2022.2.4,Win32,60.04924038,,,,,,,,,,,,,,,,,,,,,,,,,,,down,0,4.1306,,0.526851852,-0.255555556,1,0,0,0.6493,0,164,164,173,1,apparaat,images/br_apparaat.png,images/cb_apparaat.png,0,,,,,,,,,,,,,,,,,,,,,,
,,,,,,00050,2023-10-11_08h48.05.537,vbt_B1_day2,2022.2.4,Win32,60.04924038,,,,,,,,,,,,,,,,,,,,,,,,,,,down,0,6.0196,,0.526851852,-0.255555556,1,0,0,0.7317,0,165,165,144,1,eetlust,images/br_eetlust.png,images/cb_eetlust.png,0,,,,,,,,,,,,,,,,,,,,,,
,,,,,,00050,2023-10-11_08h48.05.537,vbt_B1_day2,2022.2.4,Win32,60.04924038,,,,,,,,,,,,,,,,,,,,,,,,,,,down,0,1.8579,,0.526851852,-0.255555556,1,0,0,1.5146,0,166,166,11,1,mode,images/br_mode.png,images/cb_mode.png,0,,,,,,,,,,,,,,,,,,,,,,
,,,,,,00050,2023-10-11_08h48.05.537,vbt_B1_day2,2022.2.4,Win32,60.04924038,,,,,,,,,,,,,,,,,,,,,,,,,,,down,0,3.2817,,0.526851852,-0.255555556,1,0,0,0.6319,0,167,167,99,1,koffie,images/br_koffie.png,images/cb_koffie.png,1,koffie,,,,,,,,,,,,,,,,,,,,,
,,,,,,00050,2023-10-11_08h48.05.537,vbt_B1_day2,2022.2.4,Win32,60.04924038,,,,,,,,,,,,,,,,,,,,,,,,,,,down,0,5.0266,,0.526851852,-0.255555556,1,0,0,1.0487,0,168,168,155,1,gerucht,images/br_gerucht.png,images/cb_gerucht.png,0,,,,,,,,,,,,,,,,,,,,,,
,,,,,,00050,2023-10-11_08h48.05.537,vbt_B1_day2,2022.2.4,Win32,60.04924038,,,,,,,,,,,,,,,,,,,,,,,,,,,down,0,4.4805,,0.526851852,-0.255555556,1,0,0,0.5319,0,169,169,138,1,akkoord,images/br_akkoord.png,images/cb_akkoord.png,1,akkoord,,,,,,,,,,,,,,,,,,,,,
,,,,,,00050,2023-10-11_08h48.05.537,vbt_B1_day2,2022.2.4,Win32,60.04924038,,,,,,,,,,,,,,,,,,,,,,,,,,,down,0,5.6904,,0.526851852,-0.255555556,1,0,0,0.8688,0,170,170,143,1,hechten,images/br_hechten.png,images/cb_hechten.png,0,,,,,,,,,,,,,,,,,,,,,,
,,,,,,00050,2023-10-11_08h48.05.537,vbt_B1_day2,2022.2.4,Win32,60.04924038,,,,,,,,,,,,,,,,,,,,,,,,,,,down,0,15.1198,,0.528703704,-0.253703704,1,0,0,0.4002,0,171,171,178,1,huisdier,images/br_huisdier.png,images/cb_huisdier.png,1,huisdier,,,,,,,,,,,,,,,,,,,,,
,,,,,,00050,2023-10-11_08h48.05.537,vbt_B1_day2,2022.2.4,Win32,60.04924038,,,,,,,,,,,,,,,,,,,,,,,,,,,down,0,1.6408,,0.528703704,-0.253703704,1,0,0,1.0159,0,172,172,38,1,baai,images/br_baai.png,images/cb_baai.png,0,,,,,,,,,,,,,,,,,,,,,,
,,,,,,00050,2023-10-11_08h48.05.537,vbt_B1_day2,2022.2.4,Win32,60.04924038,,,,,,,,,,,,,,,,,,,,,,,,,,,down,0,4.113,,0.528703704,-0.253703704,1,0,0,0.8454,0,173,173,118,1,vinger,images/br_vinger.png,images/cb_vinger.png,0,,,,,,,,,,,,,,,,,,,,,,
,,,,,,00050,2023-10-11_08h48.05.537,vbt_B1_day2,2022.2.4,Win32,60.04924038,,,,,,,,,,,,,,,,,,,,,,,,,,,down,0,3.7281,,0.528703704,-0.253703704,1,0,0,0.5133,0,174,174,59,1,kring,images/br_kring.png,images/cb_kring.png,1,kring,,,,,,,,,,,,,,,,,,,,,
,,,,,,00050,2023-10-11_08h48.05.537,vbt_B1_day2,2022.2.4,Win32,60.04924038,,,,,,,,,,,,,,,,,,,,,,,,,,,down,0,3.8148,,0.528703704,-0.253703704,1,0,0,2.4638,0,175,175,135,1,gedicht,images/br_gedicht.png,images/cb_gedicht.png,0,,,,,,,,,,,,,,,,,,,,,,
,,,,,,00050,2023-10-11_08h48.05.537,vbt_B1_day2,2022.2.4,Win32,60.04924038,,,,,,,,,,,,,,,,,,,,,,,,,,,down,0,3.4554,,0.528703704,-0.253703704,1,0,0,0.9324,0,176,176,162,1,uitdelen,images/br_uitdelen.png,images/cb_uitdelen.png,0,,,,,,,,,,,,,,,,,,,,,,
,,,,,,00050,2023-10-11_08h48.05.537,vbt_B1_day2,2022.2.4,Win32,60.04924038,,,,,,,,,,,,,,,,,,,,,,,,,,,down,0,8.1768,,0.528703704,-0.253703704,1,0,0,0.995,0,177,177,142,1,snuiven,images/br_snuiven.png,images/cb_snuiven.png,0,,,,,,,,,,,,,,,,,,,,,,
,,,,,,00050,2023-10-11_08h48.05.537,vbt_B1_day2,2022.2.4,Win32,60.04924038,,,,,,,,,,,,,,,,,,,,,,,,,,,down,0,1.0604,,0.528703704,-0.253703704,1,0,0,0.8662,0,178,178,35,1,lust,images/br_lust.png,images/cb_lust.png,0,,,,,,,,,,,,,,,,,,,,,,
,,,,,,00050,2023-10-11_08h48.05.537,vbt_B1_day2,2022.2.4,Win32,60.04924038,,,,,,,,,,,,,,,,,,,,,,,,,,,down,0,2.9107,,0.528703704,-0.253703704,1,0,0,1.1322,0,179,179,171,1,aarzelen,images/br_aarzelen.png,images/cb_aarzelen.png,0,,,,,,,,,,,,,,,,,,,,,,
,,,,,,00050,2023-10-11_08h48.05.537,vbt_B1_day2,2022.2.4,Win32,60.04924038,,,,,,,,,,,,,,,,,,,,,,,,,,,down,0,1.8296,,0.528703704,-0.253703704,1,0,0,0.952,0,180,180,45,1,piste,images/br_piste.png,images/cb_piste.png,0,,,,,,,,,,,,,,,,,,,,,,
,,,,,,00050,2023-10-11_08h48.05.537,vbt_B1_day2,2022.2.4,Win32,60.04924038,,,,,,,,,,,,,,,,,,,,,,,,,,,down,0,3.164,,0.528703704,-0.253703704,1,0,0,1.0327,0,181,181,175,1,heengaan,images/br_heengaan.png,images/cb_heengaan.png,0,,,,,,,,,,,,,,,,,,,,,,
,,,,,,00050,2023-10-11_08h48.05.537,vbt_B1_day2,2022.2.4,Win32,60.04924038,,,,,,,,,,,,,,,,,,,,,,,,,,,down,0,3.5517,,0.528703704,-0.253703704,1,0,0,0.882,0,182,182,181,1,toegeven,images/br_toegeven.png,images/cb_toegeven.png,0,,,,,,,,,,,,,,,,,,,,,,
,,,,,,00050,2023-10-11_08h48.05.537,vbt_B1_day2,2022.2.4,Win32,60.04924038,,,,,,,,,,,,,,,,,,,,,,,,,,,down,0,2.7842,,0.528703704,-0.253703704,1,0,0,0.7022,0,183,183,120,1,klimmen,images/br_klimmen.png,images/cb_klimmen.png,0,,,,,,,,,,,,,,,,,,,,,,
,,,,,,00050,2023-10-11_08h48.05.537,vbt_B1_day2,2022.2.4,Win32,60.04924038,,,,,,,,,,,,,,,,,,,,,,,,,,,down,0,5.5,,0.528703704,-0.253703704,1,0,0,0.932,0,184,184,72,1,strak,images/br_strak.png,images/cb_strak.png,0,,,,,,,,,,,,,,,,,,,,,,
,,,,,,00050,2023-10-11_08h48.05.537,vbt_B1_day2,2022.2.4,Win32,60.04924038,,,,,,,,,,,,,,,,,,,,,,,,,,,down,0,2.4524,,0.528703704,-0.253703704,1,0,0,0.7989,0,185,185,134,1,geliefd,images/br_geliefd.png,images/cb_geliefd.png,0,,,,,,,,,,,,,,,,,,,,,,
,,,,,,00050,2023-10-11_08h48.05.537,vbt_B1_day2,2022.2.4,Win32,60.04924038,,,,,,,,,,,,,,,,,,,,,,,,,,,down,0,1.7621,,0.528703704,-0.253703704,1,0,0,0.9509,0,186,186,146,1,opkomen,images/br_opkomen.png,images/cb_opkomen.png,0,,,,,,,,,,,,,,,,,,,,,,
,,,,,,00050,2023-10-11_08h48.05.537,vbt_B1_day2,2022.2.4,Win32,60.04924038,,,,,,,,,,,,,,,,,,,,,,,,,,,down,0,1.7421,,0.528703704,-0.253703704,1,0,0,0.536,0,187,187,56,1,traag,images/br_traag.png,images/cb_traag.png,1,traag,,,,,,,,,,,,,,,,,,,,,
,,,,,,00050,2023-10-11_08h48.05.537,vbt_B1_day2,2022.2.4,Win32,60.04924038,,,,,,,,,,,,,,,,,,,,,,,,,,,down,0,5.3246,,0.528703704,-0.253703704,1,0,0,0.6962,0,188,188,94,1,oceaan,images/br_oceaan.png,images/cb_oceaan.png,0,,,,,,,,,,,,,,,,,,,,,,
,,,,,,00050,2023-10-11_08h48.05.537,vbt_B1_day2,2022.2.4,Win32,60.04924038,,,,,,,,,,,,,,,,,,,,,,,,,,,down,0,8.364,,0.528703704,-0.253703704,1,0,0,1.6983,0,189,189,185,1,mijnheer,images/br_mijnheer.png,images/cb_mijnheer.png,0,,,,,,,,,,,,,,,,,,,,,,
,,,,,,00050,2023-10-11_08h48.05.537,vbt_B1_day2,2022.2.4,Win32,60.04924038,,,,,,,,,,,,,,,,,,,,,,,,,,,down,0,2.6806,,0.528703704,-0.25,1,0,0,0.7164,0,190,190,91,1,gezond,images/br_gezond.png,images/cb_gezond.png,0,,,,,,,,,,,,,,,,,,,,,,
,,,,,,00050,2023-10-11_08h48.05.537,vbt_B1_day2,2022.2.4,Win32,60.04924038,,,,,,,,,,,,,,,,,,,,,,,,,,,down,0,14.4866,,0.528703704,-0.25,1,0,0,1.7816,0,191,191,194,1,driemaal,images/br_driemaal.png,images/cb_driemaal.png,0,,,,,,,,,,,,,,,,,,,,,,
,,,,,,00050,2023-10-11_08h48.05.537,vbt_B1_day2,2022.2.4,Win32,60.04924038,,,,,,,,,,,,,,,,,,,,,,,,,,,down,0,1.4564,,0.528703704,-0.25,1,0,0,0.5162,0,192,192,18,1,blik,images/br_blik.png,images/cb_blik.png,1,blik,,,,,,,,,,,,,,,,,,,,,
,,,,,,00050,2023-10-11_08h48.05.537,vbt_B1_day2,2022.2.4,Win32,60.04924038,,,,,,,,,,,,,,,,,,,,,,,,,,,down,0,4.7683,,0.528703704,-0.25,1,0,0,1.5849,0,193,193,165,1,feestdag,images/br_feestdag.png,images/cb_feestdag.png,0,,,,,,,,,,,,,,,,,,,,,,
,,,,,,00050,2023-10-11_08h48.05.537,vbt_B1_day2,2022.2.4,Win32,60.04924038,,,,,,,,,,,,,,,,,,,,,,,,,,,down,0,4.4467,,0.528703704,-0.25,1,0,0,1.0454,0,194,194,141,1,knielen,images/br_knielen.png,images/cb_knielen.png,0,,,,,,,,,,,,,,,,,,,,,,
,,,,,,00050,2023-10-11_08h48.05.537,vbt_B1_day2,2022.2.4,Win32,60.04924038,,,,,,,,,,,,,,,,,,,,,,,,,,,down,0,2.0315,,0.528703704,-0.25,1,0,0,0.7788,0,195,195,47,1,kabel,images/br_kabel.png,images/cb_kabel.png,0,,,,,,,,,,,,,,,,,,,,,,
,,,,,,00050,2023-10-11_08h48.05.537,vbt_B1_day2,2022.2.4,Win32,60.04924038,,,,,,,,,,,,,,,,,,,,,,,,,,,down,0,3.0659,,0.528703704,-0.25,1,0,0,0.8523,0,196,196,52,1,wagon,images/br_wagon.png,images/cb_wagon.png,0,,,,,,,,,,,,,,,,,,,,,,
,,,,,,00050,2023-10-11_08h48.05.537,vbt_B1_day2,2022.2.4,Win32,60.04924038,,,,,,,,,,,,,,,,,,,,,,,,,,,down,0,4.0983,,0.528703704,-0.25,1,0,0,0.7782,0,197,197,156,1,rechten,images/br_rechten.png,images/cb_rechten.png,0,,,,,,,,,,,,,,,,,,,,,,
,,,,,,00050,2023-10-11_08h48.05.537,vbt_B1_day2,2022.2.4,Win32,60.04924038,,,,,,,,,,,,,,,,,,,,,,,,,,,down,0,0.9801,,0.528703704,-0.25,1,0,0,2.564,0,198,198,29,1,baas,images/br_baas.png,images/cb_baas.png,0,,,,,,,,,,,,,,,,,,,,,,
,,,,,,00050,2023-10-11_08h48.05.537,vbt_B1_day2,2022.2.4,Win32,60.04924038,,,,,,,,,,,,,,,,,,,,,,,,,,,down,0,8.5601,,0.528703704,-0.25,1,0,0,0.8659,0,199,199,37,1,mijn,images/br_mijn.png,images/cb_mijn.png,0,,,,,,,,,,,,,,,,,,,,,,
,,,,,,00050,2023-10-11_08h48.05.537,vbt_B1_day2,2022.2.4,Win32,60.04924038,,,,,,,,,,,,,,,,,,,,,,,,,,,,,,,,,,,,,,,,,,,,,,,0.451851852,-0.210185185,1,0,0,,,,,,,,,,,,,,,,
,,,,,,00050,2023-10-11_08h48.05.537,vbt_B1_day2,2022.2.4,Win32,60.04924038,,,,,,,,,,,,,,,,,,,,,,,,,,,,,,,,,,,,,,,,,,,,,,,,,,,,0.535185185,-0.218518519,1,0,0,,,,,,,,,,,
,,,,,,00050,2023-10-11_08h48.05.537,vbt_B1_day2,2022.2.4,Win32,60.04924038,,,,,,,,,,,,,,,,,,,,,,,,,,,,,,,,,,,,,,,,,,dode,images/br_dode.png,images/cb_dode.png,,dode,,,,,,,,,,,0.535185185,-0.218518519,1,0,0,dode,0,0,0,41,1
,,,,,,00050,2023-10-11_08h48.05.537,vbt_B1_day2,2022.2.4,Win32,60.04924038,,,,,,,,,,,,,,,,,,,,,,,,,,,,,,,,,,,,,,,,,,ophuimen,images/br_ophuimen.png,images/cb_ophuimen.png,,opjui.e..,,,,,,,,,,,0.535185185,-0.218518519,1,0,0,opjui.e..,0,1,1,36,1
,,,,,,00050,2023-10-11_08h48.05.537,vbt_B1_day2,2022.2.4,Win32,60.04924038,,,,,,,,,,,,,,,,,,,,,,,,,,,,,,,,,,,,,,,,,,strikken,images/br_strikken.png,images/cb_strikken.png,,staikk..,,,,,,,,,,,0.535185185,-0.218518519,1,0,0,staikk..,0,2,2,18,1
,,,,,,00050,2023-10-11_08h48.05.537,vbt_B1_day2,2022.2.4,Win32,60.04924038,,,,,,,,,,,,,,,,,,,,,,,,,,,,,,,,,,,,,,,,,,anarchie,images/br_anarchie.png,images/cb_anarchie.png,,anarchie,,,,,,,,,,,0.535185185,-0.218518519,1,0,0,anarchie,0,3,3,16,1
,,,,,,00050,2023-10-11_08h48.05.537,vbt_B1_day2,2022.2.4,Win32,60.04924038,,,,,,,,,,,,,,,,,,,,,,,,,,,,,,,,,,,,,,,,,,tweeling,images/br_tweeling.png,images/cb_tweeling.png,,tweeling,,,,,,,,,,,0.535185185,-0.218518519,1,0,0,tweeling,0,4,4,58,1
,,,,,,00050,2023-10-11_08h48.05.537,vbt_B1_day2,2022.2.4,Win32,60.04924038,,,,,,,,,,,,,,,,,,,,,,,,,,,,,,,,,,,,,,,,,,opdatten,images/br_opdatten.png,images/cb_opdatten.png,,op.etten,,,,,,,,,,,0.535185185,-0.218518519,1,0,0,op.etten,0,5,5,37,1
,,,,,,00050,2023-10-11_08h48.05.537,vbt_B1_day2,2022.2.4,Win32,60.04924038,,,,,,,,,,,,,,,,,,,,,,,,,,,,,,,,,,,,,,,,,,ningen,images/br_ningen.png,images/cb_ningen.png,,ning..,,,,,,,,,,,0.535185185,-0.218518519,1,0,0,ning..,0,6,6,28,1
,,,,,,00050,2023-10-11_08h48.05.537,vbt_B1_day2,2022.2.4,Win32,60.04924038,,,,,,,,,,,,,,,,,,,,,,,,,,,,,,,,,,,,,,,,,,agressie,images/br_agressie.png,images/cb_agressie.png,,agress..,,,,,,,,,,,0.535185185,-0.218518519,1,0,0,agress..,0,7,7,59,1
,,,,,,00050,2023-10-11_08h48.05.537,vbt_B1_day2,2022.2.4,Win32,60.04924038,,,,,,,,,,,,,,,,,,,,,,,,,,,,,,,,,,,,,,,,,,lijnen,images/br_lijnen.png,images/cb_lijnen.png,,lijn..,,,,,,,,,,,0.535185185,-0.218518519,1,0,0,lijn..,0,8,8,51,1
,,,,,,00050,2023-10-11_08h48.05.537,vbt_B1_day2,2022.2.4,Win32,60.04924038,,,,,,,,,,,,,,,,,,,,,,,,,,,,,,,,,,,,,,,,,,wijve,images/br_wijve.png,images/cb_wijve.png,,wijve,,,,,,,,,,,0.535185185,-0.218518519,1,0,0,wijve,0,9,9,27,1
,,,,,,00050,2023-10-11_08h48.05.537,vbt_B1_day2,2022.2.4,Win32,60.04924038,,,,,,,,,,,,,,,,,,,,,,,,,,,,,,,,,,,,,,,,,,zwager,images/br_zwager.png,images/cb_zwager.png,,zwager,,,,,,,,,,,0.537037037,-0.218518519,1,0,0,zwager,0,10,10,49,1
,,,,,,00050,2023-10-11_08h48.05.537,vbt_B1_day2,2022.2.4,Win32,60.04924038,,,,,,,,,,,,,,,,,,,,,,,,,,,,,,,,,,,,,,,,,,tand,images/br_tand.png,images/cb_tand.png,,tand,,,,,,,,,,,0.537037037,-0.218518519,1,0,0,tand,0,11,11,42,1
,,,,,,00050,2023-10-11_08h48.05.537,vbt_B1_day2,2022.2.4,Win32,60.04924038,,,,,,,,,,,,,,,,,,,,,,,,,,,,,,,,,,,,,,,,,,kijlen,images/br_kijlen.png,images/cb_kijlen.png,,kijlen,,,,,,,,,,,0.537037037,-0.218518519,1,0,0,kijlen,0,12,12,31,1
,,,,,,00050,2023-10-11_08h48.05.537,vbt_B1_day2,2022.2.4,Win32,60.04924038,,,,,,,,,,,,,,,,,,,,,,,,,,,,,,,,,,,,,,,,,,clan,images/br_clan.png,images/cb_clan.png,,clan,,,,,,,,,,,0.537037037,-0.218518519,1,0,0,clan,0,13,13,40,1
,,,,,,00050,2023-10-11_08h48.05.537,vbt_B1_day2,2022.2.4,Win32,60.04924038,,,,,,,,,,,,,,,,,,,,,,,,,,,,,,,,,,,,,,,,,,badon,images/br_badon.png,images/cb_badon.png,,badon,,,,,,,,,,,0.537037037,-0.218518519,1,0,0,badon,0,14,14,26,1
,,,,,,00050,2023-10-11_08h48.05.537,vbt_B1_day2,2022.2.4,Win32,60.04924038,,,,,,,,,,,,,,,,,,,,,,,,,,,,,,,,,,,,,,,,,,lurgen,images/br_lurgen.png,images/cb_lurgen.png,,lurgen,,,,,,,,,,,0.537037037,-0.218518519,1,0,0,lurgen,0,15,15,29,1
,,,,,,00050,2023-10-11_08h48.05.537,vbt_B1_day2,2022.2.4,Win32,60.04924038,,,,,,,,,,,,,,,,,,,,,,,,,,,,,,,,,,,,,,,,,,bloeien,images/br_bloeien.png,images/cb_bloeien.png,,bloeien,,,,,,,,,,,0.537037037,-0.218518519,1,0,0,bloeien,0,16,16,12,1
,,,,,,00050,2023-10-11_08h48.05.537,vbt_B1_day2,2022.2.4,Win32,60.04924038,,,,,,,,,,,,,,,,,,,,,,,,,,,,,,,,,,,,,,,,,,thema,images/br_thema.png,images/cb_thema.png,,thema,,,,,,,,,,,0.537037037,-0.218518519,1,0,0,thema,0,17,17,47,1
,,,,,,00050,2023-10-11_08h48.05.537,vbt_B1_day2,2022.2.4,Win32,60.04924038,,,,,,,,,,,,,,,,,,,,,,,,,,,,,,,,,,,,,,,,,,jagen,images/br_jagen.png,images/cb_jagen.png,,jagen,,,,,,,,,,,0.537037037,-0.218518519,1,0,0,jagen,0,18,18,6,1
,,,,,,00050,2023-10-11_08h48.05.537,vbt_B1_day2,2022.2.4,Win32,60.04924038,,,,,,,,,,,,,,,,,,,,,,,,,,,,,,,,,,,,,,,,,,krimmen,images/br_krimmen.png,images/cb_krimmen.png,,kremmen,,,,,,,,,,,0.537037037,-0.218518519,1,0,0,kremmen,0,19,19,35,1
,,,,,,00050,2023-10-11_08h48.05.537,vbt_B1_day2,2022.2.4,Win32,60.04924038,,,,,,,,,,,,,,,,,,,,,,,,,,,,,,,,,,,,,,,,,,aanvraag,images/br_aanvraag.png,images/cb_aanvraag.png,,aanvraag,,,,,,,,,,,0.537037037,-0.218518519,1,0,0,aanvraag,0,20,20,57,1
,,,,,,00050,2023-10-11_08h48.05.537,vbt_B1_day2,2022.2.4,Win32,60.04924038,,,,,,,,,,,,,,,,,,,,,,,,,,,,,,,,,,,,,,,,,,toeval,images/br_toeval.png,images/cb_toeval.png,,toeval,,,,,,,,,,,0.537037037,-0.218518519,1,0,0,toeval,0,21,21,11,1
,,,,,,00050,2023-10-11_08h48.05.537,vbt_B1_day2,2022.2.4,Win32,60.04924038,,,,,,,,,,,,,,,,,,,,,,,,,,,,,,,,,,,,,,,,,,diep,images/br_diep.png,images/cb_diep.png,,diep,,,,,,,,,,,0.537037037,-0.218518519,1,0,0,diep,0,22,22,2,1
,,,,,,00050,2023-10-11_08h48.05.537,vbt_B1_day2,2022.2.4,Win32,60.04924038,,,,,,,,,,,,,,,,,,,,,,,,,,,,,,,,,,,,,,,,,,zomers,images/br_zomers.png,images/cb_zomers.png,,zopers,,,,,,,,,,,0.537037037,-0.218518519,1,0,0,zopers,0,23,23,48,1
,,,,,,00050,2023-10-11_08h48.05.537,vbt_B1_day2,2022.2.4,Win32,60.04924038,,,,,,,,,,,,,,,,,,,,,,,,,,,,,,,,,,,,,,,,,,sifferd,images/br_sifferd.png,images/cb_sifferd.png,,siff...,,,,,,,,,,,0.537037037,-0.218518519,1,0,0,siff...,0,24,24,32,1
,,,,,,00050,2023-10-11_08h48.05.537,vbt_B1_day2,2022.2.4,Win32,60.04924038,,,,,,,,,,,,,,,,,,,,,,,,,,,,,,,,,,,,,,,,,,welzijn,images/br_welzijn.png,images/cb_welzijn.png,,welzijn,,,,,,,,,,,0.537037037,-0.218518519,1,0,0,welzijn,0,25,25,52,1
,,,,,,00050,2023-10-11_08h48.05.537,vbt_B1_day2,2022.2.4,Win32,60.04924038,,,,,,,,,,,,,,,,,,,,,,,,,,,,,,,,,,,,,,,,,,remel,images/br_remel.png,images/cb_remel.png,,remel,,,,,,,,,,,0.537037037,-0.218518519,1,0,0,remel,0,26,26,25,1
,,,,,,00050,2023-10-11_08h48.05.537,vbt_B1_day2,2022.2.4,Win32,60.04924038,,,,,,,,,,,,,,,,,,,,,,,,,,,,,,,,,,,,,,,,,,doodmoe,images/br_doodmoe.png,images/cb_doodmoe.png,,doodmoe,,,,,,,,,,,0.537037037,-0.218518519,1,0,0,doodmoe,0,27,27,15,1
,,,,,,00050,2023-10-11_08h48.05.537,vbt_B1_day2,2022.2.4,Win32,60.04924038,,,,,,,,,,,,,,,,,,,,,,,,,,,,,,,,,,,,,,,,,,breuk,images/br_breuk.png,images/cb_breuk.png,,breuk,,,,,,,,,,,0.537037037,-0.218518519,1,0,0,breuk,0,28,28,45,1
,,,,,,00050,2023-10-11_08h48.05.537,vbt_B1_day2,2022.2.4,Win32,60.04924038,,,,,,,,,,,,,,,,,,,,,,,,,,,,,,,,,,,,,,,,,,piste,images/br_piste.png,images/cb_piste.png,,piste,,,,,,,,,,,0.537037037,-0.218518519,1,0,0,piste,0,29,29,5,1
,,,,,,00050,2023-10-11_08h48.05.537,vbt_B1_day2,2022.2.4,Win32,60.04924038,,,,,,,,,,,,,,,,,,,,,,,,,,,,,,,,,,,,,,,,,,manieren,images/br_manieren.png,images/cb_manieren.png,,manieren,,,,,,,,,,,0.537037037,-0.218518519,1,0,0,manieren,0,30,30,56,1
,,,,,,00050,2023-10-11_08h48.05.537,vbt_B1_day2,2022.2.4,Win32,60.04924038,,,,,,,,,,,,,,,,,,,,,,,,,,,,,,,,,,,,,,,,,,negel,images/br_negel.png,images/cb_negel.png,,negel,,,,,,,,,,,0.537037037,-0.218518519,1,0,0,negel,0,31,31,24,1
,,,,,,00050,2023-10-11_08h48.05.537,vbt_B1_day2,2022.2.4,Win32,60.04924038,,,,,,,,,,,,,,,,,,,,,,,,,,,,,,,,,,,,,,,,,,eenhoorn,images/br_eenhoorn.png,images/cb_eenhoorn.png,,,,,,,,,,,,,0.537037037,-0.218518519,1,0,0,,0,32,32,19,1
,,,,,,00050,2023-10-11_08h48.05.537,vbt_B1_day2,2022.2.4,Win32,60.04924038,,,,,,,,,,,,,,,,,,,,,,,,,,,,,,,,,,,,,,,,,,jong,images/br_jong.png,images/cb_jong.png,,.ong,,,,,,,,,,,0.537037037,-0.218518519,1,0,0,.ong,0,33,33,43,1
,,,,,,00050,2023-10-11_08h48.05.537,vbt_B1_day2,2022.2.4,Win32,60.04924038,,,,,,,,,,,,,,,,,,,,,,,,,,,,,,,,,,,,,,,,,,trots,images/br_trots.png,images/cb_trots.png,,trots,,,,,,,,,,,0.537037037,-0.218518519,1,0,0,trots,0,34,34,44,1
,,,,,,00050,2023-10-11_08h48.05.537,vbt_B1_day2,2022.2.4,Win32,60.04924038,,,,,,,,,,,,,,,,,,,,,,,,,,,,,,,,,,,,,,,,,,feestdag,images/br_feestdag.png,images/cb_feestdag.png,,feest...,,,,,,,,,,,0.537037037,-0.218518519,1,0,0,feest...,0,35,35,17,1
,,,,,,00050,2023-10-11_08h48.05.537,vbt_B1_day2,2022.2.4,Win32,60.04924038,,,,,,,,,,,,,,,,,,,,,,,,,,,,,,,,,,,,,,,,,,heilig,images/br_heilig.png,images/cb_heilig.png,,heilig,,,,,,,,,,,0.537037037,-0.218518519,1,0,0,heilig,0,36,36,9,1
,,,,,,00050,2023-10-11_08h48.05.537,vbt_B1_day2,2022.2.4,Win32,60.04924038,,,,,,,,,,,,,,,,,,,,,,,,,,,,,,,,,,,,,,,,,,moes,images/br_moes.png,images/cb_moes.png,,moes,,,,,,,,,,,0.537037037,-0.218518519,1,0,0,moes,0,37,37,0,1
,,,,,,00050,2023-10-11_08h48.05.537,vbt_B1_day2,2022.2.4,Win32,60.04924038,,,,,,,,,,,,,,,,,,,,,,,,,,,,,,,,,,,,,,,,,,goon,images/br_goon.png,images/cb_goon.png,,goon,,,,,,,,,,,0.537037037,-0.218518519,1,0,0,goon,0,38,38,23,1
,,,,,,00050,2023-10-11_08h48.05.537,vbt_B1_day2,2022.2.4,Win32,60.04924038,,,,,,,,,,,,,,,,,,,,,,,,,,,,,,,,,,,,,,,,,,woning,images/br_woning.png,images/cb_woning.png,,woning,,,,,,,,,,,0.537037037,-0.218518519,1,0,0,woning,0,39,39,10,1
,,,,,,00050,2023-10-11_08h48.05.537,vbt_B1_day2,2022.2.4,Win32,60.04924038,,,,,,,,,,,,,,,,,,,,,,,,,,,,,,,,,,,,,,,,,,joes,images/br_joes.png,images/cb_joes.png,,joes,,,,,,,,,,,0.537037037,-0.216666667,1,0,0,joes,0,40,40,20,1
,,,,,,00050,2023-10-11_08h48.05.537,vbt_B1_day2,2022.2.4,Win32,60.04924038,,,,,,,,,,,,,,,,,,,,,,,,,,,,,,,,,,,,,,,,,,heengeen,images/br_heengeen.png,images/cb_heengeen.png,,heengeen,,,,,,,,,,,0.537037037,-0.216666667,1,0,0,heengeen,0,41,41,38,1
,,,,,,00050,2023-10-11_08h48.05.537,vbt_B1_day2,2022.2.4,Win32,60.04924038,,,,,,,,,,,,,,,,,,,,,,,,,,,,,,,,,,,,,,,,,,flits,images/br_flits.png,images/cb_flits.png,,flits,,,,,,,,,,,0.537037037,-0.216666667,1,0,0,flits,0,42,42,4,1
,,,,,,00050,2023-10-11_08h48.05.537,vbt_B1_day2,2022.2.4,Win32,60.04924038,,,,,,,,,,,,,,,,,,,,,,,,,,,,,,,,,,,,,,,,,,kabel,images/br_kabel.png,images/cb_kabel.png,,kabel,,,,,,,,,,,0.537037037,-0.216666667,1,0,0,kabel,0,43,43,7,1
,,,,,,00050,2023-10-11_08h48.05.537,vbt_B1_day2,2022.2.4,Win32,60.04924038,,,,,,,,,,,,,,,,,,,,,,,,,,,,,,,,,,,,,,,,,,sjijfel,images/br_sjijfel.png,images/cb_sjijfel.png,,sjij...,,,,,,,,,,,0.537037037,-0.216666667,1,0,0,sjij...,0,44,44,33,1
,,,,,,00050,2023-10-11_08h48.05.537,vbt_B1_day2,2022.2.4,Win32,60.04924038,,,,,,,,,,,,,,,,,,,,,,,,,,,,,,,,,,,,,,,,,,kenzis,images/br_kenzis.png,images/cb_kenzis.png,,kenze.,,,,,,,,,,,0.537037037,-0.216666667,1,0,0,kenze.,0,45,45,30,1
,,,,,,00050,2023-10-11_08h48.05.537,vbt_B1_day2,2022.2.4,Win32,60.04924038,,,,,,,,,,,,,,,,,,,,,,,,,,,,,,,,,,,,,,,,,,blad,images/br_blad.png,images/cb_blad.png,,blad,,,,,,,,,,,0.537037037,-0.216666667,1,0,0,blad,0,46,46,1,1
,,,,,,00050,2023-10-11_08h48.05.537,vbt_B1_day2,2022.2.4,Win32,60.04924038,,,,,,,,,,,,,,,,,,,,,,,,,,,,,,,,,,,,,,,,,,lokken,images/br_lokken.png,images/cb_lokken.png,,lokken,,,,,,,,,,,0.537037037,-0.216666667,1,0,0,lokken,0,47,47,8,1
,,,,,,00050,2023-10-11_08h48.05.537,vbt_B1_day2,2022.2.4,Win32,60.04924038,,,,,,,,,,,,,,,,,,,,,,,,,,,,,,,,,,,,,,,,,,aanzien,images/br_aanzien.png,images/cb_aanzien.png,,aanziek,,,,,,,,,,,0.537037037,-0.216666667,1,0,0,aanziek,0,48,48,13,1
,,,,,,00050,2023-10-11_08h48.05.537,vbt_B1_day2,2022.2.4,Win32,60.04924038,,,,,,,,,,,,,,,,,,,,,,,,,,,,,,,,,,,,,,,,,,bereuwen,images/br_bereuwen.png,images/cb_bereuwen.png,,bereuwen,,,,,,,,,,,0.537037037,-0.216666667,1,0,0,bereuwen,0,49,49,39,1
,,,,,,00050,2023-10-11_08h48.05.537,vbt_B1_day2,2022.2.4,Win32,60.04924038,,,,,,,,,,,,,,,,,,,,,,,,,,,,,,,,,,,,,,,,,,prekken,images/br_prekken.png,images/cb_prekken.png,,prekken,,,,,,,,,,,0.537037037,-0.216666667,1,0,0,prekken,0,50,50,34,1
,,,,,,00050,2023-10-11_08h48.05.537,vbt_B1_day2,2022.2.4,Win32,60.04924038,,,,,,,,,,,,,,,,,,,,,,,,,,,,,,,,,,,,,,,,,,zegel,images/br_zegel.png,images/cb_zegel.png,,zegel,,,,,,,,,,,0.537037037,-0.216666667,1,0,0,zegel,0,51,51,46,1
,,,,,,00050,2023-10-11_08h48.05.537,vbt_B1_day2,2022.2.4,Win32,60.04924038,,,,,,,,,,,,,,,,,,,,,,,,,,,,,,,,,,,,,,,,,,inzicht,images/br_inzicht.png,images/cb_inzicht.png,,inzicht,,,,,,,,,,,0.537037037,-0.216666667,1,0,0,inzicht,0,52,52,53,1
,,,,,,00050,2023-10-11_08h48.05.537,vbt_B1_day2,2022.2.4,Win32,60.04924038,,,,,,,,,,,,,,,,,,,,,,,,,,,,,,,,,,,,,,,,,,sora,images/br_sora.png,images/cb_sora.png,,sora,,,,,,,,,,,0.537037037,-0.216666667,1,0,0,sora,0,53,53,22,1
,,,,,,00050,2023-10-11_08h48.05.537,vbt_B1_day2,2022.2.4,Win32,60.04924038,,,,,,,,,,,,,,,,,,,,,,,,,,,,,,,,,,,,,,,,,,plannen,images/br_plannen.png,images/cb_plannen.png,,plannen,,,,,,,,,,,0.537037037,-0.216666667,1,0,0,plannen,0,54,54,55,1
,,,,,,00050,2023-10-11_08h48.05.537,vbt_B1_day2,2022.2.4,Win32,60.04924038,,,,,,,,,,,,,,,,,,,,,,,,,,,,,,,,,,,,,,,,,,stes,images/br_stes.png,images/cb_stes.png,,step,,,,,,,,,,,0.537037037,-0.216666667,1,0,0,step,0,55,55,21,1
,,,,,,00050,2023-10-11_08h48.05.537,vbt_B1_day2,2022.2.4,Win32,60.04924038,,,,,,,,,,,,,,,,,,,,,,,,,,,,,,,,,,,,,,,,,,koorts,images/br_koorts.png,images/cb_koorts.png,,koorts,,,,,,,,,,,0.537037037,-0.216666667,1,0,0,koorts,0,56,56,50,1
,,,,,,00050,2023-10-11_08h48.05.537,vbt_B1_day2,2022.2.4,Win32,60.04924038,,,,,,,,,,,,,,,,,,,,,,,,,,,,,,,,,,,,,,,,,,systeem,images/br_systeem.png,images/cb_systeem.png,,syst...,,,,,,,,,,,0.537037037,-0.216666667,1,0,0,syst...,0,57,57,54,1
,,,,,,00050,2023-10-11_08h48.05.537,vbt_B1_day2,2022.2.4,Win32,60.04924038,,,,,,,,,,,,,,,,,,,,,,,,,,,,,,,,,,,,,,,,,,kasteel,images/br_kasteel.png,images/cb_kasteel.png,,kasteel,,,,,,,,,,,0.537037037,-0.216666667,1,0,0,kasteel,0,58,58,14,1
,,,,,,00050,2023-10-11_08h48.05.537,vbt_B1_day2,2022.2.4,Win32,60.04924038,,,,,,,,,,,,,,,,,,,,,,,,,,,,,,,,,,,,,,,,,,geld,images/br_geld.png,images/cb_geld.png,,geld,,,,,,,,,,,0.537037037,-0.216666667,1,0,0,geld,0,59,59,3,1
,,,,,,00050,2023-10-11_08h48.05.537,vbt_B1_day2,2022.2.4,Win32,60.04924038,,,,,,,,,,,,,,,,,,,,,,,,,,,,,,,,,,,,,,,,,,,,,,,,,,,,,,,,,,,,,,,,,,,
