welcome_mouse.x,welcome_mouse.y,welcome_mouse.leftButton,welcome_mouse.midButton,welcome_mouse.rightButton,welcome_mouse.time,"ID",date,expName,psychopyVersion,OS,frameRate,refresh_mouse.x,refresh_mouse.y,refresh_mouse.leftButton,refresh_mouse.midButton,refresh_mouse.rightButton,refresh_mouse.time,braille_mouse.x,braille_mouse.y,braille_mouse.leftButton,braille_mouse.midButton,braille_mouse.rightButton,braille_mouse.time,trials.thisRepN,trials.thisTrialN,trials.thisN,trials.thisIndex,trials.ran,nlLet,brLet,cbLet,trainInstr_mouse.x,trainInstr_mouse.y,trainInstr_mouse.leftButton,trainInstr_mouse.midButton,trainInstr_mouse.rightButton,trainInstr_mouse.time,translation_key.keys,translation_key.corr,translation_key.rt,word_rsp.text,word_mouse.x,word_mouse.y,word_mouse.leftButton,word_mouse.midButton,word_mouse.rightButton,word_mouse.time,train_loop.thisRepN,train_loop.thisTrialN,train_loop.thisN,train_loop.thisIndex,train_loop.ran,nlWrd,brWrd,cbWrd,test,testResp,mouse.x,mouse.y,mouse.leftButton,mouse.midButton,mouse.rightButton,testInstr_mouse.x,testInstr_mouse.y,testInstr_mouse.leftButton,testInstr_mouse.midButton,testInstr_mouse.rightButton,test_mouse.x,test_mouse.y,test_mouse.leftButton,test_mouse.midButton,test_mouse.rightButton,test_response.text,test_loop.thisRepN,test_loop.thisTrialN,test_loop.thisN,test_loop.thisIndex,test_loop.ran
0.344444416,-0.195370356,1,0,0,22.5181,00059,2023-10-18_12h01.31.591,vbt_B1_day2,2022.2.4,Win32,60.48509043,,,,,,,,,,,,,,,,,,,,,,,,,,,,,,,,,,,,,,,,,,,,,,,,,,,,,,,,,,,,,,,,,,,
,,,,,,00059,2023-10-18_12h01.31.591,vbt_B1_day2,2022.2.4,Win32,60.48509043,0.344444416,-0.195370356,1,0,0,18.6175,,,,,,,,,,,,,,,,,,,,,,,,,,,,,,,,,,,,,,,,,,,,,,,,,,,,,,,,,,,,,
,,,,,,00059,2023-10-18_12h01.31.591,vbt_B1_day2,2022.2.4,Win32,60.48509043,,,,,,,0.344444416,-0.195370356,1,0,0,2.4165,0,0,0,1,1,b,images/br_b.png,images/cb_b.png,,,,,,,,,,,,,,,,,,,,,,,,,,,,,,,,,,,,,,,,,,,,,,,
,,,,,,00059,2023-10-18_12h01.31.591,vbt_B1_day2,2022.2.4,Win32,60.48509043,,,,,,,0.344444416,-0.195370356,1,0,0,0.3334,0,1,1,7,1,h,images/br_h.png,images/cb_h.png,,,,,,,,,,,,,,,,,,,,,,,,,,,,,,,,,,,,,,,,,,,,,,,
,,,,,,00059,2023-10-18_12h01.31.591,vbt_B1_day2,2022.2.4,Win32,60.48509043,,,,,,,0.344444416,-0.195370356,1,0,0,1.566,0,2,2,12,1,m,images/br_m.png,images/cb_m.png,,,,,,,,,,,,,,,,,,,,,,,,,,,,,,,,,,,,,,,,,,,,,,,
,,,,,,00059,2023-10-18_12h01.31.591,vbt_B1_day2,2022.2.4,Win32,60.48509043,,,,,,,0.344444416,-0.195370356,1,0,0,0.5507,0,3,3,21,1,v,images/br_v.png,images/cb_v.png,,,,,,,,,,,,,,,,,,,,,,,,,,,,,,,,,,,,,,,,,,,,,,,
,,,,,,00059,2023-10-18_12h01.31.591,vbt_B1_day2,2022.2.4,Win32,60.48509043,,,,,,,0.344444416,-0.195370356,1,0,0,1.5164,0,4,4,5,1,f,images/br_f.png,images/cb_f.png,,,,,,,,,,,,,,,,,,,,,,,,,,,,,,,,,,,,,,,,,,,,,,,
,,,,,,00059,2023-10-18_12h01.31.591,vbt_B1_day2,2022.2.4,Win32,60.48509043,,,,,,,0.344444416,-0.195370356,1,0,0,0.9277,0,5,5,3,1,d,images/br_d.png,images/cb_d.png,,,,,,,,,,,,,,,,,,,,,,,,,,,,,,,,,,,,,,,,,,,,,,,
,,,,,,00059,2023-10-18_12h01.31.591,vbt_B1_day2,2022.2.4,Win32,60.48509043,,,,,,,0.344444416,-0.195370356,1,0,0,0.1838,0,6,6,13,1,n,images/br_n.png,images/cb_n.png,,,,,,,,,,,,,,,,,,,,,,,,,,,,,,,,,,,,,,,,,,,,,,,
,,,,,,00059,2023-10-18_12h01.31.591,vbt_B1_day2,2022.2.4,Win32,60.48509043,,,,,,,0.344444416,-0.195370356,1,0,0,1.186,0,7,7,9,1,j,images/br_j.png,images/cb_j.png,,,,,,,,,,,,,,,,,,,,,,,,,,,,,,,,,,,,,,,,,,,,,,,
,,,,,,00059,2023-10-18_12h01.31.591,vbt_B1_day2,2022.2.4,Win32,60.48509043,,,,,,,0.344444416,-0.195370356,1,0,0,0.8828,0,8,8,23,1,x,images/br_x.png,images/cb_x.png,,,,,,,,,,,,,,,,,,,,,,,,,,,,,,,,,,,,,,,,,,,,,,,
,,,,,,00059,2023-10-18_12h01.31.591,vbt_B1_day2,2022.2.4,Win32,60.48509043,,,,,,,0.344444416,-0.195370356,1,0,0,0.3168,0,9,9,14,1,o,images/br_o.png,images/cb_o.png,,,,,,,,,,,,,,,,,,,,,,,,,,,,,,,,,,,,,,,,,,,,,,,
,,,,,,00059,2023-10-18_12h01.31.591,vbt_B1_day2,2022.2.4,Win32,60.48509043,,,,,,,0.344444416,-0.195370356,1,0,0,0.4335,0,10,10,15,1,p,images/br_p.png,images/cb_p.png,,,,,,,,,,,,,,,,,,,,,,,,,,,,,,,,,,,,,,,,,,,,,,,
,,,,,,00059,2023-10-18_12h01.31.591,vbt_B1_day2,2022.2.4,Win32,60.48509043,,,,,,,0.344444416,-0.195370356,1,0,0,0.3542,0,11,11,25,1,z,images/br_z.png,images/cb_z.png,,,,,,,,,,,,,,,,,,,,,,,,,,,,,,,,,,,,,,,,,,,,,,,
,,,,,,00059,2023-10-18_12h01.31.591,vbt_B1_day2,2022.2.4,Win32,60.48509043,,,,,,,0.344444416,-0.195370356,1,0,0,0.6172,0,12,12,8,1,i,images/br_i.png,images/cb_i.png,,,,,,,,,,,,,,,,,,,,,,,,,,,,,,,,,,,,,,,,,,,,,,,
,,,,,,00059,2023-10-18_12h01.31.591,vbt_B1_day2,2022.2.4,Win32,60.48509043,,,,,,,0.344444416,-0.195370356,1,0,0,0.1332,0,13,13,11,1,l,images/br_l.png,images/cb_l.png,,,,,,,,,,,,,,,,,,,,,,,,,,,,,,,,,,,,,,,,,,,,,,,
,,,,,,00059,2023-10-18_12h01.31.591,vbt_B1_day2,2022.2.4,Win32,60.48509043,,,,,,,0.344444416,-0.195370356,1,0,0,0.5501,0,14,14,17,1,r,images/br_r.png,images/cb_r.png,,,,,,,,,,,,,,,,,,,,,,,,,,,,,,,,,,,,,,,,,,,,,,,
,,,,,,00059,2023-10-18_12h01.31.591,vbt_B1_day2,2022.2.4,Win32,60.48509043,,,,,,,0.344444416,-0.195370356,1,0,0,0.817,0,15,15,24,1,y,images/br_y.png,images/cb_y.png,,,,,,,,,,,,,,,,,,,,,,,,,,,,,,,,,,,,,,,,,,,,,,,
,,,,,,00059,2023-10-18_12h01.31.591,vbt_B1_day2,2022.2.4,Win32,60.48509043,,,,,,,0.344444416,-0.195370356,1,0,0,2.1006,0,16,16,0,1,a,images/br_a.png,images/cb_a.png,,,,,,,,,,,,,,,,,,,,,,,,,,,,,,,,,,,,,,,,,,,,,,,
,,,,,,00059,2023-10-18_12h01.31.591,vbt_B1_day2,2022.2.4,Win32,60.48509043,,,,,,,0.344444416,-0.195370356,1,0,0,7.0647,0,17,17,10,1,k,images/br_k.png,images/cb_k.png,,,,,,,,,,,,,,,,,,,,,,,,,,,,,,,,,,,,,,,,,,,,,,,
,,,,,,00059,2023-10-18_12h01.31.591,vbt_B1_day2,2022.2.4,Win32,60.48509043,,,,,,,0.344444416,-0.195370356,1,0,0,1.5329,0,18,18,20,1,u,images/br_u.png,images/cb_u.png,,,,,,,,,,,,,,,,,,,,,,,,,,,,,,,,,,,,,,,,,,,,,,,
,,,,,,00059,2023-10-18_12h01.31.591,vbt_B1_day2,2022.2.4,Win32,60.48509043,,,,,,,0.344444416,-0.195370356,1,0,0,1.7664,0,19,19,6,1,g,images/br_g.png,images/cb_g.png,,,,,,,,,,,,,,,,,,,,,,,,,,,,,,,,,,,,,,,,,,,,,,,
,,,,,,00059,2023-10-18_12h01.31.591,vbt_B1_day2,2022.2.4,Win32,60.48509043,,,,,,,0.344444416,-0.195370356,1,0,0,0.3837,0,20,20,22,1,w,images/br_w.png,images/cb_w.png,,,,,,,,,,,,,,,,,,,,,,,,,,,,,,,,,,,,,,,,,,,,,,,
,,,,,,00059,2023-10-18_12h01.31.591,vbt_B1_day2,2022.2.4,Win32,60.48509043,,,,,,,0.344444416,-0.195370356,1,0,0,0.567,0,21,21,18,1,s,images/br_s.png,images/cb_s.png,,,,,,,,,,,,,,,,,,,,,,,,,,,,,,,,,,,,,,,,,,,,,,,
,,,,,,00059,2023-10-18_12h01.31.591,vbt_B1_day2,2022.2.4,Win32,60.48509043,,,,,,,0.344444416,-0.195370356,1,0,0,7.9148,0,22,22,16,1,q,images/br_q.png,images/cb_q.png,,,,,,,,,,,,,,,,,,,,,,,,,,,,,,,,,,,,,,,,,,,,,,,
,,,,,,00059,2023-10-18_12h01.31.591,vbt_B1_day2,2022.2.4,Win32,60.48509043,,,,,,,0.344444416,-0.195370356,1,0,0,0.2172,0,23,23,2,1,c,images/br_c.png,images/cb_c.png,,,,,,,,,,,,,,,,,,,,,,,,,,,,,,,,,,,,,,,,,,,,,,,
,,,,,,00059,2023-10-18_12h01.31.591,vbt_B1_day2,2022.2.4,Win32,60.48509043,,,,,,,0.344444416,-0.195370356,1,0,0,1.0501,0,24,24,4,1,e,images/br_e.png,images/cb_e.png,,,,,,,,,,,,,,,,,,,,,,,,,,,,,,,,,,,,,,,,,,,,,,,
,,,,,,00059,2023-10-18_12h01.31.591,vbt_B1_day2,2022.2.4,Win32,60.48509043,,,,,,,0.344444416,-0.195370356,1,0,0,0.5167,0,25,25,19,1,t,images/br_t.png,images/cb_t.png,,,,,,,,,,,,,,,,,,,,,,,,,,,,,,,,,,,,,,,,,,,,,,,
,,,,,,00059,2023-10-18_12h01.31.591,vbt_B1_day2,2022.2.4,Win32,60.48509043,,,,,,,,,,,,,,,,,,,,,0.344444416,-0.195370356,1,0,0,44.823,,,,,,,,,,,,,,,,,,,,,,,,,,,,,,,,,,,,,,,,,
,,,,,,00059,2023-10-18_12h01.31.591,vbt_B1_day2,2022.2.4,Win32,60.48509043,,,,,,,,,,,,,,,,,,,,,,,,,,,down,0,7.0139,,0.344444416,-0.195370356,1,0,0,2.2603,0,0,0,192,1,schaamte,images/br_schaamte.png,images/cb_schaamte.png,0,,,,,,,,,,,,,,,,,,,,,,
,,,,,,00059,2023-10-18_12h01.31.591,vbt_B1_day2,2022.2.4,Win32,60.48509043,,,,,,,,,,,,,,,,,,,,,,,,,,,down,0,3.4373,,0.344444416,-0.195370356,1,0,0,1.699,0,1,1,5,1,blad,images/br_blad.png,images/cb_blad.png,0,,,,,,,,,,,,,,,,,,,,,,
,,,,,,00059,2023-10-18_12h01.31.591,vbt_B1_day2,2022.2.4,Win32,60.48509043,,,,,,,,,,,,,,,,,,,,,,,,,,,down,0,10.3156,,0.344444416,-0.195370356,1,0,0,2.5993,0,2,2,131,1,opzicht,images/br_opzicht.png,images/cb_opzicht.png,0,,,,,,,,,,,,,,,,,,,,,,
,,,,,,00059,2023-10-18_12h01.31.591,vbt_B1_day2,2022.2.4,Win32,60.48509043,,,,,,,,,,,,,,,,,,,,,,,,,,,down,0,11.8643,,0.344444416,-0.195370356,1,0,0,4.3668,0,3,3,142,1,snuiven,images/br_snuiven.png,images/cb_snuiven.png,0,,,,,,,,,,,,,,,,,,,,,,
,,,,,,00059,2023-10-18_12h01.31.591,vbt_B1_day2,2022.2.4,Win32,60.48509043,,,,,,,,,,,,,,,,,,,,,,,,,,,down,0,5.3491,,0.344444416,-0.195370356,1,0,0,1.8825,0,4,4,49,1,laken,images/br_laken.png,images/cb_laken.png,0,,,,,,,,,,,,,,,,,,,,,,
,,,,,,00059,2023-10-18_12h01.31.591,vbt_B1_day2,2022.2.4,Win32,60.48509043,,,,,,,,,,,,,,,,,,,,,,,,,,,down,0,1.7836,,0.344444416,-0.195370356,1,0,0,1.8991,0,5,5,22,1,stof,images/br_stof.png,images/cb_stof.png,0,,,,,,,,,,,,,,,,,,,,,,
,,,,,,00059,2023-10-18_12h01.31.591,vbt_B1_day2,2022.2.4,Win32,60.48509043,,,,,,,,,,,,,,,,,,,,,,,,,,,down,0,0.7387,,0.344444416,-0.195370356,1,0,0,2.4656,0,6,6,13,1,kaal,images/br_kaal.png,images/cb_kaal.png,0,,,,,,,,,,,,,,,,,,,,,,
,,,,,,00059,2023-10-18_12h01.31.591,vbt_B1_day2,2022.2.4,Win32,60.48509043,,,,,,,,,,,,,,,,,,,,,,,,,,,down,0,2.2582,,0.344444416,-0.195370356,1,0,0,1.1995,0,7,7,64,1,wegen,images/br_wegen.png,images/cb_wegen.png,0,,,,,,,,,,,,,,,,,,,,,,
,,,,,,00059,2023-10-18_12h01.31.591,vbt_B1_day2,2022.2.4,Win32,60.48509043,,,,,,,,,,,,,,,,,,,,,,,,,,,down,0,7.2527,,0.344444416,-0.195370356,1,0,0,1.7659,0,8,8,158,1,innemen,images/br_innemen.png,images/cb_innemen.png,0,,,,,,,,,,,,,,,,,,,,,,
,,,,,,00059,2023-10-18_12h01.31.591,vbt_B1_day2,2022.2.4,Win32,60.48509043,,,,,,,,,,,,,,,,,,,,,,,,,,,down,0,5.6921,,0.344444416,-0.195370356,1,0,0,2.2026,0,9,9,96,1,slagen,images/br_slagen.png,images/cb_slagen.png,1,slagen,,,,,,,,,,,,,,,,,,,,,
,,,,,,00059,2023-10-18_12h01.31.591,vbt_B1_day2,2022.2.4,Win32,60.48509043,,,,,,,,,,,,,,,,,,,,,,,,,,,down,0,9.7388,,0.344444416,-0.195370356,1,0,0,1.0999,0,10,10,90,1,geluid,images/br_geluid.png,images/cb_geluid.png,0,,,,,,,,,,,,,,,,,,,,,,
,,,,,,00059,2023-10-18_12h01.31.591,vbt_B1_day2,2022.2.4,Win32,60.48509043,,,,,,,,,,,,,,,,,,,,,,,,,,,down,0,3.8671,,0.344444416,-0.195370356,1,0,0,1.4167,0,11,11,18,1,blik,images/br_blik.png,images/cb_blik.png,1,blik,,,,,,,,,,,,,,,,,,,,,
,,,,,,00059,2023-10-18_12h01.31.591,vbt_B1_day2,2022.2.4,Win32,60.48509043,,,,,,,,,,,,,,,,,,,,,,,,,,,down,0,5.5515,,0.344444416,-0.195370356,1,0,0,1.4825,0,12,12,118,1,vinger,images/br_vinger.png,images/cb_vinger.png,0,,,,,,,,,,,,,,,,,,,,,,
,,,,,,00059,2023-10-18_12h01.31.591,vbt_B1_day2,2022.2.4,Win32,60.48509043,,,,,,,,,,,,,,,,,,,,,,,,,,,down,0,3.1678,,0.344444416,-0.195370356,1,0,0,1.8992,0,13,13,186,1,voorraad,images/br_voorraad.png,images/cb_voorraad.png,0,,,,,,,,,,,,,,,,,,,,,,
,,,,,,00059,2023-10-18_12h01.31.591,vbt_B1_day2,2022.2.4,Win32,60.48509043,,,,,,,,,,,,,,,,,,,,,,,,,,,down,0,1.2604,,0.344444416,-0.195370356,1,0,0,1.5495,0,14,14,84,1,lokken,images/br_lokken.png,images/cb_lokken.png,0,,,,,,,,,,,,,,,,,,,,,,
,,,,,,00059,2023-10-18_12h01.31.591,vbt_B1_day2,2022.2.4,Win32,60.48509043,,,,,,,,,,,,,,,,,,,,,,,,,,,down,0,7.9863,,0.344444416,-0.195370356,1,0,0,1.2992,0,15,15,183,1,getuigen,images/br_getuigen.png,images/cb_getuigen.png,0,,,,,,,,,,,,,,,,,,,,,,
,,,,,,00059,2023-10-18_12h01.31.591,vbt_B1_day2,2022.2.4,Win32,60.48509043,,,,,,,,,,,,,,,,,,,,,,,,,,,down,0,4.1334,,0.344444416,-0.195370356,1,0,0,1.1997,0,16,16,43,1,klauw,images/br_klauw.png,images/cb_klauw.png,0,,,,,,,,,,,,,,,,,,,,,,
,,,,,,00059,2023-10-18_12h01.31.591,vbt_B1_day2,2022.2.4,Win32,60.48509043,,,,,,,,,,,,,,,,,,,,,,,,,,,down,0,6.8327,,0.344444416,-0.195370356,1,0,0,1.3162,0,17,17,14,1,rijp,images/br_rijp.png,images/cb_rijp.png,0,,,,,,,,,,,,,,,,,,,,,,
,,,,,,00059,2023-10-18_12h01.31.591,vbt_B1_day2,2022.2.4,Win32,60.48509043,,,,,,,,,,,,,,,,,,,,,,,,,,,down,0,9.5836,,0.344444416,-0.195370356,1,0,0,1.4331,0,18,18,182,1,bijkomen,images/br_bijkomen.png,images/cb_bijkomen.png,0,,,,,,,,,,,,,,,,,,,,,,
,,,,,,00059,2023-10-18_12h01.31.591,vbt_B1_day2,2022.2.4,Win32,60.48509043,,,,,,,,,,,,,,,,,,,,,,,,,,,down,0,9.1307,,0.344444416,-0.195370356,1,0,0,1.8,0,19,19,194,1,driemaal,images/br_driemaal.png,images/cb_driemaal.png,0,,,,,,,,,,,,,,,,,,,,,,
,,,,,,00059,2023-10-18_12h01.31.591,vbt_B1_day2,2022.2.4,Win32,60.48509043,,,,,,,,,,,,,,,,,,,,,,,,,,,down,0,3.4504,,0.344444416,-0.195370356,1,0,0,1.1325,0,20,20,3,1,mand,images/br_mand.png,images/cb_mand.png,0,,,,,,,,,,,,,,,,,,,,,,
,,,,,,00059,2023-10-18_12h01.31.591,vbt_B1_day2,2022.2.4,Win32,60.48509043,,,,,,,,,,,,,,,,,,,,,,,,,,,down,0,5.2514,,0.344444416,-0.195370356,1,0,0,1.2493,0,21,21,116,1,besmet,images/br_besmet.png,images/cb_besmet.png,0,,,,,,,,,,,,,,,,,,,,,,
,,,,,,00059,2023-10-18_12h01.31.591,vbt_B1_day2,2022.2.4,Win32,60.48509043,,,,,,,,,,,,,,,,,,,,,,,,,,,down,0,15.7147,,0.344444416,-0.195370356,1,0,0,1.3999,0,22,22,165,1,feestdag,images/br_feestdag.png,images/cb_feestdag.png,0,,,,,,,,,,,,,,,,,,,,,,
,,,,,,00059,2023-10-18_12h01.31.591,vbt_B1_day2,2022.2.4,Win32,60.48509043,,,,,,,,,,,,,,,,,,,,,,,,,,,down,0,1.9209,,0.344444416,-0.195370356,1,0,0,1.0995,0,23,23,8,1,knie,images/br_knie.png,images/cb_knie.png,0,,,,,,,,,,,,,,,,,,,,,,
,,,,,,00059,2023-10-18_12h01.31.591,vbt_B1_day2,2022.2.4,Win32,60.48509043,,,,,,,,,,,,,,,,,,,,,,,,,,,down,0,2.7248,,0.344444416,-0.195370356,1,0,0,1.2494,0,24,24,41,1,maken,images/br_maken.png,images/cb_maken.png,0,,,,,,,,,,,,,,,,,,,,,,
,,,,,,00059,2023-10-18_12h01.31.591,vbt_B1_day2,2022.2.4,Win32,60.48509043,,,,,,,,,,,,,,,,,,,,,,,,,,,down,0,3.9003,,0.344444416,-0.195370356,1,0,0,1.4826,0,25,25,72,1,strak,images/br_strak.png,images/cb_strak.png,0,,,,,,,,,,,,,,,,,,,,,,
,,,,,,00059,2023-10-18_12h01.31.591,vbt_B1_day2,2022.2.4,Win32,60.48509043,,,,,,,,,,,,,,,,,,,,,,,,,,,down,0,1.9507,,0.344444416,-0.195370356,1,0,0,0.9502,0,26,26,10,1,leek,images/br_leek.png,images/cb_leek.png,0,,,,,,,,,,,,,,,,,,,,,,
,,,,,,00059,2023-10-18_12h01.31.591,vbt_B1_day2,2022.2.4,Win32,60.48509043,,,,,,,,,,,,,,,,,,,,,,,,,,,down,0,9.2889,,0.344444416,-0.195370356,1,0,0,1.1826,0,27,27,130,1,keihard,images/br_keihard.png,images/cb_keihard.png,0,,,,,,,,,,,,,,,,,,,,,,
,,,,,,00059,2023-10-18_12h01.31.591,vbt_B1_day2,2022.2.4,Win32,60.48509043,,,,,,,,,,,,,,,,,,,,,,,,,,,down,0,0.967,,0.344444416,-0.195370356,1,0,0,1.7492,0,28,28,28,1,stal,images/br_stal.png,images/cb_stal.png,0,,,,,,,,,,,,,,,,,,,,,,
,,,,,,00059,2023-10-18_12h01.31.591,vbt_B1_day2,2022.2.4,Win32,60.48509043,,,,,,,,,,,,,,,,,,,,,,,,,,,down,0,3.0493,,0.344444416,-0.195370356,1,0,0,1.7664,0,29,29,117,1,kennis,images/br_kennis.png,images/cb_kennis.png,0,,,,,,,,,,,,,,,,,,,,,,
,,,,,,00059,2023-10-18_12h01.31.591,vbt_B1_day2,2022.2.4,Win32,60.48509043,,,,,,,,,,,,,,,,,,,,,,,,,,,down,0,9.9817,,0.344444416,-0.195370356,1,0,0,1.0324,0,30,30,168,1,bisschop,images/br_bisschop.png,images/cb_bisschop.png,0,,,,,,,,,,,,,,,,,,,,,,
,,,,,,00059,2023-10-18_12h01.31.591,vbt_B1_day2,2022.2.4,Win32,60.48509043,,,,,,,,,,,,,,,,,,,,,,,,,,,down,0,4.558,,0.344444416,-0.195370356,1,0,0,1.05,0,31,31,87,1,toeval,images/br_toeval.png,images/cb_toeval.png,0,,,,,,,,,,,,,,,,,,,,,,
,,,,,,00059,2023-10-18_12h01.31.591,vbt_B1_day2,2022.2.4,Win32,60.48509043,,,,,,,,,,,,,,,,,,,,,,,,,,,down,0,2.533,,0.344444416,-0.195370356,1,0,0,1.1335,0,32,32,45,1,piste,images/br_piste.png,images/cb_piste.png,0,,,,,,,,,,,,,,,,,,,,,,
,,,,,,00059,2023-10-18_12h01.31.591,vbt_B1_day2,2022.2.4,Win32,60.48509043,,,,,,,,,,,,,,,,,,,,,,,,,,,down,0,4.6678,,0.344444416,-0.195370356,1,0,0,0.8991,0,33,33,175,1,heengaan,images/br_heengaan.png,images/cb_heengaan.png,0,,,,,,,,,,,,,,,,,,,,,,
,,,,,,00059,2023-10-18_12h01.31.591,vbt_B1_day2,2022.2.4,Win32,60.48509043,,,,,,,,,,,,,,,,,,,,,,,,,,,down,0,7.5513,,0.344444416,-0.195370356,1,0,0,2.2994,0,34,34,189,1,aanraden,images/br_aanraden.png,images/cb_aanraden.png,0,,,,,,,,,,,,,,,,,,,,,,
,,,,,,00059,2023-10-18_12h01.31.591,vbt_B1_day2,2022.2.4,Win32,60.48509043,,,,,,,,,,,,,,,,,,,,,,,,,,,down,0,4.7733,,0.344444416,-0.195370356,1,0,0,1.366,0,35,35,184,1,aandelen,images/br_aandelen.png,images/cb_aandelen.png,0,,,,,,,,,,,,,,,,,,,,,,
,,,,,,00059,2023-10-18_12h01.31.591,vbt_B1_day2,2022.2.4,Win32,60.48509043,,,,,,,,,,,,,,,,,,,,,,,,,,,down,0,5.7158,,0.344444416,-0.195370356,1,0,0,1.3994,0,36,36,161,1,attentie,images/br_attentie.png,images/cb_attentie.png,0,,,,,,,,,,,,,,,,,,,,,,
,,,,,,00059,2023-10-18_12h01.31.591,vbt_B1_day2,2022.2.4,Win32,60.48509043,,,,,,,,,,,,,,,,,,,,,,,,,,,down,0,5.1376,,0.344444416,-0.195370356,1,0,0,1.3223,0,37,37,23,1,zout,images/br_zout.png,images/cb_zout.png,0,,,,,,,,,,,,,,,,,,,,,,
,,,,,,00059,2023-10-18_12h01.31.591,vbt_B1_day2,2022.2.4,Win32,60.48509043,,,,,,,,,,,,,,,,,,,,,,,,,,,down,0,2.8575,,0.344444416,-0.195370356,1,0,0,1.0999,0,38,38,62,1,knaap,images/br_knaap.png,images/cb_knaap.png,0,,,,,,,,,,,,,,,,,,,,,,
,,,,,,00059,2023-10-18_12h01.31.591,vbt_B1_day2,2022.2.4,Win32,60.48509043,,,,,,,,,,,,,,,,,,,,,,,,,,,down,0,1.5971,,0.344444416,-0.195370356,1,0,0,1.2995,0,39,39,112,1,lukken,images/br_lukken.png,images/cb_lukken.png,0,,,,,,,,,,,,,,,,,,,,,,
,,,,,,00059,2023-10-18_12h01.31.591,vbt_B1_day2,2022.2.4,Win32,60.48509043,,,,,,,,,,,,,,,,,,,,,,,,,,,down,0,3.8887,,0.344444416,-0.195370356,1,0,0,1.5482,0,40,40,132,1,grappen,images/br_grappen.png,images/cb_grappen.png,0,,,,,,,,,,,,,,,,,,,,,,
,,,,,,00059,2023-10-18_12h01.31.591,vbt_B1_day2,2022.2.4,Win32,60.48509043,,,,,,,,,,,,,,,,,,,,,,,,,,,down,0,4.4735,,0.344444416,-0.195370356,1,0,0,1.4323,0,41,41,70,1,ijdel,images/br_ijdel.png,images/cb_ijdel.png,0,,,,,,,,,,,,,,,,,,,,,,
,,,,,,00059,2023-10-18_12h01.31.591,vbt_B1_day2,2022.2.4,Win32,60.48509043,,,,,,,,,,,,,,,,,,,,,,,,,,,down,0,1.7335,,0.344444416,-0.195370356,1,0,0,1.0827,0,42,42,65,1,parel,images/br_parel.png,images/cb_parel.png,0,,,,,,,,,,,,,,,,,,,,,,
,,,,,,00059,2023-10-18_12h01.31.591,vbt_B1_day2,2022.2.4,Win32,60.48509043,,,,,,,,,,,,,,,,,,,,,,,,,,,down,0,5.1238,,0.344444416,-0.195370356,1,0,0,2.301,0,43,43,86,1,woning,images/br_woning.png,images/cb_woning.png,0,,,,,,,,,,,,,,,,,,,,,,
,,,,,,00059,2023-10-18_12h01.31.591,vbt_B1_day2,2022.2.4,Win32,60.48509043,,,,,,,,,,,,,,,,,,,,,,,,,,,down,0,4.5495,,0.344444416,-0.195370356,1,0,0,1.1327,0,44,44,37,1,mijn,images/br_mijn.png,images/cb_mijn.png,0,,,,,,,,,,,,,,,,,,,,,,
,,,,,,00059,2023-10-18_12h01.31.591,vbt_B1_day2,2022.2.4,Win32,60.48509043,,,,,,,,,,,,,,,,,,,,,,,,,,,down,0,5.2668,,0.344444416,-0.195370356,1,0,0,1.6329,0,45,45,121,1,twijfel,images/br_twijfel.png,images/cb_twijfel.png,0,,,,,,,,,,,,,,,,,,,,,,
,,,,,,00059,2023-10-18_12h01.31.591,vbt_B1_day2,2022.2.4,Win32,60.48509043,,,,,,,,,,,,,,,,,,,,,,,,,,,down,0,5.6551,,0.344444416,-0.195370356,1,0,0,1.2158,0,46,46,157,1,uitlaat,images/br_uitlaat.png,images/cb_uitlaat.png,0,,,,,,,,,,,,,,,,,,,,,,
,,,,,,00059,2023-10-18_12h01.31.591,vbt_B1_day2,2022.2.4,Win32,60.48509043,,,,,,,,,,,,,,,,,,,,,,,,,,,down,0,4.8662,,0.344444416,-0.195370356,1,0,0,1.3836,0,47,47,169,1,oprotten,images/br_oprotten.png,images/cb_oprotten.png,0,,,,,,,,,,,,,,,,,,,,,,
,,,,,,00059,2023-10-18_12h01.31.591,vbt_B1_day2,2022.2.4,Win32,60.48509043,,,,,,,,,,,,,,,,,,,,,,,,,,,down,0,3.5407,,0.344444416,-0.195370356,1,0,0,1.1998,0,48,48,80,1,kanjer,images/br_kanjer.png,images/cb_kanjer.png,0,,,,,,,,,,,,,,,,,,,,,,
,,,,,,00059,2023-10-18_12h01.31.591,vbt_B1_day2,2022.2.4,Win32,60.48509043,,,,,,,,,,,,,,,,,,,,,,,,,,,down,0,4.0001,,0.344444416,-0.195370356,1,0,0,0.8992,0,49,49,152,1,afnemen,images/br_afnemen.png,images/cb_afnemen.png,0,,,,,,,,,,,,,,,,,,,,,,
,,,,,,00059,2023-10-18_12h01.31.591,vbt_B1_day2,2022.2.4,Win32,60.48509043,,,,,,,,,,,,,,,,,,,,,,,,,,,down,0,3.4988,,0.344444416,-0.195370356,1,0,0,1.383,0,50,50,106,1,zingen,images/br_zingen.png,images/cb_zingen.png,0,,,,,,,,,,,,,,,,,,,,,,
,,,,,,00059,2023-10-18_12h01.31.591,vbt_B1_day2,2022.2.4,Win32,60.48509043,,,,,,,,,,,,,,,,,,,,,,,,,,,down,0,4.3018,,0.344444416,-0.195370356,1,0,0,1.2405,0,51,51,141,1,knielen,images/br_knielen.png,images/cb_knielen.png,0,,,,,,,,,,,,,,,,,,,,,,
,,,,,,00059,2023-10-18_12h01.31.591,vbt_B1_day2,2022.2.4,Win32,60.48509043,,,,,,,,,,,,,,,,,,,,,,,,,,,down,0,3.1384,,0.344444416,-0.195370356,1,0,0,0.8995,0,52,52,115,1,kleren,images/br_kleren.png,images/cb_kleren.png,0,,,,,,,,,,,,,,,,,,,,,,
,,,,,,00059,2023-10-18_12h01.31.591,vbt_B1_day2,2022.2.4,Win32,60.48509043,,,,,,,,,,,,,,,,,,,,,,,,,,,down,0,5.1723,,0.344444416,-0.195370356,1,0,0,1.4496,0,53,53,129,1,verhaal,images/br_verhaal.png,images/cb_verhaal.png,0,,,,,,,,,,,,,,,,,,,,,,
,,,,,,00059,2023-10-18_12h01.31.591,vbt_B1_day2,2022.2.4,Win32,60.48509043,,,,,,,,,,,,,,,,,,,,,,,,,,,down,0,2.8177,,0.344444416,-0.195370356,1,0,0,0.7495,0,54,54,89,1,slapen,images/br_slapen.png,images/cb_slapen.png,0,,,,,,,,,,,,,,,,,,,,,,
,,,,,,00059,2023-10-18_12h01.31.591,vbt_B1_day2,2022.2.4,Win32,60.48509043,,,,,,,,,,,,,,,,,,,,,,,,,,,down,0,3.1513,,0.344444416,-0.195370356,1,0,0,3.9164,0,55,55,75,1,snoep,images/br_snoep.png,images/cb_snoep.png,0,,,,,,,,,,,,,,,,,,,,,,
,,,,,,00059,2023-10-18_12h01.31.591,vbt_B1_day2,2022.2.4,Win32,60.48509043,,,,,,,,,,,,,,,,,,,,,,,,,,,down,0,0.6006,,0.344444416,-0.195370356,1,0,0,1.1496,0,56,56,36,1,vuur,images/br_vuur.png,images/cb_vuur.png,0,,,,,,,,,,,,,,,,,,,,,,
,,,,,,00059,2023-10-18_12h01.31.591,vbt_B1_day2,2022.2.4,Win32,60.48509043,,,,,,,,,,,,,,,,,,,,,,,,,,,down,0,0.3387,,0.344444416,-0.195370356,1,0,0,1.233,0,57,57,0,1,slak,images/br_slak.png,images/cb_slak.png,0,,,,,,,,,,,,,,,,,,,,,,
,,,,,,00059,2023-10-18_12h01.31.591,vbt_B1_day2,2022.2.4,Win32,60.48509043,,,,,,,,,,,,,,,,,,,,,,,,,,,down,0,4.5497,,0.344444416,-0.195370356,1,0,0,1.7167,0,58,58,109,1,totaal,images/br_totaal.png,images/cb_totaal.png,0,,,,,,,,,,,,,,,,,,,,,,
,,,,,,00059,2023-10-18_12h01.31.591,vbt_B1_day2,2022.2.4,Win32,60.48509043,,,,,,,,,,,,,,,,,,,,,,,,,,,down,0,8.7821,,0.344444416,-0.195370356,1,0,0,1.0153,0,59,59,185,1,mijnheer,images/br_mijnheer.png,images/cb_mijnheer.png,0,,,,,,,,,,,,,,,,,,,,,,
,,,,,,00059,2023-10-18_12h01.31.591,vbt_B1_day2,2022.2.4,Win32,60.48509043,,,,,,,,,,,,,,,,,,,,,,,,,,,down,0,7.2823,,0.344444416,-0.195370356,1,0,0,1.0831,0,60,60,149,1,redding,images/br_redding.png,images/cb_redding.png,0,,,,,,,,,,,,,,,,,,,,,,
,,,,,,00059,2023-10-18_12h01.31.591,vbt_B1_day2,2022.2.4,Win32,60.48509043,,,,,,,,,,,,,,,,,,,,,,,,,,,down,0,5.8991,,0.344444416,-0.195370356,1,0,0,0.7661,0,61,61,69,1,waken,images/br_waken.png,images/cb_waken.png,0,,,,,,,,,,,,,,,,,,,,,,
,,,,,,00059,2023-10-18_12h01.31.591,vbt_B1_day2,2022.2.4,Win32,60.48509043,,,,,,,,,,,,,,,,,,,,,,,,,,,down,0,4.5596,,0.344444416,-0.195370356,1,0,0,5.4318,0,62,62,85,1,heilig,images/br_heilig.png,images/cb_heilig.png,0,,,,,,,,,,,,,,,,,,,,,,
,,,,,,00059,2023-10-18_12h01.31.591,vbt_B1_day2,2022.2.4,Win32,60.48509043,,,,,,,,,,,,,,,,,,,,,,,,,,,down,0,5.0823,,0.344444416,-0.195370356,1,0,0,0.9495,0,63,63,74,1,graaf,images/br_graaf.png,images/cb_graaf.png,0,,,,,,,,,,,,,,,,,,,,,,
,,,,,,00059,2023-10-18_12h01.31.591,vbt_B1_day2,2022.2.4,Win32,60.48509043,,,,,,,,,,,,,,,,,,,,,,,,,,,down,0,1.5715,,0.344444416,-0.194444444,1,0,0,1.5159,0,64,64,35,1,lust,images/br_lust.png,images/cb_lust.png,0,,,,,,,,,,,,,,,,,,,,,,
,,,,,,00059,2023-10-18_12h01.31.591,vbt_B1_day2,2022.2.4,Win32,60.48509043,,,,,,,,,,,,,,,,,,,,,,,,,,,down,0,7.2737,,0.344444416,-0.194444444,1,0,0,1.5831,0,65,65,88,1,boeien,images/br_boeien.png,images/cb_boeien.png,0,,,,,,,,,,,,,,,,,,,,,,
,,,,,,00059,2023-10-18_12h01.31.591,vbt_B1_day2,2022.2.4,Win32,60.48509043,,,,,,,,,,,,,,,,,,,,,,,,,,,down,0,4.6994,,0.344444416,-0.194444444,1,0,0,2.7652,0,66,66,139,1,stiekem,images/br_stiekem.png,images/cb_stiekem.png,1,stiekem,,,,,,,,,,,,,,,,,,,,,
,,,,,,00059,2023-10-18_12h01.31.591,vbt_B1_day2,2022.2.4,Win32,60.48509043,,,,,,,,,,,,,,,,,,,,,,,,,,,down,0,9.2989,,0.344444416,-0.194444444,1,0,0,0.8159,0,67,67,153,1,vervoer,images/br_vervoer.png,images/cb_vervoer.png,0,,,,,,,,,,,,,,,,,,,,,,
,,,,,,00059,2023-10-18_12h01.31.591,vbt_B1_day2,2022.2.4,Win32,60.48509043,,,,,,,,,,,,,,,,,,,,,,,,,,,down,0,4.2166,,0.344444416,-0.194444444,1,0,0,0.9663,0,68,68,83,1,mening,images/br_mening.png,images/cb_mening.png,0,,,,,,,,,,,,,,,,,,,,,,
,,,,,,00059,2023-10-18_12h01.31.591,vbt_B1_day2,2022.2.4,Win32,60.48509043,,,,,,,,,,,,,,,,,,,,,,,,,,,down,0,3.0837,,0.344444416,-0.194444444,1,0,0,0.8228,0,69,69,122,1,waarvan,images/br_waarvan.png,images/cb_waarvan.png,0,,,,,,,,,,,,,,,,,,,,,,
,,,,,,00059,2023-10-18_12h01.31.591,vbt_B1_day2,2022.2.4,Win32,60.48509043,,,,,,,,,,,,,,,,,,,,,,,,,,,down,0,4.7063,,0.344444416,-0.194444444,1,0,0,0.8155,0,70,70,140,1,blijven,images/br_blijven.png,images/cb_blijven.png,0,,,,,,,,,,,,,,,,,,,,,,
,,,,,,00059,2023-10-18_12h01.31.591,vbt_B1_day2,2022.2.4,Win32,60.48509043,,,,,,,,,,,,,,,,,,,,,,,,,,,down,0,3.5,,0.344444416,-0.194444444,1,0,0,0.8529,0,71,71,63,1,flirt,images/br_flirt.png,images/cb_flirt.png,0,,,,,,,,,,,,,,,,,,,,,,
,,,,,,00059,2023-10-18_12h01.31.591,vbt_B1_day2,2022.2.4,Win32,60.48509043,,,,,,,,,,,,,,,,,,,,,,,,,,,down,0,3.8672,,0.344444416,-0.194444444,1,0,0,0.8665,0,72,72,105,1,wijlen,images/br_wijlen.png,images/cb_wijlen.png,0,,,,,,,,,,,,,,,,,,,,,,
,,,,,,00059,2023-10-18_12h01.31.591,vbt_B1_day2,2022.2.4,Win32,60.48509043,,,,,,,,,,,,,,,,,,,,,,,,,,,down,0,2.601,,0.344444416,-0.194444444,1,0,0,0.8828,0,73,73,40,1,schep,images/br_schep.png,images/cb_schep.png,0,,,,,,,,,,,,,,,,,,,,,,
,,,,,,00059,2023-10-18_12h01.31.591,vbt_B1_day2,2022.2.4,Win32,60.48509043,,,,,,,,,,,,,,,,,,,,,,,,,,,down,0,5.4496,,0.287962949,-0.138888889,1,0,0,6.2498,0,74,74,190,1,goedkoop,images/br_goedkoop.png,images/cb_goedkoop.png,0,,,,,,,,,,,,,,,,,,,,,,
,,,,,,00059,2023-10-18_12h01.31.591,vbt_B1_day2,2022.2.4,Win32,60.48509043,,,,,,,,,,,,,,,,,,,,,,,,,,,down,0,4.0564,,0.287962949,-0.138888889,1,0,0,0.9496,0,75,75,154,1,aflopen,images/br_aflopen.png,images/cb_aflopen.png,0,,,,,,,,,,,,,,,,,,,,,,
,,,,,,00059,2023-10-18_12h01.31.591,vbt_B1_day2,2022.2.4,Win32,60.48509043,,,,,,,,,,,,,,,,,,,,,,,,,,,down,0,1.0671,,0.287962949,-0.138888889,1,0,0,0.7333,0,76,76,48,1,steel,images/br_steel.png,images/cb_steel.png,0,,,,,,,,,,,,,,,,,,,,,,
,,,,,,00059,2023-10-18_12h01.31.591,vbt_B1_day2,2022.2.4,Win32,60.48509043,,,,,,,,,,,,,,,,,,,,,,,,,,,down,0,9.3137,,0.287962949,-0.138888889,1,0,0,1.3497,0,77,77,176,1,techniek,images/br_techniek.png,images/cb_techniek.png,1,techniek,,,,,,,,,,,,,,,,,,,,,
,,,,,,00059,2023-10-18_12h01.31.591,vbt_B1_day2,2022.2.4,Win32,60.48509043,,,,,,,,,,,,,,,,,,,,,,,,,,,down,0,3.2513,,0.287962949,-0.138888889,1,0,0,1.0489,0,78,78,25,1,plek,images/br_plek.png,images/cb_plek.png,0,,,,,,,,,,,,,,,,,,,,,,
,,,,,,00059,2023-10-18_12h01.31.591,vbt_B1_day2,2022.2.4,Win32,60.48509043,,,,,,,,,,,,,,,,,,,,,,,,,,,down,0,4.8834,,0.287962949,-0.138888889,1,0,0,1.1998,0,79,79,61,1,groen,images/br_groen.png,images/cb_groen.png,0,,,,,,,,,,,,,,,,,,,,,,
,,,,,,00059,2023-10-18_12h01.31.591,vbt_B1_day2,2022.2.4,Win32,60.48509043,,,,,,,,,,,,,,,,,,,,,,,,,,,down,0,1.3009,,0.287962949,-0.138888889,1,0,0,1.033,0,80,80,29,1,baas,images/br_baas.png,images/cb_baas.png,0,,,,,,,,,,,,,,,,,,,,,,
,,,,,,00059,2023-10-18_12h01.31.591,vbt_B1_day2,2022.2.4,Win32,60.48509043,,,,,,,,,,,,,,,,,,,,,,,,,,,down,0,5.9249,,0.287962949,-0.138888889,1,0,0,1.0333,0,81,81,143,1,hechten,images/br_hechten.png,images/cb_hechten.png,0,,,,,,,,,,,,,,,,,,,,,,
,,,,,,00059,2023-10-18_12h01.31.591,vbt_B1_day2,2022.2.4,Win32,60.48509043,,,,,,,,,,,,,,,,,,,,,,,,,,,down,0,4.6717,,0.287962949,-0.138888889,1,0,0,4.0157,0,82,82,181,1,toegeven,images/br_toegeven.png,images/cb_toegeven.png,0,,,,,,,,,,,,,,,,,,,,,,
,,,,,,00059,2023-10-18_12h01.31.591,vbt_B1_day2,2022.2.4,Win32,60.48509043,,,,,,,,,,,,,,,,,,,,,,,,,,,down,0,4.2987,,0.287962949,-0.138888889,1,0,0,1.1663,0,83,83,52,1,wagon,images/br_wagon.png,images/cb_wagon.png,0,,,,,,,,,,,,,,,,,,,,,,
,,,,,,00059,2023-10-18_12h01.31.591,vbt_B1_day2,2022.2.4,Win32,60.48509043,,,,,,,,,,,,,,,,,,,,,,,,,,,down,0,3.9872,,0.287962949,-0.138888889,1,0,0,1.0495,0,84,84,126,1,kasteel,images/br_kasteel.png,images/cb_kasteel.png,0,,,,,,,,,,,,,,,,,,,,,,
,,,,,,00059,2023-10-18_12h01.31.591,vbt_B1_day2,2022.2.4,Win32,60.48509043,,,,,,,,,,,,,,,,,,,,,,,,,,,down,0,2.1875,,0.287962949,-0.138888889,1,0,0,0.9332,0,85,85,148,1,smullen,images/br_smullen.png,images/cb_smullen.png,0,,,,,,,,,,,,,,,,,,,,,,
,,,,,,00059,2023-10-18_12h01.31.591,vbt_B1_day2,2022.2.4,Win32,60.48509043,,,,,,,,,,,,,,,,,,,,,,,,,,,down,0,4.4018,,0.287962949,-0.138888889,1,0,0,0.8995,0,86,86,151,1,aanzoek,images/br_aanzoek.png,images/cb_aanzoek.png,0,,,,,,,,,,,,,,,,,,,,,,
,,,,,,00059,2023-10-18_12h01.31.591,vbt_B1_day2,2022.2.4,Win32,60.48509043,,,,,,,,,,,,,,,,,,,,,,,,,,,down,0,2.5885,,0.287962949,-0.138888889,1,0,0,1.0997,0,87,87,60,1,jasje,images/br_jasje.png,images/cb_jasje.png,0,,,,,,,,,,,,,,,,,,,,,,
,,,,,,00059,2023-10-18_12h01.31.591,vbt_B1_day2,2022.2.4,Win32,60.48509043,,,,,,,,,,,,,,,,,,,,,,,,,,,down,0,8.7641,,0.287962949,-0.136111153,1,0,0,2.1998,0,88,88,26,1,leuk,images/br_leuk.png,images/cb_leuk.png,0,,,,,,,,,,,,,,,,,,,,,,
,,,,,,00059,2023-10-18_12h01.31.591,vbt_B1_day2,2022.2.4,Win32,60.48509043,,,,,,,,,,,,,,,,,,,,,,,,,,,down,0,8.5326,,0.287962949,-0.136111153,1,0,0,0.9326,0,89,89,177,1,maaltijd,images/br_maaltijd.png,images/cb_maaltijd.png,1,maaltijd,,,,,,,,,,,,,,,,,,,,,
,,,,,,00059,2023-10-18_12h01.31.591,vbt_B1_day2,2022.2.4,Win32,60.48509043,,,,,,,,,,,,,,,,,,,,,,,,,,,down,0,7.6331,,0.287962949,-0.136111153,1,0,0,0.7318,0,90,90,187,1,opkijken,images/br_opkijken.png,images/cb_opkijken.png,0,,,,,,,,,,,,,,,,,,,,,,
,,,,,,00059,2023-10-18_12h01.31.591,vbt_B1_day2,2022.2.4,Win32,60.48509043,,,,,,,,,,,,,,,,,,,,,,,,,,,down,0,3.6255,,0.287962949,-0.136111153,1,0,0,1.4155,0,91,91,24,1,jurk,images/br_jurk.png,images/cb_jurk.png,0,,,,,,,,,,,,,,,,,,,,,,
,,,,,,00059,2023-10-18_12h01.31.591,vbt_B1_day2,2022.2.4,Win32,60.48509043,,,,,,,,,,,,,,,,,,,,,,,,,,,down,0,2.4843,,0.287962949,-0.136111153,1,0,0,1.0988,0,92,92,81,1,dubbel,images/br_dubbel.png,images/cb_dubbel.png,0,,,,,,,,,,,,,,,,,,,,,,
,,,,,,00059,2023-10-18_12h01.31.591,vbt_B1_day2,2022.2.4,Win32,60.48509043,,,,,,,,,,,,,,,,,,,,,,,,,,,down,0,10.1168,,0.287962949,-0.136111153,1,0,0,0.7662,0,93,93,92,1,geheim,images/br_geheim.png,images/cb_geheim.png,0,,,,,,,,,,,,,,,,,,,,,,
,,,,,,00059,2023-10-18_12h01.31.591,vbt_B1_day2,2022.2.4,Win32,60.48509043,,,,,,,,,,,,,,,,,,,,,,,,,,,down,0,6.1126,,0.287962949,-0.136111153,1,0,0,1.1829,0,94,94,137,1,trekker,images/br_trekker.png,images/cb_trekker.png,1,trekker,,,,,,,,,,,,,,,,,,,,,
,,,,,,00059,2023-10-18_12h01.31.591,vbt_B1_day2,2022.2.4,Win32,60.48509043,,,,,,,,,,,,,,,,,,,,,,,,,,,down,0,1.7942,,0.287962949,-0.136111153,1,0,0,0.9993,0,95,95,17,1,taal,images/br_taal.png,images/cb_taal.png,1,taal,,,,,,,,,,,,,,,,,,,,,
,,,,,,00059,2023-10-18_12h01.31.591,vbt_B1_day2,2022.2.4,Win32,60.48509043,,,,,,,,,,,,,,,,,,,,,,,,,,,down,0,3.6878,,0.287962949,-0.136111153,1,0,0,0.7836,0,96,96,124,1,bloeien,images/br_bloeien.png,images/cb_bloeien.png,0,,,,,,,,,,,,,,,,,,,,,,
,,,,,,00059,2023-10-18_12h01.31.591,vbt_B1_day2,2022.2.4,Win32,60.48509043,,,,,,,,,,,,,,,,,,,,,,,,,,,down,0,1.4352,,0.287962949,-0.136111153,1,0,0,0.899,0,97,97,38,1,baai,images/br_baai.png,images/cb_baai.png,0,,,,,,,,,,,,,,,,,,,,,,
,,,,,,00059,2023-10-18_12h01.31.591,vbt_B1_day2,2022.2.4,Win32,60.48509043,,,,,,,,,,,,,,,,,,,,,,,,,,,down,0,2.4398,,0.287962949,-0.136111153,1,0,0,0.5841,0,98,98,103,1,joggen,images/br_joggen.png,images/cb_joggen.png,0,,,,,,,,,,,,,,,,,,,,,,
,,,,,,00059,2023-10-18_12h01.31.591,vbt_B1_day2,2022.2.4,Win32,60.48509043,,,,,,,,,,,,,,,,,,,,,,,,,,,down,0,2.7553,,0.287962949,-0.136111153,1,0,0,0.9986,0,99,99,54,1,gebit,images/br_gebit.png,images/cb_gebit.png,0,,,,,,,,,,,,,,,,,,,,,,
,,,,,,00059,2023-10-18_12h01.31.591,vbt_B1_day2,2022.2.4,Win32,60.48509043,,,,,,,,,,,,,,,,,,,,,,,,,,,down,0,2.583,,0.287962949,-0.136111153,1,0,0,0.816,0,100,100,93,1,waarop,images/br_waarop.png,images/cb_waarop.png,0,,,,,,,,,,,,,,,,,,,,,,
,,,,,,00059,2023-10-18_12h01.31.591,vbt_B1_day2,2022.2.4,Win32,60.48509043,,,,,,,,,,,,,,,,,,,,,,,,,,,down,0,4.2652,,0.287962949,-0.136111153,1,0,0,2.299,0,101,101,15,1,soda,images/br_soda.png,images/cb_soda.png,0,,,,,,,,,,,,,,,,,,,,,,
,,,,,,00059,2023-10-18_12h01.31.591,vbt_B1_day2,2022.2.4,Win32,60.48509043,,,,,,,,,,,,,,,,,,,,,,,,,,,down,0,2.3225,,0.287962949,-0.136111153,1,0,0,1.1669,0,102,102,53,1,baron,images/br_baron.png,images/cb_baron.png,0,,,,,,,,,,,,,,,,,,,,,,
,,,,,,00059,2023-10-18_12h01.31.591,vbt_B1_day2,2022.2.4,Win32,60.48509043,,,,,,,,,,,,,,,,,,,,,,,,,,,down,0,2.3169,,0.287962949,-0.136111153,1,0,0,0.7329,0,103,103,34,1,vorm,images/br_vorm.png,images/cb_vorm.png,0,,,,,,,,,,,,,,,,,,,,,,
,,,,,,00059,2023-10-18_12h01.31.591,vbt_B1_day2,2022.2.4,Win32,60.48509043,,,,,,,,,,,,,,,,,,,,,,,,,,,down,0,1.0575,,0.287962949,-0.136111153,1,0,0,0.9565,0,104,104,66,1,lever,images/br_lever.png,images/cb_lever.png,0,,,,,,,,,,,,,,,,,,,,,,
,,,,,,00059,2023-10-18_12h01.31.591,vbt_B1_day2,2022.2.4,Win32,60.48509043,,,,,,,,,,,,,,,,,,,,,,,,,,,down,0,1.804,,0.287962949,-0.136111153,1,0,0,1.0999,0,105,105,1,1,zaal,images/br_zaal.png,images/cb_zaal.png,0,,,,,,,,,,,,,,,,,,,,,,
,,,,,,00059,2023-10-18_12h01.31.591,vbt_B1_day2,2022.2.4,Win32,60.48509043,,,,,,,,,,,,,,,,,,,,,,,,,,,down,0,2.9382,,0.287962949,-0.136111153,1,0,0,1.0503,0,106,106,102,1,legaal,images/br_legaal.png,images/cb_legaal.png,0,,,,,,,,,,,,,,,,,,,,,,
,,,,,,00059,2023-10-18_12h01.31.591,vbt_B1_day2,2022.2.4,Win32,60.48509043,,,,,,,,,,,,,,,,,,,,,,,,,,,down,0,3.5328,,0.287962949,-0.136111153,1,0,0,1.0324,0,107,107,32,1,palm,images/br_palm.png,images/cb_palm.png,0,,,,,,,,,,,,,,,,,,,,,,
,,,,,,00059,2023-10-18_12h01.31.591,vbt_B1_day2,2022.2.4,Win32,60.48509043,,,,,,,,,,,,,,,,,,,,,,,,,,,down,0,1.301,,0.287962949,-0.136111153,1,0,0,0.9661,0,108,108,20,1,site,images/br_site.png,images/cb_site.png,0,,,,,,,,,,,,,,,,,,,,,,
,,,,,,00059,2023-10-18_12h01.31.591,vbt_B1_day2,2022.2.4,Win32,60.48509043,,,,,,,,,,,,,,,,,,,,,,,,,,,down,0,1.1437,,0.287962949,-0.136111153,1,0,0,2.9154,0,109,109,6,1,diep,images/br_diep.png,images/cb_diep.png,0,,,,,,,,,,,,,,,,,,,,,,
,,,,,,00059,2023-10-18_12h01.31.591,vbt_B1_day2,2022.2.4,Win32,60.48509043,,,,,,,,,,,,,,,,,,,,,,,,,,,down,0,1.6914,,0.287962949,-0.136111153,1,0,0,0.9663,0,110,110,73,1,volop,images/br_volop.png,images/cb_volop.png,0,,,,,,,,,,,,,,,,,,,,,,
,,,,,,00059,2023-10-18_12h01.31.591,vbt_B1_day2,2022.2.4,Win32,60.48509043,,,,,,,,,,,,,,,,,,,,,,,,,,,down,0,4.1012,,0.287962949,-0.136111153,1,0,0,1.0161,0,111,111,172,1,weigeren,images/br_weigeren.png,images/cb_weigeren.png,0,,,,,,,,,,,,,,,,,,,,,,
,,,,,,00059,2023-10-18_12h01.31.591,vbt_B1_day2,2022.2.4,Win32,60.48509043,,,,,,,,,,,,,,,,,,,,,,,,,,,down,0,4.905,,0.287962949,-0.136111153,1,0,0,0.8406,0,112,112,59,1,kring,images/br_kring.png,images/cb_kring.png,1,kring,,,,,,,,,,,,,,,,,,,,,
,,,,,,00059,2023-10-18_12h01.31.591,vbt_B1_day2,2022.2.4,Win32,60.48509043,,,,,,,,,,,,,,,,,,,,,,,,,,,down,0,5.5152,,0.287962949,-0.136111153,1,0,0,0.816,0,113,113,163,1,schuilen,images/br_schuilen.png,images/cb_schuilen.png,0,,,,,,,,,,,,,,,,,,,,,,
,,,,,,00059,2023-10-18_12h01.31.591,vbt_B1_day2,2022.2.4,Win32,60.48509043,,,,,,,,,,,,,,,,,,,,,,,,,,,down,0,3.8163,,0.287962949,-0.136111153,1,0,0,1.2992,0,114,114,173,1,apparaat,images/br_apparaat.png,images/cb_apparaat.png,0,,,,,,,,,,,,,,,,,,,,,,
,,,,,,00059,2023-10-18_12h01.31.591,vbt_B1_day2,2022.2.4,Win32,60.48509043,,,,,,,,,,,,,,,,,,,,,,,,,,,down,0,3.0069,,0.287962949,-0.136111153,1,0,0,1.0336,0,115,115,16,1,ziek,images/br_ziek.png,images/cb_ziek.png,1,ziek,,,,,,,,,,,,,,,,,,,,,
,,,,,,00059,2023-10-18_12h01.31.591,vbt_B1_day2,2022.2.4,Win32,60.48509043,,,,,,,,,,,,,,,,,,,,,,,,,,,down,0,4.0655,,0.287962949,-0.136111153,1,0,0,1.1431,0,116,116,166,1,strikken,images/br_strikken.png,images/cb_strikken.png,0,,,,,,,,,,,,,,,,,,,,,,
,,,,,,00059,2023-10-18_12h01.31.591,vbt_B1_day2,2022.2.4,Win32,60.48509043,,,,,,,,,,,,,,,,,,,,,,,,,,,down,0,8.675,,0.287962949,-0.136111153,1,0,0,1.6144,0,117,117,178,1,huisdier,images/br_huisdier.png,images/cb_huisdier.png,1,huisdier,,,,,,,,,,,,,,,,,,,,,
,,,,,,00059,2023-10-18_12h01.31.591,vbt_B1_day2,2022.2.4,Win32,60.48509043,,,,,,,,,,,,,,,,,,,,,,,,,,,down,0,2.5509,,0.287962949,-0.136111153,1,0,0,1.2325,0,118,118,46,1,jagen,images/br_jagen.png,images/cb_jagen.png,0,,,,,,,,,,,,,,,,,,,,,,
,,,,,,00059,2023-10-18_12h01.31.591,vbt_B1_day2,2022.2.4,Win32,60.48509043,,,,,,,,,,,,,,,,,,,,,,,,,,,down,0,1.4351,,0.287962949,-0.136111153,1,0,0,1.0389,0,119,119,42,1,bleek,images/br_bleek.png,images/cb_bleek.png,0,,,,,,,,,,,,,,,,,,,,,,
,,,,,,00059,2023-10-18_12h01.31.591,vbt_B1_day2,2022.2.4,Win32,60.48509043,,,,,,,,,,,,,,,,,,,,,,,,,,,down,0,3.4547,,0.287962949,-0.136111153,1,0,0,0.8985,0,120,120,110,1,zuster,images/br_zuster.png,images/cb_zuster.png,0,,,,,,,,,,,,,,,,,,,,,,
,,,,,,00059,2023-10-18_12h01.31.591,vbt_B1_day2,2022.2.4,Win32,60.48509043,,,,,,,,,,,,,,,,,,,,,,,,,,,down,0,2.7752,,0.287962949,-0.136111153,1,0,0,0.9504,0,121,121,31,1,poes,images/br_poes.png,images/cb_poes.png,0,,,,,,,,,,,,,,,,,,,,,,
,,,,,,00059,2023-10-18_12h01.31.591,vbt_B1_day2,2022.2.4,Win32,60.48509043,,,,,,,,,,,,,,,,,,,,,,,,,,,down,0,5.3986,,0.287962949,-0.136111153,1,0,0,0.6998,0,122,122,196,1,nakijken,images/br_nakijken.png,images/cb_nakijken.png,0,,,,,,,,,,,,,,,,,,,,,,
,,,,,,00059,2023-10-18_12h01.31.591,vbt_B1_day2,2022.2.4,Win32,60.48509043,,,,,,,,,,,,,,,,,,,,,,,,,,,down,0,3.1402,,0.287962949,-0.136111153,1,0,0,1.0004,0,123,123,58,1,tekst,images/br_tekst.png,images/cb_tekst.png,1,tekst,,,,,,,,,,,,,,,,,,,,,
,,,,,,00059,2023-10-18_12h01.31.591,vbt_B1_day2,2022.2.4,Win32,60.48509043,,,,,,,,,,,,,,,,,,,,,,,,,,,down,0,3.5332,,0.287962949,-0.136111153,1,0,0,0.9155,0,124,124,125,1,aanzien,images/br_aanzien.png,images/cb_aanzien.png,0,,,,,,,,,,,,,,,,,,,,,,
,,,,,,00059,2023-10-18_12h01.31.591,vbt_B1_day2,2022.2.4,Win32,60.48509043,,,,,,,,,,,,,,,,,,,,,,,,,,,down,0,5.7817,,0.287962949,-0.136111153,1,0,0,1.7495,0,125,125,9,1,hier,images/br_hier.png,images/cb_hier.png,0,,,,,,,,,,,,,,,,,,,,,,
,,,,,,00059,2023-10-18_12h01.31.591,vbt_B1_day2,2022.2.4,Win32,60.48509043,,,,,,,,,,,,,,,,,,,,,,,,,,,down,0,2.553,,0.287962949,-0.136111153,1,0,0,1.0501,0,126,126,128,1,prikken,images/br_prikken.png,images/cb_prikken.png,0,,,,,,,,,,,,,,,,,,,,,,
,,,,,,00059,2023-10-18_12h01.31.591,vbt_B1_day2,2022.2.4,Win32,60.48509043,,,,,,,,,,,,,,,,,,,,,,,,,,,down,0,6.6831,,0.287962949,-0.136111153,1,0,0,1.5499,0,127,127,167,1,eenhoorn,images/br_eenhoorn.png,images/cb_eenhoorn.png,0,,,,,,,,,,,,,,,,,,,,,,
,,,,,,00059,2023-10-18_12h01.31.591,vbt_B1_day2,2022.2.4,Win32,60.48509043,,,,,,,,,,,,,,,,,,,,,,,,,,,down,0,1.518,,0.287962949,-0.136111153,1,0,0,0.7831,0,128,128,55,1,praat,images/br_praat.png,images/cb_praat.png,0,,,,,,,,,,,,,,,,,,,,,,
,,,,,,00059,2023-10-18_12h01.31.591,vbt_B1_day2,2022.2.4,Win32,60.48509043,,,,,,,,,,,,,,,,,,,,,,,,,,,down,0,5.7163,,0.287962949,-0.136111153,1,0,0,0.8497,0,129,129,155,1,gerucht,images/br_gerucht.png,images/cb_gerucht.png,0,,,,,,,,,,,,,,,,,,,,,,
,,,,,,00059,2023-10-18_12h01.31.591,vbt_B1_day2,2022.2.4,Win32,60.48509043,,,,,,,,,,,,,,,,,,,,,,,,,,,down,0,3.9167,,0.287962949,-0.136111153,1,0,0,0.9006,0,130,130,195,1,middelen,images/br_middelen.png,images/cb_middelen.png,0,,,,,,,,,,,,,,,,,,,,,,
,,,,,,00059,2023-10-18_12h01.31.591,vbt_B1_day2,2022.2.4,Win32,60.48509043,,,,,,,,,,,,,,,,,,,,,,,,,,,down,0,7.9312,,0.287962949,-0.136111153,1,0,0,0.8834,0,131,131,198,1,bedoelen,images/br_bedoelen.png,images/cb_bedoelen.png,0,,,,,,,,,,,,,,,,,,,,,,
,,,,,,00059,2023-10-18_12h01.31.591,vbt_B1_day2,2022.2.4,Win32,60.48509043,,,,,,,,,,,,,,,,,,,,,,,,,,,down,0,5.6982,,0.287962949,-0.136111153,1,0,0,1.0276,0,132,132,91,1,gezond,images/br_gezond.png,images/cb_gezond.png,0,,,,,,,,,,,,,,,,,,,,,,
,,,,,,00059,2023-10-18_12h01.31.591,vbt_B1_day2,2022.2.4,Win32,60.48509043,,,,,,,,,,,,,,,,,,,,,,,,,,,down,0,6.1311,,0.287962949,-0.136111153,1,0,0,0.7689,0,133,133,145,1,invloed,images/br_invloed.png,images/cb_invloed.png,0,,,,,,,,,,,,,,,,,,,,,,
,,,,,,00059,2023-10-18_12h01.31.591,vbt_B1_day2,2022.2.4,Win32,60.48509043,,,,,,,,,,,,,,,,,,,,,,,,,,,down,0,1.9055,,0.287962949,-0.136111153,1,0,0,0.6665,0,134,134,120,1,klimmen,images/br_klimmen.png,images/cb_klimmen.png,0,,,,,,,,,,,,,,,,,,,,,,
,,,,,,00059,2023-10-18_12h01.31.591,vbt_B1_day2,2022.2.4,Win32,60.48509043,,,,,,,,,,,,,,,,,,,,,,,,,,,down,0,1.3285,,0.287962949,-0.136111153,1,0,0,0.6661,0,135,135,113,1,koppen,images/br_koppen.png,images/cb_koppen.png,0,,,,,,,,,,,,,,,,,,,,,,
,,,,,,00059,2023-10-18_12h01.31.591,vbt_B1_day2,2022.2.4,Win32,60.48509043,,,,,,,,,,,,,,,,,,,,,,,,,,,down,0,5.027,,0.287962949,-0.136111153,1,0,0,0.7168,0,136,136,123,1,hiervan,images/br_hiervan.png,images/cb_hiervan.png,0,,,,,,,,,,,,,,,,,,,,,,
,,,,,,00059,2023-10-18_12h01.31.591,vbt_B1_day2,2022.2.4,Win32,60.48509043,,,,,,,,,,,,,,,,,,,,,,,,,,,down,0,1.1366,,0.287962949,-0.136111153,1,0,0,0.6996,0,137,137,12,1,kust,images/br_kust.png,images/cb_kust.png,0,,,,,,,,,,,,,,,,,,,,,,
,,,,,,00059,2023-10-18_12h01.31.591,vbt_B1_day2,2022.2.4,Win32,60.48509043,,,,,,,,,,,,,,,,,,,,,,,,,,,down,0,2.3404,,0.287962949,-0.136111153,1,0,0,0.8835,0,138,138,82,1,muziek,images/br_muziek.png,images/cb_muziek.png,0,,,,,,,,,,,,,,,,,,,,,,
,,,,,,00059,2023-10-18_12h01.31.591,vbt_B1_day2,2022.2.4,Win32,60.48509043,,,,,,,,,,,,,,,,,,,,,,,,,,,down,0,10.6653,,0.287962949,-0.136111153,1,0,0,0.716,0,139,139,159,1,sufferd,images/br_sufferd.png,images/cb_sufferd.png,0,,,,,,,,,,,,,,,,,,,,,,
,,,,,,00059,2023-10-18_12h01.31.591,vbt_B1_day2,2022.2.4,Win32,60.48509043,,,,,,,,,,,,,,,,,,,,,,,,,,,down,0,3.371,,0.287962949,-0.136111153,1,0,0,0.7165,0,140,140,44,1,flits,images/br_flits.png,images/cb_flits.png,0,,,,,,,,,,,,,,,,,,,,,,
,,,,,,00059,2023-10-18_12h01.31.591,vbt_B1_day2,2022.2.4,Win32,60.48509043,,,,,,,,,,,,,,,,,,,,,,,,,,,down,0,2.2339,,0.287962949,-0.136111153,1,0,0,0.5996,0,141,141,51,1,samen,images/br_samen.png,images/cb_samen.png,0,,,,,,,,,,,,,,,,,,,,,,
,,,,,,00059,2023-10-18_12h01.31.591,vbt_B1_day2,2022.2.4,Win32,60.48509043,,,,,,,,,,,,,,,,,,,,,,,,,,,down,0,0.7658,,0.287962949,-0.136111153,1,0,0,0.5331,0,142,142,114,1,vullen,images/br_vullen.png,images/cb_vullen.png,0,,,,,,,,,,,,,,,,,,,,,,
,,,,,,00059,2023-10-18_12h01.31.591,vbt_B1_day2,2022.2.4,Win32,60.48509043,,,,,,,,,,,,,,,,,,,,,,,,,,,down,0,3.6334,,0.287962949,-0.136111153,1,0,0,0.6494,0,143,143,119,1,liefje,images/br_liefje.png,images/cb_liefje.png,0,,,,,,,,,,,,,,,,,,,,,,
,,,,,,00059,2023-10-18_12h01.31.591,vbt_B1_day2,2022.2.4,Win32,60.48509043,,,,,,,,,,,,,,,,,,,,,,,,,,,down,0,4.5324,,0.287962949,-0.136111153,1,0,0,0.5227,0,144,144,146,1,opkomen,images/br_opkomen.png,images/cb_opkomen.png,0,,,,,,,,,,,,,,,,,,,,,,
,,,,,,00059,2023-10-18_12h01.31.591,vbt_B1_day2,2022.2.4,Win32,60.48509043,,,,,,,,,,,,,,,,,,,,,,,,,,,down,0,6.6536,,0.287962949,-0.136111153,1,0,0,0.7343,0,145,145,193,1,weeshuis,images/br_weeshuis.png,images/cb_weeshuis.png,0,,,,,,,,,,,,,,,,,,,,,,
,,,,,,00059,2023-10-18_12h01.31.591,vbt_B1_day2,2022.2.4,Win32,60.48509043,,,,,,,,,,,,,,,,,,,,,,,,,,,down,0,4.8606,,0.287962949,-0.136111153,1,0,0,0.7994,0,146,146,97,1,loyaal,images/br_loyaal.png,images/cb_loyaal.png,1,loyaal,,,,,,,,,,,,,,,,,,,,,
,,,,,,00059,2023-10-18_12h01.31.591,vbt_B1_day2,2022.2.4,Win32,60.48509043,,,,,,,,,,,,,,,,,,,,,,,,,,,down,0,4.2928,,0.287962949,-0.136111153,1,0,0,1.0496,0,147,147,188,1,strekken,images/br_strekken.png,images/cb_strekken.png,0,,,,,,,,,,,,,,,,,,,,,,
,,,,,,00059,2023-10-18_12h01.31.591,vbt_B1_day2,2022.2.4,Win32,60.48509043,,,,,,,,,,,,,,,,,,,,,,,,,,,down,0,1.3244,,0.287962949,-0.136111153,1,0,0,0.9498,0,148,148,50,1,stoom,images/br_stoom.png,images/cb_stoom.png,0,,,,,,,,,,,,,,,,,,,,,,
,,,,,,00059,2023-10-18_12h01.31.591,vbt_B1_day2,2022.2.4,Win32,60.48509043,,,,,,,,,,,,,,,,,,,,,,,,,,,down,0,2.7338,,0.287962949,-0.136111153,1,0,0,0.7662,0,149,149,199,1,beseffen,images/br_beseffen.png,images/cb_beseffen.png,0,,,,,,,,,,,,,,,,,,,,,,
,,,,,,00059,2023-10-18_12h01.31.591,vbt_B1_day2,2022.2.4,Win32,60.48509043,,,,,,,,,,,,,,,,,,,,,,,,,,,down,0,3.4842,,0.287962949,-0.136111153,1,0,0,0.7831,0,150,150,99,1,koffie,images/br_koffie.png,images/cb_koffie.png,1,koffie,,,,,,,,,,,,,,,,,,,,,
,,,,,,00059,2023-10-18_12h01.31.591,vbt_B1_day2,2022.2.4,Win32,60.48509043,,,,,,,,,,,,,,,,,,,,,,,,,,,down,0,4.833,,0.287962949,-0.136111153,1,0,0,1.0998,0,151,151,136,1,waarbij,images/br_waarbij.png,images/cb_waarbij.png,1,waarbij,,,,,,,,,,,,,,,,,,,,,
,,,,,,00059,2023-10-18_12h01.31.591,vbt_B1_day2,2022.2.4,Win32,60.48509043,,,,,,,,,,,,,,,,,,,,,,,,,,,down,0,3.1448,,0.287962949,-0.136111153,1,0,0,0.8168,0,152,152,138,1,akkoord,images/br_akkoord.png,images/cb_akkoord.png,1,akkoord,,,,,,,,,,,,,,,,,,,,,
,,,,,,00059,2023-10-18_12h01.31.591,vbt_B1_day2,2022.2.4,Win32,60.48509043,,,,,,,,,,,,,,,,,,,,,,,,,,,down,0,5.5231,,0.287962949,-0.136111153,1,0,0,1.3313,0,153,153,111,1,ticket,images/br_ticket.png,images/cb_ticket.png,0,,,,,,,,,,,,,,,,,,,,,,
,,,,,,00059,2023-10-18_12h01.31.591,vbt_B1_day2,2022.2.4,Win32,60.48509043,,,,,,,,,,,,,,,,,,,,,,,,,,,down,0,2.7487,,0.287962949,-0.136111153,1,0,0,0.8079,0,154,154,21,1,mist,images/br_mist.png,images/cb_mist.png,0,,,,,,,,,,,,,,,,,,,,,,
,,,,,,00059,2023-10-18_12h01.31.591,vbt_B1_day2,2022.2.4,Win32,60.48509043,,,,,,,,,,,,,,,,,,,,,,,,,,,down,0,2.8376,,0.287962949,-0.136111153,1,0,0,1.4828,0,155,155,191,1,opheffen,images/br_opheffen.png,images/cb_opheffen.png,0,,,,,,,,,,,,,,,,,,,,,,
,,,,,,00059,2023-10-18_12h01.31.591,vbt_B1_day2,2022.2.4,Win32,60.48509043,,,,,,,,,,,,,,,,,,,,,,,,,,,down,0,2.4342,,0.287962949,-0.136111153,1,0,0,0.8168,0,156,156,144,1,eetlust,images/br_eetlust.png,images/cb_eetlust.png,0,,,,,,,,,,,,,,,,,,,,,,
,,,,,,00059,2023-10-18_12h01.31.591,vbt_B1_day2,2022.2.4,Win32,60.48509043,,,,,,,,,,,,,,,,,,,,,,,,,,,down,0,4.5329,,0.287962949,-0.136111153,1,0,0,0.7498,0,157,157,27,1,dans,images/br_dans.png,images/cb_dans.png,0,,,,,,,,,,,,,,,,,,,,,,
,,,,,,00059,2023-10-18_12h01.31.591,vbt_B1_day2,2022.2.4,Win32,60.48509043,,,,,,,,,,,,,,,,,,,,,,,,,,,down,0,6.2996,,0.287962949,-0.136111153,1,0,0,1.8828,0,158,158,147,1,komisch,images/br_komisch.png,images/cb_komisch.png,0,,,,,,,,,,,,,,,,,,,,,,
,,,,,,00059,2023-10-18_12h01.31.591,vbt_B1_day2,2022.2.4,Win32,60.48509043,,,,,,,,,,,,,,,,,,,,,,,,,,,down,0,2.9671,,0.287962949,-0.136111153,1,0,0,0.7835,0,159,159,7,1,geld,images/br_geld.png,images/cb_geld.png,0,,,,,,,,,,,,,,,,,,,,,,
,,,,,,00059,2023-10-18_12h01.31.591,vbt_B1_day2,2022.2.4,Win32,60.48509043,,,,,,,,,,,,,,,,,,,,,,,,,,,down,0,2.6168,,0.287962949,-0.136111153,1,0,0,0.7486,0,160,160,107,1,maling,images/br_maling.png,images/cb_maling.png,0,,,,,,,,,,,,,,,,,,,,,,
,,,,,,00059,2023-10-18_12h01.31.591,vbt_B1_day2,2022.2.4,Win32,60.48509043,,,,,,,,,,,,,,,,,,,,,,,,,,,down,0,2.3999,,0.287962949,-0.136111153,1,0,0,1.083,0,161,161,171,1,aarzelen,images/br_aarzelen.png,images/cb_aarzelen.png,0,,,,,,,,,,,,,,,,,,,,,,
,,,,,,00059,2023-10-18_12h01.31.591,vbt_B1_day2,2022.2.4,Win32,60.48509043,,,,,,,,,,,,,,,,,,,,,,,,,,,down,0,2.4002,,0.287962949,-0.136111153,1,0,0,0.9368,0,162,162,76,1,afval,images/br_afval.png,images/cb_afval.png,0,,,,,,,,,,,,,,,,,,,,,,
,,,,,,00059,2023-10-18_12h01.31.591,vbt_B1_day2,2022.2.4,Win32,60.48509043,,,,,,,,,,,,,,,,,,,,,,,,,,,down,0,3.5997,,0.287962949,-0.136111153,1,0,0,0.8328,0,163,163,67,1,zwart,images/br_zwart.png,images/cb_zwart.png,0,,,,,,,,,,,,,,,,,,,,,,
,,,,,,00059,2023-10-18_12h01.31.591,vbt_B1_day2,2022.2.4,Win32,60.48509043,,,,,,,,,,,,,,,,,,,,,,,,,,,down,0,2.3002,,0.287962949,-0.136111153,1,0,0,0.7916,0,164,164,57,1,steek,images/br_steek.png,images/cb_steek.png,1,steek,,,,,,,,,,,,,,,,,,,,,
,,,,,,00059,2023-10-18_12h01.31.591,vbt_B1_day2,2022.2.4,Win32,60.48509043,,,,,,,,,,,,,,,,,,,,,,,,,,,down,0,3.201,,0.287962949,-0.136111153,1,0,0,0.9661,0,165,165,170,1,schatten,images/br_schatten.png,images/cb_schatten.png,0,,,,,,,,,,,,,,,,,,,,,,
,,,,,,00059,2023-10-18_12h01.31.591,vbt_B1_day2,2022.2.4,Win32,60.48509043,,,,,,,,,,,,,,,,,,,,,,,,,,,down,0,0.0531,,0.287962949,-0.136111153,1,0,0,0.75,0,166,166,2,1,jaar,images/br_jaar.png,images/cb_jaar.png,0,,,,,,,,,,,,,,,,,,,,,,
,,,,,,00059,2023-10-18_12h01.31.591,vbt_B1_day2,2022.2.4,Win32,60.48509043,,,,,,,,,,,,,,,,,,,,,,,,,,,down,0,4.195,,0.287962949,-0.136111153,1,0,0,0.6495,0,167,167,11,1,mode,images/br_mode.png,images/cb_mode.png,0,,,,,,,,,,,,,,,,,,,,,,
,,,,,,00059,2023-10-18_12h01.31.591,vbt_B1_day2,2022.2.4,Win32,60.48509043,,,,,,,,,,,,,,,,,,,,,,,,,,,down,0,6.2027,,0.287962949,-0.136111153,1,0,0,0.5906,0,168,168,162,1,uitdelen,images/br_uitdelen.png,images/cb_uitdelen.png,0,,,,,,,,,,,,,,,,,,,,,,
,,,,,,00059,2023-10-18_12h01.31.591,vbt_B1_day2,2022.2.4,Win32,60.48509043,,,,,,,,,,,,,,,,,,,,,,,,,,,down,0,6.6338,,0.287962949,-0.136111153,1,0,0,0.8828,0,169,169,134,1,geliefd,images/br_geliefd.png,images/cb_geliefd.png,0,,,,,,,,,,,,,,,,,,,,,,
,,,,,,00059,2023-10-18_12h01.31.591,vbt_B1_day2,2022.2.4,Win32,60.48509043,,,,,,,,,,,,,,,,,,,,,,,,,,,down,0,0.0924,,0.287962949,-0.136111153,1,0,0,0.6565,0,170,170,39,1,laag,images/br_laag.png,images/cb_laag.png,0,,,,,,,,,,,,,,,,,,,,,,
,,,,,,00059,2023-10-18_12h01.31.591,vbt_B1_day2,2022.2.4,Win32,60.48509043,,,,,,,,,,,,,,,,,,,,,,,,,,,down,0,2.5666,,0.287962949,-0.136111153,1,0,0,0.7729,0,171,171,100,1,geduld,images/br_geduld.png,images/cb_geduld.png,0,,,,,,,,,,,,,,,,,,,,,,
,,,,,,00059,2023-10-18_12h01.31.591,vbt_B1_day2,2022.2.4,Win32,60.48509043,,,,,,,,,,,,,,,,,,,,,,,,,,,down,0,5.918,,0.287962949,-0.136111153,1,0,0,0.7165,0,172,172,79,1,nodig,images/br_nodig.png,images/cb_nodig.png,0,,,,,,,,,,,,,,,,,,,,,,
,,,,,,00059,2023-10-18_12h01.31.591,vbt_B1_day2,2022.2.4,Win32,60.48509043,,,,,,,,,,,,,,,,,,,,,,,,,,,down,0,1.2415,,0.287962949,-0.136111153,1,0,0,0.7002,0,173,173,47,1,kabel,images/br_kabel.png,images/cb_kabel.png,0,,,,,,,,,,,,,,,,,,,,,,
,,,,,,00059,2023-10-18_12h01.31.591,vbt_B1_day2,2022.2.4,Win32,60.48509043,,,,,,,,,,,,,,,,,,,,,,,,,,,down,0,4.2215,,0.287962949,-0.136111153,1,0,0,0.6828,0,174,174,156,1,rechten,images/br_rechten.png,images/cb_rechten.png,0,,,,,,,,,,,,,,,,,,,,,,
,,,,,,00059,2023-10-18_12h01.31.591,vbt_B1_day2,2022.2.4,Win32,60.48509043,,,,,,,,,,,,,,,,,,,,,,,,,,,down,0,7.3398,,0.287962949,-0.136111153,1,0,0,0.733,0,175,175,164,1,anarchie,images/br_anarchie.png,images/cb_anarchie.png,0,,,,,,,,,,,,,,,,,,,,,,
,,,,,,00059,2023-10-18_12h01.31.591,vbt_B1_day2,2022.2.4,Win32,60.48509043,,,,,,,,,,,,,,,,,,,,,,,,,,,down,0,3.4898,,0.287962949,-0.136111153,1,0,0,0.7659,0,176,176,135,1,gedicht,images/br_gedicht.png,images/cb_gedicht.png,0,,,,,,,,,,,,,,,,,,,,,,
,,,,,,00059,2023-10-18_12h01.31.591,vbt_B1_day2,2022.2.4,Win32,60.48509043,,,,,,,,,,,,,,,,,,,,,,,,,,,down,0,6.866,,0.287962949,-0.136111153,1,0,0,0.8233,0,177,177,108,1,excuus,images/br_excuus.png,images/cb_excuus.png,0,,,,,,,,,,,,,,,,,,,,,,
,,,,,,00059,2023-10-18_12h01.31.591,vbt_B1_day2,2022.2.4,Win32,60.48509043,,,,,,,,,,,,,,,,,,,,,,,,,,,down,0,2.7502,,0.287962949,-0.136111153,1,0,0,1.1159,0,178,178,71,1,bever,images/br_bever.png,images/cb_bever.png,0,,,,,,,,,,,,,,,,,,,,,,
,,,,,,00059,2023-10-18_12h01.31.591,vbt_B1_day2,2022.2.4,Win32,60.48509043,,,,,,,,,,,,,,,,,,,,,,,,,,,down,0,6.5381,,0.287962949,-0.136111153,1,0,0,0.5497,0,179,179,94,1,oceaan,images/br_oceaan.png,images/cb_oceaan.png,0,,,,,,,,,,,,,,,,,,,,,,
,,,,,,00059,2023-10-18_12h01.31.591,vbt_B1_day2,2022.2.4,Win32,60.48509043,,,,,,,,,,,,,,,,,,,,,,,,,,,down,0,1.1849,,0.287962949,-0.136111153,1,0,0,0.6812,0,180,180,77,1,woede,images/br_woede.png,images/cb_woede.png,0,,,,,,,,,,,,,,,,,,,,,,
,,,,,,00059,2023-10-18_12h01.31.591,vbt_B1_day2,2022.2.4,Win32,60.48509043,,,,,,,,,,,,,,,,,,,,,,,,,,,down,0,6.3568,,0.287962949,-0.136111153,1,0,0,1.091,0,181,181,133,1,seizoen,images/br_seizoen.png,images/cb_seizoen.png,0,,,,,,,,,,,,,,,,,,,,,,
,,,,,,00059,2023-10-18_12h01.31.591,vbt_B1_day2,2022.2.4,Win32,60.48509043,,,,,,,,,,,,,,,,,,,,,,,,,,,down,0,5.6402,,0.287962949,-0.136111153,1,0,0,0.7837,0,182,182,160,1,daarheen,images/br_daarheen.png,images/cb_daarheen.png,0,,,,,,,,,,,,,,,,,,,,,,
,,,,,,00059,2023-10-18_12h01.31.591,vbt_B1_day2,2022.2.4,Win32,60.48509043,,,,,,,,,,,,,,,,,,,,,,,,,,,down,0,2.4757,,0.287962949,-0.136111153,1,0,0,0.9665,0,183,183,4,1,moes,images/br_moes.png,images/cb_moes.png,0,,,,,,,,,,,,,,,,,,,,,,
,,,,,,00059,2023-10-18_12h01.31.591,vbt_B1_day2,2022.2.4,Win32,60.48509043,,,,,,,,,,,,,,,,,,,,,,,,,,,down,0,5.1643,,0.287962949,-0.136111153,1,0,0,0.8501,0,184,184,98,1,kreeft,images/br_kreeft.png,images/cb_kreeft.png,1,kreeft,,,,,,,,,,,,,,,,,,,,,
,,,,,,00059,2023-10-18_12h01.31.591,vbt_B1_day2,2022.2.4,Win32,60.48509043,,,,,,,,,,,,,,,,,,,,,,,,,,,down,0,6.0348,,0.287962949,-0.136111153,1,0,0,0.8168,0,185,185,180,1,openbaar,images/br_openbaar.png,images/cb_openbaar.png,0,,,,,,,,,,,,,,,,,,,,,,
,,,,,,00059,2023-10-18_12h01.31.591,vbt_B1_day2,2022.2.4,Win32,60.48509043,,,,,,,,,,,,,,,,,,,,,,,,,,,down,0,3.3215,,0.287962949,-0.136111153,1,0,0,0.9996,0,186,186,95,1,vreten,images/br_vreten.png,images/cb_vreten.png,0,,,,,,,,,,,,,,,,,,,,,,
,,,,,,00059,2023-10-18_12h01.31.591,vbt_B1_day2,2022.2.4,Win32,60.48509043,,,,,,,,,,,,,,,,,,,,,,,,,,,down,0,2.2141,,0.287962949,-0.136111153,1,0,0,0.8773,0,187,187,19,1,geit,images/br_geit.png,images/cb_geit.png,1,geit,,,,,,,,,,,,,,,,,,,,,
,,,,,,00059,2023-10-18_12h01.31.591,vbt_B1_day2,2022.2.4,Win32,60.48509043,,,,,,,,,,,,,,,,,,,,,,,,,,,down,0,2.3717,,0.287962949,-0.136111153,1,0,0,0.8327,0,188,188,30,1,uien,images/br_uien.png,images/cb_uien.png,0,,,,,,,,,,,,,,,,,,,,,,
,,,,,,00059,2023-10-18_12h01.31.591,vbt_B1_day2,2022.2.4,Win32,60.48509043,,,,,,,,,,,,,,,,,,,,,,,,,,,down,0,0.5506,,0.287962949,-0.136111153,1,0,0,0.7319,0,189,189,33,1,vlek,images/br_vlek.png,images/cb_vlek.png,0,,,,,,,,,,,,,,,,,,,,,,
,,,,,,00059,2023-10-18_12h01.31.591,vbt_B1_day2,2022.2.4,Win32,60.48509043,,,,,,,,,,,,,,,,,,,,,,,,,,,down,0,1.4343,,0.287962949,-0.136111153,1,0,0,0.7994,0,190,190,68,1,schat,images/br_schat.png,images/cb_schat.png,0,,,,,,,,,,,,,,,,,,,,,,
,,,,,,00059,2023-10-18_12h01.31.591,vbt_B1_day2,2022.2.4,Win32,60.48509043,,,,,,,,,,,,,,,,,,,,,,,,,,,down,0,1.6186,,0.287962949,-0.136111153,1,0,0,0.7158,0,191,191,150,1,gegeven,images/br_gegeven.png,images/cb_gegeven.png,0,,,,,,,,,,,,,,,,,,,,,,
,,,,,,00059,2023-10-18_12h01.31.591,vbt_B1_day2,2022.2.4,Win32,60.48509043,,,,,,,,,,,,,,,,,,,,,,,,,,,down,0,8.2196,,0.287962949,-0.136111153,1,0,0,0.9164,0,192,192,179,1,woestijn,images/br_woestijn.png,images/cb_woestijn.png,1,woestijn,,,,,,,,,,,,,,,,,,,,,
,,,,,,00059,2023-10-18_12h01.31.591,vbt_B1_day2,2022.2.4,Win32,60.48509043,,,,,,,,,,,,,,,,,,,,,,,,,,,down,0,6.4226,,0.287962949,-0.136111153,1,0,0,0.8164,0,193,193,174,1,stemming,images/br_stemming.png,images/cb_stemming.png,0,,,,,,,,,,,,,,,,,,,,,,
,,,,,,00059,2023-10-18_12h01.31.591,vbt_B1_day2,2022.2.4,Win32,60.48509043,,,,,,,,,,,,,,,,,,,,,,,,,,,down,0,5.4706,,0.287962949,-0.136111153,1,0,0,0.5667,0,194,194,127,1,doodmoe,images/br_doodmoe.png,images/cb_doodmoe.png,0,,,,,,,,,,,,,,,,,,,,,,
,,,,,,00059,2023-10-18_12h01.31.591,vbt_B1_day2,2022.2.4,Win32,60.48509043,,,,,,,,,,,,,,,,,,,,,,,,,,,down,0,2.9577,,0.287962949,-0.136111153,1,0,0,0.616,0,195,195,104,1,zweven,images/br_zweven.png,images/cb_zweven.png,0,,,,,,,,,,,,,,,,,,,,,,
,,,,,,00059,2023-10-18_12h01.31.591,vbt_B1_day2,2022.2.4,Win32,60.48509043,,,,,,,,,,,,,,,,,,,,,,,,,,,down,0,1.8686,,0.287962949,-0.136111153,1,0,0,0.7664,0,196,196,101,1,staren,images/br_staren.png,images/cb_staren.png,0,,,,,,,,,,,,,,,,,,,,,,
,,,,,,00059,2023-10-18_12h01.31.591,vbt_B1_day2,2022.2.4,Win32,60.48509043,,,,,,,,,,,,,,,,,,,,,,,,,,,down,0,0.6039,,0.287962949,-0.136111153,1,0,0,0.8166,0,197,197,78,1,leren,images/br_leren.png,images/cb_leren.png,0,,,,,,,,,,,,,,,,,,,,,,
,,,,,,00059,2023-10-18_12h01.31.591,vbt_B1_day2,2022.2.4,Win32,60.48509043,,,,,,,,,,,,,,,,,,,,,,,,,,,down,0,3.3396,,0.287962949,-0.136111153,1,0,0,0.9165,0,198,198,56,1,traag,images/br_traag.png,images/cb_traag.png,1,traag,,,,,,,,,,,,,,,,,,,,,
,,,,,,00059,2023-10-18_12h01.31.591,vbt_B1_day2,2022.2.4,Win32,60.48509043,,,,,,,,,,,,,,,,,,,,,,,,,,,down,0,3.1362,,0.287962949,-0.136111153,1,0,0,0.9659,0,199,199,197,1,spanning,images/br_spanning.png,images/cb_spanning.png,0,,,,,,,,,,,,,,,,,,,,,,
,,,,,,00059,2023-10-18_12h01.31.591,vbt_B1_day2,2022.2.4,Win32,60.48509043,,,,,,,,,,,,,,,,,,,,,,,,,,,,,,,,,,,,,,,,,,,,,,,0.287962949,-0.136111153,1,0,0,,,,,,,,,,,,,,,,
,,,,,,00059,2023-10-18_12h01.31.591,vbt_B1_day2,2022.2.4,Win32,60.48509043,,,,,,,,,,,,,,,,,,,,,,,,,,,,,,,,,,,,,,,,,,,,,,,,,,,,0.287962949,-0.136111153,1,0,0,,,,,,,,,,,
,,,,,,00059,2023-10-18_12h01.31.591,vbt_B1_day2,2022.2.4,Win32,60.48509043,,,,,,,,,,,,,,,,,,,,,,,,,,,,,,,,,,,,,,,,,,sora,images/br_sora.png,images/cb_sora.png,,tora,,,,,,,,,,,0.287962949,-0.136111153,1,0,0,tora,0,0,0,22,1
,,,,,,00059,2023-10-18_12h01.31.591,vbt_B1_day2,2022.2.4,Win32,60.48509043,,,,,,,,,,,,,,,,,,,,,,,,,,,,,,,,,,,,,,,,,,blad,images/br_blad.png,images/cb_blad.png,,blad,,,,,,,,,,,0.287962949,-0.136111153,1,0,0,blad,0,1,1,1,1
,,,,,,00059,2023-10-18_12h01.31.591,vbt_B1_day2,2022.2.4,Win32,60.48509043,,,,,,,,,,,,,,,,,,,,,,,,,,,,,,,,,,,,,,,,,,eenhoorn,images/br_eenhoorn.png,images/cb_eenhoorn.png,,eenhoorn,,,,,,,,,,,0.287962949,-0.136111153,1,0,0,eenhoorn,0,2,2,19,1
,,,,,,00059,2023-10-18_12h01.31.591,vbt_B1_day2,2022.2.4,Win32,60.48509043,,,,,,,,,,,,,,,,,,,,,,,,,,,,,,,,,,,,,,,,,,bloeien,images/br_bloeien.png,images/cb_bloeien.png,,bloeien,,,,,,,,,,,0.287962949,-0.136111153,1,0,0,bloeien,0,3,3,12,1
,,,,,,00059,2023-10-18_12h01.31.591,vbt_B1_day2,2022.2.4,Win32,60.48509043,,,,,,,,,,,,,,,,,,,,,,,,,,,,,,,,,,,,,,,,,,lijnen,images/br_lijnen.png,images/cb_lijnen.png,,lijnen,,,,,,,,,,,0.287962949,-0.136111153,1,0,0,lijnen,0,4,4,51,1
,,,,,,00059,2023-10-18_12h01.31.591,vbt_B1_day2,2022.2.4,Win32,60.48509043,,,,,,,,,,,,,,,,,,,,,,,,,,,,,,,,,,,,,,,,,,kijlen,images/br_kijlen.png,images/cb_kijlen.png,,kijlen,,,,,,,,,,,0.287962949,-0.136111153,1,0,0,kijlen,0,5,5,31,1
,,,,,,00059,2023-10-18_12h01.31.591,vbt_B1_day2,2022.2.4,Win32,60.48509043,,,,,,,,,,,,,,,,,,,,,,,,,,,,,,,,,,,,,,,,,,strikken,images/br_strikken.png,images/cb_strikken.png,,strikken,,,,,,,,,,,0.287962949,-0.136111153,1,0,0,strikken,0,6,6,18,1
,,,,,,00059,2023-10-18_12h01.31.591,vbt_B1_day2,2022.2.4,Win32,60.48509043,,,,,,,,,,,,,,,,,,,,,,,,,,,,,,,,,,,,,,,,,,thema,images/br_thema.png,images/cb_thema.png,,them.,,,,,,,,,,,0.287962949,-0.136111153,1,0,0,them.,0,7,7,47,1
,,,,,,00059,2023-10-18_12h01.31.591,vbt_B1_day2,2022.2.4,Win32,60.48509043,,,,,,,,,,,,,,,,,,,,,,,,,,,,,,,,,,,,,,,,,,bereuwen,images/br_bereuwen.png,images/cb_bereuwen.png,,bereuw.,,,,,,,,,,,0.287962949,-0.136111153,1,0,0,bereuw.,0,8,8,39,1
,,,,,,00059,2023-10-18_12h01.31.591,vbt_B1_day2,2022.2.4,Win32,60.48509043,,,,,,,,,,,,,,,,,,,,,,,,,,,,,,,,,,,,,,,,,,systeem,images/br_systeem.png,images/cb_systeem.png,,systeem,,,,,,,,,,,0.287962949,-0.136111153,1,0,0,systeem,0,9,9,54,1
,,,,,,00059,2023-10-18_12h01.31.591,vbt_B1_day2,2022.2.4,Win32,60.48509043,,,,,,,,,,,,,,,,,,,,,,,,,,,,,,,,,,,,,,,,,,kasteel,images/br_kasteel.png,images/cb_kasteel.png,,kasteel,,,,,,,,,,,0.287962949,-0.136111153,1,0,0,kasteel,0,10,10,14,1
,,,,,,00059,2023-10-18_12h01.31.591,vbt_B1_day2,2022.2.4,Win32,60.48509043,,,,,,,,,,,,,,,,,,,,,,,,,,,,,,,,,,,,,,,,,,dode,images/br_dode.png,images/cb_dode.png,,dode,,,,,,,,,,,0.287962949,-0.136111153,1,0,0,dode,0,11,11,41,1
,,,,,,00059,2023-10-18_12h01.31.591,vbt_B1_day2,2022.2.4,Win32,60.48509043,,,,,,,,,,,,,,,,,,,,,,,,,,,,,,,,,,,,,,,,,,geld,images/br_geld.png,images/cb_geld.png,,geld,,,,,,,,,,,0.287962949,-0.136111153,1,0,0,geld,0,12,12,3,1
,,,,,,00059,2023-10-18_12h01.31.591,vbt_B1_day2,2022.2.4,Win32,60.48509043,,,,,,,,,,,,,,,,,,,,,,,,,,,,,,,,,,,,,,,,,,goon,images/br_goon.png,images/cb_goon.png,,goon,,,,,,,,,,,0.287962949,-0.136111153,1,0,0,goon,0,13,13,23,1
,,,,,,00059,2023-10-18_12h01.31.591,vbt_B1_day2,2022.2.4,Win32,60.48509043,,,,,,,,,,,,,,,,,,,,,,,,,,,,,,,,,,,,,,,,,,clan,images/br_clan.png,images/cb_clan.png,,clan,,,,,,,,,,,0.287962949,-0.136111153,1,0,0,clan,0,14,14,40,1
,,,,,,00059,2023-10-18_12h01.31.591,vbt_B1_day2,2022.2.4,Win32,60.48509043,,,,,,,,,,,,,,,,,,,,,,,,,,,,,,,,,,,,,,,,,,toeval,images/br_toeval.png,images/cb_toeval.png,,toeval,,,,,,,,,,,0.287962949,-0.136111153,1,0,0,toeval,0,15,15,11,1
,,,,,,00059,2023-10-18_12h01.31.591,vbt_B1_day2,2022.2.4,Win32,60.48509043,,,,,,,,,,,,,,,,,,,,,,,,,,,,,,,,,,,,,,,,,,zegel,images/br_zegel.png,images/cb_zegel.png,,zegel,,,,,,,,,,,0.287962949,-0.136111153,1,0,0,zegel,0,16,16,46,1
,,,,,,00059,2023-10-18_12h01.31.591,vbt_B1_day2,2022.2.4,Win32,60.48509043,,,,,,,,,,,,,,,,,,,,,,,,,,,,,,,,,,,,,,,,,,tand,images/br_tand.png,images/cb_tand.png,,tand,,,,,,,,,,,0.287962949,-0.136111153,1,0,0,tand,0,17,17,42,1
,,,,,,00059,2023-10-18_12h01.31.591,vbt_B1_day2,2022.2.4,Win32,60.48509043,,,,,,,,,,,,,,,,,,,,,,,,,,,,,,,,,,,,,,,,,,heilig,images/br_heilig.png,images/cb_heilig.png,,heilig,,,,,,,,,,,0.287962949,-0.136111153,1,0,0,heilig,0,18,18,9,1
,,,,,,00059,2023-10-18_12h01.31.591,vbt_B1_day2,2022.2.4,Win32,60.48509043,,,,,,,,,,,,,,,,,,,,,,,,,,,,,,,,,,,,,,,,,,remel,images/br_remel.png,images/cb_remel.png,,remel,,,,,,,,,,,0.287962949,-0.136111153,1,0,0,remel,0,19,19,25,1
,,,,,,00059,2023-10-18_12h01.31.591,vbt_B1_day2,2022.2.4,Win32,60.48509043,,,,,,,,,,,,,,,,,,,,,,,,,,,,,,,,,,,,,,,,,,manieren,images/br_manieren.png,images/cb_manieren.png,,panier..,,,,,,,,,,,0.287962949,-0.136111153,1,0,0,panier..,0,20,20,56,1
,,,,,,00059,2023-10-18_12h01.31.591,vbt_B1_day2,2022.2.4,Win32,60.48509043,,,,,,,,,,,,,,,,,,,,,,,,,,,,,,,,,,,,,,,,,,flits,images/br_flits.png,images/cb_flits.png,,flits,,,,,,,,,,,0.287962949,-0.136111153,1,0,0,flits,0,21,21,4,1
,,,,,,00059,2023-10-18_12h01.31.591,vbt_B1_day2,2022.2.4,Win32,60.48509043,,,,,,,,,,,,,,,,,,,,,,,,,,,,,,,,,,,,,,,,,,krimmen,images/br_krimmen.png,images/cb_krimmen.png,,krimmen,,,,,,,,,,,0.287962949,-0.136111153,1,0,0,krimmen,0,22,22,35,1
,,,,,,00059,2023-10-18_12h01.31.591,vbt_B1_day2,2022.2.4,Win32,60.48509043,,,,,,,,,,,,,,,,,,,,,,,,,,,,,,,,,,,,,,,,,,kabel,images/br_kabel.png,images/cb_kabel.png,,kabel,,,,,,,,,,,0.287962949,-0.136111153,1,0,0,kabel,0,23,23,7,1
,,,,,,00059,2023-10-18_12h01.31.591,vbt_B1_day2,2022.2.4,Win32,60.48509043,,,,,,,,,,,,,,,,,,,,,,,,,,,,,,,,,,,,,,,,,,lokken,images/br_lokken.png,images/cb_lokken.png,,lokken,,,,,,,,,,,0.287962949,-0.136111153,1,0,0,lokken,0,24,24,8,1
,,,,,,00059,2023-10-18_12h01.31.591,vbt_B1_day2,2022.2.4,Win32,60.48509043,,,,,,,,,,,,,,,,,,,,,,,,,,,,,,,,,,,,,,,,,,inzicht,images/br_inzicht.png,images/cb_inzicht.png,,inzicht,,,,,,,,,,,0.287962949,-0.136111153,1,0,0,inzicht,0,25,25,53,1
,,,,,,00059,2023-10-18_12h01.31.591,vbt_B1_day2,2022.2.4,Win32,60.48509043,,,,,,,,,,,,,,,,,,,,,,,,,,,,,,,,,,,,,,,,,,plannen,images/br_plannen.png,images/cb_plannen.png,,plannen,,,,,,,,,,,0.287962949,-0.136111153,1,0,0,plannen,0,26,26,55,1
,,,,,,00059,2023-10-18_12h01.31.591,vbt_B1_day2,2022.2.4,Win32,60.48509043,,,,,,,,,,,,,,,,,,,,,,,,,,,,,,,,,,,,,,,,,,joes,images/br_joes.png,images/cb_joes.png,,joes,,,,,,,,,,,0.287962949,-0.136111153,1,0,0,joes,0,27,27,20,1
,,,,,,00059,2023-10-18_12h01.31.591,vbt_B1_day2,2022.2.4,Win32,60.48509043,,,,,,,,,,,,,,,,,,,,,,,,,,,,,,,,,,,,,,,,,,diep,images/br_diep.png,images/cb_diep.png,,diep,,,,,,,,,,,0.287962949,-0.136111153,1,0,0,diep,0,28,28,2,1
,,,,,,00059,2023-10-18_12h01.31.591,vbt_B1_day2,2022.2.4,Win32,60.48509043,,,,,,,,,,,,,,,,,,,,,,,,,,,,,,,,,,,,,,,,,,sifferd,images/br_sifferd.png,images/cb_sifferd.png,,sidderd,,,,,,,,,,,0.287962949,-0.136111153,1,0,0,sidderd,0,29,29,32,1
,,,,,,00059,2023-10-18_12h01.31.591,vbt_B1_day2,2022.2.4,Win32,60.48509043,,,,,,,,,,,,,,,,,,,,,,,,,,,,,,,,,,,,,,,,,,heengeen,images/br_heengeen.png,images/cb_heengeen.png,,heengaan,,,,,,,,,,,0.287962949,-0.136111153,1,0,0,heengaan,0,30,30,38,1
,,,,,,00059,2023-10-18_12h01.31.591,vbt_B1_day2,2022.2.4,Win32,60.48509043,,,,,,,,,,,,,,,,,,,,,,,,,,,,,,,,,,,,,,,,,,lurgen,images/br_lurgen.png,images/cb_lurgen.png,,lurgen,,,,,,,,,,,0.287962949,-0.136111153,1,0,0,lurgen,0,31,31,29,1
,,,,,,00059,2023-10-18_12h01.31.591,vbt_B1_day2,2022.2.4,Win32,60.48509043,,,,,,,,,,,,,,,,,,,,,,,,,,,,,,,,,,,,,,,,,,jagen,images/br_jagen.png,images/cb_jagen.png,,jagen,,,,,,,,,,,0.287962949,-0.136111153,1,0,0,jagen,0,32,32,6,1
,,,,,,00059,2023-10-18_12h01.31.591,vbt_B1_day2,2022.2.4,Win32,60.48509043,,,,,,,,,,,,,,,,,,,,,,,,,,,,,,,,,,,,,,,,,,feestdag,images/br_feestdag.png,images/cb_feestdag.png,,feestdag,,,,,,,,,,,0.287962949,-0.136111153,1,0,0,feestdag,0,33,33,17,1
,,,,,,00059,2023-10-18_12h01.31.591,vbt_B1_day2,2022.2.4,Win32,60.48509043,,,,,,,,,,,,,,,,,,,,,,,,,,,,,,,,,,,,,,,,,,agressie,images/br_agressie.png,images/cb_agressie.png,,agressie,,,,,,,,,,,0.287962949,-0.136111153,1,0,0,agressie,0,34,34,59,1
,,,,,,00059,2023-10-18_12h01.31.591,vbt_B1_day2,2022.2.4,Win32,60.48509043,,,,,,,,,,,,,,,,,,,,,,,,,,,,,,,,,,,,,,,,,,badon,images/br_badon.png,images/cb_badon.png,,badon,,,,,,,,,,,0.287962949,-0.136111153,1,0,0,badon,0,35,35,26,1
,,,,,,00059,2023-10-18_12h01.31.591,vbt_B1_day2,2022.2.4,Win32,60.48509043,,,,,,,,,,,,,,,,,,,,,,,,,,,,,,,,,,,,,,,,,,breuk,images/br_breuk.png,images/cb_breuk.png,,breuk,,,,,,,,,,,0.287962949,-0.136111153,1,0,0,breuk,0,36,36,45,1
,,,,,,00059,2023-10-18_12h01.31.591,vbt_B1_day2,2022.2.4,Win32,60.48509043,,,,,,,,,,,,,,,,,,,,,,,,,,,,,,,,,,,,,,,,,,anarchie,images/br_anarchie.png,images/cb_anarchie.png,,anarchie,,,,,,,,,,,0.287962949,-0.136111153,1,0,0,anarchie,0,37,37,16,1
,,,,,,00059,2023-10-18_12h01.31.591,vbt_B1_day2,2022.2.4,Win32,60.48509043,,,,,,,,,,,,,,,,,,,,,,,,,,,,,,,,,,,,,,,,,,zomers,images/br_zomers.png,images/cb_zomers.png,,zomers,,,,,,,,,,,0.287962949,-0.136111153,1,0,0,zomers,0,38,38,48,1
,,,,,,00059,2023-10-18_12h01.31.591,vbt_B1_day2,2022.2.4,Win32,60.48509043,,,,,,,,,,,,,,,,,,,,,,,,,,,,,,,,,,,,,,,,,,sjijfel,images/br_sjijfel.png,images/cb_sjijfel.png,,sjij...,,,,,,,,,,,0.287962949,-0.136111153,1,0,0,sjij...,0,39,39,33,1
,,,,,,00059,2023-10-18_12h01.31.591,vbt_B1_day2,2022.2.4,Win32,60.48509043,,,,,,,,,,,,,,,,,,,,,,,,,,,,,,,,,,,,,,,,,,kenzis,images/br_kenzis.png,images/cb_kenzis.png,,kenzis,,,,,,,,,,,0.287962949,-0.136111153,1,0,0,kenzis,0,40,40,30,1
,,,,,,00059,2023-10-18_12h01.31.591,vbt_B1_day2,2022.2.4,Win32,60.48509043,,,,,,,,,,,,,,,,,,,,,,,,,,,,,,,,,,,,,,,,,,zwager,images/br_zwager.png,images/cb_zwager.png,,zwager,,,,,,,,,,,0.287962949,-0.136111153,1,0,0,zwager,0,41,41,49,1
,,,,,,00059,2023-10-18_12h01.31.591,vbt_B1_day2,2022.2.4,Win32,60.48509043,,,,,,,,,,,,,,,,,,,,,,,,,,,,,,,,,,,,,,,,,,moes,images/br_moes.png,images/cb_moes.png,,moes,,,,,,,,,,,0.287962949,-0.136111153,1,0,0,moes,0,42,42,0,1
,,,,,,00059,2023-10-18_12h01.31.591,vbt_B1_day2,2022.2.4,Win32,60.48509043,,,,,,,,,,,,,,,,,,,,,,,,,,,,,,,,,,,,,,,,,,prekken,images/br_prekken.png,images/cb_prekken.png,,prekken,,,,,,,,,,,0.287962949,-0.136111153,1,0,0,prekken,0,43,43,34,1
,,,,,,00059,2023-10-18_12h01.31.591,vbt_B1_day2,2022.2.4,Win32,60.48509043,,,,,,,,,,,,,,,,,,,,,,,,,,,,,,,,,,,,,,,,,,wijve,images/br_wijve.png,images/cb_wijve.png,,wijve,,,,,,,,,,,0.287962949,-0.136111153,1,0,0,wijve,0,44,44,27,1
,,,,,,00059,2023-10-18_12h01.31.591,vbt_B1_day2,2022.2.4,Win32,60.48509043,,,,,,,,,,,,,,,,,,,,,,,,,,,,,,,,,,,,,,,,,,opdatten,images/br_opdatten.png,images/cb_opdatten.png,,opdrt...,,,,,,,,,,,0.287962949,-0.136111153,1,0,0,opdrt...,0,45,45,37,1
,,,,,,00059,2023-10-18_12h01.31.591,vbt_B1_day2,2022.2.4,Win32,60.48509043,,,,,,,,,,,,,,,,,,,,,,,,,,,,,,,,,,,,,,,,,,negel,images/br_negel.png,images/cb_negel.png,,zegel,,,,,,,,,,,0.287962949,-0.136111153,1,0,0,zegel,0,46,46,24,1
,,,,,,00059,2023-10-18_12h01.31.591,vbt_B1_day2,2022.2.4,Win32,60.48509043,,,,,,,,,,,,,,,,,,,,,,,,,,,,,,,,,,,,,,,,,,woning,images/br_woning.png,images/cb_woning.png,,woning,,,,,,,,,,,0.287962949,-0.136111153,1,0,0,woning,0,47,47,10,1
,,,,,,00059,2023-10-18_12h01.31.591,vbt_B1_day2,2022.2.4,Win32,60.48509043,,,,,,,,,,,,,,,,,,,,,,,,,,,,,,,,,,,,,,,,,,piste,images/br_piste.png,images/cb_piste.png,,piste,,,,,,,,,,,0.287962949,-0.136111153,1,0,0,piste,0,48,48,5,1
,,,,,,00059,2023-10-18_12h01.31.591,vbt_B1_day2,2022.2.4,Win32,60.48509043,,,,,,,,,,,,,,,,,,,,,,,,,,,,,,,,,,,,,,,,,,stes,images/br_stes.png,images/cb_stes.png,,stes,,,,,,,,,,,0.287962949,-0.136111153,1,0,0,stes,0,49,49,21,1
,,,,,,00059,2023-10-18_12h01.31.591,vbt_B1_day2,2022.2.4,Win32,60.48509043,,,,,,,,,,,,,,,,,,,,,,,,,,,,,,,,,,,,,,,,,,welzijn,images/br_welzijn.png,images/cb_welzijn.png,,welnijs,,,,,,,,,,,0.287962949,-0.136111153,1,0,0,welnijs,0,50,50,52,1
,,,,,,00059,2023-10-18_12h01.31.591,vbt_B1_day2,2022.2.4,Win32,60.48509043,,,,,,,,,,,,,,,,,,,,,,,,,,,,,,,,,,,,,,,,,,aanzien,images/br_aanzien.png,images/cb_aanzien.png,,aanzien,,,,,,,,,,,0.287962949,-0.136111153,1,0,0,aanzien,0,51,51,13,1
,,,,,,00059,2023-10-18_12h01.31.591,vbt_B1_day2,2022.2.4,Win32,60.48509043,,,,,,,,,,,,,,,,,,,,,,,,,,,,,,,,,,,,,,,,,,trots,images/br_trots.png,images/cb_trots.png,,trots,,,,,,,,,,,0.287962949,-0.136111153,1,0,0,trots,0,52,52,44,1
,,,,,,00059,2023-10-18_12h01.31.591,vbt_B1_day2,2022.2.4,Win32,60.48509043,,,,,,,,,,,,,,,,,,,,,,,,,,,,,,,,,,,,,,,,,,ningen,images/br_ningen.png,images/cb_ningen.png,,ningen,,,,,,,,,,,0.287962949,-0.136111153,1,0,0,ningen,0,53,53,28,1
,,,,,,00059,2023-10-18_12h01.31.591,vbt_B1_day2,2022.2.4,Win32,60.48509043,,,,,,,,,,,,,,,,,,,,,,,,,,,,,,,,,,,,,,,,,,jong,images/br_jong.png,images/cb_jong.png,,jong,,,,,,,,,,,0.287962949,-0.136111153,1,0,0,jong,0,54,54,43,1
,,,,,,00059,2023-10-18_12h01.31.591,vbt_B1_day2,2022.2.4,Win32,60.48509043,,,,,,,,,,,,,,,,,,,,,,,,,,,,,,,,,,,,,,,,,,koorts,images/br_koorts.png,images/cb_koorts.png,,koorts,,,,,,,,,,,0.287962949,-0.136111153,1,0,0,koorts,0,55,55,50,1
,,,,,,00059,2023-10-18_12h01.31.591,vbt_B1_day2,2022.2.4,Win32,60.48509043,,,,,,,,,,,,,,,,,,,,,,,,,,,,,,,,,,,,,,,,,,ophuimen,images/br_ophuimen.png,images/cb_ophuimen.png,,ophuimen,,,,,,,,,,,0.287962949,-0.136111153,1,0,0,ophuimen,0,56,56,36,1
,,,,,,00059,2023-10-18_12h01.31.591,vbt_B1_day2,2022.2.4,Win32,60.48509043,,,,,,,,,,,,,,,,,,,,,,,,,,,,,,,,,,,,,,,,,,tweeling,images/br_tweeling.png,images/cb_tweeling.png,,tweeling,,,,,,,,,,,0.287962949,-0.136111153,1,0,0,tweeling,0,57,57,58,1
,,,,,,00059,2023-10-18_12h01.31.591,vbt_B1_day2,2022.2.4,Win32,60.48509043,,,,,,,,,,,,,,,,,,,,,,,,,,,,,,,,,,,,,,,,,,doodmoe,images/br_doodmoe.png,images/cb_doodmoe.png,,doodmoe,,,,,,,,,,,0.287962949,-0.136111153,1,0,0,doodmoe,0,58,58,15,1
,,,,,,00059,2023-10-18_12h01.31.591,vbt_B1_day2,2022.2.4,Win32,60.48509043,,,,,,,,,,,,,,,,,,,,,,,,,,,,,,,,,,,,,,,,,,aanvraag,images/br_aanvraag.png,images/cb_aanvraag.png,,aanvraag,,,,,,,,,,,0.287962949,-0.136111153,1,0,0,aanvraag,0,59,59,57,1
,,,,,,00059,2023-10-18_12h01.31.591,vbt_B1_day2,2022.2.4,Win32,60.48509043,,,,,,,,,,,,,,,,,,,,,,,,,,,,,,,,,,,,,,,,,,,,,,,,,,,,,,,,,,,,,,,,,,,
