welcome_mouse.x,welcome_mouse.y,welcome_mouse.leftButton,welcome_mouse.midButton,welcome_mouse.rightButton,welcome_mouse.time,"ID",date,expName,psychopyVersion,OS,frameRate,refresh_mouse.x,refresh_mouse.y,refresh_mouse.leftButton,refresh_mouse.midButton,refresh_mouse.rightButton,refresh_mouse.time,braille_mouse.x,braille_mouse.y,braille_mouse.leftButton,braille_mouse.midButton,braille_mouse.rightButton,braille_mouse.time,trials.thisRepN,trials.thisTrialN,trials.thisN,trials.thisIndex,trials.ran,nlLet,brLet,cbLet,trainInstr_mouse.x,trainInstr_mouse.y,trainInstr_mouse.leftButton,trainInstr_mouse.midButton,trainInstr_mouse.rightButton,trainInstr_mouse.time,translation_key.keys,translation_key.corr,translation_key.rt,word_rsp.text,word_mouse.x,word_mouse.y,word_mouse.leftButton,word_mouse.midButton,word_mouse.rightButton,word_mouse.time,train_loop.thisRepN,train_loop.thisTrialN,train_loop.thisN,train_loop.thisIndex,train_loop.ran,nlWrd,brWrd,cbWrd,test,testResp,mouse.x,mouse.y,mouse.leftButton,mouse.midButton,mouse.rightButton,testInstr_mouse.x,testInstr_mouse.y,testInstr_mouse.leftButton,testInstr_mouse.midButton,testInstr_mouse.rightButton,test_mouse.x,test_mouse.y,test_mouse.leftButton,test_mouse.midButton,test_mouse.rightButton,test_response.text,test_loop.thisRepN,test_loop.thisTrialN,test_loop.thisN,test_loop.thisIndex,test_loop.ran
0.309259344,-0.098148134,1,0,0,1.67,00060,2023-10-11_18h21.19.137,vbt_B1_day2,2022.2.4,Win32,62.5,,,,,,,,,,,,,,,,,,,,,,,,,,,,,,,,,,,,,,,,,,,,,,,,,,,,,,,,,,,,,,,,,,,
,,,,,,00060,2023-10-11_18h21.19.137,vbt_B1_day2,2022.2.4,Win32,62.5,0.311111168,-0.045370384,1,0,0,2.896,,,,,,,,,,,,,,,,,,,,,,,,,,,,,,,,,,,,,,,,,,,,,,,,,,,,,,,,,,,,,
,,,,,,00060,2023-10-11_18h21.19.137,vbt_B1_day2,2022.2.4,Win32,62.5,,,,,,,0.285185213,-0.137962977,1,0,0,1.333,0,0,0,24,1,y,images/br_y.png,images/cb_y.png,,,,,,,,,,,,,,,,,,,,,,,,,,,,,,,,,,,,,,,,,,,,,,,
,,,,,,00060,2023-10-11_18h21.19.137,vbt_B1_day2,2022.2.4,Win32,62.5,,,,,,,0.285185213,-0.137962977,1,0,0,0.549,0,1,1,20,1,u,images/br_u.png,images/cb_u.png,,,,,,,,,,,,,,,,,,,,,,,,,,,,,,,,,,,,,,,,,,,,,,,
,,,,,,00060,2023-10-11_18h21.19.137,vbt_B1_day2,2022.2.4,Win32,62.5,,,,,,,0.205555598,-0.122222265,1,0,0,0.15,0,2,2,6,1,g,images/br_g.png,images/cb_g.png,,,,,,,,,,,,,,,,,,,,,,,,,,,,,,,,,,,,,,,,,,,,,,,
,,,,,,00060,2023-10-11_18h21.19.137,vbt_B1_day2,2022.2.4,Win32,62.5,,,,,,,0.205555598,-0.122222265,1,0,0,1.1,0,3,3,9,1,j,images/br_j.png,images/cb_j.png,,,,,,,,,,,,,,,,,,,,,,,,,,,,,,,,,,,,,,,,,,,,,,,
,,,,,,00060,2023-10-11_18h21.19.137,vbt_B1_day2,2022.2.4,Win32,62.5,,,,,,,0.205555598,-0.122222265,1,0,0,0.932,0,4,4,22,1,w,images/br_w.png,images/cb_w.png,,,,,,,,,,,,,,,,,,,,,,,,,,,,,,,,,,,,,,,,,,,,,,,
,,,,,,00060,2023-10-11_18h21.19.137,vbt_B1_day2,2022.2.4,Win32,62.5,,,,,,,0.205555598,-0.122222265,1,0,0,0.402,0,5,5,5,1,f,images/br_f.png,images/cb_f.png,,,,,,,,,,,,,,,,,,,,,,,,,,,,,,,,,,,,,,,,,,,,,,,
,,,,,,00060,2023-10-11_18h21.19.137,vbt_B1_day2,2022.2.4,Win32,62.5,,,,,,,0.205555598,-0.122222265,1,0,0,0.734,0,6,6,10,1,k,images/br_k.png,images/cb_k.png,,,,,,,,,,,,,,,,,,,,,,,,,,,,,,,,,,,,,,,,,,,,,,,
,,,,,,00060,2023-10-11_18h21.19.137,vbt_B1_day2,2022.2.4,Win32,62.5,,,,,,,0.205555598,-0.122222265,1,0,0,1.5,0,7,7,18,1,s,images/br_s.png,images/cb_s.png,,,,,,,,,,,,,,,,,,,,,,,,,,,,,,,,,,,,,,,,,,,,,,,
,,,,,,00060,2023-10-11_18h21.19.137,vbt_B1_day2,2022.2.4,Win32,62.5,,,,,,,0.205555598,-0.122222265,1,0,0,1.001,0,8,8,2,1,c,images/br_c.png,images/cb_c.png,,,,,,,,,,,,,,,,,,,,,,,,,,,,,,,,,,,,,,,,,,,,,,,
,,,,,,00060,2023-10-11_18h21.19.137,vbt_B1_day2,2022.2.4,Win32,62.5,,,,,,,0.205555598,-0.122222265,1,0,0,2.433,0,9,9,12,1,m,images/br_m.png,images/cb_m.png,,,,,,,,,,,,,,,,,,,,,,,,,,,,,,,,,,,,,,,,,,,,,,,
,,,,,,00060,2023-10-11_18h21.19.137,vbt_B1_day2,2022.2.4,Win32,62.5,,,,,,,0.205555598,-0.122222265,1,0,0,0.616,0,10,10,4,1,e,images/br_e.png,images/cb_e.png,,,,,,,,,,,,,,,,,,,,,,,,,,,,,,,,,,,,,,,,,,,,,,,
,,,,,,00060,2023-10-11_18h21.19.137,vbt_B1_day2,2022.2.4,Win32,62.5,,,,,,,0.22592594,-0.108333376,1,0,0,0.334,0,11,11,17,1,r,images/br_r.png,images/cb_r.png,,,,,,,,,,,,,,,,,,,,,,,,,,,,,,,,,,,,,,,,,,,,,,,
,,,,,,00060,2023-10-11_18h21.19.137,vbt_B1_day2,2022.2.4,Win32,62.5,,,,,,,0.22592594,-0.108333376,1,0,0,0.401,0,12,12,11,1,l,images/br_l.png,images/cb_l.png,,,,,,,,,,,,,,,,,,,,,,,,,,,,,,,,,,,,,,,,,,,,,,,
,,,,,,00060,2023-10-11_18h21.19.137,vbt_B1_day2,2022.2.4,Win32,62.5,,,,,,,0.22592594,-0.108333376,1,0,0,0.267,0,13,13,0,1,a,images/br_a.png,images/cb_a.png,,,,,,,,,,,,,,,,,,,,,,,,,,,,,,,,,,,,,,,,,,,,,,,
,,,,,,00060,2023-10-11_18h21.19.137,vbt_B1_day2,2022.2.4,Win32,62.5,,,,,,,0.22592594,-0.108333376,1,0,0,0.4,0,14,14,3,1,d,images/br_d.png,images/cb_d.png,,,,,,,,,,,,,,,,,,,,,,,,,,,,,,,,,,,,,,,,,,,,,,,
,,,,,,00060,2023-10-11_18h21.19.137,vbt_B1_day2,2022.2.4,Win32,62.5,,,,,,,0.22592594,-0.108333376,1,0,0,0.683,0,15,15,25,1,z,images/br_z.png,images/cb_z.png,,,,,,,,,,,,,,,,,,,,,,,,,,,,,,,,,,,,,,,,,,,,,,,
,,,,,,00060,2023-10-11_18h21.19.137,vbt_B1_day2,2022.2.4,Win32,62.5,,,,,,,0.22592594,-0.108333376,1,0,0,0.084,0,16,16,23,1,x,images/br_x.png,images/cb_x.png,,,,,,,,,,,,,,,,,,,,,,,,,,,,,,,,,,,,,,,,,,,,,,,
,,,,,,00060,2023-10-11_18h21.19.137,vbt_B1_day2,2022.2.4,Win32,62.5,,,,,,,0.22592594,-0.108333376,1,0,0,8.016,0,17,17,19,1,t,images/br_t.png,images/cb_t.png,,,,,,,,,,,,,,,,,,,,,,,,,,,,,,,,,,,,,,,,,,,,,,,
,,,,,,00060,2023-10-11_18h21.19.137,vbt_B1_day2,2022.2.4,Win32,62.5,,,,,,,0.220370399,-0.066666674,1,0,0,0.6,0,18,18,8,1,i,images/br_i.png,images/cb_i.png,,,,,,,,,,,,,,,,,,,,,,,,,,,,,,,,,,,,,,,,,,,,,,,
,,,,,,00060,2023-10-11_18h21.19.137,vbt_B1_day2,2022.2.4,Win32,62.5,,,,,,,0.220370399,-0.066666674,1,0,0,0.767,0,19,19,13,1,n,images/br_n.png,images/cb_n.png,,,,,,,,,,,,,,,,,,,,,,,,,,,,,,,,,,,,,,,,,,,,,,,
,,,,,,00060,2023-10-11_18h21.19.137,vbt_B1_day2,2022.2.4,Win32,62.5,,,,,,,0.219444487,-0.072222215,1,0,0,0.416,0,20,20,14,1,o,images/br_o.png,images/cb_o.png,,,,,,,,,,,,,,,,,,,,,,,,,,,,,,,,,,,,,,,,,,,,,,,
,,,,,,00060,2023-10-11_18h21.19.137,vbt_B1_day2,2022.2.4,Win32,62.5,,,,,,,0.195370356,-0.035185178,1,0,0,0.7,0,21,21,15,1,p,images/br_p.png,images/cb_p.png,,,,,,,,,,,,,,,,,,,,,,,,,,,,,,,,,,,,,,,,,,,,,,,
,,,,,,00060,2023-10-11_18h21.19.137,vbt_B1_day2,2022.2.4,Win32,62.5,,,,,,,0.195370356,-0.035185178,1,0,0,0.983,0,22,22,1,1,b,images/br_b.png,images/cb_b.png,,,,,,,,,,,,,,,,,,,,,,,,,,,,,,,,,,,,,,,,,,,,,,,
,,,,,,00060,2023-10-11_18h21.19.137,vbt_B1_day2,2022.2.4,Win32,62.5,,,,,,,0.195370356,-0.035185178,1,0,0,0.733,0,23,23,16,1,q,images/br_q.png,images/cb_q.png,,,,,,,,,,,,,,,,,,,,,,,,,,,,,,,,,,,,,,,,,,,,,,,
,,,,,,00060,2023-10-11_18h21.19.137,vbt_B1_day2,2022.2.4,Win32,62.5,,,,,,,0.195370356,-0.035185178,1,0,0,0.983,0,24,24,21,1,v,images/br_v.png,images/cb_v.png,,,,,,,,,,,,,,,,,,,,,,,,,,,,,,,,,,,,,,,,,,,,,,,
,,,,,,00060,2023-10-11_18h21.19.137,vbt_B1_day2,2022.2.4,Win32,62.5,,,,,,,0.195370356,-0.035185178,1,0,0,0.801,0,25,25,7,1,h,images/br_h.png,images/cb_h.png,,,,,,,,,,,,,,,,,,,,,,,,,,,,,,,,,,,,,,,,,,,,,,,
,,,,,,00060,2023-10-11_18h21.19.137,vbt_B1_day2,2022.2.4,Win32,62.5,,,,,,,,,,,,,,,,,,,,,0.235185199,0.041666667,1,0,0,25.784,,,,,,,,,,,,,,,,,,,,,,,,,,,,,,,,,,,,,,,,,
,,,,,,00060,2023-10-11_18h21.19.137,vbt_B1_day2,2022.2.4,Win32,62.5,,,,,,,,,,,,,,,,,,,,,,,,,,,down,0,8.397,,0.457407492,-0.046296296,1,0,0,3.213,0,0,0,24,1,jurk,images/br_jurk.png,images/cb_jurk.png,0,,,,,,,,,,,,,,,,,,,,,,
,,,,,,00060,2023-10-11_18h21.19.137,vbt_B1_day2,2022.2.4,Win32,62.5,,,,,,,,,,,,,,,,,,,,,,,,,,,down,0,10.999,,0.486111111,-0.061111132,1,0,0,1.183,0,1,1,89,1,slapen,images/br_slapen.png,images/cb_slapen.png,0,,,,,,,,,,,,,,,,,,,,,,
,,,,,,00060,2023-10-11_18h21.19.137,vbt_B1_day2,2022.2.4,Win32,62.5,,,,,,,,,,,,,,,,,,,,,,,,,,,down,0,28.514,,0.486111111,-0.061111132,1,0,0,5.248,0,2,2,147,1,komisch,images/br_komisch.png,images/cb_komisch.png,0,,,,,,,,,,,,,,,,,,,,,,
,,,,,,00060,2023-10-11_18h21.19.137,vbt_B1_day2,2022.2.4,Win32,62.5,,,,,,,,,,,,,,,,,,,,,,,,,,,down,0,3.803,,0.486111111,-0.061111132,1,0,0,1.4,0,3,3,1,1,zaal,images/br_zaal.png,images/cb_zaal.png,0,,,,,,,,,,,,,,,,,,,,,,
,,,,,,00060,2023-10-11_18h21.19.137,vbt_B1_day2,2022.2.4,Win32,62.5,,,,,,,,,,,,,,,,,,,,,,,,,,,down,0,3.306,,0.486111111,-0.061111132,1,0,0,1.349,0,4,4,5,1,blad,images/br_blad.png,images/cb_blad.png,0,,,,,,,,,,,,,,,,,,,,,,
,,,,,,00060,2023-10-11_18h21.19.137,vbt_B1_day2,2022.2.4,Win32,62.5,,,,,,,,,,,,,,,,,,,,,,,,,,,down,0,2.673,,0.486111111,-0.061111132,1,0,0,0.834,0,5,5,33,1,vlek,images/br_vlek.png,images/cb_vlek.png,0,,,,,,,,,,,,,,,,,,,,,,
,,,,,,00060,2023-10-11_18h21.19.137,vbt_B1_day2,2022.2.4,Win32,62.5,,,,,,,,,,,,,,,,,,,,,,,,,,,down,0,16.167,,0.466666751,-0.069444444,1,0,0,0.768,0,6,6,21,1,mist,images/br_mist.png,images/cb_mist.png,0,,,,,,,,,,,,,,,,,,,,,,
,,,,,,00060,2023-10-11_18h21.19.137,vbt_B1_day2,2022.2.4,Win32,62.5,,,,,,,,,,,,,,,,,,,,,,,,,,,down,0,12.649,,0.466666751,-0.069444444,1,0,0,0.95,0,7,7,124,1,bloeien,images/br_bloeien.png,images/cb_bloeien.png,0,,,,,,,,,,,,,,,,,,,,,,
,,,,,,00060,2023-10-11_18h21.19.137,vbt_B1_day2,2022.2.4,Win32,62.5,,,,,,,,,,,,,,,,,,,,,,,,,,,down,0,6.876,,0.498148176,-0.034259266,1,0,0,1.85,0,8,8,27,1,dans,images/br_dans.png,images/cb_dans.png,0,,,,,,,,,,,,,,,,,,,,,,
,,,,,,00060,2023-10-11_18h21.19.137,vbt_B1_day2,2022.2.4,Win32,62.5,,,,,,,,,,,,,,,,,,,,,,,,,,,down,0,9.965,,0.498148176,-0.034259266,1,0,0,0.916,0,9,9,133,1,seizoen,images/br_seizoen.png,images/cb_seizoen.png,0,,,,,,,,,,,,,,,,,,,,,,
,,,,,,00060,2023-10-11_18h21.19.137,vbt_B1_day2,2022.2.4,Win32,62.5,,,,,,,,,,,,,,,,,,,,,,,,,,,down,0,2.917,,0.498148176,-0.034259266,1,0,0,3.117,0,10,10,32,1,palm,images/br_palm.png,images/cb_palm.png,0,,,,,,,,,,,,,,,,,,,,,,
,,,,,,00060,2023-10-11_18h21.19.137,vbt_B1_day2,2022.2.4,Win32,62.5,,,,,,,,,,,,,,,,,,,,,,,,,,,down,0,7.567,,0.498148176,-0.034259266,1,0,0,1.482,0,11,11,172,1,weigeren,images/br_weigeren.png,images/cb_weigeren.png,0,,,,,,,,,,,,,,,,,,,,,,
,,,,,,00060,2023-10-11_18h21.19.137,vbt_B1_day2,2022.2.4,Win32,62.5,,,,,,,,,,,,,,,,,,,,,,,,,,,down,0,16.798,,0.434259344,-0.112037023,1,0,0,3.383,0,12,12,176,1,techniek,images/br_techniek.png,images/cb_techniek.png,1,techniek,,,,,,,,,,,,,,,,,,,,,
,,,,,,00060,2023-10-11_18h21.19.137,vbt_B1_day2,2022.2.4,Win32,62.5,,,,,,,,,,,,,,,,,,,,,,,,,,,down,0,4.527,,0.385185242,-0.143518519,1,0,0,1.182,0,13,13,34,1,vorm,images/br_vorm.png,images/cb_vorm.png,0,,,,,,,,,,,,,,,,,,,,,,
,,,,,,00060,2023-10-11_18h21.19.137,vbt_B1_day2,2022.2.4,Win32,62.5,,,,,,,,,,,,,,,,,,,,,,,,,,,down,0,12.317,,0.325925898,-0.167592578,1,0,0,1.066,0,14,14,188,1,strekken,images/br_strekken.png,images/cb_strekken.png,0,,,,,,,,,,,,,,,,,,,,,,
,,,,,,00060,2023-10-11_18h21.19.137,vbt_B1_day2,2022.2.4,Win32,62.5,,,,,,,,,,,,,,,,,,,,,,,,,,,down,0,3.751,,0.320370427,-0.160185213,1,0,0,0.617,0,15,15,77,1,woede,images/br_woede.png,images/cb_woede.png,0,,,,,,,,,,,,,,,,,,,,,,
,,,,,,00060,2023-10-11_18h21.19.137,vbt_B1_day2,2022.2.4,Win32,62.5,,,,,,,,,,,,,,,,,,,,,,,,,,,down,0,8.586,,0.313888974,-0.159259302,1,0,0,1.416,0,16,16,8,1,knie,images/br_knie.png,images/cb_knie.png,0,,,,,,,,,,,,,,,,,,,,,,
,,,,,,00060,2023-10-11_18h21.19.137,vbt_B1_day2,2022.2.4,Win32,62.5,,,,,,,,,,,,,,,,,,,,,,,,,,,down,0,13.191,,0.313888974,-0.159259302,1,0,0,1.118,0,17,17,151,1,aanzoek,images/br_aanzoek.png,images/cb_aanzoek.png,0,,,,,,,,,,,,,,,,,,,,,,
,,,,,,00060,2023-10-11_18h21.19.137,vbt_B1_day2,2022.2.4,Win32,62.5,,,,,,,,,,,,,,,,,,,,,,,,,,,down,0,2.818,,0.436111168,-0.176851838,1,0,0,1.9,0,18,18,56,1,traag,images/br_traag.png,images/cb_traag.png,1,traag,,,,,,,,,,,,,,,,,,,,,
,,,,,,00060,2023-10-11_18h21.19.137,vbt_B1_day2,2022.2.4,Win32,62.5,,,,,,,,,,,,,,,,,,,,,,,,,,,down,0,7.327,,0.425000085,-0.22129631,1,0,0,0.633,0,19,19,118,1,vinger,images/br_vinger.png,images/cb_vinger.png,0,,,,,,,,,,,,,,,,,,,,,,
,,,,,,00060,2023-10-11_18h21.19.137,vbt_B1_day2,2022.2.4,Win32,62.5,,,,,,,,,,,,,,,,,,,,,,,,,,,down,0,7.669,,0.369444529,-0.106481481,1,0,0,0.917,0,20,20,184,1,aandelen,images/br_aandelen.png,images/cb_aandelen.png,0,,,,,,,,,,,,,,,,,,,,,,
,,,,,,00060,2023-10-11_18h21.19.137,vbt_B1_day2,2022.2.4,Win32,62.5,,,,,,,,,,,,,,,,,,,,,,,,,,,down,0,4,,0.369444529,-0.106481481,1,0,0,1.216,0,21,21,95,1,vreten,images/br_vreten.png,images/cb_vreten.png,0,,,,,,,,,,,,,,,,,,,,,,
,,,,,,00060,2023-10-11_18h21.19.137,vbt_B1_day2,2022.2.4,Win32,62.5,,,,,,,,,,,,,,,,,,,,,,,,,,,down,0,12.5,,0.369444529,-0.10555557,1,0,0,0.983,0,22,22,185,1,mijnheer,images/br_mijnheer.png,images/cb_mijnheer.png,0,,,,,,,,,,,,,,,,,,,,,,
,,,,,,00060,2023-10-11_18h21.19.137,vbt_B1_day2,2022.2.4,Win32,62.5,,,,,,,,,,,,,,,,,,,,,,,,,,,down,0,6.835,,0.304629714,-0.089814822,1,0,0,0.532,0,23,23,101,1,staren,images/br_staren.png,images/cb_staren.png,0,,,,,,,,,,,,,,,,,,,,,,
,,,,,,00060,2023-10-11_18h21.19.137,vbt_B1_day2,2022.2.4,Win32,62.5,,,,,,,,,,,,,,,,,,,,,,,,,,,down,0,2.305,,0.282407407,-0.021296289,1,0,0,0.683,0,24,24,39,1,laag,images/br_laag.png,images/cb_laag.png,0,,,,,,,,,,,,,,,,,,,,,,
,,,,,,00060,2023-10-11_18h21.19.137,vbt_B1_day2,2022.2.4,Win32,62.5,,,,,,,,,,,,,,,,,,,,,,,,,,,down,0,12.514,,0.300000085,-0.048148155,1,0,0,1.866,0,25,25,159,1,sufferd,images/br_sufferd.png,images/cb_sufferd.png,0,,,,,,,,,,,,,,,,,,,,,,
,,,,,,00060,2023-10-11_18h21.19.137,vbt_B1_day2,2022.2.4,Win32,62.5,,,,,,,,,,,,,,,,,,,,,,,,,,,down,0,3.666,,0.313888974,-0.073148162,1,0,0,0.832,0,26,26,113,1,koppen,images/br_koppen.png,images/cb_koppen.png,0,,,,,,,,,,,,,,,,,,,,,,
,,,,,,00060,2023-10-11_18h21.19.137,vbt_B1_day2,2022.2.4,Win32,62.5,,,,,,,,,,,,,,,,,,,,,,,,,,,down,0,4.134,,0.310185185,-0.073148162,1,0,0,2.15,0,27,27,126,1,kasteel,images/br_kasteel.png,images/cb_kasteel.png,0,,,,,,,,,,,,,,,,,,,,,,
,,,,,,00060,2023-10-11_18h21.19.137,vbt_B1_day2,2022.2.4,Win32,62.5,,,,,,,,,,,,,,,,,,,,,,,,,,,down,0,7.535,,0.35555564,-0.049074067,1,0,0,0.567,0,28,28,3,1,mand,images/br_mand.png,images/cb_mand.png,0,,,,,,,,,,,,,,,,,,,,,,
,,,,,,00060,2023-10-11_18h21.19.137,vbt_B1_day2,2022.2.4,Win32,62.5,,,,,,,,,,,,,,,,,,,,,,,,,,,down,0,6.472,,0.441666638,-0.081481474,1,0,0,4.749,0,29,29,146,1,opkomen,images/br_opkomen.png,images/cb_opkomen.png,0,,,,,,,,,,,,,,,,,,,,,,
,,,,,,00060,2023-10-11_18h21.19.137,vbt_B1_day2,2022.2.4,Win32,62.5,,,,,,,,,,,,,,,,,,,,,,,,,,,down,0,7.051,,0.345370399,-0.107407393,1,0,0,0.984,0,30,30,125,1,aanzien,images/br_aanzien.png,images/cb_aanzien.png,0,,,,,,,,,,,,,,,,,,,,,,
,,,,,,00060,2023-10-11_18h21.19.137,vbt_B1_day2,2022.2.4,Win32,62.5,,,,,,,,,,,,,,,,,,,,,,,,,,,down,0,8.033,,0.338888945,-0.117592635,1,0,0,1.149,0,31,31,94,1,oceaan,images/br_oceaan.png,images/cb_oceaan.png,0,,,,,,,,,,,,,,,,,,,,,,
,,,,,,00060,2023-10-11_18h21.19.137,vbt_B1_day2,2022.2.4,Win32,62.5,,,,,,,,,,,,,,,,,,,,,,,,,,,down,0,12.308,,0.270370413,-0.127777806,1,0,0,1.634,0,32,32,36,1,vuur,images/br_vuur.png,images/cb_vuur.png,0,,,,,,,,,,,,,,,,,,,,,,
,,,,,,00060,2023-10-11_18h21.19.137,vbt_B1_day2,2022.2.4,Win32,62.5,,,,,,,,,,,,,,,,,,,,,,,,,,,down,0,2.767,,0.32685188,-0.047222243,1,0,0,1,0,33,33,38,1,baai,images/br_baai.png,images/cb_baai.png,0,,,,,,,,,,,,,,,,,,,,,,
,,,,,,00060,2023-10-11_18h21.19.137,vbt_B1_day2,2022.2.4,Win32,62.5,,,,,,,,,,,,,,,,,,,,,,,,,,,down,0,7.35,,0.32685188,-0.047222243,1,0,0,2.05,0,34,34,104,1,zweven,images/br_zweven.png,images/cb_zweven.png,0,,,,,,,,,,,,,,,,,,,,,,
,,,,,,00060,2023-10-11_18h21.19.137,vbt_B1_day2,2022.2.4,Win32,62.5,,,,,,,,,,,,,,,,,,,,,,,,,,,down,0,3.416,,0.308333362,-0.053703697,1,0,0,0.818,0,35,35,92,1,geheim,images/br_geheim.png,images/cb_geheim.png,0,,,,,,,,,,,,,,,,,,,,,,
,,,,,,00060,2023-10-11_18h21.19.137,vbt_B1_day2,2022.2.4,Win32,62.5,,,,,,,,,,,,,,,,,,,,,,,,,,,down,0,2.432,,0.347222222,-0.051851873,1,0,0,2.45,0,36,36,17,1,taal,images/br_taal.png,images/cb_taal.png,1,taal,,,,,,,,,,,,,,,,,,,,,
,,,,,,00060,2023-10-11_18h21.19.137,vbt_B1_day2,2022.2.4,Win32,62.5,,,,,,,,,,,,,,,,,,,,,,,,,,,down,0,7.814,,0.275925954,-0.000925947,1,0,0,0.95,0,37,37,90,1,geluid,images/br_geluid.png,images/cb_geluid.png,0,,,,,,,,,,,,,,,,,,,,,,
,,,,,,00060,2023-10-11_18h21.19.137,vbt_B1_day2,2022.2.4,Win32,62.5,,,,,,,,,,,,,,,,,,,,,,,,,,,down,0,8.12,,0.275925954,-0.033333355,1,0,0,0.982,0,38,38,108,1,excuus,images/br_excuus.png,images/cb_excuus.png,0,,,,,,,,,,,,,,,,,,,,,,
,,,,,,00060,2023-10-11_18h21.19.137,vbt_B1_day2,2022.2.4,Win32,62.5,,,,,,,,,,,,,,,,,,,,,,,,,,,down,0,2.528,,0.300000085,-0.055555556,1,0,0,1.249,0,39,39,81,1,dubbel,images/br_dubbel.png,images/cb_dubbel.png,0,,,,,,,,,,,,,,,,,,,,,,
,,,,,,00060,2023-10-11_18h21.19.137,vbt_B1_day2,2022.2.4,Win32,62.5,,,,,,,,,,,,,,,,,,,,,,,,,,,down,0,6.934,,0.280555584,-0.107407393,1,0,0,0.866,0,40,40,145,1,invloed,images/br_invloed.png,images/cb_invloed.png,0,,,,,,,,,,,,,,,,,,,,,,
,,,,,,00060,2023-10-11_18h21.19.137,vbt_B1_day2,2022.2.4,Win32,62.5,,,,,,,,,,,,,,,,,,,,,,,,,,,down,0,2.721,,0.25462963,-0.135185171,1,0,0,0.766,0,41,41,88,1,boeien,images/br_boeien.png,images/cb_boeien.png,0,,,,,,,,,,,,,,,,,,,,,,
,,,,,,00060,2023-10-11_18h21.19.137,vbt_B1_day2,2022.2.4,Win32,62.5,,,,,,,,,,,,,,,,,,,,,,,,,,,down,0,5.218,,0.299074102,-0.117592635,1,0,0,0.766,0,42,42,187,1,opkijken,images/br_opkijken.png,images/cb_opkijken.png,0,,,,,,,,,,,,,,,,,,,,,,
,,,,,,00060,2023-10-11_18h21.19.137,vbt_B1_day2,2022.2.4,Win32,62.5,,,,,,,,,,,,,,,,,,,,,,,,,,,down,0,3.657,,0.367592564,-0.199999986,1,0,0,1.449,0,43,43,19,1,geit,images/br_geit.png,images/cb_geit.png,1,geit,,,,,,,,,,,,,,,,,,,,,
,,,,,,00060,2023-10-11_18h21.19.137,vbt_B1_day2,2022.2.4,Win32,62.5,,,,,,,,,,,,,,,,,,,,,,,,,,,down,0,8.651,,0.367592564,-0.19722225,1,0,0,1.016,0,44,44,44,1,flits,images/br_flits.png,images/cb_flits.png,0,,,,,,,,,,,,,,,,,,,,,,
,,,,,,00060,2023-10-11_18h21.19.137,vbt_B1_day2,2022.2.4,Win32,62.5,,,,,,,,,,,,,,,,,,,,,,,,,,,down,0,3.554,,0.257407436,-0.148148148,1,0,0,0.616,0,45,45,128,1,prikken,images/br_prikken.png,images/cb_prikken.png,0,,,,,,,,,,,,,,,,,,,,,,
,,,,,,00060,2023-10-11_18h21.19.137,vbt_B1_day2,2022.2.4,Win32,62.5,,,,,,,,,,,,,,,,,,,,,,,,,,,down,0,8.44,,0.409259231,-0.147222236,1,0,0,1.651,0,46,46,137,1,trekker,images/br_trekker.png,images/cb_trekker.png,1,trekker,,,,,,,,,,,,,,,,,,,,,
,,,,,,00060,2023-10-11_18h21.19.137,vbt_B1_day2,2022.2.4,Win32,62.5,,,,,,,,,,,,,,,,,,,,,,,,,,,down,0,4.029,,0.425000085,-0.152777778,1,0,0,0.85,0,47,47,102,1,legaal,images/br_legaal.png,images/cb_legaal.png,0,,,,,,,,,,,,,,,,,,,,,,
,,,,,,00060,2023-10-11_18h21.19.137,vbt_B1_day2,2022.2.4,Win32,62.5,,,,,,,,,,,,,,,,,,,,,,,,,,,down,0,8.417,,0.310185185,-0.125,1,0,0,5.032,0,48,48,116,1,besmet,images/br_besmet.png,images/cb_besmet.png,0,,,,,,,,,,,,,,,,,,,,,,
,,,,,,00060,2023-10-11_18h21.19.137,vbt_B1_day2,2022.2.4,Win32,62.5,,,,,,,,,,,,,,,,,,,,,,,,,,,down,0,6.517,,0.317592621,-0.151851866,1,0,0,1.299,0,49,49,168,1,bisschop,images/br_bisschop.png,images/cb_bisschop.png,0,,,,,,,,,,,,,,,,,,,,,,
,,,,,,00060,2023-10-11_18h21.19.137,vbt_B1_day2,2022.2.4,Win32,62.5,,,,,,,,,,,,,,,,,,,,,,,,,,,down,0,6.535,,0.337962963,-0.154629672,1,0,0,3.099,0,50,50,119,1,liefje,images/br_liefje.png,images/cb_liefje.png,0,,,,,,,,,,,,,,,,,,,,,,
,,,,,,00060,2023-10-11_18h21.19.137,vbt_B1_day2,2022.2.4,Win32,62.5,,,,,,,,,,,,,,,,,,,,,,,,,,,down,0,9.917,,0.413888861,-0.137962977,1,0,0,1.216,0,51,51,139,1,stiekem,images/br_stiekem.png,images/cb_stiekem.png,1,stiekem,,,,,,,,,,,,,,,,,,,,,
,,,,,,00060,2023-10-11_18h21.19.137,vbt_B1_day2,2022.2.4,Win32,62.5,,,,,,,,,,,,,,,,,,,,,,,,,,,down,0,8.233,,0.398148148,-0.138888889,1,0,0,0.7,0,52,52,134,1,geliefd,images/br_geliefd.png,images/cb_geliefd.png,0,,,,,,,,,,,,,,,,,,,,,,
,,,,,,00060,2023-10-11_18h21.19.137,vbt_B1_day2,2022.2.4,Win32,62.5,,,,,,,,,,,,,,,,,,,,,,,,,,,down,0,7.508,,0.275000042,-0.137037065,1,0,0,0.833,0,53,53,28,1,stal,images/br_stal.png,images/cb_stal.png,0,,,,,,,,,,,,,,,,,,,,,,
,,,,,,00060,2023-10-11_18h21.19.137,vbt_B1_day2,2022.2.4,Win32,62.5,,,,,,,,,,,,,,,,,,,,,,,,,,,down,0,3.104,,0.333333333,-0.126851894,1,0,0,2.283,0,54,54,99,1,koffie,images/br_koffie.png,images/cb_koffie.png,1,koffie,,,,,,,,,,,,,,,,,,,,,
,,,,,,00060,2023-10-11_18h21.19.137,vbt_B1_day2,2022.2.4,Win32,62.5,,,,,,,,,,,,,,,,,,,,,,,,,,,down,0,12.249,,0.352777834,-0.171296296,1,0,0,0.733,0,55,55,181,1,toegeven,images/br_toegeven.png,images/cb_toegeven.png,0,,,,,,,,,,,,,,,,,,,,,,
,,,,,,00060,2023-10-11_18h21.19.137,vbt_B1_day2,2022.2.4,Win32,62.5,,,,,,,,,,,,,,,,,,,,,,,,,,,down,0,2.927,,0.366666723,-0.183333362,1,0,0,0.851,0,56,56,80,1,kanjer,images/br_kanjer.png,images/cb_kanjer.png,0,,,,,,,,,,,,,,,,,,,,,,
,,,,,,00060,2023-10-11_18h21.19.137,vbt_B1_day2,2022.2.4,Win32,62.5,,,,,,,,,,,,,,,,,,,,,,,,,,,down,0,0.124,,0.366666723,-0.183333362,1,0,0,1.35,0,57,57,84,1,lokken,images/br_lokken.png,images/cb_lokken.png,0,,,,,,,,,,,,,,,,,,,,,,
,,,,,,00060,2023-10-11_18h21.19.137,vbt_B1_day2,2022.2.4,Win32,62.5,,,,,,,,,,,,,,,,,,,,,,,,,,,down,0,6.335,,0.518518519,-0.024074095,1,0,0,0.617,0,58,58,183,1,getuigen,images/br_getuigen.png,images/cb_getuigen.png,0,,,,,,,,,,,,,,,,,,,,,,
,,,,,,00060,2023-10-11_18h21.19.137,vbt_B1_day2,2022.2.4,Win32,62.5,,,,,,,,,,,,,,,,,,,,,,,,,,,down,0,2.535,,0.376851824,-0.054629644,1,0,0,1.25,0,59,59,31,1,poes,images/br_poes.png,images/cb_poes.png,0,,,,,,,,,,,,,,,,,,,,,,
,,,,,,00060,2023-10-11_18h21.19.137,vbt_B1_day2,2022.2.4,Win32,62.5,,,,,,,,,,,,,,,,,,,,,,,,,,,down,0,41.78,,0.146296325,-0.095370399,1,0,0,28.579,0,60,60,127,1,doodmoe,images/br_doodmoe.png,images/cb_doodmoe.png,0,,,,,,,,,,,,,,,,,,,,,,
,,,,,,00060,2023-10-11_18h21.19.137,vbt_B1_day2,2022.2.4,Win32,62.5,,,,,,,,,,,,,,,,,,,,,,,,,,,down,0,4.588,,0.23055557,-0.090740734,1,0,0,1.016,0,61,61,193,1,weeshuis,images/br_weeshuis.png,images/cb_weeshuis.png,0,,,,,,,,,,,,,,,,,,,,,,
,,,,,,00060,2023-10-11_18h21.19.137,vbt_B1_day2,2022.2.4,Win32,62.5,,,,,,,,,,,,,,,,,,,,,,,,,,,down,0,1.809,,0.323148233,-0.095370399,1,0,0,2.417,0,62,62,18,1,blik,images/br_blik.png,images/cb_blik.png,1,blik,,,,,,,,,,,,,,,,,,,,,
,,,,,,00060,2023-10-11_18h21.19.137,vbt_B1_day2,2022.2.4,Win32,62.5,,,,,,,,,,,,,,,,,,,,,,,,,,,down,0,5.869,,0.319444444,-0.112037023,1,0,0,1.616,0,63,63,182,1,bijkomen,images/br_bijkomen.png,images/cb_bijkomen.png,0,,,,,,,,,,,,,,,,,,,,,,
,,,,,,00060,2023-10-11_18h21.19.137,vbt_B1_day2,2022.2.4,Win32,62.5,,,,,,,,,,,,,,,,,,,,,,,,,,,down,0,6.841,,0.300000085,-0.050000014,1,0,0,0.684,0,64,64,54,1,gebit,images/br_gebit.png,images/cb_gebit.png,0,,,,,,,,,,,,,,,,,,,,,,
,,,,,,00060,2023-10-11_18h21.19.137,vbt_B1_day2,2022.2.4,Win32,62.5,,,,,,,,,,,,,,,,,,,,,,,,,,,down,0,3.567,,0.330555527,-0.064814815,1,0,0,0.567,0,65,65,117,1,kennis,images/br_kennis.png,images/cb_kennis.png,0,,,,,,,,,,,,,,,,,,,,,,
,,,,,,00060,2023-10-11_18h21.19.137,vbt_B1_day2,2022.2.4,Win32,62.5,,,,,,,,,,,,,,,,,,,,,,,,,,,down,0,2.034,,0.369444529,-0.080555563,1,0,0,0.933,0,66,66,132,1,grappen,images/br_grappen.png,images/cb_grappen.png,0,,,,,,,,,,,,,,,,,,,,,,
,,,,,,00060,2023-10-11_18h21.19.137,vbt_B1_day2,2022.2.4,Win32,62.5,,,,,,,,,,,,,,,,,,,,,,,,,,,down,0,16.443,,0.345370399,-0.066666674,1,0,0,0.698,0,67,67,161,1,attentie,images/br_attentie.png,images/cb_attentie.png,0,,,,,,,,,,,,,,,,,,,,,,
,,,,,,00060,2023-10-11_18h21.19.137,vbt_B1_day2,2022.2.4,Win32,62.5,,,,,,,,,,,,,,,,,,,,,,,,,,,down,0,5.19,,0.314814815,-0.110185199,1,0,0,0.75,0,68,68,75,1,snoep,images/br_snoep.png,images/cb_snoep.png,0,,,,,,,,,,,,,,,,,,,,,,
,,,,,,00060,2023-10-11_18h21.19.137,vbt_B1_day2,2022.2.4,Win32,62.5,,,,,,,,,,,,,,,,,,,,,,,,,,,down,0,1.174,,0.289814843,-0.119444459,1,0,0,0.567,0,69,69,65,1,parel,images/br_parel.png,images/cb_parel.png,0,,,,,,,,,,,,,,,,,,,,,,
,,,,,,00060,2023-10-11_18h21.19.137,vbt_B1_day2,2022.2.4,Win32,62.5,,,,,,,,,,,,,,,,,,,,,,,,,,,down,0,4.26,,0.289814843,-0.119444459,1,0,0,0.701,0,70,70,60,1,jasje,images/br_jasje.png,images/cb_jasje.png,0,,,,,,,,,,,,,,,,,,,,,,
,,,,,,00060,2023-10-11_18h21.19.137,vbt_B1_day2,2022.2.4,Win32,62.5,,,,,,,,,,,,,,,,,,,,,,,,,,,down,0,4.949,,0.262962977,-0.093518504,1,0,0,1.367,0,71,71,140,1,blijven,images/br_blijven.png,images/cb_blijven.png,0,,,,,,,,,,,,,,,,,,,,,,
,,,,,,00060,2023-10-11_18h21.19.137,vbt_B1_day2,2022.2.4,Win32,62.5,,,,,,,,,,,,,,,,,,,,,,,,,,,down,0,3.853,,0.307407379,-0.111111111,1,0,0,0.55,0,72,72,154,1,aflopen,images/br_aflopen.png,images/cb_aflopen.png,0,,,,,,,,,,,,,,,,,,,,,,
,,,,,,00060,2023-10-11_18h21.19.137,vbt_B1_day2,2022.2.4,Win32,62.5,,,,,,,,,,,,,,,,,,,,,,,,,,,down,0,3.184,,0.307407379,-0.111111111,1,0,0,0.501,0,73,73,73,1,volop,images/br_volop.png,images/cb_volop.png,0,,,,,,,,,,,,,,,,,,,,,,
,,,,,,00060,2023-10-11_18h21.19.137,vbt_B1_day2,2022.2.4,Win32,62.5,,,,,,,,,,,,,,,,,,,,,,,,,,,down,0,1.952,,0.318518603,-0.089814822,1,0,0,0.516,0,74,74,86,1,woning,images/br_woning.png,images/cb_woning.png,0,,,,,,,,,,,,,,,,,,,,,,
,,,,,,00060,2023-10-11_18h21.19.137,vbt_B1_day2,2022.2.4,Win32,62.5,,,,,,,,,,,,,,,,,,,,,,,,,,,down,0,10.648,,0.294444473,-0.076851845,1,0,0,0.649,0,75,75,165,1,feestdag,images/br_feestdag.png,images/cb_feestdag.png,0,,,,,,,,,,,,,,,,,,,,,,
,,,,,,00060,2023-10-11_18h21.19.137,vbt_B1_day2,2022.2.4,Win32,62.5,,,,,,,,,,,,,,,,,,,,,,,,,,,down,0,16.566,,0.299074102,-0.143518519,1,0,0,0.599,0,76,76,162,1,uitdelen,images/br_uitdelen.png,images/cb_uitdelen.png,0,,,,,,,,,,,,,,,,,,,,,,
,,,,,,00060,2023-10-11_18h21.19.137,vbt_B1_day2,2022.2.4,Win32,62.5,,,,,,,,,,,,,,,,,,,,,,,,,,,down,0,3.466,,0.437962991,-0.150000042,1,0,0,5.532,0,77,77,98,1,kreeft,images/br_kreeft.png,images/cb_kreeft.png,1,kreeft,,,,,,,,,,,,,,,,,,,,,
,,,,,,00060,2023-10-11_18h21.19.137,vbt_B1_day2,2022.2.4,Win32,62.5,,,,,,,,,,,,,,,,,,,,,,,,,,,down,0,0.884,,0.337037122,-0.163888931,1,0,0,1.933,0,78,78,66,1,lever,images/br_lever.png,images/cb_lever.png,0,,,,,,,,,,,,,,,,,,,,,,
,,,,,,00060,2023-10-11_18h21.19.137,vbt_B1_day2,2022.2.4,Win32,62.5,,,,,,,,,,,,,,,,,,,,,,,,,,,down,0,5.176,,0.309259344,-0.164814843,1,0,0,0.717,0,79,79,43,1,klauw,images/br_klauw.png,images/cb_klauw.png,0,,,,,,,,,,,,,,,,,,,,,,
,,,,,,00060,2023-10-11_18h21.19.137,vbt_B1_day2,2022.2.4,Win32,62.5,,,,,,,,,,,,,,,,,,,,,,,,,,,down,0,0.767,,0.22592594,-0.191666709,1,0,0,0.633,0,80,80,29,1,baas,images/br_baas.png,images/cb_baas.png,0,,,,,,,,,,,,,,,,,,,,,,
,,,,,,00060,2023-10-11_18h21.19.137,vbt_B1_day2,2022.2.4,Win32,62.5,,,,,,,,,,,,,,,,,,,,,,,,,,,down,0,1.226,,0.200925968,-0.187037079,1,0,0,0.751,0,81,81,0,1,slak,images/br_slak.png,images/cb_slak.png,0,,,,,,,,,,,,,,,,,,,,,,
,,,,,,00060,2023-10-11_18h21.19.137,vbt_B1_day2,2022.2.4,Win32,62.5,,,,,,,,,,,,,,,,,,,,,,,,,,,down,0,2.952,,0.184259273,-0.20648151,1,0,0,0.616,0,82,82,171,1,aarzelen,images/br_aarzelen.png,images/cb_aarzelen.png,0,,,,,,,,,,,,,,,,,,,,,,
,,,,,,00060,2023-10-11_18h21.19.137,vbt_B1_day2,2022.2.4,Win32,62.5,,,,,,,,,,,,,,,,,,,,,,,,,,,down,0,3.534,,0.239814829,-0.204629616,1,0,0,0.499,0,83,83,91,1,gezond,images/br_gezond.png,images/cb_gezond.png,0,,,,,,,,,,,,,,,,,,,,,,
,,,,,,00060,2023-10-11_18h21.19.137,vbt_B1_day2,2022.2.4,Win32,62.5,,,,,,,,,,,,,,,,,,,,,,,,,,,down,0,0.455,,0.27870369,-0.199999986,1,0,0,0.733,0,84,84,10,1,leek,images/br_leek.png,images/cb_leek.png,0,,,,,,,,,,,,,,,,,,,,,,
,,,,,,00060,2023-10-11_18h21.19.137,vbt_B1_day2,2022.2.4,Win32,62.5,,,,,,,,,,,,,,,,,,,,,,,,,,,down,0,6.266,,0.261111153,-0.194444444,1,0,0,0.466,0,85,85,196,1,nakijken,images/br_nakijken.png,images/cb_nakijken.png,0,,,,,,,,,,,,,,,,,,,,,,
,,,,,,00060,2023-10-11_18h21.19.137,vbt_B1_day2,2022.2.4,Win32,62.5,,,,,,,,,,,,,,,,,,,,,,,,,,,down,0,1.802,,0.222222222,-0.154629672,1,0,0,0.483,0,86,86,53,1,baron,images/br_baron.png,images/cb_baron.png,0,,,,,,,,,,,,,,,,,,,,,,
,,,,,,00060,2023-10-11_18h21.19.137,vbt_B1_day2,2022.2.4,Win32,62.5,,,,,,,,,,,,,,,,,,,,,,,,,,,down,0,8.215,,0.157407407,-0.161111125,1,0,0,0.666,0,87,87,174,1,stemming,images/br_stemming.png,images/cb_stemming.png,0,,,,,,,,,,,,,,,,,,,,,,
,,,,,,00060,2023-10-11_18h21.19.137,vbt_B1_day2,2022.2.4,Win32,62.5,,,,,,,,,,,,,,,,,,,,,,,,,,,down,0,8.391,,0.157407407,-0.12962963,1,0,0,0.484,0,88,88,163,1,schuilen,images/br_schuilen.png,images/cb_schuilen.png,0,,,,,,,,,,,,,,,,,,,,,,
,,,,,,00060,2023-10-11_18h21.19.137,vbt_B1_day2,2022.2.4,Win32,62.5,,,,,,,,,,,,,,,,,,,,,,,,,,,down,0,3.637,,0.175000014,-0.126851894,1,0,0,0.949,0,89,89,13,1,kaal,images/br_kaal.png,images/cb_kaal.png,0,,,,,,,,,,,,,,,,,,,,,,
,,,,,,00060,2023-10-11_18h21.19.137,vbt_B1_day2,2022.2.4,Win32,62.5,,,,,,,,,,,,,,,,,,,,,,,,,,,down,0,3.183,,0.172222208,-0.150000042,1,0,0,0.433,0,90,90,69,1,waken,images/br_waken.png,images/cb_waken.png,0,,,,,,,,,,,,,,,,,,,,,,
,,,,,,00060,2023-10-11_18h21.19.137,vbt_B1_day2,2022.2.4,Win32,62.5,,,,,,,,,,,,,,,,,,,,,,,,,,,down,0,4.254,,0.18240745,-0.169444473,1,0,0,0.417,0,91,91,26,1,leuk,images/br_leuk.png,images/cb_leuk.png,0,,,,,,,,,,,,,,,,,,,,,,
,,,,,,00060,2023-10-11_18h21.19.137,vbt_B1_day2,2022.2.4,Win32,62.5,,,,,,,,,,,,,,,,,,,,,,,,,,,down,0,2.452,,0.19722225,-0.159259302,1,0,0,0.398,0,92,92,148,1,smullen,images/br_smullen.png,images/cb_smullen.png,0,,,,,,,,,,,,,,,,,,,,,,
,,,,,,00060,2023-10-11_18h21.19.137,vbt_B1_day2,2022.2.4,Win32,62.5,,,,,,,,,,,,,,,,,,,,,,,,,,,down,0,6.96,,0.237963005,-0.158333319,1,0,0,2.833,0,93,93,155,1,gerucht,images/br_gerucht.png,images/cb_gerucht.png,0,,,,,,,,,,,,,,,,,,,,,,
,,,,,,00060,2023-10-11_18h21.19.137,vbt_B1_day2,2022.2.4,Win32,62.5,,,,,,,,,,,,,,,,,,,,,,,,,,,down,0,1.074,,0.198148162,-0.164814843,1,0,0,0.516,0,94,94,112,1,lukken,images/br_lukken.png,images/cb_lukken.png,0,,,,,,,,,,,,,,,,,,,,,,
,,,,,,00060,2023-10-11_18h21.19.137,vbt_B1_day2,2022.2.4,Win32,62.5,,,,,,,,,,,,,,,,,,,,,,,,,,,down,0,6.138,,0.191666709,-0.152777778,1,0,0,0.351,0,95,95,199,1,beseffen,images/br_beseffen.png,images/cb_beseffen.png,0,,,,,,,,,,,,,,,,,,,,,,
,,,,,,00060,2023-10-11_18h21.19.137,vbt_B1_day2,2022.2.4,Win32,62.5,,,,,,,,,,,,,,,,,,,,,,,,,,,down,0,0.918,,0.191666709,-0.15370369,1,0,0,0.434,0,96,96,62,1,knaap,images/br_knaap.png,images/cb_knaap.png,0,,,,,,,,,,,,,,,,,,,,,,
,,,,,,00060,2023-10-11_18h21.19.137,vbt_B1_day2,2022.2.4,Win32,62.5,,,,,,,,,,,,,,,,,,,,,,,,,,,down,0,2.875,,0.223148134,-0.117592635,1,0,0,0.634,0,97,97,191,1,opheffen,images/br_opheffen.png,images/cb_opheffen.png,0,,,,,,,,,,,,,,,,,,,,,,
,,,,,,00060,2023-10-11_18h21.19.137,vbt_B1_day2,2022.2.4,Win32,62.5,,,,,,,,,,,,,,,,,,,,,,,,,,,down,0,4.718,,0.237037023,-0.15370369,1,0,0,0.533,0,98,98,164,1,anarchie,images/br_anarchie.png,images/cb_anarchie.png,0,,,,,,,,,,,,,,,,,,,,,,
,,,,,,00060,2023-10-11_18h21.19.137,vbt_B1_day2,2022.2.4,Win32,62.5,,,,,,,,,,,,,,,,,,,,,,,,,,,down,0,1.351,,0.232407393,-0.150000042,1,0,0,0.55,0,99,99,35,1,lust,images/br_lust.png,images/cb_lust.png,0,,,,,,,,,,,,,,,,,,,,,,
,,,,,,00060,2023-10-11_18h21.19.137,vbt_B1_day2,2022.2.4,Win32,62.5,,,,,,,,,,,,,,,,,,,,,,,,,,,down,0,0.49,,0.232407393,-0.150000042,1,0,0,0.534,0,100,100,9,1,hier,images/br_hier.png,images/cb_hier.png,0,,,,,,,,,,,,,,,,,,,,,,
,,,,,,00060,2023-10-11_18h21.19.137,vbt_B1_day2,2022.2.4,Win32,62.5,,,,,,,,,,,,,,,,,,,,,,,,,,,down,0,4.539,,0.263888889,-0.183333362,1,0,0,1.567,0,101,101,58,1,tekst,images/br_tekst.png,images/cb_tekst.png,1,tekst,,,,,,,,,,,,,,,,,,,,,
,,,,,,00060,2023-10-11_18h21.19.137,vbt_B1_day2,2022.2.4,Win32,62.5,,,,,,,,,,,,,,,,,,,,,,,,,,,down,0,8.915,,0.256481524,-0.137037065,1,0,0,12.449,0,102,102,15,1,soda,images/br_soda.png,images/cb_soda.png,0,,,,,,,,,,,,,,,,,,,,,,
,,,,,,00060,2023-10-11_18h21.19.137,vbt_B1_day2,2022.2.4,Win32,62.5,,,,,,,,,,,,,,,,,,,,,,,,,,,down,0,9.317,,0.164814843,-0.125925912,1,0,0,0.549,0,103,103,110,1,zuster,images/br_zuster.png,images/cb_zuster.png,0,,,,,,,,,,,,,,,,,,,,,,
,,,,,,00060,2023-10-11_18h21.19.137,vbt_B1_day2,2022.2.4,Win32,62.5,,,,,,,,,,,,,,,,,,,,,,,,,,,down,0,31.499,,0.26944443,-0.018518519,1,0,0,0.283,0,104,104,41,1,maken,images/br_maken.png,images/cb_maken.png,0,,,,,,,,,,,,,,,,,,,,,,
,,,,,,00060,2023-10-11_18h21.19.137,vbt_B1_day2,2022.2.4,Win32,62.5,,,,,,,,,,,,,,,,,,,,,,,,,,,down,0,1.477,,0.239814829,-0.123148176,1,0,0,0.582,0,105,105,61,1,groen,images/br_groen.png,images/cb_groen.png,0,,,,,,,,,,,,,,,,,,,,,,
,,,,,,00060,2023-10-11_18h21.19.137,vbt_B1_day2,2022.2.4,Win32,62.5,,,,,,,,,,,,,,,,,,,,,,,,,,,down,0,1.434,,0.224074116,-0.12962963,1,0,0,0.499,0,106,106,12,1,kust,images/br_kust.png,images/cb_kust.png,0,,,,,,,,,,,,,,,,,,,,,,
,,,,,,00060,2023-10-11_18h21.19.137,vbt_B1_day2,2022.2.4,Win32,62.5,,,,,,,,,,,,,,,,,,,,,,,,,,,down,0,2.249,,0.212962963,-0.102777764,1,0,0,0.567,0,107,107,4,1,moes,images/br_moes.png,images/cb_moes.png,0,,,,,,,,,,,,,,,,,,,,,,
,,,,,,00060,2023-10-11_18h21.19.137,vbt_B1_day2,2022.2.4,Win32,62.5,,,,,,,,,,,,,,,,,,,,,,,,,,,down,0,5.749,,0.291666667,-0.107407393,1,0,0,0.415,0,108,108,106,1,zingen,images/br_zingen.png,images/cb_zingen.png,0,,,,,,,,,,,,,,,,,,,,,,
,,,,,,00060,2023-10-11_18h21.19.137,vbt_B1_day2,2022.2.4,Win32,62.5,,,,,,,,,,,,,,,,,,,,,,,,,,,down,0,1.034,,0.337037122,-0.107407393,1,0,0,0.717,0,109,109,49,1,laken,images/br_laken.png,images/cb_laken.png,0,,,,,,,,,,,,,,,,,,,,,,
,,,,,,00060,2023-10-11_18h21.19.137,vbt_B1_day2,2022.2.4,Win32,62.5,,,,,,,,,,,,,,,,,,,,,,,,,,,down,0,0.786,,0.312962991,-0.106481481,1,0,0,0.299,0,110,110,52,1,wagon,images/br_wagon.png,images/cb_wagon.png,0,,,,,,,,,,,,,,,,,,,,,,
,,,,,,00060,2023-10-11_18h21.19.137,vbt_B1_day2,2022.2.4,Win32,62.5,,,,,,,,,,,,,,,,,,,,,,,,,,,down,0,1.888,,0.293518561,-0.12037037,1,0,0,0.533,0,111,111,23,1,zout,images/br_zout.png,images/cb_zout.png,0,,,,,,,,,,,,,,,,,,,,,,
,,,,,,00060,2023-10-11_18h21.19.137,vbt_B1_day2,2022.2.4,Win32,62.5,,,,,,,,,,,,,,,,,,,,,,,,,,,down,0,4.759,,0.265740783,-0.103703746,1,0,0,0.4,0,112,112,135,1,gedicht,images/br_gedicht.png,images/cb_gedicht.png,0,,,,,,,,,,,,,,,,,,,,,,
,,,,,,00060,2023-10-11_18h21.19.137,vbt_B1_day2,2022.2.4,Win32,62.5,,,,,,,,,,,,,,,,,,,,,,,,,,,down,0,9.106,,0.24537037,-0.109259288,1,0,0,0.399,0,113,113,82,1,muziek,images/br_muziek.png,images/cb_muziek.png,0,,,,,,,,,,,,,,,,,,,,,,
,,,,,,00060,2023-10-11_18h21.19.137,vbt_B1_day2,2022.2.4,Win32,62.5,,,,,,,,,,,,,,,,,,,,,,,,,,,down,0,2.216,,0.207407422,-0.104629658,1,0,0,0.4,0,114,114,150,1,gegeven,images/br_gegeven.png,images/cb_gegeven.png,0,,,,,,,,,,,,,,,,,,,,,,
,,,,,,00060,2023-10-11_18h21.19.137,vbt_B1_day2,2022.2.4,Win32,62.5,,,,,,,,,,,,,,,,,,,,,,,,,,,down,0,6.168,,0.284259302,-0.143518519,1,0,0,0.651,0,115,115,97,1,loyaal,images/br_loyaal.png,images/cb_loyaal.png,1,loyaal,,,,,,,,,,,,,,,,,,,,,
,,,,,,00060,2023-10-11_18h21.19.137,vbt_B1_day2,2022.2.4,Win32,62.5,,,,,,,,,,,,,,,,,,,,,,,,,,,down,0,16.287,,0.450000057,-0.275000042,1,0,0,0.633,0,116,116,166,1,strikken,images/br_strikken.png,images/cb_strikken.png,0,,,,,,,,,,,,,,,,,,,,,,
,,,,,,00060,2023-10-11_18h21.19.137,vbt_B1_day2,2022.2.4,Win32,62.5,,,,,,,,,,,,,,,,,,,,,,,,,,,down,0,12.917,,0.420370455,-0.187037079,1,0,0,1.716,0,117,117,179,1,woestijn,images/br_woestijn.png,images/cb_woestijn.png,1,woestijn,,,,,,,,,,,,,,,,,,,,,
,,,,,,00060,2023-10-11_18h21.19.137,vbt_B1_day2,2022.2.4,Win32,62.5,,,,,,,,,,,,,,,,,,,,,,,,,,,down,0,2.566,,0.412963019,-0.212962963,1,0,0,0.633,0,118,118,100,1,geduld,images/br_geduld.png,images/cb_geduld.png,0,,,,,,,,,,,,,,,,,,,,,,
,,,,,,00060,2023-10-11_18h21.19.137,vbt_B1_day2,2022.2.4,Win32,62.5,,,,,,,,,,,,,,,,,,,,,,,,,,,down,0,6.688,,0.358333305,-0.195370356,1,0,0,0.601,0,119,119,107,1,maling,images/br_maling.png,images/cb_maling.png,0,,,,,,,,,,,,,,,,,,,,,,
,,,,,,00060,2023-10-11_18h21.19.137,vbt_B1_day2,2022.2.4,Win32,62.5,,,,,,,,,,,,,,,,,,,,,,,,,,,down,0,2.501,,0.32685188,-0.175000014,1,0,0,0.417,0,120,120,11,1,mode,images/br_mode.png,images/cb_mode.png,0,,,,,,,,,,,,,,,,,,,,,,
,,,,,,00060,2023-10-11_18h21.19.137,vbt_B1_day2,2022.2.4,Win32,62.5,,,,,,,,,,,,,,,,,,,,,,,,,,,down,0,2.717,,0.291666667,-0.176851838,1,0,0,0.55,0,121,121,169,1,oprotten,images/br_oprotten.png,images/cb_oprotten.png,0,,,,,,,,,,,,,,,,,,,,,,
,,,,,,00060,2023-10-11_18h21.19.137,vbt_B1_day2,2022.2.4,Win32,62.5,,,,,,,,,,,,,,,,,,,,,,,,,,,down,0,2.255,,0.270370413,-0.152777778,1,0,0,0.45,0,122,122,114,1,vullen,images/br_vullen.png,images/cb_vullen.png,0,,,,,,,,,,,,,,,,,,,,,,
,,,,,,00060,2023-10-11_18h21.19.137,vbt_B1_day2,2022.2.4,Win32,62.5,,,,,,,,,,,,,,,,,,,,,,,,,,,down,0,4.269,,0.27870369,-0.163888931,1,0,0,0.433,0,123,123,195,1,middelen,images/br_middelen.png,images/cb_middelen.png,0,,,,,,,,,,,,,,,,,,,,,,
,,,,,,00060,2023-10-11_18h21.19.137,vbt_B1_day2,2022.2.4,Win32,62.5,,,,,,,,,,,,,,,,,,,,,,,,,,,down,0,2.473,,0.251851894,-0.167592578,1,0,0,0.398,0,124,124,51,1,samen,images/br_samen.png,images/cb_samen.png,0,,,,,,,,,,,,,,,,,,,,,,
,,,,,,00060,2023-10-11_18h21.19.137,vbt_B1_day2,2022.2.4,Win32,62.5,,,,,,,,,,,,,,,,,,,,,,,,,,,down,0,2.255,,0.248148176,-0.107407393,1,0,0,1.899,0,125,125,78,1,leren,images/br_leren.png,images/cb_leren.png,0,,,,,,,,,,,,,,,,,,,,,,
,,,,,,00060,2023-10-11_18h21.19.137,vbt_B1_day2,2022.2.4,Win32,62.5,,,,,,,,,,,,,,,,,,,,,,,,,,,down,0,2.769,,0.351851852,-0.14907406,1,0,0,0.783,0,126,126,16,1,ziek,images/br_ziek.png,images/cb_ziek.png,1,ziek,,,,,,,,,,,,,,,,,,,,,
,,,,,,00060,2023-10-11_18h21.19.137,vbt_B1_day2,2022.2.4,Win32,62.5,,,,,,,,,,,,,,,,,,,,,,,,,,,down,0,3.287,,0.325925898,-0.22592594,1,0,0,0.416,0,127,127,167,1,eenhoorn,images/br_eenhoorn.png,images/cb_eenhoorn.png,0,,,,,,,,,,,,,,,,,,,,,,
,,,,,,00060,2023-10-11_18h21.19.137,vbt_B1_day2,2022.2.4,Win32,62.5,,,,,,,,,,,,,,,,,,,,,,,,,,,down,0,5.027,,0.262962977,-0.208333333,1,0,0,0.383,0,128,128,131,1,opzicht,images/br_opzicht.png,images/cb_opzicht.png,0,,,,,,,,,,,,,,,,,,,,,,
,,,,,,00060,2023-10-11_18h21.19.137,vbt_B1_day2,2022.2.4,Win32,62.5,,,,,,,,,,,,,,,,,,,,,,,,,,,down,0,2.357,,0.199999986,-0.222222222,1,0,0,0.567,0,129,129,50,1,stoom,images/br_stoom.png,images/cb_stoom.png,0,,,,,,,,,,,,,,,,,,,,,,
,,,,,,00060,2023-10-11_18h21.19.137,vbt_B1_day2,2022.2.4,Win32,62.5,,,,,,,,,,,,,,,,,,,,,,,,,,,down,0,7.769,,0.218518504,-0.18240745,1,0,0,1.033,0,130,130,30,1,uien,images/br_uien.png,images/cb_uien.png,0,,,,,,,,,,,,,,,,,,,,,,
,,,,,,00060,2023-10-11_18h21.19.137,vbt_B1_day2,2022.2.4,Win32,62.5,,,,,,,,,,,,,,,,,,,,,,,,,,,down,0,4.621,,0.249074088,-0.143518519,1,0,0,0.5,0,131,131,198,1,bedoelen,images/br_bedoelen.png,images/cb_bedoelen.png,0,,,,,,,,,,,,,,,,,,,,,,
,,,,,,00060,2023-10-11_18h21.19.137,vbt_B1_day2,2022.2.4,Win32,62.5,,,,,,,,,,,,,,,,,,,,,,,,,,,down,0,0.853,,0.250925912,-0.143518519,1,0,0,0.333,0,132,132,6,1,diep,images/br_diep.png,images/cb_diep.png,0,,,,,,,,,,,,,,,,,,,,,,
,,,,,,00060,2023-10-11_18h21.19.137,vbt_B1_day2,2022.2.4,Win32,62.5,,,,,,,,,,,,,,,,,,,,,,,,,,,down,0,3.169,,0.290740755,-0.117592635,1,0,0,0.333,0,133,133,76,1,afval,images/br_afval.png,images/cb_afval.png,0,,,,,,,,,,,,,,,,,,,,,,
,,,,,,00060,2023-10-11_18h21.19.137,vbt_B1_day2,2022.2.4,Win32,62.5,,,,,,,,,,,,,,,,,,,,,,,,,,,down,0,4.65,,0.26944443,-0.135185171,1,0,0,0.283,0,134,134,152,1,afnemen,images/br_afnemen.png,images/cb_afnemen.png,0,,,,,,,,,,,,,,,,,,,,,,
,,,,,,00060,2023-10-11_18h21.19.137,vbt_B1_day2,2022.2.4,Win32,62.5,,,,,,,,,,,,,,,,,,,,,,,,,,,down,0,3.335,,0.268518519,-0.181481467,1,0,0,0.466,0,135,135,105,1,wijlen,images/br_wijlen.png,images/cb_wijlen.png,0,,,,,,,,,,,,,,,,,,,,,,
,,,,,,00060,2023-10-11_18h21.19.137,vbt_B1_day2,2022.2.4,Win32,62.5,,,,,,,,,,,,,,,,,,,,,,,,,,,down,0,4.923,,0.29814812,-0.160185213,1,0,0,0.433,0,136,136,149,1,redding,images/br_redding.png,images/cb_redding.png,0,,,,,,,,,,,,,,,,,,,,,,
,,,,,,00060,2023-10-11_18h21.19.137,vbt_B1_day2,2022.2.4,Win32,62.5,,,,,,,,,,,,,,,,,,,,,,,,,,,down,0,1.782,,0.333333333,-0.186111097,1,0,0,0.3,0,137,137,115,1,kleren,images/br_kleren.png,images/cb_kleren.png,0,,,,,,,,,,,,,,,,,,,,,,
,,,,,,00060,2023-10-11_18h21.19.137,vbt_B1_day2,2022.2.4,Win32,62.5,,,,,,,,,,,,,,,,,,,,,,,,,,,down,0,4.567,,0.286111125,-0.173148191,1,0,0,0.367,0,138,138,87,1,toeval,images/br_toeval.png,images/cb_toeval.png,0,,,,,,,,,,,,,,,,,,,,,,
,,,,,,00060,2023-10-11_18h21.19.137,vbt_B1_day2,2022.2.4,Win32,62.5,,,,,,,,,,,,,,,,,,,,,,,,,,,down,0,4.818,,0.200925968,-0.22129631,1,0,0,0.234,0,139,139,14,1,rijp,images/br_rijp.png,images/cb_rijp.png,0,,,,,,,,,,,,,,,,,,,,,,
,,,,,,00060,2023-10-11_18h21.19.137,vbt_B1_day2,2022.2.4,Win32,62.5,,,,,,,,,,,,,,,,,,,,,,,,,,,down,0,4.571,,0.187962991,-0.194444444,1,0,0,0.35,0,140,140,123,1,hiervan,images/br_hiervan.png,images/cb_hiervan.png,0,,,,,,,,,,,,,,,,,,,,,,
,,,,,,00060,2023-10-11_18h21.19.137,vbt_B1_day2,2022.2.4,Win32,62.5,,,,,,,,,,,,,,,,,,,,,,,,,,,down,0,4.1,,0.208333333,-0.188888903,1,0,0,0.516,0,141,141,45,1,piste,images/br_piste.png,images/cb_piste.png,0,,,,,,,,,,,,,,,,,,,,,,
,,,,,,00060,2023-10-11_18h21.19.137,vbt_B1_day2,2022.2.4,Win32,62.5,,,,,,,,,,,,,,,,,,,,,,,,,,,down,0,5.519,,0.282407407,-0.196296339,1,0,0,1.183,0,142,142,141,1,knielen,images/br_knielen.png,images/cb_knielen.png,0,,,,,,,,,,,,,,,,,,,,,,
,,,,,,00060,2023-10-11_18h21.19.137,vbt_B1_day2,2022.2.4,Win32,62.5,,,,,,,,,,,,,,,,,,,,,,,,,,,down,0,2.708,,0.271296325,-0.198148162,1,0,0,0.417,0,143,143,93,1,waarop,images/br_waarop.png,images/cb_waarop.png,0,,,,,,,,,,,,,,,,,,,,,,
,,,,,,00060,2023-10-11_18h21.19.137,vbt_B1_day2,2022.2.4,Win32,62.5,,,,,,,,,,,,,,,,,,,,,,,,,,,down,0,2.953,,0.293518561,-0.185185185,1,0,0,0.432,0,144,144,160,1,daarheen,images/br_daarheen.png,images/cb_daarheen.png,0,,,,,,,,,,,,,,,,,,,,,,
,,,,,,00060,2023-10-11_18h21.19.137,vbt_B1_day2,2022.2.4,Win32,62.5,,,,,,,,,,,,,,,,,,,,,,,,,,,down,0,3.474,,0.190740727,-0.285185213,1,0,0,1.249,0,145,145,138,1,akkoord,images/br_akkoord.png,images/cb_akkoord.png,1,akkoord,,,,,,,,,,,,,,,,,,,,,
,,,,,,00060,2023-10-11_18h21.19.137,vbt_B1_day2,2022.2.4,Win32,62.5,,,,,,,,,,,,,,,,,,,,,,,,,,,down,0,0.391,,0.33148151,-0.187962991,1,0,0,0.384,0,146,146,71,1,bever,images/br_bever.png,images/cb_bever.png,0,,,,,,,,,,,,,,,,,,,,,,
,,,,,,00060,2023-10-11_18h21.19.137,vbt_B1_day2,2022.2.4,Win32,62.5,,,,,,,,,,,,,,,,,,,,,,,,,,,down,0,52.245,,0.292592578,-0.170370384,1,0,0,0.949,0,147,147,37,1,mijn,images/br_mijn.png,images/cb_mijn.png,0,,,,,,,,,,,,,,,,,,,,,,
,,,,,,00060,2023-10-11_18h21.19.137,vbt_B1_day2,2022.2.4,Win32,62.5,,,,,,,,,,,,,,,,,,,,,,,,,,,down,0,9.954,,0.32685188,-0.145370413,1,0,0,0.616,0,148,148,157,1,uitlaat,images/br_uitlaat.png,images/cb_uitlaat.png,0,,,,,,,,,,,,,,,,,,,,,,
,,,,,,00060,2023-10-11_18h21.19.137,vbt_B1_day2,2022.2.4,Win32,62.5,,,,,,,,,,,,,,,,,,,,,,,,,,,down,0,7.041,,0.287962949,-0.176851838,1,0,0,0.45,0,149,149,129,1,verhaal,images/br_verhaal.png,images/cb_verhaal.png,0,,,,,,,,,,,,,,,,,,,,,,
,,,,,,00060,2023-10-11_18h21.19.137,vbt_B1_day2,2022.2.4,Win32,62.5,,,,,,,,,,,,,,,,,,,,,,,,,,,down,0,12.933,,0.347222222,-0.17777782,1,0,0,2.482,0,150,150,177,1,maaltijd,images/br_maaltijd.png,images/cb_maaltijd.png,1,maaltijd,,,,,,,,,,,,,,,,,,,,,
,,,,,,00060,2023-10-11_18h21.19.137,vbt_B1_day2,2022.2.4,Win32,62.5,,,,,,,,,,,,,,,,,,,,,,,,,,,down,0,123.976,,0.427855255,-0.095264615,1,0,0,4.231,0,151,151,67,1,zwart,images/br_zwart.png,images/cb_zwart.png,0,,,,,,,,,,,,,,,,,,,,,,
,,,,,,00060,2023-10-11_18h21.19.137,vbt_B1_day2,2022.2.4,Win32,62.5,,,,,,,,,,,,,,,,,,,,,,,,,,,down,0,23.441,,0.427855255,0.017270186,1,0,0,0.684,0,152,152,170,1,schatten,images/br_schatten.png,images/cb_schatten.png,0,,,,,,,,,,,,,,,,,,,,,,
,,,,,,00060,2023-10-11_18h21.19.137,vbt_B1_day2,2022.2.4,Win32,62.5,,,,,,,,,,,,,,,,,,,,,,,,,,,down,0,3.633,,0.428969359,0.066295231,1,0,0,0.383,0,153,153,70,1,ijdel,images/br_ijdel.png,images/cb_ijdel.png,0,,,,,,,,,,,,,,,,,,,,,,
,,,,,,00060,2023-10-11_18h21.19.137,vbt_B1_day2,2022.2.4,Win32,62.5,,,,,,,,,,,,,,,,,,,,,,,,,,,down,0,8.069,,0.387743767,0.023955406,1,0,0,1.434,0,154,154,189,1,aanraden,images/br_aanraden.png,images/cb_aanraden.png,0,,,,,,,,,,,,,,,,,,,,,,
,,,,,,00060,2023-10-11_18h21.19.137,vbt_B1_day2,2022.2.4,Win32,62.5,,,,,,,,,,,,,,,,,,,,,,,,,,,down,0,4.983,,0.387743767,0.023955406,1,0,0,0.416,0,155,155,83,1,mening,images/br_mening.png,images/cb_mening.png,0,,,,,,,,,,,,,,,,,,,,,,
,,,,,,00060,2023-10-11_18h21.19.137,vbt_B1_day2,2022.2.4,Win32,62.5,,,,,,,,,,,,,,,,,,,,,,,,,,,down,0,17.836,,0.3454039,-0.037325931,1,0,0,0.433,0,156,156,153,1,vervoer,images/br_vervoer.png,images/cb_vervoer.png,0,,,,,,,,,,,,,,,,,,,,,,
,,,,,,00060,2023-10-11_18h21.19.137,vbt_B1_day2,2022.2.4,Win32,62.5,,,,,,,,,,,,,,,,,,,,,,,,,,,down,0,5.317,,0.375487431,-0.020612839,1,0,0,0.466,0,157,157,173,1,apparaat,images/br_apparaat.png,images/cb_apparaat.png,0,,,,,,,,,,,,,,,,,,,,,,
,,,,,,00060,2023-10-11_18h21.19.137,vbt_B1_day2,2022.2.4,Win32,62.5,,,,,,,,,,,,,,,,,,,,,,,,,,,down,0,2,,0.337604491,-0.081894176,1,0,0,0.433,0,158,158,175,1,heengaan,images/br_heengaan.png,images/cb_heengaan.png,0,,,,,,,,,,,,,,,,,,,,,,
,,,,,,00060,2023-10-11_18h21.19.137,vbt_B1_day2,2022.2.4,Win32,62.5,,,,,,,,,,,,,,,,,,,,,,,,,,,down,0,9.688,,0.424512603,-0.125348189,1,0,0,0.75,0,159,159,130,1,keihard,images/br_keihard.png,images/cb_keihard.png,0,,,,,,,,,,,,,,,,,,,,,,
,,,,,,00060,2023-10-11_18h21.19.137,vbt_B1_day2,2022.2.4,Win32,62.5,,,,,,,,,,,,,,,,,,,,,,,,,,,down,0,2.9,,0.403342584,-0.124234043,1,0,0,0.316,0,160,160,144,1,eetlust,images/br_eetlust.png,images/cb_eetlust.png,0,,,,,,,,,,,,,,,,,,,,,,
,,,,,,00060,2023-10-11_18h21.19.137,vbt_B1_day2,2022.2.4,Win32,62.5,,,,,,,,,,,,,,,,,,,,,,,,,,,down,0,2.824,,0.388858041,-0.114206128,1,0,0,0.483,0,161,161,197,1,spanning,images/br_spanning.png,images/cb_spanning.png,0,,,,,,,,,,,,,,,,,,,,,,
,,,,,,00060,2023-10-11_18h21.19.137,vbt_B1_day2,2022.2.4,Win32,62.5,,,,,,,,,,,,,,,,,,,,,,,,,,,down,0,5.585,,0.40222848,-0.123119769,1,0,0,0.434,0,162,162,192,1,schaamte,images/br_schaamte.png,images/cb_schaamte.png,0,,,,,,,,,,,,,,,,,,,,,,
,,,,,,00060,2023-10-11_18h21.19.137,vbt_B1_day2,2022.2.4,Win32,62.5,,,,,,,,,,,,,,,,,,,,,,,,,,,down,0,2.794,,0.278551532,-0.132033452,1,0,0,0.333,0,163,163,47,1,kabel,images/br_kabel.png,images/cb_kabel.png,0,,,,,,,,,,,,,,,,,,,,,,
,,,,,,00060,2023-10-11_18h21.19.137,vbt_B1_day2,2022.2.4,Win32,62.5,,,,,,,,,,,,,,,,,,,,,,,,,,,down,0,1.826,,0.260724251,-0.13091922,1,0,0,0.533,0,164,164,55,1,praat,images/br_praat.png,images/cb_praat.png,0,,,,,,,,,,,,,,,,,,,,,,
,,,,,,00060,2023-10-11_18h21.19.137,vbt_B1_day2,2022.2.4,Win32,62.5,,,,,,,,,,,,,,,,,,,,,,,,,,,down,0,1.52,,0.266295282,-0.12089139,1,0,0,0.966,0,165,165,46,1,jagen,images/br_jagen.png,images/cb_jagen.png,0,,,,,,,,,,,,,,,,,,,,,,
,,,,,,00060,2023-10-11_18h21.19.137,vbt_B1_day2,2022.2.4,Win32,62.5,,,,,,,,,,,,,,,,,,,,,,,,,,,down,0,3.434,,0.337604491,-0.144289702,1,0,0,0.316,0,166,166,109,1,totaal,images/br_totaal.png,images/cb_totaal.png,0,,,,,,,,,,,,,,,,,,,,,,
,,,,,,00060,2023-10-11_18h21.19.137,vbt_B1_day2,2022.2.4,Win32,62.5,,,,,,,,,,,,,,,,,,,,,,,,,,,down,0,3.686,,0.376601705,-0.129805073,1,0,0,1.733,0,167,167,96,1,slagen,images/br_slagen.png,images/cb_slagen.png,1,slagen,,,,,,,,,,,,,,,,,,,,,
,,,,,,00060,2023-10-11_18h21.19.137,vbt_B1_day2,2022.2.4,Win32,62.5,,,,,,,,,,,,,,,,,,,,,,,,,,,down,0,7.867,,0.39665745,-0.128690799,1,0,0,0.434,0,168,168,142,1,snuiven,images/br_snuiven.png,images/cb_snuiven.png,0,,,,,,,,,,,,,,,,,,,,,,
,,,,,,00060,2023-10-11_18h21.19.137,vbt_B1_day2,2022.2.4,Win32,62.5,,,,,,,,,,,,,,,,,,,,,,,,,,,down,0,2.085,,0.365459644,-0.187743758,1,0,0,0.367,0,169,169,48,1,steel,images/br_steel.png,images/cb_steel.png,0,,,,,,,,,,,,,,,,,,,,,,
,,,,,,00060,2023-10-11_18h21.19.137,vbt_B1_day2,2022.2.4,Win32,62.5,,,,,,,,,,,,,,,,,,,,,,,,,,,down,0,0.074,,0.35097493,-0.18551538,1,0,0,0.383,0,170,170,42,1,bleek,images/br_bleek.png,images/cb_bleek.png,0,,,,,,,,,,,,,,,,,,,,,,
,,,,,,00060,2023-10-11_18h21.19.137,vbt_B1_day2,2022.2.4,Win32,62.5,,,,,,,,,,,,,,,,,,,,,,,,,,,down,0,1.468,,0.347632363,-0.173259044,1,0,0,0.383,0,171,171,68,1,schat,images/br_schat.png,images/cb_schat.png,0,,,,,,,,,,,,,,,,,,,,,,
,,,,,,00060,2023-10-11_18h21.19.137,vbt_B1_day2,2022.2.4,Win32,62.5,,,,,,,,,,,,,,,,,,,,,,,,,,,down,0,0.943,,0.361002888,-0.172144855,1,0,0,0.551,0,172,172,74,1,graaf,images/br_graaf.png,images/cb_graaf.png,0,,,,,,,,,,,,,,,,,,,,,,
,,,,,,00060,2023-10-11_18h21.19.137,vbt_B1_day2,2022.2.4,Win32,62.5,,,,,,,,,,,,,,,,,,,,,,,,,,,down,0,1.768,,0.374373327,-0.167688014,1,0,0,0.283,0,173,173,120,1,klimmen,images/br_klimmen.png,images/cb_klimmen.png,0,,,,,,,,,,,,,,,,,,,,,,
,,,,,,00060,2023-10-11_18h21.19.137,vbt_B1_day2,2022.2.4,Win32,62.5,,,,,,,,,,,,,,,,,,,,,,,,,,,down,0,20.483,,0.36434537,-0.175487465,1,0,0,1.967,0,174,174,111,1,ticket,images/br_ticket.png,images/cb_ticket.png,0,,,,,,,,,,,,,,,,,,,,,,
,,,,,,00060,2023-10-11_18h21.19.137,vbt_B1_day2,2022.2.4,Win32,62.5,,,,,,,,,,,,,,,,,,,,,,,,,,,down,0,3.801,,0.496936001,-0.148746544,1,0,0,0.767,0,175,175,64,1,wegen,images/br_wegen.png,images/cb_wegen.png,0,,,,,,,,,,,,,,,,,,,,,,
,,,,,,00060,2023-10-11_18h21.19.137,vbt_B1_day2,2022.2.4,Win32,62.5,,,,,,,,,,,,,,,,,,,,,,,,,,,down,0,13.918,,0.492479075,-0.179944349,1,0,0,0.283,0,176,176,190,1,goedkoop,images/br_goedkoop.png,images/cb_goedkoop.png,0,,,,,,,,,,,,,,,,,,,,,,
,,,,,,00060,2023-10-11_18h21.19.137,vbt_B1_day2,2022.2.4,Win32,62.5,,,,,,,,,,,,,,,,,,,,,,,,,,,down,0,8.15,,0.512534819,-0.172144855,1,0,0,0.217,0,177,177,194,1,driemaal,images/br_driemaal.png,images/cb_driemaal.png,0,,,,,,,,,,,,,,,,,,,,,,
,,,,,,00060,2023-10-11_18h21.19.137,vbt_B1_day2,2022.2.4,Win32,62.5,,,,,,,,,,,,,,,,,,,,,,,,,,,down,0,3.852,,0.564902473,-0.198885819,1,0,0,0.283,0,178,178,180,1,openbaar,images/br_openbaar.png,images/cb_openbaar.png,0,,,,,,,,,,,,,,,,,,,,,,
,,,,,,00060,2023-10-11_18h21.19.137,vbt_B1_day2,2022.2.4,Win32,62.5,,,,,,,,,,,,,,,,,,,,,,,,,,,down,0,0.933,,0.378830084,-0.247910864,1,0,0,0.367,0,179,179,2,1,jaar,images/br_jaar.png,images/cb_jaar.png,0,,,,,,,,,,,,,,,,,,,,,,
,,,,,,00060,2023-10-11_18h21.19.137,vbt_B1_day2,2022.2.4,Win32,62.5,,,,,,,,,,,,,,,,,,,,,,,,,,,down,0,1.718,,0.394429071,-0.234540424,1,0,0,1.601,0,180,180,57,1,steek,images/br_steek.png,images/cb_steek.png,1,steek,,,,,,,,,,,,,,,,,,,,,
,,,,,,00060,2023-10-11_18h21.19.137,vbt_B1_day2,2022.2.4,Win32,62.5,,,,,,,,,,,,,,,,,,,,,,,,,,,down,0,0.617,,0.401114206,-0.240111455,1,0,0,0.666,0,181,181,25,1,plek,images/br_plek.png,images/cb_plek.png,0,,,,,,,,,,,,,,,,,,,,,,
,,,,,,00060,2023-10-11_18h21.19.137,vbt_B1_day2,2022.2.4,Win32,62.5,,,,,,,,,,,,,,,,,,,,,,,,,,,down,0,9.239,,0.435654664,-0.215598869,1,0,0,0.933,0,182,182,178,1,huisdier,images/br_huisdier.png,images/cb_huisdier.png,1,huisdier,,,,,,,,,,,,,,,,,,,,,
,,,,,,00060,2023-10-11_18h21.19.137,vbt_B1_day2,2022.2.4,Win32,62.5,,,,,,,,,,,,,,,,,,,,,,,,,,,down,0,7.836,,0.424512603,-0.276880206,1,0,0,0.35,0,183,183,122,1,waarvan,images/br_waarvan.png,images/cb_waarvan.png,0,,,,,,,,,,,,,,,,,,,,,,
,,,,,,00060,2023-10-11_18h21.19.137,vbt_B1_day2,2022.2.4,Win32,62.5,,,,,,,,,,,,,,,,,,,,,,,,,,,down,0,3.99,,0.32646243,-0.231197772,1,0,0,1.151,0,184,184,72,1,strak,images/br_strak.png,images/cb_strak.png,0,,,,,,,,,,,,,,,,,,,,,,
,,,,,,00060,2023-10-11_18h21.19.137,vbt_B1_day2,2022.2.4,Win32,62.5,,,,,,,,,,,,,,,,,,,,,,,,,,,down,0,1.5,,0.303064118,-0.216713143,1,0,0,0.4,0,185,185,7,1,geld,images/br_geld.png,images/cb_geld.png,0,,,,,,,,,,,,,,,,,,,,,,
,,,,,,00060,2023-10-11_18h21.19.137,vbt_B1_day2,2022.2.4,Win32,62.5,,,,,,,,,,,,,,,,,,,,,,,,,,,down,0,3.784,,0.323119777,-0.231197772,1,0,0,0.333,0,186,186,186,1,voorraad,images/br_voorraad.png,images/cb_voorraad.png,0,,,,,,,,,,,,,,,,,,,,,,
,,,,,,00060,2023-10-11_18h21.19.137,vbt_B1_day2,2022.2.4,Win32,62.5,,,,,,,,,,,,,,,,,,,,,,,,,,,down,0,2.239,,0.25515322,-0.188857947,1,0,0,0.283,0,187,187,22,1,stof,images/br_stof.png,images/cb_stof.png,0,,,,,,,,,,,,,,,,,,,,,,
,,,,,,00060,2023-10-11_18h21.19.137,vbt_B1_day2,2022.2.4,Win32,62.5,,,,,,,,,,,,,,,,,,,,,,,,,,,down,0,4.988,,0.339832869,-0.215598869,1,0,0,0.334,0,188,188,40,1,schep,images/br_schep.png,images/cb_schep.png,0,,,,,,,,,,,,,,,,,,,,,,
,,,,,,00060,2023-10-11_18h21.19.137,vbt_B1_day2,2022.2.4,Win32,62.5,,,,,,,,,,,,,,,,,,,,,,,,,,,down,0,4.377,,0.376601705,-0.202228472,1,0,0,0.516,0,189,189,143,1,hechten,images/br_hechten.png,images/cb_hechten.png,0,,,,,,,,,,,,,,,,,,,,,,
,,,,,,00060,2023-10-11_18h21.19.137,vbt_B1_day2,2022.2.4,Win32,62.5,,,,,,,,,,,,,,,,,,,,,,,,,,,down,0,4.651,,0.460167165,-0.243454022,1,0,0,0.417,0,190,190,156,1,rechten,images/br_rechten.png,images/cb_rechten.png,0,,,,,,,,,,,,,,,,,,,,,,
,,,,,,00060,2023-10-11_18h21.19.137,vbt_B1_day2,2022.2.4,Win32,62.5,,,,,,,,,,,,,,,,,,,,,,,,,,,down,0,0.952,,0.40222848,-0.254596083,1,0,0,0.599,0,191,191,103,1,joggen,images/br_joggen.png,images/cb_joggen.png,0,,,,,,,,,,,,,,,,,,,,,,
,,,,,,00060,2023-10-11_18h21.19.137,vbt_B1_day2,2022.2.4,Win32,62.5,,,,,,,,,,,,,,,,,,,,,,,,,,,down,0,3.303,,0.384401114,-0.260167114,1,0,0,0.951,0,192,192,63,1,flirt,images/br_flirt.png,images/cb_flirt.png,0,,,,,,,,,,,,,,,,,,,,,,
,,,,,,00060,2023-10-11_18h21.19.137,vbt_B1_day2,2022.2.4,Win32,62.5,,,,,,,,,,,,,,,,,,,,,,,,,,,down,0,6.459,,0.361002888,-0.272423449,1,0,0,0.249,0,193,193,121,1,twijfel,images/br_twijfel.png,images/cb_twijfel.png,0,,,,,,,,,,,,,,,,,,,,,,
,,,,,,00060,2023-10-11_18h21.19.137,vbt_B1_day2,2022.2.4,Win32,62.5,,,,,,,,,,,,,,,,,,,,,,,,,,,down,0,8.384,,0.386629492,-0.251253516,1,0,0,1,0,194,194,136,1,waarbij,images/br_waarbij.png,images/cb_waarbij.png,1,waarbij,,,,,,,,,,,,,,,,,,,,,
,,,,,,00060,2023-10-11_18h21.19.137,vbt_B1_day2,2022.2.4,Win32,62.5,,,,,,,,,,,,,,,,,,,,,,,,,,,down,0,5.952,,0.354317583,-0.240111455,1,0,0,2.265,0,195,195,85,1,heilig,images/br_heilig.png,images/cb_heilig.png,0,,,,,,,,,,,,,,,,,,,,,,
,,,,,,00060,2023-10-11_18h21.19.137,vbt_B1_day2,2022.2.4,Win32,62.5,,,,,,,,,,,,,,,,,,,,,,,,,,,down,0,6.634,,0.354317583,-0.25236779,1,0,0,0.333,0,196,196,20,1,site,images/br_site.png,images/cb_site.png,0,,,,,,,,,,,,,,,,,,,,,,
,,,,,,00060,2023-10-11_18h21.19.137,vbt_B1_day2,2022.2.4,Win32,62.5,,,,,,,,,,,,,,,,,,,,,,,,,,,down,0,2.932,,0.375487431,-0.206685228,1,0,0,1.65,0,197,197,59,1,kring,images/br_kring.png,images/cb_kring.png,1,kring,,,,,,,,,,,,,,,,,,,,,
,,,,,,00060,2023-10-11_18h21.19.137,vbt_B1_day2,2022.2.4,Win32,62.5,,,,,,,,,,,,,,,,,,,,,,,,,,,down,0,2.785,,0.449025104,-0.197771588,1,0,0,0.467,0,198,198,79,1,nodig,images/br_nodig.png,images/cb_nodig.png,0,,,,,,,,,,,,,,,,,,,,,,
,,,,,,00060,2023-10-11_18h21.19.137,vbt_B1_day2,2022.2.4,Win32,62.5,,,,,,,,,,,,,,,,,,,,,,,,,,,down,0,5.938,,0.410027889,-0.22005571,1,0,0,2.682,0,199,199,158,1,innemen,images/br_innemen.png,images/cb_innemen.png,0,,,,,,,,,,,,,,,,,,,,,,
,,,,,,00060,2023-10-11_18h21.19.137,vbt_B1_day2,2022.2.4,Win32,62.5,,,,,,,,,,,,,,,,,,,,,,,,,,,,,,,,,,,,,,,,,,,,,,,0.248468001,-0.206685228,1,0,0,,,,,,,,,,,,,,,,
,,,,,,00060,2023-10-11_18h21.19.137,vbt_B1_day2,2022.2.4,Win32,62.5,,,,,,,,,,,,,,,,,,,,,,,,,,,,,,,,,,,,,,,,,,,,,,,,,,,,0.486908044,-0.070752115,1,0,0,,,,,,,,,,,
,,,,,,00060,2023-10-11_18h21.19.137,vbt_B1_day2,2022.2.4,Win32,62.5,,,,,,,,,,,,,,,,,,,,,,,,,,,,,,,,,,,,,,,,,,inzicht,images/br_inzicht.png,images/cb_inzicht.png,,inzicht,,,,,,,,,,,0.318662936,-0.08300845,1,0,0,inzicht,0,0,0,53,1
,,,,,,00060,2023-10-11_18h21.19.137,vbt_B1_day2,2022.2.4,Win32,62.5,,,,,,,,,,,,,,,,,,,,,,,,,,,,,,,,,,,,,,,,,,toeval,images/br_toeval.png,images/cb_toeval.png,,toeval,,,,,,,,,,,0.336490302,-0.080779944,1,0,0,toeval,0,1,1,11,1
,,,,,,00060,2023-10-11_18h21.19.137,vbt_B1_day2,2022.2.4,Win32,62.5,,,,,,,,,,,,,,,,,,,,,,,,,,,,,,,,,,,,,,,,,,kabel,images/br_kabel.png,images/cb_kabel.png,,kabel,,,,,,,,,,,0.318662936,-0.079665755,1,0,0,kabel,0,2,2,7,1
,,,,,,00060,2023-10-11_18h21.19.137,vbt_B1_day2,2022.2.4,Win32,62.5,,,,,,,,,,,,,,,,,,,,,,,,,,,,,,,,,,,,,,,,,,diep,images/br_diep.png,images/cb_diep.png,,diep,,,,,,,,,,,0.314206179,-0.096378847,1,0,0,diep,0,3,3,2,1
,,,,,,00060,2023-10-11_18h21.19.137,vbt_B1_day2,2022.2.4,Win32,62.5,,,,,,,,,,,,,,,,,,,,,,,,,,,,,,,,,,,,,,,,,,systeem,images/br_systeem.png,images/cb_systeem.png,,syn,,,,,,,,,,,0.285236752,-0.081894176,1,0,0,syn,0,4,4,54,1
,,,,,,00060,2023-10-11_18h21.19.137,vbt_B1_day2,2022.2.4,Win32,62.5,,,,,,,,,,,,,,,,,,,,,,,,,,,,,,,,,,,,,,,,,,doodmoe,images/br_doodmoe.png,images/cb_doodmoe.png,,doodmoe,,,,,,,,,,,0.305292496,-0.048467992,1,0,0,doodmoe,0,5,5,15,1
,,,,,,00060,2023-10-11_18h21.19.137,vbt_B1_day2,2022.2.4,Win32,62.5,,,,,,,,,,,,,,,,,,,,,,,,,,,,,,,,,,,,,,,,,,eenhoorn,images/br_eenhoorn.png,images/cb_eenhoorn.png,,eenhoorn,,,,,,,,,,,0.328690808,-0.052924791,1,0,0,eenhoorn,0,6,6,19,1
,,,,,,00060,2023-10-11_18h21.19.137,vbt_B1_day2,2022.2.4,Win32,62.5,,,,,,,,,,,,,,,,,,,,,,,,,,,,,,,,,,,,,,,,,,breuk,images/br_breuk.png,images/cb_breuk.png,,breuk,,,,,,,,,,,0.342061332,-0.086350975,1,0,0,breuk,0,7,7,45,1
,,,,,,00060,2023-10-11_18h21.19.137,vbt_B1_day2,2022.2.4,Win32,62.5,,,,,,,,,,,,,,,,,,,,,,,,,,,,,,,,,,,,,,,,,,clan,images/br_clan.png,images/cb_clan.png,,clan,,,,,,,,,,,0.334261838,-0.025069638,1,0,0,clan,0,8,8,40,1
,,,,,,00060,2023-10-11_18h21.19.137,vbt_B1_day2,2022.2.4,Win32,62.5,,,,,,,,,,,,,,,,,,,,,,,,,,,,,,,,,,,,,,,,,,trots,images/br_trots.png,images/cb_trots.png,,trots,,,,,,,,,,,0.251810568,-0.070752115,1,0,0,trots,0,9,9,44,1
,,,,,,00060,2023-10-11_18h21.19.137,vbt_B1_day2,2022.2.4,Win32,62.5,,,,,,,,,,,,,,,,,,,,,,,,,,,,,,,,,,,,,,,,,,sifferd,images/br_sifferd.png,images/cb_sifferd.png,,sufferd,,,,,,,,,,,0.330919271,-0.104178298,1,0,0,sufferd,0,10,10,32,1
,,,,,,00060,2023-10-11_18h21.19.137,vbt_B1_day2,2022.2.4,Win32,62.5,,,,,,,,,,,,,,,,,,,,,,,,,,,,,,,,,,,,,,,,,,bloeien,images/br_bloeien.png,images/cb_bloeien.png,,bloeien,,,,,,,,,,,0.324233966,-0.136490251,1,0,0,bloeien,0,11,11,12,1
,,,,,,00060,2023-10-11_18h21.19.137,vbt_B1_day2,2022.2.4,Win32,62.5,,,,,,,,,,,,,,,,,,,,,,,,,,,,,,,,,,,,,,,,,,dode,images/br_dode.png,images/cb_dode.png,,dode,,,,,,,,,,,0.352089119,-0.094150511,1,0,0,dode,0,12,12,41,1
,,,,,,00060,2023-10-11_18h21.19.137,vbt_B1_day2,2022.2.4,Win32,62.5,,,,,,,,,,,,,,,,,,,,,,,,,,,,,,,,,,,,,,,,,,zomers,images/br_zomers.png,images/cb_zomers.png,,zou..s,,,,,,,,,,,0.339832869,-0.122005665,1,0,0,zou..s,0,13,13,48,1
,,,,,,00060,2023-10-11_18h21.19.137,vbt_B1_day2,2022.2.4,Win32,62.5,,,,,,,,,,,,,,,,,,,,,,,,,,,,,,,,,,,,,,,,,,manieren,images/br_manieren.png,images/cb_manieren.png,,ma,,,,,,,,,,,0.343175521,-0.104178298,1,0,0,ma,0,14,14,56,1
,,,,,,00060,2023-10-11_18h21.19.137,vbt_B1_day2,2022.2.4,Win32,62.5,,,,,,,,,,,,,,,,,,,,,,,,,,,,,,,,,,,,,,,,,,zwager,images/br_zwager.png,images/cb_zwager.png,,zwager,,,,,,,,,,,0.307520874,-0.056267401,1,0,0,zwager,0,15,15,49,1
,,,,,,00060,2023-10-11_18h21.19.137,vbt_B1_day2,2022.2.4,Win32,62.5,,,,,,,,,,,,,,,,,,,,,,,,,,,,,,,,,,,,,,,,,,jagen,images/br_jagen.png,images/cb_jagen.png,,jagen,,,,,,,,,,,0.337604491,-0.03844012,1,0,0,jagen,0,16,16,6,1
,,,,,,00060,2023-10-11_18h21.19.137,vbt_B1_day2,2022.2.4,Win32,62.5,,,,,,,,,,,,,,,,,,,,,,,,,,,,,,,,,,,,,,,,,,heengeen,images/br_heengeen.png,images/cb_heengeen.png,,heengeen,,,,,,,,,,,0.306406685,-0.069637883,1,0,0,heengeen,0,17,17,38,1
,,,,,,00060,2023-10-11_18h21.19.137,vbt_B1_day2,2022.2.4,Win32,62.5,,,,,,,,,,,,,,,,,,,,,,,,,,,,,,,,,,,,,,,,,,remel,images/br_remel.png,images/cb_remel.png,,remel,,,,,,,,,,,0.314206179,-0.04512534,1,0,0,remel,0,18,18,25,1
,,,,,,00060,2023-10-11_18h21.19.137,vbt_B1_day2,2022.2.4,Win32,62.5,,,,,,,,,,,,,,,,,,,,,,,,,,,,,,,,,,,,,,,,,,sora,images/br_sora.png,images/cb_sora.png,,sora,,,,,,,,,,,0.267409471,-0.070752115,1,0,0,sora,0,19,19,22,1
,,,,,,00060,2023-10-11_18h21.19.137,vbt_B1_day2,2022.2.4,Win32,62.5,,,,,,,,,,,,,,,,,,,,,,,,,,,,,,,,,,,,,,,,,,prekken,images/br_prekken.png,images/cb_prekken.png,,prekken,,,,,,,,,,,0.420055676,-0.100835646,1,0,0,prekken,0,20,20,34,1
,,,,,,00060,2023-10-11_18h21.19.137,vbt_B1_day2,2022.2.4,Win32,62.5,,,,,,,,,,,,,,,,,,,,,,,,,,,,,,,,,,,,,,,,,,geld,images/br_geld.png,images/cb_geld.png,,geld,,,,,,,,,,,0.35097493,-0.060724242,1,0,0,geld,0,21,21,3,1
,,,,,,00060,2023-10-11_18h21.19.137,vbt_B1_day2,2022.2.4,Win32,62.5,,,,,,,,,,,,,,,,,,,,,,,,,,,,,,,,,,,,,,,,,,welzijn,images/br_welzijn.png,images/cb_welzijn.png,,welzijn,,,,,,,,,,,0.265181092,-0.075208914,1,0,0,welzijn,0,22,22,52,1
,,,,,,00060,2023-10-11_18h21.19.137,vbt_B1_day2,2022.2.4,Win32,62.5,,,,,,,,,,,,,,,,,,,,,,,,,,,,,,,,,,,,,,,,,,badon,images/br_badon.png,images/cb_badon.png,,badon,,,,,,,,,,,0.349860741,-0.03509751,1,0,0,badon,0,23,23,26,1
,,,,,,00060,2023-10-11_18h21.19.137,vbt_B1_day2,2022.2.4,Win32,62.5,,,,,,,,,,,,,,,,,,,,,,,,,,,,,,,,,,,,,,,,,,kenzis,images/br_kenzis.png,images/cb_kenzis.png,,kennis,,,,,,,,,,,0.333147649,-0.088579481,1,0,0,kennis,0,24,24,30,1
,,,,,,00060,2023-10-11_18h21.19.137,vbt_B1_day2,2022.2.4,Win32,62.5,,,,,,,,,,,,,,,,,,,,,,,,,,,,,,,,,,,,,,,,,,tand,images/br_tand.png,images/cb_tand.png,,tand,,,,,,,,,,,0.281894184,-0.059610053,1,0,0,tand,0,25,25,42,1
,,,,,,00060,2023-10-11_18h21.19.137,vbt_B1_day2,2022.2.4,Win32,62.5,,,,,,,,,,,,,,,,,,,,,,,,,,,,,,,,,,,,,,,,,,flits,images/br_flits.png,images/cb_flits.png,,flits,,,,,,,,,,,0.313091905,-0.075208914,1,0,0,flits,0,26,26,4,1
,,,,,,00060,2023-10-11_18h21.19.137,vbt_B1_day2,2022.2.4,Win32,62.5,,,,,,,,,,,,,,,,,,,,,,,,,,,,,,,,,,,,,,,,,,krimmen,images/br_krimmen.png,images/cb_krimmen.png,,kremmi.,,,,,,,,,,,0.311977716,-0.064066852,1,0,0,kremmi.,0,27,27,35,1
,,,,,,00060,2023-10-11_18h21.19.137,vbt_B1_day2,2022.2.4,Win32,62.5,,,,,,,,,,,,,,,,,,,,,,,,,,,,,,,,,,,,,,,,,,agressie,images/br_agressie.png,images/cb_agressie.png,,agressie,,,,,,,,,,,0.279665721,-0.057381633,1,0,0,agressie,0,28,28,59,1
,,,,,,00060,2023-10-11_18h21.19.137,vbt_B1_day2,2022.2.4,Win32,62.5,,,,,,,,,,,,,,,,,,,,,,,,,,,,,,,,,,,,,,,,,,aanzien,images/br_aanzien.png,images/cb_aanzien.png,,aanzien,,,,,,,,,,,0.355431772,-0.113091939,1,0,0,aanzien,0,29,29,13,1
,,,,,,00060,2023-10-11_18h21.19.137,vbt_B1_day2,2022.2.4,Win32,62.5,,,,,,,,,,,,,,,,,,,,,,,,,,,,,,,,,,,,,,,,,,stes,images/br_stes.png,images/cb_stes.png,,stes,,,,,,,,,,,0.225069689,0.016155997,1,0,0,stes,0,30,30,21,1
,,,,,,00060,2023-10-11_18h21.19.137,vbt_B1_day2,2022.2.4,Win32,62.5,,,,,,,,,,,,,,,,,,,,,,,,,,,,,,,,,,,,,,,,,,bereuwen,images/br_bereuwen.png,images/cb_bereuwen.png,,bereuk,,,,,,,,,,,0.26852366,-0.091922006,1,0,0,bereuk,0,31,31,39,1
,,,,,,00060,2023-10-11_18h21.19.137,vbt_B1_day2,2022.2.4,Win32,62.5,,,,,,,,,,,,,,,,,,,,,,,,,,,,,,,,,,,,,,,,,,wijve,images/br_wijve.png,images/cb_wijve.png,,wijvi,,,,,,,,,,,0.277437343,-0.061838432,1,0,0,wijvi,0,32,32,27,1
,,,,,,00060,2023-10-11_18h21.19.137,vbt_B1_day2,2022.2.4,Win32,62.5,,,,,,,,,,,,,,,,,,,,,,,,,,,,,,,,,,,,,,,,,,lijnen,images/br_lijnen.png,images/cb_lijnen.png,,lijnen,,,,,,,,,,,0.295264624,-0.106406677,1,0,0,lijnen,0,33,33,51,1
,,,,,,00060,2023-10-11_18h21.19.137,vbt_B1_day2,2022.2.4,Win32,62.5,,,,,,,,,,,,,,,,,,,,,,,,,,,,,,,,,,,,,,,,,,woning,images/br_woning.png,images/cb_woning.png,,woning,,,,,,,,,,,0.291922057,-0.070752115,1,0,0,woning,0,34,34,10,1
,,,,,,00060,2023-10-11_18h21.19.137,vbt_B1_day2,2022.2.4,Win32,62.5,,,,,,,,,,,,,,,,,,,,,,,,,,,,,,,,,,,,,,,,,,zegel,images/br_zegel.png,images/cb_zegel.png,,zegel,,,,,,,,,,,0.313091905,-0.081894176,1,0,0,zegel,0,35,35,46,1
,,,,,,00060,2023-10-11_18h21.19.137,vbt_B1_day2,2022.2.4,Win32,62.5,,,,,,,,,,,,,,,,,,,,,,,,,,,,,,,,,,,,,,,,,,plannen,images/br_plannen.png,images/cb_plannen.png,,plannen,,,,,,,,,,,0.322005588,-0.062952663,1,0,0,plannen,0,36,36,55,1
,,,,,,00060,2023-10-11_18h21.19.137,vbt_B1_day2,2022.2.4,Win32,62.5,,,,,,,,,,,,,,,,,,,,,,,,,,,,,,,,,,,,,,,,,,opdatten,images/br_opdatten.png,images/cb_opdatten.png,,opvatten,,,,,,,,,,,0.304178307,-0.064066852,1,0,0,opvatten,0,37,37,37,1
,,,,,,00060,2023-10-11_18h21.19.137,vbt_B1_day2,2022.2.4,Win32,62.5,,,,,,,,,,,,,,,,,,,,,,,,,,,,,,,,,,,,,,,,,,ophuimen,images/br_ophuimen.png,images/cb_ophuimen.png,,ophuimen,,,,,,,,,,,0.324233966,-0.023955449,1,0,0,ophuimen,0,38,38,36,1
,,,,,,00060,2023-10-11_18h21.19.137,vbt_B1_day2,2022.2.4,Win32,62.5,,,,,,,,,,,,,,,,,,,,,,,,,,,,,,,,,,,,,,,,,,feestdag,images/br_feestdag.png,images/cb_feestdag.png,,feestdag,,,,,,,,,,,0.366573918,-0.028412248,1,0,0,feestdag,0,39,39,17,1
,,,,,,00060,2023-10-11_18h21.19.137,vbt_B1_day2,2022.2.4,Win32,62.5,,,,,,,,,,,,,,,,,,,,,,,,,,,,,,,,,,,,,,,,,,kasteel,images/br_kasteel.png,images/cb_kasteel.png,,kasteel,,,,,,,,,,,0.33871868,-0.090807816,1,0,0,kasteel,0,40,40,14,1
,,,,,,00060,2023-10-11_18h21.19.137,vbt_B1_day2,2022.2.4,Win32,62.5,,,,,,,,,,,,,,,,,,,,,,,,,,,,,,,,,,,,,,,,,,blad,images/br_blad.png,images/cb_blad.png,,blad,,,,,,,,,,,0.286351026,-0.11532036,1,0,0,blad,0,41,41,1,1
,,,,,,00060,2023-10-11_18h21.19.137,vbt_B1_day2,2022.2.4,Win32,62.5,,,,,,,,,,,,,,,,,,,,,,,,,,,,,,,,,,,,,,,,,,moes,images/br_moes.png,images/cb_moes.png,,moes,,,,,,,,,,,0.377715979,-0.066295273,1,0,0,moes,0,42,42,0,1
,,,,,,00060,2023-10-11_18h21.19.137,vbt_B1_day2,2022.2.4,Win32,62.5,,,,,,,,,,,,,,,,,,,,,,,,,,,,,,,,,,,,,,,,,,ningen,images/br_ningen.png,images/cb_ningen.png,,ningen,,,,,,,,,,,0.285236752,-0.022841217,1,0,0,ningen,0,43,43,28,1
,,,,,,00060,2023-10-11_18h21.19.137,vbt_B1_day2,2022.2.4,Win32,62.5,,,,,,,,,,,,,,,,,,,,,,,,,,,,,,,,,,,,,,,,,,anarchie,images/br_anarchie.png,images/cb_anarchie.png,,anarchie,,,,,,,,,,,0.318662936,-0.079665755,1,0,0,anarchie,0,44,44,16,1
,,,,,,00060,2023-10-11_18h21.19.137,vbt_B1_day2,2022.2.4,Win32,62.5,,,,,,,,,,,,,,,,,,,,,,,,,,,,,,,,,,,,,,,,,,tweeling,images/br_tweeling.png,images/cb_tweeling.png,,tweeling,,,,,,,,,,,0.343175521,-0.106406677,1,0,0,tweeling,0,45,45,58,1
,,,,,,00060,2023-10-11_18h21.19.137,vbt_B1_day2,2022.2.4,Win32,62.5,,,,,,,,,,,,,,,,,,,,,,,,,,,,,,,,,,,,,,,,,,kijlen,images/br_kijlen.png,images/cb_kijlen.png,,kijlen,,,,,,,,,,,0.382172736,-0.068523694,1,0,0,kijlen,0,46,46,31,1
,,,,,,00060,2023-10-11_18h21.19.137,vbt_B1_day2,2022.2.4,Win32,62.5,,,,,,,,,,,,,,,,,,,,,,,,,,,,,,,,,,,,,,,,,,goon,images/br_goon.png,images/cb_goon.png,,goon,,,,,,,,,,,0.274094691,-0.124234,1,0,0,goon,0,47,47,23,1
,,,,,,00060,2023-10-11_18h21.19.137,vbt_B1_day2,2022.2.4,Win32,62.5,,,,,,,,,,,,,,,,,,,,,,,,,,,,,,,,,,,,,,,,,,sjijfel,images/br_sjijfel.png,images/cb_sjijfel.png,,sjij,,,,,,,,,,,0.323119777,-0.124234,1,0,0,sjij,0,48,48,33,1
,,,,,,00060,2023-10-11_18h21.19.137,vbt_B1_day2,2022.2.4,Win32,62.5,,,,,,,,,,,,,,,,,,,,,,,,,,,,,,,,,,,,,,,,,,thema,images/br_thema.png,images/cb_thema.png,,thema,,,,,,,,,,,0.330919271,-0.106406677,1,0,0,thema,0,49,49,47,1
,,,,,,00060,2023-10-11_18h21.19.137,vbt_B1_day2,2022.2.4,Win32,62.5,,,,,,,,,,,,,,,,,,,,,,,,,,,,,,,,,,,,,,,,,,aanvraag,images/br_aanvraag.png,images/cb_aanvraag.png,,aanvraag,,,,,,,,,,,0.371030675,-0.006128125,1,0,0,aanvraag,0,50,50,57,1
,,,,,,00060,2023-10-11_18h21.19.137,vbt_B1_day2,2022.2.4,Win32,62.5,,,,,,,,,,,,,,,,,,,,,,,,,,,,,,,,,,,,,,,,,,negel,images/br_negel.png,images/cb_negel.png,,negel,,,,,,,,,,,0.322005588,-0.076323145,1,0,0,negel,0,51,51,24,1
,,,,,,00060,2023-10-11_18h21.19.137,vbt_B1_day2,2022.2.4,Win32,62.5,,,,,,,,,,,,,,,,,,,,,,,,,,,,,,,,,,,,,,,,,,lokken,images/br_lokken.png,images/cb_lokken.png,,lokken,,,,,,,,,,,0.310863527,-0.048467992,1,0,0,lokken,0,52,52,8,1
,,,,,,00060,2023-10-11_18h21.19.137,vbt_B1_day2,2022.2.4,Win32,62.5,,,,,,,,,,,,,,,,,,,,,,,,,,,,,,,,,,,,,,,,,,koorts,images/br_koorts.png,images/cb_koorts.png,,koorts,,,,,,,,,,,0.337604491,-0.108635097,1,0,0,koorts,0,53,53,50,1
,,,,,,00060,2023-10-11_18h21.19.137,vbt_B1_day2,2022.2.4,Win32,62.5,,,,,,,,,,,,,,,,,,,,,,,,,,,,,,,,,,,,,,,,,,heilig,images/br_heilig.png,images/cb_heilig.png,,heilig,,,,,,,,,,,0.328690808,-0.051810602,1,0,0,heilig,0,54,54,9,1
,,,,,,00060,2023-10-11_18h21.19.137,vbt_B1_day2,2022.2.4,Win32,62.5,,,,,,,,,,,,,,,,,,,,,,,,,,,,,,,,,,,,,,,,,,strikken,images/br_strikken.png,images/cb_strikken.png,,strikken,,,,,,,,,,,0.297493087,-0.060724242,1,0,0,strikken,0,55,55,18,1
,,,,,,00060,2023-10-11_18h21.19.137,vbt_B1_day2,2022.2.4,Win32,62.5,,,,,,,,,,,,,,,,,,,,,,,,,,,,,,,,,,,,,,,,,,piste,images/br_piste.png,images/cb_piste.png,,piste,,,,,,,,,,,0.247353811,-0.064066852,1,0,0,piste,0,56,56,5,1
,,,,,,00060,2023-10-11_18h21.19.137,vbt_B1_day2,2022.2.4,Win32,62.5,,,,,,,,,,,,,,,,,,,,,,,,,,,,,,,,,,,,,,,,,,jong,images/br_jong.png,images/cb_jong.png,,jong,,,,,,,,,,,0.324233966,-0.144289787,1,0,0,jong,0,57,57,43,1
,,,,,,00060,2023-10-11_18h21.19.137,vbt_B1_day2,2022.2.4,Win32,62.5,,,,,,,,,,,,,,,,,,,,,,,,,,,,,,,,,,,,,,,,,,lurgen,images/br_lurgen.png,images/cb_lurgen.png,,lurgin,,,,,,,,,,,0.248468001,-0.037325931,1,0,0,lurgin,0,58,58,29,1
,,,,,,00060,2023-10-11_18h21.19.137,vbt_B1_day2,2022.2.4,Win32,62.5,,,,,,,,,,,,,,,,,,,,,,,,,,,,,,,,,,,,,,,,,,joes,images/br_joes.png,images/cb_joes.png,,joes,,,,,,,,,,,0.269637934,-0.086350975,1,0,0,joes,0,59,59,20,1
,,,,,,00060,2023-10-11_18h21.19.137,vbt_B1_day2,2022.2.4,Win32,62.5,,,,,,,,,,,,,,,,,,,,,,,,,,,,,,,,,,,,,,,,,,,,,,,,,,,,,,,,,,,,,,,,,,,
