welcome_mouse.x,welcome_mouse.y,welcome_mouse.leftButton,welcome_mouse.midButton,welcome_mouse.rightButton,welcome_mouse.time,"ID",date,expName,psychopyVersion,OS,frameRate,refresh_mouse.x,refresh_mouse.y,refresh_mouse.leftButton,refresh_mouse.midButton,refresh_mouse.rightButton,refresh_mouse.time,braille_mouse.x,braille_mouse.y,braille_mouse.leftButton,braille_mouse.midButton,braille_mouse.rightButton,braille_mouse.time,trials.thisRepN,trials.thisTrialN,trials.thisN,trials.thisIndex,trials.ran,nlLet,brLet,cbLet,trainInstr_mouse.x,trainInstr_mouse.y,trainInstr_mouse.leftButton,trainInstr_mouse.midButton,trainInstr_mouse.rightButton,trainInstr_mouse.time,translation_key.keys,translation_key.corr,translation_key.rt,word_rsp.text,word_mouse.x,word_mouse.y,word_mouse.leftButton,word_mouse.midButton,word_mouse.rightButton,word_mouse.time,train_loop.thisRepN,train_loop.thisTrialN,train_loop.thisN,train_loop.thisIndex,train_loop.ran,nlWrd,brWrd,cbWrd,test,testResp,mouse.x,mouse.y,mouse.leftButton,mouse.midButton,mouse.rightButton,testInstr_mouse.x,testInstr_mouse.y,testInstr_mouse.leftButton,testInstr_mouse.midButton,testInstr_mouse.rightButton,test_mouse.x,test_mouse.y,test_mouse.leftButton,test_mouse.midButton,test_mouse.rightButton,test_response.text,test_loop.thisRepN,test_loop.thisTrialN,test_loop.thisN,test_loop.thisIndex,test_loop.ran
0.512195122,-0.053658537,1,0,0,23.04,00065 ,2023-10-17_19h21.26.050,vbt_B1_day2,2022.2.4,MacIntel,47.61904762,,,,,,,,,,,,,,,,,,,,,,,,,,,,,,,,,,,,,,,,,,,,,,,,,,,,,,,,,,,,,,,,,,,
,,,,,,00065 ,2023-10-17_19h21.26.050,vbt_B1_day2,2022.2.4,MacIntel,47.61904762,0.546341463,-0.226829268,1,0,0,10.923,,,,,,,,,,,,,,,,,,,,,,,,,,,,,,,,,,,,,,,,,,,,,,,,,,,,,,,,,,,,,
,,,,,,00065 ,2023-10-17_19h21.26.050,vbt_B1_day2,2022.2.4,MacIntel,47.61904762,,,,,,,0.556097561,-0.184146341,1,0,0,13.863,0,0,0,12,1,m,images/br_m.png,images/cb_m.png,,,,,,,,,,,,,,,,,,,,,,,,,,,,,,,,,,,,,,,,,,,,,,,
,,,,,,00065 ,2023-10-17_19h21.26.050,vbt_B1_day2,2022.2.4,MacIntel,47.61904762,,,,,,,0.551219512,-0.091463415,1,0,0,14.047,0,1,1,13,1,n,images/br_n.png,images/cb_n.png,,,,,,,,,,,,,,,,,,,,,,,,,,,,,,,,,,,,,,,,,,,,,,,
,,,,,,00065 ,2023-10-17_19h21.26.050,vbt_B1_day2,2022.2.4,MacIntel,47.61904762,,,,,,,0.442682927,-0.135365854,1,0,0,1.065,0,2,2,11,1,l,images/br_l.png,images/cb_l.png,,,,,,,,,,,,,,,,,,,,,,,,,,,,,,,,,,,,,,,,,,,,,,,
,,,,,,00065 ,2023-10-17_19h21.26.050,vbt_B1_day2,2022.2.4,MacIntel,47.61904762,,,,,,,0.537804878,-0.102439024,1,0,0,2.648,0,3,3,17,1,r,images/br_r.png,images/cb_r.png,,,,,,,,,,,,,,,,,,,,,,,,,,,,,,,,,,,,,,,,,,,,,,,
,,,,,,00065 ,2023-10-17_19h21.26.050,vbt_B1_day2,2022.2.4,MacIntel,47.61904762,,,,,,,0.437804878,-0.18902439,1,0,0,0.33,0,4,4,21,1,v,images/br_v.png,images/cb_v.png,,,,,,,,,,,,,,,,,,,,,,,,,,,,,,,,,,,,,,,,,,,,,,,
,,,,,,00065 ,2023-10-17_19h21.26.050,vbt_B1_day2,2022.2.4,MacIntel,47.61904762,,,,,,,0.503658537,-0.101219512,1,0,0,1.028,0,5,5,23,1,x,images/br_x.png,images/cb_x.png,,,,,,,,,,,,,,,,,,,,,,,,,,,,,,,,,,,,,,,,,,,,,,,
,,,,,,00065 ,2023-10-17_19h21.26.050,vbt_B1_day2,2022.2.4,MacIntel,47.61904762,,,,,,,0.491463415,-0.215853659,1,0,0,0.228,0,6,6,14,1,o,images/br_o.png,images/cb_o.png,,,,,,,,,,,,,,,,,,,,,,,,,,,,,,,,,,,,,,,,,,,,,,,
,,,,,,00065 ,2023-10-17_19h21.26.050,vbt_B1_day2,2022.2.4,MacIntel,47.61904762,,,,,,,0.47804878,-0.159756098,1,0,0,0.514,0,7,7,15,1,p,images/br_p.png,images/cb_p.png,,,,,,,,,,,,,,,,,,,,,,,,,,,,,,,,,,,,,,,,,,,,,,,
,,,,,,00065 ,2023-10-17_19h21.26.050,vbt_B1_day2,2022.2.4,MacIntel,47.61904762,,,,,,,0.52195122,-0.126829268,1,0,0,7.43,0,8,8,22,1,w,images/br_w.png,images/cb_w.png,,,,,,,,,,,,,,,,,,,,,,,,,,,,,,,,,,,,,,,,,,,,,,,
,,,,,,00065 ,2023-10-17_19h21.26.050,vbt_B1_day2,2022.2.4,MacIntel,47.61904762,,,,,,,0.436585366,-0.159756098,1,0,0,3.064,0,9,9,20,1,u,images/br_u.png,images/cb_u.png,,,,,,,,,,,,,,,,,,,,,,,,,,,,,,,,,,,,,,,,,,,,,,,
,,,,,,00065 ,2023-10-17_19h21.26.050,vbt_B1_day2,2022.2.4,MacIntel,47.61904762,,,,,,,0.397560976,-0.2,1,0,0,2.196,0,10,10,2,1,c,images/br_c.png,images/cb_c.png,,,,,,,,,,,,,,,,,,,,,,,,,,,,,,,,,,,,,,,,,,,,,,,
,,,,,,00065 ,2023-10-17_19h21.26.050,vbt_B1_day2,2022.2.4,MacIntel,47.61904762,,,,,,,0.465853659,-0.132926829,1,0,0,0.73,0,11,11,18,1,s,images/br_s.png,images/cb_s.png,,,,,,,,,,,,,,,,,,,,,,,,,,,,,,,,,,,,,,,,,,,,,,,
,,,,,,00065 ,2023-10-17_19h21.26.050,vbt_B1_day2,2022.2.4,MacIntel,47.61904762,,,,,,,0.47195122,-0.174390244,1,0,0,3.997,0,12,12,25,1,z,images/br_z.png,images/cb_z.png,,,,,,,,,,,,,,,,,,,,,,,,,,,,,,,,,,,,,,,,,,,,,,,
,,,,,,00065 ,2023-10-17_19h21.26.050,vbt_B1_day2,2022.2.4,MacIntel,47.61904762,,,,,,,0.504878049,-0.206097561,1,0,0,0.149,0,13,13,0,1,a,images/br_a.png,images/cb_a.png,,,,,,,,,,,,,,,,,,,,,,,,,,,,,,,,,,,,,,,,,,,,,,,
,,,,,,00065 ,2023-10-17_19h21.26.050,vbt_B1_day2,2022.2.4,MacIntel,47.61904762,,,,,,,0.470731707,-0.198780488,1,0,0,0.615,0,14,14,19,1,t,images/br_t.png,images/cb_t.png,,,,,,,,,,,,,,,,,,,,,,,,,,,,,,,,,,,,,,,,,,,,,,,
,,,,,,00065 ,2023-10-17_19h21.26.050,vbt_B1_day2,2022.2.4,MacIntel,47.61904762,,,,,,,0.495121951,-0.163414634,1,0,0,12.547,0,15,15,5,1,f,images/br_f.png,images/cb_f.png,,,,,,,,,,,,,,,,,,,,,,,,,,,,,,,,,,,,,,,,,,,,,,,
,,,,,,00065 ,2023-10-17_19h21.26.050,vbt_B1_day2,2022.2.4,MacIntel,47.61904762,,,,,,,0.326829268,-0.114634146,1,0,0,5.697,0,16,16,9,1,j,images/br_j.png,images/cb_j.png,,,,,,,,,,,,,,,,,,,,,,,,,,,,,,,,,,,,,,,,,,,,,,,
,,,,,,00065 ,2023-10-17_19h21.26.050,vbt_B1_day2,2022.2.4,MacIntel,47.61904762,,,,,,,0.37195122,-0.1,1,0,0,1.281,0,17,17,24,1,y,images/br_y.png,images/cb_y.png,,,,,,,,,,,,,,,,,,,,,,,,,,,,,,,,,,,,,,,,,,,,,,,
,,,,,,00065 ,2023-10-17_19h21.26.050,vbt_B1_day2,2022.2.4,MacIntel,47.61904762,,,,,,,0.464634146,-0.114634146,1,0,0,18.896,0,18,18,3,1,d,images/br_d.png,images/cb_d.png,,,,,,,,,,,,,,,,,,,,,,,,,,,,,,,,,,,,,,,,,,,,,,,
,,,,,,00065 ,2023-10-17_19h21.26.050,vbt_B1_day2,2022.2.4,MacIntel,47.61904762,,,,,,,0.336585366,-0.063414634,1,0,0,37.032,0,19,19,7,1,h,images/br_h.png,images/cb_h.png,,,,,,,,,,,,,,,,,,,,,,,,,,,,,,,,,,,,,,,,,,,,,,,
,,,,,,00065 ,2023-10-17_19h21.26.050,vbt_B1_day2,2022.2.4,MacIntel,47.61904762,,,,,,,0.465853659,-0.114634146,1,0,0,7.598,0,20,20,6,1,g,images/br_g.png,images/cb_g.png,,,,,,,,,,,,,,,,,,,,,,,,,,,,,,,,,,,,,,,,,,,,,,,
,,,,,,00065 ,2023-10-17_19h21.26.050,vbt_B1_day2,2022.2.4,MacIntel,47.61904762,,,,,,,0.447560976,0.082926829,1,0,0,6.1,0,21,21,1,1,b,images/br_b.png,images/cb_b.png,,,,,,,,,,,,,,,,,,,,,,,,,,,,,,,,,,,,,,,,,,,,,,,
,,,,,,00065 ,2023-10-17_19h21.26.050,vbt_B1_day2,2022.2.4,MacIntel,47.61904762,,,,,,,0.298780488,0.009756098,1,0,0,0.096,0,22,22,10,1,k,images/br_k.png,images/cb_k.png,,,,,,,,,,,,,,,,,,,,,,,,,,,,,,,,,,,,,,,,,,,,,,,
,,,,,,00065 ,2023-10-17_19h21.26.050,vbt_B1_day2,2022.2.4,MacIntel,47.61904762,,,,,,,0.393902439,0.017073171,1,0,0,5.448,0,23,23,16,1,q,images/br_q.png,images/cb_q.png,,,,,,,,,,,,,,,,,,,,,,,,,,,,,,,,,,,,,,,,,,,,,,,
,,,,,,00065 ,2023-10-17_19h21.26.050,vbt_B1_day2,2022.2.4,MacIntel,47.61904762,,,,,,,0.392682927,0.029268293,1,0,0,0.148,0,24,24,4,1,e,images/br_e.png,images/cb_e.png,,,,,,,,,,,,,,,,,,,,,,,,,,,,,,,,,,,,,,,,,,,,,,,
,,,,,,00065 ,2023-10-17_19h21.26.050,vbt_B1_day2,2022.2.4,MacIntel,47.61904762,,,,,,,0.357317073,0.007317073,1,0,0,0.362,0,25,25,8,1,i,images/br_i.png,images/cb_i.png,,,,,,,,,,,,,,,,,,,,,,,,,,,,,,,,,,,,,,,,,,,,,,,
,,,,,,00065 ,2023-10-17_19h21.26.050,vbt_B1_day2,2022.2.4,MacIntel,47.61904762,,,,,,,,,,,,,,,,,,,,,0.587804878,-0.197560976,1,0,0,57.106,,,,,,,,,,,,,,,,,,,,,,,,,,,,,,,,,,,,,,,,,
,,,,,,00065 ,2023-10-17_19h21.26.050,vbt_B1_day2,2022.2.4,MacIntel,47.61904762,,,,,,,,,,,,,,,,,,,,,,,,,,,down,0,31.514,,0.464634146,-0.180487805,1,0,0,4.918,0,0,0,104,1,zweven,images/br_zweven.png,images/cb_zweven.png,0,,,,,,,,,,,,,,,,,,,,,,
,,,,,,00065 ,2023-10-17_19h21.26.050,vbt_B1_day2,2022.2.4,MacIntel,47.61904762,,,,,,,,,,,,,,,,,,,,,,,,,,,down,0,9.761,,0.447560976,-0.163414634,1,0,0,1.658,0,1,1,64,1,wegen,images/br_wegen.png,images/cb_wegen.png,0,,,,,,,,,,,,,,,,,,,,,,
,,,,,,00065 ,2023-10-17_19h21.26.050,vbt_B1_day2,2022.2.4,MacIntel,47.61904762,,,,,,,,,,,,,,,,,,,,,,,,,,,down,0,21.276,,0.420731707,-0.05,1,0,0,1.192,0,2,2,130,1,keihard,images/br_keihard.png,images/cb_keihard.png,0,,,,,,,,,,,,,,,,,,,,,,
,,,,,,00065 ,2023-10-17_19h21.26.050,vbt_B1_day2,2022.2.4,MacIntel,47.61904762,,,,,,,,,,,,,,,,,,,,,,,,,,,down,0,17.276,,0.45,-0.070731707,1,0,0,0.959,0,3,3,148,1,smullen,images/br_smullen.png,images/cb_smullen.png,0,,,,,,,,,,,,,,,,,,,,,,
,,,,,,00065 ,2023-10-17_19h21.26.050,vbt_B1_day2,2022.2.4,MacIntel,47.61904762,,,,,,,,,,,,,,,,,,,,,,,,,,,down,0,17.662,,0.545121951,-0.043902439,1,0,0,0.829,0,4,4,175,1,heengaan,images/br_heengaan.png,images/cb_heengaan.png,0,,,,,,,,,,,,,,,,,,,,,,
,,,,,,00065 ,2023-10-17_19h21.26.050,vbt_B1_day2,2022.2.4,MacIntel,47.61904762,,,,,,,,,,,,,,,,,,,,,,,,,,,down,0,10.293,,0.490243902,-0.117073171,1,0,0,2.127,0,5,5,143,1,hechten,images/br_hechten.png,images/cb_hechten.png,0,,,,,,,,,,,,,,,,,,,,,,
,,,,,,00065 ,2023-10-17_19h21.26.050,vbt_B1_day2,2022.2.4,MacIntel,47.61904762,,,,,,,,,,,,,,,,,,,,,,,,,,,down,0,10.944,,0.469512195,-0.119512195,1,0,0,1.109,0,6,6,119,1,liefje,images/br_liefje.png,images/cb_liefje.png,0,,,,,,,,,,,,,,,,,,,,,,
,,,,,,00065 ,2023-10-17_19h21.26.050,vbt_B1_day2,2022.2.4,MacIntel,47.61904762,,,,,,,,,,,,,,,,,,,,,,,,,,,down,0,13.91,,0.397560976,-0.014634146,1,0,0,0.975,0,7,7,152,1,afnemen,images/br_afnemen.png,images/cb_afnemen.png,0,,,,,,,,,,,,,,,,,,,,,,
,,,,,,00065 ,2023-10-17_19h21.26.050,vbt_B1_day2,2022.2.4,MacIntel,47.61904762,,,,,,,,,,,,,,,,,,,,,,,,,,,down,0,20.143,,0.474390244,-0.047560976,1,0,0,0.842,0,8,8,190,1,goedkoop,images/br_goedkoop.png,images/cb_goedkoop.png,0,,,,,,,,,,,,,,,,,,,,,,
,,,,,,00065 ,2023-10-17_19h21.26.050,vbt_B1_day2,2022.2.4,MacIntel,47.61904762,,,,,,,,,,,,,,,,,,,,,,,,,,,down,0,13.143,,0.458536585,-0.108536585,1,0,0,0.692,0,9,9,103,1,joggen,images/br_joggen.png,images/cb_joggen.png,0,,,,,,,,,,,,,,,,,,,,,,
,,,,,,00065 ,2023-10-17_19h21.26.050,vbt_B1_day2,2022.2.4,MacIntel,47.61904762,,,,,,,,,,,,,,,,,,,,,,,,,,,down,0,4.862,,0.446341463,-0.026829268,1,0,0,3.958,0,10,10,66,1,lever,images/br_lever.png,images/cb_lever.png,0,,,,,,,,,,,,,,,,,,,,,,
,,,,,,00065 ,2023-10-17_19h21.26.050,vbt_B1_day2,2022.2.4,MacIntel,47.61904762,,,,,,,,,,,,,,,,,,,,,,,,,,,down,0,9.21,,0.465853659,-0.058536585,1,0,0,0.859,0,11,11,156,1,rechten,images/br_rechten.png,images/cb_rechten.png,0,,,,,,,,,,,,,,,,,,,,,,
,,,,,,00065 ,2023-10-17_19h21.26.050,vbt_B1_day2,2022.2.4,MacIntel,47.61904762,,,,,,,,,,,,,,,,,,,,,,,,,,,down,0,9.327,,0.440243902,-0.107317073,1,0,0,0.61,0,12,12,61,1,groen,images/br_groen.png,images/cb_groen.png,0,,,,,,,,,,,,,,,,,,,,,,
,,,,,,00065 ,2023-10-17_19h21.26.050,vbt_B1_day2,2022.2.4,MacIntel,47.61904762,,,,,,,,,,,,,,,,,,,,,,,,,,,down,0,3.695,,0.435365854,-0.051219512,1,0,0,0.59,0,13,13,7,1,geld,images/br_geld.png,images/cb_geld.png,0,,,,,,,,,,,,,,,,,,,,,,
,,,,,,00065 ,2023-10-17_19h21.26.050,vbt_B1_day2,2022.2.4,MacIntel,47.61904762,,,,,,,,,,,,,,,,,,,,,,,,,,,down,0,7.511,,0.503658537,-0.064634146,1,0,0,1.11,0,14,14,6,1,diep,images/br_diep.png,images/cb_diep.png,0,,,,,,,,,,,,,,,,,,,,,,
,,,,,,00065 ,2023-10-17_19h21.26.050,vbt_B1_day2,2022.2.4,MacIntel,47.61904762,,,,,,,,,,,,,,,,,,,,,,,,,,,down,0,40.307,,0.42195122,-0.062195122,1,0,0,0.643,0,15,15,54,1,gebit,images/br_gebit.png,images/cb_gebit.png,0,,,,,,,,,,,,,,,,,,,,,,
,,,,,,00065 ,2023-10-17_19h21.26.050,vbt_B1_day2,2022.2.4,MacIntel,47.61904762,,,,,,,,,,,,,,,,,,,,,,,,,,,down,0,5.644,,0.435365854,-0.126829268,1,0,0,0.543,0,16,16,37,1,mijn,images/br_mijn.png,images/cb_mijn.png,0,,,,,,,,,,,,,,,,,,,,,,
,,,,,,00065 ,2023-10-17_19h21.26.050,vbt_B1_day2,2022.2.4,MacIntel,47.61904762,,,,,,,,,,,,,,,,,,,,,,,,,,,down,0,10.343,,0.37195122,-0.014634146,1,0,0,44.837,0,17,17,142,1,snuiven,images/br_snuiven.png,images/cb_snuiven.png,0,,,,,,,,,,,,,,,,,,,,,,
,,,,,,00065 ,2023-10-17_19h21.26.050,vbt_B1_day2,2022.2.4,MacIntel,47.61904762,,,,,,,,,,,,,,,,,,,,,,,,,,,down,0,8.66,,0.495121951,-0.043902439,1,0,0,0.626,0,18,18,43,1,klauw,images/br_klauw.png,images/cb_klauw.png,0,,,,,,,,,,,,,,,,,,,,,,
,,,,,,00065 ,2023-10-17_19h21.26.050,vbt_B1_day2,2022.2.4,MacIntel,47.61904762,,,,,,,,,,,,,,,,,,,,,,,,,,,down,0,14.494,,0.47804878,-0.053658537,1,0,0,0.478,0,19,19,147,1,komisch,images/br_komisch.png,images/cb_komisch.png,0,,,,,,,,,,,,,,,,,,,,,,
,,,,,,00065 ,2023-10-17_19h21.26.050,vbt_B1_day2,2022.2.4,MacIntel,47.61904762,,,,,,,,,,,,,,,,,,,,,,,,,,,down,0,17.696,,0.499298738,0.000701262,1,0,0,1.723,0,20,20,57,1,steek,images/br_steek.png,images/cb_steek.png,1,Steek,,,,,,,,,,,,,,,,,,,,,
,,,,,,00065 ,2023-10-17_19h21.26.050,vbt_B1_day2,2022.2.4,MacIntel,47.61904762,,,,,,,,,,,,,,,,,,,,,,,,,,,down,0,12.986,,0.486676017,-0.149368864,1,0,0,1.336,0,21,21,186,1,voorraad,images/br_voorraad.png,images/cb_voorraad.png,0,,,,,,,,,,,,,,,,,,,,,,
,,,,,,00065 ,2023-10-17_19h21.26.050,vbt_B1_day2,2022.2.4,MacIntel,47.61904762,,,,,,,,,,,,,,,,,,,,,,,,,,,down,0,8.961,,0.488078541,-0.108695652,1,0,0,0.644,0,22,22,75,1,snoep,images/br_snoep.png,images/cb_snoep.png,0,,,,,,,,,,,,,,,,,,,,,,
,,,,,,00065 ,2023-10-17_19h21.26.050,vbt_B1_day2,2022.2.4,MacIntel,47.61904762,,,,,,,,,,,,,,,,,,,,,,,,,,,down,0,8.462,,0.471248247,-0.03997195,1,0,0,0.711,0,23,23,115,1,kleren,images/br_kleren.png,images/cb_kleren.png,0,,,,,,,,,,,,,,,,,,,,,,
,,,,,,00065 ,2023-10-17_19h21.26.050,vbt_B1_day2,2022.2.4,MacIntel,47.61904762,,,,,,,,,,,,,,,,,,,,,,,,,,,down,0,11.878,,0.495091164,-0.070827489,1,0,0,0.743,0,24,24,86,1,woning,images/br_woning.png,images/cb_woning.png,0,,,,,,,,,,,,,,,,,,,,,,
,,,,,,00065 ,2023-10-17_19h21.26.050,vbt_B1_day2,2022.2.4,MacIntel,47.61904762,,,,,,,,,,,,,,,,,,,,,,,,,,,down,0,16.828,,0.555399719,-0.122720898,1,0,0,0.594,0,25,25,121,1,twijfel,images/br_twijfel.png,images/cb_twijfel.png,0,,,,,,,,,,,,,,,,,,,,,,
,,,,,,00065 ,2023-10-17_19h21.26.050,vbt_B1_day2,2022.2.4,MacIntel,47.61904762,,,,,,,,,,,,,,,,,,,,,,,,,,,down,0,5.779,,0.535764376,-0.00911641,1,0,0,0.494,0,26,26,41,1,maken,images/br_maken.png,images/cb_maken.png,0,,,,,,,,,,,,,,,,,,,,,,
,,,,,,00065 ,2023-10-17_19h21.26.050,vbt_B1_day2,2022.2.4,MacIntel,47.61904762,,,,,,,,,,,,,,,,,,,,,,,,,,,down,0,7.563,,0.532959327,-0.016129032,1,0,0,0.559,0,27,27,117,1,kennis,images/br_kennis.png,images/cb_kennis.png,0,,,,,,,,,,,,,,,,,,,,,,
,,,,,,00065 ,2023-10-17_19h21.26.050,vbt_B1_day2,2022.2.4,MacIntel,47.61904762,,,,,,,,,,,,,,,,,,,,,,,,,,,down,0,22.094,,0.576437588,-0.076437588,1,0,0,0.555,0,28,28,127,1,doodmoe,images/br_doodmoe.png,images/cb_doodmoe.png,0,,,,,,,,,,,,,,,,,,,,,,
,,,,,,00065 ,2023-10-17_19h21.26.050,vbt_B1_day2,2022.2.4,MacIntel,47.61904762,,,,,,,,,,,,,,,,,,,,,,,,,,,down,0,6.545,,0.516129032,-0.056802244,1,0,0,0.495,0,29,29,112,1,lukken,images/br_lukken.png,images/cb_lukken.png,0,,,,,,,,,,,,,,,,,,,,,,
,,,,,,00065 ,2023-10-17_19h21.26.050,vbt_B1_day2,2022.2.4,MacIntel,47.61904762,,,,,,,,,,,,,,,,,,,,,,,,,,,down,0,3.679,,0.472650771,-0.03997195,1,0,0,0.512,0,30,30,30,1,uien,images/br_uien.png,images/cb_uien.png,0,,,,,,,,,,,,,,,,,,,,,,
,,,,,,00065 ,2023-10-17_19h21.26.050,vbt_B1_day2,2022.2.4,MacIntel,47.61904762,,,,,,,,,,,,,,,,,,,,,,,,,,,down,0,7.129,,0.44740533,0.018934081,1,0,0,0.495,0,31,31,27,1,dans,images/br_dans.png,images/cb_dans.png,0,,,,,,,,,,,,,,,,,,,,,,
,,,,,,00065 ,2023-10-17_19h21.26.050,vbt_B1_day2,2022.2.4,MacIntel,47.61904762,,,,,,,,,,,,,,,,,,,,,,,,,,,down,0,13.96,,0.514726508,0.126928471,1,0,0,0.458,0,32,32,161,1,attentie,images/br_attentie.png,images/cb_attentie.png,0,,,,,,,,,,,,,,,,,,,,,,
,,,,,,00065 ,2023-10-17_19h21.26.050,vbt_B1_day2,2022.2.4,MacIntel,47.61904762,,,,,,,,,,,,,,,,,,,,,,,,,,,down,0,11.311,,0.516129032,-0.002103787,1,0,0,0.693,0,33,33,97,1,loyaal,images/br_loyaal.png,images/cb_loyaal.png,1,Loyaal,,,,,,,,,,,,,,,,,,,,,
,,,,,,00065 ,2023-10-17_19h21.26.050,vbt_B1_day2,2022.2.4,MacIntel,47.61904762,,,,,,,,,,,,,,,,,,,,,,,,,,,down,0,8.717,,0.528751753,0.017531557,1,0,0,0.474,0,34,34,135,1,gedicht,images/br_gedicht.png,images/cb_gedicht.png,0,,,,,,,,,,,,,,,,,,,,,,
,,,,,,00065 ,2023-10-17_19h21.26.050,vbt_B1_day2,2022.2.4,MacIntel,47.61904762,,,,,,,,,,,,,,,,,,,,,,,,,,,down,0,10.612,,0.545582048,-0.011921459,1,0,0,4.493,0,35,35,60,1,jasje,images/br_jasje.png,images/cb_jasje.png,0,,,,,,,,,,,,,,,,,,,,,,
,,,,,,00065 ,2023-10-17_19h21.26.050,vbt_B1_day2,2022.2.4,MacIntel,47.61904762,,,,,,,,,,,,,,,,,,,,,,,,,,,down,0,3.562,,0.555399719,0.002103787,1,0,0,0.545,0,36,36,29,1,baas,images/br_baas.png,images/cb_baas.png,0,,,,,,,,,,,,,,,,,,,,,,
,,,,,,00065 ,2023-10-17_19h21.26.050,vbt_B1_day2,2022.2.4,MacIntel,47.61904762,,,,,,,,,,,,,,,,,,,,,,,,,,,down,0,3.144,,0.516129032,-0.034361851,1,0,0,0.511,0,37,37,19,1,geit,images/br_geit.png,images/cb_geit.png,1,Geit,,,,,,,,,,,,,,,,,,,,,
,,,,,,00065 ,2023-10-17_19h21.26.050,vbt_B1_day2,2022.2.4,MacIntel,47.61904762,,,,,,,,,,,,,,,,,,,,,,,,,,,down,0,11.901,,0.500701262,0.063814867,1,0,0,0.556,0,38,38,120,1,klimmen,images/br_klimmen.png,images/cb_klimmen.png,0,,,,,,,,,,,,,,,,,,,,,,
,,,,,,00065 ,2023-10-17_19h21.26.050,vbt_B1_day2,2022.2.4,MacIntel,47.61904762,,,,,,,,,,,,,,,,,,,,,,,,,,,down,0,13.344,,0.523141655,0.061009818,1,0,0,0.494,0,39,39,172,1,weigeren,images/br_weigeren.png,images/cb_weigeren.png,0,,,,,,,,,,,,,,,,,,,,,,
,,,,,,00065 ,2023-10-17_19h21.26.050,vbt_B1_day2,2022.2.4,MacIntel,47.61904762,,,,,,,,,,,,,,,,,,,,,,,,,,,down,0,5.761,,0.47826087,0.112903226,1,0,0,0.511,0,40,40,25,1,plek,images/br_plek.png,images/cb_plek.png,0,,,,,,,,,,,,,,,,,,,,,,
,,,,,,00065 ,2023-10-17_19h21.26.050,vbt_B1_day2,2022.2.4,MacIntel,47.61904762,,,,,,,,,,,,,,,,,,,,,,,,,,,down,0,6.479,,0.415147265,-0.03997195,1,0,0,0.644,0,41,41,34,1,vorm,images/br_vorm.png,images/cb_vorm.png,0,,,,,,,,,,,,,,,,,,,,,,
,,,,,,00065 ,2023-10-17_19h21.26.050,vbt_B1_day2,2022.2.4,MacIntel,47.61904762,,,,,,,,,,,,,,,,,,,,,,,,,,,down,0,16.195,,0.561009818,0.056802244,1,0,0,0.527,0,42,42,187,1,opkijken,images/br_opkijken.png,images/cb_opkijken.png,0,,,,,,,,,,,,,,,,,,,,,,
,,,,,,00065 ,2023-10-17_19h21.26.050,vbt_B1_day2,2022.2.4,MacIntel,47.61904762,,,,,,,,,,,,,,,,,,,,,,,,,,,down,0,5.029,,0.631136045,-0.169004208,1,0,0,0.695,0,43,43,67,1,zwart,images/br_zwart.png,images/cb_zwart.png,0,,,,,,,,,,,,,,,,,,,,,,
,,,,,,00065 ,2023-10-17_19h21.26.050,vbt_B1_day2,2022.2.4,MacIntel,47.61904762,,,,,,,,,,,,,,,,,,,,,,,,,,,down,0,17.961,,0.44740533,-0.122720898,1,0,0,0.576,0,44,44,111,1,ticket,images/br_ticket.png,images/cb_ticket.png,0,,,,,,,,,,,,,,,,,,,,,,
,,,,,,00065 ,2023-10-17_19h21.26.050,vbt_B1_day2,2022.2.4,MacIntel,47.61904762,,,,,,,,,,,,,,,,,,,,,,,,,,,down,0,6.696,,0.534361851,-0.004908836,1,0,0,0.545,0,45,45,151,1,aanzoek,images/br_aanzoek.png,images/cb_aanzoek.png,0,,,,,,,,,,,,,,,,,,,,,,
,,,,,,00065 ,2023-10-17_19h21.26.050,vbt_B1_day2,2022.2.4,MacIntel,47.61904762,,,,,,,,,,,,,,,,,,,,,,,,,,,down,0,2.929,,0.556802244,0.003506311,1,0,0,0.561,0,46,46,48,1,steel,images/br_steel.png,images/cb_steel.png,0,,,,,,,,,,,,,,,,,,,,,,
,,,,,,00065 ,2023-10-17_19h21.26.050,vbt_B1_day2,2022.2.4,MacIntel,47.61904762,,,,,,,,,,,,,,,,,,,,,,,,,,,down,0,14.711,,0.517531557,-0.00911641,1,0,0,0.544,0,47,47,193,1,weeshuis,images/br_weeshuis.png,images/cb_weeshuis.png,0,,,,,,,,,,,,,,,,,,,,,,
,,,,,,00065 ,2023-10-17_19h21.26.050,vbt_B1_day2,2022.2.4,MacIntel,47.61904762,,,,,,,,,,,,,,,,,,,,,,,,,,,down,0,13.779,,0.570827489,-0.02173913,1,0,0,0.494,0,48,48,196,1,nakijken,images/br_nakijken.png,images/cb_nakijken.png,0,,,,,,,,,,,,,,,,,,,,,,
,,,,,,00065 ,2023-10-17_19h21.26.050,vbt_B1_day2,2022.2.4,MacIntel,47.61904762,,,,,,,,,,,,,,,,,,,,,,,,,,,down,0,3.545,,0.49088359,-0.028751753,1,0,0,0.461,0,49,49,55,1,praat,images/br_praat.png,images/cb_praat.png,0,,,,,,,,,,,,,,,,,,,,,,
,,,,,,00065 ,2023-10-17_19h21.26.050,vbt_B1_day2,2022.2.4,MacIntel,47.61904762,,,,,,,,,,,,,,,,,,,,,,,,,,,down,0,7.495,,0.517531557,0.007713885,1,0,0,0.412,0,50,50,23,1,zout,images/br_zout.png,images/cb_zout.png,0,,,,,,,,,,,,,,,,,,,,,,
,,,,,,00065 ,2023-10-17_19h21.26.050,vbt_B1_day2,2022.2.4,MacIntel,47.61904762,,,,,,,,,,,,,,,,,,,,,,,,,,,down,0,3.145,,0.517531557,0.121318373,1,0,0,0.479,0,51,51,32,1,palm,images/br_palm.png,images/cb_palm.png,0,,,,,,,,,,,,,,,,,,,,,,
,,,,,,00065 ,2023-10-17_19h21.26.050,vbt_B1_day2,2022.2.4,MacIntel,47.61904762,,,,,,,,,,,,,,,,,,,,,,,,,,,down,0,3.478,,0.502103787,-0.028751753,1,0,0,0.461,0,52,52,21,1,mist,images/br_mist.png,images/cb_mist.png,0,,,,,,,,,,,,,,,,,,,,,,
,,,,,,00065 ,2023-10-17_19h21.26.050,vbt_B1_day2,2022.2.4,MacIntel,47.61904762,,,,,,,,,,,,,,,,,,,,,,,,,,,down,0,6.095,,0.497896213,-0.046984572,1,0,0,0.95,0,53,53,90,1,geluid,images/br_geluid.png,images/cb_geluid.png,0,,,,,,,,,,,,,,,,,,,,,,
,,,,,,00065 ,2023-10-17_19h21.26.050,vbt_B1_day2,2022.2.4,MacIntel,47.61904762,,,,,,,,,,,,,,,,,,,,,,,,,,,down,0,2.645,,0.49368864,-0.056802244,1,0,0,0.711,0,54,54,28,1,stal,images/br_stal.png,images/cb_stal.png,0,,,,,,,,,,,,,,,,,,,,,,
,,,,,,00065 ,2023-10-17_19h21.26.050,vbt_B1_day2,2022.2.4,MacIntel,47.61904762,,,,,,,,,,,,,,,,,,,,,,,,,,,down,0,7.079,,0.4628331,-0.079242637,1,0,0,0.544,0,55,55,47,1,kabel,images/br_kabel.png,images/cb_kabel.png,0,,,,,,,,,,,,,,,,,,,,,,
,,,,,,00065 ,2023-10-17_19h21.26.050,vbt_B1_day2,2022.2.4,MacIntel,47.61904762,,,,,,,,,,,,,,,,,,,,,,,,,,,down,0,7.678,,0.530154278,-0.011921459,1,0,0,0.76,0,56,56,157,1,uitlaat,images/br_uitlaat.png,images/cb_uitlaat.png,0,,,,,,,,,,,,,,,,,,,,,,
,,,,,,00065 ,2023-10-17_19h21.26.050,vbt_B1_day2,2022.2.4,MacIntel,47.61904762,,,,,,,,,,,,,,,,,,,,,,,,,,,down,0,4.179,,0.469845722,-0.011921459,1,0,0,1.444,0,57,57,74,1,graaf,images/br_graaf.png,images/cb_graaf.png,0,,,,,,,,,,,,,,,,,,,,,,
,,,,,,00065 ,2023-10-17_19h21.26.050,vbt_B1_day2,2022.2.4,MacIntel,47.61904762,,,,,,,,,,,,,,,,,,,,,,,,,,,down,0,9.979,,0.481065919,0.045582048,1,0,0,0.476,0,58,58,76,1,afval,images/br_afval.png,images/cb_afval.png,0,,,,,,,,,,,,,,,,,,,,,,
,,,,,,00065 ,2023-10-17_19h21.26.050,vbt_B1_day2,2022.2.4,MacIntel,47.61904762,,,,,,,,,,,,,,,,,,,,,,,,,,,down,0,10.196,,0.427769986,0.051192146,1,0,0,0.443,0,59,59,139,1,stiekem,images/br_stiekem.png,images/cb_stiekem.png,1,Stiekem,,,,,,,,,,,,,,,,,,,,,
,,,,,,00065 ,2023-10-17_19h21.26.050,vbt_B1_day2,2022.2.4,MacIntel,47.61904762,,,,,,,,,,,,,,,,,,,,,,,,,,,down,0,8.402,,0.541374474,0.02454418,1,0,0,0.422,0,60,60,78,1,leren,images/br_leren.png,images/cb_leren.png,0,,,,,,,,,,,,,,,,,,,,,,
,,,,,,00065 ,2023-10-17_19h21.26.050,vbt_B1_day2,2022.2.4,MacIntel,47.61904762,,,,,,,,,,,,,,,,,,,,,,,,,,,down,0,13.344,,0.50911641,0.007713885,1,0,0,0.512,0,61,61,113,1,koppen,images/br_koppen.png,images/cb_koppen.png,0,,,,,,,,,,,,,,,,,,,,,,
,,,,,,00065 ,2023-10-17_19h21.26.050,vbt_B1_day2,2022.2.4,MacIntel,47.61904762,,,,,,,,,,,,,,,,,,,,,,,,,,,down,0,7.329,,0.504908836,0.0371669,1,0,0,0.51,0,62,62,83,1,mening,images/br_mening.png,images/cb_mening.png,0,,,,,,,,,,,,,,,,,,,,,,
,,,,,,00065 ,2023-10-17_19h21.26.050,vbt_B1_day2,2022.2.4,MacIntel,47.61904762,,,,,,,,,,,,,,,,,,,,,,,,,,,down,0,2.211,,0.489481066,-0.027349229,1,0,0,0.48,0,63,63,13,1,kaal,images/br_kaal.png,images/cb_kaal.png,0,,,,,,,,,,,,,,,,,,,,,,
,,,,,,00065 ,2023-10-17_19h21.26.050,vbt_B1_day2,2022.2.4,MacIntel,47.61904762,,,,,,,,,,,,,,,,,,,,,,,,,,,down,0,22.978,,0.474053296,-0.048387097,1,0,0,2.477,0,64,64,24,1,jurk,images/br_jurk.png,images/cb_jurk.png,0,,,,,,,,,,,,,,,,,,,,,,
,,,,,,00065 ,2023-10-17_19h21.26.050,vbt_B1_day2,2022.2.4,MacIntel,47.61904762,,,,,,,,,,,,,,,,,,,,,,,,,,,down,0,5.929,,0.482468443,-0.0371669,1,0,0,0.544,0,65,65,93,1,waarop,images/br_waarop.png,images/cb_waarop.png,0,,,,,,,,,,,,,,,,,,,,,,
,,,,,,00065 ,2023-10-17_19h21.26.050,vbt_B1_day2,2022.2.4,MacIntel,47.61904762,,,,,,,,,,,,,,,,,,,,,,,,,,,down,0,5.095,,0.553997195,0.017531557,1,0,0,0.478,0,66,66,87,1,toeval,images/br_toeval.png,images/cb_toeval.png,0,,,,,,,,,,,,,,,,,,,,,,
,,,,,,00065 ,2023-10-17_19h21.26.050,vbt_B1_day2,2022.2.4,MacIntel,47.61904762,,,,,,,,,,,,,,,,,,,,,,,,,,,down,0,4.279,,0.532959327,-0.010518934,1,0,0,0.511,0,67,67,49,1,laken,images/br_laken.png,images/cb_laken.png,0,,,,,,,,,,,,,,,,,,,,,,
,,,,,,00065 ,2023-10-17_19h21.26.050,vbt_B1_day2,2022.2.4,MacIntel,47.61904762,,,,,,,,,,,,,,,,,,,,,,,,,,,down,0,4.812,,0.471248247,-0.073632539,1,0,0,0.527,0,68,68,4,1,moes,images/br_moes.png,images/cb_moes.png,0,,,,,,,,,,,,,,,,,,,,,,
,,,,,,00065 ,2023-10-17_19h21.26.050,vbt_B1_day2,2022.2.4,MacIntel,47.61904762,,,,,,,,,,,,,,,,,,,,,,,,,,,down,0,12.344,,0.495091164,-0.107293128,1,0,0,0.541,0,69,69,177,1,maaltijd,images/br_maaltijd.png,images/cb_maaltijd.png,1,Maaltijd,,,,,,,,,,,,,,,,,,,,,
,,,,,,00065 ,2023-10-17_19h21.26.050,vbt_B1_day2,2022.2.4,MacIntel,47.61904762,,,,,,,,,,,,,,,,,,,,,,,,,,,down,0,11.637,,0.474053296,-0.030154278,1,0,0,0.386,0,70,70,108,1,excuus,images/br_excuus.png,images/cb_excuus.png,0,,,,,,,,,,,,,,,,,,,,,,
,,,,,,00065 ,2023-10-17_19h21.26.050,vbt_B1_day2,2022.2.4,MacIntel,47.61904762,,,,,,,,,,,,,,,,,,,,,,,,,,,down,0,5.162,,0.566619916,0.051192146,1,0,0,0.563,0,71,71,14,1,rijp,images/br_rijp.png,images/cb_rijp.png,0,,,,,,,,,,,,,,,,,,,,,,
,,,,,,00065 ,2023-10-17_19h21.26.050,vbt_B1_day2,2022.2.4,MacIntel,47.61904762,,,,,,,,,,,,,,,,,,,,,,,,,,,down,0,6.613,,0.471248247,-0.076437588,1,0,0,0.426,0,72,72,150,1,gegeven,images/br_gegeven.png,images/cb_gegeven.png,0,,,,,,,,,,,,,,,,,,,,,,
,,,,,,00065 ,2023-10-17_19h21.26.050,vbt_B1_day2,2022.2.4,MacIntel,47.61904762,,,,,,,,,,,,,,,,,,,,,,,,,,,down,0,3.361,,0.569424965,0.122720898,1,0,0,0.892,0,73,73,2,1,jaar,images/br_jaar.png,images/cb_jaar.png,0,,,,,,,,,,,,,,,,,,,,,,
,,,,,,00065 ,2023-10-17_19h21.26.050,vbt_B1_day2,2022.2.4,MacIntel,47.61904762,,,,,,,,,,,,,,,,,,,,,,,,,,,down,0,12.495,,0.47545582,-0.011921459,1,0,0,0.449,0,74,74,92,1,geheim,images/br_geheim.png,images/cb_geheim.png,0,,,,,,,,,,,,,,,,,,,,,,
,,,,,,00065 ,2023-10-17_19h21.26.050,vbt_B1_day2,2022.2.4,MacIntel,47.61904762,,,,,,,,,,,,,,,,,,,,,,,,,,,down,0,4.795,,0.576437588,-0.094670407,1,0,0,0.445,0,75,75,132,1,grappen,images/br_grappen.png,images/cb_grappen.png,0,,,,,,,,,,,,,,,,,,,,,,
,,,,,,00065 ,2023-10-17_19h21.26.050,vbt_B1_day2,2022.2.4,MacIntel,47.61904762,,,,,,,,,,,,,,,,,,,,,,,,,,,down,0,4.579,,0.474053296,-0.0371669,1,0,0,0.414,0,76,76,84,1,lokken,images/br_lokken.png,images/cb_lokken.png,0,,,,,,,,,,,,,,,,,,,,,,
,,,,,,00065 ,2023-10-17_19h21.26.050,vbt_B1_day2,2022.2.4,MacIntel,47.61904762,,,,,,,,,,,,,,,,,,,,,,,,,,,down,0,11.295,,0.558204769,-0.077840112,1,0,0,0.56,0,77,77,180,1,openbaar,images/br_openbaar.png,images/cb_openbaar.png,0,,,,,,,,,,,,,,,,,,,,,,
,,,,,,00065 ,2023-10-17_19h21.26.050,vbt_B1_day2,2022.2.4,MacIntel,47.61904762,,,,,,,,,,,,,,,,,,,,,,,,,,,down,0,11.995,,0.518934081,-0.000701262,1,0,0,0.494,0,78,78,195,1,middelen,images/br_middelen.png,images/cb_middelen.png,0,,,,,,,,,,,,,,,,,,,,,,
,,,,,,00065 ,2023-10-17_19h21.26.050,vbt_B1_day2,2022.2.4,MacIntel,47.61904762,,,,,,,,,,,,,,,,,,,,,,,,,,,down,0,9.978,,0.559607293,-0.041374474,1,0,0,0.46,0,79,79,168,1,bisschop,images/br_bisschop.png,images/cb_bisschop.png,0,,,,,,,,,,,,,,,,,,,,,,
,,,,,,00065 ,2023-10-17_19h21.26.050,vbt_B1_day2,2022.2.4,MacIntel,47.61904762,,,,,,,,,,,,,,,,,,,,,,,,,,,down,0,6.796,,0.468443198,-0.082047686,1,0,0,0.46,0,80,80,124,1,bloeien,images/br_bloeien.png,images/cb_bloeien.png,0,,,,,,,,,,,,,,,,,,,,,,
,,,,,,00065 ,2023-10-17_19h21.26.050,vbt_B1_day2,2022.2.4,MacIntel,47.61904762,,,,,,,,,,,,,,,,,,,,,,,,,,,down,0,2.761,,0.409537167,-0.017531557,1,0,0,0.479,0,81,81,39,1,laag,images/br_laag.png,images/cb_laag.png,0,,,,,,,,,,,,,,,,,,,,,,
,,,,,,00065 ,2023-10-17_19h21.26.050,vbt_B1_day2,2022.2.4,MacIntel,47.61904762,,,,,,,,,,,,,,,,,,,,,,,,,,,down,0,10.912,,0.546984572,-0.038569425,1,0,0,0.494,0,82,82,164,1,anarchie,images/br_anarchie.png,images/cb_anarchie.png,0,,,,,,,,,,,,,,,,,,,,,,
,,,,,,00065 ,2023-10-17_19h21.26.050,vbt_B1_day2,2022.2.4,MacIntel,47.61904762,,,,,,,,,,,,,,,,,,,,,,,,,,,down,0,9.844,,0.441795231,0.007713885,1,0,0,5.162,0,83,83,44,1,flits,images/br_flits.png,images/cb_flits.png,0,,,,,,,,,,,,,,,,,,,,,,
,,,,,,00065 ,2023-10-17_19h21.26.050,vbt_B1_day2,2022.2.4,MacIntel,47.61904762,,,,,,,,,,,,,,,,,,,,,,,,,,,down,0,3.112,,0.495091164,0.031556802,1,0,0,0.392,0,84,84,42,1,bleek,images/br_bleek.png,images/cb_bleek.png,0,,,,,,,,,,,,,,,,,,,,,,
,,,,,,00065 ,2023-10-17_19h21.26.050,vbt_B1_day2,2022.2.4,MacIntel,47.61904762,,,,,,,,,,,,,,,,,,,,,,,,,,,down,0,10.245,,0.562412342,0.032959327,1,0,0,0.545,0,85,85,133,1,seizoen,images/br_seizoen.png,images/cb_seizoen.png,0,,,,,,,,,,,,,,,,,,,,,,
,,,,,,00065 ,2023-10-17_19h21.26.050,vbt_B1_day2,2022.2.4,MacIntel,47.61904762,,,,,,,,,,,,,,,,,,,,,,,,,,,down,0,5.595,,0.532959327,0.055399719,1,0,0,0.442,0,86,86,85,1,heilig,images/br_heilig.png,images/cb_heilig.png,0,,,,,,,,,,,,,,,,,,,,,,
,,,,,,00065 ,2023-10-17_19h21.26.050,vbt_B1_day2,2022.2.4,MacIntel,47.61904762,,,,,,,,,,,,,,,,,,,,,,,,,,,down,0,14.845,,0.56802244,-0.0371669,1,0,0,0.493,0,87,87,183,1,getuigen,images/br_getuigen.png,images/cb_getuigen.png,0,,,,,,,,,,,,,,,,,,,,,,
,,,,,,00065 ,2023-10-17_19h21.26.050,vbt_B1_day2,2022.2.4,MacIntel,47.61904762,,,,,,,,,,,,,,,,,,,,,,,,,,,down,0,1.661,,0.471248247,0.038569425,1,0,0,0.439,0,88,88,17,1,taal,images/br_taal.png,images/cb_taal.png,1,,,,,,,,,,,,,,,,,,,,,,
,,,,,,00065 ,2023-10-17_19h21.26.050,vbt_B1_day2,2022.2.4,MacIntel,47.61904762,,,,,,,,,,,,,,,,,,,,,,,,,,,down,0,19.814,,0.52454418,0.000701262,1,0,0,0.446,0,89,89,145,1,invloed,images/br_invloed.png,images/cb_invloed.png,0,,,,,,,,,,,,,,,,,,,,,,
,,,,,,00065 ,2023-10-17_19h21.26.050,vbt_B1_day2,2022.2.4,MacIntel,47.61904762,,,,,,,,,,,,,,,,,,,,,,,,,,,down,0,7.211,,0.548387097,-0.073632539,1,0,0,0.56,0,90,90,171,1,aarzelen,images/br_aarzelen.png,images/cb_aarzelen.png,0,,,,,,,,,,,,,,,,,,,,,,
,,,,,,00065 ,2023-10-17_19h21.26.050,vbt_B1_day2,2022.2.4,MacIntel,47.61904762,,,,,,,,,,,,,,,,,,,,,,,,,,,down,0,4.395,,0.472650771,-0.004908836,1,0,0,0.444,0,91,91,101,1,staren,images/br_staren.png,images/cb_staren.png,0,,,,,,,,,,,,,,,,,,,,,,
,,,,,,00065 ,2023-10-17_19h21.26.050,vbt_B1_day2,2022.2.4,MacIntel,47.61904762,,,,,,,,,,,,,,,,,,,,,,,,,,,down,0,7.879,,0.525946704,-0.154978962,1,0,0,0.427,0,92,92,82,1,muziek,images/br_muziek.png,images/cb_muziek.png,0,,,,,,,,,,,,,,,,,,,,,,
,,,,,,00065 ,2023-10-17_19h21.26.050,vbt_B1_day2,2022.2.4,MacIntel,47.61904762,,,,,,,,,,,,,,,,,,,,,,,,,,,down,0,47.726,,0.50911641,0.0371669,1,0,0,0.444,0,93,93,100,1,geduld,images/br_geduld.png,images/cb_geduld.png,0,,,,,,,,,,,,,,,,,,,,,,
,,,,,,00065 ,2023-10-17_19h21.26.050,vbt_B1_day2,2022.2.4,MacIntel,47.61904762,,,,,,,,,,,,,,,,,,,,,,,,,,,down,0,4.212,,0.527349229,0.072230014,1,0,0,0.511,0,94,94,96,1,slagen,images/br_slagen.png,images/cb_slagen.png,1,Slagen,,,,,,,,,,,,,,,,,,,,,
,,,,,,00065 ,2023-10-17_19h21.26.050,vbt_B1_day2,2022.2.4,MacIntel,47.61904762,,,,,,,,,,,,,,,,,,,,,,,,,,,down,0,12.634,,0.457223001,0.014726508,1,0,0,0.422,0,95,95,159,1,sufferd,images/br_sufferd.png,images/cb_sufferd.png,0,,,,,,,,,,,,,,,,,,,,,,
,,,,,,00065 ,2023-10-17_19h21.26.050,vbt_B1_day2,2022.2.4,MacIntel,47.61904762,,,,,,,,,,,,,,,,,,,,,,,,,,,down,0,8.894,,0.49088359,-0.061009818,1,0,0,0.528,0,96,96,80,1,kanjer,images/br_kanjer.png,images/cb_kanjer.png,0,,,,,,,,,,,,,,,,,,,,,,
,,,,,,00065 ,2023-10-17_19h21.26.050,vbt_B1_day2,2022.2.4,MacIntel,47.61904762,,,,,,,,,,,,,,,,,,,,,,,,,,,down,0,5.796,,0.511921459,0.089060309,1,0,0,0.41,0,97,97,116,1,besmet,images/br_besmet.png,images/cb_besmet.png,0,,,,,,,,,,,,,,,,,,,,,,
,,,,,,00065 ,2023-10-17_19h21.26.050,vbt_B1_day2,2022.2.4,MacIntel,47.61904762,,,,,,,,,,,,,,,,,,,,,,,,,,,down,0,6.094,,0.565217391,0.058204769,1,0,0,0.629,0,98,98,68,1,schat,images/br_schat.png,images/cb_schat.png,0,,,,,,,,,,,,,,,,,,,,,,
,,,,,,00065 ,2023-10-17_19h21.26.050,vbt_B1_day2,2022.2.4,MacIntel,47.61904762,,,,,,,,,,,,,,,,,,,,,,,,,,,down,0,2.745,,0.573632539,-0.041374474,1,0,0,0.495,0,99,99,12,1,kust,images/br_kust.png,images/cb_kust.png,0,,,,,,,,,,,,,,,,,,,,,,
,,,,,,00065 ,2023-10-17_19h21.26.050,vbt_B1_day2,2022.2.4,MacIntel,47.61904762,,,,,,,,,,,,,,,,,,,,,,,,,,,down,0,9.645,,0.500701262,-0.004908836,1,0,0,0.462,0,100,100,131,1,opzicht,images/br_opzicht.png,images/cb_opzicht.png,0,,,,,,,,,,,,,,,,,,,,,,
,,,,,,00065 ,2023-10-17_19h21.26.050,vbt_B1_day2,2022.2.4,MacIntel,47.61904762,,,,,,,,,,,,,,,,,,,,,,,,,,,down,0,5.928,,0.461430575,0.063814867,1,0,0,0.542,0,101,101,40,1,schep,images/br_schep.png,images/cb_schep.png,0,,,,,,,,,,,,,,,,,,,,,,
,,,,,,00065 ,2023-10-17_19h21.26.050,vbt_B1_day2,2022.2.4,MacIntel,47.61904762,,,,,,,,,,,,,,,,,,,,,,,,,,,down,0,10.628,,0.538569425,-0.077840112,1,0,0,0.462,0,102,102,170,1,schatten,images/br_schatten.png,images/cb_schatten.png,0,,,,,,,,,,,,,,,,,,,,,,
,,,,,,00065 ,2023-10-17_19h21.26.050,vbt_B1_day2,2022.2.4,MacIntel,47.61904762,,,,,,,,,,,,,,,,,,,,,,,,,,,down,0,6.379,,0.497896213,-0.023141655,1,0,0,0.527,0,103,103,11,1,mode,images/br_mode.png,images/cb_mode.png,0,,,,,,,,,,,,,,,,,,,,,,
,,,,,,00065 ,2023-10-17_19h21.26.050,vbt_B1_day2,2022.2.4,MacIntel,47.61904762,,,,,,,,,,,,,,,,,,,,,,,,,,,down,0,12.428,,0.534361851,0.034361851,1,0,0,0.744,0,104,104,136,1,waarbij,images/br_waarbij.png,images/cb_waarbij.png,1,Waarbij,,,,,,,,,,,,,,,,,,,,,
,,,,,,00065 ,2023-10-17_19h21.26.050,vbt_B1_day2,2022.2.4,MacIntel,47.61904762,,,,,,,,,,,,,,,,,,,,,,,,,,,down,0,4.686,,0.451612903,0.056802244,1,0,0,0.456,0,105,105,26,1,leuk,images/br_leuk.png,images/cb_leuk.png,0,,,,,,,,,,,,,,,,,,,,,,
,,,,,,00065 ,2023-10-17_19h21.26.050,vbt_B1_day2,2022.2.4,MacIntel,47.61904762,,,,,,,,,,,,,,,,,,,,,,,,,,,down,0,3.762,,0.50911641,0.02173913,1,0,0,0.428,0,106,106,62,1,knaap,images/br_knaap.png,images/cb_knaap.png,0,,,,,,,,,,,,,,,,,,,,,,
,,,,,,00065 ,2023-10-17_19h21.26.050,vbt_B1_day2,2022.2.4,MacIntel,47.61904762,,,,,,,,,,,,,,,,,,,,,,,,,,,down,0,5.645,,0.488078541,-0.031556802,1,0,0,0.577,0,107,107,35,1,lust,images/br_lust.png,images/cb_lust.png,0,,,,,,,,,,,,,,,,,,,,,,
,,,,,,00065 ,2023-10-17_19h21.26.050,vbt_B1_day2,2022.2.4,MacIntel,47.61904762,,,,,,,,,,,,,,,,,,,,,,,,,,,down,0,2.559,,0.610098177,-0.004908836,1,0,0,3.297,0,108,108,56,1,traag,images/br_traag.png,images/cb_traag.png,1,Traag,,,,,,,,,,,,,,,,,,,,,
,,,,,,00065 ,2023-10-17_19h21.26.050,vbt_B1_day2,2022.2.4,MacIntel,47.61904762,,,,,,,,,,,,,,,,,,,,,,,,,,,down,0,7.579,,0.556802244,0.018934081,1,0,0,0.743,0,109,109,99,1,koffie,images/br_koffie.png,images/cb_koffie.png,1,Koffie,,,,,,,,,,,,,,,,,,,,,
,,,,,,00065 ,2023-10-17_19h21.26.050,vbt_B1_day2,2022.2.4,MacIntel,47.61904762,,,,,,,,,,,,,,,,,,,,,,,,,,,down,0,6.484,,0.427769986,-0.087657784,1,0,0,0.439,0,110,110,109,1,totaal,images/br_totaal.png,images/cb_totaal.png,0,,,,,,,,,,,,,,,,,,,,,,
,,,,,,00065 ,2023-10-17_19h21.26.050,vbt_B1_day2,2022.2.4,MacIntel,47.61904762,,,,,,,,,,,,,,,,,,,,,,,,,,,down,0,10.828,,0.577840112,-0.031556802,1,0,0,0.512,0,111,111,91,1,gezond,images/br_gezond.png,images/cb_gezond.png,0,,,,,,,,,,,,,,,,,,,,,,
,,,,,,00065 ,2023-10-17_19h21.26.050,vbt_B1_day2,2022.2.4,MacIntel,47.61904762,,,,,,,,,,,,,,,,,,,,,,,,,,,down,0,5.195,,0.541374474,0.000701262,1,0,0,0.538,0,112,112,107,1,maling,images/br_maling.png,images/cb_maling.png,0,,,,,,,,,,,,,,,,,,,,,,
,,,,,,00065 ,2023-10-17_19h21.26.050,vbt_B1_day2,2022.2.4,MacIntel,47.61904762,,,,,,,,,,,,,,,,,,,,,,,,,,,down,0,33.61,,0.349228612,-0.027349229,1,0,0,0.677,0,113,113,1,1,zaal,images/br_zaal.png,images/cb_zaal.png,0,,,,,,,,,,,,,,,,,,,,,,
,,,,,,00065 ,2023-10-17_19h21.26.050,vbt_B1_day2,2022.2.4,MacIntel,47.61904762,,,,,,,,,,,,,,,,,,,,,,,,,,,down,0,7.662,,0.492286115,-0.045582048,1,0,0,0.561,0,114,114,125,1,aanzien,images/br_aanzien.png,images/cb_aanzien.png,0,,,,,,,,,,,,,,,,,,,,,,
,,,,,,00065 ,2023-10-17_19h21.26.050,vbt_B1_day2,2022.2.4,MacIntel,47.61904762,,,,,,,,,,,,,,,,,,,,,,,,,,,down,0,10.945,,0.5371669,-0.08345021,1,0,0,0.693,0,115,115,15,1,soda,images/br_soda.png,images/cb_soda.png,0,,,,,,,,,,,,,,,,,,,,,,
,,,,,,00065 ,2023-10-17_19h21.26.050,vbt_B1_day2,2022.2.4,MacIntel,47.61904762,,,,,,,,,,,,,,,,,,,,,,,,,,,down,0,9.912,,0.545582048,-0.131136045,1,0,0,0.647,0,116,116,167,1,eenhoorn,images/br_eenhoorn.png,images/cb_eenhoorn.png,0,,,,,,,,,,,,,,,,,,,,,,
,,,,,,00065 ,2023-10-17_19h21.26.050,vbt_B1_day2,2022.2.4,MacIntel,47.61904762,,,,,,,,,,,,,,,,,,,,,,,,,,,down,0,11.229,,0.451612903,-0.103085554,1,0,0,0.662,0,117,117,191,1,opheffen,images/br_opheffen.png,images/cb_opheffen.png,0,,,,,,,,,,,,,,,,,,,,,,
,,,,,,00065 ,2023-10-17_19h21.26.050,vbt_B1_day2,2022.2.4,MacIntel,47.61904762,,,,,,,,,,,,,,,,,,,,,,,,,,,down,0,8.51,,0.548387097,-0.051192146,1,0,0,0.662,0,118,118,9,1,hier,images/br_hier.png,images/cb_hier.png,0,,,,,,,,,,,,,,,,,,,,,,
,,,,,,00065 ,2023-10-17_19h21.26.050,vbt_B1_day2,2022.2.4,MacIntel,47.61904762,,,,,,,,,,,,,,,,,,,,,,,,,,,down,0,6.694,,0.563814867,-0.096072931,1,0,0,0.675,0,119,119,169,1,oprotten,images/br_oprotten.png,images/cb_oprotten.png,0,,,,,,,,,,,,,,,,,,,,,,
,,,,,,00065 ,2023-10-17_19h21.26.050,vbt_B1_day2,2022.2.4,MacIntel,47.61904762,,,,,,,,,,,,,,,,,,,,,,,,,,,down,0,8.611,,0.406732118,-0.184431978,1,0,0,0.745,0,120,120,105,1,wijlen,images/br_wijlen.png,images/cb_wijlen.png,0,,,,,,,,,,,,,,,,,,,,,,
,,,,,,00065 ,2023-10-17_19h21.26.050,vbt_B1_day2,2022.2.4,MacIntel,47.61904762,,,,,,,,,,,,,,,,,,,,,,,,,,,down,0,9.444,,0.409537167,0.027349229,1,0,0,0.428,0,121,121,149,1,redding,images/br_redding.png,images/cb_redding.png,0,,,,,,,,,,,,,,,,,,,,,,
,,,,,,00065 ,2023-10-17_19h21.26.050,vbt_B1_day2,2022.2.4,MacIntel,47.61904762,,,,,,,,,,,,,,,,,,,,,,,,,,,down,0,3.129,,0.532959327,0.198457223,1,0,0,0.577,0,122,122,106,1,zingen,images/br_zingen.png,images/cb_zingen.png,0,,,,,,,,,,,,,,,,,,,,,,
,,,,,,00065 ,2023-10-17_19h21.26.050,vbt_B1_day2,2022.2.4,MacIntel,47.61904762,,,,,,,,,,,,,,,,,,,,,,,,,,,down,0,7.479,,0.352033661,-0.177419355,1,0,0,0.394,0,123,123,153,1,vervoer,images/br_vervoer.png,images/cb_vervoer.png,0,,,,,,,,,,,,,,,,,,,,,,
,,,,,,00065 ,2023-10-17_19h21.26.050,vbt_B1_day2,2022.2.4,MacIntel,47.61904762,,,,,,,,,,,,,,,,,,,,,,,,,,,down,0,6.778,,-0.074333801,0.17601683,1,0,0,0.439,0,124,124,197,1,spanning,images/br_spanning.png,images/cb_spanning.png,0,,,,,,,,,,,,,,,,,,,,,,
,,,,,,00065 ,2023-10-17_19h21.26.050,vbt_B1_day2,2022.2.4,MacIntel,47.61904762,,,,,,,,,,,,,,,,,,,,,,,,,,,down,0,6.766,,-0.417952314,0.254558205,1,0,0,0.278,0,125,125,89,1,slapen,images/br_slapen.png,images/cb_slapen.png,0,,,,,,,,,,,,,,,,,,,,,,
,,,,,,00065 ,2023-10-17_19h21.26.050,vbt_B1_day2,2022.2.4,MacIntel,47.61904762,,,,,,,,,,,,,,,,,,,,,,,,,,,down,0,7.515,,0.193548387,-0.06802244,1,0,0,0.493,0,126,126,69,1,waken,images/br_waken.png,images/cb_waken.png,0,,,,,,,,,,,,,,,,,,,,,,
,,,,,,00065 ,2023-10-17_19h21.26.050,vbt_B1_day2,2022.2.4,MacIntel,47.61904762,,,,,,,,,,,,,,,,,,,,,,,,,,,down,0,0.446,,0.381486676,-0.138148668,1,0,0,0.328,0,127,127,10,1,leek,images/br_leek.png,images/cb_leek.png,0,,,,,,,,,,,,,,,,,,,,,,
,,,,,,00065 ,2023-10-17_19h21.26.050,vbt_B1_day2,2022.2.4,MacIntel,47.61904762,,,,,,,,,,,,,,,,,,,,,,,,,,,down,0,2.429,,0.352033661,-0.136746143,1,0,0,0.342,0,128,128,51,1,samen,images/br_samen.png,images/cb_samen.png,0,,,,,,,,,,,,,,,,,,,,,,
,,,,,,00065 ,2023-10-17_19h21.26.050,vbt_B1_day2,2022.2.4,MacIntel,47.61904762,,,,,,,,,,,,,,,,,,,,,,,,,,,down,0,4.128,,0.281907433,-0.09887798,1,0,0,0.557,0,129,129,38,1,baai,images/br_baai.png,images/cb_baai.png,0,,,,,,,,,,,,,,,,,,,,,,
,,,,,,00065 ,2023-10-17_19h21.26.050,vbt_B1_day2,2022.2.4,MacIntel,47.61904762,,,,,,,,,,,,,,,,,,,,,,,,,,,down,0,8.544,,0.417952314,-0.094670407,1,0,0,0.861,0,130,130,163,1,schuilen,images/br_schuilen.png,images/cb_schuilen.png,0,,,,,,,,,,,,,,,,,,,,,,
,,,,,,00065 ,2023-10-17_19h21.26.050,vbt_B1_day2,2022.2.4,MacIntel,47.61904762,,,,,,,,,,,,,,,,,,,,,,,,,,,down,0,11.995,,0.514726508,-0.013323983,1,0,0,0.61,0,131,131,137,1,trekker,images/br_trekker.png,images/cb_trekker.png,1,Trekker,,,,,,,,,,,,,,,,,,,,,
,,,,,,00065 ,2023-10-17_19h21.26.050,vbt_B1_day2,2022.2.4,MacIntel,47.61904762,,,,,,,,,,,,,,,,,,,,,,,,,,,down,0,18.635,,-0.525946704,0.042776999,1,0,0,0.685,0,132,132,192,1,schaamte,images/br_schaamte.png,images/cb_schaamte.png,0,,,,,,,,,,,,,,,,,,,,,,
,,,,,,00065 ,2023-10-17_19h21.26.050,vbt_B1_day2,2022.2.4,MacIntel,47.61904762,,,,,,,,,,,,,,,,,,,,,,,,,,,down,0,3.228,,-0.461430575,0.051192146,1,0,0,0.476,0,133,133,16,1,ziek,images/br_ziek.png,images/cb_ziek.png,1,Ziek,,,,,,,,,,,,,,,,,,,,,
,,,,,,00065 ,2023-10-17_19h21.26.050,vbt_B1_day2,2022.2.4,MacIntel,47.61904762,,,,,,,,,,,,,,,,,,,,,,,,,,,down,0,9.9,,-0.597475456,0.105890603,1,0,0,0.404,0,134,134,198,1,bedoelen,images/br_bedoelen.png,images/cb_bedoelen.png,0,,,,,,,,,,,,,,,,,,,,,,
,,,,,,00065 ,2023-10-17_19h21.26.050,vbt_B1_day2,2022.2.4,MacIntel,47.61904762,,,,,,,,,,,,,,,,,,,,,,,,,,,down,0,9.511,,-0.461430575,0.093267882,1,0,0,0.828,0,135,135,185,1,mijnheer,images/br_mijnheer.png,images/cb_mijnheer.png,0,,,,,,,,,,,,,,,,,,,,,,
,,,,,,00065 ,2023-10-17_19h21.26.050,vbt_B1_day2,2022.2.4,MacIntel,47.61904762,,,,,,,,,,,,,,,,,,,,,,,,,,,down,0,17.477,,0.671809257,-0.004908836,1,0,0,0.844,0,136,136,181,1,toegeven,images/br_toegeven.png,images/cb_toegeven.png,0,,,,,,,,,,,,,,,,,,,,,,
,,,,,,00065 ,2023-10-17_19h21.26.050,vbt_B1_day2,2022.2.4,MacIntel,47.61904762,,,,,,,,,,,,,,,,,,,,,,,,,,,down,0,6.628,,0.597475456,-0.063814867,1,0,0,0.876,0,137,137,5,1,blad,images/br_blad.png,images/cb_blad.png,0,,,,,,,,,,,,,,,,,,,,,,
,,,,,,00065 ,2023-10-17_19h21.26.050,vbt_B1_day2,2022.2.4,MacIntel,47.61904762,,,,,,,,,,,,,,,,,,,,,,,,,,,down,0,9.178,,0.502103787,0.062412342,1,0,0,0.395,0,138,138,36,1,vuur,images/br_vuur.png,images/cb_vuur.png,0,,,,,,,,,,,,,,,,,,,,,,
,,,,,,00065 ,2023-10-17_19h21.26.050,vbt_B1_day2,2022.2.4,MacIntel,47.61904762,,,,,,,,,,,,,,,,,,,,,,,,,,,down,0,6.795,,0.562412342,-0.086255259,1,0,0,0.444,0,139,139,20,1,site,images/br_site.png,images/cb_site.png,0,,,,,,,,,,,,,,,,,,,,,,
,,,,,,00065 ,2023-10-17_19h21.26.050,vbt_B1_day2,2022.2.4,MacIntel,47.61904762,,,,,,,,,,,,,,,,,,,,,,,,,,,down,0,4.645,,0.504908836,-0.03997195,1,0,0,0.478,0,140,140,122,1,waarvan,images/br_waarvan.png,images/cb_waarvan.png,0,,,,,,,,,,,,,,,,,,,,,,
,,,,,,00065 ,2023-10-17_19h21.26.050,vbt_B1_day2,2022.2.4,MacIntel,47.61904762,,,,,,,,,,,,,,,,,,,,,,,,,,,down,0,4.712,,0.523141655,-0.070827489,1,0,0,0.495,0,141,141,46,1,jagen,images/br_jagen.png,images/cb_jagen.png,0,,,,,,,,,,,,,,,,,,,,,,
,,,,,,00065 ,2023-10-17_19h21.26.050,vbt_B1_day2,2022.2.4,MacIntel,47.61904762,,,,,,,,,,,,,,,,,,,,,,,,,,,down,0,4.745,,0.636746143,-0.080645161,1,0,0,0.428,0,142,142,128,1,prikken,images/br_prikken.png,images/cb_prikken.png,0,,,,,,,,,,,,,,,,,,,,,,
,,,,,,00065 ,2023-10-17_19h21.26.050,vbt_B1_day2,2022.2.4,MacIntel,47.61904762,,,,,,,,,,,,,,,,,,,,,,,,,,,down,0,3.029,,0.653576438,0.017531557,1,0,0,0.411,0,143,143,45,1,piste,images/br_piste.png,images/cb_piste.png,0,,,,,,,,,,,,,,,,,,,,,,
,,,,,,00065 ,2023-10-17_19h21.26.050,vbt_B1_day2,2022.2.4,MacIntel,47.61904762,,,,,,,,,,,,,,,,,,,,,,,,,,,down,0,7.146,,0.573632539,-0.049789621,1,0,0,0.544,0,144,144,189,1,aanraden,images/br_aanraden.png,images/cb_aanraden.png,0,,,,,,,,,,,,,,,,,,,,,,
,,,,,,00065 ,2023-10-17_19h21.26.050,vbt_B1_day2,2022.2.4,MacIntel,47.61904762,,,,,,,,,,,,,,,,,,,,,,,,,,,down,0,14.376,,0.507713885,-0.003506311,1,0,0,0.544,0,145,145,176,1,techniek,images/br_techniek.png,images/cb_techniek.png,1,Techniek,,,,,,,,,,,,,,,,,,,,,
,,,,,,00065 ,2023-10-17_19h21.26.050,vbt_B1_day2,2022.2.4,MacIntel,47.61904762,,,,,,,,,,,,,,,,,,,,,,,,,,,down,0,7.234,,0.650771388,-0.208274895,1,0,0,0.54,0,146,146,134,1,geliefd,images/br_geliefd.png,images/cb_geliefd.png,0,,,,,,,,,,,,,,,,,,,,,,
,,,,,,00065 ,2023-10-17_19h21.26.050,vbt_B1_day2,2022.2.4,MacIntel,47.61904762,,,,,,,,,,,,,,,,,,,,,,,,,,,down,0,12.045,,-0.5371669,-0.049789621,1,0,0,0.444,0,147,147,123,1,hiervan,images/br_hiervan.png,images/cb_hiervan.png,0,,,,,,,,,,,,,,,,,,,,,,
,,,,,,00065 ,2023-10-17_19h21.26.050,vbt_B1_day2,2022.2.4,MacIntel,47.61904762,,,,,,,,,,,,,,,,,,,,,,,,,,,down,0,3.529,,-0.528751753,0.020336606,1,0,0,0.41,0,148,148,146,1,opkomen,images/br_opkomen.png,images/cb_opkomen.png,0,,,,,,,,,,,,,,,,,,,,,,
,,,,,,00065 ,2023-10-17_19h21.26.050,vbt_B1_day2,2022.2.4,MacIntel,47.61904762,,,,,,,,,,,,,,,,,,,,,,,,,,,down,0,6.577,,-0.496493689,0.115708275,1,0,0,0.361,0,149,149,140,1,blijven,images/br_blijven.png,images/cb_blijven.png,0,,,,,,,,,,,,,,,,,,,,,,
,,,,,,00065 ,2023-10-17_19h21.26.050,vbt_B1_day2,2022.2.4,MacIntel,47.61904762,,,,,,,,,,,,,,,,,,,,,,,,,,,down,0,3.778,,-0.535764376,0.195652174,1,0,0,0.778,0,150,150,72,1,strak,images/br_strak.png,images/cb_strak.png,0,,,,,,,,,,,,,,,,,,,,,,
,,,,,,00065 ,2023-10-17_19h21.26.050,vbt_B1_day2,2022.2.4,MacIntel,47.61904762,,,,,,,,,,,,,,,,,,,,,,,,,,,down,0,4.295,,0.561009818,0.034361851,1,0,0,0.561,0,151,151,138,1,akkoord,images/br_akkoord.png,images/cb_akkoord.png,1,Akkoord,,,,,,,,,,,,,,,,,,,,,
,,,,,,00065 ,2023-10-17_19h21.26.050,vbt_B1_day2,2022.2.4,MacIntel,47.61904762,,,,,,,,,,,,,,,,,,,,,,,,,,,down,0,6.12,,-0.558204769,-0.023141655,1,0,0,0.421,0,152,152,3,1,mand,images/br_mand.png,images/cb_mand.png,0,,,,,,,,,,,,,,,,,,,,,,
,,,,,,00065 ,2023-10-17_19h21.26.050,vbt_B1_day2,2022.2.4,MacIntel,47.61904762,,,,,,,,,,,,,,,,,,,,,,,,,,,down,0,10.911,,-0.561009818,0.003506311,1,0,0,0.26,0,153,153,160,1,daarheen,images/br_daarheen.png,images/cb_daarheen.png,0,,,,,,,,,,,,,,,,,,,,,,
,,,,,,00065 ,2023-10-17_19h21.26.050,vbt_B1_day2,2022.2.4,MacIntel,47.61904762,,,,,,,,,,,,,,,,,,,,,,,,,,,down,0,4.594,,-0.488078541,0.124123422,1,0,0,0.476,0,154,154,98,1,kreeft,images/br_kreeft.png,images/cb_kreeft.png,1,Kreeft,,,,,,,,,,,,,,,,,,,,,
,,,,,,00065 ,2023-10-17_19h21.26.050,vbt_B1_day2,2022.2.4,MacIntel,47.61904762,,,,,,,,,,,,,,,,,,,,,,,,,,,down,0,5.851,,-0.489481066,0.028751753,1,0,0,0.238,0,155,155,155,1,gerucht,images/br_gerucht.png,images/cb_gerucht.png,0,,,,,,,,,,,,,,,,,,,,,,
,,,,,,00065 ,2023-10-17_19h21.26.050,vbt_B1_day2,2022.2.4,MacIntel,47.61904762,,,,,,,,,,,,,,,,,,,,,,,,,,,down,0,7.962,,-0.532959327,0.157784011,1,0,0,0.628,0,156,156,79,1,nodig,images/br_nodig.png,images/cb_nodig.png,0,,,,,,,,,,,,,,,,,,,,,,
,,,,,,00065 ,2023-10-17_19h21.26.050,vbt_B1_day2,2022.2.4,MacIntel,47.61904762,,,,,,,,,,,,,,,,,,,,,,,,,,,down,0,17.611,,-0.496493689,0.0371669,1,0,0,0.362,0,157,157,165,1,feestdag,images/br_feestdag.png,images/cb_feestdag.png,0,,,,,,,,,,,,,,,,,,,,,,
,,,,,,00065 ,2023-10-17_19h21.26.050,vbt_B1_day2,2022.2.4,MacIntel,47.61904762,,,,,,,,,,,,,,,,,,,,,,,,,,,down,0,11.411,,-0.523141655,0.086255259,1,0,0,0.795,0,158,158,154,1,aflopen,images/br_aflopen.png,images/cb_aflopen.png,0,,,,,,,,,,,,,,,,,,,,,,
,,,,,,00065 ,2023-10-17_19h21.26.050,vbt_B1_day2,2022.2.4,MacIntel,47.61904762,,,,,,,,,,,,,,,,,,,,,,,,,,,down,0,4.262,,-0.511921459,0.103085554,1,0,0,1.194,0,159,159,8,1,knie,images/br_knie.png,images/cb_knie.png,0,,,,,,,,,,,,,,,,,,,,,,
,,,,,,00065 ,2023-10-17_19h21.26.050,vbt_B1_day2,2022.2.4,MacIntel,47.61904762,,,,,,,,,,,,,,,,,,,,,,,,,,,down,0,6.677,,-0.489481066,0.126928471,1,0,0,0.978,0,160,160,50,1,stoom,images/br_stoom.png,images/cb_stoom.png,0,,,,,,,,,,,,,,,,,,,,,,
,,,,,,00065 ,2023-10-17_19h21.26.050,vbt_B1_day2,2022.2.4,MacIntel,47.61904762,,,,,,,,,,,,,,,,,,,,,,,,,,,down,0,15.478,,0.55259467,0.02173913,1,0,0,0.962,0,161,161,182,1,bijkomen,images/br_bijkomen.png,images/cb_bijkomen.png,0,,,,,,,,,,,,,,,,,,,,,,
,,,,,,00065 ,2023-10-17_19h21.26.050,vbt_B1_day2,2022.2.4,MacIntel,47.61904762,,,,,,,,,,,,,,,,,,,,,,,,,,,down,0,13.048,,0.587657784,-0.126928471,1,0,0,0.775,0,162,162,81,1,dubbel,images/br_dubbel.png,images/cb_dubbel.png,0,,,,,,,,,,,,,,,,,,,,,,
,,,,,,00065 ,2023-10-17_19h21.26.050,vbt_B1_day2,2022.2.4,MacIntel,47.61904762,,,,,,,,,,,,,,,,,,,,,,,,,,,down,0,3.412,,0.646563815,-0.045582048,1,0,0,0.928,0,163,163,70,1,ijdel,images/br_ijdel.png,images/cb_ijdel.png,0,,,,,,,,,,,,,,,,,,,,,,
,,,,,,00065 ,2023-10-17_19h21.26.050,vbt_B1_day2,2022.2.4,MacIntel,47.61904762,,,,,,,,,,,,,,,,,,,,,,,,,,,down,0,10.478,,0.591865358,-0.066619916,1,0,0,0.442,0,164,164,162,1,uitdelen,images/br_uitdelen.png,images/cb_uitdelen.png,0,,,,,,,,,,,,,,,,,,,,,,
,,,,,,00065 ,2023-10-17_19h21.26.050,vbt_B1_day2,2022.2.4,MacIntel,47.61904762,,,,,,,,,,,,,,,,,,,,,,,,,,,down,0,17.894,,0.545582048,-0.045582048,1,0,0,0.359,0,165,165,194,1,driemaal,images/br_driemaal.png,images/cb_driemaal.png,0,,,,,,,,,,,,,,,,,,,,,,
,,,,,,00065 ,2023-10-17_19h21.26.050,vbt_B1_day2,2022.2.4,MacIntel,47.61904762,,,,,,,,,,,,,,,,,,,,,,,,,,,down,0,4.16,,0.518934081,-0.02454418,1,0,0,0.345,0,166,166,126,1,kasteel,images/br_kasteel.png,images/cb_kasteel.png,0,,,,,,,,,,,,,,,,,,,,,,
,,,,,,00065 ,2023-10-17_19h21.26.050,vbt_B1_day2,2022.2.4,MacIntel,47.61904762,,,,,,,,,,,,,,,,,,,,,,,,,,,down,0,5.828,,0.5371669,0.013323983,1,0,0,0.39,0,167,167,118,1,vinger,images/br_vinger.png,images/cb_vinger.png,0,,,,,,,,,,,,,,,,,,,,,,
,,,,,,00065 ,2023-10-17_19h21.26.050,vbt_B1_day2,2022.2.4,MacIntel,47.61904762,,,,,,,,,,,,,,,,,,,,,,,,,,,down,0,5.562,,0.297335203,0.059607293,1,0,0,0.494,0,168,168,22,1,stof,images/br_stof.png,images/cb_stof.png,0,,,,,,,,,,,,,,,,,,,,,,
,,,,,,00065 ,2023-10-17_19h21.26.050,vbt_B1_day2,2022.2.4,MacIntel,47.61904762,,,,,,,,,,,,,,,,,,,,,,,,,,,down,0,12.27,,-0.593267882,0.056802244,1,0,0,0.595,0,169,169,179,1,woestijn,images/br_woestijn.png,images/cb_woestijn.png,1,Woestijn,,,,,,,,,,,,,,,,,,,,,
,,,,,,00065 ,2023-10-17_19h21.26.050,vbt_B1_day2,2022.2.4,MacIntel,47.61904762,,,,,,,,,,,,,,,,,,,,,,,,,,,down,0,5.518,,0.47826087,0.038569425,1,0,0,0.406,0,170,170,53,1,baron,images/br_baron.png,images/cb_baron.png,0,,,,,,,,,,,,,,,,,,,,,,
,,,,,,00065 ,2023-10-17_19h21.26.050,vbt_B1_day2,2022.2.4,MacIntel,47.61904762,,,,,,,,,,,,,,,,,,,,,,,,,,,down,0,9.462,,0.545582048,-0.016129032,1,0,0,0.493,0,171,171,199,1,beseffen,images/br_beseffen.png,images/cb_beseffen.png,0,,,,,,,,,,,,,,,,,,,,,,
,,,,,,00065 ,2023-10-17_19h21.26.050,vbt_B1_day2,2022.2.4,MacIntel,47.61904762,,,,,,,,,,,,,,,,,,,,,,,,,,,down,0,4.812,,0.488078541,0.061009818,1,0,0,0.677,0,172,172,188,1,strekken,images/br_strekken.png,images/cb_strekken.png,0,,,,,,,,,,,,,,,,,,,,,,
,,,,,,00065 ,2023-10-17_19h21.26.050,vbt_B1_day2,2022.2.4,MacIntel,47.61904762,,,,,,,,,,,,,,,,,,,,,,,,,,,down,0,19.843,,-0.66058906,0.065217391,1,0,0,0.479,0,173,173,31,1,poes,images/br_poes.png,images/cb_poes.png,0,,,,,,,,,,,,,,,,,,,,,,
,,,,,,00065 ,2023-10-17_19h21.26.050,vbt_B1_day2,2022.2.4,MacIntel,47.61904762,,,,,,,,,,,,,,,,,,,,,,,,,,,down,0,3.829,,-0.601683029,0.133941094,1,0,0,1.292,0,174,174,18,1,blik,images/br_blik.png,images/cb_blik.png,1,Blik,,,,,,,,,,,,,,,,,,,,,
,,,,,,00065 ,2023-10-17_19h21.26.050,vbt_B1_day2,2022.2.4,MacIntel,47.61904762,,,,,,,,,,,,,,,,,,,,,,,,,,,down,0,2.584,,-0.698457223,0.164796634,1,0,0,0.39,0,175,175,33,1,vlek,images/br_vlek.png,images/cb_vlek.png,0,,,,,,,,,,,,,,,,,,,,,,
,,,,,,00065 ,2023-10-17_19h21.26.050,vbt_B1_day2,2022.2.4,MacIntel,47.61904762,,,,,,,,,,,,,,,,,,,,,,,,,,,down,0,3.162,,-0.638148668,0.119915849,1,0,0,0.159,0,176,176,114,1,vullen,images/br_vullen.png,images/cb_vullen.png,0,,,,,,,,,,,,,,,,,,,,,,
,,,,,,00065 ,2023-10-17_19h21.26.050,vbt_B1_day2,2022.2.4,MacIntel,47.61904762,,,,,,,,,,,,,,,,,,,,,,,,,,,down,0,4.111,,-0.659186536,0.090462833,1,0,0,0.36,0,177,177,59,1,kring,images/br_kring.png,images/cb_kring.png,1,Kring,,,,,,,,,,,,,,,,,,,,,
,,,,,,00065 ,2023-10-17_19h21.26.050,vbt_B1_day2,2022.2.4,MacIntel,47.61904762,,,,,,,,,,,,,,,,,,,,,,,,,,,down,0,7.369,,-0.729312763,0.184431978,1,0,0,0.721,0,178,178,141,1,knielen,images/br_knielen.png,images/cb_knielen.png,0,,,,,,,,,,,,,,,,,,,,,,
,,,,,,00065 ,2023-10-17_19h21.26.050,vbt_B1_day2,2022.2.4,MacIntel,47.61904762,,,,,,,,,,,,,,,,,,,,,,,,,,,down,0,6.745,,-0.678821879,0.135343619,1,0,0,0.178,0,179,179,110,1,zuster,images/br_zuster.png,images/cb_zuster.png,0,,,,,,,,,,,,,,,,,,,,,,
,,,,,,00065 ,2023-10-17_19h21.26.050,vbt_B1_day2,2022.2.4,MacIntel,47.61904762,,,,,,,,,,,,,,,,,,,,,,,,,,,down,0,4.478,,-0.744740533,0.181626928,1,0,0,1.028,0,180,180,71,1,bever,images/br_bever.png,images/cb_bever.png,0,,,,,,,,,,,,,,,,,,,,,,
,,,,,,00065 ,2023-10-17_19h21.26.050,vbt_B1_day2,2022.2.4,MacIntel,47.61904762,,,,,,,,,,,,,,,,,,,,,,,,,,,down,0,4.544,,-0.70687237,0.170406732,1,0,0,3.344,0,181,181,52,1,wagon,images/br_wagon.png,images/cb_wagon.png,0,,,,,,,,,,,,,,,,,,,,,,
,,,,,,00065 ,2023-10-17_19h21.26.050,vbt_B1_day2,2022.2.4,MacIntel,47.61904762,,,,,,,,,,,,,,,,,,,,,,,,,,,down,0,3.012,,-0.775596073,0.195652174,1,0,0,0.277,0,182,182,95,1,vreten,images/br_vreten.png,images/cb_vreten.png,0,,,,,,,,,,,,,,,,,,,,,,
,,,,,,00065 ,2023-10-17_19h21.26.050,vbt_B1_day2,2022.2.4,MacIntel,47.61904762,,,,,,,,,,,,,,,,,,,,,,,,,,,down,0,13.027,,-0.618513324,0.156381487,1,0,0,0.277,0,183,183,178,1,huisdier,images/br_huisdier.png,images/cb_huisdier.png,1,Huisdier,,,,,,,,,,,,,,,,,,,,,
,,,,,,00065 ,2023-10-17_19h21.26.050,vbt_B1_day2,2022.2.4,MacIntel,47.61904762,,,,,,,,,,,,,,,,,,,,,,,,,,,down,0,5.736,,-0.687237027,0.159186536,1,0,0,0.405,0,184,184,166,1,strikken,images/br_strikken.png,images/cb_strikken.png,0,,,,,,,,,,,,,,,,,,,,,,
,,,,,,00065 ,2023-10-17_19h21.26.050,vbt_B1_day2,2022.2.4,MacIntel,47.61904762,,,,,,,,,,,,,,,,,,,,,,,,,,,down,0,3.812,,-0.692847125,0.154978962,1,0,0,0.678,0,185,185,63,1,flirt,images/br_flirt.png,images/cb_flirt.png,0,,,,,,,,,,,,,,,,,,,,,,
,,,,,,00065 ,2023-10-17_19h21.26.050,vbt_B1_day2,2022.2.4,MacIntel,47.61904762,,,,,,,,,,,,,,,,,,,,,,,,,,,down,0,7.527,,-0.739130435,0.167601683,1,0,0,1.895,0,186,186,77,1,woede,images/br_woede.png,images/cb_woede.png,0,,,,,,,,,,,,,,,,,,,,,,
,,,,,,00065 ,2023-10-17_19h21.26.050,vbt_B1_day2,2022.2.4,MacIntel,47.61904762,,,,,,,,,,,,,,,,,,,,,,,,,,,down,0,3.096,,-0.732117812,0.154978962,1,0,0,2.625,0,187,187,102,1,legaal,images/br_legaal.png,images/cb_legaal.png,0,,,,,,,,,,,,,,,,,,,,,,
,,,,,,00065 ,2023-10-17_19h21.26.050,vbt_B1_day2,2022.2.4,MacIntel,47.61904762,,,,,,,,,,,,,,,,,,,,,,,,,,,down,0,5.177,,-0.692847125,0.153576438,1,0,0,1.159,0,188,188,129,1,verhaal,images/br_verhaal.png,images/cb_verhaal.png,0,,,,,,,,,,,,,,,,,,,,,,
,,,,,,00065 ,2023-10-17_19h21.26.050,vbt_B1_day2,2022.2.4,MacIntel,47.61904762,,,,,,,,,,,,,,,,,,,,,,,,,,,down,0,3.246,,-0.680224404,0.143758766,1,0,0,1.443,0,189,189,0,1,slak,images/br_slak.png,images/cb_slak.png,0,,,,,,,,,,,,,,,,,,,,,,
,,,,,,00065 ,2023-10-17_19h21.26.050,vbt_B1_day2,2022.2.4,MacIntel,47.61904762,,,,,,,,,,,,,,,,,,,,,,,,,,,down,0,2.645,,-0.772791024,0.181626928,1,0,0,0.878,0,190,190,73,1,volop,images/br_volop.png,images/cb_volop.png,0,,,,,,,,,,,,,,,,,,,,,,
,,,,,,00065 ,2023-10-17_19h21.26.050,vbt_B1_day2,2022.2.4,MacIntel,47.61904762,,,,,,,,,,,,,,,,,,,,,,,,,,,down,0,4.912,,-0.75315568,0.132538569,1,0,0,5.043,0,191,191,184,1,aandelen,images/br_aandelen.png,images/cb_aandelen.png,0,,,,,,,,,,,,,,,,,,,,,,
,,,,,,00065 ,2023-10-17_19h21.26.050,vbt_B1_day2,2022.2.4,MacIntel,47.61904762,,,,,,,,,,,,,,,,,,,,,,,,,,,down,0,4.911,,-0.674614306,0.11430575,1,0,0,0.556,0,192,192,94,1,oceaan,images/br_oceaan.png,images/cb_oceaan.png,0,,,,,,,,,,,,,,,,,,,,,,
,,,,,,00065 ,2023-10-17_19h21.26.050,vbt_B1_day2,2022.2.4,MacIntel,47.61904762,,,,,,,,,,,,,,,,,,,,,,,,,,,down,0,2.478,,-0.677419355,0.117110799,1,0,0,0.347,0,193,193,65,1,parel,images/br_parel.png,images/cb_parel.png,0,,,,,,,,,,,,,,,,,,,,,,
,,,,,,00065 ,2023-10-17_19h21.26.050,vbt_B1_day2,2022.2.4,MacIntel,47.61904762,,,,,,,,,,,,,,,,,,,,,,,,,,,down,0,11.727,,-0.669004208,0.104488079,1,0,0,0.563,0,194,194,174,1,stemming,images/br_stemming.png,images/cb_stemming.png,0,,,,,,,,,,,,,,,,,,,,,,
,,,,,,00065 ,2023-10-17_19h21.26.050,vbt_B1_day2,2022.2.4,MacIntel,47.61904762,,,,,,,,,,,,,,,,,,,,,,,,,,,down,0,3.445,,-0.654978962,0.112903226,1,0,0,0.378,0,195,195,88,1,boeien,images/br_boeien.png,images/cb_boeien.png,0,,,,,,,,,,,,,,,,,,,,,,
,,,,,,00065 ,2023-10-17_19h21.26.050,vbt_B1_day2,2022.2.4,MacIntel,47.61904762,,,,,,,,,,,,,,,,,,,,,,,,,,,down,0,8.862,,-0.64516129,0.055399719,1,0,0,0.761,0,196,196,158,1,innemen,images/br_innemen.png,images/cb_innemen.png,0,,,,,,,,,,,,,,,,,,,,,,
,,,,,,00065 ,2023-10-17_19h21.26.050,vbt_B1_day2,2022.2.4,MacIntel,47.61904762,,,,,,,,,,,,,,,,,,,,,,,,,,,down,0,7.112,,-0.697054698,0.178821879,1,0,0,0.291,0,197,197,173,1,apparaat,images/br_apparaat.png,images/cb_apparaat.png,0,,,,,,,,,,,,,,,,,,,,,,
,,,,,,00065 ,2023-10-17_19h21.26.050,vbt_B1_day2,2022.2.4,MacIntel,47.61904762,,,,,,,,,,,,,,,,,,,,,,,,,,,down,0,4.861,,-0.587657784,0.062412342,1,0,0,0.312,0,198,198,144,1,eetlust,images/br_eetlust.png,images/cb_eetlust.png,0,,,,,,,,,,,,,,,,,,,,,,
,,,,,,00065 ,2023-10-17_19h21.26.050,vbt_B1_day2,2022.2.4,MacIntel,47.61904762,,,,,,,,,,,,,,,,,,,,,,,,,,,down,0,6.212,,-0.670406732,0.211079944,1,0,0,0.326,0,199,199,58,1,tekst,images/br_tekst.png,images/cb_tekst.png,1,Tekst,,,,,,,,,,,,,,,,,,,,,
,,,,,,00065 ,2023-10-17_19h21.26.050,vbt_B1_day2,2022.2.4,MacIntel,47.61904762,,,,,,,,,,,,,,,,,,,,,,,,,,,,,,,,,,,,,,,,,,,,,,,0.476858345,-0.20687237,1,0,0,,,,,,,,,,,,,,,,
,,,,,,00065 ,2023-10-17_19h21.26.050,vbt_B1_day2,2022.2.4,MacIntel,47.61904762,,,,,,,,,,,,,,,,,,,,,,,,,,,,,,,,,,,,,,,,,,,,,,,,,,,,0.538569425,0.004908836,1,0,0,,,,,,,,,,,
,,,,,,00065 ,2023-10-17_19h21.26.050,vbt_B1_day2,2022.2.4,MacIntel,47.61904762,,,,,,,,,,,,,,,,,,,,,,,,,,,,,,,,,,,,,,,,,,krimmen,images/br_krimmen.png,images/cb_krimmen.png,,Kaime.,,,,,,,,,,,0.569424965,0.049789621,1,0,0,Kaime.,0,0,0,35,1
,,,,,,00065 ,2023-10-17_19h21.26.050,vbt_B1_day2,2022.2.4,MacIntel,47.61904762,,,,,,,,,,,,,,,,,,,,,,,,,,,,,,,,,,,,,,,,,,sifferd,images/br_sifferd.png,images/cb_sifferd.png,,Sihhe…,,,,,,,,,,,0.381486676,0.061009818,1,0,0,Sihhe…,0,1,1,32,1
,,,,,,00065 ,2023-10-17_19h21.26.050,vbt_B1_day2,2022.2.4,MacIntel,47.61904762,,,,,,,,,,,,,,,,,,,,,,,,,,,,,,,,,,,,,,,,,,moes,images/br_moes.png,images/cb_moes.png,,Maes,,,,,,,,,,,-0.350631136,0.163394109,1,0,0,Maes,0,2,2,0,1
,,,,,,00065 ,2023-10-17_19h21.26.050,vbt_B1_day2,2022.2.4,MacIntel,47.61904762,,,,,,,,,,,,,,,,,,,,,,,,,,,,,,,,,,,,,,,,,,breuk,images/br_breuk.png,images/cb_breuk.png,,Breu.,,,,,,,,,,,0.133239832,0.121318373,1,0,0,Breu.,0,3,3,45,1
,,,,,,00065 ,2023-10-17_19h21.26.050,vbt_B1_day2,2022.2.4,MacIntel,47.61904762,,,,,,,,,,,,,,,,,,,,,,,,,,,,,,,,,,,,,,,,,,opdatten,images/br_opdatten.png,images/cb_opdatten.png,,Opda….,,,,,,,,,,,-0.008415147,0.170406732,1,0,0,Opda….,0,4,4,37,1
,,,,,,00065 ,2023-10-17_19h21.26.050,vbt_B1_day2,2022.2.4,MacIntel,47.61904762,,,,,,,,,,,,,,,,,,,,,,,,,,,,,,,,,,,,,,,,,,sora,images/br_sora.png,images/cb_sora.png,,Sara,,,,,,,,,,,-0.158485273,0.117110799,1,0,0,Sara,0,5,5,22,1
,,,,,,00065 ,2023-10-17_19h21.26.050,vbt_B1_day2,2022.2.4,MacIntel,47.61904762,,,,,,,,,,,,,,,,,,,,,,,,,,,,,,,,,,,,,,,,,,heilig,images/br_heilig.png,images/cb_heilig.png,,Heili.,,,,,,,,,,,-0.037868163,0.082047686,1,0,0,Heili.,0,6,6,9,1
,,,,,,00065 ,2023-10-17_19h21.26.050,vbt_B1_day2,2022.2.4,MacIntel,47.61904762,,,,,,,,,,,,,,,,,,,,,,,,,,,,,,,,,,,,,,,,,,ophuimen,images/br_ophuimen.png,images/cb_ophuimen.png,,Ophu….,,,,,,,,,,,0.434782609,0.02454418,1,0,0,Ophu….,0,7,7,36,1
,,,,,,00065 ,2023-10-17_19h21.26.050,vbt_B1_day2,2022.2.4,MacIntel,47.61904762,,,,,,,,,,,,,,,,,,,,,,,,,,,,,,,,,,,,,,,,,,eenhoorn,images/br_eenhoorn.png,images/cb_eenhoorn.png,,Henoo..,,,,,,,,,,,0.482468443,0.046984572,1,0,0,Henoo..,0,8,8,19,1
,,,,,,00065 ,2023-10-17_19h21.26.050,vbt_B1_day2,2022.2.4,MacIntel,47.61904762,,,,,,,,,,,,,,,,,,,,,,,,,,,,,,,,,,,,,,,,,,aanvraag,images/br_aanvraag.png,images/cb_aanvraag.png,,Aanvr…,,,,,,,,,,,0.008415147,0.156381487,1,0,0,Aanvr…,0,9,9,57,1
,,,,,,00065 ,2023-10-17_19h21.26.050,vbt_B1_day2,2022.2.4,MacIntel,47.61904762,,,,,,,,,,,,,,,,,,,,,,,,,,,,,,,,,,,,,,,,,,lokken,images/br_lokken.png,images/cb_lokken.png,,Lokken,,,,,,,,,,,-0.26227209,0.167601683,1,0,0,Lokken,0,10,10,8,1
,,,,,,00065 ,2023-10-17_19h21.26.050,vbt_B1_day2,2022.2.4,MacIntel,47.61904762,,,,,,,,,,,,,,,,,,,,,,,,,,,,,,,,,,,,,,,,,,jong,images/br_jong.png,images/cb_jong.png,,Jong,,,,,,,,,,,-0.309957924,0.150771388,1,0,0,Jong,0,11,11,43,1
,,,,,,00065 ,2023-10-17_19h21.26.050,vbt_B1_day2,2022.2.4,MacIntel,47.61904762,,,,,,,,,,,,,,,,,,,,,,,,,,,,,,,,,,,,,,,,,,geld,images/br_geld.png,images/cb_geld.png,,Geld,,,,,,,,,,,-0.391304348,0.136746143,1,0,0,Geld,0,12,12,3,1
,,,,,,00065 ,2023-10-17_19h21.26.050,vbt_B1_day2,2022.2.4,MacIntel,47.61904762,,,,,,,,,,,,,,,,,,,,,,,,,,,,,,,,,,,,,,,,,,zegel,images/br_zegel.png,images/cb_zegel.png,,Zegel,,,,,,,,,,,-0.224403927,0.177419355,1,0,0,Zegel,0,13,13,46,1
,,,,,,00065 ,2023-10-17_19h21.26.050,vbt_B1_day2,2022.2.4,MacIntel,47.61904762,,,,,,,,,,,,,,,,,,,,,,,,,,,,,,,,,,,,,,,,,,ningen,images/br_ningen.png,images/cb_ningen.png,,Zingen,,,,,,,,,,,-0.253856942,0.101683029,1,0,0,Zingen,0,14,14,28,1
,,,,,,00065 ,2023-10-17_19h21.26.050,vbt_B1_day2,2022.2.4,MacIntel,47.61904762,,,,,,,,,,,,,,,,,,,,,,,,,,,,,,,,,,,,,,,,,,piste,images/br_piste.png,images/cb_piste.png,,Piste,,,,,,,,,,,-0.298737728,0.12973352,1,0,0,Piste,0,15,15,5,1
,,,,,,00065 ,2023-10-17_19h21.26.050,vbt_B1_day2,2022.2.4,MacIntel,47.61904762,,,,,,,,,,,,,,,,,,,,,,,,,,,,,,,,,,,,,,,,,,doodmoe,images/br_doodmoe.png,images/cb_doodmoe.png,,Doodmoe,,,,,,,,,,,-0.273492286,0.190042076,1,0,0,Doodmoe,0,16,16,15,1
,,,,,,00065 ,2023-10-17_19h21.26.050,vbt_B1_day2,2022.2.4,MacIntel,47.61904762,,,,,,,,,,,,,,,,,,,,,,,,,,,,,,,,,,,,,,,,,,welzijn,images/br_welzijn.png,images/cb_welzijn.png,,Wolzi..,,,,,,,,,,,-0.193548387,0.146563815,1,0,0,Wolzi..,0,17,17,52,1
,,,,,,00065 ,2023-10-17_19h21.26.050,vbt_B1_day2,2022.2.4,MacIntel,47.61904762,,,,,,,,,,,,,,,,,,,,,,,,,,,,,,,,,,,,,,,,,,strikken,images/br_strikken.png,images/cb_strikken.png,,Strikken,,,,,,,,,,,-0.203366059,0.153576438,1,0,0,Strikken,0,18,18,18,1
,,,,,,00065 ,2023-10-17_19h21.26.050,vbt_B1_day2,2022.2.4,MacIntel,47.61904762,,,,,,,,,,,,,,,,,,,,,,,,,,,,,,,,,,,,,,,,,,thema,images/br_thema.png,images/cb_thema.png,,Thaiu,,,,,,,,,,,-0.260869565,-0.380785414,1,0,0,Thaiu,0,19,19,47,1
,,,,,,00065 ,2023-10-17_19h21.26.050,vbt_B1_day2,2022.2.4,MacIntel,47.61904762,,,,,,,,,,,,,,,,,,,,,,,,,,,,,,,,,,,,,,,,,,systeem,images/br_systeem.png,images/cb_systeem.png,,Systeem,,,,,,,,,,,-0.311360449,0.136746143,1,0,0,Systeem,0,20,20,54,1
,,,,,,00065 ,2023-10-17_19h21.26.050,vbt_B1_day2,2022.2.4,MacIntel,47.61904762,,,,,,,,,,,,,,,,,,,,,,,,,,,,,,,,,,,,,,,,,,flits,images/br_flits.png,images/cb_flits.png,,Hlits ,,,,,,,,,,,-0.18513324,0.073632539,1,0,0,Hlits ,0,21,21,4,1
,,,,,,00065 ,2023-10-17_19h21.26.050,vbt_B1_day2,2022.2.4,MacIntel,47.61904762,,,,,,,,,,,,,,,,,,,,,,,,,,,,,,,,,,,,,,,,,,zwager,images/br_zwager.png,images/cb_zwager.png,,Zwager,,,,,,,,,,,-0.171107994,0.112903226,1,0,0,Zwager,0,22,22,49,1
,,,,,,00065 ,2023-10-17_19h21.26.050,vbt_B1_day2,2022.2.4,MacIntel,47.61904762,,,,,,,,,,,,,,,,,,,,,,,,,,,,,,,,,,,,,,,,,,trots,images/br_trots.png,images/cb_trots.png,,Trots,,,,,,,,,,,-0.290322581,0.11430575,1,0,0,Trots,0,23,23,44,1
,,,,,,00065 ,2023-10-17_19h21.26.050,vbt_B1_day2,2022.2.4,MacIntel,47.61904762,,,,,,,,,,,,,,,,,,,,,,,,,,,,,,,,,,,,,,,,,,aanzien,images/br_aanzien.png,images/cb_aanzien.png,,Aanzien,,,,,,,,,,,-0.178120617,0.079242637,1,0,0,Aanzien,0,24,24,13,1
,,,,,,00065 ,2023-10-17_19h21.26.050,vbt_B1_day2,2022.2.4,MacIntel,47.61904762,,,,,,,,,,,,,,,,,,,,,,,,,,,,,,,,,,,,,,,,,,inzicht,images/br_inzicht.png,images/cb_inzicht.png,,Inzicht ,,,,,,,,,,,-0.213183731,0.100280505,1,0,0,Inzicht ,0,25,25,53,1
,,,,,,00065 ,2023-10-17_19h21.26.050,vbt_B1_day2,2022.2.4,MacIntel,47.61904762,,,,,,,,,,,,,,,,,,,,,,,,,,,,,,,,,,,,,,,,,,kijlen,images/br_kijlen.png,images/cb_kijlen.png,,Kijlen ,,,,,,,,,,,-0.120617111,0.094670407,1,0,0,Kijlen ,0,26,26,31,1
,,,,,,00065 ,2023-10-17_19h21.26.050,vbt_B1_day2,2022.2.4,MacIntel,47.61904762,,,,,,,,,,,,,,,,,,,,,,,,,,,,,,,,,,,,,,,,,,sjijfel,images/br_sjijfel.png,images/cb_sjijfel.png,,Sji…,,,,,,,,,,,-0.279102384,0.107293128,1,0,0,Sji…,0,27,27,33,1
,,,,,,00065 ,2023-10-17_19h21.26.050,vbt_B1_day2,2022.2.4,MacIntel,47.61904762,,,,,,,,,,,,,,,,,,,,,,,,,,,,,,,,,,,,,,,,,,bloeien,images/br_bloeien.png,images/cb_bloeien.png,,Bloeien,,,,,,,,,,,-0.259467041,0.117110799,1,0,0,Bloeien,0,28,28,12,1
,,,,,,00065 ,2023-10-17_19h21.26.050,vbt_B1_day2,2022.2.4,MacIntel,47.61904762,,,,,,,,,,,,,,,,,,,,,,,,,,,,,,,,,,,,,,,,,,heengeen,images/br_heengeen.png,images/cb_heengeen.png,,Heengeen ,,,,,,,,,,,-0.270687237,0.084852735,1,0,0,Heengeen ,0,29,29,38,1
,,,,,,00065 ,2023-10-17_19h21.26.050,vbt_B1_day2,2022.2.4,MacIntel,47.61904762,,,,,,,,,,,,,,,,,,,,,,,,,,,,,,,,,,,,,,,,,,plannen,images/br_plannen.png,images/cb_plannen.png,,Plannen,,,,,,,,,,,-0.388499299,0.121318373,1,0,0,Plannen,0,30,30,55,1
,,,,,,00065 ,2023-10-17_19h21.26.050,vbt_B1_day2,2022.2.4,MacIntel,47.61904762,,,,,,,,,,,,,,,,,,,,,,,,,,,,,,,,,,,,,,,,,,bereuwen,images/br_bereuwen.png,images/cb_bereuwen.png,,Bereuw.,,,,,,,,,,,-0.194950912,0.075035063,1,0,0,Bereuw.,0,31,31,39,1
,,,,,,00065 ,2023-10-17_19h21.26.050,vbt_B1_day2,2022.2.4,MacIntel,47.61904762,,,,,,,,,,,,,,,,,,,,,,,,,,,,,,,,,,,,,,,,,,blad,images/br_blad.png,images/cb_blad.png,,Blad,,,,,,,,,,,-0.525946704,0.136746143,1,0,0,Blad,0,32,32,1,1
,,,,,,00065 ,2023-10-17_19h21.26.050,vbt_B1_day2,2022.2.4,MacIntel,47.61904762,,,,,,,,,,,,,,,,,,,,,,,,,,,,,,,,,,,,,,,,,,clan,images/br_clan.png,images/cb_clan.png,,Clan,,,,,,,,,,,-0.283309958,0.187237027,1,0,0,Clan,0,33,33,40,1
,,,,,,00065 ,2023-10-17_19h21.26.050,vbt_B1_day2,2022.2.4,MacIntel,47.61904762,,,,,,,,,,,,,,,,,,,,,,,,,,,,,,,,,,,,,,,,,,dode,images/br_dode.png,images/cb_dode.png,,Dode,,,,,,,,,,,-0.312762973,0.195652174,1,0,0,Dode,0,34,34,41,1
,,,,,,00065 ,2023-10-17_19h21.26.050,vbt_B1_day2,2022.2.4,MacIntel,47.61904762,,,,,,,,,,,,,,,,,,,,,,,,,,,,,,,,,,,,,,,,,,tweeling,images/br_tweeling.png,images/cb_tweeling.png,,Tweeling,,,,,,,,,,,-0.474053296,0.090462833,1,0,0,Tweeling,0,35,35,58,1
,,,,,,00065 ,2023-10-17_19h21.26.050,vbt_B1_day2,2022.2.4,MacIntel,47.61904762,,,,,,,,,,,,,,,,,,,,,,,,,,,,,,,,,,,,,,,,,,lurgen,images/br_lurgen.png,images/cb_lurgen.png,,Lurg..,,,,,,,,,,,-0.352033661,0.11430575,1,0,0,Lurg..,0,36,36,29,1
,,,,,,00065 ,2023-10-17_19h21.26.050,vbt_B1_day2,2022.2.4,MacIntel,47.61904762,,,,,,,,,,,,,,,,,,,,,,,,,,,,,,,,,,,,,,,,,,kenzis,images/br_kenzis.png,images/cb_kenzis.png,,Kenzis ,,,,,,,,,,,-0.378681627,0.119915849,1,0,0,Kenzis ,0,37,37,30,1
,,,,,,00065 ,2023-10-17_19h21.26.050,vbt_B1_day2,2022.2.4,MacIntel,47.61904762,,,,,,,,,,,,,,,,,,,,,,,,,,,,,,,,,,,,,,,,,,jagen,images/br_jagen.png,images/cb_jagen.png,,Jagen,,,,,,,,,,,-0.373071529,0.180224404,1,0,0,Jagen,0,38,38,6,1
,,,,,,00065 ,2023-10-17_19h21.26.050,vbt_B1_day2,2022.2.4,MacIntel,47.61904762,,,,,,,,,,,,,,,,,,,,,,,,,,,,,,,,,,,,,,,,,,wijve,images/br_wijve.png,images/cb_wijve.png,,Wijve ,,,,,,,,,,,-0.321178121,0.198457223,1,0,0,Wijve ,0,39,39,27,1
,,,,,,00065 ,2023-10-17_19h21.26.050,vbt_B1_day2,2022.2.4,MacIntel,47.61904762,,,,,,,,,,,,,,,,,,,,,,,,,,,,,,,,,,,,,,,,,,feestdag,images/br_feestdag.png,images/cb_feestdag.png,,Feestdag ,,,,,,,,,,,-0.332398317,0.199859748,1,0,0,Feestdag ,0,40,40,17,1
,,,,,,00065 ,2023-10-17_19h21.26.050,vbt_B1_day2,2022.2.4,MacIntel,47.61904762,,,,,,,,,,,,,,,,,,,,,,,,,,,,,,,,,,,,,,,,,,kabel,images/br_kabel.png,images/cb_kabel.png,,Kabel,,,,,,,,,,,-0.345021038,0.208274895,1,0,0,Kabel,0,41,41,7,1
,,,,,,00065 ,2023-10-17_19h21.26.050,vbt_B1_day2,2022.2.4,MacIntel,47.61904762,,,,,,,,,,,,,,,,,,,,,,,,,,,,,,,,,,,,,,,,,,kasteel,images/br_kasteel.png,images/cb_kasteel.png,,Kast…,,,,,,,,,,,-0.405329593,0.096072931,1,0,0,Kast…,0,42,42,14,1
,,,,,,00065 ,2023-10-17_19h21.26.050,vbt_B1_day2,2022.2.4,MacIntel,47.61904762,,,,,,,,,,,,,,,,,,,,,,,,,,,,,,,,,,,,,,,,,,koorts,images/br_koorts.png,images/cb_koorts.png,,Koorts,,,,,,,,,,,-0.450210379,0.112903226,1,0,0,Koorts,0,43,43,50,1
,,,,,,00065 ,2023-10-17_19h21.26.050,vbt_B1_day2,2022.2.4,MacIntel,47.61904762,,,,,,,,,,,,,,,,,,,,,,,,,,,,,,,,,,,,,,,,,,badon,images/br_badon.png,images/cb_badon.png,,Boden ,,,,,,,,,,,-0.29312763,0.143758766,1,0,0,Boden ,0,44,44,26,1
,,,,,,00065 ,2023-10-17_19h21.26.050,vbt_B1_day2,2022.2.4,MacIntel,47.61904762,,,,,,,,,,,,,,,,,,,,,,,,,,,,,,,,,,,,,,,,,,lijnen,images/br_lijnen.png,images/cb_lijnen.png,,Lijnen,,,,,,,,,,,-0.46002805,0.126928471,1,0,0,Lijnen,0,45,45,51,1
,,,,,,00065 ,2023-10-17_19h21.26.050,vbt_B1_day2,2022.2.4,MacIntel,47.61904762,,,,,,,,,,,,,,,,,,,,,,,,,,,,,,,,,,,,,,,,,,agressie,images/br_agressie.png,images/cb_agressie.png,,Agressie,,,,,,,,,,,-0.37026648,0.190042076,1,0,0,Agressie,0,46,46,59,1
,,,,,,00065 ,2023-10-17_19h21.26.050,vbt_B1_day2,2022.2.4,MacIntel,47.61904762,,,,,,,,,,,,,,,,,,,,,,,,,,,,,,,,,,,,,,,,,,woning,images/br_woning.png,images/cb_woning.png,,Woning,,,,,,,,,,,-0.413744741,0.14516129,1,0,0,Woning,0,47,47,10,1
,,,,,,00065 ,2023-10-17_19h21.26.050,vbt_B1_day2,2022.2.4,MacIntel,47.61904762,,,,,,,,,,,,,,,,,,,,,,,,,,,,,,,,,,,,,,,,,,toeval,images/br_toeval.png,images/cb_toeval.png,,Toeval,,,,,,,,,,,-0.500701262,0.14516129,1,0,0,Toeval,0,48,48,11,1
,,,,,,00065 ,2023-10-17_19h21.26.050,vbt_B1_day2,2022.2.4,MacIntel,47.61904762,,,,,,,,,,,,,,,,,,,,,,,,,,,,,,,,,,,,,,,,,,goon,images/br_goon.png,images/cb_goon.png,,Goon ,,,,,,,,,,,-0.312762973,0.202664797,1,0,0,Goon ,0,49,49,23,1
,,,,,,00065 ,2023-10-17_19h21.26.050,vbt_B1_day2,2022.2.4,MacIntel,47.61904762,,,,,,,,,,,,,,,,,,,,,,,,,,,,,,,,,,,,,,,,,,anarchie,images/br_anarchie.png,images/cb_anarchie.png,,Ana…,,,,,,,,,,,-0.424964937,0.171809257,1,0,0,Ana…,0,50,50,16,1
,,,,,,00065 ,2023-10-17_19h21.26.050,vbt_B1_day2,2022.2.4,MacIntel,47.61904762,,,,,,,,,,,,,,,,,,,,,,,,,,,,,,,,,,,,,,,,,,stes,images/br_stes.png,images/cb_stes.png,,Stes ,,,,,,,,,,,-0.321178121,0.20687237,1,0,0,Stes ,0,51,51,21,1
,,,,,,00065 ,2023-10-17_19h21.26.050,vbt_B1_day2,2022.2.4,MacIntel,47.61904762,,,,,,,,,,,,,,,,,,,,,,,,,,,,,,,,,,,,,,,,,,joes,images/br_joes.png,images/cb_joes.png,,Joes,,,,,,,,,,,-0.253856942,-0.399018233,1,0,0,Joes,0,52,52,20,1
,,,,,,00065 ,2023-10-17_19h21.26.050,vbt_B1_day2,2022.2.4,MacIntel,47.61904762,,,,,,,,,,,,,,,,,,,,,,,,,,,,,,,,,,,,,,,,,,manieren,images/br_manieren.png,images/cb_manieren.png,,Manie…,,,,,,,,,,,-0.496493689,0.089060309,1,0,0,Manie…,0,53,53,56,1
,,,,,,00065 ,2023-10-17_19h21.26.050,vbt_B1_day2,2022.2.4,MacIntel,47.61904762,,,,,,,,,,,,,,,,,,,,,,,,,,,,,,,,,,,,,,,,,,negel,images/br_negel.png,images/cb_negel.png,,Negel ,,,,,,,,,,,-0.270687237,0.233520337,1,0,0,Negel ,0,54,54,24,1
,,,,,,00065 ,2023-10-17_19h21.26.050,vbt_B1_day2,2022.2.4,MacIntel,47.61904762,,,,,,,,,,,,,,,,,,,,,,,,,,,,,,,,,,,,,,,,,,remel,images/br_remel.png,images/cb_remel.png,,Remel ,,,,,,,,,,,-0.315568022,0.147966339,1,0,0,Remel ,0,55,55,25,1
,,,,,,00065 ,2023-10-17_19h21.26.050,vbt_B1_day2,2022.2.4,MacIntel,47.61904762,,,,,,,,,,,,,,,,,,,,,,,,,,,,,,,,,,,,,,,,,,diep,images/br_diep.png,images/cb_diep.png,,Diep ,,,,,,,,,,,-0.283309958,0.143758766,1,0,0,Diep ,0,56,56,2,1
,,,,,,00065 ,2023-10-17_19h21.26.050,vbt_B1_day2,2022.2.4,MacIntel,47.61904762,,,,,,,,,,,,,,,,,,,,,,,,,,,,,,,,,,,,,,,,,,tand,images/br_tand.png,images/cb_tand.png,,Tand,,,,,,,,,,,-0.4628331,0.041374474,1,0,0,Tand,0,57,57,42,1
,,,,,,00065 ,2023-10-17_19h21.26.050,vbt_B1_day2,2022.2.4,MacIntel,47.61904762,,,,,,,,,,,,,,,,,,,,,,,,,,,,,,,,,,,,,,,,,,zomers,images/br_zomers.png,images/cb_zomers.png,,Zomers,,,,,,,,,,,-0.403927069,0.117110799,1,0,0,Zomers,0,58,58,48,1
,,,,,,00065 ,2023-10-17_19h21.26.050,vbt_B1_day2,2022.2.4,MacIntel,47.61904762,,,,,,,,,,,,,,,,,,,,,,,,,,,,,,,,,,,,,,,,,,prekken,images/br_prekken.png,images/cb_prekken.png,,Prekken ,,,,,,,,,,,-0.364656381,0.205469846,1,0,0,Prekken ,0,59,59,34,1
,,,,,,00065 ,2023-10-17_19h21.26.050,vbt_B1_day2,2022.2.4,MacIntel,47.61904762,,,,,,,,,,,,,,,,,,,,,,,,,,,,,,,,,,,,,,,,,,,,,,,,,,,,,,,,,,,,,,,,,,,
