welcome_mouse.x,welcome_mouse.y,welcome_mouse.leftButton,welcome_mouse.midButton,welcome_mouse.rightButton,welcome_mouse.time,"ID",date,expName,psychopyVersion,OS,frameRate,refresh_mouse.x,refresh_mouse.y,refresh_mouse.leftButton,refresh_mouse.midButton,refresh_mouse.rightButton,refresh_mouse.time,braille_mouse.x,braille_mouse.y,braille_mouse.leftButton,braille_mouse.midButton,braille_mouse.rightButton,braille_mouse.time,trials.thisRepN,trials.thisTrialN,trials.thisN,trials.thisIndex,trials.ran,nlLet,brLet,cbLet,trainInstr_mouse.x,trainInstr_mouse.y,trainInstr_mouse.leftButton,trainInstr_mouse.midButton,trainInstr_mouse.rightButton,trainInstr_mouse.time,translation_key.keys,translation_key.corr,translation_key.rt,word_rsp.text,word_mouse.x,word_mouse.y,word_mouse.leftButton,word_mouse.midButton,word_mouse.rightButton,word_mouse.time,train_loop.thisRepN,train_loop.thisTrialN,train_loop.thisN,train_loop.thisIndex,train_loop.ran,nlWrd,brWrd,cbWrd,test,testResp,mouse.x,mouse.y,mouse.leftButton,mouse.midButton,mouse.rightButton,testInstr_mouse.x,testInstr_mouse.y,testInstr_mouse.leftButton,testInstr_mouse.midButton,testInstr_mouse.rightButton,test_mouse.x,test_mouse.y,test_mouse.leftButton,test_mouse.midButton,test_mouse.rightButton,test_response.text,test_loop.thisRepN,test_loop.thisTrialN,test_loop.thisN,test_loop.thisIndex,test_loop.ran
-0.12037037,-0.233333376,1,0,0,13.1414,00088,2023-10-24_12h57.55.115,vbt_B1_day2,2022.2.4,Win32,59.94125757,,,,,,,,,,,,,,,,,,,,,,,,,,,,,,,,,,,,,,,,,,,,,,,,,,,,,,,,,,,,,,,,,,,
,,,,,,00088,2023-10-24_12h57.55.115,vbt_B1_day2,2022.2.4,Win32,59.94125757,-0.157407407,-0.162037037,1,0,0,33.9427,,,,,,,,,,,,,,,,,,,,,,,,,,,,,,,,,,,,,,,,,,,,,,,,,,,,,,,,,,,,,
,,,,,,00088,2023-10-24_12h57.55.115,vbt_B1_day2,2022.2.4,Win32,59.94125757,,,,,,,-0.146296254,-0.198148162,1,0,0,3.0673,0,0,0,17,1,r,images/br_r.png,images/cb_r.png,,,,,,,,,,,,,,,,,,,,,,,,,,,,,,,,,,,,,,,,,,,,,,,
,,,,,,00088,2023-10-24_12h57.55.115,vbt_B1_day2,2022.2.4,Win32,59.94125757,,,,,,,-0.135185171,-0.137037065,1,0,0,0.2303,0,1,1,8,1,i,images/br_i.png,images/cb_i.png,,,,,,,,,,,,,,,,,,,,,,,,,,,,,,,,,,,,,,,,,,,,,,,
,,,,,,00088,2023-10-24_12h57.55.115,vbt_B1_day2,2022.2.4,Win32,59.94125757,,,,,,,-0.137962977,-0.14444443,1,0,0,0.2974,0,2,2,14,1,o,images/br_o.png,images/cb_o.png,,,,,,,,,,,,,,,,,,,,,,,,,,,,,,,,,,,,,,,,,,,,,,,
,,,,,,00088,2023-10-24_12h57.55.115,vbt_B1_day2,2022.2.4,Win32,59.94125757,,,,,,,-0.138888889,-0.146296325,1,0,0,0.153,0,3,3,23,1,x,images/br_x.png,images/cb_x.png,,,,,,,,,,,,,,,,,,,,,,,,,,,,,,,,,,,,,,,,,,,,,,,
,,,,,,00088,2023-10-24_12h57.55.115,vbt_B1_day2,2022.2.4,Win32,59.94125757,,,,,,,-0.139814801,-0.151851866,1,0,0,0.6671,0,4,4,3,1,d,images/br_d.png,images/cb_d.png,,,,,,,,,,,,,,,,,,,,,,,,,,,,,,,,,,,,,,,,,,,,,,,
,,,,,,00088,2023-10-24_12h57.55.115,vbt_B1_day2,2022.2.4,Win32,59.94125757,,,,,,,-0.140740712,-0.156481496,1,0,0,3.2,0,5,5,21,1,v,images/br_v.png,images/cb_v.png,,,,,,,,,,,,,,,,,,,,,,,,,,,,,,,,,,,,,,,,,,,,,,,
,,,,,,00088,2023-10-24_12h57.55.115,vbt_B1_day2,2022.2.4,Win32,59.94125757,,,,,,,-0.140740712,-0.156481496,1,0,0,0.1832,0,6,6,6,1,g,images/br_g.png,images/cb_g.png,,,,,,,,,,,,,,,,,,,,,,,,,,,,,,,,,,,,,,,,,,,,,,,
,,,,,,00088,2023-10-24_12h57.55.115,vbt_B1_day2,2022.2.4,Win32,59.94125757,,,,,,,-0.140740712,-0.156481496,1,0,0,0.117,0,7,7,9,1,j,images/br_j.png,images/cb_j.png,,,,,,,,,,,,,,,,,,,,,,,,,,,,,,,,,,,,,,,,,,,,,,,
,,,,,,00088,2023-10-24_12h57.55.115,vbt_B1_day2,2022.2.4,Win32,59.94125757,,,,,,,-0.142592607,-0.143518519,1,0,0,1.0664,0,8,8,11,1,l,images/br_l.png,images/cb_l.png,,,,,,,,,,,,,,,,,,,,,,,,,,,,,,,,,,,,,,,,,,,,,,,
,,,,,,00088,2023-10-24_12h57.55.115,vbt_B1_day2,2022.2.4,Win32,59.94125757,,,,,,,-0.142592607,-0.143518519,1,0,0,0.6005,0,9,9,10,1,k,images/br_k.png,images/cb_k.png,,,,,,,,,,,,,,,,,,,,,,,,,,,,,,,,,,,,,,,,,,,,,,,
,,,,,,00088,2023-10-24_12h57.55.115,vbt_B1_day2,2022.2.4,Win32,59.94125757,,,,,,,-0.142592607,-0.14444443,1,0,0,0.9665,0,10,10,13,1,n,images/br_n.png,images/cb_n.png,,,,,,,,,,,,,,,,,,,,,,,,,,,,,,,,,,,,,,,,,,,,,,,
,,,,,,00088,2023-10-24_12h57.55.115,vbt_B1_day2,2022.2.4,Win32,59.94125757,,,,,,,-0.142592607,-0.14444443,1,0,0,1.8503,0,11,11,25,1,z,images/br_z.png,images/cb_z.png,,,,,,,,,,,,,,,,,,,,,,,,,,,,,,,,,,,,,,,,,,,,,,,
,,,,,,00088,2023-10-24_12h57.55.115,vbt_B1_day2,2022.2.4,Win32,59.94125757,,,,,,,-0.142592607,-0.14444443,1,0,0,0.467,0,12,12,7,1,h,images/br_h.png,images/cb_h.png,,,,,,,,,,,,,,,,,,,,,,,,,,,,,,,,,,,,,,,,,,,,,,,
,,,,,,00088,2023-10-24_12h57.55.115,vbt_B1_day2,2022.2.4,Win32,59.94125757,,,,,,,-0.142592607,-0.163888931,1,0,0,1.2502,0,13,13,1,1,b,images/br_b.png,images/cb_b.png,,,,,,,,,,,,,,,,,,,,,,,,,,,,,,,,,,,,,,,,,,,,,,,
,,,,,,00088,2023-10-24_12h57.55.115,vbt_B1_day2,2022.2.4,Win32,59.94125757,,,,,,,-0.138888889,-0.168518561,1,0,0,0.1158,0,14,14,5,1,f,images/br_f.png,images/cb_f.png,,,,,,,,,,,,,,,,,,,,,,,,,,,,,,,,,,,,,,,,,,,,,,,
,,,,,,00088,2023-10-24_12h57.55.115,vbt_B1_day2,2022.2.4,Win32,59.94125757,,,,,,,-0.138888889,-0.168518561,1,0,0,1.0669,0,15,15,20,1,u,images/br_u.png,images/cb_u.png,,,,,,,,,,,,,,,,,,,,,,,,,,,,,,,,,,,,,,,,,,,,,,,
,,,,,,00088,2023-10-24_12h57.55.115,vbt_B1_day2,2022.2.4,Win32,59.94125757,,,,,,,-0.138888889,-0.168518561,1,0,0,0.9329,0,16,16,18,1,s,images/br_s.png,images/cb_s.png,,,,,,,,,,,,,,,,,,,,,,,,,,,,,,,,,,,,,,,,,,,,,,,
,,,,,,00088,2023-10-24_12h57.55.115,vbt_B1_day2,2022.2.4,Win32,59.94125757,,,,,,,-0.138888889,-0.168518561,1,0,0,1.5667,0,17,17,24,1,y,images/br_y.png,images/cb_y.png,,,,,,,,,,,,,,,,,,,,,,,,,,,,,,,,,,,,,,,,,,,,,,,
,,,,,,00088,2023-10-24_12h57.55.115,vbt_B1_day2,2022.2.4,Win32,59.94125757,,,,,,,-0.133333347,-0.126851894,1,0,0,3.497,0,18,18,12,1,m,images/br_m.png,images/cb_m.png,,,,,,,,,,,,,,,,,,,,,,,,,,,,,,,,,,,,,,,,,,,,,,,
,,,,,,00088,2023-10-24_12h57.55.115,vbt_B1_day2,2022.2.4,Win32,59.94125757,,,,,,,-0.164814772,-0.089814822,1,0,0,3.4472,0,19,19,16,1,q,images/br_q.png,images/cb_q.png,,,,,,,,,,,,,,,,,,,,,,,,,,,,,,,,,,,,,,,,,,,,,,,
,,,,,,00088,2023-10-24_12h57.55.115,vbt_B1_day2,2022.2.4,Win32,59.94125757,,,,,,,-0.172222208,-0.046296296,1,0,0,0.4831,0,20,20,0,1,a,images/br_a.png,images/cb_a.png,,,,,,,,,,,,,,,,,,,,,,,,,,,,,,,,,,,,,,,,,,,,,,,
,,,,,,00088,2023-10-24_12h57.55.115,vbt_B1_day2,2022.2.4,Win32,59.94125757,,,,,,,-0.17314812,-0.047222243,1,0,0,1.8336,0,21,21,15,1,p,images/br_p.png,images/cb_p.png,,,,,,,,,,,,,,,,,,,,,,,,,,,,,,,,,,,,,,,,,,,,,,,
,,,,,,00088,2023-10-24_12h57.55.115,vbt_B1_day2,2022.2.4,Win32,59.94125757,,,,,,,-0.17314812,-0.051851873,1,0,0,0.9832,0,22,22,19,1,t,images/br_t.png,images/cb_t.png,,,,,,,,,,,,,,,,,,,,,,,,,,,,,,,,,,,,,,,,,,,,,,,
,,,,,,00088,2023-10-24_12h57.55.115,vbt_B1_day2,2022.2.4,Win32,59.94125757,,,,,,,-0.191666638,-0.082407422,1,0,0,0.1668,0,23,23,2,1,c,images/br_c.png,images/cb_c.png,,,,,,,,,,,,,,,,,,,,,,,,,,,,,,,,,,,,,,,,,,,,,,,
,,,,,,00088,2023-10-24_12h57.55.115,vbt_B1_day2,2022.2.4,Win32,59.94125757,,,,,,,-0.175000014,-0.114814829,1,0,0,1.1192,0,24,24,4,1,e,images/br_e.png,images/cb_e.png,,,,,,,,,,,,,,,,,,,,,,,,,,,,,,,,,,,,,,,,,,,,,,,
,,,,,,00088,2023-10-24_12h57.55.115,vbt_B1_day2,2022.2.4,Win32,59.94125757,,,,,,,-0.174074032,-0.115740741,1,0,0,0.3333,0,25,25,22,1,w,images/br_w.png,images/cb_w.png,,,,,,,,,,,,,,,,,,,,,,,,,,,,,,,,,,,,,,,,,,,,,,,
,,,,,,00088,2023-10-24_12h57.55.115,vbt_B1_day2,2022.2.4,Win32,59.94125757,,,,,,,,,,,,,,,,,,,,,0.597222222,-0.013888889,1,0,0,84.7224,,,,,,,,,,,,,,,,,,,,,,,,,,,,,,,,,,,,,,,,,
,,,,,,00088,2023-10-24_12h57.55.115,vbt_B1_day2,2022.2.4,Win32,59.94125757,,,,,,,,,,,,,,,,,,,,,,,,,,,down,0,25.2385,,0.45185188,-0.075925933,1,0,0,7.9673,0,0,0,171,1,aarzelen,images/br_aarzelen.png,images/cb_aarzelen.png,0,,,,,,,,,,,,,,,,,,,,,,
,,,,,,00088,2023-10-24_12h57.55.115,vbt_B1_day2,2022.2.4,Win32,59.94125757,,,,,,,,,,,,,,,,,,,,,,,,,,,down,0,7.7672,,0.444444444,-0.092592593,1,0,0,4.6867,0,1,1,6,1,diep,images/br_diep.png,images/cb_diep.png,0,,,,,,,,,,,,,,,,,,,,,,
,,,,,,00088,2023-10-24_12h57.55.115,vbt_B1_day2,2022.2.4,Win32,59.94125757,,,,,,,,,,,,,,,,,,,,,,,,,,,down,0,15.1246,,0.439814815,-0.094444487,1,0,0,2.533,0,2,2,107,1,maling,images/br_maling.png,images/cb_maling.png,0,,,,,,,,,,,,,,,,,,,,,,
,,,,,,00088,2023-10-24_12h57.55.115,vbt_B1_day2,2022.2.4,Win32,59.94125757,,,,,,,,,,,,,,,,,,,,,,,,,,,down,0,9.9885,,0.419444473,-0.092592593,1,0,0,1.7004,0,3,3,22,1,stof,images/br_stof.png,images/cb_stof.png,0,,,,,,,,,,,,,,,,,,,,,,
,,,,,,00088,2023-10-24_12h57.55.115,vbt_B1_day2,2022.2.4,Win32,59.94125757,,,,,,,,,,,,,,,,,,,,,,,,,,,down,0,11.3263,,0.419444473,-0.094444487,1,0,0,1.5334,0,4,4,149,1,redding,images/br_redding.png,images/cb_redding.png,0,,,,,,,,,,,,,,,,,,,,,,
,,,,,,00088,2023-10-24_12h57.55.115,vbt_B1_day2,2022.2.4,Win32,59.94125757,,,,,,,,,,,,,,,,,,,,,,,,,,,down,0,12.5284,,0.421296296,-0.095370399,1,0,0,3.6665,0,5,5,102,1,legaal,images/br_legaal.png,images/cb_legaal.png,0,,,,,,,,,,,,,,,,,,,,,,
,,,,,,00088,2023-10-24_12h57.55.115,vbt_B1_day2,2022.2.4,Win32,59.94125757,,,,,,,,,,,,,,,,,,,,,,,,,,,down,0,3.8206,,0.419444473,-0.101851852,1,0,0,1.2667,0,6,6,1,1,zaal,images/br_zaal.png,images/cb_zaal.png,0,,,,,,,,,,,,,,,,,,,,,,
,,,,,,00088,2023-10-24_12h57.55.115,vbt_B1_day2,2022.2.4,Win32,59.94125757,,,,,,,,,,,,,,,,,,,,,,,,,,,down,0,19.9343,,0.420370455,-0.121296282,1,0,0,1.4458,0,7,7,178,1,huisdier,images/br_huisdier.png,images/cb_huisdier.png,1,huisdierhuisdier,,,,,,,,,,,,,,,,,,,,,
,,,,,,00088,2023-10-24_12h57.55.115,vbt_B1_day2,2022.2.4,Win32,59.94125757,,,,,,,,,,,,,,,,,,,,,,,,,,,down,0,23.6307,,0.271296325,-0.022222236,1,0,0,14.4337,0,8,8,88,1,boeien,images/br_boeien.png,images/cb_boeien.png,0,,,,,,,,,,,,,,,,,,,,,,
,,,,,,00088,2023-10-24_12h57.55.115,vbt_B1_day2,2022.2.4,Win32,59.94125757,,,,,,,,,,,,,,,,,,,,,,,,,,,down,0,14.4274,,0.330555527,-0.076851845,1,0,0,4.6671,0,9,9,194,1,driemaal,images/br_driemaal.png,images/cb_driemaal.png,0,,,,,,,,,,,,,,,,,,,,,,
,,,,,,00088,2023-10-24_12h57.55.115,vbt_B1_day2,2022.2.4,Win32,59.94125757,,,,,,,,,,,,,,,,,,,,,,,,,,,down,0,5.1528,,0.333333333,-0.085185192,0,0,1,0.9169,0,10,10,5,1,blad,images/br_blad.png,images/cb_blad.png,0,,,,,,,,,,,,,,,,,,,,,,
,,,,,,00088,2023-10-24_12h57.55.115,vbt_B1_day2,2022.2.4,Win32,59.94125757,,,,,,,,,,,,,,,,,,,,,,,,,,,down,0,27.3525,,0.316666638,-0.109259288,1,0,0,3.9835,0,11,11,196,1,nakijken,images/br_nakijken.png,images/cb_nakijken.png,0,,,,,,,,,,,,,,,,,,,,,,
,,,,,,00088,2023-10-24_12h57.55.115,vbt_B1_day2,2022.2.4,Win32,59.94125757,,,,,,,,,,,,,,,,,,,,,,,,,,,down,0,33.9232,,0.311111168,-0.124074088,1,0,0,5.1507,0,12,12,158,1,innemen,images/br_innemen.png,images/cb_innemen.png,0,,,,,,,,,,,,,,,,,,,,,,
,,,,,,00088,2023-10-24_12h57.55.115,vbt_B1_day2,2022.2.4,Win32,59.94125757,,,,,,,,,,,,,,,,,,,,,,,,,,,down,0,26.1977,,0.366666723,-0.140740783,1,0,0,6.7665,0,13,13,180,1,openbaar,images/br_openbaar.png,images/cb_openbaar.png,0,,,,,,,,,,,,,,,,,,,,,,
,,,,,,00088,2023-10-24_12h57.55.115,vbt_B1_day2,2022.2.4,Win32,59.94125757,,,,,,,,,,,,,,,,,,,,,,,,,,,down,0,12.1954,,0.366666723,-0.140740783,1,0,0,0.9877,0,14,14,96,1,slagen,images/br_slagen.png,images/cb_slagen.png,1,slagen,,,,,,,,,,,,,,,,,,,,,
,,,,,,00088,2023-10-24_12h57.55.115,vbt_B1_day2,2022.2.4,Win32,59.94125757,,,,,,,,,,,,,,,,,,,,,,,,,,,down,0,12.6178,,0.33148151,-0.115740741,1,0,0,2.5834,0,15,15,25,1,plek,images/br_plek.png,images/cb_plek.png,0,,,,,,,,,,,,,,,,,,,,,,
,,,,,,00088,2023-10-24_12h57.55.115,vbt_B1_day2,2022.2.4,Win32,59.94125757,,,,,,,,,,,,,,,,,,,,,,,,,,,down,0,18.3741,,0.329629686,-0.124074088,1,0,0,4.7199,0,16,16,166,1,strikken,images/br_strikken.png,images/cb_strikken.png,0,,,,,,,,,,,,,,,,,,,,,,
,,,,,,00088,2023-10-24_12h57.55.115,vbt_B1_day2,2022.2.4,Win32,59.94125757,,,,,,,,,,,,,,,,,,,,,,,,,,,down,0,3.3575,,0.329629686,-0.124074088,1,0,0,0.7541,0,17,17,10,1,leek,images/br_leek.png,images/cb_leek.png,0,,,,,,,,,,,,,,,,,,,,,,
,,,,,,00088,2023-10-24_12h57.55.115,vbt_B1_day2,2022.2.4,Win32,59.94125757,,,,,,,,,,,,,,,,,,,,,,,,,,,down,0,13.6516,,0.329629686,-0.124074088,1,0,0,3.7333,0,18,18,43,1,klauw,images/br_klauw.png,images/cb_klauw.png,0,,,,,,,,,,,,,,,,,,,,,,
,,,,,,00088,2023-10-24_12h57.55.115,vbt_B1_day2,2022.2.4,Win32,59.94125757,,,,,,,,,,,,,,,,,,,,,,,,,,,down,0,10.6315,,0.329629686,-0.124074088,1,0,0,0.7702,0,19,19,137,1,trekker,images/br_trekker.png,images/cb_trekker.png,1,trekker,,,,,,,,,,,,,,,,,,,,,
,,,,,,00088,2023-10-24_12h57.55.115,vbt_B1_day2,2022.2.4,Win32,59.94125757,,,,,,,,,,,,,,,,,,,,,,,,,,,down,0,12.9426,,0.329629686,-0.124074088,1,0,0,1.0328,0,20,20,64,1,wegen,images/br_wegen.png,images/cb_wegen.png,0,,,,,,,,,,,,,,,,,,,,,,
,,,,,,00088,2023-10-24_12h57.55.115,vbt_B1_day2,2022.2.4,Win32,59.94125757,,,,,,,,,,,,,,,,,,,,,,,,,,,down,0,4.6678,,0.329629686,-0.124074088,1,0,0,0.8203,0,21,21,28,1,stal,images/br_stal.png,images/cb_stal.png,0,,,,,,,,,,,,,,,,,,,,,,
,,,,,,00088,2023-10-24_12h57.55.115,vbt_B1_day2,2022.2.4,Win32,59.94125757,,,,,,,,,,,,,,,,,,,,,,,,,,,down,0,8.5749,,0.329629686,-0.124074088,1,0,0,3.867,0,22,22,56,1,traag,images/br_traag.png,images/cb_traag.png,1,traag,,,,,,,,,,,,,,,,,,,,,
,,,,,,00088,2023-10-24_12h57.55.115,vbt_B1_day2,2022.2.4,Win32,59.94125757,,,,,,,,,,,,,,,,,,,,,,,,,,,down,0,17.1859,,0.329629686,-0.124074088,1,0,0,2.8837,0,23,23,147,1,komisch,images/br_komisch.png,images/cb_komisch.png,0,,,,,,,,,,,,,,,,,,,,,,
,,,,,,00088,2023-10-24_12h57.55.115,vbt_B1_day2,2022.2.4,Win32,59.94125757,,,,,,,,,,,,,,,,,,,,,,,,,,,down,0,2.3174,,0.329629686,-0.124074088,1,0,0,0.5337,0,24,24,19,1,geit,images/br_geit.png,images/cb_geit.png,1,geit,,,,,,,,,,,,,,,,,,,,,
,,,,,,00088,2023-10-24_12h57.55.115,vbt_B1_day2,2022.2.4,Win32,59.94125757,,,,,,,,,,,,,,,,,,,,,,,,,,,down,0,11.3504,,0.329629686,-0.124074088,1,0,0,0.5632,0,25,25,98,1,kreeft,images/br_kreeft.png,images/cb_kreeft.png,1,kreeftkreeft,,,,,,,,,,,,,,,,,,,,,
,,,,,,00088,2023-10-24_12h57.55.115,vbt_B1_day2,2022.2.4,Win32,59.94125757,,,,,,,,,,,,,,,,,,,,,,,,,,,down,0,17.4773,,0.329629686,-0.124074088,1,0,0,2.1167,0,26,26,195,1,middelen,images/br_middelen.png,images/cb_middelen.png,0,,,,,,,,,,,,,,,,,,,,,,
,,,,,,00088,2023-10-24_12h57.55.115,vbt_B1_day2,2022.2.4,Win32,59.94125757,,,,,,,,,,,,,,,,,,,,,,,,,,,down,0,4.8474,,0.329629686,-0.124074088,1,0,0,2.3193,0,27,27,118,1,vinger,images/br_vinger.png,images/cb_vinger.png,0,,,,,,,,,,,,,,,,,,,,,,
,,,,,,00088,2023-10-24_12h57.55.115,vbt_B1_day2,2022.2.4,Win32,59.94125757,,,,,,,,,,,,,,,,,,,,,,,,,,,down,0,18.2174,,0.329629686,-0.124074088,1,0,0,2.0372,0,28,28,150,1,gegeven,images/br_gegeven.png,images/cb_gegeven.png,0,,,,,,,,,,,,,,,,,,,,,,
,,,,,,00088,2023-10-24_12h57.55.115,vbt_B1_day2,2022.2.4,Win32,59.94125757,,,,,,,,,,,,,,,,,,,,,,,,,,,down,0,12.8339,,0.328703704,-0.121296282,1,0,0,1.5332,0,29,29,35,1,lust,images/br_lust.png,images/cb_lust.png,0,,,,,,,,,,,,,,,,,,,,,,
,,,,,,00088,2023-10-24_12h57.55.115,vbt_B1_day2,2022.2.4,Win32,59.94125757,,,,,,,,,,,,,,,,,,,,,,,,,,,down,0,11.3592,,0.335185157,-0.131481524,1,0,0,1.3874,0,30,30,188,1,strekken,images/br_strekken.png,images/cb_strekken.png,0,,,,,,,,,,,,,,,,,,,,,,
,,,,,,00088,2023-10-24_12h57.55.115,vbt_B1_day2,2022.2.4,Win32,59.94125757,,,,,,,,,,,,,,,,,,,,,,,,,,,down,0,15.2843,,0.335185157,-0.131481524,1,0,0,2.2206,0,31,31,51,1,samen,images/br_samen.png,images/cb_samen.png,0,,,,,,,,,,,,,,,,,,,,,,
,,,,,,00088,2023-10-24_12h57.55.115,vbt_B1_day2,2022.2.4,Win32,59.94125757,,,,,,,,,,,,,,,,,,,,,,,,,,,down,0,4.4965,,0.335185157,-0.131481524,1,0,0,1.7166,0,32,32,197,1,spanning,images/br_spanning.png,images/cb_spanning.png,0,,,,,,,,,,,,,,,,,,,,,,
,,,,,,00088,2023-10-24_12h57.55.115,vbt_B1_day2,2022.2.4,Win32,59.94125757,,,,,,,,,,,,,,,,,,,,,,,,,,,down,0,24.8269,,0.335185157,-0.131481524,1,0,0,2.6667,0,33,33,185,1,mijnheer,images/br_mijnheer.png,images/cb_mijnheer.png,0,,,,,,,,,,,,,,,,,,,,,,
,,,,,,00088,2023-10-24_12h57.55.115,vbt_B1_day2,2022.2.4,Win32,59.94125757,,,,,,,,,,,,,,,,,,,,,,,,,,,down,0,7.9343,,0.335185157,-0.131481524,1,0,0,0.7834,0,34,34,117,1,kennis,images/br_kennis.png,images/cb_kennis.png,0,,,,,,,,,,,,,,,,,,,,,,
,,,,,,00088,2023-10-24_12h57.55.115,vbt_B1_day2,2022.2.4,Win32,59.94125757,,,,,,,,,,,,,,,,,,,,,,,,,,,down,0,5.5408,,0.335185157,-0.131481524,1,0,0,1.0803,0,35,35,53,1,baron,images/br_baron.png,images/cb_baron.png,0,,,,,,,,,,,,,,,,,,,,,,
,,,,,,00088,2023-10-24_12h57.55.115,vbt_B1_day2,2022.2.4,Win32,59.94125757,,,,,,,,,,,,,,,,,,,,,,,,,,,down,0,6.8831,,0.335185157,-0.131481524,1,0,0,3.2456,0,36,36,169,1,oprotten,images/br_oprotten.png,images/cb_oprotten.png,0,,,,,,,,,,,,,,,,,,,,,,
,,,,,,00088,2023-10-24_12h57.55.115,vbt_B1_day2,2022.2.4,Win32,59.94125757,,,,,,,,,,,,,,,,,,,,,,,,,,,down,0,3.2544,,0.335185157,-0.131481524,1,0,0,0.7164,0,37,37,84,1,lokken,images/br_lokken.png,images/cb_lokken.png,0,,,,,,,,,,,,,,,,,,,,,,
,,,,,,00088,2023-10-24_12h57.55.115,vbt_B1_day2,2022.2.4,Win32,59.94125757,,,,,,,,,,,,,,,,,,,,,,,,,,,down,0,11.8702,,0.335185157,-0.131481524,1,0,0,2.1695,0,38,38,111,1,ticket,images/br_ticket.png,images/cb_ticket.png,0,,,,,,,,,,,,,,,,,,,,,,
,,,,,,00088,2023-10-24_12h57.55.115,vbt_B1_day2,2022.2.4,Win32,59.94125757,,,,,,,,,,,,,,,,,,,,,,,,,,,down,0,8.2969,,0.335185157,-0.131481524,1,0,0,1.217,0,39,39,124,1,bloeien,images/br_bloeien.png,images/cb_bloeien.png,0,,,,,,,,,,,,,,,,,,,,,,
,,,,,,00088,2023-10-24_12h57.55.115,vbt_B1_day2,2022.2.4,Win32,59.94125757,,,,,,,,,,,,,,,,,,,,,,,,,,,down,0,17.8397,,0.335185157,-0.131481524,1,0,0,1.4835,0,40,40,127,1,doodmoe,images/br_doodmoe.png,images/cb_doodmoe.png,0,,,,,,,,,,,,,,,,,,,,,,
,,,,,,00088,2023-10-24_12h57.55.115,vbt_B1_day2,2022.2.4,Win32,59.94125757,,,,,,,,,,,,,,,,,,,,,,,,,,,down,0,5.408,,0.335185157,-0.131481524,1,0,0,0.6499,0,41,41,68,1,schat,images/br_schat.png,images/cb_schat.png,0,,,,,,,,,,,,,,,,,,,,,,
,,,,,,00088,2023-10-24_12h57.55.115,vbt_B1_day2,2022.2.4,Win32,59.94125757,,,,,,,,,,,,,,,,,,,,,,,,,,,down,0,19.9349,,0.335185157,-0.131481524,1,0,0,0.6675,0,42,42,187,1,opkijken,images/br_opkijken.png,images/cb_opkijken.png,0,,,,,,,,,,,,,,,,,,,,,,
,,,,,,00088,2023-10-24_12h57.55.115,vbt_B1_day2,2022.2.4,Win32,59.94125757,,,,,,,,,,,,,,,,,,,,,,,,,,,down,0,5.8666,,0.335185157,-0.131481524,1,0,0,0.617,0,43,43,4,1,moes,images/br_moes.png,images/cb_moes.png,0,,,,,,,,,,,,,,,,,,,,,,
,,,,,,00088,2023-10-24_12h57.55.115,vbt_B1_day2,2022.2.4,Win32,59.94125757,,,,,,,,,,,,,,,,,,,,,,,,,,,down,0,7.3836,,0.329629686,-0.145370413,1,0,0,1.1301,0,44,44,9,1,hier,images/br_hier.png,images/cb_hier.png,0,,,,,,,,,,,,,,,,,,,,,,
,,,,,,00088,2023-10-24_12h57.55.115,vbt_B1_day2,2022.2.4,Win32,59.94125757,,,,,,,,,,,,,,,,,,,,,,,,,,,down,0,17.2183,,0.329629686,-0.145370413,1,0,0,0.7957,0,45,45,159,1,sufferd,images/br_sufferd.png,images/cb_sufferd.png,0,,,,,,,,,,,,,,,,,,,,,,
,,,,,,00088,2023-10-24_12h57.55.115,vbt_B1_day2,2022.2.4,Win32,59.94125757,,,,,,,,,,,,,,,,,,,,,,,,,,,down,0,2.6173,,0.329629686,-0.145370413,1,0,0,0.7668,0,46,46,8,1,knie,images/br_knie.png,images/cb_knie.png,0,,,,,,,,,,,,,,,,,,,,,,
,,,,,,00088,2023-10-24_12h57.55.115,vbt_B1_day2,2022.2.4,Win32,59.94125757,,,,,,,,,,,,,,,,,,,,,,,,,,,down,0,16.2924,,0.329629686,-0.146296325,1,0,0,1.7493,0,47,47,114,1,vullen,images/br_vullen.png,images/cb_vullen.png,0,,,,,,,,,,,,,,,,,,,,,,
,,,,,,00088,2023-10-24_12h57.55.115,vbt_B1_day2,2022.2.4,Win32,59.94125757,,,,,,,,,,,,,,,,,,,,,,,,,,,down,0,3.3827,,0.329629686,-0.146296325,1,0,0,0.7464,0,48,48,59,1,kring,images/br_kring.png,images/cb_kring.png,1,kring,,,,,,,,,,,,,,,,,,,,,
,,,,,,00088,2023-10-24_12h57.55.115,vbt_B1_day2,2022.2.4,Win32,59.94125757,,,,,,,,,,,,,,,,,,,,,,,,,,,down,0,14.2082,,0.329629686,-0.146296325,1,0,0,0.8331,0,49,49,162,1,uitdelen,images/br_uitdelen.png,images/cb_uitdelen.png,0,,,,,,,,,,,,,,,,,,,,,,
,,,,,,00088,2023-10-24_12h57.55.115,vbt_B1_day2,2022.2.4,Win32,59.94125757,,,,,,,,,,,,,,,,,,,,,,,,,,,down,0,5.7063,,0.329629686,-0.146296325,1,0,0,1.0369,0,50,50,37,1,mijn,images/br_mijn.png,images/cb_mijn.png,0,,,,,,,,,,,,,,,,,,,,,,
,,,,,,00088,2023-10-24_12h57.55.115,vbt_B1_day2,2022.2.4,Win32,59.94125757,,,,,,,,,,,,,,,,,,,,,,,,,,,down,0,13.2967,,0.329629686,-0.146296325,1,0,0,1.2365,0,51,51,92,1,geheim,images/br_geheim.png,images/cb_geheim.png,0,,,,,,,,,,,,,,,,,,,,,,
,,,,,,00088,2023-10-24_12h57.55.115,vbt_B1_day2,2022.2.4,Win32,59.94125757,,,,,,,,,,,,,,,,,,,,,,,,,,,down,0,6.3224,,0.329629686,-0.146296325,1,0,0,0.7699,0,52,52,184,1,aandelen,images/br_aandelen.png,images/cb_aandelen.png,0,,,,,,,,,,,,,,,,,,,,,,
,,,,,,00088,2023-10-24_12h57.55.115,vbt_B1_day2,2022.2.4,Win32,59.94125757,,,,,,,,,,,,,,,,,,,,,,,,,,,down,0,18.7024,,0.329629686,-0.146296325,1,0,0,0.6496,0,53,53,165,1,feestdag,images/br_feestdag.png,images/cb_feestdag.png,0,,,,,,,,,,,,,,,,,,,,,,
,,,,,,00088,2023-10-24_12h57.55.115,vbt_B1_day2,2022.2.4,Win32,59.94125757,,,,,,,,,,,,,,,,,,,,,,,,,,,down,0,5.6004,,0.329629686,-0.146296325,1,0,0,0.4703,0,54,54,106,1,zingen,images/br_zingen.png,images/cb_zingen.png,0,,,,,,,,,,,,,,,,,,,,,,
,,,,,,00088,2023-10-24_12h57.55.115,vbt_B1_day2,2022.2.4,Win32,59.94125757,,,,,,,,,,,,,,,,,,,,,,,,,,,down,0,7.1056,,0.329629686,-0.146296325,1,0,0,0.7332,0,55,55,87,1,toeval,images/br_toeval.png,images/cb_toeval.png,0,,,,,,,,,,,,,,,,,,,,,,
,,,,,,00088,2023-10-24_12h57.55.115,vbt_B1_day2,2022.2.4,Win32,59.94125757,,,,,,,,,,,,,,,,,,,,,,,,,,,down,0,13.1586,,0.329629686,-0.146296325,1,0,0,1.3535,0,56,56,11,1,mode,images/br_mode.png,images/cb_mode.png,0,,,,,,,,,,,,,,,,,,,,,,
,,,,,,00088,2023-10-24_12h57.55.115,vbt_B1_day2,2022.2.4,Win32,59.94125757,,,,,,,,,,,,,,,,,,,,,,,,,,,down,0,4.3804,,0.329629686,-0.146296325,1,0,0,0.7866,0,57,57,34,1,vorm,images/br_vorm.png,images/cb_vorm.png,0,,,,,,,,,,,,,,,,,,,,,,
,,,,,,00088,2023-10-24_12h57.55.115,vbt_B1_day2,2022.2.4,Win32,59.94125757,,,,,,,,,,,,,,,,,,,,,,,,,,,down,0,4.5253,,0.329629686,-0.146296325,1,0,0,0.8334,0,58,58,113,1,koppen,images/br_koppen.png,images/cb_koppen.png,0,,,,,,,,,,,,,,,,,,,,,,
,,,,,,00088,2023-10-24_12h57.55.115,vbt_B1_day2,2022.2.4,Win32,59.94125757,,,,,,,,,,,,,,,,,,,,,,,,,,,down,0,18.7962,,0.329629686,-0.146296325,1,0,0,0.6707,0,59,59,163,1,schuilen,images/br_schuilen.png,images/cb_schuilen.png,0,,,,,,,,,,,,,,,,,,,,,,
,,,,,,00088,2023-10-24_12h57.55.115,vbt_B1_day2,2022.2.4,Win32,59.94125757,,,,,,,,,,,,,,,,,,,,,,,,,,,down,0,0.9517,,0.329629686,-0.146296325,1,0,0,0.5999,0,60,60,39,1,laag,images/br_laag.png,images/cb_laag.png,0,,,,,,,,,,,,,,,,,,,,,,
,,,,,,00088,2023-10-24_12h57.55.115,vbt_B1_day2,2022.2.4,Win32,59.94125757,,,,,,,,,,,,,,,,,,,,,,,,,,,down,0,5.0929,,0.329629686,-0.146296325,1,0,0,0.736,0,61,61,144,1,eetlust,images/br_eetlust.png,images/cb_eetlust.png,0,,,,,,,,,,,,,,,,,,,,,,
,,,,,,00088,2023-10-24_12h57.55.115,vbt_B1_day2,2022.2.4,Win32,59.94125757,,,,,,,,,,,,,,,,,,,,,,,,,,,down,0,19.6561,,0.329629686,-0.146296325,1,0,0,3.0532,0,62,62,182,1,bijkomen,images/br_bijkomen.png,images/cb_bijkomen.png,0,,,,,,,,,,,,,,,,,,,,,,
,,,,,,00088,2023-10-24_12h57.55.115,vbt_B1_day2,2022.2.4,Win32,59.94125757,,,,,,,,,,,,,,,,,,,,,,,,,,,down,0,24.4849,,0.329629686,-0.146296325,1,0,0,9.1339,0,63,63,82,1,muziek,images/br_muziek.png,images/cb_muziek.png,0,,,,,,,,,,,,,,,,,,,,,,
,,,,,,00088,2023-10-24_12h57.55.115,vbt_B1_day2,2022.2.4,Win32,59.94125757,,,,,,,,,,,,,,,,,,,,,,,,,,,down,0,4.5335,,0.329629686,-0.146296325,1,0,0,0.6175,0,64,64,16,1,ziek,images/br_ziek.png,images/cb_ziek.png,1,ziek,,,,,,,,,,,,,,,,,,,,,
,,,,,,00088,2023-10-24_12h57.55.115,vbt_B1_day2,2022.2.4,Win32,59.94125757,,,,,,,,,,,,,,,,,,,,,,,,,,,down,0,13.8178,,0.329629686,-0.146296325,1,0,0,1.3662,0,65,65,85,1,heilig,images/br_heilig.png,images/cb_heilig.png,0,,,,,,,,,,,,,,,,,,,,,,
,,,,,,00088,2023-10-24_12h57.55.115,vbt_B1_day2,2022.2.4,Win32,59.94125757,,,,,,,,,,,,,,,,,,,,,,,,,,,down,0,13.7416,,0.329629686,-0.146296325,1,0,0,1.2368,0,66,66,183,1,getuigen,images/br_getuigen.png,images/cb_getuigen.png,0,,,,,,,,,,,,,,,,,,,,,,
,,,,,,00088,2023-10-24_12h57.55.115,vbt_B1_day2,2022.2.4,Win32,59.94125757,,,,,,,,,,,,,,,,,,,,,,,,,,,down,0,7.1674,,0.329629686,-0.146296325,1,0,0,1.2831,0,67,67,32,1,palm,images/br_palm.png,images/cb_palm.png,0,,,,,,,,,,,,,,,,,,,,,,
,,,,,,00088,2023-10-24_12h57.55.115,vbt_B1_day2,2022.2.4,Win32,59.94125757,,,,,,,,,,,,,,,,,,,,,,,,,,,down,0,10.1698,,0.329629686,-0.146296325,1,0,0,1.4336,0,68,68,170,1,schatten,images/br_schatten.png,images/cb_schatten.png,0,,,,,,,,,,,,,,,,,,,,,,
,,,,,,00088,2023-10-24_12h57.55.115,vbt_B1_day2,2022.2.4,Win32,59.94125757,,,,,,,,,,,,,,,,,,,,,,,,,,,down,0,4.2528,,0.329629686,-0.146296325,1,0,0,1.2166,0,69,69,189,1,aanraden,images/br_aanraden.png,images/cb_aanraden.png,0,,,,,,,,,,,,,,,,,,,,,,
,,,,,,00088,2023-10-24_12h57.55.115,vbt_B1_day2,2022.2.4,Win32,59.94125757,,,,,,,,,,,,,,,,,,,,,,,,,,,down,0,12.5422,,0.329629686,-0.146296325,1,0,0,1.6999,0,70,70,15,1,soda,images/br_soda.png,images/cb_soda.png,0,,,,,,,,,,,,,,,,,,,,,,
,,,,,,00088,2023-10-24_12h57.55.115,vbt_B1_day2,2022.2.4,Win32,59.94125757,,,,,,,,,,,,,,,,,,,,,,,,,,,down,0,15.9011,,0.312037009,-0.147222236,1,0,0,2.6498,0,71,71,136,1,waarbij,images/br_waarbij.png,images/cb_waarbij.png,1,waarbig,,,,,,,,,,,,,,,,,,,,,
,,,,,,00088,2023-10-24_12h57.55.115,vbt_B1_day2,2022.2.4,Win32,59.94125757,,,,,,,,,,,,,,,,,,,,,,,,,,,down,0,10.9845,,0.312037009,-0.147222236,1,0,0,4.0999,0,72,72,132,1,grappen,images/br_grappen.png,images/cb_grappen.png,0,,,,,,,,,,,,,,,,,,,,,,
,,,,,,00088,2023-10-24_12h57.55.115,vbt_B1_day2,2022.2.4,Win32,59.94125757,,,,,,,,,,,,,,,,,,,,,,,,,,,down,0,5.7002,,0.312037009,-0.147222236,1,0,0,0.6631,0,73,73,99,1,koffie,images/br_koffie.png,images/cb_koffie.png,1,koffie,,,,,,,,,,,,,,,,,,,,,
,,,,,,00088,2023-10-24_12h57.55.115,vbt_B1_day2,2022.2.4,Win32,59.94125757,,,,,,,,,,,,,,,,,,,,,,,,,,,down,0,19.4736,,0.312037009,-0.147222236,1,0,0,0.8833,0,74,74,172,1,weigeren,images/br_weigeren.png,images/cb_weigeren.png,0,,,,,,,,,,,,,,,,,,,,,,
,,,,,,00088,2023-10-24_12h57.55.115,vbt_B1_day2,2022.2.4,Win32,59.94125757,,,,,,,,,,,,,,,,,,,,,,,,,,,down,0,7.5976,,0.312037009,-0.147222236,1,0,0,0.7833,0,75,75,110,1,zuster,images/br_zuster.png,images/cb_zuster.png,0,,,,,,,,,,,,,,,,,,,,,,
,,,,,,00088,2023-10-24_12h57.55.115,vbt_B1_day2,2022.2.4,Win32,59.94125757,,,,,,,,,,,,,,,,,,,,,,,,,,,down,0,4.2912,,0.312037009,-0.147222236,1,0,0,1.0701,0,76,76,42,1,bleek,images/br_bleek.png,images/cb_bleek.png,0,,,,,,,,,,,,,,,,,,,,,,
,,,,,,00088,2023-10-24_12h57.55.115,vbt_B1_day2,2022.2.4,Win32,59.94125757,,,,,,,,,,,,,,,,,,,,,,,,,,,down,0,0.6382,,0.312037009,-0.147222236,1,0,0,0.7201,0,77,77,13,1,kaal,images/br_kaal.png,images/cb_kaal.png,0,,,,,,,,,,,,,,,,,,,,,,
,,,,,,00088,2023-10-24_12h57.55.115,vbt_B1_day2,2022.2.4,Win32,59.94125757,,,,,,,,,,,,,,,,,,,,,,,,,,,down,0,8.2101,,0.312037009,-0.147222236,1,0,0,0.5833,0,78,78,79,1,nodig,images/br_nodig.png,images/cb_nodig.png,0,,,,,,,,,,,,,,,,,,,,,,
,,,,,,00088,2023-10-24_12h57.55.115,vbt_B1_day2,2022.2.4,Win32,59.94125757,,,,,,,,,,,,,,,,,,,,,,,,,,,down,0,3.0089,,0.312037009,-0.147222236,1,0,0,0.637,0,79,79,7,1,geld,images/br_geld.png,images/cb_geld.png,0,,,,,,,,,,,,,,,,,,,,,,
,,,,,,00088,2023-10-24_12h57.55.115,vbt_B1_day2,2022.2.4,Win32,59.94125757,,,,,,,,,,,,,,,,,,,,,,,,,,,down,0,9.8345,,0.312037009,-0.147222236,1,0,0,0.8539,0,80,80,135,1,gedicht,images/br_gedicht.png,images/cb_gedicht.png,0,,,,,,,,,,,,,,,,,,,,,,
,,,,,,00088,2023-10-24_12h57.55.115,vbt_B1_day2,2022.2.4,Win32,59.94125757,,,,,,,,,,,,,,,,,,,,,,,,,,,down,0,10.0783,,0.312037009,-0.147222236,1,0,0,0.7001,0,81,81,167,1,eenhoorn,images/br_eenhoorn.png,images/cb_eenhoorn.png,0,,,,,,,,,,,,,,,,,,,,,,
,,,,,,00088,2023-10-24_12h57.55.115,vbt_B1_day2,2022.2.4,Win32,59.94125757,,,,,,,,,,,,,,,,,,,,,,,,,,,down,0,3.8868,,0.319444444,-0.151851866,1,0,0,1.0537,0,82,82,30,1,uien,images/br_uien.png,images/cb_uien.png,0,,,,,,,,,,,,,,,,,,,,,,
,,,,,,00088,2023-10-24_12h57.55.115,vbt_B1_day2,2022.2.4,Win32,59.94125757,,,,,,,,,,,,,,,,,,,,,,,,,,,down,0,3.5271,,0.319444444,-0.151851866,1,0,0,1.4865,0,83,83,175,1,heengaan,images/br_heengaan.png,images/cb_heengaan.png,0,,,,,,,,,,,,,,,,,,,,,,
,,,,,,00088,2023-10-24_12h57.55.115,vbt_B1_day2,2022.2.4,Win32,59.94125757,,,,,,,,,,,,,,,,,,,,,,,,,,,down,0,11.3011,,0.319444444,-0.151851866,1,0,0,2.2789,0,84,84,95,1,vreten,images/br_vreten.png,images/cb_vreten.png,0,,,,,,,,,,,,,,,,,,,,,,
,,,,,,00088,2023-10-24_12h57.55.115,vbt_B1_day2,2022.2.4,Win32,59.94125757,,,,,,,,,,,,,,,,,,,,,,,,,,,down,0,1.8787,,0.32222225,-0.155555584,1,0,0,0.9534,0,85,85,27,1,dans,images/br_dans.png,images/cb_dans.png,0,,,,,,,,,,,,,,,,,,,,,,
,,,,,,00088,2023-10-24_12h57.55.115,vbt_B1_day2,2022.2.4,Win32,59.94125757,,,,,,,,,,,,,,,,,,,,,,,,,,,down,0,6.853,,0.32222225,-0.155555584,1,0,0,1.0332,0,86,86,112,1,lukken,images/br_lukken.png,images/cb_lukken.png,0,,,,,,,,,,,,,,,,,,,,,,
,,,,,,00088,2023-10-24_12h57.55.115,vbt_B1_day2,2022.2.4,Win32,59.94125757,,,,,,,,,,,,,,,,,,,,,,,,,,,down,0,7.6014,,0.32222225,-0.155555584,1,0,0,0.5034,0,87,87,58,1,tekst,images/br_tekst.png,images/cb_tekst.png,1,tekst,,,,,,,,,,,,,,,,,,,,,
,,,,,,00088,2023-10-24_12h57.55.115,vbt_B1_day2,2022.2.4,Win32,59.94125757,,,,,,,,,,,,,,,,,,,,,,,,,,,down,0,11.6499,,0.32222225,-0.155555584,1,0,0,1.8474,0,88,88,91,1,gezond,images/br_gezond.png,images/cb_gezond.png,0,,,,,,,,,,,,,,,,,,,,,,
,,,,,,00088,2023-10-24_12h57.55.115,vbt_B1_day2,2022.2.4,Win32,59.94125757,,,,,,,,,,,,,,,,,,,,,,,,,,,down,0,2.3068,,0.316666638,-0.165740755,1,0,0,0.6867,0,89,89,20,1,site,images/br_site.png,images/cb_site.png,0,,,,,,,,,,,,,,,,,,,,,,
,,,,,,00088,2023-10-24_12h57.55.115,vbt_B1_day2,2022.2.4,Win32,59.94125757,,,,,,,,,,,,,,,,,,,,,,,,,,,down,0,9.7905,,0.316666638,-0.165740755,1,0,0,0.75,0,90,90,134,1,geliefd,images/br_geliefd.png,images/cb_geliefd.png,0,,,,,,,,,,,,,,,,,,,,,,
,,,,,,00088,2023-10-24_12h57.55.115,vbt_B1_day2,2022.2.4,Win32,59.94125757,,,,,,,,,,,,,,,,,,,,,,,,,,,down,0,13.5063,,0.316666638,-0.165740755,1,0,0,0.7501,0,91,91,181,1,toegeven,images/br_toegeven.png,images/cb_toegeven.png,0,,,,,,,,,,,,,,,,,,,,,,
,,,,,,00088,2023-10-24_12h57.55.115,vbt_B1_day2,2022.2.4,Win32,59.94125757,,,,,,,,,,,,,,,,,,,,,,,,,,,down,0,7.1677,,0.316666638,-0.165740755,1,0,0,2.3669,0,92,92,41,1,maken,images/br_maken.png,images/cb_maken.png,0,,,,,,,,,,,,,,,,,,,,,,
,,,,,,00088,2023-10-24_12h57.55.115,vbt_B1_day2,2022.2.4,Win32,59.94125757,,,,,,,,,,,,,,,,,,,,,,,,,,,down,0,5.0611,,0.316666638,-0.166666667,1,0,0,1.7475,0,93,93,65,1,parel,images/br_parel.png,images/cb_parel.png,0,,,,,,,,,,,,,,,,,,,,,,
,,,,,,00088,2023-10-24_12h57.55.115,vbt_B1_day2,2022.2.4,Win32,59.94125757,,,,,,,,,,,,,,,,,,,,,,,,,,,down,0,1.8218,,0.316666638,-0.166666667,1,0,0,1.1334,0,94,94,38,1,baai,images/br_baai.png,images/cb_baai.png,0,,,,,,,,,,,,,,,,,,,,,,
,,,,,,00088,2023-10-24_12h57.55.115,vbt_B1_day2,2022.2.4,Win32,59.94125757,,,,,,,,,,,,,,,,,,,,,,,,,,,down,0,5.1175,,0.316666638,-0.166666667,1,0,0,0.6147,0,95,95,86,1,woning,images/br_woning.png,images/cb_woning.png,0,,,,,,,,,,,,,,,,,,,,,,
,,,,,,00088,2023-10-24_12h57.55.115,vbt_B1_day2,2022.2.4,Win32,59.94125757,,,,,,,,,,,,,,,,,,,,,,,,,,,down,0,9.2678,,0.316666638,-0.166666667,1,0,0,2.8331,0,96,96,186,1,voorraad,images/br_voorraad.png,images/cb_voorraad.png,0,,,,,,,,,,,,,,,,,,,,,,
,,,,,,00088,2023-10-24_12h57.55.115,vbt_B1_day2,2022.2.4,Win32,59.94125757,,,,,,,,,,,,,,,,,,,,,,,,,,,down,0,12.4403,,0.316666638,-0.166666667,1,0,0,0.7035,0,97,97,160,1,daarheen,images/br_daarheen.png,images/cb_daarheen.png,0,,,,,,,,,,,,,,,,,,,,,,
,,,,,,00088,2023-10-24_12h57.55.115,vbt_B1_day2,2022.2.4,Win32,59.94125757,,,,,,,,,,,,,,,,,,,,,,,,,,,down,0,14.025,,0.316666638,-0.166666667,1,0,0,3.6832,0,98,98,116,1,besmet,images/br_besmet.png,images/cb_besmet.png,0,,,,,,,,,,,,,,,,,,,,,,
,,,,,,00088,2023-10-24_12h57.55.115,vbt_B1_day2,2022.2.4,Win32,59.94125757,,,,,,,,,,,,,,,,,,,,,,,,,,,down,0,4.3672,,0.316666638,-0.166666667,1,0,0,1.633,0,99,99,131,1,opzicht,images/br_opzicht.png,images/cb_opzicht.png,0,,,,,,,,,,,,,,,,,,,,,,
,,,,,,00088,2023-10-24_12h57.55.115,vbt_B1_day2,2022.2.4,Win32,59.94125757,,,,,,,,,,,,,,,,,,,,,,,,,,,down,0,6.3994,,0.316666638,-0.166666667,1,0,0,0.8168,0,100,100,142,1,snuiven,images/br_snuiven.png,images/cb_snuiven.png,0,,,,,,,,,,,,,,,,,,,,,,
,,,,,,00088,2023-10-24_12h57.55.115,vbt_B1_day2,2022.2.4,Win32,59.94125757,,,,,,,,,,,,,,,,,,,,,,,,,,,down,0,53.6129,,0.292592578,-0.202777792,1,0,0,3.0336,0,101,101,55,1,praat,images/br_praat.png,images/cb_praat.png,0,,,,,,,,,,,,,,,,,,,,,,
,,,,,,00088,2023-10-24_12h57.55.115,vbt_B1_day2,2022.2.4,Win32,59.94125757,,,,,,,,,,,,,,,,,,,,,,,,,,,down,0,33.6661,,0.255555541,-0.30740745,1,0,0,1.0168,0,102,102,23,1,zout,images/br_zout.png,images/cb_zout.png,0,,,,,,,,,,,,,,,,,,,,,,
,,,,,,00088,2023-10-24_12h57.55.115,vbt_B1_day2,2022.2.4,Win32,59.94125757,,,,,,,,,,,,,,,,,,,,,,,,,,,down,0,6.1592,,0.255555541,-0.30740745,1,0,0,0.8369,0,103,103,192,1,schaamte,images/br_schaamte.png,images/cb_schaamte.png,0,,,,,,,,,,,,,,,,,,,,,,
,,,,,,00088,2023-10-24_12h57.55.115,vbt_B1_day2,2022.2.4,Win32,59.94125757,,,,,,,,,,,,,,,,,,,,,,,,,,,down,0,4.2257,,0.255555541,-0.30740745,1,0,0,1.4366,0,104,104,100,1,geduld,images/br_geduld.png,images/cb_geduld.png,0,,,,,,,,,,,,,,,,,,,,,,
,,,,,,00088,2023-10-24_12h57.55.115,vbt_B1_day2,2022.2.4,Win32,59.94125757,,,,,,,,,,,,,,,,,,,,,,,,,,,down,0,5.3206,,0.255555541,-0.30740745,1,0,0,0.7037,0,105,105,54,1,gebit,images/br_gebit.png,images/cb_gebit.png,0,,,,,,,,,,,,,,,,,,,,,,
,,,,,,00088,2023-10-24_12h57.55.115,vbt_B1_day2,2022.2.4,Win32,59.94125757,,,,,,,,,,,,,,,,,,,,,,,,,,,down,0,7.0399,,0.255555541,-0.30740745,1,0,0,1.9166,0,106,106,72,1,strak,images/br_strak.png,images/cb_strak.png,0,,,,,,,,,,,,,,,,,,,,,,
,,,,,,00088,2023-10-24_12h57.55.115,vbt_B1_day2,2022.2.4,Win32,59.94125757,,,,,,,,,,,,,,,,,,,,,,,,,,,down,0,10.8181,,0.255555541,-0.30740745,1,0,0,3.9538,0,107,107,94,1,oceaan,images/br_oceaan.png,images/cb_oceaan.png,0,,,,,,,,,,,,,,,,,,,,,,
,,,,,,00088,2023-10-24_12h57.55.115,vbt_B1_day2,2022.2.4,Win32,59.94125757,,,,,,,,,,,,,,,,,,,,,,,,,,,down,0,10.1177,,0.255555541,-0.30740745,1,0,0,3.6333,0,108,108,73,1,volop,images/br_volop.png,images/cb_volop.png,0,,,,,,,,,,,,,,,,,,,,,,
,,,,,,00088,2023-10-24_12h57.55.115,vbt_B1_day2,2022.2.4,Win32,59.94125757,,,,,,,,,,,,,,,,,,,,,,,,,,,down,0,46.4833,,0.205555598,-0.384259259,1,0,0,2.6331,0,109,109,168,1,bisschop,images/br_bisschop.png,images/cb_bisschop.png,0,,,,,,,,,,,,,,,,,,,,,,
,,,,,,00088,2023-10-24_12h57.55.115,vbt_B1_day2,2022.2.4,Win32,59.94125757,,,,,,,,,,,,,,,,,,,,,,,,,,,down,0,14.6983,,0.205555598,-0.384259259,1,0,0,1.8498,0,110,110,193,1,weeshuis,images/br_weeshuis.png,images/cb_weeshuis.png,0,,,,,,,,,,,,,,,,,,,,,,
,,,,,,00088,2023-10-24_12h57.55.115,vbt_B1_day2,2022.2.4,Win32,59.94125757,,,,,,,,,,,,,,,,,,,,,,,,,,,down,0,36.3482,,0.205555598,-0.384259259,1,0,0,1.5164,0,111,111,24,1,jurk,images/br_jurk.png,images/cb_jurk.png,0,,,,,,,,,,,,,,,,,,,,,,
,,,,,,00088,2023-10-24_12h57.55.115,vbt_B1_day2,2022.2.4,Win32,59.94125757,,,,,,,,,,,,,,,,,,,,,,,,,,,down,0,4.2838,,0.205555598,-0.384259259,1,0,0,1.1831,0,112,112,77,1,woede,images/br_woede.png,images/cb_woede.png,0,,,,,,,,,,,,,,,,,,,,,,
,,,,,,00088,2023-10-24_12h57.55.115,vbt_B1_day2,2022.2.4,Win32,59.94125757,,,,,,,,,,,,,,,,,,,,,,,,,,,down,0,18.4926,,0.184259273,-0.466666681,1,0,0,1.15,0,113,113,33,1,vlek,images/br_vlek.png,images/cb_vlek.png,0,,,,,,,,,,,,,,,,,,,,,,
,,,,,,00088,2023-10-24_12h57.55.115,vbt_B1_day2,2022.2.4,Win32,59.94125757,,,,,,,,,,,,,,,,,,,,,,,,,,,down,0,5.6433,,0.184259273,-0.466666681,1,0,0,1.1999,0,114,114,126,1,kasteel,images/br_kasteel.png,images/cb_kasteel.png,0,,,,,,,,,,,,,,,,,,,,,,
,,,,,,00088,2023-10-24_12h57.55.115,vbt_B1_day2,2022.2.4,Win32,59.94125757,,,,,,,,,,,,,,,,,,,,,,,,,,,down,0,16.4011,,0.421296296,-0.299074102,1,0,0,1.1164,0,115,115,153,1,vervoer,images/br_vervoer.png,images/cb_vervoer.png,0,,,,,,,,,,,,,,,,,,,,,,
,,,,,,00088,2023-10-24_12h57.55.115,vbt_B1_day2,2022.2.4,Win32,59.94125757,,,,,,,,,,,,,,,,,,,,,,,,,,,down,0,1.3833,,0.421296296,-0.298148191,1,0,0,2.1632,0,116,116,63,1,flirt,images/br_flirt.png,images/cb_flirt.png,0,,,,,,,,,,,,,,,,,,,,,,
,,,,,,00088,2023-10-24_12h57.55.115,vbt_B1_day2,2022.2.4,Win32,59.94125757,,,,,,,,,,,,,,,,,,,,,,,,,,,down,0,17.0855,,0.421296296,-0.298148191,1,0,0,0.5836,0,117,117,177,1,maaltijd,images/br_maaltijd.png,images/cb_maaltijd.png,1,maaltijd,,,,,,,,,,,,,,,,,,,,,
,,,,,,00088,2023-10-24_12h57.55.115,vbt_B1_day2,2022.2.4,Win32,59.94125757,,,,,,,,,,,,,,,,,,,,,,,,,,,down,0,16.6522,,0.384259259,-0.443518533,1,0,0,0.7163,0,118,118,145,1,invloed,images/br_invloed.png,images/cb_invloed.png,0,,,,,,,,,,,,,,,,,,,,,,
,,,,,,00088,2023-10-24_12h57.55.115,vbt_B1_day2,2022.2.4,Win32,59.94125757,,,,,,,,,,,,,,,,,,,,,,,,,,,down,0,7.7214,,0.54814812,-0.187962991,1,0,0,1.483,0,119,119,66,1,lever,images/br_lever.png,images/cb_lever.png,0,,,,,,,,,,,,,,,,,,,,,,
,,,,,,00088,2023-10-24_12h57.55.115,vbt_B1_day2,2022.2.4,Win32,59.94125757,,,,,,,,,,,,,,,,,,,,,,,,,,,down,0,4.3679,,0.54814812,-0.187962991,1,0,0,1.9538,0,120,120,93,1,waarop,images/br_waarop.png,images/cb_waarop.png,0,,,,,,,,,,,,,,,,,,,,,,
,,,,,,00088,2023-10-24_12h57.55.115,vbt_B1_day2,2022.2.4,Win32,59.94125757,,,,,,,,,,,,,,,,,,,,,,,,,,,down,0,9.8846,,0.54814812,-0.187962991,1,0,0,0.6335,0,121,121,48,1,steel,images/br_steel.png,images/cb_steel.png,0,,,,,,,,,,,,,,,,,,,,,,
,,,,,,00088,2023-10-24_12h57.55.115,vbt_B1_day2,2022.2.4,Win32,59.94125757,,,,,,,,,,,,,,,,,,,,,,,,,,,down,0,5.9158,,0.54814812,-0.187962991,1,0,0,0.88,0,122,122,141,1,knielen,images/br_knielen.png,images/cb_knielen.png,0,,,,,,,,,,,,,,,,,,,,,,
,,,,,,00088,2023-10-24_12h57.55.115,vbt_B1_day2,2022.2.4,Win32,59.94125757,,,,,,,,,,,,,,,,,,,,,,,,,,,down,0,11.485,,0.54814812,-0.187962991,1,0,0,1.1163,0,123,123,140,1,blijven,images/br_blijven.png,images/cb_blijven.png,0,,,,,,,,,,,,,,,,,,,,,,
,,,,,,00088,2023-10-24_12h57.55.115,vbt_B1_day2,2022.2.4,Win32,59.94125757,,,,,,,,,,,,,,,,,,,,,,,,,,,down,0,5.1252,,0.54814812,-0.187962991,1,0,0,0.8695,0,124,124,36,1,vuur,images/br_vuur.png,images/cb_vuur.png,0,,,,,,,,,,,,,,,,,,,,,,
,,,,,,00088,2023-10-24_12h57.55.115,vbt_B1_day2,2022.2.4,Win32,59.94125757,,,,,,,,,,,,,,,,,,,,,,,,,,,down,0,7.1516,,0.54814812,-0.187962991,1,0,0,0.8167,0,125,125,146,1,opkomen,images/br_opkomen.png,images/cb_opkomen.png,0,,,,,,,,,,,,,,,,,,,,,,
,,,,,,00088,2023-10-24_12h57.55.115,vbt_B1_day2,2022.2.4,Win32,59.94125757,,,,,,,,,,,,,,,,,,,,,,,,,,,down,0,6.9466,,0.54814812,-0.187962991,1,0,0,2.9625,0,126,126,148,1,smullen,images/br_smullen.png,images/cb_smullen.png,0,,,,,,,,,,,,,,,,,,,,,,
,,,,,,00088,2023-10-24_12h57.55.115,vbt_B1_day2,2022.2.4,Win32,59.94125757,,,,,,,,,,,,,,,,,,,,,,,,,,,down,0,0.1283,,0.54814812,-0.187962991,1,0,0,2.4502,0,127,127,133,1,seizoen,images/br_seizoen.png,images/cb_seizoen.png,0,,,,,,,,,,,,,,,,,,,,,,
,,,,,,00088,2023-10-24_12h57.55.115,vbt_B1_day2,2022.2.4,Win32,59.94125757,,,,,,,,,,,,,,,,,,,,,,,,,,,down,0,10.5628,,0.54814812,-0.187962991,1,0,0,2.45,0,128,128,67,1,zwart,images/br_zwart.png,images/cb_zwart.png,0,,,,,,,,,,,,,,,,,,,,,,
,,,,,,00088,2023-10-24_12h57.55.115,vbt_B1_day2,2022.2.4,Win32,59.94125757,,,,,,,,,,,,,,,,,,,,,,,,,,,down,0,10.1347,,0.412963019,-0.203703704,1,0,0,0.9161,0,129,129,18,1,blik,images/br_blik.png,images/cb_blik.png,1,blik,,,,,,,,,,,,,,,,,,,,,
,,,,,,00088,2023-10-24_12h57.55.115,vbt_B1_day2,2022.2.4,Win32,59.94125757,,,,,,,,,,,,,,,,,,,,,,,,,,,down,0,5.0144,,0.412963019,-0.203703704,1,0,0,0.5357,0,130,130,138,1,akkoord,images/br_akkoord.png,images/cb_akkoord.png,1,akkoord,,,,,,,,,,,,,,,,,,,,,
,,,,,,00088,2023-10-24_12h57.55.115,vbt_B1_day2,2022.2.4,Win32,59.94125757,,,,,,,,,,,,,,,,,,,,,,,,,,,down,0,8.3377,,0.412963019,-0.203703704,1,0,0,0.5999,0,131,131,69,1,waken,images/br_waken.png,images/cb_waken.png,0,,,,,,,,,,,,,,,,,,,,,,
,,,,,,00088,2023-10-24_12h57.55.115,vbt_B1_day2,2022.2.4,Win32,59.94125757,,,,,,,,,,,,,,,,,,,,,,,,,,,down,0,3.228,,-0.392592571,-0.498148176,1,0,0,1.2338,0,132,132,108,1,excuus,images/br_excuus.png,images/cb_excuus.png,0,,,,,,,,,,,,,,,,,,,,,,
,,,,,,00088,2023-10-24_12h57.55.115,vbt_B1_day2,2022.2.4,Win32,59.94125757,,,,,,,,,,,,,,,,,,,,,,,,,,,down,0,8.2447,,-0.392592571,-0.498148176,1,0,0,1.004,0,133,133,155,1,gerucht,images/br_gerucht.png,images/cb_gerucht.png,0,,,,,,,,,,,,,,,,,,,,,,
,,,,,,00088,2023-10-24_12h57.55.115,vbt_B1_day2,2022.2.4,Win32,59.94125757,,,,,,,,,,,,,,,,,,,,,,,,,,,down,0,5.3438,,-0.392592571,-0.498148176,1,0,0,0.9863,0,134,134,74,1,graaf,images/br_graaf.png,images/cb_graaf.png,0,,,,,,,,,,,,,,,,,,,,,,
,,,,,,00088,2023-10-24_12h57.55.115,vbt_B1_day2,2022.2.4,Win32,59.94125757,,,,,,,,,,,,,,,,,,,,,,,,,,,down,0,6.7546,,-0.392592571,-0.498148176,1,0,0,1.1662,0,135,135,50,1,stoom,images/br_stoom.png,images/cb_stoom.png,0,,,,,,,,,,,,,,,,,,,,,,
,,,,,,00088,2023-10-24_12h57.55.115,vbt_B1_day2,2022.2.4,Win32,59.94125757,,,,,,,,,,,,,,,,,,,,,,,,,,,down,0,10.6013,,-0.392592571,-0.498148176,1,0,0,1.0331,0,136,136,104,1,zweven,images/br_zweven.png,images/cb_zweven.png,0,,,,,,,,,,,,,,,,,,,,,,
,,,,,,00088,2023-10-24_12h57.55.115,vbt_B1_day2,2022.2.4,Win32,59.94125757,,,,,,,,,,,,,,,,,,,,,,,,,,,down,0,7.2166,,-0.392592571,-0.498148176,1,0,0,0.6302,0,137,137,191,1,opheffen,images/br_opheffen.png,images/cb_opheffen.png,0,,,,,,,,,,,,,,,,,,,,,,
,,,,,,00088,2023-10-24_12h57.55.115,vbt_B1_day2,2022.2.4,Win32,59.94125757,,,,,,,,,,,,,,,,,,,,,,,,,,,down,0,3.8043,,-0.392592571,-0.49537037,1,0,0,1.2666,0,138,138,152,1,afnemen,images/br_afnemen.png,images/cb_afnemen.png,0,,,,,,,,,,,,,,,,,,,,,,
,,,,,,00088,2023-10-24_12h57.55.115,vbt_B1_day2,2022.2.4,Win32,59.94125757,,,,,,,,,,,,,,,,,,,,,,,,,,,down,0,4.6599,,-0.392592571,-0.49537037,1,0,0,0.7167,0,139,139,46,1,jagen,images/br_jagen.png,images/cb_jagen.png,0,,,,,,,,,,,,,,,,,,,,,,
,,,,,,00088,2023-10-24_12h57.55.115,vbt_B1_day2,2022.2.4,Win32,59.94125757,,,,,,,,,,,,,,,,,,,,,,,,,,,down,0,10.566,,-0.392592571,-0.49537037,1,0,0,1.0801,0,140,140,80,1,kanjer,images/br_kanjer.png,images/cb_kanjer.png,0,,,,,,,,,,,,,,,,,,,,,,
,,,,,,00088,2023-10-24_12h57.55.115,vbt_B1_day2,2022.2.4,Win32,59.94125757,,,,,,,,,,,,,,,,,,,,,,,,,,,down,0,3.1173,,-0.392592571,-0.49537037,1,0,0,1.2625,0,141,141,44,1,flits,images/br_flits.png,images/cb_flits.png,0,,,,,,,,,,,,,,,,,,,,,,
,,,,,,00088,2023-10-24_12h57.55.115,vbt_B1_day2,2022.2.4,Win32,59.94125757,,,,,,,,,,,,,,,,,,,,,,,,,,,down,0,8.1678,,-0.392592571,-0.49537037,1,0,0,0.7494,0,142,142,161,1,attentie,images/br_attentie.png,images/cb_attentie.png,0,,,,,,,,,,,,,,,,,,,,,,
,,,,,,00088,2023-10-24_12h57.55.115,vbt_B1_day2,2022.2.4,Win32,59.94125757,,,,,,,,,,,,,,,,,,,,,,,,,,,down,0,4.1717,,-0.392592571,-0.49537037,1,0,0,2.5166,0,143,143,70,1,ijdel,images/br_ijdel.png,images/cb_ijdel.png,0,,,,,,,,,,,,,,,,,,,,,,
,,,,,,00088,2023-10-24_12h57.55.115,vbt_B1_day2,2022.2.4,Win32,59.94125757,,,,,,,,,,,,,,,,,,,,,,,,,,,down,0,3.6132,,-0.392592571,-0.49537037,1,0,0,1.7164,0,144,144,26,1,leuk,images/br_leuk.png,images/cb_leuk.png,0,,,,,,,,,,,,,,,,,,,,,,
,,,,,,00088,2023-10-24_12h57.55.115,vbt_B1_day2,2022.2.4,Win32,59.94125757,,,,,,,,,,,,,,,,,,,,,,,,,,,down,0,4.8678,,-0.392592571,-0.49537037,1,0,0,1.0833,0,145,145,45,1,piste,images/br_piste.png,images/cb_piste.png,0,,,,,,,,,,,,,,,,,,,,,,
,,,,,,00088,2023-10-24_12h57.55.115,vbt_B1_day2,2022.2.4,Win32,59.94125757,,,,,,,,,,,,,,,,,,,,,,,,,,,down,0,5.5845,,-0.392592571,-0.49537037,1,0,0,1.0833,0,146,146,157,1,uitlaat,images/br_uitlaat.png,images/cb_uitlaat.png,0,,,,,,,,,,,,,,,,,,,,,,
,,,,,,00088,2023-10-24_12h57.55.115,vbt_B1_day2,2022.2.4,Win32,59.94125757,,,,,,,,,,,,,,,,,,,,,,,,,,,down,0,6.441,,-0.392592571,-0.49537037,1,0,0,2.8326,0,147,147,90,1,geluid,images/br_geluid.png,images/cb_geluid.png,0,,,,,,,,,,,,,,,,,,,,,,
,,,,,,00088,2023-10-24_12h57.55.115,vbt_B1_day2,2022.2.4,Win32,59.94125757,,,,,,,,,,,,,,,,,,,,,,,,,,,down,0,1.2628,,-0.392592571,-0.49537037,1,0,0,0.9631,0,148,148,0,1,slak,images/br_slak.png,images/cb_slak.png,0,,,,,,,,,,,,,,,,,,,,,,
,,,,,,00088,2023-10-24_12h57.55.115,vbt_B1_day2,2022.2.4,Win32,59.94125757,,,,,,,,,,,,,,,,,,,,,,,,,,,down,0,3.0724,,-0.392592571,-0.49537037,1,0,0,0.5331,0,149,149,101,1,staren,images/br_staren.png,images/cb_staren.png,0,,,,,,,,,,,,,,,,,,,,,,
,,,,,,00088,2023-10-24_12h57.55.115,vbt_B1_day2,2022.2.4,Win32,59.94125757,,,,,,,,,,,,,,,,,,,,,,,,,,,down,0,0.5508,,-0.392592571,-0.49537037,1,0,0,0.9164,0,150,150,89,1,slapen,images/br_slapen.png,images/cb_slapen.png,0,,,,,,,,,,,,,,,,,,,,,,
,,,,,,00088,2023-10-24_12h57.55.115,vbt_B1_day2,2022.2.4,Win32,59.94125757,,,,,,,,,,,,,,,,,,,,,,,,,,,down,0,0.9673,,-0.392592571,-0.49537037,1,0,0,1.4205,0,151,151,83,1,mening,images/br_mening.png,images/cb_mening.png,0,,,,,,,,,,,,,,,,,,,,,,
,,,,,,00088,2023-10-24_12h57.55.115,vbt_B1_day2,2022.2.4,Win32,59.94125757,,,,,,,,,,,,,,,,,,,,,,,,,,,down,0,12.7032,,-0.392592571,-0.49537037,1,0,0,0.9867,0,152,152,130,1,keihard,images/br_keihard.png,images/cb_keihard.png,0,,,,,,,,,,,,,,,,,,,,,,
,,,,,,00088,2023-10-24_12h57.55.115,vbt_B1_day2,2022.2.4,Win32,59.94125757,,,,,,,,,,,,,,,,,,,,,,,,,,,down,0,1.2351,,-0.392592571,-0.49537037,1,0,0,0.9327,0,153,153,12,1,kust,images/br_kust.png,images/cb_kust.png,0,,,,,,,,,,,,,,,,,,,,,,
,,,,,,00088,2023-10-24_12h57.55.115,vbt_B1_day2,2022.2.4,Win32,59.94125757,,,,,,,,,,,,,,,,,,,,,,,,,,,down,0,6.9432,,-0.392592571,-0.49537037,1,0,0,1.2834,0,154,154,76,1,afval,images/br_afval.png,images/cb_afval.png,0,,,,,,,,,,,,,,,,,,,,,,
,,,,,,00088,2023-10-24_12h57.55.115,vbt_B1_day2,2022.2.4,Win32,59.94125757,,,,,,,,,,,,,,,,,,,,,,,,,,,down,0,9.0726,,-0.392592571,-0.49537037,1,0,0,0.6664,0,155,155,199,1,beseffen,images/br_beseffen.png,images/cb_beseffen.png,0,,,,,,,,,,,,,,,,,,,,,,
,,,,,,00088,2023-10-24_12h57.55.115,vbt_B1_day2,2022.2.4,Win32,59.94125757,,,,,,,,,,,,,,,,,,,,,,,,,,,down,0,2.0259,,-0.39907406,-0.497222265,1,0,0,1.1664,0,156,156,31,1,poes,images/br_poes.png,images/cb_poes.png,0,,,,,,,,,,,,,,,,,,,,,,
,,,,,,00088,2023-10-24_12h57.55.115,vbt_B1_day2,2022.2.4,Win32,59.94125757,,,,,,,,,,,,,,,,,,,,,,,,,,,down,0,9.3005,,-0.39907406,-0.499074088,1,0,0,0.9832,0,157,157,105,1,wijlen,images/br_wijlen.png,images/cb_wijlen.png,0,,,,,,,,,,,,,,,,,,,,,,
,,,,,,00088,2023-10-24_12h57.55.115,vbt_B1_day2,2022.2.4,Win32,59.94125757,,,,,,,,,,,,,,,,,,,,,,,,,,,down,0,0.9292,,-0.39907406,-0.499074088,1,0,0,1.2035,0,158,158,125,1,aanzien,images/br_aanzien.png,images/cb_aanzien.png,0,,,,,,,,,,,,,,,,,,,,,,
,,,,,,00088,2023-10-24_12h57.55.115,vbt_B1_day2,2022.2.4,Win32,59.94125757,,,,,,,,,,,,,,,,,,,,,,,,,,,down,0,2.5182,,-0.248148106,-0.469444487,1,0,0,1.2957,0,159,159,57,1,steek,images/br_steek.png,images/cb_steek.png,1,steek,,,,,,,,,,,,,,,,,,,,,
,,,,,,00088,2023-10-24_12h57.55.115,vbt_B1_day2,2022.2.4,Win32,59.94125757,,,,,,,,,,,,,,,,,,,,,,,,,,,down,0,8.8283,,-0.673148138,-0.136111153,1,0,0,1.3832,0,160,160,154,1,aflopen,images/br_aflopen.png,images/cb_aflopen.png,0,,,,,,,,,,,,,,,,,,,,,,
,,,,,,00088,2023-10-24_12h57.55.115,vbt_B1_day2,2022.2.4,Win32,59.94125757,,,,,,,,,,,,,,,,,,,,,,,,,,,down,0,1.8691,,-0.673148138,-0.136111153,1,0,0,0.8999,0,161,161,62,1,knaap,images/br_knaap.png,images/cb_knaap.png,0,,,,,,,,,,,,,,,,,,,,,,
,,,,,,00088,2023-10-24_12h57.55.115,vbt_B1_day2,2022.2.4,Win32,59.94125757,,,,,,,,,,,,,,,,,,,,,,,,,,,down,0,5.6494,,-0.673148138,-0.136111153,1,0,0,1.08,0,162,162,47,1,kabel,images/br_kabel.png,images/cb_kabel.png,0,,,,,,,,,,,,,,,,,,,,,,
,,,,,,00088,2023-10-24_12h57.55.115,vbt_B1_day2,2022.2.4,Win32,59.94125757,,,,,,,,,,,,,,,,,,,,,,,,,,,down,0,13.5015,,-0.673148138,-0.136111153,1,0,0,0.6832,0,163,163,156,1,rechten,images/br_rechten.png,images/cb_rechten.png,0,,,,,,,,,,,,,,,,,,,,,,
,,,,,,00088,2023-10-24_12h57.55.115,vbt_B1_day2,2022.2.4,Win32,59.94125757,,,,,,,,,,,,,,,,,,,,,,,,,,,down,0,5.2506,,-0.673148138,-0.136111153,1,0,0,0.6867,0,164,164,21,1,mist,images/br_mist.png,images/cb_mist.png,0,,,,,,,,,,,,,,,,,,,,,,
,,,,,,00088,2023-10-24_12h57.55.115,vbt_B1_day2,2022.2.4,Win32,59.94125757,,,,,,,,,,,,,,,,,,,,,,,,,,,down,0,3.3277,,-0.673148138,-0.136111153,1,0,0,0.7168,0,165,165,49,1,laken,images/br_laken.png,images/cb_laken.png,0,,,,,,,,,,,,,,,,,,,,,,
,,,,,,00088,2023-10-24_12h57.55.115,vbt_B1_day2,2022.2.4,Win32,59.94125757,,,,,,,,,,,,,,,,,,,,,,,,,,,down,0,16.7235,,-0.400000007,-0.103703746,1,0,0,2.2211,0,166,166,97,1,loyaal,images/br_loyaal.png,images/cb_loyaal.png,1,lokaal,,,,,,,,,,,,,,,,,,,,,
,,,,,,00088,2023-10-24_12h57.55.115,vbt_B1_day2,2022.2.4,Win32,59.94125757,,,,,,,,,,,,,,,,,,,,,,,,,,,down,0,2.3173,,-0.400000007,-0.104629658,1,0,0,1.2166,0,167,167,173,1,apparaat,images/br_apparaat.png,images/cb_apparaat.png,0,,,,,,,,,,,,,,,,,,,,,,
,,,,,,00088,2023-10-24_12h57.55.115,vbt_B1_day2,2022.2.4,Win32,59.94125757,,,,,,,,,,,,,,,,,,,,,,,,,,,down,0,10.1692,,-0.398148148,-0.111111111,1,0,0,0.5705,0,168,168,176,1,techniek,images/br_techniek.png,images/cb_techniek.png,1,techniek,,,,,,,,,,,,,,,,,,,,,
,,,,,,00088,2023-10-24_12h57.55.115,vbt_B1_day2,2022.2.4,Win32,59.94125757,,,,,,,,,,,,,,,,,,,,,,,,,,,down,0,5.8214,,-0.398148148,-0.12962963,1,0,0,0.8866,0,169,169,61,1,groen,images/br_groen.png,images/cb_groen.png,0,,,,,,,,,,,,,,,,,,,,,,
,,,,,,00088,2023-10-24_12h57.55.115,vbt_B1_day2,2022.2.4,Win32,59.94125757,,,,,,,,,,,,,,,,,,,,,,,,,,,down,0,2.2607,,-0.398148148,-0.12962963,1,0,0,0.7034,0,170,170,198,1,bedoelen,images/br_bedoelen.png,images/cb_bedoelen.png,0,,,,,,,,,,,,,,,,,,,,,,
,,,,,,00088,2023-10-24_12h57.55.115,vbt_B1_day2,2022.2.4,Win32,59.94125757,,,,,,,,,,,,,,,,,,,,,,,,,,,down,0,5.0228,,-0.398148148,-0.128703718,1,0,0,1.0167,0,171,171,190,1,goedkoop,images/br_goedkoop.png,images/cb_goedkoop.png,0,,,,,,,,,,,,,,,,,,,,,,
,,,,,,00088,2023-10-24_12h57.55.115,vbt_B1_day2,2022.2.4,Win32,59.94125757,,,,,,,,,,,,,,,,,,,,,,,,,,,down,0,10.8194,,-0.572222215,-0.00462963,1,0,0,8.4662,0,172,172,60,1,jasje,images/br_jasje.png,images/cb_jasje.png,0,,,,,,,,,,,,,,,,,,,,,,
,,,,,,00088,2023-10-24_12h57.55.115,vbt_B1_day2,2022.2.4,Win32,59.94125757,,,,,,,,,,,,,,,,,,,,,,,,,,,down,0,7.3203,,-0.572222215,-0.005555577,1,0,0,0.6703,0,173,173,40,1,schep,images/br_schep.png,images/cb_schep.png,0,,,,,,,,,,,,,,,,,,,,,,
,,,,,,00088,2023-10-24_12h57.55.115,vbt_B1_day2,2022.2.4,Win32,59.94125757,,,,,,,,,,,,,,,,,,,,,,,,,,,down,0,1.4304,,-0.572222215,-0.005555577,1,0,0,0.6666,0,174,174,52,1,wagon,images/br_wagon.png,images/cb_wagon.png,0,,,,,,,,,,,,,,,,,,,,,,
,,,,,,00088,2023-10-24_12h57.55.115,vbt_B1_day2,2022.2.4,Win32,59.94125757,,,,,,,,,,,,,,,,,,,,,,,,,,,down,0,49.0343,,-0.599074063,-0.146296325,1,0,0,0.6629,0,175,175,119,1,liefje,images/br_liefje.png,images/cb_liefje.png,0,,,,,,,,,,,,,,,,,,,,,,
,,,,,,00088,2023-10-24_12h57.55.115,vbt_B1_day2,2022.2.4,Win32,59.94125757,,,,,,,,,,,,,,,,,,,,,,,,,,,down,0,10.3712,,-0.597222222,-0.148148148,1,0,0,0.6826,0,176,176,164,1,anarchie,images/br_anarchie.png,images/cb_anarchie.png,0,,,,,,,,,,,,,,,,,,,,,,
,,,,,,00088,2023-10-24_12h57.55.115,vbt_B1_day2,2022.2.4,Win32,59.94125757,,,,,,,,,,,,,,,,,,,,,,,,,,,down,0,2.7977,,-0.597222222,-0.148148148,1,0,0,0.5497,0,177,177,2,1,jaar,images/br_jaar.png,images/cb_jaar.png,0,,,,,,,,,,,,,,,,,,,,,,
,,,,,,00088,2023-10-24_12h57.55.115,vbt_B1_day2,2022.2.4,Win32,59.94125757,,,,,,,,,,,,,,,,,,,,,,,,,,,down,0,1.7629,,-0.421296296,-0.08888891,1,0,0,0.5336,0,178,178,17,1,taal,images/br_taal.png,images/cb_taal.png,1,taal,,,,,,,,,,,,,,,,,,,,,
,,,,,,00088,2023-10-24_12h57.55.115,vbt_B1_day2,2022.2.4,Win32,59.94125757,,,,,,,,,,,,,,,,,,,,,,,,,,,down,0,2.5314,,-0.420370349,-0.087962963,1,0,0,0.7299,0,179,179,78,1,leren,images/br_leren.png,images/cb_leren.png,0,,,,,,,,,,,,,,,,,,,,,,
,,,,,,00088,2023-10-24_12h57.55.115,vbt_B1_day2,2022.2.4,Win32,59.94125757,,,,,,,,,,,,,,,,,,,,,,,,,,,down,0,3.4813,,-0.420370349,-0.087962963,1,0,0,0.9998,0,180,180,151,1,aanzoek,images/br_aanzoek.png,images/cb_aanzoek.png,0,,,,,,,,,,,,,,,,,,,,,,
,,,,,,00088,2023-10-24_12h57.55.115,vbt_B1_day2,2022.2.4,Win32,59.94125757,,,,,,,,,,,,,,,,,,,,,,,,,,,down,0,58.2237,,-0.383333312,-0.069444444,1,0,0,0.887,0,181,181,29,1,baas,images/br_baas.png,images/cb_baas.png,0,,,,,,,,,,,,,,,,,,,,,,
,,,,,,00088,2023-10-24_12h57.55.115,vbt_B1_day2,2022.2.4,Win32,59.94125757,,,,,,,,,,,,,,,,,,,,,,,,,,,down,0,3.7919,,-0.383333312,-0.070370392,1,0,0,1.0368,0,182,182,75,1,snoep,images/br_snoep.png,images/cb_snoep.png,0,,,,,,,,,,,,,,,,,,,,,,
,,,,,,00088,2023-10-24_12h57.55.115,vbt_B1_day2,2022.2.4,Win32,59.94125757,,,,,,,,,,,,,,,,,,,,,,,,,,,down,0,7.255,,-0.383333312,-0.070370392,1,0,0,0.8167,0,183,183,174,1,stemming,images/br_stemming.png,images/cb_stemming.png,0,,,,,,,,,,,,,,,,,,,,,,
,,,,,,00088,2023-10-24_12h57.55.115,vbt_B1_day2,2022.2.4,Win32,59.94125757,,,,,,,,,,,,,,,,,,,,,,,,,,,down,0,3.3344,,-0.383333312,-0.070370392,1,0,0,1.179,0,184,184,103,1,joggen,images/br_joggen.png,images/cb_joggen.png,0,,,,,,,,,,,,,,,,,,,,,,
,,,,,,00088,2023-10-24_12h57.55.115,vbt_B1_day2,2022.2.4,Win32,59.94125757,,,,,,,,,,,,,,,,,,,,,,,,,,,down,0,4.844,,-0.383333312,-0.070370392,1,0,0,1.0037,0,185,185,81,1,dubbel,images/br_dubbel.png,images/cb_dubbel.png,0,,,,,,,,,,,,,,,,,,,,,,
,,,,,,00088,2023-10-24_12h57.55.115,vbt_B1_day2,2022.2.4,Win32,59.94125757,,,,,,,,,,,,,,,,,,,,,,,,,,,down,0,5.0229,,-0.383333312,-0.070370392,1,0,0,2.471,0,186,186,128,1,prikken,images/br_prikken.png,images/cb_prikken.png,0,,,,,,,,,,,,,,,,,,,,,,
,,,,,,00088,2023-10-24_12h57.55.115,vbt_B1_day2,2022.2.4,Win32,59.94125757,,,,,,,,,,,,,,,,,,,,,,,,,,,down,0,8.535,,-0.39166666,-0.081481474,1,0,0,0.479,0,187,187,139,1,stiekem,images/br_stiekem.png,images/cb_stiekem.png,1,stiekem,,,,,,,,,,,,,,,,,,,,,
,,,,,,00088,2023-10-24_12h57.55.115,vbt_B1_day2,2022.2.4,Win32,59.94125757,,,,,,,,,,,,,,,,,,,,,,,,,,,down,0,8.7298,,-0.352777764,-0.025000007,1,0,0,0.4825,0,188,188,120,1,klimmen,images/br_klimmen.png,images/cb_klimmen.png,0,,,,,,,,,,,,,,,,,,,,,,
,,,,,,00088,2023-10-24_12h57.55.115,vbt_B1_day2,2022.2.4,Win32,59.94125757,,,,,,,,,,,,,,,,,,,,,,,,,,,down,0,2.9872,,-0.324074074,0.26574073,1,0,0,0.5331,0,189,189,14,1,rijp,images/br_rijp.png,images/cb_rijp.png,0,,,,,,,,,,,,,,,,,,,,,,
,,,,,,00088,2023-10-24_12h57.55.115,vbt_B1_day2,2022.2.4,Win32,59.94125757,,,,,,,,,,,,,,,,,,,,,,,,,,,down,0,1.8504,,-0.324074074,0.26574073,1,0,0,0.7123,0,190,190,115,1,kleren,images/br_kleren.png,images/cb_kleren.png,0,,,,,,,,,,,,,,,,,,,,,,
,,,,,,00088,2023-10-24_12h57.55.115,vbt_B1_day2,2022.2.4,Win32,59.94125757,,,,,,,,,,,,,,,,,,,,,,,,,,,down,0,5.402,,-0.324074074,0.26574073,1,0,0,0.8166,0,191,191,123,1,hiervan,images/br_hiervan.png,images/cb_hiervan.png,0,,,,,,,,,,,,,,,,,,,,,,
,,,,,,00088,2023-10-24_12h57.55.115,vbt_B1_day2,2022.2.4,Win32,59.94125757,,,,,,,,,,,,,,,,,,,,,,,,,,,down,0,0.5996,,-0.324074074,0.26574073,1,0,0,0.8337,0,192,192,122,1,waarvan,images/br_waarvan.png,images/cb_waarvan.png,0,,,,,,,,,,,,,,,,,,,,,,
,,,,,,00088,2023-10-24_12h57.55.115,vbt_B1_day2,2022.2.4,Win32,59.94125757,,,,,,,,,,,,,,,,,,,,,,,,,,,down,0,1.2009,,-0.324074074,0.26574073,1,0,0,2.337,0,193,193,143,1,hechten,images/br_hechten.png,images/cb_hechten.png,0,,,,,,,,,,,,,,,,,,,,,,
,,,,,,00088,2023-10-24_12h57.55.115,vbt_B1_day2,2022.2.4,Win32,59.94125757,,,,,,,,,,,,,,,,,,,,,,,,,,,down,0,2.0028,,-0.324074074,0.26574073,1,0,0,1.2201,0,194,194,71,1,bever,images/br_bever.png,images/cb_bever.png,0,,,,,,,,,,,,,,,,,,,,,,
,,,,,,00088,2023-10-24_12h57.55.115,vbt_B1_day2,2022.2.4,Win32,59.94125757,,,,,,,,,,,,,,,,,,,,,,,,,,,down,0,7.5851,,-0.324074074,0.26574073,1,0,0,0.5699,0,195,195,109,1,totaal,images/br_totaal.png,images/cb_totaal.png,0,,,,,,,,,,,,,,,,,,,,,,
,,,,,,00088,2023-10-24_12h57.55.115,vbt_B1_day2,2022.2.4,Win32,59.94125757,,,,,,,,,,,,,,,,,,,,,,,,,,,down,0,10.2471,,-0.324074074,0.26574073,1,0,0,1.1829,0,196,196,121,1,twijfel,images/br_twijfel.png,images/cb_twijfel.png,0,,,,,,,,,,,,,,,,,,,,,,
,,,,,,00088,2023-10-24_12h57.55.115,vbt_B1_day2,2022.2.4,Win32,59.94125757,,,,,,,,,,,,,,,,,,,,,,,,,,,down,0,7.1751,,-0.324074074,0.26574073,1,0,0,1.0672,0,197,197,129,1,verhaal,images/br_verhaal.png,images/cb_verhaal.png,0,,,,,,,,,,,,,,,,,,,,,,
,,,,,,00088,2023-10-24_12h57.55.115,vbt_B1_day2,2022.2.4,Win32,59.94125757,,,,,,,,,,,,,,,,,,,,,,,,,,,down,0,4.7565,,-0.324074074,0.26574073,1,0,0,1.6833,0,198,198,3,1,mand,images/br_mand.png,images/cb_mand.png,0,,,,,,,,,,,,,,,,,,,,,,
,,,,,,00088,2023-10-24_12h57.55.115,vbt_B1_day2,2022.2.4,Win32,59.94125757,,,,,,,,,,,,,,,,,,,,,,,,,,,down,0,8.2398,,-0.362037023,0.150925919,1,0,0,0.8001,0,199,199,179,1,woestijn,images/br_woestijn.png,images/cb_woestijn.png,1,woestijn,,,,,,,,,,,,,,,,,,,,,
,,,,,,00088,2023-10-24_12h57.55.115,vbt_B1_day2,2022.2.4,Win32,59.94125757,,,,,,,,,,,,,,,,,,,,,,,,,,,,,,,,,,,,,,,,,,,,,,,-0.679629626,0.075925933,1,0,0,,,,,,,,,,,,,,,,
,,,,,,00088,2023-10-24_12h57.55.115,vbt_B1_day2,2022.2.4,Win32,59.94125757,,,,,,,,,,,,,,,,,,,,,,,,,,,,,,,,,,,,,,,,,,,,,,,,,,,,-0.580555563,0.064814815,1,0,0,,,,,,,,,,,
,,,,,,00088,2023-10-24_12h57.55.115,vbt_B1_day2,2022.2.4,Win32,59.94125757,,,,,,,,,,,,,,,,,,,,,,,,,,,,,,,,,,,,,,,,,,goon,images/br_goon.png,images/cb_goon.png,,goon,,,,,,,,,,,0.084259245,0.297222226,1,0,0,goon,0,0,0,23,1
,,,,,,00088,2023-10-24_12h57.55.115,vbt_B1_day2,2022.2.4,Win32,59.94125757,,,,,,,,,,,,,,,,,,,,,,,,,,,,,,,,,,,,,,,,,,agressie,images/br_agressie.png,images/cb_agressie.png,,agr,,,,,,,,,,,-0.271296254,-0.000925947,1,0,0,agr,0,1,1,59,1
,,,,,,00088,2023-10-24_12h57.55.115,vbt_B1_day2,2022.2.4,Win32,59.94125757,,,,,,,,,,,,,,,,,,,,,,,,,,,,,,,,,,,,,,,,,,kenzis,images/br_kenzis.png,images/cb_kenzis.png,,ken,,,,,,,,,,,-0.305555556,0.030555548,1,0,0,ken,0,2,2,30,1
,,,,,,00088,2023-10-24_12h57.55.115,vbt_B1_day2,2022.2.4,Win32,59.94125757,,,,,,,,,,,,,,,,,,,,,,,,,,,,,,,,,,,,,,,,,,lokken,images/br_lokken.png,images/cb_lokken.png,,lokken,,,,,,,,,,,-0.287962949,0.005555541,1,0,0,lokken,0,3,3,8,1
,,,,,,00088,2023-10-24_12h57.55.115,vbt_B1_day2,2022.2.4,Win32,59.94125757,,,,,,,,,,,,,,,,,,,,,,,,,,,,,,,,,,,,,,,,,,prekken,images/br_prekken.png,images/cb_prekken.png,,vrekk,,,,,,,,,,,-0.312962956,-0.012962977,1,0,0,vrekk,0,4,4,34,1
,,,,,,00088,2023-10-24_12h57.55.115,vbt_B1_day2,2022.2.4,Win32,59.94125757,,,,,,,,,,,,,,,,,,,,,,,,,,,,,,,,,,,,,,,,,,woning,images/br_woning.png,images/cb_woning.png,,woe,,,,,,,,,,,-0.342592593,-0.039814808,1,0,0,woe,0,5,5,10,1
,,,,,,00088,2023-10-24_12h57.55.115,vbt_B1_day2,2022.2.4,Win32,59.94125757,,,,,,,,,,,,,,,,,,,,,,,,,,,,,,,,,,,,,,,,,,clan,images/br_clan.png,images/cb_clan.png,,clan,,,,,,,,,,,-0.259259259,0.01666666,1,0,0,clan,0,6,6,40,1
,,,,,,00088,2023-10-24_12h57.55.115,vbt_B1_day2,2022.2.4,Win32,59.94125757,,,,,,,,,,,,,,,,,,,,,,,,,,,,,,,,,,,,,,,,,,dode,images/br_dode.png,images/cb_dode.png,,dode,,,,,,,,,,,-0.25462963,0.018518519,1,0,0,dode,0,7,7,41,1
,,,,,,00088,2023-10-24_12h57.55.115,vbt_B1_day2,2022.2.4,Win32,59.94125757,,,,,,,,,,,,,,,,,,,,,,,,,,,,,,,,,,,,,,,,,,sora,images/br_sora.png,images/cb_sora.png,,sora,,,,,,,,,,,-0.276851866,0.006481489,1,0,0,sora,0,8,8,22,1
,,,,,,00088,2023-10-24_12h57.55.115,vbt_B1_day2,2022.2.4,Win32,59.94125757,,,,,,,,,,,,,,,,,,,,,,,,,,,,,,,,,,,,,,,,,,opdatten,images/br_opdatten.png,images/cb_opdatten.png,,opdra,,,,,,,,,,,-0.257407365,0.01666666,1,0,0,opdra,0,9,9,37,1
,,,,,,00088,2023-10-24_12h57.55.115,vbt_B1_day2,2022.2.4,Win32,59.94125757,,,,,,,,,,,,,,,,,,,,,,,,,,,,,,,,,,,,,,,,,,blad,images/br_blad.png,images/cb_blad.png,,blad,,,,,,,,,,,-0.266666624,-0.015740748,1,0,0,blad,0,10,10,1,1
,,,,,,00088,2023-10-24_12h57.55.115,vbt_B1_day2,2022.2.4,Win32,59.94125757,,,,,,,,,,,,,,,,,,,,,,,,,,,,,,,,,,,,,,,,,,jong,images/br_jong.png,images/cb_jong.png,,jong,,,,,,,,,,,-0.266666624,-0.015740748,1,0,0,jong,0,11,11,43,1
,,,,,,00088,2023-10-24_12h57.55.115,vbt_B1_day2,2022.2.4,Win32,59.94125757,,,,,,,,,,,,,,,,,,,,,,,,,,,,,,,,,,,,,,,,,,ningen,images/br_ningen.png,images/cb_ningen.png,,ning,,,,,,,,,,,-0.246296282,-0.011111118,1,0,0,ning,0,12,12,28,1
,,,,,,00088,2023-10-24_12h57.55.115,vbt_B1_day2,2022.2.4,Win32,59.94125757,,,,,,,,,,,,,,,,,,,,,,,,,,,,,,,,,,,,,,,,,,remel,images/br_remel.png,images/cb_remel.png,,re el,,,,,,,,,,,-0.247222194,-0.012962977,1,0,0,re el,0,13,13,25,1
,,,,,,00088,2023-10-24_12h57.55.115,vbt_B1_day2,2022.2.4,Win32,59.94125757,,,,,,,,,,,,,,,,,,,,,,,,,,,,,,,,,,,,,,,,,,koorts,images/br_koorts.png,images/cb_koorts.png,,koorts,,,,,,,,,,,-0.251851824,-0.029629637,1,0,0,koorts,0,14,14,50,1
,,,,,,00088,2023-10-24_12h57.55.115,vbt_B1_day2,2022.2.4,Win32,59.94125757,,,,,,,,,,,,,,,,,,,,,,,,,,,,,,,,,,,,,,,,,,manieren,images/br_manieren.png,images/cb_manieren.png,,uan    ,,,,,,,,,,,-0.313888868,-0.095370399,1,0,0,uan    ,0,15,15,56,1
,,,,,,00088,2023-10-24_12h57.55.115,vbt_B1_day2,2022.2.4,Win32,59.94125757,,,,,,,,,,,,,,,,,,,,,,,,,,,,,,,,,,,,,,,,,,ophuimen,images/br_ophuimen.png,images/cb_ophuimen.png,,oph,,,,,,,,,,,-0.307407414,-0.097222222,1,0,0,oph,0,16,16,36,1
,,,,,,00088,2023-10-24_12h57.55.115,vbt_B1_day2,2022.2.4,Win32,59.94125757,,,,,,,,,,,,,,,,,,,,,,,,,,,,,,,,,,,,,,,,,,lurgen,images/br_lurgen.png,images/cb_lurgen.png,,l k,,,,,,,,,,,-0.303703697,-0.10092594,1,0,0,l k,0,17,17,29,1
,,,,,,00088,2023-10-24_12h57.55.115,vbt_B1_day2,2022.2.4,Win32,59.94125757,,,,,,,,,,,,,,,,,,,,,,,,,,,,,,,,,,,,,,,,,,geld,images/br_geld.png,images/cb_geld.png,,geld,,,,,,,,,,,-0.303703697,-0.10092594,1,0,0,geld,0,18,18,3,1
,,,,,,00088,2023-10-24_12h57.55.115,vbt_B1_day2,2022.2.4,Win32,59.94125757,,,,,,,,,,,,,,,,,,,,,,,,,,,,,,,,,,,,,,,,,,heilig,images/br_heilig.png,images/cb_heilig.png,,heilig,,,,,,,,,,,-0.303703697,-0.10092594,1,0,0,heilig,0,19,19,9,1
,,,,,,00088,2023-10-24_12h57.55.115,vbt_B1_day2,2022.2.4,Win32,59.94125757,,,,,,,,,,,,,,,,,,,,,,,,,,,,,,,,,,,,,,,,,,zegel,images/br_zegel.png,images/cb_zegel.png,,negel,,,,,,,,,,,-0.319444444,-0.130555541,1,0,0,negel,0,20,20,46,1
,,,,,,00088,2023-10-24_12h57.55.115,vbt_B1_day2,2022.2.4,Win32,59.94125757,,,,,,,,,,,,,,,,,,,,,,,,,,,,,,,,,,,,,,,,,,kijlen,images/br_kijlen.png,images/cb_kijlen.png,,kijlen,,,,,,,,,,,-0.319444444,-0.130555541,1,0,0,kijlen,0,21,21,31,1
,,,,,,00088,2023-10-24_12h57.55.115,vbt_B1_day2,2022.2.4,Win32,59.94125757,,,,,,,,,,,,,,,,,,,,,,,,,,,,,,,,,,,,,,,,,,feestdag,images/br_feestdag.png,images/cb_feestdag.png,,feest   ,,,,,,,,,,,-0.319444444,-0.130555541,1,0,0,feest   ,0,22,22,17,1
,,,,,,00088,2023-10-24_12h57.55.115,vbt_B1_day2,2022.2.4,Win32,59.94125757,,,,,,,,,,,,,,,,,,,,,,,,,,,,,,,,,,,,,,,,,,strikken,images/br_strikken.png,images/cb_strikken.png,,stre,,,,,,,,,,,-0.319444444,-0.130555541,1,0,0,stre,0,23,23,18,1
,,,,,,00088,2023-10-24_12h57.55.115,vbt_B1_day2,2022.2.4,Win32,59.94125757,,,,,,,,,,,,,,,,,,,,,,,,,,,,,,,,,,,,,,,,,,flits,images/br_flits.png,images/cb_flits.png,,flet,,,,,,,,,,,-0.319444444,-0.130555541,1,0,0,flet,0,24,24,4,1
,,,,,,00088,2023-10-24_12h57.55.115,vbt_B1_day2,2022.2.4,Win32,59.94125757,,,,,,,,,,,,,,,,,,,,,,,,,,,,,,,,,,,,,,,,,,toeval,images/br_toeval.png,images/cb_toeval.png,,toev,,,,,,,,,,,-0.319444444,-0.130555541,1,0,0,toev,0,25,25,11,1
,,,,,,00088,2023-10-24_12h57.55.115,vbt_B1_day2,2022.2.4,Win32,59.94125757,,,,,,,,,,,,,,,,,,,,,,,,,,,,,,,,,,,,,,,,,,anarchie,images/br_anarchie.png,images/cb_anarchie.png,,anarchie,,,,,,,,,,,-0.319444444,-0.130555541,1,0,0,anarchie,0,26,26,16,1
,,,,,,00088,2023-10-24_12h57.55.115,vbt_B1_day2,2022.2.4,Win32,59.94125757,,,,,,,,,,,,,,,,,,,,,,,,,,,,,,,,,,,,,,,,,,trots,images/br_trots.png,images/cb_trots.png,,tr,,,,,,,,,,,-0.319444444,-0.130555541,1,0,0,tr,0,27,27,44,1
,,,,,,00088,2023-10-24_12h57.55.115,vbt_B1_day2,2022.2.4,Win32,59.94125757,,,,,,,,,,,,,,,,,,,,,,,,,,,,,,,,,,,,,,,,,,welzijn,images/br_welzijn.png,images/cb_welzijn.png,,weln,,,,,,,,,,,-0.319444444,-0.130555541,1,0,0,weln,0,28,28,52,1
,,,,,,00088,2023-10-24_12h57.55.115,vbt_B1_day2,2022.2.4,Win32,59.94125757,,,,,,,,,,,,,,,,,,,,,,,,,,,,,,,,,,,,,,,,,,eenhoorn,images/br_eenhoorn.png,images/cb_eenhoorn.png,,eenhoorn,,,,,,,,,,,-0.319444444,-0.130555541,1,0,0,eenhoorn,0,29,29,19,1
,,,,,,00088,2023-10-24_12h57.55.115,vbt_B1_day2,2022.2.4,Win32,59.94125757,,,,,,,,,,,,,,,,,,,,,,,,,,,,,,,,,,,,,,,,,,zomers,images/br_zomers.png,images/cb_zomers.png,,no ,,,,,,,,,,,-0.319444444,-0.130555541,1,0,0,no ,0,30,30,48,1
,,,,,,00088,2023-10-24_12h57.55.115,vbt_B1_day2,2022.2.4,Win32,59.94125757,,,,,,,,,,,,,,,,,,,,,,,,,,,,,,,,,,,,,,,,,,heengeen,images/br_heengeen.png,images/cb_heengeen.png,,heeng   ,,,,,,,,,,,-0.319444444,-0.130555541,1,0,0,heeng   ,0,31,31,38,1
,,,,,,00088,2023-10-24_12h57.55.115,vbt_B1_day2,2022.2.4,Win32,59.94125757,,,,,,,,,,,,,,,,,,,,,,,,,,,,,,,,,,,,,,,,,,doodmoe,images/br_doodmoe.png,images/cb_doodmoe.png,,doodmoe,,,,,,,,,,,-0.319444444,-0.130555541,1,0,0,doodmoe,0,32,32,15,1
,,,,,,00088,2023-10-24_12h57.55.115,vbt_B1_day2,2022.2.4,Win32,59.94125757,,,,,,,,,,,,,,,,,,,,,,,,,,,,,,,,,,,,,,,,,,krimmen,images/br_krimmen.png,images/cb_krimmen.png,,kre,,,,,,,,,,,-0.319444444,-0.130555541,1,0,0,kre,0,33,33,35,1
,,,,,,00088,2023-10-24_12h57.55.115,vbt_B1_day2,2022.2.4,Win32,59.94125757,,,,,,,,,,,,,,,,,,,,,,,,,,,,,,,,,,,,,,,,,,moes,images/br_moes.png,images/cb_moes.png,, oi,,,,,,,,,,,-0.336111104,-0.141666695,1,0,0, oi,0,34,34,0,1
,,,,,,00088,2023-10-24_12h57.55.115,vbt_B1_day2,2022.2.4,Win32,59.94125757,,,,,,,,,,,,,,,,,,,,,,,,,,,,,,,,,,,,,,,,,,lijnen,images/br_lijnen.png,images/cb_lijnen.png,,lij,,,,,,,,,,,-0.336111104,-0.141666695,1,0,0,lij,0,35,35,51,1
,,,,,,00088,2023-10-24_12h57.55.115,vbt_B1_day2,2022.2.4,Win32,59.94125757,,,,,,,,,,,,,,,,,,,,,,,,,,,,,,,,,,,,,,,,,,breuk,images/br_breuk.png,images/cb_breuk.png,,bre,,,,,,,,,,,-0.336111104,-0.141666695,1,0,0,bre,0,36,36,45,1
,,,,,,00088,2023-10-24_12h57.55.115,vbt_B1_day2,2022.2.4,Win32,59.94125757,,,,,,,,,,,,,,,,,,,,,,,,,,,,,,,,,,,,,,,,,,joes,images/br_joes.png,images/cb_joes.png,,joe,,,,,,,,,,,-0.336111104,-0.141666695,1,0,0,joe,0,37,37,20,1
,,,,,,00088,2023-10-24_12h57.55.115,vbt_B1_day2,2022.2.4,Win32,59.94125757,,,,,,,,,,,,,,,,,,,,,,,,,,,,,,,,,,,,,,,,,,jagen,images/br_jagen.png,images/cb_jagen.png,,ha,,,,,,,,,,,-0.336111104,-0.141666695,1,0,0,ha,0,38,38,6,1
,,,,,,00088,2023-10-24_12h57.55.115,vbt_B1_day2,2022.2.4,Win32,59.94125757,,,,,,,,,,,,,,,,,,,,,,,,,,,,,,,,,,,,,,,,,,bereuwen,images/br_bereuwen.png,images/cb_bereuwen.png,,bere,,,,,,,,,,,-0.336111104,-0.141666695,1,0,0,bere,0,39,39,39,1
,,,,,,00088,2023-10-24_12h57.55.115,vbt_B1_day2,2022.2.4,Win32,59.94125757,,,,,,,,,,,,,,,,,,,,,,,,,,,,,,,,,,,,,,,,,,thema,images/br_thema.png,images/cb_thema.png,,ta,,,,,,,,,,,-0.336111104,-0.141666695,1,0,0,ta,0,40,40,47,1
,,,,,,00088,2023-10-24_12h57.55.115,vbt_B1_day2,2022.2.4,Win32,59.94125757,,,,,,,,,,,,,,,,,,,,,,,,,,,,,,,,,,,,,,,,,,negel,images/br_negel.png,images/cb_negel.png,,negen,,,,,,,,,,,-0.336111104,-0.141666695,1,0,0,negen,0,41,41,24,1
,,,,,,00088,2023-10-24_12h57.55.115,vbt_B1_day2,2022.2.4,Win32,59.94125757,,,,,,,,,,,,,,,,,,,,,,,,,,,,,,,,,,,,,,,,,,aanzien,images/br_aanzien.png,images/cb_aanzien.png,,aazn,,,,,,,,,,,-0.336111104,-0.141666695,1,0,0,aazn,0,42,42,13,1
,,,,,,00088,2023-10-24_12h57.55.115,vbt_B1_day2,2022.2.4,Win32,59.94125757,,,,,,,,,,,,,,,,,,,,,,,,,,,,,,,,,,,,,,,,,,tweeling,images/br_tweeling.png,images/cb_tweeling.png,,t,,,,,,,,,,,-0.336111104,-0.141666695,1,0,0,t,0,43,43,58,1
,,,,,,00088,2023-10-24_12h57.55.115,vbt_B1_day2,2022.2.4,Win32,59.94125757,,,,,,,,,,,,,,,,,,,,,,,,,,,,,,,,,,,,,,,,,,sjijfel,images/br_sjijfel.png,images/cb_sjijfel.png,,sj,,,,,,,,,,,-0.336111104,-0.141666695,1,0,0,sj,0,44,44,33,1
,,,,,,00088,2023-10-24_12h57.55.115,vbt_B1_day2,2022.2.4,Win32,59.94125757,,,,,,,,,,,,,,,,,,,,,,,,,,,,,,,,,,,,,,,,,,sifferd,images/br_sifferd.png,images/cb_sifferd.png,,seffi,,,,,,,,,,,-0.336111104,-0.141666695,1,0,0,seffi,0,45,45,32,1
,,,,,,00088,2023-10-24_12h57.55.115,vbt_B1_day2,2022.2.4,Win32,59.94125757,,,,,,,,,,,,,,,,,,,,,,,,,,,,,,,,,,,,,,,,,,aanvraag,images/br_aanvraag.png,images/cb_aanvraag.png,,aanvar,,,,,,,,,,,-0.336111104,-0.141666695,1,0,0,aanvar,0,46,46,57,1
,,,,,,00088,2023-10-24_12h57.55.115,vbt_B1_day2,2022.2.4,Win32,59.94125757,,,,,,,,,,,,,,,,,,,,,,,,,,,,,,,,,,,,,,,,,,tand,images/br_tand.png,images/cb_tand.png,,tand,,,,,,,,,,,-0.336111104,-0.141666695,1,0,0,tand,0,47,47,42,1
,,,,,,00088,2023-10-24_12h57.55.115,vbt_B1_day2,2022.2.4,Win32,59.94125757,,,,,,,,,,,,,,,,,,,,,,,,,,,,,,,,,,,,,,,,,,diep,images/br_diep.png,images/cb_diep.png,,diep,,,,,,,,,,,-0.336111104,-0.141666695,1,0,0,diep,0,48,48,2,1
,,,,,,00088,2023-10-24_12h57.55.115,vbt_B1_day2,2022.2.4,Win32,59.94125757,,,,,,,,,,,,,,,,,,,,,,,,,,,,,,,,,,,,,,,,,,badon,images/br_badon.png,images/cb_badon.png,,badon,,,,,,,,,,,-0.336111104,-0.141666695,1,0,0,badon,0,49,49,26,1
,,,,,,00088,2023-10-24_12h57.55.115,vbt_B1_day2,2022.2.4,Win32,59.94125757,,,,,,,,,,,,,,,,,,,,,,,,,,,,,,,,,,,,,,,,,,kabel,images/br_kabel.png,images/cb_kabel.png,,kabil,,,,,,,,,,,-0.335185192,-0.159259302,1,0,0,kabil,0,50,50,7,1
,,,,,,00088,2023-10-24_12h57.55.115,vbt_B1_day2,2022.2.4,Win32,59.94125757,,,,,,,,,,,,,,,,,,,,,,,,,,,,,,,,,,,,,,,,,,stes,images/br_stes.png,images/cb_stes.png,,stil,,,,,,,,,,,-0.335185192,-0.159259302,1,0,0,stil,0,51,51,21,1
,,,,,,00088,2023-10-24_12h57.55.115,vbt_B1_day2,2022.2.4,Win32,59.94125757,,,,,,,,,,,,,,,,,,,,,,,,,,,,,,,,,,,,,,,,,,kasteel,images/br_kasteel.png,images/cb_kasteel.png,,kasteel,,,,,,,,,,,-0.335185192,-0.198148162,1,0,0,kasteel,0,52,52,14,1
,,,,,,00088,2023-10-24_12h57.55.115,vbt_B1_day2,2022.2.4,Win32,59.94125757,,,,,,,,,,,,,,,,,,,,,,,,,,,,,,,,,,,,,,,,,,bloeien,images/br_bloeien.png,images/cb_bloeien.png,,bloeien,,,,,,,,,,,-0.335185192,-0.198148162,1,0,0,bloeien,0,53,53,12,1
,,,,,,00088,2023-10-24_12h57.55.115,vbt_B1_day2,2022.2.4,Win32,59.94125757,,,,,,,,,,,,,,,,,,,,,,,,,,,,,,,,,,,,,,,,,,wijve,images/br_wijve.png,images/cb_wijve.png,,wij,,,,,,,,,,,-0.335185192,-0.198148162,1,0,0,wij,0,54,54,27,1
,,,,,,00088,2023-10-24_12h57.55.115,vbt_B1_day2,2022.2.4,Win32,59.94125757,,,,,,,,,,,,,,,,,,,,,,,,,,,,,,,,,,,,,,,,,,inzicht,images/br_inzicht.png,images/cb_inzicht.png,,izn,,,,,,,,,,,-0.335185192,-0.198148162,1,0,0,izn,0,55,55,53,1
,,,,,,00088,2023-10-24_12h57.55.115,vbt_B1_day2,2022.2.4,Win32,59.94125757,,,,,,,,,,,,,,,,,,,,,,,,,,,,,,,,,,,,,,,,,,plannen,images/br_plannen.png,images/cb_plannen.png,,pla,,,,,,,,,,,-0.383333312,-0.207407422,1,0,0,pla,0,56,56,55,1
,,,,,,00088,2023-10-24_12h57.55.115,vbt_B1_day2,2022.2.4,Win32,59.94125757,,,,,,,,,,,,,,,,,,,,,,,,,,,,,,,,,,,,,,,,,,zwager,images/br_zwager.png,images/cb_zwager.png,,zwart,,,,,,,,,,,-0.404629637,-0.23055557,1,0,0,zwart,0,57,57,49,1
,,,,,,00088,2023-10-24_12h57.55.115,vbt_B1_day2,2022.2.4,Win32,59.94125757,,,,,,,,,,,,,,,,,,,,,,,,,,,,,,,,,,,,,,,,,,piste,images/br_piste.png,images/cb_piste.png,,piste,,,,,,,,,,,-0.38703703,-0.238888917,1,0,0,piste,0,58,58,5,1
,,,,,,00088,2023-10-24_12h57.55.115,vbt_B1_day2,2022.2.4,Win32,59.94125757,,,,,,,,,,,,,,,,,,,,,,,,,,,,,,,,,,,,,,,,,,systeem,images/br_systeem.png,images/cb_systeem.png,,sy,,,,,,,,,,,-0.38703703,-0.238888917,1,0,0,sy,0,59,59,54,1
,,,,,,00088,2023-10-24_12h57.55.115,vbt_B1_day2,2022.2.4,Win32,59.94125757,,,,,,,,,,,,,,,,,,,,,,,,,,,,,,,,,,,,,,,,,,,,,,,,,,,,,,,,,,,,,,,,,,,
