welcome_mouse.x,welcome_mouse.y,welcome_mouse.leftButton,welcome_mouse.midButton,welcome_mouse.rightButton,welcome_mouse.time,"ID",date,expName,psychopyVersion,OS,frameRate,refresh_mouse.x,refresh_mouse.y,refresh_mouse.leftButton,refresh_mouse.midButton,refresh_mouse.rightButton,refresh_mouse.time,braille_mouse.x,braille_mouse.y,braille_mouse.leftButton,braille_mouse.midButton,braille_mouse.rightButton,braille_mouse.time,trials.thisRepN,trials.thisTrialN,trials.thisN,trials.thisIndex,trials.ran,nlLet,brLet,cbLet,trainInstr_mouse.x,trainInstr_mouse.y,trainInstr_mouse.leftButton,trainInstr_mouse.midButton,trainInstr_mouse.rightButton,trainInstr_mouse.time,translation_key.keys,translation_key.corr,translation_key.rt,word_rsp.text,word_mouse.x,word_mouse.y,word_mouse.leftButton,word_mouse.midButton,word_mouse.rightButton,word_mouse.time,train_loop.thisRepN,train_loop.thisTrialN,train_loop.thisN,train_loop.thisIndex,train_loop.ran,nlWrd,brWrd,cbWrd,test,testResp,mouse.x,mouse.y,mouse.leftButton,mouse.midButton,mouse.rightButton,testInstr_mouse.x,testInstr_mouse.y,testInstr_mouse.leftButton,testInstr_mouse.midButton,testInstr_mouse.rightButton,test_mouse.x,test_mouse.y,test_mouse.leftButton,test_mouse.midButton,test_mouse.rightButton,test_response.text,test_loop.thisRepN,test_loop.thisTrialN,test_loop.thisN,test_loop.thisIndex,test_loop.ran
-0.126851852,-0.225925926,1,0,0,4.356,00079,2023-10-29_16h44.43.635,vbt_B1_day2,2022.2.4,Win32,60.07449237,,,,,,,,,,,,,,,,,,,,,,,,,,,,,,,,,,,,,,,,,,,,,,,,,,,,,,,,,,,,,,,,,,,
,,,,,,00079,2023-10-29_16h44.43.635,vbt_B1_day2,2022.2.4,Win32,60.07449237,-0.126851852,-0.225925926,1,0,0,7.07,,,,,,,,,,,,,,,,,,,,,,,,,,,,,,,,,,,,,,,,,,,,,,,,,,,,,,,,,,,,,
,,,,,,00079,2023-10-29_16h44.43.635,vbt_B1_day2,2022.2.4,Win32,60.07449237,,,,,,,-0.126851852,-0.225925926,1,0,0,1.1332,0,0,0,20,1,u,images/br_u.png,images/cb_u.png,,,,,,,,,,,,,,,,,,,,,,,,,,,,,,,,,,,,,,,,,,,,,,,
,,,,,,00079,2023-10-29_16h44.43.635,vbt_B1_day2,2022.2.4,Win32,60.07449237,,,,,,,-0.126851852,-0.225925926,1,0,0,0.0334,0,1,1,0,1,a,images/br_a.png,images/cb_a.png,,,,,,,,,,,,,,,,,,,,,,,,,,,,,,,,,,,,,,,,,,,,,,,
,,,,,,00079,2023-10-29_16h44.43.635,vbt_B1_day2,2022.2.4,Win32,60.07449237,,,,,,,-0.126851852,-0.225925926,1,0,0,0.3596,0,2,2,9,1,j,images/br_j.png,images/cb_j.png,,,,,,,,,,,,,,,,,,,,,,,,,,,,,,,,,,,,,,,,,,,,,,,
,,,,,,00079,2023-10-29_16h44.43.635,vbt_B1_day2,2022.2.4,Win32,60.07449237,,,,,,,-0.126851852,-0.225925926,1,0,0,0.7333,0,3,3,17,1,r,images/br_r.png,images/cb_r.png,,,,,,,,,,,,,,,,,,,,,,,,,,,,,,,,,,,,,,,,,,,,,,,
,,,,,,00079,2023-10-29_16h44.43.635,vbt_B1_day2,2022.2.4,Win32,60.07449237,,,,,,,-0.126851852,-0.225925926,1,0,0,1.8158,0,4,4,21,1,v,images/br_v.png,images/cb_v.png,,,,,,,,,,,,,,,,,,,,,,,,,,,,,,,,,,,,,,,,,,,,,,,
,,,,,,00079,2023-10-29_16h44.43.635,vbt_B1_day2,2022.2.4,Win32,60.07449237,,,,,,,-0.126851852,-0.225925926,1,0,0,3.9059,0,5,5,3,1,d,images/br_d.png,images/cb_d.png,,,,,,,,,,,,,,,,,,,,,,,,,,,,,,,,,,,,,,,,,,,,,,,
,,,,,,00079,2023-10-29_16h44.43.635,vbt_B1_day2,2022.2.4,Win32,60.07449237,,,,,,,-0.126851852,-0.225925926,1,0,0,0.1002,0,6,6,7,1,h,images/br_h.png,images/cb_h.png,,,,,,,,,,,,,,,,,,,,,,,,,,,,,,,,,,,,,,,,,,,,,,,
,,,,,,00079,2023-10-29_16h44.43.635,vbt_B1_day2,2022.2.4,Win32,60.07449237,,,,,,,-0.126851852,-0.225925926,1,0,0,0.333599999,0,7,7,13,1,n,images/br_n.png,images/cb_n.png,,,,,,,,,,,,,,,,,,,,,,,,,,,,,,,,,,,,,,,,,,,,,,,
,,,,,,00079,2023-10-29_16h44.43.635,vbt_B1_day2,2022.2.4,Win32,60.07449237,,,,,,,-0.126851852,-0.225925926,1,0,0,0.7999,0,8,8,25,1,z,images/br_z.png,images/cb_z.png,,,,,,,,,,,,,,,,,,,,,,,,,,,,,,,,,,,,,,,,,,,,,,,
,,,,,,00079,2023-10-29_16h44.43.635,vbt_B1_day2,2022.2.4,Win32,60.07449237,,,,,,,-0.126851852,-0.225925926,1,0,0,0.249900001,0,9,9,2,1,c,images/br_c.png,images/cb_c.png,,,,,,,,,,,,,,,,,,,,,,,,,,,,,,,,,,,,,,,,,,,,,,,
,,,,,,00079,2023-10-29_16h44.43.635,vbt_B1_day2,2022.2.4,Win32,60.07449237,,,,,,,-0.126851852,-0.225925926,1,0,0,0.033599999,0,10,10,14,1,o,images/br_o.png,images/cb_o.png,,,,,,,,,,,,,,,,,,,,,,,,,,,,,,,,,,,,,,,,,,,,,,,
,,,,,,00079,2023-10-29_16h44.43.635,vbt_B1_day2,2022.2.4,Win32,60.07449237,,,,,,,-0.126851852,-0.225925926,1,0,0,0.4832,0,11,11,1,1,b,images/br_b.png,images/cb_b.png,,,,,,,,,,,,,,,,,,,,,,,,,,,,,,,,,,,,,,,,,,,,,,,
,,,,,,00079,2023-10-29_16h44.43.635,vbt_B1_day2,2022.2.4,Win32,60.07449237,,,,,,,-0.126851852,-0.225925926,1,0,0,0.0501,0,12,12,19,1,t,images/br_t.png,images/cb_t.png,,,,,,,,,,,,,,,,,,,,,,,,,,,,,,,,,,,,,,,,,,,,,,,
,,,,,,00079,2023-10-29_16h44.43.635,vbt_B1_day2,2022.2.4,Win32,60.07449237,,,,,,,-0.126851852,-0.225925926,1,0,0,0.7332,0,13,13,15,1,p,images/br_p.png,images/cb_p.png,,,,,,,,,,,,,,,,,,,,,,,,,,,,,,,,,,,,,,,,,,,,,,,
,,,,,,00079,2023-10-29_16h44.43.635,vbt_B1_day2,2022.2.4,Win32,60.07449237,,,,,,,-0.126851852,-0.225925926,1,0,0,0.949700001,0,14,14,16,1,q,images/br_q.png,images/cb_q.png,,,,,,,,,,,,,,,,,,,,,,,,,,,,,,,,,,,,,,,,,,,,,,,
,,,,,,00079,2023-10-29_16h44.43.635,vbt_B1_day2,2022.2.4,Win32,60.07449237,,,,,,,-0.126851852,-0.225925926,1,0,0,0.2999,0,15,15,24,1,y,images/br_y.png,images/cb_y.png,,,,,,,,,,,,,,,,,,,,,,,,,,,,,,,,,,,,,,,,,,,,,,,
,,,,,,00079,2023-10-29_16h44.43.635,vbt_B1_day2,2022.2.4,Win32,60.07449237,,,,,,,-0.126851852,-0.225925926,1,0,0,3.598599999,0,16,16,4,1,e,images/br_e.png,images/cb_e.png,,,,,,,,,,,,,,,,,,,,,,,,,,,,,,,,,,,,,,,,,,,,,,,
,,,,,,00079,2023-10-29_16h44.43.635,vbt_B1_day2,2022.2.4,Win32,60.07449237,,,,,,,-0.126851852,-0.225925926,1,0,0,0.483,0,17,17,12,1,m,images/br_m.png,images/cb_m.png,,,,,,,,,,,,,,,,,,,,,,,,,,,,,,,,,,,,,,,,,,,,,,,
,,,,,,00079,2023-10-29_16h44.43.635,vbt_B1_day2,2022.2.4,Win32,60.07449237,,,,,,,-0.126851852,-0.225925926,1,0,0,0.0832,0,18,18,23,1,x,images/br_x.png,images/cb_x.png,,,,,,,,,,,,,,,,,,,,,,,,,,,,,,,,,,,,,,,,,,,,,,,
,,,,,,00079,2023-10-29_16h44.43.635,vbt_B1_day2,2022.2.4,Win32,60.07449237,,,,,,,-0.126851852,-0.225925926,1,0,0,0.1833,0,19,19,11,1,l,images/br_l.png,images/cb_l.png,,,,,,,,,,,,,,,,,,,,,,,,,,,,,,,,,,,,,,,,,,,,,,,
,,,,,,00079,2023-10-29_16h44.43.635,vbt_B1_day2,2022.2.4,Win32,60.07449237,,,,,,,-0.126851852,-0.225925926,1,0,0,0.1,0,20,20,6,1,g,images/br_g.png,images/cb_g.png,,,,,,,,,,,,,,,,,,,,,,,,,,,,,,,,,,,,,,,,,,,,,,,
,,,,,,00079,2023-10-29_16h44.43.635,vbt_B1_day2,2022.2.4,Win32,60.07449237,,,,,,,-0.126851852,-0.225925926,1,0,0,0.216700001,0,21,21,8,1,i,images/br_i.png,images/cb_i.png,,,,,,,,,,,,,,,,,,,,,,,,,,,,,,,,,,,,,,,,,,,,,,,
,,,,,,00079,2023-10-29_16h44.43.635,vbt_B1_day2,2022.2.4,Win32,60.07449237,,,,,,,-0.126851852,-0.225925926,1,0,0,2.9494,0,22,22,22,1,w,images/br_w.png,images/cb_w.png,,,,,,,,,,,,,,,,,,,,,,,,,,,,,,,,,,,,,,,,,,,,,,,
,,,,,,00079,2023-10-29_16h44.43.635,vbt_B1_day2,2022.2.4,Win32,60.07449237,,,,,,,-0.126851852,-0.225925926,1,0,0,4.7984,0,23,23,5,1,f,images/br_f.png,images/cb_f.png,,,,,,,,,,,,,,,,,,,,,,,,,,,,,,,,,,,,,,,,,,,,,,,
,,,,,,00079,2023-10-29_16h44.43.635,vbt_B1_day2,2022.2.4,Win32,60.07449237,,,,,,,-0.126851852,-0.225925926,1,0,0,0.5166,0,24,24,10,1,k,images/br_k.png,images/cb_k.png,,,,,,,,,,,,,,,,,,,,,,,,,,,,,,,,,,,,,,,,,,,,,,,
,,,,,,00079,2023-10-29_16h44.43.635,vbt_B1_day2,2022.2.4,Win32,60.07449237,,,,,,,-0.126851852,-0.225925926,1,0,0,0.0668,0,25,25,18,1,s,images/br_s.png,images/cb_s.png,,,,,,,,,,,,,,,,,,,,,,,,,,,,,,,,,,,,,,,,,,,,,,,
,,,,,,00079,2023-10-29_16h44.43.635,vbt_B1_day2,2022.2.4,Win32,60.07449237,,,,,,,,,,,,,,,,,,,,,-0.126851852,-0.225925926,1,0,0,38.2258,,,,,,,,,,,,,,,,,,,,,,,,,,,,,,,,,,,,,,,,,
,,,,,,00079,2023-10-29_16h44.43.635,vbt_B1_day2,2022.2.4,Win32,60.07449237,,,,,,,,,,,,,,,,,,,,,,,,,,,down,0,17.7908,,-0.126851852,-0.225925926,1,0,0,1.6785,0,0,0,124,1,bloeien,images/br_bloeien.png,images/cb_bloeien.png,0,,,,,,,,,,,,,,,,,,,,,,
,,,,,,00079,2023-10-29_16h44.43.635,vbt_B1_day2,2022.2.4,Win32,60.07449237,,,,,,,,,,,,,,,,,,,,,,,,,,,down,0,9.9135,,-0.126851852,-0.225925926,1,0,0,1.5998,0,1,1,132,1,grappen,images/br_grappen.png,images/cb_grappen.png,0,,,,,,,,,,,,,,,,,,,,,,
,,,,,,00079,2023-10-29_16h44.43.635,vbt_B1_day2,2022.2.4,Win32,60.07449237,,,,,,,,,,,,,,,,,,,,,,,,,,,down,0,4.4747,,-0.126851852,-0.225925926,1,0,0,1.8993,0,2,2,36,1,vuur,images/br_vuur.png,images/cb_vuur.png,0,,,,,,,,,,,,,,,,,,,,,,
,,,,,,00079,2023-10-29_16h44.43.635,vbt_B1_day2,2022.2.4,Win32,60.07449237,,,,,,,,,,,,,,,,,,,,,,,,,,,down,0,15.4352,,-0.126851852,-0.225925926,1,0,0,1.4328,0,3,3,183,1,getuigen,images/br_getuigen.png,images/cb_getuigen.png,0,,,,,,,,,,,,,,,,,,,,,,
,,,,,,00079,2023-10-29_16h44.43.635,vbt_B1_day2,2022.2.4,Win32,60.07449237,,,,,,,,,,,,,,,,,,,,,,,,,,,down,0,0.9341,,-0.126851852,-0.225925926,1,0,0,0.7164,0,4,4,39,1,laag,images/br_laag.png,images/cb_laag.png,0,,,,,,,,,,,,,,,,,,,,,,
,,,,,,00079,2023-10-29_16h44.43.635,vbt_B1_day2,2022.2.4,Win32,60.07449237,,,,,,,,,,,,,,,,,,,,,,,,,,,down,0,7.3392,,-0.126851852,-0.225925926,1,0,0,3.6984,0,5,5,170,1,schatten,images/br_schatten.png,images/cb_schatten.png,0,,,,,,,,,,,,,,,,,,,,,,
,,,,,,00079,2023-10-29_16h44.43.635,vbt_B1_day2,2022.2.4,Win32,60.07449237,,,,,,,,,,,,,,,,,,,,,,,,,,,down,0,11.8636,,-0.126851852,-0.225925926,1,0,0,2.5159,0,6,6,188,1,strekken,images/br_strekken.png,images/cb_strekken.png,0,,,,,,,,,,,,,,,,,,,,,,
,,,,,,00079,2023-10-29_16h44.43.635,vbt_B1_day2,2022.2.4,Win32,60.07449237,,,,,,,,,,,,,,,,,,,,,,,,,,,down,0,21.7489,,-0.126851852,-0.225925926,1,0,0,1.882599999,0,7,7,77,1,woede,images/br_woede.png,images/cb_woede.png,0,,,,,,,,,,,,,,,,,,,,,,
,,,,,,00079,2023-10-29_16h44.43.635,vbt_B1_day2,2022.2.4,Win32,60.07449237,,,,,,,,,,,,,,,,,,,,,,,,,,,down,0,26.8817,,-0.126851852,-0.225925926,1,0,0,6.1813,0,8,8,141,1,knielen,images/br_knielen.png,images/cb_knielen.png,0,,,,,,,,,,,,,,,,,,,,,,
,,,,,,00079,2023-10-29_16h44.43.635,vbt_B1_day2,2022.2.4,Win32,60.07449237,,,,,,,,,,,,,,,,,,,,,,,,,,,down,0,25.1415,,-0.126851852,-0.225925926,1,0,0,2.615799999,0,9,9,145,1,invloed,images/br_invloed.png,images/cb_invloed.png,0,,,,,,,,,,,,,,,,,,,,,,
,,,,,,00079,2023-10-29_16h44.43.635,vbt_B1_day2,2022.2.4,Win32,60.07449237,,,,,,,,,,,,,,,,,,,,,,,,,,,down,0,7.1046,,-0.126851852,-0.225925926,1,0,0,0.7498,0,10,10,53,1,baron,images/br_baron.png,images/cb_baron.png,0,,,,,,,,,,,,,,,,,,,,,,
,,,,,,00079,2023-10-29_16h44.43.635,vbt_B1_day2,2022.2.4,Win32,60.07449237,,,,,,,,,,,,,,,,,,,,,,,,,,,down,0,10.2134,,0.22037037,-0.265740741,1,0,0,5.1148,0,11,11,26,1,leuk,images/br_leuk.png,images/cb_leuk.png,0,,,,,,,,,,,,,,,,,,,,,,
,,,,,,00079,2023-10-29_16h44.43.635,vbt_B1_day2,2022.2.4,Win32,60.07449237,,,,,,,,,,,,,,,,,,,,,,,,,,,down,0,16.1453,,0.22037037,-0.265740741,1,0,0,1.4328,0,12,12,107,1,maling,images/br_maling.png,images/cb_maling.png,0,,,,,,,,,,,,,,,,,,,,,,
,,,,,,00079,2023-10-29_16h44.43.635,vbt_B1_day2,2022.2.4,Win32,60.07449237,,,,,,,,,,,,,,,,,,,,,,,,,,,down,0,26.5085,,0.318518519,-0.203703704,1,0,0,1.865700001,0,13,13,177,1,maaltijd,images/br_maaltijd.png,images/cb_maaltijd.png,1,maaltijd,,,,,,,,,,,,,,,,,,,,,
,,,,,,00079,2023-10-29_16h44.43.635,vbt_B1_day2,2022.2.4,Win32,60.07449237,,,,,,,,,,,,,,,,,,,,,,,,,,,down,0,4.8416,,0.318518519,-0.203703704,1,0,0,0.633099999,0,14,14,97,1,loyaal,images/br_loyaal.png,images/cb_loyaal.png,1,loyaal,,,,,,,,,,,,,,,,,,,,,
,,,,,,00079,2023-10-29_16h44.43.635,vbt_B1_day2,2022.2.4,Win32,60.07449237,,,,,,,,,,,,,,,,,,,,,,,,,,,down,0,4.6517,,0.318518519,-0.203703704,1,0,0,0.5998,0,15,15,7,1,geld,images/br_geld.png,images/cb_geld.png,0,,,,,,,,,,,,,,,,,,,,,,
,,,,,,00079,2023-10-29_16h44.43.635,vbt_B1_day2,2022.2.4,Win32,60.07449237,,,,,,,,,,,,,,,,,,,,,,,,,,,down,0,22.0799,,0.318518519,-0.203703704,1,0,0,2.898700001,0,16,16,69,1,waken,images/br_waken.png,images/cb_waken.png,0,,,,,,,,,,,,,,,,,,,,,,
,,,,,,00079,2023-10-29_16h44.43.635,vbt_B1_day2,2022.2.4,Win32,60.07449237,,,,,,,,,,,,,,,,,,,,,,,,,,,down,0,18.1297,,0.318518519,-0.203703704,1,0,0,0.6328,0,17,17,92,1,geheim,images/br_geheim.png,images/cb_geheim.png,0,,,,,,,,,,,,,,,,,,,,,,
,,,,,,00079,2023-10-29_16h44.43.635,vbt_B1_day2,2022.2.4,Win32,60.07449237,,,,,,,,,,,,,,,,,,,,,,,,,,,down,0,12.6825,,0.318518519,-0.203703704,1,0,0,0.7831,0,18,18,161,1,attentie,images/br_attentie.png,images/cb_attentie.png,0,,,,,,,,,,,,,,,,,,,,,,
,,,,,,00079,2023-10-29_16h44.43.635,vbt_B1_day2,2022.2.4,Win32,60.07449237,,,,,,,,,,,,,,,,,,,,,,,,,,,down,0,7.2051,,0.318518519,-0.203703704,1,0,0,0.5497,0,19,19,115,1,kleren,images/br_kleren.png,images/cb_kleren.png,0,,,,,,,,,,,,,,,,,,,,,,
,,,,,,00079,2023-10-29_16h44.43.635,vbt_B1_day2,2022.2.4,Win32,60.07449237,,,,,,,,,,,,,,,,,,,,,,,,,,,down,0,8.8165,,0.318518519,-0.203703704,1,0,0,0.7997,0,20,20,74,1,graaf,images/br_graaf.png,images/cb_graaf.png,0,,,,,,,,,,,,,,,,,,,,,,
,,,,,,00079,2023-10-29_16h44.43.635,vbt_B1_day2,2022.2.4,Win32,60.07449237,,,,,,,,,,,,,,,,,,,,,,,,,,,down,0,13.7648,,0.318518519,-0.203703704,1,0,0,0.899599999,0,21,21,192,1,schaamte,images/br_schaamte.png,images/cb_schaamte.png,0,,,,,,,,,,,,,,,,,,,,,,
,,,,,,00079,2023-10-29_16h44.43.635,vbt_B1_day2,2022.2.4,Win32,60.07449237,,,,,,,,,,,,,,,,,,,,,,,,,,,down,0,13.0351,,0.318518519,-0.203703704,1,0,0,0.6164,0,22,22,9,1,hier,images/br_hier.png,images/cb_hier.png,0,,,,,,,,,,,,,,,,,,,,,,
,,,,,,00079,2023-10-29_16h44.43.635,vbt_B1_day2,2022.2.4,Win32,60.07449237,,,,,,,,,,,,,,,,,,,,,,,,,,,down,0,22.943,,0.318518519,-0.203703704,1,0,0,0.533,0,23,23,190,1,goedkoop,images/br_goedkoop.png,images/cb_goedkoop.png,0,,,,,,,,,,,,,,,,,,,,,,
,,,,,,00079,2023-10-29_16h44.43.635,vbt_B1_day2,2022.2.4,Win32,60.07449237,,,,,,,,,,,,,,,,,,,,,,,,,,,down,0,11.722,,0.318518519,-0.203703704,1,0,0,0.5333,0,24,24,171,1,aarzelen,images/br_aarzelen.png,images/cb_aarzelen.png,0,,,,,,,,,,,,,,,,,,,,,,
,,,,,,00079,2023-10-29_16h44.43.635,vbt_B1_day2,2022.2.4,Win32,60.07449237,,,,,,,,,,,,,,,,,,,,,,,,,,,down,0,6.8479,,0.318518519,-0.203703704,1,0,0,0.9163,0,25,25,45,1,piste,images/br_piste.png,images/cb_piste.png,0,,,,,,,,,,,,,,,,,,,,,,
,,,,,,00079,2023-10-29_16h44.43.635,vbt_B1_day2,2022.2.4,Win32,60.07449237,,,,,,,,,,,,,,,,,,,,,,,,,,,down,0,8.5162,,0.318518519,-0.203703704,1,0,0,0.516,0,26,26,187,1,opkijken,images/br_opkijken.png,images/cb_opkijken.png,0,,,,,,,,,,,,,,,,,,,,,,
,,,,,,00079,2023-10-29_16h44.43.635,vbt_B1_day2,2022.2.4,Win32,60.07449237,,,,,,,,,,,,,,,,,,,,,,,,,,,down,0,5.631900001,,0.318518519,-0.203703704,1,0,0,0.466099999,0,27,27,173,1,apparaat,images/br_apparaat.png,images/cb_apparaat.png,0,,,,,,,,,,,,,,,,,,,,,,
,,,,,,00079,2023-10-29_16h44.43.635,vbt_B1_day2,2022.2.4,Win32,60.07449237,,,,,,,,,,,,,,,,,,,,,,,,,,,down,0,5.8148,,0.318518519,-0.203703704,1,0,0,0.466099999,0,28,28,101,1,staren,images/br_staren.png,images/cb_staren.png,0,,,,,,,,,,,,,,,,,,,,,,
,,,,,,00079,2023-10-29_16h44.43.635,vbt_B1_day2,2022.2.4,Win32,60.07449237,,,,,,,,,,,,,,,,,,,,,,,,,,,down,0,11.882,,0.318518519,-0.203703704,1,0,0,0.6328,0,29,29,144,1,eetlust,images/br_eetlust.png,images/cb_eetlust.png,0,,,,,,,,,,,,,,,,,,,,,,
,,,,,,00079,2023-10-29_16h44.43.635,vbt_B1_day2,2022.2.4,Win32,60.07449237,,,,,,,,,,,,,,,,,,,,,,,,,,,down,0,18.6947,,0.318518519,-0.203703704,1,0,0,0.516099999,0,30,30,195,1,middelen,images/br_middelen.png,images/cb_middelen.png,0,,,,,,,,,,,,,,,,,,,,,,
,,,,,,00079,2023-10-29_16h44.43.635,vbt_B1_day2,2022.2.4,Win32,60.07449237,,,,,,,,,,,,,,,,,,,,,,,,,,,down,0,5.6152,,0.318518519,-0.203703704,1,0,0,0.4665,0,31,31,128,1,prikken,images/br_prikken.png,images/cb_prikken.png,0,,,,,,,,,,,,,,,,,,,,,,
,,,,,,00079,2023-10-29_16h44.43.635,vbt_B1_day2,2022.2.4,Win32,60.07449237,,,,,,,,,,,,,,,,,,,,,,,,,,,down,0,8.906200001,,0.318518519,-0.203703704,1,0,0,0.4666,0,32,32,23,1,zout,images/br_zout.png,images/cb_zout.png,0,,,,,,,,,,,,,,,,,,,,,,
,,,,,,00079,2023-10-29_16h44.43.635,vbt_B1_day2,2022.2.4,Win32,60.07449237,,,,,,,,,,,,,,,,,,,,,,,,,,,down,0,10.9969,,0.318518519,-0.203703704,1,0,0,0.749400001,0,33,33,62,1,knaap,images/br_knaap.png,images/cb_knaap.png,0,,,,,,,,,,,,,,,,,,,,,,
,,,,,,00079,2023-10-29_16h44.43.635,vbt_B1_day2,2022.2.4,Win32,60.07449237,,,,,,,,,,,,,,,,,,,,,,,,,,,down,0,28.7574,,0.318518519,-0.203703704,1,0,0,6.3977,0,34,34,185,1,mijnheer,images/br_mijnheer.png,images/cb_mijnheer.png,0,,,,,,,,,,,,,,,,,,,,,,
,,,,,,00079,2023-10-29_16h44.43.635,vbt_B1_day2,2022.2.4,Win32,60.07449237,,,,,,,,,,,,,,,,,,,,,,,,,,,down,0,14.2207,,0.271296296,-0.110185185,1,0,0,2.3492,0,35,35,83,1,mening,images/br_mening.png,images/cb_mening.png,0,,,,,,,,,,,,,,,,,,,,,,
,,,,,,00079,2023-10-29_16h44.43.635,vbt_B1_day2,2022.2.4,Win32,60.07449237,,,,,,,,,,,,,,,,,,,,,,,,,,,down,0,6.8228,,0.271296296,-0.110185185,1,0,0,0.5833,0,36,36,21,1,mist,images/br_mist.png,images/cb_mist.png,0,,,,,,,,,,,,,,,,,,,,,,
,,,,,,00079,2023-10-29_16h44.43.635,vbt_B1_day2,2022.2.4,Win32,60.07449237,,,,,,,,,,,,,,,,,,,,,,,,,,,down,0,10.78,,0.268518519,-0.112037037,1,0,0,0.5833,0,37,37,99,1,koffie,images/br_koffie.png,images/cb_koffie.png,1,koffie,,,,,,,,,,,,,,,,,,,,,
,,,,,,00079,2023-10-29_16h44.43.635,vbt_B1_day2,2022.2.4,Win32,60.07449237,,,,,,,,,,,,,,,,,,,,,,,,,,,down,0,6.638900001,,0.268518519,-0.112037037,1,0,0,0.566700001,0,38,38,40,1,schep,images/br_schep.png,images/cb_schep.png,0,,,,,,,,,,,,,,,,,,,,,,
,,,,,,00079,2023-10-29_16h44.43.635,vbt_B1_day2,2022.2.4,Win32,60.07449237,,,,,,,,,,,,,,,,,,,,,,,,,,,down,0,11.4547,,0.268518519,-0.112037037,1,0,0,0.5836,0,39,39,194,1,driemaal,images/br_driemaal.png,images/cb_driemaal.png,0,,,,,,,,,,,,,,,,,,,,,,
,,,,,,00079,2023-10-29_16h44.43.635,vbt_B1_day2,2022.2.4,Win32,60.07449237,,,,,,,,,,,,,,,,,,,,,,,,,,,down,0,7.6547,,0.268518519,-0.112037037,1,0,0,0.5,0,40,40,166,1,strikken,images/br_strikken.png,images/cb_strikken.png,0,,,,,,,,,,,,,,,,,,,,,,
,,,,,,00079,2023-10-29_16h44.43.635,vbt_B1_day2,2022.2.4,Win32,60.07449237,,,,,,,,,,,,,,,,,,,,,,,,,,,down,0,2.9834,,0.268518519,-0.112037037,1,0,0,0.5663,0,41,41,42,1,bleek,images/br_bleek.png,images/cb_bleek.png,0,,,,,,,,,,,,,,,,,,,,,,
,,,,,,00079,2023-10-29_16h44.43.635,vbt_B1_day2,2022.2.4,Win32,60.07449237,,,,,,,,,,,,,,,,,,,,,,,,,,,down,0,34.8052,,0.268518519,-0.112037037,1,0,0,0.5667,0,42,42,199,1,beseffen,images/br_beseffen.png,images/cb_beseffen.png,0,,,,,,,,,,,,,,,,,,,,,,
,,,,,,00079,2023-10-29_16h44.43.635,vbt_B1_day2,2022.2.4,Win32,60.07449237,,,,,,,,,,,,,,,,,,,,,,,,,,,down,0,4.8515,,0.268518519,-0.112037037,1,0,0,0.566299999,0,43,43,154,1,aflopen,images/br_aflopen.png,images/cb_aflopen.png,0,,,,,,,,,,,,,,,,,,,,,,
,,,,,,00079,2023-10-29_16h44.43.635,vbt_B1_day2,2022.2.4,Win32,60.07449237,,,,,,,,,,,,,,,,,,,,,,,,,,,down,0,7.317,,0.268518519,-0.112037037,1,0,0,0.4498,0,44,44,197,1,spanning,images/br_spanning.png,images/cb_spanning.png,0,,,,,,,,,,,,,,,,,,,,,,
,,,,,,00079,2023-10-29_16h44.43.635,vbt_B1_day2,2022.2.4,Win32,60.07449237,,,,,,,,,,,,,,,,,,,,,,,,,,,down,0,3.6395,,0.268518519,-0.112037037,1,0,0,0.549599999,0,45,45,32,1,palm,images/br_palm.png,images/cb_palm.png,0,,,,,,,,,,,,,,,,,,,,,,
,,,,,,00079,2023-10-29_16h44.43.635,vbt_B1_day2,2022.2.4,Win32,60.07449237,,,,,,,,,,,,,,,,,,,,,,,,,,,down,0,3.1395,,0.268518519,-0.112037037,1,0,0,0.4665,0,46,46,55,1,praat,images/br_praat.png,images/cb_praat.png,0,,,,,,,,,,,,,,,,,,,,,,
,,,,,,00079,2023-10-29_16h44.43.635,vbt_B1_day2,2022.2.4,Win32,60.07449237,,,,,,,,,,,,,,,,,,,,,,,,,,,down,0,17.8446,,0.268518519,-0.112037037,1,0,0,0.699599999,0,47,47,37,1,mijn,images/br_mijn.png,images/cb_mijn.png,0,,,,,,,,,,,,,,,,,,,,,,
,,,,,,00079,2023-10-29_16h44.43.635,vbt_B1_day2,2022.2.4,Win32,60.07449237,,,,,,,,,,,,,,,,,,,,,,,,,,,down,0,5.0989,,0.268518519,-0.112037037,1,0,0,0.5498,0,48,48,93,1,waarop,images/br_waarop.png,images/cb_waarop.png,0,,,,,,,,,,,,,,,,,,,,,,
,,,,,,00079,2023-10-29_16h44.43.635,vbt_B1_day2,2022.2.4,Win32,60.07449237,,,,,,,,,,,,,,,,,,,,,,,,,,,down,0,33.1724,,0.268518519,-0.112037037,1,0,0,4.9479,0,49,49,15,1,soda,images/br_soda.png,images/cb_soda.png,0,,,,,,,,,,,,,,,,,,,,,,
,,,,,,00079,2023-10-29_16h44.43.635,vbt_B1_day2,2022.2.4,Win32,60.07449237,,,,,,,,,,,,,,,,,,,,,,,,,,,down,0,13.3533,,0.268518519,-0.112037037,0,0,1,0.649400001,0,50,50,159,1,sufferd,images/br_sufferd.png,images/cb_sufferd.png,0,,,,,,,,,,,,,,,,,,,,,,
,,,,,,00079,2023-10-29_16h44.43.635,vbt_B1_day2,2022.2.4,Win32,60.07449237,,,,,,,,,,,,,,,,,,,,,,,,,,,down,0,11.1132,,0.168518519,-0.197222222,1,0,0,1.059299999,0,51,51,139,1,stiekem,images/br_stiekem.png,images/cb_stiekem.png,1,stiekem,,,,,,,,,,,,,,,,,,,,,
,,,,,,00079,2023-10-29_16h44.43.635,vbt_B1_day2,2022.2.4,Win32,60.07449237,,,,,,,,,,,,,,,,,,,,,,,,,,,down,0,8.169599999,,0.168518519,-0.197222222,1,0,0,0.649799999,0,52,52,172,1,weigeren,images/br_weigeren.png,images/cb_weigeren.png,0,,,,,,,,,,,,,,,,,,,,,,
,,,,,,00079,2023-10-29_16h44.43.635,vbt_B1_day2,2022.2.4,Win32,60.07449237,,,,,,,,,,,,,,,,,,,,,,,,,,,down,0,9.9392,,0.168518519,-0.197222222,1,0,0,0.5666,0,53,53,181,1,toegeven,images/br_toegeven.png,images/cb_toegeven.png,0,,,,,,,,,,,,,,,,,,,,,,
,,,,,,00079,2023-10-29_16h44.43.635,vbt_B1_day2,2022.2.4,Win32,60.07449237,,,,,,,,,,,,,,,,,,,,,,,,,,,down,0,14.6615,,0.168518519,-0.197222222,1,0,0,0.5165,0,54,54,151,1,aanzoek,images/br_aanzoek.png,images/cb_aanzoek.png,0,,,,,,,,,,,,,,,,,,,,,,
,,,,,,00079,2023-10-29_16h44.43.635,vbt_B1_day2,2022.2.4,Win32,60.07449237,,,,,,,,,,,,,,,,,,,,,,,,,,,down,0,17.1316,,0.168518519,-0.197222222,1,0,0,4.098700001,0,55,55,30,1,uien,images/br_uien.png,images/cb_uien.png,0,,,,,,,,,,,,,,,,,,,,,,
,,,,,,00079,2023-10-29_16h44.43.635,vbt_B1_day2,2022.2.4,Win32,60.07449237,,,,,,,,,,,,,,,,,,,,,,,,,,,down,0,0.4353,,0.168518519,-0.197222222,1,0,0,0.7662,0,56,56,13,1,kaal,images/br_kaal.png,images/cb_kaal.png,0,,,,,,,,,,,,,,,,,,,,,,
,,,,,,00079,2023-10-29_16h44.43.635,vbt_B1_day2,2022.2.4,Win32,60.07449237,,,,,,,,,,,,,,,,,,,,,,,,,,,down,0,11.9971,,0.168518519,-0.197222222,1,0,0,0.649400001,0,57,57,104,1,zweven,images/br_zweven.png,images/cb_zweven.png,0,,,,,,,,,,,,,,,,,,,,,,
,,,,,,00079,2023-10-29_16h44.43.635,vbt_B1_day2,2022.2.4,Win32,60.07449237,,,,,,,,,,,,,,,,,,,,,,,,,,,down,0,9.3806,,0.168518519,-0.197222222,1,0,0,0.6166,0,58,58,82,1,muziek,images/br_muziek.png,images/cb_muziek.png,0,,,,,,,,,,,,,,,,,,,,,,
,,,,,,00079,2023-10-29_16h44.43.635,vbt_B1_day2,2022.2.4,Win32,60.07449237,,,,,,,,,,,,,,,,,,,,,,,,,,,down,0,4.4573,,0.168518519,-0.197222222,1,0,0,0.6334,0,59,59,72,1,strak,images/br_strak.png,images/cb_strak.png,0,,,,,,,,,,,,,,,,,,,,,,
,,,,,,00079,2023-10-29_16h44.43.635,vbt_B1_day2,2022.2.4,Win32,60.07449237,,,,,,,,,,,,,,,,,,,,,,,,,,,down,0,9.2334,,0.168518519,-0.197222222,1,0,0,0.549700001,0,60,60,116,1,besmet,images/br_besmet.png,images/cb_besmet.png,0,,,,,,,,,,,,,,,,,,,,,,
,,,,,,00079,2023-10-29_16h44.43.635,vbt_B1_day2,2022.2.4,Win32,60.07449237,,,,,,,,,,,,,,,,,,,,,,,,,,,down,0,9.5857,,0.168518519,-0.197222222,1,0,0,0.55,0,61,61,143,1,hechten,images/br_hechten.png,images/cb_hechten.png,0,,,,,,,,,,,,,,,,,,,,,,
,,,,,,00079,2023-10-29_16h44.43.635,vbt_B1_day2,2022.2.4,Win32,60.07449237,,,,,,,,,,,,,,,,,,,,,,,,,,,down,0,25.3671,,0.168518519,-0.197222222,1,0,0,0.6666,0,62,62,80,1,kanjer,images/br_kanjer.png,images/cb_kanjer.png,0,,,,,,,,,,,,,,,,,,,,,,
,,,,,,00079,2023-10-29_16h44.43.635,vbt_B1_day2,2022.2.4,Win32,60.07449237,,,,,,,,,,,,,,,,,,,,,,,,,,,down,0,9.2475,,0.168518519,-0.197222222,1,0,0,0.5496,0,63,63,120,1,klimmen,images/br_klimmen.png,images/cb_klimmen.png,0,,,,,,,,,,,,,,,,,,,,,,
,,,,,,00079,2023-10-29_16h44.43.635,vbt_B1_day2,2022.2.4,Win32,60.07449237,,,,,,,,,,,,,,,,,,,,,,,,,,,down,0,26.596,,0.168518519,-0.197222222,1,0,0,0.816299999,0,64,64,108,1,excuus,images/br_excuus.png,images/cb_excuus.png,0,,,,,,,,,,,,,,,,,,,,,,
,,,,,,00079,2023-10-29_16h44.43.635,vbt_B1_day2,2022.2.4,Win32,60.07449237,,,,,,,,,,,,,,,,,,,,,,,,,,,down,0,8.7398,,0.168518519,-0.197222222,0,0,1,0.5834,0,65,65,51,1,samen,images/br_samen.png,images/cb_samen.png,0,,,,,,,,,,,,,,,,,,,,,,
,,,,,,00079,2023-10-29_16h44.43.635,vbt_B1_day2,2022.2.4,Win32,60.07449237,,,,,,,,,,,,,,,,,,,,,,,,,,,down,0,14.2856,,0.063888889,-0.107407407,0,0,1,0.732900001,0,66,66,135,1,gedicht,images/br_gedicht.png,images/cb_gedicht.png,0,,,,,,,,,,,,,,,,,,,,,,
,,,,,,00079,2023-10-29_16h44.43.635,vbt_B1_day2,2022.2.4,Win32,60.07449237,,,,,,,,,,,,,,,,,,,,,,,,,,,down,0,21.9096,,0.018518519,-0.118518519,1,0,0,0.6164,0,67,67,127,1,doodmoe,images/br_doodmoe.png,images/cb_doodmoe.png,0,,,,,,,,,,,,,,,,,,,,,,
,,,,,,00079,2023-10-29_16h44.43.635,vbt_B1_day2,2022.2.4,Win32,60.07449237,,,,,,,,,,,,,,,,,,,,,,,,,,,down,0,30.8231,,0.018518519,-0.118518519,1,0,0,6.664400001,0,68,68,196,1,nakijken,images/br_nakijken.png,images/cb_nakijken.png,0,,,,,,,,,,,,,,,,,,,,,,
,,,,,,00079,2023-10-29_16h44.43.635,vbt_B1_day2,2022.2.4,Win32,60.07449237,,,,,,,,,,,,,,,,,,,,,,,,,,,down,0,9.1479,,0.018518519,-0.118518519,1,0,0,0.6996,0,69,69,180,1,openbaar,images/br_openbaar.png,images/cb_openbaar.png,0,,,,,,,,,,,,,,,,,,,,,,
,,,,,,00079,2023-10-29_16h44.43.635,vbt_B1_day2,2022.2.4,Win32,60.07449237,,,,,,,,,,,,,,,,,,,,,,,,,,,down,0,3.0155,,0.018518519,-0.118518519,1,0,0,0.7736,0,70,70,35,1,lust,images/br_lust.png,images/cb_lust.png,0,,,,,,,,,,,,,,,,,,,,,,
,,,,,,00079,2023-10-29_16h44.43.635,vbt_B1_day2,2022.2.4,Win32,60.07449237,,,,,,,,,,,,,,,,,,,,,,,,,,,down,0,10.6657,,0.018518519,-0.118518519,1,0,0,1.366099999,0,71,71,24,1,jurk,images/br_jurk.png,images/cb_jurk.png,0,,,,,,,,,,,,,,,,,,,,,,
,,,,,,00079,2023-10-29_16h44.43.635,vbt_B1_day2,2022.2.4,Win32,60.07449237,,,,,,,,,,,,,,,,,,,,,,,,,,,down,0,3.1349,,0.018518519,-0.118518519,1,0,0,0.8164,0,72,72,28,1,stal,images/br_stal.png,images/cb_stal.png,0,,,,,,,,,,,,,,,,,,,,,,
,,,,,,00079,2023-10-29_16h44.43.635,vbt_B1_day2,2022.2.4,Win32,60.07449237,,,,,,,,,,,,,,,,,,,,,,,,,,,down,0,9.1516,,0.018518519,-0.118518519,1,0,0,1.2663,0,73,73,175,1,heengaan,images/br_heengaan.png,images/cb_heengaan.png,0,,,,,,,,,,,,,,,,,,,,,,
,,,,,,00079,2023-10-29_16h44.43.635,vbt_B1_day2,2022.2.4,Win32,60.07449237,,,,,,,,,,,,,,,,,,,,,,,,,,,down,0,2.9823,,0.018518519,-0.118518519,1,0,0,0.8165,0,74,74,85,1,heilig,images/br_heilig.png,images/cb_heilig.png,0,,,,,,,,,,,,,,,,,,,,,,
,,,,,,00079,2023-10-29_16h44.43.635,vbt_B1_day2,2022.2.4,Win32,60.07449237,,,,,,,,,,,,,,,,,,,,,,,,,,,down,0,4.9483,,0.018518519,-0.118518519,1,0,0,0.8828,0,75,75,102,1,legaal,images/br_legaal.png,images/cb_legaal.png,0,,,,,,,,,,,,,,,,,,,,,,
,,,,,,00079,2023-10-29_16h44.43.635,vbt_B1_day2,2022.2.4,Win32,60.07449237,,,,,,,,,,,,,,,,,,,,,,,,,,,down,0,10.3878,,0.018518519,-0.118518519,1,0,0,0.9827,0,76,76,59,1,kring,images/br_kring.png,images/cb_kring.png,1,kring,,,,,,,,,,,,,,,,,,,,,
,,,,,,00079,2023-10-29_16h44.43.635,vbt_B1_day2,2022.2.4,Win32,60.07449237,,,,,,,,,,,,,,,,,,,,,,,,,,,down,0,10.3816,,0.018518519,-0.118518519,1,0,0,0.683299999,0,77,77,146,1,opkomen,images/br_opkomen.png,images/cb_opkomen.png,0,,,,,,,,,,,,,,,,,,,,,,
,,,,,,00079,2023-10-29_16h44.43.635,vbt_B1_day2,2022.2.4,Win32,60.07449237,,,,,,,,,,,,,,,,,,,,,,,,,,,down,0,5.1868,,0.018518519,-0.118518519,1,0,0,0.633,0,78,78,41,1,maken,images/br_maken.png,images/cb_maken.png,0,,,,,,,,,,,,,,,,,,,,,,
,,,,,,00079,2023-10-29_16h44.43.635,vbt_B1_day2,2022.2.4,Win32,60.07449237,,,,,,,,,,,,,,,,,,,,,,,,,,,down,0,7.747900001,,0.018518519,-0.118518519,1,0,0,0.5164,0,79,79,67,1,zwart,images/br_zwart.png,images/cb_zwart.png,0,,,,,,,,,,,,,,,,,,,,,,
,,,,,,00079,2023-10-29_16h44.43.635,vbt_B1_day2,2022.2.4,Win32,60.07449237,,,,,,,,,,,,,,,,,,,,,,,,,,,down,0,21.7263,,0.018518519,-0.118518519,1,0,0,0.5998,0,80,80,100,1,geduld,images/br_geduld.png,images/cb_geduld.png,0,,,,,,,,,,,,,,,,,,,,,,
,,,,,,00079,2023-10-29_16h44.43.635,vbt_B1_day2,2022.2.4,Win32,60.07449237,,,,,,,,,,,,,,,,,,,,,,,,,,,down,0,5.251799999,,0.018518519,-0.118518519,1,0,0,0.5497,0,81,81,20,1,site,images/br_site.png,images/cb_site.png,0,,,,,,,,,,,,,,,,,,,,,,
,,,,,,00079,2023-10-29_16h44.43.635,vbt_B1_day2,2022.2.4,Win32,60.07449237,,,,,,,,,,,,,,,,,,,,,,,,,,,down,0,8.7391,,0.018518519,-0.118518519,1,0,0,0.633299999,0,82,82,5,1,blad,images/br_blad.png,images/cb_blad.png,0,,,,,,,,,,,,,,,,,,,,,,
,,,,,,00079,2023-10-29_16h44.43.635,vbt_B1_day2,2022.2.4,Win32,60.07449237,,,,,,,,,,,,,,,,,,,,,,,,,,,down,0,8.3809,,0.018518519,-0.118518519,1,0,0,0.7499,0,83,83,121,1,twijfel,images/br_twijfel.png,images/cb_twijfel.png,0,,,,,,,,,,,,,,,,,,,,,,
,,,,,,00079,2023-10-29_16h44.43.635,vbt_B1_day2,2022.2.4,Win32,60.07449237,,,,,,,,,,,,,,,,,,,,,,,,,,,down,0,5.7646,,0.018518519,-0.118518519,1,0,0,0.5332,0,84,84,44,1,flits,images/br_flits.png,images/cb_flits.png,0,,,,,,,,,,,,,,,,,,,,,,
,,,,,,00079,2023-10-29_16h44.43.635,vbt_B1_day2,2022.2.4,Win32,60.07449237,,,,,,,,,,,,,,,,,,,,,,,,,,,down,0,5.631299999,,0.018518519,-0.118518519,1,0,0,0.5165,0,85,85,157,1,uitlaat,images/br_uitlaat.png,images/cb_uitlaat.png,0,,,,,,,,,,,,,,,,,,,,,,
,,,,,,00079,2023-10-29_16h44.43.635,vbt_B1_day2,2022.2.4,Win32,60.07449237,,,,,,,,,,,,,,,,,,,,,,,,,,,down,0,13.2881,,0.018518519,-0.118518519,1,0,0,0.7335,0,86,86,153,1,vervoer,images/br_vervoer.png,images/cb_vervoer.png,0,,,,,,,,,,,,,,,,,,,,,,
,,,,,,00079,2023-10-29_16h44.43.635,vbt_B1_day2,2022.2.4,Win32,60.07449237,,,,,,,,,,,,,,,,,,,,,,,,,,,down,0,9.1306,,0.018518519,-0.118518519,1,0,0,0.5829,0,87,87,91,1,gezond,images/br_gezond.png,images/cb_gezond.png,0,,,,,,,,,,,,,,,,,,,,,,
,,,,,,00079,2023-10-29_16h44.43.635,vbt_B1_day2,2022.2.4,Win32,60.07449237,,,,,,,,,,,,,,,,,,,,,,,,,,,down,0,5.7523,,0.018518519,-0.118518519,1,0,0,0.6165,0,88,88,58,1,tekst,images/br_tekst.png,images/cb_tekst.png,1,tekst,,,,,,,,,,,,,,,,,,,,,
,,,,,,00079,2023-10-29_16h44.43.635,vbt_B1_day2,2022.2.4,Win32,60.07449237,,,,,,,,,,,,,,,,,,,,,,,,,,,down,0,3.0498,,0.018518519,-0.118518519,1,0,0,0.6082,0,89,89,17,1,taal,images/br_taal.png,images/cb_taal.png,1,taal,,,,,,,,,,,,,,,,,,,,,
,,,,,,00079,2023-10-29_16h44.43.635,vbt_B1_day2,2022.2.4,Win32,60.07449237,,,,,,,,,,,,,,,,,,,,,,,,,,,down,0,15.1006,,0.018518519,-0.118518519,1,0,0,1.3329,0,90,90,11,1,mode,images/br_mode.png,images/cb_mode.png,0,,,,,,,,,,,,,,,,,,,,,,
,,,,,,00079,2023-10-29_16h44.43.635,vbt_B1_day2,2022.2.4,Win32,60.07449237,,,,,,,,,,,,,,,,,,,,,,,,,,,down,0,9.6305,,0.018518519,-0.118518519,1,0,0,0.5835,0,91,91,176,1,techniek,images/br_techniek.png,images/cb_techniek.png,1,techniek,,,,,,,,,,,,,,,,,,,,,
,,,,,,00079,2023-10-29_16h44.43.635,vbt_B1_day2,2022.2.4,Win32,60.07449237,,,,,,,,,,,,,,,,,,,,,,,,,,,down,0,6.5645,,0.018518519,-0.118518519,1,0,0,0.7162,0,92,92,76,1,afval,images/br_afval.png,images/cb_afval.png,0,,,,,,,,,,,,,,,,,,,,,,
,,,,,,00079,2023-10-29_16h44.43.635,vbt_B1_day2,2022.2.4,Win32,60.07449237,,,,,,,,,,,,,,,,,,,,,,,,,,,down,0,12.7491,,0.018518519,-0.118518519,1,0,0,1.282900001,0,93,93,103,1,joggen,images/br_joggen.png,images/cb_joggen.png,0,,,,,,,,,,,,,,,,,,,,,,
,,,,,,00079,2023-10-29_16h44.43.635,vbt_B1_day2,2022.2.4,Win32,60.07449237,,,,,,,,,,,,,,,,,,,,,,,,,,,down,0,17.5278,,0.018518519,-0.118518519,1,0,0,0.5733,0,94,94,149,1,redding,images/br_redding.png,images/cb_redding.png,0,,,,,,,,,,,,,,,,,,,,,,
,,,,,,00079,2023-10-29_16h44.43.635,vbt_B1_day2,2022.2.4,Win32,60.07449237,,,,,,,,,,,,,,,,,,,,,,,,,,,down,0,6.6149,,0.018518519,-0.118518519,1,0,0,0.5168,0,95,95,106,1,zingen,images/br_zingen.png,images/cb_zingen.png,0,,,,,,,,,,,,,,,,,,,,,,
,,,,,,00079,2023-10-29_16h44.43.635,vbt_B1_day2,2022.2.4,Win32,60.07449237,,,,,,,,,,,,,,,,,,,,,,,,,,,down,0,6.5705,,0.018518519,-0.118518519,1,0,0,0.5165,0,96,96,133,1,seizoen,images/br_seizoen.png,images/cb_seizoen.png,0,,,,,,,,,,,,,,,,,,,,,,
,,,,,,00079,2023-10-29_16h44.43.635,vbt_B1_day2,2022.2.4,Win32,60.07449237,,,,,,,,,,,,,,,,,,,,,,,,,,,down,0,7.614400001,,-0.030555556,-0.163888889,1,0,0,0.8499,0,97,97,52,1,wagon,images/br_wagon.png,images/cb_wagon.png,0,,,,,,,,,,,,,,,,,,,,,,
,,,,,,00079,2023-10-29_16h44.43.635,vbt_B1_day2,2022.2.4,Win32,60.07449237,,,,,,,,,,,,,,,,,,,,,,,,,,,down,0,4.5828,,-0.030555556,-0.163888889,1,0,0,0.7163,0,98,98,18,1,blik,images/br_blik.png,images/cb_blik.png,1,blik,,,,,,,,,,,,,,,,,,,,,
,,,,,,00079,2023-10-29_16h44.43.635,vbt_B1_day2,2022.2.4,Win32,60.07449237,,,,,,,,,,,,,,,,,,,,,,,,,,,down,0,11.4464,,-0.030555556,-0.163888889,1,0,0,0.645200001,0,99,99,186,1,voorraad,images/br_voorraad.png,images/cb_voorraad.png,0,,,,,,,,,,,,,,,,,,,,,,
,,,,,,00079,2023-10-29_16h44.43.635,vbt_B1_day2,2022.2.4,Win32,60.07449237,,,,,,,,,,,,,,,,,,,,,,,,,,,down,0,12.2126,,-0.018518519,-0.151851852,1,0,0,0.7664,0,100,100,47,1,kabel,images/br_kabel.png,images/cb_kabel.png,0,,,,,,,,,,,,,,,,,,,,,,
,,,,,,00079,2023-10-29_16h44.43.635,vbt_B1_day2,2022.2.4,Win32,60.07449237,,,,,,,,,,,,,,,,,,,,,,,,,,,down,0,11.4299,,-0.018518519,-0.151851852,1,0,0,0.5661,0,101,101,86,1,woning,images/br_woning.png,images/cb_woning.png,0,,,,,,,,,,,,,,,,,,,,,,
,,,,,,00079,2023-10-29_16h44.43.635,vbt_B1_day2,2022.2.4,Win32,60.07449237,,,,,,,,,,,,,,,,,,,,,,,,,,,down,0,21.4506,,-0.018518519,-0.151851852,1,0,0,0.8498,0,102,102,168,1,bisschop,images/br_bisschop.png,images/cb_bisschop.png,0,,,,,,,,,,,,,,,,,,,,,,
,,,,,,00079,2023-10-29_16h44.43.635,vbt_B1_day2,2022.2.4,Win32,60.07449237,,,,,,,,,,,,,,,,,,,,,,,,,,,down,0,0.8522,,-0.018518519,-0.151851852,1,0,0,0.783,0,103,103,10,1,leek,images/br_leek.png,images/cb_leek.png,0,,,,,,,,,,,,,,,,,,,,,,
,,,,,,00079,2023-10-29_16h44.43.635,vbt_B1_day2,2022.2.4,Win32,60.07449237,,,,,,,,,,,,,,,,,,,,,,,,,,,down,0,1.4332,,-0.018518519,-0.151851852,1,0,0,1.2158,0,104,104,113,1,koppen,images/br_koppen.png,images/cb_koppen.png,0,,,,,,,,,,,,,,,,,,,,,,
,,,,,,00079,2023-10-29_16h44.43.635,vbt_B1_day2,2022.2.4,Win32,60.07449237,,,,,,,,,,,,,,,,,,,,,,,,,,,down,0,8.003,,-0.018518519,-0.151851852,1,0,0,0.599900001,0,105,105,63,1,flirt,images/br_flirt.png,images/cb_flirt.png,0,,,,,,,,,,,,,,,,,,,,,,
,,,,,,00079,2023-10-29_16h44.43.635,vbt_B1_day2,2022.2.4,Win32,60.07449237,,,,,,,,,,,,,,,,,,,,,,,,,,,down,0,6.897700001,,-0.018518519,-0.151851852,1,0,0,0.5166,0,106,106,64,1,wegen,images/br_wegen.png,images/cb_wegen.png,0,,,,,,,,,,,,,,,,,,,,,,
,,,,,,00079,2023-10-29_16h44.43.635,vbt_B1_day2,2022.2.4,Win32,60.07449237,,,,,,,,,,,,,,,,,,,,,,,,,,,down,0,5.948200001,,-0.018518519,-0.151851852,1,0,0,0.915900001,0,107,107,126,1,kasteel,images/br_kasteel.png,images/cb_kasteel.png,0,,,,,,,,,,,,,,,,,,,,,,
,,,,,,00079,2023-10-29_16h44.43.635,vbt_B1_day2,2022.2.4,Win32,60.07449237,,,,,,,,,,,,,,,,,,,,,,,,,,,down,0,14.5785,,-0.018518519,-0.151851852,1,0,0,1.3327,0,108,108,111,1,ticket,images/br_ticket.png,images/cb_ticket.png,0,,,,,,,,,,,,,,,,,,,,,,
,,,,,,00079,2023-10-29_16h44.43.635,vbt_B1_day2,2022.2.4,Win32,60.07449237,,,,,,,,,,,,,,,,,,,,,,,,,,,down,0,8.437099999,,-0.018518519,-0.151851852,1,0,0,0.7332,0,109,109,33,1,vlek,images/br_vlek.png,images/cb_vlek.png,0,,,,,,,,,,,,,,,,,,,,,,
,,,,,,00079,2023-10-29_16h44.43.635,vbt_B1_day2,2022.2.4,Win32,60.07449237,,,,,,,,,,,,,,,,,,,,,,,,,,,down,0,6.1336,,-0.018518519,-0.151851852,1,0,0,0.733,0,110,110,65,1,parel,images/br_parel.png,images/cb_parel.png,0,,,,,,,,,,,,,,,,,,,,,,
,,,,,,00079,2023-10-29_16h44.43.635,vbt_B1_day2,2022.2.4,Win32,60.07449237,,,,,,,,,,,,,,,,,,,,,,,,,,,down,0,17.8509,,-0.018518519,-0.151851852,1,0,0,1.0161,0,111,111,130,1,keihard,images/br_keihard.png,images/cb_keihard.png,0,,,,,,,,,,,,,,,,,,,,,,
,,,,,,00079,2023-10-29_16h44.43.635,vbt_B1_day2,2022.2.4,Win32,60.07449237,,,,,,,,,,,,,,,,,,,,,,,,,,,down,0,8.6376,,-0.018518519,-0.151851852,1,0,0,0.5331,0,112,112,142,1,snuiven,images/br_snuiven.png,images/cb_snuiven.png,0,,,,,,,,,,,,,,,,,,,,,,
,,,,,,00079,2023-10-29_16h44.43.635,vbt_B1_day2,2022.2.4,Win32,60.07449237,,,,,,,,,,,,,,,,,,,,,,,,,,,down,0,14.5286,,-0.018518519,-0.151851852,1,0,0,3.6655,0,113,113,189,1,aanraden,images/br_aanraden.png,images/cb_aanraden.png,0,,,,,,,,,,,,,,,,,,,,,,
,,,,,,00079,2023-10-29_16h44.43.635,vbt_B1_day2,2022.2.4,Win32,60.07449237,,,,,,,,,,,,,,,,,,,,,,,,,,,down,0,0.717,,-0.018518519,-0.151851852,1,0,0,1.4158,0,114,114,2,1,jaar,images/br_jaar.png,images/cb_jaar.png,0,,,,,,,,,,,,,,,,,,,,,,
,,,,,,00079,2023-10-29_16h44.43.635,vbt_B1_day2,2022.2.4,Win32,60.07449237,,,,,,,,,,,,,,,,,,,,,,,,,,,down,0,3.3227,,-0.018518519,-0.151851852,1,0,0,0.666700001,0,115,115,66,1,lever,images/br_lever.png,images/cb_lever.png,0,,,,,,,,,,,,,,,,,,,,,,
,,,,,,00079,2023-10-29_16h44.43.635,vbt_B1_day2,2022.2.4,Win32,60.07449237,,,,,,,,,,,,,,,,,,,,,,,,,,,down,0,6.7232,,-0.018518519,-0.151851852,1,0,0,0.582799999,0,116,116,164,1,anarchie,images/br_anarchie.png,images/cb_anarchie.png,0,,,,,,,,,,,,,,,,,,,,,,
,,,,,,00079,2023-10-29_16h44.43.635,vbt_B1_day2,2022.2.4,Win32,60.07449237,,,,,,,,,,,,,,,,,,,,,,,,,,,down,0,3.2362,,-0.018518519,-0.151851852,1,0,0,0.5665,0,117,117,114,1,vullen,images/br_vullen.png,images/cb_vullen.png,0,,,,,,,,,,,,,,,,,,,,,,
,,,,,,00079,2023-10-29_16h44.43.635,vbt_B1_day2,2022.2.4,Win32,60.07449237,,,,,,,,,,,,,,,,,,,,,,,,,,,down,0,4.2665,,-0.018518519,-0.151851852,1,0,0,0.5665,0,118,118,96,1,slagen,images/br_slagen.png,images/cb_slagen.png,1,slagen,,,,,,,,,,,,,,,,,,,,,
,,,,,,00079,2023-10-29_16h44.43.635,vbt_B1_day2,2022.2.4,Win32,60.07449237,,,,,,,,,,,,,,,,,,,,,,,,,,,down,0,8.3975,,-0.018518519,-0.151851852,1,0,0,0.5668,0,119,119,155,1,gerucht,images/br_gerucht.png,images/cb_gerucht.png,0,,,,,,,,,,,,,,,,,,,,,,
,,,,,,00079,2023-10-29_16h44.43.635,vbt_B1_day2,2022.2.4,Win32,60.07449237,,,,,,,,,,,,,,,,,,,,,,,,,,,down,0,5.191099999,,-0.018518519,-0.151851852,1,0,0,0.4835,0,120,120,75,1,snoep,images/br_snoep.png,images/cb_snoep.png,0,,,,,,,,,,,,,,,,,,,,,,
,,,,,,00079,2023-10-29_16h44.43.635,vbt_B1_day2,2022.2.4,Win32,60.07449237,,,,,,,,,,,,,,,,,,,,,,,,,,,down,0,6.0209,,-0.018518519,-0.151851852,1,0,0,0.549700001,0,121,121,148,1,smullen,images/br_smullen.png,images/cb_smullen.png,0,,,,,,,,,,,,,,,,,,,,,,
,,,,,,00079,2023-10-29_16h44.43.635,vbt_B1_day2,2022.2.4,Win32,60.07449237,,,,,,,,,,,,,,,,,,,,,,,,,,,down,0,26.6641,,-0.018518519,-0.151851852,1,0,0,6.731,0,122,122,193,1,weeshuis,images/br_weeshuis.png,images/cb_weeshuis.png,0,,,,,,,,,,,,,,,,,,,,,,
,,,,,,00079,2023-10-29_16h44.43.635,vbt_B1_day2,2022.2.4,Win32,60.07449237,,,,,,,,,,,,,,,,,,,,,,,,,,,down,0,26.2653,,-0.018518519,-0.151851852,1,0,0,3.0327,0,123,123,81,1,dubbel,images/br_dubbel.png,images/cb_dubbel.png,0,,,,,,,,,,,,,,,,,,,,,,
,,,,,,00079,2023-10-29_16h44.43.635,vbt_B1_day2,2022.2.4,Win32,60.07449237,,,,,,,,,,,,,,,,,,,,,,,,,,,down,0,4.032,,-0.018518519,-0.151851852,1,0,0,0.549599999,0,124,124,68,1,schat,images/br_schat.png,images/cb_schat.png,0,,,,,,,,,,,,,,,,,,,,,,
,,,,,,00079,2023-10-29_16h44.43.635,vbt_B1_day2,2022.2.4,Win32,60.07449237,,,,,,,,,,,,,,,,,,,,,,,,,,,down,0,5.3186,,-0.018518519,-0.151851852,1,0,0,1.1995,0,125,125,118,1,vinger,images/br_vinger.png,images/cb_vinger.png,0,,,,,,,,,,,,,,,,,,,,,,
,,,,,,00079,2023-10-29_16h44.43.635,vbt_B1_day2,2022.2.4,Win32,60.07449237,,,,,,,,,,,,,,,,,,,,,,,,,,,down,0,10.2134,,-0.018518519,-0.151851852,1,0,0,0.5332,0,126,126,112,1,lukken,images/br_lukken.png,images/cb_lukken.png,0,,,,,,,,,,,,,,,,,,,,,,
,,,,,,00079,2023-10-29_16h44.43.635,vbt_B1_day2,2022.2.4,Win32,60.07449237,,,,,,,,,,,,,,,,,,,,,,,,,,,down,0,2.5581,,-0.018518519,-0.151851852,1,0,0,0.4831,0,127,127,34,1,vorm,images/br_vorm.png,images/cb_vorm.png,0,,,,,,,,,,,,,,,,,,,,,,
,,,,,,00079,2023-10-29_16h44.43.635,vbt_B1_day2,2022.2.4,Win32,60.07449237,,,,,,,,,,,,,,,,,,,,,,,,,,,down,0,11.1803,,-0.018518519,-0.151851852,1,0,0,0.5495,0,128,128,162,1,uitdelen,images/br_uitdelen.png,images/cb_uitdelen.png,0,,,,,,,,,,,,,,,,,,,,,,
,,,,,,00079,2023-10-29_16h44.43.635,vbt_B1_day2,2022.2.4,Win32,60.07449237,,,,,,,,,,,,,,,,,,,,,,,,,,,down,0,5.1155,,-0.018518519,-0.151851852,1,0,0,0.5433,0,129,129,98,1,kreeft,images/br_kreeft.png,images/cb_kreeft.png,1,kreeft,,,,,,,,,,,,,,,,,,,,,
,,,,,,00079,2023-10-29_16h44.43.635,vbt_B1_day2,2022.2.4,Win32,60.07449237,,,,,,,,,,,,,,,,,,,,,,,,,,,down,0,8.2401,,-0.018518519,-0.151851852,1,0,0,0.5833,0,130,130,110,1,zuster,images/br_zuster.png,images/cb_zuster.png,0,,,,,,,,,,,,,,,,,,,,,,
,,,,,,00079,2023-10-29_16h44.43.635,vbt_B1_day2,2022.2.4,Win32,60.07449237,,,,,,,,,,,,,,,,,,,,,,,,,,,down,0,1.151400001,,-0.018518519,-0.151851852,1,0,0,0.466900001,0,131,131,25,1,plek,images/br_plek.png,images/cb_plek.png,0,,,,,,,,,,,,,,,,,,,,,,
,,,,,,00079,2023-10-29_16h44.43.635,vbt_B1_day2,2022.2.4,Win32,60.07449237,,,,,,,,,,,,,,,,,,,,,,,,,,,down,0,8.2315,,-0.018518519,-0.151851852,1,0,0,0.599900001,0,132,132,131,1,opzicht,images/br_opzicht.png,images/cb_opzicht.png,0,,,,,,,,,,,,,,,,,,,,,,
,,,,,,00079,2023-10-29_16h44.43.635,vbt_B1_day2,2022.2.4,Win32,60.07449237,,,,,,,,,,,,,,,,,,,,,,,,,,,down,0,3.4517,,-0.018518519,-0.151851852,1,0,0,0.5164,0,133,133,56,1,traag,images/br_traag.png,images/cb_traag.png,1,traag,,,,,,,,,,,,,,,,,,,,,
,,,,,,00079,2023-10-29_16h44.43.635,vbt_B1_day2,2022.2.4,Win32,60.07449237,,,,,,,,,,,,,,,,,,,,,,,,,,,down,0,3.0497,,-0.018518519,-0.151851852,1,0,0,0.549299999,0,134,134,78,1,leren,images/br_leren.png,images/cb_leren.png,0,,,,,,,,,,,,,,,,,,,,,,
,,,,,,00079,2023-10-29_16h44.43.635,vbt_B1_day2,2022.2.4,Win32,60.07449237,,,,,,,,,,,,,,,,,,,,,,,,,,,down,0,1.9722,,-0.018518519,-0.151851852,1,0,0,0.5331,0,135,135,89,1,slapen,images/br_slapen.png,images/cb_slapen.png,0,,,,,,,,,,,,,,,,,,,,,,
,,,,,,00079,2023-10-29_16h44.43.635,vbt_B1_day2,2022.2.4,Win32,60.07449237,,,,,,,,,,,,,,,,,,,,,,,,,,,down,0,2.616299999,,-0.018518519,-0.151851852,1,0,0,0.566400001,0,136,136,12,1,kust,images/br_kust.png,images/cb_kust.png,0,,,,,,,,,,,,,,,,,,,,,,
,,,,,,00079,2023-10-29_16h44.43.635,vbt_B1_day2,2022.2.4,Win32,60.07449237,,,,,,,,,,,,,,,,,,,,,,,,,,,down,0,6.5318,,-0.018518519,-0.151851852,1,0,0,0.6665,0,137,137,169,1,oprotten,images/br_oprotten.png,images/cb_oprotten.png,0,,,,,,,,,,,,,,,,,,,,,,
,,,,,,00079,2023-10-29_16h44.43.635,vbt_B1_day2,2022.2.4,Win32,60.07449237,,,,,,,,,,,,,,,,,,,,,,,,,,,down,0,0.6745,,-0.018518519,-0.151851852,1,0,0,0.5329,0,138,138,1,1,zaal,images/br_zaal.png,images/cb_zaal.png,0,,,,,,,,,,,,,,,,,,,,,,
,,,,,,00079,2023-10-29_16h44.43.635,vbt_B1_day2,2022.2.4,Win32,60.07449237,,,,,,,,,,,,,,,,,,,,,,,,,,,down,0,9.0141,,-0.018518519,-0.151851852,1,0,0,0.6665,0,139,139,174,1,stemming,images/br_stemming.png,images/cb_stemming.png,0,,,,,,,,,,,,,,,,,,,,,,
,,,,,,00079,2023-10-29_16h44.43.635,vbt_B1_day2,2022.2.4,Win32,60.07449237,,,,,,,,,,,,,,,,,,,,,,,,,,,down,0,8.481,,-0.018518519,-0.151851852,1,0,0,0.6663,0,140,140,105,1,wijlen,images/br_wijlen.png,images/cb_wijlen.png,0,,,,,,,,,,,,,,,,,,,,,,
,,,,,,00079,2023-10-29_16h44.43.635,vbt_B1_day2,2022.2.4,Win32,60.07449237,,,,,,,,,,,,,,,,,,,,,,,,,,,down,0,1.6497,,-0.018518519,-0.151851852,1,0,0,0.483099999,0,141,141,29,1,baas,images/br_baas.png,images/cb_baas.png,0,,,,,,,,,,,,,,,,,,,,,,
,,,,,,00079,2023-10-29_16h44.43.635,vbt_B1_day2,2022.2.4,Win32,60.07449237,,,,,,,,,,,,,,,,,,,,,,,,,,,down,0,5.603200001,,-0.018518519,-0.151851852,1,0,0,0.5999,0,142,142,14,1,rijp,images/br_rijp.png,images/cb_rijp.png,0,,,,,,,,,,,,,,,,,,,,,,
,,,,,,00079,2023-10-29_16h44.43.635,vbt_B1_day2,2022.2.4,Win32,60.07449237,,,,,,,,,,,,,,,,,,,,,,,,,,,down,0,14.2839,,-0.018518519,-0.151851852,1,0,0,0.966599999,0,143,143,3,1,mand,images/br_mand.png,images/cb_mand.png,0,,,,,,,,,,,,,,,,,,,,,,
,,,,,,00079,2023-10-29_16h44.43.635,vbt_B1_day2,2022.2.4,Win32,60.07449237,,,,,,,,,,,,,,,,,,,,,,,,,,,down,0,7.164900001,,-0.018518519,-0.151851852,1,0,0,0.7665,0,144,144,137,1,trekker,images/br_trekker.png,images/cb_trekker.png,1,trekker,,,,,,,,,,,,,,,,,,,,,
,,,,,,00079,2023-10-29_16h44.43.635,vbt_B1_day2,2022.2.4,Win32,60.07449237,,,,,,,,,,,,,,,,,,,,,,,,,,,down,0,6.8865,,-0.018518519,-0.151851852,1,0,0,0.5329,0,145,145,95,1,vreten,images/br_vreten.png,images/cb_vreten.png,0,,,,,,,,,,,,,,,,,,,,,,
,,,,,,00079,2023-10-29_16h44.43.635,vbt_B1_day2,2022.2.4,Win32,60.07449237,,,,,,,,,,,,,,,,,,,,,,,,,,,down,0,4.599,,-0.018518519,-0.151851852,1,0,0,0.6165,0,146,146,138,1,akkoord,images/br_akkoord.png,images/cb_akkoord.png,1,akkoord,,,,,,,,,,,,,,,,,,,,,
,,,,,,00079,2023-10-29_16h44.43.635,vbt_B1_day2,2022.2.4,Win32,60.07449237,,,,,,,,,,,,,,,,,,,,,,,,,,,down,0,5.2654,,-0.018518519,-0.151851852,1,0,0,0.616099999,0,147,147,156,1,rechten,images/br_rechten.png,images/cb_rechten.png,0,,,,,,,,,,,,,,,,,,,,,,
,,,,,,00079,2023-10-29_16h44.43.635,vbt_B1_day2,2022.2.4,Win32,60.07449237,,,,,,,,,,,,,,,,,,,,,,,,,,,down,0,7.5312,,-0.018518519,-0.151851852,1,0,0,0.5667,0,148,148,150,1,gegeven,images/br_gegeven.png,images/cb_gegeven.png,0,,,,,,,,,,,,,,,,,,,,,,
,,,,,,00079,2023-10-29_16h44.43.635,vbt_B1_day2,2022.2.4,Win32,60.07449237,,,,,,,,,,,,,,,,,,,,,,,,,,,down,0,7.6815,,-0.018518519,-0.151851852,1,0,0,2.2327,0,149,149,129,1,verhaal,images/br_verhaal.png,images/cb_verhaal.png,0,,,,,,,,,,,,,,,,,,,,,,
,,,,,,00079,2023-10-29_16h44.43.635,vbt_B1_day2,2022.2.4,Win32,60.07449237,,,,,,,,,,,,,,,,,,,,,,,,,,,down,0,4.334099999,,-0.018518519,-0.151851852,1,0,0,0.4831,0,150,150,0,1,slak,images/br_slak.png,images/cb_slak.png,0,,,,,,,,,,,,,,,,,,,,,,
,,,,,,00079,2023-10-29_16h44.43.635,vbt_B1_day2,2022.2.4,Win32,60.07449237,,,,,,,,,,,,,,,,,,,,,,,,,,,down,0,17.6534,,-0.018518519,-0.151851852,1,0,0,5.6983,0,151,151,178,1,huisdier,images/br_huisdier.png,images/cb_huisdier.png,1,huisdierhuisdier,,,,,,,,,,,,,,,,,,,,,
,,,,,,00079,2023-10-29_16h44.43.635,vbt_B1_day2,2022.2.4,Win32,60.07449237,,,,,,,,,,,,,,,,,,,,,,,,,,,down,0,9.1311,,-0.018518519,-0.151851852,1,0,0,0.5331,0,152,152,191,1,opheffen,images/br_opheffen.png,images/cb_opheffen.png,0,,,,,,,,,,,,,,,,,,,,,,
,,,,,,00079,2023-10-29_16h44.43.635,vbt_B1_day2,2022.2.4,Win32,60.07449237,,,,,,,,,,,,,,,,,,,,,,,,,,,down,0,5.590400001,,-0.018518519,-0.151851852,1,0,0,0.6833,0,153,153,152,1,afnemen,images/br_afnemen.png,images/cb_afnemen.png,0,,,,,,,,,,,,,,,,,,,,,,
,,,,,,00079,2023-10-29_16h44.43.635,vbt_B1_day2,2022.2.4,Win32,60.07449237,,,,,,,,,,,,,,,,,,,,,,,,,,,down,0,3.9655,,-0.018518519,-0.151851852,1,0,0,0.5832,0,154,154,88,1,boeien,images/br_boeien.png,images/cb_boeien.png,0,,,,,,,,,,,,,,,,,,,,,,
,,,,,,00079,2023-10-29_16h44.43.635,vbt_B1_day2,2022.2.4,Win32,60.07449237,,,,,,,,,,,,,,,,,,,,,,,,,,,down,0,13.1999,,-0.018518519,-0.151851852,1,0,0,0.716,0,155,155,165,1,feestdag,images/br_feestdag.png,images/cb_feestdag.png,0,,,,,,,,,,,,,,,,,,,,,,
,,,,,,00079,2023-10-29_16h44.43.635,vbt_B1_day2,2022.2.4,Win32,60.07449237,,,,,,,,,,,,,,,,,,,,,,,,,,,down,0,10.5303,,-0.018518519,-0.151851852,1,0,0,0.5498,0,156,156,27,1,dans,images/br_dans.png,images/cb_dans.png,0,,,,,,,,,,,,,,,,,,,,,,
,,,,,,00079,2023-10-29_16h44.43.635,vbt_B1_day2,2022.2.4,Win32,60.07449237,,,,,,,,,,,,,,,,,,,,,,,,,,,down,0,3.488599999,,-0.018518519,-0.151851852,1,0,0,0.9497,0,157,157,19,1,geit,images/br_geit.png,images/cb_geit.png,1,geit,,,,,,,,,,,,,,,,,,,,,
,,,,,,00079,2023-10-29_16h44.43.635,vbt_B1_day2,2022.2.4,Win32,60.07449237,,,,,,,,,,,,,,,,,,,,,,,,,,,down,0,30.0628,,-0.018518519,-0.151851852,1,0,0,2.7655,0,158,158,147,1,komisch,images/br_komisch.png,images/cb_komisch.png,0,,,,,,,,,,,,,,,,,,,,,,
,,,,,,00079,2023-10-29_16h44.43.635,vbt_B1_day2,2022.2.4,Win32,60.07449237,,,,,,,,,,,,,,,,,,,,,,,,,,,down,0,6.502400001,,-0.018518519,-0.151851852,1,0,0,0.6161,0,159,159,46,1,jagen,images/br_jagen.png,images/cb_jagen.png,0,,,,,,,,,,,,,,,,,,,,,,
,,,,,,00079,2023-10-29_16h44.43.635,vbt_B1_day2,2022.2.4,Win32,60.07449237,,,,,,,,,,,,,,,,,,,,,,,,,,,down,0,6.5813,,-0.018518519,-0.151851852,1,0,0,0.5998,0,160,160,60,1,jasje,images/br_jasje.png,images/cb_jasje.png,0,,,,,,,,,,,,,,,,,,,,,,
,,,,,,00079,2023-10-29_16h44.43.635,vbt_B1_day2,2022.2.4,Win32,60.07449237,,,,,,,,,,,,,,,,,,,,,,,,,,,down,0,7.7056,,-0.018518519,-0.151851852,1,0,0,0.6664,0,161,161,4,1,moes,images/br_moes.png,images/cb_moes.png,0,,,,,,,,,,,,,,,,,,,,,,
,,,,,,00079,2023-10-29_16h44.43.635,vbt_B1_day2,2022.2.4,Win32,60.07449237,,,,,,,,,,,,,,,,,,,,,,,,,,,down,0,13.8022,,-0.018518519,-0.151851852,1,0,0,0.683299999,0,162,162,179,1,woestijn,images/br_woestijn.png,images/cb_woestijn.png,1,woestijn,,,,,,,,,,,,,,,,,,,,,
,,,,,,00079,2023-10-29_16h44.43.635,vbt_B1_day2,2022.2.4,Win32,60.07449237,,,,,,,,,,,,,,,,,,,,,,,,,,,down,0,8.0346,,-0.018518519,-0.151851852,1,0,0,0.633200001,0,163,163,136,1,waarbij,images/br_waarbij.png,images/cb_waarbij.png,1,waarbij,,,,,,,,,,,,,,,,,,,,,
,,,,,,00079,2023-10-29_16h44.43.635,vbt_B1_day2,2022.2.4,Win32,60.07449237,,,,,,,,,,,,,,,,,,,,,,,,,,,down,0,6.1355,,-0.018518519,-0.151851852,1,0,0,0.6402,0,164,164,16,1,ziek,images/br_ziek.png,images/cb_ziek.png,1,ziek,,,,,,,,,,,,,,,,,,,,,
,,,,,,00079,2023-10-29_16h44.43.635,vbt_B1_day2,2022.2.4,Win32,60.07449237,,,,,,,,,,,,,,,,,,,,,,,,,,,down,0,13.7691,,-0.018518519,-0.151851852,1,0,0,0.5165,0,165,165,79,1,nodig,images/br_nodig.png,images/cb_nodig.png,0,,,,,,,,,,,,,,,,,,,,,,
,,,,,,00079,2023-10-29_16h44.43.635,vbt_B1_day2,2022.2.4,Win32,60.07449237,,,,,,,,,,,,,,,,,,,,,,,,,,,down,0,7.873,,-0.018518519,-0.151851852,1,0,0,0.6664,0,166,166,8,1,knie,images/br_knie.png,images/cb_knie.png,0,,,,,,,,,,,,,,,,,,,,,,
,,,,,,00079,2023-10-29_16h44.43.635,vbt_B1_day2,2022.2.4,Win32,60.07449237,,,,,,,,,,,,,,,,,,,,,,,,,,,down,0,2.9501,,-0.018518519,-0.151851852,1,0,0,0.4827,0,167,167,31,1,poes,images/br_poes.png,images/cb_poes.png,0,,,,,,,,,,,,,,,,,,,,,,
,,,,,,00079,2023-10-29_16h44.43.635,vbt_B1_day2,2022.2.4,Win32,60.07449237,,,,,,,,,,,,,,,,,,,,,,,,,,,down,0,0.850200001,,-0.018518519,-0.151851852,1,0,0,0.483099999,0,168,168,84,1,lokken,images/br_lokken.png,images/cb_lokken.png,0,,,,,,,,,,,,,,,,,,,,,,
,,,,,,00079,2023-10-29_16h44.43.635,vbt_B1_day2,2022.2.4,Win32,60.07449237,,,,,,,,,,,,,,,,,,,,,,,,,,,down,0,14.5297,,-0.018518519,-0.151851852,1,0,0,0.6329,0,169,169,198,1,bedoelen,images/br_bedoelen.png,images/cb_bedoelen.png,0,,,,,,,,,,,,,,,,,,,,,,
,,,,,,00079,2023-10-29_16h44.43.635,vbt_B1_day2,2022.2.4,Win32,60.07449237,,,,,,,,,,,,,,,,,,,,,,,,,,,down,0,19.1609,,-0.018518519,-0.151851852,1,0,0,1.483,0,170,170,182,1,bijkomen,images/br_bijkomen.png,images/cb_bijkomen.png,0,,,,,,,,,,,,,,,,,,,,,,
,,,,,,00079,2023-10-29_16h44.43.635,vbt_B1_day2,2022.2.4,Win32,60.07449237,,,,,,,,,,,,,,,,,,,,,,,,,,,down,0,5.315099999,,-0.018518519,-0.151851852,1,0,0,0.5327,0,171,171,125,1,aanzien,images/br_aanzien.png,images/cb_aanzien.png,0,,,,,,,,,,,,,,,,,,,,,,
,,,,,,00079,2023-10-29_16h44.43.635,vbt_B1_day2,2022.2.4,Win32,60.07449237,,,,,,,,,,,,,,,,,,,,,,,,,,,down,0,4.6199,,-0.018518519,-0.151851852,1,0,0,0.6835,0,172,172,61,1,groen,images/br_groen.png,images/cb_groen.png,0,,,,,,,,,,,,,,,,,,,,,,
,,,,,,00079,2023-10-29_16h44.43.635,vbt_B1_day2,2022.2.4,Win32,60.07449237,,,,,,,,,,,,,,,,,,,,,,,,,,,down,0,10.9147,,-0.018518519,-0.151851852,1,0,0,0.9995,0,173,173,123,1,hiervan,images/br_hiervan.png,images/cb_hiervan.png,0,,,,,,,,,,,,,,,,,,,,,,
,,,,,,00079,2023-10-29_16h44.43.635,vbt_B1_day2,2022.2.4,Win32,60.07449237,,,,,,,,,,,,,,,,,,,,,,,,,,,down,0,10.0135,,-0.018518519,-0.151851852,1,0,0,0.6833,0,174,174,71,1,bever,images/br_bever.png,images/cb_bever.png,0,,,,,,,,,,,,,,,,,,,,,,
,,,,,,00079,2023-10-29_16h44.43.635,vbt_B1_day2,2022.2.4,Win32,60.07449237,,,,,,,,,,,,,,,,,,,,,,,,,,,down,0,10.7136,,-0.018518519,-0.151851852,1,0,0,0.533299999,0,175,175,119,1,liefje,images/br_liefje.png,images/cb_liefje.png,0,,,,,,,,,,,,,,,,,,,,,,
,,,,,,00079,2023-10-29_16h44.43.635,vbt_B1_day2,2022.2.4,Win32,60.07449237,,,,,,,,,,,,,,,,,,,,,,,,,,,down,0,10.3301,,-0.018518519,-0.151851852,1,0,0,0.6331,0,176,176,167,1,eenhoorn,images/br_eenhoorn.png,images/cb_eenhoorn.png,0,,,,,,,,,,,,,,,,,,,,,,
,,,,,,00079,2023-10-29_16h44.43.635,vbt_B1_day2,2022.2.4,Win32,60.07449237,,,,,,,,,,,,,,,,,,,,,,,,,,,down,0,11.913,,-0.018518519,-0.151851852,1,0,0,0.4998,0,177,177,160,1,daarheen,images/br_daarheen.png,images/cb_daarheen.png,0,,,,,,,,,,,,,,,,,,,,,,
,,,,,,00079,2023-10-29_16h44.43.635,vbt_B1_day2,2022.2.4,Win32,60.07449237,,,,,,,,,,,,,,,,,,,,,,,,,,,down,0,5.6487,,-0.018518519,-0.151851852,1,0,0,0.566599999,0,178,178,163,1,schuilen,images/br_schuilen.png,images/cb_schuilen.png,0,,,,,,,,,,,,,,,,,,,,,,
,,,,,,00079,2023-10-29_16h44.43.635,vbt_B1_day2,2022.2.4,Win32,60.07449237,,,,,,,,,,,,,,,,,,,,,,,,,,,down,0,29.6614,,-0.018518519,-0.151851852,1,0,0,3.989,0,179,179,43,1,klauw,images/br_klauw.png,images/cb_klauw.png,0,,,,,,,,,,,,,,,,,,,,,,
,,,,,,00079,2023-10-29_16h44.43.635,vbt_B1_day2,2022.2.4,Win32,60.07449237,,,,,,,,,,,,,,,,,,,,,,,,,,,down,0,13.8624,,-0.018518519,-0.151851852,1,0,0,0.5332,0,180,180,184,1,aandelen,images/br_aandelen.png,images/cb_aandelen.png,0,,,,,,,,,,,,,,,,,,,,,,
,,,,,,00079,2023-10-29_16h44.43.635,vbt_B1_day2,2022.2.4,Win32,60.07449237,,,,,,,,,,,,,,,,,,,,,,,,,,,down,0,6.123,,-0.018518519,-0.151851852,1,0,0,0.5665,0,181,181,49,1,laken,images/br_laken.png,images/cb_laken.png,0,,,,,,,,,,,,,,,,,,,,,,
,,,,,,00079,2023-10-29_16h44.43.635,vbt_B1_day2,2022.2.4,Win32,60.07449237,,,,,,,,,,,,,,,,,,,,,,,,,,,down,0,8.8803,,-0.018518519,-0.151851852,1,0,0,0.4834,0,182,182,140,1,blijven,images/br_blijven.png,images/cb_blijven.png,0,,,,,,,,,,,,,,,,,,,,,,
,,,,,,00079,2023-10-29_16h44.43.635,vbt_B1_day2,2022.2.4,Win32,60.07449237,,,,,,,,,,,,,,,,,,,,,,,,,,,down,0,7.914700001,,-0.018518519,-0.151851852,1,0,0,0.5164,0,183,183,54,1,gebit,images/br_gebit.png,images/cb_gebit.png,0,,,,,,,,,,,,,,,,,,,,,,
,,,,,,00079,2023-10-29_16h44.43.635,vbt_B1_day2,2022.2.4,Win32,60.07449237,,,,,,,,,,,,,,,,,,,,,,,,,,,down,0,3.382400001,,-0.018518519,-0.151851852,1,0,0,0.453900001,0,184,184,109,1,totaal,images/br_totaal.png,images/cb_totaal.png,0,,,,,,,,,,,,,,,,,,,,,,
,,,,,,00079,2023-10-29_16h44.43.635,vbt_B1_day2,2022.2.4,Win32,60.07449237,,,,,,,,,,,,,,,,,,,,,,,,,,,down,0,12.0627,,-0.018518519,-0.151851852,1,0,0,0.4663,0,185,185,134,1,geliefd,images/br_geliefd.png,images/cb_geliefd.png,0,,,,,,,,,,,,,,,,,,,,,,
,,,,,,00079,2023-10-29_16h44.43.635,vbt_B1_day2,2022.2.4,Win32,60.07449237,,,,,,,,,,,,,,,,,,,,,,,,,,,down,0,2.9733,,-0.018518519,-0.151851852,1,0,0,0.5832,0,186,186,57,1,steek,images/br_steek.png,images/cb_steek.png,1,steek,,,,,,,,,,,,,,,,,,,,,
,,,,,,00079,2023-10-29_16h44.43.635,vbt_B1_day2,2022.2.4,Win32,60.07449237,,,,,,,,,,,,,,,,,,,,,,,,,,,down,0,7.5311,,-0.018518519,-0.151851852,1,0,0,0.6497,0,187,187,38,1,baai,images/br_baai.png,images/cb_baai.png,0,,,,,,,,,,,,,,,,,,,,,,
,,,,,,00079,2023-10-29_16h44.43.635,vbt_B1_day2,2022.2.4,Win32,60.07449237,,,,,,,,,,,,,,,,,,,,,,,,,,,down,0,12.3049,,-0.018518519,-0.151851852,1,0,0,0.6001,0,188,188,158,1,innemen,images/br_innemen.png,images/cb_innemen.png,0,,,,,,,,,,,,,,,,,,,,,,
,,,,,,00079,2023-10-29_16h44.43.635,vbt_B1_day2,2022.2.4,Win32,60.07449237,,,,,,,,,,,,,,,,,,,,,,,,,,,down,0,13.7455,,-0.018518519,-0.151851852,1,0,0,1.7994,0,189,189,70,1,ijdel,images/br_ijdel.png,images/cb_ijdel.png,0,,,,,,,,,,,,,,,,,,,,,,
,,,,,,00079,2023-10-29_16h44.43.635,vbt_B1_day2,2022.2.4,Win32,60.07449237,,,,,,,,,,,,,,,,,,,,,,,,,,,down,0,1.525599999,,-0.018518519,-0.151851852,1,0,0,0.4997,0,190,190,48,1,steel,images/br_steel.png,images/cb_steel.png,0,,,,,,,,,,,,,,,,,,,,,,
,,,,,,00079,2023-10-29_16h44.43.635,vbt_B1_day2,2022.2.4,Win32,60.07449237,,,,,,,,,,,,,,,,,,,,,,,,,,,down,0,2.4867,,-0.018518519,-0.151851852,1,0,0,0.532900001,0,191,191,73,1,volop,images/br_volop.png,images/cb_volop.png,0,,,,,,,,,,,,,,,,,,,,,,
,,,,,,00079,2023-10-29_16h44.43.635,vbt_B1_day2,2022.2.4,Win32,60.07449237,,,,,,,,,,,,,,,,,,,,,,,,,,,down,0,6.1648,,-0.018518519,-0.151851852,1,0,0,0.566400001,0,192,192,122,1,waarvan,images/br_waarvan.png,images/cb_waarvan.png,0,,,,,,,,,,,,,,,,,,,,,,
,,,,,,00079,2023-10-29_16h44.43.635,vbt_B1_day2,2022.2.4,Win32,60.07449237,,,,,,,,,,,,,,,,,,,,,,,,,,,down,0,7.5499,,-0.018518519,-0.151851852,1,0,0,0.5495,0,193,193,90,1,geluid,images/br_geluid.png,images/cb_geluid.png,0,,,,,,,,,,,,,,,,,,,,,,
,,,,,,00079,2023-10-29_16h44.43.635,vbt_B1_day2,2022.2.4,Win32,60.07449237,,,,,,,,,,,,,,,,,,,,,,,,,,,down,0,6.0149,,-0.018518519,-0.151851852,1,0,0,1.2992,0,194,194,117,1,kennis,images/br_kennis.png,images/cb_kennis.png,0,,,,,,,,,,,,,,,,,,,,,,
,,,,,,00079,2023-10-29_16h44.43.635,vbt_B1_day2,2022.2.4,Win32,60.07449237,,,,,,,,,,,,,,,,,,,,,,,,,,,down,0,15.5967,,-0.018518519,-0.151851852,1,0,0,0.8828,0,195,195,94,1,oceaan,images/br_oceaan.png,images/cb_oceaan.png,0,,,,,,,,,,,,,,,,,,,,,,
,,,,,,00079,2023-10-29_16h44.43.635,vbt_B1_day2,2022.2.4,Win32,60.07449237,,,,,,,,,,,,,,,,,,,,,,,,,,,down,0,6.5482,,-0.018518519,-0.151851852,1,0,0,0.533,0,196,196,87,1,toeval,images/br_toeval.png,images/cb_toeval.png,0,,,,,,,,,,,,,,,,,,,,,,
,,,,,,00079,2023-10-29_16h44.43.635,vbt_B1_day2,2022.2.4,Win32,60.07449237,,,,,,,,,,,,,,,,,,,,,,,,,,,down,0,1.5404,,-0.018518519,-0.151851852,1,0,0,2.0993,0,197,197,50,1,stoom,images/br_stoom.png,images/cb_stoom.png,0,,,,,,,,,,,,,,,,,,,,,,
,,,,,,00079,2023-10-29_16h44.43.635,vbt_B1_day2,2022.2.4,Win32,60.07449237,,,,,,,,,,,,,,,,,,,,,,,,,,,down,0,15.9453,,-0.018518519,-0.151851852,1,0,0,0.5165,0,198,198,6,1,diep,images/br_diep.png,images/cb_diep.png,0,,,,,,,,,,,,,,,,,,,,,,
,,,,,,00079,2023-10-29_16h44.43.635,vbt_B1_day2,2022.2.4,Win32,60.07449237,,,,,,,,,,,,,,,,,,,,,,,,,,,down,0,2.399599999,,-0.018518519,-0.151851852,1,0,0,0.483,0,199,199,22,1,stof,images/br_stof.png,images/cb_stof.png,0,,,,,,,,,,,,,,,,,,,,,,
,,,,,,00079,2023-10-29_16h44.43.635,vbt_B1_day2,2022.2.4,Win32,60.07449237,,,,,,,,,,,,,,,,,,,,,,,,,,,,,,,,,,,,,,,,,,,,,,,-0.018518519,-0.151851852,1,0,0,,,,,,,,,,,,,,,,
,,,,,,00079,2023-10-29_16h44.43.635,vbt_B1_day2,2022.2.4,Win32,60.07449237,,,,,,,,,,,,,,,,,,,,,,,,,,,,,,,,,,,,,,,,,,,,,,,,,,,,-0.018518519,-0.151851852,1,0,0,,,,,,,,,,,
,,,,,,00079,2023-10-29_16h44.43.635,vbt_B1_day2,2022.2.4,Win32,60.07449237,,,,,,,,,,,,,,,,,,,,,,,,,,,,,,,,,,,,,,,,,,woning,images/br_woning.png,images/cb_woning.png,,koning,,,,,,,,,,,-0.018518519,-0.151851852,1,0,0,koning,0,0,0,10,1
,,,,,,00079,2023-10-29_16h44.43.635,vbt_B1_day2,2022.2.4,Win32,60.07449237,,,,,,,,,,,,,,,,,,,,,,,,,,,,,,,,,,,,,,,,,,joes,images/br_joes.png,images/cb_joes.png,,hoes,,,,,,,,,,,-0.018518519,-0.151851852,1,0,0,hoes,0,1,1,20,1
,,,,,,00079,2023-10-29_16h44.43.635,vbt_B1_day2,2022.2.4,Win32,60.07449237,,,,,,,,,,,,,,,,,,,,,,,,,,,,,,,,,,,,,,,,,,zomers,images/br_zomers.png,images/cb_zomers.png,,.omers,,,,,,,,,,,-0.033333333,-0.200925926,1,0,0,.omers,0,2,2,48,1
,,,,,,00079,2023-10-29_16h44.43.635,vbt_B1_day2,2022.2.4,Win32,60.07449237,,,,,,,,,,,,,,,,,,,,,,,,,,,,,,,,,,,,,,,,,,badon,images/br_badon.png,images/cb_badon.png,,ba.on,,,,,,,,,,,-0.033333333,-0.200925926,1,0,0,ba.on,0,3,3,26,1
,,,,,,00079,2023-10-29_16h44.43.635,vbt_B1_day2,2022.2.4,Win32,60.07449237,,,,,,,,,,,,,,,,,,,,,,,,,,,,,,,,,,,,,,,,,,toeval,images/br_toeval.png,images/cb_toeval.png,,toeval,,,,,,,,,,,0.003703704,-0.107407407,1,0,0,toeval,0,4,4,11,1
,,,,,,00079,2023-10-29_16h44.43.635,vbt_B1_day2,2022.2.4,Win32,60.07449237,,,,,,,,,,,,,,,,,,,,,,,,,,,,,,,,,,,,,,,,,,welzijn,images/br_welzijn.png,images/cb_welzijn.png,,welz...,,,,,,,,,,,0.003703704,-0.107407407,1,0,0,welz...,0,5,5,52,1
,,,,,,00079,2023-10-29_16h44.43.635,vbt_B1_day2,2022.2.4,Win32,60.07449237,,,,,,,,,,,,,,,,,,,,,,,,,,,,,,,,,,,,,,,,,,diep,images/br_diep.png,images/cb_diep.png,,diep,,,,,,,,,,,0.003703704,-0.107407407,1,0,0,diep,0,6,6,2,1
,,,,,,00079,2023-10-29_16h44.43.635,vbt_B1_day2,2022.2.4,Win32,60.07449237,,,,,,,,,,,,,,,,,,,,,,,,,,,,,,,,,,,,,,,,,,sjijfel,images/br_sjijfel.png,images/cb_sjijfel.png,,s.....,,,,,,,,,,,0.003703704,-0.107407407,1,0,0,s.....,0,7,7,33,1
,,,,,,00079,2023-10-29_16h44.43.635,vbt_B1_day2,2022.2.4,Win32,60.07449237,,,,,,,,,,,,,,,,,,,,,,,,,,,,,,,,,,,,,,,,,,bloeien,images/br_bloeien.png,images/cb_bloeien.png,,bloeien,,,,,,,,,,,0.003703704,-0.107407407,1,0,0,bloeien,0,8,8,12,1
,,,,,,00079,2023-10-29_16h44.43.635,vbt_B1_day2,2022.2.4,Win32,60.07449237,,,,,,,,,,,,,,,,,,,,,,,,,,,,,,,,,,,,,,,,,,kenzis,images/br_kenzis.png,images/cb_kenzis.png,,kennis,,,,,,,,,,,0.003703704,-0.107407407,1,0,0,kennis,0,9,9,30,1
,,,,,,00079,2023-10-29_16h44.43.635,vbt_B1_day2,2022.2.4,Win32,60.07449237,,,,,,,,,,,,,,,,,,,,,,,,,,,,,,,,,,,,,,,,,,krimmen,images/br_krimmen.png,images/cb_krimmen.png,,kr.nn..,,,,,,,,,,,0.003703704,-0.107407407,1,0,0,kr.nn..,0,10,10,35,1
,,,,,,00079,2023-10-29_16h44.43.635,vbt_B1_day2,2022.2.4,Win32,60.07449237,,,,,,,,,,,,,,,,,,,,,,,,,,,,,,,,,,,,,,,,,,strikken,images/br_strikken.png,images/cb_strikken.png,,strikken,,,,,,,,,,,0.003703704,-0.107407407,1,0,0,strikken,0,11,11,18,1
,,,,,,00079,2023-10-29_16h44.43.635,vbt_B1_day2,2022.2.4,Win32,60.07449237,,,,,,,,,,,,,,,,,,,,,,,,,,,,,,,,,,,,,,,,,,prekken,images/br_prekken.png,images/cb_prekken.png,,prekken,,,,,,,,,,,0.003703704,-0.107407407,1,0,0,prekken,0,12,12,34,1
,,,,,,00079,2023-10-29_16h44.43.635,vbt_B1_day2,2022.2.4,Win32,60.07449237,,,,,,,,,,,,,,,,,,,,,,,,,,,,,,,,,,,,,,,,,,sora,images/br_sora.png,images/cb_sora.png,,sora,,,,,,,,,,,0.003703704,-0.107407407,1,0,0,sora,0,13,13,22,1
,,,,,,00079,2023-10-29_16h44.43.635,vbt_B1_day2,2022.2.4,Win32,60.07449237,,,,,,,,,,,,,,,,,,,,,,,,,,,,,,,,,,,,,,,,,,kabel,images/br_kabel.png,images/cb_kabel.png,,kabel,,,,,,,,,,,0.003703704,-0.107407407,1,0,0,kabel,0,14,14,7,1
,,,,,,00079,2023-10-29_16h44.43.635,vbt_B1_day2,2022.2.4,Win32,60.07449237,,,,,,,,,,,,,,,,,,,,,,,,,,,,,,,,,,,,,,,,,,lijnen,images/br_lijnen.png,images/cb_lijnen.png,,li.en,,,,,,,,,,,0.003703704,-0.107407407,1,0,0,li.en,0,15,15,51,1
,,,,,,00079,2023-10-29_16h44.43.635,vbt_B1_day2,2022.2.4,Win32,60.07449237,,,,,,,,,,,,,,,,,,,,,,,,,,,,,,,,,,,,,,,,,,breuk,images/br_breuk.png,images/cb_breuk.png,,breuk,,,,,,,,,,,0.003703704,-0.107407407,1,0,0,breuk,0,16,16,45,1
,,,,,,00079,2023-10-29_16h44.43.635,vbt_B1_day2,2022.2.4,Win32,60.07449237,,,,,,,,,,,,,,,,,,,,,,,,,,,,,,,,,,,,,,,,,,koorts,images/br_koorts.png,images/cb_koorts.png,,koorts,,,,,,,,,,,0.003703704,-0.107407407,1,0,0,koorts,0,17,17,50,1
,,,,,,00079,2023-10-29_16h44.43.635,vbt_B1_day2,2022.2.4,Win32,60.07449237,,,,,,,,,,,,,,,,,,,,,,,,,,,,,,,,,,,,,,,,,,geld,images/br_geld.png,images/cb_geld.png,,geld,,,,,,,,,,,0.003703704,-0.107407407,1,0,0,geld,0,18,18,3,1
,,,,,,00079,2023-10-29_16h44.43.635,vbt_B1_day2,2022.2.4,Win32,60.07449237,,,,,,,,,,,,,,,,,,,,,,,,,,,,,,,,,,,,,,,,,,opdatten,images/br_opdatten.png,images/cb_opdatten.png,,opha...,,,,,,,,,,,0.003703704,-0.107407407,1,0,0,opha...,0,19,19,37,1
,,,,,,00079,2023-10-29_16h44.43.635,vbt_B1_day2,2022.2.4,Win32,60.07449237,,,,,,,,,,,,,,,,,,,,,,,,,,,,,,,,,,,,,,,,,,doodmoe,images/br_doodmoe.png,images/cb_doodmoe.png,,dood...,,,,,,,,,,,0.003703704,-0.107407407,1,0,0,dood...,0,20,20,15,1
,,,,,,00079,2023-10-29_16h44.43.635,vbt_B1_day2,2022.2.4,Win32,60.07449237,,,,,,,,,,,,,,,,,,,,,,,,,,,,,,,,,,,,,,,,,,plannen,images/br_plannen.png,images/cb_plannen.png,,plannen,,,,,,,,,,,0.003703704,-0.107407407,1,0,0,plannen,0,21,21,55,1
,,,,,,00079,2023-10-29_16h44.43.635,vbt_B1_day2,2022.2.4,Win32,60.07449237,,,,,,,,,,,,,,,,,,,,,,,,,,,,,,,,,,,,,,,,,,kasteel,images/br_kasteel.png,images/cb_kasteel.png,,kasteel,,,,,,,,,,,0.003703704,-0.107407407,1,0,0,kasteel,0,22,22,14,1
,,,,,,00079,2023-10-29_16h44.43.635,vbt_B1_day2,2022.2.4,Win32,60.07449237,,,,,,,,,,,,,,,,,,,,,,,,,,,,,,,,,,,,,,,,,,wijve,images/br_wijve.png,images/cb_wijve.png,,wi...,,,,,,,,,,,0.003703704,-0.107407407,1,0,0,wi...,0,23,23,27,1
,,,,,,00079,2023-10-29_16h44.43.635,vbt_B1_day2,2022.2.4,Win32,60.07449237,,,,,,,,,,,,,,,,,,,,,,,,,,,,,,,,,,,,,,,,,,flits,images/br_flits.png,images/cb_flits.png,,flits,,,,,,,,,,,0.003703704,-0.107407407,1,0,0,flits,0,24,24,4,1
,,,,,,00079,2023-10-29_16h44.43.635,vbt_B1_day2,2022.2.4,Win32,60.07449237,,,,,,,,,,,,,,,,,,,,,,,,,,,,,,,,,,,,,,,,,,ophuimen,images/br_ophuimen.png,images/cb_ophuimen.png,,opha....,,,,,,,,,,,0.003703704,-0.107407407,1,0,0,opha....,0,25,25,36,1
,,,,,,00079,2023-10-29_16h44.43.635,vbt_B1_day2,2022.2.4,Win32,60.07449237,,,,,,,,,,,,,,,,,,,,,,,,,,,,,,,,,,,,,,,,,,thema,images/br_thema.png,images/cb_thema.png,,th....,,,,,,,,,,,0.003703704,-0.107407407,1,0,0,th....,0,26,26,47,1
,,,,,,00079,2023-10-29_16h44.43.635,vbt_B1_day2,2022.2.4,Win32,60.07449237,,,,,,,,,,,,,,,,,,,,,,,,,,,,,,,,,,,,,,,,,,manieren,images/br_manieren.png,images/cb_manieren.png,,.andie...,,,,,,,,,,,0.003703704,-0.107407407,1,0,0,.andie...,0,27,27,56,1
,,,,,,00079,2023-10-29_16h44.43.635,vbt_B1_day2,2022.2.4,Win32,60.07449237,,,,,,,,,,,,,,,,,,,,,,,,,,,,,,,,,,,,,,,,,,piste,images/br_piste.png,images/cb_piste.png,,piste,,,,,,,,,,,0.003703704,-0.107407407,1,0,0,piste,0,28,28,5,1
,,,,,,00079,2023-10-29_16h44.43.635,vbt_B1_day2,2022.2.4,Win32,60.07449237,,,,,,,,,,,,,,,,,,,,,,,,,,,,,,,,,,,,,,,,,,kijlen,images/br_kijlen.png,images/cb_kijlen.png,,kil.en,,,,,,,,,,,0.003703704,-0.107407407,1,0,0,kil.en,0,29,29,31,1
,,,,,,00079,2023-10-29_16h44.43.635,vbt_B1_day2,2022.2.4,Win32,60.07449237,,,,,,,,,,,,,,,,,,,,,,,,,,,,,,,,,,,,,,,,,,sifferd,images/br_sifferd.png,images/cb_sifferd.png,,siffe...,,,,,,,,,,,0.003703704,-0.107407407,1,0,0,siffe...,0,30,30,32,1
,,,,,,00079,2023-10-29_16h44.43.635,vbt_B1_day2,2022.2.4,Win32,60.07449237,,,,,,,,,,,,,,,,,,,,,,,,,,,,,,,,,,,,,,,,,,tand,images/br_tand.png,images/cb_tand.png,,tand,,,,,,,,,,,0.003703704,-0.107407407,1,0,0,tand,0,31,31,42,1
,,,,,,00079,2023-10-29_16h44.43.635,vbt_B1_day2,2022.2.4,Win32,60.07449237,,,,,,,,,,,,,,,,,,,,,,,,,,,,,,,,,,,,,,,,,,eenhoorn,images/br_eenhoorn.png,images/cb_eenhoorn.png,,eenh...,,,,,,,,,,,0.003703704,-0.107407407,1,0,0,eenh...,0,32,32,19,1
,,,,,,00079,2023-10-29_16h44.43.635,vbt_B1_day2,2022.2.4,Win32,60.07449237,,,,,,,,,,,,,,,,,,,,,,,,,,,,,,,,,,,,,,,,,,systeem,images/br_systeem.png,images/cb_systeem.png,,sys....,,,,,,,,,,,0.003703704,-0.107407407,1,0,0,sys....,0,33,33,54,1
,,,,,,00079,2023-10-29_16h44.43.635,vbt_B1_day2,2022.2.4,Win32,60.07449237,,,,,,,,,,,,,,,,,,,,,,,,,,,,,,,,,,,,,,,,,,tweeling,images/br_tweeling.png,images/cb_tweeling.png,,.eel.i...,,,,,,,,,,,0.003703704,-0.107407407,1,0,0,.eel.i...,0,34,34,58,1
,,,,,,00079,2023-10-29_16h44.43.635,vbt_B1_day2,2022.2.4,Win32,60.07449237,,,,,,,,,,,,,,,,,,,,,,,,,,,,,,,,,,,,,,,,,,heengeen,images/br_heengeen.png,images/cb_heengeen.png,,heeng...,,,,,,,,,,,0.003703704,-0.107407407,1,0,0,heeng...,0,35,35,38,1
,,,,,,00079,2023-10-29_16h44.43.635,vbt_B1_day2,2022.2.4,Win32,60.07449237,,,,,,,,,,,,,,,,,,,,,,,,,,,,,,,,,,,,,,,,,,heilig,images/br_heilig.png,images/cb_heilig.png,,heilig,,,,,,,,,,,0.003703704,-0.107407407,1,0,0,heilig,0,36,36,9,1
,,,,,,00079,2023-10-29_16h44.43.635,vbt_B1_day2,2022.2.4,Win32,60.07449237,,,,,,,,,,,,,,,,,,,,,,,,,,,,,,,,,,,,,,,,,,aanvraag,images/br_aanvraag.png,images/cb_aanvraag.png,,aanvraag,,,,,,,,,,,0.003703704,-0.107407407,1,0,0,aanvraag,0,37,37,57,1
,,,,,,00079,2023-10-29_16h44.43.635,vbt_B1_day2,2022.2.4,Win32,60.07449237,,,,,,,,,,,,,,,,,,,,,,,,,,,,,,,,,,,,,,,,,,remel,images/br_remel.png,images/cb_remel.png,,remel,,,,,,,,,,,0.003703704,-0.107407407,1,0,0,remel,0,38,38,25,1
,,,,,,00079,2023-10-29_16h44.43.635,vbt_B1_day2,2022.2.4,Win32,60.07449237,,,,,,,,,,,,,,,,,,,,,,,,,,,,,,,,,,,,,,,,,,goon,images/br_goon.png,images/cb_goon.png,,goon,,,,,,,,,,,0.003703704,-0.107407407,1,0,0,goon,0,39,39,23,1
,,,,,,00079,2023-10-29_16h44.43.635,vbt_B1_day2,2022.2.4,Win32,60.07449237,,,,,,,,,,,,,,,,,,,,,,,,,,,,,,,,,,,,,,,,,,jong,images/br_jong.png,images/cb_jong.png,,jo..,,,,,,,,,,,0.003703704,-0.107407407,1,0,0,jo..,0,40,40,43,1
,,,,,,00079,2023-10-29_16h44.43.635,vbt_B1_day2,2022.2.4,Win32,60.07449237,,,,,,,,,,,,,,,,,,,,,,,,,,,,,,,,,,,,,,,,,,trots,images/br_trots.png,images/cb_trots.png,,trots,,,,,,,,,,,0.003703704,-0.107407407,1,0,0,trots,0,41,41,44,1
,,,,,,00079,2023-10-29_16h44.43.635,vbt_B1_day2,2022.2.4,Win32,60.07449237,,,,,,,,,,,,,,,,,,,,,,,,,,,,,,,,,,,,,,,,,,agressie,images/br_agressie.png,images/cb_agressie.png,,agressie,,,,,,,,,,,0.003703704,-0.107407407,1,0,0,agressie,0,42,42,59,1
,,,,,,00079,2023-10-29_16h44.43.635,vbt_B1_day2,2022.2.4,Win32,60.07449237,,,,,,,,,,,,,,,,,,,,,,,,,,,,,,,,,,,,,,,,,,negel,images/br_negel.png,images/cb_negel.png,,.egel,,,,,,,,,,,0.003703704,-0.107407407,1,0,0,.egel,0,43,43,24,1
,,,,,,00079,2023-10-29_16h44.43.635,vbt_B1_day2,2022.2.4,Win32,60.07449237,,,,,,,,,,,,,,,,,,,,,,,,,,,,,,,,,,,,,,,,,,anarchie,images/br_anarchie.png,images/cb_anarchie.png,,a.ar...,,,,,,,,,,,0.003703704,-0.107407407,1,0,0,a.ar...,0,44,44,16,1
,,,,,,00079,2023-10-29_16h44.43.635,vbt_B1_day2,2022.2.4,Win32,60.07449237,,,,,,,,,,,,,,,,,,,,,,,,,,,,,,,,,,,,,,,,,,moes,images/br_moes.png,images/cb_moes.png,,moes,,,,,,,,,,,0.003703704,-0.107407407,1,0,0,moes,0,45,45,0,1
,,,,,,00079,2023-10-29_16h44.43.635,vbt_B1_day2,2022.2.4,Win32,60.07449237,,,,,,,,,,,,,,,,,,,,,,,,,,,,,,,,,,,,,,,,,,stes,images/br_stes.png,images/cb_stes.png,,stes,,,,,,,,,,,0.003703704,-0.107407407,1,0,0,stes,0,46,46,21,1
,,,,,,00079,2023-10-29_16h44.43.635,vbt_B1_day2,2022.2.4,Win32,60.07449237,,,,,,,,,,,,,,,,,,,,,,,,,,,,,,,,,,,,,,,,,,aanzien,images/br_aanzien.png,images/cb_aanzien.png,,aan....,,,,,,,,,,,0.003703704,-0.107407407,1,0,0,aan....,0,47,47,13,1
,,,,,,00079,2023-10-29_16h44.43.635,vbt_B1_day2,2022.2.4,Win32,60.07449237,,,,,,,,,,,,,,,,,,,,,,,,,,,,,,,,,,,,,,,,,,zegel,images/br_zegel.png,images/cb_zegel.png,,zegel,,,,,,,,,,,0.003703704,-0.107407407,1,0,0,zegel,0,48,48,46,1
,,,,,,00079,2023-10-29_16h44.43.635,vbt_B1_day2,2022.2.4,Win32,60.07449237,,,,,,,,,,,,,,,,,,,,,,,,,,,,,,,,,,,,,,,,,,feestdag,images/br_feestdag.png,images/cb_feestdag.png,,feestdag,,,,,,,,,,,0.003703704,-0.107407407,1,0,0,feestdag,0,49,49,17,1
,,,,,,00079,2023-10-29_16h44.43.635,vbt_B1_day2,2022.2.4,Win32,60.07449237,,,,,,,,,,,,,,,,,,,,,,,,,,,,,,,,,,,,,,,,,,zwager,images/br_zwager.png,images/cb_zwager.png,,zwart,,,,,,,,,,,0.003703704,-0.107407407,1,0,0,zwart,0,50,50,49,1
,,,,,,00079,2023-10-29_16h44.43.635,vbt_B1_day2,2022.2.4,Win32,60.07449237,,,,,,,,,,,,,,,,,,,,,,,,,,,,,,,,,,,,,,,,,,ningen,images/br_ningen.png,images/cb_ningen.png,,ning..,,,,,,,,,,,0.003703704,-0.107407407,1,0,0,ning..,0,51,51,28,1
,,,,,,00079,2023-10-29_16h44.43.635,vbt_B1_day2,2022.2.4,Win32,60.07449237,,,,,,,,,,,,,,,,,,,,,,,,,,,,,,,,,,,,,,,,,,dode,images/br_dode.png,images/cb_dode.png,,dode,,,,,,,,,,,0.003703704,-0.107407407,1,0,0,dode,0,52,52,41,1
,,,,,,00079,2023-10-29_16h44.43.635,vbt_B1_day2,2022.2.4,Win32,60.07449237,,,,,,,,,,,,,,,,,,,,,,,,,,,,,,,,,,,,,,,,,,inzicht,images/br_inzicht.png,images/cb_inzicht.png,,inzicht,,,,,,,,,,,0.003703704,-0.107407407,1,0,0,inzicht,0,53,53,53,1
,,,,,,00079,2023-10-29_16h44.43.635,vbt_B1_day2,2022.2.4,Win32,60.07449237,,,,,,,,,,,,,,,,,,,,,,,,,,,,,,,,,,,,,,,,,,bereuwen,images/br_bereuwen.png,images/cb_bereuwen.png,,bere...,,,,,,,,,,,0.003703704,-0.107407407,1,0,0,bere...,0,54,54,39,1
,,,,,,00079,2023-10-29_16h44.43.635,vbt_B1_day2,2022.2.4,Win32,60.07449237,,,,,,,,,,,,,,,,,,,,,,,,,,,,,,,,,,,,,,,,,,jagen,images/br_jagen.png,images/cb_jagen.png,,jagen,,,,,,,,,,,0.003703704,-0.107407407,1,0,0,jagen,0,55,55,6,1
,,,,,,00079,2023-10-29_16h44.43.635,vbt_B1_day2,2022.2.4,Win32,60.07449237,,,,,,,,,,,,,,,,,,,,,,,,,,,,,,,,,,,,,,,,,,clan,images/br_clan.png,images/cb_clan.png,,clan,,,,,,,,,,,0.003703704,-0.107407407,1,0,0,clan,0,56,56,40,1
,,,,,,00079,2023-10-29_16h44.43.635,vbt_B1_day2,2022.2.4,Win32,60.07449237,,,,,,,,,,,,,,,,,,,,,,,,,,,,,,,,,,,,,,,,,,blad,images/br_blad.png,images/cb_blad.png,,blad,,,,,,,,,,,0.003703704,-0.107407407,1,0,0,blad,0,57,57,1,1
,,,,,,00079,2023-10-29_16h44.43.635,vbt_B1_day2,2022.2.4,Win32,60.07449237,,,,,,,,,,,,,,,,,,,,,,,,,,,,,,,,,,,,,,,,,,lokken,images/br_lokken.png,images/cb_lokken.png,,lokken,,,,,,,,,,,0.003703704,-0.107407407,1,0,0,lokken,0,58,58,8,1
,,,,,,00079,2023-10-29_16h44.43.635,vbt_B1_day2,2022.2.4,Win32,60.07449237,,,,,,,,,,,,,,,,,,,,,,,,,,,,,,,,,,,,,,,,,,lurgen,images/br_lurgen.png,images/cb_lurgen.png,,lurgen,,,,,,,,,,,0.003703704,-0.107407407,1,0,0,lurgen,0,59,59,29,1
,,,,,,00079,2023-10-29_16h44.43.635,vbt_B1_day2,2022.2.4,Win32,60.07449237,,,,,,,,,,,,,,,,,,,,,,,,,,,,,,,,,,,,,,,,,,,,,,,,,,,,,,,,,,,,,,,,,,,
